UTC_Time,Vin,TC1,TC2,Rh1,Vh1,Ah1,Acp1,Dty1,Err1,Rh2,Vh2,Ah2,Acp2,Dty2,Err2,Accel_x,Accel_y,Accel_z,gyro_x,gyro_y,gyro_z,Temp_c,Accel_x_h,Accel_y_h,Accel_z_h,gyro_x_h,gyro_y_h,gyro_z_h,
2026_07_06_20_23_28.040,3.862,43.4,0,0.768,0,0,0,0, ,0,0,0,0,0, ,-41.1,396.8,918.2,-0.8,-0.6,-1.7,25,-41.1,396.8,918.2,-0.8,-0.6,-1.7,
2026_07_06_20_23_28.061,3.862,43.4,0,0.769,0,0,0,0, ,0,0,0,0,0, ,-40.4,395.9,917.8,-0.8,-0.6,-1.8,25,-41.0787,396.773,918.188,-0.8,-0.6,-1.70305,
2026_07_06_20_23_28.079,3.862,43.4,0,0.769,0,0,0,0, ,0,0,0,0,0, ,-40.1,394.4,917.9,-0.8,-0.6,-1.8,25,-41.0282,396.674,918.167,-0.8,-0.6,-1.70895,
2026_07_06_20_23_28.099,3.862,43.3,0,0.769,0,0,0,0, ,0,0,0,0,0, ,-39.4,396.2,918,-0.8,-0.6,-1.8,25,-40.9503,396.59,918.154,-0.8,-0.6,-1.7145,
2026_07_06_20_23_28.118,3.862,43.3,0,0.767,0,0,0,0, ,0,0,0,0,0, ,-39.5,396.1,915.8,-0.8,-0.6,-1.9,25,-40.8589,396.563,918.078,-0.8,-0.6,-1.72276,
2026_07_06_20_23_28.138,3.862,43.3,0,0.769,0,0,0,0, ,0,0,0,0,0, ,-41.2,396.2,916,-0.8,-0.6,-1.8,25,-40.8279,396.538,917.945,-0.8,-0.6,-1.73051,
2026_07_06_20_23_28.158,3.862,43.3,0,0.769,0,0,0,0, ,0,0,0,0,0, ,-40.5,394.6,918.4,-0.9,-0.6,-1.9,25,-40.8292,396.469,917.899,-0.803047,-0.6,-1.73779,
2026_07_06_20_23_28.178,3.862,43.3,0,0.769,0,0,0,0, ,0,0,0,0,0, ,-41.2,395.7,917.4,-0.8,-0.6,-1.8,25,-40.8305,396.388,917.9,-0.805908,-0.6,-1.74463,
2026_07_06_20_23_28.197,3.862,43.3,0,0.771,0,0,0,0, ,0,0,0,0,0, ,-39.4,396.4,917.3,-0.7,-0.6,-1.9,25,-40.7981,396.368,917.866,-0.802501,-0.6,-1.75105,
2026_07_06_20_23_28.217,3.862,43.3,0,0.767,0,0,0,0, ,0,0,0,0,0, ,-39.3,395,916.7,-0.7,-0.6,-1.9,25,-40.7099,396.327,917.813,-0.796255,-0.6,-1.76013,
2026_07_06_20_23_28.238,3.862,43.3,0,0.77,0,0,0,0, ,0,0,0,0,0, ,-39.6,396.7,917.3,-0.6,-0.6,-1.7,25,-40.6331,396.298,917.764,-0.787343,-0.6,-1.76256,
2026_07_06_20_23_28.257,3.862,43.3,0,0.77,0,0,0,0, ,0,0,0,0,0, ,-40.1,395.9,916.2,-0.7,-0.6,-1.8,25,-40.5854,396.298,917.702,-0.778973,-0.6,-1.76179,
2026_07_06_20_23_28.277,3.862,43.3,0,0.77,0,0,0,0, ,0,0,0,0,0, ,-40.6,396.6,917.2,-0.8,-0.6,-1.8,25,-40.5711,396.295,917.641,-0.777208,-0.6,-1.76412,
2026_07_06_20_23_28.297,3.862,43.3,0,0.77,0,0,0,0, ,0,0,0,0,0, ,-39.6,395.5,917.8,-0.8,-0.6,-1.8,25,-40.5424,396.28,917.632,-0.778597,-0.6,-1.76631,
2026_07_06_20_23_28.317,3.862,43.3,0,0.77,0,0,0,0, ,0,0,0,0,0, ,-39.3,393.7,918.3,-0.8,-0.5,-1.8,25,-40.4758,396.178,917.658,-0.779901,-0.596953,-1.76836,
2026_07_06_20_23_28.336,3.862,43.3,0,0.77,0,0,0,0, ,0,0,0,0,0, ,-39.3,394.8,917.2,-0.7,-0.6,-1.8,25,-40.4041,396.06,917.663,-0.778079,-0.594092,-1.77029,
2026_07_06_20_23_28.356,3.862,43.2,0,0.769,0,0,0,0, ,0,0,0,0,0, ,-39.7,396.9,916.9,-0.8,-0.6,-1.8,25,-40.349,396.048,917.626,-0.776368,-0.594452,-1.7721,
2026_07_06_20_23_28.376,3.862,43.2,0,0.77,0,0,0,0, ,0,0,0,0,0, ,-40.6,395.6,916.3,-0.7,-0.6,-1.8,25,-40.3369,396.06,917.563,-0.774761,-0.59479,-1.7738,
2026_07_06_20_23_28.395,3.862,43.2,0,0.769,0,0,0,0, ,0,0,0,0,0, ,-40.8,394.5,919.3,-0.9,-0.6,-1.8,25,-40.359,395.998,917.578,-0.776299,-0.595108,-1.7754,
2026_07_06_20_23_28.415,3.862,43.3,0,0.769,0,0,0,0, ,0,0,0,0,0, ,-42.1,396.6,916.9,-0.8,-0.6,-1.8,25,-40.4255,395.971,917.61,-0.78079,-0.595406,-1.7769,
2026_07_06_20_23_28.435,3.862,43.3,0,0.77,0,0,0,0, ,0,0,0,0,0, ,-48,393.5,912.5,-1,-0.8,-1.7,25,-40.7073,395.915,917.432,-0.788054,-0.601779,-1.77526,
2026_07_06_20_23_28.454,3.862,43.3,0,0.77,0,0,0,0, ,0,0,0,0,0, ,-33.6,398,917.8,0,-0.5,-1.8,25,-40.713,395.905,917.293,-0.770501,-0.604718,-1.77372,
2026_07_06_20_23_28.475,3.862,43.3,0,0.772,0,0,0,0, ,0,0,0,0,0, ,-39.9,389.1,918.8,0.2,0,-0.7,25,-40.4715,395.761,917.355,-0.717455,-0.583102,-1.7418,
2026_07_06_20_23_28.494,3.862,43.2,0,0.769,0,0,0,0, ,0,0,0,0,0, ,-40.8,403,915.5,2.4,0,-0.4,25,-40.4641,395.779,917.342,-0.594516,-0.547569,-1.66918,
2026_07_06_20_23_28.514,3.862,43.2,0,0.771,0,0,0,0, ,0,0,0,0,0, ,-42.1,394.5,916.1,-1,-0.5,-1.7,25,-40.5242,395.96,917.248,-0.515632,-0.529436,-1.63145,
2026_07_06_20_23_28.534,3.862,43.3,0,0.771,0,0,0,0, ,0,0,0,0,0, ,-36.4,395.5,919.1,-0.5,-0.5,-1.9,25,-40.4465,395.901,917.27,-0.529914,-0.527643,-1.64172,
2026_07_06_20_23_28.555,3.862,43.2,0,0.77,0,0,0,0, ,0,0,0,0,0, ,-41.5,399.9,917.9,-1.2,-0.6,-1.8,25,-40.3553,396.011,917.345,-0.549419,-0.529005,-1.65441,
2026_07_06_20_23_28.574,3.862,43.3,0,0.77,0,0,0,0, ,0,0,0,0,0, ,-41.7,394.7,917.4,-0.4,-0.5,-1.9,25,-40.4312,396.09,917.363,-0.564689,-0.530284,-1.66633,
2026_07_06_20_23_28.593,3.862,43.3,0,0.771,0,0,0,0, ,0,0,0,0,0, ,-37.4,398.3,917.2,-1.1,-0.5,-1.8,25,-40.3775,396.115,917.359,-0.575981,-0.528439,-1.67752,
2026_07_06_20_23_28.613,3.862,43.3,0,0.769,0,0,0,0, ,0,0,0,0,0, ,-40.7,394.1,916.6,-0.8,-0.6,-1.8,25,-40.2966,396.12,917.331,-0.598773,-0.529753,-1.68499,
2026_07_06_20_23_28.633,3.862,43.3,0,0.769,0,0,0,0, ,0,0,0,0,0, ,-39.6,402,916.3,-0.6,-0.5,-1.8,25,-40.2876,396.237,917.278,-0.604941,-0.530987,-1.69199,
2026_07_06_20_23_28.653,3.862,43.3,0,0.77,0,0,0,0, ,0,0,0,0,0, ,-41.6,395.2,916.3,-0.7,-0.6,-1.8,25,-40.3067,396.381,917.218,-0.607687,-0.532145,-1.69858,
2026_07_06_20_23_28.673,3.862,43.3,0,0.77,0,0,0,0, ,0,0,0,0,0, ,-38.5,397.7,916.8,-0.9,-0.5,-1.8,25,-40.291,396.386,917.177,-0.619406,-0.533233,-1.70476,
2026_07_06_20_23_28.693,3.862,43.3,0,0.768,0,0,0,0, ,0,0,0,0,0, ,-41.7,397.2,916.5,-0.8,-0.6,-1.8,25,-40.2794,396.45,917.145,-0.633458,-0.534255,-1.71056,
2026_07_06_20_23_28.712,3.862,43.3,0,0.77,0,0,0,0, ,0,0,0,0,0, ,-38.5,398.1,915.8,-0.7,-0.6,-1.8,25,-40.2685,396.524,917.085,-0.64056,-0.538261,-1.71601,
2026_07_06_20_23_28.734,3.862,43.2,0,0.769,0,0,0,0, ,0,0,0,0,0, ,-40.1,396.7,914.7,-0.7,-0.6,-1.8,25,-40.2094,396.577,916.973,-0.644182,-0.542023,-1.72113,
2026_07_06_20_23_28.752,3.862,43.2,0,0.77,0,0,0,0, ,0,0,0,0,0, ,-41.5,395.9,917.4,-0.5,-0.5,-1.8,25,-40.2454,396.56,916.917,-0.64149,-0.54251,-1.72593,
2026_07_06_20_23_28.771,3.862,43.3,0,0.769,0,0,0,0, ,0,0,0,0,0, ,-39.9,397.2,915.1,-0.8,-0.5,-1.8,25,-40.2731,396.559,916.876,-0.642008,-0.539919,-1.73045,
2026_07_06_20_23_28.791,3.862,43.2,0,0.768,0,0,0,0, ,0,0,0,0,0, ,-39.6,395.6,917.9,-0.8,-0.5,-1.9,25,-40.2413,396.55,916.853,-0.651636,-0.537487,-1.73773,
2026_07_06_20_23_28.811,3.862,43.3,0,0.77,0,0,0,0, ,0,0,0,0,0, ,-41.6,396.3,915.6,-0.7,-0.6,-1.9,25,-40.2631,396.513,916.847,-0.65763,-0.538249,-1.74762,
2026_07_06_20_23_28.831,3.862,43.3,0,0.77,0,0,0,0, ,0,0,0,0,0, ,-40.5,393.7,917.6,-0.8,-0.6,-2,25,-40.3111,396.421,916.832,-0.663259,-0.542012,-1.75995,
2026_07_06_20_23_28.850,3.862,43.3,0,0.77,0,0,0,0, ,0,0,0,0,0, ,-38.2,397.2,917.7,-0.6,-0.5,-1.8,25,-40.2525,396.362,916.882,-0.665498,-0.542499,-1.76849,
2026_07_06_20_23_28.870,3.862,43.2,0,0.77,0,0,0,0, ,0,0,0,0,0, ,-40.2,397.4,915.4,-0.9,-0.6,-1.8,25,-40.1884,396.419,916.861,-0.670647,-0.542956,-1.77041,
2026_07_06_20_23_28.890,3.862,43.2,0,0.769,0,0,0,0, ,0,0,0,0,0, ,-41,396.6,916.7,-0.7,-0.5,-1.9,25,-40.2134,396.454,916.812,-0.678529,-0.543385,-1.77526,
2026_07_06_20_23_28.910,3.862,43.2,0,0.77,0,0,0,0, ,0,0,0,0,0, ,-40.1,395.2,916.1,-0.8,-0.6,-1.8,25,-40.234,396.421,916.787,-0.682885,-0.543788,-1.77981,
2026_07_06_20_23_28.930,3.862,43.2,0,0.77,0,0,0,0, ,0,0,0,0,0, ,-40.1,396.2,919.1,-0.7,-0.5,-1.8,25,-40.2258,396.377,916.836,-0.686974,-0.544167,-1.78104,
2026_07_06_20_23_28.949,3.862,43.2,0,0.77,0,0,0,0, ,0,0,0,0,0, ,-41.2,396.4,915.2,-0.9,-0.5,-1.9,25,-40.2516,396.372,916.855,-0.693862,-0.541475,-1.78524,
2026_07_06_20_23_28.971,3.862,43.2,0,0.77,0,0,0,0, ,0,0,0,0,0, ,-40.2,396.8,916.7,-0.8,-0.5,-1.9,25,-40.279,396.386,916.8,-0.703377,-0.538948,-1.79224,
2026_07_06_20_23_28.989,3.862,43.2,0,0.769,0,0,0,0, ,0,0,0,0,0, ,-39.5,397.4,916.8,-0.8,-0.5,-1.8,25,-40.2528,396.429,916.797,-0.709265,-0.536575,-1.79576,
2026_07_06_20_23_29.010,3.862,43.2,0,0.77,0,0,0,0, ,0,0,0,0,0, ,-40.4,398.3,917.2,-0.8,-0.6,-1.8,25,-40.2344,396.516,916.81,-0.714794,-0.537393,-1.79602,
2026_07_06_20_23_29.031,3.862,43.2,0,0.769,0,0,0,0, ,0,0,0,0,0, ,-40.6,397.7,915.4,-0.7,-0.6,-1.8,25,-40.2506,396.606,916.779,-0.716939,-0.541208,-1.79626,
2026_07_06_20_23_29.049,3.862,43.2,0,0.768,0,0,0,0, ,0,0,0,0,0, ,-40.7,395.9,918,-0.8,-0.6,-1.8,25,-40.2749,396.618,916.774,-0.718954,-0.54479,-1.79649,
2026_07_06_20_23_29.068,3.862,43.3,0,0.769,0,0,0,0, ,0,0,0,0,0, ,-40,395.2,915.2,-0.7,-0.5,-1.9,25,-40.2795,396.553,916.763,-0.720846,-0.545108,-1.79975,
2026_07_06_20_23_29.088,3.862,43.1,0,0.77,0,0,0,0, ,0,0,0,0,0, ,-39.6,397.5,916.1,-0.8,-0.6,-1.9,25,-40.2503,396.541,916.695,-0.722622,-0.545406,-1.80586,
2026_07_06_20_23_29.108,3.862,43.1,0,0.77,0,0,0,0, ,0,0,0,0,0, ,-40.8,396.9,916.3,-0.8,-0.6,-1.8,25,-40.2472,396.581,916.665,-0.727338,-0.548733,-1.80855,
2026_07_06_20_23_29.128,3.862,43.2,0,0.768,0,0,0,0, ,0,0,0,0,0, ,-37.4,397.4,917.6,-0.9,-0.7,-1.8,25,-40.1773,396.616,916.683,-0.734812,-0.554904,-1.80803,
2026_07_06_20_23_29.148,3.862,43.2,0,0.768,0,0,0,0, ,0,0,0,0,0, ,-40.7,396.2,917.7,-0.9,-0.6,-1.8,25,-40.1086,396.627,916.741,-0.744878,-0.560699,-1.80754,
2026_07_06_20_23_29.169,3.862,43.2,0,0.769,0,0,0,0, ,0,0,0,0,0, ,-40.7,397.2,916,-0.6,-0.5,-1.9,25,-40.1446,396.631,916.748,-0.74519,-0.560047,-1.81012,
2026_07_06_20_23_29.188,3.862,43.2,0,0.769,0,0,0,0, ,0,0,0,0,0, ,-39.6,398.9,916.1,-0.7,-0.5,-1.8,25,-40.145,396.718,916.706,-0.73939,-0.556388,-1.81255,
2026_07_06_20_23_29.208,3.862,43.2,0,0.77,0,0,0,0, ,0,0,0,0,0, ,-42.7,398,915.5,-0.7,-0.6,-1.8,25,-40.2062,396.823,916.65,-0.736989,-0.555998,-1.81179,
2026_07_06_20_23_29.227,3.862,43.2,0,0.77,0,0,0,0, ,0,0,0,0,0, ,-40.6,396.6,916.1,-0.7,-0.5,-1.7,25,-40.2942,396.852,916.599,-0.734735,-0.555633,-1.80802,
2026_07_06_20_23_29.247,3.862,43.2,0,0.769,0,0,0,0, ,0,0,0,0,0, ,-39,397.2,916.5,-0.7,-0.6,-1.8,25,-40.2641,396.855,916.58,-0.732619,-0.55529,-1.80449,
2026_07_06_20_23_29.267,3.862,43.3,0,0.77,0,0,0,0, ,0,0,0,0,0, ,-39.1,397.3,915.7,-0.7,-0.5,-1.7,25,-40.1901,396.879,916.551,-0.730631,-0.554967,-1.80117,
2026_07_06_20_23_29.286,3.862,43.2,0,0.768,0,0,0,0, ,0,0,0,0,0, ,-40.8,395.1,916.3,-0.7,-0.5,-1.8,25,-40.1755,396.838,916.517,-0.728764,-0.551618,-1.79805,
2026_07_06_20_23_29.306,3.862,43.1,0,0.769,0,0,0,0, ,0,0,0,0,0, ,-40.4,397.4,916.6,-0.7,-0.5,-1.8,25,-40.2013,396.802,916.513,-0.727012,-0.548472,-1.79817,
2026_07_06_20_23_29.326,3.862,43.2,0,0.769,0,0,0,0, ,0,0,0,0,0, ,-40,396.9,918,-0.7,-0.6,-1.9,25,-40.2012,396.823,916.561,-0.725366,-0.548565,-1.80133,
2026_07_06_20_23_29.345,3.862,43.1,0,0.769,0,0,0,0, ,0,0,0,0,0, ,-40.1,397.3,916.7,-0.7,-0.6,-1.9,25,-40.192,396.84,916.609,-0.72382,-0.5517,-1.80734,
2026_07_06_20_23_29.365,3.862,43.1,0,0.769,0,0,0,0, ,0,0,0,0,0, ,-38.6,396.8,918,-0.8,-0.6,-1.8,25,-40.1407,396.853,916.655,-0.725415,-0.554643,-1.80994,
2026_07_06_20_23_29.385,3.862,43.1,0,0.769,0,0,0,0, ,0,0,0,0,0, ,-39.1,396.6,918.3,-0.8,-0.7,-1.8,25,-40.0621,396.844,916.746,-0.72996,-0.560454,-1.80933,
2026_07_06_20_23_29.405,3.862,43.2,0,0.77,0,0,0,0, ,0,0,0,0,0, ,-41.1,396.7,916.2,-0.8,-0.6,-1.8,25,-40.0644,396.832,916.776,-0.734228,-0.565911,-1.80877,
2026_07_06_20_23_29.424,3.862,43.3,0,0.769,0,0,0,0, ,0,0,0,0,0, ,-39.7,397.4,916.9,-0.7,-0.5,-1.8,25,-40.0848,396.845,916.763,-0.735189,-0.564941,-1.80823,
2026_07_06_20_23_29.445,3.862,43.2,0,0.769,0,0,0,0, ,0,0,0,0,0, ,-40.8,396.8,915.5,-0.9,-0.5,-1.7,25,-40.0949,396.861,916.728,-0.739139,-0.560984,-1.80468,
2026_07_06_20_23_29.467,3.862,43.1,0,0.769,0,0,0,0, ,0,0,0,0,0, ,-39.4,395.6,916.5,-0.8,-0.5,-1.8,25,-40.0952,396.82,916.684,-0.745894,-0.557267,-1.80135,
2026_07_06_20_23_29.484,3.862,43.2,0,0.769,0,0,0,0, ,0,0,0,0,0, ,-40.2,397.3,917.3,-0.8,-0.5,-1.8,25,-40.0772,396.798,916.697,-0.749191,-0.553778,-1.80127,
2026_07_06_20_23_29.504,3.862,43.2,0,0.769,0,0,0,0, ,0,0,0,0,0, ,-39.4,397.5,916.5,-0.7,-0.6,-1.8,25,-40.0603,396.835,916.709,-0.749241,-0.553548,-1.80119,
2026_07_06_20_23_29.523,3.862,43.1,0,0.769,0,0,0,0, ,0,0,0,0,0, ,-40.1,397.4,915.6,-0.8,-0.5,-1.9,25,-40.0414,396.872,916.669,-0.749287,-0.553331,-1.80417,
2026_07_06_20_23_29.543,3.862,43.2,0,0.769,0,0,0,0, ,0,0,0,0,0, ,-41.1,395.8,916.8,-0.7,-0.5,-1.9,25,-40.0755,396.855,916.641,-0.74933,-0.550081,-1.81001,
2026_07_06_20_23_29.563,3.862,43.2,0,0.769,0,0,0,0, ,0,0,0,0,0, ,-41.1,397.2,915.2,-0.6,-0.5,-1.9,25,-40.1379,396.834,916.602,-0.743277,-0.54703,-1.81549,
2026_07_06_20_23_29.583,3.862,43.1,0,0.769,0,0,0,0, ,0,0,0,0,0, ,-39.6,398.3,918,-0.7,-0.5,-1.8,25,-40.1508,396.89,916.602,-0.737593,-0.544164,-1.81759,
2026_07_06_20_23_29.603,3.862,43.1,0,0.77,0,0,0,0, ,0,0,0,0,0, ,-41.1,395,914,-0.7,-0.5,-1.8,25,-40.1629,396.875,916.565,-0.735303,-0.541473,-1.81652,
2026_07_06_20_23_29.623,3.862,43.1,0,0.769,0,0,0,0, ,0,0,0,0,0, ,-39.1,412.8,940.4,-0.9,-0.6,-1.8,25,-40.1591,397.303,917.213,-0.739245,-0.541992,-1.81551,
2026_07_06_20_23_29.642,3.862,43.1,0,0.769,0,0,0,0, ,0,0,0,0,0, ,-40.7,391.4,902.3,0.2,-0.6,-1.7,25,-40.1433,397.595,917.465,-0.715525,-0.545527,-1.81152,
2026_07_06_20_23_29.662,3.862,43.1,0,0.769,0,0,0,0, ,0,0,0,0,0, ,-36.3,397.7,930.9,-1.2,-0.5,-1.8,25,-40.0432,397.41,917.412,-0.702392,-0.5458,-1.80777,
2026_07_06_20_23_29.682,3.862,43.1,0,0.769,0,0,0,0, ,0,0,0,0,0, ,-44.6,400.8,908.9,-0.4,-0.6,-1.8,25,-40.068,397.522,917.564,-0.70834,-0.546056,-1.8073,
2026_07_06_20_23_29.701,3.862,43.1,0,0.77,0,0,0,0, ,0,0,0,0,0, ,-37.4,396.2,921.6,0.2,-0.5,-1.8,25,-40.1248,397.582,917.423,-0.671269,-0.546296,-1.80685,
2026_07_06_20_23_29.721,3.862,43.1,0,0.769,0,0,0,0, ,0,0,0,0,0, ,-41.6,394.1,910.6,-0.7,-0.6,-1.8,25,-40.0867,397.433,917.342,-0.645598,-0.546522,-1.80644,
2026_07_06_20_23_29.741,3.862,43.2,0,0.77,0,0,0,0, ,0,0,0,0,0, ,-38.4,398.3,919,-0.6,-0.6,-1.8,25,-40.0814,397.358,917.187,-0.645866,-0.54978,-1.80604,
2026_07_06_20_23_29.761,3.862,43.1,0,0.77,0,0,0,0, ,0,0,0,0,0, ,-42.2,396.2,913.9,-0.9,-0.5,-1.8,25,-40.0947,397.352,917.142,-0.652212,-0.549794,-1.80568,
2026_07_06_20_23_29.781,3.862,43.2,0,0.769,0,0,0,0, ,0,0,0,0,0, ,-39,398.8,921.7,-1.1,-0.7,-1.8,25,-40.1255,397.361,917.183,-0.673405,-0.552853,-1.80533,
2026_07_06_20_23_29.802,3.862,43.1,0,0.77,0,0,0,0, ,0,0,0,0,0, ,-41.9,392.4,915,-0.8,-0.6,-1.8,25,-40.1453,397.253,917.254,-0.69026,-0.558773,-1.80501,
2026_07_06_20_23_29.821,3.862,43.1,0,0.769,0,0,0,0, ,0,0,0,0,0, ,-37.5,399.2,919.7,-0.7,-0.5,-1.9,25,-40.1182,397.165,917.26,-0.693901,-0.558239,-1.80775,
2026_07_06_20_23_29.841,3.862,43.1,0,0.771,0,0,0,0, ,0,0,0,0,0, ,-43.4,395.7,913,-0.7,-0.5,-1.9,25,-40.1384,397.182,917.204,-0.694272,-0.55469,-1.81337,
2026_07_06_20_23_29.860,3.862,43.2,0,0.769,0,0,0,0, ,0,0,0,0,0, ,-39.5,397.8,921,-0.9,-0.6,-1.8,25,-40.2183,397.156,917.192,-0.700715,-0.554404,-1.8156,
2026_07_06_20_23_29.879,3.862,43.2,0,0.768,0,0,0,0, ,0,0,0,0,0, ,-39.5,395.7,914.3,-0.8,-0.6,-1.8,25,-40.1745,397.131,917.22,-0.709812,-0.557182,-1.81465,
2026_07_06_20_23_29.899,3.862,43.1,0,0.77,0,0,0,0, ,0,0,0,0,0, ,-39.4,398.3,917.2,-0.9,-0.5,-1.8,25,-40.1304,397.123,917.13,-0.718355,-0.556745,-1.81376,
2026_07_06_20_23_29.919,3.862,43.2,0,0.771,0,0,0,0, ,0,0,0,0,0, ,-39.5,398.5,914.9,-0.7,-0.6,-1.8,25,-40.0889,397.201,917.064,-0.72333,-0.556334,-1.81292,
2026_07_06_20_23_29.939,3.862,43.1,0,0.769,0,0,0,0, ,0,0,0,0,0, ,-40.5,395,916.2,-0.7,-0.5,-1.8,25,-40.0835,397.173,916.972,-0.721908,-0.555948,-1.81213,
2026_07_06_20_23_29.959,3.862,43.1,0,0.769,0,0,0,0, ,0,0,0,0,0, ,-40.8,398.9,916.3,-0.7,-0.6,-1.8,25,-40.118,397.16,916.928,-0.720573,-0.555585,-1.81139,
2026_07_06_20_23_29.979,3.862,43.1,0,0.77,0,0,0,0, ,0,0,0,0,0, ,-39.9,397.5,915,-0.7,-0.5,-1.8,25,-40.1322,397.223,916.85,-0.71932,-0.555245,-1.8107,
2026_07_06_20_23_29.999,3.862,43.1,0,0.769,0,0,0,0, ,0,0,0,0,0, ,-40.4,396.9,918.8,-0.7,-0.5,-1.8,25,-40.1333,397.222,916.853,-0.718142,-0.551878,-1.81005,
2026_07_06_20_23_30.018,3.862,43.1,0,0.77,0,0,0,0, ,0,0,0,0,0, ,-41.2,396.2,915.7,-0.8,-0.5,-1.8,25,-40.1739,397.181,916.877,-0.720084,-0.548717,-1.80943,
2026_07_06_20_23_30.037,3.862,43.1,0,0.769,0,0,0,0, ,0,0,0,0,0, ,-38.4,396.3,917.1,-0.7,-0.5,-1.9,25,-40.1511,397.124,916.848,-0.721907,-0.545748,-1.81191,
2026_07_06_20_23_30.058,3.862,43,0,0.768,0,0,0,0, ,0,0,0,0,0, ,-39.9,396.8,916.3,-0.7,-0.5,-1.8,25,-40.0901,397.089,916.839,-0.720572,-0.542961,-1.81423,
2026_07_06_20_23_30.077,3.862,43.1,0,0.769,0,0,0,0, ,0,0,0,0,0, ,-41.2,396.6,916.3,-0.7,-0.6,-1.8,25,-40.1181,397.065,916.806,-0.719318,-0.54339,-1.81336,
2026_07_06_20_23_30.097,3.862,43.1,0,0.769,0,0,0,0, ,0,0,0,0,0, ,-39.5,396.8,917.1,-0.6,-0.5,-1.8,25,-40.1322,397.043,916.8,-0.715094,-0.543792,-1.81255,
2026_07_06_20_23_30.117,3.862,43.1,0,0.769,0,0,0,0, ,0,0,0,0,0, ,-40.6,396.3,916.1,-0.7,-0.6,-1.8,25,-40.1272,397.013,916.788,-0.711127,-0.544171,-1.81178,
2026_07_06_20_23_30.136,3.862,43.1,0,0.769,0,0,0,0, ,0,0,0,0,0, ,-39.4,397.9,915.8,-0.7,-0.5,-1.8,25,-40.1195,397.018,916.737,-0.710449,-0.544526,-1.81106,
2026_07_06_20_23_30.157,3.862,43.1,0,0.772,0,0,0,0, ,0,0,0,0,0, ,-38.6,397.3,915.5,-0.8,-0.6,-1.8,25,-40.0513,397.054,916.67,-0.712859,-0.544859,-1.81039,
2026_07_06_20_23_30.176,3.862,43,0,0.77,0,0,0,0, ,0,0,0,0,0, ,-40.4,396.3,916.9,-0.8,-0.5,-1.8,25,-40.0177,397.038,916.642,-0.71817,-0.545173,-1.80976,
2026_07_06_20_23_30.196,3.862,43.1,0,0.769,0,0,0,0, ,0,0,0,0,0, ,-41.1,396.3,917.4,-0.7,-0.6,-1.8,25,-40.0623,396.993,916.673,-0.720109,-0.545467,-1.80916,
2026_07_06_20_23_30.220,3.862,43,0,0.769,0,0,0,0, ,0,0,0,0,0, ,-39.9,397.7,917.3,-0.7,-0.5,-1.8,25,-40.089,396.994,916.714,-0.718884,-0.545743,-1.8086,
2026_07_06_20_23_30.236,3.862,43.1,0,0.77,0,0,0,0, ,0,0,0,0,0, ,-39.9,396.8,917.4,-0.7,-0.6,-1.8,25,-40.0775,397.009,916.753,-0.717733,-0.546003,-1.80808,
2026_07_06_20_23_30.256,3.862,43.1,0,0.768,0,0,0,0, ,0,0,0,0,0, ,-40.4,397.7,917.2,-0.8,-0.5,-1.8,25,-40.0819,397.024,916.786,-0.719699,-0.546246,-1.80759,
2026_07_06_20_23_30.276,3.862,43.1,0,0.769,0,0,0,0, ,0,0,0,0,0, ,-38.8,397.2,916.5,-0.7,-0.6,-1.8,25,-40.0525,397.05,916.79,-0.721546,-0.546475,-1.80712,
2026_07_06_20_23_30.296,3.862,43.1,0,0.769,0,0,0,0, ,0,0,0,0,0, ,-40.6,397,915.8,-0.7,-0.5,-1.8,25,-40.031,397.053,916.751,-0.720233,-0.54669,-1.80669,
2026_07_06_20_23_30.315,3.862,43.1,0,0.77,0,0,0,0, ,0,0,0,0,0, ,-40,398.1,916,-0.7,-0.6,-1.8,25,-40.0474,397.083,916.699,-0.719,-0.546891,-1.80628,
2026_07_06_20_23_30.335,3.862,43.1,0,0.769,0,0,0,0, ,0,0,0,0,0, ,-39.7,398.3,916.2,-0.7,-0.6,-1.7,25,-40.0354,397.151,916.663,-0.717842,-0.550128,-1.80285,
2026_07_06_20_23_30.355,3.862,43.1,0,0.769,0,0,0,0, ,0,0,0,0,0, ,-40.1,398.6,916.9,-0.7,-0.6,-1.8,25,-40.0271,397.231,916.656,-0.716755,-0.553167,-1.79963,
2026_07_06_20_23_30.375,3.862,43.1,0,0.769,0,0,0,0, ,0,0,0,0,0, ,-40.5,397.5,916.3,-0.7,-0.5,-1.8,25,-40.0438,397.28,916.652,-0.715734,-0.552974,-1.79965,
2026_07_06_20_23_30.395,3.862,43.2,0,0.769,0,0,0,0, ,0,0,0,0,0, ,-39.7,395.6,916.8,-0.7,-0.5,-1.8,25,-40.0472,397.236,916.646,-0.714775,-0.549746,-1.79968,
2026_07_06_20_23_30.414,3.862,43,0,0.77,0,0,0,0, ,0,0,0,0,0, ,-41.3,397.2,915.5,-0.8,-0.6,-1.9,25,-40.0748,397.185,916.616,-0.716922,-0.549761,-1.80274,
2026_07_06_20_23_30.433,3.862,43,0,0.769,0,0,0,0, ,0,0,0,0,0, ,-40.2,396.9,918.2,-0.8,-0.5,-1.8,25,-40.1159,397.177,916.63,-0.721984,-0.549776,-1.80562,
2026_07_06_20_23_30.454,3.862,43.1,0,0.769,0,0,0,0, ,0,0,0,0,0, ,-40.4,398.4,916.2,-0.7,-0.6,-1.8,25,-40.1271,397.206,916.665,-0.723691,-0.549789,-1.80528,
2026_07_06_20_23_30.473,3.862,43.1,0,0.769,0,0,0,0, ,0,0,0,0,0, ,-39.6,398.1,915,-0.8,-0.5,-1.8,25,-40.1194,397.269,916.6,-0.725295,-0.549802,-1.80496,
2026_07_06_20_23_30.495,3.862,43.1,0,0.769,0,0,0,0, ,0,0,0,0,0, ,-40.5,397.5,916.1,-0.8,-0.5,-1.9,25,-40.1152,397.302,916.536,-0.729847,-0.546767,-1.8077,
2026_07_06_20_23_30.518,3.862,43.1,0,0.769,0,0,0,0, ,0,0,0,0,0, ,-39.9,397.4,915.8,-0.8,-0.6,-1.9,25,-40.1203,397.311,916.5,-0.734122,-0.546964,-1.81333,
2026_07_06_20_23_30.533,3.862,43.1,0,0.768,0,0,0,0, ,0,0,0,0,0, ,-40.2,397.2,916.3,-0.8,-0.5,-1.8,25,-40.1161,397.31,916.473,-0.738136,-0.547149,-1.81556,
2026_07_06_20_23_30.553,3.862,43.1,0,0.769,0,0,0,0, ,0,0,0,0,0, ,-38.9,398,915.8,-0.8,-0.6,-1.8,25,-40.0816,397.328,916.447,-0.741906,-0.547323,-1.81461,
2026_07_06_20_23_30.573,3.862,43,0,0.769,0,0,0,0, ,0,0,0,0,0, ,-40.6,396.2,918.2,-0.7,-0.5,-1.8,25,-40.0614,397.314,916.481,-0.742399,-0.547486,-1.81372,
2026_07_06_20_23_30.593,3.862,43,0,0.769,0,0,0,0, ,0,0,0,0,0, ,-39.6,395.9,915.7,-0.6,-0.6,-1.8,25,-40.0637,397.237,916.509,-0.736769,-0.547639,-1.81289,
2026_07_06_20_23_30.612,3.862,43.1,0,0.77,0,0,0,0, ,0,0,0,0,0, ,-40.2,395.8,916.5,-0.7,-0.6,-1.8,25,-40.0537,397.152,916.484,-0.731481,-0.55083,-1.8121,
2026_07_06_20_23_30.632,3.862,43.1,0,0.77,0,0,0,0, ,0,0,0,0,0, ,-40.1,396.7,918,-0.7,-0.5,-1.8,25,-40.0596,397.097,916.531,-0.729563,-0.55078,-1.81136,
2026_07_06_20_23_30.651,3.862,43,0,0.769,0,0,0,0, ,0,0,0,0,0, ,-41.2,395.5,916.6,-0.7,-0.5,-1.8,25,-40.0956,397.037,916.578,-0.727761,-0.547685,-1.81067,
2026_07_06_20_23_30.674,3.862,43,0,0.768,0,0,0,0, ,0,0,0,0,0, ,-40.1,397.9,916.2,-0.7,-0.5,-1.8,25,-40.1294,397.016,916.567,-0.72607,-0.544779,-1.81002,
2026_07_06_20_23_30.691,3.862,43,0,0.769,0,0,0,0, ,0,0,0,0,0, ,-40.4,397.4,916.5,-0.8,-0.7,-1.8,25,-40.1367,397.055,916.554,-0.727528,-0.548144,-1.80941,
2026_07_06_20_23_30.711,3.862,43,0,0.769,0,0,0,0, ,0,0,0,0,0, ,-38.3,396.4,916.7,-0.7,-0.6,-1.9,25,-40.0888,397.045,916.557,-0.728897,-0.554351,-1.81188,
2026_07_06_20_23_30.730,3.862,43,0,0.77,0,0,0,0, ,0,0,0,0,0, ,-39.5,396.3,918.9,-0.7,-0.6,-1.8,25,-40.0163,397.003,916.632,-0.727136,-0.557133,-1.81421,
2026_07_06_20_23_30.751,3.862,43.1,0,0.769,0,0,0,0, ,0,0,0,0,0, ,-39.6,397.8,916.5,-0.8,-0.6,-1.8,25,-39.9879,397.006,916.697,-0.72853,-0.559745,-1.81334,
2026_07_06_20_23_30.770,3.862,43,0,0.769,0,0,0,0, ,0,0,0,0,0, ,-40.5,397.5,917.1,-0.7,-0.5,-1.9,25,-39.9917,397.045,916.704,-0.729838,-0.559151,-1.81557,
2026_07_06_20_23_30.790,3.862,43,0,0.769,0,0,0,0, ,0,0,0,0,0, ,-39.5,396.7,916.5,-0.7,-0.5,-1.8,25,-39.9922,397.048,916.71,-0.72802,-0.555547,-1.81767,
2026_07_06_20_23_30.810,3.862,43.1,0,0.77,0,0,0,0, ,0,0,0,0,0, ,-39.3,398.4,916,-0.7,-0.6,-1.8,25,-39.9561,397.079,916.682,-0.726312,-0.555209,-1.8166,
2026_07_06_20_23_30.830,3.862,43,0,0.769,0,0,0,0, ,0,0,0,0,0, ,-39.9,396.6,916.6,-0.8,-0.6,-1.9,25,-39.9344,397.105,916.658,-0.727756,-0.557938,-1.81863,
2026_07_06_20_23_30.849,3.862,43.1,0,0.77,0,0,0,0, ,0,0,0,0,0, ,-39.6,397.7,915.5,-0.7,-0.6,-1.8,25,-39.9232,397.107,916.621,-0.729111,-0.560501,-1.82054,
2026_07_06_20_23_30.870,3.862,43,0,0.769,0,0,0,0, ,0,0,0,0,0, ,-40.4,398.4,917.3,-0.7,-0.6,-1.8,25,-39.9279,397.165,916.608,-0.727337,-0.562908,-1.81929,
2026_07_06_20_23_30.890,3.862,43,0,0.769,0,0,0,0, ,0,0,0,0,0, ,-40.6,397.5,915.8,-0.7,-0.6,-1.8,25,-39.9627,397.213,916.604,-0.725671,-0.565169,-1.81812,
2026_07_06_20_23_30.909,3.862,43,0,0.769,0,0,0,0, ,0,0,0,0,0, ,-39.7,397.7,916.8,-0.7,-0.6,-1.8,25,-39.9741,397.236,916.586,-0.724107,-0.567291,-1.81701,
2026_07_06_20_23_30.929,3.862,43,0,0.77,0,0,0,0, ,0,0,0,0,0, ,-40.1,395.8,916.2,-0.7,-0.6,-1.9,25,-39.9696,397.207,916.581,-0.722638,-0.569284,-1.81902,
2026_07_06_20_23_30.948,3.862,43,0,0.77,0,0,0,0, ,0,0,0,0,0, ,-39.6,395.8,917.6,-0.7,-0.5,-1.8,25,-39.9623,397.121,916.6,-0.721259,-0.568109,-1.82091,
2026_07_06_20_23_30.968,3.862,43.1,0,0.769,0,0,0,0, ,0,0,0,0,0, ,-39.5,397.2,916.3,-0.7,-0.6,-1.8,25,-39.9372,397.083,916.621,-0.719963,-0.567006,-1.81964,
2026_07_06_20_23_30.994,3.862,43.1,0,0.77,0,0,0,0, ,0,0,0,0,0, ,-40.7,397.2,916.3,-0.7,-0.5,-1.8,25,-39.9471,397.09,916.602,-0.718747,-0.565969,-1.81844,
2026_07_06_20_23_31.008,3.862,43,0,0.77,0,0,0,0, ,0,0,0,0,0, ,-40.4,397.2,916.9,-0.7,-0.6,-1.8,25,-39.9839,397.097,916.602,-0.717604,-0.564996,-1.81732,
2026_07_06_20_23_31.027,3.862,43,0,0.77,0,0,0,0, ,0,0,0,0,0, ,-40.1,397.5,916.7,-0.7,-0.5,-1.8,25,-40.0001,397.112,916.614,-0.716531,-0.564082,-1.81626,
2026_07_06_20_23_31.047,3.862,43,0,0.769,0,0,0,0, ,0,0,0,0,0, ,-40.2,396.2,915.7,-0.8,-0.6,-1.8,25,-40.0092,397.096,916.588,-0.718571,-0.563224,-1.81527,
2026_07_06_20_23_31.066,3.862,43,0,0.77,0,0,0,0, ,0,0,0,0,0, ,-40.4,396.9,916.3,-0.7,-0.7,-1.9,25,-40.0269,397.063,916.553,-0.720486,-0.568512,-1.81739,
2026_07_06_20_23_31.087,3.862,43,0,0.77,0,0,0,0, ,0,0,0,0,0, ,-39.7,397.8,916.6,-0.7,-0.6,-1.8,25,-40.0283,397.081,916.546,-0.719238,-0.573478,-1.81937,
2026_07_06_20_23_31.106,3.862,43.1,0,0.768,0,0,0,0, ,0,0,0,0,0, ,-41,397.8,916.9,-0.7,-0.6,-1.8,25,-40.0479,397.124,916.559,-0.718065,-0.575094,-1.81819,
2026_07_06_20_23_31.127,3.862,43.1,0,0.769,0,0,0,0, ,0,0,0,0,0, ,-40.2,396.6,916,-0.7,-0.5,-1.8,25,-40.0816,397.129,916.552,-0.716965,-0.573565,-1.81708,
2026_07_06_20_23_31.146,3.862,43,0,0.77,0,0,0,0, ,0,0,0,0,0, ,-40.4,396.7,918.9,-0.7,-0.5,-1.8,25,-40.0949,397.1,916.607,-0.715931,-0.569082,-1.81604,
2026_07_06_20_23_31.165,3.862,42.9,0,0.769,0,0,0,0, ,0,0,0,0,0, ,-39.7,396.8,916.1,-0.7,-0.6,-1.9,25,-40.0922,397.078,916.661,-0.71496,-0.567919,-1.81811,
2026_07_06_20_23_31.186,3.862,43.1,0,0.769,0,0,0,0, ,0,0,0,0,0, ,-38.8,396.9,915.6,-0.7,-0.5,-1.8,25,-40.0408,397.065,916.612,-0.714048,-0.566827,-1.82006,
2026_07_06_20_23_31.206,3.862,43,0,0.769,0,0,0,0, ,0,0,0,0,0, ,-40.2,397.3,916.6,-0.7,-0.6,-1.8,25,-40.0079,397.067,916.581,-0.713192,-0.565802,-1.81883,
2026_07_06_20_23_31.226,3.862,43.1,0,0.769,0,0,0,0, ,0,0,0,0,0, ,-40,397.2,916,-0.7,-0.6,-1.8,25,-40.0135,397.078,916.564,-0.712388,-0.567886,-1.81769,
2026_07_06_20_23_31.245,3.862,43,0,0.769,0,0,0,0, ,0,0,0,0,0, ,-40.5,396.8,916.9,-0.8,-0.6,-1.8,25,-40.0279,397.073,916.557,-0.71468,-0.569843,-1.81661,
2026_07_06_20_23_31.266,3.862,43,0,0.769,0,0,0,0, ,0,0,0,0,0, ,-40.2,397,916.8,-0.8,-0.6,-1.9,25,-40.0475,397.063,916.575,-0.71988,-0.57168,-1.81864,
2026_07_06_20_23_31.285,3.862,43,0,0.769,0,0,0,0, ,0,0,0,0,0, ,-39.9,396.3,917.1,-0.8,-0.6,-1.8,25,-40.0477,397.037,916.597,-0.724762,-0.573406,-1.82055,
2026_07_06_20_23_31.305,3.862,43,0,0.769,0,0,0,0, ,0,0,0,0,0, ,-39.7,395.7,916.3,-0.8,-0.6,-1.8,25,-40.0326,396.974,916.604,-0.729347,-0.575027,-1.8193,
2026_07_06_20_23_31.325,3.862,43,0,0.768,0,0,0,0, ,0,0,0,0,0, ,-39.5,397.2,916.3,-0.8,-0.6,-1.9,25,-40.0062,396.942,916.585,-0.733652,-0.576549,-1.82117,
2026_07_06_20_23_31.344,3.862,42.9,0,0.769,0,0,0,0, ,0,0,0,0,0, ,-40,397,915,-0.8,-0.6,-1.8,25,-39.9906,396.952,916.528,-0.737695,-0.577978,-1.82293,
2026_07_06_20_23_31.364,3.862,43,0,0.769,0,0,0,0, ,0,0,0,0,0, ,-39.5,401.9,914.9,-2.7,-0.7,-1.9,25,-39.976,397.104,916.432,-0.799383,-0.582366,-1.82458,
2026_07_06_20_23_31.384,3.862,43,0,0.769,0,0,0,0, ,0,0,0,0,0, ,-40.4,397.9,915.2,-0.2,-0.6,-1.9,25,-39.9744,397.274,916.348,-0.83903,-0.586488,-1.82917,
2026_07_06_20_23_31.404,3.862,43,0,0.769,0,0,0,0, ,0,0,0,0,0, ,-40.8,392.9,917.4,-0.9,-0.6,-1.9,25,-40.0125,397.16,916.345,-0.821417,-0.587311,-1.83349,
2026_07_06_20_23_31.424,3.862,43,0,0.769,0,0,0,0, ,0,0,0,0,0, ,-39.6,394.2,918,1.2,-0.6,-1.8,25,-40.0239,396.94,916.427,-0.762221,-0.588085,-1.8345,
2026_07_06_20_23_31.443,3.862,43,0,0.769,0,0,0,0, ,0,0,0,0,0, ,-40.6,398.6,915.7,-4.2,-0.7,-2,25,-40.0286,396.907,916.453,-0.807179,-0.591857,-1.83849,
2026_07_06_20_23_31.464,3.862,42.9,0,0.769,0,0,0,0, ,0,0,0,0,0, ,-40.2,403.5,915.7,2,-0.5,-1.7,25,-40.0512,397.16,916.407,-0.825023,-0.592354,-1.83919,
2026_07_06_20_23_31.483,3.862,42.9,0,0.769,0,0,0,0, ,0,0,0,0,0, ,-39.1,390.6,917.9,-0.7,-0.6,-1.8,25,-40.0267,397.153,916.431,-0.735139,-0.589773,-1.83375,
2026_07_06_20_23_31.503,3.862,43,0,0.769,0,0,0,0, ,0,0,0,0,0, ,-40,396.2,917.1,-1.2,-0.6,-1.8,25,-39.9977,396.924,916.496,-0.748232,-0.590396,-1.8317,
2026_07_06_20_23_31.525,3.862,43,0,0.769,0,0,0,0, ,0,0,0,0,0, ,-39.4,397.3,917.3,-0.7,-0.6,-1.8,25,-39.9796,396.914,916.539,-0.760527,-0.590981,-1.82977,
2026_07_06_20_23_31.543,3.862,42.9,0,0.769,0,0,0,0, ,0,0,0,0,0, ,-40,395,915.2,-0.7,-0.6,-1.8,25,-39.9625,396.867,916.522,-0.756839,-0.591531,-1.82795,
2026_07_06_20_23_31.562,3.862,42.9,0,0.769,0,0,0,0, ,0,0,0,0,0, ,-39.9,395.2,916.7,-0.8,-0.6,-1.8,25,-39.9618,396.76,916.487,-0.756422,-0.592047,-1.82625,
2026_07_06_20_23_31.581,3.862,43,0,0.769,0,0,0,0, ,0,0,0,0,0, ,-40.5,396.6,916.6,-0.7,-0.5,-1.8,25,-39.9763,396.707,916.497,-0.756031,-0.589485,-1.82465,
2026_07_06_20_23_31.601,3.862,42.9,0,0.769,0,0,0,0, ,0,0,0,0,0, ,-40.7,397.5,916.8,-0.7,-0.6,-1.8,25,-40.0143,396.728,916.509,-0.752616,-0.587079,-1.82315,
2026_07_06_20_23_31.622,3.862,42.9,0,0.772,0,0,0,0, ,0,0,0,0,0, ,-39.9,396.2,916.1,-0.7,-0.5,-1.7,25,-40.0317,396.735,916.506,-0.74941,-0.584819,-1.81869,
2026_07_06_20_23_31.641,3.862,43,0,0.768,0,0,0,0, ,0,0,0,0,0, ,-40.5,396.9,916.2,-0.8,-0.5,-1.8,25,-40.0419,396.724,916.484,-0.749446,-0.57965,-1.8145,
2026_07_06_20_23_31.661,3.862,43,0,0.77,0,0,0,0, ,0,0,0,0,0, ,-39.9,398.8,916.2,-0.7,-0.5,-1.8,25,-40.0516,396.793,916.467,-0.74948,-0.574797,-1.81362,
2026_07_06_20_23_31.687,3.862,42.9,0,0.77,0,0,0,0, ,0,0,0,0,0, ,-39,397.3,916.5,-0.6,-0.5,-1.8,25,-40.0149,396.869,916.459,-0.743418,-0.570239,-1.81279,
2026_07_06_20_23_31.701,3.862,43,0,0.768,0,0,0,0, ,0,0,0,0,0, ,-39.7,398.1,917.4,-0.7,-0.6,-1.7,25,-39.9744,396.92,916.489,-0.737725,-0.569006,-1.80896,
2026_07_06_20_23_31.720,3.862,42.9,0,0.767,0,0,0,0, ,0,0,0,0,0, ,-39.6,397.4,916.1,-0.6,-0.6,-1.8,25,-39.9546,396.971,916.505,-0.732379,-0.570894,-1.80537,
2026_07_06_20_23_31.740,3.862,42.9,0,0.769,0,0,0,0, ,0,0,0,0,0, ,-40.8,397.2,915.8,-0.7,-0.6,-1.8,25,-39.9696,396.991,916.471,-0.727359,-0.572668,-1.80504,
2026_07_06_20_23_31.760,3.862,42.9,0,0.769,0,0,0,0, ,0,0,0,0,0, ,-39.5,397.2,915.8,-0.7,-0.5,-1.8,25,-39.9806,397.003,916.43,-0.725692,-0.571287,-1.80474,
2026_07_06_20_23_31.780,3.862,43,0,0.77,0,0,0,0, ,0,0,0,0,0, ,-39.7,396.6,916.6,-0.7,-0.6,-1.8,25,-39.9574,396.997,916.416,-0.724127,-0.569989,-1.80445,
2026_07_06_20_23_31.800,3.862,43,0,0.77,0,0,0,0, ,0,0,0,0,0, ,-39.4,396.8,916.5,-0.7,-0.5,-1.8,25,-39.9326,396.979,916.425,-0.722656,-0.568771,-1.80418,
2026_07_06_20_23_31.820,3.862,42.9,0,0.769,0,0,0,0, ,0,0,0,0,0, ,-40.1,397.7,916.5,-0.8,-0.5,-1.8,25,-39.9214,396.996,916.429,-0.724323,-0.564581,-1.80392,
2026_07_06_20_23_31.839,3.862,43,0,0.768,0,0,0,0, ,0,0,0,0,0, ,-40,397.8,915.1,-0.7,-0.6,-1.8,25,-39.9293,397.041,916.391,-0.725887,-0.563692,-1.80368,
2026_07_06_20_23_31.859,3.862,43,0,0.769,0,0,0,0, ,0,0,0,0,0, ,-40.6,397.7,915.7,-0.7,-0.6,-1.9,25,-39.9519,397.085,916.33,-0.72431,-0.565905,-1.80651,
2026_07_06_20_23_31.878,3.862,43,0,0.769,0,0,0,0, ,0,0,0,0,0, ,-39.5,397.7,916.3,-0.7,-0.5,-1.9,25,-39.9578,397.122,916.31,-0.722828,-0.564935,-1.8122,
2026_07_06_20_23_31.898,3.862,42.9,0,0.769,0,0,0,0, ,0,0,0,0,0, ,-39.9,396.1,916.7,-0.8,-0.5,-1.8,25,-39.9421,397.109,916.322,-0.724484,-0.560978,-1.81451,
2026_07_06_20_23_31.918,3.862,42.9,0,0.768,0,0,0,0, ,0,0,0,0,0, ,-40.4,397.8,914.7,-0.8,-0.5,-1.8,25,-39.9548,397.099,916.284,-0.729086,-0.557263,-1.81362,
2026_07_06_20_23_31.938,3.862,43,0,0.769,0,0,0,0, ,0,0,0,0,0, ,-40.7,399.6,916.5,-0.8,-0.5,-1.8,25,-39.9911,397.197,916.242,-0.733407,-0.553773,-1.81279,
2026_07_06_20_23_31.958,3.862,42.9,0,0.77,0,0,0,0, ,0,0,0,0,0, ,-40.1,397.7,915.7,-0.7,-0.6,-1.7,25,-40.016,397.285,916.234,-0.734418,-0.553543,-1.80897,
2026_07_06_20_23_31.977,3.862,42.9,0,0.769,0,0,0,0, ,0,0,0,0,0, ,-40.8,396.4,916.1,-0.7,-0.6,-1.8,25,-40.0424,397.271,916.213,-0.732321,-0.556374,-1.80537,
2026_07_06_20_23_31.997,3.862,42.9,0,0.77,0,0,0,0, ,0,0,0,0,0, ,-39.3,396.7,915.6,-0.7,-0.5,-1.8,25,-40.0429,397.227,916.191,-0.730351,-0.555986,-1.80504,
2026_07_06_20_23_32.017,3.862,42.9,0,0.768,0,0,0,0, ,0,0,0,0,0, ,-40.8,398.3,916.3,-0.7,-0.5,-1.9,25,-40.0433,397.243,916.176,-0.728502,-0.552574,-1.80778,
2026_07_06_20_23_32.037,3.862,42.9,0,0.769,0,0,0,0, ,0,0,0,0,0, ,-40.8,398.1,917.3,-0.6,-0.5,-1.7,25,-40.0894,397.302,916.214,-0.723718,-0.54937,-1.80731,
2026_07_06_20_23_32.056,3.862,43,0,0.769,0,0,0,0, ,0,0,0,0,0, ,-39.4,395.9,915.8,-0.7,-0.6,-1.8,25,-40.0901,397.283,916.235,-0.719226,-0.549409,-1.80382,
2026_07_06_20_23_32.076,3.862,42.9,0,0.768,0,0,0,0, ,0,0,0,0,0, ,-39.6,397,916.7,-0.7,-0.6,-1.9,25,-40.0541,397.233,916.236,-0.718054,-0.552492,-1.80663,
2026_07_06_20_23_32.096,3.862,42.9,0,0.77,0,0,0,0, ,0,0,0,0,0, ,-40.2,396.8,917.1,-0.7,-0.5,-1.8,25,-40.0447,397.212,916.276,-0.716954,-0.55234,-1.80927,
2026_07_06_20_23_32.116,3.862,43,0,0.769,0,0,0,0, ,0,0,0,0,0, ,-38.4,399.2,915.6,-0.7,-0.6,-1.8,25,-39.9994,397.26,916.281,-0.715921,-0.552197,-1.80871,
2026_07_06_20_23_32.136,3.862,42.9,0,0.769,0,0,0,0, ,0,0,0,0,0, ,-40.1,397.2,916.9,-0.8,-0.5,-1.8,25,-39.9537,397.318,916.279,-0.717998,-0.552063,-1.80818,
2026_07_06_20_23_32.155,3.862,43,0,0.769,0,0,0,0, ,0,0,0,0,0, ,-38.2,397.8,916.3,-0.8,-0.5,-1.7,25,-39.9047,397.329,916.298,-0.722995,-0.548891,-1.80463,
2026_07_06_20_23_32.178,3.862,42.9,0,0.768,0,0,0,0, ,0,0,0,0,0, ,-38.8,397.2,916.5,-0.9,-0.6,-1.8,25,-39.8191,397.339,916.305,-0.730734,-0.548958,-1.8013,
2026_07_06_20_23_32.195,3.862,42.9,0,0.769,0,0,0,0, ,0,0,0,0,0, ,-40.7,397.5,916.5,-0.8,-0.6,-1.8,25,-39.8149,397.34,916.317,-0.738002,-0.552069,-1.80122,
2026_07_06_20_23_32.215,3.862,42.9,0,0.769,0,0,0,0, ,0,0,0,0,0, ,-39.7,397.9,916.8,-0.8,-0.6,-1.8,25,-39.8384,397.362,916.337,-0.74178,-0.554989,-1.80115,
2026_07_06_20_23_32.235,3.862,42.9,0,0.77,0,0,0,0, ,0,0,0,0,0, ,-39.7,397.3,916.1,-0.7,-0.6,-1.8,25,-39.8299,397.376,916.344,-0.742281,-0.557732,-1.80108,
2026_07_06_20_23_32.255,3.862,42.9,0,0.77,0,0,0,0, ,0,0,0,0,0, ,-40,396.9,915.7,-0.7,-0.5,-1.8,25,-39.8312,397.359,916.317,-0.739704,-0.557261,-1.80101,
2026_07_06_20_23_32.275,3.862,42.9,0,0.77,0,0,0,0, ,0,0,0,0,0, ,-40.2,395.9,917.4,-0.7,-0.6,-1.8,25,-39.8475,397.301,916.331,-0.737285,-0.556819,-1.80095,
2026_07_06_20_23_32.294,3.862,42.9,0,0.768,0,0,0,0, ,0,0,0,0,0, ,-39.9,397,914.5,-0.7,-0.5,-1.8,25,-39.8599,397.249,916.308,-0.735013,-0.556403,-1.80089,
2026_07_06_20_23_32.314,3.862,42.9,0,0.769,0,0,0,0, ,0,0,0,0,0, ,-39.5,398.1,915.6,-0.7,-0.6,-1.8,25,-39.8501,397.267,916.231,-0.732879,-0.556013,-1.80084,
2026_07_06_20_23_32.334,3.862,42.9,0,0.769,0,0,0,0, ,0,0,0,0,0, ,-40.2,397.4,915.7,-0.7,-0.6,-1.8,25,-39.8501,397.297,916.196,-0.730876,-0.558693,-1.80079,
2026_07_06_20_23_32.355,3.862,42.9,0,0.769,0,0,0,0, ,0,0,0,0,0, ,-40.4,397.9,915.5,-0.7,-0.5,-1.9,25,-39.8775,397.318,916.159,-0.728994,-0.558164,-1.80379,
2026_07_06_20_23_32.374,3.862,42.9,0,0.771,0,0,0,0, ,0,0,0,0,0, ,-40.2,397.4,915.5,-0.8,-0.6,-1.7,25,-39.9033,397.339,916.119,-0.730274,-0.557666,-1.80356,
2026_07_06_20_23_32.394,3.862,42.9,0,0.77,0,0,0,0, ,0,0,0,0,0, ,-40.6,397.5,915.4,-0.7,-0.6,-1.8,25,-39.9336,397.345,916.078,-0.731476,-0.560246,-1.80029,
2026_07_06_20_23_32.413,3.862,42.9,0,0.77,0,0,0,0, ,0,0,0,0,0, ,-40.1,396.4,918.2,-0.7,-0.5,-1.8,25,-39.9589,397.321,916.122,-0.729558,-0.559622,-1.80028,
2026_07_06_20_23_32.433,3.862,42.9,0,0.77,0,0,0,0, ,0,0,0,0,0, ,-40.5,398.4,916.8,-0.8,-0.6,-1.8,25,-39.9797,397.326,916.206,-0.730804,-0.559035,-1.80026,
2026_07_06_20_23_32.452,3.862,42.9,0,0.768,0,0,0,0, ,0,0,0,0,0, ,-40.5,398.3,916.9,-0.7,-0.5,-1.8,25,-40.0114,397.388,916.246,-0.731974,-0.558485,-1.80024,
2026_07_06_20_23_32.472,3.862,42.9,0,0.768,0,0,0,0, ,0,0,0,0,0, ,-40.1,397.3,915.1,-0.6,-0.5,-1.8,25,-40.029,397.414,916.231,-0.726978,-0.554921,-1.80023,
2026_07_06_20_23_32.492,3.862,42.9,0,0.769,0,0,0,0, ,0,0,0,0,0, ,-41.2,398.9,916.2,-0.7,-0.5,-1.8,25,-40.0668,397.455,916.195,-0.722287,-0.551574,-1.80021,
2026_07_06_20_23_32.512,3.862,42.9,0,0.769,0,0,0,0, ,0,0,0,0,0, ,-41.2,397.2,915.7,-0.8,-0.6,-1.9,25,-40.1359,397.492,916.18,-0.723976,-0.551478,-1.80325,
2026_07_06_20_23_32.531,3.862,42.9,0,0.77,0,0,0,0, ,0,0,0,0,0, ,-38.8,397.7,917.4,-0.7,-0.6,-1.9,25,-40.1276,397.489,916.203,-0.725562,-0.554435,-1.80914,
2026_07_06_20_23_32.552,3.862,42.8,0,0.769,0,0,0,0, ,0,0,0,0,0, ,-39.7,396.6,915.6,-0.8,-0.6,-1.8,25,-40.0741,397.468,916.221,-0.727051,-0.557212,-1.81163,
2026_07_06_20_23_32.572,3.862,42.9,0,0.769,0,0,0,0, ,0,0,0,0,0, ,-41,396.8,917.2,-0.8,-0.6,-1.8,25,-40.0909,397.422,916.232,-0.731497,-0.559819,-1.81092,
2026_07_06_20_23_32.592,3.862,42.9,0,0.769,0,0,0,0, ,0,0,0,0,0, ,-39.6,396.3,915.7,-0.8,-0.6,-1.9,25,-40.1037,397.368,916.245,-0.735671,-0.562267,-1.81331,
2026_07_06_20_23_32.611,3.862,42.8,0,0.769,0,0,0,0, ,0,0,0,0,0, ,-39.6,396.2,915.7,-0.7,-0.5,-1.8,25,-40.073,397.3,916.212,-0.736544,-0.56152,-1.81554,
2026_07_06_20_23_32.632,3.862,42.9,0,0.769,0,0,0,0, ,0,0,0,0,0, ,-40.1,397.3,916.9,-0.7,-0.6,-1.8,25,-40.0594,397.267,916.217,-0.734317,-0.560818,-1.81459,
2026_07_06_20_23_32.650,3.862,42.8,0,0.769,0,0,0,0, ,0,0,0,0,0, ,-40.7,397.3,916.9,-0.8,-0.6,-1.7,25,-40.0802,397.269,916.259,-0.735273,-0.563206,-1.81066,
2026_07_06_20_23_32.670,3.862,42.9,0,0.769,0,0,0,0, ,0,0,0,0,0, ,-40.5,395.9,916.1,-0.8,-0.6,-1.9,25,-40.1118,397.228,916.274,-0.739217,-0.565448,-1.81001,
2026_07_06_20_23_32.690,3.862,42.8,0,0.769,0,0,0,0, ,0,0,0,0,0, ,-40.5,397.7,915.7,-0.8,-0.5,-1.9,25,-40.1355,397.202,916.251,-0.742921,-0.564506,-1.81549,
2026_07_06_20_23_32.710,3.862,42.9,0,0.769,0,0,0,0, ,0,0,0,0,0, ,-39.7,397.5,915.7,-0.8,-0.5,-1.8,25,-40.1333,397.226,916.217,-0.746399,-0.560576,-1.8176,
2026_07_06_20_23_32.729,3.862,42.9,0,0.769,0,0,0,0, ,0,0,0,0,0, ,-42.2,475.4,898.6,-37.6,-1.7,-3.9,25,-40.1831,399.616,915.665,-1.87092,-0.593447,-1.88051,
2026_07_06_20_23_32.750,3.862,42.9,0,0.769,0,0,0,0, ,0,0,0,0,0, ,-38,430.9,912.5,15.8,-1,-3.3,25,-40.178,402.879,915.048,-2.42113,-0.639549,-1.98529,
2026_07_06_20_23_32.769,3.862,42.8,0,0.769,0,0,0,0, ,0,0,0,0,0, ,-38.9,376,922.9,-7.2,-0.7,-2.1,25,-40.0727,402.913,915.21,-2.01156,-0.652374,-2.02884,
2026_07_06_20_23_32.789,3.862,42.9,0,0.769,0,0,0,0, ,0,0,0,0,0, ,-39.5,389.1,919.7,-1.3,-0.7,-2,25,-40.0195,401.673,915.581,-2.14796,-0.655276,-2.03013,
2026_07_06_20_23_32.809,3.862,42.9,0,0.769,0,0,0,0, ,0,0,0,0,0, ,-40.8,390,919,1.9,-0.6,-1.7,25,-40.0275,400.934,915.811,-1.99879,-0.654954,-2.01915,
2026_07_06_20_23_32.828,3.862,42.8,0,0.77,0,0,0,0, ,0,0,0,0,0, ,-39.1,400.2,917.1,-1.4,-0.6,-1.9,25,-40.0228,400.578,915.947,-1.86175,-0.651606,-2.0058,
2026_07_06_20_23_32.847,3.862,42.9,0,0.769,0,0,0,0, ,0,0,0,0,0, ,-31.6,393.3,918.9,-5.3,-0.9,-2.5,25,-39.738,400.345,916.072,-1.95244,-0.657601,-2.01763,
2026_07_06_20_23_32.873,3.862,42.8,0,0.77,0,0,0,0, ,0,0,0,0,0, ,57.4,409.5,907.5,-7.4,-0.5,-1.3,25,-36.5304,400.409,915.897,-2.22042,-0.660185,-2.01047,
2026_07_06_20_23_32.888,3.862,42.8,0,0.769,0,0,0,0, ,0,0,0,0,0, ,-49.9,325,935.6,18,7.4,16.9,25,-34.0758,398.389,916.242,-1.76214,-0.409721,-1.41264,
2026_07_06_20_23_32.907,3.862,42.8,0,0.769,0,0,0,0, ,0,0,0,0,0, ,-90.2,397.2,918.9,10.9,0,-0.5,25,-36.268,396.116,916.913,-0.774217,-0.159285,-0.82687,
2026_07_06_20_23_32.927,3.862,42.9,0,0.769,0,0,0,0, ,0,0,0,0,0, ,-9.7,403.5,915.5,2.9,0.4,0.9,25,-37.1017,396.374,916.93,-0.306569,-0.137391,-0.764295,
2026_07_06_20_23_32.949,3.862,42.8,0,0.769,0,0,0,0, ,0,0,0,0,0, ,-87.2,380.7,921.3,-0.9,0.9,2.4,25,-37.7933,396.114,917.02,-0.22695,-0.0894091,-0.617174,
2026_07_06_20_23_32.967,3.862,42.9,0,0.769,0,0,0,0, ,0,0,0,0,0, ,-41.6,390.7,918.7,6.4,-0.4,-1.6,25,-39.4146,395.479,917.201,-0.0455423,-0.0687264,-0.55519,
2026_07_06_20_23_32.986,3.862,42.8,0,0.769,0,0,0,0, ,0,0,0,0,0, ,-39.6,404.2,914.1,1.3,-0.5,-1.6,25,-39.4869,395.599,917.152,0.191842,-0.0919602,-0.618858,
2026_07_06_20_23_33.006,3.862,42.8,0,0.769,0,0,0,0, ,0,0,0,0,0, ,-27.2,419.9,903.6,6.5,1.8,4.1,25,-39.1159,396.602,916.646,0.417808,-0.046747,-0.504975,
2026_07_06_20_23_33.026,3.862,42.8,0,0.769,0,0,0,0, ,0,0,0,0,0, ,95.4,485.4,861.3,18.3,-0.2,9.6,25,-34.6543,400.017,914.563,1.14797,0.00485162,-0.0567809,
2026_07_06_20_23_33.046,3.862,43,0,0.769,0,0,0,0, ,0,0,0,0,0, ,85.4,454.8,903.9,15.5,5.2,15.5,25,-27.0338,404.288,912.615,2.10786,0.1569,0.711445,
2026_07_06_20_23_33.066,3.862,42.9,0,0.768,0,0,0,0, ,0,0,0,0,0, ,-70.6,407.2,971.3,0.6,3.1,21.2,25,-24.9355,405.916,914.137,2.46996,0.400229,1.78629,
2026_07_06_20_23_33.086,3.862,42.8,0,0.769,0,0,0,0, ,0,0,0,0,0, ,-148.8,403,978,1.5,-2.8,22.6,25,-30.1009,405.866,917.825,2.38343,0.384981,3.01197,
2026_07_06_20_23_33.106,3.862,42.7,0,0.769,0,0,0,0, ,0,0,0,0,0, ,-88.3,374.1,924,4.1,-7.9,18.3,25,-35.4907,404.811,919.847,2.40882,0.0355055,4.0746,
2026_07_06_20_23_33.126,3.862,42.7,0,0.769,0,0,0,0, ,0,0,0,0,0, ,-51.1,406.1,903.8,-1.5,-9,10.2,25,-37.5754,403.914,919.484,2.34125,-0.48158,4.69467,
2026_07_06_20_23_33.146,3.862,42.8,0,0.769,0,0,0,0, ,0,0,0,0,0, ,-16.4,420.1,917.2,-4,-11.9,7.2,25,-37.3423,404.474,918.937,2.031,-1.08903,4.93874,
2026_07_06_20_23_33.165,3.862,42.9,0,0.77,0,0,0,0, ,0,0,0,0,0, ,-99.8,384,997.8,-5.9,-15.2,8,25,-38.6072,404.326,921.287,1.6056,-1.84837,5.10091,
2026_07_06_20_23_33.185,3.862,42.8,0,0.769,0,0,0,0, ,0,0,0,0,0, ,-53.7,403.6,987.1,-13.7,-30.6,10.4,25,-40.9315,403.685,925.623,0.910567,-3.1312,5.3507,
2026_07_06_20_23_33.205,3.862,42.7,0,0.769,0,0,0,0, ,0,0,0,0,0, ,11.3,442.7,928.1,-9.1,-36,22.5,25,-39.7291,404.871,927.572,0.160392,-4.96962,6.02706,
2026_07_06_20_23_33.230,3.862,42.8,0,0.769,0,0,0,0, ,0,0,0,0,0, ,-17.3,405.8,860.3,-26.2,-43.5,1,25,-37.4909,406.052,925.538,-0.924929,-7.08904,6.3758,
2026_07_06_20_23_33.244,3.862,42.8,0,0.769,0,0,0,0, ,0,0,0,0,0, ,157.3,541.3,999,21.3,-45.1,22.2,25,-30.9407,410.165,925.789,-1.01786,-9.35659,6.69415,
2026_07_06_20_23_33.264,3.862,42.9,0,0.769,0,0,0,0, ,0,0,0,0,0, ,96.5,395.1,1088.2,-16.2,-68.1,50.5,25,-21.3223,413.702,932.968,-0.800446,-12.2355,8.50131,
2026_07_06_20_23_33.283,3.862,42.8,0,0.769,0,0,0,0, ,0,0,0,0,0, ,103.8,415.2,934.5,-24.7,-81.8,56.1,25,-13.9201,413.181,937.744,-1.99784,-16.0571,11.2312,
2026_07_06_20_23_33.304,3.862,42.8,0,0.769,0,0,0,0, ,0,0,0,0,0, ,80,413.2,901,-7.1,-86.4,27.5,25,-7.47166,413.243,936.526,-2.845,-20.2035,13.094,
2026_07_06_20_23_33.324,3.862,42.7,0,0.769,0,0,0,0, ,0,0,0,0,0, ,111.6,364.6,946.8,-14.7,-64.5,12,25,-1.17855,411.759,935.756,-3.33585,-23.5701,13.4996,
2026_07_06_20_23_33.343,3.862,42.8,0,0.769,0,0,0,0, ,0,0,0,0,0, ,132.2,370.7,1014.2,-26.1,-27.8,-2.3,25,6.32155,409.071,938.483,-4.3757,-24.9461,12.9725,
2026_07_06_20_23_33.363,3.862,42.8,0,0.768,0,0,0,0, ,0,0,0,0,0, ,120.6,444,973.1,-40.5,-7.6,-11.4,25,13.6388,408.966,941.845,-6.13828,-24.5045,11.7646,
2026_07_06_20_23_33.383,3.862,42.7,0,0.768,0,0,0,0, ,0,0,0,0,0, ,137.6,411.3,935.4,-45.6,-18.5,3,25,20.6747,410.105,942.601,-8.38758,-23.8065,10.7917,
2026_07_06_20_23_33.402,3.862,42.7,0,0.768,0,0,0,0, ,0,0,0,0,0, ,156.2,358.3,888.3,-30.5,-47.4,25.7,25,28.3666,408.563,940.727,-10.1951,-24.3637,11.0086,
2026_07_06_20_23_33.422,3.862,42.8,0,0.772,0,0,0,0, ,0,0,0,0,0, ,150.8,341.5,903.3,-28.3,-60.8,24.7,25,35.9919,404.988,937.989,-11.3654,-26.1757,11.8734,
2026_07_06_20_23_33.442,3.862,42.7,0,0.768,0,0,0,0, ,0,0,0,0,0, ,128.6,291.6,919.3,-26.3,-67.7,19.1,25,42.3116,399.599,936.363,-12.3364,-28.4959,12.4844,
2026_07_06_20_23_33.462,3.862,42.8,0,0.769,0,0,0,0, ,0,0,0,0,0, ,242.4,326.6,882.2,-24.2,-68.3,5.9,25,51.0372,394.084,934.193,-13.1234,-30.9032,12.4853,
2026_07_06_20_23_33.482,3.862,42.8,0,0.768,0,0,0,0, ,0,0,0,0,0, ,265,275.2,915.7,-28.1,-56.1,5.7,25,63.3869,388.406,932.045,-13.9172,-32.8103,12.0779,
2026_07_06_20_23_33.501,3.862,42.7,0,0.769,0,0,0,0, ,0,0,0,0,0, ,278.5,330.9,888.7,-37.1,-42.2,8.3,25,76.0841,383.204,930.226,-15.0557,-33.806,11.7685,
2026_07_06_20_23_33.521,3.862,42.8,0,0.77,0,0,0,0, ,0,0,0,0,0, ,334.4,280,833.3,-28.1,-39.1,4.8,25,90.122,378.466,926.008,-16.1248,-34.2231,11.4505,
2026_07_06_20_23_33.541,3.862,42.7,0,0.769,0,0,0,0, ,0,0,0,0,0, ,365.4,262.4,853.2,-31.8,-43.5,1,25,105.952,371.93,920.965,-16.9672,-34.6543,10.9294,
2026_07_06_20_23_33.560,3.862,42.8,0,0.768,0,0,0,0, ,0,0,0,0,0, ,384.3,248.6,862.4,-26.5,-40.1,7.9,25,122.338,364.835,917.116,-17.7096,-35.0898,10.5346,
2026_07_06_20_23_33.581,3.862,42.7,0,0.768,0,0,0,0, ,0,0,0,0,0, ,515.2,321.2,906.1,11,-31.2,29.9,25,142.29,359.964,915.113,-17.1027,-35.1239,11.0444,
2026_07_06_20_23_33.601,3.862,42.7,0,0.768,0,0,0,0, ,0,0,0,0,0, ,424.1,269.7,831.7,-12.6,-14.5,40.5,25,162.238,356.032,912.297,-16.1093,-34.376,12.5164,
2026_07_06_20_23_33.621,3.862,42.8,0,0.77,0,0,0,0, ,0,0,0,0,0, ,118,180.7,948.8,-74.5,-22.4,6.7,25,168.869,348.06,910.953,-17.7814,-33.4055,13.1918,
2026_07_06_20_23_33.640,3.862,42.8,0,0.77,0,0,0,0, ,0,0,0,0,0, ,286.7,161.4,852.6,-53.6,-48.9,-8.1,25,170.909,337.273,910.329,-20.6009,-33.5422,12.3452,
2026_07_06_20_23_33.660,3.862,42.8,0,0.767,0,0,0,0, ,0,0,0,0,0, ,331.9,217.8,873.2,-33,-105,-20.5,25,179.342,328.274,907.438,-21.9842,-36.1874,10.7215,
2026_07_06_20_23_33.680,3.862,42.7,0,0.768,0,0,0,0, ,0,0,0,0,0, ,427.7,228.3,887.2,-25.1,-156.8,-12.3,25,191.558,321.862,905.779,-22.4147,-41.959,9.06882,
2026_07_06_20_23_33.699,3.862,42.7,0,0.768,0,0,0,0, ,0,0,0,0,0, ,588.6,156.1,762.9,-14.9,-192.4,11.4,25,210.85,313.961,900.859,-22.2676,-50.0418,8.48877,
2026_07_06_20_23_33.719,3.862,42.8,0,0.77,0,0,0,0, ,0,0,0,0,0, ,604.6,182,687.2,-0.3,-187.3,34.1,25,234.357,305.131,890.146,-21.3738,-58.5613,9.35781,
2026_07_06_20_23_33.739,3.862,42.8,0,0.77,0,0,0,0, ,0,0,0,0,0, ,603.2,173.3,652.9,25,-163.6,35.4,25,256.876,297.362,876.734,-19.3187,-65.6842,10.9052,
2026_07_06_20_23_33.759,3.862,42.7,0,0.77,0,0,0,0, ,0,0,0,0,0, ,599.1,155,670.2,25.8,-157.5,33.2,25,277.855,289.245,863.621,-16.5937,-71.4651,12.3308,
2026_07_06_20_23_33.778,3.862,42.7,0,0.77,0,0,0,0, ,0,0,0,0,0, ,602.9,199.8,820,28.5,-144.4,36.1,25,297.547,282.429,856.399,-13.9281,-76.3087,13.6909,
2026_07_06_20_23_33.798,3.862,42.8,0,0.769,0,0,0,0, ,0,0,0,0,0, ,604.9,68.7,738.7,34.9,-158,29.9,25,316.215,273.399,851.703,-11.1476,-80.8724,14.8675,
2026_07_06_20_23_33.818,3.862,42.8,0,0.77,0,0,0,0, ,0,0,0,0,0, ,717.1,174.9,692.6,35.2,-187.3,37.8,25,337.225,264.161,843.413,-8.33243,-86.4651,16.0242,
2026_07_06_20_23_33.838,3.862,42.7,0,0.77,0,0,0,0, ,0,0,0,0,0, ,801.3,158,647.2,57.4,-188.3,40.2,25,362.939,258.207,832.839,-5.00327,-92.6402,17.4243,
2026_07_06_20_23_33.857,3.862,42.7,0,0.768,0,0,0,0, ,0,0,0,0,0, ,964.9,147.3,496,69.1,-154.4,55,25,394.637,251.775,816.92,-0.844083,-97.4366,19.2632,
2026_07_06_20_23_33.877,3.862,42.8,0,0.77,0,0,0,0, ,0,0,0,0,0, ,905.8,162.1,432,40,-106.7,64.6,25,427.586,245.859,795.414,2.53149,-99.4544,21.7334,
2026_07_06_20_23_33.897,3.862,42.8,0,0.77,0,0,0,0, ,0,0,0,0,0, ,823.4,173.2,382,31.2,-75.5,54,25,454.217,241.093,771.745,4.54661,-98.9453,24.0226,
2026_07_06_20_23_33.917,3.862,42.7,0,0.768,0,0,0,0, ,0,0,0,0,0, ,898.1,210.3,322.1,39.6,-64.7,35.6,25,478.99,238.086,746.17,6.42673,-97.1876,25.2887,
2026_07_06_20_23_33.936,3.862,42.7,0,0.771,0,0,0,0, ,0,0,0,0,0, ,914.3,185.7,446.5,46.5,-83.8,35.1,25,505.023,235.644,724.118,8.65846,-95.7898,25.9018,
2026_07_06_20_23_33.962,3.862,42.7,0,0.768,0,0,0,0, ,0,0,0,0,0, ,851.4,103.7,479.6,55.4,-143.9,47.2,25,528.047,230.102,708.209,11.2356,-96.8904,26.831,
2026_07_06_20_23_33.978,3.862,42.7,0,0.768,0,0,0,0, ,0,0,0,0,0, ,948.3,93.2,287.4,63.5,-168.2,61.1,25,550.704,222.079,688.423,14.1737,-100.495,28.4958,
2026_07_06_20_23_33.997,3.862,42.8,0,0.77,0,0,0,0, ,0,0,0,0,0, ,882.8,63.3,218.7,65.7,-139.9,54.2,25,572.937,213.315,661.892,17.2465,-103.759,30.2723,
2026_07_06_20_23_34.016,3.862,42.7,0,0.768,0,0,0,0, ,0,0,0,0,0, ,883.3,83.9,151.7,57.6,-97.6,38.7,25,591.834,204.801,632.844,19.9524,-104.672,31.2582,
2026_07_06_20_23_34.036,3.862,42.8,0,0.77,0,0,0,0, ,0,0,0,0,0, ,901,8.7,246,44.7,-68.1,18.7,25,610.135,195.142,606.397,21.8535,-103.343,31.1023,
2026_07_06_20_23_34.055,3.862,42.7,0,0.769,0,0,0,0, ,0,0,0,0,0, ,987.3,41.7,215.8,35.5,-53.7,14.8,25,630.489,184.786,583.515,22.9654,-100.756,30.2277,
2026_07_06_20_23_34.075,3.862,42.7,0,0.768,0,0,0,0, ,0,0,0,0,0, ,959.1,49.6,160.2,33.1,-45.2,25.5,25,651.373,176.308,559.414,23.6561,-97.6298,29.6136,
2026_07_06_20_23_34.095,3.862,42.7,0,0.77,0,0,0,0, ,0,0,0,0,0, ,952.6,58.9,99.2,13.1,-23.6,16.5,25,669.927,168.87,533.228,23.6222,-93.7767,29.0887,
2026_07_06_20_23_34.114,3.862,42.7,0,0.771,0,0,0,0, ,0,0,0,0,0, ,876.2,52,143,10.3,-27.9,-0.5,25,684.824,161.958,508.114,22.8957,-89.6313,27.8036,
2026_07_06_20_23_34.135,3.862,42.7,0,0.771,0,0,0,0, ,0,0,0,0,0, ,1001.2,67.1,131.8,9.8,-24.7,1.4,25,700.295,155.718,485.523,22.1129,-85.7721,26.1367,
2026_07_06_20_23_34.154,3.862,42.7,0,0.769,0,0,0,0, ,0,0,0,0,0, ,997.4,24.5,118.2,7.7,-29.2,10.5,25,718.515,149.02,463.554,21.2986,-82.1876,24.9066,
2026_07_06_20_23_34.174,3.862,42.7,0,0.77,0,0,0,0, ,0,0,0,0,0, ,935,36.3,88.3,13.9,-23.3,0,25,733.609,141.791,441.598,20.6588,-78.7789,23.7088,
2026_07_06_20_23_34.194,3.862,42.7,0,0.772,0,0,0,0, ,0,0,0,0,0, ,945.6,57.8,44,9.7,-13.7,-10.8,25,746.204,136.018,418.719,20.119,-75.1057,21.935,
2026_07_06_20_23_34.214,3.862,42.7,0,0.77,0,0,0,0, ,0,0,0,0,0, ,963.6,68.9,41,10,-15.1,-17.3,25,758.903,131.59,395.793,19.4932,-71.4064,19.7421,
2026_07_06_20_23_34.233,3.862,42.7,0,0.769,0,0,0,0, ,0,0,0,0,0, ,983.7,68.8,127.6,13.2,-26.2,-9.8,25,771.989,127.767,376.812,19.0122,-68.3134,17.7134,
2026_07_06_20_23_34.253,3.862,42.7,0,0.767,0,0,0,0, ,0,0,0,0,0, ,980.4,65.4,106.6,14,-26.6,-12.7,25,784.79,124.07,360.986,18.6824,-65.7593,15.9484,
2026_07_06_20_23_34.273,3.862,42.6,0,0.771,0,0,0,0, ,0,0,0,0,0, ,966.4,89.1,46,12.6,-11.2,-17.1,25,796.283,121.217,343.637,18.3544,-62.9039,14.0686,
2026_07_06_20_23_34.293,3.862,42.7,0,0.77,0,0,0,0, ,0,0,0,0,0, ,921.3,179.5,12.4,29.4,11.1,-10.4,25,805.276,122.014,324.476,18.5157,-59.0737,12.3734,
2026_07_06_20_23_34.313,3.862,42.7,0,0.77,0,0,0,0, ,0,0,0,0,0, ,981.3,65.6,85.2,29.4,1.3,-13.5,25,814.174,122.047,307.677,19.1789,-55.0961,10.8912,
2026_07_06_20_23_34.333,3.862,42.7,0,0.77,0,0,0,0, ,0,0,0,0,0, ,983.7,95.8,63.2,26.7,-13.8,-22.3,25,824.431,119.527,293.45,19.7195,-52.1195,9.13674,
2026_07_06_20_23_34.352,3.862,42.7,0,0.769,0,0,0,0, ,0,0,0,0,0, ,967.6,115.1,20.1,28.9,-15.1,-17.8,25,833.646,118.669,278.106,20.2119,-49.824,7.35818,
2026_07_06_20_23_34.372,3.862,42.6,0,0.77,0,0,0,0, ,0,0,0,0,0, ,942.5,118.7,40.7,31.2,-9.9,-13.6,25,841.044,118.561,263.011,20.8114,-47.5496,5.95307,
2026_07_06_20_23_34.392,3.862,42.7,0,0.77,0,0,0,0, ,0,0,0,0,0, ,982.4,119.7,56.6,21.6,-5.5,-14.7,25,848.442,118.6,249.949,21.152,-45.1213,4.72804,
2026_07_06_20_23_34.412,3.862,42.7,0,0.77,0,0,0,0, ,0,0,0,0,0, ,992.5,127.5,94.9,17.5,-7.8,-13,25,856.913,118.905,239.333,21.0543,-42.7769,3.59594,
2026_07_06_20_23_34.431,3.862,42.7,0,0.77,0,0,0,0, ,0,0,0,0,0, ,1005.3,167.8,109.2,18.5,-19.9,-3.6,25,865.566,120.657,230.968,20.8682,-41.0142,2.87103,
2026_07_06_20_23_34.452,3.862,42.7,0,0.769,0,0,0,0, ,0,0,0,0,0, ,1033.3,114.7,-31.7,22,-23.9,5.5,25,874.934,121.912,219.254,20.8305,-39.8494,2.75397,
2026_07_06_20_23_34.471,3.862,42.7,0,0.769,0,0,0,0, ,0,0,0,0,0, ,1024,136.1,-46.1,18.2,-15.3,4.8,25,884.301,122.124,203.523,20.786,-38.6155,2.89998,
2026_07_06_20_23_34.491,3.862,42.7,0,0.77,0,0,0,0, ,0,0,0,0,0, ,968.8,121.8,51,9,6.2,6.6,25,891.132,122.54,191.27,20.3481,-36.5396,3.0706,
2026_07_06_20_23_34.511,3.862,42.7,0,0.77,0,0,0,0, ,0,0,0,0,0, ,1013.9,86.6,58.8,-6,5.6,8.8,25,897.239,121.422,182.96,19.1996,-33.9534,3.35271,
2026_07_06_20_23_34.530,3.862,42.7,0,0.77,0,0,0,0, ,0,0,0,0,0, ,979.9,267,-90,38.5,-4.4,-5.4,25,903.312,124.797,170.86,19.0198,-31.8478,3.252,
2026_07_06_20_23_34.554,3.862,42.8,0,0.767,0,0,0,0, ,0,0,0,0,0, ,1072.5,85.9,129.8,38.5,-49.8,-7.2,25,910.8,127.945,161.661,20.2069,-31.5585,2.66992,
2026_07_06_20_23_34.570,3.862,42.7,0,0.77,0,0,0,0, ,0,0,0,0,0, ,938.3,68.4,1.5,50.7,-48.4,46.4,25,916.565,124.849,155.811,21.6934,-32.6275,3.7016,
2026_07_06_20_23_34.590,3.862,42.6,0,0.77,0,0,0,0, ,0,0,0,0,0, ,1003,22.5,-53.9,23.3,-26,-1.7,25,919.861,120.011,144.719,22.6261,-32.9061,4.83798,
2026_07_06_20_23_34.609,3.862,42.7,0,0.771,0,0,0,0, ,0,0,0,0,0, ,1054.8,72.8,50.4,-0.5,-3.7,-8.8,25,926.506,115.601,135.794,21.942,-31.8058,4.22325,
2026_07_06_20_23_34.629,3.862,42.6,0,0.77,0,0,0,0, ,0,0,0,0,0, ,1020.9,109.7,7,-3,-4.1,15.4,25,933.291,114.118,129.268,20.4983,-30.1053,4.16699,
2026_07_06_20_23_34.649,3.862,42.6,0,0.767,0,0,0,0, ,0,0,0,0,0, ,983.5,87.8,4,0.8,11.2,7.3,25,937.49,113.181,121.726,19.1821,-28.0544,4.6047,
2026_07_06_20_23_34.669,3.862,42.7,0,0.769,0,0,0,0, ,0,0,0,0,0, ,973.6,85.3,-34,-1.7,12.3,3.6,25,939.992,111.558,113.394,17.9858,-25.6288,4.65621,
2026_07_06_20_23_34.689,3.862,42.7,0,0.77,0,0,0,0, ,0,0,0,0,0, ,991.2,83.4,-3.6,-1.9,7.9,0.7,25,942.576,109.9,105.338,16.7801,-23.4516,4.50349,
2026_07_06_20_23_34.709,3.862,42.6,0,0.77,0,0,0,0, ,0,0,0,0,0, ,1011.9,86,22.9,0.1,-1.8,3.5,25,946.17,108.365,99.5074,15.7027,-21.8367,4.35703,
2026_07_06_20_23_34.728,3.862,42.7,0,0.77,0,0,0,0, ,0,0,0,0,0, ,990.4,81.5,-11.8,-1,-0.5,5.3,25,949.52,106.865,93.7819,14.7184,-20.5761,4.35965,
2026_07_06_20_23_34.753,3.862,42.7,0,0.769,0,0,0,0, ,0,0,0,0,0, ,966.1,92.4,-13.3,1.5,6.1,0.5,25,951.271,105.651,87.3023,13.8368,-19.1516,4.2707,
2026_07_06_20_23_34.770,3.862,42.7,0,0.771,0,0,0,0, ,0,0,0,0,0, ,968.5,83.4,-25.2,2.1,-0.1,-3.4,25,952.248,104.569,80.8093,13.1033,-17.8017,3.92209,
2026_07_06_20_23_34.787,3.862,42.7,0,0.769,0,0,0,0, ,0,0,0,0,0, ,960.5,75.1,-20.3,6,-15.5,2,25,952.994,103.026,74.4986,12.5516,-17.1923,3.64044,
2026_07_06_20_23_34.807,3.862,42.6,0,0.77,0,0,0,0, ,0,0,0,0,0, ,939.5,84.7,-23.9,6,-1.3,-7.5,25,952.812,101.617,68.6121,12.1523,-16.6565,3.25102,
2026_07_06_20_23_34.828,3.862,42.7,0,0.77,0,0,0,0, ,0,0,0,0,0, ,1020.5,79.4,3.7,2,-1.7,-2.8,25,954.469,100.425,63.8156,11.6556,-15.7329,2.73908,
2026_07_06_20_23_34.847,3.862,42.7,0,0.767,0,0,0,0, ,0,0,0,0,0, ,998.1,82.1,-45,5.6,-4.4,-1.1,25,957.81,99.2259,58.6685,11.1769,-14.96,2.45334,
2026_07_06_20_23_34.866,3.862,42.7,0,0.769,0,0,0,0, ,0,0,0,0,0, ,1031.3,92.4,-26.8,3.7,-6.5,-1.4,25,961.277,98.4961,52.9057,10.7791,-14.3805,2.22767,
2026_07_06_20_23_34.886,3.862,42.7,0,0.77,0,0,0,0, ,0,0,0,0,0, ,928.2,78.4,-15.5,4.6,-4.4,-2.5,25,962.402,97.6981,48.393,10.3752,-13.8363,1.97309,
2026_07_06_20_23_34.906,3.862,42.7,0,0.769,0,0,0,0, ,0,0,0,0,0, ,979.3,80.6,-6.3,4,-1.9,-8.7,25,961.875,96.5891,44.7798,10.005,-13.1851,1.51161,
2026_07_06_20_23_34.926,3.862,42.6,0,0.769,0,0,0,0, ,0,0,0,0,0, ,1183.8,94.1,-8,0.3,-5.2,0.3,25,969.168,96.0261,41.6153,9.5263,-12.598,1.16356,
2026_07_06_20_23_34.952,3.862,42.7,0,0.767,0,0,0,0, ,0,0,0,0,0, ,979.4,79.5,-20.3,5.5,0.4,6.1,25,976.019,95.4639,38.2171,9.12251,-11.9765,1.28765,
2026_07_06_20_23_34.969,3.862,42.7,0,0.769,0,0,0,0, ,0,0,0,0,0, ,989.7,93.3,-29.6,3.4,0.5,-0.5,25,976.539,94.9116,34.3679,8.83778,-11.2193,1.37981,
2026_07_06_20_23_34.985,3.862,42.6,0,0.771,0,0,0,0, ,0,0,0,0,0, ,989.9,94.8,-40,5,-2.7,2.4,25,977.347,94.8591,30.153,8.55516,-10.6026,1.35362,
2026_07_06_20_23_35.005,3.862,42.6,0,0.769,0,0,0,0, ,0,0,0,0,0, ,994.1,87,-28.8,6.5,2,-2.1,25,978.24,94.6178,26.2193,8.38423,-9.97787,1.28027,
2026_07_06_20_23_35.024,3.862,42.6,0,0.769,0,0,0,0, ,0,0,0,0,0, ,989,84.1,-28.4,6.9,7.4,-2.8,25,979.051,94.0652,22.8787,8.28159,-9.08344,1.05296,
2026_07_06_20_23_35.044,3.862,42.6,0,0.771,0,0,0,0, ,0,0,0,0,0, ,986.9,80.5,-14.4,4.6,7.8,-2.9,25,979.593,93.3483,20.1805,8.12732,-8.06679,0.815123,
2026_07_06_20_23_35.064,3.862,42.7,0,0.77,0,0,0,0, ,0,0,0,0,0, ,979.8,74.3,-6.9,5.2,3.8,-0.5,25,979.822,92.3765,18.3017,7.93066,-7.22178,0.661857,
2026_07_06_20_23_35.084,3.862,42.6,0,0.768,0,0,0,0, ,0,0,0,0,0, ,996.2,148.5,-17.8,-1.9,-6.2,7.6,25,980.321,93.5357,16.4339,7.54793,-6.85483,0.837854,
2026_07_06_20_23_35.104,3.862,42.5,0,0.77,0,0,0,0, ,0,0,0,0,0, ,981.6,121,11.7,14.4,6.3,0.3,25,980.843,96.0472,15.2466,7.46884,-6.43407,1.0275,
2026_07_06_20_23_35.124,3.862,42.7,0,0.77,0,0,0,0, ,0,0,0,0,0, ,986.2,72.8,-26.3,8.5,6.1,4.1,25,981.03,96.0992,13.8727,7.71144,-5.66418,1.09895,
2026_07_06_20_23_35.143,3.862,42.6,0,0.768,0,0,0,0, ,0,0,0,0,0, ,988.1,77.7,-18.6,13.7,9.4,5,25,981.403,94.8287,11.6593,7.91793,-4.84675,1.30925,
2026_07_06_20_23_35.163,3.862,42.5,0,0.77,0,0,0,0, ,0,0,0,0,0, ,988.2,76.6,-24.6,12,11,5.5,25,981.814,93.7514,9.63252,8.21848,-3.92984,1.54939,
2026_07_06_20_23_35.183,3.862,42.6,0,0.77,0,0,0,0, ,0,0,0,0,0, ,987.1,81.6,-3,7.5,12,3.6,25,982.169,92.8586,8.20461,8.31181,-2.98959,1.73224,
2026_07_06_20_23_35.203,3.862,42.7,0,0.77,0,0,0,0, ,0,0,0,0,0, ,985.9,69.2,31.2,-2.8,5.9,7.4,25,982.433,91.7947,8.56386,7.94851,-2.26202,1.96184,
2026_07_06_20_23_35.223,3.862,42.6,0,0.768,0,0,0,0, ,0,0,0,0,0, ,994.1,4.6,5.9,-12,-1.6,5,25,982.894,88.4495,9.17239,7.01321,-1.99316,2.2201,
2026_07_06_20_23_35.242,3.862,42.6,0,0.768,0,0,0,0, ,0,0,0,0,0, ,982.5,92.2,112,-25.2,-11.6,23.7,25,983.224,86.009,12.2057,5.4524,-2.27389,2.95926,
2026_07_06_20_23_35.262,3.862,42.6,0,0.77,0,0,0,0, ,0,0,0,0,0, ,996.7,28.8,-71.1,-14.3,-13,17.3,25,983.612,84.4546,12.7081,3.91663,-2.88486,4.02815,
2026_07_06_20_23_35.282,3.862,42.6,0,0.77,0,0,0,0, ,0,0,0,0,0, ,988.6,47.9,-44.7,-4.7,0.9,15.5,25,984.163,81.6451,8.40542,3.09906,-3.07773,4.78206,
2026_07_06_20_23_35.302,3.862,42.6,0,0.768,0,0,0,0, ,0,0,0,0,0, ,993.5,5.2,-77.5,-0.1,7.6,14.1,25,984.583,78.2877,4.16993,2.76396,-2.6312,5.39253,
2026_07_06_20_23_35.322,3.862,42.7,0,0.77,0,0,0,0, ,0,0,0,0,0, ,989,34.6,-74.7,15,20.7,11.3,25,984.989,74.7297,-0.721518,3.04951,-1.60859,5.83783,
2026_07_06_20_23_35.342,3.862,42.7,0,0.768,0,0,0,0, ,0,0,0,0,0, ,988.5,37.2,-13.7,29,31.8,12.6,25,985.218,72.3635,-3.37099,4.20431,0.0890396,6.21029,
2026_07_06_20_23_35.361,3.862,42.6,0,0.77,0,0,0,0, ,0,0,0,0,0, ,990.1,34.9,60.9,31.4,28.5,14.8,25,985.467,70.1507,-1.72744,5.78842,1.92088,6.66669,
2026_07_06_20_23_35.381,3.862,42.5,0,0.77,0,0,0,0, ,0,0,0,0,0, ,997.8,-34.7,86.6,25,14,17.1,25,985.984,65.882,2.87196,7.15413,3.09875,7.23239,
2026_07_06_20_23_35.401,3.862,42.6,0,0.769,0,0,0,0, ,0,0,0,0,0, ,989.9,-0.4,87,3.6,1.5,3.9,25,986.463,60.7978,7.98633,7.58958,3.38218,7.43151,
2026_07_06_20_23_35.421,3.862,42.6,0,0.769,0,0,0,0, ,0,0,0,0,0, ,990.1,-2,-10.7,5.4,-0.6,-0.5,25,986.679,57.0198,9.82443,7.40131,3.2035,7.08225,
2026_07_06_20_23_35.440,3.862,42.6,0,0.768,0,0,0,0, ,0,0,0,0,0, ,990.2,-2.6,3.5,15,-0.1,-0.9,25,986.89,53.405,9.00637,7.57185,2.98696,6.60802,
2026_07_06_20_23_35.460,3.862,42.6,0,0.768,0,0,0,0, ,0,0,0,0,0, ,988.8,20.1,57.7,4.9,1.3,-1.8,25,987.049,50.6839,10.3222,7.71677,2.84151,6.12308,
2026_07_06_20_23_35.479,3.862,42.5,0,0.77,0,0,0,0, ,0,0,0,0,0, ,992.5,8.6,16.2,3.4,1.7,-2.2,25,987.269,48.4698,11.9449,7.49942,2.75976,5.62808,
2026_07_06_20_23_35.500,3.862,42.6,0,0.77,0,0,0,0, ,0,0,0,0,0, ,989.2,7,34.5,-0.1,0.7,-3.5,25,987.487,45.9915,12.7617,7.14297,2.66471,5.11145,
2026_07_06_20_23_35.520,3.862,42.6,0,0.771,0,0,0,0, ,0,0,0,0,0, ,990.7,18.7,33.6,-0.5,1.4,-3.5,25,987.637,43.9719,14.059,6.68942,2.56631,4.58669,
2026_07_06_20_23_35.540,3.862,42.6,0,0.768,0,0,0,0, ,0,0,0,0,0, ,989.1,18.4,37.9,-0.2,0.4,-2.4,25,987.775,42.4227,15.3808,6.26045,2.46477,4.12742,
2026_07_06_20_23_35.559,3.862,42.7,0,0.77,0,0,0,0, ,0,0,0,0,0, ,996.9,-2.1,-2,-0.3,-0.2,-1.4,25,988.093,40.3343,15.5374,5.86372,2.32067,3.76012,
2026_07_06_20_23_35.579,3.862,42.6,0,0.77,0,0,0,0, ,0,0,0,0,0, ,991.4,13.7,29.9,-1.7,0.1,-1.9,25,988.462,38.2298,15.4406,5.44546,2.17621,3.43044,
2026_07_06_20_23_35.606,3.862,42.7,0,0.768,0,0,0,0, ,0,0,0,0,0, ,991.8,9.8,21.6,-1.7,-1.3,-1.4,25,988.654,36.6162,16.0688,5.01004,2.00703,3.12085,
2026_07_06_20_23_35.619,3.862,42.7,0,0.77,0,0,0,0, ,0,0,0,0,0, ,990.4,18.3,24,-8.6,-0.5,-2.5,25,988.803,35.2411,16.479,4.39091,1.82988,2.81185,
2026_07_06_20_23_35.639,3.862,42.6,0,0.769,0,0,0,0, ,0,0,0,0,0, ,990.1,13.7,32.9,-8.5,-0.7,-1.9,25,988.891,34.0686,17.2085,3.60232,1.68181,2.50644,
2026_07_06_20_23_35.658,3.862,42.5,0,0.77,0,0,0,0, ,0,0,0,0,0, ,991.3,7.9,35.5,-5.5,-1,-1.4,25,989.001,32.6506,18.2439,2.95624,1.52753,2.25316,
2026_07_06_20_23_35.678,3.862,42.6,0,0.768,0,0,0,0, ,0,0,0,0,0, ,989.8,9,33.8,-1.6,-0.9,-1.7,25,989.096,31.1759,19.2437,2.55977,1.37656,2.0214,
2026_07_06_20_23_35.698,3.862,42.5,0,0.77,0,0,0,0, ,0,0,0,0,0, ,990.9,15,30.6,-0.5,-0.9,-1.9,25,989.172,30.0074,20.0332,2.3398,1.23783,1.78853,
2026_07_06_20_23_35.717,3.862,42.6,0,0.77,0,0,0,0, ,0,0,0,0,0, ,990.9,15.6,31.8,-0.4,-1,-1.4,25,989.277,29.1112,20.7137,2.1698,1.10451,1.579,
2026_07_06_20_23_35.737,3.862,42.7,0,0.769,0,0,0,0, ,0,0,0,0,0, ,990.7,16.1,31.7,-0.3,-1.1,-1.2,25,989.37,28.3031,21.3862,2.01625,0.973218,1.40356,
2026_07_06_20_23_35.758,3.862,42.4,0,0.769,0,0,0,0, ,0,0,0,0,0, ,988.7,14.6,44,-1,-1.8,0.6,25,989.39,27.5137,22.3895,1.85377,0.825553,1.29975,
2026_07_06_20_23_35.777,3.862,42.6,0,0.77,0,0,0,0, ,0,0,0,0,0, ,991.3,26,29.7,-0.4,-1.8,0.1,25,989.427,27.0741,23.2707,1.69815,0.665558,1.24187,
2026_07_06_20_23_35.797,3.862,42.6,0,0.77,0,0,0,0, ,0,0,0,0,0, ,991.5,6.4,25.5,-0.2,-1.2,-0.9,25,989.548,26.4115,23.5345,1.57639,0.533595,1.14182,
2026_07_06_20_23_35.816,3.862,42.6,0,0.77,0,0,0,0, ,0,0,0,0,0, ,992.1,10,25.7,0,-1,-0.7,25,989.685,25.3017,23.6603,1.47423,0.434048,1.02349,
2026_07_06_20_23_35.836,3.862,42.6,0,0.768,0,0,0,0, ,0,0,0,0,0, ,991.6,5,24.4,0,-0.7,-1.6,25,989.817,24.2169,23.745,1.3844,0.355801,0.891045,
2026_07_06_20_23_35.856,3.862,42.5,0,0.77,0,0,0,0, ,0,0,0,0,0, ,990.9,9,28.4,-0.5,-0.4,-2.2,25,989.904,23.1678,23.9068,1.2848,0.300604,0.720966,
2026_07_06_20_23_35.876,3.862,42.5,0,0.77,0,0,0,0, ,0,0,0,0,0, ,990.1,9.5,28,-0.2,-0.3,-2.4,25,989.94,22.3197,24.1684,1.18518,0.260957,0.536876,
2026_07_06_20_23_35.896,3.862,42.6,0,0.77,0,0,0,0, ,0,0,0,0,0, ,991.9,13.6,30.7,0.2,-0.1,-2.3,25,990.005,21.6634,24.4842,1.11296,0.232868,0.360957,
2026_07_06_20_23_35.915,3.862,42.7,0,0.768,0,0,0,0, ,0,0,0,0,0, ,990.9,13.5,31,-0.2,-0.5,-1.8,25,990.09,21.169,24.8721,1.04514,0.200396,0.214039,
2026_07_06_20_23_35.935,3.862,42.5,0,0.767,0,0,0,0, ,0,0,0,0,0, ,990.2,10.9,26.8,-0.4,-0.5,-1.7,25,990.118,20.6224,25.1175,0.963168,0.157716,0.0943557,
2026_07_06_20_23_35.955,3.862,42.7,0,0.77,0,0,0,0, ,0,0,0,0,0, ,989.8,12.3,29.9,-0.4,-0.5,-1.7,25,990.111,20.0726,25.3145,0.8801,0.117636,-0.0149879,
2026_07_06_20_23_35.975,3.862,42.5,0,0.77,0,0,0,0, ,0,0,0,0,0, ,990.8,11.8,29.6,-0.4,-0.4,-1.8,25,990.122,19.5838,25.5848,0.802094,0.083046,-0.120715,
2026_07_06_20_23_35.995,3.862,42.5,0,0.77,0,0,0,0, ,0,0,0,0,0, ,989.3,12.6,29.9,-0.4,-0.6,-1.8,25,990.118,19.1338,25.8386,0.728842,0.0475166,-0.223047,
2026_07_06_20_23_36.018,3.862,42.5,0,0.768,0,0,0,0, ,0,0,0,0,0, ,989.8,11.3,28.8,-0.5,-0.7,-1.8,25,990.083,18.696,26.0526,0.657006,0.00501169,-0.319142,
2026_07_06_20_23_36.038,3.862,42.5,0,0.77,0,0,0,0, ,0,0,0,0,0, ,990.1,10.8,27.5,-0.5,-0.4,-1.9,25,990.075,18.2301,26.1804,0.586501,-0.0288093,-0.412429,
2026_07_06_20_23_36.054,3.862,42.5,0,0.77,0,0,0,0, ,0,0,0,0,0, ,989.8,11.7,29.4,-0.4,-0.3,-2.1,25,990.068,17.8048,26.3187,0.523339,-0.0483819,-0.509171,
2026_07_06_20_23_36.074,3.862,42.5,0,0.77,0,0,0,0, ,0,0,0,0,0, ,991,12,29.6,-0.4,-0.4,-2,25,990.088,17.4419,26.5126,0.467073,-0.0667617,-0.603066,
2026_07_06_20_23_36.094,3.862,42.5,0,0.77,0,0,0,0, ,0,0,0,0,0, ,990.6,11.7,30,-0.4,-0.3,-1.9,25,990.131,17.1011,26.7129,0.414236,-0.0840216,-0.685144,
2026_07_06_20_23_36.113,3.862,42.5,0,0.77,0,0,0,0, ,0,0,0,0,0, ,991.5,12.5,28.8,-0.4,-0.2,-2,25,990.187,16.7964,26.8766,0.364618,-0.0941359,-0.762222,
2026_07_06_20_23_36.133,3.862,42.5,0,0.767,0,0,0,0, ,0,0,0,0,0, ,989.7,13.6,31.1,-0.4,-0.3,-2.1,25,990.212,16.5681,27.0639,0.318025,-0.103634,-0.840696,
2026_07_06_20_23_36.153,3.862,42.5,0,0.77,0,0,0,0, ,0,0,0,0,0, ,991.3,11.1,30.7,-0.3,-0.6,-1.8,25,990.23,16.311,27.2977,0.277317,-0.124741,-0.908294,
2026_07_06_20_23_36.173,3.862,42.6,0,0.768,0,0,0,0, ,0,0,0,0,0, ,991.8,12.8,27.9,-0.3,-0.6,-1.8,25,990.31,16.0453,27.4197,0.242137,-0.153702,-0.962632,
2026_07_06_20_23_36.193,3.862,42.6,0,0.768,0,0,0,0, ,0,0,0,0,0, ,990.4,12.4,28.9,-0.3,-0.6,-1.7,25,990.358,15.8353,27.4794,0.2091,-0.180898,-1.01061,
2026_07_06_20_23_36.213,3.862,42.6,0,0.77,0,0,0,0, ,0,0,0,0,0, ,991.8,10.8,29.4,-0.3,-0.6,-1.6,25,990.404,15.5773,27.5812,0.178077,-0.206437,-1.04958,
2026_07_06_20_23_36.233,3.862,42.5,0,0.769,0,0,0,0, ,0,0,0,0,0, ,990.6,10.3,29.7,-0.4,-0.5,-1.9,25,990.452,15.2709,27.7012,0.145897,-0.227373,-1.09226,
2026_07_06_20_23_36.252,3.862,42.6,0,0.769,0,0,0,0, ,0,0,0,0,0, ,989.6,11.5,27.4,-0.4,-0.4,-2,25,990.431,15.0046,27.7529,0.112632,-0.240939,-1.14453,
2026_07_06_20_23_36.272,3.862,42.5,0,0.769,0,0,0,0, ,0,0,0,0,0, ,989.9,11.8,29.6,-0.4,-0.6,-1.7,25,990.389,14.8001,27.7985,0.0813931,-0.256726,-1.18752,
2026_07_06_20_23_36.291,3.862,42.6,0,0.77,0,0,0,0, ,0,0,0,0,0, ,990.8,10.4,28.1,-0.4,-0.5,-1.8,25,990.387,14.5747,27.8625,0.0520582,-0.274597,-1.22179,
2026_07_06_20_23_36.311,3.862,42.6,0,0.77,0,0,0,0, ,0,0,0,0,0, ,991,11.4,27.9,-0.4,-0.4,-2,25,990.418,14.3507,27.8709,0.0245109,-0.285286,-1.26312,
2026_07_06_20_23_36.331,3.862,42.5,0,0.769,0,0,0,0, ,0,0,0,0,0, ,989.8,12.9,30.6,-0.3,-0.6,-1.8,25,990.417,14.2166,27.955,0.00168912,-0.29837,-1.30193,
2026_07_06_20_23_36.351,3.862,42.5,0,0.769,0,0,0,0, ,0,0,0,0,0, ,990.6,12.6,29,-0.3,-0.7,-1.6,25,990.404,14.1273,28.0674,-0.0166951,-0.319797,-1.32619,
2026_07_06_20_23_36.370,3.862,42.6,0,0.769,0,0,0,0, ,0,0,0,0,0, ,990.4,12.6,28.5,-0.3,-0.7,-1.5,25,990.41,14.0342,28.109,-0.033959,-0.342966,-1.33983,
2026_07_06_20_23_36.390,3.862,42.5,0,0.769,0,0,0,0, ,0,0,0,0,0, ,991.2,12.2,30.6,-0.3,-0.7,-1.5,25,990.433,13.9346,28.1968,-0.0501708,-0.364723,-1.34959,
2026_07_06_20_23_36.410,3.862,42.6,0,0.77,0,0,0,0, ,0,0,0,0,0, ,990.2,10.4,28.5,-0.5,-0.6,-1.7,25,990.45,13.7741,28.2793,-0.0714885,-0.382107,-1.36485,
2026_07_06_20_23_36.430,3.862,42.5,0,0.769,0,0,0,0, ,0,0,0,0,0, ,991,10.9,28.3,-0.4,-0.5,-1.8,25,990.459,13.5837,28.2866,-0.0945541,-0.392338,-1.38832,
2026_07_06_20_23_36.450,3.862,42.5,0,0.77,0,0,0,0, ,0,0,0,0,0, ,989.7,14.8,31.6,-0.3,-0.4,-1.9,25,990.452,13.539,28.388,-0.11012,-0.395852,-1.41645,
2026_07_06_20_23_36.477,3.862,42.5,0,0.769,0,0,0,0, ,0,0,0,0,0, ,987.5,14.2,31.1,-0.3,-0.7,-1.5,25,990.339,13.5975,28.5685,-0.121691,-0.405245,-1.43373,
2026_07_06_20_23_36.490,3.862,42.5,0,0.77,0,0,0,0, ,0,0,0,0,0, ,989.7,12.8,30.7,-0.3,-0.8,-1.5,25,990.233,13.5916,28.7106,-0.132557,-0.426253,-1.43777,
2026_07_06_20_23_36.510,3.862,42.5,0,0.769,0,0,0,0, ,0,0,0,0,0, ,990.7,11.4,29.2,-0.3,-0.6,-1.7,25,990.231,13.5007,28.7861,-0.14276,-0.442935,-1.44765,
2026_07_06_20_23_36.529,3.862,42.5,0,0.77,0,0,0,0, ,0,0,0,0,0, ,989.5,10.4,29.9,-0.3,-0.5,-1.8,25,990.223,13.3422,28.8326,-0.152342,-0.449459,-1.46608,
2026_07_06_20_23_36.550,3.862,42.5,0,0.769,0,0,0,0, ,0,0,0,0,0, ,989.5,12.9,29.4,-0.2,-0.6,-1.8,25,990.179,13.2391,28.8824,-0.158293,-0.455586,-1.48643,
2026_07_06_20_23_36.568,3.862,42.6,0,0.769,0,0,0,0, ,0,0,0,0,0, ,990.8,13.6,30.6,-0.2,-0.7,-1.5,25,990.177,13.2398,28.9505,-0.160835,-0.467433,-1.49639,
2026_07_06_20_23_36.589,3.862,42.4,0,0.77,0,0,0,0, ,0,0,0,0,0, ,990.2,11.5,30.5,-0.2,-0.8,-1.3,25,990.197,13.1977,29.048,-0.163221,-0.484652,-1.49052,
2026_07_06_20_23_36.608,3.862,42.5,0,0.769,0,0,0,0, ,0,0,0,0,0, ,991.4,8.4,27,-0.3,-0.7,-1.6,25,990.234,12.9998,29.0298,-0.168509,-0.500822,-1.48805,
2026_07_06_20_23_36.629,3.862,42.5,0,0.769,0,0,0,0, ,0,0,0,0,0, ,991.2,10.1,27,-0.3,-0.4,-1.8,25,990.299,12.7713,28.9062,-0.176522,-0.503818,-1.50097,
2026_07_06_20_23_36.648,3.862,42.6,0,0.768,0,0,0,0, ,0,0,0,0,0, ,990.3,12.5,29.4,-0.3,-0.5,-1.8,25,990.326,12.6817,28.8631,-0.184047,-0.500539,-1.51919,
2026_07_06_20_23_36.668,3.862,42.5,0,0.769,0,0,0,0, ,0,0,0,0,0, ,990.8,11.9,30.2,-0.2,-0.7,-1.6,25,990.34,12.6523,28.9202,-0.188066,-0.5066,-1.53021,
2026_07_06_20_23_36.687,3.862,42.5,0,0.77,0,0,0,0, ,0,0,0,0,0, ,990.8,10.1,27.2,-0.2,-0.5,-1.8,25,990.368,12.5516,28.9068,-0.188793,-0.512291,-1.54055,
2026_07_06_20_23_36.714,3.862,42.5,0,0.769,0,0,0,0, ,0,0,0,0,0, ,990.2,13.6,28.6,-0.2,-0.2,-2,25,990.376,12.5089,28.8454,-0.189476,-0.502402,-1.56246,
2026_07_06_20_23_36.727,3.862,42.5,0,0.769,0,0,0,0, ,0,0,0,0,0, ,990.3,12.5,32.1,-0.2,-0.5,-1.6,25,990.368,12.5418,28.9371,-0.190117,-0.493115,-1.57693,
2026_07_06_20_23_36.747,3.862,42.5,0,0.767,0,0,0,0, ,0,0,0,0,0, ,990.1,11.7,31,-0.3,-0.7,-1.6,25,990.358,12.5149,29.0963,-0.193766,-0.499628,-1.57834,
2026_07_06_20_23_36.767,3.862,42.5,0,0.769,0,0,0,0, ,0,0,0,0,0, ,990.2,11.5,29.2,-0.3,-0.6,-1.6,25,990.345,12.4592,29.1575,-0.20024,-0.508791,-1.57966,
2026_07_06_20_23_36.788,3.862,42.5,0,0.77,0,0,0,0, ,0,0,0,0,0, ,989.6,12.8,30.6,-0.2,-0.5,-1.7,25,990.318,12.4403,29.2028,-0.203272,-0.511302,-1.58394,
2026_07_06_20_23_36.806,3.862,42.5,0,0.769,0,0,0,0, ,0,0,0,0,0, ,990.3,12.9,30.3,-0.2,-0.6,-1.6,25,990.296,12.4653,29.2788,-0.203073,-0.513661,-1.58797,
2026_07_06_20_23_36.826,3.862,42.5,0,0.769,0,0,0,0, ,0,0,0,0,0, ,989.7,12.3,28.4,-0.2,-0.7,-1.5,25,990.278,12.4735,29.2831,-0.202885,-0.521969,-1.58566,
2026_07_06_20_23_36.846,3.862,42.5,0,0.769,0,0,0,0, ,0,0,0,0,0, ,989.1,11.1,28.4,-0.2,-0.5,-1.6,25,990.224,12.4264,29.2293,-0.20271,-0.526724,-1.58348,
2026_07_06_20_23_36.866,3.862,42.5,0,0.767,0,0,0,0, ,0,0,0,0,0, ,990.4,11.5,28,-0.3,-0.5,-1.7,25,990.195,12.3577,29.1666,-0.205591,-0.525095,-1.58754,
2026_07_06_20_23_36.885,3.862,42.4,0,0.767,0,0,0,0, ,0,0,0,0,0, ,991.2,11.5,28.6,-0.2,-0.4,-1.9,25,990.232,12.3055,29.1138,-0.208298,-0.520519,-1.60048,
2026_07_06_20_23_36.905,3.862,42.5,0,0.769,0,0,0,0, ,0,0,0,0,0, ,990.9,11.8,30.3,-0.2,-0.4,-1.9,25,990.282,12.2655,29.1342,-0.207792,-0.513175,-1.61874,
2026_07_06_20_23_36.925,3.862,42.5,0,0.77,0,0,0,0, ,0,0,0,0,0, ,991.4,15.1,31.8,-0.2,-0.4,-1.8,25,990.335,12.3377,29.251,-0.207317,-0.506278,-1.63283,
2026_07_06_20_23_36.945,3.862,42.4,0,0.77,0,0,0,0, ,0,0,0,0,0, ,990.2,12.8,29.6,-0.2,-0.6,-1.5,25,990.363,12.4359,29.3393,-0.206871,-0.505896,-1.63387,
2026_07_06_20_23_36.964,3.862,42.5,0,0.769,0,0,0,0, ,0,0,0,0,0, ,990.3,9.1,29,-0.2,-0.6,-1.6,25,990.356,12.3454,29.3369,-0.206452,-0.51163,-1.62876,
2026_07_06_20_23_36.985,3.862,42.4,0,0.769,0,0,0,0, ,0,0,0,0,0, ,989.8,12.8,29.1,-0.2,-0.4,-1.9,25,990.338,12.2604,29.3194,-0.206059,-0.510922,-1.63615,
2026_07_06_20_23_37.004,3.862,42.4,0,0.77,0,0,0,0, ,0,0,0,0,0, ,990.3,14.1,31.8,-0.1,-0.7,-1.5,25,990.32,12.3329,29.3883,-0.202643,-0.513303,-1.64004,
2026_07_06_20_23_37.026,3.862,42.3,0,0.769,0,0,0,0, ,0,0,0,0,0, ,989.8,12.2,31,-0.1,-0.8,-1.3,25,990.304,12.3827,29.5109,-0.196388,-0.527727,-1.62541,
2026_07_06_20_23_37.043,3.862,42.5,0,0.769,0,0,0,0, ,0,0,0,0,0, ,989.9,10.7,29.1,-0.2,-0.6,-1.5,25,990.276,12.3258,29.5437,-0.193562,-0.538225,-1.61168,
2026_07_06_20_23_37.064,3.862,42.6,0,0.769,0,0,0,0, ,0,0,0,0,0, ,992.1,10.2,28.4,-0.2,-0.6,-1.7,25,990.32,12.2115,29.4954,-0.193954,-0.541989,-1.61097,
2026_07_06_20_23_37.083,3.862,42.5,0,0.769,0,0,0,0, ,0,0,0,0,0, ,991.6,12,27.7,-0.1,-0.5,-1.8,25,990.413,12.1438,29.4073,-0.191275,-0.542477,-1.61944,
2026_07_06_20_23_37.105,3.862,42.5,0,0.77,0,0,0,0, ,0,0,0,0,0, ,990.2,13.3,29.5,-0.2,-0.6,-1.6,25,990.443,12.1746,29.3581,-0.18876,-0.542936,-1.62435,
2026_07_06_20_23_37.122,3.862,42.5,0,0.77,0,0,0,0, ,0,0,0,0,0, ,991,10.2,28,-0.2,-0.7,-1.6,25,990.453,12.1488,29.321,-0.189445,-0.54946,-1.62286,
2026_07_06_20_23_37.142,3.862,42.5,0,0.77,0,0,0,0, ,0,0,0,0,0, ,989.6,9.3,27.8,-0.2,-0.3,-1.8,25,990.443,12.0026,29.2345,-0.190088,-0.546446,-1.62756,
2026_07_06_20_23_37.162,3.862,42.4,0,0.769,0,0,0,0, ,0,0,0,0,0, ,990.9,12.2,29.7,-0.2,-0.3,-1.9,25,990.432,11.9262,29.2049,-0.190692,-0.531428,-1.64112,
2026_07_06_20_23_37.182,3.862,42.5,0,0.768,0,0,0,0, ,0,0,0,0,0, ,989.9,14.4,30.2,-0.2,-0.5,-1.7,25,990.43,12.01,29.2503,-0.19126,-0.523419,-1.6508,
2026_07_06_20_23_37.206,3.862,42.5,0,0.769,0,0,0,0, ,0,0,0,0,0, ,989.9,12.2,29.2,-0.2,-0.6,-1.5,25,990.397,12.0886,29.2777,-0.191792,-0.525039,-1.64771,
2026_07_06_20_23_37.227,3.862,42.4,0,0.769,0,0,0,0, ,0,0,0,0,0, ,989.7,12.5,29,-0.1,-0.5,-1.6,25,990.361,12.1045,29.2669,-0.189245,-0.52656,-1.64175,
2026_07_06_20_23_37.241,3.862,42.5,0,0.768,0,0,0,0, ,0,0,0,0,0, ,990.8,12.6,29.1,-0.3,-0.4,-1.7,25,990.354,12.1317,29.2537,-0.189901,-0.521895,-1.64225,
2026_07_06_20_23_37.263,3.862,42.4,0,0.77,0,0,0,0, ,0,0,0,0,0, ,989.8,13.5,30.7,-0.2,-0.7,-1.5,25,990.351,12.1876,29.2931,-0.193563,-0.523607,-1.63968,
2026_07_06_20_23_37.281,3.862,42.5,0,0.769,0,0,0,0, ,0,0,0,0,0, ,990.3,12.6,28.6,-0.1,-0.6,-1.5,25,990.333,12.2402,29.3148,-0.190908,-0.531309,-1.63117,
2026_07_06_20_23_37.302,3.862,42.4,0,0.77,0,0,0,0, ,0,0,0,0,0, ,989.6,12.8,30.6,-0.2,-0.6,-1.7,25,990.309,12.2682,29.3322,-0.188416,-0.535495,-1.62927,
2026_07_06_20_23_37.321,3.862,42.4,0,0.769,0,0,0,0, ,0,0,0,0,0, ,991,12.3,28.9,-0.2,-0.6,-1.7,25,990.309,12.2854,29.3577,-0.189122,-0.539426,-1.63358,
2026_07_06_20_23_37.342,3.862,42.5,0,0.77,0,0,0,0, ,0,0,0,0,0, ,989.6,11.3,30.7,-0.2,-0.5,-1.6,25,990.308,12.2558,29.3846,-0.189784,-0.54007,-1.63458,
2026_07_06_20_23_37.360,3.862,42.4,0,0.768,0,0,0,0, ,0,0,0,0,0, ,990.4,10.7,28.1,-0.1,-0.4,-1.8,25,990.289,12.1793,29.3856,-0.18736,-0.534582,-1.63857,
2026_07_06_20_23_37.381,3.862,42.4,0,0.77,0,0,0,0, ,0,0,0,0,0, ,991,12.6,29.1,-0.2,-0.4,-1.8,25,990.314,12.147,29.3377,-0.185083,-0.526381,-1.6484,
2026_07_06_20_23_37.400,3.862,42.3,0,0.769,0,0,0,0, ,0,0,0,0,0, ,990.2,13.1,29.1,-0.2,-0.6,-1.6,25,990.332,12.1898,29.3232,-0.185992,-0.524773,-1.65155,
2026_07_06_20_23_37.422,3.862,42.4,0,0.77,0,0,0,0, ,0,0,0,0,0, ,991.2,12.8,30.2,-0.1,-0.6,-1.4,25,990.354,12.2362,29.3431,-0.183799,-0.529357,-1.64231,
2026_07_06_20_23_37.439,3.862,42.6,0,0.768,0,0,0,0, ,0,0,0,0,0, ,990.8,10.4,29.1,-0.2,-0.7,-1.5,25,990.394,12.1974,29.3618,-0.18174,-0.536709,-1.63059,
2026_07_06_20_23_37.460,3.862,42.4,0,0.769,0,0,0,0, ,0,0,0,0,0, ,989.8,9.8,27.9,-0.1,-0.6,-1.6,25,990.388,12.0696,29.3093,-0.179805,-0.543613,-1.62568,
2026_07_06_20_23_37.478,3.862,42.4,0,0.768,0,0,0,0, ,0,0,0,0,0, ,991.5,12.9,29.5,-0.2,-0.6,-1.6,25,990.404,12.0257,29.2722,-0.177989,-0.547049,-1.62412,
2026_07_06_20_23_37.500,3.862,42.4,0,0.77,0,0,0,0, ,0,0,0,0,0, ,991.2,12.4,31.8,-0.2,-0.8,-1.4,25,990.462,12.0638,29.3561,-0.17933,-0.556369,-1.61655,
2026_07_06_20_23_37.518,3.862,42.4,0,0.768,0,0,0,0, ,0,0,0,0,0, ,989.9,10.8,26.9,-0.1,-0.7,-1.4,25,990.467,12.0355,29.3558,-0.177543,-0.568168,-1.60336,
2026_07_06_20_23_37.539,3.862,42.5,0,0.768,0,0,0,0, ,0,0,0,0,0, ,991.4,10.6,28.4,-0.1,-0.4,-1.7,25,990.478,11.9541,29.2518,-0.172818,-0.567061,-1.60011,
2026_07_06_20_23_37.558,3.862,42.3,0,0.767,0,0,0,0, ,0,0,0,0,0, ,990.3,13.3,29.4,-0.1,-0.4,-1.7,25,990.501,11.9539,29.2304,-0.16838,-0.556881,-1.60619,
2026_07_06_20_23_37.580,3.862,42.4,0,0.769,0,0,0,0, ,0,0,0,0,0, ,989.7,12.3,30.7,-0.1,-0.5,-1.6,25,990.47,12.0054,29.2803,-0.164214,-0.550368,-1.60886,
2026_07_06_20_23_37.598,3.862,42.4,0,0.769,0,0,0,0, ,0,0,0,0,0, ,989.7,11.4,29,-0.2,-0.6,-1.6,25,990.423,11.996,29.315,-0.163347,-0.550346,-1.60832,
2026_07_06_20_23_37.619,3.862,42.4,0,0.77,0,0,0,0, ,0,0,0,0,0, ,989.7,10.9,29.1,-0.2,-0.4,-1.8,25,990.379,11.9444,29.2989,-0.165581,-0.547278,-1.61391,
2026_07_06_20_23_37.637,3.862,42.3,0,0.769,0,0,0,0, ,0,0,0,0,0, ,991.4,14.2,30.6,-0.1,-0.5,-1.6,25,990.39,11.9813,29.3325,-0.164631,-0.54135,-1.61916,
2026_07_06_20_23_37.658,3.862,42.5,0,0.769,0,0,0,0, ,0,0,0,0,0, ,990.4,12.6,30.3,-0.1,-0.6,-1.4,25,990.421,12.0678,29.4006,-0.160693,-0.541877,-1.61189,
2026_07_06_20_23_37.676,3.862,42.3,0,0.769,0,0,0,0, ,0,0,0,0,0, ,991,9.8,27.7,-0.1,-0.7,-1.5,25,990.438,12.0149,29.3762,-0.156994,-0.548466,-1.60203,
2026_07_06_20_23_37.699,3.862,42.4,0,0.769,0,0,0,0, ,0,0,0,0,0, ,991.2,9.6,29,-0.2,-0.4,-1.8,25,990.478,11.8738,29.3136,-0.156568,-0.548559,-1.60495,
2026_07_06_20_23_37.716,3.862,42.5,0,0.769,0,0,0,0, ,0,0,0,0,0, ,991,13,29.4,-0.2,-0.4,-1.9,25,990.516,11.8389,29.3067,-0.159215,-0.539506,-1.61988,
2026_07_06_20_23_37.739,3.862,42.3,0,0.769,0,0,0,0, ,0,0,0,0,0, ,990.4,12.6,30.7,-0.2,-0.6,-1.6,25,990.527,11.8974,29.352,-0.1617,-0.537099,-1.62781,
2026_07_06_20_23_37.756,3.862,42.4,0,0.767,0,0,0,0, ,0,0,0,0,0, ,990.8,10,27.8,-0.3,-0.5,-1.6,25,990.532,11.861,29.3458,-0.167081,-0.537885,-1.62612,
2026_07_06_20_23_37.777,3.862,42.3,0,0.769,0,0,0,0, ,0,0,0,0,0, ,989.8,12.5,29.6,-0.1,-0.4,-1.8,25,990.518,11.8238,29.3064,-0.169087,-0.53253,-1.63062,
2026_07_06_20_23_37.795,3.862,42.5,0,0.769,0,0,0,0, ,0,0,0,0,0, ,989.9,13.3,30.2,-0.2,-0.5,-1.6,25,990.477,11.8894,29.3426,-0.167924,-0.5275,-1.63485,
2026_07_06_20_23_37.817,3.862,42.5,0,0.769,0,0,0,0, ,0,0,0,0,0, ,989.8,11.9,28.5,-0.1,-0.6,-1.6,25,990.439,11.9327,29.3431,-0.166832,-0.528872,-1.63273,
2026_07_06_20_23_37.835,3.862,42.5,0,0.769,0,0,0,0, ,0,0,0,0,0, ,989.9,10.2,29.9,-0.1,-0.7,-1.6,25,990.403,11.8789,29.3343,-0.162759,-0.536253,-1.63073,
2026_07_06_20_23_37.857,3.862,42.5,0,0.769,0,0,0,0, ,0,0,0,0,0, ,990.4,9.7,27.5,-0.2,-0.4,-1.8,25,990.387,11.7613,29.2957,-0.161982,-0.53709,-1.63495,
2026_07_06_20_23_37.875,3.862,42.5,0,0.769,0,0,0,0, ,0,0,0,0,0, ,989.5,13.9,30.8,-0.2,-0.4,-1.8,25,990.361,11.7637,29.2868,-0.164298,-0.528737,-1.64501,
2026_07_06_20_23_37.898,3.862,42.3,0,0.77,0,0,0,0, ,0,0,0,0,0, ,990.2,12.2,29.1,-0.2,-0.5,-1.6,25,990.33,11.8421,29.3272,-0.166474,-0.523939,-1.64836,
2026_07_06_20_23_37.914,3.862,42.4,0,0.77,0,0,0,0, ,0,0,0,0,0, ,991,11.9,30.5,-0.2,-0.6,-1.4,25,990.346,11.8548,29.356,-0.168517,-0.525527,-1.63932,
2026_07_06_20_23_37.937,3.862,42.3,0,0.769,0,0,0,0, ,0,0,0,0,0, ,990.1,10.8,30,-0.2,-0.6,-1.5,25,990.359,11.824,29.4105,-0.170435,-0.530065,-1.62778,
2026_07_06_20_23_37.954,3.862,42.4,0,0.77,0,0,0,0, ,0,0,0,0,0, ,991,10.2,27.5,-0.1,-0.4,-1.8,25,990.37,11.7433,29.3703,-0.16919,-0.528233,-1.62914,
2026_07_06_20_23_37.976,3.862,42.4,0,0.767,0,0,0,0, ,0,0,0,0,0, ,990.2,12.3,29,-0.1,-0.3,-1.8,25,990.384,11.7133,29.302,-0.164974,-0.517372,-1.63955,
2026_07_06_20_23_37.993,3.862,42.4,0,0.769,0,0,0,0, ,0,0,0,0,0, ,990.3,13.1,31,-0.1,-0.6,-1.5,25,990.376,11.7734,29.3445,-0.161015,-0.513266,-1.64019,
2026_07_06_20_23_38.015,3.862,42.4,0,0.769,0,0,0,0, ,0,0,0,0,0, ,989.8,14.7,31.1,-0.1,-0.8,-1.3,25,990.356,11.903,29.4485,-0.157296,-0.524645,-1.62555,
2026_07_06_20_23_38.033,3.862,42.4,0,0.769,0,0,0,0, ,0,0,0,0,0, ,991.2,10.4,26.9,-0.1,-0.6,-1.6,25,990.365,11.9424,29.4211,-0.153805,-0.535331,-1.61485,
2026_07_06_20_23_38.056,3.862,42.5,0,0.769,0,0,0,0, ,0,0,0,0,0, ,991,9.3,27.4,-0.2,-0.3,-1.8,25,990.41,11.8149,29.2827,-0.153573,-0.530131,-1.62004,
2026_07_06_20_23_38.072,3.862,42.4,0,0.767,0,0,0,0, ,0,0,0,0,0, ,990.4,12,30.3,-0.1,-0.3,-1.9,25,990.427,11.7439,29.2564,-0.153355,-0.516108,-1.63405,
2026_07_06_20_23_38.096,3.862,42.5,0,0.769,0,0,0,0, ,0,0,0,0,0, ,989.7,12.4,29.1,-0.1,-0.5,-1.9,25,990.404,11.7717,29.2834,-0.150104,-0.509032,-1.65026,
2026_07_06_20_23_38.112,3.862,42.3,0,0.767,0,0,0,0, ,0,0,0,0,0, ,989.1,13,31,-0.1,-0.4,-1.7,25,990.343,11.8283,29.3301,-0.147051,-0.505435,-1.65938,
2026_07_06_20_23_38.135,3.862,42.4,0,0.77,0,0,0,0, ,0,0,0,0,0, ,991.2,11.9,28.6,-0.1,-0.4,-1.7,25,990.331,11.8662,29.3587,-0.144184,-0.49901,-1.66186,
2026_07_06_20_23_38.152,3.862,42.4,0,0.769,0,0,0,0, ,0,0,0,0,0, ,989.9,11.2,28.4,-0.1,-0.4,-1.7,25,990.345,11.8469,29.3064,-0.141491,-0.492977,-1.66418,
2026_07_06_20_23_38.174,3.862,42.4,0,0.77,0,0,0,0, ,0,0,0,0,0, ,990.8,13,29.1,-0.1,-0.4,-1.7,25,990.345,11.8623,29.2725,-0.138963,-0.487311,-1.66637,
2026_07_06_20_23_38.191,3.862,42.3,0,0.771,0,0,0,0, ,0,0,0,0,0, ,990.6,11.4,29.6,-0.2,-0.5,-1.6,25,990.367,11.8829,29.2772,-0.139635,-0.485037,-1.66537,
2026_07_06_20_23_38.214,3.862,42.4,0,0.767,0,0,0,0, ,0,0,0,0,0, ,992.3,11.1,29.2,-0.2,-0.5,-1.7,25,990.433,11.8443,29.2847,-0.143314,-0.485949,-1.66443,
2026_07_06_20_23_38.230,3.862,42.4,0,0.771,0,0,0,0, ,0,0,0,0,0, ,989.6,12.2,30.2,-0.1,-0.6,-1.6,25,990.464,11.8325,29.31,-0.143721,-0.489852,-1.66355,
2026_07_06_20_23_38.253,3.862,42.4,0,0.769,0,0,0,0, ,0,0,0,0,0, ,989.7,11.4,28.5,-0.1,-0.7,-1.5,25,990.415,11.8305,29.3125,-0.141057,-0.499611,-1.65663,
2026_07_06_20_23_38.270,3.862,42.3,0,0.77,0,0,0,0, ,0,0,0,0,0, ,990.8,10.9,28.9,-0.2,-0.6,-1.6,25,990.405,11.789,29.2751,-0.141602,-0.508775,-1.65014,
2026_07_06_20_23_38.293,3.862,42.3,0,0.767,0,0,0,0, ,0,0,0,0,0, ,990.8,12.6,31.8,-0.1,-0.5,-1.5,25,990.429,11.7867,29.3406,-0.142114,-0.511288,-1.64403,
2026_07_06_20_23_38.309,3.862,42.4,0,0.769,0,0,0,0, ,0,0,0,0,0, ,990.7,15.6,31.8,-0.1,-0.8,-1.2,25,990.448,11.9276,29.4905,-0.139547,-0.51974,-1.62612,
2026_07_06_20_23_38.332,3.862,42.3,0,0.769,0,0,0,0, ,0,0,0,0,0, ,991,10.7,28,-0.1,-1.1,-1.1,25,990.473,12.0021,29.5155,-0.137138,-0.545959,-1.5971,
2026_07_06_20_23_38.349,3.862,42.4,0,0.769,0,0,0,0, ,0,0,0,0,0, ,990.6,9.2,27,-0.1,-0.8,-1.5,25,990.493,11.8771,29.3926,-0.134874,-0.570581,-1.579,
2026_07_06_20_23_38.374,3.862,42.4,0,0.77,0,0,0,0, ,0,0,0,0,0, ,991,9.8,26.9,-0.1,-0.6,-1.7,25,990.511,11.7322,29.2438,-0.132749,-0.578467,-1.58028,
2026_07_06_20_23_38.389,3.862,42.4,0,0.77,0,0,0,0, ,0,0,0,0,0, ,990.4,12.9,29.6,-0.1,-0.4,-1.8,25,990.523,11.7089,29.1832,-0.130754,-0.573685,-1.59062,
2026_07_06_20_23_38.411,3.862,42.4,0,0.769,0,0,0,0, ,0,0,0,0,0, ,991.5,12.5,30.3,-0.1,-0.4,-1.7,25,990.549,11.7693,29.23,-0.12888,-0.563101,-1.60033,
2026_07_06_20_23_38.429,3.862,42.4,0,0.769,0,0,0,0, ,0,0,0,0,0, ,990.9,10.6,30.7,-0.1,-0.4,-1.7,25,990.589,11.756,29.3073,-0.12712,-0.553163,-1.60641,
2026_07_06_20_23_38.454,3.862,42.2,0,0.769,0,0,0,0, ,0,0,0,0,0, ,990.6,13.1,30.6,-0.1,-0.4,-2,25,990.598,11.7617,29.3892,-0.125467,-0.543829,-1.62125,
2026_07_06_20_23_38.469,3.862,42.4,0,0.769,0,0,0,0, ,0,0,0,0,0, ,990.8,14.1,30.2,-0.1,-0.5,-1.7,25,990.605,11.8737,29.4508,-0.123915,-0.538111,-1.63519,
2026_07_06_20_23_38.492,3.862,42.4,0,0.77,0,0,0,0, ,0,0,0,0,0, ,990.7,10.7,28.8,-0.1,-0.5,-1.6,25,990.613,11.9058,29.4538,-0.122458,-0.535789,-1.63609,
2026_07_06_20_23_38.508,3.862,42.3,0,0.769,0,0,0,0, ,0,0,0,0,0, ,991.8,12.4,30.5,-0.1,-0.5,-1.6,25,990.652,11.8841,29.4657,-0.121089,-0.533608,-1.63389,
2026_07_06_20_23_38.531,3.862,42.4,0,0.769,0,0,0,0, ,0,0,0,0,0, ,990.9,10.1,28.4,-0.1,-0.7,-1.4,25,990.695,11.8455,29.4648,-0.119804,-0.537654,-1.62573,
2026_07_06_20_23_38.552,3.862,42.3,0,0.771,0,0,0,0, ,0,0,0,0,0, ,990.7,10.7,28.9,-0.1,-0.5,-1.8,25,990.701,11.7574,29.4151,-0.118597,-0.541453,-1.62417,
2026_07_06_20_23_38.575,3.862,42.4,0,0.769,0,0,0,0, ,0,0,0,0,0, ,989.5,12.8,30.2,-0.1,-0.5,-1.6,25,990.665,11.7569,29.4233,-0.117464,-0.538927,-1.62879,
2026_07_06_20_23_38.587,3.862,42.4,0,0.767,0,0,0,0, ,0,0,0,0,0, ,989,12.6,28.3,-0.1,-0.3,-1.7,25,990.578,11.8144,29.4128,-0.1164,-0.530461,-1.63008,
2026_07_06_20_23_38.611,3.862,42.3,0,0.77,0,0,0,0, ,0,0,0,0,0, ,989.2,12.3,30.5,-0.2,-0.3,-1.7,25,990.488,11.8531,29.412,-0.118447,-0.516417,-1.63434,
2026_07_06_20_23_38.627,3.862,42.4,0,0.769,0,0,0,0, ,0,0,0,0,0, ,990.4,11.2,29.1,-0.1,-0.5,-1.7,25,990.446,11.8468,29.4356,-0.12037,-0.509323,-1.63834,
2026_07_06_20_23_38.650,3.862,42.4,0,0.767,0,0,0,0, ,0,0,0,0,0, ,989.5,12.3,28.8,-0.1,-0.5,-1.7,25,990.416,11.8409,29.406,-0.119129,-0.508755,-1.6421,
2026_07_06_20_23_38.666,3.862,42.3,0,0.769,0,0,0,0, ,0,0,0,0,0, ,989.8,12.6,29.5,-0.2,-0.4,-1.7,25,990.369,11.8781,29.3904,-0.12101,-0.505175,-1.64563,
2026_07_06_20_23_38.690,3.862,42.3,0,0.769,0,0,0,0, ,0,0,0,0,0, ,989.8,13.9,30.3,-0.1,-0.6,-1.6,25,990.335,11.9617,29.4215,-0.122777,-0.504859,-1.64589,
2026_07_06_20_23_38.706,3.862,42.4,0,0.769,0,0,0,0, ,0,0,0,0,0, ,990.6,11.8,29.9,-0.1,-0.6,-1.7,25,990.326,12.0158,29.4628,-0.121389,-0.510657,-1.64614,
2026_07_06_20_23_38.729,3.862,42.4,0,0.77,0,0,0,0, ,0,0,0,0,0, ,990.6,11.5,28.9,-0.1,-0.5,-1.8,25,990.343,11.9935,29.459,-0.120085,-0.513055,-1.65247,
2026_07_06_20_23_38.745,3.862,42.2,0,0.767,0,0,0,0, ,0,0,0,0,0, ,989.5,12.6,31.1,-0.1,-0.4,-1.8,25,990.325,11.9969,29.492,-0.118861,-0.509212,-1.66146,
2026_07_06_20_23_38.769,3.862,42.4,0,0.769,0,0,0,0, ,0,0,0,0,0, ,991.2,11.8,30.2,-0.1,-0.5,-1.7,25,990.327,12.0093,29.5625,-0.117712,-0.505604,-1.66686,
2026_07_06_20_23_38.785,3.862,42.3,0,0.768,0,0,0,0, ,0,0,0,0,0, ,989.2,12.8,30.2,-0.1,-0.5,-1.6,25,990.319,12.027,29.6014,-0.116633,-0.505262,-1.66583,
2026_07_06_20_23_38.807,3.862,42.4,0,0.768,0,0,0,0, ,0,0,0,0,0, ,990.2,12.8,28.5,-0.1,-0.5,-1.5,25,990.281,12.0741,29.5861,-0.115619,-0.504942,-1.65877,
2026_07_06_20_23_38.828,3.862,42.2,0,0.768,0,0,0,0, ,0,0,0,0,0, ,989.8,10.8,29.4,-0.1,-0.6,-1.5,25,990.264,12.0574,29.5473,-0.114667,-0.507687,-1.6491,
2026_07_06_20_23_38.852,3.862,42.4,0,0.769,0,0,0,0, ,0,0,0,0,0, ,991.5,11.3,30.5,0,-0.5,-1.7,25,990.288,11.996,29.5718,-0.110727,-0.510266,-1.6461,
2026_07_06_20_23_38.864,3.862,42.4,0,0.77,0,0,0,0, ,0,0,0,0,0, ,990.8,11.9,29.7,-0.1,-0.4,-1.7,25,990.34,11.9719,29.604,-0.107026,-0.506593,-1.64939,
2026_07_06_20_23_38.887,3.862,42.3,0,0.769,0,0,0,0, ,0,0,0,0,0, ,990.7,12.6,29.6,-0.1,-0.7,-1.6,25,990.365,11.9889,29.6068,-0.106598,-0.509239,-1.64943,
2026_07_06_20_23_38.903,3.862,42.3,0,0.768,0,0,0,0, ,0,0,0,0,0, ,990.9,11.1,29.2,-0.1,-0.5,-1.6,25,990.392,11.9804,29.5942,-0.106196,-0.514769,-1.64641,
2026_07_06_20_23_38.927,3.862,42.2,0,0.769,0,0,0,0, ,0,0,0,0,0, ,989.9,11.9,30.6,-0.1,-0.3,-1.9,25,990.392,11.9511,29.6129,-0.105818,-0.507776,-1.65273,
2026_07_06_20_23_38.943,3.862,42.4,0,0.768,0,0,0,0, ,0,0,0,0,0, ,989.9,14.4,31.4,-0.1,-0.4,-1.8,25,990.362,12.0242,29.6974,-0.105464,-0.498161,-1.66475,
2026_07_06_20_23_38.967,3.862,42.3,0,0.769,0,0,0,0, ,0,0,0,0,0, ,989.7,13.5,29.7,-0.1,-0.5,-1.6,25,990.328,12.1415,29.7493,-0.105131,-0.495226,-1.6669,
2026_07_06_20_23_38.983,3.862,42.4,0,0.769,0,0,0,0, ,0,0,0,0,0, ,989.6,10.3,30,-0.1,-0.5,-1.6,25,990.287,12.1268,29.7555,-0.104818,-0.495517,-1.66282,
2026_07_06_20_23_39.007,3.862,42.3,0,0.769,0,0,0,0, ,0,0,0,0,0, ,990.7,12.2,29.1,-0.1,-0.5,-1.7,25,990.278,12.0734,29.743,-0.104525,-0.49579,-1.66204,
2026_07_06_20_23_39.022,3.862,42.2,0,0.769,0,0,0,0, ,0,0,0,0,0, ,990.1,13.5,31,-0.1,-0.5,-1.7,25,990.286,12.1207,29.7617,-0.104249,-0.496047,-1.66435,
2026_07_06_20_23_39.046,3.862,42.3,0,0.769,0,0,0,0, ,0,0,0,0,0, ,990.6,13.4,30.1,0,-0.6,-1.5,25,990.29,12.2017,29.8097,-0.100943,-0.499335,-1.66043,
2026_07_06_20_23_39.062,3.862,42.2,0,0.769,0,0,0,0, ,0,0,0,0,0, ,990.9,13.6,29.6,-0.1,-0.7,-1.5,25,990.318,12.2808,29.8122,-0.0978387,-0.508516,-1.65065,
2026_07_06_20_23_39.086,3.862,42.4,0,0.77,0,0,0,0, ,0,0,0,0,0, ,991.2,12,27.5,-0.1,-0.6,-1.5,25,990.362,12.3125,29.7353,-0.0979704,-0.517138,-1.64147,
2026_07_06_20_23_39.102,3.862,42.3,0,0.768,0,0,0,0, ,0,0,0,0,0, ,990.2,11.2,30.3,-0.1,-0.4,-1.7,25,990.383,12.269,29.6844,-0.0980941,-0.516093,-1.63895,
2026_07_06_20_23_39.126,3.862,42.3,0,0.769,0,0,0,0, ,0,0,0,0,0, ,990.7,11.5,29.6,-0.1,-0.4,-1.7,25,990.387,12.213,29.7005,-0.0982102,-0.509019,-1.64267,
2026_07_06_20_23_39.141,3.862,42.2,0,0.768,0,0,0,0, ,0,0,0,0,0, ,989.7,11.8,29.5,-0.1,-0.4,-1.8,25,990.376,12.1787,29.6914,-0.0983193,-0.502375,-1.64921,
2026_07_06_20_23_39.165,3.862,42.3,0,0.768,0,0,0,0, ,0,0,0,0,0, ,989.8,11.7,29.9,-0.1,-0.5,-1.6,25,990.337,12.1526,29.6919,-0.0984217,-0.499184,-1.6523,
2026_07_06_20_23_39.181,3.862,42.2,0,0.769,0,0,0,0, ,0,0,0,0,0, ,990.1,11.7,29.7,-0.1,-0.5,-1.6,25,990.314,12.125,29.6985,-0.0985179,-0.499234,-1.64912,
2026_07_06_20_23_39.206,3.862,42.3,0,0.769,0,0,0,0, ,0,0,0,0,0, ,989.5,11.3,29.6,-0.1,-0.4,-1.6,25,990.283,12.0869,29.6955,-0.0986082,-0.496233,-1.64612,
2026_07_06_20_23_39.220,3.862,42.2,0,0.768,0,0,0,0, ,0,0,0,0,0, ,990.9,13.3,28.8,-0.1,-0.6,-1.6,25,990.278,12.0999,29.6653,-0.098693,-0.496463,-1.64331,
2026_07_06_20_23_39.244,3.862,42.3,0,0.77,0,0,0,0, ,0,0,0,0,0, ,989.6,12.5,30.7,-0.1,-0.6,-1.5,25,990.276,12.1487,29.6705,-0.0987727,-0.502772,-1.63763,
2026_07_06_20_23_39.260,3.862,42.3,0,0.769,0,0,0,0, ,0,0,0,0,0, ,990.3,11.8,29.2,-0.1,-0.5,-1.6,25,990.256,12.1488,29.6875,-0.0988475,-0.50565,-1.63229,
2026_07_06_20_23_39.284,3.862,42.2,0,0.768,0,0,0,0, ,0,0,0,0,0, ,989,13.4,31.1,0,-0.6,-1.5,25,990.219,12.1763,29.7157,-0.0958708,-0.508353,-1.62727,
2026_07_06_20_23_39.300,3.862,42.2,0,0.77,0,0,0,0, ,0,0,0,0,0, ,990.8,13.1,29.7,-0.1,-0.6,-1.4,25,990.2,12.2417,29.7574,-0.0930756,-0.513937,-1.61647,
2026_07_06_20_23_39.324,3.862,42.2,0,0.769,0,0,0,0, ,0,0,0,0,0, ,991.3,9.3,28.6,0,-0.5,-1.6,25,990.251,12.1782,29.7204,-0.0904507,-0.516135,-1.60937,
2026_07_06_20_23_39.339,3.862,42.2,0,0.769,0,0,0,0, ,0,0,0,0,0, ,990.3,11.5,30.2,-0.1,-0.4,-1.8,25,990.285,12.0698,29.7009,-0.0879857,-0.512105,-1.61489,
2026_07_06_20_23_39.363,3.862,42.3,0,0.769,0,0,0,0, ,0,0,0,0,0, ,991.2,13.9,31.3,-0.1,-0.4,-1.6,25,990.313,12.1082,29.7648,-0.0887178,-0.505274,-1.62008,
2026_07_06_20_23_39.378,3.862,42.3,0,0.77,0,0,0,0, ,0,0,0,0,0, ,989.8,11.4,31.3,-0.1,-0.5,-1.6,25,990.325,12.1413,29.8583,-0.0894053,-0.501905,-1.61886,
2026_07_06_20_23_39.403,3.862,42.2,0,0.768,0,0,0,0, ,0,0,0,0,0, ,990.9,12.3,29.7,-0.1,-0.5,-1.7,25,990.326,12.1235,29.8975,-0.0900509,-0.501789,-1.62075,
2026_07_06_20_23_39.418,3.862,42.2,0,0.77,0,0,0,0, ,0,0,0,0,0, ,990.2,13,30.6,-0.1,-0.4,-1.7,25,990.34,12.1556,29.9128,-0.0906572,-0.498633,-1.62558,
2026_07_06_20_23_39.444,3.862,42.2,0,0.768,0,0,0,0, ,0,0,0,0,0, ,990.3,14.1,32.4,-0.1,-0.5,-1.5,25,990.334,12.2406,30.0096,-0.0912265,-0.49567,-1.62402,
2026_07_06_20_23_39.457,3.862,42.3,0,0.769,0,0,0,0, ,0,0,0,0,0, ,991.3,11.4,30.1,-0.1,-0.6,-1.4,25,990.363,12.2716,30.0851,-0.0917612,-0.49898,-1.61342,
2026_07_06_20_23_39.482,3.862,42.3,0,0.768,0,0,0,0, ,0,0,0,0,0, ,990.4,9.5,28.1,-0.1,-0.5,-1.8,25,990.392,12.1606,30.0251,-0.0922632,-0.502089,-1.6126,
2026_07_06_20_23_39.497,3.862,42.2,0,0.768,0,0,0,0, ,0,0,0,0,0, ,990.2,14,29.1,-0.1,-0.4,-1.7,25,990.387,12.1356,29.9383,-0.0927347,-0.498915,-1.62097,
2026_07_06_20_23_39.523,3.862,42.3,0,0.769,0,0,0,0, ,0,0,0,0,0, ,990.7,14.7,30.7,-0.1,-0.4,-1.6,25,990.391,12.2705,29.9359,-0.0931774,-0.492888,-1.62274,
2026_07_06_20_23_39.536,3.862,42.2,0,0.769,0,0,0,0, ,0,0,0,0,0, ,989.8,13.7,32.2,-0.1,-0.6,-1.5,25,990.382,12.3881,30.0282,-0.0935932,-0.493321,-1.61831,
2026_07_06_20_23_39.561,3.862,42.3,0,0.77,0,0,0,0, ,0,0,0,0,0, ,990.9,11.4,31.3,-0.1,-0.7,-1.6,25,990.38,12.398,30.1331,-0.0939836,-0.502869,-1.61415,
2026_07_06_20_23_39.576,3.862,42.2,0,0.769,0,0,0,0, ,0,0,0,0,0, ,989.6,13.3,29.1,-0.1,-0.6,-1.6,25,990.372,12.395,30.1372,-0.0943502,-0.511834,-1.61329,
2026_07_06_20_23_39.602,3.862,42,0,0.767,0,0,0,0, ,0,0,0,0,0, ,989.2,13,31.1,-0.1,-0.6,-1.6,25,990.313,12.4411,30.1349,-0.0946945,-0.517207,-1.61248,
2026_07_06_20_23_39.615,3.862,42.3,0,0.768,0,0,0,0, ,0,0,0,0,0, ,989.5,9.3,27.5,-0.1,-0.5,-1.6,25,990.254,12.3624,30.0841,-0.0950178,-0.519205,-1.61172,
2026_07_06_20_23_39.640,3.862,42.3,0,0.769,0,0,0,0, ,0,0,0,0,0, ,992.3,12.3,30.2,-0.1,-0.3,-1.9,25,990.294,12.2672,30.0089,-0.0953214,-0.511941,-1.62014,
2026_07_06_20_23_39.655,3.862,42.2,0,0.768,0,0,0,0, ,0,0,0,0,0, ,990.4,13,29.4,-0.1,-0.4,-1.8,25,990.358,12.2905,29.9961,-0.0956065,-0.502073,-1.63415,
2026_07_06_20_23_39.682,3.862,42.2,0,0.769,0,0,0,0, ,0,0,0,0,0, ,991.4,12.8,30.6,-0.1,-0.5,-1.6,25,990.391,12.3276,29.9964,-0.0958742,-0.4989,-1.63816,
2026_07_06_20_23_39.695,3.862,42.2,0,0.769,0,0,0,0, ,0,0,0,0,0, ,991.6,11.8,30.7,-0.1,-0.6,-1.6,25,990.459,12.326,30.0362,-0.0961256,-0.502014,-1.63584,
2026_07_06_20_23_39.719,3.862,42.2,0,0.769,0,0,0,0, ,0,0,0,0,0, ,991,12.3,30,-0.1,-0.7,-1.4,25,990.51,12.3091,30.0553,-0.0963617,-0.511032,-1.62756,
2026_07_06_20_23_39.735,3.862,42.2,0,0.768,0,0,0,0, ,0,0,0,0,0, ,990.3,12.9,30,-0.1,-0.6,-1.6,25,990.518,12.3269,30.0519,-0.0965834,-0.5195,-1.61979,
2026_07_06_20_23_39.759,3.862,42.3,0,0.769,0,0,0,0, ,0,0,0,0,0, ,991.6,12,29.1,-0.1,-0.5,-1.6,25,990.545,12.3344,30.0214,-0.0967916,-0.521359,-1.61858,
2026_07_06_20_23_39.775,3.862,42.2,0,0.769,0,0,0,0, ,0,0,0,0,0, ,990.4,11.7,29.4,-0.1,-0.6,-1.5,25,990.572,12.3049,29.9744,-0.0969871,-0.523104,-1.6144,
2026_07_06_20_23_39.800,3.862,42.2,0,0.769,0,0,0,0, ,0,0,0,0,0, ,989.9,10.3,29.9,-0.1,-0.5,-1.6,25,990.547,12.2253,29.9546,-0.0971707,-0.524743,-1.61048,
2026_07_06_20_23_39.814,3.862,42.3,0,0.769,0,0,0,0, ,0,0,0,0,0, ,990.6,14.5,30.2,-0.1,-0.7,-1.5,25,990.529,12.236,29.9604,-0.0973432,-0.529329,-1.60679,
2026_07_06_20_23_39.840,3.862,42.3,0,0.768,0,0,0,0, ,0,0,0,0,0, ,990.3,11.7,30.6,-0.1,-0.6,-1.5,25,990.524,12.2886,29.9872,-0.0975051,-0.536682,-1.60028,
2026_07_06_20_23_39.853,3.862,42.2,0,0.77,0,0,0,0, ,0,0,0,0,0, ,990.8,11.5,29.1,-0.1,-0.5,-1.6,25,990.525,12.2467,29.9788,-0.0976571,-0.537494,-1.59722,
2026_07_06_20_23_39.878,3.862,42.2,0,0.769,0,0,0,0, ,0,0,0,0,0, ,990.3,11.3,28.3,-0.1,-0.6,-1.6,25,990.527,12.1951,29.9009,-0.0977999,-0.538256,-1.59739,
2026_07_06_20_23_39.892,3.862,42.3,0,0.769,0,0,0,0, ,0,0,0,0,0, ,990.9,11.5,30.3,-0.1,-0.4,-1.7,25,990.531,12.1466,29.8643,-0.0979339,-0.535925,-1.6006,
2026_07_06_20_23_39.919,3.862,42.2,0,0.768,0,0,0,0, ,0,0,0,0,0, ,989.3,13,30.5,-0.1,-0.6,-1.6,25,990.505,12.1529,29.8969,-0.0980598,-0.533736,-1.60361,
2026_07_06_20_23_39.933,3.862,42.3,0,0.769,0,0,0,0, ,0,0,0,0,0, ,990.7,12.2,28.8,-0.1,-0.5,-1.6,25,990.474,12.1802,29.8819,-0.0981781,-0.534727,-1.60339,
2026_07_06_20_23_39.958,3.862,42.2,0,0.769,0,0,0,0, ,0,0,0,0,0, ,990.9,11.5,29.4,-0.1,-0.5,-1.7,25,990.494,12.16,29.8342,-0.0982891,-0.532611,-1.60623,
2026_07_06_20_23_39.972,3.862,42.2,0,0.77,0,0,0,0, ,0,0,0,0,0, ,990.4,11.1,30.2,-0.1,-0.4,-1.8,25,990.504,12.1076,29.8322,-0.0983933,-0.527576,-1.61499,
2026_07_06_20_23_39.997,3.862,42.3,0,0.769,0,0,0,0, ,0,0,0,0,0, ,990.7,13.5,29.7,-0.1,-0.4,-1.7,25,990.506,12.1194,29.8393,-0.0984913,-0.519802,-1.62322,
2026_07_06_20_23_40.011,3.862,42.3,0,0.769,0,0,0,0, ,0,0,0,0,0, ,991.2,13.7,30.8,-0.2,-0.5,-1.6,25,990.534,12.2096,29.8644,-0.10163,-0.515549,-1.62485,
2026_07_06_20_23_40.038,3.862,42.2,0,0.768,0,0,0,0, ,0,0,0,0,0, ,989.5,13.3,30.1,-0.1,-0.6,-1.4,25,990.522,12.2882,29.9,-0.104578,-0.517648,-1.61724,
2026_07_06_20_23_40.051,3.862,42.2,0,0.768,0,0,0,0, ,0,0,0,0,0, ,991,10.2,28.5,-0.1,-0.5,-1.6,25,990.506,12.2554,29.8635,-0.104299,-0.51962,-1.6101,
2026_07_06_20_23_40.076,3.862,42.4,0,0.768,0,0,0,0, ,0,0,0,0,0, ,990.3,13.4,30.2,-0.1,-0.5,-1.7,25,990.515,12.2277,29.8322,-0.104037,-0.518424,-1.61253,
2026_07_06_20_23_40.091,3.862,42,0,0.769,0,0,0,0, ,0,0,0,0,0, ,990.2,14,31.1,-0.1,-0.6,-1.6,25,990.498,12.3174,29.882,-0.103791,-0.520348,-1.61481,
2026_07_06_20_23_40.123,3.862,42.2,0,0.769,0,0,0,0, ,0,0,0,0,0, ,990.4,10.9,29.6,-0.1,-0.7,-1.5,25,990.486,12.3255,29.9105,-0.10356,-0.528249,-1.61086,
2026_07_06_20_23_40.130,3.862,42.3,0,0.768,0,0,0,0, ,0,0,0,0,0, ,990.4,12.4,28.5,-0.1,-0.6,-1.7,25,990.481,12.2843,29.8581,-0.103343,-0.535668,-1.6102,
2026_07_06_20_23_40.156,3.862,42.2,0,0.769,0,0,0,0, ,0,0,0,0,0, ,991.5,10.9,28.3,-0.1,-0.5,-1.8,25,990.51,12.2457,29.7692,-0.103139,-0.536541,-1.61872,
2026_07_06_20_23_40.169,3.862,42,0,0.769,0,0,0,0, ,0,0,0,0,0, ,990.6,13.1,31.3,-0.1,-0.6,-1.6,25,990.543,12.2307,29.7711,-0.102948,-0.537361,-1.62367,
2026_07_06_20_23_40.195,3.862,42.2,0,0.769,0,0,0,0, ,0,0,0,0,0, ,990.4,13,28.8,-0.1,-0.6,-1.5,25,990.54,12.2806,29.7881,-0.102768,-0.541179,-1.61918,
2026_07_06_20_23_40.210,3.862,42.3,0,0.768,0,0,0,0, ,0,0,0,0,0, ,991,10.9,29.4,-0.1,-0.7,-1.4,25,990.55,12.2605,29.7462,-0.102599,-0.54781,-1.60887,
2026_07_06_20_23_40.235,3.862,42.2,0,0.768,0,0,0,0, ,0,0,0,0,0, ,991.4,10.6,30,-0.2,-0.6,-1.6,25,990.589,12.1684,29.7434,-0.105488,-0.554037,-1.60224,
2026_07_06_20_23_40.249,3.862,42.2,0,0.768,0,0,0,0, ,0,0,0,0,0, ,990.4,12.8,30.3,-0.1,-0.5,-1.7,25,990.608,12.1399,29.7681,-0.1082,-0.553791,-1.60515,
2026_07_06_20_23_40.274,3.862,42.2,0,0.768,0,0,0,0, ,0,0,0,0,0, ,991.2,12.8,30.1,-0.1,-0.5,-1.7,25,990.62,12.1801,29.7945,-0.107701,-0.550513,-1.61093,
2026_07_06_20_23_40.288,3.862,42.2,0,0.77,0,0,0,0, ,0,0,0,0,0, ,989.6,11.8,30.2,-0.1,-0.5,-1.5,25,990.607,12.1874,29.8161,-0.107231,-0.547435,-1.61026,
2026_07_06_20_23_40.314,3.862,42.2,0,0.77,0,0,0,0, ,0,0,0,0,0, ,990.8,12.2,30.7,-0.1,-0.5,-1.6,25,990.582,12.176,29.8548,-0.106791,-0.544544,-1.60659,
2026_07_06_20_23_40.328,3.862,42.2,0,0.77,0,0,0,0, ,0,0,0,0,0, ,989.6,11.8,29.5,-0.1,-0.6,-1.6,25,990.559,12.1653,29.8697,-0.106377,-0.544877,-1.60619,
2026_07_06_20_23_40.355,3.862,42.2,0,0.769,0,0,0,0, ,0,0,0,0,0, ,990.1,12.5,29,-0.1,-0.6,-1.7,25,990.515,12.1643,29.8319,-0.105988,-0.548236,-1.60886,
2026_07_06_20_23_40.367,3.862,42.2,0,0.768,0,0,0,0, ,0,0,0,0,0, ,991.3,11.1,28.8,-0.1,-0.5,-1.5,25,990.527,12.1421,29.7751,-0.105623,-0.548343,-1.60832,
2026_07_06_20_23_40.393,3.862,42.2,0,0.768,0,0,0,0, ,0,0,0,0,0, ,991.5,9.7,29.2,-0.1,-0.4,-1.8,25,990.58,12.036,29.7279,-0.105281,-0.542351,-1.61086,
2026_07_06_20_23_40.407,3.862,42.2,0,0.77,0,0,0,0, ,0,0,0,0,0, ,991,12.2,30.6,-0.1,-0.4,-1.9,25,990.621,11.9698,29.7384,-0.104959,-0.533676,-1.62543,
2026_07_06_20_23_40.434,3.862,42.2,0,0.77,0,0,0,0, ,0,0,0,0,0, ,989.6,13.6,30.3,-0.1,-0.6,-1.5,25,990.601,12.0265,29.7818,-0.104657,-0.531624,-1.62998,
2026_07_06_20_23_40.446,3.862,42.2,0,0.771,0,0,0,0, ,0,0,0,0,0, ,991,11.1,28.4,-0.1,-0.6,-1.6,25,990.583,12.0462,29.7555,-0.104373,-0.535791,-1.6251,
2026_07_06_20_23_40.473,3.862,42,0,0.769,0,0,0,0, ,0,0,0,0,0, ,990.8,11.4,30.7,-0.1,-0.4,-1.8,25,990.602,11.9977,29.7429,-0.104107,-0.53361,-1.62967,
2026_07_06_20_23_40.486,3.862,42.2,0,0.768,0,0,0,0, ,0,0,0,0,0, ,989.5,12.9,31.4,-0.1,-0.5,-1.6,25,990.575,12.007,29.8226,-0.103856,-0.528515,-1.63395,
2026_07_06_20_23_40.513,3.862,42,0,0.769,0,0,0,0, ,0,0,0,0,0, ,991,12.4,30.2,-0.1,-0.6,-1.7,25,990.555,12.0461,29.8821,-0.103621,-0.529824,-1.63493,
2026_07_06_20_23_40.525,3.862,42.2,0,0.769,0,0,0,0, ,0,0,0,0,0, ,991.3,11.5,28.4,0,-0.5,-1.7,25,990.591,12.0403,29.8467,-0.100354,-0.531053,-1.6389,
2026_07_06_20_23_40.552,3.862,42.2,0,0.768,0,0,0,0, ,0,0,0,0,0, ,990.2,11.4,30,-0.1,-0.2,-1.8,25,990.601,12.0043,29.8073,-0.0972853,-0.520021,-1.64567,
2026_07_06_20_23_40.566,3.862,42.2,0,0.769,0,0,0,0, ,0,0,0,0,0, ,990.7,12.6,30.6,-0.1,-0.4,-1.6,25,990.592,12.0041,29.8373,-0.0974507,-0.506613,-1.64898,
2026_07_06_20_23_40.593,3.862,42.2,0,0.769,0,0,0,0, ,0,0,0,0,0, ,991,12.6,30.5,-0.1,-0.5,-1.7,25,990.607,12.0404,29.8807,-0.0976061,-0.503163,-1.64904,
2026_07_06_20_23_40.604,3.862,42,0,0.77,0,0,0,0, ,0,0,0,0,0, ,990.7,11.7,31,-0.1,-0.5,-1.7,25,990.622,12.047,29.9337,-0.097752,-0.50297,-1.65214,
2026_07_06_20_23_40.630,3.862,42.2,0,0.769,0,0,0,0, ,0,0,0,0,0, ,989.8,12.3,29.1,-0.1,-0.5,-1.5,25,990.599,12.0442,29.9408,-0.097889,-0.502789,-1.64897,
2026_07_06_20_23_40.644,3.862,42.2,0,0.769,0,0,0,0, ,0,0,0,0,0, ,990.2,12.4,29.6,0,-0.5,-1.6,25,990.563,12.0628,29.9048,-0.0949707,-0.502619,-1.64294,
2026_07_06_20_23_40.671,3.862,42.2,0,0.768,0,0,0,0, ,0,0,0,0,0, ,990.6,11.1,28.9,-0.1,-0.6,-1.6,25,990.553,12.0438,29.8649,-0.0922303,-0.505507,-1.64032,
2026_07_06_20_23_40.683,3.862,42,0,0.768,0,0,0,0, ,0,0,0,0,0, ,990.9,11.7,29.1,-0.1,-0.5,-1.6,25,990.565,12.0045,29.8122,-0.0927038,-0.508218,-1.63786,
2026_07_06_20_23_40.710,3.862,42.2,0,0.767,0,0,0,0, ,0,0,0,0,0, ,989.9,12.5,30.5,-0.1,-0.5,-1.6,25,990.555,12.0103,29.8114,-0.0931484,-0.507717,-1.63556,
2026_07_06_20_23_40.723,3.862,42.2,0,0.768,0,0,0,0, ,0,0,0,0,0, ,990.2,10.6,29.2,-0.1,-0.5,-1.7,25,990.524,11.9823,29.8138,-0.0935659,-0.507247,-1.63644,
2026_07_06_20_23_40.750,3.862,42.2,0,0.769,0,0,0,0, ,0,0,0,0,0, ,990.3,11.9,29.7,-0.1,-0.6,-1.6,25,990.507,11.9377,29.7916,-0.093958,-0.509852,-1.63726,
2026_07_06_20_23_40.762,3.862,42.2,0,0.767,0,0,0,0, ,0,0,0,0,0, ,990.7,10.3,30,-0.1,-0.5,-1.6,25,990.507,11.8866,29.7952,-0.0943262,-0.512299,-1.63499,
2026_07_06_20_23_40.789,3.862,42.2,0,0.767,0,0,0,0, ,0,0,0,0,0, ,990.6,13.5,29,-0.1,-0.4,-1.8,25,990.516,11.8874,29.7772,-0.0946719,-0.508502,-1.63895,
2026_07_06_20_23_40.802,3.862,42,0,0.769,0,0,0,0, ,0,0,0,0,0, ,990.9,11.1,30.1,-0.1,-0.4,-1.7,25,990.53,11.9126,29.7633,-0.0949966,-0.501891,-1.64572,
2026_07_06_20_23_40.829,3.862,42.2,0,0.77,0,0,0,0, ,0,0,0,0,0, ,989.3,13.6,30.8,-0.1,-0.4,-1.7,25,990.504,11.9392,29.8052,-0.0953015,-0.495682,-1.64903,
2026_07_06_20_23_40.842,3.862,42.2,0,0.768,0,0,0,0, ,0,0,0,0,0, ,989.5,13.3,32.1,-0.1,-0.5,-1.7,25,990.437,12.0313,29.9054,-0.0955878,-0.492898,-1.65213,
2026_07_06_20_23_40.869,3.862,42.2,0,0.767,0,0,0,0, ,0,0,0,0,0, ,989.5,11.5,29.7,-0.1,-0.5,-1.6,25,990.379,12.0538,29.966,-0.0958567,-0.493331,-1.652,
2026_07_06_20_23_40.882,3.862,42.2,0,0.769,0,0,0,0, ,0,0,0,0,0, ,990.9,11.2,29.7,-0.1,-0.5,-1.6,25,990.369,12.0109,29.9498,-0.0961092,-0.493737,-1.64883,
2026_07_06_20_23_40.909,3.862,42.2,0,0.769,0,0,0,0, ,0,0,0,0,0, ,990.6,12.8,30,-0.1,-0.5,-1.6,25,990.392,12.0102,29.9437,-0.0963463,-0.494119,-1.64586,
2026_07_06_20_23_40.921,3.862,42.2,0,0.769,0,0,0,0, ,0,0,0,0,0, ,989.6,12.3,30.5,-0.1,-0.5,-1.5,25,990.374,12.0431,29.9624,-0.0965689,-0.494477,-1.64002,
2026_07_06_20_23_40.947,3.862,42.2,0,0.769,0,0,0,0, ,0,0,0,0,0, ,991,11.8,30.7,-0.1,-0.6,-1.5,25,990.369,12.0435,30.0012,-0.096778,-0.497861,-1.63149,
2026_07_06_20_23_40.960,3.862,42.2,0,0.768,0,0,0,0, ,0,0,0,0,0, ,989.8,11.4,29.7,-0.1,-0.5,-1.6,25,990.371,12.0165,30.0134,-0.0969743,-0.501038,-1.62652,
2026_07_06_20_23_40.987,3.862,42,0,0.77,0,0,0,0, ,0,0,0,0,0, ,990.6,13,31,-0.1,-0.5,-1.6,25,990.361,12.0277,30.0339,-0.0971587,-0.500975,-1.6249,
2026_07_06_20_23_41.000,3.862,42,0,0.77,0,0,0,0, ,0,0,0,0,0, ,990.8,12.9,30.8,-0.1,-0.5,-1.7,25,990.382,12.0839,30.0867,-0.0973319,-0.500915,-1.62643,
2026_07_06_20_23_41.026,3.862,42,0,0.768,0,0,0,0, ,0,0,0,0,0, ,990.4,12.5,30.8,-0.1,-0.5,-1.5,25,990.395,12.1214,30.1301,-0.0974944,-0.500859,-1.62482,
2026_07_06_20_23_41.039,3.862,42.2,0,0.768,0,0,0,0, ,0,0,0,0,0, ,990.7,13,31.1,-0.1,-0.5,-1.5,25,990.404,12.1597,30.1801,-0.0976471,-0.500807,-1.61722,
2026_07_06_20_23_41.068,3.862,42,0,0.767,0,0,0,0, ,0,0,0,0,0, ,990.2,10.6,29,-0.1,-0.5,-1.6,25,990.407,12.1378,30.1722,-0.0977905,-0.500758,-1.61312,
2026_07_06_20_23_41.079,3.862,42,0,0.768,0,0,0,0, ,0,0,0,0,0, ,990.4,14,33,0,-0.6,-1.6,25,990.401,12.1477,30.2226,-0.0948783,-0.503759,-1.61232,
2026_07_06_20_23_41.107,3.862,42.2,0,0.769,0,0,0,0, ,0,0,0,0,0, ,989.8,13.7,29.5,0,-0.7,-1.4,25,990.382,12.2514,30.2852,-0.0890966,-0.51267,-1.60548,
2026_07_06_20_23_41.119,3.862,42.2,0,0.768,0,0,0,0, ,0,0,0,0,0, ,990.1,12.5,29.6,-0.1,-0.7,-1.3,25,990.356,12.3031,30.2404,-0.0867142,-0.524086,-1.58991,
2026_07_06_20_23_41.146,3.862,42,0,0.768,0,0,0,0, ,0,0,0,0,0, ,991.6,10,28.3,-0.1,-0.6,-1.5,25,990.386,12.239,30.1618,-0.0875238,-0.531758,-1.57834,
2026_07_06_20_23_41.158,3.862,42,0,0.768,0,0,0,0, ,0,0,0,0,0, ,990.6,12.2,30,-0.1,-0.5,-1.7,25,990.43,12.1696,30.1001,-0.0882841,-0.53287,-1.57966,
2026_07_06_20_23_41.186,3.862,42,0,0.77,0,0,0,0, ,0,0,0,0,0, ,991.3,11.2,28.4,0,-0.5,-1.7,25,990.461,12.1409,30.0453,-0.0859511,-0.530867,-1.58699,
2026_07_06_20_23_41.204,3.862,42,0,0.768,0,0,0,0, ,0,0,0,0,0, ,990.6,12.9,29.6,-0.1,-0.5,-1.6,25,990.491,12.1354,29.9816,-0.0837603,-0.528986,-1.59083,
2026_07_06_20_23_41.230,3.862,42,0,0.77,0,0,0,0, ,0,0,0,0,0, ,989.6,10.6,28.8,-0.1,-0.5,-1.6,25,990.467,12.1119,29.9339,-0.08475,-0.52722,-1.59139,
2026_07_06_20_23_41.237,3.862,42,0,0.768,0,0,0,0, ,0,0,0,0,0, ,990.3,12,29.5,-0.1,-0.4,-1.8,25,990.436,12.0624,29.8862,-0.0856793,-0.522514,-1.59801,
2026_07_06_20_23_41.265,3.862,42,0,0.769,0,0,0,0, ,0,0,0,0,0, ,989.6,13.3,30.6,-0.1,-0.5,-1.6,25,990.406,12.0982,29.8962,-0.0865519,-0.518095,-1.60422,
2026_07_06_20_23_41.277,3.862,42.2,0,0.769,0,0,0,0, ,0,0,0,0,0, ,991.5,11.7,28.9,-0.1,-0.5,-1.6,25,990.415,12.1227,29.8873,-0.0873714,-0.516993,-1.60396,
2026_07_06_20_23_41.305,3.862,42,0,0.769,0,0,0,0, ,0,0,0,0,0, ,990.6,12.5,29.2,-0.1,-0.5,-1.8,25,990.454,12.1213,29.8362,-0.088141,-0.515957,-1.60982,
2026_07_06_20_23_41.316,3.862,42,0,0.769,0,0,0,0, ,0,0,0,0,0, ,990.2,11.5,30.1,0,-0.4,-1.8,25,990.45,12.1139,29.8249,-0.0858168,-0.511938,-1.62141,
2026_07_06_20_23_41.344,3.862,42,0,0.77,0,0,0,0, ,0,0,0,0,0, ,991.4,14.2,30.1,0,-0.3,-1.8,25,990.472,12.1588,29.8416,-0.0805873,-0.50207,-1.63229,
2026_07_06_20_23_41.356,3.862,42,0,0.769,0,0,0,0, ,0,0,0,0,0, ,989.2,13.4,31.8,0,-0.5,-1.5,25,990.461,12.2588,29.9092,-0.0756765,-0.49585,-1.63337,
2026_07_06_20_23_41.383,3.862,42,0,0.769,0,0,0,0, ,0,0,0,0,0, ,989.6,10.4,28.9,-0.1,-0.6,-1.6,25,990.396,12.2369,29.936,-0.0741118,-0.49915,-1.62829,
2026_07_06_20_23_41.396,3.862,42,0,0.768,0,0,0,0, ,0,0,0,0,0, ,989.8,12.9,32.1,-0.1,-0.5,-1.6,25,990.354,12.2012,29.9704,-0.0756894,-0.502248,-1.62656,
2026_07_06_20_23_41.424,3.862,42,0,0.77,0,0,0,0, ,0,0,0,0,0, ,989.7,12.4,30.6,-0.1,-0.6,-1.6,25,990.317,12.2285,30.0545,-0.0771708,-0.505158,-1.62495,
2026_07_06_20_23_41.436,3.862,42,0,0.767,0,0,0,0, ,0,0,0,0,0, ,989.9,12.8,29.5,-0.1,-0.6,-1.5,25,990.286,12.2512,30.0542,-0.078562,-0.510938,-1.62038,
2026_07_06_20_23_41.463,3.862,42.2,0,0.769,0,0,0,0, ,0,0,0,0,0, ,990.3,12.5,30.3,0,-0.7,-1.4,25,990.274,12.2755,30.0448,-0.0768215,-0.519412,-1.61,
2026_07_06_20_23_41.475,3.862,42,0,0.769,0,0,0,0, ,0,0,0,0,0, ,989.6,11.1,30.1,-0.1,-0.4,-1.6,25,990.255,12.2465,30.0543,-0.0751871,-0.521276,-1.60329,
2026_07_06_20_23_41.502,3.862,42.2,0,0.769,0,0,0,0, ,0,0,0,0,0, ,990.1,11.1,30.1,-0.1,-0.5,-1.6,25,990.23,12.1766,30.0571,-0.0766991,-0.516932,-1.60309,
2026_07_06_20_23_41.514,3.862,42.2,0,0.769,0,0,0,0, ,0,0,0,0,0, ,989.1,12.6,30,-0.1,-0.6,-1.5,25,990.192,12.1567,30.0566,-0.078119,-0.518947,-1.59986,
2026_07_06_20_23_41.541,3.862,42,0,0.767,0,0,0,0, ,0,0,0,0,0, ,990.4,11.9,28.6,-0.1,-0.5,-1.6,25,990.165,12.1624,30.0105,-0.0794524,-0.52084,-1.59682,
2026_07_06_20_23_41.553,3.862,42,0,0.767,0,0,0,0, ,0,0,0,0,0, ,990.7,13.5,29.6,-0.1,-0.5,-1.6,25,990.188,12.1952,29.955,-0.0807045,-0.51957,-1.59701,
2026_07_06_20_23_41.582,3.862,42,0,0.767,0,0,0,0, ,0,0,0,0,0, ,991,11.1,30.7,-0.1,-0.5,-1.6,25,990.228,12.2016,29.9669,-0.0818803,-0.518377,-1.59719,
2026_07_06_20_23_41.594,3.862,42,0,0.768,0,0,0,0, ,0,0,0,0,0, ,989.6,12.5,29.4,-0.1,-0.4,-1.6,25,990.233,12.1771,29.972,-0.0829845,-0.514211,-1.59737,
2026_07_06_20_23_41.628,3.862,42.2,0,0.768,0,0,0,0, ,0,0,0,0,0, ,989.1,13.1,28.8,-0.1,-0.5,-1.6,25,990.179,12.215,29.9188,-0.0840214,-0.510298,-1.59753,
2026_07_06_20_23_41.633,3.862,42,0,0.769,0,0,0,0, ,0,0,0,0,0, ,990.8,13.7,30.7,-0.1,-0.6,-1.5,25,990.165,12.2873,29.9086,-0.0849951,-0.512717,-1.59463,
2026_07_06_20_23_41.661,3.862,42.2,0,0.768,0,0,0,0, ,0,0,0,0,0, ,990.7,12.6,29.2,0,-0.6,-1.4,25,990.201,12.3398,29.9111,-0.0828625,-0.518036,-1.58582,
2026_07_06_20_23_41.672,3.862,42.2,0,0.768,0,0,0,0, ,0,0,0,0,0, ,989.8,10.8,27.5,0,-0.5,-1.6,25,990.204,12.3008,29.816,-0.0778131,-0.519984,-1.58059,
2026_07_06_20_23_41.700,3.862,41.9,0,0.768,0,0,0,0, ,0,0,0,0,0, ,991,10.9,30,-0.1,-0.4,-1.6,25,990.216,12.2124,29.751,-0.0761182,-0.515719,-1.58177,
2026_07_06_20_23_41.712,3.862,42.2,0,0.769,0,0,0,0, ,0,0,0,0,0, ,991.9,11.9,31.1,-0.1,-0.5,-1.6,25,990.291,12.1629,29.7997,-0.0775735,-0.511714,-1.58288,
2026_07_06_20_23_41.741,3.862,42,0,0.77,0,0,0,0, ,0,0,0,0,0, ,991.3,11.9,28.3,-0.1,-0.5,-1.6,25,990.371,12.1469,29.7936,-0.0789402,-0.511,-1.58392,
2026_07_06_20_23_41.751,3.862,42,0,0.769,0,0,0,0, ,0,0,0,0,0, ,989.9,11.8,28.4,-0.1,-0.4,-1.7,25,990.385,12.1288,29.7056,-0.0802235,-0.507283,-1.58795,
2026_07_06_20_23_41.779,3.862,42,0,0.767,0,0,0,0, ,0,0,0,0,0, ,990.4,12.2,31.4,-0.1,-0.3,-1.8,25,990.37,12.121,29.7175,-0.0814286,-0.497699,-1.59783,
2026_07_06_20_23_41.791,3.862,42,0,0.768,0,0,0,0, ,0,0,0,0,0, ,990.7,14.5,31.9,-0.1,-0.5,-1.6,25,990.381,12.1959,29.8352,-0.0825603,-0.491745,-1.60405,
2026_07_06_20_23_41.819,3.862,42.2,0,0.767,0,0,0,0, ,0,0,0,0,0, ,989.9,12.9,29.7,-0.1,-0.7,-1.4,25,990.376,12.2875,29.894,-0.083623,-0.498342,-1.59771,
2026_07_06_20_23_41.831,3.862,42,0,0.769,0,0,0,0, ,0,0,0,0,0, ,990.6,12.4,30,-0.1,-0.7,-1.5,25,990.369,12.3096,29.8914,-0.084621,-0.510631,-1.58871,
2026_07_06_20_23_41.858,3.862,42.2,0,0.77,0,0,0,0, ,0,0,0,0,0, ,990.6,11.8,29.7,-0.1,-0.5,-1.6,25,990.383,12.2968,29.8888,-0.0855582,-0.516077,-1.58635,
2026_07_06_20_23_41.870,3.862,42,0,0.769,0,0,0,0, ,0,0,0,0,0, ,989.3,12.5,29.7,-0.1,-0.4,-1.7,25,990.356,12.2879,29.8773,-0.0864382,-0.51205,-1.59023,
2026_07_06_20_23_41.899,3.862,42,0,0.769,0,0,0,0, ,0,0,0,0,0, ,989.8,10.9,29.6,-0.1,-0.4,-1.7,25,990.307,12.2521,29.8635,-0.0872646,-0.505222,-1.59692,
2026_07_06_20_23_41.910,3.862,42,0,0.77,0,0,0,0, ,0,0,0,0,0, ,991,14.8,31.9,-0.1,-0.4,-1.7,25,990.313,12.2885,29.9175,-0.0880407,-0.49881,-1.6032,
2026_07_06_20_23_41.937,3.862,42,0,0.768,0,0,0,0, ,0,0,0,0,0, ,990.6,11.1,29,-0.1,-0.6,-1.5,25,990.343,12.3288,29.9499,-0.0887695,-0.498882,-1.60301,
2026_07_06_20_23_41.949,3.862,42,0,0.769,0,0,0,0, ,0,0,0,0,0, ,990.1,14.2,29.9,-0.1,-0.5,-1.7,25,990.343,12.3484,29.9195,-0.0894538,-0.501997,-1.60282,
2026_07_06_20_23_41.979,3.862,42,0,0.769,0,0,0,0, ,0,0,0,0,0, ,991.2,12.2,31.1,-0.1,-0.6,-1.5,25,990.362,12.4003,29.9549,-0.0900965,-0.504923,-1.60265,
2026_07_06_20_23_41.989,3.862,42,0,0.769,0,0,0,0, ,0,0,0,0,0, ,989.9,10.8,30.2,-0.1,-0.4,-1.7,25,990.373,12.3454,29.9972,-0.0907,-0.504623,-1.60249,
2026_07_06_20_23_42.017,3.862,42,0,0.769,0,0,0,0, ,0,0,0,0,0, ,990.8,13.1,30.8,0,-0.5,-1.6,25,990.372,12.3213,30.0279,-0.0882198,-0.501294,-1.60538,
2026_07_06_20_23_42.038,3.862,42,0,0.768,0,0,0,0, ,0,0,0,0,0, ,990.3,12.2,31.6,-0.1,-0.8,-1.4,25,990.383,12.3413,30.0993,-0.0858908,-0.510356,-1.59896,
2026_07_06_20_23_42.066,3.862,42,0,0.768,0,0,0,0, ,0,0,0,0,0, ,989.3,12,31.7,-0.1,-0.7,-1.4,25,990.347,12.3266,30.1938,-0.0867506,-0.524959,-1.58684,
2026_07_06_20_23_42.071,3.862,41.9,0,0.769,0,0,0,0, ,0,0,0,0,0, ,990.8,11.2,30.5,-0.1,-0.5,-1.5,25,990.329,12.2824,30.249,-0.087558,-0.529532,-1.5785,
2026_07_06_20_23_42.099,3.862,41.9,0,0.769,0,0,0,0, ,0,0,0,0,0, ,990.2,12.4,29.4,-0.1,-0.3,-1.7,25,990.339,12.253,30.2308,-0.0883162,-0.521639,-1.57981,
2026_07_06_20_23_42.108,3.862,41.9,0,0.77,0,0,0,0, ,0,0,0,0,0, ,989.9,12.5,30.1,0,-0.4,-1.7,25,990.322,12.265,30.2015,-0.0859813,-0.511179,-1.58713,
2026_07_06_20_23_42.139,3.862,42,0,0.768,0,0,0,0, ,0,0,0,0,0, ,989.6,13.4,31.3,-0.1,-0.4,-1.7,25,990.287,12.3067,30.2319,-0.0837887,-0.504404,-1.59401,
2026_07_06_20_23_42.147,3.862,42,0,0.767,0,0,0,0, ,0,0,0,0,0, ,990.2,12.4,29.6,-0.1,-0.5,-1.6,25,990.263,12.3429,30.2452,-0.0847765,-0.501089,-1.59742,
2026_07_06_20_23_42.175,3.862,42,0,0.768,0,0,0,0, ,0,0,0,0,0, ,989.7,11.2,30.5,-0.1,-0.5,-1.6,25,990.244,12.3098,30.2333,-0.0857042,-0.501023,-1.59758,
2026_07_06_20_23_42.187,3.862,42,0,0.77,0,0,0,0, ,0,0,0,0,0, ,989.7,12.9,31,0,-0.4,-1.7,25,990.211,12.294,30.2648,-0.0835285,-0.497914,-1.60077,
2026_07_06_20_23_42.216,3.862,42,0,0.769,0,0,0,0, ,0,0,0,0,0, ,989.9,13.9,30.5,-0.1,-0.6,-1.6,25,990.186,12.3614,30.2943,-0.0814854,-0.498041,-1.60377,
2026_07_06_20_23_42.226,3.862,41.9,0,0.769,0,0,0,0, ,0,0,0,0,0, ,989.2,11.5,28.8,0,-0.6,-1.4,25,990.147,12.382,30.2551,-0.0795667,-0.504254,-1.59745,
2026_07_06_20_23_42.255,3.862,41.9,0,0.769,0,0,0,0, ,0,0,0,0,0, ,990.9,12.2,31.1,-0.1,-0.5,-1.7,25,990.141,12.3496,30.2365,-0.077765,-0.507042,-1.59456,
2026_07_06_20_23_42.267,3.862,41.9,0,0.768,0,0,0,0, ,0,0,0,0,0, ,990.8,10.8,30.1,-0.1,-0.5,-1.7,25,990.185,12.2978,30.2586,-0.0791199,-0.506612,-1.60098,
2026_07_06_20_23_42.296,3.862,41.9,0,0.768,0,0,0,0, ,0,0,0,0,0, ,991.2,12,30,-0.1,-0.4,-1.8,25,990.234,12.2431,30.2459,-0.0803923,-0.503163,-1.61006,
2026_07_06_20_23_42.306,3.862,42,0,0.768,0,0,0,0, ,0,0,0,0,0, ,989.7,12.9,31.4,-0.1,-0.5,-1.6,25,990.247,12.2557,30.2736,-0.0815872,-0.499923,-1.61555,
2026_07_06_20_23_42.335,3.862,42,0,0.769,0,0,0,0, ,0,0,0,0,0, ,990.2,13.5,30.7,-0.1,-0.6,-1.5,25,990.229,12.3132,30.3209,-0.0827092,-0.502975,-1.61155,
2026_07_06_20_23_42.346,3.862,42.2,0,0.769,0,0,0,0, ,0,0,0,0,0, ,990.9,11.5,30.1,0,-0.6,-1.5,25,990.249,12.3246,30.3257,-0.080716,-0.508887,-1.60475,
2026_07_06_20_23_42.374,3.862,41.9,0,0.769,0,0,0,0, ,0,0,0,0,0, ,989.6,11.5,31.1,-0.1,-0.5,-1.6,25,990.249,12.2744,30.3424,-0.0788442,-0.511392,-1.60142,
2026_07_06_20_23_42.384,3.862,41.9,0,0.769,0,0,0,0, ,0,0,0,0,0, ,989.6,12.6,29.6,-0.1,-0.5,-1.7,25,990.209,12.2607,30.3429,-0.0801334,-0.510698,-1.60438,
2026_07_06_20_23_42.414,3.862,41.9,0,0.77,0,0,0,0, ,0,0,0,0,0, ,990.1,11.8,30.2,-0.1,-0.5,-1.6,25,990.187,12.257,30.3159,-0.081344,-0.510046,-1.60716,
2026_07_06_20_23_42.424,3.862,41.9,0,0.768,0,0,0,0, ,0,0,0,0,0, ,990.3,11.1,28.4,-0.1,-0.5,-1.7,25,990.188,12.2078,30.254,-0.0824809,-0.509434,-1.60977,
2026_07_06_20_23_42.453,3.862,42,0,0.768,0,0,0,0, ,0,0,0,0,0, ,990.3,13.1,31.6,-0.1,-0.5,-1.7,25,990.195,12.2013,30.2385,-0.0835484,-0.508859,-1.61527,
2026_07_06_20_23_42.464,3.862,41.9,0,0.768,0,0,0,0, ,0,0,0,0,0, ,990.7,12.2,30.2,-0.1,-0.5,-1.5,25,990.214,12.2286,30.2788,-0.084551,-0.508319,-1.61434,
2026_07_06_20_23_42.493,3.862,41.9,0,0.767,0,0,0,0, ,0,0,0,0,0, ,990.7,11.8,29.2,-0.1,-0.5,-1.6,25,990.243,12.2147,30.2436,-0.0854924,-0.507812,-1.61042,
2026_07_06_20_23_42.509,3.862,41.9,0,0.769,0,0,0,0, ,0,0,0,0,0, ,990.7,11.7,28.9,-0.1,-0.5,-1.7,25,990.271,12.1864,30.1708,-0.0863764,-0.507336,-1.61283,
2026_07_06_20_23_42.539,3.862,41.9,0,0.769,0,0,0,0, ,0,0,0,0,0, ,991.2,12,31.1,-0.1,-0.4,-1.8,25,990.312,12.1659,30.1604,-0.0872066,-0.503842,-1.62119,
2026_07_06_20_23_42.543,3.862,41.9,0,0.769,0,0,0,0, ,0,0,0,0,0, ,991.6,13.9,30.2,-0.1,-0.6,-1.5,25,990.379,12.2136,30.1902,-0.0879862,-0.503608,-1.62294,
2026_07_06_20_23_42.573,3.862,41.9,0,0.768,0,0,0,0, ,0,0,0,0,0, ,990.2,13.1,29.6,-0.1,-0.6,-1.4,25,990.41,12.292,30.1726,-0.0887183,-0.509482,-1.6124,
2026_07_06_20_23_42.582,3.862,42,0,0.769,0,0,0,0, ,0,0,0,0,0, ,991.2,12,30.8,-0.1,-0.7,-1.5,25,990.428,12.3077,30.1742,-0.0894058,-0.518045,-1.60251,
2026_07_06_20_23_42.612,3.862,41.9,0,0.77,0,0,0,0, ,0,0,0,0,0, ,989.5,10.7,29.2,-0.1,-0.6,-1.5,25,990.423,12.2494,30.1636,-0.0900514,-0.526086,-1.59626,
2026_07_06_20_23_42.622,3.862,41.9,0,0.769,0,0,0,0, ,0,0,0,0,0, ,990.3,12.9,31.1,-0.1,-0.5,-1.5,25,990.391,12.222,30.1628,-0.0906576,-0.527543,-1.5904,
2026_07_06_20_23_42.651,3.862,41.9,0,0.769,0,0,0,0, ,0,0,0,0,0, ,990.7,12,31,-0.1,-0.5,-1.4,25,990.398,12.2359,30.2168,-0.0912269,-0.525865,-1.58184,
2026_07_06_20_23_42.662,3.862,41.9,0,0.769,0,0,0,0, ,0,0,0,0,0, ,990.7,10.7,29.4,-0.1,-0.6,-1.4,25,990.416,12.1819,30.2158,-0.0917615,-0.527336,-1.57076,
2026_07_06_20_23_42.692,3.862,41.9,0,0.769,0,0,0,0, ,0,0,0,0,0, ,990.6,10.7,30.1,-0.1,-0.4,-1.7,25,990.431,12.0916,30.1874,-0.0922636,-0.52567,-1.56949,
2026_07_06_20_23_42.701,3.862,41.9,0,0.768,0,0,0,0, ,0,0,0,0,0, ,990.9,13.6,31.1,-0.1,-0.4,-1.7,25,990.45,12.0952,30.2126,-0.092735,-0.518012,-1.57745,
2026_07_06_20_23_42.733,3.862,41.9,0,0.769,0,0,0,0, ,0,0,0,0,0, ,988.7,14,30.5,-0.1,-0.6,-1.5,25,990.411,12.1991,30.2484,-0.0931777,-0.516914,-1.57882,
2026_07_06_20_23_42.741,3.862,41.9,0,0.769,0,0,0,0, ,0,0,0,0,0, ,989.9,11.4,29.2,-0.1,-0.7,-1.5,25,990.343,12.2296,30.2241,-0.0935934,-0.525024,-1.57402,
2026_07_06_20_23_42.770,3.862,41.9,0,0.768,0,0,0,0, ,0,0,0,0,0, ,991.9,11.8,28.6,0,-0.6,-1.6,25,990.377,12.1912,30.1434,-0.090937,-0.53264,-1.57255,
2026_07_06_20_23_42.780,3.862,41.9,0,0.77,0,0,0,0, ,0,0,0,0,0, ,991.3,12,29.2,0,-0.4,-1.7,25,990.451,12.1735,30.0676,-0.0853955,-0.530651,-1.57727,
2026_07_06_20_23_42.809,3.862,41.9,0,0.769,0,0,0,0, ,0,0,0,0,0, ,989.9,13,30.3,-0.1,-0.5,-1.7,25,990.46,12.1934,30.0483,-0.0832386,-0.525736,-1.58475,
2026_07_06_20_23_42.819,3.862,41.9,0,0.77,0,0,0,0, ,0,0,0,0,0, ,991.6,12.5,28.8,-0.1,-0.7,-1.5,25,990.478,12.2273,30.0179,-0.08426,-0.530262,-1.58568,
2026_07_06_20_23_42.850,3.862,41.9,0,0.769,0,0,0,0, ,0,0,0,0,0, ,990.2,12.3,29.5,-0.1,-0.6,-1.6,25,990.504,12.2378,29.965,-0.0852191,-0.537558,-1.58351,
2026_07_06_20_23_42.859,3.862,41.9,0,0.768,0,0,0,0, ,0,0,0,0,0, ,990.1,11.7,29.6,-0.1,-0.4,-1.7,25,990.482,12.2233,29.9397,-0.0861199,-0.535269,-1.58756,
2026_07_06_20_23_42.890,3.862,41.9,0,0.769,0,0,0,0, ,0,0,0,0,0, ,990.8,11.8,29.5,-0.1,-0.4,-1.8,25,990.48,12.1945,29.916,-0.0869657,-0.527026,-1.59746,
2026_07_06_20_23_42.899,3.862,41.8,0,0.768,0,0,0,0, ,0,0,0,0,0, ,989.7,13.5,30,-0.1,-0.4,-1.6,25,990.466,12.2222,29.9059,-0.08776,-0.519286,-1.60371,
2026_07_06_20_23_42.929,3.862,41.9,0,0.768,0,0,0,0, ,0,0,0,0,0, ,990.3,13.4,30,-0.1,-0.5,-1.5,25,990.438,12.2971,29.9116,-0.0885058,-0.515064,-1.60043,
2026_07_06_20_23_42.938,3.862,41.9,0,0.768,0,0,0,0, ,0,0,0,0,0, ,989.1,11.2,30.2,-0.1,-0.6,-1.6,25,990.393,12.2972,29.9231,-0.0892063,-0.517193,-1.59736,
2026_07_06_20_23_42.968,3.862,41.9,0,0.768,0,0,0,0, ,0,0,0,0,0, ,990.8,12.2,29.6,-0.1,-0.5,-1.7,25,990.366,12.2608,29.9217,-0.089864,-0.519192,-1.60057,
2026_07_06_20_23_42.977,3.862,41.9,0,0.77,0,0,0,0, ,0,0,0,0,0, ,989.7,13,30.2,-0.1,-0.5,-1.6,25,990.359,12.2815,29.9204,-0.0904817,-0.518022,-1.60358,
2026_07_06_20_23_43.008,3.862,41.9,0,0.769,0,0,0,0, ,0,0,0,0,0, ,990.4,12.3,29.1,-0.1,-0.7,-1.5,25,990.34,12.304,29.9039,-0.0910617,-0.523018,-1.60032,
2026_07_06_20_23_43.017,3.862,41.8,0,0.769,0,0,0,0, ,0,0,0,0,0, ,991.8,11.7,28.5,-0.1,-0.7,-1.5,25,990.386,12.2854,29.8366,-0.0916064,-0.533803,-1.5942,
2026_07_06_20_23_43.047,3.862,41.8,0,0.769,0,0,0,0, ,0,0,0,0,0, ,989.7,11.8,28.6,-0.1,-0.6,-1.5,25,990.408,12.2528,29.7582,-0.0921179,-0.540883,-1.58846,
2026_07_06_20_23_43.062,3.862,41.9,0,0.769,0,0,0,0, ,0,0,0,0,0, ,990.2,8.7,28.6,-0.1,-0.5,-1.8,25,990.381,12.1308,29.6876,-0.0925982,-0.541439,-1.59221,
2026_07_06_20_23_43.092,3.862,41.8,0,0.769,0,0,0,0, ,0,0,0,0,0, ,990.1,12.5,30,-0.1,-0.3,-1.8,25,990.366,12.0375,29.664,-0.0930492,-0.53282,-1.60487,
2026_07_06_20_23_43.097,3.862,41.9,0,0.769,0,0,0,0, ,0,0,0,0,0, ,990.2,14,29.6,-0.1,-0.3,-1.6,25,990.353,12.1114,29.6723,-0.0934728,-0.518633,-1.61067,
2026_07_06_20_23_43.127,3.862,41.8,0,0.769,0,0,0,0, ,0,0,0,0,0, ,991.5,12.2,30.3,0,-0.5,-1.7,25,990.384,12.1716,29.6892,-0.0908237,-0.511403,-1.61307,
2026_07_06_20_23_43.136,3.862,41.8,0,0.768,0,0,0,0, ,0,0,0,0,0, ,992,12.3,30.1,-0.1,-0.5,-1.6,25,990.467,12.1764,29.7203,-0.088336,-0.510709,-1.61532,
2026_07_06_20_23_43.166,3.862,41.9,0,0.769,0,0,0,0, ,0,0,0,0,0, ,990.3,11.2,29.5,-0.1,-0.5,-1.6,25,990.508,12.1504,29.7252,-0.0890467,-0.510056,-1.61438,
2026_07_06_20_23_43.175,3.862,41.9,0,0.768,0,0,0,0, ,0,0,0,0,0, ,989.7,12.8,29.2,0,-0.6,-1.6,25,990.477,12.1412,29.7023,-0.0866673,-0.51249,-1.61351,
2026_07_06_20_23_43.206,3.862,41.8,0,0.768,0,0,0,0, ,0,0,0,0,0, ,989.6,12.5,30.2,0,-0.6,-1.5,25,990.427,12.1722,29.7022,-0.081386,-0.517823,-1.60964,
2026_07_06_20_23_43.215,3.862,41.7,0,0.768,0,0,0,0, ,0,0,0,0,0, ,990.1,13,31,-0.1,-0.5,-1.6,25,990.392,12.2075,29.7569,-0.0794735,-0.519784,-1.606,
2026_07_06_20_23_43.245,3.862,41.8,0,0.768,0,0,0,0, ,0,0,0,0,0, ,990.6,11.1,29.1,-0.1,-0.6,-1.5,25,990.389,12.1979,29.7748,-0.0807243,-0.521625,-1.60259,
2026_07_06_20_23_43.254,3.862,41.9,0,0.768,0,0,0,0, ,0,0,0,0,0, ,991.2,12,30,-0.1,-0.6,-1.6,25,990.42,12.1584,29.7611,-0.0818989,-0.526401,-1.59939,
2026_07_06_20_23_43.286,3.862,41.9,0,0.769,0,0,0,0, ,0,0,0,0,0, ,989.8,12.4,28.4,0,-0.5,-1.7,25,990.425,12.1609,29.7269,-0.0799551,-0.527839,-1.60247,
2026_07_06_20_23_43.294,3.862,41.7,0,0.769,0,0,0,0, ,0,0,0,0,0, ,990.9,12,29.5,0,-0.5,-1.7,25,990.421,12.1633,29.6795,-0.0750828,-0.526142,-1.60841,
2026_07_06_20_23_43.324,3.862,41.8,0,0.769,0,0,0,0, ,0,0,0,0,0, ,989.5,13.1,31,-0.1,-0.6,-1.5,25,990.407,12.1869,29.7143,-0.0735543,-0.527596,-1.6079,
2026_07_06_20_23_43.333,3.862,41.9,0,0.768,0,0,0,0, ,0,0,0,0,0, ,990.2,13.1,30.5,-0.1,-0.9,-1.2,25,990.373,12.2425,29.7774,-0.0751659,-0.541149,-1.59219,
2026_07_06_20_23_43.364,3.862,41.8,0,0.769,0,0,0,0, ,0,0,0,0,0, ,989.9,10.6,28.3,-0.1,-0.9,-1.4,25,990.354,12.2186,29.7544,-0.0766792,-0.563016,-1.57438,
2026_07_06_20_23_43.373,3.862,41.9,0,0.768,0,0,0,0, ,0,0,0,0,0, ,991.2,11.3,28.3,-0.1,-0.7,-1.5,25,990.366,12.1413,29.6658,-0.0781003,-0.577458,-1.5668,
2026_07_06_20_23_43.404,3.862,41.8,0,0.769,0,0,0,0, ,0,0,0,0,0, ,989.9,9.8,28.4,-0.1,-0.5,-1.6,25,990.377,12.0443,29.5856,-0.0794348,-0.578831,-1.56578,
2026_07_06_20_23_43.413,3.862,41.8,0,0.769,0,0,0,0, ,0,0,0,0,0, ,990.9,11.3,30.2,-0.1,-0.4,-1.8,25,990.378,11.9533,29.5682,-0.080688,-0.570981,-1.57396,
2026_07_06_20_23_43.445,3.862,41.8,0,0.769,0,0,0,0, ,0,0,0,0,0, ,991.3,11.4,30.5,-0.1,-0.5,-1.8,25,990.422,11.9165,29.6158,-0.0818648,-0.563608,-1.58773,
2026_07_06_20_23_43.453,3.862,41.9,0,0.769,0,0,0,0, ,0,0,0,0,0, ,990.6,10.7,28.1,-0.1,-0.3,-1.7,25,990.454,11.8637,29.5966,-0.0829699,-0.553639,-1.59762,
2026_07_06_20_23_43.483,3.862,41.8,0,0.769,0,0,0,0, ,0,0,0,0,0, ,991.5,13.1,30,0,-0.3,-1.8,25,990.491,11.8659,29.5633,-0.0809608,-0.538182,-1.6069,
2026_07_06_20_23_43.492,3.862,41.8,0,0.769,0,0,0,0, ,0,0,0,0,0, ,989.6,13.7,31.9,-0.1,-0.5,-1.6,25,990.494,11.9594,29.6478,-0.0790742,-0.529762,-1.61258,
2026_07_06_20_23_43.521,3.862,41.8,0,0.768,0,0,0,0, ,0,0,0,0,0, ,990.3,14.5,31.2,0,-0.7,-1.5,25,990.461,12.0898,29.7637,-0.0773025,-0.534042,-1.60876,
2026_07_06_20_23_43.532,3.862,41.7,0,0.768,0,0,0,0, ,0,0,0,0,0, ,989.7,10.7,27.9,0,-0.8,-1.4,25,990.433,12.1209,29.7507,-0.0725918,-0.547202,-1.59909,
2026_07_06_20_23_43.562,3.862,41.8,0,0.769,0,0,0,0, ,0,0,0,0,0, ,990.2,14.4,31.2,-0.1,-1,-1.2,25,990.404,12.1471,29.7385,-0.0712151,-0.568701,-1.58086,
2026_07_06_20_23_43.571,3.862,41.8,0,0.767,0,0,0,0, ,0,0,0,0,0, ,988.8,11.9,31.2,-0.1,-0.9,-1.3,25,990.349,12.2082,29.8275,-0.0729692,-0.591936,-1.5607,
2026_07_06_20_23_43.602,3.862,41.8,0,0.769,0,0,0,0, ,0,0,0,0,0, ,990.9,10.3,27.3,-0.1,-0.7,-1.6,25,990.318,12.1407,29.7923,-0.0746164,-0.604615,-1.55396,
2026_07_06_20_23_43.611,3.862,41.8,0,0.769,0,0,0,0, ,0,0,0,0,0, ,990.6,10.9,28.4,-0.1,-0.5,-1.6,25,990.344,12.0468,29.674,-0.0761632,-0.604334,-1.55676,
2026_07_06_20_23_43.648,3.862,41.8,0,0.769,0,0,0,0, ,0,0,0,0,0, ,990.3,11.3,28.9,-0.1,-0.6,-1.6,25,990.351,11.9891,29.6116,-0.0776158,-0.601023,-1.5594,
2026_07_06_20_23_43.653,3.862,41.8,0,0.769,0,0,0,0, ,0,0,0,0,0, ,990.3,12.2,29.7,0,-0.5,-1.6,25,990.348,11.9745,29.5926,-0.0759329,-0.597914,-1.56187,
