UTC_Time,Vin,TC1,TC2,Rh1,Vh1,Ah1,Acp1,Dty1,Err1,Rh2,Vh2,Ah2,Acp2,Dty2,Err2,Accel_x,Accel_y,Accel_z,gyro_x,gyro_y,gyro_z,Temp_c,Accel_x_h,Accel_y_h,Accel_z_h,gyro_x_h,gyro_y_h,gyro_z_h,
2026_06_26_18_23_36.809,3.853,59.7,0,0.781,0,0,0,0, ,0,0,0,0,0, ,-35.4,178.4,986.2,-1.2,-1.4,-2.3,25,-35.4,178.4,986.2,-1.2,-1.4,-2.3,
2026_06_26_18_23_36.829,3.853,58.8,0,0.779,0,0,0,0, ,0,0,0,0,0, ,-35.2,175.2,981,-1.5,-1.9,-1.6,25,-35.3939,178.302,986.042,-1.20914,-1.41523,-2.27867,
2026_06_26_18_23_36.848,3.853,58.7,0,0.78,0,0,0,0, ,0,0,0,0,0, ,-37.5,176.2,979.2,-1.2,-1.1,-1.9,25,-35.4522,178.144,985.68,-1.21772,-1.4204,-2.24646,
2026_06_26_18_23_36.868,3.853,58.6,0,0.779,0,0,0,0, ,0,0,0,0,0, ,-36.7,177.7,984.7,-0.5,-0.3,-2.1,25,-35.5526,178.071,985.452,-1.19532,-1.3765,-2.23144,
2026_06_26_18_23_36.891,3.853,58.7,0,0.779,0,0,0,0, ,0,0,0,0,0, ,-35.1,179.6,991,-0.3,0,-1.7,25,-35.5738,178.106,985.598,-1.14685,-1.30176,-2.21124,
2026_06_26_18_23_36.908,3.853,58.6,0,0.779,0,0,0,0, ,0,0,0,0,0, ,-43.7,180,989.3,-0.9,-0.6,-1.7,25,-35.8069,178.21,985.876,-1.11353,-1.24072,-2.18009,
2026_06_26_18_23_36.928,3.853,58.6,0,0.778,0,0,0,0, ,0,0,0,0,0, ,-40.7,176.6,980.2,-1.1,-1.5,-2.1,25,-36.1965,178.215,985.807,-1.10661,-1.22909,-2.16302,
2026_06_26_18_23_36.947,3.853,58.6,0,0.779,0,0,0,0, ,0,0,0,0,0, ,-36.3,176.5,981,-1.1,-1.2,-2.4,25,-36.3369,178.114,985.49,-1.10621,-1.23646,-2.16832,
2026_06_26_18_23_36.967,3.853,58.5,0,0.78,0,0,0,0, ,0,0,0,0,0, ,-32.4,178.1,984.7,-1,-0.5,-2.2,25,-36.2158,178.064,985.329,-1.10278,-1.21291,-2.17634,
2026_06_26_18_23_36.987,3.853,58.5,0,0.779,0,0,0,0, ,0,0,0,0,0, ,-36.7,179.9,988,-0.2,0.4,-1.7,25,-36.1143,178.121,985.391,-1.07214,-1.14205,-2.16255,
2026_06_26_18_23_37.008,3.853,58.5,0,0.78,0,0,0,0, ,0,0,0,0,0, ,-45,183.8,989.8,-0.5,-0.4,-1.6,25,-36.4029,178.348,985.605,-1.02814,-1.07245,-2.13132,
2026_06_26_18_23_37.026,3.853,58.4,0,0.778,0,0,0,0, ,0,0,0,0,0, ,-40.6,179.9,982.5,-0.9,-1.9,-1.7,25,-36.7927,178.562,985.638,-1.00814,-1.07718,-2.10199,
2026_06_26_18_23_37.046,3.853,58.5,0,0.778,0,0,0,0, ,0,0,0,0,0, ,-37.4,178.7,980.1,-0.6,-0.3,-1.7,25,-36.9272,178.607,985.374,-0.992411,-1.07857,-2.07749,
2026_06_26_18_23_37.067,3.853,58.4,0,0.778,0,0,0,0, ,0,0,0,0,0, ,-42.3,179,979.8,-0.9,0.4,-1.9,25,-37.1053,178.622,985.043,-0.97764,-1.0098,-2.06058,
2026_06_26_18_23_37.085,3.853,58.4,0,0.779,0,0,0,0, ,0,0,0,0,0, ,-47.8,177.9,984,-0.7,0,-1.9,25,-37.5894,178.611,984.852,-0.966815,-0.936075,-2.0508,
2026_06_26_18_23_37.105,3.853,58.3,0,0.779,0,0,0,0, ,0,0,0,0,0, ,-40.5,176.8,989.7,-1,-1.5,-2,25,-37.9892,178.534,984.974,-0.959696,-0.924736,-2.04465,
2026_06_26_18_23_37.125,3.853,58.3,0,0.778,0,0,0,0, ,0,0,0,0,0, ,-40.6,178.2,984.3,-0.8,-0.5,-2.4,25,-38.1453,178.471,985.097,-0.956058,-0.929323,-2.05412,
2026_06_26_18_23_37.145,3.853,58.3,0,0.778,0,0,0,0, ,0,0,0,0,0, ,-35.6,176.7,982,-1.2,-1,-2.3,25,-38.1425,178.409,984.978,-0.958736,-0.918395,-2.07215,
2026_06_26_18_23_37.165,3.853,58.2,0,0.778,0,0,0,0, ,0,0,0,0,0, ,-33.5,176.1,979,-0.8,-0.8,-1.9,25,-37.9236,178.287,984.705,-0.961251,-0.917274,-2.07385,
2026_06_26_18_23_37.185,3.853,58.3,0,0.779,0,0,0,0, ,0,0,0,0,0, ,-39.1,180,988.6,-0.7,-0.5,-1.8,25,-37.8247,178.272,984.65,-0.948378,-0.900987,-2.06021,
2026_06_26_18_23_37.205,3.853,58.2,0,0.778,0,0,0,0, ,0,0,0,0,0, ,-39.9,179.6,988,-1,-0.8,-1.8,25,-37.9267,178.365,984.873,-0.942383,-0.885693,-2.04435,
2026_06_26_18_23_37.224,3.853,58.2,0,0.778,0,0,0,0, ,0,0,0,0,0, ,-38.8,177.9,984.4,-0.9,-0.7,-2,25,-38.0135,178.389,984.954,-0.942847,-0.877424,-2.03555,
2026_06_26_18_23_37.245,3.853,58.2,0,0.779,0,0,0,0, ,0,0,0,0,0, ,-36.8,176.1,985.1,-0.9,-1.2,-1.8,25,-38.0005,178.304,984.941,-0.940236,-0.881847,-2.02729,
2026_06_26_18_23_37.264,3.853,58.2,0,0.779,0,0,0,0, ,0,0,0,0,0, ,-37.8,179,983.1,-0.6,0,-1.9,25,-37.9578,178.258,984.89,-0.928643,-0.864672,-2.01649,
2026_06_26_18_23_37.283,3.853,58,0,0.778,0,0,0,0, ,0,0,0,0,0, ,-45,179.5,983.3,-0.9,-0.3,-1.9,25,-38.1675,178.319,984.787,-0.917757,-0.821121,-2.00939,
2026_06_26_18_23_37.304,3.853,58.1,0,0.778,0,0,0,0, ,0,0,0,0,0, ,-45.8,178.7,980.8,-1,-1.1,-2.1,25,-38.6083,178.366,984.62,-0.919722,-0.81374,-2.00882,
2026_06_26_18_23_37.323,3.853,58.1,0,0.778,0,0,0,0, ,0,0,0,0,0, ,-38.6,178.9,986.9,-0.8,-1.3,-2.3,25,-38.8271,178.393,984.573,-0.91852,-0.837278,-2.02047,
2026_06_26_18_23_37.343,3.853,58.1,0,0.779,0,0,0,0, ,0,0,0,0,0, ,-37.4,182.2,988.4,-0.1,-0.7,-2.1,25,-38.7767,178.524,984.761,-0.88997,-0.847194,-2.03141,
2026_06_26_18_23_37.362,3.853,58,0,0.778,0,0,0,0, ,0,0,0,0,0, ,-41.7,181.8,984.6,-1,-1.3,-1.9,25,-38.8239,178.736,984.867,-0.869253,-0.856506,-2.0295,
2026_06_26_18_23_37.383,3.853,58.1,0,0.779,0,0,0,0, ,0,0,0,0,0, ,-41.2,180.2,979.6,-1.1,-1.8,-2.2,25,-38.9839,178.874,984.698,-0.880267,-0.898765,-2.03074,
2026_06_26_18_23_37.402,3.853,58,0,0.778,0,0,0,0, ,0,0,0,0,0, ,-34.5,179.5,984.3,-0.8,-0.7,-2.4,25,-38.9148,178.933,984.531,-0.884517,-0.920169,-2.04715,
2026_06_26_18_23_37.421,3.853,58,0,0.777,0,0,0,0, ,0,0,0,0,0, ,-33.4,178.2,988.8,-0.8,-0.5,-2.4,25,-38.6122,178.928,984.654,-0.879366,-0.900658,-2.06865,
2026_06_26_18_23_37.442,3.853,58,0,0.777,0,0,0,0, ,0,0,0,0,0, ,-33.9,177.7,988.1,-0.9,-1,-2.1,25,-38.3099,178.869,984.885,-0.877577,-0.891478,-2.0797,
2026_06_26_18_23_37.461,3.853,57.9,0,0.778,0,0,0,0, ,0,0,0,0,0, ,-31.8,174.9,984.4,-1.2,-1.6,-1.8,25,-37.9772,178.712,984.968,-0.888084,-0.916372,-2.0718,
2026_06_26_18_23_37.481,3.853,58,0,0.778,0,0,0,0, ,0,0,0,0,0, ,-34.1,175,981.9,-1,-0.9,-1.8,25,-37.6708,178.483,984.857,-0.900997,-0.936702,-2.05524,
2026_06_26_18_23_37.501,3.853,57.9,0,0.777,0,0,0,0, ,0,0,0,0,0, ,-35.4,178.3,987.7,-0.9,-0.5,-1.8,25,-37.4928,178.371,984.854,-0.903984,-0.922278,-2.03968,
2026_06_26_18_23_37.521,3.853,57.9,0,0.779,0,0,0,0, ,0,0,0,0,0, ,-39.4,178.4,987.3,-0.9,-0.4,-1.7,25,-37.4872,178.37,985.015,-0.903741,-0.893499,-2.02203,
2026_06_26_18_23_37.540,3.853,57.9,0,0.778,0,0,0,0, ,0,0,0,0,0, ,-45.6,180.1,983.1,-1.1,-1.7,-1.6,25,-37.7926,178.424,985.026,-0.909607,-0.903036,-1.99936,
2026_06_26_18_23_37.561,3.853,57.9,0,0.778,0,0,0,0, ,0,0,0,0,0, ,-40.7,180,982.2,-1.3,-2.4,-1.8,25,-38.1191,178.523,984.882,-0.927302,-0.972929,-1.98112,
2026_06_26_18_23_37.580,3.853,57.8,0,0.778,0,0,0,0, ,0,0,0,0,0, ,-38.8,179.8,987.6,-1,-0.3,-2.4,25,-38.2185,178.607,984.883,-0.940873,-0.995907,-1.98836,
2026_06_26_18_23_37.600,3.853,57.8,0,0.778,0,0,0,0, ,0,0,0,0,0, ,-37.7,178.3,985.1,-0.8,0.5,-2.5,25,-38.2204,178.634,984.972,-0.938382,-0.929125,-2.01649,
2026_06_26_18_23_37.620,3.853,57.7,0,0.778,0,0,0,0, ,0,0,0,0,0, ,-40.4,179.9,981.3,-1.1,-1.5,-2.2,25,-38.271,178.662,984.864,-0.93909,-0.902975,-2.03682,
2026_06_26_18_23_37.640,3.853,57.7,0,0.779,0,0,0,0, ,0,0,0,0,0, ,-33.4,179.8,986.3,-1.2,-2.3,-1.8,25,-38.1874,178.734,984.799,-0.951943,-0.963731,-2.03457,
2026_06_26_18_23_37.659,3.853,57.7,0,0.778,0,0,0,0, ,0,0,0,0,0, ,-29,179.6,991.2,-0.9,-0.4,-2.3,25,-37.7616,178.793,985.04,-0.957918,-0.98727,-2.03551,
2026_06_26_18_23_37.679,3.853,57.6,0,0.78,0,0,0,0, ,0,0,0,0,0, ,-27,176.2,986.5,-0.8,1.2,-2.2,25,-37.1668,178.739,985.272,-0.951342,-0.902733,-2.04858,
2026_06_26_18_23_37.699,3.853,57.7,0,0.778,0,0,0,0, ,0,0,0,0,0, ,-31.1,176.5,981.3,-1.1,0.7,-1.9,25,-36.6722,178.593,985.189,-0.95126,-0.789832,-2.04867,
2026_06_26_18_23_37.718,3.853,57.7,0,0.778,0,0,0,0, ,0,0,0,0,0, ,-39.1,175,979.7,-1,-0.2,-0.9,25,-36.5764,178.42,984.903,-0.957277,-0.726467,-2.00914,
2026_06_26_18_23_37.739,3.853,57.6,0,0.778,0,0,0,0, ,0,0,0,0,0, ,-44.3,178.1,987.3,-0.9,-1.4,-1.1,25,-36.8886,178.306,984.817,-0.956834,-0.730948,-1.94765,
2026_06_26_18_23_37.758,3.853,57.7,0,0.78,0,0,0,0, ,0,0,0,0,0, ,-41.9,178.8,989.7,-0.7,-0.5,-1.5,25,-37.2671,178.315,985.042,-0.947276,-0.744297,-1.90818,
2026_06_26_18_23_37.778,3.853,57.5,0,0.779,0,0,0,0, ,0,0,0,0,0, ,-46.7,182.3,978.8,-0.7,-0.1,-1.9,25,-37.6957,178.451,984.994,-0.932208,-0.717222,-1.8955,
2026_06_26_18_23_37.798,3.853,57.6,0,0.778,0,0,0,0, ,0,0,0,0,0, ,-42.9,180.1,983.3,-0.7,-0.6,-1.8,25,-38.1286,178.619,984.753,-0.918058,-0.694845,-1.89272,
2026_06_26_18_23_37.818,3.853,57.5,0,0.777,0,0,0,0, ,0,0,0,0,0, ,-41.8,175.5,985.1,-1.4,-1.3,-2.1,25,-38.3858,178.569,984.72,-0.926098,-0.710393,-1.89621,
2026_06_26_18_23_37.837,3.853,57.5,0,0.778,0,0,0,0, ,0,0,0,0,0, ,-36.2,174.8,986,-1.1,-0.8,-2.5,25,-38.4232,178.36,984.77,-0.945836,-0.731088,-1.92082,
2026_06_26_18_23_37.857,3.853,57.3,0,0.778,0,0,0,0, ,0,0,0,0,0, ,-36.4,180.4,984.3,-0.5,-0.2,-2,25,-38.2939,178.314,984.793,-0.936949,-0.717006,-1.94088,
2026_06_26_18_23_37.877,3.853,57.3,0,0.778,0,0,0,0, ,0,0,0,0,0, ,-38.6,182.1,988,-0.8,-2.1,-1.7,25,-38.2455,178.493,984.876,-0.919463,-0.743392,-1.93534,
2026_06_26_18_23_37.896,3.853,57.5,0,0.778,0,0,0,0, ,0,0,0,0,0, ,-32.7,176.1,984.7,-0.7,-0.9,-2.1,25,-38.0873,178.53,984.966,-0.909136,-0.789497,-1.93319,
2026_06_26_18_23_37.922,3.853,57.3,0,0.778,0,0,0,0, ,0,0,0,0,0, ,-33.3,176.8,977.2,-0.7,0.4,-2.1,25,-37.7773,178.403,984.721,-0.896392,-0.756622,-1.94335,
2026_06_26_18_23_37.936,3.853,57.3,0,0.779,0,0,0,0, ,0,0,0,0,0, ,-34.5,177.1,984.7,-0.4,0,-1.3,25,-37.541,178.315,984.491,-0.875284,-0.698328,-1.92852,
2026_06_26_18_23_37.956,3.853,57.3,0,0.777,0,0,0,0, ,0,0,0,0,0, ,-44,179.6,991.5,-0.9,-0.8,-1.3,25,-37.6452,178.317,984.711,-0.861556,-0.680148,-1.89022,
2026_06_26_18_23_37.976,3.853,57.3,0,0.779,0,0,0,0, ,0,0,0,0,0, ,-43.7,179.3,984,-1.1,-1.3,-2.1,25,-38.0233,178.386,984.896,-0.869992,-0.702686,-1.87863,
2026_06_26_18_23_37.995,3.853,57.2,0,0.777,0,0,0,0, ,0,0,0,0,0, ,-38.3,177.8,981.2,-1,-0.8,-2.3,25,-38.2047,178.396,984.756,-0.880961,-0.723851,-1.89821,
2026_06_26_18_23_38.016,3.853,57.1,0,0.777,0,0,0,0, ,0,0,0,0,0, ,-36,180.5,978.8,-0.9,-0.3,-2,25,-38.1404,178.442,984.467,-0.885168,-0.713257,-1.91356,
2026_06_26_18_23_38.035,3.853,57.2,0,0.776,0,0,0,0, ,0,0,0,0,0, ,-41.5,180.2,987.6,-1,-0.8,-1.9,25,-38.1776,178.558,984.389,-0.889119,-0.703308,-1.91578,
2026_06_26_18_23_38.060,3.853,57.2,0,0.777,0,0,0,0, ,0,0,0,0,0, ,-37.8,179.1,988.7,-0.7,-1,-2,25,-38.2673,178.625,984.619,-0.886735,-0.715294,-1.91786,
2026_06_26_18_23_38.074,3.853,57.1,0,0.777,0,0,0,0, ,0,0,0,0,0, ,-32.8,177,987,-1.2,-0.9,-1.5,25,-38.0865,178.59,984.815,-0.89059,-0.729596,-1.90763,
2026_06_26_18_23_38.095,3.853,57.1,0,0.778,0,0,0,0, ,0,0,0,0,0, ,-33.9,177.8,978.7,-0.6,-0.8,-2.3,25,-37.7978,178.517,984.696,-0.891164,-0.736934,-1.90717,
2026_06_26_18_23_38.114,3.853,57.1,0,0.778,0,0,0,0, ,0,0,0,0,0, ,-34.1,176.1,983.2,-1.1,-1.4,-1.7,25,-37.5664,178.422,984.467,-0.888655,-0.759058,-1.91283,
2026_06_26_18_23_38.134,3.853,57.1,0,0.778,0,0,0,0, ,0,0,0,0,0, ,-32.3,178.1,982.1,-1,-0.3,-1.4,25,-37.3003,178.341,984.357,-0.898487,-0.7646,-1.89072,
2026_06_26_18_23_38.154,3.853,57.1,0,0.777,0,0,0,0, ,0,0,0,0,0, ,-42.8,180.9,991.3,-0.5,0.1,-1.8,25,-37.3155,178.412,984.499,-0.889439,-0.724101,-1.873,
2026_06_26_18_23_38.174,3.853,57,0,0.778,0,0,0,0, ,0,0,0,0,0, ,-39,179,983.8,-1,-1.1,-1.9,25,-37.534,178.505,984.685,-0.880942,-0.710444,-1.8716,
2026_06_26_18_23_38.197,3.853,57,0,0.779,0,0,0,0, ,0,0,0,0,0, ,-35.8,176.7,979.8,-1,-1.1,-1.9,25,-37.5258,178.465,984.51,-0.888197,-0.734183,-1.87333,
2026_06_26_18_23_38.213,3.853,57,0,0.779,0,0,0,0, ,0,0,0,0,0, ,-35.6,177.3,984.2,-1,-0.6,-1.7,25,-37.4145,178.376,984.357,-0.89501,-0.741241,-1.86886,
2026_06_26_18_23_38.233,3.853,57,0,0.779,0,0,0,0, ,0,0,0,0,0, ,-39.7,178.9,987.1,-0.9,0,-1.7,25,-37.4289,178.359,984.435,-0.898361,-0.714353,-1.85857,
2026_06_26_18_23_38.252,3.853,56.9,0,0.779,0,0,0,0, ,0,0,0,0,0, ,-42.4,177.2,989.5,-0.8,-0.6,-1.6,25,-37.6496,178.341,984.671,-0.895414,-0.689103,-1.84586,
2026_06_26_18_23_38.273,3.853,57,0,0.776,0,0,0,0, ,0,0,0,0,0, ,-40.5,178.5,981.8,-1.1,-1.1,-1.8,25,-37.8811,178.311,984.731,-0.89874,-0.698908,-1.83697,
2026_06_26_18_23_38.292,3.853,57,0,0.777,0,0,0,0, ,0,0,0,0,0, ,-37.7,178.3,982,-0.8,-0.7,-2.3,25,-37.9554,178.316,984.558,-0.901864,-0.711162,-1.84995,
2026_06_26_18_23_38.312,3.853,56.9,0,0.777,0,0,0,0, ,0,0,0,0,0, ,-36,179.3,985.5,-1.2,-0.6,-2.4,25,-37.8881,178.346,984.509,-0.907844,-0.707435,-1.88043,
2026_06_26_18_23_38.334,3.853,56.9,0,0.778,0,0,0,0, ,0,0,0,0,0, ,-30.5,177.9,989.1,-1.3,-0.9,-2.1,25,-37.6054,178.361,984.679,-0.928694,-0.710028,-1.90295,
2026_06_26_18_23_38.352,3.853,56.8,0,0.777,0,0,0,0, ,0,0,0,0,0, ,-34.3,175.2,984.6,-1,-0.5,-1.7,25,-37.2882,178.251,984.811,-0.94218,-0.709417,-1.90277,
2026_06_26_18_23_38.372,3.853,56.9,0,0.777,0,0,0,0, ,0,0,0,0,0, ,-42.6,178.1,983.6,-1,-0.2,-2,25,-37.359,178.153,984.768,-0.945703,-0.687515,-1.89955,
2026_06_26_18_23_38.391,3.853,56.8,0,0.777,0,0,0,0, ,0,0,0,0,0, ,-43.8,179.5,981.3,-1.2,-0.3,-2.4,25,-37.715,178.193,984.627,-0.955106,-0.660854,-1.91786,
2026_06_26_18_23_38.411,3.853,56.7,0,0.777,0,0,0,0, ,0,0,0,0,0, ,-31.9,177,984.7,-1.1,-0.3,-2.3,25,-37.7232,178.196,984.528,-0.966982,-0.638865,-1.94419,
2026_06_26_18_23_38.430,3.853,56.8,0,0.778,0,0,0,0, ,0,0,0,0,0, ,-34.9,177.9,984.7,-1,-0.6,-1.7,25,-37.4597,178.151,984.538,-0.972041,-0.627356,-1.94759,
2026_06_26_18_23_38.450,3.853,56.7,0,0.779,0,0,0,0, ,0,0,0,0,0, ,-39.4,177.9,985.1,-1.3,-1.7,-1.8,25,-37.4409,178.135,984.56,-0.982885,-0.659204,-1.93555,
2026_06_26_18_23_38.474,3.853,56.7,0,0.779,0,0,0,0, ,0,0,0,0,0, ,-36.2,179.3,985.5,-1,-0.7,-2.3,25,-37.4627,178.164,984.605,-0.993069,-0.692159,-1.94253,
2026_06_26_18_23_38.490,3.853,56.7,0,0.777,0,0,0,0, ,0,0,0,0,0, ,-35.7,177.9,984.6,-1.2,-0.1,-2.3,25,-37.3706,178.19,984.632,-0.999585,-0.674356,-1.96431,
2026_06_26_18_23_38.510,3.853,56.6,0,0.776,0,0,0,0, ,0,0,0,0,0, ,-34.4,177.3,984.4,-1.1,-0.9,-1.9,25,-37.2292,178.154,984.624,-1.00875,-0.663731,-1.97258,
2026_06_26_18_23_38.529,3.853,56.6,0,0.779,0,0,0,0, ,0,0,0,0,0, ,-40.4,176.8,986.3,-1,-0.7,-1.7,25,-37.2396,178.087,984.668,-1.01126,-0.672035,-1.96206,
2026_06_26_18_23_38.549,3.853,56.5,0,0.777,0,0,0,0, ,0,0,0,0,0, ,-43,177,986.2,-1,-1,-2.2,25,-37.5114,178.015,984.765,-1.01058,-0.68288,-1.96133,
2026_06_26_18_23_38.569,3.853,56.6,0,0.776,0,0,0,0, ,0,0,0,0,0, ,-28.9,174.6,986.3,-1.2,-0.8,-2.4,25,-37.4162,177.88,984.855,-1.01603,-0.69611,-1.98197,
2026_06_26_18_23_38.589,3.853,56.5,0,0.777,0,0,0,0, ,0,0,0,0,0, ,-32.3,174.5,984,-1,0.2,-1.8,25,-37.0009,177.677,984.873,-1.02114,-0.671972,-1.98916,
2026_06_26_18_23_38.611,3.853,56.5,0,0.777,0,0,0,0, ,0,0,0,0,0, ,-45.1,181.3,986.6,-1,-0.2,-2.1,25,-37.1044,177.69,984.899,-1.01986,-0.631024,-1.98677,
2026_06_26_18_23_38.629,3.853,56.5,0,0.778,0,0,0,0, ,0,0,0,0,0, ,-45.2,179.6,986.2,-1.5,-0.9,-2.9,25,-37.5947,177.859,984.991,-1.03388,-0.626087,-2.01805,
2026_06_26_18_23_38.648,3.853,56.5,0,0.778,0,0,0,0, ,0,0,0,0,0, ,-33.9,175.1,980.9,-1.3,-0.7,-2.8,25,-37.7138,177.828,984.903,-1.05619,-0.636684,-2.06874,
2026_06_26_18_23_38.668,3.853,56.5,0,0.776,0,0,0,0, ,0,0,0,0,0, ,-34.6,175.4,984.8,-0.8,-0.2,-2.3,25,-37.5028,177.67,984.778,-1.05581,-0.625308,-2.09807,
2026_06_26_18_23_38.688,3.853,56.3,0,0.778,0,0,0,0, ,0,0,0,0,0, ,-39,177.6,985.4,-0.6,-0.8,-1.9,25,-37.4599,177.599,984.797,-1.03413,-0.617672,-2.09819,
2026_06_26_18_23_38.707,3.853,56.4,0,0.777,0,0,0,0, ,0,0,0,0,0, ,-41.8,180.2,983.3,-0.8,-1.7,-2,25,-37.6391,177.678,984.77,-1.01377,-0.656205,-2.08916,
2026_06_26_18_23_38.727,3.853,56.4,0,0.776,0,0,0,0, ,0,0,0,0,0, ,-35.7,179.5,984.7,-1.1,-1.7,-2.4,25,-37.7068,177.811,984.723,-1.00988,-0.719811,-2.09591,
2026_06_26_18_23_38.753,3.853,56.3,0,0.779,0,0,0,0, ,0,0,0,0,0, ,-33.2,178.5,983.7,-1,-1.2,-2.5,25,-37.5083,177.883,984.691,-1.01233,-0.764307,-2.11749,
2026_06_26_18_23_38.767,3.853,56.3,0,0.777,0,0,0,0, ,0,0,0,0,0, ,-35.2,176.8,986.8,-0.5,-0.4,-2.2,25,-37.3067,177.869,984.725,-0.996343,-0.766482,-2.13166,
2026_06_26_18_23_38.787,3.853,56.3,0,0.777,0,0,0,0, ,0,0,0,0,0, ,-37.7,176,984.7,-1.1,-1.4,-1.8,25,-37.2545,177.78,984.788,-0.984378,-0.774618,-2.12364,
2026_06_26_18_23_38.807,3.853,56.3,0,0.778,0,0,0,0, ,0,0,0,0,0, ,-35.8,177.9,984.4,-0.6,-1.1,-2.2,25,-37.2238,177.729,984.773,-0.97619,-0.803587,-2.1161,
2026_06_26_18_23_38.826,3.853,56.3,0,0.777,0,0,0,0, ,0,0,0,0,0, ,-33.6,177,989.2,-0.9,-0.8,-2.2,25,-37.07,177.712,984.897,-0.962406,-0.812509,-2.12121,
2026_06_26_18_23_38.846,3.853,56.3,0,0.777,0,0,0,0, ,0,0,0,0,0, ,-34.3,174.3,984.3,-0.9,-0.3,-1.9,25,-36.8799,177.586,985.01,-0.958603,-0.796512,-2.11687,
2026_06_26_18_23_38.866,3.853,56.2,0,0.777,0,0,0,0, ,0,0,0,0,0, ,-39.4,172.4,982,-0.6,-0.5,-1.8,25,-36.878,177.328,984.896,-0.945892,-0.77235,-2.10061,
2026_06_26_18_23_38.890,3.853,56.3,0,0.777,0,0,0,0, ,0,0,0,0,0, ,-36.9,177.9,986.6,-0.5,-0.6,-1.9,25,-36.9556,177.195,984.86,-0.921767,-0.7588,-2.08534,
2026_06_26_18_23_38.905,3.853,56.2,0,0.778,0,0,0,0, ,0,0,0,0,0, ,-32.7,175.1,988.4,-0.8,-0.4,-2,25,-36.8242,177.153,985.021,-0.905206,-0.74303,-2.07709,
2026_06_26_18_23_38.926,3.853,56.3,0,0.776,0,0,0,0, ,0,0,0,0,0, ,-32.8,174.8,983.8,-0.6,0.5,-1.6,25,-36.5759,177.019,985.087,-0.892701,-0.694704,-2.06021,
2026_06_26_18_23_38.945,3.853,56.1,0,0.779,0,0,0,0, ,0,0,0,0,0, ,-41.6,177,984,-0.1,0,-1.3,25,-36.614,176.951,985.014,-0.859631,-0.637137,-2.02302,
2026_06_26_18_23_38.965,3.853,56.1,0,0.777,0,0,0,0, ,0,0,0,0,0, ,-45.6,178.8,984.2,-0.3,-0.2,-1.7,25,-37.0397,177.008,984.959,-0.819434,-0.604405,-1.99115,
2026_06_26_18_23_38.985,3.853,56,0,0.777,0,0,0,0, ,0,0,0,0,0, ,-42.6,178.1,985.4,-0.6,-0.8,-2.2,25,-37.4699,177.096,984.949,-0.796922,-0.598043,-1.98864,
2026_06_26_18_23_39.005,3.853,56,0,0.776,0,0,0,0, ,0,0,0,0,0, ,-36.2,177.1,987,-1,-0.7,-2.6,25,-37.5875,177.127,985.025,-0.797109,-0.607303,-2.01371,
2026_06_26_18_23_39.024,3.853,56.2,0,0.777,0,0,0,0, ,0,0,0,0,0, ,-31.4,175.6,983.2,-1,-0.6,-2,25,-37.3567,177.08,985.03,-0.809473,-0.609904,-2.03116,
2026_06_26_18_23_39.044,3.853,56,0,0.776,0,0,0,0, ,0,0,0,0,0, ,-35.2,179.8,985.3,-1,0.2,-1.8,25,-37.1095,177.117,984.982,-0.821083,-0.584926,-2.02316,
2026_06_26_18_23_39.064,3.853,56.1,0,0.778,0,0,0,0, ,0,0,0,0,0, ,-41.2,181.2,980.8,-1.2,-1.4,-1.7,25,-37.176,177.324,984.865,-0.83808,-0.585844,-2.00652,
2026_06_26_18_23_39.083,3.853,56.2,0,0.778,0,0,0,0, ,0,0,0,0,0, ,-35.8,178.7,988.6,-0.7,-1.6,-1.8,25,-37.2566,177.484,984.855,-0.8449,-0.641551,-1.99089,
2026_06_26_18_23_39.104,3.853,56,0,0.776,0,0,0,0, ,0,0,0,0,0, ,-44.1,178.2,983.2,-0.7,-0.5,-1.8,25,-37.4208,177.543,984.918,-0.83607,-0.666441,-1.97925,
2026_06_26_18_23_39.123,3.853,56,0,0.776,0,0,0,0, ,0,0,0,0,0, ,-41.5,177.9,985.3,-1.1,-1.2,-2.2,25,-37.7486,177.573,984.878,-0.839966,-0.677626,-1.98052,
2026_06_26_18_23_39.143,3.853,55.9,0,0.777,0,0,0,0, ,0,0,0,0,0, ,-34,176.5,982.2,-1,-0.9,-2.2,25,-37.7487,177.551,984.809,-0.852765,-0.700318,-1.99389,
2026_06_26_18_23_39.163,3.853,55.9,0,0.776,0,0,0,0, ,0,0,0,0,0, ,-32.4,176.7,987.9,-1.2,-0.5,-1.8,25,-37.4715,177.493,984.823,-0.867831,-0.700298,-1.99427,
2026_06_26_18_23_39.182,3.853,55.9,0,0.776,0,0,0,0, ,0,0,0,0,0, ,-42.4,177.3,982.4,-1,-0.7,-1.7,25,-37.4671,177.463,984.843,-0.881979,-0.694187,-1.97938,
2026_06_26_18_23_39.202,3.853,55.9,0,0.776,0,0,0,0, ,0,0,0,0,0, ,-38.8,177.9,984.9,-1,-1.8,-2.1,25,-37.658,177.471,984.771,-0.88917,-0.728056,-1.97454,
2026_06_26_18_23_39.222,3.853,55.9,0,0.776,0,0,0,0, ,0,0,0,0,0, ,-37.2,178.9,985.5,-0.8,-0.5,-2.1,25,-37.6789,177.528,984.797,-0.88983,-0.753769,-1.98219,
2026_06_26_18_23_39.241,3.853,55.9,0,0.776,0,0,0,0, ,0,0,0,0,0, ,-38.3,177.1,983.5,-0.8,-0.9,-2,25,-37.6832,177.556,984.779,-0.884356,-0.750492,-1.98632,
2026_06_26_18_23_39.262,3.853,55.8,0,0.778,0,0,0,0, ,0,0,0,0,0, ,-34.5,176.5,989.7,-0.8,-1.4,-2.1,25,-37.605,177.51,984.89,-0.879216,-0.774837,-1.9902,
2026_06_26_18_23_39.281,3.853,55.8,0,0.775,0,0,0,0, ,0,0,0,0,0, ,-38,178.4,985.5,-0.6,-0.4,-2.1,25,-37.5224,177.507,985.055,-0.868295,-0.782464,-1.99689,
2026_06_26_18_23_39.301,3.853,56,0,0.776,0,0,0,0, ,0,0,0,0,0, ,-49.9,180.7,980.5,-0.3,-0.1,-3.2,25,-37.9141,177.631,984.93,-0.842805,-0.750017,-2.03669,
2026_06_26_18_23_39.324,3.853,55.8,0,0.775,0,0,0,0, ,0,0,0,0,0, ,-28.8,178.5,990.2,-0.7,-1.1,-3.5,25,-38.0016,177.751,984.955,-0.821915,-0.740875,-2.11672,
2026_06_26_18_23_39.340,3.853,55.8,0,0.779,0,0,0,0, ,0,0,0,0,0, ,-29.6,176.3,984.7,-0.6,-0.9,-2.8,25,-37.4653,177.73,985.107,-0.811439,-0.756666,-2.17969,
2026_06_26_18_23_39.360,3.853,55.5,0,0.776,0,0,0,0, ,0,0,0,0,0, ,-30.1,172.6,981,-0.5,-1.3,-1.9,25,-37.0012,177.53,984.97,-0.795508,-0.777588,-2.19006,
2026_06_26_18_23_39.380,3.853,55.7,0,0.778,0,0,0,0, ,0,0,0,0,0, ,-30.8,175.1,982.4,-0.3,-0.6,-1.5,25,-36.602,177.306,984.771,-0.771407,-0.788094,-2.1602,
2026_06_26_18_23_39.400,3.853,55.7,0,0.779,0,0,0,0, ,0,0,0,0,0, ,-37.1,180.5,992.6,-0.3,0.9,-1.8,25,-36.4404,177.336,984.937,-0.74268,-0.730929,-2.12911,
2026_06_26_18_23_39.420,3.853,55.7,0,0.776,0,0,0,0, ,0,0,0,0,0, ,-40.5,181.3,982.1,-0.6,1.3,-2.2,25,-36.5842,177.553,985.084,-0.724845,-0.619357,-2.12124,
2026_06_26_18_23_39.439,3.853,55.7,0,0.776,0,0,0,0, ,0,0,0,0,0, ,-36.7,178.1,981.4,-0.9,0,-2.4,25,-36.707,177.684,984.881,-0.726378,-0.542005,-2.13214,
2026_06_26_18_23_39.466,3.853,55.7,0,0.778,0,0,0,0, ,0,0,0,0,0, ,-34.3,176.6,980.7,-0.9,-1.2,-1.5,25,-36.6335,177.663,984.647,-0.736958,-0.545539,-2.12104,
2026_06_26_18_23_39.479,3.853,55.7,0,0.776,0,0,0,0, ,0,0,0,0,0, ,-41.1,178.1,988.2,-0.5,-1,-1.5,25,-36.6985,177.644,984.635,-0.734706,-0.579327,-2.08319,
2026_06_26_18_23_39.499,3.853,55.4,0,0.775,0,0,0,0, ,0,0,0,0,0, ,-43.7,181,987.1,-0.7,-0.9,-2,25,-37.0459,177.761,984.819,-0.726497,-0.601915,-2.06289,
2026_06_26_18_23_39.518,3.853,55.7,0,0.776,0,0,0,0, ,0,0,0,0,0, ,-38.5,177.4,982.5,-0.7,-0.3,-2.1,25,-37.2929,177.848,984.818,-0.724883,-0.601798,-2.0621,
2026_06_26_18_23_39.538,3.853,55.5,0,0.778,0,0,0,0, ,0,0,0,0,0, ,-41.5,175.5,982.6,-1.1,-0.7,-2.1,25,-37.4579,177.763,984.68,-0.735554,-0.595595,-2.06441,
2026_06_26_18_23_39.559,3.853,55.5,0,0.778,0,0,0,0, ,0,0,0,0,0, ,-35.1,177.7,985.7,-1.4,-2.1,-2,25,-37.5092,177.692,984.647,-0.766903,-0.644613,-2.06353,
2026_06_26_18_23_39.578,3.853,55.4,0,0.776,0,0,0,0, ,0,0,0,0,0, ,-33,179,990.6,-0.8,-1.2,-1.8,25,-37.2984,177.732,984.861,-0.787201,-0.705879,-2.05357,
2026_06_26_18_23_39.604,3.853,55.4,0,0.778,0,0,0,0, ,0,0,0,0,0, ,-35.8,179,985.5,-0.7,0,-1.9,25,-37.1218,177.809,985.055,-0.784934,-0.699427,-2.04116,
2026_06_26_18_23_39.617,3.853,55.4,0,0.776,0,0,0,0, ,0,0,0,0,0, ,-37.3,175.5,979.6,-0.9,0.4,-1.9,25,-37.087,177.775,984.902,-0.785852,-0.644618,-2.03256,
2026_06_26_18_23_39.637,3.853,55.4,0,0.776,0,0,0,0, ,0,0,0,0,0, ,-34.5,177.4,978,-0.4,1.3,-1.7,25,-37.0146,177.695,984.531,-0.777574,-0.55354,-2.01839,
2026_06_26_18_23_39.657,3.853,55.4,0,0.778,0,0,0,0, ,0,0,0,0,0, ,-41.9,180.6,989.1,-0.6,0.8,-1.6,25,-37.0869,177.774,984.471,-0.760659,-0.455824,-1.99594,
2026_06_26_18_23_39.677,3.853,55.3,0,0.776,0,0,0,0, ,0,0,0,0,0, ,-37.5,176.1,989,-0.6,-0.2,-1.7,25,-37.2461,177.809,984.75,-0.750869,-0.409766,-1.97486,
2026_06_26_18_23_39.697,3.853,55.3,0,0.776,0,0,0,0, ,0,0,0,0,0, ,-36.7,176.2,983.1,-0.2,1.4,-2.2,25,-37.2372,177.708,984.829,-0.729488,-0.348234,-1.97335,
2026_06_26_18_23_39.716,3.853,55.3,0,0.776,0,0,0,0, ,0,0,0,0,0, ,-38.3,180.2,985.1,-0.9,0.7,-2.2,25,-37.2532,177.738,984.785,-0.71855,-0.263029,-1.98716,
2026_06_26_18_23_39.742,3.853,55.2,0,0.776,0,0,0,0, ,0,0,0,0,0, ,-41.3,181.7,982.9,-0.9,0.2,-1.7,25,-37.4084,177.934,984.737,-0.729607,-0.219578,-1.98489,
2026_06_26_18_23_39.756,3.853,55.3,0,0.776,0,0,0,0, ,0,0,0,0,0, ,-48,177.8,983,-0.5,-0.9,-1.5,25,-37.8497,178.045,984.628,-0.727803,-0.227526,-1.96144,
2026_06_26_18_23_39.775,3.853,55.2,0,0.776,0,0,0,0, ,0,0,0,0,0, ,-47.6,176.7,984.2,-0.8,-0.7,-1.9,25,-38.456,177.996,984.565,-0.723062,-0.262411,-1.94551,
2026_06_26_18_23_39.795,3.853,55.2,0,0.778,0,0,0,0, ,0,0,0,0,0, ,-48.8,182.1,983.6,-0.7,-0.1,-2.1,25,-39.0498,178.082,984.525,-0.724704,-0.270795,-1.94883,
2026_06_26_18_23_39.815,3.853,55.2,0,0.776,0,0,0,0, ,0,0,0,0,0, ,-46.8,183.4,983.6,-1.4,-1.9,-1.9,25,-39.583,178.366,984.468,-0.744526,-0.315231,-1.95195,
2026_06_26_18_23_39.835,3.853,55.1,0,0.775,0,0,0,0, ,0,0,0,0,0, ,-41.3,179.1,983.1,-1.3,-2,-2.1,25,-39.8552,178.542,984.4,-0.781422,-0.41485,-1.95487,
2026_06_26_18_23_39.855,3.853,55.1,0,0.776,0,0,0,0, ,0,0,0,0,0, ,-35.8,173.9,990.6,-1.1,-0.7,-2.5,25,-39.7757,178.417,984.55,-0.806929,-0.471836,-1.97591,
2026_06_26_18_23_39.875,3.853,55,0,0.778,0,0,0,0, ,0,0,0,0,0, ,-35.4,177.1,982.9,-0.6,0.3,-2.5,25,-39.5212,178.24,984.684,-0.809554,-0.455271,-2.00784,
2026_06_26_18_23_39.894,3.853,55.2,0,0.776,0,0,0,0, ,0,0,0,0,0, ,-38.4,180.2,981.4,-1.1,-1.7,-1.9,25,-39.3615,178.265,984.529,-0.812019,-0.470184,-2.01955,
2026_06_26_18_23_39.914,3.853,55.1,0,0.776,0,0,0,0, ,0,0,0,0,0, ,-30.1,176,983.6,-1.4,-2.5,-1.5,25,-39.05,178.255,984.406,-0.838708,-0.569501,-2.00008,
2026_06_26_18_23_39.934,3.853,55,0,0.776,0,0,0,0, ,0,0,0,0,0, ,-37.7,180.7,986.8,-0.9,-0.2,-1.2,25,-38.7362,178.26,984.454,-0.857678,-0.617063,-1.96047,
2026_06_26_18_23_39.953,3.853,55.1,0,0.776,0,0,0,0, ,0,0,0,0,0, ,-45.8,183.1,989.3,-0.9,0,-1.6,25,-38.9198,178.482,984.673,-0.860257,-0.585554,-1.92631,
2026_06_26_18_23_39.973,3.853,55,0,0.778,0,0,0,0, ,0,0,0,0,0, ,-48.7,181.1,982.1,-0.7,-0.3,-2,25,-39.4275,178.703,984.736,-0.856585,-0.559012,-1.91861,
2026_06_26_18_23_39.993,3.853,55.1,0,0.776,0,0,0,0, ,0,0,0,0,0, ,-43.8,175.5,980.1,-0.8,-0.8,-2.4,25,-39.8432,178.678,984.514,-0.85009,-0.558463,-1.93576,
2026_06_26_18_23_40.013,3.853,55,0,0.774,0,0,0,0, ,0,0,0,0,0, ,-40.1,176.8,981.6,-1,-1.4,-2.4,25,-39.9716,178.524,984.291,-0.853131,-0.591463,-1.96405,
2026_06_26_18_23_40.033,3.853,55,0,0.776,0,0,0,0, ,0,0,0,0,0, ,-34.6,178.5,985.2,-1.3,-2,-1.9,25,-39.8118,178.471,984.237,-0.871222,-0.659015,-1.97538,
2026_06_26_18_23_40.053,3.853,54.9,0,0.776,0,0,0,0, ,0,0,0,0,0, ,-40.8,181,983.5,-1.2,-1.2,-1.8,25,-39.6832,178.549,984.243,-0.894303,-0.716356,-1.96774,
2026_06_26_18_23_40.073,3.853,55,0,0.775,0,0,0,0, ,0,0,0,0,0, ,-38.3,179.3,984.1,-1.1,-1.5,-1.9,25,-39.675,178.646,984.216,-0.909885,-0.754969,-1.96057,
2026_06_26_18_23_40.092,3.853,54.8,0,0.776,0,0,0,0, ,0,0,0,0,0, ,-34.1,177.9,988.7,-0.6,-0.5,-1.9,25,-39.4633,178.644,984.35,-0.906236,-0.7699,-1.95688,
2026_06_26_18_23_40.112,3.853,54.9,0,0.778,0,0,0,0, ,0,0,0,0,0, ,-34,177.8,984.1,-1,-0.5,-2,25,-39.1334,178.595,984.474,-0.899762,-0.753453,-1.95646,
2026_06_26_18_23_40.132,3.853,54.8,0,0.776,0,0,0,0, ,0,0,0,0,0, ,-33.6,178.1,982,-0.9,-0.8,-1.7,25,-38.8084,178.556,984.388,-0.902823,-0.747149,-1.94997,
2026_06_26_18_23_40.158,3.853,54.8,0,0.776,0,0,0,0, ,0,0,0,0,0, ,-41.8,179.4,986.2,-1,-0.5,-1.6,25,-38.7409,178.568,984.37,-0.905698,-0.741229,-1.93169,
2026_06_26_18_23_40.172,3.853,54.9,0,0.776,0,0,0,0, ,0,0,0,0,0, ,-42.8,180.1,987.9,-1.1,-1.1,-2,25,-38.9577,178.64,984.533,-0.914491,-0.74481,-1.92367,
2026_06_26_18_23_40.191,3.853,54.8,0,0.776,0,0,0,0, ,0,0,0,0,0, ,-35.2,177.1,988.1,-0.5,0.1,-2.6,25,-38.9603,178.637,984.745,-0.907515,-0.729892,-1.9466,
2026_06_26_18_23_40.211,3.853,54.9,0,0.775,0,0,0,0, ,0,0,0,0,0, ,-31,175.7,985.8,-0.5,1.5,-2.4,25,-38.6032,178.501,984.879,-0.882682,-0.636664,-1.98032,
2026_06_26_18_23_40.230,3.853,54.8,0,0.775,0,0,0,0, ,0,0,0,0,0, ,-24.7,175.7,994.1,-1.6,2.9,-1.8,25,-37.9479,178.33,985.188,-0.892878,-0.463805,-1.98761,
2026_06_26_18_23_40.250,3.853,54.8,0,0.778,0,0,0,0, ,0,0,0,0,0, ,-58.1,182.2,979.4,0.2,5,-3.5,25,-38.1583,178.368,985.283,-0.881124,-0.194839,-2.02798,
2026_06_26_18_23_40.270,3.853,54.7,0,0.776,0,0,0,0, ,0,0,0,0,0, ,-206,178.8,949.3,9.7,-6.5,-4.4,25,-43.8798,178.498,984.008,-0.52579,-0.228669,-2.1451,
2026_06_26_18_23_40.290,3.853,54.6,0,0.776,0,0,0,0, ,0,0,0,0,0, ,22.2,154.5,967.1,2.6,-12.5,-6.3,25,-46.806,177.776,982.435,-0.118984,-0.793641,-2.3404,
2026_06_26_18_23_40.310,3.853,54.7,0,0.778,0,0,0,0, ,0,0,0,0,0, ,-42.7,214.1,1032.3,2.3,1.2,-8.1,25,-44.5784,178.174,983.487,0.0375632,-1.08958,-2.63653,
2026_06_26_18_23_40.329,3.853,54.6,0,0.776,0,0,0,0, ,0,0,0,0,0, ,-7.3,161.2,972.2,-0.2,-4.8,-5.4,25,-43.3854,178.751,984.63,0.0992586,-1.13287,-2.8872,
2026_06_26_18_23_40.350,3.853,54.7,0,0.776,0,0,0,0, ,0,0,0,0,0, ,-19.6,195.8,984.1,1.4,1.5,-6.2,25,-41.5612,178.736,984.236,0.129773,-1.16438,-3.0647,
2026_06_26_18_23_40.370,3.853,54.7,0,0.776,0,0,0,0, ,0,0,0,0,0, ,7,176.1,999.7,6.7,12.6,-6.1,25,-39.4124,179.175,984.703,0.368661,-0.663816,-3.25271,
2026_06_26_18_23_40.389,3.853,54.5,0,0.776,0,0,0,0, ,0,0,0,0,0, ,-33.3,171.1,1030.6,8.1,18.9,-3.8,25,-37.8121,178.836,986.558,0.797134,0.336401,-3.35613,
2026_06_26_18_23_40.409,3.853,54.6,0,0.776,0,0,0,0, ,0,0,0,0,0, ,-77.2,209.9,987.6,-5.8,7.9,-3.9,25,-38.8747,179.546,987.932,0.818636,1.13246,-3.38623,
2026_06_26_18_23_40.431,3.853,54.6,0,0.775,0,0,0,0, ,0,0,0,0,0, ,-65.7,187.8,972.6,-4.7,-0.5,-3.6,25,-40.8598,180.723,987.454,0.448829,1.28892,-3.4084,
2026_06_26_18_23_40.448,3.853,54.5,0,0.776,0,0,0,0, ,0,0,0,0,0, ,-68.3,189.4,997.1,-5.2,-8.6,-3,25,-42.4527,181.203,987.296,0.119838,0.933114,-3.40179,
2026_06_26_18_23_40.468,3.853,54.6,0,0.777,0,0,0,0, ,0,0,0,0,0, ,-57.7,200.9,1012.5,-7.1,-17.3,-2.1,25,-43.7048,182.053,988.362,-0.26223,0.0871117,-3.34989,
2026_06_26_18_23_40.487,3.853,54.5,0,0.776,0,0,0,0, ,0,0,0,0,0, ,-49.6,194.3,1033.8,-11.3,-26.1,-1.4,25,-44.3108,183,990.482,-0.806876,-1.24054,-3.25239,
2026_06_26_18_23_40.507,3.853,54.6,0,0.776,0,0,0,0, ,0,0,0,0,0, ,-30.7,172.7,1028.3,-18.3,-41.4,0.8,25,-44.0573,183.031,992.954,-1.65958,-3.22159,-3.07248,
2026_06_26_18_23_40.527,3.853,54.4,0,0.775,0,0,0,0, ,0,0,0,0,0, ,5.6,173,1008.3,-24.3,-55.8,4.1,25,-42.1373,182.41,994.499,-2.85642,-5.98683,-2.73595,
2026_06_26_18_23_40.547,3.853,54.4,0,0.776,0,0,0,0, ,0,0,0,0,0, ,35.8,155.7,993.4,-28.8,-76.6,11,25,-38.3081,181.31,994.886,-4.30025,-9.65607,-2.10915,
2026_06_26_18_23_40.571,3.853,54.5,0,0.776,0,0,0,0, ,0,0,0,0,0, ,75.5,153,993.1,-32.5,-99.6,18.8,25,-32.5826,179.667,994.786,-5.90593,-14.4362,-1.07266,
2026_06_26_18_23_40.586,3.853,54.4,0,0.776,0,0,0,0, ,0,0,0,0,0, ,113.1,149.4,1014.4,-38.4,-120,26.1,25,-24.8507,177.932,995.332,-7.70628,-20.2475,0.360752,
2026_06_26_18_23_40.607,3.853,54.3,0,0.777,0,0,0,0, ,0,0,0,0,0, ,133.6,141.9,1028.4,-43.2,-116,27.8,25,-15.8197,175.965,996.921,-9.72292,-26.2043,1.98103,
2026_06_26_18_23_40.626,3.853,54.4,0,0.776,0,0,0,0, ,0,0,0,0,0, ,127.9,135.2,1065.9,-42.7,-102,18.4,25,-6.8881,173.685,999.982,-11.7477,-31.2496,3.26797,
2026_06_26_18_23_40.646,3.853,54.5,0,0.776,0,0,0,0, ,0,0,0,0,0, ,170,122.6,1040.5,-49,-96.1,11.3,25,2.60829,170.956,1003.22,-13.8258,-35.3812,3.97375,
2026_06_26_18_23_40.666,3.853,54.3,0,0.776,0,0,0,0, ,0,0,0,0,0, ,191.1,106,1026.2,-50.5,-91.3,8.6,25,13.4516,167.503,1005.06,-16.0149,-38.935,4.33793,
2026_06_26_18_23_40.686,3.853,54.3,0,0.773,0,0,0,0, ,0,0,0,0,0, ,222.2,87.2,1015.2,-48.5,-85.2,4.6,25,25.2246,163.183,1006.01,-18.0554,-41.9402,4.47577,
2026_06_26_18_23_40.710,3.853,54.3,0,0.776,0,0,0,0, ,0,0,0,0,0, ,264.6,60.7,994.3,-51.5,-92.1,5.2,25,38.5197,157.745,1005.94,-20.0021,-44.7865,4.50163,
2026_06_26_18_23_40.726,3.853,54.3,0,0.776,0,0,0,0, ,0,0,0,0,0, ,299.1,40.1,960.6,-48.5,-92.4,6.7,25,53.3476,151.204,1004.2,-21.8301,-47.6788,4.58989,
2026_06_26_18_23_40.745,3.853,54.2,0,0.776,0,0,0,0, ,0,0,0,0,0, ,303.4,29.1,957.7,-50,-97,7.9,25,68.4542,144.098,1001.46,-23.501,-50.5442,4.75503,
2026_06_26_18_23_40.765,3.853,54.3,0,0.776,0,0,0,0, ,0,0,0,0,0, ,326.4,16.1,941.5,-54.4,-106.9,6.1,25,83.472,136.694,998.295,-25.2498,-53.6767,4.89184,
2026_06_26_18_23_40.785,3.853,54.2,0,0.776,0,0,0,0, ,0,0,0,0,0, ,369.2,-8.4,914.4,-55.6,-110.9,2.2,25,99.5795,128.599,994.009,-27.0627,-57.0419,4.84663,
2026_06_26_18_23_40.804,3.853,54.2,0,0.778,0,0,0,0, ,0,0,0,0,0, ,417.6,-17.8,901.8,-54.7,-115.7,0.8,25,117.484,119.964,988.774,-28.7743,-60.4701,4.64269,
2026_06_26_18_23_40.824,3.853,54.2,0,0.775,0,0,0,0, ,0,0,0,0,0, ,467.2,-42.1,873.9,-52.2,-119.6,0.8,25,137.284,110.829,982.624,-30.278,-63.9545,4.40853,
2026_06_26_18_23_40.847,3.853,54.2,0,0.776,0,0,0,0, ,0,0,0,0,0, ,508.1,-77.1,853.1,-49.7,-117.3,2.9,25,158.634,100.443,975.365,-31.5377,-67.2753,4.25262,
2026_06_26_18_23_40.863,3.853,54.3,0,0.776,0,0,0,0, ,0,0,0,0,0, ,532.8,-86.1,823.4,-49.5,-118.9,4.5,25,180.682,89.3502,967.009,-32.6383,-70.3725,4.21894,
2026_06_26_18_23_40.884,3.853,54.1,0,0.775,0,0,0,0, ,0,0,0,0,0, ,579.4,-97.5,795.8,-53.5,-126.3,6.2,25,203.559,78.3114,957.417,-33.7877,-73.5551,4.28787,
2026_06_26_18_23_40.903,3.853,54,0,0.775,0,0,0,0, ,0,0,0,0,0, ,609.1,-116.6,760.2,-55.6,-123,6.5,25,227.367,67.0159,946.484,-35.0529,-76.6687,4.41353,
2026_06_26_18_23_40.923,3.853,54,0,0.776,0,0,0,0, ,0,0,0,0,0, ,632.4,-131.2,735.9,-62.8,-114.9,7.2,25,251.339,55.382,934.392,-36.5244,-79.2452,4.562,
2026_06_26_18_23_40.943,3.853,54,0,0.776,0,0,0,0, ,0,0,0,0,0, ,645.5,-133.5,687.6,-61,-106.8,4.9,25,274.959,43.9421,920.825,-38.0707,-81.1711,4.65268,
2026_06_26_18_23_40.963,3.853,54.2,0,0.775,0,0,0,0, ,0,0,0,0,0, ,678.1,-181.5,649,-54.8,-100,4.3,25,298.532,31.6667,905.436,-39.2791,-82.5257,4.64947,
2026_06_26_18_23_40.984,3.853,54.1,0,0.776,0,0,0,0, ,0,0,0,0,0, ,669.1,-177.2,630.8,-52,-108.3,2.6,25,321.388,18.8079,889.255,-40.1395,-83.8434,4.57637,
2026_06_26_18_23_41.002,3.853,54,0,0.774,0,0,0,0, ,0,0,0,0,0, ,695.8,-192.1,612.5,-55.3,-120.5,1.4,25,343.39,6.40964,872.948,-40.9628,-85.7055,4.41938,
2026_06_26_18_23_41.022,3.853,54.1,0,0.775,0,0,0,0, ,0,0,0,0,0, ,759.2,-215.2,573.9,-57.9,-112.5,2.4,25,366.797,-6.39087,855.901,-41.9157,-87.582,4.26585,
2026_06_26_18_23_41.042,3.853,53.8,0,0.776,0,0,0,0, ,0,0,0,0,0, ,781.6,-225.4,553.3,-46.9,-84.3,-0.7,25,391.391,-19.426,838.089,-42.5546,-88.2412,4.0577,
2026_06_26_18_23_41.061,3.853,54,0,0.775,0,0,0,0, ,0,0,0,0,0, ,767,-220.8,512.5,-37.1,-70.1,-5.7,25,414.725,-31.8373,819.491,-42.5208,-87.5684,3.61543,
2026_06_26_18_23_41.082,3.853,54,0,0.775,0,0,0,0, ,0,0,0,0,0, ,780.1,-232.7,486.2,-37.5,-75.9,-7.2,25,436.591,-43.7148,799.983,-42.2027,-86.6806,3.00207,
2026_06_26_18_23_41.101,3.853,54,0,0.775,0,0,0,0, ,0,0,0,0,0, ,820.1,-238,467,-43.5,-85,-4.5,25,458.742,-55.3926,780.277,-42.0989,-86.301,2.46265,
2026_06_26_18_23_41.121,3.853,53.8,0,0.775,0,0,0,0, ,0,0,0,0,0, ,856.8,-255.7,433.5,-45.1,-79.7,-1.4,25,481.88,-67.0595,760.166,-42.233,-86.0602,2.13281,
2026_06_26_18_23_41.141,3.853,53.8,0,0.774,0,0,0,0, ,0,0,0,0,0, ,845.3,-249.3,417.4,-33.6,-69.4,-4.1,25,504.377,-78.3598,739.769,-42.0574,-85.3588,1.83527,
2026_06_26_18_23_41.160,3.853,53.8,0,0.774,0,0,0,0, ,0,0,0,0,0, ,830.8,-238.2,409,-26.7,-65.2,-7.8,25,524.71,-88.4383,719.869,-41.3318,-84.2583,1.36085,
2026_06_26_18_23_41.180,3.853,54,0,0.776,0,0,0,0, ,0,0,0,0,0, ,830.5,-244.1,388.4,-28.5,-63.8,-13.4,25,543.353,-97.7441,700.297,-40.495,-83.0543,0.631989,
2026_06_26_18_23_41.199,3.853,54,0,0.774,0,0,0,0, ,0,0,0,0,0, ,857,-247.4,367.9,-30.7,-67.4,-15.5,25,561.659,-106.763,680.667,-39.8311,-81.9907,-0.28707,
2026_06_26_18_23_41.220,3.853,53.8,0,0.774,0,0,0,0, ,0,0,0,0,0, ,874.2,-249.1,355.9,-36.6,-69.6,-16.6,25,580.18,-115.385,661.242,-39.4544,-81.1686,-1.24762,
2026_06_26_18_23_41.239,3.853,54,0,0.774,0,0,0,0, ,0,0,0,0,0, ,875,-241.2,325.4,-37.7,-67.3,-20.5,25,598.121,-123.293,641.706,-39.314,-80.3936,-2.30199,
2026_06_26_18_23_41.261,3.853,53.7,0,0.776,0,0,0,0, ,0,0,0,0,0, ,880.2,-239.6,296,-35.3,-62.3,-28,25,615.152,-130.429,621.535,-39.1425,-79.4433,-3.63944,
2026_06_26_18_23_41.279,3.853,53.7,0,0.775,0,0,0,0, ,0,0,0,0,0, ,907.2,-258.3,250.4,-25.1,-55.3,-30.5,25,632.126,-137.651,600.308,-38.5976,-78.1854,-5.20009,
2026_06_26_18_23_41.298,3.853,53.7,0,0.776,0,0,0,0, ,0,0,0,0,0, ,881.5,-255.4,213.2,-13.7,-54.3,-37.9,25,648.105,-144.915,577.852,-37.4277,-76.7603,-6.96727,
2026_06_26_18_23_41.318,3.853,53.7,0,0.775,0,0,0,0, ,0,0,0,0,0, ,906.8,-236.5,231.5,-13.3,-59.4,-30.3,25,663.099,-151.072,556.189,-35.9696,-75.547,-8.62067,
2026_06_26_18_23_41.338,3.853,53.7,0,0.775,0,0,0,0, ,0,0,0,0,0, ,936.8,-233.2,205.6,-14.1,-73.3,-24.7,25,678.863,-156.177,535.614,-34.6126,-74.9866,-9.77113,
2026_06_26_18_23_41.358,3.853,53.7,0,0.776,0,0,0,0, ,0,0,0,0,0, ,959.3,-228.7,196.2,-12,-72.1,-20.1,25,695.267,-160.733,515.217,-33.2986,-74.8473,-10.5407,
2026_06_26_18_23_41.378,3.853,53.6,0,0.775,0,0,0,0, ,0,0,0,0,0, ,957.6,-214.5,174.6,-8.8,-60.5,-19.9,25,711.305,-164.443,495.119,-31.9032,-74.3264,-11.1171,
2026_06_26_18_23_41.399,3.853,53.6,0,0.775,0,0,0,0, ,0,0,0,0,0, ,960.8,-203.9,155.7,-8.2,-50.1,-18.3,25,726.411,-167.17,475.012,-30.4771,-73.167,-11.6036,
2026_06_26_18_23_41.418,3.853,53.6,0,0.776,0,0,0,0, ,0,0,0,0,0, ,970,-214.8,108.7,-7.6,-43.1,-15.7,25,740.974,-169.74,454.122,-29.1013,-71.5481,-11.9324,
2026_06_26_18_23_41.437,3.853,53.6,0,0.775,0,0,0,0, ,0,0,0,0,0, ,969.4,-202.7,84.7,-3.4,-49.3,-11.3,25,754.912,-172.117,432.341,-27.6631,-70.0034,-12.028,
2026_06_26_18_23_41.456,3.853,53.6,0,0.776,0,0,0,0, ,0,0,0,0,0, ,954.3,-190,82.1,-4.7,-56.6,-12.2,25,767.522,-173.594,411.078,-26.2242,-68.9642,-12.011,
2026_06_26_18_23_41.477,3.853,53.5,0,0.776,0,0,0,0, ,0,0,0,0,0, ,958.6,-179.6,76.6,-4.2,-51.2,-15.1,25,779.035,-174.277,390.863,-24.8973,-68.0462,-12.1109,
2026_06_26_18_23_41.496,3.853,53.5,0,0.775,0,0,0,0, ,0,0,0,0,0, ,951.5,-165.5,60.9,-0.9,-39.2,-21.1,25,789.761,-174.172,371.234,-23.5355,-66.6541,-12.4759,
2026_06_26_18_23_41.516,3.853,53.5,0,0.776,0,0,0,0, ,0,0,0,0,0, ,962.8,-173.5,30.8,0.9,-32.2,-23.5,25,799.961,-173.887,351.406,-22.1013,-64.7678,-13.0745,
2026_06_26_18_23_41.538,3.853,53.5,0,0.775,0,0,0,0, ,0,0,0,0,0, ,959.4,-170.1,-3.9,4.9,-28.4,-22.8,25,809.781,-173.76,330.812,-20.5778,-62.6674,-13.6885,
2026_06_26_18_23_41.556,3.853,53.5,0,0.776,0,0,0,0, ,0,0,0,0,0, ,949.2,-154.2,6.2,5.6,-34.7,-24.1,25,818.587,-173.052,310.723,-19.0039,-60.7712,-14.2833,
2026_06_26_18_23_41.575,3.853,53.4,0,0.776,0,0,0,0, ,0,0,0,0,0, ,963.2,-139.1,7.2,4.8,-38.3,-27.4,25,826.973,-171.443,292.197,-17.529,-59.2922,-14.9821,
2026_06_26_18_23_41.596,3.853,53.5,0,0.773,0,0,0,0, ,0,0,0,0,0, ,977,-137.3,1.3,4.5,-35.4,-30.6,25,835.695,-169.418,274.65,-16.1775,-57.9246,-15.8363,
2026_06_26_18_23_41.615,3.853,53.4,0,0.774,0,0,0,0, ,0,0,0,0,0, ,1007.8,-144.6,15.1,2,-26.7,-29.4,25,845.244,-167.683,258.413,-14.9936,-56.2869,-16.6994,
2026_06_26_18_23_41.635,3.853,53.3,0,0.774,0,0,0,0, ,0,0,0,0,0, ,1017.3,-140.9,14,-5.6,-19.7,-23.9,25,855.439,-166.164,243.553,-14.1896,-54.2707,-17.3058,
2026_06_26_18_23_41.655,3.853,53.3,0,0.775,0,0,0,0, ,0,0,0,0,0, ,993.6,-135.7,-8,-4.3,-18.4,-19.7,25,864.581,-164.466,228.894,-13.6266,-52.1244,-17.5796,
2026_06_26_18_23_41.678,3.853,53.4,0,0.774,0,0,0,0, ,0,0,0,0,0, ,950.3,-110.1,-28.9,-5.4,-23.3,-20,25,871.123,-161.933,213.822,-13.0918,-50.2186,-17.718,
2026_06_26_18_23_41.694,3.853,53.4,0,0.775,0,0,0,0, ,0,0,0,0,0, ,960.2,-102.2,-36,-5.4,-25.6,-21.8,25,876.25,-158.534,198.814,-12.623,-48.6484,-17.9119,
2026_06_26_18_23_41.714,3.853,53.3,0,0.774,0,0,0,0, ,0,0,0,0,0, ,974.8,-90,-31.9,-3.7,-21.3,-23.6,25,881.81,-154.729,184.63,-12.1311,-47.1128,-18.2037,
2026_06_26_18_23_41.734,3.853,53.3,0,0.775,0,0,0,0, ,0,0,0,0,0, ,973.9,-85.6,-31.8,-1.3,-9.1,-27.3,25,887.45,-150.65,171.439,-11.5442,-45.1682,-18.6452,
2026_06_26_18_23_41.754,3.853,53.3,0,0.775,0,0,0,0, ,0,0,0,0,0, ,981.5,-98.9,-38.6,-5.1,-0.4,-26.2,25,892.949,-147.092,158.847,-11.0357,-42.7052,-19.1391,
2026_06_26_18_23_41.773,3.853,53.3,0,0.774,0,0,0,0, ,0,0,0,0,0, ,980.9,-74.9,-52.3,-7,-2.6,-22.9,25,898.327,-143.424,146.397,-10.7319,-40.1942,-19.4688,
2026_06_26_18_23_41.794,3.853,53.3,0,0.774,0,0,0,0, ,0,0,0,0,0, ,978.8,-55.2,-68.2,-5.9,-11.6,-24.4,25,903.295,-138.648,133.805,-10.471,-38.1776,-19.7236,
2026_06_26_18_23_41.817,3.853,53.3,0,0.774,0,0,0,0, ,0,0,0,0,0, ,968.2,-47.8,-80,-2.4,-22.9,-27.9,25,907.573,-133.337,121.135,-10.0858,-36.9023,-20.1152,
2026_06_26_18_23_41.833,3.853,53.2,0,0.775,0,0,0,0, ,0,0,0,0,0, ,989.7,-56.6,-83.7,3.1,-22.6,-30.7,25,911.922,-128.393,108.766,-9.44986,-36.0399,-20.6749,
2026_06_26_18_23_41.853,3.853,53.1,0,0.774,0,0,0,0, ,0,0,0,0,0, ,1044.1,-56.1,-78,7,-11.6,-26.9,25,918.32,-124.003,97.2113,-8.56627,-34.8857,-21.1701,
2026_06_26_18_23_41.873,3.853,53.2,0,0.775,0,0,0,0, ,0,0,0,0,0, ,1060.7,-47.4,-63.4,4.8,-5.2,-18.5,25,926.49,-119.6,86.9792,-7.68473,-33.2718,-21.2633,
2026_06_26_18_23_41.892,3.853,53.2,0,0.775,0,0,0,0, ,0,0,0,0,0, ,1057.4,-36.9,-76.2,1.5,-6,-10.7,25,934.568,-114.88,77.4255,-7.02449,-31.5855,-20.8572,
2026_06_26_18_23_41.912,3.853,53.1,0,0.774,0,0,0,0, ,0,0,0,0,0, ,1019,-21.8,-83.9,2.9,-4.7,-7.7,25,940.883,-109.668,67.8293,-6.46238,-29.9868,-20.1469,
2026_06_26_18_23_41.931,3.853,53.1,0,0.773,0,0,0,0, ,0,0,0,0,0, ,996.5,-9.7,-72.8,2.1,-4.9,-8.4,25,944.958,-103.945,58.9215,-5.91623,-28.452,-19.4097,
2026_06_26_18_23_41.956,3.853,53.1,0,0.775,0,0,0,0, ,0,0,0,0,0, ,991.8,-14.1,-73.4,1.2,-5.7,-8.9,25,947.955,-98.3362,50.8764,-5.45516,-27.0411,-18.7541,
2026_06_26_18_23_41.971,3.853,53.1,0,0.774,0,0,0,0, ,0,0,0,0,0, ,993.4,-29.6,-83,0.2,-3,-8.5,25,950.676,-93.6753,43.0109,-5.08008,-25.6584,-18.1414,
2026_06_26_18_23_41.991,3.853,53,0,0.774,0,0,0,0, ,0,0,0,0,0, ,992.4,-29.2,-68.1,1.4,4.4,-6.6,25,953.249,-89.7585,35.786,-4.72177,-24.0522,-17.496,
2026_06_26_18_23_42.011,3.853,53.1,0,0.775,0,0,0,0, ,0,0,0,0,0, ,960.9,-6.4,-83.8,1,4.3,-7.4,25,954.675,-85.3736,28.9771,-4.36091,-22.3214,-16.8564,
2026_06_26_18_23_42.031,3.853,53,0,0.774,0,0,0,0, ,0,0,0,0,0, ,952.1,-5.9,-91.1,0.8,-3.4,-10.1,25,954.786,-80.5459,21.8824,-4.04032,-20.9338,-16.3624,
2026_06_26_18_23_42.050,3.853,53,0,0.774,0,0,0,0, ,0,0,0,0,0, ,960,-6.5,-83.6,1.6,-8.7,-12.2,25,954.863,-76.0154,15.226,-3.72099,-20.0268,-16.0448,
2026_06_26_18_23_42.071,3.853,53,0,0.774,0,0,0,0, ,0,0,0,0,0, ,991,-11.8,-68.4,1.4,-5.3,-11.6,25,956.121,-71.9408,9.66693,-3.40284,-19.233,-15.7922,
2026_06_26_18_23_42.095,3.853,53,0,0.775,0,0,0,0, ,0,0,0,0,0, ,1027.2,-8.9,-63.9,0,3.2,-9,25,959.349,-68.1876,5.04683,-3.15282,-18.125,-15.4575,
2026_06_26_18_23_42.109,3.853,53,0,0.775,0,0,0,0, ,0,0,0,0,0, ,999.7,-3.5,-69.7,-4.2,8.2,-7.2,25,962.646,-64.4103,0.668667,-3.08866,-16.6731,-15.0092,
2026_06_26_18_23_42.129,3.853,53.1,0,0.775,0,0,0,0, ,0,0,0,0,0, ,965.5,12,-72.1,-3.2,7.5,-9.8,25,963.862,-60.2263,-3.69255,-3.12592,-15.1788,-14.6125,
2026_06_26_18_23_42.149,3.853,52.9,0,0.775,0,0,0,0, ,0,0,0,0,0, ,978.2,0.9,-75.3,-2.8,4.2,-12.7,25,964.349,-56.1632,-7.95863,-3.11824,-13.8973,-14.4076,
2026_06_26_18_23_42.168,3.853,52.9,0,0.775,0,0,0,0, ,0,0,0,0,0, ,1000.1,-5.9,-67.5,-1.8,2.8,-10.6,25,965.86,-52.8931,-11.8246,-3.06838,-12.8372,-14.2396,
2026_06_26_18_23_42.189,3.853,53,0,0.776,0,0,0,0, ,0,0,0,0,0, ,1012.4,6.4,-69.7,-3.8,3,-6.9,25,968.321,-49.6547,-15.2843,-3.05203,-11.8782,-13.905,
2026_06_26_18_23_42.208,3.853,52.9,0,0.775,0,0,0,0, ,0,0,0,0,0, ,1017.3,1.2,-74.7,-4.6,6.4,-3.1,25,971.157,-46.3973,-18.7526,-3.12198,-10.8679,-13.3624,
2026_06_26_18_23_42.228,3.853,52.9,0,0.775,0,0,0,0, ,0,0,0,0,0, ,1005.7,-2.4,-78.8,-2.1,8.5,0,25,973.615,-43.6065,-22.2868,-3.13588,-9.7517,-12.6426,
2026_06_26_18_23_42.248,3.853,52.8,0,0.774,0,0,0,0, ,0,0,0,0,0, ,981.3,13.1,-73.3,-0.6,6.7,0,25,974.827,-40.6232,-25.563,-3.02705,-8.69433,-11.8722,
2026_06_26_18_23_42.268,3.853,52.8,0,0.775,0,0,0,0, ,0,0,0,0,0, ,971.5,20.7,-71,-0.4,3.6,-3,25,974.923,-37.1179,-28.4019,-2.87306,-7.85069,-11.2401,
2026_06_26_18_23_42.287,3.853,52.8,0,0.775,0,0,0,0, ,0,0,0,0,0, ,996.5,7.4,-71.1,0,3.3,-3.8,25,975.476,-33.9999,-31.0008,-2.71017,-7.16205,-10.7624,
2026_06_26_18_23_42.308,3.853,52.8,0,0.774,0,0,0,0, ,0,0,0,0,0, ,1006.4,3.4,-60.1,0.5,6.1,-1.2,25,977.059,-31.5989,-33.1092,-2.52978,-6.43921,-10.2589,
2026_06_26_18_23_42.328,3.853,52.8,0,0.774,0,0,0,0, ,0,0,0,0,0, ,994.3,14.5,-44.7,-0.6,6.5,0.7,25,978.478,-29.128,-34.2847,-2.37867,-5.66292,-9.64896,
2026_06_26_18_23_42.347,3.853,52.7,0,0.775,0,0,0,0, ,0,0,0,0,0, ,980.7,16.6,-55.9,-1.3,4.5,-0.4,25,979.028,-26.4054,-35.2607,-2.29161,-4.98268,-9.05183,
2026_06_26_18_23_42.367,3.853,52.7,0,0.774,0,0,0,0, ,0,0,0,0,0, ,970.7,17.9,-52.7,0,1.9,-3.1,25,978.825,-23.7452,-36.4209,-2.19158,-4.48404,-8.60688,
2026_06_26_18_23_42.387,3.853,52.7,0,0.775,0,0,0,0, ,0,0,0,0,0, ,977.1,18,-45.4,0.4,-0.8,-6,25,978.525,-21.2044,-37.1905,-2.04584,-4.17728,-8.35966,
2026_06_26_18_23_42.407,3.853,52.9,0,0.774,0,0,0,0, ,0,0,0,0,0, ,1004.3,11.2,-39.3,0.6,0.7,-5.8,25,979.267,-19.0225,-37.5049,-1.8907,-3.92578,-8.20978,
2026_06_26_18_23_42.427,3.853,52.7,0,0.774,0,0,0,0, ,0,0,0,0,0, ,1011.2,11.2,-35.8,-0.4,3.7,-2.9,25,981.002,-17.1809,-37.5076,-1.76939,-3.55249,-7.97457,
2026_06_26_18_23_42.446,3.853,52.7,0,0.774,0,0,0,0, ,0,0,0,0,0, ,995.9,9.3,-37.2,-3,4.7,-0.8,25,982.376,-15.5093,-37.4462,-1.76517,-3.08007,-7.60135,
2026_06_26_18_23_42.465,3.853,52.7,0,0.775,0,0,0,0, ,0,0,0,0,0, ,977.1,16.9,-48.5,-3.7,3.2,-1.1,25,982.628,-13.7659,-37.7755,-1.86174,-2.65167,-7.19604,
2026_06_26_18_23_42.486,3.853,52.6,0,0.774,0,0,0,0, ,0,0,0,0,0, ,990.7,14.1,-57.7,-2.9,1.1,-2.5,25,982.705,-11.9825,-38.7093,-1.94938,-2.35907,-6.86722,
2026_06_26_18_23_42.506,3.853,52.7,0,0.773,0,0,0,0, ,0,0,0,0,0, ,988.5,12,-64.9,-0.6,0,-2.1,25,983.125,-10.4571,-40.086,-1.93723,-2.1818,-6.5889,
2026_06_26_18_23_42.525,3.853,52.7,0,0.775,0,0,0,0, ,0,0,0,0,0, ,988.5,9,-49.3,0.3,-0.1,-2.1,25,983.453,-9.18003,-41.1228,-1.82833,-2.05189,-6.31536,
2026_06_26_18_23_42.545,3.853,52.6,0,0.774,0,0,0,0, ,0,0,0,0,0, ,987.5,17.2,-34.6,0,-0.4,-2.4,25,983.73,-7.82234,-41.1732,-1.70777,-1.94209,-6.06763,
2026_06_26_18_23_42.565,3.853,52.5,0,0.776,0,0,0,0, ,0,0,0,0,0, ,1000.3,17.2,-41.2,-1.7,1.9,-2.9,25,984.35,-6.29754,-40.9737,-1.6555,-1.77804,-5.85936,
2026_06_26_18_23_42.585,3.853,52.5,0,0.774,0,0,0,0, ,0,0,0,0,0, ,998.4,15.6,-47.4,-2.3,3.6,-2.4,25,985.264,-4.91441,-41.1764,-1.67649,-1.50211,-5.66379,
2026_06_26_18_23_42.605,3.853,52.5,0,0.773,0,0,0,0, ,0,0,0,0,0, ,983.1,17.3,-48.3,-1.6,2.4,-2.5,25,985.598,-3.61251,-41.5831,-1.69316,-1.22777,-5.46795,
2026_06_26_18_23_42.624,3.853,52.6,0,0.774,0,0,0,0, ,0,0,0,0,0, ,977.7,15,-45.6,-1.3,1.4,-2.9,25,985.281,-2.40824,-41.9101,-1.67834,-1.03717,-5.29928,
2026_06_26_18_23_42.644,3.853,52.5,0,0.774,0,0,0,0, ,0,0,0,0,0, ,977.1,15,-36.8,-1.8,-0.4,-4,25,984.801,-1.34742,-41.8668,-1.67052,-0.943497,-5.18659,
2026_06_26_18_23_42.668,3.853,52.5,0,0.774,0,0,0,0, ,0,0,0,0,0, ,986.2,21.4,-37.8,-2.2,-0.3,-4.5,25,984.609,-0.15625,-41.5886,-1.6906,-0.907331,-5.12952,
2026_06_26_18_23_42.683,3.853,52.4,0,0.774,0,0,0,0, ,0,0,0,0,0, ,998.4,15.3,-35.1,-2.8,1.8,-4,25,985.078,0.971474,-41.2754,-1.73992,-0.806337,-5.07592,
2026_06_26_18_23_42.703,3.853,52.5,0,0.774,0,0,0,0, ,0,0,0,0,0, ,996.5,18.9,-32.7,-1.8,3.8,-2.5,25,985.832,1.95431,-40.826,-1.77405,-0.586576,-4.96465,
2026_06_26_18_23_42.723,3.853,52.5,0,0.775,0,0,0,0, ,0,0,0,0,0, ,995.2,19.5,-41.9,-2.1,5.3,-2.1,25,986.442,3.00522,-40.6111,-1.78477,-0.273566,-4.80228,
2026_06_26_18_23_42.743,3.853,52.5,0,0.774,0,0,0,0, ,0,0,0,0,0, ,1000.2,25,-37.2,-1.9,3.9,-2.7,25,987.128,4.17794,-40.5465,-1.79789,0.0234168,-4.65589,
2026_06_26_18_23_42.763,3.853,52.4,0,0.773,0,0,0,0, ,0,0,0,0,0, ,1002,23,-39.1,-1.9,0.3,-3,25,987.98,5.38585,-40.4004,-1.80411,0.149959,-4.54584,
2026_06_26_18_23_42.782,3.853,52.4,0,0.774,0,0,0,0, ,0,0,0,0,0, ,1000.9,15.1,-37.2,-2.2,-1.7,-2.3,25,988.8,6.21851,-40.2633,-1.8191,0.0981642,-4.43031,
2026_06_26_18_23_42.802,3.853,52.4,0,0.774,0,0,0,0, ,0,0,0,0,0, ,1001.5,16.1,-36.1,-1.6,0,-1.1,25,989.556,6.79019,-40.0431,-1.82403,0.0403855,-4.26394,
2026_06_26_18_23_42.822,3.853,52.4,0,0.774,0,0,0,0, ,0,0,0,0,0, ,995.3,19.5,-45.7,-1.1,1.2,-0.6,25,990.095,7.4611,-40.0953,-1.79514,0.074487,-4.0559,
2026_06_26_18_23_42.841,3.853,52.4,0,0.774,0,0,0,0, ,0,0,0,0,0, ,986.6,23.5,-41,0,1.6,-1,25,990.147,8.3166,-40.2937,-1.71926,0.15526,-3.85749,
2026_06_26_18_23_42.861,3.853,52.3,0,0.775,0,0,0,0, ,0,0,0,0,0, ,985.1,24.4,-33.3,-0.4,1.5,-2,25,989.885,9.26926,-40.1021,-1.62668,0.240252,-3.71383,
2026_06_26_18_23_42.881,3.853,52.3,0,0.774,0,0,0,0, ,0,0,0,0,0, ,985.3,14.8,-29,-1.1,0.9,-1.8,25,989.6,9.89879,-39.5566,-1.57326,0.298737,-3.6033,
2026_06_26_18_23_42.901,3.853,52.3,0,0.775,0,0,0,0, ,0,0,0,0,0, ,983.7,16.9,-33,-1.6,0,-1.5,25,989.289,10.2614,-39.0352,-1.55966,0.307955,-3.48427,
2026_06_26_18_23_42.921,3.853,52.3,0,0.774,0,0,0,0, ,0,0,0,0,0, ,994.3,12.4,-34.5,-0.7,0,-1.3,25,989.271,10.5289,-38.7131,-1.53469,0.289189,-3.35726,
2026_06_26_18_23_42.940,3.853,52.3,0,0.775,0,0,0,0, ,0,0,0,0,0, ,999,15,-30.5,0.4,-0.4,-0.3,25,989.721,10.7221,-38.3345,-1.45031,0.259379,-3.20143,
2026_06_26_18_23_42.960,3.853,52.1,0,0.775,0,0,0,0, ,0,0,0,0,0, ,992.4,10,-28.3,-0.6,-0.2,0.7,25,990.085,10.8304,-37.79,-1.36803,0.225292,-2.99416,
2026_06_26_18_23_42.980,3.853,52.3,0,0.775,0,0,0,0, ,0,0,0,0,0, ,977.6,22.3,-33.3,-0.7,0.4,-0.3,25,989.775,11.1546,-37.3641,-1.32427,0.217657,-2.79951,
2026_06_26_18_23_43.000,3.853,52.3,0,0.774,0,0,0,0, ,0,0,0,0,0, ,985.8,24.9,-33.5,-0.1,-0.1,-2.3,25,989.283,11.913,-37.1225,-1.26795,0.213534,-2.70813,
2026_06_26_18_23_43.020,3.853,52.1,0,0.775,0,0,0,0, ,0,0,0,0,0, ,996.8,20.8,-26.4,0.7,-0.3,-2,25,989.406,12.5795,-36.6854,-1.1724,0.188334,-2.67412,
2026_06_26_18_23_43.040,3.853,52.1,0,0.776,0,0,0,0, ,0,0,0,0,0, ,994.9,21.8,-23.9,-0.4,0.6,-2.1,25,989.799,13.1109,-35.9825,-1.09182,0.185998,-2.63609,
2026_06_26_18_23_43.059,3.853,52.1,0,0.774,0,0,0,0, ,0,0,0,0,0, ,991.6,17.3,-33.2,-1.3,0.8,-2.3,25,990.009,13.5033,-35.5296,-1.07708,0.21732,-2.60952,
2026_06_26_18_23_43.080,3.853,52,0,0.773,0,0,0,0, ,0,0,0,0,0, ,1002.4,11.4,-36.3,-1.3,0,-1.7,25,990.435,13.5549,-35.4821,-1.09067,0.228452,-2.57237,
2026_06_26_18_23_43.099,3.853,52.1,0,0.775,0,0,0,0, ,0,0,0,0,0, ,1001.2,15,-35,-0.4,-0.7,0,25,991.128,13.5332,-35.4923,-1.076,0.193203,-2.46742,
2026_06_26_18_23_43.119,3.853,52,0,0.773,0,0,0,0, ,0,0,0,0,0, ,983.7,22.3,-28.8,-0.7,0.4,-0.6,25,991.208,13.845,-35.2734,-1.04395,0.172289,-2.33534,
2026_06_26_18_23_43.139,3.853,52,0,0.775,0,0,0,0, ,0,0,0,0,0, ,979,21.4,-30.8,-1,1.2,-1.9,25,990.608,14.3328,-34.9399,-1.03213,0.21054,-2.2692,
2026_06_26_18_23_43.159,3.853,52,0,0.776,0,0,0,0, ,0,0,0,0,0, ,982.6,21.9,-30.1,-1.4,0.6,-3.6,25,990.01,14.7787,-34.6663,-1.04236,0.252554,-2.2985,
2026_06_26_18_23_43.178,3.853,52,0,0.774,0,0,0,0, ,0,0,0,0,0, ,1003.1,15.8,-33.6,-0.3,-0.2,-3.3,25,990.183,15.0268,-34.4947,-1.03064,0.249351,-2.36867,
2026_06_26_18_23_43.199,3.853,52,0,0.774,0,0,0,0, ,0,0,0,0,0, ,1001.9,14.7,-27.7,-0.2,-0.1,-1.7,25,990.934,15.0404,-34.2604,-0.983067,0.225016,-2.37667,
2026_06_26_18_23_43.218,3.853,51.9,0,0.774,0,0,0,0, ,0,0,0,0,0, ,994,17.5,-28,-0.8,1.1,-1.3,25,991.361,15.105,-33.8697,-0.953631,0.241773,-2.32325,
2026_06_26_18_23_43.240,3.853,51.9,0,0.773,0,0,0,0, ,0,0,0,0,0, ,991.3,19.4,-25.6,-0.8,1.7,-1,25,991.44,15.3088,-33.4389,-0.944269,0.312352,-2.25176,
2026_06_26_18_23_43.257,3.853,51.8,0,0.773,0,0,0,0, ,0,0,0,0,0, ,979.6,23.6,-27,-0.2,0.9,-2.1,25,991.075,15.6861,-33.0039,-0.917196,0.372537,-2.20899,
2026_06_26_18_23_43.277,3.853,51.9,0,0.775,0,0,0,0, ,0,0,0,0,0, ,982.7,22.7,-26,-0.5,0.5,-2.8,25,990.47,16.1409,-32.6076,-0.882633,0.392492,-2.22368,
2026_06_26_18_23_43.296,3.853,51.9,0,0.774,0,0,0,0, ,0,0,0,0,0, ,990.4,13.3,-27.7,-0.1,0.1,-2.4,25,990.231,16.2542,-32.2567,-0.847128,0.386856,-2.24661,
2026_06_26_18_23_43.317,3.853,51.9,0,0.775,0,0,0,0, ,0,0,0,0,0, ,989.8,13.6,-30.1,0.1,0.1,-1.5,25,990.223,16.0833,-32.0522,-0.795507,0.369375,-2.22854,
2026_06_26_18_23_43.336,3.853,51.8,0,0.774,0,0,0,0, ,0,0,0,0,0, ,989.2,15.9,-26.2,0,-1.1,-2,25,990.179,16.0021,-31.8144,-0.743983,0.316398,-2.19938,
2026_06_26_18_23_43.356,3.853,51.8,0,0.776,0,0,0,0, ,0,0,0,0,0, ,987.7,17,-15.3,-0.2,-0.4,-2.3,25,990.074,16.0294,-31.1401,-0.704741,0.251414,-2.19637,
2026_06_26_18_23_43.380,3.853,51.8,0,0.774,0,0,0,0, ,0,0,0,0,0, ,982.6,19.6,-14.4,-0.9,0.5,-2.6,25,989.774,16.1677,-30.1475,-0.695311,0.23914,-2.21182,
2026_06_26_18_23_43.396,3.853,51.7,0,0.774,0,0,0,0, ,0,0,0,0,0, ,986.3,14.6,-29.5,-1.8,0.3,-2.8,25,989.449,16.2246,-29.6479,-0.735206,0.248943,-2.24157,
2026_06_26_18_23_43.415,3.853,51.7,0,0.773,0,0,0,0, ,0,0,0,0,0, ,998.1,10.8,-30.7,-0.7,1.5,-2,25,989.617,16.0098,-29.6755,-0.766577,0.288617,-2.25123,
2026_06_26_18_23_43.435,3.853,51.8,0,0.774,0,0,0,0, ,0,0,0,0,0, ,984.6,18.6,-20.9,0,0.3,-1.2,25,989.722,15.93,-29.4393,-0.741191,0.325873,-2.21154,
2026_06_26_18_23_43.455,3.853,51.7,0,0.773,0,0,0,0, ,0,0,0,0,0, ,975.5,26.9,-14.7,-1.2,-1.6,-2.5,25,989.133,16.3456,-28.73,-0.732588,0.266406,-2.18951,
2026_06_26_18_23_43.475,3.853,51.7,0,0.772,0,0,0,0, ,0,0,0,0,0, ,989.3,22.2,-22,-1.7,-1,-4.2,25,988.723,16.8455,-28.0975,-0.776305,0.170953,-2.26023,
2026_06_26_18_23_43.495,3.853,51.7,0,0.775,0,0,0,0, ,0,0,0,0,0, ,1009.6,15.9,-25.1,-1.5,1,-3.1,25,989.376,16.9799,-27.8204,-0.826499,0.160535,-2.34492,
2026_06_26_18_23_43.521,3.853,51.7,0,0.774,0,0,0,0, ,0,0,0,0,0, ,993.1,24.5,-27.2,-1.3,0.2,-1.6,25,990.106,17.1761,-27.7186,-0.861447,0.187315,-2.34523,
2026_06_26_18_23_43.534,3.853,51.7,0,0.773,0,0,0,0, ,0,0,0,0,0, ,978.3,23.5,-29.6,-1.9,-0.8,-2.6,25,989.838,17.5919,-27.7601,-0.906452,0.157619,-2.33028,
2026_06_26_18_23_43.554,3.853,51.6,0,0.774,0,0,0,0, ,0,0,0,0,0, ,986.4,24.1,-31.4,-1.7,-1,-3.7,25,989.381,17.9702,-27.9271,-0.960903,0.0931707,-2.38023,
2026_06_26_18_23_43.574,3.853,51.6,0,0.775,0,0,0,0, ,0,0,0,0,0, ,995.9,22.9,-32.8,-1.4,-0.2,-3.9,25,989.489,18.3072,-28.1814,-0.996801,0.0509306,-2.46675,
2026_06_26_18_23_43.594,3.853,51.6,0,0.775,0,0,0,0, ,0,0,0,0,0, ,1002,17.3,-27.5,-1.1,-0.7,-3,25,990.066,18.4164,-28.3013,-1.01223,0.0204052,-2.52667,
2026_06_26_18_23_43.614,3.853,51.6,0,0.773,0,0,0,0, ,0,0,0,0,0, ,983.2,27.9,-16.3,-0.2,0.1,-2.5,25,990.22,18.6714,-27.9113,-0.990157,0.000880502,-2.54028,
2026_06_26_18_23_43.633,3.853,51.6,0,0.774,0,0,0,0, ,0,0,0,0,0, ,977.4,27.5,-14.5,-2,-0.1,-3.4,25,989.616,19.2216,-27.1489,-0.99685,0.000826847,-2.56524,
2026_06_26_18_23_43.659,3.853,51.6,0,0.774,0,0,0,0, ,0,0,0,0,0, ,981.8,24.1,-20.2,-2.5,-0.1,-4.9,25,989.005,19.6224,-26.5517,-1.07321,-0.00531729,-2.66182,
2026_06_26_18_23_43.673,3.853,51.6,0,0.774,0,0,0,0, ,0,0,0,0,0, ,994.7,22,-17.9,-2.6,0.1,-5.1,25,988.959,19.8313,-26.0946,-1.16321,-0.00499327,-2.8043,
2026_06_26_18_23_43.692,3.853,51.6,0,0.774,0,0,0,0, ,0,0,0,0,0, ,1059.6,23.6,-24.1,-2.5,0.1,-3.2,25,991.286,20.0122,-25.7841,-1.24771,0.00140476,-2.8863,
2026_06_26_18_23_43.713,3.853,51.5,0,0.775,0,0,0,0, ,0,0,0,0,0, ,988.4,34.7,-35.4,-0.7,0.9,0,25,993.28,20.569,-26.0258,-1.26918,0.0317879,-2.80792,
2026_06_26_18_23_43.733,3.853,51.5,0,0.775,0,0,0,0, ,0,0,0,0,0, ,993.4,29.2,-29.2,-2.1,-0.7,-1.9,25,993.135,21.2626,-26.4081,-1.27715,0.0359446,-2.6947,
2026_06_26_18_23_43.752,3.853,51.5,0,0.773,0,0,0,0, ,0,0,0,0,0, ,989.7,26,-27.2,-1.1,0.9,-1.4,25,993.038,21.6488,-26.5173,-1.29683,0.039848,-2.63104,
2026_06_26_18_23_43.772,3.853,51.5,0,0.774,0,0,0,0, ,0,0,0,0,0, ,990.6,26.7,-20.6,-1.7,1.3,-1.5,25,992.862,21.9352,-26.3578,-1.30311,0.104451,-2.55907,
2026_06_26_18_23_43.791,3.853,51.4,0,0.775,0,0,0,0, ,0,0,0,0,0, ,990.4,27.5,-29.2,-0.1,1.4,-1.3,25,992.718,22.25,-26.269,-1.27855,0.180352,-2.48844,
2026_06_26_18_23_43.811,3.853,51.4,0,0.774,0,0,0,0, ,0,0,0,0,0, ,990.1,28.3,-23.6,0.1,1.4,-1.8,25,992.568,22.5943,-26.277,-1.20064,0.254674,-2.43125,
2026_06_26_18_23_43.831,3.853,51.4,0,0.773,0,0,0,0, ,0,0,0,0,0, ,991.5,26.1,-19.2,0,1,-1.9,25,992.46,22.8749,-25.9798,-1.12443,0.31228,-2.39583,
2026_06_26_18_23_43.851,3.853,51.4,0,0.774,0,0,0,0, ,0,0,0,0,0, ,989.9,24.4,-15.3,-0.6,0.4,-1.1,25,992.353,23.0197,-25.4478,-1.07419,0.335906,-2.34124,
2026_06_26_18_23_43.871,3.853,51.5,0,0.774,0,0,0,0, ,0,0,0,0,0, ,990.4,30,-22.5,-0.2,0.4,-1.5,25,992.219,23.2744,-25.0488,-1.0331,0.339812,-2.27779,
2026_06_26_18_23_43.894,3.853,51.4,0,0.774,0,0,0,0, ,0,0,0,0,0, ,990.8,29.4,-19.6,0,0.5,-1.8,25,992.12,23.666,-24.8051,-0.976244,0.346527,-2.23954,
2026_06_26_18_23_43.910,3.853,51.3,0,0.773,0,0,0,0, ,0,0,0,0,0, ,991.5,24,-14.1,-0.6,0.1,-1.8,25,992.061,23.8508,-24.3204,-0.935035,0.343691,-2.21275,
2026_06_26_18_23_43.935,3.853,51.3,0,0.774,0,0,0,0, ,0,0,0,0,0, ,990.4,24.5,-17.3,-0.8,-0.3,-1.9,25,991.993,23.8752,-23.7951,-0.920713,0.316654,-2.19065,
2026_06_26_18_23_43.950,3.853,51.3,0,0.773,0,0,0,0, ,0,0,0,0,0, ,990.8,26.9,-18.4,-0.6,-0.4,-1.8,25,991.908,23.9864,-23.4328,-0.907263,0.27603,-2.16989,
2026_06_26_18_23_43.969,3.853,51.4,0,0.773,0,0,0,0, ,0,0,0,0,0, ,991.3,29.4,-16.6,-0.1,-0.7,-1.6,25,991.856,24.2401,-23.0713,-0.873305,0.225694,-2.14126,
2026_06_26_18_23_43.990,3.853,51.3,0,0.774,0,0,0,0, ,0,0,0,0,0, ,991.9,24.9,-15.9,-0.5,-1.2,-1.4,25,991.84,24.4174,-22.6556,-0.838369,0.15405,-2.10218,
2026_06_26_18_23_44.010,3.853,51.2,0,0.774,0,0,0,0, ,0,0,0,0,0, ,990.2,22.4,-18.3,-1.1,-1.2,-2.1,25,991.792,24.3706,-22.317,-0.836031,0.0715374,-2.08072,
2026_06_26_18_23_44.030,3.853,51.2,0,0.774,0,0,0,0, ,0,0,0,0,0, ,990.6,27.7,-21.8,-0.9,-1.2,-2,25,991.707,24.412,-22.1789,-0.846023,-0.00594692,-2.07885,
2026_06_26_18_23_44.049,3.853,51.2,0,0.773,0,0,0,0, ,0,0,0,0,0, ,989.9,26.2,-21.7,-0.9,-1,-1.6,25,991.619,24.5667,-22.1528,-0.849312,-0.0726158,-2.06185,
2026_06_26_18_23_44.069,3.853,51.2,0,0.773,0,0,0,0, ,0,0,0,0,0, ,991,26.3,-25.2,-0.4,-0.9,-1.5,25,991.547,24.6693,-22.2318,-0.837166,-0.126081,-2.03066,
2026_06_26_18_23_44.089,3.853,51.2,0,0.774,0,0,0,0, ,0,0,0,0,0, ,990.1,26.2,-17.9,0,-0.3,-1.6,25,991.487,24.7656,-22.1903,-0.798339,-0.154961,-2.00137,
2026_06_26_18_23_44.108,3.853,51.2,0,0.774,0,0,0,0, ,0,0,0,0,0, ,990.2,23.8,-19,-1,-0.7,-1.7,25,991.405,24.7799,-21.9623,-0.780159,-0.175987,-1.97996,
2026_06_26_18_23_44.128,3.853,51.2,0,0.773,0,0,0,0, ,0,0,0,0,0, ,991.8,28.1,-18.3,-1,-1.3,-1.6,25,991.38,24.8512,-21.7605,-0.793556,-0.2262,-1.95985,
2026_06_26_18_23_44.148,3.853,51.2,0,0.773,0,0,0,0, ,0,0,0,0,0, ,990.3,26.1,-16.7,-0.8,-1.8,-1.2,25,991.36,24.9882,-21.5009,-0.800042,-0.306869,-1.92574,
2026_06_26_18_23_44.168,3.853,51.1,0,0.774,0,0,0,0, ,0,0,0,0,0, ,991.5,20.8,-23.5,-1.7,-1.9,-1.5,25,991.332,24.8945,-21.4155,-0.827461,-0.400904,-1.89065,
2026_06_26_18_23_44.187,3.853,51.2,0,0.773,0,0,0,0, ,0,0,0,0,0, ,991,21.7,-25.3,-1.8,-0.9,-2.6,25,991.327,24.6724,-21.5974,-0.883679,-0.461786,-1.90036,
2026_06_26_18_23_44.207,3.853,51.1,0,0.775,0,0,0,0, ,0,0,0,0,0, ,991,20.1,-17.7,-0.6,0.9,-1.9,25,991.307,24.4425,-21.5914,-0.902954,-0.433646,-1.92167,
2026_06_26_18_23_44.227,3.853,51.1,0,0.774,0,0,0,0, ,0,0,0,0,0, ,992.9,41.2,-16.4,-0.7,2.7,-0.3,25,991.346,24.8208,-21.3147,-0.88754,-0.297533,-1.8716,
2026_06_26_18_23_44.247,3.853,51.1,0,0.773,0,0,0,0, ,0,0,0,0,0, ,990.2,30,-49.9,-2.4,-1.1,-2.8,25,991.359,25.4777,-22.0359,-0.927909,-0.230652,-1.852,
2026_06_26_18_23_44.266,3.853,51.1,0,0.775,0,0,0,0, ,0,0,0,0,0, ,989.9,19.7,-12.5,1.1,2.8,0.1,25,991.279,25.4394,-22.5943,-0.910974,-0.1648,-1.82141,
2026_06_26_18_23_44.286,3.853,51,0,0.775,0,0,0,0, ,0,0,0,0,0, ,991.9,32.7,-30.2,-1,2.2,-0.9,25,991.256,25.4858,-22.5185,-0.852414,-0.0024137,-1.73479,
2026_06_26_18_23_44.306,3.853,51.1,0,0.774,0,0,0,0, ,0,0,0,0,0, ,988.1,30.2,-9.2,1.9,5,2.3,25,991.179,25.8492,-22.3468,-0.773048,0.217108,-1.58642,
2026_06_26_18_23_44.326,3.853,51,0,0.776,0,0,0,0, ,0,0,0,0,0, ,990.8,28.9,-24,-1.3,0.2,-1.7,25,991.074,26.0747,-21.9966,-0.70766,0.362316,-1.47147,
2026_06_26_18_23_44.346,3.853,51,0,0.775,0,0,0,0, ,0,0,0,0,0, ,990.4,27.2,-16.4,-0.4,1.2,-1.6,25,991.045,26.1951,-21.8871,-0.716333,0.382893,-1.48235,
2026_06_26_18_23_44.366,3.853,51,0,0.775,0,0,0,0, ,0,0,0,0,0, ,990.9,21.9,-15.5,-0.8,1.4,-1.8,25,991.021,26.0948,-21.5253,-0.709244,0.43878,-1.49561,
2026_06_26_18_23_44.385,3.853,51,0,0.774,0,0,0,0, ,0,0,0,0,0, ,990.3,28.1,-9.6,-1.9,1.1,-1.6,25,990.995,26.0281,-20.9784,-0.74829,0.488213,-1.50807,
2026_06_26_18_23_44.406,3.853,50.9,0,0.773,0,0,0,0, ,0,0,0,0,0, ,989.9,26.4,-8.7,-2.1,0.2,-1.1,25,990.941,26.1026,-20.2576,-0.824566,0.498072,-1.49843,
2026_06_26_18_23_44.425,3.853,51,0,0.774,0,0,0,0, ,0,0,0,0,0, ,990.1,22.3,-14.8,-1,0.1,-1.3,25,990.884,25.9958,-19.7391,-0.868773,0.476862,-1.48025,
2026_06_26_18_23_44.445,3.853,51,0,0.774,0,0,0,0, ,0,0,0,0,0, ,990.4,23.1,-16.3,-1.3,0.3,-1.6,25,990.845,25.7949,-19.4839,-0.88591,0.45999,-1.47841,
2026_06_26_18_23_44.464,3.853,50.9,0,0.773,0,0,0,0, ,0,0,0,0,0, ,989.6,29.2,-6.2,-2.1,0,-1.4,25,990.793,25.8166,-18.9821,-0.935518,0.4411,-1.47972,
2026_06_26_18_23_44.485,3.853,50.9,0,0.774,0,0,0,0, ,0,0,0,0,0, ,990.7,23.9,-5.8,-2.6,-1.3,-0.3,25,990.754,25.8613,-18.191,-1.02171,0.374611,-1.44135,
2026_06_26_18_23_44.504,3.853,50.9,0,0.774,0,0,0,0, ,0,0,0,0,0, ,991.3,22.4,-13.1,-1.4,-2,-0.4,25,990.769,25.6961,-17.6584,-1.08133,0.251237,-1.37484,
2026_06_26_18_23_44.524,3.853,50.9,0,0.773,0,0,0,0, ,0,0,0,0,0, ,991,21.3,-16.1,-0.9,-1.5,-0.9,25,990.792,25.4617,-17.472,-1.08551,0.129286,-1.33067,
2026_06_26_18_23_44.543,3.853,50.9,0,0.774,0,0,0,0, ,0,0,0,0,0, ,991,22.8,-15.8,-0.9,-1.2,-1.1,25,990.805,25.2538,-17.3793,-1.07421,0.0391423,-1.31052,
2026_06_26_18_23_44.563,3.853,50.8,0,0.774,0,0,0,0, ,0,0,0,0,0, ,990.7,23.8,-15.9,-0.9,-0.7,-1.1,25,990.808,25.1347,-17.2861,-1.06359,-0.0211336,-1.29769,
2026_06_26_18_23_44.583,3.853,50.9,0,0.773,0,0,0,0, ,0,0,0,0,0, ,991,24.2,-9,-0.7,-0.9,-1.1,25,990.81,25.0656,-16.9914,-1.04753,-0.0685957,-1.28565,
2026_06_26_18_23_44.603,3.853,50.8,0,0.774,0,0,0,0, ,0,0,0,0,0, ,990.1,20.3,-10.4,-1.6,-2.1,-1.2,25,990.795,24.894,-16.547,-1.05377,-0.155822,-1.27738,
2026_06_26_18_23_44.623,3.853,50.8,0,0.774,0,0,0,0, ,0,0,0,0,0, ,991.6,21.4,-10.1,-2.1,-2.5,-1.3,25,990.798,24.6476,-16.1633,-1.10229,-0.286483,-1.27571,
2026_06_26_18_23_44.646,3.853,50.8,0,0.774,0,0,0,0, ,0,0,0,0,0, ,989.6,22.8,-20.7,-2.3,-2.3,-1.4,25,990.786,24.4923,-16.1168,-1.16919,-0.415275,-1.28024,
2026_06_26_18_23_44.662,3.853,50.9,0,0.774,0,0,0,0, ,0,0,0,0,0, ,990.3,22.3,-27.9,-0.6,-0.7,-1.6,25,990.735,24.374,-16.6155,-1.1863,-0.481376,-1.29363,
2026_06_26_18_23_44.683,3.853,50.7,0,0.772,0,0,0,0, ,0,0,0,0,0, ,990.7,19.7,-22.4,0.1,0.8,-1.8,25,990.721,24.1684,-17.1355,-1.12924,-0.448995,-1.31839,
2026_06_26_18_23_44.702,3.853,50.8,0,0.773,0,0,0,0, ,0,0,0,0,0, ,991.8,21.9,-13.5,-0.5,1,-2.1,25,990.753,23.9631,-17.1852,-1.07262,-0.366791,-1.35688,
2026_06_26_18_23_44.722,3.853,50.8,0,0.774,0,0,0,0, ,0,0,0,0,0, ,990.3,24.9,-11.2,-0.6,0.4,-1.9,25,990.771,23.9288,-16.8905,-1.04077,-0.301783,-1.39607,
2026_06_26_18_23_44.741,3.853,50.7,0,0.773,0,0,0,0, ,0,0,0,0,0, ,990.1,25.7,-9.7,-0.6,-0.4,-1.3,25,990.736,24.0124,-16.4981,-1.01391,-0.283393,-1.4085,
2026_06_26_18_23_44.761,3.853,50.6,0,0.773,0,0,0,0, ,0,0,0,0,0, ,991,19.5,-12.8,-0.9,-1.3,-1.3,25,990.725,23.9263,-16.1783,-0.997828,-0.317921,-1.40189,
2026_06_26_18_23_44.781,3.853,50.7,0,0.772,0,0,0,0, ,0,0,0,0,0, ,991.3,19.4,-13.6,-1.5,-1.7,-1.9,25,990.751,23.6535,-15.9968,-1.01015,-0.389954,-1.41396,
2026_06_26_18_23_44.800,3.853,50.7,0,0.773,0,0,0,0, ,0,0,0,0,0, ,990.4,23.1,-16.3,-1,-1.7,-2.2,25,990.757,23.507,-15.933,-1.02476,-0.469785,-1.45272,
2026_06_26_18_23_44.821,3.853,50.7,0,0.773,0,0,0,0, ,0,0,0,0,0, ,991.2,27.4,-15.9,-1.1,-1.9,-1.8,25,990.759,23.6133,-15.9432,-1.0263,-0.550845,-1.48607,
2026_06_26_18_23_44.841,3.853,50.6,0,0.773,0,0,0,0, ,0,0,0,0,0, ,990.1,25,-23.5,-0.8,-1.2,-1.5,25,990.753,23.7709,-16.1721,-1.02165,-0.611731,-1.49606,
2026_06_26_18_23_44.860,3.853,50.6,0,0.774,0,0,0,0, ,0,0,0,0,0, ,991,21.3,-22.4,-0.4,-0.3,-1.3,25,990.74,23.7331,-16.5851,-0.995957,-0.620156,-1.4902,
2026_06_26_18_23_44.880,3.853,50.6,0,0.774,0,0,0,0, ,0,0,0,0,0, ,991,19.2,-17.4,-0.5,0,-1.7,25,990.756,23.5208,-16.7871,-0.962688,-0.591506,-1.4908,
2026_06_26_18_23_44.900,3.853,50.6,0,0.773,0,0,0,0, ,0,0,0,0,0, ,990.3,21.8,-16.7,-0.3,0.4,-2.1,25,990.75,23.3367,-16.8031,-0.928399,-0.543274,-1.51574,
2026_06_26_18_23_44.920,3.853,50.6,0,0.772,0,0,0,0, ,0,0,0,0,0, ,990.7,26.8,-13.6,-0.6,0,-1.5,25,990.735,23.3954,-16.7024,-0.899247,-0.497981,-1.53306,
2026_06_26_18_23_44.940,3.853,50.6,0,0.775,0,0,0,0, ,0,0,0,0,0, ,989.2,21.8,-12,-0.4,-0.5,-1.3,25,990.687,23.4505,-16.4646,-0.874918,-0.482869,-1.52495,
2026_06_26_18_23_44.959,3.853,50.4,0,0.773,0,0,0,0, ,0,0,0,0,0, ,990.2,20.5,-12.9,-1.3,-1.4,-1.4,25,990.627,23.3104,-16.22,-0.873399,-0.511335,-1.51429,
2026_06_26_18_23_44.979,3.853,50.4,0,0.773,0,0,0,0, ,0,0,0,0,0, ,991.3,20.3,-21.4,-1.3,-1.1,-2,25,990.634,23.133,-16.2766,-0.899395,-0.556347,-1.52561,
2026_06_26_18_23_44.998,3.853,50.4,0,0.773,0,0,0,0, ,0,0,0,0,0, ,991.6,28.1,-13.6,-1.6,-0.9,-2,25,990.684,23.198,-16.3512,-0.932948,-0.583383,-1.55452,
2026_06_26_18_23_45.019,3.853,50.6,0,0.773,0,0,0,0, ,0,0,0,0,0, ,991.9,25.5,-23.5,-1,-1.2,-1,25,990.749,23.4175,-16.4852,-0.955315,-0.611817,-1.55119,
2026_06_26_18_23_45.039,3.853,50.4,0,0.774,0,0,0,0, ,0,0,0,0,0, ,990.8,17.2,-21.8,0.2,0.1,-1.3,25,990.785,23.2915,-16.8608,-0.921476,-0.60805,-1.52675,
2026_06_26_18_23_45.058,3.853,50.6,0,0.773,0,0,0,0, ,0,0,0,0,0, ,991.8,19.6,-16.4,-0.3,0.5,-2.1,25,990.817,22.9935,-16.9973,-0.86837,-0.552716,-1.5373,
2026_06_26_18_23_45.082,3.853,50.4,0,0.773,0,0,0,0, ,0,0,0,0,0, ,991.5,22.5,-11.5,-0.9,0,-2.1,25,990.868,22.875,-16.8116,-0.852016,-0.5038,-1.57159,
2026_06_26_18_23_45.098,3.853,50.3,0,0.773,0,0,0,0, ,0,0,0,0,0, ,990.6,26.4,-11.9,-1.4,-0.8,-1.6,25,990.879,22.971,-16.5001,-0.870175,-0.497475,-1.58856,
2026_06_26_18_23_45.118,3.853,50.2,0,0.773,0,0,0,0, ,0,0,0,0,0, ,991,22.5,-15.9,-0.6,-1.1,-1.6,25,990.874,23.0611,-16.3417,-0.878086,-0.525051,-1.58926,
2026_06_26_18_23_45.137,3.853,50.4,0,0.772,0,0,0,0, ,0,0,0,0,0, ,989.1,22.8,-18.4,-0.1,-1,-1.3,25,990.824,23.0361,-16.3909,-0.845906,-0.55704,-1.58077,
2026_06_26_18_23_45.156,3.853,50.3,0,0.774,0,0,0,0, ,0,0,0,0,0, ,991.4,19.8,-21.1,0,-0.2,-1.5,25,990.789,22.9303,-16.5956,-0.797405,-0.559658,-1.56975,
2026_06_26_18_23_45.177,3.853,50.2,0,0.771,0,0,0,0, ,0,0,0,0,0, ,990.2,20.2,-15.7,-0.5,-0.2,-2,25,990.789,22.7517,-16.7056,-0.764048,-0.537741,-1.58074,
2026_06_26_18_23_45.196,3.853,50.3,0,0.772,0,0,0,0, ,0,0,0,0,0, ,991.4,25.3,-8.7,-0.9,-0.7,-2,25,990.79,22.7516,-16.431,-0.760145,-0.532394,-1.60629,
2026_06_26_18_23_45.220,3.853,50.4,0,0.772,0,0,0,0, ,0,0,0,0,0, ,989,25.7,-12.2,-1.5,-1.8,-1.7,25,990.754,22.9191,-16.0665,-0.786948,-0.576123,-1.62114,
2026_06_26_18_23_45.237,3.853,50.3,0,0.774,0,0,0,0, ,0,0,0,0,0, ,989.9,25.5,-28.5,-0.3,-1.2,-1.1,25,990.675,23.0825,-16.3276,-0.793837,-0.632422,-1.60766,
2026_06_26_18_23_45.255,3.853,50.2,0,0.773,0,0,0,0, ,0,0,0,0,0, ,990.9,18.9,-24.1,0.8,0.5,-1.1,25,990.658,23.0287,-16.9353,-0.730229,-0.615212,-1.57673,
2026_06_26_18_23_45.276,3.853,50.2,0,0.773,0,0,0,0, ,0,0,0,0,0, ,991.5,18.6,-17,0.7,0.9,-1.2,25,990.691,22.768,-17.1555,-0.640027,-0.535066,-1.55072,
2026_06_26_18_23_45.295,3.853,50.3,0,0.773,0,0,0,0, ,0,0,0,0,0, ,991.3,20.5,-9.3,-0.1,0.1,-1.6,25,990.734,22.5719,-16.9114,-0.582744,-0.471992,-1.54154,
2026_06_26_18_23_45.316,3.853,50.1,0,0.773,0,0,0,0, ,0,0,0,0,0, ,991.3,24.2,-12.2,-0.7,-0.7,-1.5,25,990.769,22.5583,-16.536,-0.571608,-0.461511,-1.54205,
2026_06_26_18_23_45.335,3.853,50.3,0,0.773,0,0,0,0, ,0,0,0,0,0, ,991,20.2,-16.9,-0.5,-0.8,-1.3,25,990.792,22.5365,-16.415,-0.573338,-0.479091,-1.5334,
2026_06_26_18_23_45.355,3.853,50.2,0,0.773,0,0,0,0, ,0,0,0,0,0, ,990.4,22.5,-15.9,-0.6,-0.4,-1.7,25,990.786,22.4642,-16.4141,-0.571916,-0.486459,-1.53136,
2026_06_26_18_23_45.375,3.853,50.1,0,0.772,0,0,0,0, ,0,0,0,0,0, ,991.4,21.4,-16.2,-0.7,-0.5,-1.6,25,990.793,22.4329,-16.3919,-0.576674,-0.484237,-1.53859,
2026_06_26_18_23_45.394,3.853,50.2,0,0.773,0,0,0,0, ,0,0,0,0,0, ,990.1,18.1,-20.7,-0.5,-0.4,-1.7,25,990.791,22.2694,-16.5173,-0.578096,-0.482151,-1.54538,
2026_06_26_18_23_45.414,3.853,50.1,0,0.774,0,0,0,0, ,0,0,0,0,0, ,990.9,20.6,-19.5,-0.2,0.5,-2.1,25,990.773,22.0915,-16.7356,-0.564196,-0.449723,-1.56699,
2026_06_26_18_23_45.434,3.853,50.2,0,0.773,0,0,0,0, ,0,0,0,0,0, ,991,23.1,-13.4,0,0.9,-2,25,990.784,22.0768,-16.7182,-0.535909,-0.379662,-1.59642,
2026_06_26_18_23_45.454,3.853,50,0,0.773,0,0,0,0, ,0,0,0,0,0, ,990.9,22.7,-11.8,-0.9,0,-1.8,25,990.794,22.1269,-16.4672,-0.530674,-0.329104,-1.61492,
2026_06_26_18_23_45.473,3.853,50.1,0,0.772,0,0,0,0, ,0,0,0,0,0, ,990.7,23.1,-12.9,-0.8,0,-1.8,25,990.794,22.174,-16.2164,-0.550133,-0.309049,-1.6262,
2026_06_26_18_23_45.493,3.853,50.1,0,0.772,0,0,0,0, ,0,0,0,0,0, ,989.8,21.4,-10.8,-0.7,-0.5,-1.7,25,990.761,22.1787,-15.9503,-0.562313,-0.305451,-1.63374,
2026_06_26_18_23_45.513,3.853,50.1,0,0.772,0,0,0,0, ,0,0,0,0,0, ,992.1,21.6,-16.7,0,-0.2,-1.8,25,990.773,22.1373,-15.8162,-0.549375,-0.308166,-1.64083,
2026_06_26_18_23_45.532,3.853,50.1,0,0.773,0,0,0,0, ,0,0,0,0,0, ,990.9,21.4,-14.7,-0.6,-0.3,-2,25,990.817,22.0985,-15.8091,-0.534178,-0.304621,-1.65662,
2026_06_26_18_23_45.552,3.853,50.1,0,0.773,0,0,0,0, ,0,0,0,0,0, ,990.9,23.1,-19.8,-0.6,0.1,-2,25,990.822,22.1077,-15.8969,-0.538189,-0.292152,-1.67755,
2026_06_26_18_23_45.572,3.853,50,0,0.774,0,0,0,0, ,0,0,0,0,0, ,990.9,22.4,-11.7,-0.6,0.6,-2.1,25,990.827,22.1468,-15.888,-0.541956,-0.253021,-1.70024,
2026_06_26_18_23_45.593,3.853,50,0,0.773,0,0,0,0, ,0,0,0,0,0, ,991.4,25.6,-9.7,-0.5,0,-2,25,990.846,22.2598,-15.5718,-0.542446,-0.219321,-1.72156,
2026_06_26_18_23_45.612,3.853,50,0,0.772,0,0,0,0, ,0,0,0,0,0, ,992,23.1,-5.8,-0.8,-0.8,-1.7,25,990.898,22.3871,-15.0952,-0.549,-0.230331,-1.72938,
2026_06_26_18_23_45.632,3.853,50,0,0.773,0,0,0,0, ,0,0,0,0,0, ,991,22.2,-15,-1.8,-1.7,-1.6,25,990.935,22.4032,-14.8091,-0.594764,-0.292467,-1.72455,
2026_06_26_18_23_45.651,3.853,50,0,0.772,0,0,0,0, ,0,0,0,0,0, ,991.5,21.4,-19.5,-0.6,-0.9,-1.7,25,990.954,22.3664,-14.9578,-0.631646,-0.353864,-1.72,
2026_06_26_18_23_45.671,3.853,50,0,0.772,0,0,0,0, ,0,0,0,0,0, ,990.6,22.9,-12.9,-0.5,-0.8,-1.8,25,990.96,22.3532,-15.0335,-0.626671,-0.384097,-1.72183,
2026_06_26_18_23_45.691,3.853,49.9,0,0.772,0,0,0,0, ,0,0,0,0,0, ,990.4,23.3,-11.2,-1.2,-1.2,-1.6,25,990.932,22.3987,-14.8517,-0.64028,-0.421629,-1.7205,
2026_06_26_18_23_45.711,3.853,49.9,0,0.772,0,0,0,0, ,0,0,0,0,0, ,990.2,24.6,-13.1,-1.2,-2,-1.2,25,990.894,22.4933,-14.6871,-0.674388,-0.493436,-1.70097,
2026_06_26_18_23_45.730,3.853,49.9,0,0.772,0,0,0,0, ,0,0,0,0,0, ,990.1,20.5,-21.8,-0.7,-1.5,-1,25,990.848,22.4967,-14.8554,-0.691183,-0.570008,-1.66435,
2026_06_26_18_23_45.750,3.853,50,0,0.774,0,0,0,0, ,0,0,0,0,0, ,991,20.5,-13.6,-1.1,-1.2,-1.5,25,990.83,22.375,-15.0288,-0.703908,-0.617538,-1.6391,
2026_06_26_18_23_45.770,3.853,49.8,0,0.772,0,0,0,0, ,0,0,0,0,0, ,992.6,24.1,-10.1,-1.8,-2,-1.6,25,990.889,22.3705,-14.8351,-0.749373,-0.677407,-1.63367,
2026_06_26_18_23_45.790,3.853,49.9,0,0.772,0,0,0,0, ,0,0,0,0,0, ,989.9,23.5,-15.3,-1.7,-2.1,-1.8,25,990.911,22.4576,-14.705,-0.810348,-0.76105,-1.63771,
2026_06_26_18_23_45.810,3.853,50.1,0,0.772,0,0,0,0, ,0,0,0,0,0, ,991,21.2,-22.8,-1,-1.7,-1.6,25,990.883,22.451,-14.9697,-0.843233,-0.830454,-1.64151,
2026_06_26_18_23_45.830,3.853,49.9,0,0.773,0,0,0,0, ,0,0,0,0,0, ,990.8,22.3,-22.5,-0.1,-0.3,-1.8,25,990.884,22.4083,-15.4378,-0.825364,-0.840786,-1.64507,
2026_06_26_18_23_45.850,3.853,50,0,0.773,0,0,0,0, ,0,0,0,0,0, ,991.4,20.1,-19.8,-0.2,0.2,-1.9,25,990.897,22.3347,-15.7858,-0.784209,-0.792598,-1.65756,
2026_06_26_18_23_45.869,3.853,49.8,0,0.773,0,0,0,0, ,0,0,0,0,0, ,989.7,23.1,-19,-0.3,0.4,-2,25,990.876,22.2899,-16.0061,-0.751656,-0.726017,-1.67538,
2026_06_26_18_23_45.889,3.853,49.8,0,0.773,0,0,0,0, ,0,0,0,0,0, ,991.4,22.9,-17.5,0.1,0.8,-1.8,25,990.856,22.3332,-16.1428,-0.711946,-0.645213,-1.68907,
2026_06_26_18_23_45.908,3.853,49.8,0,0.772,0,0,0,0, ,0,0,0,0,0, ,990.6,21.7,-14.2,0.7,0.7,-1.8,25,990.865,22.3312,-16.125,-0.644187,-0.560192,-1.69583,
2026_06_26_18_23_45.929,3.853,49.8,0,0.773,0,0,0,0, ,0,0,0,0,0, ,992,21.7,-13,0.2,0.4,-1.9,25,990.891,22.2927,-15.9711,-0.57751,-0.49254,-1.70522,
2026_06_26_18_23_45.948,3.853,49.7,0,0.774,0,0,0,0, ,0,0,0,0,0, ,990.8,22.7,-11.1,-0.2,0.1,-2,25,990.922,22.287,-15.7322,-0.542318,-0.447292,-1.72014,
2026_06_26_18_23_45.968,3.853,49.7,0,0.774,0,0,0,0, ,0,0,0,0,0, ,992.3,21.7,-13.3,-0.9,-0.5,-2.1,25,990.961,22.2817,-15.5169,-0.542786,-0.432222,-1.74024,
2026_06_26_18_23_45.988,3.853,49.9,0,0.773,0,0,0,0, ,0,0,0,0,0, ,991.5,26.3,-10.9,-0.7,-1.1,-1.9,25,991.018,22.3864,-15.3087,-0.55846,-0.454634,-1.75607,
2026_06_26_18_23_46.008,3.853,49.7,0,0.773,0,0,0,0, ,0,0,0,0,0, ,990.7,25.1,-9.1,-1.1,-2.1,-1.4,25,991.023,22.5884,-14.9852,-0.579272,-0.524429,-1.74961,
2026_06_26_18_23_46.027,3.853,49.7,0,0.773,0,0,0,0, ,0,0,0,0,0, ,992.1,18.9,-10.3,-2.1,-3.5,-1.3,25,991.046,22.5525,-14.6631,-0.641473,-0.663097,-1.72525,
2026_06_26_18_23_46.047,3.853,49.8,0,0.772,0,0,0,0, ,0,0,0,0,0, ,992.7,21.9,-18,-2.9,-4,-1.7,25,991.128,22.4213,-14.6319,-0.754727,-0.851205,-1.71153,
2026_06_26_18_23_46.069,3.853,49.6,0,0.772,0,0,0,0, ,0,0,0,0,0, ,990.1,26,-23.8,-1.8,-3.4,-1.4,25,991.145,22.5145,-15.0138,-0.851939,-1.0248,-1.70168,
2026_06_26_18_23_46.087,3.853,49.8,0,0.773,0,0,0,0, ,0,0,0,0,0, ,990.7,20.5,-25.3,-1.1,-2.5,-1.1,25,991.1,22.5593,-15.5949,-0.888383,-1.14212,-1.67416,
2026_06_26_18_23_46.107,3.853,49.7,0,0.773,0,0,0,0, ,0,0,0,0,0, ,990.2,17.9,-25.6,-1,-1.1,-1.8,25,991.06,22.3546,-16.1955,-0.898232,-1.18221,-1.6605,
2026_06_26_18_23_46.126,3.853,49.8,0,0.771,0,0,0,0, ,0,0,0,0,0, ,990.9,22.2,-24.2,-1.2,-0.5,-2.3,25,991.029,22.2142,-16.7259,-0.910527,-1.15892,-1.68424,
2026_06_26_18_23_46.146,3.853,49.6,0,0.772,0,0,0,0, ,0,0,0,0,0, ,991.9,25.5,-23.4,-0.3,0,-1.7,25,991.052,22.3139,-17.157,-0.900745,-1.10353,-1.70348,
2026_06_26_18_23_46.166,3.853,49.7,0,0.773,0,0,0,0, ,0,0,0,0,0, ,990.2,20.2,-25.2,0,0.8,-1.7,25,991.051,22.3465,-17.5923,-0.854996,-1.01191,-1.70327,
2026_06_26_18_23_46.186,3.853,49.7,0,0.773,0,0,0,0, ,0,0,0,0,0, ,990.3,23.8,-14.5,0.3,1.2,-1.8,25,991.003,22.3254,-17.7299,-0.793754,-0.889309,-1.70611,
2026_06_26_18_23_46.205,3.853,49.5,0,0.772,0,0,0,0, ,0,0,0,0,0, ,990.4,24.9,-14.1,-0.4,0.4,-1.7,25,990.963,22.4488,-17.5208,-0.748432,-0.786367,-1.70879,
2026_06_26_18_23_46.226,3.853,49.6,0,0.773,0,0,0,0, ,0,0,0,0,0, ,989.6,21.9,-14.6,-0.1,-0.1,-1.5,25,990.904,22.5067,-17.3276,-0.718059,-0.729307,-1.70216,
2026_06_26_18_23_46.245,3.853,49.7,0,0.773,0,0,0,0, ,0,0,0,0,0, ,990.2,19.1,-15.2,-0.9,-1,-1.9,25,990.843,22.3845,-17.1797,-0.704771,-0.718381,-1.70203,
2026_06_26_18_23_46.265,3.853,49.6,0,0.772,0,0,0,0, ,0,0,0,0,0, ,990.2,22.5,-18.6,-1.2,-1,-2.2,25,990.804,22.2879,-17.1626,-0.725808,-0.735542,-1.72323,
2026_06_26_18_23_46.285,3.853,49.6,0,0.772,0,0,0,0, ,0,0,0,0,0, ,991.5,25.7,-15.5,-1.1,-1.4,-1.9,25,990.807,22.3983,-17.1558,-0.751657,-0.763845,-1.74314,
2026_06_26_18_23_46.305,3.853,49.5,0,0.773,0,0,0,0, ,0,0,0,0,0, ,990.8,25.1,-21.6,-0.3,-1.5,-1.4,25,990.828,22.5812,-17.2407,-0.748509,-0.805657,-1.73747,
2026_06_26_18_23_46.325,3.853,49.5,0,0.773,0,0,0,0, ,0,0,0,0,0, ,989.9,21.8,-15.1,-0.6,-1.9,-1.1,25,990.798,22.6342,-17.3083,-0.730319,-0.860156,-1.70776,
2026_06_26_18_23_46.345,3.853,49.5,0,0.772,0,0,0,0, ,0,0,0,0,0, ,990.8,19.7,-19.5,-1.3,-2.3,-1.5,25,990.771,22.5194,-17.3078,-0.743706,-0.935709,-1.68292,
2026_06_26_18_23_46.364,3.853,49.6,0,0.773,0,0,0,0, ,0,0,0,0,0, ,991.4,21.9,-25.3,-0.9,-1.8,-1.5,25,990.791,22.4146,-17.6181,-0.765418,-1.00361,-1.67177,
2026_06_26_18_23_46.384,3.853,49.6,0,0.772,0,0,0,0, ,0,0,0,0,0, ,989.9,23.1,-24.9,-0.6,-1,-1.6,25,990.783,22.4198,-18.0741,-0.764478,-1.02777,-1.66435,
2026_06_26_18_23_46.403,3.853,49.5,0,0.772,0,0,0,0, ,0,0,0,0,0, ,992,22.4,-24.4,-0.3,-0.5,-1.8,25,990.793,22.4399,-18.4748,-0.745315,-1.01084,-1.66652,
2026_06_26_18_23_46.423,3.853,49.5,0,0.772,0,0,0,0, ,0,0,0,0,0, ,989.8,22,-24.2,0.2,0.4,-1.6,25,990.799,22.4253,-18.8298,-0.702944,-0.952289,-1.66856,
2026_06_26_18_23_46.443,3.853,49.5,0,0.772,0,0,0,0, ,0,0,0,0,0, ,990.7,20,-22.5,0,0.7,-1.6,25,990.766,22.3384,-19.1052,-0.654014,-0.860743,-1.66438,
2026_06_26_18_23_46.463,3.853,49.4,0,0.774,0,0,0,0, ,0,0,0,0,0, ,990.8,23.3,-19.1,0.6,1.3,-1.5,25,990.765,22.2965,-19.2085,-0.595879,-0.747354,-1.65741,
2026_06_26_18_23_46.483,3.853,49.5,0,0.773,0,0,0,0, ,0,0,0,0,0, ,990.7,21.8,-15,-0.1,0.6,-1.6,25,990.764,22.3119,-19.077,-0.544333,-0.643922,-1.65087,
2026_06_26_18_23_46.503,3.853,49.5,0,0.773,0,0,0,0, ,0,0,0,0,0, ,990.8,22,-17.7,-0.7,-0.1,-1.8,25,990.763,22.2868,-18.9108,-0.535538,-0.589448,-1.65386,
2026_06_26_18_23_46.523,3.853,49.3,0,0.773,0,0,0,0, ,0,0,0,0,0, ,990.8,19.2,-15.9,-0.9,-0.4,-2.1,25,990.765,22.184,-18.7822,-0.551654,-0.568763,-1.67191,
2026_06_26_18_23_46.543,3.853,49.5,0,0.772,0,0,0,0, ,0,0,0,0,0, ,990.3,22.4,-20.3,-1.1,-0.7,-2.5,25,990.752,22.0997,-18.7406,-0.578975,-0.56762,-1.71018,
2026_06_26_18_23_46.562,3.853,49.3,0,0.773,0,0,0,0, ,0,0,0,0,0, ,990.6,23.8,-12.8,-1.7,-1.3,-2.4,25,990.734,22.1607,-18.6071,-0.629006,-0.593968,-1.75526,
2026_06_26_18_23_46.582,3.853,49.4,0,0.772,0,0,0,0, ,0,0,0,0,0, ,990.3,26.1,-18.7,-1.8,-1.8,-2.2,25,990.717,22.3306,-18.433,-0.697317,-0.652226,-1.78846,
2026_06_26_18_23_46.602,3.853,49.3,0,0.772,0,0,0,0, ,0,0,0,0,0, ,990.6,21.4,-21.6,-1.9,-1.4,-2,25,990.7,22.4171,-18.5376,-0.767558,-0.709981,-1.80744,
2026_06_26_18_23_46.621,3.853,49.4,0,0.772,0,0,0,0, ,0,0,0,0,0, ,989.7,22.9,-19.5,-1.8,-1.3,-2,25,990.667,22.4009,-18.6603,-0.83352,-0.748982,-1.81918,
2026_06_26_18_23_46.642,3.853,49.3,0,0.773,0,0,0,0, ,0,0,0,0,0, ,991.3,21.7,-23,-1.5,-1.2,-2,25,990.657,22.3947,-18.8181,-0.883274,-0.779513,-1.8302,
2026_06_26_18_23_46.661,3.853,49.4,0,0.773,0,0,0,0, ,0,0,0,0,0, ,989.1,24,-23.5,-0.9,-0.5,-2.3,25,990.629,22.4225,-19.0881,-0.902574,-0.783808,-1.84968,
2026_06_26_18_23_46.681,3.853,49.4,0,0.772,0,0,0,0, ,0,0,0,0,0, ,990.3,26.9,-19.8,-0.4,-0.1,-1.8,25,990.572,22.6069,-19.2442,-0.887183,-0.754326,-1.86189,
2026_06_26_18_23_46.701,3.853,49.2,0,0.772,0,0,0,0, ,0,0,0,0,0, ,990.7,26.1,-20.7,0,-0.5,-1,25,990.568,22.8442,-19.3055,-0.845308,-0.726641,-1.83374,
2026_06_26_18_23_46.720,3.853,49.3,0,0.772,0,0,0,0, ,0,0,0,0,0, ,990.9,21.1,-19.6,0.4,-0.3,-0.9,25,990.582,22.8902,-19.357,-0.781609,-0.706736,-1.77989,
2026_06_26_18_23_46.740,3.853,49.3,0,0.773,0,0,0,0, ,0,0,0,0,0, ,990.3,18.9,-19.7,-0.5,-0.7,-1.1,25,990.583,22.7141,-19.3749,-0.737027,-0.694138,-1.73237,
2026_06_26_18_23_46.760,3.853,49.3,0,0.773,0,0,0,0, ,0,0,0,0,0, ,989.8,20.8,-23.8,-0.6,-0.5,-1.6,25,990.551,22.5396,-19.5196,-0.72563,-0.688402,-1.70907,
2026_06_26_18_23_46.780,3.853,49.4,0,0.773,0,0,0,0, ,0,0,0,0,0, ,991.2,21.7,-25,0,0.1,-1.8,25,990.547,22.461,-19.817,-0.699693,-0.65864,-1.70851,
2026_06_26_18_23_46.800,3.853,49.3,0,0.773,0,0,0,0, ,0,0,0,0,0, ,991,19.6,-22.9,0,0.8,-2,25,990.581,22.3506,-20.0688,-0.657056,-0.591082,-1.72018,
2026_06_26_18_23_46.820,3.853,49.2,0,0.772,0,0,0,0, ,0,0,0,0,0, ,990.4,22.5,-15.1,-0.6,0.6,-2.2,25,990.588,22.2714,-20.0037,-0.635298,-0.512407,-1.74333,
2026_06_26_18_23_46.840,3.853,49.2,0,0.773,0,0,0,0, ,0,0,0,0,0, ,990.8,23.1,-16.1,-1,-0.2,-2.1,25,990.589,22.3036,-19.7354,-0.645334,-0.468994,-1.76811,
2026_06_26_18_23_46.860,3.853,49.2,0,0.773,0,0,0,0, ,0,0,0,0,0, ,991.3,20.7,-19.6,-0.8,-0.4,-2.3,25,990.617,22.279,-19.6205,-0.660853,-0.458696,-1.79443,
2026_06_26_18_23_46.879,3.853,49.2,0,0.772,0,0,0,0, ,0,0,0,0,0, ,990.6,22.4,-18.7,-1.1,-0.4,-2.6,25,990.637,22.2346,-19.5918,-0.678473,-0.455119,-1.83438,
2026_06_26_18_23_46.899,3.853,49.2,0,0.772,0,0,0,0, ,0,0,0,0,0, ,991.6,24.1,-21.1,-1.2,0,-2.7,25,990.666,22.2965,-19.6106,-0.707206,-0.439573,-1.88408,
2026_06_26_18_23_46.922,3.853,49.2,0,0.772,0,0,0,0, ,0,0,0,0,0, ,990.8,27.3,-20.2,-0.4,0.7,-2.5,25,990.698,22.5039,-19.6739,-0.712861,-0.391458,-1.92771,
2026_06_26_18_23_46.938,3.853,49.1,0,0.773,0,0,0,0, ,0,0,0,0,0, ,990.4,27.7,-14.7,-0.3,0.3,-1.8,25,990.692,22.8083,-19.5384,-0.690749,-0.337135,-1.94125,
2026_06_26_18_23_46.958,3.853,49.2,0,0.77,0,0,0,0, ,0,0,0,0,0, ,989.7,27.4,-12.9,-0.3,-0.4,-1.3,25,990.653,23.0973,-19.1887,-0.666938,-0.319638,-1.91741,
2026_06_26_18_23_46.977,3.853,49.1,0,0.772,0,0,0,0, ,0,0,0,0,0, ,990.7,23.4,-18.4,-0.5,-0.9,-0.9,25,990.625,23.2376,-18.9731,-0.650671,-0.339769,-1.8676,
2026_06_26_18_23_46.998,3.853,49.2,0,0.772,0,0,0,0, ,0,0,0,0,0, ,991.2,22.4,-17.5,-1,-0.5,-1.1,25,990.645,23.217,-18.9107,-0.656724,-0.361721,-1.81473,
2026_06_26_18_23_47.018,3.853,49.1,0,0.772,0,0,0,0, ,0,0,0,0,0, ,990.7,21.9,-18.5,-0.5,-0.5,-1.3,25,990.664,23.152,-18.8552,-0.662408,-0.370147,-1.77727,
2026_06_26_18_23_47.038,3.853,49.1,0,0.772,0,0,0,0, ,0,0,0,0,0, ,991.2,22.9,-18,0,0,-1.5,25,990.681,23.1062,-18.8184,-0.637277,-0.362826,-1.75428,
2026_06_26_18_23_47.063,3.853,49.1,0,0.772,0,0,0,0, ,0,0,0,0,0, ,991.4,24.1,-14.1,-0.2,-0.6,-1.6,25,990.719,23.1302,-18.6497,-0.604537,-0.358997,-1.74183,
2026_06_26_18_23_47.077,3.853,49,0,0.773,0,0,0,0, ,0,0,0,0,0, ,991.4,21.1,-16.7,-0.6,-1.1,-1.5,25,990.76,23.0979,-18.4516,-0.592073,-0.388918,-1.73014,
2026_06_26_18_23_47.096,3.853,49,0,0.773,0,0,0,0, ,0,0,0,0,0, ,990.1,21.6,-19.1,-1.1,-0.6,-1.9,25,990.76,22.9913,-18.418,-0.60779,-0.417015,-1.7283,
2026_06_26_18_23_47.117,3.853,49,0,0.773,0,0,0,0, ,0,0,0,0,0, ,991.4,22.8,-20.3,-0.8,-0.6,-1.8,25,990.759,22.9431,-18.4961,-0.628644,-0.428166,-1.73572,
2026_06_26_18_23_47.137,3.853,49.1,0,0.773,0,0,0,0, ,0,0,0,0,0, ,990.1,19.7,-19.5,-0.5,-0.1,-1.8,25,990.759,22.8399,-18.5817,-0.629945,-0.423402,-1.73964,
2026_06_26_18_23_47.157,3.853,48.9,0,0.772,0,0,0,0, ,0,0,0,0,0, ,992.5,22.9,-16.3,-1,-0.3,-2.3,25,990.792,22.7461,-18.5401,-0.637261,-0.409789,-1.75855,
2026_06_26_18_23_47.176,3.853,48.9,0,0.772,0,0,0,0, ,0,0,0,0,0, ,990.8,24,-20.9,-0.5,0.1,-2.4,25,990.844,22.789,-18.5438,-0.644131,-0.390911,-1.79459,
2026_06_26_18_23_47.201,3.853,49.1,0,0.773,0,0,0,0, ,0,0,0,0,0, ,991.2,27.9,-16.7,-0.3,0.2,-1.9,25,990.853,22.9816,-18.5594,-0.629254,-0.357949,-1.81625,
2026_06_26_18_23_47.215,3.853,49,0,0.772,0,0,0,0, ,0,0,0,0,0, ,991.4,24.5,-18,-0.2,0.2,-1.6,25,990.881,23.1777,-18.4857,-0.606143,-0.323949,-1.81221,
2026_06_26_18_23_47.235,3.853,49,0,0.773,0,0,0,0, ,0,0,0,0,0, ,991.2,23.6,-15.7,-0.3,0,-1.6,25,990.906,23.2309,-18.386,-0.584441,-0.298115,-1.79928,
2026_06_26_18_23_47.255,3.853,48.9,0,0.773,0,0,0,0, ,0,0,0,0,0, ,991.5,25.7,-14.1,-0.6,-0.3,-1.6,25,990.933,23.3174,-18.1736,-0.576248,-0.289089,-1.78714,
2026_06_26_18_23_47.274,3.853,49,0,0.772,0,0,0,0, ,0,0,0,0,0, ,991.6,23,-14.7,0,-0.8,-1.4,25,990.971,23.3803,-17.9436,-0.559415,-0.304988,-1.76964,
2026_06_26_18_23_47.294,3.853,49,0,0.773,0,0,0,0, ,0,0,0,0,0, ,990.7,24,-15.3,-0.5,-1.1,-1.4,25,990.982,23.3876,-17.7643,-0.54056,-0.344294,-1.74711,
2026_06_26_18_23_47.315,3.853,49,0,0.773,0,0,0,0, ,0,0,0,0,0, ,991.2,22.4,-16.8,-1.3,-2,-1.3,25,990.98,23.3762,-17.6598,-0.562463,-0.417767,-1.72292,
2026_06_26_18_23_47.334,3.853,48.9,0,0.774,0,0,0,0, ,0,0,0,0,0, ,991,22.5,-17.5,-1.6,-1.7,-1.5,25,990.987,23.3197,-17.6287,-0.616547,-0.505043,-1.70324,
2026_06_26_18_23_47.354,3.853,48.9,0,0.772,0,0,0,0, ,0,0,0,0,0, ,989.8,23.3,-23.8,-1.3,-1,-1.8,25,990.951,23.2941,-17.8128,-0.667336,-0.556533,-1.69999,
2026_06_26_18_23_47.373,3.853,48.7,0,0.772,0,0,0,0, ,0,0,0,0,0, ,990.2,26.1,-16.4,-0.5,-0.5,-1.4,25,990.893,23.3798,-17.9522,-0.681514,-0.568322,-1.6939,
2026_06_26_18_23_47.394,3.853,48.7,0,0.773,0,0,0,0, ,0,0,0,0,0, ,990.1,20.9,-20.3,-0.2,-1.1,-1,25,990.848,23.3871,-17.9765,-0.661312,-0.58244,-1.6638,
2026_06_26_18_23_47.413,3.853,48.9,0,0.771,0,0,0,0, ,0,0,0,0,0, ,991.4,21.3,-16.6,-0.6,-1.4,-1.3,25,990.842,23.2478,-18.0053,-0.645388,-0.623119,-1.63249,
2026_06_26_18_23_47.433,3.853,48.7,0,0.773,0,0,0,0, ,0,0,0,0,0, ,991,22.2,-20.3,-1.1,-1.4,-1.4,25,990.864,23.1565,-18.0324,-0.657857,-0.670461,-1.61528,
2026_06_26_18_23_47.453,3.853,48.7,0,0.773,0,0,0,0, ,0,0,0,0,0, ,990.1,20.7,-21.1,-1,-0.9,-1.8,25,990.845,23.0525,-18.195,-0.681753,-0.699683,-1.61435,
2026_06_26_18_23_47.472,3.853,48.7,0,0.773,0,0,0,0, ,0,0,0,0,0, ,989.7,21.9,-19.5,-1,-0.7,-1.9,25,990.787,22.9457,-18.3232,-0.701146,-0.705796,-1.62871,
2026_06_26_18_23_47.493,3.853,48.9,0,0.772,0,0,0,0, ,0,0,0,0,0, ,990.6,24.1,-19.4,-0.6,-0.7,-1.9,25,990.748,22.949,-18.3919,-0.70717,-0.705442,-1.64524,
2026_06_26_18_23_47.512,3.853,48.7,0,0.773,0,0,0,0, ,0,0,0,0,0, ,989.7,22.3,-24.9,-0.2,-0.4,-1.8,25,990.712,22.9643,-18.6209,-0.688452,-0.69597,-1.65772,
2026_06_26_18_23_47.532,3.853,48.7,0,0.771,0,0,0,0, ,0,0,0,0,0, ,991.3,21.2,-22.8,-0.1,0.4,-1.9,25,990.699,22.8903,-18.9396,-0.65564,-0.65356,-1.66943,
2026_06_26_18_23_47.552,3.853,48.6,0,0.773,0,0,0,0, ,0,0,0,0,0, ,990.8,23.9,-19.6,-0.5,0.6,-2,25,990.72,22.8696,-19.0773,-0.633968,-0.583264,-1.68653,
2026_06_26_18_23_47.572,3.853,48.7,0,0.772,0,0,0,0, ,0,0,0,0,0, ,991.9,24.1,-21.9,0.2,1.1,-1.7,25,990.759,22.9385,-19.1792,-0.604476,-0.495925,-1.69649,
2026_06_26_18_23_47.591,3.853,48.6,0,0.772,0,0,0,0, ,0,0,0,0,0, ,989.9,21.3,-13.5,0.1,0.9,-1.5,25,990.767,22.9239,-19.0891,-0.558501,-0.404767,-1.69061,
2026_06_26_18_23_47.611,3.853,48.6,0,0.774,0,0,0,0, ,0,0,0,0,0, ,991.3,22.3,-12.5,0,0.3,-1.8,25,990.757,22.8554,-18.718,-0.52142,-0.343539,-1.68814,
2026_06_26_18_23_47.631,3.853,48.6,0,0.772,0,0,0,0, ,0,0,0,0,0, ,991.2,22.9,-15,-1,-0.2,-2.1,25,990.787,22.8399,-18.4153,-0.520115,-0.319558,-1.7041,
2026_06_26_18_23_47.651,3.853,48.6,0,0.773,0,0,0,0, ,0,0,0,0,0, ,991.4,23.1,-20.2,-0.8,0,-2.2,25,990.818,22.8496,-18.3656,-0.543264,-0.306178,-1.73127,
2026_06_26_18_23_47.670,3.853,48.7,0,0.772,0,0,0,0, ,0,0,0,0,0, ,989.6,24.2,-17.7,-0.5,0.4,-2.1,25,990.799,22.8984,-18.4012,-0.549768,-0.275333,-1.75678,
2026_06_26_18_23_47.691,3.853,48.6,0,0.773,0,0,0,0, ,0,0,0,0,0, ,991.3,24.2,-10.7,-0.5,0.3,-2.1,25,990.778,22.9777,-18.1452,-0.546736,-0.237227,-1.7777,
2026_06_26_18_23_47.710,3.853,48.5,0,0.771,0,0,0,0, ,0,0,0,0,0, ,991.2,25.6,-14.5,-1,-0.5,-1.9,25,990.807,23.0949,-17.8073,-0.559122,-0.228865,-1.79125,
2026_06_26_18_23_47.730,3.853,48.6,0,0.772,0,0,0,0, ,0,0,0,0,0, ,992,23.9,-17.7,-0.6,-0.2,-1.7,25,990.855,23.1957,-17.7033,-0.5738,-0.236246,-1.79178,
2026_06_26_18_23_47.750,3.853,48.5,0,0.775,0,0,0,0, ,0,0,0,0,0, ,991,24.6,-18.6,-0.2,0.3,-1.8,25,990.894,23.26,-17.7305,-0.563209,-0.218803,-1.78923,
2026_06_26_18_23_47.770,3.853,48.5,0,0.774,0,0,0,0, ,0,0,0,0,0, ,990.6,27,-12.3,-0.7,0,-1.6,25,990.888,23.4148,-17.5915,-0.556311,-0.196329,-1.7838,
2026_06_26_18_23_47.789,3.853,48.6,0,0.773,0,0,0,0, ,0,0,0,0,0, ,990.1,24.1,-14.5,-0.8,-0.4,-1.3,25,990.856,23.5449,-17.3361,-0.568114,-0.196553,-1.76345,
2026_06_26_18_23_47.809,3.853,48.5,0,0.771,0,0,0,0, ,0,0,0,0,0, ,990.3,21.9,-17.9,-0.4,-0.4,-1.2,25,990.816,23.5117,-17.2669,-0.570057,-0.208951,-1.73217,
2026_06_26_18_23_47.828,3.853,48.5,0,0.771,0,0,0,0, ,0,0,0,0,0, ,990.8,24.4,-12.2,-0.3,-0.3,-1.4,25,990.8,23.4896,-17.1318,-0.556647,-0.217546,-1.70583,
2026_06_26_18_23_47.848,3.853,48.4,0,0.772,0,0,0,0, ,0,0,0,0,0, ,991,22.8,-10.9,-0.7,-0.9,-1.5,25,990.806,23.4964,-16.7916,-0.553195,-0.240852,-1.69024,
2026_06_26_18_23_47.869,3.853,48.5,0,0.772,0,0,0,0, ,0,0,0,0,0, ,991.9,24.1,-12.2,-1.2,-1.5,-1.6,25,990.845,23.4935,-16.4722,-0.577375,-0.2993,-1.6817,
2026_06_26_18_23_47.888,3.853,48.5,0,0.772,0,0,0,0, ,0,0,0,0,0, ,990.8,23.1,-18,-1,-1.6,-1.6,25,990.876,23.5,-16.3886,-0.609223,-0.375514,-1.67672,
2026_06_26_18_23_47.908,3.853,48.5,0,0.772,0,0,0,0, ,0,0,0,0,0, ,991.5,22.3,-18,-0.8,-1.4,-1.6,25,990.892,23.4513,-16.4868,-0.626942,-0.444038,-1.67204,
2026_06_26_18_23_47.928,3.853,48.4,0,0.772,0,0,0,0, ,0,0,0,0,0, ,989.3,22.3,-14.5,-1.5,-1.6,-1.8,25,990.862,23.3811,-16.4724,-0.658816,-0.508385,-1.67375,
2026_06_26_18_23_47.947,3.853,48.3,0,0.772,0,0,0,0, ,0,0,0,0,0, ,992.3,20.8,-17.9,-1.6,-1.9,-2.2,25,990.859,23.2695,-16.4558,-0.713122,-0.584046,-1.69363,
2026_06_26_18_23_47.967,3.853,48.4,0,0.773,0,0,0,0, ,0,0,0,0,0, ,990.6,26.9,-13.9,-1.7,-2.1,-2.1,25,990.895,23.3049,-16.4219,-0.770213,-0.670331,-1.72144,
2026_06_26_18_23_47.987,3.853,48.5,0,0.772,0,0,0,0, ,0,0,0,0,0, ,990.4,24.6,-24.6,-0.9,-1.9,-1.6,25,990.871,23.4539,-16.5942,-0.802497,-0.751358,-1.72927,
2026_06_26_18_23_48.006,3.853,48.4,0,0.771,0,0,0,0, ,0,0,0,0,0, ,990.1,19,-27,-0.3,-0.1,-1.8,25,990.833,23.3531,-17.1552,-0.790158,-0.766509,-1.72749,
2026_06_26_18_23_48.027,3.853,48.4,0,0.772,0,0,0,0, ,0,0,0,0,0, ,991.6,22.3,-17.4,-0.4,0.4,-2.2,25,990.834,23.1884,-17.4626,-0.763336,-0.710659,-1.74409,
2026_06_26_18_23_48.047,3.853,48.4,0,0.772,0,0,0,0, ,0,0,0,0,0, ,991.3,27.2,-18.5,-0.6,0.2,-1.9,25,990.871,23.2836,-17.4923,-0.747289,-0.649072,-1.76273,
2026_06_26_18_23_48.072,3.853,48.3,0,0.772,0,0,0,0, ,0,0,0,0,0, ,990.6,25.2,-20.9,0,0.5,-1.2,25,990.876,23.4613,-17.6269,-0.720032,-0.588191,-1.74977,
2026_06_26_18_23_48.086,3.853,48.4,0,0.774,0,0,0,0, ,0,0,0,0,0, ,991.6,19.7,-21.2,-0.2,1.3,-1.4,25,990.89,23.3996,-17.8355,-0.682249,-0.497505,-1.72236,
2026_06_26_18_23_48.105,3.853,48.3,0,0.773,0,0,0,0, ,0,0,0,0,0, ,991.9,20.9,-19.4,-1.2,1.8,-2,25,990.942,23.2108,-17.9856,-0.68333,-0.372735,-1.721,
2026_06_26_18_23_48.126,3.853,48.3,0,0.773,0,0,0,0, ,0,0,0,0,0, ,991.3,26.1,-12,0,1.5,-2.1,25,990.982,23.2284,-17.8464,-0.678252,-0.249475,-1.74105,
2026_06_26_18_23_48.145,3.853,48.2,0,0.772,0,0,0,0, ,0,0,0,0,0, ,990.7,25.1,-7.5,0.1,0.8,-1.6,25,990.983,23.3729,-17.353,-0.633875,-0.164194,-1.74769,
2026_06_26_18_23_48.165,3.853,48.3,0,0.772,0,0,0,0, ,0,0,0,0,0, ,991.6,23.6,-6.4,-0.5,-0.3,-1.3,25,990.994,23.4325,-16.7191,-0.607435,-0.138954,-1.72955,
2026_06_26_18_23_48.185,3.853,48.3,0,0.772,0,0,0,0, ,0,0,0,0,0, ,990.8,23.3,-14.7,-1.3,-1.2,-1.4,25,991.006,23.4335,-16.3431,-0.625264,-0.17619,-1.70642,
2026_06_26_18_23_48.205,3.853,48.2,0,0.771,0,0,0,0, ,0,0,0,0,0, ,990.9,22.7,-16.1,-0.6,-0.9,-1.5,25,990.997,23.4071,-16.2857,-0.645052,-0.229438,-1.69079,
2026_06_26_18_23_48.225,3.853,48.3,0,0.772,0,0,0,0, ,0,0,0,0,0, ,989.7,23,-13.1,-0.9,-1,-1.7,25,990.954,23.3732,-16.1829,-0.651447,-0.273347,-1.68526,
2026_06_26_18_23_48.245,3.853,48.3,0,0.772,0,0,0,0, ,0,0,0,0,0, ,990.9,23.5,-12.8,-1.1,-1.4,-1.6,25,990.914,23.3656,-15.9859,-0.672687,-0.329815,-1.68311,
2026_06_26_18_23_48.264,3.853,48.3,0,0.773,0,0,0,0, ,0,0,0,0,0, ,990.6,23.6,-18.7,-0.5,-1.4,-1.4,25,990.904,23.3769,-15.9716,-0.680445,-0.395029,-1.67195,
2026_06_26_18_23_48.284,3.853,48.2,0,0.771,0,0,0,0, ,0,0,0,0,0, ,990.4,22.4,-20.6,-0.4,0,-1.5,25,990.88,23.3539,-16.1957,-0.666403,-0.413613,-1.65843,
2026_06_26_18_23_48.304,3.853,48.3,0,0.772,0,0,0,0, ,0,0,0,0,0, ,990.3,22.8,-13.6,-1,0.6,-1.8,25,990.847,23.308,-16.2508,-0.66845,-0.370127,-1.65791,
2026_06_26_18_23_48.323,3.853,48.2,0,0.771,0,0,0,0, ,0,0,0,0,0, ,991.6,24.1,-8.3,-0.8,-0.5,-1.4,25,990.854,23.3166,-15.9278,-0.68256,-0.344526,-1.65439,
2026_06_26_18_23_48.343,3.853,48.2,0,0.772,0,0,0,0, ,0,0,0,0,0, ,990.8,24.1,-7.4,-1.2,-1.7,-1,25,990.875,23.3644,-15.4356,-0.701904,-0.390563,-1.6267,
2026_06_26_18_23_48.363,3.853,48.2,0,0.773,0,0,0,0, ,0,0,0,0,0, ,990.4,20.9,-12,-2.3,-2.8,-1,25,990.858,23.3117,-15.086,-0.765772,-0.503872,-1.58851,
2026_06_26_18_23_48.383,3.853,48.2,0,0.773,0,0,0,0, ,0,0,0,0,0, ,989.5,21.6,-19.5,-2,-2.9,-1.1,25,990.803,23.1861,-15.1265,-0.850124,-0.646839,-1.55569,
2026_06_26_18_23_48.403,3.853,48.1,0,0.772,0,0,0,0, ,0,0,0,0,0, ,990.9,22,-20.2,-1.2,-2.4,-1.2,25,990.766,23.1016,-15.4143,-0.895819,-0.768907,-1.53097,
2026_06_26_18_23_48.422,3.853,48.2,0,0.773,0,0,0,0, ,0,0,0,0,0, ,990.3,23.4,-20.3,-0.3,-1.4,-1.5,25,990.756,23.0771,-15.709,-0.886933,-0.837833,-1.51994,
2026_06_26_18_23_48.442,3.853,48.2,0,0.771,0,0,0,0, ,0,0,0,0,0, ,990.9,20.7,-24.2,0.1,-0.1,-1.5,25,990.746,23.0145,-16.1076,-0.83898,-0.832481,-1.51873,
2026_06_26_18_23_48.462,3.853,48.2,0,0.771,0,0,0,0, ,0,0,0,0,0, ,991,21.6,-17.5,-0.4,0.5,-1.6,25,990.759,22.9009,-16.3966,-0.796995,-0.769564,-1.52063,
2026_06_26_18_23_48.481,3.853,48.1,0,0.771,0,0,0,0, ,0,0,0,0,0, ,989.7,20.1,-16.8,-0.6,0.1,-2,25,990.734,22.7759,-16.4425,-0.778897,-0.704387,-1.53766,
2026_06_26_18_23_48.501,3.853,48.1,0,0.771,0,0,0,0, ,0,0,0,0,0, ,990.2,22.4,-17.8,-0.6,0.5,-2.2,25,990.686,22.6829,-16.4948,-0.767995,-0.643182,-1.57192,
2026_06_26_18_23_48.521,3.853,48,0,0.772,0,0,0,0, ,0,0,0,0,0, ,990.6,22.3,-9.2,-0.9,-0.2,-2,25,990.669,22.6627,-16.3123,-0.766899,-0.594848,-1.6041,
2026_06_26_18_23_48.541,3.853,48.1,0,0.773,0,0,0,0, ,0,0,0,0,0, ,990.3,24.5,-12.3,-1,-1.4,-1.8,25,990.655,22.7076,-15.9733,-0.778057,-0.607349,-1.62214,
2026_06_26_18_23_48.561,3.853,48,0,0.773,0,0,0,0, ,0,0,0,0,0, ,990.9,22.8,-11.9,-1.4,-1.9,-1.6,25,990.652,22.765,-15.7373,-0.803769,-0.670886,-1.62688,
2026_06_26_18_23_48.581,3.853,48.1,0,0.771,0,0,0,0, ,0,0,0,0,0, ,989.8,23.6,-21.3,-1.4,-1.9,-1.6,25,990.634,22.7915,-15.7899,-0.840102,-0.745785,-1.62524,
2026_06_26_18_23_48.600,3.853,48.1,0,0.772,0,0,0,0, ,0,0,0,0,0, ,991.5,22.8,-23.1,-0.7,-0.5,-1.4,25,990.635,22.8164,-16.1805,-0.852892,-0.773464,-1.61761,
2026_06_26_18_23_48.620,3.853,48,0,0.773,0,0,0,0, ,0,0,0,0,0, ,990.3,22.2,-21.9,-0.7,-0.1,-1.3,25,990.651,22.7971,-16.5656,-0.843575,-0.744612,-1.6013,
2026_06_26_18_23_48.640,3.853,48,0,0.771,0,0,0,0, ,0,0,0,0,0, ,990.1,22.3,-16.6,-0.9,-0.2,-1.4,25,990.623,22.7638,-16.7292,-0.84092,-0.708378,-1.58599,
2026_06_26_18_23_48.659,3.853,48,0,0.772,0,0,0,0, ,0,0,0,0,0, ,990.7,19.8,-15.7,-0.9,-0.6,-1.5,25,990.61,22.6594,-16.6939,-0.84452,-0.689586,-1.5777,
2026_06_26_18_23_48.680,3.853,48,0,0.773,0,0,0,0, ,0,0,0,0,0, ,990.4,22.3,-21.9,-0.7,-0.3,-1.8,25,990.606,22.5613,-16.8222,-0.841807,-0.674986,-1.58211,
2026_06_26_18_23_48.700,3.853,47.9,0,0.772,0,0,0,0, ,0,0,0,0,0, ,991.4,23.3,-15.9,-0.5,0.1,-2,25,990.624,22.5758,-16.9488,-0.827072,-0.639948,-1.60148,
2026_06_26_18_23_48.720,3.853,47.9,0,0.772,0,0,0,0, ,0,0,0,0,0, ,991.5,22.7,-15.8,-0.6,-0.4,-1.7,25,990.674,22.6017,-16.8819,-0.810188,-0.610092,-1.61662,
2026_06_26_18_23_48.740,3.853,48,0,0.773,0,0,0,0, ,0,0,0,0,0, ,990.7,23.3,-14.7,-0.7,-0.9,-1.6,25,990.7,22.626,-16.7824,-0.800427,-0.612524,-1.61866,
2026_06_26_18_23_48.759,3.853,47.9,0,0.773,0,0,0,0, ,0,0,0,0,0, ,989.8,21.1,-19,-1,-1.2,-1.5,25,990.673,22.6,-16.7865,-0.803447,-0.639182,-1.61447,
2026_06_26_18_23_48.779,3.853,47.9,0,0.771,0,0,0,0, ,0,0,0,0,0, ,991.8,21.2,-20.5,-0.8,-0.5,-1.6,25,990.681,22.5116,-16.9671,-0.809331,-0.652029,-1.61054,
2026_06_26_18_23_48.799,3.853,47.9,0,0.772,0,0,0,0, ,0,0,0,0,0, ,990.2,20.6,-20.2,-1.1,0,-1.7,25,990.7,22.4134,-17.1733,-0.817903,-0.627531,-1.61295,
2026_06_26_18_23_48.819,3.853,48,0,0.772,0,0,0,0, ,0,0,0,0,0, ,989.8,20.2,-24.4,-1,0.8,-2.1,25,990.657,22.2907,-17.4857,-0.832047,-0.564915,-1.63044,
2026_06_26_18_23_48.838,3.853,47.9,0,0.772,0,0,0,0, ,0,0,0,0,0, ,991.5,23,-20.9,-1.3,1.4,-1.7,25,990.657,22.2486,-17.8004,-0.851422,-0.46346,-1.64687,
2026_06_26_18_23_48.858,3.853,47.9,0,0.772,0,0,0,0, ,0,0,0,0,0, ,991,22.4,-15.3,-0.6,1.8,-1.5,25,990.693,22.2762,-17.8186,-0.857429,-0.337718,-1.64401,
2026_06_26_18_23_48.878,3.853,47.8,0,0.772,0,0,0,0, ,0,0,0,0,0, ,991,21.4,-10.2,0,1.2,-1.5,25,990.712,22.2532,-17.5098,-0.823461,-0.225732,-1.63524,
2026_06_26_18_23_48.898,3.853,47.8,0,0.772,0,0,0,0, ,0,0,0,0,0, ,992.1,20.2,-10.2,-0.5,0.5,-1.6,25,990.763,22.1647,-17.0643,-0.788515,-0.160179,-1.63004,
2026_06_26_18_23_48.918,3.853,47.9,0,0.772,0,0,0,0, ,0,0,0,0,0, ,990.8,21.7,-10.7,-0.4,0,-1.8,25,990.805,22.0907,-16.6613,-0.767887,-0.135184,-1.6343,
2026_06_26_18_23_48.937,3.853,48,0,0.772,0,0,0,0, ,0,0,0,0,0, ,990.9,21.6,-10.4,-0.5,-0.3,-1.9,25,990.807,22.0638,-16.2889,-0.748516,-0.136087,-1.64745,
2026_06_26_18_23_48.957,3.853,47.8,0,0.772,0,0,0,0, ,0,0,0,0,0, ,991.4,23.5,-12.5,-0.7,-0.7,-1.9,25,990.828,22.0934,-15.994,-0.739466,-0.158263,-1.66284,
2026_06_26_18_23_48.977,3.853,47.8,0,0.771,0,0,0,0, ,0,0,0,0,0, ,989.2,22.9,-13.7,-0.3,-0.9,-1.6,25,990.796,22.1609,-15.8176,-0.724873,-0.197369,-1.66815,
2026_06_26_18_23_48.997,3.853,47.7,0,0.772,0,0,0,0, ,0,0,0,0,0, ,990.4,20.7,-19.1,-0.8,-0.8,-1.5,25,990.735,22.1389,-15.8531,-0.714217,-0.237138,-1.66095,
2026_06_26_18_23_49.017,3.853,47.7,0,0.772,0,0,0,0, ,0,0,0,0,0, ,990.7,20.7,-19.1,-0.2,0.1,-1.7,25,990.724,22.0512,-16.051,-0.701163,-0.244016,-1.65724,
2026_06_26_18_23_49.036,3.853,47.8,0,0.774,0,0,0,0, ,0,0,0,0,0, ,991.3,22.5,-14,0.2,0.8,-1.9,25,990.741,22.0237,-16.0814,-0.658436,-0.201724,-1.66594,
2026_06_26_18_23_49.055,3.853,47.8,0,0.772,0,0,0,0, ,0,0,0,0,0, ,989.9,23.1,-12.2,-0.1,0.3,-1.5,25,990.732,22.071,-15.8997,-0.615266,-0.155916,-1.66801,
2026_06_26_18_23_49.075,3.853,47.7,0,0.772,0,0,0,0, ,0,0,0,0,0, ,989.9,20,-16.1,-0.5,0.3,-1.7,25,990.682,22.0393,-15.7931,-0.596054,-0.128134,-1.66387,
2026_06_26_18_23_49.096,3.853,47.7,0,0.773,0,0,0,0, ,0,0,0,0,0, ,989.6,21.2,-10,-0.1,0.6,-1.8,25,990.625,21.9515,-15.6259,-0.578013,-0.0929037,-1.66912,
2026_06_26_18_23_49.115,3.853,47.7,0,0.772,0,0,0,0, ,0,0,0,0,0, ,991.2,22.7,-5.7,-0.3,-0.2,-1.6,25,990.611,21.9515,-15.1521,-0.554978,-0.0750549,-1.671,
2026_06_26_18_23_49.135,3.853,47.7,0,0.773,0,0,0,0, ,0,0,0,0,0, ,990.8,21.8,-13.1,-0.6,-0.9,-1.5,25,990.635,21.9696,-14.8016,-0.548581,-0.103997,-1.66362,
2026_06_26_18_23_49.155,3.853,47.7,0,0.772,0,0,0,0, ,0,0,0,0,0, ,990.9,20.5,-15.7,-0.9,-0.5,-1.5,25,990.648,21.9197,-14.7771,-0.560855,-0.140316,-1.65365,
2026_06_26_18_23_49.174,3.853,47.7,0,0.773,0,0,0,0, ,0,0,0,0,0, ,991.2,18.4,-17.5,-0.8,0.2,-1.9,25,990.672,21.7692,-14.8882,-0.578475,-0.140906,-1.65648,
2026_06_26_18_23_49.195,3.853,47.7,0,0.772,0,0,0,0, ,0,0,0,0,0, ,991.2,24.2,-13.9,-0.8,0.6,-1.8,25,990.705,21.7406,-14.9377,-0.591974,-0.107944,-1.66827,
2026_06_26_18_23_49.215,3.853,47.6,0,0.773,0,0,0,0, ,0,0,0,0,0, ,991.6,23.9,-15,-0.7,0.9,-1.4,25,990.747,21.8813,-14.9079,-0.601604,-0.0556635,-1.66411,
2026_06_26_18_23_49.234,3.853,47.6,0,0.772,0,0,0,0, ,0,0,0,0,0, ,990.1,20.5,-18.9,-0.6,1.8,-1.3,25,990.753,21.9008,-15.0324,-0.604553,0.0299942,-1.64497,
2026_06_26_18_23_49.253,3.853,47.6,0,0.772,0,0,0,0, ,0,0,0,0,0, ,990.4,25.3,-10.1,-1,2.8,-1.2,25,990.723,21.9616,-14.9999,-0.616463,0.168323,-1.6209,
2026_06_26_18_23_49.273,3.853,47.6,0,0.77,0,0,0,0, ,0,0,0,0,0, ,991.5,36.9,55.5,-11.5,-2.3,0,25,990.736,22.5185,-12.7026,-0.959757,0.1733,-1.55869,
2026_06_26_18_23_49.294,3.853,47.6,0,0.77,0,0,0,0, ,0,0,0,0,0, ,989.6,15.2,38.3,-18.2,-7.4,3.2,25,990.725,22.7337,-9.07056,-1.80619,-0.132807,-1.36621,
2026_06_26_18_23_49.313,3.853,47.6,0,0.772,0,0,0,0, ,0,0,0,0,0, ,1092.2,-37.2,-9.8,-20.2,-11.4,23.2,25,993.783,20.6781,-7.64946,-2.86613,-0.697527,-0.478579,
2026_06_26_18_23_49.333,3.853,47.6,0,0.772,0,0,0,0, ,0,0,0,0,0, ,1118.1,-30.2,-93,-17.9,17.7,26.9,25,1000.57,17.3644,-10.3155,-3.85233,-0.463068,1.07707,
2026_06_26_18_23_49.353,3.853,47.6,0,0.772,0,0,0,0, ,0,0,0,0,0, ,1157.9,-25.8,-49.3,-2.3,45,34.3,25,1008.94,14.6,-14.0226,-4.23305,1.47554,2.87612,
2026_06_26_18_23_49.373,3.853,47.4,0,0.772,0,0,0,0, ,0,0,0,0,0, ,1165.1,-24.2,15.5,2.4,77.1,40.5,25,1018.24,12.1869,-14.198,-3.97205,5.10586,4.97992,
2026_06_26_18_23_49.392,3.853,47.5,0,0.771,0,0,0,0, ,0,0,0,0,0, ,1135.8,-24.5,71.5,5.4,118.4,46.4,25,1026.3,9.96042,-10.682,-3.49235,10.7514,7.32419,
2026_06_26_18_23_49.412,3.853,47.5,0,0.772,0,0,0,0, ,0,0,0,0,0, ,1058.7,-24.7,92.1,8.4,152.2,47.2,25,1030.62,7.85439,-5.04637,-2.85906,18.341,9.72975,
2026_06_26_18_23_49.431,3.853,47.5,0,0.772,0,0,0,0, ,0,0,0,0,0, ,982.4,-36,115.2,12.4,163.1,45,25,1030.01,5.52631,1.57732,-2.05109,26.8302,11.9461,
2026_06_26_18_23_49.451,3.853,47.5,0,0.774,0,0,0,0, ,0,0,0,0,0, ,916.1,-29.6,160,5.3,152.2,40.5,25,1025.09,3.1908,9.8662,-1.38681,34.802,13.8232,
2026_06_26_18_23_49.471,3.853,47.5,0,0.772,0,0,0,0, ,0,0,0,0,0, ,923.5,-70.8,227.7,3,154.8,36.1,25,1018.67,-0.0626971,21.0777,-1.04941,42.0352,15.3147,
2026_06_26_18_23_49.493,3.853,47.5,0,0.774,0,0,0,0, ,0,0,0,0,0, ,892.3,-101.8,285.2,13.4,170.1,31.1,25,1011.92,-5.31778,35.4207,-0.485771,49.3729,16.429,
2026_06_26_18_23_49.511,3.853,47.5,0,0.772,0,0,0,0, ,0,0,0,0,0, ,824.8,-95.4,322,12.5,169,23.8,25,1002.57,-11.0022,51.7629,0.332971,56.6962,17.1006,
2026_06_26_18_23_49.531,3.853,47.6,0,0.775,0,0,0,0, ,0,0,0,0,0, ,814.4,-114.5,370.8,13.8,157.2,17.3,25,991.424,-16.7271,69.7173,1.11401,63.1802,17.3108,
2026_06_26_18_23_49.550,3.853,47.5,0,0.77,0,0,0,0, ,0,0,0,0,0, ,781,-123.1,418.8,17,149.5,11.8,25,979.619,-22.9472,89.5271,1.98456,68.6749,17.1425,
2026_06_26_18_23_49.570,3.853,47.4,0,0.77,0,0,0,0, ,0,0,0,0,0, ,784.9,-133.9,473.9,22.9,147.3,8.8,25,967.634,-29.3793,111.271,3.07933,73.5332,16.7256,
2026_06_26_18_23_49.590,3.853,47.4,0,0.772,0,0,0,0, ,0,0,0,0,0, ,782.3,-132.3,531.3,23.5,146.4,9,25,956.42,-35.6998,135.118,4.30543,78.0009,16.2487,
2026_06_26_18_23_49.610,3.853,47.4,0,0.77,0,0,0,0, ,0,0,0,0,0, ,771.8,-130.6,586.4,24.7,153.2,10.7,25,945.489,-41.5346,160.939,5.51166,82.3762,15.8588,
2026_06_26_18_23_49.630,3.853,47.4,0,0.773,0,0,0,0, ,0,0,0,0,0, ,734.1,-143.7,600.2,33.6,169.2,8.8,25,933.756,-47.3611,187.286,6.95213,87.1795,15.4865,
2026_06_26_18_23_49.649,3.853,47.3,0,0.772,0,0,0,0, ,0,0,0,0,0, ,673.3,-132.6,629.3,35.5,165.4,11.4,25,919.737,-52.8936,213.334,8.63387,92.0618,15.1583,
2026_06_26_18_23_49.669,3.853,47.5,0,0.772,0,0,0,0, ,0,0,0,0,0, ,626.7,-115.3,651.7,33.2,151.8,16.7,25,903.3,-57.2236,239.365,10.2009,96.1165,15.0908,
2026_06_26_18_23_49.689,3.853,47.4,0,0.772,0,0,0,0, ,0,0,0,0,0, ,572.3,-104.6,691.4,42.5,149,16.1,25,884.787,-60.4366,265.701,11.8858,99.4244,15.1705,
2026_06_26_18_23_49.709,3.853,47.4,0,0.772,0,0,0,0, ,0,0,0,0,0, ,523,-87.8,757.9,40.5,141.9,14,25,864.243,-62.6159,293.668,13.6904,102.229,15.1632,
2026_06_26_18_23_49.728,3.853,47.3,0,0.772,0,0,0,0, ,0,0,0,0,0, ,467,-88.8,788,46.9,142.7,9.2,25,841.742,-64.181,322.874,15.5191,104.671,14.9461,
2026_06_26_18_23_49.748,3.853,47.3,0,0.772,0,0,0,0, ,0,0,0,0,0, ,400.3,-72.9,839.1,39.4,145.9,5.6,25,816.874,-65.1968,352.775,17.2029,107.086,14.4862,
2026_06_26_18_23_49.768,3.853,47.3,0,0.772,0,0,0,0, ,0,0,0,0,0, ,359.2,-42.7,859.9,39.5,145.4,-2.5,25,790.237,-64.7461,383.044,18.5586,109.436,13.6979,
2026_06_26_18_23_49.788,3.853,47.2,0,0.77,0,0,0,0, ,0,0,0,0,0, ,336.3,-33.5,876.2,39.6,130,-8.3,25,763.273,-63.1223,412.599,19.8377,111.158,12.5341,
2026_06_26_18_23_49.807,3.853,47.3,0,0.77,0,0,0,0, ,0,0,0,0,0, ,337.6,-34.1,916.9,37.3,117.2,-9,25,737.294,-61.3355,442.09,20.9719,111.916,11.2432,
2026_06_26_18_23_49.827,3.853,47.3,0,0.772,0,0,0,0, ,0,0,0,0,0, ,317.1,-23,942.7,34.2,111.7,-7,25,712.313,-59.3376,471.81,21.8725,112.071,10.0706,
2026_06_26_18_23_49.847,3.853,47.3,0,0.772,0,0,0,0, ,0,0,0,0,0, ,286.3,-13.9,953.8,32.6,110.6,-5,25,687.291,-56.846,500.843,22.5749,112.015,9.0913,
2026_06_26_18_23_49.866,3.853,47.2,0,0.772,0,0,0,0, ,0,0,0,0,0, ,239.2,10.9,967.5,34.5,110,-6.6,25,661.421,-53.4734,528.862,23.2437,111.91,8.18386,
2026_06_26_18_23_49.886,3.853,47.3,0,0.772,0,0,0,0, ,0,0,0,0,0, ,208.3,23.9,988.2,34.5,106.6,-8.8,25,634.75,-49.1545,556.223,23.9296,111.69,7.21594,
2026_06_26_18_23_49.907,3.853,47.3,0,0.772,0,0,0,0, ,0,0,0,0,0, ,186.6,37.4,1011.1,29.3,101.4,-7,25,608.102,-44.2915,583.244,24.4153,111.222,6.29481,
2026_06_26_18_23_49.926,3.853,47.3,0,0.771,0,0,0,0, ,0,0,0,0,0, ,159.5,43.5,995.6,29.5,111.4,-5.7,25,581.591,-39.1275,608.844,24.7191,110.928,5.52427,
2026_06_26_18_23_49.946,3.853,47.2,0,0.773,0,0,0,0, ,0,0,0,0,0, ,128.6,51.6,1003.1,31.8,117.3,-6.3,25,554.929,-33.8456,632.641,25.0805,111.136,4.82201,
2026_06_26_18_23_49.965,3.853,47.2,0,0.772,0,0,0,0, ,0,0,0,0,0, ,50.6,72,1024.7,30,115.6,-9.3,25,526.573,-28.0172,655.874,25.4351,111.46,4.05285,
2026_06_26_18_23_49.985,3.853,47,0,0.774,0,0,0,0, ,0,0,0,0,0, ,2.4,82.3,1025.7,24.3,101.7,-12.7,25,496.099,-21.6086,678.379,25.5396,111.289,3.13557,
2026_06_26_18_23_50.005,3.853,47.2,0,0.771,0,0,0,0, ,0,0,0,0,0, ,-4.6,78.7,1004,25.4,95,-13.4,25,465.801,-15.3863,698.883,25.4976,110.5,2.14926,
2026_06_26_18_23_50.025,3.853,47.2,0,0.771,0,0,0,0, ,0,0,0,0,0, ,-27.2,91.9,1005.6,26.3,93.4,-12.2,25,436.448,-9.25077,717.525,25.5191,109.507,1.23829,
2026_06_26_18_23_50.044,3.853,47.2,0,0.772,0,0,0,0, ,0,0,0,0,0, ,-55.4,92.7,1014.4,22.2,77.6,-9.1,25,407.335,-3.06252,735.348,25.4417,108.044,0.513848,
2026_06_26_18_23_50.064,3.853,47.2,0,0.771,0,0,0,0, ,0,0,0,0,0, ,-62.8,89.4,1021.6,16.9,52.3,-0.6,25,378.912,2.67246,752.572,25.0827,105.418,0.186988,
2026_06_26_18_23_50.084,3.853,47.2,0,0.772,0,0,0,0, ,0,0,0,0,0, ,-93.8,99.2,993.6,14.3,35.9,5.3,25,351.05,8.25602,768.112,24.5049,101.682,0.318797,
2026_06_26_18_23_50.104,3.853,47.3,0,0.772,0,0,0,0, ,0,0,0,0,0, ,-109.2,122.8,981.2,14.7,30.4,5.6,25,323.473,14.517,781.475,23.8952,97.5054,0.631479,
2026_06_26_18_23_50.124,3.853,47.2,0,0.771,0,0,0,0, ,0,0,0,0,0, ,-195.1,119.3,985.3,13.9,22.1,3.9,25,294.49,21.0088,793.771,23.3105,93.1633,0.882452,
2026_06_26_18_23_50.144,3.853,47,0,0.772,0,0,0,0, ,0,0,0,0,0, ,-49.4,132,1012,12.4,1.7,0.7,25,269.095,27.3854,806.256,22.6913,88.2113,0.968834,
2026_06_26_18_23_50.163,3.853,47,0,0.772,0,0,0,0, ,0,0,0,0,0, ,-41.6,130.6,1012.4,17.6,11.2,5.2,25,249.924,33.7177,818.806,22.2226,83.2289,1.08956,
2026_06_26_18_23_50.183,3.853,47,0,0.771,0,0,0,0, ,0,0,0,0,0, ,-90.9,136.4,1020.9,8.3,-1.2,11.5,25,230.657,39.7982,830.862,21.6576,78.4619,1.53199,
2026_06_26_18_23_50.208,3.853,47,0,0.771,0,0,0,0, ,0,0,0,0,0, ,-117.5,142.7,975.7,9.3,-2.1,14.5,25,210.252,45.8768,841.065,20.8741,73.5801,2.23083,
2026_06_26_18_23_50.222,3.853,46.9,0,0.77,0,0,0,0, ,0,0,0,0,0, ,-127.3,168.3,1023,7.8,5.4,9,25,189.981,52.557,850.71,20.1231,69.1968,2.8109,
2026_06_26_18_23_50.243,3.853,47,0,0.772,0,0,0,0, ,0,0,0,0,0, ,-122.9,143.4,983.6,7,10.8,7.4,25,170.781,58.8514,860.009,19.3478,65.4737,3.1393,
2026_06_26_18_23_50.262,3.853,47,0,0.77,0,0,0,0, ,0,0,0,0,0, ,-130.3,147.7,984.4,5.9,-1.1,9.6,25,152.659,64.1346,867.565,18.5618,61.7795,3.46597,
2026_06_26_18_23_50.282,3.853,46.9,0,0.772,0,0,0,0, ,0,0,0,0,0, ,-136.7,147.2,985.8,5.7,-8,12.3,25,135.221,69.2116,874.727,17.7841,57.7375,3.92202,
2026_06_26_18_23_50.301,3.853,47,0,0.772,0,0,0,0, ,0,0,0,0,0, ,-149,158.6,984.2,6.7,0.6,9.8,25,118.276,74.3114,881.447,17.0782,53.9937,4.35639,
2026_06_26_18_23_50.321,3.853,47,0,0.772,0,0,0,0, ,0,0,0,0,0, ,-161.2,166.1,988.5,7.5,8.2,3.7,25,101.617,79.6762,887.839,16.4702,50.9716,4.50225,
2026_06_26_18_23_50.342,3.853,46.9,0,0.772,0,0,0,0, ,0,0,0,0,0, ,-144.2,159.1,982.1,4.7,-0.7,0.4,25,86.1199,84.7294,893.778,15.8382,48.094,4.35281,
2026_06_26_18_23_50.361,3.853,47,0,0.771,0,0,0,0, ,0,0,0,0,0, ,-117.3,152.8,967.2,2.8,-12.4,2.3,25,72.9044,89.0694,898.706,15.1016,44.7641,4.16983,
2026_06_26_18_23_50.381,3.853,46.9,0,0.774,0,0,0,0, ,0,0,0,0,0, ,-104.1,158,962.6,4.3,-9.3,4.4,25,61.716,93.1114,902.74,14.3977,41.3751,4.11987,
2026_06_26_18_23_50.401,3.853,46.9,0,0.772,0,0,0,0, ,0,0,0,0,0, ,-122.9,167.4,966.1,7.6,2.4,3.1,25,51.0388,97.352,906.494,13.8829,38.6436,4.09733,
2026_06_26_18_23_50.420,3.853,46.9,0,0.772,0,0,0,0, ,0,0,0,0,0, ,-131.2,173.2,975.3,8.5,4.5,0.3,25,40.1865,101.797,910.407,13.5275,36.499,3.95124,
2026_06_26_18_23_50.441,3.853,47,0,0.77,0,0,0,0, ,0,0,0,0,0, ,-123,171.5,985.7,7.5,-3.2,0.2,25,29.9925,106.097,914.678,13.1906,34.3145,3.7257,
2026_06_26_18_23_50.461,3.853,46.8,0,0.772,0,0,0,0, ,0,0,0,0,0, ,-113,171.8,987.6,5,-9.1,1,25,20.9742,110.091,919.064,12.7677,31.8486,3.53523,
2026_06_26_18_23_50.480,3.853,46.8,0,0.772,0,0,0,0, ,0,0,0,0,0, ,-106.5,182,975.7,5,-4.1,0.1,25,13.0082,114.162,922.878,12.2944,29.5057,3.35331,
2026_06_26_18_23_50.499,3.853,46.9,0,0.772,0,0,0,0, ,0,0,0,0,0, ,-99.9,183.1,982.1,7.5,5,-0.9,25,5.92673,118.33,926.292,11.926,27.7351,3.1246,
2026_06_26_18_23_50.519,3.853,46.8,0,0.772,0,0,0,0, ,0,0,0,0,0, ,-114.7,186,997.4,5.3,3.8,-0.2,25,-0.973028,122.365,930.159,11.5893,26.3131,2.90068,
2026_06_26_18_23_50.539,3.853,46.8,0,0.772,0,0,0,0, ,0,0,0,0,0, ,-124.3,187.2,982,5.1,-6.2,0.9,25,-8.19576,126.279,933.787,11.1999,24.6365,2.74524,
2026_06_26_18_23_50.559,3.853,46.8,0,0.772,0,0,0,0, ,0,0,0,0,0, ,-117.4,188.9,987.5,5.4,-8.2,1.5,25,-15.0606,130.044,936.893,10.8374,22.6965,2.65108,
2026_06_26_18_23_50.579,3.853,46.8,0,0.773,0,0,0,0, ,0,0,0,0,0, ,-127.6,218.3,1076.5,3.1,12.2,-4,25,-21.6077,134.526,942.688,10.4359,21.4353,2.41336,
2026_06_26_18_23_50.598,3.853,46.7,0,0.772,0,0,0,0, ,0,0,0,0,0, ,-148.6,229.3,1195,-1.3,24.9,-8.9,25,-28.7065,139.966,954.453,9.85485,21.2595,1.87325,
2026_06_26_18_23_50.619,3.853,46.8,0,0.772,0,0,0,0, ,0,0,0,0,0, ,-111.6,196.8,928.9,-10.4,0,-5.6,25,-34.8851,144.42,961.003,8.89783,20.7227,1.3173,
2026_06_26_18_23_50.639,3.853,46.8,0,0.772,0,0,0,0, ,0,0,0,0,0, ,-102.2,179.8,957.3,1,-3,-3.6,25,-39.2735,147.094,959.912,8.06921,19.3685,0.956715,
2026_06_26_18_23_50.658,3.853,46.8,0,0.771,0,0,0,0, ,0,0,0,0,0, ,-121.4,188.2,1001.7,-2.8,-6.3,-0.1,25,-43.6931,149.343,961.106,7.52265,17.9048,0.785681,
2026_06_26_18_23_50.678,3.853,46.7,0,0.772,0,0,0,0, ,0,0,0,0,0, ,-133.5,185.5,935.4,-3.1,2.3,-4,25,-48.7971,151.628,961.56,6.88448,16.6919,0.612882,
2026_06_26_18_23_50.697,3.853,46.8,0,0.772,0,0,0,0, ,0,0,0,0,0, ,-124.3,187,1005.9,-4.5,2.3,-5.8,25,-53.6783,153.738,962.114,6.23339,15.8149,0.27694,
2026_06_26_18_23_50.717,3.853,46.7,0,0.772,0,0,0,0, ,0,0,0,0,0, ,-99.7,181.5,975.5,-4.4,-1.7,-3.9,25,-57.2323,155.597,963.856,5.58237,14.8694,-0.0354825,
2026_06_26_18_23_50.737,3.853,46.8,0,0.772,0,0,0,0, ,0,0,0,0,0, ,-109.8,178.4,979.7,-1.3,-2.4,-2.1,25,-60.1279,157.081,964.693,5.06852,13.8384,-0.216133,
2026_06_26_18_23_50.757,3.853,46.6,0,0.771,0,0,0,0, ,0,0,0,0,0, ,-122.9,179,975.9,-1.2,-2.4,-0.7,25,-63.5539,158.399,965.492,4.68349,12.8489,-0.288275,
2026_06_26_18_23_50.777,3.853,46.8,0,0.772,0,0,0,0, ,0,0,0,0,0, ,-131.9,186.2,976.4,-1.5,-0.6,-1.9,25,-67.4446,159.873,966.141,4.31582,11.9745,-0.349927,
2026_06_26_18_23_50.796,3.853,46.7,0,0.772,0,0,0,0, ,0,0,0,0,0, ,-115.2,181.8,978.3,-2.2,-1.4,-3.2,25,-70.8635,161.344,966.824,3.94009,11.1839,-0.483994,
2026_06_26_18_23_50.816,3.853,46.7,0,0.77,0,0,0,0, ,0,0,0,0,0, ,-94.4,177.7,981.9,-1.9,-2.1,-2.7,25,-72.9315,162.465,967.633,3.57507,10.3957,-0.634266,
2026_06_26_18_23_50.836,3.853,46.7,0,0.771,0,0,0,0, ,0,0,0,0,0, ,-108.7,177.7,981.6,-2.7,-3.5,-1.1,25,-74.6754,163.394,968.494,3.21706,9.5916,-0.711397,
2026_06_26_18_23_50.856,3.853,46.6,0,0.77,0,0,0,0, ,0,0,0,0,0, ,-123.4,181.1,983.3,-2.5,-1.3,-1.5,25,-77.1967,164.369,969.344,2.86258,8.86086,-0.747265,
2026_06_26_18_23_50.875,3.853,46.7,0,0.771,0,0,0,0, ,0,0,0,0,0, ,-109.9,180.7,977,-2.2,0.7,-2.2,25,-79.6009,165.376,970.003,2.54494,8.30262,-0.814463,
2026_06_26_18_23_50.895,3.853,46.6,0,0.773,0,0,0,0, ,0,0,0,0,0, ,-111.5,183.7,972.6,-1.6,-1,-2.2,25,-81.496,166.402,970.295,2.27408,7.78754,-0.898894,
2026_06_26_18_23_50.915,3.853,46.7,0,0.773,0,0,0,0, ,0,0,0,0,0, ,-116.5,177.2,981.2,-1.1,-1.4,-2.4,25,-83.4767,167.258,970.697,2.05324,7.23986,-0.984274,
2026_06_26_18_23_50.935,3.853,46.6,0,0.77,0,0,0,0, ,0,0,0,0,0, ,-122.3,174,979.8,-2,-1.1,-2.1,25,-85.6658,167.766,971.295,1.83366,6.72251,-1.0614,
2026_06_26_18_23_50.955,3.853,46.7,0,0.771,0,0,0,0, ,0,0,0,0,0, ,-125.2,175,979.2,-2.7,-0.9,-2.1,25,-87.9865,168.176,971.795,1.57872,6.25192,-1.12469,
2026_06_26_18_23_50.975,3.853,46.5,0,0.77,0,0,0,0, ,0,0,0,0,0, ,-116.9,174.1,980.2,-1.3,-1.1,-2,25,-90.0013,168.565,972.276,1.36064,5.81001,-1.18108,
2026_06_26_18_23_50.994,3.853,46.7,0,0.771,0,0,0,0, ,0,0,0,0,0, ,-109.2,170.6,978.2,-0.1,-1.6,-1.1,25,-91.4059,168.795,972.698,1.23507,5.37369,-1.20356,
2026_06_26_18_23_51.015,3.853,46.6,0,0.771,0,0,0,0, ,0,0,0,0,0, ,-114.1,175.2,980.5,-0.4,-1.8,-0.9,25,-92.6395,169.046,973.104,1.14458,4.94264,-1.19116,
2026_06_26_18_23_51.034,3.853,46.6,0,0.771,0,0,0,0, ,0,0,0,0,0, ,-120.3,174.4,981.6,-1.6,-2,-0.9,25,-94.1361,169.396,973.588,1.01389,4.52567,-1.17341,
2026_06_26_18_23_51.054,3.853,46.6,0,0.77,0,0,0,0, ,0,0,0,0,0, ,-119.6,177.2,976.8,-2,-0.9,-2.3,25,-95.7092,169.786,973.93,0.842419,4.16152,-1.19941,
2026_06_26_18_23_51.074,3.853,46.5,0,0.771,0,0,0,0, ,0,0,0,0,0, ,-108.3,176,980.5,-1.1,-1.7,-2.7,25,-96.8207,170.202,974.218,0.696631,3.82871,-1.27866,
2026_06_26_18_23_51.094,3.853,46.5,0,0.772,0,0,0,0, ,0,0,0,0,0, ,-99.1,175.5,981.3,-0.7,-1.4,-2.9,25,-97.2399,170.54,974.625,0.599337,3.50095,-1.37137,
2026_06_26_18_23_51.114,3.853,46.5,0,0.772,0,0,0,0, ,0,0,0,0,0, ,-104.2,175.1,980.3,-1.1,-1.2,-2,25,-97.5087,170.83,975.001,0.507971,3.20839,-1.4371,
2026_06_26_18_23_51.133,3.853,46.5,0,0.772,0,0,0,0, ,0,0,0,0,0, ,-123.7,183.3,975.7,-1.2,-0.9,-2.1,25,-98.5106,171.34,975.184,0.406938,2.94889,-1.47445,
2026_06_26_18_23_51.153,3.853,46.5,0,0.772,0,0,0,0, ,0,0,0,0,0, ,-124,183.7,979.2,-2.1,-1.6,-2.3,25,-100.055,172.081,975.322,0.281594,2.69302,-1.51866,
2026_06_26_18_23_51.173,3.853,46.5,0,0.772,0,0,0,0, ,0,0,0,0,0, ,-108,182.1,976.3,-2.5,-1.2,-2.6,25,-101.026,172.74,975.47,0.124278,2.44361,-1.57541,
2026_06_26_18_23_51.193,3.853,46.6,0,0.772,0,0,0,0, ,0,0,0,0,0, ,-104.2,168.9,981.6,-2.3,-1.4,-1.4,25,-101.336,172.908,975.682,-0.0295454,2.21548,-1.60129,
2026_06_26_18_23_51.212,3.853,46.6,0,0.77,0,0,0,0, ,0,0,0,0,0, ,-125,173.7,974.2,-1.3,-1.2,-1.6,25,-102.144,172.81,975.817,-0.137432,2.00125,-1.59512,
2026_06_26_18_23_51.232,3.853,46.4,0,0.77,0,0,0,0, ,0,0,0,0,0, ,-121.5,171.7,981.3,-0.6,-1.6,-2.8,25,-103.43,172.804,975.935,-0.186948,1.79399,-1.63198,
2026_06_26_18_23_51.252,3.853,46.4,0,0.772,0,0,0,0, ,0,0,0,0,0, ,-105.2,174.5,980.3,-1.4,-1.4,-3,25,-104.034,172.822,976.231,-0.236494,1.59326,-1.70925,
2026_06_26_18_23_51.272,3.853,46.4,0,0.772,0,0,0,0, ,0,0,0,0,0, ,-99.1,172.2,984.9,-0.8,-1.2,-2.7,25,-103.92,172.854,976.619,-0.289114,1.41696,-1.77876,
2026_06_26_18_23_51.292,3.853,46.4,0,0.773,0,0,0,0, ,0,0,0,0,0, ,-98.3,173.5,981.9,-0.2,-0.6,-1.8,25,-103.602,172.854,977.033,-0.301964,1.27577,-1.80748,
2026_06_26_18_23_51.312,3.853,46.5,0,0.77,0,0,0,0, ,0,0,0,0,0, ,-110.7,174.6,981.8,-0.3,0,-1.1,25,-103.656,172.927,977.326,-0.298798,1.17974,-1.78569,
2026_06_26_18_23_51.331,3.853,46.5,0,0.772,0,0,0,0, ,0,0,0,0,0, ,-126,176.1,978,-1.2,-0.6,-1.1,25,-104.552,173.074,977.483,-0.326293,1.08957,-1.74391,
2026_06_26_18_23_51.351,3.853,46.5,0,0.772,0,0,0,0, ,0,0,0,0,0, ,-129,177.7,978.5,-2.4,-0.7,-2,25,-105.95,173.307,977.53,-0.416097,0.983566,-1.73209,
2026_06_26_18_23_51.371,3.853,46.5,0,0.77,0,0,0,0, ,0,0,0,0,0, ,-113.5,171.9,979.9,-1.6,-1.1,-2.4,25,-106.882,173.398,977.632,-0.512616,0.868786,-1.76061,
2026_06_26_18_23_51.391,3.853,46.4,0,0.77,0,0,0,0, ,0,0,0,0,0, ,-101.8,170.1,980.1,-1,-0.8,-2.3,25,-106.929,173.252,977.776,-0.560597,0.757954,-1.79652,
2026_06_26_18_23_51.410,3.853,46.5,0,0.77,0,0,0,0, ,0,0,0,0,0, ,-102,170.6,980.7,-0.6,-0.8,-1.7,25,-106.623,173.075,977.936,-0.575186,0.663016,-1.80892,
2026_06_26_18_23_51.430,3.853,46.3,0,0.769,0,0,0,0, ,0,0,0,0,0, ,-114.5,179.6,984.1,-0.6,-0.8,-1.7,25,-106.722,173.199,978.208,-0.576698,0.573863,-1.80228,
2026_06_26_18_23_51.450,3.853,46.5,0,0.771,0,0,0,0, ,0,0,0,0,0, ,-115.1,180.5,973.9,-0.7,-0.3,-1.9,25,-107.214,173.616,978.256,-0.581165,0.505378,-1.80214,
2026_06_26_18_23_51.469,3.853,46.4,0,0.773,0,0,0,0, ,0,0,0,0,0, ,-109.1,177.6,981.3,-1,-1.2,-2,25,-107.512,173.947,978.216,-0.597547,0.428878,-1.81115,
2026_06_26_18_23_51.490,3.853,46.4,0,0.77,0,0,0,0, ,0,0,0,0,0, ,-101.6,173.4,980.9,-1.9,-1.2,-2.2,25,-107.38,174.042,978.392,-0.649493,0.329618,-1.82876,
2026_06_26_18_23_51.513,3.853,46.4,0,0.771,0,0,0,0, ,0,0,0,0,0, ,-108.3,172.8,980.8,-1.8,-0.7,-1.9,25,-107.232,173.985,978.542,-0.722649,0.251642,-1.84224,
2026_06_26_18_23_51.529,3.853,46.4,0,0.77,0,0,0,0, ,0,0,0,0,0, ,-117,174.5,977.4,-1,-0.3,-1.7,25,-107.562,173.964,978.576,-0.763925,0.205839,-1.83966,
2026_06_26_18_23_51.549,3.853,46.3,0,0.77,0,0,0,0, ,0,0,0,0,0, ,-112.6,171.1,983,0.2,-0.4,-1.6,25,-108.003,173.893,978.675,-0.741749,0.171967,-1.82811,
2026_06_26_18_23_51.569,3.853,46.4,0,0.77,0,0,0,0, ,0,0,0,0,0, ,-107.1,172.4,979.3,-0.2,-0.7,-1.8,25,-108.116,173.763,978.825,-0.696548,0.127972,-1.8203,
2026_06_26_18_23_51.588,3.853,46.3,0,0.772,0,0,0,0, ,0,0,0,0,0, ,-110.3,173.5,981,-1.1,-1.2,-1.6,25,-108.151,173.713,978.906,-0.693712,0.0622834,-1.81297,
2026_06_26_18_23_51.608,3.853,46.3,0,0.77,0,0,0,0, ,0,0,0,0,0, ,-114.8,170,979.4,-1.3,-0.3,-2.1,25,-108.419,173.593,978.985,-0.724564,0.0127848,-1.81523,
2026_06_26_18_23_51.628,3.853,46.4,0,0.772,0,0,0,0, ,0,0,0,0,0, ,-125,172.3,976.4,-0.7,-1.1,-2.5,25,-109.119,173.445,978.919,-0.741348,-0.0306505,-1.84477,
2026_06_26_18_23_51.648,3.853,46.3,0,0.77,0,0,0,0, ,0,0,0,0,0, ,-116.6,176.2,981.9,1.3,-1.5,-2.3,25,-109.831,173.494,978.933,-0.677891,-0.108001,-1.8786,
2026_06_26_18_23_51.667,3.853,46.2,0,0.77,0,0,0,0, ,0,0,0,0,0, ,-106,172.1,979.7,0.9,-1.7,-1.8,25,-109.92,173.534,979.047,-0.569551,-0.19892,-1.88905,
2026_06_26_18_23_51.687,3.853,46.3,0,0.77,0,0,0,0, ,0,0,0,0,0, ,-99.4,176.2,982.4,-0.5,-2,-1.8,25,-109.48,173.571,979.169,-0.522656,-0.299533,-1.88362,
2026_06_26_18_23_51.707,3.853,46.3,0,0.772,0,0,0,0, ,0,0,0,0,0, ,-106.4,176.3,981.2,-1.7,-1,-1.5,25,-109.079,173.734,979.329,-0.557838,-0.372686,-1.86938,
2026_06_26_18_23_51.727,3.853,46.3,0,0.773,0,0,0,0, ,0,0,0,0,0, ,-108.1,182,979.1,-3.4,-1.1,-2,25,-108.968,174.064,979.379,-0.679235,-0.41396,-1.86211,
2026_06_26_18_23_51.747,3.853,46.3,0,0.77,0,0,0,0, ,0,0,0,0,0, ,-104.2,181,979,-1.7,-0.8,-2.1,25,-108.796,174.518,979.359,-0.793235,-0.446625,-1.87356,
2026_06_26_18_23_51.767,3.853,46.2,0,0.77,0,0,0,0, ,0,0,0,0,0, ,-107.2,171.6,982,-2,-1.1,-2.2,25,-108.608,174.626,979.429,-0.857632,-0.477299,-1.8904,
2026_06_26_18_23_51.786,3.853,46.2,0,0.77,0,0,0,0, ,0,0,0,0,0, ,-108.5,167.2,978.7,-1.3,-0.5,-2.7,25,-108.561,174.308,979.485,-0.905917,-0.496964,-1.9245,
2026_06_26_18_23_51.805,3.853,46.2,0,0.77,0,0,0,0, ,0,0,0,0,0, ,-111.3,170.1,982,-1.7,-1.4,-2.1,25,-108.643,173.963,979.538,-0.942119,-0.524571,-1.95348,
2026_06_26_18_23_51.826,3.853,46.2,0,0.77,0,0,0,0, ,0,0,0,0,0, ,-112.9,175.2,984.2,-1.2,-0.8,-1.6,25,-108.854,173.883,979.755,-0.973068,-0.559636,-1.94717,
2026_06_26_18_23_51.846,3.853,46.2,0,0.769,0,0,0,0, ,0,0,0,0,0, ,-113.8,174.9,974.9,-0.9,-0.6,-1.8,25,-109.128,173.954,979.742,-0.977756,-0.568189,-1.93211,
2026_06_26_18_23_51.865,3.853,46.2,0,0.769,0,0,0,0, ,0,0,0,0,0, ,-102.4,173.5,985.9,-1.4,-1.7,-1.8,25,-109.065,173.969,979.782,-0.988252,-0.603644,-1.92406,
2026_06_26_18_23_51.885,3.853,46.2,0,0.77,0,0,0,0, ,0,0,0,0,0, ,-99.3,166.1,979,-0.3,-0.5,-1.3,25,-108.564,173.715,979.945,-0.979827,-0.63389,-1.90127,
2026_06_26_18_23_51.905,3.853,46.2,0,0.77,0,0,0,0, ,0,0,0,0,0, ,-114.8,173.7,980.3,-0.3,-0.5,-1.9,25,-108.472,173.483,979.927,-0.9384,-0.625731,-1.88291,
2026_06_26_18_23_51.925,3.853,46.2,0,0.769,0,0,0,0, ,0,0,0,0,0, ,-114.5,175.4,983.1,-1,-1.1,-2.3,25,-108.849,173.548,980.035,-0.920826,-0.636351,-1.89614,
2026_06_26_18_23_51.949,3.853,46.2,0,0.769,0,0,0,0, ,0,0,0,0,0, ,-109.8,171.1,979,-1,-0.9,-2.3,25,-109.05,173.529,980.097,-0.92565,-0.658511,-1.92075,
2026_06_26_18_23_51.964,3.853,46.1,0,0.77,0,0,0,0, ,0,0,0,0,0, ,-100.5,173.7,984.3,-1.7,-1.2,-2.1,25,-108.812,173.461,980.191,-0.951509,-0.682367,-1.93776,
2026_06_26_18_23_51.984,3.853,46.3,0,0.77,0,0,0,0, ,0,0,0,0,0, ,-100.8,171.2,979.4,-1,-0.4,-1.3,25,-108.315,173.399,980.292,-0.975792,-0.689535,-1.92328,
2026_06_26_18_23_52.004,3.853,46.1,0,0.769,0,0,0,0, ,0,0,0,0,0, ,-116,175.2,975.2,0.3,-0.2,-1.5,25,-108.32,173.387,980.11,-0.937658,-0.665798,-1.89139,
2026_06_26_18_23_52.024,3.853,46.1,0,0.77,0,0,0,0, ,0,0,0,0,0, ,-112.3,174.5,981.6,-0.4,-0.7,-1.7,25,-108.675,173.476,980.006,-0.883566,-0.652648,-1.87363,
2026_06_26_18_23_52.044,3.853,46.1,0,0.77,0,0,0,0, ,0,0,0,0,0, ,-113.5,175.2,977.7,-0.6,-1.1,-2,25,-108.933,173.56,979.984,-0.860193,-0.667721,-1.87219,
2026_06_26_18_23_52.063,3.853,46.1,0,0.77,0,0,0,0, ,0,0,0,0,0, ,-105.2,171.6,983.6,-1.4,-1.4,-2,25,-108.958,173.55,980.025,-0.868712,-0.703203,-1.87998,
2026_06_26_18_23_52.083,3.853,46.1,0,0.77,0,0,0,0, ,0,0,0,0,0, ,-99.1,168.2,978.3,-0.8,-0.7,-1.8,25,-108.543,173.328,980.081,-0.882806,-0.724336,-1.8812,
2026_06_26_18_23_52.103,3.853,46.1,0,0.774,0,0,0,0, ,0,0,0,0,0, ,-107.6,170.6,981.2,-0.6,-0.3,-1.8,25,-108.227,173.088,980.061,-0.871667,-0.710666,-1.87625,
2026_06_26_18_23_52.123,3.853,46.1,0,0.77,0,0,0,0, ,0,0,0,0,0, ,-114.1,170.6,978.6,-0.2,-0.9,-2,25,-108.387,172.937,980.051,-0.842924,-0.703922,-1.8777,
2026_06_26_18_23_52.142,3.853,45.9,0,0.77,0,0,0,0, ,0,0,0,0,0, ,-114.9,178.8,982.1,-1,-1.3,-2.4,25,-108.759,173.044,980.069,-0.828121,-0.728058,-1.89734,
2026_06_26_18_23_52.162,3.853,46.1,0,0.77,0,0,0,0, ,0,0,0,0,0, ,-102.2,174.8,983.2,0,-1.3,-2.8,25,-108.746,173.273,980.227,-0.808126,-0.762911,-1.94016,
2026_06_26_18_23_52.182,3.853,46.1,0,0.772,0,0,0,0, ,0,0,0,0,0, ,-89.5,168.7,983.6,-0.3,-0.3,-1.6,25,-107.961,173.18,980.42,-0.768022,-0.765171,-1.95599,
2026_06_26_18_23_52.204,3.853,46,0,0.772,0,0,0,0, ,0,0,0,0,0, ,-110.2,172.3,979.3,-0.6,0.4,-1.4,25,-107.466,173.017,980.483,-0.748642,-0.715497,-1.92821,
2026_06_26_18_23_52.222,3.853,46,0,0.77,0,0,0,0, ,0,0,0,0,0, ,-117.7,176,980.7,-1.4,-0.8,-1.8,25,-107.861,173.086,980.453,-0.763959,-0.684083,-1.90821,
2026_06_26_18_23_52.243,3.853,46.1,0,0.77,0,0,0,0, ,0,0,0,0,0, ,-111.6,175.1,975.7,-1.1,-0.8,-2,25,-108.275,173.236,980.316,-0.793578,-0.691147,-1.90771,
2026_06_26_18_23_52.262,3.853,46,0,0.772,0,0,0,0, ,0,0,0,0,0, ,-104.7,175,980.5,-1.4,-1.4,-2,25,-108.267,173.347,980.181,-0.821391,-0.716062,-1.91333,
2026_06_26_18_23_52.281,3.853,46,0,0.77,0,0,0,0, ,0,0,0,0,0, ,-97.6,171.8,983.5,0,-0.6,-2.1,25,-107.834,173.35,980.292,-0.813994,-0.733364,-1.92166,
2026_06_26_18_23_52.300,3.853,46,0,0.772,0,0,0,0, ,0,0,0,0,0, ,-103.1,172.7,981,-0.3,0.3,-1.7,25,-107.378,173.283,980.411,-0.773531,-0.697815,-1.92034,
2026_06_26_18_23_52.320,3.853,45.8,0,0.771,0,0,0,0, ,0,0,0,0,0, ,-117.3,175.2,976.1,-0.9,0.1,-1.7,25,-107.55,173.323,980.298,-0.762957,-0.643105,-1.90691,
2026_06_26_18_23_52.340,3.853,45.9,0,0.77,0,0,0,0, ,0,0,0,0,0, ,-119.7,178.2,978.1,-1.8,-1.7,-2,25,-108.217,173.529,980.103,-0.79873,-0.652666,-1.90344,
2026_06_26_18_23_52.360,3.853,46,0,0.77,0,0,0,0, ,0,0,0,0,0, ,-106.6,172.9,983.3,-0.4,-1.5,-2.5,25,-108.518,173.652,980.139,-0.817088,-0.710394,-1.92456,
