UTC_Time,Vin,TC1,TC2,Rh1,Vh1,Ah1,Acp1,Dty1,Err1,Rh2,Vh2,Ah2,Acp2,Dty2,Err2,Accel_x,Accel_y,Accel_z,gyro_x,gyro_y,gyro_z,Temp_c,Accel_x_h,Accel_y_h,Accel_z_h,gyro_x_h,gyro_y_h,gyro_z_h,
2026_06_10_19_19_13.029,3.869,24.8,0,0.755,0,0,0,0.042, ,0,0,0,0,0, ,-35.2,-49.4,1004.1,-0.8,-0.3,-1.6,25,-35.1999,-49.3998,1004.1,-0.799997,-0.299999,-1.59999,
2026_06_10_19_19_13.048,3.869,24.7,0,0.759,0,0,0,0.043, ,0,0,0,0,0, ,-35.2,-50,1004.5,-0.7,-0.4,-1.6,25,-35.1999,-49.4181,1004.11,-0.796951,-0.303046,-1.59999,
2026_06_10_19_19_13.068,3.869,24.8,0,0.757,0,0,0,0.043, ,0,0,0,0,0, ,-34.5,-49.8,1004.2,-0.9,-0.4,-1.6,25,-35.1786,-49.4475,1004.12,-0.797136,-0.308954,-1.6,
2026_06_10_19_19_13.088,3.869,24.8,0,0.755,0,0,0,0.043, ,0,0,0,0,0, ,-34.1,-47.9,1004.6,-0.7,-0.4,-1.6,25,-35.125,-49.4111,1004.14,-0.797311,-0.314502,-1.6,
2026_06_10_19_19_13.108,3.869,24.8,0,0.755,0,0,0,0.044, ,0,0,0,0,0, ,-35.1,-49,1005.2,-0.8,-0.4,-1.7,25,-35.093,-49.3525,1004.19,-0.794428,-0.319712,-1.60304,
2026_06_10_19_19_13.131,3.869,24.8,0,0.757,0,0,0,0.044, ,0,0,0,0,0, ,-34.3,-49.1,1004,-0.6,-0.4,-1.6,25,-35.0691,-49.3341,1004.21,-0.788674,-0.324605,-1.6059,
2026_06_10_19_19_13.147,3.869,24.8,0,0.756,0,0,0,0.045, ,0,0,0,0,0, ,-33.9,-49.9,1005.6,-0.7,-0.4,-1.6,25,-35.01,-49.3442,1004.25,-0.780223,-0.329199,-1.60554,
2026_06_10_19_19_13.167,3.869,24.8,0,0.755,0,0,0,0.045, ,0,0,0,0,0, ,-34,-48.3,1004.1,-0.6,-0.4,-1.6,25,-34.9454,-49.3293,1004.28,-0.772288,-0.333514,-1.60521,
2026_06_10_19_19_13.187,3.869,24.9,0,0.756,0,0,0,0.046, ,0,0,0,0,0, ,-35.2,-50.1,1004.1,-0.7,-0.4,-1.7,25,-34.9244,-49.3214,1004.27,-0.764836,-0.337565,-1.60794,
2026_06_10_19_19_13.207,3.869,24.8,0,0.756,0,0,0,0.046, ,0,0,0,0,0, ,-34.3,-49,1003.9,-0.5,-0.5,-1.6,25,-34.9138,-49.3354,1004.26,-0.754791,-0.344417,-1.6105,
2026_06_10_19_19_13.226,3.869,25,0,0.756,0,0,0,0.047, ,0,0,0,0,0, ,-34.5,-49.4,1003.7,-0.7,-0.3,-1.6,25,-34.8825,-49.3271,1004.23,-0.745359,-0.347804,-1.60986,
2026_06_10_19_19_13.246,3.869,24.8,0,0.756,0,0,0,0.046, ,0,0,0,0,0, ,-33.5,-48,1004.2,-0.6,-0.3,-1.6,25,-34.8287,-49.2889,1004.21,-0.739548,-0.344891,-1.60926,
2026_06_10_19_19_13.266,3.869,24.9,0,0.756,0,0,0,0.048, ,0,0,0,0,0, ,-35.6,-50.1,1003.6,-0.8,-0.4,-1.6,25,-34.8117,-49.2743,1004.19,-0.737138,-0.345202,-1.60869,
2026_06_10_19_19_13.287,3.869,24.9,0,0.755,0,0,0,0.048, ,0,0,0,0,0, ,-35.6,-48.2,1005.6,-0.6,-0.3,-1.6,25,-34.8597,-49.2668,1004.22,-0.734875,-0.345494,-1.60816,
2026_06_10_19_19_13.305,3.869,24.9,0,0.758,0,0,0,0.048, ,0,0,0,0,0, ,-34.7,-49,1002.1,-0.7,-0.4,-1.7,25,-34.8774,-49.2261,1004.2,-0.729703,-0.345769,-1.61071,
2026_06_10_19_19_13.325,3.869,25,0,0.755,0,0,0,0.049, ,0,0,0,0,0, ,-34.5,-49.6,1004.8,-0.6,-0.3,-1.7,25,-34.8605,-49.2306,1004.15,-0.724846,-0.346027,-1.61615,
2026_06_10_19_19_13.346,3.869,25,0,0.754,0,0,0,0.048, ,0,0,0,0,0, ,-34,-48.9,1002.8,-0.7,-0.4,-1.6,25,-34.8233,-49.2318,1004.13,-0.720285,-0.346269,-1.61822,
2026_06_10_19_19_13.366,3.869,25.1,0,0.758,0,0,0,0.049, ,0,0,0,0,0, ,-35.1,-49.3,1002.3,-0.6,-0.4,-1.6,25,-34.8067,-49.2238,1004.03,-0.716002,-0.349543,-1.61711,
2026_06_10_19_19_13.385,3.869,25,0,0.757,0,0,0,0.048, ,0,0,0,0,0, ,-34.6,-47.3,1003.9,-0.6,-0.4,-1.6,25,-34.8093,-49.1675,1003.98,-0.708933,-0.352618,-1.61606,
2026_06_10_19_19_13.405,3.848,25.1,0,0.757,3.895,5.145,1,0.05, ,0,0,0,0,0, ,-34.1,-49.6,1003.4,-0.6,-0.4,-1.6,25,-34.7813,-49.1238,1003.96,-0.702295,-0.355505,-1.61509,
2026_06_10_19_19_13.425,3.848,25.1,0,0.755,0,0,0,0.049, ,0,0,0,0,0, ,-34.3,-50.2,1004,-0.7,-0.4,-1.6,25,-34.7459,-49.1711,1003.94,-0.699108,-0.358217,-1.61417,
2026_06_10_19_19_13.444,3.845,25.1,0,0.757,3.901,5.153,1,0.05, ,0,0,0,0,0, ,-34.9,-49.8,1004.1,-0.6,-0.3,-1.6,25,-34.737,-49.2216,1003.95,-0.696116,-0.357716,-1.6133,
2026_06_10_19_19_13.465,3.846,25,0,0.756,3.893,5.149,1,0.05, ,0,0,0,0,0, ,-34.3,-49.6,1003.9,-0.6,-0.3,-1.7,25,-34.7286,-49.2507,1003.95,-0.690259,-0.354199,-1.61554,
2026_06_10_19_19_13.484,3.848,25.1,0,0.756,3.894,5.15,1.04,0.052, ,0,0,0,0,0, ,-33.6,-47.7,1003.6,-0.6,-0.4,-1.7,25,-34.6812,-49.2141,1003.94,-0.684758,-0.353943,-1.62069,
2026_06_10_19_19_13.504,3.845,25.1,0,0.756,3.897,5.154,1.02,0.051, ,0,0,0,0,0, ,-33.5,-48.9,1005,-0.9,-0.4,-1.7,25,-34.6123,-49.1584,1003.96,-0.688734,-0.35675,-1.62552,
2026_06_10_19_19_13.524,3.844,25.2,0,0.756,3.893,5.149,1.04,0.052, ,0,0,0,0,0, ,-35.4,-48,1003.6,-0.5,-0.4,-1.7,25,-34.6024,-49.1153,1003.98,-0.689421,-0.359385,-1.63006,
2026_06_10_19_19_13.543,3.845,25.1,0,0.755,3.889,5.15,1.04,0.052, ,0,0,0,0,0, ,-33.8,-49.3,1003.4,-0.8,-0.4,-1.6,25,-34.6022,-49.0869,1003.95,-0.687018,-0.36186,-1.63127,
2026_06_10_19_19_13.564,3.844,25.3,0,0.756,3.895,5.152,1.06,0.053, ,0,0,0,0,0, ,-34.7,-49.9,1002.6,-0.6,-0.4,-1.7,25,-34.5808,-49.1182,1003.89,-0.68781,-0.364184,-1.63241,
2026_06_10_19_19_13.583,3.846,25.3,0,0.754,3.887,5.155,1.04,0.052, ,0,0,0,0,0, ,-34.9,-49.6,1002.4,-0.7,-0.4,-1.7,25,-34.5941,-49.1567,1003.81,-0.685505,-0.366367,-1.63653,
2026_06_10_19_19_13.603,3.845,25.3,0,0.756,3.899,5.157,1.04,0.052, ,0,0,0,0,0, ,-34,-48.8,1003.5,-0.6,-0.3,-1.6,25,-34.5853,-49.1593,1003.76,-0.683342,-0.365369,-1.63735,
2026_06_10_19_19_13.623,3.845,25.3,0,0.756,3.892,5.148,1.06,0.053, ,0,0,0,0,0, ,-34.1,-49,1003.9,-0.5,-0.3,-1.7,25,-34.5527,-49.1435,1003.75,-0.675216,-0.361386,-1.63812,
2026_06_10_19_19_13.642,3.847,25.4,0,0.757,3.895,5.145,1.06,0.053, ,0,0,0,0,0, ,-35.6,-48.8,1004.7,-0.7,-0.4,-1.6,25,-34.5708,-49.1287,1003.79,-0.670633,-0.360692,-1.63885,
2026_06_10_19_19_13.662,3.846,25.4,0,0.756,3.891,5.146,1.06,0.053, ,0,0,0,0,0, ,-34.7,-48.7,1004,-0.6,-0.4,-1.6,25,-34.6061,-49.1056,1003.82,-0.669376,-0.363087,-1.63648,
2026_06_10_19_19_13.682,3.848,25.5,0,0.756,3.893,5.149,1.06,0.053, ,0,0,0,0,0, ,-34.6,-47.6,1004.2,-0.7,-0.4,-1.6,25,-34.6088,-49.0474,1003.84,-0.668195,-0.365337,-1.63426,
2026_06_10_19_19_13.702,3.846,25.5,0,0.757,3.898,5.149,1.06,0.053, ,0,0,0,0,0, ,-35,-47.6,1003.9,-0.6,-0.3,-1.7,25,-34.6205,-48.9592,1003.85,-0.667086,-0.364402,-1.63522,
2026_06_10_19_19_13.722,3.845,25.5,0,0.756,3.891,5.146,1.06,0.053, ,0,0,0,0,0, ,-34.7,-48.3,1004.8,-0.9,-0.4,-1.6,25,-34.6344,-48.8977,1003.88,-0.672139,-0.363525,-1.63612,
2026_06_10_19_19_13.741,3.848,25.5,0,0.757,3.894,5.143,1.08,0.054, ,0,0,0,0,0, ,-35.8,-49.4,1003.9,-0.5,-0.3,-1.5,25,-34.672,-48.8948,1003.91,-0.673836,-0.3627,-1.63087,
2026_06_10_19_19_13.761,3.845,25.6,0,0.756,3.892,5.148,1.08,0.054, ,0,0,0,0,0, ,-35.6,-49.5,1003.6,-0.7,-0.4,-1.6,25,-34.7346,-48.9286,1003.9,-0.669337,-0.361927,-1.62594,
2026_06_10_19_19_13.781,3.846,25.6,0,0.756,3.891,5.146,1.08,0.054, ,0,0,0,0,0, ,-35,-49,1004.1,-0.6,-0.4,-1.6,25,-34.7691,-48.9482,1003.9,-0.668159,-0.364247,-1.62436,
2026_06_10_19_19_13.801,3.844,25.6,0,0.757,3.895,5.145,1.08,0.054, ,0,0,0,0,0, ,-34.4,-49.3,1004.2,-0.7,-0.4,-1.6,25,-34.7648,-48.9605,1003.91,-0.667052,-0.366425,-1.62288,
2026_06_10_19_19_13.821,3.847,25.6,0,0.756,3.887,5.141,1.09,0.055, ,0,0,0,0,0, ,-34.6,-48.7,1004.3,-0.5,-0.4,-1.6,25,-34.7487,-48.9629,1003.93,-0.662966,-0.368471,-1.62148,
2026_06_10_19_19_13.841,3.845,25.6,0,0.756,3.892,5.148,1.1,0.055, ,0,0,0,0,0, ,-36,-49.8,1004.7,-0.6,-0.4,-1.6,25,-34.7823,-48.9804,1003.97,-0.656082,-0.370393,-1.62017,
2026_06_10_19_19_13.861,3.843,25.7,0,0.757,3.892,5.141,1.12,0.056, ,0,0,0,0,0, ,-35.4,-47.6,1002.9,-0.5,-0.4,-1.6,25,-34.8382,-48.9633,1003.96,-0.649618,-0.372197,-1.61894,
2026_06_10_19_19_13.881,3.845,25.7,0,0.756,3.886,5.14,1.09,0.055, ,0,0,0,0,0, ,-34.7,-46.1,1004.6,-0.7,-0.4,-1.6,25,-34.8511,-48.8345,1003.94,-0.646594,-0.373891,-1.61779,
2026_06_10_19_19_13.904,3.844,25.7,0,0.756,3.889,5.144,1.12,0.056, ,0,0,0,0,0, ,-33.9,-46,1002.5,-0.8,-0.4,-1.6,25,-34.8175,-48.6648,1003.92,-0.652896,-0.375482,-1.61671,
2026_06_10_19_19_13.920,3.844,25.9,0,0.756,3.889,5.144,1.12,0.056, ,0,0,0,0,0, ,-35.5,-49.8,1003,-1,-0.4,-1.7,25,-34.8104,-48.6182,1003.85,-0.667954,-0.376976,-1.61873,
2026_06_10_19_19_13.940,3.846,25.9,0,0.759,3.897,5.134,1.1,0.055, ,0,0,0,0,0, ,-35.6,-52.3,1001.8,-0.7,-0.5,-1.7,25,-34.8555,-48.7664,1003.76,-0.679047,-0.381426,-1.62369,
2026_06_10_19_19_13.960,3.845,26,0,0.758,3.889,5.13,1.09,0.055, ,0,0,0,0,0, ,-33.8,-52,1006.2,-0.9,-0.4,-1.7,25,-34.846,-48.9726,1003.78,-0.686418,-0.385605,-1.62834,
2026_06_10_19_19_13.980,3.844,26,0,0.756,3.885,5.138,1.09,0.055, ,0,0,0,0,0, ,-33.8,-47.3,1003.6,0,-0.4,-1.6,25,-34.7822,-49.0139,1003.84,-0.672011,-0.386482,-1.62966,
2026_06_10_19_19_13.999,3.845,26,0,0.756,3.889,5.144,1.1,0.055, ,0,0,0,0,0, ,-34.4,-52,1003,-0.5,-0.4,-1.6,25,-34.7407,-49.0526,1003.81,-0.646295,-0.387306,-1.62785,
2026_06_10_19_19_14.019,3.844,26.1,0,0.756,3.889,5.144,1.12,0.056, ,0,0,0,0,0, ,-34.5,-50.5,1004,0,-0.4,-1.5,25,-34.723,-49.1865,1003.79,-0.622145,-0.388079,-1.62311,
2026_06_10_19_19_14.038,3.846,26.1,0,0.756,3.889,5.144,1.1,0.055, ,0,0,0,0,0, ,-34.7,-52.3,1004.3,-0.8,-0.3,-1.6,25,-34.7155,-49.3214,1003.81,-0.608608,-0.385759,-1.61865,
2026_06_10_19_19_14.060,3.844,26.2,0,0.758,3.896,5.139,1.12,0.056, ,0,0,0,0,0, ,-34.1,-46.8,1005.1,-0.8,-0.4,-1.6,25,-34.6962,-49.3354,1003.87,-0.620271,-0.38358,-1.61751,
2026_06_10_19_19_14.078,3.845,26.1,0,0.755,3.882,5.141,1.09,0.055, ,0,0,0,0,0, ,-35.4,-49.8,1003.9,-0.9,-0.3,-1.7,25,-34.6995,-49.2723,1003.91,-0.63427,-0.381533,-1.61949,
2026_06_10_19_19_14.098,3.844,26.2,0,0.758,3.896,5.139,1.14,0.057, ,0,0,0,0,0, ,-35.4,-46.3,1005,-0.3,-0.4,-1.6,25,-34.7422,-49.1978,1003.94,-0.632182,-0.379612,-1.62135,
2026_06_10_19_19_14.118,3.846,26.2,0,0.759,3.891,5.126,1.11,0.056, ,0,0,0,0,0, ,-35,-49.4,1002.9,-0.6,-0.4,-1.7,25,-34.7701,-49.1157,1003.94,-0.62108,-0.380854,-1.6231,
2026_06_10_19_19_14.138,3.845,26.3,0,0.758,3.888,5.129,1.13,0.057, ,0,0,0,0,0, ,-34.6,-47.6,1003.4,-0.7,-0.4,-1.7,25,-34.7719,-49.0781,1003.89,-0.622843,-0.382021,-1.62778,
2026_06_10_19_19_14.158,3.847,26.4,0,0.758,3.89,5.131,1.11,0.056, ,0,0,0,0,0, ,-35.1,-54.1,1005.7,-1.1,-0.4,-1.7,25,-34.7767,-49.1861,1003.93,-0.639732,-0.383117,-1.63219,
2026_06_10_19_19_14.177,3.845,26.3,0,0.756,3.887,5.141,1.11,0.056, ,0,0,0,0,0, ,-34.1,-49.5,1004.5,-0.4,-0.3,-1.6,25,-34.7659,-49.3454,1004,-0.646451,-0.381099,-1.63327,
2026_06_10_19_19_14.197,3.844,26.4,0,0.758,3.894,5.137,1.14,0.057, ,0,0,0,0,0, ,-35.2,-50.5,1005.7,-0.9,-0.4,-1.7,25,-34.7588,-49.3853,1004.07,-0.646668,-0.379203,-1.63429,
2026_06_10_19_19_14.219,3.847,26.4,0,0.758,3.889,5.13,1.11,0.056, ,0,0,0,0,0, ,-34,-45.8,1003.6,-0.6,-0.4,-1.7,25,-34.7492,-49.31,1004.11,-0.652964,-0.380471,-1.63829,
2026_06_10_19_19_14.237,3.843,26.5,0,0.759,3.894,5.13,1.13,0.057, ,0,0,0,0,0, ,-33.2,-49.8,1005,-0.9,-0.4,-1.7,25,-34.6791,-49.218,1004.12,-0.658878,-0.381661,-1.64205,
2026_06_10_19_19_14.257,3.845,26.5,0,0.758,3.885,5.125,1.11,0.056, ,0,0,0,0,0, ,-34.1,-47.1,1002.5,-0.5,-0.4,-1.6,25,-34.6164,-49.1712,1004.09,-0.661383,-0.382778,-1.64254,
2026_06_10_19_19_14.277,3.843,26.5,0,0.759,3.891,5.126,1.13,0.057, ,0,0,0,0,0, ,-34.9,-48,1005,-0.9,-0.4,-1.7,25,-34.6093,-49.0724,1004.07,-0.663737,-0.383828,-1.64299,
2026_06_10_19_19_14.297,3.846,26.6,0,0.758,3.885,5.125,1.13,0.057, ,0,0,0,0,0, ,-34.5,-49.3,1004,-0.7,-0.4,-1.7,25,-34.6149,-49.0467,1004.1,-0.67204,-0.384813,-1.64647,
2026_06_10_19_19_14.316,3.845,26.5,0,0.755,3.882,5.141,1.13,0.057, ,0,0,0,0,0, ,-35.1,-50.2,1004.6,-0.7,-0.4,-1.6,25,-34.6261,-49.0895,1004.11,-0.673744,-0.385739,-1.64668,
2026_06_10_19_19_14.336,3.844,26.6,0,0.758,3.896,5.139,1.16,0.058, ,0,0,0,0,0, ,-36.8,-48.3,1005.2,-0.6,-0.4,-1.7,25,-34.7068,-49.0993,1004.16,-0.672297,-0.386608,-1.64688,
2026_06_10_19_19_14.356,3.846,26.6,0,0.758,3.888,5.129,1.13,0.057, ,0,0,0,0,0, ,-35.4,-49.3,1004.5,-0.6,-0.4,-1.7,25,-34.7917,-49.0811,1004.2,-0.667891,-0.387424,-1.65012,
2026_06_10_19_19_14.376,3.845,26.8,0,0.757,3.886,5.133,1.15,0.058, ,0,0,0,0,0, ,-35.7,-48.9,1003.1,-0.5,-0.4,-1.7,25,-34.8379,-49.0822,1004.18,-0.660707,-0.38819,-1.65316,
2026_06_10_19_19_14.396,3.845,26.8,0,0.759,3.895,5.131,1.11,0.056, ,0,0,0,0,0, ,-33.8,-49.4,1003.9,-0.9,-0.4,-1.7,25,-34.8326,-49.0863,1004.14,-0.663102,-0.38891,-1.65602,
2026_06_10_19_19_14.415,3.844,26.8,0,0.758,3.886,5.126,1.13,0.057, ,0,0,0,0,0, ,-35.5,-49.1,1005.3,-0.5,-0.4,-1.7,25,-34.8214,-49.0963,1004.16,-0.66535,-0.389586,-1.6587,
2026_06_10_19_19_14.435,3.846,26.8,0,0.759,3.891,5.126,1.13,0.057, ,0,0,0,0,0, ,-35.1,-48.5,1004.2,-0.7,-0.4,-1.6,25,-34.8506,-49.0783,1004.2,-0.661368,-0.39022,-1.65817,
2026_06_10_19_19_14.455,3.845,26.9,0,0.755,3.88,5.139,1.13,0.057, ,0,0,0,0,0, ,-36,-47.6,1003.6,-0.6,-0.4,-1.7,25,-34.8932,-49.0156,1004.18,-0.660675,-0.390816,-1.65767,
2026_06_10_19_19_14.475,3.844,26.8,0,0.758,3.896,5.139,1.14,0.057, ,0,0,0,0,0, ,-35.2,-47.6,1004.7,-0.9,-0.5,-1.6,25,-34.9363,-48.9293,1004.18,-0.666119,-0.394423,-1.6572,
2026_06_10_19_19_14.495,3.847,26.9,0,0.759,3.89,5.125,1.15,0.058, ,0,0,0,0,0, ,-34.7,-50.2,1002.8,-0.5,-0.3,-1.6,25,-34.9371,-48.9276,1004.15,-0.668183,-0.394763,-1.65372,
2026_06_10_19_19_14.521,3.845,27,0,0.757,3.886,5.133,1.13,0.057, ,0,0,0,0,0, ,-33.8,-49.5,1003.2,-0.9,-0.4,-1.6,25,-34.8953,-48.9838,1004.08,-0.670122,-0.392035,-1.65044,
2026_06_10_19_19_14.534,3.845,27,0,0.759,3.894,5.13,1.13,0.057, ,0,0,0,0,0, ,-34.4,-50.1,1003.4,-0.5,-0.4,-1.7,25,-34.8468,-49.0335,1004.04,-0.671943,-0.39252,-1.65041,
2026_06_10_19_19_14.554,3.844,27.2,0,0.759,3.889,5.123,1.13,0.057, ,0,0,0,0,0, ,-34,-50.5,1004.6,-0.8,-0.4,-1.7,25,-34.8074,-49.1107,1004.03,-0.670606,-0.392976,-1.65344,
2026_06_10_19_19_14.574,3.846,27,0,0.758,3.886,5.126,1.11,0.056, ,0,0,0,0,0, ,-36.2,-48.4,1003.4,-0.6,-0.5,-1.6,25,-34.8252,-49.1314,1004.03,-0.672397,-0.396451,-1.65323,
2026_06_10_19_19_14.593,3.845,27.2,0,0.757,3.886,5.133,1.15,0.058, ,0,0,0,0,0, ,-36.9,-49.3,1003.6,-0.7,-0.4,-1.7,25,-34.9303,-49.1142,1004,-0.671032,-0.399714,-1.65303,
2026_06_10_19_19_14.613,3.844,27,0,0.759,3.895,5.131,1.11,0.056, ,0,0,0,0,0, ,-33.9,-48,1003.9,-0.6,-0.4,-1.7,25,-34.9589,-49.0859,1003.98,-0.66975,-0.399732,-1.65589,
2026_06_10_19_19_14.633,3.847,27.1,0,0.758,3.885,5.125,1.15,0.058, ,0,0,0,0,0, ,-34.5,-50,1002.4,-0.8,-0.4,-1.7,25,-34.9127,-49.0807,1003.93,-0.671594,-0.399748,-1.65858,
2026_06_10_19_19_14.653,3.845,27.1,0,0.758,3.89,5.131,1.15,0.058, ,0,0,0,0,0, ,-34.1,-47.8,1003.7,-0.6,-0.4,-1.7,25,-34.8754,-49.0697,1003.88,-0.673325,-0.399763,-1.6611,
2026_06_10_19_19_14.673,3.847,27.2,0,0.759,3.891,5.126,1.15,0.058, ,0,0,0,0,0, ,-33.8,-48.5,1003.6,-0.8,-0.4,-1.6,25,-34.819,-49.0136,1003.87,-0.67495,-0.399778,-1.66043,
2026_06_10_19_19_14.692,3.845,27.2,0,0.757,3.885,5.132,1.15,0.058, ,0,0,0,0,0, ,-35.4,-49.3,1005,-0.7,-0.4,-1.7,25,-34.8056,-49.0067,1003.89,-0.679524,-0.399791,-1.65979,
2026_06_10_19_19_14.712,3.845,27.5,0,0.757,3.888,5.136,1.15,0.058, ,0,0,0,0,0, ,-33.6,-50.4,1002.8,-0.7,-0.4,-1.7,25,-34.787,-49.0581,1003.89,-0.680771,-0.399804,-1.66224,
2026_06_10_19_19_14.732,3.843,27.3,0,0.758,3.892,5.134,1.11,0.056, ,0,0,0,0,0, ,-34.5,-48.9,1004.2,-0.6,-0.4,-1.6,25,-34.7421,-49.0942,1003.87,-0.678896,-0.399816,-1.6615,
2026_06_10_19_19_14.752,3.846,27.3,0,0.76,3.891,5.119,1.15,0.058, ,0,0,0,0,0, ,-34.4,-48.7,1004.2,-0.6,-0.4,-1.7,25,-34.7243,-49.0762,1003.89,-0.674088,-0.399827,-1.6608,
2026_06_10_19_19_14.772,3.845,27.3,0,0.758,3.884,5.124,1.15,0.058, ,0,0,0,0,0, ,-34.6,-49.6,1003.6,-0.6,-0.3,-1.7,25,-34.7106,-49.0807,1003.89,-0.669574,-0.396791,-1.66318,
2026_06_10_19_19_14.791,3.845,27.3,0,0.758,3.888,5.129,1.15,0.058, ,0,0,0,0,0, ,-34.4,-48.8,1003.6,-0.8,-0.3,-1.7,25,-34.6978,-49.088,1003.87,-0.671428,-0.390893,-1.66543,
2026_06_10_19_19_14.811,3.847,27.5,0,0.758,3.888,5.129,1.15,0.058, ,0,0,0,0,0, ,-34.4,-47.8,1003.4,-0.8,-0.4,-1.6,25,-34.6796,-49.04,1003.85,-0.679263,-0.388401,-1.66449,
2026_06_10_19_19_14.837,3.845,27.6,0,0.758,3.891,5.133,1.13,0.057, ,0,0,0,0,0, ,-35.4,-47.7,1005.3,-0.7,-0.3,-1.6,25,-34.6931,-48.9614,1003.88,-0.683573,-0.386061,-1.66056,
2026_06_10_19_19_14.851,3.846,27.6,0,0.76,3.895,5.125,1.11,0.056, ,0,0,0,0,0, ,-35,-49.5,1003.7,-0.7,-0.4,-1.5,25,-34.724,-48.9394,1003.92,-0.684574,-0.383863,-1.65382,
2026_06_10_19_19_14.871,3.845,27.7,0,0.759,3.887,5.121,1.13,0.057, ,0,0,0,0,0, ,-33.8,-49,1004.3,-0.8,-0.4,-1.6,25,-34.7042,-48.9583,1003.92,-0.688561,-0.384847,-1.64749,
2026_06_10_19_19_14.891,3.847,27.8,0,0.759,3.89,5.125,1.11,0.056, ,0,0,0,0,0, ,-35.2,-50,1004.7,-0.6,-0.4,-1.6,25,-34.6918,-48.9913,1003.96,-0.689258,-0.38577,-1.6446,
2026_06_10_19_19_14.910,3.846,27.7,0,0.759,3.892,5.127,1.11,0.056, ,0,0,0,0,0, ,-35.2,-48,1004.6,-0.6,-0.3,-1.7,25,-34.7227,-48.9918,1004,-0.683819,-0.38359,-1.64493,
2026_06_10_19_19_14.930,3.845,27.8,0,0.759,3.89,5.125,1.13,0.057, ,0,0,0,0,0, ,-33.9,-48.4,1004.7,-0.6,-0.3,-1.7,25,-34.7122,-48.9436,1004.04,-0.678711,-0.378496,-1.64829,
2026_06_10_19_19_14.950,3.846,27.8,0,0.758,3.887,5.127,1.11,0.056, ,0,0,0,0,0, ,-34.9,-49.3,1004,-0.6,-0.3,-1.6,25,-34.6932,-48.9379,1004.06,-0.673915,-0.373713,-1.64839,
2026_06_10_19_19_14.971,3.844,27.8,0,0.759,3.893,5.129,1.11,0.056, ,0,0,0,0,0, ,-36,-48,1004.6,-0.6,-0.4,-1.6,25,-34.7393,-48.9203,1004.07,-0.669411,-0.372268,-1.64544,
2026_06_10_19_19_14.993,3.846,27.9,0,0.759,3.889,5.123,1.11,0.056, ,0,0,0,0,0, ,-34.5,-48.3,1003.1,-0.6,-0.4,-1.6,25,-34.7704,-48.8734,1004.06,-0.665181,-0.373958,-1.64267,
2026_06_10_19_19_15.010,3.844,28,0,0.76,3.893,5.122,1.11,0.056, ,0,0,0,0,0, ,-35,-50,1006.2,-0.8,-0.4,-1.6,25,-34.7692,-48.8902,1004.1,-0.667303,-0.375545,-1.64007,
2026_06_10_19_19_15.030,3.846,27.9,0,0.759,3.887,5.121,1.09,0.055, ,0,0,0,0,0, ,-35.5,-49.1,1005.1,-0.7,-0.4,-1.6,25,-34.7985,-48.9304,1004.19,-0.672342,-0.377035,-1.63763,
2026_06_10_19_19_15.049,3.844,28,0,0.759,3.891,5.126,1.11,0.056, ,0,0,0,0,0, ,-35.5,-48.8,1004.7,-0.8,-0.4,-1.7,25,-34.8412,-48.9316,1004.23,-0.677074,-0.378435,-1.63838,
2026_06_10_19_19_15.069,3.847,28,0,0.76,3.891,5.119,1.11,0.056, ,0,0,0,0,0, ,-36.3,-49.1,1004.6,-0.6,-0.3,-1.7,25,-34.9058,-48.9328,1004.26,-0.678471,-0.376702,-1.64214,
2026_06_10_19_19_15.089,3.845,28.2,0,0.759,3.889,5.123,1.11,0.056, ,0,0,0,0,0, ,-35.2,-50.2,1004.5,-0.8,-0.3,-1.7,25,-34.9572,-48.9765,1004.28,-0.679783,-0.372028,-1.64566,
2026_06_10_19_19_15.109,3.845,28.1,0,0.759,3.891,5.126,1.07,0.054, ,0,0,0,0,0, ,-35.5,-50.6,1004,-0.4,-0.3,-1.7,25,-34.9811,-49.0632,1004.27,-0.674922,-0.367639,-1.64898,
2026_06_10_19_19_15.129,3.847,28.1,0,0.758,3.888,5.129,1.09,0.055, ,0,0,0,0,0, ,-33.4,-49.3,1004.6,-0.8,-0.4,-1.7,25,-34.9488,-49.1172,1004.28,-0.670356,-0.366564,-1.65208,
2026_06_10_19_19_15.154,3.845,28.2,0,0.759,3.894,5.13,1.11,0.056, ,0,0,0,0,0, ,-34.1,-49.1,1003.7,-0.4,-0.4,-1.6,25,-34.8757,-49.1223,1004.27,-0.666069,-0.368601,-1.65196,
2026_06_10_19_19_15.168,3.846,28.2,0,0.759,3.89,5.125,1.09,0.055, ,0,0,0,0,0, ,-34.4,-47.9,1004.1,-1.2,-0.4,-1.6,25,-34.8376,-49.0844,1004.25,-0.67423,-0.370515,-1.64879,
2026_06_10_19_19_15.188,3.845,28.2,0,0.758,3.889,5.13,1.09,0.055, ,0,0,0,0,0, ,-34.5,-49,1003.5,-0.3,-0.4,-1.7,25,-34.814,-49.0457,1004.22,-0.678847,-0.372311,-1.64887,
2026_06_10_19_19_15.208,3.846,28.3,0,0.76,3.896,5.126,1.09,0.055, ,0,0,0,0,0, ,-35.6,-48.2,1005.4,-1.1,-0.4,-1.6,25,-34.8284,-49.0186,1004.23,-0.680136,-0.373999,-1.64893,
2026_06_10_19_19_15.227,3.845,28.3,0,0.758,3.886,5.126,1.09,0.055, ,0,0,0,0,0, ,-34.5,-48.3,1004,-0.3,-0.4,-1.6,25,-34.8419,-48.9717,1004.26,-0.681347,-0.375583,-1.64595,
2026_06_10_19_19_15.247,3.844,28.4,0,0.759,3.893,5.129,1.09,0.055, ,0,0,0,0,0, ,-34.6,-48.9,1003.5,-1,-0.4,-1.7,25,-34.8241,-48.9491,1004.23,-0.679437,-0.377071,-1.6462,
2026_06_10_19_19_15.267,3.847,28.4,0,0.759,3.89,5.125,1.07,0.054, ,0,0,0,0,0, ,-33.6,-49.6,1003,-0.5,-0.4,-1.7,25,-34.78,-48.9674,1004.17,-0.683737,-0.378468,-1.64948,
2026_06_10_19_19_15.287,3.846,28.5,0,0.759,3.893,5.129,1.07,0.054, ,0,0,0,0,0, ,-33.4,-48.8,1005.8,-0.9,-0.3,-1.7,25,-34.702,-48.9816,1004.18,-0.684728,-0.376733,-1.65256,
2026_06_10_19_19_15.310,3.845,28.5,0,0.759,3.893,5.129,1.07,0.054, ,0,0,0,0,0, ,-34.1,-49.5,1003.7,-0.4,-0.4,-1.6,25,-34.6439,-48.9918,1004.22,-0.682611,-0.375104,-1.6524,
2026_06_10_19_19_15.327,3.845,28.6,0,0.759,3.891,5.126,1.07,0.054, ,0,0,0,0,0, ,-34.1,-49.4,1004.5,-0.9,-0.4,-1.6,25,-34.6108,-49.0198,1004.21,-0.680624,-0.376621,-1.64921,
2026_06_10_19_19_15.347,3.847,28.6,0,0.759,3.892,5.127,1.05,0.053, ,0,0,0,0,0, ,-36.4,-49.5,1005.1,-0.4,-0.4,-1.6,25,-34.6497,-49.046,1004.25,-0.678758,-0.378046,-1.64621,
2026_06_10_19_19_15.367,3.845,28.6,0,0.758,3.892,5.134,1.05,0.053, ,0,0,0,0,0, ,-33.5,-48,1004.2,-0.9,-0.4,-1.6,25,-34.668,-49.0279,1004.27,-0.677006,-0.379384,-1.64339,
2026_06_10_19_19_15.386,3.845,28.6,0,0.759,3.894,5.13,1.07,0.054, ,0,0,0,0,0, ,-34.5,-47.4,1002,-0.4,-0.4,-1.6,25,-34.6273,-48.947,1004.2,-0.67536,-0.38064,-1.64075,
2026_06_10_19_19_15.406,3.847,28.6,0,0.758,3.889,5.13,1.07,0.054, ,0,0,0,0,0, ,-35.4,-49.1,1002.5,-1,-0.4,-1.6,25,-34.647,-48.9045,1004.08,-0.676861,-0.38182,-1.63827,
2026_06_10_19_19_15.426,3.846,28.8,0,0.758,3.893,5.135,1.07,0.054, ,0,0,0,0,0, ,-35.2,-50.2,1005.2,-0.3,-0.4,-1.6,25,-34.6868,-48.95,1004.07,-0.675225,-0.382928,-1.63593,
2026_06_10_19_19_15.446,3.844,28.8,0,0.76,3.899,5.13,1.04,0.052, ,0,0,0,0,0, ,-35.6,-48.8,1003.2,-1,-0.4,-1.6,25,-34.7303,-48.9835,1004.08,-0.673687,-0.383968,-1.63374,
2026_06_10_19_19_15.465,3.847,28.8,0,0.759,3.89,5.125,1.03,0.052, ,0,0,0,0,0, ,-35.5,-49.9,1003.4,-0.4,-0.3,-1.6,25,-34.7802,-49.0058,1004.03,-0.675291,-0.381898,-1.63169,
2026_06_10_19_19_15.485,3.844,28.8,0,0.759,3.894,5.13,1.05,0.053, ,0,0,0,0,0, ,-33.4,-53.5,1003,0.3,-0.4,-1.6,25,-34.7601,-49.17,1003.98,-0.637187,-0.379954,-1.62976,
2026_06_10_19_19_15.505,3.845,28.9,0,0.76,3.894,5.123,1.05,0.053, ,0,0,0,0,0, ,-34.9,-52.1,1004.6,3.9,-0.3,-1.3,25,-34.7229,-49.3912,1003.97,-0.47039,-0.378129,-1.6188,
2026_06_10_19_19_15.525,3.844,28.8,0,0.76,3.893,5.122,1.03,0.052, ,0,0,0,0,0, ,-32.2,-16.2,1006.7,-2.8,-0.6,1,25,-34.6514,-48.4624,1004.07,-0.40821,-0.382509,-1.5293,
2026_06_10_19_19_15.544,3.847,28.9,0,0.76,3.891,5.119,1.05,0.053, ,0,0,0,0,0, ,2.4,72.8,1009.7,2.1,0,-8.6,25,-33.4478,-43.7847,1004.32,-0.404663,-0.377481,-1.66767,
2026_06_10_19_19_15.565,3.846,29.1,0,0.759,3.893,5.129,1.03,0.052, ,0,0,0,0,0, ,-67.2,-59.3,1004.2,-5.4,0,-14.4,25,-33.384,-40.7053,1004.48,-0.48055,-0.354478,-2.26683,
2026_06_10_19_19_15.584,3.845,28.9,0,0.76,3.898,5.128,1.01,0.051, ,0,0,0,0,0, ,-39.6,-70.5,1002,0.1,0.2,-9.6,25,-34.6037,-42.1796,1004.4,-0.612751,-0.326783,-2.85994,
2026_06_10_19_19_15.604,3.847,29.1,0,0.759,3.891,5.126,1.03,0.052, ,0,0,0,0,0, ,-29.9,-64.2,1004.6,2.9,-0.5,-1.5,25,-34.6126,-43.7135,1004.33,-0.484005,-0.316011,-3.02387,
2026_06_10_19_19_15.624,3.845,29.2,0,0.759,3.896,5.133,1.01,0.051, ,0,0,0,0,0, ,-40,-49,1003.5,-2.7,-0.5,-1.6,25,-34.6332,-44.4987,1004.31,-0.448418,-0.327222,-2.93405,
2026_06_10_19_19_15.644,3.846,29.1,0,0.759,3.895,5.131,0.99,0.05, ,0,0,0,0,0, ,-35,-51.8,1003.9,1.8,-0.3,-2.4,25,-34.8079,-44.8583,1004.28,-0.448514,-0.331657,-2.87713,
2026_06_10_19_19_15.664,3.844,29.3,0,0.76,3.898,5.128,1.01,0.051, ,0,0,0,0,0, ,-34.1,-46.5,1004.5,1.9,-0.3,-1.7,25,-34.7922,-45.1199,1004.27,-0.308448,-0.329728,-2.82673,
2026_06_10_19_19_15.683,3.846,29.2,0,0.76,3.894,5.123,0.99,0.05, ,0,0,0,0,0, ,-36.3,-41.2,1004.8,2.6,-0.2,-2.4,25,-34.817,-45.0425,1004.29,-0.152543,-0.32487,-2.7794,
2026_06_10_19_19_15.704,3.844,29.2,0,0.76,3.896,5.126,0.99,0.05, ,0,0,0,0,0, ,-37.1,-38.2,1005.7,-1.4,-0.3,-4.6,25,-34.9318,-44.7169,1004.35,-0.106685,-0.320307,-2.82331,
2026_06_10_19_19_15.723,3.846,29.4,0,0.759,3.891,5.126,1.01,0.051, ,0,0,0,0,0, ,-33.3,-21.4,1007.8,-9.9,-0.4,-5.5,25,-34.9481,-43.8079,1004.5,-0.444481,-0.322117,-2.959,
2026_06_10_19_19_15.743,3.846,29.3,0,0.758,0,0,0,0.049, ,0,0,0,0,0, ,-34.1,-47.2,1002.9,-10.1,-0.4,-1.3,25,-34.872,-43.2285,1004.55,-1.02677,-0.326863,-2.98587,
2026_06_10_19_19_15.762,3.845,29.3,0,0.76,3.9,5.131,1,0.05, ,0,0,0,0,0, ,-28,-42.8,1005.1,-2.7,-0.3,3,25,-34.6391,-43.3365,1004.52,-1.3542,-0.328273,-2.75212,
2026_06_10_19_19_15.788,3.847,29.4,0,0.761,3.898,5.122,0.99,0.05, ,0,0,0,0,0, ,-28.6,-53.4,997.8,0.5,-0.2,-2.4,25,-34.2528,-43.6268,1004.33,-1.33871,-0.323503,-2.56614,
2026_06_10_19_19_15.803,3.847,29.5,0,0.759,0,0,0,0.049, ,0,0,0,0,0, ,-38.4,-34.7,1006.5,-7.8,-0.3,-2.2,25,-34.207,-43.6526,1004.2,-1.47955,-0.319024,-2.54992,
2026_06_10_19_19_15.822,3.847,29.6,0,0.76,0,0,0,0.048, ,0,0,0,0,0, ,-39.1,-33.3,1003.5,-3.6,-0.5,-3.3,25,-34.4838,-43.0643,1004.25,-1.73674,-0.323958,-2.56211,
2026_06_10_19_19_15.842,3.847,29.5,0,0.76,0,0,0,0.048, ,0,0,0,0,0, ,-67.5,8.1,1009.1,0.5,-1.5,-13.4,25,-35.6304,-41.2079,1004.37,-1.72536,-0.365155,-2.91481,
2026_06_10_19_19_15.862,3.847,29.6,0,0.759,0,0,0,0.049, ,0,0,0,0,0, ,-41,-155.8,986,-4.4,-1.4,-14.6,25,-36.7651,-43.1971,1003.96,-1.73905,-0.431262,-3.59031,
2026_06_10_19_19_15.881,3.847,29.6,0,0.76,0,0,0,0.048, ,0,0,0,0,0, ,-21.3,-40.8,1022.4,-7.8,-2.9,-7.3,25,-36.4229,-46.5549,1003.97,-2.00479,-0.535998,-4.03879,
2026_06_10_19_19_15.901,3.847,29.7,0,0.76,0,0,0,0.048, ,0,0,0,0,0, ,-55,-33.8,1000.9,-8.4,-2.9,-19.3,25,-36.5281,-45.9909,1004.44,-2.37622,-0.680054,-4.60315,
2026_06_10_19_19_15.921,3.847,29.6,0,0.759,0,0,0,0.047, ,0,0,0,0,0, ,-49,-8,1024.6,-13.7,-3.3,-25.1,25,-37.471,-44.4619,1004.95,-2.90478,-0.82752,-5.67546,
2026_06_10_19_19_15.943,3.847,29.7,0,0.759,0,0,0,0.048, ,0,0,0,0,0, ,-40.4,-50.5,986.2,-14.6,-2.8,-36.4,25,-37.9115,-43.535,1004.97,-3.59003,-0.962952,-7.20344,
2026_06_10_19_19_15.961,3.847,29.8,0,0.759,0,0,0,0.047, ,0,0,0,0,0, ,15,-134.8,1064.3,1.3,-6.1,-48.9,25,-36.3751,-46.5279,1006.21,-3.7765,-1.17544,-9.36346,
2026_06_10_19_19_15.981,3.847,29.8,0,0.76,0,0,0,0.046, ,0,0,0,0,0, ,-5.1,-128.4,1061.4,-3.3,-17.7,-42.9,25,-33.8569,-51.712,1009.66,-3.60731,-1.82897,-11.5899,
2026_06_10_19_19_16.001,3.847,29.8,0,0.76,0,0,0,0.046, ,0,0,0,0,0, ,17.5,-66.7,1072.1,-8.3,-29.9,-25.2,25,-31.4159,-54.5052,1013.14,-3.74092,-3.16783,-12.9586,
2026_06_10_19_19_16.020,3.847,29.9,0,0.76,0,0,0,0.046, ,0,0,0,0,0, ,-25.3,-32.1,992.7,1.8,-35.1,-16.6,25,-29.7392,-54.1941,1014.31,-3.71101,-4.95526,-13.4425,
2026_06_10_19_19_16.040,3.847,29.7,0,0.759,0,0,0,0.046, ,0,0,0,0,0, ,-21.9,-54.1,969.2,-6.6,-29.1,-13.6,25,-29.3651,-53.5181,1012.28,-3.63112,-6.60939,-13.5435,
2026_06_10_19_19_16.060,3.847,29.9,0,0.759,0,0,0,0.047, ,0,0,0,0,0, ,15.7,-93.5,1021.9,-16,-27.5,-23.7,25,-27.7645,-54.754,1011.26,-4.09844,-7.93116,-13.8547,
2026_06_10_19_19_16.079,3.847,29.9,0,0.761,0,0,0,0.046, ,0,0,0,0,0, ,54.4,-100.4,1055,-26.9,-35.9,-21.2,25,-23.9368,-57.3253,1012.92,-5.1558,-9.37958,-14.3785,
2026_06_10_19_19_16.099,3.847,29.9,0,0.76,0,0,0,0.046, ,0,0,0,0,0, ,26.9,-82.1,1022.2,-11.9,-42.5,-9.4,25,-20.001,-59.3926,1014.48,-6.02381,-11.1968,-14.4346,
2026_06_10_19_19_16.119,3.847,30,0,0.759,0,0,0,0.046, ,0,0,0,0,0, ,14.2,-85.3,1027.7,-16.5,-46.3,-10.4,25,-17.5299,-60.8739,1015.12,-6.52204,-13.2201,-14.1583,
2026_06_10_19_19_16.139,3.847,30,0,0.759,0,0,0,0.045, ,0,0,0,0,0, ,121.3,-28.4,991.5,-1.4,-45.1,-22.9,25,-12.3332,-60.6287,1014.78,-6.67,-15.1993,-14.3101,
2026_06_10_19_19_16.159,3.847,30,0,0.76,0,0,0,0, ,0,0,0,0,0, ,106.4,-39.5,1001.3,-14.3,-38.6,-36,25,-4.64391,-59.0029,1013.66,-6.7419,-16.8234,-15.2327,
2026_06_10_19_19_16.178,3.847,30.1,0,0.76,0,0,0,0, ,0,0,0,0,0, ,77.2,-131.4,959.5,-10.8,-23.5,-43.5,25,1.23314,-60.6145,1011.64,-7.09584,-17.6903,-16.7267,
2026_06_10_19_19_16.198,3.847,30,0,0.76,0,0,0,0, ,0,0,0,0,0, ,87.2,-152.7,1003.5,-25.2,-6.9,-18.7,25,6.16705,-65.577,1009.8,-7.76031,-17.5385,-17.6026,
2026_06_10_19_19_16.219,3.847,30.2,0,0.76,0,0,0,0, ,0,0,0,0,0, ,100.5,-149.1,1042.2,-32.6,13.5,-4.1,25,11.5102,-70.7764,1010.6,-9.04851,-16.2687,-17.2246,
2026_06_10_19_19_16.238,3.847,30,0,0.76,0,0,0,0, ,0,0,0,0,0, ,139.8,-149,1032.9,-28.5,27.9,-7.7,25,18.1305,-75.5462,1012.24,-10.3588,-14.0159,-16.5345,
2026_06_10_19_19_16.259,3.847,30.1,0,0.76,0,0,0,0, ,0,0,0,0,0, ,125.3,-153.6,983.3,-31,13.8,-10.3,25,25.1029,-80.1624,1011.99,-11.5404,-11.8913,-16.0754,
2026_06_10_19_19_16.278,3.847,30.1,0,0.76,0,0,0,0, ,0,0,0,0,0, ,95.2,-150.5,951.9,-24.7,-11,-15.9,25,30.2916,-84.5431,1009.28,-12.5343,-11.0813,-15.8941,
2026_06_10_19_19_16.297,3.847,30.2,0,0.76,0,0,0,0, ,0,0,0,0,0, ,76.2,-164.4,948.1,-24.5,-27.6,-18,25,33.668,-88.9858,1005.67,-13.2695,-11.5822,-15.9584,
2026_06_10_19_19_16.317,3.847,30.1,0,0.76,0,0,0,0, ,0,0,0,0,0, ,82.2,-134.2,1022.2,-29.8,-24.3,-11.9,25,36.4426,-92.6612,1004.42,-14.1154,-12.4577,-15.897,
2026_06_10_19_19_16.337,3.847,30.2,0,0.759,0,0,0,0, ,0,0,0,0,0, ,130,-160.4,1002.3,-30.2,-0.1,-21.4,25,40.6874,-95.9908,1004.9,-15.0833,-12.442,-15.9429,
2026_06_10_19_19_16.358,3.847,30.1,0,0.761,0,0,0,0, ,0,0,0,0,0, ,158.2,-214.5,1001.9,-25.7,9.8,-18.6,25,46.9891,-101.564,1004.72,-15.8674,-11.3883,-16.1901,
2026_06_10_19_19_16.377,3.847,30.2,0,0.759,0,0,0,0, ,0,0,0,0,0, ,177.9,-160.2,1041.5,-17.9,1.9,-9,25,54.3662,-106.792,1005.76,-16.2289,-10.3378,-16.0445,
2026_06_10_19_19_16.397,3.847,30.2,0,0.758,0,0,0,0, ,0,0,0,0,0, ,163.4,-149,1004.2,9.6,20.3,-29.1,25,61.4523,-109.705,1006.8,-15.4929,-9.03144,-16.2276,
2026_06_10_19_19_16.418,3.847,30.2,0,0.76,0,0,0,0, ,0,0,0,0,0, ,80.6,-192.8,965.2,13.9,27.4,-38,25,65.1419,-113.434,1005.45,-13.8327,-7.02773,-17.2832,
2026_06_10_19_19_16.436,3.847,30.2,0,0.758,0,0,0,0, ,0,0,0,0,0, ,44.1,-122.6,917.4,11.3,16.4,-26.4,25,64.9718,-116.132,1001.54,-12.222,-5.26494,-18.1922,
2026_06_10_19_19_16.456,3.847,30.3,0,0.759,0,0,0,0, ,0,0,0,0,0, ,52.4,-177.9,936.4,-22.7,15.3,-30.3,25,63.9528,-118.211,996.996,-11.8246,-3.97825,-18.8112,
2026_06_10_19_19_16.476,3.847,30.2,0,0.76,0,0,0,0, ,0,0,0,0,0, ,110.5,-242.6,987.9,-21.2,10.4,-23,25,65.019,-123.819,994.873,-12.4416,-2.95278,-19.2889,
2026_06_10_19_19_16.496,3.847,30.2,0,0.76,0,0,0,0, ,0,0,0,0,0, ,34.7,-244.5,1020.2,-22.6,5.7,-23,25,65.481,-131.115,995.432,-13.018,-2.2823,-19.515,
2026_06_10_19_19_16.515,3.847,30.2,0,0.759,0,0,0,0, ,0,0,0,0,0, ,194.5,-158.5,974.6,-14.5,10.3,-9.4,25,68.4742,-135.404,995.552,-13.3551,-1.65572,-19.313,
2026_06_10_19_19_16.536,3.847,30.3,0,0.76,0,0,0,0, ,0,0,0,0,0, ,70.3,-210.9,969.4,-1.8,2.8,6.9,25,72.3696,-138.408,994.117,-13.0379,-1.15569,-18.2123,
2026_06_10_19_19_16.555,3.847,30.2,0,0.759,0,0,0,0, ,0,0,0,0,0, ,19.1,-225.4,976.5,9.9,-7.3,9.4,25,70.6835,-143.268,992.827,-11.9966,-1.22237,-16.6058,
2026_06_10_19_19_16.579,3.847,30.3,0,0.759,0,0,0,0, ,0,0,0,0,0, ,75.9,-215.2,1039.5,2.3,-31.1,13.4,25,69.2708,-147.962,993.751,-10.8938,-2.31788,-14.8992,
2026_06_10_19_19_16.595,3.847,30.3,0,0.76,0,0,0,0, ,0,0,0,0,0, ,86,-173.7,992.4,-29.9,-35,-5.1,25,69.9825,-150.795,995.104,-11.0709,-4.19062,-13.7384,
2026_06_10_19_19_16.614,3.847,30.2,0,0.758,0,0,0,0, ,0,0,0,0,0, ,185,-106.3,892.8,-28,-24.5,-0.2,25,73.975,-150.137,991.905,-12.1604,-5.74814,-13.0627,
2026_06_10_19_19_16.634,3.847,30.3,0,0.759,0,0,0,0, ,0,0,0,0,0, ,99.1,-137.9,892.5,-22,-38.7,-3.7,25,78.1233,-148.428,985.856,-12.9428,-7.32349,-12.3855,
2026_06_10_19_19_16.655,3.847,30.3,0,0.76,0,0,0,0, ,0,0,0,0,0, ,83.1,-224.3,895.3,0.5,-85.8,-31.7,25,78.9141,-150.419,980.253,-12.8092,-10.6706,-12.7094,
2026_06_10_19_19_16.674,3.847,30.3,0,0.759,0,0,0,0, ,0,0,0,0,0, ,37.2,-290.1,908,16,-156.4,-42.3,25,77.7706,-156.926,975.463,-11.5259,-17.3999,-14.1896,
2026_06_10_19_19_16.693,3.847,30.3,0,0.759,0,0,0,0, ,0,0,0,0,0, ,248.5,-156.3,846.9,47.8,-238.7,-41,25,81.7364,-160.965,969.49,-8.87965,-28.3778,-15.863,
2026_06_10_19_19_16.713,3.847,30.3,0,0.76,0,0,0,0, ,0,0,0,0,0, ,473.9,-132.6,859.9,99.4,-250.1,-2,25,98.7662,-159.958,962.416,-3.85355,-41.5416,-16.2065,
2026_06_10_19_19_16.735,3.847,30.2,0,0.76,0,0,0,0, ,0,0,0,0,0, ,465,-159.9,889.2,119,-250.1,22.2,25,121.355,-159.123,957.062,3.03565,-54.2506,-14.6034,
2026_06_10_19_19_16.753,3.847,30.3,0,0.759,0,0,0,0, ,0,0,0,0,0, ,938.8,-239.7,1592.5,101.9,-250.1,47.2,25,156.732,-161.602,974.355,9.58121,-66.1852,-11.599,
2026_06_10_19_19_16.773,3.847,30.3,0,0.759,0,0,0,0, ,0,0,0,0,0, ,458,-175.7,792.6,19.5,-65.8,68.1,25,189.74,-164.411,987.651,12.6963,-71.7771,-7.37913,
2026_06_10_19_19_16.793,3.847,30.3,0,0.758,0,0,0,0, ,0,0,0,0,0, ,680.2,7.4,709.9,-20,-9,84.5,25,212.857,-159.52,973.246,11.9073,-69.6823,-2.27993,
2026_06_10_19_19_16.812,3.847,30.3,0,0.758,0,0,0,0, ,0,0,0,0,0, ,639.4,-165.8,851.3,-36.1,44.5,70.3,25,240.092,-154.626,961.506,9.47245,-64.3544,2.57556,
2026_06_10_19_19_16.832,3.847,30.3,0,0.759,0,0,0,0, ,0,0,0,0,0, ,543.9,-135.9,742.3,6.5,4.2,12.5,25,261.516,-154.395,951.469,7.99335,-58.9489,4.94143,
2026_06_10_19_19_16.852,3.847,30.3,0,0.76,0,0,0,0, ,0,0,0,0,0, ,483.5,-215.6,801.1,6.5,-24.1,-6.9,25,276.883,-155.697,940.515,7.90235,-55.9631,4.81093,
2026_06_10_19_19_16.872,3.847,30.4,0,0.76,0,0,0,0, ,0,0,0,0,0, ,553.2,-178.2,841.7,-13,-19.1,13.2,25,291.597,-158.208,933.256,7.22275,-53.8691,4.70972,
2026_06_10_19_19_16.892,3.847,30.4,0,0.759,0,0,0,0, ,0,0,0,0,0, ,604.8,-52.3,815.6,-16.2,7.5,10.7,25,309.111,-155.59,926.882,5.89293,-50.9399,5.15093,
2026_06_10_19_19_16.912,3.847,30.4,0,0.758,0,0,0,0, ,0,0,0,0,0, ,611.2,-165.6,778.3,-13.9,13.1,-0.3,25,327.325,-152.748,918.964,4.61672,-47.2081,5.15392,
2026_06_10_19_19_16.932,3.847,30.4,0,0.759,0,0,0,0, ,0,0,0,0,0, ,557.6,-185.3,796.3,-10.5,-6.9,-9.9,25,342.99,-154.131,910.941,3.59195,-44.1424,4.52907,
2026_06_10_19_19_16.952,3.847,30.3,0,0.76,0,0,0,0, ,0,0,0,0,0, ,556.7,-222.2,806.2,-14.6,-19.5,-14.3,25,356.04,-157.155,904.256,2.6083,-42.2569,3.51573,
2026_06_10_19_19_16.971,3.847,30.3,0,0.76,0,0,0,0, ,0,0,0,0,0, ,548,-202.8,756.3,0.2,-17.4,-9.5,25,368.003,-160.527,896.761,2.01061,-40.8061,2.57634,
2026_06_10_19_19_16.991,3.847,30.3,0,0.759,0,0,0,0, ,0,0,0,0,0, ,599.6,-119.5,793.3,-3.8,-6.6,-2.2,25,380.544,-160.565,889.329,1.7784,-39.0508,2.06286,
2026_06_10_19_19_17.011,3.847,30.4,0,0.759,0,0,0,0, ,0,0,0,0,0, ,577.7,-146.9,880.7,0.5,3.4,-5.8,25,393.225,-158.898,886.14,1.56948,-36.7686,1.6934,
2026_06_10_19_19_17.031,3.847,30.4,0,0.759,0,0,0,0, ,0,0,0,0,0, ,584.5,-181.3,782.4,14.7,9.3,-18.8,25,404.674,-159.215,882.813,1.93696,-34.1411,0.84068,
2026_06_10_19_19_17.052,3.847,30.4,0,0.759,0,0,0,0, ,0,0,0,0,0, ,565.9,-223.2,782.1,-3.8,-8.7,-22.6,25,415.065,-161.837,876.685,2.15104,-32.0423,-0.471955,
2026_06_10_19_19_17.070,3.847,30.4,0,0.759,0,0,0,0, ,0,0,0,0,0, ,563.4,-218.5,805.1,-21.6,-16.1,-11,25,424.181,-165.433,871.622,1.24605,-30.8454,-1.46695,
2026_06_10_19_19_17.090,3.847,30.4,0,0.758,0,0,0,0, ,0,0,0,0,0, ,620.7,-151.6,753.6,-15.9,-13.3,-8.4,25,434.41,-166.629,865.999,0.0275445,-29.8615,-1.96865,
2026_06_10_19_19_17.110,3.847,30.4,0,0.759,0,0,0,0, ,0,0,0,0,0, ,642.4,-177.9,725.4,-5,-33.3,-15,25,446.423,-166.514,858.291,-0.610931,-29.4617,-2.56165,
2026_06_10_19_19_17.131,3.847,30.4,0,0.76,0,0,0,0, ,0,0,0,0,0, ,617.5,-200.4,735.4,11,-56.8,-11,25,457.607,-167.894,850.498,-0.39089,-30.4116,-3.19774,
2026_06_10_19_19_17.149,3.847,30.4,0,0.76,0,0,0,0, ,0,0,0,0,0, ,554.1,-178.4,730.8,35.3,-65.1,-8.2,25,465.419,-169.204,843.344,1.04363,-32.2725,-3.58788,
2026_06_10_19_19_17.169,3.847,30.3,0,0.76,0,0,0,0, ,0,0,0,0,0, ,595.5,-200.3,812.8,3.2,-47.4,-2.6,25,472.084,-170.432,838.984,2.15308,-33.7336,-3.6983,
2026_06_10_19_19_17.189,3.847,30.4,0,0.76,0,0,0,0, ,0,0,0,0,0, ,710.2,-140.5,754.3,1.3,-22.3,7.2,25,483.1,-170.43,835.606,2.15899,-33.8017,-3.33278,
2026_06_10_19_19_17.211,3.847,30.4,0,0.759,0,0,0,0, ,0,0,0,0,0, ,705,-153.9,667.6,18.9,-33.5,3.7,25,496.78,-169.014,828.01,2.64289,-33.442,-2.79758,
2026_06_10_19_19_17.229,3.847,30.4,0,0.759,0,0,0,0, ,0,0,0,0,0, ,684.6,-88.5,696.4,36.2,-52.6,8.7,25,508.847,-166.101,819.112,4.16067,-34.0275,-2.24929,
2026_06_10_19_19_17.248,3.847,30.4,0,0.761,0,0,0,0, ,0,0,0,0,0, ,614.3,-82.8,753.4,3.2,-59.4,-0.7,25,517.415,-161.198,813.371,5.1076,-35.3665,-1.86847,
2026_06_10_19_19_17.268,3.847,30.4,0,0.76,0,0,0,0, ,0,0,0,0,0, ,609,-176.3,710.4,0,-41.4,-15.5,25,523.157,-159.27,808.407,4.89385,-36.2826,-2.24821,
2026_06_10_19_19_17.288,3.847,30.3,0,0.759,0,0,0,0, ,0,0,0,0,0, ,637.4,-210.8,697.7,-1.7,-40.5,-14.8,25,529.254,-161.359,802.047,4.54384,-36.567,-3.03441,
2026_06_10_19_19_17.308,3.847,30.4,0,0.758,0,0,0,0, ,0,0,0,0,0, ,726.4,-210.3,685.9,-8.9,-51.4,-1.9,25,538.556,-164.356,795.329,3.94398,-37.1388,-3.35833,
2026_06_10_19_19_17.328,3.847,30.4,0,0.758,0,0,0,0, ,0,0,0,0,0, ,721,-177.8,623.4,4.5,-57.8,11.8,25,549.838,-166.166,786.757,3.56958,-38.2028,-2.85204,
2026_06_10_19_19_17.347,3.847,30.4,0,0.76,0,0,0,0, ,0,0,0,0,0, ,674.8,3.4,645,-3.3,-62.5,9.6,25,558.86,-161.354,777.46,3.38862,-39.5402,-2.02621,
2026_06_10_19_19_17.367,3.847,30.4,0,0.76,0,0,0,0, ,0,0,0,0,0, ,709.3,-114.8,664.4,3,-53,-9.8,25,566.977,-154.915,769.979,3.17299,-40.6499,-1.90883,
2026_06_10_19_19_17.387,3.847,30.4,0,0.759,0,0,0,0, ,0,0,0,0,0, ,750.3,-169.9,660.1,5.6,-37.5,-17.5,25,576.899,-154.15,763.415,3.24166,-40.9302,-2.62431,
2026_06_10_19_19_17.407,3.847,30.3,0,0.76,0,0,0,0, ,0,0,0,0,0, ,770.3,-205.6,651.7,2.3,-29.7,-8.7,25,588.075,-156.197,756.863,3.28483,-40.4835,-3.26267,
2026_06_10_19_19_17.427,3.847,30.4,0,0.759,0,0,0,0, ,0,0,0,0,0, ,780.7,-160.4,620.2,4.5,-27.5,0,25,599.496,-157.83,749.495,3.29185,-39.7594,-3.32893,
2026_06_10_19_19_17.447,3.847,30.3,0,0.759,0,0,0,0, ,0,0,0,0,0, ,800.9,-138.6,573.3,14.5,-35.6,-0.5,25,611.154,-157.323,740.187,3.67016,-39.2591,-3.14131,
2026_06_10_19_19_17.467,3.847,30.4,0,0.759,0,0,0,0, ,0,0,0,0,0, ,792.6,-114.1,574.2,24.9,-47.9,0.7,25,622.463,-155.435,730.045,4.64697,-39.4109,-2.94379,
2026_06_10_19_19_17.486,3.847,30.4,0,0.759,0,0,0,0, ,0,0,0,0,0, ,778.1,-85.4,599.6,28.5,-55.3,2.4,25,632.389,-152.042,721.322,5.99083,-40.1537,-2.66995,
2026_06_10_19_19_17.505,3.847,30.3,0,0.759,0,0,0,0, ,0,0,0,0,0, ,784.3,-104.4,597.5,25.4,-42.8,9,25,641.457,-148.56,713.84,7.26803,-40.6958,-2.15991,
2026_06_10_19_19_17.525,3.847,30.3,0,0.758,0,0,0,0, ,0,0,0,0,0, ,824.5,-125.2,539.6,24.4,-33,17.2,25,651.387,-146.503,704.987,8.34248,-40.5254,-1.23001,
2026_06_10_19_19_17.546,3.847,30.4,0,0.759,0,0,0,0, ,0,0,0,0,0, ,817.1,-77.5,526.8,24.2,-37.8,15.8,25,661.71,-143.751,694.519,9.31489,-40.2131,-0.149586,
2026_06_10_19_19_17.566,3.847,30.4,0,0.76,0,0,0,0, ,0,0,0,0,0, ,800.4,-114.8,475.5,24.3,-53.9,11.1,25,670.671,-140.851,682.735,10.225,-40.5566,0.679139,
2026_06_10_19_19_17.585,3.847,30.4,0,0.759,0,0,0,0, ,0,0,0,0,0, ,842.6,-130,464.8,34.5,-69.8,14.3,25,679.862,-139.726,669.781,11.3935,-41.8542,1.41166,
2026_06_10_19_19_17.605,3.847,30.4,0,0.759,0,0,0,0, ,0,0,0,0,0, ,869.5,-141.6,503.1,47.3,-79.6,28.8,25,690.598,-139.487,658.457,13.1915,-43.8557,2.63884,
2026_06_10_19_19_17.625,3.847,30.3,0,0.761,0,0,0,0, ,0,0,0,0,0, ,982.5,2.3,449.8,65.8,-93.5,18.7,25,704.943,-135.231,647.366,15.8337,-46.4574,3.9253,
2026_06_10_19_19_17.645,3.847,30.4,0,0.76,0,0,0,0, ,0,0,0,0,0, ,1005.2,-60,345.2,42.9,-111,-9.4,25,722.548,-128.749,632.139,18.1808,-49.8572,3.96946,
2026_06_10_19_19_17.664,3.847,30.4,0,0.759,0,0,0,0, ,0,0,0,0,0, ,884.2,-91.9,494.2,8.1,-120.4,-17.8,25,736.086,-125.531,619.194,18.6268,-53.8695,2.89882,
2026_06_10_19_19_17.684,3.847,30.4,0,0.759,0,0,0,0, ,0,0,0,0,0, ,813.1,-120.7,445.4,19.9,-117.7,-25.5,25,742.945,-124.359,610.09,18.3448,-57.8415,1.40288,
2026_06_10_19_19_17.704,3.847,30.3,0,0.76,0,0,0,0, ,0,0,0,0,0, ,881.1,-139.1,391.4,35.6,-99.8,-21.8,25,749.292,-124.697,598.409,18.918,-60.9437,-0.12378,
2026_06_10_19_19_17.724,3.847,30.4,0,0.758,0,0,0,0, ,0,0,0,0,0, ,945.4,-124.6,349.4,17,-72.3,-5.8,25,759.283,-125.133,584.515,19.3678,-62.4736,-0.957174,
2026_06_10_19_19_17.743,3.847,30.3,0,0.759,0,0,0,0, ,0,0,0,0,0, ,932.2,-87.5,335,-9.9,-31.4,11.1,25,770.222,-123.97,569.749,18.4039,-61.8262,-0.737362,
2026_06_10_19_19_17.764,3.847,30.3,0,0.759,0,0,0,0, ,0,0,0,0,0, ,967.1,-87.1,343.2,-17.2,5.7,15.5,25,781.156,-121.735,555.694,16.4567,-58.8418,0.118039,
2026_06_10_19_19_17.783,3.847,30.4,0,0.759,0,0,0,0, ,0,0,0,0,0, ,848.5,89.1,305.2,8.5,29,-0.6,25,788.874,-114.256,541.587,15.1888,-54.1988,0.564831,
2026_06_10_19_19_17.803,3.847,30.4,0,0.761,0,0,0,0, ,0,0,0,0,0, ,1068.2,-183.8,380,27.4,29.3,-26.3,25,799.201,-110.179,529.461,15.3571,-49.1198,-0.289198,
2026_06_10_19_19_17.822,3.847,30.3,0,0.759,0,0,0,0, ,0,0,0,0,0, ,975.5,-120.8,325.3,8.8,10,-30.6,25,812.769,-112.746,518.687,15.5242,-44.9291,-2.00525,
2026_06_10_19_19_17.843,3.847,30.3,0,0.759,0,0,0,0, ,0,0,0,0,0, ,970.8,-123.1,336.5,-3.3,7.1,-7.5,25,822.542,-113.307,507.243,14.7458,-41.6702,-3.04391,
2026_06_10_19_19_17.862,3.847,30.3,0,0.76,0,0,0,0, ,0,0,0,0,0, ,964.4,-74.5,306.6,8,-8,5.9,25,831.381,-112.423,495.928,13.9904,-39.1584,-2.90717,
2026_06_10_19_19_17.882,3.847,30.3,0,0.759,0,0,0,0, ,0,0,0,0,0, ,987.3,-77.8,307.6,7,-36.3,3.5,25,840.185,-110.212,484.421,13.5949,-38.1219,-2.44361,
2026_06_10_19_19_17.903,3.847,30.2,0,0.758,0,0,0,0, ,0,0,0,0,0, ,956.4,-58.9,304.6,3.6,-44.5,-1.6,25,848.208,-107.661,473.555,13.0894,-38.2607,-2.23681,
2026_06_10_19_19_17.921,3.847,30.4,0,0.759,0,0,0,0, ,0,0,0,0,0, ,917.7,-69,289,4.7,-33.7,-5.8,25,853.622,-104.998,462.784,12.5447,-38.3119,-2.32598,
2026_06_10_19_19_17.942,3.847,30.3,0,0.758,0,0,0,0, ,0,0,0,0,0, ,911.9,-72.6,273.5,3.1,-26.1,-4.6,25,857.35,-102.914,451.721,12.0179,-37.7993,-2.50111,
2026_06_10_19_19_17.961,3.847,30.3,0,0.76,0,0,0,0, ,0,0,0,0,0, ,939.5,-70.6,240.4,-1.8,-29.2,-3.3,25,861.515,-101.006,439.853,11.3252,-37.1808,-2.5894,
2026_06_10_19_19_17.981,3.847,30.3,0,0.76,0,0,0,0, ,0,0,0,0,0, ,962.8,-62,211.9,0.9,-31.2,0.9,25,866.977,-98.8907,426.83,10.6076,-36.7554,-2.50474,
2026_06_10_19_19_18.003,3.847,30.4,0,0.76,0,0,0,0, ,0,0,0,0,0, ,947.8,-70.5,211.3,4.9,-31.5,3.9,25,872.36,-96.9017,413.715,10.1379,-36.426,-2.20585,
2026_06_10_19_19_18.021,3.847,30.3,0,0.76,0,0,0,0, ,0,0,0,0,0, ,916.8,-68.6,221.5,5.6,-34.3,2.9,25,876.012,-95.235,401.691,9.84008,-36.2112,-1.86425,
2026_06_10_19_19_18.041,3.847,30.3,0,0.759,0,0,0,0, ,0,0,0,0,0, ,921,-48.7,204.8,-5.5,-32.3,-2.6,25,878.626,-93.0056,390.201,9.2435,-36.0338,-1.7415,
2026_06_10_19_19_18.061,3.847,30.3,0,0.759,0,0,0,0, ,0,0,0,0,0, ,965.2,41.9,170.5,30.4,-19.5,1.6,25,882.555,-87.5452,377.858,9.4389,-35.4162,-1.66585,
2026_06_10_19_19_18.081,3.847,30.3,0,0.76,0,0,0,0, ,0,0,0,0,0, ,982.1,-104.7,217.2,14.9,-22.6,0.5,25,888.106,-84.1239,366.645,10.2439,-34.5408,-1.50035,
2026_06_10_19_19_18.100,3.847,30.3,0,0.759,0,0,0,0, ,0,0,0,0,0, ,938.7,-66.5,213.8,1.5,-19.1,2.7,25,892.511,-84.2138,357.435,10.1194,-33.7065,-1.31143,
2026_06_10_19_19_18.120,3.847,30.4,0,0.759,0,0,0,0, ,0,0,0,0,0, ,904.1,-34,208.4,4.7,-13.8,-4.7,25,894.272,-82.1442,348.518,9.69165,-32.6549,-1.29245,
2026_06_10_19_19_18.140,3.847,30.3,0,0.758,0,0,0,0, ,0,0,0,0,0, ,947.9,-152.8,153.9,4.3,-18.6,-6.2,25,896.205,-82.8301,338.319,9.37528,-31.6522,-1.5458,
2026_06_10_19_19_18.162,3.847,30.3,0,0.76,0,0,0,0, ,0,0,0,0,0, ,1002.6,-42.3,123.7,14.4,-29.3,13,25,901.022,-83.7271,326.161,9.37374,-31.1829,-1.24441,
2026_06_10_19_19_18.179,3.847,30.3,0,0.759,0,0,0,0, ,0,0,0,0,0, ,975.2,-42.2,225.4,13.9,-18.7,12.9,25,906.377,-81.1995,316.922,9.6648,-30.7452,-0.379442,
2026_06_10_19_19_18.199,3.847,30.3,0,0.758,0,0,0,0, ,0,0,0,0,0, ,965,-69.9,156.2,15.5,-17.4,9.6,25,910.26,-79.667,309.236,9.97163,-29.9715,0.329227,
2026_06_10_19_19_18.220,3.847,30.2,0,0.759,0,0,0,0, ,0,0,0,0,0, ,943.6,-48.2,130.4,10.3,-29,-1.1,25,912.944,-78.4106,299.125,10.1501,-29.5589,0.568149,
2026_06_10_19_19_18.238,3.847,30.2,0,0.76,0,0,0,0, ,0,0,0,0,0, ,1001.7,-56.6,174.1,0.9,-26.4,-8.9,25,916.582,-76.8256,290.174,9.87281,-29.4456,0.22884,
2026_06_10_19_19_18.259,3.847,30.3,0,0.76,0,0,0,0, ,0,0,0,0,0, ,1020.5,-60.4,163.2,-6.9,-16.8,-4.4,25,922.342,-75.7089,282.769,9.08837,-28.9675,-0.190339,
2026_06_10_19_19_18.278,3.847,30.3,0,0.758,0,0,0,0, ,0,0,0,0,0, ,973.5,-63.4,158.9,-2.6,-13.6,4,25,926.891,-74.8674,275.352,8.24509,-28.1286,-0.190928,
2026_06_10_19_19_18.298,3.847,30.3,0,0.759,0,0,0,0, ,0,0,0,0,0, ,945.9,-70.5,150.1,0.4,-11.8,-0.6,25,928.89,-74.385,267.987,7.67563,-27.1884,-0.0756994,
2026_06_10_19_19_18.321,3.847,30.2,0,0.758,0,0,0,0, ,0,0,0,0,0, ,957.3,-79.8,120.8,-6.9,-17.3,-4.5,25,930.274,-74.4316,259.911,7.00985,-26.4182,-0.226477,
2026_06_10_19_19_18.338,3.847,30.1,0,0.759,0,0,0,0, ,0,0,0,0,0, ,970.4,-68.7,117.3,-12.4,-22.1,-1.9,25,932.32,-74.4205,251.327,5.99464,-26.0089,-0.407676,
2026_06_10_19_19_18.358,3.847,30.2,0,0.758,0,0,0,0, ,0,0,0,0,0, ,936.6,-45,120.6,-19.4,-18.9,-5.9,25,933.611,-73.3498,243.26,4.66043,-25.6732,-0.62049,
2026_06_10_19_19_18.377,3.847,30.2,0,0.759,0,0,0,0, ,0,0,0,0,0, ,957.2,-55.9,137,-17.9,-13.3,-15.4,25,934.421,-71.9544,236.285,3.23995,-25.0898,-1.23166,
2026_06_10_19_19_18.397,3.847,30.3,0,0.758,0,0,0,0, ,0,0,0,0,0, ,985.1,-72.1,117.6,-19.5,-16.6,-19.4,25,936.659,-71.4696,229.644,1.90299,-24.4719,-2.21692,
2026_06_10_19_19_18.417,3.847,30.2,0,0.758,0,0,0,0, ,0,0,0,0,0, ,996,-61.6,74.5,-26.3,-24,-18.6,25,939.943,-71.1881,221.503,0.391557,-24.2177,-3.23964,
2026_06_10_19_19_18.436,3.847,30.1,0,0.758,0,0,0,0, ,0,0,0,0,0, ,987,-50.4,95.2,-43.5,-30.8,-19.2,25,943.085,-70.2626,213.176,-1.75902,-24.4116,-4.19394,
2026_06_10_19_19_18.457,3.847,30.2,0,0.76,0,0,0,0, ,0,0,0,0,0, ,913.4,9.3,161.3,-31.3,-39.1,-6.7,25,943.518,-67.2332,208.001,-3.93089,-25.0538,-4.72751,
2026_06_10_19_19_18.476,3.847,30.3,0,0.76,0,0,0,0, ,0,0,0,0,0, ,718,-32.3,34.7,7,-24.7,5.6,25,935.729,-63.837,201.298,-4.43175,-25.471,-4.47295,
2026_06_10_19_19_18.496,3.847,30.1,0,0.759,0,0,0,0, ,0,0,0,0,0, ,1191.5,-72.2,42.1,8.6,-19.2,-8.5,25,936.888,-63.1309,191.371,-3.68637,-25.2564,-4.28874,
2026_06_10_19_19_18.516,3.847,30.2,0,0.76,0,0,0,0, ,0,0,0,0,0, ,1181.8,-118.6,-7.5,9.6,-41.5,-19,25,952.108,-65.0973,180.764,-2.9072,-25.5668,-4.86528,
2026_06_10_19_19_18.536,3.847,30.1,0,0.758,0,0,0,0, ,0,0,0,0,0, ,988.5,-36.2,-12.8,-18.3,-39.3,-19.5,25,960.216,-65.847,169.13,-2.99512,-26.4707,-5.74185,
2026_06_10_19_19_18.555,3.847,30.3,0,0.759,0,0,0,0, ,0,0,0,0,0, ,1031.9,-49.6,41,-22,-46.6,-14.9,25,963.261,-64.4487,159.683,-4.0405,-27.4749,-6.44008,
2026_06_10_19_19_18.575,3.847,30.2,0,0.759,0,0,0,0, ,0,0,0,0,0, ,1052.6,-91,78,-8.9,-28.7,-9.1,25,968.075,-64.8052,153.578,-4.73577,-28.095,-6.77889,
2026_06_10_19_19_18.595,3.847,30.2,0,0.759,0,0,0,0, ,0,0,0,0,0, ,1021.1,-30.6,29.1,5.5,-10.8,-4.7,25,972.266,-64.5612,147.482,-4.55077,-27.5864,-6.78627,
2026_06_10_19_19_18.615,3.847,30.2,0,0.759,0,0,0,0, ,0,0,0,0,0, ,1006.8,-28,-9.6,11.4,-9.8,-4.1,25,974.806,-62.4124,139.089,-3.75854,-26.533,-6.64086,
2026_06_10_19_19_18.635,3.847,30.2,0,0.759,0,0,0,0, ,0,0,0,0,0, ,976.1,-24.6,5.3,9.3,-15.8,-4.8,25,975.82,-60.2118,130.483,-2.8988,-25.6962,-6.50735,
2026_06_10_19_19_18.654,3.847,30.2,0,0.76,0,0,0,0, ,0,0,0,0,0, ,980.9,-40,-2.9,9.2,-12,-5.6,25,975.983,-58.511,122.604,-2.15848,-24.9774,-6.42768,
2026_06_10_19_19_18.674,3.847,30.1,0,0.759,0,0,0,0, ,0,0,0,0,0, ,964.5,-24.9,-23.1,7.6,-8,-2.8,25,975.783,-56.9229,114.341,-1.51508,-24.0647,-6.29193,
2026_06_10_19_19_18.695,3.847,30.2,0,0.758,0,0,0,0, ,0,0,0,0,0, ,948.2,-5.7,-45.5,2.7,-9.4,-6,25,974.599,-54.3865,105.283,-1.10892,-23.1284,-6.17665,
2026_06_10_19_19_18.715,3.847,30.2,0,0.758,0,0,0,0, ,0,0,0,0,0, ,960.2,-18.3,-55.4,2,-10.4,-7.8,25,973.356,-51.8036,95.7932,-0.898144,-22.3223,-6.22072,
2026_06_10_19_19_18.734,3.847,30.1,0,0.76,0,0,0,0, ,0,0,0,0,0, ,1010.1,-26.2,-57.9,3.9,-16.6,-5.7,25,974.075,-50.0026,86.5037,-0.663648,-21.7847,-6.25298,
2026_06_10_19_19_18.755,3.847,30.1,0,0.759,0,0,0,0, ,0,0,0,0,0, ,1012.5,-19,-34.6,6.3,-20.9,-3.6,25,976.343,-48.3328,78.414,-0.312426,-21.5997,-6.1553,
2026_06_10_19_19_18.774,3.847,30.1,0,0.76,0,0,0,0, ,0,0,0,0,0, ,987.3,-12,-23.5,6.7,-16.1,-2.7,25,977.779,-46.332,71.8654,0.102706,-21.4109,-5.97216,
2026_06_10_19_19_18.793,3.847,30.1,0,0.759,0,0,0,0, ,0,0,0,0,0, ,985.7,-17.7,-20.1,3.5,-4.5,-3.9,25,978.31,-44.4136,66.1577,0.407229,-20.7338,-5.80933,
2026_06_10_19_19_18.813,3.847,30.1,0,0.759,0,0,0,0, ,0,0,0,0,0, ,1007.5,-28.8,-40.6,2.8,0.7,-1.3,25,979.425,-43.1239,60.2767,0.574366,-19.5861,-5.61376,
2026_06_10_19_19_18.833,3.847,30.1,0,0.759,0,0,0,0, ,0,0,0,0,0, ,1003.6,-20.3,-41.1,3.9,-3.6,0.6,25,981.017,-41.9921,54.1143,0.743507,-18.4809,-5.293,
2026_06_10_19_19_18.853,3.847,30.1,0,0.76,0,0,0,0, ,0,0,0,0,0, ,969.7,-11.5,-33.2,3.8,-5.8,-0.6,25,981.36,-40.4021,48.5529,0.932809,-17.6412,-4.97046,
2026_06_10_19_19_18.873,3.847,30.1,0,0.76,0,0,0,0, ,0,0,0,0,0, ,960.6,-17.7,-31.6,0.7,-1.8,-4,25,980.372,-38.8298,43.6198,1.01307,-16.7977,-4.80772,
2026_06_10_19_19_18.893,3.847,30.2,0,0.759,0,0,0,0, ,0,0,0,0,0, ,991.9,-20.3,-73.9,-1,-1,-4.4,25,980.121,-37.6214,37.7473,0.9422,-15.8594,-4.77069,
2026_06_10_19_19_18.912,3.847,30.1,0,0.759,0,0,0,0, ,0,0,0,0,0, ,1014.5,-20.1,-72.1,1,-12.5,-2.2,25,981.527,-36.5598,30.9986,0.884785,-15.3043,-4.68107,
2026_06_10_19_19_18.932,3.847,30.2,0,0.758,0,0,0,0, ,0,0,0,0,0, ,1005,-19.2,-29.7,3,-12.3,-2.3,25,983.247,-35.5294,26.0079,0.952743,-15.1273,-4.53293,
2026_06_10_19_19_18.952,3.847,30.1,0,0.758,0,0,0,0, ,0,0,0,0,0, ,992.5,-23.3,-26.2,1.3,-0.3,0,25,984.192,-34.6592,22.7199,1.0257,-14.5894,-4.32678,
2026_06_10_19_19_18.974,3.847,30.1,0,0.76,0,0,0,0, ,0,0,0,0,0, ,983.3,-13.4,-49.9,-0.6,4.3,0.3,25,984.418,-33.6654,19.0167,0.984525,-13.5785,-4.05398,
2026_06_10_19_19_18.992,3.847,30.1,0,0.758,0,0,0,0, ,0,0,0,0,0, ,987.3,-1.4,-81.4,-2.1,-2.3,-3.4,25,984.472,-32.0648,13.8573,0.842265,-12.6901,-3.90139,
2026_06_10_19_19_19.011,3.847,30.1,0,0.758,0,0,0,0, ,0,0,0,0,0, ,1034.1,-21.1,-69.9,-0.3,-11.4,-4.7,25,986.07,-30.7964,8.40298,0.717815,-12.3342,-3.91045,
2026_06_10_19_19_19.031,3.847,30.2,0,0.758,0,0,0,0, ,0,0,0,0,0, ,1019.1,-24.9,-46.3,2.6,-10.1,-1.6,25,988.54,-30.3213,4.35046,0.744151,-12.2377,-3.86411,
2026_06_10_19_19_19.051,3.847,30.1,0,0.76,0,0,0,0, ,0,0,0,0,0, ,1001.4,-27.8,-43.9,3.5,5.4,3.4,25,989.863,-30.0793,1.33707,0.884664,-11.6352,-3.57379,
2026_06_10_19_19_19.071,3.847,30.1,0,0.759,0,0,0,0, ,0,0,0,0,0, ,977.5,-19.2,-78.2,3.7,6.9,4.1,25,989.838,-29.6784,-2.46464,1.05013,-10.5514,-3.1275,
2026_06_10_19_19_19.091,3.847,30.1,0,0.76,0,0,0,0, ,0,0,0,0,0, ,968.5,-9,-73.8,3.7,-0.6,-0.1,25,988.811,-28.7291,-6.9457,1.21161,-9.71646,-2.81504,
2026_06_10_19_19_19.110,3.847,30.1,0,0.76,0,0,0,0, ,0,0,0,0,0, ,978.3,-13.6,-29.9,6.6,-3.3,-3.2,25,987.872,-27.667,-9.68206,1.4516,-9.24319,-2.74405,
2026_06_10_19_19_19.130,3.847,30.1,0,0.759,0,0,0,0, ,0,0,0,0,0, ,1073.1,-77.2,-79.3,2.4,-13.9,6.8,25,990.177,-28.7476,-12.4192,1.63736,-9.20399,-2.46715,
2026_06_10_19_19_19.150,3.847,30.1,0,0.76,0,0,0,0, ,0,0,0,0,0, ,1008.9,-26.9,-32.8,12.1,2.4,5.3,25,993.274,-30.1676,-15.078,1.97938,-8.99352,-1.94813,
2026_06_10_19_19_19.170,3.847,30.1,0,0.761,0,0,0,0, ,0,0,0,0,0, ,986,-58.9,-51.6,1.4,3.2,3.3,25,993.529,-30.9435,-16.7307,2.27009,-8.27485,-1.56739,
2026_06_10_19_19_19.190,3.847,30.1,0,0.759,0,0,0,0, ,0,0,0,0,0, ,940,-19.1,-60.1,3.2,2.4,2.8,25,991.669,-31.4344,-19.1146,2.27192,-7.59997,-1.28601,
2026_06_10_19_19_19.211,3.847,30.1,0,0.76,0,0,0,0, ,0,0,0,0,0, ,944.9,-32.4,-36.2,2.4,3.8,-4.3,25,988.669,-31.088,-20.8839,2.3041,-6.94794,-1.25335,
2026_06_10_19_19_19.230,3.847,30.1,0,0.758,0,0,0,0, ,0,0,0,0,0, ,996.4,-38.2,-22.8,1.4,0.2,-3.1,25,987.571,-31.3447,-21.409,2.27947,-6.40268,-1.40244,
2026_06_10_19_19_19.249,3.847,30.2,0,0.757,0,0,0,0, ,0,0,0,0,0, ,995.7,-33.5,-46.2,2.2,-1,-3.9,25,988.088,-31.6192,-22.2067,2.25025,-6.03689,-1.53026,
2026_06_10_19_19_19.269,3.847,30.1,0,0.759,0,0,0,0, ,0,0,0,0,0, ,973.3,-25,-51,1.4,-1.2,-4,25,987.869,-31.4749,-23.815,2.22282,-5.73605,-1.67772,
2026_06_10_19_19_19.289,3.847,30.1,0,0.759,0,0,0,0, ,0,0,0,0,0, ,963.9,-26.7,-57.7,-3.1,0.1,-5.6,25,986.695,-31.1321,-25.6758,2.03557,-5.42002,-1.86798,
2026_06_10_19_19_19.308,3.847,30,0,0.759,0,0,0,0, ,0,0,0,0,0, ,982.5,-33,-68.4,-2.9,-4.5,-6.6,25,985.873,-31.054,-27.9533,1.72871,-5.2238,-2.12587,
2026_06_10_19_19_19.328,3.847,30,0,0.759,0,0,0,0, ,0,0,0,0,0, ,990.9,-25.6,-60.3,-3,-11.1,-7.8,25,985.923,-30.9471,-30.1712,1.4436,-5.38079,-2.43507,
2026_06_10_19_19_19.348,3.847,30,0,0.759,0,0,0,0, ,0,0,0,0,0, ,1008.4,-29.7,-42.9,-0.9,-9.5,-7.6,25,986.76,-30.7462,-31.477,1.2368,-5.68056,-2.75591,
2026_06_10_19_19_19.368,3.847,30.1,0,0.76,0,0,0,0, ,0,0,0,0,0, ,1007.4,-32.4,-42.8,-2.7,1.5,-3.4,25,988.048,-30.7647,-32.17,1.05175,-5.57815,-2.92312,
2026_06_10_19_19_19.388,3.847,30.1,0,0.759,0,0,0,0, ,0,0,0,0,0, ,989.3,-31.4,-53.8,-3.7,8.1,-1.2,25,988.676,-30.8339,-33.153,0.792659,-4.94573,-2.88515,
2026_06_10_19_19_19.408,3.847,30.1,0,0.759,0,0,0,0, ,0,0,0,0,0, ,981.6,-22,-65.9,-2.3,2.2,-2.3,25,988.479,-30.582,-34.7798,0.561544,-4.33052,-2.81598,
2026_06_10_19_19_19.428,3.847,30,0,0.759,0,0,0,0, ,0,0,0,0,0, ,987.3,-23.1,-60.7,-2.6,-2,-3.3,25,988.234,-30.0925,-36.5178,0.378028,-4.06054,-2.81501,
2026_06_10_19_19_19.447,3.847,30,0,0.757,0,0,0,0, ,0,0,0,0,0, ,982.2,-15.2,-43.2,-3.7,-5.2,-3.7,25,988.021,-29.4257,-37.4582,0.163038,-4.03247,-2.85675,
2026_06_10_19_19_19.467,3.847,30.1,0,0.76,0,0,0,0, ,0,0,0,0,0, ,1000.6,-17,-36.6,-9.2,4.2,-4.6,25,988.227,-28.6137,-37.607,-0.239944,-3.81721,-2.93555,
2026_06_10_19_19_19.487,3.847,30,0,0.759,0,0,0,0, ,0,0,0,0,0, ,999.6,-19.8,-47.6,-10.9,7.6,-4.2,25,988.951,-27.9913,-37.8808,-0.837744,-3.22507,-3.02479,
2026_06_10_19_19_19.507,3.847,30,0,0.759,0,0,0,0, ,0,0,0,0,0, ,983.8,-20.6,-50.7,-13.4,5,-2.9,25,989.118,-27.5165,-38.5675,-1.52708,-2.64464,-3.0568,
2026_06_10_19_19_19.527,3.847,30.1,0,0.76,0,0,0,0, ,0,0,0,0,0, ,982.1,-19.5,-60.4,-14.1,3.7,-3.4,25,988.742,-27.0615,-39.6023,-2.27192,-2.2184,-3.06248,
2026_06_10_19_19_19.546,3.847,30.1,0,0.759,0,0,0,0, ,0,0,0,0,0, ,984,-21.8,-47.7,-15.1,2.7,-5.1,25,988.395,-26.6708,-40.4828,-3.02316,-1.88822,-3.13484,
2026_06_10_19_19_19.566,3.847,30.1,0,0.759,0,0,0,0, ,0,0,0,0,0, ,1033.6,-26.3,-31.3,-16,4.1,-4.1,25,989.639,-26.5111,-40.4229,-3.78651,-1.56597,-3.22413,
2026_06_10_19_19_19.586,3.847,30,0,0.758,0,0,0,0, ,0,0,0,0,0, ,898,17.2,-77.5,7.4,11.8,5.2,25,988.186,-25.1728,-41.2746,-3.81781,-0.986086,-2.99414,
2026_06_10_19_19_19.606,3.847,30,0,0.759,0,0,0,0, ,0,0,0,0,0, ,989.9,-21.7,-71.4,-15.6,1.9,-3.3,25,985.491,-23.776,-43.2962,-3.835,-0.508575,-2.75379,
2026_06_10_19_19_19.626,3.847,30,0,0.759,0,0,0,0, ,0,0,0,0,0, ,990.6,-21.7,-31,-12.8,2.6,-5,25,985.781,-23.6495,-43.7779,-4.46662,-0.340474,-2.83888,
2026_06_10_19_19_19.646,3.847,30.1,0,0.758,0,0,0,0, ,0,0,0,0,0, ,967.1,-6.9,-78.1,-17.3,-4.3,-4.7,25,985.358,-23.0797,-44.4343,-5.11154,-0.371523,-2.96143,
2026_06_10_19_19_19.666,3.847,30.1,0,0.758,0,0,0,0, ,0,0,0,0,0, ,1016.8,-26.9,-38.3,-15.8,-5.7,-3.9,25,985.76,-22.7032,-45.2731,-5.80857,-0.653571,-3.043,
2026_06_10_19_19_19.686,3.847,30,0,0.758,0,0,0,0, ,0,0,0,0,0, ,1017.9,-141.8,-218.3,-0.8,-36,27.6,25,987.685,-26.4598,-50.3326,-5.9604,-1.88429,-2.13546,
2026_06_10_19_19_19.705,3.847,30,0,0.759,0,0,0,0, ,0,0,0,0,0, ,1020.9,28.4,25.2,3.9,-12.9,10.6,25,989.618,-28.3025,-53.149,-5.50273,-3.25939,-0.84142,
2026_06_10_19_19_19.725,3.847,30,0,0.759,0,0,0,0, ,0,0,0,0,0, ,942.3,-47.2,-60.7,-3.5,9.4,-3.1,25,989.129,-27.1507,-50.9918,-5.15522,-3.16741,-0.56163,
2026_06_10_19_19_19.745,3.847,30,0,0.76,0,0,0,0, ,0,0,0,0,0, ,949.5,-24.2,-42.3,-6.6,11.3,-1.6,25,986.495,-27.6716,-51.0228,-5.14881,-2.34369,-0.670609,
2026_06_10_19_19_19.765,3.847,30.1,0,0.759,0,0,0,0, ,0,0,0,0,0, ,978.3,-3,-56.2,-9.8,0.3,-5.1,25,985.118,-26.8141,-50.9148,-5.33474,-1.84744,-0.833885,
2026_06_10_19_19_19.784,3.847,30,0,0.759,0,0,0,0, ,0,0,0,0,0, ,1026.6,-20.8,-79.7,-15.6,-16,-5.9,25,986.174,-25.9053,-51.9529,-5.78356,-2.21322,-1.11823,
2026_06_10_19_19_19.804,3.847,30,0,0.759,0,0,0,0, ,0,0,0,0,0, ,980.4,-10.8,-27.4,-11.9,-6.8,-9.2,25,987.23,-25.2895,-52.0502,-6.26902,-2.77304,-1.51016,
2026_06_10_19_19_19.824,3.847,30,0,0.759,0,0,0,0, ,0,0,0,0,0, ,612.3,73.9,31.4,13.1,3.3,-2.1,25,975.598,-21.8259,-48.7565,-5.85044,-2.7107,-1.76243,
2026_06_10_19_19_19.843,3.847,30,0,0.759,0,0,0,0, ,0,0,0,0,0, ,1440.4,-125.6,-122.3,27,2.7,8.9,25,978.691,-22.0711,-48.555,-4.27213,-2.3627,-1.44785,
2026_06_10_19_19_19.863,3.847,29.9,0,0.757,0,0,0,0, ,0,0,0,0,0, ,1059.4,0.8,-52.4,14.2,5.3,-10.3,25,995.218,-24.5286,-50.9191,-2.75648,-1.97497,-1.40228,
2026_06_10_19_19_19.884,3.847,30.1,0,0.758,0,0,0,0, ,0,0,0,0,0, ,988.7,-68.8,-62.9,2.5,8.2,-4.1,25,996.975,-25.1058,-51.3292,-2.07968,-1.4433,-1.75557,
2026_06_10_19_19_19.904,3.847,29.9,0,0.759,0,0,0,0, ,0,0,0,0,0, ,993.4,-34.1,-60.6,2.9,4.3,-4.5,25,996.614,-26.7111,-51.9643,-1.78842,-0.974485,-1.91063,
2026_06_10_19_19_19.923,3.847,30,0,0.759,0,0,0,0, ,0,0,0,0,0, ,993.8,-9.7,-25.1,10.5,4.3,-9,25,996.43,-26.418,-51.4089,-1.27116,-0.653072,-2.20552,
2026_06_10_19_19_19.943,3.847,30,0,0.76,0,0,0,0, ,0,0,0,0,0, ,971,-32.8,-15.5,24.4,16.4,-11,25,995.575,-26.103,-49.5132,-0.130336,0.0174281,-2.6805,
2026_06_10_19_19_19.963,3.847,30,0,0.759,0,0,0,0, ,0,0,0,0,0, ,1015.6,-28.4,-43.2,24.3,18.5,-4.1,25,995.436,-26.3771,-48.2845,1.36143,1.07973,-2.97724,
2026_06_10_19_19_19.982,3.847,29.9,0,0.759,0,0,0,0, ,0,0,0,0,0, ,954.4,-17.5,-50.6,11.3,6.6,-3.5,25,994.8,-26.1682,-48.2001,2.36316,1.7787,-3.02737,
2026_06_10_19_19_20.002,3.847,30,0,0.759,0,0,0,0, ,0,0,0,0,0, ,984.9,-26.9,-25.6,-1.3,0.2,-0.4,25,993.268,-25.9264,-47.5846,2.52384,1.87749,-2.96172,
2026_06_10_19_19_20.023,3.847,29.9,0,0.758,0,0,0,0, ,0,0,0,0,0, ,992.4,-31.1,-18.3,-2.2,0.4,0.1,25,992.986,-26.1137,-46.0225,2.2634,1.78136,-2.79038,
2026_06_10_19_19_20.042,3.847,30,0,0.759,0,0,0,0, ,0,0,0,0,0, ,991.4,-22,-20.3,-1.4,-1.6,0.2,25,992.92,-26.1403,-44.3941,2.01579,1.63625,-2.6112,
2026_06_10_19_19_20.062,3.847,30,0,0.758,0,0,0,0, ,0,0,0,0,0, ,990.8,-37.5,-32.8,-1.5,-2.8,-2.3,25,992.809,-26.3603,-43.3067,1.80459,1.40248,-2.51607,
2026_06_10_19_19_20.088,3.847,29.9,0,0.758,0,0,0,0, ,0,0,0,0,0, ,992.1,-24.9,-30.8,-0.7,-2.9,-2.9,25,992.726,-26.6552,-42.6055,1.6276,1.14334,-2.52118,
2026_06_10_19_19_20.101,3.847,30,0,0.76,0,0,0,0, ,0,0,0,0,0, ,991,-22.7,-34.7,-0.9,-3.8,-3,25,992.655,-26.4812,-42.005,1.47966,0.86953,-2.54731,
2026_06_10_19_19_20.121,3.847,30,0,0.758,0,0,0,0, ,0,0,0,0,0, ,981.3,-19.2,-117.7,11,-0.6,-5.5,25,992.258,-26.1441,-44.0887,1.69723,0.682481,-2.65107,
2026_06_10_19_19_20.141,3.847,30,0,0.758,0,0,0,0, ,0,0,0,0,0, ,995.2,3,-8.4,9.5,0.1,-3.5,25,992.014,-25.0446,-45.2442,2.21842,0.625658,-2.76374,
2026_06_10_19_19_20.161,3.847,29.9,0,0.758,0,0,0,0, ,0,0,0,0,0, ,989.6,-25,-68.4,0.7,2.2,-1.3,25,992.038,-24.1887,-44.8271,2.39401,0.65761,-2.74157,
2026_06_10_19_19_20.180,3.847,30,0,0.76,0,0,0,0, ,0,0,0,0,0, ,994.9,8.1,-41.1,-2.6,8.9,1.3,25,992.051,-23.2297,-45.4318,2.19024,0.95574,-2.57451,
2026_06_10_19_19_20.201,3.847,29.9,0,0.758,0,0,0,0, ,0,0,0,0,0, ,990.6,-8.5,-23.1,-10.6,7.4,3.6,25,992.093,-21.8263,-44.6194,1.65458,1.39414,-2.26833,
2026_06_10_19_19_20.221,3.847,29.9,0,0.756,0,0,0,0, ,0,0,0,0,0, ,991.8,-22.2,-20.8,7.4,9.8,0.7,25,992.039,-21.4316,-43.238,1.45626,1.83325,-1.99909,
2026_06_10_19_19_20.243,3.847,30,0,0.759,0,0,0,0, ,0,0,0,0,0, ,993.7,-6.9,-24,-1.1,12.6,3.7,25,992.082,-21.0123,-41.9682,1.55947,2.40403,-1.7432,
2026_06_10_19_19_20.259,3.847,29.9,0,0.759,0,0,0,0, ,0,0,0,0,0, ,991.4,-44,21.3,-5.4,9.3,3.1,25,992.111,-21.2827,-39.493,1.26639,2.9248,-1.42979,
2026_06_10_19_19_20.280,3.847,29.9,0,0.759,0,0,0,0, ,0,0,0,0,0, ,990.4,-54.1,22.9,-5.2,2,0,25,992.037,-22.9748,-35.7397,0.866252,3.09087,-1.24821,
2026_06_10_19_19_20.300,3.847,29.8,0,0.758,0,0,0,0, ,0,0,0,0,0, ,992.3,-23.9,-35.1,-3,2.1,0.6,25,991.995,-23.9513,-33.9335,0.563621,3.02744,-1.15387,
2026_06_10_19_19_20.319,3.847,29.9,0,0.759,0,0,0,0, ,0,0,0,0,0, ,990.7,-34.6,13.6,0.4,2.3,-0.5,25,991.965,-24.2742,-32.5208,0.450056,2.97702,-1.0805,
2026_06_10_19_19_20.339,3.847,29.9,0,0.758,0,0,0,0, ,0,0,0,0,0, ,991.4,-34,7.9,-1.5,-4.6,-1.6,25,991.909,-24.8852,-29.8839,0.389115,2.72553,-1.07865,
2026_06_10_19_19_20.359,3.847,29.9,0,0.757,0,0,0,0, ,0,0,0,0,0, ,995.9,-7.6,-25.5,-3,-4.5,-0.8,25,992.015,-24.6362,-28.5991,0.228294,2.28218,-1.08604,
2026_06_10_19_19_20.379,3.847,29.9,0,0.758,0,0,0,0, ,0,0,0,0,0, ,989.5,-59.9,-5.1,8.4,-5.9,2.9,25,992.057,-25.1916,-27.7887,0.378914,1.82623,-0.955876,
2026_06_10_19_19_20.404,3.847,29.9,0,0.76,0,0,0,0, ,0,0,0,0,0, ,992.6,-30.5,-43.8,3.3,-3.9,-0.3,25,991.996,-26.4108,-27.5853,0.712308,1.41635,-0.818408,
2026_06_10_19_19_20.418,3.847,29.9,0,0.758,0,0,0,0, ,0,0,0,0,0, ,992.5,-15.1,-18.3,1.8,-2.8,0.1,25,992.029,-26.1908,-27.7964,0.824292,1.1259,-0.77463,
2026_06_10_19_19_20.439,3.847,29.9,0,0.758,0,0,0,0, ,0,0,0,0,0, ,991,-13.7,-26,15.5,-2.9,4.7,25,992.012,-25.4723,-27.4523,1.30117,0.883621,-0.581176,
2026_06_10_19_19_20.458,3.847,29.9,0,0.76,0,0,0,0, ,0,0,0,0,0, ,990.7,-36.2,-25.5,27,-4.5,6,25,991.941,-25.4405,-27.3486,2.5168,0.604307,-0.219745,
2026_06_10_19_19_20.478,3.847,29.9,0,0.76,0,0,0,0, ,0,0,0,0,0, ,992.4,-39.1,-54.9,24.1,-2.9,7.2,25,991.918,-26.1845,-28.1317,3.92039,0.342013,0.195833,
2026_06_10_19_19_20.498,3.847,29.9,0,0.759,0,0,0,0, ,0,0,0,0,0, ,990.2,-58.7,-45.8,10.4,3.3,5.1,25,991.88,-27.5687,-29.4856,4.73266,0.333359,0.558665,
2026_06_10_19_19_20.518,3.847,29.9,0,0.758,0,0,0,0, ,0,0,0,0,0, ,991.6,-38.9,-46.8,-3.5,9.8,3.9,25,991.82,-28.8625,-30.5103,4.6545,0.712186,0.79884,
2026_06_10_19_19_20.538,3.847,29.9,0,0.758,0,0,0,0, ,0,0,0,0,0, ,994.7,-26.9,-33.6,7.3,12.7,6.8,25,991.901,-29.1085,-31.1007,4.48665,1.35433,1.07618,
2026_06_10_19_19_20.558,3.847,29.9,0,0.758,0,0,0,0, ,0,0,0,0,0, ,989.8,-58.1,-32.5,13.3,15.2,5.6,25,991.923,-29.9246,-31.2195,4.8409,2.12188,1.38841,
2026_06_10_19_19_20.577,3.847,29.9,0,0.76,0,0,0,0, ,0,0,0,0,0, ,993.5,-42.1,-22.9,6.4,19.3,4.5,25,991.906,-31.154,-31.0051,5.14614,3.04375,1.61154,
2026_06_10_19_19_20.598,3.847,29.9,0,0.76,0,0,0,0, ,0,0,0,0,0, ,990.1,-48.5,26,4.9,17.7,6.5,25,991.899,-32.016,-29.0212,5.17684,3.98562,1.84849,
2026_06_10_19_19_20.617,3.847,29.8,0,0.758,0,0,0,0, ,0,0,0,0,0, ,990.1,-50.2,49.3,1.7,10.6,6.4,25,991.79,-33.0723,-24.9585,5.06247,4.60501,2.12889,
2026_06_10_19_19_20.637,3.847,29.9,0,0.758,0,0,0,0, ,0,0,0,0,0, ,990.6,-64.6,2.9,3.9,6,5.8,25,991.702,-34.5548,-21.8471,4.9246,4.83017,2.37088,
2026_06_10_19_19_20.656,3.847,29.8,0,0.756,0,0,0,0, ,0,0,0,0,0, ,994.9,-45.6,-3.9,18.6,7.3,8,25,991.766,-35.8068,-20.5462,5.31006,4.94107,2.64688,
2026_06_10_19_19_20.676,3.847,29.9,0,0.759,0,0,0,0, ,0,0,0,0,0, ,984.1,-114.3,39.3,25.4,3.2,6.4,25,991.628,-38.4967,-18.2156,6.3271,4.95989,2.92433,
2026_06_10_19_19_20.696,3.847,29.9,0,0.758,0,0,0,0, ,0,0,0,0,0, ,988.4,-78.4,25.3,9,1.4,1.3,25,991.3,-42.0222,-15.1373,6.98967,4.79781,2.98074,
2026_06_10_19_19_20.716,3.847,29.8,0,0.758,0,0,0,0, ,0,0,0,0,0, ,987.4,-72.9,48,3.5,0.1,-1.4,25,991.093,-44.0714,-11.9815,6.9446,4.55114,2.79606,
2026_06_10_19_19_20.735,3.847,29.8,0,0.758,0,0,0,0, ,0,0,0,0,0, ,987.7,-65.1,61.1,-10,-5.4,-3.7,25,990.877,-45.5905,-7.92726,6.32336,4.11232,2.47028,
2026_06_10_19_19_20.755,3.847,29.9,0,0.759,0,0,0,0, ,0,0,0,0,0, ,988.1,-114.2,-33.2,-7.1,-8.1,-0.3,25,990.696,-48.2753,-6.59412,5.41702,3.4504,2.19787,
2026_06_10_19_19_20.775,3.847,29.9,0,0.758,0,0,0,0, ,0,0,0,0,0, ,988,-42.3,85.4,0.5,-16.8,-2.3,25,990.534,-50.1019,-4.60182,4.88582,2.48147,1.98472,
2026_06_10_19_19_20.795,3.847,29.8,0,0.758,0,0,0,0, ,0,0,0,0,0, ,990.9,-58.1,31.7,22.7,-25.4,0.8,25,990.468,-50.1079,-0.753505,5.29497,1.04447,1.81807,
2026_06_10_19_19_20.815,3.847,29.8,0,0.758,0,0,0,0, ,0,0,0,0,0, ,989.7,-47.2,33,13.6,-31.3,2.7,25,990.458,-50.2628,1.26374,6.07832,-0.746751,1.81393,
2026_06_10_19_19_20.835,3.847,29.8,0,0.76,0,0,0,0, ,0,0,0,0,0, ,989.1,-77.8,-60.5,4.3,-32.7,4.6,25,990.394,-51.0085,0.34884,6.25331,-2.65125,1.92581,
2026_06_10_19_19_20.855,3.847,29.8,0,0.758,0,0,0,0, ,0,0,0,0,0, ,987.7,-121.2,-132.2,-2.3,-15.5,-1.7,25,990.272,-53.9635,-5.54375,5.93319,-3.95828,1.89682,
2026_06_10_19_19_20.874,3.847,29.9,0,0.759,0,0,0,0, ,0,0,0,0,0, ,987.7,-93.1,-111.9,-2.9,2.7,-6.6,25,990.115,-57.2045,-12.6433,5.4132,-4.10707,1.52834,
2026_06_10_19_19_20.894,3.847,29.8,0,0.758,0,0,0,0, ,0,0,0,0,0, ,992.4,-59.4,-82.3,8.7,14,-7.6,25,990.111,-58.3651,-17.7899,5.26005,-3.34797,1.00255,
2026_06_10_19_19_20.914,3.847,29.8,0,0.759,0,0,0,0, ,0,0,0,0,0, ,992.7,-43.7,-30.1,6.2,20.7,-10.1,25,990.26,-57.9498,-20.1305,5.3935,-2.08669,0.40216,
2026_06_10_19_19_20.934,3.847,29.8,0,0.758,0,0,0,0, ,0,0,0,0,0, ,993.4,-18.5,5.7,14.2,19.2,-5.8,25,990.43,-56.3136,-19.6473,5.6864,-0.743826,-0.1068,
2026_06_10_19_19_20.953,3.847,29.8,0,0.759,0,0,0,0, ,0,0,0,0,0, ,990.6,-63.7,-3.2,14.5,15.7,-2.3,25,990.526,-55.3866,-18.3738,6.21434,0.36486,-0.347089,
2026_06_10_19_19_20.974,3.847,29.7,0,0.758,0,0,0,0, ,0,0,0,0,0, ,991.5,-51.1,10.1,11.7,14.8,-2.2,25,990.558,-55.5093,-17.044,6.63393,1.27192,-0.463047,
2026_06_10_19_19_20.993,3.847,29.8,0,0.76,0,0,0,0, ,0,0,0,0,0, ,990.8,-52.8,7.6,9.4,12.4,0.1,25,990.594,-55.2924,-15.466,6.87257,2.02317,-0.498815,
2026_06_10_19_19_21.013,3.847,29.9,0,0.758,0,0,0,0, ,0,0,0,0,0, ,989.9,-64.4,11.2,4.9,12.9,0.4,25,990.579,-55.4939,-13.9508,6.88947,2.67074,-0.453184,
2026_06_10_19_19_21.033,3.847,29.8,0,0.758,0,0,0,0, ,0,0,0,0,0, ,989.7,-69.2,22.3,3.7,11.2,0.1,25,990.531,-56.1829,-12.0799,6.73168,3.24229,-0.410334,
2026_06_10_19_19_21.053,3.847,29.8,0,0.758,0,0,0,0, ,0,0,0,0,0, ,985.5,-69.5,57.2,0.1,7.4,-0.8,25,990.353,-56.9853,-8.92155,6.43725,3.61143,-0.406657,
2026_06_10_19_19_21.072,3.847,29.9,0,0.758,0,0,0,0, ,0,0,0,0,0, ,983.1,-76.4,90.9,1.3,-3.3,-2.1,25,989.984,-57.9581,-3.86547,6.08763,3.51628,-0.470236,
2026_06_10_19_19_21.093,3.847,29.8,0,0.758,0,0,0,0, ,0,0,0,0,0, ,991.4,-67.5,4.5,-0.7,-7.7,-5.1,25,989.817,-58.8107,-0.723201,5.73495,2.96685,-0.660956,
2026_06_10_19_19_21.112,3.847,29.8,0,0.758,0,0,0,0, ,0,0,0,0,0, ,985.7,-116,-1,-4.3,-5.4,-13.3,25,989.74,-60.818,-0.572491,5.23313,2.38692,-1.1813,
2026_06_10_19_19_21.132,3.847,29.7,0,0.756,0,0,0,0, ,0,0,0,0,0, ,989.2,-71.1,-1.8,-1,-4.4,-12.9,25,989.601,-62.8126,-0.622917,4.75275,1.94287,-1.9076,
2026_06_10_19_19_21.151,3.847,29.8,0,0.758,0,0,0,0, ,0,0,0,0,0, ,989.6,-53.9,9.2,4.7,-3.3,-15.3,25,989.588,-62.7935,-0.359489,4.57587,1.58987,-2.65057,
2026_06_10_19_19_21.171,3.847,29.8,0,0.759,0,0,0,0, ,0,0,0,0,0, ,990.1,-69.8,3.9,3.4,-4.4,-14.8,25,989.604,-62.736,0.0615578,4.54382,1.25838,-3.40616,
2026_06_10_19_19_21.192,3.847,29.8,0,0.76,0,0,0,0, ,0,0,0,0,0, ,990.9,-58.8,-36,-1,1.4,-18.8,25,989.659,-62.8313,-0.92024,4.34006,1.09029,-4.22235,
2026_06_10_19_19_21.215,3.847,29.8,0,0.758,0,0,0,0, ,0,0,0,0,0, ,991.6,-30.2,2.1,1.9,6.6,-19.4,25,989.756,-61.7143,-1.89705,4.10301,1.2676,-5.12896,
2026_06_10_19_19_21.231,3.847,29.7,0,0.756,0,0,0,0, ,0,0,0,0,0, ,991.5,-9,53.4,2.5,3.7,-16.4,25,989.865,-59.1479,-0.0904364,3.98704,1.50418,-5.90719,
2026_06_10_19_19_21.251,3.847,29.8,0,0.758,0,0,0,0, ,0,0,0,0,0, ,993.4,-9.1,6.5,-1.6,0.6,-14.1,25,990.023,-56.0951,1.74015,3.7715,1.54354,-6.47652,
2026_06_10_19_19_21.270,3.847,29.8,0,0.758,0,0,0,0, ,0,0,0,0,0, ,991.6,-20.7,8,-0.6,2.1,-12.7,25,990.174,-53.5848,2.07591,3.47465,1.53174,-6.89842,
2026_06_10_19_19_21.290,3.847,29.8,0,0.758,0,0,0,0, ,0,0,0,0,0, ,994,1.2,20.8,-2.6,1.4,-9.2,25,990.334,-50.9136,2.82691,3.16541,1.54504,-7.14531,
2026_06_10_19_19_21.310,3.847,29.8,0,0.759,0,0,0,0, ,0,0,0,0,0, ,994.1,3.2,2.8,0.3,1.8,-5.1,25,990.56,-47.677,3.37371,2.90244,1.54839,-7.1456,
2026_06_10_19_19_21.330,3.847,29.8,0,0.758,0,0,0,0, ,0,0,0,0,0, ,994.3,-14.4,14.4,4,2.5,-2.8,25,990.782,-45.1129,3.69218,2.85659,1.58505,-6.95087,
2026_06_10_19_19_21.350,3.847,29.7,0,0.759,0,0,0,0, ,0,0,0,0,0, ,991.9,-15.6,10.6,3.4,3.4,-2.1,25,990.923,-43.2779,4.22891,2.90798,1.66823,-6.67659,
2026_06_10_19_19_21.370,3.847,29.9,0,0.759,0,0,0,0, ,0,0,0,0,0, ,992.4,-15.1,26,2.1,3.1,-1.8,25,990.998,-41.5761,5.08637,2.89836,1.76462,-6.38857,
2026_06_10_19_19_21.389,3.847,29.8,0,0.758,0,0,0,0, ,0,0,0,0,0, ,993,-15.1,18,1.6,2.6,-1.7,25,991.102,-39.9627,6.11704,2.83447,1.83076,-6.10591,
2026_06_10_19_19_21.409,3.847,29.8,0,0.76,0,0,0,0, ,0,0,0,0,0, ,993.4,-17.5,11.5,0.7,4.1,-1.8,25,991.23,-38.5207,6.64311,2.73183,1.92334,-5.84047,
2026_06_10_19_19_21.429,3.847,29.8,0,0.76,0,0,0,0, ,0,0,0,0,0, ,992.3,-18.6,20.6,1.7,4.8,-1.8,25,991.328,-37.2733,7.21634,2.63848,2.07731,-5.59425,
2026_06_10_19_19_21.449,3.847,29.7,0,0.758,0,0,0,0, ,0,0,0,0,0, ,989.2,-46.1,34.4,2.5,4.2,-4.9,25,991.293,-36.9733,8.45238,2.60567,2.22494,-5.45749,
2026_06_10_19_19_21.468,3.847,29.8,0,0.758,0,0,0,0, ,0,0,0,0,0, ,989,-40.4,31.7,-1.6,2.4,-6,25,991.159,-37.3558,9.9513,2.47431,2.29045,-5.45704,
2026_06_10_19_19_21.488,3.847,29.8,0,0.758,0,0,0,0, ,0,0,0,0,0, ,991.9,-9.5,46,-2.5,0.2,-9.5,25,991.116,-36.5998,11.7123,2.19861,2.23009,-5.59676,
2026_06_10_19_19_21.508,3.847,29.7,0,0.759,0,0,0,0, ,0,0,0,0,0, ,991,-16.4,26.4,-3.1,-2.3,-8.6,25,991.137,-35.1586,13.2045,1.894,2.03021,-5.80719,
2026_06_10_19_19_21.528,3.847,29.8,0,0.761,0,0,0,0, ,0,0,0,0,0, ,993.2,-13.7,-9,-6.9,2.4,-10.5,25,991.195,-33.9333,12.93,1.4739,1.90954,-6.03527,
2026_06_10_19_19_21.550,3.847,29.7,0,0.759,0,0,0,0, ,0,0,0,0,0, ,991.3,-10.9,25,-2.1,5.4,-12.5,25,991.26,-32.615,12.6296,1.10987,2.03084,-6.36828,
2026_06_10_19_19_21.568,3.847,29.7,0,0.758,0,0,0,0, ,0,0,0,0,0, ,990.2,-2.6,46.2,-0.2,2.7,-12.4,25,991.228,-31.0388,14.0294,0.972155,2.15388,-6.73888,
2026_06_10_19_19_21.588,3.847,29.7,0,0.759,0,0,0,0, ,0,0,0,0,0, ,990.9,6.2,32.5,-0.2,2.6,-11.7,25,991.187,-29.0377,15.5723,0.900726,2.18411,-7.06253,
2026_06_10_19_19_21.607,3.847,29.8,0,0.758,0,0,0,0, ,0,0,0,0,0, ,995.7,27.3,15.8,-0.5,3.1,-10.4,25,991.316,-26.2475,16.095,0.82451,2.22469,-7.30552,
2026_06_10_19_19_21.627,3.847,29.7,0,0.758,0,0,0,0, ,0,0,0,0,0, ,993.6,13,41.5,0.1,4.1,-6.7,25,991.519,-23.4202,16.8601,0.762079,2.3085,-7.38135,
2026_06_10_19_19_21.647,3.847,29.6,0,0.759,0,0,0,0, ,0,0,0,0,0, ,992.3,20.6,42.8,2.2,2.9,-6.2,25,991.606,-20.9693,18.4012,0.785718,2.38111,-7.3246,
2026_06_10_19_19_21.667,3.847,29.7,0,0.759,0,0,0,0, ,0,0,0,0,0, ,991.5,28.4,41.8,0.9,2.3,-4.9,25,991.624,-18.1985,19.8575,0.832292,2.39444,-7.21646,
2026_06_10_19_19_21.687,3.847,29.6,0,0.759,0,0,0,0, ,0,0,0,0,0, ,992.9,13.3,39.5,0.3,0.1,-2.1,25,991.659,-15.819,21.1246,0.818136,2.32166,-6.98999,
2026_06_10_19_19_21.706,3.847,29.7,0,0.76,0,0,0,0, ,0,0,0,0,0, ,992.9,13.1,37.4,0.1,0.7,-2.2,25,991.735,-14.0506,22.1804,0.780469,2.20456,-6.69505,
2026_06_10_19_19_21.726,3.847,29.6,0,0.759,0,0,0,0, ,0,0,0,0,0, ,990.9,18,43.9,-0.5,0,-1.9,25,991.745,-12.2468,23.3058,0.720721,2.09154,-6.41199,
2026_06_10_19_19_21.746,3.847,29.5,0,0.758,0,0,0,0, ,0,0,0,0,0, ,991.4,14.4,37.1,-0.6,-0.6,-1.4,25,991.709,-10.5134,24.3536,0.643287,1.94581,-6.12181,
2026_06_10_19_19_21.766,3.847,29.6,0,0.759,0,0,0,0.001, ,0,0,0,0,0, ,992,12.5,35.7,-0.7,-0.6,-1.2,25,991.708,-9.05309,25.0877,0.564477,1.79067,-5.82798,
2026_06_10_19_19_21.786,3.847,29.6,0,0.759,0,0,0,0, ,0,0,0,0,0, ,991.8,11.1,35.5,-0.7,-0.5,-1.6,25,991.72,-7.78235,25.7283,0.487423,1.64804,-5.55815,
2026_06_10_19_19_21.805,3.847,29.7,0,0.76,0,0,0,0, ,0,0,0,0,0, ,991.2,14.2,36.1,-0.6,-0.3,-1.7,25,991.706,-6.53726,26.342,0.418111,1.52324,-5.32,
2026_06_10_19_19_21.825,3.847,29.7,0,0.759,0,0,0,0, ,0,0,0,0,0, ,992,13,35.6,-0.7,-0.1,-1.5,25,991.7,-5.31014,26.9214,0.353023,1.41823,-5.09331,
2026_06_10_19_19_21.845,3.847,29.7,0,0.76,0,0,0,0, ,0,0,0,0,0, ,991.5,11.9,39.9,-0.6,-0.3,-1.5,25,991.703,-4.22788,27.5813,0.291902,1.31962,-4.87434,
2026_06_10_19_19_21.865,3.847,29.6,0,0.759,0,0,0,0, ,0,0,0,0,0, ,992.3,3.4,29.6,-0.4,-0.8,-1.2,25,991.715,-3.50408,28.0181,0.243645,1.20569,-4.65958,
2026_06_10_19_19_21.884,3.847,29.6,0,0.758,0,0,0,0, ,0,0,0,0,0, ,992.7,10.6,35.2,-0.5,-0.1,-1.9,25,991.763,-2.86398,28.2852,0.201376,1.10479,-4.47009,
2026_06_10_19_19_21.904,3.847,29.7,0,0.758,0,0,0,0, ,0,0,0,0,0, ,991.6,15.2,38.2,-0.3,-0.3,-1.7,25,991.786,-1.90337,28.7979,0.16473,1.02528,-4.30738,
2026_06_10_19_19_21.925,3.847,29.6,0,0.759,0,0,0,0, ,0,0,0,0,0, ,990.9,12,35.7,-0.3,-0.5,-1.5,25,991.754,-0.95863,29.2947,0.13641,0.93843,-4.1424,
2026_06_10_19_19_21.944,3.847,29.5,0,0.759,0,0,0,0, ,0,0,0,0,0, ,992,11.4,34.7,-0.6,-0.3,-1.7,25,991.735,-0.187245,29.6546,0.100676,0.856869,-3.98747,
2026_06_10_19_19_21.964,3.847,29.5,0,0.758,0,0,0,0.001, ,0,0,0,0,0, ,992.4,14.5,36.6,-0.6,-0.1,-1.9,25,991.764,0.613306,30.0199,0.0579784,0.792466,-3.85417,
2026_06_10_19_19_21.984,3.847,29.5,0,0.758,0,0,0,0.001, ,0,0,0,0,0, ,990.7,13.1,35.6,-0.6,0,-1.8,25,991.751,1.41687,30.3904,0.0178829,0.741128,-3.73204,
2026_06_10_19_19_22.004,3.847,29.7,0,0.759,0,0,0,0.001, ,0,0,0,0,0, ,993.1,14.2,38.2,-0.6,-0.2,-1.9,25,991.76,2.16233,30.7871,-0.0197694,0.689872,-3.61736,
2026_06_10_19_19_22.023,3.847,29.7,0,0.758,0,0,0,0, ,0,0,0,0,0, ,991.5,15,35.4,-0.8,-0.5,-1.4,25,991.793,2.92025,31.1535,-0.0612209,0.626505,-3.49747,
2026_06_10_19_19_22.046,3.847,29.6,0,0.759,0,0,0,0, ,0,0,0,0,0, ,991.5,12.8,32.4,-1.2,-0.2,-1.1,25,991.775,3.58933,31.3209,-0.118428,0.566999,-3.36051,
2026_06_10_19_19_22.063,3.847,29.7,0,0.759,0,0,0,0.001, ,0,0,0,0,0, ,991.3,13.4,32.7,-2.2,0.1,-1.3,25,991.752,4.16888,31.3958,-0.214805,0.529401,-3.22886,
2026_06_10_19_19_22.082,3.847,29.5,0,0.759,0,0,0,0, ,0,0,0,0,0, ,990.6,18.6,50.1,-25,0,-3.2,25,991.703,4.88984,32.0054,-1.03047,0.500187,-3.16921,
2026_06_10_19_19_22.103,3.847,29.7,0,0.759,0,0,0,0.002, ,0,0,0,0,0, ,989.6,9,47.7,-17.9,-1.5,-1.3,25,991.605,5.4328,33.0349,-2.27478,0.424004,-3.11319,
2026_06_10_19_19_22.123,3.847,29.7,0,0.759,0,0,0,0, ,0,0,0,0,0, ,991.8,19.4,38.3,-14.3,-1.9,-0.2,25,991.55,5.96705,33.6422,-3.11725,0.294573,-2.96919,
2026_06_10_19_19_22.142,3.847,29.7,0,0.758,0,0,0,0, ,0,0,0,0,0, ,994.2,8.5,37.8,-18.5,-0.4,-1.7,25,991.639,6.45352,33.9108,-3.92667,0.206544,-2.84614,
2026_06_10_19_19_22.162,3.847,29.7,0,0.758,0,0,0,0, ,0,0,0,0,0, ,1012.9,0.9,36.2,-10.7,8.8,-5.5,25,992.364,6.34666,34.099,-4.57708,0.449895,-2.89208,
2026_06_10_19_19_22.182,3.847,29.7,0,0.758,0,0,0,0, ,0,0,0,0,0, ,1003.4,40.5,51.1,-1.2,23.5,-5.6,25,993.326,7.22132,34.681,-4.66074,1.40662,-3.05405,
2026_06_10_19_19_22.204,3.847,29.7,0,0.759,0,0,0,0, ,0,0,0,0,0, ,993.8,43.4,81.1,1.1,27.7,-14,25,993.648,9.3376,36.5956,-4.37977,2.8809,-3.46513,
2026_06_10_19_19_22.221,3.847,29.5,0,0.758,0,0,0,0, ,0,0,0,0,0, ,964.4,36.1,92.7,-6.5,14.9,-25.8,25,992.761,11.1909,39.661,-4.27741,4.00332,-4.46663,
2026_06_10_19_19_22.241,3.847,29.6,0,0.759,0,0,0,0.002, ,0,0,0,0,0, ,1047.6,44.3,44.3,-17.5,-0.2,-15.4,25,993.568,12.9586,41.4184,-4.74801,4.20726,-5.44976,
2026_06_10_19_19_22.261,3.847,29.6,0,0.758,0,0,0,0.001, ,0,0,0,0,0, ,1027,37.5,25.3,-8.6,6.2,-11.2,25,996.233,14.6613,41.0151,-5.25391,4.13369,-5.92813,
2026_06_10_19_19_22.281,3.847,29.6,0,0.759,0,0,0,0.001, ,0,0,0,0,0, ,976.3,68.9,48.2,3.3,18.3,-17,25,996.563,17.0097,40.7552,-5.09523,4.62828,-6.4261,
2026_06_10_19_19_22.301,3.847,29.7,0,0.759,0,0,0,0.001, ,0,0,0,0,0, ,982.9,59,72.7,-3.4,12.7,-19.9,25,995.529,19.8702,41.9554,-4.78779,5.29077,-7.15881,
2026_06_10_19_19_22.321,3.847,29.5,0,0.76,0,0,0,0, ,0,0,0,0,0, ,997,56.1,70.3,-9.5,0.4,-19,25,995.189,22.1663,43.7557,-4.88908,5.36751,-7.9078,
2026_06_10_19_19_22.341,3.847,29.7,0,0.759,0,0,0,0.002, ,0,0,0,0,0, ,999.1,61.7,68.1,-11.6,-3.3,-27.2,25,995.364,24.4047,45.3062,-5.23404,4.95206,-8.83358,
2026_06_10_19_19_22.365,3.847,29.5,0,0.758,0,0,0,0, ,0,0,0,0,0, ,1030.5,76.9,69.5,-12.4,1.6,-32.9,25,996.548,27.1405,46.7379,-5.64634,4.5985,-10.1265,
2026_06_10_19_19_22.380,3.847,29.5,0,0.758,0,0,0,0.002, ,0,0,0,0,0, ,1078.6,73.1,21.9,-7.8,3.6,-15.6,25,1000.08,30.057,46.6746,-5.91774,4.47672,-10.9871,
2026_06_10_19_19_22.400,3.847,29.6,0,0.759,0,0,0,0.002, ,0,0,0,0,0, ,1075.6,70.4,22.3,-3.5,4,-8.9,25,1004.78,32.5976,45.1771,-5.90142,4.43548,-11.0641,
2026_06_10_19_19_22.420,3.847,29.6,0,0.759,0,0,0,0.001, ,0,0,0,0,0, ,1021.1,81.2,67.6,-6.9,-4,-6,25,1007.43,35.2303,45.1633,-5.85868,4.16519,-10.8438,
2026_06_10_19_19_22.439,3.847,29.5,0,0.759,0,0,0,0.001, ,0,0,0,0,0, ,974.8,77,78.4,9.6,-0.8,-14.4,25,1006.85,37.9036,46.8596,-5.4194,3.76513,-10.8046,
2026_06_10_19_19_22.460,3.847,29.6,0,0.759,0,0,0,0.002, ,0,0,0,0,0, ,932,93.9,82.2,13.5,-0.7,-27.3,25,1003.6,40.801,48.8974,-4.38533,3.48999,-11.4167,
2026_06_10_19_19_22.479,3.847,29.6,0,0.758,0,0,0,0.002, ,0,0,0,0,0, ,934.8,101.3,76.7,3.5,-15.9,-32.6,25,999.318,44.2621,50.7592,-3.60013,2.77153,-12.5461,
2026_06_10_19_19_22.499,3.847,29.6,0,0.758,0,0,0,0.002, ,0,0,0,0,0, ,969.3,103.1,75.5,8.9,-33.6,-38.5,25,996.438,47.7927,52.3034,-3.00293,1.09444,-13.9479,
2026_06_10_19_19_22.519,3.847,29.5,0,0.759,0,0,0,0.002, ,0,0,0,0,0, ,1012.5,104,58.7,10.3,-39,-36.3,25,996.101,51.1904,53.205,-2.23494,-1.18428,-15.377,
2026_06_10_19_19_22.539,3.847,29.7,0,0.758,0,0,0,0.002, ,0,0,0,0,0, ,1042.7,102.7,62,9.8,-29.9,-33.3,25,998.02,54.3689,53.6404,-1.48633,-3.21141,-16.5606,
2026_06_10_19_19_22.559,3.847,29.7,0,0.758,0,0,0,0.001, ,0,0,0,0,0, ,1002.3,130.4,67.5,10.1,-15.7,-35,25,999.512,58.1581,54.3174,-0.789427,-4.40509,-17.6325,
2026_06_10_19_19_22.578,3.847,29.5,0,0.758,0,0,0,0.001, ,0,0,0,0,0, ,985.8,165.7,33.4,11.5,-22.3,-40.4,25,999.179,63.6359,54.0818,-0.0831968,-5.29447,-18.8553,
2026_06_10_19_19_22.598,3.847,29.6,0,0.758,0,0,0,0.003, ,0,0,0,0,0, ,949.3,183.5,12.5,14.6,-30.5,-44.1,25,997.252,70.3977,52.1847,0.717107,-6.58059,-20.2809,
2026_06_10_19_19_22.617,3.847,29.5,0,0.759,0,0,0,0.002, ,0,0,0,0,0, ,918,191.6,49.3,8.3,-19.8,-51.3,25,993.376,77.5367,50.8876,1.37114,-7.71216,-21.9518,
2026_06_10_19_19_22.638,3.847,29.6,0,0.757,0,0,0,0.003, ,0,0,0,0,0, ,898.9,207.3,42.7,1.4,12.3,-58.6,25,988.201,84.9658,50.5898,1.58314,-7.47072,-23.9626,
2026_06_10_19_19_22.657,3.847,29.6,0,0.758,0,0,0,0.002, ,0,0,0,0,0, ,916.8,210.2,35.7,4,34.4,-67.7,25,983.304,92.5089,49.8957,1.65119,-5.59258,-26.3506,
2026_06_10_19_19_22.677,3.847,29.6,0,0.758,0,0,0,0.002, ,0,0,0,0,0, ,958.2,253.9,-11.2,4.3,17.4,-69.5,25,980.513,101.012,47.6017,1.80347,-3.6735,-28.9252,
2026_06_10_19_19_22.697,3.847,29.6,0,0.759,0,0,0,0.002, ,0,0,0,0,0, ,1026.1,262.8,-43.3,6.7,-10,-61.6,25,981.222,110.6,43.0404,2.02872,-3.22418,-31.157,
2026_06_10_19_19_22.717,3.847,29.5,0,0.76,0,0,0,0.002, ,0,0,0,0,0, ,1009,283.8,-26.1,21.2,-10.9,-58.7,25,983.436,120.514,38.3031,2.75518,-3.6645,-32.9238,
2026_06_10_19_19_22.737,3.847,29.6,0,0.758,0,0,0,0.003, ,0,0,0,0,0, ,867.3,311.6,54.8,30.2,8.7,-66.9,25,980.676,131.312,36.8435,4.15338,-3.50823,-34.7443,
2026_06_10_19_19_22.757,3.847,29.5,0,0.76,0,0,0,0.002, ,0,0,0,0,0, ,824.9,369.2,10,-1,6.4,-67.2,25,972.476,144.053,36.5727,4.78997,-2.83437,-36.713,
2026_06_10_19_19_22.776,3.847,29.5,0,0.758,0,0,0,0.003, ,0,0,0,0,0, ,874.3,335.9,-38.6,0.4,3.5,-81.8,25,964.988,156.758,33.4726,4.4798,-2.36001,-39.0156,
2026_06_10_19_19_22.796,3.847,29.5,0,0.758,0,0,0,0.003, ,0,0,0,0,0, ,986.3,359.2,-36.3,8.9,-4.5,-66.5,25,962.874,168.385,29.1508,4.49017,-2.24666,-41.1566,
2026_06_10_19_19_22.816,3.847,29.5,0,0.758,0,0,0,0.003, ,0,0,0,0,0, ,946.8,445.8,-36.3,6.4,-12.8,-41.4,25,963.098,182.651,25.1624,4.68272,-2.63687,-41.9362,
2026_06_10_19_19_22.835,3.847,29.6,0,0.76,0,0,0,0.003, ,0,0,0,0,0, ,889.1,416.8,50.6,8.6,8.1,-38.5,25,960.347,197.803,24.0648,4.8544,-2.61938,-41.8152,
2026_06_10_19_19_22.855,3.847,29.6,0,0.758,0,0,0,0.002, ,0,0,0,0,0, ,816.5,428.5,55.5,4.5,32.1,-39.4,25,953.793,211.505,25.831,4.95772,-1.23492,-41.6406,
2026_06_10_19_19_22.876,3.847,29.5,0,0.758,0,0,0,0.002, ,0,0,0,0,0, ,794.6,412.7,51.6,5,41.3,-45.3,25,944.76,224.246,27.5202,4.94507,1.07674,-41.6838,
2026_06_10_19_19_22.895,3.847,29.6,0,0.756,0,0,0,0.003, ,0,0,0,0,0, ,845.5,415.7,18.6,0,20.1,-39.6,25,937.16,235.822,27.9821,4.79607,2.8819,-41.7305,
2026_06_10_19_19_22.915,3.847,29.6,0,0.758,0,0,0,0.002, ,0,0,0,0,0, ,850.9,434,5.2,-1.7,4.7,-34.3,25,931.739,247.341,27.0021,4.45201,3.46191,-41.4392,
2026_06_10_19_19_22.935,3.847,29.5,0,0.758,0,0,0,0.002, ,0,0,0,0,0, ,816.4,451.1,46.5,-10.7,-10.6,-33.1,25,925.762,259.236,26.9319,3.80291,3.07119,-40.9676,
2026_06_10_19_19_22.954,3.847,29.5,0,0.758,0,0,0,0.003, ,0,0,0,0,0, ,779.1,480.8,71.2,-20.9,-10.2,-36.4,25,917.961,271.833,28.8769,2.60835,2.25029,-40.5887,
2026_06_10_19_19_22.974,3.847,29.5,0,0.759,0,0,0,0.003, ,0,0,0,0,0, ,892.4,514.1,73.9,3,16.2,-53.8,25,912.951,285.581,31.5382,1.90402,2.29597,-40.8636,
2026_06_10_19_19_22.995,3.847,29.5,0,0.758,0,0,0,0.003, ,0,0,0,0,0, ,808.1,469.1,162.5,-1.4,5.4,-51.8,25,909.131,298.136,36.8192,1.83674,2.81419,-41.591,
2026_06_10_19_19_23.014,3.847,29.5,0,0.756,0,0,0,0.003, ,0,0,0,0,0, ,840.2,501,55.4,-1.1,13.9,-46.7,25,903.952,309.526,41.2146,1.64864,3.23074,-42.0577,
2026_06_10_19_19_23.034,3.847,29.5,0,0.758,0,0,0,0.004, ,0,0,0,0,0, ,803.2,540.6,48.8,8.4,21,-52.5,25,898.94,322.4,41.878,1.7706,4.09723,-42.5173,
2026_06_10_19_19_23.054,3.847,29.5,0,0.759,0,0,0,0.004, ,0,0,0,0,0, ,812.8,559.9,87.5,9.8,18.9,-56.8,25,893.398,336.285,43.4789,2.21724,5.06326,-43.2566,
2026_06_10_19_19_23.073,3.847,29.6,0,0.758,0,0,0,0.004, ,0,0,0,0,0, ,858.8,550.4,75.6,7.4,6,-52.2,25,889.888,349.622,45.7989,2.60619,5.51339,-43.9418,
2026_06_10_19_19_23.094,3.847,29.6,0,0.756,0,0,0,0.003, ,0,0,0,0,0, ,846.3,558.3,66,6.2,22.4,-54.3,25,887.613,362.098,47.3224,2.86175,6.04273,-44.509,
2026_06_10_19_19_23.113,3.847,29.5,0,0.758,0,0,0,0.003, ,0,0,0,0,0, ,848.3,593.7,64.3,5.2,15.7,-50.1,25,885.156,375.132,48.4087,3.0347,6.83536,-44.9777,
2026_06_10_19_19_23.133,3.847,29.5,0,0.758,0,0,0,0.004, ,0,0,0,0,0, ,791.5,591.9,85.3,5.3,18.3,-52.6,25,881.18,388.396,50.017,3.1697,7.45477,-45.366,
2026_06_10_19_19_23.153,3.847,29.5,0,0.76,0,0,0,0.004, ,0,0,0,0,0, ,777.3,622.4,112.7,0.7,6.9,-50.7,25,875.282,401.727,53.0019,3.15936,7.7683,-45.7489,
2026_06_10_19_19_23.172,3.847,29.5,0,0.759,0,0,0,0.004, ,0,0,0,0,0, ,746.9,631.9,97.7,0.4,4.1,-49.1,25,868.385,415.463,56.1827,3.00035,7.63008,-46.0019,
2026_06_10_19_19_23.192,3.847,29.6,0,0.758,0,0,0,0.004, ,0,0,0,0,0, ,731.2,625.2,92.5,6.1,4.6,-50.5,25,860.504,428.448,58.5542,3.01556,7.4302,-46.2333,
2026_06_10_19_19_23.212,3.847,29.5,0,0.758,0,0,0,0.003, ,0,0,0,0,0, ,694.5,668.7,99.3,28.1,3.7,-60.4,25,851.506,441.763,60.83,3.87383,7.23031,-46.795,
2026_06_10_19_19_23.232,3.847,29.5,0,0.758,0,0,0,0.004, ,0,0,0,0,0, ,711.4,736.4,71.5,38.3,20.6,-77.7,25,842.454,457.655,62.3272,5.66089,7.53011,-48.1511,
2026_06_10_19_19_23.252,3.847,29.6,0,0.758,0,0,0,0.004, ,0,0,0,0,0, ,775.6,698.2,113.8,-2.8,5.2,-59.8,25,836.424,473.477,64.175,6.39757,7.85733,-49.4064,
2026_06_10_19_19_23.272,3.847,29.5,0,0.758,0,0,0,0.003, ,0,0,0,0,0, ,850,700.8,95,-17.6,-33.2,-45.8,25,834.984,487.25,66.6262,5.38616,6.5254,-49.6132,
2026_06_10_19_19_23.291,3.847,29.5,0,0.759,0,0,0,0.004, ,0,0,0,0,0, ,798.8,756.8,-7.5,10.3,-20.3,-43.3,25,834.339,501.97,65.2322,4.83552,4.49768,-49.3046,
2026_06_10_19_19_23.311,3.847,29.5,0,0.758,0,0,0,0.004, ,0,0,0,0,0, ,673.8,755,55.2,6.8,-0.1,-42,25,828.365,517.444,62.7105,5.06187,3.60204,-48.8991,
2026_06_10_19_19_23.330,3.847,29.5,0,0.758,0,0,0,0.004, ,0,0,0,0,0, ,642.5,767.4,88.7,5.3,5.8,-47.6,25,817.992,532.298,63.2735,5.12208,3.55622,-48.6493,
2026_06_10_19_19_23.351,3.847,29.5,0,0.759,0,0,0,0.004, ,0,0,0,0,0, ,666.9,760.8,37.7,-11.8,1.5,-42.1,25,808.042,546.423,63.269,4.61191,3.56193,-48.4178,
2026_06_10_19_19_23.371,3.847,29.6,0,0.758,0,0,0,0.004, ,0,0,0,0,0, ,637.9,741.5,20.7,-9.6,2.8,-35,25,798.557,558.899,61.1929,3.67884,3.47589,-47.8165,
2026_06_10_19_19_23.391,3.847,29.5,0,0.758,0,0,0,0.004, ,0,0,0,0,0, ,605.9,772.5,47.6,-8.4,-6.3,-34.8,25,787.792,570.97,59.545,2.90622,3.15744,-47.0294,
2026_06_10_19_19_23.411,3.847,29.5,0,0.758,0,0,0,0.004, ,0,0,0,0,0, ,571.8,795.7,26.4,-2.7,-7.4,-44,25,775.669,583.958,58.1712,2.39092,2.54761,-46.5645,
2026_06_10_19_19_23.430,3.847,29.5,0,0.76,0,0,0,0.004, ,0,0,0,0,0, ,468.6,771.7,68.3,1.1,14.3,-57.4,25,760.102,596.13,57.5118,2.19648,2.6026,-46.8165,
2026_06_10_19_19_23.450,3.847,29.5,0,0.76,0,0,0,0.005, ,0,0,0,0,0, ,619.8,815.9,52.2,-13.1,29.8,-45.6,25,746.945,608.175,57.6786,1.697,3.78768,-47.1019,
2026_06_10_19_19_23.470,3.847,29.4,0,0.758,0,0,0,0.005, ,0,0,0,0,0, ,625.2,794,34.4,-7.4,-10.2,-47.2,25,739.362,620.166,56.8024,0.968983,4.15405,-47.0591,
2026_06_10_19_19_23.490,3.847,29.5,0,0.758,0,0,0,0.005, ,0,0,0,0,0, ,595.4,794.6,26.6,2.8,-5.9,-50.3,25,731.497,630.778,55.1996,0.769779,3.41037,-47.1622,
2026_06_10_19_19_23.510,3.847,29.4,0,0.758,0,0,0,0.005, ,0,0,0,0,0, ,591.6,825.5,50.1,6.4,9.4,-47.4,25,723.088,641.702,54.1728,1.00318,3.30919,-47.265,
2026_06_10_19_19_23.529,3.847,29.5,0,0.758,0,0,0,0.006, ,0,0,0,0,0, ,572.3,824.8,70.6,2.9,7.9,-41.7,25,714.487,652.881,54.5493,1.22541,3.63464,-47.0996,
2026_06_10_19_19_23.549,3.847,29.5,0,0.758,0,0,0,0.005, ,0,0,0,0,0, ,524.2,830.9,79.3,-0.7,-1.2,-38.2,25,704.357,663.543,55.7924,1.21777,3.6173,-46.6639,
2026_06_10_19_19_23.568,3.847,29.5,0,0.759,0,0,0,0.005, ,0,0,0,0,0, ,520.5,840.3,45,2.9,0.7,-39.3,25,693.266,674.028,56.1798,1.21059,3.38163,-46.1816,
2026_06_10_19_19_23.589,3.847,29.5,0,0.758,0,0,0,0.005, ,0,0,0,0,0, ,466.3,851.3,91.6,7.7,10.8,-42.8,25,681.087,684.495,56.9184,1.45979,3.52596,-45.8689,
2026_06_10_19_19_23.609,3.847,29.4,0,0.758,0,0,0,0.005, ,0,0,0,0,0, ,427.7,858.3,111,5.6,7.8,-47.9,25,666.822,694.873,59.6229,1.77607,3.87781,-45.8373,
2026_06_10_19_19_23.628,3.847,29.5,0,0.758,0,0,0,0.006, ,0,0,0,0,0, ,436.4,857.6,91,4.5,5.4,-54.2,25,652.516,704.811,62.1443,1.97557,4.0437,-46.1549,
2026_06_10_19_19_23.650,3.847,29.5,0,0.758,0,0,0,0.005, ,0,0,0,0,0, ,456.6,872.4,101.6,4,1.4,-57.8,25,639.962,714.572,64.2257,2.11417,4.00447,-46.7549,
2026_06_10_19_19_23.668,3.847,29.5,0,0.758,0,0,0,0.005, ,0,0,0,0,0, ,457.2,889.2,89.3,2.1,-3.2,-58.7,25,628.806,724.702,66.1284,2.1712,3.7056,-47.4554,
2026_06_10_19_19_23.688,3.847,29.4,0,0.758,0,0,0,0.005, ,0,0,0,0,0, ,464.3,918.5,48.4,2.4,-6.2,-57.3,25,618.565,735.618,66.2943,2.176,3.19339,-48.0979,
2026_06_10_19_19_23.708,3.847,29.5,0,0.757,0,0,0,0.006, ,0,0,0,0,0, ,493.8,920.4,56.6,2.7,-3.8,-49.5,25,610.064,746.821,65.4537,2.19879,2.6941,-48.421,
2026_06_10_19_19_23.728,3.847,29.5,0,0.758,0,0,0,0.005, ,0,0,0,0,0, ,507.9,927.2,44.7,5,8.9,-39.7,25,603.408,757.605,64.5516,2.29941,2.68532,-48.1882,
2026_06_10_19_19_23.747,3.847,29.4,0,0.76,0,0,0,0.005, ,0,0,0,0,0, ,456.9,920.1,57.7,11.1,30.3,-32.3,25,596.034,767.724,63.738,2.64984,3.71606,-47.4455,
2026_06_10_19_19_23.767,3.847,29.4,0,0.758,0,0,0,0.006, ,0,0,0,0,0, ,407.3,938.4,64.6,10,31.5,-28.4,25,586.045,777.567,63.5803,3.13125,5.37258,-46.4037,
2026_06_10_19_19_23.787,3.847,29.4,0,0.759,0,0,0,0.006, ,0,0,0,0,0, ,391.6,926.2,77.3,3,14.9,-21.6,25,574.674,786.996,64.0294,3.33654,6.45894,-45.0994,
2026_06_10_19_19_23.807,3.847,29.4,0,0.756,0,0,0,0.006, ,0,0,0,0,0, ,358.5,906.8,50,-4.2,5,-17.4,25,562.51,794.887,64.0062,3.09665,6.67168,-43.5395,
2026_06_10_19_19_23.826,3.847,29.4,0,0.76,0,0,0,0.006, ,0,0,0,0,0, ,322.7,886.3,59.8,-5.5,1.3,-21.2,25,548.987,801.082,63.4513,2.61241,6.45707,-42.0624,
2026_06_10_19_19_23.846,3.847,29.5,0,0.759,0,0,0,0.006, ,0,0,0,0,0, ,305.4,912.2,52.2,-2.7,-0.7,-23.7,25,534.67,807.065,62.9973,2.20337,6.08188,-40.8672,
2026_06_10_19_19_23.866,3.847,29.4,0,0.757,0,0,0,0.006, ,0,0,0,0,0, ,288.5,945.3,55.5,-2.5,-2.8,-30.7,25,520.184,814.48,62.4399,1.91066,5.60462,-40.0344,
2026_06_10_19_19_23.886,3.847,29.6,0,0.759,0,0,0,0.007, ,0,0,0,0,0, ,260.8,939.5,55.6,9.8,9.4,-44.3,25,505.222,822.275,62.02,2.01665,5.46418,-39.8799,
2026_06_10_19_19_23.905,3.847,29.5,0,0.759,0,0,0,0.005, ,0,0,0,0,0, ,283.6,921.2,101.4,-3.4,6.1,-43.8,25,491.022,828.861,63.0243,2.08876,5.60348,-40.1341,
2026_06_10_19_19_23.926,3.847,29.4,0,0.758,0,0,0,0.006, ,0,0,0,0,0, ,309.6,920.1,121.4,-10.1,3,-40.9,25,479.175,834.454,65.9722,1.55015,5.53928,-40.2691,
2026_06_10_19_19_23.946,3.847,29.4,0,0.759,0,0,0,0.007, ,0,0,0,0,0, ,317.9,941.8,121.8,-7.4,1,-33.2,25,469.094,840.334,69.362,0.922486,5.32361,-40.0729,
2026_06_10_19_19_23.965,3.847,29.4,0,0.758,0,0,0,0.007, ,0,0,0,0,0, ,306.7,955,104.4,-19.5,3.6,-34.1,25,459.539,846.92,72.0273,0.0466632,5.13935,-39.6815,
2026_06_10_19_19_23.984,3.847,29.5,0,0.758,0,0,0,0.007, ,0,0,0,0,0, ,308.1,953.6,80,-15.2,5.5,-27.9,25,450.268,853.463,73.2565,-1.01345,5.10344,-39.1525,
2026_06_10_19_19_24.004,3.847,29.5,0,0.759,0,0,0,0.006, ,0,0,0,0,0, ,315.3,948.3,86.7,-18.5,0.9,-25.1,25,441.824,859.404,73.8716,-1.97849,4.98745,-38.3815,
2026_06_10_19_19_24.024,3.847,29.5,0,0.759,0,0,0,0.006, ,0,0,0,0,0, ,275.2,965.5,86.1,-15.3,-0.9,-26,25,432.893,865.345,74.6351,-2.88777,4.68353,-37.5996,
2026_06_10_19_19_24.045,3.847,29.4,0,0.758,0,0,0,0.006, ,0,0,0,0,0, ,243.7,952.5,101.8,-8.2,1.6,-26.9,25,422.323,871.052,75.8121,-3.42781,4.41945,-36.9201,
2026_06_10_19_19_24.064,3.847,29.5,0,0.758,0,0,0,0.007, ,0,0,0,0,0, ,237.9,923.7,126.8,-10.8,0.4,-25.8,25,411.262,875.138,78.1574,-3.79783,4.21108,-36.276,
2026_06_10_19_19_24.084,3.847,29.5,0,0.759,0,0,0,0.006, ,0,0,0,0,0, ,235.1,950.4,109.8,-15.8,-3.2,-25.3,25,400.612,878.911,80.6036,-4.37687,3.86915,-35.6224,
2026_06_10_19_19_24.104,3.847,29.4,0,0.76,0,0,0,0.006, ,0,0,0,0,0, ,205.3,975,119.8,-11.4,1.5,-30.5,25,389.618,884.016,82.6874,-4.9389,3.58158,-35.1518,
2026_06_10_19_19_24.124,3.847,29.4,0,0.759,0,0,0,0.007, ,0,0,0,0,0, ,196.4,965.4,139,-1.1,5.8,-38.8,25,378.115,889.268,85.534,-5.0188,3.58575,-35.1212,
2026_06_10_19_19_24.147,3.847,29.5,0,0.759,0,0,0,0.007, ,0,0,0,0,0, ,206.1,958,122.9,-8.8,-0.9,-38.9,25,367.338,893.682,88.3015,-5.01461,3.51654,-35.3485,
2026_06_10_19_19_24.164,3.847,29.4,0,0.759,0,0,0,0.006, ,0,0,0,0,0, ,223.7,961.5,109.7,-16.8,-7.1,-37.2,25,358.048,897.708,90.0077,-5.48903,3.0585,-35.5131,
2026_06_10_19_19_24.183,3.847,29.4,0,0.759,0,0,0,0.007, ,0,0,0,0,0, ,192.7,989.9,98.3,4.6,-2.1,-43.2,25,348.917,902.461,90.8603,-5.52626,2.59181,-35.7987,
2026_06_10_19_19_24.203,3.847,29.4,0,0.759,0,0,0,0.007, ,0,0,0,0,0, ,167.9,1004.7,93.3,15.8,1.6,-38.5,25,338.642,908.24,91.1614,-4.56794,2.41864,-36.1065,
2026_06_10_19_19_24.223,3.847,29.5,0,0.759,0,0,0,0.007, ,0,0,0,0,0, ,146.3,973.3,127.1,13.7,4.7,-37.6,25,327.579,913.161,92.3215,-3.39075,2.46321,-36.2249,
2026_06_10_19_19_24.243,3.847,29.5,0,0.759,0,0,0,0.007, ,0,0,0,0,0, ,100.5,959.9,127.5,15,8.9,-45.7,25,315.137,916.418,94.453,-2.30968,2.72748,-36.5555,
2026_06_10_19_19_24.263,3.847,29.5,0,0.758,0,0,0,0.007, ,0,0,0,0,0, ,94.8,978.8,129,16.4,1.7,-49.5,25,301.884,919.643,96.5125,-1.21221,2.88424,-37.2286,
2026_06_10_19_19_24.282,3.847,29.5,0,0.758,0,0,0,0.007, ,0,0,0,0,0, ,138.4,995.9,69,8,-2.9,-41.7,25,290.593,923.769,96.6641,-0.394906,2.67192,-37.7387,
2026_06_10_19_19_24.302,3.847,29.5,0,0.759,0,0,0,0.007, ,0,0,0,0,0, ,139.1,975.4,60,-2.9,4.9,-30,25,281.34,927.54,94.7041,-0.215451,2.57004,-37.6236,
2026_06_10_19_19_24.322,3.847,29.6,0,0.759,0,0,0,0.007, ,0,0,0,0,0, ,106.6,987.4,67.1,6.8,7.4,-30.2,25,271.682,930.822,92.8057,-0.0834939,2.78819,-37.1651,
2026_06_10_19_19_24.342,3.847,29.4,0,0.758,0,0,0,0.006, ,0,0,0,0,0, ,69.2,1022.3,43.4,28.8,14.4,-31.9,25,260.483,935.333,90.5171,1.00628,3.28251,-36.7925,
2026_06_10_19_19_24.361,3.847,29.5,0,0.758,0,0,0,0.008, ,0,0,0,0,0, ,55.1,1005.4,80.2,15.3,14.1,-27.3,25,248.397,940.118,88.7672,2.28863,3.95084,-36.3542,
2026_06_10_19_19_24.381,3.847,29.5,0,0.758,0,0,0,0.007, ,0,0,0,0,0, ,68.2,1013.5,84.4,10.4,2.2,-26.4,25,237.017,944.343,88.3731,2.93222,4.20672,-35.775,
2026_06_10_19_19_24.401,3.847,29.5,0,0.759,0,0,0,0.007, ,0,0,0,0,0, ,81.1,1005.7,76.9,8.6,3.2,-21.8,25,227.123,948.319,87.9024,3.33244,4.11491,-35.0636,
2026_06_10_19_19_24.421,3.847,29.4,0,0.76,0,0,0,0.007, ,0,0,0,0,0, ,64.4,989,87.6,5.3,3.7,-20,25,217.716,951.307,87.558,3.55289,4.07439,-34.2005,
2026_06_10_19_19_24.441,3.847,29.5,0,0.758,0,0,0,0.008, ,0,0,0,0,0, ,50.2,999.8,62.2,3.2,-2.2,-18,25,207.941,953.933,86.7866,3.59537,3.87181,-33.2742,
2026_06_10_19_19_24.460,3.847,29.4,0,0.759,0,0,0,0.007, ,0,0,0,0,0, ,49.9,1031.9,59,3.7,-1.6,-14.1,25,198.319,957.706,85.1909,3.58651,3.52009,-32.2246,
2026_06_10_19_19_24.481,3.847,29.5,0,0.758,0,0,0,0.008, ,0,0,0,0,0, ,24.2,1005.8,89.4,2.1,-0.3,-10.7,25,188.492,961.432,84.5211,3.54467,3.24769,-31.0166,
2026_06_10_19_19_24.500,3.847,29.5,0,0.759,0,0,0,0.007, ,0,0,0,0,0, ,14.4,988.5,65.1,2.2,0.8,-11.7,25,178.182,963.609,84.0781,3.45969,3.06502,-29.809,
2026_06_10_19_19_24.520,3.847,29.5,0,0.758,0,0,0,0.007, ,0,0,0,0,0, ,25.3,989.5,47.7,4.8,0.7,-13,25,168.533,965.156,82.3914,3.46214,2.92395,-28.7451,
2026_06_10_19_19_24.539,3.847,29.5,0,0.758,0,0,0,0.007, ,0,0,0,0,0, ,10.7,996.8,66.1,4.8,1.5,-13.4,25,159.36,966.862,80.838,3.54367,2.8128,-27.7978,
2026_06_10_19_19_24.560,3.847,29.5,0,0.758,0,0,0,0.008, ,0,0,0,0,0, ,15,1019.7,68.8,3.3,-0.1,-12.4,25,150.432,969.384,80.0222,3.57452,2.68405,-26.89,
2026_06_10_19_19_24.579,3.847,29.5,0,0.758,0,0,0,0.008, ,0,0,0,0,0, ,17.8,1014,62,3.1,-0.2,-10.5,25,142.265,972.276,79.1312,3.5517,2.51135,-25.9491,
2026_06_10_19_19_24.599,3.847,29.6,0,0.76,0,0,0,0.008, ,0,0,0,0,0, ,-1.7,998.5,52.9,2.7,0.5,-8.8,25,134.086,974.347,77.81,3.51199,2.36746,-24.9559,
2026_06_10_19_19_24.619,3.847,29.6,0,0.758,0,0,0,0.007, ,0,0,0,0,0, ,5,995.6,44,2.7,-0.5,-8.6,25,126.016,975.73,76.0208,3.46251,2.22319,-23.9653,
2026_06_10_19_19_24.640,3.847,29.4,0,0.758,0,0,0,0.007, ,0,0,0,0,0, ,-3.2,1008.3,52.9,3,2,-7.7,25,118.391,977.328,74.3408,3.42518,2.13342,-23.0015,
2026_06_10_19_19_24.658,3.847,29.4,0,0.759,0,0,0,0.009, ,0,0,0,0,0, ,-7.5,1013.7,78,1.2,1,-6.2,25,110.851,979.38,73.799,3.34443,2.09482,-22.0234,
2026_06_10_19_19_24.678,3.847,29.4,0,0.759,0,0,0,0.009, ,0,0,0,0,0, ,7.2,996.8,62.8,-1.5,-2.6,-3.8,25,104.087,980.956,73.5918,3.13149,1.91842,-20.986,
2026_06_10_19_19_24.698,3.847,29.5,0,0.759,0,0,0,0.009, ,0,0,0,0,0, ,6.1,984,36.2,0,-1.4,-3.6,25,98.1492,981.532,72.1237,2.89496,1.67964,-19.9327,
2026_06_10_19_19_24.718,3.847,29.5,0,0.76,0,0,0,0.008, ,0,0,0,0,0, ,-2.8,982.6,45.2,4.9,0.9,-5,25,92.2688,981.64,70.2089,2.86784,1.56205,-18.98,
2026_06_10_19_19_24.738,3.847,29.5,0,0.758,0,0,0,0.008, ,0,0,0,0,0, ,-15,1010.9,54,8.3,2.8,-4.8,25,86.1038,982.56,68.953,3.09527,1.5796,-18.122,
2026_06_10_19_19_24.758,3.847,29.5,0,0.757,0,0,0,0.008, ,0,0,0,0,0, ,-10.6,1005.3,66.4,4.7,0,-3.7,25,80.0769,984.117,68.4196,3.30275,1.56865,-17.2767,
2026_06_10_19_19_24.777,3.847,29.5,0,0.758,0,0,0,0.008, ,0,0,0,0,0, ,-2.1,990.1,31.8,3.3,-1.7,-3.4,25,74.8102,984.944,67.2423,3.34524,1.42127,-16.4402,
2026_06_10_19_19_24.799,3.847,29.4,0,0.759,0,0,0,0.008, ,0,0,0,0,0, ,-7.4,986.6,27.9,4.7,0.1,-4.6,25,69.962,985.152,64.9637,3.38514,1.28591,-15.6822,
2026_06_10_19_19_24.817,3.847,29.6,0,0.759,0,0,0,0.009, ,0,0,0,0,0, ,-4.1,994.9,41.7,6.7,1.4,-5,25,65.3483,985.493,63.1256,3.5262,1.25325,-15.019,
2026_06_10_19_19_24.837,3.847,29.5,0,0.758,0,0,0,0.007, ,0,0,0,0,0, ,-7.9,998.4,41.3,7.9,3.2,-4.2,25,61.0005,986.173,61.8078,3.75616,1.31704,-14.3841,
2026_06_10_19_19_24.857,3.847,29.6,0,0.759,0,0,0,0.008, ,0,0,0,0,0, ,-3.1,998.5,31.7,8.5,5.5,-3.8,25,56.9482,986.921,60.2656,4.02696,1.50186,-13.7513,
2026_06_10_19_19_24.876,3.847,29.5,0,0.759,0,0,0,0.008, ,0,0,0,0,0, ,-13,1003.7,33.5,3.9,3.3,-3.5,25,52.9873,987.785,58.5798,4.15938,1.67846,-13.1358,
2026_06_10_19_19_24.897,3.847,29.5,0,0.759,0,0,0,0.008, ,0,0,0,0,0, ,-6.4,999.7,37.5,2.9,3.5,-3.8,25,49.1673,988.633,57.1733,4.11311,1.78337,-12.5578,
2026_06_10_19_19_24.916,3.847,29.4,0,0.759,0,0,0,0.008, ,0,0,0,0,0, ,-13.1,987.1,43.4,5.2,4.9,-3.1,25,45.5771,988.924,56.1543,4.10926,1.93063,-12.0027,
2026_06_10_19_19_24.936,3.847,29.5,0,0.761,0,0,0,0.009, ,0,0,0,0,0, ,-25,1000.1,24.1,4,-0.3,-2.7,25,41.6388,989.208,54.789,4.13916,1.95314,-11.448,
2026_06_10_19_19_24.956,3.847,29.6,0,0.758,0,0,0,0.009, ,0,0,0,0,0, ,-9.8,999.8,37.8,2.6,-2,-2.7,25,38.0412,989.863,53.3363,4.08803,1.76404,-10.915,
2026_06_10_19_19_24.976,3.847,29.6,0,0.759,0,0,0,0.008, ,0,0,0,0,0, ,-13.9,999.6,31,1.4,-3.6,-2,25,35.0009,990.462,52.1824,3.96079,1.48592,-10.393,
2026_06_10_19_19_24.996,3.847,29.6,0,0.76,0,0,0,0.008, ,0,0,0,0,0, ,-14.8,999.8,24,1.7,-3.4,-1.4,25,31.9936,991.025,50.6783,3.81388,1.18209,-9.8633,
2026_06_10_19_19_25.015,3.847,29.5,0,0.758,0,0,0,0.008, ,0,0,0,0,0, ,-12.4,1001.4,30.2,0.5,-5,-1.1,25,29.2152,991.609,49.2415,3.6485,0.854122,-9.33843,
2026_06_10_19_19_25.035,3.847,29.5,0,0.759,0,0,0,0.009, ,0,0,0,0,0, ,-8,997.6,10.9,-0.3,-3.5,-0.8,25,26.8134,992.09,47.4931,3.43227,0.54309,-8.82726,
2026_06_10_19_19_25.055,3.847,29.6,0,0.758,0,0,0,0.009, ,0,0,0,0,0, ,-9.2,989.1,17.9,0,-1.8,-0.7,25,24.6554,992.167,45.4765,3.21397,0.348511,-8.33505,
2026_06_10_19_19_25.075,3.847,29.5,0,0.759,0,0,0,0.008, ,0,0,0,0,0, ,-17,996.7,23.5,1,-1.2,-1.3,25,22.3547,992.211,43.9667,3.04859,0.235867,-7.88807,
2026_06_10_19_19_25.094,3.847,29.6,0,0.758,0,0,0,0.009, ,0,0,0,0,0, ,-16.8,1009.1,26.8,0,-2.4,-0.5,25,19.9626,992.863,42.82,2.89329,0.111807,-7.46224,
2026_06_10_19_19_25.116,3.847,29.5,0,0.758,0,0,0,0.008, ,0,0,0,0,0, ,-9,1004.5,33.2,-2.9,-3.7,0.5,25,17.96,993.712,42.0388,2.62862,-0.0808659,-7.00751,
2026_06_10_19_19_25.134,3.847,29.6,0,0.758,0,0,0,0.009, ,0,0,0,0,0, ,-11.7,989.3,8,-3.4,-1.5,1.2,25,16.2349,993.906,40.7324,2.27648,-0.234376,-6.52869,
2026_06_10_19_19_25.154,3.847,29.6,0,0.758,0,0,0,0.008, ,0,0,0,0,0, ,-7,986.4,11.8,-1.8,-0.5,-0.7,25,14.6758,993.537,38.8535,1.97932,-0.281031,-6.11561,
2026_06_10_19_19_25.173,3.847,29.6,0,0.759,0,0,0,0.008, ,0,0,0,0,0, ,-7.4,996.8,33.8,-1.2,-0.8,-1.4,25,13.3427,993.419,37.8753,1.7673,-0.303515,-5.80693,
2026_06_10_19_19_25.194,3.847,29.6,0,0.758,0,0,0,0.008, ,0,0,0,0,0, ,-6.1,1002.6,30,-1.4,-0.1,-0.4,25,12.1183,993.802,37.5112,1.58039,-0.312441,-5.50791,
2026_06_10_19_19_25.213,3.847,29.5,0,0.758,0,0,0,0.008, ,0,0,0,0,0, ,-5.9,992.3,22.7,-0.9,0.3,0.7,25,11.0142,994.024,36.831,1.414,-0.287308,-5.16313,
2026_06_10_19_19_25.233,3.847,29.5,0,0.759,0,0,0,0.009, ,0,0,0,0,0, ,-7.5,986.9,20.8,-0.2,1.4,-0.9,25,9.93479,993.755,35.912,1.29432,-0.218003,-4.8546,
2026_06_10_19_19_25.253,3.847,29.5,0,0.76,0,0,0,0.009, ,0,0,0,0,0, ,-7,995.7,28.8,0.8,1.5,-1.6,25,8.88759,993.605,35.2349,1.23373,-0.11636,-4.63494,
2026_06_10_19_19_25.279,3.847,29.7,0,0.758,0,0,0,0.009, ,0,0,0,0,0, ,-11.1,1004,34.7,-0.1,0,-1.6,25,7.79452,993.986,35.0225,1.17988,-0.0635658,-4.45,
2026_06_10_19_19_25.292,3.847,29.6,0,0.759,0,0,0,0.008, ,0,0,0,0,0, ,-2.6,993.2,30.3,0.3,-0.8,-1.9,25,6.90212,994.267,34.8688,1.11407,-0.0840672,-4.28547,
2026_06_10_19_19_25.312,3.847,29.7,0,0.758,0,0,0,0.009, ,0,0,0,0,0, ,-6.9,991.2,26.3,1,-0.9,-1.9,25,6.19207,994.141,34.4685,1.08579,-0.130741,-4.14011,
2026_06_10_19_19_25.332,3.847,29.7,0,0.758,0,0,0,0.008, ,0,0,0,0,0, ,-9.5,996.4,18.3,2.5,0.4,-2.1,25,5.31505,994.12,33.727,1.12627,-0.138009,-4.00969,
2026_06_10_19_19_25.351,3.847,29.5,0,0.758,0,0,0,0.008, ,0,0,0,0,0, ,-6.9,999.2,29.4,1.9,-0.1,-2.9,25,4.49148,994.344,33.1251,1.1917,-0.120458,-3.9177,
2026_06_10_19_19_25.372,3.847,29.6,0,0.759,0,0,0,0.009, ,0,0,0,0,0, ,-10.3,996.9,30.3,2.1,-1.6,-2.8,25,3.69372,994.57,32.9255,1.24096,-0.164915,-3.85263,
2026_06_10_19_19_25.392,3.847,29.6,0,0.758,0,0,0,0.009, ,0,0,0,0,0, ,-8.1,998.1,22.3,2,-3.5,-3,25,2.908,994.749,32.5218,1.29026,-0.310256,-3.79458,
2026_06_10_19_19_25.411,3.847,29.7,0,0.758,0,0,0,0.009, ,0,0,0,0,0, ,-10.9,1000.6,15.6,1.8,-3.5,-2.8,25,2.15189,995.029,31.6948,1.32741,-0.504631,-3.74007,
2026_06_10_19_19_25.435,3.847,29.6,0,0.76,0,0,0,0.008, ,0,0,0,0,0, ,-9.1,1000,11.7,1.3,-2.2,-2.6,25,1.41139,995.35,30.5952,1.34098,-0.647552,-3.67669,
2026_06_10_19_19_25.451,3.847,29.5,0,0.761,0,0,0,0.009, ,0,0,0,0,0, ,-8.3,1000.1,20,0.3,-1.7,-2.4,25,0.795224,995.637,29.6966,1.30801,-0.72692,-3.60499,
2026_06_10_19_19_25.470,3.847,29.5,0,0.759,0,0,0,0.01, ,0,0,0,0,0, ,-10.3,994.7,24.2,0.6,-0.8,-2.3,25,0.180046,995.744,29.2337,1.25573,-0.758795,-3.52851,
2026_06_10_19_19_25.490,3.847,29.6,0,0.759,0,0,0,0.01, ,0,0,0,0,0, ,-7.3,996.4,12.9,0.1,-1.3,-2.3,25,-0.367176,995.732,28.5827,1.20053,-0.77654,-3.45365,
2026_06_10_19_19_25.510,3.847,29.6,0,0.759,0,0,0,0.009, ,0,0,0,0,0, ,-10.8,996.7,11.5,0.3,0,-2.6,25,-0.896285,995.782,27.5844,1.13956,-0.768829,-3.39249,
2026_06_10_19_19_25.530,3.847,29.7,0,0.758,0,0,0,0.009, ,0,0,0,0,0, ,-9,997.9,24,0.1,-0.2,-2.8,25,-1.44495,995.875,26.9851,1.08231,-0.728072,-3.35029,
2026_06_10_19_19_25.550,3.847,29.6,0,0.758,0,0,0,0.008, ,0,0,0,0,0, ,-13.4,994.5,21.7,0.4,0.1,-2.6,25,-2.0394,995.894,26.7331,1.03159,-0.686752,-3.31066,
2026_06_10_19_19_25.570,3.847,29.6,0,0.76,0,0,0,0.009, ,0,0,0,0,0, ,-13.3,994.5,17.9,1.1,-0.3,-2.6,25,-2.72864,995.809,26.3106,1.01443,-0.650997,-3.26736,
2026_06_10_19_19_25.589,3.847,29.5,0,0.759,0,0,0,0.009, ,0,0,0,0,0, ,-13.3,985.7,10.7,2.4,-0.3,-3.6,25,-3.37283,995.462,25.5787,1.05925,-0.629608,-3.25716,
2026_06_10_19_19_25.609,3.847,29.7,0,0.759,0,0,0,0.01, ,0,0,0,0,0, ,-14.8,986.8,9.2,7.7,0.5,-5.1,25,-4.02347,994.9,24.6263,1.30244,-0.585148,-3.32375,
2026_06_10_19_19_25.629,3.847,29.7,0,0.759,0,0,0,0.008, ,0,0,0,0,0, ,-22.3,1023.1,29.2,5.1,-0.9,-4.5,25,-4.90868,995.513,24.2957,1.61307,-0.561678,-3.41371,
2026_06_10_19_19_25.649,3.847,29.6,0,0.758,0,0,0,0.008, ,0,0,0,0,0, ,-23.9,1005.2,19.8,0.2,-4.5,-2.1,25,-6.01721,996.648,24.3081,1.67626,-0.691982,-3.40678,
2026_06_10_19_19_25.669,3.847,29.6,0,0.759,0,0,0,0.009, ,0,0,0,0,0, ,-8.5,993.1,3,0.5,-3.2,-1.4,25,-6.63773,996.801,23.5215,1.59544,-0.884423,-3.30582,
2026_06_10_19_19_25.689,3.847,29.7,0,0.759,0,0,0,0.009, ,0,0,0,0,0, ,-13,993.7,8.5,1.1,-2.6,-2,25,-6.88832,996.594,22.4386,1.54697,-1.00725,-3.20797,
2026_06_10_19_19_25.709,3.847,29.6,0,0.759,0,0,0,0.008, ,0,0,0,0,0, ,-18,1001.3,10.3,1,-2.7,-2.2,25,-7.41309,996.649,21.644,1.51669,-1.10735,-3.14045,
2026_06_10_19_19_25.729,3.847,29.8,0,0.759,0,0,0,0.009, ,0,0,0,0,0, ,-13.7,1004.3,9,0.1,-1.7,-1.8,25,-7.92722,997.024,20.9132,1.45778,-1.17394,-3.07095,
2026_06_10_19_19_25.748,3.847,29.8,0,0.758,0,0,0,0.008, ,0,0,0,0,0, ,-8.6,997,2.8,-0.5,-1.4,-1.3,25,-8.12361,997.245,19.9983,1.35676,-1.19685,-2.97827,
2026_06_10_19_19_25.767,3.847,29.7,0,0.758,0,0,0,0.008, ,0,0,0,0,0, ,-15.6,989.7,2.5,0.3,-0.1,-1.8,25,-8.36592,997.007,18.9411,1.26799,-1.16962,-2.89124,
2026_06_10_19_19_25.787,3.847,29.6,0,0.759,0,0,0,0.009, ,0,0,0,0,0, ,-12.3,990.7,-1.5,1.2,1,-2.6,25,-8.7062,996.592,17.8174,1.23642,-1.07093,-2.84911,
2026_06_10_19_19_25.807,3.847,29.7,0,0.759,0,0,0,0.009, ,0,0,0,0,0, ,-14.6,996.9,9.5,1.9,1.9,-3.2,25,-8.99527,996.422,16.9754,1.25553,-0.917308,-2.85221,
2026_06_10_19_19_25.828,3.847,29.6,0,0.758,0,0,0,0.009, ,0,0,0,0,0, ,-20.3,1004.1,18.5,1.6,0,-2.7,25,-9.51048,996.671,16.7941,1.28566,-0.803519,-2.85817,
2026_06_10_19_19_25.847,3.847,29.7,0,0.758,0,0,0,0.01, ,0,0,0,0,0, ,-20.3,998.1,4.6,1.5,-0.5,-2.1,25,-10.168,996.941,16.4745,1.30177,-0.769789,-2.83025,
2026_06_10_19_19_25.866,3.847,29.6,0,0.758,0,0,0,0.009, ,0,0,0,0,0, ,-17.7,995.3,4.6,1.3,-1.4,-2.3,25,-10.7062,996.926,15.7509,1.30776,-0.78077,-2.79185,
2026_06_10_19_19_25.887,3.847,29.6,0,0.759,0,0,0,0.01, ,0,0,0,0,0, ,-19.8,999.6,-0.8,0.9,-0.7,-2.4,25,-11.1963,996.958,14.9069,1.2951,-0.797176,-2.76492,
2026_06_10_19_19_25.906,3.847,29.6,0,0.759,0,0,0,0.01, ,0,0,0,0,0, ,-20.6,1002.9,7.2,0.1,-0.4,-1.8,25,-11.745,997.219,14.1935,1.24664,-0.782114,-2.7244,
2026_06_10_19_19_25.931,3.847,29.6,0,0.759,0,0,0,0.01, ,0,0,0,0,0, ,-18.1,999.1,8,-0.3,-2.1,-1.2,25,-12.2084,997.45,13.7917,1.16458,-0.810626,-2.64979,
2026_06_10_19_19_25.946,3.847,29.7,0,0.76,0,0,0,0.01, ,0,0,0,0,0, ,-18.4,994.8,4.6,0.2,-2.5,-1.1,25,-12.5766,997.419,13.3352,1.09057,-0.901385,-2.5584,
2026_06_10_19_19_25.966,3.847,29.7,0,0.761,0,0,0,0.009, ,0,0,0,0,0, ,-13.4,998.6,6.1,0.7,-2,-1.3,25,-12.7791,997.376,12.8486,1.05153,-0.983566,-2.47562,
2026_06_10_19_19_25.986,3.847,29.8,0,0.759,0,0,0,0.009, ,0,0,0,0,0, ,-16.6,995.2,1.5,0.3,-3,-1.4,25,-12.9144,997.347,12.2972,1.01793,-1.07597,-2.40703,
2026_06_10_19_19_26.005,3.847,29.7,0,0.758,0,0,0,0.008, ,0,0,0,0,0, ,-18.9,997.8,2,0.3,-3,-1.4,25,-13.2091,997.295,11.6545,0.974177,-1.19322,-2.34566,
2026_06_10_19_19_26.025,3.847,29.6,0,0.759,0,0,0,0.009, ,0,0,0,0,0, ,-19.2,995.8,-1,0.6,-4.1,-0.9,25,-13.565,997.265,10.9747,0.942235,-1.33684,-2.2728,
2026_06_10_19_19_26.045,3.847,29.7,0,0.758,0,0,0,0.01, ,0,0,0,0,0, ,-16.9,997.8,-2.9,2.1,-1.2,-0.6,25,-13.8383,997.236,10.1871,0.967083,-1.41686,-2.18001,
2026_06_10_19_19_26.065,3.847,29.7,0,0.758,0,0,0,0.009, ,0,0,0,0,0, ,-21.2,1002.5,0.6,-0.1,-2.4,-2,25,-14.1559,997.414,9.49627,0.969089,-1.4402,-2.12638,
2026_06_10_19_19_26.085,3.847,29.7,0,0.758,0,0,0,0.009, ,0,0,0,0,0, ,-13.4,996.5,-1.5,-1.2,-1.9,-1.2,25,-14.3475,997.541,8.89017,0.870426,-1.48346,-2.0943,
2026_06_10_19_19_26.104,3.847,29.7,0,0.76,0,0,0,0.009, ,0,0,0,0,0, ,-13,992.4,6.5,-0.5,-0.1,-1.4,25,-14.2776,997.353,8.50077,0.765587,-1.454,-2.0459,
2026_06_10_19_19_26.124,3.847,29.7,0,0.758,0,0,0,0.009, ,0,0,0,0,0, ,-16.3,999.5,8.1,-0.7,-1.3,-1.7,25,-14.3003,997.267,8.4276,0.682372,-1.40805,-2.01568,
2026_06_10_19_19_26.144,3.847,29.7,0,0.758,0,0,0,0.009, ,0,0,0,0,0, ,-14.5,993.8,4.7,0.6,-0.7,-1.7,25,-14.3673,997.23,8.30404,0.637743,-1.38318,-1.99645,
2026_06_10_19_19_26.163,3.847,29.7,0,0.759,0,0,0,0.009, ,0,0,0,0,0, ,-15.7,990.9,5.4,2.1,-0.3,-2,25,-14.4119,996.932,8.10575,0.681146,-1.32937,-1.98752,
2026_06_10_19_19_26.184,3.847,29.8,0,0.758,0,0,0,0.009, ,0,0,0,0,0, ,-18.1,999.6,-0.9,2.6,-0.4,-2.1,25,-14.5636,996.83,7.74891,0.782842,-1.26969,-1.99133,
2026_06_10_19_19_26.203,3.847,29.7,0,0.76,0,0,0,0.008, ,0,0,0,0,0, ,-18.5,1001.9,0.9,2.3,-1,-1.9,25,-14.7913,997.069,7.27671,0.884434,-1.23497,-1.99186,
2026_06_10_19_19_26.223,3.847,29.7,0,0.759,0,0,0,0.009, ,0,0,0,0,0, ,-16.7,994.7,-4.6,1.5,-0.1,-1.9,25,-14.9624,997.144,6.72055,0.94632,-1.19323,-1.98626,
2026_06_10_19_19_26.243,3.847,29.7,0,0.758,0,0,0,0.009, ,0,0,0,0,0, ,-16.1,997.3,-4.6,1.6,0.7,-1.9,25,-15.05,997.074,6.03071,0.983107,-1.10224,-1.981,
2026_06_10_19_19_26.267,3.847,29.7,0,0.758,0,0,0,0.009, ,0,0,0,0,0, ,-21.3,1002.8,2.5,1.1,-0.1,-1.9,25,-15.2724,997.255,5.59923,1.00546,-1.01679,-1.97607,
2026_06_10_19_19_26.283,3.847,29.7,0,0.759,0,0,0,0.009, ,0,0,0,0,0, ,-18.3,996.3,-2,1,-1.3,-1.6,25,-15.5483,997.395,5.27326,1.00818,-0.997483,-1.96229,
2026_06_10_19_19_26.302,3.847,29.7,0,0.76,0,0,0,0.009, ,0,0,0,0,0, ,-17.4,999.2,-11.1,0.8,-0.8,-1,25,-15.6886,997.417,4.55278,1.00159,-1.00068,-1.92193,
2026_06_10_19_19_26.322,3.847,29.7,0,0.758,0,0,0,0.009, ,0,0,0,0,0, ,-16.7,997.1,-8.3,-0.1,0,-1.2,25,-15.7716,997.462,3.68425,0.96188,-0.964079,-1.87185,
2026_06_10_19_19_26.342,3.847,29.8,0,0.759,0,0,0,0.009, ,0,0,0,0,0, ,-17.9,996.4,-5.4,-0.4,0,-1.1,25,-15.8647,997.418,3.04232,0.888031,-0.905331,-1.82786,
2026_06_10_19_19_26.362,3.847,29.7,0,0.76,0,0,0,0.009, ,0,0,0,0,0, ,-18.3,997.1,-0.6,-0.3,-0.1,-1.2,25,-16.0009,997.377,2.67412,0.812589,-0.853209,-1.78655,
2026_06_10_19_19_26.382,3.847,29.7,0,0.759,0,0,0,0.01, ,0,0,0,0,0, ,-15.5,998.4,-8.4,-0.6,-0.7,-1.3,25,-16.0557,997.4,2.23694,0.73565,-0.825591,-1.75386,
2026_06_10_19_19_26.402,3.847,29.7,0,0.759,0,0,0,0.01, ,0,0,0,0,0, ,-17.5,998.4,-4.7,-1.3,-0.7,-1,25,-16.0828,997.461,1.70149,0.632931,-0.817938,-1.71706,
2026_06_10_19_19_26.427,3.847,29.8,0,0.759,0,0,0,0.01, ,0,0,0,0,0, ,-16.6,995.9,-1.7,-1,-0.1,-1.1,25,-16.1417,997.442,1.4028,0.524283,-0.79247,-1.67641,
2026_06_10_19_19_26.441,3.847,29.7,0,0.759,0,0,0,0.009, ,0,0,0,0,0, ,-15.9,992.1,-0.6,-0.2,-0.6,-0.9,25,-16.1483,997.232,1.24724,0.455772,-0.765507,-1.63519,
2026_06_10_19_19_26.460,3.847,29.8,0,0.759,0,0,0,0.01, ,0,0,0,0,0, ,-15,996.5,-0.3,-0.1,-1.7,-1.7,25,-16.1058,997.054,1.14382,0.418858,-0.788937,-1.61476,
2026_06_10_19_19_26.481,3.847,29.8,0,0.761,0,0,0,0.009, ,0,0,0,0,0, ,-19.4,1004.2,-7,0.3,-0.9,-1.1,25,-16.1724,997.255,0.851694,0.399428,-0.82008,-1.60168,
2026_06_10_19_19_26.500,3.847,29.8,0,0.759,0,0,0,0.009, ,0,0,0,0,0, ,-14.7,997.9,-3.9,0.1,-0.9,-0.2,25,-16.2259,997.486,0.467684,0.387275,-0.82495,-1.54368,
2026_06_10_19_19_26.520,3.847,29.8,0,0.758,0,0,0,0.009, ,0,0,0,0,0, ,-13.9,991.5,-7.8,-1.2,-1.1,-1.3,25,-16.1086,997.316,0.0827005,0.33016,-0.835617,-1.49532,
2026_06_10_19_19_26.539,3.847,29.8,0,0.758,0,0,0,0.009, ,0,0,0,0,0, ,-14.2,995.9,-6.3,-0.6,-0.1,-1.4,25,-15.9831,997.096,-0.351948,0.255197,-0.821259,-1.48646,
2026_06_10_19_19_26.559,3.847,29.8,0,0.759,0,0,0,0.009, ,0,0,0,0,0, ,-16.6,1000,-3.1,-0.1,1,-1.4,25,-15.9476,997.148,-0.616908,0.218318,-0.743792,-1.4812,
2026_06_10_19_19_26.584,3.847,29.7,0,0.76,0,0,0,0.009, ,0,0,0,0,0, ,-11.4,994.3,1.4,0,0,-1.7,25,-15.8289,997.148,-0.631112,0.201967,-0.667998,-1.48539,
2026_06_10_19_19_26.599,3.847,29.8,0,0.758,0,0,0,0.01, ,0,0,0,0,0, ,-14.7,995.1,-3.9,0.7,0.1,-2,25,-15.6596,996.999,-0.668825,0.210988,-0.624245,-1.50761,
2026_06_10_19_19_26.619,3.847,29.8,0,0.758,0,0,0,0.009, ,0,0,0,0,0, ,-18.1,1001.4,-2,0.6,-0.1,-2.1,25,-15.7047,997.075,-0.807834,0.23774,-0.586205,-1.54066,
2026_06_10_19_19_26.639,3.847,29.8,0,0.76,0,0,0,0.009, ,0,0,0,0,0, ,-17.4,1000.3,-4.3,0.2,-1.4,-2.1,25,-15.8293,997.305,-0.95056,0.247628,-0.596187,-1.57474,
2026_06_10_19_19_26.659,3.847,29.8,0,0.759,0,0,0,0.009, ,0,0,0,0,0, ,-14.5,994.3,-6.2,0.5,-0.6,-1.8,25,-15.8367,997.305,-1.21256,0.253866,-0.620794,-1.59761,
2026_06_10_19_19_26.679,3.847,29.9,0,0.76,0,0,0,0.009, ,0,0,0,0,0, ,-14.5,992.7,-7.2,1.1,0,-1.9,25,-15.7552,997.073,-1.54695,0.287146,-0.601246,-1.61299,
2026_06_10_19_19_26.699,3.847,29.9,0,0.758,0,0,0,0.008, ,0,0,0,0,0, ,-16.2,998,-5.7,1.2,0,-2.2,25,-15.7305,996.968,-1.84573,0.339726,-0.564607,-1.63962,
2026_06_10_19_19_26.719,3.847,29.8,0,0.758,0,0,0,0.008, ,0,0,0,0,0, ,-15.7,997.8,-2.9,1.1,-0.6,-2.2,25,-15.7439,997.025,-1.99529,0.389102,-0.548483,-1.67377,
2026_06_10_19_19_26.738,3.847,29.8,0,0.758,0,0,0,0.009, ,0,0,0,0,0, ,-20.1,1001.3,-7,0,-2,-1.7,25,-15.8753,997.179,-2.17534,0.398907,-0.594278,-1.6906,
2026_06_10_19_19_26.757,3.847,29.9,0,0.758,0,0,0,0.009, ,0,0,0,0,0, ,-19.8,1000.8,-4,-0.6,-2,-0.6,25,-16.1236,997.414,-2.37793,0.356317,-0.679939,-1.65766,
2026_06_10_19_19_26.777,3.847,29.8,0,0.76,0,0,0,0.008, ,0,0,0,0,0, ,-7.3,1007.6,3,-2.2,-1.5,1.2,25,-15.9668,997.828,-2.2635,0.249292,-0.745146,-1.53836,
2026_06_10_19_19_26.798,3.847,29.8,0,0.759,0,0,0,0.009, ,0,0,0,0,0, ,-30.2,1033,-5.8,-7.2,-2,5.1,25,-16.1364,999.197,-2.21088,-0.0523056,-0.80638,-1.25267,
2026_06_10_19_19_26.818,3.847,29.8,0,0.758,0,0,0,0.009, ,0,0,0,0,0, ,-31.7,1074.4,17.8,-17,-6.4,13.3,25,-17.0391,1002.52,-1.71053,-0.786462,-1.01318,-0.615708,
2026_06_10_19_19_26.837,3.847,29.8,0,0.759,0,0,0,0.009, ,0,0,0,0,0, ,57.1,1075.1,38,-32.4,-7.7,25.1,25,-15.2268,1006.92,0.0938632,-2.24369,-1.38105,0.591812,
2026_06_10_19_19_26.857,3.847,29.8,0,0.76,0,0,0,0.009, ,0,0,0,0,0, ,12.8,1016.4,11.2,-40,3.7,34,25,-12.1692,1009.29,1.58721,-4.31291,-1.41876,2.35645,
2026_06_10_19_19_26.877,3.847,29.8,0,0.76,0,0,0,0.009, ,0,0,0,0,0, ,201.9,1017.5,33.9,-39.5,9.5,51.9,25,-4.88599,1009.75,2.86463,-6.47235,-0.930121,4.83012,
2026_06_10_19_19_26.896,3.847,29.8,0,0.76,0,0,0,0.009, ,0,0,0,0,0, ,136.9,1056.1,79.1,-39.4,9.5,60.8,25,5.73456,1011.4,6.13303,-8.48193,-0.294536,7.96961,
2026_06_10_19_19_26.916,3.847,29.8,0,0.759,0,0,0,0.009, ,0,0,0,0,0, ,144.1,1064.5,92.6,-45.9,-12.3,73.2,25,13.9468,1014.38,10.9908,-10.564,-0.3619,11.5668,
2026_06_10_19_19_26.937,3.847,29.9,0,0.759,0,0,0,0.009, ,0,0,0,0,0, ,191,1045.5,81.9,-45.3,-14,89.8,25,23.307,1016.86,15.6378,-12.699,-1.14117,15.8283,
2026_06_10_19_19_26.956,3.847,29.9,0,0.76,0,0,0,0.009, ,0,0,0,0,0, ,157.2,1027.4,88.3,-44.7,-18.8,100.8,25,32.496,1018.05,19.8707,-14.6674,-2.07101,20.6711,
2026_06_10_19_19_26.976,3.847,29.9,0,0.76,0,0,0,0.009, ,0,0,0,0,0, ,123.4,1022.2,102.5,-36.6,-26.5,98.3,25,39.0653,1018.46,24.4732,-16.2507,-3.32504,25.4778,
2026_06_10_19_19_26.996,3.847,29.9,0,0.759,0,0,0,0.009, ,0,0,0,0,0, ,152.4,1020.6,118.7,-24.9,-32.7,87.7,25,45.088,1018.64,29.7216,-17.1343,-4.92617,29.5924,
2026_06_10_19_19_27.016,3.847,29.9,0,0.758,0,0,0,0.009, ,0,0,0,0,0, ,226,978.2,121.9,-22,-37.1,89.8,25,53.8698,1017.47,35.2412,-17.5191,-6.7527,33.1974,
2026_06_10_19_19_27.035,3.847,29.8,0,0.758,0,0,0,0.009, ,0,0,0,0,0, ,253.7,922.8,113.6,-21.1,-24.8,90.5,25,65.203,1013.39,40.2691,-17.7648,-8.22722,36.6679,
2026_06_10_19_19_27.055,3.847,29.9,0,0.759,0,0,0,0.009, ,0,0,0,0,0, ,230.3,936.4,126.4,-20.4,-16.8,88,25,75.9766,1008.28,45.1277,-17.9467,-8.99338,39.8721,
2026_06_10_19_19_27.077,3.847,29.9,0,0.758,0,0,0,0.009, ,0,0,0,0,0, ,283.9,966.3,129.8,-17.6,-30.3,82.9,25,87.0138,1004.81,50.1838,-18.0109,-9.88042,42.6495,
2026_06_10_19_19_27.095,3.847,29.9,0,0.759,0,0,0,0.009, ,0,0,0,0,0, ,359.9,992.1,125.9,-16.6,-34.2,85.2,25,101.327,1003.25,54.9166,-17.9553,-11.2436,45.1724,
2026_06_10_19_19_27.114,3.847,29.9,0,0.76,0,0,0,0.009, ,0,0,0,0,0, ,388.5,932.9,153.6,-17.8,-18.1,89.6,25,117.955,1000.77,60.0861,-17.9093,-12.1519,47.7456,
2026_06_10_19_19_27.135,3.847,29.9,0,0.758,0,0,0,0.009, ,0,0,0,0,0, ,403.9,900.2,146.4,-24.1,-17.5,95.3,25,134.911,995.636,65.5653,-18.0946,-12.4961,50.4698,
2026_06_10_19_19_27.154,3.847,29.9,0,0.758,0,0,0,0.009, ,0,0,0,0,0, ,397,911,110.2,-14.6,-16.6,89.3,25,151.092,990.15,69.3882,-18.1711,-12.7736,53.0188,
2026_06_10_19_19_27.174,3.847,29.8,0,0.759,0,0,0,0.009, ,0,0,0,0,0, ,413.3,942.7,133.7,-8.3,-17.5,83.9,25,166.574,986.292,72.5911,-17.7615,-13.0342,55.0652,
2026_06_10_19_19_27.193,3.847,29.9,0,0.759,0,0,0,0.009, ,0,0,0,0,0, ,479.1,875.3,162.5,-4.4,-10.6,83.7,25,183.614,981.582,77.1925,-17.0662,-13.0961,56.8162,
2026_06_10_19_19_27.214,3.847,29.8,0,0.759,0,0,0,0.009, ,0,0,0,0,0, ,546,801,135.1,-6,-0.8,89.9,25,203.658,972.842,81.5561,-16.3431,-12.6454,58.6433,
2026_06_10_19_19_27.237,3.847,29.8,0,0.759,0,0,0,0.009, ,0,0,0,0,0, ,529.9,788.2,106,-4.2,-4.6,102.2,25,224.029,961.98,83.9322,-15.6579,-12.0394,60.9228,
2026_06_10_19_19_27.253,3.847,29.9,0,0.76,0,0,0,0.01, ,0,0,0,0,0, ,489.6,823.6,112.3,5.7,-13,97,25,241.44,952.469,85.469,-14.6581,-11.842,63.2797,
2026_06_10_19_19_27.273,3.847,29.9,0,0.761,0,0,0,0.009, ,0,0,0,0,0, ,586.9,818.6,134.2,15.7,-25.9,88,25,259.527,944.464,87.7712,-13.1128,-12.3056,65.0603,
2026_06_10_19_19_27.292,3.847,29.9,0,0.759,0,0,0,0.009, ,0,0,0,0,0, ,679.8,743.1,80.2,21.9,-21.2,93.5,25,282.307,934.494,88.9552,-11.1681,-12.9908,66.6258,
2026_06_10_19_19_27.313,3.847,29.8,0,0.76,0,0,0,0.009, ,0,0,0,0,0, ,659.9,705,106.2,18.5,-7.5,106.3,25,305.923,921.67,89.2138,-9.25664,-13.0736,68.6534,
2026_06_10_19_19_27.333,3.847,29.8,0,0.759,0,0,0,0.01, ,0,0,0,0,0, ,523.4,715,142.4,17,-9.3,101.7,25,323.334,908.771,91.3519,-7.61092,-12.7888,70.8074,
2026_06_10_19_19_27.352,3.847,29.9,0,0.757,0,0,0,0.01, ,0,0,0,0,0, ,557.9,717.8,149.4,18.2,-15.8,80.2,25,336.577,897.049,94.6759,-6.07463,-12.7743,72.0348,
2026_06_10_19_19_27.372,3.847,29.9,0,0.757,0,0,0,0.009, ,0,0,0,0,0, ,718.6,675,101.4,14.5,-17.3,73,25,354.96,884.821,96.5482,-4.70813,-13.0043,72.313,
2026_06_10_19_19_27.392,3.847,29.9,0,0.76,0,0,0,0.009, ,0,0,0,0,0, ,756.7,651.2,42.7,16.8,-3.6,80.8,25,378.28,871.31,95.0553,-3.46755,-12.8487,72.5925,
2026_06_10_19_19_27.413,3.847,29.9,0,0.759,0,0,0,0.009, ,0,0,0,0,0, ,703.7,618.4,77.7,20.2,2.8,85.3,25,399.725,856.898,92.9313,-2.12891,-12.0901,73.2298,
2026_06_10_19_19_27.431,3.847,29.9,0,0.758,0,0,0,0.009, ,0,0,0,0,0, ,659.6,602.9,88,30.6,3.6,79,25,416.905,841.892,92.317,-0.451364,-11.1584,73.7733,
2026_06_10_19_19_27.451,3.847,29.8,0,0.759,0,0,0,0.009, ,0,0,0,0,0, ,716.5,651.1,84.4,27.6,8.8,60.1,25,433.428,828.797,91.9442,1.34942,-10.1006,73.516,
2026_06_10_19_19_27.471,3.847,30,0,0.758,0,0,0,0.01, ,0,0,0,0,0, ,826.7,578.9,84.1,12.5,9.2,62.3,25,454.035,815.769,91.4754,2.48899,-8.93664,72.7655,
2026_06_10_19_19_27.491,3.847,29.9,0,0.76,0,0,0,0.008, ,0,0,0,0,0, ,816.1,561.8,45.6,8.8,13.8,72.4,25,476.422,800.814,89.8529,2.9863,-7.69128,72.4355,
2026_06_10_19_19_27.510,3.847,29.9,0,0.76,0,0,0,0.009, ,0,0,0,0,0, ,772.8,527.9,34.6,12.9,10.9,73.6,25,495.802,785.216,86.8211,3.46549,-6.47002,72.4699,
2026_06_10_19_19_27.530,3.847,29.9,0,0.758,0,0,0,0.009, ,0,0,0,0,0, ,784.4,475.7,47.8,14.5,2.2,69.6,25,513.035,767.945,84.041,4.08916,-5.67661,72.4169,
2026_06_10_19_19_27.550,3.847,29.9,0,0.76,0,0,0,0.009, ,0,0,0,0,0, ,859.2,448.3,70.5,11.1,1,69.7,25,531.85,749.302,82.5242,4.61998,-5.23319,72.2483,
2026_06_10_19_19_27.572,3.847,29.9,0,0.759,0,0,0,0.009, ,0,0,0,0,0, ,877.8,444.5,101.8,7.2,9.7,77.5,25,552.365,730.844,82.7452,4.89602,-4.58828,72.3306,
2026_06_10_19_19_27.589,3.847,29.9,0,0.76,0,0,0,0.009, ,0,0,0,0,0, ,845.9,455.5,87.7,5.4,11.2,84,25,571.224,713.73,83.4767,4.98158,-3.67188,72.8437,
2026_06_10_19_19_27.610,3.847,30,0,0.759,0,0,0,0.009, ,0,0,0,0,0, ,794.5,412.7,98.6,7.2,9.9,76.9,25,586.396,696.69,84.0662,5.06192,-2.80524,73.3072,
2026_06_10_19_19_27.629,3.847,29.9,0,0.76,0,0,0,0.008, ,0,0,0,0,0, ,870.7,362.1,108.5,5.4,2,66.2,25,601.399,677.843,85.2535,5.13737,-2.27171,73.2001,
2026_06_10_19_19_27.649,3.847,30,0,0.76,0,0,0,0.009, ,0,0,0,0,0, ,1008.5,333.8,100.9,1.4,0.8,70.6,25,622.008,657.74,86.4385,5.0315,-2.04797,72.9076,
2026_06_10_19_19_27.669,3.847,30,0,0.76,0,0,0,0.008, ,0,0,0,0,0, ,992,359.3,54.6,0,5,87.8,25,645.057,638.777,85.9091,4.76754,-1.74645,73.2911,
2026_06_10_19_19_27.688,3.847,30,0,0.758,0,0,0,0.008, ,0,0,0,0,0, ,896.4,343.2,81.6,2.9,11.2,90.5,25,663.286,621.255,84.8238,4.56538,-1.14643,74.2575,
2026_06_10_19_19_27.708,3.847,30,0,0.759,0,0,0,0.008, ,0,0,0,0,0, ,846.3,297.8,138.1,19.1,21.2,65.6,25,675.965,602.928,86.3488,4.95749,-0.0893856,74.4886,
2026_06_10_19_19_27.729,3.847,29.9,0,0.759,0,0,0,0.008, ,0,0,0,0,0, ,934.2,251.9,147,10,20.4,48.5,25,689.023,582.936,89.7736,5.54203,1.18356,73.4259,
2026_06_10_19_19_27.748,3.847,30,0,0.761,0,0,0,0.009, ,0,0,0,0,0, ,1021.8,229.4,66,2.3,5.7,54,25,706.633,562.078,90.7929,5.57908,1.90667,72.0746,
2026_06_10_19_19_27.768,3.847,29.9,0,0.759,0,0,0,0.008, ,0,0,0,0,0, ,975.2,230.4,74.4,0,6.9,62.9,25,724.418,541.836,89.538,5.30919,2.17439,71.2443,
2026_06_10_19_19_27.787,3.847,30,0,0.759,0,0,0,0.009, ,0,0,0,0,0, ,903.3,227.4,131.8,-1.4,15.7,48.9,25,737.51,522.766,90.3644,4.943,2.73048,70.3093,
2026_06_10_19_19_27.808,3.847,30,0,0.759,0,0,0,0.008, ,0,0,0,0,0, ,919.6,179.3,114,-3.5,29.4,24.1,25,748.109,503.302,92.3471,4.49249,3.93823,68.249,
2026_06_10_19_19_27.828,3.847,30,0,0.76,0,0,0,0.008, ,0,0,0,0,0, ,991.9,148.8,111.4,-8.5,31.3,21.6,25,760.762,482.629,93.5873,3.8531,5.5477,65.4825,
2026_06_10_19_19_27.847,3.847,29.9,0,0.758,0,0,0,0.008, ,0,0,0,0,0, ,999.6,157.9,81.2,-8.5,29.3,29.2,25,775.082,462.563,93.7526,3.10034,7.05604,63.04,
2026_06_10_19_19_27.866,3.847,29.9,0,0.759,0,0,0,0.009, ,0,0,0,0,0, ,974.6,166.7,57.9,-2.3,24.1,31.1,25,788.002,444.266,92.2778,2.58235,8.2531,61.0358,
2026_06_10_19_19_27.887,3.847,30,0,0.76,0,0,0,0.009, ,0,0,0,0,0, ,981.6,135.7,112.9,2,15.2,30,25,799.586,426.407,91.8587,2.41584,8.9476,59.178,
2026_06_10_19_19_27.907,3.847,30,0,0.759,0,0,0,0.008, ,0,0,0,0,0, ,974.6,114.5,138.7,2.1,8.1,30.4,25,810.464,408.046,93.927,2.39355,9.11227,57.4122,
2026_06_10_19_19_27.926,3.847,29.9,0,0.758,0,0,0,0.008, ,0,0,0,0,0, ,985.2,112.5,177.1,-0.3,0,34.9,25,820.789,390.097,97.8253,2.30254,8.80379,55.9032,
2026_06_10_19_19_27.946,3.847,30,0,0.76,0,0,0,0.009, ,0,0,0,0,0, ,998.5,119.2,158,-6.4,-9.9,42.5,25,831.213,373.385,102.074,1.95809,7.96567,54.8549,
2026_06_10_19_19_27.966,3.847,30,0,0.759,0,0,0,0.008, ,0,0,0,0,0, ,992.1,103,125,-5,-13.2,46.1,25,841.212,357.402,104.477,1.49142,6.77643,54.2117,
2026_06_10_19_19_27.986,3.847,30,0,0.759,0,0,0,0.008, ,0,0,0,0,0, ,925.4,66.2,134.5,17.5,6,28.6,25,848.374,340.779,106.017,1.7814,6.14412,53.1842,
2026_06_10_19_19_28.006,3.847,30,0,0.76,0,0,0,0.008, ,0,0,0,0,0, ,946.6,67.1,184.6,10.2,11.2,20.4,25,853.714,324.074,109.279,2.51683,6.29378,51.4363,
2026_06_10_19_19_28.025,3.847,30,0,0.759,0,0,0,0.008, ,0,0,0,0,0, ,1017.8,56.5,186.2,4.1,3.8,23.7,25,861.544,308.092,113.918,2.79916,6.36728,49.6455,
2026_06_10_19_19_28.045,3.847,30,0,0.758,0,0,0,0.008, ,0,0,0,0,0, ,995.2,47.8,138.9,2.3,4.3,28.3,25,870.377,292.495,116.881,2.82359,6.22607,48.2046,
2026_06_10_19_19_28.066,3.847,30,0,0.758,0,0,0,0.008, ,0,0,0,0,0, ,932.9,40.5,96.5,9.3,7,26.7,25,876.085,277.362,116.931,3.00496,6.19097,46.943,
2026_06_10_19_19_28.085,3.847,30.1,0,0.759,0,0,0,0.008, ,0,0,0,0,0, ,925,33,165,9.7,-1.3,18.4,25,879.307,262.699,117.773,3.40075,5.98738,45.4565,
2026_06_10_19_19_28.105,3.847,30,0,0.758,0,0,0,0.007, ,0,0,0,0,0, ,969.7,22.2,177.3,2,-9.9,14.8,25,883.453,248.373,121.026,3.55001,5.28127,43.6981,
2026_06_10_19_19_28.124,3.847,30,0,0.759,0,0,0,0.008, ,0,0,0,0,0, ,990.9,16.2,173.5,-0.7,-11.5,15.2,25,889.355,234.408,124.339,3.37329,4.30741,41.9493,
2026_06_10_19_19_28.144,3.847,30,0,0.76,0,0,0,0.008, ,0,0,0,0,0, ,981,17.5,163.8,-4.2,-12.9,17.6,25,895.241,221.15,127.039,3.01843,3.30149,40.3924,
2026_06_10_19_19_28.164,3.847,30,0,0.759,0,0,0,0.008, ,0,0,0,0,0, ,952.8,17.2,156.3,-5.8,-15.4,15.5,25,899.608,208.731,129.051,2.52981,2.23804,38.9395,
2026_06_10_19_19_28.184,3.847,29.9,0,0.759,0,0,0,0.008, ,0,0,0,0,0, ,942.1,-10.3,125.6,-1.8,-23.7,7.9,25,902.523,196.222,129.776,2.14408,0.910333,37.2796,
2026_06_10_19_19_28.203,3.847,30,0,0.759,0,0,0,0.009, ,0,0,0,0,0, ,965.5,-1.9,128.4,1.8,-27.9,3,25,905.648,183.893,129.607,2.01343,-0.717328,35.34,
2026_06_10_19_19_28.230,3.847,30,0,0.759,0,0,0,0.008, ,0,0,0,0,0, ,1015.6,-1.8,130.7,0,-23.3,2.9,25,910.821,172.574,129.603,1.94558,-2.23362,33.3662,
2026_06_10_19_19_28.243,3.847,30,0,0.756,0,0,0,0.008, ,0,0,0,0,0, ,1026.6,11.2,131.4,-3,-14.8,8.1,25,917.542,162.344,129.692,1.73561,-3.25836,31.6681,
2026_06_10_19_19_28.263,3.847,30,0,0.758,0,0,0,0.008, ,0,0,0,0,0, ,1014.2,14.7,103.5,-2.1,-0.7,11.8,25,923.81,153.241,128.946,1.47446,-3.53207,30.3446,
2026_06_10_19_19_28.282,3.847,30,0,0.76,0,0,0,0.008, ,0,0,0,0,0, ,985.3,-10.9,76.9,1.9,2.2,8.3,25,928.437,144.018,126.585,1.37852,-3.27113,29.1079,
2026_06_10_19_19_28.303,3.847,30,0,0.759,0,0,0,0.008, ,0,0,0,0,0, ,953.6,-1.2,97.5,0.9,-6.8,3.4,25,930.936,134.874,124.185,1.37983,-3.21196,27.6907,
