UTC_Time,Vin,TC1,TC2,Rh1,Vh1,Ah1,Acp1,Dty1,Err1,Rh2,Vh2,Ah2,Acp2,Dty2,Err2,Accel_x,Accel_y,Accel_z,gyro_x,gyro_y,gyro_z,Temp_c,Accel_x_h,Accel_y_h,Accel_z_h,gyro_x_h,gyro_y_h,gyro_z_h,
2026_07_06_21_41_04.658,3.856,0,0,0.763,0,0,0,0, ,0,0,0,0,0, ,-40.2,369.5,929.4,-0.6,-0.4,-1.7,25,-40.2,369.5,929.4,-0.6,-0.4,-1.7,
2026_07_06_21_41_04.678,3.856,36.8,0,0.763,0,0,0,0, ,0,0,0,0,0, ,-40.5,371,927.7,-0.6,-0.5,-1.8,25,-40.2091,369.546,929.348,-0.6,-0.403047,-1.70305,
2026_07_06_21_41_04.702,3.856,36.7,0,0.766,0,0,0,0, ,0,0,0,0,0, ,-40.6,368,928.7,-0.7,-0.5,-1.7,25,-40.2299,369.543,929.278,-0.603047,-0.408955,-1.70591,
2026_07_06_21_41_04.717,3.856,36.7,0,0.765,0,0,0,0, ,0,0,0,0,0, ,-39.9,369.9,929.3,-0.9,-0.4,-1.8,25,-40.2311,369.507,929.261,-0.615049,-0.411456,-1.70859,
2026_07_06_21_41_04.737,3.856,36.9,0,0.764,0,0,0,0, ,0,0,0,0,0, ,-40.8,370.1,930,-0.7,-0.5,-1.7,25,-40.2384,369.537,929.285,-0.626319,-0.413805,-1.71112,
2026_07_06_21_41_04.757,3.856,36.8,0,0.764,0,0,0,0, ,0,0,0,0,0, ,-40.6,369.1,927.6,-0.7,-0.5,-1.7,25,-40.2665,369.541,929.255,-0.630809,-0.419057,-1.71044,
2026_07_06_21_41_04.777,3.856,36.8,0,0.765,0,0,0,0, ,0,0,0,0,0, ,-40.1,369.6,928.7,-0.7,-0.5,-1.7,25,-40.2716,369.529,929.188,-0.635025,-0.42399,-1.7098,
2026_07_06_21_41_04.797,3.856,36.8,0,0.765,0,0,0,0, ,0,0,0,0,0, ,-40.8,368.6,930.1,-0.7,-0.5,-1.8,25,-40.2825,369.503,929.201,-0.638985,-0.428622,-1.71225,
2026_07_06_21_41_04.816,3.856,36.8,0,0.766,0,0,0,0, ,0,0,0,0,0, ,-40.7,371.2,929.5,-0.6,-0.5,-1.8,25,-40.311,369.527,929.237,-0.639656,-0.432971,-1.7176,
2026_07_06_21_41_04.841,3.856,36.8,0,0.765,0,0,0,0, ,0,0,0,0,0, ,-41.2,369.6,928.7,-0.7,-0.5,-1.7,25,-40.3499,369.58,929.229,-0.640286,-0.437056,-1.71958,
2026_07_06_21_41_04.856,3.856,36.8,0,0.765,0,0,0,0, ,0,0,0,0,0, ,-41.5,368.4,929.1,-0.7,-0.5,-1.7,25,-40.4108,369.545,929.209,-0.643925,-0.440892,-1.71838,
2026_07_06_21_41_04.876,3.856,36.7,0,0.765,0,0,0,0, ,0,0,0,0,0, ,-40.5,370.6,927.7,-0.8,-0.5,-1.7,25,-40.4467,369.542,929.16,-0.650389,-0.444493,-1.71726,
2026_07_06_21_41_04.896,3.856,36.8,0,0.764,0,0,0,0, ,0,0,0,0,0, ,-40.4,370.8,928.2,-0.6,-0.5,-1.7,25,-40.4469,369.613,929.086,-0.653412,-0.447876,-1.71621,
2026_07_06_21_41_04.916,3.856,36.8,0,0.765,0,0,0,0, ,0,0,0,0,0, ,-41,369,928.1,-0.7,-0.4,-1.7,25,-40.4624,369.63,929.029,-0.653204,-0.448005,-1.71522,
2026_07_06_21_41_04.935,3.856,36.8,0,0.764,0,0,0,0, ,0,0,0,0,0, ,-40.6,370.7,929.3,-0.7,-0.5,-1.7,25,-40.4829,369.644,929.009,-0.656056,-0.448127,-1.71429,
2026_07_06_21_41_04.955,3.856,36.8,0,0.765,0,0,0,0, ,0,0,0,0,0, ,-42.2,369.7,929.1,-0.7,-0.5,-1.7,25,-40.5388,369.678,929.021,-0.658734,-0.451288,-1.71342,
2026_07_06_21_41_04.977,3.856,36.8,0,0.765,0,0,0,0, ,0,0,0,0,0, ,-39.9,371.4,930.5,-0.7,-0.5,-1.8,25,-40.57,369.731,929.068,-0.661248,-0.454256,-1.71565,
2026_07_06_21_41_04.994,3.856,36.8,0,0.765,0,0,0,0, ,0,0,0,0,0, ,-41.2,369,928.7,-0.8,-0.5,-1.7,25,-40.5688,369.759,929.1,-0.666657,-0.457044,-1.71775,
2026_07_06_21_41_05.014,3.856,36.8,0,0.765,0,0,0,0, ,0,0,0,0,0, ,-41,369.8,930.1,-0.7,-0.5,-1.7,25,-40.6011,369.737,929.119,-0.671735,-0.459661,-1.71666,
2026_07_06_21_41_05.034,3.856,36.7,0,0.765,0,0,0,0, ,0,0,0,0,0, ,-41.3,370.2,931,-0.8,-0.5,-1.7,25,-40.6346,369.753,929.206,-0.676505,-0.46212,-1.71565,
2026_07_06_21_41_05.054,3.856,36.8,0,0.765,0,0,0,0, ,0,0,0,0,0, ,-41.3,369.7,929.4,-0.7,-0.5,-1.8,25,-40.6751,369.765,929.267,-0.680983,-0.464428,-1.71774,
2026_07_06_21_41_05.074,3.856,36.8,0,0.764,0,0,0,0, ,0,0,0,0,0, ,-41.3,369.8,930.1,-0.7,-0.4,-1.8,25,-40.7132,369.764,929.296,-0.682142,-0.463549,-1.72275,
2026_07_06_21_41_05.094,3.856,36.8,0,0.765,0,0,0,0, ,0,0,0,0,0, ,-40.2,369.5,928.9,-0.6,-0.5,-1.7,25,-40.7154,369.757,929.308,-0.680184,-0.462723,-1.72441,
2026_07_06_21_41_05.113,3.856,36.8,0,0.765,0,0,0,0, ,0,0,0,0,0, ,-41.9,369.1,928.9,-0.7,-0.5,-1.7,25,-40.7358,369.73,929.284,-0.678344,-0.464995,-1.72293,
2026_07_06_21_41_05.133,3.856,36.8,0,0.765,0,0,0,0, ,0,0,0,0,0, ,-40.8,369.9,930,-0.7,-0.5,-1.7,25,-40.7733,369.716,929.294,-0.679664,-0.467128,-1.72153,
2026_07_06_21_41_05.153,3.856,36.6,0,0.765,0,0,0,0, ,0,0,0,0,0, ,-40.2,368.8,929.8,-0.6,-0.5,-1.7,25,-40.7566,369.693,929.331,-0.677856,-0.469131,-1.72022,
2026_07_06_21_41_05.173,3.856,36.8,0,0.765,0,0,0,0, ,0,0,0,0,0, ,-40,369.8,929.1,-0.7,-0.5,-1.8,25,-40.7166,369.669,929.338,-0.676159,-0.471012,-1.72203,
2026_07_06_21_41_05.193,3.856,36.8,0,0.765,0,0,0,0, ,0,0,0,0,0, ,-41.6,369.6,928.3,-0.6,-0.5,-1.6,25,-40.7217,369.671,929.299,-0.674565,-0.472778,-1.72069,
2026_07_06_21_41_05.212,3.856,36.8,0,0.764,0,0,0,0, ,0,0,0,0,0, ,-40.4,369,929.4,-0.5,-0.5,-1.7,25,-40.7386,369.649,929.272,-0.666974,-0.474437,-1.71638,
2026_07_06_21_41_05.232,3.856,36.7,0,0.764,0,0,0,0, ,0,0,0,0,0, ,-40.6,370.1,928.7,-0.7,-0.4,-1.7,25,-40.7241,369.643,929.258,-0.662893,-0.472948,-1.71538,
2026_07_06_21_41_05.252,3.856,36.7,0,0.766,0,0,0,0, ,0,0,0,0,0, ,-42.3,368.5,928.4,-0.7,-0.5,-1.8,25,-40.7683,369.622,929.215,-0.665154,-0.47155,-1.71749,
2026_07_06_21_41_05.275,3.856,36.8,0,0.765,0,0,0,0, ,0,0,0,0,0, ,-40.7,369.3,927.3,-0.7,-0.5,-1.7,25,-40.8129,369.578,929.132,-0.667277,-0.473283,-1.71947,
2026_07_06_21_41_05.292,3.856,36.8,0,0.766,0,0,0,0, ,0,0,0,0,0, ,-39.7,368.4,928.8,-0.6,-0.5,-1.7,25,-40.7756,369.533,929.066,-0.666225,-0.474911,-1.71829,
2026_07_06_21_41_05.312,3.856,36.8,0,0.765,0,0,0,0, ,0,0,0,0,0, ,-40.2,370.4,929.5,-0.7,-0.5,-1.7,25,-40.7253,369.525,929.071,-0.665236,-0.47644,-1.71717,
2026_07_06_21_41_05.331,3.856,36.8,0,0.764,0,0,0,0, ,0,0,0,0,0, ,-40.1,368.7,927.8,-0.8,-0.5,-1.8,25,-40.6902,369.527,929.045,-0.670401,-0.477876,-1.71917,
2026_07_06_21_41_05.351,3.856,36.7,0,0.765,0,0,0,0, ,0,0,0,0,0, ,-41.1,369.6,929,-0.8,-0.5,-1.8,25,-40.6847,369.504,929.006,-0.678299,-0.479224,-1.7241,
2026_07_06_21_41_05.370,3.856,36.9,0,0.765,0,0,0,0, ,0,0,0,0,0, ,-39.6,369.5,930.2,-0.7,-0.5,-1.8,25,-40.6643,369.507,929.042,-0.682668,-0.48049,-1.72872,
2026_07_06_21_41_05.391,3.856,36.8,0,0.766,0,0,0,0, ,0,0,0,0,0, ,-40,369.5,927.8,-0.8,-0.5,-1.8,25,-40.6116,369.506,929.04,-0.686771,-0.481679,-1.73307,
2026_07_06_21_41_05.410,3.856,36.8,0,0.764,0,0,0,0, ,0,0,0,0,0, ,-39.9,370.7,928.2,-0.8,-0.5,-1.7,25,-40.5713,369.542,928.976,-0.693671,-0.482795,-1.7341,
2026_07_06_21_41_05.430,3.856,36.9,0,0.767,0,0,0,0, ,0,0,0,0,0, ,-40.7,369.7,930.4,-0.7,-0.5,-1.8,25,-40.5548,369.582,928.996,-0.697103,-0.483844,-1.73507,
2026_07_06_21_41_05.450,3.856,36.7,0,0.765,0,0,0,0, ,0,0,0,0,0, ,-39.7,369.3,929.3,-0.7,-0.5,-1.7,25,-40.5332,369.577,929.048,-0.69728,-0.484828,-1.73598,
2026_07_06_21_41_05.470,3.856,36.8,0,0.765,0,0,0,0, ,0,0,0,0,0, ,-40.7,369.3,928.4,-0.7,-0.5,-1.7,25,-40.5129,369.561,929.036,-0.697446,-0.485753,-1.73379,
2026_07_06_21_41_05.490,3.856,36.7,0,0.765,0,0,0,0, ,0,0,0,0,0, ,-41.1,369.3,928.3,-0.6,-0.5,-1.8,25,-40.5365,369.545,928.994,-0.694554,-0.486621,-1.73477,
2026_07_06_21_41_05.509,3.856,36.7,0,0.765,0,0,0,0, ,0,0,0,0,0, ,-41.9,368.5,928.9,-0.7,-0.5,-1.8,25,-40.5952,369.505,928.97,-0.691839,-0.487436,-1.73875,
2026_07_06_21_41_05.537,3.856,36.8,0,0.764,0,0,0,0, ,0,0,0,0,0, ,-39.6,369.9,928.3,-0.7,-0.4,-1.8,25,-40.6046,369.487,928.948,-0.692337,-0.485155,-1.74248,
2026_07_06_21_41_05.549,3.856,36.7,0,0.764,0,0,0,0, ,0,0,0,0,0, ,-41.1,369.9,929.4,-0.7,-0.5,-1.6,25,-40.5891,369.512,928.942,-0.692804,-0.483013,-1.73989,
2026_07_06_21_41_05.569,3.856,36.9,0,0.764,0,0,0,0, ,0,0,0,0,0, ,-41.7,370.2,928.9,-0.7,-0.6,-1.8,25,-40.6385,369.545,928.954,-0.693242,-0.487095,-1.73746,
2026_07_06_21_41_05.589,3.856,36.7,0,0.764,0,0,0,0, ,0,0,0,0,0, ,-40,368.8,929.6,-0.8,-0.4,-1.7,25,-40.6514,369.542,928.972,-0.696701,-0.487881,-1.73823,
2026_07_06_21_41_05.608,3.856,36.7,0,0.765,0,0,0,0, ,0,0,0,0,0, ,-40,370.1,929.6,-0.7,-0.5,-1.7,25,-40.6117,369.536,929.011,-0.699949,-0.485573,-1.7359,
2026_07_06_21_41_05.628,3.856,36.9,0,0.764,0,0,0,0, ,0,0,0,0,0, ,-40.8,369.1,930.6,-0.7,-0.5,-1.8,25,-40.5988,369.54,929.077,-0.699952,-0.486452,-1.73676,
2026_07_06_21_41_05.648,3.856,36.7,0,0.765,0,0,0,0, ,0,0,0,0,0, ,-40.4,371.3,928.9,-0.7,-0.5,-1.8,25,-40.5989,369.58,929.118,-0.699955,-0.487278,-1.74061,
2026_07_06_21_41_05.668,3.856,36.8,0,0.765,0,0,0,0, ,0,0,0,0,0, ,-41.2,368.8,929.9,-0.6,-0.4,-1.7,25,-40.6111,369.609,929.135,-0.696911,-0.485006,-1.74118,
2026_07_06_21_41_05.687,3.856,36.8,0,0.766,0,0,0,0, ,0,0,0,0,0, ,-39.6,368.1,929.5,-0.7,-0.5,-1.8,25,-40.5983,369.538,929.17,-0.694052,-0.482873,-1.74172,
2026_07_06_21_41_05.707,3.856,36.8,0,0.765,0,0,0,0, ,0,0,0,0,0, ,-41.1,369.3,929.8,-0.5,-0.4,-1.7,25,-40.5831,369.487,929.199,-0.688321,-0.48087,-1.74222,
2026_07_06_21_41_05.727,3.856,36.8,0,0.765,0,0,0,0, ,0,0,0,0,0, ,-41,370.4,929.5,-0.6,-0.5,-1.7,25,-40.6116,369.509,929.226,-0.679892,-0.478989,-1.73965,
2026_07_06_21_41_05.747,3.856,36.7,0,0.765,0,0,0,0, ,0,0,0,0,0, ,-40.5,369,927.3,-0.5,-0.5,-1.7,25,-40.62,369.521,929.176,-0.671977,-0.480269,-1.73723,
2026_07_06_21_41_05.767,3.856,36.8,0,0.765,0,0,0,0, ,0,0,0,0,0, ,-40.7,370.1,928.7,-0.6,-0.5,-1.7,25,-40.6188,369.523,929.104,-0.664544,-0.481471,-1.73497,
2026_07_06_21_41_05.786,3.856,36.7,0,0.766,0,0,0,0, ,0,0,0,0,0, ,-41.3,368.6,926.1,-0.5,-0.5,-1.8,25,-40.642,369.512,929.001,-0.657564,-0.4826,-1.73588,
2026_07_06_21_41_05.806,3.856,36.7,0,0.764,0,0,0,0, ,0,0,0,0,0, ,-40.7,368.6,929.4,-0.9,-0.5,-1.7,25,-40.6638,369.457,928.924,-0.66015,-0.483661,-1.73674,
2026_07_06_21_41_05.826,3.856,36.8,0,0.765,0,0,0,0, ,0,0,0,0,0, ,-42.1,369.3,927.1,-0.6,-0.5,-1.7,25,-40.7087,369.426,928.883,-0.665625,-0.484656,-1.7345,
2026_07_06_21_41_05.846,3.856,36.8,0,0.765,0,0,0,0, ,0,0,0,0,0, ,-41.7,369.5,930.6,-0.9,-0.5,-1.8,25,-40.7813,369.424,928.881,-0.670766,-0.485591,-1.73545,
2026_07_06_21_41_05.866,3.856,36.7,0,0.765,0,0,0,0, ,0,0,0,0,0, ,-41.1,370.6,928.8,-0.7,-0.5,-1.7,25,-40.819,369.462,928.931,-0.678642,-0.486469,-1.73633,
2026_07_06_21_41_05.885,3.856,36.7,0,0.765,0,0,0,0, ,0,0,0,0,0, ,-41.3,370.3,929.9,-0.5,-0.6,-1.6,25,-40.8422,369.523,928.957,-0.673849,-0.490341,-1.73107,
2026_07_06_21_41_05.905,3.856,36.8,0,0.765,0,0,0,0, ,0,0,0,0,0, ,-40.4,369.8,928.2,-0.8,-0.5,-1.7,25,-40.8427,369.555,928.962,-0.672396,-0.493976,-1.72613,
2026_07_06_21_41_05.925,3.856,36.7,0,0.766,0,0,0,0, ,0,0,0,0,0, ,-40.8,370.7,928.5,-0.8,-0.5,-1.7,25,-40.8279,369.597,928.925,-0.680172,-0.494343,-1.72454,
2026_07_06_21_41_05.945,3.856,36.8,0,0.764,0,0,0,0, ,0,0,0,0,0, ,-40.4,371.7,929.6,-0.7,-0.5,-1.7,25,-40.814,369.695,928.933,-0.684427,-0.494688,-1.72304,
2026_07_06_21_41_05.965,3.856,36.7,0,0.765,0,0,0,0, ,0,0,0,0,0, ,-41.2,370.2,927.9,-0.6,-0.5,-1.8,25,-40.8132,369.771,928.921,-0.682329,-0.495012,-1.72469,
2026_07_06_21_41_05.985,3.856,36.8,0,0.763,0,0,0,0, ,0,0,0,0,0, ,-40.4,370.2,929.6,-1,-0.5,-1.8,25,-40.8124,369.797,928.911,-0.6895,-0.495316,-1.72928,
2026_07_06_21_41_06.005,3.856,36.8,0,0.765,0,0,0,0, ,0,0,0,0,0, ,-40.6,370.2,928.9,-0.6,-0.5,-1.7,25,-40.7933,369.822,928.932,-0.696233,-0.495601,-1.73054,
2026_07_06_21_41_06.025,3.856,36.7,0,0.764,0,0,0,0, ,0,0,0,0,0, ,-40,370.8,930.9,-0.7,-0.5,-1.8,25,-40.7633,369.863,928.991,-0.693416,-0.495869,-1.73173,
2026_07_06_21_41_06.044,3.856,36.7,0,0.763,0,0,0,0, ,0,0,0,0,0, ,-40.4,370.6,929,-0.7,-0.5,-1.6,25,-40.7289,369.914,929.049,-0.693817,-0.496121,-1.72979,
2026_07_06_21_41_06.063,3.856,36.8,0,0.764,0,0,0,0, ,0,0,0,0,0, ,-41.1,369.8,929.9,-0.8,-0.4,-1.8,25,-40.7302,369.932,929.074,-0.697241,-0.49331,-1.72798,
2026_07_06_21_41_06.084,3.856,36.6,0,0.765,0,0,0,0, ,0,0,0,0,0, ,-39.7,369.6,928.1,-0.6,-0.5,-1.7,25,-40.7101,369.918,929.069,-0.697409,-0.490671,-1.72932,
2026_07_06_21_41_06.104,3.856,36.8,0,0.765,0,0,0,0, ,0,0,0,0,0, ,-42.1,369.8,929.1,-0.6,-0.5,-1.8,25,-40.7217,369.904,929.041,-0.691473,-0.49124,-1.73058,
2026_07_06_21_41_06.123,3.856,36.8,0,0.765,0,0,0,0, ,0,0,0,0,0, ,-41.5,370.6,927.8,-0.7,-0.5,-1.7,25,-40.7874,369.922,929.005,-0.688946,-0.491774,-1.73176,
2026_07_06_21_41_06.143,3.856,36.8,0,0.763,0,0,0,0, ,0,0,0,0,0, ,-41,369.2,929.1,-0.6,-0.5,-1.8,25,-40.8156,369.921,928.971,-0.686573,-0.492275,-1.73287,
2026_07_06_21_41_06.162,3.856,36.8,0,0.765,0,0,0,0, ,0,0,0,0,0, ,-41.6,370.4,928.4,-0.6,-0.5,-1.7,25,-40.8451,369.914,928.957,-0.681297,-0.492746,-1.73392,
2026_07_06_21_41_06.182,3.856,36.8,0,0.765,0,0,0,0, ,0,0,0,0,0, ,-40.5,369.6,929.1,-0.8,-0.5,-1.8,25,-40.8576,369.919,928.945,-0.682437,-0.493188,-1.7349,
2026_07_06_21_41_06.203,3.856,36.7,0,0.765,0,0,0,0, ,0,0,0,0,0, ,-41.1,371,929.1,-0.7,-0.5,-1.7,25,-40.8541,369.942,928.954,-0.686554,-0.493603,-1.73582,
2026_07_06_21_41_06.222,3.856,36.7,0,0.763,0,0,0,0, ,0,0,0,0,0, ,-41.9,370.4,929.5,-0.6,-0.4,-1.8,25,-40.8934,369.988,928.975,-0.684326,-0.490946,-1.73668,
2026_07_06_21_41_06.242,3.856,36.7,0,0.764,0,0,0,0, ,0,0,0,0,0, ,-40.5,369.5,928.7,-0.7,-0.5,-1.8,25,-40.9121,369.986,928.983,-0.682235,-0.488451,-1.74054,
2026_07_06_21_41_06.262,3.856,36.7,0,0.765,0,0,0,0, ,0,0,0,0,0, ,-40.4,370.1,929,-0.7,-0.5,-1.7,25,-40.884,369.975,928.975,-0.683317,-0.489154,-1.74112,
2026_07_06_21_41_06.288,3.856,36.7,0,0.764,0,0,0,0, ,0,0,0,0,0, ,-40.6,370.7,927.9,-0.6,-0.4,-1.6,25,-40.8606,370.001,928.943,-0.681287,-0.486768,-1.73556,
2026_07_06_21_41_06.302,3.856,36.7,0,0.765,0,0,0,0, ,0,0,0,0,0, ,-40.2,370.2,929.1,-0.7,-0.5,-1.7,25,-40.8325,370.028,928.916,-0.67938,-0.484528,-1.73035,
2026_07_06_21_41_06.321,3.856,36.8,0,0.765,0,0,0,0, ,0,0,0,0,0, ,-40.8,370.1,928.9,-0.7,-0.5,-1.8,25,-40.8122,370.035,928.921,-0.680637,-0.485471,-1.73155,
2026_07_06_21_41_06.341,3.856,36.7,0,0.765,0,0,0,0, ,0,0,0,0,0, ,-41.6,370.4,928.3,-0.7,-0.5,-1.7,25,-40.8359,370.048,928.901,-0.681817,-0.486356,-1.73267,
2026_07_06_21_41_06.361,3.856,36.7,0,0.765,0,0,0,0, ,0,0,0,0,0, ,-41.1,370.3,929,-0.7,-0.5,-1.7,25,-40.8672,370.067,928.886,-0.682925,-0.487187,-1.73068,
2026_07_06_21_41_06.380,3.856,36.7,0,0.765,0,0,0,0, ,0,0,0,0,0, ,-42.1,369.1,929,-0.7,-0.5,-1.8,25,-40.9118,370.044,928.893,-0.683965,-0.487968,-1.73186,
2026_07_06_21_41_06.400,3.856,36.8,0,0.765,0,0,0,0, ,0,0,0,0,0, ,-40.1,368.6,929,-0.8,-0.5,-1.7,25,-40.9233,369.972,928.899,-0.687989,-0.488701,-1.73296,
2026_07_06_21_41_06.420,3.856,36.8,0,0.765,0,0,0,0, ,0,0,0,0,0, ,-39.5,369.6,929,-0.8,-0.5,-1.7,25,-40.8549,369.919,928.906,-0.694815,-0.48939,-1.73096,
2026_07_06_21_41_06.440,3.856,36.7,0,0.765,0,0,0,0, ,0,0,0,0,0, ,-40.2,369.3,929.1,-0.7,-0.4,-1.7,25,-40.7936,369.89,928.914,-0.698178,-0.48699,-1.72907,
2026_07_06_21_41_06.459,3.856,36.7,0,0.765,0,0,0,0, ,0,0,0,0,0, ,-39.5,369.5,928.9,-0.6,-0.4,-1.7,25,-40.7361,369.86,928.92,-0.695242,-0.481689,-1.7273,
2026_07_06_21_41_06.479,3.856,36.7,0,0.764,0,0,0,0, ,0,0,0,0,0, ,-41.1,370.3,928.8,-0.8,-0.5,-1.8,25,-40.7095,369.863,928.915,-0.695532,-0.479758,-1.72868,
2026_07_06_21_41_06.499,3.856,36.8,0,0.765,0,0,0,0, ,0,0,0,0,0, ,-40.7,371.2,927.7,-0.7,-0.5,-1.7,25,-40.7212,369.917,928.875,-0.698851,-0.480991,-1.72998,
2026_07_06_21_41_06.519,3.856,36.8,0,0.765,0,0,0,0, ,0,0,0,0,0, ,-40.5,370.2,928.4,-0.7,-0.5,-1.7,25,-40.7138,369.964,928.825,-0.698921,-0.48215,-1.72815,
2026_07_06_21_41_06.539,3.856,36.7,0,0.765,0,0,0,0, ,0,0,0,0,0, ,-41.2,369.8,928.4,-0.7,-0.5,-1.8,25,-40.7221,369.967,928.799,-0.698987,-0.483237,-1.72948,
2026_07_06_21_41_06.559,3.856,36.8,0,0.764,0,0,0,0, ,0,0,0,0,0, ,-41,370.1,928.7,-0.6,-0.4,-1.8,25,-40.7451,369.966,928.784,-0.696002,-0.481212,-1.73378,
2026_07_06_21_41_06.585,3.856,36.8,0,0.765,0,0,0,0, ,0,0,0,0,0, ,-40.6,369.7,930,-0.7,-0.5,-1.8,25,-40.7484,369.962,928.818,-0.693199,-0.47931,-1.73782,
2026_07_06_21_41_06.599,3.856,36.7,0,0.764,0,0,0,0, ,0,0,0,0,0, ,-40.1,368.8,929.1,-0.7,-0.5,-1.7,25,-40.7242,369.918,928.863,-0.693613,-0.480571,-1.73856,
2026_07_06_21_41_06.619,3.856,36.7,0,0.765,0,0,0,0, ,0,0,0,0,0, ,-40.5,369,928.3,-0.6,-0.5,-1.7,25,-40.6983,369.856,928.853,-0.690955,-0.481755,-1.73621,
2026_07_06_21_41_06.638,3.856,36.7,0,0.764,0,0,0,0, ,0,0,0,0,0, ,-40.6,368.4,928.5,-0.6,-0.5,-1.7,25,-40.6893,369.786,928.825,-0.685413,-0.482867,-1.734,
2026_07_06_21_41_06.658,3.856,36.7,0,0.764,0,0,0,0, ,0,0,0,0,0, ,-41.8,369.7,928.7,-0.7,-0.4,-1.8,25,-40.7204,369.741,928.811,-0.683255,-0.480864,-1.73498,
2026_07_06_21_41_06.678,3.856,36.7,0,0.765,0,0,0,0, ,0,0,0,0,0, ,-39.9,369.8,929.1,-0.7,-0.5,-1.7,25,-40.7283,369.741,928.817,-0.684275,-0.478983,-1.73589,
2026_07_06_21_41_06.698,3.856,36.8,0,0.766,0,0,0,0, ,0,0,0,0,0, ,-41.1,370.7,929.4,-0.6,-0.5,-1.7,25,-40.7144,369.772,928.843,-0.682187,-0.480264,-1.73371,
2026_07_06_21_41_06.718,3.856,36.7,0,0.764,0,0,0,0, ,0,0,0,0,0, ,-40.6,368.1,927.9,-0.8,-0.5,-1.7,25,-40.7227,369.75,928.831,-0.683272,-0.481466,-1.73165,
2026_07_06_21_41_06.738,3.856,36.8,0,0.765,0,0,0,0, ,0,0,0,0,0, ,-41.6,369.7,928.2,-0.8,-0.5,-1.8,25,-40.7456,369.698,928.784,-0.690385,-0.482596,-1.73277,
2026_07_06_21_41_06.756,3.856,36.8,0,0.765,0,0,0,0, ,0,0,0,0,0, ,-40.6,370.7,928.9,-0.7,-0.5,-1.7,25,-40.7672,369.729,928.77,-0.694018,-0.483656,-1.73382,
2026_07_06_21_41_06.776,3.856,36.8,0,0.765,0,0,0,0, ,0,0,0,0,0, ,-41.3,369.3,929.1,-0.7,-0.4,-1.7,25,-40.7784,369.745,928.784,-0.694382,-0.481605,-1.73176,
2026_07_06_21_41_06.797,3.856,36.7,0,0.764,0,0,0,0, ,0,0,0,0,0, ,-41.5,368.7,928.4,-0.8,-0.4,-1.7,25,-40.8163,369.7,928.782,-0.697772,-0.476633,-1.72982,
2026_07_06_21_41_06.817,3.856,36.8,0,0.764,0,0,0,0, ,0,0,0,0,0, ,-39.7,370.7,929.8,-0.7,-0.5,-1.8,25,-40.8031,369.7,928.801,-0.700954,-0.47501,-1.73105,
2026_07_06_21_41_06.836,3.856,36.8,0,0.765,0,0,0,0, ,0,0,0,0,0, ,-41,368.8,928.9,-0.7,-0.4,-1.8,25,-40.7755,369.703,928.834,-0.700896,-0.473486,-1.73525,
2026_07_06_21_41_06.856,3.856,36.7,0,0.765,0,0,0,0, ,0,0,0,0,0, ,-41.2,368.5,929.3,-0.8,-0.5,-1.7,25,-40.7952,369.639,928.851,-0.703888,-0.472054,-1.73615,
2026_07_06_21_41_06.875,3.856,36.8,0,0.766,0,0,0,0, ,0,0,0,0,0, ,-42.1,369.5,927.9,-0.6,-0.5,-1.7,25,-40.8473,369.6,928.835,-0.703651,-0.473757,-1.73395,
2026_07_06_21_41_06.895,3.856,36.7,0,0.765,0,0,0,0, ,0,0,0,0,0, ,-40.6,370.3,928.8,-0.7,-0.5,-1.8,25,-40.878,369.618,928.806,-0.700382,-0.475357,-1.73493,
2026_07_06_21_41_06.915,3.856,36.7,0,0.765,0,0,0,0, ,0,0,0,0,0, ,-41.3,368.4,927.6,-0.8,-0.4,-1.8,25,-40.8824,369.602,928.769,-0.703406,-0.473811,-1.73889,
2026_07_06_21_41_06.935,3.856,36.8,0,0.765,0,0,0,0, ,0,0,0,0,0, ,-40.8,370.8,928.8,-0.8,-0.5,-1.8,25,-40.8926,369.602,928.734,-0.709292,-0.47236,-1.74262,
2026_07_06_21_41_06.955,3.856,36.7,0,0.766,0,0,0,0, ,0,0,0,0,0, ,-40.7,370.2,929.3,-0.7,-0.5,-1.7,25,-40.8839,369.656,928.753,-0.711773,-0.474045,-1.74307,
2026_07_06_21_41_06.974,3.856,36.7,0,0.765,0,0,0,0, ,0,0,0,0,0, ,-41.6,369.8,928.7,-0.7,-0.5,-1.7,25,-40.9001,369.677,928.768,-0.711055,-0.475626,-1.74044,
2026_07_06_21_41_06.994,3.856,36.7,0,0.764,0,0,0,0, ,0,0,0,0,0, ,-40.6,369.5,929.3,-0.7,-0.4,-1.7,25,-40.9123,369.676,928.783,-0.710381,-0.474065,-1.73798,
2026_07_06_21_41_07.014,3.856,36.6,0,0.765,0,0,0,0, ,0,0,0,0,0, ,-40.7,370.1,928.5,-0.8,-0.5,-1.7,25,-40.8963,369.683,928.79,-0.712796,-0.472598,-1.73566,
2026_07_06_21_41_07.034,3.856,36.8,0,0.765,0,0,0,0, ,0,0,0,0,0, ,-42.2,369.7,928.8,-0.6,-0.4,-1.8,25,-40.93,369.696,928.781,-0.712016,-0.471221,-1.73654,
2026_07_06_21_41_07.054,3.856,36.8,0,0.765,0,0,0,0, ,0,0,0,0,0, ,-40.7,370.8,927.6,-0.6,-0.5,-1.8,25,-40.9617,369.73,928.746,-0.70519,-0.469928,-1.7404,
2026_07_06_21_41_07.073,3.856,36.7,0,0.764,0,0,0,0, ,0,0,0,0,0, ,-41.5,369.8,930,-0.7,-0.5,-1.8,25,-40.9701,369.765,928.749,-0.701827,-0.471761,-1.74404,
2026_07_06_21_41_07.093,3.856,36.7,0,0.764,0,0,0,0, ,0,0,0,0,0, ,-40.1,369.9,929,-0.7,-0.5,-1.7,25,-40.9598,369.77,928.795,-0.701716,-0.473481,-1.7444,
2026_07_06_21_41_07.112,3.856,36.7,0,0.765,0,0,0,0, ,0,0,0,0,0, ,-40.8,369.9,929.6,-0.7,-0.5,-1.7,25,-40.9287,369.778,928.826,-0.701611,-0.475097,-1.74169,
2026_07_06_21_41_07.133,3.856,36.7,0,0.764,0,0,0,0, ,0,0,0,0,0, ,-40.2,369.5,927.6,-0.7,-0.5,-1.8,25,-40.9026,369.773,928.812,-0.701513,-0.476615,-1.7422,
2026_07_06_21_41_07.152,3.856,36.7,0,0.765,0,0,0,0, ,0,0,0,0,0, ,-40.4,370.4,929.3,-0.8,-0.5,-1.7,25,-40.8659,369.784,928.79,-0.704468,-0.47804,-1.74268,
2026_07_06_21_41_07.173,3.856,36.7,0,0.763,0,0,0,0, ,0,0,0,0,0, ,-41.2,369.3,929.1,-0.7,-0.5,-1.7,25,-40.8619,369.788,928.815,-0.707242,-0.479378,-1.74008,
2026_07_06_21_41_07.192,3.856,36.7,0,0.764,0,0,0,0, ,0,0,0,0,0, ,-40,369.6,929.5,-0.7,-0.5,-1.8,25,-40.8459,369.767,928.844,-0.706801,-0.480635,-1.74068,
2026_07_06_21_41_07.212,3.856,36.8,0,0.765,0,0,0,0, ,0,0,0,0,0, ,-40,369.3,930.1,-0.7,-0.4,-1.8,25,-40.7944,369.748,928.903,-0.706386,-0.478768,-1.74429,
2026_07_06_21_41_07.231,3.856,36.7,0,0.762,0,0,0,0, ,0,0,0,0,0, ,-41.3,370.9,927.9,-0.8,-0.5,-1.8,25,-40.7856,369.77,928.909,-0.709044,-0.477015,-1.74769,
2026_07_06_21_41_07.251,3.856,36.6,0,0.764,0,0,0,0, ,0,0,0,0,0, ,-40.8,371.2,928.3,-0.6,-0.5,-1.7,25,-40.8017,369.848,928.859,-0.708493,-0.478416,-1.74783,
2026_07_06_21_41_07.271,3.856,36.7,0,0.764,0,0,0,0, ,0,0,0,0,0, ,-41.7,369.5,928.1,-0.6,-0.5,-1.7,25,-40.829,369.878,928.819,-0.701882,-0.479731,-1.74492,
2026_07_06_21_41_07.291,3.856,36.7,0,0.766,0,0,0,0, ,0,0,0,0,0, ,-41.1,369.8,927.8,-0.8,-0.5,-1.8,25,-40.8638,369.864,928.766,-0.701767,-0.480966,-1.74523,
2026_07_06_21_41_07.311,3.856,36.7,0,0.765,0,0,0,0, ,0,0,0,0,0, ,-41.5,370.2,929.8,-0.8,-0.4,-1.9,25,-40.8904,369.873,928.768,-0.707753,-0.479079,-1.75161,
2026_07_06_21_41_07.330,3.856,36.7,0,0.764,0,0,0,0, ,0,0,0,0,0, ,-41,369.7,928.3,-0.6,-0.5,-1.7,25,-40.9123,369.877,928.785,-0.707281,-0.477307,-1.75456,
2026_07_06_21_41_07.350,3.856,36.6,0,0.764,0,0,0,0, ,0,0,0,0,0, ,-40.2,369.2,928.3,-0.7,-0.5,-1.7,25,-40.8933,369.851,928.756,-0.70379,-0.47869,-1.75123,
2026_07_06_21_41_07.375,3.856,36.7,0,0.764,0,0,0,0, ,0,0,0,0,0, ,-40.6,369.5,928.2,-0.7,-0.5,-1.8,25,-40.8632,369.821,928.725,-0.703559,-0.479988,-1.75116,
2026_07_06_21_41_07.390,3.856,36.6,0,0.764,0,0,0,0, ,0,0,0,0,0, ,-40.4,369.8,929.9,-0.6,-0.5,-1.7,25,-40.8411,369.81,928.745,-0.700295,-0.481208,-1.75109,
2026_07_06_21_41_07.410,3.856,36.7,0,0.764,0,0,0,0, ,0,0,0,0,0, ,-40.6,370.3,927.6,-0.6,-0.5,-1.7,25,-40.8203,369.825,928.745,-0.694184,-0.482353,-1.74798,
2026_07_06_21_41_07.430,3.856,36.7,0,0.764,0,0,0,0, ,0,0,0,0,0, ,-40.4,370.1,927.9,-0.7,-0.4,-1.8,25,-40.8008,369.848,928.684,-0.691491,-0.480382,-1.7481,
2026_07_06_21_41_07.449,3.856,36.6,0,0.764,0,0,0,0, ,0,0,0,0,0, ,-40.1,368.6,928.5,-0.8,-0.5,-1.7,25,-40.7672,369.817,928.655,-0.695057,-0.47853,-1.74821,
2026_07_06_21_41_07.470,3.856,36.7,0,0.765,0,0,0,0, ,0,0,0,0,0, ,-41.2,369.2,928.7,-0.7,-0.4,-1.8,25,-40.7601,369.762,928.652,-0.698405,-0.476792,-1.74832,
2026_07_06_21_41_07.489,3.856,36.8,0,0.765,0,0,0,0, ,0,0,0,0,0, ,-41,369.8,928.3,-0.7,-0.5,-1.8,25,-40.7808,369.746,928.642,-0.698502,-0.475159,-1.75147,
2026_07_06_21_41_07.509,3.856,36.6,0,0.765,0,0,0,0, ,0,0,0,0,0, ,-40.5,369.7,929.3,-0.7,-0.5,-1.7,25,-40.7789,369.746,928.652,-0.698593,-0.476673,-1.75138,
2026_07_06_21_41_07.529,3.856,36.7,0,0.765,0,0,0,0, ,0,0,0,0,0, ,-41.1,369.7,928.8,-0.6,-0.5,-1.7,25,-40.7802,369.743,928.676,-0.695632,-0.478094,-1.74825,
2026_07_06_21_41_07.550,3.856,36.7,0,0.764,0,0,0,0, ,0,0,0,0,0, ,-40.8,369.9,928.4,-0.6,-0.5,-1.7,25,-40.7905,369.747,928.672,-0.689804,-0.479429,-1.74531,
2026_07_06_21_41_07.568,3.856,36.8,0,0.764,0,0,0,0, ,0,0,0,0,0, ,-40.6,369.6,929.9,-0.6,-0.5,-1.7,25,-40.785,369.747,928.701,-0.684332,-0.480683,-1.74255,
2026_07_06_21_41_07.588,3.856,36.7,0,0.764,0,0,0,0, ,0,0,0,0,0, ,-40.8,369.7,928.4,-0.7,-0.4,-1.8,25,-40.7798,369.741,928.728,-0.68224,-0.478813,-1.743,
2026_07_06_21_41_07.609,3.856,36.7,0,0.764,0,0,0,0, ,0,0,0,0,0, ,-41.1,371.3,928.8,-0.7,-0.5,-1.8,25,-40.7902,369.787,928.72,-0.683322,-0.477057,-1.74648,
2026_07_06_21_41_07.628,3.856,36.7,0,0.764,0,0,0,0, ,0,0,0,0,0, ,-40.6,369.6,928.1,-0.7,-0.5,-1.7,25,-40.7938,369.827,928.704,-0.684338,-0.478455,-1.74669,
2026_07_06_21_41_07.647,3.856,36.6,0,0.764,0,0,0,0, ,0,0,0,0,0, ,-41.1,369.6,929.8,-0.8,-0.5,-1.7,25,-40.7973,369.814,928.719,-0.68834,-0.479768,-1.74385,
2026_07_06_21_41_07.667,3.856,36.7,0,0.766,0,0,0,0, ,0,0,0,0,0, ,-40.7,370.8,928.9,-0.7,-0.5,-1.8,25,-40.8035,369.837,928.757,-0.692097,-0.481001,-1.74422,
2026_07_06_21_41_07.687,3.856,36.7,0,0.764,0,0,0,0, ,0,0,0,0,0, ,-40.1,369.3,930.5,-0.6,-0.5,-1.7,25,-40.7789,369.85,928.815,-0.689532,-0.482159,-1.74457,
2026_07_06_21_41_07.713,3.856,36.7,0,0.765,0,0,0,0, ,0,0,0,0,0, ,-40.1,370.1,930,-0.8,-0.4,-1.8,25,-40.7376,369.841,928.902,-0.69017,-0.480199,-1.7449,
2026_07_06_21_41_07.727,3.856,36.6,0,0.764,0,0,0,0, ,0,0,0,0,0, ,-39.9,370.1,930.1,-0.8,-0.5,-1.8,25,-40.6926,369.857,928.972,-0.696863,-0.478359,-1.74826,
2026_07_06_21_41_07.746,3.856,36.7,0,0.765,0,0,0,0, ,0,0,0,0,0, ,-40.6,369.5,928.5,-0.7,-0.5,-1.8,25,-40.6656,369.853,928.992,-0.700101,-0.479678,-1.75141,
2026_07_06_21_41_07.766,3.856,36.6,0,0.765,0,0,0,0, ,0,0,0,0,0, ,-41.3,370.2,929,-0.7,-0.5,-1.7,25,-40.683,369.853,928.977,-0.700094,-0.480916,-1.75133,
2026_07_06_21_41_07.786,3.856,36.8,0,0.765,0,0,0,0, ,0,0,0,0,0, ,-40.8,370.2,928.4,-0.7,-0.5,-1.6,25,-40.7053,369.874,928.96,-0.700089,-0.482079,-1.74515,
2026_07_06_21_41_07.806,3.856,36.6,0,0.764,0,0,0,0, ,0,0,0,0,0, ,-40.1,370.3,929,-0.7,-0.6,-1.8,25,-40.6898,369.897,928.945,-0.700083,-0.486218,-1.7424,
2026_07_06_21_41_07.826,3.856,36.7,0,0.763,0,0,0,0, ,0,0,0,0,0, ,-40.2,370.8,928.2,-0.6,-0.5,-1.7,25,-40.6569,369.937,928.924,-0.697031,-0.490105,-1.74287,
2026_07_06_21_41_07.846,3.856,36.7,0,0.764,0,0,0,0, ,0,0,0,0,0, ,-41.6,369.5,928.5,-0.6,-0.5,-1.8,25,-40.6717,369.95,928.889,-0.691119,-0.490708,-1.7433,
2026_07_06_21_41_07.868,3.856,36.7,0,0.765,0,0,0,0, ,0,0,0,0,0, ,-40.6,370.1,929.4,-0.7,-0.5,-1.7,25,-40.6978,369.941,928.892,-0.688613,-0.491274,-1.74371,
2026_07_06_21_41_07.885,3.856,36.6,0,0.764,0,0,0,0, ,0,0,0,0,0, ,-40.1,370.7,928.2,-0.7,-0.4,-1.7,25,-40.6766,369.969,928.887,-0.689307,-0.488759,-1.74104,
2026_07_06_21_41_07.905,3.856,36.7,0,0.764,0,0,0,0, ,0,0,0,0,0, ,-41.6,370.7,928.8,-0.7,-0.5,-1.7,25,-40.6872,370.013,928.863,-0.689958,-0.486397,-1.73854,
2026_07_06_21_41_07.925,3.856,36.7,0,0.765,0,0,0,0, ,0,0,0,0,0, ,-40.8,370.1,930.1,-0.6,-0.5,-1.7,25,-40.7184,370.037,928.899,-0.687523,-0.487226,-1.73619,
2026_07_06_21_41_07.944,3.856,36.7,0,0.764,0,0,0,0, ,0,0,0,0,0, ,-40.7,369.7,928.5,-0.7,-0.5,-1.7,25,-40.7203,370.029,928.923,-0.685237,-0.488004,-1.73399,
2026_07_06_21_41_07.964,3.856,36.6,0,0.766,0,0,0,0, ,0,0,0,0,0, ,-40.7,368.8,929.1,-0.7,-0.5,-1.7,25,-40.7191,369.981,928.916,-0.686136,-0.488735,-1.73192,
2026_07_06_21_41_07.983,3.856,36.7,0,0.765,0,0,0,0, ,0,0,0,0,0, ,-40.6,370.1,929.4,-0.7,-0.5,-1.8,25,-40.7149,369.949,928.936,-0.686981,-0.489422,-1.73302,
2026_07_06_21_41_08.003,3.856,36.7,0,0.764,0,0,0,0, ,0,0,0,0,0, ,-39.7,369.5,929.4,-0.7,-0.5,-1.7,25,-40.6805,369.94,928.964,-0.687775,-0.490066,-1.73405,
2026_07_06_21_41_08.029,3.856,36.6,0,0.765,0,0,0,0, ,0,0,0,0,0, ,-40.8,369.8,928.9,-0.8,-0.5,-1.8,25,-40.6542,369.922,928.976,-0.691566,-0.490672,-1.73503,
2026_07_06_21_41_08.043,3.856,36.7,0,0.764,0,0,0,0, ,0,0,0,0,0, ,-40.7,370.7,928.8,-0.9,-0.5,-1.8,25,-40.6601,369.942,928.968,-0.701221,-0.49124,-1.73899,
2026_07_06_21_41_08.062,3.856,36.7,0,0.764,0,0,0,0, ,0,0,0,0,0, ,-40.5,371,929.9,-0.7,-0.4,-1.8,25,-40.6564,369.997,928.991,-0.70724,-0.488727,-1.7427,
2026_07_06_21_41_08.082,3.856,36.7,0,0.764,0,0,0,0, ,0,0,0,0,0, ,-41.1,368.7,929.9,-0.7,-0.5,-1.8,25,-40.6652,369.988,929.047,-0.706799,-0.486367,-1.7462,
2026_07_06_21_41_08.102,3.856,36.7,0,0.765,0,0,0,0, ,0,0,0,0,0, ,-39.7,369.7,928.1,-0.7,-0.5,-1.7,25,-40.649,369.94,929.044,-0.706385,-0.487198,-1.74643,
2026_07_06_21_41_08.122,3.856,36.7,0,0.764,0,0,0,0, ,0,0,0,0,0, ,-41.3,370.7,928.8,-0.7,-0.5,-1.7,25,-40.6399,369.956,929.008,-0.705996,-0.487978,-1.7436,
2026_07_06_21_41_08.142,3.856,36.7,0,0.768,0,0,0,0, ,0,0,0,0,0, ,-40.4,369.9,928.5,-0.6,-0.5,-1.7,25,-40.6527,369.977,928.986,-0.702583,-0.488711,-1.74094,
2026_07_06_21_41_08.162,3.856,36.6,0,0.766,0,0,0,0, ,0,0,0,0,0, ,-41.1,370.4,928.2,-0.7,-0.5,-1.8,25,-40.6587,369.988,928.947,-0.699379,-0.489399,-1.74149,
2026_07_06_21_41_08.182,3.856,36.8,0,0.765,0,0,0,0, ,0,0,0,0,0, ,-40.2,369.6,930.4,-0.7,-0.6,-1.7,25,-40.6581,369.988,928.969,-0.699417,-0.493091,-1.74201,
2026_07_06_21_41_08.201,3.856,36.6,0,0.763,0,0,0,0, ,0,0,0,0,0, ,-39.6,369.7,928.2,-0.7,-0.5,-1.8,25,-40.6119,369.968,928.989,-0.699453,-0.496559,-1.7425,
2026_07_06_21_41_08.221,3.856,36.6,0,0.765,0,0,0,0, ,0,0,0,0,0, ,-40.4,370.7,928.9,-0.8,-0.5,-1.7,25,-40.5746,369.982,928.962,-0.702533,-0.496769,-1.74296,
2026_07_06_21_41_08.241,3.856,36.7,0,0.764,0,0,0,0, ,0,0,0,0,0, ,-39.9,370.6,928.4,-0.8,-0.5,-1.7,25,-40.5488,370.023,928.943,-0.708472,-0.496966,-1.74034,
2026_07_06_21_41_08.261,3.856,36.6,0,0.764,0,0,0,0, ,0,0,0,0,0, ,-40.1,370.9,930.2,-0.7,-0.5,-1.7,25,-40.5153,370.067,928.965,-0.711003,-0.497151,-1.73788,
2026_07_06_21_41_08.281,3.856,36.7,0,0.763,0,0,0,0, ,0,0,0,0,0, ,-40,370.4,928.9,-0.6,-0.5,-1.7,25,-40.487,370.102,929.001,-0.707285,-0.497324,-1.73557,
2026_07_06_21_41_08.300,3.856,36.7,0,0.764,0,0,0,0, ,0,0,0,0,0, ,-40.2,369.6,929.5,-0.7,-0.5,-1.8,25,-40.4634,370.096,929.013,-0.703795,-0.497487,-1.73645,
2026_07_06_21_41_08.320,3.856,36.7,0,0.765,0,0,0,0, ,0,0,0,0,0, ,-40.2,369.8,927.8,-0.6,-0.5,-1.7,25,-40.4473,370.072,928.991,-0.700516,-0.497641,-1.73728,
2026_07_06_21_41_08.340,3.856,36.7,0,0.764,0,0,0,0, ,0,0,0,0,0, ,-40.1,370.3,930.2,-0.7,-0.5,-1.7,25,-40.4292,370.071,928.991,-0.697438,-0.497784,-1.735,
2026_07_06_21_41_08.360,3.856,36.7,0,0.765,0,0,0,0, ,0,0,0,0,0, ,-41.2,369.6,928.3,-0.7,-0.5,-1.8,25,-40.4427,370.063,929.007,-0.697594,-0.497919,-1.73592,
2026_07_06_21_41_08.380,3.856,36.6,0,0.765,0,0,0,0, ,0,0,0,0,0, ,-41.1,368.8,928.7,-0.7,-0.4,-1.8,25,-40.4858,370.011,928.976,-0.697741,-0.494999,-1.73982,
2026_07_06_21_41_08.400,3.856,36.7,0,0.765,0,0,0,0, ,0,0,0,0,0, ,-41,369.9,928.4,-0.7,-0.5,-1.7,25,-40.5202,369.971,928.95,-0.697879,-0.492257,-1.74044,
2026_07_06_21_41_08.419,3.856,36.7,0,0.765,0,0,0,0, ,0,0,0,0,0, ,-40.2,369.5,928.1,-0.7,-0.5,-1.7,25,-40.525,369.954,928.907,-0.698008,-0.492729,-1.73798,
2026_07_06_21_41_08.439,3.856,36.7,0,0.764,0,0,0,0, ,0,0,0,0,0, ,-41,369.5,930.5,-0.7,-0.5,-1.7,25,-40.5296,369.926,928.931,-0.698129,-0.493172,-1.73566,
2026_07_06_21_41_08.458,3.856,36.6,0,0.763,0,0,0,0, ,0,0,0,0,0, ,-42.1,370.2,930.4,-0.7,-0.5,-1.7,25,-40.5918,369.922,929.024,-0.698243,-0.493588,-1.73349,
2026_07_06_21_41_08.478,3.856,36.6,0,0.763,0,0,0,0, ,0,0,0,0,0, ,-40.1,370.7,928.7,-0.7,-0.5,-1.8,25,-40.6227,369.954,929.056,-0.69835,-0.493979,-1.7345,
2026_07_06_21_41_08.499,3.856,36.7,0,0.764,0,0,0,0, ,0,0,0,0,0, ,-40.4,369.6,929.5,-0.7,-0.5,-1.8,25,-40.6,369.966,929.059,-0.698451,-0.494346,-1.73849,
2026_07_06_21_41_08.521,3.856,36.7,0,0.764,0,0,0,0, ,0,0,0,0,0, ,-41.2,369.6,930.5,-0.7,-0.4,-1.8,25,-40.6122,369.944,929.116,-0.698545,-0.491643,-1.74224,
2026_07_06_21_41_08.538,3.856,36.6,0,0.764,0,0,0,0, ,0,0,0,0,0, ,-40.6,370.7,928.3,-0.7,-0.5,-1.7,25,-40.6298,369.956,929.133,-0.698634,-0.489106,-1.74271,
2026_07_06_21_41_08.558,3.856,36.7,0,0.764,0,0,0,0, ,0,0,0,0,0, ,-40.1,370.1,929.3,-0.8,-0.5,-1.7,25,-40.6127,369.983,929.113,-0.701764,-0.48977,-1.74011,
2026_07_06_21_41_08.578,3.856,36.7,0,0.765,0,0,0,0, ,0,0,0,0,0, ,-41.1,369.6,929,-0.8,-0.5,-1.7,25,-40.6119,369.975,929.115,-0.70775,-0.490393,-1.73766,
2026_07_06_21_41_08.598,3.856,36.6,0,0.765,0,0,0,0, ,0,0,0,0,0, ,-40.7,370.3,929,-0.7,-0.4,-1.8,25,-40.6295,369.974,929.108,-0.710325,-0.487932,-1.73842,
2026_07_06_21_41_08.617,3.856,36.7,0,0.765,0,0,0,0, ,0,0,0,0,0, ,-40.4,369.8,929,-0.7,-0.5,-1.7,25,-40.6246,369.978,929.102,-0.709696,-0.48562,-1.73912,
2026_07_06_21_41_08.637,3.856,36.7,0,0.764,0,0,0,0, ,0,0,0,0,0, ,-39.4,369.9,929.4,-0.7,-0.5,-1.7,25,-40.5805,369.97,929.108,-0.709105,-0.486496,-1.73674,
2026_07_06_21_41_08.656,3.856,36.7,0,0.763,0,0,0,0, ,0,0,0,0,0, ,-41.1,370.3,928.1,-0.6,-0.5,-1.8,25,-40.5603,369.978,929.086,-0.705503,-0.487319,-1.73755,
2026_07_06_21_41_08.676,3.856,36.7,0,0.764,0,0,0,0, ,0,0,0,0,0, ,-41.7,369.6,926.5,-0.7,-0.5,-1.7,25,-40.6115,369.977,928.977,-0.702121,-0.488092,-1.7383,
2026_07_06_21_41_08.696,3.856,36.7,0,0.765,0,0,0,0, ,0,0,0,0,0, ,-40,369.6,927.6,-0.8,-0.5,-1.8,25,-40.626,369.954,928.86,-0.705039,-0.488818,-1.73902,
2026_07_06_21_41_08.716,3.856,36.7,0,0.763,0,0,0,0, ,0,0,0,0,0, ,-40.4,370.6,927.8,-0.6,-0.4,-1.7,25,-40.6001,369.963,928.789,-0.704731,-0.486452,-1.73969,
2026_07_06_21_41_08.736,3.856,36.7,0,0.764,0,0,0,0, ,0,0,0,0,0, ,-40.6,369.5,929.3,-0.6,-0.4,-1.7,25,-40.594,369.968,928.774,-0.698349,-0.481184,-1.73727,
2026_07_06_21_41_08.756,3.856,36.7,0,0.764,0,0,0,0, ,0,0,0,0,0, ,-42.4,369.2,928.9,-0.7,-0.5,-1.8,25,-40.6492,369.93,928.794,-0.695403,-0.479284,-1.73804,
2026_07_06_21_41_08.776,3.856,36.6,0,0.763,0,0,0,0, ,0,0,0,0,0, ,-39.9,369.1,929.8,-0.7,-0.5,-1.8,25,-40.6797,369.883,928.828,-0.695683,-0.480546,-1.74182,
2026_07_06_21_41_08.796,3.856,36.6,0,0.764,0,0,0,0, ,0,0,0,0,0, ,-41.9,370.7,928.8,-0.6,-0.5,-1.8,25,-40.6931,369.884,928.857,-0.692899,-0.481732,-1.74536,
2026_07_06_21_41_08.816,3.856,36.6,0,0.764,0,0,0,0, ,0,0,0,0,0, ,-40.7,368.5,928.4,-0.7,-0.5,-1.8,25,-40.7301,369.866,928.841,-0.690285,-0.482845,-1.74869,
2026_07_06_21_41_08.835,3.856,36.5,0,0.764,0,0,0,0, ,0,0,0,0,0, ,-40.7,371.3,927.7,-0.7,-0.5,-1.8,25,-40.7283,369.868,928.793,-0.690877,-0.48389,-1.75182,
2026_07_06_21_41_08.855,3.856,36.7,0,0.764,0,0,0,0, ,0,0,0,0,0, ,-41,370.6,928.1,-0.7,-0.5,-1.8,25,-40.7357,369.934,928.739,-0.691433,-0.484872,-1.75476,
2026_07_06_21_41_08.874,3.856,36.8,0,0.765,0,0,0,0, ,0,0,0,0,0, ,-40.5,370.9,929.1,-0.7,-0.5,-1.7,25,-40.7366,369.984,928.73,-0.691955,-0.485794,-1.75447,
2026_07_06_21_41_08.894,3.856,36.6,0,0.766,0,0,0,0, ,0,0,0,0,0, ,-40.8,370.1,929.5,-0.7,-0.5,-1.8,25,-40.7313,370.016,928.765,-0.692445,-0.486659,-1.75419,
2026_07_06_21_41_08.914,3.856,36.7,0,0.765,0,0,0,0, ,0,0,0,0,0, ,-40.8,370.2,927.6,-0.7,-0.5,-1.7,25,-40.7355,370.024,928.752,-0.692906,-0.487472,-1.75394,
2026_07_06_21_41_08.934,3.856,36.6,0,0.765,0,0,0,0, ,0,0,0,0,0, ,-40.2,369,927.9,-0.7,-0.5,-1.6,25,-40.7211,369.998,928.691,-0.693338,-0.488236,-1.74761,
2026_07_06_21_41_08.954,3.856,36.6,0,0.765,0,0,0,0, ,0,0,0,0,0, ,-40.8,369.2,928.7,-0.7,-0.5,-1.7,25,-40.7077,369.943,928.667,-0.693744,-0.488953,-1.74166,
2026_07_06_21_41_08.973,3.856,36.6,0,0.764,0,0,0,0, ,0,0,0,0,0, ,-40.8,369.5,928.5,-0.7,-0.4,-1.8,25,-40.7133,369.907,928.663,-0.694125,-0.486579,-1.74217,
2026_07_06_21_41_08.993,3.856,36.7,0,0.765,0,0,0,0, ,0,0,0,0,0, ,-40.7,369.9,928.4,-0.7,-0.5,-1.7,25,-40.7155,369.894,928.65,-0.694483,-0.48435,-1.74264,
2026_07_06_21_41_09.014,3.856,36.7,0,0.765,0,0,0,0, ,0,0,0,0,0, ,-39.6,370.2,927.7,-0.6,-0.4,-1.7,25,-40.6811,369.904,928.613,-0.691773,-0.482257,-1.74004,
2026_07_06_21_41_09.039,3.856,36.7,0,0.765,0,0,0,0, ,0,0,0,0,0, ,-40.5,369.7,928.7,-0.7,-0.5,-1.7,25,-40.6426,369.907,928.588,-0.689227,-0.480291,-1.7376,
2026_07_06_21_41_09.053,3.856,36.6,0,0.764,0,0,0,0, ,0,0,0,0,0, ,-41,370.1,928.9,-0.8,-0.4,-1.8,25,-40.6491,369.906,928.601,-0.69293,-0.478445,-1.73836,
2026_07_06_21_41_09.073,3.856,36.6,0,0.764,0,0,0,0, ,0,0,0,0,0, ,-41.3,370.4,929.3,-0.7,-0.5,-1.8,25,-40.6797,369.927,928.631,-0.696408,-0.476712,-1.74212,
2026_07_06_21_41_09.093,3.856,36.7,0,0.764,0,0,0,0, ,0,0,0,0,0, ,-42.1,370.9,927.2,-0.7,-0.5,-1.7,25,-40.7418,369.971,928.608,-0.696627,-0.478131,-1.7426,
2026_07_06_21_41_09.113,3.856,36.7,0,0.766,0,0,0,0, ,0,0,0,0,0, ,-40.6,369.3,928.4,-0.7,-0.5,-1.7,25,-40.7789,369.979,928.559,-0.696833,-0.479464,-1.74,
2026_07_06_21_41_09.132,3.856,36.7,0,0.764,0,0,0,0, ,0,0,0,0,0, ,-41.9,370.9,929.8,-0.7,-0.5,-1.6,25,-40.8076,369.986,928.592,-0.697026,-0.480715,-1.73452,
2026_07_06_21_41_09.152,3.856,36.6,0,0.763,0,0,0,0, ,0,0,0,0,0, ,-39.5,370.6,928.2,-0.7,-0.5,-1.8,25,-40.8011,370.033,928.617,-0.697207,-0.48189,-1.73241,
2026_07_06_21_41_09.171,3.856,36.7,0,0.764,0,0,0,0, ,0,0,0,0,0, ,-39.6,370.1,930.6,-0.7,-0.5,-1.8,25,-40.7248,370.052,928.665,-0.697377,-0.482994,-1.73653,
2026_07_06_21_41_09.192,3.856,36.6,0,0.765,0,0,0,0, ,0,0,0,0,0, ,-41.2,369.2,928.4,-0.7,-0.4,-1.8,25,-40.705,370.028,928.715,-0.697537,-0.480983,-1.7404,
2026_07_06_21_41_09.212,3.856,36.7,0,0.765,0,0,0,0, ,0,0,0,0,0, ,-40.1,369.8,929.3,-0.7,-0.5,-1.7,25,-40.7017,369.996,928.724,-0.697687,-0.479095,-1.74098,
2026_07_06_21_41_09.232,3.856,36.6,0,0.765,0,0,0,0, ,0,0,0,0,0, ,-40.4,370.3,928.8,-0.6,-0.5,-1.7,25,-40.6741,369.999,928.744,-0.694781,-0.480369,-1.73849,
2026_07_06_21_41_09.251,3.856,36.7,0,0.765,0,0,0,0, ,0,0,0,0,0, ,-40,369.9,930.2,-0.6,-0.5,-1.8,25,-40.6453,370.005,928.79,-0.689005,-0.481565,-1.73919,
2026_07_06_21_41_09.271,3.856,36.7,0,0.764,0,0,0,0, ,0,0,0,0,0, ,-40.8,370.6,928.9,-0.7,-0.5,-1.7,25,-40.6303,370.02,928.836,-0.686628,-0.482689,-1.73985,
2026_07_06_21_41_09.291,3.856,36.6,0,0.765,0,0,0,0, ,0,0,0,0,0, ,-40.8,370.7,928.5,-0.7,-0.5,-1.7,25,-40.6406,370.058,928.828,-0.687443,-0.483744,-1.73742,
2026_07_06_21_41_09.311,3.856,36.6,0,0.763,0,0,0,0, ,0,0,0,0,0, ,-40.4,369.7,928.1,-0.5,-0.5,-1.7,25,-40.6382,370.067,928.796,-0.682115,-0.484734,-1.73514,
2026_07_06_21_41_09.331,3.856,36.7,0,0.764,0,0,0,0, ,0,0,0,0,0, ,-40.1,369.7,928.9,-0.7,-0.5,-1.8,25,-40.6145,370.045,928.777,-0.677111,-0.485665,-1.73604,
2026_07_06_21_41_09.350,3.856,36.6,0,0.765,0,0,0,0, ,0,0,0,0,0, ,-41.6,369.9,927.8,-0.7,-0.4,-1.7,25,-40.6289,370.03,928.751,-0.678506,-0.483491,-1.73689,
2026_07_06_21_41_09.370,3.856,36.7,0,0.765,0,0,0,0, ,0,0,0,0,0, ,-41.5,370.2,928.3,-0.7,-0.5,-1.7,25,-40.685,370.031,928.709,-0.679815,-0.48145,-1.73465,
2026_07_06_21_41_09.393,3.856,36.6,0,0.766,0,0,0,0, ,0,0,0,0,0, ,-40.7,368.8,929.1,-0.7,-0.5,-1.7,25,-40.7103,369.999,928.708,-0.681045,-0.482581,-1.73254,
2026_07_06_21_41_09.409,3.856,36.7,0,0.765,0,0,0,0, ,0,0,0,0,0, ,-40.4,369.1,928.9,-0.7,-0.5,-1.7,25,-40.7005,369.935,928.726,-0.6822,-0.483642,-1.73055,
2026_07_06_21_41_09.429,3.856,36.6,0,0.764,0,0,0,0, ,0,0,0,0,0, ,-41.6,369,928.8,-0.8,-0.5,-1.8,25,-40.7188,369.881,928.734,-0.686332,-0.484639,-1.73174,
2026_07_06_21_41_09.449,3.856,36.6,0,0.765,0,0,0,0, ,0,0,0,0,0, ,-40.7,370.7,929.1,-0.8,-0.5,-1.7,25,-40.745,369.879,928.747,-0.693259,-0.485575,-1.73285,
2026_07_06_21_41_09.469,3.856,36.7,0,0.764,0,0,0,0, ,0,0,0,0,0, ,-40.7,369.7,928.5,-0.7,-0.4,-1.7,25,-40.7423,369.899,928.75,-0.696716,-0.483407,-1.73085,
2026_07_06_21_41_09.489,3.856,36.6,0,0.764,0,0,0,0, ,0,0,0,0,0, ,-40.6,369.8,930,-0.7,-0.5,-1.8,25,-40.7367,369.889,928.78,-0.696916,-0.481371,-1.73202,
2026_07_06_21_41_09.509,3.856,36.6,0,0.764,0,0,0,0, ,0,0,0,0,0, ,-40.1,370.9,930.1,-0.7,-0.5,-1.7,25,-40.7131,369.918,928.858,-0.697104,-0.482507,-1.73311,
2026_07_06_21_41_09.529,3.856,36.8,0,0.763,0,0,0,0, ,0,0,0,0,0, ,-41.9,369.7,929,-0.7,-0.4,-1.7,25,-40.7306,369.941,928.9,-0.697281,-0.480526,-1.73109,
2026_07_06_21_41_09.548,3.856,36.6,0,0.766,0,0,0,0, ,0,0,0,0,0, ,-40.5,372.1,927.9,-0.7,-0.5,-1.8,25,-40.7592,369.999,928.873,-0.697446,-0.478666,-1.73225,
2026_07_06_21_41_09.573,3.856,36.6,0,0.765,0,0,0,0, ,0,0,0,0,0, ,-40.7,369,928.9,-0.7,-0.4,-1.7,25,-40.7495,370.033,928.844,-0.697602,-0.476919,-1.73333,
2026_07_06_21_41_09.588,3.856,36.7,0,0.764,0,0,0,0, ,0,0,0,0,0, ,-42.3,369,928.4,-0.7,-0.4,-1.8,25,-40.7952,369.97,928.832,-0.697748,-0.472232,-1.73434,
2026_07_06_21_41_09.608,3.856,36.6,0,0.763,0,0,0,0, ,0,0,0,0,0, ,-39.9,370.2,930.6,-0.7,-0.5,-1.7,25,-40.8138,369.947,928.873,-0.697885,-0.470877,-1.7353,
2026_07_06_21_41_09.627,3.856,36.7,0,0.764,0,0,0,0, ,0,0,0,0,0, ,-41.1,370.1,928.1,-0.7,-0.5,-1.8,25,-40.7947,369.96,928.902,-0.698014,-0.472652,-1.73619,
2026_07_06_21_41_09.647,3.856,36.6,0,0.765,0,0,0,0, ,0,0,0,0,0, ,-39.6,370.7,929.4,-0.8,-0.4,-1.7,25,-40.7676,369.987,928.892,-0.701182,-0.471271,-1.73704,
2026_07_06_21_41_09.666,3.856,36.7,0,0.765,0,0,0,0, ,0,0,0,0,0, ,-41.5,369.7,929.5,-0.8,-0.5,-1.8,25,-40.7543,370,928.926,-0.707204,-0.469975,-1.73783,
2026_07_06_21_41_09.686,3.856,36.6,0,0.764,0,0,0,0, ,0,0,0,0,0, ,-41.1,370.4,929,-0.7,-0.5,-1.8,25,-40.7876,370.003,928.946,-0.709812,-0.471805,-1.74161,
2026_07_06_21_41_09.706,3.856,36.6,0,0.764,0,0,0,0, ,0,0,0,0,0, ,-41.3,370.6,929.1,-0.8,-0.5,-1.7,25,-40.8127,370.033,928.953,-0.712261,-0.473523,-1.74212,
2026_07_06_21_41_09.726,3.856,36.6,0,0.764,0,0,0,0, ,0,0,0,0,0, ,-40.4,369.7,927.9,-0.8,-0.5,-1.8,25,-40.815,370.04,928.925,-0.717607,-0.475136,-1.7426,
2026_07_06_21_41_09.746,3.856,36.6,0,0.765,0,0,0,0, ,0,0,0,0,0, ,-40.2,370.6,929.3,-0.7,-0.5,-1.8,25,-40.7836,370.047,928.905,-0.719581,-0.476651,-1.7461,
2026_07_06_21_41_09.767,3.856,36.6,0,0.764,0,0,0,0, ,0,0,0,0,0, ,-40.7,369.8,928.8,-0.6,-0.5,-1.7,25,-40.7633,370.056,928.914,-0.715341,-0.478074,-1.74634,
2026_07_06_21_41_09.786,3.856,36.7,0,0.763,0,0,0,0, ,0,0,0,0,0, ,-40.1,369.7,928.9,-0.7,-0.5,-1.8,25,-40.7411,370.037,928.91,-0.711359,-0.47941,-1.74656,
2026_07_06_21_41_09.805,3.856,36.6,0,0.764,0,0,0,0, ,0,0,0,0,0, ,-39.9,370.8,928.2,-0.7,-0.5,-1.8,25,-40.696,370.05,928.888,-0.710667,-0.480665,-1.74982,
2026_07_06_21_41_09.825,3.856,36.7,0,0.765,0,0,0,0, ,0,0,0,0,0, ,-40,371.3,930.6,-0.6,-0.4,-1.8,25,-40.6505,370.111,928.919,-0.70697,-0.478796,-1.75288,
2026_07_06_21_41_09.845,3.856,36.7,0,0.765,0,0,0,0, ,0,0,0,0,0, ,-41.9,370.1,928.5,-0.6,-0.5,-1.8,25,-40.6688,370.147,928.958,-0.700452,-0.477042,-1.75575,
2026_07_06_21_41_09.865,3.856,36.6,0,0.765,0,0,0,0, ,0,0,0,0,0, ,-41.7,369.9,928.8,-0.7,-0.5,-1.7,25,-40.7377,370.138,928.939,-0.697377,-0.478441,-1.7554,
2026_07_06_21_41_09.885,3.856,36.6,0,0.764,0,0,0,0, ,0,0,0,0,0, ,-41.9,370.1,928.1,-0.7,-0.5,-1.7,25,-40.8024,370.13,928.909,-0.697537,-0.479754,-1.75202,
2026_07_06_21_41_09.904,3.856,36.7,0,0.763,0,0,0,0, ,0,0,0,0,0, ,-41.5,370.4,929.9,-0.6,-0.5,-1.7,25,-40.8571,370.137,928.915,-0.69464,-0.480988,-1.74885,
2026_07_06_21_41_09.924,3.856,36.6,0,0.766,0,0,0,0, ,0,0,0,0,0, ,-40.8,370.8,928.8,-0.7,-0.5,-1.8,25,-40.875,370.165,928.941,-0.69192,-0.482147,-1.74892,
2026_07_06_21_41_09.943,3.856,36.6,0,0.765,0,0,0,0, ,0,0,0,0,0, ,-41.1,369.6,930,-0.7,-0.5,-1.8,25,-40.8795,370.167,928.969,-0.692413,-0.483235,-1.75203,
2026_07_06_21_41_09.963,3.856,36.6,0,0.766,0,0,0,0, ,0,0,0,0,0, ,-40.2,370.7,927.7,-0.8,-0.5,-1.7,25,-40.8656,370.166,928.962,-0.695922,-0.484256,-1.75191,
2026_07_06_21_41_09.983,3.856,36.6,0,0.764,0,0,0,0, ,0,0,0,0,0, ,-40.5,370.3,928.9,-0.7,-0.5,-1.7,25,-40.8341,370.187,928.922,-0.699217,-0.485216,-1.74875,
2026_07_06_21_41_10.003,3.856,36.6,0,0.762,0,0,0,0, ,0,0,0,0,0, ,-40.7,369.8,927.9,-0.7,-0.5,-1.8,25,-40.8199,370.178,928.89,-0.699265,-0.486117,-1.74882,
2026_07_06_21_41_10.022,3.856,36.7,0,0.764,0,0,0,0, ,0,0,0,0,0, ,-40.7,370.3,928.9,-0.8,-0.5,-1.7,25,-40.8126,370.171,928.86,-0.702357,-0.486963,-1.7489,
2026_07_06_21_41_10.043,3.856,36.6,0,0.764,0,0,0,0, ,0,0,0,0,0, ,-41.3,369.6,928.4,-0.8,-0.5,-1.8,25,-40.824,370.157,928.847,-0.708307,-0.487757,-1.74896,
2026_07_06_21_41_10.063,3.856,36.6,0,0.765,0,0,0,0, ,0,0,0,0,0, ,-41.8,369.8,929.8,-0.7,-0.5,-1.8,25,-40.8682,370.129,928.863,-0.710847,-0.488503,-1.75207,
2026_07_06_21_41_10.082,3.856,36.6,0,0.763,0,0,0,0, ,0,0,0,0,0, ,-40.7,369.9,928.8,-0.6,-0.5,-1.7,25,-40.8915,370.112,928.889,-0.707139,-0.489204,-1.75195,
2026_07_06_21_41_10.106,3.856,36.6,0,0.766,0,0,0,0, ,0,0,0,0,0, ,-40.7,370.4,928.9,-0.7,-0.5,-1.8,25,-40.8798,370.115,928.887,-0.703658,-0.489862,-1.75183,
2026_07_06_21_41_10.122,3.856,36.7,0,0.763,0,0,0,0, ,0,0,0,0,0, ,-39.7,369.8,928.4,-0.8,-0.5,-1.7,25,-40.8384,370.114,928.872,-0.706482,-0.490479,-1.75172,
2026_07_06_21_41_10.142,3.856,36.6,0,0.765,0,0,0,0, ,0,0,0,0,0, ,-41.3,370.6,929,-0.6,-0.5,-1.7,25,-40.8178,370.119,928.862,-0.706087,-0.49106,-1.74857,
2026_07_06_21_41_10.162,3.856,36.6,0,0.764,0,0,0,0, ,0,0,0,0,0, ,-40.4,370.1,928.5,-0.7,-0.4,-1.7,25,-40.8197,370.133,928.855,-0.702669,-0.488557,-1.74561,
2026_07_06_21_41_10.182,3.856,36.6,0,0.763,0,0,0,0, ,0,0,0,0,0, ,-40.1,370.4,928.1,-0.7,-0.5,-1.8,25,-40.785,370.14,928.821,-0.702506,-0.486208,-1.74587,
2026_07_06_21_41_10.202,3.856,36.7,0,0.764,0,0,0,0, ,0,0,0,0,0, ,-41,369.7,927.7,-0.6,-0.5,-1.7,25,-40.7707,370.135,928.765,-0.699307,-0.487048,-1.74612,
2026_07_06_21_41_10.221,3.856,36.7,0,0.765,0,0,0,0, ,0,0,0,0,0, ,-41.5,369,927.1,-0.6,-0.5,-1.7,25,-40.7999,370.087,928.682,-0.693255,-0.487838,-1.74331,
2026_07_06_21_41_10.241,3.856,36.6,0,0.764,0,0,0,0, ,0,0,0,0,0, ,-40.4,371.2,928.4,-0.8,-0.5,-1.7,25,-40.8091,370.088,928.625,-0.693666,-0.488579,-1.74067,
2026_07_06_21_41_10.261,3.856,36.7,0,0.764,0,0,0,0, ,0,0,0,0,0, ,-40,369.9,928.3,-0.7,-0.5,-1.7,25,-40.7719,370.116,928.608,-0.697099,-0.489275,-1.7382,
2026_07_06_21_41_10.281,3.856,36.6,0,0.764,0,0,0,0, ,0,0,0,0,0, ,-41.6,370.4,929.8,-0.7,-0.5,-1.7,25,-40.7737,370.118,928.635,-0.697276,-0.489928,-1.73587,
2026_07_06_21_41_10.300,3.856,36.6,0,0.764,0,0,0,0, ,0,0,0,0,0, ,-40.7,370.6,928.4,-0.8,-0.5,-1.8,25,-40.7966,370.141,928.664,-0.700489,-0.490542,-1.73673,
2026_07_06_21_41_10.320,3.856,36.6,0,0.764,0,0,0,0, ,0,0,0,0,0, ,-40.5,370.3,927.4,-0.7,-0.5,-1.8,25,-40.7846,370.16,928.617,-0.703506,-0.491118,-1.74059,
2026_07_06_21_41_10.340,3.856,36.6,0,0.764,0,0,0,0, ,0,0,0,0,0, ,-40.1,369.3,929.9,-0.6,-0.5,-1.7,25,-40.7551,370.138,928.619,-0.700245,-0.49166,-1.74116,
2026_07_06_21_41_10.360,3.856,36.6,0,0.764,0,0,0,0, ,0,0,0,0,0, ,-40.2,369.1,928.8,-0.7,-0.5,-1.7,25,-40.7182,370.081,928.664,-0.697183,-0.492168,-1.73865,
2026_07_06_21_41_10.380,3.856,36.7,0,0.764,0,0,0,0, ,0,0,0,0,0, ,-41,370.3,929.8,-0.7,-0.4,-1.8,25,-40.711,370.058,928.702,-0.697355,-0.489598,-1.73934,
2026_07_06_21_41_10.400,3.856,36.6,0,0.765,0,0,0,0, ,0,0,0,0,0, ,-41.9,369.8,927.8,-0.7,-0.5,-1.7,25,-40.756,370.057,928.708,-0.697516,-0.487185,-1.73999,
2026_07_06_21_41_10.419,3.856,36.7,0,0.764,0,0,0,0, ,0,0,0,0,0, ,-39.7,368.7,928.8,-0.6,-0.5,-1.8,25,-40.7587,370.008,928.683,-0.694621,-0.487966,-1.7406,
2026_07_06_21_41_10.439,3.856,36.5,0,0.766,0,0,0,0, ,0,0,0,0,0, ,-41.1,369.1,929,-0.7,-0.5,-1.8,25,-40.7369,369.941,928.697,-0.691902,-0.488699,-1.74422,
2026_07_06_21_41_10.458,3.856,36.6,0,0.766,0,0,0,0, ,0,0,0,0,0, ,-41.3,369.8,929,-0.8,-0.5,-1.7,25,-40.7651,369.911,928.715,-0.695442,-0.489388,-1.74457,
2026_07_06_21_41_10.478,3.856,36.6,0,0.764,0,0,0,0, ,0,0,0,0,0, ,-40,370.8,929.5,-0.7,-0.5,-1.8,25,-40.7581,369.934,928.748,-0.698767,-0.490035,-1.7449,
2026_07_06_21_41_10.498,3.856,36.6,0,0.764,0,0,0,0, ,0,0,0,0,0, ,-41,369.7,928.7,-0.6,-0.5,-1.7,25,-40.7423,369.954,928.769,-0.695795,-0.490642,-1.74521,
2026_07_06_21_41_10.518,3.856,36.5,0,0.764,0,0,0,0, ,0,0,0,0,0, ,-41.5,368.5,928.9,-0.7,-0.5,-1.7,25,-40.7733,369.902,928.771,-0.693004,-0.491212,-1.74246,
2026_07_06_21_41_10.538,3.856,36.6,0,0.764,0,0,0,0, ,0,0,0,0,0, ,-40.1,371.2,929.5,-0.8,-0.4,-1.8,25,-40.7749,369.898,928.797,-0.696477,-0.488701,-1.74292,
2026_07_06_21_41_10.557,3.856,36.7,0,0.766,0,0,0,0, ,0,0,0,0,0, ,-40.7,369.6,929.4,-0.7,-0.5,-1.8,25,-40.7521,369.929,928.837,-0.699739,-0.486343,-1.7464,
2026_07_06_21_41_10.577,3.856,36.6,0,0.765,0,0,0,0, ,0,0,0,0,0, ,-41.1,370.3,929.1,-0.7,-0.5,-1.7,25,-40.7611,369.93,928.862,-0.699755,-0.487175,-1.74662,
2026_07_06_21_41_10.597,3.856,36.6,0,0.766,0,0,0,0, ,0,0,0,0,0, ,-40.1,370.4,929.4,-0.7,-0.5,-1.8,25,-40.7513,369.956,928.886,-0.69977,-0.487956,-1.74682,
2026_07_06_21_41_10.617,3.856,36.5,0,0.764,0,0,0,0, ,0,0,0,0,0, ,-40.8,370.7,929.4,-0.7,-0.6,-1.7,25,-40.7329,369.992,928.917,-0.699784,-0.491737,-1.74702,
2026_07_06_21_41_10.636,3.856,36.5,0,0.766,0,0,0,0, ,0,0,0,0,0, ,-40,369.5,929.4,-0.6,-0.4,-1.8,25,-40.7126,369.999,928.947,-0.69675,-0.492241,-1.7472,
2026_07_06_21_41_10.656,3.856,36.6,0,0.764,0,0,0,0, ,0,0,0,0,0, ,-41.1,369.5,930.9,-0.6,-0.4,-1.8,25,-40.7027,369.968,929.02,-0.690854,-0.48662,-1.75042,
2026_07_06_21_41_10.676,3.856,36.5,0,0.767,0,0,0,0, ,0,0,0,0,0, ,-41.2,370.8,929.6,-0.7,-0.5,-1.7,25,-40.73,369.979,929.095,-0.688365,-0.484388,-1.75039,
2026_07_06_21_41_10.696,3.856,36.6,0,0.763,0,0,0,0, ,0,0,0,0,0, ,-40.4,370.2,927.9,-0.7,-0.5,-1.8,25,-40.7342,370.011,929.074,-0.689074,-0.48534,-1.75037,
2026_07_06_21_41_10.715,3.856,36.6,0,0.763,0,0,0,0, ,0,0,0,0,0, ,-41.1,369.6,928.4,-0.6,-0.5,-1.7,25,-40.7352,370.004,929.018,-0.686693,-0.486233,-1.75034,
2026_07_06_21_41_10.735,3.856,36.6,0,0.765,0,0,0,0, ,0,0,0,0,0, ,-40.7,368.6,929.3,-0.7,-0.5,-1.7,25,-40.7452,369.949,929.007,-0.684457,-0.487072,-1.74728,
2026_07_06_21_41_10.755,3.856,36.6,0,0.764,0,0,0,0, ,0,0,0,0,0, ,-40.7,369.5,926.8,-0.8,-0.5,-1.8,25,-40.7425,369.894,928.949,-0.688451,-0.48786,-1.74744,
2026_07_06_21_41_10.775,3.856,36.6,0,0.766,0,0,0,0, ,0,0,0,0,0, ,-41.3,369.6,928.4,-0.7,-0.5,-1.8,25,-40.7582,369.873,928.867,-0.692202,-0.488599,-1.75065,
2026_07_06_21_41_10.795,3.856,36.5,0,0.766,0,0,0,0, ,0,0,0,0,0, ,-41.5,369.2,930.1,-0.6,-0.4,-1.7,25,-40.7973,369.845,928.89,-0.68963,-0.486247,-1.75061,
2026_07_06_21_41_10.815,3.856,36.6,0,0.765,0,0,0,0, ,0,0,0,0,0, ,-40.6,369.1,928.8,-0.8,-0.5,-1.8,25,-40.8127,369.802,928.924,-0.690262,-0.484038,-1.75057,
2026_07_06_21_41_10.834,3.856,36.6,0,0.765,0,0,0,0, ,0,0,0,0,0, ,-41.7,370.8,930.6,-0.8,-0.5,-1.7,25,-40.8332,369.811,928.972,-0.696949,-0.485011,-1.75053,
2026_07_06_21_41_10.855,3.856,36.6,0,0.765,0,0,0,0, ,0,0,0,0,0, ,-40.5,370.8,929.4,-0.7,-0.4,-1.8,25,-40.8495,369.871,929.034,-0.700182,-0.482878,-1.7505,
2026_07_06_21_41_10.880,3.856,36.6,0,0.764,0,0,0,0, ,0,0,0,0,0, ,-41,370.4,929.5,-0.7,-0.5,-1.7,25,-40.8434,369.916,929.06,-0.700171,-0.480874,-1.75047,
2026_07_06_21_41_10.895,3.856,36.5,0,0.763,0,0,0,0, ,0,0,0,0,0, ,-42.3,369.9,930,-0.7,-0.5,-1.8,25,-40.8926,369.93,929.102,-0.70016,-0.48204,-1.75044,
2026_07_06_21_41_10.915,3.856,36.6,0,0.763,0,0,0,0, ,0,0,0,0,0, ,-41,369.6,928.2,-0.7,-0.5,-1.8,25,-40.9387,369.919,929.102,-0.700151,-0.483134,-1.75346,
2026_07_06_21_41_10.934,3.856,36.7,0,0.766,0,0,0,0, ,0,0,0,0,0, ,-40.8,370.4,927.1,-0.6,-0.5,-1.7,25,-40.9364,369.924,929.013,-0.697094,-0.484162,-1.75325,
2026_07_06_21_41_10.954,3.856,36.6,0,0.766,0,0,0,0, ,0,0,0,0,0, ,-40.5,369.8,930,-0.8,-0.4,-1.7,25,-40.9189,369.935,928.985,-0.697272,-0.48208,-1.75001,
2026_07_06_21_41_10.973,3.856,36.6,0,0.766,0,0,0,0, ,0,0,0,0,0, ,-41.9,369.3,929.1,-0.8,-0.5,-1.7,25,-40.9361,369.911,929.019,-0.703532,-0.480125,-1.74696,
2026_07_06_21_41_10.993,3.856,36.6,0,0.765,0,0,0,0, ,0,0,0,0,0, ,-41,369.7,929.4,-0.7,-0.4,-1.7,25,-40.9674,369.886,929.033,-0.706363,-0.478289,-1.7441,
2026_07_06_21_41_11.013,3.856,36.5,0,0.763,0,0,0,0, ,0,0,0,0,0, ,-41.1,369.1,928.9,-0.8,-0.5,-1.7,25,-40.9724,369.857,929.04,-0.709022,-0.476566,-1.74141,
2026_07_06_21_41_11.033,3.856,36.6,0,0.765,0,0,0,0, ,0,0,0,0,0, ,-40.6,369.9,930.4,-0.8,-0.5,-1.8,25,-40.9649,369.835,929.078,-0.714566,-0.477994,-1.74193,
2026_07_06_21_41_11.052,3.856,36.6,0,0.764,0,0,0,0, ,0,0,0,0,0, ,-40.7,370.4,928.4,-0.7,-0.4,-1.8,25,-40.9458,369.854,929.097,-0.716726,-0.476288,-1.74547,
2026_07_06_21_41_11.072,3.856,36.6,0,0.767,0,0,0,0, ,0,0,0,0,0, ,-41.7,370.9,928.9,-0.6,-0.5,-1.8,25,-40.9612,369.903,929.07,-0.712659,-0.474686,-1.7488,
2026_07_06_21_41_11.092,3.856,36.7,0,0.764,0,0,0,0, ,0,0,0,0,0, ,-40.4,369,929.9,-0.7,-0.4,-1.7,25,-40.9667,369.906,929.09,-0.708841,-0.473182,-1.74887,
2026_07_06_21_41_11.112,3.856,36.7,0,0.766,0,0,0,0, ,0,0,0,0,0, ,-40.1,371.4,929,-0.7,-0.5,-1.8,25,-40.923,369.923,929.112,-0.708302,-0.471769,-1.74894,
2026_07_06_21_41_11.131,3.856,36.7,0,0.766,0,0,0,0, ,0,0,0,0,0, ,-41.7,370.7,928.2,-0.6,-0.5,-1.7,25,-40.9216,369.992,929.081,-0.70475,-0.473489,-1.749,
2026_07_06_21_41_11.152,3.856,36.6,0,0.766,0,0,0,0, ,0,0,0,0,0, ,-40.5,369.3,929.5,-0.6,-0.5,-1.8,25,-40.9325,369.993,929.067,-0.698366,-0.475105,-1.74906,
2026_07_06_21_41_11.172,3.856,36.5,0,0.766,0,0,0,0, ,0,0,0,0,0, ,-41.1,368.8,929.5,-0.6,-0.5,-1.8,25,-40.9244,369.935,929.093,-0.692372,-0.476622,-1.75217,
2026_07_06_21_41_11.191,3.856,36.6,0,0.762,0,0,0,0, ,0,0,0,0,0, ,-40.5,370.1,928.8,-0.7,-0.6,-1.7,25,-40.9168,369.906,929.097,-0.68979,-0.481093,-1.75203,
2026_07_06_21_41_11.211,3.856,36.6,0,0.765,0,0,0,0, ,0,0,0,0,0, ,-41,369.8,929.9,-0.6,-0.5,-1.7,25,-40.9066,369.908,929.112,-0.687365,-0.485292,-1.74886,
2026_07_06_21_41_11.231,3.856,36.6,0,0.766,0,0,0,0, ,0,0,0,0,0, ,-41.3,370.1,930,-0.7,-0.4,-1.8,25,-40.9215,369.911,929.163,-0.685088,-0.483142,-1.74893,
2026_07_06_21_41_11.250,3.856,36.6,0,0.766,0,0,0,0, ,0,0,0,0,0, ,-40.2,370.4,930,-0.7,-0.5,-1.7,25,-40.911,369.931,929.214,-0.685997,-0.481122,-1.749,
2026_07_06_21_41_11.270,3.856,36.6,0,0.763,0,0,0,0, ,0,0,0,0,0, ,-39.9,369.3,929.1,-0.8,-0.5,-1.7,25,-40.8586,369.927,929.235,-0.689897,-0.482272,-1.74601,
2026_07_06_21_41_11.290,3.856,36.6,0,0.765,0,0,0,0, ,0,0,0,0,0, ,-40.4,370.2,931,-0.7,-0.5,-1.7,25,-40.8154,369.916,929.284,-0.69356,-0.483353,-1.74321,
2026_07_06_21_41_11.310,3.856,36.5,0,0.766,0,0,0,0, ,0,0,0,0,0, ,-40.5,368.6,928.8,-0.7,-0.5,-1.7,25,-40.7931,369.884,929.322,-0.693952,-0.484367,-1.74058,
2026_07_06_21_41_11.330,3.856,36.7,0,0.765,0,0,0,0, ,0,0,0,0,0, ,-41.1,370.3,928.1,-0.8,-0.4,-1.8,25,-40.7935,369.858,929.269,-0.697368,-0.482273,-1.74115,
2026_07_06_21_41_11.350,3.856,36.4,0,0.766,0,0,0,0, ,0,0,0,0,0, ,-40.1,369.8,927.6,-0.7,-0.5,-1.7,25,-40.7817,369.87,929.182,-0.700575,-0.480306,-1.74169,
2026_07_06_21_41_11.370,3.856,36.6,0,0.764,0,0,0,0, ,0,0,0,0,0, ,-40.8,369.5,928.9,-0.6,-0.5,-1.8,25,-40.7615,369.856,929.125,-0.697493,-0.481506,-1.7422,
2026_07_06_21_41_11.389,3.856,36.6,0,0.763,0,0,0,0, ,0,0,0,0,0, ,-40.7,370.4,928.8,-0.7,-0.5,-1.8,25,-40.7608,369.862,929.109,-0.694599,-0.482633,-1.74572,
2026_07_06_21_41_11.409,3.856,36.6,0,0.766,0,0,0,0, ,0,0,0,0,0, ,-39.7,369.3,929.6,-0.7,-0.5,-1.7,25,-40.7266,369.861,929.114,-0.694928,-0.483692,-1.74598,
2026_07_06_21_41_11.429,3.856,36.7,0,0.764,0,0,0,0, ,0,0,0,0,0, ,-40.8,370.1,930.9,-0.7,-0.4,-1.8,25,-40.6976,369.851,929.183,-0.695237,-0.481639,-1.74622,
2026_07_06_21_41_11.449,3.856,36.7,0,0.764,0,0,0,0, ,0,0,0,0,0, ,-40.2,370.8,928.1,-0.5,-0.4,-1.7,25,-40.6856,369.888,929.203,-0.689434,-0.476664,-1.74645,
2026_07_06_21_41_11.469,3.856,36.6,0,0.766,0,0,0,0, ,0,0,0,0,0, ,-41.2,369.1,929.1,-0.7,-0.5,-1.8,25,-40.6864,369.892,929.166,-0.683984,-0.475039,-1.74667,
2026_07_06_21_41_11.489,3.856,36.6,0,0.766,0,0,0,0, ,0,0,0,0,0, ,-40.7,370.1,929.4,-0.7,-0.5,-1.8,25,-40.7025,369.874,929.171,-0.68496,-0.47656,-1.74992,
2026_07_06_21_41_11.508,3.856,36.6,0,0.764,0,0,0,0, ,0,0,0,0,0, ,-40.1,369.9,928.5,-0.7,-0.5,-1.8,25,-40.6841,369.882,929.158,-0.685876,-0.477988,-1.75297,
2026_07_06_21_41_11.528,3.856,36.6,0,0.764,0,0,0,0, ,0,0,0,0,0, ,-41.5,369.1,929.3,-0.7,-0.4,-1.8,25,-40.6911,369.858,929.142,-0.686737,-0.476283,-1.75584,
2026_07_06_21_41_11.548,3.856,36.6,0,0.764,0,0,0,0, ,0,0,0,0,0, ,-40.8,369.5,929,-0.7,-0.5,-1.7,25,-40.7191,369.824,929.142,-0.687545,-0.474681,-1.75548,
2026_07_06_21_41_11.568,3.856,36.6,0,0.764,0,0,0,0, ,0,0,0,0,0, ,-41.1,369.1,930.2,-0.7,-0.4,-1.7,25,-40.7332,369.792,929.17,-0.688304,-0.473177,-1.7521,
2026_07_06_21_41_11.588,3.856,36.6,0,0.764,0,0,0,0, ,0,0,0,0,0, ,-40.1,369.2,928.7,-0.6,-0.5,-1.7,25,-40.725,369.753,929.187,-0.68597,-0.471765,-1.74893,
2026_07_06_21_41_11.607,3.856,36.6,0,0.764,0,0,0,0, ,0,0,0,0,0, ,-41.1,369.5,929.6,-0.7,-0.5,-1.8,25,-40.7174,369.729,929.185,-0.683778,-0.473485,-1.74899,
2026_07_06_21_41_11.627,3.856,36.6,0,0.764,0,0,0,0, ,0,0,0,0,0, ,-40.6,370.3,929.9,-0.8,-0.5,-1.8,25,-40.7255,369.739,929.219,-0.687813,-0.475101,-1.7521,
2026_07_06_21_41_11.647,3.856,36.6,0,0.764,0,0,0,0, ,0,0,0,0,0, ,-41.1,369.5,929.6,-0.6,-0.5,-1.8,25,-40.7331,369.749,929.252,-0.688556,-0.476618,-1.75502,
2026_07_06_21_41_11.667,3.856,36.5,0,0.764,0,0,0,0, ,0,0,0,0,0, ,-41.6,369.8,927.7,-0.7,-0.5,-1.7,25,-40.7707,369.743,929.215,-0.686207,-0.478043,-1.75471,
2026_07_06_21_41_11.688,3.856,36.6,0,0.764,0,0,0,0, ,0,0,0,0,0, ,-39.9,368.7,928.8,-0.7,-0.4,-1.7,25,-40.7694,369.713,929.156,-0.687047,-0.476334,-1.75138,
2026_07_06_21_41_11.707,3.856,36.6,0,0.766,0,0,0,0, ,0,0,0,0,0, ,-41.7,369,930,-0.7,-0.5,-1.7,25,-40.7713,369.66,929.171,-0.687836,-0.47473,-1.74825,
2026_07_06_21_41_11.727,3.856,36.6,0,0.763,0,0,0,0, ,0,0,0,0,0, ,-41,369.3,928.3,-0.7,-0.5,-1.7,25,-40.8066,369.629,929.17,-0.688578,-0.47627,-1.74531,
2026_07_06_21_41_11.746,3.856,36.6,0,0.764,0,0,0,0, ,0,0,0,0,0, ,-41,370.4,928.9,-0.7,-0.5,-1.7,25,-40.8183,369.643,929.135,-0.689274,-0.477716,-1.74255,
2026_07_06_21_41_11.766,3.856,36.6,0,0.766,0,0,0,0, ,0,0,0,0,0, ,-40.7,370.3,929.9,-0.7,-0.5,-1.8,25,-40.8203,369.686,929.151,-0.689927,-0.479074,-1.743,
2026_07_06_21_41_11.785,3.856,36.6,0,0.764,0,0,0,0, ,0,0,0,0,0, ,-40.8,371.3,929.9,-0.8,-0.5,-1.7,25,-40.816,369.754,929.197,-0.693588,-0.480349,-1.74343,
2026_07_06_21_41_11.805,3.856,36.6,0,0.763,0,0,0,0, ,0,0,0,0,0, ,-40,369.5,930.2,-0.8,-0.5,-1.7,25,-40.7906,369.793,929.249,-0.700072,-0.481546,-1.74078,
2026_07_06_21_41_11.825,3.856,36.7,0,0.763,0,0,0,0, ,0,0,0,0,0, ,-40.5,369.7,928.9,-0.8,-0.5,-1.7,25,-40.7577,369.781,929.267,-0.706162,-0.482671,-1.7383,
2026_07_06_21_41_11.845,3.856,36.6,0,0.764,0,0,0,0, ,0,0,0,0,0, ,-40.6,370.3,929.4,-0.7,-0.4,-1.7,25,-40.745,369.795,929.26,-0.708833,-0.48068,-1.73596,
2026_07_06_21_41_11.865,3.856,36.6,0,0.764,0,0,0,0, ,0,0,0,0,0, ,-40.6,369.6,929.6,-0.7,-0.5,-1.7,25,-40.7362,369.804,929.275,-0.708295,-0.47881,-1.73377,
2026_07_06_21_41_11.889,3.856,36.6,0,0.764,0,0,0,0, ,0,0,0,0,0, ,-41,368.4,929.1,-0.7,-0.5,-1.6,25,-40.7401,369.755,929.279,-0.707789,-0.480102,-1.72867,
2026_07_06_21_41_11.908,3.856,36.6,0,0.764,0,0,0,0, ,0,0,0,0,0, ,-40.8,369.7,929.5,-0.8,-0.5,-1.8,25,-40.7498,369.712,929.281,-0.710362,-0.481314,-1.72692,
2026_07_06_21_41_11.924,3.856,36.6,0,0.763,0,0,0,0, ,0,0,0,0,0, ,-40.4,370.1,929.4,-0.7,-0.5,-1.7,25,-40.7407,369.724,929.291,-0.712777,-0.482453,-1.72833,
2026_07_06_21_41_11.944,3.856,36.6,0,0.764,0,0,0,0, ,0,0,0,0,0, ,-41,370.8,929.4,-0.6,-0.4,-1.8,25,-40.7382,369.768,929.298,-0.708952,-0.480475,-1.72965,
2026_07_06_21_41_11.964,3.856,36.6,0,0.764,0,0,0,0, ,0,0,0,0,0, ,-40.1,368.2,928.4,-0.7,-0.5,-1.8,25,-40.7268,369.751,929.273,-0.705359,-0.478618,-1.73393,
2026_07_06_21_41_11.985,3.856,36.6,0,0.766,0,0,0,0, ,0,0,0,0,0, ,-41.1,369.8,929.3,-0.7,-0.4,-1.7,25,-40.719,369.706,929.248,-0.705033,-0.476874,-1.73491,
2026_07_06_21_41_12.003,3.856,36.6,0,0.764,0,0,0,0, ,0,0,0,0,0, ,-40.7,370.2,928.2,-0.7,-0.5,-1.8,25,-40.7301,369.724,929.217,-0.704726,-0.475237,-1.73583,
2026_07_06_21_41_12.023,3.856,36.6,0,0.766,0,0,0,0, ,0,0,0,0,0, ,-40.6,368.4,928.7,-0.6,-0.5,-1.8,25,-40.7252,369.698,929.17,-0.701391,-0.476746,-1.73974,
2026_07_06_21_41_12.043,3.856,36.6,0,0.764,0,0,0,0, ,0,0,0,0,0, ,-40,368.1,928.2,-0.8,-0.5,-1.7,25,-40.6993,369.61,929.127,-0.701306,-0.478163,-1.74037,
2026_07_06_21_41_12.063,3.856,36.6,0,0.764,0,0,0,0, ,0,0,0,0,0, ,-41.2,370.7,928.3,-0.7,-0.5,-1.8,25,-40.6932,369.597,929.073,-0.704274,-0.479493,-1.74095,
2026_07_06_21_41_12.083,3.856,36.6,0,0.764,0,0,0,0, ,0,0,0,0,0, ,-40.8,370.1,929.4,-0.7,-0.5,-1.7,25,-40.7119,369.646,929.06,-0.704013,-0.480743,-1.74151,
2026_07_06_21_41_12.102,3.856,36.6,0,0.764,0,0,0,0, ,0,0,0,0,0, ,-40.2,369.9,929.6,-0.7,-0.5,-1.7,25,-40.699,369.667,929.086,-0.703769,-0.481916,-1.73898,
2026_07_06_21_41_12.122,3.856,36.6,0,0.764,0,0,0,0, ,0,0,0,0,0, ,-40.8,368.7,929.3,-0.7,-0.5,-1.7,25,-40.6869,369.645,929.109,-0.703539,-0.483018,-1.7366,
2026_07_06_21_41_12.142,3.856,36.6,0,0.766,0,0,0,0, ,0,0,0,0,0, ,-39.7,369.8,929.3,-0.8,-0.5,-1.8,25,-40.6603,369.621,929.12,-0.70637,-0.484053,-1.73742,
2026_07_06_21_41_12.161,3.856,36.6,0,0.766,0,0,0,0, ,0,0,0,0,0, ,-40.4,369.9,928.8,-0.7,-0.5,-1.8,25,-40.6231,369.635,929.116,-0.709029,-0.485025,-1.74123,
2026_07_06_21_41_12.181,3.856,36.6,0,0.764,0,0,0,0, ,0,0,0,0,0, ,-40.5,370.3,930.4,-0.6,-0.4,-1.7,25,-40.6125,369.663,929.145,-0.705432,-0.482891,-1.74177,
2026_07_06_21_41_12.201,3.856,36.6,0,0.764,0,0,0,0, ,0,0,0,0,0, ,-41,370.6,929.3,-0.7,-0.4,-1.8,25,-40.6209,369.711,929.188,-0.702054,-0.47784,-1.74227,
2026_07_06_21_41_12.221,3.856,36.6,0,0.764,0,0,0,0, ,0,0,0,0,0, ,-40.6,369.6,928.5,-0.7,-0.5,-1.8,25,-40.6318,369.735,929.171,-0.701929,-0.476143,-1.74579,
2026_07_06_21_41_12.241,3.856,36.6,0,0.764,0,0,0,0, ,0,0,0,0,0, ,-41.1,369.9,929.5,-0.7,-0.5,-1.7,25,-40.6451,369.736,929.16,-0.701811,-0.477597,-1.74604,
2026_07_06_21_41_12.261,3.856,36.6,0,0.766,0,0,0,0, ,0,0,0,0,0, ,-39.6,370.1,928.8,-0.6,-0.5,-1.8,25,-40.6271,369.752,929.16,-0.698654,-0.478962,-1.74628,
2026_07_06_21_41_12.280,3.856,36.6,0,0.764,0,0,0,0, ,0,0,0,0,0, ,-40,369.5,929.5,-0.6,-0.5,-1.7,25,-40.5767,369.755,929.159,-0.692642,-0.480244,-1.74651,
2026_07_06_21_41_12.300,3.856,36.6,0,0.763,0,0,0,0, ,0,0,0,0,0, ,-40.6,370.4,928.5,-0.7,-0.5,-1.7,25,-40.5599,369.767,929.149,-0.690044,-0.481448,-1.74368,
2026_07_06_21_41_12.323,3.856,36.5,0,0.763,0,0,0,0, ,0,0,0,0,0, ,-41,370.2,927.9,-0.6,-0.4,-1.7,25,-40.5745,369.799,929.092,-0.687604,-0.479532,-1.74101,
2026_07_06_21_41_12.343,3.856,36.6,0,0.764,0,0,0,0, ,0,0,0,0,0, ,-40.7,370.6,930,-0.7,-0.4,-1.7,25,-40.5913,369.836,929.083,-0.685312,-0.474685,-1.73852,
2026_07_06_21_41_12.360,3.856,36.5,0,0.766,0,0,0,0, ,0,0,0,0,0, ,-41,370.6,929.3,-0.8,-0.5,-1.7,25,-40.607,369.882,929.118,-0.689254,-0.473181,-1.73617,
2026_07_06_21_41_12.380,3.856,36.5,0,0.764,0,0,0,0, ,0,0,0,0,0, ,-39.9,370.6,928.4,-0.6,-0.4,-1.7,25,-40.5975,369.926,929.101,-0.689909,-0.471768,-1.73396,
2026_07_06_21_41_12.399,3.856,36.5,0,0.763,0,0,0,0, ,0,0,0,0,0, ,-40.5,370.8,928.4,-0.7,-0.5,-1.7,25,-40.5733,369.973,929.058,-0.687477,-0.470442,-1.73189,
2026_07_06_21_41_12.423,3.856,36.6,0,0.764,0,0,0,0, ,0,0,0,0,0, ,-40,369,928.2,-0.7,-0.4,-1.7,25,-40.5536,369.969,929.012,-0.68824,-0.469196,-1.72995,
2026_07_06_21_41_12.439,3.856,36.5,0,0.763,0,0,0,0, ,0,0,0,0,0, ,-41.5,369.9,928.4,-0.7,-0.5,-1.8,25,-40.5655,369.937,928.969,-0.688957,-0.468026,-1.73117,
2026_07_06_21_41_12.459,3.856,36.6,0,0.764,0,0,0,0, ,0,0,0,0,0, ,-41.8,369.5,927.4,-0.6,-0.5,-1.8,25,-40.6316,369.923,928.904,-0.686583,-0.469975,-1.73537,
2026_07_06_21_41_12.479,3.856,36.5,0,0.764,0,0,0,0, ,0,0,0,0,0, ,-40.6,369.2,928.7,-0.6,-0.4,-1.7,25,-40.6662,369.888,928.852,-0.681307,-0.468758,-1.73626,
2026_07_06_21_41_12.498,3.856,36.5,0,0.764,0,0,0,0, ,0,0,0,0,0, ,-41.1,370.1,928.5,-0.7,-0.5,-1.7,25,-40.6774,369.873,928.836,-0.679399,-0.467614,-1.73405,
2026_07_06_21_41_12.518,3.856,36.6,0,0.764,0,0,0,0, ,0,0,0,0,0, ,-41.5,369.2,929.6,-0.7,-0.5,-1.7,25,-40.7154,369.86,928.849,-0.680654,-0.469588,-1.73197,
2026_07_06_21_41_12.538,3.856,36.5,0,0.764,0,0,0,0, ,0,0,0,0,0, ,-41.5,369.5,929.6,-0.6,-0.5,-1.7,25,-40.7632,369.829,928.895,-0.678786,-0.471441,-1.73003,
2026_07_06_21_41_12.558,3.856,36.6,0,0.763,0,0,0,0, ,0,0,0,0,0, ,-39.7,369,929.3,-0.8,-0.5,-1.7,25,-40.7533,369.793,928.929,-0.680079,-0.473182,-1.7282,
2026_07_06_21_41_12.584,3.856,36.6,0,0.764,0,0,0,0, ,0,0,0,0,0, ,-41,370.7,928.4,-0.7,-0.5,-1.8,25,-40.7287,369.797,928.924,-0.68434,-0.474816,-1.72952,
2026_07_06_21_41_12.598,3.856,36.5,0,0.762,0,0,0,0, ,0,0,0,0,0, ,-40.2,368.5,929,-0.7,-0.5,-1.7,25,-40.7208,369.785,928.91,-0.685294,-0.47635,-1.73077,
2026_07_06_21_41_12.618,3.856,36.6,0,0.764,0,0,0,0, ,0,0,0,0,0, ,-41,369.1,928.8,-0.6,-0.5,-1.8,25,-40.7135,369.725,928.91,-0.683143,-0.477792,-1.73194,
2026_07_06_21_41_12.637,3.856,36.6,0,0.765,0,0,0,0, ,0,0,0,0,0, ,-42.1,370.3,929.8,-0.8,-0.5,-1.8,25,-40.7644,369.723,928.934,-0.684171,-0.479145,-1.73609,
2026_07_06_21_41_12.657,3.856,36.6,0,0.764,0,0,0,0, ,0,0,0,0,0, ,-41,369.9,929.4,-0.7,-0.5,-1.8,25,-40.8123,369.746,928.974,-0.688182,-0.480416,-1.73999,
2026_07_06_21_41_12.677,3.856,36.5,0,0.764,0,0,0,0, ,0,0,0,0,0, ,-40.7,370.6,929.3,-0.8,-0.5,-1.8,25,-40.8146,369.777,928.997,-0.691949,-0.481609,-1.74364,
2026_07_06_21_41_12.696,3.856,36.6,0,0.764,0,0,0,0, ,0,0,0,0,0, ,-40,370.4,929.9,-0.7,-0.5,-1.7,25,-40.7863,369.821,929.034,-0.695487,-0.48273,-1.74403,
2026_07_06_21_41_12.716,3.856,36.6,0,0.764,0,0,0,0, ,0,0,0,0,0, ,-40.6,371.3,927.6,-0.7,-0.5,-1.7,25,-40.7567,369.884,929.017,-0.695762,-0.483782,-1.74135,
2026_07_06_21_41_12.736,3.856,36.5,0,0.763,0,0,0,0, ,0,0,0,0,0, ,-41.8,371,929.1,-0.8,-0.5,-1.7,25,-40.7837,369.961,928.976,-0.699067,-0.484771,-1.73883,
2026_07_06_21_41_12.756,3.856,36.6,0,0.765,0,0,0,0, ,0,0,0,0,0, ,-40.7,370.8,928.7,-0.7,-0.5,-1.7,25,-40.8121,370.018,928.971,-0.70217,-0.485699,-1.73646,
2026_07_06_21_41_12.776,3.856,36.6,0,0.763,0,0,0,0, ,0,0,0,0,0, ,-40.7,369.6,929.3,-0.6,-0.5,-1.8,25,-40.8053,370.029,928.973,-0.698991,-0.48657,-1.73729,
2026_07_06_21_41_12.797,3.856,36.5,0,0.764,0,0,0,0, ,0,0,0,0,0, ,-41.2,369.5,929.5,-0.7,-0.5,-1.8,25,-40.8141,370,928.999,-0.696006,-0.487388,-1.74111,
2026_07_06_21_41_12.816,3.856,36.5,0,0.763,0,0,0,0, ,0,0,0,0,0, ,-40.4,370.8,929.6,-0.7,-0.5,-1.8,25,-40.8132,370.009,929.033,-0.696249,-0.488157,-1.7447,
2026_07_06_21_41_12.835,3.856,36.6,0,0.763,0,0,0,0, ,0,0,0,0,0, ,-41.5,369.3,930,-0.6,-0.5,-1.7,25,-40.8216,370.012,929.079,-0.693431,-0.488879,-1.74502,
2026_07_06_21_41_12.855,3.856,36.5,0,0.764,0,0,0,0, ,0,0,0,0,0, ,-40,369.9,929,-0.5,-0.5,-1.8,25,-40.8172,369.987,929.105,-0.684691,-0.489556,-1.74532,
2026_07_06_21_41_12.874,3.856,36.6,0,0.764,0,0,0,0, ,0,0,0,0,0, ,-40,368.6,928.7,-0.7,-0.4,-1.8,25,-40.7674,369.942,929.089,-0.67953,-0.487146,-1.74866,
2026_07_06_21_41_12.894,3.856,36.5,0,0.766,0,0,0,0, ,0,0,0,0,0, ,-41.6,371,928.8,-0.7,-0.4,-1.8,25,-40.7694,369.933,929.069,-0.680777,-0.481835,-1.75178,
2026_07_06_21_41_12.914,3.856,36.5,0,0.763,0,0,0,0, ,0,0,0,0,0, ,-41.1,370.3,928.1,-0.6,-0.5,-1.7,25,-40.8048,369.977,929.031,-0.678902,-0.479895,-1.75168,
2026_07_06_21_41_12.934,3.856,36.5,0,0.763,0,0,0,0, ,0,0,0,0,0, ,-41.1,368.5,928.4,-0.6,-0.5,-1.7,25,-40.8228,369.942,928.984,-0.674094,-0.481121,-1.74853,
2026_07_06_21_41_12.954,3.856,36.6,0,0.765,0,0,0,0, ,0,0,0,0,0, ,-40.5,368.6,928.7,-0.7,-0.4,-1.8,25,-40.8214,369.857,928.957,-0.672625,-0.479224,-1.74862,
2026_07_06_21_41_12.974,3.856,36.6,0,0.764,0,0,0,0, ,0,0,0,0,0, ,-40.4,370.1,928.7,-0.8,-0.5,-1.7,25,-40.7987,369.826,928.941,-0.67734,-0.477443,-1.7487,
2026_07_06_21_41_12.994,3.856,36.6,0,0.766,0,0,0,0, ,0,0,0,0,0, ,-40.8,369.6,929.5,-0.7,-0.5,-1.7,25,-40.7866,369.827,928.951,-0.681768,-0.478818,-1.74573,
2026_07_06_21_41_13.014,3.856,36.5,0,0.766,0,0,0,0, ,0,0,0,0,0, ,-41.5,370.1,929.4,-0.7,-0.5,-1.8,25,-40.8088,369.829,928.981,-0.682879,-0.480109,-1.74599,
2026_07_06_21_41_13.033,3.856,36.6,0,0.765,0,0,0,0, ,0,0,0,0,0, ,-39.6,370.1,928.9,-0.7,-0.5,-1.8,25,-40.793,369.845,928.992,-0.683922,-0.481321,-1.74928,
2026_07_06_21_41_13.053,3.856,36.5,0,0.764,0,0,0,0, ,0,0,0,0,0, ,-41,370.2,929.4,-0.5,-0.5,-1.8,25,-40.763,369.864,929.001,-0.678808,-0.482459,-1.75237,
2026_07_06_21_41_13.072,3.856,36.6,0,0.766,0,0,0,0, ,0,0,0,0,0, ,-39.9,368.7,929.6,-0.7,-0.5,-1.8,25,-40.7439,369.839,929.032,-0.674006,-0.483528,-1.75528,
2026_07_06_21_41_13.092,3.856,36.4,0,0.764,0,0,0,0, ,0,0,0,0,0, ,-41.2,370.4,928.4,-0.8,-0.4,-1.8,25,-40.7321,369.821,929.03,-0.678637,-0.481485,-1.758,
2026_07_06_21_41_13.112,3.856,36.4,0,0.765,0,0,0,0, ,0,0,0,0,0, ,-40,370.3,929,-0.7,-0.5,-1.7,25,-40.724,369.853,929.01,-0.682986,-0.479566,-1.75751,
2026_07_06_21_41_13.133,3.856,36.6,0,0.763,0,0,0,0, ,0,0,0,0,0, ,-40.7,369.8,928.1,-0.7,-0.4,-1.7,25,-40.7012,369.865,928.982,-0.684022,-0.477765,-1.75401,
2026_07_06_21_41_13.152,3.856,36.5,0,0.765,0,0,0,0, ,0,0,0,0,0, ,-41,370.4,929.8,-0.8,-0.5,-1.8,25,-40.7103,369.88,928.98,-0.688043,-0.476073,-1.75377,
2026_07_06_21_41_13.172,3.856,36.5,0,0.764,0,0,0,0, ,0,0,0,0,0, ,-41.1,370.3,928.8,-0.8,-0.5,-1.7,25,-40.731,369.908,928.999,-0.694865,-0.477531,-1.75354,
2026_07_06_21_41_13.191,3.856,36.5,0,0.766,0,0,0,0, ,0,0,0,0,0, ,-41.1,370.2,927.7,-0.7,-0.5,-1.8,25,-40.7535,369.929,928.954,-0.698225,-0.4789,-1.75332,
2026_07_06_21_41_13.212,3.856,36.5,0,0.767,0,0,0,0, ,0,0,0,0,0, ,-40.4,370.1,930.1,-0.7,-0.5,-1.7,25,-40.7533,369.943,928.95,-0.698333,-0.480186,-1.75312,
2026_07_06_21_41_13.231,3.856,36.6,0,0.765,0,0,0,0, ,0,0,0,0,0, ,-41,370.9,929.5,-0.7,-0.5,-1.7,25,-40.75,369.976,929.002,-0.698435,-0.481393,-1.74988,
2026_07_06_21_41_13.253,3.856,36.5,0,0.765,0,0,0,0, ,0,0,0,0,0, ,-40.4,369.9,928.3,-0.7,-0.5,-1.8,25,-40.747,370.002,928.996,-0.69853,-0.482527,-1.74989,
2026_07_06_21_41_13.271,3.856,36.5,0,0.765,0,0,0,0, ,0,0,0,0,0, ,-40.6,370.7,930.2,-0.8,-0.4,-1.7,25,-40.7319,370.02,929.011,-0.701667,-0.480545,-1.7499,
2026_07_06_21_41_13.292,3.856,36.5,0,0.765,0,0,0,0, ,0,0,0,0,0, ,-41,370.7,929.4,-0.6,-0.4,-1.7,25,-40.7361,370.062,929.059,-0.701565,-0.475637,-1.74685,
2026_07_06_21_41_13.310,3.856,36.6,0,0.765,0,0,0,0, ,0,0,0,0,0, ,-40.1,370.1,929,-0.7,-0.5,-1.7,25,-40.7247,370.082,929.068,-0.698423,-0.474074,-1.744,
2026_07_06_21_41_13.330,3.856,36.5,0,0.763,0,0,0,0, ,0,0,0,0,0, ,-41,369,928.8,-0.6,-0.5,-1.8,25,-40.7141,370.05,929.058,-0.695472,-0.475654,-1.74437,
2026_07_06_21_41_13.350,3.856,36.4,0,0.765,0,0,0,0, ,0,0,0,0,0, ,-40.2,371,928.4,-0.7,-0.5,-1.8,25,-40.7071,370.047,929.03,-0.692701,-0.477138,-1.74776,
2026_07_06_21_41_13.370,3.856,36.5,0,0.766,0,0,0,0, ,0,0,0,0,0, ,-40.7,369.7,929.9,-0.6,-0.5,-1.7,25,-40.6915,370.065,929.037,-0.690099,-0.478531,-1.74789,
2026_07_06_21_41_13.389,3.856,36.6,0,0.765,0,0,0,0, ,0,0,0,0,0, ,-40.5,369.9,928.8,-0.7,-0.5,-1.8,25,-40.6859,370.049,929.056,-0.687655,-0.479839,-1.74802,
2026_07_06_21_41_13.409,3.856,36.6,0,0.763,0,0,0,0, ,0,0,0,0,0, ,-40.7,370.6,928.5,-0.7,-0.5,-1.8,25,-40.6807,370.061,929.032,-0.688408,-0.481068,-1.75119,
2026_07_06_21_41_13.429,3.856,36.6,0,0.765,0,0,0,0, ,0,0,0,0,0, ,-40.4,370.9,928.7,-0.6,-0.5,-1.8,25,-40.6727,370.103,929.005,-0.686067,-0.482222,-1.75416,
2026_07_06_21_41_13.450,3.856,36.4,0,0.763,0,0,0,0, ,0,0,0,0,0, ,-40,370.1,928.5,-0.6,-0.5,-1.7,25,-40.6439,370.128,928.981,-0.680823,-0.483305,-1.75391,
2026_07_06_21_41_13.468,3.856,36.6,0,0.765,0,0,0,0, ,0,0,0,0,0, ,-41.1,369.1,929.3,-0.7,-0.5,-1.8,25,-40.6382,370.095,928.976,-0.678944,-0.484322,-1.75367,
2026_07_06_21_41_13.490,3.856,36.6,0,0.765,0,0,0,0, ,0,0,0,0,0, ,-39.6,370.4,928.4,-0.7,-0.5,-1.8,25,-40.6206,370.074,928.968,-0.680227,-0.485278,-1.75649,
2026_07_06_21_41_13.508,3.856,36.5,0,0.766,0,0,0,0, ,0,0,0,0,0, ,-40.8,369.2,929,-0.7,-0.5,-1.7,25,-40.595,370.058,928.952,-0.681432,-0.486175,-1.7561,
2026_07_06_21_41_13.530,3.856,36.4,0,0.765,0,0,0,0, ,0,0,0,0,0, ,-40.4,369.3,929,-0.7,-0.5,-1.7,25,-40.5953,370.008,928.955,-0.682564,-0.487017,-1.75268,
2026_07_06_21_41_13.548,3.856,36.5,0,0.765,0,0,0,0, ,0,0,0,0,0, ,-41.9,369.2,929.3,-0.7,-0.5,-1.8,25,-40.6291,369.962,928.966,-0.683626,-0.487808,-1.75252,
2026_07_06_21_41_13.569,3.856,36.4,0,0.764,0,0,0,0, ,0,0,0,0,0, ,-41,370.6,929.1,-0.8,-0.4,-1.8,25,-40.6791,369.958,928.981,-0.687671,-0.485504,-1.75541,
2026_07_06_21_41_13.588,3.856,36.4,0,0.763,0,0,0,0, ,0,0,0,0,0, ,-40.7,369.7,929.1,-0.7,-0.5,-1.8,25,-40.6895,369.97,928.988,-0.691469,-0.483341,-1.75813,
2026_07_06_21_41_13.609,3.856,36.6,0,0.765,0,0,0,0, ,0,0,0,0,0, ,-40.1,369.8,929.1,-0.7,-0.5,-1.8,25,-40.6719,369.957,928.995,-0.691989,-0.484356,-1.76068,
2026_07_06_21_41_13.627,3.856,36.6,0,0.766,0,0,0,0, ,0,0,0,0,0, ,-40.8,370.1,929.1,-0.7,-0.5,-1.7,25,-40.6584,369.956,929.001,-0.692477,-0.485309,-1.76003,
2026_07_06_21_41_13.649,3.856,36.5,0,0.765,0,0,0,0, ,0,0,0,0,0, ,-41.8,370.6,929.1,-0.8,-0.5,-1.8,25,-40.6975,369.98,929.007,-0.695982,-0.486205,-1.75942,
2026_07_06_21_41_13.666,3.856,36.6,0,0.765,0,0,0,0, ,0,0,0,0,0, ,-40.7,370.7,930.5,-0.6,-0.5,-1.7,25,-40.7311,370.021,929.056,-0.696227,-0.487045,-1.75884,
2026_07_06_21_41_13.686,3.856,36.5,0,0.764,0,0,0,0, ,0,0,0,0,0, ,-41.1,369.6,928.5,-0.7,-0.5,-1.7,25,-40.7414,370.029,929.083,-0.69341,-0.487835,-1.75526,
2026_07_06_21_41_13.706,3.856,36.5,0,0.765,0,0,0,0, ,0,0,0,0,0, ,-40.4,370.2,928.2,-0.7,-0.5,-1.7,25,-40.7419,370.021,929.038,-0.693812,-0.488576,-1.75189,
2026_07_06_21_41_13.727,3.856,36.6,0,0.765,0,0,0,0, ,0,0,0,0,0, ,-41.2,369.2,930.4,-0.7,-0.5,-1.8,25,-40.7455,370.002,929.054,-0.694189,-0.489272,-1.75177,
2026_07_06_21_41_13.746,3.856,36.5,0,0.765,0,0,0,0, ,0,0,0,0,0, ,-40.6,370.3,931.1,-0.7,-0.5,-1.8,25,-40.7549,369.986,929.157,-0.694543,-0.489926,-1.75471,
2026_07_06_21_41_13.767,3.856,36.5,0,0.764,0,0,0,0, ,0,0,0,0,0, ,-40.6,370.9,928.4,-0.8,-0.5,-1.7,25,-40.7455,370.024,929.193,-0.697922,-0.49054,-1.75443,
2026_07_06_21_41_13.786,3.856,36.6,0,0.766,0,0,0,0, ,0,0,0,0,0, ,-40.2,369.2,927.8,-0.7,-0.5,-1.7,25,-40.7244,370.025,929.127,-0.701096,-0.491116,-1.75111,
2026_07_06_21_41_13.808,3.856,36.5,0,0.765,0,0,0,0, ,0,0,0,0,0, ,-40.4,369.8,929.3,-0.8,-0.5,-1.7,25,-40.6985,369.993,929.092,-0.704076,-0.491658,-1.748,
2026_07_06_21_41_13.825,3.856,36.4,0,0.765,0,0,0,0, ,0,0,0,0,0, ,-40.1,369.9,929.1,-0.7,-0.5,-1.7,25,-40.6712,369.984,929.098,-0.706874,-0.492166,-1.74507,
2026_07_06_21_41_13.846,3.856,36.5,0,0.765,0,0,0,0, ,0,0,0,0,0, ,-40.2,370.3,929.6,-0.8,-0.5,-1.7,25,-40.6395,369.992,929.114,-0.709502,-0.492643,-1.74232,
2026_07_06_21_41_13.864,3.856,36.6,0,0.765,0,0,0,0, ,0,0,0,0,0, ,-41.8,370.9,929.9,-0.7,-0.5,-1.8,25,-40.6614,370.029,929.152,-0.71197,-0.493092,-1.74279,
2026_07_06_21_41_13.886,3.856,36.5,0,0.765,0,0,0,0, ,0,0,0,0,0, ,-41.2,370.2,930.2,-0.7,-0.5,-1.8,25,-40.7125,370.06,929.207,-0.711241,-0.493513,-1.74628,
2026_07_06_21_41_13.904,3.856,36.5,0,0.764,0,0,0,0, ,0,0,0,0,0, ,-40,370.8,928.5,-0.7,-0.5,-1.8,25,-40.7057,370.087,929.216,-0.710556,-0.493908,-1.74955,
2026_07_06_21_41_13.925,3.856,36.6,0,0.766,0,0,0,0, ,0,0,0,0,0, ,-39.4,370.3,928.4,-0.7,-0.5,-1.8,25,-40.6444,370.115,929.169,-0.709913,-0.494279,-1.75263,
2026_07_06_21_41_13.944,3.856,36.6,0,0.765,0,0,0,0, ,0,0,0,0,0, ,-41.8,372,930.2,-0.6,-0.5,-1.8,25,-40.6417,370.178,929.177,-0.706262,-0.494628,-1.75551,
2026_07_06_21_41_13.965,3.856,36.5,0,0.765,0,0,0,0, ,0,0,0,0,0, ,-40.4,370.7,928.7,-0.6,-0.5,-1.7,25,-40.6696,370.25,929.194,-0.699786,-0.494955,-1.75518,
2026_07_06_21_41_13.989,3.856,36.4,0,0.763,0,0,0,0, ,0,0,0,0,0, ,-39.7,369,928.2,-0.6,-0.5,-1.8,25,-40.6319,370.225,929.148,-0.693706,-0.495263,-1.75486,
2026_07_06_21_41_14.010,3.856,36.4,0,0.765,0,0,0,0, ,0,0,0,0,0, ,-40.8,370.4,929.4,-0.7,-0.5,-1.7,25,-40.6086,370.193,929.127,-0.691042,-0.495551,-1.75457,
2026_07_06_21_41_14.023,3.856,36.5,0,0.765,0,0,0,0, ,0,0,0,0,0, ,-41.1,369.9,930.4,-0.6,-0.5,-1.7,25,-40.6294,370.191,929.174,-0.688541,-0.495822,-1.75124,
2026_07_06_21_41_14.044,3.856,36.5,0,0.766,0,0,0,0, ,0,0,0,0,0, ,-41.1,369.8,928.9,-0.7,-0.5,-1.7,25,-40.6581,370.17,929.203,-0.686193,-0.496077,-1.74812,
2026_07_06_21_41_14.063,3.856,36.5,0,0.763,0,0,0,0, ,0,0,0,0,0, ,-40.8,368.8,928.5,-0.8,-0.5,-1.8,25,-40.6759,370.117,929.173,-0.690081,-0.496316,-1.74823,
2026_07_06_21_41_14.084,3.856,36.5,0,0.763,0,0,0,0, ,0,0,0,0,0, ,-39.4,371.7,929.9,-0.7,-0.6,-1.8,25,-40.6408,370.125,929.174,-0.693732,-0.499587,-1.75139,
2026_07_06_21_41_14.102,3.856,36.5,0,0.765,0,0,0,0, ,0,0,0,0,0, ,-41.2,369.2,928.5,-0.7,-0.5,-1.7,25,-40.62,370.145,929.176,-0.694114,-0.502659,-1.7513,
2026_07_06_21_41_14.122,3.856,36.5,0,0.765,0,0,0,0, ,0,0,0,0,0, ,-41.9,370.3,928.1,-0.7,-0.5,-1.7,25,-40.6767,370.121,929.122,-0.694473,-0.502497,-1.74818,
2026_07_06_21_41_14.142,3.856,36.5,0,0.763,0,0,0,0, ,0,0,0,0,0, ,-40.5,369.6,929.4,-0.7,-0.5,-1.7,25,-40.7086,370.11,929.1,-0.69481,-0.502345,-1.74524,
2026_07_06_21_41_14.165,3.856,36.5,0,0.763,0,0,0,0, ,0,0,0,0,0, ,-40.4,369.1,931.1,-0.7,-0.4,-1.7,25,-40.6928,370.064,929.17,-0.695126,-0.499155,-1.74248,
2026_07_06_21_41_14.182,3.856,36.6,0,0.766,0,0,0,0, ,0,0,0,0,0, ,-40.6,370.7,929.1,-0.7,-0.5,-1.7,25,-40.6811,370.054,929.227,-0.695423,-0.49616,-1.73989,
2026_07_06_21_41_14.203,3.856,36.6,0,0.763,0,0,0,0, ,0,0,0,0,0, ,-41.6,369.8,930.6,-0.6,-0.5,-1.7,25,-40.7066,370.066,929.265,-0.692655,-0.496394,-1.73746,
2026_07_06_21_41_14.222,3.856,36.5,0,0.766,0,0,0,0, ,0,0,0,0,0, ,-40.7,370.3,929.4,-0.7,-0.5,-1.8,25,-40.7336,370.065,929.309,-0.690056,-0.496614,-1.73823,
2026_07_06_21_41_14.243,3.856,36.6,0,0.766,0,0,0,0, ,0,0,0,0,0, ,-41.1,369.8,928.8,-0.6,-0.5,-1.7,25,-40.7437,370.064,929.297,-0.687615,-0.49682,-1.73894,
2026_07_06_21_41_14.261,3.856,36.4,0,0.765,0,0,0,0, ,0,0,0,0,0, ,-41.1,369.9,929,-0.6,-0.5,-1.8,25,-40.7655,370.051,929.272,-0.682276,-0.497014,-1.73962,
2026_07_06_21_41_14.282,3.856,36.6,0,0.763,0,0,0,0, ,0,0,0,0,0, ,-41.1,369.1,928.2,-0.7,-0.5,-1.8,25,-40.7858,370.018,929.231,-0.680309,-0.497196,-1.7433,
2026_07_06_21_41_14.300,3.856,36.5,0,0.765,0,0,0,0, ,0,0,0,0,0, ,-40.2,370.2,928.3,-0.7,-0.4,-1.8,25,-40.7776,369.995,929.172,-0.681509,-0.49432,-1.74675,
2026_07_06_21_41_14.324,3.856,36.5,0,0.766,0,0,0,0, ,0,0,0,0,0, ,-40.4,368.7,928.8,-0.6,-0.4,-1.8,25,-40.7485,369.962,929.134,-0.679589,-0.488572,-1.75,
2026_07_06_21_41_14.340,3.856,36.5,0,0.765,0,0,0,0, ,0,0,0,0,0, ,-41.1,368.1,928.7,-0.6,-0.4,-1.8,25,-40.7486,369.867,929.11,-0.674739,-0.483175,-1.75305,
2026_07_06_21_41_14.362,3.856,36.5,0,0.765,0,0,0,0, ,0,0,0,0,0, ,-41.1,370.1,928.2,-0.7,-0.5,-1.8,25,-40.77,369.82,929.07,-0.673231,-0.481153,-1.75591,
2026_07_06_21_41_14.379,3.856,36.4,0,0.765,0,0,0,0, ,0,0,0,0,0, ,-41,369.7,927.9,-0.7,-0.5,-1.8,25,-40.787,369.825,929.008,-0.674863,-0.482302,-1.75859,
2026_07_06_21_41_14.401,3.856,36.5,0,0.763,0,0,0,0, ,0,0,0,0,0, ,-40.8,369.8,929.8,-0.7,-0.6,-1.7,25,-40.7939,369.82,928.998,-0.676394,-0.486427,-1.75807,
2026_07_06_21_41_14.419,3.856,36.6,0,0.765,0,0,0,0, ,0,0,0,0,0, ,-41.2,369.8,929.3,-0.7,-0.5,-1.7,25,-40.8065,369.819,929.032,-0.677833,-0.490301,-1.75453,
2026_07_06_21_41_14.440,3.856,36.5,0,0.766,0,0,0,0, ,0,0,0,0,0, ,-40.2,370.4,928.7,-0.7,-0.5,-1.7,25,-40.8,369.836,929.03,-0.679184,-0.490892,-1.75121,
2026_07_06_21_41_14.459,3.856,36.5,0,0.765,0,0,0,0, ,0,0,0,0,0, ,-41.3,370.7,928.9,-0.6,-0.5,-1.7,25,-40.7969,369.88,929.016,-0.677405,-0.491447,-1.74809,
2026_07_06_21_41_14.480,3.856,36.5,0,0.766,0,0,0,0, ,0,0,0,0,0, ,-40,369.9,929.3,-0.6,-0.5,-1.6,25,-40.788,369.905,929.021,-0.672688,-0.491968,-1.74211,
2026_07_06_21_41_14.499,3.856,36.5,0,0.765,0,0,0,0, ,0,0,0,0,0, ,-40.2,369,929.5,-0.7,-0.4,-1.7,25,-40.7461,369.878,929.044,-0.671306,-0.489411,-1.7365,
2026_07_06_21_41_14.529,3.856,36.4,0,0.763,0,0,0,0, ,0,0,0,0,0, ,-40.2,370.2,929.3,-0.7,-0.4,-1.7,25,-40.7128,369.861,929.066,-0.673054,-0.483962,-1.73427,
2026_07_06_21_41_14.538,3.856,36.6,0,0.765,0,0,0,0, ,0,0,0,0,0, ,-40.2,369,928.2,-0.7,-0.5,-1.7,25,-40.6815,369.845,929.047,-0.674696,-0.481893,-1.73218,
2026_07_06_21_41_14.560,3.856,36.5,0,0.765,0,0,0,0, ,0,0,0,0,0, ,-41,369.7,929.5,-0.7,-0.5,-1.7,25,-40.6766,369.815,929.035,-0.676238,-0.482996,-1.73022,
2026_07_06_21_41_14.578,3.856,36.5,0,0.765,0,0,0,0, ,0,0,0,0,0, ,-41.5,370.6,929,-0.7,-0.5,-1.8,25,-40.7115,369.835,929.048,-0.677686,-0.484032,-1.73143,
2026_07_06_21_41_14.601,3.856,36.5,0,0.763,0,0,0,0, ,0,0,0,0,0, ,-40,370.4,928.7,-0.7,-0.5,-1.7,25,-40.7139,369.876,929.036,-0.679046,-0.485005,-1.73256,
2026_07_06_21_41_14.617,3.856,36.5,0,0.763,0,0,0,0, ,0,0,0,0,0, ,-39.6,370.1,929.5,-0.7,-0.5,-1.7,25,-40.6582,369.898,929.04,-0.680323,-0.485919,-1.73058,
2026_07_06_21_41_14.638,3.856,36.5,0,0.765,0,0,0,0, ,0,0,0,0,0, ,-40.6,370.1,929,-0.8,-0.5,-1.7,25,-40.6242,369.911,929.052,-0.684569,-0.486777,-1.72871,
2026_07_06_21_41_14.657,3.856,36.5,0,0.763,0,0,0,0, ,0,0,0,0,0, ,-40,370.7,929.6,-0.7,-0.5,-1.8,25,-40.6044,369.94,929.068,-0.688556,-0.487583,-1.73001,
2026_07_06_21_41_14.681,3.856,36.5,0,0.763,0,0,0,0, ,0,0,0,0,0, ,-40.5,370.8,930.6,-0.7,-0.5,-1.7,25,-40.5828,369.99,929.13,-0.689253,-0.48834,-1.73123,
2026_07_06_21_41_14.697,3.856,36.5,0,0.765,0,0,0,0, ,0,0,0,0,0, ,-41.2,370.4,929.4,-0.7,-0.5,-1.8,25,-40.5991,370.027,929.183,-0.689908,-0.48905,-1.73237,
2026_07_06_21_41_14.720,3.856,36.5,0,0.763,0,0,0,0, ,0,0,0,0,0, ,-40.6,369.3,929.3,-0.7,-0.5,-1.7,25,-40.6174,370.016,929.194,-0.690523,-0.489717,-1.73345,
2026_07_06_21_41_14.736,3.856,36.5,0,0.765,0,0,0,0, ,0,0,0,0,0, ,-40.1,369.2,928.1,-0.7,-0.5,-1.8,25,-40.6011,369.97,929.164,-0.691101,-0.490344,-1.73446,
2026_07_06_21_41_14.759,3.856,36.6,0,0.764,0,0,0,0, ,0,0,0,0,0, ,-40.6,370.9,928.2,-0.6,-0.5,-1.7,25,-40.5858,369.974,929.102,-0.688596,-0.490932,-1.7354,
2026_07_06_21_41_14.775,3.856,36.6,0,0.765,0,0,0,0, ,0,0,0,0,0, ,-41.1,369.9,929.4,-0.6,-0.5,-1.7,25,-40.6019,370,929.083,-0.683197,-0.491485,-1.73325,
2026_07_06_21_41_14.797,3.856,36.5,0,0.763,0,0,0,0, ,0,0,0,0,0, ,-41.5,369.5,930.2,-0.7,-0.5,-1.8,25,-40.6445,369.982,929.127,-0.681174,-0.492004,-1.73427,
2026_07_06_21_41_14.815,3.856,36.4,0,0.765,0,0,0,0, ,0,0,0,0,0, ,-40.4,370.4,927.4,-0.7,-0.5,-1.8,25,-40.6631,369.98,929.107,-0.682322,-0.492491,-1.73827,
2026_07_06_21_41_14.839,3.856,36.5,0,0.763,0,0,0,0, ,0,0,0,0,0, ,-40.5,368.4,928.8,-0.6,-0.4,-1.7,25,-40.6501,369.945,929.046,-0.680352,-0.489902,-1.73899,
2026_07_06_21_41_14.855,3.856,36.5,0,0.763,0,0,0,0, ,0,0,0,0,0, ,-41.2,368.4,928.9,-0.6,-0.5,-1.8,25,-40.6623,369.851,929.034,-0.675456,-0.48747,-1.73966,
2026_07_06_21_41_14.879,3.856,36.4,0,0.765,0,0,0,0, ,0,0,0,0,0, ,-40.7,371.3,928.3,-0.7,-0.4,-1.7,25,-40.6798,369.851,929.007,-0.673904,-0.485187,-1.74029,
2026_07_06_21_41_14.895,3.856,36.5,0,0.766,0,0,0,0, ,0,0,0,0,0, ,-39.5,370.2,929.3,-0.7,-0.5,-1.8,25,-40.6445,369.905,928.995,-0.675495,-0.483043,-1.74088,
2026_07_06_21_41_14.917,3.856,36.5,0,0.763,0,0,0,0, ,0,0,0,0,0, ,-41.2,370.6,929,-0.7,-0.5,-1.6,25,-40.6265,369.936,929.004,-0.676988,-0.484076,-1.73839,
2026_07_06_21_41_14.934,3.856,36.5,0,0.765,0,0,0,0, ,0,0,0,0,0, ,-40.8,368.8,929,-0.8,-0.5,-1.8,25,-40.6493,369.921,929.004,-0.681437,-0.485046,-1.73605,
2026_07_06_21_41_14.957,3.856,36.5,0,0.765,0,0,0,0, ,0,0,0,0,0, ,-40.2,371,928.8,-0.8,-0.5,-1.7,25,-40.6402,369.92,928.998,-0.688662,-0.485958,-1.7369,
2026_07_06_21_41_14.974,3.856,36.5,0,0.765,0,0,0,0, ,0,0,0,0,0, ,-40,370.4,929,-0.7,-0.5,-1.8,25,-40.6073,369.967,928.992,-0.6924,-0.486813,-1.7377,
2026_07_06_21_41_14.998,3.856,36.5,0,0.765,0,0,0,0, ,0,0,0,0,0, ,-41.5,370.2,929.1,-0.7,-0.5,-1.7,25,-40.616,369.988,928.995,-0.692863,-0.487617,-1.73845,
2026_07_06_21_41_15.014,3.856,36.5,0,0.765,0,0,0,0, ,0,0,0,0,0, ,-40.6,369.9,930.5,-0.7,-0.5,-1.8,25,-40.6424,369.991,929.044,-0.693298,-0.488372,-1.73915,
2026_07_06_21_41_15.037,3.856,36.5,0,0.766,0,0,0,0, ,0,0,0,0,0, ,-39.1,370.1,929,-0.7,-0.4,-1.7,25,-40.5941,369.992,929.087,-0.693706,-0.486033,-1.73981,
2026_07_06_21_41_15.053,3.856,36.5,0,0.763,0,0,0,0, ,0,0,0,0,0, ,-41.2,371,929.4,-0.6,-0.5,-1.7,25,-40.5671,370.026,929.094,-0.691043,-0.483837,-1.73739,
2026_07_06_21_41_15.077,3.856,36.5,0,0.765,0,0,0,0, ,0,0,0,0,0, ,-41.7,369,928.8,-0.6,-0.5,-1.7,25,-40.6209,370.024,929.094,-0.685495,-0.484822,-1.73511,
2026_07_06_21_41_15.092,3.856,36.6,0,0.765,0,0,0,0, ,0,0,0,0,0, ,-40.8,368.8,930,-0.6,-0.5,-1.8,25,-40.6592,369.956,929.113,-0.680285,-0.485747,-1.73602,
2026_07_06_21_41_15.116,3.856,36.5,0,0.766,0,0,0,0, ,0,0,0,0,0, ,-39.5,370.7,928.8,-0.7,-0.5,-1.8,25,-40.6282,369.943,929.131,-0.67844,-0.486616,-1.73991,
2026_07_06_21_41_15.132,3.856,36.4,0,0.763,0,0,0,0, ,0,0,0,0,0, ,-40.1,370.3,930.2,-0.7,-0.5,-1.8,25,-40.5777,369.977,929.153,-0.679753,-0.487431,-1.74358,
2026_07_06_21_41_15.155,3.856,36.4,0,0.765,0,0,0,0, ,0,0,0,0,0, ,-41.5,369.8,929.3,-0.8,-0.5,-1.8,25,-40.5913,369.982,929.189,-0.684034,-0.488197,-1.74701,
2026_07_06_21_41_15.172,3.856,36.4,0,0.765,0,0,0,0, ,0,0,0,0,0, ,-41,371.5,929.4,-0.6,-0.5,-1.8,25,-40.6314,370.022,929.199,-0.685007,-0.488917,-1.75024,
2026_07_06_21_41_15.195,3.856,36.4,0,0.763,0,0,0,0, ,0,0,0,0,0, ,-41.1,369.5,928.5,-0.7,-0.5,-1.7,25,-40.6569,370.052,929.184,-0.682874,-0.489592,-1.75023,
2026_07_06_21_41_15.212,3.856,36.4,0,0.765,0,0,0,0, ,0,0,0,0,0, ,-40.5,369.9,928.4,-0.6,-0.5,-1.8,25,-40.6656,370.03,929.139,-0.680871,-0.490226,-1.75021,
2026_07_06_21_41_15.236,3.856,36.4,0,0.763,0,0,0,0, ,0,0,0,0,0, ,-42.1,371.2,928.5,-0.7,-0.5,-1.8,25,-40.7043,370.062,929.097,-0.678989,-0.490822,-1.75325,
2026_07_06_21_41_15.251,3.856,36.5,0,0.763,0,0,0,0, ,0,0,0,0,0, ,-41.2,370.2,929.8,-0.6,-0.4,-1.7,25,-40.7619,370.101,929.101,-0.677223,-0.488334,-1.75305,
2026_07_06_21_41_15.277,3.856,36.5,0,0.765,0,0,0,0, ,0,0,0,0,0, ,-41.9,369.3,928.4,-0.6,-0.5,-1.7,25,-40.8099,370.079,929.101,-0.672517,-0.485998,-1.74982,
2026_07_06_21_41_15.291,3.856,36.5,0,0.763,0,0,0,0, ,0,0,0,0,0, ,-41,369.2,929.8,-0.7,-0.5,-1.7,25,-40.8489,370.029,929.1,-0.671145,-0.486851,-1.74678,
2026_07_06_21_41_15.314,3.856,36.5,0,0.763,0,0,0,0, ,0,0,0,0,0, ,-40.4,370.6,927.7,-0.7,-0.5,-1.7,25,-40.8399,370.021,929.079,-0.672903,-0.487653,-1.74393,
2026_07_06_21_41_15.330,3.856,36.4,0,0.766,0,0,0,0, ,0,0,0,0,0, ,-41,370.1,928.8,-0.7,-0.5,-1.7,25,-40.8313,370.041,929.029,-0.674554,-0.488405,-1.74125,
2026_07_06_21_41_15.354,3.856,36.5,0,0.765,0,0,0,0, ,0,0,0,0,0, ,-39.6,369.7,929.5,-0.6,-0.5,-1.7,25,-40.799,370.032,929.036,-0.673058,-0.489112,-1.73874,
2026_07_06_21_41_15.374,3.856,36.5,0,0.765,0,0,0,0, ,0,0,0,0,0, ,-40.8,369.8,929.6,-0.8,-0.5,-1.8,25,-40.7625,370.015,929.067,-0.6747,-0.489775,-1.73943,
2026_07_06_21_41_15.399,3.856,36.5,0,0.765,0,0,0,0, ,0,0,0,0,0, ,-40.7,369.7,928.5,-0.8,-0.4,-1.8,25,-40.7617,369.999,929.066,-0.682335,-0.487351,-1.74312,
2026_07_06_21_41_15.409,3.856,36.4,0,0.765,0,0,0,0, ,0,0,0,0,0, ,-39.7,369.6,929.5,-0.8,-0.5,-1.7,25,-40.7275,369.978,929.062,-0.689506,-0.485075,-1.74354,
2026_07_06_21_41_15.432,3.856,36.6,0,0.765,0,0,0,0, ,0,0,0,0,0, ,-41,370.3,929.1,-0.8,-0.5,-1.7,25,-40.7045,369.976,929.077,-0.696239,-0.485985,-1.74088,
2026_07_06_21_41_15.449,3.856,36.6,0,0.763,0,0,0,0, ,0,0,0,0,0, ,-41.3,369.5,928.8,-0.8,-0.5,-1.7,25,-40.7316,369.971,929.069,-0.702562,-0.486839,-1.73839,
2026_07_06_21_41_15.472,3.856,36.5,0,0.763,0,0,0,0, ,0,0,0,0,0, ,-40.7,370.1,929.8,-0.7,-0.5,-1.7,25,-40.748,369.961,929.083,-0.705453,-0.487641,-1.73605,
2026_07_06_21_41_15.489,3.856,36.5,0,0.763,0,0,0,0, ,0,0,0,0,0, ,-39.5,369.5,929.1,-0.7,-0.5,-1.8,25,-40.7085,369.951,929.105,-0.70512,-0.488394,-1.7369,
2026_07_06_21_41_15.513,3.856,36.5,0,0.765,0,0,0,0, ,0,0,0,0,0, ,-40,370.4,929.6,-0.7,-0.5,-1.7,25,-40.6501,369.951,929.12,-0.704808,-0.489101,-1.7377,
2026_07_06_21_41_15.528,3.856,36.4,0,0.765,0,0,0,0, ,0,0,0,0,0, ,-42.1,369.9,928.3,-0.6,-0.4,-1.8,25,-40.6745,369.963,929.11,-0.701468,-0.486718,-1.73845,
2026_07_06_21_41_15.554,3.856,36.5,0,0.765,0,0,0,0, ,0,0,0,0,0, ,-40.8,369.5,931.1,-0.7,-0.4,-1.7,25,-40.7217,369.947,929.146,-0.698332,-0.481434,-1.73915,
2026_07_06_21_41_15.568,3.856,36.5,0,0.765,0,0,0,0, ,0,0,0,0,0, ,-42.3,370.7,929.6,-0.6,-0.5,-1.7,25,-40.7722,369.956,929.219,-0.695387,-0.479519,-1.73677,
2026_07_06_21_41_15.592,3.856,36.5,0,0.765,0,0,0,0, ,0,0,0,0,0, ,-41,370.2,928.4,-0.5,-0.5,-1.7,25,-40.8257,369.987,929.206,-0.686527,-0.480767,-1.73453,
2026_07_06_21_41_15.607,3.856,36.6,0,0.765,0,0,0,0, ,0,0,0,0,0, ,-40.5,369.1,927.9,-0.9,-0.5,-1.8,25,-40.8211,369.966,929.142,-0.687348,-0.481939,-1.73547,
2026_07_06_21_41_15.632,3.856,36.5,0,0.765,0,0,0,0, ,0,0,0,0,0, ,-40.7,370.8,929.8,-0.7,-0.4,-1.7,25,-40.8076,369.965,929.124,-0.694213,-0.479992,-1.73636,
2026_07_06_21_41_15.647,3.856,36.5,0,0.763,0,0,0,0, ,0,0,0,0,0, ,-40.2,370.3,929.8,-0.6,-0.4,-1.8,25,-40.7858,370.001,929.165,-0.691519,-0.475118,-1.73719,
2026_07_06_21_41_15.671,3.856,36.3,0,0.765,0,0,0,0, ,0,0,0,0,0, ,-40.5,370.9,928.3,-0.8,-0.5,-1.7,25,-40.7592,370.037,929.158,-0.692036,-0.473587,-1.73797,
2026_07_06_21_41_15.687,3.856,36.4,0,0.765,0,0,0,0, ,0,0,0,0,0, ,-41,369.7,928.9,-0.8,-0.5,-1.8,25,-40.7587,370.053,929.124,-0.698615,-0.475197,-1.7387,
2026_07_06_21_41_15.710,3.856,36.5,0,0.763,0,0,0,0, ,0,0,0,0,0, ,-41.3,370.9,928.2,-0.7,-0.5,-1.7,25,-40.7825,370.068,929.089,-0.701746,-0.476708,-1.73939,
2026_07_06_21_41_15.726,3.856,36.4,0,0.765,0,0,0,0, ,0,0,0,0,0, ,-42.6,370.4,929.6,-0.7,-0.5,-1.7,25,-40.8537,370.104,929.077,-0.70164,-0.478128,-1.73699,
2026_07_06_21_41_15.752,3.856,36.5,0,0.764,0,0,0,0, ,0,0,0,0,0, ,-41.8,369.6,928.9,-0.8,-0.5,-1.7,25,-40.9357,370.097,929.088,-0.704587,-0.47946,-1.73474,
2026_07_06_21_41_15.766,3.856,36.5,0,0.765,0,0,0,0, ,0,0,0,0,0, ,-40.7,370.6,928.8,-0.8,-0.5,-1.7,25,-40.9549,370.098,929.074,-0.710401,-0.480712,-1.73262,
2026_07_06_21_41_15.789,3.856,36.5,0,0.764,0,0,0,0, ,0,0,0,0,0, ,-40.5,370.1,928.4,-0.6,-0.5,-1.7,25,-40.9332,370.113,929.045,-0.709767,-0.481887,-1.73063,
2026_07_06_21_41_15.805,3.856,36.4,0,0.764,0,0,0,0, ,0,0,0,0,0, ,-40.5,370.6,929,-0.6,-0.5,-1.7,25,-40.9068,370.127,929.024,-0.703078,-0.482991,-1.72876,
2026_07_06_21_41_15.830,3.856,36.5,0,0.765,0,0,0,0, ,0,0,0,0,0, ,-41.7,369.6,928.7,-0.7,-0.4,-1.7,25,-40.9186,370.126,929.013,-0.699844,-0.480981,-1.72701,
2026_07_06_21_41_15.845,3.856,36.3,0,0.765,0,0,0,0, ,0,0,0,0,0, ,-41.2,369.6,929.3,-0.6,-0.5,-1.8,25,-40.951,370.094,929.012,-0.696806,-0.479093,-1.72841,
2026_07_06_21_41_15.871,3.856,36.4,0,0.764,0,0,0,0, ,0,0,0,0,0, ,-40,370.4,928.7,-0.7,-0.5,-1.8,25,-40.9296,370.088,929.012,-0.693954,-0.480367,-1.73277,
2026_07_06_21_41_15.885,3.856,36.5,0,0.764,0,0,0,0, ,0,0,0,0,0, ,-41.5,369.2,928.7,-0.8,-0.5,-1.7,25,-40.9187,370.07,928.993,-0.697369,-0.481563,-1.73382,
2026_07_06_21_41_15.910,3.856,36.4,0,0.765,0,0,0,0, ,0,0,0,0,0, ,-40.8,370.4,927.9,-0.8,-0.5,-1.8,25,-40.9328,370.054,928.95,-0.703623,-0.482687,-1.73481,
2026_07_06_21_41_15.924,3.856,36.5,0,0.765,0,0,0,0, ,0,0,0,0,0, ,-41.7,369.7,929.5,-0.6,-0.5,-1.7,25,-40.9521,370.054,928.935,-0.703403,-0.483742,-1.73574,
2026_07_06_21_41_15.948,3.856,36.5,0,0.765,0,0,0,0, ,0,0,0,0,0, ,-40.6,369.7,927.9,-0.8,-0.6,-1.8,25,-40.9641,370.032,928.921,-0.703195,-0.487779,-1.73661,
2026_07_06_21_41_15.964,3.856,36.5,0,0.764,0,0,0,0, ,0,0,0,0,0, ,-39.7,369.8,930.2,-0.8,-0.4,-1.7,25,-40.9145,370.015,928.929,-0.709094,-0.488524,-1.73742,
2026_07_06_21_41_15.989,3.856,36.5,0,0.766,0,0,0,0, ,0,0,0,0,0, ,-40.4,369.7,929.5,-0.6,-0.4,-1.7,25,-40.8619,369.999,928.985,-0.70854,-0.48313,-1.73514,
2026_07_06_21_41_16.004,3.856,36.5,0,0.764,0,0,0,0, ,0,0,0,0,0, ,-41.5,370.7,929.4,-0.6,-0.4,-1.7,25,-40.8672,370.011,929.013,-0.701926,-0.478064,-1.733,
2026_07_06_21_41_16.028,3.856,36.6,0,0.763,0,0,0,0, ,0,0,0,0,0, ,-40.4,369.1,928.3,-0.8,-0.5,-1.8,25,-40.8723,370.004,929.003,-0.701809,-0.476354,-1.73404,
2026_07_06_21_41_16.044,3.856,36.5,0,0.763,0,0,0,0, ,0,0,0,0,0, ,-39.1,371.4,928.3,-0.6,-0.4,-1.7,25,-40.8039,370.019,928.96,-0.701698,-0.474748,-1.73501,
2026_07_06_21_41_16.070,3.856,36.5,0,0.765,0,0,0,0, ,0,0,0,0,0, ,-41.8,369.2,927.9,-0.6,-0.5,-1.7,25,-40.7823,370.036,928.908,-0.695501,-0.47324,-1.73288,
2026_07_06_21_41_16.083,3.856,36.5,0,0.764,0,0,0,0, ,0,0,0,0,0, ,-40.2,370.1,928.4,-0.7,-0.5,-1.7,25,-40.7956,370.013,928.862,-0.692728,-0.47487,-1.73087,
2026_07_06_21_41_16.109,3.856,36.5,0,0.764,0,0,0,0, ,0,0,0,0,0, ,-39.9,369.8,929,-0.6,-0.5,-1.7,25,-40.7501,370.009,928.852,-0.690125,-0.476402,-1.72899,
2026_07_06_21_41_16.123,3.856,36.5,0,0.766,0,0,0,0, ,0,0,0,0,0, ,-41.7,369.8,928.1,-0.7,-0.5,-1.8,25,-40.7532,369.996,928.833,-0.68768,-0.47784,-1.73027,
2026_07_06_21_41_16.147,3.856,36.5,0,0.765,0,0,0,0, ,0,0,0,0,0, ,-40.7,369.7,928.2,-0.6,-0.5,-1.7,25,-40.7804,369.981,928.792,-0.685383,-0.47919,-1.73147,
2026_07_06_21_41_16.163,3.856,36.5,0,0.764,0,0,0,0, ,0,0,0,0,0, ,-40.1,369.9,929.4,-0.7,-0.5,-1.7,25,-40.7572,369.97,928.792,-0.683227,-0.480458,-1.72956,
2026_07_06_21_41_16.188,3.856,36.4,0,0.766,0,0,0,0, ,0,0,0,0,0, ,-39,368.8,928.9,-0.7,-0.5,-1.8,25,-40.6837,369.932,928.814,-0.684249,-0.481649,-1.7308,
2026_07_06_21_41_16.202,3.856,36.5,0,0.764,0,0,0,0, ,0,0,0,0,0, ,-41.1,368.4,928.5,-0.8,-0.5,-1.8,25,-40.6451,369.851,928.807,-0.688256,-0.482767,-1.73502,
2026_07_06_21_41_16.226,3.856,36.5,0,0.764,0,0,0,0, ,0,0,0,0,0, ,-42.6,370.2,928.4,-0.7,-0.5,-1.7,25,-40.7185,369.818,928.785,-0.692019,-0.483818,-1.73593,
2026_07_06_21_41_16.242,3.856,36.4,0,0.765,0,0,0,0, ,0,0,0,0,0, ,-40.7,369.1,929.1,-0.7,-0.5,-1.8,25,-40.7752,369.807,928.783,-0.692505,-0.484804,-1.73679,
2026_07_06_21_41_16.269,3.856,36.5,0,0.765,0,0,0,0, ,0,0,0,0,0, ,-40.2,369.1,929,-0.8,-0.4,-1.7,25,-40.7554,369.764,928.8,-0.696009,-0.482683,-1.73759,
2026_07_06_21_41_16.281,3.856,36.4,0,0.765,0,0,0,0, ,0,0,0,0,0, ,-40.7,370.4,928.8,-0.7,-0.5,-1.7,25,-40.7368,369.763,928.806,-0.699299,-0.480691,-1.7353,
2026_07_06_21_41_16.306,3.856,36.4,0,0.765,0,0,0,0, ,0,0,0,0,0, ,-40.4,369.3,928.9,-0.7,-0.5,-1.7,25,-40.7254,369.769,928.808,-0.699341,-0.481868,-1.73315,
2026_07_06_21_41_16.321,3.856,36.4,0,0.763,0,0,0,0, ,0,0,0,0,0, ,-41.1,370.4,929.1,-0.7,-0.5,-1.7,25,-40.7269,369.774,928.82,-0.699382,-0.482973,-1.73113,
2026_07_06_21_41_16.346,3.856,36.3,0,0.764,0,0,0,0, ,0,0,0,0,0, ,-41.5,370.3,928.8,-0.7,-0.4,-1.7,25,-40.7618,369.809,928.828,-0.699419,-0.480963,-1.72923,
2026_07_06_21_41_16.360,3.856,36.3,0,0.765,0,0,0,0, ,0,0,0,0,0, ,-41.1,369.9,927.9,-0.7,-0.5,-1.7,25,-40.7946,369.827,928.799,-0.699455,-0.479077,-1.72745,
2026_07_06_21_41_16.384,3.856,36.4,0,0.763,0,0,0,0, ,0,0,0,0,0, ,-41,370.2,928.7,-0.7,-0.5,-1.8,25,-40.8102,369.84,928.768,-0.699488,-0.480352,-1.72883,
2026_07_06_21_41_16.400,3.856,36.4,0,0.764,0,0,0,0, ,0,0,0,0,0, ,-41.2,370.6,928.9,-0.7,-0.4,-1.7,25,-40.8279,369.874,928.77,-0.699519,-0.478502,-1.73012,
2026_07_06_21_41_16.426,3.856,36.4,0,0.765,0,0,0,0, ,0,0,0,0,0, ,-40.4,368.8,929.8,-0.6,-0.5,-1.8,25,-40.8262,369.864,928.806,-0.696501,-0.476765,-1.73133,
2026_07_06_21_41_16.440,3.856,36.5,0,0.763,0,0,0,0, ,0,0,0,0,0, ,-41.2,369.2,930.5,-0.7,-0.4,-1.8,25,-40.8246,369.811,928.888,-0.693668,-0.475134,-1.73551,
2026_07_06_21_41_16.465,3.856,36.5,0,0.763,0,0,0,0, ,0,0,0,0,0, ,-40.7,370.2,927.7,-0.7,-0.5,-1.7,25,-40.8322,369.804,928.901,-0.694054,-0.473603,-1.7364,
2026_07_06_21_41_16.479,3.856,36.6,0,0.763,0,0,0,0, ,0,0,0,0,0, ,-40.1,369.7,929.5,-0.7,-0.5,-1.8,25,-40.8059,369.813,928.882,-0.694416,-0.475211,-1.73722,
2026_07_06_21_41_16.505,3.856,36.4,0,0.764,0,0,0,0, ,0,0,0,0,0, ,-40.4,369.2,928.4,-0.7,-0.5,-1.7,25,-40.772,369.791,928.886,-0.694756,-0.476722,-1.738,
2026_07_06_21_41_16.519,3.856,36.3,0,0.765,0,0,0,0, ,0,0,0,0,0, ,-40.8,370.4,929.3,-0.6,-0.4,-1.7,25,-40.7615,369.792,928.884,-0.692029,-0.475093,-1.73569,
2026_07_06_21_41_16.544,3.856,36.5,0,0.765,0,0,0,0, ,0,0,0,0,0, ,-40.1,369.7,929.8,-0.7,-0.4,-1.8,25,-40.7425,369.807,928.925,-0.689468,-0.470517,-1.73656,
2026_07_06_21_41_16.559,3.856,36.4,0,0.765,0,0,0,0, ,0,0,0,0,0, ,-40.6,368.6,928.4,-0.6,-0.5,-1.7,25,-40.7186,369.767,928.935,-0.687063,-0.469267,-1.73738,
2026_07_06_21_41_16.585,3.856,36.4,0,0.765,0,0,0,0, ,0,0,0,0,0, ,-40.2,364.9,930.2,0.1,-0.4,-1.7,25,-40.6992,369.583,928.958,-0.660429,-0.468093,-1.7351,
2026_07_06_21_41_16.598,3.856,36.5,0,0.763,0,0,0,0, ,0,0,0,0,0, ,-39.9,374.5,928.1,2.1,-0.5,-1.6,25,-40.6596,369.59,928.969,-0.553153,-0.46699,-1.72992,
2026_07_06_21_41_16.624,3.856,36.5,0,0.764,0,0,0,0, ,0,0,0,0,0, ,-41,379.6,925.7,0,-0.5,-1.6,25,-40.6469,370.045,928.843,-0.455461,-0.469002,-1.722,
2026_07_06_21_41_16.642,3.856,36.4,0,0.765,0,0,0,0, ,0,0,0,0,0, ,-41.1,364.9,929.9,-1.5,-0.5,-1.7,25,-40.6714,370.179,928.78,-0.473409,-0.470891,-1.71761,
2026_07_06_21_41_16.667,3.856,36.5,0,0.765,0,0,0,0, ,0,0,0,0,0, ,-40.1,369.7,928.2,-2.6,-0.4,-1.8,25,-40.6671,370.004,928.796,-0.569483,-0.469618,-1.71958,
2026_07_06_21_41_16.677,3.856,36.5,0,0.765,0,0,0,0, ,0,0,0,0,0, ,-41,372.5,928.2,-1.4,-0.5,-1.8,25,-40.6599,370.071,928.76,-0.656655,-0.468422,-1.72449,
2026_07_06_21_41_16.702,3.856,36.4,0,0.764,0,0,0,0, ,0,0,0,0,0, ,-41.5,366.2,929,0,-0.5,-1.7,25,-40.6959,370.027,928.75,-0.659296,-0.470347,-1.72604,
2026_07_06_21_41_16.716,3.856,36.4,0,0.765,0,0,0,0, ,0,0,0,0,0, ,-40.2,367.6,929.1,-1.3,-0.5,-1.7,25,-40.7053,369.836,928.768,-0.65873,-0.472154,-1.72445,
2026_07_06_21_41_16.742,3.856,36.5,0,0.765,0,0,0,0, ,0,0,0,0,0, ,-40.4,373.9,928.7,-1,-0.5,-1.7,25,-40.6806,369.892,928.776,-0.688667,-0.473851,-1.72296,
2026_07_06_21_41_16.756,3.856,36.5,0,0.763,0,0,0,0, ,0,0,0,0,0, ,-39.3,370.9,928.3,-0.3,-0.5,-1.7,25,-40.63,370.045,928.76,-0.68631,-0.475444,-1.72156,
2026_07_06_21_41_16.783,3.856,36.4,0,0.765,0,0,0,0, ,0,0,0,0,0, ,-39.9,367.7,929,-0.8,-0.5,-1.8,25,-40.5672,369.999,928.753,-0.678004,-0.47694,-1.7233,
2026_07_06_21_41_16.796,3.856,36.5,0,0.765,0,0,0,0, ,0,0,0,0,0, ,-41.3,370.9,928.9,-1.1,-0.4,-1.8,25,-40.5692,369.957,928.765,-0.694579,-0.475299,-1.72797,
2026_07_06_21_41_16.822,3.856,36.4,0,0.764,0,0,0,0, ,0,0,0,0,0, ,-39.7,372.1,929.9,-0.6,-0.5,-1.7,25,-40.565,370.051,928.804,-0.70405,-0.473757,-1.72931,
2026_07_06_21_41_16.836,3.856,36.4,0,0.765,0,0,0,0, ,0,0,0,0,0, ,-40.8,306.6,941.2,25.3,-0.1,-0.6,25,-40.5458,368.18,929.215,0.0914313,-0.463169,-1.69401,
2026_07_06_21_41_16.862,3.856,36.4,0,0.766,0,0,0,0, ,0,0,0,0,0, ,-33.9,398.5,924.8,25.3,7.6,17.1,25,-40.3511,367.228,929.445,1.62758,-0.206429,-1.08805,
2026_07_06_21_41_16.875,3.856,36.4,0,0.765,0,0,0,0, ,0,0,0,0,0, ,-44.4,410.6,913.8,10,6.1,13.9,25,-40.2779,369.502,928.827,2.60394,0.223572,-0.0772139,
2026_07_06_21_41_16.901,3.856,36.4,0,0.764,0,0,0,0, ,0,0,0,0,0, ,-41,395.2,918.3,-2.3,-0.5,-1.7,25,-40.4255,371.537,928.049,2.67988,0.380573,0.29921,
2026_07_06_21_41_16.915,3.856,36.4,0,0.765,0,0,0,0, ,0,0,0,0,0, ,-41.8,386.3,921.2,-1.9,-0.6,-1.7,25,-40.4849,372.708,927.543,2.3886,0.323866,0.177383,
2026_07_06_21_41_16.943,3.856,36.4,0,0.761,0,0,0,0, ,0,0,0,0,0, ,-41.3,394.5,919.1,-2.4,-0.6,-1.6,25,-40.5498,373.786,927.092,2.11203,0.267568,0.066027,
2026_07_06_21_41_16.954,3.856,36.5,0,0.765,0,0,0,0, ,0,0,0,0,0, ,-40.1,403.8,913.9,-3.6,0.6,1.2,25,-40.5589,375.332,926.447,1.80052,0.251263,0.049816,
2026_07_06_21_41_16.980,3.856,36.4,0,0.763,0,0,0,0, ,0,0,0,0,0, ,-107.6,427.9,1016.2,9.9,-7.1,6,25,-42.5876,377.801,928.799,1.88275,0.0379052,0.266155,
2026_07_06_21_41_16.994,3.856,36.4,0,0.765,0,0,0,0, ,0,0,0,0,0, ,-45.7,455,1062.7,11.1,-23.2,3.3,25,-44.6633,381.679,935.542,2.40786,-0.887608,0.533296,
2026_07_06_21_41_17.021,3.856,36.4,0,0.766,0,0,0,0, ,0,0,0,0,0, ,17.3,475.2,1023.5,2.2,-51.4,10.7,25,-42.8069,386.763,942.096,2.66637,-3.10649,0.927361,
2026_07_06_21_41_17.034,3.856,36.4,0,0.765,0,0,0,0, ,0,0,0,0,0, ,44.4,460.9,975,-11.2,-67.4,15.7,25,-38.3184,391.716,945.579,2.22967,-6.53687,1.67522,
2026_07_06_21_41_17.059,3.856,36.4,0,0.765,0,0,0,0, ,0,0,0,0,0, ,50.4,169.6,1039.6,-11.7,-85.2,-7,25,-33.095,387.057,949.34,1.39606,-10.7881,1.83822,
2026_07_06_21_41_17.074,3.856,36.5,0,0.764,0,0,0,0, ,0,0,0,0,0, ,-44.4,389.8,1001.3,-28.8,-121.8,-50.5,25,-30.8954,380.515,953.673,0.0770075,-16.4377,-0.0257508,
2026_07_06_21_41_17.101,3.856,36.4,0,0.763,0,0,0,0, ,0,0,0,0,0, ,58.5,517.3,916.1,-9.5,-125.1,-18.4,25,-28.5831,384.965,953.98,-1.09464,-22.9588,-2.12348,
2026_07_06_21_41_17.113,3.856,36.4,0,0.764,0,0,0,0, ,0,0,0,0,0, ,190.6,448.8,881.4,-15.1,-114.2,16.2,25,-19.2516,390.942,950.614,-1.77746,-28.8509,-2.06111,
2026_07_06_21_41_17.140,3.856,36.4,0,0.765,0,0,0,0, ,0,0,0,0,0, ,214.1,427.2,914.9,-13.1,-116.3,23,25,-5.74774,393.81,947.417,-2.52837,-34.1158,-0.741136,
2026_07_06_21_41_17.153,3.856,36.5,0,0.765,0,0,0,0, ,0,0,0,0,0, ,159.5,359.2,971.9,-6.1,-127.5,21.8,25,5.98563,393.773,947.172,-2.9593,-39.4652,0.669027,
2026_07_06_21_41_17.180,3.856,36.4,0,0.765,0,0,0,0, ,0,0,0,0,0, ,153.6,414,986,-3.6,-146.5,32.8,25,15.1606,393.336,949.109,-3.07451,-45.4087,2.29185,
2026_07_06_21_41_17.192,3.856,36.5,0,0.765,0,0,0,0, ,0,0,0,0,0, ,178.5,328.3,903.8,-17.6,-153,40.3,25,24.3555,391.984,948.852,-3.5331,-51.767,4.37946,
2026_07_06_21_41_17.219,3.856,36.4,0,0.765,0,0,0,0, ,0,0,0,0,0, ,213.5,308.4,839.3,-33.2,-121.8,15.4,25,34.8151,387.497,944.142,-4.86561,-56.9853,5.80969,
2026_07_06_21_41_17.232,3.856,36.5,0,0.765,0,0,0,0, ,0,0,0,0,0, ,364.3,320.1,818.2,-28.5,-68.1,-3,25,50.2984,383.033,937.11,-6.44903,-59.2987,5.83348,
2026_07_06_21_41_17.259,3.856,36.4,0,0.764,0,0,0,0, ,0,0,0,0,0, ,521.7,348,803.7,-26.6,-35.3,2.6,25,74.2286,380.048,929.422,-7.73487,-58.8357,5.46581,
2026_07_06_21_41_17.272,3.856,36.4,0,0.765,0,0,0,0, ,0,0,0,0,0, ,527,329.8,811.7,-29.4,-32.5,9.9,25,101.658,377.541,922.005,-8.96978,-57.3162,5.5136,
2026_07_06_21_41_17.299,3.856,36.4,0,0.765,0,0,0,0, ,0,0,0,0,0, ,427.8,294.5,829.7,-39.5,-42.1,16.7,25,124.555,373.556,915.831,-10.5225,-56.0964,5.98808,
2026_07_06_21_41_17.311,3.856,36.4,0,0.766,0,0,0,0, ,0,0,0,0,0, ,401.4,273.8,928.8,-24.2,-69.6,-15.2,25,142.229,368.108,913.602,-11.8221,-56.0814,5.66889,
2026_07_06_21_41_17.337,3.856,36.4,0,0.765,0,0,0,0, ,0,0,0,0,0, ,392.5,351,823.4,-33.6,-102.7,-22,25,157.751,364.713,911.317,-12.8628,-57.9137,4.19,
2026_07_06_21_41_17.354,3.856,36.4,0,0.765,0,0,0,0, ,0,0,0,0,0, ,452,324.8,749.5,-45,-111.5,-22.1,25,173.869,363.079,903.708,-14.4738,-60.911,2.591,
2026_07_06_21_41_17.380,3.856,36.4,0,0.765,0,0,0,0, ,0,0,0,0,0, ,554.9,244.7,779.2,-53.4,-107.6,-16,25,193.953,358.306,895.216,-16.59,-63.8749,1.27225,
2026_07_06_21_41_17.390,3.856,36.5,0,0.765,0,0,0,0, ,0,0,0,0,0, ,537.8,222.2,755.6,-73.8,-120.8,-11,25,215.427,350.698,887.427,-19.4546,-66.9416,0.372069,
2026_07_06_21_41_17.416,3.856,36.4,0,0.765,0,0,0,0, ,0,0,0,0,0, ,648.4,418.5,692.6,-93.8,-171.8,-41.5,25,238.442,348.848,877.474,-23.3757,-71.7775,-1.25021,
2026_07_06_21_41_17.429,3.856,36.5,0,0.764,0,0,0,0, ,0,0,0,0,0, ,353.8,78.7,641.7,-80.2,-243.7,-78.8,25,254.447,342.739,864.658,-27.2528,-80.0634,-4.83942,
2026_07_06_21_41_17.456,3.856,36.4,0,0.765,0,0,0,0, ,0,0,0,0,0, ,643.3,228.5,554.8,-7.2,-250.1,-41.9,25,269.322,331.214,848.423,-28.255,-90.23,-8.22209,
2026_07_06_21_41_17.469,3.856,36.4,0,0.765,0,0,0,0, ,0,0,0,0,0, ,989.9,380,692.6,-19.5,-192.2,10.1,25,302.672,329.571,834.729,-27.3468,-98.2079,-8.68997,
2026_07_06_21_41_17.497,3.856,36.4,0,0.766,0,0,0,0, ,0,0,0,0,0, ,939.2,247.8,692.2,-42.3,-131.4,-3.3,25,343.005,328.616,826.056,-27.5633,-102.083,-7.95323,
2026_07_06_21_41_17.509,3.856,36.4,0,0.765,0,0,0,0, ,0,0,0,0,0, ,771.3,225.9,576,-40.3,-114.9,-37.1,25,374.22,323.024,814.359,-28.4004,-103.367,-8.69952,
2026_07_06_21_41_17.537,3.856,36.5,0,0.764,0,0,0,0, ,0,0,0,0,0, ,693.6,145.8,630,-51.5,-149.3,-64.9,25,396.05,314.665,801.479,-29.4667,-105.118,-11.2772,
2026_07_06_21_41_17.549,3.856,36.4,0,0.764,0,0,0,0, ,0,0,0,0,0, ,839.9,260.1,381.4,-32.4,-159.1,-52.5,25,418.639,307.857,783.455,-30.2274,-108.109,-14.167,
2026_07_06_21_41_17.577,3.856,36.4,0,0.764,0,0,0,0, ,0,0,0,0,0, ,785.6,227.9,333.2,-18.7,-129.5,-36.7,25,442.655,303.966,757.486,-29.9424,-110.314,-16.0215,
2026_07_06_21_41_17.588,3.856,36.5,0,0.766,0,0,0,0, ,0,0,0,0,0, ,798.3,226.9,406.4,-14.2,-125.5,-34.7,25,463.941,299.3,733.862,-29.1202,-111.361,-17.2207,
2026_07_06_21_41_17.615,3.856,36.3,0,0.766,0,0,0,0, ,0,0,0,0,0, ,822.5,231.3,412.2,-8.6,-118.4,-24.7,25,485.053,295.022,714.084,-28.0404,-112.007,-17.9812,
2026_07_06_21_41_17.628,3.856,36.4,0,0.764,0,0,0,0, ,0,0,0,0,0, ,908.5,230.1,320.4,-1,-53.5,4.6,25,508.236,291.103,692.891,-26.6242,-110.419,-17.4979,
2026_07_06_21_41_17.657,3.856,36.4,0,0.764,0,0,0,0, ,0,0,0,0,0, ,959.3,239.8,323.6,-6.9,-0.9,16.1,25,534.175,287.681,670.289,-25.2425,-105.348,-15.8009,
2026_07_06_21_41_17.668,3.856,36.4,0,0.763,0,0,0,0, ,0,0,0,0,0, ,847.9,225.2,357.1,-4.7,-39.2,30.3,25,556.687,284.318,650.184,-24.0577,-100.15,-13.4243,
2026_07_06_21_41_17.695,3.856,36.4,0,0.764,0,0,0,0, ,0,0,0,0,0, ,868,248.6,299.9,7.7,-72.3,30.2,25,575.045,281.429,630.581,-22.5003,-97.4442,-10.7629,
2026_07_06_21_41_17.708,3.856,36.4,0,0.764,0,0,0,0, ,0,0,0,0,0, ,924.8,232.7,221.5,11.9,-63.3,24.4,25,594.628,278.944,608.042,-20.532,-95.6378,-8.4434,
2026_07_06_21_41_17.735,3.856,36.5,0,0.763,0,0,0,0, ,0,0,0,0,0, ,975.4,244.7,166.9,12,-52.1,25.9,25,616.289,276.491,582.823,-18.5526,-93.3259,-6.3963,
2026_07_06_21_41_17.747,3.856,36.5,0,0.764,0,0,0,0, ,0,0,0,0,0, ,974.3,247,185.9,20.2,-48,30.2,25,638.139,274.624,558.057,-16.441,-90.6888,-4.29723,
2026_07_06_21_41_17.775,3.856,36.4,0,0.764,0,0,0,0, ,0,0,0,0,0, ,899.9,256.4,273.1,20.6,-56.7,32.7,25,656.357,273.227,538.035,-14.196,-88.3525,-2.11889,
2026_07_06_21_41_17.786,3.856,36.4,0,0.765,0,0,0,0, ,0,0,0,0,0, ,911.6,166.8,245.3,11.4,-56.1,32.3,25,671.555,269.472,521.044,-12.3559,-86.4054,-0.00929773,
2026_07_06_21_41_17.815,3.856,36.4,0,0.765,0,0,0,0, ,0,0,0,0,0, ,970.4,177.9,167.7,0.3,-44.8,20,25,687.974,263.553,501.876,-11.2465,-84.2144,1.58478,
2026_07_06_21_41_17.826,3.856,36.4,0,0.765,0,0,0,0, ,0,0,0,0,0, ,982,203.3,175.2,1.9,-39.2,24.6,25,705.538,259.108,481.741,-10.4941,-81.6419,2.84712,
2026_07_06_21_41_17.854,3.856,36.3,0,0.764,0,0,0,0, ,0,0,0,0,0, ,958.8,180,138.6,-1.8,-30.3,22.9,25,721.678,254.997,461.946,-9.85158,-78.7845,4.12089,
2026_07_06_21_41_17.866,3.856,36.3,0,0.764,0,0,0,0, ,0,0,0,0,0, ,924.6,186.8,139.5,0.8,-34.2,24.5,25,735.085,250.634,442.269,-9.28172,-75.9488,5.31399,
2026_07_06_21_41_17.893,3.856,36.4,0,0.765,0,0,0,0, ,0,0,0,0,0, ,946.5,143.4,137,-4.5,-43.7,16.2,25,747.301,245.422,423.743,-8.82885,-73.6942,6.23025,
2026_07_06_21_41_17.906,3.856,36.4,0,0.765,0,0,0,0, ,0,0,0,0,0, ,928.1,136.5,124.3,-8.5,-41.3,12.6,25,758.879,238.995,405.883,-8.68694,-71.7933,6.72809,
2026_07_06_21_41_17.933,3.856,36.3,0,0.764,0,0,0,0, ,0,0,0,0,0, ,938.8,129.2,109.7,-1.2,-33.1,5.6,25,769.517,232.527,388.279,-8.45312,-69.6852,6.87263,
2026_07_06_21_41_17.944,3.856,36.4,0,0.766,0,0,0,0, ,0,0,0,0,0, ,990.8,139.1,89.1,-0.2,-27,3.7,25,781.417,226.532,370.676,-7.98067,-67.27,6.73719,
2026_07_06_21_41_17.972,3.856,36.3,0,0.764,0,0,0,0, ,0,0,0,0,0, ,1002.1,151.4,76,1.5,-25.9,5.7,25,794.521,221.579,353.118,-7.45474,-64.7825,6.61305,
2026_07_06_21_41_17.985,3.856,36.3,0,0.764,0,0,0,0, ,0,0,0,0,0, ,963.7,144.1,38.5,2.3,-25.3,6.3,25,806,217.08,335.088,-6.88468,-62.3948,6.57569,
2026_07_06_21_41_18.013,3.856,36.4,0,0.764,0,0,0,0, ,0,0,0,0,0, ,937.2,135,35.2,-0.1,-24,1.2,25,814.802,212.355,316.915,-6.39812,-60.0947,6.4035,
2026_07_06_21_41_18.024,3.856,36.3,0,0.765,0,0,0,0, ,0,0,0,0,0, ,925.6,207.8,56.6,2.9,-18.4,1.8,25,821.908,209.86,300.4,-5.92292,-57.7246,6.10469,
2026_07_06_21_41_18.052,3.856,36.4,0,0.765,0,0,0,0, ,0,0,0,0,0, ,1006.8,115.8,79.8,10,-16.1,14.6,25,830.7,206.931,286.25,-5.16894,-55.2582,6.23237,
2026_07_06_21_41_18.064,3.856,36.4,0,0.765,0,0,0,0, ,0,0,0,0,0, ,1016.6,100,56,-0.9,-16.1,-0.7,25,841.73,200.896,272.944,-4.5767,-52.872,6.2761,
2026_07_06_21_41_18.093,3.856,36.4,0,0.765,0,0,0,0, ,0,0,0,0,0, ,965.4,132.8,23.9,-2,-8,-1.4,25,850.826,195.747,258.746,-4.38616,-50.3844,5.82967,
2026_07_06_21_41_18.103,3.856,36.3,0,0.765,0,0,0,0, ,0,0,0,0,0, ,920.5,120.3,34.4,0.2,-1.9,12.1,25,856.44,191.531,244.755,-4.17372,-47.6157,5.80044,
2026_07_06_21_41_18.132,3.856,36.5,0,0.764,0,0,0,0, ,0,0,0,0,0, ,926.7,117.3,51.8,0.9,-3.3,-5.6,25,860.533,187.098,232.467,-3.88587,-44.8726,5.64502,
2026_07_06_21_41_18.147,3.856,36.2,0,0.764,0,0,0,0, ,0,0,0,0,0, ,973.2,123.4,68.3,1.6,-9.9,-4.3,25,865.981,183.031,221.96,-3.57291,-42.5403,4.99939,
2026_07_06_21_41_18.178,3.856,36.5,0,0.763,0,0,0,0, ,0,0,0,0,0, ,983.8,125.6,43,-0.1,-12.2,-4.8,25,872.838,179.464,211.826,-3.30948,-40.6214,4.41747,
2026_07_06_21_41_18.183,3.856,36.4,0,0.765,0,0,0,0, ,0,0,0,0,0, ,971.4,129,23.3,1.9,-9.6,-6.1,25,879.222,176.286,200.938,-3.05296,-38.8103,3.81617,
2026_07_06_21_41_18.211,3.856,36.4,0,0.763,0,0,0,0, ,0,0,0,0,0, ,992.4,135.1,21.9,4.9,-9.2,-4.9,25,885.479,173.59,190.07,-2.65974,-37.0181,3.24847,
2026_07_06_21_41_18.222,3.856,36.4,0,0.764,0,0,0,0, ,0,0,0,0,0, ,983,137.6,48.2,5.6,-12.9,-5,25,891.708,171.321,180.624,-2.17774,-35.4356,2.74888,
2026_07_06_21_41_18.254,3.856,36.4,0,0.764,0,0,0,0, ,0,0,0,0,0, ,1009,134,25,4.2,-15.2,-5.3,25,898.063,169.156,171.847,-1.74644,-34.1325,2.26754,
2026_07_06_21_41_18.262,3.856,36.4,0,0.764,0,0,0,0, ,0,0,0,0,0, ,1008.5,148.8,5.4,5.9,-21.4,-3.7,25,904.808,167.465,162.301,-1.33228,-33.1677,1.85514,
2026_07_06_21_41_18.291,3.856,36.4,0,0.766,0,0,0,0, ,0,0,0,0,0, ,1002.4,134.1,22.7,6.4,-17.9,0.3,25,910.941,165.879,153.267,-0.876328,-32.3439,1.6385,
2026_07_06_21_41_18.301,3.856,36.3,0,0.764,0,0,0,0, ,0,0,0,0,0, ,981.6,141.6,4.1,4,-0.1,-0.4,25,915.881,164.171,144.744,-0.506052,-30.9214,1.53561,
2026_07_06_21_41_18.331,3.856,36.3,0,0.763,0,0,0,0, ,0,0,0,0,0, ,977.7,131.5,29.7,6,3.3,2.2,25,919.767,162.488,136.954,-0.170527,-28.9396,1.49687,
2026_07_06_21_41_18.341,3.856,36.4,0,0.764,0,0,0,0, ,0,0,0,0,0, ,989,129.2,7.5,5.6,-0.2,-0.5,25,923.641,160.53,129.742,0.193302,-27.0817,1.45746,
2026_07_06_21_41_18.371,3.856,36.4,0,0.765,0,0,0,0, ,0,0,0,0,0, ,997.4,136.9,-5,5.6,-1.8,0.3,25,927.88,158.855,121.912,0.522773,-25.4923,1.36255,
2026_07_06_21_41_18.381,3.856,36.3,0,0.764,0,0,0,0, ,0,0,0,0,0, ,980.4,132.8,19.6,2.4,-2.8,-3.3,25,931.598,157.392,114.927,0.734666,-24.079,1.18811,
2026_07_06_21_41_18.410,3.856,36.4,0,0.765,0,0,0,0, ,0,0,0,0,0, ,993.6,151.7,3.7,1.5,-4.4,-4.2,25,934.974,156.47,108.634,0.808726,-22.8311,0.887195,
2026_07_06_21_41_18.421,3.856,36.4,0,0.766,0,0,0,0, ,0,0,0,0,0, ,1010.1,141.9,9.2,1.9,-4.2,1.6,25,939.05,155.88,102.407,0.863038,-21.7019,0.753913,
2026_07_06_21_41_18.448,3.856,36.4,0,0.765,0,0,0,0, ,0,0,0,0,0, ,1000.8,124.8,4.1,1.7,1.3,2.1,25,943.096,154.507,96.5719,0.920134,-20.4678,0.820706,
2026_07_06_21_41_18.459,3.856,36.3,0,0.766,0,0,0,0, ,0,0,0,0,0, ,974.2,135.8,11.9,0.7,4.2,0.2,25,945.802,153.032,91.1746,0.937188,-19.0529,0.840772,
2026_07_06_21_41_18.489,3.856,36.4,0,0.765,0,0,0,0, ,0,0,0,0,0, ,982.4,132,13.4,0,2,-3.4,25,947.782,151.866,86.3895,0.901406,-17.703,0.692038,
2026_07_06_21_41_18.499,3.856,36.4,0,0.765,0,0,0,0, ,0,0,0,0,0, ,999.7,139.8,16.9,0.8,-1.5,-3.5,25,950.419,150.894,82.0483,0.870852,-16.609,0.439632,
2026_07_06_21_41_18.527,3.856,36.5,0,0.765,0,0,0,0, ,0,0,0,0,0, ,1003.4,133.3,4.1,-0.4,-1.3,0.1,25,953.535,150.019,77.6884,0.829972,-15.6822,0.309248,
2026_07_06_21_41_18.539,3.856,36.3,0,0.764,0,0,0,0, ,0,0,0,0,0, ,986.8,134.6,7.4,-0.5,1.4,0.8,25,956.067,149.04,73.3046,0.751974,-14.7235,0.317825,
2026_07_06_21_41_18.567,3.856,36.2,0,0.764,0,0,0,0, ,0,0,0,0,0, ,977.9,133.4,7.4,-0.1,0.5,-0.5,25,957.669,148.124,69.2886,0.687869,-13.7684,0.307599,
2026_07_06_21_41_18.578,3.856,36.4,0,0.764,0,0,0,0, ,0,0,0,0,0, ,991.8,130.2,13.4,1.5,0.8,-1.8,25,959.325,147.129,65.7,0.688608,-12.8898,0.218776,
2026_07_06_21_41_18.607,3.856,36.3,0,0.764,0,0,0,0, ,0,0,0,0,0, ,986.8,134.2,22.4,0.7,2.2,0.6,25,961.152,146.219,62.7872,0.713677,-12.0129,0.168882,
2026_07_06_21_41_18.618,3.856,36.3,0,0.765,0,0,0,0, ,0,0,0,0,0, ,976.9,130.7,21.8,-0.7,1.6,0.5,25,962.413,145.38,60.3078,0.670188,-11.1651,0.192106,
2026_07_06_21_41_18.647,3.856,36.4,0,0.765,0,0,0,0, ,0,0,0,0,0, ,967.8,128.2,10.7,-0.7,0.9,-1,25,963.019,144.409,57.6231,0.586692,-10.4085,0.165166,
2026_07_06_21_41_18.659,3.856,36.3,0,0.765,0,0,0,0, ,0,0,0,0,0, ,971.1,127.8,12.2,-0.1,0.4,-2.3,25,963.411,143.409,54.8094,0.526565,-9.73466,0.0545539,
2026_07_06_21_41_18.687,3.856,36.3,0,0.765,0,0,0,0, ,0,0,0,0,0, ,986.5,130.6,17.3,0.1,-1,-2.2,25,964.348,142.544,52.3683,0.494478,-9.15973,-0.0858798,
2026_07_06_21_41_18.697,3.856,36.4,0,0.765,0,0,0,0, ,0,0,0,0,0, ,986.9,132.5,16.7,-0.1,-2.1,-1.3,25,965.711,141.874,50.213,0.464346,-8.69602,-0.187287,
2026_07_06_21_41_18.726,3.856,36.4,0,0.764,0,0,0,0, ,0,0,0,0,0, ,990.6,130.3,15,0,0.4,-0.5,25,967.114,141.235,48.119,0.433003,-8.2179,-0.230718,
2026_07_06_21_41_18.737,3.856,36.4,0,0.765,0,0,0,0, ,0,0,0,0,0, ,976.9,128.9,19.2,-0.5,1.4,-0.4,25,968.128,140.526,46.2288,0.391382,-7.66228,-0.244081,
2026_07_06_21_41_18.765,3.856,36.4,0,0.765,0,0,0,0, ,0,0,0,0,0, ,977.1,125.7,12.2,-0.2,1.2,-1.1,25,968.669,139.72,44.3685,0.346204,-7.11614,-0.27491,
2026_07_06_21_41_18.776,3.856,36.4,0,0.763,0,0,0,0, ,0,0,0,0,0, ,983.1,127.6,18.4,0.6,-0.6,-1.3,25,969.365,138.924,42.5971,0.337295,-6.66422,-0.331283,
2026_07_06_21_41_18.804,3.856,36.3,0,0.765,0,0,0,0, ,0,0,0,0,0, ,990.9,128.4,17.7,0.5,-0.7,-0.5,25,970.44,138.258,41.1013,0.350257,-6.29773,-0.365939,
2026_07_06_21_41_18.816,3.856,36.3,0,0.765,0,0,0,0, ,0,0,0,0,0, ,988.6,130.2,22,-0.5,-0.1,1.3,25,971.617,137.712,39.8063,0.328913,-5.93833,-0.319264,
2026_07_06_21_41_18.846,3.856,36.4,0,0.764,0,0,0,0, ,0,0,0,0,0, ,966.5,122.8,22.9,-0.9,1.3,0.1,25,971.978,137.029,38.7486,0.266213,-5.5399,-0.257153,
2026_07_06_21_41_18.856,3.856,36.4,0,0.765,0,0,0,0, ,0,0,0,0,0, ,968.6,120.6,22.5,-1.1,-1.6,-1.5,25,971.708,136.095,37.7706,0.189054,-5.21146,-0.284139,
2026_07_06_21_41_18.885,3.856,36.3,0,0.763,0,0,0,0, ,0,0,0,0,0, ,976.1,118.6,13.5,-0.4,-3.3,-2.3,25,971.748,135.09,36.5659,0.13183,-5.04318,-0.382606,
2026_07_06_21_41_18.896,3.856,36.2,0,0.764,0,0,0,0, ,0,0,0,0,0, ,979.2,123.5,23.6,-0.5,-1.7,-2.5,25,972.107,134.234,35.468,0.0963748,-4.88821,-0.505541,
2026_07_06_21_41_18.925,3.856,36.4,0,0.765,0,0,0,0, ,0,0,0,0,0, ,977.7,124.2,17.7,-0.9,-0.9,-2.5,25,972.494,133.601,34.5651,0.0478457,-4.66955,-0.627078,
2026_07_06_21_41_18.935,3.856,36.4,0,0.764,0,0,0,0, ,0,0,0,0,0, ,983.3,127.8,7.2,-0.6,-0.9,-3,25,972.982,133.138,33.2174,-0.000773036,-4.43984,-0.756443,
2026_07_06_21_41_18.964,3.856,36.3,0,0.764,0,0,0,0, ,0,0,0,0,0, ,983.1,126.5,15.5,-0.4,-0.6,-2.7,25,973.604,132.773,31.8849,-0.0311947,-4.21499,-0.88402,
2026_07_06_21_41_18.974,3.856,36.4,0,0.765,0,0,0,0, ,0,0,0,0,0, ,981,126.3,17.9,-0.8,0.4,-2.6,25,974.119,132.385,30.9595,-0.0658562,-3.96424,-0.991634,
2026_07_06_21_41_19.004,3.856,36.3,0,0.764,0,0,0,0, ,0,0,0,0,0, ,988.5,130.2,12.2,-0.3,0.3,-2.4,25,974.767,132.133,29.9901,-0.0953588,-3.70134,-1.08355,
2026_07_06_21_41_19.014,3.856,36.3,0,0.764,0,0,0,0, ,0,0,0,0,0, ,993.5,133.3,15.9,0,-1.3,-1.6,25,975.756,132.11,29.0187,-0.0986885,-3.50625,-1.1394,
2026_07_06_21_41_19.045,3.856,36.5,0,0.764,0,0,0,0, ,0,0,0,0,0, ,995.2,133.5,15.2,0.6,-1.9,-0.1,25,976.889,132.188,28.198,-0.0743934,-3.39009,-1.12176,
2026_07_06_21_41_19.054,3.856,36.4,0,0.765,0,0,0,0, ,0,0,0,0,0, ,981.4,130.4,18.3,0.5,-0.5,0.2,25,977.584,132.174,27.5004,-0.0363444,-3.25663,-1.05036,
2026_07_06_21_41_19.084,3.856,36.3,0,0.764,0,0,0,0, ,0,0,0,0,0, ,967.2,122.8,18.3,0,-0.2,-1.3,25,977.384,131.834,26.9397,-0.0188953,-3.07951,-1.01987,
2026_07_06_21_41_19.094,3.856,36.3,0,0.765,0,0,0,0, ,0,0,0,0,0, ,970.3,122.6,12.6,-0.6,-0.6,-3.3,25,976.858,131.278,26.2396,-0.0360251,-2.91623,-1.09787,
2026_07_06_21_41_19.122,3.856,36.3,0,0.764,0,0,0,0, ,0,0,0,0,0, ,984.1,125.7,23.6,-0.7,-1,-3.4,25,976.879,130.843,25.7435,-0.0734392,-2.78727,-1.23511,
2026_07_06_21_41_19.136,3.856,36.4,0,0.764,0,0,0,0, ,0,0,0,0,0, ,979.9,124.5,17.8,-2.1,-0.3,-2.3,25,977.191,130.493,25.4362,-0.154276,-2.65703,-1.33352,
2026_07_06_21_41_19.166,3.856,36.4,0,0.764,0,0,0,0, ,0,0,0,0,0, ,974.4,134.1,7.3,-1.1,2.2,-2.9,25,977.189,130.42,24.651,-0.242375,-2.43723,-1.4107,
2026_07_06_21_41_19.172,3.856,36.4,0,0.764,0,0,0,0, ,0,0,0,0,0, ,992.3,108.8,15.5,-0.4,2.2,-2.3,25,977.564,129.874,23.8435,-0.273309,-2.15465,-1.48317,
2026_07_06_21_41_19.203,3.856,36.3,0,0.765,0,0,0,0, ,0,0,0,0,0, ,998.9,133.9,16.7,-0.5,-0.3,-3,25,978.663,129.354,23.3716,-0.284076,-1.96546,-1.55427,
2026_07_06_21_41_19.213,3.856,36.4,0,0.765,0,0,0,0, ,0,0,0,0,0, ,990.7,135.9,18.3,-0.2,-3.7,-1.4,25,979.646,129.692,23.0138,-0.288093,-1.96756,-1.59362,
2026_07_06_21_41_19.242,3.856,36.3,0,0.764,0,0,0,0, ,0,0,0,0,0, ,984.8,130.4,9.2,0,-1.7,-1.2,25,980.14,129.903,22.4493,-0.276631,-2.01219,-1.57573,
2026_07_06_21_41_19.252,3.856,36.4,0,0.764,0,0,0,0, ,0,0,0,0,0, ,980.3,133.1,9.1,0.4,0,-2.3,25,980.287,130.016,21.6389,-0.247586,-1.94137,-1.58635,
2026_07_06_21_41_19.280,3.856,36.4,0,0.766,0,0,0,0, ,0,0,0,0,0, ,981,131.3,21.3,0.5,-0.6,-2.9,25,980.309,130.149,21.2465,-0.205077,-1.84135,-1.64812,
2026_07_06_21_41_19.292,3.856,36.4,0,0.764,0,0,0,0, ,0,0,0,0,0, ,984.3,130.6,30.8,-0.6,-0.8,-2.8,25,980.452,130.198,21.5392,-0.195627,-1.7718,-1.72136,
2026_07_06_21_41_19.321,3.856,36.4,0,0.765,0,0,0,0, ,0,0,0,0,0, ,996.8,133.3,19,-1.2,-0.7,-1.5,25,981.067,130.304,21.744,-0.23855,-1.70954,-1.74748,
2026_07_06_21_41_19.331,3.856,36.3,0,0.764,0,0,0,0, ,0,0,0,0,0, ,986.2,132.5,14.1,-0.6,0,-0.6,25,981.703,130.463,21.4275,-0.278857,-1.62669,-1.70498,
2026_07_06_21_41_19.362,3.856,36.4,0,0.764,0,0,0,0, ,0,0,0,0,0, ,976.4,130.2,13.4,-0.3,-1.1,-1.3,25,981.678,130.517,20.9597,-0.289286,-1.56108,-1.65897,
2026_07_06_21_41_19.371,3.856,36.3,0,0.764,0,0,0,0, ,0,0,0,0,0, ,975.3,129.6,14.7,-0.5,-1.2,-1.8,25,981.323,130.479,20.5386,-0.296033,-1.53603,-1.65233,
2026_07_06_21_41_19.401,3.856,36.4,0,0.765,0,0,0,0, ,0,0,0,0,0, ,989.2,130.3,8.3,-0.5,-1.6,-2,25,981.38,130.447,19.9878,-0.308462,-1.52774,-1.66742,
2026_07_06_21_41_19.411,3.856,36.4,0,0.764,0,0,0,0, ,0,0,0,0,0, ,990.6,133.4,9.6,-0.2,-0.8,-0.4,25,981.899,130.532,19.3152,-0.310993,-1.50777,-1.63894,
2026_07_06_21_41_19.440,3.856,36.4,0,0.764,0,0,0,0, ,0,0,0,0,0, ,976.1,126.9,13.4,-0.5,0.6,-0.3,25,981.987,130.509,18.839,-0.31337,-1.42198,-1.56039,
2026_07_06_21_41_19.450,3.856,36.3,0,0.764,0,0,0,0, ,0,0,0,0,0, ,962.6,122,18.7,-0.8,1.3,-2.3,25,981.217,130.14,18.669,-0.333884,-1.27744,-1.54453,
2026_07_06_21_41_19.480,3.856,36.3,0,0.763,0,0,0,0, ,0,0,0,0,0, ,977.9,126,19.8,-0.9,-0.4,-3.6,25,980.549,129.766,18.7044,-0.365334,-1.17217,-1.63017,
2026_07_06_21_41_19.489,3.856,36.3,0,0.764,0,0,0,0, ,0,0,0,0,0, ,995.6,129.8,17.2,-0.1,-1.7,-2.1,25,980.927,129.652,18.6919,-0.373541,-1.16473,-1.70451,
2026_07_06_21_41_19.519,3.856,36.4,0,0.765,0,0,0,0, ,0,0,0,0,0, ,984.1,129.6,16.1,-0.5,-0.6,-0.4,25,981.471,129.655,18.5675,-0.369059,-1.16383,-1.67681,
2026_07_06_21_41_19.529,3.856,36.4,0,0.765,0,0,0,0, ,0,0,0,0,0, ,974.3,128,16.8,-0.5,1.5,-1.9,25,981.332,129.603,18.4385,-0.377038,-1.06549,-1.64471,
2026_07_06_21_41_19.560,3.856,36.3,0,0.765,0,0,0,0, ,0,0,0,0,0, ,987.9,131.9,20,-0.4,-0.4,-2,25,981.318,129.624,18.4361,-0.381484,-0.967044,-1.66331,
2026_07_06_21_41_19.569,3.856,36.4,0,0.764,0,0,0,0, ,0,0,0,0,0, ,988.6,130.8,19.7,-0.2,-1.8,-0.4,25,981.74,129.729,18.5223,-0.376519,-0.975146,-1.63508,
2026_07_06_21_41_19.599,3.856,36.4,0,0.764,0,0,0,0, ,0,0,0,0,0, ,975.3,127.9,21.8,-0.1,-0.6,-0.8,25,981.753,129.706,18.658,-0.362716,-0.988848,-1.572,
2026_07_06_21_41_19.609,3.856,36.4,0,0.763,0,0,0,0, ,0,0,0,0,0, ,975.8,127.9,17.2,-0.8,-0.1,-2.2,25,981.375,129.596,18.7094,-0.368034,-0.949918,-1.56761,
2026_07_06_21_41_19.639,3.856,36.4,0,0.764,0,0,0,0, ,0,0,0,0,0, ,979.9,130,15.9,-0.9,-0.7,-2.9,25,981.16,129.557,18.5778,-0.397404,-0.916408,-1.62748,
2026_07_06_21_41_19.649,3.856,36.3,0,0.764,0,0,0,0, ,0,0,0,0,0, ,987.5,131.4,24.9,-0.9,-3.6,-2.4,25,981.315,129.626,18.6888,-0.428031,-0.99158,-1.68979,
2026_07_06_21_41_19.679,3.856,36.3,0,0.765,0,0,0,0, ,0,0,0,0,0, ,995.6,130.2,9.2,-0.9,-3.3,-1,25,981.939,129.698,18.5889,-0.456792,-1.14139,-1.69041,
2026_07_06_21_41_19.687,3.856,36.3,0,0.765,0,0,0,0, ,0,0,0,0,0, ,985.8,130,12.4,-0.5,-0.3,-0.1,25,982.473,129.722,18.1143,-0.471612,-1.18152,-1.62092,
2026_07_06_21_41_19.719,3.856,36.4,0,0.763,0,0,0,0, ,0,0,0,0,0, ,972.7,127.4,13.7,-0.8,0.4,-1,25,982.276,129.66,17.8057,-0.482483,-1.10648,-1.55566,
2026_07_06_21_41_19.727,3.856,36.4,0,0.764,0,0,0,0, ,0,0,0,0,0, ,977.7,128.2,19.7,-0.6,-1.6,-2,25,981.845,129.547,17.7383,-0.495738,-1.07561,-1.55227,
2026_07_06_21_41_19.757,3.856,36.3,0,0.764,0,0,0,0, ,0,0,0,0,0, ,986.8,131.1,13,-0.6,-4.4,-1.3,25,981.87,129.553,17.6537,-0.502091,-1.19288,-1.55822,
2026_07_06_21_41_19.767,3.856,36.3,0,0.764,0,0,0,0, ,0,0,0,0,0, ,992.7,128.6,6.5,-0.6,-1.2,-0.7,25,982.35,129.571,17.1721,-0.508057,-1.29082,-1.52421,
2026_07_06_21_41_19.797,3.856,36.3,0,0.764,0,0,0,0, ,0,0,0,0,0, ,974.1,125.2,10.8,-1.2,1.3,-0.2,25,982.414,129.408,16.6528,-0.531941,-1.20911,-1.45875,
2026_07_06_21_41_19.807,3.856,36.4,0,0.765,0,0,0,0, ,0,0,0,0,0, ,962.4,122.6,12.5,-0.8,1.5,-2.9,25,981.551,129.073,16.3479,-0.560464,-1.05012,-1.46431,
2026_07_06_21_41_19.836,3.856,36.3,0,0.764,0,0,0,0, ,0,0,0,0,0, ,982.1,128.7,33,-1.1,-3,-3.7,25,980.984,128.864,16.738,-0.584201,-1.03183,-1.57617,
2026_07_06_21_41_19.846,3.856,36.4,0,0.764,0,0,0,0, ,0,0,0,0,0, ,995.3,127.5,10.8,-1.7,-3.4,-1.9,25,981.454,128.818,17.0526,-0.633914,-1.16395,-1.65075,
2026_07_06_21_41_19.877,3.856,36.3,0,0.765,0,0,0,0, ,0,0,0,0,0, ,981.6,130,14.1,-1.4,0.8,-1.6,25,981.881,128.813,16.7721,-0.689738,-1.17224,-1.65679,
2026_07_06_21_41_19.886,3.856,36.4,0,0.764,0,0,0,0, ,0,0,0,0,0, ,978.7,130.7,11.9,-1.2,-0.6,-2.5,25,981.775,128.907,16.5423,-0.726926,-1.09471,-1.68076,
2026_07_06_21_41_19.917,3.856,36.3,0,0.764,0,0,0,0, ,0,0,0,0,0, ,988,129.2,5,-0.7,-1.4,-2.4,25,981.871,128.971,16.0491,-0.740519,-1.08894,-1.72763,
2026_07_06_21_41_19.926,3.856,36.4,0,0.765,0,0,0,0, ,0,0,0,0,0, ,986.4,130,16.4,-0.7,-0.5,-1.6,25,982.196,129.009,15.7232,-0.73805,-1.08048,-1.74423,
2026_07_06_21_41_19.955,3.856,36.3,0,0.764,0,0,0,0, ,0,0,0,0,0, ,980.3,132.3,7.9,-0.9,-2.1,-0.9,25,982.266,129.139,15.5054,-0.741825,-1.09385,-1.71411,
2026_07_06_21_41_19.965,3.856,36.3,0,0.765,0,0,0,0, ,0,0,0,0,0, ,978.5,132.9,0.1,-0.5,-2.1,-2.3,25,982.091,129.35,14.8043,-0.739277,-1.15517,-1.70716,
2026_07_06_21_41_19.995,3.856,36.2,0,0.765,0,0,0,0, ,0,0,0,0,0, ,989.9,134.1,1.2,-0.6,-0.9,-2.7,25,982.22,129.603,13.9418,-0.727742,-1.17618,-1.75547,
2026_07_06_21_41_20.005,3.856,36.3,0,0.764,0,0,0,0, ,0,0,0,0,0, ,993.6,135.9,5,-0.1,0.1,-1.9,25,982.801,129.932,13.2811,-0.704724,-1.12888,-1.78865,
2026_07_06_21_41_20.036,3.856,36.4,0,0.764,0,0,0,0, ,0,0,0,0,0, ,985.4,134.7,15.8,-0.1,-0.8,-1,25,983.209,130.259,13.1056,-0.667873,-1.08142,-1.76802,
2026_07_06_21_41_20.044,3.856,36.3,0,0.765,0,0,0,0, ,0,0,0,0,0, ,985.9,135.1,11.8,-0.5,-0.4,-1.5,25,983.358,130.542,13.1479,-0.645456,-1.05208,-1.73645,
