UTC_Time,Vin,TC1,TC2,Rh1,Vh1,Ah1,Acp1,Dty1,Err1,Rh2,Vh2,Ah2,Acp2,Dty2,Err2,Accel_x,Accel_y,Accel_z,gyro_x,gyro_y,gyro_z,Temp_c,Accel_x_h,Accel_y_h,Accel_z_h,gyro_x_h,gyro_y_h,gyro_z_h,
2026_06_26_17_07_43.485,3.861,30.2,0,0.759,0,0,0,0, ,0,0,0,0,0, ,598.3,-732.5,-311.8,1.1,1.1,-2.7,25,598.3,-732.5,-311.8,1.1,1.1,-2.7,
2026_06_26_17_07_43.516,3.861,30.2,0,0.76,0,0,0,0, ,0,0,0,0,0, ,598.2,-734,-299,1.8,0.7,-2.3,25,598.297,-732.546,-311.41,1.12133,1.08781,-2.68781,
2026_06_26_17_07_43.532,3.861,30.2,0,0.76,0,0,0,0, ,0,0,0,0,0, ,599.2,-733.3,-302.4,-1.8,-1,-2.2,25,598.322,-732.613,-310.757,1.053,1.01238,-2.66113,
2026_06_26_17_07_43.558,3.861,30.2,0,0.76,0,0,0,0, ,0,0,0,0,0, ,598.9,-734.3,-312.2,-2.3,-1.2,-2.1,25,598.366,-732.685,-310.547,0.863908,0.88366,-2.62999,
2026_06_26_17_07_43.564,3.861,30.3,0,0.758,0,0,0,0, ,0,0,0,0,0, ,600.2,-731.5,-318.7,-1.7,-0.8,-1.9,25,598.438,-732.698,-310.845,0.689389,0.768874,-2.5916,
2026_06_26_17_07_43.595,3.861,30.2,0,0.76,0,0,0,0, ,0,0,0,0,0, ,599.1,-735.7,-313.8,0.3,-0.1,-1.2,25,598.512,-732.753,-311.175,0.604723,0.694599,-2.52812,
2026_06_26_17_07_43.611,3.861,30.2,0,0.758,0,0,0,0, ,0,0,0,0,0, ,597.7,-740.2,-299.4,-2.2,-1.4,-1.8,25,598.505,-733.07,-310.896,0.509982,0.606569,-2.46547,
2026_06_26_17_07_43.626,3.861,30.2,0,0.758,0,0,0,0, ,0,0,0,0,0, ,597.9,-735.9,-314.2,-3.7,-2.3,-2.5,25,598.462,-733.373,-310.646,0.299139,0.456872,-2.44625,
2026_06_26_17_07_43.642,3.861,30.2,0,0.758,0,0,0,0, ,0,0,0,0,0, ,599.2,-734.7,-319.8,-2.2,-1.1,-2.5,25,598.467,-733.491,-311.034,0.101145,0.325438,-2.44952,
2026_06_26_17_07_43.673,3.861,30.2,0,0.759,0,0,0,0, ,0,0,0,0,0, ,599.2,-729.8,-313.5,-0.4,-0.1,-1.9,25,598.512,-733.415,-311.376,0.0157628,0.269044,-2.43432,
2026_06_26_17_07_43.691,3.861,30.2,0,0.758,0,0,0,0, ,0,0,0,0,0, ,599.2,-730.7,-305.5,-0.1,-0.3,-0.6,25,598.554,-733.222,-311.262,-0.00043212,0.240461,-2.36215,
2026_06_26_17_07_43.705,3.861,30.3,0,0.758,0,0,0,0, ,0,0,0,0,0, ,598.3,-732.9,-296.2,-3.5,-2.1,-0.3,25,598.566,-733.136,-310.627,-0.110093,0.152683,-2.24563,
2026_06_26_17_07_43.737,3.861,30.1,0,0.76,0,0,0,0, ,0,0,0,0,0, ,597.7,-742.1,-317.8,-4.7,-3,-0.3,25,598.531,-733.402,-310.406,-0.353228,-0.0120115,-2.12707,
2026_06_26_17_07_43.754,3.861,30.3,0,0.758,0,0,0,0, ,0,0,0,0,0, ,596.3,-739.6,-327.3,-3.9,-1.7,-1.6,25,598.438,-733.856,-311.146,-0.593735,-0.154483,-2.05534,
2026_06_26_17_07_43.768,3.861,30.2,0,0.76,0,0,0,0, ,0,0,0,0,0, ,597.5,-739.7,-319.8,-1.5,0,-2.6,25,598.344,-734.209,-311.902,-0.722085,-0.196866,-2.05806,
2026_06_26_17_07_43.784,3.861,30.3,0,0.76,0,0,0,0, ,0,0,0,0,0, ,596.8,-730.1,-316.4,-0.6,0.4,-2.9,25,598.272,-734.251,-312.28,-0.742067,-0.172682,-2.10023,
2026_06_26_17_07_43.804,3.861,30.1,0,0.757,0,0,0,0, ,0,0,0,0,0, ,599.4,-722.5,-311.5,-0.7,0,-1.9,25,598.261,-733.766,-312.381,-0.736457,-0.149971,-2.11849,
2026_06_26_17_07_43.832,3.861,30.2,0,0.758,0,0,0,0, ,0,0,0,0,0, ,597.7,-725.3,-305.7,-0.3,-0.9,-0.3,25,598.279,-733.165,-312.151,-0.722048,-0.168254,-2.05643,
2026_06_26_17_07_43.848,3.861,30.2,0,0.758,0,0,0,0, ,0,0,0,0,0, ,596.4,-738.7,-308.3,-1.6,-2.3,0.1,25,598.204,-733.094,-311.837,-0.735939,-0.255501,-1.93721,
2026_06_26_17_07_43.864,3.861,30.2,0,0.758,0,0,0,0, ,0,0,0,0,0, ,594.9,-745.1,-323.7,-3,-2.2,-1.5,25,598.048,-733.631,-312.091,-0.831249,-0.377041,-1.86182,
2026_06_26_17_07_43.880,3.861,30.2,0,0.76,0,0,0,0, ,0,0,0,0,0, ,596.9,-738.5,-334.2,-0.9,-0.3,-2.8,25,597.917,-734.128,-313.118,-0.899423,-0.430237,-1.87938,
2026_06_26_17_07_43.912,3.861,30.2,0,0.76,0,0,0,0, ,0,0,0,0,0, ,597.7,-729.7,-326.2,1.6,1.5,-2.6,25,597.88,-734.127,-314.159,-0.823286,-0.367457,-1.92938,
2026_06_26_17_07_43.928,3.861,30.2,0,0.76,0,0,0,0, ,0,0,0,0,0, ,597.1,-734.3,-310.9,2.2,1.5,-1.7,25,597.851,-733.997,-314.427,-0.657336,-0.253659,-1.94283,
2026_06_26_17_07_43.944,3.861,30.3,0,0.758,0,0,0,0, ,0,0,0,0,0, ,596.1,-737,-297.3,0.1,-0.7,-1.9,25,597.774,-734.098,-313.797,-0.547201,-0.213827,-1.93412,
2026_06_26_17_07_43.960,3.861,30.2,0,0.76,0,0,0,0, ,0,0,0,0,0, ,598.3,-735.1,-309.6,-3.1,-2.5,-2.3,25,597.739,-734.217,-313.167,-0.605262,-0.298296,-1.94423,
2026_06_26_17_07_43.992,3.861,30.2,0,0.76,0,0,0,0, ,0,0,0,0,0, ,598.2,-733.6,-330.3,-1.8,-1.3,-1.6,25,597.77,-734.225,-313.58,-0.717676,-0.3959,-1.94458,
2026_06_26_17_07_44.008,3.861,30.3,0,0.76,0,0,0,0, ,0,0,0,0,0, ,596,-738.5,-320.1,0.3,0.1,-2.1,25,597.73,-734.336,-314.288,-0.719646,-0.408338,-1.93882,
2026_06_26_17_07_44.023,3.861,30.2,0,0.76,0,0,0,0, ,0,0,0,0,0, ,598.2,-730.9,-316,-0.4,0.3,-2.1,25,597.691,-734.358,-314.517,-0.678839,-0.371267,-1.94864,
2026_06_26_17_07_44.039,3.861,30.3,0,0.76,0,0,0,0, ,0,0,0,0,0, ,596.9,-729.7,-309.6,0.6,-0.4,-1.1,25,597.683,-734.111,-314.413,-0.631379,-0.35169,-1.9274,
2026_06_26_17_07_44.071,3.861,30.3,0,0.76,0,0,0,0, ,0,0,0,0,0, ,596.5,-747.6,-315.4,0.7,-1.1,-2,25,597.623,-734.388,-314.296,-0.553295,-0.375962,-1.9044,
2026_06_26_17_07_44.087,3.861,30.3,0,0.76,0,0,0,0, ,0,0,0,0,0, ,597.4,-740.4,-322.9,0,-0.6,-3.4,25,597.582,-734.973,-314.592,-0.49825,-0.404849,-1.95288,
2026_06_26_17_07_44.103,3.861,30.2,0,0.76,0,0,0,0, ,0,0,0,0,0, ,598.6,-731.5,-318.9,1.4,0.7,-3,25,597.607,-735.033,-314.976,-0.425232,-0.377131,-2.02888,
2026_06_26_17_07_44.129,3.861,30.3,0,0.758,0,0,0,0, ,0,0,0,0,0, ,598.6,-727.5,-313.5,1.1,1.1,-2.1,25,597.668,-734.696,-315.051,-0.323147,-0.299306,-2.06063,
2026_06_26_17_07_44.151,3.861,30.3,0,0.76,0,0,0,0, ,0,0,0,0,0, ,598.2,-733,-303.4,-0.3,0,-1.1,25,597.712,-734.425,-314.649,-0.279081,-0.247551,-2.03256,
2026_06_26_17_07_44.167,3.861,30.2,0,0.758,0,0,0,0, ,0,0,0,0,0, ,596.9,-734.6,-302.3,-2.4,-1.5,-0.8,25,597.702,-734.387,-313.93,-0.34434,-0.278169,-1.96659,
2026_06_26_17_07_44.182,3.861,30.2,0,0.761,0,0,0,0, ,0,0,0,0,0, ,597.1,-740.7,-315.4,-3.3,-2.2,-1.4,25,597.66,-734.586,-313.62,-0.497028,-0.373953,-1.91379,
2026_06_26_17_07_44.198,3.861,30.2,0,0.76,0,0,0,0, ,0,0,0,0,0, ,596.1,-742.1,-328.4,-2.1,-0.9,-2.6,25,597.595,-735.001,-314.125,-0.631272,-0.445618,-1.91904,
2026_06_26_17_07_44.230,3.861,30.3,0,0.76,0,0,0,0, ,0,0,0,0,0, ,597.7,-732.2,-319.8,-0.2,0.2,-2.9,25,597.553,-735.132,-314.733,-0.662882,-0.439791,-1.96968,
2026_06_26_17_07_44.246,3.861,30.3,0,0.76,0,0,0,0, ,0,0,0,0,0, ,598.2,-726.3,-316.2,0,0.4,-2.5,25,597.577,-734.773,-314.932,-0.628581,-0.39471,-2.01418,
2026_06_26_17_07_44.262,3.861,30.2,0,0.758,0,0,0,0, ,0,0,0,0,0, ,598.6,-729.7,-305.7,0.5,0,-1.1,25,597.627,-734.361,-314.689,-0.575043,-0.35847,-2.00113,
2026_06_26_17_07_44.278,3.861,30.3,0,0.76,0,0,0,0, ,0,0,0,0,0, ,598.9,-729.2,-307.6,-2,-1.4,-0.3,25,597.696,-734.061,-314.199,-0.585704,-0.379282,-1.92184,
2026_06_26_17_07_44.294,3.861,30.2,0,0.76,0,0,0,0, ,0,0,0,0,0, ,596.8,-743.5,-320,-1.2,-1.6,-0.5,25,597.705,-734.201,-314.175,-0.647513,-0.447576,-1.8291,
2026_06_26_17_07_44.327,3.861,30.3,0,0.76,0,0,0,0, ,0,0,0,0,0, ,596.3,-751.4,-322,-0.2,-0.5,-2.9,25,597.635,-735.008,-314.591,-0.650711,-0.484286,-1.82124,
2026_06_26_17_07_44.344,3.861,30.2,0,0.758,0,0,0,0, ,0,0,0,0,0, ,598.3,-734.2,-326,0.7,0.8,-4.3,25,597.614,-735.483,-315.164,-0.595824,-0.445634,-1.92963,
2026_06_26_17_07_44.359,3.861,30.1,0,0.761,0,0,0,0, ,0,0,0,0,0, ,598.5,-722.5,-307.8,3.3,1.7,-2.8,25,597.662,-735.048,-315.27,-0.437641,-0.342307,-2.02837,
2026_06_26_17_07_44.375,3.861,30.2,0,0.761,0,0,0,0, ,0,0,0,0,0, ,598.2,-726.9,-298.8,1.1,0,-1.1,25,597.704,-734.418,-314.541,-0.27691,-0.26965,-2.0236,
2026_06_26_17_07_44.407,3.861,30.2,0,0.761,0,0,0,0, ,0,0,0,0,0, ,598.1,-731.2,-300.6,-3.4,-2.3,-0.3,25,597.731,-734.091,-313.636,-0.330114,-0.323297,-1.94294,
2026_06_26_17_07_44.423,3.861,30.3,0,0.761,0,0,0,0, ,0,0,0,0,0, ,596.9,-743.1,-320,-3.1,-2.5,-0.7,25,597.717,-734.277,-313.433,-0.508044,-0.449846,-1.85501,
2026_06_26_17_07_44.438,3.861,30.2,0,0.76,0,0,0,0, ,0,0,0,0,0, ,596.5,-747.1,-327.2,-1.4,-1.3,-2.6,25,597.655,-734.937,-314.052,-0.614195,-0.538215,-1.84252,
2026_06_26_17_07_44.459,3.861,30.3,0,0.758,0,0,0,0, ,0,0,0,0,0, ,599.8,-730.5,-325.6,0.1,0.5,-3.7,25,597.685,-735.172,-314.805,-0.616377,-0.529792,-1.92219,
2026_06_26_17_07_44.486,3.861,30.3,0,0.76,0,0,0,0, ,0,0,0,0,0, ,598.7,-723.5,-313.9,1.9,1.3,-1.9,25,597.781,-734.674,-315.106,-0.517879,-0.442664,-1.97568,
2026_06_26_17_07_44.502,3.861,30.2,0,0.758,0,0,0,0, ,0,0,0,0,0, ,597.4,-731.8,-298.9,0.3,0,-0.8,25,597.797,-734.246,-314.576,-0.419289,-0.37608,-1.93756,
2026_06_26_17_07_44.518,3.861,30.2,0,0.76,0,0,0,0, ,0,0,0,0,0, ,596.1,-738.2,-298.8,-3,-2.3,-0.7,25,597.733,-734.292,-313.617,-0.476004,-0.423241,-1.86519,
2026_06_26_17_07_44.546,3.861,30.2,0,0.76,0,0,0,0, ,0,0,0,0,0, ,597.7,-739,-324,-4.5,-2.9,-1.3,25,597.682,-734.554,-313.482,-0.675514,-0.555887,-1.81247,
2026_06_26_17_07_44.566,3.861,30.2,0,0.759,0,0,0,0, ,0,0,0,0,0, ,596.8,-741.8,-329.9,-1,-0.9,-2,25,597.656,-734.911,-314.303,-0.801928,-0.637794,-1.80257,
2026_06_26_17_07_44.581,3.861,30.1,0,0.76,0,0,0,0, ,0,0,0,0,0, ,597.9,-735.5,-318.6,0.3,0.8,-2.5,25,597.637,-735.139,-314.909,-0.774388,-0.601975,-1.82983,
2026_06_26_17_07_44.597,3.861,30.2,0,0.759,0,0,0,0, ,0,0,0,0,0, ,597.5,-728.2,-308.2,1,0.5,-1.9,25,597.641,-734.938,-314.817,-0.68759,-0.525683,-1.85239,
2026_06_26_17_07_44.625,3.861,30.2,0,0.759,0,0,0,0, ,0,0,0,0,0, ,596.1,-734,-304,-0.3,-0.8,-1.5,25,597.59,-734.704,-314.286,-0.624361,-0.50279,-1.8431,
2026_06_26_17_07_44.645,3.861,30.2,0,0.76,0,0,0,0, ,0,0,0,0,0, ,596.9,-740.3,-311.8,-1.4,-1.5,-1.8,25,597.524,-734.853,-313.897,-0.638111,-0.542229,-1.83134,
2026_06_26_17_07_44.661,3.861,30.4,0,0.76,0,0,0,0, ,0,0,0,0,0, ,598.5,-735.9,-320.5,-1.7,-1.2,-2.3,25,597.534,-735.051,-314.034,-0.69368,-0.591453,-1.84466,
2026_06_26_17_07_44.677,3.861,30.2,0,0.76,0,0,0,0, ,0,0,0,0,0, ,598.3,-732.1,-328.9,0,0.3,-1.8,25,597.587,-734.987,-314.684,-0.703205,-0.582833,-1.85717,
2026_06_26_17_07_44.693,3.861,30.2,0,0.76,0,0,0,0, ,0,0,0,0,0, ,596.6,-736.9,-310.7,1.2,0.9,-1.8,25,597.579,-734.957,-314.996,-0.623791,-0.510754,-1.85369,
2026_06_26_17_07_44.725,3.861,30.1,0,0.76,0,0,0,0, ,0,0,0,0,0, ,596.9,-734.6,-304,-0.2,-0.4,-1.8,25,597.528,-735.006,-314.53,-0.55531,-0.464396,-1.85042,
2026_06_26_17_07_44.740,3.861,30.2,0,0.76,0,0,0,0, ,0,0,0,0,0, ,596.8,-742.6,-307.8,-1.1,-1.4,-2.5,25,597.487,-735.225,-314.004,-0.56108,-0.49094,-1.86867,
2026_06_26_17_07_44.759,3.861,30.3,0,0.759,0,0,0,0, ,0,0,0,0,0, ,598.2,-734,-318.6,-2.3,-1.5,-3.4,25,597.488,-735.412,-313.955,-0.630483,-0.549383,-1.93457,
2026_06_26_17_07_44.773,3.861,30.2,0,0.76,0,0,0,0, ,0,0,0,0,0, ,598.7,-724.2,-327.1,-0.3,-0.2,-2,25,597.546,-735.027,-314.497,-0.671282,-0.567702,-1.98121,
2026_06_26_17_07_44.805,3.861,30.3,0,0.76,0,0,0,0, ,0,0,0,0,0, ,598.3,-728.3,-310,0.4,0.2,-0.4,25,597.604,-734.493,-314.744,-0.627329,-0.533107,-1.93361,
2026_06_26_17_07_44.820,3.861,30.2,0,0.759,0,0,0,0, ,0,0,0,0,0, ,597.2,-737.6,-307,-0.5,-0.8,0.3,25,597.613,-734.399,-314.364,-0.592148,-0.518902,-1.81882,
2026_06_26_17_07_44.836,3.861,30.2,0,0.76,0,0,0,0, ,0,0,0,0,0, ,595,-750.6,-306.8,-2.9,-2.3,-1.4,25,597.521,-734.99,-313.909,-0.659658,-0.581735,-1.7415,
2026_06_26_17_07_44.860,3.861,30.3,0,0.761,0,0,0,0, ,0,0,0,0,0, ,596.1,-739.8,-333.7,-1.7,-1.7,-3.2,25,597.401,-735.612,-314.295,-0.759616,-0.66816,-1.77554,
2026_06_26_17_07_44.884,3.861,30.2,0,0.76,0,0,0,0, ,0,0,0,0,0, ,596.8,-738.1,-325.9,2,0.2,-3.9,25,597.343,-735.815,-315.24,-0.704186,-0.673148,-1.88367,
2026_06_26_17_07_44.900,3.861,30.3,0,0.759,0,0,0,0, ,0,0,0,0,0, ,598.9,-728.7,-313.4,2.1,1.3,-3.8,25,597.374,-735.668,-315.509,-0.536353,-0.586425,-2.00349,
2026_06_26_17_07_44.916,3.861,30.3,0,0.76,0,0,0,0, ,0,0,0,0,0, ,600.4,-721.8,-307.9,0.8,1.2,-3,25,597.513,-735.033,-315.213,-0.41531,-0.474517,-2.08859,
2026_06_26_17_07_44.932,3.861,30.2,0,0.76,0,0,0,0, ,0,0,0,0,0, ,600.4,-721.4,-295,-1.8,-0.3,-0.6,25,597.689,-734.215,-314.374,-0.42047,-0.41818,-2.07101,
2026_06_26_17_07_44.960,3.861,30.2,0,0.76,0,0,0,0, ,0,0,0,0,0, ,597.1,-735.7,-310.9,-2,-2.4,0.9,25,597.753,-733.87,-313.678,-0.510629,-0.474962,-1.93566,
2026_06_26_17_07_44.980,3.861,30.3,0,0.76,0,0,0,0, ,0,0,0,0,0, ,593.9,-755.2,-324.5,-2.6,-2.4,-1.3,25,597.616,-734.575,-313.923,-0.619669,-0.592269,-1.8299,
2026_06_26_17_07_44.996,3.861,30.2,0,0.76,0,0,0,0, ,0,0,0,0,0, ,597.1,-745.4,-332.2,-0.5,0.4,-3.9,25,597.487,-735.533,-314.802,-0.676361,-0.617116,-1.87682,
2026_06_26_17_07_45.012,3.861,30.2,0,0.758,0,0,0,0, ,0,0,0,0,0, ,598.8,-727.5,-317.1,1.1,2.3,-4,25,597.515,-735.589,-315.402,-0.616864,-0.497244,-2.00316,
2026_06_26_17_07_45.028,3.861,30.2,0,0.758,0,0,0,0, ,0,0,0,0,0, ,599.3,-713.6,-297.6,0.5,1.5,-1.7,25,597.609,-734.673,-314.912,-0.530524,-0.351162,-2.05476,
2026_06_26_17_07_45.060,3.861,30.2,0,0.76,0,0,0,0, ,0,0,0,0,0, ,597.5,-727.1,-288.6,0,-1.3,1.2,25,597.657,-733.8,-313.582,-0.482961,-0.32367,-1.94479,
2026_06_26_17_07_45.076,3.861,30.2,0,0.76,0,0,0,0, ,0,0,0,0,0, ,594.6,-747.3,-311.6,-4.5,-3.8,0.6,25,597.559,-734.007,-312.761,-0.59064,-0.459337,-1.77143,
2026_06_26_17_07_45.105,3.861,30.2,0,0.76,0,0,0,0, ,0,0,0,0,0, ,594.2,-755.2,-331,-2.3,-2.3,-2.2,25,597.367,-735.058,-313.281,-0.761835,-0.617205,-1.71223,
2026_06_26_17_07_45.120,3.861,30.2,0,0.761,0,0,0,0, ,0,0,0,0,0, ,597.6,-744.1,-339.5,0.5,0.5,-4.6,25,597.277,-735.947,-314.62,-0.770255,-0.634438,-1.81508,
2026_06_26_17_07_45.140,3.861,30.2,0,0.76,0,0,0,0, ,0,0,0,0,0, ,598,-723.2,-314.2,2.2,2.2,-4.5,25,597.309,-735.807,-315.365,-0.641052,-0.513511,-1.98174,
2026_06_26_17_07_45.160,3.861,30.2,0,0.759,0,0,0,0, ,0,0,0,0,0, ,599.6,-710.9,-299,1.1,0.8,-1.4,25,597.4,-734.664,-314.831,-0.501441,-0.390813,-2.04075,
2026_06_26_17_07_45.172,3.861,30.3,0,0.76,0,0,0,0, ,0,0,0,0,0, ,596.4,-729.4,-297.2,-0.8,-1.6,1.1,25,597.436,-733.78,-313.811,-0.461743,-0.391373,-1.92553,
2026_06_26_17_07_45.190,3.861,30.2,0,0.76,0,0,0,0, ,0,0,0,0,0, ,597.2,-754.5,-312.5,-2.5,-2.9,0,25,597.398,-734.278,-313.265,-0.534153,-0.504633,-1.77468,
2026_06_26_17_07_45.220,3.861,30.2,0,0.76,0,0,0,0, ,0,0,0,0,0, ,595.9,-748.5,-328.4,-2.4,-1.7,-3,25,597.346,-735.327,-313.703,-0.6509,-0.614038,-1.75794,
2026_06_26_17_07_45.236,3.861,30.2,0,0.76,0,0,0,0, ,0,0,0,0,0, ,598.1,-724.6,-324.2,-0.9,0.1,-3,25,597.325,-735.402,-314.471,-0.711782,-0.62537,-1.83363,
2026_06_26_17_07_45.252,3.861,30.3,0,0.761,0,0,0,0, ,0,0,0,0,0, ,597.1,-721.4,-306.5,1.2,0.2,-0.5,25,597.342,-734.646,-314.524,-0.659268,-0.578121,-1.82853,
2026_06_26_17_07_45.268,3.861,30.3,0,0.758,0,0,0,0, ,0,0,0,0,0, ,595.9,-737.7,-292.1,-1.6,-2.4,0,25,597.29,-734.335,-313.597,-0.631281,-0.609923,-1.73234,
2026_06_26_17_07_45.299,3.861,30.2,0,0.76,0,0,0,0, ,0,0,0,0,0, ,593.8,-744.9,-318.2,-4.2,-3.6,-1,25,597.142,-734.76,-313.082,-0.769531,-0.755568,-1.65724,
2026_06_26_17_07_45.317,3.861,30.2,0,0.761,0,0,0,0, ,0,0,0,0,0, ,595.5,-747.9,-337.5,-1.7,-1.2,-2.8,25,596.99,-735.469,-313.982,-0.902403,-0.855776,-1.67204,
2026_06_26_17_07_45.331,3.861,30.3,0,0.759,0,0,0,0, ,0,0,0,0,0, ,596.6,-737.3,-329.2,0.4,1.5,-4.3,25,596.933,-735.904,-315.162,-0.887022,-0.794486,-1.78647,
2026_06_26_17_07_45.349,3.861,30.3,0,0.759,0,0,0,0, ,0,0,0,0,0, ,596.8,-720.7,-310,1.8,2.1,-3.1,25,596.918,-735.483,-315.433,-0.765938,-0.636385,-1.90308,
2026_06_26_17_07_45.379,3.861,30.3,0,0.759,0,0,0,0, ,0,0,0,0,0, ,598.3,-716.9,-296.7,0.7,0,0,25,596.957,-734.466,-314.696,-0.643092,-0.533621,-1.88156,
2026_06_26_17_07_45.395,3.861,30.2,0,0.76,0,0,0,0, ,0,0,0,0,0, ,595.5,-741.6,-308.4,-1.1,-2.1,0.9,25,596.953,-734.148,-313.956,-0.616091,-0.565088,-1.73948,
2026_06_26_17_07_45.411,3.861,30.2,0,0.761,0,0,0,0, ,0,0,0,0,0, ,593.7,-752.5,-322.9,-2.1,-2,-1.5,25,596.81,-734.935,-314.059,-0.676048,-0.655575,-1.65177,
2026_06_26_17_07_45.427,3.861,30.2,0,0.758,0,0,0,0, ,0,0,0,0,0, ,594.9,-746.3,-320.8,-2,-0.8,-3.9,25,596.657,-735.816,-314.534,-0.759773,-0.700938,-1.71564,
2026_06_26_17_07_45.443,3.861,30.2,0,0.761,0,0,0,0, ,0,0,0,0,0, ,596.6,-723.7,-321.5,-1.2,0,-3.6,25,596.602,-735.766,-314.937,-0.810975,-0.6826,-1.83961,
2026_06_26_17_07_45.475,3.861,30.3,0,0.76,0,0,0,0, ,0,0,0,0,0, ,598.7,-721.8,-318.1,0.1,0.4,-1.2,25,596.666,-734.973,-315.234,-0.795071,-0.628816,-1.87376,
2026_06_26_17_07_45.491,3.861,30.2,0,0.76,0,0,0,0, ,0,0,0,0,0, ,595.2,-741,-310,1.4,0.2,0,25,596.683,-734.755,-315.161,-0.700919,-0.572216,-1.79614,
2026_06_26_17_07_45.507,3.861,30.3,0,0.76,0,0,0,0, ,0,0,0,0,0, ,595.3,-751.9,-310.1,-1.1,-0.8,-2,25,596.596,-735.468,-314.85,-0.649066,-0.555628,-1.74763,
2026_06_26_17_07_45.524,3.861,30.2,0,0.758,0,0,0,0, ,0,0,0,0,0, ,595.3,-743.4,-314.3,-2.6,-0.9,-4.4,25,596.517,-736.21,-314.688,-0.722248,-0.573566,-1.83613,
2026_06_26_17_07_45.555,3.861,30.3,0,0.759,0,0,0,0, ,0,0,0,0,0, ,597.6,-724.2,-317.8,-3.5,-0.4,-3.2,25,596.513,-736.064,-314.771,-0.864095,-0.578224,-1.9558,
2026_06_26_17_07_45.571,3.861,30.3,0,0.758,0,0,0,0, ,0,0,0,0,0, ,597.7,-720.8,-306.2,-2.5,-0.5,0,25,596.582,-735.237,-314.603,-0.994252,-0.570411,-1.93412,
2026_06_26_17_07_45.587,3.861,30.2,0,0.76,0,0,0,0, ,0,0,0,0,0, ,594.4,-741.4,-306,-3.6,-2.2,1,25,596.55,-734.985,-314.084,-1.11952,-0.617917,-1.78579,
2026_06_26_17_07_45.603,3.861,30.3,0,0.76,0,0,0,0, ,0,0,0,0,0, ,592.7,-751,-315,-4.3,-2.9,0,25,596.367,-735.668,-313.866,-1.29201,-0.735653,-1.6465,
2026_06_26_17_07_45.635,3.861,30.3,0,0.76,0,0,0,0, ,0,0,0,0,0, ,594.1,-750.1,-336.6,-4.1,-1.5,-3.1,25,596.186,-736.575,-314.593,-1.46921,-0.824887,-1.64062,
2026_06_26_17_07_45.651,3.861,30.2,0,0.76,0,0,0,0, ,0,0,0,0,0, ,596.6,-730.8,-332.5,-1.2,0.9,-4.1,25,596.135,-736.811,-315.809,-1.54117,-0.792901,-1.76002,
2026_06_26_17_07_45.667,3.861,30.3,0,0.758,0,0,0,0, ,0,0,0,0,0, ,598.2,-715.5,-319.5,-0.5,1.8,-2.1,25,596.212,-735.979,-316.43,-1.49905,-0.662318,-1.84168,
2026_06_26_17_07_45.683,3.861,30.3,0,0.76,0,0,0,0, ,0,0,0,0,0, ,597,-724.9,-311.6,1.2,1.2,0.7,25,596.297,-735.017,-316.377,-1.38637,-0.530552,-1.7721,
2026_06_26_17_07_45.715,3.861,30.2,0,0.758,0,0,0,0, ,0,0,0,0,0, ,594.6,-749,-316.5,1.2,0,0.1,25,596.266,-735.135,-316.235,-1.22876,-0.461659,-1.63974,
2026_06_26_17_07_45.731,3.861,30.1,0,0.758,0,0,0,0, ,0,0,0,0,0, ,594.4,-754.5,-340.2,1.6,2,-3,25,596.159,-736.148,-316.973,-1.06857,-0.372589,-1.62818,
2026_06_26_17_07_45.748,3.861,30.3,0,0.76,0,0,0,0, ,0,0,0,0,0, ,598.7,-742,-355.4,3.8,7.3,-4.8,25,596.183,-736.885,-318.852,-0.838927,-0.0665252,-1.76662,
2026_06_26_17_07_45.764,3.861,30.3,0,0.76,0,0,0,0, ,0,0,0,0,0, ,601,-721.9,-346.8,7.9,13.7,-4,25,596.406,-736.584,-320.817,-0.431321,0.577372,-1.92709,
2026_06_26_17_07_45.780,3.861,30.2,0,0.76,0,0,0,0, ,0,0,0,0,0, ,601.9,-726.4,-318.9,15.9,17.5,-1.2,25,596.713,-735.827,-321.55,0.320119,1.49281,-1.9681,
2026_06_26_17_07_45.812,3.861,30.3,0,0.76,0,0,0,0, ,0,0,0,0,0, ,600,-745.7,-270.2,17.7,16.1,-0.8,25,596.972,-735.84,-319.905,1.32436,2.4256,-1.9091,
2026_06_26_17_07_45.828,3.861,30.3,0,0.758,0,0,0,0, ,0,0,0,0,0, ,601.9,-749.8,-254,9.7,10.9,-2.7,25,597.214,-736.566,-316.382,2.0785,3.10044,-1.89941,
2026_06_26_17_07_45.844,3.861,30.3,0,0.76,0,0,0,0, ,0,0,0,0,0, ,603.1,-741.6,-266.2,4,6.7,-4.2,25,597.536,-737.123,-312.953,2.36927,3.44776,-1.9939,
2026_06_26_17_07_45.862,3.861,30.3,0,0.762,0,0,0,0, ,0,0,0,0,0, ,608.2,-733,-288.8,1.2,6.2,-3.9,25,598.031,-737.133,-310.792,2.38333,3.63071,-2.11919,
2026_06_26_17_07_45.892,3.861,30.2,0,0.761,0,0,0,0, ,0,0,0,0,0, ,609.7,-730.9,-301.1,3.6,8.4,-2.2,25,598.696,-736.818,-309.827,2.38434,3.85431,-2.17591,
2026_06_26_17_07_45.912,3.861,30.3,0,0.761,0,0,0,0, ,0,0,0,0,0, ,607.9,-739.3,-284,8.7,11.1,-0.9,25,599.312,-736.713,-308.774,2.61381,4.21357,-2.13777,
2026_06_26_17_07_45.924,3.861,30.1,0,0.758,0,0,0,0, ,0,0,0,0,0, ,607.6,-748.1,-259.5,10.7,10.6,-1.4,25,599.826,-737.139,-306.518,3.04563,4.61798,-2.07758,
2026_06_26_17_07_45.940,3.861,30.3,0,0.76,0,0,0,0, ,0,0,0,0,0, ,609,-749.1,-245.6,6.6,8,-2.7,25,600.342,-737.837,-303.229,3.38714,4.90329,-2.0759,
2026_06_26_17_07_45.971,3.861,30.2,0,0.759,0,0,0,0, ,0,0,0,0,0, ,610.2,-739.1,-264.1,4,6.3,-2.9,25,600.906,-738.219,-300.281,3.50371,5.0402,-2.12002,
2026_06_26_17_07_45.987,3.861,30.3,0,0.76,0,0,0,0, ,0,0,0,0,0, ,613.6,-733,-272,6.7,7.8,-1.4,25,601.576,-738.087,-298.317,3.61622,5.16267,-2.12185,
2026_06_26_17_07_46.004,3.861,30.3,0,0.76,0,0,0,0, ,0,0,0,0,0, ,612.3,-739.7,-251.8,8.3,8.6,-0.1,25,602.269,-737.981,-296.098,3.85288,5.34776,-2.03825,
2026_06_26_17_07_46.019,3.861,30.3,0,0.76,0,0,0,0, ,0,0,0,0,0, ,612.1,-749.1,-232.6,6.5,6.7,-0.4,25,602.875,-738.372,-292.813,4.06904,5.48805,-1.92928,
2026_06_26_17_07_46.052,3.861,30.4,0,0.761,0,0,0,0, ,0,0,0,0,0, ,611.2,-747.9,-223.5,2,3.5,-1.1,25,603.409,-738.989,-288.867,4.08006,5.46441,-1.85742,
2026_06_26_17_07_46.071,3.861,30.2,0,0.758,0,0,0,0, ,0,0,0,0,0, ,613.1,-742.4,-239.2,-2.5,0.8,-0.9,25,603.942,-739.365,-285.362,3.8162,5.26243,-1.80517,
2026_06_26_17_07_46.091,3.861,30.3,0,0.761,0,0,0,0, ,0,0,0,0,0, ,613.2,-752.5,-264.5,-0.2,1.2,-0.2,25,604.503,-739.857,-283.32,3.50139,5.00269,-1.72868,
2026_06_26_17_07_46.111,3.861,30.2,0,0.762,0,0,0,0, ,0,0,0,0,0, ,613,-756.2,-271.2,3.9,4.7,-1.3,25,605.027,-740.74,-282.377,3.40075,4.87761,-1.66904,
2026_06_26_17_07_46.131,3.861,30.2,0,0.76,0,0,0,0, ,0,0,0,0,0, ,612.7,-751.2,-251.2,6.7,7.8,-2.4,25,605.504,-741.53,-281.087,3.51649,4.96124,-1.68007,
2026_06_26_17_07_46.151,3.861,30.2,0,0.758,0,0,0,0, ,0,0,0,0,0, ,614.7,-746,-236.3,6.8,8,-2.4,25,606.003,-741.961,-278.811,3.71353,5.14032,-1.72394,
2026_06_26_17_07_46.170,3.861,30.2,0,0.761,0,0,0,0, ,0,0,0,0,0, ,613.6,-741.9,-226.9,6,6.7,-1.3,25,606.5,-742.082,-275.935,3.87724,5.27497,-1.73162,
2026_06_26_17_07_46.190,3.861,30.3,0,0.76,0,0,0,0, ,0,0,0,0,0, ,616,-743.8,-227.1,4.7,5.9,-0.2,25,607.005,-742.129,-272.953,3.96698,5.33743,-1.67181,
2026_06_26_17_07_46.209,3.861,30.2,0,0.76,0,0,0,0, ,0,0,0,0,0, ,614.2,-753.2,-221.5,4.3,5.1,0,25,607.499,-742.517,-269.988,3.99946,5.34734,-1.57602,
2026_06_26_17_07_46.230,3.861,30.2,0,0.759,0,0,0,0, ,0,0,0,0,0, ,615.4,-756.7,-222.4,1.7,3.9,-0.7,25,607.944,-743.275,-267.061,3.93856,5.2957,-1.50131,
2026_06_26_17_07_46.250,3.861,30.2,0,0.758,0,0,0,0, ,0,0,0,0,0, ,614.9,-758.9,-228.1,1.2,3.5,-1.3,25,608.383,-744.16,-264.513,3.78691,5.19847,-1.47076,
2026_06_26_17_07_46.269,3.861,30.2,0,0.759,0,0,0,0, ,0,0,0,0,0, ,615.2,-755.1,-230.8,3,4.4,-2.3,25,608.789,-744.942,-262.376,3.68412,5.12239,-1.49083,
2026_06_26_17_07_46.289,3.861,30.3,0,0.76,0,0,0,0, ,0,0,0,0,0, ,616.6,-750.4,-217.5,4.1,4.7,-2,25,609.222,-745.418,-260.047,3.67594,5.08751,-1.531,
2026_06_26_17_07_46.309,3.861,30.2,0,0.761,0,0,0,0, ,0,0,0,0,0, ,616.3,-744.6,-215.3,3.1,4.5,-1.7,25,609.663,-745.545,-257.387,3.67132,5.0578,-1.55043,
2026_06_26_17_07_46.334,3.861,30.2,0,0.761,0,0,0,0, ,0,0,0,0,0, ,618.2,-748.5,-209.1,1.2,3.4,-0.5,25,610.125,-745.606,-254.633,3.57861,4.99029,-1.52299,
2026_06_26_17_07_46.347,3.861,30.2,0,0.757,0,0,0,0, ,0,0,0,0,0, ,617,-754.2,-217.7,0,2.7,-0.1,25,610.581,-745.956,-252.121,3.3971,4.87206,-1.44846,
2026_06_26_17_07_46.368,3.861,30.2,0,0.76,0,0,0,0, ,0,0,0,0,0, ,615.3,-756.2,-211.4,-0.3,2.1,-0.2,25,610.92,-746.52,-249.831,3.18095,4.72142,-1.36934,
2026_06_26_17_07_46.388,3.861,30.2,0,0.76,0,0,0,0, ,0,0,0,0,0, ,615.6,-755.1,-210.5,-1.3,1.3,-0.4,25,611.196,-747.076,-247.462,2.93836,4.5373,-1.30417,
2026_06_26_17_07_46.409,3.861,30.2,0,0.76,0,0,0,0, ,0,0,0,0,0, ,615.3,-750,-211.6,-0.8,0.7,0,25,611.455,-747.41,-245.243,2.69532,4.32174,-1.23689,
2026_06_26_17_07_46.428,3.861,30.2,0,0.761,0,0,0,0, ,0,0,0,0,0, ,614.5,-748.4,-206.1,-1.3,-0.2,0.9,25,611.665,-747.519,-243.025,2.46709,4.07362,-1.13409,
2026_06_26_17_07_46.447,3.861,30.3,0,0.756,0,0,0,0, ,0,0,0,0,0, ,614.5,-750.3,-204.5,-4.8,-2,2,25,611.838,-747.63,-240.726,2.13089,3.75835,-0.976625,
2026_06_26_17_07_46.467,3.861,30.3,0,0.761,0,0,0,0, ,0,0,0,0,0, ,612,-764.2,-223.1,-6.5,-3,2,25,611.924,-748.216,-239.086,1.65674,3.37699,-0.795237,
2026_06_26_17_07_46.487,3.861,30.2,0,0.76,0,0,0,0, ,0,0,0,0,0, ,611.4,-769.2,-237.1,-2.2,-1,0.3,25,611.91,-749.343,-238.538,1.29071,3.04933,-0.676699,
2026_06_26_17_07_46.508,3.861,30.3,0,0.76,0,0,0,0, ,0,0,0,0,0, ,611.9,-760.6,-234.4,0.7,1.9,-1,25,611.894,-750.291,-238.368,1.16635,2.89093,-0.65679,
2026_06_26_17_07_46.527,3.861,30.3,0,0.761,0,0,0,0, ,0,0,0,0,0, ,610.8,-752.8,-220.8,1.1,3.1,-0.2,25,611.861,-750.681,-237.712,1.15012,2.86711,-0.65333,
2026_06_26_17_07_46.547,3.861,30.3,0,0.758,0,0,0,0, ,0,0,0,0,0, ,611.8,-760.9,-220.2,0.9,3.7,0.6,25,611.827,-751.057,-236.663,1.14097,2.89958,-0.60133,
2026_06_26_17_07_46.566,3.861,30.2,0,0.758,0,0,0,0, ,0,0,0,0,0, ,611,-767.2,-217.2,0.9,4.3,-0.3,25,611.801,-751.849,-235.569,1.12629,2.96664,-0.555546,
2026_06_26_17_07_46.586,3.861,30.3,0,0.759,0,0,0,0, ,0,0,0,0,0, ,611,-763.3,-216.1,2,4.6,-1.3,25,611.752,-752.666,-234.416,1.14602,3.05703,-0.570442,
2026_06_26_17_07_46.606,3.861,30.2,0,0.76,0,0,0,0, ,0,0,0,0,0, ,610.3,-754.8,-218,2.6,5.4,-1.3,25,611.685,-753.055,-233.357,1.21634,3.17543,-0.6149,
2026_06_26_17_07_46.625,3.861,30.2,0,0.76,0,0,0,0, ,0,0,0,0,0, ,613.1,-755.2,-213.9,4.1,6.4,-0.1,25,611.686,-753.173,-232.297,1.34636,3.34146,-0.620086,
2026_06_26_17_07_46.645,3.861,30.3,0,0.76,0,0,0,0, ,0,0,0,0,0, ,611.5,-765.6,-203.8,5.3,6.8,-0.1,25,611.723,-753.614,-230.868,1.55072,3.54003,-0.588393,
2026_06_26_17_07_46.666,3.861,30.2,0,0.761,0,0,0,0, ,0,0,0,0,0, ,611.8,-768.9,-203,4,6.6,-1.3,25,611.719,-754.445,-229.194,1.73958,3.73259,-0.595194,
2026_06_26_17_07_46.685,3.861,30.2,0,0.758,0,0,0,0, ,0,0,0,0,0, ,612,-757.8,-197.9,3.2,6.7,-1.9,25,611.73,-754.987,-227.442,1.85295,3.91037,-0.656424,
2026_06_26_17_07_46.705,3.861,30.3,0,0.759,0,0,0,0, ,0,0,0,0,0, ,613.2,-755.7,-193.4,2.2,6,-0.8,25,611.783,-755.095,-225.505,1.90457,4.05903,-0.698689,
2026_06_26_17_07_46.725,3.861,30.2,0,0.76,0,0,0,0, ,0,0,0,0,0, ,612.7,-760.1,-191,2,4.9,0.4,25,611.854,-755.266,-223.476,1.91648,4.14379,-0.6683,
2026_06_26_17_07_46.745,3.861,30.3,0,0.76,0,0,0,0, ,0,0,0,0,0, ,611,-771.6,-191.7,2.4,4.5,0.5,25,611.854,-755.911,-221.518,1.93375,4.17769,-0.600154,
2026_06_26_17_07_46.764,3.861,30.2,0,0.761,0,0,0,0, ,0,0,0,0,0, ,610.4,-776.3,-198.2,1.4,4.9,-1.5,25,611.784,-757.01,-219.899,1.9317,4.20952,-0.594051,
2026_06_26_17_07_46.784,3.861,30.3,0,0.761,0,0,0,0, ,0,0,0,0,0, ,613.1,-771.4,-195.3,1.6,5.7,-2.7,25,611.781,-758.036,-218.488,1.90539,4.27597,-0.685819,
2026_06_26_17_07_46.804,3.861,30.2,0,0.76,0,0,0,0, ,0,0,0,0,0, ,613.2,-758.1,-187,4.9,6.8,-2.9,25,611.865,-758.445,-216.822,1.98733,4.39626,-0.814652,
2026_06_26_17_07_46.827,3.861,30.3,0,0.76,0,0,0,0, ,0,0,0,0,0, ,613.5,-756.5,-173.3,5,5.8,-1.5,25,611.955,-758.375,-214.588,2.16787,4.51227,-0.899072,
2026_06_26_17_07_46.844,3.861,30.3,0,0.758,0,0,0,0, ,0,0,0,0,0, ,614,-762.8,-173.4,2.3,3.9,-0.3,25,612.065,-758.453,-212.075,2.25818,4.53285,-0.899128,
2026_06_26_17_07_46.863,3.861,30.3,0,0.762,0,0,0,0, ,0,0,0,0,0, ,614.2,-765.9,-178.7,1.8,3.5,-0.4,25,612.189,-758.812,-209.879,2.2455,4.4821,-0.865666,
2026_06_26_17_07_46.883,3.861,30.3,0,0.761,0,0,0,0, ,0,0,0,0,0, ,613.1,-767.5,-179.9,0,3.7,-0.4,25,612.278,-759.293,-208.016,2.16351,4.42834,-0.837289,
2026_06_26_17_07_46.902,3.861,30.3,0,0.76,0,0,0,0, ,0,0,0,0,0, ,614.3,-769.4,-180,1.8,4.4,-0.8,25,612.364,-759.851,-206.306,2.08651,4.40529,-0.82283,
2026_06_26_17_07_46.923,3.861,30.3,0,0.761,0,0,0,0, ,0,0,0,0,0, ,612,-770.3,-174.9,3.3,4.2,-1.1,25,612.412,-760.46,-204.547,2.11475,4.39887,-0.830579,
2026_06_26_17_07_46.943,3.861,30.2,0,0.759,0,0,0,0, ,0,0,0,0,0, ,612.9,-764.6,-165.1,3.7,3.6,-1.1,25,612.415,-760.886,-202.442,2.19917,4.36847,-0.846997,
2026_06_26_17_07_46.962,3.861,30.3,0,0.759,0,0,0,0, ,0,0,0,0,0, ,614,-755.9,-163.3,0.1,2.4,0.1,25,612.478,-760.848,-200.112,2.18094,4.28508,-0.825852,
2026_06_26_17_07_46.982,3.861,30.3,0,0.759,0,0,0,0, ,0,0,0,0,0, ,615.3,-760.3,-170,-2.1,2.4,0.7,25,612.61,-760.68,-198.073,1.9871,4.17021,-0.751151,
2026_06_26_17_07_47.002,3.861,30.3,0,0.76,0,0,0,0, ,0,0,0,0,0, ,612,-774,-184.9,-2.9,3.8,1.2,25,612.673,-761.074,-196.816,1.71367,4.10499,-0.647488,
2026_06_26_17_07_47.022,3.861,30.4,0,0.758,0,0,0,0, ,0,0,0,0,0, ,613.2,-786.8,-186.8,1.3,6.4,-0.8,25,612.669,-762.252,-196.148,1.56049,4.16563,-0.595844,
2026_06_26_17_07_47.041,3.861,30.3,0,0.759,0,0,0,0, ,0,0,0,0,0, ,610.5,-779.2,-171.7,4.5,8.4,-3.4,25,612.619,-763.516,-195.118,1.64212,4.36272,-0.687503,
2026_06_26_17_07_47.061,3.861,30.3,0,0.759,0,0,0,0, ,0,0,0,0,0, ,615.4,-757,-151.6,7.2,7.6,-2.7,25,612.639,-763.796,-193.079,1.89853,4.58437,-0.831468,
2026_06_26_17_07_47.081,3.861,30.2,0,0.759,0,0,0,0, ,0,0,0,0,0, ,615.7,-745.6,-137.8,4,5.2,0.3,25,612.817,-763.034,-190.131,2.12409,4.69501,-0.853925,
2026_06_26_17_07_47.101,3.861,30.3,0,0.76,0,0,0,0, ,0,0,0,0,0, ,613.4,-766.1,-152.4,-1,2.8,3.1,25,612.922,-762.596,-187.386,2.08606,4.65266,-0.698296,
2026_06_26_17_07_47.120,3.861,30.2,0,0.759,0,0,0,0, ,0,0,0,0,0, ,610.5,-796.7,-173.9,-0.9,4,1,25,612.863,-763.742,-185.91,1.90105,4.57632,-0.530821,
2026_06_26_17_07_47.140,3.861,30.2,0,0.758,0,0,0,0, ,0,0,0,0,0, ,609.7,-798.7,-170.2,3.9,6.5,-3.4,25,612.695,-765.812,-185.065,1.87661,4.61737,-0.571599,
2026_06_26_17_07_47.160,3.861,30.4,0,0.76,0,0,0,0, ,0,0,0,0,0, ,612.6,-777.3,-151.3,6.1,7,-5.7,25,612.601,-767.164,-183.583,2.06694,4.74733,-0.814033,
2026_06_26_17_07_47.180,3.861,30.2,0,0.759,0,0,0,0, ,0,0,0,0,0, ,615.6,-752.3,-133.3,4.4,5.6,-4.3,25,612.692,-767.02,-181.068,2.26091,4.84195,-1.06912,
2026_06_26_17_07_47.200,3.861,30.4,0,0.759,0,0,0,0, ,0,0,0,0,0, ,616.4,-755.1,-140.8,1.1,4.1,-0.9,25,612.893,-766.208,-178.385,2.29072,4.84244,-1.1624,
2026_06_26_17_07_47.220,3.861,30.3,0,0.76,0,0,0,0, ,0,0,0,0,0, ,614.9,-772.3,-159.7,-0.4,5.2,0.4,25,613.061,-766.055,-176.671,2.17245,4.83071,-1.1068,
2026_06_26_17_07_47.239,3.861,30.2,0,0.761,0,0,0,0, ,0,0,0,0,0, ,617.4,-781.9,-172.4,1,8.6,-0.3,25,613.25,-766.728,-176.024,2.05835,4.95681,-1.03631,
2026_06_26_17_07_47.259,3.861,30.4,0,0.761,0,0,0,0, ,0,0,0,0,0, ,617,-778.9,-176.2,5.6,14.1,-1,25,613.49,-767.561,-175.919,2.13401,5.34639,-1.01277,
2026_06_26_17_07_47.278,3.861,30.2,0,0.76,0,0,0,0, ,0,0,0,0,0, ,617.1,-784.3,-175.5,14.7,20.7,-2.2,25,613.707,-768.417,-175.914,2.62249,6.08091,-1.04855,
2026_06_26_17_07_47.299,3.861,30.3,0,0.76,0,0,0,0, ,0,0,0,0,0, ,615.3,-775.1,-123.4,24,24.2,-3.4,25,613.859,-769.104,-174.302,3.64182,7.0784,-1.15528,
2026_06_26_17_07_47.323,3.861,30.2,0,0.76,0,0,0,0, ,0,0,0,0,0, ,617.1,-769.6,-82.3,21,21.7,-3.3,25,614.002,-769.302,-169.948,4.79099,8.04558,-1.28902,
2026_06_26_17_07_47.339,3.861,30.2,0,0.76,0,0,0,0, ,0,0,0,0,0, ,618,-762.6,-70.3,12.5,17.6,-2.2,25,614.218,-769.107,-164.241,5.51974,8.75272,-1.37805,
2026_06_26_17_07_47.358,3.861,30.3,0,0.761,0,0,0,0, ,0,0,0,0,0, ,619.3,-771.9,-95,8,16,-1,25,614.488,-768.994,-159.269,5.80799,9.2431,-1.39158,
2026_06_26_17_07_47.378,3.861,30.4,0,0.761,0,0,0,0, ,0,0,0,0,0, ,618.6,-780.5,-82,10.4,15.5,-1.3,25,614.76,-769.433,-154.957,6.01469,9.63962,-1.37686,
2026_06_26_17_07_47.397,3.861,30.3,0,0.759,0,0,0,0, ,0,0,0,0,0, ,618.4,-783.3,-64,11,13.4,-2.5,25,614.988,-770.193,-149.962,6.3002,9.93275,-1.40874,
2026_06_26_17_07_47.417,3.861,30.2,0,0.759,0,0,0,0, ,0,0,0,0,0, ,620.7,-775.2,-62.2,6.8,10.9,-3.3,25,615.266,-770.745,-144.669,6.45863,10.0679,-1.49961,
2026_06_26_17_07_47.437,3.861,30.3,0,0.76,0,0,0,0, ,0,0,0,0,0, ,622.8,-778.3,-72.7,3.7,9.7,-3.3,25,615.661,-771.111,-139.964,6.38498,10.082,-1.60932,
2026_06_26_17_07_47.457,3.861,30.3,0,0.76,0,0,0,0, ,0,0,0,0,0, ,622.5,-772.3,-57.6,6.2,8.9,-3.1,25,616.087,-771.366,-135.405,6.29753,10.0344,-1.70625,
2026_06_26_17_07_47.477,3.861,30.4,0,0.76,0,0,0,0, ,0,0,0,0,0, ,621.9,-773.6,-52.6,4.5,6.9,-2.5,25,616.459,-771.462,-130.511,6.23979,9.90429,-1.7729,
2026_06_26_17_07_47.500,3.861,30.2,0,0.76,0,0,0,0, ,0,0,0,0,0, ,623.6,-771.4,-54.9,0.9,4.8,-1.6,25,616.843,-771.526,-125.833,6.02409,9.65723,-1.78979,
2026_06_26_17_07_47.517,3.861,30.2,0,0.76,0,0,0,0, ,0,0,0,0,0, ,622.8,-775.5,-55.9,-0.5,4,-1.3,25,617.23,-771.643,-121.541,5.66918,9.33687,-1.76908,
2026_06_26_17_07_47.536,3.861,30.3,0,0.759,0,0,0,0, ,0,0,0,0,0, ,622.8,-781.1,-62.7,-0.9,3.4,-1.9,25,617.57,-772.049,-117.749,5.28106,8.99337,-1.75878,
2026_06_26_17_07_47.556,3.861,30.3,0,0.761,0,0,0,0, ,0,0,0,0,0, ,622.9,-774.9,-54.6,-1.1,2.8,-2.1,25,617.891,-772.411,-114.147,4.89831,8.63425,-1.77348,
2026_06_26_17_07_47.576,3.861,30.3,0,0.761,0,0,0,0, ,0,0,0,0,0, ,624.1,-770.3,-42.6,-1,0.6,-1.5,25,618.233,-772.423,-110.153,4.53583,8.21169,-1.77509,
2026_06_26_17_07_47.595,3.861,30.2,0,0.76,0,0,0,0, ,0,0,0,0,0, ,626.4,-765.8,-67,-0.1,-1.2,0.3,25,618.661,-772.156,-106.78,4.22592,7.69301,-1.70349,
2026_06_26_17_07_47.615,3.861,30.3,0,0.76,0,0,0,0, ,0,0,0,0,0, ,625.2,-779.2,-90,-0.5,2.3,0.8,25,619.096,-772.177,-105.057,3.95012,7.25773,-1.56617,
2026_06_26_17_07_47.635,3.861,30.3,0,0.76,0,0,0,0, ,0,0,0,0,0, ,623.9,-790.1,-82,6.7,7.1,0.2,25,619.428,-772.937,-103.895,3.89831,7.10187,-1.44026,
2026_06_26_17_07_47.655,3.861,30.2,0,0.758,0,0,0,0, ,0,0,0,0,0, ,620.8,-786.8,-50.7,10,8.8,-1.6,25,619.606,-773.883,-101.607,4.16959,7.15355,-1.39515,
2026_06_26_17_07_47.675,3.861,30.2,0,0.761,0,0,0,0, ,0,0,0,0,0, ,619,-781.7,-31.9,8.9,8.1,-2.1,25,619.624,-774.514,-97.9324,4.49136,7.23256,-1.42287,
2026_06_26_17_07_47.695,3.861,30.3,0,0.76,0,0,0,0, ,0,0,0,0,0, ,621.4,-775.7,-30.7,-0.7,4.8,-2.5,25,619.659,-774.769,-93.872,4.46751,7.18487,-1.47632,
2026_06_26_17_07_47.715,3.861,30.2,0,0.761,0,0,0,0, ,0,0,0,0,0, ,624.5,-784.4,-82.5,-1.8,7.1,-2.9,25,619.86,-775.091,-91.6008,4.1191,7.10962,-1.55088,
2026_06_26_17_07_47.734,3.861,30.2,0,0.759,0,0,0,0, ,0,0,0,0,0, ,626.7,-781.1,-78.6,1.1,11.6,-3.7,25,620.21,-775.558,-90.9273,3.84677,7.24614,-1.65747,
2026_06_26_17_07_47.754,3.861,30.3,0,0.759,0,0,0,0, ,0,0,0,0,0, ,623.7,-779.7,-57.1,10.2,15.5,-3.5,25,620.514,-775.853,-89.5211,3.95665,7.63028,-1.77584,
2026_06_26_17_07_47.774,3.861,30.2,0,0.758,0,0,0,0, ,0,0,0,0,0, ,622,-770.9,-1.4,13.9,13.8,-2.7,25,620.656,-775.819,-85.8483,4.44984,8.05805,-1.85654,
2026_06_26_17_07_47.794,3.861,30.3,0,0.761,0,0,0,0, ,0,0,0,0,0, ,623.1,-772.9,-5.9,4.2,8.8,-2,25,620.771,-775.58,-80.8393,4.73016,8.2556,-1.88661,
2026_06_26_17_07_47.813,3.861,30.2,0,0.76,0,0,0,0, ,0,0,0,0,0, ,626.3,-800,-57.3,4.8,10.1,-3.3,25,621.011,-776.243,-77.8388,4.71614,8.32839,-1.93313,
2026_06_26_17_07_47.833,3.861,30.2,0,0.76,0,0,0,0, ,0,0,0,0,0, ,623.1,-780.3,-8.6,7.6,12.5,-5.1,25,621.236,-777.09,-75.1034,4.80656,8.50947,-2.07126,
2026_06_26_17_07_47.853,3.861,30.3,0,0.763,0,0,0,0, ,0,0,0,0,0, ,625.8,-770.1,1.7,5.9,9.5,-5,25,621.432,-776.975,-70.737,4.92499,8.66124,-2.25278,
2026_06_26_17_07_47.873,3.861,30.2,0,0.76,0,0,0,0, ,0,0,0,0,0, ,627.1,-765.2,-5.1,5.7,7.8,-2.9,25,621.737,-776.407,-66.5301,4.97831,8.66055,-2.3562,
2026_06_26_17_07_47.892,3.861,30.2,0,0.761,0,0,0,0, ,0,0,0,0,0, ,629.1,-771.2,-12.2,5.4,8.5,-1.7,25,622.125,-775.907,-63.003,5.01315,8.62944,-2.35278,
2026_06_26_17_07_47.912,3.861,30.3,0,0.76,0,0,0,0, ,0,0,0,0,0, ,627.8,-781.9,-18.9,4.5,10.8,-1.9,25,622.51,-775.946,-60.1114,5.0093,8.69163,-2.31909,
2026_06_26_17_07_47.933,3.861,30.3,0,0.761,0,0,0,0, ,0,0,0,0,0, ,628.4,-782.1,-9.3,6.8,13.2,-2.7,25,622.851,-776.315,-57.3075,5.04834,8.89323,-2.31793,
2026_06_26_17_07_47.952,3.861,30.3,0,0.76,0,0,0,0, ,0,0,0,0,0, ,626.8,-771.9,10.2,9.3,13.6,-2.7,25,623.14,-776.357,-53.7879,5.23125,9.16787,-2.34121,
2026_06_26_17_07_47.972,3.861,30.3,0,0.76,0,0,0,0, ,0,0,0,0,0, ,626.2,-767.9,31.6,7.9,11.6,-2,25,623.345,-775.963,-49.2366,5.43654,9.37701,-2.34175,
2026_06_26_17_07_47.992,3.861,30.3,0,0.761,0,0,0,0, ,0,0,0,0,0, ,628.2,-770.1,26.4,3.8,9.7,-1.3,25,623.58,-775.539,-44.4691,5.46173,9.45458,-2.29959,
2026_06_26_17_07_48.012,3.861,30.3,0,0.759,0,0,0,0, ,0,0,0,0,0, ,627,-777.2,11.1,2,9.9,-1.5,25,623.825,-775.424,-40.6167,5.30563,9.47563,-2.24478,
2026_06_26_17_07_48.031,3.861,30.2,0,0.758,0,0,0,0, ,0,0,0,0,0, ,626.7,-770.3,22.8,3.1,10.6,-0.7,25,624.009,-775.322,-37.1087,5.13771,9.52282,-2.17502,
2026_06_26_17_07_48.051,3.861,30.3,0,0.761,0,0,0,0, ,0,0,0,0,0, ,625.4,-770,47.2,2.9,8.7,0.1,25,624.134,-775.007,-32.7146,5.00744,9.53057,-2.06076,
2026_06_26_17_07_48.070,3.861,30.2,0,0.76,0,0,0,0, ,0,0,0,0,0, ,623.6,-785.7,36.3,2.5,6.5,0,25,624.156,-775.18,-28.1769,4.86683,9.41293,-1.93213,
2026_06_26_17_07_48.090,3.861,30.3,0,0.76,0,0,0,0, ,0,0,0,0,0, ,622.4,-787.2,39.5,0.5,5.4,-2.2,25,624.086,-775.867,-24.1503,4.66166,9.2019,-1.88142,
2026_06_26_17_07_48.110,3.861,30.3,0,0.759,0,0,0,0, ,0,0,0,0,0, ,624.8,-781.7,23.4,-0.1,5.6,-4,25,624.056,-776.39,-20.7622,4.38978,8.97632,-1.95568,
2026_06_26_17_07_48.130,3.861,30.3,0,0.759,0,0,0,0, ,0,0,0,0,0, ,629.7,-770.8,23.9,3.8,8.1,-3.6,25,624.251,-776.381,-18.0558,4.23501,8.84675,-2.06807,
2026_06_26_17_07_48.150,3.861,30.2,0,0.761,0,0,0,0, ,0,0,0,0,0, ,627.6,-767.9,33.4,8.1,10,-2.1,25,624.519,-775.953,-15.2097,4.33952,8.85913,-2.11572,
2026_06_26_17_07_48.169,3.861,30.3,0,0.762,0,0,0,0, ,0,0,0,0,0, ,625.9,-770.8,49,9.8,9.6,-0.7,25,624.655,-775.55,-11.7722,4.62047,8.91647,-2.0721,
2026_06_26_17_07_48.196,3.861,30.3,0,0.759,0,0,0,0, ,0,0,0,0,0, ,622.4,-776.7,61.1,10.5,9.1,-0.7,25,624.624,-775.441,-7.70025,4.95743,8.94289,-1.98849,
2026_06_26_17_07_48.210,3.861,30.3,0,0.761,0,0,0,0, ,0,0,0,0,0, ,622.8,-777.5,71.4,8,7,-1.3,25,624.501,-775.542,-3.19391,5.21901,8.88848,-1.92826,
2026_06_26_17_07_48.229,3.861,30.3,0,0.76,0,0,0,0, ,0,0,0,0,0, ,621.9,-776.2,71.5,5.4,4.8,-2,25,624.37,-775.621,1.35471,5.30925,8.70637,-1.9113,
2026_06_26_17_07_48.248,3.861,30.3,0,0.76,0,0,0,0, ,0,0,0,0,0, ,624.7,-777.2,67.1,2.7,3,-2.2,25,624.304,-775.687,5.49512,5.23252,8.41348,-1.9228,
2026_06_26_17_07_48.269,3.861,30.4,0,0.76,0,0,0,0, ,0,0,0,0,0, ,624.6,-779.7,57.1,3.2,3.6,-2.7,25,624.325,-775.856,8.94448,5.09343,8.10187,-1.95492,
2026_06_26_17_07_48.288,3.861,30.3,0,0.759,0,0,0,0, ,0,0,0,0,0, ,625.1,-777.4,61.7,6.2,4.5,-3.1,25,624.357,-776.02,12.0191,5.06945,7.85496,-2.01252,
2026_06_26_17_07_48.308,3.861,30.3,0,0.76,0,0,0,0, ,0,0,0,0,0, ,626.2,-773.5,69.3,7.4,4.7,-3,25,624.436,-775.985,15.2781,5.17491,7.65661,-2.07574,
2026_06_26_17_07_48.328,3.861,30.3,0,0.758,0,0,0,0, ,0,0,0,0,0, ,624.5,-771.7,76.6,6.7,4.6,-2.8,25,624.492,-775.779,18.7925,5.28917,7.4734,-2.12597,
2026_06_26_17_07_48.348,3.861,30.2,0,0.759,0,0,0,0, ,0,0,0,0,0, ,623.4,-771.7,83.3,3.8,3.4,-2.3,25,624.459,-775.53,22.5193,5.28678,7.26174,-2.15181,
2026_06_26_17_07_48.367,3.861,30.3,0,0.759,0,0,0,0, ,0,0,0,0,0, ,626.2,-770.7,78.6,1,2.6,-2,25,624.48,-775.266,26.0799,5.11087,7.00204,-2.1517,
2026_06_26_17_07_48.388,3.861,30.3,0,0.759,0,0,0,0, ,0,0,0,0,0, ,624.5,-773.3,78.9,1.8,2.6,-1.8,25,624.533,-775.067,29.2895,4.88474,6.73379,-2.13636,
2026_06_26_17_07_48.407,3.861,30.3,0,0.758,0,0,0,0, ,0,0,0,0,0, ,623.5,-773.8,85.5,1.2,1.7,-1.6,25,624.5,-774.975,32.5137,4.67848,6.45447,-2.10977,
2026_06_26_17_07_48.427,3.861,30.3,0,0.759,0,0,0,0, ,0,0,0,0,0, ,623.4,-773.8,83.8,-0.9,0.8,-1.6,25,624.436,-774.903,35.6908,4.40253,6.13732,-2.0787,
2026_06_26_17_07_48.447,3.861,30.2,0,0.76,0,0,0,0, ,0,0,0,0,0, ,625.1,-776.4,76.6,-1,0.5,-1.5,25,624.425,-774.915,38.403,4.07636,5.80293,-2.04649,
2026_06_26_17_07_48.466,3.861,30.3,0,0.76,0,0,0,0, ,0,0,0,0,0, ,625.2,-777.3,67.1,0.1,1.9,-1.8,25,624.469,-775.033,40.4412,3.80053,5.52244,-2.02232,
2026_06_26_17_07_48.486,3.861,30.3,0,0.76,0,0,0,0, ,0,0,0,0,0, ,625.6,-774.2,73.2,2.5,3.7,-1.9,25,624.526,-775.077,42.2516,3.64816,5.35654,-2.01182,
2026_06_26_17_07_48.506,3.861,30.3,0,0.76,0,0,0,0, ,0,0,0,0,0, ,622.6,-772,84.4,3.4,4.1,-1.7,25,624.5,-774.956,44.4788,3.60561,5.26779,-1.99892,
2026_06_26_17_07_48.525,3.861,30.3,0,0.761,0,0,0,0, ,0,0,0,0,0, ,622.9,-774.4,88.7,3,3.6,-1.5,25,624.393,-774.849,47.0425,3.5809,5.18139,-1.97461,
2026_06_26_17_07_48.550,3.861,30.3,0,0.761,0,0,0,0, ,0,0,0,0,0, ,624,-777.4,83.4,1.5,3.8,-1.9,25,624.336,-774.913,49.4195,3.49979,5.09112,-1.95787,
2026_06_26_17_07_48.565,3.861,30.3,0,0.76,0,0,0,0, ,0,0,0,0,0, ,624.2,-778.1,74.9,1.7,5.4,-2.3,25,624.321,-775.086,51.2312,3.38403,5.06119,-1.96653,
2026_06_26_17_07_48.586,3.861,30.3,0,0.76,0,0,0,0, ,0,0,0,0,0, ,624.8,-777.5,81.4,6.6,7.7,-2.3,25,624.332,-775.252,52.8716,3.4307,5.15191,-1.98685,
2026_06_26_17_07_48.605,3.861,30.3,0,0.761,0,0,0,0, ,0,0,0,0,0, ,621.4,-773.8,102.4,7.8,7.9,-2.4,25,624.257,-775.276,55.2499,3.66039,5.31328,-2.00898,
2026_06_26_17_07_48.625,3.861,30.4,0,0.76,0,0,0,0, ,0,0,0,0,0, ,622.8,-775.3,108.2,6.6,6.6,-2.5,25,624.126,-775.232,58.2998,3.87609,5.4313,-2.03586,
2026_06_26_17_07_48.644,3.861,30.3,0,0.758,0,0,0,0, ,0,0,0,0,0, ,622.4,-778.9,107.1,5.6,6.1,-3.5,25,624.033,-775.345,61.3071,4.01161,5.48728,-2.09461,
2026_06_26_17_07_48.664,3.861,30.3,0,0.759,0,0,0,0, ,0,0,0,0,0, ,622.1,-767.8,123.7,4.6,4.8,-3.9,25,623.924,-775.224,64.6034,4.07793,5.48501,-2.19244,
2026_06_26_17_07_48.684,3.861,30.3,0,0.761,0,0,0,0, ,0,0,0,0,0, ,622.3,-758.7,127.3,1.1,1.9,-2.9,25,623.819,-774.494,68.3142,4.00311,5.35491,-2.26602,
2026_06_26_17_07_48.704,3.861,30.2,0,0.76,0,0,0,0, ,0,0,0,0,0, ,622.9,-767.9,112.5,-1.1,0.6,-1.9,25,623.745,-773.812,71.4578,3.75917,5.10477,-2.27419,
2026_06_26_17_07_48.723,3.861,30.3,0,0.762,0,0,0,0, ,0,0,0,0,0, ,625.3,-774.4,100,-0.7,1.4,-2.1,25,623.766,-773.65,73.5779,3.47525,4.85463,-2.25748,
2026_06_26_17_07_48.743,3.861,30.3,0,0.76,0,0,0,0, ,0,0,0,0,0, ,622.6,-777,102,1.3,2.6,-2.8,25,623.778,-773.775,75.2489,3.28176,4.68068,-2.26921,
2026_06_26_17_07_48.763,3.861,30.3,0,0.759,0,0,0,0, ,0,0,0,0,0, ,624,-770.2,105.3,3.8,4.2,-3.2,25,623.748,-773.764,76.9796,3.23716,4.60264,-2.31374,
2026_06_26_17_07_48.783,3.861,30.3,0,0.76,0,0,0,0, ,0,0,0,0,0, ,624.5,-764.8,119.2,5,4.3,-2.3,25,623.779,-773.382,79.1289,3.30803,4.58115,-2.34033,
2026_06_26_17_07_48.803,3.861,30.3,0,0.761,0,0,0,0, ,0,0,0,0,0, ,622.8,-768.1,127.6,4.1,3.2,-1.9,25,623.771,-772.96,81.8267,3.38371,4.5305,-2.32568,
2026_06_26_17_07_48.822,3.861,30.3,0,0.759,0,0,0,0, ,0,0,0,0,0, ,622.6,-773.3,115.3,2.3,3,-2.3,25,623.706,-772.822,84.2412,3.37251,4.44333,-2.31193,
2026_06_26_17_07_48.842,3.861,30.3,0,0.759,0,0,0,0, ,0,0,0,0,0, ,624.1,-775.8,108.1,4.1,4.9,-3,25,623.684,-772.928,85.9145,3.362,4.41327,-2.33253,
2026_06_26_17_07_48.863,3.861,30.4,0,0.76,0,0,0,0, ,0,0,0,0,0, ,623.9,-769.1,122.9,7.9,6.6,-3.3,25,623.703,-772.898,87.7174,3.52275,4.49472,-2.38235,
2026_06_26_17_07_48.882,3.861,30.4,0,0.76,0,0,0,0, ,0,0,0,0,0, ,622.3,-764,139.2,6.7,5.7,-3.1,25,623.667,-772.512,90.3579,3.75293,4.59559,-2.43217,
2026_06_26_17_07_48.902,3.861,30.3,0,0.759,0,0,0,0, ,0,0,0,0,0, ,622.5,-765.2,148.4,3.8,3.6,-2.9,25,623.589,-772.029,93.6146,3.84416,4.59891,-2.46677,
2026_06_26_17_07_48.921,3.861,30.3,0,0.759,0,0,0,0, ,0,0,0,0,0, ,622.6,-765.5,140,2.5,2,-2.7,25,623.526,-771.622,96.6971,3.80186,4.48929,-2.48708,
2026_06_26_17_07_48.942,3.861,30.4,0,0.76,0,0,0,0, ,0,0,0,0,0, ,623,-766.4,144.7,2.3,1,-2.7,25,623.482,-771.277,99.4791,3.71643,4.30713,-2.50005,
2026_06_26_17_07_48.961,3.861,30.4,0,0.76,0,0,0,0, ,0,0,0,0,0, ,623.6,-769.4,135.1,1.7,0.9,-3,25,623.471,-771.071,101.942,3.61184,4.10255,-2.52138,
2026_06_26_17_07_48.981,3.861,30.4,0,0.76,0,0,0,0, ,0,0,0,0,0, ,622,-766.2,141.7,1.3,0.9,-3,25,623.43,-770.872,104.164,3.48315,3.9074,-2.55055,
2026_06_26_17_07_49.000,3.861,30.3,0,0.761,0,0,0,0, ,0,0,0,0,0, ,624.1,-769.5,134.8,0.6,1.4,-3.3,25,623.407,-770.688,106.241,3.32878,3.73937,-2.58707,
2026_06_26_17_07_49.020,3.861,30.3,0,0.758,0,0,0,0, ,0,0,0,0,0, ,625.1,-764.8,139.8,0.8,1.6,-3.6,25,623.479,-770.472,108.134,3.16859,3.60291,-2.63966,
2026_06_26_17_07_49.040,3.861,30.4,0,0.76,0,0,0,0, ,0,0,0,0,0, ,625.3,-763.5,140.3,2,1.9,-3.5,25,623.584,-770.087,110.079,3.06082,3.49,-2.69513,
2026_06_26_17_07_49.060,3.861,30.3,0,0.759,0,0,0,0, ,0,0,0,0,0, ,624.6,-761.3,144.4,1.5,1.8,-2.9,25,623.668,-769.618,112.045,2.98094,3.39006,-2.7259,
2026_06_26_17_07_49.080,3.861,30.4,0,0.761,0,0,0,0, ,0,0,0,0,0, ,625.2,-765.7,146.3,1.6,2.1,-2.9,25,623.743,-769.245,114.075,2.89374,3.3023,-2.73651,
2026_06_26_17_07_49.099,3.861,30.4,0,0.76,0,0,0,0, ,0,0,0,0,0, ,625.2,-769.7,138.5,2.1,2.3,-3.4,25,623.831,-769.151,115.801,2.83014,3.23513,-2.76171,
2026_06_26_17_07_49.119,3.861,30.3,0,0.759,0,0,0,0, ,0,0,0,0,0, ,625.2,-763.1,144.5,1.9,3.2,-3.8,25,623.915,-768.984,117.367,2.77955,3.20557,-2.81279,
2026_06_26_17_07_49.139,3.861,30.4,0,0.759,0,0,0,0, ,0,0,0,0,0, ,625.1,-755,155.7,1.6,2.8,-3.2,25,623.99,-768.378,119.361,2.71681,3.19304,-2.85467,
2026_06_26_17_07_49.158,3.861,30.4,0,0.76,0,0,0,0, ,0,0,0,0,0, ,625.3,-757.9,156.9,1.1,1.4,-1.9,25,624.064,-767.651,121.612,2.63352,3.12644,-2.8361,
2026_06_26_17_07_49.178,3.861,30.4,0,0.76,0,0,0,0, ,0,0,0,0,0, ,624.5,-764,154.9,0.8,0.8,-1.8,25,624.115,-767.243,123.702,2.53093,3.00295,-2.77601,
2026_06_26_17_07_49.199,3.861,30.3,0,0.761,0,0,0,0, ,0,0,0,0,0, ,625.6,-767.4,152.7,-0.1,0.2,-2.9,25,624.172,-767.149,125.536,2.39803,2.85043,-2.75005,
2026_06_26_17_07_49.218,3.861,30.3,0,0.76,0,0,0,0, ,0,0,0,0,0, ,626.4,-757.6,154.4,-0.7,0.4,-2.8,25,624.283,-766.866,127.243,2.22753,2.69501,-2.75614,
2026_06_26_17_07_49.238,3.861,30.4,0,0.761,0,0,0,0, ,0,0,0,0,0, ,625,-761.5,161.3,-1.8,-0.5,-3.1,25,624.37,-766.42,129.108,2.01562,2.52774,-2.76795,
2026_06_26_17_07_49.257,3.861,30.4,0,0.759,0,0,0,0, ,0,0,0,0,0, ,625.6,-760.7,156.1,-4,-1.6,-3,25,624.426,-766.096,130.911,1.71607,2.30972,-2.78514,
2026_06_26_17_07_49.278,3.861,30.3,0,0.758,0,0,0,0, ,0,0,0,0,0, ,627.9,-762.5,149,-4.3,-2.3,-2.4,25,624.568,-765.822,132.23,1.35861,2.05014,-2.77995,
2026_06_26_17_07_49.303,3.861,30.4,0,0.76,0,0,0,0, ,0,0,0,0,0, ,627.1,-768.7,139.7,-3.3,-1.5,-3.1,25,624.747,-765.808,132.969,1.04425,1.80943,-2.77813,
2026_06_26_17_07_49.318,3.861,30.5,0,0.755,0,0,0,0, ,0,0,0,0,0, ,627.3,-765.1,140.2,-2.1,0,-3.9,25,624.896,-765.875,133.394,0.816089,1.65346,-2.82212,
2026_06_26_17_07_49.337,3.861,30.4,0,0.76,0,0,0,0, ,0,0,0,0,0, ,629,-760.3,136.8,0.5,1.4,-4.2,25,625.094,-765.681,133.705,0.717609,1.59536,-2.89694,
2026_06_26_17_07_49.357,3.861,30.4,0,0.759,0,0,0,0, ,0,0,0,0,0, ,628.2,-750.9,148.8,2.7,2.5,-3.1,25,625.308,-765.067,134.259,0.77138,1.61697,-2.94283,
2026_06_26_17_07_49.377,3.861,30.4,0,0.759,0,0,0,0, ,0,0,0,0,0, ,628.6,-757.3,155.2,2,2.2,-1.8,25,625.496,-764.399,135.34,0.867577,1.66164,-2.9128,
2026_06_26_17_07_49.397,3.861,30.4,0,0.76,0,0,0,0, ,0,0,0,0,0, ,628,-761.1,150.2,0.8,2.3,-1.9,25,625.667,-764.082,136.398,0.900021,1.69749,-2.84803,
2026_06_26_17_07_49.416,3.861,30.4,0,0.761,0,0,0,0, ,0,0,0,0,0, ,625.8,-762.8,152.3,1,2.7,-2.3,25,625.742,-763.952,137.303,0.90002,1.7464,-2.80245,
2026_06_26_17_07_49.436,3.861,30.5,0,0.759,0,0,0,0, ,0,0,0,0,0, ,626.9,-763.7,155.2,1.4,3,-3,25,625.779,-763.909,138.306,0.9183,1.81365,-2.79316,
2026_06_26_17_07_49.455,3.861,30.4,0,0.761,0,0,0,0, ,0,0,0,0,0, ,626.8,-757.8,156.8,1.1,2.8,-3.1,25,625.845,-763.717,139.384,0.938513,1.87985,-2.80881,
2026_06_26_17_07_49.475,3.861,30.4,0,0.76,0,0,0,0, ,0,0,0,0,0, ,627.8,-758.4,154.7,0.9,3.2,-3,25,625.933,-763.374,140.381,0.94226,1.94811,-2.82351,
2026_06_26_17_07_49.500,3.861,30.4,0,0.759,0,0,0,0, ,0,0,0,0,0, ,628.4,-761.3,155.3,1.6,4,-2.8,25,626.065,-763.16,141.272,0.961013,2.04877,-2.82817,
2026_06_26_17_07_49.515,3.861,30.4,0,0.76,0,0,0,0, ,0,0,0,0,0, ,626.5,-757.5,167.3,2.8,3.8,-2.7,25,626.15,-762.931,142.492,1.03651,2.16158,-2.82341,
2026_06_26_17_07_49.535,3.861,30.4,0,0.759,0,0,0,0, ,0,0,0,0,0, ,627.4,-756.2,171.2,2.7,2.6,-2,25,626.198,-762.56,144.123,1.14093,2.22486,-2.79456,
2026_06_26_17_07_49.555,3.861,30.4,0,0.759,0,0,0,0, ,0,0,0,0,0, ,627,-755,166.8,1.3,1.8,-1.5,25,626.26,-762.136,145.639,1.19328,2.22334,-2.73091,
2026_06_26_17_07_49.575,3.861,30.3,0,0.761,0,0,0,0, ,0,0,0,0,0, ,627.6,-760.1,163.3,0.9,2.1,-1.6,25,626.323,-761.856,146.822,1.18759,2.20669,-2.65894,
2026_06_26_17_07_49.595,3.861,30.3,0,0.759,0,0,0,0, ,0,0,0,0,0, ,627.3,-763.6,163.8,2.9,3.1,-2.5,25,626.392,-761.856,147.841,1.23101,2.23065,-2.62184,
2026_06_26_17_07_49.614,3.861,30.4,0,0.76,0,0,0,0, ,0,0,0,0,0, ,627.6,-759.7,167.9,4.2,3.5,-2.9,25,626.456,-761.843,148.939,1.37232,2.29582,-2.6266,
2026_06_26_17_07_49.634,3.861,30.4,0,0.76,0,0,0,0, ,0,0,0,0,0, ,626.2,-753.9,181,4,2.8,-2.9,25,626.483,-761.536,150.493,1.53854,2.34787,-2.64326,
2026_06_26_17_07_49.653,3.861,30.4,0,0.759,0,0,0,0, ,0,0,0,0,0, ,625.2,-756.3,182.2,2.7,2.1,-2.7,25,626.435,-761.144,152.389,1.64892,2.35409,-2.65281,
2026_06_26_17_07_49.674,3.861,30.3,0,0.761,0,0,0,0, ,0,0,0,0,0, ,624.7,-754.8,184.3,0.3,0.7,-2.8,25,626.345,-760.803,154.269,1.63985,2.29595,-2.65873,
2026_06_26_17_07_49.693,3.861,30.4,0,0.76,0,0,0,0, ,0,0,0,0,0, ,626.7,-753.5,175.4,-1.3,-0.4,-2.3,25,626.306,-760.398,155.828,1.50945,2.16518,-2.65211,
2026_06_26_17_07_49.714,3.861,30.4,0,0.76,0,0,0,0, ,0,0,0,0,0, ,627.6,-760.7,165.5,1,0.6,-2.4,25,626.357,-760.197,156.719,1.40833,2.03934,-2.6337,
2026_06_26_17_07_49.734,3.861,30.3,0,0.758,0,0,0,0, ,0,0,0,0,0, ,628.6,-758.9,170,1.9,1.6,-2.8,25,626.463,-760.173,157.391,1.41087,1.9821,-2.63164,
2026_06_26_17_07_49.752,3.861,30.4,0,0.761,0,0,0,0, ,0,0,0,0,0, ,627.6,-754.8,174.5,3.4,2.7,-3,25,626.563,-759.97,158.297,1.48638,1.99233,-2.648,
2026_06_26_17_07_49.772,3.861,30.4,0,0.761,0,0,0,0, ,0,0,0,0,0, ,626.7,-749.5,186.5,1.6,1.9,-2.5,25,626.599,-759.494,159.65,1.54815,2.01108,-2.65421,
2026_06_26_17_07_49.792,3.861,30.4,0,0.76,0,0,0,0, ,0,0,0,0,0, ,627,-753.5,184.5,1.6,1.2,-2.1,25,626.614,-759.006,161.225,1.55131,1.98298,-2.63263,
2026_06_26_17_07_49.812,3.861,30.3,0,0.76,0,0,0,0, ,0,0,0,0,0, ,626.8,-757.3,177.6,1.6,1.3,-2.2,25,626.632,-758.787,162.433,1.55427,1.93831,-2.60322,
2026_06_26_17_07_49.832,3.861,30.4,0,0.76,0,0,0,0, ,0,0,0,0,0, ,627.6,-756.3,181.7,1.4,1.9,-3,25,626.666,-758.666,163.482,1.55097,1.9177,-2.60302,
2026_06_26_17_07_49.851,3.861,30.4,0,0.76,0,0,0,0, ,0,0,0,0,0, ,627.1,-756.4,182.8,1.7,2,-3,25,626.708,-758.524,164.626,1.55091,1.91967,-2.62721,
2026_06_26_17_07_49.872,3.861,30.5,0,0.76,0,0,0,0, ,0,0,0,0,0, ,627.8,-750.3,187.8,1.9,1.7,-2.9,25,626.753,-758.209,165.886,1.56609,1.91542,-2.64688,
2026_06_26_17_07_49.890,3.861,30.4,0,0.76,0,0,0,0, ,0,0,0,0,0, ,627,-749,187.6,2.4,1.3,-2.2,25,626.792,-757.688,167.215,1.60167,1.89011,-2.64098,
2026_06_26_17_07_49.913,3.861,30.4,0,0.761,0,0,0,0, ,0,0,0,0,0, ,627.1,-754.6,185.7,1.6,1.7,-2.2,25,626.808,-757.329,168.399,1.62594,1.86633,-2.61411,
2026_06_26_17_07_49.931,3.861,30.4,0,0.761,0,0,0,0, ,0,0,0,0,0, ,626.7,-751.5,180.9,0.8,2.9,-2.5,25,626.814,-757.068,169.307,1.59999,1.89276,-2.59801,
2026_06_26_17_07_49.950,3.861,30.4,0,0.76,0,0,0,0, ,0,0,0,0,0, ,627.8,-748.9,197,1.1,2.9,-2,25,626.84,-756.65,170.504,1.56038,1.95414,-2.57681,
2026_06_26_17_07_49.971,3.861,30.4,0,0.759,0,0,0,0, ,0,0,0,0,0, ,625.6,-753.9,192.1,1.7,2.1,-1.7,25,626.832,-756.33,171.97,1.5506,1.9874,-2.53252,
2026_06_26_17_07_49.990,3.861,30.3,0,0.76,0,0,0,0, ,0,0,0,0,0, ,626.5,-757.8,185.4,2.3,2.6,-2.2,25,626.784,-756.3,172.992,1.57799,2.0095,-2.49702,
2026_06_26_17_07_50.010,3.861,30.4,0,0.758,0,0,0,0, ,0,0,0,0,0, ,626.4,-756.3,189.4,3.3,3.9,-3.3,25,626.764,-756.346,173.87,1.65246,2.08509,-2.51244,
2026_06_26_17_07_50.030,3.861,30.4,0,0.762,0,0,0,0, ,0,0,0,0,0, ,625.6,-750,197.1,3.4,4.4,-3.5,25,626.717,-756.151,175.051,1.7559,2.21092,-2.56652,
2026_06_26_17_07_50.049,3.861,30.4,0,0.759,0,0,0,0, ,0,0,0,0,0, ,626.2,-754.3,195.9,3.6,4.8,-3.9,25,626.667,-755.908,176.358,1.86218,2.35651,-2.63559,
2026_06_26_17_07_50.069,3.861,30.5,0,0.76,0,0,0,0, ,0,0,0,0,0, ,627,-749.2,205.4,4.4,5.1,-4,25,626.663,-755.654,177.838,1.99245,2.51455,-2.71569,
2026_06_26_17_07_50.088,3.861,30.4,0,0.76,0,0,0,0, ,0,0,0,0,0, ,626.3,-744.3,210,4.5,4.3,-3.7,25,626.663,-755.112,179.658,2.14221,2.64772,-2.78481,
2026_06_26_17_07_50.114,3.861,30.4,0,0.759,0,0,0,0, ,0,0,0,0,0, ,624.2,-745.9,215.5,3.1,3.1,-3.5,25,626.576,-754.501,181.675,2.24323,2.71185,-2.83449,
2026_06_26_17_07_50.128,3.861,30.4,0,0.759,0,0,0,0, ,0,0,0,0,0, ,628.9,-748.9,209.2,2.7,2.6,-3.4,25,626.575,-754.069,183.544,2.28325,2.72026,-2.87199,
2026_06_26_17_07_50.148,3.861,30.4,0,0.761,0,0,0,0, ,0,0,0,0,0, ,627,-748.9,209.1,2.9,2.8,-3.7,25,626.659,-753.754,185.104,2.31474,2.71903,-2.91331,
2026_06_26_17_07_50.168,3.861,30.5,0,0.76,0,0,0,0, ,0,0,0,0,0, ,628.2,-746,211.5,3.4,3.1,-4.1,25,626.716,-753.37,186.64,2.36564,2.7331,-2.97344,
2026_06_26_17_07_50.188,3.861,30.5,0,0.76,0,0,0,0, ,0,0,0,0,0, ,626.7,-746.8,220.4,2.5,2.7,-4.2,25,626.761,-752.945,188.426,2.40125,2.74327,-3.04513,
2026_06_26_17_07_50.207,3.861,30.4,0,0.76,0,0,0,0, ,0,0,0,0,0, ,628.4,-744.7,221.6,1.9,1.9,-4.5,25,626.809,-752.506,190.411,2.38899,2.71626,-3.12465,
2026_06_26_17_07_50.227,3.861,30.4,0,0.76,0,0,0,0, ,0,0,0,0,0, ,625,-744.5,223.6,1.5,0.9,-4.5,25,626.802,-752.025,192.372,2.347,2.63605,-3.20846,
2026_06_26_17_07_50.247,3.861,30.5,0,0.76,0,0,0,0, ,0,0,0,0,0, ,630.3,-737.6,215,1,0.7,-4,25,626.854,-751.356,194.013,2.28015,2.52417,-3.27193,
2026_06_26_17_07_50.267,3.861,30.4,0,0.761,0,0,0,0, ,0,0,0,0,0, ,630.2,-743.2,211.6,1,1.4,-3.6,25,627.061,-750.688,195.189,2.20214,2.43434,-3.30411,
2026_06_26_17_07_50.286,3.861,30.5,0,0.759,0,0,0,0, ,0,0,0,0,0, ,630.8,-744.3,213.6,1.9,2.8,-4,25,627.27,-750.265,196.25,2.15631,2.41396,-3.33433,
2026_06_26_17_07_50.312,3.861,30.4,0,0.761,0,0,0,0, ,0,0,0,0,0, ,629.6,-744.2,215.5,2.4,3.3,-4.2,25,627.449,-749.899,197.365,2.15593,2.45272,-3.38098,
2026_06_26_17_07_50.326,3.861,30.5,0,0.762,0,0,0,0, ,0,0,0,0,0, ,630.8,-740.8,217.2,3.5,4.1,-4.5,25,627.617,-749.448,198.522,2.20431,2.52873,-3.44003,
2026_06_26_17_07_50.347,3.861,30.5,0,0.76,0,0,0,0, ,0,0,0,0,0, ,629.8,-742.4,226.6,5,4.3,-4.6,25,627.78,-748.97,199.946,2.32897,2.63057,-3.50767,
2026_06_26_17_07_50.366,3.861,30.4,0,0.76,0,0,0,0, ,0,0,0,0,0, ,629.6,-738.2,236.6,4.1,3.8,-4.8,25,627.897,-748.441,201.875,2.46432,2.71707,-3.58033,
2026_06_26_17_07_50.386,3.861,30.4,0,0.762,0,0,0,0, ,0,0,0,0,0, ,630.8,-732.5,237,3,2.7,-4.5,25,628.037,-747.644,204.003,2.53048,2.74954,-3.64551,
2026_06_26_17_07_50.406,3.861,30.5,0,0.758,0,0,0,0, ,0,0,0,0,0, ,631.3,-734.8,238.7,2.3,1.7,-4.1,25,628.221,-746.791,206.066,2.53776,2.71605,-3.6854,
2026_06_26_17_07_50.425,3.861,30.5,0,0.76,0,0,0,0, ,0,0,0,0,0, ,630.4,-729.6,238.2,1.8,0.8,-3.5,25,628.381,-745.902,208.039,2.50804,2.62672,-3.69238,
2026_06_26_17_07_50.444,3.861,30.3,0,0.76,0,0,0,0, ,0,0,0,0,0, ,632.8,-731.6,232.6,1.1,0.7,-2.7,25,628.577,-744.969,209.707,2.44356,2.51235,-3.65628,
2026_06_26_17_07_50.465,3.861,30.5,0,0.759,0,0,0,0, ,0,0,0,0,0, ,631.5,-738.1,230.9,2,1.1,-2.3,25,628.795,-744.353,211.05,2.38911,2.4141,-3.58582,
2026_06_26_17_07_50.485,3.861,30.4,0,0.761,0,0,0,0, ,0,0,0,0,0, ,631.5,-739.5,237,2.9,1.4,-3.1,25,628.96,-744.014,212.445,2.39282,2.34316,-3.53184,
2026_06_26_17_07_50.505,3.861,30.5,0,0.76,0,0,0,0, ,0,0,0,0,0, ,631.4,-740.6,232,2.8,2.1,-4.4,25,629.112,-743.773,213.789,2.42068,2.30702,-3.54513,
2026_06_26_17_07_50.524,3.861,30.4,0,0.759,0,0,0,0, ,0,0,0,0,0, ,632.9,-729.3,234.4,2.9,3,-4.7,25,629.297,-743.235,214.972,2.44684,2.32183,-3.60637,
2026_06_26_17_07_50.544,3.861,30.5,0,0.76,0,0,0,0, ,0,0,0,0,0, ,634.1,-727.4,235.5,5,4.3,-3.8,25,629.553,-742.328,216.19,2.53844,2.40276,-3.64559,
2026_06_26_17_07_50.564,3.861,30.3,0,0.759,0,0,0,0, ,0,0,0,0,0, ,632.8,-730.3,242.6,5.1,4.9,-3.6,25,629.79,-741.507,217.583,2.69149,2.53666,-3.64891,
2026_06_26_17_07_50.584,3.861,30.3,0,0.761,0,0,0,0, ,0,0,0,0,0, ,632.2,-726,250.4,4.6,4.9,-3.2,25,629.956,-740.693,219.345,2.82302,2.68067,-3.63374,
2026_06_26_17_07_50.604,3.861,30.5,0,0.759,0,0,0,0, ,0,0,0,0,0, ,632,-725.7,253.4,3.8,4.1,-2.6,25,630.086,-739.788,221.329,2.90693,2.79154,-3.58903,
2026_06_26_17_07_50.624,3.861,30.4,0,0.76,0,0,0,0, ,0,0,0,0,0, ,630.4,-734,254.7,4.7,3.7,-2.7,25,630.154,-739.183,223.323,2.98878,2.85908,-3.5318,
2026_06_26_17_07_50.643,3.861,30.5,0,0.759,0,0,0,0, ,0,0,0,0,0, ,631.1,-730.2,261.3,3.8,3.1,-3.7,25,630.19,-738.751,225.436,3.06563,2.89205,-3.51158,
2026_06_26_17_07_50.662,3.861,30.3,0,0.76,0,0,0,0, ,0,0,0,0,0, ,632.5,-727.2,253.9,2.1,2.9,-4.4,25,630.288,-738.139,227.396,3.05859,2.89862,-3.54439,
2026_06_26_17_07_50.683,3.861,30.5,0,0.759,0,0,0,0, ,0,0,0,0,0, ,633.5,-723.1,252.3,2.5,3.8,-4.4,25,630.454,-737.347,228.962,3.01236,2.92613,-3.59653,
2026_06_26_17_07_50.702,3.861,30.4,0,0.759,0,0,0,0, ,0,0,0,0,0, ,632.6,-719.3,263.6,3,3.8,-3.3,25,630.612,-736.363,230.729,2.99637,2.97938,-3.61198,
2026_06_26_17_07_50.727,3.861,30.4,0,0.759,0,0,0,0, ,0,0,0,0,0, ,631.4,-728.6,265.8,3.6,3,-2.9,25,630.696,-735.607,232.799,3.01487,3.00501,-3.58078,
2026_06_26_17_07_50.745,3.861,30.4,0,0.759,0,0,0,0, ,0,0,0,0,0, ,630.8,-733.7,263.1,3.6,2.9,-4.2,25,630.721,-735.335,234.727,3.05053,3.00166,-3.5789,
2026_06_26_17_07_50.762,3.861,30.5,0,0.759,0,0,0,0, ,0,0,0,0,0, ,632.4,-727.4,271.4,4.3,2.8,-5.4,25,630.775,-735.044,236.709,3.10534,2.99242,-3.65331,
2026_06_26_17_07_50.781,3.861,30.4,0,0.76,0,0,0,0, ,0,0,0,0,0, ,633.5,-722.4,266.2,3.6,2.5,-5.6,25,630.907,-734.425,238.665,3.15681,2.97155,-3.76585,
2026_06_26_17_07_50.801,3.861,30.3,0,0.76,0,0,0,0, ,0,0,0,0,0, ,635.2,-717.8,263.4,4.9,3.6,-5.4,25,631.117,-733.552,240.257,3.22343,2.97633,-3.87152,
2026_06_26_17_07_50.821,3.861,30.3,0,0.76,0,0,0,0, ,0,0,0,0,0, ,636.4,-715.5,265.3,4.9,4.5,-4.4,25,631.402,-732.522,241.726,3.3256,3.04176,-3.93419,
2026_06_26_17_07_50.840,3.861,30.4,0,0.76,0,0,0,0, ,0,0,0,0,0, ,635.4,-715.3,265.3,5.9,6.4,-3.9,25,631.676,-731.479,243.162,3.452,3.18851,-3.94735,
2026_06_26_17_07_50.861,3.861,30.3,0,0.76,0,0,0,0, ,0,0,0,0,0, ,634.2,-715.4,277.4,6.7,7.4,-3.2,25,631.867,-730.496,244.88,3.62555,3.41468,-3.92313,
2026_06_26_17_07_50.881,3.861,30.4,0,0.76,0,0,0,0, ,0,0,0,0,0, ,632.6,-714.8,290.7,5.6,6.7,-3.2,25,631.96,-729.558,247.267,3.77939,3.63621,-3.87907,
2026_06_26_17_07_50.900,3.861,30.3,0,0.76,0,0,0,0, ,0,0,0,0,0, ,629.7,-718.3,294.7,4.7,5.5,-3.6,25,631.911,-728.765,250.035,3.86291,3.78635,-3.84987,
2026_06_26_17_07_50.920,3.861,30.4,0,0.761,0,0,0,0, ,0,0,0,0,0, ,630.7,-712.8,291.8,3.1,4.7,-4.1,25,631.807,-727.96,252.669,3.86517,3.8664,-3.84988,
2026_06_26_17_07_50.940,3.861,30.5,0,0.76,0,0,0,0, ,0,0,0,0,0, ,631.9,-709.4,297.1,3,4,-3.6,25,631.776,-726.933,255.215,3.81549,3.89587,-3.84989,
2026_06_26_17_07_50.960,3.861,30.5,0,0.76,0,0,0,0, ,0,0,0,0,0, ,632,-704.9,301.1,2,2.8,-2.3,25,631.786,-725.727,257.889,3.73533,3.86565,-3.79505,
2026_06_26_17_07_50.980,3.861,30.4,0,0.76,0,0,0,0, ,0,0,0,0,0, ,631.8,-706,298.9,2.2,2.3,-1.7,25,631.793,-724.491,260.455,3.63568,3.78548,-3.68567,
2026_06_26_17_07_51.000,3.861,30.4,0,0.76,0,0,0,0, ,0,0,0,0,0, ,632.2,-712,297.1,3,1.8,-0.8,25,631.806,-723.547,262.743,3.57257,3.67972,-3.53724,
2026_06_26_17_07_51.018,3.861,30.5,0,0.761,0,0,0,0, ,0,0,0,0,0, ,631.7,-718.2,285,5,2.8,-1.3,25,631.815,-723.033,264.468,3.59861,3.59564,-3.38568,
2026_06_26_17_07_51.039,3.861,30.3,0,0.761,0,0,0,0, ,0,0,0,0,0, ,632.3,-722.9,281.3,5.4,5.9,-3.2,25,631.826,-722.881,265.606,3.6962,3.64161,-3.31647,
2026_06_26_17_07_51.059,3.861,30.3,0,0.759,0,0,0,0, ,0,0,0,0,0, ,630,-715.5,297.4,8.6,8.6,-4.5,25,631.785,-722.657,267.053,3.89752,3.8615,-3.34898,
2026_06_26_17_07_51.079,3.861,30.4,0,0.759,0,0,0,0, ,0,0,0,0,0, ,629.7,-709.5,313.3,8.4,8.5,-5.1,25,631.667,-722.038,269.387,4.17799,4.1472,-3.4374,
2026_06_26_17_07_51.097,3.861,30.5,0,0.76,0,0,0,0, ,0,0,0,0,0, ,626.8,-706.9,327,5.5,6.6,-5.5,25,631.459,-721.195,272.48,4.34691,4.35456,-3.55091,
2026_06_26_17_07_51.117,3.861,30.4,0,0.76,0,0,0,0, ,0,0,0,0,0, ,629.1,-702.8,323.8,4.1,5.1,-5.7,25,631.245,-720.199,275.705,4.37452,4.44569,-3.67577,
2026_06_26_17_07_51.138,3.861,30.4,0,0.76,0,0,0,0, ,0,0,0,0,0, ,630.7,-702.3,319.5,3.5,4.4,-5.2,25,631.163,-719.123,278.505,4.33951,4.46423,-3.78389,
2026_06_26_17_07_51.157,3.861,30.4,0,0.759,0,0,0,0, ,0,0,0,0,0, ,630.3,-700.8,321.8,4.1,4.3,-4.8,25,631.122,-718.053,281.073,4.30663,4.45727,-3.858,
2026_06_26_17_07_51.177,3.861,30.4,0,0.76,0,0,0,0, ,0,0,0,0,0, ,630.2,-699,330.4,3.2,3.7,-4.8,25,631.069,-716.946,283.817,4.26662,4.42941,-3.9154,
2026_06_26_17_07_51.197,3.861,30.3,0,0.759,0,0,0,0, ,0,0,0,0,0, ,631.5,-701.7,328.1,2,2.7,-4.7,25,631.056,-715.935,286.586,4.16506,4.35449,-3.96626,
2026_06_26_17_07_51.217,3.861,30.4,0,0.761,0,0,0,0, ,0,0,0,0,0, ,630.7,-700.6,330,1.9,1.9,-5,25,631.059,-715.034,289.173,4.03008,4.2293,-4.02011,
2026_06_26_17_07_51.237,3.861,30.4,0,0.759,0,0,0,0, ,0,0,0,0,0, ,631.1,-699.9,331.5,3.7,1.2,-4.9,25,631.049,-714.133,291.707,3.95512,4.06603,-4.07678,
2026_06_26_17_07_51.257,3.861,30.4,0,0.76,0,0,0,0, ,0,0,0,0,0, ,632.3,-695.4,324.5,2.7,1,-5,25,631.089,-713.129,293.918,3.90911,3.88528,-4.12999,
2026_06_26_17_07_51.276,3.861,30.4,0,0.759,0,0,0,0, ,0,0,0,0,0, ,631.1,-700.6,329.3,1.3,1.4,-5.4,25,631.126,-712.207,295.928,3.79277,3.72165,-4.19519,
2026_06_26_17_07_51.296,3.861,30.4,0,0.76,0,0,0,0, ,0,0,0,0,0, ,632.8,-701.5,330.4,2,1.4,-6.3,25,631.176,-711.527,297.995,3.66219,3.58017,-4.29603,
2026_06_26_17_07_51.315,3.861,30.4,0,0.76,0,0,0,0, ,0,0,0,0,0, ,635.1,-697.9,328.8,2.9,1.5,-7,25,631.345,-710.806,299.921,3.58833,3.45037,-4.43948,
2026_06_26_17_07_51.335,3.861,30.4,0,0.762,0,0,0,0, ,0,0,0,0,0, ,634.7,-685.1,335,2.9,2,-6.9,25,631.562,-709.63,301.87,3.54638,3.34675,-4.59246,
2026_06_26_17_07_51.356,3.861,30.4,0,0.76,0,0,0,0, ,0,0,0,0,0, ,638.1,-683.7,329.8,1.6,2.6,-5.3,25,631.857,-708.092,303.73,3.46738,3.28296,-4.68433,
2026_06_26_17_07_51.375,3.861,30.4,0,0.762,0,0,0,0, ,0,0,0,0,0, ,636.4,-695,331.7,1.7,3.5,-4.9,25,632.185,-706.95,305.377,3.35664,3.26877,-4.70966,
2026_06_26_17_07_51.399,3.861,30.5,0,0.759,0,0,0,0, ,0,0,0,0,0, ,637.9,-693.8,330.8,2.9,4.4,-5.5,25,632.488,-706.185,306.954,3.29225,3.31028,-4.73954,
2026_06_26_17_07_51.418,3.861,30.4,0,0.76,0,0,0,0, ,0,0,0,0,0, ,637.5,-687.5,335.5,4.9,5.4,-5.4,25,632.805,-705.239,308.55,3.32928,3.40715,-4.78283,
2026_06_26_17_07_51.434,3.861,30.4,0,0.761,0,0,0,0, ,0,0,0,0,0, ,637.5,-676.5,346.6,5.2,5.4,-4.3,25,633.091,-703.823,310.53,3.43414,3.52859,-4.78692,
2026_06_26_17_07_51.454,3.861,30.4,0,0.761,0,0,0,0, ,0,0,0,0,0, ,636.7,-685.5,344.8,4.7,5.4,-3.8,25,633.336,-702.432,312.674,3.52651,3.64263,-4.74202,
2026_06_26_17_07_51.474,3.861,30.3,0,0.76,0,0,0,0, ,0,0,0,0,0, ,635.2,-690,346.9,5.4,6.1,-4.7,25,633.495,-701.537,314.695,3.61935,3.77105,-4.71204,
2026_06_26_17_07_51.494,3.861,30.4,0,0.761,0,0,0,0, ,0,0,0,0,0, ,637,-685.1,347.2,5.7,7,-5.5,25,633.654,-700.685,316.667,3.737,3.94039,-4.73568,
2026_06_26_17_07_51.514,3.861,30.4,0,0.76,0,0,0,0, ,0,0,0,0,0, ,634,-676.8,364.8,6.6,7,-5.4,25,633.766,-699.482,319.064,3.88404,4.12684,-4.77921,
2026_06_26_17_07_51.533,3.861,30.4,0,0.759,0,0,0,0, ,0,0,0,0,0, ,631.3,-669.4,383.9,5.6,4.3,-4.2,25,633.698,-697.875,322.433,4.01908,4.21965,-4.78047,
2026_06_26_17_07_51.553,3.861,30.4,0,0.76,0,0,0,0, ,0,0,0,0,0, ,632.8,-679,379.6,2,0,-3.7,25,633.598,-696.432,326.047,4.00573,4.09353,-4.72987,
2026_06_26_17_07_51.573,3.861,30.4,0,0.761,0,0,0,0, ,0,0,0,0,0, ,636.5,-681.8,356.4,0.4,-0.5,-4.9,25,633.662,-695.455,328.604,3.83475,3.82885,-4.70367,
2026_06_26_17_07_51.592,3.861,30.4,0,0.759,0,0,0,0, ,0,0,0,0,0, ,638.6,-678.4,344.1,0,1.1,-5.5,25,633.899,-694.519,329.923,3.61326,3.61381,-4.73392,
2026_06_26_17_07_51.612,3.861,30.4,0,0.76,0,0,0,0, ,0,0,0,0,0, ,639.1,-671.7,347.9,2.5,4.1,-5,25,634.201,-693.333,330.903,3.46925,3.55203,-4.76537,
2026_06_26_17_07_51.632,3.861,30.5,0,0.76,0,0,0,0, ,0,0,0,0,0, ,638.3,-671.8,355.2,3.7,5.1,-4.7,25,634.475,-692.018,332.161,3.44675,3.61589,-4.77052,
2026_06_26_17_07_51.652,3.861,30.5,0,0.76,0,0,0,0, ,0,0,0,0,0, ,637.8,-670.4,364,4.6,6,-4,25,634.693,-690.743,333.833,3.4896,3.73375,-4.7449,
2026_06_26_17_07_51.671,3.861,30.4,0,0.759,0,0,0,0, ,0,0,0,0,0, ,636.3,-672.2,372.6,4.6,5.8,-3.8,25,634.836,-689.558,335.933,3.55727,3.86576,-4.69341,
2026_06_26_17_07_51.691,3.861,30.4,0,0.76,0,0,0,0, ,0,0,0,0,0, ,636.1,-675.4,370.2,5.1,5.8,-3.9,25,634.919,-688.598,338.094,3.63604,3.98363,-4.64202,
2026_06_26_17_07_51.711,3.861,30.4,0,0.761,0,0,0,0, ,0,0,0,0,0, ,635.6,-671.8,384,6.3,5.7,-4.8,25,634.976,-687.684,340.471,3.76181,4.09126,-4.62422,
2026_06_26_17_07_51.731,3.861,30.4,0,0.76,0,0,0,0, ,0,0,0,0,0, ,632.6,-660.2,407.1,3.6,2.4,-4.6,25,634.923,-686.363,343.828,3.83422,4.08875,-4.62884,
2026_06_26_17_07_51.751,3.861,30.4,0,0.76,0,0,0,0, ,0,0,0,0,0, ,635.6,-662.1,386.9,-0.3,-0.3,-3.7,25,634.873,-684.826,347.068,3.70112,3.90358,-4.59966,
2026_06_26_17_07_51.770,3.861,30.3,0,0.759,0,0,0,0, ,0,0,0,0,0, ,636.4,-665.5,375.4,-1.3,-0.7,-3,25,634.941,-683.545,349.145,3.42683,3.63523,-4.52351,
2026_06_26_17_07_51.791,3.861,30.5,0,0.76,0,0,0,0, ,0,0,0,0,0, ,637.4,-671,369.7,0.1,0.4,-3,25,635.061,-682.613,350.571,3.18145,3.40457,-4.43067,
2026_06_26_17_07_51.811,3.861,30.5,0,0.761,0,0,0,0, ,0,0,0,0,0, ,637.3,-673.9,370.4,2.8,1.8,-3.5,25,635.2,-681.994,351.758,3.07594,3.26414,-4.35872,
2026_06_26_17_07_51.830,3.861,30.5,0,0.76,0,0,0,0, ,0,0,0,0,0, ,636.1,-664.9,385.1,3.8,2,-3.9,25,635.292,-681.226,353.342,3.08959,3.18101,-4.31858,
2026_06_26_17_07_51.850,3.861,30.4,0,0.759,0,0,0,0, ,0,0,0,0,0, ,636.8,-664.5,386.4,2.4,1.4,-3.7,25,635.362,-680.219,355.317,3.09022,3.09076,-4.28698,
2026_06_26_17_07_51.869,3.861,30.4,0,0.76,0,0,0,0, ,0,0,0,0,0, ,639,-667.6,372.4,2.1,2.2,-3.8,25,635.517,-679.356,356.784,3.03902,3.0121,-4.25426,
2026_06_26_17_07_51.890,3.861,30.4,0,0.759,0,0,0,0, ,0,0,0,0,0, ,639.4,-670.4,364,3.6,5.2,-4.6,25,635.741,-678.725,357.48,3.02751,3.05402,-4.25095,
2026_06_26_17_07_51.909,3.861,30.4,0,0.759,0,0,0,0, ,0,0,0,0,0, ,639.5,-664,377.5,5.7,8.5,-5.1,25,635.967,-678.022,358.289,3.12638,3.28534,-4.28746,
2026_06_26_17_07_51.929,3.861,30.4,0,0.761,0,0,0,0, ,0,0,0,0,0, ,635.3,-652.2,401.3,7.3,8.5,-4.2,25,636.055,-676.808,360.184,3.33196,3.60311,-4.30955,
2026_06_26_17_07_51.948,3.861,30.3,0,0.761,0,0,0,0, ,0,0,0,0,0, ,633.3,-657.3,409.1,5.8,6.1,-3.4,25,635.948,-675.464,362.928,3.52806,3.82839,-4.2785,
2026_06_26_17_07_51.968,3.861,30.4,0,0.76,0,0,0,0, ,0,0,0,0,0, ,634.5,-660.1,400.7,4,5.1,-3.8,25,635.823,-674.443,365.485,3.61166,3.93635,-4.23715,
2026_06_26_17_07_51.988,3.861,30.4,0,0.76,0,0,0,0, ,0,0,0,0,0, ,633.4,-659.1,400.6,4,5.3,-4.7,25,635.709,-673.538,367.628,3.63532,4.01335,-4.23794,
2026_06_26_17_07_52.008,3.861,30.4,0,0.759,0,0,0,0, ,0,0,0,0,0, ,632,-656.2,404.7,3.1,5.2,-4.9,25,635.525,-672.57,369.762,3.63012,4.08871,-4.27219,
2026_06_26_17_07_52.028,3.861,30.4,0,0.76,0,0,0,0, ,0,0,0,0,0, ,634.1,-653.5,410.2,3.3,5.3,-5,25,635.375,-671.49,372.059,3.60391,4.15947,-4.31349,
2026_06_26_17_07_52.048,3.861,30.5,0,0.76,0,0,0,0, ,0,0,0,0,0, ,635.2,-659.9,400.6,3.3,5.1,-5.4,25,635.33,-670.589,374.091,3.58539,4.22288,-4.36751,
2026_06_26_17_07_52.067,3.861,30.4,0,0.759,0,0,0,0, ,0,0,0,0,0, ,633.6,-657.7,404.4,6.1,6.8,-6.3,25,635.274,-669.87,375.822,3.65331,4.32813,-4.45785,
2026_06_26_17_07_52.088,3.861,30.4,0,0.761,0,0,0,0, ,0,0,0,0,0, ,633.3,-645.9,417.2,7.7,7.1,-6.6,25,635.163,-668.769,377.953,3.85116,4.4879,-4.57925,
2026_06_26_17_07_52.107,3.861,30.4,0,0.759,0,0,0,0, ,0,0,0,0,0, ,633.5,-639.1,427.7,6.8,6.2,-5.7,25,635.055,-667.169,380.665,4.05828,4.61965,-4.67497,
2026_06_26_17_07_52.127,3.861,30.5,0,0.758,0,0,0,0, ,0,0,0,0,0, ,633.5,-640,422.8,5.3,5.4,-4.8,25,634.96,-665.486,383.382,4.17965,4.69158,-4.71001,
2026_06_26_17_07_52.146,3.861,30.5,0,0.76,0,0,0,0, ,0,0,0,0,0, ,633.7,-642.8,423.2,5.2,5.2,-4.4,25,634.877,-664.018,385.796,4.24487,4.72865,-4.7033,
2026_06_26_17_07_52.166,3.861,30.4,0,0.76,0,0,0,0, ,0,0,0,0,0, ,633.1,-643.6,428.5,5.7,5.8,-5,25,634.787,-662.749,388.237,4.31831,4.77566,-4.7031,
2026_06_26_17_07_52.186,3.861,30.5,0,0.76,0,0,0,0, ,0,0,0,0,0, ,631.3,-640.5,433.9,4.8,5.1,-5.2,25,634.63,-661.488,390.855,4.37508,4.81675,-4.72729,
2026_06_26_17_07_52.206,3.861,30.5,0,0.76,0,0,0,0, ,0,0,0,0,0, ,631.4,-634.1,436,3.2,4.4,-4.8,25,634.43,-660.014,393.542,4.35223,4.81268,-4.74391,
2026_06_26_17_07_52.226,3.861,30.5,0,0.761,0,0,0,0, ,0,0,0,0,0, ,632.9,-640.2,423.4,3.3,5.2,-4.3,25,634.291,-658.621,395.745,4.28506,4.81191,-4.73209,
2026_06_26_17_07_52.245,3.861,30.4,0,0.76,0,0,0,0, ,0,0,0,0,0, ,632,-635.1,437,4.2,6.1,-4.2,25,634.179,-657.343,397.845,4.25246,4.86298,-4.70271,
2026_06_26_17_07_52.265,3.861,30.5,0,0.759,0,0,0,0, ,0,0,0,0,0, ,627.6,-627.3,452.8,4,5.1,-3.9,25,633.912,-655.75,400.712,4.24316,4.90789,-4.66294,
2026_06_26_17_07_52.285,3.861,30.4,0,0.76,0,0,0,0, ,0,0,0,0,0, ,627.3,-629.8,451.5,2.7,4.1,-3.6,25,633.518,-654.092,403.847,4.18874,4.88913,-4.60731,
2026_06_26_17_07_52.305,3.861,30.5,0,0.76,0,0,0,0, ,0,0,0,0,0, ,630.9,-630.4,443.7,1.2,3,-3,25,633.249,-652.63,406.513,4.05231,4.80753,-4.52764,
2026_06_26_17_07_52.325,3.861,30.4,0,0.76,0,0,0,0, ,0,0,0,0,0, ,630.9,-634.7,437.5,0.9,3.5,-3.1,25,633.106,-651.407,408.59,3.86936,4.71262,-4.4376,
2026_06_26_17_07_52.345,3.861,30.5,0,0.759,0,0,0,0, ,0,0,0,0,0, ,630.8,-636.4,438.1,1.4,4.8,-3.4,25,632.968,-650.44,410.37,3.70365,4.67833,-4.36523,
2026_06_26_17_07_52.366,3.861,30.5,0,0.76,0,0,0,0, ,0,0,0,0,0, ,629,-634.8,447.5,2.5,5.2,-3.6,25,632.781,-649.536,412.346,3.59679,4.69793,-4.3125,
2026_06_26_17_07_52.384,3.861,30.5,0,0.759,0,0,0,0, ,0,0,0,0,0, ,627.5,-629.1,455.4,2.2,4.3,-3.7,25,632.505,-648.464,414.729,3.52081,4.70111,-4.27213,
2026_06_26_17_07_52.404,3.861,30.5,0,0.76,0,0,0,0, ,0,0,0,0,0, ,628,-629.2,450.3,1.4,4.3,-3.6,25,632.215,-647.287,417.052,3.41595,4.67666,-4.23422,
2026_06_26_17_07_52.424,3.861,30.5,0,0.761,0,0,0,0, ,0,0,0,0,0, ,629.3,-634.2,448.2,1.8,5,-3.8,25,631.998,-646.337,419.014,3.30529,4.67504,-4.20167,
2026_06_26_17_07_52.444,3.861,30.5,0,0.761,0,0,0,0, ,0,0,0,0,0, ,627.6,-635.6,450.4,2.8,5.6,-4.8,25,631.782,-645.641,420.86,3.24403,4.71312,-4.20766,
2026_06_26_17_07_52.463,3.861,30.5,0,0.759,0,0,0,0, ,0,0,0,0,0, ,624.6,-632.8,463.1,3.1,5.3,-6.1,25,631.436,-644.943,423.047,3.22611,4.75803,-4.28336,
2026_06_26_17_07_52.484,3.861,30.5,0,0.759,0,0,0,0, ,0,0,0,0,0, ,625,-623.7,469.9,2.1,3.8,-7,25,631.031,-643.926,425.695,3.18796,4.74535,-4.42149,
2026_06_26_17_07_52.502,3.861,30.5,0,0.76,0,0,0,0, ,0,0,0,0,0, ,628,-620.4,463.8,-1.3,3,-7.1,25,630.755,-642.593,428.203,3.01807,4.66337,-4.58166,
2026_06_26_17_07_52.523,3.861,30.4,0,0.761,0,0,0,0, ,0,0,0,0,0, ,629.1,-622.6,457.5,-2,3.5,-6.9,25,630.621,-641.308,430.18,2.73361,4.57724,-4.72903,
2026_06_26_17_07_52.542,3.861,30.4,0,0.76,0,0,0,0, ,0,0,0,0,0, ,628.6,-619.9,461.5,-1.2,3.5,-6.2,25,630.513,-640.085,431.967,2.46953,4.5116,-4.84,
2026_06_26_17_07_52.562,3.861,30.5,0,0.759,0,0,0,0, ,0,0,0,0,0, ,627.6,-619.2,465.6,0.5,3.4,-5.6,25,630.366,-638.834,433.891,2.29771,4.4469,-4.90459,
2026_06_26_17_07_52.586,3.861,30.5,0,0.761,0,0,0,0, ,0,0,0,0,0, ,629.2,-615.9,467.4,-0.1,2.6,-5.1,25,630.246,-637.537,435.878,2.16988,4.35873,-4.93173,
2026_06_26_17_07_52.606,3.861,30.5,0,0.76,0,0,0,0, ,0,0,0,0,0, ,628.4,-614.1,464.8,-1,2.5,-4.7,25,630.158,-636.164,437.72,2.00414,4.24851,-4.9298,
2026_06_26_17_07_52.621,3.861,30.4,0,0.76,0,0,0,0, ,0,0,0,0,0, ,630.4,-618.2,459.5,-0.5,3.2,-4.5,25,630.112,-634.944,439.209,1.83631,4.16329,-4.9097,
2026_06_26_17_07_52.641,3.861,30.5,0,0.759,0,0,0,0, ,0,0,0,0,0, ,628.5,-619.5,460.6,1,4.2,-4.4,25,630.071,-633.963,440.479,1.73964,4.13506,-4.88169,
2026_06_26_17_07_52.661,3.861,30.5,0,0.759,0,0,0,0, ,0,0,0,0,0, ,628.5,-619.9,470.2,2.5,4.3,-4.5,25,629.976,-633.094,441.997,1.74028,4.14206,-4.85538,
2026_06_26_17_07_52.680,3.861,30.4,0,0.761,0,0,0,0, ,0,0,0,0,0, ,626.5,-615.6,474.7,2.1,3.7,-4.7,25,629.825,-632.159,443.853,1.77438,4.13341,-4.83982,
2026_06_26_17_07_52.701,3.861,30.4,0,0.759,0,0,0,0, ,0,0,0,0,0, ,627.6,-616.4,470,1.1,3.4,-5,25,629.656,-631.174,445.59,1.76376,4.09786,-4.84044,
2026_06_26_17_07_52.721,3.861,30.4,0,0.759,0,0,0,0, ,0,0,0,0,0, ,630.1,-614.9,462.6,0.8,4.3,-5.2,25,629.607,-630.228,446.852,1.71417,4.08275,-4.85626,
2026_06_26_17_07_52.740,3.861,30.5,0,0.76,0,0,0,0, ,0,0,0,0,0, ,626.9,-614.9,475.2,2.5,5.2,-5.3,25,629.539,-629.294,448.195,1.71026,4.12341,-4.88025,
2026_06_26_17_07_52.760,3.861,30.4,0,0.761,0,0,0,0, ,0,0,0,0,0, ,624.5,-606.4,489.8,2.8,3.8,-5,25,629.305,-628.158,450.286,1.76752,4.14636,-4.89669,
2026_06_26_17_07_52.779,3.861,30.5,0,0.759,0,0,0,0, ,0,0,0,0,0, ,627.5,-605.5,479.7,2.2,2.3,-4,25,629.104,-626.805,452.386,1.81216,4.07955,-4.87252,
2026_06_26_17_07_52.799,3.861,30.4,0,0.759,0,0,0,0, ,0,0,0,0,0, ,629.8,-610.3,467.7,2.2,3.1,-3.6,25,629.076,-625.653,453.685,1.83579,3.99549,-4.80716,
2026_06_26_17_07_52.819,3.861,30.5,0,0.76,0,0,0,0, ,0,0,0,0,0, ,626.7,-613.7,474.8,3.4,4.7,-4.3,25,629.026,-624.821,454.755,1.89455,3.98967,-4.75493,
2026_06_26_17_07_52.846,3.861,30.4,0,0.759,0,0,0,0, ,0,0,0,0,0, ,625.3,-610.8,482.7,4.3,5.2,-5.1,25,628.841,-624.055,456.217,2.01371,4.04819,-4.75158,
2026_06_26_17_07_52.859,3.861,30.5,0,0.76,0,0,0,0, ,0,0,0,0,0, ,624,-607.1,495.2,3.5,4.3,-5.5,25,628.586,-623.134,458.212,2.12866,4.09095,-4.785,
2026_06_26_17_07_52.879,3.861,30.5,0,0.759,0,0,0,0, ,0,0,0,0,0, ,624.7,-600.5,498.1,2.4,2.4,-5.4,25,628.328,-621.956,460.554,2.17871,4.0458,-4.82552,
2026_06_26_17_07_52.898,3.861,30.5,0,0.76,0,0,0,0, ,0,0,0,0,0, ,627.6,-598.7,490.2,1.5,1.3,-4.8,25,628.195,-620.594,462.601,2.16477,3.912,-4.84225,
2026_06_26_17_07_52.919,3.861,30.5,0,0.76,0,0,0,0, ,0,0,0,0,0, ,628.6,-604.6,476.1,2.2,2.6,-4.5,25,628.189,-619.44,463.854,2.14559,3.79244,-4.83053,
2026_06_26_17_07_52.938,3.861,30.5,0,0.76,0,0,0,0, ,0,0,0,0,0, ,627.9,-604.6,479,2.9,3.5,-4.7,25,628.193,-618.535,464.688,2.17023,3.74719,-4.81648,
2026_06_26_17_07_52.958,3.861,30.5,0,0.759,0,0,0,0, ,0,0,0,0,0, ,626.3,-602.5,494.9,4.2,4.3,-5,25,628.126,-617.622,466.045,2.25431,3.75651,-4.81853,
2026_06_26_17_07_52.977,3.861,30.5,0,0.76,0,0,0,0, ,0,0,0,0,0, ,624.6,-593.8,508.6,3.7,2.6,-5,25,627.963,-616.435,468.221,2.35764,3.73783,-4.82959,
2026_06_26_17_07_52.998,3.861,30.5,0,0.76,0,0,0,0, ,0,0,0,0,0, ,625.4,-595.5,501.7,2,1.2,-4.6,25,627.783,-615.108,470.471,2.38765,3.62584,-4.82778,
2026_06_26_17_07_53.017,3.861,30.4,0,0.759,0,0,0,0, ,0,0,0,0,0, ,627.6,-585.2,498,0.4,0.9,-3.8,25,627.705,-613.599,472.261,2.31527,3.46887,-4.78953,
2026_06_26_17_07_53.038,3.861,30.5,0,0.759,0,0,0,0, ,0,0,0,0,0, ,629.1,-596,486.6,0.8,2,-3.2,25,627.744,-612.198,473.482,2.21075,3.34585,-4.71095,
2026_06_26_17_07_53.057,3.861,30.5,0,0.76,0,0,0,0, ,0,0,0,0,0, ,627.1,-594.3,494.2,2.1,3.2,-3.4,25,627.766,-611.159,474.513,2.16439,3.3004,-4.62497,
2026_06_26_17_07_53.078,3.861,30.5,0,0.76,0,0,0,0, ,0,0,0,0,0, ,625.9,-590.4,507.6,1.7,3.2,-3.3,25,627.689,-610.013,476.121,2.14828,3.29428,-4.54727,
2026_06_26_17_07_53.097,3.861,30.5,0,0.76,0,0,0,0, ,0,0,0,0,0, ,624.7,-594.6,503.9,-1.6,2.1,-3.1,25,627.543,-608.946,477.927,2.02042,3.25502,-4.46517,
2026_06_26_17_07_53.119,3.861,30.5,0,0.759,0,0,0,0, ,0,0,0,0,0, ,625,-594.3,499.5,-1.6,2.1,-3.4,25,627.379,-608.062,479.375,1.7998,3.18463,-4.39112,
2026_06_26_17_07_53.135,3.861,30.5,0,0.759,0,0,0,0, ,0,0,0,0,0, ,623.9,-593.8,501.2,-0.4,2.5,-3.3,25,627.2,-607.208,480.654,1.62918,3.13073,-4.32768,
2026_06_26_17_07_53.158,3.861,30.5,0,0.76,0,0,0,0, ,0,0,0,0,0, ,626.3,-593.7,501.3,0.9,2.8,-3.4,25,627.072,-606.388,481.909,1.54514,3.10143,-4.2681,
2026_06_26_17_07_53.175,3.861,30.5,0,0.76,0,0,0,0, ,0,0,0,0,0, ,625.2,-592.7,504.3,0,2.8,-3.8,25,626.992,-605.585,483.182,1.4784,3.08306,-4.22739,
2026_06_26_17_07_53.197,3.861,30.5,0,0.76,0,0,0,0, ,0,0,0,0,0, ,624.5,-590.2,503.6,0.1,3.2,-3.6,25,626.861,-604.723,484.447,1.39136,3.078,-4.19525,
2026_06_26_17_07_53.215,3.861,30.4,0,0.76,0,0,0,0, ,0,0,0,0,0, ,624.1,-587.7,508.4,0.4,3.2,-3.3,25,626.705,-603.762,485.761,1.32181,3.08544,-4.14984,
2026_06_26_17_07_53.238,3.861,30.5,0,0.76,0,0,0,0, ,0,0,0,0,0, ,623.7,-594.2,507.2,-0.7,2.9,-3.3,25,626.534,-602.981,487.104,1.23212,3.08328,-4.09805,
2026_06_26_17_07_53.254,3.861,30.5,0,0.76,0,0,0,0, ,0,0,0,0,0, ,624.1,-591.9,501.4,0.2,3.5,-3.9,25,626.374,-602.376,488.152,1.1418,3.09039,-4.0677,
2026_06_26_17_07_53.275,3.861,30.5,0,0.76,0,0,0,0, ,0,0,0,0,0, ,624.3,-590,501.3,1,5.1,-4,25,626.241,-601.68,488.956,1.10879,3.1641,-4.06053,
2026_06_26_17_07_53.294,3.861,30.5,0,0.759,0,0,0,0, ,0,0,0,0,0, ,619.5,-589.4,515,1.4,5.4,-3.9,25,625.977,-600.95,490.126,1.11435,3.29121,-4.05379,
2026_06_26_17_07_53.315,3.861,30.7,0,0.76,0,0,0,0, ,0,0,0,0,0, ,618.7,-589.2,520.3,2,4.1,-4.1,25,625.558,-600.24,491.803,1.15003,3.3801,-4.05052,
2026_06_26_17_07_53.334,3.861,30.5,0,0.762,0,0,0,0, ,0,0,0,0,0, ,618.5,-589.7,520,2.3,2.5,-4.3,25,625.134,-599.582,493.53,1.21097,3.37522,-4.05963,
2026_06_26_17_07_53.355,3.861,30.7,0,0.76,0,0,0,0, ,0,0,0,0,0, ,620.8,-588,519.1,2.1,2.1,-5,25,624.8,-598.928,495.116,1.27124,3.3097,-4.0956,
2026_06_26_17_07_53.373,3.861,30.7,0,0.76,0,0,0,0, ,0,0,0,0,0, ,620.1,-588.1,519.7,1.5,1.9,-5.5,25,624.534,-598.266,496.596,1.30346,3.22989,-4.16595,
2026_06_26_17_07_53.395,3.861,30.4,0,0.759,0,0,0,0, ,0,0,0,0,0, ,620.1,-586.1,517.5,3,2,-5.6,25,624.264,-597.585,497.936,1.36114,3.1519,-4.25029,
2026_06_26_17_07_53.413,3.861,30.5,0,0.761,0,0,0,0, ,0,0,0,0,0, ,621.2,-581.4,519.5,1.8,1.9,-6,25,624.044,-596.742,499.19,1.42445,3.07866,-4.34472,
2026_06_26_17_07_53.435,3.861,30.4,0,0.759,0,0,0,0, ,0,0,0,0,0, ,622.6,-573.7,521.9,1.3,2,-5.7,25,623.913,-595.573,500.5,1.4321,3.00988,-4.43645,
2026_06_26_17_07_53.452,3.861,30.5,0,0.76,0,0,0,0, ,0,0,0,0,0, ,623.2,-575.4,513,0.3,2.5,-4.7,25,623.852,-594.291,501.533,1.39358,2.96357,-4.48298,
2026_06_26_17_07_53.474,3.861,30.5,0,0.76,0,0,0,0, ,0,0,0,0,0, ,622.5,-580.2,517.3,2.7,4.1,-4.4,25,623.791,-593.287,502.363,1.40006,2.98408,-4.48706,
2026_06_26_17_07_53.492,3.861,30.5,0,0.761,0,0,0,0, ,0,0,0,0,0, ,619.1,-576.5,531.1,4.1,3.9,-4.3,25,623.608,-592.376,503.694,1.52193,3.04598,-4.47871,
2026_06_26_17_07_53.513,3.861,30.5,0,0.761,0,0,0,0, ,0,0,0,0,0, ,618.5,-573.2,536,2.6,2.5,-4.2,25,623.315,-591.308,505.513,1.63333,3.05537,-4.46477,
2026_06_26_17_07_53.532,3.861,30.5,0,0.759,0,0,0,0, ,0,0,0,0,0, ,619.8,-575.9,529.9,1.8,1.9,-4.1,25,623.062,-590.287,507.185,1.66786,3.00324,-4.44559,
2026_06_26_17_07_53.554,3.861,30.5,0,0.76,0,0,0,0, ,0,0,0,0,0, ,619.2,-575.1,530.8,1.4,2,-4.5,25,622.844,-589.386,508.597,1.66373,2.93906,-4.43672,
2026_06_26_17_07_53.571,3.861,30.5,0,0.76,0,0,0,0, ,0,0,0,0,0, ,621.2,-577,532.4,0.6,2,-4.9,25,622.683,-588.573,509.998,1.62328,2.88184,-4.45276,
2026_06_26_17_07_53.593,3.861,30.5,0,0.759,0,0,0,0, ,0,0,0,0,0, ,620.4,-570.1,534.3,0.7,1.9,-4.9,25,622.569,-587.658,511.421,1.56397,2.82505,-4.48002,
2026_06_26_17_07_53.610,3.861,30.5,0,0.76,0,0,0,0, ,0,0,0,0,0, ,620.9,-566.1,536.9,-0.5,1.1,-4.2,25,622.452,-586.466,512.895,1.47476,2.74431,-4.48428,
2026_06_26_17_07_53.632,3.861,30.5,0,0.76,0,0,0,0, ,0,0,0,0,0, ,621,-565.4,534.4,-1.1,0.8,-3.4,25,622.36,-585.204,514.281,1.33614,2.63497,-4.44258,
2026_06_26_17_07_53.650,3.861,30.5,0,0.759,0,0,0,0, ,0,0,0,0,0, ,619.9,-565,535.1,-1.7,0.5,-2.8,25,622.244,-583.985,515.529,1.16941,2.51401,-4.36077,
2026_06_26_17_07_53.677,3.861,30.5,0,0.76,0,0,0,0, ,0,0,0,0,0, ,621.5,-570.5,533.9,-1.7,0.2,-2.5,25,622.15,-582.995,516.685,0.994555,2.38214,-4.25652,
2026_06_26_17_07_53.689,3.861,30.5,0,0.76,0,0,0,0, ,0,0,0,0,0, ,621.4,-576.7,524.2,-0.5,0.9,-3.1,25,622.107,-582.423,517.438,0.866918,2.27049,-4.16776,
2026_06_26_17_07_53.711,3.861,30.5,0,0.76,0,0,0,0, ,0,0,0,0,0, ,620.3,-581.2,524.9,0.4,2.2,-4.2,25,622.03,-582.211,517.872,0.811044,2.22659,-4.13621,
2026_06_26_17_07_53.730,3.861,30.5,0,0.76,0,0,0,0, ,0,0,0,0,0, ,620.7,-574.5,538.4,2.2,2.8,-5.3,25,621.937,-581.945,518.711,0.840839,2.24325,-4.17362,
2026_06_26_17_07_53.753,3.861,30.4,0,0.76,0,0,0,0, ,0,0,0,0,0, ,618.8,-566,543.8,0.8,1.9,-5.9,25,621.804,-581.233,520.076,0.881007,2.24976,-4.26054,
2026_06_26_17_07_53.769,3.861,30.4,0,0.76,0,0,0,0, ,0,0,0,0,0, ,620.8,-563.5,537.9,0.6,1.3,-5.5,25,621.682,-580.228,521.342,0.869977,2.21016,-4.34825,
2026_06_26_17_07_53.791,3.861,30.4,0,0.759,0,0,0,0, ,0,0,0,0,0, ,621.3,-564.9,534.9,3,1.7,-4.7,25,621.643,-579.252,522.259,0.92665,2.16689,-4.39406,
2026_06_26_17_07_53.808,3.861,30.4,0,0.76,0,0,0,0, ,0,0,0,0,0, ,620.4,-566.1,543.4,3.8,1.4,-4.8,25,621.595,-578.414,523.288,1.07737,2.12929,-4.41575,
2026_06_26_17_07_53.831,3.861,30.5,0,0.76,0,0,0,0, ,0,0,0,0,0, ,620.6,-560.7,547.9,3.4,0.4,-4.7,25,621.528,-577.499,524.651,1.23109,2.05438,-4.43612,
2026_06_26_17_07_53.848,3.861,30.4,0,0.761,0,0,0,0, ,0,0,0,0,0, ,620.6,-556,544.1,1.8,-0.5,-4.2,25,621.472,-576.332,525.952,1.31451,1.92615,-4.43697,
2026_06_26_17_07_53.870,3.861,30.4,0,0.759,0,0,0,0, ,0,0,0,0,0, ,623.2,-556,539,0,-0.7,-3.4,25,621.498,-575.093,526.903,1.28925,1.77221,-4.39815,
2026_06_26_17_07_53.888,3.861,30.5,0,0.761,0,0,0,0, ,0,0,0,0,0, ,621.9,-558.4,542.6,1.1,-0.2,-2.9,25,621.562,-574.003,527.749,1.2442,1.63679,-4.32209,
2026_06_26_17_07_53.910,3.861,30.4,0,0.76,0,0,0,0, ,0,0,0,0,0, ,620.4,-556.1,548.5,0.5,-0.8,-2.5,25,621.537,-572.982,528.834,1.21713,1.50658,-4.22325,
2026_06_26_17_07_53.927,3.861,30.5,0,0.758,0,0,0,0, ,0,0,0,0,0, ,621.4,-561.4,544.3,0.5,-1.7,-2.4,25,621.498,-572.114,529.905,1.17343,1.3386,-4.11519,
2026_06_26_17_07_53.957,3.861,30.4,0,0.76,0,0,0,0, ,0,0,0,0,0, ,624.5,-561.4,537.4,0,-1.4,-2.9,25,621.586,-571.462,530.572,1.11716,1.16258,-4.0259,
2026_06_26_17_07_53.967,3.861,30.5,0,0.76,0,0,0,0, ,0,0,0,0,0, ,624.6,-560,533.4,-0.3,0,-3.4,25,621.767,-570.806,530.866,1.03994,1.04908,-3.97253,
2026_06_26_17_07_53.989,3.861,30.4,0,0.76,0,0,0,0, ,0,0,0,0,0, ,622.5,-559.9,538.9,0.2,1.3,-3.5,25,621.876,-570.144,531.188,0.973526,1.02476,-3.94069,
2026_06_26_17_07_54.006,3.861,30.4,0,0.76,0,0,0,0, ,0,0,0,0,0, ,623,-563.5,544.7,-0.2,1.4,-4.2,25,621.929,-569.63,531.834,0.914202,1.04458,-3.93516,
2026_06_26_17_07_54.029,3.861,30.4,0,0.759,0,0,0,0, ,0,0,0,0,0, ,622,-557.7,545.6,0.4,1.2,-4.7,25,621.964,-569.079,532.646,0.864586,1.06014,-3.96653,
2026_06_26_17_07_54.045,3.861,30.4,0,0.76,0,0,0,0, ,0,0,0,0,0, ,623.7,-552,542.1,0.3,1.4,-4.5,25,622.018,-568.212,533.329,0.833229,1.07476,-4.00514,
2026_06_26_17_07_54.069,3.861,30.4,0,0.76,0,0,0,0, ,0,0,0,0,0, ,624.3,-556.8,541.7,0.7,2.1,-4.1,25,622.139,-567.371,533.851,0.812923,1.11591,-4.0231,
2026_06_26_17_07_54.085,3.861,30.4,0,0.759,0,0,0,0, ,0,0,0,0,0, ,623,-558.7,541.9,1.4,2.4,-4.6,25,622.231,-566.784,534.335,0.82737,1.18502,-4.04302,
2026_06_26_17_07_54.108,3.861,30.5,0,0.759,0,0,0,0, ,0,0,0,0,0, ,623.9,-552.3,556.5,1.3,2.9,-5.2,25,622.305,-566.097,535.241,0.859217,1.27429,-4.09525,
2026_06_26_17_07_54.125,3.861,30.4,0,0.759,0,0,0,0, ,0,0,0,0,0, ,622.9,-545.2,554.9,-0.1,2,-5.2,25,622.372,-565.04,536.488,0.843421,1.34593,-4.16257,
2026_06_26_17_07_54.148,3.861,30.5,0,0.76,0,0,0,0, ,0,0,0,0,0, ,623.5,-547.9,546.1,-1.5,2.2,-4.6,25,622.422,-563.913,537.342,0.743275,1.39188,-4.2075,
2026_06_26_17_07_54.164,3.861,30.5,0,0.759,0,0,0,0, ,0,0,0,0,0, ,623.9,-548.3,549.5,-0.7,2.6,-4.1,25,622.5,-562.949,537.979,0.630951,1.45332,-4.21619,
2026_06_26_17_07_54.188,3.861,30.5,0,0.76,0,0,0,0, ,0,0,0,0,0, ,622.3,-548.9,558.9,-0.1,2.1,-3.5,25,622.537,-562.075,538.968,0.568127,1.50796,-4.19083,
2026_06_26_17_07_54.204,3.861,30.5,0,0.759,0,0,0,0, ,0,0,0,0,0, ,620.9,-553.8,555.7,0.4,1,-3.5,25,622.48,-561.421,540.085,0.542648,1.51052,-4.14873,
2026_06_26_17_07_54.227,3.861,30.4,0,0.76,0,0,0,0, ,0,0,0,0,0, ,623.6,-558.7,543.8,0.8,1.7,-4.7,25,622.466,-561.106,540.674,0.546143,1.50074,-4.14576,
2026_06_26_17_07_54.244,3.861,30.5,0,0.76,0,0,0,0, ,0,0,0,0,0, ,622.6,-552.9,549.5,0.6,2.2,-5.3,25,622.504,-560.783,541.038,0.555518,1.52812,-4.19781,
2026_06_26_17_07_54.267,3.861,30.5,0,0.76,0,0,0,0, ,0,0,0,0,0, ,622.3,-552.1,555.1,-1.4,2.4,-6.6,25,622.501,-560.278,541.724,0.497291,1.57515,-4.30459,
2026_06_26_17_07_54.283,3.861,30.5,0,0.76,0,0,0,0, ,0,0,0,0,0, ,621.9,-543.4,558.9,-2.7,1.8,-7,25,622.476,-559.515,542.655,0.342066,1.60714,-4.45665,
2026_06_26_17_07_54.307,3.861,30.4,0,0.759,0,0,0,0, ,0,0,0,0,0, ,624,-540.5,557.7,-3,1,-6.1,25,622.505,-558.444,543.608,0.147549,1.59451,-4.58422,
2026_06_26_17_07_54.323,3.861,30.5,0,0.76,0,0,0,0, ,0,0,0,0,0, ,624.7,-542.7,551.7,-3.1,0.9,-5.2,25,622.618,-557.418,544.284,-0.0473013,1.55524,-4.64916,
2026_06_26_17_07_54.346,3.861,30.4,0,0.76,0,0,0,0, ,0,0,0,0,0, ,625.9,-547.3,549.9,-2.2,1.4,-4.8,25,622.781,-556.661,544.681,-0.205903,1.53054,-4.67054,
2026_06_26_17_07_54.362,3.861,30.5,0,0.76,0,0,0,0, ,0,0,0,0,0, ,623.9,-550.2,550,-1.2,2.6,-5.4,25,622.91,-556.179,545.002,-0.29695,1.55915,-4.69671,
2026_06_26_17_07_54.386,3.861,30.5,0,0.76,0,0,0,0, ,0,0,0,0,0, ,622,-552.2,561.6,-0.6,2.3,-6.7,25,622.913,-555.876,545.66,-0.333698,1.61344,-4.77918,
2026_06_26_17_07_54.401,3.861,30.5,0,0.759,0,0,0,0, ,0,0,0,0,0, ,623.9,-544.3,563.3,-2,1,-7.9,25,622.915,-555.411,546.683,-0.392582,1.61567,-4.93279,
2026_06_26_17_07_54.425,3.861,30.5,0,0.759,0,0,0,0, ,0,0,0,0,0, ,626.8,-537.2,553.3,-1.5,0.4,-7.6,25,623.063,-554.518,547.391,-0.4753,1.55987,-5.10446,
2026_06_26_17_07_54.441,3.861,30.5,0,0.76,0,0,0,0, ,0,0,0,0,0, ,627,-533.8,552.9,-0.5,0.8,-6.2,25,623.297,-553.359,547.739,-0.507274,1.50138,-5.21388,
2026_06_26_17_07_54.466,3.861,30.5,0,0.76,0,0,0,0, ,0,0,0,0,0, ,627.9,-539.3,552.4,1.1,1.6,-5.5,25,623.55,-552.334,548.038,-0.45808,1.48301,-5.25264,
2026_06_26_17_07_54.480,3.861,30.5,0,0.76,0,0,0,0, ,0,0,0,0,0, ,626.3,-541.2,557.7,2.1,2,-5.5,25,623.767,-551.598,548.466,-0.332666,1.50233,-5.26772,
2026_06_26_17_07_54.505,3.861,30.5,0,0.759,0,0,0,0, ,0,0,0,0,0, ,627.9,-544.9,550.2,1.6,2.7,-6.3,25,623.97,-551.077,548.8,-0.19966,1.55398,-5.30625,
2026_06_26_17_07_54.520,3.861,30.5,0,0.76,0,0,0,0, ,0,0,0,0,0, ,627.4,-541.3,557.7,0.1,3.8,-7.8,25,624.194,-550.591,549.114,-0.135696,1.65733,-5.41251,
2026_06_26_17_07_54.545,3.861,30.5,0,0.76,0,0,0,0, ,0,0,0,0,0, ,626,-540.5,557.4,-0.3,4.2,-9,25,624.347,-550,549.628,-0.133521,1.80009,-5.59456,
2026_06_26_17_07_54.561,3.861,30.4,0,0.76,0,0,0,0, ,0,0,0,0,0, ,626.7,-531.2,570.5,0.4,4.2,-9.1,25,624.469,-549.138,550.501,-0.122338,1.94633,-5.80512,
2026_06_26_17_07_54.588,3.861,30.5,0,0.76,0,0,0,0, ,0,0,0,0,0, ,626.2,-525.2,575.4,-0.5,2.8,-8.9,25,624.589,-547.862,551.869,-0.11793,2.04101,-5.99981,
2026_06_26_17_07_54.600,3.861,30.5,0,0.76,0,0,0,0, ,0,0,0,0,0, ,629.2,-524.1,566.1,-1,1.7,-8.2,25,624.779,-546.448,553.019,-0.156446,2.05375,-6.15521,
2026_06_26_17_07_54.629,3.861,30.5,0,0.759,0,0,0,0, ,0,0,0,0,0, ,629.5,-525.6,559.9,0.6,2.1,-7.1,25,625.058,-545.132,553.627,-0.159101,2.04438,-6.2463,
2026_06_26_17_07_54.640,3.861,30.5,0,0.76,0,0,0,0, ,0,0,0,0,0, ,631.8,-527.8,556.5,3.5,3.6,-6.4,25,625.398,-544.008,553.906,-0.0244835,2.09347,-6.277,
2026_06_26_17_07_54.665,3.861,30.7,0,0.76,0,0,0,0, ,0,0,0,0,0, ,628.5,-527.8,574.3,4.3,4.2,-6.6,25,625.688,-543.021,554.606,0.214665,2.20355,-6.29058,
2026_06_26_17_07_54.679,3.861,30.5,0,0.761,0,0,0,0, ,0,0,0,0,0, ,627.1,-524.6,579.8,1.9,2.7,-7.8,25,625.817,-541.996,555.974,0.39049,2.27951,-6.346,
2026_06_26_17_07_54.705,3.861,30.5,0,0.76,0,0,0,0, ,0,0,0,0,0, ,630.1,-517.2,572.1,0,2.1,-7.9,25,625.986,-540.71,557.191,0.424585,2.28685,-6.43765,
2026_06_26_17_07_54.719,3.861,30.5,0,0.759,0,0,0,0, ,0,0,0,0,0, ,631.3,-512,565.4,0.5,2.9,-6.7,25,626.273,-539.119,557.896,0.413946,2.29984,-6.4902,
2026_06_26_17_07_54.744,3.861,30.5,0,0.761,0,0,0,0, ,0,0,0,0,0, ,630,-511.8,574,2.7,3.8,-5.5,25,626.54,-537.46,558.615,0.486221,2.36384,-6.46642,
2026_06_26_17_07_54.758,3.861,30.5,0,0.76,0,0,0,0, ,0,0,0,0,0, ,628.9,-518.6,572.1,3.1,3.9,-5,25,626.717,-536.104,559.495,0.633311,2.4544,-6.3923,
2026_06_26_17_07_54.784,3.861,30.5,0,0.759,0,0,0,0, ,0,0,0,0,0, ,627.5,-523.8,582.1,4.5,3.6,-5.7,25,626.808,-535.196,560.568,0.826281,2.53335,-6.32878,
2026_06_26_17_07_54.797,3.861,30.5,0,0.761,0,0,0,0, ,0,0,0,0,0, ,627.4,-517.8,590.3,3.4,2.3,-7.6,25,626.847,-534.319,562.129,1.01663,2.55874,-6.34836,
2026_06_26_17_07_54.824,3.861,30.5,0,0.759,0,0,0,0, ,0,0,0,0,0, ,628.2,-507.9,585.3,1.2,1.1,-8.2,25,626.905,-533.01,563.694,1.09484,2.50641,-6.44291,
2026_06_26_17_07_54.837,3.861,30.7,0,0.761,0,0,0,0, ,0,0,0,0,0, ,632.9,-504.6,574.3,2,1.4,-7.1,25,627.127,-531.38,564.675,1.12562,2.42985,-6.51647,
2026_06_26_17_07_54.863,3.861,30.5,0,0.761,0,0,0,0, ,0,0,0,0,0, ,632,-502.1,578.4,2.5,2.3,-5.9,25,627.452,-529.672,565.387,1.19414,2.39451,-6.51546,
2026_06_26_17_07_54.877,3.861,30.4,0,0.76,0,0,0,0, ,0,0,0,0,0, ,631.9,-507.4,579.4,4.5,3.4,-5.6,25,627.726,-528.153,566.21,1.33465,2.42227,-6.46882,
2026_06_26_17_07_54.903,3.861,30.5,0,0.76,0,0,0,0, ,0,0,0,0,0, ,630.1,-507.3,585.5,5.3,3.5,-5.8,25,627.925,-526.885,567.2,1.55191,2.4849,-6.42197,
2026_06_26_17_07_54.917,3.861,30.5,0,0.759,0,0,0,0, ,0,0,0,0,0, ,630.4,-509.1,581.9,6.4,3.8,-6.2,25,628.067,-525.747,568.205,1.81383,2.55589,-6.39625,
2026_06_26_17_07_54.942,3.861,30.4,0,0.762,0,0,0,0, ,0,0,0,0,0, ,628.6,-502.3,593.1,6.5,3.6,-6.6,25,628.154,-524.525,569.381,2.09635,2.62561,-6.39648,
2026_06_26_17_07_54.960,3.861,30.5,0,0.759,0,0,0,0, ,0,0,0,0,0, ,629.7,-495.1,594.4,5.9,3.3,-6.8,25,628.215,-522.951,570.866,2.34641,2.67585,-6.41498,
2026_06_26_17_07_54.986,3.861,30.5,0,0.761,0,0,0,0, ,0,0,0,0,0, ,629.5,-492.1,594.4,4.1,2.7,-6.5,25,628.299,-521.163,572.3,2.50812,2.6956,-6.4293,
2026_06_26_17_07_54.995,3.861,30.5,0,0.758,0,0,0,0, ,0,0,0,0,0, ,630.3,-495.4,594.8,4.4,3.3,-6.5,25,628.397,-519.492,573.659,2.61426,2.71415,-6.43361,
2026_06_26_17_07_55.021,3.861,30.5,0,0.76,0,0,0,0, ,0,0,0,0,0, ,630.6,-496.4,598.8,3.1,3.6,-7.7,25,628.522,-518.055,575.069,2.68347,2.75899,-6.47422,
2026_06_26_17_07_55.035,3.861,30.5,0,0.76,0,0,0,0, ,0,0,0,0,0, ,629.3,-489.8,599.7,2.9,3.2,-8.4,25,628.609,-516.534,576.543,2.70276,2.79805,-6.57024,
2026_06_26_17_07_55.061,3.861,30.5,0,0.759,0,0,0,0, ,0,0,0,0,0, ,630.3,-482.6,596.6,2.5,3.3,-8,25,628.682,-514.685,577.859,2.70259,2.82559,-6.66955,
2026_06_26_17_07_55.075,3.861,30.5,0,0.758,0,0,0,0, ,0,0,0,0,0, ,630.1,-473.9,605.3,3.9,3.9,-6.6,25,628.774,-512.465,579.266,2.7329,2.87278,-6.70797,
2026_06_26_17_07_55.102,3.861,30.5,0,0.759,0,0,0,0, ,0,0,0,0,0, ,630.3,-474.4,612.1,4.3,3.1,-5,25,628.861,-510.13,581.06,2.81621,2.91101,-6.65264,
2026_06_26_17_07_55.115,3.861,30.5,0,0.761,0,0,0,0, ,0,0,0,0,0, ,630.8,-477,606.5,4.7,2.4,-3.9,25,628.964,-508.032,582.781,2.91882,2.90119,-6.51842,
2026_06_26_17_07_55.140,3.861,30.5,0,0.761,0,0,0,0, ,0,0,0,0,0, ,629.3,-479.2,613.2,4,2.1,-3.7,25,629.03,-506.208,584.43,3.00603,2.86151,-6.35277,
2026_06_26_17_07_55.154,3.861,30.4,0,0.759,0,0,0,0, ,0,0,0,0,0, ,628.2,-476.8,617.3,0.8,0.7,-4.5,25,629.013,-504.489,586.309,2.9691,2.77245,-6.21549,
2026_06_26_17_07_55.179,3.861,30.5,0,0.761,0,0,0,0, ,0,0,0,0,0, ,629.3,-476.1,609.7,0,0.5,-4.8,25,628.997,-502.781,587.966,2.81254,2.64007,-6.12009,
2026_06_26_17_07_55.193,3.861,30.4,0,0.761,0,0,0,0, ,0,0,0,0,0, ,628.9,-474.8,611,-0.9,0.2,-4.7,25,629.003,-501.115,589.33,2.61373,2.50052,-6.0366,
2026_06_26_17_07_55.218,3.861,30.5,0,0.76,0,0,0,0, ,0,0,0,0,0, ,630.4,-476.6,607.4,0.6,0.4,-4.5,25,629.043,-499.566,590.54,2.44532,2.36642,-5.94906,
2026_06_26_17_07_55.233,3.861,30.5,0,0.759,0,0,0,0, ,0,0,0,0,0, ,630.7,-480.1,603,2.6,1,-4.7,25,629.135,-498.274,591.434,2.39381,2.26487,-5.86685,
2026_06_26_17_07_55.258,3.861,30.5,0,0.759,0,0,0,0, ,0,0,0,0,0, ,629.3,-478.1,610.7,4.9,1.9,-5.2,25,629.187,-497.105,592.373,2.47645,2.21522,-5.81098,
2026_06_26_17_07_55.273,3.861,30.5,0,0.759,0,0,0,0, ,0,0,0,0,0, ,628.7,-473,615.7,3.7,1.5,-6,25,629.176,-495.792,593.642,2.58757,2.18382,-5.79812,
2026_06_26_17_07_55.298,3.861,30.5,0,0.759,0,0,0,0, ,0,0,0,0,0, ,629.6,-473.6,614.1,2.2,1.5,-7,25,629.174,-494.421,594.938,2.60966,2.14215,-5.84089,
2026_06_26_17_07_55.317,3.861,30.5,0,0.759,0,0,0,0, ,0,0,0,0,0, ,631.2,-469.8,611.2,2.8,2,-7.4,25,629.249,-493.037,596.017,2.60298,2.11826,-5.92371,
2026_06_26_17_07_55.343,3.861,30.5,0,0.76,0,0,0,0, ,0,0,0,0,0, ,632.9,-466.4,604.8,4.7,3.6,-7.8,25,629.42,-491.517,596.747,2.67287,2.1598,-6.02586,
2026_06_26_17_07_55.352,3.861,30.4,0,0.76,0,0,0,0, ,0,0,0,0,0, ,633.6,-457.2,606.9,5.4,6,-6.8,25,629.653,-489.706,597.302,2.81773,2.32069,-6.10351,
2026_06_26_17_07_55.377,3.861,30.5,0,0.759,0,0,0,0, ,0,0,0,0,0, ,626,-454.4,638,6.5,6.3,-5.5,25,629.662,-487.64,598.834,3.0086,2.55404,-6.10634,
2026_06_26_17_07_55.391,3.861,30.5,0,0.761,0,0,0,0, ,0,0,0,0,0, ,627,-454.5,638.1,3.9,3.2,-4.9,25,629.469,-485.617,601.224,3.14214,2.68785,-6.05111,
2026_06_26_17_07_55.416,3.861,30.5,0,0.762,0,0,0,0, ,0,0,0,0,0, ,626.7,-452,633.3,2.9,1.7,-4.5,25,629.31,-483.645,603.325,3.15785,2.67336,-5.96878,
2026_06_26_17_07_55.431,3.861,30.5,0,0.76,0,0,0,0, ,0,0,0,0,0, ,628.7,-455.3,628.6,1.1,0.7,-4.4,25,629.212,-481.817,605.008,3.0873,2.58357,-5.87622,
2026_06_26_17_07_55.455,3.861,30.5,0,0.76,0,0,0,0, ,0,0,0,0,0, ,629.6,-455.3,622.8,0.9,0.7,-4.6,25,629.208,-480.201,606.269,2.9601,2.46879,-5.79236,
2026_06_26_17_07_55.470,3.861,30.5,0,0.759,0,0,0,0, ,0,0,0,0,0, ,629.3,-455.4,625,1.7,1.4,-4.8,25,629.223,-478.687,607.344,2.85894,2.38234,-5.7258,
2026_06_26_17_07_55.496,3.861,30.7,0,0.76,0,0,0,0, ,0,0,0,0,0, ,628.7,-455.4,625.3,3.1,2,-5,25,629.209,-477.268,608.429,2.83097,2.34076,-5.67547,
2026_06_26_17_07_55.511,3.861,30.5,0,0.76,0,0,0,0, ,0,0,0,0,0, ,628.1,-445.8,634,5.3,2.1,-4.7,25,629.16,-475.643,609.722,2.9144,2.32304,-5.62517,
2026_06_26_17_07_55.536,3.861,30.7,0,0.76,0,0,0,0, ,0,0,0,0,0, ,627.8,-449.7,632.3,6.7,1.9,-4.4,25,629.086,-473.943,611.15,3.10243,2.30335,-5.55965,
2026_06_26_17_07_55.549,3.861,30.4,0,0.762,0,0,0,0, ,0,0,0,0,0, ,629.1,-453.7,626.8,8.6,2.2,-4.4,25,629.047,-472.588,612.271,3.37954,2.28791,-5.48899,
2026_06_26_17_07_55.575,3.861,30.5,0,0.76,0,0,0,0, ,0,0,0,0,0, ,629.5,-442.8,632.2,10.1,3.9,-6.2,25,629.063,-471.105,613.321,3.74337,2.33435,-5.47747,
2026_06_26_17_07_55.589,3.861,30.5,0,0.76,0,0,0,0, ,0,0,0,0,0, ,629,-445.1,632.6,11.2,4.5,-6,25,629.074,-469.45,614.483,4.16424,2.44804,-5.51541,
2026_06_26_17_07_55.614,3.861,30.5,0,0.76,0,0,0,0, ,0,0,0,0,0, ,623.9,-436.6,652.4,7.5,4,-6.6,25,628.914,-467.707,616.191,4.48025,2.55785,-5.56322,
2026_06_26_17_07_55.629,3.861,30.7,0,0.761,0,0,0,0, ,0,0,0,0,0, ,627,-434.3,645.3,5.6,3.1,-6.9,25,628.703,-465.741,618.181,4.60637,2.61831,-5.63554,
2026_06_26_17_07_55.655,3.861,30.5,0,0.76,0,0,0,0, ,0,0,0,0,0, ,625.7,-432.2,648.3,5.9,3.1,-6.8,25,628.56,-463.761,619.925,4.67606,2.64766,-5.70954,
2026_06_26_17_07_55.670,3.861,30.5,0,0.76,0,0,0,0, ,0,0,0,0,0, ,625.9,-426.5,650.3,5.5,2.5,-6.3,25,628.392,-461.664,621.715,4.73846,2.65694,-5.76076,
2026_06_26_17_07_55.696,3.861,30.5,0,0.761,0,0,0,0, ,0,0,0,0,0, ,626.3,-427.1,647.3,4.6,2.3,-5.8,25,628.252,-459.54,623.365,4.75744,2.64129,-5.77838,
2026_06_26_17_07_55.708,3.861,30.5,0,0.76,0,0,0,0, ,0,0,0,0,0, ,627.5,-422.7,649.2,6.3,3,-5.5,25,628.17,-457.429,624.882,4.79965,2.64182,-5.77056,
2026_06_26_17_07_55.733,3.861,30.5,0,0.759,0,0,0,0, ,0,0,0,0,0, ,623.2,-416.9,661.3,4.4,2.5,-5.1,25,627.998,-455.136,626.732,4.83318,2.64841,-5.74189,
2026_06_26_17_07_55.748,3.861,30.7,0,0.759,0,0,0,0, ,0,0,0,0,0, ,626.8,-418.5,654.4,3,1.5,-5,25,627.815,-452.855,628.629,4.76413,2.6089,-5.69972,
2026_06_26_17_07_55.772,3.861,30.5,0,0.762,0,0,0,0, ,0,0,0,0,0, ,625.4,-420.8,654.4,2.7,1.5,-5,25,627.711,-450.831,630.199,4.64749,2.54132,-5.65708,
2026_06_26_17_07_55.787,3.861,30.5,0,0.76,0,0,0,0, ,0,0,0,0,0, ,625.8,-416.9,653.1,2.9,2,-5,25,627.582,-448.883,631.634,4.53491,2.4931,-5.61704,
2026_06_26_17_07_55.812,3.861,30.5,0,0.76,0,0,0,0, ,0,0,0,0,0, ,625.2,-418.7,660,4,2.1,-4.6,25,627.455,-446.988,633.152,4.4688,2.4661,-5.56725,
2026_06_26_17_07_55.827,3.861,30.5,0,0.76,0,0,0,0, ,0,0,0,0,0, ,625.1,-418.3,657.3,4.6,1.8,-5,25,627.315,-445.252,634.706,4.45851,2.43465,-5.5205,
2026_06_26_17_07_55.852,3.861,30.4,0,0.76,0,0,0,0, ,0,0,0,0,0, ,625.3,-414.3,655.5,5.7,2.2,-5.2,25,627.186,-443.488,636.028,4.50065,2.40816,-5.49488,
2026_06_26_17_07_55.867,3.861,30.5,0,0.76,0,0,0,0, ,0,0,0,0,0, ,623.4,-413.8,661.2,6.3,2.3,-5,25,627.013,-441.694,637.388,4.59201,2.39853,-5.47081,
2026_06_26_17_07_55.892,3.861,30.5,0,0.759,0,0,0,0, ,0,0,0,0,0, ,624,-408.3,665.1,8.2,3.2,-4.9,25,626.811,-439.827,638.958,4.75399,2.41994,-5.43908,
2026_06_26_17_07_55.906,3.861,30.5,0,0.759,0,0,0,0, ,0,0,0,0,0, ,624.5,-404.9,666.5,11.5,3.6,-4.1,25,626.655,-437.802,640.594,5.06452,2.47967,-5.38185,
2026_06_26_17_07_55.931,3.861,30.5,0,0.759,0,0,0,0, ,0,0,0,0,0, ,621.2,-401.6,675.9,10,2.6,-4.6,25,626.423,-435.697,642.459,5.41098,2.51747,-5.31897,
2026_06_26_17_07_55.945,3.861,30.7,0,0.759,0,0,0,0, ,0,0,0,0,0, ,621.7,-397.7,677.8,5.4,1.9,-5.5,25,626.12,-433.5,644.555,5.55047,2.50117,-5.30258,
2026_06_26_17_07_55.971,3.861,30.5,0,0.761,0,0,0,0, ,0,0,0,0,0, ,621,-391.3,683.1,4.7,0.6,-5.3,25,625.829,-431.123,646.742,5.51997,2.42493,-5.30852,
2026_06_26_17_07_55.985,3.861,30.5,0,0.759,0,0,0,0, ,0,0,0,0,0, ,621.7,-396.7,671.1,2.2,-0.8,-5,25,625.556,-428.861,648.592,5.39383,2.27106,-5.29886,
2026_06_26_17_07_56.011,3.861,30.7,0,0.76,0,0,0,0, ,0,0,0,0,0, ,624,-399,665.5,5.7,0.2,-5,25,625.391,-426.971,649.793,5.30585,2.11439,-5.28065,
2026_06_26_17_07_56.026,3.861,30.5,0,0.759,0,0,0,0, ,0,0,0,0,0, ,622.8,-395.7,677.1,5.2,0.7,-6.4,25,625.27,-425.166,651.104,5.31463,2.01297,-5.3062,
2026_06_26_17_07_56.051,3.861,30.7,0,0.759,0,0,0,0, ,0,0,0,0,0, ,625.4,-385.8,673.4,4.3,0.4,-6.7,25,625.199,-423.069,652.575,5.28023,1.92382,-5.382,
2026_06_26_17_07_56.065,3.861,30.5,0,0.761,0,0,0,0, ,0,0,0,0,0, ,625.3,-385.2,669.4,4.9,0.9,-6.1,25,625.208,-420.78,653.722,5.23877,1.84619,-5.44403,
2026_06_26_17_07_56.089,3.861,30.5,0,0.76,0,0,0,0, ,0,0,0,0,0, ,624.6,-385.1,673.5,6,1.5,-5.9,25,625.192,-418.609,654.802,5.25165,1.80682,-5.47791,
2026_06_26_17_07_56.104,3.861,30.5,0,0.76,0,0,0,0, ,0,0,0,0,0, ,623.2,-382.6,685,5.4,1.3,-6,25,625.114,-416.49,656.292,5.27897,1.78203,-5.50668,
2026_06_26_17_07_56.129,3.861,30.4,0,0.76,0,0,0,0, ,0,0,0,0,0, ,625.2,-373,685.1,1,0.4,-6.8,25,625.058,-414.133,658.045,5.15228,1.72523,-5.56111,
2026_06_26_17_07_56.143,3.861,30.5,0,0.76,0,0,0,0, ,0,0,0,0,0, ,623.4,-377.5,679.8,-2,0.6,-7,25,625.012,-411.763,659.532,4.80785,1.65057,-5.6427,
2026_06_26_17_07_56.169,3.861,30.5,0,0.761,0,0,0,0, ,0,0,0,0,0, ,628.5,-379.2,666.1,-2.2,1.4,-7.6,25,625.069,-409.727,660.349,4.3869,1.61092,-5.74369,
2026_06_26_17_07_56.183,3.861,30.5,0,0.76,0,0,0,0, ,0,0,0,0,0, ,627.3,-371.9,676.8,1.3,2.9,-6.8,25,625.241,-407.645,661.026,4.09215,1.64377,-5.83244,
2026_06_26_17_07_56.209,3.861,30.5,0,0.76,0,0,0,0, ,0,0,0,0,0, ,624.2,-372.1,689.9,0.3,2,-6.3,25,625.272,-405.472,662.386,3.89153,1.6929,-5.87616,
2026_06_26_17_07_56.222,3.861,30.5,0,0.76,0,0,0,0, ,0,0,0,0,0, ,625.1,-376.9,684.6,1.6,1.2,-6.1,25,625.234,-403.585,663.901,3.71228,1.68724,-5.8959,
2026_06_26_17_07_56.248,3.861,30.5,0,0.761,0,0,0,0, ,0,0,0,0,0, ,623,-374,687.3,-0.4,0.4,-6.7,25,625.162,-401.871,665.245,3.52263,1.63318,-5.92662,
2026_06_26_17_07_56.263,3.861,30.5,0,0.759,0,0,0,0, ,0,0,0,0,0, ,626.2,-378,683.2,-0.5,0.1,-7.2,25,625.128,-400.294,666.464,3.28055,1.54889,-5.98898,
2026_06_26_17_07_56.289,3.861,30.7,0,0.76,0,0,0,0, ,0,0,0,0,0, ,627.3,-372.5,673.9,0.3,1,-7.8,25,625.227,-398.768,667.201,3.07455,1.48802,-6.08106,
2026_06_26_17_07_56.302,3.861,30.7,0,0.76,0,0,0,0, ,0,0,0,0,0, ,628.5,-368.6,677.9,2,1.9,-7.2,25,625.39,-397.048,667.731,2.95727,1.4857,-6.16752,
2026_06_26_17_07_56.328,3.861,30.7,0,0.761,0,0,0,0, ,0,0,0,0,0, ,627.9,-364.6,682,2.5,2.6,-6.6,25,625.561,-395.193,668.475,2.91417,1.53228,-6.21216,
2026_06_26_17_07_56.342,3.861,30.5,0,0.76,0,0,0,0, ,0,0,0,0,0, ,625.7,-362.5,687.1,3.8,2.6,-6.2,25,625.637,-393.265,669.455,2.92854,1.59734,-6.22361,
2026_06_26_17_07_56.369,3.861,30.5,0,0.76,0,0,0,0, ,0,0,0,0,0, ,625.9,-365.2,688.9,3.2,2,-6.4,25,625.646,-391.472,670.585,2.96336,1.64016,-6.22826,
2026_06_26_17_07_56.384,3.861,30.7,0,0.76,0,0,0,0, ,0,0,0,0,0, ,625.8,-362.4,688.3,2.8,1.6,-6.9,25,625.659,-389.786,671.683,2.9656,1.6499,-6.25396,
2026_06_26_17_07_56.412,3.861,30.7,0,0.76,0,0,0,0, ,0,0,0,0,0, ,628.5,-360.5,684.3,3,1.8,-6.8,25,625.75,-388.059,672.573,2.9616,1.65295,-6.29028,
2026_06_26_17_07_56.421,3.861,30.7,0,0.76,0,0,0,0, ,0,0,0,0,0, ,626.4,-361,685.5,5.1,2.8,-6.9,25,625.853,-386.395,673.325,3.02792,1.69238,-6.32439,
2026_06_26_17_07_56.447,3.861,30.5,0,0.759,0,0,0,0, ,0,0,0,0,0, ,624.5,-359,693.1,5.1,2.8,-7.4,25,625.829,-384.787,674.298,3.15419,1.75988,-6.3747,
2026_06_26_17_07_56.460,3.861,30.7,0,0.76,0,0,0,0, ,0,0,0,0,0, ,625.3,-348.9,697.2,4.7,2.1,-7.5,25,625.772,-382.908,675.569,3.26058,1.80193,-6.44023,
2026_06_26_17_07_56.487,3.861,30.5,0,0.76,0,0,0,0, ,0,0,0,0,0, ,626.7,-345.5,697,2.9,1.7,-7.4,25,625.786,-380.732,676.881,3.29345,1.80791,-6.50176,
2026_06_26_17_07_56.500,3.861,30.4,0,0.76,0,0,0,0, ,0,0,0,0,0, ,627.1,-344.3,694.8,1.8,1.5,-7,25,625.854,-378.548,678.04,3.23596,1.79524,-6.54431,
2026_06_26_17_07_56.526,3.861,30.7,0,0.76,0,0,0,0, ,0,0,0,0,0, ,627.4,-342.1,696.6,1.9,1.6,-6.6,25,625.939,-376.394,679.116,3.1515,1.78029,-6.55989,
2026_06_26_17_07_56.539,3.861,30.5,0,0.76,0,0,0,0, ,0,0,0,0,0, ,626.5,-340.4,693.3,3,1.9,-5.8,25,626.001,-374.253,680.081,3.10875,1.77845,-6.53796,
2026_06_26_17_07_56.566,3.861,30.7,0,0.759,0,0,0,0, ,0,0,0,0,0, ,627.1,-336.9,695.8,4.6,2.6,-5,25,626.049,-372.083,680.963,3.15087,1.80718,-6.46861,
2026_06_26_17_07_56.579,3.861,30.7,0,0.76,0,0,0,0, ,0,0,0,0,0, ,624.8,-340.9,702.7,2,2.3,-5,25,626.043,-370.061,682.077,3.15996,1.84635,-6.37912,
2026_06_26_17_07_56.606,3.861,30.7,0,0.759,0,0,0,0, ,0,0,0,0,0, ,625,-345.9,697.2,0.4,1.8,-5.7,25,625.974,-368.436,683.166,3.04053,1.85876,-6.31641,
2026_06_26_17_07_56.618,3.861,30.5,0,0.76,0,0,0,0, ,0,0,0,0,0, ,626.5,-338,693.6,0,2.4,-6.2,25,625.96,-366.822,683.912,2.86743,1.87346,-6.29408,
2026_06_26_17_07_56.645,3.861,30.5,0,0.759,0,0,0,0, ,0,0,0,0,0, ,623.2,-336.5,704.5,0.6,2.3,-6.3,25,625.892,-365.02,684.834,2.71098,1.9025,-6.29139,
2026_06_26_17_07_56.658,3.861,30.5,0,0.76,0,0,0,0, ,0,0,0,0,0, ,626.3,-336.4,698.3,1.6,2.3,-6.3,25,625.823,-363.279,685.844,2.61281,1.92673,-6.29192,
2026_06_26_17_07_56.684,3.861,30.5,0,0.761,0,0,0,0, ,0,0,0,0,0, ,624.1,-332.7,703.9,3.2,2.9,-6.2,25,625.785,-361.529,686.773,2.59984,1.96775,-6.28936,
2026_06_26_17_07_56.698,3.861,30.7,0,0.76,0,0,0,0, ,0,0,0,0,0, ,625.1,-327.8,711.5,3.3,2.1,-5.9,25,625.713,-359.622,688.048,2.63946,2.00019,-6.27478,
2026_06_26_17_07_56.723,3.861,30.7,0,0.76,0,0,0,0, ,0,0,0,0,0, ,623.4,-327,713.6,3.8,0.7,-5.2,25,625.623,-357.659,689.542,2.69495,1.96361,-6.23061,
2026_06_26_17_07_56.737,3.861,30.7,0,0.759,0,0,0,0, ,0,0,0,0,0, ,625.3,-323.2,703.2,6.7,0.1,-4,25,625.546,-355.675,690.691,2.85065,1.86833,-6.13125,
2026_06_26_17_07_56.764,3.861,30.5,0,0.76,0,0,0,0, ,0,0,0,0,0, ,628.7,-328.8,687.5,11.4,1.8,-3.7,25,625.634,-353.867,690.975,3.22842,1.81237,-5.99223,
2026_06_26_17_07_56.777,3.861,30.7,0,0.76,0,0,0,0, ,0,0,0,0,0, ,621.5,-319.7,715.8,11.3,3.5,-3.4,25,625.602,-352.062,691.625,3.72333,1.86341,-5.84341,
2026_06_26_17_07_56.805,3.861,30.5,0,0.76,0,0,0,0, ,0,0,0,0,0, ,619.1,-322.1,727.9,8.9,1.2,-4.5,25,625.279,-350.163,693.467,4.11191,1.89306,-5.72803,
2026_06_26_17_07_56.817,3.861,30.7,0,0.759,0,0,0,0, ,0,0,0,0,0, ,622.4,-316.4,715.8,7.1,-0.3,-5.5,25,625.003,-348.279,695.197,4.34884,1.80513,-5.68367,
2026_06_26_17_07_56.844,3.861,30.5,0,0.759,0,0,0,0, ,0,0,0,0,0, ,625.8,-310.4,708.6,7.9,0.1,-5.6,25,624.948,-346.154,696.233,4.54086,1.68903,-5.67552,
2026_06_26_17_07_56.856,3.861,30.7,0,0.76,0,0,0,0, ,0,0,0,0,0, ,623.2,-306.7,711.4,8.7,1,-4.9,25,624.921,-343.862,697.072,4.76993,1.61962,-5.64959,
2026_06_26_17_07_56.883,3.861,30.7,0,0.76,0,0,0,0, ,0,0,0,0,0, ,626.4,-301.2,708,9.3,2.2,-3.8,25,624.913,-341.43,697.841,5.0277,1.61843,-5.5704,
2026_06_26_17_07_56.896,3.861,30.7,0,0.761,0,0,0,0, ,0,0,0,0,0, ,622.5,-301.6,722,8.4,2.8,-3.9,25,624.885,-338.991,698.887,5.26062,1.67215,-5.46556,
2026_06_26_17_07_56.923,3.861,30.7,0,0.759,0,0,0,0, ,0,0,0,0,0, ,620.8,-298.3,728.2,5.3,1.7,-4.5,25,624.688,-336.612,700.484,5.35748,1.70736,-5.38844,
2026_06_26_17_07_56.935,3.861,30.7,0,0.759,0,0,0,0, ,0,0,0,0,0, ,621.7,-298.7,723.6,3.9,1.2,-4.7,25,624.478,-334.289,702.033,5.31132,1.69168,-5.34039,
2026_06_26_17_07_56.961,3.861,30.5,0,0.76,0,0,0,0, ,0,0,0,0,0, ,622.6,-295.7,718.6,3.7,1.4,-5,25,624.336,-332.029,703.195,5.21922,1.66781,-5.31051,
2026_06_26_17_07_56.975,3.861,30.5,0,0.761,0,0,0,0, ,0,0,0,0,0, ,622.9,-292.8,718.3,3.7,1.9,-5.1,25,624.24,-329.727,704.124,5.12664,1.66673,-5.29464,
2026_06_26_17_07_57.002,3.861,30.7,0,0.758,0,0,0,0, ,0,0,0,0,0, ,621.8,-293.9,720.4,3,2,-5,25,624.125,-327.51,705.052,5.01838,1.68399,-5.27973,
2026_06_26_17_07_57.014,3.861,30.5,0,0.761,0,0,0,0, ,0,0,0,0,0, ,620.8,-291.5,724.8,2.4,2.1,-5.1,25,623.952,-325.389,706.122,4.8771,1.70629,-5.26573,
2026_06_26_17_07_57.041,3.861,30.5,0,0.76,0,0,0,0, ,0,0,0,0,0, ,619.6,-291.9,731.4,1.1,1.4,-5.7,25,623.724,-323.336,707.461,4.68655,1.70895,-5.27391,
2026_06_26_17_07_57.053,3.861,30.5,0,0.759,0,0,0,0, ,0,0,0,0,0, ,622.1,-290.6,718.9,0.9,1.2,-6,25,623.549,-321.381,708.539,4.4619,1.68403,-5.30902,
2026_06_26_17_07_57.080,3.861,30.7,0,0.761,0,0,0,0, ,0,0,0,0,0, ,622.9,-287.7,723.8,1.1,2,-6,25,623.485,-319.417,709.32,4.25094,1.67891,-5.35112,
2026_06_26_17_07_57.093,3.861,30.5,0,0.76,0,0,0,0, ,0,0,0,0,0, ,621.7,-286.7,723,1.1,2.2,-6.2,25,623.413,-317.454,710.178,4.05893,1.70457,-5.39676,
2026_06_26_17_07_57.121,3.861,30.5,0,0.759,0,0,0,0, ,0,0,0,0,0, ,619.9,-283.4,727.5,0.9,2.5,-6.3,25,623.253,-315.479,711.096,3.87252,1.7439,-5.44875,
2026_06_26_17_07_57.133,3.861,30.5,0,0.76,0,0,0,0, ,0,0,0,0,0, ,618.8,-284.6,729,1.4,2.8,-6.6,25,623.016,-313.561,712.141,3.70662,1.79912,-5.50977,
2026_06_26_17_07_57.160,3.861,30.7,0,0.759,0,0,0,0, ,0,0,0,0,0, ,617.6,-280.8,734.7,0.5,2,-6.6,25,622.722,-311.68,713.342,3.53864,1.83574,-5.5762,
2026_06_26_17_07_57.174,3.861,30.5,0,0.761,0,0,0,0, ,0,0,0,0,0, ,620.2,-281.9,724.2,2.4,1.8,-6.6,25,622.489,-309.832,714.324,3.41136,1.83965,-5.63859,
2026_06_26_17_07_57.201,3.861,30.7,0,0.76,0,0,0,0, ,0,0,0,0,0, ,619.7,-279.6,726.8,4.1,2.7,-6.5,25,622.334,-308.06,715.005,3.40153,1.86466,-5.69413,
2026_06_26_17_07_57.212,3.861,30.5,0,0.76,0,0,0,0, ,0,0,0,0,0, ,617.6,-272.3,734.8,6.1,2.8,-6.2,25,622.11,-306.103,715.967,3.50503,1.91861,-5.7341,
2026_06_26_17_07_57.239,3.861,30.7,0,0.759,0,0,0,0, ,0,0,0,0,0, ,615.3,-271.2,743.8,5.1,1.8,-5.7,25,621.765,-304.01,717.389,3.63269,1.94185,-5.74725,
2026_06_26_17_07_57.252,3.861,30.7,0,0.76,0,0,0,0, ,0,0,0,0,0, ,618.1,-264.4,733.6,3.8,1.1,-5,25,621.456,-301.803,718.688,3.6825,1.91188,-5.72305,
2026_06_26_17_07_57.279,3.861,30.8,0,0.761,0,0,0,0, ,0,0,0,0,0, ,619.6,-269.1,723.9,6.6,2.6,-4.1,25,621.298,-299.667,719.301,3.77497,1.90811,-5.65156,
2026_06_26_17_07_57.291,3.861,30.5,0,0.759,0,0,0,0, ,0,0,0,0,0, ,619.8,-266.6,724.1,12.1,4.6,-3.1,25,621.2,-297.728,719.587,4.1147,2.01121,-5.52655,
2026_06_26_17_07_57.319,3.861,30.7,0,0.759,0,0,0,0, ,0,0,0,0,0, ,612.4,-258.6,751,14.3,4.7,-2.3,25,620.889,-295.588,720.682,4.66833,2.17201,-5.3543,
2026_06_26_17_07_57.331,3.861,30.7,0,0.76,0,0,0,0, ,0,0,0,0,0, ,609,-259.2,762.4,9.3,1.8,-2.7,25,620.268,-293.352,722.877,5.10292,2.2377,-5.18037,
2026_06_26_17_07_57.358,3.861,30.7,0,0.759,0,0,0,0, ,0,0,0,0,0, ,612.7,-255.1,752.1,4.7,-0.5,-3.9,25,619.695,-291.146,724.971,5.21852,2.14095,-5.06578,
2026_06_26_17_07_57.370,3.861,30.4,0,0.76,0,0,0,0, ,0,0,0,0,0, ,615.1,-254,740.3,2,-0.8,-4.6,25,619.341,-288.916,726.265,5.10466,1.97087,-5.01607,
2026_06_26_17_07_57.399,3.861,30.5,0,0.76,0,0,0,0, ,0,0,0,0,0, ,615.2,-251.5,736.2,2.3,0.3,-4.4,25,619.086,-286.712,726.995,4.92461,1.83554,-4.98462,
2026_06_26_17_07_57.410,3.861,30.5,0,0.76,0,0,0,0, ,0,0,0,0,0, ,615.1,-254.7,738.8,4.4,1.7,-4.6,25,618.846,-284.664,727.636,4.82866,1.78462,-4.95509,
2026_06_26_17_07_57.438,3.861,30.7,0,0.759,0,0,0,0, ,0,0,0,0,0, ,612.1,-247.3,746.2,6.4,2.2,-4.5,25,618.526,-282.612,728.541,4.86347,1.7947,-4.93041,
2026_06_26_17_07_57.450,3.861,30.5,0,0.76,0,0,0,0, ,0,0,0,0,0, ,612.7,-247,750.8,6.4,2,-4.5,25,618.153,-280.451,729.758,4.95711,1.81331,-4.90418,
2026_06_26_17_07_57.478,3.861,30.5,0,0.759,0,0,0,0, ,0,0,0,0,0, ,612.9,-243.5,754.5,3.5,0.9,-4.9,25,617.827,-278.306,731.153,4.95667,1.79117,-4.89174,
2026_06_26_17_07_57.489,3.861,30.7,0,0.759,0,0,0,0, ,0,0,0,0,0, ,611.5,-245.4,750.6,2.3,0.3,-5.4,25,617.484,-276.243,732.456,4.83134,1.71858,-4.90747,
2026_06_26_17_07_57.518,3.861,30.7,0,0.761,0,0,0,0, ,0,0,0,0,0, ,613.4,-246.8,743.5,-0.1,0,-6.2,25,617.177,-274.406,733.346,4.60397,1.62299,-4.96186,
2026_06_26_17_07_57.529,3.861,30.7,0,0.763,0,0,0,0, ,0,0,0,0,0, ,615.1,-237.5,742.3,1.9,1,-6.3,25,616.999,-272.441,733.928,4.37826,1.55456,-5.04036,
2026_06_26_17_07_57.557,3.861,30.7,0,0.76,0,0,0,0, ,0,0,0,0,0, ,615.3,-235.2,745.1,5.8,2.1,-5.3,25,616.889,-270.241,734.523,4.34606,1.55428,-5.08665,
2026_06_26_17_07_57.569,3.861,30.5,0,0.759,0,0,0,0, ,0,0,0,0,0, ,610.9,-229.8,757.6,7.4,2.2,-4.3,25,616.658,-267.942,735.549,4.48341,1.59059,-5.06918,
2026_06_26_17_07_57.597,3.861,30.7,0,0.76,0,0,0,0, ,0,0,0,0,0, ,609.6,-230.1,765.2,6,1.3,-4.2,25,616.268,-265.626,737.124,4.61849,1.6003,-5.01926,
2026_06_26_17_07_57.614,3.861,30.7,0,0.76,0,0,0,0, ,0,0,0,0,0, ,610.9,-233.2,753.9,3,0,-4.9,25,615.901,-263.556,738.491,4.61127,1.54239,-4.99067,
2026_06_26_17_07_57.643,3.861,30.7,0,0.758,0,0,0,0, ,0,0,0,0,0, ,613.5,-231.5,751.4,1.6,0.4,-5.8,25,615.676,-261.654,739.354,4.47042,1.46059,-5.01256,
2026_06_26_17_07_57.648,3.861,30.7,0,0.76,0,0,0,0, ,0,0,0,0,0, ,612.3,-226.8,753.5,0.6,0.2,-6,25,615.506,-259.674,740.152,4.26504,1.38987,-5.06664,
2026_06_26_17_07_57.676,3.861,30.5,0,0.761,0,0,0,0, ,0,0,0,0,0, ,613,-225.7,748.6,1.5,0.3,-5.7,25,615.332,-257.637,740.816,4.06912,1.32041,-5.11438,
2026_06_26_17_07_57.686,3.861,30.7,0,0.761,0,0,0,0, ,0,0,0,0,0, ,613.5,-226,746,3.3,1.3,-5,25,615.206,-255.7,741.211,3.96741,1.28869,-5.12874,
2026_06_26_17_07_57.715,3.861,30.7,0,0.76,0,0,0,0, ,0,0,0,0,0, ,611.3,-221.8,753.1,3.7,2.4,-4.8,25,615.035,-253.762,741.719,3.93893,1.3229,-5.1148,
2026_06_26_17_07_57.727,3.861,30.7,0,0.759,0,0,0,0, ,0,0,0,0,0, ,609.7,-223.9,760.7,2,1.7,-5.2,25,614.758,-251.878,742.644,3.87257,1.36721,-5.1078,
2026_06_26_17_07_57.755,3.861,30.7,0,0.759,0,0,0,0, ,0,0,0,0,0, ,610.2,-225.9,758.5,1.1,1.1,-5.5,25,614.465,-250.234,743.677,3.73104,1.3692,-5.12256,
2026_06_26_17_07_57.766,3.861,30.8,0,0.76,0,0,0,0, ,0,0,0,0,0, ,611.4,-220,757.3,1.9,0.8,-5.8,25,614.242,-248.572,744.544,3.59509,1.34366,-5.1547,
2026_06_26_17_07_57.795,3.861,30.7,0,0.76,0,0,0,0, ,0,0,0,0,0, ,612,-211.9,755.1,0.9,0.7,-5.2,25,614.087,-246.584,745.254,3.46132,1.30748,-5.17574,
2026_06_26_17_07_57.805,3.861,30.7,0,0.76,0,0,0,0, ,0,0,0,0,0, ,612.9,-211.5,747.8,0.5,1.6,-4.4,25,613.987,-244.458,745.632,3.29305,1.29789,-5.15285,
2026_06_26_17_07_57.833,3.861,30.7,0,0.761,0,0,0,0, ,0,0,0,0,0, ,611.2,-213.2,756.7,-1.2,2.6,-3.3,25,613.869,-242.502,746.035,3.07106,1.34676,-5.07345,
2026_06_26_17_07_57.845,3.861,30.7,0,0.761,0,0,0,0, ,0,0,0,0,0, ,608.5,-217.6,763.1,-2.5,2.3,-3.6,25,613.624,-240.85,746.88,2.77118,1.41399,-4.97453,
2026_06_26_17_07_57.873,3.861,30.5,0,0.76,0,0,0,0, ,0,0,0,0,0, ,609.1,-219.1,758.5,-2.9,1.9,-4,25,613.33,-239.479,747.728,2.43778,1.4558,-4.90295,
2026_06_26_17_07_57.885,3.861,30.7,0,0.76,0,0,0,0, ,0,0,0,0,0, ,606.5,-216.4,765.8,-1.5,1.4,-4.6,25,612.993,-238.155,748.607,2.15516,1.46763,-4.86621,
2026_06_26_17_07_57.913,3.861,30.7,0,0.76,0,0,0,0, ,0,0,0,0,0, ,608.2,-223.9,757.3,0.1,0.9,-4.9,25,612.649,-237.058,749.396,1.98118,1.44828,-4.85913,
2026_06_26_17_07_57.924,3.861,30.8,0,0.759,0,0,0,0, ,0,0,0,0,0, ,607,-217.8,762.2,1.1,0.9,-5.7,25,612.342,-236.07,750.027,1.89701,1.41486,-4.88599,
2026_06_26_17_07_57.952,3.861,30.7,0,0.76,0,0,0,0, ,0,0,0,0,0, ,608.8,-217.7,759.6,1.7,1,-6.1,25,612.071,-234.954,750.689,1.86673,1.38654,-4.94779,
2026_06_26_17_07_57.964,3.861,30.8,0,0.76,0,0,0,0, ,0,0,0,0,0, ,609.1,-218.6,753.1,1.2,1.7,-6.9,25,611.881,-233.93,751.034,1.84133,1.38431,-5.04237,
2026_06_26_17_07_57.995,3.861,30.7,0,0.76,0,0,0,0, ,0,0,0,0,0, ,607.7,-215.6,755.8,3,2.8,-7.1,25,611.669,-232.904,751.242,1.85709,1.43706,-5.16167,
2026_06_26_17_07_58.003,3.861,30.4,0,0.76,0,0,0,0, ,0,0,0,0,0, ,606.3,-209.7,762.9,4.9,3.4,-7.5,25,611.384,-231.67,751.737,1.98463,1.5384,-5.29197,
2026_06_26_17_07_58.032,3.861,30.7,0,0.76,0,0,0,0, ,0,0,0,0,0, ,604.8,-211.1,766.2,7.6,2.9,-7.6,25,611.029,-230.374,752.517,2.24455,1.63661,-5.42957,
2026_06_26_17_07_58.043,3.861,30.7,0,0.76,0,0,0,0, ,0,0,0,0,0, ,606.3,-203.2,764,10.3,2.9,-7.9,25,610.695,-228.959,753.284,2.65316,1.71359,-5.57097,
2026_06_26_17_07_58.072,3.861,30.5,0,0.76,0,0,0,0, ,0,0,0,0,0, ,607.4,-205.3,755.4,12.1,3.9,-8.5,25,610.461,-227.453,753.675,3.17399,1.81636,-5.73118,
2026_06_26_17_07_58.083,3.861,30.7,0,0.76,0,0,0,0, ,0,0,0,0,0, ,607.7,-195.9,755,12.5,6.3,-9.6,25,610.283,-225.817,753.768,3.7301,2.01646,-5.93342,
2026_06_26_17_07_58.112,3.861,30.7,0,0.76,0,0,0,0, ,0,0,0,0,0, ,601.3,-184,770.8,14.7,8.2,-9.9,25,609.931,-223.631,754.324,4.33155,2.33538,-6.16599,
2026_06_26_17_07_58.124,3.861,30.7,0,0.76,0,0,0,0, ,0,0,0,0,0, ,598.7,-168.7,789.6,13.6,7.1,-9,25,609.326,-220.75,755.901,4.92986,2.65923,-6.36611,
2026_06_26_17_07_58.154,3.861,30.7,0,0.759,0,0,0,0, ,0,0,0,0,0, ,594.6,-155,800.1,7.2,3.9,-7.8,25,608.553,-217.161,758.275,5.2632,2.83234,-6.49005,
2026_06_26_17_07_58.161,3.861,30.7,0,0.76,0,0,0,0, ,0,0,0,0,0, ,593.7,-158.3,793.2,-1.8,0.5,-7.5,25,607.676,-213.473,760.613,5.107,2.79381,-6.56073,
2026_06_26_17_07_58.190,3.861,30.7,0,0.76,0,0,0,0, ,0,0,0,0,0, ,602.6,-179.4,769.8,-6.3,-0.3,-7.4,25,607.095,-210.754,761.886,4.549,2.62966,-6.61492,
2026_06_26_17_07_58.201,3.861,30.5,0,0.762,0,0,0,0, ,0,0,0,0,0, ,602.9,-181.7,762.2,-2.3,2,-7.6,25,606.83,-208.913,762.137,4.00976,2.52121,-6.66886,
2026_06_26_17_07_58.230,3.861,30.5,0,0.76,0,0,0,0, ,0,0,0,0,0, ,599.2,-181.8,775.6,2.1,3.3,-7.9,25,606.478,-207.258,762.549,3.75932,2.52906,-6.73474,
2026_06_26_17_07_58.241,3.861,30.7,0,0.76,0,0,0,0, ,0,0,0,0,0, ,597.6,-176.5,782.4,3.5,3.2,-8.2,25,605.986,-205.545,763.551,3.70087,2.57299,-6.81489,
2026_06_26_17_07_58.270,3.861,30.7,0,0.761,0,0,0,0, ,0,0,0,0,0, ,597.4,-161.6,787.9,4.9,2.3,-8,25,605.469,-203.321,764.867,3.73128,2.58378,-6.8932,
2026_06_26_17_07_58.280,3.861,30.5,0,0.76,0,0,0,0, ,0,0,0,0,0, ,597.1,-152.7,785.8,0.2,1.2,-7.4,25,604.968,-200.508,766.207,3.6593,2.53297,-6.94237,
2026_06_26_17_07_58.308,3.861,30.7,0,0.76,0,0,0,0, ,0,0,0,0,0, ,595.7,-154.6,785,-3.7,0.4,-6.3,25,604.446,-197.652,767.377,3.32967,2.42737,-6.93674,
2026_06_26_17_07_58.319,3.861,30.7,0,0.76,0,0,0,0, ,0,0,0,0,0, ,597.7,-161.4,781.8,-5,-0.2,-5.2,25,603.974,-195.236,768.353,2.86169,2.28554,-6.86442,
2026_06_26_17_07_58.349,3.861,30.8,0,0.76,0,0,0,0, ,0,0,0,0,0, ,596.5,-170.8,785.4,-4.1,-0.5,-5.2,25,603.555,-193.461,769.282,2.41004,2.12494,-6.76299,
2026_06_26_17_07_58.360,3.861,30.7,0,0.762,0,0,0,0, ,0,0,0,0,0, ,598.8,-165.5,776.7,-3.2,-0.3,-5.4,25,603.195,-191.918,769.999,2.04076,1.97107,-6.67384,
2026_06_26_17_07_58.389,3.861,30.7,0,0.76,0,0,0,0, ,0,0,0,0,0, ,597.2,-155.8,779.5,-5.9,-0.1,-4.9,25,602.878,-190.013,770.493,1.63913,1.83877,-6.58098,
2026_06_26_17_07_58.399,3.861,30.7,0,0.76,0,0,0,0, ,0,0,0,0,0, ,599.1,-170.1,777.5,-8.1,0.3,-4.3,25,602.59,-188.364,770.981,1.11268,1.73282,-6.46027,
2026_06_26_17_07_58.428,3.861,30.7,0,0.76,0,0,0,0, ,0,0,0,0,0, ,599.3,-180.9,777.5,-5.2,0.8,-4.9,25,602.384,-187.58,771.378,0.639646,1.66074,-6.34691,
2026_06_26_17_07_58.439,3.861,30.7,0,0.76,0,0,0,0, ,0,0,0,0,0, ,596.5,-178.5,783,-1.9,0.6,-6.1,25,602.111,-187.1,771.919,0.384339,1.6022,-6.2953,
2026_06_26_17_07_58.469,3.861,30.7,0,0.759,0,0,0,0, ,0,0,0,0,0, ,598,-171.7,778.3,0.1,0.3,-7,25,601.814,-186.368,772.451,0.306075,1.53198,-6.31082,
2026_06_26_17_07_58.478,3.861,30.7,0,0.76,0,0,0,0, ,0,0,0,0,0, ,599.3,-171.6,774,1.4,1,-7.6,25,601.621,-185.471,772.676,0.333126,1.47824,-6.3711,
2026_06_26_17_07_58.507,3.861,30.7,0,0.76,0,0,0,0, ,0,0,0,0,0, ,597.1,-158.6,781.1,2.4,1.9,-7.5,25,601.413,-184.23,772.973,0.428608,1.47652,-6.44294,
2026_06_26_17_07_58.517,3.861,30.5,0,0.76,0,0,0,0, ,0,0,0,0,0, ,595.7,-155.3,786.1,0.5,1.6,-6.7,25,601.108,-182.568,773.621,0.490849,1.49318,-6.48298,
2026_06_26_17_07_58.547,3.861,30.7,0,0.76,0,0,0,0, ,0,0,0,0,0, ,597.1,-159.7,782.3,-0.9,1.3,-6.5,25,600.821,-181.04,774.265,0.44875,1.49055,-6.49011,
2026_06_26_17_07_58.557,3.861,30.7,0,0.76,0,0,0,0, ,0,0,0,0,0, ,596.4,-159.9,781.9,-0.7,1.3,-6.2,25,600.573,-179.746,774.743,0.372654,1.47894,-6.48157,
2026_06_26_17_07_58.587,3.861,30.7,0,0.761,0,0,0,0, ,0,0,0,0,0, ,597.5,-156,781.6,0.2,1.3,-5.6,25,600.352,-178.418,775.17,0.334711,1.46803,-6.44613,
2026_06_26_17_07_58.597,3.861,30.7,0,0.76,0,0,0,0, ,0,0,0,0,0, ,596,-152.8,783.4,0.8,1.5,-4.5,25,600.132,-176.954,775.617,0.344784,1.46389,-6.36105,
2026_06_26_17_07_58.626,3.861,30.8,0,0.76,0,0,0,0, ,0,0,0,0,0, ,594.1,-156,790.7,0.1,0.6,-3.7,25,599.823,-175.58,776.313,0.351195,1.43867,-6.22327,
2026_06_26_17_07_58.641,3.861,30.7,0,0.761,0,0,0,0, ,0,0,0,0,0, ,593.9,-156.1,792.3,-0.8,-0.8,-3.6,25,599.468,-174.39,777.239,0.308466,1.34491,-6.06646,
2026_06_26_17_07_58.671,3.861,30.7,0,0.76,0,0,0,0, ,0,0,0,0,0, ,596.6,-153.6,777.8,-0.9,-0.9,-3.1,25,599.211,-173.199,777.715,0.237872,1.21115,-5.90093,
2026_06_26_17_07_58.676,3.861,30.7,0,0.759,0,0,0,0, ,0,0,0,0,0, ,596.5,-156.1,779.6,-0.8,0,-2.5,25,599.049,-172.081,777.775,0.17158,1.10993,-5.71197,
2026_06_26_17_07_58.706,3.861,30.7,0,0.761,0,0,0,0, ,0,0,0,0,0, ,597.1,-160.4,782.1,0.4,0.8,-2.9,25,598.912,-171.238,777.962,0.148937,1.06667,-5.52842,
2026_06_26_17_07_58.716,3.861,30.7,0,0.76,0,0,0,0, ,0,0,0,0,0, ,593.1,-163.6,795.8,-0.3,0.2,-4,25,598.679,-170.675,778.632,0.142908,1.03213,-5.40177,
2026_06_26_17_07_58.745,3.861,30.7,0,0.761,0,0,0,0, ,0,0,0,0,0, ,594.7,-156.9,794.6,-3.7,-1.1,-4.7,25,598.388,-170.04,779.641,0.0123245,0.941817,-5.33768,
2026_06_26_17_07_58.755,3.861,30.7,0,0.76,0,0,0,0, ,0,0,0,0,0, ,597.9,-162.2,774.6,-5.3,-0.9,-5.4,25,598.261,-169.401,779.944,-0.262645,0.823487,-5.32015,
2026_06_26_17_07_58.785,3.861,30.7,0,0.76,0,0,0,0, ,0,0,0,0,0, ,598.9,-165.8,773.1,-1.2,1.2,-5.9,25,598.269,-169.071,779.572,-0.444687,0.782447,-5.34025,
2026_06_26_17_07_58.794,3.861,30.7,0,0.76,0,0,0,0, ,0,0,0,0,0, ,594.4,-161.9,786.6,3.2,1.9,-6.4,25,598.171,-168.753,779.589,-0.356652,0.829219,-5.38959,
2026_06_26_17_07_58.824,3.861,30.5,0,0.76,0,0,0,0, ,0,0,0,0,0, ,592.8,-154.5,792.2,3.9,0.9,-7.1,25,597.892,-168.11,780.187,-0.11859,0.864001,-5.47249,
2026_06_26_17_07_58.835,3.861,30.7,0,0.76,0,0,0,0, ,0,0,0,0,0, ,595.4,-151.3,779,3.6,1,-7.4,25,597.661,-167.183,780.517,0.117152,0.869242,-5.58081,
2026_06_26_17_07_58.864,3.861,30.5,0,0.76,0,0,0,0, ,0,0,0,0,0, ,594.2,-142.9,786.1,3.5,1.7,-7.1,25,597.487,-165.959,780.641,0.326341,0.898538,-5.68253,
2026_06_26_17_07_58.874,3.861,30.5,0,0.759,0,0,0,0, ,0,0,0,0,0, ,593.1,-139.7,791.9,2.9,1.3,-6.6,25,597.253,-164.457,781.15,0.501455,0.93519,-5.75367,
2026_06_26_17_07_58.903,3.861,30.7,0,0.762,0,0,0,0, ,0,0,0,0,0, ,593.2,-139.4,793.7,2.5,0.8,-6.2,25,597.003,-162.939,781.86,0.635429,0.942186,-5.79305,
2026_06_26_17_07_58.913,3.861,30.8,0,0.76,0,0,0,0, ,0,0,0,0,0, ,594.8,-135.7,785.8,2.5,0.5,-5,25,596.82,-161.392,782.341,0.749051,0.924381,-5.78129,
2026_06_26_17_07_58.943,3.861,30.7,0,0.759,0,0,0,0, ,0,0,0,0,0, ,595.8,-138.6,780,2.7,1.7,-4.2,25,596.727,-159.915,782.375,0.861843,0.935083,-5.7093,
2026_06_26_17_07_58.953,3.861,30.7,0,0.76,0,0,0,0, ,0,0,0,0,0, ,593.7,-143.7,787.8,3.5,2.5,-4.1,25,596.607,-158.771,782.468,0.998231,1.00607,-5.61428,
2026_06_26_17_07_58.983,3.861,30.5,0,0.759,0,0,0,0, ,0,0,0,0,0, ,590.9,-141.9,795.8,3.4,2,-4.9,25,596.344,-157.798,783.037,1.14764,1.08187,-5.54638,
2026_06_26_17_07_58.993,3.861,30.5,0,0.76,0,0,0,0, ,0,0,0,0,0, ,588,-142.8,803.3,2,0.3,-6.1,25,595.924,-156.857,784.043,1.24223,1.08602,-5.54356,
2026_06_26_17_07_59.023,3.861,30.8,0,0.76,0,0,0,0, ,0,0,0,0,0, ,592.8,-150.1,792.2,1.2,-1.6,-8.1,25,595.588,-156.222,784.878,1.26403,0.980234,-5.6384,
2026_06_26_17_07_59.032,3.861,30.5,0,0.76,0,0,0,0, ,0,0,0,0,0, ,594.6,-144.2,782.3,4.3,-0.4,-9.8,25,595.473,-155.67,785.023,1.35459,0.859564,-5.8402,
2026_06_26_17_07_59.064,3.861,30.8,0,0.759,0,0,0,0, ,0,0,0,0,0, ,595.7,-135.9,777.8,7.7,1.1,-10.7,25,595.453,-154.718,784.72,1.63767,0.828512,-6.10892,
2026_06_26_17_07_59.072,3.861,30.7,0,0.761,0,0,0,0, ,0,0,0,0,0, ,594.7,-121.8,782.9,9.7,3.4,-10.5,25,595.438,-153.141,784.453,2.06803,0.915134,-6.3826,
2026_06_26_17_07_59.102,3.861,30.7,0,0.762,0,0,0,0, ,0,0,0,0,0, ,590.3,-114.7,802.4,5.1,2.7,-10.5,25,595.258,-151.015,784.953,2.39294,1.04523,-6.6335,
2026_06_26_17_07_59.111,3.861,30.5,0,0.76,0,0,0,0, ,0,0,0,0,0, ,590,-119.1,795.2,3,1.6,-10.6,25,594.947,-148.936,785.797,2.49392,1.11255,-6.87217,
2026_06_26_17_07_59.142,3.861,30.7,0,0.761,0,0,0,0, ,0,0,0,0,0, ,593.7,-112.5,787.7,5.2,2.3,-10.4,25,594.758,-146.917,786.141,2.59179,1.16358,-7.09324,
2026_06_26_17_07_59.151,3.861,30.7,0,0.76,0,0,0,0, ,0,0,0,0,0, ,589.7,-106.2,797.1,7.4,2.6,-9.7,25,594.572,-144.628,786.523,2.81776,1.24197,-7.27341,
2026_06_26_17_07_59.181,3.861,30.4,0,0.761,0,0,0,0, ,0,0,0,0,0, ,591,-107.2,794.4,7.1,2.6,-9.1,25,594.315,-142.317,787.085,3.08785,1.32473,-7.403,
2026_06_26_17_07_59.190,3.861,30.5,0,0.76,0,0,0,0, ,0,0,0,0,0, ,586.6,-106,804.8,8.7,2.8,-9.4,25,593.979,-140.14,787.847,3.38109,1.40853,-7.51555,
2026_06_26_17_07_59.221,3.861,30.5,0,0.76,0,0,0,0, ,0,0,0,0,0, ,588.9,-100.5,798.5,8.1,2.2,-9.9,25,593.599,-137.892,788.689,3.68693,1.47504,-7.64562,
2026_06_26_17_07_59.234,3.861,30.7,0,0.76,0,0,0,0, ,0,0,0,0,0, ,586.6,-96.4,791.9,6.7,3.2,-11.8,25,593.243,-135.489,789.085,3.91319,1.54969,-7.84089,
2026_06_26_17_07_59.264,3.861,30.4,0,0.76,0,0,0,0, ,0,0,0,0,0, ,586.6,-98.1,804.5,5.6,3.6,-11.2,25,592.838,-133.158,789.641,4.0495,1.66244,-8.06387,
2026_06_26_17_07_59.270,3.861,30.5,0,0.761,0,0,0,0, ,0,0,0,0,0, ,587.2,-93.8,796.6,6.3,3.4,-12.8,25,592.476,-130.891,790.306,4.16531,1.77442,-8.30372,
