UTC_Time,Vin,TC1,TC2,Rh1,Vh1,Ah1,Acp1,Dty1,Err1,Rh2,Vh2,Ah2,Acp2,Dty2,Err2,Accel_x,Accel_y,Accel_z,gyro_x,gyro_y,gyro_z,Temp_c,Accel_x_h,Accel_y_h,Accel_z_h,gyro_x_h,gyro_y_h,gyro_z_h,
2026_06_26_17_22_55.629,3.867,27.5,0,0.757,0,0,0,0.02, ,0,0,0,0,0, ,-42.4,444.7,896.3,-0.3,-0.4,-1.7,25,-42.4,444.7,896.3,-0.3,-0.4,-1.7,
2026_06_26_17_22_55.649,3.867,27.5,0,0.757,0,0,0,0.02, ,0,0,0,0,0, ,-41.1,445.3,894.8,-0.4,-0.4,-1.7,25,-42.3604,444.718,896.254,-0.303047,-0.4,-1.7,
2026_06_26_17_22_55.668,3.867,27.3,0,0.755,0,0,0,0.02, ,0,0,0,0,0, ,-41.6,444.5,894.7,-0.4,-0.4,-1.7,25,-42.2988,444.729,896.163,-0.308955,-0.4,-1.7,
2026_06_26_17_22_55.689,3.867,27.3,0,0.755,0,0,0,0.022, ,0,0,0,0,0, ,-41.2,444.7,894.4,-0.5,-0.4,-1.8,25,-42.244,444.721,896.064,-0.31755,-0.4,-1.70305,
2026_06_26_17_22_55.708,3.867,27.3,0,0.755,0,0,0,0.022, ,0,0,0,0,0, ,-41,443.9,894.1,-0.4,-0.5,-1.7,25,-42.1743,444.696,895.954,-0.325621,-0.403047,-1.70591,
2026_06_26_17_22_55.729,3.867,27.5,0,0.757,0,0,0,0.023, ,0,0,0,0,0, ,-40.4,444.5,895.7,-0.4,-0.4,-1.7,25,-42.0845,444.666,895.89,-0.330154,-0.405908,-1.70555,
2026_06_26_17_22_55.748,3.867,27.5,0,0.757,0,0,0,0.021, ,0,0,0,0,0, ,-41.5,446.1,895.8,-0.5,-0.5,-1.7,25,-42.0154,444.704,895.881,-0.337457,-0.408595,-1.70521,
2026_06_26_17_22_55.767,3.867,27.5,0,0.757,0,0,0,0.022, ,0,0,0,0,0, ,-40.8,444.7,895.3,-0.4,-0.4,-1.6,25,-41.9626,444.747,895.861,-0.344315,-0.411118,-1.70185,
2026_06_26_17_22_55.788,3.867,27.3,0,0.755,0,0,0,0.022, ,0,0,0,0,0, ,-42.3,444.5,894.8,-0.5,-0.4,-1.7,25,-41.9375,444.738,895.811,-0.350755,-0.410441,-1.69869,
2026_06_26_17_22_55.807,3.867,27.3,0,0.755,0,0,0,0.024, ,0,0,0,0,0, ,-41.3,444.9,894.5,-0.4,-0.4,-1.8,25,-41.9291,444.735,895.741,-0.356803,-0.409804,-1.70181,
2026_06_26_17_22_55.827,3.867,27.5,0,0.755,0,0,0,0.024, ,0,0,0,0,0, ,-40.6,444.8,896.3,-0.5,-0.4,-1.7,25,-41.8694,444.742,895.72,-0.362482,-0.409207,-1.70475,
2026_06_26_17_22_55.847,3.867,27.5,0,0.757,0,0,0,0.023, ,0,0,0,0,0, ,-41,443.6,896.7,-0.3,-0.4,-1.7,25,-41.8043,444.709,895.767,-0.364768,-0.408646,-1.70446,
2026_06_26_17_22_55.866,3.867,27.5,0,0.758,0,0,0,0.023, ,0,0,0,0,0, ,-42.1,445.8,893.6,-0.5,-0.4,-1.7,25,-41.7888,444.709,895.73,-0.366915,-0.408119,-1.70419,
2026_06_26_17_22_55.886,3.867,27.5,0,0.755,0,0,0,0.023, ,0,0,0,0,0, ,-41.3,447,895.9,-0.4,-0.4,-1.6,25,-41.7834,444.812,895.67,-0.371978,-0.407624,-1.70089,
2026_06_26_17_22_55.907,3.867,27.5,0,0.757,0,0,0,0.023, ,0,0,0,0,0, ,-41.6,444.8,894.4,-0.5,-0.4,-1.7,25,-41.7631,444.878,895.638,-0.376733,-0.40716,-1.69779,
2026_06_26_17_22_55.926,3.867,27.5,0,0.757,0,0,0,0.024, ,0,0,0,0,0, ,-41.7,444,896.6,-0.5,-0.5,-1.7,25,-41.7562,444.849,895.63,-0.384244,-0.40977,-1.69792,
2026_06_26_17_22_55.946,3.867,27.5,0,0.757,0,0,0,0.024, ,0,0,0,0,0, ,-41.2,446.1,897.2,-0.4,-0.4,-1.6,25,-41.7375,444.861,895.707,-0.388251,-0.412222,-1.695,
2026_06_26_17_22_55.966,3.867,27.6,0,0.757,0,0,0,0.024, ,0,0,0,0,0, ,-41.1,443.3,895.8,-0.4,-0.4,-1.7,25,-41.7017,444.851,895.756,-0.388967,-0.411477,-1.69226,
2026_06_26_17_22_55.985,3.867,27.5,0,0.757,0,0,0,0.024, ,0,0,0,0,0, ,-41,446.1,896.4,-0.5,-0.4,-1.7,25,-41.662,444.842,895.777,-0.392686,-0.410778,-1.69273,
2026_06_26_17_22_56.005,3.867,27.6,0,0.758,0,0,0,0.025, ,0,0,0,0,0, ,-39.6,445.9,895.3,-0.3,-0.5,-1.8,25,-41.579,444.913,895.781,-0.393132,-0.413168,-1.69622,
2026_06_26_17_22_56.025,3.867,27.6,0,0.758,0,0,0,0.024, ,0,0,0,0,0, ,-41.3,445.9,893.6,-0.5,-0.5,-1.6,25,-41.5102,444.973,895.7,-0.393551,-0.418459,-1.69645,
2026_06_26_17_22_56.046,3.867,27.6,0,0.757,0,0,0,0.024, ,0,0,0,0,0, ,-42.8,444.5,896.2,-0.5,-0.4,-1.7,25,-41.5431,444.987,895.651,-0.400037,-0.420381,-1.69362,
2026_06_26_17_22_56.065,3.867,27.5,0,0.757,0,0,0,0.025, ,0,0,0,0,0, ,-41.8,444.7,896.2,-0.4,-0.4,-1.7,25,-41.5892,444.963,895.685,-0.403082,-0.419139,-1.69401,
2026_06_26_17_22_56.087,3.867,27.6,0,0.758,0,0,0,0.026, ,0,0,0,0,0, ,-40.7,444.4,895.9,-0.4,-0.3,-1.6,25,-41.5685,444.938,895.707,-0.402894,-0.414926,-1.69133,
2026_06_26_17_22_56.104,3.867,27.6,0,0.758,0,0,0,0.025, ,0,0,0,0,0, ,-41.9,444.3,894.2,-0.4,-0.4,-1.6,25,-41.5522,444.902,895.667,-0.402718,-0.41097,-1.68576,
2026_06_26_17_22_56.124,3.867,27.7,0,0.758,0,0,0,0.025, ,0,0,0,0,0, ,-40.7,444.9,895.3,-0.5,-0.4,-1.7,25,-41.5368,444.884,895.611,-0.405599,-0.410301,-1.68358,
2026_06_26_17_22_56.144,3.867,27.7,0,0.757,0,0,0,0.025, ,0,0,0,0,0, ,-40.5,444.4,896.8,-0.4,-0.4,-1.7,25,-41.4797,444.87,895.638,-0.408305,-0.409673,-1.68458,
2026_06_26_17_22_56.164,3.867,27.7,0,0.755,0,0,0,0.025, ,0,0,0,0,0, ,-41.7,444.3,895.9,-0.4,-0.3,-1.7,25,-41.4566,444.838,895.681,-0.407799,-0.406037,-1.68552,
2026_06_26_17_22_56.183,3.867,27.7,0,0.755,0,0,0,0.025, ,0,0,0,0,0, ,-40.2,445.4,895.6,-0.3,-0.4,-1.7,25,-41.4257,444.839,895.685,-0.404277,-0.402622,-1.6864,
2026_06_26_17_22_56.203,3.867,27.7,0,0.758,0,0,0,0.025, ,0,0,0,0,0, ,-40.5,444.4,896.1,-0.5,-0.4,-1.7,25,-41.3602,444.842,895.695,-0.404016,-0.402462,-1.68723,
2026_06_26_17_22_56.225,3.867,27.7,0,0.758,0,0,0,0.026, ,0,0,0,0,0, ,-41.2,446.6,894.7,-0.3,-0.4,-1.7,25,-41.3291,444.882,895.677,-0.403771,-0.402312,-1.68801,
2026_06_26_17_22_56.243,3.867,27.7,0,0.758,0,0,0,0.026, ,0,0,0,0,0, ,-42.2,444.7,894.4,-0.3,-0.4,-1.7,25,-41.3517,444.929,895.609,-0.397448,-0.402171,-1.68874,
2026_06_26_17_22_56.263,3.867,27.7,0,0.757,0,0,0,0.026, ,0,0,0,0,0, ,-40.5,444.9,895.9,-0.5,-0.4,-1.6,25,-41.3516,444.921,895.581,-0.397603,-0.402039,-1.68638,
2026_06_26_17_22_56.282,3.867,27.7,0,0.76,0,0,0,0.026, ,0,0,0,0,0, ,-42.2,446,895.6,-0.4,-0.5,-1.6,25,-41.3515,444.954,895.591,-0.400796,-0.404962,-1.68112,
2026_06_26_17_22_56.302,3.867,27.7,0,0.758,0,0,0,0.027, ,0,0,0,0,0, ,-41.1,443.6,895.9,-0.5,-0.3,-1.7,25,-41.3697,444.944,895.601,-0.403794,-0.404659,-1.67922,
2026_06_26_17_22_56.322,3.867,27.8,0,0.76,0,0,0,0.027, ,0,0,0,0,0, ,-41.7,445.5,893.7,-0.4,-0.4,-1.7,25,-41.3715,444.92,895.552,-0.40661,-0.401329,-1.68049,
2026_06_26_17_22_56.341,3.867,27.7,0,0.758,0,0,0,0.026, ,0,0,0,0,0, ,-41.6,444,896.6,-0.4,-0.4,-1.7,25,-41.3885,444.91,895.527,-0.406207,-0.401248,-1.68168,
2026_06_26_17_22_56.361,3.867,27.8,0,0.759,0,0,0,0.027, ,0,0,0,0,0, ,-42.3,445.4,894.4,-0.3,-0.4,-1.7,25,-41.4227,444.897,895.526,-0.402782,-0.401172,-1.68279,
2026_06_26_17_22_56.381,3.867,27.8,0,0.758,0,0,0,0.027, ,0,0,0,0,0, ,-41.8,445.1,895.6,-0.7,-0.4,-1.8,25,-41.4609,444.919,895.494,-0.408706,-0.4011,-1.68689,
2026_06_26_17_22_56.401,3.867,27.9,0,0.758,0,0,0,0.027, ,0,0,0,0,0, ,-41.7,444.9,895,-0.3,-0.4,-1.7,25,-41.4785,444.923,895.482,-0.41427,-0.401033,-1.69073,
2026_06_26_17_22_56.421,3.867,27.8,0,0.758,0,0,0,0.026, ,0,0,0,0,0, ,-39.5,444,893.5,-0.6,-0.4,-1.6,25,-41.425,444.895,895.407,-0.416447,-0.40097,-1.68825,
2026_06_26_17_22_56.441,3.867,27.9,0,0.758,0,0,0,0.027, ,0,0,0,0,0, ,-41.8,444.7,895.6,-0.3,-0.4,-1.7,25,-41.3778,444.861,895.355,-0.418492,-0.400911,-1.68592,
2026_06_26_17_22_56.461,3.867,27.9,0,0.758,0,0,0,0.027, ,0,0,0,0,0, ,-43.2,443.7,895.1,-0.5,-0.5,-1.8,25,-41.4462,444.821,895.354,-0.417365,-0.403902,-1.68983,
2026_06_26_17_22_56.480,3.867,27.8,0,0.757,0,0,0,0.027, ,0,0,0,0,0, ,-42.8,445.1,895.9,-0.4,-0.4,-1.7,25,-41.5409,444.795,895.363,-0.419353,-0.406712,-1.69349,
2026_06_26_17_22_56.500,3.867,28.1,0,0.757,0,0,0,0.028, ,0,0,0,0,0, ,-40.8,445.9,895.9,-0.3,-0.4,-1.7,25,-41.5566,444.838,895.396,-0.415127,-0.406303,-1.69389,
2026_06_26_17_22_56.520,3.867,27.9,0,0.758,0,0,0,0.026, ,0,0,0,0,0, ,-41.3,444.8,895.8,-0.6,-0.4,-1.7,25,-41.5258,444.87,895.424,-0.417252,-0.405918,-1.69426,
2026_06_26_17_22_56.539,3.867,27.8,0,0.758,0,0,0,0.027, ,0,0,0,0,0, ,-41.2,444.8,895.7,-0.4,-0.4,-1.6,25,-41.509,444.865,895.444,-0.422295,-0.405558,-1.69156,
2026_06_26_17_22_56.560,3.867,28,0,0.757,0,0,0,0.029, ,0,0,0,0,0, ,-41.7,443.6,896.2,-0.4,-0.5,-1.7,25,-41.5054,444.825,895.474,-0.420936,-0.408266,-1.68903,
2026_06_26_17_22_56.579,3.867,28,0,0.758,0,0,0,0.027, ,0,0,0,0,0, ,-40.7,444.7,894.6,-0.3,-0.4,-1.8,25,-41.4868,444.784,895.47,-0.416613,-0.410809,-1.69275,
2026_06_26_17_22_56.599,3.867,28,0,0.758,0,0,0,0.027, ,0,0,0,0,0, ,-41.8,445.4,895.1,-0.5,-0.3,-1.7,25,-41.4723,444.8,895.432,-0.415601,-0.407104,-1.69624,
2026_06_26_17_22_56.621,3.867,28,0,0.758,0,0,0,0.028, ,0,0,0,0,0, ,-42.4,446.2,894.8,-0.5,-0.4,-1.7,25,-41.5106,444.861,895.403,-0.420744,-0.403624,-1.69646,
2026_06_26_17_22_56.638,3.867,27.9,0,0.757,0,0,0,0.028, ,0,0,0,0,0, ,-40.4,444.4,895.7,-0.5,-0.4,-1.6,25,-41.5038,444.888,895.393,-0.425574,-0.403403,-1.69363,
2026_06_26_17_22_56.658,3.867,28,0,0.758,0,0,0,0.029, ,0,0,0,0,0, ,-41.6,445.5,894.8,-0.5,-0.4,-1.7,25,-41.4731,444.891,895.385,-0.430109,-0.403196,-1.69097,
2026_06_26_17_22_56.678,3.867,28.1,0,0.759,0,0,0,0.028, ,0,0,0,0,0, ,-42.1,442.6,895.1,-0.4,-0.4,-1.7,25,-41.4961,444.84,895.358,-0.431321,-0.403001,-1.69152,
2026_06_26_17_22_56.698,3.867,28,0,0.758,0,0,0,0.028, ,0,0,0,0,0, ,-41.9,445,895.1,-0.5,-0.4,-1.7,25,-41.5268,444.777,895.342,-0.432459,-0.402818,-1.69204,
2026_06_26_17_22_56.718,3.867,28,0,0.759,0,0,0,0.029, ,0,0,0,0,0, ,-41,443.8,896.3,-0.4,-0.4,-1.7,25,-41.5221,444.754,895.364,-0.433528,-0.402646,-1.69253,
2026_06_26_17_22_56.742,3.867,28,0,0.758,0,0,0,0.029, ,0,0,0,0,0, ,-42.2,444.7,895.2,-0.4,-0.4,-1.7,25,-41.5269,444.723,895.388,-0.431485,-0.402485,-1.69298,
2026_06_26_17_22_56.758,3.867,28.2,0,0.757,0,0,0,0.029, ,0,0,0,0,0, ,-41,445.6,896.2,-0.5,-0.4,-1.6,25,-41.5313,444.749,895.407,-0.432613,-0.402334,-1.69036,
2026_06_26_17_22_56.777,3.867,28.1,0,0.758,0,0,0,0.028, ,0,0,0,0,0, ,-41.9,444.9,894.4,-0.4,-0.3,-1.7,25,-41.5264,444.78,895.4,-0.433673,-0.399145,-1.6879,
2026_06_26_17_22_56.797,3.867,28.1,0,0.757,0,0,0,0.028, ,0,0,0,0,0, ,-40.2,445.5,894.4,-0.5,-0.4,-1.8,25,-41.4973,444.805,895.339,-0.434668,-0.39615,-1.69169,
2026_06_26_17_22_56.817,3.867,28.2,0,0.758,0,0,0,0.029, ,0,0,0,0,0, ,-41.2,445.1,895.8,-0.3,-0.5,-1.7,25,-41.4488,444.835,895.325,-0.432555,-0.399431,-1.69524,
2026_06_26_17_22_56.836,3.867,28.1,0,0.759,0,0,0,0.028, ,0,0,0,0,0, ,-41.7,444.8,894.7,-0.5,-0.4,-1.7,25,-41.4488,444.842,895.32,-0.430571,-0.402513,-1.69553,
2026_06_26_17_22_56.857,3.867,28.1,0,0.759,0,0,0,0.029, ,0,0,0,0,0, ,-42.4,443.9,896.1,-0.5,-0.4,-1.7,25,-41.4855,444.812,895.325,-0.434802,-0.40236,-1.6958,
2026_06_26_17_22_56.882,3.867,28.2,0,0.758,0,0,0,0.029, ,0,0,0,0,0, ,-40.2,444.8,895.8,-0.4,-0.4,-1.8,25,-41.4742,444.784,895.363,-0.435728,-0.402216,-1.69911,
2026_06_26_17_22_56.896,3.867,28.1,0,0.759,0,0,0,0.029, ,0,0,0,0,0, ,-40.7,447.2,896.2,-0.4,-0.4,-1.8,25,-41.4118,444.858,895.402,-0.433551,-0.402081,-1.70525,
2026_06_26_17_22_56.915,3.867,28.1,0,0.758,0,0,0,0.03, ,0,0,0,0,0, ,-42.2,443.6,895.1,-0.4,-0.5,-1.7,25,-41.4141,444.891,895.417,-0.431507,-0.405001,-1.70798,
2026_06_26_17_22_56.935,3.867,28.2,0,0.757,0,0,0,0.03, ,0,0,0,0,0, ,-41.3,443.2,894.4,-0.4,-0.5,-1.6,25,-41.4346,444.8,895.376,-0.429587,-0.41079,-1.70445,
2026_06_26_17_22_56.956,3.867,28.3,0,0.757,0,0,0,0.029, ,0,0,0,0,0, ,-41.9,445,895,-0.3,-0.3,-1.6,25,-41.4446,444.758,895.335,-0.424737,-0.410132,-1.69808,
2026_06_26_17_22_56.975,3.867,28.5,0,0.759,0,0,0,0.029, ,0,0,0,0,0, ,-41.5,444.7,895.3,-0.3,-0.4,-1.6,25,-41.4602,444.763,895.324,-0.417136,-0.406468,-1.69211,
2026_06_26_17_22_56.995,3.867,28.3,0,0.758,0,0,0,0.027, ,0,0,0,0,0, ,-40.8,444.7,895.6,-0.5,-0.4,-1.7,25,-41.4413,444.76,895.332,-0.416092,-0.406074,-1.68954,
2026_06_26_17_22_57.015,3.867,28.2,0,0.759,0,0,0,0.029, ,0,0,0,0,0, ,-41.3,445.1,894.4,-0.5,-0.4,-1.8,25,-41.4175,444.768,895.311,-0.421205,-0.405704,-1.69322,
2026_06_26_17_22_57.035,3.867,28.3,0,0.759,0,0,0,0.03, ,0,0,0,0,0, ,-41,445.6,895.1,-0.5,-0.4,-1.7,25,-41.4012,444.804,895.277,-0.426006,-0.405356,-1.69668,
2026_06_26_17_22_57.054,3.867,28.3,0,0.757,0,0,0,0.029, ,0,0,0,0,0, ,-41.2,445.5,894.8,-0.4,-0.4,-1.7,25,-41.3828,444.849,895.257,-0.427468,-0.40503,-1.69689,
2026_06_26_17_22_57.074,3.867,28.3,0,0.759,0,0,0,0.029, ,0,0,0,0,0, ,-40.8,445.8,895.1,-0.5,-0.4,-1.7,25,-41.3595,444.898,895.239,-0.428841,-0.404723,-1.69708,
2026_06_26_17_22_57.094,3.867,28.4,0,0.759,0,0,0,0.03, ,0,0,0,0,0, ,-41.3,444.4,895.6,-0.5,-0.5,-1.7,25,-41.3406,444.91,895.245,-0.433178,-0.407482,-1.69725,
2026_06_26_17_22_57.114,3.867,28.4,0,0.758,0,0,0,0.029, ,0,0,0,0,0, ,-41.5,443.3,895.3,-0.4,-0.4,-1.7,25,-41.3442,444.846,895.258,-0.434203,-0.410073,-1.69742,
2026_06_26_17_22_57.134,3.867,28.4,0,0.758,0,0,0,0.029, ,0,0,0,0,0, ,-40.6,445.8,894.8,-0.4,-0.4,-1.8,25,-41.3263,444.828,895.245,-0.432119,-0.409459,-1.70063,
2026_06_26_17_22_57.153,3.867,28.4,0,0.758,0,0,0,0.029, ,0,0,0,0,0, ,-42.6,444.7,894.7,-0.3,-0.4,-1.7,25,-41.343,444.853,895.215,-0.427114,-0.408883,-1.70363,
2026_06_26_17_22_57.173,3.867,28.4,0,0.758,0,0,0,0.029, ,0,0,0,0,0, ,-41.3,444.5,894.1,-0.5,-0.4,-1.7,25,-41.38,444.838,895.165,-0.425462,-0.408342,-1.70341,
2026_06_26_17_22_57.193,3.867,28.5,0,0.76,0,0,0,0.03, ,0,0,0,0,0, ,-41.3,445.6,895.8,-0.5,-0.4,-1.6,25,-41.3751,444.851,895.152,-0.430004,-0.407833,-1.70016,
2026_06_26_17_22_57.213,3.867,28.5,0,0.758,0,0,0,0.029, ,0,0,0,0,0, ,-40,444.5,894.5,-0.5,-0.4,-1.7,25,-41.3309,444.863,895.152,-0.43427,-0.407356,-1.6971,
2026_06_26_17_22_57.233,3.867,28.5,0,0.758,0,0,0,0.029, ,0,0,0,0,0, ,-42.4,443.2,895.5,-0.6,-0.5,-1.7,25,-41.3229,444.801,895.143,-0.441322,-0.409955,-1.69728,
2026_06_26_17_22_57.253,3.867,28.5,0,0.759,0,0,0,0.029, ,0,0,0,0,0, ,-41.9,445.4,894.8,-0.4,-0.4,-1.7,25,-41.3733,444.771,895.143,-0.444898,-0.412395,-1.69744,
2026_06_26_17_22_57.276,3.867,28.6,0,0.759,0,0,0,0.029, ,0,0,0,0,0, ,-40.2,443.4,893.7,-0.5,-0.4,-1.7,25,-41.3536,444.748,895.089,-0.445209,-0.41164,-1.6976,
2026_06_26_17_22_57.292,3.867,28.7,0,0.759,0,0,0,0.029, ,0,0,0,0,0, ,-42.4,445.4,895,-0.4,-0.4,-1.8,25,-41.3504,444.727,895.044,-0.445501,-0.41093,-1.70079,
2026_06_26_17_22_57.312,3.867,28.6,0,0.758,0,0,0,0.028, ,0,0,0,0,0, ,-40.2,445.4,895.3,-0.5,-0.4,-1.7,25,-41.3473,444.768,895.05,-0.445775,-0.410264,-1.70379,
2026_06_26_17_22_57.332,3.867,28.6,0,0.759,0,0,0,0.029, ,0,0,0,0,0, ,-41.6,445,895.1,-0.5,-0.5,-1.7,25,-41.32,444.794,895.059,-0.449079,-0.412686,-1.70356,
2026_06_26_17_22_57.351,3.867,28.6,0,0.758,0,0,0,0.029, ,0,0,0,0,0, ,-41.6,443.9,895.8,-0.4,-0.4,-1.7,25,-41.3371,444.773,895.083,-0.449135,-0.41496,-1.70334,
2026_06_26_17_22_57.372,3.867,28.6,0,0.76,0,0,0,0.029, ,0,0,0,0,0, ,-41.6,444.9,896.2,-0.4,-0.5,-1.7,25,-41.3531,444.75,895.139,-0.446141,-0.417095,-1.70314,
2026_06_26_17_22_57.391,3.867,28.7,0,0.759,0,0,0,0.029, ,0,0,0,0,0, ,-41.2,444.9,894.8,-0.5,-0.4,-1.7,25,-41.356,444.76,895.161,-0.446376,-0.4191,-1.70295,
2026_06_26_17_22_57.410,3.867,28.7,0,0.759,0,0,0,0.029, ,0,0,0,0,0, ,-40.1,445.3,894.5,-0.3,-0.4,-1.7,25,-41.313,444.78,895.13,-0.44355,-0.417936,-1.70277,
2026_06_26_17_22_57.431,3.867,28.8,0,0.759,0,0,0,0.029, ,0,0,0,0,0, ,-41.7,444.8,896.4,-0.5,-0.5,-1.7,25,-41.2878,444.797,895.149,-0.440896,-0.41989,-1.7026,
2026_06_26_17_22_57.451,3.867,28.8,0,0.759,0,0,0,0.028, ,0,0,0,0,0, ,-41.1,444.9,895.3,-0.4,-0.5,-1.7,25,-41.2946,444.8,895.192,-0.441451,-0.424772,-1.70244,
2026_06_26_17_22_57.471,3.867,28.8,0,0.759,0,0,0,0.028, ,0,0,0,0,0, ,-40.4,444.5,895,-0.5,-0.5,-1.7,25,-41.2614,444.794,895.19,-0.441972,-0.429356,-1.70229,
2026_06_26_17_22_57.490,3.867,28.7,0,0.76,0,0,0,0.028, ,0,0,0,0,0, ,-42.8,445.4,895.1,-0.3,-0.4,-1.7,25,-41.2821,444.803,895.181,-0.439414,-0.430614,-1.70215,
2026_06_26_17_22_57.511,3.867,28.8,0,0.758,0,0,0,0.029, ,0,0,0,0,0, ,-41.9,445.1,894.7,-0.5,-0.4,-1.7,25,-41.3471,444.831,895.164,-0.437013,-0.428748,-1.70202,
2026_06_26_17_22_57.530,3.867,28.8,0,0.758,0,0,0,0.029, ,0,0,0,0,0, ,-41.9,444.3,894.7,-0.4,-0.4,-1.7,25,-41.3808,444.823,895.136,-0.437804,-0.426996,-1.7019,
2026_06_26_17_22_57.551,3.867,28.8,0,0.759,0,0,0,0.029, ,0,0,0,0,0, ,-41.1,446.1,894.8,-0.6,-0.4,-1.7,25,-41.3881,444.846,895.112,-0.441594,-0.425351,-1.70178,
2026_06_26_17_22_57.570,3.867,28.9,0,0.758,0,0,0,0.029, ,0,0,0,0,0, ,-39.6,444.2,895,-0.3,-0.5,-1.6,25,-41.3248,444.864,895.099,-0.442106,-0.426853,-1.69863,
2026_06_26_17_22_57.590,3.867,28.9,0,0.758,0,0,0,0.028, ,0,0,0,0,0, ,-41.3,445,896.3,-0.5,-0.4,-1.7,25,-41.2715,444.848,895.133,-0.43954,-0.428264,-1.69566,
2026_06_26_17_22_57.609,3.867,28.9,0,0.76,0,0,0,0.028, ,0,0,0,0,0, ,-44,443.2,896.2,-0.2,-0.4,-1.7,25,-41.3555,444.803,895.201,-0.434084,-0.426542,-1.69593,
2026_06_26_17_22_57.629,3.867,28.9,0,0.758,0,0,0,0.028, ,0,0,0,0,0, ,-41.7,444.4,895.5,-0.8,-0.4,-1.7,25,-41.4466,444.741,895.24,-0.438101,-0.424924,-1.69618,
2026_06_26_17_22_57.649,3.867,28.9,0,0.758,0,0,0,0.029, ,0,0,0,0,0, ,-40.8,444.4,894.4,0,-0.4,-1.7,25,-41.4346,444.721,895.223,-0.435779,-0.423405,-1.69641,
2026_06_26_17_22_57.669,3.867,29.1,0,0.76,0,0,0,0.029, ,0,0,0,0,0, ,-40.8,444,895.6,-0.9,-0.4,-1.8,25,-41.3959,444.689,895.209,-0.436646,-0.421979,-1.69968,
2026_06_26_17_22_57.689,3.867,28.9,0,0.759,0,0,0,0.027, ,0,0,0,0,0, ,-40.1,444.4,895,-0.2,-0.4,-1.6,25,-41.3383,444.659,895.215,-0.443553,-0.42064,-1.69969,
2026_06_26_17_22_57.709,3.867,28.9,0,0.758,0,0,0,0.029, ,0,0,0,0,0, ,-40.4,443.7,896.3,-0.7,-0.4,-1.8,25,-41.272,444.622,895.241,-0.443946,-0.419382,-1.69971,
2026_06_26_17_22_57.728,3.867,29.2,0,0.759,0,0,0,0.029, ,0,0,0,0,0, ,-42.1,445.4,894.7,-0.1,-0.5,-1.6,25,-41.2706,444.618,895.257,-0.441268,-0.421248,-1.69973,
2026_06_26_17_22_57.748,3.867,29.1,0,0.758,0,0,0,0.027, ,0,0,0,0,0, ,-42.6,443.7,894.8,-0.7,-0.4,-1.7,25,-41.3364,444.613,895.226,-0.438753,-0.423,-1.6967,
2026_06_26_17_22_57.768,3.867,29.2,0,0.759,0,0,0,0.028, ,0,0,0,0,0, ,-40.6,446.4,894,-0.3,-0.4,-1.7,25,-41.3525,444.64,895.176,-0.442486,-0.421598,-1.6969,
2026_06_26_17_22_57.788,3.867,29.1,0,0.759,0,0,0,0.027, ,0,0,0,0,0, ,-40.7,445.9,895.3,-0.8,-0.4,-1.7,25,-41.3097,444.732,895.144,-0.449037,-0.420282,-1.69709,
2026_06_26_17_22_57.807,3.867,29.1,0,0.758,0,0,0,0.028, ,0,0,0,0,0, ,-41.1,443.7,894.6,-0.1,-0.4,-1.7,25,-41.2847,444.736,895.132,-0.449096,-0.419046,-1.69727,
2026_06_26_17_22_57.827,3.867,29.2,0,0.758,0,0,0,0.028, ,0,0,0,0,0, ,-40.8,446,896.4,-0.7,-0.4,-1.7,25,-41.2643,444.743,895.154,-0.446104,-0.417886,-1.69743,
2026_06_26_17_22_57.847,3.867,29.2,0,0.759,0,0,0,0.027, ,0,0,0,0,0, ,-41.3,443.6,895,-0.3,-0.4,-1.7,25,-41.2513,444.747,895.188,-0.449388,-0.416796,-1.69759,
2026_06_26_17_22_57.867,3.867,29.2,0,0.758,0,0,0,0.027, ,0,0,0,0,0, ,-41.2,444.4,895.7,-0.6,-0.4,-1.7,25,-41.2512,444.701,895.197,-0.449426,-0.415772,-1.69774,
2026_06_26_17_22_57.886,3.867,29.3,0,0.758,0,0,0,0.027, ,0,0,0,0,0, ,-41.7,444.4,895.7,-0.2,-0.4,-1.6,25,-41.2633,444.683,895.228,-0.446414,-0.414811,-1.69483,
2026_06_26_17_22_57.907,3.867,29.3,0,0.76,0,0,0,0.027, ,0,0,0,0,0, ,-40.7,445.3,895.5,-0.6,-0.4,-1.7,25,-41.2594,444.693,895.251,-0.443585,-0.413909,-1.6921,
2026_06_26_17_22_57.926,3.867,29.3,0,0.761,0,0,0,0.027, ,0,0,0,0,0, ,-41.3,443.3,894.2,-0.3,-0.4,-1.7,25,-41.2436,444.669,895.226,-0.443976,-0.413061,-1.69258,
2026_06_26_17_22_57.946,3.867,29.4,0,0.759,0,0,0,0.027, ,0,0,0,0,0, ,-41.9,445,896.3,-0.5,-0.4,-1.7,25,-41.2653,444.637,895.228,-0.441296,-0.412265,-1.69303,
2026_06_26_17_22_57.966,3.867,29.4,0,0.758,0,0,0,0.026, ,0,0,0,0,0, ,-41.9,445.4,894.4,-0.1,-0.4,-1.7,25,-41.304,444.672,895.235,-0.432686,-0.411518,-1.69346,
2026_06_26_17_22_57.985,3.867,29.4,0,0.759,0,0,0,0.026, ,0,0,0,0,0, ,-41.7,445.8,895.7,-0.8,-0.5,-1.6,25,-41.3342,444.728,895.224,-0.433741,-0.413863,-1.69081,
2026_06_26_17_22_58.006,3.867,29.4,0,0.758,0,0,0,0.026, ,0,0,0,0,0, ,-42.6,444.9,897.5,-0.2,-0.4,-1.6,25,-41.384,444.766,895.308,-0.437779,-0.416065,-1.68527,
2026_06_26_17_22_58.025,3.867,29.4,0,0.759,0,0,0,0.026, ,0,0,0,0,0, ,-40.1,446.4,896.2,-0.7,-0.4,-1.7,25,-41.3819,444.82,895.402,-0.438524,-0.415086,-1.68312,
2026_06_26_17_22_58.045,3.867,29.4,0,0.759,0,0,0,0.026, ,0,0,0,0,0, ,-41,445.1,894,-0.1,-0.4,-1.7,25,-41.3312,444.877,895.383,-0.436176,-0.414167,-1.68415,
2026_06_26_17_22_58.064,3.867,29.4,0,0.758,0,0,0,0.026, ,0,0,0,0,0, ,-39.9,445,894.8,-0.7,-0.5,-1.7,25,-41.2775,444.887,895.323,-0.433972,-0.41635,-1.68512,
2026_06_26_17_22_58.084,3.867,29.5,0,0.76,0,0,0,0.026, ,0,0,0,0,0, ,-41.5,446,895.7,-0.3,-0.4,-1.7,25,-41.2423,444.925,895.319,-0.437995,-0.418401,-1.68603,
2026_06_26_17_22_58.110,3.867,29.5,0,0.758,0,0,0,0.026, ,0,0,0,0,0, ,-41.8,445.1,894.7,-0.4,-0.5,-1.7,25,-41.2671,444.963,895.312,-0.432633,-0.420326,-1.68688,
2026_06_26_17_22_58.124,3.867,29.5,0,0.76,0,0,0,0.026, ,0,0,0,0,0, ,-42.1,444.3,895,-0.4,-0.4,-1.7,25,-41.3088,444.947,895.284,-0.430644,-0.422135,-1.68768,
2026_06_26_17_22_58.144,3.867,29.6,0,0.759,0,0,0,0.026, ,0,0,0,0,0, ,-40.5,445.4,895.9,-0.4,-0.4,-1.7,25,-41.3082,444.941,895.294,-0.428777,-0.420786,-1.68843,
2026_06_26_17_22_58.164,3.867,29.6,0,0.759,0,0,0,0.025, ,0,0,0,0,0, ,-42.3,443.7,895.9,-0.5,-0.5,-1.7,25,-41.3138,444.917,895.331,-0.43007,-0.422566,-1.68913,
2026_06_26_17_22_58.183,3.867,29.6,0,0.759,0,0,0,0.025, ,0,0,0,0,0, ,-41.1,447.1,896.3,-0.5,-0.4,-1.7,25,-41.3373,444.946,895.378,-0.434332,-0.424238,-1.68979,
2026_06_26_17_22_58.203,3.867,29.6,0,0.759,0,0,0,0.025, ,0,0,0,0,0, ,-42.1,442.3,894.1,-0.2,-0.4,-1.7,25,-41.3534,444.931,895.367,-0.429193,-0.422761,-1.69042,
2026_06_26_17_22_58.223,3.867,29.6,0,0.76,0,0,0,0.025, ,0,0,0,0,0, ,-41.7,446.4,896.4,-0.9,-0.4,-1.7,25,-41.3867,444.896,895.36,-0.436554,-0.421374,-1.691,
2026_06_26_17_22_58.247,3.867,29.6,0,0.759,0,0,0,0.025, ,0,0,0,0,0, ,-40.8,442.1,895.1,-0.1,-0.4,-1.7,25,-41.3783,444.857,895.383,-0.440421,-0.420071,-1.69155,
2026_06_26_17_22_58.263,3.867,29.6,0,0.76,0,0,0,0.025, ,0,0,0,0,0, ,-41.2,445.6,895.9,-0.8,-0.5,-1.7,25,-41.3553,444.795,895.391,-0.441004,-0.421895,-1.69206,
2026_06_26_17_22_58.282,3.867,29.6,0,0.759,0,0,0,0.025, ,0,0,0,0,0, ,-41.5,443.7,895.8,0,-0.4,-1.6,25,-41.355,444.786,895.419,-0.438506,-0.423608,-1.6895,
2026_06_26_17_22_58.302,3.867,29.7,0,0.76,0,0,0,0.025, ,0,0,0,0,0, ,-40.6,444.4,895.8,-1.1,-0.5,-1.8,25,-41.3364,444.742,895.442,-0.4453,-0.425216,-1.69014,
2026_06_26_17_22_58.322,3.867,29.6,0,0.76,0,0,0,0.024, ,0,0,0,0,0, ,-41.7,444.7,896.8,0,-0.4,-1.7,25,-41.325,444.73,895.494,-0.45168,-0.426726,-1.69379,
2026_06_26_17_22_58.342,3.867,29.5,0,0.758,0,0,0,0.025, ,0,0,0,0,0, ,-42.6,445.4,895.6,-0.8,-0.4,-1.7,25,-41.3753,444.749,895.537,-0.448531,-0.425098,-1.69417,
2026_06_26_17_22_58.362,3.867,29.6,0,0.76,0,0,0,0.026, ,0,0,0,0,0, ,-40.7,444.9,894,-0.1,-0.4,-1.7,25,-41.392,444.774,895.492,-0.44862,-0.423568,-1.69452,
2026_06_26_17_22_58.382,3.867,29.7,0,0.759,0,0,0,0.025, ,0,0,0,0,0, ,-42.6,445,897.4,-0.8,-0.5,-1.8,25,-41.4078,444.785,895.505,-0.448704,-0.425179,-1.6979,
2026_06_26_17_22_58.402,3.867,29.6,0,0.758,0,0,0,0.025, ,0,0,0,0,0, ,-42.1,445.8,896.8,-0.3,-0.4,-1.7,25,-41.4652,444.822,895.602,-0.454877,-0.426691,-1.70108,
2026_06_26_17_22_58.422,3.867,29.7,0,0.759,0,0,0,0.025, ,0,0,0,0,0, ,-42.3,442.2,894.8,-0.6,-0.5,-1.7,25,-41.5099,444.772,895.614,-0.45458,-0.428112,-1.70101,
2026_06_26_17_22_58.441,3.867,29.8,0,0.76,0,0,0,0.025, ,0,0,0,0,0, ,-42.6,446.7,895.6,-0.4,-0.4,-1.8,25,-41.5672,444.752,895.589,-0.457348,-0.429446,-1.704,
2026_06_26_17_22_58.461,3.867,29.7,0,0.76,0,0,0,0.024, ,0,0,0,0,0, ,-41,443.2,894.6,-0.5,-0.5,-1.7,25,-41.5814,444.764,895.559,-0.4569,-0.430698,-1.7068,
2026_06_26_17_22_58.481,3.867,29.8,0,0.759,0,0,0,0.025, ,0,0,0,0,0, ,-41.2,446,895.3,-0.5,-0.4,-1.8,25,-41.5521,444.754,895.522,-0.459526,-0.431874,-1.70943,
2026_06_26_17_22_58.501,3.867,29.9,0,0.759,0,0,0,0.024, ,0,0,0,0,0, ,-41.2,444.7,894.4,-0.4,-0.4,-1.7,25,-41.5306,444.791,895.481,-0.458946,-0.429932,-1.7119,
2026_06_26_17_22_58.521,3.867,29.8,0,0.759,0,0,0,0.023, ,0,0,0,0,0, ,-41,445.1,896.9,-0.2,-0.4,-1.8,25,-41.5044,444.797,895.491,-0.44926,-0.428108,-1.71423,
2026_06_26_17_22_58.540,3.867,29.8,0,0.76,0,0,0,0.024, ,0,0,0,0,0, ,-40.7,444.7,894.4,-0.5,-0.4,-1.8,25,-41.4645,444.804,895.501,-0.443211,-0.426395,-1.71945,
2026_06_26_17_22_58.560,3.867,29.8,0,0.761,0,0,0,0.024, ,0,0,0,0,0, ,-40.5,447,896.6,-0.3,-0.5,-1.6,25,-41.4118,444.867,895.501,-0.440578,-0.427834,-1.71827,
2026_06_26_17_22_58.580,3.867,29.8,0,0.76,0,0,0,0.024, ,0,0,0,0,0, ,-41.5,444,895.1,-0.5,-0.4,-1.7,25,-41.3867,444.906,895.522,-0.438105,-0.429184,-1.71411,
2026_06_26_17_22_58.600,3.867,29.8,0,0.76,0,0,0,0.024, ,0,0,0,0,0, ,-40.5,445.5,895.3,-0.4,-0.5,-1.7,25,-41.3632,444.896,895.503,-0.43883,-0.430453,-1.71325,
2026_06_26_17_22_58.620,3.867,29.8,0,0.759,0,0,0,0.024, ,0,0,0,0,0, ,-42.1,444.4,895.8,-0.5,-0.4,-1.7,25,-41.3593,444.9,895.505,-0.439511,-0.431644,-1.71244,
2026_06_26_17_22_58.645,3.867,29.9,0,0.758,0,0,0,0.024, ,0,0,0,0,0, ,-41.2,447.7,896.4,-0.6,-0.4,-1.7,25,-41.377,444.97,895.542,-0.446244,-0.429716,-1.71168,
2026_06_26_17_22_58.659,3.867,29.9,0,0.758,0,0,0,0.023, ,0,0,0,0,0, ,-42.2,443.4,894.2,-0.3,-0.4,-1.7,25,-41.3967,445.005,895.527,-0.446473,-0.427905,-1.71097,
2026_06_26_17_22_58.678,3.867,30,0,0.759,0,0,0,0.023, ,0,0,0,0,0, ,-41,446.5,895.6,-0.6,-0.5,-1.7,25,-41.4091,445.002,895.489,-0.446688,-0.429251,-1.7103,
2026_06_26_17_22_58.698,3.867,30,0,0.759,0,0,0,0.022, ,0,0,0,0,0, ,-40.8,444,895.5,-0.4,-0.4,-1.6,25,-41.3781,445.017,895.492,-0.449936,-0.430516,-1.70663,
2026_06_26_17_22_58.718,3.867,29.9,0,0.759,0,0,0,0, ,0,0,0,0,0, ,-40.7,446.2,897.2,-0.7,-0.4,-1.8,25,-41.3398,445.022,895.545,-0.456034,-0.428656,-1.70622,
2026_06_26_17_22_58.739,3.867,30,0,0.76,0,0,0,0, ,0,0,0,0,0, ,-41,442.9,896.1,-0.1,-0.4,-1.7,25,-41.31,444.993,895.612,-0.452619,-0.42691,-1.70889,
2026_06_26_17_22_58.758,3.867,29.9,0,0.76,0,0,0,0, ,0,0,0,0,0, ,-42.1,444.9,896.9,-0.7,-0.4,-1.7,25,-41.3246,444.927,895.666,-0.449413,-0.42527,-1.70835,
2026_06_26_17_22_58.782,3.867,30,0,0.76,0,0,0,0, ,0,0,0,0,0, ,-40.1,445.1,896.6,-0.2,-0.4,-1.6,25,-41.3109,444.931,895.732,-0.449449,-0.42373,-1.70479,
