UTC_Time,Vin,TC1,TC2,Rh1,Vh1,Ah1,Acp1,Dty1,Err1,Rh2,Vh2,Ah2,Acp2,Dty2,Err2,Accel_x,Accel_y,Accel_z,gyro_x,gyro_y,gyro_z,Temp_c,Accel_x_h,Accel_y_h,Accel_z_h,gyro_x_h,gyro_y_h,gyro_z_h,
2026_07_06_21_46_39.007,3.872,280.9,0,0.763,0,0,0,0, ,0,0,0,0,0, ,-40.7,423.9,905.3,-0.7,-0.5,-1.8,25,-40.7,423.9,905.3,-0.7,-0.5,-1.8,
2026_07_06_21_46_39.026,3.872,39.2,0,0.765,0,0,0,0, ,0,0,0,0,0, ,-41.1,424.3,906,-0.8,-0.5,-1.8,25,-40.7122,423.912,905.321,-0.703047,-0.5,-1.8,
2026_07_06_21_46_39.046,3.872,39.1,0,0.766,0,0,0,0, ,0,0,0,0,0, ,-39.3,423.4,906.6,-0.8,-0.5,-1.8,25,-40.681,423.908,905.381,-0.708955,-0.5,-1.8,
2026_07_06_21_46_39.065,3.872,39.1,0,0.766,0,0,0,0, ,0,0,0,0,0, ,-41.1,422.8,905.7,-0.8,-0.5,-1.8,25,-40.6517,423.859,905.428,-0.714503,-0.5,-1.8,
2026_07_06_21_46_39.085,3.872,39.1,0,0.767,0,0,0,0, ,0,0,0,0,0, ,-40.2,424.4,905.1,-0.5,-0.4,-1.7,25,-40.6516,423.843,905.426,-0.710572,-0.496953,-1.79695,
2026_07_06_21_46_39.105,3.872,39.1,0,0.766,0,0,0,0, ,0,0,0,0,0, ,-40.5,422.9,904.9,-0.7,-0.5,-1.7,25,-40.6332,423.832,905.4,-0.703834,-0.494092,-1.79105,
2026_07_06_21_46_39.125,3.872,39.1,0,0.767,0,0,0,0, ,0,0,0,0,0, ,-40.7,423,904.7,-0.6,-0.5,-1.7,25,-40.6312,423.778,905.364,-0.700554,-0.494452,-1.7855,
2026_07_06_21_46_39.145,3.872,39.1,0,0.766,0,0,0,0, ,0,0,0,0,0, ,-40,424,904.9,-0.6,-0.5,-1.8,25,-40.614,423.761,905.329,-0.694426,-0.49479,-1.78333,
2026_07_06_21_46_39.170,3.872,39.1,0,0.767,0,0,0,0, ,0,0,0,0,0, ,-39.6,422.3,904.9,-0.7,-0.5,-1.8,25,-40.5644,423.724,905.303,-0.691719,-0.495108,-1.78435,
2026_07_06_21_46_39.184,3.872,39,0,0.767,0,0,0,0, ,0,0,0,0,0, ,-40.7,424.5,904.1,-0.7,-0.5,-1.7,25,-40.5392,423.704,905.254,-0.692224,-0.495406,-1.78226,
2026_07_06_21_46_39.204,3.872,39,0,0.766,0,0,0,0, ,0,0,0,0,0, ,-41,422.1,905.1,-0.6,-0.5,-1.7,25,-40.5581,423.679,905.214,-0.689651,-0.495686,-1.77724,
2026_07_06_21_46_39.224,3.872,39.1,0,0.767,0,0,0,0, ,0,0,0,0,0, ,-41.2,422.4,905.2,-0.7,-0.5,-1.7,25,-40.5911,423.592,905.21,-0.687234,-0.495949,-1.77254,
2026_07_06_21_46_39.243,3.872,39,0,0.766,0,0,0,0, ,0,0,0,0,0, ,-40.1,422.1,905.5,-0.7,-0.5,-1.8,25,-40.5947,423.51,905.219,-0.688012,-0.496195,-1.77116,
2026_07_06_21_46_39.263,3.872,39.1,0,0.766,0,0,0,0, ,0,0,0,0,0, ,-38.9,421.9,904.5,-0.8,-0.6,-1.7,25,-40.528,423.418,905.206,-0.69179,-0.499474,-1.76987,
2026_07_06_21_46_39.283,3.872,39.1,0,0.767,0,0,0,0, ,0,0,0,0,0, ,-40.2,422.3,906,-0.7,-0.6,-1.7,25,-40.4684,423.338,905.208,-0.695337,-0.5056,-1.76562,
2026_07_06_21_46_39.303,3.872,39.1,0,0.767,0,0,0,0, ,0,0,0,0,0, ,-40.5,423.3,903.6,-0.7,-0.4,-1.8,25,-40.4612,423.305,905.183,-0.695621,-0.505259,-1.76466,
2026_07_06_21_46_39.328,3.872,39.2,0,0.766,0,0,0,0, ,0,0,0,0,0, ,-40.8,422.9,905.1,-0.8,-0.5,-1.7,25,-40.4727,423.293,905.133,-0.698935,-0.501891,-1.76377,
2026_07_06_21_46_39.342,3.872,39.1,0,0.766,0,0,0,0, ,0,0,0,0,0, ,-41.1,422.4,906,-0.6,-0.5,-1.8,25,-40.5018,423.254,905.158,-0.699,-0.501776,-1.76293,
2026_07_06_21_46_39.362,3.872,39.1,0,0.766,0,0,0,0, ,0,0,0,0,0, ,-41.9,421.6,907.3,-0.5,-0.5,-1.7,25,-40.5626,423.177,905.249,-0.68992,-0.501668,-1.76214,
2026_07_06_21_46_39.382,3.872,39.1,0,0.767,0,0,0,0, ,0,0,0,0,0, ,-39.4,423.2,905,-0.8,-0.5,-1.7,25,-40.5679,423.13,905.304,-0.687487,-0.501566,-1.75836,
2026_07_06_21_46_39.402,3.872,39,0,0.766,0,0,0,0, ,0,0,0,0,0, ,-39,423.8,903.5,-0.6,-0.5,-1.8,25,-40.4846,423.152,905.24,-0.68825,-0.501471,-1.75785,
2026_07_06_21_46_39.422,3.872,39,0,0.766,0,0,0,0, ,0,0,0,0,0, ,-39.5,423.3,905,-0.7,-0.5,-1.6,25,-40.4094,423.177,905.179,-0.685919,-0.501381,-1.75432,
2026_07_06_21_46_39.442,3.872,39,0,0.766,0,0,0,0, ,0,0,0,0,0, ,-39.3,422.7,905.1,-0.6,-0.5,-1.8,25,-40.3478,423.166,905.171,-0.68373,-0.501297,-1.75101,
2026_07_06_21_46_39.461,3.872,39.1,0,0.765,0,0,0,0, ,0,0,0,0,0, ,-41.3,422.3,906,-0.7,-0.5,-1.8,25,-40.3449,423.125,905.195,-0.681675,-0.501218,-1.754,
2026_07_06_21_46_39.481,3.872,39.1,0,0.767,0,0,0,0, ,0,0,0,0,0, ,-40.4,423.5,905.3,-0.7,-0.5,-1.7,25,-40.3757,423.112,905.222,-0.682791,-0.501144,-1.75375,
2026_07_06_21_46_39.501,3.872,39.1,0,0.766,0,0,0,0, ,0,0,0,0,0, ,-40.6,424.1,903.8,-0.7,-0.6,-1.7,25,-40.3833,423.154,905.181,-0.68384,-0.504121,-1.75048,
2026_07_06_21_46_39.521,3.872,39,0,0.765,0,0,0,0, ,0,0,0,0,0, ,-40.1,422.1,906,-0.7,-0.5,-1.8,25,-40.3813,423.15,905.164,-0.684825,-0.506917,-1.75045,
2026_07_06_21_46_39.541,3.872,39,0,0.765,0,0,0,0, ,0,0,0,0,0, ,-40,422.8,905,-0.9,-0.6,-1.7,25,-40.3611,423.108,905.185,-0.691843,-0.509542,-1.75042,
2026_07_06_21_46_39.561,3.872,39.1,0,0.766,0,0,0,0, ,0,0,0,0,0, ,-40.6,423.3,905.5,-0.7,-0.5,-1.8,25,-40.3573,423.104,905.189,-0.698434,-0.512007,-1.7504,
2026_07_06_21_46_39.581,3.872,39.1,0,0.766,0,0,0,0, ,0,0,0,0,0, ,-39.7,423.5,905,-0.7,-0.5,-1.8,25,-40.3447,423.122,905.192,-0.69853,-0.511276,-1.75342,
2026_07_06_21_46_39.600,3.872,39.1,0,0.767,0,0,0,0, ,0,0,0,0,0, ,-40.5,423.3,904,-0.9,-0.5,-1.7,25,-40.3298,423.139,905.15,-0.704713,-0.510589,-1.75321,
2026_07_06_21_46_39.619,3.872,39,0,0.766,0,0,0,0, ,0,0,0,0,0, ,-41.2,423.3,907.7,-0.9,-0.5,-1.7,25,-40.3615,423.149,905.193,-0.716613,-0.509943,-1.74997,
2026_07_06_21_46_39.639,3.872,39.1,0,0.766,0,0,0,0, ,0,0,0,0,0, ,-40.5,423.3,904.5,-0.8,-0.5,-1.7,25,-40.3913,423.158,905.248,-0.724741,-0.509337,-1.74692,
2026_07_06_21_46_39.659,3.872,39.1,0,0.766,0,0,0,0, ,0,0,0,0,0, ,-40.4,422.6,906.2,-0.7,-0.5,-1.8,25,-40.3948,423.145,905.254,-0.726281,-0.508768,-1.74711,
2026_07_06_21_46_39.679,3.872,39,0,0.767,0,0,0,0, ,0,0,0,0,0, ,-40.7,422.8,905.2,-0.8,-0.5,-1.7,25,-40.4043,423.118,905.281,-0.727726,-0.508234,-1.74729,
2026_07_06_21_46_39.699,3.872,39,0,0.765,0,0,0,0, ,0,0,0,0,0, ,-40.1,424.8,906.7,-0.7,-0.5,-1.6,25,-40.404,423.16,905.322,-0.729083,-0.507732,-1.74136,
2026_07_06_21_46_39.719,3.872,39.1,0,0.766,0,0,0,0, ,0,0,0,0,0, ,-41,423.5,903.9,-0.6,-0.5,-1.7,25,-40.4129,423.22,905.321,-0.724264,-0.507261,-1.73579,
2026_07_06_21_46_39.738,3.872,39,0,0.765,0,0,0,0, ,0,0,0,0,0, ,-41.3,422.4,905.2,-0.7,-0.5,-1.7,25,-40.4578,423.204,905.274,-0.719739,-0.506819,-1.73361,
2026_07_06_21_46_39.759,3.872,39,0,0.767,0,0,0,0, ,0,0,0,0,0, ,-40.2,422.2,905.7,-0.6,-0.5,-1.7,25,-40.4757,423.149,905.285,-0.715489,-0.506403,-1.73156,
2026_07_06_21_46_39.778,3.872,39.2,0,0.767,0,0,0,0, ,0,0,0,0,0, ,-41,423,905.5,-0.7,-0.5,-1.7,25,-40.4832,423.115,905.304,-0.711498,-0.506013,-1.72964,
2026_07_06_21_46_39.799,3.872,39.1,0,0.766,0,0,0,0, ,0,0,0,0,0, ,-41.3,422.6,905,-0.7,-0.5,-1.8,25,-40.5239,423.096,905.301,-0.710798,-0.505647,-1.73088,
2026_07_06_21_46_39.825,3.872,39,0,0.767,0,0,0,0, ,0,0,0,0,0, ,-39.7,422.4,904.5,-0.6,-0.5,-1.7,25,-40.5224,423.06,905.267,-0.707093,-0.505302,-1.73204,
2026_07_06_21_46_39.837,3.872,39.1,0,0.767,0,0,0,0, ,0,0,0,0,0, ,-41.2,422.8,905.1,-0.7,-0.5,-1.8,25,-40.518,423.032,905.239,-0.703614,-0.504979,-1.73314,
2026_07_06_21_46_39.857,3.872,39.1,0,0.766,0,0,0,0, ,0,0,0,0,0, ,-40.4,421.2,906.2,-0.8,-0.5,-1.7,25,-40.5352,422.969,905.264,-0.70644,-0.504676,-1.73417,
2026_07_06_21_46_39.877,3.872,39,0,0.766,0,0,0,0, ,0,0,0,0,0, ,-40.5,423,905.5,-0.7,-0.4,-1.8,25,-40.53,422.916,905.299,-0.709095,-0.501344,-1.73513,
2026_07_06_21_46_39.897,3.872,39,0,0.766,0,0,0,0, ,0,0,0,0,0, ,-39.9,423.5,905,-0.8,-0.6,-1.7,25,-40.5099,422.936,905.296,-0.711587,-0.501262,-1.73604,
2026_07_06_21_46_39.916,3.872,39,0,0.765,0,0,0,0, ,0,0,0,0,0, ,-40.4,423.3,905.7,-0.8,-0.4,-1.8,25,-40.4879,422.964,905.3,-0.716975,-0.501185,-1.73689,
2026_07_06_21_46_39.936,3.872,39,0,0.766,0,0,0,0, ,0,0,0,0,0, ,-40.4,423.8,906.8,-0.7,-0.5,-1.7,25,-40.4826,423,905.358,-0.718988,-0.498066,-1.73769,
2026_07_06_21_46_39.956,3.872,38.9,0,0.767,0,0,0,0, ,0,0,0,0,0, ,-40.5,423.2,906.1,-0.7,-0.5,-1.7,25,-40.4806,423.031,905.424,-0.71783,-0.498184,-1.73539,
2026_07_06_21_46_39.976,3.872,39.1,0,0.766,0,0,0,0, ,0,0,0,0,0, ,-40.4,423.4,905.8,-0.7,-0.5,-1.7,25,-40.4787,423.047,905.456,-0.716744,-0.498295,-1.73323,
2026_07_06_21_46_39.995,3.872,39,0,0.766,0,0,0,0, ,0,0,0,0,0, ,-40.2,423.2,905.6,-0.7,-0.5,-1.7,25,-40.4678,423.062,905.471,-0.715724,-0.498399,-1.73121,
2026_07_06_21_46_40.021,3.872,39.1,0,0.766,0,0,0,0, ,0,0,0,0,0, ,-40.2,422.4,905.3,-0.7,-0.4,-1.7,25,-40.4515,423.046,905.47,-0.714765,-0.495449,-1.72931,
2026_07_06_21_46_40.035,3.872,39.1,0,0.766,0,0,0,0, ,0,0,0,0,0, ,-38.6,423.8,905.1,-0.8,-0.5,-1.7,25,-40.3874,423.05,905.453,-0.716913,-0.49268,-1.72752,
2026_07_06_21_46_40.055,3.872,39.1,0,0.767,0,0,0,0, ,0,0,0,0,0, ,-39.7,423.5,906.2,-0.7,-0.5,-1.7,25,-40.312,423.086,905.465,-0.718929,-0.493126,-1.72584,
2026_07_06_21_46_40.075,3.872,39,0,0.767,0,0,0,0, ,0,0,0,0,0, ,-40.7,422.8,905.3,-0.7,-0.5,-1.7,25,-40.3052,423.09,905.483,-0.717775,-0.493545,-1.72427,
2026_07_06_21_46_40.095,3.872,39,0,0.767,0,0,0,0, ,0,0,0,0,0, ,-40.7,423.3,906.2,-0.8,-0.5,-1.7,25,-40.3293,423.088,905.499,-0.719739,-0.493938,-1.72279,
2026_07_06_21_46_40.114,3.872,39.1,0,0.765,0,0,0,0, ,0,0,0,0,0, ,-39.3,422.9,904.5,-0.9,-0.5,-1.7,25,-40.3092,423.088,905.49,-0.727677,-0.494307,-1.7214,
2026_07_06_21_46_40.135,3.872,38.9,0,0.766,0,0,0,0, ,0,0,0,0,0, ,-39.4,425.2,905.5,-0.7,-0.5,-1.8,25,-40.2508,423.147,905.46,-0.732084,-0.494654,-1.72314,
2026_07_06_21_46_40.154,3.872,39,0,0.765,0,0,0,0, ,0,0,0,0,0, ,-40.4,424.1,905,-0.7,-0.5,-1.8,25,-40.2294,423.239,905.447,-0.730129,-0.49498,-1.72783,
2026_07_06_21_46_40.174,3.872,39,0,0.765,0,0,0,0, ,0,0,0,0,0, ,-39.1,423.3,905.3,-0.7,-0.5,-1.6,25,-40.2002,423.267,905.429,-0.728293,-0.495286,-1.72613,
2026_07_06_21_46_40.193,3.872,38.9,0,0.766,0,0,0,0, ,0,0,0,0,0, ,-41,423.5,905.7,-0.7,-0.5,-1.8,25,-40.191,423.275,905.433,-0.726569,-0.495573,-1.72454,
2026_07_06_21_46_40.213,3.872,39,0,0.767,0,0,0,0, ,0,0,0,0,0, ,-40.4,422.9,904.5,-0.5,-0.5,-1.8,25,-40.222,423.27,905.413,-0.718856,-0.495843,-1.72914,
2026_07_06_21_46_40.238,3.872,39,0,0.766,0,0,0,0, ,0,0,0,0,0, ,-41.1,424.4,905.1,-0.6,-0.5,-1.7,25,-40.2542,423.293,905.376,-0.708566,-0.496096,-1.73041,
2026_07_06_21_46_40.253,3.872,39,0,0.766,0,0,0,0, ,0,0,0,0,0, ,-39.7,422.6,905.5,-0.7,-0.5,-1.8,25,-40.2631,423.306,905.371,-0.704997,-0.496334,-1.7316,
2026_07_06_21_46_40.273,3.872,39.1,0,0.765,0,0,0,0, ,0,0,0,0,0, ,-39,422.9,904.6,-0.7,-0.5,-1.8,25,-40.2074,423.272,905.352,-0.704693,-0.496558,-1.73577,
2026_07_06_21_46_40.293,3.872,39,0,0.766,0,0,0,0, ,0,0,0,0,0, ,-39.6,423,904.9,-0.6,-0.5,-1.8,25,-40.1522,423.253,905.315,-0.70136,-0.496767,-1.73968,
2026_07_06_21_46_40.313,3.872,39,0,0.765,0,0,0,0, ,0,0,0,0,0, ,-39.5,421.5,904.9,-0.7,-0.5,-1.8,25,-40.1155,423.191,905.29,-0.69823,-0.496964,-1.74336,
2026_07_06_21_46_40.332,3.872,39,0,0.765,0,0,0,0, ,0,0,0,0,0, ,-40.1,423.2,905.3,-0.7,-0.5,-1.8,25,-40.0962,423.14,905.278,-0.698338,-0.497149,-1.74681,
2026_07_06_21_46_40.353,3.872,39,0,0.766,0,0,0,0, ,0,0,0,0,0, ,-40.2,422.4,905.7,-0.7,-0.5,-1.7,25,-40.0995,423.119,905.292,-0.698439,-0.497323,-1.74701,
2026_07_06_21_46_40.372,3.872,39.1,0,0.766,0,0,0,0, ,0,0,0,0,0, ,-39.1,422.1,905.1,-0.7,-0.5,-1.8,25,-40.0721,423.066,905.298,-0.698535,-0.497486,-1.74719,
2026_07_06_21_46_40.391,3.872,38.7,0,0.766,0,0,0,0, ,0,0,0,0,0, ,-39,422.7,905.8,-0.8,-0.5,-1.7,25,-40.0098,423.026,905.307,-0.701671,-0.497639,-1.74736,
2026_07_06_21_46_40.411,3.872,38.9,0,0.767,0,0,0,0, ,0,0,0,0,0, ,-40.1,424,905.5,-0.8,-0.5,-1.8,25,-39.9818,423.046,905.328,-0.707663,-0.497783,-1.74752,
2026_07_06_21_46_40.431,3.872,38.9,0,0.766,0,0,0,0, ,0,0,0,0,0, ,-40.5,423.9,906.6,-0.7,-0.4,-1.8,25,-40.0012,423.101,905.372,-0.710243,-0.494871,-1.75072,
2026_07_06_21_46_40.456,3.872,38.9,0,0.765,0,0,0,0, ,0,0,0,0,0, ,-40.2,423,905,-0.8,-0.5,-1.8,25,-40.0225,423.122,905.398,-0.712665,-0.492137,-1.75372,
2026_07_06_21_46_40.471,3.872,38.7,0,0.767,0,0,0,0, ,0,0,0,0,0, ,-41.1,423.3,905.2,-0.7,-0.5,-1.8,25,-40.0607,423.124,905.38,-0.71494,-0.492616,-1.75654,
2026_07_06_21_46_40.491,3.872,39,0,0.766,0,0,0,0, ,0,0,0,0,0, ,-40.7,424,904.7,-0.7,-0.5,-1.8,25,-40.1118,423.156,905.354,-0.71403,-0.493066,-1.75919,
2026_07_06_21_46_40.511,3.872,39,0,0.766,0,0,0,0, ,0,0,0,0,0, ,-39.9,422.6,905.8,-0.7,-0.5,-1.7,25,-40.1233,423.165,905.348,-0.713175,-0.493489,-1.75863,
2026_07_06_21_46_40.530,3.872,39,0,0.766,0,0,0,0, ,0,0,0,0,0, ,-39.9,423.9,905,-0.8,-0.5,-1.7,25,-40.1097,423.17,905.351,-0.715419,-0.493885,-1.75506,
2026_07_06_21_46_40.550,3.872,38.9,0,0.765,0,0,0,0, ,0,0,0,0,0, ,-39.9,422.9,905.1,-0.6,-0.5,-1.7,25,-40.0969,423.184,905.332,-0.714479,-0.494258,-1.7517,
2026_07_06_21_46_40.571,3.872,39,0,0.765,0,0,0,0, ,0,0,0,0,0, ,-41.5,422.3,904.5,-0.6,-0.5,-1.8,25,-40.1337,423.148,905.3,-0.707503,-0.494608,-1.7516,
2026_07_06_21_46_40.589,3.872,39.1,0,0.767,0,0,0,0, ,0,0,0,0,0, ,-40.7,422.2,904.5,-0.6,-0.5,-1.7,25,-40.1926,423.093,905.251,-0.700952,-0.494937,-1.7515,
2026_07_06_21_46_40.610,3.872,38.9,0,0.765,0,0,0,0, ,0,0,0,0,0, ,-40.7,422.6,905.2,-0.7,-0.5,-1.8,25,-40.2235,423.051,905.227,-0.697847,-0.495245,-1.75141,
2026_07_06_21_46_40.631,3.872,38.9,0,0.765,0,0,0,0, ,0,0,0,0,0, ,-42.1,423.2,905.5,-0.6,-0.6,-1.8,25,-40.2952,423.042,905.234,-0.694932,-0.498582,-1.75437,
2026_07_06_21_46_40.648,3.872,39,0,0.766,0,0,0,0, ,0,0,0,0,0, ,-41.1,421.9,905.1,-0.8,-0.5,-1.8,25,-40.3747,423.012,905.238,-0.695241,-0.501715,-1.75715,
2026_07_06_21_46_40.669,3.872,38.9,0,0.766,0,0,0,0, ,0,0,0,0,0, ,-39.7,422.6,904.7,-0.7,-0.5,-1.8,25,-40.3762,422.966,905.218,-0.698577,-0.501611,-1.75976,
2026_07_06_21_46_40.688,3.872,39,0,0.765,0,0,0,0, ,0,0,0,0,0, ,-40,424.1,906.3,-0.7,-0.5,-1.8,25,-40.3442,422.989,905.235,-0.698664,-0.501512,-1.76221,
2026_07_06_21_46_40.708,3.872,38.9,0,0.766,0,0,0,0, ,0,0,0,0,0, ,-40.2,423.2,905.8,-0.6,-0.4,-1.8,25,-40.3293,423.029,905.285,-0.695699,-0.498373,-1.76452,
2026_07_06_21_46_40.728,3.872,39.1,0,0.766,0,0,0,0, ,0,0,0,0,0, ,-39.4,422.7,906.7,-0.6,-0.4,-1.7,25,-40.297,423.024,905.343,-0.689867,-0.492379,-1.76363,
2026_07_06_21_46_40.748,3.872,39,0,0.765,0,0,0,0, ,0,0,0,0,0, ,-40.4,423.4,905.3,-0.6,-0.5,-1.7,25,-40.2728,423.026,905.383,-0.684391,-0.489796,-1.75975,
2026_07_06_21_46_40.768,3.872,38.9,0,0.766,0,0,0,0, ,0,0,0,0,0, ,-40.7,424.1,905.8,-0.7,-0.4,-1.8,25,-40.2897,423.07,905.394,-0.682295,-0.487371,-1.75916,
2026_07_06_21_46_40.787,3.872,39,0,0.766,0,0,0,0, ,0,0,0,0,0, ,-40.5,422.4,905.2,-0.7,-0.5,-1.8,25,-40.3086,423.081,905.4,-0.683374,-0.485094,-1.76165,
2026_07_06_21_46_40.807,3.872,38.9,0,0.766,0,0,0,0, ,0,0,0,0,0, ,-40,423.2,906.4,-0.7,-0.5,-1.7,25,-40.3051,423.064,905.424,-0.684387,-0.486002,-1.76094,
2026_07_06_21_46_40.827,3.872,39,0,0.766,0,0,0,0, ,0,0,0,0,0, ,-41,421.8,904,-0.6,-0.5,-1.7,25,-40.3169,423.03,905.411,-0.682292,-0.486855,-1.75723,
2026_07_06_21_46_40.846,3.872,39,0,0.767,0,0,0,0, ,0,0,0,0,0, ,-40.2,422.1,906.1,-0.8,-0.5,-1.8,25,-40.3342,422.964,905.389,-0.683371,-0.487656,-1.75679,
2026_07_06_21_46_40.866,3.872,38.9,0,0.766,0,0,0,0, ,0,0,0,0,0, ,-40,422.7,904.5,-0.9,-0.5,-1.8,25,-40.3199,422.929,905.383,-0.693525,-0.488408,-1.75942,
2026_07_06_21_46_40.886,3.872,39,0,0.766,0,0,0,0, ,0,0,0,0,0, ,-39.7,423.2,905.2,-0.7,-0.5,-1.7,25,-40.2913,422.931,905.351,-0.700013,-0.489115,-1.75884,
2026_07_06_21_46_40.907,3.872,39,0,0.767,0,0,0,0, ,0,0,0,0,0, ,-40,423.2,905.2,-0.7,-0.4,-1.7,25,-40.2644,422.947,905.342,-0.700012,-0.486731,-1.75526,
2026_07_06_21_46_40.926,3.872,39,0,0.767,0,0,0,0, ,0,0,0,0,0, ,-39.7,422.6,906.9,-0.8,-0.5,-1.8,25,-40.2391,422.944,905.385,-0.703058,-0.484493,-1.75494,
2026_07_06_21_46_40.945,3.872,38.9,0,0.765,0,0,0,0, ,0,0,0,0,0, ,-39.1,424.1,904.7,-0.7,-0.5,-1.8,25,-40.188,422.969,905.41,-0.705919,-0.485438,-1.75768,
2026_07_06_21_46_40.965,3.872,39,0,0.767,0,0,0,0, ,0,0,0,0,0, ,-40.7,423,905.6,-0.7,-0.5,-1.8,25,-40.1705,423.004,905.394,-0.705558,-0.486325,-1.76026,
2026_07_06_21_46_40.985,3.872,38.9,0,0.767,0,0,0,0, ,0,0,0,0,0, ,-40.8,422.9,905.8,-0.7,-0.5,-1.7,25,-40.2058,423.001,905.413,-0.70522,-0.487159,-1.75964,
2026_07_06_21_46_41.005,3.872,38.9,0,0.766,0,0,0,0, ,0,0,0,0,0, ,-40.2,422.9,905.3,-0.7,-0.4,-1.8,25,-40.2237,422.995,905.421,-0.704901,-0.484894,-1.75905,
2026_07_06_21_46_41.025,3.872,38.9,0,0.767,0,0,0,0, ,0,0,0,0,0, ,-40.5,424.1,905.7,-0.7,-0.5,-1.8,25,-40.2314,423.026,905.426,-0.704603,-0.482768,-1.76155,
2026_07_06_21_46_41.045,3.872,38.9,0,0.766,0,0,0,0, ,0,0,0,0,0, ,-40.1,423.3,904.6,-0.7,-0.5,-1.8,25,-40.2356,423.067,905.409,-0.704322,-0.483818,-1.76389,
2026_07_06_21_46_41.065,3.872,39,0,0.765,0,0,0,0, ,0,0,0,0,0, ,-40.8,423.5,905.8,-0.6,-0.5,-1.8,25,-40.2486,423.087,905.396,-0.701012,-0.484804,-1.76609,
2026_07_06_21_46_41.084,3.872,39,0,0.765,0,0,0,0, ,0,0,0,0,0, ,-39.1,422.7,906,-0.7,-0.5,-1.8,25,-40.2304,423.088,905.427,-0.697903,-0.48573,-1.76816,
2026_07_06_21_46_41.105,3.872,38.9,0,0.766,0,0,0,0, ,0,0,0,0,0, ,-39.1,423.2,904.4,-0.6,-0.5,-1.7,25,-40.1616,423.079,905.413,-0.694984,-0.4866,-1.76705,
2026_07_06_21_46_41.124,3.872,38.7,0,0.765,0,0,0,0, ,0,0,0,0,0, ,-40.1,423,906.9,-0.7,-0.5,-1.7,25,-40.1273,423.081,905.428,-0.692243,-0.487416,-1.76296,
2026_07_06_21_46_41.144,3.872,38.7,0,0.767,0,0,0,0, ,0,0,0,0,0, ,-40.2,422.4,905.6,-0.7,-0.5,-1.7,25,-40.1287,423.058,905.478,-0.692716,-0.488183,-1.75913,
2026_07_06_21_46_41.164,3.872,39,0,0.766,0,0,0,0, ,0,0,0,0,0, ,-41,422.1,905.2,-0.8,-0.5,-1.7,25,-40.1574,423.008,905.473,-0.696207,-0.488903,-1.75552,
2026_07_06_21_46_41.184,3.872,38.9,0,0.767,0,0,0,0, ,0,0,0,0,0, ,-40.7,423,905.3,-0.7,-0.5,-1.8,25,-40.1996,422.98,905.46,-0.699485,-0.489579,-1.75519,
2026_07_06_21_46_41.204,3.872,38.9,0,0.766,0,0,0,0, ,0,0,0,0,0, ,-39.7,422.7,904.7,-0.7,-0.5,-1.7,25,-40.1997,422.972,905.432,-0.699516,-0.490214,-1.75487,
2026_07_06_21_46_41.223,3.872,39,0,0.767,0,0,0,0, ,0,0,0,0,0, ,-40.1,423,905.1,-0.8,-0.5,-1.7,25,-40.1814,422.965,905.399,-0.702592,-0.490811,-1.75153,
2026_07_06_21_46_41.243,3.872,38.9,0,0.766,0,0,0,0, ,0,0,0,0,0, ,-40,423.3,905.6,-0.7,-0.5,-1.8,25,-40.1734,422.976,905.396,-0.705481,-0.491371,-1.75143,
2026_07_06_21_46_41.262,3.872,38.9,0,0.766,0,0,0,0, ,0,0,0,0,0, ,-39.5,422.4,903.6,-0.7,-0.5,-1.7,25,-40.1476,422.969,905.348,-0.705147,-0.491896,-1.75135,
2026_07_06_21_46_41.282,3.872,38.9,0,0.765,0,0,0,0, ,0,0,0,0,0, ,-38.9,423.4,905.1,-0.7,-0.5,-1.7,25,-40.0899,422.964,905.287,-0.704834,-0.49239,-1.74822,
2026_07_06_21_46_41.302,3.872,39,0,0.767,0,0,0,0, ,0,0,0,0,0, ,-41.7,422.7,905,-0.8,-0.5,-1.7,25,-40.1027,422.97,905.272,-0.707586,-0.492854,-1.74528,
2026_07_06_21_46_41.322,3.872,39,0,0.767,0,0,0,0, ,0,0,0,0,0, ,-39.9,424,905.5,-0.7,-0.5,-1.7,25,-40.1452,422.993,905.271,-0.710171,-0.493289,-1.74252,
2026_07_06_21_46_41.341,3.872,38.9,0,0.766,0,0,0,0, ,0,0,0,0,0, ,-40.1,423.4,905.5,-0.6,-0.4,-1.8,25,-40.1363,423.036,905.285,-0.706504,-0.490652,-1.74298,
2026_07_06_21_46_41.362,3.872,38.9,0,0.766,0,0,0,0, ,0,0,0,0,0, ,-40.6,422.2,906.2,-0.8,-0.6,-1.7,25,-40.1493,423.022,905.319,-0.706108,-0.491221,-1.7434,
2026_07_06_21_46_41.381,3.872,38.9,0,0.766,0,0,0,0, ,0,0,0,0,0, ,-40,423.3,906.3,-0.8,-0.5,-1.7,25,-40.1585,423.005,905.376,-0.711829,-0.494803,-1.74076,
2026_07_06_21_46_41.401,3.872,38.9,0,0.765,0,0,0,0, ,0,0,0,0,0, ,-40.2,421.5,907.3,-0.6,-0.5,-1.8,25,-40.1549,422.968,905.463,-0.711108,-0.49512,-1.74132,
2026_07_06_21_46_41.422,3.872,39,0,0.766,0,0,0,0, ,0,0,0,0,0, ,-39.4,422.7,906.2,-0.8,-0.5,-1.8,25,-40.1333,422.915,905.541,-0.710431,-0.495417,-1.7449,
2026_07_06_21_46_41.440,3.872,38.7,0,0.765,0,0,0,0, ,0,0,0,0,0, ,-39.9,422.7,905.2,-0.8,-0.4,-1.8,25,-40.1039,422.902,905.551,-0.715889,-0.49265,-1.74826,
2026_07_06_21_46_41.461,3.872,39,0,0.765,0,0,0,0, ,0,0,0,0,0, ,-40.8,422.7,907.2,-0.7,-0.5,-1.6,25,-40.1189,422.89,905.591,-0.717968,-0.490051,-1.74532,
2026_07_06_21_46_41.481,3.872,38.9,0,0.764,0,0,0,0, ,0,0,0,0,0, ,-38.9,423,906.1,-0.7,-0.5,-1.7,25,-40.1025,422.887,905.655,-0.716873,-0.490657,-1.73951,
2026_07_06_21_46_41.500,3.872,38.9,0,0.765,0,0,0,0, ,0,0,0,0,0, ,-40.1,422.9,905.3,-0.7,-0.5,-1.7,25,-40.0658,422.891,905.658,-0.715845,-0.491226,-1.7371,
2026_07_06_21_46_41.520,3.872,38.9,0,0.765,0,0,0,0, ,0,0,0,0,0, ,-40.5,422.7,906,-0.7,-0.5,-1.7,25,-40.08,422.886,905.657,-0.714879,-0.491761,-1.73484,
2026_07_06_21_46_41.539,3.872,38.9,0,0.766,0,0,0,0, ,0,0,0,0,0, ,-40,421.3,904.7,-0.7,-0.5,-1.7,25,-40.0904,422.832,905.639,-0.713973,-0.492263,-1.73272,
2026_07_06_21_46_41.560,3.872,38.7,0,0.767,0,0,0,0, ,0,0,0,0,0, ,-41.3,422.2,905.8,-0.7,-0.5,-1.8,25,-40.1245,422.766,905.615,-0.713121,-0.492734,-1.73377,
2026_07_06_21_46_41.579,3.872,39,0,0.766,0,0,0,0, ,0,0,0,0,0, ,-39.4,422.3,906.1,-0.6,-0.5,-1.8,25,-40.1382,422.734,905.635,-0.709275,-0.493177,-1.7378,
2026_07_06_21_46_41.599,3.872,38.9,0,0.766,0,0,0,0, ,0,0,0,0,0, ,-40.2,422.3,906.4,-0.7,-0.5,-1.7,25,-40.1176,422.708,905.673,-0.705663,-0.493593,-1.73855,
2026_07_06_21_46_41.618,3.872,38.9,0,0.766,0,0,0,0, ,0,0,0,0,0, ,-39.7,422.3,905.6,-0.7,-0.6,-1.7,25,-40.1074,422.683,905.693,-0.705318,-0.49703,-1.7362,
2026_07_06_21_46_41.639,3.872,39,0,0.765,0,0,0,0, ,0,0,0,0,0, ,-40.2,423.4,906.2,-0.7,-0.5,-1.7,25,-40.0978,422.693,905.705,-0.704994,-0.500258,-1.73399,
2026_07_06_21_46_41.659,3.872,38.9,0,0.766,0,0,0,0, ,0,0,0,0,0, ,-40.4,422.6,904.4,-0.7,-0.5,-1.7,25,-40.1101,422.712,905.681,-0.704689,-0.500242,-1.73192,
2026_07_06_21_46_41.678,3.872,38.9,0,0.767,0,0,0,0, ,0,0,0,0,0, ,-39.7,421.5,906,-0.8,-0.5,-1.7,25,-40.1065,422.672,905.651,-0.70745,-0.500228,-1.72998,
2026_07_06_21_46_41.697,3.872,38.9,0,0.766,0,0,0,0, ,0,0,0,0,0, ,-41,422.7,904,-0.7,-0.5,-1.7,25,-40.1213,422.637,905.612,-0.710043,-0.500214,-1.72815,
2026_07_06_21_46_41.717,3.872,38.9,0,0.766,0,0,0,0, ,0,0,0,0,0, ,-41,423.4,906.7,-0.7,-0.5,-1.8,25,-40.1749,422.662,905.596,-0.709431,-0.500201,-1.72948,
2026_07_06_21_46_41.738,3.872,38.9,0,0.765,0,0,0,0, ,0,0,0,0,0, ,-40.8,422.3,904.2,-0.8,-0.5,-1.8,25,-40.219,422.673,905.587,-0.711903,-0.500188,-1.73378,
2026_07_06_21_46_41.758,3.872,38.9,0,0.765,0,0,0,0, ,0,0,0,0,0, ,-40.6,423.8,905.6,-0.8,-0.4,-1.7,25,-40.2484,422.696,905.545,-0.717272,-0.49713,-1.73477,
2026_07_06_21_46_41.778,3.872,38.7,0,0.765,0,0,0,0, ,0,0,0,0,0, ,-40.4,422.2,905.7,-0.7,-0.5,-1.7,25,-40.2637,422.715,905.551,-0.719266,-0.494258,-1.73265,
2026_07_06_21_46_41.797,3.872,38.9,0,0.767,0,0,0,0, ,0,0,0,0,0, ,-39.3,422.7,905.6,-0.7,-0.5,-1.8,25,-40.2385,422.699,905.557,-0.718092,-0.494608,-1.73371,
2026_07_06_21_46_41.817,3.872,38.9,0,0.766,0,0,0,0, ,0,0,0,0,0, ,-40.5,423.8,906,-0.6,-0.6,-1.8,25,-40.2179,422.732,905.572,-0.713943,-0.497983,-1.73775,
2026_07_06_21_46_41.836,3.872,38.7,0,0.764,0,0,0,0, ,0,0,0,0,0, ,-39.5,423.4,904,-0.7,-0.5,-1.7,25,-40.2046,422.785,905.537,-0.710046,-0.501153,-1.73849,
2026_07_06_21_46_41.858,3.872,38.7,0,0.766,0,0,0,0, ,0,0,0,0,0, ,-40.4,423.4,905.5,-0.6,-0.5,-1.7,25,-40.1891,422.823,905.489,-0.706387,-0.501083,-1.73615,
2026_07_06_21_46_41.876,3.872,38.7,0,0.766,0,0,0,0, ,0,0,0,0,0, ,-41.1,423.3,905.5,-0.5,-0.5,-1.7,25,-40.2232,422.855,905.49,-0.696857,-0.501017,-1.73394,
2026_07_06_21_46_41.896,3.872,39,0,0.765,0,0,0,0, ,0,0,0,0,0, ,-41.6,423.5,905.7,-0.7,-0.6,-1.8,25,-40.2919,422.888,905.497,-0.690955,-0.504002,-1.73492,
2026_07_06_21_46_41.916,3.872,38.7,0,0.766,0,0,0,0, ,0,0,0,0,0, ,-40.5,422.8,903.5,-0.7,-0.5,-1.7,25,-40.3381,422.904,905.442,-0.691506,-0.506805,-1.73584,
2026_07_06_21_46_41.935,3.872,38.9,0,0.766,0,0,0,0, ,0,0,0,0,0, ,-40.4,422.8,905.2,-0.6,-0.5,-1.9,25,-40.3449,422.898,905.376,-0.688977,-0.50639,-1.73975,
2026_07_06_21_46_41.956,3.872,38.9,0,0.765,0,0,0,0, ,0,0,0,0,0, ,-40,421.6,905.1,-0.8,-0.5,-1.7,25,-40.3361,422.855,905.362,-0.689649,-0.506001,-1.74342,
2026_07_06_21_46_41.975,3.872,38.9,0,0.765,0,0,0,0, ,0,0,0,0,0, ,-40.8,422.3,904.9,-0.8,-0.4,-1.7,25,-40.34,422.8,905.34,-0.696373,-0.502588,-1.74078,
2026_07_06_21_46_41.995,3.872,38.9,0,0.765,0,0,0,0, ,0,0,0,0,0, ,-39.5,422.3,905.6,-0.7,-0.5,-1.8,25,-40.3284,422.769,905.334,-0.699641,-0.499384,-1.74134,
2026_07_06_21_46_42.015,3.872,38.7,0,0.767,0,0,0,0, ,0,0,0,0,0, ,-41.2,423.4,906,-0.7,-0.5,-1.7,25,-40.3297,422.774,905.363,-0.699663,-0.499421,-1.74187,
2026_07_06_21_46_42.034,3.872,38.9,0,0.766,0,0,0,0, ,0,0,0,0,0, ,-39.5,423.3,904.6,-0.6,-0.5,-1.7,25,-40.331,422.809,905.359,-0.696637,-0.499456,-1.73931,
2026_07_06_21_46_42.054,3.872,38.6,0,0.764,0,0,0,0, ,0,0,0,0,0, ,-39.7,423.2,905.2,-0.7,-0.5,-1.7,25,-40.2864,422.836,905.331,-0.693795,-0.49949,-1.73692,
2026_07_06_21_46_42.075,3.872,38.9,0,0.766,0,0,0,0, ,0,0,0,0,0, ,-41.1,421.9,905.2,-0.6,-0.5,-1.7,25,-40.2933,422.819,905.323,-0.691126,-0.499521,-1.73467,
2026_07_06_21_46_42.102,3.872,38.9,0,0.765,0,0,0,0, ,0,0,0,0,0, ,-40.2,422.9,904.5,-0.6,-0.4,-1.7,25,-40.3151,422.793,905.294,-0.685573,-0.496503,-1.73256,
2026_07_06_21_46_42.114,3.872,38.7,0,0.767,0,0,0,0, ,0,0,0,0,0, ,-39.9,422.9,904.2,-0.8,-0.5,-1.7,25,-40.2989,422.8,905.237,-0.686452,-0.493669,-1.73057,
2026_07_06_21_46_42.134,3.872,38.9,0,0.767,0,0,0,0, ,0,0,0,0,0, ,-40.1,423,905.1,-0.8,-0.6,-1.8,25,-40.2807,422.809,905.201,-0.693371,-0.497102,-1.73176,
2026_07_06_21_46_42.153,3.872,38.7,0,0.767,0,0,0,0, ,0,0,0,0,0, ,-40.2,421.3,905.8,-0.7,-0.5,-1.7,25,-40.2727,422.769,905.216,-0.696822,-0.500325,-1.73287,
2026_07_06_21_46_42.173,3.872,38.7,0,0.766,0,0,0,0, ,0,0,0,0,0, ,-40.7,422.6,905.1,-0.8,-0.5,-1.7,25,-40.2835,422.719,905.23,-0.700063,-0.500306,-1.73087,
2026_07_06_21_46_42.192,3.872,38.9,0,0.766,0,0,0,0, ,0,0,0,0,0, ,-39.5,423.7,906.2,-0.7,-0.5,-1.7,25,-40.2724,422.745,905.256,-0.703106,-0.500287,-1.72898,
2026_07_06_21_46_42.212,3.872,38.9,0,0.764,0,0,0,0, ,0,0,0,0,0, ,-39.9,422.9,904.1,-0.7,-0.5,-1.8,25,-40.2375,422.779,905.249,-0.702917,-0.500269,-1.73027,
2026_07_06_21_46_42.232,3.872,38.7,0,0.765,0,0,0,0, ,0,0,0,0,0, ,-40.1,422.4,906,-0.7,-0.6,-1.7,25,-40.223,422.771,905.237,-0.702739,-0.5033,-1.73147,
2026_07_06_21_46_42.252,3.872,38.9,0,0.768,0,0,0,0, ,0,0,0,0,0, ,-39.9,422.8,905.8,-0.8,-0.6,-1.7,25,-40.2094,422.761,905.278,-0.705619,-0.509193,-1.72955,
2026_07_06_21_46_42.272,3.872,38.9,0,0.765,0,0,0,0, ,0,0,0,0,0, ,-40.1,423.9,905.6,-0.7,-0.5,-1.7,25,-40.1967,422.797,905.303,-0.708323,-0.511679,-1.72775,
2026_07_06_21_46_42.292,3.872,38.9,0,0.765,0,0,0,0, ,0,0,0,0,0, ,-39.9,423.2,905.8,-0.7,-0.5,-1.7,25,-40.1847,422.843,905.328,-0.707816,-0.510968,-1.72606,
2026_07_06_21_46_42.311,3.872,38.7,0,0.765,0,0,0,0, ,0,0,0,0,0, ,-41.2,422.9,904.6,-0.7,-0.5,-1.7,25,-40.2069,422.855,905.32,-0.70734,-0.510299,-1.72447,
2026_07_06_21_46_42.329,3.872,38.9,0,0.767,0,0,0,0, ,0,0,0,0,0, ,-40.8,423.7,906.3,-0.7,-0.5,-1.8,25,-40.2553,422.882,905.328,-0.706893,-0.509672,-1.72603,
2026_07_06_21_46_42.351,3.872,38.7,0,0.766,0,0,0,0, ,0,0,0,0,0, ,-40,425.1,905.7,-0.7,-0.5,-1.8,25,-40.2641,422.975,905.369,-0.706473,-0.509082,-1.73053,
2026_07_06_21_46_42.371,3.872,38.9,0,0.765,0,0,0,0, ,0,0,0,0,0, ,-40.5,421.8,904.6,-0.6,-0.5,-1.7,25,-40.2632,423.004,905.355,-0.703031,-0.508529,-1.73172,
2026_07_06_21_46_42.390,3.872,38.7,0,0.766,0,0,0,0, ,0,0,0,0,0, ,-40.5,423,904.7,-0.7,-0.5,-1.7,25,-40.2777,422.967,905.312,-0.6998,-0.508009,-1.72979,
2026_07_06_21_46_42.410,3.872,38.6,0,0.766,0,0,0,0, ,0,0,0,0,0, ,-40.5,424,904.2,-0.6,-0.5,-1.7,25,-40.2912,422.999,905.26,-0.696765,-0.507521,-1.72797,
2026_07_06_21_46_42.430,3.872,38.9,0,0.765,0,0,0,0, ,0,0,0,0,0, ,-41.3,422.3,905.3,-0.7,-0.5,-1.8,25,-40.3283,423.009,905.229,-0.693915,-0.507063,-1.72931,
2026_07_06_21_46_42.450,3.872,38.9,0,0.767,0,0,0,0, ,0,0,0,0,0, ,-40.5,421.9,904.1,-0.7,-0.5,-1.8,25,-40.3631,422.953,905.197,-0.694286,-0.506632,-1.73362,
2026_07_06_21_46_42.470,3.872,38.9,0,0.766,0,0,0,0, ,0,0,0,0,0, ,-39.5,422.8,905,-0.7,-0.5,-1.7,25,-40.341,422.916,905.157,-0.694634,-0.506228,-1.73462,
2026_07_06_21_46_42.489,3.872,38.6,0,0.767,0,0,0,0, ,0,0,0,0,0, ,-41.1,422.9,906,-0.7,-0.5,-1.7,25,-40.3385,422.912,905.178,-0.694961,-0.505849,-1.73251,
2026_07_06_21_46_42.511,3.872,38.7,0,0.767,0,0,0,0, ,0,0,0,0,0, ,-40.7,422.1,905.3,-0.8,-0.5,-1.7,25,-40.3727,422.887,905.207,-0.698315,-0.505492,-1.73053,
2026_07_06_21_46_42.529,3.872,38.7,0,0.766,0,0,0,0, ,0,0,0,0,0, ,-41.1,423.2,905.7,-0.8,-0.5,-1.8,25,-40.4049,422.873,905.225,-0.704512,-0.505158,-1.73172,
2026_07_06_21_46_42.549,3.872,38.7,0,0.766,0,0,0,0, ,0,0,0,0,0, ,-39.5,423,904.4,-0.7,-0.5,-1.7,25,-40.3985,422.887,905.214,-0.707283,-0.504843,-1.73283,
2026_07_06_21_46_42.569,3.872,38.7,0,0.766,0,0,0,0, ,0,0,0,0,0, ,-40.6,423,906.4,-0.9,-0.5,-1.7,25,-40.3772,422.894,905.225,-0.712933,-0.504548,-1.73083,
2026_07_06_21_46_42.589,3.872,38.7,0,0.765,0,0,0,0, ,0,0,0,0,0, ,-41.6,422.1,905.7,-0.8,-0.5,-1.7,25,-40.4213,422.873,905.276,-0.721286,-0.504271,-1.72895,
2026_07_06_21_46_42.608,3.872,38.6,0,0.765,0,0,0,0, ,0,0,0,0,0, ,-40.6,423.9,906.6,-0.6,-0.4,-1.7,25,-40.4626,422.88,905.329,-0.719989,-0.500964,-1.72719,
2026_07_06_21_46_42.628,3.872,38.7,0,0.766,0,0,0,0, ,0,0,0,0,0, ,-40.4,422.8,903.9,-0.8,-0.5,-1.8,25,-40.4649,422.909,905.324,-0.718771,-0.497858,-1.72858,
2026_07_06_21_46_42.647,3.872,38.9,0,0.766,0,0,0,0, ,0,0,0,0,0, ,-39.6,423.9,905.5,-0.8,-0.5,-1.6,25,-40.4366,422.936,905.286,-0.723721,-0.497989,-1.72684,
2026_07_06_21_46_42.667,3.872,38.7,0,0.765,0,0,0,0, ,0,0,0,0,0, ,-40.8,422.1,904.2,-0.6,-0.5,-1.8,25,-40.4222,422.94,905.259,-0.722275,-0.498111,-1.7252,
2026_07_06_21_46_42.688,3.872,38.5,0,0.765,0,0,0,0, ,0,0,0,0,0, ,-40.4,422.4,905.8,-0.7,-0.6,-1.7,25,-40.433,422.898,905.244,-0.717871,-0.501273,-1.72671,
2026_07_06_21_46_42.708,3.872,38.7,0,0.766,0,0,0,0, ,0,0,0,0,0, ,-40.5,422.7,904.1,-0.7,-0.5,-1.7,25,-40.434,422.877,905.226,-0.716782,-0.504243,-1.72508,
2026_07_06_21_46_42.731,3.872,38.6,0,0.766,0,0,0,0, ,0,0,0,0,0, ,-40.6,422.8,905.3,-0.8,-0.5,-1.7,25,-40.4411,422.869,905.194,-0.718806,-0.503984,-1.72356,
2026_07_06_21_46_42.747,3.872,38.7,0,0.767,0,0,0,0, ,0,0,0,0,0, ,-40.6,423,905,-0.8,-0.5,-1.7,25,-40.4508,422.871,905.191,-0.723754,-0.503741,-1.72212,
2026_07_06_21_46_42.767,3.872,38.9,0,0.766,0,0,0,0, ,0,0,0,0,0, ,-40.6,422.3,905.5,-0.7,-0.5,-1.7,25,-40.4599,422.857,905.195,-0.725353,-0.503513,-1.72077,
2026_07_06_21_46_42.786,3.872,38.7,0,0.766,0,0,0,0, ,0,0,0,0,0, ,-40,423.7,906.6,-0.7,-0.5,-1.8,25,-40.4501,422.866,905.247,-0.723808,-0.503299,-1.72255,
2026_07_06_21_46_42.806,3.872,38.9,0,0.766,0,0,0,0, ,0,0,0,0,0, ,-38.9,424.6,904.5,-0.7,-0.5,-1.7,25,-40.3892,422.944,905.265,-0.722357,-0.503098,-1.72423,
2026_07_06_21_46_42.826,3.872,38.7,0,0.766,0,0,0,0, ,0,0,0,0,0, ,-40.7,424.5,905,-0.5,-0.4,-1.7,25,-40.3533,423.042,905.234,-0.714901,-0.499862,-1.72275,
2026_07_06_21_46_42.845,3.872,38.7,0,0.766,0,0,0,0, ,0,0,0,0,0, ,-40,423.5,906.1,-0.6,-0.4,-1.7,25,-40.3531,423.1,905.253,-0.704853,-0.493777,-1.72136,
2026_07_06_21_46_42.866,3.872,38.7,0,0.764,0,0,0,0, ,0,0,0,0,0, ,-39.5,422.6,906.8,-0.6,-0.5,-1.8,25,-40.3163,423.097,905.326,-0.698463,-0.491109,-1.72311,
2026_07_06_21_46_42.886,3.872,38.7,0,0.766,0,0,0,0, ,0,0,0,0,0, ,-41.2,422.8,904.7,-0.4,-0.4,-1.8,25,-40.3184,423.073,905.352,-0.686369,-0.488604,-1.72779,
2026_07_06_21_46_42.905,3.872,38.7,0,0.766,0,0,0,0, ,0,0,0,0,0, ,-39.9,421,904.4,-0.5,-0.5,-1.8,25,-40.3325,423.002,905.303,-0.671966,-0.486252,-1.73219,
2026_07_06_21_46_42.925,3.872,38.6,0,0.769,0,0,0,0, ,0,0,0,0,0, ,-41.3,423.8,903.5,-0.6,-0.5,-1.7,25,-40.3488,422.965,905.221,-0.664533,-0.48709,-1.73328,
2026_07_06_21_46_42.945,3.872,38.5,0,0.767,0,0,0,0, ,0,0,0,0,0, ,-39.9,423.7,903.9,-0.6,-0.5,-1.7,25,-40.3641,423.013,905.128,-0.660601,-0.487876,-1.73125,
2026_07_06_21_46_42.965,3.872,38.7,0,0.764,0,0,0,0, ,0,0,0,0,0, ,-39.9,424.8,908.2,-1,-0.6,-1.7,25,-40.3358,423.088,905.184,-0.669095,-0.491662,-1.72935,
2026_07_06_21_46_42.985,3.872,38.6,0,0.765,0,0,0,0, ,0,0,0,0,0, ,-40,422.6,903.5,-0.5,-0.5,-1.8,25,-40.3123,423.126,905.225,-0.674026,-0.495217,-1.73061,
2026_07_06_21_46_43.005,3.872,38.6,0,0.766,0,0,0,0, ,0,0,0,0,0, ,-40.7,421.9,906,-0.7,-0.5,-1.8,25,-40.3146,423.072,905.196,-0.669515,-0.495508,-1.73483,
2026_07_06_21_46_43.025,3.872,38.6,0,0.766,0,0,0,0, ,0,0,0,0,0, ,-40.8,423.3,905.2,-0.6,-0.4,-1.7,25,-40.3411,423.043,905.22,-0.668325,-0.492735,-1.73576,
2026_07_06_21_46_43.044,3.872,38.6,0,0.765,0,0,0,0, ,0,0,0,0,0, ,-40.5,422.2,906.2,-0.6,-0.5,-1.8,25,-40.36,423.026,905.25,-0.664162,-0.490131,-1.73663,
2026_07_06_21_46_43.064,3.872,38.7,0,0.765,0,0,0,0, ,0,0,0,0,0, ,-41,422.8,904,-0.9,-0.5,-1.7,25,-40.3837,422.993,905.24,-0.669393,-0.490733,-1.73744,
2026_07_06_21_46_43.083,3.872,38.6,0,0.765,0,0,0,0, ,0,0,0,0,0, ,-40.2,423.2,906.2,-0.8,-0.4,-1.7,25,-40.3969,422.994,905.232,-0.680398,-0.48825,-1.73516,
2026_07_06_21_46_43.103,3.872,38.6,0,0.765,0,0,0,0, ,0,0,0,0,0, ,-39.5,422.8,905.1,-0.6,-0.5,-1.7,25,-40.3636,422.994,905.257,-0.681593,-0.485919,-1.73302,
2026_07_06_21_46_43.123,3.872,38.6,0,0.766,0,0,0,0, ,0,0,0,0,0, ,-40.7,422.6,906.2,-0.8,-0.5,-1.7,25,-40.3475,422.976,905.281,-0.682715,-0.486778,-1.731,
2026_07_06_21_46_43.143,3.872,38.6,0,0.769,0,0,0,0, ,0,0,0,0,0, ,-40.5,424.1,903.9,-0.8,-0.6,-1.8,25,-40.3629,422.999,905.267,-0.689862,-0.49063,-1.73216,
2026_07_06_21_46_43.165,3.872,38.6,0,0.765,0,0,0,0, ,0,0,0,0,0, ,-40.7,423.7,905.7,-0.6,-0.5,-1.8,25,-40.3774,423.054,905.239,-0.690479,-0.494248,-1.7363,
2026_07_06_21_46_43.183,3.872,38.9,0,0.766,0,0,0,0, ,0,0,0,0,0, ,-39.7,424.4,904.5,-0.8,-0.5,-1.7,25,-40.3665,423.115,905.23,-0.69106,-0.494599,-1.73713,
2026_07_06_21_46_43.202,3.872,38.7,0,0.765,0,0,0,0, ,0,0,0,0,0, ,-40.5,423.2,905.8,-0.8,-0.5,-1.7,25,-40.3503,423.156,905.225,-0.697698,-0.494928,-1.73487,
2026_07_06_21_46_43.222,3.872,38.7,0,0.767,0,0,0,0, ,0,0,0,0,0, ,-40.7,422.8,904.5,-0.7,-0.5,-1.7,25,-40.3655,423.147,905.221,-0.700885,-0.495237,-1.73274,
2026_07_06_21_46_43.242,3.872,38.7,0,0.766,0,0,0,0, ,0,0,0,0,0, ,-40.7,423.2,904.9,-0.6,-0.5,-1.8,25,-40.3859,423.138,905.189,-0.697784,-0.495527,-1.7338,
2026_07_06_21_46_43.262,3.872,38.7,0,0.765,0,0,0,0, ,0,0,0,0,0, ,-40.7,422.1,906.1,-0.6,-0.5,-1.7,25,-40.405,423.108,905.208,-0.691826,-0.4958,-1.73478,
2026_07_06_21_46_43.282,3.872,38.7,0,0.767,0,0,0,0, ,0,0,0,0,0, ,-41.3,422.9,905.2,-0.5,-0.5,-1.8,25,-40.4413,423.071,905.235,-0.683183,-0.496056,-1.73571,
2026_07_06_21_46_43.301,3.872,38.7,0,0.765,0,0,0,0, ,0,0,0,0,0, ,-40.1,423.2,905.1,-0.7,-0.6,-1.8,25,-40.4571,423.07,905.23,-0.678114,-0.499343,-1.73963,
2026_07_06_21_46_43.321,3.872,38.6,0,0.765,0,0,0,0, ,0,0,0,0,0, ,-40.7,422.8,905.5,-0.8,-0.4,-1.7,25,-40.4536,423.066,905.234,-0.682495,-0.499383,-1.74026,
2026_07_06_21_46_43.341,3.872,38.7,0,0.766,0,0,0,0, ,0,0,0,0,0, ,-40.6,423.3,905.8,-0.7,-0.5,-1.7,25,-40.4656,423.065,905.259,-0.686608,-0.496374,-1.73781,
2026_07_06_21_46_43.361,3.872,38.6,0,0.765,0,0,0,0, ,0,0,0,0,0, ,-39.5,422.4,905.2,-0.7,-0.5,-1.7,25,-40.4402,423.052,905.274,-0.687424,-0.496595,-1.7355,
2026_07_06_21_46_43.380,3.872,38.7,0,0.766,0,0,0,0, ,0,0,0,0,0, ,-40.6,424.1,905.7,-0.6,-0.6,-1.7,25,-40.4165,423.064,905.285,-0.685144,-0.499849,-1.73334,
2026_07_06_21_46_43.400,3.872,38.6,0,0.766,0,0,0,0, ,0,0,0,0,0, ,-39.6,424.1,905.2,-0.6,-0.5,-1.7,25,-40.3972,423.127,905.295,-0.679955,-0.502905,-1.73131,
2026_07_06_21_46_43.420,3.872,38.7,0,0.766,0,0,0,0, ,0,0,0,0,0, ,-40.1,424.5,905.1,-0.7,-0.5,-1.8,25,-40.3638,423.198,905.286,-0.67813,-0.502728,-1.73245,
2026_07_06_21_46_43.440,3.872,38.7,0,0.767,0,0,0,0, ,0,0,0,0,0, ,-39.5,421.9,904.9,-0.6,-0.5,-1.8,25,-40.3295,423.198,905.269,-0.676416,-0.502562,-1.73656,
2026_07_06_21_46_43.459,3.872,38.7,0,0.765,0,0,0,0, ,0,0,0,0,0, ,-41.1,421.5,904.6,-0.7,-0.6,-1.8,25,-40.3277,423.107,905.237,-0.674806,-0.505453,-1.74043,
2026_07_06_21_46_43.479,3.872,38.5,0,0.766,0,0,0,0, ,0,0,0,0,0, ,-40.5,423,905.5,-0.6,-0.4,-1.7,25,-40.3565,423.055,905.226,-0.673295,-0.50512,-1.74101,
2026_07_06_21_46_43.499,3.872,38.7,0,0.765,0,0,0,0, ,0,0,0,0,0, ,-40.6,422.8,903.3,-0.6,-0.5,-1.8,25,-40.3682,423.045,905.175,-0.668828,-0.501761,-1.74156,
2026_07_06_21_46_43.518,3.872,38.7,0,0.765,0,0,0,0, ,0,0,0,0,0, ,-41.5,422.9,904.6,-0.7,-0.5,-1.7,25,-40.4098,423.034,905.101,-0.667681,-0.501654,-1.74207,
2026_07_06_21_46_43.538,3.872,38.6,0,0.764,0,0,0,0, ,0,0,0,0,0, ,-41.3,422.4,905.1,-0.8,-0.4,-1.8,25,-40.4701,423.01,905.085,-0.672697,-0.498506,-1.74256,
2026_07_06_21_46_43.559,3.872,38.6,0,0.765,0,0,0,0, ,0,0,0,0,0, ,-40,422.9,904.5,-0.8,-0.5,-1.8,25,-40.4811,422.988,905.068,-0.680455,-0.495551,-1.74606,
2026_07_06_21_46_43.579,3.872,38.7,0,0.764,0,0,0,0, ,0,0,0,0,0, ,-40.5,421.8,904,-0.8,-0.5,-1.8,25,-40.467,422.949,905.018,-0.687739,-0.495822,-1.74934,
2026_07_06_21_46_43.604,3.872,38.7,0,0.766,0,0,0,0, ,0,0,0,0,0, ,-41,422.2,905.5,-0.7,-0.5,-1.7,25,-40.4843,422.891,905.002,-0.691533,-0.496076,-1.74938,
2026_07_06_21_46_43.618,3.872,38.7,0,0.766,0,0,0,0, ,0,0,0,0,0, ,-40.2,422.1,904.1,-0.7,-0.5,-1.7,25,-40.4913,422.846,904.989,-0.692049,-0.496315,-1.74638,
2026_07_06_21_46_43.638,3.872,38.7,0,0.766,0,0,0,0, ,0,0,0,0,0, ,-40.6,423.5,905,-0.9,-0.5,-1.8,25,-40.4857,422.843,904.963,-0.698628,-0.49654,-1.7466,
2026_07_06_21_46_43.658,3.872,38.7,0,0.765,0,0,0,0, ,0,0,0,0,0, ,-39.7,422.8,904.7,-0.7,-0.5,-1.7,25,-40.4653,422.862,904.956,-0.704805,-0.496751,-1.7468,
2026_07_06_21_46_43.678,3.872,38.6,0,0.765,0,0,0,0, ,0,0,0,0,0, ,-40.2,422.3,904.1,-0.8,-0.5,-1.7,25,-40.4339,422.843,904.922,-0.707559,-0.496949,-1.74395,
2026_07_06_21_46_43.698,3.872,38.7,0,0.765,0,0,0,0, ,0,0,0,0,0, ,-40,424.5,904.7,-0.8,-0.5,-1.7,25,-40.4135,422.877,904.89,-0.713192,-0.497135,-1.74127,
2026_07_06_21_46_43.717,3.872,38.6,0,0.766,0,0,0,0, ,0,0,0,0,0, ,-39.6,424.4,905.2,-0.8,-0.5,-1.7,25,-40.3762,422.973,904.894,-0.718482,-0.497309,-1.73876,
2026_07_06_21_46_43.737,3.872,38.6,0,0.767,0,0,0,0, ,0,0,0,0,0, ,-41.5,423.2,904.2,-0.7,-0.5,-1.7,25,-40.3867,423.023,904.882,-0.720403,-0.497473,-1.7364,
2026_07_06_21_46_43.757,3.872,38.6,0,0.766,0,0,0,0, ,0,0,0,0,0, ,-41.7,423,905.7,-0.7,-0.5,-1.8,25,-40.4607,423.028,904.886,-0.719159,-0.497627,-1.73723,
2026_07_06_21_46_43.777,3.872,38.7,0,0.766,0,0,0,0, ,0,0,0,0,0, ,-39.6,421.8,905.7,-0.6,-0.5,-1.8,25,-40.4722,422.99,904.936,-0.714945,-0.497772,-1.74105,
2026_07_06_21_46_43.796,3.872,38.5,0,0.767,0,0,0,0, ,0,0,0,0,0, ,-40.4,423.9,906.2,-0.6,-0.5,-1.8,25,-40.4434,422.981,904.998,-0.707941,-0.497908,-1.74464,
2026_07_06_21_46_43.822,3.872,38.5,0,0.765,0,0,0,0, ,0,0,0,0,0, ,-41.7,423.4,903.3,-0.6,-0.5,-1.8,25,-40.4804,423.022,904.982,-0.701363,-0.498035,-1.74802,
2026_07_06_21_46_43.839,3.872,38.7,0,0.766,0,0,0,0, ,0,0,0,0,0, ,-41.9,422.7,905.2,-0.5,-0.5,-1.7,25,-40.5608,423.024,904.938,-0.692139,-0.498155,-1.74814,
2026_07_06_21_46_43.855,3.872,38.6,0,0.766,0,0,0,0, ,0,0,0,0,0, ,-40.6,422.6,904.5,-0.6,-0.5,-1.7,25,-40.6028,423.001,904.932,-0.683478,-0.498267,-1.7452,
2026_07_06_21_46_43.875,3.872,38.6,0,0.766,0,0,0,0, ,0,0,0,0,0, ,-39.7,422.3,905,-0.7,-0.5,-1.8,25,-40.5752,422.967,904.921,-0.681438,-0.498373,-1.7455,
2026_07_06_21_46_43.895,3.872,38.7,0,0.767,0,0,0,0, ,0,0,0,0,0, ,-39,423,905.2,-0.7,-0.5,-1.7,25,-40.5006,422.948,904.932,-0.682569,-0.498472,-1.74577,
2026_07_06_21_46_43.915,3.872,38.6,0,0.766,0,0,0,0, ,0,0,0,0,0, ,-41.5,424.3,904.7,-0.6,-0.5,-1.7,25,-40.4853,422.991,904.933,-0.680584,-0.498565,-1.74298,
2026_07_06_21_46_43.935,3.872,38.7,0,0.766,0,0,0,0, ,0,0,0,0,0, ,-41.2,421.9,904.4,-0.7,-0.6,-1.7,25,-40.538,422.997,904.91,-0.67872,-0.501699,-1.74036,
2026_07_06_21_46_43.954,3.872,38.6,0,0.766,0,0,0,0, ,0,0,0,0,0, ,-40.1,423.4,903.3,-0.9,-0.5,-1.7,25,-40.5448,422.976,904.845,-0.686111,-0.504643,-1.7379,
2026_07_06_21_46_43.974,3.872,38.6,0,0.767,0,0,0,0, ,0,0,0,0,0, ,-40.6,422.9,905.3,-0.7,-0.5,-1.8,25,-40.5329,422.987,904.812,-0.693051,-0.50436,-1.73864,
2026_07_06_21_46_43.994,3.872,38.6,0,0.765,0,0,0,0, ,0,0,0,0,0, ,-40.6,422.6,905.5,-0.7,-0.5,-1.7,25,-40.537,422.972,904.848,-0.693474,-0.504094,-1.73933,
2026_07_06_21_46_44.014,3.872,38.6,0,0.765,0,0,0,0, ,0,0,0,0,0, ,-40.5,426.1,903.6,-1.2,-0.6,-1.8,25,-40.5378,423.056,904.83,-0.709106,-0.506892,-1.73998,
2026_07_06_21_46_44.034,3.872,38.6,0,0.766,0,0,0,0, ,0,0,0,0,0, ,-32.3,420.1,893.5,55.4,2.8,4.9,25,-40.2857,423.059,904.447,0.985511,-0.408972,-1.5395,
2026_07_06_21_46_44.058,3.872,38.6,0,0.765,0,0,0,0, ,0,0,0,0,0, ,-18.1,546.5,869.8,51,8.1,14.9,25,-39.3664,426.73,903.058,4.16733,-0.0519406,-0.842404,
2026_07_06_21_46_44.076,3.872,38.5,0,0.766,0,0,0,0, ,0,0,0,0,0, ,-78,453.4,892.7,3.1,3.2,5.6,25,-39.8955,431.192,901.729,5.56174,0.295521,-0.166461,
2026_07_06_21_46_44.092,3.872,38.5,0,0.765,0,0,0,0, ,0,0,0,0,0, ,-41.7,446.7,893.4,-2.3,-0.7,-1.8,25,-41.1115,432.341,901.2,5.2472,0.353685,-0.0405362,
2026_07_06_21_46_44.112,3.872,38.7,0,0.766,0,0,0,0, ,0,0,0,0,0, ,-67.8,449.9,893.4,-14.9,-0.6,-1.1,25,-41.9426,433.313,900.725,4.40339,0.292523,-0.126425,
2026_07_06_21_46_44.132,3.872,38.7,0,0.766,0,0,0,0, ,0,0,0,0,0, ,-177.8,374.5,931.5,-16.4,-6.8,-12.4,25,-46.8699,432.027,901.439,3.18138,0.0492286,-0.530049,
2026_07_06_21_46_44.152,3.872,38.7,0,0.766,0,0,0,0, ,0,0,0,0,0, ,-31.3,459.3,867.5,3.6,-8.4,-17.7,25,-50.3847,431.105,901.321,2.59752,-0.416896,-1.41486,
2026_07_06_21_46_44.172,3.872,38.6,0,0.766,0,0,0,0, ,0,0,0,0,0, ,28.8,466,951.2,14.7,-10.9,-12.4,25,-47.3906,433.027,901.81,2.99681,-0.979538,-2.24575,
2026_07_06_21_46_44.191,3.872,38.7,0,0.765,0,0,0,0, ,0,0,0,0,0, ,-59.2,588.6,1077.1,14.9,-30.9,1.5,25,-45.429,438.772,908.656,3.71607,-2.19344,-2.44101,
2026_07_06_21_46_44.211,3.872,38.6,0,0.766,0,0,0,0, ,0,0,0,0,0, ,34.4,545.5,1062,-40.6,-68.3,13,25,-43.4163,446.589,918.461,2.70657,-5.08228,-1.85046,
2026_07_06_21_46_44.231,3.872,38.5,0,0.767,0,0,0,0, ,0,0,0,0,0, ,36.6,523.4,1023.1,-36.2,-94.4,27.7,25,-38.6073,451.943,926.022,0.20164,-9.72984,-0.497623,
2026_07_06_21_46_44.252,3.872,38.5,0,0.766,0,0,0,0, ,0,0,0,0,0, ,198.6,320.9,1106.6,-15,-131,5.5,25,-29.0884,450.128,934.482,-1.37065,-16.0046,0.544264,
2026_07_06_21_46_44.271,3.872,38.6,0,0.766,0,0,0,0, ,0,0,0,0,0, ,119.8,481.8,896.2,-34.9,-153,-8.1,25,-17.6146,447.155,938.56,-2.80751,-23.6824,0.431879,
2026_07_06_21_46_44.290,3.872,38.7,0,0.766,0,0,0,0, ,0,0,0,0,0, ,118.1,425.1,873.7,-32.2,-147.2,29,25,-9.2927,447.539,935.293,-4.68088,-31.386,1.04236,
2026_07_06_21_46_44.310,3.872,38.5,0,0.765,0,0,0,0, ,0,0,0,0,0, ,195.4,490.6,930.1,-7.5,-129.3,74.8,25,0.825523,448.167,933.258,-5.60525,-37.898,4.1415,
2026_07_06_21_46_44.330,3.872,38.6,0,0.764,0,0,0,0, ,0,0,0,0,0, ,311.1,573.7,951,-25,-149.3,80.3,25,16.2076,453.285,933.702,-6.25392,-44.0772,8.61483,
2026_07_06_21_46_44.350,3.872,38.6,0,0.766,0,0,0,0, ,0,0,0,0,0, ,252.5,353.2,909.4,-26.9,-177.5,82.5,25,32.3922,453.904,933.489,-7.45415,-51.3484,13.0502,
2026_07_06_21_46_44.370,3.872,38.7,0,0.766,0,0,0,0, ,0,0,0,0,0, ,323.3,377,904,-25.6,-194.9,85,25,47.9622,448.493,931.857,-8.59952,-59.566,17.3584,
2026_07_06_21_46_44.390,3.872,38.6,0,0.766,0,0,0,0, ,0,0,0,0,0, ,355.3,315.7,839.8,-25.5,-189.9,90.7,25,65.7156,442.268,928.203,-9.63244,-67.6605,21.654,
2026_07_06_21_46_44.410,3.872,38.6,0,0.765,0,0,0,0, ,0,0,0,0,0, ,416.1,273.5,755.7,-32.8,-153,91.9,25,85.2146,433.27,920.254,-10.8218,-73.9852,25.8981,
2026_07_06_21_46_44.429,3.872,38.6,0,0.765,0,0,0,0, ,0,0,0,0,0, ,536.8,285.2,666.9,-24.9,-100.1,82.2,25,109.056,423.89,907.52,-11.9204,-77.1884,29.6245,
2026_07_06_21_46_44.449,3.872,38.5,0,0.766,0,0,0,0, ,0,0,0,0,0, ,539.7,238.5,682.7,-9.9,-76.6,66.4,25,135.21,414.016,893.339,-12.2543,-77.8685,32.3469,
2026_07_06_21_46_44.469,3.872,38.5,0,0.764,0,0,0,0, ,0,0,0,0,0, ,536.9,247.3,740.7,-6.9,-99.3,63,25,159.773,403.589,882.27,-12.0194,-78.4829,34.3184,
2026_07_06_21_46_44.488,3.872,38.6,0,0.766,0,0,0,0, ,0,0,0,0,0, ,546.1,208.7,761.2,-0.1,-132.1,75.7,25,183.034,392.889,874.268,-11.5003,-80.7508,36.4532,
2026_07_06_21_46_44.508,3.872,38.6,0,0.765,0,0,0,0, ,0,0,0,0,0, ,596.9,104.2,627.3,-11.9,-142.7,69.1,25,206.706,378.481,863.298,-11.1651,-84.2028,38.6437,
2026_07_06_21_46_44.528,3.872,38.6,0,0.765,0,0,0,0, ,0,0,0,0,0, ,698.3,72.2,426.7,-21.8,-112,39.4,25,233.573,360.792,842.805,-11.5115,-86.8321,39.5947,
2026_07_06_21_46_44.548,3.872,38.5,0,0.766,0,0,0,0, ,0,0,0,0,0, ,719.8,176,596.4,-13.5,-111.3,13.8,25,262.548,346.368,822.619,-11.8856,-88.3445,38.8028,
2026_07_06_21_46_44.568,3.872,38.5,0,0.765,0,0,0,0, ,0,0,0,0,0, ,706.1,186.1,617.3,-54.7,-195.5,-2.5,25,289.994,336.294,809.471,-13.2393,-92.3088,36.7826,
2026_07_06_21_46_44.588,3.872,38.6,0,0.766,0,0,0,0, ,0,0,0,0,0, ,609.4,-61.5,491.2,-49,-233.8,0.9,25,312.404,319.598,793.918,-15.5921,-99.764,34.4924,
2026_07_06_21_46_44.607,3.872,38.5,0,0.765,0,0,0,0, ,0,0,0,0,0, ,1037.1,204.8,568.8,-16,-209.6,4.8,25,343.534,304.488,777.836,-16.6224,-107.194,32.5642,
2026_07_06_21_46_44.628,3.872,38.5,0,0.766,0,0,0,0, ,0,0,0,0,0, ,899,91.3,442.1,-52.3,-116.1,-16.5,25,381.59,294.955,761.237,-17.6905,-110.586,30.2233,
2026_07_06_21_46_44.647,3.872,38.6,0,0.766,0,0,0,0, ,0,0,0,0,0, ,948.1,194.4,454.9,-50.5,-61.2,-10.6,25,414.616,285.687,742.18,-19.7447,-109.249,27.5559,
2026_07_06_21_46_44.667,3.872,38.5,0,0.766,0,0,0,0, ,0,0,0,0,0, ,956.1,118.5,401.2,-23.1,-73.8,5.3,25,447.369,277.811,723.038,-20.784,-106.705,25.7152,
2026_07_06_21_46_44.687,3.872,38.5,0,0.765,0,0,0,0, ,0,0,0,0,0, ,918,152.2,427.9,-23.3,-92.1,20.6,25,477.209,269.13,704.239,-20.9312,-105.258,24.9373,
2026_07_06_21_46_44.708,3.872,38.5,0,0.766,0,0,0,0, ,0,0,0,0,0, ,924.9,119.2,313.8,-25.5,-92.9,27.4,25,504.28,260.999,683.923,-21.1426,-104.48,24.8802,
2026_07_06_21_46_44.726,3.872,38.6,0,0.766,0,0,0,0, ,0,0,0,0,0, ,874.7,153.1,220.3,-13.4,-69.2,34,25,528.382,253.391,658.52,-21.0395,-103.052,25.2349,
2026_07_06_21_46_44.746,3.872,38.5,0,0.765,0,0,0,0, ,0,0,0,0,0, ,787.2,102.6,174.4,9.5,-82.7,16,25,546.82,245.741,630.417,-19.8762,-101.401,25.2205,
2026_07_06_21_46_44.766,3.872,38.7,0,0.766,0,0,0,0, ,0,0,0,0,0, ,957,48.7,196.6,25.8,-78.5,-10.5,25,566.641,235.376,603.305,-17.5894,-100.133,23.8512,
2026_07_06_21_46_44.786,3.872,38.6,0,0.766,0,0,0,0, ,0,0,0,0,0, ,953.9,68.9,336.1,18.8,-47.1,-9.6,25,590.334,224.616,582.772,-15.1587,-97.8583,21.7854,
2026_07_06_21_46_44.810,3.872,38.5,0,0.766,0,0,0,0, ,0,0,0,0,0, ,940.3,81.5,289.6,-3.2,-54.5,2.1,25,612.075,215.511,566.324,-13.7596,-94.9907,20.2293,
2026_07_06_21_46_44.828,3.872,38.5,0,0.766,0,0,0,0, ,0,0,0,0,0, ,907.8,102.9,197.2,-2.8,-70.4,9.9,25,631.086,207.997,546.646,-13.104,-93.0077,19.3622,
2026_07_06_21_46_44.845,3.872,38.7,0,0.766,0,0,0,0, ,0,0,0,0,0, ,932,69.2,177.4,-10.7,-74.6,21.8,25,648.685,200.566,524.748,-12.7168,-91.758,19.1482,
2026_07_06_21_46_44.865,3.872,38.6,0,0.766,0,0,0,0, ,0,0,0,0,0, ,977.4,85.5,141.4,-6.8,-53.3,19.7,25,667.333,193.057,502.485,-12.4751,-90.0635,19.2458,
2026_07_06_21_46_44.884,3.872,38.5,0,0.769,0,0,0,0, ,0,0,0,0,0, ,1045.1,172.1,125.9,-7.4,-29.6,26.9,25,688.291,189.141,480.009,-12.1475,-87.1011,19.4929,
2026_07_06_21_46_44.904,3.872,38.5,0,0.766,0,0,0,0, ,0,0,0,0,0, ,961.3,-93,107.9,-6.2,-43,15.8,25,707.48,180.026,457.882,-11.8216,-84.0054,19.606,
2026_07_06_21_46_44.924,3.872,38.5,0,0.768,0,0,0,0, ,0,0,0,0,0, ,936,83.7,55.5,-6.3,-73.4,14.3,25,722.177,168.772,434.958,-11.4821,-82.4329,19.3284,
2026_07_06_21_46_44.944,3.872,38.5,0,0.765,0,0,0,0, ,0,0,0,0,0, ,929.3,33.9,86.9,-1.6,-52.9,-3.9,25,735.002,162.071,412.792,-11.0231,-81.2578,18.4675,
2026_07_06_21_46_44.963,3.872,38.5,0,0.765,0,0,0,0, ,0,0,0,0,0, ,1002.3,50,88.6,-10.6,-36.9,-6.8,25,749.067,154.751,392.984,-10.7231,-79.0423,17.0161,
2026_07_06_21_46_44.983,3.872,38.5,0,0.766,0,0,0,0, ,0,0,0,0,0, ,1049,52.1,38.6,-18.4,-21.2,-1.6,25,765.921,148.431,372.913,-10.9533,-75.9959,15.7232,
2026_07_06_21_46_45.003,3.872,38.5,0,0.765,0,0,0,0, ,0,0,0,0,0, ,1066,75.9,13.1,-22,-0.3,2.6,25,783.689,143.286,351.763,-11.5168,-72.02,14.7956,
2026_07_06_21_46_45.023,3.872,38.5,0,0.766,0,0,0,0, ,0,0,0,0,0, ,1048.9,40.6,15.2,-26.4,27.2,7,25,800.371,138.105,331.19,-12.2896,-66.8116,14.1865,
2026_07_06_21_46_45.043,3.872,38.5,0,0.766,0,0,0,0, ,0,0,0,0,0, ,1066.5,13.6,43,-22,28.9,-0.3,25,816.052,131.34,312.782,-13.0154,-61.031,13.5261,
2026_07_06_21_46_45.063,3.872,38.5,0,0.766,0,0,0,0, ,0,0,0,0,0, ,905.8,73.6,187.2,-23.5,27.6,-4.8,25,826.418,125.994,300.735,-13.6086,-55.5904,12.5465,
2026_07_06_21_46_45.083,3.872,38.5,0,0.764,0,0,0,0, ,0,0,0,0,0, ,896.2,65.6,110.1,-22.6,18,7.2,25,830.962,122.557,291.468,-14.184,-50.8135,11.855,
2026_07_06_21_46_45.103,3.872,38.5,0,0.766,0,0,0,0, ,0,0,0,0,0, ,960.8,52.4,91.4,-16.7,6.3,0.2,25,836.906,118.684,279.846,-14.5171,-46.9767,11.3581,
2026_07_06_21_46_45.122,3.872,38.5,0,0.766,0,0,0,0, ,0,0,0,0,0, ,989.1,61.6,64,-12.8,-4.5,-0.7,25,845.318,114.925,267.527,-14.5312,-44.0592,10.6507,
2026_07_06_21_46_45.142,3.872,38.5,0,0.765,0,0,0,0, ,0,0,0,0,0, ,1016.2,46.2,78.7,-11.1,-6.7,1.4,25,854.906,111.206,255.573,-14.374,-41.7156,10.023,
2026_07_06_21_46_45.162,3.872,38.6,0,0.764,0,0,0,0, ,0,0,0,0,0, ,975.4,48.4,116,-11.8,-4.6,4.5,25,863.491,107.312,245.931,-14.1958,-39.5178,9.59201,
2026_07_06_21_46_45.181,3.872,38.5,0,0.765,0,0,0,0, ,0,0,0,0,0, ,943.8,100.4,63.4,2.2,-15.5,-9.8,25,869.348,105.307,236.411,-13.6232,-37.7221,8.84602,
2026_07_06_21_46_45.201,3.872,38.5,0,0.765,0,0,0,0, ,0,0,0,0,0, ,956,-26.7,199.9,-4.4,-19.1,-10.3,25,874.257,101.135,230.027,-12.8601,-36.4777,7.69454,
2026_07_06_21_46_45.222,3.872,38.5,0,0.765,0,0,0,0, ,0,0,0,0,0, ,1023.4,67.5,67.1,-6.5,-15.2,-1.3,25,881.291,96.2152,224.145,-12.4085,-35.2999,6.87222,
2026_07_06_21_46_45.241,3.872,38.5,0,0.765,0,0,0,0, ,0,0,0,0,0, ,997.5,60.6,62,0.1,-19,-3.8,25,889.162,94.2551,214.42,-11.8474,-34.1908,6.29805,
2026_07_06_21_46_45.260,3.872,38.4,0,0.765,0,0,0,0, ,0,0,0,0,0, ,998.9,33.6,55.5,-3.1,-12.3,-0.4,25,895.807,91.3816,204.933,-11.2168,-33.061,5.78629,
2026_07_06_21_46_45.280,3.872,38.4,0,0.766,0,0,0,0, ,0,0,0,0,0, ,969.6,65.1,71.6,1.4,-4.2,-5.6,25,901.196,88.8203,196.318,-10.5851,-31.5491,5.25088,
2026_07_06_21_46_45.300,3.872,38.5,0,0.766,0,0,0,0, ,0,0,0,0,0, ,984.6,50.2,105.5,0.2,-10.9,-5,25,905.821,86.9209,189.751,-9.89133,-30.0866,4.60794,
2026_07_06_21_46_45.320,3.872,38.5,0,0.766,0,0,0,0, ,0,0,0,0,0, ,996.4,52,63.4,-1.4,-17.5,-2.5,25,910.982,84.738,183.334,-9.32514,-29.1185,4.09862,
2026_07_06_21_46_45.339,3.872,38.5,0,0.766,0,0,0,0, ,0,0,0,0,0, ,987.1,53.4,44,-1.7,-14.6,-1.7,25,915.903,82.7857,175.434,-8.85135,-28.3222,3.72089,
2026_07_06_21_46_45.360,3.872,38.5,0,0.765,0,0,0,0, ,0,0,0,0,0, ,1001.8,54.5,61.7,-2.8,-7.4,-2.7,25,920.69,81.0285,167.964,-8.44908,-27.2666,3.36009,
2026_07_06_21_46_45.379,3.872,38.5,0,0.765,0,0,0,0, ,0,0,0,0,0, ,1007,50.2,50.5,-4,-5.2,0.1,25,925.791,79.2809,161.148,-8.1414,-25.989,3.07612,
2026_07_06_21_46_45.399,3.872,38.5,0,0.765,0,0,0,0, ,0,0,0,0,0, ,991.5,49.3,64.6,-4.6,-7.1,1.4,25,930.267,77.4814,154.835,-7.90731,-24.78,2.93437,
2026_07_06_21_46_45.420,3.872,38.5,0,0.765,0,0,0,0, ,0,0,0,0,0, ,981.6,58.2,53.5,-3.2,-13.2,1.4,25,933.697,76.0353,148.998,-7.66312,-23.8885,2.84087,
2026_07_06_21_46_45.439,3.872,38.4,0,0.764,0,0,0,0, ,0,0,0,0,0, ,985.1,51.2,59.5,-3.7,-17,0.6,25,936.723,74.7352,143.361,-7.40638,-23.353,2.72869,
2026_07_06_21_46_45.460,3.872,38.5,0,0.766,0,0,0,0, ,0,0,0,0,0, ,1006.5,41.6,43.5,-5,-15.8,-0.8,25,940.323,73.0085,137.763,-7.22013,-22.9293,2.55632,
2026_07_06_21_46_45.479,3.872,38.5,0,0.766,0,0,0,0, ,0,0,0,0,0, ,995.9,71.5,22.9,-39,-13.7,-4.5,25,944.032,72.0055,131.392,-8.12078,-22.4308,2.23906,
2026_07_06_21_46_45.499,3.872,38.5,0,0.766,0,0,0,0, ,0,0,0,0,0, ,989.2,44.5,20.8,-23.3,-9.8,5.7,25,946.989,71.1521,124.716,-9.52412,-21.78,2.13918,
2026_07_06_21_46_45.518,3.872,38.5,0,0.765,0,0,0,0, ,0,0,0,0,0, ,1008.1,54.5,29.9,-17,-16.1,1.5,25,950.137,69.8327,118.661,-10.1716,-21.2419,2.2282,
2026_07_06_21_46_45.540,3.872,38.5,0,0.766,0,0,0,0, ,0,0,0,0,0, ,991.9,49.6,7.6,-18.7,-20.1,2.9,25,953.176,68.749,112.573,-10.6395,-21.0504,2.22648,
2026_07_06_21_46_45.557,3.872,38.5,0,0.766,0,0,0,0, ,0,0,0,0,0, ,1007,51.8,-7.9,-2.6,-14.8,4.1,25,955.995,67.6492,105.704,-10.6402,-20.831,2.30408,
2026_07_06_21_46_45.577,3.872,38.4,0,0.765,0,0,0,0, ,0,0,0,0,0, ,952.5,36.6,24,0.8,-10.2,3.3,25,957.443,66.2202,99.7531,-10.0466,-20.3234,2.38915,
2026_07_06_21_46_45.597,3.872,38.6,0,0.765,0,0,0,0, ,0,0,0,0,0, ,967.5,37.7,16.4,-2.6,-1.9,-2.5,25,957.599,64.4488,94.9054,-9.48926,-19.4536,2.26793,
2026_07_06_21_46_45.619,3.872,38.5,0,0.766,0,0,0,0, ,0,0,0,0,0, ,1008.6,46.2,1.5,-0.1,-4.7,-3.7,25,959.454,63.0777,89.6675,-8.99327,-18.4692,1.94082,
2026_07_06_21_46_45.636,3.872,38.5,0,0.765,0,0,0,0, ,0,0,0,0,0, ,988.6,99.6,-48.7,14.5,-19.1,-7.5,25,961.84,63.6763,82.7652,-8.0065,-18.0689,1.48131,
2026_07_06_21_46_45.657,3.872,38.5,0,0.766,0,0,0,0, ,0,0,0,0,0, ,977.6,36.4,16.8,3,-17.1,-4,25,963.135,63.9398,76.7498,-6.9854,-18.0708,1.04065,
2026_07_06_21_46_45.676,3.872,38.5,0,0.765,0,0,0,0, ,0,0,0,0,0, ,975.9,39.5,15.9,-1.4,-5.3,-7.6,25,963.965,62.356,73.0692,-6.51098,-17.6521,0.623796,
2026_07_06_21_46_45.697,3.872,38.5,0,0.766,0,0,0,0, ,0,0,0,0,0, ,1008.6,40.7,-11.7,-1.2,-2.2,-7.1,25,965.689,60.9998,68.7445,-6.19343,-16.805,0.137893,
2026_07_06_21_46_45.716,3.872,38.5,0,0.766,0,0,0,0, ,0,0,0,0,0, ,1015.7,42.6,6.1,-1.5,0.4,-3.4,25,968.52,59.8207,64.3847,-5.89828,-15.8357,-0.190432,
2026_07_06_21_46_45.737,3.872,38.4,0,0.766,0,0,0,0, ,0,0,0,0,0, ,998.1,39.6,3,-0.6,1.9,0.9,25,970.859,58.6799,60.7385,-5.60284,-14.8007,-0.254999,
2026_07_06_21_46_45.756,3.872,38.4,0,0.765,0,0,0,0, ,0,0,0,0,0, ,971.9,45.8,6.7,-0.9,5.2,-1.4,25,971.72,57.7061,57.3328,-5.30712,-13.6824,-0.254695,
2026_07_06_21_46_45.779,3.872,38.4,0,0.766,0,0,0,0, ,0,0,0,0,0, ,978.8,40.1,-7.4,-4.5,2.2,-3.8,25,971.942,56.8069,53.8178,-5.14825,-12.6232,-0.397612,
2026_07_06_21_46_45.796,3.872,38.6,0,0.767,0,0,0,0, ,0,0,0,0,0, ,999.5,42.4,3.4,-4.1,-2.4,-2.5,25,972.99,55.8589,50.4164,-5.09656,-11.8601,-0.565335,
2026_07_06_21_46_45.816,3.872,38.4,0,0.766,0,0,0,0, ,0,0,0,0,0, ,992.5,48.4,-14.5,-2,-5.5,-0.4,25,974.392,55.2216,47.0059,-4.97185,-11.378,-0.619245,
2026_07_06_21_46_45.836,3.872,38.5,0,0.766,0,0,0,0, ,0,0,0,0,0, ,978.5,49.1,-2.6,0,-2.9,-2.5,25,975.069,54.8272,43.6205,-4.72981,-10.9406,-0.669869,
2026_07_06_21_46_45.857,3.872,38.5,0,0.766,0,0,0,0, ,0,0,0,0,0, ,972.4,51.3,1.7,-1.4,0.4,-5.8,25,975.092,54.5452,40.935,-4.48425,-10.3501,-0.881939,
2026_07_06_21_46_45.875,3.872,38.5,0,0.765,0,0,0,0, ,0,0,0,0,0, ,992.4,56.7,-11.3,-2.9,3.8,-8.9,25,975.538,54.512,38.148,-4.342,-9.59143,-1.27609,
2026_07_06_21_46_45.895,3.872,38.5,0,0.765,0,0,0,0, ,0,0,0,0,0, ,1008.3,53.4,-3.2,-3.1,2.4,-6.9,25,977.05,54.5448,35.3815,-4.26023,-8.81804,-1.67973,
2026_07_06_21_46_45.916,3.872,38.5,0,0.766,0,0,0,0, ,0,0,0,0,0, ,1002.8,55.6,-9.1,-2.6,0,-2.8,25,978.787,54.5421,32.8507,-4.17429,-8.20757,-1.87292,
2026_07_06_21_46_45.938,3.872,38.5,0,0.766,0,0,0,0, ,0,0,0,0,0, ,974.1,59,-9.8,-1.4,-0.6,-4.4,25,979.375,54.7101,30.273,-4.04179,-7.7257,-1.97816,
2026_07_06_21_46_45.953,3.872,38.4,0,0.766,0,0,0,0, ,0,0,0,0,0, ,1007.6,60.6,9,0.5,-8.4,-8.7,25,980.075,55.0203,28.4039,-3.82292,-7.52914,-2.25676,
2026_07_06_21_46_45.974,3.872,38.5,0,0.764,0,0,0,0, ,0,0,0,0,0, ,1012.6,60.7,2.4,-1.9,-4.8,-4.7,25,981.904,55.3633,27.0204,-3.63262,-7.47252,-2.52752,
2026_07_06_21_46_45.994,3.872,38.6,0,0.765,0,0,0,0, ,0,0,0,0,0, ,996.8,59.8,-5,-2.8,-2.3,-3.7,25,983.293,55.6611,25.2946,-3.55446,-7.23349,-2.62944,
2026_07_06_21_46_46.015,3.872,38.6,0,0.765,0,0,0,0, ,0,0,0,0,0, ,981.4,59,-11.2,-2,0,-4.2,25,983.647,55.889,23.2596,-3.48411,-6.86278,-2.70991,
2026_07_06_21_46_46.033,3.872,38.6,0,0.765,0,0,0,0, ,0,0,0,0,0, ,984.9,62.5,-9.6,-0.9,0.1,-6,25,983.617,56.1852,21.2085,-3.36015,-6.44153,-2.85555,
2026_07_06_21_46_46.055,3.872,38.4,0,0.766,0,0,0,0, ,0,0,0,0,0, ,991.5,60.1,-12.6,-1.7,-0.3,-5.6,25,983.896,56.4969,19.2397,-3.23461,-6.05509,-3.03498,
2026_07_06_21_46_46.073,3.872,38.4,0,0.766,0,0,0,0, ,0,0,0,0,0, ,994.7,58.3,-22.5,-1.8,-2.1,-4.3,25,984.457,56.6616,16.9978,-3.14414,-5.75923,-3.15168,
2026_07_06_21_46_46.095,3.872,38.5,0,0.765,0,0,0,0, ,0,0,0,0,0, ,996.8,63.8,-17.7,-1.8,-1.4,-3.8,25,985.145,56.929,14.7372,-3.06224,-5.51492,-3.20642,
2026_07_06_21_46_46.112,3.872,38.6,0,0.765,0,0,0,0, ,0,0,0,0,0, ,996.4,62.7,-13.1,-0.5,-1.4,-3.3,25,985.843,57.3142,12.9007,-2.94571,-5.26417,-3.22736,
2026_07_06_21_46_46.133,3.872,38.6,0,0.765,0,0,0,0, ,0,0,0,0,0, ,993,63.8,-11.7,0.5,-0.5,-2.2,25,986.383,57.6759,11.3589,-2.7662,-5.00127,-3.19827,
2026_07_06_21_46_46.152,3.872,38.6,0,0.764,0,0,0,0, ,0,0,0,0,0, ,986.6,65,-11.2,1,0.9,-2.8,25,986.591,58.0857,9.969,-2.55194,-4.68432,-3.15572,
2026_07_06_21_46_46.174,3.872,38.5,0,0.765,0,0,0,0, ,0,0,0,0,0, ,988.2,64.2,-1.3,1.5,0.4,-3.2,25,986.64,58.4826,8.98065,-2.32026,-4.35926,-3.14623,
2026_07_06_21_46_46.191,3.872,38.4,0,0.767,0,0,0,0, ,0,0,0,0,0, ,992,63.8,8.6,0.6,0.1,-2.5,25,986.851,58.8188,8.65582,-2.11488,-4.07838,-3.12818,
2026_07_06_21_46_46.220,3.872,38.5,0,0.767,0,0,0,0, ,0,0,0,0,0, ,996.3,60.6,2.8,-0.7,-0.8,-0.3,25,987.296,59.0249,8.4757,-1.98905,-3.85119,-3.02287,
2026_07_06_21_46_46.231,3.872,38.5,0,0.765,0,0,0,0, ,0,0,0,0,0, ,982.2,64.8,-9.8,-0.7,-1.2,0.2,25,987.415,59.2488,7.74593,-1.9105,-3.67744,-2.84171,
2026_07_06_21_46_46.253,3.872,38.5,0,0.766,0,0,0,0, ,0,0,0,0,0, ,975,65.1,-11.8,-0.9,-0.2,-2.1,25,986.878,59.5962,6.61579,-1.84283,-3.496,-2.72643,
2026_07_06_21_46_46.271,3.872,38.4,0,0.768,0,0,0,0, ,0,0,0,0,0, ,983.6,64.6,-10.1,-1.1,-0.2,-3.9,25,986.416,59.9164,5.54537,-1.79147,-3.29515,-2.7431,
2026_07_06_21_46_46.292,3.872,38.5,0,0.765,0,0,0,0, ,0,0,0,0,0, ,998.5,64.9,-12.6,-0.9,-1.5,-3.4,25,986.699,60.2109,4.51581,-1.74324,-3.14615,-2.79837,
2026_07_06_21_46_46.311,3.872,38.5,0,0.765,0,0,0,0, ,0,0,0,0,0, ,995.8,66.8,-5.1,-0.5,-2,-1.9,25,987.335,60.5546,3.70133,-1.67967,-3.06107,-2.78932,
2026_07_06_21_46_46.334,3.872,38.5,0,0.765,0,0,0,0, ,0,0,0,0,0, ,992.7,65.1,-2.5,-0.7,-0.9,-1.4,25,987.757,60.8834,3.24422,-1.61387,-2.9629,-2.7199,
2026_07_06_21_46_46.350,3.872,38.6,0,0.769,0,0,0,0, ,0,0,0,0,0, ,990.8,66.6,-14.5,-1.5,0.4,-1.7,25,988,61.186,2.52855,-1.58256,-2.79758,-2.64861,
2026_07_06_21_46_46.372,3.872,38.5,0,0.765,0,0,0,0, ,0,0,0,0,0, ,987.6,63.8,-14.2,-1,-0.6,-1.8,25,988.073,61.4306,1.50002,-1.5623,-2.6332,-2.59385,
2026_07_06_21_46_46.389,3.872,38.4,0,0.765,0,0,0,0, ,0,0,0,0,0, ,987.6,61.7,-7.8,-0.5,-1.5,-1.2,25,988.044,61.511,0.738298,-1.5128,-2.53672,-2.52719,
2026_07_06_21_46_46.410,3.872,38.3,0,0.765,0,0,0,0, ,0,0,0,0,0, ,985.8,66.1,-7.8,-1,-0.9,-1.7,25,987.962,61.6566,0.217996,-1.46631,-2.45527,-2.46155,
2026_07_06_21_46_46.429,3.872,38.6,0,0.766,0,0,0,0, ,0,0,0,0,0, ,992.3,66.8,-9.7,-0.7,-0.7,-2.2,25,988.029,61.9487,-0.328491,-1.42876,-2.3544,-2.43038,
2026_07_06_21_46_46.450,3.872,38.5,0,0.764,0,0,0,0, ,0,0,0,0,0, ,985.5,67.5,-8.4,-0.7,0.4,-2.5,25,988.082,62.2656,-0.859958,-1.38435,-2.22007,-2.42548,
2026_07_06_21_46_46.469,3.872,38.4,0,0.764,0,0,0,0, ,0,0,0,0,0, ,987.5,63.4,-4.3,-1.3,1.1,-3.4,25,987.985,62.4597,-1.19451,-1.36093,-2.03908,-2.45744,
2026_07_06_21_46_46.491,3.872,38.6,0,0.767,0,0,0,0, ,0,0,0,0,0, ,993.1,64.3,-0.4,-1.2,0,-2.4,25,988.126,62.5444,-1.26492,-1.35417,-1.88131,-2.48441,
2026_07_06_21_46_46.514,3.872,38.5,0,0.765,0,0,0,0, ,0,0,0,0,0, ,990.3,65.3,-5.6,-1.2,0.5,-1.8,25,988.344,62.6819,-1.37065,-1.34477,-1.75143,-2.46099,
2026_07_06_21_46_46.536,3.872,38.4,0,0.765,0,0,0,0, ,0,0,0,0,0, ,985.1,67.8,-6.7,-1.2,0.8,-2,25,988.305,62.9176,-1.66189,-1.33595,-1.60509,-2.4268,
2026_07_06_21_46_46.548,3.872,38.5,0,0.765,0,0,0,0, ,0,0,0,0,0, ,990.2,68.3,-8.9,-0.9,0,-2.5,25,988.265,63.2303,-2.03593,-1.31853,-1.48291,-2.41603,
2026_07_06_21_46_46.570,3.872,38.4,0,0.766,0,0,0,0, ,0,0,0,0,0, ,993,67.3,-5.4,-0.3,-1.7,-1.7,25,988.468,63.5088,-2.34757,-1.27474,-1.44434,-2.39677,
2026_07_06_21_46_46.587,3.872,38.5,0,0.766,0,0,0,0, ,0,0,0,0,0, ,994.1,67.3,-10.2,-0.5,-1.1,-0.7,25,988.778,63.7398,-2.67983,-1.22144,-1.44164,-2.32384,
2026_07_06_21_46_46.609,3.872,38.5,0,0.765,0,0,0,0, ,0,0,0,0,0, ,986.2,67.3,-12,-0.7,1,-0.9,25,988.862,63.9568,-3.19293,-1.18357,-1.35684,-2.23098,
2026_07_06_21_46_46.627,3.872,38.4,0,0.768,0,0,0,0, ,0,0,0,0,0, ,981.3,67.1,-8.4,-0.1,0.3,-1.9,25,988.55,64.1544,-3.61993,-1.13582,-1.23454,-2.18034,
2026_07_06_21_46_46.649,3.872,38.5,0,0.765,0,0,0,0, ,0,0,0,0,0, ,982.1,67.1,5.1,-0.1,-1.9,-3,25,988.133,64.3339,-3.49988,-1.0727,-1.20806,-2.19678,
2026_07_06_21_46_46.666,3.872,38.5,0,0.764,0,0,0,0, ,0,0,0,0,0, ,992.7,66.8,0.8,-0.5,-2.1,-3.3,25,988.088,64.4933,-3.10684,-1.02561,-1.25632,-2.25486,
2026_07_06_21_46_46.689,3.872,38.5,0,0.765,0,0,0,0, ,0,0,0,0,0, ,990.7,67.5,-2.8,-0.7,-0.4,-2.8,25,988.308,64.6552,-2.97846,-0.999676,-1.25594,-2.30332,
2026_07_06_21_46_46.706,3.872,38.5,0,0.766,0,0,0,0, ,0,0,0,0,0, ,981.8,66.1,-7.6,-1.8,-0.2,-3,25,988.183,64.7859,-3.11383,-1.01493,-1.19768,-2.33968,
2026_07_06_21_46_46.728,3.872,38.4,0,0.765,0,0,0,0, ,0,0,0,0,0, ,989.7,70.1,-2.4,-1.4,-1.2,-3.9,25,988.034,64.9879,-3.22877,-1.05058,-1.16736,-2.40734,
2026_07_06_21_46_46.746,3.872,38.4,0,0.765,0,0,0,0, ,0,0,0,0,0, ,1008,69.8,-18.9,-0.4,-2.2,-1.8,25,988.694,65.2902,-3.681,-1.04141,-1.19981,-2.43431,
2026_07_06_21_46_46.770,3.872,38.5,0,0.765,0,0,0,0, ,0,0,0,0,0, ,992.3,70,-17.3,0.4,0.2,-0.1,25,989.392,65.5712,-4.55966,-0.977946,-1.18764,-2.34386,
2026_07_06_21_46_46.786,3.872,38.5,0,0.765,0,0,0,0, ,0,0,0,0,0, ,982.7,69.7,-12.3,0.4,0.7,-0.4,25,989.276,65.8319,-5.18368,-0.893978,-1.08785,-2.21627,
2026_07_06_21_46_46.808,3.872,38.4,0,0.766,0,0,0,0, ,0,0,0,0,0, ,979.1,65.4,-4,0,-0.2,-2.3,25,988.766,65.9366,-5.36444,-0.827313,-1.00632,-2.16348,
2026_07_06_21_46_46.825,3.872,38.3,0,0.765,0,0,0,0, ,0,0,0,0,0, ,996.5,65.5,-1.8,-0.3,-1,-2.1,25,988.707,65.9069,-5.21426,-0.786039,-0.98156,-2.1657,
2026_07_06_21_46_46.848,3.872,38.3,0,0.766,0,0,0,0, ,0,0,0,0,0, ,993.6,67,-6.4,-0.3,-2,-0.6,25,989.094,65.9278,-5.14636,-0.756421,-1.01315,-2.116,
2026_07_06_21_46_46.865,3.872,38.4,0,0.766,0,0,0,0, ,0,0,0,0,0, ,981.9,68.6,-7,-0.5,-0.6,-1.2,25,989.012,66.0419,-5.24104,-0.734702,-1.03063,-2.0419,
2026_07_06_21_46_46.888,3.872,38.5,0,0.766,0,0,0,0, ,0,0,0,0,0, ,979.4,66,-5.4,-1,-1.2,-3.1,25,988.502,66.1186,-5.29948,-0.735634,-1.02267,-2.04849,
2026_07_06_21_46_46.905,3.872,38.4,0,0.765,0,0,0,0, ,0,0,0,0,0, ,989.6,66.7,-1.5,-1,-2.3,-3.5,25,988.258,66.1327,-5.18677,-0.751744,-1.06699,-2.12475,
2026_07_06_21_46_46.928,3.872,38.5,0,0.765,0,0,0,0, ,0,0,0,0,0, ,984.6,69,4.5,-1.6,-3.5,-3.3,25,988.188,66.2373,-4.7793,-0.785153,-1.17869,-2.20246,
2026_07_06_21_46_46.944,3.872,38.5,0,0.765,0,0,0,0, ,0,0,0,0,0, ,991.6,70,-5.4,-1.7,-4.2,-3.1,25,988.182,66.4362,-4.51548,-0.837855,-1.34148,-2.26325,
2026_07_06_21_46_46.966,3.872,38.5,0,0.765,0,0,0,0, ,0,0,0,0,0, ,993.8,71.8,-21.1,-1.8,-4.7,-2.4,25,988.458,66.7082,-5.04774,-0.893439,-1.5309,-2.29291,
2026_07_06_21_46_46.983,3.872,38.4,0,0.765,0,0,0,0, ,0,0,0,0,0, ,995.1,70,-13.5,-1.7,-4.1,-1.8,25,988.823,66.9636,-5.79436,-0.945635,-1.70574,-2.28115,
2026_07_06_21_46_47.007,3.872,38.5,0,0.765,0,0,0,0, ,0,0,0,0,0, ,988.7,70.3,-18.5,-1.4,-5.5,-0.8,25,989.01,67.1578,-6.41627,-0.982464,-1.89429,-2.22136,
2026_07_06_21_46_47.023,3.872,38.3,0,0.766,0,0,0,0, ,0,0,0,0,0, ,988.6,70.4,-28.8,0.1,-5.3,-1.3,25,988.988,67.3523,-7.46645,-0.962204,-2.10792,-2.14998,
2026_07_06_21_46_47.045,3.872,38.4,0,0.764,0,0,0,0, ,0,0,0,0,0, ,991.5,73.2,-16.6,1.4,-9.2,-1.7,25,989.053,67.6233,-8.39474,-0.857867,-2.42127,-2.11038,
2026_07_06_21_46_47.063,3.872,38.4,0,0.768,0,0,0,0, ,0,0,0,0,0, ,991.5,69.7,-7.6,2.5,-12.3,-1.2,25,989.202,67.8565,-8.62053,-0.686763,-2.9288,-2.07013,
2026_07_06_21_46_47.088,3.872,38.4,0,0.765,0,0,0,0, ,0,0,0,0,0, ,985.2,71.5,-24.2,3.8,-16.9,-0.7,25,989.15,68.0237,-9.06413,-0.45296,-3.64001,-2.00188,
2026_07_06_21_46_47.102,3.872,38.5,0,0.765,0,0,0,0, ,0,0,0,0,0, ,981.4,72.7,-8.6,7,-21.3,-1.7,25,988.794,68.2721,-9.51116,-0.0962952,-4.58211,-1.95301,
2026_07_06_21_46_47.125,3.872,38.5,0,0.768,0,0,0,0, ,0,0,0,0,0, ,950.8,66.4,30.7,13.1,-43.2,-0.5,25,987.411,68.35,-8.25821,0.521995,-6.26812,-1.90103,
2026_07_06_21_46_47.142,3.872,38.4,0,0.764,0,0,0,0, ,0,0,0,0,0, ,917.4,54.6,-5.8,8.6,-73.1,-2.7,25,984.162,67.8716,-6.9963,1.15136,-9.42967,-1.88269,
2026_07_06_21_46_47.165,3.872,38.4,0,0.765,0,0,0,0, ,0,0,0,0,0, ,1074.3,117.1,-50,15.3,-97.7,-1.1,25,984.874,68.9672,-8.27012,1.8094,-14.0591,-1.88374,
2026_07_06_21_46_47.187,3.872,38.4,0,0.766,0,0,0,0, ,0,0,0,0,0, ,1092.2,16.4,-219.2,46.4,-114.2,-1.4,25,990.869,68.8321,-15.9683,3.57906,-19.6587,-1.84512,
2026_07_06_21_46_47.210,3.872,38.4,0,0.766,0,0,0,0, ,0,0,0,0,0, ,966.5,93.8,-277.2,43.8,-117.1,-7.5,25,993.214,67.9953,-30.12,6.10924,-25.5082,-2.00386,
2026_07_06_21_46_47.221,3.872,38.4,0,0.766,0,0,0,0, ,0,0,0,0,0, ,993,53.8,-260.2,46.9,-137,10.8,25,992.394,68.349,-44.6584,8.50048,-31.6959,-1.7812,
2026_07_06_21_46_47.244,3.872,38.4,0,0.768,0,0,0,0, ,0,0,0,0,0, ,1029,58.5,-303.2,43.3,-135.6,18.3,25,993.527,67.6056,-59.1032,10.7308,-38.0702,-0.786019,
2026_07_06_21_46_47.261,3.872,38.3,0,0.765,0,0,0,0, ,0,0,0,0,0, ,817.3,55.1,-342.4,49.2,-121.3,19.2,25,989.239,66.9472,-75.1722,12.8952,-43.5777,0.404457,
2026_07_06_21_46_47.287,3.872,38.4,0,0.765,0,0,0,0, ,0,0,0,0,0, ,948.2,77,-449.3,50.4,-140.6,23.1,25,982.75,66.8925,-94.7135,15.1441,-48.902,1.66864,
2026_07_06_21_46_47.300,3.872,38.3,0,0.765,0,0,0,0, ,0,0,0,0,0, ,959.9,-16.7,-399,71.6,-169.5,13.6,25,981.001,64.6535,-114.789,17.9384,-55.3704,2.68516,
2026_07_06_21_46_47.323,3.872,38.4,0,0.766,0,0,0,0, ,0,0,0,0,0, ,938.7,-5.1,-453.3,38.7,-153.8,-1,25,979.069,60.0494,-133.762,20.206,-61.8468,2.90544,
2026_07_06_21_46_47.340,3.872,38.3,0,0.765,0,0,0,0, ,0,0,0,0,0, ,848,14.6,-532.5,26.4,-156.7,-0.5,25,973.846,56.6796,-155.647,20.9582,-67.5385,2.68269,
2026_07_06_21_46_47.362,3.872,38.4,0,0.765,0,0,0,0, ,0,0,0,0,0, ,812.5,-10.4,-567.2,13.1,-172.7,-2.5,25,965.095,53.3537,-179.669,20.8846,-73.4593,2.4278,
2026_07_06_21_46_47.379,3.872,38.4,0,0.765,0,0,0,0, ,0,0,0,0,0, ,703.9,25.2,-571.6,-6.6,-198,-10.2,25,952.488,50.5534,-203.418,19.81,-80.2776,1.89291,
2026_07_06_21_46_47.404,3.872,38.4,0,0.768,0,0,0,0, ,0,0,0,0,0, ,639.7,-80.8,-520.7,28.7,-184.9,-10.2,25,935.383,45.7787,-224.303,19.2762,-87.0522,1.15599,
2026_07_06_21_46_47.419,3.872,38.3,0,0.766,0,0,0,0, ,0,0,0,0,0, ,701.2,-61,-606,13.2,-155.7,9.6,25,919.239,38.6686,-244.964,19.3782,-92.1251,1.06727,
2026_07_06_21_46_47.443,3.872,38.4,0,0.765,0,0,0,0, ,0,0,0,0,0, ,671.5,-41.2,-739.2,16.7,-141.2,0.5,25,905.047,33.1983,-271.023,19.1083,-95.5574,1.30997,
2026_07_06_21_46_47.459,3.872,38.4,0,0.766,0,0,0,0, ,0,0,0,0,0, ,586.5,-136.9,-800.5,40.4,-141.3,5,25,888.225,25.7488,-301.42,19.6837,-98.3418,1.39772,
2026_07_06_21_46_47.482,3.872,38.4,0,0.766,0,0,0,0, ,0,0,0,0,0, ,625.6,6.7,-790.7,39.1,-154.1,8.8,25,871.03,20.2127,-331.534,20.9065,-101.35,1.73301,
2026_07_06_21_46_47.498,3.872,38.3,0,0.766,0,0,0,0, ,0,0,0,0,0, ,552.3,-8.9,-786.8,31.5,-154.5,0.3,25,853.841,18.914,-359.396,21.7836,-104.576,1.90467,
2026_07_06_21_46_47.523,3.872,38.4,0,0.766,0,0,0,0, ,0,0,0,0,0, ,556.1,-36.3,-799.6,14.4,-119.4,-4.7,25,835.582,16.3842,-385.831,21.8547,-106.549,1.65455,
2026_07_06_21_46_47.543,3.872,38.3,0,0.766,0,0,0,0, ,0,0,0,0,0, ,556.3,-51.7,-762.5,-1.5,-78.6,-4.1,25,818.557,12.7046,-409.915,20.9159,-106.089,1.2856,
2026_07_06_21_46_47.567,3.872,38.4,0,0.766,0,0,0,0, ,0,0,0,0,0, ,478.7,-48.5,-906.8,-7.4,-80.4,2.4,25,800.211,8.87742,-435.797,19.3702,-104.469,1.15546,
2026_07_06_21_46_47.578,3.872,38.5,0,0.766,0,0,0,0, ,0,0,0,0,0, ,453.3,-43.3,-868.2,-5.2,-91.9,4.4,25,779.845,5.53942,-463.322,17.8059,-103.352,1.29224,
2026_07_06_21_46_47.601,3.872,38.3,0,0.766,0,0,0,0, ,0,0,0,0,0, ,381.3,-39,-891.3,-11.5,-110,2.5,25,757.753,2.69428,-488.699,16.2121,-103.206,1.42372,
2026_07_06_21_46_47.618,3.872,38.4,0,0.764,0,0,0,0, ,0,0,0,0,0, ,394.6,-48.7,-965.8,-7.7,-140.9,2.8,25,735.218,-0.14201,-515.502,14.6391,-104.562,1.49845,
2026_07_06_21_46_47.642,3.872,38.4,0,0.766,0,0,0,0, ,0,0,0,0,0, ,371.3,-46.9,-964.8,-1.9,-137.8,4.1,25,713.752,-3.04617,-542.912,13.4546,-106.681,1.61737,
2026_07_06_21_46_47.656,3.872,38.3,0,0.766,0,0,0,0, ,0,0,0,0,0, ,289.6,-60.1,-990.3,1.4,-114.6,3.6,25,690.394,-6.1207,-569.397,12.6194,-107.871,1.75342,
2026_07_06_21_46_47.681,3.872,38.3,0,0.766,0,0,0,0, ,0,0,0,0,0, ,217.6,-47.3,-991.5,5,-117.3,2.7,25,663.777,-9.02006,-595.083,12.0454,-108.363,1.83853,
2026_07_06_21_46_47.696,3.872,38.4,0,0.766,0,0,0,0, ,0,0,0,0,0, ,216.7,-52.4,-956.9,7.7,-129,0.8,25,636.561,-11.5081,-618.185,11.6984,-109.264,1.83313,
2026_07_06_21_46_47.722,3.872,38.5,0,0.766,0,0,0,0, ,0,0,0,0,0, ,219.6,-58.9,-946.1,5.6,-113.2,2.1,25,611.064,-14.198,-638.496,11.3907,-109.985,1.80979,
2026_07_06_21_46_47.736,3.872,38.3,0,0.766,0,0,0,0, ,0,0,0,0,0, ,143,-67,-983,7.1,-80.7,2.5,25,584.875,-17.1689,-658.365,11.0836,-109.191,1.83966,
2026_07_06_21_46_47.759,3.872,38.3,0,0.766,0,0,0,0, ,0,0,0,0,0, ,47.7,-55,-1007.5,8,-68.9,-4.5,25,555.045,-19.8398,-678.894,10.8682,-107.095,1.66662,
2026_07_06_21_46_47.775,3.872,38.3,0,0.765,0,0,0,0, ,0,0,0,0,0, ,75.1,-64.5,-1021.6,10.7,-68.2,-8.3,25,524.963,-22.2718,-699.348,10.7757,-104.747,1.17506,
2026_07_06_21_46_47.798,3.872,38.3,0,0.766,0,0,0,0, ,0,0,0,0,0, ,79.9,-68.9,-999.7,11.9,-62.7,-4.5,25,497.696,-24.9792,-718.318,10.8077,-102.352,0.713452,
2026_07_06_21_46_47.814,3.872,38.3,0,0.766,0,0,0,0, ,0,0,0,0,0, ,57.4,-80.6,-1013.5,12.4,-48,-5.2,25,471.551,-28.0121,-735.885,10.8895,-99.4878,0.374429,
2026_07_06_21_46_47.839,3.872,38.3,0,0.766,0,0,0,0, ,0,0,0,0,0, ,28.5,-84.8,-1019,14.9,-29.6,-8.6,25,445.433,-31.3446,-752.97,11.0577,-95.7896,-0.0688561,
2026_07_06_21_46_47.854,3.872,38.5,0,0.764,0,0,0,0, ,0,0,0,0,0, ,41.3,-79.8,-1009.8,16.3,-18.3,-10.2,25,420.416,-34.4497,-768.901,11.3345,-91.4119,-0.637473,
2026_07_06_21_46_47.879,3.872,38.4,0,0.766,0,0,0,0, ,0,0,0,0,0, ,37.2,-85.8,-1004.7,16.1,-15.5,-7.4,25,397.189,-37.3961,-783.425,11.631,-86.8713,-1.13488,
2026_07_06_21_46_47.899,3.872,38.3,0,0.764,0,0,0,0, ,0,0,0,0,0, ,36.1,-98.2,-993.2,13.2,-16.3,-5.6,25,375.218,-40.7235,-796.559,11.815,-82.5465,-1.46181,
2026_07_06_21_46_47.924,3.872,38.3,0,0.766,0,0,0,0, ,0,0,0,0,0, ,7.9,-103.8,-999.3,10.9,-14,-5.3,25,353.694,-44.3966,-808.728,11.8293,-78.4395,-1.70484,
2026_07_06_21_46_47.934,3.872,38.5,0,0.765,0,0,0,0, ,0,0,0,0,0, ,16.1,-105.7,-984.7,8.5,-11.3,-5.3,25,332.872,-48.0744,-819.896,11.6995,-74.4305,-1.92392,
2026_07_06_21_46_47.958,3.872,38.3,0,0.766,0,0,0,0, ,0,0,0,0,0, ,20.6,-103.3,-974.9,5.4,-2.8,-5,25,313.706,-51.5128,-829.64,11.4101,-70.3245,-2.12051,
2026_07_06_21_46_47.973,3.872,38.3,0,0.766,0,0,0,0, ,0,0,0,0,0, ,28.1,-107.1,-990.9,3.7,-1.8,-0.2,25,296.073,-54.7844,-838.979,10.9921,-66.1792,-2.14973,
2026_07_06_21_46_47.998,3.872,38.4,0,0.766,0,0,0,0, ,0,0,0,0,0, ,1.2,-101.9,-983.7,3.3,-6.4,2,25,278.924,-57.8139,-848.018,10.5355,-62.3963,-1.96389,
2026_07_06_21_46_48.013,3.872,38.4,0,0.766,0,0,0,0, ,0,0,0,0,0, ,-4.3,-110.2,-991,3.1,-12.1,0.5,25,261.833,-60.7533,-856.508,10.0885,-59.1577,-1.76804,
2026_07_06_21_46_48.038,3.872,38.3,0,0.766,0,0,0,0, ,0,0,0,0,0, ,-7.9,-113,-984,1.6,-5.4,-1,25,245.506,-63.8518,-864.49,9.61694,-56.086,-1.67554,
2026_07_06_21_46_48.052,3.872,38.4,0,0.766,0,0,0,0, ,0,0,0,0,0, ,-19.7,-111.9,-980.8,-0.9,0.7,-1.1,25,229.704,-66.8132,-871.676,9.05224,-52.8114,-1.63742,
2026_07_06_21_46_48.076,3.872,38.4,0,0.766,0,0,0,0, ,0,0,0,0,0, ,-18.6,-111.3,-994.6,-1.8,-1.3,-0.8,25,214.54,-69.5424,-878.746,8.41835,-49.6115,-1.59553,
2026_07_06_21_46_48.092,3.872,38.4,0,0.764,0,0,0,0, ,0,0,0,0,0, ,-14.1,-110.5,-1002.6,-0.2,-9.1,-1.6,25,200.47,-72.0627,-886.049,7.84442,-46.9052,-1.57143,
2026_07_06_21_46_48.116,3.872,38.3,0,0.764,0,0,0,0, ,0,0,0,0,0, ,-1.2,-113,-1003.7,1.3,-12.7,-0.1,25,187.788,-74.4811,-893.185,7.39992,-44.7111,-1.52746,
2026_07_06_21_46_48.132,3.872,38.3,0,0.764,0,0,0,0, ,0,0,0,0,0, ,-5.6,-112,-973.8,1.5,-7.1,-0.4,25,176.137,-76.7979,-899.009,7.0343,-42.5898,-1.44962,
2026_07_06_21_46_48.156,3.872,38.3,0,0.765,0,0,0,0, ,0,0,0,0,0, ,-15.6,-117,-976.1,-0.9,3.1,-2.9,25,164.758,-79.0954,-903.636,6.62392,-40.1164,-1.46183,
2026_07_06_21_46_48.172,3.872,38.3,0,0.766,0,0,0,0, ,0,0,0,0,0, ,-11.2,-118.1,-992.3,-0.8,5,-3.4,25,153.901,-81.4387,-908.546,6.16848,-37.425,-1.5647,
2026_07_06_21_46_48.197,3.872,38.3,0,0.769,0,0,0,0, ,0,0,0,0,0, ,10,-116.6,-1001.9,0.7,-3.1,-0.7,25,144.486,-83.627,-913.942,5.78954,-35.0865,-1.59427,
2026_07_06_21_46_48.211,3.872,38.4,0,0.768,0,0,0,0, ,0,0,0,0,0, ,-3.2,-115.1,-983.3,1,-11.3,2.6,25,135.889,-85.5906,-918.735,5.48854,-33.3872,-1.43923,
2026_07_06_21_46_48.235,3.872,38.3,0,0.766,0,0,0,0, ,0,0,0,0,0, ,-23.3,-115.2,-980.3,0,-6.8,1.3,25,126.801,-87.3919,-922.578,5.18455,-31.9041,-1.2327,
2026_07_06_21_46_48.250,3.872,38.3,0,0.766,0,0,0,0, ,0,0,0,0,0, ,-29.6,-116.6,-967,-2,0.9,-1.5,25,117.462,-89.1291,-925.69,4.80768,-30.1397,-1.16368,
2026_07_06_21_46_48.277,3.872,38.4,0,0.765,0,0,0,0, ,0,0,0,0,0, ,-26.9,-115.1,-988.2,-4.2,3.4,-3.2,25,108.583,-90.7574,-928.854,4.32581,-28.1721,-1.23597,
2026_07_06_21_46_48.293,3.872,38.3,0,0.766,0,0,0,0, ,0,0,0,0,0, ,-13.3,-114.3,-1023.4,-2.2,-5.9,-1.3,25,100.741,-92.2164,-933.543,3.8672,-26.5315,-1.29776,
2026_07_06_21_46_48.318,3.872,38.3,0,0.764,0,0,0,0, ,0,0,0,0,0, ,-3.2,-115.8,-1004,1.2,-8.4,1.2,25,94.0994,-93.6078,-938.427,3.60108,-25.3505,-1.22173,
2026_07_06_21_46_48.330,3.872,38.4,0,0.765,0,0,0,0, ,0,0,0,0,0, ,-32.3,-112.5,-972.2,0.4,-1.7,0.6,25,87.2836,-94.8596,-941.454,3.43039,-24.1134,-1.09243,
2026_07_06_21_46_48.356,3.872,38.3,0,0.764,0,0,0,0, ,0,0,0,0,0, ,-37.1,-109.9,-972.1,-2.6,0.2,-1.1,25,79.8502,-95.8554,-943.325,3.15431,-22.6897,-1.0411,
2026_07_06_21_46_48.369,3.872,38.2,0,0.765,0,0,0,0, ,0,0,0,0,0, ,-31.7,-113.4,-1013,-3.4,-4.3,-1.2,25,72.8881,-96.8178,-946.324,2.77929,-21.432,-1.04773,
2026_07_06_21_46_48.394,3.872,38.4,0,0.765,0,0,0,0, ,0,0,0,0,0, ,-27.2,-110.4,-1012.3,-1,-7.8,-0.1,25,66.6519,-97.7369,-950.366,2.47586,-20.4946,-1.0235,
2026_07_06_21_46_48.409,3.872,38.4,0,0.766,0,0,0,0, ,0,0,0,0,0, ,-28.8,-108.3,-984.2,-0.4,-7,-0.1,25,60.884,-98.4446,-953.284,2.28233,-19.6967,-0.967222,
2026_07_06_21_46_48.435,3.872,38.4,0,0.766,0,0,0,0, ,0,0,0,0,0, ,-35.4,-108.8,-979.9,-1.5,-1.6,-1.4,25,55.2178,-99.0604,-955.037,2.08536,-18.7584,-0.953985,
2026_07_06_21_46_48.448,3.872,38.5,0,0.765,0,0,0,0, ,0,0,0,0,0, ,-34.4,-110.5,-995.8,-1.9,1.2,-2.4,25,49.7263,-99.7057,-957.036,1.85469,-17.6275,-1.01163,
2026_07_06_21_46_48.474,3.872,38.4,0,0.766,0,0,0,0, ,0,0,0,0,0, ,-28.8,-108.7,-1006.3,-1,0.7,-2,25,44.7705,-100.309,-959.718,1.65331,-16.4955,-1.08405,
2026_07_06_21_46_48.488,3.872,38.4,0,0.765,0,0,0,0, ,0,0,0,0,0, ,-21.3,-107.7,-991.6,0.2,-5.5,-0.5,25,40.5158,-100.79,-962.109,1.52819,-15.6365,-1.09416,
2026_07_06_21_46_48.513,3.872,38.3,0,0.766,0,0,0,0, ,0,0,0,0,0, ,-26.4,-108.2,-980.9,-0.7,-3.9,0,25,36.5935,-101.226,-963.58,1.41983,-14.9701,-1.04272,
2026_07_06_21_46_48.528,3.872,38.3,0,0.766,0,0,0,0, ,0,0,0,0,0, ,-43.4,-108.5,-983.8,-2.1,0.2,-1.2,25,32.2369,-101.66,-964.724,1.248,-14.1706,-1.01574,
2026_07_06_21_46_48.553,3.872,38.3,0,0.765,0,0,0,0, ,0,0,0,0,0, ,-38.8,-111.2,-999.7,-2.3,1.1,-3,25,27.7679,-102.159,-966.371,1.03788,-13.2674,-1.08181,
2026_07_06_21_46_48.567,3.872,38.3,0,0.765,0,0,0,0, ,0,0,0,0,0, ,-20.2,-109.9,-1011.3,-0.5,-3,-1.4,25,24.2781,-102.67,-968.755,0.889326,-12.5168,-1.14995,
2026_07_06_21_46_48.593,3.872,38.4,0,0.765,0,0,0,0, ,0,0,0,0,0, ,-31.1,-111.5,-1002.6,1.4,-4.6,0.4,25,21.2356,-103.16,-971.083,0.862554,-11.9857,-1.11035,
2026_07_06_21_46_48.607,3.872,38.4,0,0.765,0,0,0,0, ,0,0,0,0,0, ,-39,-109.8,-981.4,1.1,-0.2,-0.6,25,17.8057,-103.616,-972.357,0.886164,-11.4015,-1.04878,
2026_07_06_21_46_48.632,3.872,38.4,0,0.765,0,0,0,0, ,0,0,0,0,0, ,-46.7,-109.7,-982.9,-0.3,3.9,-2.5,25,14.1095,-103.99,-972.954,0.856539,-10.594,-1.07932,
2026_07_06_21_46_48.646,3.872,38.4,0,0.765,0,0,0,0, ,0,0,0,0,0, ,-35.1,-110.8,-992.3,-1.3,2,-3.1,25,10.7574,-104.371,-973.847,0.755593,-9.76868,-1.18418,
2026_07_06_21_46_48.673,3.872,38.3,0,0.765,0,0,0,0, ,0,0,0,0,0, ,-23.4,-110.7,-1005,-0.4,-2.3,-2.2,25,8.31943,-104.76,-975.358,0.657752,-9.18255,-1.2735,
2026_07_06_21_46_48.686,3.872,38.4,0,0.766,0,0,0,0, ,0,0,0,0,0, ,-21.3,-109.7,-999.2,0.7,-2.7,-0.1,25,6.45051,-105.092,-976.988,0.626811,-8.77533,-1.26597,
2026_07_06_21_46_48.712,3.872,38.3,0,0.766,0,0,0,0, ,0,0,0,0,0, ,-35.1,-108.2,-982.5,0.5,1.1,-0.9,25,4.33899,-105.327,-977.832,0.625177,-8.28933,-1.2193,
2026_07_06_21_46_48.729,3.872,38.4,0,0.765,0,0,0,0, ,0,0,0,0,0, ,-34.9,-110.8,-993,-0.1,4.6,-2.4,25,1.94177,-105.581,-978.437,0.599268,-7.61053,-1.24554,
2026_07_06_21_46_48.754,3.872,38.3,0,0.765,0,0,0,0, ,0,0,0,0,0, ,-31.2,-108.8,-989.6,-1.1,2.5,-2,25,-0.190538,-105.838,-979.221,0.526188,-6.93043,-1.30371,
2026_07_06_21_46_48.765,3.872,38.3,0,0.765,0,0,0,0, ,0,0,0,0,0, ,-27.4,-110.3,-995.9,-2,-5.4,-0.1,25,-1.9644,-106.064,-980.045,0.39967,-6.59647,-1.28825,
2026_07_06_21_46_48.794,3.872,38.3,0,0.766,0,0,0,0, ,0,0,0,0,0, ,-34.1,-112.6,-1010.6,0,-5.8,0.3,25,-3.71852,-106.392,-981.459,0.314378,-6.53575,-1.20365,
2026_07_06_21_46_48.805,3.872,38.3,0,0.765,0,0,0,0, ,0,0,0,0,0, ,-42.4,-107.2,-987.9,0.6,1.1,-0.9,25,-5.82278,-106.606,-982.543,0.313502,-6.28068,-1.14858,
2026_07_06_21_46_48.831,3.872,38.4,0,0.765,0,0,0,0, ,0,0,0,0,0, ,-41.8,-108,-986.5,-0.6,3,-1.9,25,-8.03342,-106.667,-982.827,0.294398,-5.77303,-1.1639,
2026_07_06_21_46_48.845,3.872,38.4,0,0.766,0,0,0,0, ,0,0,0,0,0, ,-43.7,-110.2,-990.9,-1.5,1.6,-1.7,25,-10.149,-106.815,-983.185,0.212473,-5.28108,-1.20267,
2026_07_06_21_46_48.870,3.872,38.4,0,0.765,0,0,0,0, ,0,0,0,0,0, ,-30.5,-111.9,-1006.5,-1.3,-4.2,-1.2,25,-11.7913,-107.073,-984.13,0.114213,-5.03848,-1.21774,
2026_07_06_21_46_48.884,3.872,38.4,0,0.765,0,0,0,0, ,0,0,0,0,0, ,-20,-113,-1002,0.8,-3.6,-0.4,25,-12.6114,-107.401,-985.356,0.092019,-4.96911,-1.19228,
2026_07_06_21_46_48.910,3.872,38.3,0,0.766,0,0,0,0, ,0,0,0,0,0, ,-27,-109.6,-992.3,1.4,1,-0.3,25,-13.275,-107.638,-986.075,0.153443,-4.74552,-1.14096,
2026_07_06_21_46_48.923,3.872,38.3,0,0.766,0,0,0,0, ,0,0,0,0,0, ,-39.7,-110.5,-982.1,0.9,3.4,-1.3,25,-14.4983,-107.785,-986.144,0.214171,-4.32228,-1.12018,
2026_07_06_21_46_48.950,3.872,38.3,0,0.766,0,0,0,0, ,0,0,0,0,0, ,-39.9,-113.4,-971.9,-1.5,1.5,-1.8,25,-16.0401,-108.039,-985.586,0.182838,-3.90959,-1.14637,
2026_07_06_21_46_48.963,3.872,38.4,0,0.766,0,0,0,0, ,0,0,0,0,0, ,-30.8,-114.3,-989.1,-3.2,-6.2,-1.2,25,-17.2168,-108.393,-985.276,0.0284935,-3.81455,-1.16792,
2026_07_06_21_46_48.990,3.872,38.3,0,0.766,0,0,0,0, ,0,0,0,0,0, ,-19.2,-114.1,-1006.3,-1.6,-5.2,-0.4,25,-17.6911,-108.747,-986.034,-0.119493,-3.92945,-1.1455,
2026_07_06_21_46_49.002,3.872,38.4,0,0.765,0,0,0,0, ,0,0,0,0,0, ,-27.8,-113.8,-1000.7,0.6,-0.9,-1,25,-18.0451,-109.064,-987.098,-0.14268,-3.87586,-1.11835,
2026_07_06_21_46_49.029,3.872,38.3,0,0.765,0,0,0,0, ,0,0,0,0,0, ,-33.5,-109.9,-985.4,1,2.9,-2,25,-18.8132,-109.234,-987.461,-0.0852354,-3.57873,-1.14161,
2026_07_06_21_46_49.042,3.872,38.4,0,0.765,0,0,0,0, ,0,0,0,0,0, ,-37.5,-110.9,-974.4,-0.9,1.6,-1.8,25,-19.83,-109.305,-987,-0.0769945,-3.22355,-1.18782,
2026_07_06_21_46_49.069,3.872,38.3,0,0.765,0,0,0,0, ,0,0,0,0,0, ,-33.3,-114.2,-987,-2.5,-5,-0.7,25,-20.7788,-109.503,-986.616,-0.175896,-3.1307,-1.19161,
2026_07_06_21_46_49.082,3.872,38.3,0,0.765,0,0,0,0, ,0,0,0,0,0, ,-30.7,-112.6,-1012.2,-1,-6.5,-0.5,25,-21.4626,-109.74,-987.407,-0.271818,-3.29032,-1.15556,
2026_07_06_21_46_49.109,3.872,38.3,0,0.764,0,0,0,0, ,0,0,0,0,0, ,-38.8,-109.3,-998.6,0.5,0.3,-1.2,25,-22.2723,-109.814,-988.504,-0.270489,-3.27872,-1.13694,
2026_07_06_21_46_49.121,3.872,38.3,0,0.765,0,0,0,0, ,0,0,0,0,0, ,-38.8,-113.5,-982,-0.5,1.4,-1.4,25,-23.2795,-109.911,-988.613,-0.254006,-3.02713,-1.14688,
2026_07_06_21_46_49.147,3.872,38.3,0,0.766,0,0,0,0, ,0,0,0,0,0, ,-41.6,-111.9,-993.5,-1.3,-1.4,-1.4,25,-24.3106,-110.081,-988.561,-0.293371,-2.84266,-1.1623,
2026_07_06_21_46_49.161,3.872,38.4,0,0.765,0,0,0,0, ,0,0,0,0,0, ,-42.1,-110.2,-1003.9,-0.2,-1.5,-2.2,25,-25.3794,-110.14,-989.178,-0.321197,-2.7578,-1.20116,
2026_07_06_21_46_49.187,3.872,38.4,0,0.764,0,0,0,0, ,0,0,0,0,0, ,-30.7,-109.8,-984.8,-0.3,-1,-2.4,25,-26.0509,-110.131,-989.494,-0.316858,-2.66591,-1.26812,
2026_07_06_21_46_49.202,3.872,38.3,0,0.765,0,0,0,0, ,0,0,0,0,0, ,-27.9,-110.8,-990.2,-0.9,-0.4,-1.7,25,-26.2489,-110.141,-989.372,-0.334112,-2.54612,-1.31577,
2026_07_06_21_46_49.228,3.872,38.3,0,0.765,0,0,0,0, ,0,0,0,0,0, ,-31.1,-112.6,-1003.5,-0.3,0.9,-1.6,25,-26.447,-110.236,-989.828,-0.350315,-2.37573,-1.33613,
2026_07_06_21_46_49.241,3.872,38.3,0,0.766,0,0,0,0, ,0,0,0,0,0, ,-34.5,-112,-984.1,0,0.6,-1.6,25,-26.8342,-110.362,-990.07,-0.338108,-2.18525,-1.35221,
2026_07_06_21_46_49.267,3.872,38.3,0,0.765,0,0,0,0, ,0,0,0,0,0, ,-33.3,-113.4,-992,-0.5,-1.8,-0.9,25,-27.2648,-110.505,-989.947,-0.332739,-2.08865,-1.34599,
2026_07_06_21_46_49.280,3.872,38.2,0,0.766,0,0,0,0, ,0,0,0,0,0, ,-38.9,-108.1,-995.1,-0.3,0.2,-1,25,-27.8032,-110.52,-990.166,-0.336838,-2.01013,-1.32186,
2026_07_06_21_46_49.308,3.872,38.3,0,0.766,0,0,0,0, ,0,0,0,0,0, ,-47.4,-111.5,-991.9,-0.9,-1.7,-1,25,-28.7383,-110.476,-990.369,-0.352874,-1.93334,-1.30224,
2026_07_06_21_46_49.320,3.872,38.3,0,0.766,0,0,0,0, ,0,0,0,0,0, ,-36.3,-113.5,-995.4,-1.3,-0.5,-2.2,25,-29.5373,-110.599,-990.569,-0.398402,-1.88256,-1.32039,
2026_07_06_21_46_49.347,3.872,38.3,0,0.765,0,0,0,0, ,0,0,0,0,0, ,-33.4,-113,-994.6,-0.9,1.3,-2.2,25,-29.8611,-110.761,-990.839,-0.441156,-1.74346,-1.37399,
2026_07_06_21_46_49.359,3.872,38.3,0,0.763,0,0,0,0, ,0,0,0,0,0, ,-34.3,-108.2,-993.5,-1,-2.8,-1.7,25,-30.1042,-110.751,-991.035,-0.472164,-1.68292,-1.40909,
2026_07_06_21_46_49.386,3.872,38.3,0,0.765,0,0,0,0, ,0,0,0,0,0, ,-29.2,-110.9,-995.2,-0.7,-3.3,-1.2,25,-30.2044,-110.678,-991.237,-0.495188,-1.76623,-1.41158,
2026_07_06_21_46_49.398,3.872,38.3,0,0.765,0,0,0,0, ,0,0,0,0,0, ,-35,-113.2,-988.8,-0.5,1,-1.4,25,-30.32,-110.761,-991.283,-0.501575,-1.72868,-1.40478,
2026_07_06_21_46_49.426,3.872,38.3,0,0.765,0,0,0,0, ,0,0,0,0,0, ,-42.1,-111.8,-990.6,-1.1,1,-1.9,25,-30.8215,-110.867,-991.187,-0.51976,-1.5624,-1.41973,
2026_07_06_21_46_49.438,3.872,38.3,0,0.766,0,0,0,0, ,0,0,0,0,0, ,-36.7,-112.5,-997.8,-1,-3,-1.4,25,-31.3442,-110.945,-991.371,-0.552072,-1.52813,-1.43376,
2026_07_06_21_46_49.465,3.872,38.2,0,0.766,0,0,0,0, ,0,0,0,0,0, ,-31.6,-110.8,-999.8,0.4,-1,-1.6,25,-31.5152,-110.988,-991.823,-0.536711,-1.55688,-1.43779,
2026_07_06_21_46_49.478,3.872,38.4,0,0.766,0,0,0,0, ,0,0,0,0,0, ,-35.6,-110.5,-986,0,0.3,-1.4,25,-31.6422,-110.968,-991.889,-0.491818,-1.48334,-1.44158,
2026_07_06_21_46_49.505,3.872,38.4,0,0.766,0,0,0,0, ,0,0,0,0,0, ,-42.9,-111.9,-990.2,-1.1,-0.8,-1.9,25,-32.1058,-110.982,-991.658,-0.495363,-1.40818,-1.45429,
2026_07_06_21_46_49.518,3.872,38.2,0,0.766,0,0,0,0, ,0,0,0,0,0, ,-38.4,-110.3,-992.5,-1.3,-0.1,-2.3,25,-32.6265,-110.989,-991.639,-0.538302,-1.34979,-1.49363,
2026_07_06_21_46_49.545,3.872,38.3,0,0.767,0,0,0,0, ,0,0,0,0,0, ,-24.4,-112.4,-996.8,-0.6,0.7,-2.2,25,-32.5518,-111.011,-991.823,-0.56339,-1.24926,-1.53972,
2026_07_06_21_46_49.557,3.872,38.2,0,0.768,0,0,0,0, ,0,0,0,0,0, ,-29.7,-111.9,-992.1,0.1,-2.3,-0.9,25,-32.2165,-111.08,-991.983,-0.544293,-1.22188,-1.54035,
2026_07_06_21_46_49.584,3.872,38.3,0,0.766,0,0,0,0, ,0,0,0,0,0, ,-37.2,-108.1,-989.2,-0.1,-2.1,-1.2,25,-32.2917,-111.015,-991.902,-0.511125,-1.28149,-1.51047,
2026_07_06_21_46_49.596,3.872,38.4,0,0.766,0,0,0,0, ,0,0,0,0,0, ,-36.1,-109.7,-982.4,-0.8,0.5,-1.7,25,-32.5573,-110.886,-991.53,-0.5074,-1.25214,-1.50679,
2026_07_06_21_46_49.624,3.872,38.3,0,0.766,0,0,0,0, ,0,0,0,0,0, ,-38.6,-113.1,-990.4,-1.8,0.2,-1.7,25,-32.8493,-110.917,-991.217,-0.555699,-1.15451,-1.51856,
2026_07_06_21_46_49.636,3.872,38.3,0,0.766,0,0,0,0, ,0,0,0,0,0, ,-36.9,-112.6,-1013,-0.8,-2.2,-1.3,25,-33.1479,-111.035,-991.856,-0.601055,-1.1451,-1.51743,
2026_07_06_21_46_49.663,3.872,38.3,0,0.765,0,0,0,0, ,0,0,0,0,0, ,-30.6,-111.3,-1003.4,1.3,-1.9,-0.8,25,-33.1846,-111.091,-992.852,-0.549194,-1.20024,-1.48894,
2026_07_06_21_46_49.679,3.872,38.3,0,0.766,0,0,0,0, ,0,0,0,0,0, ,-32.9,-112.1,-977.2,0.8,0.4,-1.6,25,-33.0972,-111.128,-992.696,-0.451743,-1.1728,-1.47134,
2026_07_06_21_46_49.708,3.872,38.3,0,0.766,0,0,0,0, ,0,0,0,0,0, ,-45,-112.1,-985.1,-0.9,1.8,-2.1,25,-33.4539,-111.187,-991.993,-0.427262,-1.03431,-1.49441,
2026_07_06_21_46_49.715,3.872,38.2,0,0.766,0,0,0,0, ,0,0,0,0,0, ,-37.3,-111.9,-991.4,-1.1,0.4,-2.3,25,-33.9228,-111.237,-991.765,-0.462163,-0.904246,-1.53741,
2026_07_06_21_46_49.742,3.872,38.3,0,0.765,0,0,0,0, ,0,0,0,0,0, ,-35,-112.7,-991.2,-0.9,-2,-1.7,25,-34.0586,-111.301,-991.736,-0.494937,-0.897894,-1.5656,
2026_07_06_21_46_49.754,3.872,38.3,0,0.765,0,0,0,0, ,0,0,0,0,0, ,-31.9,-110.8,-992.7,-0.8,-3.2,-1,25,-34.0215,-111.329,-991.749,-0.516574,-1.00162,-1.55246,
2026_07_06_21_46_49.782,3.872,38.2,0,0.766,0,0,0,0, ,0,0,0,0,0, ,-29.1,-111.5,-991,-0.9,-1,-1.3,25,-33.8069,-111.318,-991.756,-0.536892,-1.06855,-1.52793,
2026_07_06_21_46_49.794,3.872,38.3,0,0.764,0,0,0,0, ,0,0,0,0,0, ,-35,-111.9,-999,-0.6,0.2,-1.3,25,-33.6998,-111.341,-991.953,-0.549878,-1.02781,-1.51404,
2026_07_06_21_46_49.821,3.872,38.3,0,0.765,0,0,0,0, ,0,0,0,0,0, ,-40.2,-112.9,-990.6,-0.1,-0.3,-1.6,25,-33.9375,-111.406,-992.127,-0.537698,-0.968224,-1.51014,
2026_07_06_21_46_49.834,3.872,38.3,0,0.766,0,0,0,0, ,0,0,0,0,0, ,-32.2,-112,-997.3,0.1,-2.7,-0.9,25,-34.0754,-111.469,-992.238,-0.504932,-1.00063,-1.49429,
2026_07_06_21_46_49.862,3.872,38.1,0,0.765,0,0,0,0, ,0,0,0,0,0, ,-45.2,-111.6,-989.6,0.2,-1.7,-0.7,25,-34.3572,-111.489,-992.312,-0.465022,-1.07372,-1.45198,
2026_07_06_21_46_49.874,3.872,38.3,0,0.766,0,0,0,0, ,0,0,0,0,0, ,-42.6,-108.7,-978,-1.4,-1.8,-1.9,25,-34.9387,-111.408,-991.793,-0.473248,-1.11493,-1.44272,
2026_07_06_21_46_49.901,3.872,38.4,0,0.764,0,0,0,0, ,0,0,0,0,0, ,-31,-112.7,-993,-1.9,0.2,-2.5,25,-35.0521,-111.365,-991.41,-0.544956,-1.09574,-1.48887,
2026_07_06_21_46_49.914,3.872,38.3,0,0.766,0,0,0,0, ,0,0,0,0,0, ,-24.9,-111.4,-1004.3,-0.4,0.7,-1.5,25,-34.6193,-111.406,-991.851,-0.581826,-1.00154,-1.52001,
2026_07_06_21_46_49.942,3.872,38.3,0,0.766,0,0,0,0, ,0,0,0,0,0, ,-36.9,-110.9,-992.3,0.4,-3.6,-0.3,25,-34.3927,-111.391,-992.244,-0.546371,-1.02887,-1.48223,
2026_07_06_21_46_49.953,3.872,38.2,0,0.766,0,0,0,0, ,0,0,0,0,0, ,-42.4,-112.7,-988.5,-0.3,-2.2,-0.8,25,-34.7131,-111.416,-992.131,-0.510029,-1.14289,-1.42542,
2026_07_06_21_46_49.981,3.872,38.3,0,0.765,0,0,0,0, ,0,0,0,0,0, ,-44,-111.9,-981.3,-1.2,0.1,-1.5,25,-35.2302,-111.47,-991.691,-0.524653,-1.13723,-1.40864,
2026_07_06_21_46_49.992,3.872,38.3,0,0.766,0,0,0,0, ,0,0,0,0,0, ,-42.8,-112.6,-999.8,-1.5,-1.1,-1.4,25,-35.7281,-111.517,-991.621,-0.574947,-1.0984,-1.41116,
2026_07_06_21_46_50.020,3.872,38.3,0,0.766,0,0,0,0, ,0,0,0,0,0, ,-39,-110.4,-1000.3,-0.6,-3.1,-1,25,-36.0432,-111.516,-992.135,-0.603896,-1.15944,-1.39829,
2026_07_06_21_46_50.032,3.872,38.2,0,0.766,0,0,0,0, ,0,0,0,0,0, ,-40.6,-112.5,-996.3,0.4,-0.9,-1.4,25,-36.2722,-111.512,-992.511,-0.57319,-1.21066,-1.38621,
2026_07_06_21_46_50.061,3.872,38.2,0,0.766,0,0,0,0, ,0,0,0,0,0, ,-45.7,-109.2,-991.9,0.5,2.5,-2.4,25,-36.6913,-111.472,-992.607,-0.510839,-1.08813,-1.41752,
2026_07_06_21_46_50.072,3.872,38.3,0,0.766,0,0,0,0, ,0,0,0,0,0, ,-40.6,-109.3,-986.8,0,2.1,-2.9,25,-37.0849,-111.336,-992.409,-0.464475,-0.881669,-1.49262,
2026_07_06_21_46_50.100,3.872,38.3,0,0.767,0,0,0,0, ,0,0,0,0,0, ,-27.8,-114.5,-986.9,-0.8,-0.5,-2.3,25,-36.9091,-111.371,-992.07,-0.460546,-0.779192,-1.5601,
2026_07_06_21_46_50.111,3.872,38.2,0,0.766,0,0,0,0, ,0,0,0,0,0, ,-31,-114.5,-994.9,-0.4,1.3,-2.1,25,-36.4515,-111.561,-991.999,-0.469044,-0.707335,-1.5991,
2026_07_06_21_46_50.135,3.872,38.3,0,0.764,0,0,0,0, ,0,0,0,0,0, ,-36.2,-114.9,-997.4,-0.1,4.5,-3.2,25,-36.2777,-111.753,-992.252,-0.455696,-0.487513,-1.66314,
2026_07_06_21_46_50.150,3.872,38.3,0,0.766,0,0,0,0, ,0,0,0,0,0, ,-35.6,-113.6,-991.3,-0.6,7.8,-4.2,25,-36.2547,-111.905,-992.38,-0.449255,-0.0830395,-1.78726,
2026_07_06_21_46_50.179,3.872,38.3,0,0.766,0,0,0,0, ,0,0,0,0,0, ,-33.4,-115.2,-996.4,-1.3,9.5,-4.7,25,-36.1478,-112.057,-992.469,-0.47977,0.44913,-1.94952,
2026_07_06_21_46_50.191,3.872,38.2,0,0.764,0,0,0,0, ,0,0,0,0,0, ,-30.7,-109.6,-992.5,-2.3,8.3,-3.6,25,-35.8981,-112.078,-992.59,-0.560221,0.964105,-2.08361,
2026_07_06_21_46_50.225,3.872,38.3,0,0.766,0,0,0,0, ,0,0,0,0,0, ,-28.8,-112.1,-997.1,-1.8,4.3,-1.2,25,-35.5234,-112.003,-992.725,-0.651005,1.28926,-2.10289,
2026_07_06_21_46_50.232,3.872,38.2,0,0.766,0,0,0,0, ,0,0,0,0,0, ,-27.3,-112.3,-986.8,-1.9,10.5,-2.1,25,-35.068,-112.015,-992.677,-0.724068,1.66163,-2.07529,
2026_07_06_21_46_50.260,3.872,38.2,0,0.766,0,0,0,0, ,0,0,0,0,0, ,-27.4,-110.5,-985.2,-3.6,12,-3.5,25,-34.5977,-111.978,-992.271,-0.847524,2.24593,-2.11945,
2026_07_06_21_46_50.269,3.872,38.2,0,0.766,0,0,0,0, ,0,0,0,0,0, ,-15.2,-110.5,-994.9,-4.1,9,-4.3,25,-33.7874,-111.887,-992.135,-1.03049,2.74891,-2.22796,
2026_07_06_21_46_50.298,3.872,38.1,0,0.766,0,0,0,0, ,0,0,0,0,0, ,-1.9,-106.8,-1006.5,-1.3,5.7,-2.8,25,-32.2495,-111.69,-992.657,-1.13222,3.02929,-2.30852,
2026_07_06_21_46_50.309,3.872,38.2,0,0.766,0,0,0,0, ,0,0,0,0,0, ,-3.1,-105.2,-996.7,1.1,0.2,-1.4,25,-30.4366,-111.343,-993.202,-1.06932,3.02446,-2.29581,
2026_07_06_21_46_50.336,3.872,38.2,0,0.767,0,0,0,0, ,0,0,0,0,0, ,-0.1,-106.6,-976.9,0,2.5,-1,25,-28.6794,-111.012,-992.812,-0.970644,2.92242,-2.22904,
2026_07_06_21_46_50.349,3.872,38.3,0,0.766,0,0,0,0, ,0,0,0,0,0, ,-9.3,-106.6,-984.1,-1.2,4.6,-0.8,25,-27.2181,-110.743,-992.062,-0.948058,2.96066,-2.14805,
2026_07_06_21_46_50.377,3.872,38.2,0,0.766,0,0,0,0, ,0,0,0,0,0, ,-10.1,-109.8,-990.1,-1.3,4.2,-1.1,25,-26.1506,-110.588,-991.759,-0.966458,3.04837,-2.07504,
2026_07_06_21_46_50.388,3.872,38.3,0,0.767,0,0,0,0, ,0,0,0,0,0, ,-10.8,-108.8,-990.2,-1.6,0,-0.8,25,-25.1939,-110.509,-991.661,-0.995924,2.99058,-2.00648,
2026_07_06_21_46_50.417,3.872,38.2,0,0.767,0,0,0,0, ,0,0,0,0,0, ,-3.1,-109.7,-999.6,-1.5,-0.3,-1.1,25,-24.0821,-110.433,-991.859,-1.02969,2.7992,-1.94211,
2026_07_06_21_46_50.428,3.872,38.1,0,0.766,0,0,0,0, ,0,0,0,0,0, ,-8.9,-110.9,-1003.9,0.1,4.4,-1.9,25,-22.9802,-110.425,-992.461,-1.0096,2.75355,-1.91516,
2026_07_06_21_46_50.458,3.872,38.1,0,0.766,0,0,0,0, ,0,0,0,0,0, ,-20.1,-111.9,-998.6,0.9,7.9,-3.4,25,-22.4635,-110.484,-992.997,-0.917606,2.96052,-1.95994,
2026_07_06_21_46_50.467,3.872,38.3,0,0.767,0,0,0,0, ,0,0,0,0,0, ,-10.6,-109.9,-995.8,0.3,5.8,-4.1,25,-22.03,-110.509,-993.253,-0.825127,3.19753,-2.06902,
2026_07_06_21_46_50.497,3.872,38.1,0,0.766,0,0,0,0, ,0,0,0,0,0, ,11.7,-111.3,-999.7,0.8,8.5,-3.5,25,-20.654,-110.515,-993.527,-0.74133,3.43839,-2.17451,
2026_07_06_21_46_50.507,3.872,38.3,0,0.767,0,0,0,0, ,0,0,0,0,0, ,10.4,-110.7,-989.2,1.1,10.7,-2.2,25,-18.7221,-110.544,-993.583,-0.638265,3.81386,-2.21567,
2026_07_06_21_46_50.538,3.872,38.2,0,0.767,0,0,0,0, ,0,0,0,0,0, ,4.8,-108.8,-991.8,0.6,11.1,-3,25,-17.1181,-110.496,-993.395,-0.547574,4.24567,-2.23909,
2026_07_06_21_46_50.547,3.872,38.2,0,0.766,0,0,0,0, ,0,0,0,0,0, ,8.4,-112.1,-999.8,0.4,16.6,-4.7,25,-15.6728,-110.493,-993.542,-0.483737,4.83094,-2.33725,
2026_07_06_21_46_50.576,3.872,38.3,0,0.766,0,0,0,0, ,0,0,0,0,0, ,16.4,-112.3,-1003.4,2.6,24.1,-5.8,25,-13.9621,-110.597,-994.033,-0.362853,5.77663,-2.51475,
2026_07_06_21_46_50.586,3.872,38.2,0,0.766,0,0,0,0, ,0,0,0,0,0, ,44.1,-111.3,-986.4,2.9,39.5,-8.1,25,-11.2679,-110.671,-994.086,-0.173164,7.36243,-2.78502,
2026_07_06_21_46_50.615,3.872,38.2,0,0.763,0,0,0,0, ,0,0,0,0,0, ,41.2,-111.3,-995.6,0.8,56.9,-11.6,25,-7.98227,-110.709,-993.898,-0.0498772,9.85097,-3.21554,
2026_07_06_21_46_50.625,3.872,38.2,0,0.767,0,0,0,0, ,0,0,0,0,0, ,78.9,-120.9,-1002.1,0.6,77.7,-16.3,25,-3.83656,-111.037,-994.2,-0.00418161,13.3518,-3.86968,
2026_07_06_21_46_50.655,3.872,38.2,0,0.767,0,0,0,0, ,0,0,0,0,0, ,110.2,-117.3,-1000.1,1.9,84,-17.2,25,2.15887,-111.529,-994.62,0.0722451,17.4649,-4.65457,
2026_07_06_21_46_50.666,3.872,38.2,0,0.767,0,0,0,0, ,0,0,0,0,0, ,145.3,-118.5,-994.8,0.9,87.2,-19.2,25,9.81208,-111.917,-994.793,0.153155,21.6169,-5.47999,
2026_07_06_21_46_50.696,3.872,38.3,0,0.766,0,0,0,0, ,0,0,0,0,0, ,187.3,-122.9,-977.4,-0.6,108.1,-24.3,25,19.3481,-112.452,-994.263,0.152963,26.2502,-6.47145,
2026_07_06_21_46_50.705,3.872,38.2,0,0.764,0,0,0,0, ,0,0,0,0,0, ,231.2,-114.6,-983.8,-0.3,144,-27,25,30.9202,-112.836,-993.43,0.11622,32.3317,-7.64014,
2026_07_06_21_46_50.734,3.872,38.2,0,0.766,0,0,0,0, ,0,0,0,0,0, ,267.8,-116.5,-959.3,0.5,176.2,-35,25,44.2399,-113.001,-992.097,0.115231,40.1176,-9.06363,
2026_07_06_21_46_50.745,3.872,38.2,0,0.766,0,0,0,0, ,0,0,0,0,0, ,314.2,-104.9,-935.1,2,185.7,-41.3,25,59.2769,-112.861,-989.361,0.184381,48.6996,-10.8361,
2026_07_06_21_46_50.774,3.872,38.2,0,0.767,0,0,0,0, ,0,0,0,0,0, ,395.7,-102.6,-903.9,1.5,166.4,-36,25,77.2944,-112.306,-985.104,0.279786,56.46,-12.531,
2026_07_06_21_46_50.784,3.872,38.3,0,0.766,0,0,0,0, ,0,0,0,0,0, ,474.3,-94.9,-850.4,-0.5,144.2,-28.3,25,99.0921,-111.48,-978.525,0.293206,62.4831,-13.7265,
2026_07_06_21_46_50.814,3.872,38.2,0,0.766,0,0,0,0, ,0,0,0,0,0, ,517.9,-95.2,-834.3,-7.1,135,-21.6,25,123.285,-110.479,-970.227,0.0437758,67.1824,-14.4105,
2026_07_06_21_46_50.824,3.872,38.2,0,0.766,0,0,0,0, ,0,0,0,0,0, ,525.1,-96.1,-812.9,-11.2,150.2,-23.7,25,147.551,-109.575,-961.292,-0.51647,71.7781,-14.9126,
2026_07_06_21_46_50.854,3.872,38.2,0,0.764,0,0,0,0, ,0,0,0,0,0, ,567.5,-87.2,-810.6,-7.4,174.6,-30.9,25,171.85,-108.483,-952.179,-1.05172,77.3004,-15.6674,
2026_07_06_21_46_50.864,3.872,38.2,0,0.764,0,0,0,0, ,0,0,0,0,0, ,602.4,-81.1,-799.1,-2.6,181.2,-35.2,25,197.023,-107,-943.202,-1.29231,83.4307,-16.7267,
2026_07_06_21_46_50.895,3.872,38.2,0,0.766,0,0,0,0, ,0,0,0,0,0, ,660.6,-73.9,-762.2,-1.7,181.7,-32.2,25,223.499,-105.202,-933.296,-1.34458,89.4037,-17.761,
2026_07_06_21_46_50.909,3.872,38.2,0,0.764,0,0,0,0, ,0,0,0,0,0, ,694.3,-60.4,-702.7,-1.4,161.2,-26.8,25,251.162,-102.883,-921.057,-1.3571,94.4034,-18.4763,
2026_07_06_21_46_50.938,3.872,38.2,0,0.765,0,0,0,0, ,0,0,0,0,0, ,702.1,-54.9,-657.8,-2.2,135.4,-25.4,25,278.403,-100.127,-906.383,-1.38409,97.6878,-18.9409,
2026_07_06_21_46_50.946,3.872,38.2,0,0.766,0,0,0,0, ,0,0,0,0,0, ,743.8,-49.8,-637.6,-1.7,117.9,-28.2,25,305.493,-97.2157,-890.619,-1.41857,99.4526,-19.4198,
2026_07_06_21_46_50.975,3.872,38.3,0,0.764,0,0,0,0, ,0,0,0,0,0, ,798.8,-46.5,-598.2,-2.7,113.3,-28.1,25,333.878,-94.2257,-874,-1.46619,100.437,-19.9518,
2026_07_06_21_46_50.982,3.872,38.2,0,0.766,0,0,0,0, ,0,0,0,0,0, ,830.8,-35.4,-575,-3.3,117.6,-24.6,25,363.184,-90.9792,-856.487,-1.55966,101.352,-20.3417,
2026_07_06_21_46_51.012,3.872,38.3,0,0.765,0,0,0,0, ,0,0,0,0,0, ,824.9,-28.8,-535.4,-8.4,110,-16.1,25,391.5,-87.3913,-838.127,-1.8211,102.11,-20.3422,
2026_07_06_21_46_51.021,3.872,38.2,0,0.765,0,0,0,0, ,0,0,0,0,0, ,839.3,-22.3,-496.9,-9.6,94.2,-15.8,25,418.349,-83.6228,-818.507,-2.25856,102.109,-20.0745,
2026_07_06_21_46_51.052,3.872,38.2,0,0.766,0,0,0,0, ,0,0,0,0,0, ,880.2,-13.9,-474.1,-11.4,95.8,-17.5,25,445.247,-79.63,-798.214,-2.76078,101.676,-19.8659,
2026_07_06_21_46_51.061,3.872,38.2,0,0.764,0,0,0,0, ,0,0,0,0,0, ,883.6,-10,-442,-9.8,108.2,-21.4,25,471.855,-75.5058,-777.486,-3.23848,101.696,-19.8405,
2026_07_06_21_46_51.091,3.872,38.1,0,0.764,0,0,0,0, ,0,0,0,0,0, ,906.1,2.5,-406,5,118.6,-28.7,25,497.631,-71.1332,-755.945,-3.18738,102.409,-20.158,
2026_07_06_21_46_51.101,3.872,38.2,0,0.766,0,0,0,0, ,0,0,0,0,0, ,914.5,10,-364.9,-7.2,111.1,-26.4,25,522.778,-66.4176,-733.368,-3.06018,103.167,-20.6084,
2026_07_06_21_46_51.132,3.872,38.2,0,0.766,0,0,0,0, ,0,0,0,0,0, ,930.1,16.6,-323.6,-10.6,94.9,-22.8,25,547.124,-61.5598,-709.656,-3.41605,103.157,-20.8517,
2026_07_06_21_46_51.140,3.872,38.2,0,0.766,0,0,0,0, ,0,0,0,0,0, ,954.2,24.1,-305.4,-15.1,90.6,-17.4,25,571.196,-56.5685,-685.576,-3.99093,102.523,-20.8059,
2026_07_06_21_46_51.171,3.872,38.1,0,0.766,0,0,0,0, ,0,0,0,0,0, ,967.8,29.5,-284,-16.3,99,-15.5,25,594.95,-51.4882,-661.757,-4.70445,102.052,-20.5404,
2026_07_06_21_46_51.180,3.872,38.2,0,0.766,0,0,0,0, ,0,0,0,0,0, ,949.2,36.8,-246.5,-16.4,104.2,-16.1,25,617.104,-46.3305,-637.595,-5.4141,102.025,-20.2516,
2026_07_06_21_46_51.210,3.872,38.1,0,0.764,0,0,0,0, ,0,0,0,0,0, ,925.2,39.9,-224.1,-14.8,96.9,-22.8,25,636.609,-41.1703,-613.08,-6.0348,101.935,-20.2027,
2026_07_06_21_46_51.219,3.872,38.2,0,0.766,0,0,0,0, ,0,0,0,0,0, ,963.9,45.4,-210.4,-13.2,95.9,-25.7,25,655.375,-36.0625,-588.959,-6.52018,101.598,-20.4493,
2026_07_06_21_46_51.250,3.872,38.2,0,0.764,0,0,0,0, ,0,0,0,0,0, ,1009.6,50.5,-189,-8.9,101.6,-23.3,25,675.568,-30.943,-565.239,-6.79622,101.424,-20.6962,
2026_07_06_21_46_51.259,3.872,38.1,0,0.766,0,0,0,0, ,0,0,0,0,0, ,987.6,62.7,-135.4,-2.8,105.6,-20.3,25,695.253,-25.6084,-540.679,-6.73856,101.557,-20.7634,
2026_07_06_21_46_51.290,3.872,38.1,0,0.766,0,0,0,0, ,0,0,0,0,0, ,956.5,70.9,-79.7,-6.4,94.9,-20.2,25,712.12,-19.9772,-514.285,-6.60824,101.477,-20.7322,
2026_07_06_21_46_51.299,3.872,38.1,0,0.764,0,0,0,0, ,0,0,0,0,0, ,965.9,81.2,-34.9,-8.8,76.1,-19.7,25,727.298,-14.1256,-486.437,-6.66868,100.503,-20.6845,
2026_07_06_21_46_51.329,3.872,38.2,0,0.766,0,0,0,0, ,0,0,0,0,0, ,997.9,86.5,-19.4,-9.3,72.9,-19.1,25,742.813,-8.15518,-458.45,-6.81379,98.9189,-20.6062,
2026_07_06_21_46_51.338,3.872,38.2,0,0.766,0,0,0,0, ,0,0,0,0,0, ,1014.6,93.1,8,-7.1,80.6,-18.7,25,758.866,-2.18604,-430.86,-6.89826,97.5679,-20.5022,
2026_07_06_21_46_51.369,3.872,38.2,0,0.766,0,0,0,0, ,0,0,0,0,0, ,991.4,102.7,46.6,-7.7,68.4,-14.3,25,773.743,3.91295,-402.941,-6.92883,96.1622,-20.2584,
2026_07_06_21_46_51.378,3.872,38.2,0,0.766,0,0,0,0, ,0,0,0,0,0, ,996.9,101.6,55.2,-7.9,54.1,-12.1,25,787.174,9.89927,-375.285,-6.98192,94.0348,-19.8282,
2026_07_06_21_46_51.408,3.872,38.1,0,0.766,0,0,0,0, ,0,0,0,0,0, ,997.4,98.5,58.7,-5.8,50.9,-9,25,799.97,15.3928,-348.946,-6.97388,91.5037,-19.2628,
2026_07_06_21_46_51.417,3.872,38.1,0,0.767,0,0,0,0, ,0,0,0,0,0, ,966.9,100.3,91.6,-4,42.9,-7.1,25,811.071,20.512,-323.102,-6.84751,88.7857,-18.5796,
2026_07_06_21_46_51.447,3.872,38.2,0,0.764,0,0,0,0, ,0,0,0,0,0, ,958.6,106.3,106.8,-3.9,33.3,-8.3,25,820.314,25.5569,-297.368,-6.67094,85.697,-17.9166,
2026_07_06_21_46_51.457,3.872,38.1,0,0.766,0,0,0,0, ,0,0,0,0,0, ,973.2,104.9,121.5,-2.6,26.4,-9.4,25,829.186,30.4345,-272.291,-6.46248,82.2939,-17.3641,
2026_07_06_21_46_51.488,3.872,38.1,0,0.767,0,0,0,0, ,0,0,0,0,0, ,976.9,103.6,126.8,-1.8,18.4,-6.6,25,838.074,34.9327,-248.133,-6.20273,78.6441,-16.7935,
2026_07_06_21_46_51.497,3.872,38.1,0,0.766,0,0,0,0, ,0,0,0,0,0, ,960.8,105.7,140.1,-1.9,10.1,-4.3,25,846.043,39.1811,-224.881,-5.93749,74.7201,-16.1022,
2026_07_06_21_46_51.529,3.872,38.2,0,0.765,0,0,0,0, ,0,0,0,0,0, ,968.2,110.3,141.3,-2.3,10,-5.2,25,853.262,43.3747,-202.603,-5.70364,70.7792,-15.4105,
2026_07_06_21_46_51.536,3.872,38.1,0,0.766,0,0,0,0, ,0,0,0,0,0, ,974.8,107.4,142.8,-1.7,12,-6,25,860.467,47.3646,-181.601,-5.47795,67.1364,-14.8126,
2026_07_06_21_46_51.567,3.872,38.1,0,0.766,0,0,0,0, ,0,0,0,0,0, ,979.3,111.4,138,-0.2,10.8,-6.1,25,867.571,51.1449,-161.979,-5.20203,63.74,-14.2787,
2026_07_06_21_46_51.576,3.872,38.1,0,0.766,0,0,0,0, ,0,0,0,0,0, ,970.8,109.9,138.1,0.9,5.5,-3,25,874.121,54.771,-143.696,-4.8637,60.3525,-13.6858,
2026_07_06_21_46_51.605,3.872,38.2,0,0.766,0,0,0,0, ,0,0,0,0,0, ,953.7,113.1,151.1,1.6,-2.5,-3,25,879.491,58.2279,-126.128,-4.49115,56.7662,-13.0346,
2026_07_06_21_46_51.615,3.872,38.1,0,0.764,0,0,0,0, ,0,0,0,0,0, ,966.1,113.6,169.5,0,-9.3,-2.5,25,884.391,61.5869,-108.674,-4.16872,52.9474,-12.4079,
2026_07_06_21_46_51.647,3.872,38.2,0,0.766,0,0,0,0, ,0,0,0,0,0, ,995.7,113,164,-2,-0.6,-2.3,25,890.272,64.7382,-91.89,-3.97562,49.4193,-11.7981,
2026_07_06_21_46_51.655,3.872,38.1,0,0.767,0,0,0,0, ,0,0,0,0,0, ,983.5,114.2,148.9,-1.5,15.4,-3.1,25,896.325,67.7157,-76.7567,-3.84,46.8588,-11.2437,
2026_07_06_21_46_51.685,3.872,38,0,0.764,0,0,0,0, ,0,0,0,0,0, ,965,112.1,145.6,-0.5,19.8,-5.2,25,901.073,70.4844,-63.1063,-3.66694,45.0758,-10.8114,
2026_07_06_21_46_51.695,3.872,38.1,0,0.765,0,0,0,0, ,0,0,0,0,0, ,950.5,113.4,142.9,0.1,4.9,-5.1,25,904.527,73.0599,-50.4706,-3.45567,43.0816,-10.4664,
2026_07_06_21_46_51.727,3.872,38.1,0,0.766,0,0,0,0, ,0,0,0,0,0, ,961.7,117.7,156.1,1.2,-10.3,-4.1,25,907.67,75.6492,-38.2849,-3.20548,40.2918,-10.1089,
2026_07_06_21_46_51.735,3.872,38.1,0,0.766,0,0,0,0, ,0,0,0,0,0, ,979.1,121.4,173.8,0.5,-10.1,-3.3,25,911.493,78.3244,-25.9002,-2.95835,37.2149,-9.71837,
2026_07_06_21_46_51.765,3.872,38.1,0,0.766,0,0,0,0, ,0,0,0,0,0, ,992.7,122.3,164,-0.4,1.9,-3.3,25,916.027,80.9767,-14.0296,-2.77503,34.6973,-9.32725,
2026_07_06_21_46_51.779,3.872,38.2,0,0.766,0,0,0,0, ,0,0,0,0,0, ,979.1,118.1,156.6,-0.6,10.7,-3.5,25,920.285,83.3669,-3.40639,-2.63639,32.9668,-8.96606,
2026_07_06_21_46_51.813,3.872,38.2,0,0.766,0,0,0,0, ,0,0,0,0,0, ,958.4,121.2,159.9,-0.7,3.7,-2.3,25,923.238,85.5779,6.44455,-2.51535,31.3967,-8.59641,
2026_07_06_21_46_51.813,3.872,38.1,0,0.766,0,0,0,0, ,0,0,0,0,0, ,966.7,122.1,168.2,-0.9,-4.2,-2.9,25,925.634,87.776,16.0486,-2.41082,29.4682,-8.231,
2026_07_06_21_46_51.843,3.872,38.2,0,0.765,0,0,0,0, ,0,0,0,0,0, ,985.7,125,166.7,-0.4,3,-4.7,25,928.715,89.956,25.2746,-2.30352,27.6359,-7.96099,
2026_07_06_21_46_51.852,3.872,38.1,0,0.766,0,0,0,0, ,0,0,0,0,0, ,994.1,123,171.9,-1.6,9.6,-3.7,25,932.443,92.0306,34.0512,-2.22409,26.3358,-7.7318,
2026_07_06_21_46_51.883,3.872,38.1,0,0.766,0,0,0,0, ,0,0,0,0,0, ,978.2,122.8,154.4,-2.4,10.8,-1.3,25,935.716,93.9117,41.9182,-2.21043,25.3525,-7.41299,
2026_07_06_21_46_51.892,3.872,38.2,0,0.764,0,0,0,0, ,0,0,0,0,0, ,957.1,123.2,159.1,0,6.5,-2.2,25,937.662,95.6842,48.9157,-2.14886,24.3347,-7.0679,
2026_07_06_21_46_51.922,3.872,38.1,0,0.766,0,0,0,0, ,0,0,0,0,0, ,953.4,121.4,168.2,0.4,-2.9,-2.2,25,938.734,97.3061,55.9073,-2.00572,22.9615,-6.77126,
2026_07_06_21_46_51.932,3.872,38.1,0,0.765,0,0,0,0, ,0,0,0,0,0, ,970.9,121.4,171.3,0.6,-6,-3,25,940.161,98.7743,62.8446,-1.85303,21.2911,-6.51708,
2026_07_06_21_46_51.963,3.872,38.1,0,0.766,0,0,0,0, ,0,0,0,0,0, ,974.3,121.2,177.2,-0.3,-1.7,-2.7,25,942.138,100.147,69.6334,-1.73097,19.7591,-6.29361,
2026_07_06_21_46_51.972,3.872,38.1,0,0.765,0,0,0,0, ,0,0,0,0,0, ,969.1,125.3,170.7,-1.1,0.6,-2.7,25,943.939,101.555,75.9902,-1.66815,18.5215,-6.07463,
2026_07_06_21_46_52.004,3.872,38.1,0,0.766,0,0,0,0, ,0,0,0,0,0, ,972.1,124.5,165.7,-0.5,0.6,-3.1,25,945.564,102.977,81.6092,-1.61524,17.4294,-5.88117,
2026_07_06_21_46_52.011,3.872,38.1,0,0.764,0,0,0,0, ,0,0,0,0,0, ,972.7,125.8,163.9,-0.2,-0.5,-2.8,25,947.199,104.329,86.6787,-1.53814,16.3703,-5.70256,
2026_07_06_21_46_52.042,3.872,38.1,0,0.766,0,0,0,0, ,0,0,0,0,0, ,973.8,125.3,168.8,0,-3.5,-1.6,25,948.787,105.622,91.5336,-1.45051,15.2509,-5.48912,
2026_07_06_21_46_52.051,3.872,38.2,0,0.766,0,0,0,0, ,0,0,0,0,0, ,975,123.4,167.3,-0.4,-0.7,-2.4,25,950.347,106.763,96.1963,-1.3743,14.1936,-5.2765,
2026_07_06_21_46_52.082,3.872,38.1,0,0.764,0,0,0,0, ,0,0,0,0,0, ,970.8,123.6,170.5,-0.9,0.3,-2.4,25,951.722,107.783,100.627,-1.33017,13.3165,-5.10121,
2026_07_06_21_46_52.090,3.872,38.1,0,0.766,0,0,0,0, ,0,0,0,0,0, ,965,122.4,164.7,-1,-1.6,-1.9,25,952.707,108.71,104.708,-1.307,12.4654,-4.92137,
2026_07_06_21_46_52.121,3.872,38.2,0,0.766,0,0,0,0, ,0,0,0,0,0, ,964.7,123.1,169.7,-1.2,-3.6,-2.6,25,953.447,109.566,108.516,-1.29439,11.5473,-4.75859,
2026_07_06_21_46_52.130,3.872,38,0,0.764,0,0,0,0, ,0,0,0,0,0, ,971,127.1,173.3,-1.4,-3.4,-3.1,25,954.325,110.512,112.354,-1.29473,10.6304,-4.64228,
2026_07_06_21_46_52.161,3.872,38.1,0,0.766,0,0,0,0, ,0,0,0,0,0, ,968.9,124.1,163.6,-1.8,-1.3,-3,25,955.277,111.432,115.772,-1.31333,9.83939,-4.54525,
2026_07_06_21_46_52.170,3.872,38.2,0,0.764,0,0,0,0, ,0,0,0,0,0, ,964.9,126.8,159.5,-0.6,-2.1,-3.4,25,955.985,112.286,118.562,-1.30642,9.13621,-4.46328,
2026_07_06_21_46_52.202,3.872,38.1,0,0.766,0,0,0,0, ,0,0,0,0,0, ,970.4,131.7,165.4,-0.6,-2.3,-3.4,25,956.696,113.32,121.236,-1.26338,8.44541,-4.39848,
2026_07_06_21_46_52.210,3.872,38.2,0,0.766,0,0,0,0, ,0,0,0,0,0, ,969.2,131.2,168,-1,-2.3,-3.4,25,957.495,114.425,124.007,-1.23514,7.79061,-4.33764,
2026_07_06_21_46_52.240,3.872,38.1,0,0.766,0,0,0,0, ,0,0,0,0,0, ,973.2,125.9,158.2,-0.9,-0.9,-3.6,25,958.33,115.285,126.389,-1.21776,7.21837,-4.2866,
2026_07_06_21_46_52.249,3.872,38.1,0,0.766,0,0,0,0, ,0,0,0,0,0, ,966.1,127.8,160.4,-0.4,-1.3,-3.2,25,959.02,115.99,128.395,-1.18317,6.71147,-4.23257,
2026_07_06_21_46_52.281,3.872,38.1,0,0.766,0,0,0,0, ,0,0,0,0,0, ,962.2,129.7,160,-0.5,-2,-2.7,25,959.332,116.768,130.333,-1.13849,6.20194,-4.15441,
2026_07_06_21_46_52.289,3.872,38.1,0,0.764,0,0,0,0, ,0,0,0,0,0, ,958.4,129.1,163.5,-0.7,-1.6,-3.7,25,959.391,117.537,132.247,-1.10567,5.71432,-4.09625,
2026_07_06_21_46_52.320,3.872,38.1,0,0.764,0,0,0,0, ,0,0,0,0,0, ,974.6,128.2,161,-1.4,-1,-3.9,25,959.825,118.215,134.076,-1.10228,5.28689,-4.0782,
2026_07_06_21_46_52.327,3.872,38.1,0,0.764,0,0,0,0, ,0,0,0,0,0, ,969.1,129.1,163,-1,-1.7,-3.9,25,960.557,118.85,135.777,-1.10824,4.88245,-4.06734,
2026_07_06_21_46_52.359,3.872,38.1,0,0.766,0,0,0,0, ,0,0,0,0,0, ,967.4,130,166.1,-0.4,-2.2,-3.5,25,961.026,119.502,137.531,-1.08336,4.4661,-4.04496,
2026_07_06_21_46_52.367,3.872,38.1,0,0.763,0,0,0,0, ,0,0,0,0,0, ,977.7,128.4,167.6,-0.3,-3.1,-3.7,25,961.728,120.093,139.317,-1.03867,4.03246,-4.01784,
2026_07_06_21_46_52.400,3.872,38.1,0,0.766,0,0,0,0, ,0,0,0,0,0, ,985.9,127.5,165.8,-0.4,-0.1,-3,25,962.951,120.572,140.986,-0.996705,3.68924,-3.97714,
2026_07_06_21_46_52.408,3.872,38.1,0,0.766,0,0,0,0, ,0,0,0,0,0, ,966.1,131.1,166.6,-1.1,1.3,-2.4,25,963.747,121.104,142.522,-0.981671,3.50099,-3.89932,
2026_07_06_21_46_52.439,3.872,38.1,0,0.767,0,0,0,0, ,0,0,0,0,0, ,968.1,129.7,165.5,-1,-2.1,-2.9,25,963.951,121.671,143.956,-0.985835,3.26327,-3.82319,
2026_07_06_21_46_52.447,3.872,38.1,0,0.764,0,0,0,0, ,0,0,0,0,0, ,971.8,129,157.1,-0.1,-3.9,-2.8,25,964.317,122.138,145.013,-0.959276,2.8816,-3.76388,
2026_07_06_21_46_52.478,3.872,38.1,0,0.764,0,0,0,0, ,0,0,0,0,0, ,968.9,133.5,167.2,-0.6,-0.7,-2.7,25,964.684,122.694,146.057,-0.922149,2.56585,-3.7021,
2026_07_06_21_46_52.486,3.872,38.1,0,0.766,0,0,0,0, ,0,0,0,0,0, ,961.5,134.8,168.3,-2.3,-1,-3.3,25,964.716,123.392,147.379,-0.954315,2.35769,-3.65932,
2026_07_06_21_46_52.517,3.872,38.1,0,0.764,0,0,0,0, ,0,0,0,0,0, ,970.2,135,158.2,-1.9,-4.6,-4.1,25,964.785,124.093,148.346,-1.02413,2.0434,-3.6618,
2026_07_06_21_46_52.525,3.872,38.1,0,0.763,0,0,0,0, ,0,0,0,0,0, ,980.9,134,150.1,-1.4,-4.1,-3.2,25,965.441,124.727,148.7,-1.06227,1.6538,-3.66108,
2026_07_06_21_46_52.558,3.872,38.1,0,0.765,0,0,0,0, ,0,0,0,0,0, ,968.6,137.5,162.8,-2,-1.1,-2.3,25,966.008,125.399,149.172,-1.10113,1.39458,-3.60556,
2026_07_06_21_46_52.566,3.872,38.2,0,0.765,0,0,0,0, ,0,0,0,0,0, ,967.6,140.9,166.9,-2,-0.3,-3.5,25,966.136,126.24,150.128,-1.15591,1.26695,-3.56256,
2026_07_06_21_46_52.598,3.872,38.1,0,0.766,0,0,0,0, ,0,0,0,0,0, ,975.2,138,158.3,-1.5,-1.8,-3.2,25,966.456,127.045,150.888,-1.19211,1.12576,-3.54961,
2026_07_06_21_46_52.607,3.872,38,0,0.764,0,0,0,0, ,0,0,0,0,0, ,970.8,135.4,151,-1.7,-2.7,-2.1,25,966.855,127.633,151.117,-1.21696,0.920046,-3.49479,
2026_07_06_21_46_52.640,3.872,38,0,0.767,0,0,0,0, ,0,0,0,0,0, ,964.4,136.2,160.7,-1,-2.1,-2.5,25,966.9,128.131,151.405,-1.22507,0.717731,-3.42198,
2026_07_06_21_46_52.647,3.872,38.1,0,0.765,0,0,0,0, ,0,0,0,0,0, ,970.8,137.8,160.8,-1.8,-0.4,-3.3,25,966.943,128.671,151.975,-1.23573,0.597822,-3.39017,
2026_07_06_21_46_52.679,3.872,38.1,0,0.765,0,0,0,0, ,0,0,0,0,0, ,974.4,134.8,151.6,-1.8,-0.6,-2.6,25,967.288,129.136,152.232,-1.27012,0.530924,-3.36335,
2026_07_06_21_46_52.688,3.872,38,0,0.766,0,0,0,0, ,0,0,0,0,0, ,963,135.6,147.5,-0.9,-2.6,-2.2,25,967.374,129.506,152.069,-1.27498,0.401071,-3.30465,
2026_07_06_21_46_52.720,3.872,38.1,0,0.765,0,0,0,0, ,0,0,0,0,0, ,963.2,139.2,155.6,-0.7,-1.8,-3.4,25,967.113,129.987,152.037,-1.24604,0.242568,-3.2739,
2026_07_06_21_46_52.726,3.872,38.1,0,0.766,0,0,0,0, ,0,0,0,0,0, ,974.7,138.6,156.3,-0.9,0.8,-3.6,25,967.225,130.53,152.276,-1.21886,0.197318,-3.28767,
2026_07_06_21_46_52.759,3.872,38.1,0,0.767,0,0,0,0, ,0,0,0,0,0, ,974.6,139.4,157.2,-1,0.7,-2.7,25,967.678,131.046,152.548,-1.20248,0.230997,-3.27928,
2026_07_06_21_46_52.767,3.872,38.2,0,0.767,0,0,0,0, ,0,0,0,0,0, ,967,137,155.8,-0.8,-2,-2.2,25,967.868,131.482,152.789,-1.18404,0.177311,-3.22875,
2026_07_06_21_46_52.800,3.872,38.1,0,0.766,0,0,0,0, ,0,0,0,0,0, ,965.2,138.6,158.6,-0.6,-3,-2.7,25,967.76,131.867,153.058,-1.15455,0.0141623,-3.18129,
2026_07_06_21_46_52.807,3.872,38,0,0.766,0,0,0,0, ,0,0,0,0,0, ,992.3,142.5,156.2,-1.2,-3.4,-2.9,25,968.43,132.396,153.322,-1.13904,-0.181701,-3.15806,
2026_07_06_21_46_52.839,3.872,38,0,0.765,0,0,0,0, ,0,0,0,0,0, ,956.2,142.2,155.1,-2.5,-3.5,-1,25,968.785,133.003,153.464,-1.18236,-0.380863,-3.08444,
2026_07_06_21_46_52.854,3.872,37.9,0,0.767,0,0,0,0, ,0,0,0,0,0, ,968.3,139.2,156.9,-1.4,0.5,-2.9,25,968.386,133.472,153.619,-1.22914,-0.44906,-3.01531,
2026_07_06_21_46_52.888,3.872,38,0,0.766,0,0,0,0, ,0,0,0,0,0, ,964.5,138.5,148,-1.4,-3.3,-2.6,25,968.265,133.8,153.548,-1.23955,-0.507008,-2.99915,
2026_07_06_21_46_52.888,3.872,38.1,0,0.765,0,0,0,0, ,0,0,0,0,0, ,967.7,139.1,151.6,-1.4,-2.9,-2.8,25,968.133,134.104,153.319,-1.24933,-0.665018,-2.98092,
2026_07_06_21_46_52.921,3.872,38,0,0.763,0,0,0,0, ,0,0,0,0,0, ,972.5,138,152.2,-2.1,-1.2,-2.9,25,968.253,134.375,153.233,-1.27984,-0.749416,-2.97294,
2026_07_06_21_46_52.928,3.872,38.1,0,0.766,0,0,0,0, ,0,0,0,0,0, ,969.9,137.9,144.8,-1.3,-0.6,-2.6,25,968.433,134.593,152.944,-1.30544,-0.758592,-2.95935,
2026_07_06_21_46_52.961,3.872,38.1,0,0.767,0,0,0,0, ,0,0,0,0,0, ,967.5,140.2,148.5,-0.9,-0.5,-2.9,25,968.449,134.865,152.561,-1.29292,-0.745881,-2.9466,
2026_07_06_21_46_52.968,3.872,38.1,0,0.766,0,0,0,0, ,0,0,0,0,0, ,973,141.9,154.1,-1.2,-1.6,-2.7,25,968.559,135.242,152.484,-1.27812,-0.764413,-2.93766,
2026_07_06_21_46_53.001,3.872,38,0,0.768,0,0,0,0, ,0,0,0,0,0, ,973.5,144.6,161,-1.1,-1.4,-3,25,968.845,135.73,152.793,-1.27031,-0.809238,-2.93232,
2026_07_06_21_46_53.001,3.872,38.1,0,0.765,0,0,0,0, ,0,0,0,0,0, ,972.6,138.7,153.6,-1.2,-0.2,-3.1,25,969.101,136.09,153.067,-1.26298,-0.808675,-2.93949,
2026_07_06_21_46_53.034,3.872,38.1,0,0.766,0,0,0,0, ,0,0,0,0,0, ,966.3,139.4,150.6,-1.5,-1.2,-2.5,25,969.122,136.271,153.008,-1.26828,-0.802053,-2.93099,
2026_07_06_21_46_53.041,3.872,38.1,0,0.764,0,0,0,0, ,0,0,0,0,0, ,965.4,144,153.6,-1,-2.3,-3.2,25,968.923,136.602,152.953,-1.26717,-0.859818,-2.92606,
2026_07_06_21_46_53.073,3.872,38.1,0,0.767,0,0,0,0, ,0,0,0,0,0, ,974.3,148.3,151.1,-0.9,-1.4,-3.4,25,968.979,137.183,152.916,-1.24784,-0.920157,-2.94884,
2026_07_06_21_46_53.081,3.872,38,0,0.767,0,0,0,0, ,0,0,0,0,0, ,976.3,144,146.3,-1.2,0.1,-2.3,25,969.365,137.73,152.659,-1.23579,-0.903695,-2.94282,
2026_07_06_21_46_53.114,3.872,38,0,0.765,0,0,0,0, ,0,0,0,0,0, ,966.3,143.1,143.4,-0.7,0,-1.9,25,969.482,138.084,152.183,-1.21837,-0.845579,-2.89146,
2026_07_06_21_46_53.122,3.872,38,0,0.765,0,0,0,0, ,0,0,0,0,0, ,963.6,144.2,150.1,-0.7,-0.7,-2.6,25,969.206,138.424,151.852,-1.18678,-0.81538,-2.85237,
2026_07_06_21_46_53.154,3.872,38,0,0.765,0,0,0,0, ,0,0,0,0,0, ,979.7,142.5,153.5,-1.1,-1.5,-2.7,25,969.355,138.724,151.849,-1.16931,-0.832724,-2.84004,
2026_07_06_21_46_53.161,3.872,38,0,0.764,0,0,0,0, ,0,0,0,0,0, ,978.1,142.3,153.6,-1,0.9,-1.3,25,969.937,138.948,151.953,-1.16204,-0.800261,-2.78885,
2026_07_06_21_46_53.193,3.872,38.1,0,0.766,0,0,0,0, ,0,0,0,0,0, ,958.8,141.7,152.5,-0.6,1.3,-1.6,25,969.846,139.134,152.02,-1.13997,-0.684464,-2.70726,
2026_07_06_21_46_53.201,3.872,38,0,0.766,0,0,0,0, ,0,0,0,0,0, ,961.3,140.9,154,-0.8,-1.2,-2.4,25,969.249,139.266,152.095,-1.11316,-0.639707,-2.66416,
2026_07_06_21_46_53.233,3.872,38,0,0.767,0,0,0,0, ,0,0,0,0,0, ,968.8,143.6,156.3,-0.4,-2.2,-2.4,25,968.993,139.448,152.281,-1.08189,-0.704319,-2.64807,
2026_07_06_21_46_53.240,3.872,38.1,0,0.765,0,0,0,0, ,0,0,0,0,0, ,972.2,145.6,160.1,-0.8,-1.5,-2.2,25,969.085,139.762,152.642,-1.05253,-0.774134,-2.62686,
2026_07_06_21_46_53.274,3.872,38,0,0.765,0,0,0,0, ,0,0,0,0,0, ,966.1,145.7,161.3,-1.8,-1.2,-2,25,969.089,140.12,153.133,-1.06761,-0.809226,-2.59475,
2026_07_06_21_46_53.281,3.872,38,0,0.765,0,0,0,0, ,0,0,0,0,0, ,971.8,144.7,149.4,-2,-1.7,-2.8,25,969.081,140.43,153.268,-1.11833,-0.848273,-2.58288,
2026_07_06_21_46_53.314,3.872,38,0,0.766,0,0,0,0, ,0,0,0,0,0, ,977.9,140.7,137.9,-1.3,-1.7,-2.4,25,969.432,140.568,152.682,-1.15073,-0.900175,-2.58393,
2026_07_06_21_46_53.321,3.872,38,0,0.766,0,0,0,0, ,0,0,0,0,0, ,966.6,142.2,145.3,-1.2,-1,-2,25,969.604,140.622,152.006,-1.15678,-0.927586,-2.56053,
2026_07_06_21_46_53.355,3.872,38,0,0.766,0,0,0,0, ,0,0,0,0,0, ,970.8,141.6,149.9,-1.7,-0.8,-2.8,25,969.549,140.7,151.738,-1.17465,-0.925905,-2.55075,
2026_07_06_21_46_53.363,3.872,38,0,0.765,0,0,0,0, ,0,0,0,0,0, ,976.8,142.5,140.8,-1.5,0.2,-2.3,25,969.808,140.782,151.349,-1.20057,-0.887764,-2.5507,
2026_07_06_21_46_53.398,3.872,38,0,0.766,0,0,0,0, ,0,0,0,0,0, ,974.6,142.9,145.8,-0.1,0.7,-0.9,25,970.167,140.899,150.858,-1.17616,-0.806244,-2.49277,
2026_07_06_21_46_53.398,3.872,38,0,0.766,0,0,0,0, ,0,0,0,0,0, ,962.4,143.3,157.2,0,0.4,-1.4,25,970.065,141.033,150.897,-1.10753,-0.723598,-2.41094,
2026_07_06_21_46_53.431,3.872,38,0,0.766,0,0,0,0, ,0,0,0,0,0, ,965.5,145.5,166.6,-1.4,-0.9,-2.3,25,969.693,141.238,151.568,-1.0827,-0.694738,-2.37676,
2026_07_06_21_46_53.439,3.872,38,0,0.766,0,0,0,0, ,0,0,0,0,0, ,971.4,142.3,156.7,-1.3,-1,-1.9,25,969.617,141.401,152.182,-1.09899,-0.710293,-2.3599,
2026_07_06_21_46_53.472,3.872,38,0,0.766,0,0,0,0, ,0,0,0,0,0, ,963.2,143.9,154.5,-0.8,-1.3,-1.9,25,969.476,141.504,152.39,-1.096,-0.737088,-2.33187,
2026_07_06_21_46_53.479,3.872,38,0,0.766,0,0,0,0, ,0,0,0,0,0, ,964.8,141.9,149.1,-0.9,-2.3,-2.7,25,969.142,141.589,152.354,-1.08101,-0.801859,-2.32993,
2026_07_06_21_46_53.512,3.872,38.1,0,0.766,0,0,0,0, ,0,0,0,0,0, ,970.9,142.9,147.7,-0.4,-2.4,-2.5,25,969.063,141.639,152.113,-1.05475,-0.896199,-2.34639,
2026_07_06_21_46_53.519,3.872,38,0,0.764,0,0,0,0, ,0,0,0,0,0, ,965.3,145,156.4,-0.8,-1.7,-2.3,25,969.005,141.779,152.11,-1.02704,-0.966509,-2.34965,
2026_07_06_21_46_53.554,3.872,38,0,0.766,0,0,0,0, ,0,0,0,0,0, ,965.4,146.2,155.5,-1.6,-0.4,-3.4,25,968.782,142.012,152.344,-1.03758,-0.971596,-2.38014,
2026_07_06_21_46_53.561,3.872,38,0,0.766,0,0,0,0, ,0,0,0,0,0, ,979.1,143.5,135.4,-1.5,-0.6,-3.2,25,968.993,142.185,151.924,-1.0688,-0.942858,-2.4362,
2026_07_06_21_46_53.594,3.872,38.1,0,0.764,0,0,0,0, ,0,0,0,0,0, ,975.5,144.5,138.6,-1,-1.1,-2.4,25,969.499,142.296,151.014,-1.07984,-0.9372,-2.45837,
2026_07_06_21_46_53.602,3.872,38,0,0.766,0,0,0,0, ,0,0,0,0,0, ,966.5,144.4,145.7,-0.4,-1.4,-2.3,25,969.591,142.427,150.474,-1.0567,-0.956261,-2.45176,
2026_07_06_21_46_53.635,3.872,38,0,0.766,0,0,0,0, ,0,0,0,0,0, ,966.9,147.4,157.2,-0.5,-0.9,-2.9,25,969.415,142.639,150.533,-1.01973,-0.968067,-2.4608,
2026_07_06_21_46_53.636,3.872,38,0,0.766,0,0,0,0, ,0,0,0,0,0, ,980.2,149.7,149.1,-1.1,0,-2.8,25,969.667,142.999,150.693,-1.00634,-0.936497,-2.48451,
2026_07_06_21_46_53.674,3.872,38.1,0,0.766,0,0,0,0, ,0,0,0,0,0, ,972.7,147.4,149.5,-0.9,0,-1.1,25,970.08,143.337,150.608,-1.00595,-0.87943,-2.45194,
2026_07_06_21_46_53.674,3.872,38,0,0.766,0,0,0,0, ,0,0,0,0,0, ,958.9,149.5,155.2,-0.3,-0.9,-1.8,25,969.819,143.649,150.714,-0.981213,-0.853261,-2.39089,
2026_07_06_21_46_53.709,3.872,38,0,0.764,0,0,0,0, ,0,0,0,0,0, ,965.2,149.7,148.6,-1,-1.2,-2.7,25,969.346,144.011,150.786,-0.961029,-0.86525,-2.3823,
2026_07_06_21_46_53.716,3.872,38,0,0.766,0,0,0,0, ,0,0,0,0,0, ,968.8,140.8,146.4,-1.4,-1,-2.3,25,969.203,144.087,150.586,-0.975592,-0.879555,-2.38947,
2026_07_06_21_46_53.750,3.872,38,0,0.766,0,0,0,0, ,0,0,0,0,0, ,975.8,145,150.1,-1.1,-0.5,-1.8,25,969.392,144.015,150.444,-0.992313,-0.87166,-2.36879,
2026_07_06_21_46_53.758,3.872,38,0,0.766,0,0,0,0, ,0,0,0,0,0, ,963.2,148.8,150.7,-1.7,-0.6,-1.7,25,969.398,144.19,150.441,-1.01716,-0.852059,-2.33108,
2026_07_06_21_46_53.792,3.872,38,0,0.766,0,0,0,0, ,0,0,0,0,0, ,969.8,145.5,151,-1.9,-1.2,-2.5,25,969.222,144.371,150.466,-1.06486,-0.854981,-2.317,
2026_07_06_21_46_53.800,3.872,38,0,0.764,0,0,0,0, ,0,0,0,0,0, ,972.4,145.5,157.3,-2.2,-0.9,-2.1,25,969.336,144.44,150.691,-1.12489,-0.866865,-2.31596,
2026_07_06_21_46_53.835,3.872,38,0,0.766,0,0,0,0, ,0,0,0,0,0, ,972.4,145.7,153.1,-2,0,-1.8,25,969.523,144.51,150.965,-1.18431,-0.841462,-2.29366,
2026_07_06_21_46_53.836,3.872,38,0,0.766,0,0,0,0, ,0,0,0,0,0, ,966.9,144.1,151,-1.2,-0.8,-2,25,969.531,144.534,151.031,-1.20964,-0.81456,-2.26967,
2026_07_06_21_46_53.871,3.872,38,0,0.766,0,0,0,0, ,0,0,0,0,0, ,962.7,143.4,150.8,-0.9,0.2,-2.8,25,969.242,144.486,151.023,-1.19992,-0.783204,-2.27761,
2026_07_06_21_46_53.877,3.872,38,0,0.766,0,0,0,0, ,0,0,0,0,0, ,967,145,147.4,-0.8,1.2,-3.8,25,968.975,144.469,150.906,-1.17859,-0.692821,-2.33992,
2026_07_06_21_46_53.912,3.872,37.9,0,0.766,0,0,0,0, ,0,0,0,0,0, ,972.5,151,153.8,-0.7,1.2,-3.5,25,969.022,144.684,150.888,-1.15248,-0.577478,-2.41975,
2026_07_06_21_46_53.912,3.872,38,0,0.766,0,0,0,0, ,0,0,0,0,0, ,971.3,150.3,160.1,-0.9,-0.6,-2.6,25,969.197,145.048,151.257,-1.131,-0.524006,-2.45815,
2026_07_06_21_46_53.949,3.872,38,0,0.766,0,0,0,0, ,0,0,0,0,0, ,963.3,143.5,151.2,-0.8,-1.5,-2.6,25,969.082,145.16,151.525,-1.11387,-0.556059,-2.4668,
2026_07_06_21_46_53.956,3.872,38,0,0.766,0,0,0,0, ,0,0,0,0,0, ,968.2,145.7,143.4,-0.9,-1.2,-3.2,25,968.879,145.126,151.267,-1.09779,-0.60444,-2.4932,
2026_07_06_21_46_53.989,3.872,38,0,0.766,0,0,0,0, ,0,0,0,0,0, ,972.5,148,149.1,-0.8,-0.8,-2.7,25,968.968,145.231,150.962,-1.08269,-0.628544,-2.52103,
2026_07_06_21_46_53.997,3.872,38,0,0.766,0,0,0,0, ,0,0,0,0,0, ,971.6,149,147.5,-0.4,-0.4,-2.5,25,969.156,145.43,150.799,-1.05328,-0.626805,-2.52585,
2026_07_06_21_46_54.032,3.872,37.9,0,0.764,0,0,0,0, ,0,0,0,0,0, ,969.9,149.2,148.1,-0.3,-0.8,-2.2,25,969.253,145.654,150.617,-1.01042,-0.625171,-2.51513,
2026_07_06_21_46_54.032,3.872,38,0,0.766,0,0,0,0, ,0,0,0,0,0, ,971.6,151.4,154.5,-0.4,-0.6,-2.4,25,969.344,145.937,150.658,-0.970179,-0.629731,-2.50202,
2026_07_06_21_46_54.069,3.872,38,0,0.766,0,0,0,0, ,0,0,0,0,0, ,968.2,148.8,151.2,-0.4,0.1,-1.9,25,969.378,146.191,150.792,-0.935434,-0.606591,-2.48057,
2026_07_06_21_46_54.076,3.872,38,0,0.764,0,0,0,0, ,0,0,0,0,0, ,962.2,151.6,152.5,-0.4,-0.5,-2.6,25,969.124,146.435,150.856,-0.902806,-0.581815,-2.46652,
2026_07_06_21_46_54.110,3.872,38,0,0.766,0,0,0,0, ,0,0,0,0,0, ,968.7,153.6,157.2,-0.8,-1.4,-2.7,25,968.9,146.811,151.1,-0.884354,-0.604251,-2.4777,
2026_07_06_21_46_54.111,3.872,37.9,0,0.764,0,0,0,0, ,0,0,0,0,0, ,969.3,155.3,153.6,-0.9,-0.7,-2.1,25,968.906,147.276,151.362,-0.88226,-0.631414,-2.47296,
2026_07_06_21_46_54.146,3.872,38,0,0.764,0,0,0,0, ,0,0,0,0,0, ,970.2,148.3,148.5,-1.2,-0.4,-2.5,25,968.957,147.552,151.343,-0.892482,-0.626453,-2.46242,
2026_07_06_21_46_54.154,3.872,38,0,0.764,0,0,0,0, ,0,0,0,0,0, ,974.7,153,152.4,-1.2,-0.8,-2,25,969.17,147.741,151.288,-0.911221,-0.624841,-2.44948,
2026_07_06_21_46_54.190,3.872,38,0,0.766,0,0,0,0, ,0,0,0,0,0, ,968.9,152.4,156,-0.9,0,-1.7,25,969.33,148.043,151.466,-0.919678,-0.61114,-2.41295,
2026_07_06_21_46_54.190,3.872,38,0,0.764,0,0,0,0, ,0,0,0,0,0, ,964.1,150.6,150.2,-1,-0.9,-1.9,25,969.158,148.254,151.565,-0.921526,-0.60132,-2.3756,
2026_07_06_21_46_54.224,3.872,38,0,0.766,0,0,0,0, ,0,0,0,0,0, ,968.2,148.4,148,-1,-1.7,-2.8,25,968.975,148.33,151.415,-0.926308,-0.643896,-2.37404,
2026_07_06_21_46_54.232,3.872,38,0,0.767,0,0,0,0, ,0,0,0,0,0, ,973.2,148.5,151.1,-0.8,0.7,-2.2,25,969.08,148.337,151.301,-0.924705,-0.635127,-2.38171,
2026_07_06_21_46_54.267,3.872,38,0,0.764,0,0,0,0, ,0,0,0,0,0, ,971,150.2,148.6,-0.7,1.4,-1.9,25,969.264,148.399,151.213,-0.914059,-0.53244,-2.3615,
2026_07_06_21_46_54.274,3.872,38,0,0.766,0,0,0,0, ,0,0,0,0,0, ,957,153.8,157.5,-0.1,0.1,-1.8,25,968.943,148.618,151.325,-0.882733,-0.454291,-2.33033,
2026_07_06_21_46_54.314,3.872,38,0,0.766,0,0,0,0, ,0,0,0,0,0, ,956,151.4,161.9,-1,-1.1,-2.4,25,968.185,148.861,151.835,-0.862457,-0.457077,-2.31629,
2026_07_06_21_46_54.314,3.872,38,0,0.766,0,0,0,0, ,0,0,0,0,0, ,968.6,150,153.3,-1.6,-0.8,-2.5,25,967.826,148.973,152.187,-0.88912,-0.487114,-2.32444,
2026_07_06_21_46_54.350,3.872,37.9,0,0.766,0,0,0,0, ,0,0,0,0,0, ,971.8,149.4,150.1,-1.1,-0.9,-2.9,25,967.971,149.017,152.157,-0.917205,-0.509227,-2.34733,
2026_07_06_21_46_54.350,3.872,37.9,0,0.766,0,0,0,0, ,0,0,0,0,0, ,974.9,152,154.1,-0.5,-0.9,-2.8,25,968.299,149.12,152.153,-0.910063,-0.53304,-2.37796,
2026_07_06_21_46_54.384,3.872,37.9,0,0.766,0,0,0,0, ,0,0,0,0,0, ,976.9,148.6,145.2,-1.2,0.6,-2.4,25,968.762,149.192,152.001,-0.906403,-0.509699,-2.39149,
2026_07_06_21_46_54.391,3.872,37.9,0,0.766,0,0,0,0, ,0,0,0,0,0, ,965.2,149.2,142.3,-0.8,-0.1,-2.3,25,968.901,149.174,151.498,-0.912106,-0.463404,-2.38896,
2026_07_06_21_46_54.426,3.872,37.9,0,0.767,0,0,0,0, ,0,0,0,0,0, ,968.3,152,153.4,-0.7,-0.3,-2.9,25,968.77,149.261,151.276,-0.902228,-0.447353,-2.40182,
2026_07_06_21_46_54.427,3.872,37.9,0,0.766,0,0,0,0, ,0,0,0,0,0, ,968.9,154.4,161,-0.8,0.5,-2.9,25,968.76,149.501,151.637,-0.892951,-0.413999,-2.43218,
2026_07_06_21_46_54.462,3.872,37.9,0,0.767,0,0,0,0, ,0,0,0,0,0, ,973.6,156.9,160.4,-1.4,-0.5,-1.8,25,968.912,149.876,152.189,-0.905569,-0.388771,-2.42717,
2026_07_06_21_46_54.469,3.872,38,0,0.764,0,0,0,0, ,0,0,0,0,0, ,965.9,155.1,153.8,-1.4,-0.6,-1.5,25,968.963,150.249,152.488,-0.935698,-0.398596,-2.37981,
2026_07_06_21_46_54.504,3.872,38,0,0.766,0,0,0,0, ,0,0,0,0,0, ,968.2,150.3,150.2,-1.1,-0.9,-1.4,25,968.846,150.398,152.459,-0.954851,-0.420009,-2.32315,
2026_07_06_21_46_54.512,3.872,37.9,0,0.766,0,0,0,0, ,0,0,0,0,0, ,959.1,149.6,152.9,-0.8,-1.3,-2,25,968.529,150.371,152.403,-0.954555,-0.461446,-2.28518,
