UTC_Time,Vin,TC1,TC2,Rh1,Vh1,Ah1,Acp1,Dty1,Err1,Rh2,Vh2,Ah2,Acp2,Dty2,Err2,Accel_x,Accel_y,Accel_z,gyro_x,gyro_y,gyro_z,Temp_c,Accel_x_h,Accel_y_h,Accel_z_h,gyro_x_h,gyro_y_h,gyro_z_h,
2026_07_06_15_21_28.251,3.865,27.1,0,0.757,0,0,0,0.023, ,0,0,0,0,0, ,-38.4,157.2,987.3,-0.5,-0.4,-1.9,25,-38.4,157.2,987.3,-0.5,-0.4,-1.9,
2026_07_06_15_21_28.271,3.865,27.2,0,0.756,0,0,0,0.024, ,0,0,0,0,0, ,-38.5,156,987,-0.5,-0.4,-1.8,25,-38.403,157.163,987.291,-0.5,-0.4,-1.89695,
2026_07_06_15_21_28.290,3.865,27.1,0,0.757,0,0,0,0.023, ,0,0,0,0,0, ,-39.1,155.1,989.2,-0.5,-0.5,-1.8,25,-38.4272,157.065,987.34,-0.5,-0.403047,-1.89105,
2026_07_06_15_21_28.310,3.865,27.1,0,0.758,0,0,0,0.024, ,0,0,0,0,0, ,-37.2,156.6,987.9,-0.5,-0.4,-1.8,25,-38.4103,156.991,987.414,-0.5,-0.405908,-1.8855,
2026_07_06_15_21_28.332,3.865,27,0,0.757,0,0,0,0.024, ,0,0,0,0,0, ,-38.8,157.8,988.5,-0.6,-0.4,-1.8,25,-38.3853,157.004,987.462,-0.503047,-0.405548,-1.88029,
2026_07_06_15_21_28.349,3.865,27.1,0,0.756,0,0,0,0.025, ,0,0,0,0,0, ,-37.2,156.4,987.3,-0.6,-0.4,-1.8,25,-38.3619,157.01,987.488,-0.508955,-0.40521,-1.87539,
2026_07_06_15_21_28.370,3.865,27,0,0.757,0,0,0,0.025, ,0,0,0,0,0, ,-37.4,156.3,988.1,-0.5,-0.5,-1.7,25,-38.2971,156.969,987.501,-0.511456,-0.407939,-1.86775,
2026_07_06_15_21_28.389,3.865,27.1,0,0.758,0,0,0,0.026, ,0,0,0,0,0, ,-37.8,156.3,987.5,-0.5,-0.4,-1.9,25,-38.2547,156.929,987.52,-0.510758,-0.410502,-1.86362,
2026_07_06_15_21_28.409,3.865,27.2,0,0.758,0,0,0,0.025, ,0,0,0,0,0, ,-38.4,156.6,987.9,-0.5,-0.4,-1.8,25,-38.2452,156.9,987.531,-0.510102,-0.409862,-1.86279,
2026_07_06_15_21_28.429,3.865,27.1,0,0.757,0,0,0,0.025, ,0,0,0,0,0, ,-38.9,156.8,987.7,-0.5,-0.5,-1.8,25,-38.2699,156.887,987.547,-0.509487,-0.412308,-1.85897,
2026_07_06_15_21_28.450,3.865,27.1,0,0.757,0,0,0,0.026, ,0,0,0,0,0, ,-38.2,157.2,988.8,-0.6,-0.4,-1.8,25,-38.287,156.894,987.59,-0.511956,-0.414605,-1.85537,
2026_07_06_15_21_28.469,3.865,27.2,0,0.758,0,0,0,0.026, ,0,0,0,0,0, ,-37.5,155.5,987.5,-0.5,-0.4,-1.8,25,-38.2603,156.861,987.624,-0.514274,-0.413715,-1.852,
2026_07_06_15_21_28.488,3.865,27.1,0,0.757,0,0,0,0.026, ,0,0,0,0,0, ,-37.7,157.1,988.8,-0.5,-0.4,-1.8,25,-38.2201,156.827,987.656,-0.513404,-0.412879,-1.84883,
2026_07_06_15_21_28.508,3.865,27.1,0,0.757,0,0,0,0.027, ,0,0,0,0,0, ,-38.4,156.1,989.6,-0.6,-0.4,-1.9,25,-38.2097,156.813,987.75,-0.515634,-0.412095,-1.8489,
2026_07_06_15_21_28.528,3.865,27.2,0,0.757,0,0,0,0.027, ,0,0,0,0,0, ,-39.6,155.5,988.5,-0.5,-0.5,-1.9,25,-38.2579,156.751,987.829,-0.517728,-0.414404,-1.85202,
2026_07_06_15_21_28.548,3.865,27.2,0,0.756,0,0,0,0.027, ,0,0,0,0,0, ,-38.2,156.2,988.6,-0.5,-0.5,-1.8,25,-38.297,156.696,987.873,-0.516648,-0.41962,-1.85189,
2026_07_06_15_21_28.567,3.865,27.2,0,0.756,0,0,0,0.027, ,0,0,0,0,0, ,-37.7,156.3,988,-0.6,-0.4,-1.9,25,-38.2759,156.669,987.899,-0.51868,-0.421472,-1.85178,
2026_07_06_15_21_28.587,3.865,27.2,0,0.755,0,0,0,0.027, ,0,0,0,0,0, ,-37.2,157.1,987.7,-0.6,-0.4,-1.8,25,-38.2256,156.671,987.896,-0.523636,-0.420163,-1.85167,
2026_07_06_15_21_28.607,3.865,27.3,0,0.758,0,0,0,0.027, ,0,0,0,0,0, ,-38.2,156,987.4,-0.5,-0.4,-1.8,25,-38.1935,156.664,987.875,-0.525242,-0.418935,-1.84852,
2026_07_06_15_21_28.628,3.865,27.2,0,0.757,0,0,0,0.027, ,0,0,0,0,0, ,-39,156.4,987.5,-0.5,-0.4,-1.8,25,-38.2183,156.635,987.849,-0.523704,-0.417781,-1.84556,
2026_07_06_15_21_28.647,3.865,27.3,0,0.758,0,0,0,0.028, ,0,0,0,0,0, ,-39.7,156,988.2,-0.5,-0.4,-1.8,25,-38.2873,156.609,987.849,-0.52226,-0.416697,-1.84279,
2026_07_06_15_21_28.666,3.865,27.3,0,0.757,0,0,0,0.027, ,0,0,0,0,0, ,-38,156.9,988.1,-0.5,-0.4,-1.8,25,-38.3216,156.599,987.868,-0.520903,-0.41568,-1.84018,
2026_07_06_15_21_28.687,3.865,27.3,0,0.757,0,0,0,0.028, ,0,0,0,0,0, ,-38.3,156.7,987.5,-0.6,-0.5,-1.8,25,-38.3111,156.611,987.863,-0.522676,-0.417771,-1.83773,
2026_07_06_15_21_28.707,3.865,27.3,0,0.756,0,0,0,0.028, ,0,0,0,0,0, ,-38.2,155.6,988.2,-0.6,-0.4,-1.8,25,-38.3074,156.583,987.863,-0.527388,-0.419735,-1.83543,
2026_07_06_15_21_28.726,3.865,27.3,0,0.757,0,0,0,0.028, ,0,0,0,0,0, ,-38.9,156.1,987.6,-0.6,-0.5,-1.8,25,-38.3222,156.539,987.865,-0.531813,-0.421579,-1.83327,
2026_07_06_15_21_28.746,3.865,27.3,0,0.756,0,0,0,0.028, ,0,0,0,0,0, ,-38.4,155.2,988.7,-0.5,-0.5,-1.7,25,-38.3421,156.484,987.882,-0.532921,-0.426358,-1.8282,
2026_07_06_15_21_28.766,3.865,27.5,0,0.757,0,0,0,0.029, ,0,0,0,0,0, ,-38.9,155.2,988.4,-0.5,-0.4,-1.8,25,-38.3609,156.406,987.923,-0.530915,-0.427799,-1.82343,
2026_07_06_15_21_28.785,3.865,27.3,0,0.758,0,0,0,0.027, ,0,0,0,0,0, ,-39.4,156.2,987,-0.5,-0.4,-1.8,25,-38.409,156.363,987.909,-0.529031,-0.426105,-1.82201,
2026_07_06_15_21_28.806,3.865,27.5,0,0.757,0,0,0,0.029, ,0,0,0,0,0, ,-37.5,156.6,988.2,-0.5,-0.4,-1.8,25,-38.4115,156.365,987.891,-0.527262,-0.424514,-1.82066,
2026_07_06_15_21_28.825,3.865,27.5,0,0.758,0,0,0,0.028, ,0,0,0,0,0, ,-38.5,156,988.2,-0.5,-0.4,-1.9,25,-38.3864,156.361,987.909,-0.525601,-0.42302,-1.82245,
2026_07_06_15_21_28.845,3.865,27.5,0,0.759,0,0,0,0.028, ,0,0,0,0,0, ,-38.5,156.2,987.3,-0.5,-0.4,-1.8,25,-38.3933,156.346,987.9,-0.524041,-0.421617,-1.82413,
2026_07_06_15_21_28.870,3.865,27.5,0,0.757,0,0,0,0.028, ,0,0,0,0,0, ,-37.8,155.5,988.7,-0.5,-0.4,-1.8,25,-38.3785,156.315,987.906,-0.522576,-0.4203,-1.82266,
2026_07_06_15_21_28.885,3.865,27.5,0,0.757,0,0,0,0.029, ,0,0,0,0,0, ,-37.9,155.3,989,-0.6,-0.5,-1.8,25,-38.3463,156.26,987.963,-0.524247,-0.42211,-1.82128,
2026_07_06_15_21_28.905,3.865,27.6,0,0.758,0,0,0,0.029, ,0,0,0,0,0, ,-39.4,155.6,989.1,-0.6,-0.4,-1.8,25,-38.3648,156.21,988.03,-0.528863,-0.423809,-1.81998,
2026_07_06_15_21_28.925,3.865,27.5,0,0.757,0,0,0,0.028, ,0,0,0,0,0, ,-38.6,156.7,988,-0.5,-0.4,-1.8,25,-38.4035,156.207,988.061,-0.530151,-0.422359,-1.81877,
2026_07_06_15_21_28.944,3.865,27.6,0,0.759,0,0,0,0.029, ,0,0,0,0,0, ,-37.5,155,987.6,-0.5,-0.4,-1.9,25,-38.382,156.185,988.045,-0.528314,-0.420996,-1.82067,
2026_07_06_15_21_28.964,3.865,27.5,0,0.757,0,0,0,0.029, ,0,0,0,0,0, ,-37.9,156.9,987.1,-0.5,-0.4,-1.8,25,-38.3404,156.17,988.003,-0.526589,-0.419717,-1.82246,
2026_07_06_15_21_28.984,3.865,27.6,0,0.758,0,0,0,0.03, ,0,0,0,0,0, ,-37.9,156.8,987.4,-0.5,-0.5,-1.8,25,-38.3136,156.212,987.957,-0.524968,-0.421562,-1.82109,
2026_07_06_15_21_29.003,3.865,27.6,0,0.758,0,0,0,0.029, ,0,0,0,0,0, ,-38.2,156.7,988.8,-0.6,-0.5,-1.7,25,-38.2975,156.245,987.966,-0.526494,-0.426342,-1.81676,
2026_07_06_15_21_29.024,3.865,27.6,0,0.757,0,0,0,0.03, ,0,0,0,0,0, ,-38.2,156.8,988.5,-0.6,-0.5,-1.8,25,-38.2916,156.275,988.007,-0.530973,-0.43083,-1.81269,
2026_07_06_15_21_29.044,3.865,27.7,0,0.757,0,0,0,0.03, ,0,0,0,0,0, ,-39.3,157.2,988.8,-0.5,-0.4,-1.8,25,-38.3195,156.32,988.047,-0.532132,-0.431999,-1.81191,
2026_07_06_15_21_29.063,3.865,27.7,0,0.757,0,0,0,0.029, ,0,0,0,0,0, ,-38.9,156.9,988.6,-0.6,-0.5,-1.8,25,-38.3671,156.364,988.086,-0.533221,-0.433096,-1.81119,
2026_07_06_15_21_29.083,3.865,27.7,0,0.757,0,0,0,0.029, ,0,0,0,0,0, ,-37.8,154.6,988.7,-0.6,-0.4,-1.8,25,-38.366,156.327,988.121,-0.537291,-0.434126,-1.81051,
2026_07_06_15_21_29.102,3.865,27.7,0,0.758,0,0,0,0.03, ,0,0,0,0,0, ,-39.3,156.4,988.7,-0.5,-0.4,-1.8,25,-38.3772,156.276,988.156,-0.538065,-0.432046,-1.80987,
2026_07_06_15_21_29.122,3.865,27.8,0,0.758,0,0,0,0.03, ,0,0,0,0,0, ,-38.8,156.7,987.4,-0.5,-0.4,-1.8,25,-38.4182,156.293,988.15,-0.535745,-0.430093,-1.80927,
2026_07_06_15_21_29.146,3.865,27.8,0,0.758,0,0,0,0.029, ,0,0,0,0,0, ,-38.9,157.3,988.7,-0.5,-0.5,-1.7,25,-38.4445,156.336,988.144,-0.533567,-0.431306,-1.80565,
2026_07_06_15_21_29.162,3.865,27.8,0,0.755,0,0,0,0.03, ,0,0,0,0,0, ,-38.6,156.2,987.7,-0.6,-0.4,-1.9,25,-38.4632,156.361,988.147,-0.534569,-0.432446,-1.80531,
2026_07_06_15_21_29.182,3.865,27.8,0,0.758,0,0,0,0.03, ,0,0,0,0,0, ,-39.5,157.7,987.6,-0.6,-0.4,-1.8,25,-38.4989,156.397,988.117,-0.538556,-0.430468,-1.80803,
2026_07_06_15_21_29.202,3.865,27.8,0,0.758,0,0,0,0.03, ,0,0,0,0,0, ,-38.8,156.4,989,-0.5,-0.4,-1.8,25,-38.5386,156.437,988.128,-0.539253,-0.428612,-1.80754,
2026_07_06_15_21_29.221,3.865,27.7,0,0.758,0,0,0,0.03, ,0,0,0,0,0, ,-37.5,156.7,987.7,-0.6,-0.4,-1.9,25,-38.5149,156.444,988.141,-0.539908,-0.426868,-1.81013,
2026_07_06_15_21_29.242,3.865,27.9,0,0.758,0,0,0,0.031, ,0,0,0,0,0, ,-37.7,155.7,988.1,-0.5,-0.4,-1.8,25,-38.4592,156.429,988.127,-0.540523,-0.425231,-1.81256,
2026_07_06_15_21_29.261,3.865,27.9,0,0.758,0,0,0,0.03, ,0,0,0,0,0, ,-38.4,156.3,989.3,-0.5,-0.4,-1.8,25,-38.4342,156.403,988.162,-0.538054,-0.423693,-1.81179,
2026_07_06_15_21_29.281,3.865,27.9,0,0.758,0,0,0,0.03, ,0,0,0,0,0, ,-38.8,157.2,989,-0.6,-0.5,-1.8,25,-38.4443,156.424,988.222,-0.538782,-0.425296,-1.81108,
2026_07_06_15_21_29.301,3.865,28,0,0.757,0,0,0,0.03, ,0,0,0,0,0, ,-38.4,156.9,988.1,-0.5,-0.5,-1.8,25,-38.4538,156.462,988.242,-0.539465,-0.429849,-1.8104,
2026_07_06_15_21_29.321,3.865,28,0,0.758,0,0,0,0.03, ,0,0,0,0,0, ,-37.9,156.1,989,-0.5,-0.4,-1.8,25,-38.4353,156.464,988.261,-0.53706,-0.431077,-1.80977,
2026_07_06_15_21_29.340,3.865,28,0,0.758,0,0,0,0.03, ,0,0,0,0,0, ,-37.8,156.4,988.6,-0.6,-0.4,-1.7,25,-38.3996,156.451,988.294,-0.537849,-0.429183,-1.80612,
2026_07_06_15_21_29.360,3.865,28,0,0.757,0,0,0,0.03, ,0,0,0,0,0, ,-38.3,157.1,988.2,-0.5,-0.5,-1.8,25,-38.3783,156.47,988.3,-0.538589,-0.430451,-1.8027,
2026_07_06_15_21_29.380,3.865,28,0,0.758,0,0,0,0.03, ,0,0,0,0,0, ,-38.8,156.3,987.7,-0.5,-0.4,-1.8,25,-38.3888,156.484,988.279,-0.536238,-0.431643,-1.80254,
2026_07_06_15_21_29.400,3.865,28,0,0.757,0,0,0,0.03, ,0,0,0,0,0, ,-37.8,156.4,988.8,-0.5,-0.4,-1.8,25,-38.3834,156.475,988.277,-0.53403,-0.429714,-1.80239,
2026_07_06_15_21_29.420,3.865,28.1,0,0.758,0,0,0,0.031, ,0,0,0,0,0, ,-39.3,157.1,989,-0.5,-0.4,-1.8,25,-38.3935,156.492,988.315,-0.531956,-0.427904,-1.80224,
2026_07_06_15_21_29.440,3.865,28,0,0.76,0,0,0,0.03, ,0,0,0,0,0, ,-38.2,155.5,989.7,-0.5,-0.4,-1.8,25,-38.4153,156.481,988.378,-0.530009,-0.426203,-1.8021,
2026_07_06_15_21_29.460,3.865,28.1,0,0.757,0,0,0,0.031, ,0,0,0,0,0, ,-39.7,155.6,988.7,-0.6,-0.4,-1.8,25,-38.4478,156.424,988.428,-0.531227,-0.424607,-1.80198,
2026_07_06_15_21_29.479,3.865,28,0,0.758,0,0,0,0.03, ,0,0,0,0,0, ,-37.8,155.2,988.1,-0.6,-0.4,-1.7,25,-38.4663,156.361,988.426,-0.535418,-0.423107,-1.79881,
2026_07_06_15_21_29.500,3.865,28.1,0,0.758,0,0,0,0.031, ,0,0,0,0,0, ,-37.4,156.3,987.7,-0.5,-0.4,-1.7,25,-38.4135,156.324,988.394,-0.536306,-0.421699,-1.79279,
2026_07_06_15_21_29.519,3.865,28.2,0,0.758,0,0,0,0.031, ,0,0,0,0,0, ,-38.2,155.6,987.7,-0.6,-0.4,-1.8,25,-38.3761,156.301,988.352,-0.537141,-0.420377,-1.79018,
2026_07_06_15_21_29.539,3.865,28.1,0,0.757,0,0,0,0.03, ,0,0,0,0,0, ,-37.3,156.8,987.9,-0.6,-0.5,-1.8,25,-38.3379,156.295,988.318,-0.540971,-0.422182,-1.79078,
2026_07_06_15_21_29.559,3.865,28.2,0,0.758,0,0,0,0.031, ,0,0,0,0,0, ,-39.5,155.6,987.3,-0.6,-0.4,-1.9,25,-38.3417,156.289,988.275,-0.544568,-0.423877,-1.79439,
2026_07_06_15_21_29.580,3.865,28.3,0,0.76,0,0,0,0.031, ,0,0,0,0,0, ,-37.8,156.7,988.5,-0.5,-0.4,-1.8,25,-38.3605,156.281,988.252,-0.544899,-0.422422,-1.79778,
2026_07_06_15_21_29.597,3.865,28.3,0,0.757,0,0,0,0.03, ,0,0,0,0,0, ,-37.7,156.3,988.2,-0.5,-0.4,-1.8,25,-38.3233,156.294,988.258,-0.542163,-0.421056,-1.79791,
2026_07_06_15_21_29.618,3.865,28.3,0,0.76,0,0,0,0.03, ,0,0,0,0,0, ,-37.8,156.3,988.4,-0.5,-0.4,-1.8,25,-38.2884,156.295,988.26,-0.539594,-0.419773,-1.79804,
2026_07_06_15_21_29.638,3.865,28.3,0,0.758,0,0,0,0.03, ,0,0,0,0,0, ,-38.4,156.4,987.5,-0.5,-0.5,-1.7,25,-38.2769,156.298,988.241,-0.537181,-0.421615,-1.79511,
2026_07_06_15_21_29.658,3.865,28.3,0,0.758,0,0,0,0.03, ,0,0,0,0,0, ,-38.3,156.8,988.2,-0.5,-0.4,-1.9,25,-38.2813,156.316,988.218,-0.534915,-0.423344,-1.79541,
2026_07_06_15_21_29.678,3.865,28.3,0,0.758,0,0,0,0.031, ,0,0,0,0,0, ,-38.2,155.5,987.1,-0.5,-0.4,-1.8,25,-38.2794,156.306,988.183,-0.532788,-0.421922,-1.79874,
2026_07_06_15_21_29.697,3.865,28.2,0,0.758,0,0,0,0.031, ,0,0,0,0,0, ,-40,156.2,987.3,-0.6,-0.4,-1.8,25,-38.3294,156.278,988.123,-0.533837,-0.420586,-1.79881,
2026_07_06_15_21_29.717,3.865,28.2,0,0.757,0,0,0,0.032, ,0,0,0,0,0, ,-37.5,156,988.6,-0.5,-0.4,-1.9,25,-38.3551,156.268,988.113,-0.534822,-0.419332,-1.80193,
2026_07_06_15_21_29.737,3.865,28.2,0,0.76,0,0,0,0.032, ,0,0,0,0,0, ,-38,156.6,987.4,-0.5,-0.4,-1.9,25,-38.3182,156.27,988.106,-0.5327,-0.418153,-1.80791,
2026_07_06_15_21_29.759,3.865,28.3,0,0.76,0,0,0,0.032, ,0,0,0,0,0, ,-38.6,155.6,988.4,-0.6,-0.4,-1.8,25,-38.3171,156.259,988.093,-0.533754,-0.417047,-1.81047,
2026_07_06_15_21_29.776,3.865,28.3,0,0.758,0,0,0,0.032, ,0,0,0,0,0, ,-38.3,156.2,988.8,-0.5,-0.5,-1.8,25,-38.3252,156.237,988.124,-0.534744,-0.419055,-1.80983,
2026_07_06_15_21_29.797,3.865,28.3,0,0.758,0,0,0,0.032, ,0,0,0,0,0, ,-39.3,156.3,988.4,-0.5,-0.4,-1.8,25,-38.3541,156.238,988.153,-0.532627,-0.420941,-1.80924,
2026_07_06_15_21_29.817,3.865,28.4,0,0.758,0,0,0,0.032, ,0,0,0,0,0, ,-38,156,987,-0.5,-0.4,-1.8,25,-38.3721,156.233,988.125,-0.530639,-0.419665,-1.80867,
2026_07_06_15_21_29.836,3.865,28.4,0,0.758,0,0,0,0.031, ,0,0,0,0,0, ,-38.8,156.6,987.6,-0.5,-0.4,-1.8,25,-38.3738,156.237,988.075,-0.528771,-0.418467,-1.80814,
2026_07_06_15_21_29.856,3.865,28.4,0,0.757,0,0,0,0.031, ,0,0,0,0,0, ,-38.2,157.1,987.9,-0.6,-0.4,-1.8,25,-38.3815,156.274,988.055,-0.530065,-0.417341,-1.80765,
2026_07_06_15_21_29.880,3.865,28.4,0,0.757,0,0,0,0.032, ,0,0,0,0,0, ,-38,156.4,989,-0.4,-0.4,-1.8,25,-38.3644,156.303,988.079,-0.528233,-0.416285,-1.80718,
2026_07_06_15_21_29.895,3.865,28.4,0,0.762,0,0,0,0.032, ,0,0,0,0,0, ,-38.6,155,988.1,-0.6,-0.4,-1.8,25,-38.3605,156.266,988.108,-0.526513,-0.415292,-1.80674,
2026_07_06_15_21_29.915,3.865,28.5,0,0.758,0,0,0,0.032, ,0,0,0,0,0, ,-38.9,156.4,988.7,-0.6,-0.5,-1.8,25,-38.3842,156.232,988.126,-0.530991,-0.417407,-1.80633,
2026_07_06_15_21_29.935,3.865,28.5,0,0.758,0,0,0,0.031, ,0,0,0,0,0, ,-39.4,155.8,988.1,-0.6,-0.4,-1.8,25,-38.4309,156.224,988.143,-0.535196,-0.419393,-1.80595,
2026_07_06_15_21_29.955,3.865,28.6,0,0.761,0,0,0,0.031, ,0,0,0,0,0, ,-38.2,156,988.2,-0.6,-0.5,-1.9,25,-38.4534,156.204,988.143,-0.539145,-0.421258,-1.80863,
2026_07_06_15_21_29.975,3.865,28.5,0,0.758,0,0,0,0.031, ,0,0,0,0,0, ,-39.7,155.7,987.6,-0.6,-0.4,-1.8,25,-38.4836,156.183,988.128,-0.542853,-0.42301,-1.81115,
2026_07_06_15_21_29.995,3.865,28.5,0,0.758,0,0,0,0.032, ,0,0,0,0,0, ,-38.4,156.6,989.2,-0.6,-0.5,-1.8,25,-38.5181,156.181,988.145,-0.546336,-0.424655,-1.81047,
2026_07_06_15_21_30.015,3.865,28.7,0,0.757,0,0,0,0.032, ,0,0,0,0,0, ,-36.8,156.8,988,-0.5,-0.4,-1.8,25,-38.4622,156.212,988.172,-0.546559,-0.426199,-1.80983,
2026_07_06_15_21_30.035,3.865,28.6,0,0.758,0,0,0,0.03, ,0,0,0,0,0, ,-38,156,988.1,-0.6,-0.4,-1.8,25,-38.3975,156.224,988.165,-0.546769,-0.424603,-1.80924,
2026_07_06_15_21_30.054,3.865,28.6,0,0.758,0,0,0,0.031, ,0,0,0,0,0, ,-37.9,156.3,987.1,-0.5,-0.4,-1.8,25,-38.3702,156.219,988.131,-0.546966,-0.423103,-1.80867,
2026_07_06_15_21_30.074,3.865,28.7,0,0.758,0,0,0,0.031, ,0,0,0,0,0, ,-39.1,157.9,988.2,-0.6,-0.5,-1.8,25,-38.3781,156.273,988.101,-0.54715,-0.424742,-1.80814,
2026_07_06_15_21_30.094,3.865,28.7,0,0.758,0,0,0,0.031, ,0,0,0,0,0, ,-38.3,156.9,987.4,-0.5,-0.5,-1.8,25,-38.3977,156.342,988.083,-0.547324,-0.429328,-1.80765,
2026_07_06_15_21_30.114,3.865,28.7,0,0.76,0,0,0,0.031, ,0,0,0,0,0, ,-38.8,156,987.6,-0.5,-0.5,-1.8,25,-38.407,156.348,988.047,-0.54444,-0.433635,-1.80718,
2026_07_06_15_21_30.134,3.865,28.7,0,0.759,0,0,0,0.031, ,0,0,0,0,0, ,-36.6,156.4,988.5,-0.6,-0.5,-1.8,25,-38.3639,156.339,988.048,-0.544779,-0.437679,-1.80674,
2026_07_06_15_21_30.153,3.865,28.7,0,0.76,0,0,0,0.031, ,0,0,0,0,0, ,-38.8,156.4,988.8,-0.5,-0.4,-1.8,25,-38.3235,156.343,988.084,-0.545097,-0.43843,-1.80633,
2026_07_06_15_21_30.176,3.865,28.7,0,0.758,0,0,0,0.031, ,0,0,0,0,0, ,-38,155.7,987.5,-0.5,-0.4,-1.8,25,-38.3281,156.325,988.088,-0.542349,-0.436088,-1.80595,
2026_07_06_15_21_30.193,3.865,28.7,0,0.759,0,0,0,0.031, ,0,0,0,0,0, ,-39,154.9,987.3,-0.6,-0.5,-1.8,25,-38.3386,156.263,988.046,-0.542815,-0.436936,-1.80558,
2026_07_06_15_21_30.213,3.865,28.8,0,0.758,0,0,0,0.032, ,0,0,0,0,0, ,-38,156.3,988.2,-0.6,-0.4,-1.8,25,-38.3484,156.222,988.028,-0.5463,-0.437732,-1.80524,
2026_07_06_15_21_30.232,3.865,28.8,0,0.758,0,0,0,0.031, ,0,0,0,0,0, ,-38.9,155.8,988.1,-0.6,-0.4,-1.8,25,-38.3546,156.212,988.036,-0.549572,-0.435433,-1.80492,
2026_07_06_15_21_30.252,3.865,28.8,0,0.76,0,0,0,0.031, ,0,0,0,0,0, ,-38.4,155.5,989,-0.5,-0.4,-1.8,25,-38.3726,156.177,988.067,-0.549598,-0.433273,-1.80462,
2026_07_06_15_21_30.272,3.865,28.8,0,0.758,0,0,0,0.031, ,0,0,0,0,0, ,-38.4,156.4,987.9,-0.5,-0.5,-1.8,25,-38.3743,156.164,988.09,-0.546576,-0.434293,-1.80434,
2026_07_06_15_21_30.292,3.865,28.9,0,0.758,0,0,0,0.031, ,0,0,0,0,0, ,-39.1,156.7,988.1,-0.5,-0.4,-1.8,25,-38.3972,156.187,988.085,-0.543738,-0.43525,-1.80408,
2026_07_06_15_21_30.312,3.865,28.8,0,0.76,0,0,0,0.031, ,0,0,0,0,0, ,-38.5,156,988,-0.6,-0.4,-1.7,25,-38.4217,156.197,988.083,-0.544119,-0.433102,-1.80078,
2026_07_06_15_21_30.332,3.865,28.8,0,0.76,0,0,0,0.031, ,0,0,0,0,0, ,-38,157.1,988.2,-0.5,-0.4,-1.9,25,-38.4113,156.219,988.084,-0.544478,-0.431085,-1.80074,
2026_07_06_15_21_30.351,3.865,28.9,0,0.758,0,0,0,0.032, ,0,0,0,0,0, ,-38.5,157.1,987.5,-0.5,-0.4,-1.8,25,-38.4014,156.272,988.07,-0.541767,-0.42919,-1.80374,
2026_07_06_15_21_30.371,3.865,29.1,0,0.758,0,0,0,0.031, ,0,0,0,0,0, ,-37.7,155.2,989.3,-0.5,-0.4,-1.8,25,-38.3831,156.265,988.09,-0.539222,-0.427412,-1.80351,
2026_07_06_15_21_30.391,3.865,28.9,0,0.758,0,0,0,0.029, ,0,0,0,0,0, ,-39.7,156.4,986.9,-0.5,-0.4,-1.8,25,-38.4024,156.236,988.09,-0.536832,-0.425741,-1.8033,
2026_07_06_15_21_30.411,3.865,29.1,0,0.76,0,0,0,0.031, ,0,0,0,0,0, ,-38,157.5,988.2,-0.5,-0.4,-1.8,25,-38.4297,156.28,988.057,-0.534588,-0.424173,-1.80309,
2026_07_06_15_21_30.431,3.865,29.1,0,0.76,0,0,0,0.03, ,0,0,0,0,0, ,-38,157.3,988.5,-0.6,-0.4,-1.8,25,-38.4035,156.348,988.075,-0.535527,-0.4227,-1.80291,
2026_07_06_15_21_30.451,3.865,29.1,0,0.757,0,0,0,0.03, ,0,0,0,0,0, ,-37.5,157.1,987.6,-0.5,-0.4,-1.8,25,-38.3637,156.4,988.074,-0.536409,-0.421316,-1.80273,
2026_07_06_15_21_30.471,3.865,29.1,0,0.759,0,0,0,0.03, ,0,0,0,0,0, ,-39.7,155.7,988.1,-0.5,-0.4,-1.8,25,-38.3781,156.4,988.06,-0.53419,-0.420017,-1.80256,
2026_07_06_15_21_30.491,3.865,29.2,0,0.76,0,0,0,0.03, ,0,0,0,0,0, ,-38.4,155.6,987.6,-0.5,-0.5,-1.8,25,-38.419,156.354,988.047,-0.532107,-0.421844,-1.80241,
2026_07_06_15_21_30.510,3.865,29.2,0,0.757,0,0,0,0.029, ,0,0,0,0,0, ,-38.3,156.6,989,-0.5,-0.4,-1.8,25,-38.4148,156.339,988.063,-0.53015,-0.42356,-1.80226,
2026_07_06_15_21_30.530,3.865,29.2,0,0.76,0,0,0,0.029, ,0,0,0,0,0, ,-38.6,155.8,989.2,-0.5,-0.4,-1.8,25,-38.4169,156.33,988.126,-0.528313,-0.422125,-1.80212,
2026_07_06_15_21_30.550,3.865,29.2,0,0.758,0,0,0,0.029, ,0,0,0,0,0, ,-38.6,157.5,987.6,-0.6,-0.4,-1.7,25,-38.4281,156.35,988.143,-0.529634,-0.420776,-1.79895,
2026_07_06_15_21_30.569,3.865,29.2,0,0.76,0,0,0,0.029, ,0,0,0,0,0, ,-38.2,155.2,987.9,-0.5,-0.4,-1.8,25,-38.4264,156.35,988.119,-0.530875,-0.41951,-1.79596,
2026_07_06_15_21_30.589,3.865,29.2,0,0.758,0,0,0,0.029, ,0,0,0,0,0, ,-38.8,156.2,987.1,-0.6,-0.4,-1.7,25,-38.4309,156.31,988.081,-0.532041,-0.418321,-1.79316,
2026_07_06_15_21_30.609,3.865,29.4,0,0.76,0,0,0,0.03, ,0,0,0,0,0, ,-37.7,156.4,986.9,-0.5,-0.4,-1.8,25,-38.4199,156.31,988.015,-0.533135,-0.417205,-1.79053,
2026_07_06_15_21_30.629,3.865,29.3,0,0.761,0,0,0,0.028, ,0,0,0,0,0, ,-37.1,156,988.1,-0.5,-0.4,-1.9,25,-38.3577,156.303,987.984,-0.531116,-0.416156,-1.79416,
2026_07_06_15_21_30.650,3.865,29.3,0,0.761,0,0,0,0.029, ,0,0,0,0,0, ,-37.8,156.6,987.4,-0.6,-0.4,-1.8,25,-38.3024,156.303,987.969,-0.532267,-0.415172,-1.79756,
2026_07_06_15_21_30.668,3.865,29.3,0,0.76,0,0,0,0.029, ,0,0,0,0,0, ,-38.4,156.2,987.7,-0.6,-0.5,-1.8,25,-38.2901,156.309,987.944,-0.536394,-0.417294,-1.79771,
2026_07_06_15_21_30.688,3.865,29.4,0,0.761,0,0,0,0.029, ,0,0,0,0,0, ,-39.3,156.2,989.3,-0.5,-0.5,-1.8,25,-38.3242,156.302,987.978,-0.537223,-0.422334,-1.79785,
2026_07_06_15_21_30.708,3.865,29.4,0,0.76,0,0,0,0.028, ,0,0,0,0,0, ,-38.8,155.6,988.6,-0.6,-0.5,-1.8,25,-38.3684,156.278,988.037,-0.538002,-0.427067,-1.79798,
2026_07_06_15_21_30.728,3.865,29.4,0,0.76,0,0,0,0.028, ,0,0,0,0,0, ,-37.9,155.2,987.3,-0.6,-0.5,-1.8,25,-38.3673,156.224,988.032,-0.54178,-0.431511,-1.7981,
2026_07_06_15_21_30.747,3.865,29.4,0,0.76,0,0,0,0.028, ,0,0,0,0,0, ,-38.2,156.3,989.2,-0.6,-0.5,-1.7,25,-38.348,156.195,988.045,-0.545328,-0.435685,-1.79517,
2026_07_06_15_21_30.768,3.865,29.5,0,0.761,0,0,0,0.028, ,0,0,0,0,0, ,-37.4,156.8,987.6,-0.6,-0.4,-1.8,25,-38.3146,156.217,988.067,-0.548659,-0.436557,-1.79242,
2026_07_06_15_21_30.787,3.865,29.5,0,0.757,0,0,0,0.028, ,0,0,0,0,0, ,-39.3,157.3,988,-0.6,-0.4,-1.8,25,-38.3167,156.268,988.05,-0.551788,-0.434329,-1.79288,
2026_07_06_15_21_30.813,3.865,29.4,0,0.758,0,0,0,0.028, ,0,0,0,0,0, ,-38.8,156.3,989,-0.6,-0.4,-1.8,25,-38.3614,156.3,988.078,-0.554726,-0.432237,-1.79331,
2026_07_06_15_21_30.827,3.865,29.5,0,0.76,0,0,0,0.029, ,0,0,0,0,0, ,-38.6,156.3,987.5,-0.5,-0.4,-1.8,25,-38.382,156.3,988.088,-0.554438,-0.430273,-1.79372,
2026_07_06_15_21_30.847,3.865,29.6,0,0.76,0,0,0,0.028, ,0,0,0,0,0, ,-38.4,157.3,987.3,-0.6,-0.4,-1.7,25,-38.3892,156.331,988.046,-0.554167,-0.428428,-1.79106,
2026_07_06_15_21_30.867,3.865,29.5,0,0.76,0,0,0,0.027, ,0,0,0,0,0, ,-39.7,156.8,988.7,-0.6,-0.3,-1.8,25,-38.4295,156.374,988.044,-0.55696,-0.423649,-1.78856,
2026_07_06_15_21_30.886,3.865,29.6,0,0.757,0,0,0,0.028, ,0,0,0,0,0, ,-38.4,155.5,986.8,-0.5,-0.4,-1.9,25,-38.4673,156.361,988.026,-0.556536,-0.419161,-1.7923,
2026_07_06_15_21_30.906,3.865,29.6,0,0.758,0,0,0,0.027, ,0,0,0,0,0, ,-38,156.9,987.7,-0.5,-0.5,-1.7,25,-38.451,156.351,987.978,-0.553091,-0.42104,-1.79277,
2026_07_06_15_21_30.926,3.865,29.7,0,0.76,0,0,0,0.027, ,0,0,0,0,0, ,-38.8,156.7,987.7,-0.5,-0.4,-1.8,25,-38.4479,156.378,987.961,-0.549856,-0.422805,-1.79016,
2026_07_06_15_21_30.947,3.865,29.6,0,0.758,0,0,0,0.026, ,0,0,0,0,0, ,-38.9,156.4,987.6,-0.5,-0.5,-1.8,25,-38.4724,156.389,987.942,-0.546818,-0.424462,-1.79076,
2026_07_06_15_21_30.965,3.865,29.6,0,0.76,0,0,0,0.027, ,0,0,0,0,0, ,-39.3,156.2,987.3,-0.5,-0.5,-1.8,25,-38.5107,156.383,987.912,-0.543965,-0.429065,-1.79132,
2026_07_06_15_21_30.986,3.865,29.6,0,0.761,0,0,0,0.027, ,0,0,0,0,0, ,-38.6,156.3,988.1,-0.5,-0.4,-1.8,25,-38.5374,156.375,987.899,-0.541286,-0.430341,-1.79185,
2026_07_06_15_21_31.005,3.865,29.7,0,0.761,0,0,0,0.027, ,0,0,0,0,0, ,-37.3,157.3,988.5,-0.6,-0.4,-1.9,25,-38.5016,156.401,987.924,-0.541817,-0.428492,-1.7954,
2026_07_06_15_21_31.026,3.865,29.7,0,0.761,0,0,0,0.027, ,0,0,0,0,0, ,-37.9,156,987.5,-0.6,-0.4,-1.8,25,-38.4467,156.416,987.929,-0.545362,-0.426756,-1.79872,
2026_07_06_15_21_31.045,3.865,29.7,0,0.758,0,0,0,0.027, ,0,0,0,0,0, ,-37.8,155,988.6,-0.6,-0.4,-1.8,25,-38.4103,156.36,987.936,-0.548692,-0.425125,-1.7988,
2026_07_06_15_21_31.065,3.865,29.8,0,0.76,0,0,0,0.027, ,0,0,0,0,0, ,-38.8,156,988.7,-0.6,-0.4,-1.8,25,-38.4036,156.308,987.979,-0.551818,-0.423594,-1.79887,
2026_07_06_15_21_31.085,3.865,29.8,0,0.758,0,0,0,0.026, ,0,0,0,0,0, ,-38.2,156.3,988.4,-0.6,-0.4,-1.8,25,-38.4095,156.298,988.014,-0.554754,-0.422157,-1.79894,
2026_07_06_15_21_31.104,3.865,29.8,0,0.76,0,0,0,0.026, ,0,0,0,0,0, ,-38.5,155.8,989.1,-0.6,-0.4,-1.8,25,-38.4059,156.283,988.059,-0.557512,-0.420806,-1.79901,
2026_07_06_15_21_31.123,3.865,29.8,0,0.76,0,0,0,0.026, ,0,0,0,0,0, ,-38.6,156.9,988.6,-0.5,-0.4,-1.8,25,-38.4146,156.287,988.107,-0.557054,-0.419539,-1.79907,
2026_07_06_15_21_31.144,3.865,29.9,0,0.76,0,0,0,0.026, ,0,0,0,0,0, ,-37.9,155,988.7,-0.6,-0.5,-1.9,25,-38.4046,156.267,988.14,-0.556624,-0.421395,-1.80217,
2026_07_06_15_21_31.164,3.865,29.8,0,0.76,0,0,0,0.025, ,0,0,0,0,0, ,-37.2,156.3,988.4,-0.5,-0.4,-1.8,25,-38.3525,156.229,988.165,-0.55622,-0.423138,-1.80509,
2026_07_06_15_21_31.183,3.865,29.9,0,0.76,0,0,0,0.026, ,0,0,0,0,0, ,-37.8,156.8,987.3,-0.5,-0.4,-1.8,25,-38.3006,156.249,988.146,-0.552794,-0.421728,-1.80478,
2026_07_06_15_21_31.203,3.865,29.8,0,0.76,0,0,0,0.025, ,0,0,0,0,0, ,-39,155.6,988.5,-0.5,-0.5,-1.7,25,-38.3066,156.246,988.131,-0.549577,-0.423451,-1.80144,
2026_07_06_15_21_31.225,3.865,29.9,0,0.76,0,0,0,0.026, ,0,0,0,0,0, ,-38.2,155.8,989.1,-0.5,-0.4,-1.8,25,-38.3245,156.212,988.172,-0.546556,-0.425069,-1.7983,
2026_07_06_15_21_31.243,3.865,29.8,0,0.76,0,0,0,0.025, ,0,0,0,0,0, ,-40.1,155.7,987.9,-0.5,-0.5,-1.8,25,-38.3748,156.184,988.192,-0.543719,-0.426588,-1.79841,
2026_07_06_15_21_31.262,3.865,29.9,0,0.76,0,0,0,0.026, ,0,0,0,0,0, ,-38.4,155.7,989.1,-0.5,-0.5,-1.8,25,-38.4281,156.155,988.211,-0.541055,-0.431061,-1.7985,
2026_07_06_15_21_31.282,3.865,29.8,0,0.76,0,0,0,0.025, ,0,0,0,0,0, ,-38.3,155.6,989.5,-0.6,-0.5,-1.8,25,-38.4234,156.124,988.277,-0.5416,-0.435262,-1.7986,
2026_07_06_15_21_31.303,3.865,29.9,0,0.761,0,0,0,0.026, ,0,0,0,0,0, ,-38.6,157.4,987.3,-0.5,-0.4,-1.8,25,-38.425,156.147,988.284,-0.542112,-0.43616,-1.79868,
2026_07_06_15_21_31.325,3.865,30,0,0.76,0,0,0,0.025, ,0,0,0,0,0, ,-39.3,156.6,988.2,-0.5,-0.4,-1.8,25,-38.457,156.199,988.252,-0.539546,-0.433957,-1.79876,
2026_07_06_15_21_31.342,3.865,30,0,0.758,0,0,0,0.024, ,0,0,0,0,0, ,-39,156.9,988,-0.6,-0.4,-1.8,25,-38.4992,156.233,988.243,-0.540183,-0.431888,-1.79884,
2026_07_06_15_21_31.363,3.865,29.9,0,0.758,0,0,0,0, ,0,0,0,0,0, ,-39.1,156.4,986.8,-0.6,-0.5,-1.8,25,-38.5328,156.258,988.191,-0.543828,-0.432991,-1.79891,
2026_07_06_15_21_31.382,3.865,30,0,0.76,0,0,0,0, ,0,0,0,0,0, ,-38.6,155.8,988.5,-0.6,-0.4,-1.8,25,-38.5521,156.248,988.158,-0.547251,-0.434028,-1.79897,
2026_07_06_15_21_31.403,3.865,30,0,0.76,0,0,0,0, ,0,0,0,0,0, ,-37.7,155.8,989.3,-0.5,-0.4,-1.8,25,-38.5276,156.221,988.204,-0.547418,-0.431954,-1.79904,
2026_07_06_15_21_31.422,3.865,30,0,0.76,0,0,0,0, ,0,0,0,0,0, ,-38.3,156.4,988.6,-0.5,-0.4,-1.8,25,-38.4955,156.214,988.249,-0.544529,-0.430007,-1.7991,
2026_07_06_15_21_31.442,3.865,30,0,0.76,0,0,0,0, ,0,0,0,0,0, ,-39.3,156.2,988,-0.5,-0.4,-1.8,25,-38.514,156.219,988.252,-0.541815,-0.428179,-1.79915,
2026_07_06_15_21_31.461,3.865,30,0,0.76,0,0,0,0, ,0,0,0,0,0, ,-37.8,155.3,989.1,-0.6,-0.4,-1.8,25,-38.5162,156.19,988.27,-0.542314,-0.426461,-1.7992,
2026_07_06_15_21_31.481,3.865,30,0,0.758,0,0,0,0, ,0,0,0,0,0, ,-38.6,155.6,987.1,-0.6,-0.4,-1.8,25,-38.4969,156.145,988.26,-0.545829,-0.424849,-1.79925,
2026_07_06_15_21_31.506,3.865,30,0,0.76,0,0,0,0, ,0,0,0,0,0, ,-38.2,157.1,989.1,-0.5,-0.4,-1.7,25,-38.491,156.158,988.25,-0.546084,-0.423335,-1.79625,
2026_07_06_15_21_31.521,3.865,30,0,0.76,0,0,0,0, ,0,0,0,0,0, ,-38.6,156.3,987.6,-0.6,-0.4,-1.8,25,-38.4855,156.191,988.256,-0.546322,-0.421913,-1.79343,
2026_07_06_15_21_31.540,3.865,30,0,0.761,0,0,0,0, ,0,0,0,0,0, ,-38.2,156,988.2,-0.6,-0.4,-1.9,25,-38.4803,156.188,988.235,-0.549593,-0.420577,-1.79688,
2026_07_06_15_21_31.560,3.865,30,0,0.76,0,0,0,0, ,0,0,0,0,0, ,-38.2,156.2,987.7,-0.5,-0.4,-1.8,25,-38.4632,156.183,988.217,-0.549618,-0.419323,-1.80012,
2026_07_06_15_21_31.580,3.865,30,0,0.76,0,0,0,0, ,0,0,0,0,0, ,-38.8,156.9,986.2,-0.6,-0.4,-1.8,25,-38.4654,156.205,988.14,-0.549641,-0.418146,-1.80011,
2026_07_06_15_21_31.600,3.865,30.1,0,0.76,0,0,0,0, ,0,0,0,0,0, ,-37.5,157.4,989.3,-0.6,-0.5,-1.8,25,-38.4462,156.263,988.116,-0.55271,-0.420087,-1.8001,
2026_07_06_15_21_31.620,3.865,30,0,0.76,0,0,0,0, ,0,0,0,0,0, ,-37.9,156.4,987.6,-0.6,-0.4,-1.8,25,-38.4007,156.302,988.137,-0.555592,-0.42191,-1.8001,
2026_07_06_15_21_31.640,3.865,30.1,0,0.758,0,0,0,0, ,0,0,0,0,0, ,-38.8,156.7,987.4,-0.6,-0.5,-1.9,25,-38.3977,156.317,988.098,-0.558298,-0.423622,-1.80314,
2026_07_06_15_21_31.659,3.865,30.1,0,0.758,0,0,0,0, ,0,0,0,0,0, ,-37.8,155.8,989,-0.5,-0.4,-1.8,25,-38.3917,156.313,988.104,-0.557792,-0.425229,-1.80599,
2026_07_06_15_21_31.679,3.865,30.1,0,0.76,0,0,0,0, ,0,0,0,0,0, ,-39.3,154.7,987.7,-0.5,-0.4,-1.8,25,-38.4014,156.248,988.119,-0.55427,-0.423692,-1.80563,
2026_07_06_15_21_31.704,3.865,30.1,0,0.758,0,0,0,0, ,0,0,0,0,0, ,-37.9,157.2,987.6,-0.4,-0.5,-1.8,25,-38.4135,156.23,988.09,-0.547917,-0.425295,-1.80528,
2026_07_06_15_21_31.723,3.865,30.1,0,0.758,0,0,0,0, ,0,0,0,0,0, ,-38.3,157.1,987.5,-0.6,-0.4,-1.8,25,-38.3944,156.286,988.057,-0.544997,-0.4268,-1.80496,
2026_07_06_15_21_31.744,3.865,30.1,0,0.76,0,0,0,0, ,0,0,0,0,0, ,-37.5,153.6,987.3,-0.5,-0.5,-1.9,25,-38.3642,156.229,988.017,-0.545301,-0.428214,-1.80771,
2026_07_06_15_21_31.759,3.865,30.1,0,0.758,0,0,0,0, ,0,0,0,0,0, ,-36.8,156.4,988.7,-0.5,-0.4,-1.8,25,-38.2902,156.154,988.016,-0.542541,-0.429542,-1.81028,
2026_07_06_15_21_31.779,3.865,30.2,0,0.758,0,0,0,0, ,0,0,0,0,0, ,-37.9,156.2,987.6,-0.4,-0.5,-1.8,25,-38.2329,156.163,988.024,-0.536902,-0.430788,-1.80966,
2026_07_06_15_21_31.798,3.865,30.1,0,0.76,0,0,0,0, ,0,0,0,0,0, ,-38.3,155.6,988.1,-0.5,-0.5,-1.8,25,-38.2248,156.147,988.014,-0.531606,-0.435006,-1.80907,
2026_07_06_15_21_31.818,3.865,30.1,0,0.76,0,0,0,0, ,0,0,0,0,0, ,-38.2,155.8,988.1,-0.6,-0.5,-1.8,25,-38.2264,156.12,988.019,-0.532727,-0.438966,-1.80852,
2026_07_06_15_21_31.837,3.865,30.2,0,0.76,0,0,0,0, ,0,0,0,0,0, ,-38.2,155.6,988.1,-0.6,-0.4,-1.9,25,-38.2248,156.094,988.024,-0.536826,-0.439639,-1.81104,
2026_07_06_15_21_31.858,3.865,30.1,0,0.761,0,0,0,0, ,0,0,0,0,0, ,-40,156.1,988.6,-0.5,-0.4,-1.8,25,-38.2781,156.079,988.044,-0.537629,-0.437223,-1.81342,
2026_07_06_15_21_31.878,3.865,30.2,0,0.76,0,0,0,0, ,0,0,0,0,0, ,-36.8,155.3,988.1,-0.6,-0.4,-1.8,25,-38.2855,156.056,988.063,-0.538383,-0.434955,-1.8126,
2026_07_06_15_21_31.897,3.865,30.2,0,0.76,0,0,0,0, ,0,0,0,0,0, ,-39.5,155,988.8,-0.6,-0.4,-1.8,25,-38.2773,156.001,988.086,-0.542138,-0.432825,-1.81183,
2026_07_06_15_21_31.917,3.865,30.1,0,0.761,0,0,0,0, ,0,0,0,0,0, ,-38.9,156.1,987.5,-0.6,-0.4,-1.8,25,-38.3335,155.973,988.09,-0.545664,-0.430825,-1.81111,
2026_07_06_15_21_31.937,3.865,30.3,0,0.759,0,0,0,0, ,0,0,0,0,0, ,-38.3,157.2,987.3,-0.6,-0.5,-1.8,25,-38.3497,156.015,988.048,-0.548975,-0.431993,-1.81043,
2026_07_06_15_21_31.957,3.865,30.2,0,0.761,0,0,0,0, ,0,0,0,0,0, ,-39,155.3,988,-0.6,-0.4,-1.9,25,-38.368,156.029,988.024,-0.552084,-0.43309,-1.81285,
2026_07_06_15_21_31.976,3.865,30.2,0,0.76,0,0,0,0, ,0,0,0,0,0, ,-38.9,157.2,987.9,-0.5,-0.5,-2,25,-38.4035,156.042,988.019,-0.551957,-0.434121,-1.8212,
2026_07_06_15_21_31.997,3.865,30.2,0,0.761,0,0,0,0, ,0,0,0,0,0, ,-37.5,156.8,989.7,-0.6,-0.5,-1.8,25,-38.3911,156.101,988.067,-0.551838,-0.438135,-1.826,
2026_07_06_15_21_32.016,3.865,30.2,0,0.76,0,0,0,0, ,0,0,0,0,0, ,-37.9,155.3,987.9,-0.5,-0.5,-1.8,25,-38.349,156.098,988.112,-0.551726,-0.441905,-1.82442,
2026_07_06_15_21_32.036,3.865,30.2,0,0.76,0,0,0,0, ,0,0,0,0,0, ,-37.3,157.4,989,-0.4,-0.4,-1.8,25,-38.3033,156.113,988.132,-0.545527,-0.442399,-1.82293,
2026_07_06_15_21_32.056,3.865,30.1,0,0.76,0,0,0,0, ,0,0,0,0,0, ,-39.4,156,989.3,-0.6,-0.4,-1.8,25,-38.3062,156.149,988.194,-0.542753,-0.439815,-1.82153,
2026_07_06_15_21_32.075,3.865,30.2,0,0.76,0,0,0,0, ,0,0,0,0,0, ,-39.1,155.5,988.1,-0.6,-0.4,-1.7,25,-38.3637,156.125,988.225,-0.546241,-0.437389,-1.81718,
2026_07_06_15_21_32.099,3.865,30.1,0,0.759,0,0,0,0, ,0,0,0,0,0, ,-38.2,156.4,988.2,-0.6,-0.5,-1.8,25,-38.3811,156.114,988.22,-0.549517,-0.438157,-1.81308,
2026_07_06_15_21_32.116,3.865,30.2,0,0.759,0,0,0,0, ,0,0,0,0,0, ,-39.5,157.2,989,-0.6,-0.4,-1.8,25,-38.4097,156.156,988.244,-0.552593,-0.438879,-1.81228,
2026_07_06_15_21_32.136,3.865,30.3,0,0.761,0,0,0,0, ,0,0,0,0,0, ,-37.9,156.2,987.4,-0.6,-0.4,-1.8,25,-38.4274,156.189,988.241,-0.555482,-0.43651,-1.81154,
2026_07_06_15_21_32.155,3.865,30.2,0,0.76,0,0,0,0, ,0,0,0,0,0, ,-39.1,156.6,987.6,-0.6,-0.4,-1.8,25,-38.4318,156.202,988.196,-0.558195,-0.434285,-1.81083,
2026_07_06_15_21_32.175,3.865,30.2,0,0.761,0,0,0,0, ,0,0,0,0,0, ,-37.4,156.9,987,-0.6,-0.4,-1.8,25,-38.4208,156.235,988.141,-0.560743,-0.432196,-1.81017,
2026_07_06_15_21_32.195,3.865,30.2,0,0.76,0,0,0,0, ,0,0,0,0,0, ,-39.1,157.1,987,-0.6,-0.5,-1.9,25,-38.4103,156.282,988.072,-0.563135,-0.433281,-1.8126,
2026_07_06_15_21_32.215,3.865,30.2,0,0.76,0,0,0,0, ,0,0,0,0,0, ,-38.2,155.2,987.9,-0.5,-0.4,-1.8,25,-38.4249,156.274,988.034,-0.562334,-0.434299,-1.81488,
2026_07_06_15_21_32.235,3.865,30.2,0,0.76,0,0,0,0, ,0,0,0,0,0, ,-37.8,157.1,985.9,-0.5,-0.3,-1.8,25,-38.3991,156.266,987.965,-0.558536,-0.429162,-1.81397,
2026_07_06_15_21_32.254,3.865,30.2,0,0.759,0,0,0,0, ,0,0,0,0,0, ,-38.8,155.5,988.5,-0.5,-0.4,-1.8,25,-38.393,156.268,987.918,-0.554969,-0.424338,-1.81312,
2026_07_06_15_21_32.278,3.865,30.2,0,0.76,0,0,0,0, ,0,0,0,0,0, ,-38.3,155.8,988.7,-0.5,-0.4,-1.8,25,-38.4026,156.231,987.96,-0.551619,-0.422855,-1.81232,
2026_07_06_15_21_32.294,3.865,30.2,0,0.76,0,0,0,0, ,0,0,0,0,0, ,-38.5,156.7,987.9,-0.5,-0.4,-1.8,25,-38.4024,156.232,987.98,-0.548474,-0.421463,-1.81157,
2026_07_06_15_21_32.313,3.865,30.3,0,0.758,0,0,0,0, ,0,0,0,0,0, ,-37.5,156.4,988,-0.5,-0.4,-1.8,25,-38.3779,156.251,987.979,-0.54552,-0.420155,-1.81087,
2026_07_06_15_21_32.334,3.865,30.1,0,0.759,0,0,0,0, ,0,0,0,0,0, ,-37.9,156.3,988.2,-0.5,-0.4,-1.8,25,-38.3366,156.257,987.986,-0.542746,-0.418927,-1.8102,
2026_07_06_15_21_32.353,3.865,30.2,0,0.76,0,0,0,0, ,0,0,0,0,0, ,-38.6,156.2,986,-0.6,-0.4,-1.8,25,-38.3313,156.257,987.932,-0.543188,-0.417773,-1.80958,
2026_07_06_15_21_32.373,3.865,30.2,0,0.758,0,0,0,0, ,0,0,0,0,0, ,-38.8,156,988.4,-0.6,-0.4,-1.8,25,-38.3538,156.247,987.887,-0.54665,-0.41669,-1.809,
2026_07_06_15_21_32.393,3.865,30.2,0,0.76,0,0,0,0, ,0,0,0,0,0, ,-39.3,155.6,988.4,-0.6,-0.5,-1.8,25,-38.3962,156.22,987.919,-0.549901,-0.41872,-1.80845,
2026_07_06_15_21_32.412,3.865,30.2,0,0.758,0,0,0,0, ,0,0,0,0,0, ,-37.9,156.9,987.4,-0.5,-0.4,-1.8,25,-38.4086,156.222,987.917,-0.549907,-0.420626,-1.80793,
2026_07_06_15_21_32.433,3.865,30.3,0,0.758,0,0,0,0, ,0,0,0,0,0, ,-38,156.9,987.9,-0.6,-0.5,-1.8,25,-38.3807,156.263,987.901,-0.549913,-0.422416,-1.80745,
2026_07_06_15_21_32.452,3.865,30.2,0,0.758,0,0,0,0, ,0,0,0,0,0, ,-37.8,156.8,987.3,-0.6,-0.4,-1.8,25,-38.3514,156.299,987.883,-0.552965,-0.424097,-1.807,
2026_07_06_15_21_32.476,3.865,30.2,0,0.76,0,0,0,0, ,0,0,0,0,0, ,-37.2,155.3,988.6,-0.6,-0.4,-1.8,25,-38.2995,156.284,987.887,-0.555831,-0.422629,-1.80657,
2026_07_06_15_21_32.492,3.865,30.3,0,0.758,0,0,0,0, ,0,0,0,0,0, ,-39.1,156.4,988.1,-0.6,-0.4,-1.7,25,-38.2904,156.257,987.915,-0.558523,-0.42125,-1.80312,
2026_07_06_15_21_32.512,3.865,30.2,0,0.759,0,0,0,0, ,0,0,0,0,0, ,-39.3,157.7,985.8,-0.5,-0.4,-1.8,25,-38.3458,156.306,987.856,-0.558003,-0.419955,-1.79989,
2026_07_06_15_21_32.532,3.865,30.2,0,0.76,0,0,0,0, ,0,0,0,0,0, ,-38.8,157.7,986.9,-0.5,-0.4,-1.8,25,-38.3887,156.391,987.765,-0.554469,-0.418739,-1.79989,
2026_07_06_15_21_32.551,3.865,30.2,0,0.76,0,0,0,0, ,0,0,0,0,0, ,-37.4,156.2,988.4,-0.5,-0.4,-1.9,25,-38.3711,156.425,987.758,-0.55115,-0.417597,-1.80295,
2026_07_06_15_21_32.571,3.865,30.2,0,0.758,0,0,0,0, ,0,0,0,0,0, ,-38.4,156.8,988.4,-0.5,-0.4,-1.8,25,-38.3424,156.429,987.797,-0.548033,-0.416525,-1.80581,
2026_07_06_15_21_32.591,3.865,30.2,0,0.758,0,0,0,0, ,0,0,0,0,0, ,-39.3,156.9,989.6,-0.6,-0.5,-1.8,25,-38.3734,156.455,987.87,-0.548153,-0.418564,-1.80546,
2026_07_06_15_21_32.611,3.865,30.2,0,0.76,0,0,0,0, ,0,0,0,0,0, ,-39.3,156.4,990.1,-0.6,-0.4,-1.8,25,-38.4298,156.467,987.991,-0.551312,-0.42048,-1.80513,
2026_07_06_15_21_32.631,3.865,30.2,0,0.76,0,0,0,0, ,0,0,0,0,0, ,-39.1,155.6,987.6,-0.5,-0.5,-1.8,25,-38.4768,156.438,988.043,-0.551232,-0.422279,-1.80481,
2026_07_06_15_21_32.651,3.865,30.2,0,0.758,0,0,0,0, ,0,0,0,0,0, ,-39.5,156.8,987.9,-0.5,-0.5,-1.8,25,-38.5269,156.424,988.025,-0.54811,-0.427015,-1.80452,
2026_07_06_15_21_32.671,3.865,30.3,0,0.758,0,0,0,0, ,0,0,0,0,0, ,-38.4,156.1,988.1,-0.6,-0.5,-1.7,25,-38.5527,156.425,988.024,-0.548225,-0.431463,-1.8012,
2026_07_06_15_21_32.691,3.865,30.3,0,0.758,0,0,0,0, ,0,0,0,0,0, ,-37.5,156.6,988.5,-0.5,-0.5,-1.8,25,-38.516,156.421,988.04,-0.548333,-0.435639,-1.79808,
2026_07_06_15_21_32.710,3.865,30.2,0,0.76,0,0,0,0, ,0,0,0,0,0, ,-37.4,156.2,989.2,-0.5,-0.4,-1.7,25,-38.451,156.42,988.09,-0.545388,-0.436514,-1.79515,
2026_07_06_15_21_32.730,3.865,30.2,0,0.758,0,0,0,0, ,0,0,0,0,0, ,-38,156.4,987.5,-0.6,-0.4,-1.8,25,-38.4053,156.412,988.106,-0.545669,-0.434289,-1.7924,
2026_07_06_15_21_32.750,3.865,30.2,0,0.758,0,0,0,0, ,0,0,0,0,0, ,-38.5,156.8,989.2,-0.6,-0.4,-1.8,25,-38.3958,156.424,988.121,-0.54898,-0.4322,-1.79286,
2026_07_06_15_21_32.769,3.865,30.2,0,0.758,0,0,0,0, ,0,0,0,0,0, ,-39.1,155.5,988.6,-0.5,-0.4,-1.8,25,-38.4204,156.407,988.168,-0.549042,-0.430237,-1.7933,
2026_07_06_15_21_32.789,3.865,30.2,0,0.759,0,0,0,0, ,0,0,0,0,0, ,-38,157.1,988,-0.5,-0.4,-1.8,25,-38.4283,156.4,988.176,-0.546054,-0.428395,-1.7937,
2026_07_06_15_21_32.809,3.865,30.2,0,0.757,0,0,0,0, ,0,0,0,0,0, ,-37.4,157.2,988.7,-0.6,-0.4,-1.8,25,-38.3839,156.446,988.187,-0.546294,-0.426665,-1.79409,
2026_07_06_15_21_32.829,3.865,30.2,0,0.758,0,0,0,0, ,0,0,0,0,0, ,-37.4,156.1,987.3,-0.5,-0.4,-1.8,25,-38.324,156.459,988.175,-0.54652,-0.42504,-1.79445,
2026_07_06_15_21_32.853,3.865,30.2,0,0.76,0,0,0,0, ,0,0,0,0,0, ,-37.1,156,988.2,-0.6,-0.4,-1.8,25,-38.2585,156.434,988.149,-0.546732,-0.423514,-1.79479,
2026_07_06_15_21_32.869,3.865,30.2,0,0.759,0,0,0,0, ,0,0,0,0,0, ,-38.3,156.1,988,-0.5,-0.4,-1.8,25,-38.2245,156.41,988.146,-0.546931,-0.422081,-1.7951,
2026_07_06_15_21_32.888,3.865,30.2,0,0.76,0,0,0,0, ,0,0,0,0,0, ,-38.3,155.7,988.1,-0.6,-0.5,-1.8,25,-38.2291,156.379,988.141,-0.547118,-0.423782,-1.7954,
2026_07_06_15_21_32.909,3.865,30.3,0,0.76,0,0,0,0, ,0,0,0,0,0, ,-38.5,155.3,988,-0.6,-0.4,-1.8,25,-38.2395,156.326,988.135,-0.550341,-0.42538,-1.79568,
2026_07_06_15_21_32.929,3.865,30.2,0,0.758,0,0,0,0, ,0,0,0,0,0, ,-38.3,154.6,987.1,-0.6,-0.4,-1.8,25,-38.2493,156.242,988.099,-0.553367,-0.423833,-1.79595,
2026_07_06_15_21_32.948,3.865,30.3,0,0.758,0,0,0,0, ,0,0,0,0,0, ,-37.4,157.1,987.7,-0.5,-0.4,-1.8,25,-38.225,156.218,988.057,-0.553162,-0.422381,-1.79619,
2026_07_06_15_21_32.968,3.865,30.2,0,0.758,0,0,0,0, ,0,0,0,0,0, ,-36.9,155.2,987.4,-0.5,-0.5,-1.8,25,-38.1595,156.214,988.026,-0.549922,-0.424064,-1.79642,
2026_07_06_15_21_32.988,3.865,30.3,0,0.758,0,0,0,0, ,0,0,0,0,0, ,-39.1,156.7,988.1,-0.6,-0.4,-1.8,25,-38.1497,156.198,988.009,-0.549927,-0.425644,-1.79664,
2026_07_06_15_21_33.008,3.865,30.2,0,0.76,0,0,0,0, ,0,0,0,0,0, ,-38.9,156.2,989.5,-0.6,-0.4,-1.8,25,-38.2016,156.213,988.057,-0.552978,-0.424082,-1.79685,
2026_07_06_15_21_33.027,3.865,30.1,0,0.76,0,0,0,0, ,0,0,0,0,0, ,-37.8,157.2,987.5,-0.5,-0.4,-1.7,25,-38.2106,156.243,988.084,-0.552797,-0.422614,-1.79399,
2026_07_06_15_21_33.047,3.865,30.2,0,0.76,0,0,0,0, ,0,0,0,0,0, ,-39.4,155.7,987.6,-0.6,-0.4,-1.8,25,-38.2343,156.255,988.052,-0.552626,-0.421236,-1.79131,
2026_07_06_15_21_33.067,3.865,30.1,0,0.76,0,0,0,0, ,0,0,0,0,0, ,-37.5,156.7,987.4,-0.6,-0.4,-1.9,25,-38.2475,156.252,988.018,-0.555513,-0.419942,-1.79489,
2026_07_06_15_21_33.087,3.865,30.2,0,0.76,0,0,0,0, ,0,0,0,0,0, ,-39.6,156.8,989.1,-0.5,-0.4,-1.9,25,-38.2659,156.282,988.032,-0.555177,-0.418727,-1.80129,
2026_07_06_15_21_33.107,3.865,30.2,0,0.758,0,0,0,0, ,0,0,0,0,0, ,-37.9,155.8,987.4,-0.5,-0.4,-1.8,25,-38.2954,156.283,988.045,-0.551815,-0.417586,-1.80426,
2026_07_06_15_21_33.127,3.865,30.3,0,0.758,0,0,0,0, ,0,0,0,0,0, ,-38.9,155.8,987.9,-0.5,-0.5,-1.8,25,-38.3018,156.254,988.021,-0.548657,-0.419561,-1.804,
2026_07_06_15_21_33.146,3.865,30.1,0,0.758,0,0,0,0, ,0,0,0,0,0, ,-37.9,155.8,987.9,-0.5,-0.4,-1.8,25,-38.3078,156.226,988.014,-0.545692,-0.421416,-1.80376,
2026_07_06_15_21_33.166,3.865,30.1,0,0.757,0,0,0,0, ,0,0,0,0,0, ,-38.8,158.2,988.5,-0.5,-0.4,-1.8,25,-38.3103,156.273,988.025,-0.542908,-0.420111,-1.80353,
2026_07_06_15_21_33.186,3.865,30.2,0,0.758,0,0,0,0, ,0,0,0,0,0, ,-37.8,156,986.8,-0.6,-0.4,-1.8,25,-38.3097,156.324,988.002,-0.54334,-0.418885,-1.80331,
2026_07_06_15_21_33.206,3.865,30.2,0,0.758,0,0,0,0, ,0,0,0,0,0, ,-39.7,156.2,987.9,-0.5,-0.5,-1.7,25,-38.3365,156.31,987.963,-0.543746,-0.420781,-1.80007,
2026_07_06_15_21_33.226,3.865,30.2,0,0.758,0,0,0,0, ,0,0,0,0,0, ,-37.8,155,987.7,-0.6,-0.4,-1.8,25,-38.3617,156.267,987.953,-0.544127,-0.422562,-1.79701,
2026_07_06_15_21_33.246,3.865,30.1,0,0.76,0,0,0,0, ,0,0,0,0,0, ,-38,156.4,988.2,-0.6,-0.4,-1.8,25,-38.3336,156.232,987.953,-0.547532,-0.421187,-1.7972,
2026_07_06_15_21_33.266,3.865,30.2,0,0.758,0,0,0,0, ,0,0,0,0,0, ,-37.8,155.8,988.2,-0.6,-0.3,-1.8,25,-38.3072,156.224,987.968,-0.550729,-0.416849,-1.79737,
2026_07_06_15_21_33.285,3.865,30.1,0,0.758,0,0,0,0, ,0,0,0,0,0, ,-39.7,156.2,988.4,-0.6,-0.5,-1.9,25,-38.3342,156.211,987.988,-0.553731,-0.415822,-1.80057,
2026_07_06_15_21_33.305,3.865,30.1,0,0.76,0,0,0,0, ,0,0,0,0,0, ,-38.6,156,989,-0.6,-0.5,-1.8,25,-38.3839,156.204,988.031,-0.556551,-0.420952,-1.80359,
2026_07_06_15_21_33.325,3.865,30.1,0,0.76,0,0,0,0, ,0,0,0,0,0, ,-37.7,155.8,987.4,-0.6,-0.4,-1.8,25,-38.3696,156.185,988.042,-0.559199,-0.422722,-1.80337,
2026_07_06_15_21_33.344,3.865,30.1,0,0.761,0,0,0,0, ,0,0,0,0,0, ,-39.4,156.1,988,-0.6,-0.4,-1.8,25,-38.3806,156.171,988.021,-0.561685,-0.421337,-1.80316,
2026_07_06_15_21_33.364,3.865,30.2,0,0.759,0,0,0,0, ,0,0,0,0,0, ,-38.8,157.3,986.6,-0.6,-0.4,-1.8,25,-38.4245,156.203,987.977,-0.56402,-0.420037,-1.80297,
2026_07_06_15_21_33.385,3.865,30.2,0,0.758,0,0,0,0, ,0,0,0,0,0, ,-37.8,155.8,988.7,-0.5,-0.4,-1.8,25,-38.4169,156.224,987.957,-0.563165,-0.418816,-1.80279,
2026_07_06_15_21_33.404,3.865,30.2,0,0.758,0,0,0,0, ,0,0,0,0,0, ,-37.7,157.5,987,-0.6,-0.4,-1.8,25,-38.3762,156.25,987.95,-0.562363,-0.41767,-1.80262,
2026_07_06_15_21_33.424,3.865,30.2,0,0.76,0,0,0,0, ,0,0,0,0,0, ,-39.1,157.5,988,-0.6,-0.4,-1.8,25,-38.3777,156.326,987.923,-0.564657,-0.416593,-1.80246,
2026_07_06_15_21_33.443,3.865,30.2,0,0.761,0,0,0,0, ,0,0,0,0,0, ,-38.6,156.1,987.9,-0.6,-0.4,-1.8,25,-38.4065,156.355,987.925,-0.56681,-0.415582,-1.80231,
2026_07_06_15_21_33.463,3.865,30.1,0,0.76,0,0,0,0, ,0,0,0,0,0, ,-38.4,156.1,987.3,-0.5,-0.4,-1.8,25,-38.4122,156.34,987.905,-0.565786,-0.414632,-1.80217,
2026_07_06_15_21_33.483,3.865,30.2,0,0.759,0,0,0,0, ,0,0,0,0,0, ,-38.2,156.6,987.6,-0.5,-0.4,-1.8,25,-38.4053,156.34,987.877,-0.561777,-0.413741,-1.80204,
2026_07_06_15_21_33.503,3.865,30.1,0,0.76,0,0,0,0, ,0,0,0,0,0, ,-38,156.8,989,-0.6,-0.4,-1.8,25,-38.3867,156.362,987.903,-0.56106,-0.412903,-1.80191,
2026_07_06_15_21_33.523,3.865,30.1,0,0.761,0,0,0,0, ,0,0,0,0,0, ,-39.1,155.5,988.4,-0.6,-0.5,-1.8,25,-38.3967,156.349,987.951,-0.563432,-0.415164,-1.8018,
2026_07_06_15_21_33.543,3.865,30.1,0,0.76,0,0,0,0, ,0,0,0,0,0, ,-38,155.1,987.5,-0.5,-0.5,-1.8,25,-38.406,156.285,987.951,-0.562614,-0.420334,-1.80169,
2026_07_06_15_21_33.563,3.865,30.1,0,0.758,0,0,0,0, ,0,0,0,0,0, ,-37.2,157.2,989.7,-0.5,-0.4,-1.8,25,-38.3569,156.277,987.991,-0.558798,-0.422141,-1.80158,
2026_07_06_15_21_33.582,3.865,30.1,0,0.758,0,0,0,0, ,0,0,0,0,0, ,-38,156.3,988.6,-0.6,-0.4,-1.8,25,-38.3108,156.306,988.062,-0.558262,-0.420792,-1.80149,
2026_07_06_15_21_33.602,3.865,30.2,0,0.76,0,0,0,0, ,0,0,0,0,0, ,-39.4,156.8,987.3,-0.6,-0.4,-1.8,25,-38.3345,156.321,988.055,-0.560806,-0.419525,-1.8014,
2026_07_06_15_21_33.622,3.865,30.1,0,0.758,0,0,0,0, ,0,0,0,0,0, ,-38.6,157.2,986.5,-0.6,-0.4,-1.9,25,-38.375,156.362,987.984,-0.563194,-0.418335,-1.80436,
2026_07_06_15_21_33.642,3.865,30,0,0.758,0,0,0,0, ,0,0,0,0,0, ,-39.6,155.7,988.2,-0.4,-0.3,-1.7,25,-38.4192,156.368,987.946,-0.559343,-0.414171,-1.80409,
2026_07_06_15_21_33.661,3.865,30.1,0,0.758,0,0,0,0, ,0,0,0,0,0, ,-38,156.7,988.2,-0.6,-0.4,-1.8,25,-38.4424,156.357,987.961,-0.555727,-0.410261,-1.8008,
2026_07_06_15_21_33.681,3.865,30.1,0,0.757,0,0,0,0, ,0,0,0,0,0, ,-39.1,156.7,988,-0.5,-0.5,-1.8,25,-38.449,156.378,987.97,-0.555378,-0.412682,-1.80075,
2026_07_06_15_21_33.701,3.865,30.1,0,0.758,0,0,0,0, ,0,0,0,0,0, ,-40.2,155.8,987.5,-0.6,-0.4,-1.8,25,-38.5222,156.37,987.956,-0.55505,-0.414956,-1.8007,
2026_07_06_15_21_33.722,3.865,30.1,0,0.758,0,0,0,0, ,0,0,0,0,0, ,-37.8,155.3,988.7,-0.5,-0.4,-1.9,25,-38.5513,156.32,987.965,-0.554742,-0.414045,-1.80371,
2026_07_06_15_21_33.740,3.865,30.1,0,0.759,0,0,0,0, ,0,0,0,0,0, ,-39.5,156.4,988.5,-0.6,-0.4,-1.8,25,-38.5573,156.292,988.004,-0.554453,-0.413189,-1.80653,
2026_07_06_15_21_33.761,3.865,30.2,0,0.76,0,0,0,0, ,0,0,0,0,0, ,-38,155.8,988.1,-0.6,-0.4,-1.8,25,-38.569,156.28,988.022,-0.557229,-0.412385,-1.80613,
2026_07_06_15_21_33.780,3.865,30.2,0,0.758,0,0,0,0, ,0,0,0,0,0, ,-37.8,156.1,987.6,-0.6,-0.4,-1.8,25,-38.5283,156.26,988.011,-0.559835,-0.411631,-1.80576,
2026_07_06_15_21_33.800,3.865,30,0,0.757,0,0,0,0, ,0,0,0,0,0, ,-38.4,155.3,987,-0.6,-0.3,-1.8,25,-38.5022,156.226,987.968,-0.562283,-0.407875,-1.80541,
2026_07_06_15_21_33.820,3.865,30.1,0,0.759,0,0,0,0, ,0,0,0,0,0, ,-39.3,155.5,988,-0.6,-0.4,-1.8,25,-38.5234,156.176,987.939,-0.564581,-0.404348,-1.80508,
2026_07_06_15_21_33.840,3.865,30.1,0,0.76,0,0,0,0, ,0,0,0,0,0, ,-38.2,156.1,988.2,-0.6,-0.5,-1.8,25,-38.5372,156.153,987.949,-0.56674,-0.40713,-1.80477,
2026_07_06_15_21_33.860,3.865,30.1,0,0.758,0,0,0,0, ,0,0,0,0,0, ,-38.3,156.7,986.6,-0.6,-0.4,-1.8,25,-38.5197,156.168,987.916,-0.568766,-0.409743,-1.80448,
2026_07_06_15_21_33.879,3.865,30,0,0.758,0,0,0,0, ,0,0,0,0,0, ,-38.3,155.8,989.1,-0.6,-0.4,-1.8,25,-38.5063,156.173,987.912,-0.57067,-0.409149,-1.8042,
2026_07_06_15_21_33.900,3.865,30.1,0,0.76,0,0,0,0, ,0,0,0,0,0, ,-38.8,155.7,988.1,-0.5,-0.4,-1.8,25,-38.509,156.147,987.954,-0.56941,-0.408591,-1.80395,
2026_07_06_15_21_33.919,3.865,30.1,0,0.758,0,0,0,0, ,0,0,0,0,0, ,-39,157.5,987.3,-0.6,-0.5,-1.9,25,-38.5328,156.175,987.938,-0.568227,-0.411115,-1.80675,
2026_07_06_15_21_33.939,3.865,30.1,0,0.759,0,0,0,0, ,0,0,0,0,0, ,-38.2,155.7,988.5,-0.5,-0.4,-1.8,25,-38.5369,156.201,987.936,-0.567117,-0.413484,-1.80939,
2026_07_06_15_21_33.959,3.865,30.1,0,0.76,0,0,0,0, ,0,0,0,0,0, ,-38.6,156.4,988.1,-0.5,-0.4,-1.8,25,-38.5285,156.191,987.958,-0.563027,-0.412663,-1.80882,
2026_07_06_15_21_33.979,3.865,30.1,0,0.758,0,0,0,0, ,0,0,0,0,0, ,-37.7,155.6,987.6,-0.5,-0.5,-1.8,25,-38.5055,156.18,987.952,-0.559186,-0.414938,-1.80828,
2026_07_06_15_21_33.999,3.865,30.1,0,0.76,0,0,0,0, ,0,0,0,0,0, ,-38.9,156.6,988.1,-0.5,-0.5,-1.7,25,-38.493,156.175,987.945,-0.555579,-0.420121,-1.80473,
2026_07_06_15_21_34.019,3.865,30.1,0,0.758,0,0,0,0, ,0,0,0,0,0, ,-38,156.1,988.1,-0.5,-0.4,-1.8,25,-38.4903,156.185,987.955,-0.552192,-0.421942,-1.80139,
2026_07_06_15_21_34.038,3.865,30.1,0,0.758,0,0,0,0, ,0,0,0,0,0, ,-37.9,155.1,988.6,-0.6,-0.4,-1.8,25,-38.4574,156.15,987.979,-0.552059,-0.420605,-1.80131,
2026_07_06_15_21_34.058,3.865,30.1,0,0.758,0,0,0,0, ,0,0,0,0,0, ,-38.6,154.5,987.4,-0.5,-0.4,-1.8,25,-38.4448,156.068,987.98,-0.551933,-0.419349,-1.80123,
2026_07_06_15_21_34.079,3.865,30.1,0,0.758,0,0,0,0, ,0,0,0,0,0, ,-38.6,155.8,989.3,-0.5,-0.4,-1.7,25,-38.4542,156.012,988.003,-0.548769,-0.41817,-1.79811,
2026_07_06_15_21_34.098,3.865,30.1,0,0.76,0,0,0,0, ,0,0,0,0,0, ,-37.8,155.3,988.5,-0.6,-0.3,-1.8,25,-38.4387,155.984,988.057,-0.548844,-0.414016,-1.79518,
2026_07_06_15_21_34.118,3.865,30.1,0,0.758,0,0,0,0, ,0,0,0,0,0, ,-37.9,155,988.1,-0.5,-0.4,-1.8,25,-38.4029,155.933,988.072,-0.548914,-0.410115,-1.79547,
2026_07_06_15_21_34.138,3.865,30.2,0,0.758,0,0,0,0, ,0,0,0,0,0, ,-38.4,155.8,989.2,-0.5,-0.5,-1.9,25,-38.3875,155.9,988.107,-0.545934,-0.412546,-1.79879,
2026_07_06_15_21_34.158,3.865,30.1,0,0.758,0,0,0,0, ,0,0,0,0,0, ,-37.2,156.4,987.7,-0.6,-0.5,-1.9,25,-38.3517,155.912,988.128,-0.546181,-0.417875,-1.80496,
2026_07_06_15_21_34.178,3.865,30.1,0,0.759,0,0,0,0, ,0,0,0,0,0, ,-38,155.7,988.8,-0.6,-0.4,-1.8,25,-38.3059,155.921,988.136,-0.549461,-0.419832,-1.8077,
2026_07_06_15_21_34.197,3.865,30.1,0,0.758,0,0,0,0, ,0,0,0,0,0, ,-38.6,156.4,988.4,-0.6,-0.4,-1.9,25,-38.3055,155.929,988.164,-0.552541,-0.418624,-1.81028,
2026_07_06_15_21_34.217,3.865,30.1,0,0.76,0,0,0,0, ,0,0,0,0,0, ,-37.5,157.3,986.2,-0.6,-0.4,-1.7,25,-38.2899,155.985,988.111,-0.555433,-0.417489,-1.80966,
2026_07_06_15_21_34.237,3.865,30.1,0,0.758,0,0,0,0, ,0,0,0,0,0, ,-37.7,155.1,988.4,-0.5,-0.4,-1.8,25,-38.2479,155.998,988.062,-0.555102,-0.416423,-1.80602,
2026_07_06_15_21_34.257,3.865,30.1,0,0.758,0,0,0,0, ,0,0,0,0,0, ,-38.4,156.2,987.7,-0.5,-0.4,-1.8,25,-38.2358,155.977,988.061,-0.551744,-0.415423,-1.80565,
2026_07_06_15_21_34.277,3.865,30.1,0,0.76,0,0,0,0, ,0,0,0,0,0, ,-39.7,155.2,987.1,-0.5,-0.4,-1.8,25,-38.2854,155.96,988.021,-0.548591,-0.414483,-1.80531,
2026_07_06_15_21_34.296,3.865,30.1,0,0.758,0,0,0,0, ,0,0,0,0,0, ,-38.3,156.2,986.4,-0.5,-0.5,-1.8,25,-38.329,155.944,987.943,-0.54563,-0.416647,-1.80499,
2026_07_06_15_21_34.316,3.865,30.1,0,0.76,0,0,0,0, ,0,0,0,0,0, ,-38.5,157.3,987.4,-0.5,-0.4,-1.9,25,-38.3333,155.993,987.88,-0.542849,-0.418679,-1.80773,
2026_07_06_15_21_34.336,3.865,30,0,0.758,0,0,0,0, ,0,0,0,0,0, ,-38.8,156,988.7,-0.5,-0.4,-1.8,25,-38.3526,156.033,987.89,-0.540238,-0.417541,-1.8103,
2026_07_06_15_21_34.356,3.865,30.1,0,0.758,0,0,0,0, ,0,0,0,0,0, ,-37.9,156.2,988.2,-0.5,-0.4,-1.8,25,-38.3524,156.037,987.924,-0.537786,-0.416472,-1.80968,
2026_07_06_15_21_34.376,3.865,30.1,0,0.76,0,0,0,0, ,0,0,0,0,0, ,-38.4,156,988.8,-0.6,-0.4,-1.8,25,-38.3401,156.041,987.959,-0.53853,-0.415469,-1.80909,
2026_07_06_15_21_34.395,3.865,30.1,0,0.758,0,0,0,0, ,0,0,0,0,0, ,-39.1,155.6,988.4,-0.5,-0.4,-1.8,25,-38.3651,156.026,987.998,-0.539229,-0.414526,-1.80853,
2026_07_06_15_21_34.420,3.865,30.1,0,0.761,0,0,0,0, ,0,0,0,0,0, ,-37.7,156.8,990.8,-0.5,-0.4,-1.8,25,-38.3672,156.037,988.096,-0.536839,-0.413641,-1.80801,
2026_07_06_15_21_34.437,3.865,30.1,0,0.761,0,0,0,0, ,0,0,0,0,0, ,-38.6,156.1,987.1,-0.5,-0.4,-1.8,25,-38.354,156.062,988.148,-0.534594,-0.412809,-1.80752,
2026_07_06_15_21_34.455,3.865,30.1,0,0.759,0,0,0,0, ,0,0,0,0,0, ,-37.4,155.7,987.5,-0.5,-0.4,-1.8,25,-38.3324,156.052,988.096,-0.532486,-0.412029,-1.80707,
2026_07_06_15_21_34.475,3.865,30.1,0,0.76,0,0,0,0, ,0,0,0,0,0, ,-38.8,156.1,988.6,-0.5,-0.4,-1.8,25,-38.3182,156.043,988.094,-0.530506,-0.411296,-1.80664,
2026_07_06_15_21_34.494,3.865,30.1,0,0.76,0,0,0,0, ,0,0,0,0,0, ,-38.9,156.1,989.7,-0.5,-0.4,-1.8,25,-38.3507,156.046,988.158,-0.528647,-0.410608,-1.80623,
2026_07_06_15_21_34.515,3.865,30.1,0,0.758,0,0,0,0, ,0,0,0,0,0, ,-38.2,155.3,987.6,-0.6,-0.4,-1.9,25,-38.3628,156.025,988.188,-0.529948,-0.409961,-1.8089,
2026_07_06_15_21_34.534,3.865,30.1,0,0.758,0,0,0,0, ,0,0,0,0,0, ,-37.8,155.6,987.4,-0.5,-0.4,-1.9,25,-38.3407,155.99,988.146,-0.53117,-0.409354,-1.81445,
2026_07_06_15_21_34.554,3.865,30.2,0,0.76,0,0,0,0, ,0,0,0,0,0, ,-39,156.1,988.7,-0.5,-0.4,-1.8,25,-38.3443,155.982,988.14,-0.529271,-0.408784,-1.81662,
2026_07_06_15_21_34.574,3.865,30,0,0.76,0,0,0,0, ,0,0,0,0,0, ,-37.3,155.5,988.5,-0.5,-0.4,-1.9,25,-38.3325,155.971,988.168,-0.527487,-0.408249,-1.81865,
2026_07_06_15_21_34.594,3.865,30.1,0,0.761,0,0,0,0, ,0,0,0,0,0, ,-37.4,156,988.6,-0.6,-0.4,-1.8,25,-38.2726,155.957,988.191,-0.528859,-0.407746,-1.82056,
2026_07_06_15_21_34.613,3.865,30,0,0.758,0,0,0,0, ,0,0,0,0,0, ,-38.9,156.7,988.1,-0.6,-0.4,-1.8,25,-38.2651,155.981,988.201,-0.533194,-0.407274,-1.81931,
2026_07_06_15_21_34.633,3.865,30,0,0.759,0,0,0,0, ,0,0,0,0,0, ,-39.4,157.4,987,-0.5,-0.4,-1.8,25,-38.319,156.046,988.161,-0.534218,-0.406831,-1.81813,
2026_07_06_15_21_34.653,3.865,30.1,0,0.758,0,0,0,0, ,0,0,0,0,0, ,-38.3,156.2,988.1,-0.6,-0.5,-1.8,25,-38.3514,156.092,988.124,-0.53518,-0.409462,-1.81703,
2026_07_06_15_21_34.673,3.865,29.9,0,0.76,0,0,0,0, ,0,0,0,0,0, ,-38.8,156.4,988.4,-0.5,-0.4,-1.8,25,-38.3635,156.105,988.132,-0.536083,-0.411932,-1.81599,
2026_07_06_15_21_34.693,3.865,30.1,0,0.76,0,0,0,0, ,0,0,0,0,0, ,-37.8,156.2,988.4,-0.5,-0.4,-1.9,25,-38.3596,156.117,988.148,-0.533884,-0.411205,-1.81806,
2026_07_06_15_21_34.712,3.865,30.1,0,0.758,0,0,0,0, ,0,0,0,0,0, ,-38.4,156.4,988.7,-0.6,-0.5,-1.9,25,-38.3438,156.128,988.173,-0.534866,-0.413569,-1.82305,
2026_07_06_15_21_34.732,3.865,30,0,0.759,0,0,0,0, ,0,0,0,0,0, ,-38.6,156.2,988.1,-0.6,-0.5,-1.8,25,-38.3533,156.138,988.187,-0.538835,-0.418836,-1.8247,
2026_07_06_15_21_34.753,3.865,30.1,0,0.758,0,0,0,0, ,0,0,0,0,0, ,-38.8,156.3,989.2,-0.6,-0.4,-1.8,25,-38.3745,156.145,988.215,-0.542563,-0.420735,-1.82319,
2026_07_06_15_21_34.772,3.865,30.1,0,0.76,0,0,0,0, ,0,0,0,0,0, ,-37.8,155.5,987.6,-0.5,-0.5,-1.8,25,-38.3699,156.13,988.226,-0.543016,-0.422518,-1.82178,
2026_07_06_15_21_34.792,3.865,30.1,0,0.758,0,0,0,0, ,0,0,0,0,0, ,-38.4,155.8,987.7,-0.5,-0.4,-1.8,25,-38.3535,156.101,988.191,-0.540395,-0.424193,-1.82045,
2026_07_06_15_21_34.812,3.865,30.1,0,0.758,0,0,0,0, ,0,0,0,0,0, ,-37.7,155.8,988.1,-0.5,-0.4,-1.8,25,-38.335,156.083,988.173,-0.537933,-0.422719,-1.8192,
2026_07_06_15_21_34.831,3.865,30.1,0,0.759,0,0,0,0, ,0,0,0,0,0, ,-38.6,156.7,989.5,-0.5,-0.5,-1.8,25,-38.3237,156.093,988.211,-0.535621,-0.424381,-1.81803,
2026_07_06_15_21_34.851,3.865,30,0,0.76,0,0,0,0, ,0,0,0,0,0, ,-38,156.7,988,-0.6,-0.4,-1.9,25,-38.3223,156.13,988.244,-0.536498,-0.425942,-1.81998,
2026_07_06_15_21_34.876,3.865,30.1,0,0.759,0,0,0,0, ,0,0,0,0,0, ,-37.8,157.1,987.1,-0.5,-0.4,-1.8,25,-38.2965,156.177,988.202,-0.53732,-0.424361,-1.82181,
2026_07_06_15_21_34.891,3.865,30.1,0,0.758,0,0,0,0, ,0,0,0,0,0, ,-38,154.4,988.4,-0.6,-0.4,-1.8,25,-38.2724,156.151,988.174,-0.538093,-0.422877,-1.82048,
2026_07_06_15_21_34.910,3.865,30.1,0,0.757,0,0,0,0, ,0,0,0,0,0, ,-39.4,157.1,987.1,-0.6,-0.4,-1.7,25,-38.2984,156.126,988.149,-0.541866,-0.421483,-1.81619,
2026_07_06_15_21_34.930,3.865,30.1,0,0.76,0,0,0,0, ,0,0,0,0,0, ,-37.8,157.7,987.6,-0.5,-0.5,-1.9,25,-38.3168,156.204,988.1,-0.542361,-0.423221,-1.8152,
2026_07_06_15_21_34.950,3.865,30,0,0.758,0,0,0,0, ,0,0,0,0,0, ,-38.8,156.4,987.7,-0.6,-0.5,-1.8,25,-38.3158,156.256,988.072,-0.542827,-0.427899,-1.81732,
2026_07_06_15_21_34.970,3.865,30.1,0,0.758,0,0,0,0, ,0,0,0,0,0, ,-38.4,155.1,987.6,-0.5,-0.5,-1.8,25,-38.3331,156.225,988.047,-0.543264,-0.432293,-1.81627,
2026_07_06_15_21_34.991,3.865,30.1,0,0.759,0,0,0,0, ,0,0,0,0,0, ,-38.4,156.4,988.1,-0.5,-0.4,-1.8,25,-38.3372,156.196,988.035,-0.540627,-0.433372,-1.81527,
2026_07_06_15_21_35.010,3.865,30,0,0.762,0,0,0,0, ,0,0,0,0,0, ,-38.8,155.2,988,-0.5,-0.4,-1.8,25,-38.3532,156.172,988.036,-0.538152,-0.431338,-1.81434,
2026_07_06_15_21_35.029,3.865,30,0,0.761,0,0,0,0, ,0,0,0,0,0, ,-38.5,156.9,988.8,-0.5,-0.4,-1.8,25,-38.3713,156.164,988.058,-0.535827,-0.429429,-1.81347,
2026_07_06_15_21_35.050,3.865,30,0,0.758,0,0,0,0, ,0,0,0,0,0, ,-39,156.3,987.7,-0.5,-0.4,-1.8,25,-38.3944,156.191,988.07,-0.533644,-0.427635,-1.81265,
2026_07_06_15_21_35.069,3.865,30,0,0.76,0,0,0,0, ,0,0,0,0,0, ,-37.3,155.3,989.2,-0.5,-0.4,-1.8,25,-38.3795,156.167,988.093,-0.531594,-0.425951,-1.81188,
2026_07_06_15_21_35.096,3.865,30.1,0,0.76,0,0,0,0, ,0,0,0,0,0, ,-38,155.5,988.2,-0.5,-0.4,-1.8,25,-38.335,156.12,988.13,-0.529668,-0.42437,-1.81115,
2026_07_06_15_21_35.114,3.865,30.1,0,0.758,0,0,0,0, ,0,0,0,0,0, ,-39,156.1,987.9,-0.5,-0.4,-1.8,25,-38.3451,156.101,988.125,-0.52786,-0.422885,-1.81047,
2026_07_06_15_21_35.129,3.865,30,0,0.761,0,0,0,0, ,0,0,0,0,0, ,-38.5,155.7,987.6,-0.5,-0.4,-1.8,25,-38.3697,156.089,988.102,-0.526163,-0.42149,-1.80984,
2026_07_06_15_21_35.149,3.865,30.1,0,0.76,0,0,0,0, ,0,0,0,0,0, ,-37.2,155.7,987.4,-0.6,-0.5,-1.8,25,-38.3381,156.065,988.065,-0.527615,-0.423228,-1.80924,
2026_07_06_15_21_35.169,3.865,30.1,0,0.757,0,0,0,0, ,0,0,0,0,0, ,-38.2,157.3,987.9,-0.6,-0.4,-1.7,25,-38.2992,156.091,988.04,-0.532026,-0.424859,-1.80563,
2026_07_06_15_21_35.188,3.865,30,0,0.757,0,0,0,0, ,0,0,0,0,0, ,-39.7,158.2,988.5,-0.5,-0.4,-1.9,25,-38.3388,156.192,988.05,-0.533121,-0.423344,-1.80528,
2026_07_06_15_21_35.209,3.865,30,0,0.757,0,0,0,0, ,0,0,0,0,0, ,-39.1,158.4,986.2,-0.5,-0.4,-1.8,25,-38.4035,156.321,988.007,-0.531103,-0.421922,-1.80801,
2026_07_06_15_21_35.228,3.865,29.9,0,0.758,0,0,0,0, ,0,0,0,0,0, ,-39,157.4,988.1,-0.5,-0.4,-1.8,25,-38.4429,156.417,987.955,-0.529208,-0.420586,-1.80752,
2026_07_06_15_21_35.249,3.865,30,0,0.759,0,0,0,0, ,0,0,0,0,0, ,-38.5,156,988.7,-0.5,-0.5,-1.8,25,-38.4616,156.434,987.982,-0.527428,-0.422378,-1.80706,
2026_07_06_15_21_35.268,3.865,30.1,0,0.759,0,0,0,0, ,0,0,0,0,0, ,-37.8,156.9,989.6,-0.5,-0.4,-1.8,25,-38.4426,156.435,988.053,-0.525757,-0.424061,-1.80663,
2026_07_06_15_21_35.287,3.865,30,0,0.76,0,0,0,0, ,0,0,0,0,0, ,-38.3,157.4,988,-0.5,-0.5,-1.8,25,-38.4187,156.479,988.099,-0.524187,-0.425642,-1.80623,
2026_07_06_15_21_35.308,3.865,30,0,0.758,0,0,0,0, ,0,0,0,0,0, ,-37.5,156,987.7,-0.6,-0.4,-1.8,25,-38.3871,156.492,988.084,-0.52576,-0.427126,-1.80585,
2026_07_06_15_21_35.327,3.865,29.9,0,0.758,0,0,0,0, ,0,0,0,0,0, ,-38.3,155.2,987.3,-0.6,-0.4,-1.7,25,-38.3574,156.438,988.048,-0.530284,-0.425473,-1.80245,
2026_07_06_15_21_35.347,3.865,30,0,0.759,0,0,0,0, ,0,0,0,0,0, ,-38.5,155.8,988.2,-0.6,-0.4,-1.8,25,-38.36,156.381,988.03,-0.534532,-0.423921,-1.79925,
2026_07_06_15_21_35.367,3.865,30,0,0.761,0,0,0,0, ,0,0,0,0,0, ,-38.3,156,989.1,-0.6,-0.5,-1.8,25,-38.3624,156.351,988.068,-0.538522,-0.42551,-1.7993,
2026_07_06_15_21_35.387,3.865,30,0,0.76,0,0,0,0, ,0,0,0,0,0, ,-37.7,156.7,987.5,-0.6,-0.5,-1.8,25,-38.3404,156.351,988.082,-0.542268,-0.43005,-1.79934,
2026_07_06_15_21_35.406,3.865,29.9,0,0.757,0,0,0,0, ,0,0,0,0,0, ,-37.9,156.7,988.5,-0.6,-0.4,-1.8,25,-38.3074,156.373,988.077,-0.545786,-0.431265,-1.79938,
2026_07_06_15_21_35.426,3.865,30,0,0.76,0,0,0,0, ,0,0,0,0,0, ,-39.5,155,986.9,-0.5,-0.5,-1.9,25,-38.3314,156.341,988.054,-0.546043,-0.432407,-1.80246,
2026_07_06_15_21_35.446,3.865,30.1,0,0.758,0,0,0,0, ,0,0,0,0,0, ,-38.2,157.2,988.5,-0.6,-0.5,-1.7,25,-38.363,156.326,988.032,-0.546284,-0.436526,-1.80231,
2026_07_06_15_21_35.466,3.865,30,0,0.76,0,0,0,0, ,0,0,0,0,0, ,-38.2,156.4,989.2,-0.7,-0.5,-1.8,25,-38.353,156.355,988.082,-0.552604,-0.440394,-1.79913,
2026_07_06_15_21_35.485,3.865,30,0,0.761,0,0,0,0, ,0,0,0,0,0, ,-38.3,155.3,987.9,-0.5,-0.4,-1.8,25,-38.3468,156.324,988.111,-0.555492,-0.440979,-1.79918,
2026_07_06_15_21_35.506,3.865,30,0,0.76,0,0,0,0, ,0,0,0,0,0, ,-37.8,157.2,987.6,-0.5,-0.4,-1.8,25,-38.3287,156.32,988.089,-0.552111,-0.438482,-1.79923,
2026_07_06_15_21_35.526,3.865,30,0,0.758,0,0,0,0, ,0,0,0,0,0, ,-39,157.3,987.6,-0.5,-0.4,-1.8,25,-38.333,156.376,988.059,-0.548935,-0.436137,-1.79928,
2026_07_06_15_21_35.545,3.865,30,0,0.758,0,0,0,0, ,0,0,0,0,0, ,-38.4,156.8,988.1,-0.6,-0.4,-1.8,25,-38.3554,156.417,988.046,-0.549,-0.433935,-1.79932,
2026_07_06_15_21_35.565,3.865,30,0,0.76,0,0,0,0, ,0,0,0,0,0, ,-37.8,156.2,989,-0.6,-0.4,-1.8,25,-38.3398,156.422,988.077,-0.552108,-0.431867,-1.79936,
2026_07_06_15_21_35.586,3.865,30,0,0.758,0,0,0,0, ,0,0,0,0,0, ,-38.5,156.7,988,-0.6,-0.3,-1.8,25,-38.3282,156.424,988.103,-0.555026,-0.426878,-1.7994,
2026_07_06_15_21_35.605,3.865,30,0,0.76,0,0,0,0, ,0,0,0,0,0, ,-39,156.4,987.6,-0.5,-0.4,-1.8,25,-38.3539,156.432,988.084,-0.55472,-0.422193,-1.79944,
2026_07_06_15_21_35.625,3.865,30.1,0,0.76,0,0,0,0, ,0,0,0,0,0, ,-38.5,156.1,988.7,-0.6,-0.4,-1.8,25,-38.3781,156.421,988.088,-0.554433,-0.420841,-1.79947,
2026_07_06_15_21_35.644,3.865,29.8,0,0.76,0,0,0,0, ,0,0,0,0,0, ,-37.9,155.7,989,-0.5,-0.5,-1.8,25,-38.3672,156.389,988.135,-0.554162,-0.422618,-1.7995,
2026_07_06_15_21_35.664,3.865,30.1,0,0.758,0,0,0,0, ,0,0,0,0,0, ,-38.2,154.6,988.2,-0.5,-0.4,-1.8,25,-38.3479,156.313,988.163,-0.550862,-0.424287,-1.79953,
2026_07_06_15_21_35.684,3.865,29.9,0,0.758,0,0,0,0, ,0,0,0,0,0, ,-39,155,987.5,-0.5,-0.4,-1.8,25,-38.3633,156.221,988.144,-0.547762,-0.422807,-1.79956,
2026_07_06_15_21_35.704,3.865,30.1,0,0.761,0,0,0,0, ,0,0,0,0,0, ,-39.3,156.3,987.3,-0.6,-0.4,-1.8,25,-38.4112,156.186,988.099,-0.547899,-0.421417,-1.79959,
2026_07_06_15_21_35.724,3.865,29.9,0,0.758,0,0,0,0, ,0,0,0,0,0, ,-37.8,156.6,988.1,-0.5,-0.4,-1.8,25,-38.4197,156.203,988.074,-0.548027,-0.420112,-1.79961,
2026_07_06_15_21_35.744,3.865,29.9,0,0.757,0,0,0,0, ,0,0,0,0,0, ,-38.9,157.1,988,-0.6,-0.5,-1.8,25,-38.4154,156.242,988.073,-0.548147,-0.421933,-1.79964,
2026_07_06_15_21_35.763,3.865,30,0,0.758,0,0,0,0, ,0,0,0,0,0, ,-37.9,156.2,988.4,-0.5,-0.4,-1.8,25,-38.4145,156.267,988.081,-0.54826,-0.423643,-1.79966,
2026_07_06_15_21_35.790,3.865,29.9,0,0.758,0,0,0,0, ,0,0,0,0,0, ,-38.6,156.6,987,-0.5,-0.4,-1.8,25,-38.4045,156.275,988.057,-0.545319,-0.422203,-1.79968,
2026_07_06_15_21_35.803,3.865,30,0,0.758,0,0,0,0, ,0,0,0,0,0, ,-38.4,156.2,987.5,-0.6,-0.4,-1.9,25,-38.4103,156.283,988.008,-0.545604,-0.42085,-1.80275,
2026_07_06_15_21_35.823,3.865,29.9,0,0.759,0,0,0,0, ,0,0,0,0,0, ,-38.9,154.6,987.9,-0.5,-0.4,-1.8,25,-38.4249,156.229,987.989,-0.545872,-0.419579,-1.80563,
2026_07_06_15_21_35.843,3.865,30,0,0.758,0,0,0,0, ,0,0,0,0,0, ,-38.8,157.2,988.4,-0.5,-0.5,-1.8,25,-38.4508,156.209,987.999,-0.543077,-0.421433,-1.80528,
2026_07_06_15_21_35.862,3.865,30,0,0.757,0,0,0,0, ,0,0,0,0,0, ,-38.9,156.1,987.5,-0.5,-0.5,-1.8,25,-38.4751,156.236,987.996,-0.540452,-0.426221,-1.80496,
2026_07_06_15_21_35.883,3.865,29.9,0,0.758,0,0,0,0, ,0,0,0,0,0, ,-39.3,156.7,986.8,-0.5,-0.4,-1.8,25,-38.5132,156.246,987.945,-0.537987,-0.42767,-1.80466,
2026_07_06_15_21_35.904,3.865,29.9,0,0.757,0,0,0,0, ,0,0,0,0,0, ,-38.6,155.5,987,-0.5,-0.4,-1.8,25,-38.5398,156.237,987.881,-0.535672,-0.425983,-1.80437,
2026_07_06_15_21_35.922,3.865,29.8,0,0.758,0,0,0,0, ,0,0,0,0,0, ,-38.4,155.6,988,-0.6,-0.4,-1.8,25,-38.5374,156.195,987.858,-0.536545,-0.4244,-1.80411,
2026_07_06_15_21_35.942,3.865,30,0,0.758,0,0,0,0, ,0,0,0,0,0, ,-38.2,155.6,988.5,-0.6,-0.5,-1.8,25,-38.5229,156.159,987.882,-0.540412,-0.42596,-1.80386,
2026_07_06_15_21_35.962,3.865,29.9,0,0.759,0,0,0,0, ,0,0,0,0,0, ,-37.4,156.8,988,-0.5,-0.4,-1.8,25,-38.4789,156.161,987.904,-0.540996,-0.427425,-1.80362,
2026_07_06_15_21_35.984,3.865,29.9,0,0.758,0,0,0,0, ,0,0,0,0,0, ,-37.4,157.2,988.4,-0.6,-0.4,-1.8,25,-38.4131,156.212,987.922,-0.541545,-0.425754,-1.8034,
2026_07_06_15_21_36.001,3.865,29.9,0,0.758,0,0,0,0, ,0,0,0,0,0, ,-37.4,156.2,987.4,-0.6,-0.5,-1.8,25,-38.3514,156.242,987.921,-0.545107,-0.427231,-1.80319,
2026_07_06_15_21_36.021,3.865,29.8,0,0.758,0,0,0,0, ,0,0,0,0,0, ,-38.4,156.3,986.8,-0.6,-0.4,-1.9,25,-38.3239,156.243,987.871,-0.548452,-0.428619,-1.80605,
2026_07_06_15_21_36.042,3.865,29.9,0,0.758,0,0,0,0, ,0,0,0,0,0, ,-38.6,156.9,987.9,-0.5,-0.4,-1.8,25,-38.3346,156.264,987.839,-0.548546,-0.426875,-1.80873,
2026_07_06_15_21_36.061,3.865,29.8,0,0.759,0,0,0,0, ,0,0,0,0,0, ,-38.5,155.6,987.9,-0.6,-0.4,-1.8,25,-38.3477,156.263,987.843,-0.548635,-0.425237,-1.80819,
2026_07_06_15_21_36.081,3.865,29.9,0,0.758,0,0,0,0, ,0,0,0,0,0, ,-39.5,156.7,988,-0.5,-0.4,-1.8,25,-38.3875,156.257,987.849,-0.548718,-0.423699,-1.80769,
2026_07_06_15_21_36.102,3.865,29.8,0,0.758,0,0,0,0, ,0,0,0,0,0, ,-37.3,156,988.5,-0.5,-0.5,-1.7,25,-38.3882,156.262,987.874,-0.545749,-0.425302,-1.80418,
2026_07_06_15_21_36.120,3.865,29.9,0,0.758,0,0,0,0, ,0,0,0,0,0, ,-39.7,156.4,987,-0.5,-0.4,-1.8,25,-38.3951,156.258,987.866,-0.542962,-0.426807,-1.80088,
2026_07_06_15_21_36.140,3.865,29.9,0,0.76,0,0,0,0, ,0,0,0,0,0, ,-38.2,156,989.1,-0.6,-0.4,-1.8,25,-38.4289,156.255,987.877,-0.54339,-0.425173,-1.80082,
2026_07_06_15_21_36.160,3.865,30,0,0.758,0,0,0,0, ,0,0,0,0,0, ,-37.1,155.8,986.6,-0.6,-0.4,-1.8,25,-38.3814,156.233,987.876,-0.54684,-0.423639,-1.80077,
2026_07_06_15_21_36.181,3.865,29.9,0,0.76,0,0,0,0, ,0,0,0,0,0, ,-38.9,156.7,988.4,-0.5,-0.4,-1.9,25,-38.3582,156.234,987.853,-0.547033,-0.422199,-1.80377,
2026_07_06_15_21_36.201,3.865,29.9,0,0.758,0,0,0,0, ,0,0,0,0,0, ,-38.4,154.7,988.2,-0.5,-0.5,-1.8,25,-38.376,156.202,987.88,-0.544167,-0.423893,-1.80659,
2026_07_06_15_21_36.222,3.865,29.9,0,0.757,0,0,0,0, ,0,0,0,0,0, ,-38,155.7,988.6,-0.5,-0.4,-1.7,25,-38.3652,156.141,987.912,-0.541475,-0.425484,-1.80314,
2026_07_06_15_21_36.239,3.865,29.9,0,0.758,0,0,0,0, ,0,0,0,0,0, ,-37.5,156.3,988.4,-0.6,-0.4,-1.7,25,-38.3277,156.132,987.948,-0.541995,-0.423931,-1.79686,
2026_07_06_15_21_36.259,3.865,29.9,0,0.757,0,0,0,0, ,0,0,0,0,0, ,-38.5,157.5,988.5,-0.6,-0.5,-1.7,25,-38.3078,156.179,987.978,-0.545529,-0.42552,-1.79095,
2026_07_06_15_21_36.279,3.865,29.9,0,0.758,0,0,0,0, ,0,0,0,0,0, ,-37.9,155.8,988.2,-0.6,-0.4,-1.8,25,-38.3012,156.208,988.001,-0.548849,-0.427011,-1.78846,
2026_07_06_15_21_36.299,3.865,29.9,0,0.757,0,0,0,0, ,0,0,0,0,0, ,-38.4,157.1,987.7,-0.6,-0.5,-1.8,25,-38.292,156.222,987.998,-0.551966,-0.428412,-1.78916,
2026_07_06_15_21_36.318,3.865,29.9,0,0.758,0,0,0,0, ,0,0,0,0,0, ,-38,156.9,988.5,-0.6,-0.4,-1.8,25,-38.2864,156.27,988.004,-0.554893,-0.429728,-1.78982,
2026_07_06_15_21_36.338,3.865,30,0,0.76,0,0,0,0, ,0,0,0,0,0, ,-38.4,157.9,988,-0.6,-0.4,-1.8,25,-38.2811,156.339,988.019,-0.557642,-0.427916,-1.79044,
2026_07_06_15_21_36.358,3.865,29.9,0,0.758,0,0,0,0, ,0,0,0,0,0, ,-39.3,156.4,986.8,-0.5,-0.4,-1.8,25,-38.3158,156.388,987.981,-0.557176,-0.426215,-1.79102,
2026_07_06_15_21_36.378,3.865,29.9,0,0.758,0,0,0,0, ,0,0,0,0,0, ,-38.5,156.3,988.4,-0.6,-0.4,-1.8,25,-38.3514,156.386,987.958,-0.556739,-0.424618,-1.79157,
2026_07_06_15_21_36.398,3.865,29.9,0,0.76,0,0,0,0, ,0,0,0,0,0, ,-38.6,156.9,988.7,-0.5,-0.4,-1.8,25,-38.3635,156.399,987.994,-0.556328,-0.423117,-1.79209,
2026_07_06_15_21_36.419,3.865,29.9,0,0.758,0,0,0,0, ,0,0,0,0,0, ,-39.3,155.7,990.6,-0.5,-0.4,-1.8,25,-38.3992,156.393,988.095,-0.552895,-0.421709,-1.79257,
2026_07_06_15_21_36.438,3.865,29.9,0,0.757,0,0,0,0, ,0,0,0,0,0, ,-38.5,155.7,989,-0.5,-0.5,-1.8,25,-38.4297,156.351,988.199,-0.549672,-0.423433,-1.79302,
2026_07_06_15_21_36.458,3.865,29.9,0,0.758,0,0,0,0, ,0,0,0,0,0, ,-38.3,156.2,988.2,-0.5,-0.4,-1.8,25,-38.4279,156.326,988.223,-0.546645,-0.425052,-1.79345,
2026_07_06_15_21_36.478,3.865,30,0,0.76,0,0,0,0, ,0,0,0,0,0, ,-37.5,155.7,988.4,-0.5,-0.5,-1.8,25,-38.3958,156.303,988.228,-0.543803,-0.426572,-1.79385,
2026_07_06_15_21_36.499,3.865,29.9,0,0.76,0,0,0,0, ,0,0,0,0,0, ,-39.9,155.2,988.5,-0.5,-0.5,-1.8,25,-38.4143,156.251,988.242,-0.541134,-0.431046,-1.79422,
2026_07_06_15_21_36.521,3.865,29.9,0,0.76,0,0,0,0, ,0,0,0,0,0, ,-38.4,155.5,988.4,-0.5,-0.5,-1.8,25,-38.4591,156.196,988.254,-0.538627,-0.435248,-1.79457,
2026_07_06_15_21_36.544,3.865,30,0,0.759,0,0,0,0, ,0,0,0,0,0, ,-38.4,156.7,988.5,-0.5,-0.3,-1.8,25,-38.4555,156.19,988.266,-0.536273,-0.4331,-1.7949,
2026_07_06_15_21_36.556,3.865,29.9,0,0.761,0,0,0,0, ,0,0,0,0,0, ,-38.6,156.2,988.2,-0.6,-0.4,-1.7,25,-38.4582,156.206,988.271,-0.53711,-0.428036,-1.79217,
2026_07_06_15_21_36.577,3.865,29.9,0,0.758,0,0,0,0, ,0,0,0,0,0, ,-37.9,156.2,988.6,-0.6,-0.4,-1.7,25,-38.4455,156.206,988.279,-0.540942,-0.426328,-1.78655,
2026_07_06_15_21_36.596,3.865,29.9,0,0.758,0,0,0,0, ,0,0,0,0,0, ,-39.3,156.9,989,-0.6,-0.4,-1.7,25,-38.455,156.227,988.311,-0.544541,-0.424724,-1.78128,
2026_07_06_15_21_36.617,3.865,29.8,0,0.757,0,0,0,0, ,0,0,0,0,0, ,-39.3,156.7,987.9,-0.6,-0.4,-1.9,25,-38.5065,156.262,988.319,-0.54792,-0.423217,-1.78242,
2026_07_06_15_21_36.635,3.865,29.9,0,0.758,0,0,0,0, ,0,0,0,0,0, ,-39,157.7,986.5,-0.6,-0.4,-1.8,25,-38.5457,156.319,988.251,-0.551094,-0.421802,-1.78654,
2026_07_06_15_21_36.656,3.865,29.9,0,0.758,0,0,0,0, ,0,0,0,0,0, ,-39.1,156.6,987.6,-0.4,-0.4,-1.8,25,-38.5764,156.37,988.178,-0.54798,-0.420474,-1.78736,
2026_07_06_15_21_36.675,3.865,29.8,0,0.759,0,0,0,0, ,0,0,0,0,0, ,-38.8,156.3,988.6,-0.5,-0.4,-1.8,25,-38.5992,156.374,988.173,-0.54201,-0.419226,-1.78813,
2026_07_06_15_21_36.696,3.865,29.9,0,0.758,0,0,0,0, ,0,0,0,0,0, ,-38.8,156.1,988.7,-0.6,-0.4,-1.8,25,-38.6114,156.364,988.202,-0.542497,-0.418054,-1.78885,
2026_07_06_15_21_36.715,3.865,29.9,0,0.758,0,0,0,0, ,0,0,0,0,0, ,-38.4,155.5,988,-0.5,-0.5,-1.8,25,-38.6107,156.33,988.211,-0.542954,-0.420001,-1.78953,
2026_07_06_15_21_36.738,3.865,29.9,0,0.758,0,0,0,0, ,0,0,0,0,0, ,-39.4,155.2,989.5,-0.5,-0.4,-1.7,25,-38.6283,156.27,988.244,-0.540336,-0.421829,-1.78712,
2026_07_06_15_21_36.755,3.865,29.8,0,0.76,0,0,0,0, ,0,0,0,0,0, ,-38.6,157.5,989.3,-0.6,-0.5,-1.8,25,-38.651,156.275,988.315,-0.540925,-0.423546,-1.78486,
2026_07_06_15_21_36.775,3.865,29.9,0,0.76,0,0,0,0, ,0,0,0,0,0, ,-38.4,157.4,988.5,-0.7,-0.5,-1.8,25,-38.6418,156.346,988.35,-0.547572,-0.428205,-1.78578,
2026_07_06_15_21_36.794,3.865,30,0,0.757,0,0,0,0, ,0,0,0,0,0, ,-38.3,155,987.9,-0.6,-0.4,-1.8,25,-38.624,156.337,988.341,-0.553814,-0.429533,-1.78665,
2026_07_06_15_21_36.816,3.865,29.8,0,0.762,0,0,0,0, ,0,0,0,0,0, ,-38.6,155.6,988.2,-0.6,-0.4,-1.8,25,-38.6134,156.274,988.323,-0.556628,-0.427733,-1.78746,
2026_07_06_15_21_36.834,3.865,29.8,0,0.759,0,0,0,0, ,0,0,0,0,0, ,-38.4,155,988.2,-0.6,-0.4,-1.8,25,-38.6065,156.215,988.316,-0.559271,-0.426043,-1.78823,
2026_07_06_15_21_36.855,3.865,29.8,0,0.76,0,0,0,0, ,0,0,0,0,0, ,-39,156.2,989,-0.6,-0.5,-1.9,25,-38.6122,156.177,988.333,-0.561753,-0.427503,-1.79199,
2026_07_06_15_21_36.873,3.865,30,0,0.76,0,0,0,0, ,0,0,0,0,0, ,-37.8,156.2,988,-0.5,-0.4,-1.8,25,-38.5993,156.179,988.343,-0.561037,-0.428874,-1.79552,
2026_07_06_15_21_36.895,3.865,29.9,0,0.76,0,0,0,0, ,0,0,0,0,0, ,-37.1,157.5,986.8,-0.6,-0.5,-1.8,25,-38.5292,156.22,988.286,-0.560364,-0.430161,-1.7958,
2026_07_06_15_21_36.913,3.865,29.9,0,0.761,0,0,0,0, ,0,0,0,0,0, ,-39.1,157.2,988,-0.6,-0.4,-1.8,25,-38.5031,156.289,988.232,-0.56278,-0.43137,-1.79605,
2026_07_06_15_21_36.937,3.865,29.9,0,0.76,0,0,0,0, ,0,0,0,0,0, ,-39.1,156.2,988,-0.5,-0.4,-1.8,25,-38.5394,156.314,988.218,-0.562001,-0.429459,-1.79629,
2026_07_06_15_21_36.953,3.865,29.9,0,0.76,0,0,0,0, ,0,0,0,0,0, ,-39.1,156.6,987.9,-0.6,-0.4,-1.8,25,-38.5736,156.319,988.201,-0.56127,-0.427664,-1.79652,
2026_07_06_15_21_36.976,3.865,29.9,0,0.76,0,0,0,0, ,0,0,0,0,0, ,-37.4,155.2,989,-0.5,-0.4,-1.8,25,-38.5539,156.293,988.217,-0.560583,-0.425978,-1.79673,
2026_07_06_15_21_36.992,3.865,30,0,0.76,0,0,0,0, ,0,0,0,0,0, ,-38.3,156.3,988.4,-0.5,-0.5,-1.8,25,-38.511,156.26,988.246,-0.556891,-0.427442,-1.79693,
2026_07_06_15_21_37.016,3.865,29.8,0,0.76,0,0,0,0, ,0,0,0,0,0, ,-37.5,156.9,988.1,-0.5,-0.4,-1.8,25,-38.4738,156.281,988.246,-0.553424,-0.428816,-1.79712,
2026_07_06_15_21_37.032,3.865,29.9,0,0.758,0,0,0,0, ,0,0,0,0,0, ,-38.2,155.6,987.9,-0.5,-0.4,-1.8,25,-38.4358,156.279,988.231,-0.550169,-0.42706,-1.79729,
2026_07_06_15_21_37.056,3.865,29.9,0,0.758,0,0,0,0, ,0,0,0,0,0, ,-38.3,156.3,988.8,-0.5,-0.5,-1.8,25,-38.4244,156.259,988.238,-0.547112,-0.428458,-1.79746,
2026_07_06_15_21_37.077,3.865,29.9,0,0.76,0,0,0,0, ,0,0,0,0,0, ,-38.2,156.4,987.9,-0.5,-0.4,-1.7,25,-38.4138,156.265,988.245,-0.544241,-0.429771,-1.79457,
2026_07_06_15_21_37.099,3.865,29.8,0,0.758,0,0,0,0, ,0,0,0,0,0, ,-39.3,154.4,988,-0.6,-0.5,-1.8,25,-38.4343,156.212,988.227,-0.544592,-0.431004,-1.79185,
2026_07_06_15_21_37.111,3.865,29.8,0,0.758,0,0,0,0, ,0,0,0,0,0, ,-37.9,155.5,989.2,-0.6,-0.5,-1.8,25,-38.4444,156.135,988.25,-0.547968,-0.435208,-1.79235,
2026_07_06_15_21_37.132,3.865,29.9,0,0.758,0,0,0,0, ,0,0,0,0,0, ,-38.3,154.6,988.6,-0.5,-0.4,-1.8,25,-38.4234,156.069,988.29,-0.548092,-0.436109,-1.79281,
2026_07_06_15_21_37.151,3.865,29.9,0,0.758,0,0,0,0, ,0,0,0,0,0, ,-38.3,155,987.5,-0.5,-0.4,-1.8,25,-38.4159,155.992,988.275,-0.545161,-0.433909,-1.79325,
2026_07_06_15_21_37.173,3.865,29.8,0,0.758,0,0,0,0, ,0,0,0,0,0, ,-39.1,155,987.9,-0.5,-0.4,-1.8,25,-38.4332,155.931,988.24,-0.542409,-0.431843,-1.79366,
2026_07_06_15_21_37.190,3.865,29.9,0,0.76,0,0,0,0, ,0,0,0,0,0, ,-38.3,156.2,989,-0.4,-0.4,-1.8,25,-38.4495,155.911,988.253,-0.536778,-0.429902,-1.79405,
2026_07_06_15_21_37.212,3.865,29.9,0,0.76,0,0,0,0, ,0,0,0,0,0, ,-37.9,156.9,988.8,-0.4,-0.5,-1.8,25,-38.4282,155.95,988.292,-0.528443,-0.431127,-1.79441,
2026_07_06_15_21_37.231,3.865,29.8,0,0.76,0,0,0,0, ,0,0,0,0,0, ,-37.8,157.5,988.1,-0.5,-0.4,-1.7,25,-38.3929,156.026,988.302,-0.523663,-0.432277,-1.79171,
2026_07_06_15_21_37.254,3.865,29.9,0,0.76,0,0,0,0, ,0,0,0,0,0, ,-39.4,157.5,988,-0.5,-0.5,-1.8,25,-38.4055,156.116,988.286,-0.522221,-0.433357,-1.78916,
2026_07_06_15_21_37.270,3.865,29.8,0,0.76,0,0,0,0, ,0,0,0,0,0, ,-38.4,157.3,988,-0.5,-0.5,-1.8,25,-38.4357,156.194,988.269,-0.520867,-0.437418,-1.78982,
2026_07_06_15_21_37.291,3.865,29.9,0,0.758,0,0,0,0, ,0,0,0,0,0, ,-38.8,155.3,987.4,-0.5,-0.5,-1.8,25,-38.4457,156.201,988.234,-0.519595,-0.441232,-1.79044,
2026_07_06_15_21_37.310,3.865,29.9,0,0.758,0,0,0,0, ,0,0,0,0,0, ,-37.9,157.1,986.9,-0.6,-0.4,-1.8,25,-38.4399,156.201,988.168,-0.521448,-0.441766,-1.79103,
2026_07_06_15_21_37.331,3.865,29.8,0,0.758,0,0,0,0, ,0,0,0,0,0, ,-39.4,155.3,989.8,-0.5,-0.4,-1.8,25,-38.4527,156.201,988.179,-0.523188,-0.439221,-1.79157,
2026_07_06_15_21_37.351,3.865,29.9,0,0.758,0,0,0,0, ,0,0,0,0,0, ,-39,155.8,987.7,-0.5,-0.4,-1.8,25,-38.4982,156.161,988.214,-0.521775,-0.436831,-1.79209,
2026_07_06_15_21_37.374,3.865,29.8,0,0.758,0,0,0,0, ,0,0,0,0,0, ,-37.2,156.6,988.8,-0.4,-0.3,-1.8,25,-38.4739,156.163,988.216,-0.517401,-0.43154,-1.79257,
2026_07_06_15_21_37.389,3.865,29.9,0,0.76,0,0,0,0, ,0,0,0,0,0, ,-38.2,156.2,988,-0.6,-0.5,-1.8,25,-38.4268,156.178,988.227,-0.516341,-0.429618,-1.79302,
2026_07_06_15_21_37.411,3.865,29.8,0,0.76,0,0,0,0, ,0,0,0,0,0, ,-39.5,156.8,989.5,-0.5,-0.4,-1.8,25,-38.4526,156.197,988.259,-0.518392,-0.43086,-1.79345,
2026_07_06_15_21_37.428,3.865,29.9,0,0.76,0,0,0,0, ,0,0,0,0,0, ,-37.3,156.7,986.5,-0.5,-0.4,-1.8,25,-38.4494,156.231,988.244,-0.517271,-0.428979,-1.79385,
2026_07_06_15_21_37.451,3.865,29.8,0,0.76,0,0,0,0, ,0,0,0,0,0, ,-38.2,158.3,987,-0.5,-0.4,-1.8,25,-38.4067,156.308,988.153,-0.516219,-0.427213,-1.79422,
2026_07_06_15_21_37.468,3.865,29.9,0,0.758,0,0,0,0, ,0,0,0,0,0, ,-39.3,156.8,987.4,-0.5,-0.4,-1.8,25,-38.4277,156.384,988.094,-0.51523,-0.425555,-1.79457,
2026_07_06_15_21_37.490,3.865,29.8,0,0.76,0,0,0,0, ,0,0,0,0,0, ,-38.5,155.2,988.8,-0.5,-0.4,-1.7,25,-38.4564,156.361,988.095,-0.514302,-0.423998,-1.79186,
2026_07_06_15_21_37.508,3.865,29.9,0,0.757,0,0,0,0, ,0,0,0,0,0, ,-38.8,156.2,987.3,-0.5,-0.4,-1.8,25,-38.4682,156.32,988.092,-0.513431,-0.422535,-1.78931,
2026_07_06_15_21_37.532,3.865,29.8,0,0.758,0,0,0,0, ,0,0,0,0,0, ,-39,156.7,988.6,-0.5,-0.4,-1.7,25,-38.4946,156.328,988.083,-0.512612,-0.421162,-1.78691,
2026_07_06_15_21_37.547,3.865,29.9,0,0.758,0,0,0,0, ,0,0,0,0,0, ,-38.6,157.5,987.3,-0.6,-0.5,-1.8,25,-38.5132,156.375,988.075,-0.514891,-0.422919,-1.78466,
2026_07_06_15_21_37.570,3.865,29.9,0,0.759,0,0,0,0, ,0,0,0,0,0, ,-38.3,156.3,989.6,-0.6,-0.4,-1.8,25,-38.5093,156.407,988.098,-0.520077,-0.42457,-1.7856,
2026_07_06_15_21_37.587,3.865,29.9,0,0.758,0,0,0,0, ,0,0,0,0,0, ,-39.5,156.2,986.9,-0.5,-0.4,-1.8,25,-38.5331,156.398,988.107,-0.5219,-0.423072,-1.78647,
2026_07_06_15_21_37.609,3.865,29.9,0,0.758,0,0,0,0, ,0,0,0,0,0, ,-38,155.5,988.7,-0.6,-0.3,-1.8,25,-38.5463,156.364,988.089,-0.523613,-0.41862,-1.7873,
2026_07_06_15_21_37.630,3.865,29.9,0,0.761,0,0,0,0, ,0,0,0,0,0, ,-38.2,155.7,989.1,-0.6,-0.4,-1.9,25,-38.5191,156.318,988.138,-0.528268,-0.414438,-1.79112,
2026_07_06_15_21_37.652,3.865,29.9,0,0.756,0,0,0,0, ,0,0,0,0,0, ,-37.5,156.7,987.5,-0.5,-0.5,-1.8,25,-38.4784,156.311,988.148,-0.529592,-0.416605,-1.79471,
2026_07_06_15_21_37.667,3.865,29.9,0,0.761,0,0,0,0, ,0,0,0,0,0, ,-37.8,155.7,988.1,-0.5,-0.4,-1.8,25,-38.4279,156.304,988.127,-0.527789,-0.41864,-1.79503,
2026_07_06_15_21_37.689,3.865,29.8,0,0.758,0,0,0,0, ,0,0,0,0,0, ,-37.8,156.2,987.7,-0.6,-0.5,-1.8,25,-38.3896,156.282,988.113,-0.529142,-0.420551,-1.79533,
2026_07_06_15_21_37.706,3.865,29.8,0,0.758,0,0,0,0, ,0,0,0,0,0, ,-38.2,155.2,988.6,-0.6,-0.4,-1.8,25,-38.3659,156.247,988.115,-0.53346,-0.422346,-1.79562,
2026_07_06_15_21_37.729,3.865,29.8,0,0.757,0,0,0,0, ,0,0,0,0,0, ,-39.3,155.5,988.7,-0.6,-0.4,-1.8,25,-38.3893,156.192,988.148,-0.537515,-0.420984,-1.79588,
2026_07_06_15_21_37.745,3.865,29.8,0,0.758,0,0,0,0, ,0,0,0,0,0, ,-39.4,154.7,987.5,-0.5,-0.5,-1.8,25,-38.4478,156.126,988.145,-0.538276,-0.422752,-1.79614,
2026_07_06_15_21_37.767,3.865,29.8,0,0.76,0,0,0,0, ,0,0,0,0,0, ,-37.7,156.6,986.4,-0.5,-0.4,-1.8,25,-38.4541,156.097,988.072,-0.535943,-0.424413,-1.79637,
2026_07_06_15_21_37.785,3.865,29.8,0,0.758,0,0,0,0, ,0,0,0,0,0, ,-36.8,156.6,987.7,-0.5,-0.4,-1.8,25,-38.3807,156.127,988.01,-0.533753,-0.422925,-1.79659,
2026_07_06_15_21_37.807,3.865,29.8,0,0.758,0,0,0,0, ,0,0,0,0,0, ,-37.9,155.3,987.9,-0.5,-0.4,-1.9,25,-38.3179,156.116,987.997,-0.531696,-0.421528,-1.79985,
2026_07_06_15_21_37.825,3.865,29.8,0,0.758,0,0,0,0, ,0,0,0,0,0, ,-38.8,156.4,988.6,-0.5,-0.4,-1.8,25,-38.3198,156.1,988.012,-0.529765,-0.420216,-1.8029,
2026_07_06_15_21_37.846,3.865,29.8,0,0.757,0,0,0,0, ,0,0,0,0,0, ,-38.4,156.6,987.5,-0.6,-0.4,-1.8,25,-38.3369,156.125,988.015,-0.530998,-0.418984,-1.80273,
2026_07_06_15_21_37.866,3.865,29.8,0,0.76,0,0,0,0, ,0,0,0,0,0, ,-39.5,154.6,988.4,-0.5,-0.4,-1.8,25,-38.3743,156.093,988.011,-0.532156,-0.417827,-1.80256,
2026_07_06_15_21_37.888,3.865,29.8,0,0.758,0,0,0,0, ,0,0,0,0,0, ,-38.2,157.2,989.1,-0.5,-0.5,-1.8,25,-38.4033,156.081,988.056,-0.530196,-0.419788,-1.8024,
2026_07_06_15_21_37.910,3.865,29.8,0,0.758,0,0,0,0, ,0,0,0,0,0, ,-38.9,154.7,989,-0.5,-0.4,-1.9,25,-38.4122,156.073,988.116,-0.528356,-0.421629,-1.8053,
2026_07_06_15_21_37.934,3.865,29.9,0,0.757,0,0,0,0, ,0,0,0,0,0, ,-37.5,156.4,986.9,-0.5,-0.5,-1.9,25,-38.3993,156.041,988.106,-0.526628,-0.423358,-1.81107,
2026_07_06_15_21_37.944,3.865,29.8,0,0.76,0,0,0,0, ,0,0,0,0,0, ,-39.1,157.4,989.8,-0.5,-0.4,-1.8,25,-38.3932,156.093,988.121,-0.525006,-0.424981,-1.81345,
2026_07_06_15_21_37.966,3.865,29.9,0,0.757,0,0,0,0, ,0,0,0,0,0, ,-38.2,156.1,987.7,-0.6,-0.4,-1.9,25,-38.4089,156.133,988.159,-0.526529,-0.423459,-1.81567,
2026_07_06_15_21_37.984,3.865,29.7,0,0.758,0,0,0,0, ,0,0,0,0,0, ,-39.1,155.7,989.2,-0.7,-0.4,-1.9,25,-38.4236,156.119,988.177,-0.534053,-0.422029,-1.82081,
2026_07_06_15_21_38.007,3.865,29.8,0,0.758,0,0,0,0.001, ,0,0,0,0,0, ,-38.2,156.3,988.8,-0.6,-0.4,-1.8,25,-38.4374,156.112,988.227,-0.541118,-0.420687,-1.82259,
2026_07_06_15_21_38.024,3.865,29.9,0,0.758,0,0,0,0, ,0,0,0,0,0, ,-36.8,156.8,989.7,-0.6,-0.4,-1.8,25,-38.3802,156.139,988.29,-0.544706,-0.419426,-1.82121,
2026_07_06_15_21_38.046,3.865,29.8,0,0.758,0,0,0,0, ,0,0,0,0,0, ,-39.9,156.2,987.6,-0.6,-0.4,-1.9,25,-38.3784,156.161,988.312,-0.548076,-0.418243,-1.82297,
2026_07_06_15_21_38.063,3.865,29.8,0,0.758,0,0,0,0, ,0,0,0,0,0, ,-38.5,155.5,988,-0.6,-0.4,-1.8,25,-38.4285,156.142,988.28,-0.55124,-0.417131,-1.82462,
2026_07_06_15_21_38.085,3.865,29.8,0,0.758,0,0,0,0, ,0,0,0,0,0, ,-38.5,156.7,989.3,-0.5,-0.5,-1.9,25,-38.4328,156.139,988.303,-0.551164,-0.419134,-1.82616,
2026_07_06_15_21_38.102,3.865,29.8,0,0.759,0,0,0,0, ,0,0,0,0,0, ,-38.2,157.1,988.6,-0.6,-0.5,-1.8,25,-38.4278,156.186,988.342,-0.551093,-0.424062,-1.82762,
2026_07_06_15_21_38.124,3.865,29.8,0,0.758,0,0,0,0, ,0,0,0,0,0, ,-38.8,155.3,986.9,-0.6,-0.4,-1.8,25,-38.4322,156.186,988.306,-0.554074,-0.425642,-1.82593,
2026_07_06_15_21_38.143,3.865,29.8,0,0.76,0,0,0,0, ,0,0,0,0,0, ,-38.3,157.1,988,-0.6,-0.5,-1.9,25,-38.4394,156.187,988.254,-0.556872,-0.427127,-1.8274,
2026_07_06_15_21_38.164,3.865,29.8,0,0.76,0,0,0,0, ,0,0,0,0,0, ,-37.7,157.2,988.1,-0.5,-0.5,-1.8,25,-38.4126,156.246,988.242,-0.556454,-0.431567,-1.82878,
2026_07_06_15_21_38.182,3.865,29.8,0,0.758,0,0,0,0, ,0,0,0,0,0, ,-37.9,156.3,987.7,-0.6,-0.4,-1.8,25,-38.3753,156.277,988.221,-0.55606,-0.432691,-1.82702,
2026_07_06_15_21_38.210,3.865,29.8,0,0.758,0,0,0,0, ,0,0,0,0,0, ,-38.6,157.7,986.9,-0.6,-0.4,-1.8,25,-38.3676,156.321,988.165,-0.558738,-0.430698,-1.82538,
2026_07_06_15_21_38.221,3.865,29.9,0,0.757,0,0,0,0, ,0,0,0,0,0, ,-39.6,155.8,987.4,-0.6,-0.4,-1.7,25,-38.4123,156.347,988.103,-0.561252,-0.428828,-1.82078,
2026_07_06_15_21_38.244,3.865,29.8,0,0.761,0,0,0,0, ,0,0,0,0,0, ,-40,157.2,989.2,-0.5,-0.4,-1.7,25,-38.4968,156.356,988.115,-0.560567,-0.427071,-1.81342,
2026_07_06_15_21_38.261,3.865,29.8,0,0.761,0,0,0,0, ,0,0,0,0,0, ,-38.9,156.8,987.4,-0.5,-0.4,-1.8,25,-38.5549,156.395,988.126,-0.556876,-0.425421,-1.80956,
2026_07_06_15_21_38.283,3.865,29.8,0,0.758,0,0,0,0, ,0,0,0,0,0, ,-38.8,156.9,988.5,-0.6,-0.4,-1.7,25,-38.5729,156.423,988.115,-0.556457,-0.423872,-1.80593,
2026_07_06_15_21_38.301,3.865,29.8,0,0.758,0,0,0,0, ,0,0,0,0,0, ,-37.5,156.2,988,-0.5,-0.5,-1.7,25,-38.5471,156.431,988.124,-0.556063,-0.425464,-1.79947,
2026_07_06_15_21_38.323,3.865,29.8,0,0.758,0,0,0,0, ,0,0,0,0,0, ,-37.3,155.6,989.1,-0.6,-0.4,-1.7,25,-38.4772,156.399,988.15,-0.555694,-0.42696,-1.79341,
2026_07_06_15_21_38.340,3.865,29.9,0,0.757,0,0,0,0, ,0,0,0,0,0, ,-38.8,155.7,988,-0.6,-0.4,-1.8,25,-38.4512,156.353,988.174,-0.558394,-0.425317,-1.79077,
2026_07_06_15_21_38.362,3.865,29.7,0,0.757,0,0,0,0, ,0,0,0,0,0, ,-37.9,155.5,988.1,-0.5,-0.4,-1.8,25,-38.445,156.307,988.166,-0.557882,-0.423774,-1.79133,
2026_07_06_15_21_38.379,3.865,29.7,0,0.76,0,0,0,0.001, ,0,0,0,0,0, ,-38.5,155.1,988.2,-0.5,-0.4,-1.8,25,-38.4301,156.246,988.165,-0.554355,-0.422325,-1.79186,
2026_07_06_15_21_38.402,3.865,29.7,0,0.757,0,0,0,0.001, ,0,0,0,0,0, ,-37.8,156.2,987.1,-0.5,-0.5,-1.8,25,-38.413,156.209,988.134,-0.551043,-0.424012,-1.79235,
2026_07_06_15_21_38.419,3.865,29.9,0,0.758,0,0,0,0.001, ,0,0,0,0,0, ,-38.3,155.7,987.7,-0.6,-0.4,-1.8,25,-38.3909,156.194,988.089,-0.550979,-0.425595,-1.79282,
2026_07_06_15_21_38.442,3.865,29.7,0,0.757,0,0,0,0, ,0,0,0,0,0, ,-38.2,156.1,988.7,-0.6,-0.4,-1.8,25,-38.3823,156.176,988.096,-0.553966,-0.424036,-1.79326,
2026_07_06_15_21_38.459,3.865,29.7,0,0.758,0,0,0,0.001, ,0,0,0,0,0, ,-39.1,155.5,987.7,-0.6,-0.4,-1.8,25,-38.3986,156.153,988.102,-0.556772,-0.422571,-1.79367,
2026_07_06_15_21_38.481,3.865,29.8,0,0.758,0,0,0,0.001, ,0,0,0,0,0, ,-37.8,155.3,989.2,-0.6,-0.4,-1.8,25,-38.4018,156.107,988.124,-0.559406,-0.421196,-1.79405,
2026_07_06_15_21_38.499,3.865,29.8,0,0.76,0,0,0,0.001, ,0,0,0,0,0, ,-38.4,155.5,989,-0.5,-0.4,-1.8,25,-38.3834,156.064,988.183,-0.558833,-0.419904,-1.79442,
2026_07_06_15_21_38.521,3.865,29.7,0,0.758,0,0,0,0.001, ,0,0,0,0,0, ,-38.3,155.5,989.1,-0.6,-0.3,-1.8,25,-38.3813,156.029,988.236,-0.558294,-0.415644,-1.79476,
2026_07_06_15_21_38.538,3.865,29.7,0,0.758,0,0,0,0.001, ,0,0,0,0,0, ,-37.5,158.2,987.6,-0.5,-0.4,-1.7,25,-38.352,156.079,988.243,-0.557789,-0.411644,-1.79203,
2026_07_06_15_21_38.561,3.865,29.7,0,0.76,0,0,0,0.001, ,0,0,0,0,0, ,-39.6,157.1,988.4,-0.5,-0.4,-1.8,25,-38.3641,156.175,988.228,-0.554267,-0.410934,-1.78947,
2026_07_06_15_21_38.578,3.865,29.8,0,0.758,0,0,0,0.001, ,0,0,0,0,0, ,-39.3,156.8,989.5,-0.6,-0.5,-1.8,25,-38.4302,156.222,988.272,-0.554007,-0.413315,-1.79011,
2026_07_06_15_21_38.602,3.865,29.8,0,0.758,0,0,0,0.001, ,0,0,0,0,0, ,-39,156.6,988,-0.5,-0.4,-1.8,25,-38.4741,156.251,988.301,-0.553763,-0.415551,-1.79071,
2026_07_06_15_21_38.617,3.865,29.8,0,0.758,0,0,0,0.001, ,0,0,0,0,0, ,-38.2,156.4,988.2,-0.5,-0.4,-1.9,25,-38.4818,156.267,988.289,-0.550487,-0.414603,-1.79433,
2026_07_06_15_21_38.640,3.865,29.8,0,0.759,0,0,0,0.001, ,0,0,0,0,0, ,-39,155.8,988.8,-0.5,-0.5,-1.8,25,-38.489,156.256,988.302,-0.54741,-0.41676,-1.79772,
2026_07_06_15_21_38.657,3.865,29.8,0,0.758,0,0,0,0.001, ,0,0,0,0,0, ,-37.9,155.3,988.7,-0.5,-0.4,-1.8,25,-38.4866,156.213,988.329,-0.544521,-0.418785,-1.79786,
2026_07_06_15_21_38.681,3.865,29.7,0,0.758,0,0,0,0.001, ,0,0,0,0,0, ,-37.7,155.5,989.1,-0.5,-0.4,-1.9,25,-38.4448,156.164,988.364,-0.541808,-0.417641,-1.80103,
2026_07_06_15_21_38.697,3.865,29.6,0,0.757,0,0,0,0.002, ,0,0,0,0,0, ,-38.5,156.6,988.1,-0.5,-0.4,-1.8,25,-38.4238,156.157,988.378,-0.539261,-0.416566,-1.80402,
2026_07_06_15_21_38.720,3.865,29.8,0,0.758,0,0,0,0.002, ,0,0,0,0,0, ,-38.3,156.9,987.3,-0.6,-0.4,-1.8,25,-38.4223,156.193,988.337,-0.539915,-0.415556,-1.80377,
2026_07_06_15_21_38.737,3.865,29.7,0,0.757,0,0,0,0.001, ,0,0,0,0,0, ,-39.6,156.8,988.5,-0.6,-0.4,-1.8,25,-38.4545,156.233,988.31,-0.543577,-0.414608,-1.80354,
2026_07_06_15_21_38.760,3.865,29.8,0,0.757,0,0,0,0.002, ,0,0,0,0,0, ,-37.2,156.7,989,-0.6,-0.4,-1.8,25,-38.4511,156.265,988.337,-0.547015,-0.413718,-1.80333,
2026_07_06_15_21_38.779,3.865,29.7,0,0.759,0,0,0,0.001, ,0,0,0,0,0, ,-38.6,156.4,989.3,-0.5,-0.5,-1.7,25,-38.4176,156.282,988.387,-0.547197,-0.415929,-1.80008,
2026_07_06_15_21_38.803,3.865,29.7,0,0.757,0,0,0,0.002, ,0,0,0,0,0, ,-41,156.1,988.1,-0.6,-0.4,-1.8,25,-38.5018,156.28,988.406,-0.547368,-0.418005,-1.79703,
2026_07_06_15_21_38.816,3.865,29.6,0,0.76,0,0,0,0.002, ,0,0,0,0,0, ,-37.8,155.3,988.1,-0.6,-0.4,-1.8,25,-38.5565,156.245,988.387,-0.550575,-0.416908,-1.79721,
2026_07_06_15_21_38.841,3.865,29.7,0,0.762,0,0,0,0.003, ,0,0,0,0,0, ,-38.2,156,987.6,-0.6,-0.4,-1.8,25,-38.5226,156.208,988.354,-0.553587,-0.415878,-1.79738,
2026_07_06_15_21_38.855,3.865,29.7,0,0.758,0,0,0,0.002, ,0,0,0,0,0, ,-38.8,154.4,988.5,-0.6,-0.5,-1.8,25,-38.5212,156.147,988.336,-0.556415,-0.417957,-1.79754,
2026_07_06_15_21_38.878,3.865,29.7,0,0.758,0,0,0,0.002, ,0,0,0,0,0, ,-38.9,157.2,988.7,-0.5,-0.5,-1.8,25,-38.5413,156.126,988.352,-0.556024,-0.422957,-1.79769,
2026_07_06_15_21_38.894,3.865,29.7,0,0.758,0,0,0,0.002, ,0,0,0,0,0, ,-39.1,154.5,987.5,-0.6,-0.4,-1.8,25,-38.5692,156.109,988.337,-0.555657,-0.424604,-1.79783,
2026_07_06_15_21_38.919,3.865,29.7,0,0.758,0,0,0,0.002, ,0,0,0,0,0, ,-37.9,155.8,988.5,-0.6,-0.4,-1.7,25,-38.565,156.051,988.316,-0.558359,-0.423105,-1.79491,
2026_07_06_15_21_38.934,3.865,29.7,0,0.76,0,0,0,0.002, ,0,0,0,0,0, ,-38.8,155.7,986.8,-0.6,-0.5,-1.9,25,-38.5519,156.032,988.275,-0.560897,-0.424744,-1.79522,
2026_07_06_15_21_38.960,3.865,29.7,0,0.758,0,0,0,0.002, ,0,0,0,0,0, ,-38.5,157.7,987.6,-0.5,-0.4,-1.8,25,-38.5579,156.073,988.21,-0.560233,-0.426283,-1.79856,
2026_07_06_15_21_38.974,3.865,29.7,0,0.761,0,0,0,0.002, ,0,0,0,0,0, ,-38.6,155.8,989.2,-0.6,-0.4,-1.8,25,-38.5574,156.114,988.222,-0.559609,-0.424681,-1.79865,
2026_07_06_15_21_38.998,3.865,29.7,0,0.758,0,0,0,0.002, ,0,0,0,0,0, ,-38.9,155.3,988,-0.6,-0.4,-1.8,25,-38.5691,156.08,988.245,-0.56207,-0.423177,-1.79873,
2026_07_06_15_21_39.013,3.865,29.7,0,0.757,0,0,0,0.002, ,0,0,0,0,0, ,-38.9,156.4,989.2,-0.6,-0.4,-1.8,25,-38.5893,156.066,988.266,-0.564382,-0.421765,-1.79881,
2026_07_06_15_21_39.037,3.865,29.6,0,0.76,0,0,0,0.002, ,0,0,0,0,0, ,-38.8,156,988.8,-0.5,-0.5,-1.8,25,-38.6052,156.074,988.311,-0.563505,-0.423486,-1.79888,
2026_07_06_15_21_39.052,3.865,29.7,0,0.758,0,0,0,0.003, ,0,0,0,0,0, ,-38.6,156.4,988.2,-0.5,-0.3,-1.9,25,-38.611,156.082,988.322,-0.559636,-0.422054,-1.802,
2026_07_06_15_21_39.077,3.865,29.8,0,0.758,0,0,0,0.002, ,0,0,0,0,0, ,-38.4,156.9,989.1,-0.5,-0.5,-1.8,25,-38.6042,156.116,988.342,-0.556001,-0.420711,-1.80492,
2026_07_06_15_21_39.092,3.865,29.7,0,0.759,0,0,0,0.001, ,0,0,0,0,0, ,-39.5,157.5,988.4,-0.5,-0.4,-1.8,25,-38.6253,156.182,988.367,-0.552589,-0.422495,-1.80462,
2026_07_06_15_21_39.117,3.865,29.6,0,0.76,0,0,0,0.002, ,0,0,0,0,0, ,-38.6,157.1,988.5,-0.5,-0.4,-1.8,25,-38.6512,156.25,988.372,-0.549384,-0.421125,-1.80434,
2026_07_06_15_21_39.133,3.865,29.7,0,0.76,0,0,0,0.003, ,0,0,0,0,0, ,-38.4,156.2,989.3,-0.5,-0.4,-1.8,25,-38.6419,156.275,988.404,-0.546375,-0.419837,-1.80408,
2026_07_06_15_21_39.157,3.865,29.7,0,0.76,0,0,0,0.002, ,0,0,0,0,0, ,-37.4,156.1,988.7,-0.6,-0.5,-1.8,25,-38.5967,156.267,988.441,-0.546596,-0.421675,-1.80383,
2026_07_06_15_21_39.171,3.865,29.7,0,0.759,0,0,0,0.002, ,0,0,0,0,0, ,-37.9,155,989.1,-0.5,-0.5,-1.8,25,-38.539,156.224,988.469,-0.546803,-0.426448,-1.80359,
2026_07_06_15_21_39.195,3.865,29.7,0,0.758,0,0,0,0.002, ,0,0,0,0,0, ,-39.3,155.3,988.2,-0.5,-0.4,-1.8,25,-38.5428,156.158,988.48,-0.543951,-0.427883,-1.80338,
2026_07_06_15_21_39.211,3.865,29.7,0,0.758,0,0,0,0.002, ,0,0,0,0,0, ,-38.9,156.9,989.3,-0.6,-0.4,-1.9,25,-38.5767,156.155,988.496,-0.54432,-0.426184,-1.80622,
2026_07_06_15_21_39.238,3.865,29.7,0,0.761,0,0,0,0.002, ,0,0,0,0,0, ,-38.8,156.7,988,-0.5,-0.3,-1.8,25,-38.5934,156.194,988.506,-0.544666,-0.421542,-1.80888,
2026_07_06_15_21_39.251,3.865,29.6,0,0.757,0,0,0,0.002, ,0,0,0,0,0, ,-37.7,155.6,988.1,-0.5,-0.5,-1.8,25,-38.5724,156.191,988.478,-0.541944,-0.420229,-1.80834,
2026_07_06_15_21_39.277,3.865,29.7,0,0.758,0,0,0,0.003, ,0,0,0,0,0, ,-38,155.7,988.5,-0.6,-0.5,-1.8,25,-38.5284,156.158,988.467,-0.542435,-0.42509,-1.80783,
2026_07_06_15_21_39.287,3.865,29.7,0,0.761,0,0,0,0.003, ,0,0,0,0,0, ,-38.3,156.8,987.7,-0.6,-0.5,-1.7,25,-38.5054,156.164,988.445,-0.545943,-0.429655,-1.80431,
2026_07_06_15_21_39.316,3.865,29.7,0,0.758,0,0,0,0.003, ,0,0,0,0,0, ,-38.5,156.6,987.7,-0.6,-0.5,-1.8,25,-38.4989,156.196,988.399,-0.549237,-0.433942,-1.801,
2026_07_06_15_21_39.330,3.865,29.7,0,0.758,0,0,0,0.003, ,0,0,0,0,0, ,-37.9,155.6,989.5,-0.5,-0.5,-1.8,25,-38.4807,156.191,988.412,-0.549283,-0.437967,-1.80094,
2026_07_06_15_21_39.356,3.865,29.7,0,0.76,0,0,0,0.003, ,0,0,0,0,0, ,-38.5,155.1,989.1,-0.5,-0.4,-1.8,25,-38.4636,156.139,988.466,-0.54628,-0.4387,-1.80088,
2026_07_06_15_21_39.370,3.865,29.6,0,0.758,0,0,0,0.003, ,0,0,0,0,0, ,-39.3,156.2,986.3,-0.5,-0.5,-1.8,25,-38.4902,156.11,988.419,-0.54346,-0.439389,-1.80083,
2026_07_06_15_21_39.394,3.865,29.7,0,0.759,0,0,0,0.003, ,0,0,0,0,0, ,-38.4,155.1,988.5,-0.5,-0.5,-1.7,25,-38.5121,156.082,988.357,-0.540812,-0.443082,-1.79773,
2026_07_06_15_21_39.409,3.865,29.7,0,0.76,0,0,0,0.003, ,0,0,0,0,0, ,-38.8,157.1,988.6,-0.5,-0.5,-1.8,25,-38.5175,156.083,988.369,-0.538325,-0.446551,-1.79482,
2026_07_06_15_21_39.435,3.865,29.7,0,0.76,0,0,0,0.003, ,0,0,0,0,0, ,-38.6,155.8,988.5,-0.5,-0.4,-1.8,25,-38.5286,156.105,988.38,-0.535989,-0.446761,-1.79514,
2026_07_06_15_21_39.449,3.865,29.7,0,0.76,0,0,0,0.003, ,0,0,0,0,0, ,-37.5,155.1,989.7,-0.5,-0.4,-1.8,25,-38.4994,156.065,988.424,-0.533796,-0.443911,-1.79543,
2026_07_06_15_21_39.475,3.865,29.7,0,0.76,0,0,0,0.003, ,0,0,0,0,0, ,-38.2,156,987.9,-0.6,-0.5,-1.8,25,-38.4599,156.034,988.447,-0.534784,-0.444282,-1.79571,
2026_07_06_15_21_39.491,3.865,29.7,0,0.761,0,0,0,0.003, ,0,0,0,0,0, ,-38,154.9,989,-0.5,-0.4,-1.8,25,-38.4379,155.998,988.447,-0.535711,-0.444631,-1.79597,
2026_07_06_15_21_39.517,3.865,29.7,0,0.76,0,0,0,0.003, ,0,0,0,0,0, ,-38.2,156.3,988.6,-0.5,-0.4,-1.8,25,-38.4173,155.974,988.468,-0.533535,-0.441911,-1.79622,
2026_07_06_15_21_39.528,3.865,29.7,0,0.76,0,0,0,0.003, ,0,0,0,0,0, ,-39.7,156.1,988.8,-0.5,-0.5,-1.8,25,-38.4498,155.988,988.482,-0.531491,-0.442404,-1.79645,
2026_07_06_15_21_39.555,3.865,29.7,0,0.758,0,0,0,0.003, ,0,0,0,0,0, ,-39.7,157.5,986.5,-0.5,-0.4,-1.8,25,-38.526,156.037,988.432,-0.529572,-0.442867,-1.79667,
2026_07_06_15_21_39.568,3.865,29.7,0,0.758,0,0,0,0.003, ,0,0,0,0,0, ,-38.9,155.1,987.5,-0.6,-0.5,-1.9,25,-38.5732,156.053,988.344,-0.530817,-0.443302,-1.79992,
2026_07_06_15_21_39.593,3.865,29.8,0,0.759,0,0,0,0.003, ,0,0,0,0,0, ,-37.9,156.8,988.5,-0.5,-0.5,-1.8,25,-38.5626,156.047,988.323,-0.531986,-0.446757,-1.80297,
2026_07_06_15_21_39.607,3.865,29.8,0,0.758,0,0,0,0.002, ,0,0,0,0,0, ,-39.7,156.8,989.1,-0.5,-0.4,-1.8,25,-38.5771,156.093,988.352,-0.530037,-0.446954,-1.80279,
2026_07_06_15_21_39.633,3.865,29.7,0,0.76,0,0,0,0.002, ,0,0,0,0,0, ,-37.9,154.4,988.5,-0.6,-0.4,-1.8,25,-38.5907,156.063,988.38,-0.531253,-0.444093,-1.80262,
2026_07_06_15_21_39.646,3.865,29.7,0,0.758,0,0,0,0.003, ,0,0,0,0,0, ,-38.6,155.3,989.2,-0.5,-0.5,-1.8,25,-38.5699,155.989,988.408,-0.532396,-0.444453,-1.80246,
2026_07_06_15_21_39.672,3.865,29.8,0,0.759,0,0,0,0.003, ,0,0,0,0,0, ,-37.5,156,989.2,-0.5,-0.5,-1.8,25,-38.5382,155.968,988.457,-0.530422,-0.447838,-1.80231,
2026_07_06_15_21_39.687,3.865,29.8,0,0.756,0,0,0,0.002, ,0,0,0,0,0, ,-38.5,156.9,988.6,-0.5,-0.5,-1.7,25,-38.5054,155.998,988.484,-0.528568,-0.451017,-1.79912,
2026_07_06_15_21_39.712,3.865,29.7,0,0.758,0,0,0,0.002, ,0,0,0,0,0, ,-39.6,156.1,989.6,-0.6,-0.4,-1.8,25,-38.5386,156.028,988.521,-0.529874,-0.450955,-1.79613,
2026_07_06_15_21_39.726,3.865,29.7,0,0.76,0,0,0,0.003, ,0,0,0,0,0, ,-38.3,156.2,988.5,-0.6,-0.4,-1.8,25,-38.5637,156.036,988.553,-0.534147,-0.44785,-1.79636,
2026_07_06_15_21_39.752,3.865,29.7,0,0.761,0,0,0,0.003, ,0,0,0,0,0, ,-39.9,156,986.3,-0.6,-0.4,-1.8,25,-38.5964,156.04,988.483,-0.53816,-0.444934,-1.79658,
2026_07_06_15_21_39.765,3.865,29.7,0,0.76,0,0,0,0.003, ,0,0,0,0,0, ,-38.9,156.2,987.4,-0.6,-0.4,-1.8,25,-38.6453,156.043,988.384,-0.541928,-0.442196,-1.79679,
2026_07_06_15_21_39.791,3.865,29.7,0,0.759,0,0,0,0.003, ,0,0,0,0,0, ,-39,157.5,987.1,-0.6,-0.5,-1.8,25,-38.6639,156.092,988.315,-0.545467,-0.442671,-1.79699,
2026_07_06_15_21_39.806,3.865,29.7,0,0.758,0,0,0,0.003, ,0,0,0,0,0, ,-38.5,157.1,987.9,-0.6,-0.4,-1.8,25,-38.6691,156.166,988.265,-0.54879,-0.443118,-1.79717,
2026_07_06_15_21_39.835,3.865,29.8,0,0.758,0,0,0,0.003, ,0,0,0,0,0, ,-38.6,155.7,989.8,-0.6,-0.3,-1.8,25,-38.6619,156.18,988.301,-0.551911,-0.437443,-1.79734,
2026_07_06_15_21_39.845,3.865,29.7,0,0.76,0,0,0,0.003, ,0,0,0,0,0, ,-39,156.1,988.4,-0.7,-0.5,-1.8,25,-38.6703,156.163,988.349,-0.557888,-0.435162,-1.79751,
2026_07_06_15_21_39.872,3.865,29.7,0,0.758,0,0,0,0.003, ,0,0,0,0,0, ,-38.4,155.6,988,-0.5,-0.5,-1.8,25,-38.6721,156.144,988.34,-0.560454,-0.439113,-1.79766,
2026_07_06_15_21_39.885,3.865,29.7,0,0.758,0,0,0,0.003, ,0,0,0,0,0, ,-39,156.8,988.2,-0.5,-0.4,-1.8,25,-38.6738,156.147,988.326,-0.55677,-0.439776,-1.7978,
2026_07_06_15_21_39.911,3.865,29.7,0,0.758,0,0,0,0.003, ,0,0,0,0,0, ,-38.5,157.5,986.9,-0.6,-0.4,-1.8,25,-38.6784,156.209,988.278,-0.556358,-0.437352,-1.79793,
2026_07_06_15_21_39.924,3.865,29.7,0,0.758,0,0,0,0.003, ,0,0,0,0,0, ,-37.9,156,988.1,-0.6,-0.4,-1.9,25,-38.6493,156.242,988.231,-0.559017,-0.435076,-1.80111,
2026_07_06_15_21_39.949,3.865,29.7,0,0.758,0,0,0,0.003, ,0,0,0,0,0, ,-37.9,154.9,987.9,-0.4,-0.4,-1.8,25,-38.6036,156.193,988.217,-0.555421,-0.432939,-1.80409,
2026_07_06_15_21_39.964,3.865,29.7,0,0.758,0,0,0,0.003, ,0,0,0,0,0, ,-37.9,156.4,987.3,-0.5,-0.4,-1.8,25,-38.5608,156.16,988.179,-0.548997,-0.430932,-1.80384,
2026_07_06_15_21_39.989,3.865,29.7,0,0.758,0,0,0,0.004, ,0,0,0,0,0, ,-37.7,156.3,986.4,-0.5,-0.5,-1.8,25,-38.5144,156.172,988.098,-0.546011,-0.432094,-1.8036,
2026_07_06_15_21_40.003,3.865,29.7,0,0.758,0,0,0,0.004, ,0,0,0,0,0, ,-38.5,155,989,-0.6,-0.4,-1.8,25,-38.4891,156.14,988.074,-0.546254,-0.433185,-1.80338,
2026_07_06_15_21_40.029,3.865,29.7,0,0.76,0,0,0,0.004, ,0,0,0,0,0, ,-38.9,155.3,989.1,-0.6,-0.4,-1.8,25,-38.502,156.08,988.133,-0.549529,-0.431163,-1.80318,
2026_07_06_15_21_40.043,3.865,29.7,0,0.758,0,0,0,0.004, ,0,0,0,0,0, ,-37.8,157.1,987.5,-0.6,-0.5,-1.8,25,-38.4927,156.087,988.144,-0.552605,-0.43231,-1.80298,
2026_07_06_15_21_40.067,3.865,29.7,0,0.759,0,0,0,0.004, ,0,0,0,0,0, ,-37.5,156.6,989.1,-0.6,-0.5,-1.8,25,-38.4414,156.133,988.153,-0.555493,-0.436435,-1.8028,
2026_07_06_15_21_40.083,3.865,29.7,0,0.758,0,0,0,0.004, ,0,0,0,0,0, ,-38.6,156.6,989.5,-0.6,-0.4,-1.8,25,-38.4175,156.162,988.223,-0.558205,-0.437262,-1.80263,
2026_07_06_15_21_40.108,3.865,29.7,0,0.757,0,0,0,0.004, ,0,0,0,0,0, ,-38.3,155.7,988.4,-0.6,-0.4,-1.8,25,-38.4195,156.161,988.267,-0.560752,-0.434991,-1.80247,
2026_07_06_15_21_40.122,3.865,29.8,0,0.76,0,0,0,0.004, ,0,0,0,0,0, ,-39,156.8,988.7,-0.6,-0.4,-1.8,25,-38.4336,156.167,988.285,-0.563144,-0.432859,-1.80232,
2026_07_06_15_21_40.148,3.865,29.7,0,0.758,0,0,0,0.003, ,0,0,0,0,0, ,-37.8,156.2,988.2,-0.5,-0.4,-1.8,25,-38.4315,156.187,988.295,-0.562343,-0.430857,-1.80218,
2026_07_06_15_21_40.162,3.865,29.7,0,0.758,0,0,0,0.004, ,0,0,0,0,0, ,-38,156,987.4,-0.6,-0.5,-1.9,25,-38.3991,156.182,988.264,-0.561591,-0.432023,-1.80509,
2026_07_06_15_21_40.188,3.865,29.7,0,0.758,0,0,0,0.004, ,0,0,0,0,0, ,-39,156.9,988.4,-0.5,-0.5,-1.8,25,-38.4053,156.198,988.242,-0.560884,-0.436165,-1.80783,
2026_07_06_15_21_40.202,3.865,29.8,0,0.759,0,0,0,0.004, ,0,0,0,0,0, ,-38,156.8,988.7,-0.6,-0.4,-1.8,25,-38.411,156.238,988.261,-0.560221,-0.437009,-1.80735,
2026_07_06_15_21_40.227,3.865,29.6,0,0.758,0,0,0,0.003, ,0,0,0,0,0, ,-38.6,156.6,988.8,-0.5,-0.5,-1.7,25,-38.4043,156.266,988.291,-0.559598,-0.4378,-1.80386,
2026_07_06_15_21_40.242,3.865,29.7,0,0.758,0,0,0,0.005, ,0,0,0,0,0, ,-38,155.2,988.4,-0.7,-0.3,-1.8,25,-38.3979,156.244,988.31,-0.56206,-0.435497,-1.80058,
2026_07_06_15_21_40.269,3.865,29.7,0,0.759,0,0,0,0.004, ,0,0,0,0,0, ,-37.9,155.1,989,-0.6,-0.4,-1.7,25,-38.3706,156.177,988.333,-0.567419,-0.430287,-1.79749,
2026_07_06_15_21_40.281,3.865,29.7,0,0.758,0,0,0,0.004, ,0,0,0,0,0, ,-39.4,155.6,988.2,-0.6,-0.4,-1.8,25,-38.3876,156.127,988.35,-0.569404,-0.428441,-1.7946,
2026_07_06_15_21_40.307,3.865,29.7,0,0.758,0,0,0,0.004, ,0,0,0,0,0, ,-37.9,156.4,988.5,-0.5,-0.3,-1.7,25,-38.4036,156.119,988.35,-0.568222,-0.423661,-1.79188,
2026_07_06_15_21_40.320,3.865,29.7,0,0.758,0,0,0,0.004, ,0,0,0,0,0, ,-38.2,155.8,988.2,-0.6,-0.4,-1.8,25,-38.3821,156.118,988.35,-0.567112,-0.419172,-1.78933,
2026_07_06_15_21_40.346,3.865,29.7,0,0.758,0,0,0,0.004, ,0,0,0,0,0, ,-37.9,156,988.6,-0.6,-0.4,-1.8,25,-38.3618,156.104,988.353,-0.569116,-0.418004,-1.78998,
2026_07_06_15_21_40.360,3.865,29.7,0,0.76,0,0,0,0.004, ,0,0,0,0,0, ,-39.1,156.7,987.9,-0.5,-0.4,-1.7,25,-38.3703,156.119,988.347,-0.567951,-0.416907,-1.78754,
2026_07_06_15_21_40.386,3.865,29.7,0,0.761,0,0,0,0.004, ,0,0,0,0,0, ,-39.4,157.3,987.6,-0.6,-0.5,-1.8,25,-38.4239,156.173,988.31,-0.566857,-0.418924,-1.78526,
2026_07_06_15_21_40.399,3.865,29.7,0,0.758,0,0,0,0.004, ,0,0,0,0,0, ,-38.9,156.3,988.5,-0.5,-0.4,-1.8,25,-38.4681,156.211,988.294,-0.56583,-0.420817,-1.78615,
2026_07_06_15_21_40.426,3.865,29.8,0,0.758,0,0,0,0.004, ,0,0,0,0,0, ,-38.9,155.1,989.1,-0.4,-0.5,-1.7,25,-38.4944,156.18,988.325,-0.558771,-0.422596,-1.78395,
2026_07_06_15_21_40.439,3.865,29.8,0,0.758,0,0,0,0.003, ,0,0,0,0,0, ,-38.6,155.3,987.7,-0.4,-0.4,-1.8,25,-38.51,156.12,988.33,-0.549096,-0.424266,-1.78188,
2026_07_06_15_21_40.468,3.865,29.7,0,0.758,0,0,0,0.003, ,0,0,0,0,0, ,-38.2,157.2,988.4,-0.4,-0.4,-1.8,25,-38.5033,156.128,988.313,-0.540011,-0.422787,-1.78299,
2026_07_06_15_21_40.479,3.865,29.7,0,0.76,0,0,0,0.004, ,0,0,0,0,0, ,-38.3,157.3,988.4,-0.5,-0.5,-1.8,25,-38.4879,156.197,988.318,-0.534526,-0.424445,-1.78402,
2026_07_06_15_21_40.506,3.865,29.7,0,0.758,0,0,0,0.004, ,0,0,0,0,0, ,-38.6,157.2,988.6,-0.6,-0.4,-1.8,25,-38.4856,156.261,988.329,-0.535469,-0.426002,-1.785,
2026_07_06_15_21_40.518,3.865,29.7,0,0.758,0,0,0,0.004, ,0,0,0,0,0, ,-39,156.3,988.6,-0.7,-0.5,-1.8,25,-38.5047,156.291,988.346,-0.542448,-0.427465,-1.78591,
2026_07_06_15_21_40.545,3.865,29.8,0,0.757,0,0,0,0.004, ,0,0,0,0,0, ,-38.3,155.3,987.9,-0.5,-0.4,-1.9,25,-38.5136,156.261,988.34,-0.545955,-0.428838,-1.78982,
2026_07_06_15_21_40.558,3.865,29.7,0,0.759,0,0,0,0.004, ,0,0,0,0,0, ,-38.4,155.5,990.2,-0.6,-0.4,-1.8,25,-38.5036,156.208,988.383,-0.546201,-0.427081,-1.79348,
2026_07_06_15_21_40.583,3.865,29.7,0,0.758,0,0,0,0.004, ,0,0,0,0,0, ,-39,156.6,987.9,-0.6,-0.4,-1.8,25,-38.5156,156.199,988.424,-0.54948,-0.42543,-1.79388,
2026_07_06_15_21_40.597,3.865,29.7,0,0.757,0,0,0,0.004, ,0,0,0,0,0, ,-39.1,155,989.1,-0.6,-0.3,-1.8,25,-38.5481,156.174,988.428,-0.552558,-0.420834,-1.79425,
2026_07_06_15_21_40.623,3.865,29.7,0,0.758,0,0,0,0.004, ,0,0,0,0,0, ,-38.2,155.5,989,-0.6,-0.4,-1.8,25,-38.5544,156.118,988.466,-0.555449,-0.416518,-1.7946,
2026_07_06_15_21_40.637,3.865,29.7,0,0.758,0,0,0,0.004, ,0,0,0,0,0, ,-38,155.8,989.3,-0.6,-0.4,-1.8,25,-38.5267,156.09,988.508,-0.558164,-0.415511,-1.79493,
2026_07_06_15_21_40.663,3.865,29.8,0,0.758,0,0,0,0.004, ,0,0,0,0,0, ,-39.6,155.6,989.3,-0.5,-0.5,-1.7,25,-38.5433,156.066,988.556,-0.557667,-0.417613,-1.79219,
2026_07_06_15_21_40.676,3.865,29.7,0,0.759,0,0,0,0.004, ,0,0,0,0,0, ,-40,156.1,989.6,-0.5,-0.5,-1.8,25,-38.6199,156.053,988.611,-0.554153,-0.422633,-1.78962,
2026_07_06_15_21_40.702,3.865,29.8,0,0.758,0,0,0,0.005, ,0,0,0,0,0, ,-37.9,157.4,988.6,-0.6,-0.5,-1.8,25,-38.64,156.095,988.64,-0.5539,-0.427348,-1.79026,
2026_07_06_15_21_40.715,3.865,29.8,0,0.758,0,0,0,0.004, ,0,0,0,0,0, ,-37.8,154.7,987.5,-0.5,-0.4,-1.7,25,-38.5919,156.092,988.604,-0.553662,-0.428728,-1.7878,
2026_07_06_15_21_40.744,3.865,29.7,0,0.76,0,0,0,0.004, ,0,0,0,0,0, ,-38.3,157.3,988.2,-0.6,-0.4,-1.7,25,-38.5589,156.087,988.558,-0.553439,-0.426977,-1.78245,
2026_07_06_15_21_40.756,3.865,29.8,0,0.758,0,0,0,0.005, ,0,0,0,0,0, ,-38,155.7,988.6,-0.5,-0.4,-1.8,25,-38.5339,156.112,988.549,-0.553229,-0.425333,-1.78047,
2026_07_06_15_21_40.783,3.865,29.8,0,0.758,0,0,0,0.004, ,0,0,0,0,0, ,-37.4,155.7,989.6,-0.6,-0.5,-1.8,25,-38.4831,156.087,988.582,-0.553032,-0.426837,-1.78166,
2026_07_06_15_21_40.795,3.865,29.7,0,0.758,0,0,0,0.004, ,0,0,0,0,0, ,-38.3,156.7,987.7,-0.5,-0.4,-1.8,25,-38.4445,156.094,988.587,-0.552848,-0.428248,-1.78278,
2026_07_06_15_21_40.823,3.865,29.8,0,0.758,0,0,0,0.005, ,0,0,0,0,0, ,-38.8,156.7,987.7,-0.5,-0.5,-1.8,25,-38.451,156.131,988.533,-0.549627,-0.429574,-1.78383,
2026_07_06_15_21_40.835,3.865,29.8,0,0.757,0,0,0,0.004, ,0,0,0,0,0, ,-39.4,156.4,988.8,-0.5,-0.5,-1.8,25,-38.4905,156.156,988.515,-0.546603,-0.433865,-1.78482,
2026_07_06_15_21_40.861,3.865,29.8,0,0.758,0,0,0,0.004, ,0,0,0,0,0, ,-40,158.5,986.6,-0.5,-0.5,-1.8,25,-38.5642,156.235,988.466,-0.543763,-0.437895,-1.78574,
2026_07_06_15_21_40.875,3.865,29.7,0,0.758,0,0,0,0.004, ,0,0,0,0,0, ,-38,155.8,988,-0.6,-0.4,-1.7,25,-38.5908,156.291,988.395,-0.544143,-0.438633,-1.78356,
2026_07_06_15_21_40.901,3.865,29.7,0,0.758,0,0,0,0.005, ,0,0,0,0,0, ,-36.4,157.3,987.7,-0.5,-0.4,-1.8,25,-38.506,156.307,988.361,-0.5445,-0.436279,-1.78152,
2026_07_06_15_21_40.914,3.865,29.9,0,0.759,0,0,0,0.005, ,0,0,0,0,0, ,-37.7,156,988.5,-0.6,-0.4,-1.9,25,-38.4173,156.328,988.345,-0.544835,-0.434068,-1.78569,
2026_07_06_15_21_40.941,3.865,29.8,0,0.76,0,0,0,0.003, ,0,0,0,0,0, ,-39.4,155.2,988.1,-0.5,-0.4,-1.8,25,-38.4254,156.283,988.343,-0.54515,-0.431992,-1.78961,
2026_07_06_15_21_40.953,3.865,29.8,0,0.758,0,0,0,0.004, ,0,0,0,0,0, ,-38.9,159,989.3,-0.6,-0.4,-1.8,25,-38.4695,156.333,988.364,-0.545446,-0.430042,-1.79024,
2026_07_06_15_21_40.981,3.865,29.7,0,0.758,0,0,0,0.004, ,0,0,0,0,0, ,-37.7,156.7,988,-0.6,-0.3,-1.8,25,-38.4592,156.425,988.382,-0.54877,-0.425165,-1.79084,
2026_07_06_15_21_40.993,3.865,29.7,0,0.758,0,0,0,0.005, ,0,0,0,0,0, ,-39.6,156.6,987.9,-0.5,-0.4,-1.8,25,-38.4708,156.439,988.356,-0.548845,-0.420585,-1.7914,
2026_07_06_15_21_41.026,3.865,29.8,0,0.758,0,0,0,0.005, ,0,0,0,0,0, ,-38,156.6,989.1,-0.5,-0.4,-1.8,25,-38.4909,156.449,988.364,-0.545868,-0.41933,-1.79192,
2026_07_06_15_21_41.033,3.865,29.7,0,0.758,0,0,0,0.004, ,0,0,0,0,0, ,-37.7,155.5,988,-0.5,-0.5,-1.8,25,-38.4518,156.425,988.376,-0.543073,-0.421199,-1.79241,
2026_07_06_15_21_41.060,3.865,29.8,0,0.76,0,0,0,0.005, ,0,0,0,0,0, ,-39.4,157.5,988.7,-0.5,-0.4,-1.9,25,-38.4578,156.429,988.374,-0.540449,-0.422954,-1.79592,
2026_07_06_15_21_41.072,3.865,29.8,0,0.76,0,0,0,0.004, ,0,0,0,0,0, ,-38.9,155.8,989.2,-0.5,-0.4,-1.8,25,-38.5,156.443,988.409,-0.537984,-0.421555,-1.79922,
2026_07_06_15_21_41.099,3.865,29.8,0,0.76,0,0,0,0.004, ,0,0,0,0,0, ,-38.3,157.7,988,-0.5,-0.4,-1.8,25,-38.5061,156.461,988.421,-0.535669,-0.420242,-1.79927,
2026_07_06_15_21_41.112,3.865,29.7,0,0.758,0,0,0,0.004, ,0,0,0,0,0, ,-37.8,156.2,988.1,-0.5,-0.5,-1.8,25,-38.4783,156.491,988.398,-0.533496,-0.422055,-1.79931,
2026_07_06_15_21_41.139,3.865,29.8,0,0.758,0,0,0,0.005, ,0,0,0,0,0, ,-38.2,155.8,989.1,-0.6,-0.4,-1.8,25,-38.4492,156.461,988.411,-0.534501,-0.423758,-1.79935,
2026_07_06_15_21_41.151,3.865,29.8,0,0.76,0,0,0,0.004, ,0,0,0,0,0, ,-39,155.1,989.5,-0.5,-0.5,-1.8,25,-38.4583,156.4,988.465,-0.535446,-0.425357,-1.79939,
2026_07_06_15_21_41.178,3.865,29.8,0,0.76,0,0,0,0.004, ,0,0,0,0,0, ,-38.9,157.3,988.1,-0.5,-0.4,-1.8,25,-38.4883,156.387,988.485,-0.533286,-0.426859,-1.79943,
2026_07_06_15_21_41.191,3.865,29.8,0,0.76,0,0,0,0.004, ,0,0,0,0,0, ,-38.5,156.4,988.4,-0.6,-0.4,-1.7,25,-38.5012,156.416,988.471,-0.534304,-0.425222,-1.79642,
2026_07_06_15_21_41.217,3.865,29.8,0,0.76,0,0,0,0.004, ,0,0,0,0,0, ,-38.5,157.9,987.6,-0.6,-0.3,-1.8,25,-38.5011,156.46,988.442,-0.538308,-0.420638,-1.79359,
2026_07_06_15_21_41.231,3.865,29.9,0,0.758,0,0,0,0.004, ,0,0,0,0,0, ,-38.4,157.4,989.5,-0.6,-0.4,-1.9,25,-38.498,156.533,988.449,-0.542067,-0.416334,-1.79703,
2026_07_06_15_21_41.258,3.865,29.8,0,0.76,0,0,0,0.004, ,0,0,0,0,0, ,-39,155.6,989.2,-0.5,-0.4,-1.8,25,-38.5103,156.531,988.504,-0.54255,-0.415338,-1.80025,
2026_07_06_15_21_41.270,3.865,29.7,0,0.76,0,0,0,0.004, ,0,0,0,0,0, ,-39.3,156.4,989,-0.5,-0.4,-1.8,25,-38.5493,156.499,988.54,-0.539957,-0.414404,-1.80024,
2026_07_06_15_21_41.297,3.865,29.8,0,0.76,0,0,0,0.005, ,0,0,0,0,0, ,-38.4,157.9,987.9,-0.5,-0.5,-1.8,25,-38.5676,156.538,988.534,-0.537523,-0.416573,-1.80022,
2026_07_06_15_21_41.310,3.865,29.8,0,0.76,0,0,0,0.004, ,0,0,0,0,0, ,-38.5,157.1,988.4,-0.6,-0.4,-1.8,25,-38.5605,156.597,988.511,-0.538283,-0.41861,-1.80021,
2026_07_06_15_21_41.337,3.865,29.8,0,0.758,0,0,0,0.004, ,0,0,0,0,0, ,-39.5,156,988.4,-0.6,-0.5,-1.9,25,-38.5872,156.594,988.504,-0.542044,-0.420523,-1.80324,
2026_07_06_15_21_41.350,3.865,29.9,0,0.758,0,0,0,0.004, ,0,0,0,0,0, ,-37.9,157.4,987.9,-0.5,-0.4,-1.8,25,-38.5941,156.6,988.483,-0.542529,-0.422319,-1.80609,
2026_07_06_15_21_41.376,3.865,29.9,0,0.758,0,0,0,0.004, ,0,0,0,0,0, ,-39.7,156.8,988.7,-0.5,-0.5,-1.8,25,-38.6067,156.631,988.472,-0.539937,-0.424006,-1.80572,
2026_07_06_15_21_41.389,3.865,29.9,0,0.76,0,0,0,0.004, ,0,0,0,0,0, ,-39.9,155.2,989,-0.5,-0.4,-1.8,25,-38.6794,156.592,988.495,-0.537503,-0.42559,-1.80537,
2026_07_06_15_21_41.417,3.865,29.8,0,0.76,0,0,0,0.004, ,0,0,0,0,0, ,-38.2,157.2,987.1,-0.5,-0.4,-1.8,25,-38.702,156.569,988.468,-0.535218,-0.42403,-1.80505,
2026_07_06_15_21_41.432,3.865,29.8,0,0.758,0,0,0,0.005, ,0,0,0,0,0, ,-37.7,157.5,989.3,-0.5,-0.5,-1.8,25,-38.6561,156.616,988.451,-0.533072,-0.425613,-1.80474,
2026_07_06_15_21_41.459,3.865,29.9,0,0.76,0,0,0,0.005, ,0,0,0,0,0, ,-39.3,153.9,988.4,-0.6,-0.5,-1.8,25,-38.6466,156.56,988.476,-0.534103,-0.430146,-1.80445,
2026_07_06_15_21_41.469,3.865,29.9,0,0.76,0,0,0,0.004, ,0,0,0,0,0, ,-39.3,154.7,988.7,-0.5,-0.4,-1.8,25,-38.6864,156.423,988.48,-0.535072,-0.431356,-1.80418,
2026_07_06_15_21_41.497,3.865,29.8,0,0.76,0,0,0,0.004, ,0,0,0,0,0, ,-38.9,154.7,989.9,-0.6,-0.4,-1.8,25,-38.7116,156.318,988.53,-0.535982,-0.429445,-1.80392,
2026_07_06_15_21_41.508,3.865,29.8,0,0.757,0,0,0,0.005, ,0,0,0,0,0, ,-38.5,155.6,989.5,-0.5,-0.4,-1.8,25,-38.7109,156.246,988.601,-0.536836,-0.427651,-1.80368,
2026_07_06_15_21_41.537,3.865,29.8,0,0.758,0,0,0,0.005, ,0,0,0,0,0, ,-37.5,156.7,987.7,-0.5,-0.4,-1.8,25,-38.6676,156.241,988.601,-0.534591,-0.425966,-1.80346,
2026_07_06_15_21_41.548,3.865,29.9,0,0.758,0,0,0,0.005, ,0,0,0,0,0, ,-38.2,157.1,988.1,-0.5,-0.4,-1.8,25,-38.6178,156.281,988.559,-0.532483,-0.424383,-1.80325,
2026_07_06_15_21_41.576,3.865,29.9,0,0.76,0,0,0,0.004, ,0,0,0,0,0, ,-38.3,156,989,-0.6,-0.5,-1.9,25,-38.5954,156.297,988.558,-0.533551,-0.425944,-1.8061,
2026_07_06_15_21_41.588,3.865,29.9,0,0.76,0,0,0,0.004, ,0,0,0,0,0, ,-39.6,156.8,990.1,-0.5,-0.5,-1.8,25,-38.617,156.303,988.618,-0.534553,-0.430457,-1.80877,
2026_07_06_15_21_41.615,3.865,29.8,0,0.758,0,0,0,0.004, ,0,0,0,0,0, ,-39.4,157.7,987.9,-0.5,-0.5,-1.8,25,-38.6708,156.361,988.642,-0.532448,-0.434695,-1.80824,
2026_07_06_15_21_41.626,3.865,29.8,0,0.76,0,0,0,0.005, ,0,0,0,0,0, ,-37.8,156.7,989.2,-0.5,-0.5,-1.8,25,-38.6665,156.412,988.636,-0.53047,-0.438675,-1.80774,
2026_07_06_15_21_41.657,3.865,29.9,0,0.76,0,0,0,0.005, ,0,0,0,0,0, ,-38.5,156.6,988.7,-0.6,-0.5,-1.8,25,-38.635,156.427,988.655,-0.53166,-0.442412,-1.80727,
2026_07_06_15_21_41.667,3.865,29.9,0,0.758,0,0,0,0.004, ,0,0,0,0,0, ,-37.9,156.3,989.3,-0.5,-0.4,-1.7,25,-38.6085,156.428,988.676,-0.532778,-0.442874,-1.80378,
2026_07_06_15_21_41.695,3.865,29.8,0,0.759,0,0,0,0.004, ,0,0,0,0,0, ,-38.6,155.7,989.5,-0.5,-0.4,-1.8,25,-38.5867,156.402,988.72,-0.530781,-0.440261,-1.8005,
2026_07_06_15_21_41.707,3.865,29.9,0,0.758,0,0,0,0.005, ,0,0,0,0,0, ,-39,155.8,987.1,-0.6,-0.5,-1.8,25,-38.5997,156.362,988.695,-0.531952,-0.440855,-1.80047,
2026_07_06_15_21_41.733,3.865,29.8,0,0.758,0,0,0,0.004, ,0,0,0,0,0, ,-38.3,157.2,988.6,-0.6,-0.4,-1.8,25,-38.6027,156.371,988.643,-0.536098,-0.441412,-1.80044,
2026_07_06_15_21_41.745,3.865,29.8,0,0.758,0,0,0,0.005, ,0,0,0,0,0, ,-38,156.7,988.7,-0.6,-0.5,-1.9,25,-38.5751,156.406,988.644,-0.539992,-0.441935,-1.80346,
2026_07_06_15_21_41.773,3.865,29.8,0,0.758,0,0,0,0.005, ,0,0,0,0,0, ,-38.8,157.5,987.5,-0.6,-0.4,-1.8,25,-38.5645,156.448,988.611,-0.543649,-0.442427,-1.8063,
2026_07_06_15_21_41.786,3.865,29.9,0,0.76,0,0,0,0.005, ,0,0,0,0,0, ,-38,157.1,988.7,-0.5,-0.4,-1.8,25,-38.5544,156.5,988.579,-0.544036,-0.439841,-1.80591,
2026_07_06_15_21_41.813,3.865,29.9,0,0.758,0,0,0,0.004, ,0,0,0,0,0, ,-38.8,156.2,987.7,-0.5,-0.4,-1.8,25,-38.545,156.509,988.556,-0.541353,-0.437414,-1.80555,
2026_07_06_15_21_41.825,3.865,29.9,0,0.76,0,0,0,0.004, ,0,0,0,0,0, ,-38.8,157.1,988.4,-0.5,-0.5,-1.8,25,-38.5606,156.518,988.525,-0.538833,-0.438181,-1.80521,
2026_07_06_15_21_41.853,3.865,29.8,0,0.758,0,0,0,0.004, ,0,0,0,0,0, ,-38.2,156.1,987.9,-0.5,-0.4,-1.8,25,-38.5569,156.523,988.503,-0.536466,-0.438901,-1.8049,
2026_07_06_15_21_41.865,3.865,29.9,0,0.758,0,0,0,0.005, ,0,0,0,0,0, ,-38.4,155.8,988.1,-0.6,-0.5,-1.8,25,-38.5412,156.488,988.472,-0.537291,-0.439577,-1.8046,
2026_07_06_15_21_41.899,3.865,29.9,0,0.758,0,0,0,0.004, ,0,0,0,0,0, ,-38.4,156.7,989.1,-0.5,-0.4,-1.8,25,-38.5326,156.473,988.48,-0.538066,-0.440212,-1.80432,
2026_07_06_15_21_41.904,3.865,29.9,0,0.758,0,0,0,0.004, ,0,0,0,0,0, ,-38.4,156.8,988.7,-0.5,-0.4,-1.8,25,-38.5245,156.49,988.505,-0.535746,-0.437762,-1.80405,
2026_07_06_15_21_41.932,3.865,29.9,0,0.76,0,0,0,0.004, ,0,0,0,0,0, ,-37.1,155.5,988.1,-0.6,-0.4,-1.9,25,-38.4773,156.47,988.499,-0.536615,-0.435461,-1.80685,
2026_07_06_15_21_41.944,3.865,29.9,0,0.759,0,0,0,0.004, ,0,0,0,0,0, ,-38,154.7,989.2,-0.6,-0.4,-1.9,25,-38.4208,156.386,988.508,-0.540477,-0.4333,-1.81253,
2026_07_06_15_21_41.972,3.865,29.9,0,0.761,0,0,0,0.004, ,0,0,0,0,0, ,-38.3,156.1,989.6,-0.6,-0.5,-1.8,25,-38.4043,156.326,988.562,-0.544104,-0.434318,-1.81481,
2026_07_06_15_21_41.983,3.865,30,0,0.759,0,0,0,0.004, ,0,0,0,0,0, ,-38.4,155.8,988.1,-0.6,-0.4,-1.7,25,-38.401,156.303,988.58,-0.54751,-0.435273,-1.81086,
2026_07_06_15_21_42.011,3.865,29.9,0,0.759,0,0,0,0.003, ,0,0,0,0,0, ,-38.5,156.2,989.3,-0.5,-0.4,-1.8,25,-38.404,156.285,988.587,-0.547662,-0.433124,-1.80716,
2026_07_06_15_21_42.022,3.865,29.9,0,0.759,0,0,0,0.004, ,0,0,0,0,0, ,-37.9,155.3,988.7,-0.6,-0.4,-1.8,25,-38.3916,156.252,988.612,-0.547805,-0.431105,-1.80672,
2026_07_06_15_21_42.052,3.865,29.9,0,0.758,0,0,0,0.004, ,0,0,0,0,0, ,-37.5,155.8,988.1,-0.5,-0.4,-1.8,25,-38.3494,156.209,988.6,-0.547938,-0.42921,-1.80631,
2026_07_06_15_21_42.062,3.865,29.8,0,0.76,0,0,0,0.004, ,0,0,0,0,0, ,-38.3,156.3,988.5,-0.5,-0.4,-1.8,25,-38.322,156.2,988.581,-0.545017,-0.42743,-1.80593,
2026_07_06_15_21_42.090,3.865,30,0,0.759,0,0,0,0.005, ,0,0,0,0,0, ,-38.8,156.4,988,-0.6,-0.4,-1.8,25,-38.3359,156.209,988.561,-0.545321,-0.425758,-1.80556,
2026_07_06_15_21_42.102,3.865,29.9,0,0.76,0,0,0,0.003, ,0,0,0,0,0, ,-38.3,156.2,988,-0.5,-0.4,-1.8,25,-38.349,156.214,988.527,-0.545606,-0.424189,-1.80522,
2026_07_06_15_21_42.130,3.865,29.9,0,0.759,0,0,0,0.004, ,0,0,0,0,0, ,-38.6,156.4,988.6,-0.5,-0.4,-1.8,25,-38.3551,156.22,988.513,-0.542827,-0.422715,-1.80491,
2026_07_06_15_21_42.142,3.865,29.9,0,0.758,0,0,0,0.004, ,0,0,0,0,0, ,-38,157.4,988.5,-0.5,-0.3,-1.8,25,-38.3518,156.261,988.515,-0.540217,-0.418284,-1.80461,
2026_07_06_15_21_42.169,3.865,29.9,0,0.758,0,0,0,0.004, ,0,0,0,0,0, ,-37.7,156.1,988.2,-0.5,-0.4,-1.8,25,-38.3212,156.291,988.505,-0.537766,-0.414123,-1.80433,
2026_07_06_15_21_42.181,3.865,29.9,0,0.759,0,0,0,0.004, ,0,0,0,0,0, ,-38.5,155.5,989.9,-0.5,-0.5,-1.8,25,-38.3077,156.261,988.538,-0.535465,-0.416309,-1.80406,
2026_07_06_15_21_42.210,3.865,29.9,0,0.76,0,0,0,0.004, ,0,0,0,0,0, ,-39.1,157.4,988.7,-0.5,-0.4,-1.8,25,-38.3377,156.272,988.585,-0.533304,-0.418362,-1.80382,
2026_07_06_15_21_42.221,3.865,29.9,0,0.759,0,0,0,0.004, ,0,0,0,0,0, ,-40.2,156.1,988.5,-0.5,-0.4,-1.9,25,-38.4177,156.302,988.586,-0.531274,-0.417243,-1.80663,
2026_07_06_15_21_42.251,3.865,29.9,0,0.76,0,0,0,0.004, ,0,0,0,0,0, ,-38,157.5,988,-0.5,-0.4,-1.8,25,-38.4593,156.332,988.565,-0.529369,-0.416192,-1.80927,
2026_07_06_15_21_42.260,3.865,29.9,0,0.759,0,0,0,0.004, ,0,0,0,0,0, ,-38.3,156.4,988.1,-0.6,-0.4,-1.8,25,-38.4404,156.37,988.534,-0.530626,-0.415206,-1.80871,
2026_07_06_15_21_42.291,3.865,30,0,0.759,0,0,0,0.004, ,0,0,0,0,0, ,-36.7,155.2,989.7,-0.6,-0.4,-1.8,25,-38.3831,156.335,988.556,-0.534853,-0.414279,-1.80818,
2026_07_06_15_21_42.300,3.865,29.8,0,0.76,0,0,0,0.003, ,0,0,0,0,0, ,-38.4,155,989.3,-0.5,-0.4,-1.8,25,-38.3323,156.26,988.614,-0.535776,-0.413409,-1.80768,
2026_07_06_15_21_42.330,3.865,29.9,0,0.759,0,0,0,0.005, ,0,0,0,0,0, ,-37.9,157.3,989.1,-0.5,-0.4,-1.8,25,-38.3212,156.253,988.649,-0.533596,-0.412592,-1.80721,
2026_07_06_15_21_42.340,3.865,29.9,0,0.759,0,0,0,0.004, ,0,0,0,0,0, ,-39.4,156.2,987.6,-0.5,-0.4,-1.8,25,-38.3413,156.283,988.631,-0.531549,-0.411824,-1.80677,
2026_07_06_15_21_42.368,3.865,29.9,0,0.758,0,0,0,0.004, ,0,0,0,0,0, ,-39.1,156.3,988,-0.6,-0.5,-1.8,25,-38.3966,156.281,988.581,-0.532673,-0.414151,-1.80636,
2026_07_06_15_21_42.385,3.865,29.9,0,0.76,0,0,0,0.004, ,0,0,0,0,0, ,-38.2,156.9,989.2,-0.5,-0.4,-1.8,25,-38.4121,156.301,988.582,-0.533729,-0.416335,-1.80597,
2026_07_06_15_21_42.414,3.865,29.9,0,0.759,0,0,0,0.004, ,0,0,0,0,0, ,-39.6,156,988,-0.5,-0.4,-1.8,25,-38.4418,156.31,988.583,-0.531674,-0.41534,-1.80561,
2026_07_06_15_21_42.419,3.865,30,0,0.758,0,0,0,0.004, ,0,0,0,0,0, ,-38,155.5,989.3,-0.6,-0.4,-1.8,25,-38.4636,156.276,988.587,-0.532791,-0.414405,-1.80527,
2026_07_06_15_21_42.447,3.865,29.9,0,0.759,0,0,0,0.004, ,0,0,0,0,0, ,-39.4,154.6,990.3,-0.6,-0.5,-1.7,25,-38.478,156.201,988.661,-0.536886,-0.416574,-1.8019,
2026_07_06_15_21_42.458,3.865,29.9,0,0.758,0,0,0,0.004, ,0,0,0,0,0, ,-37.8,156.8,988.1,-0.5,-0.4,-1.8,25,-38.4855,156.17,988.694,-0.537685,-0.418611,-1.79874,
2026_07_06_15_21_42.488,3.865,29.9,0,0.757,0,0,0,0.004, ,0,0,0,0,0, ,-37.5,157.4,989.3,-0.5,-0.4,-1.8,25,-38.4346,156.227,988.694,-0.535389,-0.417477,-1.79881,
2026_07_06_15_21_42.498,3.865,29.9,0,0.76,0,0,0,0.004, ,0,0,0,0,0, ,-39.1,156.7,988.5,-0.6,-0.4,-1.8,25,-38.4264,156.277,988.707,-0.536279,-0.416412,-1.79888,
2026_07_06_15_21_42.526,3.865,29.9,0,0.761,0,0,0,0.004, ,0,0,0,0,0, ,-39.1,155.8,989,-0.6,-0.4,-1.8,25,-38.4674,156.276,988.709,-0.540162,-0.415412,-1.79895,
2026_07_06_15_21_42.538,3.865,29.9,0,0.758,0,0,0,0.004, ,0,0,0,0,0, ,-39.1,156.4,989.3,-0.5,-0.4,-1.8,25,-38.506,156.265,988.736,-0.540762,-0.414473,-1.79902,
2026_07_06_15_21_42.566,3.865,29.9,0,0.76,0,0,0,0.004, ,0,0,0,0,0, ,-38.3,156.7,989.3,-0.5,-0.4,-1.8,25,-38.5178,156.282,988.771,-0.538278,-0.413591,-1.79908,
2026_07_06_15_21_42.578,3.865,30,0,0.761,0,0,0,0.004, ,0,0,0,0,0, ,-38.5,156.7,989.6,-0.6,-0.4,-1.8,25,-38.5106,156.308,988.812,-0.538992,-0.412763,-1.79913,
2026_07_06_15_21_42.609,3.865,30,0,0.758,0,0,0,0.004, ,0,0,0,0,0, ,-37.9,156.3,989.3,-0.5,-0.4,-1.7,25,-38.4917,156.319,988.851,-0.539663,-0.411985,-1.79614,
2026_07_06_15_21_42.617,3.865,29.9,0,0.758,0,0,0,0.004, ,0,0,0,0,0, ,-36.9,157.5,987.9,-0.5,-0.4,-1.8,25,-38.4252,156.355,988.836,-0.537246,-0.411255,-1.79333,
2026_07_06_15_21_42.648,3.865,30,0,0.758,0,0,0,0.004, ,0,0,0,0,0, ,-37.7,155.1,987.7,-0.5,-0.4,-1.8,25,-38.3566,156.351,988.772,-0.534976,-0.410569,-1.79373,
2026_07_06_15_21_42.657,3.865,30,0,0.758,0,0,0,0.004, ,0,0,0,0,0, ,-38.3,155.6,987.4,-0.5,-0.5,-1.8,25,-38.3349,156.29,988.698,-0.532845,-0.412972,-1.79412,
2026_07_06_15_21_42.686,3.865,30,0,0.761,0,0,0,0.004, ,0,0,0,0,0, ,-37.5,155.1,988.1,-0.5,-0.5,-1.9,25,-38.3084,156.233,988.64,-0.530843,-0.418275,-1.79752,
2026_07_06_15_21_42.696,3.865,29.9,0,0.757,0,0,0,0.004, ,0,0,0,0,0, ,-37.4,156.8,986.8,-0.5,-0.5,-1.8,25,-38.2561,156.216,988.568,-0.528964,-0.423255,-1.80072,
2026_07_06_15_21_42.725,3.865,30,0,0.76,0,0,0,0.004, ,0,0,0,0,0, ,-39,156.3,989.3,-0.6,-0.4,-1.8,25,-38.2526,156.236,988.536,-0.530246,-0.424885,-1.80068,
2026_07_06_15_21_42.736,3.865,30,0,0.758,0,0,0,0.004, ,0,0,0,0,0, ,-38.5,156.2,990.1,-0.5,-0.4,-1.7,25,-38.2829,156.237,988.607,-0.53145,-0.423368,-1.79759,
2026_07_06_15_21_42.767,3.865,30,0,0.758,0,0,0,0.004, ,0,0,0,0,0, ,-39.4,156.1,988.8,-0.6,-0.5,-1.8,25,-38.3236,156.232,988.658,-0.53258,-0.424991,-1.79469,
2026_07_06_15_21_42.775,3.865,29.9,0,0.76,0,0,0,0.004, ,0,0,0,0,0, ,-37.9,155.3,989,-0.6,-0.4,-1.8,25,-38.3435,156.199,988.673,-0.536688,-0.426515,-1.79501,
2026_07_06_15_21_42.805,3.865,30,0,0.76,0,0,0,0.004, ,0,0,0,0,0, ,-38.4,156.4,988,-0.6,-0.4,-1.8,25,-38.3317,156.178,988.663,-0.540546,-0.424899,-1.79532,
2026_07_06_15_21_42.815,3.865,29.9,0,0.757,0,0,0,0.004, ,0,0,0,0,0, ,-38.9,156.9,988.8,-0.6,-0.4,-1.8,25,-38.3511,156.207,988.647,-0.544169,-0.423382,-1.7956,
2026_07_06_15_21_42.845,3.865,29.9,0,0.76,0,0,0,0.004, ,0,0,0,0,0, ,-39,155.3,988.5,-0.5,-0.4,-1.8,25,-38.3876,156.2,988.647,-0.544525,-0.421957,-1.79587,
2026_07_06_15_21_42.855,3.865,29.9,0,0.76,0,0,0,0.004, ,0,0,0,0,0, ,-38.6,156.9,988,-0.5,-0.4,-1.9,25,-38.4127,156.194,988.623,-0.541811,-0.420619,-1.79917,
2026_07_06_15_21_42.884,3.865,30,0,0.76,0,0,0,0.004, ,0,0,0,0,0, ,-38.9,156.9,987.9,-0.6,-0.5,-1.8,25,-38.4333,156.237,988.582,-0.54231,-0.42241,-1.80226,
2026_07_06_15_21_42.896,3.865,30,0,0.758,0,0,0,0.004, ,0,0,0,0,0, ,-38.8,156.7,989.1,-0.5,-0.5,-1.8,25,-38.4587,156.272,988.577,-0.542779,-0.427138,-1.80213,
2026_07_06_15_21_42.925,3.865,30,0,0.758,0,0,0,0.004, ,0,0,0,0,0, ,-37.8,156,988,-0.5,-0.5,-1.7,25,-38.449,156.276,988.575,-0.540172,-0.431578,-1.79895,
2026_07_06_15_21_42.934,3.865,30,0,0.756,0,0,0,0.004, ,0,0,0,0,0, ,-37.9,158.3,988.7,-0.5,-0.5,-1.8,25,-38.4125,156.33,988.561,-0.537724,-0.435747,-1.79597,
2026_07_06_15_21_42.963,3.865,30,0,0.758,0,0,0,0.004, ,0,0,0,0,0, ,-38.9,157.2,989.1,-0.5,-0.4,-1.9,25,-38.4117,156.416,988.582,-0.535425,-0.436616,-1.79926,
2026_07_06_15_21_42.974,3.865,29.9,0,0.758,0,0,0,0.004, ,0,0,0,0,0, ,-38.9,155.5,988.2,-0.5,-0.4,-1.8,25,-38.4415,156.412,988.586,-0.533267,-0.434385,-1.80235,
2026_07_06_15_21_43.003,3.865,30.1,0,0.76,0,0,0,0.004, ,0,0,0,0,0, ,-38,155.6,988.1,-0.5,-0.4,-1.8,25,-38.442,156.36,988.56,-0.531239,-0.432289,-1.80221,
2026_07_06_15_21_43.013,3.865,29.9,0,0.758,0,0,0,0.003, ,0,0,0,0,0, ,-38.4,156.3,988.2,-0.5,-0.5,-1.8,25,-38.4273,156.335,988.535,-0.529336,-0.433368,-1.80207,
2026_07_06_15_21_43.043,3.865,30,0,0.76,0,0,0,0.004, ,0,0,0,0,0, ,-38.8,157.5,987.6,-0.6,-0.5,-1.8,25,-38.4378,156.369,988.496,-0.530595,-0.437429,-1.80195,
2026_07_06_15_21_43.053,3.865,29.9,0,0.76,0,0,0,0.004, ,0,0,0,0,0, ,-38.5,156.9,988.5,-0.5,-0.5,-1.8,25,-38.4507,156.42,988.469,-0.531778,-0.441242,-1.80183,
2026_07_06_15_21_43.083,3.865,30,0,0.76,0,0,0,0.004, ,0,0,0,0,0, ,-39,156.9,987,-0.6,-0.4,-1.8,25,-38.469,156.449,988.425,-0.532888,-0.441775,-1.80172,
2026_07_06_15_21_43.092,3.865,30,0,0.758,0,0,0,0.004, ,0,0,0,0,0, ,-38.5,156.2,989.5,-0.5,-0.5,-1.8,25,-38.4861,156.455,988.414,-0.533931,-0.442277,-1.80161,
2026_07_06_15_21_43.123,3.865,29.9,0,0.758,0,0,0,0.004, ,0,0,0,0,0, ,-38.8,156.6,988.6,-0.5,-0.5,-1.9,25,-38.4961,156.452,988.453,-0.531863,-0.445794,-1.80456,
2026_07_06_15_21_43.131,3.865,30,0,0.76,0,0,0,0.004, ,0,0,0,0,0, ,-37.7,155.8,988.1,-0.5,-0.4,-1.7,25,-38.4811,156.436,988.447,-0.529921,-0.44605,-1.80428,
2026_07_06_15_21_43.162,3.865,30,0,0.76,0,0,0,0.004, ,0,0,0,0,0, ,-37.8,154.7,989.1,-0.5,-0.4,-1.8,25,-38.4365,156.364,988.456,-0.528098,-0.443244,-1.80098,
2026_07_06_15_21_43.172,3.865,29.9,0,0.758,0,0,0,0.004, ,0,0,0,0,0, ,-38.3,156.6,988.5,-0.5,-0.4,-1.8,25,-38.413,156.321,988.477,-0.526386,-0.440609,-1.80092,
2026_07_06_15_21_43.202,3.865,29.9,0,0.758,0,0,0,0.004, ,0,0,0,0,0, ,-37.5,156.2,989.5,-0.6,-0.3,-1.8,25,-38.3817,156.325,988.509,-0.527825,-0.435088,-1.80086,
2026_07_06_15_21_43.211,3.865,30,0,0.76,0,0,0,0.005, ,0,0,0,0,0, ,-39.3,155.8,989.5,-0.5,-0.5,-1.8,25,-38.3828,156.306,988.569,-0.529176,-0.432949,-1.80081,
2026_07_06_15_21_43.241,3.865,29.9,0,0.758,0,0,0,0.004, ,0,0,0,0,0, ,-38.6,155.8,988.7,-0.5,-0.4,-1.8,25,-38.4174,156.275,988.602,-0.527398,-0.433988,-1.80076,
2026_07_06_15_21_43.250,3.865,29.9,0,0.758,0,0,0,0.005, ,0,0,0,0,0, ,-38.2,157.1,988.2,-0.6,-0.4,-1.8,25,-38.4163,156.285,988.592,-0.528776,-0.431917,-1.80071,
2026_07_06_15_21_43.280,3.865,30,0,0.758,0,0,0,0.005, ,0,0,0,0,0, ,-38.2,156.2,988.2,-0.6,-0.4,-1.8,25,-38.4031,156.308,988.568,-0.533116,-0.429972,-1.80067,
2026_07_06_15_21_43.290,3.865,30,0,0.76,0,0,0,0.004, ,0,0,0,0,0, ,-38.4,156.8,988,-0.5,-0.3,-1.8,25,-38.3969,156.319,988.54,-0.534145,-0.425099,-1.80063,
2026_07_06_15_21_43.319,3.865,29.9,0,0.76,0,0,0,0.004, ,0,0,0,0,0, ,-37.8,157.2,988,-0.6,-0.5,-1.8,25,-38.3788,156.361,988.507,-0.535111,-0.42357,-1.80059,
2026_07_06_15_21_43.330,3.865,30,0,0.761,0,0,0,0.005, ,0,0,0,0,0, ,-37.8,155.6,987.7,-0.6,-0.4,-1.8,25,-38.3435,156.363,988.467,-0.539065,-0.42518,-1.80055,
2026_07_06_15_21_43.361,3.865,29.9,0,0.758,0,0,0,0.004, ,0,0,0,0,0, ,-38.4,155.1,988,-0.6,-0.4,-1.8,25,-38.3287,156.302,988.429,-0.542778,-0.423646,-1.80052,
2026_07_06_15_21_43.369,3.865,30,0,0.758,0,0,0,0.005, ,0,0,0,0,0, ,-39.5,157.4,990.6,-0.5,-0.5,-1.8,25,-38.3665,156.298,988.482,-0.543218,-0.425252,-1.80049,
2026_07_06_15_21_43.400,3.865,30,0,0.76,0,0,0,0.004, ,0,0,0,0,0, ,-36.3,157.3,988,-0.6,-0.4,-1.8,25,-38.3381,156.362,988.532,-0.543632,-0.42676,-1.80046,
2026_07_06_15_21_43.409,3.865,30,0,0.758,0,0,0,0.004, ,0,0,0,0,0, ,-38.3,156.1,988.6,-0.6,-0.4,-1.8,25,-38.2748,156.383,988.518,-0.547067,-0.425129,-1.80043,
