UTC_Time,Vin,TC1,TC2,Rh1,Vh1,Ah1,Acp1,Dty1,Err1,Rh2,Vh2,Ah2,Acp2,Dty2,Err2,Accel_x,Accel_y,Accel_z,gyro_x,gyro_y,gyro_z,Temp_c,Accel_x_h,Accel_y_h,Accel_z_h,gyro_x_h,gyro_y_h,gyro_z_h,
2026_07_06_15_24_32.799,3.847,30.3,0,0.759,0,0,0,0, ,0,0,0,0,0, ,-38.6,155.8,987.9,-0.6,-0.5,-1.8,25,-38.6,155.8,987.9,-0.6,-0.5,-1.8,
2026_07_06_15_24_32.817,3.847,30.3,0,0.759,0,0,0,0, ,0,0,0,0,0, ,-38.3,155.2,986.8,-0.7,-0.5,-1.9,25,-38.5909,155.782,987.867,-0.603047,-0.5,-1.80305,
2026_07_06_15_24_32.838,3.847,30.4,0,0.759,0,0,0,0, ,0,0,0,0,0, ,-40.8,156,989.3,-0.6,-0.4,-1.9,25,-38.6493,155.771,987.878,-0.605908,-0.496953,-1.80895,
2026_07_06_15_24_32.858,3.847,30.4,0,0.759,0,0,0,0, ,0,0,0,0,0, ,-38.2,157.5,987.4,-0.6,-0.5,-1.8,25,-38.7011,155.83,987.906,-0.605548,-0.494092,-1.81146,
2026_07_06_15_24_32.877,3.847,30.4,0,0.759,0,0,0,0, ,0,0,0,0,0, ,-38.4,156.7,988.5,-0.6,-0.5,-1.8,25,-38.6767,155.908,987.909,-0.60521,-0.494452,-1.81076,
2026_07_06_15_24_32.896,3.847,30.4,0,0.761,0,0,0,0, ,0,0,0,0,0, ,-38.4,156.6,988,-0.7,-0.5,-1.9,25,-38.6598,155.953,987.93,-0.607939,-0.49479,-1.81315,
2026_07_06_15_24_32.917,3.847,30.3,0,0.76,0,0,0,0, ,0,0,0,0,0, ,-37.9,157.3,988.5,-0.7,-0.5,-1.8,25,-38.6288,156.014,987.949,-0.613549,-0.495108,-1.81539,
2026_07_06_15_24_32.937,3.847,30.4,0,0.759,0,0,0,0, ,0,0,0,0,0, ,-39.7,156.1,987.5,-0.7,-0.6,-1.8,25,-38.6392,156.056,987.952,-0.618817,-0.498453,-1.81446,
2026_07_06_15_24_32.956,3.847,30.5,0,0.759,0,0,0,0, ,0,0,0,0,0, ,-38.8,156.1,988.1,-0.6,-0.4,-1.9,25,-38.6764,156.058,987.943,-0.620718,-0.498547,-1.81662,
2026_07_06_15_24_32.976,3.847,30.3,0,0.759,0,0,0,0, ,0,0,0,0,0, ,-38.6,157.1,987.3,-0.7,-0.5,-1.9,25,-38.6779,156.091,987.928,-0.622502,-0.495589,-1.8217,
2026_07_06_15_24_32.996,3.847,30.4,0,0.758,0,0,0,0, ,0,0,0,0,0, ,-39,157.1,987.7,-0.7,-0.4,-1.8,25,-38.6853,156.153,987.902,-0.627225,-0.49281,-1.82343,
2026_07_06_15_24_33.016,3.847,30.4,0,0.758,0,0,0,0, ,0,0,0,0,0, ,-39.1,157.1,986.9,-0.7,-0.5,-1.9,25,-38.7075,156.21,987.866,-0.631659,-0.490202,-1.82505,
2026_07_06_15_24_33.036,3.847,30.4,0,0.758,0,0,0,0, ,0,0,0,0,0, ,-37.4,155.6,988.1,-0.6,-0.5,-1.8,25,-38.6796,156.219,987.843,-0.632777,-0.490799,-1.82657,
2026_07_06_15_24_33.055,3.847,30.4,0,0.759,0,0,0,0, ,0,0,0,0,0, ,-39.3,155.6,988,-0.6,-0.4,-2,25,-38.6596,156.181,987.856,-0.63078,-0.488313,-1.83104,
2026_07_06_15_24_33.075,3.847,30.3,0,0.759,0,0,0,0, ,0,0,0,0,0, ,-38.4,155.5,987.7,-0.7,-0.4,-1.8,25,-38.6712,156.143,987.856,-0.631951,-0.482931,-1.83524,
2026_07_06_15_24_33.096,3.847,30.4,0,0.76,0,0,0,0, ,0,0,0,0,0, ,-38.5,156.3,988.8,-0.7,-0.4,-1.9,25,-38.6577,156.128,987.88,-0.636098,-0.477877,-1.83614,
2026_07_06_15_24_33.114,3.847,30.4,0,0.759,0,0,0,0, ,0,0,0,0,0, ,-38.8,156.7,986.3,-0.6,-0.5,-1.8,25,-38.6572,156.151,987.859,-0.636945,-0.476179,-1.83699,
2026_07_06_15_24_33.134,3.847,30.4,0,0.759,0,0,0,0, ,0,0,0,0,0, ,-38.4,155.1,988.1,-0.6,-0.5,-1.8,25,-38.6537,156.135,987.819,-0.634693,-0.47763,-1.83473,
2026_07_06_15_24_33.154,3.847,30.4,0,0.76,0,0,0,0, ,0,0,0,0,0, ,-39,155.3,987.3,-0.7,-0.5,-2,25,-38.6566,156.078,987.812,-0.635626,-0.478993,-1.83871,
2026_07_06_15_24_33.174,3.847,30.3,0,0.76,0,0,0,0, ,0,0,0,0,0, ,-36.8,156.4,987.1,-0.7,-0.5,-1.9,25,-38.6104,156.064,987.775,-0.639549,-0.480274,-1.84549,
2026_07_06_15_24_33.194,3.847,30.3,0,0.759,0,0,0,0, ,0,0,0,0,0, ,-37.8,156.6,988.8,-0.7,-0.6,-1.8,25,-38.5306,156.091,987.785,-0.643233,-0.484522,-1.84577,
2026_07_06_15_24_33.214,3.847,30.3,0,0.759,0,0,0,0, ,0,0,0,0,0, ,-38.6,157.8,987.6,-0.7,-0.5,-1.8,25,-38.5104,156.159,987.811,-0.646692,-0.488513,-1.84298,
2026_07_06_15_24_33.234,3.847,30.3,0,0.759,0,0,0,0, ,0,0,0,0,0, ,-38.8,157.4,987.6,-0.7,-0.5,-1.9,25,-38.522,156.246,987.798,-0.64994,-0.489213,-1.84341,
2026_07_06_15_24_33.253,3.847,30.4,0,0.759,0,0,0,0, ,0,0,0,0,0, ,-38,157.3,988.2,-0.7,-0.4,-1.8,25,-38.5146,156.314,987.804,-0.652991,-0.486823,-1.84381,
2026_07_06_15_24_33.273,3.847,30.4,0,0.76,0,0,0,0, ,0,0,0,0,0, ,-39.1,156.6,987.6,-0.6,-0.4,-1.9,25,-38.5167,156.352,987.81,-0.652809,-0.481532,-1.84419,
2026_07_06_15_24_33.293,3.847,30.3,0,0.758,0,0,0,0, ,0,0,0,0,0, ,-38.2,155.7,987.9,-0.6,-0.5,-1.8,25,-38.5248,156.34,987.806,-0.649591,-0.479611,-1.84454,
2026_07_06_15_24_33.313,3.847,30.3,0,0.759,0,0,0,0, ,0,0,0,0,0, ,-37.8,157.7,987.1,-0.6,-0.4,-1.8,25,-38.4929,156.362,987.788,-0.646569,-0.477806,-1.84183,
2026_07_06_15_24_33.332,3.847,30.2,0,0.759,0,0,0,0, ,0,0,0,0,0, ,-39.9,156.3,988.5,-0.6,-0.4,-1.8,25,-38.5146,156.401,987.788,-0.643731,-0.473065,-1.83928,
2026_07_06_15_24_33.353,3.847,30.3,0,0.76,0,0,0,0, ,0,0,0,0,0, ,-38.5,157.1,988.1,-0.7,-0.5,-1.8,25,-38.5564,156.419,987.82,-0.644113,-0.471659,-1.83688,
2026_07_06_15_24_33.372,3.847,30.4,0,0.759,0,0,0,0, ,0,0,0,0,0, ,-38.8,156.1,988.1,-0.6,-0.5,-1.9,25,-38.5621,156.43,987.837,-0.644472,-0.473386,-1.83768,
2026_07_06_15_24_33.392,3.847,30.3,0,0.76,0,0,0,0, ,0,0,0,0,0, ,-37.7,156.2,987.9,-0.8,-0.4,-1.9,25,-38.5431,156.413,987.847,-0.647855,-0.471961,-1.84148,
2026_07_06_15_24_33.411,3.847,30.2,0,0.758,0,0,0,0, ,0,0,0,0,0, ,-38.4,155.3,986.6,-0.7,-0.5,-1.8,25,-38.513,156.373,987.81,-0.65408,-0.470623,-1.842,
2026_07_06_15_24_33.431,3.847,30.3,0,0.758,0,0,0,0, ,0,0,0,0,0, ,-37.9,157.4,987.7,-0.7,-0.5,-1.9,25,-38.4909,156.371,987.77,-0.656878,-0.472413,-1.84249,
2026_07_06_15_24_33.451,3.847,30.4,0,0.759,0,0,0,0, ,0,0,0,0,0, ,-38.4,156.8,987,-0.7,-0.4,-1.8,25,-38.4701,156.416,987.744,-0.659506,-0.471047,-1.84294,
2026_07_06_15_24_33.471,3.847,30.3,0,0.758,0,0,0,0, ,0,0,0,0,0, ,-38.5,156.6,987.3,-0.6,-0.5,-1.9,25,-38.4689,156.433,987.708,-0.658927,-0.469765,-1.84337,
2026_07_06_15_24_33.491,3.847,30.4,0,0.76,0,0,0,0, ,0,0,0,0,0, ,-39.1,155.6,988.6,-0.6,-0.5,-1.9,25,-38.4891,156.413,987.723,-0.655336,-0.471607,-1.84683,
2026_07_06_15_24_33.583,3.847,30.3,0,0.76,0,0,0,0, ,0,0,0,0,0, ,-38.6,157.8,987.5,-0.6,-0.4,-1.9,25,-38.5111,156.43,987.743,-0.651964,-0.470291,-1.85007,
2026_07_06_15_24_33.583,3.847,30.3,0,0.759,0,0,0,0, ,0,0,0,0,0, ,-37.7,156.2,988.5,-0.7,-0.5,-1.8,25,-38.4891,156.465,987.759,-0.651844,-0.469054,-1.85006,
2026_07_06_15_24_33.584,3.847,30.3,0,0.759,0,0,0,0, ,0,0,0,0,0, ,-38,156.1,987.5,-0.7,-0.5,-2,25,-38.4501,156.446,987.773,-0.654779,-0.47094,-1.8531,
2026_07_06_15_24_33.585,3.847,30.3,0,0.76,0,0,0,0, ,0,0,0,0,0, ,-37.9,157.4,989.3,-0.7,-0.5,-1.9,25,-38.4197,156.464,987.811,-0.657534,-0.472711,-1.85901,
2026_07_06_15_24_33.594,3.847,30.4,0,0.759,0,0,0,0, ,0,0,0,0,0, ,-38.8,157.5,987.4,-0.7,-0.5,-1.9,25,-38.4154,156.524,987.844,-0.660122,-0.474374,-1.86151,
2026_07_06_15_24_33.610,3.847,30.3,0,0.76,0,0,0,0, ,0,0,0,0,0, ,-38.5,155.3,988.1,-0.7,-0.5,-1.8,25,-38.4297,156.517,987.838,-0.662552,-0.475935,-1.86081,
2026_07_06_15_24_33.629,3.847,30.3,0,0.76,0,0,0,0, ,0,0,0,0,0, ,-39.7,156.6,988.2,-0.7,-0.5,-1.9,25,-38.4706,156.482,987.857,-0.664834,-0.477402,-1.86015,
2026_07_06_15_24_33.649,3.847,30.4,0,0.76,0,0,0,0, ,0,0,0,0,0, ,-38.5,157.3,987.6,-0.7,-0.5,-2,25,-38.5089,156.511,987.86,-0.666977,-0.478779,-1.86562,
2026_07_06_15_24_33.670,3.847,30.3,0,0.76,0,0,0,0, ,0,0,0,0,0, ,-38.3,155.6,988.1,-0.6,-0.4,-1.8,25,-38.5023,156.507,987.859,-0.665942,-0.477025,-1.86772,
2026_07_06_15_24_33.690,3.847,30.3,0,0.759,0,0,0,0, ,0,0,0,0,0, ,-38.2,156.2,987.3,-0.6,-0.5,-1.9,25,-38.4869,156.47,987.85,-0.661924,-0.475378,-1.86664,
2026_07_06_15_24_33.710,3.847,30.3,0,0.758,0,0,0,0, ,0,0,0,0,0, ,-38.3,156.4,987.6,-0.6,-0.5,-1.9,25,-38.4725,156.46,987.825,-0.658151,-0.476879,-1.86867,
2026_07_06_15_24_33.730,3.847,30.3,0,0.759,0,0,0,0, ,0,0,0,0,0, ,-38.5,156.9,987.1,-0.7,-0.5,-1.9,25,-38.468,156.471,987.796,-0.657654,-0.478288,-1.87058,
2026_07_06_15_24_33.749,3.847,30.3,0,0.759,0,0,0,0, ,0,0,0,0,0, ,-38.4,155.6,988.6,-0.6,-0.4,-1.8,25,-38.4669,156.458,987.8,-0.657188,-0.476564,-1.86933,
2026_07_06_15_24_33.770,3.847,30.4,0,0.759,0,0,0,0, ,0,0,0,0,0, ,-39.5,156.6,988.2,-0.7,-0.4,-1.9,25,-38.4964,156.436,987.836,-0.65675,-0.471898,-1.86815,
2026_07_06_15_24_33.788,3.847,30.2,0,0.76,0,0,0,0, ,0,0,0,0,0, ,-38.9,155.8,988.5,-0.7,-0.5,-1.8,25,-38.5393,156.422,987.868,-0.659385,-0.470564,-1.86704,
2026_07_06_15_24_33.808,3.847,30.3,0,0.759,0,0,0,0, ,0,0,0,0,0, ,-38.4,157.5,987.3,-0.6,-0.5,-1.8,25,-38.546,156.436,987.87,-0.658813,-0.472358,-1.86296,
2026_07_06_15_24_33.828,3.847,30.2,0,0.759,0,0,0,0, ,0,0,0,0,0, ,-39.4,158.2,989.1,-0.6,-0.5,-1.8,25,-38.5676,156.522,987.89,-0.655229,-0.474042,-1.85912,
2026_07_06_15_24_33.853,3.847,30.2,0,0.759,0,0,0,0, ,0,0,0,0,0, ,-39.1,157.1,987.4,-0.7,-0.5,-1.8,25,-38.6092,156.59,987.912,-0.654911,-0.475624,-1.85552,
2026_07_06_15_24_33.867,3.847,30.3,0,0.76,0,0,0,0, ,0,0,0,0,0, ,-38.2,156.2,988.5,-0.7,-0.4,-1.8,25,-38.6117,156.594,987.914,-0.657658,-0.474062,-1.85213,
2026_07_06_15_24_33.887,3.847,30.3,0,0.76,0,0,0,0, ,0,0,0,0,0, ,-38.4,156.9,987.3,-0.7,-0.5,-1.7,25,-38.5927,156.591,987.913,-0.660238,-0.472596,-1.84591,
2026_07_06_15_24_33.907,3.847,30.4,0,0.759,0,0,0,0, ,0,0,0,0,0, ,-38.3,156.1,988.4,-0.6,-0.4,-1.9,25,-38.5779,156.586,987.909,-0.659615,-0.471219,-1.84311,
2026_07_06_15_24_33.926,3.847,30.3,0,0.759,0,0,0,0, ,0,0,0,0,0, ,-38.4,156.1,986.8,-0.7,-0.5,-1.9,25,-38.564,156.556,987.89,-0.659029,-0.469926,-1.84658,
2026_07_06_15_24_33.947,3.847,30.3,0,0.759,0,0,0,0, ,0,0,0,0,0, ,-37.9,156.7,987.7,-0.7,-0.5,-1.8,25,-38.5388,156.547,987.851,-0.661525,-0.471759,-1.84679,
2026_07_06_15_24_33.966,3.847,30.3,0,0.761,0,0,0,0, ,0,0,0,0,0, ,-38.6,157.3,986.2,-0.7,-0.5,-1.8,25,-38.5212,156.574,987.796,-0.66387,-0.47348,-1.84394,
2026_07_06_15_24_33.986,3.847,30.3,0,0.76,0,0,0,0, ,0,0,0,0,0, ,-39.6,155.7,988,-0.6,-0.5,-1.8,25,-38.5564,156.57,987.754,-0.663025,-0.475096,-1.84126,
2026_07_06_15_24_34.006,3.847,30.3,0,0.76,0,0,0,0, ,0,0,0,0,0, ,-39.5,156.4,988,-0.7,-0.5,-1.8,25,-38.617,156.538,987.769,-0.662231,-0.476613,-1.83875,
2026_07_06_15_24_34.026,3.847,30.3,0,0.76,0,0,0,0, ,0,0,0,0,0, ,-38.8,157.1,989,-0.6,-0.5,-1.9,25,-38.6495,156.551,987.814,-0.661486,-0.478038,-1.83943,
2026_07_06_15_24_34.046,3.847,30.3,0,0.76,0,0,0,0, ,0,0,0,0,0, ,-38.4,156.3,988,-0.6,-0.4,-1.9,25,-38.6464,156.56,987.855,-0.657739,-0.47633,-1.84312,
2026_07_06_15_24_34.066,3.847,30.4,0,0.758,0,0,0,0, ,0,0,0,0,0, ,-37.4,156,987.1,-0.7,-0.5,-1.8,25,-38.601,156.535,987.837,-0.657267,-0.474725,-1.84354,
2026_07_06_15_24_34.086,3.847,30.3,0,0.76,0,0,0,0, ,0,0,0,0,0, ,-39.1,156.3,987.6,-0.6,-0.4,-1.8,25,-38.5796,156.512,987.807,-0.656824,-0.473219,-1.84089,
2026_07_06_15_24_34.105,3.847,30.3,0,0.758,0,0,0,0, ,0,0,0,0,0, ,-39.9,156,988,-0.6,-0.5,-1.8,25,-38.6357,156.49,987.807,-0.653362,-0.471804,-1.8384,
2026_07_06_15_24_34.125,3.847,30.4,0,0.76,0,0,0,0, ,0,0,0,0,0, ,-39.3,156.4,987.9,-0.6,-0.5,-1.9,25,-38.6944,156.472,987.815,-0.65011,-0.473522,-1.8391,
2026_07_06_15_24_34.144,3.847,30.3,0,0.758,0,0,0,0, ,0,0,0,0,0, ,-38.3,156.1,989.5,-0.6,-0.5,-1.8,25,-38.7009,156.458,987.869,-0.647056,-0.475136,-1.83977,
2026_07_06_15_24_34.165,3.847,30.3,0,0.76,0,0,0,0, ,0,0,0,0,0, ,-38.9,155.8,987.5,-0.7,-0.5,-1.9,25,-38.6947,156.427,987.908,-0.647236,-0.476651,-1.84039,
2026_07_06_15_24_34.184,3.847,30.3,0,0.76,0,0,0,0, ,0,0,0,0,0, ,-37.1,155.1,989.2,-0.6,-0.5,-1.9,25,-38.6524,156.368,987.935,-0.647404,-0.478074,-1.84402,
2026_07_06_15_24_34.204,3.847,30.4,0,0.759,0,0,0,0, ,0,0,0,0,0, ,-38.8,156.7,988.1,-0.7,-0.5,-1.9,25,-38.6096,156.339,987.978,-0.647562,-0.47941,-1.84743,
2026_07_06_15_24_34.223,3.847,30.3,0,0.759,0,0,0,0, ,0,0,0,0,0, ,-38,156.8,987.6,-0.7,-0.5,-1.9,25,-38.5968,156.364,987.97,-0.650758,-0.480664,-1.85064,
2026_07_06_15_24_34.243,3.847,30.3,0,0.759,0,0,0,0, ,0,0,0,0,0, ,-39.4,156.7,988.5,-0.7,-0.5,-1.9,25,-38.6031,156.388,987.975,-0.653759,-0.481843,-1.85365,
2026_07_06_15_24_34.263,3.847,30.3,0,0.759,0,0,0,0, ,0,0,0,0,0, ,-39,157.1,987.4,-0.7,-0.4,-1.9,25,-38.6395,156.419,987.974,-0.656576,-0.479902,-1.85647,
2026_07_06_15_24_34.283,3.847,30.3,0,0.758,0,0,0,0, ,0,0,0,0,0, ,-39.1,156.6,988.8,-0.7,-0.5,-1.9,25,-38.6645,156.445,987.981,-0.659222,-0.47808,-1.85912,
2026_07_06_15_24_34.303,3.847,30.3,0,0.76,0,0,0,0, ,0,0,0,0,0, ,-39.5,155.6,988,-0.7,-0.5,-1.9,25,-38.7032,156.424,988.007,-0.661707,-0.479416,-1.86161,
2026_07_06_15_24_34.322,3.847,30.3,0,0.758,0,0,0,0, ,0,0,0,0,0, ,-38.3,156.6,987.5,-0.7,-0.5,-1.8,25,-38.7152,156.405,987.991,-0.664041,-0.48067,-1.86091,
2026_07_06_15_24_34.342,3.847,30.3,0,0.758,0,0,0,0, ,0,0,0,0,0, ,-38,156.2,987.5,-0.7,-0.5,-1.8,25,-38.6808,156.404,987.961,-0.666232,-0.481848,-1.85719,
2026_07_06_15_24_34.363,3.847,30.3,0,0.759,0,0,0,0, ,0,0,0,0,0, ,-38.4,155.6,987.7,-0.6,-0.5,-1.9,25,-38.6515,156.374,987.939,-0.665243,-0.482954,-1.85676,
2026_07_06_15_24_34.383,3.847,30.3,0,0.758,0,0,0,0, ,0,0,0,0,0, ,-37.9,156.4,987.4,-0.7,-0.5,-1.8,25,-38.6209,156.351,987.916,-0.664314,-0.483993,-1.85634,
2026_07_06_15_24_34.402,3.847,30.3,0,0.76,0,0,0,0, ,0,0,0,0,0, ,-38.9,155.2,986.9,-0.7,-0.5,-1.8,25,-38.6074,156.317,987.869,-0.666489,-0.484968,-1.85291,
2026_07_06_15_24_34.422,3.847,30.3,0,0.759,0,0,0,0, ,0,0,0,0,0, ,-39.1,157.5,987.1,-0.7,-0.5,-1.8,25,-38.6314,156.319,987.816,-0.668531,-0.485884,-1.84969,
2026_07_06_15_24_34.441,3.847,30.3,0,0.759,0,0,0,0, ,0,0,0,0,0, ,-38.8,156,988.4,-0.6,-0.4,-1.9,25,-38.6508,156.345,987.812,-0.667402,-0.483698,-1.84971,
2026_07_06_15_24_34.462,3.847,30.2,0,0.759,0,0,0,0, ,0,0,0,0,0, ,-37.9,155.6,988.1,-0.6,-0.4,-1.8,25,-38.6325,156.312,987.839,-0.663294,-0.478597,-1.84972,
2026_07_06_15_24_34.481,3.847,30.4,0,0.759,0,0,0,0, ,0,0,0,0,0, ,-39.1,157.5,986.9,-0.6,-0.4,-1.8,25,-38.6244,156.327,987.818,-0.659437,-0.473808,-1.84669,
2026_07_06_15_24_34.501,3.847,30.4,0,0.758,0,0,0,0, ,0,0,0,0,0, ,-38.6,155.8,988.1,-0.6,-0.5,-1.9,25,-38.6381,156.346,987.799,-0.655815,-0.472357,-1.8469,
2026_07_06_15_24_34.521,3.847,30.4,0,0.759,0,0,0,0, ,0,0,0,0,0, ,-38.3,156.1,988.4,-0.7,-0.5,-1.9,25,-38.6267,156.322,987.826,-0.655461,-0.474042,-1.85013,
2026_07_06_15_24_34.541,3.847,30.3,0,0.759,0,0,0,0, ,0,0,0,0,0, ,-38.6,156.1,987.7,-0.7,-0.5,-1.9,25,-38.6159,156.309,987.84,-0.658175,-0.475623,-1.85317,
2026_07_06_15_24_34.560,3.847,30.4,0,0.76,0,0,0,0, ,0,0,0,0,0, ,-38.8,157.2,988.6,-0.6,-0.5,-1.9,25,-38.621,156.33,987.859,-0.657677,-0.477109,-1.85602,
2026_07_06_15_24_34.580,3.847,30.2,0,0.76,0,0,0,0, ,0,0,0,0,0, ,-38.3,156.1,988.2,-0.7,-0.5,-1.8,25,-38.6167,156.349,987.892,-0.657209,-0.478504,-1.85566,
2026_07_06_15_24_34.600,3.847,30.3,0,0.76,0,0,0,0, ,0,0,0,0,0, ,-38.9,155.6,988.8,-0.6,-0.4,-1.9,25,-38.6157,156.319,987.929,-0.65677,-0.476767,-1.85531,
2026_07_06_15_24_34.621,3.847,30.3,0,0.76,0,0,0,0, ,0,0,0,0,0, ,-39.5,155.7,987,-0.6,-0.5,-1.8,25,-38.6513,156.278,987.927,-0.65331,-0.475136,-1.85499,
2026_07_06_15_24_34.640,3.847,30.4,0,0.759,0,0,0,0, ,0,0,0,0,0, ,-39.6,157.3,988.2,-0.7,-0.4,-1.8,25,-38.7061,156.291,987.907,-0.653109,-0.473604,-1.85164,
2026_07_06_15_24_34.660,3.847,30.3,0,0.759,0,0,0,0, ,0,0,0,0,0, ,-39,155.7,987,-0.7,-0.5,-1.9,25,-38.7422,156.304,987.888,-0.655966,-0.472166,-1.85154,
2026_07_06_15_24_34.679,3.847,30.3,0,0.759,0,0,0,0, ,0,0,0,0,0, ,-37.7,155.8,988.8,-0.7,-0.5,-1.9,25,-38.7183,156.27,987.889,-0.658649,-0.473862,-1.85449,
2026_07_06_15_24_34.704,3.847,30.4,0,0.758,0,0,0,0, ,0,0,0,0,0, ,-38.2,156.2,988.1,-0.7,-0.4,-2,25,-38.6715,156.254,987.923,-0.661169,-0.472408,-1.86031,
2026_07_06_15_24_34.719,3.847,30.4,0,0.758,0,0,0,0, ,0,0,0,0,0, ,-38.5,155.7,988,-0.7,-0.5,-1.8,25,-38.6519,156.235,987.931,-0.663535,-0.471042,-1.86273,
2026_07_06_15_24_34.738,3.847,30.4,0,0.76,0,0,0,0, ,0,0,0,0,0, ,-39,157.3,986.8,-0.6,-0.5,-1.9,25,-38.6579,156.252,987.899,-0.662711,-0.472807,-1.86195,
2026_07_06_15_24_34.758,3.847,30.3,0,0.759,0,0,0,0, ,0,0,0,0,0, ,-39.1,156.7,989.1,-0.6,-0.5,-1.8,25,-38.6818,156.297,987.902,-0.658889,-0.474464,-1.86123,
2026_07_06_15_24_34.779,3.847,30.3,0,0.759,0,0,0,0, ,0,0,0,0,0, ,-38.9,157.3,988,-0.7,-0.5,-1.9,25,-38.7012,156.34,987.941,-0.658348,-0.47602,-1.86054,
2026_07_06_15_24_34.799,3.847,30.4,0,0.76,0,0,0,0, ,0,0,0,0,0, ,-38.3,154.9,987.7,-0.7,-0.4,-1.8,25,-38.695,156.325,987.936,-0.660886,-0.474434,-1.8599,
2026_07_06_15_24_34.818,3.847,30.3,0,0.76,0,0,0,0, ,0,0,0,0,0, ,-38.5,156.6,988.8,-0.7,-0.5,-1.8,25,-38.677,156.29,987.955,-0.663269,-0.472945,-1.85625,
2026_07_06_15_24_34.838,3.847,30.3,0,0.757,0,0,0,0, ,0,0,0,0,0, ,-39,154.9,987.1,-0.7,-0.5,-1.8,25,-38.6815,156.257,987.955,-0.665508,-0.474594,-1.85282,
2026_07_06_15_24_34.858,3.847,30.2,0,0.76,0,0,0,0, ,0,0,0,0,0, ,-38.5,156.9,987.7,-0.7,-0.5,-1.9,25,-38.6857,156.236,987.921,-0.667609,-0.476142,-1.85265,
2026_07_06_15_24_34.878,3.847,30.5,0,0.759,0,0,0,0, ,0,0,0,0,0, ,-38.9,157.2,988,-0.6,-0.5,-1.8,25,-38.6865,156.285,987.916,-0.666536,-0.477596,-1.85249,
2026_07_06_15_24_34.898,3.847,30.4,0,0.759,0,0,0,0, ,0,0,0,0,0, ,-38.3,155.7,988.2,-0.7,-0.5,-1.8,25,-38.6813,156.295,987.928,-0.665529,-0.478961,-1.84929,
2026_07_06_15_24_34.918,3.847,30.3,0,0.759,0,0,0,0, ,0,0,0,0,0, ,-38,155.3,987.7,-0.6,-0.5,-1.8,25,-38.6489,156.247,987.929,-0.664582,-0.480243,-1.84629,
2026_07_06_15_24_34.937,3.847,30.3,0,0.759,0,0,0,0, ,0,0,0,0,0, ,-38.2,155.3,988.8,-0.6,-0.5,-1.9,25,-38.6154,156.189,987.949,-0.660647,-0.481447,-1.84651,
2026_07_06_15_24_34.957,3.847,30.5,0,0.758,0,0,0,0, ,0,0,0,0,0, ,-38.6,155.5,987.1,-0.7,-0.4,-1.9,25,-38.6023,156.141,987.949,-0.659998,-0.479531,-1.84977,
2026_07_06_15_24_34.976,3.847,30.4,0,0.758,0,0,0,0, ,0,0,0,0,0, ,-39.1,157.4,987.3,-0.6,-0.5,-1.9,25,-38.6174,156.16,987.903,-0.659389,-0.477731,-1.85283,
2026_07_06_15_24_34.996,3.847,30.4,0,0.759,0,0,0,0, ,0,0,0,0,0, ,-39,157.3,988,-0.6,-0.5,-1.8,25,-38.6438,156.232,987.888,-0.65577,-0.479088,-1.85266,
2026_07_06_15_24_35.016,3.847,30.5,0,0.759,0,0,0,0, ,0,0,0,0,0, ,-37.3,158.5,989.9,-0.6,-0.5,-1.9,25,-38.6137,156.334,987.952,-0.652371,-0.480363,-1.8525,
2026_07_06_15_24_35.036,3.847,30.4,0,0.759,0,0,0,0, ,0,0,0,0,0, ,-39.6,154.9,987.6,-0.6,-0.4,-1.9,25,-38.6037,156.356,988.001,-0.64918,-0.478513,-1.85539,
2026_07_06_15_24_35.056,3.847,30.3,0,0.758,0,0,0,0, ,0,0,0,0,0, ,-37.8,154.7,987,-0.7,-0.5,-1.8,25,-38.6096,156.261,987.958,-0.64923,-0.476775,-1.85506,
2026_07_06_15_24_35.076,3.847,30.5,0,0.76,0,0,0,0, ,0,0,0,0,0, ,-37.7,156.3,988,-0.6,-0.5,-1.8,25,-38.5572,156.215,987.93,-0.649277,-0.47819,-1.85171,
2026_07_06_15_24_35.096,3.847,30.4,0,0.759,0,0,0,0, ,0,0,0,0,0, ,-36.7,157.1,988.1,-0.7,-0.5,-1.9,25,-38.4745,156.245,987.938,-0.649321,-0.479519,-1.8516,
2026_07_06_15_24_35.115,3.847,30.4,0,0.758,0,0,0,0, ,0,0,0,0,0, ,-38,156.2,987.5,-0.6,-0.6,-1.8,25,-38.406,156.269,987.929,-0.649362,-0.483814,-1.85151,
2026_07_06_15_24_35.135,3.847,30.3,0,0.76,0,0,0,0, ,0,0,0,0,0, ,-38.6,155.6,987.6,-0.6,-0.5,-1.8,25,-38.3995,156.247,987.906,-0.646354,-0.487847,-1.84837,
2026_07_06_15_24_35.155,3.847,30.4,0,0.758,0,0,0,0, ,0,0,0,0,0, ,-39.3,156.3,987.7,-0.7,-0.5,-1.8,25,-38.4331,156.229,987.891,-0.646576,-0.488588,-1.84542,
2026_07_06_15_24_35.174,3.847,30.3,0,0.76,0,0,0,0, ,0,0,0,0,0, ,-37.5,156.7,988.5,-0.8,-0.4,-1.9,25,-38.431,156.245,987.903,-0.652879,-0.486237,-1.8457,
2026_07_06_15_24_35.199,3.847,30.2,0,0.759,0,0,0,0, ,0,0,0,0,0, ,-39.5,156.6,988.4,-0.7,-0.5,-1.9,25,-38.4352,156.27,987.937,-0.658797,-0.484028,-1.84901,
2026_07_06_15_24_35.215,3.847,30.4,0,0.762,0,0,0,0, ,0,0,0,0,0, ,-39.4,156.9,987.9,-0.5,-0.4,-1.8,25,-38.4971,156.299,987.95,-0.655214,-0.481955,-1.84907,
2026_07_06_15_24_35.235,3.847,30.3,0,0.758,0,0,0,0, ,0,0,0,0,0, ,-39.9,156.8,987.4,-0.7,-0.4,-1.8,25,-38.5673,156.333,987.931,-0.65185,-0.476961,-1.84608,
2026_07_06_15_24_35.255,3.847,30.4,0,0.757,0,0,0,0, ,0,0,0,0,0, ,-38.8,156.4,986.3,-0.7,-0.5,-1.9,25,-38.615,156.349,987.865,-0.654784,-0.475318,-1.84632,
2026_07_06_15_24_35.274,3.847,30.3,0,0.76,0,0,0,0, ,0,0,0,0,0, ,-39,155.8,989.1,-0.6,-0.5,-1.8,25,-38.6324,156.334,987.855,-0.654492,-0.476822,-1.84654,
2026_07_06_15_24_35.294,3.847,30.4,0,0.759,0,0,0,0, ,0,0,0,0,0, ,-38.9,156.9,987.9,-0.6,-0.4,-1.8,25,-38.6517,156.335,987.895,-0.651172,-0.475187,-1.84371,
2026_07_06_15_24_35.314,3.847,30.4,0,0.759,0,0,0,0, ,0,0,0,0,0, ,-37.8,156.7,988.6,-0.7,-0.5,-1.8,25,-38.6334,156.363,987.916,-0.6511,-0.473652,-1.84104,
2026_07_06_15_24_35.333,3.847,30.4,0,0.762,0,0,0,0, ,0,0,0,0,0, ,-38.9,155.8,988.4,-0.7,-0.5,-1.8,25,-38.6161,156.356,987.952,-0.65408,-0.475258,-1.83854,
2026_07_06_15_24_35.353,3.847,30.3,0,0.758,0,0,0,0, ,0,0,0,0,0, ,-38.4,156.2,988.8,-0.7,-0.5,-1.8,25,-38.6182,156.335,987.991,-0.656878,-0.476766,-1.83619,
2026_07_06_15_24_35.373,3.847,30.3,0,0.758,0,0,0,0, ,0,0,0,0,0, ,-38.6,156.9,987.4,-0.7,-0.5,-1.8,25,-38.611,156.348,987.998,-0.659506,-0.478182,-1.83399,
2026_07_06_15_24_35.393,3.847,30.3,0,0.758,0,0,0,0, ,0,0,0,0,0, ,-38.4,156,988.8,-0.7,-0.5,-1.8,25,-38.6042,156.354,988.004,-0.661974,-0.479511,-1.83192,
2026_07_06_15_24_35.413,3.847,30.3,0,0.758,0,0,0,0, ,0,0,0,0,0, ,-39,156.1,988.1,-0.7,-0.5,-1.9,25,-38.61,156.335,988.031,-0.664291,-0.48076,-1.83302,
2026_07_06_15_24_35.432,3.847,30.4,0,0.758,0,0,0,0, ,0,0,0,0,0, ,-38.8,155.5,988.5,-0.6,-0.5,-1.9,25,-38.6277,156.303,988.048,-0.66342,-0.481932,-1.8371,
2026_07_06_15_24_35.456,3.847,30.4,0,0.758,0,0,0,0, ,0,0,0,0,0, ,-39.4,157.2,987.6,-0.7,-0.4,-1.9,25,-38.6565,156.306,988.048,-0.662602,-0.479986,-1.84093,
2026_07_06_15_24_35.472,3.847,30.3,0,0.76,0,0,0,0, ,0,0,0,0,0, ,-39.1,156.7,988,-0.6,-0.5,-1.9,25,-38.6927,156.345,988.033,-0.661834,-0.478159,-1.84453,
2026_07_06_15_24_35.492,3.847,30.4,0,0.76,0,0,0,0, ,0,0,0,0,0, ,-39.1,156.9,987.9,-0.7,-0.5,-1.9,25,-38.7175,156.373,988.028,-0.661113,-0.47949,-1.84791,
2026_07_06_15_24_35.511,3.847,30.4,0,0.76,0,0,0,0, ,0,0,0,0,0, ,-37.7,156.6,987,-0.6,-0.5,-1.9,25,-38.6981,156.396,987.993,-0.660436,-0.48074,-1.85109,
2026_07_06_15_24_35.532,3.847,30.3,0,0.758,0,0,0,0, ,0,0,0,0,0, ,-39.5,155.5,987.4,-0.6,-0.5,-1.9,25,-38.6921,156.375,987.944,-0.656753,-0.481913,-1.85407,
2026_07_06_15_24_35.551,3.847,30.4,0,0.761,0,0,0,0, ,0,0,0,0,0, ,-38.4,155.8,988.1,-0.7,-0.5,-1.9,25,-38.7079,156.33,987.932,-0.656342,-0.483016,-1.85687,
2026_07_06_15_24_35.571,3.847,30.3,0,0.76,0,0,0,0, ,0,0,0,0,0, ,-39.1,156.2,988.5,-0.7,-0.5,-1.8,25,-38.7104,156.31,987.955,-0.659002,-0.484051,-1.85645,
2026_07_06_15_24_35.590,3.847,30.3,0,0.758,0,0,0,0, ,0,0,0,0,0, ,-38.2,156.4,988.1,-0.6,-0.5,-1.9,25,-38.7067,156.31,987.976,-0.658453,-0.485022,-1.85605,
2026_07_06_15_24_35.611,3.847,30.4,0,0.76,0,0,0,0, ,0,0,0,0,0, ,-38.3,157.2,987.5,-0.6,-0.5,-1.9,25,-38.6789,156.34,987.965,-0.654891,-0.485935,-1.85873,
2026_07_06_15_24_35.630,3.847,30.4,0,0.76,0,0,0,0, ,0,0,0,0,0, ,-38.4,156.2,987.5,-0.7,-0.4,-1.8,25,-38.6589,156.362,987.937,-0.654593,-0.483745,-1.8582,
2026_07_06_15_24_35.650,3.847,30.3,0,0.758,0,0,0,0, ,0,0,0,0,0, ,-39.9,156,987.4,-0.7,-0.4,-1.9,25,-38.6888,156.346,987.907,-0.65736,-0.478642,-1.8577,
2026_07_06_15_24_35.670,3.847,30.2,0,0.76,0,0,0,0, ,0,0,0,0,0, ,-38,156.7,987.6,-0.6,-0.5,-1.9,25,-38.7047,156.346,987.882,-0.656912,-0.476897,-1.86028,
2026_07_06_15_24_35.690,3.847,30.3,0,0.76,0,0,0,0, ,0,0,0,0,0, ,-37.1,156.6,988.5,-0.7,-0.4,-1.9,25,-38.6344,156.364,987.893,-0.656491,-0.475258,-1.8627,
2026_07_06_15_24_35.711,3.847,30.4,0,0.759,0,0,0,0, ,0,0,0,0,0, ,-38.4,156.1,987.1,-0.7,-0.5,-1.9,25,-38.5805,156.364,987.887,-0.659142,-0.473719,-1.86497,
2026_07_06_15_24_35.730,3.847,30.3,0,0.76,0,0,0,0, ,0,0,0,0,0, ,-38.4,156.7,987.5,-0.7,-0.5,-1.9,25,-38.5695,156.366,987.851,-0.661632,-0.47532,-1.86711,
2026_07_06_15_24_35.749,3.847,30.3,0,0.758,0,0,0,0, ,0,0,0,0,0, ,-39.7,156,988.5,-0.7,-0.5,-1.9,25,-38.5987,156.365,987.86,-0.66397,-0.476824,-1.86911,
2026_07_06_15_24_35.769,3.847,30.3,0,0.758,0,0,0,0, ,0,0,0,0,0, ,-39.5,158,988.7,-0.6,-0.5,-1.9,25,-38.6598,156.403,987.905,-0.663119,-0.478236,-1.87099,
2026_07_06_15_24_35.789,3.847,30.3,0,0.758,0,0,0,0, ,0,0,0,0,0, ,-38.8,156.3,987.7,-0.8,-0.5,-1.9,25,-38.6896,156.449,987.923,-0.665366,-0.479563,-1.87276,
2026_07_06_15_24_35.809,3.847,30.3,0,0.76,0,0,0,0, ,0,0,0,0,0, ,-37.3,156.1,987.1,-0.9,-0.5,-1.9,25,-38.6507,156.434,987.891,-0.676617,-0.480808,-1.87442,
2026_07_06_15_24_35.828,3.847,30.3,0,0.76,0,0,0,0, ,0,0,0,0,0, ,-38.5,156.2,987.9,-0.7,-0.5,-1.8,25,-38.6049,156.417,987.867,-0.684136,-0.481977,-1.87293,
2026_07_06_15_24_35.848,3.847,30.3,0,0.76,0,0,0,0, ,0,0,0,0,0, ,-38.3,155.8,987.6,-0.6,-0.5,-1.8,25,-38.5924,156.391,987.86,-0.682056,-0.483076,-1.86849,
2026_07_06_15_24_35.868,3.847,30.3,0,0.76,0,0,0,0, ,0,0,0,0,0, ,-39.9,156.3,988.6,-0.6,-0.4,-1.9,25,-38.6234,156.37,987.875,-0.677055,-0.48106,-1.86736,
2026_07_06_15_24_35.888,3.847,30.4,0,0.76,0,0,0,0, ,0,0,0,0,0, ,-39.6,156,988,-0.7,-0.5,-1.8,25,-38.692,156.357,987.901,-0.675407,-0.479167,-1.8663,
2026_07_06_15_24_35.907,3.847,30.4,0,0.76,0,0,0,0, ,0,0,0,0,0, ,-39,156,986.5,-0.6,-0.5,-1.9,25,-38.7291,156.335,987.861,-0.673858,-0.480437,-1.86531,
2026_07_06_15_24_35.927,3.847,30.4,0,0.76,0,0,0,0, ,0,0,0,0,0, ,-38.9,155.2,988.2,-0.7,-0.5,-1.8,25,-38.7425,156.29,987.83,-0.672405,-0.481629,-1.86438,
2026_07_06_15_24_35.948,3.847,30.4,0,0.76,0,0,0,0, ,0,0,0,0,0, ,-39.5,157.8,988.1,-0.7,-0.4,-1.9,25,-38.7704,156.303,987.85,-0.674086,-0.479702,-1.8635,
2026_07_06_15_24_35.968,3.847,30.2,0,0.76,0,0,0,0, ,0,0,0,0,0, ,-39,155.8,989,-0.7,-0.5,-1.9,25,-38.7996,156.333,987.892,-0.675665,-0.477892,-1.86573,
2026_07_06_15_24_35.989,3.847,30.4,0,0.762,0,0,0,0, ,0,0,0,0,0, ,-39.6,156.3,987.9,-0.7,-0.5,-1.8,25,-38.8301,156.316,987.926,-0.677148,-0.479239,-1.86477,
2026_07_06_15_24_36.007,3.847,30.3,0,0.757,0,0,0,0, ,0,0,0,0,0, ,-37.7,157.3,988.1,-0.7,-0.5,-1.9,25,-38.8191,156.346,987.931,-0.678541,-0.480504,-1.86387,
2026_07_06_15_24_36.028,3.847,30.3,0,0.76,0,0,0,0, ,0,0,0,0,0, ,-37.7,156.3,986.8,-0.7,-0.5,-1.8,25,-38.7509,156.373,987.901,-0.679848,-0.481692,-1.86302,
2026_07_06_15_24_36.047,3.847,30.4,0,0.761,0,0,0,0, ,0,0,0,0,0, ,-38.8,156,988.5,-0.7,-0.5,-1.8,25,-38.7204,156.36,987.886,-0.681076,-0.482808,-1.85918,
2026_07_06_15_24_36.066,3.847,30.3,0,0.761,0,0,0,0, ,0,0,0,0,0, ,-38.6,155.6,988.2,-0.7,-0.4,-1.8,25,-38.7192,156.326,987.914,-0.68223,-0.480809,-1.85558,
2026_07_06_15_24_36.086,3.847,30.3,0,0.758,0,0,0,0, ,0,0,0,0,0, ,-39.4,155.7,988,-0.7,-0.5,-1.9,25,-38.7363,156.284,987.926,-0.683312,-0.478931,-1.85524,
2026_07_06_15_24_36.106,3.847,30.3,0,0.761,0,0,0,0, ,0,0,0,0,0, ,-38.3,157.2,989.3,-0.7,-0.5,-1.8,25,-38.7432,156.295,987.97,-0.684329,-0.480215,-1.85492,
2026_07_06_15_24_36.126,3.847,30.3,0,0.758,0,0,0,0, ,0,0,0,0,0, ,-39.1,155.2,988.6,-0.7,-0.5,-1.9,25,-38.7406,156.289,988.03,-0.685284,-0.481421,-1.85462,
2026_07_06_15_24_36.146,3.847,30.3,0,0.758,0,0,0,0, ,0,0,0,0,0, ,-38.6,157.5,987.9,-0.7,-0.4,-1.9,25,-38.7473,156.292,988.043,-0.686181,-0.479506,-1.85738,
2026_07_06_15_24_36.166,3.847,30.3,0,0.76,0,0,0,0, ,0,0,0,0,0, ,-38.9,156.1,989.2,-0.6,-0.5,-1.8,25,-38.7474,156.323,988.074,-0.683976,-0.477708,-1.85693,
2026_07_06_15_24_36.185,3.847,30.3,0,0.758,0,0,0,0, ,0,0,0,0,0, ,-39,157.2,987.5,-0.6,-0.5,-1.8,25,-38.7598,156.343,988.091,-0.678859,-0.479066,-1.85346,
2026_07_06_15_24_36.206,3.847,30.3,0,0.758,0,0,0,0, ,0,0,0,0,0, ,-39.3,156.8,986.9,-0.7,-0.5,-1.8,25,-38.7835,156.383,988.036,-0.6771,-0.480342,-1.85021,
2026_07_06_15_24_36.225,3.847,30.3,0,0.76,0,0,0,0, ,0,0,0,0,0, ,-39.1,155.5,987.7,-0.6,-0.5,-1.8,25,-38.8089,156.369,987.992,-0.675449,-0.48154,-1.84715,
2026_07_06_15_24_36.245,3.847,30.3,0,0.76,0,0,0,0, ,0,0,0,0,0, ,-38.5,155.6,988.4,-0.5,-0.5,-1.9,25,-38.8084,156.319,987.995,-0.667804,-0.482665,-1.84732,
2026_07_06_15_24_36.265,3.847,30.3,0,0.758,0,0,0,0, ,0,0,0,0,0, ,-38.6,156.2,988.5,-0.6,-0.4,-1.9,25,-38.7926,156.294,988.023,-0.660626,-0.480674,-1.85053,
2026_07_06_15_24_36.284,3.847,30.3,0,0.761,0,0,0,0, ,0,0,0,0,0, ,-39.5,155.6,988.4,-0.7,-0.5,-1.8,25,-38.8083,156.27,988.049,-0.659978,-0.478805,-1.8505,
2026_07_06_15_24_36.304,3.847,30.3,0,0.76,0,0,0,0, ,0,0,0,0,0, ,-39.4,155.6,987.5,-0.6,-0.5,-1.8,25,-38.8474,156.229,988.043,-0.65937,-0.480097,-1.84742,
2026_07_06_15_24_36.324,3.847,30.3,0,0.76,0,0,0,0, ,0,0,0,0,0, ,-39,157.8,987.3,-0.6,-0.4,-1.8,25,-38.8689,156.258,988.004,-0.655752,-0.478263,-1.84453,
2026_07_06_15_24_36.344,3.847,30.3,0,0.761,0,0,0,0, ,0,0,0,0,0, ,-38.8,156.6,987.4,-0.7,-0.5,-1.9,25,-38.8708,156.315,987.964,-0.655402,-0.47654,-1.84486,
2026_07_06_15_24_36.363,3.847,30.2,0,0.76,0,0,0,0, ,0,0,0,0,0, ,-38.3,156.7,986.8,-0.7,-0.4,-1.9,25,-38.8512,156.335,987.911,-0.658119,-0.474923,-1.84822,
2026_07_06_15_24_36.384,3.847,30.3,0,0.76,0,0,0,0, ,0,0,0,0,0, ,-38.5,155.3,986.3,-0.6,-0.5,-1.8,25,-38.8238,156.315,987.828,-0.657625,-0.473404,-1.84833,
2026_07_06_15_24_36.404,3.847,30.4,0,0.758,0,0,0,0, ,0,0,0,0,0, ,-39.3,156.9,988,-0.6,-0.4,-1.9,25,-38.8284,156.302,987.787,-0.654113,-0.471978,-1.84843,
2026_07_06_15_24_36.424,3.847,30.3,0,0.76,0,0,0,0, ,0,0,0,0,0, ,-38.6,155.7,987.4,-0.7,-0.4,-1.8,25,-38.8358,156.302,987.782,-0.653863,-0.467592,-1.84853,
2026_07_06_15_24_36.443,3.847,30.3,0,0.761,0,0,0,0, ,0,0,0,0,0, ,-37.7,156.6,987.7,-0.7,-0.4,-1.9,25,-38.794,156.293,987.768,-0.656674,-0.463473,-1.84862,
2026_07_06_15_24_36.462,3.847,30.3,0,0.761,0,0,0,0, ,0,0,0,0,0, ,-38.4,156.3,987.5,-0.6,-0.4,-1.9,25,-38.7487,156.302,987.757,-0.656267,-0.459605,-1.85175,
2026_07_06_15_24_36.483,3.847,30.3,0,0.758,0,0,0,0, ,0,0,0,0,0, ,-38.4,157.3,987.3,-0.6,-0.4,-1.8,25,-38.7274,156.332,987.736,-0.652839,-0.455973,-1.85164,
2026_07_06_15_24_36.502,3.847,30.3,0,0.761,0,0,0,0, ,0,0,0,0,0, ,-38.4,156.3,987.9,-0.7,-0.5,-1.9,25,-38.7075,156.361,987.727,-0.652666,-0.455609,-1.85154,
2026_07_06_15_24_36.524,3.847,30.3,0,0.76,0,0,0,0, ,0,0,0,0,0, ,-38.5,155.3,987.4,-0.7,-0.5,-1.9,25,-38.6918,156.327,987.723,-0.65555,-0.458314,-1.8545,
2026_07_06_15_24_36.543,3.847,30.3,0,0.759,0,0,0,0, ,0,0,0,0,0, ,-38.5,155.8,987.6,-0.6,-0.4,-1.8,25,-38.6801,156.279,987.709,-0.655212,-0.457807,-1.85422,
2026_07_06_15_24_36.562,3.847,30.4,0,0.76,0,0,0,0, ,0,0,0,0,0, ,-37.3,156.9,988.4,-0.6,-0.4,-1.9,25,-38.6326,156.284,987.727,-0.651847,-0.454285,-1.85396,
2026_07_06_15_24_36.583,3.847,30.3,0,0.761,0,0,0,0, ,0,0,0,0,0, ,-39.3,157.3,988.7,-0.7,-0.5,-1.8,25,-38.6123,156.333,987.777,-0.651735,-0.454024,-1.85372,
2026_07_06_15_24_36.601,3.847,30.4,0,0.759,0,0,0,0, ,0,0,0,0,0, ,-38.6,156.1,988.5,-0.7,-0.5,-1.8,25,-38.6329,156.356,987.827,-0.654676,-0.456825,-1.85045,
2026_07_06_15_24_36.621,3.847,30.3,0,0.761,0,0,0,0, ,0,0,0,0,0, ,-38.8,156.4,986.8,-0.7,-0.4,-2,25,-38.637,156.349,987.816,-0.657438,-0.456409,-1.85347,
2026_07_06_15_24_36.642,3.847,30.4,0,0.76,0,0,0,0, ,0,0,0,0,0, ,-39.6,156.1,987.7,-0.7,-0.4,-1.9,25,-38.6713,156.343,987.782,-0.660031,-0.452972,-1.85935,
2026_07_06_15_24_36.661,3.847,30.3,0,0.759,0,0,0,0, ,0,0,0,0,0, ,-37.8,156.9,986.5,-0.7,-0.5,-1.9,25,-38.673,156.353,987.74,-0.662467,-0.452791,-1.86183,
2026_07_06_15_24_36.681,3.847,30.3,0,0.761,0,0,0,0, ,0,0,0,0,0, ,-38.9,156.1,987.7,-0.6,-0.5,-1.8,25,-38.6533,156.362,987.701,-0.661707,-0.455668,-1.86111,
2026_07_06_15_24_36.701,3.847,30.3,0,0.759,0,0,0,0, ,0,0,0,0,0, ,-37.9,157.4,986.8,-0.6,-0.5,-1.9,25,-38.6379,156.385,987.674,-0.657947,-0.458369,-1.86043,
2026_07_06_15_24_36.721,3.847,30.3,0,0.76,0,0,0,0, ,0,0,0,0,0, ,-37.9,157.2,987.1,-0.6,-0.4,-1.8,25,-38.5929,156.441,987.63,-0.654416,-0.457859,-1.85979,
2026_07_06_15_24_36.741,3.847,30.4,0,0.758,0,0,0,0, ,0,0,0,0,0, ,-38.9,155.7,989,-0.6,-0.4,-1.9,25,-38.5812,156.442,987.655,-0.6511,-0.454333,-1.8592,
2026_07_06_15_24_36.760,3.847,30.4,0,0.76,0,0,0,0, ,0,0,0,0,0, ,-38,155.3,989.5,-0.6,-0.5,-1.8,25,-38.5732,156.384,987.752,-0.647986,-0.454069,-1.85864,
2026_07_06_15_24_36.780,3.847,30.3,0,0.759,0,0,0,0, ,0,0,0,0,0, ,-38,156.7,987.9,-0.7,-0.5,-1.9,25,-38.5383,156.361,987.81,-0.648109,-0.456868,-1.85811,
2026_07_06_15_24_36.800,3.847,30.3,0,0.758,0,0,0,0, ,0,0,0,0,0, ,-38,156.6,987.3,-0.6,-0.4,-1.8,25,-38.5055,156.379,987.797,-0.648224,-0.45645,-1.85762,
2026_07_06_15_24_36.820,3.847,30.2,0,0.761,0,0,0,0, ,0,0,0,0,0, ,-39.5,155.7,987.9,-0.6,-0.4,-1.8,25,-38.5204,156.365,987.785,-0.645285,-0.45301,-1.85411,
2026_07_06_15_24_36.840,3.847,30.3,0,0.76,0,0,0,0, ,0,0,0,0,0, ,-38.3,155.7,986.9,-0.7,-0.4,-1.8,25,-38.5435,156.324,987.762,-0.645573,-0.44978,-1.85081,
2026_07_06_15_24_36.859,3.847,30.4,0,0.761,0,0,0,0, ,0,0,0,0,0, ,-39.5,155.8,987.7,-0.7,-0.4,-1.9,25,-38.5652,156.289,987.734,-0.648889,-0.446746,-1.85076,
2026_07_06_15_24_36.878,3.847,30.4,0,0.758,0,0,0,0, ,0,0,0,0,0, ,-39.3,156.2,988.2,-0.6,-0.5,-1.9,25,-38.6161,156.272,987.747,-0.648957,-0.446944,-1.85376,
2026_07_06_15_24_36.899,3.847,30.3,0,0.76,0,0,0,0, ,0,0,0,0,0, ,-39.1,156,989.1,-0.7,-0.5,-1.8,25,-38.6517,156.261,987.802,-0.649021,-0.450177,-1.85353,
2026_07_06_15_24_36.919,3.847,30.3,0,0.76,0,0,0,0, ,0,0,0,0,0, ,-37.7,156.6,987.6,-0.7,-0.5,-1.9,25,-38.6363,156.263,987.835,-0.652127,-0.453214,-1.85332,
2026_07_06_15_24_36.943,3.847,30.3,0,0.759,0,0,0,0, ,0,0,0,0,0, ,-39.6,156.3,986.3,-0.7,-0.5,-1.9,25,-38.6372,156.275,987.781,-0.655044,-0.456065,-1.85616,
2026_07_06_15_24_36.958,3.847,30.3,0,0.76,0,0,0,0, ,0,0,0,0,0, ,-38,157.3,988,-0.6,-0.5,-1.9,25,-38.6471,156.307,987.743,-0.654737,-0.458742,-1.85883,
2026_07_06_15_24_36.979,3.847,30.3,0,0.76,0,0,0,0, ,0,0,0,0,0, ,-38.6,155.7,987,-0.7,-0.5,-1.8,25,-38.6259,156.319,987.728,-0.654448,-0.461256,-1.85829,
2026_07_06_15_24_36.997,3.847,30.4,0,0.76,0,0,0,0, ,0,0,0,0,0, ,-39.4,156.8,987.1,-0.7,-0.4,-1.9,25,-38.6487,156.314,987.687,-0.657224,-0.46057,-1.85779,
2026_07_06_15_24_37.014,3.847,30.4,0,0.761,0,0,0,0, ,0,0,0,0,0, ,-39.3,155.6,989.1,-0.6,-0.5,-1.9,25,-38.6915,156.307,987.712,-0.656784,-0.459926,-1.86036,
2026_07_06_15_24_37.026,3.847,30.3,0,0.76,0,0,0,0, ,0,0,0,0,0, ,-39,156.7,987.7,-0.6,-0.5,-1.8,25,-38.7194,156.298,987.754,-0.653324,-0.462368,-1.85973,
2026_07_06_15_24_37.058,3.847,30.4,0,0.757,0,0,0,0, ,0,0,0,0,0, ,-38.5,156.1,989.1,-0.7,-0.5,-1.9,25,-38.7213,156.304,987.793,-0.653121,-0.464661,-1.85914,
2026_07_06_15_24_37.074,3.847,30.3,0,0.76,0,0,0,0, ,0,0,0,0,0, ,-40.4,155.8,987.5,-0.6,-0.5,-1.8,25,-38.7657,156.282,987.824,-0.652931,-0.466815,-1.85858,
2026_07_06_15_24_37.094,3.847,30.5,0,0.76,0,0,0,0, ,0,0,0,0,0, ,-38.5,157.2,988.1,-0.6,-0.4,-1.8,25,-38.8074,156.296,987.823,-0.649705,-0.46579,-1.85501,
2026_07_06_15_24_37.108,3.847,30.4,0,0.761,0,0,0,0, ,0,0,0,0,0, ,-39.1,156.2,988.7,-0.7,-0.5,-1.9,25,-38.8069,156.32,987.858,-0.649723,-0.464828,-1.8547,
2026_07_06_15_24_37.138,3.847,30.4,0,0.761,0,0,0,0, ,0,0,0,0,0, ,-38.8,156.2,986.3,-0.6,-0.4,-1.8,25,-38.8156,156.313,987.836,-0.64974,-0.463924,-1.85442,
2026_07_06_15_24_37.154,3.847,30.4,0,0.76,0,0,0,0, ,0,0,0,0,0, ,-38.3,155.6,988.7,-0.6,-0.5,-1.9,25,-38.7995,156.288,987.816,-0.646709,-0.463076,-1.85415,
2026_07_06_15_24_37.170,3.847,30.4,0,0.76,0,0,0,0, ,0,0,0,0,0, ,-38,156.2,987.9,-0.7,-0.4,-1.9,25,-38.7599,156.264,987.845,-0.64691,-0.462279,-1.85694,
2026_07_06_15_24_37.195,3.847,30.4,0,0.76,0,0,0,0, ,0,0,0,0,0, ,-38.9,157.5,987,-0.7,-0.5,-1.8,25,-38.741,156.3,987.821,-0.650145,-0.461531,-1.85652,
2026_07_06_15_24_37.202,3.847,30.4,0,0.76,0,0,0,0, ,0,0,0,0,0, ,-38.4,156.2,987.7,-0.7,-0.4,-1.8,25,-38.7355,156.333,987.792,-0.653183,-0.460828,-1.85308,
2026_07_06_15_24_37.233,3.847,30.3,0,0.759,0,0,0,0, ,0,0,0,0,0, ,-37.9,156.9,987.9,-0.6,-0.5,-1.9,25,-38.6998,156.347,987.793,-0.652989,-0.460168,-1.85289,
2026_07_06_15_24_37.249,3.847,30.3,0,0.759,0,0,0,0, ,0,0,0,0,0, ,-39.5,156.6,988.6,-0.6,-0.5,-1.8,25,-38.6998,156.371,987.821,-0.64976,-0.462595,-1.85271,
2026_07_06_15_24_37.265,3.847,30.3,0,0.761,0,0,0,0, ,0,0,0,0,0, ,-38.9,156.8,988.4,-0.6,-0.5,-1.8,25,-38.7303,156.391,987.862,-0.646728,-0.464875,-1.8495,
2026_07_06_15_24_37.294,3.847,30.3,0,0.76,0,0,0,0, ,0,0,0,0,0, ,-38.3,156.9,987,-0.7,-0.5,-1.7,25,-38.7223,156.419,987.852,-0.646927,-0.467015,-1.84344,
2026_07_06_15_24_37.312,3.847,30.4,0,0.76,0,0,0,0, ,0,0,0,0,0, ,-39.7,156.3,987.9,-0.6,-0.4,-1.9,25,-38.7393,156.43,987.828,-0.647114,-0.465978,-1.84079,
2026_07_06_15_24_37.328,3.847,30.3,0,0.76,0,0,0,0, ,0,0,0,0,0, ,-38.6,155.6,988.4,-0.6,-0.5,-1.8,25,-38.7643,156.401,987.847,-0.644243,-0.465005,-1.84135,
2026_07_06_15_24_37.344,3.847,30.4,0,0.76,0,0,0,0, ,0,0,0,0,0, ,-38.6,157.3,986.3,-0.7,-0.5,-1.9,25,-38.7543,156.404,987.817,-0.644594,-0.467137,-1.84188,
2026_07_06_15_24_37.360,3.847,30.3,0,0.761,0,0,0,0, ,0,0,0,0,0, ,-39.4,156.2,989.2,-0.6,-0.4,-1.9,25,-38.7692,156.425,987.813,-0.644924,-0.466093,-1.84542,
2026_07_06_15_24_37.394,3.847,30.5,0,0.761,0,0,0,0, ,0,0,0,0,0, ,-39,157.9,988.4,-0.5,-0.5,-1.9,25,-38.7955,156.463,987.873,-0.639139,-0.465112,-1.84875,
2026_07_06_15_24_37.407,3.847,30.4,0,0.758,0,0,0,0, ,0,0,0,0,0, ,-38.9,154.7,989.3,-0.5,-0.5,-1.9,25,-38.8049,156.453,987.933,-0.63066,-0.467238,-1.85187,
2026_07_06_15_24_37.424,3.847,30.4,0,0.759,0,0,0,0, ,0,0,0,0,0, ,-38.2,156.6,986.2,-0.7,-0.4,-1.8,25,-38.7894,156.404,987.921,-0.628792,-0.466188,-1.85176,
2026_07_06_15_24_37.439,3.847,30.4,0,0.76,0,0,0,0, ,0,0,0,0,0, ,-37.8,156.9,989.2,-0.7,-0.5,-1.9,25,-38.7413,156.425,987.908,-0.633131,-0.465201,-1.85165,
2026_07_06_15_24_37.475,3.847,30.2,0,0.76,0,0,0,0, ,0,0,0,0,0, ,-39.4,157.5,986.5,-0.8,-0.4,-1.8,25,-38.7327,156.473,987.904,-0.640253,-0.464275,-1.85155,
2026_07_06_15_24_37.487,3.847,30.4,0,0.76,0,0,0,0, ,0,0,0,0,0, ,-38.3,157.5,988.8,-0.7,-0.5,-1.9,25,-38.7398,156.535,987.889,-0.646941,-0.463405,-1.85145,
2026_07_06_15_24_37.502,3.847,30.4,0,0.76,0,0,0,0, ,0,0,0,0,0, ,-40.5,156.9,988,-0.8,-0.5,-1.9,25,-38.78,156.576,987.92,-0.653221,-0.465635,-1.85441,
2026_07_06_15_24_37.534,3.847,30.2,0,0.76,0,0,0,0, ,0,0,0,0,0, ,-39,155.8,988,-0.7,-0.5,-1.9,25,-38.8392,156.562,987.925,-0.659118,-0.467729,-1.85719,
2026_07_06_15_24_37.550,3.847,30.4,0,0.76,0,0,0,0, ,0,0,0,0,0, ,-38.4,156.1,989.1,-0.6,-0.4,-1.8,25,-38.8307,156.525,987.963,-0.658563,-0.466649,-1.85675,
2026_07_06_15_24_37.566,3.847,30.4,0,0.759,0,0,0,0, ,0,0,0,0,0, ,-39,156.7,988.1,-0.7,-0.5,-1.9,25,-38.8227,156.517,988.002,-0.658041,-0.465634,-1.85634,
2026_07_06_15_24_37.582,3.847,30.5,0,0.76,0,0,0,0, ,0,0,0,0,0, ,-38,155.8,987.7,-0.7,-0.4,-1.8,25,-38.803,156.501,987.996,-0.660598,-0.464682,-1.85595,
2026_07_06_15_24_37.598,3.847,30.3,0,0.759,0,0,0,0, ,0,0,0,0,0, ,-38.4,157.4,989.7,-0.6,-0.5,-1.8,25,-38.7663,156.507,988.039,-0.659952,-0.463787,-1.85254,
2026_07_06_15_24_37.630,3.847,30.4,0,0.76,0,0,0,0, ,0,0,0,0,0, ,-38.2,156.8,987.1,-0.7,-0.5,-1.8,25,-38.7379,156.543,988.061,-0.659346,-0.465994,-1.84934,
2026_07_06_15_24_37.646,3.847,30.4,0,0.758,0,0,0,0, ,0,0,0,0,0, ,-38.5,155.7,988,-0.6,-0.4,-1.8,25,-38.7142,156.525,988.029,-0.658776,-0.465019,-1.84634,
2026_07_06_15_24_37.662,3.847,30.3,0,0.761,0,0,0,0, ,0,0,0,0,0, ,-38.4,156.3,987,-0.7,-0.4,-1.9,25,-38.6981,156.493,987.997,-0.658241,-0.461057,-1.84656,
2026_07_06_15_24_37.677,3.847,30.3,0,0.76,0,0,0,0, ,0,0,0,0,0, ,-39.5,157.7,988.5,-0.6,-0.5,-1.9,25,-38.7135,156.524,987.982,-0.657739,-0.460383,-1.84982,
2026_07_06_15_24_37.709,3.847,30.4,0,0.76,0,0,0,0, ,0,0,0,0,0, ,-37.8,156.3,989.5,-0.8,-0.5,-1.9,25,-38.7096,156.553,988.044,-0.660314,-0.462797,-1.85287,
2026_07_06_15_24_37.725,3.847,30.4,0,0.759,0,0,0,0, ,0,0,0,0,0, ,-38.6,156.1,987.4,-0.7,-0.5,-1.8,25,-38.6786,156.531,988.069,-0.66578,-0.465064,-1.8527,
2026_07_06_15_24_37.741,3.847,30.5,0,0.759,0,0,0,0, ,0,0,0,0,0, ,-39.9,155.5,987.3,-0.6,-0.5,-1.9,25,-38.7134,156.487,988.025,-0.664818,-0.467193,-1.85253,
2026_07_06_15_24_37.757,3.847,30.4,0,0.759,0,0,0,0, ,0,0,0,0,0, ,-38.2,157.8,988.1,-0.6,-0.4,-1.8,25,-38.7339,156.497,988.005,-0.660868,-0.466146,-1.85238,
2026_07_06_15_24_37.788,3.847,30.4,0,0.758,0,0,0,0, ,0,0,0,0,0, ,-38.9,157.9,988.6,-0.7,-0.5,-1.9,25,-38.7227,156.579,988.026,-0.660206,-0.465162,-1.85223,
2026_07_06_15_24_37.804,3.847,30.4,0,0.758,0,0,0,0, ,0,0,0,0,0, ,-39.3,155.7,987.1,-0.7,-0.4,-1.9,25,-38.7457,156.593,988.016,-0.662631,-0.464238,-1.85515,
2026_07_06_15_24_37.821,3.847,30.4,0,0.759,0,0,0,0, ,0,0,0,0,0, ,-38.3,155.3,987.6,-0.5,-0.5,-1.8,25,-38.749,156.526,987.975,-0.658814,-0.46337,-1.85483,
2026_07_06_15_24_37.840,3.847,30.3,0,0.759,0,0,0,0, ,0,0,0,0,0, ,-38.3,156.7,988.4,-0.6,-0.4,-1.8,25,-38.7216,156.494,987.977,-0.652183,-0.462555,-1.85149,
2026_07_06_15_24_37.868,3.847,30.4,0,0.757,0,0,0,0, ,0,0,0,0,0, ,-39.4,156,986.8,-0.7,-0.4,-1.8,25,-38.7295,156.485,987.954,-0.65205,-0.458743,-1.84835,
2026_07_06_15_24_37.884,3.847,30.4,0,0.761,0,0,0,0, ,0,0,0,0,0, ,-38.6,157.1,987.9,-0.6,-0.5,-1.9,25,-38.7459,156.489,987.917,-0.651925,-0.458211,-1.84845,
2026_07_06_15_24_37.900,3.847,30.3,0,0.761,0,0,0,0, ,0,0,0,0,0, ,-38.9,157.1,988.6,-0.7,-0.5,-1.8,25,-38.7462,156.526,987.937,-0.651808,-0.460757,-1.84855,
2026_07_06_15_24_37.916,3.847,30.3,0,0.761,0,0,0,0, ,0,0,0,0,0, ,-39.3,156.6,987.9,-0.7,-0.5,-1.8,25,-38.7678,156.546,987.956,-0.654745,-0.463149,-1.84559,
2026_07_06_15_24_37.947,3.847,30.5,0,0.761,0,0,0,0, ,0,0,0,0,0, ,-39.3,156.7,986.6,-0.6,-0.5,-1.8,25,-38.8002,156.553,987.913,-0.654456,-0.465394,-1.84281,
2026_07_06_15_24_37.963,3.847,30.4,0,0.76,0,0,0,0, ,0,0,0,0,0, ,-38.8,157.3,987.4,-0.6,-0.5,-1.9,25,-38.8154,156.58,987.857,-0.651137,-0.467503,-1.84325,
2026_07_06_15_24_37.982,3.847,30.4,0,0.76,0,0,0,0, ,0,0,0,0,0, ,-39.4,157.3,988.1,-0.6,-0.5,-1.9,25,-38.8328,156.624,987.851,-0.648021,-0.469483,-1.84671,
2026_07_06_15_24_37.995,3.847,30.5,0,0.762,0,0,0,0, ,0,0,0,0,0, ,-38.8,156.3,988.1,-0.7,-0.5,-1.8,25,-38.849,156.634,987.866,-0.648142,-0.471343,-1.84691,
2026_07_06_15_24_38.027,3.847,30.4,0,0.759,0,0,0,0, ,0,0,0,0,0, ,-39.5,155.5,985.3,-0.7,-0.5,-1.8,25,-38.8674,156.59,987.795,-0.651302,-0.473089,-1.84405,
2026_07_06_15_24_38.042,3.847,30.4,0,0.759,0,0,0,0, ,0,0,0,0,0, ,-39.3,157.7,986.9,-0.6,-0.4,-1.9,25,-38.8998,156.59,987.692,-0.651222,-0.471682,-1.84441,
2026_07_06_15_24_38.059,3.847,30.5,0,0.759,0,0,0,0, ,0,0,0,0,0, ,-39.3,156.3,988.5,-0.6,-0.5,-1.8,25,-38.9242,156.615,987.692,-0.648101,-0.470361,-1.84475,
2026_07_06_15_24_38.081,3.847,30.3,0,0.76,0,0,0,0, ,0,0,0,0,0, ,-38.3,154.2,985.7,-0.8,-0.5,-1.9,25,-38.9166,156.532,987.656,-0.651264,-0.472167,-1.84507,
2026_07_06_15_24_38.106,3.847,30.4,0,0.76,0,0,0,0, ,0,0,0,0,0, ,-37.5,154.2,986.2,-0.8,-0.5,-1.8,25,-38.8547,156.39,987.552,-0.660327,-0.473863,-1.84537,
2026_07_06_15_24_38.122,3.847,30.3,0,0.759,0,0,0,0, ,0,0,0,0,0, ,-39,156.3,982.7,-0.6,-0.5,-1.9,25,-38.8178,156.32,987.363,-0.662745,-0.475456,-1.84565,
2026_07_06_15_24_38.138,3.847,30.3,0,0.76,0,0,0,0, ,0,0,0,0,0, ,-39,159.7,988.2,-0.4,-0.4,-1.9,25,-38.8289,156.423,987.247,-0.652828,-0.473905,-1.84897,
2026_07_06_15_24_38.154,3.847,30.4,0,0.761,0,0,0,0, ,0,0,0,0,0, ,-38,159.1,987.4,-0.8,-0.5,-1.8,25,-38.8089,156.604,987.28,-0.649608,-0.472448,-1.84903,
2026_07_06_15_24_38.196,3.847,30.4,0,0.761,0,0,0,0, ,0,0,0,0,0, ,-39.6,156.3,987,-0.9,-0.5,-1.9,25,-38.8084,156.671,987.275,-0.66182,-0.474127,-1.84909,
2026_07_06_15_24_38.202,3.847,30.4,0,0.761,0,0,0,0, ,0,0,0,0,0, ,-39.3,153.1,988.1,-0.3,-0.4,-1.8,25,-38.8475,156.551,987.292,-0.658053,-0.472657,-1.84914,
2026_07_06_15_24_38.218,3.847,30.4,0,0.758,0,0,0,0, ,0,0,0,0,0, ,-37.9,157.5,988.7,-0.3,-0.4,-2,25,-38.8324,156.475,987.36,-0.636234,-0.468229,-1.85224,
2026_07_06_15_24_38.234,3.847,30.3,0,0.76,0,0,0,0, ,0,0,0,0,0, ,-39,158.6,988.5,-0.7,-0.5,-1.9,25,-38.8091,156.571,987.435,-0.627932,-0.467118,-1.8582,
2026_07_06_15_24_38.266,3.847,30.3,0,0.759,0,0,0,0, ,0,0,0,0,0, ,-39.3,154.6,989.8,-0.6,-0.5,-1.9,25,-38.8299,156.572,987.54,-0.629277,-0.469122,-1.86075,
2026_07_06_15_24_38.282,3.847,30.4,0,0.759,0,0,0,0, ,0,0,0,0,0, ,-38.9,155.5,986.9,-0.5,-0.5,-1.8,25,-38.8463,156.48,987.589,-0.624446,-0.471004,-1.86009,
2026_07_06_15_24_38.298,3.847,30.4,0,0.759,0,0,0,0, ,0,0,0,0,0, ,-39.7,156.3,987.6,-0.5,-0.4,-1.8,25,-38.874,156.444,987.568,-0.616862,-0.469724,-1.85643,
2026_07_06_15_24_38.314,3.847,30.5,0,0.76,0,0,0,0, ,0,0,0,0,0, ,-37.8,155.8,987.7,-0.5,-0.4,-1.9,25,-38.8664,156.42,987.573,-0.609741,-0.465475,-1.85604,
2026_07_06_15_24_38.346,3.847,30.4,0,0.76,0,0,0,0, ,0,0,0,0,0, ,-38.2,159.3,988.1,-0.8,-0.5,-1.8,25,-38.8136,156.489,987.593,-0.612194,-0.464532,-1.85567,
2026_07_06_15_24_38.362,3.847,30.3,0,0.76,0,0,0,0, ,0,0,0,0,0, ,-38.5,156.4,988.5,-0.8,-0.5,-1.8,25,-38.7854,156.572,987.636,-0.623639,-0.466693,-1.85228,
2026_07_06_15_24_38.382,3.847,30.4,0,0.76,0,0,0,0, ,0,0,0,0,0, ,-38.8,155.6,987.4,-0.6,-0.5,-1.9,25,-38.7771,156.537,987.655,-0.628292,-0.468723,-1.85214,
2026_07_06_15_24_38.396,3.847,30.3,0,0.76,0,0,0,0, ,0,0,0,0,0, ,-38.5,156.8,989.3,-0.4,-0.5,-1.9,25,-38.7694,156.517,987.698,-0.620474,-0.470629,-1.85506,
2026_07_06_15_24_38.426,3.847,30.3,0,0.76,0,0,0,0, ,0,0,0,0,0, ,-38.4,157.9,987.7,-0.7,-0.5,-2,25,-38.7499,156.567,987.747,-0.61618,-0.472419,-1.86084,
2026_07_06_15_24_38.441,3.847,30.4,0,0.759,0,0,0,0, ,0,0,0,0,0, ,-40.4,156.3,987.4,-0.8,-0.5,-1.8,25,-38.7895,156.6,987.735,-0.624334,-0.474099,-1.86323,
2026_07_06_15_24_38.457,3.847,30.3,0,0.758,0,0,0,0, ,0,0,0,0,0, ,-38.3,155.8,988.6,-0.6,-0.5,-1.8,25,-38.8237,156.566,987.751,-0.628945,-0.475678,-1.85937,
2026_07_06_15_24_38.472,3.847,30.4,0,0.759,0,0,0,0, ,0,0,0,0,0, ,-39.3,156.3,988.7,-0.6,-0.5,-1.9,25,-38.8222,156.535,987.806,-0.627181,-0.47716,-1.8588,
2026_07_06_15_24_38.504,3.847,30.4,0,0.759,0,0,0,0, ,0,0,0,0,0, ,-39.4,156.3,988.4,-0.7,-0.4,-1.8,25,-38.8544,156.521,987.851,-0.628572,-0.475505,-1.85827,
2026_07_06_15_24_38.520,3.847,30.4,0,0.76,0,0,0,0, ,0,0,0,0,0, ,-39.3,156,988.4,-0.7,-0.5,-1.8,25,-38.8846,156.498,987.884,-0.632925,-0.473951,-1.85472,
2026_07_06_15_24_38.536,3.847,30.4,0,0.76,0,0,0,0, ,0,0,0,0,0, ,-38.4,155.7,988.1,-0.6,-0.5,-1.9,25,-38.8825,156.459,987.907,-0.633965,-0.475538,-1.85443,
2026_07_06_15_24_38.552,3.847,30.4,0,0.761,0,0,0,0, ,0,0,0,0,0, ,-38.8,157.8,986.4,-0.6,-0.5,-1.9,25,-38.8653,156.476,987.867,-0.631895,-0.477029,-1.85721,
2026_07_06_15_24_38.584,3.847,30.3,0,0.759,0,0,0,0, ,0,0,0,0,0, ,-38.9,157.3,988.2,-0.7,-0.5,-1.8,25,-38.8643,156.542,987.832,-0.632999,-0.478428,-1.85677,
2026_07_06_15_24_38.600,3.847,30.4,0,0.76,0,0,0,0, ,0,0,0,0,0, ,-39.4,156,987.6,-0.7,-0.5,-1.9,25,-38.8817,156.548,987.836,-0.637082,-0.479743,-1.85635,
2026_07_06_15_24_38.616,3.847,30.4,0,0.76,0,0,0,0, ,0,0,0,0,0, ,-38.3,157.2,988.8,-0.6,-0.4,-1.9,25,-38.8798,156.551,987.858,-0.637869,-0.477931,-1.85901,
2026_07_06_15_24_38.643,3.847,30.3,0,0.759,0,0,0,0, ,0,0,0,0,0, ,-39,157.9,987.3,-0.7,-0.5,-1.9,25,-38.8658,156.612,987.87,-0.638608,-0.476228,-1.86151,
2026_07_06_15_24_38.663,3.847,30.3,0,0.759,0,0,0,0, ,0,0,0,0,0, ,-38.2,157.7,987.6,-0.7,-0.5,-1.8,25,-38.8496,156.685,987.845,-0.642349,-0.477677,-1.86081,
2026_07_06_15_24_38.683,3.847,30.3,0,0.759,0,0,0,0, ,0,0,0,0,0, ,-38.5,156.7,988.8,-0.7,-0.4,-1.9,25,-38.8192,156.716,987.866,-0.645862,-0.475991,-1.86015,
2026_07_06_15_24_38.697,3.847,30.4,0,0.759,0,0,0,0, ,0,0,0,0,0, ,-38.5,156.2,988.5,-0.7,-0.5,-1.8,25,-38.7997,156.7,987.914,-0.649161,-0.474407,-1.85953,
2026_07_06_15_24_38.723,3.847,30.3,0,0.759,0,0,0,0, ,0,0,0,0,0, ,-38.8,156.8,987.4,-0.7,-0.4,-1.9,25,-38.7906,156.688,987.916,-0.652259,-0.472919,-1.85895,
2026_07_06_15_24_38.743,3.847,30.4,0,0.76,0,0,0,0, ,0,0,0,0,0, ,-38,156.6,987.4,-0.7,-0.5,-1.8,25,-38.7668,156.688,987.885,-0.655168,-0.471523,-1.85841,
2026_07_06_15_24_38.762,3.847,30.2,0,0.76,0,0,0,0, ,0,0,0,0,0, ,-38.6,155.5,988,-0.5,-0.5,-1.9,25,-38.7383,156.65,987.873,-0.651807,-0.473258,-1.85789,
2026_07_06_15_24_38.781,3.847,30.4,0,0.76,0,0,0,0, ,0,0,0,0,0, ,-37.8,156.4,987.6,-0.6,-0.5,-1.9,25,-38.7055,156.607,987.869,-0.645603,-0.474888,-1.86046,
2026_07_06_15_24_38.801,3.847,30.4,0,0.76,0,0,0,0, ,0,0,0,0,0, ,-38.9,157.4,986.5,-0.7,-0.5,-1.8,25,-38.6839,156.625,987.819,-0.645871,-0.476418,-1.85982,
2026_07_06_15_24_38.821,3.847,30.4,0,0.759,0,0,0,0, ,0,0,0,0,0, ,-39.3,155.6,987.5,-0.7,-0.4,-1.9,25,-38.7092,156.617,987.769,-0.649169,-0.474808,-1.85922,
2026_07_06_15_24_38.842,3.847,30.3,0,0.759,0,0,0,0, ,0,0,0,0,0, ,-38.6,155.6,988.4,-0.7,-0.4,-1.9,25,-38.7239,156.555,987.78,-0.652267,-0.47025,-1.86171,
2026_07_06_15_24_38.857,3.847,30.4,0,0.759,0,0,0,0, ,0,0,0,0,0, ,-39.1,156.7,988.5,-0.7,-0.5,-1.9,25,-38.7316,156.531,987.821,-0.655175,-0.469016,-1.86404,
2026_07_06_15_24_38.881,3.847,30.3,0,0.76,0,0,0,0, ,0,0,0,0,0, ,-38.2,155.6,987.7,-0.6,-0.5,-1.9,25,-38.7266,156.507,987.838,-0.65486,-0.470904,-1.86623,
2026_07_06_15_24_38.901,3.847,30.3,0,0.76,0,0,0,0, ,0,0,0,0,0, ,-38.2,156.2,988.6,-0.7,-0.5,-1.9,25,-38.6945,156.47,987.857,-0.654564,-0.472677,-1.86829,
2026_07_06_15_24_38.920,3.847,30.4,0,0.76,0,0,0,0, ,0,0,0,0,0, ,-39.9,157.7,987,-0.6,-0.5,-1.9,25,-38.7162,156.5,987.854,-0.654286,-0.474342,-1.87022,
2026_07_06_15_24_38.939,3.847,30.3,0,0.759,0,0,0,0, ,0,0,0,0,0, ,-38.9,156.9,987.4,-0.7,-0.4,-1.9,25,-38.7579,156.548,987.814,-0.654025,-0.472858,-1.87204,
2026_07_06_15_24_38.959,3.847,30.3,0,0.759,0,0,0,0, ,0,0,0,0,0, ,-38.5,155.3,986.8,-0.6,-0.5,-1.8,25,-38.7543,156.521,987.77,-0.653779,-0.471465,-1.87069,
2026_07_06_15_24_38.979,3.847,30.3,0,0.759,0,0,0,0, ,0,0,0,0,0, ,-39.7,156.1,987.3,-0.6,-0.4,-1.9,25,-38.7754,156.471,987.726,-0.650502,-0.470157,-1.86943,
2026_07_06_15_24_39.000,3.847,30.4,0,0.761,0,0,0,0, ,0,0,0,0,0, ,-39,155.2,987.9,-0.8,-0.4,-1.8,25,-38.8104,156.421,987.719,-0.653518,-0.465882,-1.86825,
2026_07_06_15_24_39.020,3.847,30.3,0,0.759,0,0,0,0, ,0,0,0,0,0, ,-38,157.7,987,-0.6,-0.5,-1.8,25,-38.7915,156.423,987.702,-0.656351,-0.464914,-1.86409,
2026_07_06_15_24_39.038,3.847,30.3,0,0.76,0,0,0,0, ,0,0,0,0,0, ,-39.3,155.7,988.7,-0.7,-0.5,-1.9,25,-38.7829,156.44,987.711,-0.655964,-0.467052,-1.86323,
2026_07_06_15_24_39.061,3.847,30.3,0,0.76,0,0,0,0, ,0,0,0,0,0, ,-38,154.7,988.7,-0.7,-0.4,-1.9,25,-38.7748,156.364,987.772,-0.658647,-0.466013,-1.86547,
2026_07_06_15_24_39.081,3.847,30.3,0,0.76,0,0,0,0, ,0,0,0,0,0, ,-39,155.3,987.5,-0.6,-0.4,-1.9,25,-38.758,156.281,987.792,-0.65812,-0.461991,-1.86758,
2026_07_06_15_24_39.099,3.847,30.3,0,0.76,0,0,0,0, ,0,0,0,0,0, ,-39.5,157.7,989,-0.6,-0.5,-1.9,25,-38.788,156.294,987.819,-0.654579,-0.46126,-1.86955,
2026_07_06_15_24_39.119,3.847,30.3,0,0.759,0,0,0,0, ,0,0,0,0,0, ,-38.4,157.5,987.6,-0.6,-0.5,-1.8,25,-38.7979,156.374,987.849,-0.651253,-0.463621,-1.86836,
2026_07_06_15_24_39.139,3.847,30.4,0,0.759,0,0,0,0, ,0,0,0,0,0, ,-39.1,156.4,987.5,-0.7,-0.4,-1.9,25,-38.795,156.409,987.831,-0.651176,-0.462791,-1.86724,
2026_07_06_15_24_39.157,3.847,30.3,0,0.759,0,0,0,0, ,0,0,0,0,0, ,-37.4,155.8,988.5,-0.7,-0.5,-1.9,25,-38.7618,156.39,987.841,-0.654152,-0.462011,-1.86924,
2026_07_06_15_24_39.172,3.847,30.3,0,0.76,0,0,0,0, ,0,0,0,0,0, ,-38.4,156.6,986.8,-0.7,-0.5,-1.8,25,-38.7092,156.379,987.829,-0.656946,-0.464326,-1.86807,
2026_07_06_15_24_39.198,3.847,30.4,0,0.76,0,0,0,0, ,0,0,0,0,0, ,-39,157.3,987.1,-0.7,-0.4,-1.9,25,-38.7087,156.413,987.776,-0.659569,-0.463453,-1.86696,
2026_07_06_15_24_39.219,3.847,30.3,0,0.76,0,0,0,0, ,0,0,0,0,0, ,-38.9,156.4,988,-0.6,-0.5,-1.9,25,-38.7234,156.44,987.762,-0.658986,-0.462633,-1.86898,
2026_07_06_15_24_39.233,3.847,30.3,0,0.76,0,0,0,0, ,0,0,0,0,0, ,-37.8,155.2,987.5,-0.7,-0.5,-1.8,25,-38.7006,156.401,987.761,-0.658438,-0.46491,-1.86782,
2026_07_06_15_24_39.262,3.847,30.4,0,0.76,0,0,0,0, ,0,0,0,0,0, ,-38,156.6,989.3,-0.7,-0.5,-1.9,25,-38.6518,156.37,987.8,-0.660971,-0.467049,-1.86674,
2026_07_06_15_24_39.278,3.847,30.4,0,0.76,0,0,0,0, ,0,0,0,0,0, ,-40,156.1,987.7,-0.7,-0.5,-1.8,25,-38.6731,156.369,987.843,-0.663349,-0.469057,-1.86572,
2026_07_06_15_24_39.298,3.847,30.3,0,0.759,0,0,0,0, ,0,0,0,0,0, ,-38.4,156.4,989.2,-0.6,-0.5,-1.9,25,-38.7052,156.362,987.88,-0.662536,-0.470942,-1.86476,
2026_07_06_15_24_39.316,3.847,30.3,0,0.76,0,0,0,0, ,0,0,0,0,0, ,-38.5,157.4,987.3,-0.7,-0.5,-1.8,25,-38.6896,156.395,987.902,-0.661772,-0.472713,-1.86386,
2026_07_06_15_24_39.336,3.847,30.3,0,0.76,0,0,0,0, ,0,0,0,0,0, ,-38.4,157.5,987.5,-0.7,-0.4,-1.8,25,-38.675,156.459,987.872,-0.664102,-0.471329,-1.85997,
2026_07_06_15_24_39.357,3.847,30.4,0,0.759,0,0,0,0, ,0,0,0,0,0, ,-39,156.6,987.4,-0.6,-0.4,-1.8,25,-38.6765,156.495,987.846,-0.663242,-0.466982,-1.85631,
2026_07_06_15_24_39.376,3.847,30.4,0,0.759,0,0,0,0, ,0,0,0,0,0, ,-38.4,156.8,987.3,-0.6,-0.5,-1.9,25,-38.678,156.508,987.816,-0.659388,-0.465947,-1.85593,
2026_07_06_15_24_39.396,3.847,30.4,0,0.759,0,0,0,0, ,0,0,0,0,0, ,-38.9,156.8,988,-0.6,-0.5,-1.8,25,-38.6763,156.525,987.806,-0.655769,-0.468022,-1.85557,
2026_07_06_15_24_39.417,3.847,30.3,0,0.76,0,0,0,0, ,0,0,0,0,0, ,-37.9,156.1,986.8,-0.6,-0.5,-1.9,25,-38.6594,156.521,987.781,-0.652371,-0.469971,-1.85523,
2026_07_06_15_24_39.435,3.847,30.4,0,0.761,0,0,0,0, ,0,0,0,0,0, ,-40,156.1,987.5,-0.6,-0.4,-1.9,25,-38.6771,156.495,987.743,-0.64918,-0.468754,-1.85796,
2026_07_06_15_24_39.455,3.847,30.5,0,0.76,0,0,0,0, ,0,0,0,0,0, ,-39.5,155.6,987.4,-0.6,-0.4,-1.9,25,-38.7425,156.456,987.725,-0.646183,-0.464564,-1.86052,
2026_07_06_15_24_39.475,3.847,30.3,0,0.76,0,0,0,0, ,0,0,0,0,0, ,-37.9,155,986.4,-0.7,-0.4,-1.9,25,-38.7399,156.385,987.674,-0.646415,-0.46063,-1.86292,
2026_07_06_15_24_39.495,3.847,30.4,0,0.758,0,0,0,0, ,0,0,0,0,0, ,-37.5,156.1,987.3,-0.7,-0.5,-1.8,25,-38.6766,156.334,987.624,-0.649681,-0.459982,-1.86214,
2026_07_06_15_24_39.508,3.847,30.5,0,0.759,0,0,0,0, ,0,0,0,0,0, ,-39,156.3,987.9,-0.7,-0.5,-1.8,25,-38.6506,156.326,987.623,-0.652747,-0.462421,-1.85835,
2026_07_06_15_24_39.548,3.847,30.4,0,0.76,0,0,0,0, ,0,0,0,0,0, ,-38.2,157.3,987.7,-0.7,-0.5,-1.9,25,-38.6475,156.355,987.634,-0.655626,-0.464711,-1.85784,
2026_07_06_15_24_39.555,3.847,30.3,0,0.76,0,0,0,0, ,0,0,0,0,0, ,-38.3,156.2,987.3,-0.6,-0.5,-1.9,25,-38.6233,156.379,987.625,-0.655284,-0.466861,-1.86041,
2026_07_06_15_24_39.574,3.847,30.3,0,0.761,0,0,0,0, ,0,0,0,0,0, ,-39.6,156.8,987.7,-0.6,-0.5,-1.9,25,-38.6432,156.387,987.618,-0.651915,-0.468881,-1.86282,
2026_07_06_15_24_39.593,3.847,30.3,0,0.761,0,0,0,0, ,0,0,0,0,0, ,-39.1,155.6,987.6,-0.6,-0.5,-1.8,25,-38.6862,156.375,987.62,-0.648751,-0.470777,-1.86204,
2026_07_06_15_24_39.615,3.847,30.4,0,0.76,0,0,0,0, ,0,0,0,0,0, ,-39,156.7,989,-0.6,-0.4,-1.8,25,-38.7084,156.361,987.661,-0.64578,-0.469511,-1.85826,
2026_07_06_15_24_39.633,3.847,30.4,0,0.759,0,0,0,0, ,0,0,0,0,0, ,-38.6,156,987,-0.7,-0.5,-1.9,25,-38.714,156.361,987.682,-0.646038,-0.468322,-1.85776,
2026_07_06_15_24_39.653,3.847,30.4,0,0.759,0,0,0,0, ,0,0,0,0,0, ,-38.8,157.7,986.4,-0.8,-0.5,-2,25,-38.7131,156.391,987.622,-0.652373,-0.470252,-1.86338,
2026_07_06_15_24_39.673,3.847,30.4,0,0.759,0,0,0,0, ,0,0,0,0,0, ,-38.3,155.5,987.3,-0.7,-0.5,-1.8,25,-38.7032,156.403,987.575,-0.658322,-0.472065,-1.86561,
2026_07_06_15_24_39.693,3.847,30.4,0,0.759,0,0,0,0, ,0,0,0,0,0, ,-38.5,155.2,988.5,-0.6,-0.4,-1.9,25,-38.6847,156.339,987.595,-0.657815,-0.47072,-1.86466,
2026_07_06_15_24_39.712,3.847,30.4,0,0.759,0,0,0,0, ,0,0,0,0,0, ,-39,157.8,988,-0.7,-0.5,-1.8,25,-38.6887,156.349,987.635,-0.657339,-0.469458,-1.86377,
2026_07_06_15_24_39.732,3.847,30.4,0,0.76,0,0,0,0, ,0,0,0,0,0, ,-38.5,156.6,987.1,-0.6,-0.6,-1.8,25,-38.6924,156.401,987.63,-0.656891,-0.474366,-1.85988,
2026_07_06_15_24_39.752,3.847,30.5,0,0.761,0,0,0,0, ,0,0,0,0,0, ,-38.9,155.8,988,-0.7,-0.4,-1.9,25,-38.6929,156.389,987.625,-0.656471,-0.475928,-1.85928,
2026_07_06_15_24_39.772,3.847,30.5,0,0.76,0,0,0,0, ,0,0,0,0,0, ,-39.1,154.9,986.8,-0.7,-0.4,-1.8,25,-38.7116,156.325,987.611,-0.659124,-0.471301,-1.85871,
2026_07_06_15_24_39.792,3.847,30.4,0,0.76,0,0,0,0, ,0,0,0,0,0, ,-38.2,156.3,987.7,-0.7,-0.4,-1.8,25,-38.7079,156.281,987.589,-0.661615,-0.466956,-1.85513,
2026_07_06_15_24_39.811,3.847,30.4,0,0.76,0,0,0,0, ,0,0,0,0,0, ,-39.4,156.6,986.4,-0.6,-0.4,-1.8,25,-38.7135,156.291,987.556,-0.660907,-0.462876,-1.85177,
2026_07_06_15_24_39.831,3.847,30.5,0,0.76,0,0,0,0, ,0,0,0,0,0, ,-38.4,157.2,987.4,-0.7,-0.5,-1.8,25,-38.7248,156.328,987.516,-0.660242,-0.462091,-1.84862,
2026_07_06_15_24_39.851,3.847,30.4,0,0.761,0,0,0,0, ,0,0,0,0,0, ,-39,156,987.5,-0.6,-0.4,-1.8,25,-38.7233,156.345,987.512,-0.659618,-0.461355,-1.84566,
2026_07_06_15_24_39.871,3.847,30.5,0,0.76,0,0,0,0, ,0,0,0,0,0, ,-38.5,156.6,986.3,-0.6,-0.5,-1.9,25,-38.7249,156.342,987.475,-0.655985,-0.460663,-1.84592,
2026_07_06_15_24_39.891,3.847,30.4,0,0.759,0,0,0,0, ,0,0,0,0,0, ,-38.5,155.8,987.1,-0.7,-0.6,-1.8,25,-38.7112,156.334,987.428,-0.655621,-0.466107,-1.84617,
2026_07_06_15_24_39.910,3.847,30.4,0,0.759,0,0,0,0, ,0,0,0,0,0, ,-39.6,155.8,988.8,-0.7,-0.5,-1.9,25,-38.7319,156.301,987.459,-0.658325,-0.471219,-1.8464,
2026_07_06_15_24_39.925,3.847,30.4,0,0.76,0,0,0,0, ,0,0,0,0,0, ,-38,156.6,985.5,-0.6,-0.5,-1.9,25,-38.736,156.295,987.441,-0.657818,-0.472973,-1.84967,
2026_07_06_15_24_39.950,3.847,30.4,0,0.759,0,0,0,0, ,0,0,0,0,0, ,-38.4,156.6,987.5,-0.6,-0.5,-1.9,25,-38.7034,156.314,987.383,-0.654294,-0.47462,-1.85274,
2026_07_06_15_24_39.969,3.847,30.4,0,0.76,0,0,0,0, ,0,0,0,0,0, ,-38.4,156.4,987,-0.6,-0.4,-1.9,25,-38.6849,156.325,987.375,-0.650986,-0.473119,-1.85562,
2026_07_06_15_24_39.990,3.847,30.4,0,0.759,0,0,0,0, ,0,0,0,0,0, ,-39.5,156.9,986.5,-0.7,-0.5,-1.8,25,-38.701,156.345,987.337,-0.650926,-0.471711,-1.85527,
2026_07_06_15_24_40.011,3.847,30.4,0,0.761,0,0,0,0, ,0,0,0,0,0, ,-38.9,155.5,987.1,-0.6,-0.4,-1.8,25,-38.7314,156.336,987.304,-0.650869,-0.470388,-1.85191,
2026_07_06_15_24_40.027,3.847,30.4,0,0.76,0,0,0,0, ,0,0,0,0,0, ,-37.8,156.6,987.5,-0.7,-0.5,-1.9,25,-38.7082,156.318,987.304,-0.650816,-0.469145,-1.85179,
2026_07_06_15_24_40.049,3.847,30.4,0,0.76,0,0,0,0, ,0,0,0,0,0, ,-39.3,156,987.7,-0.6,-0.5,-1.8,25,-38.6986,156.317,987.322,-0.650767,-0.471025,-1.85168,
2026_07_06_15_24_40.058,3.847,30.4,0,0.76,0,0,0,0, ,0,0,0,0,0, ,-38.9,156.4,988.2,-0.6,-0.5,-1.9,25,-38.723,156.31,987.36,-0.647673,-0.472791,-1.85158,
2026_07_06_15_24_40.089,3.847,30.4,0,0.76,0,0,0,0, ,0,0,0,0,0, ,-38.8,156.6,988.2,-0.6,-0.5,-1.9,25,-38.7308,156.322,987.412,-0.644768,-0.474449,-1.85453,
2026_07_06_15_24_40.108,3.847,30.4,0,0.76,0,0,0,0, ,0,0,0,0,0, ,-38.9,156.9,988,-0.7,-0.5,-1.9,25,-38.738,156.348,987.453,-0.645087,-0.476006,-1.8573,
2026_07_06_15_24_40.124,3.847,30.5,0,0.76,0,0,0,0, ,0,0,0,0,0, ,-38.9,155.7,987.4,-0.6,-0.4,-1.8,25,-38.7479,156.345,987.469,-0.645386,-0.474421,-1.85686,
2026_07_06_15_24_40.142,3.847,30.4,0,0.759,0,0,0,0, ,0,0,0,0,0, ,-39.3,156.8,985.9,-0.6,-0.5,-1.8,25,-38.7694,156.339,987.419,-0.64262,-0.472933,-1.85339,
2026_07_06_15_24_40.158,3.847,30.4,0,0.759,0,0,0,0, ,0,0,0,0,0, ,-37.4,155.8,988,-0.6,-0.5,-1.8,25,-38.7438,156.337,987.39,-0.640023,-0.474583,-1.85014,
2026_07_06_15_24_40.175,3.847,30.3,0,0.76,0,0,0,0, ,0,0,0,0,0, ,-38.8,155.2,986.4,-0.7,-0.5,-1.8,25,-38.7046,156.286,987.378,-0.640631,-0.476131,-1.84708,
2026_07_06_15_24_40.207,3.847,30.4,0,0.76,0,0,0,0, ,0,0,0,0,0, ,-39.1,156.9,987.7,-0.7,-0.4,-1.9,25,-38.7195,156.271,987.358,-0.644249,-0.474539,-1.84726,
2026_07_06_15_24_40.225,3.847,30.4,0,0.759,0,0,0,0, ,0,0,0,0,0, ,-38.8,158,986.4,-0.6,-0.5,-1.8,25,-38.7336,156.343,987.34,-0.644599,-0.473044,-1.84743,
2026_07_06_15_24_40.250,3.847,30.3,0,0.76,0,0,0,0, ,0,0,0,0,0, ,-39.1,156.8,986,-0.6,-0.4,-1.8,25,-38.7468,156.408,987.27,-0.641882,-0.47164,-1.84454,
2026_07_06_15_24_40.267,3.847,30.4,0,0.76,0,0,0,0, ,0,0,0,0,0, ,-38.9,156.1,987.5,-0.6,-0.5,-1.9,25,-38.7622,156.41,987.239,-0.63933,-0.470321,-1.84487,
2026_07_06_15_24_40.275,3.847,30.4,0,0.76,0,0,0,0, ,0,0,0,0,0, ,-37.9,156.2,986.8,-0.7,-0.4,-1.9,25,-38.7401,156.394,987.233,-0.63998,-0.469083,-1.84823,
2026_07_06_15_24_40.308,3.847,30.4,0,0.759,0,0,0,0, ,0,0,0,0,0, ,-38.2,155.5,986.6,-0.6,-0.5,-1.8,25,-38.6981,156.361,987.201,-0.64059,-0.46792,-1.84834,
2026_07_06_15_24_40.341,3.847,30.4,0,0.761,0,0,0,0, ,0,0,0,0,0, ,-40.1,156.4,987.9,-0.7,-0.4,-1.9,25,-38.7256,156.336,987.204,-0.641164,-0.466828,-1.84844,
2026_07_06_15_24_40.341,3.847,30.3,0,0.759,0,0,0,0, ,0,0,0,0,0, ,-38.2,156.2,987.1,-0.7,-0.5,-1.9,25,-38.7515,156.334,987.222,-0.644749,-0.465802,-1.85158,
2026_07_06_15_24_40.358,3.847,30.4,0,0.759,0,0,0,0, ,0,0,0,0,0, ,-38.5,156.8,988.5,-0.7,-0.4,-1.9,25,-38.727,156.344,987.257,-0.648116,-0.464839,-1.85453,
2026_07_06_15_24_40.378,3.847,30.4,0,0.76,0,0,0,0, ,0,0,0,0,0, ,-37.9,156.4,986,-0.6,-0.5,-1.8,25,-38.6949,156.36,987.257,-0.648231,-0.463935,-1.85425,
2026_07_06_15_24_40.404,3.847,30.4,0,0.76,0,0,0,0, ,0,0,0,0,0, ,-38.4,156.7,988.5,-0.7,-0.5,-1.8,25,-38.6617,156.371,987.256,-0.648339,-0.466133,-1.85095,
2026_07_06_15_24_40.425,3.847,30.4,0,0.76,0,0,0,0, ,0,0,0,0,0, ,-38.8,155.1,988,-0.7,-0.5,-1.8,25,-38.6579,156.343,987.317,-0.651487,-0.468197,-1.84784,
2026_07_06_15_24_40.441,3.847,30.3,0,0.76,0,0,0,0, ,0,0,0,0,0, ,-38.4,155.8,987.6,-0.6,-0.5,-1.8,25,-38.6544,156.288,987.346,-0.651396,-0.470135,-1.84493,
2026_07_06_15_24_40.458,3.847,30.4,0,0.76,0,0,0,0, ,0,0,0,0,0, ,-40,156.8,986,-0.7,-0.5,-1.8,25,-38.6876,156.289,987.313,-0.651311,-0.471955,-1.84219,
2026_07_06_15_24_40.475,3.847,30.4,0,0.76,0,0,0,0, ,0,0,0,0,0, ,-39.5,156.4,987.7,-0.7,-0.4,-1.8,25,-38.7524,156.308,987.285,-0.654278,-0.470617,-1.83962,
2026_07_06_15_24_40.504,3.847,30.3,0,0.757,0,0,0,0, ,0,0,0,0,0, ,-38.3,156.2,987.3,-0.6,-0.5,-1.9,25,-38.7614,156.307,987.298,-0.654017,-0.46936,-1.84025,
2026_07_06_15_24_40.524,3.847,30.4,0,0.762,0,0,0,0, ,0,0,0,0,0, ,-37.3,156.1,987.6,-0.7,-0.4,-1.9,25,-38.7028,156.298,987.307,-0.653773,-0.468181,-1.84389,
2026_07_06_15_24_40.542,3.847,30.4,0,0.76,0,0,0,0, ,0,0,0,0,0, ,-39.3,155.1,988.1,-0.7,-0.4,-1.9,25,-38.6782,156.255,987.34,-0.656589,-0.464026,-1.84731,
2026_07_06_15_24_40.557,3.847,30.3,0,0.761,0,0,0,0, ,0,0,0,0,0, ,-38.6,156.4,986.9,-0.6,-0.5,-1.8,25,-38.6948,156.224,987.35,-0.656188,-0.463171,-1.84748,
2026_07_06_15_24_40.574,3.847,30.3,0,0.76,0,0,0,0, ,0,0,0,0,0, ,-38.9,156.1,987,-0.6,-0.4,-1.9,25,-38.6982,156.226,987.326,-0.652764,-0.462368,-1.84763,
2026_07_06_15_24_40.604,3.847,30.2,0,0.76,0,0,0,0, ,0,0,0,0,0, ,-39.3,157.2,988,-0.7,-0.5,-1.9,25,-38.7227,156.252,987.336,-0.652596,-0.461615,-1.85082,
2026_07_06_15_24_40.624,3.847,30.4,0,0.759,0,0,0,0, ,0,0,0,0,0, ,-39.9,156.1,987.9,-0.7,-0.5,-1.9,25,-38.7761,156.276,987.374,-0.655484,-0.463954,-1.85382,
2026_07_06_15_24_40.643,3.847,30.5,0,0.76,0,0,0,0, ,0,0,0,0,0, ,-38.8,156.3,986,-0.7,-0.5,-2,25,-38.8111,156.271,987.348,-0.658197,-0.46615,-1.85968,
2026_07_06_15_24_40.659,3.847,30.4,0,0.76,0,0,0,0, ,0,0,0,0,0, ,-38.2,154.4,987.4,-0.6,-0.5,-1.8,25,-38.7921,156.215,987.308,-0.657697,-0.468213,-1.86214,
2026_07_06_15_24_40.675,3.847,30.5,0,0.758,0,0,0,0, ,0,0,0,0,0, ,-38.6,157.2,988.1,-0.7,-0.5,-1.9,25,-38.7682,156.19,987.335,-0.657228,-0.47015,-1.8614,
2026_07_06_15_24_40.691,3.847,30.3,0,0.76,0,0,0,0, ,0,0,0,0,0, ,-38.6,156.6,988.1,-0.6,-0.5,-1.9,25,-38.758,156.233,987.382,-0.656788,-0.471969,-1.86375,
2026_07_06_15_24_40.726,3.847,30.4,0,0.76,0,0,0,0, ,0,0,0,0,0, ,-37.7,156.9,989.5,-0.6,-0.5,-1.8,25,-38.7209,156.265,987.468,-0.653327,-0.473677,-1.86291,
2026_07_06_15_24_40.743,3.847,30.5,0,0.76,0,0,0,0, ,0,0,0,0,0, ,-37.4,156.6,987.6,-0.7,-0.5,-1.9,25,-38.6496,156.294,987.534,-0.653125,-0.475281,-1.86212,
2026_07_06_15_24_40.758,3.847,30.5,0,0.761,0,0,0,0, ,0,0,0,0,0, ,-37.1,156.6,988.4,-0.7,-0.5,-1.8,25,-38.5643,156.313,987.563,-0.655981,-0.476788,-1.86139,
2026_07_06_15_24_40.773,3.847,30.4,0,0.76,0,0,0,0, ,0,0,0,0,0, ,-38.5,156.2,987.4,-0.6,-0.5,-1.9,25,-38.5177,156.318,987.583,-0.655617,-0.478202,-1.86069,
2026_07_06_15_24_40.804,3.847,30.4,0,0.761,0,0,0,0, ,0,0,0,0,0, ,-38.5,156.4,987,-0.7,-0.5,-1.8,25,-38.5166,156.317,987.56,-0.655274,-0.47953,-1.86004,
2026_07_06_15_24_40.821,3.847,30.4,0,0.76,0,0,0,0, ,0,0,0,0,0, ,-38.2,155.3,987,-0.6,-0.5,-1.9,25,-38.5065,156.289,987.526,-0.654953,-0.480778,-1.85943,
2026_07_06_15_24_40.838,3.847,30.4,0,0.761,0,0,0,0, ,0,0,0,0,0, ,-37.9,156.7,986.5,-0.6,-0.5,-1.9,25,-38.4787,156.271,987.478,-0.651604,-0.481949,-1.8619,
2026_07_06_15_24_40.853,3.847,30.4,0,0.76,0,0,0,0, ,0,0,0,0,0, ,-40.2,156.6,986.3,-0.7,-0.5,-1.8,25,-38.5135,156.294,987.413,-0.651507,-0.483049,-1.86118,
2026_07_06_15_24_40.869,3.847,30.4,0,0.76,0,0,0,0, ,0,0,0,0,0, ,-39.4,157.7,986.9,-0.6,-0.5,-1.9,25,-38.5919,156.346,987.363,-0.651415,-0.484082,-1.86049,
2026_07_06_15_24_40.901,3.847,30.3,0,0.759,0,0,0,0, ,0,0,0,0,0, ,-38.5,155.7,988.4,-0.6,-0.4,-1.8,25,-38.6137,156.368,987.381,-0.648282,-0.482005,-1.85985,
2026_07_06_15_24_40.918,3.847,30.5,0,0.761,0,0,0,0, ,0,0,0,0,0, ,-38.6,156.2,988.2,-0.6,-0.5,-1.9,25,-38.6098,156.342,987.437,-0.645339,-0.480055,-1.85925,
2026_07_06_15_24_40.933,3.847,30.4,0,0.76,0,0,0,0, ,0,0,0,0,0, ,-39.5,156.6,986.4,-0.6,-0.4,-1.8,25,-38.6366,156.346,987.428,-0.642577,-0.478223,-1.85869,
2026_07_06_15_24_40.953,3.847,30.4,0,0.76,0,0,0,0, ,0,0,0,0,0, ,-39.1,155.8,988.1,-0.6,-0.5,-1.8,25,-38.6771,156.337,987.417,-0.639982,-0.476504,-1.85511,
2026_07_06_15_24_40.980,3.847,30.4,0,0.761,0,0,0,0, ,0,0,0,0,0, ,-38.3,157.4,989.1,-0.7,-0.4,-1.8,25,-38.6785,156.353,987.49,-0.640593,-0.474888,-1.85176,
2026_07_06_15_24_41.000,3.847,30.5,0,0.762,0,0,0,0, ,0,0,0,0,0, ,-38.3,157.2,987.4,-0.6,-0.5,-1.8,25,-38.6554,156.411,987.536,-0.641166,-0.473372,-1.8486,
2026_07_06_15_24_41.012,3.847,30.4,0,0.76,0,0,0,0, ,0,0,0,0,0, ,-39.6,154.6,987.1,-0.7,-0.5,-1.8,25,-38.6734,156.38,987.518,-0.641704,-0.474994,-1.84564,
2026_07_06_15_24_41.028,3.847,30.4,0,0.759,0,0,0,0, ,0,0,0,0,0, ,-38.6,156.4,987.1,-0.7,-0.5,-1.9,25,-38.6994,156.326,987.493,-0.645257,-0.476518,-1.84591,
2026_07_06_15_24_41.060,3.847,30.3,0,0.76,0,0,0,0, ,0,0,0,0,0, ,-38.5,156.6,988.2,-0.7,-0.5,-1.9,25,-38.6903,156.337,987.503,-0.648592,-0.477949,-1.8492,
2026_07_06_15_24_41.076,3.847,30.4,0,0.76,0,0,0,0, ,0,0,0,0,0, ,-39.3,156.6,986.2,-0.6,-0.5,-1.8,25,-38.703,156.353,987.484,-0.648678,-0.479293,-1.84925,
2026_07_06_15_24_41.092,3.847,30.4,0,0.759,0,0,0,0, ,0,0,0,0,0, ,-39.1,156.4,988.4,-0.7,-0.5,-1.9,25,-38.7333,156.362,987.473,-0.648759,-0.480555,-1.8493,
2026_07_06_15_24_41.108,3.847,30.4,0,0.76,0,0,0,0, ,0,0,0,0,0, ,-39.1,155.7,987.9,-0.6,-0.4,-1.9,25,-38.7557,156.343,987.514,-0.648834,-0.478693,-1.85239,
2026_07_06_15_24_41.124,3.847,30.4,0,0.759,0,0,0,0, ,0,0,0,0,0, ,-39.6,156.1,988.1,-0.6,-0.4,-1.9,25,-38.7919,156.316,987.544,-0.645859,-0.473897,-1.85529,
2026_07_06_15_24_41.156,3.847,30.4,0,0.759,0,0,0,0, ,0,0,0,0,0, ,-38.4,156,987.4,-0.6,-0.5,-1.8,25,-38.8046,156.3,987.556,-0.643064,-0.472441,-1.85497,
2026_07_06_15_24_41.172,3.847,30.5,0,0.758,0,0,0,0, ,0,0,0,0,0, ,-38.6,155.7,988.1,-0.7,-0.4,-1.9,25,-38.786,156.272,987.568,-0.643487,-0.471074,-1.85466,
2026_07_06_15_24_41.190,3.847,30.3,0,0.76,0,0,0,0, ,0,0,0,0,0, ,-37.8,156.2,987.1,-0.7,-0.5,-1.9,25,-38.7503,156.252,987.57,-0.646931,-0.46979,-1.85743,
2026_07_06_15_24_41.205,3.847,30.5,0,0.76,0,0,0,0, ,0,0,0,0,0, ,-39.4,156.3,986.2,-0.6,-0.5,-1.9,25,-38.7411,156.252,987.514,-0.647118,-0.47163,-1.86002,
2026_07_06_15_24_41.236,3.847,30.4,0,0.76,0,0,0,0, ,0,0,0,0,0, ,-38.5,157.8,988.2,-0.6,-0.5,-1.8,25,-38.7539,156.301,987.495,-0.644246,-0.473359,-1.85941,
