UTC_Time,Vin,TC1,TC2,Rh1,Vh1,Ah1,Acp1,Dty1,Err1,Rh2,Vh2,Ah2,Acp2,Dty2,Err2,Accel_x,Accel_y,Accel_z,gyro_x,gyro_y,gyro_z,Temp_c,Accel_x_h,Accel_y_h,Accel_z_h,gyro_x_h,gyro_y_h,gyro_z_h,
2026_07_06_17_22_00.391,3.872,35.3,0,0.762,0,0,0,0, ,0,0,0,0,0, ,-636.5,-134.2,-767.8,-1.2,-0.9,-2.7,25,-636.5,-134.2,-767.8,-1.2,-0.9,-2.7,
2026_07_06_17_22_00.408,3.872,35.3,0,0.761,0,0,0,0, ,0,0,0,0,0, ,-624.1,-140.6,-764.1,-0.3,-1.5,-2.7,25,-636.122,-134.395,-767.687,-1.17258,-0.918281,-2.7,
2026_07_06_17_22_00.427,3.872,35.2,0,0.761,0,0,0,0, ,0,0,0,0,0, ,-634,-135.8,-770,-0.2,0.3,-1.8,25,-635.691,-134.627,-767.648,-1.11636,-0.898886,-2.67258,
2026_07_06_17_22_00.447,3.872,35.2,0,0.764,0,0,0,0, ,0,0,0,0,0, ,-631.7,-138,-759.7,-0.8,0.4,-2.2,25,-635.518,-134.765,-767.478,-1.0788,-0.822782,-2.63159,
2026_07_06_17_22_00.467,3.872,35.3,0,0.763,0,0,0,0, ,0,0,0,0,0, ,-631.3,-142.9,-749,-0.7,-1.5,-1.8,25,-635.273,-135.112,-766.678,-1.05876,-0.806159,-2.59311,
2026_07_06_17_22_00.486,3.872,35.2,0,0.764,0,0,0,0, ,0,0,0,0,0, ,-629.8,-142.7,-746.5,-2.6,-2.7,-1,25,-634.985,-135.58,-765.524,-1.09479,-0.885003,-2.5204,
2026_07_06_17_22_00.507,3.872,35.3,0,0.763,0,0,0,0, ,0,0,0,0,0, ,-647.3,-141.4,-765.7,-4.1,0.2,-1,25,-635.203,-135.975,-764.95,-1.23222,-0.907245,-2.42775,
2026_07_06_17_22_00.526,3.872,35.2,0,0.762,0,0,0,0, ,0,0,0,0,0, ,-651,-141.1,-774.9,-3.8,0.5,-2.4,25,-636.053,-136.296,-765.276,-1.39783,-0.830631,-2.3834,
2026_07_06_17_22_00.546,3.872,35.2,0,0.76,0,0,0,0, ,0,0,0,0,0, ,-637.2,-144.5,-781.2,-1.7,-2.1,-2,25,-636.543,-136.692,-766.055,-1.48023,-0.828765,-2.37223,
2026_07_06_17_22_00.565,3.872,35.2,0,0.763,0,0,0,0, ,0,0,0,0,0, ,-626.4,-143,-768.3,0.2,-1.2,-1.8,25,-636.254,-137.122,-766.584,-1.43573,-0.878809,-2.34345,
2026_07_06_17_22_00.585,3.872,35.2,0,0.761,0,0,0,0, ,0,0,0,0,0, ,-625.3,-142.9,-760.1,1.2,-0.8,-1.8,25,-635.62,-137.478,-766.439,-1.30559,-0.886194,-2.31033,
2026_07_06_17_22_00.605,3.872,35.2,0,0.763,0,0,0,0, ,0,0,0,0,0, ,-637.3,-134,-764.6,0,-0.3,-1.4,25,-635.357,-137.537,-766.19,-1.18946,-0.865707,-2.26705,
2026_07_06_17_22_00.625,3.872,35.2,0,0.764,0,0,0,0, ,0,0,0,0,0, ,-630,-137.5,-745.2,-1.1,0.3,-1.7,25,-635.253,-137.428,-765.502,-1.1505,-0.812953,-2.22335,
2026_07_06_17_22_00.644,3.872,35.3,0,0.763,0,0,0,0, ,0,0,0,0,0, ,-626.3,-134.6,-754.3,-3.1,-0.9,-1.2,25,-634.82,-137.344,-764.542,-1.20836,-0.781695,-2.17623,
2026_07_06_17_22_00.664,3.872,35.2,0,0.763,0,0,0,0, ,0,0,0,0,0, ,-630.1,-138.5,-773.6,-2.9,-2.6,-0.4,25,-634.416,-137.296,-764.506,-1.31754,-0.840701,-2.09236,
2026_07_06_17_22_00.684,3.872,35.2,0,0.763,0,0,0,0, ,0,0,0,0,0, ,-637.2,-139.6,-777.4,-0.7,-1,0.4,25,-634.37,-137.402,-765.176,-1.34694,-0.899158,-1.96486,
2026_07_06_17_22_00.704,3.872,35.3,0,0.763,0,0,0,0, ,0,0,0,0,0, ,-654.1,-135,-764.2,0.2,0.6,-0.9,25,-635.057,-137.396,-765.519,-1.28009,-0.856553,-1.86036,
2026_07_06_17_22_00.724,3.872,35.2,0,0.763,0,0,0,0, ,0,0,0,0,0, ,-656.7,-132.9,-765.8,-1.7,-0.6,-1.4,25,-636.297,-137.186,-765.487,-1.24779,-0.804357,-1.81707,
2026_07_06_17_22_00.744,3.872,35.2,0,0.762,0,0,0,0, ,0,0,0,0,0, ,-640.8,-140.5,-761.5,-1,-1.6,-1.2,25,-637.056,-137.157,-765.375,-1.25402,-0.822373,-1.78556,
2026_07_06_17_22_00.763,3.872,35.3,0,0.763,0,0,0,0, ,0,0,0,0,0, ,-642.8,-134.8,-750.8,-0.2,0.1,-2.1,25,-637.345,-137.187,-764.813,-1.21416,-0.817963,-1.7773,
2026_07_06_17_22_00.783,3.872,35.2,0,0.764,0,0,0,0, ,0,0,0,0,0, ,-654.2,-130.1,-778.6,-1.2,-0.5,-1.9,25,-638.025,-136.898,-764.806,-1.18283,-0.780306,-1.79087,
2026_07_06_17_22_00.803,3.872,35.2,0,0.764,0,0,0,0, ,0,0,0,0,0, ,-649.9,-142.3,-755.4,-0.6,-0.3,-1,25,-638.879,-136.855,-764.94,-1.1656,-0.757131,-1.7701,
2026_07_06_17_22_00.823,3.872,35.2,0,0.761,0,0,0,0, ,0,0,0,0,0, ,-651,-140.7,-742,-0.9,-1.1,-1.6,25,-639.584,-137.139,-763.95,-1.14027,-0.753649,-1.74145,
2026_07_06_17_22_00.843,3.872,35.2,0,0.762,0,0,0,0, ,0,0,0,0,0, ,-663.2,-128.5,-760.9,-2.5,-1,-2.9,25,-640.652,-136.984,-763.188,-1.17438,-0.771708,-1.77244,
2026_07_06_17_22_00.862,3.872,35.2,0,0.763,0,0,0,0, ,0,0,0,0,0, ,-638.6,-139.6,-735.7,-1.8,-0.6,-4.8,25,-641.276,-136.805,-762.281,-1.23383,-0.773432,-1.89905,
2026_07_06_17_22_00.882,3.872,35.2,0,0.762,0,0,0,0, ,0,0,0,0,0, ,-625,-150.2,-775.5,-2.7,-1.5,-2.3,25,-640.699,-137.298,-761.874,-1.29575,-0.790286,-1.99965,
2026_07_06_17_22_00.902,3.872,35.1,0,0.763,0,0,0,0, ,0,0,0,0,0, ,-635.8,-136.3,-769.4,0.2,-0.7,-3.4,25,-640.071,-137.661,-762.519,-1.29297,-0.809159,-2.05147,
2026_07_06_17_22_00.922,3.872,35.2,0,0.763,0,0,0,0, ,0,0,0,0,0, ,-621.8,-145.6,-760.2,0.2,-0.7,-2.4,25,-639.384,-137.861,-762.658,-1.20199,-0.802507,-2.10318,
2026_07_06_17_22_00.942,3.872,35.2,0,0.763,0,0,0,0, ,0,0,0,0,0, ,-643.5,-135.7,-772.7,0,-3.7,-2.3,25,-638.974,-138.031,-762.889,-1.12265,-0.887667,-2.11822,
2026_07_06_17_22_00.962,3.872,35.2,0,0.763,0,0,0,0, ,0,0,0,0,0, ,-617.5,-142.2,-766.1,1.3,-4.8,-1.6,25,-638.458,-138.087,-763.285,-1.01463,-1.09256,-2.10797,
2026_07_06_17_22_00.982,3.872,35.2,0,0.763,0,0,0,0, ,0,0,0,0,0, ,-620.6,-132.5,-758.3,0.4,0,-1,25,-637.275,-138.042,-763.219,-0.901002,-1.17223,-2.05873,
2026_07_06_17_22_01.002,3.872,35.2,0,0.762,0,0,0,0, ,0,0,0,0,0, ,-635.1,-128.9,-758.9,-1.8,0.1,0.1,25,-636.701,-137.595,-762.938,-0.888753,-1.09775,-1.9607,
2026_07_06_17_22_01.021,3.872,35.2,0,0.763,0,0,0,0, ,0,0,0,0,0, ,-645.3,-134.7,-752.1,-2.2,-2.9,1.3,25,-636.914,-137.242,-762.485,-0.95647,-1.11617,-1.79856,
2026_07_06_17_22_01.041,3.872,35.2,0,0.763,0,0,0,0, ,0,0,0,0,0, ,-663.4,-139.7,-752.8,-2,-0.9,-0.2,25,-637.976,-137.239,-761.873,-1.02615,-1.16393,-1.65545,
2026_07_06_17_22_01.060,3.872,35.2,0,0.763,0,0,0,0, ,0,0,0,0,0, ,-655.1,-135.6,-753.5,-3.1,0.1,-2.1,25,-639.273,-137.264,-761.342,-1.11901,-1.11738,-1.62465,
2026_07_06_17_22_01.079,3.872,35.2,0,0.763,0,0,0,0, ,0,0,0,0,0, ,-634,-142.4,-757.9,-2.8,-2.7,-0.7,25,-639.594,-137.37,-760.998,-1.23059,-1.12851,-1.61096,
2026_07_06_17_22_01.100,3.872,35.2,0,0.761,0,0,0,0, ,0,0,0,0,0, ,-659,-140.8,-777.9,-2,-1.5,-0.2,25,-640.015,-137.628,-761.418,-1.30185,-1.18771,-1.54021,
2026_07_06_17_22_01.120,3.872,35.2,0,0.763,0,0,0,0, ,0,0,0,0,0, ,-666.8,-138.9,-759.7,2.1,2.8,-3.1,25,-641.41,-137.763,-761.868,-1.21947,-1.07572,-1.5469,
2026_07_06_17_22_01.139,3.872,35.1,0,0.765,0,0,0,0, ,0,0,0,0,0, ,-644.6,-143,-752.9,-0.4,0,-2.8,25,-642.28,-137.957,-761.529,-1.09336,-0.924861,-1.6324,
2026_07_06_17_22_01.159,3.872,35.1,0,0.762,0,0,0,0, ,0,0,0,0,0, ,-646.4,-136.1,-762.9,-0.9,-1.4,-2.1,25,-642.477,-138.055,-761.308,-1.06635,-0.911158,-1.68222,
2026_07_06_17_22_01.179,3.872,35.1,0,0.761,0,0,0,0, ,0,0,0,0,0, ,-636.1,-138.1,-762,0.3,-0.6,-3.2,25,-642.402,-137.996,-761.377,-1.01965,-0.916572,-1.7412,
2026_07_06_17_22_01.199,3.872,35.2,0,0.761,0,0,0,0, ,0,0,0,0,0, ,-633.5,-134,-755.3,-0.5,-1.1,-2.2,25,-641.939,-137.878,-761.211,-0.963606,-0.912515,-1.79963,
2026_07_06_17_22_01.219,3.872,35.2,0,0.762,0,0,0,0, ,0,0,0,0,0, ,-627.9,-134.8,-762.3,-1.8,-0.8,-1.6,25,-641.254,-137.666,-761.064,-0.974964,-0.914799,-1.80574,
2026_07_06_17_22_01.238,3.872,35.2,0,0.763,0,0,0,0, ,0,0,0,0,0, ,-634.7,-131.2,-759.7,-1,-0.2,-1.6,25,-640.647,-137.381,-761.06,-1.00086,-0.889523,-1.7932,
2026_07_06_17_22_01.259,3.872,35.2,0,0.763,0,0,0,0, ,0,0,0,0,0, ,-640.3,-130.8,-764.6,-1.2,-0.8,-1.7,25,-640.455,-136.993,-761.127,-1.00691,-0.865786,-1.78448,
2026_07_06_17_22_01.282,3.872,35.1,0,0.763,0,0,0,0, ,0,0,0,0,0, ,-637.3,-137.2,-761.8,-1.4,-1.1,-1.3,25,-640.355,-136.81,-761.253,-1.02477,-0.870918,-1.76714,
2026_07_06_17_22_01.298,3.872,35.2,0,0.762,0,0,0,0, ,0,0,0,0,0, ,-653.6,-133.4,-771.2,-1.2,-1.4,-1.5,25,-640.665,-136.718,-761.573,-1.04154,-0.894018,-1.74477,
2026_07_06_17_22_01.318,3.872,35.2,0,0.762,0,0,0,0, ,0,0,0,0,0, ,-636.9,-129.5,-750.1,-0.7,0.2,-2.4,25,-640.944,-136.397,-761.517,-1.03596,-0.876101,-1.75728,
2026_07_06_17_22_01.338,3.872,35,0,0.761,0,0,0,0, ,0,0,0,0,0, ,-646.9,-133.5,-756.8,-2,0.8,-1.8,25,-641.003,-136.099,-761.025,-1.0551,-0.792245,-1.77816,
2026_07_06_17_22_01.362,3.872,35.2,0,0.762,0,0,0,0, ,0,0,0,0,0, ,-651,-142.3,-765.3,2.6,-0.5,-2,25,-641.487,-136.209,-761.027,-0.972521,-0.734827,-1.78559,
2026_07_06_17_22_01.381,3.872,35.1,0,0.764,0,0,0,0, ,0,0,0,0,0, ,-654.7,-138.7,-759.6,-2.9,-2.1,-1.6,25,-642.179,-136.47,-761.113,-0.922398,-0.769267,-1.78646,
2026_07_06_17_22_01.397,3.872,35.1,0,0.761,0,0,0,0, ,0,0,0,0,0, ,-658.6,-134.8,-752.4,0.6,-0.5,-3.6,25,-643.061,-136.487,-760.802,-0.936268,-0.801609,-1.83604,
2026_07_06_17_22_01.417,3.872,35.2,0,0.761,0,0,0,0, ,0,0,0,0,0, ,-622.9,-144,-751.3,-3.3,1.5,-3.3,25,-642.92,-136.665,-760.256,-0.96148,-0.722292,-1.93439,
2026_07_06_17_22_01.437,3.872,35.2,0,0.762,0,0,0,0, ,0,0,0,0,0, ,-646.3,-132.6,-759.8,-1.8,-0.1,-1.9,25,-642.413,-136.764,-759.969,-1.05828,-0.635621,-1.97495,
2026_07_06_17_22_01.457,3.872,35.1,0,0.76,0,0,0,0, ,0,0,0,0,0, ,-646.7,-139.2,-776.7,-2.9,-0.5,-0.7,25,-642.662,-136.712,-760.474,-1.13699,-0.615169,-1.93382,
2026_07_06_17_22_01.475,3.872,35.1,0,0.761,0,0,0,0, ,0,0,0,0,0, ,-653.1,-135.4,-750.7,-1,-1.7,-1.4,25,-643.103,-136.747,-760.671,-1.18654,-0.644714,-1.87996,
2026_07_06_17_22_01.496,3.872,35.3,0,0.763,0,0,0,0, ,0,0,0,0,0, ,-644.2,-138.1,-765.7,-1.2,-1.5,-2.1,25,-643.441,-136.748,-760.52,-1.18126,-0.702926,-1.87204,
2026_07_06_17_22_01.517,3.872,35.2,0,0.765,0,0,0,0, ,0,0,0,0,0, ,-630.4,-137.4,-755.7,-2.5,-0.5,-1.8,25,-643.067,-136.809,-760.531,-1.22201,-0.721029,-1.87679,
2026_07_06_17_22_01.536,3.872,35.1,0,0.763,0,0,0,0, ,0,0,0,0,0, ,-650.1,-138.7,-768.7,-2.3,0.6,-1.7,25,-642.896,-136.884,-760.633,-1.2938,-0.674045,-1.86907,
2026_07_06_17_22_01.556,3.872,35.2,0,0.762,0,0,0,0, ,0,0,0,0,0, ,-654.5,-139.1,-772.3,-0.1,-1.1,-2.8,25,-643.469,-137.007,-761.234,-1.28808,-0.648205,-1.89228,
2026_07_06_17_22_01.575,3.872,35.2,0,0.762,0,0,0,0, ,0,0,0,0,0, ,-642.8,-135.8,-764,1,-0.8,-3.6,25,-643.784,-137.034,-761.655,-1.18217,-0.666595,-1.97197,
2026_07_06_17_22_01.595,3.872,35.3,0,0.762,0,0,0,0, ,0,0,0,0,0, ,-628,-138.4,-763,-0.1,-0.7,-3.1,25,-643.273,-137.038,-761.768,-1.08271,-0.671678,-2.05594,
2026_07_06_17_22_01.614,3.872,35.2,0,0.763,0,0,0,0, ,0,0,0,0,0, ,-634.8,-138.3,-755.4,-0.4,0.4,-2,25,-642.55,-137.118,-761.611,-1.03196,-0.639888,-2.08605,
2026_07_06_17_22_01.635,3.872,35.2,0,0.763,0,0,0,0, ,0,0,0,0,0, ,-645.5,-136.1,-757,-1,0.3,-2.3,25,-642.404,-137.123,-761.282,-1.01174,-0.579567,-2.08995,
2026_07_06_17_22_01.655,3.872,35.2,0,0.762,0,0,0,0, ,0,0,0,0,0, ,-642,-136.4,-765.2,-0.3,-1,-2.4,25,-642.486,-137.07,-761.271,-0.989692,-0.565577,-2.10579,
2026_07_06_17_22_01.674,3.872,35.1,0,0.763,0,0,0,0, ,0,0,0,0,0, ,-637,-138.4,-751.5,-0.8,1.4,-2.3,25,-642.304,-137.09,-761.093,-0.962898,-0.518925,-2.12067,
2026_07_06_17_22_01.694,3.872,35.2,0,0.762,0,0,0,0, ,0,0,0,0,0, ,-640.1,-136.8,-756.2,-1.9,-2.1,-1.5,25,-642.075,-137.121,-760.651,-0.986487,-0.508631,-2.10723,
2026_07_06_17_22_01.714,3.872,35.2,0,0.762,0,0,0,0, ,0,0,0,0,0, ,-641.4,-138.5,-765.1,-2.5,-2.1,-0.2,25,-641.994,-137.153,-760.651,-1.06044,-0.605605,-2.03062,
2026_07_06_17_22_01.734,3.872,35.2,0,0.762,0,0,0,0, ,0,0,0,0,0, ,-650.8,-141.3,-756.5,-1.1,0.1,-1.6,25,-642.244,-137.321,-760.66,-1.1055,-0.629639,-1.96172,
2026_07_06_17_22_01.753,3.872,35.2,0,0.762,0,0,0,0, ,0,0,0,0,0, ,-658.4,-137.6,-765.3,-1.2,-1.2,-2.2,25,-642.997,-137.45,-760.675,-1.10821,-0.624786,-1.95796,
2026_07_06_17_22_01.772,3.872,35.2,0,0.762,0,0,0,0, ,0,0,0,0,0, ,-650,-137.8,-768.6,-1,-1.9,-2.1,25,-643.68,-137.466,-761.057,-1.10771,-0.681166,-1.96966,
2026_07_06_17_22_01.793,3.872,35.2,0,0.763,0,0,0,0, ,0,0,0,0,0, ,-639.2,-140.6,-765.9,-0.3,-1.2,-1.8,25,-643.736,-137.571,-761.435,-1.07982,-0.73411,-1.96846,
2026_07_06_17_22_01.812,3.872,35.2,0,0.763,0,0,0,0, ,0,0,0,0,0, ,-656.8,-137.4,-751.3,-1.5,-1.1,-2.1,25,-643.996,-137.658,-761.262,-1.06886,-0.759454,-1.96734,
2026_07_06_17_22_01.833,3.872,35.2,0,0.763,0,0,0,0, ,0,0,0,0,0, ,-644,-137,-790.7,1,-1.8,-2.8,25,-644.386,-137.63,-761.855,-1.01896,-0.801534,-1.99675,
2026_07_06_17_22_01.853,3.872,35.2,0,0.763,0,0,0,0, ,0,0,0,0,0, ,-629.5,-137.8,-743,0.6,-1,-3.2,25,-643.921,-137.616,-762.16,-0.908121,-0.838003,-2.05788,
2026_07_06_17_22_01.872,3.872,35.2,0,0.762,0,0,0,0, ,0,0,0,0,0, ,-626.5,-142.5,-760.7,-1.4,-1.4,-1.6,25,-642.951,-137.771,-761.531,-0.877158,-0.860062,-2.07873,
2026_07_06_17_22_01.897,3.872,35.2,0,0.762,0,0,0,0, ,0,0,0,0,0, ,-641.6,-134.5,-744.6,-0.2,-1.3,-2.5,25,-642.408,-137.815,-760.99,-0.872456,-0.889918,-2.07698,
2026_07_06_17_22_01.912,3.872,35.1,0,0.761,0,0,0,0, ,0,0,0,0,0, ,-633.4,-133.4,-755.3,-1.8,0.4,-2.3,25,-642.109,-137.58,-760.317,-0.880228,-0.86311,-2.09667,
2026_07_06_17_22_01.930,3.872,35.2,0,0.762,0,0,0,0, ,0,0,0,0,0, ,-633,-136.1,-753.5,-2.9,0,-1.4,25,-641.566,-137.407,-759.957,-0.969792,-0.798327,-2.08163,
2026_07_06_17_22_01.951,3.872,35.2,0,0.763,0,0,0,0, ,0,0,0,0,0, ,-632.4,-139.7,-760.4,-1.6,-1.4,-1.2,25,-641.026,-137.437,-759.774,-1.04781,-0.792335,-2.034,
2026_07_06_17_22_01.971,3.872,35,0,0.762,0,0,0,0, ,0,0,0,0,0, ,-639.5,-143,-761.8,-0.8,-3,-0.4,25,-640.717,-137.676,-759.854,-1.05708,-0.878115,-1.95881,
2026_07_06_17_22_01.991,3.872,35.2,0,0.762,0,0,0,0, ,0,0,0,0,0, ,-656.7,-139.1,-759.2,-1,-0.4,-1.3,25,-641.167,-137.881,-759.894,-1.04751,-0.928198,-1.89124,
2026_07_06_17_22_02.010,3.872,35.3,0,0.762,0,0,0,0, ,0,0,0,0,0, ,-649.7,-135.4,-768.5,-0.9,0.8,-2.7,25,-641.9,-137.843,-760.135,-1.04157,-0.859449,-1.89787,
2026_07_06_17_22_02.030,3.872,35.2,0,0.762,0,0,0,0, ,0,0,0,0,0, ,-645,-132.6,-769.4,-0.1,0,-2.1,25,-642.232,-137.609,-760.672,-1.00856,-0.782701,-1.92846,
2026_07_06_17_22_02.050,3.872,35.2,0,0.763,0,0,0,0, ,0,0,0,0,0, ,-649.2,-135.6,-759.3,0.1,-0.4,-2.2,25,-642.529,-137.395,-760.896,-0.947105,-0.747193,-1.94196,
2026_07_06_17_22_02.070,3.872,35.2,0,0.763,0,0,0,0, ,0,0,0,0,0, ,-642.5,-133.4,-748.4,-0.9,-1.3,-1.9,25,-642.731,-137.218,-760.467,-0.913765,-0.753458,-1.94855,
2026_07_06_17_22_02.089,3.872,35.2,0,0.763,0,0,0,0, ,0,0,0,0,0, ,-645.2,-137.3,-756.4,-1.8,-1.9,-1.1,25,-642.799,-137.105,-759.975,-0.940348,-0.805044,-1.92121,
2026_07_06_17_22_02.109,3.872,35.2,0,0.762,0,0,0,0, ,0,0,0,0,0, ,-649.5,-136.4,-757.3,-1.4,-1,-1.5,25,-643.077,-137.089,-759.785,-0.980546,-0.844346,-1.88336,
2026_07_06_17_22_02.129,3.872,35.2,0,0.761,0,0,0,0, ,0,0,0,0,0, ,-660.4,-138,-756.3,-2,0.4,-2.4,25,-643.8,-137.096,-759.603,-1.02439,-0.811175,-1.88742,
2026_07_06_17_22_02.149,3.872,35.2,0,0.763,0,0,0,0, ,0,0,0,0,0, ,-646.3,-137.3,-768,-1.3,-1.4,-2.5,25,-644.382,-137.13,-759.758,-1.06251,-0.792212,-1.9217,
2026_07_06_17_22_02.169,3.872,35.2,0,0.762,0,0,0,0, ,0,0,0,0,0, ,-644.1,-140.8,-762.2,-0.2,-1.2,-2.2,25,-644.432,-137.247,-760.084,-1.04347,-0.823156,-1.9478,
2026_07_06_17_22_02.188,3.872,35.3,0,0.763,0,0,0,0, ,0,0,0,0,0, ,-651.3,-137.4,-756.4,-0.1,0.4,-2.9,25,-644.631,-137.36,-760.036,-0.989022,-0.79737,-1.9845,
2026_07_06_17_22_02.209,3.872,35.2,0,0.764,0,0,0,0, ,0,0,0,0,0, ,-642.8,-130.7,-752.1,-0.8,0.7,-3.5,25,-644.778,-137.158,-759.683,-0.956175,-0.715264,-2.05857,
2026_07_06_17_22_02.229,3.872,35.1,0,0.762,0,0,0,0, ,0,0,0,0,0, ,-629.3,-135,-751.2,-2.3,0.4,-3.2,25,-644.247,-136.895,-759.194,-0.992361,-0.638162,-2.13726,
2026_07_06_17_22_02.248,3.872,35.2,0,0.763,0,0,0,0, ,0,0,0,0,0, ,-630.8,-139.8,-760.7,-2.8,-1.2,-1.4,25,-643.381,-136.926,-758.996,-1.08728,-0.623649,-2.14718,
2026_07_06_17_22_02.268,3.872,35.2,0,0.762,0,0,0,0, ,0,0,0,0,0, ,-645.1,-136.7,-762.6,-2,-2.6,-0.7,25,-643.05,-137.007,-759.158,-1.16727,-0.701427,-2.08032,
2026_07_06_17_22_02.288,3.872,35.2,0,0.763,0,0,0,0, ,0,0,0,0,0, ,-651.7,-130.6,-743.6,0,-0.7,-1.6,25,-643.376,-136.802,-758.789,-1.15708,-0.759231,-2.02363,
2026_07_06_17_22_02.308,3.872,35.2,0,0.763,0,0,0,0, ,0,0,0,0,0, ,-647.5,-138,-761.5,-2.2,1.8,-1.9,25,-643.756,-136.65,-758.409,-1.1536,-0.679449,-2.00696,
2026_07_06_17_22_02.328,3.872,35.2,0,0.762,0,0,0,0, ,0,0,0,0,0, ,-651,-141.2,-764.7,-3.7,0.1,-2.4,25,-644.091,-136.83,-758.694,-1.26307,-0.580155,-2.01567,
2026_07_06_17_22_02.346,3.872,35.2,0,0.764,0,0,0,0, ,0,0,0,0,0, ,-651.7,-141.2,-770.9,-0.9,-2.1,-2.3,25,-644.533,-137.096,-759.249,-1.32626,-0.605739,-2.03605,
2026_07_06_17_22_02.367,3.872,35.2,0,0.761,0,0,0,0, ,0,0,0,0,0, ,-637.8,-138.5,-764.8,-0.1,-0.8,-2.6,25,-644.546,-137.264,-759.773,-1.27591,-0.657186,-2.06127,
2026_07_06_17_22_02.386,3.872,35.1,0,0.764,0,0,0,0, ,0,0,0,0,0, ,-642,-134.6,-755.1,-0.7,-0.1,-2.3,25,-644.263,-137.22,-759.784,-1.22253,-0.644561,-2.08496,
2026_07_06_17_22_02.407,3.872,35.2,0,0.762,0,0,0,0, ,0,0,0,0,0, ,-636.1,-141.7,-749.5,-1.5,-2,-1.4,25,-643.945,-137.277,-759.328,-1.21507,-0.669267,-2.07064,
2026_07_06_17_22_02.428,3.872,35.1,0,0.762,0,0,0,0, ,0,0,0,0,0, ,-643.5,-136.4,-754.5,-2.2,-0.1,-1.7,25,-643.693,-137.385,-758.882,-1.25376,-0.692468,-2.03891,
2026_07_06_17_22_02.451,3.872,35.2,0,0.763,0,0,0,0, ,0,0,0,0,0, ,-644.8,-137.2,-758.5,-1,2,-2.1,25,-643.721,-137.349,-758.736,-1.27486,-0.59238,-2.03045,
2026_07_06_17_22_02.468,3.872,35.1,0,0.762,0,0,0,0, ,0,0,0,0,0, ,-651.4,-139.7,-766.7,-1.9,-1,-1.4,25,-643.987,-137.416,-758.972,-1.28553,-0.525813,-2.01336,
2026_07_06_17_22_02.487,3.872,35.2,0,0.763,0,0,0,0, ,0,0,0,0,0, ,-651.6,-139.2,-765.2,-0.1,-2.3,-2.3,25,-644.445,-137.54,-759.397,-1.26813,-0.594319,-2.00341,
2026_07_06_17_22_02.505,3.872,35.2,0,0.764,0,0,0,0, ,0,0,0,0,0, ,-653.9,-138.4,-772.8,-0.4,1,-3.4,25,-644.951,-137.617,-759.982,-1.20609,-0.597712,-2.05499,
2026_07_06_17_22_02.526,3.872,35.1,0,0.761,0,0,0,0, ,0,0,0,0,0, ,-637.9,-146.7,-759.7,0.1,0.9,-3.2,25,-645.009,-137.918,-760.364,-1.14173,-0.503398,-2.13086,
2026_07_06_17_22_02.545,3.872,35.1,0,0.762,0,0,0,0, ,0,0,0,0,0, ,-636.7,-147.3,-759.6,1.9,-0.6,-2.3,25,-644.539,-138.471,-760.321,-1.01122,-0.463581,-2.16859,
2026_07_06_17_22_02.565,3.872,35.2,0,0.762,0,0,0,0, ,0,0,0,0,0, ,-643.6,-141.1,-785.1,-4.2,-0.4,-2.2,25,-644.272,-138.82,-761.054,-1.01968,-0.465801,-2.17355,
2026_07_06_17_22_02.585,3.872,35.2,0,0.765,0,0,0,0, ,0,0,0,0,0, ,-639.2,-135.6,-751.2,1.3,-2.1,-2.1,25,-644.097,-138.792,-761.486,-1.0459,-0.513588,-2.17212,
2026_07_06_17_22_02.604,3.872,35.2,0,0.762,0,0,0,0, ,0,0,0,0,0, ,-632.4,-149.5,-768.1,-0.6,-2.8,-0.2,25,-643.591,-139.021,-761.374,-0.960837,-0.631588,-2.10983,
2026_07_06_17_22_02.625,3.872,35.2,0,0.764,0,0,0,0, ,0,0,0,0,0, ,-646.3,-142.4,-757,0.2,-0.6,-0.9,25,-643.333,-139.443,-761.446,-0.914474,-0.696694,-2.01478,
2026_07_06_17_22_02.644,3.872,35.2,0,0.763,0,0,0,0, ,0,0,0,0,0, ,-657.8,-143.3,-765.5,-0.1,1.7,-2.8,25,-643.864,-139.65,-761.434,-0.855701,-0.620724,-2.00474,
2026_07_06_17_22_02.665,3.872,35.2,0,0.762,0,0,0,0, ,0,0,0,0,0, ,-658.6,-139.7,-769.7,-0.5,-1.3,-2.7,25,-644.738,-139.763,-761.81,-0.821838,-0.570711,-2.05015,
2026_07_06_17_22_02.683,3.872,35.1,0,0.762,0,0,0,0, ,0,0,0,0,0, ,-635,-142.7,-768.1,0.7,-3.3,-2.2,25,-644.863,-139.851,-762.242,-0.765664,-0.67609,-2.07452,
2026_07_06_17_22_02.704,3.872,35.2,0,0.763,0,0,0,0, ,0,0,0,0,0, ,-640.3,-139.7,-752.8,0.9,-0.3,-2.3,25,-644.424,-139.933,-762.133,-0.670256,-0.744578,-2.08521,
2026_07_06_17_22_02.724,3.872,35.1,0,0.763,0,0,0,0, ,0,0,0,0,0, ,-648,-131.3,-757.4,-0.6,0.6,-2.9,25,-644.407,-139.663,-761.704,-0.620272,-0.690065,-2.11658,
2026_07_06_17_22_02.743,3.872,35.2,0,0.762,0,0,0,0, ,0,0,0,0,0, ,-644.4,-135.7,-743.7,-0.9,-0.3,-2.8,25,-644.516,-139.287,-761.024,-0.628177,-0.638873,-2.16127,
2026_07_06_17_22_02.763,3.872,35.1,0,0.763,0,0,0,0, ,0,0,0,0,0, ,-621.3,-144.4,-736.2,-0.3,-3.2,-1.4,25,-643.805,-139.334,-759.74,-0.62646,-0.706582,-2.15754,
2026_07_06_17_22_02.783,3.872,35.1,0,0.763,0,0,0,0, ,0,0,0,0,0, ,-648.9,-130.8,-754.6,-0.4,-0.8,-0.9,25,-643.275,-139.228,-758.866,-0.609613,-0.7854,-2.09614,
2026_07_06_17_22_02.802,3.872,35.1,0,0.762,0,0,0,0, ,0,0,0,0,0, ,-647.4,-136.5,-749.6,-2.2,1.3,-2,25,-643.572,-138.888,-758.454,-0.651684,-0.722305,-2.05677,
2026_07_06_17_22_02.822,3.872,35.1,0,0.763,0,0,0,0, ,0,0,0,0,0, ,-652.9,-130.4,-741.6,-2.2,-0.7,-2.7,25,-643.973,-138.557,-757.671,-0.746034,-0.660009,-2.07464,
2026_07_06_17_22_02.842,3.872,35.1,0,0.762,0,0,0,0, ,0,0,0,0,0, ,-633.9,-138,-776.4,-3.7,-2.4,-2.2,25,-643.938,-138.291,-757.752,-0.880338,-0.714242,-2.09751,
2026_07_06_17_22_02.862,3.872,35.2,0,0.762,0,0,0,0, ,0,0,0,0,0, ,-630.7,-140.7,-776.6,-0.9,1,-1.5,25,-643.229,-138.356,-758.894,-0.966849,-0.713375,-2.08243,
2026_07_06_17_22_02.881,3.872,35.1,0,0.763,0,0,0,0, ,0,0,0,0,0, ,-641.7,-135.3,-750.3,0.1,1.2,-1.4,25,-642.8,-138.334,-759.172,-0.932307,-0.602872,-2.04389,
2026_07_06_17_22_02.902,3.872,35,0,0.763,0,0,0,0, ,0,0,0,0,0, ,-656,-133.7,-762.5,-1.9,1.3,-3,25,-643.169,-138.1,-759.003,-0.930338,-0.489963,-2.0534,
2026_07_06_17_22_02.921,3.872,35.1,0,0.762,0,0,0,0, ,0,0,0,0,0, ,-644.5,-142,-764.2,-0.9,0.8,-3.7,25,-643.601,-138.085,-759.268,-0.958958,-0.396121,-2.13241,
2026_07_06_17_22_02.940,3.872,35.2,0,0.762,0,0,0,0, ,0,0,0,0,0, ,-626.2,-143.5,-755.3,0,-0.8,-2,25,-643.098,-138.369,-759.297,-0.927943,-0.371983,-2.17614,
2026_07_06_17_22_02.961,3.872,35.1,0,0.761,0,0,0,0, ,0,0,0,0,0, ,-649,-138.6,-764.8,-1.2,1.9,-2,25,-642.763,-138.533,-759.343,-0.907959,-0.315799,-2.16541,
2026_07_06_17_22_02.983,3.872,35.1,0,0.762,0,0,0,0, ,0,0,0,0,0, ,-636.7,-143.3,-749.2,-1.1,2.9,-2.7,25,-642.768,-138.68,-759.2,-0.922709,-0.150305,-2.17666,
2026_07_06_17_22_03.000,3.872,35.1,0,0.763,0,0,0,0, ,0,0,0,0,0, ,-642.8,-153.6,-762.2,-2,6.5,-3.4,25,-642.584,-139.275,-758.987,-0.960934,0.14526,-2.22988,
2026_07_06_17_22_03.020,3.872,35,0,0.763,0,0,0,0, ,0,0,0,0,0, ,-635.1,-172.6,-820,7.6,23.2,-7.1,25,-642.363,-140.727,-760.944,-0.731752,1.04133,-2.41392,
2026_07_06_17_22_03.039,3.872,35.1,0,0.762,0,0,0,0, ,0,0,0,0,0, ,-609.6,-145.5,-745.6,11.1,37.8,-9.9,25,-641.143,-141.844,-762.276,-0.117396,2.83647,-2.78479,
2026_07_06_17_22_03.059,3.872,35.2,0,0.763,0,0,0,0, ,0,0,0,0,0, ,-639.1,-140.5,-720.2,2.4,34,-8.6,25,-640.12,-141.914,-760.486,0.301086,4.85128,-3.17876,
2026_07_06_17_22_03.079,3.872,35.1,0,0.762,0,0,0,0, ,0,0,0,0,0, ,-582.5,-164.7,-788.9,-1.5,52,-16.1,25,-638.333,-142.565,-760.124,0.310161,7.17596,-3.73763,
2026_07_06_17_22_03.099,3.872,35.1,0,0.761,0,0,0,0, ,0,0,0,0,0, ,-586.5,-144.7,-754.1,-4,101.9,-29.8,25,-635.053,-143.305,-760.817,0.123682,11.4278,-4.90839,
2026_07_06_17_22_03.119,3.872,35.1,0,0.762,0,0,0,0, ,0,0,0,0,0, ,-564.3,-158,-782.4,-11.4,140.2,-40.7,25,-631.418,-143.795,-761.27,-0.353073,18.1079,-6.75733,
2026_07_06_17_22_03.138,3.872,35.1,0,0.762,0,0,0,0, ,0,0,0,0,0, ,-501.9,-152.4,-850.8,-17.2,171.3,-51.8,25,-625.426,-144.49,-764.642,-1.20296,26.4955,-9.16391,
2026_07_06_17_22_03.159,3.872,35.2,0,0.764,0,0,0,0, ,0,0,0,0,0, ,-418.7,-140.7,-862.6,-18.8,196.5,-54.8,25,-615.364,-144.616,-770.252,-2.22653,36.0873,-11.8535,
2026_07_06_17_22_03.178,3.872,35.1,0,0.763,0,0,0,0, ,0,0,0,0,0, ,-248,-169.7,-884.2,-7.4,216.3,-53,25,-598.179,-145.261,-776.537,-2.88914,46.4657,-14.4157,
2026_07_06_17_22_03.198,3.872,35.2,0,0.762,0,0,0,0, ,0,0,0,0,0, ,-356.8,-126.8,-911.2,-12.7,229.8,-54.4,25,-580.155,-145.443,-783.921,-3.3255,57.2264,-16.8096,
2026_07_06_17_22_03.217,3.872,35.1,0,0.763,0,0,0,0, ,0,0,0,0,0, ,-180.5,-157.8,-990.8,-16.5,225.6,-53.2,25,-561.172,-145.251,-794.102,-4.01254,67.6146,-19.0637,
2026_07_06_17_22_03.238,3.872,35.1,0,0.762,0,0,0,0, ,0,0,0,0,0, ,-110.4,-176.1,-1002.3,-6.6,226,-47.7,25,-535.839,-146.574,-806.439,-4.47185,77.254,-20.9763,
2026_07_06_17_22_03.258,3.872,35.1,0,0.762,0,0,0,0, ,0,0,0,0,0, ,-34.7,-170.5,-956.6,-6.6,222.7,-36.5,25,-507.608,-148.202,-816.981,-4.60154,86.2177,-22.2635,
2026_07_06_17_22_03.277,3.872,35.2,0,0.763,0,0,0,0, ,0,0,0,0,0, ,42.9,-172.8,-944.5,-18.2,218.2,-22.3,25,-476.425,-149.631,-825.121,-5.07676,94.3975,-22.6984,
2026_07_06_17_22_03.297,3.872,35.1,0,0.763,0,0,0,0, ,0,0,0,0,0, ,89.7,-167.2,-985.8,-20.5,223.5,-16.1,25,-443.353,-150.872,-833.654,-5.94653,102.103,-22.4852,
2026_07_06_17_22_03.317,3.872,35.1,0,0.762,0,0,0,0, ,0,0,0,0,0, ,101.8,-168.8,-1073.4,-12.3,248.6,-23.7,25,-410.502,-151.916,-845.594,-6.58354,110.266,-22.3277,
2026_07_06_17_22_03.337,3.872,35.1,0,0.762,0,0,0,0, ,0,0,0,0,0, ,204.3,-166,-966.3,0.9,250.1,-35,25,-376.16,-152.86,-856.213,-6.5297,118.741,-22.7556,
2026_07_06_17_22_03.356,3.872,35.1,0,0.764,0,0,0,0, ,0,0,0,0,0, ,270,-138.4,-896.8,-0.8,243.5,-43.4,25,-338.787,-152.819,-860.804,-6.12875,126.545,-23.7577,
2026_07_06_17_22_03.376,3.872,35.2,0,0.764,0,0,0,0, ,0,0,0,0,0, ,368.2,-135,-870.2,-12.9,216.2,-43.9,25,-298.697,-151.837,-862.187,-6.1727,132.84,-24.9699,
2026_07_06_17_22_03.396,3.872,35.1,0,0.763,0,0,0,0, ,0,0,0,0,0, ,477.1,-130.7,-876.3,-24,195.5,-35.7,25,-254.74,-150.68,-862.861,-6.92085,137.289,-25.8736,
2026_07_06_17_22_03.416,3.872,35.2,0,0.763,0,0,0,0, ,0,0,0,0,0, ,577.5,-125.8,-892.8,-17.7,192.9,-35.9,25,-207.084,-149.313,-864.183,-7.76966,140.757,-26.4785,
2026_07_06_17_22_03.435,3.872,35.1,0,0.763,0,0,0,0, ,0,0,0,0,0, ,611.2,-125.4,-881.4,-1.3,214.7,-38.2,25,-158.247,-147.868,-865.579,-7.8751,144.599,-27.1227,
2026_07_06_17_22_03.456,3.872,35.2,0,0.763,0,0,0,0, ,0,0,0,0,0, ,633.7,-100,-778.4,3.5,230.6,-45.6,25,-110.673,-145.725,-863.405,-7.32818,149.355,-28.0232,
2026_07_06_17_22_03.476,3.872,35.1,0,0.764,0,0,0,0, ,0,0,0,0,0, ,748.7,-81.7,-654.1,-3.2,207.7,-45.4,25,-61.8088,-142.381,-854.438,-6.87248,153.608,-29.0881,
2026_07_06_17_22_03.495,3.872,35.2,0,0.764,0,0,0,0, ,0,0,0,0,0, ,836.6,-74.7,-631.2,-13.6,176.6,-37.2,25,-9.74023,-138.47,-841.532,-6.96556,155.957,-29.8323,
2026_07_06_17_22_03.514,3.872,35,0,0.763,0,0,0,0, ,0,0,0,0,0, ,888.5,-78.2,-578.8,-8,189.1,-28.5,25,43.415,-134.691,-827.118,-7.19922,157.595,-30.0162,
2026_07_06_17_22_03.535,3.872,35.1,0,0.764,0,0,0,0, ,0,0,0,0,0, ,882.3,-62.2,-550.4,-6.2,186.5,-24.4,25,94.7234,-130.761,-811.121,-7.19318,159.436,-29.7989,
2026_07_06_17_22_03.553,3.872,35.1,0,0.764,0,0,0,0, ,0,0,0,0,0, ,826.6,-41.9,-526.8,-12,175.2,-26.2,25,141.019,-125.964,-794.514,-7.30937,160.741,-29.5247,
2026_07_06_17_22_03.574,3.872,35,0,0.762,0,0,0,0, ,0,0,0,0,0, ,835.8,-34.3,-459.5,-8.3,168.3,-38.2,25,183.077,-120.61,-776.15,-7.48247,161.412,-29.6878,
2026_07_06_17_22_03.593,3.872,35.2,0,0.762,0,0,0,0, ,0,0,0,0,0, ,886.7,-21.6,-354.1,-9.2,158.5,-45.2,25,224.403,-114.964,-753.643,-7.55971,161.533,-30.4198,
2026_07_06_17_22_03.613,3.872,35.1,0,0.763,0,0,0,0, ,0,0,0,0,0, ,927.1,-9.5,-284.6,-19.1,149.4,-40.9,25,265.993,-108.906,-727.178,-7.96131,161.071,-31.1894,
2026_07_06_17_22_03.634,3.872,35.1,0,0.763,0,0,0,0, ,0,0,0,0,0, ,934.5,5.6,-259.2,-23.4,151.1,-41.3,25,306.505,-102.388,-699.434,-8.77109,160.411,-31.7933,
2026_07_06_17_22_03.653,3.872,35.2,0,0.763,0,0,0,0, ,0,0,0,0,0, ,916.9,22.2,-254.1,-24.7,140.2,-42.4,25,344.237,-95.3018,-672.452,-9.70215,159.512,-32.4062,
2026_07_06_17_22_03.673,3.872,35.1,0,0.763,0,0,0,0, ,0,0,0,0,0, ,928.4,30.1,-225.9,-21.5,121.4,-43.4,25,379.484,-87.9008,-646.1,-10.5186,157.762,-33.0456,
2026_07_06_17_22_03.692,3.872,35.2,0,0.764,0,0,0,0, ,0,0,0,0,0, ,989.7,30.3,-180.9,-21,96.9,-37.5,25,414.801,-80.704,-619.123,-11.1725,154.8,-33.4968,
2026_07_06_17_22_03.712,3.872,35,0,0.764,0,0,0,0, ,0,0,0,0,0, ,1050,28.9,-208.7,-30.2,22.9,-6,25,451.671,-73.9824,-593.266,-12.0517,149.017,-32.781,
2026_07_06_17_22_03.732,3.872,35.1,0,0.762,0,0,0,0, ,0,0,0,0,0, ,1042.3,38.3,-196.2,-22.4,-9.2,4.9,25,487.897,-67.4266,-569.45,-12.92,140.354,-30.8169,
2026_07_06_17_22_03.753,3.872,35.1,0,0.763,0,0,0,0, ,0,0,0,0,0, ,1008,45,-171.3,-13.1,7.6,4.5,25,520.636,-60.7797,-545.947,-13.2143,131.752,-28.6526,
2026_07_06_17_22_03.775,3.872,35.1,0,0.762,0,0,0,0, ,0,0,0,0,0, ,1016.4,27.2,-153.5,0.2,21.9,1.6,25,550.591,-54.8761,-522.574,-12.8021,124.622,-26.7207,
2026_07_06_17_22_03.792,3.872,35.1,0,0.763,0,0,0,0, ,0,0,0,0,0, ,993.1,11.8,-135.3,4.1,44.5,-8,25,578.266,-50.3438,-499.529,-11.8909,119.051,-25.2874,
2026_07_06_17_22_03.812,3.872,35.1,0,0.761,0,0,0,0, ,0,0,0,0,0, ,917.1,57.3,-110.1,6.7,26.1,-5.5,25,601.229,-45.1706,-476.566,-10.8373,113.948,-24.1578,
2026_07_06_17_22_03.831,3.872,35.1,0,0.762,0,0,0,0, ,0,0,0,0,0, ,944.7,50.4,-102.2,4.2,2.4,-3.1,25,621.319,-39.1366,-453.994,-9.84477,107.872,-22.9477,
2026_07_06_17_22_03.851,3.872,35.1,0,0.762,0,0,0,0, ,0,0,0,0,0, ,977.4,47.4,-98.8,3.5,0,-4.1,25,642.021,-33.7718,-432.453,-9.01025,101.372,-21.7687,
2026_07_06_17_22_03.871,3.872,35.1,0,0.763,0,0,0,0, ,0,0,0,0,0, ,996.4,40,-94.8,4.3,-8.1,-1.8,25,663.037,-29.0509,-411.999,-8.22353,94.9479,-20.622,
2026_07_06_17_22_03.890,3.872,35.2,0,0.764,0,0,0,0, ,0,0,0,0,0, ,1002.6,36.4,-108.8,7.3,-22,2.5,25,683.54,-24.9528,-393.096,-7.36897,88.2449,-19.344,
2026_07_06_17_22_03.911,3.872,35.1,0,0.764,0,0,0,0, ,0,0,0,0,0, ,964.3,41.7,-151.1,6,-55.4,10.5,25,701.816,-21.0526,-377.061,-6.51469,80.5092,-17.7691,
2026_07_06_17_22_03.930,3.872,35.2,0,0.764,0,0,0,0, ,0,0,0,0,0, ,1004.8,15.5,-218.9,13.2,-90.9,20.9,25,719.045,-18.0269,-365.357,-5.5327,71.1456,-15.7296,
2026_07_06_17_22_03.950,3.872,35.1,0,0.762,0,0,0,0, ,0,0,0,0,0, ,1030,-16.6,-291.7,20.2,-109.2,22.7,25,737.226,-16.9619,-358.651,-4.17789,60.7133,-13.4426,
2026_07_06_17_22_03.969,3.872,35.1,0,0.762,0,0,0,0, ,0,0,0,0,0, ,1015.7,-28.1,-343.8,23.6,-125,24,25,754.631,-17.2902,-356.158,-2.58877,49.8778,-11.2006,
2026_07_06_17_22_03.991,3.872,35.1,0,0.762,0,0,0,0, ,0,0,0,0,0, ,974.1,-43.7,-445.8,38.9,-177.3,27.7,25,769.273,-18.4243,-358.513,-0.526723,37.6277,-8.94282,
2026_07_06_17_22_04.010,3.872,35.1,0,0.763,0,0,0,0, ,0,0,0,0,0, ,990.3,-59.2,-476.5,45.5,-246.2,42.3,25,782.248,-20.4368,-364.767,2.07694,22.4313,-6.26505,
2026_07_06_17_22_04.030,3.872,35.1,0,0.764,0,0,0,0, ,0,0,0,0,0, ,996,-55.4,-539.6,46.9,-250.1,58.4,25,795.1,-22.6831,-373.499,4.76569,5.94271,-2.81507,
2026_07_06_17_22_04.049,3.872,35,0,0.762,0,0,0,0, ,0,0,0,0,0, ,979.6,-62.9,-585.4,41.7,-250.1,65.6,25,806.843,-24.9053,-385.016,7.17481,-9.65989,1.1346,
2026_07_06_17_22_04.069,3.872,35.1,0,0.761,0,0,0,0, ,0,0,0,0,0, ,931.8,-81.2,-620.2,32.1,-250.1,70.6,25,815.914,-27.7782,-398.287,8.98619,-24.3117,5.2153,
2026_07_06_17_22_04.088,3.872,35.1,0,0.764,0,0,0,0, ,0,0,0,0,0, ,742.6,-94.2,-671.2,24.5,-250.1,75.8,25,817.211,-31.4297,-413.364,10.1631,-38.0707,9.35812,
2026_07_06_17_22_04.109,3.872,35,0,0.763,0,0,0,0, ,0,0,0,0,0, ,587.2,-80.4,-688.9,6.2,-250.1,73.7,25,807.929,-34.8343,-429.615,10.4792,-50.9912,13.3429,
2026_07_06_17_22_04.127,3.872,35.1,0,0.762,0,0,0,0, ,0,0,0,0,0, ,556.1,-106.3,-795.2,-1.4,-250.1,64.6,25,793.531,-38.4001,-448.654,9.98687,-63.1244,16.7437,
2026_07_06_17_22_04.148,3.872,35.1,0,0.763,0,0,0,0, ,0,0,0,0,0, ,512.4,-139,-887,-5.8,-250.1,55,25,777.731,-43.5341,-472.569,9.15892,-74.5182,19.3674,
2026_07_06_17_22_04.168,3.872,35.2,0,0.762,0,0,0,0, ,0,0,0,0,0, ,419.7,-156.7,-934.5,2.2,-250.1,42.4,25,758.738,-49.8908,-499.27,8.49111,-85.2177,21.1549,
2026_07_06_17_22_04.187,3.872,35.1,0,0.763,0,0,0,0, ,0,0,0,0,0, ,352.2,-169.6,-1010.7,15.9,-226.5,30.9,25,736.021,-56.7926,-528.114,8.52517,-94.5462,22.0991,
2026_07_06_17_22_04.207,3.872,35.1,0,0.763,0,0,0,0, ,0,0,0,0,0, ,246,-171.3,-999.3,30.7,-176.1,25.3,25,709.396,-63.7186,-557.174,9.42551,-101.052,22.4648,
2026_07_06_17_22_04.227,3.872,35.1,0,0.762,0,0,0,0, ,0,0,0,0,0, ,192,-166.6,-955.6,26.4,-189.9,34.5,25,679.513,-70.1311,-582.785,10.5909,-106.045,22.9179,
2026_07_06_17_22_04.247,3.872,35.1,0,0.765,0,0,0,0, ,0,0,0,0,0, ,121,-179.1,-940.9,16.3,-226.2,37.8,25,647.642,-76.3905,-605.055,11.2465,-112.261,23.7242,
2026_07_06_17_22_04.266,3.872,35.2,0,0.762,0,0,0,0, ,0,0,0,0,0, ,3.6,-162.5,-940.9,8.6,-220.2,37.2,25,611.972,-82.1436,-625.521,11.3199,-119.021,24.5637,
2026_07_06_17_22_04.287,3.872,35.1,0,0.762,0,0,0,0, ,0,0,0,0,0, ,-61.8,-169.4,-859.7,3.6,-195.3,27.1,25,572.907,-87.2506,-642.265,11.0018,-124.428,25.026,
2026_07_06_17_22_04.306,3.872,35.1,0,0.763,0,0,0,0, ,0,0,0,0,0, ,-121.3,-175.1,-840.9,5.8,-167.8,12.9,25,532.417,-92.4302,-654.942,10.6178,-127.909,24.7197,
2026_07_06_17_22_04.327,3.872,35,0,0.761,0,0,0,0, ,0,0,0,0,0, ,-159.5,-167.9,-826,4.1,-138.1,5.2,25,491.417,-97.2485,-665.82,10.2724,-129.435,23.7648,
2026_07_06_17_22_04.346,3.872,35.1,0,0.761,0,0,0,0, ,0,0,0,0,0, ,-201,-166.6,-815.4,1.2,-121.6,0.2,25,450.487,-101.514,-675.258,9.80791,-129.46,22.4812,
2026_07_06_17_22_04.365,3.872,35.1,0,0.763,0,0,0,0, ,0,0,0,0,0, ,-275.6,-154.5,-826,-7.7,-139.7,-17,25,408.514,-105.112,-684.121,9.01219,-129.533,20.5994,
2026_07_06_17_22_04.389,3.872,35.1,0,0.763,0,0,0,0, ,0,0,0,0,0, ,-184.4,-228.6,-781,-16.5,-126,2.9,25,369.605,-110.379,-691.396,7.72567,-129.735,18.9145,
2026_07_06_17_22_04.406,3.872,35.2,0,0.764,0,0,0,0, ,0,0,0,0,0, ,-384.3,-196.8,-865.1,-20.1,-105.3,9.5,25,329.754,-116.614,-699.418,6.13973,-128.877,18.1397,
2026_07_06_17_22_04.425,3.872,35,0,0.763,0,0,0,0, ,0,0,0,0,0, ,-415.6,-197.3,-909,-16.8,-91.6,8,25,285.288,-121.516,-710.852,4.64129,-127.023,17.5675,
2026_07_06_17_22_04.445,3.872,35.1,0,0.763,0,0,0,0, ,0,0,0,0,0, ,-450.8,-199.3,-909.1,-8.2,-88.9,2.8,25,241.505,-126.195,-722.93,3.59674,-124.782,16.826,
2026_07_06_17_22_04.464,3.872,35.1,0,0.762,0,0,0,0, ,0,0,0,0,0, ,-463.9,-190.9,-855.8,-9,-88.1,6.3,25,198.919,-130.394,-732.651,2.8535,-122.571,16.078,
2026_07_06_17_22_04.485,3.872,35.1,0,0.762,0,0,0,0, ,0,0,0,0,0, ,-488.5,-189.5,-822.8,-13.7,-102.4,10.3,25,157.779,-134.038,-739.149,1.98798,-120.906,15.604,
2026_07_06_17_22_04.505,3.872,35.1,0,0.762,0,0,0,0, ,0,0,0,0,0, ,-531.1,-192.7,-817.5,-8.7,-106.7,16.1,25,117.098,-137.515,-744.085,1.18434,-119.909,15.4575,
2026_07_06_17_22_04.524,3.872,35.1,0,0.763,0,0,0,0, ,0,0,0,0,0, ,-590.9,-189.4,-814.6,-5.6,-84.4,11.7,25,75.7766,-140.778,-748.471,0.676462,-118.425,15.3626,
2026_07_06_17_22_04.545,3.872,35.1,0,0.764,0,0,0,0, ,0,0,0,0,0, ,-665.7,-174.6,-821.6,-3.4,-67.9,2,25,32.8719,-143.29,-752.714,0.361022,-115.849,14.8439,
2026_07_06_17_22_04.564,3.872,35.2,0,0.762,0,0,0,0, ,0,0,0,0,0, ,-615.2,-175,-790.1,-3.2,-65.9,0,25,-8.15866,-145.21,-755.952,0.137928,-112.866,14.0003,
2026_07_06_17_22_04.583,3.872,35.1,0,0.763,0,0,0,0, ,0,0,0,0,0, ,-606.6,-163.6,-765.3,-8.5,-58.7,6.9,25,-44.8882,-146.678,-757.277,-0.226961,-109.785,13.3573,
2026_07_06_17_22_04.602,3.872,35.1,0,0.762,0,0,0,0, ,0,0,0,0,0, ,-645.8,-165,-770.6,-5.6,-69.3,12.8,25,-80.3119,-147.752,-757.927,-0.64274,-106.995,13.1436,
2026_07_06_17_22_04.623,3.872,35.2,0,0.764,0,0,0,0, ,0,0,0,0,0, ,-656.4,-154.7,-726.5,-3.3,-72.6,10.8,25,-115.094,-148.489,-757.356,-0.874745,-104.798,13.0617,
2026_07_06_17_22_04.643,3.872,35.1,0,0.763,0,0,0,0, ,0,0,0,0,0, ,-669.1,-147.7,-711.1,-2,-64.5,7.1,25,-148.467,-148.654,-755.007,-0.982925,-102.589,12.8112,
2026_07_06_17_22_04.662,3.872,35,0,0.762,0,0,0,0, ,0,0,0,0,0, ,-674.5,-120.9,-707.1,-0.4,-48.6,3.8,25,-180.358,-147.779,-752.209,-0.996153,-99.7837,12.3626,
2026_07_06_17_22_04.682,3.872,35.1,0,0.762,0,0,0,0, ,0,0,0,0,0, ,-659,-135.8,-690.9,-0.8,-36.1,1.5,25,-209.997,-146.595,-748.967,-0.972012,-96.2839,11.7707,
2026_07_06_17_22_04.703,3.872,35.1,0,0.761,0,0,0,0, ,0,0,0,0,0, ,-715.4,-131.9,-706.2,4,-35.2,-1.3,25,-239.077,-145.819,-745.894,-0.81528,-92.589,11.0596,
2026_07_06_17_22_04.722,3.872,35.1,0,0.762,0,0,0,0, ,0,0,0,0,0, ,-730.3,-131.8,-685.5,3.7,-41.3,-6.1,25,-268.557,-144.968,-742.845,-0.53099,-89.2777,10.1602,
2026_07_06_17_22_04.743,3.872,35.1,0,0.763,0,0,0,0, ,0,0,0,0,0, ,-690.7,-140.5,-669.5,3.3,-47.1,-6.2,25,-295.488,-144.43,-738.863,-0.285351,-86.5308,9.16625,
2026_07_06_17_22_04.761,3.872,35.1,0,0.763,0,0,0,0, ,0,0,0,0,0, ,-730.2,-153.1,-661.2,4.7,-42.5,-3.5,25,-320.774,-144.575,-734.383,-0.0242126,-83.9878,8.31214,
2026_07_06_17_22_04.781,3.872,35.1,0,0.763,0,0,0,0, ,0,0,0,0,0, ,-784.7,-161.1,-658.2,6.5,-32.4,-2.8,25,-347.384,-145.338,-729.832,0.318513,-81.1519,7.61366,
2026_07_06_17_22_04.801,3.872,35,0,0.762,0,0,0,0, ,0,0,0,0,0, ,-745.2,-171.8,-631.7,4.9,-34,-2,25,-372.83,-146.624,-724.66,0.646447,-78.2299,7.00346,
2026_07_06_17_22_04.820,3.872,35.1,0,0.761,0,0,0,0, ,0,0,0,0,0, ,-722,-168.3,-592,3.4,-26.7,3.6,25,-394.814,-148.052,-717.785,0.859945,-75.3122,6.62543,
2026_07_06_17_22_04.841,3.872,35.1,0,0.762,0,0,0,0, ,0,0,0,0,0, ,-796.1,-152.3,-603.5,-0.7,-12.3,6.5,25,-417.01,-148.798,-710.471,0.889808,-71.9111,6.52943,
2026_07_06_17_22_04.861,3.872,35.1,0,0.763,0,0,0,0, ,0,0,0,0,0, ,-829.8,-158.8,-640.2,0.8,-18.4,-1.7,25,-441.137,-149.21,-705.07,0.838632,-68.4644,6.27779,
2026_07_06_17_22_04.880,3.872,35.1,0,0.763,0,0,0,0, ,0,0,0,0,0, ,-781,-162.4,-606.2,0.1,-28.3,-3.3,25,-463.335,-149.904,-700.081,0.81495,-65.7153,5.7429,
2026_07_06_17_22_04.900,3.872,35,0,0.763,0,0,0,0, ,0,0,0,0,0, ,-727.5,-145.3,-608.6,-2,-22.6,1.7,25,-481.062,-150.144,-694.434,0.707398,-63.2616,5.34419,
2026_07_06_17_22_04.920,3.872,35,0,0.761,0,0,0,0, ,0,0,0,0,0, ,-732.6,-142.4,-601.6,-3.4,-8.4,3.9,25,-496.235,-149.761,-688.99,0.49976,-60.3511,5.18915,
2026_07_06_17_22_04.940,3.872,35.1,0,0.761,0,0,0,0, ,0,0,0,0,0, ,-780.8,-142.2,-588,-5.3,-1,2.1,25,-512.107,-149.306,-683.25,0.204227,-56.9599,5.05575,
2026_07_06_17_22_04.960,3.872,35.1,0,0.763,0,0,0,0, ,0,0,0,0,0, ,-823.6,-142.4,-627.3,-10.1,-0.2,1.1,25,-529.785,-148.879,-678.643,-0.277436,-53.5255,4.84517,
2026_07_06_17_22_04.980,3.872,35.1,0,0.764,0,0,0,0, ,0,0,0,0,0, ,-783.3,-160.8,-622.3,-7.1,-2,1,25,-546.461,-149.045,-675.362,-0.784593,-50.3308,4.6139,
2026_07_06_17_22_04.999,3.872,35,0,0.763,0,0,0,0, ,0,0,0,0,0, ,-800.1,-157.9,-637.2,-5.9,-5.1,4,25,-561.405,-149.673,-672.583,-1.13288,-47.4801,4.48508,
2026_07_06_17_22_05.019,3.872,35,0,0.762,0,0,0,0, ,0,0,0,0,0, ,-798.7,-155.2,-623.4,-4.5,3.2,3.5,25,-575.908,-150.092,-670.006,-1.38072,-44.6447,4.44029,
2026_07_06_17_22_05.039,3.872,35.1,0,0.762,0,0,0,0, ,0,0,0,0,0, ,-796.3,-147.8,-616.8,-3.9,15.3,1.9,25,-589.411,-150.178,-666.965,-1.55252,-41.3605,4.33424,
2026_07_06_17_22_05.058,3.872,35.1,0,0.763,0,0,0,0, ,0,0,0,0,0, ,-811.4,-138,-635,-3.1,13,-0.2,25,-602.479,-149.734,-664.463,-1.67119,-37.9778,4.12192,
2026_07_06_17_22_05.078,3.872,35.1,0,0.763,0,0,0,0, ,0,0,0,0,0, ,-827.5,-151.2,-648.4,1.1,3.8,0,25,-615.7,-149.421,-663.075,-1.63029,-35.1516,3.86465,
2026_07_06_17_22_05.099,3.872,35,0,0.763,0,0,0,0, ,0,0,0,0,0, ,-784.1,-152.8,-626.7,2.5,-9,0.7,25,-627.285,-149.579,-661.52,-1.42126,-33.168,3.65047,
2026_07_06_17_22_05.118,3.872,35.1,0,0.763,0,0,0,0, ,0,0,0,0,0, ,-792.8,-152,-617.3,0.7,-3.2,3.4,25,-637.106,-149.75,-659.112,-1.23715,-31.5186,3.55294,
2026_07_06_17_22_05.137,3.872,35,0,0.763,0,0,0,0, ,0,0,0,0,0, ,-827.3,-145.5,-590,0.1,4.7,0.4,25,-647.644,-149.69,-655.732,-1.13739,-29.5522,3.45222,
2026_07_06_17_22_05.157,3.872,35.1,0,0.762,0,0,0,0, ,0,0,0,0,0, ,-806.1,-147,-602.9,-0.1,-3.4,-2,25,-657.946,-149.48,-652.12,-1.06808,-27.7118,3.1931,
2026_07_06_17_22_05.177,3.872,35,0,0.763,0,0,0,0, ,0,0,0,0,0, ,-798.2,-141.7,-633.1,0.1,-6.1,-0.3,25,-666.734,-149.167,-650.04,-1.00299,-26.3125,2.92844,
2026_07_06_17_22_05.198,3.872,35,0,0.762,0,0,0,0, ,0,0,0,0,0, ,-813.1,-145.5,-625.1,-0.2,-1.4,0.8,25,-675.199,-148.828,-648.764,-0.944917,-24.9376,2.76522,
2026_07_06_17_22_05.218,3.872,35.1,0,0.762,0,0,0,0, ,0,0,0,0,0, ,-788.2,-139,-593.6,0.9,-1.4,-1,25,-682.844,-148.427,-646.363,-0.866008,-23.5033,2.59062,
2026_07_06_17_22_05.237,3.872,35,0,0.762,0,0,0,0, ,0,0,0,0,0, ,-798.8,-139,-589.5,-1.7,-0.6,-3.2,25,-689.587,-147.853,-643.022,-0.837611,-22.132,2.30479,
2026_07_06_17_22_05.257,3.872,35.1,0,0.762,0,0,0,0, ,0,0,0,0,0, ,-807.4,-142.8,-629,-3.4,-0.7,-5.2,25,-696.504,-147.429,-640.964,-0.941959,-20.8229,1.9084,
2026_07_06_17_22_05.276,3.872,35,0,0.761,0,0,0,0, ,0,0,0,0,0, ,-784.9,-150.6,-638,1.5,-4.6,-4.1,25,-702.576,-147.385,-640.51,-0.942449,-19.7155,1.50875,
2026_07_06_17_22_05.297,3.872,35.1,0,0.761,0,0,0,0, ,0,0,0,0,0, ,-789,-146.2,-616.8,3.7,-4.3,-0.9,25,-707.718,-147.447,-639.711,-0.726581,-18.7853,1.26447,
2026_07_06_17_22_05.316,3.872,35.1,0,0.762,0,0,0,0, ,0,0,0,0,0, ,-798.4,-141.2,-602.9,2.1,-2,-0.9,25,-712.957,-147.218,-637.891,-0.505587,-17.8325,1.13257,
2026_07_06_17_22_05.336,3.872,35,0,0.762,0,0,0,0, ,0,0,0,0,0, ,-799.6,-144,-585.3,-2,2.5,-3.5,25,-718.2,-146.937,-635.223,-0.471731,-16.7306,0.929491,
2026_07_06_17_22_05.356,3.872,35,0,0.764,0,0,0,0, ,0,0,0,0,0, ,-796.6,-150.6,-614.8,-3.2,-1,-5.7,25,-723.069,-146.959,-633.079,-0.601422,-15.6654,0.592538,
2026_07_06_17_22_05.374,3.872,35,0,0.762,0,0,0,0, ,0,0,0,0,0, ,-761.4,-151.9,-622.4,-0.3,-2.6,-6.4,25,-726.478,-147.22,-632.197,-0.671413,-14.8205,0.187758,
2026_07_06_17_22_05.395,3.872,35.1,0,0.762,0,0,0,0, ,0,0,0,0,0, ,-760.4,-138.9,-619.3,0,3.3,-4.9,25,-728.575,-147.109,-631.505,-0.63964,-13.896,-0.16798,
2026_07_06_17_22_05.415,3.872,35.1,0,0.762,0,0,0,0, ,0,0,0,0,0, ,-758.6,-137.5,-617,0.2,3.3,-1.8,25,-730.46,-146.567,-630.692,-0.594568,-12.8481,-0.361885,
2026_07_06_17_22_05.435,3.872,35,0,0.762,0,0,0,0, ,0,0,0,0,0, ,-761.5,-140.6,-603.8,0,-3.8,0.1,25,-732.263,-146.109,-629.455,-0.552243,-12.0804,-0.391629,
2026_07_06_17_22_05.454,3.872,35.1,0,0.761,0,0,0,0, ,0,0,0,0,0, ,-783.3,-144.2,-617.6,-1.2,-3.1,-0.4,25,-734.709,-145.883,-628.312,-0.555153,-11.5545,-0.376905,
2026_07_06_17_22_05.474,3.872,35,0,0.765,0,0,0,0, ,0,0,0,0,0, ,-783.3,-142.8,-598.2,-1.3,4,-1.5,25,-737.67,-145.737,-627.068,-0.597495,-10.823,-0.411828,
2026_07_06_17_22_05.494,3.872,35,0,0.765,0,0,0,0, ,0,0,0,0,0, ,-782.3,-144.7,-609.2,-3.5,0.6,-1.6,25,-740.42,-145.616,-625.644,-0.707335,-10.0233,-0.481185,
2026_07_06_17_22_05.514,3.872,35.1,0,0.764,0,0,0,0, ,0,0,0,0,0, ,-774.1,-148,-634.8,-2.3,-2.4,-1.2,25,-742.722,-145.661,-625.422,-0.840951,-9.46736,-0.537175,
2026_07_06_17_22_05.533,3.872,35.1,0,0.763,0,0,0,0, ,0,0,0,0,0, ,-788.4,-146.9,-633.7,0.9,-0.6,-1,25,-745.07,-145.77,-625.96,-0.832362,-8.98184,-0.571473,
2026_07_06_17_22_05.553,3.872,35.1,0,0.762,0,0,0,0, ,0,0,0,0,0, ,-773.4,-149.5,-611.4,1.8,-1.8,0.1,25,-747.253,-145.918,-625.752,-0.699374,-8.50764,-0.56407,
2026_07_06_17_22_05.574,3.872,35,0,0.761,0,0,0,0, ,0,0,0,0,0, ,-798.5,-142.2,-605.8,-0.2,-2.1,0.2,25,-749.611,-145.914,-624.707,-0.608006,-8.10803,-0.520557,
2026_07_06_17_22_05.593,3.872,35,0,0.763,0,0,0,0, ,0,0,0,0,0, ,-790.7,-141.9,-600.5,-1.9,-0.1,-0.8,25,-752.353,-145.678,-623.393,-0.63494,-7.68098,-0.507116,
2026_07_06_17_22_05.613,3.872,35,0,0.763,0,0,0,0, ,0,0,0,0,0, ,-799.8,-145.7,-623.7,-2.4,-0.3,-2.4,25,-754.967,-145.564,-622.705,-0.727264,-7.22511,-0.573714,
2026_07_06_17_22_05.633,3.872,35.1,0,0.762,0,0,0,0, ,0,0,0,0,0, ,-794.3,-149,-641.6,1,-1.2,-2.3,25,-757.531,-145.673,-623.311,-0.725602,-6.83053,-0.681956,
2026_07_06_17_22_05.652,3.872,35,0,0.762,0,0,0,0, ,0,0,0,0,0, ,-786.1,-143.3,-616.9,1.7,-4.9,-0.7,25,-759.522,-145.702,-623.673,-0.59912,-6.60016,-0.731806,
2026_07_06_17_22_05.671,3.872,35,0,0.764,0,0,0,0, ,0,0,0,0,0, ,-773,-134.5,-596.3,0.5,-0.9,-1.5,25,-760.743,-145.287,-622.633,-0.49558,-6.37468,-0.754243,
2026_07_06_17_22_05.692,3.872,35,0,0.763,0,0,0,0, ,0,0,0,0,0, ,-783.4,-136.1,-605.1,-2.2,4.5,-3.5,25,-761.806,-144.679,-621.296,-0.517178,-5.87653,-0.860625,
2026_07_06_17_22_05.713,3.872,35,0,0.763,0,0,0,0, ,0,0,0,0,0, ,-773.1,-141.6,-608.5,-0.6,-2.5,-1.4,25,-762.808,-144.324,-620.413,-0.570975,-5.45749,-0.957477,
2026_07_06_17_22_05.732,3.872,35,0,0.762,0,0,0,0, ,0,0,0,0,0, ,-778.4,-145.2,-618.5,0.6,-6.1,0.7,25,-763.597,-144.267,-619.992,-0.536181,-5.38696,-0.920459,
2026_07_06_17_22_05.751,3.872,35,0,0.762,0,0,0,0, ,0,0,0,0,0, ,-775.3,-142,-590.8,-0.9,0.2,-0.3,25,-764.405,-144.227,-619.057,-0.512648,-5.23846,-0.852181,
2026_07_06_17_22_05.772,3.872,35.2,0,0.762,0,0,0,0, ,0,0,0,0,0, ,-781.6,-137.3,-588.3,-3.6,4.4,-1.3,25,-765.26,-143.948,-617.259,-0.618518,-4.77908,-0.849001,
2026_07_06_17_22_05.793,3.872,35,0,0.762,0,0,0,0, ,0,0,0,0,0, ,-800.2,-138.4,-606.4,-1.7,2.7,-1.2,25,-766.823,-143.576,-616.046,-0.742311,-4.27153,-0.873437,
2026_07_06_17_22_05.812,3.872,35.1,0,0.763,0,0,0,0, ,0,0,0,0,0, ,-792.2,-148.3,-630.6,-2.3,-3.3,-2.3,25,-768.613,-143.562,-616.195,-0.818952,-4.02951,-0.926853,
2026_07_06_17_22_05.831,3.872,35.1,0,0.763,0,0,0,0, ,0,0,0,0,0, ,-772.7,-149.5,-633.6,-0.1,-6.8,-1.4,25,-769.456,-143.888,-617.164,-0.842172,-4.0917,-0.983107,
2026_07_06_17_22_05.850,3.872,35.1,0,0.761,0,0,0,0, ,0,0,0,0,0, ,-772.4,-143.4,-615.9,-0.1,-0.2,-0.7,25,-769.645,-144.044,-617.627,-0.796946,-4.05564,-0.987183,
2026_07_06_17_22_05.871,3.872,35,0,0.762,0,0,0,0, ,0,0,0,0,0, ,-798.2,-142,-588,-2,4.8,-1.2,25,-770.599,-143.962,-616.671,-0.812366,-3.66835,-0.984918,
2026_07_06_17_22_05.890,3.872,35.1,0,0.764,0,0,0,0, ,0,0,0,0,0, ,-803.7,-143.5,-602,-3.2,0.6,-1.9,25,-772.448,-143.888,-615.351,-0.9213,-3.28028,-1.01935,
2026_07_06_17_22_05.910,3.872,35,0,0.763,0,0,0,0, ,0,0,0,0,0, ,-789.3,-145.8,-620.9,-2.2,-3.8,-2.5,25,-773.914,-143.934,-615.113,-1.02969,-3.17788,-1.0913,
2026_07_06_17_22_05.929,3.872,35.1,0,0.762,0,0,0,0, ,0,0,0,0,0, ,-793.5,-145.2,-633.7,-1.1,-0.8,-2,25,-774.98,-144.03,-615.856,-1.06749,-3.12439,-1.16191,
2026_07_06_17_22_05.949,3.872,35,0,0.763,0,0,0,0, ,0,0,0,0,0, ,-790,-141.9,-606.3,-0.5,3,-2.3,25,-776.001,-144.001,-616.108,-1.05119,-2.86696,-1.22212,
2026_07_06_17_22_05.970,3.872,35,0,0.763,0,0,0,0, ,0,0,0,0,0, ,-793.2,-137.6,-609.7,-1.6,-1.1,-2.1,25,-776.952,-143.742,-615.614,-1.05112,-2.63437,-1.28171,
2026_07_06_17_22_05.989,3.872,35.1,0,0.763,0,0,0,0, ,0,0,0,0,0, ,-792.4,-138.9,-618.2,-1.4,-3,-2.4,25,-777.918,-143.407,-615.513,-1.07847,-2.59876,-1.34071,
2026_07_06_17_22_06.008,3.872,35.1,0,0.762,0,0,0,0, ,0,0,0,0,0, ,-775,-141.2,-631.3,0.1,-1.5,-3.3,25,-778.27,-143.202,-616.076,-1.05236,-2.57751,-1.43269,
2026_07_06_17_22_06.033,3.872,35,0,0.763,0,0,0,0, ,0,0,0,0,0, ,-768.7,-139.1,-609.7,0.8,-2.2,-2.3,25,-777.879,-143.016,-616.345,-0.960811,-2.53317,-1.51601,
2026_07_06_17_22_06.048,3.872,35,0,0.762,0,0,0,0, ,0,0,0,0,0, ,-775.3,-135.8,-604.8,-0.2,-1.6,-1.9,25,-777.521,-142.677,-615.791,-0.88398,-2.49459,-1.55159,
2026_07_06_17_22_06.068,3.872,35,0,0.763,0,0,0,0, ,0,0,0,0,0, ,-780.8,-134.7,-612.1,-2.6,0.1,-2.5,25,-777.553,-142.225,-615.344,-0.915425,-2.38828,-1.59111,
2026_07_06_17_22_06.088,3.872,35,0,0.763,0,0,0,0, ,0,0,0,0,0, ,-770,-137.9,-619.5,-2.4,-3,-1.5,25,-777.422,-141.864,-615.371,-1.01199,-2.3311,-1.61602,
2026_07_06_17_22_06.108,3.872,35.1,0,0.762,0,0,0,0, ,0,0,0,0,0, ,-771.3,-142,-627,-0.1,-2.3,-0.4,25,-777.009,-141.747,-615.852,-1.02649,-2.35053,-1.57544,
2026_07_06_17_22_06.128,3.872,35,0,0.762,0,0,0,0, ,0,0,0,0,0, ,-786.7,-140.6,-605.3,0.6,0.3,-0.3,25,-777.13,-141.72,-615.87,-0.948703,-2.26824,-1.50076,
2026_07_06_17_22_06.148,3.872,35.1,0,0.762,0,0,0,0, ,0,0,0,0,0, ,-796.7,-142.7,-600.8,-1.3,-1,-0.2,25,-778.018,-141.715,-615.089,-0.91222,-2.15134,-1.42454,
2026_07_06_17_22_06.168,3.872,35,0,0.762,0,0,0,0, ,0,0,0,0,0, ,-795.4,-146.9,-614.9,-2.2,-0.9,-1.1,25,-779.117,-141.903,-614.647,-0.963272,-2.07814,-1.37734,
2026_07_06_17_22_06.187,3.872,35,0,0.763,0,0,0,0, ,0,0,0,0,0, ,-794,-143.5,-610.4,-0.6,0.6,-2,25,-780.067,-142.104,-614.526,-0.989885,-1.96064,-1.38787,
2026_07_06_17_22_06.206,3.872,35,0,0.762,0,0,0,0, ,0,0,0,0,0, ,-790.8,-139.7,-614.3,-0.4,-1,-2.1,25,-780.818,-142.074,-614.393,-0.960033,-1.85335,-1.42821,
2026_07_06_17_22_06.226,3.872,35,0,0.764,0,0,0,0, ,0,0,0,0,0, ,-782.4,-145.2,-603.3,-1.4,0,-1.7,25,-781.171,-142.097,-614.052,-0.956374,-1.77088,-1.45696,
2026_07_06_17_22_06.246,3.872,35.1,0,0.762,0,0,0,0, ,0,0,0,0,0, ,-789.6,-142.7,-605.8,-2.1,1.6,-1.9,25,-781.465,-142.209,-613.473,-1.00474,-1.61422,-1.47787,
2026_07_06_17_22_06.271,3.872,35,0,0.763,0,0,0,0, ,0,0,0,0,0, ,-788.4,-142.9,-611,-2.9,-1.1,-1.9,25,-781.924,-142.245,-613.164,-1.09585,-1.50062,-1.50359,
2026_07_06_17_22_06.285,3.872,35,0,0.762,0,0,0,0, ,0,0,0,0,0, ,-779.9,-145.6,-625.1,-1.6,-2.5,-2.1,25,-782.06,-142.368,-613.462,-1.16618,-1.51886,-1.53384,
2026_07_06_17_22_06.305,3.872,35,0,0.763,0,0,0,0, ,0,0,0,0,0, ,-785.8,-139.8,-619.2,0,0.8,-1.9,25,-782.108,-142.388,-613.991,-1.14387,-1.4781,-1.56225,
2026_07_06_17_22_06.327,3.872,35,0,0.763,0,0,0,0, ,0,0,0,0,0, ,-776,-138.1,-605.3,-0.5,-1.5,-1.7,25,-782.034,-142.178,-613.885,-1.0894,-1.40936,-1.57674,
2026_07_06_17_22_06.345,3.872,35,0,0.762,0,0,0,0, ,0,0,0,0,0, ,-781.9,-140.1,-624.3,-0.8,-1.6,-1.2,25,-781.846,-141.991,-613.941,-1.06262,-1.41793,-1.56901,
2026_07_06_17_22_06.365,3.872,35.1,0,0.763,0,0,0,0, ,0,0,0,0,0, ,-787.9,-139.2,-630.1,0.7,0,-2,25,-782.032,-141.848,-614.749,-1.00092,-1.38027,-1.5709,
2026_07_06_17_22_06.385,3.872,35,0,0.763,0,0,0,0, ,0,0,0,0,0, ,-786.2,-131.5,-611,-0.5,0.9,-1.8,25,-782.338,-141.452,-615.102,-0.93383,-1.26874,-1.59096,
2026_07_06_17_22_06.405,3.872,35,0,0.763,0,0,0,0, ,0,0,0,0,0, ,-772,-135.2,-601,-1.3,1.8,-1.4,25,-782.141,-140.958,-614.548,-0.931769,-1.10916,-1.59151,
2026_07_06_17_22_06.425,3.872,35,0,0.764,0,0,0,0, ,0,0,0,0,0, ,-791.1,-136.3,-612.4,-1,-2.1,-2.1,25,-782.105,-140.641,-614.069,-0.945067,-1.05071,-1.60117,
2026_07_06_17_22_06.444,3.872,35,0,0.763,0,0,0,0, ,0,0,0,0,0, ,-784.5,-141.9,-620.8,-0.6,-2.4,-2,25,-782.452,-140.547,-614.224,-0.936227,-1.1238,-1.62852,
2026_07_06_17_22_06.464,3.872,35,0,0.762,0,0,0,0, ,0,0,0,0,0, ,-785.2,-139.7,-591.1,-0.9,1.4,-2,25,-782.598,-140.563,-613.72,-0.924879,-1.08578,-1.65115,
2026_07_06_17_22_06.484,3.872,35,0,0.762,0,0,0,0, ,0,0,0,0,0, ,-791.2,-136.1,-606,-3.2,1.6,-2.3,25,-782.939,-140.4,-612.795,-0.993441,-0.928211,-1.68155,
2026_07_06_17_22_06.507,3.872,35.1,0,0.762,0,0,0,0, ,0,0,0,0,0, ,-793.9,-141.9,-619.8,-2.7,-0.3,-2.2,25,-783.525,-140.315,-612.802,-1.11267,-0.832039,-1.71619,
2026_07_06_17_22_06.524,3.872,35,0,0.763,0,0,0,0, ,0,0,0,0,0, ,-787.7,-149.9,-620.9,-1.3,-1.2,-2.2,25,-783.968,-140.655,-613.261,-1.16674,-0.82704,-1.74567,
2026_07_06_17_22_06.542,3.872,35,0,0.763,0,0,0,0, ,0,0,0,0,0, ,-790.4,-140.8,-616.9,-0.2,-0.3,-3,25,-784.278,-140.941,-613.605,-1.14135,-0.822345,-1.79773,
2026_07_06_17_22_06.564,3.872,35,0,0.761,0,0,0,0, ,0,0,0,0,0, ,-786.1,-136.8,-616.2,-0.6,-0.9,-3.5,25,-784.52,-140.811,-613.785,-1.09617,-0.808796,-1.88623,
2026_07_06_17_22_06.583,3.872,35,0,0.763,0,0,0,0, ,0,0,0,0,0, ,-777.8,-137.8,-616.9,-1.2,-1.6,-1.9,25,-784.363,-140.597,-613.953,-1.08422,-0.835682,-1.93582,
2026_07_06_17_22_06.602,3.872,35,0,0.763,0,0,0,0, ,0,0,0,0,0, ,-775.7,-142.3,-608.5,-1.5,2.1,-2.2,25,-783.899,-140.564,-613.877,-1.10041,-0.769523,-1.94278,
2026_07_06_17_22_06.621,3.872,35,0,0.762,0,0,0,0, ,0,0,0,0,0, ,-792.9,-141.1,-609.3,-2.2,2.5,-2.9,25,-783.924,-140.633,-613.573,-1.14609,-0.582474,-1.97978,
2026_07_06_17_22_06.642,3.872,34.9,0,0.762,0,0,0,0, ,0,0,0,0,0, ,-779.9,-144,-617.1,-1.6,-2.3,-2,25,-784.075,-140.75,-613.551,-1.19203,-0.540886,-2.00843,
2026_07_06_17_22_06.662,3.872,35.1,0,0.762,0,0,0,0, ,0,0,0,0,0, ,-776.1,-142.9,-621.3,-1.4,-4.6,-1.7,25,-783.705,-140.914,-613.895,-1.2108,-0.71816,-1.99878,
2026_07_06_17_22_06.682,3.872,35,0,0.763,0,0,0,0, ,0,0,0,0,0, ,-773,-139.5,-614,-0.3,-1.6,-2.4,25,-783.147,-140.932,-614.124,-1.18881,-0.863303,-2.0019,
2026_07_06_17_22_06.702,3.872,35.1,0,0.762,0,0,0,0, ,0,0,0,0,0, ,-785.8,-138.6,-617.4,-2,1.7,-1.6,25,-782.918,-140.817,-614.22,-1.18645,-0.807649,-2.00179,
2026_07_06_17_22_06.720,3.872,35,0,0.763,0,0,0,0, ,0,0,0,0,0, ,-783.5,-135.6,-606.9,-3.1,0.4,-2.3,25,-783.024,-140.59,-614.094,-1.26954,-0.694449,-1.99863,
2026_07_06_17_22_06.741,3.872,35,0,0.761,0,0,0,0, ,0,0,0,0,0, ,-772.4,-136.3,-617,-2.8,0.1,-2.9,25,-782.715,-140.308,-613.963,-1.37194,-0.636896,-2.03528,
2026_07_06_17_22_06.760,3.872,35,0,0.763,0,0,0,0, ,0,0,0,0,0, ,-792.6,-140.8,-638.9,-1.3,-1.6,-3.1,25,-782.702,-140.201,-614.815,-1.41326,-0.643788,-2.09406,
2026_07_06_17_22_06.779,3.872,34.9,0,0.763,0,0,0,0, ,0,0,0,0,0, ,-767.5,-141.1,-632.3,0.2,-3.4,-1.6,25,-782.54,-140.246,-616.082,-1.36066,-0.756901,-2.10966,
2026_07_06_17_22_06.801,3.872,35.1,0,0.763,0,0,0,0, ,0,0,0,0,0, ,-778.6,-128.7,-611.9,-0.3,1.1,-0.5,25,-781.962,-139.92,-616.449,-1.28079,-0.780856,-2.04509,
2026_07_06_17_22_06.820,3.872,35,0,0.763,0,0,0,0, ,0,0,0,0,0, ,-786.4,-130,-591.4,-2.8,2.6,-1.2,25,-781.995,-139.276,-615.547,-1.29719,-0.620538,-1.97226,
2026_07_06_17_22_06.839,3.872,35.1,0,0.763,0,0,0,0, ,0,0,0,0,0, ,-797.8,-139.4,-617.6,-3.2,-0.7,-2.1,25,-782.61,-138.997,-614.874,-1.40096,-0.524833,-1.95262,
2026_07_06_17_22_06.859,3.872,35,0,0.763,0,0,0,0, ,0,0,0,0,0, ,-791.6,-147.3,-630.9,-1.7,-1.5,-2.1,25,-783.347,-139.263,-615.445,-1.46488,-0.559883,-1.9616,
2026_07_06_17_22_06.880,3.872,35,0,0.763,0,0,0,0, ,0,0,0,0,0, ,-789.6,-137.9,-630.2,-0.1,-0.6,-2.4,25,-783.789,-139.466,-616.366,-1.43046,-0.589749,-1.97918,
2026_07_06_17_22_06.899,3.872,35.1,0,0.763,0,0,0,0, ,0,0,0,0,0, ,-787.7,-132.4,-612.7,-0.6,1.2,-2.9,25,-784.085,-139.203,-616.675,-1.36462,-0.53553,-2.02006,
2026_07_06_17_22_06.918,3.872,35.1,0,0.762,0,0,0,0, ,0,0,0,0,0, ,-786.8,-136.1,-616.4,-1.4,1.3,-3.3,25,-784.278,-138.901,-616.546,-1.3424,-0.426724,-2.08587,
2026_07_06_17_22_06.939,3.872,35.1,0,0.762,0,0,0,0, ,0,0,0,0,0, ,-777,-135.6,-626.3,-1.6,-1.4,-3.1,25,-784.133,-138.715,-616.839,-1.35201,-0.403768,-2.15376,
2026_07_06_17_22_06.959,3.872,35,0,0.763,0,0,0,0, ,0,0,0,0,0, ,-759,-138.1,-627.9,-0.1,-3.6,-1.6,25,-783.15,-138.602,-617.464,-1.32141,-0.531507,-2.16572,
2026_07_06_17_22_06.978,3.872,35,0,0.761,0,0,0,0, ,0,0,0,0,0, ,-773.6,-136.5,-622.6,1.4,-2,-1.3,25,-782.123,-138.522,-617.938,-1.20128,-0.669743,-2.1221,
2026_07_06_17_22_06.998,3.872,35,0,0.762,0,0,0,0, ,0,0,0,0,0, ,-792.3,-137.9,-609.6,0.6,-0.1,-0.9,25,-782.174,-138.442,-617.826,-1.06714,-0.692915,-2.05982,
2026_07_06_17_22_07.018,3.872,34.9,0,0.763,0,0,0,0, ,0,0,0,0,0, ,-787.8,-134.5,-596.5,-2.2,0,-1.9,25,-782.654,-138.305,-616.926,-1.05086,-0.653737,-2.01961,
2026_07_06_17_22_07.038,3.872,35,0,0.762,0,0,0,0, ,0,0,0,0,0, ,-789,-144.4,-616.3,-3.4,0,-3.1,25,-783.004,-138.375,-616.284,-1.15745,-0.6139,-2.04888,
2026_07_06_17_22_07.057,3.872,35.1,0,0.763,0,0,0,0, ,0,0,0,0,0, ,-791.9,-142.4,-643,-1,0.4,-3.2,25,-783.458,-138.681,-617.099,-1.22098,-0.564303,-2.11598,
2026_07_06_17_22_07.077,3.872,35,0,0.763,0,0,0,0, ,0,0,0,0,0, ,-778,-137.8,-618.1,1,-1.1,-2.4,25,-783.548,-138.768,-617.919,-1.14658,-0.551244,-2.15767,
2026_07_06_17_22_07.097,3.872,35,0,0.762,0,0,0,0, ,0,0,0,0,0, ,-764.8,-137.6,-609.3,0.7,-2.1,-1.6,25,-782.808,-138.703,-617.662,-1.02491,-0.615153,-2.14806,
2026_07_06_17_22_07.116,3.872,35,0,0.763,0,0,0,0, ,0,0,0,0,0, ,-791.2,-135.2,-614.6,-0.6,-0.2,-2,25,-782.515,-138.562,-617.314,-0.959408,-0.647745,-2.12685,
2026_07_06_17_22_07.137,3.872,35,0,0.763,0,0,0,0, ,0,0,0,0,0, ,-783.9,-141.8,-607.7,-1.7,0.9,-3,25,-782.822,-138.558,-616.938,-0.971022,-0.586945,-2.14959,
2026_07_06_17_22_07.157,3.872,35.1,0,0.763,0,0,0,0, ,0,0,0,0,0, ,-789,-140,-623.7,-2.5,-1.5,-2.8,25,-783.043,-138.701,-616.862,-1.03982,-0.569459,-2.19532,
2026_07_06_17_22_07.177,3.872,34.9,0,0.762,0,0,0,0, ,0,0,0,0,0, ,-772.2,-144.1,-628.5,-0.5,-3.1,-2.3,25,-782.894,-138.905,-617.425,-1.06786,-0.674914,-2.21693,
2026_07_06_17_22_07.196,3.872,34.9,0,0.763,0,0,0,0, ,0,0,0,0,0, ,-783.4,-137.6,-612.1,-0.6,0.5,-1.6,25,-782.584,-139.024,-617.601,-1.0363,-0.713005,-2.20066,
2026_07_06_17_22_07.216,3.872,35,0,0.763,0,0,0,0, ,0,0,0,0,0, ,-785.2,-139.5,-609.8,-2.5,1.2,-2.2,25,-782.688,-138.995,-617.195,-1.06761,-0.61776,-2.18234,
2026_07_06_17_22_07.236,3.872,35,0,0.762,0,0,0,0, ,0,0,0,0,0, ,-779.1,-143.4,-623.9,-1.4,0.4,-3,25,-782.656,-139.144,-617.174,-1.12138,-0.531365,-2.20779,
2026_07_06_17_22_07.255,3.872,35,0,0.763,0,0,0,0, ,0,0,0,0,0, ,-770.7,-142.7,-627.3,0.5,-2.4,-2.7,25,-782.183,-139.382,-617.688,-1.08047,-0.559922,-2.24693,
2026_07_06_17_22_07.275,3.872,35,0,0.762,0,0,0,0, ,0,0,0,0,0, ,-773.3,-137.5,-618.4,-0.5,-0.2,-1.6,25,-781.562,-139.426,-618.002,-1.01463,-0.605021,-2.24102,
2026_07_06_17_22_07.298,3.872,35,0,0.763,0,0,0,0, ,0,0,0,0,0, ,-770.3,-134.3,-612.7,-1.6,-1,-1.3,25,-780.968,-139.211,-617.853,-1.01678,-0.604715,-2.19282,
2026_07_06_17_22_07.316,3.872,35,0,0.763,0,0,0,0, ,0,0,0,0,0, ,-774.7,-138.7,-613.4,-1.6,-0.4,-1,25,-780.452,-139.046,-617.56,-1.05232,-0.610521,-2.12927,
2026_07_06_17_22_07.334,3.872,35,0,0.764,0,0,0,0, ,0,0,0,0,0, ,-787.8,-137.6,-622,-1.3,-1.1,-2.1,25,-780.5,-138.991,-617.569,-1.07655,-0.619021,-2.09397,
2026_07_06_17_22_07.354,3.872,35,0,0.763,0,0,0,0, ,0,0,0,0,0, ,-783.2,-139.2,-619.6,-1.6,0.2,-1.6,25,-780.805,-138.955,-617.766,-1.09931,-0.608721,-2.0791,
2026_07_06_17_22_07.374,3.872,35,0,0.762,0,0,0,0, ,0,0,0,0,0, ,-775.3,-143,-612.3,-1.7,0.5,-1.4,25,-780.71,-139.086,-617.655,-1.13287,-0.550299,-2.04382,
2026_07_06_17_22_07.394,3.872,35,0,0.762,0,0,0,0, ,0,0,0,0,0, ,-781.3,-139.5,-623.1,-0.8,-2.7,-0.9,25,-780.563,-139.218,-617.658,-1.14001,-0.583796,-1.98935,
2026_07_06_17_22_07.414,3.872,35,0,0.762,0,0,0,0, ,0,0,0,0,0, ,-780.2,-136.1,-623.1,-0.5,-0.8,-1.3,25,-780.575,-139.132,-617.989,-1.11015,-0.654862,-1.93515,
2026_07_06_17_22_07.433,3.872,35,0,0.763,0,0,0,0, ,0,0,0,0,0, ,-794,-137.2,-616.2,-1.5,0.8,-1.4,25,-780.972,-138.98,-618.091,-1.10343,-0.614956,-1.8995,
2026_07_06_17_22_07.453,3.872,35,0,0.764,0,0,0,0, ,0,0,0,0,0, ,-785.4,-143.9,-620.3,-1.4,-0.9,-1.7,25,-781.504,-139.076,-618.1,-1.12455,-0.580529,-1.8782,
2026_07_06_17_22_07.472,3.872,34.9,0,0.763,0,0,0,0, ,0,0,0,0,0, ,-790.8,-137.4,-622.5,-0.2,-0.8,-2,25,-781.906,-139.172,-618.301,-1.10478,-0.59695,-1.87648,
2026_07_06_17_22_07.493,3.872,34.9,0,0.763,0,0,0,0, ,0,0,0,0,0, ,-777.7,-132.3,-612.7,-0.4,-1.6,-2.3,25,-782.049,-138.909,-618.259,-1.05574,-0.633698,-1.89315,
2026_07_06_17_22_07.514,3.872,35,0,0.762,0,0,0,0, ,0,0,0,0,0, ,-781.6,-134.1,-624.3,-1.5,-1.2,-2.2,25,-781.903,-138.561,-618.273,-1.04929,-0.680395,-1.91489,
2026_07_06_17_22_07.532,3.872,35,0,0.763,0,0,0,0, ,0,0,0,0,0, ,-783.8,-137.2,-615.3,-1.2,2,-2.2,25,-781.951,-138.383,-618.366,-1.06762,-0.614558,-1.93227,
2026_07_06_17_22_07.552,3.872,35,0,0.762,0,0,0,0, ,0,0,0,0,0, ,-779.2,-134,-608.3,-2.3,-0.1,-2.3,25,-781.924,-138.214,-617.966,-1.1092,-0.519218,-1.95163,
2026_07_06_17_22_07.571,3.872,34.9,0,0.763,0,0,0,0, ,0,0,0,0,0, ,-771.7,-136.2,-620.7,-2.1,-1.5,-1.6,25,-781.529,-138.024,-617.755,-1.17567,-0.536328,-1.95153,
2026_07_06_17_22_07.597,3.872,35,0,0.763,0,0,0,0, ,0,0,0,0,0, ,-778.6,-139,-623.5,-1,-1.5,-0.7,25,-781.141,-137.998,-618.02,-1.19848,-0.595052,-1.90269,
2026_07_06_17_22_07.612,3.872,35,0,0.76,0,0,0,0, ,0,0,0,0,0, ,-782.9,-139.8,-618.1,-0.7,-1.1,-1,25,-781.117,-138.084,-618.189,-1.17724,-0.63801,-1.83854,
2026_07_06_17_22_07.632,3.872,35,0,0.762,0,0,0,0, ,0,0,0,0,0, ,-795.6,-140.5,-619.7,-1.5,1.3,-1.8,25,-781.612,-138.209,-618.232,-1.17254,-0.593037,-1.81182,
2026_07_06_17_22_07.652,3.872,35,0,0.763,0,0,0,0, ,0,0,0,0,0, ,-789,-138.7,-620.1,-1.2,1.5,-3.3,25,-782.264,-138.294,-618.334,-1.18335,-0.471587,-1.8568,
2026_07_06_17_22_07.670,3.872,35,0,0.762,0,0,0,0, ,0,0,0,0,0, ,-778.1,-135.6,-629.5,-0.9,-3.2,-2.2,25,-782.342,-138.224,-618.728,-1.17523,-0.494646,-1.91123,
2026_07_06_17_22_07.691,3.872,34.9,0,0.761,0,0,0,0, ,0,0,0,0,0, ,-774.6,-135.3,-629.6,-0.9,-1.6,-1.6,25,-781.977,-138.055,-619.388,-1.15845,-0.610754,-1.91054,
2026_07_06_17_22_07.710,3.872,34.9,0,0.763,0,0,0,0, ,0,0,0,0,0, ,-777.3,-134.2,-609.4,-0.4,3,-3,25,-781.61,-137.854,-619.394,-1.12747,-0.53088,-1.93428,
2026_07_06_17_22_07.730,3.872,34.9,0,0.763,0,0,0,0, ,0,0,0,0,0, ,-770.3,-135.8,-606.8,-2.4,1.7,-3.2,25,-781.134,-137.68,-618.706,-1.14408,-0.355326,-2.00531,
2026_07_06_17_22_07.749,3.872,35,0,0.763,0,0,0,0, ,0,0,0,0,0, ,-763.6,-142,-630.8,-2.5,-3.4,-1.6,25,-780.269,-137.754,-618.712,-1.22366,-0.38547,-2.02936,
2026_07_06_17_22_07.770,3.872,35,0,0.762,0,0,0,0, ,0,0,0,0,0, ,-778.1,-134.1,-646.6,0.4,-3.5,-0.2,25,-779.695,-137.772,-619.93,-1.21307,-0.572215,-1.96054,
2026_07_06_17_22_07.789,3.872,34.9,0,0.762,0,0,0,0, ,0,0,0,0,0, ,-777,-135,-612.6,0.4,-0.5,-0.1,25,-779.565,-137.576,-620.519,-1.11478,-0.659221,-1.85021,
2026_07_06_17_22_07.808,3.872,34.8,0,0.763,0,0,0,0, ,0,0,0,0,0, ,-781.7,-136.1,-598.3,-0.6,1.5,-0.5,25,-779.552,-137.453,-619.601,-1.05294,-0.588581,-1.75575,
2026_07_06_17_22_07.829,3.872,34.9,0,0.763,0,0,0,0, ,0,0,0,0,0, ,-802.4,-141.1,-616.3,-3,1.8,-2,25,-780.313,-137.523,-618.851,-1.09846,-0.452167,-1.72493,
2026_07_06_17_22_07.848,3.872,35,0,0.763,0,0,0,0, ,0,0,0,0,0, ,-805.9,-143.3,-641.3,-1.7,-2,-2.5,25,-781.766,-137.808,-619.458,-1.17473,-0.430707,-1.75692,
2026_07_06_17_22_07.868,3.872,34.9,0,0.763,0,0,0,0, ,0,0,0,0,0, ,-774.1,-144,-628.1,0.4,-2.3,-2,25,-782.268,-138.164,-620.386,-1.14275,-0.535476,-1.78697,
2026_07_06_17_22_07.889,3.872,35.1,0,0.761,0,0,0,0, ,0,0,0,0,0, ,-776.4,-139.7,-615.2,0.7,0.3,-1.8,25,-781.84,-138.388,-620.463,-1.0396,-0.563783,-1.79386,
2026_07_06_17_22_07.909,3.872,34.9,0,0.762,0,0,0,0, ,0,0,0,0,0, ,-774.2,-135.3,-603.3,-0.5,-0.3,-2.4,25,-781.441,-138.334,-619.78,-0.970157,-0.529428,-1.81251,
2026_07_06_17_22_07.928,3.872,34.9,0,0.764,0,0,0,0, ,0,0,0,0,0, ,-780.2,-137.5,-619.3,-1.9,-2.9,-2.3,25,-781.183,-138.216,-619.263,-0.984163,-0.594666,-1.84527,
2026_07_06_17_22_07.947,3.872,35,0,0.763,0,0,0,0, ,0,0,0,0,0, ,-771.7,-138,-630.2,-1.8,0.4,-1.9,25,-780.864,-138.188,-619.598,-1.03693,-0.6346,-1.86079,
2026_07_06_17_22_07.968,3.872,35,0,0.764,0,0,0,0, ,0,0,0,0,0, ,-776.3,-139.2,-627.6,-1.2,2,-1.8,25,-780.446,-138.213,-620.165,-1.06514,-0.522804,-1.86013,
2026_07_06_17_22_07.987,3.872,35,0,0.762,0,0,0,0, ,0,0,0,0,0, ,-787.3,-137.6,-623.7,-0.6,-1.4,-1.1,25,-780.528,-138.224,-620.499,-1.05508,-0.472665,-1.83514,
2026_07_06_17_22_08.007,3.872,34.9,0,0.763,0,0,0,0, ,0,0,0,0,0, ,-783.9,-137.9,-622.1,0,-4.6,-2,25,-780.837,-138.195,-620.645,-1.00907,-0.626674,-1.81776,
2026_07_06_17_22_08.027,3.872,35,0,0.762,0,0,0,0, ,0,0,0,0,0, ,-775.3,-137.3,-624.6,-0.3,-0.3,-2.2,25,-780.762,-138.159,-620.81,-0.956718,-0.737783,-1.83496,
2026_07_06_17_22_08.047,3.872,34.9,0,0.761,0,0,0,0, ,0,0,0,0,0, ,-775.3,-137.6,-609.1,-1.8,2.6,-2.4,25,-780.429,-138.116,-620.569,-0.962403,-0.622746,-1.8633,
2026_07_06_17_22_08.065,3.872,35,0,0.765,0,0,0,0, ,0,0,0,0,0, ,-785,-135.8,-611.5,-1.4,1.6,-1.9,25,-780.412,-138.03,-619.943,-1.00126,-0.456829,-1.88077,
2026_07_06_17_22_08.085,3.872,34.9,0,0.763,0,0,0,0, ,0,0,0,0,0, ,-784.5,-135.7,-625.8,-1.8,-0.7,-1.9,25,-780.676,-137.891,-619.864,-1.03774,-0.401569,-1.88194,
2026_07_06_17_22_08.106,3.872,35,0,0.762,0,0,0,0, ,0,0,0,0,0, ,-781.4,-138.7,-624.3,-1,-2.4,-1.3,25,-780.815,-137.849,-620.18,-1.05982,-0.471552,-1.86476,
2026_07_06_17_22_08.126,3.872,35,0,0.763,0,0,0,0, ,0,0,0,0,0, ,-801,-137,-625,-0.3,-0.1,-2,25,-781.448,-137.849,-620.453,-1.03484,-0.518988,-1.85168,
2026_07_06_17_22_08.148,3.872,34.9,0,0.762,0,0,0,0, ,0,0,0,0,0, ,-785.8,-143.7,-613.5,-0.8,-2.3,-2.6,25,-782.176,-138.001,-620.379,-1.0053,-0.560487,-1.879,
2026_07_06_17_22_08.166,3.872,34.9,0,0.761,0,0,0,0, ,0,0,0,0,0, ,-778.8,-142.9,-619.3,-0.7,-0.4,-2.5,25,-782.184,-138.324,-620.137,-0.989742,-0.608598,-1.91988,
2026_07_06_17_22_08.184,3.872,34.9,0,0.763,0,0,0,0, ,0,0,0,0,0, ,-778.5,-139.7,-619.9,-1.9,0.3,-3.3,25,-781.968,-138.505,-620.104,-1.00865,-0.574559,-1.97961,
2026_07_06_17_22_08.204,3.872,35,0,0.763,0,0,0,0, ,0,0,0,0,0, ,-777,-143.1,-619,-1.2,-3.9,-1.4,25,-781.711,-138.682,-620.064,-1.04164,-0.649234,-2.00218,
2026_07_06_17_22_08.224,3.872,34.9,0,0.762,0,0,0,0, ,0,0,0,0,0, ,-778.6,-144.2,-625.6,-0.5,-2.5,-2.5,25,-781.473,-138.985,-620.2,-1.02996,-0.804671,-1.999,
2026_07_06_17_22_08.244,3.872,34.9,0,0.763,0,0,0,0, ,0,0,0,0,0, ,-783.6,-141.8,-616.5,-1.7,2.1,-2.9,25,-781.45,-139.229,-620.252,-1.03423,-0.767824,-2.04172,
2026_07_06_17_22_08.267,3.872,35,0,0.763,0,0,0,0, ,0,0,0,0,0, ,-793.4,-134.2,-624.8,-2,0.5,-2.7,25,-781.88,-139.154,-620.276,-1.08394,-0.641816,-2.08793,
2026_07_06_17_22_08.284,3.872,34.9,0,0.76,0,0,0,0, ,0,0,0,0,0, ,-762.4,-138.1,-630.7,-1.4,-3.8,-2.4,25,-781.637,-138.971,-620.732,-1.12148,-0.703252,-2.11608,
2026_07_06_17_22_08.304,3.872,35,0,0.762,0,0,0,0, ,0,0,0,0,0, ,-773.4,-136.4,-625.7,-0.6,0.5,-3.1,25,-780.8,-138.866,-621.187,-1.11408,-0.760945,-2.15471,
2026_07_06_17_22_08.323,3.872,34.9,0,0.762,0,0,0,0, ,0,0,0,0,0, ,-773.8,-143.3,-609.9,-0.8,1.4,-2.2,25,-780.361,-138.926,-620.981,-1.08884,-0.656684,-2.18489,
2026_07_06_17_22_08.343,3.872,35,0,0.763,0,0,0,0, ,0,0,0,0,0, ,-785.4,-140.6,-613.1,-0.5,-1.7,-2.3,25,-780.315,-139.111,-620.403,-1.0621,-0.625808,-2.18886,
2026_07_06_17_22_08.363,3.872,34.9,0,0.763,0,0,0,0, ,0,0,0,0,0, ,-781.2,-133.9,-622.3,-1,0,-2.7,25,-780.497,-138.997,-620.238,-1.04308,-0.63947,-2.20782,
2026_07_06_17_22_08.384,3.872,34.9,0,0.763,0,0,0,0, ,0,0,0,0,0, ,-773.1,-132.3,-622.6,-0.9,0,-2.9,25,-780.293,-138.638,-620.373,-1.03741,-0.600502,-2.24391,
2026_07_06_17_22_08.403,3.872,34.9,0,0.762,0,0,0,0, ,0,0,0,0,0, ,-768.5,-137.5,-628.2,-0.3,-2.7,-1.6,25,-779.715,-138.41,-620.679,-1.01076,-0.646175,-2.24428,
2026_07_06_17_22_08.424,3.872,34.9,0,0.764,0,0,0,0, ,0,0,0,0,0, ,-773.3,-138.9,-615.9,0.7,-2.5,-1.3,25,-779.177,-138.397,-620.763,-0.936976,-0.765236,-2.19588,
2026_07_06_17_22_08.442,3.872,35,0,0.763,0,0,0,0, ,0,0,0,0,0, ,-780.8,-135.7,-606.9,-0.4,0.2,-1.9,25,-779.048,-138.33,-620.192,-0.870738,-0.788682,-2.15957,
2026_07_06_17_22_08.462,3.872,35,0,0.763,0,0,0,0, ,0,0,0,0,0, ,-781.9,-135.1,-617.1,-2.4,1.3,-2.2,25,-779.188,-138.152,-619.693,-0.90299,-0.694919,-2.15289,
2026_07_06_17_22_08.482,3.872,35,0,0.764,0,0,0,0, ,0,0,0,0,0, ,-768.7,-139.2,-624.1,-2.2,-1.9,-1.4,25,-778.951,-138.091,-619.748,-0.98812,-0.670854,-2.13139,
2026_07_06_17_22_08.503,3.872,35,0,0.762,0,0,0,0, ,0,0,0,0,0, ,-776,-138.6,-628.9,-0.5,-3.7,-0.7,25,-778.549,-138.14,-620.16,-1.01017,-0.800598,-2.06549,
2026_07_06_17_22_08.521,3.872,34.9,0,0.763,0,0,0,0, ,0,0,0,0,0, ,-787.4,-136.8,-627,-0.1,-1.5,-0.8,25,-778.741,-138.113,-620.634,-0.966896,-0.910249,-1.98533,
2026_07_06_17_22_08.540,3.872,35,0,0.763,0,0,0,0, ,0,0,0,0,0, ,-790.6,-138.9,-616.2,-0.8,2.3,-1.9,25,-779.366,-138.097,-620.693,-0.935398,-0.830406,-1.94661,
2026_07_06_17_22_08.561,3.872,34.9,0,0.762,0,0,0,0, ,0,0,0,0,0, ,-779.6,-139.6,-612.9,-1.5,0.9,-1.9,25,-779.715,-138.167,-620.319,-0.948475,-0.682303,-1.94377,
2026_07_06_17_22_08.581,3.872,34.9,0,0.763,0,0,0,0, ,0,0,0,0,0, ,-787.7,-140.8,-620.3,-1.5,0.3,-2,25,-779.955,-138.291,-620.092,-0.982084,-0.604163,-1.94415,
2026_07_06_17_22_08.601,3.872,34.9,0,0.763,0,0,0,0, ,0,0,0,0,0, ,-784.1,-139.8,-617.6,-0.5,0.2,-2.4,25,-780.317,-138.414,-620.023,-0.983175,-0.552112,-1.95974,
2026_07_06_17_22_08.621,3.872,35,0,0.762,0,0,0,0, ,0,0,0,0,0, ,-788,-134.8,-615.9,-0.6,0,-2.4,25,-780.667,-138.346,-619.823,-0.956779,-0.512374,-1.98657,
2026_07_06_17_22_08.640,3.872,34.9,0,0.764,0,0,0,0, ,0,0,0,0,0, ,-772.3,-138.5,-601.1,-0.9,-2.1,-1.9,25,-780.635,-138.243,-619.133,-0.944178,-0.545136,-1.99653,
2026_07_06_17_22_08.660,3.872,34.9,0,0.762,0,0,0,0, ,0,0,0,0,0, ,-784,-135.1,-614.5,-2.2,-0.4,-1.9,25,-780.484,-138.155,-618.443,-0.981096,-0.588088,-1.99065,
2026_07_06_17_22_08.680,3.872,34.9,0,0.765,0,0,0,0, ,0,0,0,0,0, ,-776.1,-140.6,-618,-2.8,0.6,-2.2,25,-780.457,-138.136,-618.309,-1.07365,-0.546158,-1.99426,
2026_07_06_17_22_08.700,3.872,34.9,0,0.763,0,0,0,0, ,0,0,0,0,0, ,-787.5,-133.1,-624.1,-3.4,-0.5,-1.2,25,-780.539,-138.058,-618.476,-1.19713,-0.50983,-1.97633,
2026_07_06_17_22_08.720,3.872,35,0,0.763,0,0,0,0, ,0,0,0,0,0, ,-780,-135.4,-639.5,-4.3,0.1,-2.1,25,-780.735,-137.826,-619.288,-1.35879,-0.490949,-1.95645,
2026_07_06_17_22_08.739,3.872,35,0,0.763,0,0,0,0, ,0,0,0,0,0, ,-777.5,-138,-652.2,-0.9,-2.8,-2.2,25,-780.614,-137.757,-620.907,-1.43443,-0.543298,-1.96824,
2026_07_06_17_22_08.759,3.872,34.9,0,0.763,0,0,0,0, ,0,0,0,0,0, ,-766.9,-136.3,-633.1,1.6,-2.1,-1.6,25,-780.101,-137.72,-622.232,-1.32569,-0.659488,-1.96408,
2026_07_06_17_22_08.779,3.872,35,0,0.762,0,0,0,0, ,0,0,0,0,0, ,-766.6,-139.5,-611.3,1.2,0.3,-1.6,25,-779.288,-137.731,-622.23,-1.15959,-0.674144,-1.9419,
2026_07_06_17_22_08.799,3.872,35,0,0.762,0,0,0,0, ,0,0,0,0,0, ,-782.4,-139,-615.1,-1.7,1.6,-0.9,25,-778.996,-137.824,-621.679,-1.10417,-0.575172,-1.89973,
2026_07_06_17_22_08.819,3.872,35,0,0.763,0,0,0,0, ,0,0,0,0,0, ,-774.7,-145.7,-624.8,-1.5,-0.6,-1.6,25,-778.969,-138.099,-621.574,-1.13438,-0.509654,-1.86014,
2026_07_06_17_22_08.837,3.872,35,0,0.763,0,0,0,0, ,0,0,0,0,0, ,-793.8,-144.2,-632.6,0.3,1.1,-2.4,25,-779.291,-138.517,-622.008,-1.10182,-0.463363,-1.86866,
2026_07_06_17_22_08.858,3.872,34.9,0,0.762,0,0,0,0, ,0,0,0,0,0, ,-786.7,-142.7,-618.1,-0.8,1.5,-3.4,25,-779.958,-138.817,-622.212,-1.04991,-0.355908,-1.93151,
2026_07_06_17_22_08.878,3.872,35,0,0.763,0,0,0,0, ,0,0,0,0,0, ,-775.1,-137.2,-612.3,0,0.8,-3.2,25,-780.016,-138.887,-621.785,-1.01031,-0.264142,-2.0149,
2026_07_06_17_22_08.901,3.872,35.1,0,0.762,0,0,0,0, ,0,0,0,0,0, ,-778.6,-136.4,-618.1,-0.5,-1.4,-2.5,25,-779.823,-138.759,-621.383,-0.963974,-0.266327,-2.06579,
2026_07_06_17_22_08.918,3.872,35,0,0.763,0,0,0,0, ,0,0,0,0,0, ,-776.2,-137.6,-625,-1,0.3,-1.6,25,-779.675,-138.652,-621.394,-0.950935,-0.283613,-2.06483,
2026_07_06_17_22_08.937,3.872,34.9,0,0.762,0,0,0,0, ,0,0,0,0,0, ,-778,-138.7,-610.3,0.1,0.3,-1.7,25,-779.518,-138.622,-621.165,-0.920409,-0.248049,-2.03955,
2026_07_06_17_22_08.957,3.872,35,0,0.764,0,0,0,0, ,0,0,0,0,0, ,-786.2,-137.9,-609.7,0.2,-0.8,-2.2,25,-779.676,-138.602,-620.485,-0.855181,-0.248168,-2.03409,
2026_07_06_17_22_08.977,3.872,35,0,0.763,0,0,0,0, ,0,0,0,0,0, ,-778.1,-136.8,-620.1,-1.8,-0.9,-1.4,25,-779.826,-138.526,-620.145,-0.851819,-0.284842,-2.01983,
2026_07_06_17_22_08.996,3.872,34.9,0,0.762,0,0,0,0, ,0,0,0,0,0, ,-769.1,-132.2,-615.8,-0.7,0.7,-1.1,25,-779.447,-138.28,-620.011,-0.876083,-0.273578,-1.97292,
2026_07_06_17_22_09.018,3.872,35,0,0.762,0,0,0,0, ,0,0,0,0,0, ,-788.2,-133.6,-625.8,-1.4,-2.2,0,25,-779.398,-137.952,-620.059,-0.886681,-0.30261,-1.88621,
2026_07_06_17_22_09.036,3.872,35,0,0.763,0,0,0,0, ,0,0,0,0,0, ,-779.2,-139.1,-629.7,0.9,-1.5,-2.2,25,-779.661,-137.855,-620.528,-0.847883,-0.396904,-1.8383,
2026_07_06_17_22_09.058,3.872,35,0,0.763,0,0,0,0, ,0,0,0,0,0, ,-778,-133.1,-616.4,0.4,-0.8,-1.6,25,-779.596,-137.748,-620.681,-0.756606,-0.442796,-1.84206,
2026_07_06_17_22_09.075,3.872,35,0,0.762,0,0,0,0, ,0,0,0,0,0, ,-784.4,-131.5,-610.3,-1.1,-1.1,-0.4,25,-779.694,-137.416,-620.235,-0.731828,-0.473704,-1.79075,
2026_07_06_17_22_09.097,3.872,34.9,0,0.763,0,0,0,0, ,0,0,0,0,0, ,-778.5,-139.7,-610.1,-2.7,-0.1,-1,25,-779.801,-137.305,-619.623,-0.803014,-0.4814,-1.72428,
2026_07_06_17_22_09.115,3.872,34.9,0,0.762,0,0,0,0, ,0,0,0,0,0, ,-789.6,-139.1,-622.4,-2.4,0.9,-2.6,25,-780.06,-137.433,-619.418,-0.909471,-0.42769,-1.72889,
2026_07_06_17_22_09.135,3.872,34.9,0,0.762,0,0,0,0, ,0,0,0,0,0, ,-772,-140.6,-627.3,-1.5,-0.9,-1.7,25,-780.105,-137.58,-619.749,-0.972878,-0.401627,-1.75455,
2026_07_06_17_22_09.155,3.872,35,0,0.762,0,0,0,0, ,0,0,0,0,0, ,-775.8,-140.8,-624.3,-1.6,-2.6,-1.2,25,-779.727,-137.77,-620.117,-1.00805,-0.483794,-1.73599,
2026_07_06_17_22_09.176,3.872,34.9,0,0.762,0,0,0,0, ,0,0,0,0,0, ,-768.6,-139.2,-618.5,-1.5,-0.7,-2.2,25,-779.268,-137.906,-620.196,-1.04107,-0.554859,-1.7338,
2026_07_06_17_22_09.195,3.872,34.9,0,0.763,0,0,0,0, ,0,0,0,0,0, ,-772.7,-136.4,-626,-2.4,0.7,-2.5,25,-778.743,-137.9,-620.321,-1.09646,-0.521048,-1.77135,
2026_07_06_17_22_09.216,3.872,34.9,0,0.763,0,0,0,0, ,0,0,0,0,0, ,-769.7,-138.5,-626.2,-2.6,0.8,-3.2,25,-778.283,-137.872,-620.673,-1.18199,-0.443593,-1.83708,
2026_07_06_17_22_09.234,3.872,34.8,0,0.762,0,0,0,0, ,0,0,0,0,0, ,-775.3,-142.7,-638.1,-2.5,-0.8,-2,25,-777.931,-138.039,-621.372,-1.26535,-0.416562,-1.88357,
2026_07_06_17_22_09.257,3.872,35,0,0.761,0,0,0,0, ,0,0,0,0,0, ,-770.3,-145,-633,-1.1,-2,-0.9,25,-777.618,-138.393,-622.236,-1.29793,-0.47649,-1.85715,
2026_07_06_17_22_09.274,3.872,35,0,0.762,0,0,0,0, ,0,0,0,0,0, ,-775.5,-145,-621.5,-0.6,0.9,-2.2,25,-777.331,-138.795,-622.542,-1.27064,-0.48097,-1.83843,
2026_07_06_17_22_09.295,3.872,34.9,0,0.762,0,0,0,0, ,0,0,0,0,0, ,-772.4,-140.3,-612.4,-1,1.6,-2.8,25,-777.125,-139.03,-622.201,-1.24196,-0.375489,-1.87875,
2026_07_06_17_22_09.313,3.872,34.9,0,0.762,0,0,0,0, ,0,0,0,0,0, ,-776.8,-139.7,-621,-3,1.2,-2.6,25,-776.971,-139.089,-621.866,-1.28815,-0.267295,-1.92879,
2026_07_06_17_22_09.335,3.872,34.9,0,0.763,0,0,0,0, ,0,0,0,0,0, ,-770.8,-138.6,-651.2,-1.9,-1.6,-1.8,25,-776.778,-139.093,-622.733,-1.35895,-0.263194,-1.94532,
2026_07_06_17_22_09.352,3.872,34.8,0,0.763,0,0,0,0, ,0,0,0,0,0, ,-774.9,-142.8,-639.1,1.3,-3.4,0.2,25,-776.538,-139.191,-624.099,-1.29442,-0.399499,-1.87553,
2026_07_06_17_22_09.374,3.872,35,0,0.763,0,0,0,0, ,0,0,0,0,0, ,-784.7,-139.8,-620.8,1.4,-1.6,-0.4,25,-776.737,-139.319,-624.456,-1.13328,-0.527499,-1.76733,
2026_07_06_17_22_09.392,3.872,35,0,0.764,0,0,0,0, ,0,0,0,0,0, ,-791,-140.2,-617.1,-2.6,0.9,-1.8,25,-777.414,-139.361,-624.12,-1.10078,-0.516682,-1.72667,
2026_07_06_17_22_09.414,3.872,35,0,0.762,0,0,0,0, ,0,0,0,0,0, ,-786.9,-139.2,-625.8,-0.1,-0.1,-2.8,25,-778.117,-139.382,-623.958,-1.11597,-0.460822,-1.7616,
2026_07_06_17_22_09.432,3.872,34.9,0,0.764,0,0,0,0, ,0,0,0,0,0, ,-776,-139,-637,-0.9,-3.4,-1.5,25,-778.32,-139.364,-624.411,-1.07843,-0.539381,-1.78527,
2026_07_06_17_22_09.454,3.872,34.9,0,0.764,0,0,0,0, ,0,0,0,0,0, ,-781.2,-140.9,-633.6,0.5,-2,-2,25,-778.337,-139.4,-625.075,-1.0249,-0.671044,-1.78312,
2026_07_06_17_22_09.472,3.872,34.9,0,0.763,0,0,0,0, ,0,0,0,0,0, ,-775.2,-129.5,-622.9,0.7,-1.1,-1.2,25,-778.329,-139.144,-625.268,-0.925884,-0.724605,-1.77196,
2026_07_06_17_22_09.494,3.872,34.9,0,0.763,0,0,0,0, ,0,0,0,0,0, ,-774.5,-131.9,-611.3,-0.4,0.8,-1.8,25,-778.117,-138.63,-624.77,-0.860322,-0.68959,-1.75539,
2026_07_06_17_22_09.510,3.872,34.9,0,0.762,0,0,0,0, ,0,0,0,0,0, ,-783.4,-135.7,-613.5,-1,-0.3,-1.8,25,-778.168,-138.335,-624.017,-0.850552,-0.632334,-1.75811,
2026_07_06_17_22_09.533,3.872,34.9,0,0.762,0,0,0,0, ,0,0,0,0,0, ,-780.8,-136.9,-626.8,-1,-2.9,-1.9,25,-778.407,-138.211,-623.781,-0.859659,-0.691301,-1.76371,
2026_07_06_17_22_09.550,3.872,35,0,0.762,0,0,0,0, ,0,0,0,0,0, ,-778.1,-138.6,-634.7,0.4,-2.5,-1,25,-778.471,-138.183,-624.206,-0.825555,-0.813706,-1.74459,
2026_07_06_17_22_09.572,3.872,35,0,0.762,0,0,0,0, ,0,0,0,0,0, ,-777.9,-135.9,-616.5,1,0.4,-1.6,25,-778.442,-138.126,-624.291,-0.732592,-0.828105,-1.7175,
2026_07_06_17_22_09.590,3.872,34.9,0,0.763,0,0,0,0, ,0,0,0,0,0, ,-788,-131.4,-601.1,-1.6,1.6,-2.2,25,-778.717,-137.854,-623.347,-0.706231,-0.716705,-1.72862,
2026_07_06_17_22_09.612,3.872,34.9,0,0.763,0,0,0,0, ,0,0,0,0,0, ,-782.1,-137,-616.8,-1.9,0.2,-2.7,25,-779.103,-137.631,-622.469,-0.769835,-0.618187,-1.77258,
2026_07_06_17_22_09.630,3.872,34.9,0,0.762,0,0,0,0, ,0,0,0,0,0, ,-769.7,-131.3,-625.7,-1.4,-3,-2.2,25,-778.908,-137.419,-622.395,-0.82347,-0.665829,-1.81386,
2026_07_06_17_22_09.652,3.872,35,0,0.762,0,0,0,0, ,0,0,0,0,0, ,-764.7,-131.9,-628.2,-0.3,-1.4,-1.8,25,-778.194,-137.064,-622.673,-0.825087,-0.759318,-1.8252,
2026_07_06_17_22_09.670,3.872,35,0,0.762,0,0,0,0, ,0,0,0,0,0, ,-776.6,-132.4,-611.6,-0.9,2.3,-2.1,25,-777.734,-136.765,-622.504,-0.811371,-0.685625,-1.83281,
2026_07_06_17_22_09.691,3.872,34.9,0,0.762,0,0,0,0, ,0,0,0,0,0, ,-780.1,-136.7,-610.3,-2.6,2,-3.2,25,-777.772,-136.63,-621.8,-0.868568,-0.512829,-1.8826,
2026_07_06_17_22_09.710,3.872,34.9,0,0.764,0,0,0,0, ,0,0,0,0,0, ,-778.3,-138.4,-630.3,-2.2,-1,-2.1,25,-777.859,-136.686,-621.708,-0.96189,-0.45111,-1.92937,
2026_07_06_17_22_09.732,3.872,34.9,0,0.762,0,0,0,0, ,0,0,0,0,0, ,-757.5,-141.1,-630.2,-0.5,-4.2,-1.6,25,-777.252,-136.873,-622.229,-0.985541,-0.582058,-1.92453,
2026_07_06_17_22_09.748,3.872,34.9,0,0.763,0,0,0,0, ,0,0,0,0,0, ,-762.8,-135.6,-618.4,0.3,-0.8,-1.5,25,-776.21,-136.963,-622.355,-0.931578,-0.698932,-1.90171,
2026_07_06_17_22_09.771,3.872,34.9,0,0.762,0,0,0,0, ,0,0,0,0,0, ,-778.1,-137.2,-607.5,-1.6,2.2,-1.1,25,-775.859,-136.928,-621.782,-0.914419,-0.613685,-1.86504,
2026_07_06_17_22_09.788,3.872,35,0,0.764,0,0,0,0, ,0,0,0,0,0, ,-778.9,-142.4,-622.9,-3.5,1.5,-1.2,25,-776.02,-137.103,-621.381,-1.01409,-0.463554,-1.82147,
2026_07_06_17_22_09.810,3.872,34.9,0,0.764,0,0,0,0, ,0,0,0,0,0, ,-785.8,-143,-643.1,-2.3,-0.8,-1.4,25,-776.406,-137.444,-622.089,-1.12901,-0.413978,-1.78969,
2026_07_06_17_22_09.827,3.872,35,0,0.763,0,0,0,0, ,0,0,0,0,0, ,-785.5,-142.2,-637.5,0.7,-2,-1.3,25,-776.969,-137.759,-623.199,-1.10896,-0.474064,-1.7629,
2026_07_06_17_22_09.851,3.872,34.9,0,0.763,0,0,0,0, ,0,0,0,0,0, ,-772.9,-135.7,-619.7,0.7,-0.9,-1.6,25,-777.105,-137.831,-623.528,-0.998728,-0.533535,-1.74383,
2026_07_06_17_22_09.868,3.872,34.9,0,0.763,0,0,0,0, ,0,0,0,0,0, ,-780.5,-136.1,-617,-2.4,1.7,-2,25,-777.08,-137.713,-623.212,-0.989665,-0.476648,-1.74725,
2026_07_06_17_22_09.891,3.872,34.8,0,0.763,0,0,0,0, ,0,0,0,0,0, ,-769.1,-136.9,-619.2,-1,-0.8,-1.6,25,-776.941,-137.64,-622.901,-1.03295,-0.42018,-1.75047,
2026_07_06_17_22_09.907,3.872,35,0,0.762,0,0,0,0, ,0,0,0,0,0, ,-769.5,-132.5,-632.2,0.1,-2.7,-0.7,25,-776.476,-137.46,-623.071,-0.997427,-0.501216,-1.71388,
2026_07_06_17_22_09.928,3.872,35,0,0.762,0,0,0,0, ,0,0,0,0,0, ,-783,-128.2,-626,-0.3,-0.4,-1.5,25,-776.462,-137.027,-623.439,-0.94274,-0.565126,-1.67647,
2026_07_06_17_22_09.947,3.872,34.9,0,0.762,0,0,0,0, ,0,0,0,0,0, ,-773.3,-130.2,-620.4,-0.9,-1.5,-1.2,25,-776.565,-136.55,-623.424,-0.921854,-0.588579,-1.65657,
2026_07_06_17_22_09.970,3.872,34.9,0,0.763,0,0,0,0, ,0,0,0,0,0, ,-786.2,-132.8,-622.6,-1.3,-0.3,-1.8,25,-776.759,-136.242,-623.307,-0.93271,-0.607557,-1.64703,
2026_07_06_17_22_09.987,3.872,34.9,0,0.762,0,0,0,0, ,0,0,0,0,0, ,-783.8,-133,-624.6,-1.8,0.3,-1.7,25,-777.261,-136.039,-623.325,-0.970326,-0.570534,-1.65331,
2026_07_06_17_22_10.008,3.872,34.9,0,0.764,0,0,0,0, ,0,0,0,0,0, ,-780.3,-134.3,-621,-1.3,-0.1,-1.8,25,-777.553,-135.893,-623.293,-1.00565,-0.529673,-1.6592,
2026_07_06_17_22_10.025,3.872,34.9,0,0.763,0,0,0,0, ,0,0,0,0,0, ,-783.5,-139.6,-625.1,-0.4,-1.6,-2,25,-777.818,-135.958,-623.278,-0.996165,-0.549193,-1.67387,
2026_07_06_17_22_10.049,3.872,34.9,0,0.763,0,0,0,0, ,0,0,0,0,0, ,-790,-134.7,-626,-0.2,-2.5,-1.7,25,-778.362,-136.03,-623.416,-0.953743,-0.640648,-1.68461,
2026_07_06_17_22_10.066,3.872,34.9,0,0.764,0,0,0,0, ,0,0,0,0,0, ,-771.2,-137.5,-611.2,-0.5,-0.2,-2.3,25,-778.498,-136.034,-623.123,-0.916952,-0.683874,-1.70383,
2026_07_06_17_22_10.088,3.872,34.9,0,0.763,0,0,0,0, ,0,0,0,0,0, ,-776.2,-135.6,-619.7,-2.5,1.6,-2.6,25,-778.206,-136.066,-622.655,-0.952482,-0.599545,-1.7493,
2026_07_06_17_22_10.105,3.872,34.9,0,0.762,0,0,0,0, ,0,0,0,0,0, ,-773,-141.6,-631.2,-1.8,0.6,-2.4,25,-777.986,-136.22,-622.826,-1.02546,-0.495979,-1.79504,
2026_07_06_17_22_10.126,3.872,34.9,0,0.762,0,0,0,0, ,0,0,0,0,0, ,-777.8,-133.4,-643.4,0.6,-1.8,-2.3,25,-777.829,-136.298,-623.708,-0.999529,-0.502317,-1.82886,
2026_07_06_17_22_10.145,3.872,34.8,0,0.762,0,0,0,0, ,0,0,0,0,0, ,-761.7,-132.3,-626.2,0.5,-3.3,-1.5,25,-777.336,-136.088,-624.384,-0.905105,-0.627098,-1.83319,
2026_07_06_17_22_10.166,3.872,34.8,0,0.761,0,0,0,0, ,0,0,0,0,0, ,-769.4,-129.5,-619.1,-0.4,1,-1.1,25,-776.618,-135.772,-624.278,-0.846903,-0.658962,-1.8007,
2026_07_06_17_22_10.185,3.872,34.8,0,0.762,0,0,0,0, ,0,0,0,0,0, ,-773.1,-134.1,-604.4,-2.1,2.2,-1.5,25,-776.291,-135.53,-623.515,-0.871467,-0.521307,-1.77019,
2026_07_06_17_22_10.207,3.872,34.8,0,0.763,0,0,0,0, ,0,0,0,0,0, ,-790.7,-142.4,-623.6,-1.9,-0.9,-1.9,25,-776.633,-135.696,-622.935,-0.940237,-0.44993,-1.76591,
2026_07_06_17_22_10.223,3.872,34.9,0,0.763,0,0,0,0, ,0,0,0,0,0, ,-781.2,-136.2,-640.3,0.3,-3,-2.4,25,-777.201,-135.915,-623.484,-0.931691,-0.541341,-1.78932,
2026_07_06_17_22_10.245,3.872,35,0,0.763,0,0,0,0, ,0,0,0,0,0, ,-775.2,-131.1,-629.2,0.8,-0.9,-2.2,25,-777.262,-135.777,-624.171,-0.8414,-0.627181,-1.82044,
2026_07_06_17_22_10.263,3.872,34.8,0,0.763,0,0,0,0, ,0,0,0,0,0, ,-777.9,-130.4,-616.9,-0.9,0.9,-2.1,25,-777.218,-135.471,-624.102,-0.793175,-0.588962,-1.84052,
2026_07_06_17_22_10.287,3.872,34.9,0,0.763,0,0,0,0, ,0,0,0,0,0, ,-780.6,-133.5,-622,-2,0.5,-2,25,-777.342,-135.256,-623.819,-0.8332,-0.510416,-1.85329,
2026_07_06_17_22_10.303,3.872,34.9,0,0.763,0,0,0,0, ,0,0,0,0,0, ,-770.8,-135.7,-624.5,-1.1,0,-2.3,25,-777.242,-135.216,-623.784,-0.87688,-0.464078,-1.87137,
2026_07_06_17_22_10.326,3.872,34.9,0,0.762,0,0,0,0, ,0,0,0,0,0, ,-785.1,-136.2,-627.1,-0.1,-1.9,-1.4,25,-777.285,-135.261,-623.907,-0.860007,-0.493689,-1.87007,
2026_07_06_17_22_10.343,3.872,34.9,0,0.762,0,0,0,0, ,0,0,0,0,0, ,-779.7,-136.8,-628.9,-0.7,-2.9,-1.7,25,-777.597,-135.337,-624.156,-0.831976,-0.609855,-1.85056,
2026_07_06_17_22_10.368,3.872,34.9,0,0.763,0,0,0,0, ,0,0,0,0,0, ,-772.4,-130.8,-621.4,-0.3,-0.5,-2.6,25,-777.503,-135.243,-624.217,-0.811746,-0.676286,-1.86881,
2026_07_06_17_22_10.383,3.872,34.9,0,0.763,0,0,0,0, ,0,0,0,0,0, ,-774.6,-129.7,-624.8,-2,2,-2.7,25,-777.259,-134.939,-624.149,-0.832358,-0.589371,-1.91641,
2026_07_06_17_22_10.404,3.872,34.9,0,0.763,0,0,0,0, ,0,0,0,0,0, ,-779,-141.7,-633.3,-1.8,0.3,-2.2,25,-777.231,-134.985,-624.448,-0.897418,-0.483378,-1.94893,
2026_07_06_17_22_10.422,3.872,34.9,0,0.763,0,0,0,0, ,0,0,0,0,0, ,-783.2,-145.3,-640.7,0.1,-1.9,-2.4,25,-777.466,-135.504,-625.212,-0.894528,-0.502673,-1.97032,
2026_07_06_17_22_10.446,3.872,34.8,0,0.763,0,0,0,0, ,0,0,0,0,0, ,-784.7,-135.9,-632.3,1.2,-0.2,-3,25,-777.862,-135.815,-625.9,-0.800409,-0.536025,-2.01479,
2026_07_06_17_22_10.461,3.872,34.9,0,0.762,0,0,0,0, ,0,0,0,0,0, ,-764.7,-135.3,-617.6,-0.1,-1.3,-2.6,25,-777.669,-135.801,-625.842,-0.718118,-0.549064,-2.06264,
2026_07_06_17_22_10.485,3.872,34.9,0,0.763,0,0,0,0, ,0,0,0,0,0, ,-767.7,-135.9,-617.6,-0.6,1.9,-2.9,25,-776.97,-135.789,-625.34,-0.695686,-0.497325,-2.10452,
2026_07_06_17_22_10.500,3.872,34.8,0,0.763,0,0,0,0, ,0,0,0,0,0, ,-777,-135.3,-616,-1.7,2.5,-2.6,25,-776.688,-135.778,-624.82,-0.723371,-0.332956,-2.14386,
2026_07_06_17_22_10.524,3.872,34.9,0,0.762,0,0,0,0, ,0,0,0,0,0, ,-776.3,-140.9,-626.4,0.1,-5.7,-1.3,25,-776.686,-135.919,-624.599,-0.72804,-0.410167,-2.13204,
2026_07_06_17_22_10.540,3.872,34.9,0,0.762,0,0,0,0, ,0,0,0,0,0, ,-773.1,-139.2,-628.9,0.3,-6.1,-0.2,25,-776.565,-136.171,-624.785,-0.671488,-0.744703,-2.04782,
2026_07_06_17_22_10.564,3.872,34.8,0,0.763,0,0,0,0, ,0,0,0,0,0, ,-779.1,-130.1,-621.3,-1.2,0.5,-1.2,25,-776.537,-136.078,-624.804,-0.657991,-0.869948,-1.96569,
2026_07_06_17_22_10.582,3.872,34.9,0,0.763,0,0,0,0, ,0,0,0,0,0, ,-766.1,-136.4,-611.6,-1.5,0,-2.1,25,-776.297,-135.906,-624.295,-0.70016,-0.801701,-1.94645,
2026_07_06_17_22_10.605,3.872,34.9,0,0.763,0,0,0,0, ,0,0,0,0,0, ,-774.4,-136.2,-625.2,-2.9,0.7,-1.1,25,-775.928,-135.93,-623.936,-0.791557,-0.731519,-1.92534,
2026_07_06_17_22_10.620,3.872,34.9,0,0.763,0,0,0,0, ,0,0,0,0,0, ,-774.7,-142.9,-628.5,-1.6,0.1,-1.7,25,-775.844,-136.15,-624.113,-0.880431,-0.662567,-1.89333,
2026_07_06_17_22_10.643,3.872,34.9,0,0.762,0,0,0,0, ,0,0,0,0,0, ,-777.9,-139.6,-637.8,0.2,-2.2,-1.3,25,-775.872,-136.461,-624.664,-0.869436,-0.686177,-1.86936,
2026_07_06_17_22_10.660,3.872,34.8,0,0.762,0,0,0,0, ,0,0,0,0,0, ,-776.4,-133.9,-635.8,1.1,-1.2,-1.5,25,-775.95,-136.479,-625.404,-0.776845,-0.747957,-1.84076,
2026_07_06_17_22_10.683,3.872,34.8,0,0.762,0,0,0,0, ,0,0,0,0,0, ,-774.1,-137.9,-623.5,1.2,0.5,-2,25,-775.907,-136.444,-625.662,-0.659428,-0.723706,-1.83523,
2026_07_06_17_22_10.698,3.872,34.8,0,0.762,0,0,0,0, ,0,0,0,0,0, ,-773.9,-136.3,-625.7,0.7,-1.6,-1.4,25,-775.791,-136.484,-625.598,-0.561353,-0.713121,-1.82699,
2026_07_06_17_22_10.728,3.872,34.8,0,0.763,0,0,0,0, ,0,0,0,0,0, ,-775.8,-137.8,-630.7,-2,-0.7,-0.3,25,-775.734,-136.518,-625.756,-0.566755,-0.739743,-1.76745,
2026_07_06_17_22_10.738,3.872,34.9,0,0.763,0,0,0,0, ,0,0,0,0,0, ,-781,-137.5,-633.1,0.5,-0.4,-1,25,-775.896,-136.587,-626.131,-0.577922,-0.728181,-1.69936,
2026_07_06_17_22_10.761,3.872,34.9,0,0.763,0,0,0,0, ,0,0,0,0,0, ,-776.6,-139.2,-628,0.3,-3.6,-0.8,25,-776.073,-136.694,-626.4,-0.51833,-0.805682,-1.65065,
2026_07_06_17_22_10.778,3.872,34.8,0,0.763,0,0,0,0, ,0,0,0,0,0, ,-772.5,-139.2,-632.3,-0.3,-3.7,0,25,-775.98,-136.847,-626.628,-0.486744,-0.979008,-1.57444,
2026_07_06_17_22_10.801,3.872,34.8,0,0.764,0,0,0,0, ,0,0,0,0,0, ,-782.2,-134.8,-632.3,-0.5,1.7,-0.9,25,-776.064,-136.856,-626.974,-0.481458,-0.980287,-1.50592,
2026_07_06_17_22_10.817,3.872,34.9,0,0.763,0,0,0,0, ,0,0,0,0,0, ,-782.2,-136.8,-631.2,-0.5,0.8,-1.8,25,-776.438,-136.792,-627.265,-0.482588,-0.844379,-1.49641,
2026_07_06_17_22_10.841,3.872,34.9,0,0.762,0,0,0,0, ,0,0,0,0,0, ,-772.7,-139,-648,1.7,-3.5,-1.6,25,-776.499,-136.86,-628.017,-0.416618,-0.87519,-1.50882,
2026_07_06_17_22_10.857,3.872,34.9,0,0.762,0,0,0,0, ,0,0,0,0,0, ,-766.8,-138,-645.3,3.8,-3,-1,25,-776.088,-136.96,-629.152,-0.223652,-1.01991,-1.4961,
2026_07_06_17_22_10.881,3.872,34.8,0,0.762,0,0,0,0, ,0,0,0,0,0, ,-774,-138.4,-616.3,3.7,0.9,-0.9,25,-775.742,-137.035,-629.253,0.0184925,-1.02174,-1.46282,
2026_07_06_17_22_10.897,3.872,34.9,0,0.763,0,0,0,0, ,0,0,0,0,0, ,-774.9,-141.9,-609.3,1.1,1.2,-1.3,25,-775.663,-137.225,-628.25,0.163616,-0.895492,-1.44071,
2026_07_06_17_22_10.922,3.872,34.8,0,0.763,0,0,0,0, ,0,0,0,0,0, ,-757.5,-143.7,-612.6,1.1,1,-1.3,25,-775.086,-137.565,-627.196,0.220676,-0.773892,-1.43213,
2026_07_06_17_22_10.937,3.872,34.8,0,0.762,0,0,0,0, ,0,0,0,0,0, ,-785.7,-140.1,-623,2,1.6,-0.1,25,-774.874,-137.829,-626.623,0.301682,-0.647514,-1.38752,
2026_07_06_17_22_10.960,3.872,34.9,0,0.763,0,0,0,0, ,0,0,0,0,0, ,-811,-141.2,-639.6,4.3,2.9,-2.8,25,-776.304,-138.001,-626.908,0.475251,-0.470947,-1.39133,
2026_07_06_17_22_10.976,3.872,34.8,0,0.762,0,0,0,0, ,0,0,0,0,0, ,-776.9,-134.5,-633,4.3,2.6,-3,25,-777.38,-137.992,-627.481,0.708322,-0.274671,-1.48326,
2026_07_06_17_22_11.002,3.872,34.9,0,0.762,0,0,0,0, ,0,0,0,0,0, ,-784.4,-117.9,-618.1,3.4,2,-2.8,25,-777.579,-137.273,-627.363,0.899768,-0.117777,-1.56959,
2026_07_06_17_22_11.015,3.872,34.8,0,0.763,0,0,0,0, ,0,0,0,0,0, ,-788.5,-122.8,-643.1,1.4,0.1,-3.3,25,-778.119,-136.242,-627.56,0.991188,-0.0466153,-1.65981,
2026_07_06_17_22_11.039,3.872,34.8,0,0.762,0,0,0,0, ,0,0,0,0,0, ,-773.5,-139.7,-656.6,1.7,0,-1.5,25,-778.295,-135.938,-628.918,1.02524,-0.0407278,-1.70491,
2026_07_06_17_22_11.054,3.872,34.8,0,0.762,0,0,0,0, ,0,0,0,0,0, ,-765.2,-151.1,-656.8,2,-0.8,0,25,-777.75,-136.514,-630.611,1.0755,-0.0626209,-1.64672,
2026_07_06_17_22_11.080,3.872,34.9,0,0.762,0,0,0,0, ,0,0,0,0,0, ,-757.4,-149.9,-635.6,3.2,-1.1,0.9,25,-776.748,-137.366,-631.561,1.1684,-0.116696,-1.51895,
2026_07_06_17_22_11.100,3.872,34.9,0,0.762,0,0,0,0, ,0,0,0,0,0, ,-768.1,-158,-633.5,5,-1.8,1,25,-775.895,-138.377,-631.743,1.34704,-0.197944,-1.3685,
2026_07_06_17_22_11.124,3.872,34.8,0,0.768,0,0,0,0, ,0,0,0,0,0, ,-771.2,-158,-644.4,4.8,-0.5,1.1,25,-775.514,-139.573,-632.183,1.56355,-0.25596,-1.22112,
2026_07_06_17_22_11.135,3.872,34.8,0,0.763,0,0,0,0, ,0,0,0,0,0, ,-747.6,-151.1,-629.8,6.4,-0.4,2.1,25,-774.532,-140.485,-632.482,1.80952,-0.267784,-1.04921,
2026_07_06_17_22_11.159,3.872,34.9,0,0.762,0,0,0,0, ,0,0,0,0,0, ,-756.7,-147.8,-625.2,6.5,0.1,3.7,25,-773.168,-141.032,-632.179,2.0923,-0.260607,-0.808556,
2026_07_06_17_22_11.175,3.872,34.9,0,0.763,0,0,0,0, ,0,0,0,0,0, ,-763.4,-149.9,-615.2,5.3,0.5,3.8,25,-772.369,-141.508,-631.449,2.32433,-0.226445,-0.530769,
2026_07_06_17_22_11.200,3.872,34.9,0,0.763,0,0,0,0, ,0,0,0,0,0, ,-788.4,-141.7,-622.5,5,1.7,3.4,25,-772.584,-141.77,-630.681,2.49652,-0.145614,-0.279051,
2026_07_06_17_22_11.214,3.872,34.9,0,0.763,0,0,0,0, ,0,0,0,0,0, ,-781.8,-126.5,-631.1,6.1,-1.5,2.6,25,-773.347,-141.302,-630.444,2.68259,-0.130647,-0.0792336,
2026_07_06_17_22_11.239,3.872,34.9,0,0.762,0,0,0,0, ,0,0,0,0,0, ,-757.6,-124.6,-619.8,6.4,0.4,3,25,-773.124,-140.342,-630.14,2.89998,-0.156202,0.0962197,
2026_07_06_17_22_11.254,3.872,34.8,0,0.762,0,0,0,0, ,0,0,0,0,0, ,-763.4,-146.3,-601.9,6.2,4.7,2.6,25,-772.355,-140.044,-628.965,3.10717,0.00870754,0.260981,
2026_07_06_17_22_11.278,3.872,34.9,0,0.762,0,0,0,0, ,0,0,0,0,0, ,-800.6,-156.3,-619.5,4.7,5.7,1.2,25,-772.943,-140.73,-627.852,3.24994,0.325052,0.360859,
2026_07_06_17_22_11.293,3.872,34.9,0,0.762,0,0,0,0, ,0,0,0,0,0, ,-810.4,-156.9,-634.8,2.4,5.8,0.7,25,-774.927,-141.697,-627.809,3.26822,0.655635,0.39676,
2026_07_06_17_22_11.317,3.872,34.9,0,0.763,0,0,0,0, ,0,0,0,0,0, ,-788.4,-156.6,-667.6,1.5,4.5,-0.3,25,-776.418,-142.615,-629.234,3.18789,0.92951,0.38477,
2026_07_06_17_22_11.331,3.872,34.9,0,0.763,0,0,0,0, ,0,0,0,0,0, ,-782.4,-161.9,-691.4,3.2,8.2,-2.5,25,-776.965,-143.628,-632.297,3.13683,1.25982,0.27601,
2026_07_06_17_22_11.357,3.872,34.8,0,0.762,0,0,0,0, ,0,0,0,0,0, ,-770,-166,-698.1,4.8,10.2,-3.9,25,-776.919,-144.867,-636.103,3.18943,1.74368,0.0641909,
2026_07_06_17_22_11.372,3.872,34.9,0,0.762,0,0,0,0, ,0,0,0,0,0, ,-741,-163,-694.5,7.4,10.6,-2.9,25,-775.614,-146.063,-639.771,3.3668,2.27117,-0.146908,
2026_07_06_17_22_11.397,3.872,34.9,0,0.763,0,0,0,0, ,0,0,0,0,0, ,-741.2,-134.1,-709.8,8.9,3.5,2.7,25,-773.51,-146.215,-643.572,3.65827,2.56238,-0.14405,
2026_07_06_17_22_11.412,3.872,34.8,0,0.762,0,0,0,0, ,0,0,0,0,0, ,-748.6,-119.7,-685.4,8.7,3.2,7.6,25,-771.767,-145.038,-646.865,3.9716,2.61038,0.178556,
2026_07_06_17_22_11.436,3.872,34.8,0,0.762,0,0,0,0, ,0,0,0,0,0, ,-781.3,-146.3,-671,9.8,8.6,8.7,25,-771.352,-144.304,-648.774,4.29325,2.81084,0.664316,
2026_07_06_17_22_11.452,3.872,34.8,0,0.762,0,0,0,0, ,0,0,0,0,0, ,-807.1,-174.6,-645.3,14.6,8.6,3.5,25,-772.744,-145.288,-649.346,4.77507,3.16361,0.995553,
2026_07_06_17_22_11.477,3.872,34.9,0,0.762,0,0,0,0, ,0,0,0,0,0, ,-773.8,-151.7,-610.7,16.3,9,2.3,25,-773.823,-146.376,-648.045,5.42557,3.50708,1.11161,
2026_07_06_17_22_11.492,3.872,34.8,0,0.763,0,0,0,0, ,0,0,0,0,0, ,-730.1,-124.3,-581.4,12.4,8.2,2.9,25,-772.49,-145.866,-644.876,5.9694,3.81743,1.2023,
2026_07_06_17_22_11.518,3.872,34.8,0,0.763,0,0,0,0, ,0,0,0,0,0, ,-731.3,-131.7,-605.9,13.3,6.1,3.8,25,-769.943,-144.777,-641.755,6.38869,4.02051,1.33318,
2026_07_06_17_22_11.529,3.872,34.9,0,0.762,0,0,0,0, ,0,0,0,0,0, ,-741.3,-141.7,-582.3,14.7,5.1,5.6,25,-767.893,-144.285,-638.851,6.8525,4.11676,1.53835,
2026_07_06_17_22_11.555,3.872,34.9,0,0.763,0,0,0,0, ,0,0,0,0,0, ,-781.8,-156.9,-556.6,12.1,4,7.4,25,-767.507,-144.591,-634.622,7.25149,4.14316,1.8407,
2026_07_06_17_22_11.570,3.872,34.8,0,0.762,0,0,0,0, ,0,0,0,0,0, ,-813.4,-171.5,-567.6,9.4,-0.6,4.4,25,-769.341,-145.786,-630.202,7.46468,3.99428,2.08806,
2026_07_06_17_22_11.594,3.872,34.8,0,0.762,0,0,0,0, ,0,0,0,0,0, ,-769.1,-181.1,-567.7,7.7,-3.6,0.9,25,-770.676,-147.645,-626.391,7.53082,3.62291,2.1223,
2026_07_06_17_22_11.610,3.872,34.9,0,0.762,0,0,0,0, ,0,0,0,0,0, ,-751.8,-187.1,-582.8,5.9,0.4,0,25,-770.053,-149.867,-623.274,7.48628,3.30464,2.0204,
2026_07_06_17_22_11.633,3.872,34.8,0,0.763,0,0,0,0, ,0,0,0,0,0, ,-761.9,-178.5,-568.4,4.9,5.9,-2.1,25,-769.248,-151.873,-620.369,7.35915,3.29522,1.83329,
2026_07_06_17_22_11.650,3.872,34.9,0,0.762,0,0,0,0, ,0,0,0,0,0, ,-743.5,-173.5,-573.2,3.2,2.1,-3.1,25,-768.24,-153.344,-617.349,7.1575,3.33816,1.56314,
2026_07_06_17_22_11.674,3.872,34.8,0,0.762,0,0,0,0, ,0,0,0,0,0, ,-736.6,-127.5,-567.7,-5.6,-1.6,1.2,25,-766.522,-153.17,-614.491,6.64821,3.14998,1.41,
2026_07_06_17_22_11.689,3.872,34.9,0,0.764,0,0,0,0, ,0,0,0,0,0, ,-779,-234,-551,-26.3,-27.6,11.4,25,-765.99,-154.851,-611.131,5.27114,2.06834,1.70798,
2026_07_06_17_22_11.713,3.872,34.8,0,0.763,0,0,0,0, ,0,0,0,0,0, ,-783.8,-146.4,-644.6,-19,-14.9,2.8,25,-766.929,-157.005,-610.318,3.56969,0.647378,2.03656,
2026_07_06_17_22_11.729,3.872,34.9,0,0.763,0,0,0,0, ,0,0,0,0,0, ,-750.4,-157.5,-654.9,-14.6,-4.1,-0.8,25,-766.94,-156.697,-612.721,2.32841,0.0290225,1.97339,
2026_07_06_17_22_11.753,3.872,34.8,0,0.763,0,0,0,0, ,0,0,0,0,0, ,-686.8,-182.4,-777.5,25.7,18.3,-18,25,-763.994,-157.505,-619.027,2.52473,0.45991,1.28033,
2026_07_06_17_22_11.768,3.872,34.9,0,0.762,0,0,0,0, ,0,0,0,0,0, ,-702,-114.3,-688.9,7.5,30.5,-6,25,-759.753,-156.947,-625.984,3.38244,1.91876,0.471056,
2026_07_06_17_22_11.794,3.872,34.9,0,0.76,0,0,0,0, ,0,0,0,0,0, ,-711.9,-126,-644.8,1.7,2.8,-0.4,25,-756.535,-154.704,-628.474,3.45664,2.81644,0.247351,
2026_07_06_17_22_11.807,3.872,34.8,0,0.763,0,0,0,0, ,0,0,0,0,0, ,-729.4,-149.5,-662.4,4,-12.9,-1.6,25,-754.349,-153.671,-630.006,3.41967,2.33708,0.171341,
2026_07_06_17_22_11.832,3.872,34.8,0,0.764,0,0,0,0, ,0,0,0,0,0, ,-744.1,-153.1,-676.5,0.3,-0.5,-2.4,25,-753.276,-153.527,-632.409,3.3423,1.78639,0.0390246,
2026_07_06_17_22_11.847,3.872,34.8,0,0.762,0,0,0,0, ,0,0,0,0,0, ,-750.4,-143.7,-657.7,-1.2,7.8,-3.4,25,-752.909,-153.214,-634.523,3.11121,1.89995,-0.140072,
2026_07_06_17_22_11.873,3.872,34.8,0,0.762,0,0,0,0, ,0,0,0,0,0, ,-760.9,-150.6,-613.6,-2,6.7,-3.8,25,-753.076,-152.845,-634.592,2.82412,2.22597,-0.350912,
2026_07_06_17_22_11.886,3.872,34.8,0,0.762,0,0,0,0, ,0,0,0,0,0, ,-801.1,-157.4,-579.1,-6.7,-1.8,-6.1,25,-754.778,-152.915,-632.261,2.38694,2.23962,-0.631168,
2026_07_06_17_22_11.910,3.872,34.7,0,0.762,0,0,0,0, ,0,0,0,0,0, ,-822.3,-165.4,-610.8,-14.6,-8.3,-6.3,25,-758.246,-153.432,-629.988,1.59251,1.79541,-0.970519,
2026_07_06_17_22_11.926,3.872,34.8,0,0.763,0,0,0,0, ,0,0,0,0,0, ,-745.2,-237.6,-674.8,-9.8,13,-2.7,25,-759.801,-156.361,-630.769,0.752024,1.8292,-1.1856,
2026_07_06_17_22_11.954,3.872,34.8,0,0.762,0,0,0,0, ,0,0,0,0,0, ,-739.2,-129.1,-653.8,-5.4,22.3,-7.8,25,-758.728,-158.006,-632.812,0.243073,2.79328,-1.43327,
2026_07_06_17_22_11.966,3.872,34.8,0,0.762,0,0,0,0, ,0,0,0,0,0, ,-723.6,-148.1,-668.9,-0.9,21.1,0.1,25,-757.063,-156.823,-634.551,0.0363076,3.94541,-1.58054,
2026_07_06_17_22_11.992,3.872,34.8,0,0.762,0,0,0,0, ,0,0,0,0,0, ,-656.6,-186.1,-665.4,-14.4,27.7,9.4,25,-752.982,-157.45,-636.537,-0.432077,5.19186,-1.19477,
2026_07_06_17_22_12.005,3.872,34.8,0,0.762,0,0,0,0, ,0,0,0,0,0, ,-726,-152.5,-736.9,-0.6,24.5,10.1,25,-749.223,-158.172,-640.475,-0.862778,6.46595,-0.527826,
2026_07_06_17_22_12.033,3.872,34.8,0,0.763,0,0,0,0, ,0,0,0,0,0, ,-662.3,-159.4,-709.7,4.4,17,10.7,25,-745.867,-158.036,-645.522,-0.694421,7.33639,0.138088,
2026_07_06_17_22_12.044,3.872,34.8,0,0.762,0,0,0,0, ,0,0,0,0,0, ,-674.9,-160,-636.3,3.1,20.2,17.2,25,-741.159,-158.138,-647.196,-0.42359,8.02276,0.979751,
2026_07_06_17_22_12.069,3.872,34.8,0,0.761,0,0,0,0, ,0,0,0,0,0, ,-738.2,-135.7,-638.9,-10.8,42.5,16.2,25,-739.05,-157.511,-646.612,-0.632386,9.44427,1.9377,
2026_07_06_17_22_12.084,3.872,34.9,0,0.764,0,0,0,0, ,0,0,0,0,0, ,-765.6,-145.6,-726.4,-6.4,50.1,0.6,25,-739.833,-156.483,-648.808,-1.11791,11.6902,2.3315,
2026_07_06_17_22_12.110,3.872,34.8,0,0.763,0,0,0,0, ,0,0,0,0,0, ,-729.7,-133.9,-727.4,-2.1,42.8,-9.3,25,-740.309,-155.464,-653.566,-1.30877,13.8083,1.92435,
2026_07_06_17_22_12.124,3.872,34.8,0,0.762,0,0,0,0, ,0,0,0,0,0, ,-703.9,-89.9,-710.9,3.9,40,-11.4,25,-738.877,-152.809,-657.563,-1.17418,15.4897,1.17638,
2026_07_06_17_22_12.150,3.872,34.8,0,0.762,0,0,0,0, ,0,0,0,0,0, ,-726.4,-193.8,-747.6,-1.2,43.8,-11.2,25,-737.431,-152.141,-661.931,-1.02036,17.0991,0.416099,
2026_07_06_17_22_12.164,3.872,34.8,0,0.763,0,0,0,0, ,0,0,0,0,0, ,-680.7,-65.9,-782.9,1.9,33,-22.1,25,-735.366,-150.783,-668.227,-0.936854,18.3971,-0.623866,
2026_07_06_17_22_12.191,3.872,34.8,0,0.762,0,0,0,0, ,0,0,0,0,0, ,-637.6,-207.6,-747.1,2.9,16,-26,25,-730.722,-149.928,-674.124,-0.733514,18.769,-2.0514,
2026_07_06_17_22_12.204,3.872,34.8,0,0.763,0,0,0,0, ,0,0,0,0,0, ,-628.9,-428.2,-728,-1.4,22.3,-12.5,25,-724.782,-160.164,-677.989,-0.643113,18.7922,-3.09944,
2026_07_06_17_22_12.229,3.872,34.8,0,0.763,0,0,0,0, ,0,0,0,0,0, ,-579.2,-109.1,-719.1,29.7,25.7,-15.7,25,-717.425,-166.774,-680.766,0.258343,19.1096,-3.76978,
2026_07_06_17_22_12.244,3.872,34.8,0,0.764,0,0,0,0, ,0,0,0,0,0, ,-623,-155.5,-728.2,14.1,35.6,-25.7,25,-710.336,-164.674,-683.379,1.57713,19.8128,-4.80147,
2026_07_06_17_22_12.270,3.872,34.9,0,0.761,0,0,0,0, ,0,0,0,0,0, ,-653.1,-244.9,-891.1,22.3,11.8,-9.7,25,-705.932,-166.839,-691.074,2.59009,20.0497,-5.58747,
2026_07_06_17_22_12.282,3.872,34.8,0,0.761,0,0,0,0, ,0,0,0,0,0, ,-646.3,-181,-841.6,31.3,-4.7,14.8,25,-702.505,-169.648,-701.755,4.06538,19.0442,-5.09159,
2026_07_06_17_22_12.307,3.872,34.8,0,0.763,0,0,0,0, ,0,0,0,0,0, ,-587.6,-35.2,-734.9,-2.5,8.7,-37,25,-697.291,-165.898,-707.025,4.69514,18.0056,-5.45773,
2026_07_06_17_22_12.324,3.872,34.8,0,0.761,0,0,0,0, ,0,0,0,0,0, ,-603.7,-311.8,-771.4,-3.3,3.6,-17.9,25,-691.098,-166.361,-709.836,4.23232,17.2832,-6.79789,
2026_07_06_17_22_12.351,3.872,34.8,0,0.762,0,0,0,0, ,0,0,0,0,0, ,-564.2,-336,-744.3,-0.8,-2.6,10.5,25,-684.568,-175.961,-712.762,3.84949,16.2604,-6.60911,
2026_07_06_17_22_12.362,3.872,34.8,0,0.762,0,0,0,0, ,0,0,0,0,0, ,-603,-223.6,-746.9,8.2,5.3,20.4,25,-678.416,-182.289,-714.763,3.84038,15.3518,-5.26488,
2026_07_06_17_22_12.387,3.872,34.8,0,0.762,0,0,0,0, ,0,0,0,0,0, ,-543.7,-152.4,-774.7,3.4,23.7,4.9,25,-672.013,-182.637,-717.568,3.95979,15.2999,-4.17319,
2026_07_06_17_22_12.401,3.872,34.8,0,0.762,0,0,0,0, ,0,0,0,0,0, ,-623,-181.6,-836.4,-8,11.4,2.9,25,-666.61,-181.684,-722.93,3.57834,15.437,-3.68123,
2026_07_06_17_22_12.428,3.872,34.8,0,0.762,0,0,0,0, ,0,0,0,0,0, ,-588.7,-181.7,-773.1,-8.3,-4,0,25,-662.908,-181.682,-727.916,2.86364,14.7218,-3.36855,
2026_07_06_17_22_12.441,3.872,34.8,0,0.762,0,0,0,0, ,0,0,0,0,0, ,-640.1,-150.5,-799.4,2.6,2.7,5.2,25,-659.952,-180.732,-731.47,2.51547,13.7851,-3.00484,
2026_07_06_17_22_12.470,3.872,34.8,0,0.763,0,0,0,0, ,0,0,0,0,0, ,-616,-131.7,-805.1,13.7,1.4,8,25,-658.008,-178.317,-735.784,2.85882,13.07,-2.41955,
2026_07_06_17_22_12.481,3.872,34.8,0,0.761,0,0,0,0, ,0,0,0,0,0, ,-612.6,-164.3,-773.9,14.3,-9.2,-3.5,25,-655.344,-176.47,-739.057,3.53774,12.0359,-2.135,
2026_07_06_17_22_12.508,3.872,34.8,0,0.762,0,0,0,0, ,0,0,0,0,0, ,-631.2,-206,-763,13.5,-9.6,-7.4,25,-653.306,-176.999,-740.848,4.16919,10.7296,-2.337,
2026_07_06_17_22_12.520,3.872,34.8,0,0.762,0,0,0,0, ,0,0,0,0,0, ,-640,-186.6,-780.1,12.9,-4.8,0.4,25,-652.227,-178.175,-742.719,4.7195,9.63704,-2.40787,
2026_07_06_17_22_12.545,3.872,34.8,0,0.762,0,0,0,0, ,0,0,0,0,0, ,-641.2,-118.7,-788.8,5.6,-5.4,7.5,25,-651.519,-176.62,-745.262,4.99558,8.739,-2.02044,
2026_07_06_17_22_12.559,3.872,34.8,0,0.761,0,0,0,0, ,0,0,0,0,0, ,-633.9,-119,-766.3,-5,-9.2,1.4,25,-650.668,-173.099,-747.229,4.70944,7.76162,-1.62615,
2026_07_06_17_22_12.587,3.872,34.8,0,0.762,0,0,0,0, ,0,0,0,0,0, ,-644.8,-157.8,-772.5,-11.3,-9.6,-1.5,25,-649.978,-170.985,-748.581,3.92582,6.71584,-1.5301,
2026_07_06_17_22_12.601,3.872,34.8,0,0.763,0,0,0,0, ,0,0,0,0,0, ,-635.7,-181,-783.3,-14.1,-6.8,-1.4,25,-649.385,-170.888,-750.367,2.91268,5.8069,-1.52522,
2026_07_06_17_22_12.627,3.872,34.8,0,0.764,0,0,0,0, ,0,0,0,0,0, ,-632.5,-176.7,-784.9,-12.4,-11.6,0.2,25,-648.454,-171.373,-752.423,1.92777,4.89242,-1.46884,
2026_07_06_17_22_12.639,3.872,34.8,0,0.762,0,0,0,0, ,0,0,0,0,0, ,-619,-170.8,-741.3,-14.6,-18.7,-3.1,25,-647.07,-171.518,-753.073,0.98764,3.67109,-1.46769,
2026_07_06_17_22_12.666,3.872,34.8,0,0.763,0,0,0,0, ,0,0,0,0,0, ,-625.7,-153.8,-692.6,0,-17.4,-8.6,25,-645.564,-170.956,-750.872,0.482612,2.34746,-1.73474,
2026_07_06_17_22_12.679,3.872,34.9,0,0.762,0,0,0,0, ,0,0,0,0,0, ,-620.1,-193.4,-685,0.9,0.3,-20.1,25,-644.183,-171.118,-747.09,0.480625,1.68339,-2.50348,
2026_07_06_17_22_12.706,3.872,34.8,0,0.763,0,0,0,0, ,0,0,0,0,0, ,-624.8,-210.2,-705.4,0.7,7.6,-21.6,25,-642.858,-172.987,-743.928,0.500087,1.82151,-3.62147,
2026_07_06_17_22_12.718,3.872,34.8,0,0.762,0,0,0,0, ,0,0,0,0,0, ,-610.8,-210.3,-738,-1.4,11.5,-18.8,25,-641.331,-175.258,-742.573,0.448285,2.29247,-4.63173,
2026_07_06_17_22_12.744,3.872,34.8,0,0.762,0,0,0,0, ,0,0,0,0,0, ,-607.2,-164.9,-734.9,1.7,8.2,-18.7,25,-639.361,-176.01,-742.2,0.430108,2.75301,-5.49206,
2026_07_06_17_22_12.757,3.872,34.8,0,0.764,0,0,0,0, ,0,0,0,0,0, ,-638.7,-136.3,-740.1,9.3,10,-30.3,25,-638.361,-174.462,-741.914,0.739055,3.13978,-6.65035,
2026_07_06_17_22_12.785,3.872,34.8,0,0.763,0,0,0,0, ,0,0,0,0,0, ,-743.8,-545.4,-1006.7,33.4,-45,14.6,25,-641.584,-184.601,-749.926,1.99503,1.88204,-6.72346,
2026_07_06_17_22_12.797,3.872,34.8,0,0.762,0,0,0,0, ,0,0,0,0,0, ,-696.4,-378.9,-787.7,2.4,-52.9,26.7,25,-646.369,-201.514,-758.901,2.96424,-1.21554,-5.05539,
2026_07_06_17_22_12.824,3.872,34.8,0,0.762,0,0,0,0, ,0,0,0,0,0, ,-633.7,-258.1,-671.5,9.3,-37.2,28.4,25,-647.507,-208.643,-757.115,3.14009,-3.8867,-3.0685,
2026_07_06_17_22_12.837,3.872,34.8,0,0.763,0,0,0,0, ,0,0,0,0,0, ,-658.3,-201.9,-689.4,5,-8,13.6,25,-647.415,-209.944,-752.443,3.38445,-5.02704,-1.60182,
2026_07_06_17_22_12.867,3.872,34.9,0,0.763,0,0,0,0, ,0,0,0,0,0, ,-643.1,-195.1,-698.4,-2.7,-2.7,-1.1,25,-647.615,-209.247,-748.876,3.24829,-5.04672,-1.12335,
2026_07_06_17_22_12.876,3.872,34.7,0,0.762,0,0,0,0, ,0,0,0,0,0, ,-668.7,-227.1,-755.4,2.8,-12,10.3,25,-648.12,-209.36,-747.537,3.05339,-5.18708,-0.774586,
2026_07_06_17_22_12.903,3.872,34.8,0,0.763,0,0,0,0, ,0,0,0,0,0, ,-652,-170.2,-687.5,4.9,-29.3,4.7,25,-648.865,-208.707,-745.947,3.10193,-6.12935,-0.270354,
2026_07_06_17_22_12.916,3.872,34.7,0,0.762,0,0,0,0, ,0,0,0,0,0, ,-657.2,-141.8,-682.7,-6.7,-38.6,-5,25,-649.215,-205.495,-742.239,2.85807,-7.82467,-0.26302,
2026_07_06_17_22_12.944,3.872,34.8,0,0.761,0,0,0,0, ,0,0,0,0,0, ,-738.7,-166,-768,3,-57.8,-15.9,25,-652.185,-202.351,-741.21,2.57117,-10.285,-0.883789,
2026_07_06_17_22_12.956,3.872,34.9,0,0.761,0,0,0,0, ,0,0,0,0,0, ,-724.6,-262.4,-722.1,52.4,-66.2,-6.5,25,-657.027,-203.073,-741.444,4.10246,-13.4364,-1.51243,
2026_07_06_17_22_12.982,3.872,34.8,0,0.762,0,0,0,0, ,0,0,0,0,0, ,-712.7,-255.6,-612.5,60,-57.5,5.3,25,-660.782,-206.481,-736.926,7.27715,-16.3866,-1.45683,
2026_07_06_17_22_12.995,3.872,34.8,0,0.763,0,0,0,0, ,0,0,0,0,0, ,-709.3,-227.5,-624.1,47.9,-46.7,5.9,25,-663.842,-208.618,-729.697,10.1213,-18.5629,-1.02681,
2026_07_06_17_22_13.025,3.872,34.7,0,0.763,0,0,0,0, ,0,0,0,0,0, ,-758,-245.6,-601.1,34.7,-43.1,7.6,25,-668.096,-210.32,-722.561,12.0212,-20.1678,-0.552907,
2026_07_06_17_22_13.035,3.872,34.7,0,0.763,0,0,0,0, ,0,0,0,0,0, ,-827.6,-32.9,-532.8,-36.9,-45,19.1,25,-675.695,-205.99,-713.079,11.2217,-21.6231,0.294302,
2026_07_06_17_22_13.062,3.872,34.8,0,0.764,0,0,0,0, ,0,0,0,0,0, ,-703.8,-279.1,-624.7,-1.1,-22.5,9.1,25,-681.18,-202.943,-704.893,9.38002,-22.3621,1.13559,
2026_07_06_17_22_13.074,3.872,34.8,0,0.763,0,0,0,0, ,0,0,0,0,0, ,-775.8,-248.1,-613.1,2.3,-14.4,-4.2,25,-684.752,-206.64,-699.653,8.84499,-22.1237,1.21568,
2026_07_06_17_22_13.105,3.872,34.9,0,0.763,0,0,0,0, ,0,0,0,0,0, ,-803.8,-286,-638.4,16.8,3,-7.7,25,-691.154,-210.321,-695.15,8.88795,-21.1229,0.779025,
2026_07_06_17_22_13.114,3.872,34.7,0,0.762,0,0,0,0, ,0,0,0,0,0, ,-770.2,-295.8,-580.8,34.7,-7.9,-20.4,25,-696.994,-215.231,-689.936,9.91548,-19.985,-0.124619,
2026_07_06_17_22_13.141,3.872,34.8,0,0.763,0,0,0,0, ,0,0,0,0,0, ,-838.9,-124.1,-412.1,31.7,-39.8,-8,25,-703.548,-214.909,-678.146,11.3344,-20.2205,-0.982337,
2026_07_06_17_22_13.154,3.872,34.7,0,0.763,0,0,0,0, ,0,0,0,0,0, ,-807.9,-238.7,-597.7,39.2,-53.4,-1.8,25,-710.852,-212.867,-667.589,12.8039,-21.828,-1.22107,
2026_07_06_17_22_13.183,3.872,34.8,0,0.763,0,0,0,0, ,0,0,0,0,0, ,-906.4,-309.9,-621.9,33.5,-58.2,0.1,25,-719.767,-216.611,-664.067,14.2388,-23.8982,-1.19846,
2026_07_06_17_22_13.193,3.872,34.8,0,0.763,0,0,0,0, ,0,0,0,0,0, ,-894.1,-282.9,-524.1,18.1,-54.8,4.6,25,-730.765,-221.473,-658.518,14.9433,-25.8849,-0.982224,
2026_07_06_17_22_13.221,3.872,34.7,0,0.763,0,0,0,0, ,0,0,0,0,0, ,-804,-328,-495.6,0.5,-81.9,-10.7,25,-737.973,-226.59,-649.458,14.5994,-28.4726,-1.10823,
2026_07_06_17_22_13.232,3.872,34.7,0,0.764,0,0,0,0, ,0,0,0,0,0, ,-892.7,-283.9,-530.2,24.2,-126.7,-26.7,25,-744.699,-231.426,-641.137,14.4623,-33.0933,-2.18023,
2026_07_06_17_22_13.267,3.872,34.8,0,0.761,0,0,0,0, ,0,0,0,0,0, ,-766.6,-286.8,-580,14.8,-83.7,-24.1,25,-749.876,-234.712,-635.894,14.7693,-37.4873,-3.59518,
2026_07_06_17_22_13.272,3.872,34.7,0,0.762,0,0,0,0, ,0,0,0,0,0, ,-833,-295.7,-477.1,-2.9,-35.7,10.8,25,-752.918,-238.158,-629.353,14.2319,-38.8409,-3.78134,
2026_07_06_17_22_13.299,3.872,34.8,0,0.766,0,0,0,0, ,0,0,0,0,0, ,-908.5,-279.4,-375.2,-12.3,-27.7,17.9,25,-760.098,-241.167,-616.97,12.9015,-38.4058,-2.67646,
2026_07_06_17_22_13.312,3.872,34.7,0,0.762,0,0,0,0, ,0,0,0,0,0, ,-919,-286.6,-334.7,-8.2,-64.2,25.8,25,-769.462,-243.717,-601.003,11.4907,-38.8655,-1.18188,
2026_07_06_17_22_13.340,3.872,34.8,0,0.763,0,0,0,0, ,0,0,0,0,0, ,-875,-275.7,-381.3,11.4,-116.7,28,25,-777.233,-245.998,-586.195,10.888,-42.0089,0.529363,
2026_07_06_17_22_13.353,3.872,34.7,0,0.762,0,0,0,0, ,0,0,0,0,0, ,-841.5,-248,-435,19.4,-136.3,41,25,-782.17,-246.964,-575.346,11.1629,-47.1576,2.59945,
2026_07_06_17_22_13.381,3.872,34.8,0,0.762,0,0,0,0, ,0,0,0,0,0, ,-898.4,-284.7,-414,12.7,-122.4,46.5,25,-787.52,-248.145,-566.153,11.4607,-52.1662,5.10706,
2026_07_06_17_22_13.391,3.872,34.8,0,0.763,0,0,0,0, ,0,0,0,0,0, ,-925.4,-259.3,-346.3,8.5,-112,45.9,25,-795.099,-249.599,-554.819,11.4083,-56.1292,7.61116,
2026_07_06_17_22_13.421,3.872,34.8,0,0.762,0,0,0,0, ,0,0,0,0,0, ,-961.3,-250.7,-257.3,-2.7,-112.9,54.6,25,-804.133,-249.928,-539.4,10.8898,-59.5612,10.2095,
2026_07_06_17_22_13.431,3.872,34.8,0,0.763,0,0,0,0, ,0,0,0,0,0, ,-971.3,-249.8,-201.2,-10.7,-135.8,63.6,25,-814.015,-249.947,-520.501,9.81794,-63.5093,13.1887,
2026_07_06_17_22_13.461,3.872,34.7,0,0.762,0,0,0,0, ,0,0,0,0,0, ,-954.4,-195.1,-154.6,-3,-164.2,61.7,25,-823.085,-248.272,-499.623,8.80224,-68.7798,16.2028,
2026_07_06_17_22_13.470,3.872,34.8,0,0.763,0,0,0,0, ,0,0,0,0,0, ,-946.4,-194.8,-158.9,9.9,-163.1,54.4,25,-830.843,-245.023,-478.73,8.47608,-74.561,18.7528,
2026_07_06_17_22_13.499,3.872,34.8,0,0.762,0,0,0,0, ,0,0,0,0,0, ,-932,-171.6,-143.9,19.9,-139.7,48.3,25,-837.446,-241.255,-458.783,8.86754,-79.2434,20.7392,
2026_07_06_17_22_13.509,3.872,34.9,0,0.763,0,0,0,0, ,0,0,0,0,0, ,-923.9,-109.7,-49.5,-5.5,-114.4,57.4,25,-842.961,-235.125,-436.719,8.76593,-82.1566,22.696,
2026_07_06_17_22_13.540,3.872,34.8,0,0.762,0,0,0,0, ,0,0,0,0,0, ,-1022,-170.2,39.3,-43.8,-127.3,71.6,25,-850.882,-229.325,-410.417,6.72964,-84.5145,25.2434,
2026_07_06_17_22_13.553,3.872,34.8,0,0.762,0,0,0,0, ,0,0,0,0,0, ,-1057.4,-131.2,75.3,-37.5,-162.2,58.5,25,-862.388,-224.534,-381.915,3.84245,-88.1851,27.6691,
2026_07_06_17_22_13.581,3.872,34.8,0,0.762,0,0,0,0, ,0,0,0,0,0, ,-981.9,-73.6,116.3,-18.6,-152.8,39.2,25,-871.971,-217.091,-352.805,1.899,-92.4089,28.9598,
2026_07_06_17_22_13.589,3.872,34.7,0,0.763,0,0,0,0, ,0,0,0,0,0, ,-930.2,-44,123,-26.6,-120.7,31.7,25,-877.095,-207.445,-324.014,0.406093,-95.111,29.3553,
2026_07_06_17_22_13.616,3.872,34.8,0,0.763,0,0,0,0, ,0,0,0,0,0, ,-942.8,-43.5,183.3,-53.1,-102.8,38.1,25,-880.715,-197.47,-294.937,-2.04701,-96.1249,29.6932,
2026_07_06_17_22_13.629,3.872,34.8,0,0.763,0,0,0,0, ,0,0,0,0,0, ,-981.2,-36.1,277.2,-86,-125,51.6,25,-885.668,-187.862,-262.934,-6.16048,-97.2081,30.6168,
2026_07_06_17_22_13.656,3.872,34.7,0,0.763,0,0,0,0, ,0,0,0,0,0, ,-1051.8,-93.7,332.1,-101.9,-150.2,46.6,25,-893.641,-180.369,-228.346,-11.5101,-99.6695,31.7431,
2026_07_06_17_22_13.668,3.872,34.8,0,0.765,0,0,0,0, ,0,0,0,0,0, ,-1046.2,-57.7,336.9,-86.9,-128.2,19.4,25,-903.108,-173.991,-194.048,-16.5612,-102.078,31.8197,
2026_07_06_17_22_13.699,3.872,34.7,0,0.762,0,0,0,0, ,0,0,0,0,0, ,-946.2,-7.9,393,-68,-76.5,9.9,25,-908.781,-165.387,-159.984,-20.2717,-102.095,30.7735,
2026_07_06_17_22_13.708,3.872,34.8,0,0.762,0,0,0,0, ,0,0,0,0,0, ,-878.7,0.6,400.1,-84.1,-73.7,17,25,-909.004,-155.531,-126.07,-23.6706,-100.45,29.7178,
2026_07_06_17_22_13.737,3.872,34.7,0,0.763,0,0,0,0, ,0,0,0,0,0, ,-906.9,-78.2,385.3,-103.5,-125.9,26.3,25,-908.017,-148.418,-94.4577,-27.9442,-100.41,29.2262,
2026_07_06_17_22_13.747,3.872,34.8,0,0.763,0,0,0,0, ,0,0,0,0,0, ,-942.2,-95.8,395.7,-90.2,-139.8,11.9,25,-909.024,-144.675,-64.9056,-32.1431,-102.387,28.6091,
2026_07_06_17_22_13.777,3.872,34.7,0,0.762,0,0,0,0, ,0,0,0,0,0, ,-864.1,-39.4,526.6,-58.9,-92.5,-0.5,25,-908.666,-139.978,-32.8491,-34.7273,-103.226,27.2131,
2026_07_06_17_22_13.786,3.872,34.7,0,0.763,0,0,0,0, ,0,0,0,0,0, ,-817,-59.8,622.5,-61.6,-59.1,-10.3,25,-904.516,-134.471,4.16431,-36.2826,-101.555,25.2257,
2026_07_06_17_22_13.822,3.872,34.8,0,0.762,0,0,0,0, ,0,0,0,0,0, ,-828.2,-136.1,644.2,-77,-74.8,-21.4,25,-899.524,-132.246,42.5053,-38.2946,-99.4458,22.7227,
2026_07_06_17_22_13.827,3.872,34.7,0,0.762,0,0,0,0, ,0,0,0,0,0, ,-863.7,-116,578.8,-69.6,-109.4,-39.3,25,-896.259,-131.868,77.1784,-40.4277,-98.9982,19.4886,
2026_07_06_17_22_13.856,3.872,34.8,0,0.763,0,0,0,0, ,0,0,0,0,0, ,-808.4,-176,582,-59.9,-99.8,-73.7,25,-892.59,-132.729,107.843,-41.9098,-99.3395,14.858,
2026_07_06_17_22_13.866,3.872,34.8,0,0.763,0,0,0,0, ,0,0,0,0,0, ,-757.8,-196.2,595.9,-36.6,-58.9,-78.5,25,-885.918,-135.981,137.161,-42.2962,-98.1214,9.31525,
2026_07_06_17_22_13.895,3.872,34.8,0,0.762,0,0,0,0, ,0,0,0,0,0, ,-755.1,-232.6,581.4,-16.5,-28.8,-62.5,25,-878.029,-140.76,164.674,-41.3367,-94.8143,4.45151,
2026_07_06_17_22_13.906,3.872,34.8,0,0.762,0,0,0,0, ,0,0,0,0,0, ,-710.4,-209.7,588.9,1.2,-18.6,-45.8,25,-869.176,-145.659,190.296,-39.2839,-90.4807,0.880483,
2026_07_06_17_22_13.935,3.872,34.8,0,0.761,0,0,0,0, ,0,0,0,0,0, ,-705.4,-270.5,578.7,20.2,-11.7,-28.6,25,-859.348,-151.414,214.275,-36.238,-85.8903,-1.44005,
2026_07_06_17_22_13.946,3.872,34.9,0,0.762,0,0,0,0, ,0,0,0,0,0, ,-732.1,-208,632.3,48.7,-18.5,-6.6,25,-850.78,-156.766,238.116,-31.9304,-81.5765,-2.42479,
2026_07_06_17_22_13.972,3.872,34.7,0,0.763,0,0,0,0, ,0,0,0,0,0, ,-715.2,-211,602,69.4,-28.1,-3.8,25,-843.033,-159.98,261.213,-26.3863,-78.0253,-2.59391,
2026_07_06_17_22_13.985,3.872,34.8,0,0.763,0,0,0,0, ,0,0,0,0,0, ,-694.5,-186.1,619,58.6,-29.4,-1.8,25,-834.613,-162.33,282.498,-20.8784,-75.0225,-2.60647,
2026_07_06_17_22_14.013,3.872,34.8,0,0.762,0,0,0,0, ,0,0,0,0,0, ,-704.8,-164.4,633.9,43.2,-12.5,-1.1,25,-826.389,-163.117,303.457,-16.5044,-71.7275,-2.53599,
2026_07_06_17_22_14.025,3.872,34.8,0,0.763,0,0,0,0, ,0,0,0,0,0, ,-703.8,-142.4,667.7,33.2,7.5,1.7,25,-818.949,-162.525,324.624,-13.1709,-67.509,-2.36318,
2026_07_06_17_22_14.055,3.872,34.8,0,0.762,0,0,0,0, ,0,0,0,0,0, ,-686.6,-109.7,695.6,14.4,-11.2,14.4,25,-811.408,-160.303,346.38,-10.918,-63.5079,-1.72862,
2026_07_06_17_22_14.065,3.872,34.8,0,0.765,0,0,0,0, ,0,0,0,0,0, ,-686.6,-59,725.3,0.3,-18.4,22.8,25,-803.802,-155.674,368.565,-9.80475,-60.5397,-0.489848,
2026_07_06_17_22_14.094,3.872,34.7,0,0.762,0,0,0,0, ,0,0,0,0,0, ,-762.3,-189.5,745.8,-36.6,-35.4,42.9,25,-798.967,-153.759,390.928,-10.3133,-58.4898,1.5418,
2026_07_06_17_22_14.103,3.872,34.8,0,0.763,0,0,0,0, ,0,0,0,0,0, ,-742.5,-185.6,657.3,-30.1,-27,28.3,25,-796.129,-155.818,409.857,-11.7171,-56.8268,3.61722,
2026_07_06_17_22_14.132,3.872,34.8,0,0.763,0,0,0,0, ,0,0,0,0,0, ,-722,-171.9,615.1,-23.7,-11.3,16.9,25,-792.236,-157.216,423.65,-12.6423,-54.5309,4.77398,
2026_07_06_17_22_14.144,3.872,34.8,0,0.762,0,0,0,0, ,0,0,0,0,0, ,-716,-101.3,736.6,-32.7,2.6,12,25,-787.774,-155.96,439.018,-13.5903,-51.473,5.36362,
2026_07_06_17_22_14.173,3.872,34.7,0,0.762,0,0,0,0, ,0,0,0,0,0, ,-756.7,-181,729.1,-33.3,-12.7,22.4,25,-784.64,-155.057,456.924,-14.7731,-48.6441,6.0849,
2026_07_06_17_22_14.183,3.872,34.7,0,0.763,0,0,0,0, ,0,0,0,0,0, ,-710.4,-194.2,659.1,-12.5,-30.6,12.6,25,-781.527,-157.04,471.377,-15.2683,-46.9991,6.7805,
2026_07_06_17_22_14.213,3.872,34.8,0,0.762,0,0,0,0, ,0,0,0,0,0, ,-690,-169.3,645.9,0.9,-27.9,1.4,25,-776.571,-158.546,482.414,-14.6914,-45.9176,6.79388,
2026_07_06_17_22_14.223,3.872,34.7,0,0.763,0,0,0,0, ,0,0,0,0,0, ,-719.8,-122.3,725.3,12.4,-18.4,-0.4,25,-772.203,-157.769,494.795,-13.3909,-44.5302,6.41035,
2026_07_06_17_22_14.251,3.872,34.7,0,0.763,0,0,0,0, ,0,0,0,0,0, ,-711,-139.2,683.8,20.8,-17.4,10.3,25,-768.742,-156.123,507.577,-11.5633,-42.9074,6.32136,
2026_07_06_17_22_14.261,3.872,34.8,0,0.763,0,0,0,0, ,0,0,0,0,0, ,-695.6,-151.8,751.9,5.8,-32.1,7.5,25,-764.754,-155.475,520.391,-10.0482,-41.8009,6.47849,
2026_07_06_17_22_14.291,3.872,34.7,0,0.762,0,0,0,0, ,0,0,0,0,0, ,-659.4,-67.9,721.1,-8.9,-53.2,8.1,25,-759.437,-152.695,533.56,-9.53035,-41.8527,6.55902,
2026_07_06_17_22_14.301,3.872,34.7,0,0.762,0,0,0,0, ,0,0,0,0,0, ,-711.6,-115.8,776.2,-74,-85.1,44,25,-754.932,-148.987,546.667,-11.4754,-43.5161,7.74675,
2026_07_06_17_22_14.331,3.872,34.7,0,0.762,0,0,0,0, ,0,0,0,0,0, ,-702.6,-344.1,691.2,-79.3,-56.7,17.1,25,-752.017,-153.921,558.064,-15.447,-45.1848,9.13633,
2026_07_06_17_22_14.342,3.872,34.8,0,0.763,0,0,0,0, ,0,0,0,0,0, ,-614.9,-168.5,750.2,-51.3,-33.8,11.4,25,-746.333,-160.16,567.975,-18.4849,-45.1888,9.44794,
2026_07_06_17_22_14.372,3.872,34.7,0,0.763,0,0,0,0, ,0,0,0,0,0, ,-608.1,-140.7,809.6,-58.1,-42.1,13.2,25,-738.117,-159.821,580.889,-20.6918,-44.7477,9.62174,
2026_07_06_17_22_14.384,3.872,34.8,0,0.762,0,0,0,0, ,0,0,0,0,0, ,-407.2,-100.8,871.7,-72.8,-68.6,10.4,25,-724.073,-157.44,596.718,-23.4192,-45.3937,9.75448,
2026_07_06_17_22_14.413,3.872,34.8,0,0.762,0,0,0,0, ,0,0,0,0,0, ,-603.1,-335.3,736.6,-102.7,-82.6,-8.9,25,-710.732,-161.133,609.359,-27.3394,-47.2344,9.20577,
2026_07_06_17_22_14.421,3.872,34.6,0,0.763,0,0,0,0, ,0,0,0,0,0, ,-647.2,-321.7,706.1,-60.8,-36.9,-49.2,25,-705.517,-171.332,616.183,-30.655,-47.9971,6.87455,
2026_07_06_17_22_14.450,3.872,34.8,0,0.763,0,0,0,0, ,0,0,0,0,0, ,-593,-338.3,803.8,-24.9,3.7,-42.6,25,-700.312,-181.001,624.639,-31.3982,-46.0838,3.65861,
2026_07_06_17_22_14.460,3.872,34.8,0,0.762,0,0,0,0, ,0,0,0,0,0, ,-532.9,-263.7,862.9,-7,28.1,-19.8,25,-691.941,-188.314,637.358,-30.4568,-42.3067,1.53441,
2026_07_06_17_22_14.490,3.872,34.7,0,0.762,0,0,0,0, ,0,0,0,0,0, ,-558.7,-240.1,719.7,18.2,30.9,5,25,-683.036,-192.188,646.738,-28.2596,-37.931,0.989969,
2026_07_06_17_22_14.499,3.872,34.7,0,0.762,0,0,0,0, ,0,0,0,0,0, ,-566.6,-223.8,677.6,9.6,-23.4,-1.7,25,-675.7,-194.611,649.902,-25.6905,-35.391,1.03019,
2026_07_06_17_22_14.529,3.872,34.7,0,0.762,0,0,0,0, ,0,0,0,0,0, ,-526.3,-166.2,908.3,6,-54.3,6.5,25,-667.824,-194.635,658.619,-23.6497,-35.6018,1.11366,
2026_07_06_17_22_14.539,3.872,34.7,0,0.762,0,0,0,0, ,0,0,0,0,0, ,-619.5,-110.1,1008.5,-55,-100.8,30.8,25,-662.039,-191.193,676.887,-23.7015,-38.158,2.18228,
2026_07_06_17_22_14.569,3.872,34.8,0,0.762,0,0,0,0, ,0,0,0,0,0, ,-573.7,-370.4,597.9,-60.8,-107.6,32.2,25,-658.052,-194.182,684.584,-25.7855,-42.1825,3.96883,
2026_07_06_17_22_14.580,3.872,34.8,0,0.762,0,0,0,0, ,0,0,0,0,0, ,-466.5,-88.1,895.1,-51.6,-68,10.9,25,-649.645,-196.319,688.357,-27.6388,-44.9623,5.04018,
2026_07_06_17_22_14.611,3.872,34.7,0,0.762,0,0,0,0, ,0,0,0,0,0, ,-515.6,-346.4,893.4,-90.5,-95,22.1,25,-639.981,-197.595,700.904,-30.2842,-47.1888,5.73852,
2026_07_06_17_22_14.619,3.872,34.8,0,0.763,0,0,0,0, ,0,0,0,0,0, ,-579.4,-374,925.2,-78.6,-142.4,24.1,25,-634.345,-207.504,713.603,-33.591,-51.5465,6.79648,
2026_07_06_17_22_14.649,3.872,34.7,0,0.762,0,0,0,0, ,0,0,0,0,0, ,-418.8,-328.2,759.3,-73.5,-130.5,-0.8,25,-626.104,-216.254,721.442,-36.1784,-56.7203,7.09224,
2026_07_06_17_22_14.659,3.872,34.7,0,0.762,0,0,0,0, ,0,0,0,0,0, ,-422.4,-512.5,654.9,-56.5,-64.7,-7.5,25,-613.581,-228.691,720.568,-37.9347,-59.2114,6.40717,
2026_07_06_17_22_14.688,3.872,34.8,0,0.762,0,0,0,0, ,0,0,0,0,0, ,-370.7,-437.5,805.2,-25.3,-35.1,4.7,25,-600.356,-243.701,721.146,-38.1154,-58.644,5.93142,
2026_07_06_17_22_14.698,3.872,34.8,0,0.762,0,0,0,0, ,0,0,0,0,0, ,-324.3,-328.7,860.8,-27.5,-15.3,17.9,25,-584.947,-252.195,727.962,-37.4015,-56.606,6.25857,
2026_07_06_17_22_14.729,3.872,34.8,0,0.762,0,0,0,0, ,0,0,0,0,0, ,-344.4,-385.7,806.2,-41.8,-43.3,34.3,25,-569.676,-258.594,734.393,-37.2338,-54.9421,7.46765,
2026_07_06_17_22_14.737,3.872,34.7,0,0.763,0,0,0,0, ,0,0,0,0,0, ,-320.4,-414.1,851.9,-31,-36.1,25.6,25,-555.217,-267.205,740.161,-37.183,-54.0132,8.83767,
2026_07_06_17_22_14.766,3.872,34.7,0,0.762,0,0,0,0, ,0,0,0,0,0, ,-332.7,-372.4,869,-31.2,-35.5,24.7,25,-541.283,-274.886,747.492,-36.8123,-52.9034,9.8317,
2026_07_06_17_22_14.776,3.872,34.7,0,0.763,0,0,0,0, ,0,0,0,0,0, ,-359.6,-400,854,-40.1,-48.4,35,25,-529.392,-281.669,754.439,-36.7415,-52.2359,11.0516,
2026_07_06_17_22_14.807,3.872,34.7,0,0.763,0,0,0,0, ,0,0,0,0,0, ,-342.2,-463.1,776.7,-31.6,-47.6,25.2,25,-518.515,-290.802,758.151,-36.6872,-51.9778,12.2123,
2026_07_06_17_22_14.817,3.872,34.7,0,0.762,0,0,0,0, ,0,0,0,0,0, ,-282.3,-435,786.1,-10.2,-17.1,3.8,25,-505.946,-300.445,759.567,-35.7251,-50.7817,12.3517,
2026_07_06_17_22_14.847,3.872,34.8,0,0.762,0,0,0,0, ,0,0,0,0,0, ,-307.3,-347.2,831.2,-12.6,-12.2,10.6,25,-493.079,-305.97,762.558,-34.2428,-48.5799,12.0378,
2026_07_06_17_22_14.856,3.872,34.8,0,0.762,0,0,0,0, ,0,0,0,0,0, ,-302.2,-407.4,803.3,-19,-20.3,29.7,25,-481.603,-310.316,765.891,-33.119,-46.6098,12.5321,
2026_07_06_17_22_14.885,3.872,34.8,0,0.762,0,0,0,0, ,0,0,0,0,0, ,-306.7,-460.8,827.2,-8.6,-18.5,24.2,25,-470.808,-317.859,768.899,-31.9417,-44.9517,13.4107,
2026_07_06_17_22_14.896,3.872,34.7,0,0.761,0,0,0,0, ,0,0,0,0,0, ,-284.5,-435,860.3,-2.4,-12.9,14.5,25,-460.131,-325.784,773.46,-30.3304,-43.1692,13.7727,
2026_07_06_17_22_14.926,3.872,34.7,0,0.763,0,0,0,0, ,0,0,0,0,0, ,-316.6,-438.9,877.5,0.5,-7.9,8.9,25,-450.406,-332.558,779.276,-28.5401,-41.1723,13.6464,
2026_07_06_17_22_14.936,3.872,34.7,0,0.762,0,0,0,0, ,0,0,0,0,0, ,-330,-433.7,893.9,-1.2,-8.3,6.1,25,-442.661,-338.88,785.761,-26.8222,-39.157,13.2718,
2026_07_06_17_22_14.966,3.872,34.8,0,0.762,0,0,0,0, ,0,0,0,0,0, ,-349.7,-424.6,866.2,-1.4,-14.4,-2.4,25,-436.396,-344.381,791.507,-25.267,-37.4625,12.5758,
2026_07_06_17_22_14.976,3.872,34.7,0,0.762,0,0,0,0, ,0,0,0,0,0, ,-306.5,-398.8,871.3,-1.9,-22.3,-6.7,25,-429.797,-348.483,796.214,-23.8278,-36.2978,11.5322,
2026_07_06_17_22_15.004,3.872,34.8,0,0.762,0,0,0,0, ,0,0,0,0,0, ,-281,-460.8,917.6,-0.6,-19.6,-3.8,25,-421.506,-353.438,802.2,-22.452,-35.3626,10.5095,
2026_07_06_17_22_15.016,3.872,34.7,0,0.763,0,0,0,0, ,0,0,0,0,0, ,-299.5,-447.9,900.5,0.6,-7.9,-4.1,25,-413.508,-359.587,808.711,-21.0838,-34.0456,9.6284,
2026_07_06_17_22_15.049,3.872,34.7,0,0.763,0,0,0,0, ,0,0,0,0,0, ,-291.6,-421.3,882.3,-0.7,-3.3,-1.7,25,-406.32,-364.159,813.75,-19.8021,-32.3122,8.86495,
2026_07_06_17_22_15.055,3.872,34.7,0,0.763,0,0,0,0, ,0,0,0,0,0, ,-270.6,-447.6,885.7,-0.9,-0.1,4.4,25,-398.689,-368.442,818.031,-18.6441,-30.4467,8.40701,
2026_07_06_17_22_15.085,3.872,34.7,0,0.763,0,0,0,0, ,0,0,0,0,0, ,-287.8,-440.4,865.2,-1.9,2.9,3.8,25,-391.408,-373.046,821.53,-17.5933,-28.5061,8.14455,
2026_07_06_17_22_15.095,3.872,34.8,0,0.762,0,0,0,0, ,0,0,0,0,0, ,-295.2,-419.9,854.8,-5.1,-3.1,1.6,25,-385.32,-376.526,823.874,-16.7345,-26.7751,7.81277,
2026_07_06_17_22_15.124,3.872,34.8,0,0.763,0,0,0,0, ,0,0,0,0,0, ,-267.7,-444.3,886.4,-3.4,-4.1,0.6,25,-378.99,-379.913,826.722,-15.9737,-25.3628,7.40371,
2026_07_06_17_22_15.134,3.872,34.8,0,0.763,0,0,0,0, ,0,0,0,0,0, ,-282.9,-428.2,861.6,-0.7,-0.7,-2.3,25,-372.672,-383.346,829.603,-15.1252,-23.9635,6.90075,
2026_07_06_17_22_15.164,3.872,34.8,0,0.763,0,0,0,0, ,0,0,0,0,0, ,-290.4,-421.7,853.8,-0.8,0,-0.3,25,-367.43,-385.881,831.315,-14.2493,-22.5246,6.40102,
2026_07_06_17_22_15.173,3.872,34.7,0,0.762,0,0,0,0, ,0,0,0,0,0, ,-292.4,-418.7,851,0.2,2.2,2.1,25,-362.797,-387.972,832.6,-13.3992,-21.085,6.0658,
2026_07_06_17_22_15.204,3.872,34.6,0,0.762,0,0,0,0, ,0,0,0,0,0, ,-281.6,-420.6,850.4,2.7,4.3,5.2,25,-358.178,-389.903,833.703,-12.4943,-19.6021,5.91859,
2026_07_06_17_22_15.213,3.872,34.7,0,0.762,0,0,0,0, ,0,0,0,0,0, ,-291.8,-409.7,828.1,-1.1,-0.7,3.3,25,-353.822,-391.441,834.041,-11.6842,-18.2979,5.81691,
2026_07_06_17_22_15.245,3.872,34.8,0,0.763,0,0,0,0, ,0,0,0,0,0, ,-299.3,-413.9,860.9,-0.8,-5.8,1.8,25,-350.271,-392.682,834.678,-11.0301,-17.3809,5.61783,
2026_07_06_17_22_15.251,3.872,34.7,0,0.762,0,0,0,0, ,0,0,0,0,0, ,-325.6,-429.1,860.4,0,-2.2,0.5,25,-347.966,-394.438,836.261,-10.3823,-16.5655,5.34557,
2026_07_06_17_22_15.282,3.872,34.6,0,0.762,0,0,0,0, ,0,0,0,0,0, ,-307.4,-412.8,864.7,0.6,0.9,-0.5,25,-346.049,-396.053,837.863,-9.73138,-15.5956,5.01983,
2026_07_06_17_22_15.292,3.872,34.7,0,0.762,0,0,0,0, ,0,0,0,0,0, ,-292.9,-428.1,878.9,0,-3.4,-1.3,25,-343.252,-397.54,839.931,-9.12009,-14.7215,4.65909,
2026_07_06_17_22_15.320,3.872,34.8,0,0.763,0,0,0,0, ,0,0,0,0,0, ,-300.6,-433.2,875,0.7,-5,-2.6,25,-340.418,-399.558,842.187,-8.54301,-14.0803,4.25635,
2026_07_06_17_22_15.330,3.872,34.6,0,0.762,0,0,0,0, ,0,0,0,0,0, ,-301.8,-418.5,861.3,0.9,-2.4,-1.7,25,-338.028,-401.16,843.769,-7.97367,-13.4478,3.86596,
2026_07_06_17_22_15.363,3.872,34.8,0,0.762,0,0,0,0, ,0,0,0,0,0, ,-292.4,-422.6,864.5,-0.9,-0.7,-0.4,25,-335.534,-402.341,844.935,-7.48777,-12.7227,3.56639,
2026_07_06_17_22_15.370,3.872,34.8,0,0.762,0,0,0,0, ,0,0,0,0,0, ,-286.2,-436.6,876.5,-0.7,-1.3,-0.7,25,-332.717,-404.003,846.493,-7.08024,-12.0084,3.31555,
2026_07_06_17_22_15.402,3.872,34.7,0,0.763,0,0,0,0, ,0,0,0,0,0, ,-301.6,-417.9,853.2,-2.1,-1.1,-0.7,25,-330.351,-405.419,847.611,-6.7341,-11.3497,3.07085,
2026_07_06_17_22_15.410,3.872,34.7,0,0.763,0,0,0,0, ,0,0,0,0,0, ,-298.4,-418.2,855.8,-1.1,-2.2,-0.3,25,-328.502,-406.189,848.031,-6.42124,-10.7587,2.85325,
2026_07_06_17_22_15.441,3.872,34.8,0,0.761,0,0,0,0, ,0,0,0,0,0, ,-301.2,-417.2,855.1,-0.9,-1.5,-0.3,25,-326.753,-406.89,848.483,-6.09088,-10.2158,2.6611,
2026_07_06_17_22_15.450,3.872,34.6,0,0.763,0,0,0,0, ,0,0,0,0,0, ,-288,-416.5,860.5,-0.4,0.7,-1.3,25,-324.794,-407.497,849.051,-5.75933,-9.61765,2.45019,
2026_07_06_17_22_15.481,3.872,34.6,0,0.762,0,0,0,0, ,0,0,0,0,0, ,-285.2,-422.7,867.1,-1.9,0,-0.3,25,-322.466,-408.235,849.95,-5.47845,-9.01024,2.25213,
2026_07_06_17_22_15.490,3.872,34.7,0,0.761,0,0,0,0, ,0,0,0,0,0, ,-298.4,-412.9,855.3,-0.8,-4.1,-2,25,-320.597,-408.818,850.635,-5.22687,-8.5861,2.04482,
2026_07_06_17_22_15.520,3.872,34.7,0,0.762,0,0,0,0, ,0,0,0,0,0, ,-291.2,-398.5,840.8,0.8,-2,-1.2,25,-319.025,-408.628,850.478,-4.90836,-8.24875,1.82271,
2026_07_06_17_22_15.529,3.872,34.7,0,0.763,0,0,0,0, ,0,0,0,0,0, ,-289.9,-413.9,850.4,1.6,2.2,0.3,25,-317.29,-408.48,850.18,-4.53613,-7.73999,1.68422,
2026_07_06_17_22_15.562,3.872,34.7,0,0.762,0,0,0,0, ,0,0,0,0,0, ,-289.4,-423.7,869.3,3.9,3.2,-0.9,25,-315.606,-409.109,850.77,-4.09213,-7.10381,1.5633,
