UTC_Time,Vin,TC1,TC2,Rh1,Vh1,Ah1,Acp1,Dty1,Err1,Rh2,Vh2,Ah2,Acp2,Dty2,Err2,Accel_x,Accel_y,Accel_z,gyro_x,gyro_y,gyro_z,Temp_c,Accel_x_h,Accel_y_h,Accel_z_h,gyro_x_h,gyro_y_h,gyro_z_h,
2026_07_06_18_46_14.770,3.87,31.7,0,0.759,0,0,0,0, ,0,0,0,0,0, ,-40.4,419,907.7,-0.4,-0.4,-1.7,25,-40.4,419,907.7,-0.4,-0.4,-1.7,
2026_07_06_18_46_14.789,3.87,31.8,0,0.76,0,0,0,0, ,0,0,0,0,0, ,-39.6,418.4,907.1,-0.2,-0.5,-1.7,25,-40.3756,418.982,907.682,-0.393906,-0.403047,-1.7,
2026_07_06_18_46_14.809,3.87,31.8,0,0.759,0,0,0,0, ,0,0,0,0,0, ,-40.1,418.7,907.5,-0.3,-0.4,-1.7,25,-40.3436,418.955,907.658,-0.385137,-0.405908,-1.7,
2026_07_06_18_46_14.829,3.87,31.7,0,0.759,0,0,0,0, ,0,0,0,0,0, ,-39.6,416.7,908.5,-0.3,-0.5,-1.6,25,-40.3135,418.879,907.679,-0.379949,-0.408595,-1.69695,
2026_07_06_18_46_14.848,3.87,31.8,0,0.758,0,0,0,0, ,0,0,0,0,0, ,-39.9,417.3,908.2,-0.4,-0.5,-1.7,25,-40.2792,418.764,907.72,-0.378124,-0.414165,-1.69409,
2026_07_06_18_46_14.868,3.87,31.8,0,0.76,0,0,0,0, ,0,0,0,0,0, ,-40.7,416.2,908,-0.4,-0.5,-1.6,25,-40.2804,418.642,907.743,-0.379457,-0.419396,-1.69141,
2026_07_06_18_46_14.888,3.87,31.8,0,0.759,0,0,0,0, ,0,0,0,0,0, ,-40.6,417.7,908.9,-0.5,-0.5,-1.7,25,-40.303,418.539,907.786,-0.383756,-0.424307,-1.68888,
2026_07_06_18_46_14.908,3.87,31.7,0,0.759,0,0,0,0, ,0,0,0,0,0, ,-39.7,420.5,908.5,-0.3,-0.5,-1.6,25,-40.2936,418.573,907.842,-0.384746,-0.42892,-1.68651,
2026_07_06_18_46_14.928,3.87,31.8,0,0.759,0,0,0,0, ,0,0,0,0,0, ,-40.6,419.9,909.4,-0.2,-0.5,-1.7,25,-40.2849,418.672,907.91,-0.376535,-0.433251,-1.68429,
2026_07_06_18_46_14.947,3.87,31.7,0,0.759,0,0,0,0, ,0,0,0,0,0, ,-39.5,417.3,907.9,0,-0.5,-1.7,25,-40.2706,418.668,907.955,-0.359683,-0.437319,-1.68525,
2026_07_06_18_46_14.968,3.87,31.8,0,0.76,0,0,0,0, ,0,0,0,0,0, ,-39,416.2,908.2,-0.3,-0.5,-1.7,25,-40.2084,418.551,907.96,-0.346906,-0.441138,-1.68614,
2026_07_06_18_46_14.987,3.87,31.8,0,0.76,0,0,0,0, ,0,0,0,0,0, ,-39.7,416.5,908.4,-0.6,-0.4,-1.8,25,-40.1561,418.417,907.981,-0.353188,-0.441678,-1.69004,
2026_07_06_18_46_15.007,3.87,31.8,0,0.759,0,0,0,0, ,0,0,0,0,0, ,-39.9,419,908.3,-0.6,-0.4,-1.7,25,-40.1344,418.376,908.004,-0.368228,-0.439139,-1.69369,
2026_07_06_18_46_15.026,3.87,31.8,0,0.759,0,0,0,0, ,0,0,0,0,0, ,-41.1,420.1,906.9,-0.3,-0.4,-1.8,25,-40.1567,418.448,907.979,-0.373211,-0.436754,-1.69712,
2026_07_06_18_46_15.046,3.87,31.7,0,0.76,0,0,0,0, ,0,0,0,0,0, ,-38.6,419.5,908,-0.2,-0.4,-1.7,25,-40.138,418.53,907.947,-0.365703,-0.434514,-1.70034,
2026_07_06_18_46_15.066,3.87,31.8,0,0.759,0,0,0,0, ,0,0,0,0,0, ,-39.4,418.4,909,-0.1,-0.5,-1.7,25,-40.0686,418.556,907.981,-0.352558,-0.435458,-1.70032,
2026_07_06_18_46_15.086,3.87,31.7,0,0.759,0,0,0,0, ,0,0,0,0,0, ,-39.1,417.8,909.5,-0.3,-0.6,-1.7,25,-40.0187,418.528,908.058,-0.343262,-0.442438,-1.7003,
2026_07_06_18_46_15.105,3.87,31.7,0,0.759,0,0,0,0, ,0,0,0,0,0, ,-39,417.2,907.4,-0.5,-0.4,-1.7,25,-39.9597,418.465,908.082,-0.346719,-0.445945,-1.70028,
2026_07_06_18_46_15.126,3.87,31.7,0,0.76,0,0,0,0, ,0,0,0,0,0, ,-39,419.7,908.6,-0.5,-0.4,-1.7,25,-39.9012,418.464,908.077,-0.35606,-0.443146,-1.70027,
2026_07_06_18_46_15.145,3.87,31.7,0,0.759,0,0,0,0, ,0,0,0,0,0, ,-39.6,419,908.3,-0.5,-0.5,-1.6,25,-39.8646,418.518,908.1,-0.364831,-0.443563,-1.6972,
2026_07_06_18_46_15.165,3.87,31.8,0,0.759,0,0,0,0, ,0,0,0,0,0, ,-40.5,418.5,906.8,-0.3,-0.5,-1.6,25,-39.8759,418.532,908.066,-0.366974,-0.447002,-1.69128,
2026_07_06_18_46_15.185,3.87,31.8,0,0.759,0,0,0,0, ,0,0,0,0,0, ,-39.5,417.3,907.4,-0.2,-0.5,-1.6,25,-39.8835,418.494,908.007,-0.359846,-0.450232,-1.68572,
2026_07_06_18_46_15.205,3.87,31.7,0,0.759,0,0,0,0, ,0,0,0,0,0, ,-38.6,416.2,908.2,-0.2,-0.5,-1.7,25,-39.8327,418.388,907.995,-0.350106,-0.453265,-1.68354,
2026_07_06_18_46_15.224,3.87,31.7,0,0.759,0,0,0,0, ,0,0,0,0,0, ,-40.2,415.6,910,-0.4,-0.5,-1.7,25,-39.8063,418.236,908.062,-0.347052,-0.456113,-1.68454,
2026_07_06_18_46_15.246,3.87,31.8,0,0.758,0,0,0,0, ,0,0,0,0,0, ,-39.6,419.6,907.9,-0.6,-0.5,-1.6,25,-39.812,418.197,908.116,-0.356373,-0.458787,-1.68244,
2026_07_06_18_46_15.264,3.87,31.8,0,0.759,0,0,0,0, ,0,0,0,0,0, ,-39.1,419.3,908.4,-0.3,-0.5,-1.7,25,-39.7839,418.274,908.118,-0.362078,-0.461298,-1.68046,
2026_07_06_18_46_15.284,3.87,31.8,0,0.758,0,0,0,0, ,0,0,0,0,0, ,-40.1,417.4,907.5,-0.3,-0.5,-1.7,25,-39.7727,418.278,908.108,-0.358295,-0.463657,-1.68165,
2026_07_06_18_46_15.304,3.87,31.7,0,0.759,0,0,0,0, ,0,0,0,0,0, ,-40.1,416.1,909.3,-0.5,-0.5,-1.6,25,-39.7926,418.185,908.126,-0.360837,-0.465871,-1.67972,
2026_07_06_18_46_15.323,3.87,31.8,0,0.759,0,0,0,0, ,0,0,0,0,0, ,-39.5,417.8,908.3,-0.6,-0.5,-1.7,25,-39.793,418.11,908.167,-0.372364,-0.467951,-1.67791,
2026_07_06_18_46_15.343,3.87,31.8,0,0.759,0,0,0,0, ,0,0,0,0,0, ,-39.6,419.6,908.8,-0.3,-0.5,-1.7,25,-39.7782,418.146,908.19,-0.377095,-0.469904,-1.67926,
2026_07_06_18_46_15.363,3.87,31.8,0,0.759,0,0,0,0, ,0,0,0,0,0, ,-40.2,419.1,907.5,-0.1,-0.5,-1.6,25,-39.7857,418.219,908.188,-0.366303,-0.471738,-1.67748,
2026_07_06_18_46_15.383,3.87,31.7,0,0.759,0,0,0,0, ,0,0,0,0,0, ,-40.8,418.7,908.2,0,-0.5,-1.6,25,-39.8292,418.261,908.167,-0.347028,-0.47346,-1.67275,
2026_07_06_18_46_15.403,3.87,31.7,0,0.759,0,0,0,0, ,0,0,0,0,0, ,-38.8,418.2,907.5,-0.4,-0.5,-1.7,25,-39.8274,418.272,908.148,-0.338069,-0.475078,-1.67137,
2026_07_06_18_46_15.422,3.87,31.8,0,0.758,0,0,0,0, ,0,0,0,0,0, ,-39.5,417.6,907.9,-0.5,-0.5,-1.6,25,-39.7861,418.25,908.12,-0.34489,-0.476596,-1.67007,
2026_07_06_18_46_15.442,3.87,31.7,0,0.76,0,0,0,0, ,0,0,0,0,0, ,-38.5,416.9,908.5,-0.6,-0.4,-1.7,25,-39.7382,418.189,908.125,-0.357388,-0.474976,-1.66884,
2026_07_06_18_46_15.461,3.87,31.7,0,0.76,0,0,0,0, ,0,0,0,0,0, ,-40.1,418.9,908.2,-0.5,-0.4,-1.6,25,-39.7115,418.171,908.139,-0.369126,-0.470407,-1.6677,
2026_07_06_18_46_15.482,3.87,31.7,0,0.759,0,0,0,0, ,0,0,0,0,0, ,-40.6,419.3,908.4,-0.1,-0.5,-1.7,25,-39.7504,418.228,908.149,-0.364913,-0.469163,-1.66662,
2026_07_06_18_46_15.501,3.87,31.8,0,0.758,0,0,0,0, ,0,0,0,0,0, ,-40.4,419.1,907.4,-0.1,-0.5,-1.7,25,-39.7961,418.287,908.134,-0.34877,-0.471042,-1.66865,
2026_07_06_18_46_15.521,3.87,31.7,0,0.76,0,0,0,0, ,0,0,0,0,0, ,-40.2,417.6,908.9,-0.2,-0.5,-1.7,25,-39.8268,418.291,908.135,-0.336658,-0.472807,-1.67056,
2026_07_06_18_46_15.543,3.87,31.7,0,0.76,0,0,0,0, ,0,0,0,0,0, ,-39.4,417.6,909.1,-0.4,-0.5,-1.7,25,-39.8252,418.249,908.187,-0.334424,-0.474464,-1.67236,
2026_07_06_18_46_15.560,3.87,31.8,0,0.76,0,0,0,0, ,0,0,0,0,0, ,-39.4,417.4,908.6,-0.6,-0.5,-1.7,25,-39.7993,418.203,908.228,-0.344514,-0.47602,-1.67404,
2026_07_06_18_46_15.581,3.87,31.7,0,0.759,0,0,0,0, ,0,0,0,0,0, ,-40.6,418.5,907.5,-0.6,-0.5,-1.7,25,-39.8115,418.188,908.217,-0.360082,-0.477481,-1.67562,
2026_07_06_18_46_15.600,3.87,31.7,0,0.759,0,0,0,0, ,0,0,0,0,0, ,-39.7,420.1,907.5,-0.3,-0.5,-1.7,25,-39.8321,418.255,908.173,-0.365562,-0.478854,-1.67711,
2026_07_06_18_46_15.619,3.87,31.8,0,0.759,0,0,0,0, ,0,0,0,0,0, ,-40.1,418,907.8,-0.1,-0.5,-1.6,25,-39.8363,418.304,908.141,-0.355473,-0.480142,-1.67546,
2026_07_06_18_46_15.640,3.87,31.8,0,0.761,0,0,0,0, ,0,0,0,0,0, ,-40.7,416.3,908.3,-0.1,-0.4,-1.6,25,-39.8706,418.233,908.136,-0.339905,-0.478305,-1.67086,
2026_07_06_18_46_15.659,3.87,31.7,0,0.76,0,0,0,0, ,0,0,0,0,0, ,-39.6,416.8,906.8,-0.4,-0.4,-1.6,25,-39.8876,418.131,908.1,-0.334426,-0.473534,-1.66654,
2026_07_06_18_46_15.679,3.87,31.7,0,0.76,0,0,0,0, ,0,0,0,0,0, ,-40.2,419,910.7,-0.6,-0.5,-1.7,25,-39.8884,418.117,908.14,-0.344516,-0.4721,-1.66553,
2026_07_06_18_46_15.699,3.87,31.7,0,0.761,0,0,0,0, ,0,0,0,0,0, ,-39.7,418.9,907.4,-0.4,-0.5,-1.7,25,-39.8921,418.168,908.195,-0.353991,-0.4738,-1.66763,
2026_07_06_18_46_15.719,3.87,31.8,0,0.761,0,0,0,0, ,0,0,0,0,0, ,-40,419.5,908.5,-0.3,-0.6,-1.7,25,-39.8896,418.231,908.18,-0.353748,-0.478443,-1.6696,
2026_07_06_18_46_15.739,3.87,31.7,0,0.758,0,0,0,0, ,0,0,0,0,0, ,-39.3,418.5,907.7,-0.1,-0.4,-1.8,25,-39.875,418.277,908.175,-0.344379,-0.479757,-1.6745,
2026_07_06_18_46_15.760,3.87,31.7,0,0.76,0,0,0,0, ,0,0,0,0,0, ,-39.1,417.4,909.1,-0.1,-0.4,-1.6,25,-39.8338,418.257,908.189,-0.329487,-0.474897,-1.67606,
2026_07_06_18_46_15.806,3.87,31.8,0,0.76,0,0,0,0, ,0,0,0,0,0, ,-39.3,416.8,909.5,-0.3,-0.5,-1.7,25,-39.7952,418.187,908.257,-0.321596,-0.47338,-1.67447,
2026_07_06_18_46_15.833,3.87,31.8,0,0.76,0,0,0,0, ,0,0,0,0,0, ,-40.4,417.9,908.8,-0.5,-0.5,-1.6,25,-39.7986,418.136,908.311,-0.326374,-0.475002,-1.67298,
2026_07_06_18_46_15.833,3.87,31.7,0,0.758,0,0,0,0, ,0,0,0,0,0, ,-40.1,416.9,909.7,-0.5,-0.5,-1.7,25,-39.8261,418.091,908.368,-0.336954,-0.476525,-1.67158,
2026_07_06_18_46_15.844,3.87,31.8,0,0.758,0,0,0,0, ,0,0,0,0,0, ,-38.9,419.6,908.5,-0.4,-0.5,-1.6,25,-39.8062,418.101,908.413,-0.343843,-0.477956,-1.67026,
2026_07_06_18_46_15.857,3.87,31.8,0,0.758,0,0,0,0, ,0,0,0,0,0, ,-40.4,418.8,907.9,-0.2,-0.4,-1.6,25,-39.7967,418.168,908.4,-0.341171,-0.476252,-1.66598,
2026_07_06_18_46_15.878,3.87,31.8,0,0.76,0,0,0,0, ,0,0,0,0,0, ,-39.9,419.3,908.6,-0.2,-0.5,-1.6,25,-39.8182,418.222,908.391,-0.332569,-0.474652,-1.66196,
2026_07_06_18_46_15.897,3.87,31.8,0,0.76,0,0,0,0, ,0,0,0,0,0, ,-40.4,417.3,906.8,-0.1,-0.5,-1.6,25,-39.8384,418.226,908.349,-0.321443,-0.476197,-1.65819,
2026_07_06_18_46_15.917,3.87,31.8,0,0.76,0,0,0,0, ,0,0,0,0,0, ,-39.7,417.7,908.4,-0.4,-0.5,-1.6,25,-39.8513,418.182,908.303,-0.31709,-0.477647,-1.65464,
2026_07_06_18_46_15.937,3.87,31.7,0,0.761,0,0,0,0, ,0,0,0,0,0, ,-39.3,419.6,908.2,-0.1,-0.5,-1.6,25,-39.8299,418.211,908.303,-0.313002,-0.47901,-1.65131,
2026_07_06_18_46_15.957,3.87,31.8,0,0.761,0,0,0,0, ,0,0,0,0,0, ,-40.5,418.4,909,-0.1,-0.5,-1.6,25,-39.8342,418.259,908.321,-0.300022,-0.480289,-1.64818,
2026_07_06_18_46_15.977,3.87,31.8,0,0.758,0,0,0,0, ,0,0,0,0,0, ,-39.6,417.8,908.6,-0.3,-0.5,-1.7,25,-39.8473,418.249,908.35,-0.293927,-0.48149,-1.64829,
2026_07_06_18_46_15.996,3.87,31.7,0,0.759,0,0,0,0, ,0,0,0,0,0, ,-40.2,416.8,907.4,-0.5,-0.4,-1.7,25,-39.8505,418.191,908.329,-0.300391,-0.479571,-1.65144,
2026_07_06_18_46_16.016,3.87,31.7,0,0.761,0,0,0,0, ,0,0,0,0,0, ,-38.8,417.8,907.8,-0.6,-0.5,-1.6,25,-39.8292,418.137,908.284,-0.315601,-0.477769,-1.65136,
2026_07_06_18_46_16.036,3.87,31.8,0,0.76,0,0,0,0, ,0,0,0,0,0, ,-39.9,421.3,907.1,-0.5,-0.5,-1.7,25,-39.8,418.223,908.234,-0.329885,-0.479124,-1.65127,
2026_07_06_18_46_16.057,3.87,31.7,0,0.76,0,0,0,0, ,0,0,0,0,0, ,-40,418.9,907.5,-0.3,-0.4,-1.7,25,-39.8091,418.337,908.177,-0.334157,-0.477349,-1.65424,
2026_07_06_18_46_16.079,3.87,31.7,0,0.761,0,0,0,0, ,0,0,0,0,0, ,-39.6,418,906.6,-0.1,-0.5,-1.7,25,-39.8086,418.344,908.108,-0.325982,-0.475682,-1.65703,
2026_07_06_18_46_16.096,3.87,31.7,0,0.761,0,0,0,0, ,0,0,0,0,0, ,-40.1,417.4,908.3,-0.1,-0.5,-1.6,25,-39.8111,418.305,908.068,-0.312211,-0.477164,-1.6566,
2026_07_06_18_46_16.115,3.87,31.8,0,0.761,0,0,0,0, ,0,0,0,0,0, ,-38.2,416.3,908.2,-0.4,-0.5,-1.6,25,-39.7708,418.216,908.079,-0.30842,-0.478556,-1.65315,
2026_07_06_18_46_16.135,3.87,31.7,0,0.76,0,0,0,0, ,0,0,0,0,0, ,-39.7,418,910.1,-0.5,-0.5,-1.7,25,-39.7208,418.151,908.144,-0.317048,-0.479862,-1.65296,
2026_07_06_18_46_16.155,3.87,31.8,0,0.761,0,0,0,0, ,0,0,0,0,0, ,-41.1,417.6,908.4,-0.5,-0.5,-1.7,25,-39.7622,418.13,908.212,-0.328197,-0.48109,-1.65583,
2026_07_06_18_46_16.174,3.87,31.7,0,0.76,0,0,0,0, ,0,0,0,0,0, ,-39.7,420,906.1,-0.4,-0.5,-1.7,25,-39.801,418.171,908.153,-0.335619,-0.482242,-1.65852,
2026_07_06_18_46_16.195,3.87,31.8,0,0.758,0,0,0,0, ,0,0,0,0,0, ,-40.8,419.5,907.9,-0.2,-0.5,-1.7,25,-39.8284,418.267,908.083,-0.333448,-0.483324,-1.66105,
2026_07_06_18_46_16.214,3.87,31.8,0,0.759,0,0,0,0, ,0,0,0,0,0, ,-38.8,417.7,907.8,-0.2,-0.5,-1.7,25,-39.8267,418.287,908.069,-0.325316,-0.48434,-1.66342,
2026_07_06_18_46_16.240,3.87,31.7,0,0.76,0,0,0,0, ,0,0,0,0,0, ,-40.1,416.6,907.9,-0.2,-0.4,-1.7,25,-39.8037,418.218,908.055,-0.31768,-0.482248,-1.66565,
2026_07_06_18_46_16.253,3.87,31.7,0,0.757,0,0,0,0, ,0,0,0,0,0, ,-40.4,417.3,907.8,-0.5,-0.4,-1.7,25,-39.8309,418.141,908.043,-0.319649,-0.477236,-1.66774,
2026_07_06_18_46_16.273,3.87,31.7,0,0.759,0,0,0,0, ,0,0,0,0,0, ,-40.2,417.1,907.9,-0.6,-0.5,-1.7,25,-39.8595,418.083,908.031,-0.333686,-0.475576,-1.66971,
2026_07_06_18_46_16.294,3.87,31.8,0,0.761,0,0,0,0, ,0,0,0,0,0, ,-39.6,419,906.8,-0.4,-0.5,-1.7,25,-39.862,418.081,907.99,-0.343821,-0.477064,-1.67155,
2026_07_06_18_46_16.313,3.87,31.8,0,0.76,0,0,0,0, ,0,0,0,0,0, ,-40.4,419,909.3,-0.2,-0.5,-1.6,25,-39.8704,418.137,907.993,-0.341151,-0.478462,-1.67024,
2026_07_06_18_46_16.333,3.87,31.8,0,0.761,0,0,0,0, ,0,0,0,0,0, ,-39.9,418.9,908.5,0,-0.5,-1.7,25,-39.8874,418.187,908.048,-0.326456,-0.479774,-1.66901,
2026_07_06_18_46_16.352,3.87,31.8,0,0.762,0,0,0,0, ,0,0,0,0,0, ,-40.6,416.5,908,-0.3,-0.5,-1.6,25,-39.9095,418.157,908.061,-0.315703,-0.481007,-1.66785,
2026_07_06_18_46_16.371,3.87,31.7,0,0.759,0,0,0,0, ,0,0,0,0,0, ,-40.5,417.4,908.2,-0.5,-0.4,-1.6,25,-39.9485,418.084,908.063,-0.32084,-0.479117,-1.66372,
2026_07_06_18_46_16.392,3.87,31.8,0,0.76,0,0,0,0, ,0,0,0,0,0, ,-40.8,419.3,907.4,-0.6,-0.5,-1.6,25,-39.9913,418.1,908.047,-0.334804,-0.477343,-1.65983,
2026_07_06_18_46_16.412,3.87,31.8,0,0.76,0,0,0,0, ,0,0,0,0,0, ,-40.4,419.5,907.3,-0.5,-0.5,-1.7,25,-40.0284,418.179,908.005,-0.347918,-0.478724,-1.65923,
2026_07_06_18_46_16.431,3.87,31.8,0,0.758,0,0,0,0, ,0,0,0,0,0, ,-39.9,420.2,907.9,-0.3,-0.5,-1.6,25,-40.0358,418.281,907.98,-0.351091,-0.48002,-1.65867,
2026_07_06_18_46_16.453,3.87,31.7,0,0.758,0,0,0,0, ,0,0,0,0,0, ,-40.1,418,908.4,-0.1,-0.4,-1.7,25,-40.0336,418.331,907.99,-0.341884,-0.478191,-1.65814,
2026_07_06_18_46_16.471,3.87,31.8,0,0.76,0,0,0,0, ,0,0,0,0,0, ,-39.7,416.8,909.5,-0.1,-0.4,-1.6,25,-40.0255,418.274,908.049,-0.327145,-0.473426,-1.65765,
2026_07_06_18_46_16.491,3.87,31.8,0,0.76,0,0,0,0, ,0,0,0,0,0, ,-41.6,417.8,908.2,-0.2,-0.5,-1.7,25,-40.0635,418.215,908.098,-0.31635,-0.471999,-1.65718,
2026_07_06_18_46_16.511,3.87,31.7,0,0.76,0,0,0,0, ,0,0,0,0,0, ,-40.4,417.9,908.6,-0.4,-0.5,-1.8,25,-40.1206,418.193,908.116,-0.315353,-0.473705,-1.66284,
2026_07_06_18_46_16.531,3.87,31.8,0,0.761,0,0,0,0, ,0,0,0,0,0, ,-39.4,417.9,907.8,-0.6,-0.5,-1.7,25,-40.1072,418.175,908.121,-0.326605,-0.475307,-1.66815,
2026_07_06_18_46_16.551,3.87,31.7,0,0.76,0,0,0,0, ,0,0,0,0,0, ,-41.1,419.5,907.5,-0.4,-0.5,-1.7,25,-40.1159,418.207,908.092,-0.337172,-0.476812,-1.67009,
2026_07_06_18_46_16.570,3.87,31.8,0,0.76,0,0,0,0, ,0,0,0,0,0, ,-39.5,418.8,907.8,-0.3,-0.5,-1.8,25,-40.1271,418.264,908.066,-0.337953,-0.478225,-1.67496,
2026_07_06_18_46_16.590,3.87,31.7,0,0.761,0,0,0,0, ,0,0,0,0,0, ,-39.3,418.7,906.8,-0.1,-0.5,-1.6,25,-40.0828,418.294,908.019,-0.329547,-0.479552,-1.67648,
2026_07_06_18_46_16.609,3.87,31.7,0,0.761,0,0,0,0, ,0,0,0,0,0, ,-38.9,418.8,908.3,-0.6,-0.5,-1.7,25,-40.0229,418.322,907.99,-0.330793,-0.480798,-1.67487,
2026_07_06_18_46_16.630,3.87,31.7,0,0.76,0,0,0,0, ,0,0,0,0,0, ,-41.2,420.8,907.1,-0.4,-0.5,-1.7,25,-40.0245,418.412,907.973,-0.341104,-0.481968,-1.6764,
2026_07_06_18_46_16.649,3.87,31.8,0,0.761,0,0,0,0, ,0,0,0,0,0, ,-39.7,419,908.4,-0.2,-0.5,-1.7,25,-40.0505,418.502,907.959,-0.338599,-0.483067,-1.67784,
2026_07_06_18_46_16.670,3.87,31.8,0,0.761,0,0,0,0, ,0,0,0,0,0, ,-40.6,418.9,908.2,-0.2,-0.5,-1.7,25,-40.0565,418.53,907.98,-0.330154,-0.484099,-1.67919,
2026_07_06_18_46_16.689,3.87,31.8,0,0.76,0,0,0,0, ,0,0,0,0,0, ,-39.1,415.6,908.6,-0.1,-0.5,-1.7,25,-40.0439,418.452,908.005,-0.319175,-0.485068,-1.68046,
2026_07_06_18_46_16.709,3.87,31.8,0,0.76,0,0,0,0, ,0,0,0,0,0, ,-40.2,416,909.5,-0.4,-0.5,-1.7,25,-40.0199,418.29,908.069,-0.31496,-0.485978,-1.68165,
2026_07_06_18_46_16.729,3.87,31.7,0,0.76,0,0,0,0, ,0,0,0,0,0, ,-38.5,417.9,908.3,-0.5,-0.4,-1.6,25,-39.9791,418.208,908.12,-0.323189,-0.483785,-1.67972,
2026_07_06_18_46_16.760,3.87,31.8,0,0.758,0,0,0,0, ,0,0,0,0,0, ,-40.4,418.7,907.7,-0.3,-0.5,-1.6,25,-39.9469,418.214,908.112,-0.32787,-0.481727,-1.67486,
2026_07_06_18_46_16.768,3.87,31.7,0,0.759,0,0,0,0, ,0,0,0,0,0, ,-38.9,419.5,907.8,-0.2,-0.5,-1.7,25,-39.9288,418.268,908.09,-0.323125,-0.48284,-1.67335,
2026_07_06_18_46_16.788,3.87,31.7,0,0.761,0,0,0,0, ,0,0,0,0,0, ,-40.5,418.8,907.8,-0.1,-0.5,-1.7,25,-39.9148,418.322,908.073,-0.312575,-0.483886,-1.67497,
2026_07_06_18_46_16.808,3.87,31.7,0,0.76,0,0,0,0, ,0,0,0,0,0, ,-40,418.3,908.4,-0.2,-0.5,-1.7,25,-39.9353,418.336,908.074,-0.302668,-0.484868,-1.6765,
2026_07_06_18_46_16.828,3.87,31.7,0,0.76,0,0,0,0, ,0,0,0,0,0, ,-38.6,416.8,909.1,-0.4,-0.5,-1.7,25,-39.8966,418.288,908.115,-0.302505,-0.48579,-1.67793,
2026_07_06_18_46_16.848,3.87,31.7,0,0.758,0,0,0,0, ,0,0,0,0,0, ,-39.6,418.2,907.9,-0.5,-0.4,-1.7,25,-39.848,418.24,908.139,-0.311493,-0.483609,-1.67927,
2026_07_06_18_46_16.867,3.87,31.8,0,0.76,0,0,0,0, ,0,0,0,0,0, ,-40,417.7,907.7,-0.4,-0.4,-1.6,25,-39.8451,418.222,908.118,-0.319933,-0.478514,-1.67749,
2026_07_06_18_46_16.887,3.87,31.8,0,0.761,0,0,0,0, ,0,0,0,0,0, ,-40,418.9,910.7,-0.5,-0.5,-1.7,25,-39.8545,418.227,908.184,-0.327859,-0.476776,-1.67581,
2026_07_06_18_46_16.907,3.87,31.7,0,0.76,0,0,0,0, ,0,0,0,0,0, ,-39.7,417.7,906.7,-0.1,-0.5,-1.7,25,-39.8542,418.231,908.216,-0.326162,-0.478192,-1.67729,
2026_07_06_18_46_16.926,3.87,31.7,0,0.761,0,0,0,0, ,0,0,0,0,0, ,-41,418.5,909.5,-0.1,-0.4,-1.6,25,-39.8845,418.223,908.209,-0.31238,-0.476474,-1.67563,
2026_07_06_18_46_16.946,3.87,31.7,0,0.76,0,0,0,0, ,0,0,0,0,0, ,-39.7,416.1,908.2,-0.3,-0.5,-1.7,25,-39.9128,418.167,908.248,-0.305532,-0.47486,-1.67406,
2026_07_06_18_46_16.967,3.87,31.8,0,0.76,0,0,0,0, ,0,0,0,0,0, ,-40.6,417.7,907.2,-0.5,-0.5,-1.7,25,-39.9273,418.09,908.214,-0.311289,-0.476392,-1.67564,
2026_07_06_18_46_16.986,3.87,31.8,0,0.758,0,0,0,0, ,0,0,0,0,0, ,-39.7,417.4,907.5,-0.6,-0.5,-1.7,25,-39.9409,418.057,908.162,-0.325835,-0.477831,-1.67713,
2026_07_06_18_46_17.005,3.87,31.9,0,0.761,0,0,0,0, ,0,0,0,0,0, ,-39.9,418.8,908.6,-0.5,-0.5,-1.6,25,-39.9323,418.06,908.155,-0.339495,-0.479182,-1.67548,
2026_07_06_18_46_17.026,3.87,31.8,0,0.76,0,0,0,0, ,0,0,0,0,0, ,-41.5,419.1,906.6,-0.3,-0.5,-1.7,25,-39.9791,418.114,908.121,-0.343182,-0.48045,-1.67392,
2026_07_06_18_46_17.045,3.87,31.8,0,0.758,0,0,0,0, ,0,0,0,0,0, ,-40.4,417.8,909.4,-0.1,-0.4,-1.7,25,-40.0382,418.134,908.114,-0.334457,-0.478595,-1.67551,
2026_07_06_18_46_17.065,3.87,31.8,0,0.76,0,0,0,0, ,0,0,0,0,0, ,-39.3,416.3,908,-0.2,-0.5,-1.7,25,-40.0268,418.068,908.149,-0.323217,-0.476852,-1.677,
2026_07_06_18_46_17.085,3.87,31.7,0,0.76,0,0,0,0, ,0,0,0,0,0, ,-39.4,417.3,907.7,-0.4,-0.5,-1.7,25,-39.9855,417.991,908.131,-0.321802,-0.478263,-1.67841,
2026_07_06_18_46_17.108,3.87,31.7,0,0.76,0,0,0,0, ,0,0,0,0,0, ,-39.4,417.7,909,-0.5,-0.5,-1.6,25,-39.9498,417.961,908.144,-0.329614,-0.479588,-1.67667,
2026_07_06_18_46_17.125,3.87,31.8,0,0.76,0,0,0,0, ,0,0,0,0,0, ,-40,420.1,908.6,-0.5,-0.5,-1.7,25,-39.9346,418.018,908.184,-0.339997,-0.480831,-1.67505,
2026_07_06_18_46_17.144,3.87,31.7,0,0.76,0,0,0,0, ,0,0,0,0,0, ,-39.7,419.5,907.2,-0.3,-0.5,-1.8,25,-39.9295,418.127,908.167,-0.343653,-0.482,-1.67962,
2026_07_06_18_46_17.164,3.87,31.7,0,0.761,0,0,0,0, ,0,0,0,0,0, ,-40.5,417.9,909,-0.2,-0.5,-1.7,25,-39.9398,418.162,908.163,-0.337946,-0.483096,-1.68391,
2026_07_06_18_46_17.183,3.87,31.8,0,0.76,0,0,0,0, ,0,0,0,0,0, ,-40,417.9,907.7,-0.2,-0.4,-1.7,25,-39.9587,418.146,908.174,-0.32954,-0.48108,-1.68489,
2026_07_06_18_46_17.203,3.87,31.8,0,0.761,0,0,0,0, ,0,0,0,0,0, ,-41.1,415.7,908.2,-0.3,-0.5,-1.7,25,-39.9948,418.064,908.161,-0.324693,-0.479186,-1.68581,
2026_07_06_18_46_17.222,3.87,31.7,0,0.76,0,0,0,0, ,0,0,0,0,0, ,-39.9,418,909.1,-0.5,-0.5,-1.8,25,-40.0256,417.99,908.191,-0.329282,-0.480454,-1.68972,
2026_07_06_18_46_17.243,3.87,31.8,0,0.76,0,0,0,0, ,0,0,0,0,0, ,-40.1,419.1,907.3,-0.5,-0.5,-1.6,25,-40.024,418.024,908.191,-0.339685,-0.481645,-1.69035,
2026_07_06_18_46_17.263,3.87,31.7,0,0.76,0,0,0,0, ,0,0,0,0,0, ,-41,418.5,908,-0.3,-0.5,-1.7,25,-40.0561,418.071,908.158,-0.343361,-0.482764,-1.68789,
2026_07_06_18_46_17.283,3.87,31.8,0,0.76,0,0,0,0, ,0,0,0,0,0, ,-40.6,418.4,907.7,-0.2,-0.5,-1.6,25,-40.1014,418.094,908.139,-0.337672,-0.483814,-1.68558,
2026_07_06_18_46_17.302,3.87,31.8,0,0.76,0,0,0,0, ,0,0,0,0,0, ,-41.6,415.8,908.2,-0.5,-0.5,-1.7,25,-40.1622,418.034,908.128,-0.338423,-0.4848,-1.68341,
2026_07_06_18_46_17.322,3.87,31.7,0,0.761,0,0,0,0, ,0,0,0,0,0, ,-38.2,418.8,908.5,-0.5,-0.4,-1.8,25,-40.1463,417.989,908.141,-0.348269,-0.48268,-1.68747,
2026_07_06_18_46_17.342,3.87,31.8,0,0.76,0,0,0,0, ,0,0,0,0,0, ,-40.4,418.8,908.8,-0.4,-0.5,-1.6,25,-40.0947,418.038,908.172,-0.354468,-0.480688,-1.68823,
2026_07_06_18_46_17.362,3.87,31.8,0,0.76,0,0,0,0, ,0,0,0,0,0, ,-39.6,419.5,909.4,-0.1,-0.5,-1.6,25,-40.0889,418.106,908.229,-0.348102,-0.481865,-1.68286,
2026_07_06_18_46_17.382,3.87,31.7,0,0.76,0,0,0,0, ,0,0,0,0,0, ,-38.8,417.6,907.4,-0.1,-0.4,-1.6,25,-40.0348,418.133,908.239,-0.332983,-0.479923,-1.67781,
2026_07_06_18_46_17.402,3.87,31.8,0,0.758,0,0,0,0, ,0,0,0,0,0, ,-40,417.6,908.4,-0.3,-0.5,-1.7,25,-39.9961,418.101,908.219,-0.32488,-0.4781,-1.67611,
2026_07_06_18_46_17.421,3.87,31.8,0,0.76,0,0,0,0, ,0,0,0,0,0, ,-40.5,418.2,907.1,-0.4,-0.5,-1.7,25,-40.0115,418.089,908.19,-0.326411,-0.479434,-1.67757,
2026_07_06_18_46_17.441,3.87,31.8,0,0.758,0,0,0,0, ,0,0,0,0,0, ,-39.6,418.4,909,-0.6,-0.5,-1.7,25,-40.0139,418.101,908.182,-0.336989,-0.480688,-1.67893,
2026_07_06_18_46_17.461,3.87,31.7,0,0.761,0,0,0,0, ,0,0,0,0,0, ,-40.5,419.3,907.8,-0.5,-0.5,-1.7,25,-40.0161,418.147,908.195,-0.349969,-0.481864,-1.68022,
2026_07_06_18_46_17.485,3.87,31.7,0,0.761,0,0,0,0, ,0,0,0,0,0, ,-39.3,419,908.6,-0.3,-0.5,-1.7,25,-40.009,418.208,908.195,-0.353018,-0.48297,-1.68142,
2026_07_06_18_46_17.500,3.87,31.8,0,0.761,0,0,0,0, ,0,0,0,0,0, ,-39.1,417.8,909.4,-0.1,-0.5,-1.6,25,-39.9597,418.22,908.244,-0.343693,-0.484007,-1.67951,
2026_07_06_18_46_17.520,3.87,31.8,0,0.761,0,0,0,0, ,0,0,0,0,0, ,-40.6,417.7,909,-0.1,-0.5,-1.8,25,-39.953,418.191,908.302,-0.328843,-0.484982,-1.68076,
2026_07_06_18_46_17.540,3.87,31.8,0,0.76,0,0,0,0, ,0,0,0,0,0, ,-40.5,418.7,906.7,-0.3,-0.5,-1.7,25,-39.9894,418.192,908.275,-0.320992,-0.485897,-1.68498,
2026_07_06_18_46_17.560,3.87,31.7,0,0.76,0,0,0,0, ,0,0,0,0,0, ,-39,418,908.8,-0.5,-0.5,-1.6,25,-39.9748,418.201,908.243,-0.325806,-0.486756,-1.68285,
2026_07_06_18_46_17.580,3.87,31.8,0,0.761,0,0,0,0, ,0,0,0,0,0, ,-39,419.7,907.7,-0.6,-0.5,-1.7,25,-39.9154,418.241,908.243,-0.339468,-0.487564,-1.68084,
2026_07_06_18_46_17.600,3.87,31.7,0,0.76,0,0,0,0, ,0,0,0,0,0, ,-39.6,419.3,907.1,-0.4,-0.5,-1.7,25,-39.8779,418.318,908.192,-0.349251,-0.488321,-1.68201,
2026_07_06_18_46_17.619,3.87,31.8,0,0.76,0,0,0,0, ,0,0,0,0,0, ,-40,418.4,909.1,-0.3,-0.5,-1.7,25,-39.8732,418.35,908.186,-0.349296,-0.489033,-1.68311,
2026_07_06_18_46_17.639,3.87,31.8,0,0.758,0,0,0,0, ,0,0,0,0,0, ,-40.6,418.4,907.4,-0.1,-0.6,-1.6,25,-39.8992,418.353,908.19,-0.340199,-0.492748,-1.68109,
2026_07_06_18_46_17.662,3.87,31.8,0,0.76,0,0,0,0, ,0,0,0,0,0, ,-40.2,416.9,908.3,-0.3,-0.5,-1.7,25,-39.9297,418.31,908.169,-0.331655,-0.496237,-1.6792,
2026_07_06_18_46_17.678,3.87,31.7,0,0.76,0,0,0,0, ,0,0,0,0,0, ,-40.4,417.4,908,-0.4,-0.4,-1.7,25,-39.9523,418.24,908.168,-0.332773,-0.493419,-1.68046,
2026_07_06_18_46_17.699,3.87,31.7,0,0.758,0,0,0,0, ,0,0,0,0,0, ,-39.6,418.4,908.4,-0.6,-0.6,-1.7,25,-39.9552,418.219,908.17,-0.342963,-0.49382,-1.68165,
2026_07_06_18_46_17.718,3.87,31.8,0,0.76,0,0,0,0, ,0,0,0,0,0, ,-40.7,420.6,907.5,-0.4,-0.5,-1.7,25,-39.967,418.297,908.157,-0.352533,-0.497244,-1.68277,
2026_07_06_18_46_17.738,3.87,31.8,0,0.761,0,0,0,0, ,0,0,0,0,0, ,-39.6,418.7,909.5,-0.2,-0.6,-1.6,25,-39.9782,418.379,908.178,-0.349332,-0.500459,-1.68077,
2026_07_06_18_46_17.758,3.87,31.8,0,0.76,0,0,0,0, ,0,0,0,0,0, ,-39.4,418.8,907.1,-0.1,-0.5,-1.7,25,-39.9491,418.402,908.185,-0.337185,-0.503478,-1.6789,
2026_07_06_18_46_17.778,3.87,31.7,0,0.761,0,0,0,0, ,0,0,0,0,0, ,-39.5,417.2,907.1,-0.2,-0.5,-1.7,25,-39.9186,418.377,908.119,-0.325778,-0.503266,-1.68019,
2026_07_06_18_46_17.798,3.87,31.7,0,0.76,0,0,0,0, ,0,0,0,0,0, ,-38.8,417.9,906.8,-0.5,-0.5,-1.7,25,-39.8718,418.327,908.048,-0.327254,-0.503067,-1.68139,
2026_07_06_18_46_17.818,3.87,31.8,0,0.759,0,0,0,0, ,0,0,0,0,0, ,-39.7,417.4,907.9,-0.7,-0.5,-1.7,25,-39.8339,418.286,908.005,-0.343875,-0.50288,-1.68253,
2026_07_06_18_46_17.837,3.87,31.8,0,0.76,0,0,0,0, ,0,0,0,0,0, ,-41.3,417.7,908.3,-0.6,-0.5,-1.6,25,-39.8745,418.241,908.011,-0.362529,-0.502704,-1.68054,
2026_07_06_18_46_17.858,3.87,31.8,0,0.762,0,0,0,0, ,0,0,0,0,0, ,-39.5,419.5,907.4,-0.2,-0.6,-1.7,25,-39.9065,418.263,908.001,-0.364813,-0.505586,-1.67868,
2026_07_06_18_46_17.877,3.87,31.8,0,0.757,0,0,0,0, ,0,0,0,0,0, ,-39.4,418.2,907.4,0,-0.4,-1.6,25,-39.8787,418.299,907.965,-0.348676,-0.505246,-1.67694,
2026_07_06_18_46_17.896,3.87,31.7,0,0.76,0,0,0,0, ,0,0,0,0,0, ,-39.6,416.5,908.8,-0.1,-0.5,-1.6,25,-39.8556,418.241,907.973,-0.330475,-0.501879,-1.67225,
2026_07_06_18_46_17.916,3.87,31.8,0,0.762,0,0,0,0, ,0,0,0,0,0, ,-39.3,417.1,908.8,-0.4,-0.5,-1.6,25,-39.8309,418.153,908.023,-0.325571,-0.501765,-1.66784,
2026_07_06_18_46_17.936,3.87,31.8,0,0.76,0,0,0,0, ,0,0,0,0,0, ,-39.6,417.2,908.4,-0.6,-0.5,-1.8,25,-39.8077,418.092,908.058,-0.3362,-0.501657,-1.6698,
2026_07_06_18_46_17.956,3.87,31.8,0,0.76,0,0,0,0, ,0,0,0,0,0, ,-39.3,418.2,907.8,-0.7,-0.4,-1.7,25,-39.7859,418.068,908.061,-0.355323,-0.498509,-1.67469,
2026_07_06_18_46_17.975,3.87,31.8,0,0.761,0,0,0,0, ,0,0,0,0,0, ,-40.2,418.5,909.3,-0.1,-0.5,-1.7,25,-39.7837,418.085,908.091,-0.358045,-0.495553,-1.67623,
2026_07_06_18_46_17.995,3.87,31.9,0,0.759,0,0,0,0, ,0,0,0,0,0, ,-40.2,416,908.4,-0.2,-0.5,-1.6,25,-39.8091,418.034,908.137,-0.345367,-0.495824,-1.67463,
2026_07_06_18_46_18.017,3.87,31.7,0,0.761,0,0,0,0, ,0,0,0,0,0, ,-40.4,418.8,909.4,-0.6,-0.5,-1.7,25,-39.839,417.996,908.184,-0.348697,-0.496079,-1.67313,
2026_07_06_18_46_18.034,3.87,31.7,0,0.76,0,0,0,0, ,0,0,0,0,0, ,-39.7,418.8,906.8,-0.5,-0.5,-1.7,25,-39.8519,418.045,908.178,-0.360963,-0.496318,-1.67477,
2026_07_06_18_46_18.054,3.87,31.8,0,0.76,0,0,0,0, ,0,0,0,0,0, ,-40.4,418.2,909.9,-0.1,-0.5,-1.6,25,-39.8639,418.072,908.189,-0.357248,-0.496542,-1.67326,
2026_07_06_18_46_18.074,3.87,31.9,0,0.759,0,0,0,0, ,0,0,0,0,0, ,-39,416.9,906.6,-0.1,-0.5,-1.7,25,-39.8539,418.041,908.193,-0.341572,-0.496753,-1.67184,
2026_07_06_18_46_18.094,3.87,31.7,0,0.761,0,0,0,0, ,0,0,0,0,0, ,-40.1,417.4,909.1,-0.3,-0.4,-1.7,25,-39.8354,417.986,908.172,-0.332945,-0.493904,-1.67356,
2026_07_06_18_46_18.113,3.87,31.8,0,0.761,0,0,0,0, ,0,0,0,0,0, ,-39.7,415.7,907.3,-0.5,-0.5,-1.6,25,-39.8394,417.899,908.173,-0.337031,-0.491228,-1.67212,
2026_07_06_18_46_18.133,3.87,31.8,0,0.76,0,0,0,0, ,0,0,0,0,0, ,-39.6,417.8,909.7,-0.6,-0.5,-1.6,25,-39.8278,417.829,908.193,-0.350009,-0.491763,-1.66773,
2026_07_06_18_46_18.154,3.87,31.8,0,0.761,0,0,0,0, ,0,0,0,0,0, ,-41,419.9,909.1,-0.3,-0.5,-1.7,25,-39.8566,417.891,908.267,-0.356102,-0.492265,-1.66665,
2026_07_06_18_46_18.174,3.87,31.9,0,0.762,0,0,0,0, ,0,0,0,0,0, ,-41,420.1,908.5,-0.2,-0.4,-1.6,25,-39.9263,418.02,908.299,-0.349637,-0.489689,-1.66563,
2026_07_06_18_46_18.193,3.87,31.8,0,0.759,0,0,0,0, ,0,0,0,0,0, ,-41.1,418.2,908,-0.2,-0.5,-1.7,25,-39.9947,418.088,908.296,-0.340518,-0.487271,-1.66468,
2026_07_06_18_46_18.213,3.87,31.8,0,0.761,0,0,0,0, ,0,0,0,0,0, ,-39.6,417.2,908.2,-0.4,-0.5,-1.7,25,-40.0164,418.065,908.284,-0.338049,-0.488047,-1.66683,
2026_07_06_18_46_18.232,3.87,31.8,0,0.761,0,0,0,0, ,0,0,0,0,0, ,-40,417.9,906.7,-0.5,-0.5,-1.7,25,-40.0032,418.033,908.234,-0.344871,-0.488775,-1.66885,
2026_07_06_18_46_18.253,3.87,31.8,0,0.759,0,0,0,0, ,0,0,0,0,0, ,-40.8,418.2,907.4,-0.5,-0.5,-1.6,25,-40.0274,418.034,908.161,-0.354324,-0.489459,-1.66771,
2026_07_06_18_46_18.272,3.87,31.8,0,0.759,0,0,0,0, ,0,0,0,0,0, ,-40.6,418.2,907.3,-0.5,-0.5,-1.7,25,-40.0684,418.044,908.112,-0.363202,-0.490101,-1.66663,
2026_07_06_18_46_18.291,3.87,31.9,0,0.76,0,0,0,0, ,0,0,0,0,0, ,-41.1,419,909.1,-0.4,-0.4,-1.7,25,-40.116,418.078,908.117,-0.368491,-0.487658,-1.66866,
2026_07_06_18_46_18.311,3.87,31.8,0,0.76,0,0,0,0, ,0,0,0,0,0, ,-39.3,419.6,908.5,-0.1,-0.5,-1.6,25,-40.1211,418.153,908.159,-0.36127,-0.485363,-1.66752,
2026_07_06_18_46_18.331,3.87,31.8,0,0.761,0,0,0,0, ,0,0,0,0,0, ,-40.2,419.4,908,-0.1,-0.4,-1.6,25,-40.0985,418.235,908.164,-0.345349,-0.483208,-1.66341,
2026_07_06_18_46_18.352,3.87,31.8,0,0.761,0,0,0,0, ,0,0,0,0,0, ,-40,416.6,909,-0.3,-0.4,-1.7,25,-40.0986,418.221,908.185,-0.336492,-0.478137,-1.66259,
2026_07_06_18_46_18.371,3.87,31.9,0,0.761,0,0,0,0, ,0,0,0,0,0, ,-39.3,416.8,908.5,-0.6,-0.4,-1.7,25,-40.0713,418.128,908.219,-0.343409,-0.473376,-1.66487,
2026_07_06_18_46_18.391,3.87,31.8,0,0.76,0,0,0,0, ,0,0,0,0,0, ,-39.4,419.1,908,-0.7,-0.5,-1.7,25,-40.0273,418.117,908.221,-0.362092,-0.471952,-1.66701,
2026_07_06_18_46_18.412,3.87,31.7,0,0.759,0,0,0,0, ,0,0,0,0,0, ,-40.5,418.4,907.1,-0.5,-0.5,-1.6,25,-40.0226,418.156,908.18,-0.376589,-0.473661,-1.66598,
2026_07_06_18_46_18.431,3.87,31.8,0,0.76,0,0,0,0, ,0,0,0,0,0, ,-39.6,419,907.2,-0.3,-0.5,-1.7,25,-40.0243,418.189,908.118,-0.378016,-0.475266,-1.665,
2026_07_06_18_46_18.450,3.87,31.8,0,0.76,0,0,0,0, ,0,0,0,0,0, ,-39.9,418.7,909.5,-0.1,-0.6,-1.6,25,-40.0076,418.229,908.132,-0.367168,-0.47982,-1.66409,
2026_07_06_18_46_18.469,3.87,31.8,0,0.76,0,0,0,0, ,0,0,0,0,0, ,-39.4,416.8,908.5,-0.1,-0.4,-1.7,25,-39.9858,418.2,908.185,-0.350887,-0.48105,-1.66323,
2026_07_06_18_46_18.495,3.87,31.8,0,0.76,0,0,0,0, ,0,0,0,0,0, ,-40.2,417.9,909.7,-0.4,-0.4,-1.7,25,-39.9744,418.148,908.24,-0.34474,-0.476111,-1.66547,
2026_07_06_18_46_18.510,3.87,31.8,0,0.761,0,0,0,0, ,0,0,0,0,0, ,-39.9,418.5,908.8,-0.4,-0.5,-1.7,25,-39.979,418.151,908.302,-0.348107,-0.47452,-1.66757,
2026_07_06_18_46_18.530,3.87,31.8,0,0.761,0,0,0,0, ,0,0,0,0,0, ,-40.4,418.8,909.6,-0.4,-0.5,-1.7,25,-39.9895,418.182,908.357,-0.351269,-0.476072,-1.66955,
2026_07_06_18_46_18.549,3.87,31.8,0,0.761,0,0,0,0, ,0,0,0,0,0, ,-40.1,420.2,908.9,-0.3,-0.4,-1.8,25,-40.0053,418.262,908.411,-0.351192,-0.474483,-1.67445,
2026_07_06_18_46_18.568,3.87,31.8,0,0.76,0,0,0,0, ,0,0,0,0,0, ,-39,418.3,906.8,0,-0.4,-1.7,25,-39.9776,418.322,908.377,-0.338932,-0.469945,-1.67906,
2026_07_06_18_46_18.588,3.87,31.8,0,0.76,0,0,0,0, ,0,0,0,0,0, ,-39.3,416.5,907.2,0,-0.5,-1.6,25,-39.9272,418.266,908.293,-0.318278,-0.468729,-1.67729,
2026_07_06_18_46_18.608,3.87,31.7,0,0.759,0,0,0,0, ,0,0,0,0,0, ,-40,417.4,907.5,-0.3,-0.4,-1.7,25,-39.9103,418.186,908.236,-0.308024,-0.467588,-1.67562,
2026_07_06_18_46_18.628,3.87,31.8,0,0.76,0,0,0,0, ,0,0,0,0,0, ,-40,419.3,905.2,0,-0.4,-1.6,25,-39.9157,418.196,908.121,-0.298394,-0.463469,-1.67406,
2026_07_06_18_46_18.648,3.87,31.8,0,0.76,0,0,0,0, ,0,0,0,0,0, ,-40.1,416.1,907.1,-0.2,-0.5,-1.6,25,-39.9239,418.166,908.001,-0.286304,-0.462649,-1.66955,
2026_07_06_18_46_18.668,3.87,31.8,0,0.76,0,0,0,0, ,0,0,0,0,0, ,-39.9,416.2,906.9,-0.5,-0.5,-1.6,25,-39.9286,418.043,907.94,-0.290186,-0.464925,-1.66531,
2026_07_06_18_46_18.688,3.87,31.8,0,0.76,0,0,0,0, ,0,0,0,0,0, ,-40.4,416.9,907.5,-0.4,-0.5,-1.7,25,-39.9421,417.952,907.895,-0.299925,-0.467062,-1.66438,
2026_07_06_18_46_18.707,3.87,31.7,0,0.762,0,0,0,0, ,0,0,0,0,0, ,-40.7,416.8,905.7,-0.7,-0.4,-1.7,25,-39.9791,417.885,907.816,-0.315164,-0.466022,-1.66655,
2026_07_06_18_46_18.727,3.87,31.8,0,0.761,0,0,0,0, ,0,0,0,0,0, ,-38.6,420.6,909.4,-0.5,-0.5,-1.7,25,-39.959,417.934,907.799,-0.332521,-0.465046,-1.66859,
2026_07_06_18_46_18.749,3.87,31.8,0,0.76,0,0,0,0, ,0,0,0,0,0, ,-39.5,421.6,908.3,-0.1,-0.5,-1.7,25,-39.9037,418.127,907.863,-0.330539,-0.467176,-1.6705,
2026_07_06_18_46_18.767,3.87,31.8,0,0.759,0,0,0,0, ,0,0,0,0,0, ,-40.4,419,907.7,0,-0.5,-1.7,25,-39.9065,418.26,907.872,-0.313444,-0.469176,-1.6723,
2026_07_06_18_46_18.787,3.87,31.8,0,0.76,0,0,0,0, ,0,0,0,0,0, ,-41.1,418.4,907.9,-0.3,-0.5,-1.7,25,-39.9579,418.286,907.867,-0.303484,-0.471055,-1.67399,
2026_07_06_18_46_18.807,3.87,31.8,0,0.759,0,0,0,0, ,0,0,0,0,0, ,-40.5,417.1,907.2,-0.3,-0.5,-1.7,25,-40.0092,418.254,907.848,-0.303272,-0.472818,-1.67557,
2026_07_06_18_46_18.827,3.87,31.8,0,0.76,0,0,0,0, ,0,0,0,0,0, ,-39.5,417.7,908.6,-0.8,-0.5,-1.7,25,-40.0086,418.202,907.851,-0.318307,-0.474475,-1.67706,
2026_07_06_18_46_18.846,3.87,31.8,0,0.759,0,0,0,0, ,0,0,0,0,0, ,-39.6,418.8,907.5,-0.5,-0.5,-1.7,25,-39.9807,418.205,907.863,-0.338519,-0.47603,-1.67846,
2026_07_06_18_46_18.865,3.87,31.8,0,0.76,0,0,0,0, ,0,0,0,0,0, ,-40,420,908.5,-0.2,-0.5,-1.7,25,-39.9697,418.278,907.872,-0.339219,-0.477491,-1.67977,
2026_07_06_18_46_18.886,3.87,31.8,0,0.76,0,0,0,0, ,0,0,0,0,0, ,-38.6,417.1,909.5,-0.1,-0.4,-1.7,25,-39.9289,418.294,907.94,-0.327688,-0.475816,-1.681,
2026_07_06_18_46_18.906,3.87,31.8,0,0.76,0,0,0,0, ,0,0,0,0,0, ,-40.1,416.3,908.4,-0.2,-0.5,-1.6,25,-39.8936,418.197,908.002,-0.31686,-0.474242,-1.67911,
2026_07_06_18_46_18.925,3.87,31.8,0,0.76,0,0,0,0, ,0,0,0,0,0, ,-39.3,417.1,908,-0.3,-0.5,-1.7,25,-39.8818,418.106,908.014,-0.312786,-0.475812,-1.67734,
2026_07_06_18_46_18.945,3.87,31.8,0,0.759,0,0,0,0, ,0,0,0,0,0, ,-39.7,418.8,907.8,-0.5,-0.5,-1.8,25,-39.8585,418.096,908.007,-0.318101,-0.477286,-1.68177,
2026_07_06_18_46_18.965,3.87,31.8,0,0.761,0,0,0,0, ,0,0,0,0,0, ,-38.8,418.7,908.3,-0.6,-0.5,-1.7,25,-39.8214,418.136,908.01,-0.332232,-0.47867,-1.68593,
2026_07_06_18_46_18.985,3.87,31.8,0,0.762,0,0,0,0, ,0,0,0,0,0, ,-38.4,419.3,909.3,-0.4,-0.5,-1.7,25,-39.747,418.189,908.058,-0.342455,-0.47997,-1.68678,
2026_07_06_18_46_19.005,3.87,31.8,0,0.76,0,0,0,0, ,0,0,0,0,0, ,-41,417.8,907.4,-0.1,-0.4,-1.7,25,-39.7442,418.211,908.076,-0.336821,-0.478144,-1.68759,
2026_07_06_18_46_19.025,3.87,31.8,0,0.759,0,0,0,0, ,0,0,0,0,0, ,-40.2,417.8,908.5,-0.2,-0.5,-1.6,25,-39.7963,418.186,908.068,-0.325437,-0.476429,-1.6853,
2026_07_06_18_46_19.044,3.87,31.9,0,0.761,0,0,0,0, ,0,0,0,0,0, ,-40.4,416.3,908.2,-0.3,-0.4,-1.6,25,-39.827,418.117,908.085,-0.32084,-0.474818,-1.6801,
2026_07_06_18_46_19.064,3.87,31.8,0,0.76,0,0,0,0, ,0,0,0,0,0, ,-39.6,416.3,909,-0.4,-0.5,-1.6,25,-39.8375,418.006,908.117,-0.322617,-0.473306,-1.67522,
2026_07_06_18_46_19.084,3.87,31.8,0,0.76,0,0,0,0, ,0,0,0,0,0, ,-40.1,417.8,907.2,-0.6,-0.5,-1.7,25,-39.8383,417.948,908.116,-0.333426,-0.474932,-1.67368,
2026_07_06_18_46_19.109,3.87,31.9,0,0.76,0,0,0,0, ,0,0,0,0,0, ,-39.3,420.2,906.8,-0.4,-0.5,-1.7,25,-39.8299,418.012,908.048,-0.343577,-0.47646,-1.67529,
2026_07_06_18_46_19.123,3.87,31.8,0,0.757,0,0,0,0, ,0,0,0,0,0, ,-39.7,418.9,906.6,-0.1,-0.5,-1.6,25,-39.8098,418.105,907.965,-0.337874,-0.477895,-1.67375,
2026_07_06_18_46_19.143,3.87,31.8,0,0.76,0,0,0,0, ,0,0,0,0,0, ,-39.1,417.2,907.8,-0.1,-0.4,-1.6,25,-39.7848,418.102,907.919,-0.323379,-0.476195,-1.66925,
2026_07_06_18_46_19.163,3.87,31.9,0,0.761,0,0,0,0, ,0,0,0,0,0, ,-39.6,415.7,907.8,-0.3,-0.5,-1.6,25,-39.7583,418.001,907.912,-0.315861,-0.474598,-1.66503,
2026_07_06_18_46_19.183,3.87,31.9,0,0.76,0,0,0,0, ,0,0,0,0,0, ,-39.9,417.1,908.3,-0.5,-0.4,-1.7,25,-39.7578,417.904,907.92,-0.320988,-0.473099,-1.66412,
2026_07_06_18_46_19.203,3.87,31.8,0,0.76,0,0,0,0, ,0,0,0,0,0, ,-41.2,418.4,908,-0.5,-0.5,-1.7,25,-39.8061,417.894,907.934,-0.331896,-0.471692,-1.6663,
2026_07_06_18_46_19.222,3.87,31.8,0,0.759,0,0,0,0, ,0,0,0,0,0, ,-40.5,420,907.4,-0.4,-0.5,-1.6,25,-39.8697,417.974,907.92,-0.339093,-0.473417,-1.66531,
2026_07_06_18_46_19.242,3.87,31.8,0,0.76,0,0,0,0, ,0,0,0,0,0, ,-39.6,420.2,909.9,-0.2,-0.5,-1.7,25,-39.8807,418.104,907.964,-0.336711,-0.475037,-1.66438,
2026_07_06_18_46_19.262,3.87,31.8,0,0.76,0,0,0,0, ,0,0,0,0,0, ,-40.7,418.7,908.4,0,-0.4,-1.6,25,-39.8971,418.186,908.037,-0.322287,-0.473511,-1.6635,
2026_07_06_18_46_19.281,3.87,31.8,0,0.762,0,0,0,0, ,0,0,0,0,0, ,-40.2,416.6,907.8,-0.2,-0.5,-1.6,25,-39.9308,418.153,908.04,-0.308741,-0.472078,-1.65963,
2026_07_06_18_46_19.303,3.87,31.8,0,0.761,0,0,0,0, ,0,0,0,0,0, ,-40.4,416.6,909,-0.5,-0.5,-1.7,25,-39.9533,418.058,908.062,-0.311255,-0.47378,-1.65904,
2026_07_06_18_46_19.321,3.87,31.8,0,0.761,0,0,0,0, ,0,0,0,0,0, ,-40.1,420.2,908.2,-0.1,-0.5,-1.6,25,-39.9714,418.079,908.095,-0.310569,-0.475378,-1.65849,
2026_07_06_18_46_19.341,3.87,31.9,0,0.761,0,0,0,0, ,0,0,0,0,0, ,-40.5,417.9,908.8,-0.1,-0.5,-1.6,25,-39.9914,418.138,908.12,-0.297738,-0.476878,-1.65493,
2026_07_06_18_46_19.361,3.87,31.8,0,0.76,0,0,0,0, ,0,0,0,0,0, ,-39.9,417.1,908.2,-0.3,-0.5,-1.6,25,-40.0041,418.099,908.143,-0.291782,-0.478287,-1.65158,
2026_07_06_18_46_19.380,3.87,31.8,0,0.759,0,0,0,0, ,0,0,0,0,0, ,-39.1,418.7,909.6,-0.7,-0.5,-1.7,25,-39.9734,418.087,908.189,-0.30447,-0.47961,-1.65148,
2026_07_06_18_46_19.401,3.87,31.8,0,0.76,0,0,0,0, ,0,0,0,0,0, ,-39.6,419.1,907.4,-0.7,-0.5,-1.7,25,-39.9354,418.137,908.208,-0.328573,-0.480853,-1.65444,
2026_07_06_18_46_19.421,3.87,31.8,0,0.759,0,0,0,0, ,0,0,0,0,0, ,-40,419.1,909.7,-0.4,-0.5,-1.6,25,-39.9271,418.195,908.229,-0.342066,-0.482019,-1.65417,
2026_07_06_18_46_19.441,3.87,31.8,0,0.759,0,0,0,0, ,0,0,0,0,0, ,-40.5,420,906.4,-0.2,-0.5,-1.7,25,-39.9468,418.278,908.218,-0.339503,-0.483115,-1.65392,
2026_07_06_18_46_19.460,3.87,31.8,0,0.761,0,0,0,0, ,0,0,0,0,0, ,-39.7,416.8,907.5,-0.1,-0.5,-1.7,25,-39.9562,418.285,908.141,-0.327955,-0.484144,-1.65672,
2026_07_06_18_46_19.480,3.87,31.8,0,0.761,0,0,0,0, ,0,0,0,0,0, ,-39.4,416.1,909.1,-0.2,-0.6,-1.7,25,-39.9314,418.174,908.15,-0.317111,-0.488157,-1.65936,
2026_07_06_18_46_19.499,3.87,31.8,0,0.761,0,0,0,0, ,0,0,0,0,0, ,-40.5,418.8,908.3,-0.5,-0.5,-1.6,25,-39.9325,418.13,908.184,-0.319115,-0.491926,-1.65879,
2026_07_06_18_46_19.520,3.87,31.8,0,0.761,0,0,0,0, ,0,0,0,0,0, ,-40.6,418.2,908.2,-0.4,-0.5,-1.7,25,-39.9702,418.152,908.188,-0.327091,-0.492418,-1.65826,
2026_07_06_18_46_19.540,3.87,31.8,0,0.76,0,0,0,0, ,0,0,0,0,0, ,-39.3,419.7,908.8,-0.4,-0.5,-1.7,25,-39.9689,418.201,908.207,-0.331534,-0.49288,-1.6608,
2026_07_06_18_46_19.559,3.87,31.8,0,0.76,0,0,0,0, ,0,0,0,0,0, ,-39.5,419.4,906.1,-0.3,-0.5,-1.7,25,-39.9343,418.283,908.161,-0.332659,-0.493314,-1.66319,
2026_07_06_18_46_19.579,3.87,31.8,0,0.762,0,0,0,0, ,0,0,0,0,0, ,-40.1,418.8,907.8,-0.2,-0.5,-1.7,25,-39.9261,418.333,908.087,-0.327622,-0.493721,-1.66543,
2026_07_06_18_46_19.599,3.87,31.8,0,0.76,0,0,0,0, ,0,0,0,0,0, ,-38.6,417.3,907.8,-0.3,-0.5,-1.7,25,-39.891,418.316,908.07,-0.322892,-0.494104,-1.66754,
2026_07_06_18_46_19.618,3.87,31.8,0,0.76,0,0,0,0, ,0,0,0,0,0, ,-38.6,417.2,907.8,-0.4,-0.5,-1.7,25,-39.8123,418.251,908.053,-0.324544,-0.494463,-1.66952,
2026_07_06_18_46_19.638,3.87,31.7,0,0.76,0,0,0,0, ,0,0,0,0,0, ,-40.1,418.3,908.9,-0.6,-0.5,-1.6,25,-39.7841,418.22,908.071,-0.335236,-0.4948,-1.66833,
2026_07_06_18_46_19.658,3.87,31.8,0,0.76,0,0,0,0, ,0,0,0,0,0, ,-41.1,420.1,907.8,-0.4,-0.5,-1.7,25,-39.8339,418.28,908.088,-0.345276,-0.495117,-1.66721,
2026_07_06_18_46_19.683,3.87,31.9,0,0.761,0,0,0,0, ,0,0,0,0,0, ,-39.7,419.6,908.9,-0.2,-0.5,-1.7,25,-39.8684,418.375,908.104,-0.342517,-0.495415,-1.66921,
2026_07_06_18_46_19.698,3.87,31.8,0,0.76,0,0,0,0, ,0,0,0,0,0, ,-39,419.1,906.4,0,-0.5,-1.7,25,-39.8368,418.435,908.076,-0.327738,-0.495694,-1.67108,
2026_07_06_18_46_19.717,3.87,31.8,0,0.757,0,0,0,0, ,0,0,0,0,0, ,-40.2,416.3,906.6,-0.3,-0.5,-1.6,25,-39.8223,418.39,907.98,-0.316908,-0.495957,-1.6698,
2026_07_06_18_46_19.737,3.87,31.8,0,0.761,0,0,0,0, ,0,0,0,0,0, ,-40.4,417.8,907.9,-0.5,-0.5,-1.6,25,-39.8514,418.308,907.936,-0.321971,-0.496203,-1.66555,
2026_07_06_18_46_19.756,3.87,31.8,0,0.761,0,0,0,0, ,0,0,0,0,0, ,-41,417.9,907.2,-1,-0.5,-1.6,25,-39.9032,418.28,907.912,-0.348054,-0.496434,-1.66155,
2026_07_06_18_46_19.777,3.87,31.9,0,0.76,0,0,0,0, ,0,0,0,0,0, ,-38.9,418.7,908.3,-0.6,-0.5,-1.7,25,-39.906,418.282,907.902,-0.375594,-0.496652,-1.66085,
2026_07_06_18_46_19.797,3.87,31.8,0,0.76,0,0,0,0, ,0,0,0,0,0, ,-40,418.4,908.4,0,-0.5,-1.7,25,-39.8782,418.298,907.93,-0.370988,-0.496856,-1.66323,
2026_07_06_18_46_19.816,3.87,31.8,0,0.759,0,0,0,0, ,0,0,0,0,0, ,-39.7,412.1,910.1,2.6,-0.4,-1.6,25,-39.8765,418.112,908.01,-0.269162,-0.494,-1.66243,
2026_07_06_18_46_19.836,3.87,31.8,0,0.76,0,0,0,0, ,0,0,0,0,0, ,-40.1,430,903.5,3.7,-0.4,-1.5,25,-39.8779,418.291,907.936,-0.060807,-0.488272,-1.65558,
2026_07_06_18_46_19.862,3.87,31.8,0,0.759,0,0,0,0, ,0,0,0,0,0, ,-40.1,416.5,907.7,2.1,-0.4,-1.5,25,-39.8915,418.593,907.794,0.119617,-0.482893,-1.6461,
2026_07_06_18_46_19.878,3.87,31.7,0,0.76,0,0,0,0, ,0,0,0,0,0, ,-84.3,404.7,916.5,-4,-0.1,-1,25,-41.2509,418.106,908.056,0.0544374,-0.468701,-1.62196,
2026_07_06_18_46_19.895,3.87,31.8,0,0.761,0,0,0,0, ,0,0,0,0,0, ,-120.9,423,911.8,-16.2,-2.6,-4.4,25,-44.9894,417.847,908.428,-0.564349,-0.522405,-1.68765,
2026_07_06_18_46_19.915,3.87,31.8,0,0.76,0,0,0,0, ,0,0,0,0,0, ,54.3,428.9,907.3,21.3,-1.8,-4,25,-44.277,418.341,908.496,-0.374568,-0.624634,-1.84075,
2026_07_06_18_46_19.935,3.87,31.8,0,0.757,0,0,0,0, ,0,0,0,0,0, ,-17,411.1,915.5,3.2,5.6,11.2,25,-40.4424,418.442,908.673,0.394741,-0.470789,-1.5092,
2026_07_06_18_46_19.955,3.87,31.8,0,0.76,0,0,0,0, ,0,0,0,0,0, ,-41.3,438.5,898.5,-1.5,3.6,7.2,25,-39.7543,418.829,908.571,0.422484,-0.161788,-0.856611,
2026_07_06_18_46_19.974,3.87,31.7,0,0.761,0,0,0,0, ,0,0,0,0,0, ,-44.3,441.1,897.2,-1.1,0.4,0.4,25,-39.9399,420.107,907.918,0.31752,-0.0300539,-0.572848,
2026_07_06_18_46_19.994,3.87,31.8,0,0.76,0,0,0,0, ,0,0,0,0,0, ,-40.5,418.8,906.3,-1.4,-0.7,-2.1,25,-40.0898,420.707,907.542,0.221999,-0.0373631,-0.589737,
2026_07_06_18_46_20.015,3.87,31.8,0,0.76,0,0,0,0, ,0,0,0,0,0, ,-91.3,440.3,900.7,-18.9,-2.2,-5,25,-41.6626,421.246,907.296,-0.410044,-0.123446,-0.770128,
2026_07_06_18_46_20.034,3.87,31.7,0,0.76,0,0,0,0, ,0,0,0,0,0, ,-80.5,429.9,904.2,3.4,-5.6,-12.5,25,-44.3583,422.09,907,-0.857323,-0.353579,-1.2564,
2026_07_06_18_46_20.057,3.87,31.7,0,0.759,0,0,0,0, ,0,0,0,0,0, ,-37.1,411.1,905.6,4,-5.4,-12.6,25,-45.2384,421.993,906.872,-0.579611,-0.667189,-1.94461,
2026_07_06_18_46_20.073,3.87,31.9,0,0.76,0,0,0,0, ,0,0,0,0,0, ,-52.8,397.2,918.7,4.8,-3.2,-8.5,25,-45.2208,420.906,907.194,-0.276166,-0.888564,-2.469,
2026_07_06_18_46_20.093,3.87,31.8,0,0.76,0,0,0,0, ,0,0,0,0,0, ,-97.9,418.2,911.8,-1.7,-4.4,-10.2,25,-47.0568,420.101,907.685,-0.164884,-1.06598,-2.88831,
2026_07_06_18_46_20.113,3.87,31.8,0,0.76,0,0,0,0, ,0,0,0,0,0, ,-188.3,413.3,916.2,1.3,-9.2,-19,25,-52.9094,419.836,908.07,-0.167024,-1.4154,-3.60199,
2026_07_06_18_46_20.133,3.87,31.8,0,0.76,0,0,0,0, ,0,0,0,0,0, ,-209.9,432.6,896.8,11.2,-16.7,-34,25,-61.8179,420.026,907.974,0.224013,-2.11829,-4.99734,
2026_07_06_18_46_20.153,3.87,31.8,0,0.761,0,0,0,0, ,0,0,0,0,0, ,-134,435.7,894.1,9,-25.5,-55.2,25,-68.5291,420.886,907.211,0.825831,-3.27498,-7.41062,
2026_07_06_18_46_20.172,3.87,31.8,0,0.759,0,0,0,0, ,0,0,0,0,0, ,19.1,548.7,858.1,1.4,-26,-56.4,25,-67.854,425.232,905.315,1.09238,-4.64456,-10.3594,
2026_07_06_18_46_20.192,3.87,31.8,0,0.76,0,0,0,0, ,0,0,0,0,0, ,209.3,350.5,939.2,-20.9,-22.5,-49.6,25,-56.76,426.717,904.909,0.431675,-5.83926,-12.9578,
2026_07_06_18_46_20.212,3.87,31.8,0,0.76,0,0,0,0, ,0,0,0,0,0, ,37.1,402.4,914.3,13.2,-4.1,-9.3,25,-45.7937,423.654,906.24,0.17076,-6.2939,-13.9628,
2026_07_06_18_46_20.232,3.87,31.8,0,0.757,0,0,0,0, ,0,0,0,0,0, ,-27.5,476.3,893.7,7.2,-1.4,-3.8,25,-42.7107,424.61,906.103,0.781917,-6.07794,-13.511,
2026_07_06_18_46_20.253,3.87,31.8,0,0.76,0,0,0,0, ,0,0,0,0,0, ,-91.9,421.1,913.8,1.6,-12.4,-15,25,-43.746,426.078,905.96,1.00239,-6.12804,-13.2605,
2026_07_06_18_46_20.272,3.87,31.7,0,0.759,0,0,0,0, ,0,0,0,0,0, ,-18.1,435.5,935.9,2.6,-11.9,-13,25,-44.4318,426.214,907.111,1.06928,-6.495,-13.3056,
2026_07_06_18_46_20.291,3.87,31.8,0,0.761,0,0,0,0, ,0,0,0,0,0, ,12.3,461.1,971.4,-6.4,-18.6,-6,25,-41.9009,427.56,909.947,0.888339,-7.02851,-13.0737,
2026_07_06_18_46_20.311,3.87,31.8,0,0.76,0,0,0,0, ,0,0,0,0,0, ,30.7,480.9,987.5,-16.3,-29.1,6.5,25,-38.0374,430.207,914.182,0.142565,-8.05357,-12.2618,
2026_07_06_18_46_20.331,3.87,31.8,0,0.761,0,0,0,0, ,0,0,0,0,0, ,-55.6,441.8,948.4,-25.5,-41,13.7,25,-36.4782,432.105,917.459,-1.13972,-9.69866,-10.8991,
2026_07_06_18_46_20.350,3.87,31.8,0,0.76,0,0,0,0, ,0,0,0,0,0, ,-39.9,398.6,914.9,-22.6,-46.7,8.1,25,-37.1651,431.379,918.324,-2.53581,-11.7798,-9.57072,
2026_07_06_18_46_20.371,3.87,31.9,0,0.761,0,0,0,0, ,0,0,0,0,0, ,33.3,388.5,927.9,-21.4,-45.4,16.7,25,-35.1014,429.074,918.511,-3.72191,-13.8681,-8.23188,
2026_07_06_18_46_20.390,3.87,31.8,0,0.76,0,0,0,0, ,0,0,0,0,0, ,48.9,420.8,934,-24.9,-50.1,13.4,25,-30.4579,427.586,919.269,-4.90581,-15.9328,-6.81314,
2026_07_06_18_46_20.410,3.87,31.9,0,0.761,0,0,0,0, ,0,0,0,0,0, ,40.4,396.1,931.6,-28.2,-56.9,9.6,25,-25.881,426.42,920.094,-6.22475,-18.222,-5.69718,
2026_07_06_18_46_20.431,3.87,31.8,0,0.76,0,0,0,0, ,0,0,0,0,0, ,88.6,365.8,888,-27.5,-56.1,7.8,25,-20.3734,423.649,919.466,-7.54254,-20.5546,-4.81986,
2026_07_06_18_46_20.454,3.87,31.8,0,0.759,0,0,0,0, ,0,0,0,0,0, ,98.1,381.2,871.3,-15.5,-46,9.8,25,-13.4434,420.593,917.04,-8.39307,-22.4129,-3.9899,
2026_07_06_18_46_20.471,3.87,31.8,0,0.76,0,0,0,0, ,0,0,0,0,0, ,103.5,358.1,898,-17.3,-38.6,10.8,25,-6.48168,417.488,915.066,-8.881,-23.6248,-3.11911,
2026_07_06_18_46_20.489,3.87,31.8,0,0.76,0,0,0,0, ,0,0,0,0,0, ,165,339.1,940.3,-17.5,-38.6,-1.1,25,2.09415,413.291,915.315,-9.40012,-24.5373,-2.63349,
2026_07_06_18_46_20.509,3.87,31.9,0,0.76,0,0,0,0, ,0,0,0,0,0, ,182.6,446,898.6,-30.9,-30.2,0.7,25,12.5575,412.027,915.567,-10.302,-25.1383,-2.4852,
2026_07_06_18_46_20.529,3.87,31.8,0,0.759,0,0,0,0, ,0,0,0,0,0, ,234.1,299.9,930.1,-13.5,-2.9,4,25,24.4886,409.645,915.493,-11.027,-24.615,-2.19055,
2026_07_06_18_46_20.549,3.87,31.9,0,0.76,0,0,0,0, ,0,0,0,0,0, ,200.9,235.1,811.2,-11.6,27.3,5.3,25,36.2502,400.983,912.76,-11.1198,-22.3716,-1.77371,
2026_07_06_18_46_20.569,3.87,31.8,0,0.76,0,0,0,0, ,0,0,0,0,0, ,192,295.7,907.9,-0.9,36.9,-1.2,25,46.0124,392.721,909.518,-10.8231,-19.0522,-1.5407,
2026_07_06_18_46_20.588,3.87,31.9,0,0.762,0,0,0,0, ,0,0,0,0,0, ,142.2,345,998.7,-1.7,21,1.1,25,53.3912,388.311,912.186,-10.2428,-16.1271,-1.44986,
2026_07_06_18_46_20.607,3.87,31.8,0,0.759,0,0,0,0, ,0,0,0,0,0, ,52.2,386.3,977,-10,0.6,13,25,56.0608,386.93,916.797,-9.97508,-14.4862,-0.9319,
2026_07_06_18_46_20.627,3.87,31.8,0,0.759,0,0,0,0, ,0,0,0,0,0, ,53.9,451.5,1030.1,-0.8,-19.6,31.6,25,55.8773,388.878,922.083,-9.69629,-14.1824,0.483794,
2026_07_06_18_46_20.647,3.87,31.8,0,0.759,0,0,0,0, ,0,0,0,0,0, ,97.7,380.8,1053.9,-20.5,-44.1,30.9,25,57.0913,390.54,929.391,-9.7544,-15.259,2.35861,
2026_07_06_18_46_20.667,3.87,31.8,0,0.76,0,0,0,0, ,0,0,0,0,0, ,164.6,338.8,1004.8,-40.9,-48.6,25.2,25,61.6043,388.667,935.482,-11.0308,-17.1536,3.92418,
2026_07_06_18_46_20.687,3.87,31.9,0,0.76,0,0,0,0, ,0,0,0,0,0, ,203.3,321.4,973,-55.8,-40.2,22.2,25,69.0597,385.098,938.737,-13.3049,-18.8139,5.12927,
2026_07_06_18_46_20.707,3.87,31.9,0,0.761,0,0,0,0, ,0,0,0,0,0, ,230.3,238.8,897.3,-59.1,-8.5,11.2,25,78.0626,378.7,938.518,-15.995,-19.1513,5.83436,
2026_07_06_18_46_20.727,3.87,31.9,0,0.759,0,0,0,0, ,0,0,0,0,0, ,159.5,205,901,-39.2,28.4,-3,25,85.1824,369.145,936.119,-18.0154,-17.3779,5.72867,
2026_07_06_18_46_20.746,3.87,31.9,0,0.759,0,0,0,0, ,0,0,0,0,0, ,115.1,252.5,1005,-35.4,41.2,-15.1,25,88.3583,360.59,937.148,-19.1905,-14.1983,4.8281,
2026_07_06_18_46_20.766,3.87,31.8,0,0.759,0,0,0,0, ,0,0,0,0,0, ,78.8,239.6,1023.5,-55,29.1,-24.3,25,88.8819,353.61,941.846,-20.7755,-11.1912,3.33342,
2026_07_06_18_46_20.786,3.87,31.8,0,0.759,0,0,0,0, ,0,0,0,0,0, ,48.7,132.9,969.3,-56.7,14,-37.8,25,87.3504,343.411,945.171,-22.9128,-9.196,1.23818,
2026_07_06_18_46_20.806,3.87,31.7,0,0.76,0,0,0,0, ,0,0,0,0,0, ,121.2,228,906.2,-20,9.9,-49.6,25,87.2041,333.481,944.719,-23.8535,-7.90741,-1.50024,
2026_07_06_18_46_20.825,3.87,31.9,0,0.759,0,0,0,0, ,0,0,0,0,0, ,165.5,282.4,1031.8,-45.6,0.1,-55.4,25,90.6255,328.711,946.198,-24.3987,-7.12087,-4.60804,
2026_07_06_18_46_20.846,3.87,31.9,0,0.761,0,0,0,0, ,0,0,0,0,0, ,58.3,188.8,1028.5,-63.2,-7.1,-55.1,25,91.9219,323.037,951.314,-26.2269,-6.90022,-7.69403,
2026_07_06_18_46_20.866,3.87,31.8,0,0.759,0,0,0,0, ,0,0,0,0,0, ,64.5,117.1,955.8,-53.3,-1.3,-65.4,25,90.062,312.672,953.803,-28.1783,-6.73568,-10.8967,
2026_07_06_18_46_20.885,3.87,31.8,0,0.759,0,0,0,0, ,0,0,0,0,0, ,143.1,59.2,889.8,-46.7,7.2,-75.8,25,90.8992,298.99,951.913,-29.5081,-6.14546,-14.5348,
2026_07_06_18_46_20.905,3.87,31.8,0,0.763,0,0,0,0, ,0,0,0,0,0, ,211.6,77.5,834.8,2.2,-28.5,-11.1,25,96.1673,284.936,946.452,-29.0658,-6.41995,-16.2969,
2026_07_06_18_46_20.925,3.87,31.9,0,0.761,0,0,0,0, ,0,0,0,0,0, ,36.9,231.8,1016.6,-28.1,-87.3,21.9,25,97.8786,276.996,945.188,-28.0837,-9.55702,-14.9747,
2026_07_06_18_46_20.944,3.87,31.8,0,0.76,0,0,0,0, ,0,0,0,0,0, ,202.3,95.8,948.4,-35,-109.2,12.8,25,99.2022,270.098,947.462,-28.295,-14.9617,-13.0049,
2026_07_06_18_46_20.964,3.87,31.8,0,0.76,0,0,0,0, ,0,0,0,0,0, ,297.3,118.5,894,-30.5,-95.4,19.6,25,108.379,260.169,945.861,-28.5664,-20.2839,-11.2252,
2026_07_06_18_46_20.985,3.87,31.8,0,0.76,0,0,0,0, ,0,0,0,0,0, ,326.2,104.3,913.4,-24.2,-55.5,35.3,25,120.772,251.103,943.292,-28.4923,-23.6456,-8.86847,
2026_07_06_18_46_21.004,3.87,31.8,0,0.761,0,0,0,0, ,0,0,0,0,0, ,248.1,59.9,944.2,-19.7,-16.6,34.1,25,130.911,240.805,942.409,-28.0936,-24.4015,-6.21352,
2026_07_06_18_46_21.024,3.87,31.8,0,0.76,0,0,0,0, ,0,0,0,0,0, ,172.7,150.8,1044.4,-2.4,-6.4,29.3,25,135.755,232.55,945.571,-27.055,-23.6153,-3.90316,
2026_07_06_18_46_21.044,3.87,31.8,0,0.761,0,0,0,0, ,0,0,0,0,0, ,189.2,80.9,955.2,-15.8,-32.9,30.1,25,138.509,225.439,948.876,-25.9609,-23.3737,-1.85547,
2026_07_06_18_46_21.063,3.87,31.9,0,0.761,0,0,0,0, ,0,0,0,0,0, ,281.2,57.4,941.2,-6.2,-30.7,24.1,25,144.401,215.915,948.834,-25.0492,-23.8872,-0.0909947,
2026_07_06_18_46_21.083,3.87,31.8,0,0.76,0,0,0,0, ,0,0,0,0,0, ,303.3,42.7,934,-8.3,-8.4,20.9,25,153.41,205.808,948.15,-23.9646,-23.6229,1.28564,
2026_07_06_18_46_21.103,3.87,31.8,0,0.758,0,0,0,0, ,0,0,0,0,0, ,342.7,61,923.7,-8.3,10.3,16.6,25,163.745,196.426,946.974,-23.01,-22.1254,2.34988,
2026_07_06_18_46_21.122,3.87,31.9,0,0.759,0,0,0,0, ,0,0,0,0,0, ,248.6,75.8,988,-9.8,12.6,16.4,25,171.783,188.624,947.515,-22.1593,-20.0794,3.21215,
2026_07_06_18_46_21.142,3.87,31.9,0,0.76,0,0,0,0, ,0,0,0,0,0, ,110.7,70.3,987.4,-10.3,-7.1,8.1,25,172.262,181.581,949.963,-21.4214,-18.6883,3.76289,
2026_07_06_18_46_21.162,3.87,31.8,0,0.761,0,0,0,0, ,0,0,0,0,0, ,161.8,57.7,998,-13,-42.7,4.2,25,170.068,174.416,952.568,-20.826,-19.0668,3.90836,
2026_07_06_18_46_21.182,3.87,31.9,0,0.76,0,0,0,0, ,0,0,0,0,0, ,296.1,12.8,985.1,-12.3,-68.9,21.9,25,173.656,165.936,954.943,-20.3278,-21.3052,4.46543,
2026_07_06_18_46_21.202,3.87,31.8,0,0.759,0,0,0,0, ,0,0,0,0,0, ,362.3,14,928.9,-9.2,-69.4,26.1,25,183.134,156.641,955.069,-19.7441,-24.2208,5.65582,
2026_07_06_18_46_21.222,3.87,31.8,0,0.759,0,0,0,0, ,0,0,0,0,0, ,338,21.9,929.1,-10.2,-51,20.1,25,193.312,148.189,953.48,-19.1321,-26.4133,6.71882,
2026_07_06_18_46_21.242,3.87,31.8,0,0.761,0,0,0,0, ,0,0,0,0,0, ,311.6,13.5,934.3,-13.8,-40.8,10.5,25,201.324,140.238,952.153,-18.6974,-27.6007,7.24174,
2026_07_06_18_46_21.261,3.87,31.9,0,0.76,0,0,0,0, ,0,0,0,0,0, ,368.8,2.9,905.6,-11.1,-50.4,1.9,25,209.787,132.192,950.19,-18.3167,-28.6976,7.17826,
2026_07_06_18_46_21.281,3.87,31.8,0,0.76,0,0,0,0, ,0,0,0,0,0, ,432.6,7.3,895.7,-9.8,-65.7,0.9,25,221.421,124.447,947.172,-17.8374,-30.4862,6.82614,
2026_07_06_18_46_21.301,3.87,31.9,0,0.761,0,0,0,0, ,0,0,0,0,0, ,480.9,10.8,871.8,-5.8,-65.3,16.6,25,235.761,117.415,943.307,-17.2257,-32.6199,6.94338,
2026_07_06_18_46_21.325,3.87,31.8,0,0.759,0,0,0,0, ,0,0,0,0,0, ,446,7.2,864.8,-4.5,-52,36.3,25,249.636,110.808,938.736,-16.4898,-34.2061,8.13206,
2026_07_06_18_46_21.344,3.87,31.8,0,0.761,0,0,0,0, ,0,0,0,0,0, ,415.8,8.1,911.9,-1.7,-48.8,25.4,25,260.682,104.522,935.666,-15.6739,-35.1929,9.51644,
2026_07_06_18_46_21.360,3.87,31.8,0,0.759,0,0,0,0, ,0,0,0,0,0, ,430,-17.2,900.8,0,-50.8,15.5,25,270.567,97.8756,933.879,-14.7706,-36.083,10.1827,
2026_07_06_18_46_21.380,3.87,31.8,0,0.759,0,0,0,0, ,0,0,0,0,0, ,435.1,-43.2,902,-3.8,-35,8.2,25,280.438,90.071,931.9,-13.9863,-36.4984,10.2843,
2026_07_06_18_46_21.400,3.87,31.8,0,0.759,0,0,0,0, ,0,0,0,0,0, ,557.9,-12.2,815.3,-18.6,28.3,-0.2,25,293.604,82.8943,927.436,-13.8165,-34.4785,9.90135,
2026_07_06_18_46_21.420,3.87,31.8,0,0.76,0,0,0,0, ,0,0,0,0,0, ,474.7,-13.3,852,-16.4,60.5,-13.9,25,307.175,77.066,921.721,-14.0409,-29.6718,8.86838,
2026_07_06_18_46_21.439,3.87,31.9,0,0.76,0,0,0,0, ,0,0,0,0,0, ,389.7,20.8,887.8,11,32.1,-2.6,25,314.793,72.5983,918.563,-13.3499,-25.0423,7.82523,
2026_07_06_18_46_21.459,3.87,31.8,0,0.759,0,0,0,0, ,0,0,0,0,0, ,433.4,1.9,953.9,30.6,28.1,-10,25,320.689,68.866,918.703,-11.2688,-21.682,6.96447,
2026_07_06_18_46_21.479,3.87,31.9,0,0.759,0,0,0,0, ,0,0,0,0,0, ,422.4,-7.3,960,43.8,38,1.5,25,327.223,64.5049,921.033,-8.31528,-18.3468,6.28109,
2026_07_06_18_46_21.499,3.87,31.8,0,0.761,0,0,0,0, ,0,0,0,0,0, ,397.5,9.5,936.6,27.4,32.6,5.4,25,332.264,60.6412,922.695,-5.63919,-15.0777,6.10857,
2026_07_06_18_46_21.519,3.87,31.9,0,0.76,0,0,0,0, ,0,0,0,0,0, ,378.1,20.3,917.8,12.6,20.7,8.3,25,335.648,57.8538,922.97,-4.0768,-12.5349,6.15375,
2026_07_06_18_46_21.538,3.87,31.8,0,0.76,0,0,0,0, ,0,0,0,0,0, ,373.7,11.9,905.7,8.8,12.5,7.3,25,338.101,55.3094,922.286,-3.17634,-10.7595,6.25407,
2026_07_06_18_46_21.561,3.87,31.9,0,0.761,0,0,0,0, ,0,0,0,0,0, ,369.6,25.1,921,16.7,4.8,6.9,25,340.145,53.0664,921.741,-2.20583,-9.57674,6.30562,
2026_07_06_18_46_21.580,3.87,31.8,0,0.76,0,0,0,0, ,0,0,0,0,0, ,368.8,30.5,943.1,12.8,1.8,7.2,25,341.916,51.5267,922.369,-1.17259,-8.79207,6.35098,
2026_07_06_18_46_21.598,3.87,31.9,0,0.761,0,0,0,0, ,0,0,0,0,0, ,363.8,42.7,951.7,2,2.9,6.8,25,343.402,50.6171,923.895,-0.650194,-8.1131,6.39053,
2026_07_06_18_46_21.617,3.87,31.9,0,0.76,0,0,0,0, ,0,0,0,0,0, ,373.4,37.9,933.4,-3.4,1.8,5.5,25,344.937,49.9884,925.032,-0.653229,-7.4755,6.37587,
2026_07_06_18_46_21.637,3.87,31.8,0,0.76,0,0,0,0, ,0,0,0,0,0, ,387.2,39.5,913.6,-3.7,-0.5,5.8,25,347.092,49.3005,924.938,-0.829751,-6.98035,6.33164,
2026_07_06_18_46_21.657,3.87,31.9,0,0.76,0,0,0,0, ,0,0,0,0,0, ,387.5,31.4,918.3,-5.4,-4.9,5.9,25,349.545,48.4565,924.391,-1.05645,-6.71952,6.30229,
2026_07_06_18_46_21.677,3.87,31.9,0,0.761,0,0,0,0, ,0,0,0,0,0, ,368.8,35.2,936.1,-5.1,-6,4.9,25,351.288,47.5329,924.562,-1.312,-6.64216,6.24731,
2026_07_06_18_46_21.698,3.87,31.7,0,0.761,0,0,0,0, ,0,0,0,0,0, ,364.8,26.9,948.4,-3.1,-2.9,2.9,25,352.234,46.5285,925.64,-1.48189,-6.50857,6.10427,
2026_07_06_18_46_21.717,3.87,31.8,0,0.759,0,0,0,0, ,0,0,0,0,0, ,379.2,21.8,941.6,-4.1,1.8,2.1,25,353.438,45.177,926.819,-1.61096,-6.14547,5.88463,
2026_07_06_18_46_21.736,3.87,31.8,0,0.76,0,0,0,0, ,0,0,0,0,0, ,411.7,-0.7,929,-5.5,1.4,2.1,25,355.998,43.0669,927.336,-1.8053,-5.67348,5.65401,
2026_07_06_18_46_21.756,3.87,31.8,0,0.76,0,0,0,0, ,0,0,0,0,0, ,399,24.4,919.7,-9.9,-2.8,5.1,25,359.006,41.1646,927.154,-2.1645,-5.37041,5.52884,
2026_07_06_18_46_21.776,3.87,31.9,0,0.761,0,0,0,0, ,0,0,0,0,0, ,373.1,15.8,918.8,-10,-8.9,5.9,25,360.654,39.881,926.673,-2.63893,-5.39964,5.52708,
2026_07_06_18_46_21.796,3.87,31.9,0,0.76,0,0,0,0, ,0,0,0,0,0, ,367.1,10.3,908.8,-10.1,-9.2,4.4,25,361.229,38.246,925.888,-3.09054,-5.62208,5.5041,
2026_07_06_18_46_21.816,3.87,31.8,0,0.76,0,0,0,0, ,0,0,0,0,0, ,379,5.8,911.6,-9.1,-10.1,1.2,25,361.95,36.4059,924.932,-3.48721,-5.86753,5.33932,
2026_07_06_18_46_21.836,3.87,31.7,0,0.76,0,0,0,0, ,0,0,0,0,0, ,401.8,-15.9,919.9,-0.9,-7.1,1.7,25,363.683,33.8797,924.373,-3.5794,-6.03404,5.10232,
2026_07_06_18_46_21.856,3.87,31.8,0,0.76,0,0,0,0, ,0,0,0,0,0, ,424.8,-6.5,892.8,0,-6.9,4,25,366.707,31.1326,923.274,-3.3887,-6.0929,4.96507,
2026_07_06_18_46_21.875,3.87,31.9,0,0.76,0,0,0,0, ,0,0,0,0,0, ,396.1,0.6,867.6,2.2,-27,6.5,25,369.372,29.0557,920.649,-3.11517,-6.75451,4.98243,
2026_07_06_18_46_21.895,3.87,31.8,0,0.76,0,0,0,0, ,0,0,0,0,0, ,378.6,-4.6,898.3,2.3,-54.5,3.2,25,370.468,27.1633,918.352,-2.78823,-8.82611,4.97436,
2026_07_06_18_46_21.915,3.87,31.8,0,0.76,0,0,0,0, ,0,0,0,0,0, ,415,-15,943.4,5.7,-64.2,-1.2,25,372.073,24.9108,918.504,-2.37457,-11.9049,4.73217,
2026_07_06_18_46_21.934,3.87,31.8,0,0.761,0,0,0,0, ,0,0,0,0,0, ,446.5,-34.4,965,4.2,-63.8,-3.5,25,375.648,21.8877,920.68,-1.92823,-15.0795,4.3006,
2026_07_06_18_46_21.954,3.87,31.9,0,0.76,0,0,0,0, ,0,0,0,0,0, ,453.2,-16.1,937.9,0.4,-57.3,-3.1,25,380.17,19.0152,922.555,-1.67057,-17.8503,3.83744,
2026_07_06_18_46_21.974,3.87,31.9,0,0.759,0,0,0,0, ,0,0,0,0,0, ,491.5,20.1,917.9,-3.5,-57.3,2.6,25,385.787,17.9784,922.88,-1.66323,-20.2543,3.58836,
2026_07_06_18_46_22.000,3.87,31.9,0,0.76,0,0,0,0, ,0,0,0,0,0, ,522.7,-29.1,897.3,-5.8,-70.7,-1.6,25,393.18,16.6086,921.949,-1.84523,-22.92,3.40017,
2026_07_06_18_46_22.020,3.87,31.8,0,0.759,0,0,0,0, ,0,0,0,0,0, ,512.9,1.9,863.2,-11.5,-77.4,-7.6,25,400.774,14.7677,919.408,-2.2599,-26.0358,2.91266,
2026_07_06_18_46_22.034,3.87,31.8,0,0.76,0,0,0,0, ,0,0,0,0,0, ,488,10.4,823.8,-12.7,-79.1,-12.6,25,406.848,14.2426,914.783,-2.85953,-29.2176,2.1197,
2026_07_06_18_46_22.053,3.87,31.8,0,0.76,0,0,0,0, ,0,0,0,0,0, ,503.7,5.1,804.4,-12.7,-81.7,-16.1,25,412.271,13.847,908.647,-3.45918,-32.3365,1.11607,
2026_07_06_18_46_22.073,3.87,31.8,0,0.759,0,0,0,0, ,0,0,0,0,0, ,583.6,9.1,787.7,-12.4,-78.5,-14.6,25,420.277,13.4358,901.786,-4.01316,-35.2471,0.112673,
2026_07_06_18_46_22.093,3.87,31.8,0,0.76,0,0,0,0, ,0,0,0,0,0, ,591.3,1.2,845.2,-12,-79.6,1.3,25,430.464,12.9309,896.586,-4.51204,-37.9163,-0.299427,
2026_07_06_18_46_22.113,3.87,31.8,0,0.76,0,0,0,0, ,0,0,0,0,0, ,627.1,-11.2,793.9,-5,-85.2,17,25,441.356,11.8382,891.891,-4.75506,-40.627,0.276397,
2026_07_06_18_46_22.133,3.87,31.9,0,0.761,0,0,0,0, ,0,0,0,0,0, ,617.4,-24.1,720.9,-4.3,-87.8,3.8,25,452.379,10.0413,883.696,-4.74866,-43.4224,0.893304,
2026_07_06_18_46_22.152,3.87,31.8,0,0.76,0,0,0,0, ,0,0,0,0,0, ,644,49.5,670.1,3,-82.8,1.5,25,463.246,10.2033,872.228,-4.49889,-45.9743,1.00035,
2026_07_06_18_46_22.172,3.87,31.8,0,0.76,0,0,0,0, ,0,0,0,0,0, ,641.6,38.2,723.3,-0.3,-76.8,11.9,25,474.187,12.2537,861.531,-4.14248,-48.0356,1.34768,
2026_07_06_18_46_22.192,3.87,31.8,0,0.76,0,0,0,0, ,0,0,0,0,0, ,710.9,-8.4,693.7,1.8,-83,15.3,25,486.5,12.4149,852.206,-3.84434,-49.9773,2.0943,
2026_07_06_18_46_22.213,3.87,31.9,0,0.759,0,0,0,0, ,0,0,0,0,0, ,823.6,-14.6,608,6.5,-85.8,26.6,25,503.609,10.9576,839.936,-3.35719,-52.075,3.24332,
2026_07_06_18_46_22.237,3.87,31.8,0,0.76,0,0,0,0, ,0,0,0,0,0, ,801.1,-3.9,617.7,28.5,-77.8,37.1,25,522.423,9.7262,826.098,-2.0862,-53.8863,4.98654,
2026_07_06_18_46_22.256,3.87,31.9,0,0.76,0,0,0,0, ,0,0,0,0,0, ,683.9,42.4,594.1,19.8,-62.2,47.8,25,535.833,10.3066,812.68,-0.487433,-54.8683,7.26947,
2026_07_06_18_46_22.270,3.87,31.9,0,0.76,0,0,0,0, ,0,0,0,0,0, ,747.9,-95.5,559.2,21.4,-53.7,49,25,546.806,8.06061,798.296,0.797582,-55.0561,9.77586,
2026_07_06_18_46_22.291,3.87,31.9,0,0.76,0,0,0,0, ,0,0,0,0,0, ,869.1,-146.4,674.8,4.1,-55,18.2,25,562.753,0.199027,787.249,1.52593,-55.013,11.2276,
2026_07_06_18_46_22.310,3.87,31.8,0,0.761,0,0,0,0, ,0,0,0,0,0, ,823.9,-85.9,578.9,-8.7,-31.3,14.5,25,580.044,-6.89099,777.474,1.29279,-54.2901,11.5398,
2026_07_06_18_46_22.330,3.87,31.8,0,0.76,0,0,0,0, ,0,0,0,0,0, ,802.6,-96.1,547.4,-11.5,-13.1,3.5,25,594.255,-12.0164,764.414,0.598542,-52.3346,11.385,
2026_07_06_18_46_22.350,3.87,31.8,0,0.76,0,0,0,0, ,0,0,0,0,0, ,793.3,-42.8,567.5,-1.2,-15.8,-5.2,25,606.668,-15.5162,751.802,0.175115,-50.026,10.6394,
2026_07_06_18_46_22.372,3.87,31.9,0,0.76,0,0,0,0, ,0,0,0,0,0, ,835.3,-49.9,583.9,2.9,-5.3,-9.1,25,619.32,-17.3952,741.071,0.216241,-47.6205,9.5554,
2026_07_06_18_46_22.390,3.87,31.9,0,0.76,0,0,0,0, ,0,0,0,0,0, ,868.2,-80.9,609.1,3.3,-4.5,-17.4,25,633.484,-20.3205,732.261,0.39197,-45.0172,8.1657,
2026_07_06_18_46_22.409,3.87,31.8,0,0.76,0,0,0,0, ,0,0,0,0,0, ,868.6,-60.1,533.6,-2.2,-17.6,-9.5,25,647.799,-23.3783,722.456,0.4016,-42.9473,6.84849,
2026_07_06_18_46_22.429,3.87,31.9,0,0.76,0,0,0,0, ,0,0,0,0,0, ,863.7,-44.1,505.1,1.8,-16.4,-6,25,661.105,-25.1285,710.079,0.36494,-41.3662,5.9589,
2026_07_06_18_46_22.450,3.87,31.9,0,0.761,0,0,0,0, ,0,0,0,0,0, ,714.2,48.3,475.2,11.1,-8.2,-5,25,668.895,-23.4693,696.677,0.735748,-39.5949,5.26062,
2026_07_06_18_46_22.469,3.87,31.8,0,0.76,0,0,0,0, ,0,0,0,0,0, ,827.5,-121.7,597.9,-0.9,-17.7,-5.4,25,675.108,-24.2755,686.919,1.00169,-37.9713,4.62318,
2026_07_06_18_46_22.495,3.87,31.8,0,0.76,0,0,0,0, ,0,0,0,0,0, ,821.8,9.2,596.5,4.1,-16.4,-9.2,25,684.221,-26.224,681.452,1.03815,-36.6964,3.89661,
2026_07_06_18_46_22.509,3.87,31.8,0,0.76,0,0,0,0, ,0,0,0,0,0, ,814.6,-72.8,545,0.8,-8.7,-18.3,25,692.385,-26.5638,674.706,1.12419,-35.2249,2.82127,
2026_07_06_18_46_22.528,3.87,31.9,0,0.761,0,0,0,0, ,0,0,0,0,0, ,853.5,-48.3,487.7,0.7,-19.4,-8.2,25,701.018,-28.6348,665.056,1.10139,-33.9346,1.84193,
2026_07_06_18_46_22.548,3.87,31.8,0,0.759,0,0,0,0, ,0,0,0,0,0, ,830.6,-17.2,518.6,-7,-39.1,-0.5,25,709.612,-28.8856,655.19,0.842317,-33.6491,1.4646,
2026_07_06_18_46_22.568,3.87,31.8,0,0.76,0,0,0,0, ,0,0,0,0,0, ,802.2,1.7,582,-5.7,-35,5.4,25,716.12,-27.5976,648.798,0.404036,-33.8564,1.52465,
2026_07_06_18_46_22.589,3.87,31.8,0,0.76,0,0,0,0, ,0,0,0,0,0, ,815.7,-44.4,545.2,-13.9,-17,6.2,25,721.776,-27.2169,643.607,-0.217773,-33.3776,1.78518,
2026_07_06_18_46_22.608,3.87,31.8,0,0.76,0,0,0,0, ,0,0,0,0,0, ,900,-31.9,526.1,-7.2,-16.7,10,25,730.068,-27.8831,637.028,-0.847393,-32.3705,2.16999,
2026_07_06_18_46_22.627,3.87,31.9,0,0.761,0,0,0,0, ,0,0,0,0,0, ,891.7,92.5,412.5,11,-37.2,6.6,25,740.171,-24.3376,626.807,-0.679974,-32.0402,2.54354,
2026_07_06_18_46_22.647,3.87,31.8,0,0.76,0,0,0,0, ,0,0,0,0,0, ,872.5,-176.8,654.6,7.3,-55.6,-6.3,25,748.82,-25.423,621.124,-0.0809596,-32.9152,2.39768,
2026_07_06_18_46_22.668,3.87,31.8,0,0.76,0,0,0,0, ,0,0,0,0,0, ,850.2,-18.9,443.7,-4,-8.7,10.9,25,755.677,-29.8366,616.738,0.0245208,-32.8686,2.39173,
2026_07_06_18_46_22.688,3.87,31.9,0,0.76,0,0,0,0, ,0,0,0,0,0, ,915,-41.7,419.5,2.1,-1.6,5,25,763.411,-29.8648,605.456,-0.0348641,-31.1795,2.73044,
2026_07_06_18_46_22.706,3.87,31.8,0,0.76,0,0,0,0, ,0,0,0,0,0, ,919.5,-51.3,402.8,10,6.2,14.7,25,772.786,-30.8785,593.616,0.335932,-29.1393,3.16428,
2026_07_06_18_46_22.728,3.87,31.9,0,0.76,0,0,0,0, ,0,0,0,0,0, ,895.7,-40.8,439.2,12.7,8.7,16.2,25,781.001,-31.803,583.097,1.0071,-26.9097,3.91295,
2026_07_06_18_46_22.746,3.87,31.8,0,0.761,0,0,0,0, ,0,0,0,0,0, ,878.9,-57.9,487.4,8.6,14,17.4,25,787.479,-32.8723,575.797,1.59472,-24.5782,4.69825,
2026_07_06_18_46_22.767,3.87,31.8,0,0.761,0,0,0,0, ,0,0,0,0,0, ,848.2,-48.2,479.7,11,15.8,15.6,25,792.114,-34.1019,570.176,2.09473,-22.1725,5.41742,
2026_07_06_18_46_22.785,3.87,31.9,0,0.76,0,0,0,0, ,0,0,0,0,0, ,866.8,-67.9,477.1,11.8,21.5,14.3,25,796.099,-35.5612,564.583,2.66177,-19.6849,5.99831,
2026_07_06_18_46_22.805,3.87,31.9,0,0.76,0,0,0,0, ,0,0,0,0,0, ,858.3,-73.6,492.3,16.9,29.8,12,25,800.148,-37.7055,559.715,3.37402,-16.9223,6.43412,
2026_07_06_18_46_22.825,3.87,31.9,0,0.76,0,0,0,0, ,0,0,0,0,0, ,822.3,-56,456.9,27.3,19.6,10.6,25,802.595,-39.3566,554.528,4.51513,-14.3859,6.73063,
2026_07_06_18_46_22.848,3.87,31.8,0,0.76,0,0,0,0, ,0,0,0,0,0, ,827.8,-44.4,530.6,39,23.8,-6.5,25,803.963,-40.0174,550.825,6.26007,-12.187,6.44541,
2026_07_06_18_46_22.865,3.87,31.8,0,0.759,0,0,0,0, ,0,0,0,0,0, ,880.9,-53.8,610.5,35.1,35.5,1.1,25,807.034,-40.5708,552.027,8.13633,-9.63751,5.88811,
2026_07_06_18_46_22.885,3.87,31.9,0,0.76,0,0,0,0, ,0,0,0,0,0, ,790.6,-52.3,616.4,22.1,58.6,11.3,25,808.784,-41.3313,555.77,9.38333,-6.18312,5.90711,
2026_07_06_18_46_22.904,3.87,31.8,0,0.761,0,0,0,0, ,0,0,0,0,0, ,785.8,-47.8,614.9,19.6,111.5,10.3,25,807.529,-41.8626,559.419,10.0821,-0.623601,6.20527,
2026_07_06_18_46_22.926,3.87,31.8,0,0.759,0,0,0,0, ,0,0,0,0,0, ,799.9,-53.7,626.3,23,152.7,9.8,25,806.635,-42.4042,563.147,10.7657,7.46424,6.43956,
2026_07_06_18_46_22.944,3.87,31.8,0,0.76,0,0,0,0, ,0,0,0,0,0, ,781.7,-75.1,695.9,20.7,163.4,16.9,25,805.67,-43.7445,569.116,11.4411,16.6406,6.86067,
2026_07_06_18_46_22.964,3.87,31.8,0,0.759,0,0,0,0, ,0,0,0,0,0, ,695.1,-43.3,737.9,3.9,167.6,22.5,25,801.571,-44.6863,578.122,11.4935,25.7117,7.64306,
2026_07_06_18_46_22.984,3.87,31.8,0,0.76,0,0,0,0, ,0,0,0,0,0, ,652.3,-76.9,712.7,14.8,163.8,21.1,25,793.778,-45.6256,587.09,11.3628,34.2422,8.50575,
2026_07_06_18_46_23.005,3.87,31.8,0,0.761,0,0,0,0, ,0,0,0,0,0, ,653.5,-47.8,752.9,5,144.8,21.3,25,785.194,-46.6448,595.969,11.2737,41.5582,9.27931,
2026_07_06_18_46_23.023,3.87,31.8,0,0.76,0,0,0,0, ,0,0,0,0,0, ,686.1,-32.2,778.4,22.8,146.8,20.4,25,778.162,-46.2398,606.309,11.4337,47.9105,9.9844,
2026_07_06_18_46_23.044,3.87,31.9,0,0.76,0,0,0,0, ,0,0,0,0,0, ,514.6,-31.7,785.5,17.3,145.9,21.5,25,767.326,-45.3691,617.012,11.9588,53.9091,10.6526,
2026_07_06_18_46_23.064,3.87,31.8,0,0.761,0,0,0,0, ,0,0,0,0,0, ,494.8,-32.1,879.2,10.9,110.4,12.7,25,751.323,-44.5483,630.135,12.0893,58.4332,11.0455,
2026_07_06_18_46_23.085,3.87,31.8,0,0.76,0,0,0,0, ,0,0,0,0,0, ,486.4,-58.4,996.3,-4.3,91.8,12.2,25,735.435,-44.591,648.88,11.5537,61.0332,11.1311,
2026_07_06_18_46_23.102,3.87,31.8,0,0.76,0,0,0,0, ,0,0,0,0,0, ,444.4,-55.5,907.2,-18.8,66.1,11.7,25,718.98,-45.3442,667.336,10.1458,62.125,11.181,
2026_07_06_18_46_23.122,3.87,31.9,0,0.76,0,0,0,0, ,0,0,0,0,0, ,402.4,-68.8,921.8,-13,58,10.3,25,700.968,-46.3683,682.398,8.55863,62.1204,11.17,
2026_07_06_18_46_23.142,3.87,31.8,0,0.761,0,0,0,0, ,0,0,0,0,0, ,161.2,-134.3,1082.2,-30.9,46.9,4.3,25,675.425,-49.7309,701.873,6.69951,61.5311,10.9341,
2026_07_06_18_46_23.163,3.87,31.9,0,0.759,0,0,0,0, ,0,0,0,0,0, ,364.7,-42.1,964.1,-51.8,27.3,-17.2,25,650.29,-52.0751,721.451,3.7715,60.0424,9.87479,
2026_07_06_18_46_23.182,3.87,31.8,0,0.76,0,0,0,0, ,0,0,0,0,0, ,629.7,-103.6,948.9,-49.6,-28,-5.7,25,640.961,-53.3411,735.774,0.452141,56.3622,8.57531,
2026_07_06_18_46_23.203,3.87,31.9,0,0.76,0,0,0,0, ,0,0,0,0,0, ,356.5,-146.2,984.7,-69.8,-45,13.1,25,631.95,-57.7017,749.853,-3.21338,50.7034,8.27822,
2026_07_06_18_46_23.221,3.87,31.9,0,0.76,0,0,0,0, ,0,0,0,0,0, ,388.7,-92,898.9,-54.6,-12.4,20.6,25,616.146,-61.4432,761.549,-6.80788,45.8648,8.80056,
2026_07_06_18_46_23.242,3.87,31.8,0,0.76,0,0,0,0, ,0,0,0,0,0, ,440,-174,865.3,-50.1,-10.3,16.8,25,603.849,-65.8037,768.895,-9.5831,42.3782,9.40381,
2026_07_06_18_46_23.261,3.87,31.9,0,0.759,0,0,0,0, ,0,0,0,0,0, ,458.9,-98.5,910.5,-43.7,-80.4,25.3,25,594.441,-70.0965,776.147,-11.8571,37.0323,10.1135,
2026_07_06_18_46_23.282,3.87,31.9,0,0.759,0,0,0,0, ,0,0,0,0,0, ,427.4,-173.7,761.8,-49.9,-108.8,52.5,25,585.221,-74.1186,779.804,-13.9864,29.011,11.8677,
2026_07_06_18_46_23.300,3.87,31.9,0,0.76,0,0,0,0, ,0,0,0,0,0, ,341.4,-258.9,666,-27.4,-82.7,37.7,25,572.984,-82.7828,775.788,-15.4894,21.4083,13.8928,
2026_07_06_18_46_23.321,3.87,31.8,0,0.759,0,0,0,0, ,0,0,0,0,0, ,449.3,-260.6,821.6,-21,-99.6,10.3,25,562.159,-93.5667,773.838,-16.0202,14.5493,14.5087,
2026_07_06_18_46_23.340,3.87,31.8,0,0.761,0,0,0,0, ,0,0,0,0,0, ,544.4,-227.5,703.8,21.8,-140,11.6,25,558.179,-102.737,773.16,-15.0196,6.36241,14.2918,
2026_07_06_18_46_23.361,3.87,31.9,0,0.759,0,0,0,0, ,0,0,0,0,0, ,364.9,-158.3,644.7,75,-179.7,46.1,25,551.871,-108.231,767.132,-11.1549,-3.76616,15.179,
2026_07_06_18_46_23.380,3.87,31.8,0,0.76,0,0,0,0, ,0,0,0,0,0, ,517.8,-263.7,591.1,61.3,-224.2,31.5,25,545.136,-114.494,758.039,-6.32229,-15.843,16.6184,
2026_07_06_18_46_23.403,3.87,31.8,0,0.76,0,0,0,0, ,0,0,0,0,0, ,649.7,-236,581.2,51,-223.3,3.8,25,547.489,-122.742,747.564,-2.51539,-28.5123,16.6812,
2026_07_06_18_46_23.419,3.87,31.9,0,0.761,0,0,0,0, ,0,0,0,0,0, ,633.3,-181.5,583.7,39.7,-227.8,-11,25,553.218,-127.983,737.502,0.401409,-40.5193,15.4453,
2026_07_06_18_46_23.440,3.87,31.9,0,0.76,0,0,0,0, ,0,0,0,0,0, ,736.8,-178.1,539.7,0,-250.1,-15.9,25,561.251,-131.141,726.789,1.58656,-52.6112,13.6845,
2026_07_06_18_46_23.459,3.87,31.9,0,0.76,0,0,0,0, ,0,0,0,0,0, ,904.6,-252.9,493,4.7,-242.1,-10,25,577.061,-136.281,713.966,1.63308,-64.4019,12.0615,
2026_07_06_18_46_23.481,3.87,31.9,0,0.761,0,0,0,0, ,0,0,0,0,0, ,990.2,-227,537.2,2.9,-197.2,-17.5,25,599.629,-142.599,701.847,1.76513,-73.8623,10.4886,
2026_07_06_18_46_23.503,3.87,31.8,0,0.76,0,0,0,0, ,0,0,0,0,0, ,1052.8,-170.7,396.4,24.8,-143.1,16,25,625.337,-146.026,687.524,2.50155,-79.7299,9.80375,
2026_07_06_18_46_23.525,3.87,31.9,0,0.758,0,0,0,0, ,0,0,0,0,0, ,730.9,-222.5,462,19.3,-98.5,10.5,25,641.577,-149.108,671.783,3.69278,-82.2326,10.0138,
2026_07_06_18_46_23.538,3.87,31.8,0,0.76,0,0,0,0, ,0,0,0,0,0, ,891.1,-137.5,446.4,-32.9,-102,-26.9,25,651.901,-150.991,658.524,3.05338,-83.3305,8.90386,
2026_07_06_18_46_23.560,3.87,31.8,0,0.76,0,0,0,0, ,0,0,0,0,0, ,963.6,-190.9,275.6,-59.2,-77.4,-15.8,25,668.687,-151.796,640.393,0.0611409,-83.7186,7.06026,
2026_07_06_18_46_23.577,3.87,31.9,0,0.76,0,0,0,0, ,0,0,0,0,0, ,964.7,-172.3,179.4,-36.5,-22.9,-13.6,25,686.691,-153.612,615.233,-2.85844,-81.6731,5.73425,
2026_07_06_18_46_23.599,3.87,31.8,0,0.76,0,0,0,0, ,0,0,0,0,0, ,801.8,-279.4,201.1,-20.5,32.1,-2.9,25,698.669,-158.014,589.335,-4.42098,-76.4158,4.88208,
2026_07_06_18_46_23.618,3.87,31.9,0,0.76,0,0,0,0, ,0,0,0,0,0, ,826.1,-165.4,270.2,37.9,72.1,-25.9,25,705.694,-161.937,567.783,-3.62142,-68.5844,3.70708,
2026_07_06_18_46_23.639,3.87,31.8,0,0.759,0,0,0,0, ,0,0,0,0,0, ,830.3,-137.5,431.2,15.6,23.4,-22.8,25,713.159,-161.298,554.554,-1.77066,-61.4952,1.99735,
2026_07_06_18_46_23.657,3.87,31.9,0,0.76,0,0,0,0, ,0,0,0,0,0, ,965.4,-148.9,314.9,19.9,-6.8,-18.9,25,724.414,-160.195,543.494,-0.581119,-57.2421,0.605093,
2026_07_06_18_46_23.678,3.87,31.9,0,0.758,0,0,0,0, ,0,0,0,0,0, ,943.8,-159.4,266.4,27.4,-10.2,-16.4,25,738.441,-159.827,528.086,0.895465,-54.2719,-0.507327,
2026_07_06_18_46_23.696,3.87,31.8,0,0.759,0,0,0,0, ,0,0,0,0,0, ,949.4,-125.2,233.5,31.2,4.4,-24.3,25,751.126,-158.759,511.137,2.62637,-51.1414,-1.71649,
2026_07_06_18_46_23.718,3.87,31.9,0,0.76,0,0,0,0, ,0,0,0,0,0, ,960.4,-101.3,297.7,45.9,1.7,-26,25,763.543,-155.986,496.175,4.81546,-47.8391,-3.14447,
2026_07_06_18_46_23.736,3.87,31.9,0,0.76,0,0,0,0, ,0,0,0,0,0, ,946.2,-79.9,386.3,33.9,-18.6,-19.2,25,775.106,-152.001,486.78,6.95343,-45.4388,-4.33004,
2026_07_06_18_46_23.757,3.87,31.7,0,0.76,0,0,0,0, ,0,0,0,0,0, ,968.7,-74,474.2,17,-31.6,-13.9,25,786.218,-147.428,483.335,8.08056,-44.1994,-5.07469,
2026_07_06_18_46_23.775,3.87,31.8,0,0.759,0,0,0,0, ,0,0,0,0,0, ,948.4,-72.6,435.3,0.6,-36,-10.6,25,796.719,-142.911,481.593,8.1244,-43.5657,-5.51194,
2026_07_06_18_46_23.798,3.87,31.9,0,0.76,0,0,0,0, ,0,0,0,0,0, ,937.7,-93.2,369.7,-5,-28.9,-13.3,25,805.636,-139.254,476.773,7.49526,-42.8884,-5.90426,
2026_07_06_18_46_23.815,3.87,31.8,0,0.76,0,0,0,0, ,0,0,0,0,0, ,957,-92.8,323.2,-7.1,-17.4,-16.5,25,814.272,-136.435,468.832,6.66984,-41.6856,-6.45244,
2026_07_06_18_46_23.836,3.87,31.9,0,0.76,0,0,0,0, ,0,0,0,0,0, ,963.7,-98.8,301.6,-12.7,-12.4,-14,25,823.174,-133.959,459.299,5.66012,-40.0533,-6.98854,
2026_07_06_18_46_23.855,3.87,31.8,0,0.76,0,0,0,0, ,0,0,0,0,0, ,908.2,-119.6,271.3,-9.9,-21,-12.6,25,830.046,-132.45,448.766,4.62661,-38.6302,-7.37314,
2026_07_06_18_46_23.877,3.87,31.9,0,0.76,0,0,0,0, ,0,0,0,0,0, ,966.5,-45,217,-23,-9.9,-9.9,25,836.585,-129.394,436.297,3.34226,-37.2177,-7.60939,
2026_07_06_18_46_23.894,3.87,31.8,0,0.758,0,0,0,0, ,0,0,0,0,0, ,966,-113.6,281.4,2.3,-30.6,-19.3,25,844.486,-126.342,424.896,2.50788,-36.1837,-8.03538,
2026_07_06_18_46_23.916,3.87,31.8,0,0.76,0,0,0,0, ,0,0,0,0,0, ,965,-83.6,294.1,2.5,-38,-17.1,25,851.861,-124.651,416.539,2.50131,-36.0689,-8.65479,
2026_07_06_18_46_23.934,3.87,31.8,0,0.76,0,0,0,0, ,0,0,0,0,0, ,946.2,-77.5,275,-1.1,-36.3,-15.8,25,858.182,-121.964,408.496,2.39154,-36.1348,-9.12981,
2026_07_06_18_46_23.956,3.87,31.8,0,0.76,0,0,0,0, ,0,0,0,0,0, ,934.9,-72.3,248.2,-3.9,-31.2,-17.6,25,863.202,-119.096,399.544,2.09346,-35.9895,-9.59111,
2026_07_06_18_46_23.973,3.87,32,0,0.758,0,0,0,0, ,0,0,0,0,0, ,942.3,-70.6,236.6,-4.9,-24.2,-16.4,25,867.796,-116.192,389.968,1.69777,-35.4843,-10.0426,
2026_07_06_18_46_23.995,3.87,31.9,0,0.761,0,0,0,0, ,0,0,0,0,0, ,944.8,-54.4,201.7,-3.6,-18.9,-19.4,25,872.412,-112.92,379.559,1.33533,-34.6352,-10.5214,
2026_07_06_18_46_24.013,3.87,31.8,0,0.76,0,0,0,0, ,0,0,0,0,0, ,967.7,-56.3,186.8,-0.3,-15,-17.7,25,877.521,-109.412,368.267,1.13513,-33.5575,-11.0106,
2026_07_06_18_46_24.035,3.87,31.8,0,0.76,0,0,0,0, ,0,0,0,0,0, ,988.1,-51.1,203.9,0.2,-12.1,-15.1,25,883.638,-106.017,357.73,1.06291,-32.3383,-11.3391,
2026_07_06_18_46_24.055,3.87,31.8,0,0.761,0,0,0,0, ,0,0,0,0,0, ,984.9,-41.6,189.4,1.5,-11.5,-13,25,889.906,-102.381,347.914,1.04993,-31.0868,-11.5043,
2026_07_06_18_46_24.077,3.87,31.8,0,0.761,0,0,0,0, ,0,0,0,0,0, ,1003.6,-39.3,185.6,3.3,-10.5,-12.9,25,896.265,-98.6074,338.139,1.1322,-29.8627,-11.5924,
2026_07_06_18_46_24.093,3.87,31.8,0,0.76,0,0,0,0, ,0,0,0,0,0, ,1011.9,-32.9,187.2,3.2,-10,-11.7,25,903.058,-94.7983,328.892,1.26126,-28.6676,-11.6355,
2026_07_06_18_46_24.115,3.87,31.8,0,0.761,0,0,0,0, ,0,0,0,0,0, ,1010,-27,191.6,3.9,-9,-9.2,25,909.633,-90.8466,320.392,1.40073,-27.4995,-11.5632,
2026_07_06_18_46_24.131,3.87,31.8,0,0.76,0,0,0,0, ,0,0,0,0,0, ,1002.9,-26.6,185.4,4.2,-7.1,-7.1,25,915.533,-86.9438,312.355,1.56217,-26.3143,-11.3552,
2026_07_06_18_46_24.154,3.87,31.9,0,0.76,0,0,0,0, ,0,0,0,0,0, ,996.3,-31.4,184.6,5.1,-2,-5,25,920.656,-83.4129,304.594,1.75033,-24.9881,-11.032,
2026_07_06_18_46_24.172,3.87,31.8,0,0.759,0,0,0,0, ,0,0,0,0,0, ,975.5,-30.2,192.6,6.1,6,-3.3,25,924.631,-80.2068,297.526,1.98492,-23.3435,-10.6126,
2026_07_06_18_46_24.194,3.87,31.9,0,0.759,0,0,0,0, ,0,0,0,0,0, ,964.8,-19,199.5,6.6,6,-4.2,25,927.405,-76.8182,291.342,2.25092,-21.5554,-10.1944,
2026_07_06_18_46_24.211,3.87,31.9,0,0.76,0,0,0,0, ,0,0,0,0,0, ,968.5,-24.4,211.4,6,4.6,-5,25,929.797,-73.4595,286.108,2.49766,-19.9189,-9.85349,
2026_07_06_18_46_24.235,3.87,31.8,0,0.76,0,0,0,0, ,0,0,0,0,0, ,988.8,-26.9,218,6.1,3.8,-4.3,25,932.774,-70.5461,281.756,2.71413,-18.4491,-9.5364,
2026_07_06_18_46_24.251,3.87,31.8,0,0.761,0,0,0,0, ,0,0,0,0,0, ,988.5,-28,224.8,6.1,4.6,-2.8,25,936.179,-67.9199,278.078,2.92046,-17.0689,-9.17161,
2026_07_06_18_46_24.272,3.87,31.8,0,0.76,0,0,0,0, ,0,0,0,0,0, ,970.5,-19,233.7,4.3,3.2,-1.9,25,938.819,-65.2131,275.103,3.05937,-15.7912,-8.75591,
2026_07_06_18_46_24.290,3.87,31.9,0,0.76,0,0,0,0, ,0,0,0,0,0, ,955.3,-20.8,217.6,3,1.1,-2.1,25,940.286,-62.4518,272.089,3.09536,-14.6979,-8.34423,
2026_07_06_18_46_24.312,3.87,31.8,0,0.758,0,0,0,0, ,0,0,0,0,0, ,952.1,-19.2,214.8,1.6,-0.1,-3.2,25,941.103,-59.8649,268.684,3.04689,-13.7717,-7.99723,
2026_07_06_18_46_24.329,3.87,31.9,0,0.759,0,0,0,0, ,0,0,0,0,0, ,961.6,-20,219.7,1.2,-1.3,-3.9,25,942.063,-57.4113,265.549,2.94653,-12.9752,-7.72623,
2026_07_06_18_46_24.358,3.87,31.9,0,0.76,0,0,0,0, ,0,0,0,0,0, ,963.7,-22.2,218.8,-0.1,-2.1,-3.7,25,943.317,-55.1985,262.728,2.80049,-12.2881,-7.48698,
2026_07_06_18_46_24.369,3.87,31.9,0,0.761,0,0,0,0, ,0,0,0,0,0, ,970.7,-27.8,197.8,0.7,-3.1,-3.8,25,944.773,-53.3583,259.411,2.64812,-11.6977,-7.25925,
2026_07_06_18_46_24.393,3.87,31.8,0,0.758,0,0,0,0, ,0,0,0,0,0, ,980.8,-26,200.1,4.2,-2,-4.3,25,946.661,-51.746,255.727,2.63605,-11.1403,-7.06369,
2026_07_06_18_46_24.409,3.87,31.9,0,0.759,0,0,0,0, ,0,0,0,0,0, ,978.3,-32.3,215.9,5.8,-2.1,-4.8,25,948.665,-50.3691,252.819,2.7801,-10.5864,-6.91051,
2026_07_06_18_46_24.432,3.87,31.8,0,0.759,0,0,0,0, ,0,0,0,0,0, ,968.7,-15,232.5,3.8,-3.5,-4.9,25,950.178,-48.7409,251.075,2.90319,-10.1119,-6.78495,
2026_07_06_18_46_24.449,3.87,31.8,0,0.76,0,0,0,0, ,0,0,0,0,0, ,970.5,-7,250.2,-0.5,-7.3,-3.2,25,951.362,-46.441,250.482,2.82682,-9.82474,-6.61829,
2026_07_06_18_46_24.472,3.87,31.9,0,0.761,0,0,0,0, ,0,0,0,0,0, ,963,-10.6,217,-3.1,-11.8,-1.3,25,952.299,-44.1473,249.453,2.54488,-9.808,-6.3521,
2026_07_06_18_46_24.489,3.87,31.8,0,0.76,0,0,0,0, ,0,0,0,0,0, ,965.4,-14,191.8,-2.1,-11.6,-2.5,25,953.025,-42.2066,246.708,2.23136,-9.92329,-6.0808,
2026_07_06_18_46_24.511,3.87,31.9,0,0.76,0,0,0,0, ,0,0,0,0,0, ,969.7,-9.7,200.3,-1.7,-12.1,-3.9,25,953.91,-40.3567,243.621,1.97961,-10.0407,-5.90525,
2026_07_06_18_46_24.528,3.87,31.9,0,0.759,0,0,0,0, ,0,0,0,0,0, ,980.1,-3.6,199.4,-2.8,-12.9,-6,25,955.189,-38.3027,240.954,1.72186,-10.1906,-5.84704,
2026_07_06_18_46_24.551,3.87,31.8,0,0.761,0,0,0,0, ,0,0,0,0,0, ,982.4,-10.2,187.1,-3.7,-12.7,-3.8,25,956.777,-36.3891,238.047,1.41889,-10.3496,-5.78933,
2026_07_06_18_46_24.567,3.87,31.8,0,0.761,0,0,0,0, ,0,0,0,0,0, ,988,-12.5,177,-4,-11.6,-3.8,25,958.509,-34.8633,234.634,1.09782,-10.4593,-5.6681,
2026_07_06_18_46_24.590,3.87,31.9,0,0.761,0,0,0,0, ,0,0,0,0,0, ,953.6,-11.4,163.8,-3.2,-10.7,-4.5,25,959.258,-33.467,230.72,0.811544,-10.5014,-5.57559,
2026_07_06_18_46_24.606,3.87,31.9,0,0.76,0,0,0,0, ,0,0,0,0,0, ,992.6,-11.9,167.3,-3,-9.3,-5.2,25,960.101,-32.1376,226.749,0.573185,-10.4708,-5.53138,
2026_07_06_18_46_24.629,3.87,31.8,0,0.759,0,0,0,0, ,0,0,0,0,0, ,994.5,-5.6,179.5,-4.1,-9.7,-2.4,25,962.14,-30.7124,223.498,0.321928,-10.4117,-5.42587,
2026_07_06_18_46_24.647,3.87,31.9,0,0.759,0,0,0,0, ,0,0,0,0,0, ,977.4,-7.9,170.8,-5,-9.1,-1.7,25,963.591,-29.2522,220.552,0.0250451,-10.35,-5.22015,
2026_07_06_18_46_24.670,3.87,31.8,0,0.76,0,0,0,0, ,0,0,0,0,0, ,980.7,-13.3,154.2,-4.9,-8.4,-2.2,25,964.533,-28.1156,217.014,-0.278122,-10.2525,-5.02088,
2026_07_06_18_46_24.686,3.87,31.9,0,0.759,0,0,0,0, ,0,0,0,0,0, ,986,-14.2,150.1,-3,-6.4,-2,25,965.679,-27.2402,213.061,-0.501877,-10.0787,-4.84289,
2026_07_06_18_46_24.710,3.87,31.9,0,0.761,0,0,0,0, ,0,0,0,0,0, ,977.2,-10,160.2,-1.8,-6.2,-1.4,25,966.65,-26.3175,209.533,-0.617544,-9.84843,-4.65137,
2026_07_06_18_46_24.726,3.87,31.8,0,0.761,0,0,0,0, ,0,0,0,0,0, ,974.4,-7,165.5,-1.9,-6.4,-2.2,25,967.207,-25.2318,206.688,-0.692646,-9.6322,-4.47761,
2026_07_06_18_46_24.750,3.87,31.9,0,0.759,0,0,0,0, ,0,0,0,0,0, ,979.1,-6.8,162.8,-3,-7.3,-2.5,25,967.789,-24.1147,204.096,-0.799735,-9.46266,-4.34796,
2026_07_06_18_46_24.765,3.87,31.8,0,0.759,0,0,0,0, ,0,0,0,0,0, ,984.1,-11.8,156.8,-2.9,-7.7,-1.7,25,968.63,-23.2119,201.396,-0.930767,-9.34306,-4.21098,
2026_07_06_18_46_24.789,3.87,31.8,0,0.759,0,0,0,0, ,0,0,0,0,0, ,982.9,-14.4,153.6,-2.6,-8,-0.9,25,969.536,-22.5957,198.581,-1.04163,-9.25207,-4.03359,
2026_07_06_18_46_24.805,3.87,31.8,0,0.759,0,0,0,0, ,0,0,0,0,0, ,977.1,-13.3,154.5,-2.1,-9,-0.4,25,970.174,-22.0628,195.868,-1.12136,-9.20625,-3.8274,
2026_07_06_18_46_24.828,3.87,31.9,0,0.759,0,0,0,0, ,0,0,0,0,0, ,977.6,-10.3,151.7,-2.5,-9.6,-0.9,25,970.611,-21.4374,193.262,-1.19318,-9.21196,-3.63378,
2026_07_06_18_46_24.845,3.87,31.9,0,0.76,0,0,0,0, ,0,0,0,0,0, ,981.4,-13.9,148.4,-2.4,-8.9,-1,25,971.153,-20.8684,190.628,-1.26977,-9.21428,-3.47024,
2026_07_06_18_46_24.868,3.87,31.8,0,0.759,0,0,0,0, ,0,0,0,0,0, ,971.4,-14,150.1,-2.5,-10.5,-0.9,25,971.473,-20.4468,188.107,-1.34169,-9.24388,-3.31666,
2026_07_06_18_46_24.884,3.87,31.8,0,0.76,0,0,0,0, ,0,0,0,0,0, ,979.9,-11.5,148.3,-3.1,-12.2,-1,25,971.727,-19.9778,185.736,-1.43055,-9.37222,-3.17244,
2026_07_06_18_46_24.907,3.87,31.8,0,0.759,0,0,0,0, ,0,0,0,0,0, ,985.8,-13.7,133.5,-3.4,-12.9,-0.1,25,972.405,-19.5282,183.004,-1.54143,-9.56586,-3.01264,
2026_07_06_18_46_24.923,3.87,31.8,0,0.759,0,0,0,0, ,0,0,0,0,0, ,978.3,-18.1,119.3,-2.7,-11.4,-0.4,25,972.993,-19.3071,179.554,-1.63335,-9.72333,-2.84429,
2026_07_06_18_46_24.947,3.87,31.8,0,0.759,0,0,0,0, ,0,0,0,0,0, ,974.9,-16.1,122.9,-1.2,-10.7,-1.2,25,973.213,-19.1726,175.992,-1.65265,-9.80418,-2.71971,
2026_07_06_18_46_24.963,3.87,31.8,0,0.76,0,0,0,0, ,0,0,0,0,0, ,970.9,-13.7,132.9,-1.4,-11.5,-2.7,25,973.194,-18.9123,173.062,-1.63116,-9.88314,-2.67281,
2026_07_06_18_46_24.987,3.87,31.9,0,0.76,0,0,0,0, ,0,0,0,0,0, ,980.9,-9.3,129.7,-2.6,-13.5,-3.2,25,973.358,-18.4606,170.517,-1.65364,-10.0426,-2.6897,
2026_07_06_18_46_25.003,3.87,31.8,0,0.759,0,0,0,0, ,0,0,0,0,0, ,989.8,-13.4,115.6,-3.5,-14.1,-2.6,25,974.089,-18.0273,167.6,-1.73873,-10.2716,-2.70252,
2026_07_06_18_46_25.027,3.87,31.7,0,0.76,0,0,0,0, ,0,0,0,0,0, ,987.6,-15.3,103.1,-3.3,-13.4,-2.6,25,974.98,-17.8032,164.05,-1.83996,-10.4835,-2.69627,
2026_07_06_18_46_25.042,3.87,31.8,0,0.76,0,0,0,0, ,0,0,0,0,0, ,981.4,-16.9,91.1,-2.9,-12.5,-2.7,25,975.56,-17.6994,159.971,-1.91674,-10.6338,-2.69345,
2026_07_06_18_46_25.066,3.87,31.9,0,0.759,0,0,0,0, ,0,0,0,0,0, ,957.1,-16.7,85.2,-2.1,-11.2,-5.2,25,975.175,-17.6446,155.594,-1.95229,-10.7079,-2.77002,
2026_07_06_18_46_25.082,3.87,31.8,0,0.76,0,0,0,0, ,0,0,0,0,0, ,994.8,-14,100.4,-1.9,-10.1,-6.6,25,975.222,-17.5048,151.768,-1.95519,-10.7044,-2.96075,
2026_07_06_18_46_25.107,3.87,31.8,0,0.758,0,0,0,0, ,0,0,0,0,0, ,983.2,-8.1,94.8,-1.5,-13.3,-7.7,25,976.062,-17.1114,148.467,-1.93964,-10.7651,-3.21604,
2026_07_06_18_46_25.121,3.87,31.8,0,0.76,0,0,0,0, ,0,0,0,0,0, ,951.1,-7.6,71.2,0.1,-12.8,-10.4,25,975.519,-16.5471,144.477,-1.8641,-10.9043,-3.57154,
2026_07_06_18_46_25.144,3.87,31.8,0,0.76,0,0,0,0, ,0,0,0,0,0, ,972.6,-15.7,62.6,1.6,-12.5,-12.6,25,974.686,-16.2486,139.75,-1.69871,-11.0107,-4.05468,
2026_07_06_18_46_25.161,3.87,31.9,0,0.761,0,0,0,0, ,0,0,0,0,0, ,1003.2,10.8,76.4,0.3,-10.1,-10.3,25,975.491,-15.4078,135.469,-1.53731,-11.0283,-4.50534,
2026_07_06_18_46_25.186,3.87,31.8,0,0.761,0,0,0,0, ,0,0,0,0,0, ,994,-21.9,73.6,-0.7,-10.6,-6.6,25,976.899,-14.8071,131.784,-1.45581,-10.987,-4.74571,
2026_07_06_18_46_25.200,3.87,31.8,0,0.759,0,0,0,0, ,0,0,0,0,0, ,1004.1,10.9,61.7,-0.9,-8.1,-7.8,25,978.249,-14.2399,127.876,-1.41585,-10.8872,-4.89527,
2026_07_06_18_46_25.225,3.87,31.9,0,0.761,0,0,0,0, ,0,0,0,0,0, ,1030.3,-0.3,58.7,-0.9,-6.2,-4.5,25,980.623,-13.0492,123.752,-1.38442,-10.6595,-4.97173,
2026_07_06_18_46_25.240,3.87,31.9,0,0.759,0,0,0,0, ,0,0,0,0,0, ,1012.2,9.7,58.8,-0.3,-4.1,-1.6,25,983.098,-11.9676,119.791,-1.33662,-10.3238,-4.85463,
2026_07_06_18_46_25.265,3.87,31.8,0,0.761,0,0,0,0, ,0,0,0,0,0, ,981.2,13,68.9,-0.9,-3.4,-1.7,25,983.927,-10.5467,116.382,-1.29173,-9.92318,-4.65934,
2026_07_06_18_46_25.283,3.87,31.8,0,0.759,0,0,0,0, ,0,0,0,0,0, ,978.8,10,70.1,-2.1,-3.7,-1.3,25,983.688,-9.20323,113.525,-1.30442,-9.53481,-4.46682,
2026_07_06_18_46_25.306,3.87,31.8,0,0.758,0,0,0,0, ,0,0,0,0,0, ,986.6,7.8,64.8,-2.5,-4.3,-2.6,25,983.628,-8.10007,110.718,-1.36509,-9.19753,-4.31345,
2026_07_06_18_46_25.319,3.87,31.9,0,0.762,0,0,0,0, ,0,0,0,0,0, ,886.4,31.1,34.6,-2.5,-9.6,-4,25,980.756,-6.42124,106.999,-1.43425,-9.06058,-4.2517,
2026_07_06_18_46_25.343,3.87,31.9,0,0.759,0,0,0,0, ,0,0,0,0,0, ,950.9,8.1,43.8,-3.8,-4.7,-6.3,25,976.971,-4.83557,102.868,-1.5388,-8.94415,-4.30644,
2026_07_06_18_46_25.359,3.87,31.9,0,0.76,0,0,0,0, ,0,0,0,0,0, ,1133,-46.9,50.7,-2.3,-5.2,-0.3,25,980.931,-5.72309,99.4785,-1.63089,-8.70076,-4.24511,
2026_07_06_18_46_25.382,3.87,31.8,0,0.759,0,0,0,0, ,0,0,0,0,0, ,989.8,4.2,55.4,-1.3,-0.9,-1.2,25,985.835,-6.67535,96.6493,-1.64119,-8.35641,-4.03212,
2026_07_06_18_46_25.399,3.87,31.9,0,0.76,0,0,0,0, ,0,0,0,0,0, ,987.6,9.7,66.7,-1.8,-2.6,-1.2,25,986.009,-5.84506,94.48,-1.63564,-7.95384,-3.85954,
2026_07_06_18_46_25.423,3.87,31.9,0,0.761,0,0,0,0, ,0,0,0,0,0, ,992.9,4.8,41.1,-1.8,-3,-1.4,25,986.268,-5.04708,92.0071,-1.64565,-7.63977,-3.70357,
2026_07_06_18_46_25.437,3.87,31.9,0,0.761,0,0,0,0, ,0,0,0,0,0, ,993,3.6,40.8,-1,-1.6,-1.5,25,986.675,-4.48358,88.8958,-1.63068,-7.31438,-3.56624,
2026_07_06_18_46_25.462,3.87,31.9,0,0.76,0,0,0,0, ,0,0,0,0,0, ,990.1,7.9,55.5,0.4,-0.6,-1.5,25,986.972,-3.85997,86.4129,-1.54959,-6.93569,-3.44033,
2026_07_06_18_46_25.478,3.87,31.8,0,0.76,0,0,0,0, ,0,0,0,0,0, ,989.5,12.6,57.4,0.6,-1,-1.4,25,987.144,-3.00015,84.587,-1.4247,-6.5618,-3.31904,
2026_07_06_18_46_25.502,3.87,31.8,0,0.76,0,0,0,0, ,0,0,0,0,0, ,986.5,14.1,64.6,-0.5,-2.2,-1.1,25,987.196,-2.00381,83.1497,-1.33483,-6.25944,-3.19296,
2026_07_06_18_46_25.518,3.87,31.8,0,0.759,0,0,0,0, ,0,0,0,0,0, ,988.6,8.4,59.8,-1.1,-3.8,-0.7,25,987.218,-1.19616,81.8731,-1.30224,-6.06082,-3.05323,
2026_07_06_18_46_25.543,3.87,31.9,0,0.76,0,0,0,0, ,0,0,0,0,0, ,988.7,7.8,60.3,-1.3,-5.2,-0.7,25,987.305,-0.629673,80.5432,-1.29601,-5.9657,-2.90983,
2026_07_06_18_46_25.557,3.87,31.8,0,0.76,0,0,0,0, ,0,0,0,0,0, ,989.5,6.7,51.6,-1.3,-6,-0.6,25,987.415,-0.149505,79.0446,-1.29625,-5.94342,-2.77213,
2026_07_06_18_46_25.584,3.87,31.9,0,0.76,0,0,0,0, ,0,0,0,0,0, ,989.6,7.2,52.9,-1.4,-6.7,-0.4,25,987.545,0.283121,77.4118,-1.29953,-5.9682,-2.63367,
2026_07_06_18_46_25.602,3.87,31.9,0,0.76,0,0,0,0, ,0,0,0,0,0, ,987.5,6.8,58.8,-1.8,-8,-0.2,25,987.606,0.692431,76.0979,-1.31784,-6.0524,-2.49146,
2026_07_06_18_46_25.627,3.87,31.9,0,0.76,0,0,0,0, ,0,0,0,0,0, ,988,5.6,48,-2.9,-10,-0.1,25,987.615,1.02805,74.7147,-1.38074,-6.23202,-2.34878,
2026_07_06_18_46_25.636,3.87,31.8,0,0.758,0,0,0,0, ,0,0,0,0,0, ,991.9,4.7,35.4,-3,-10.3,-0.2,25,987.757,1.27923,72.7029,-1.47636,-6.47077,-2.21479,
2026_07_06_18_46_25.660,3.87,31.9,0,0.761,0,0,0,0, ,0,0,0,0,0, ,994.1,2.5,20.3,-2.7,-8.2,-0.4,25,988.077,1.42065,69.9697,-1.56007,-6.64013,-2.09811,
2026_07_06_18_46_25.676,3.87,31.9,0,0.76,0,0,0,0, ,0,0,0,0,0, ,994.5,-1.2,16.3,-2,-5.2,-1,25,988.456,1.37369,66.821,-1.60821,-6.64378,-2.01291,
2026_07_06_18_46_25.699,3.87,31.9,0,0.759,0,0,0,0, ,0,0,0,0,0, ,991.8,-2.1,21.7,-1.4,-3.1,-1.7,25,988.742,1.18943,63.9069,-1.6138,-6.49181,-1.97251,
2026_07_06_18_46_25.715,3.87,31.8,0,0.759,0,0,0,0, ,0,0,0,0,0, ,983.5,-19.2,58.1,0.1,-4.3,-5.4,25,988.675,0.467968,62.444,-1.55507,-6.32169,-2.06864,
2026_07_06_18_46_25.740,3.87,31.8,0,0.759,0,0,0,0, ,0,0,0,0,0, ,992.5,12.3,28.5,1.4,-6.8,-5.4,25,988.634,0.229217,61.2774,-1.4146,-6.27466,-2.27165,
2026_07_06_18_46_25.755,3.87,31.8,0,0.759,0,0,0,0, ,0,0,0,0,0, ,999.1,22.8,-19.8,0.8,-9.5,-6.2,25,989.071,1.2847,57.8084,-1.26137,-6.38894,-2.48666,
2026_07_06_18_46_25.781,3.87,31.9,0,0.76,0,0,0,0, ,0,0,0,0,0, ,980.2,-27.7,105.2,1.6,0.4,-2.5,25,989.106,1.05712,56.8877,-1.11138,-6.27688,-2.6002,
2026_07_06_18_46_25.794,3.87,31.8,0,0.762,0,0,0,0, ,0,0,0,0,0, ,994.5,12.8,-4,0,-5.1,0,25,988.999,0.538716,56.5046,-0.994905,-6.03759,-2.51793,
2026_07_06_18_46_25.819,3.87,31.9,0,0.759,0,0,0,0, ,0,0,0,0,0, ,991.3,0.9,-0.9,3.7,-0.3,-0.7,25,989.237,0.92331,52.912,-0.821544,-5.8342,-2.38582,
2026_07_06_18_46_25.834,3.87,32,0,0.761,0,0,0,0, ,0,0,0,0,0, ,992.9,10.2,31.4,2,-0.6,-0.9,25,989.411,1.20525,50.617,-0.597809,-5.5061,-2.28918,
2026_07_06_18_46_25.858,3.87,31.9,0,0.76,0,0,0,0, ,0,0,0,0,0, ,989.2,3.4,19.6,4.3,0,-0.9,25,989.511,1.54618,49.0864,-0.369427,-5.18886,-2.20453,
2026_07_06_18_46_25.874,3.87,31.9,0,0.76,0,0,0,0, ,0,0,0,0,0, ,991.8,4.3,28.9,2.6,-0.7,-1.2,25,989.571,1.68657,47.573,-0.136681,-4.89399,-2.13417,
2026_07_06_18_46_25.899,3.87,31.9,0,0.759,0,0,0,0, ,0,0,0,0,0, ,989.7,1,21.8,3,-0.3,-2,25,989.643,1.74528,46.2188,0.0422733,-4.62623,-2.10162,
2026_07_06_18_46_25.914,3.87,31.8,0,0.76,0,0,0,0, ,0,0,0,0,0, ,990.4,4.5,18.3,1.1,-0.4,-2.3,25,989.668,1.8065,44.6241,0.164619,-4.36565,-2.10457,
2026_07_06_18_46_25.939,3.87,31.9,0,0.759,0,0,0,0, ,0,0,0,0,0, ,989.9,0.7,14.2,1.4,1.3,-3.2,25,989.697,1.85486,42.8951,0.230759,-4.07219,-2.1439,
2026_07_06_18_46_25.954,3.87,31.9,0,0.76,0,0,0,0, ,0,0,0,0,0, ,994,9.5,-19,10.9,5.4,-6.6,25,989.835,2.05261,40.1349,0.591463,-3.6199,-2.31185,
2026_07_06_18_46_25.979,3.87,31.9,0,0.761,0,0,0,0, ,0,0,0,0,0, ,990.1,34.6,70,3.1,4,-5.3,25,989.97,3.2712,39.2431,0.981983,-3.11291,-2.53355,
2026_07_06_18_46_25.992,3.87,31.9,0,0.761,0,0,0,0, ,0,0,0,0,0, ,991.9,12.9,30.8,-0.2,-0.3,-2.2,25,990.032,4.51913,39.9229,1.0105,-2.81048,-2.60768,
2026_07_06_18_46_26.016,3.87,31.9,0,0.76,0,0,0,0, ,0,0,0,0,0, ,990.9,10.4,26.6,-0.6,-0.2,-2.2,25,990.116,4.95366,39.2391,0.924551,-2.65445,-2.58284,
2026_07_06_18_46_26.032,3.87,31.9,0,0.76,0,0,0,0, ,0,0,0,0,0, ,990.1,1.7,21.3,-0.6,0,-2.5,25,990.139,5.02047,38.3074,0.831648,-2.49879,-2.56865,
2026_07_06_18_46_26.059,3.87,31.8,0,0.758,0,0,0,0, ,0,0,0,0,0, ,990.4,22.8,25,-0.2,0.2,-3.2,25,990.146,5.46102,37.3837,0.756595,-2.34043,-2.58579,
2026_07_06_18_46_26.071,3.87,31.9,0,0.76,0,0,0,0, ,0,0,0,0,0, ,990.3,14,27.9,-1,-0.1,-2.1,25,990.158,6.24949,36.7174,0.673927,-2.19476,-2.5897,
2026_07_06_18_46_26.097,3.87,31.8,0,0.759,0,0,0,0, ,0,0,0,0,0, ,990.3,19.4,31.9,-0.8,-0.1,-1.5,25,990.167,6.88632,36.302,0.578016,-2.06711,-2.54158,
2026_07_06_18_46_26.111,3.87,31.8,0,0.759,0,0,0,0, ,0,0,0,0,0, ,988.7,6.9,29,-0.6,-0.7,-1.4,25,990.126,7.26801,35.9454,0.500137,-1.96552,-2.47506,
2026_07_06_18_46_26.137,3.87,31.8,0,0.758,0,0,0,0, ,0,0,0,0,0, ,991.3,10.8,29.1,-0.8,-0.1,-2,25,990.119,7.36441,35.5252,0.427004,-1.87012,-2.42783,
2026_07_06_18_46_26.151,3.87,31.9,0,0.76,0,0,0,0, ,0,0,0,0,0, ,989.5,11.5,29.6,-0.9,-0.4,-1.9,25,990.136,7.5951,35.1489,0.349186,-1.7714,-2.39872,
2026_07_06_18_46_26.176,3.87,31.8,0,0.76,0,0,0,0, ,0,0,0,0,0, ,991,11.5,28.6,-0.6,-0.6,-1.9,25,990.143,7.83305,34.7803,0.282205,-1.69392,-2.36832,
2026_07_06_18_46_26.190,3.87,31.9,0,0.761,0,0,0,0, ,0,0,0,0,0, ,991.6,10.1,25.7,-0.5,-0.6,-1.7,25,990.213,8.01385,34.3153,0.231492,-1.62726,-2.33369,
2026_07_06_18_46_26.216,3.87,31.9,0,0.761,0,0,0,0, ,0,0,0,0,0, ,990.8,9.7,27.9,-0.3,-0.4,-1.7,25,990.273,8.12879,33.8574,0.193011,-1.55857,-2.29508,
2026_07_06_18_46_26.229,3.87,31.9,0,0.759,0,0,0,0, ,0,0,0,0,0, ,990.3,7.3,31.1,0.9,-0.8,-2,25,990.29,8.15141,33.5918,0.19953,-1.50015,-2.26796,
2026_07_06_18_46_26.254,3.87,31.9,0,0.758,0,0,0,0, ,0,0,0,0,0, ,989.2,17.4,23.3,7.8,-0.1,-1.1,25,990.257,8.40726,33.2023,0.452449,-1.43616,-2.2242,
2026_07_06_18_46_26.269,3.87,31.8,0,0.762,0,0,0,0, ,0,0,0,0,0, ,989.5,15.1,30.1,5.8,-0.4,-1.1,25,990.202,8.88518,32.8061,0.839253,-1.36388,-2.1557,
2026_07_06_18_46_26.296,3.87,31.9,0,0.76,0,0,0,0, ,0,0,0,0,0, ,990.9,15,31.7,5.5,-0.8,-0.7,25,990.202,9.26085,32.6899,1.13241,-1.31733,-2.07918,
2026_07_06_18_46_26.308,3.87,31.9,0,0.76,0,0,0,0, ,0,0,0,0,0, ,991.8,9,27.4,2.2,-1,-0.8,25,990.272,9.42776,32.4986,1.29801,-1.2919,-1.99818,
2026_07_06_18_46_26.340,3.87,31.9,0,0.76,0,0,0,0, ,0,0,0,0,0, ,990.1,8.6,26.9,1.7,-0.8,-1.2,25,990.313,9.38951,32.1727,1.33774,-1.26802,-1.93736,
2026_07_06_18_46_26.348,3.87,31.8,0,0.76,0,0,0,0, ,0,0,0,0,0, ,991.8,9.8,25.3,-0.1,-0.3,-1.6,25,990.352,9.37796,31.8026,1.30497,-1.22426,-1.90461,
2026_07_06_18_46_26.374,3.87,31.9,0,0.761,0,0,0,0, ,0,0,0,0,0, ,991.8,8.7,26.3,-0.7,-0.1,-1.9,25,990.44,9.37016,31.4368,1.20108,-1.16185,-1.89519,
2026_07_06_18_46_26.388,3.87,31.8,0,0.76,0,0,0,0, ,0,0,0,0,0, ,991.4,8.7,28.5,-0.8,0,-2.3,25,990.511,9.32932,31.1908,1.08218,-1.09409,-1.90767,
2026_07_06_18_46_26.414,3.87,31.9,0,0.76,0,0,0,0, ,0,0,0,0,0, ,989.6,13.6,29.2,-0.7,0,-2.3,25,990.51,9.44027,31.0482,0.970534,-1.02742,-1.93158,
2026_07_06_18_46_26.428,3.87,31.8,0,0.759,0,0,0,0, ,0,0,0,0,0, ,990.7,13.6,31.7,-0.6,-0.4,-1.9,25,990.488,9.69376,31.0117,0.871783,-0.977002,-1.94184,
2026_07_06_18_46_26.455,3.87,31.8,0,0.759,0,0,0,0, ,0,0,0,0,0, ,990.8,11.2,27,-0.5,-0.3,-1.8,25,990.504,9.85867,30.9105,0.785143,-0.938794,-1.93624,
2026_07_06_18_46_26.466,3.87,31.8,0,0.76,0,0,0,0, ,0,0,0,0,0, ,991.6,9.8,24.7,-0.7,-0.4,-1.8,25,990.547,9.89775,30.6021,0.700736,-0.902914,-1.92794,
2026_07_06_18_46_26.493,3.87,31.8,0,0.76,0,0,0,0, ,0,0,0,0,0, ,990.8,12.9,29.7,-0.5,-0.2,-1.7,25,990.586,9.98625,30.3948,0.621472,-0.866174,-1.9171,
2026_07_06_18_46_26.506,3.87,31.9,0,0.76,0,0,0,0, ,0,0,0,0,0, ,990.3,11.5,30.6,-0.6,-0.4,-1.7,25,990.584,10.1211,30.3799,0.550086,-0.831673,-1.90387,
2026_07_06_18_46_26.534,3.87,31.9,0,0.76,0,0,0,0, ,0,0,0,0,0, ,990.7,10.3,26.7,-0.6,-0.5,-1.7,25,990.579,10.1686,30.2745,0.480002,-0.808415,-1.89145,
2026_07_06_18_46_26.546,3.87,31.8,0,0.76,0,0,0,0, ,0,0,0,0,0, ,991.2,9.5,26.1,-0.5,-0.3,-1.8,25,990.602,10.1522,30.0384,0.417237,-0.783527,-1.88283,
2026_07_06_18_46_26.572,3.87,31.8,0,0.759,0,0,0,0, ,0,0,0,0,0, ,991.6,8.3,26.3,-0.6,-0.2,-2,25,990.65,10.0759,29.8045,0.358296,-0.751015,-1.88387,
2026_07_06_18_46_26.586,3.87,31.9,0,0.76,0,0,0,0, ,0,0,0,0,0, ,991.3,10.6,29.7,-0.6,-0.2,-2.1,25,990.699,10.0378,29.6945,0.299899,-0.717438,-1.894,
2026_07_06_18_46_26.613,3.87,31.9,0,0.759,0,0,0,0, ,0,0,0,0,0, ,990.9,11.8,28.3,-0.6,-0.3,-2.1,25,990.724,10.1086,29.6522,0.245062,-0.688953,-1.90655,
2026_07_06_18_46_26.626,3.87,31.8,0,0.759,0,0,0,0, ,0,0,0,0,0, ,991.3,10.4,29.6,-0.6,-0.2,-2,25,990.746,10.169,29.6094,0.193566,-0.662205,-1.91529,
2026_07_06_18_46_26.652,3.87,31.8,0,0.759,0,0,0,0, ,0,0,0,0,0, ,989.5,14.7,31.4,-0.6,-0.4,-1.8,25,990.725,10.3141,29.6637,0.145208,-0.640133,-1.91436,
2026_07_06_18_46_26.665,3.87,31.9,0,0.761,0,0,0,0, ,0,0,0,0,0, ,990.9,10.2,27.7,-0.6,-0.5,-1.8,25,990.693,10.4443,29.6567,0.0997969,-0.628547,-1.90739,
2026_07_06_18_46_26.691,3.87,31.9,0,0.759,0,0,0,0, ,0,0,0,0,0, ,991.4,13.1,30.6,-0.6,-0.5,-1.8,25,990.721,10.5177,29.6259,0.057153,-0.620713,-1.90085,
2026_07_06_18_46_26.709,3.87,31.8,0,0.76,0,0,0,0, ,0,0,0,0,0, ,992.1,11.5,28.3,-0.5,-0.7,-1.5,25,990.784,10.6263,29.6151,0.0201546,-0.619451,-1.88556,
2026_07_06_18_46_26.735,3.87,31.9,0,0.761,0,0,0,0, ,0,0,0,0,0, ,991.9,9.3,27.8,-0.5,-0.5,-1.5,25,990.858,10.6126,29.5198,-0.0115423,-0.618266,-1.86207,
2026_07_06_18_46_26.744,3.87,31.9,0,0.76,0,0,0,0, ,0,0,0,0,0, ,991.5,8.3,26.9,-0.6,-0.1,-1.8,25,990.909,10.5021,29.3875,-0.0443546,-0.598871,-1.84914,
2026_07_06_18_46_26.771,3.87,31.8,0,0.761,0,0,0,0, ,0,0,0,0,0, ,990.8,13.5,31.9,-0.6,-0.2,-1.9,25,990.924,10.5264,29.3883,-0.0782142,-0.571518,-1.84919,
2026_07_06_18_46_26.784,3.87,31.9,0,0.76,0,0,0,0, ,0,0,0,0,0, ,990.9,11.2,29.6,-0.6,-0.5,-1.7,25,990.919,10.6375,29.4713,-0.110011,-0.55802,-1.8462,
2026_07_06_18_46_26.811,3.87,31.7,0,0.76,0,0,0,0, ,0,0,0,0,0, ,992.6,13.9,28.1,-0.5,-0.7,-1.5,25,990.97,10.754,29.4334,-0.136822,-0.560578,-1.83119,
2026_07_06_18_46_26.823,3.87,31.9,0,0.76,0,0,0,0, ,0,0,0,0,0, ,990.9,9.3,24.4,-0.5,-0.6,-1.5,25,991.018,10.8056,29.2394,-0.158954,-0.566027,-1.81101,
2026_07_06_18_46_26.850,3.87,31.8,0,0.76,0,0,0,0, ,0,0,0,0,0, ,990.8,10.3,28.9,-0.6,-0.3,-1.8,25,991.007,10.7443,29.0816,-0.182783,-0.558956,-1.8012,
2026_07_06_18_46_26.863,3.87,31.9,0,0.759,0,0,0,0, ,0,0,0,0,0, ,989.8,11.2,27.7,-0.6,-0.2,-1.9,25,990.964,10.7446,29.034,-0.208207,-0.540129,-1.80417,
2026_07_06_18_46_26.889,3.87,31.9,0,0.76,0,0,0,0, ,0,0,0,0,0, ,990.7,13.9,30.3,-0.5,-0.3,-1.9,25,990.921,10.8547,29.0319,-0.229035,-0.52245,-1.81001,
2026_07_06_18_46_26.902,3.87,31.9,0,0.761,0,0,0,0, ,0,0,0,0,0, ,990.3,11.7,26.6,-0.6,-0.5,-1.6,25,990.895,10.9732,28.9965,-0.248594,-0.514988,-1.80636,
2026_07_06_18_46_26.929,3.87,31.8,0,0.76,0,0,0,0, ,0,0,0,0,0, ,991.3,9.1,25.3,-0.6,-0.4,-1.7,25,990.889,10.9383,28.8108,-0.270008,-0.511028,-1.79683,
2026_07_06_18_46_26.942,3.87,31.9,0,0.759,0,0,0,0, ,0,0,0,0,0, ,990.2,10,28.5,-0.6,-0.3,-1.9,25,990.881,10.8537,28.6944,-0.290117,-0.501215,-1.79702,
2026_07_06_18_46_26.969,3.87,31.9,0,0.76,0,0,0,0, ,0,0,0,0,0, ,990.8,11.8,30.6,-0.6,-0.3,-1.9,25,990.858,10.8565,28.7465,-0.309,-0.488954,-1.8033,
2026_07_06_18_46_26.981,3.87,31.8,0,0.76,0,0,0,0, ,0,0,0,0,0, ,990.4,12.5,30,-0.6,-0.6,-1.6,25,990.842,10.9353,28.8412,-0.326733,-0.48658,-1.80005,
2026_07_06_18_46_27.009,3.87,31.9,0,0.759,0,0,0,0, ,0,0,0,0,0, ,990.1,11.9,28.1,-0.5,-0.6,-1.6,25,990.806,11.0124,28.8539,-0.340338,-0.493491,-1.78786,
2026_07_06_18_46_27.021,3.87,31.9,0,0.76,0,0,0,0, ,0,0,0,0,0, ,989.9,10.9,28.9,-0.5,-0.5,-1.5,25,990.757,11.036,28.8324,-0.350068,-0.496935,-1.77336,
2026_07_06_18_46_27.048,3.87,31.8,0,0.76,0,0,0,0, ,0,0,0,0,0, ,990.7,10.1,26.9,-0.5,-0.4,-1.8,25,990.729,11.0033,28.7755,-0.359204,-0.494075,-1.76585,
2026_07_06_18_46_27.061,3.87,31.8,0,0.76,0,0,0,0, ,0,0,0,0,0, ,990.8,11.4,30.1,-0.6,-0.3,-1.8,25,990.73,10.9879,28.7587,-0.370831,-0.485295,-1.76793,
2026_07_06_18_46_27.087,3.87,31.8,0,0.76,0,0,0,0, ,0,0,0,0,0, ,991.4,10.9,29.2,-0.5,-0.5,-1.6,25,990.753,10.9978,28.8131,-0.381749,-0.480098,-1.76379,
2026_07_06_18_46_27.101,3.87,31.9,0,0.76,0,0,0,0, ,0,0,0,0,0, ,990.7,10.9,27.5,-0.5,-0.5,-1.6,25,990.771,10.9918,28.7848,-0.388955,-0.48131,-1.75381,
2026_07_06_18_46_27.136,3.87,31.8,0,0.759,0,0,0,0, ,0,0,0,0,0, ,990.1,11.8,28.1,-0.5,-0.4,-1.6,25,990.748,11.0137,28.7248,-0.395722,-0.479402,-1.74444,
2026_07_06_18_46_27.141,3.87,31.9,0,0.761,0,0,0,0, ,0,0,0,0,0, ,990.2,11.4,28.5,-0.5,-0.5,-1.5,25,990.712,11.0494,28.6989,-0.402076,-0.477611,-1.73259,
2026_07_06_18_46_27.169,3.87,31.8,0,0.761,0,0,0,0, ,0,0,0,0,0, ,990.4,8.3,26.3,-0.6,-0.6,-1.7,25,990.687,10.9763,28.6198,-0.41109,-0.482022,-1.72451,
2026_07_06_18_46_27.180,3.87,31.8,0,0.761,0,0,0,0, ,0,0,0,0,0, ,990.4,10.3,26.2,-0.6,-0.5,-1.8,25,990.669,10.8741,28.4754,-0.422602,-0.486164,-1.72606,
2026_07_06_18_46_27.206,3.87,31.9,0,0.76,0,0,0,0, ,0,0,0,0,0, ,991.3,11.5,28.4,-0.5,-0.5,-1.8,25,990.68,10.8757,28.4037,-0.430365,-0.487007,-1.73057,
2026_07_06_18_46_27.220,3.87,31.9,0,0.76,0,0,0,0, ,0,0,0,0,0, ,992.5,10.7,28.5,-0.5,-0.5,-1.7,25,990.755,10.8894,28.4066,-0.434609,-0.487799,-1.73175,
2026_07_06_18_46_27.246,3.87,31.8,0,0.76,0,0,0,0, ,0,0,0,0,0, ,991.8,11.3,28.6,-0.5,-0.4,-1.7,25,990.84,10.8961,28.4153,-0.438593,-0.485496,-1.72982,
2026_07_06_18_46_27.259,3.87,31.8,0,0.76,0,0,0,0, ,0,0,0,0,0, ,992.4,11.4,28,-0.6,-0.4,-1.7,25,990.916,10.9238,28.4083,-0.445382,-0.480286,-1.728,
2026_07_06_18_46_27.286,3.87,31.8,0,0.76,0,0,0,0, ,0,0,0,0,0, ,990.6,11.8,29,-0.5,-0.4,-1.7,25,990.952,10.965,28.4139,-0.451757,-0.475393,-1.72629,
2026_07_06_18_46_27.298,3.87,31.8,0,0.761,0,0,0,0, ,0,0,0,0,0, ,990.3,9.5,27.3,-0.6,-0.6,-1.7,25,990.921,10.9458,28.3978,-0.457744,-0.476893,-1.72469,
2026_07_06_18_46_27.326,3.87,31.8,0,0.759,0,0,0,0, ,0,0,0,0,0, ,992.3,9.1,29.4,-0.6,-0.3,-1.9,25,990.944,10.8455,28.3949,-0.466413,-0.475254,-1.72928,
2026_07_06_18_46_27.338,3.87,31.9,0,0.76,0,0,0,0, ,0,0,0,0,0, ,990.7,10.9,29.9,-0.6,-0.3,-1.8,25,990.978,10.794,28.4714,-0.474553,-0.464575,-1.73664,
2026_07_06_18_46_27.366,3.87,31.9,0,0.76,0,0,0,0, ,0,0,0,0,0, ,991.2,11.8,27.8,-0.6,-0.4,-1.8,25,990.977,10.8279,28.4944,-0.482198,-0.457593,-1.7405,
2026_07_06_18_46_27.377,3.87,31.8,0,0.76,0,0,0,0, ,0,0,0,0,0, ,991.4,12.8,27.2,-0.7,-0.4,-1.7,25,990.996,10.9176,28.4338,-0.492423,-0.454083,-1.74108,
2026_07_06_18_46_27.405,3.87,31.8,0,0.761,0,0,0,0, ,0,0,0,0,0, ,991.3,10.9,29.6,-0.6,-0.6,-1.4,25,991.018,10.9744,28.4318,-0.502025,-0.456881,-1.72943,
2026_07_06_18_46_27.417,3.87,31.9,0,0.76,0,0,0,0, ,0,0,0,0,0, ,990.7,8.4,28.6,-0.6,-0.5,-1.6,25,991.017,10.8937,28.4725,-0.507996,-0.462556,-1.71545,
2026_07_06_18_46_27.447,3.87,31.9,0,0.759,0,0,0,0, ,0,0,0,0,0, ,990.1,12.6,30.2,-0.6,-0.3,-1.9,25,990.979,10.8697,28.529,-0.513602,-0.458744,-1.71756,
2026_07_06_18_46_27.457,3.87,31.9,0,0.759,0,0,0,0, ,0,0,0,0,0, ,990.8,13.7,31,-0.6,-0.5,-1.7,25,990.947,11.0087,28.6552,-0.518867,-0.455164,-1.72258,
2026_07_06_18_46_27.484,3.87,31.9,0,0.76,0,0,0,0, ,0,0,0,0,0, ,989.7,12.4,28.1,-0.6,-0.7,-1.6,25,990.904,11.133,28.7097,-0.523811,-0.46399,-1.71816,
2026_07_06_18_46_27.496,3.87,31.8,0,0.76,0,0,0,0, ,0,0,0,0,0, ,990.9,13.3,28,-0.5,-0.5,-1.6,25,990.868,11.2377,28.6695,-0.525407,-0.472278,-1.71096,
2026_07_06_18_46_27.525,3.87,31.8,0,0.76,0,0,0,0, ,0,0,0,0,0, ,990.1,12.6,29,-0.5,-0.6,-1.5,25,990.845,11.342,28.6592,-0.523859,-0.477014,-1.70115,
2026_07_06_18_46_27.536,3.87,31.8,0,0.76,0,0,0,0, ,0,0,0,0,0, ,992,8.9,27.7,-0.6,-0.4,-1.6,25,990.858,11.3059,28.6404,-0.525452,-0.478415,-1.69194,
2026_07_06_18_46_27.563,3.87,31.8,0,0.76,0,0,0,0, ,0,0,0,0,0, ,991.2,10.6,26.8,-0.6,-0.4,-1.8,25,990.903,11.2111,28.5556,-0.529995,-0.473636,-1.69243,
2026_07_06_18_46_27.576,3.87,31.8,0,0.76,0,0,0,0, ,0,0,0,0,0, ,990.6,9.8,29.9,-0.5,-0.6,-1.6,25,990.903,11.1495,28.5431,-0.531214,-0.475243,-1.69289,
2026_07_06_18_46_27.604,3.87,31.9,0,0.76,0,0,0,0, ,0,0,0,0,0, ,991.6,8.7,26.3,-0.5,-0.7,-1.5,25,990.915,11.0338,28.5161,-0.529312,-0.485892,-1.68418,
2026_07_06_18_46_27.615,3.87,31.9,0,0.76,0,0,0,0, ,0,0,0,0,0, ,991.3,10.3,27.2,-0.6,-0.5,-1.6,25,990.947,10.9403,28.4085,-0.530572,-0.492846,-1.67601,
2026_07_06_18_46_27.643,3.87,31.8,0,0.76,0,0,0,0, ,0,0,0,0,0, ,989.8,9.7,27.7,-0.5,-0.4,-1.7,25,990.923,10.883,28.3501,-0.531756,-0.490235,-1.67442,
2026_07_06_18_46_27.654,3.87,31.9,0,0.76,0,0,0,0, ,0,0,0,0,0, ,989.6,12.3,28.9,-0.6,-0.3,-1.7,25,990.849,10.8901,28.347,-0.532868,-0.481689,-1.67598,
2026_07_06_18_46_27.683,3.87,31.8,0,0.76,0,0,0,0, ,0,0,0,0,0, ,990.4,10.3,28.5,-0.5,-0.5,-1.8,25,990.797,10.9151,28.3685,-0.533912,-0.476711,-1.68049,
2026_07_06_18_46_27.695,3.87,31.9,0,0.76,0,0,0,0, ,0,0,0,0,0, ,991.4,11.1,28.5,-0.5,-0.5,-1.8,25,990.803,10.902,28.3765,-0.531845,-0.47813,-1.68777,
2026_07_06_18_46_27.721,3.87,31.9,0,0.76,0,0,0,0, ,0,0,0,0,0, ,991,9.6,27.5,-0.5,-0.4,-1.8,25,990.827,10.8684,28.3536,-0.529905,-0.476416,-1.69461,
2026_07_06_18_46_27.735,3.87,31.9,0,0.759,0,0,0,0, ,0,0,0,0,0, ,990.6,12.4,27.2,-0.5,-0.4,-1.7,25,990.826,10.8764,28.2924,-0.528082,-0.47176,-1.69799,
2026_07_06_18_46_27.763,3.87,31.8,0,0.76,0,0,0,0, ,0,0,0,0,0, ,991,9.8,28.9,-0.6,-0.5,-1.5,25,990.824,10.89,28.2777,-0.529418,-0.470434,-1.69202,
2026_07_06_18_46_27.773,3.87,31.8,0,0.759,0,0,0,0, ,0,0,0,0,0, ,990.1,10.1,28.6,-0.5,-0.5,-1.7,25,990.807,10.8327,28.3065,-0.530672,-0.472235,-1.68641,
2026_07_06_18_46_27.801,3.87,31.9,0,0.76,0,0,0,0, ,0,0,0,0,0, ,990.7,11.4,27.7,-0.6,-0.4,-1.8,25,990.783,10.8277,28.2969,-0.53185,-0.47088,-1.69028,
2026_07_06_18_46_27.814,3.87,31.9,0,0.761,0,0,0,0, ,0,0,0,0,0, ,991.3,11.3,26.4,-0.6,-0.3,-1.8,25,990.796,10.8595,28.2209,-0.536003,-0.463514,-1.69697,
2026_07_06_18_46_27.843,3.87,31.9,0,0.76,0,0,0,0, ,0,0,0,0,0, ,991.8,11.2,26.9,-0.6,-0.4,-1.7,25,990.842,10.8833,28.1252,-0.539903,-0.456597,-1.7002,
2026_07_06_18_46_27.853,3.87,31.9,0,0.759,0,0,0,0, ,0,0,0,0,0, ,992.6,10.1,27.8,-0.6,-0.3,-1.8,25,990.925,10.8691,28.078,-0.543565,-0.450101,-1.70324,
2026_07_06_18_46_27.881,3.87,31.9,0,0.759,0,0,0,0, ,0,0,0,0,0, ,990.6,12.2,27.7,-0.5,-0.3,-1.9,25,990.966,10.8862,28.058,-0.543957,-0.440954,-1.71218,
2026_07_06_18_46_27.892,3.87,31.8,0,0.759,0,0,0,0, ,0,0,0,0,0, ,991.5,10.7,28.3,-0.6,-0.5,-1.7,25,990.971,10.9206,28.0544,-0.544325,-0.438459,-1.71753,
2026_07_06_18_46_27.921,3.87,31.8,0,0.759,0,0,0,0, ,0,0,0,0,0, ,990.8,10,26.6,-0.6,-0.5,-1.6,25,990.982,10.8858,28.0176,-0.547718,-0.442209,-1.71342,
2026_07_06_18_46_27.932,3.87,31.9,0,0.762,0,0,0,0, ,0,0,0,0,0, ,990.4,11.3,28.4,-0.5,-0.4,-1.6,25,990.959,10.8714,27.9861,-0.547857,-0.442684,-1.7065,
2026_07_06_18_46_27.959,3.87,31.9,0,0.761,0,0,0,0, ,0,0,0,0,0, ,991.2,10.1,28.3,-0.5,-0.3,-1.6,25,990.949,10.861,28.0082,-0.544941,-0.437036,-1.70001,
2026_07_06_18_46_27.971,3.87,31.8,0,0.76,0,0,0,0, ,0,0,0,0,0, ,991.8,9.8,29.4,-0.5,-0.5,-1.7,25,990.982,10.8055,28.0595,-0.542202,-0.434779,-1.69697,
2026_07_06_18_46_28.000,3.87,31.8,0,0.759,0,0,0,0, ,0,0,0,0,0, ,990.6,9.7,28.1,-0.6,-0.5,-1.7,25,990.996,10.7412,28.1016,-0.542677,-0.438753,-1.69715,
2026_07_06_18_46_28.011,3.87,31.8,0,0.76,0,0,0,0, ,0,0,0,0,0, ,990.9,10.2,27.9,-0.6,-0.5,-1.6,25,990.981,10.6929,28.0954,-0.54617,-0.442486,-1.69428,
2026_07_06_18_46_28.040,3.87,31.8,0,0.76,0,0,0,0, ,0,0,0,0,0, ,989.7,9.2,26.6,-0.5,-0.3,-1.8,25,990.939,10.6324,28.0439,-0.546404,-0.439897,-1.69463,
2026_07_06_18_46_28.055,3.87,31.8,0,0.76,0,0,0,0, ,0,0,0,0,0, ,991.3,12.4,27.9,-0.6,-0.3,-2,25,990.912,10.6426,27.9955,-0.546623,-0.431372,-1.70714,
2026_07_06_18_46_28.085,3.87,31.8,0,0.76,0,0,0,0, ,0,0,0,0,0, ,990.1,12.6,29.9,-0.5,-0.5,-1.6,25,990.9,10.7558,28.0506,-0.546829,-0.42946,-1.7128,
2026_07_06_18_46_28.091,3.87,31.8,0,0.76,0,0,0,0, ,0,0,0,0,0, ,992.4,10,28.5,-0.6,-0.6,-1.6,25,990.921,10.789,28.1207,-0.547022,-0.436805,-1.70593,
2026_07_06_18_46_28.121,3.87,31.9,0,0.76,0,0,0,0, ,0,0,0,0,0, ,991.6,8.9,27.3,-0.5,-0.4,-1.8,25,990.987,10.7074,28.1072,-0.547203,-0.440656,-1.70557,
2026_07_06_18_46_28.130,3.87,31.9,0,0.761,0,0,0,0, ,0,0,0,0,0, ,989.3,12.9,29.2,-0.5,-0.4,-1.8,25,990.954,10.7191,28.1159,-0.544327,-0.438179,-1.71132,
2026_07_06_18_46_28.159,3.87,31.9,0,0.76,0,0,0,0, ,0,0,0,0,0, ,989.8,11.3,29.1,-0.5,-0.5,-1.6,25,990.868,10.8033,28.1789,-0.541626,-0.438899,-1.71063,
2026_07_06_18_46_28.169,3.87,31.8,0,0.76,0,0,0,0, ,0,0,0,0,0, ,991.4,10.1,27.7,-0.6,-0.8,-1.4,25,990.852,10.797,28.1924,-0.542136,-0.451763,-1.6978,
2026_07_06_18_46_28.197,3.87,31.9,0,0.762,0,0,0,0, ,0,0,0,0,0, ,991.6,9.3,24.6,-0.6,-0.5,-1.6,25,990.892,10.7301,28.068,-0.545662,-0.463843,-1.68574,
2026_07_06_18_46_28.209,3.87,31.8,0,0.76,0,0,0,0, ,0,0,0,0,0, ,992.4,9,28.5,-0.6,-0.3,-2,25,990.959,10.6338,27.9755,-0.548973,-0.459953,-1.6927,
2026_07_06_18_46_28.239,3.87,31.8,0,0.76,0,0,0,0, ,0,0,0,0,0, ,990.2,11.3,29.4,-0.6,-0.3,-1.9,25,990.98,10.6044,28.0348,-0.552083,-0.450206,-1.70838,
2026_07_06_18_46_28.248,3.87,31.9,0,0.76,0,0,0,0, ,0,0,0,0,0, ,990.3,12.2,28.6,-0.5,-0.4,-1.7,25,990.935,10.6742,28.0937,-0.551956,-0.444099,-1.71397,
2026_07_06_18_46_28.277,3.87,31.8,0,0.76,0,0,0,0, ,0,0,0,0,0, ,989.6,11.8,29.6,-0.6,-0.5,-1.6,25,990.875,10.755,28.155,-0.551837,-0.444459,-1.71007,
2026_07_06_18_46_28.288,3.87,31.9,0,0.76,0,0,0,0, ,0,0,0,0,0, ,989.7,11.5,27.7,-0.5,-0.5,-1.7,25,990.801,10.8095,28.1851,-0.551725,-0.447843,-1.70641,
2026_07_06_18_46_28.316,3.87,31.8,0,0.759,0,0,0,0, ,0,0,0,0,0, ,989,10.2,26.7,-0.5,-0.4,-1.8,25,990.712,10.812,28.1251,-0.548573,-0.447975,-1.70906,
2026_07_06_18_46_28.327,3.87,31.8,0,0.76,0,0,0,0, ,0,0,0,0,0, ,993,9.5,27.5,-0.6,-0.4,-1.9,25,990.73,10.7534,28.0626,-0.54866,-0.445051,-1.71765,
2026_07_06_18_46_28.362,3.87,31.9,0,0.761,0,0,0,0, ,0,0,0,0,0, ,991.2,10.3,28.3,-0.5,-0.5,-1.7,25,990.813,10.7014,28.0527,-0.548741,-0.445353,-1.72267,
2026_07_06_18_46_28.368,3.87,31.9,0,0.761,0,0,0,0, ,0,0,0,0,0, ,991.6,10.6,26.9,-0.6,-0.5,-1.7,25,990.849,10.686,28.0251,-0.548818,-0.448683,-1.72129,
2026_07_06_18_46_28.397,3.87,31.9,0,0.763,0,0,0,0, ,0,0,0,0,0, ,989.8,11.5,29.6,-0.6,-0.4,-1.6,25,990.84,10.7082,28.0388,-0.551937,-0.448763,-1.71695,
2026_07_06_18_46_28.407,3.87,31.9,0,0.759,0,0,0,0, ,0,0,0,0,0, ,989.8,9.3,26.8,-0.6,-0.3,-1.8,25,990.777,10.6894,28.0487,-0.554866,-0.442745,-1.71591,
2026_07_06_18_46_28.436,3.87,31.8,0,0.76,0,0,0,0, ,0,0,0,0,0, ,991.2,10.8,28.1,-0.6,-0.3,-1.9,25,990.76,10.6505,28.0122,-0.557616,-0.434046,-1.72408,
2026_07_06_18_46_28.446,3.87,31.9,0,0.76,0,0,0,0, ,0,0,0,0,0, ,991.2,11.7,29.7,-0.6,-0.5,-1.8,25,990.787,10.687,28.0663,-0.560199,-0.431972,-1.73176,
2026_07_06_18_46_28.476,3.87,31.9,0,0.761,0,0,0,0, ,0,0,0,0,0, ,992.6,10.4,28.1,-0.6,-0.5,-1.6,25,990.854,10.7091,28.1171,-0.562624,-0.436117,-1.72982,
2026_07_06_18_46_28.486,3.87,31.8,0,0.759,0,0,0,0, ,0,0,0,0,0, ,991.4,12.2,27.5,-0.5,-0.4,-1.6,25,990.924,10.7451,28.0978,-0.561855,-0.436963,-1.72191,
2026_07_06_18_46_28.515,3.87,31.8,0,0.759,0,0,0,0, ,0,0,0,0,0, ,990.7,10.7,28,-0.5,-0.4,-1.6,25,990.932,10.7881,28.0766,-0.558086,-0.434711,-1.71448,
2026_07_06_18_46_28.525,3.87,31.8,0,0.76,0,0,0,0, ,0,0,0,0,0, ,989.5,12.5,29.9,-0.5,-0.5,-1.8,25,990.881,10.8376,28.1298,-0.554546,-0.435642,-1.7136,
2026_07_06_18_46_28.554,3.87,31.8,0,0.758,0,0,0,0, ,0,0,0,0,0, ,989.2,12,28.6,-0.6,-0.5,-1.7,25,990.788,10.9236,28.1981,-0.554269,-0.439564,-1.71582,
2026_07_06_18_46_28.564,3.87,31.9,0,0.76,0,0,0,0, ,0,0,0,0,0, ,990.6,10.3,27.8,-0.5,-0.4,-1.7,25,990.734,10.9374,28.1982,-0.554009,-0.4402,-1.71485,
2026_07_06_18_46_28.594,3.87,31.9,0,0.761,0,0,0,0, ,0,0,0,0,0, ,990.9,10.8,26.3,-0.6,-0.2,-1.9,25,990.735,10.9138,28.1282,-0.553765,-0.431657,-1.72004,
2026_07_06_18_46_28.609,3.87,31.9,0,0.76,0,0,0,0, ,0,0,0,0,0, ,991.3,10.2,28.4,-0.6,-0.3,-1.8,25,990.757,10.8886,28.0808,-0.556582,-0.420587,-1.72796,
2026_07_06_18_46_28.639,3.87,31.9,0,0.761,0,0,0,0, ,0,0,0,0,0, ,991.3,10.7,29.7,-0.6,-0.3,-1.8,25,990.79,10.8619,28.1399,-0.559228,-0.413239,-1.73235,
2026_07_06_18_46_28.644,3.87,31.8,0,0.76,0,0,0,0, ,0,0,0,0,0, ,990.9,13.9,29.2,-0.5,-0.5,-1.7,25,990.809,10.9495,28.2197,-0.558666,-0.412432,-1.73343,
2026_07_06_18_46_28.675,3.87,31.9,0,0.761,0,0,0,0, ,0,0,0,0,0, ,991.4,10.6,27.7,-0.5,-0.5,-1.6,25,990.83,11.0288,28.2337,-0.555091,-0.417768,-1.72834,
2026_07_06_18_46_28.684,3.87,31.8,0,0.759,0,0,0,0, ,0,0,0,0,0, ,991.3,12,29,-0.6,-0.4,-1.7,25,990.861,11.0453,28.2408,-0.55478,-0.419732,-1.72357,
2026_07_06_18_46_28.714,3.87,31.9,0,0.76,0,0,0,0, ,0,0,0,0,0, ,990.8,10.7,28.5,-0.5,-0.5,-1.6,25,990.873,11.0639,28.2718,-0.554489,-0.421577,-1.71909,
2026_07_06_18_46_28.723,3.87,31.8,0,0.759,0,0,0,0, ,0,0,0,0,0, ,991,10.3,29.2,-0.6,-0.4,-1.8,25,990.875,11.0295,28.3071,-0.554216,-0.423309,-1.71792,
2026_07_06_18_46_28.754,3.87,31.8,0,0.76,0,0,0,0, ,0,0,0,0,0, ,991.6,9.2,28.6,-0.6,-0.4,-1.8,25,990.901,10.9515,28.3432,-0.557006,-0.421888,-1.72292,
2026_07_06_18_46_28.763,3.87,31.9,0,0.759,0,0,0,0, ,0,0,0,0,0, ,990.3,12.4,30.7,-0.5,-0.4,-1.8,25,990.904,10.9423,28.4228,-0.556579,-0.420555,-1.72762,
2026_07_06_18_46_28.792,3.87,31.9,0,0.758,0,0,0,0, ,0,0,0,0,0, ,991.9,10.4,28.5,-0.6,-0.5,-1.7,25,990.916,10.9702,28.4946,-0.556178,-0.422349,-1.72898,
2026_07_06_18_46_28.803,3.87,31.8,0,0.76,0,0,0,0, ,0,0,0,0,0, ,991,10,29.1,-0.5,-0.4,-1.6,25,990.948,10.9232,28.5132,-0.555801,-0.424034,-1.72417,
2026_07_06_18_46_28.834,3.87,31.8,0,0.76,0,0,0,0, ,0,0,0,0,0, ,992.3,8.6,26.9,-0.5,-0.4,-1.7,25,990.991,10.8243,28.4819,-0.552401,-0.422569,-1.71965,
2026_07_06_18_46_28.842,3.87,31.8,0,0.759,0,0,0,0, ,0,0,0,0,0, ,991.6,10,28.3,-0.5,-0.3,-2,25,991.049,10.7314,28.4282,-0.549208,-0.418147,-1.72759,
2026_07_06_18_46_28.871,3.87,31.9,0,0.759,0,0,0,0, ,0,0,0,0,0, ,991.4,12.4,30.1,-0.6,-0.4,-1.8,25,991.077,10.76,28.4752,-0.549256,-0.413994,-1.7381,
2026_07_06_18_46_28.882,3.87,31.8,0,0.76,0,0,0,0, ,0,0,0,0,0, ,990.4,15.1,30.6,-0.6,-0.5,-1.7,25,991.066,10.9422,28.5894,-0.552348,-0.416188,-1.73883,
2026_07_06_18_46_28.912,3.87,31.9,0,0.76,0,0,0,0, ,0,0,0,0,0, ,991,12,28,-0.5,-0.5,-1.6,25,991.044,11.1011,28.6327,-0.552205,-0.421296,-1.73341,
2026_07_06_18_46_28.921,3.87,31.9,0,0.76,0,0,0,0, ,0,0,0,0,0, ,991.4,10.4,26.9,-0.5,-0.5,-1.8,25,991.053,11.1071,28.5607,-0.549024,-0.426092,-1.73138,
2026_07_06_18_46_28.950,3.87,31.9,0,0.76,0,0,0,0, ,0,0,0,0,0, ,991.4,10.1,28,-0.6,-0.3,-1.9,25,991.074,11.0549,28.493,-0.549083,-0.424502,-1.73861,
2026_07_06_18_46_28.961,3.87,31.8,0,0.76,0,0,0,0, ,0,0,0,0,0, ,991,11.4,29.5,-0.5,-0.5,-1.6,25,991.082,11.0363,28.5087,-0.549139,-0.423009,-1.7393,
2026_07_06_18_46_28.992,3.87,31.8,0,0.76,0,0,0,0, ,0,0,0,0,0, ,990.6,10.1,27.4,-0.6,-0.6,-1.6,25,991.065,11.0189,28.5051,-0.549192,-0.430747,-1.73081,
2026_07_06_18_46_29.001,3.87,31.8,0,0.759,0,0,0,0, ,0,0,0,0,0, ,991.2,11.1,27.7,-0.5,-0.6,-1.5,25,991.055,10.9934,28.4469,-0.549241,-0.441061,-1.71979,
2026_07_06_18_46_29.031,3.87,31.9,0,0.76,0,0,0,0, ,0,0,0,0,0, ,989.9,11.1,28.1,-0.5,-0.6,-1.5,25,991.024,10.9999,28.4136,-0.54624,-0.450746,-1.7064,
2026_07_06_18_46_29.040,3.87,31.8,0,0.76,0,0,0,0, ,0,0,0,0,0, ,990.9,10.3,27,-0.6,-0.6,-1.6,25,990.986,10.9816,28.3609,-0.546469,-0.459842,-1.69687,
2026_07_06_18_46_29.070,3.87,31.8,0,0.759,0,0,0,0, ,0,0,0,0,0, ,990.7,10.1,26.6,-0.6,-0.5,-1.6,25,990.975,10.934,28.2658,-0.549731,-0.465336,-1.69097,
2026_07_06_18_46_29.079,3.87,32,0,0.759,0,0,0,0, ,0,0,0,0,0, ,991.8,9.5,26.1,-0.5,-0.5,-1.7,25,990.991,10.8649,28.1491,-0.549748,-0.467448,-1.68847,
2026_07_06_18_46_29.110,3.87,31.8,0,0.761,0,0,0,0, ,0,0,0,0,0, ,991.5,10.2,28.9,-0.6,-0.4,-1.8,25,991.032,10.803,28.1095,-0.549763,-0.466385,-1.69222,
2026_07_06_18_46_29.120,3.87,31.9,0,0.761,0,0,0,0, ,0,0,0,0,0, ,990.6,11.4,29,-0.6,-0.4,-1.8,25,991.033,10.8028,28.1607,-0.552825,-0.462339,-1.69879,
2026_07_06_18_46_29.151,3.87,31.8,0,0.76,0,0,0,0, ,0,0,0,0,0, ,990.1,10.2,29,-0.5,-0.4,-1.7,25,990.991,10.8027,28.2119,-0.552652,-0.458541,-1.70191,
2026_07_06_18_46_29.159,3.87,31.8,0,0.76,0,0,0,0, ,0,0,0,0,0, ,990.8,12.8,29.2,-0.5,-0.5,-1.6,25,990.958,10.8451,28.266,-0.549444,-0.45802,-1.69874,
2026_07_06_18_46_29.188,3.87,31.8,0,0.761,0,0,0,0, ,0,0,0,0,0, ,991.3,11.8,29.1,-0.6,-0.6,-1.5,25,990.964,10.9338,28.3199,-0.549478,-0.463625,-1.68968,
2026_07_06_18_46_29.200,3.87,31.9,0,0.76,0,0,0,0, ,0,0,0,0,0, ,990.9,9.7,27.7,-0.5,-0.7,-1.6,25,990.972,10.9226,28.3247,-0.54951,-0.474982,-1.68117,
2026_07_06_18_46_29.231,3.87,31.8,0,0.761,0,0,0,0, ,0,0,0,0,0, ,990.3,10.7,27,-0.6,-0.5,-1.7,25,990.949,10.8786,28.2653,-0.549539,-0.482601,-1.67927,
2026_07_06_18_46_29.237,3.87,31.7,0,0.759,0,0,0,0, ,0,0,0,0,0, ,991.4,10.2,26.6,-0.5,-0.4,-1.7,25,990.943,10.8525,28.1761,-0.549568,-0.480614,-1.68053,
2026_07_06_18_46_29.268,3.87,31.9,0,0.76,0,0,0,0, ,0,0,0,0,0, ,990.6,11.7,29.6,-0.6,-0.4,-1.7,25,990.947,10.8584,28.1714,-0.549594,-0.475702,-1.68172,
2026_07_06_18_46_29.278,3.87,31.8,0,0.761,0,0,0,0, ,0,0,0,0,0, ,990.7,11.4,27,-0.6,-0.5,-1.7,25,990.929,10.9005,28.1793,-0.552666,-0.474135,-1.68283,
2026_07_06_18_46_29.309,3.87,31.8,0,0.76,0,0,0,0, ,0,0,0,0,0, ,991.8,9.5,26.2,-0.6,-0.4,-1.8,25,990.948,10.8731,28.083,-0.55555,-0.472665,-1.68693,
2026_07_06_18_46_29.317,3.87,31.9,0,0.76,0,0,0,0, ,0,0,0,0,0, ,990.3,10.8,28.9,-0.5,-0.3,-1.9,25,990.954,10.829,28.0505,-0.555212,-0.46519,-1.69686,
2026_07_06_18_46_29.347,3.87,31.9,0,0.761,0,0,0,0, ,0,0,0,0,0, ,992.1,12.3,28.5,-0.6,-0.5,-1.8,25,990.969,10.873,28.0901,-0.554894,-0.461217,-1.7062,
2026_07_06_18_46_29.356,3.87,31.9,0,0.76,0,0,0,0, ,0,0,0,0,0, ,990.4,10.7,26.8,-0.5,-0.5,-1.6,25,990.987,10.9112,28.0633,-0.554596,-0.463581,-1.70582,
2026_07_06_18_46_29.389,3.87,31.8,0,0.76,0,0,0,0, ,0,0,0,0,0, ,991.9,12.3,27.9,-0.5,-0.5,-1.5,25,990.996,10.9471,28.0198,-0.551269,-0.4658,-1.69632,
2026_07_06_18_46_29.396,3.87,31.9,0,0.76,0,0,0,0, ,0,0,0,0,0, ,991.4,10.9,28.5,-0.5,-0.6,-1.4,25,991.036,10.9868,28.0308,-0.548145,-0.470931,-1.68131,
2026_07_06_18_46_29.428,3.87,31.9,0,0.761,0,0,0,0, ,0,0,0,0,0, ,991,11.1,27.7,-0.5,-0.6,-1.6,25,991.046,10.9876,28.035,-0.545211,-0.478796,-1.67026,
2026_07_06_18_46_29.435,3.87,31.8,0,0.76,0,0,0,0, ,0,0,0,0,0, ,991.3,10.1,28.9,-0.5,-0.6,-1.6,25,991.053,10.964,28.0512,-0.542456,-0.486182,-1.66598,
2026_07_06_18_46_29.467,3.87,31.8,0,0.759,0,0,0,0, ,0,0,0,0,0, ,990.8,11.1,28.8,-0.5,-0.6,-1.6,25,991.052,10.9418,28.0998,-0.539869,-0.493118,-1.66196,
2026_07_06_18_46_29.476,3.87,31.8,0,0.762,0,0,0,0, ,0,0,0,0,0, ,989.7,12.3,29.6,-0.5,-0.9,-1.4,25,991.004,10.988,28.1669,-0.537439,-0.508771,-1.65209,
2026_07_06_18_46_29.508,3.87,31.9,0,0.76,0,0,0,0, ,0,0,0,0,0, ,990.3,8.9,26.2,-0.6,-1,-1.3,25,990.942,10.9644,28.1506,-0.538205,-0.535659,-1.63368,
2026_07_06_18_46_29.515,3.87,31.8,0,0.76,0,0,0,0, ,0,0,0,0,0, ,992.4,7.9,24.1,-0.7,-0.5,-1.6,25,990.967,10.8081,27.9678,-0.545017,-0.54872,-1.62249,
2026_07_06_18_46_29.546,3.87,31.8,0,0.762,0,0,0,0, ,0,0,0,0,0, ,992,9.6,26.4,-0.7,0,-1.9,25,991.042,10.6827,27.8022,-0.554461,-0.530517,-1.63026,
2026_07_06_18_46_29.555,3.87,31.8,0,0.758,0,0,0,0, ,0,0,0,0,0, ,990.9,10.3,29.5,-0.7,-0.3,-1.9,25,991.067,10.6381,27.8112,-0.56333,-0.507329,-1.6467,
2026_07_06_18_46_29.586,3.87,31.8,0,0.76,0,0,0,0, ,0,0,0,0,0, ,990.1,10.1,29.2,-0.5,-0.5,-1.8,25,991.033,10.6114,27.9049,-0.565565,-0.500789,-1.65909,
2026_07_06_18_46_29.594,3.87,31.9,0,0.76,0,0,0,0, ,0,0,0,0,0, ,991.3,11.5,28,-0.6,-0.5,-1.7,25,991.012,10.6229,27.9473,-0.564616,-0.500741,-1.66463,
2026_07_06_18_46_29.625,3.87,31.9,0,0.76,0,0,0,0, ,0,0,0,0,0, ,990.4,11.9,27.7,-0.6,-0.5,-1.5,25,991.002,10.6885,27.9414,-0.566773,-0.500696,-1.66069,
2026_07_06_18_46_29.633,3.87,31.8,0,0.76,0,0,0,0, ,0,0,0,0,0, ,990.7,9.2,28,-0.6,-0.3,-1.6,25,990.975,10.6801,27.9358,-0.568797,-0.494559,-1.65394,
2026_07_06_18_46_29.672,3.87,31.8,0,0.76,0,0,0,0, ,0,0,0,0,0, ,991.3,9.7,27.3,-0.6,-0.3,-1.8,25,990.976,10.6051,27.9184,-0.570699,-0.482704,-1.65675,
2026_07_06_18_46_29.680,3.87,31.9,0,0.76,0,0,0,0, ,0,0,0,0,0, ,991.5,8.9,27,-0.6,-0.4,-1.8,25,991.002,10.5256,27.8716,-0.572484,-0.474617,-1.66548,
2026_07_06_18_46_29.715,3.87,31.8,0,0.759,0,0,0,0, ,0,0,0,0,0, ,989.2,9.7,28,-0.6,-0.5,-1.6,25,990.962,10.4509,27.8489,-0.574161,-0.473117,-1.66758,
2026_07_06_18_46_29.715,3.87,31.9,0,0.76,0,0,0,0, ,0,0,0,0,0, ,991.8,9.5,27.2,-0.5,-0.5,-1.8,25,990.934,10.399,27.8338,-0.572689,-0.474755,-1.66956,
2026_07_06_18_46_29.749,3.87,31.8,0,0.76,0,0,0,0, ,0,0,0,0,0, ,989.3,9,26.1,-0.6,-0.3,-1.9,25,990.911,10.329,27.7616,-0.571306,-0.4702,-1.68055,
2026_07_06_18_46_29.758,3.87,31.8,0,0.761,0,0,0,0, ,0,0,0,0,0, ,990.4,11.7,29.6,-0.6,-0.1,-2.1,25,990.846,10.3303,27.767,-0.573055,-0.453734,-1.70002,
2026_07_06_18_46_29.794,3.87,31.9,0,0.76,0,0,0,0, ,0,0,0,0,0, ,990.1,11.4,28.4,-0.6,-0.4,-1.8,25,990.81,10.4046,27.8421,-0.574697,-0.441319,-1.71525,
2026_07_06_18_46_29.794,3.87,31.8,0,0.759,0,0,0,0, ,0,0,0,0,0, ,991.9,9.3,26.8,-0.6,-0.5,-1.8,25,990.821,10.4013,27.8274,-0.576239,-0.441848,-1.72042,
2026_07_06_18_46_29.830,3.87,31.8,0,0.759,0,0,0,0, ,0,0,0,0,0, ,991,10.2,29.4,-0.5,-0.6,-1.6,25,990.86,10.3616,27.844,-0.57464,-0.448439,-1.71917,
2026_07_06_18_46_29.836,3.87,31.9,0,0.759,0,0,0,0, ,0,0,0,0,0, ,990.7,9.5,25.6,-0.5,-0.6,-1.5,25,990.859,10.3304,27.823,-0.570091,-0.457675,-1.70886,
2026_07_06_18_46_29.870,3.87,31.9,0,0.761,0,0,0,0, ,0,0,0,0,0, ,991.5,7.5,26.4,-0.6,-0.3,-1.9,25,990.874,10.2189,27.7119,-0.568867,-0.457207,-1.70832,
2026_07_06_18_46_29.876,3.87,31.9,0,0.761,0,0,0,0, ,0,0,0,0,0, ,991.2,11.7,29.2,-0.6,-0.3,-2,25,990.903,10.1812,27.7173,-0.570764,-0.447627,-1.72305,
2026_07_06_18_46_29.912,3.87,31.8,0,0.76,0,0,0,0, ,0,0,0,0,0, ,992.7,10.9,26.7,-0.6,-0.3,-1.8,25,990.967,10.2494,27.7315,-0.572546,-0.438631,-1.73383,
2026_07_06_18_46_29.913,3.87,31.8,0,0.76,0,0,0,0, ,0,0,0,0,0, ,990.8,10.8,27.7,-0.5,-0.4,-1.7,25,991.014,10.286,27.6991,-0.571172,-0.43323,-1.73482,
2026_07_06_18_46_29.947,3.87,31.9,0,0.761,0,0,0,0, ,0,0,0,0,0, ,992.1,11.8,29.5,-0.5,-0.5,-1.6,25,991.041,10.3477,27.754,-0.566835,-0.434252,-1.72965,
2026_07_06_18_46_29.954,3.87,31.8,0,0.76,0,0,0,0, ,0,0,0,0,0, ,991.2,9.2,25.2,-0.5,-0.6,-1.6,25,991.078,10.357,27.7294,-0.562762,-0.441305,-1.72175,
2026_07_06_18_46_29.993,3.87,31.8,0,0.762,0,0,0,0, ,0,0,0,0,0, ,990.7,7.8,26.9,-0.6,-0.3,-1.8,25,991.07,10.2439,27.627,-0.561984,-0.441835,-1.72042,
2026_07_06_18_46_29.993,3.87,31.8,0,0.76,0,0,0,0, ,0,0,0,0,0, ,989.6,10.9,27.7,-0.6,-0.3,-2.1,25,991.014,10.1894,27.6071,-0.564301,-0.433192,-1.73441,
2026_07_06_18_46_30.028,3.87,31.9,0,0.761,0,0,0,0, ,0,0,0,0,0, ,990.2,13.1,29.5,-0.5,-0.6,-1.6,25,990.946,10.2997,27.6676,-0.563429,-0.434216,-1.74146,
2026_07_06_18_46_30.034,3.87,31.8,0,0.759,0,0,0,0, ,0,0,0,0,0, ,992,12.2,30.1,-0.5,-0.7,-1.3,25,990.956,10.4429,27.7976,-0.559564,-0.447366,-1.7237,
2026_07_06_18_46_30.069,3.87,31.8,0,0.759,0,0,0,0, ,0,0,0,0,0, ,991.8,8.3,26.2,-0.6,-0.7,-1.5,25,991.013,10.4312,27.819,-0.558981,-0.462761,-1.70397,
2026_07_06_18_46_30.069,3.87,31.8,0,0.761,0,0,0,0, ,0,0,0,0,0, ,990.4,7.5,26,-0.6,-0.2,-1.9,25,991.018,10.2769,27.7143,-0.561481,-0.461983,-1.70373,
2026_07_06_18_46_30.104,3.87,31.9,0,0.762,0,0,0,0, ,0,0,0,0,0, ,989.9,12.2,29.6,-0.6,-0.1,-2.1,25,990.966,10.2509,27.7195,-0.563828,-0.442972,-1.72178,
2026_07_06_18_46_30.110,3.87,31.8,0,0.76,0,0,0,0, ,0,0,0,0,0, ,990.4,14.4,29.9,-0.6,-0.5,-1.9,25,990.916,10.4367,27.8432,-0.566032,-0.434259,-1.73874,
2026_07_06_18_46_30.147,3.87,31.8,0,0.762,0,0,0,0, ,0,0,0,0,0, ,991.6,13.5,28.1,-0.5,-0.7,-1.6,25,990.921,10.6508,27.9137,-0.565055,-0.444359,-1.73942,
2026_07_06_18_46_30.153,3.87,31.9,0,0.761,0,0,0,0, ,0,0,0,0,0, ,991.6,10.9,27.4,-0.6,-0.8,-1.4,25,990.962,10.7452,27.9038,-0.564138,-0.462984,-1.72483,
2026_07_06_18_46_30.189,3.87,31.8,0,0.76,0,0,0,0, ,0,0,0,0,0, ,991.4,9.3,26,-0.5,-0.5,-1.6,25,990.995,10.7059,27.8304,-0.563277,-0.47438,-1.71113,
2026_07_06_18_46_30.189,3.87,31.8,0,0.759,0,0,0,0, ,0,0,0,0,0, ,989.7,10.4,27.2,-0.6,-0.2,-1.8,25,990.968,10.6537,27.7554,-0.562467,-0.466801,-1.71045,
2026_07_06_18_46_30.224,3.87,31.8,0,0.761,0,0,0,0, ,0,0,0,0,0, ,990.6,12.6,30.6,-0.5,-0.5,-1.8,25,990.918,10.7053,27.8252,-0.561708,-0.459683,-1.71591,
2026_07_06_18_46_30.230,3.87,31.8,0,0.758,0,0,0,0, ,0,0,0,0,0, ,991.3,10.9,30.3,-0.6,-0.7,-1.5,25,990.92,10.769,27.9851,-0.560994,-0.468234,-1.71189,
2026_07_06_18_46_30.264,3.87,31.8,0,0.76,0,0,0,0, ,0,0,0,0,0, ,991.3,8.1,27,-0.5,-0.6,-1.6,25,990.943,10.6916,28.0256,-0.560324,-0.47931,-1.70203,
2026_07_06_18_46_30.271,3.87,31.9,0,0.761,0,0,0,0, ,0,0,0,0,0, ,991.6,9.1,25.8,-0.6,-0.2,-1.8,25,990.974,10.5642,27.9266,-0.559695,-0.474477,-1.70191,
2026_07_06_18_46_30.316,3.87,31.8,0,0.76,0,0,0,0, ,0,0,0,0,0, ,990.2,9.8,28.5,-0.6,-0.1,-2,25,990.97,10.4963,27.8793,-0.562151,-0.454704,-1.71398,
2026_07_06_18_46_30.316,3.87,31.8,0,0.761,0,0,0,0, ,0,0,0,0,0, ,989.6,10.1,28,-0.6,-0.4,-2,25,990.904,10.463,27.9018,-0.564458,-0.44223,-1.73141,
2026_07_06_18_46_30.350,3.87,31.8,0,0.759,0,0,0,0, ,0,0,0,0,0, ,989.6,11.1,29.7,-0.6,-0.6,-1.6,25,990.825,10.4714,27.9596,-0.566624,-0.445751,-1.73559,
2026_07_06_18_46_30.351,3.87,31.9,0,0.761,0,0,0,0, ,0,0,0,0,0, ,991.6,10.8,27.9,-0.6,-0.6,-1.6,25,990.811,10.5005,28.0108,-0.568657,-0.45515,-1.72732,
2026_07_06_18_46_30.386,3.87,31.8,0,0.762,0,0,0,0, ,0,0,0,0,0, ,990.2,11.1,29.2,-0.5,-0.5,-1.4,25,990.817,10.5279,28.0437,-0.56752,-0.46093,-1.71347,
2026_07_06_18_46_30.393,3.87,31.8,0,0.761,0,0,0,0, ,0,0,0,0,0, ,993.5,9,26.4,-0.5,-0.6,-1.5,25,990.88,10.4988,28.0288,-0.563406,-0.466358,-1.69742,
2026_07_06_18_46_30.429,3.87,31.9,0,0.759,0,0,0,0, ,0,0,0,0,0, ,990.9,8.5,27.8,-0.5,-0.6,-1.7,25,990.96,10.3922,27.9722,-0.559542,-0.474502,-1.69148,
2026_07_06_18_46_30.429,3.87,31.8,0,0.759,0,0,0,0, ,0,0,0,0,0, ,990.8,9.6,26.9,-0.5,-0.6,-1.8,25,990.953,10.3104,27.9343,-0.555914,-0.482149,-1.69505,
2026_07_06_18_46_30.464,3.87,31.9,0,0.761,0,0,0,0, ,0,0,0,0,0, ,989.6,10.1,25.8,-0.5,-0.6,-1.8,25,990.907,10.2824,27.8378,-0.552507,-0.489331,-1.70144,
2026_07_06_18_46_30.469,3.87,31.8,0,0.76,0,0,0,0, ,0,0,0,0,0, ,991.2,9.8,25.8,-0.6,-0.2,-1.8,25,990.877,10.2621,27.7136,-0.552354,-0.483887,-1.70745,
2026_07_06_18_46_30.503,3.87,31.8,0,0.76,0,0,0,0, ,0,0,0,0,0, ,989.9,10.4,28.3,-0.5,-0.2,-1.9,25,990.857,10.2522,27.6732,-0.55221,-0.466588,-1.71613,
