UTC_Time,Vin,TC1,TC2,Rh1,Vh1,Ah1,Acp1,Dty1,Err1,Rh2,Vh2,Ah2,Acp2,Dty2,Err2,Accel_x,Accel_y,Accel_z,gyro_x,gyro_y,gyro_z,Temp_c,Accel_x_h,Accel_y_h,Accel_z_h,gyro_x_h,gyro_y_h,gyro_z_h,
2026_07_06_16_58_32.245,3.869,0,0,0.764,0,0,0,0, ,0,0,0,0,0, ,607.7,627.3,471.3,-0.4,-0.4,-1.8,25,607.7,627.3,471.3,-0.4,-0.4,-1.8,
2026_07_06_16_58_32.265,3.869,37.3,0,0.765,0,0,0,0, ,0,0,0,0,0, ,608.1,627.1,468.6,-1.2,0.3,-2.4,25,607.712,627.294,471.218,-0.424375,-0.378672,-1.81828,
2026_07_06_16_58_32.284,3.869,37.2,0,0.763,0,0,0,0, ,0,0,0,0,0, ,608.6,629.1,471.4,-0.7,0.3,-2.1,25,607.751,627.343,471.144,-0.456405,-0.337315,-1.84459,
2026_07_06_16_58_32.304,3.869,37.2,0,0.763,0,0,0,0, ,0,0,0,0,0, ,602.2,628.1,479.1,-0.2,-0.1,-1.4,25,607.608,627.42,471.394,-0.456015,-0.310666,-1.83883,
2026_07_06_16_58_32.324,3.869,37,0,0.766,0,0,0,0, ,0,0,0,0,0, ,602.9,627.9,476.8,-0.6,-0.2,-2.1,25,607.3,627.455,471.793,-0.452602,-0.300876,-1.83341,
2026_07_06_16_58_32.344,3.869,37,0,0.763,0,0,0,0, ,0,0,0,0,0, ,606.9,625.6,473.2,-0.5,-0.4,-1.9,25,607.153,627.412,471.989,-0.458537,-0.300822,-1.84356,
2026_07_06_16_58_32.368,3.869,37.2,0,0.765,0,0,0,0, ,0,0,0,0,0, ,607.9,628.7,474.2,0,-1,-1.4,25,607.168,627.396,472.093,-0.445829,-0.325147,-1.83177,
2026_07_06_16_58_32.384,3.869,37.2,0,0.765,0,0,0,0, ,0,0,0,0,0, ,602.4,627.6,476.8,0.3,-1.5,-1,25,607.045,627.442,472.301,-0.409521,-0.381506,-1.79327,
2026_07_06_16_58_32.403,3.869,37,0,0.765,0,0,0,0, ,0,0,0,0,0, ,606.3,630.4,473.8,-0.6,-1.4,-1.5,25,606.881,627.537,472.483,-0.393706,-0.446617,-1.76016,
2026_07_06_16_58_32.423,3.869,37.2,0,0.765,0,0,0,0, ,0,0,0,0,0, ,612.9,627.3,468.3,-1,-0.3,-2.1,25,607.047,627.617,472.396,-0.418465,-0.471198,-1.76259,
2026_07_06_16_58_32.443,3.869,37.2,0,0.765,0,0,0,0, ,0,0,0,0,0, ,613.8,627.1,466.3,-1,-0.1,-1.9,25,607.431,627.592,472.085,-0.453902,-0.454672,-1.77706,
2026_07_06_16_58_32.463,3.869,37,0,0.765,0,0,0,0, ,0,0,0,0,0, ,609.6,626.2,468.3,-1,0.6,-2.3,25,607.691,627.534,471.794,-0.48718,-0.411731,-1.79674,
2026_07_06_16_58_32.483,3.869,37,0,0.766,0,0,0,0, ,0,0,0,0,0, ,603.1,629.6,477.4,-0.3,0.1,-1.8,25,607.609,627.556,471.858,-0.497102,-0.365313,-1.81217,
2026_07_06_16_58_32.503,3.869,37.2,0,0.766,0,0,0,0, ,0,0,0,0,0, ,601.1,631.2,482,-0.1,-1,-1.2,25,607.274,627.73,472.336,-0.478997,-0.370474,-1.79315,
2026_07_06_16_58_32.523,3.869,37.2,0,0.766,0,0,0,0, ,0,0,0,0,0, ,603.2,626.4,474.7,-0.9,-0.5,-2.3,25,606.961,627.795,472.703,-0.480277,-0.393601,-1.79052,
2026_07_06_16_58_32.542,3.869,37,0,0.765,0,0,0,0, ,0,0,0,0,0, ,609.9,630,469.8,-0.4,-0.7,-1.7,25,606.936,627.82,472.675,-0.490619,-0.406178,-1.80328,
2026_07_06_16_58_32.562,3.869,37,0,0.766,0,0,0,0, ,0,0,0,0,0, ,608.3,626.8,469.3,0,-1,-1.2,25,607.068,627.855,472.485,-0.47291,-0.433224,-1.78176,
2026_07_06_16_58_32.581,3.869,37,0,0.765,0,0,0,0, ,0,0,0,0,0, ,608.1,628.2,472.5,0,-0.1,-1.8,25,607.137,627.833,472.388,-0.444092,-0.44034,-1.76459,
2026_07_06_16_58_32.602,3.869,37,0,0.764,0,0,0,0, ,0,0,0,0,0, ,603.2,629.1,475.5,-0.6,0,-2.1,25,607.047,627.883,472.486,-0.435311,-0.416554,-1.77589,
2026_07_06_16_58_32.621,3.869,37,0,0.763,0,0,0,0, ,0,0,0,0,0, ,608.3,626.8,472,-1,0.3,-2.4,25,606.968,627.887,472.563,-0.457534,-0.382029,-1.80478,
2026_07_06_16_58_32.641,3.869,37,0,0.765,0,0,0,0, ,0,0,0,0,0, ,607.6,627.8,474.9,-0.6,0,-1.8,25,607.027,627.851,472.617,-0.478403,-0.349609,-1.82277,
2026_07_06_16_58_32.661,3.869,37,0,0.765,0,0,0,0, ,0,0,0,0,0, ,602.5,629.8,479.7,-0.3,-0.4,-1.4,25,606.907,627.909,472.903,-0.476673,-0.340492,-1.80919,
2026_07_06_16_58_32.680,3.869,37,0,0.764,0,0,0,0, ,0,0,0,0,0, ,599.1,628.4,482.6,0.1,-1.6,-1.1,25,606.535,627.982,473.405,-0.453719,-0.380681,-1.77512,
2026_07_06_16_58_32.700,3.869,37.2,0,0.765,0,0,0,0, ,0,0,0,0,0, ,603,630.8,477.6,-0.1,-2.5,-1,25,606.201,628.08,473.813,-0.426071,-0.482405,-1.73093,
2026_07_06_16_58_32.720,3.869,37,0,0.766,0,0,0,0, ,0,0,0,0,0, ,611.8,626.9,466,-1.1,-1.8,-1.7,25,606.274,628.127,473.69,-0.436669,-0.584024,-1.70772,
2026_07_06_16_58_32.740,3.869,37,0,0.765,0,0,0,0, ,0,0,0,0,0, ,615.3,626.8,460.2,-0.7,-0.2,-1.9,25,606.717,628.049,473.045,-0.464904,-0.609372,-1.71334,
2026_07_06_16_58_32.760,3.869,37,0,0.766,0,0,0,0, ,0,0,0,0,0, ,607.5,629.8,468.9,0,0,-1.3,25,607.002,628.065,472.527,-0.457902,-0.578333,-1.70643,
2026_07_06_16_58_32.780,3.869,37,0,0.764,0,0,0,0, ,0,0,0,0,0, ,600.3,629.3,479.3,-0.3,-0.1,-1.8,25,606.813,628.155,472.623,-0.439139,-0.546137,-1.6969,
2026_07_06_16_58_32.800,3.869,37,0,0.767,0,0,0,0, ,0,0,0,0,0, ,605.5,629,473.7,-1.2,0.3,-2.9,25,606.575,628.216,472.86,-0.458082,-0.506763,-1.7367,
2026_07_06_16_58_32.819,3.869,37,0,0.765,0,0,0,0, ,0,0,0,0,0, ,607.5,628.6,472.2,-0.2,-0.5,-1.6,25,606.57,628.251,472.865,-0.472824,-0.481976,-1.76798,
2026_07_06_16_58_32.839,3.869,37.2,0,0.764,0,0,0,0, ,0,0,0,0,0, ,605.1,627,476,0,-0.7,-1.5,25,606.554,628.224,472.94,-0.450105,-0.489168,-1.7547,
2026_07_06_16_58_32.859,3.869,37,0,0.765,0,0,0,0, ,0,0,0,0,0, ,605.7,626.8,476.8,-0.3,-0.8,-1.8,25,606.484,628.143,473.151,-0.431817,-0.505063,-1.74832,
2026_07_06_16_58_32.878,3.869,37,0,0.765,0,0,0,0, ,0,0,0,0,0, ,604.9,628.9,475.7,-0.3,-1.2,-1.5,25,606.411,628.125,473.34,-0.423785,-0.535223,-1.74232,
2026_07_06_16_58_32.904,3.869,37,0,0.765,0,0,0,0, ,0,0,0,0,0, ,603.7,627.6,476.1,-0.3,-1.4,-1.4,25,606.283,628.133,473.496,-0.416242,-0.581827,-1.72451,
2026_07_06_16_58_32.918,3.869,37,0,0.764,0,0,0,0, ,0,0,0,0,0, ,604.2,629.5,473.3,-0.1,-2,-1,25,606.141,628.158,473.569,-0.403064,-0.649965,-1.69255,
2026_07_06_16_58_32.938,3.869,37.2,0,0.764,0,0,0,0, ,0,0,0,0,0, ,605.1,629.6,470.9,0,-1.8,-1.2,25,606.05,628.243,473.48,-0.38155,-0.726139,-1.65644,
2026_07_06_16_58_32.957,3.869,37.2,0,0.766,0,0,0,0, ,0,0,0,0,0, ,605.9,629.7,471.3,0,-2.1,-1.2,25,606.016,628.329,473.335,-0.358299,-0.800718,-1.62863,
2026_07_06_16_58_32.977,3.869,37,0,0.766,0,0,0,0, ,0,0,0,0,0, ,609.7,627.4,466,-0.8,-0.6,-2.5,25,606.125,628.342,473.049,-0.36084,-0.83419,-1.64212,
2026_07_06_16_58_32.997,3.869,37,0,0.765,0,0,0,0, ,0,0,0,0,0, ,610.7,628.1,467,-0.3,-0.6,-2.1,25,606.373,628.306,472.65,-0.372367,-0.819919,-1.68221,
2026_07_06_16_58_33.017,3.869,37,0,0.764,0,0,0,0, ,0,0,0,0,0, ,609,630,471,-0.1,-0.2,-1.9,25,606.585,628.352,472.428,-0.361863,-0.79433,-1.70157,
2026_07_06_16_58_33.043,3.869,37,0,0.764,0,0,0,0, ,0,0,0,0,0, ,607.6,626.8,472.7,-0.5,0.1,-2.3,25,606.69,628.355,472.393,-0.358094,-0.748973,-1.72585,
2026_07_06_16_58_33.057,3.869,37,0,0.765,0,0,0,0, ,0,0,0,0,0, ,609.4,629.6,473.3,-0.6,-0.2,-2.2,25,606.8,628.345,472.43,-0.369788,-0.706379,-1.75779,
2026_07_06_16_58_33.076,3.869,37,0,0.765,0,0,0,0, ,0,0,0,0,0, ,607.7,626.3,472.5,-0.9,0,-2.1,25,606.907,628.321,472.458,-0.392957,-0.669428,-1.78169,
2026_07_06_16_58_33.099,3.869,37,0,0.764,0,0,0,0, ,0,0,0,0,0, ,606.2,628,471.1,-1.1,0.4,-2.6,25,606.909,628.25,472.418,-0.429949,-0.616447,-1.81632,
2026_07_06_16_58_33.116,3.869,37,0,0.764,0,0,0,0, ,0,0,0,0,0, ,605.9,627.9,471.6,-1,0.2,-2.5,25,606.857,628.231,472.353,-0.467733,-0.560601,-1.86103,
2026_07_06_16_58_33.136,3.869,37,0,0.763,0,0,0,0, ,0,0,0,0,0, ,605.1,630.7,475.5,-0.1,-0.4,-1.6,25,606.774,628.297,472.426,-0.472746,-0.532533,-1.87255,
2026_07_06_16_58_33.156,3.869,37,0,0.766,0,0,0,0, ,0,0,0,0,0, ,602.4,628.7,475.3,-0.3,-0.8,-1.6,25,606.59,628.382,472.607,-0.456126,-0.536644,-1.85594,
2026_07_06_16_58_33.176,3.869,37,0,0.765,0,0,0,0, ,0,0,0,0,0, ,607.1,628.4,468.5,-1.2,-0.3,-2.2,25,606.478,628.392,472.564,-0.474034,-0.537458,-1.85862,
2026_07_06_16_58_33.202,3.869,37,0,0.765,0,0,0,0, ,0,0,0,0,0, ,610.7,628.4,468.7,-0.6,-0.4,-1.7,25,606.625,628.393,472.323,-0.499991,-0.526035,-1.86419,
2026_07_06_16_58_33.215,3.869,37,0,0.764,0,0,0,0, ,0,0,0,0,0, ,608,627.9,470.2,-0.3,-0.3,-1.6,25,606.791,628.378,472.148,-0.496945,-0.515308,-1.85114,
2026_07_06_16_58_33.234,3.869,36.9,0,0.764,0,0,0,0, ,0,0,0,0,0, ,604.8,627.9,477.4,0.1,-0.6,-1.5,25,606.768,628.349,472.248,-0.472756,-0.511328,-1.83279,
2026_07_06_16_58_33.255,3.869,37.2,0,0.764,0,0,0,0, ,0,0,0,0,0, ,603.8,631.4,478.7,-0.2,-1.2,-1.5,25,606.617,628.428,472.602,-0.446994,-0.535013,-1.81251,
2026_07_06_16_58_33.274,3.869,37,0,0.766,0,0,0,0, ,0,0,0,0,0, ,607.2,625.6,468,-1.1,-0.1,-2.6,25,606.549,628.433,472.647,-0.459365,-0.54202,-1.82698,
2026_07_06_16_58_33.293,3.869,37,0,0.765,0,0,0,0, ,0,0,0,0,0, ,611.6,630.8,469.6,-0.1,-0.3,-1.7,25,606.723,628.418,472.413,-0.467935,-0.521178,-1.84667,
2026_07_06_16_58_33.313,3.869,37,0,0.766,0,0,0,0, ,0,0,0,0,0, ,603.8,628.6,472.9,0.1,-0.8,-1.3,25,606.782,628.496,472.342,-0.43942,-0.522934,-1.82554,
2026_07_06_16_58_33.334,3.869,37,0,0.765,0,0,0,0, ,0,0,0,0,0, ,603.2,629.5,478.3,0.1,-1.2,-1.5,25,606.582,628.53,472.541,-0.406549,-0.552006,-1.79961,
2026_07_06_16_58_33.353,3.869,37.2,0,0.764,0,0,0,0, ,0,0,0,0,0, ,606.5,629.3,471.3,-0.9,-1,-1.9,25,606.477,628.583,472.678,-0.40615,-0.585399,-1.79354,
2026_07_06_16_58_33.380,3.869,37,0,0.765,0,0,0,0, ,0,0,0,0,0, ,611.4,627.4,466.6,-0.6,-0.8,-1.8,25,606.628,628.569,472.451,-0.427103,-0.60457,-1.79698,
2026_07_06_16_58_33.393,3.869,37,0,0.765,0,0,0,0, ,0,0,0,0,0, ,611.3,628.9,464.5,-1,0.6,-2.4,25,606.915,628.543,472.031,-0.449827,-0.573823,-1.81544,
2026_07_06_16_58_33.412,3.869,37,0,0.764,0,0,0,0, ,0,0,0,0,0, ,606.2,630.1,473.8,-0.5,0.5,-2,25,607.027,628.602,471.855,-0.468119,-0.50534,-1.83888,
2026_07_06_16_58_33.432,3.869,37,0,0.765,0,0,0,0, ,0,0,0,0,0, ,601.3,631.2,477.6,-0.4,-0.1,-1.8,25,606.827,628.727,472.089,-0.467014,-0.462358,-1.8426,
2026_07_06_16_58_33.452,3.869,37,0,0.765,0,0,0,0, ,0,0,0,0,0, ,602.9,627.9,476.1,-0.4,-0.7,-1.9,25,606.539,628.777,472.379,-0.462931,-0.458558,-1.84305,
2026_07_06_16_58_33.472,3.869,37,0,0.764,0,0,0,0, ,0,0,0,0,0, ,609.6,630.9,469.8,-0.6,-0.6,-1.9,25,606.522,628.815,472.414,-0.46519,-0.470224,-1.84652,
2026_07_06_16_58_33.492,3.869,37,0,0.765,0,0,0,0, ,0,0,0,0,0, ,607.9,627.5,468.5,-0.2,-0.5,-1.6,25,606.657,628.838,472.215,-0.461217,-0.475086,-1.84064,
2026_07_06_16_58_33.512,3.869,37,0,0.763,0,0,0,0, ,0,0,0,0,0, ,606.2,628,471.1,-1.2,0.5,-2.4,25,606.681,628.772,472.068,-0.475768,-0.446135,-1.85035,
2026_07_06_16_58_33.531,3.869,37,0,0.764,0,0,0,0, ,0,0,0,0,0, ,606.2,630.3,475.8,-0.7,-0.4,-1.7,25,606.652,628.795,472.152,-0.504667,-0.415902,-1.86252,
2026_07_06_16_58_33.552,3.869,37,0,0.765,0,0,0,0, ,0,0,0,0,0, ,600.7,629.2,476.4,-0.6,-0.7,-1.8,25,606.457,628.853,472.393,-0.513523,-0.424073,-1.85566,
2026_07_06_16_58_33.572,3.869,37,0,0.765,0,0,0,0, ,0,0,0,0,0, ,604.4,628.6,473.7,-0.8,-0.8,-1.9,25,606.219,628.856,472.555,-0.524886,-0.443935,-1.85532,
2026_07_06_16_58_33.591,3.869,37,0,0.764,0,0,0,0, ,0,0,0,0,0, ,609.1,628,472.1,-0.6,-0.7,-1.8,25,606.251,628.822,472.576,-0.535557,-0.462585,-1.85499,
2026_07_06_16_58_33.610,3.869,36.9,0,0.764,0,0,0,0, ,0,0,0,0,0, ,606,629.8,471.8,-0.6,-0.6,-1.5,25,606.33,628.827,472.538,-0.539484,-0.474006,-1.8425,
2026_07_06_16_58_33.630,3.869,36.9,0,0.764,0,0,0,0, ,0,0,0,0,0, ,606.8,628.1,470.4,-0.8,0.1,-2.4,25,606.335,628.834,472.45,-0.549266,-0.460356,-1.84905,
2026_07_06_16_58_33.649,3.869,37,0,0.765,0,0,0,0, ,0,0,0,0,0, ,607.9,631.8,469.4,-0.5,-0.1,-1.8,25,606.396,628.902,472.295,-0.555404,-0.432303,-1.86434,
2026_07_06_16_58_33.671,3.869,36.9,0,0.766,0,0,0,0, ,0,0,0,0,0, ,603.2,628,474.3,0,-0.4,-1.4,25,606.345,628.963,472.268,-0.536794,-0.421194,-1.84824,
2026_07_06_16_58_33.690,3.869,36.9,0,0.765,0,0,0,0, ,0,0,0,0,0, ,601.3,631.2,476.3,-0.5,0,-2.3,25,606.095,629.002,472.452,-0.519317,-0.407715,-1.84834,
2026_07_06_16_58_33.710,3.869,36.9,0,0.765,0,0,0,0, ,0,0,0,0,0, ,604.6,629,474.8,-0.4,-0.6,-1.9,25,605.904,629.069,472.641,-0.515093,-0.401151,-1.86368,
2026_07_06_16_58_33.729,3.869,37,0,0.765,0,0,0,0, ,0,0,0,0,0, ,607.2,626.7,471.5,-0.4,-0.6,-1.7,25,605.903,628.995,472.672,-0.50808,-0.413268,-1.8598,
2026_07_06_16_58_33.749,3.869,37,0,0.763,0,0,0,0, ,0,0,0,0,0, ,608.3,629.2,470.9,-0.4,-0.4,-1.6,25,606.016,628.931,472.582,-0.501494,-0.418553,-1.84701,
2026_07_06_16_58_33.769,3.869,36.9,0,0.765,0,0,0,0, ,0,0,0,0,0, ,604.6,630,472.9,-0.5,-0.5,-1.6,25,606.042,628.972,472.541,-0.498356,-0.42047,-1.83196,
2026_07_06_16_58_33.789,3.869,36.9,0,0.763,0,0,0,0, ,0,0,0,0,0, ,604.6,630.4,473.3,-0.1,-0.6,-1.6,25,605.955,629.047,472.575,-0.486268,-0.428363,-1.81783,
2026_07_06_16_58_33.808,3.869,36.9,0,0.764,0,0,0,0, ,0,0,0,0,0, ,602.2,630.2,473.6,-0.5,-0.6,-1.8,25,605.799,629.123,472.628,-0.474918,-0.438822,-1.81065,
2026_07_06_16_58_33.829,3.869,37,0,0.764,0,0,0,0, ,0,0,0,0,0, ,607.7,627.4,471.4,-0.6,0,-2.3,25,605.747,629.103,472.62,-0.479493,-0.430363,-1.82523,
2026_07_06_16_58_33.849,3.869,36.9,0,0.764,0,0,0,0, ,0,0,0,0,0, ,606.3,630.3,470.4,-0.2,-0.2,-1.6,25,605.823,629.088,472.516,-0.474649,-0.410231,-1.83283,
2026_07_06_16_58_33.867,3.869,37,0,0.765,0,0,0,0, ,0,0,0,0,0, ,604.9,627.6,475.3,-0.2,-0.5,-1.6,25,605.81,629.079,472.536,-0.457912,-0.406561,-1.81865,
2026_07_06_16_58_33.888,3.869,37,0,0.765,0,0,0,0, ,0,0,0,0,0, ,604.4,629.3,473.6,-0.2,-0.7,-1.5,25,605.739,629.041,472.653,-0.442196,-0.418348,-1.80228,
2026_07_06_16_58_33.907,3.869,36.9,0,0.765,0,0,0,0, ,0,0,0,0,0, ,603.6,629.6,472.4,-0.6,-0.5,-1.9,25,605.633,629.066,472.674,-0.439625,-0.429418,-1.79604,
2026_07_06_16_58_33.927,3.869,37,0,0.764,0,0,0,0, ,0,0,0,0,0, ,606.4,628,472,-0.7,-0.4,-2,25,605.595,629.05,472.645,-0.452444,-0.430672,-1.80543,
2026_07_06_16_58_33.947,3.869,37,0,0.764,0,0,0,0, ,0,0,0,0,0, ,604.8,630,474.6,-0.3,-0.8,-1.5,25,605.595,629.047,472.685,-0.455342,-0.440991,-1.80205,
2026_07_06_16_58_33.967,3.869,36.9,0,0.765,0,0,0,0, ,0,0,0,0,0, ,603.2,629,473.6,-0.6,-0.8,-1.8,25,605.498,629.074,472.771,-0.455017,-0.462868,-1.79278,
2026_07_06_16_58_33.987,3.869,37,0,0.766,0,0,0,0, ,0,0,0,0,0, ,605.8,632.2,473.5,-0.1,-1,-1.6,25,605.437,629.167,472.819,-0.448617,-0.489505,-1.78713,
2026_07_06_16_58_34.006,3.869,36.9,0,0.765,0,0,0,0, ,0,0,0,0,0, ,606.4,628.6,468.7,-1,-0.2,-2.2,25,605.477,629.242,472.714,-0.454795,-0.496239,-1.79401,
2026_07_06_16_58_34.027,3.869,36.9,0,0.765,0,0,0,0, ,0,0,0,0,0, ,608.1,628.4,466.3,-0.7,0.2,-2.1,25,605.585,629.197,472.396,-0.478878,-0.465999,-1.8157,
2026_07_06_16_58_34.046,3.869,36.9,0,0.766,0,0,0,0, ,0,0,0,0,0, ,605.4,631.1,474.1,-0.4,0,-1.9,25,605.656,629.231,472.262,-0.483212,-0.431509,-1.82693,
2026_07_06_16_58_34.066,3.869,36.9,0,0.765,0,0,0,0, ,0,0,0,0,0, ,604,628,477.6,-0.6,-0.3,-1.9,25,605.598,629.25,472.481,-0.484235,-0.414354,-1.83138,
2026_07_06_16_58_34.085,3.869,36.9,0,0.764,0,0,0,0, ,0,0,0,0,0, ,604.6,629,477.7,-0.8,-0.5,-2,25,605.519,629.205,472.796,-0.497383,-0.413479,-1.83861,
2026_07_06_16_58_34.105,3.869,36.9,0,0.765,0,0,0,0, ,0,0,0,0,0, ,609,629.5,473.5,-0.9,-0.6,-1.8,25,605.597,629.207,472.967,-0.518871,-0.421799,-1.84235,
2026_07_06_16_58_34.126,3.869,36.9,0,0.764,0,0,0,0, ,0,0,0,0,0, ,606.4,626,471.3,-0.5,-0.1,-1.7,25,605.725,629.119,472.932,-0.529908,-0.417423,-1.83672,
2026_07_06_16_58_34.144,3.869,36.9,0,0.766,0,0,0,0, ,0,0,0,0,0, ,605.1,632.2,476.8,-0.6,-0.4,-1.6,25,605.727,629.117,473,-0.531133,-0.407221,-1.82535,
2026_07_06_16_58_34.165,3.869,37,0,0.764,0,0,0,0, ,0,0,0,0,0, ,601.1,630,477.4,-0.2,-1.4,-1.3,25,605.567,629.238,473.25,-0.523142,-0.43725,-1.80247,
2026_07_06_16_58_34.184,3.869,36.9,0,0.765,0,0,0,0, ,0,0,0,0,0, ,603.6,628.1,471.9,-1.1,-0.7,-2.1,25,605.371,629.227,473.335,-0.530872,-0.474589,-1.79623,
2026_07_06_16_58_34.205,3.869,36.9,0,0.764,0,0,0,0, ,0,0,0,0,0, ,610.7,630.2,468.2,-0.5,-0.5,-1.8,25,605.479,629.222,473.135,-0.547272,-0.482231,-1.8056,
2026_07_06_16_58_34.224,3.869,36.9,0,0.764,0,0,0,0, ,0,0,0,0,0, ,605.5,629.2,470,-0.3,0,-1.8,25,605.639,629.251,472.889,-0.538298,-0.46808,-1.80526,
2026_07_06_16_58_34.244,3.869,37,0,0.763,0,0,0,0, ,0,0,0,0,0, ,601,630.9,474.9,-0.3,0,-1.8,25,605.493,629.3,472.863,-0.523777,-0.439556,-1.80494,
2026_07_06_16_58_34.268,3.869,36.9,0,0.765,0,0,0,0, ,0,0,0,0,0, ,600.5,632.3,475.8,-0.7,-0.3,-2.1,25,605.204,629.44,473.014,-0.522328,-0.421911,-1.81378,
2026_07_06_16_58_34.283,3.869,37,0,0.764,0,0,0,0, ,0,0,0,0,0, ,603.6,628.4,472.6,-0.6,-0.6,-2,25,605.012,629.496,473.086,-0.530108,-0.423623,-1.82817,
2026_07_06_16_58_34.303,3.869,37,0,0.764,0,0,0,0, ,0,0,0,0,0, ,607.1,629.2,472.5,-0.3,-0.3,-1.8,25,605.033,629.453,473.054,-0.525226,-0.42523,-1.83255,
2026_07_06_16_58_34.324,3.869,36.9,0,0.766,0,0,0,0, ,0,0,0,0,0, ,605.3,626.5,473.5,-0.1,-0.4,-1.7,25,605.104,629.355,473.05,-0.505408,-0.420646,-1.82752,
2026_07_06_16_58_34.342,3.869,37,0,0.765,0,0,0,0, ,0,0,0,0,0, ,604,628.6,477.2,-0.3,-0.6,-1.6,25,605.076,629.245,473.191,-0.486797,-0.425482,-1.8167,
2026_07_06_16_58_34.363,3.869,36.9,0,0.766,0,0,0,0, ,0,0,0,0,0, ,602.5,629.1,472.1,-1,-0.5,-2.1,25,604.965,629.221,473.28,-0.496742,-0.43307,-1.81873,
2026_07_06_16_58_34.382,3.869,37,0,0.765,0,0,0,0, ,0,0,0,0,0, ,606.5,629.6,470.9,-0.9,-0.3,-2,25,604.936,629.229,473.171,-0.524362,-0.431054,-1.83282,
2026_07_06_16_58_34.403,3.869,36.9,0,0.764,0,0,0,0, ,0,0,0,0,0, ,604.4,630.2,472.2,-0.3,-0.1,-1.6,25,604.968,629.27,473.072,-0.528972,-0.416974,-1.83082,
2026_07_06_16_58_34.421,3.869,37,0,0.764,0,0,0,0, ,0,0,0,0,0, ,602.9,629.6,476.4,-0.2,-0.4,-1.7,25,604.887,629.308,473.147,-0.511972,-0.406799,-1.8198,
2026_07_06_16_58_34.446,3.869,37,0,0.765,0,0,0,0, ,0,0,0,0,0, ,602.7,629.8,476.9,-0.6,-0.5,-1.8,25,604.76,629.332,473.361,-0.505149,-0.409432,-1.81555,
2026_07_06_16_58_34.461,3.869,37,0,0.764,0,0,0,0, ,0,0,0,0,0, ,603.2,630.2,473.9,-0.8,-0.7,-2,25,604.65,629.373,473.485,-0.517022,-0.421045,-1.8207,
2026_07_06_16_58_34.481,3.869,36.8,0,0.765,0,0,0,0, ,0,0,0,0,0, ,607,628.7,470.7,-0.6,-0.7,-1.8,25,604.677,629.378,473.413,-0.528172,-0.438044,-1.82553,
2026_07_06_16_58_34.501,3.869,36.9,0,0.765,0,0,0,0, ,0,0,0,0,0, ,607.1,629.8,472.4,-0.3,-0.4,-1.6,25,604.822,629.37,473.299,-0.523409,-0.444866,-1.81788,
2026_07_06_16_58_34.522,3.869,36.9,0,0.765,0,0,0,0, ,0,0,0,0,0, ,602.6,630.8,476,-0.3,-0.5,-1.6,25,604.824,629.427,473.354,-0.509795,-0.445179,-1.8046,
2026_07_06_16_58_34.541,3.869,36.9,0,0.766,0,0,0,0, ,0,0,0,0,0, ,604.6,628.7,473.3,-1.1,-0.2,-2.1,25,604.749,629.446,473.433,-0.521386,-0.439379,-1.80737,
2026_07_06_16_58_34.561,3.869,36.9,0,0.765,0,0,0,0, ,0,0,0,0,0, ,608,629.7,473.2,-1,-0.3,-2,25,604.844,629.431,473.422,-0.553598,-0.427839,-1.82215,
2026_07_06_16_58_34.581,3.869,36.8,0,0.765,0,0,0,0, ,0,0,0,0,0, ,604.3,628.2,472.6,-0.7,-0.3,-1.7,25,604.923,629.402,473.39,-0.57166,-0.420048,-1.82385,
2026_07_06_16_58_34.601,3.869,36.9,0,0.764,0,0,0,0, ,0,0,0,0,0, ,600.3,631.1,476.9,-0.2,-0.8,-1.5,25,604.763,629.417,473.473,-0.564246,-0.427967,-1.81021,
2026_07_06_16_58_34.620,3.869,36.9,0,0.764,0,0,0,0, ,0,0,0,0,0, ,601.4,630.7,476.9,-0.3,-1.3,-1.5,25,604.525,629.507,473.682,-0.545097,-0.465872,-1.79131,
2026_07_06_16_58_34.640,3.869,36.9,0,0.764,0,0,0,0, ,0,0,0,0,0, ,606.8,629,469.7,-0.7,-1.1,-1.7,25,604.499,629.528,473.659,-0.542349,-0.510608,-1.77965,
2026_07_06_16_58_34.660,3.869,36.9,0,0.765,0,0,0,0, ,0,0,0,0,0, ,608.6,630.4,466.4,-0.7,0,-2,25,604.694,629.539,473.317,-0.551956,-0.513009,-1.78394,
2026_07_06_16_58_34.680,3.869,36.9,0,0.764,0,0,0,0, ,0,0,0,0,0, ,603.2,629.8,474.2,-0.1,0,-1.6,25,604.768,629.573,473.133,-0.542696,-0.481747,-1.78492,
2026_07_06_16_58_34.699,3.869,36.9,0,0.765,0,0,0,0, ,0,0,0,0,0, ,601.3,630.7,477.5,-0.5,-0.4,-1.9,25,604.614,629.614,473.298,-0.527907,-0.464578,-1.78279,
2026_07_06_16_58_34.720,3.869,36.9,0,0.765,0,0,0,0, ,0,0,0,0,0, ,605.3,629.1,475,-0.9,-0.5,-2,25,604.534,629.632,473.478,-0.538394,-0.46369,-1.79298,
2026_07_06_16_58_34.739,3.869,36.9,0,0.764,0,0,0,0, ,0,0,0,0,0, ,606.4,630.2,471.1,-0.9,-0.2,-2,25,604.614,629.633,473.452,-0.560429,-0.456762,-1.80559,
2026_07_06_16_58_34.759,3.869,36.9,0,0.765,0,0,0,0, ,0,0,0,0,0, ,603.2,629.1,475.4,-0.5,0,-1.8,25,604.626,629.634,473.44,-0.568934,-0.435022,-1.81135,
2026_07_06_16_58_34.778,3.869,36.8,0,0.765,0,0,0,0, ,0,0,0,0,0, ,600,631.4,476.1,-0.4,-0.3,-1.7,25,604.441,629.671,473.581,-0.561687,-0.417653,-1.80761,
2026_07_06_16_58_34.804,3.869,36.9,0,0.766,0,0,0,0, ,0,0,0,0,0, ,602.6,630.3,475.3,-0.7,-0.7,-1.8,25,604.25,629.743,473.71,-0.560974,-0.422671,-1.8041,
2026_07_06_16_58_34.818,3.869,36.9,0,0.765,0,0,0,0, ,0,0,0,0,0, ,605.2,630.3,470.2,-0.5,-0.2,-1.8,25,604.228,629.777,473.651,-0.563352,-0.424337,-1.80385,
2026_07_06_16_58_34.838,3.869,36.8,0,0.765,0,0,0,0, ,0,0,0,0,0, ,603.5,629.8,473.5,-0.2,-0.6,-1.7,25,604.236,629.794,473.542,-0.550351,-0.422854,-1.80057,
2026_07_06_16_58_34.858,3.869,36.9,0,0.763,0,0,0,0, ,0,0,0,0,0, ,604.6,629.6,478,0,-0.8,-1.4,25,604.225,629.788,473.676,-0.522908,-0.439742,-1.7853,
2026_07_06_16_58_34.877,3.869,36.9,0,0.766,0,0,0,0, ,0,0,0,0,0, ,603.6,627.3,475.5,-0.6,-0.6,-1.9,25,604.217,629.706,473.863,-0.509325,-0.455602,-1.77705,
2026_07_06_16_58_34.896,3.869,37,0,0.765,0,0,0,0, ,0,0,0,0,0, ,606.3,629.2,473.1,-0.3,-0.4,-2.1,25,604.262,629.618,473.89,-0.505709,-0.458307,-1.79064,
2026_07_06_16_58_34.917,3.869,36.9,0,0.765,0,0,0,0, ,0,0,0,0,0, ,607.5,631.1,473.5,-0.3,-1.6,-1,25,604.422,629.65,473.854,-0.493174,-0.491317,-1.77597,
2026_07_06_16_58_34.937,3.869,36.9,0,0.765,0,0,0,0, ,0,0,0,0,0, ,600.7,627.4,474.4,-0.7,-0.9,-1.8,25,604.403,629.626,473.86,-0.49359,-0.537549,-1.75306,
2026_07_06_16_58_34.957,3.869,36.9,0,0.764,0,0,0,0, ,0,0,0,0,0, ,604.6,629.3,476.6,-0.8,-0.9,-2.3,25,604.296,629.548,473.96,-0.509215,-0.559636,-1.77116,
2026_07_06_16_58_34.978,3.869,36.9,0,0.764,0,0,0,0, ,0,0,0,0,0, ,613.8,625.7,470.5,-0.5,-2.2,-1.7,25,604.595,629.423,473.935,-0.517794,-0.619986,-1.7851,
2026_07_06_16_58_34.996,3.869,37,0,0.764,0,0,0,0, ,0,0,0,0,0, ,650.1,606.9,448.1,0.6,0.4,-4.4,25,606.262,628.624,473.043,-0.483194,-0.637049,-1.86218,
2026_07_06_16_58_35.016,3.869,36.9,0,0.765,0,0,0,0, ,0,0,0,0,0, ,583.8,613.8,478.6,-0.7,8.8,-12.9,25,606.913,627.51,472.452,-0.456796,-0.317917,-2.27582,
2026_07_06_16_58_35.036,3.869,36.9,0,0.764,0,0,0,0, ,0,0,0,0,0, ,551.1,705,548.9,-8,2.7,-13.9,25,604.508,629.453,474.969,-0.694038,0.0518469,-2.9537,
2026_07_06_16_58_35.055,3.869,36.8,0,0.766,0,0,0,0, ,0,0,0,0,0, ,540.4,667.7,592.6,-15,-25.8,-3.7,25,600.928,632.92,480.806,-1.35253,-0.655141,-3.30995,
2026_07_06_16_58_35.075,3.869,36.9,0,0.763,0,0,0,0, ,0,0,0,0,0, ,529.4,654.5,552.2,-23.3,-49.3,-7.9,25,596.904,634.638,486.387,-2.43706,-2.90342,-3.46169,
2026_07_06_16_58_35.095,3.869,36.9,0,0.765,0,0,0,0, ,0,0,0,0,0, ,558.3,619.8,474.1,-38.9,-53.9,-26.1,25,593.671,634.791,488.018,-4.18371,-5.87087,-4.28668,
2026_07_06_16_58_35.115,3.869,36.9,0,0.765,0,0,0,0, ,0,0,0,0,0, ,637.9,616,446.4,-39.7,-44.5,-42.1,25,593.941,633.761,486.326,-6.32361,-8.51124,-6.10343,
2026_07_06_16_58_35.135,3.869,36.8,0,0.764,0,0,0,0, ,0,0,0,0,0, ,636.3,637.4,483,-39.9,-37.2,-46.9,25,596.571,633.331,485.008,-8.36357,-10.4819,-8.44322,
2026_07_06_16_58_35.155,3.869,36.9,0,0.766,0,0,0,0, ,0,0,0,0,0, ,639.7,697.9,563.3,-38.6,-37.3,-50.8,25,599.096,635.422,487.332,-10.2457,-12.1131,-10.9055,
2026_07_06_16_58_35.178,3.869,36.8,0,0.765,0,0,0,0, ,0,0,0,0,0, ,656.3,806.8,597.6,-28.8,-57.3,-33.3,25,602.076,642.548,493.007,-11.675,-14.2573,-12.8034,
2026_07_06_16_58_35.194,3.869,36.8,0,0.765,0,0,0,0, ,0,0,0,0,0, ,668.4,841.6,594.4,-20.1,-90.9,-5.7,25,605.749,653.617,499.283,-12.4534,-17.9039,-13.2115,
2026_07_06_16_58_35.213,3.869,36.9,0,0.764,0,0,0,0, ,0,0,0,0,0, ,680.2,790.2,518.1,-6.3,-109.1,9.7,25,609.926,663.506,502.754,-12.4989,-22.9067,-12.2845,
2026_07_06_16_58_35.234,3.869,36.9,0,0.765,0,0,0,0, ,0,0,0,0,0, ,674,772.7,479.8,13.5,-124.8,23.3,25,614.019,670.693,502.522,-11.5179,-28.6374,-10.5304,
2026_07_06_16_58_35.254,3.869,36.9,0,0.765,0,0,0,0, ,0,0,0,0,0, ,660.4,742.5,401.8,42.3,-157.4,38.7,25,617.26,675.989,498.761,-9.11588,-35.4906,-7.99969,
2026_07_06_16_58_35.272,3.869,36.9,0,0.765,0,0,0,0, ,0,0,0,0,0, ,685.6,708.8,325.4,68.4,-182.1,56.2,25,620.657,679.016,490.525,-5.18749,-43.672,-4.62072,
2026_07_06_16_58_35.293,3.869,36.8,0,0.765,0,0,0,0, ,0,0,0,0,0, ,701.9,661.6,209.9,85.4,-180.2,61.3,25,625.111,679.392,476.943,-0.185282,-52.0496,-0.759069,
2026_07_06_16_58_35.312,3.869,36.8,0,0.763,0,0,0,0, ,0,0,0,0,0, ,634.5,583.8,106.2,95.6,-195.3,67.2,25,627.737,675.938,457.511,5.34085,-60.3188,3.20242,
2026_07_06_16_58_35.332,3.869,36.8,0,0.764,0,0,0,0, ,0,0,0,0,0, ,634,472,11.2,145.2,-229.9,74.9,25,628.134,666.917,433.208,12.3523,-69.5985,7.33688,
2026_07_06_16_58_35.353,3.869,36.8,0,0.764,0,0,0,0, ,0,0,0,0,0, ,701.7,421.1,-115.7,181.9,-241,79.4,25,630.554,653.488,403.626,21.5659,-79.7051,11.5911,
2026_07_06_16_58_35.372,3.869,36.9,0,0.765,0,0,0,0, ,0,0,0,0,0, ,737.7,402.2,-240.9,207.6,-238.9,85.4,25,635.986,638.751,368.165,32.1193,-89.47,15.906,
2026_07_06_16_58_35.392,3.869,36.8,0,0.765,0,0,0,0, ,0,0,0,0,0, ,738.8,359,-300.4,245.8,-250.1,108.5,25,642.218,623.02,329.237,43.9765,-98.9171,20.8447,
2026_07_06_16_58_35.411,3.869,36.8,0,0.765,0,0,0,0, ,0,0,0,0,0, ,759,324.4,-383.6,250.1,-250.1,135.8,25,648.719,605.877,288.333,56.4062,-108.13,27.0179,
2026_07_06_16_58_35.432,3.869,36.8,0,0.763,0,0,0,0, ,0,0,0,0,0, ,780.3,314.6,-476.5,250.1,-250.1,142.5,25,656.088,588.426,244.557,68.2094,-116.781,33.851,
2026_07_06_16_58_35.451,3.869,36.8,0,0.765,0,0,0,0, ,0,0,0,0,0, ,741.6,244.9,-545.6,230.9,-241.8,135.6,25,662.478,569.616,198.512,78.7084,-124.652,40.2616,
2026_07_06_16_58_35.471,3.869,36.9,0,0.764,0,0,0,0, ,0,0,0,0,0, ,684.6,152.2,-598.5,205.1,-230,127.9,25,665.563,547.004,151.556,87.1964,-131.432,45.8366,
2026_07_06_16_58_35.491,3.869,36.9,0,0.764,0,0,0,0, ,0,0,0,0,0, ,640.2,63.7,-619.6,186,-225.1,122.6,25,665.37,520.249,105.207,93.7992,-137.289,50.6759,
2026_07_06_16_58_35.511,3.869,36.8,0,0.764,0,0,0,0, ,0,0,0,0,0, ,596.9,1.7,-659.1,162.6,-206.1,109.9,25,662.517,490.539,59.8351,98.7047,-142.061,54.6718,
2026_07_06_16_58_35.535,3.869,36.9,0,0.765,0,0,0,0, ,0,0,0,0,0, ,524.4,-26.4,-706,133.2,-186.7,89.5,25,656.309,459.894,14.5961,101.703,-145.372,57.4157,
2026_07_06_16_58_35.550,3.869,36.8,0,0.764,0,0,0,0, ,0,0,0,0,0, ,520.2,-72,-745.6,99.4,-165.3,67.7,25,648.143,428.872,-30.5218,102.592,-147.239,58.7066,
2026_07_06_16_58_35.571,3.869,36.8,0,0.765,0,0,0,0, ,0,0,0,0,0, ,550.1,-107.9,-804.3,68.2,-129.9,48,25,641.258,397.256,-75.8854,101.447,-147.261,58.6544,
2026_07_06_16_58_35.591,3.869,36.8,0,0.765,0,0,0,0, ,0,0,0,0,0, ,549.1,-122.9,-844.8,41,-87.3,28.8,25,635.672,366.016,-121.507,98.5922,-144.905,57.4202,
2026_07_06_16_58_35.611,3.869,36.8,0,0.764,0,0,0,0, ,0,0,0,0,0, ,500.6,-121.3,-862.7,14.4,-54.7,14.9,25,628.919,336.271,-166.128,94.2722,-140.401,55.2526,
2026_07_06_16_58_35.630,3.869,36.9,0,0.765,0,0,0,0, ,0,0,0,0,0, ,462,-139,-880.9,-3.7,-34,9.2,25,619.924,307.849,-209.13,88.8535,-134.548,52.62,
2026_07_06_16_58_35.649,3.869,36.9,0,0.765,0,0,0,0, ,0,0,0,0,0, ,417.8,-152.9,-893.6,-9.4,-23.6,9.6,25,608.953,280.195,-250.453,83.0399,-128.104,49.9862,
2026_07_06_16_58_35.669,3.869,36.9,0,0.765,0,0,0,0, ,0,0,0,0,0, ,389,-177.4,-922.8,-6.2,-22.2,11.4,25,596.427,253.057,-290.534,77.5043,-121.693,47.58,
2026_07_06_16_58_35.689,3.869,36.8,0,0.764,0,0,0,0, ,0,0,0,0,0, ,384.3,-193.9,-955,0.4,-21.5,12.1,25,583.644,226.323,-330.044,72.6047,-115.609,45.3967,
2026_07_06_16_58_35.709,3.869,36.9,0,0.765,0,0,0,0, ,0,0,0,0,0, ,395.6,-189.6,-971.3,6.4,-16.1,8.3,25,571.841,200.847,-368.624,68.3875,-109.71,43.2519,
2026_07_06_16_58_35.731,3.869,36.8,0,0.766,0,0,0,0, ,0,0,0,0,0, ,386.3,-159.4,-964.1,5.4,-9.1,3.3,25,560.818,177.974,-405.13,64.5797,-103.792,40.9696,
2026_07_06_16_58_35.749,3.869,36.8,0,0.763,0,0,0,0, ,0,0,0,0,0, ,370.2,-137.8,-958.1,-0.7,-4.7,1.3,25,549.693,158.074,-439.01,60.7876,-97.8876,38.6132,
2026_07_06_16_58_35.768,3.869,36.8,0,0.764,0,0,0,0, ,0,0,0,0,0, ,371.5,-145,-965.2,-5.9,-1.5,2,25,538.794,139.825,-470.858,56.8822,-92.1115,36.3608,
2026_07_06_16_58_35.787,3.869,36.9,0,0.764,0,0,0,0, ,0,0,0,0,0, ,381.7,-163.5,-966.9,-5.8,2.9,1,25,528.911,121.904,-501.034,53.0595,-86.4558,34.2364,
2026_07_06_16_58_35.808,3.869,36.9,0,0.766,0,0,0,0, ,0,0,0,0,0, ,378.5,-157.7,-959.3,-5.8,4.8,0,25,519.843,104.689,-529.191,49.4727,-80.9528,32.1806,
2026_07_06_16_58_35.827,3.869,36.8,0,0.765,0,0,0,0, ,0,0,0,0,0, ,360.8,-142.4,-933.4,-6.7,5.2,-2,25,510.69,89.1661,-554.612,46.0771,-75.7151,30.1587,
2026_07_06_16_58_35.848,3.869,36.9,0,0.766,0,0,0,0, ,0,0,0,0,0, ,358.2,-137.5,-910.6,-8.1,2.2,-1.8,25,501.477,75.2044,-576.999,42.8184,-70.8757,28.2051,
2026_07_06_16_58_35.867,3.869,36.8,0,0.764,0,0,0,0, ,0,0,0,0,0, ,368.1,-142.7,-911.2,-6.7,0.9,-0.4,25,493.048,62.0843,-597.346,39.7582,-66.4623,26.4193,
2026_07_06_16_58_35.887,3.869,36.8,0,0.765,0,0,0,0, ,0,0,0,0,0, ,376.2,-149.2,-911.7,-4.4,1.1,0.1,25,485.681,49.4072,-616.487,36.9972,-62.3513,24.8003,
2026_07_06_16_58_35.912,3.869,36.9,0,0.766,0,0,0,0, ,0,0,0,0,0, ,377.9,-150.2,-907.2,-2.8,1.5,0.2,25,479.061,37.2741,-634.34,34.5233,-58.4725,23.2981,
2026_07_06_16_58_35.926,3.869,36.8,0,0.765,0,0,0,0, ,0,0,0,0,0, ,378,-144.7,-898.1,-1.3,0.3,-0.4,25,472.899,26.0175,-650.69,32.2946,-54.8545,21.8723,
2026_07_06_16_58_35.946,3.869,36.9,0,0.764,0,0,0,0, ,0,0,0,0,0, ,384.2,-143.6,-905,0.9,-2.2,1.1,25,467.305,15.6479,-665.976,30.3145,-51.5697,20.5608,
2026_07_06_16_58_35.967,3.869,36.9,0,0.764,0,0,0,0, ,0,0,0,0,0, ,381.5,-143.3,-911,1.5,-2.1,1.6,25,462.159,5.95286,-680.725,28.5403,-48.5582,19.3901,
2026_07_06_16_58_35.987,3.869,36.9,0,0.764,0,0,0,0, ,0,0,0,0,0, ,382.8,-141.6,-900.1,-5.5,-1.7,0,25,457.283,-3.09044,-694.425,26.6793,-45.715,18.2573,
2026_07_06_16_58_36.005,3.869,36.8,0,0.766,0,0,0,0, ,0,0,0,0,0, ,381.7,-136.4,-911.7,-5.3,0,-2.9,25,452.711,-11.3724,-707.312,24.7245,-42.981,17.0564,
2026_07_06_16_58_36.025,3.869,37,0,0.764,0,0,0,0, ,0,0,0,0,0, ,391.2,-134.3,-917.6,-3.6,-0.9,0.1,25,448.673,-18.9273,-719.946,22.9466,-40.3893,15.9317,
2026_07_06_16_58_36.045,3.869,36.9,0,0.763,0,0,0,0, ,0,0,0,0,0, ,382.9,-134.6,-924.5,-1.7,-1.3,2.3,25,444.918,-25.967,-732.201,21.3868,-37.9951,15.034,
2026_07_06_16_58_36.066,3.869,36.9,0,0.765,0,0,0,0, ,0,0,0,0,0, ,376.3,-136.1,-923,-2.6,-0.1,0.7,25,440.938,-32.6325,-743.874,19.9526,-35.7224,14.2093,
2026_07_06_16_58_36.085,3.869,36.8,0,0.765,0,0,0,0, ,0,0,0,0,0, ,365.8,-135,-917.2,-3.5,1.1,-0.3,25,436.679,-38.904,-754.613,18.5508,-33.5151,13.3556,
2026_07_06_16_58_36.105,3.869,36.8,0,0.765,0,0,0,0, ,0,0,0,0,0, ,368,-142.7,-916,-2.2,-0.1,-0.3,25,432.427,-44.9945,-764.484,17.2467,-31.4423,12.5234,
2026_07_06_16_58_36.124,3.869,36.8,0,0.765,0,0,0,0, ,0,0,0,0,0, ,377.1,-145.9,-923.7,0,-2.2,1.1,25,428.778,-51.0459,-773.951,16.1287,-29.5964,11.7847,
2026_07_06_16_58_36.144,3.869,36.8,0,0.766,0,0,0,0, ,0,0,0,0,0, ,385.3,-144.4,-925.1,1.4,-1.5,1.6,25,425.879,-56.7804,-783.119,15.1885,-27.9056,11.1488,
2026_07_06_16_58_36.163,3.869,36.8,0,0.764,0,0,0,0, ,0,0,0,0,0, ,373.1,-128.7,-917.2,-0.7,0,1.2,25,423.034,-61.6413,-791.53,14.2843,-26.2508,10.5547,
2026_07_06_16_58_36.184,3.869,36.8,0,0.765,0,0,0,0, ,0,0,0,0,0, ,361,-132.2,-905.8,-5.5,-0.3,-0.4,25,419.623,-65.8344,-798.841,13.225,-24.6603,9.93593,
2026_07_06_16_58_36.203,3.869,36.8,0,0.766,0,0,0,0, ,0,0,0,0,0, ,368.2,-144.8,-910.4,-7.4,-1.8,-1.3,25,416.27,-70.2624,-805.499,12.026,-23.2215,9.27866,
2026_07_06_16_58_36.224,3.869,36.8,0,0.765,0,0,0,0, ,0,0,0,0,0, ,380.2,-149.5,-919.5,-4.1,-1.4,-0.6,25,413.706,-74.9478,-812.169,10.9428,-21.904,8.65535,
2026_07_06_16_58_36.243,3.869,36.9,0,0.764,0,0,0,0, ,0,0,0,0,0, ,379.2,-142.7,-919.7,-0.3,-0.5,0,25,411.634,-79.2836,-818.715,10.1419,-20.6271,8.10963,
2026_07_06_16_58_36.262,3.869,36.8,0,0.765,0,0,0,0, ,0,0,0,0,0, ,365.8,-133.1,-919.4,0,-0.3,-0.1,25,409.249,-82.8555,-824.86,9.51474,-19.3945,7.61241,
2026_07_06_16_58_36.288,3.869,36.8,0,0.764,0,0,0,0, ,0,0,0,0,0, ,369.2,-137,-917.1,-0.6,-0.7,-0.9,25,406.705,-86.0361,-830.551,8.91666,-18.2431,7.11806,
2026_07_06_16_58_36.303,3.869,36.8,0,0.764,0,0,0,0, ,0,0,0,0,0, ,372.6,-138.7,-914.1,-0.9,-0.5,-2,25,404.523,-89.1936,-835.734,8.32759,-17.168,6.59594,
2026_07_06_16_58_36.322,3.869,36.8,0,0.765,0,0,0,0, ,0,0,0,0,0, ,372.8,-133.7,-914.9,-0.7,0,-1.3,25,402.584,-92.058,-840.533,7.77138,-16.137,6.09345,
2026_07_06_16_58_36.343,3.869,36.8,0,0.764,0,0,0,0, ,0,0,0,0,0, ,373.4,-138.5,-922.8,-1.2,0.3,-1.2,25,400.787,-94.7418,-845.306,7.23992,-15.1446,5.64596,
2026_07_06_16_58_36.362,3.869,36.8,0,0.765,0,0,0,0, ,0,0,0,0,0, ,369.9,-140.7,-930.7,-1.3,1.2,-2.2,25,399.012,-97.4754,-850.269,6.72257,-14.176,5.19832,
2026_07_06_16_58_36.381,3.869,36.9,0,0.764,0,0,0,0, ,0,0,0,0,0, ,374.1,-138.4,-924,-0.5,1,-2.7,25,397.366,-100.039,-854.966,6.25807,-13.2451,4.73225,
2026_07_06_16_58_36.402,3.869,36.8,0,0.765,0,0,0,0, ,0,0,0,0,0, ,377,-130,-921.7,-0.3,1,-2.2,25,396.036,-102.121,-859.103,5.85234,-12.377,4.29458,
2026_07_06_16_58_36.421,3.869,36.8,0,0.765,0,0,0,0, ,0,0,0,0,0, ,389.5,-135.9,-929.6,-1.7,4,-2.3,25,395.257,-104,-863.158,5.43478,-11.4705,3.89577,
2026_07_06_16_58_36.441,3.869,36.7,0,0.766,0,0,0,0, ,0,0,0,0,0, ,394.6,-141.2,-931.5,-4.2,9.7,-3.7,25,395.062,-106.105,-867.265,4.92383,-10.3541,3.47556,
2026_07_06_16_58_36.461,3.869,36.8,0,0.764,0,0,0,0, ,0,0,0,0,0, ,405.7,-113.6,-922.1,-9.7,17.2,-5.7,25,395.372,-107.403,-870.893,4.20027,-8.9035,2.97736,
2026_07_06_16_58_36.481,3.869,36.8,0,0.764,0,0,0,0, ,0,0,0,0,0, ,415.7,-99.6,-921.6,-14.7,22.5,-6.4,25,396.306,-107.354,-873.998,3.20088,-7.15134,2.42726,
2026_07_06_16_58_36.502,3.869,36.8,0,0.766,0,0,0,0, ,0,0,0,0,0, ,450.1,-95,-929.3,-27.7,39.2,-9,25,398.536,-106.741,-877.133,1.71395,-4.83563,1.81013,
2026_07_06_16_58_36.521,3.869,36.7,0,0.765,0,0,0,0, ,0,0,0,0,0, ,471,-89.1,-926.8,-42.7,62.6,-16.2,25,402.315,-105.846,-880.236,-0.535495,-1.43924,0.93201,
2026_07_06_16_58_36.540,3.869,36.8,0,0.765,0,0,0,0, ,0,0,0,0,0, ,523.1,-109.9,-937.2,-53.7,84.3,-19.3,25,408.088,-105.459,-883.39,-3.44005,3.12432,-0.206425,
2026_07_06_16_58_36.560,3.869,36.7,0,0.764,0,0,0,0, ,0,0,0,0,0, ,549.1,-127.6,-934.6,-56,111.3,-19.4,25,415.888,-106.269,-886.59,-6.57284,8.89362,-1.37299,
2026_07_06_16_58_36.580,3.869,36.8,0,0.765,0,0,0,0, ,0,0,0,0,0, ,559.8,-126.2,-925.6,-61.5,147.7,-27.8,25,424.332,-107.526,-889.241,-9.75239,16.2431,-2.72745,
2026_07_06_16_58_36.600,3.869,36.8,0,0.764,0,0,0,0, ,0,0,0,0,0, ,567.6,-128.7,-910.6,-69.1,180.4,-40.6,25,432.825,-108.74,-891,-13.1373,25.2501,-4.6453,
2026_07_06_16_58_36.619,3.869,36.9,0,0.765,0,0,0,0, ,0,0,0,0,0, ,613.4,-68.3,-865.7,-93,197.1,-48.9,25,442.433,-108.116,-890.826,-17.2757,35.2133,-7.08918,
2026_07_06_16_58_36.639,3.869,36.8,0,0.766,0,0,0,0, ,0,0,0,0,0, ,640.1,-53.8,-831.9,-105.3,225.2,-72.7,25,453.665,-105.248,-888.265,-22.265,45.9345,-10.3622,
2026_07_06_16_58_36.658,3.869,36.9,0,0.765,0,0,0,0, ,0,0,0,0,0, ,666.9,-31.4,-729.6,-79.2,247.8,-80.9,25,465.842,-101.431,-881.714,-26.5297,57.5471,-14.4107,
2026_07_06_16_58_36.679,3.869,36.8,0,0.765,0,0,0,0, ,0,0,0,0,0, ,686.7,25.1,-620.7,-61,250.1,-83.5,25,478.698,-95.4416,-869.126,-29.1847,69.2107,-18.5416,
2026_07_06_16_58_36.698,3.869,36.9,0,0.765,0,0,0,0, ,0,0,0,0,0, ,727.4,104.8,-522.9,-91.1,250.1,-103.1,25,492.613,-85.6678,-851.008,-32.0406,80.2336,-23.0972,
2026_07_06_16_58_36.719,3.869,36.7,0,0.765,0,0,0,0, ,0,0,0,0,0, ,745.4,164.9,-408.3,-128.7,250.1,-140.2,25,507.469,-72.23,-827.522,-36.7851,90.5848,-29.1028,
2026_07_06_16_58_36.738,3.869,36.9,0,0.764,0,0,0,0, ,0,0,0,0,0, ,701.7,200.6,-319.9,-170.4,250.1,-165.7,25,520.636,-56.6921,-799.282,-43.6568,100.305,-36.6497,
2026_07_06_16_58_36.757,3.869,36.8,0,0.765,0,0,0,0, ,0,0,0,0,0, ,727.6,218.9,-287.8,-193.7,250.1,-173.8,25,532.459,-40.4558,-769.092,-52.0901,109.433,-44.7605,
2026_07_06_16_58_36.778,3.869,36.8,0,0.763,0,0,0,0, ,0,0,0,0,0, ,818.2,303.1,-186.4,-185.6,244,-163.3,25,547.111,-22.0859,-736.674,-60.4726,117.819,-52.3039,
2026_07_06_16_58_36.797,3.869,36.9,0,0.764,0,0,0,0, ,0,0,0,0,0, ,838.5,384.3,-97.9,-157.6,250.1,-156.2,25,564.249,0.204213,-700.445,-67.2445,125.694,-58.8514,
2026_07_06_16_58_36.816,3.869,36.9,0,0.765,0,0,0,0, ,0,0,0,0,0, ,734.9,397.9,-2.9,-155.1,250.1,-166.8,25,577.804,24.0244,-660.833,-72.6743,133.275,-65.1066,
2026_07_06_16_58_36.837,3.869,36.9,0,0.766,0,0,0,0, ,0,0,0,0,0, ,694.4,477.5,113.6,-138.8,250.1,-173.7,25,586.143,49.2328,-617.19,-77.2005,140.394,-71.5138,
2026_07_06_16_58_36.858,3.869,36.9,0,0.765,0,0,0,0, ,0,0,0,0,0, ,685.7,577.7,242.6,-122.1,250.1,-158.7,25,592.475,78.3833,-568.727,-80.4454,147.08,-77.2837,
2026_07_06_16_58_36.877,3.869,36.9,0,0.764,0,0,0,0, ,0,0,0,0,0, ,621,631.7,345.9,-107.1,250.1,-140.8,25,596.185,110.456,-516.14,-82.5267,153.357,-81.6996,
2026_07_06_16_58_36.898,3.869,36.8,0,0.765,0,0,0,0, ,0,0,0,0,0, ,529.4,631.2,423.9,-92.8,242.9,-128.4,25,594.906,142.204,-461.233,-83.5884,159.033,-84.9232,
2026_07_06_16_58_36.917,3.869,36.8,0,0.765,0,0,0,0, ,0,0,0,0,0, ,466.3,626.9,508.3,-65.2,214.9,-113.5,25,588.992,171.871,-404.723,-83.3088,163.291,-87.1186,
2026_07_06_16_58_36.936,3.869,36.9,0,0.765,0,0,0,0, ,0,0,0,0,0, ,426.1,664.3,580.3,-32.5,178,-88.1,25,580.29,200.739,-346.892,-81.209,165.311,-87.9523,
2026_07_06_16_58_36.956,3.869,36.9,0,0.763,0,0,0,0, ,0,0,0,0,0, ,386.7,712.4,630.8,-5.6,143.9,-55.1,25,569.694,230.453,-288.853,-77.4212,165.046,-86.9559,
2026_07_06_16_58_36.975,3.869,36.8,0,0.763,0,0,0,0, ,0,0,0,0,0, ,338,741.3,663.8,9.9,115.8,-30.5,25,557.059,260.702,-231.806,-72.5723,162.901,-84.2651,
2026_07_06_16_58_36.995,3.869,36.8,0,0.765,0,0,0,0, ,0,0,0,0,0, ,314.6,724.8,698.4,10.9,101.5,-22.8,25,542.997,289.486,-176.176,-67.5162,159.595,-80.7542,
2026_07_06_16_58_37.014,3.869,36.8,0,0.764,0,0,0,0, ,0,0,0,0,0, ,312.5,736,704.1,5.8,90.1,-18.7,25,529.015,316.354,-122.708,-62.8931,155.707,-77.0977,
2026_07_06_16_58_37.035,3.869,36.8,0,0.764,0,0,0,0, ,0,0,0,0,0, ,290.5,738.7,711.6,4.3,77.3,-8.3,25,515.151,342.008,-72.0955,-58.7528,151.32,-73.2222,
2026_07_06_16_58_37.055,3.869,36.7,0,0.765,0,0,0,0, ,0,0,0,0,0, ,238.7,729.6,727,7,65.8,0,25,499.883,365.904,-23.8698,-54.8283,146.459,-69.0131,
2026_07_06_16_58_37.075,3.869,36.8,0,0.764,0,0,0,0, ,0,0,0,0,0, ,209.9,730.5,733.1,8,60.3,4.6,25,483.09,388.094,22.0721,-51.0301,141.376,-64.6675,
2026_07_06_16_58_37.099,3.869,36.9,0,0.764,0,0,0,0, ,0,0,0,0,0, ,198.7,722.5,757.6,5.2,58.9,1.4,25,466.101,408.716,66.1469,-47.5183,136.393,-60.544,
2026_07_06_16_58_37.114,3.869,36.8,0,0.765,0,0,0,0, ,0,0,0,0,0, ,176.5,717.2,775.3,-0.1,58,-7.6,25,449.13,427.676,108.822,-44.4673,131.643,-57.0435,
2026_07_06_16_58_37.133,3.869,36.8,0,0.765,0,0,0,0, ,0,0,0,0,0, ,183.8,889.6,946.1,-8.7,53,-9.8,25,432.739,450.571,154.639,-42.0257,127.003,-54.0976,
2026_07_06_16_58_37.154,3.869,36.8,0,0.765,0,0,0,0, ,0,0,0,0,0, ,140.3,857.4,886.8,-23,51.8,-9.8,25,416.244,476.344,201.062,-40.4306,122.457,-51.3982,
2026_07_06_16_58_37.173,3.869,36.9,0,0.764,0,0,0,0, ,0,0,0,0,0, ,51.7,613.8,763.4,-8,19.3,-6.8,25,396.729,492.142,239.089,-38.9114,117.161,-48.7719,
2026_07_06_16_58_37.194,3.869,36.9,0,0.765,0,0,0,0, ,0,0,0,0,0, ,129.2,645.3,739.7,7.8,0.7,5.3,25,378.065,500.515,270.317,-36.5463,110.631,-45.8456,
2026_07_06_16_58_37.213,3.869,36.9,0,0.764,0,0,0,0, ,0,0,0,0,0, ,152.9,678.4,729.8,3.7,-1.7,-0.8,25,363.622,510.347,298.619,-33.9689,103.859,-42.9147,
2026_07_06_16_58_37.232,3.869,36.9,0,0.765,0,0,0,0, ,0,0,0,0,0, ,179,655.5,712.2,-4.3,-2.4,-7.8,25,351.576,519.89,324.358,-31.9172,97.405,-40.5616,
2026_07_06_16_58_37.252,3.869,36.9,0,0.764,0,0,0,0, ,0,0,0,0,0, ,222.6,647.8,677.1,-2.7,-0.5,-7.5,25,342.388,527.919,346.922,-30.1855,91.3811,-38.5561,
2026_07_06_16_58_37.272,3.869,36.9,0,0.764,0,0,0,0, ,0,0,0,0,0, ,243.1,676.3,690.5,1.5,3.1,-4.9,25,335.713,536.093,367.451,-28.3826,85.8918,-36.5844,
2026_07_06_16_58_37.293,3.869,36.9,0,0.765,0,0,0,0, ,0,0,0,0,0, ,221.8,690.6,715.3,0,2.9,-4.3,25,329.421,545.072,387.892,-26.6074,80.8405,-34.6353,
2026_07_06_16_58_37.317,3.869,36.9,0,0.765,0,0,0,0, ,0,0,0,0,0, ,211.1,691.5,706.1,-2.9,-0.7,-6.1,25,322.537,553.968,407.563,-25.0743,75.9813,-32.8416,
2026_07_06_16_58_37.331,3.869,36.9,0,0.764,0,0,0,0, ,0,0,0,0,0, ,222.6,683.5,679.3,-4.3,1.1,-4.7,25,316.096,562.105,424.939,-23.7658,71.3634,-31.1694,
2026_07_06_16_58_37.352,3.869,36.8,0,0.764,0,0,0,0, ,0,0,0,0,0, ,218.6,666.6,678.4,-0.1,2.3,-1.5,25,310.277,568.987,440.412,-22.4516,67.1183,-29.4589,
2026_07_06_16_58_37.371,3.869,36.9,0,0.764,0,0,0,0, ,0,0,0,0,0, ,220.3,691.1,710.8,3.3,-2.2,2.1,25,304.742,575.682,455.901,-20.9859,63.0313,-27.6455,
2026_07_06_16_58_37.392,3.869,36.9,0,0.765,0,0,0,0, ,0,0,0,0,0, ,207.3,679.4,703.8,-2.1,0.3,-4.1,25,299.2,582.359,471.221,-19.6706,59.1325,-26.0218,
2026_07_06_16_58_37.411,3.869,36.7,0,0.765,0,0,0,0, ,0,0,0,0,0, ,209.3,675.6,689.8,-4,4,-6.8,25,293.661,588.157,484.967,-18.6577,55.6601,-24.7682,
2026_07_06_16_58_37.430,3.869,36.8,0,0.764,0,0,0,0, ,0,0,0,0,0, ,193.9,682,708.6,-0.2,0.8,-1.9,25,288.051,593.68,498.022,-17.6487,52.4146,-23.524,
2026_07_06_16_58_37.451,3.869,36.8,0,0.763,0,0,0,0, ,0,0,0,0,0, ,198.8,687.6,722.6,1.2,-2.6,0.6,25,282.463,599.233,511.28,-16.5428,49.1657,-22.1301,
2026_07_06_16_58_37.471,3.869,36.8,0,0.764,0,0,0,0, ,0,0,0,0,0, ,205.3,668.5,698.9,-0.8,0.9,-2.5,25,277.563,604.036,523.436,-15.5225,46.1179,-20.8394,
2026_07_06_16_58_37.490,3.869,36.9,0,0.764,0,0,0,0, ,0,0,0,0,0, ,200.8,661.8,686.8,-2.3,8.1,-5.4,25,273.022,607.76,533.759,-14.6711,43.5818,-19.8102,
2026_07_06_16_58_37.510,3.869,36.8,0,0.764,0,0,0,0, ,0,0,0,0,0, ,188.1,675.1,711.6,1.5,2.5,-1.9,25,268.234,611.458,543.841,-13.8014,41.249,-18.8255,
2026_07_06_16_58_37.531,3.869,36.9,0,0.765,0,0,0,0, ,0,0,0,0,0, ,189.9,692.5,732.1,4,-4.3,1,25,263.406,615.866,554.688,-12.7928,38.6805,-17.7057,
2026_07_06_16_58_37.550,3.869,36.8,0,0.764,0,0,0,0, ,0,0,0,0,0, ,195.3,686.1,715.6,-0.3,-5.2,-2.6,25,259.091,620.341,564.997,-11.9005,36.034,-16.6755,
2026_07_06_16_58_37.569,3.869,36.8,0,0.765,0,0,0,0, ,0,0,0,0,0, ,204.3,681.6,695.8,-3.3,-2.4,-5.2,25,255.478,624.211,573.571,-11.285,33.6066,-15.897,
2026_07_06_16_58_37.590,3.869,36.8,0,0.765,0,0,0,0, ,0,0,0,0,0, ,207.7,675,690.3,-5.3,3.9,-7.3,25,252.463,627.507,580.851,-10.8594,31.6044,-15.3091,
2026_07_06_16_58_37.610,3.869,36.9,0,0.765,0,0,0,0, ,0,0,0,0,0, ,204.9,660.5,699,0.7,0,-1.4,25,249.65,629.96,587.786,-10.3378,29.7973,-14.6413,
2026_07_06_16_58_37.629,3.869,36.8,0,0.766,0,0,0,0, ,0,0,0,0,0, ,206.6,681.8,708,2.9,-3.2,1.1,25,246.975,632.47,594.837,-9.59816,27.8841,-13.7582,
2026_07_06_16_58_37.649,3.869,36.8,0,0.764,0,0,0,0, ,0,0,0,0,0, ,198.3,682.7,699.8,-2.3,-0.5,-3.4,25,244.262,635.503,601.483,-8.99499,26.0721,-12.9899,
2026_07_06_16_58_37.668,3.869,36.9,0,0.765,0,0,0,0, ,0,0,0,0,0, ,198.9,671,692.5,-2.9,-1.3,-4.9,25,241.479,638.023,607.252,-8.60529,24.4285,-12.4512,
2026_07_06_16_58_37.688,3.869,36.9,0,0.764,0,0,0,0, ,0,0,0,0,0, ,214.3,672.6,684.4,2.4,-2.8,-1,25,239.354,640.081,612.2,-8.09614,22.815,-11.8723,
2026_07_06_16_58_37.708,3.869,36.9,0,0.765,0,0,0,0, ,0,0,0,0,0, ,218.5,683.5,696.5,3,0.4,-0.1,25,237.955,642.395,616.968,-7.43825,21.3516,-11.1823,
2026_07_06_16_58_37.727,3.869,36.8,0,0.764,0,0,0,0, ,0,0,0,0,0, ,209.5,689.5,705.2,-0.7,2.5,-3.5,25,236.495,645.082,622.08,-6.91491,20.1388,-10.6106,
2026_07_06_16_58_37.753,3.869,36.9,0,0.765,0,0,0,0, ,0,0,0,0,0, ,198.1,680.5,701.2,-2,2.6,-4.1,25,234.503,647.515,627.023,-6.5758,19.067,-10.1956,
2026_07_06_16_58_37.766,3.869,36.8,0,0.764,0,0,0,0, ,0,0,0,0,0, ,194.3,685,709.4,-0.2,0.9,-0.1,25,232.169,649.662,631.793,-6.24211,18.0118,-9.70224,
2026_07_06_16_58_37.787,3.869,36.9,0,0.763,0,0,0,0, ,0,0,0,0,0, ,192.3,683.2,715.6,0.7,-1.6,1.4,25,229.8,651.761,636.711,-5.8465,16.8928,-9.0714,
2026_07_06_16_58_37.806,3.869,36.9,0,0.765,0,0,0,0, ,0,0,0,0,0, ,204.3,675.4,703.4,-1.3,-0.2,-0.8,25,227.881,653.439,641.147,-5.50851,15.8086,-8.50033,
2026_07_06_16_58_37.827,3.869,36.9,0,0.765,0,0,0,0, ,0,0,0,0,0, ,202.1,669.1,694.4,-2.1,1.5,-2.8,25,226.377,654.585,644.666,-5.27643,14.8849,-8.09203,
2026_07_06_16_58_37.846,3.869,36.7,0,0.765,0,0,0,0, ,0,0,0,0,0, ,192.2,664.5,693.4,-1.6,4.9,-4.8,25,224.596,655.329,647.666,-5.06763,14.1728,-7.83048,
2026_07_06_16_58_37.866,3.869,36.7,0,0.763,0,0,0,0, ,0,0,0,0,0, ,183.8,677.7,712.2,0.8,2.7,-3.7,25,222.366,656.29,651.026,-4.7832,13.5407,-7.6123,
2026_07_06_16_58_37.885,3.869,36.7,0,0.763,0,0,0,0, ,0,0,0,0,0, ,190.7,695.8,721,-1,0,-3.9,25,220.226,658.147,655.022,-4.49782,12.7978,-7.37999,
2026_07_06_16_58_37.906,3.869,36.8,0,0.765,0,0,0,0, ,0,0,0,0,0, ,203.6,691.5,700.6,-0.8,-1.9,0.5,25,218.82,660.31,658.421,-4.27857,11.9601,-7.03386,
2026_07_06_16_58_37.925,3.869,36.8,0,0.765,0,0,0,0, ,0,0,0,0,0, ,197.2,672.8,699.9,-0.2,1.6,0,25,217.697,661.641,660.97,-4.04832,11.2221,-6.59,
2026_07_06_16_58_37.944,3.869,36.7,0,0.764,0,0,0,0, ,0,0,0,0,0, ,197.6,680.7,716.4,-0.2,1.4,-1.4,25,216.46,662.562,663.845,-3.81381,10.6297,-6.23108,
2026_07_06_16_58_37.970,3.869,36.8,0,0.763,0,0,0,0, ,0,0,0,0,0, ,202.1,704.7,729.4,1.2,-0.9,-1,25,215.448,664.398,667.444,-3.55094,9.99718,-5.9245,
2026_07_06_16_58_37.987,3.869,36.8,0,0.765,0,0,0,0, ,0,0,0,0,0, ,195.9,728.2,752.3,1.9,-4.4,2.9,25,214.446,667.57,671.917,-3.2401,9.22649,-5.50558,
2026_07_06_16_58_38.005,3.869,36.8,0,0.766,0,0,0,0, ,0,0,0,0,0, ,180.9,739.9,774.2,1.7,-10.4,6.4,25,212.859,671.621,677.482,-2.93297,8.21331,-4.88673,
2026_07_06_16_58_38.025,3.869,36.8,0,0.764,0,0,0,0, ,0,0,0,0,0, ,189.9,764.5,803.9,1,-19.2,4.9,25,211.185,676.532,684.281,-2.67197,6.81094,-4.24465,
2026_07_06_16_58_38.044,3.869,36.8,0,0.765,0,0,0,0, ,0,0,0,0,0, ,201.5,756.5,801.8,4.7,-33.9,15.8,25,210.242,681.648,691.506,-2.33548,4.77801,-3.35528,
2026_07_06_16_58_38.064,3.869,36.8,0,0.763,0,0,0,0, ,0,0,0,0,0, ,183.7,723.7,784,23.5,-61.6,32.6,25,209.167,685.21,697.685,-1.33394,1.57708,-1.67613,
2026_07_06_16_58_38.085,3.869,36.8,0,0.764,0,0,0,0, ,0,0,0,0,0, ,198.4,764.2,787.9,35.4,-87.8,44.3,25,208.063,688.79,703.064,0.541954,-3.07105,0.769051,
2026_07_06_16_58_38.104,3.869,36.8,0,0.764,0,0,0,0, ,0,0,0,0,0, ,213.8,795.6,790.8,29,-108.1,47.1,25,207.943,694.342,708.322,2.47112,-8.85274,3.50703,
2026_07_06_16_58_38.124,3.869,36.8,0,0.765,0,0,0,0, ,0,0,0,0,0, ,211.7,776.1,772.2,30.8,-134.4,53.1,25,208.236,699.918,712.781,4.14256,-15.7019,6.34629,
2026_07_06_16_58_38.143,3.869,36.8,0,0.765,0,0,0,0, ,0,0,0,0,0, ,255.8,777.9,728.7,44.1,-174.4,67.8,25,209.791,704.615,715.077,6.17223,-24.1539,9.64323,
2026_07_06_16_58_38.163,3.869,36.8,0,0.767,0,0,0,0, ,0,0,0,0,0, ,320,751.2,626.5,62.4,-205.4,77.6,25,214.551,708.267,712.793,9.04104,-34.254,13.4858,
2026_07_06_16_58_38.182,3.869,36.7,0,0.764,0,0,0,0, ,0,0,0,0,0, ,397,724.4,483.7,79.5,-223.4,85.5,25,223.322,710.067,703.183,12.8136,-45.2317,17.6334,
2026_07_06_16_58_38.203,3.869,36.8,0,0.765,0,0,0,0, ,0,0,0,0,0, ,476.4,716.7,393.3,98.4,-233.6,104.5,25,236.325,710.706,687.054,17.4532,-56.3996,22.3479,
2026_07_06_16_58_38.221,3.869,36.9,0,0.766,0,0,0,0, ,0,0,0,0,0, ,562.3,646.7,302.6,123.2,-250.1,121.9,25,253.572,708.938,666.39,23.1415,-67.7005,27.8842,
2026_07_06_16_58_38.241,3.869,36.8,0,0.765,0,0,0,0, ,0,0,0,0,0, ,639.2,596.4,192.6,142.7,-250.1,138.1,25,274.728,703.613,640.87,29.833,-78.8154,34.1069,
2026_07_06_16_58_38.262,3.869,36.8,0,0.765,0,0,0,0, ,0,0,0,0,0, ,694.9,550.5,81.4,150.4,-248.4,147.6,25,298.635,695.681,610.165,36.9454,-89.2013,40.7335,
2026_07_06_16_58_38.282,3.869,36.8,0,0.765,0,0,0,0, ,0,0,0,0,0, ,735.2,505,9.6,145.2,-245,151.2,25,324.011,685.448,575.756,43.7006,-98.7989,47.3553,
2026_07_06_16_58_38.301,3.869,36.8,0,0.764,0,0,0,0, ,0,0,0,0,0, ,759.2,473.6,-87.6,162.5,-239.5,154.9,25,349.799,673.495,538.294,50.4128,-107.54,53.7961,
2026_07_06_16_58_38.321,3.869,36.9,0,0.764,0,0,0,0, ,0,0,0,0,0, ,781.2,471.4,-161.6,148.6,-231.4,147.1,25,375.417,661.247,497.899,56.8196,-115.335,59.7195,
2026_07_06_16_58_38.341,3.869,36.7,0,0.766,0,0,0,0, ,0,0,0,0,0, ,795.7,401.3,-227.4,141.7,-222.3,151.9,25,400.586,647.542,455.706,62.2023,-122.13,65.1905,
2026_07_06_16_58_38.362,3.869,36.8,0,0.764,0,0,0,0, ,0,0,0,0,0, ,762.2,314.4,-304.9,139,-232.6,163.4,25,423.643,629.889,411.718,66.9644,-128.548,70.8247,
2026_07_06_16_58_38.381,3.869,36.8,0,0.765,0,0,0,0, ,0,0,0,0,0, ,734.8,211.3,-372.1,154.2,-249.6,175.6,25,443.439,607.523,366.002,71.8172,-135.407,76.8377,
2026_07_06_16_58_38.405,3.869,36.7,0,0.765,0,0,0,0, ,0,0,0,0,0, ,735.5,136.8,-446.6,161.8,-243.2,175.4,25,461.215,581.108,318.754,77.0689,-142.171,82.85,
2026_07_06_16_58_38.423,3.869,36.8,0,0.764,0,0,0,0, ,0,0,0,0,0, ,672.8,78.9,-516.4,161.2,-245,168.9,25,476.019,552.269,269.988,82.214,-148.382,88.2917,
2026_07_06_16_58_38.440,3.869,36.8,0,0.765,0,0,0,0, ,0,0,0,0,0, ,621.2,21.3,-573.3,155.1,-250.1,158.7,25,486.438,521.668,220.334,86.8413,-154.425,92.893,
2026_07_06_16_58_38.459,3.869,36.7,0,0.764,0,0,0,0, ,0,0,0,0,0, ,600.7,-50.2,-658.6,149.8,-250.1,149.2,25,494.025,488.998,169.373,90.8393,-160.255,96.6136,
2026_07_06_16_58_38.480,3.869,36.8,0,0.766,0,0,0,0, ,0,0,0,0,0, ,575.4,-86,-697.1,144.5,-250.1,141.2,25,499.755,455.05,117.745,94.2708,-165.73,99.5744,
2026_07_06_16_58_38.499,3.869,36.7,0,0.764,0,0,0,0, ,0,0,0,0,0, ,556.5,-163,-739.8,130.6,-245,123,25,503.789,419.734,66.7897,96.9081,-170.716,101.556,
2026_07_06_16_58_38.519,3.869,36.8,0,0.765,0,0,0,0, ,0,0,0,0,0, ,534.6,-164.9,-807,107.3,-211.7,99.1,25,506.333,384.166,15.5907,98.2513,-174.228,102.135,
2026_07_06_16_58_38.538,3.869,36.8,0,0.764,0,0,0,0, ,0,0,0,0,0, ,507,-148.9,-837.1,63.6,-167.6,69.1,25,507.215,351.194,-35.453,97.4712,-175.168,101.036,
2026_07_06_16_58_38.558,3.869,36.9,0,0.765,0,0,0,0, ,0,0,0,0,0, ,475.5,-184,-877.5,22.6,-122.8,48.6,25,506.242,319.65,-85.5343,94.158,-173.342,98.4652,
2026_07_06_16_58_38.579,3.869,36.7,0,0.765,0,0,0,0, ,0,0,0,0,0, ,395.3,-285,-907.7,12.7,-104.3,40.6,25,501.925,285.882,-134.715,89.4958,-169.698,95.1828,
2026_07_06_16_58_38.598,3.869,36.8,0,0.764,0,0,0,0, ,0,0,0,0,0, ,358.8,-305.1,-931.1,17,-98.6,35.2,25,494.316,250.481,-182.532,84.947,-165.539,91.6921,
2026_07_06_16_58_38.618,3.869,36.8,0,0.766,0,0,0,0, ,0,0,0,0,0, ,352.4,-253,-934.4,15.2,-81.5,28.4,25,485.863,218.213,-228.248,80.7517,-160.939,88.0424,
2026_07_06_16_58_38.638,3.869,36.7,0,0.763,0,0,0,0, ,0,0,0,0,0, ,322.7,-242,-945.6,5.2,-59.4,26.1,25,476.825,189.834,-271.62,76.4524,-155.425,84.3379,
2026_07_06_16_58_38.657,3.869,36.8,0,0.765,0,0,0,0, ,0,0,0,0,0, ,277,-287.9,-964.5,0.9,-44.4,21.7,25,466.04,162.12,-313.267,71.9795,-149.116,80.655,
2026_07_06_16_58_38.677,3.869,36.7,0,0.764,0,0,0,0, ,0,0,0,0,0, ,252.8,-307.7,-972.6,-0.1,-37.5,16.6,25,453.783,134.094,-353.198,67.6176,-142.525,76.907,
2026_07_06_16_58_38.696,3.869,36.7,0,0.764,0,0,0,0, ,0,0,0,0,0, ,256.5,-276.3,-973.5,7.1,-34.5,16.3,25,441.649,108.129,-390.97,63.7104,-136.034,73.2229,
2026_07_06_16_58_38.717,3.869,36.8,0,0.764,0,0,0,0, ,0,0,0,0,0, ,247.3,-233.5,-976.6,2.8,-26.5,17.3,25,430.086,86.0067,-426.563,60.1297,-129.603,69.7846,
2026_07_06_16_58_38.737,3.869,36.8,0,0.764,0,0,0,0, ,0,0,0,0,0, ,229.1,-247,-986.9,-9,-12.8,13.1,25,418.393,66.1255,-460.395,56.2766,-122.902,66.4584,
2026_07_06_16_58_38.757,3.869,36.9,0,0.764,0,0,0,0, ,0,0,0,0,0, ,206.1,-301.7,-989.6,-11.8,-5.9,7.5,25,406.157,45.3778,-492.561,52.2135,-115.983,63.0362,
2026_07_06_16_58_38.776,3.869,36.8,0,0.764,0,0,0,0, ,0,0,0,0,0, ,185.6,-298.7,-983.3,-3.2,-11.2,5.1,25,393.341,24.3191,-522.657,48.5747,-109.436,59.5789,
2026_07_06_16_58_38.795,3.869,36.8,0,0.765,0,0,0,0, ,0,0,0,0,0, ,191,-259.5,-968.8,1,-16.3,1.5,25,380.847,5.82951,-550.286,45.5477,-103.605,56.1494,
2026_07_06_16_58_38.816,3.869,36.8,0,0.764,0,0,0,0, ,0,0,0,0,0, ,218.9,-235.8,-970.3,-2,-10.6,0.2,25,370.128,-9.61689,-575.835,42.7417,-98.1114,52.7796,
2026_07_06_16_58_38.835,3.869,36.8,0,0.764,0,0,0,0, ,0,0,0,0,0, ,215.3,-255.2,-975.5,-6,-1.1,1.4,25,360.803,-23.991,-600.031,39.8933,-92.4892,49.6121,
2026_07_06_16_58_38.856,3.869,36.8,0,0.764,0,0,0,0, ,0,0,0,0,0, ,203.9,-271.9,-970.3,-6.6,1.9,2.1,25,351.589,-38.5891,-622.753,37.0784,-86.8288,46.6955,
2026_07_06_16_58_38.876,3.869,36.8,0,0.764,0,0,0,0, ,0,0,0,0,0, ,187.7,-272.3,-959.5,-2.3,-2.4,3,25,342.096,-52.8187,-643.602,34.5478,-81.5529,44.0054,
2026_07_06_16_58_38.896,3.869,36.9,0,0.765,0,0,0,0, ,0,0,0,0,0, ,183.8,-258.5,-952.2,-1.2,-4.8,0.9,25,332.568,-65.7729,-662.63,32.3359,-76.8027,41.4426,
2026_07_06_16_58_38.915,3.869,36.8,0,0.763,0,0,0,0, ,0,0,0,0,0, ,197.6,-255.3,-954.5,-2.6,-1.6,-0.9,25,323.923,-77.4197,-680.345,30.2497,-72.3175,38.9172,
2026_07_06_16_58_38.934,3.869,36.8,0,0.764,0,0,0,0, ,0,0,0,0,0, ,192.6,-253.9,-954.5,-6.9,3,-2.7,25,316.073,-88.2166,-697.052,28.1169,-67.868,36.436,
2026_07_06_16_58_38.955,3.869,36.8,0,0.765,0,0,0,0, ,0,0,0,0,0, ,199,-252.5,-949,-2.5,2,-0.5,25,308.744,-98.2703,-712.572,26.1171,-63.5799,34.1182,
2026_07_06_16_58_38.975,3.869,36.8,0,0.766,0,0,0,0, ,0,0,0,0,0, ,202.1,-257.9,-949.3,-4.5,-0.8,-0.4,25,302.151,-107.833,-726.989,24.3123,-59.669,32.0117,
2026_07_06_16_58_38.995,3.869,36.8,0,0.764,0,0,0,0, ,0,0,0,0,0, ,204.2,-246.8,-946,1.6,0.5,-0.1,25,296.118,-116.64,-740.435,22.7424,-56.042,30.0457,
2026_07_06_16_58_39.014,3.869,36.8,0,0.765,0,0,0,0, ,0,0,0,0,0, ,206.9,-243,-951,-5.7,3.8,-3.5,25,290.599,-124.456,-753.114,21.2316,-52.496,28.1051,
2026_07_06_16_58_39.033,3.869,36.8,0,0.764,0,0,0,0, ,0,0,0,0,0, ,203.6,-247.1,-944.8,-6.4,6,-3.6,25,285.398,-131.804,-764.984,19.5691,-48.9984,26.1762,
2026_07_06_16_58_39.054,3.869,36.8,0,0.764,0,0,0,0, ,0,0,0,0,0, ,195.6,-256.1,-950.4,-3.1,2.1,-4,25,280.17,-139.104,-776.112,18.0872,-45.7658,24.3495,
2026_07_06_16_58_39.073,3.869,36.8,0,0.765,0,0,0,0, ,0,0,0,0,0, ,213.6,-247.1,-960.2,1.2,-1.7,-1.1,25,275.565,-145.96,-787.032,16.9271,-42.9647,22.7103,
2026_07_06_16_58_39.099,3.869,36.8,0,0.762,0,0,0,0, ,0,0,0,0,0, ,230.8,-227.6,-955.2,-1.7,3,-2.5,25,272.313,-151.529,-797.432,15.8804,-40.3069,21.2167,
2026_07_06_16_58_39.113,3.869,36.8,0,0.763,0,0,0,0, ,0,0,0,0,0, ,251.3,-214.9,-945.3,-7.9,11.6,-2.8,25,270.408,-155.777,-806.744,14.6202,-37.4059,19.7623,
2026_07_06_16_58_39.132,3.869,36.8,0,0.764,0,0,0,0, ,0,0,0,0,0, ,250.9,-227,-963,-15.5,27,-7.8,25,269.231,-159.749,-815.727,13.0163,-33.9504,18.2351,
2026_07_06_16_58_39.152,3.869,36.8,0,0.763,0,0,0,0, ,0,0,0,0,0, ,255.4,-232.2,-968.7,-18.5,33.3,-7.2,25,268.251,-164.005,-824.875,11.1872,-30.0443,16.6669,
2026_07_06_16_58_39.172,3.869,36.8,0,0.763,0,0,0,0, ,0,0,0,0,0, ,253.1,-241,-970.5,-21.5,40.9,-7.9,25,267.398,-168.429,-833.694,9.2867,-25.9527,15.1911,
2026_07_06_16_58_39.191,3.869,36.8,0,0.766,0,0,0,0, ,0,0,0,0,0, ,293,-218.3,-967.8,-25.2,51.8,-13.9,25,267.742,-172.16,-841.948,7.2979,-21.5467,13.6012,
2026_07_06_16_58_39.213,3.869,36.9,0,0.765,0,0,0,0, ,0,0,0,0,0, ,371.2,-175.6,-963.3,-34.3,75.8,-21.7,25,271.664,-173.67,-849.48,5.0403,-16.3459,11.6877,
2026_07_06_16_58_39.232,3.869,36.8,0,0.764,0,0,0,0, ,0,0,0,0,0, ,428.7,-161.4,-976.4,-55.7,121.7,-35.7,25,279.482,-173.355,-856.815,1.99097,-9.33225,9.22658,
2026_07_06_16_58_39.251,3.869,36.8,0,0.764,0,0,0,0, ,0,0,0,0,0, ,452.5,-174.8,-994.6,-81.8,161.1,-44.2,25,289.3,-173.035,-864.657,-2.31981,-0.147005,6.22988,
2026_07_06_16_58_39.271,3.869,36.8,0,0.765,0,0,0,0, ,0,0,0,0,0, ,423.3,-219.8,-945.3,-93.9,189,-50.1,25,298.355,-174.514,-871.073,-7.53181,10.5291,2.97704,
2026_07_06_16_58_39.291,3.869,36.8,0,0.765,0,0,0,0, ,0,0,0,0,0, ,408.5,-217.6,-916,-87.2,200.5,-58.9,25,305.518,-177.206,-874.704,-12.5907,21.755,-0.525465,
2026_07_06_16_58_39.311,3.869,36.8,0,0.765,0,0,0,0, ,0,0,0,0,0, ,467.1,-140.7,-897.5,-84.4,201.5,-66.4,25,313.579,-177.325,-876.657,-17.0519,32.6778,-4.31118,
2026_07_06_16_58_39.337,3.869,36.8,0,0.764,0,0,0,0, ,0,0,0,0,0, ,567.7,-72.2,-867.4,-89.5,210.4,-77.1,25,325.999,-173.006,-877.01,-21.3113,43.2365,-8.42073,
2026_07_06_16_58_39.351,3.869,36.8,0,0.763,0,0,0,0, ,0,0,0,0,0, ,635.1,-26.2,-827.1,-98.8,218.5,-87.7,25,342.781,-165.461,-875.196,-25.7499,53.6699,-12.9288,
2026_07_06_16_58_39.370,3.869,36.8,0,0.765,0,0,0,0, ,0,0,0,0,0, ,675.2,15.6,-737.5,-101,222.9,-103,25,361.816,-155.702,-869.535,-30.2685,63.8483,-17.9514,
2026_07_06_16_58_39.390,3.869,36.8,0,0.765,0,0,0,0, ,0,0,0,0,0, ,647.8,51.7,-599.3,-96.3,242.3,-105.9,25,380.078,-144.163,-857.279,-34.4355,74.1316,-23.2224,
2026_07_06_16_58_39.411,3.869,36.8,0,0.766,0,0,0,0, ,0,0,0,0,0, ,693.3,98.5,-542.7,-66.6,241.7,-98.9,25,397.779,-130.802,-839.833,-37.3004,84.361,-28.0473,
2026_07_06_16_58_39.429,3.869,36.8,0,0.766,0,0,0,0, ,0,0,0,0,0, ,738.6,130.9,-551.2,-83.2,219,-106.5,25,417.168,-115.841,-821.986,-39.5916,93.2572,-32.5964,
2026_07_06_16_58_39.450,3.869,36.8,0,0.764,0,0,0,0, ,0,0,0,0,0, ,838,152.8,-523.1,-109,201.6,-123,25,439.783,-100.138,-804.629,-43.0351,100.39,-37.6027,
2026_07_06_16_58_39.470,3.869,36.8,0,0.764,0,0,0,0, ,0,0,0,0,0, ,863.5,194,-461.1,-131.1,204.3,-141.5,25,464.827,-83.4696,-785.584,-47.7282,106.639,-43.3702,
2026_07_06_16_58_39.489,3.869,36.8,0,0.765,0,0,0,0, ,0,0,0,0,0, ,820.1,252.3,-325,-140.8,216.5,-157,25,487.799,-64.7849,-761.664,-53.1042,112.962,-49.8223,
2026_07_06_16_58_39.508,3.869,36.8,0,0.765,0,0,0,0, ,0,0,0,0,0, ,814.9,368.7,-246,-131.3,203.8,-154.2,25,507.89,-41.916,-732.648,-58.1587,118.885,-56.2681,
2026_07_06_16_58_39.528,3.869,36.8,0,0.765,0,0,0,0, ,0,0,0,0,0, ,858.6,485.7,-157.9,-88.4,202.4,-136.7,25,527.93,-13.3292,-700.308,-61.3087,124.016,-61.7026,
2026_07_06_16_58_39.548,3.869,36.8,0,0.765,0,0,0,0, ,0,0,0,0,0, ,833.7,541.9,-60.5,-93.9,219.9,-130.3,25,547.321,18.7927,-664.288,-63.1271,129.326,-66.0778,
2026_07_06_16_58_39.569,3.869,36.8,0,0.764,0,0,0,0, ,0,0,0,0,0, ,750.4,550.9,37.8,-100,234.1,-138,25,562.234,50.9438,-624.499,-65.1882,135.278,-70.2259,
2026_07_06_16_58_39.588,3.869,36.8,0,0.763,0,0,0,0, ,0,0,0,0,0, ,684.2,580.3,134.1,-107.5,240.6,-148.2,25,571.684,82.3056,-581.206,-67.5381,141.498,-74.6667,
2026_07_06_16_58_39.608,3.869,36.8,0,0.765,0,0,0,0, ,0,0,0,0,0, ,654.2,616,214.1,-114.8,234.5,-153.8,25,577.626,113.74,-535.18,-70.1957,147.351,-79.3183,
2026_07_06_16_58_39.628,3.869,36.8,0,0.764,0,0,0,0, ,0,0,0,0,0, ,625.1,619.9,279.7,-113.6,230.3,-144.7,25,581.406,144.465,-487.522,-72.8772,152.534,-83.5797,
2026_07_06_16_58_39.647,3.869,36.8,0,0.765,0,0,0,0, ,0,0,0,0,0, ,600.7,646.8,345.9,-104,232.5,-132.1,25,583.325,174.257,-438.752,-75.0662,157.34,-86.9203,
2026_07_06_16_58_39.667,3.869,36.8,0,0.764,0,0,0,0, ,0,0,0,0,0, ,513.9,642,415,-93,229.7,-122.8,25,581.739,202.906,-388.832,-76.4942,161.835,-89.3901,
2026_07_06_16_58_39.686,3.869,36.8,0,0.765,0,0,0,0, ,0,0,0,0,0, ,397,628.4,493.2,-67.5,210.3,-111,25,574.043,229.249,-337.466,-76.7231,165.379,-91.0665,
2026_07_06_16_58_39.707,3.869,36.8,0,0.765,0,0,0,0, ,0,0,0,0,0, ,355.9,688.1,570.6,-46.3,182.3,-85.6,25,562.002,255.391,-284.489,-75.5151,167.263,-91.5073,
2026_07_06_16_58_39.726,3.869,36.8,0,0.766,0,0,0,0, ,0,0,0,0,0, ,324.5,709.2,627.1,-41.3,171.8,-58.5,25,548.486,282.402,-230.66,-73.5825,167.86,-90.3216,
2026_07_06_16_58_39.746,3.869,36.8,0,0.765,0,0,0,0, ,0,0,0,0,0, ,256.9,682.2,643.4,-40.1,156.5,-48.3,25,532.777,307.588,-177.894,-71.5787,167.634,-88.0717,
2026_07_06_16_58_39.766,3.869,36.8,0,0.764,0,0,0,0, ,0,0,0,0,0, ,184.2,623,674.6,-27.2,130.6,-32.5,25,513.751,328.612,-126.896,-69.2674,166.166,-85.1667,
2026_07_06_16_58_39.785,3.869,36.8,0,0.763,0,0,0,0, ,0,0,0,0,0, ,169.9,653.8,687.2,-4.5,97.9,-17.3,25,493.233,347.489,-77.6708,-66.0123,163.002,-81.4942,
2026_07_06_16_58_39.806,3.869,36.8,0,0.765,0,0,0,0, ,0,0,0,0,0, ,175.7,699.3,685.6,1,88.2,-8.6,25,473.707,367.542,-31.1102,-62.0963,158.74,-77.3173,
2026_07_06_16_58_39.824,3.869,36.8,0,0.765,0,0,0,0, ,0,0,0,0,0, ,146.6,694.3,701.6,-0.1,87.3,-1.4,25,454.661,387.606,13.0518,-58.2849,154.414,-72.9105,
2026_07_06_16_58_39.845,3.869,36.8,0,0.765,0,0,0,0, ,0,0,0,0,0, ,124.2,684.6,717.5,1.2,83.6,0.4,25,435.206,405.999,55.4947,-54.6996,150.211,-68.4979,
2026_07_06_16_58_39.865,3.869,36.8,0,0.765,0,0,0,0, ,0,0,0,0,0, ,76.7,669.4,746.8,3,69,6.1,25,414.806,422.513,96.7283,-51.2384,145.707,-64.1258,
2026_07_06_16_58_39.884,3.869,36.8,0,0.765,0,0,0,0, ,0,0,0,0,0, ,64,692.5,753,8.6,54.8,9.6,25,393.816,438.262,136.531,-47.7626,140.6,-59.7398,
2026_07_06_16_58_39.904,3.869,36.8,0,0.764,0,0,0,0, ,0,0,0,0,0, ,66.8,728.7,753,6.3,52.5,9.9,25,373.803,454.858,174.097,-44.3981,135.302,-55.5052,
2026_07_06_16_58_39.924,3.869,36.8,0,0.764,0,0,0,0, ,0,0,0,0,0, ,48.7,707.1,763.9,-0.8,50.6,9.1,25,354.544,470.887,209.706,-41.525,130.198,-51.544,
2026_07_06_16_58_39.944,3.869,36.8,0,0.765,0,0,0,0, ,0,0,0,0,0, ,23.5,682,767.7,1,41.2,5.4,25,335.139,484.516,243.593,-38.9885,125.061,-47.9612,
2026_07_06_16_58_39.964,3.869,36.8,0,0.765,0,0,0,0, ,0,0,0,0,0, ,25,683.3,763.7,4.9,30.7,3.9,25,316.194,496.59,275.409,-36.4329,119.631,-44.7552,
2026_07_06_16_58_39.984,3.869,36.8,0,0.765,0,0,0,0, ,0,0,0,0,0, ,58.2,995.9,1127,-5.6,24.3,8.8,25,299.461,517.492,316.233,-34.2341,114.017,-41.641,
2026_07_06_16_58_40.003,3.869,36.8,0,0.765,0,0,0,0, ,0,0,0,0,0, ,-35.8,769,732.9,-41.8,7.1,18.5,25,281.895,539.732,353.632,-33.5922,108.026,-38.2717,
2026_07_06_16_58_40.023,3.869,36.8,0,0.765,0,0,0,0, ,0,0,0,0,0, ,18.6,539.4,683.9,-17.8,21,-10.8,25,264.193,546.707,375.25,-33.3611,102.299,-35.7049,
2026_07_06_16_58_40.043,3.869,36.8,0,0.763,0,0,0,0, ,0,0,0,0,0, ,-13.4,655.5,766.8,-6.5,24.9,-6.1,25,248.252,549.799,396.585,-32.0685,97.4636,-34.0441,
2026_07_06_16_58_40.063,3.869,36.8,0,0.764,0,0,0,0, ,0,0,0,0,0, ,0,642.9,765.3,-0.3,1.9,-2.5,25,232.716,555.857,419.099,-30.3215,92.341,-32.2315,
2026_07_06_16_58_40.083,3.869,36.8,0,0.765,0,0,0,0, ,0,0,0,0,0, ,54.8,645.1,749.3,-0.1,-7.2,-5,25,220.204,561.228,439.708,-28.486,86.5525,-30.496,
2026_07_06_16_58_40.103,3.869,36.8,0,0.765,0,0,0,0, ,0,0,0,0,0, ,119.8,686.7,734.7,-4.2,-4.2,-6.9,25,212.106,567.606,458.129,-26.8812,80.9309,-29.0002,
2026_07_06_16_58_40.122,3.869,36.8,0,0.764,0,0,0,0, ,0,0,0,0,0, ,134.1,686,716,-9.2,4.2,-4,25,206.916,574.842,474.413,-25.6514,75.9991,-27.5651,
2026_07_06_16_58_40.142,3.869,36.8,0,0.764,0,0,0,0, ,0,0,0,0,0, ,94.8,659.6,727.5,-4.4,5.6,1.3,25,201.282,580.811,489.485,-24.5026,71.6665,-25.9676,
2026_07_06_16_58_40.162,3.869,36.8,0,0.765,0,0,0,0, ,0,0,0,0,0, ,72.3,651.2,743.5,-1.5,1.8,1.1,25,194.107,585.357,504.476,-23.1892,67.5248,-24.3121,
2026_07_06_16_58_40.182,3.869,36.8,0,0.766,0,0,0,0, ,0,0,0,0,0, ,72.2,654,748.4,-2.1,-1.7,-2.8,25,186.682,589.454,519.191,-21.8858,63.4131,-22.8824,
2026_07_06_16_58_40.202,3.869,36.8,0,0.764,0,0,0,0, ,0,0,0,0,0, ,99.1,677.3,739.6,-0.9,-3.2,-2.6,25,180.525,594.098,532.891,-20.6436,59.3995,-21.6525,
2026_07_06_16_58_40.221,3.869,36.8,0,0.765,0,0,0,0, ,0,0,0,0,0, ,114.2,677.2,723.9,-2.9,3.5,-2.9,25,176.023,599.165,545.009,-19.5014,55.789,-20.5006,
2026_07_06_16_58_40.242,3.869,36.8,0,0.765,0,0,0,0, ,0,0,0,0,0, ,85.2,655.7,733.3,0.3,4.7,-0.5,25,171.372,603.265,556.196,-18.3922,52.6392,-19.355,
2026_07_06_16_58_40.260,3.869,36.8,0,0.765,0,0,0,0, ,0,0,0,0,0, ,58.3,647.9,753.1,2.9,-2.2,0.5,25,165.302,606.222,567.592,-17.174,49.5077,-18.1755,
2026_07_06_16_58_40.281,3.869,36.8,0,0.763,0,0,0,0, ,0,0,0,0,0, ,71.1,669.1,752.5,-1.5,-4.7,-2.3,25,159.171,609.408,578.878,-16.0848,46.2806,-17.1228,
2026_07_06_16_58_40.300,3.869,36.8,0,0.764,0,0,0,0, ,0,0,0,0,0, ,96.4,665.7,733.5,-4.9,-2.5,0,25,154.575,612.942,588.879,-15.2996,43.241,-16.1495,
2026_07_06_16_58_40.321,3.869,36.8,0,0.765,0,0,0,0, ,0,0,0,0,0, ,107.2,668.3,734.6,-1.8,3.2,2.3,25,151.359,616.236,597.725,-14.5714,40.6273,-15.0953,
2026_07_06_16_58_40.340,3.869,36.8,0,0.763,0,0,0,0, ,0,0,0,0,0, ,78.9,657.1,746.5,-1,4.1,1.8,25,147.806,619.068,606.429,-13.7688,38.374,-14.0505,
2026_07_06_16_58_40.365,3.869,36.8,0,0.765,0,0,0,0, ,0,0,0,0,0, ,62.8,639.4,754.1,-1.7,0.4,-0.9,25,143.117,620.846,615.196,-13.012,36.1727,-13.1669,
2026_07_06_16_58_40.380,3.869,36.8,0,0.764,0,0,0,0, ,0,0,0,0,0, ,60,661.6,763.1,0.1,-7.7,-1.4,25,138.137,622.653,623.935,-12.2679,33.746,-12.4346,
2026_07_06_16_58_40.399,3.869,36.8,0,0.764,0,0,0,0, ,0,0,0,0,0, ,101.8,673.5,731,-1.8,-6.4,-0.1,25,134.649,625.389,631.437,-11.5721,31.26,-11.7226,
2026_07_06_16_58_40.420,3.869,36.8,0,0.764,0,0,0,0, ,0,0,0,0,0, ,115.3,667.9,728,-2.4,3.9,1,25,133.059,628.15,637.413,-10.9949,29.2789,-10.9808,
2026_07_06_16_58_40.438,3.869,36.8,0,0.764,0,0,0,0, ,0,0,0,0,0, ,84.7,654.9,743.5,-1.8,2.4,2.7,25,131.044,630.176,643.405,-10.4528,27.6867,-10.1989,
2026_07_06_16_58_40.459,3.869,36.7,0,0.764,0,0,0,0, ,0,0,0,0,0, ,72.8,646.7,749.8,-0.3,-1.2,1.6,25,127.857,631.433,649.697,-9.87986,26.0361,-9.4464,
2026_07_06_16_58_40.478,3.869,36.7,0,0.764,0,0,0,0, ,0,0,0,0,0, ,68.1,656.8,757.8,-2,-2.1,-1.7,25,124.359,632.671,656.04,-9.34788,24.349,-8.87381,
2026_07_06_16_58_40.498,3.869,36.8,0,0.764,0,0,0,0, ,0,0,0,0,0, ,91.5,663.5,743.8,-2.3,-3.3,-1.2,25,121.644,634.345,661.815,-8.90926,22.7007,-8.42142,
2026_07_06_16_58_40.519,3.869,36.8,0,0.763,0,0,0,0, ,0,0,0,0,0, ,97.5,652.9,732,-1.6,-1.5,-0.5,25,119.99,635.799,666.451,-8.48518,21.1711,-7.96003,
2026_07_06_16_58_40.538,3.869,36.8,0,0.765,0,0,0,0, ,0,0,0,0,0, ,87.8,655.8,740.6,1.1,-0.8,0.7,25,118.324,636.93,670.708,-7.98335,19.8109,-7.46888,
2026_07_06_16_58_40.559,3.869,36.8,0,0.764,0,0,0,0, ,0,0,0,0,0, ,77.5,654.7,755.4,1.8,-1.6,-0.3,25,116.15,638.046,675.418,-7.4085,18.5306,-7.00155,
2026_07_06_16_58_40.577,3.869,36.8,0,0.764,0,0,0,0, ,0,0,0,0,0, ,75.5,659.9,753.5,-0.4,-1,-3.2,25,113.734,639.219,680.234,-6.91439,17.3221,-6.68154,
2026_07_06_16_58_40.597,3.869,36.7,0,0.765,0,0,0,0, ,0,0,0,0,0, ,80.2,654.2,746.4,2.2,-3.8,0,25,111.547,640.306,684.482,-6.4382,16.1203,-6.37188,
2026_07_06_16_58_40.619,3.869,36.8,0,0.765,0,0,0,0, ,0,0,0,0,0, ,78,669.7,748.4,6.1,-3.5,3.7,25,109.57,641.625,688.316,-5.79298,14.9156,-5.87086,
2026_07_06_16_58_40.639,3.869,36.8,0,0.764,0,0,0,0, ,0,0,0,0,0, ,14.4,686,808.4,8.5,-6.7,3.1,25,105.708,643.832,693.806,-4.99513,13.6959,-5.30592,
2026_07_06_16_58_40.656,3.869,36.8,0,0.764,0,0,0,0, ,0,0,0,0,0, ,5.9,740.8,891.8,14.1,-31.2,17.6,25,99.8852,648.072,703.33,-4.00215,11.7065,-4.35188,
2026_07_06_16_58_40.676,3.869,36.7,0,0.764,0,0,0,0, ,0,0,0,0,0, ,12.3,768.1,903.9,20.1,-61.8,36.8,25,94.3529,654.554,715.183,-2.71623,8.15955,-2.42919,
2026_07_06_16_58_40.696,3.869,36.8,0,0.764,0,0,0,0, ,0,0,0,0,0, ,1.5,742,888.1,23.2,-90.6,40.9,25,89.0238,660.678,726.202,-1.23142,3.01889,0.0862586,
2026_07_06_16_58_40.717,3.869,36.8,0,0.764,0,0,0,0, ,0,0,0,0,0, ,28,737.5,866.3,35.2,-125.6,36.1,25,84.4977,665.496,735.403,0.622997,-3.75241,2.4271,
2026_07_06_16_58_40.735,3.869,36.8,0,0.765,0,0,0,0, ,0,0,0,0,0, ,82.6,815.6,879.6,44.9,-159.1,34.5,25,82.7185,672.264,743.785,3.02558,-12.1982,4.43029,
2026_07_06_16_58_40.756,3.869,36.8,0,0.764,0,0,0,0, ,0,0,0,0,0, ,125.4,883.9,836.7,37,-190.4,51.1,25,84.0153,683.079,750.754,5.3366,-22.1037,6.76844,
2026_07_06_16_58_40.775,3.869,36.8,0,0.765,0,0,0,0, ,0,0,0,0,0, ,245.2,841.5,725.5,41.6,-220.7,77.2,25,90.1874,694.025,752.603,7.40624,-33.2825,10.2651,
2026_07_06_16_58_40.796,3.869,36.8,0,0.765,0,0,0,0, ,0,0,0,0,0, ,347.7,780.6,602,51.5,-226.7,95.8,25,102.756,701.156,747.189,9.79157,-44.886,14.9107,
2026_07_06_16_58_40.814,3.869,36.8,0,0.764,0,0,0,0, ,0,0,0,0,0, ,405.1,745.8,529.4,63.5,-236.7,104.9,25,119.432,704.937,736.129,12.6988,-56.27,20.1171,
2026_07_06_16_58_40.836,3.869,36.8,0,0.764,0,0,0,0, ,0,0,0,0,0, ,449.4,734.8,460.2,71.8,-250.1,120.2,25,138.189,707.092,721.423,16.0474,-67.6732,25.7498,
2026_07_06_16_58_40.855,3.869,36.8,0,0.765,0,0,0,0, ,0,0,0,0,0, ,474.6,700.6,344.7,79.2,-250.1,150,25,157.922,707.738,701.986,19.6703,-78.7899,32.4133,
2026_07_06_16_58_40.874,3.869,36.8,0,0.764,0,0,0,0, ,0,0,0,0,0, ,551.8,610.3,230.3,85.1,-250.1,166.4,25,179.571,704.552,676.728,23.4776,-89.2291,40.0784,
2026_07_06_16_58_40.895,3.869,36.8,0,0.764,0,0,0,0, ,0,0,0,0,0, ,664.6,477,135,110,-250.1,161.2,25,205.691,694.747,646.62,27.9914,-99.0321,47.6177,
2026_07_06_16_58_40.916,3.869,36.7,0,0.764,0,0,0,0, ,0,0,0,0,0, ,771.9,450.3,-9.8,110.8,-250.1,145.3,25,236.925,680.665,611.032,33.0132,-108.238,54.0547,
2026_07_06_16_58_40.933,3.869,36.8,0,0.764,0,0,0,0, ,0,0,0,0,0, ,774.6,451.7,-60.7,108.3,-238.4,141.2,25,269.607,666.669,571.649,37.6772,-116.526,59.49,
2026_07_06_16_58_40.956,3.869,36.7,0,0.764,0,0,0,0, ,0,0,0,0,0, ,776.3,400,-150,102.4,-237.5,152.3,25,300.432,651.994,530.394,41.801,-123.925,64.8074,
2026_07_06_16_58_40.973,3.869,36.8,0,0.764,0,0,0,0, ,0,0,0,0,0, ,774.9,316.6,-239.5,112.4,-250.1,167.2,25,329.388,634.097,486.206,45.7984,-131.23,70.593,
2026_07_06_16_58_40.995,3.869,36.8,0,0.764,0,0,0,0, ,0,0,0,0,0, ,791.9,193.8,-327.6,126.7,-249.7,177.5,25,357.054,611.008,439.299,50.2926,-138.462,76.7938,
2026_07_06_16_58_41.013,3.869,36.8,0,0.765,0,0,0,0, ,0,0,0,0,0, ,760.7,110.1,-378,142.1,-236.9,180.9,25,382.602,583.035,391.03,55.4179,-144.85,83.0342,
2026_07_06_16_58_41.034,3.869,36.8,0,0.765,0,0,0,0, ,0,0,0,0,0, ,710.8,55.2,-421.3,154.7,-238.9,181.2,25,404.122,552.542,342.848,61.084,-150.52,89.007,
2026_07_06_16_58_41.052,3.869,36.8,0,0.765,0,0,0,0, ,0,0,0,0,0, ,647.8,27.9,-451,155.9,-244.4,178.1,25,420.89,521.404,295.378,66.8253,-156.074,94.5306,
2026_07_06_16_58_41.073,3.869,36.8,0,0.765,0,0,0,0, ,0,0,0,0,0, ,555.5,-23.1,-479.2,144.9,-250.1,172.9,25,431.905,489.777,249.036,71.9181,-161.63,99.4646,
2026_07_06_16_58_41.092,3.869,36.7,0,0.765,0,0,0,0, ,0,0,0,0,0, ,487.7,-150,-561.6,141.8,-250.1,163.6,25,437.371,454.657,202.149,76.271,-167.021,103.656,
2026_07_06_16_58_41.113,3.869,36.7,0,0.764,0,0,0,0, ,0,0,0,0,0, ,435.5,-244.3,-642.3,142.2,-250.1,149.3,25,438.848,414.938,153.149,80.2764,-172.084,106.873,
2026_07_06_16_58_41.131,3.869,36.8,0,0.765,0,0,0,0, ,0,0,0,0,0, ,437.5,-259.5,-731.6,127.1,-250.1,121.3,25,438.705,374.302,101.956,83.5898,-176.838,108.606,
2026_07_06_16_58_41.152,3.869,36.8,0,0.764,0,0,0,0, ,0,0,0,0,0, ,466.7,-248,-797.4,90.7,-239.2,94.3,25,439.521,336.03,49.1559,85.1321,-180.97,108.557,
2026_07_06_16_58_41.177,3.869,36.8,0,0.764,0,0,0,0, ,0,0,0,0,0, ,473.9,-265.5,-847.2,61.3,-210.8,80.2,25,441.396,299.908,-3.94845,84.5756,-183.653,107.258,
2026_07_06_16_58_41.199,3.869,36.8,0,0.765,0,0,0,0, ,0,0,0,0,0, ,420.7,-330,-906.4,26,-153.6,55.3,25,441.756,263.488,-57.1378,82.0817,-183.564,104.851,
2026_07_06_16_58_41.211,3.869,36.8,0,0.764,0,0,0,0, ,0,0,0,0,0, ,304.4,-412.1,-940.9,10.5,-128.4,38.2,25,436.93,224.821,-109.941,78.192,-180.971,101.31,
2026_07_06_16_58_41.232,3.869,36.8,0,0.765,0,0,0,0, ,0,0,0,0,0, ,262.2,-392.3,-973.7,12.3,-122,30.1,25,427.568,186.612,-161.577,74.1218,-177.572,97.2176,
2026_07_06_16_58_41.251,3.869,36.8,0,0.764,0,0,0,0, ,0,0,0,0,0, ,276.7,-314.9,-1003.2,5.6,-106.8,28.1,25,417.932,153.693,-211.964,70.1504,-173.723,93.0666,
2026_07_06_16_58_41.273,3.869,36.7,0,0.764,0,0,0,0, ,0,0,0,0,0, ,284,-303.3,-1026,-5.1,-79.1,30.1,25,409.549,125.491,-260.875,65.8909,-168.801,89.1687,
2026_07_06_16_58_41.290,3.869,36.7,0,0.765,0,0,0,0, ,0,0,0,0,0, ,226.6,-356,-1029.6,-6.5,-54.8,22.9,25,400.149,97.756,-307.61,61.5222,-162.594,85.3498,
2026_07_06_16_58_41.312,3.869,36.8,0,0.764,0,0,0,0, ,0,0,0,0,0, ,203,-347.2,-1029.4,-0.3,-45.5,19.7,25,388.854,70.3733,-351.6,57.566,-155.742,81.4468,
2026_07_06_16_58_41.330,3.869,36.8,0,0.763,0,0,0,0, ,0,0,0,0,0, ,158.9,-308.8,-1037.5,0,-37,14.5,25,376.185,46.0975,-393.15,54.0489,-148.765,77.5256,
2026_07_06_16_58_41.351,3.869,36.7,0,0.764,0,0,0,0, ,0,0,0,0,0, ,139.6,-291.7,-1033,-8.1,-26.5,9,25,362.356,24.9919,-432.278,50.5085,-141.635,73.5174,
2026_07_06_16_58_41.369,3.869,36.7,0,0.763,0,0,0,0, ,0,0,0,0,0, ,151.8,-328.9,-1034.6,-9.8,-16.8,11.4,25,349.154,4.56007,-468.933,46.8853,-134.323,69.659,
2026_07_06_16_58_41.390,3.869,36.8,0,0.764,0,0,0,0, ,0,0,0,0,0, ,154.7,-337.1,-1016.8,-5.5,-9.7,12.8,25,337.216,-16.01,-502.861,43.562,-126.945,66.1515,
2026_07_06_16_58_41.409,3.869,36.8,0,0.765,0,0,0,0, ,0,0,0,0,0, ,138.1,-321,-1000.4,-4.3,-1.4,8.3,25,325.588,-35.0859,-533.68,40.6089,-119.548,62.7633,
2026_07_06_16_58_41.430,3.869,36.8,0,0.765,0,0,0,0, ,0,0,0,0,0, ,126.4,-303.1,-983.5,-5.6,3.2,4.2,25,313.807,-51.9634,-561.605,37.8326,-112.208,59.3195,
2026_07_06_16_58_41.449,3.869,36.8,0,0.765,0,0,0,0, ,0,0,0,0,0, ,97.9,-303.7,-964.5,-7.8,6.4,1.1,25,301.518,-67.2853,-586.736,35.1189,-105.078,55.8662,
2026_07_06_16_58_41.477,3.869,36.7,0,0.764,0,0,0,0, ,0,0,0,0,0, ,97.9,-322.7,-955.6,-8.6,6.7,-0.7,25,289.11,-82.2707,-609.485,32.4792,-98.2753,52.4741,
2026_07_06_16_58_41.487,3.869,36.7,0,0.764,0,0,0,0, ,0,0,0,0,0, ,112,-317.2,-959.2,-5.3,2,-0.7,25,277.888,-96.7543,-630.686,30.0765,-92.0216,49.2338,
2026_07_06_16_58_41.510,3.869,36.7,0,0.765,0,0,0,0, ,0,0,0,0,0, ,137.3,-300.4,-955.5,-1.3,2.7,-0.8,25,268.55,-109.676,-650.592,28.0426,-86.2708,46.1879,
2026_07_06_16_58_41.528,3.869,36.8,0,0.765,0,0,0,0, ,0,0,0,0,0, ,144.6,-290.1,-956.7,-5.2,9,-2.6,25,260.774,-120.984,-669.209,26.1357,-80.6572,43.2697,
2026_07_06_16_58_41.549,3.869,36.7,0,0.764,0,0,0,0, ,0,0,0,0,0, ,140.6,-276.1,-954.1,-8.2,17.6,-3.1,25,253.573,-130.863,-686.648,24.1348,-74.9317,40.4593,
2026_07_06_16_58_41.566,3.869,36.8,0,0.764,0,0,0,0, ,0,0,0,0,0, ,154.6,-300.2,-968.2,-17.5,23.3,-13.7,25,247.115,-140.448,-703.376,21.881,-69.1194,37.4819,
2026_07_06_16_58_41.590,3.869,36.8,0,0.765,0,0,0,0, ,0,0,0,0,0, ,166.5,-293.7,-960.5,-15.8,31.7,-12.3,25,241.84,-149.985,-719.279,19.533,-63.2316,34.4057,
2026_07_06_16_58_41.606,3.869,36.8,0,0.764,0,0,0,0, ,0,0,0,0,0, ,175.7,-277.2,-959.3,-15.1,31.3,-10.7,25,237.53,-158.24,-733.942,17.4013,-57.4589,31.6083,
2026_07_06_16_58_41.628,3.869,36.8,0,0.764,0,0,0,0, ,0,0,0,0,0, ,212.7,-262.5,-959.4,-17.3,37.9,-15.5,25,234.889,-165.041,-747.678,15.3537,-51.8491,28.8839,
2026_07_06_16_58_41.647,3.869,36.7,0,0.764,0,0,0,0, ,0,0,0,0,0, ,262.9,-256.1,-983.5,-20.4,53.5,-17.6,25,235.067,-170.785,-761.314,13.2694,-45.9047,26.1153,
2026_07_06_16_58_41.670,3.869,36.8,0,0.764,0,0,0,0, ,0,0,0,0,0, ,302.4,-255.7,-1001.8,-24.7,74.3,-21,25,237.966,-175.971,-775.411,11.0866,-39.2135,23.3478,
2026_07_06_16_58_41.686,3.869,36.7,0,0.766,0,0,0,0, ,0,0,0,0,0, ,329.2,-238.6,-985.4,-34.9,97,-26.6,25,242.709,-180.309,-788.707,8.59512,-31.6046,20.4747,
2026_07_06_16_58_41.707,3.869,36.7,0,0.765,0,0,0,0, ,0,0,0,0,0, ,354.8,-222.2,-967.8,-46.9,122.3,-37.5,25,248.76,-183.361,-800.156,5.57901,-22.9969,17.274,
2026_07_06_16_58_41.726,3.869,36.8,0,0.765,0,0,0,0, ,0,0,0,0,0, ,397.8,-212.8,-973.1,-67.8,151.2,-52.2,25,256.532,-185.442,-810.534,1.74427,-13.2623,13.4883,
2026_07_06_16_58_41.748,3.869,36.7,0,0.765,0,0,0,0, ,0,0,0,0,0, ,421.9,-212.2,-955.5,-86.9,180.5,-66.3,25,265.874,-187.091,-819.904,-3.07553,-2.34766,9.05582,
2026_07_06_16_58_41.765,3.869,36.7,0,0.766,0,0,0,0, ,0,0,0,0,0, ,421.9,-234.4,-943.7,-81.2,192.1,-69.4,25,275.382,-189.297,-827.807,-8.00991,9.14805,4.36937,
2026_07_06_16_58_41.788,3.869,36.7,0,0.763,0,0,0,0, ,0,0,0,0,0, ,452,-189.2,-903.9,-69.7,175.6,-61.8,25,285.228,-190.668,-833.657,-12.1195,19.794,0.105614,
2026_07_06_16_58_41.804,3.869,36.7,0,0.765,0,0,0,0, ,0,0,0,0,0, ,536.4,-116.3,-883,-60.8,170.9,-58.7,25,297.962,-188.358,-837.3,-15.3572,29.1452,-3.57231,
2026_07_06_16_58_41.827,3.869,36.8,0,0.765,0,0,0,0, ,0,0,0,0,0, ,594.8,-38.2,-860.9,-69.4,179.9,-65.2,25,314.271,-181.587,-839.412,-18.3884,38.0576,-7.1297,
2026_07_06_16_58_41.844,3.869,36.7,0,0.764,0,0,0,0, ,0,0,0,0,0, ,623.2,-30.7,-838.6,-76.9,183,-70.6,25,332.231,-172.621,-840.042,-21.7254,46.7956,-10.8329,
2026_07_06_16_58_41.865,3.869,36.7,0,0.764,0,0,0,0, ,0,0,0,0,0, ,620.1,-40,-762.5,-62.5,189.3,-65.9,25,349.868,-164.256,-837.635,-24.6489,55.2875,-14.3317,
2026_07_06_16_58_41.883,3.869,36.7,0,0.763,0,0,0,0, ,0,0,0,0,0, ,630.8,-31.1,-694.4,-13.5,173.9,-44.9,25,366.661,-156.413,-830.982,-25.4625,62.9846,-16.8343,
2026_07_06_16_58_41.906,3.869,36.7,0,0.762,0,0,0,0, ,0,0,0,0,0, ,667.2,31.1,-620.7,-37.8,143.7,-48.2,25,383.866,-146.882,-820.413,-25.4739,68.8234,-18.6451,
2026_07_06_16_58_41.923,3.869,36.7,0,0.764,0,0,0,0, ,0,0,0,0,0, ,749.3,52.4,-608.1,-67.8,154.1,-81.4,25,403.633,-135.387,-807.859,-27.1391,73.7031,-21.4577,
2026_07_06_16_58_41.948,3.869,36.7,0,0.765,0,0,0,0, ,0,0,0,0,0, ,811.6,54.8,-601.1,-93.1,178.3,-109.5,25,426.595,-123.87,-795.473,-30.3877,79.3396,-25.9666,
2026_07_06_16_58_41.963,3.869,36.7,0,0.763,0,0,0,0, ,0,0,0,0,0, ,807.6,45.4,-568.9,-107.2,178.6,-117.4,25,449.935,-113.269,-782.648,-34.6388,85.3791,-31.2976,
2026_07_06_16_58_41.987,3.869,36.7,0,0.764,0,0,0,0, ,0,0,0,0,0, ,789.3,60.6,-500.9,-107.6,168.8,-107.4,25,471.172,-103.137,-767.55,-39.0727,90.7612,-36.2398,
2026_07_06_16_58_42.002,3.869,36.8,0,0.764,0,0,0,0, ,0,0,0,0,0, ,809.6,171.5,-411,-88.7,162.1,-106.2,25,491.177,-89.7804,-748.562,-42.6727,95.3125,-40.5396,
2026_07_06_16_58_42.024,3.869,36.8,0,0.763,0,0,0,0, ,0,0,0,0,0, ,845.8,261.2,-339.8,-82.2,175.5,-121.6,25,511.684,-71.1255,-725.823,-45.2795,99.7907,-45.01,
2026_07_06_16_58_42.041,3.869,36.7,0,0.766,0,0,0,0, ,0,0,0,0,0, ,825.5,283.9,-263.6,-91,194.8,-137.7,25,531.425,-50.1828,-699.978,-47.7975,104.992,-50.1677,
2026_07_06_16_58_42.063,3.869,36.7,0,0.764,0,0,0,0, ,0,0,0,0,0, ,783,312.7,-169.9,-80.8,199.7,-136.5,25,548.051,-28.9471,-670.531,-50.1193,110.614,-55.4651,
2026_07_06_16_58_42.082,3.869,36.8,0,0.764,0,0,0,0, ,0,0,0,0,0, ,736.9,351,-86,-62.5,195,-134.2,25,560.963,-6.96107,-637.468,-51.4314,115.9,-60.3331,
2026_07_06_16_58_42.103,3.869,36.6,0,0.762,0,0,0,0, ,0,0,0,0,0, ,719.8,415.4,-18.7,-58.9,193.2,-145,25,571.163,16.8144,-601.812,-51.9962,120.665,-65.1635,
2026_07_06_16_58_42.122,3.869,36.7,0,0.765,0,0,0,0, ,0,0,0,0,0, ,712.8,497,60.4,-59.4,196.8,-157.1,25,580.008,43.5894,-563.868,-52.4321,125.195,-70.3972,
2026_07_06_16_58_42.142,3.869,36.6,0,0.763,0,0,0,0, ,0,0,0,0,0, ,676.8,548,138.7,-68.8,207.1,-164.8,25,587.003,72.773,-523.441,-53.1431,129.872,-75.9152,
2026_07_06_16_58_42.161,3.869,36.7,0,0.765,0,0,0,0, ,0,0,0,0,0, ,630.1,593.1,207.7,-69.6,206.9,-169.8,25,591.052,103.106,-480.99,-54.1216,134.572,-81.484,
2026_07_06_16_58_42.183,3.869,36.7,0,0.765,0,0,0,0, ,0,0,0,0,0, ,591.1,635.2,275,-62.7,199.6,-169.5,25,592.243,134.248,-436.972,-54.8546,138.757,-86.8566,
2026_07_06_16_58_42.200,3.869,36.8,0,0.764,0,0,0,0, ,0,0,0,0,0, ,535.7,678.5,342.8,-57.6,193.8,-162.9,25,590.486,166.094,-391.521,-55.1772,142.288,-91.6916,
2026_07_06_16_58_42.223,3.869,36.8,0,0.765,0,0,0,0, ,0,0,0,0,0, ,498.6,744,411.3,-53.9,184.4,-150.6,25,586.017,199.315,-344.686,-55.2122,145.141,-95.6561,
2026_07_06_16_58_42.240,3.869,36.7,0,0.764,0,0,0,0, ,0,0,0,0,0, ,442,784.5,467.4,-51.3,167.9,-132.4,25,578.965,233.74,-296.909,-55.053,147.03,-98.4497,
2026_07_06_16_58_42.263,3.869,36.7,0,0.765,0,0,0,0, ,0,0,0,0,0, ,401.8,795.2,516.2,-29.1,134.3,-96.1,25,569.394,267.628,-248.847,-54.1479,147.278,-99.4125,
2026_07_06_16_58_42.280,3.869,36.7,0,0.764,0,0,0,0, ,0,0,0,0,0, ,367.3,810,548.5,6.5,88.7,-52.2,25,558.13,300.228,-201.243,-51.5368,145.098,-97.8731,
2026_07_06_16_58_42.304,3.869,36.6,0,0.764,0,0,0,0, ,0,0,0,0,0, ,378.1,849.4,548.3,32.3,50.1,-13.8,25,546.83,332.493,-155.561,-47.2141,140.485,-93.9199,
2026_07_06_16_58_42.320,3.869,36.7,0,0.763,0,0,0,0, ,0,0,0,0,0, ,393.7,893.4,535,38.6,34,2.5,25,537.024,365.332,-113.075,-42.1768,134.487,-88.5409,
2026_07_06_16_58_42.342,3.869,36.7,0,0.764,0,0,0,0, ,0,0,0,0,0, ,382.6,907.9,535.6,18.6,41.9,-3.8,25,527.952,397.953,-73.5646,-37.8638,128.604,-83.1851,
2026_07_06_16_58_42.357,3.869,36.7,0,0.764,0,0,0,0, ,0,0,0,0,0, ,334.2,867.6,536.1,-7,54.3,-22.2,25,517.62,427.8,-36.4284,-35.203,123.698,-78.9082,
2026_07_06_16_58_42.381,3.869,36.7,0,0.765,0,0,0,0, ,0,0,0,0,0, ,298.2,832.3,542.1,-13.3,53,-27.7,25,505.346,453.525,-1.35716,-33.6764,119.43,-75.6201,
2026_07_06_16_58_42.399,3.869,36.7,0,0.764,0,0,0,0, ,0,0,0,0,0, ,276.3,816.7,551,-8.7,46.9,-25.9,25,492.055,476.131,32.0309,-32.2945,115.196,-72.6451,
2026_07_06_16_58_42.423,3.869,36.7,0,0.765,0,0,0,0, ,0,0,0,0,0, ,260.1,804.1,561.7,-3.4,43.4,-20,25,478.414,496.501,63.9816,-30.6953,110.927,-69.6168,
2026_07_06_16_58_42.438,3.869,36.7,0,0.765,0,0,0,0, ,0,0,0,0,0, ,265.9,831.7,584.4,-4.2,41,-18.2,25,465.287,516.086,95.003,-29.0563,106.739,-66.5385,
2026_07_06_16_58_42.462,3.869,36.8,0,0.763,0,0,0,0, ,0,0,0,0,0, ,249.5,819.4,588.3,-11.3,44.4,-19.5,25,452.638,534.944,124.944,-27.758,102.837,-63.6325,
2026_07_06_16_58_42.478,3.869,36.7,0,0.764,0,0,0,0, ,0,0,0,0,0, ,218.6,793,583.1,-15.7,42.1,-20.3,25,439.317,551.474,153.022,-26.8891,99.2059,-60.9675,
2026_07_06_16_58_42.502,3.869,36.7,0,0.764,0,0,0,0, ,0,0,0,0,0, ,234.1,898.5,677.9,-23.3,44.8,-20.3,25,426.34,569.406,182.118,-26.4389,95.8083,-58.4893,
2026_07_06_16_58_42.517,3.869,36.6,0,0.764,0,0,0,0, ,0,0,0,0,0, ,213.3,885.1,665.6,-27.8,41.7,-16.4,25,413.991,589.052,211.955,-26.3847,92.6055,-56.0433,
2026_07_06_16_58_42.541,3.869,36.7,0,0.763,0,0,0,0, ,0,0,0,0,0, ,162.1,782.2,609.4,-22.6,25.7,-11.9,25,400.202,603.957,237.887,-26.3125,89.0159,-53.4905,
2026_07_06_16_58_42.555,3.869,36.6,0,0.764,0,0,0,0, ,0,0,0,0,0, ,177.8,738.2,596.9,-11.6,21.7,-8.7,25,386.171,613.478,260.145,-25.7511,85.0357,-50.8585,
2026_07_06_16_58_42.581,3.869,36.7,0,0.764,0,0,0,0, ,0,0,0,0,0, ,175,760.4,604.1,-5.3,14.4,-7.9,25,373.388,621.755,280.885,-24.6968,80.9538,-48.2651,
2026_07_06_16_58_42.596,3.869,36.7,0,0.764,0,0,0,0, ,0,0,0,0,0, ,185.5,771.2,615.3,-4,4.1,-6.3,25,361.619,630.533,300.922,-23.4752,76.5843,-45.7566,
2026_07_06_16_58_42.622,3.869,36.7,0,0.763,0,0,0,0, ,0,0,0,0,0, ,207,773.6,598.1,-4.8,-2.3,-5.7,25,351.541,639.178,319.556,-22.3128,71.9723,-43.334,
2026_07_06_16_58_42.636,3.869,36.6,0,0.765,0,0,0,0, ,0,0,0,0,0, ,227.6,781.2,576.4,-4.4,-1.5,-7.1,25,343.361,647.601,335.868,-21.2335,67.4707,-41.0833,
2026_07_06_16_58_42.659,3.869,36.7,0,0.765,0,0,0,0, ,0,0,0,0,0, ,234.4,778.8,571.4,-4,3.8,-6.4,25,336.514,655.669,350.373,-20.1955,63.4293,-38.9911,
2026_07_06_16_58_42.675,3.869,36.7,0,0.765,0,0,0,0, ,0,0,0,0,0, ,226.5,774.9,576.7,0,4.4,-3.1,25,330.051,663.053,364.004,-19.0867,59.8139,-36.9045,
2026_07_06_16_58_42.700,3.869,36.7,0,0.764,0,0,0,0, ,0,0,0,0,0, ,218.8,785,586.1,1.6,0.6,-0.6,25,323.506,670.177,377.251,-17.8748,56.3214,-34.7684,
2026_07_06_16_58_42.716,3.869,36.7,0,0.765,0,0,0,0, ,0,0,0,0,0, ,218.8,777.2,581.2,-2,-0.2,-4.3,25,317.126,676.936,389.829,-16.7978,52.9015,-32.799,
2026_07_06_16_58_42.739,3.869,36.7,0,0.763,0,0,0,0, ,0,0,0,0,0, ,237.9,781,573.1,-5.2,1.4,-7.9,25,311.716,683.162,401.244,-15.9935,49.7144,-31.172,
2026_07_06_16_58_42.754,3.869,36.6,0,0.764,0,0,0,0, ,0,0,0,0,0, ,242.1,774.4,563.7,-3,3.7,-4.6,25,307.346,688.923,411.43,-15.2688,46.8403,-29.6534,
2026_07_06_16_58_42.779,3.869,36.7,0,0.764,0,0,0,0, ,0,0,0,0,0, ,227.5,778,580.2,3.9,0.6,2.8,25,302.925,694.241,421.211,-14.3109,44.117,-27.9012,
2026_07_06_16_58_42.794,3.869,36.7,0,0.765,0,0,0,0, ,0,0,0,0,0, ,210.6,787.7,600.8,6.3,-4.9,7,25,297.814,699.641,431.527,-13.1281,41.2976,-25.9024,
2026_07_06_16_58_42.820,3.869,36.7,0,0.764,0,0,0,0, ,0,0,0,0,0, ,201,778.8,596.3,1.4,-5.4,1.6,25,292.207,704.736,441.705,-12.0935,38.4672,-24.0619,
2026_07_06_16_58_42.834,3.869,36.7,0,0.765,0,0,0,0, ,0,0,0,0,0, ,211.6,765.9,585.6,-3.8,-1.8,-6.5,25,286.972,708.856,450.8,-11.4296,35.9037,-22.7449,
2026_07_06_16_58_42.857,3.869,36.6,0,0.764,0,0,0,0, ,0,0,0,0,0, ,231,773.5,575.8,-3,-0.1,-5.7,25,282.97,712.564,458.716,-10.9403,33.6579,-21.7306,
2026_07_06_16_58_42.873,3.869,36.7,0,0.764,0,0,0,0, ,0,0,0,0,0, ,233.3,778.9,573.8,2.3,0.5,0,25,279.873,716.441,465.79,-10.295,31.6191,-20.5801,
2026_07_06_16_58_42.898,3.869,36.7,0,0.764,0,0,0,0, ,0,0,0,0,0, ,219.9,784.3,590,3.4,-1.1,5.1,25,276.627,720.412,472.865,-9.49397,29.674,-19.1706,
2026_07_06_16_58_42.913,3.869,36.6,0,0.764,0,0,0,0, ,0,0,0,0,0, ,205.9,777,593.9,0.8,-2.6,2,25,272.743,724.083,480.122,-8.78746,27.753,-17.7861,
2026_07_06_16_58_42.939,3.869,36.6,0,0.764,0,0,0,0, ,0,0,0,0,0, ,216.5,772.2,582.2,-3.5,-1.8,-5.9,25,268.993,727.161,486.699,-8.33424,25.9278,-16.8211,
2026_07_06_16_58_42.953,3.869,36.6,0,0.764,0,0,0,0, ,0,0,0,0,0, ,240.4,780.6,575.8,-4.5,-1.8,-6.8,25,266.522,730.162,492.323,-8.07012,24.2381,-16.183,
2026_07_06_16_58_42.978,3.869,36.7,0,0.766,0,0,0,0, ,0,0,0,0,0, ,245.6,777.7,565,0,-3,-1,25,265.089,733.147,497.081,-7.71546,22.6148,-15.4345,
2026_07_06_16_58_42.992,3.869,36.6,0,0.765,0,0,0,0, ,0,0,0,0,0, ,236,782.4,572.7,3.8,-3.8,3.9,25,263.609,736.005,501.455,-7.12952,21.0296,-14.4056,
2026_07_06_16_58_43.017,3.869,36.6,0,0.763,0,0,0,0, ,0,0,0,0,0, ,219.8,778,580.5,0.6,-2.3,1.7,25,261.433,738.698,506.034,-6.561,19.5622,-13.3571,
2026_07_06_16_58_43.031,3.869,36.7,0,0.765,0,0,0,0, ,0,0,0,0,0, ,216.7,773.9,584.9,-1.6,-1.7,-3.3,25,258.801,740.968,510.706,-6.19166,18.2483,-12.5919,
2026_07_06_16_58_43.055,3.869,36.7,0,0.765,0,0,0,0, ,0,0,0,0,0, ,226,780.7,581.9,-1.8,-2.1,-3.6,25,256.519,743.182,515.135,-5.91795,17.0205,-12.0348,
2026_07_06_16_58_43.071,3.869,36.6,0,0.765,0,0,0,0, ,0,0,0,0,0, ,233.7,784,576.5,-0.1,-2.3,-1.5,25,254.894,745.569,519.039,-5.61521,15.8492,-11.4569,
2026_07_06_16_58_43.096,3.869,36.6,0,0.765,0,0,0,0, ,0,0,0,0,0, ,235.9,782.9,572.5,0.1,0.2,-0.5,25,253.67,747.877,522.419,-5.27303,14.8194,-10.8196,
2026_07_06_16_58_43.111,3.869,36.6,0,0.763,0,0,0,0, ,0,0,0,0,0, ,226,774.5,580.8,0,2.3,-0.8,25,252.285,749.756,525.724,-4.94866,13.9926,-10.1999,
2026_07_06_16_58_43.136,3.869,36.7,0,0.766,0,0,0,0, ,0,0,0,0,0, ,218,771.7,584.7,-1.8,3,-3.4,25,250.44,751.178,529.199,-4.70195,13.3014,-9.70634,
2026_07_06_16_58_43.151,3.869,36.7,0,0.765,0,0,0,0, ,0,0,0,0,0, ,220.4,774.2,587.7,-0.1,0.1,-1.8,25,248.536,752.505,532.672,-4.47331,12.5853,-9.2733,
2026_07_06_16_58_43.176,3.869,36.7,0,0.766,0,0,0,0, ,0,0,0,0,0, ,229.7,792.4,589.2,-0.4,-1.5,-1.4,25,247.105,754.381,536.071,-4.21595,11.7757,-8.80571,
2026_07_06_16_58_43.190,3.869,36.6,0,0.763,0,0,0,0, ,0,0,0,0,0, ,230.5,782.8,583.7,-2.1,0.1,-3,25,246.069,756.406,539.141,-4.03522,11.0155,-8.40317,
2026_07_06_16_58_43.214,3.869,36.7,0,0.763,0,0,0,0, ,0,0,0,0,0, ,225.9,767.9,572.8,-1.7,0.4,-2.9,25,244.98,757.56,541.524,-3.9051,10.3594,-8.07087,
2026_07_06_16_58_43.229,3.869,36.6,0,0.765,0,0,0,0, ,0,0,0,0,0, ,228.6,780.7,576.5,-2.9,2,-4.3,25,243.899,758.58,543.543,-3.80729,9.80128,-7.79842,
2026_07_06_16_58_43.255,3.869,36.7,0,0.765,0,0,0,0, ,0,0,0,0,0, ,227.1,767.5,579.2,-2.4,3.5,-4.1,25,242.921,759.526,545.634,-3.73677,9.3716,-7.57915,
2026_07_06_16_58_43.268,3.869,36.7,0,0.765,0,0,0,0, ,0,0,0,0,0, ,222.5,781.1,586,0.8,0.2,-0.4,25,241.817,760.426,547.886,-3.55781,8.91325,-7.2544,
2026_07_06_16_58_43.295,3.869,36.6,0,0.764,0,0,0,0, ,0,0,0,0,0, ,218.7,786.4,591.3,1.7,-2.4,1.5,25,240.524,761.848,550.37,-3.26483,8.30307,-6.77882,
2026_07_06_16_58_43.309,3.869,36.6,0,0.763,0,0,0,0, ,0,0,0,0,0, ,214.8,773.8,582.1,-1.7,-1,-2.5,25,239.075,762.96,552.584,-3.06588,7.69351,-6.3962,
2026_07_06_16_58_43.333,3.869,36.7,0,0.763,0,0,0,0, ,0,0,0,0,0, ,221.6,771.2,579.8,-5,1.9,-6.9,25,237.803,763.541,554.313,-3.0832,7.2521,-6.29284,
2026_07_06_16_58_43.348,3.869,36.7,0,0.764,0,0,0,0, ,0,0,0,0,0, ,226.8,776.7,579.4,-3.3,2,-5.4,25,236.974,764.175,555.854,-3.1482,6.92901,-6.28414,
2026_07_06_16_58_43.373,3.869,36.6,0,0.766,0,0,0,0, ,0,0,0,0,0, ,228,780.1,583.8,0,-0.9,-1,25,236.391,765.042,557.422,-3.05691,6.54029,-6.0962,
2026_07_06_16_58_43.388,3.869,36.7,0,0.765,0,0,0,0, ,0,0,0,0,0, ,228.2,781.6,584.1,2.8,-1.8,2.3,25,235.886,766.006,559.039,-2.78531,6.05947,-5.6851,
2026_07_06_16_58_43.415,3.869,36.6,0,0.765,0,0,0,0, ,0,0,0,0,0, ,211.3,769.8,588.9,-0.3,1,-1.6,25,234.902,766.596,560.712,-2.53941,5.66585,-5.31734,
2026_07_06_16_58_43.428,3.869,36.6,0,0.764,0,0,0,0, ,0,0,0,0,0, ,213.7,775.2,588.3,-3.5,1.2,-5.1,25,233.537,766.956,562.412,-2.50045,5.38762,-5.19745,
2026_07_06_16_58_43.451,3.869,36.7,0,0.763,0,0,0,0, ,0,0,0,0,0, ,225.4,772.9,578.7,-3.5,0.7,-4.7,25,232.685,767.388,563.697,-2.56136,5.1172,-5.17933,
2026_07_06_16_58_43.467,3.869,36.6,0,0.764,0,0,0,0, ,0,0,0,0,0, ,224.8,777,585.3,0.4,-1.6,-0.3,25,232.223,767.849,564.812,-2.49973,4.77795,-5.01606,
2026_07_06_16_58_43.495,3.869,36.6,0,0.764,0,0,0,0, ,0,0,0,0,0, ,222.2,782.9,590.8,3,-4.5,3,25,231.691,768.587,566.228,-2.24381,4.30093,-4.62812,
2026_07_06_16_58_43.513,3.869,36.6,0,0.765,0,0,0,0, ,0,0,0,0,0, ,218.5,779.9,586.1,2.9,-4.3,3.2,25,231,769.367,567.582,-1.92731,3.77072,-4.15719,
2026_07_06_16_58_43.546,3.869,36.6,0,0.765,0,0,0,0, ,0,0,0,0,0, ,211.6,767.3,581.7,-1.2,-0.7,-2.5,25,230.028,769.625,568.577,-1.75807,3.3886,-3.88253,
2026_07_06_16_58_43.546,3.869,36.6,0,0.764,0,0,0,0, ,0,0,0,0,0, ,226.3,779.4,580.4,-2.3,1,-4.7,25,229.353,769.852,569.337,-1.75758,3.19125,-3.86532,
2026_07_06_16_58_43.571,3.869,36.7,0,0.765,0,0,0,0, ,0,0,0,0,0, ,230.4,776.8,579.5,-0.4,0.4,-2.1,25,229.292,770.355,569.984,-1.73274,3.03944,-3.83696,
2026_07_06_16_58_43.586,3.869,36.6,0,0.764,0,0,0,0, ,0,0,0,0,0, ,226.6,778.9,585.4,2.3,-2.5,1.3,25,229.244,770.812,570.743,-1.56926,2.79024,-3.62752,
2026_07_06_16_58_43.612,3.869,36.6,0,0.765,0,0,0,0, ,0,0,0,0,0, ,223.2,778.4,586,2.4,-3.4,2,25,228.979,771.289,571.655,-1.33043,2.44044,-3.30592,
2026_07_06_16_58_43.626,3.869,36.6,0,0.764,0,0,0,0, ,0,0,0,0,0, ,220.9,773.9,578.1,-2.4,-0.3,-2.9,25,228.557,771.585,572.288,-1.24936,2.17899,-3.13189,
2026_07_06_16_58_43.651,3.869,36.6,0,0.763,0,0,0,0, ,0,0,0,0,0, ,227.9,765,573.7,-3.6,2.2,-6.1,25,228.303,771.455,572.508,-1.35604,2.1041,-3.21526,
2026_07_06_16_58_43.665,3.869,36.6,0,0.764,0,0,0,0, ,0,0,0,0,0, ,229.1,785.4,585.3,-0.2,-0.5,-1.6,25,228.315,771.684,572.934,-1.38918,2.02768,-3.25394,
2026_07_06_16_58_43.692,3.869,36.7,0,0.764,0,0,0,0, ,0,0,0,0,0, ,223.8,781,584.2,2,-3.1,1.8,25,228.202,772.385,573.654,-1.24969,1.79443,-3.04956,
2026_07_06_16_58_43.705,3.869,36.6,0,0.765,0,0,0,0, ,0,0,0,0,0, ,220.5,775.3,583.2,2.7,-2.9,1.7,25,227.833,772.737,574.266,-1.03033,1.50227,-2.75709,
2026_07_06_16_58_43.729,3.869,36.7,0,0.763,0,0,0,0, ,0,0,0,0,0, ,219.2,776.1,584.7,0.3,-1.8,-1,25,227.346,772.917,574.857,-0.87614,1.26752,-2.56775,
2026_07_06_16_58_43.743,3.869,36.6,0,0.764,0,0,0,0, ,0,0,0,0,0, ,229.2,772.4,576.6,-1.6,1.1,-3.5,25,227.155,772.998,575.21,-0.862359,1.16895,-2.54838,
2026_07_06_16_58_43.768,3.869,36.7,0,0.763,0,0,0,0, ,0,0,0,0,0, ,234.2,774.9,582.8,0.7,0.5,-1.5,25,227.432,773.038,575.483,-0.837231,1.14647,-2.54544,
2026_07_06_16_58_43.784,3.869,36.6,0,0.763,0,0,0,0, ,0,0,0,0,0, ,245.1,783.3,576.5,6.2,-1.3,5.2,25,228.176,773.407,575.737,-0.575978,1.05223,-2.27759,
2026_07_06_16_58_43.808,3.869,36.6,0,0.764,0,0,0,0, ,0,0,0,0,0, ,255.7,754.1,590.9,15.6,-2,15.4,25,229.531,773.121,576.222,0.123339,0.887565,-1.51114,
2026_07_06_16_58_43.824,3.869,36.7,0,0.763,0,0,0,0, ,0,0,0,0,0, ,220.4,785.2,569.3,24.5,-8.6,21.4,25,230.05,772.909,576.459,1.33762,0.51051,-0.297808,
2026_07_06_16_58_43.848,3.869,36.6,0,0.765,0,0,0,0, ,0,0,0,0,0, ,219.4,793.5,608,28.5,-16.4,25.6,25,229.431,773.911,577.202,2.87095,-0.282318,1.15237,
2026_07_06_16_58_43.862,3.869,36.6,0,0.764,0,0,0,0, ,0,0,0,0,0, ,225.2,771.9,603.5,33.2,-18.5,27.9,25,228.997,774.447,578.941,4.57593,-1.32847,2.71223,
2026_07_06_16_58_43.888,3.869,36.6,0,0.763,0,0,0,0, ,0,0,0,0,0, ,250.8,765.9,554.3,41.7,-14.5,29.7,25,229.545,774.109,578.939,6.57919,-2.25299,4.30195,
2026_07_06_16_58_43.901,3.869,36.6,0,0.763,0,0,0,0, ,0,0,0,0,0, ,271.1,798.3,553.8,31.4,-7.4,26.7,25,231.459,774.596,577.422,8.40554,-2.78296,5.75824,
2026_07_06_16_58_43.927,3.869,36.6,0,0.764,0,0,0,0, ,0,0,0,0,0, ,256.7,795.8,554.3,24,-6.3,23.5,25,233.436,775.964,575.998,9.58129,-3.0308,6.93688,
2026_07_06_16_58_43.942,3.869,36.6,0,0.763,0,0,0,0, ,0,0,0,0,0, ,255.9,823.9,533.4,10.7,-19.7,22.6,25,234.829,778.029,574.039,10.0547,-3.6383,7.91877,
2026_07_06_16_58_43.966,3.869,36.6,0,0.765,0,0,0,0, ,0,0,0,0,0, ,286.6,734.2,533.2,6.3,-28.7,19.4,25,237.049,778.091,571.556,9.95996,-4.89127,8.71591,
2026_07_06_16_58_43.981,3.869,36.6,0,0.765,0,0,0,0, ,0,0,0,0,0, ,300.7,796.1,552.4,-2.8,-12.3,17.6,25,240.498,777.302,569.804,9.45966,-5.84243,9.31212,
2026_07_06_16_58_44.012,3.869,36.7,0,0.764,0,0,0,0, ,0,0,0,0,0, ,370.9,741.9,497,-9.2,11.3,11.3,25,246.305,776.797,567.055,8.51759,-5.51688,9.62521,
2026_07_06_16_58_44.022,3.869,36.7,0,0.764,0,0,0,0, ,0,0,0,0,0, ,303.8,779.7,539.6,-8.7,2.4,18.4,25,251.853,775.822,564.084,7.45316,-4.76327,9.9436,
2026_07_06_16_58_44.045,3.869,36.6,0,0.764,0,0,0,0, ,0,0,0,0,0, ,125.4,845.3,577.6,-19.8,-12.1,15.4,25,249.583,778.057,563.75,6.13062,-4.76856,10.3675,
2026_07_06_16_58_44.060,3.869,36.6,0,0.763,0,0,0,0, ,0,0,0,0,0, ,451.1,891.4,525.8,-24.9,-20,-8.7,25,251.939,783.559,563.016,4.39509,-5.45602,9.93988,
2026_07_06_16_58_44.087,3.869,36.6,0,0.763,0,0,0,0, ,0,0,0,0,0, ,407.9,862.6,543.4,-35.7,-19.1,-5.3,25,262.759,789.253,561.284,2.28085,-6.31487,8.9076,
2026_07_06_16_58_44.100,3.869,36.6,0,0.765,0,0,0,0, ,0,0,0,0,0, ,317.7,693.2,578,-35.7,-14.9,5.2,25,268.856,788.561,561.249,-0.0336042,-6.966,8.36175,
2026_07_06_16_58_44.125,3.869,36.6,0,0.764,0,0,0,0, ,0,0,0,0,0, ,416.9,646.1,560.9,-32.5,-18.1,52.7,25,274.855,781.315,561.748,-2.10953,-7.54697,9.61634,
2026_07_06_16_58_44.139,3.869,36.6,0,0.764,0,0,0,0, ,0,0,0,0,0, ,316.2,655.2,547.4,-40.2,-20.4,82.7,25,280.442,773.353,561.285,-4.19605,-8.26013,13.1558,
2026_07_06_16_58_44.165,3.869,36.6,0,0.764,0,0,0,0, ,0,0,0,0,0, ,378.4,673.7,492.6,-50.6,-32.3,105.8,25,284.516,766.716,558.77,-6.70692,-9.36248,18.0975,
2026_07_06_16_58_44.180,3.869,36.6,0,0.763,0,0,0,0, ,0,0,0,0,0, ,473.5,753.7,461.7,-40.5,-63.3,124.9,25,293.135,763.486,553.796,-9.07392,-11.7048,24.0238,
2026_07_06_16_58_44.203,3.869,36.6,0,0.763,0,0,0,0, ,0,0,0,0,0, ,570.3,760.3,479.2,-53.3,-91.4,126.7,25,307.075,763.091,548.717,-11.3789,-15.705,30.2258,
2026_07_06_16_58_44.219,3.869,36.6,0,0.765,0,0,0,0, ,0,0,0,0,0, ,530,719.2,545.1,-37.6,-94.6,101.9,25,321.888,761.668,546.489,-13.4552,-20.4152,35.3491,
2026_07_06_16_58_44.244,3.869,36.6,0,0.765,0,0,0,0, ,0,0,0,0,0, ,607.6,691.7,585.6,-26.7,-65.4,76.8,25,336.934,758.242,547.638,-14.5944,-24.0461,38.6398,
2026_07_06_16_58_44.258,3.869,36.6,0,0.763,0,0,0,0, ,0,0,0,0,0, ,602.7,647.8,513.9,-24.2,-38.8,51.8,25,353.278,752.85,547.767,-15.2559,-25.7557,40.2034,
2026_07_06_16_58_44.284,3.869,36.6,0,0.763,0,0,0,0, ,0,0,0,0,0, ,547.3,577.6,419,-10.1,-52.1,40.9,25,366.79,744.31,542.812,-15.3713,-26.9558,40.578,
2026_07_06_16_58_44.297,3.869,36.6,0,0.763,0,0,0,0, ,0,0,0,0,0, ,587,511.5,329.4,18.5,-92.5,40.3,25,378.999,732.137,532.537,-14.1787,-29.719,40.5793,
2026_07_06_16_58_44.324,3.869,36.5,0,0.764,0,0,0,0, ,0,0,0,0,0, ,705.9,900.3,794.4,-45.2,-43.6,-14.4,25,395.297,730.538,534.326,-14.1282,-32.0547,38.8957,
2026_07_06_16_58_44.338,3.869,36.5,0,0.764,0,0,0,0, ,0,0,0,0,0, ,634.6,654.6,605.5,-66.8,36.2,-46.3,25,412.052,733.397,544.419,-16.6797,-30.3269,34.676,
2026_07_06_16_58_44.364,3.869,36.5,0,0.765,0,0,0,0, ,0,0,0,0,0, ,623.7,488.6,448.2,-45.6,49.7,-56.5,25,425.281,723.537,543.348,-19.088,-25.8616,29.4307,
2026_07_06_16_58_44.377,3.869,36.6,0,0.764,0,0,0,0, ,0,0,0,0,0, ,638.9,473.1,474.8,-28.7,39.1,-44,25,437.835,708.748,538.361,-20.1887,-21.58,24.5752,
2026_07_06_16_58_44.404,3.869,36.6,0,0.764,0,0,0,0, ,0,0,0,0,0, ,599.7,555.9,534.5,-17.9,24.5,-26.6,25,448.893,696.911,536.306,-20.3783,-18.3272,20.9266,
2026_07_06_16_58_44.417,3.869,36.7,0,0.765,0,0,0,0, ,0,0,0,0,0, ,536.8,534.1,544.5,-7.9,26.8,-29.9,25,456.167,687.654,536.501,-19.9226,-15.6473,17.9299,
2026_07_06_16_58_44.446,3.869,36.6,0,0.764,0,0,0,0, ,0,0,0,0,0, ,572.3,535.4,580.3,-6.7,23.4,-28,25,462.162,678.337,538.079,-19.1534,-13.1643,15.0731,
2026_07_06_16_58_44.456,3.869,36.6,0,0.764,0,0,0,0, ,0,0,0,0,0, ,564.8,517.5,641.4,-15.9,22.5,-15.8,25,468.645,669.081,542.514,-18.6748,-10.9636,12.8201,
2026_07_06_16_58_44.492,3.869,36.6,0,0.763,0,0,0,0, ,0,0,0,0,0, ,493.7,500.8,652,-45,46.9,-11.5,25,472.338,659.335,548.863,-19.3924,-8.18093,11.2071,
