UTC_Time,Vin,TC1,TC2,Rh1,Vh1,Ah1,Acp1,Dty1,Err1,Rh2,Vh2,Ah2,Acp2,Dty2,Err2,Accel_x,Accel_y,Accel_z,gyro_x,gyro_y,gyro_z,Temp_c,Accel_x_h,Accel_y_h,Accel_z_h,gyro_x_h,gyro_y_h,gyro_z_h,
2026_06_10_18_52_34.244,3.832,24.5,0,0.754,0,0,0,0.044, ,0,0,0,0,0, ,-40.7,252,970.5,-0.7,-0.4,-1.7,25,-40.6999,251.999,970.497,-0.699998,-0.399999,-1.69999,
2026_06_10_18_52_34.271,3.832,24.5,0,0.754,0,0,0,0.045, ,0,0,0,0,0, ,-39,252.3,970.4,-0.6,-0.4,-1.7,25,-40.6481,252.008,970.494,-0.696951,-0.399999,-1.69999,
2026_06_10_18_52_34.287,3.832,24.5,0,0.754,0,0,0,0.045, ,0,0,0,0,0, ,-40.4,253.2,970.2,-0.6,-0.3,-1.7,25,-40.5903,252.054,970.482,-0.691043,-0.396952,-1.7,
2026_06_10_18_52_34.303,3.832,24.5,0,0.754,0,0,0,0.046, ,0,0,0,0,0, ,-40.8,252.3,970.7,-0.6,-0.3,-1.5,25,-40.5909,252.096,970.48,-0.685495,-0.391044,-1.6939,
2026_06_10_18_52_34.318,3.832,24.5,0,0.755,0,0,0,0.046, ,0,0,0,0,0, ,-40.5,252,970.8,-0.6,-0.4,-1.6,25,-40.5945,252.099,970.497,-0.680285,-0.388543,-1.68513,
2026_06_10_18_52_34.350,3.832,24.5,0,0.754,0,0,0,0.047, ,0,0,0,0,0, ,-41.1,253.6,970.8,-0.6,-0.3,-1.6,25,-40.607,252.142,970.515,-0.675393,-0.386194,-1.67994,
2026_06_10_18_52_34.366,3.832,24.5,0,0.754,0,0,0,0.047, ,0,0,0,0,0, ,-40.6,252.1,971.4,-0.6,-0.4,-1.6,25,-40.6218,252.185,970.551,-0.670799,-0.383989,-1.67507,
2026_06_10_18_52_34.382,3.832,24.6,0,0.754,0,0,0,0.048, ,0,0,0,0,0, ,-39,252.9,970.7,-0.5,-0.3,-1.7,25,-40.5717,252.204,970.581,-0.663437,-0.381917,-1.67355,
2026_06_10_18_52_34.397,3.832,24.5,0,0.755,0,0,0,0.048, ,0,0,0,0,0, ,-40.2,253,970.8,-0.7,-0.3,-1.7,25,-40.5125,252.25,970.591,-0.659572,-0.376926,-1.67516,
2026_06_10_18_52_34.429,3.832,24.6,0,0.754,0,0,0,0.049, ,0,0,0,0,0, ,-39.7,252.8,970.7,-0.5,-0.4,-1.6,25,-40.4782,252.289,970.601,-0.655942,-0.375285,-1.67362,
2026_06_10_18_52_34.446,3.832,24.6,0,0.754,0,0,0,0.049, ,0,0,0,0,0, ,-40.7,251,971.4,-0.7,-0.5,-1.7,25,-40.4613,252.266,970.628,-0.652533,-0.379838,-1.67218,
2026_06_10_18_52_34.461,3.832,24.7,0,0.755,0,0,0,0.049, ,0,0,0,0,0, ,-40.6,251.8,971.9,-0.7,-0.4,-1.7,25,-40.4728,252.213,970.691,-0.655425,-0.384113,-1.67388,
2026_06_10_18_52_34.479,3.832,24.7,0,0.755,0,0,0,0.049, ,0,0,0,0,0, ,-40,252.4,970.9,-0.6,-0.4,-1.6,25,-40.4623,252.206,970.734,-0.655095,-0.385081,-1.67242,
2026_06_10_18_52_34.508,3.868,24.7,0,0.755,3.92,5.192,1.01,0.05, ,0,0,0,0,0, ,-38.5,253.1,972.7,-0.6,-0.3,-1.6,25,-40.3884,252.239,970.799,-0.651737,-0.382944,-1.66801,
2026_06_10_18_52_34.524,3.87,24.7,0,0.754,3.917,5.194,1.01,0.05, ,0,0,0,0,0, ,-39,252.1,971.1,-0.6,-0.4,-1.7,25,-40.2886,252.261,970.866,-0.648584,-0.380936,-1.66691,
2026_06_10_18_52_34.540,3.868,24.7,0,0.756,3.926,5.193,1.03,0.051, ,0,0,0,0,0, ,-39.3,253.6,972.5,-0.5,-0.3,-1.6,25,-40.2192,252.297,970.923,-0.642577,-0.379051,-1.66588,
2026_06_10_18_52_34.556,3.869,24.7,0,0.755,3.916,5.186,1.03,0.051, ,0,0,0,0,0, ,-39.1,252.9,970,-0.6,-0.3,-1.6,25,-40.1571,252.355,970.943,-0.636936,-0.374234,-1.66187,
2026_06_10_18_52_34.589,3.868,24.8,0,0.755,3.919,5.19,1.05,0.052, ,0,0,0,0,0, ,-40.6,251.9,970,-0.5,-0.3,-1.6,25,-40.1384,252.358,970.885,-0.631638,-0.36971,-1.6581,
2026_06_10_18_52_34.605,3.87,24.8,0,0.755,3.919,5.19,1.03,0.051, ,0,0,0,0,0, ,-40.4,251.5,970.9,-0.7,-0.4,-1.6,25,-40.1604,252.318,970.859,-0.62971,-0.368509,-1.65456,
2026_06_10_18_52_34.621,3.869,24.8,0,0.755,3.919,5.19,1.05,0.052, ,0,0,0,0,0, ,-39.7,252.8,971.9,-0.7,-0.3,-1.6,25,-40.1537,252.308,970.892,-0.633993,-0.367381,-1.65123,
2026_06_10_18_52_34.637,3.867,24.8,0,0.756,3.921,5.186,1.05,0.052, ,0,0,0,0,0, ,-40.1,253,970.7,-0.6,-0.4,-1.7,25,-40.1382,252.344,970.917,-0.634969,-0.366322,-1.65116,
2026_06_10_18_52_34.669,3.869,24.9,0,0.755,3.913,5.182,1.07,0.053, ,0,0,0,0,0, ,-41,252.1,969.6,-0.5,-0.4,-1.7,25,-40.1633,252.356,970.87,-0.629791,-0.368374,-1.65413,
2026_06_10_18_52_34.685,3.867,24.9,0,0.755,3.918,5.189,1.07,0.053, ,0,0,0,0,0, ,-40,252.1,970.8,-0.7,-0.3,-1.6,25,-40.1838,252.341,970.829,-0.627976,-0.367255,-1.65388,
2026_06_10_18_52_34.701,3.869,24.9,0,0.754,3.913,5.189,1.07,0.053, ,0,0,0,0,0, ,-40,252.5,971.1,-0.6,-0.3,-1.7,25,-40.1726,252.338,970.837,-0.629318,-0.363156,-1.65365,
2026_06_10_18_52_34.716,3.867,24.9,0,0.756,3.922,5.187,1.09,0.054, ,0,0,0,0,0, ,-40.4,252.8,970.9,-0.6,-0.4,-1.6,25,-40.1743,252.357,970.846,-0.627531,-0.362355,-1.65342,
2026_06_10_18_52_34.748,3.87,24.9,0,0.756,3.915,5.178,1.09,0.054, ,0,0,0,0,0, ,-40.6,253.4,969.7,-0.6,-0.4,-1.7,25,-40.1941,252.402,970.813,-0.625853,-0.364649,-1.65322,
2026_06_10_18_52_34.764,3.868,25,0,0.754,3.912,5.188,1.11,0.055, ,0,0,0,0,0, ,-39.5,251.5,970.2,-0.7,-0.4,-1.6,25,-40.1854,252.405,970.761,-0.627325,-0.366803,-1.65302,
2026_06_10_18_52_34.780,3.87,25,0,0.755,3.918,5.189,1.09,0.054, ,0,0,0,0,0, ,-41.5,253.2,970.5,-0.6,-0.4,-1.7,25,-40.2045,252.402,970.736,-0.628707,-0.368826,-1.65284,
2026_06_10_18_52_34.795,3.868,25,0,0.753,3.911,5.193,1.11,0.055, ,0,0,0,0,0, ,-40.6,252.5,971.1,-0.7,-0.4,-1.6,25,-40.256,252.429,970.739,-0.630004,-0.370725,-1.65266,
2026_06_10_18_52_34.827,3.866,25.1,0,0.755,3.92,5.192,1.11,0.055, ,0,0,0,0,0, ,-39.5,254.1,971.8,-0.7,-0.3,-1.6,25,-40.2435,252.482,970.783,-0.63427,-0.369462,-1.64945,
2026_06_10_18_52_34.843,3.868,25.1,0,0.754,3.91,5.185,1.11,0.055, ,0,0,0,0,0, ,-39,252.3,970.9,-0.7,-0.4,-1.6,25,-40.1829,252.526,970.817,-0.638275,-0.368276,-1.64644,
2026_06_10_18_52_34.858,3.867,25.2,0,0.755,3.916,5.186,1.13,0.056, ,0,0,0,0,0, ,-40.2,252.9,970,-0.6,-0.4,-1.6,25,-40.1474,252.531,970.795,-0.63899,-0.37021,-1.64361,
2026_06_10_18_52_34.874,3.868,25.2,0,0.755,3.914,5.184,1.11,0.055, ,0,0,0,0,0, ,-39.9,252.8,970.4,-0.6,-0.3,-1.6,25,-40.1415,252.55,970.759,-0.636614,-0.368978,-1.64095,
2026_06_10_18_52_34.906,3.866,25.1,0,0.754,3.912,5.188,1.13,0.056, ,0,0,0,0,0, ,-39.1,252.9,970.4,-0.6,-0.3,-1.6,25,-40.1024,252.568,970.737,-0.634382,-0.364775,-1.63846,
2026_06_10_18_52_34.922,3.868,25.2,0,0.754,3.911,5.187,1.15,0.057, ,0,0,0,0,0, ,-39.7,253.4,970.9,-0.7,-0.3,-1.7,25,-40.0596,252.604,970.732,-0.635334,-0.360828,-1.63916,
2026_06_10_18_52_34.939,3.866,25.3,0,0.755,3.915,5.185,1.15,0.057, ,0,0,0,0,0, ,-40,252.4,970.8,-0.6,-0.3,-1.7,25,-40.0468,252.622,970.739,-0.636228,-0.357121,-1.64287,
2026_06_10_18_52_34.965,3.869,25.3,0,0.756,3.915,5.178,1.13,0.056, ,0,0,0,0,0, ,-40.5,252.5,971.8,-0.6,-0.4,-1.6,25,-40.0592,252.611,970.773,-0.63402,-0.356687,-1.6433,
2026_06_10_18_52_34.971,3.867,25.3,0,0.755,3.912,5.181,1.15,0.057, ,0,0,0,0,0, ,-40.6,252.1,969.6,-0.6,-0.4,-1.6,25,-40.0891,252.592,970.769,-0.631947,-0.359326,-1.64066,
2026_06_10_18_52_35.002,3.866,25.3,0,0.755,3.912,5.181,1.15,0.057, ,0,0,0,0,0, ,-40.1,251.8,970.3,-0.6,-0.4,-1.7,25,-40.105,252.553,970.719,-0.63,-0.361805,-1.64123,
2026_06_10_18_52_35.018,3.867,25.4,0,0.755,3.91,5.178,1.17,0.058, ,0,0,0,0,0, ,-40.4,253.4,970.4,-0.6,-0.4,-1.6,25,-40.1138,252.556,970.696,-0.628172,-0.364132,-1.64177,
2026_06_10_18_52_35.036,3.866,25.5,0,0.758,3.92,5.171,1.15,0.057, ,0,0,0,0,0, ,-40.8,253.4,969.9,-0.6,-0.4,-1.6,25,-40.1435,252.607,970.663,-0.626455,-0.366318,-1.63922,
2026_06_10_18_52_35.052,3.868,25.5,0,0.755,3.904,5.17,1.15,0.057, ,0,0,0,0,0, ,-40.5,251.3,970.3,-0.6,-0.4,-1.6,25,-40.1743,252.592,970.629,-0.624843,-0.368371,-1.63683,
2026_06_10_18_52_35.083,3.866,25.5,0,0.755,3.912,5.181,1.17,0.058, ,0,0,0,0,0, ,-39.5,252.4,970.4,-0.7,-0.4,-1.7,25,-40.1637,252.547,970.612,-0.626376,-0.370298,-1.63763,
2026_06_10_18_52_35.105,3.868,25.5,0,0.756,3.913,5.175,1.17,0.058, ,0,0,0,0,0, ,-40.4,252.1,971.6,-0.6,-0.4,-1.5,25,-40.1507,252.529,970.635,-0.627816,-0.372108,-1.63534,
2026_06_10_18_52_35.118,3.869,25.6,0,0.755,3.91,5.178,1.17,0.058, ,0,0,0,0,0, ,-39.7,251.4,972.1,-0.6,-0.3,-1.7,25,-40.1446,252.481,970.709,-0.626121,-0.370761,-1.63319,
2026_06_10_18_52_35.140,3.867,25.6,0,0.754,3.911,5.187,1.17,0.058, ,0,0,0,0,0, ,-41,252.8,970.5,-0.6,-0.4,-1.6,25,-40.1571,252.458,970.745,-0.624529,-0.369496,-1.63421,
2026_06_10_18_52_35.162,3.866,25.6,0,0.756,3.916,5.179,1.19,0.059, ,0,0,0,0,0, ,-41.5,254.3,971,-0.6,-0.3,-1.6,25,-40.2237,252.524,970.746,-0.623034,-0.368308,-1.63213,
2026_06_10_18_52_35.179,3.869,25.7,0,0.758,3.915,5.164,1.19,0.059, ,0,0,0,0,0, ,-41.1,252.4,971.3,-0.6,-0.4,-1.6,25,-40.2893,252.575,970.77,-0.621631,-0.367192,-1.63017,
2026_06_10_18_52_35.194,3.867,25.7,0,0.757,3.91,5.165,1.19,0.059, ,0,0,0,0,0, ,-39.1,252.8,972.4,-0.7,-0.4,-1.6,25,-40.2777,252.576,970.836,-0.623359,-0.369191,-1.62833,
2026_06_10_18_52_35.218,3.866,25.9,0,0.759,3.916,5.159,1.19,0.059, ,0,0,0,0,0, ,-39.4,251,970,-0.6,-0.3,-1.6,25,-40.2151,252.535,970.858,-0.624983,-0.368022,-1.6266,
2026_06_10_18_52_35.242,3.869,25.9,0,0.757,3.905,5.158,1.16,0.058, ,0,0,0,0,0, ,-39.7,253.2,971,-0.6,-0.3,-1.6,25,-40.1746,252.509,970.836,-0.62346,-0.363877,-1.62498,
2026_06_10_18_52_35.258,3.867,25.7,0,0.755,3.908,5.176,1.17,0.058, ,0,0,0,0,0, ,-39,252.4,970.9,-0.6,-0.3,-1.6,25,-40.1243,252.526,970.843,-0.622031,-0.359984,-1.62346,
2026_06_10_18_52_35.274,3.866,26,0,0.758,3.918,5.168,1.21,0.06, ,0,0,0,0,0, ,-39.1,253.6,970.2,-0.6,-0.4,-1.6,25,-40.0589,252.555,970.825,-0.620688,-0.359376,-1.62203,
2026_06_10_18_52_35.290,3.869,26,0,0.758,3.911,5.159,1.17,0.058, ,0,0,0,0,0, ,-40,252.3,968.9,-0.6,-0.4,-1.6,25,-40.0278,252.579,970.748,-0.619428,-0.361851,-1.62069,
2026_06_10_18_52_35.322,3.867,26,0,0.755,3.905,5.172,1.19,0.059, ,0,0,0,0,0, ,-40.7,252,971,-0.7,-0.3,-1.7,25,-40.0475,252.553,970.699,-0.621291,-0.361129,-1.62247,
2026_06_10_18_52_35.338,3.866,26,0,0.758,3.918,5.168,1.19,0.059, ,0,0,0,0,0, ,-39.7,252.4,970.4,-0.5,-0.3,-1.6,25,-40.0568,252.532,970.699,-0.619993,-0.357404,-1.62415,
2026_06_10_18_52_35.354,3.869,26,0,0.759,3.912,5.154,1.18,0.059, ,0,0,0,0,0, ,-38.6,252.8,970.7,-0.6,-0.3,-1.6,25,-40.0015,252.536,970.69,-0.615728,-0.353906,-1.62268,
2026_06_10_18_52_35.370,3.867,26.2,0,0.755,3.902,5.168,1.2,0.06, ,0,0,0,0,0, ,-39,253.4,970.8,-0.6,-0.3,-1.6,25,-39.9283,252.57,970.694,-0.61477,-0.350621,-1.6213,
2026_06_10_18_52_35.402,3.866,26.2,0,0.757,3.916,5.173,1.19,0.059, ,0,0,0,0,0, ,-39.4,253.2,971.3,-0.7,-0.4,-1.6,25,-39.8839,252.615,970.715,-0.616916,-0.350583,-1.62,
2026_06_10_18_52_35.418,3.867,26.2,0,0.755,3.905,5.172,1.19,0.059, ,0,0,0,0,0, ,-38.4,252.1,969.3,-0.6,-0.4,-1.6,25,-39.824,252.617,970.69,-0.618933,-0.353595,-1.61878,
2026_06_10_18_52_35.433,3.865,26.3,0,0.758,3.918,5.168,1.19,0.059, ,0,0,0,0,0, ,-41.1,252.5,971.1,-0.7,-0.4,-1.6,25,-39.8195,252.597,970.66,-0.620826,-0.356422,-1.61764,
2026_06_10_18_52_35.450,3.868,26.3,0,0.758,3.909,5.156,1.18,0.059, ,0,0,0,0,0, ,-40,253.2,970.2,-0.7,-0.4,-1.6,25,-39.864,252.613,970.66,-0.62565,-0.359078,-1.61656,
2026_06_10_18_52_35.481,3.866,26.3,0,0.759,3.914,5.156,1.19,0.059, ,0,0,0,0,0, ,-40.6,252.6,970.4,-0.6,-0.4,-1.6,25,-39.8905,252.63,970.638,-0.627134,-0.361572,-1.61555,
2026_06_10_18_52_35.497,3.868,26.4,0,0.759,3.909,5.15,1.2,0.06, ,0,0,0,0,0, ,-39.7,253,972,-0.6,-0.4,-1.6,25,-39.9064,252.641,970.672,-0.625481,-0.363913,-1.61461,
2026_06_10_18_52_35.519,3.866,26.4,0,0.758,3.909,5.156,1.18,0.059, ,0,0,0,0,0, ,-41,253,970.7,-0.6,-0.3,-1.6,25,-39.9334,252.663,970.713,-0.623928,-0.363066,-1.61372,
2026_06_10_18_52_35.529,3.868,26.4,0,0.758,3.909,5.156,1.2,0.06, ,0,0,0,0,0, ,-41.3,253.5,971.4,-0.6,-0.3,-1.7,25,-40.0075,252.698,970.734,-0.62247,-0.359222,-1.61593,
2026_06_10_18_52_35.545,3.866,26.5,0,0.757,3.908,5.162,1.21,0.06, ,0,0,0,0,0, ,-38.6,253.1,971.5,-0.6,-0.4,-1.6,25,-40.004,252.735,970.777,-0.621101,-0.35866,-1.618,
2026_06_10_18_52_35.577,3.869,26.5,0,0.758,3.912,5.16,1.21,0.06, ,0,0,0,0,0, ,-40.8,253.2,970.7,-0.7,-0.4,-1.7,25,-39.9855,252.76,970.797,-0.622862,-0.36118,-1.61995,
2026_06_10_18_52_35.599,3.866,26.5,0,0.757,3.91,5.165,1.21,0.06, ,0,0,0,0,0, ,-40,251.2,970.5,-0.6,-0.3,-1.6,25,-40.0108,252.726,970.785,-0.624515,-0.360498,-1.62178,
2026_06_10_18_52_35.619,3.865,26.5,0,0.758,3.912,5.16,1.21,0.06, ,0,0,0,0,0, ,-40,251.8,971,-0.6,-0.4,-1.6,25,-40.0101,252.651,970.783,-0.623021,-0.359859,-1.62046,
2026_06_10_18_52_35.625,3.867,26.6,0,0.757,3.905,5.158,1.22,0.061, ,0,0,0,0,0, ,-39,252.8,970.2,-0.6,-0.3,-1.7,25,-39.979,252.63,970.772,-0.621619,-0.359258,-1.62226,
2026_06_10_18_52_35.657,3.865,26.6,0,0.758,3.913,5.162,1.21,0.06, ,0,0,0,0,0, ,-38.8,252.8,970.4,-0.6,-0.3,-1.6,25,-39.9133,252.64,970.743,-0.620301,-0.355647,-1.62395,
2026_06_10_18_52_35.678,3.868,26.6,0,0.758,3.908,5.155,1.2,0.06, ,0,0,0,0,0, ,-40,252.6,970.5,-0.6,-0.4,-1.7,25,-39.882,252.644,970.725,-0.619064,-0.355303,-1.62553,
2026_06_10_18_52_35.689,3.866,26.8,0,0.757,3.908,5.162,1.23,0.061, ,0,0,0,0,0, ,-40.4,252.3,970.8,-0.7,-0.4,-1.7,25,-39.9014,252.632,970.721,-0.620949,-0.358026,-1.63007,
2026_06_10_18_52_35.719,3.868,26.8,0,0.758,3.912,5.16,1.21,0.06, ,0,0,0,0,0, ,-39.4,253.5,970.5,-0.6,-0.3,-1.7,25,-39.9013,252.649,970.716,-0.62272,-0.357537,-1.63433,
2026_06_10_18_52_35.737,3.866,26.8,0,0.757,3.908,5.162,1.21,0.06, ,0,0,0,0,0, ,-39,252.5,970.2,-0.6,-0.4,-1.7,25,-39.8585,252.67,970.694,-0.621335,-0.357078,-1.63834,
2026_06_10_18_52_35.753,3.865,26.8,0,0.758,3.912,5.16,1.21,0.06, ,0,0,0,0,0, ,-40.7,253.1,971,-0.6,-0.3,-1.7,25,-39.858,252.678,970.688,-0.620035,-0.356647,-1.64209,
2026_06_10_18_52_35.768,3.867,26.8,0,0.758,3.908,5.155,1.2,0.06, ,0,0,0,0,0, ,-38.3,253.2,969.8,-0.7,-0.5,-1.6,25,-39.8362,252.707,970.671,-0.621861,-0.359289,-1.64257,
2026_06_10_18_52_35.786,3.865,26.9,0,0.759,3.912,5.154,1.22,0.061, ,0,0,0,0,0, ,-39.7,252,970.9,-0.6,-0.3,-1.6,25,-39.7853,252.7,970.651,-0.623576,-0.361769,-1.63998,
2026_06_10_18_52_35.818,3.868,27,0,0.759,3.908,5.148,1.2,0.06, ,0,0,0,0,0, ,-39,252.8,969.8,-0.6,-0.3,-1.6,25,-39.7587,252.682,970.633,-0.622139,-0.358005,-1.63754,
2026_06_10_18_52_35.833,3.866,27,0,0.757,3.906,5.159,1.2,0.06, ,0,0,0,0,0, ,-38.9,252,970.5,-0.7,-0.4,-1.6,25,-39.7094,252.665,970.603,-0.623837,-0.357518,-1.63526,
2026_06_10_18_52_35.849,3.865,27,0,0.759,3.914,5.156,1.21,0.06, ,0,0,0,0,0, ,-40.6,252.8,970.2,-0.6,-0.4,-1.6,25,-39.7119,252.649,970.588,-0.625431,-0.360106,-1.63311,
2026_06_10_18_52_35.865,3.866,27,0,0.757,3.903,5.155,1.2,0.06, ,0,0,0,0,0, ,-39.1,252,970.4,-0.7,-0.3,-1.7,25,-39.7203,252.633,970.57,-0.626928,-0.35949,-1.63414,
2026_06_10_18_52_35.896,3.866,27,0,0.759,3.914,5.156,1.23,0.061, ,0,0,0,0,0, ,-39.5,253.4,969.9,-0.6,-0.3,-1.6,25,-39.6947,252.637,970.545,-0.628334,-0.355865,-1.6351,
2026_06_10_18_52_35.914,3.868,27.1,0,0.759,3.908,5.148,1.22,0.061, ,0,0,0,0,0, ,-39.7,252.9,970.9,-0.6,-0.3,-1.7,25,-39.6889,252.669,970.536,-0.626608,-0.352461,-1.63601,
2026_06_10_18_52_35.928,3.866,27.2,0,0.758,3.908,5.155,1.22,0.061, ,0,0,0,0,0, ,-40.2,253.6,970.8,-0.6,-0.3,-1.7,25,-39.7049,252.704,970.555,-0.624986,-0.349264,-1.63991,
2026_06_10_18_52_35.944,3.868,27.2,0,0.758,3.909,5.156,1.2,0.06, ,0,0,0,0,0, ,-40.8,252.5,971.1,-0.7,-0.5,-1.6,25,-39.7533,252.725,970.579,-0.626511,-0.352356,-1.64053,
2026_06_10_18_52_35.975,3.867,27.2,0,0.757,3.908,5.162,1.21,0.06, ,0,0,0,0,0, ,-39.4,252.5,970.9,-0.6,-0.4,-1.6,25,-39.7744,252.711,970.605,-0.627942,-0.358306,-1.63806,
2026_06_10_18_52_35.991,3.866,27.3,0,0.76,3.917,5.153,1.23,0.061, ,0,0,0,0,0, ,-39.9,251.2,971.8,-0.7,-0.3,-1.6,25,-39.7669,252.659,970.65,-0.629286,-0.3578,-1.63574,
2026_06_10_18_52_36.008,3.868,27.3,0,0.758,3.904,5.15,1.2,0.06, ,0,0,0,0,0, ,-39.5,252.3,970.8,-0.6,-0.4,-1.6,25,-39.7628,252.604,970.69,-0.630548,-0.357325,-1.63356,
2026_06_10_18_52_36.023,3.867,27.3,0,0.76,3.916,5.152,1.21,0.06, ,0,0,0,0,0, ,-38.9,253.1,970.5,-0.6,-0.3,-1.6,25,-39.7285,252.609,970.687,-0.628687,-0.356878,-1.63151,
2026_06_10_18_52_36.055,3.865,27.5,0,0.759,3.907,5.147,1.22,0.061, ,0,0,0,0,0, ,-40.2,253.2,971,-0.6,-0.4,-1.6,25,-39.7176,252.642,970.691,-0.626939,-0.356459,-1.62959,
2026_06_10_18_52_36.071,3.867,27.5,0,0.758,3.906,5.153,1.18,0.059, ,0,0,0,0,0, ,-40.2,253.2,971.6,-0.7,-0.4,-1.6,25,-39.747,252.676,970.728,-0.628344,-0.359112,-1.62779,
2026_06_10_18_52_36.087,3.865,27.5,0,0.758,3.911,5.159,1.19,0.059, ,0,0,0,0,0, ,-39.7,253,972,-0.6,-0.4,-1.6,25,-39.7594,252.702,970.794,-0.629664,-0.361604,-1.6261,
2026_06_10_18_52_36.103,3.868,27.6,0,0.758,3.908,5.155,1.2,0.06, ,0,0,0,0,0, ,-39.5,253.5,970.8,-0.7,-0.4,-1.7,25,-39.7497,252.736,970.831,-0.630903,-0.363944,-1.62755,
2026_06_10_18_52_36.135,3.867,27.7,0,0.759,3.914,5.156,1.19,0.059, ,0,0,0,0,0, ,-39.9,253.6,971.5,-0.6,-0.3,-1.6,25,-39.7466,252.785,970.85,-0.632067,-0.363094,-1.62892,
2026_06_10_18_52_36.151,3.865,27.6,0,0.759,3.911,5.152,1.18,0.059, ,0,0,0,0,0, ,-39,252.3,970.8,-0.6,-0.3,-1.6,25,-39.7286,252.795,970.868,-0.630113,-0.359249,-1.62716,
2026_06_10_18_52_36.167,3.866,27.7,0,0.758,3.906,5.153,1.2,0.06, ,0,0,0,0,0, ,-38.9,251.8,970.8,-0.7,-0.3,-1.6,25,-39.6811,252.75,970.864,-0.631324,-0.355639,-1.6255,
2026_06_10_18_52_36.183,3.866,27.8,0,0.758,3.91,5.158,1.18,0.059, ,0,0,0,0,0, ,-40.1,252.6,971.1,-0.6,-0.3,-1.6,25,-39.6701,252.716,970.869,-0.632462,-0.352248,-1.62395,
2026_06_10_18_52_36.215,3.869,27.8,0,0.759,3.913,5.155,1.17,0.058, ,0,0,0,0,0, ,-38.6,251.8,971.1,-0.6,-0.4,-1.6,25,-39.6506,252.685,970.883,-0.630484,-0.352111,-1.62249,
2026_06_10_18_52_36.231,3.867,27.9,0,0.758,3.91,5.158,1.18,0.059, ,0,0,0,0,0, ,-40.5,252.8,971.5,-0.6,-0.4,-1.6,25,-39.6444,252.661,970.909,-0.628627,-0.355029,-1.62112,
2026_06_10_18_52_36.247,3.866,27.9,0,0.76,3.917,5.153,1.17,0.058, ,0,0,0,0,0, ,-40.1,252.6,970.2,-0.6,-0.3,-1.6,25,-39.6844,252.664,970.905,-0.626882,-0.354723,-1.61983,
2026_06_10_18_52_36.263,3.869,27.9,0,0.759,3.908,5.148,1.16,0.058, ,0,0,0,0,0, ,-39.1,253.1,969.7,-0.6,-0.3,-1.6,25,-39.6793,252.675,970.847,-0.625244,-0.351388,-1.61862,
2026_06_10_18_52_36.278,3.867,28,0,0.758,3.91,5.158,1.18,0.059, ,0,0,0,0,0, ,-39.1,253.2,970.4,-0.6,-0.4,-1.7,25,-39.644,252.704,970.798,-0.623706,-0.351304,-1.62054,
2026_06_10_18_52_36.310,3.866,27.9,0,0.758,3.912,5.16,1.17,0.058, ,0,0,0,0,0, ,-39.1,251.8,969.9,-0.6,-0.4,-1.6,25,-39.6108,252.692,970.759,-0.622261,-0.354271,-1.62233,
2026_06_10_18_52_36.326,3.869,28,0,0.759,3.912,5.154,1.18,0.059, ,0,0,0,0,0, ,-39.9,252,971.9,-0.6,-0.3,-1.6,25,-39.6041,252.643,970.768,-0.620905,-0.354011,-1.62097,
2026_06_10_18_52_36.342,3.867,28.1,0,0.759,3.914,5.156,1.17,0.058, ,0,0,0,0,0, ,-39.3,252.3,971.1,-0.6,-0.4,-1.7,25,-39.6038,252.613,970.812,-0.619631,-0.353766,-1.62274,
2026_06_10_18_52_36.373,3.869,28.1,0,0.759,3.911,5.152,1.16,0.058, ,0,0,0,0,0, ,-39.9,252.4,969.4,-0.7,-0.3,-1.6,25,-39.6036,252.597,970.778,-0.621481,-0.353537,-1.6244,
2026_06_10_18_52_36.395,3.867,28.2,0,0.759,3.914,5.156,1.17,0.058, ,0,0,0,0,0, ,-40.7,253.2,971.9,-0.6,-0.4,-1.6,25,-39.646,252.61,970.77,-0.623219,-0.353321,-1.62291,
2026_06_10_18_52_36.405,3.866,28.2,0,0.76,3.915,5.151,1.14,0.057, ,0,0,0,0,0, ,-40.1,253.6,971.3,-0.6,-0.3,-1.6,25,-39.692,252.658,970.821,-0.621804,-0.353119,-1.62152,
2026_06_10_18_52_36.420,3.869,28.2,0,0.758,3.906,5.153,1.14,0.057, ,0,0,0,0,0, ,-40.1,253,971.9,-0.7,-0.4,-1.7,25,-39.7168,252.697,970.868,-0.623523,-0.352929,-1.62325,
2026_06_10_18_52_36.452,3.867,28.3,0,0.758,3.914,5.163,1.17,0.058, ,0,0,0,0,0, ,-40.5,253.9,971.4,-0.6,-0.4,-1.7,25,-39.7524,252.743,970.916,-0.625136,-0.355797,-1.62793,
2026_06_10_18_52_36.468,3.869,28.3,0,0.761,3.92,5.151,1.15,0.057, ,0,0,0,0,0, ,-39.7,252.4,971.1,-0.6,-0.4,-1.6,25,-39.7735,252.768,970.936,-0.623604,-0.358491,-1.62928,
2026_06_10_18_52_36.484,3.866,28.3,0,0.758,3.907,5.154,1.14,0.057, ,0,0,0,0,0, ,-40.2,253.6,971,-0.7,-0.4,-1.7,25,-39.7843,252.782,970.943,-0.625213,-0.36102,-1.63054,
2026_06_10_18_52_36.502,3.866,28.4,0,0.76,3.917,5.153,1.15,0.057, ,0,0,0,0,0, ,-38.9,251.9,968.9,-0.7,-0.3,-1.6,25,-39.77,252.78,970.883,-0.62977,-0.360349,-1.63172,
2026_06_10_18_52_36.521,3.868,28.4,0,0.759,3.909,5.15,1.14,0.057, ,0,0,0,0,0, ,-39.9,253.7,971.8,-0.6,-0.3,-1.7,25,-39.7475,252.781,970.85,-0.631003,-0.356671,-1.63284,
2026_06_10_18_52_36.548,3.867,28.5,0,0.758,3.911,5.159,1.15,0.057, ,0,0,0,0,0, ,-38.4,252.6,970.7,-0.6,-0.4,-1.7,25,-39.7111,252.804,970.875,-0.629114,-0.356265,-1.63693,
2026_06_10_18_52_36.564,3.866,28.5,0,0.759,3.916,5.159,1.13,0.056, ,0,0,0,0,0, ,-39.6,252.4,971.6,-0.6,-0.4,-1.6,25,-39.6677,252.785,970.891,-0.62734,-0.35893,-1.63773,
2026_06_10_18_52_36.580,3.868,28.6,0,0.76,3.915,5.151,1.12,0.056, ,0,0,0,0,0, ,-40.8,253.1,970.3,-0.6,-0.4,-1.6,25,-39.7002,252.783,970.895,-0.625674,-0.361433,-1.63543,
2026_06_10_18_52_36.596,3.866,28.5,0,0.759,3.912,5.154,1.12,0.056, ,0,0,0,0,0, ,-40.4,252.9,969.3,-0.7,-0.3,-1.7,25,-39.755,252.796,970.828,-0.627156,-0.360736,-1.63632,
2026_06_10_18_52_36.628,3.868,28.7,0,0.759,3.911,5.152,1.14,0.057, ,0,0,0,0,0, ,-42.3,253.4,971.4,-0.6,-0.4,-1.6,25,-39.8522,252.818,970.799,-0.628548,-0.360082,-1.63715,
2026_06_10_18_52_36.644,3.866,28.7,0,0.759,3.915,5.158,1.11,0.055, ,0,0,0,0,0, ,-40.7,251.7,970.3,-0.6,-0.4,-1.7,25,-39.9526,252.801,970.802,-0.626808,-0.362514,-1.63793,
2026_06_10_18_52_36.660,3.865,28.7,0,0.759,3.913,5.155,1.1,0.055, ,0,0,0,0,0, ,-38.5,251.9,970.8,-0.6,-0.4,-1.7,25,-39.9311,252.74,970.787,-0.625175,-0.364799,-1.64171,
2026_06_10_18_52_36.676,3.867,28.7,0,0.759,3.912,5.154,1.1,0.055, ,0,0,0,0,0, ,-40.1,252.3,969.7,-0.6,-0.3,-1.7,25,-39.8927,252.701,970.754,-0.623641,-0.363897,-1.64527,
2026_06_10_18_52_36.708,3.866,28.8,0,0.761,3.918,5.148,1.12,0.056, ,0,0,0,0,0, ,-40,251.8,971.1,-0.6,-0.4,-1.6,25,-39.9023,252.662,970.732,-0.6222,-0.36305,-1.64556,
2026_06_10_18_52_36.724,3.866,28.8,0,0.758,3.906,5.153,1.1,0.055, ,0,0,0,0,0, ,-40.8,252.4,969.4,-0.6,-0.3,-1.6,25,-39.9326,252.627,970.703,-0.620847,-0.362255,-1.64278,
2026_06_10_18_52_36.740,3.866,28.8,0,0.759,3.916,5.159,1.11,0.055, ,0,0,0,0,0, ,-40.5,252.8,971.3,-0.6,-0.3,-1.6,25,-39.9763,252.626,970.682,-0.619577,-0.358461,-1.64017,
2026_06_10_18_52_36.756,3.868,28.9,0,0.759,3.913,5.155,1.1,0.055, ,0,0,0,0,0, ,-40,252.5,970.7,-0.6,-0.4,-1.6,25,-39.993,252.627,970.701,-0.618384,-0.357945,-1.63772,
2026_06_10_18_52_36.788,3.867,28.8,0,0.759,3.916,5.159,1.09,0.054, ,0,0,0,0,0, ,-39.6,252,970.4,-0.6,-0.4,-1.6,25,-39.9812,252.604,970.692,-0.617264,-0.360508,-1.63543,
2026_06_10_18_52_36.803,3.866,29.1,0,0.759,3.914,5.156,1.11,0.055, ,0,0,0,0,0, ,-38.3,251.9,971,-0.6,-0.4,-1.6,25,-39.9184,252.564,970.692,-0.616212,-0.362915,-1.63327,
2026_06_10_18_52_36.822,3.868,28.9,0,0.76,3.917,5.153,1.06,0.053, ,0,0,0,0,0, ,-40.2,252.8,970.8,-0.6,-0.3,-1.7,25,-39.8777,252.551,970.705,-0.615224,-0.362128,-1.63429,
2026_06_10_18_52_36.836,3.867,29.1,0,0.759,3.913,5.155,1.1,0.055, ,0,0,0,0,0, ,-39.6,254.3,969.2,-0.6,-0.3,-1.7,25,-39.879,252.612,970.662,-0.614296,-0.358342,-1.63829,
2026_06_10_18_52_36.868,3.865,29.1,0,0.76,3.918,5.155,1.07,0.053, ,0,0,0,0,0, ,-41.6,252.6,971,-0.6,-0.3,-1.7,25,-39.9229,252.663,970.628,-0.613425,-0.354787,-1.64205,
2026_06_10_18_52_36.884,3.867,29.2,0,0.759,3.911,5.152,1.06,0.053, ,0,0,0,0,0, ,-40.6,253,970.2,-0.6,-0.4,-1.7,25,-39.9947,252.672,970.626,-0.612607,-0.354495,-1.64558,
2026_06_10_18_52_36.900,3.865,29.2,0,0.759,3.916,5.159,1.07,0.053, ,0,0,0,0,0, ,-38.4,253,970.2,-0.6,-0.3,-1.6,25,-39.9645,252.692,970.6,-0.611839,-0.354221,-1.64585,
2026_06_10_18_52_36.922,3.868,29.3,0,0.76,3.917,5.153,1.06,0.053, ,0,0,0,0,0, ,-40.5,253.2,970,-0.6,-0.4,-1.6,25,-39.9332,252.716,970.57,-0.611117,-0.353964,-1.64306,
2026_06_10_18_52_36.947,3.866,29.2,0,0.759,3.915,5.158,1.05,0.052, ,0,0,0,0,0, ,-39.3,254.7,970.4,-0.6,-0.4,-1.7,25,-39.9312,252.792,970.547,-0.61044,-0.356769,-1.64348,
2026_06_10_18_52_36.963,3.865,29.3,0,0.76,3.917,5.153,1.06,0.053, ,0,0,0,0,0, ,-39.6,253.2,969.7,-0.7,-0.3,-1.7,25,-39.9018,252.862,970.517,-0.61285,-0.356357,-1.64692,
2026_06_10_18_52_36.979,3.866,29.4,0,0.759,3.912,5.154,1.04,0.052, ,0,0,0,0,0, ,-40.8,254,970.3,-0.7,-0.4,-1.6,25,-39.92,252.907,970.485,-0.618161,-0.355969,-1.64711,
2026_06_10_18_52_36.995,3.865,29.4,0,0.759,3.917,5.16,1.03,0.051, ,0,0,0,0,0, ,-39.5,251.8,970,-0.7,-0.4,-1.7,25,-39.934,252.907,970.465,-0.623148,-0.358652,-1.64729,
2026_06_10_18_52_37.027,3.867,29.4,0,0.76,3.919,5.156,1.03,0.051, ,0,0,0,0,0, ,-39.3,254.3,969.7,-0.6,-0.4,-1.6,25,-39.9015,252.915,970.427,-0.624784,-0.361172,-1.64745,
2026_06_10_18_52_37.045,3.866,29.5,0,0.761,3.92,5.151,1.04,0.052, ,0,0,0,0,0, ,-39.9,253.7,970.9,-0.7,-0.4,-1.6,25,-39.8831,252.982,970.42,-0.626321,-0.363538,-1.64456,
2026_06_10_18_52_37.059,3.868,29.5,0,0.763,3.922,5.14,1.02,0.051, ,0,0,0,0,0, ,-40.8,252.9,969.1,-0.6,-0.4,-1.6,25,-39.9116,253.001,970.394,-0.627764,-0.36576,-1.64185,
2026_06_10_18_52_37.075,3.867,29.5,0,0.76,3.911,5.146,1.02,0.051, ,0,0,0,0,0, ,-39.4,253.1,970.7,-0.7,-0.4,-1.7,25,-39.923,253.001,970.364,-0.629119,-0.367846,-1.64234,
2026_06_10_18_52_37.095,3.866,29.6,0,0.76,3.918,5.155,1.03,0.051, ,0,0,0,0,0, ,-40.7,253.1,968.7,-0.6,-0.4,-1.6,25,-39.9308,253.007,970.323,-0.630391,-0.369806,-1.64281,
2026_06_10_18_52_37.123,3.868,29.7,0,0.76,3.918,5.155,1,0.05, ,0,0,0,0,0, ,-39.1,251.5,971.9,-0.6,-0.4,-1.6,25,-39.9289,252.964,970.322,-0.628539,-0.371646,-1.6402,
2026_06_10_18_52_37.138,3.868,29.6,0,0.759,0,0,0,0.049, ,0,0,0,0,0, ,-39,251,971.9,-0.6,-0.3,-1.7,25,-39.8753,252.859,970.418,-0.6268,-0.370327,-1.6408,
2026_06_10_18_52_37.155,3.866,29.7,0,0.759,3.918,5.162,1.01,0.05, ,0,0,0,0,0, ,-39.5,251.3,972.6,-0.5,-0.3,-1.7,25,-39.8372,252.755,970.53,-0.62212,-0.366041,-1.64441,
2026_06_10_18_52_37.171,3.866,29.7,0,0.759,0,0,0,0.049, ,0,0,0,0,0, ,-40.2,253.1,970.8,-0.6,-0.3,-1.7,25,-39.838,252.721,970.601,-0.617725,-0.362017,-1.64779,
2026_06_10_18_52_37.204,3.866,29.8,0,0.76,0,0,0,0.049, ,0,0,0,0,0, ,-40.6,254.6,968.9,-0.5,-0.3,-1.6,25,-39.8723,252.79,970.555,-0.613598,-0.358238,-1.64793,
2026_06_10_18_52_37.223,3.866,29.8,0,0.76,0,0,0,0.049, ,0,0,0,0,0, ,-41.1,253.9,969.7,-0.7,-0.3,-1.7,25,-39.9318,252.879,970.479,-0.61277,-0.354689,-1.64805,
2026_06_10_18_52_37.234,3.866,29.8,0,0.759,0,0,0,0.049, ,0,0,0,0,0, ,-41.6,253.1,969.4,-0.6,-0.4,-1.6,25,-40.0183,252.917,970.422,-0.615038,-0.354403,-1.64817,
2026_06_10_18_52_37.264,3.866,29.8,0,0.76,0,0,0,0.049, ,0,0,0,0,0, ,-41,253,970.5,-0.6,-0.3,-1.7,25,-40.0964,252.925,970.394,-0.614122,-0.354135,-1.64828,
2026_06_10_18_52_37.282,3.866,29.8,0,0.759,0,0,0,0.049, ,0,0,0,0,0, ,-39.3,254.1,970,-0.7,-0.4,-1.7,25,-40.0996,252.963,970.385,-0.616308,-0.353883,-1.65144,
2026_06_10_18_52_37.298,3.866,29.9,0,0.76,0,0,0,0.049, ,0,0,0,0,0, ,-39.5,254.6,969.2,-0.6,-0.3,-1.7,25,-40.057,253.048,970.337,-0.618361,-0.353646,-1.6544,
2026_06_10_18_52_37.324,3.866,29.9,0,0.761,0,0,0,0.048, ,0,0,0,0,0, ,-40,253.1,971,-0.6,-0.4,-1.7,25,-40.0383,253.097,970.322,-0.617243,-0.353424,-1.65717,
2026_06_10_18_52_37.343,3.866,30,0,0.76,0,0,0,0.048, ,0,0,0,0,0, ,-40.8,253.2,970.3,-0.7,-0.4,-1.7,25,-40.0603,253.1,970.342,-0.619239,-0.356262,-1.65978,
2026_06_10_18_52_37.363,3.866,30.1,0,0.76,0,0,0,0.047, ,0,0,0,0,0, ,-38.3,251.5,970.4,-0.7,-0.4,-1.7,25,-40.0292,253.054,970.343,-0.62416,-0.358928,-1.66223,
2026_06_10_18_52_37.383,3.866,30.1,0,0.76,0,0,0,0, ,0,0,0,0,0, ,-40.5,251.2,971.1,-0.6,-0.3,-1.6,25,-39.9909,252.95,970.368,-0.625735,-0.358384,-1.66149,
2026_06_10_18_52_37.403,3.866,30.1,0,0.76,0,0,0,0, ,0,0,0,0,0, ,-39.7,253.5,969.2,-0.6,-0.3,-1.6,25,-39.9975,252.914,970.354,-0.624167,-0.354826,-1.65774,
2026_06_10_18_52_37.424,3.866,30.1,0,0.76,0,0,0,0, ,0,0,0,0,0, ,-41,254,969.8,-0.5,-0.3,-1.6,25,-40.019,252.965,970.302,-0.619647,-0.351485,-1.65422,
2026_06_10_18_52_37.442,3.866,30.1,0,0.759,0,0,0,0, ,0,0,0,0,0, ,-40.7,255.2,968.2,-0.6,-0.3,-1.7,25,-40.0697,253.064,970.223,-0.615403,-0.348347,-1.65397,
2026_06_10_18_52_37.462,3.866,30.1,0,0.76,0,0,0,0, ,0,0,0,0,0, ,-40.5,251.8,970.9,-0.6,-0.4,-1.7,25,-40.102,253.091,970.182,-0.614464,-0.348448,-1.65677,
2026_06_10_18_52_37.482,3.866,30.2,0,0.76,0,0,0,0, ,0,0,0,0,0, ,-40.7,251.7,970,-0.7,-0.4,-1.6,25,-40.1323,253.009,970.198,-0.61663,-0.35159,-1.65636,
2026_06_10_18_52_37.502,3.866,30.1,0,0.759,0,0,0,0, ,0,0,0,0,0, ,-39.7,251.3,971.6,-0.7,-0.3,-1.6,25,-40.1364,252.917,970.235,-0.62171,-0.351493,-1.65292,
2026_06_10_18_52_37.522,3.866,30.2,0,0.76,0,0,0,0, ,0,0,0,0,0, ,-40,251.8,969.6,-0.5,-0.4,-1.6,25,-40.119,252.834,970.257,-0.620387,-0.351402,-1.6497,
2026_06_10_18_52_37.541,3.866,30.3,0,0.76,0,0,0,0, ,0,0,0,0,0, ,-40.1,251.5,971.3,-0.6,-0.4,-1.7,25,-40.1148,252.762,970.269,-0.616098,-0.354363,-1.64972,
2026_06_10_18_52_37.561,3.866,30.2,0,0.759,0,0,0,0, ,0,0,0,0,0, ,-40.1,252.9,970,-0.6,-0.3,-1.6,25,-40.1139,252.728,970.292,-0.615117,-0.354097,-1.64973,
2026_06_10_18_52_37.584,3.866,30.2,0,0.758,0,0,0,0, ,0,0,0,0,0, ,-38.8,253.4,969.8,-0.7,-0.4,-1.7,25,-40.0734,252.753,970.268,-0.617243,-0.353848,-1.64975,
2026_06_10_18_52_37.601,3.866,30.3,0,0.758,0,0,0,0, ,0,0,0,0,0, ,-40.1,252.5,969.8,-0.6,-0.3,-1.7,25,-40.0354,252.765,970.24,-0.619239,-0.353613,-1.65281,
2026_06_10_18_52_37.620,3.866,30.3,0,0.759,0,0,0,0, ,0,0,0,0,0, ,-39.7,252.4,970.7,-0.6,-0.4,-1.6,25,-40.0272,252.746,970.24,-0.618066,-0.353393,-1.65264,
2026_06_10_18_52_37.641,3.866,30.3,0,0.759,0,0,0,0, ,0,0,0,0,0, ,-40.4,252.4,969.1,-0.6,-0.3,-1.7,25,-40.0286,252.725,970.22,-0.616966,-0.353186,-1.65248,
2026_06_10_18_52_37.660,3.866,30.3,0,0.759,0,0,0,0, ,0,0,0,0,0, ,-40.8,253.9,970.7,-0.6,-0.4,-1.6,25,-40.0634,252.751,970.2,-0.615932,-0.352992,-1.65233,
2026_06_10_18_52_37.680,3.866,30.2,0,0.759,0,0,0,0, ,0,0,0,0,0, ,-40.1,254.2,970.4,-0.7,-0.3,-1.6,25,-40.087,252.83,970.221,-0.618008,-0.35281,-1.64914,
2026_06_10_18_52_37.700,3.866,30.4,0,0.76,0,0,0,0, ,0,0,0,0,0, ,-39.7,253,970.9,-0.7,-0.4,-1.6,25,-40.0756,252.877,970.248,-0.623004,-0.352639,-1.64615,
2026_06_10_18_52_37.719,3.866,30.3,0,0.76,0,0,0,0, ,0,0,0,0,0, ,-38.9,250.6,970,-0.6,-0.4,-1.6,25,-40.0283,252.811,970.26,-0.624649,-0.355525,-1.64333,
2026_06_10_18_52_37.744,3.866,30.3,0,0.76,0,0,0,0, ,0,0,0,0,0, ,-39.9,252,972.2,-0.7,-0.3,-1.6,25,-39.99,252.719,970.311,-0.626194,-0.355188,-1.64069,
2026_06_10_18_52_37.760,3.866,30.3,0,0.759,0,0,0,0, ,0,0,0,0,0, ,-39.5,251.3,971,-0.6,-0.3,-1.7,25,-39.9723,252.654,970.39,-0.627645,-0.351825,-1.64126,
2026_06_10_18_52_37.780,3.866,30.3,0,0.76,0,0,0,0, ,0,0,0,0,0, ,-40.7,252.5,971,-0.6,-0.4,-1.7,25,-39.9801,252.608,970.427,-0.62596,-0.351714,-1.64484,
2026_06_10_18_52_37.799,3.866,30.4,0,0.76,0,0,0,0, ,0,0,0,0,0, ,-38.4,252.1,970,-0.6,-0.5,-1.6,25,-39.9539,252.589,970.431,-0.624378,-0.357703,-1.64515,
2026_06_10_18_52_37.818,3.866,30.4,0,0.76,0,0,0,0, ,0,0,0,0,0, ,-39.4,253,970.8,-0.6,-0.4,-1.7,25,-39.8897,252.587,970.429,-0.622893,-0.363327,-1.64545,
2026_06_10_18_52_37.839,3.866,30.4,0,0.759,0,0,0,0, ,0,0,0,0,0, ,-40.1,253.4,970.7,-0.6,-0.3,-1.7,25,-39.8812,252.624,970.449,-0.621498,-0.362515,-1.64877,
2026_06_10_18_52_37.859,3.866,30.4,0,0.759,0,0,0,0, ,0,0,0,0,0, ,-39.3,253.2,970.4,-0.7,-0.3,-1.7,25,-39.8701,252.665,970.455,-0.623234,-0.358706,-1.6519,
2026_06_10_18_52_37.878,3.866,30.4,0,0.759,0,0,0,0, ,0,0,0,0,0, ,-39.9,251.4,971,-0.6,-0.3,-1.7,25,-39.8537,252.643,970.47,-0.624865,-0.355128,-1.65483,
2026_06_10_18_52_37.898,3.866,30.4,0,0.758,0,0,0,0, ,0,0,0,0,0, ,-39.3,252.6,970.7,-0.7,-0.3,-1.6,25,-39.8382,252.604,970.493,-0.626397,-0.351769,-1.65453,
2026_06_10_18_52_37.918,3.866,30.4,0,0.76,0,0,0,0, ,0,0,0,0,0, ,-39,250.7,970.7,-0.5,-0.3,-1.6,25,-39.7963,252.546,970.506,-0.624789,-0.348614,-1.65121,
2026_06_10_18_52_37.937,3.866,30.4,0,0.76,0,0,0,0, ,0,0,0,0,0, ,-38.6,249.6,971.3,1.1,-0.4,-1.7,25,-39.7356,252.4,970.536,-0.568434,-0.348699,-1.65114,
2026_06_10_18_52_37.958,3.866,30.4,0,0.758,0,0,0,0, ,0,0,0,0,0, ,-55.9,245.4,975.7,-3.3,-2.3,-8.5,25,-40.1935,252.101,970.717,-0.600827,-0.409716,-1.8613,
2026_06_10_18_52_37.977,3.866,30.4,0,0.759,0,0,0,0, ,0,0,0,0,0, ,-117.1,203.8,984.2,-16.3,-5.1,-20,25,-43.0153,250.425,971.279,-1.1614,-0.610217,-2.61624,
2026_06_10_18_52_37.997,3.866,30.4,0,0.759,0,0,0,0, ,0,0,0,0,0, ,-43.3,238.1,972.9,-8.6,-4.1,-15.6,25,-45.2812,248.629,971.722,-1.8493,-0.853345,-3.5415,
2026_06_10_18_52_38.017,3.866,30.4,0,0.759,0,0,0,0, ,0,0,0,0,0, ,51.3,314.4,955.4,2.1,0.1,-0.7,25,-42.2782,250.312,971.261,-1.93466,-0.923219,-3.82233,
2026_06_10_18_52_38.037,3.866,30.4,0,0.76,0,0,0,0, ,0,0,0,0,0, ,-40,218.7,973.2,-4.1,1,4.3,25,-39.3575,251.302,970.837,-1.8777,-0.833445,-3.47972,
2026_06_10_18_52_38.057,3.866,30.4,0,0.76,0,0,0,0, ,0,0,0,0,0, ,-40.7,246,973.2,-1.5,0.5,1.7,25,-39.418,250.147,970.981,-1.9339,-0.736953,-3.08486,
2026_06_10_18_52_38.076,3.866,30.4,0,0.758,0,0,0,0, ,0,0,0,0,0, ,-40,244.5,972.9,1.4,0.1,0.1,25,-39.4748,249.849,971.107,-1.8191,-0.673764,-2.84203,
2026_06_10_18_52_38.096,3.866,30.4,0,0.759,0,0,0,0, ,0,0,0,0,0, ,-40.1,256.3,970.7,-4.9,-0.4,-1.7,25,-39.5099,249.882,971.149,-1.81489,-0.641847,-2.7176,
2026_06_10_18_52_38.116,3.866,30.4,0,0.76,0,0,0,0, ,0,0,0,0,0, ,-36.7,274.7,967.1,-11.4,-0.1,-0.3,25,-39.4422,250.834,971.012,-2.20094,-0.617969,-2.61293,
2026_06_10_18_52_38.136,3.866,30.5,0,0.76,0,0,0,0, ,0,0,0,0,0, ,-0.7,277.2,964.3,-16.5,1,4.9,25,-38.1782,252.364,970.688,-2.9169,-0.55289,-2.31355,
2026_06_10_18_52_38.156,3.866,30.4,0,0.76,0,0,0,0, ,0,0,0,0,0, ,-67.6,213.8,978.8,-16.7,-0.5,0.6,25,-37.9328,251.946,970.741,-3.75071,-0.503964,-2.00499,
2026_06_10_18_52_38.176,3.866,30.4,0,0.759,0,0,0,0, ,0,0,0,0,0, ,-79.2,239.7,991.9,-14.6,-2.8,-5.3,25,-40.0941,250.411,971.631,-4.47582,-0.5738,-2.02601,
2026_06_10_18_52_38.196,3.866,30.5,0,0.759,0,0,0,0, ,0,0,0,0,0, ,-36.3,233.8,969.9,-2.3,-11.4,-21.6,25,-41.17,249.578,972.196,-4.718,-0.97149,-2.72216,
2026_06_10_18_52_38.215,3.866,30.4,0,0.759,0,0,0,0, ,0,0,0,0,0, ,-2.6,338.3,1059.9,-17,-26.3,-29.9,25,-39.8464,251.801,974.798,-5.01854,-2.06096,-4.12542,
2026_06_10_18_52_38.235,3.866,30.4,0,0.759,0,0,0,0, ,0,0,0,0,0, ,14.7,278.6,1019,-23.8,-39.5,-25.1,25,-37.0496,255.253,978.738,-5.95585,-3.94022,-5.54981,
2026_06_10_18_52_38.255,3.866,30.4,0,0.759,0,0,0,0, ,0,0,0,0,0, ,30.5,103.7,1059.8,-36,-41.4,-16.1,25,-33.4147,251.347,982.434,-7.41495,-6.16503,-6.46693,
2026_06_10_18_52_38.274,3.866,30.5,0,0.76,0,0,0,0, ,0,0,0,0,0, ,13,104.6,1078.2,-12.7,-50.8,-1.7,25,-30.0531,242.377,987.71,-8.44693,-8.59857,-6.6152,
2026_06_10_18_52_38.294,3.866,30.5,0,0.758,0,0,0,0, ,0,0,0,0,0, ,51.7,186.2,1023.6,-28.2,-55.2,15.5,25,-26.2504,236.467,991.56,-9.17836,-11.3043,-5.79161,
2026_06_10_18_52_38.314,3.866,30.5,0,0.757,0,0,0,0, ,0,0,0,0,0, ,41.1,295.1,1039.3,-14,-63.1,28.9,25,-21.8233,236.722,993.991,-9.90484,-14.2199,-4.08587,
2026_06_10_18_52_38.334,3.866,30.4,0,0.758,0,0,0,0, ,0,0,0,0,0, ,63.9,184.2,1017.8,-8.7,-76.6,15.4,25,-17.2942,236.901,996.097,-9.9929,-17.6098,-2.48713,
2026_06_10_18_52_38.354,3.866,30.5,0,0.76,0,0,0,0, ,0,0,0,0,0, ,49.6,133.9,1012.4,-26.5,-84,-4,25,-12.7821,232.157,997.255,-10.4565,-21.43,-1.98822,
2026_06_10_18_52_38.375,3.866,30.5,0,0.759,0,0,0,0, ,0,0,0,0,0, ,138.5,118.2,975.9,-36.5,-86.7,-7,25,-6.27205,225.691,997.066,-11.7388,-25.3251,-2.20222,
2026_06_10_18_52_38.394,3.866,30.4,0,0.759,0,0,0,0, ,0,0,0,0,0, ,158.9,157.9,974.8,-37.1,-87.1,3.9,25,3.17156,220.35,995.742,-13.266,-29.0774,-2.16248,
2026_06_10_18_52_38.414,3.866,30.4,0,0.759,0,0,0,0, ,0,0,0,0,0, ,203.4,165.8,966.5,-24.7,-85.8,8.7,25,14.0171,216.785,994.213,-14.3405,-32.5735,-1.64679,
2026_06_10_18_52_38.433,3.866,30.4,0,0.759,0,0,0,0, ,0,0,0,0,0, ,200.5,149.6,1037.5,-30,-95.8,6.5,25,25.4693,213.185,994.688,-15.1333,-36.1217,-1.08332,
2026_06_10_18_52_38.453,3.866,30.4,0,0.759,0,0,0,0, ,0,0,0,0,0, ,232.5,77,1011.7,-27.6,-109,2.6,25,37.1102,207.098,996.511,-15.9661,-40.1605,-0.740038,
2026_06_10_18_52_38.473,3.866,30.5,0,0.759,0,0,0,0, ,0,0,0,0,0, ,321.8,66.8,959.4,-23,-114.3,12.2,25,51.7376,198.859,995.843,-16.5349,-44.5169,-0.244005,
2026_06_10_18_52_38.493,3.866,30.5,0,0.759,0,0,0,0, ,0,0,0,0,0, ,378.5,109,921,-10.7,-112.7,34,25,69.9221,192.098,992.452,-16.5541,-48.7206,1.17852,
2026_06_10_18_52_38.513,3.866,30.4,0,0.759,0,0,0,0, ,0,0,0,0,0, ,358.5,120.7,887.5,0.8,-110,45.4,25,88.1167,187.39,987.077,-15.847,-52.537,3.52592,
2026_06_10_18_52_38.533,3.866,30.5,0,0.758,0,0,0,0, ,0,0,0,0,0, ,370.6,151.4,977.2,-14.3,-115.6,38.9,25,104.962,184.262,983.742,-15.2926,-56.2093,5.87958,
2026_06_10_18_52_38.552,3.866,30.4,0,0.758,0,0,0,0, ,0,0,0,0,0, ,415.4,100.5,896.9,3.5,-126,17.8,25,122.514,180.709,980.897,-14.6898,-60.1453,7.24887,
2026_06_10_18_52_38.572,3.866,30.4,0,0.76,0,0,0,0, ,0,0,0,0,0, ,432.7,42.3,817.9,4.5,-113.7,15.8,25,140.889,174.048,973.371,-13.5509,-63.7836,7.83089,
2026_06_10_18_52_38.591,3.866,30.5,0,0.76,0,0,0,0, ,0,0,0,0,0, ,451.4,37.1,828.6,3.6,-94.2,17.6,25,159.241,165.861,964.223,-12.4783,-66.2312,8.37135,
2026_06_10_18_52_38.611,3.866,30.4,0,0.759,0,0,0,0, ,0,0,0,0,0, ,550,67.6,866.4,-7.3,-76.6,16.2,25,180.049,158.944,957.111,-11.8307,-67.3993,8.89107,
2026_06_10_18_52_38.631,3.866,30.4,0,0.759,0,0,0,0, ,0,0,0,0,0, ,547.4,88.5,887.4,-15.1,-66.3,15.9,25,202.513,154.014,952.223,-11.7922,-67.6461,9.32731,
2026_06_10_18_52_38.651,3.866,30.3,0,0.757,0,0,0,0, ,0,0,0,0,0, ,549.9,54.1,858.3,-13.7,-47.3,12.6,25,223.606,148.974,947.386,-11.9512,-66.9852,9.62729,
2026_06_10_18_52_38.671,3.866,30.3,0,0.759,0,0,0,0, ,0,0,0,0,0, ,568.7,51.3,783.3,-15.3,-31.8,14.8,25,244.062,143.107,939.672,-12.1065,-65.3134,9.87547,
2026_06_10_18_52_38.691,3.866,30.4,0,0.759,0,0,0,0, ,0,0,0,0,0, ,531.7,10.9,768.5,-12.4,-32.9,11.4,25,262.718,136.282,929.692,-12.2127,-63.3047,10.072,
2026_06_10_18_52_38.711,3.866,30.5,0,0.758,0,0,0,0, ,0,0,0,0,0, ,600.8,-7.5,733.8,-2.8,-50.2,10.9,25,281.214,128.081,918.812,-11.9316,-61.979,10.1377,
2026_06_10_18_52_38.730,3.866,30.5,0,0.758,0,0,0,0, ,0,0,0,0,0, ,619.9,86.5,783.9,-10,-66.6,19,25,301.271,122.683,909.065,-11.5945,-61.7609,10.4309,
2026_06_10_18_52_38.750,3.866,30.4,0,0.759,0,0,0,0, ,0,0,0,0,0, ,634.3,79.2,785.2,-14.6,-54.6,0.9,25,321.126,120.255,901.477,-11.6375,-61.6902,10.4016,
2026_06_10_18_52_38.770,3.866,30.4,0,0.757,0,0,0,0, ,0,0,0,0,0, ,616.9,145.9,759,22.1,-31,-7.2,25,339.68,119.786,893.593,-10.6999,-60.539,9.5758,
2026_06_10_18_52_38.790,3.866,30.4,0,0.76,0,0,0,0, ,0,0,0,0,0, ,619.1,13,746,21.6,-37.3,-34.9,25,356.64,117.328,884.995,-8.71635,-58.931,7.70954,
2026_06_10_18_52_38.809,3.866,30.4,0,0.759,0,0,0,0, ,0,0,0,0,0, ,733,13.3,697,19.6,-58.6,-16,25,376.104,110.98,875.032,-6.92989,-58.2618,5.68888,
2026_06_10_18_52_38.830,3.866,30.4,0,0.76,0,0,0,0, ,0,0,0,0,0, ,677.1,-44.9,719.1,23.5,-71.4,5.3,25,396.149,103.254,864.857,-5.19439,-58.6724,5.0162,
2026_06_10_18_52_38.850,3.866,30.4,0,0.76,0,0,0,0, ,0,0,0,0,0, ,709.4,100.7,694,23.7,-80.5,18.8,25,414.254,98.6621,855.21,-3.43973,-59.7253,5.44482,
2026_06_10_18_52_38.869,3.866,30.4,0,0.759,0,0,0,0, ,0,0,0,0,0, ,725.4,126.3,672.4,16.5,-75.2,2.1,25,432.727,99.5663,844.728,-2.00528,-60.8297,5.74983,
2026_06_10_18_52_38.889,3.866,30.3,0,0.759,0,0,0,0, ,0,0,0,0,0, ,736.5,49.9,661.9,10.4,-64,-1.7,25,450.9,98.8675,833.907,-1.06348,-61.3642,5.41163,
2026_06_10_18_52_38.909,3.866,30.4,0,0.76,0,0,0,0, ,0,0,0,0,0, ,744.9,38.2,664.6,12.9,-61.1,3,25,468.559,95.5271,823.508,-0.288748,-61.4364,5.12147,
2026_06_10_18_52_38.928,3.866,30.4,0,0.758,0,0,0,0, ,0,0,0,0,0, ,758.9,72.2,649.5,25.6,-65.5,11.2,25,485.826,93.0697,813.364,0.901894,-61.55,5.24204,
2026_06_10_18_52_38.948,3.866,30.4,0,0.759,0,0,0,0, ,0,0,0,0,0, ,749.5,66.5,613.1,34.8,-71.3,11.4,25,502.18,91.6242,802.269,2.68725,-61.9674,5.6112,
2026_06_10_18_52_38.969,3.866,30.4,0,0.759,0,0,0,0, ,0,0,0,0,0, ,770.9,66,572.1,38.9,-68.8,11.6,25,517.903,90.078,789.493,4.76904,-62.46,5.97005,
2026_06_10_18_52_38.987,3.866,30.4,0,0.76,0,0,0,0, ,0,0,0,0,0, ,723.1,83.6,560.4,27.3,-62.6,9,25,531.863,89.147,775.889,6.49546,-62.6574,6.2339,
2026_06_10_18_52_39.008,3.866,30.4,0,0.759,0,0,0,0, ,0,0,0,0,0, ,763.4,53.4,545.8,18.8,-59.1,4.9,25,544.745,87.8888,762.313,7.50425,-62.5473,6.27754,
2026_06_10_18_52_39.027,3.866,30.4,0,0.758,0,0,0,0, ,0,0,0,0,0, ,839.7,36.9,508.5,21.9,-56.9,7.4,25,560.394,85.2844,747.982,8.28704,-62.2702,6.26977,
2026_06_10_18_52_39.047,3.866,30.3,0,0.759,0,0,0,0, ,0,0,0,0,0, ,771.7,142.8,560.6,33.5,-62.7,16.7,25,575.342,85.5626,734.976,9.47001,-62.1196,6.622,
2026_06_10_18_52_39.067,3.866,30.4,0,0.759,0,0,0,0, ,0,0,0,0,0, ,775,101.8,538.9,19.1,-64.8,17.3,25,587.408,87.8013,723.689,10.4956,-62.219,7.25441,
2026_06_10_18_52_39.087,3.866,30.4,0,0.759,0,0,0,0, ,0,0,0,0,0, ,861.4,50,496.2,18.3,-52.8,8,25,601.472,87.0761,711.128,10.9955,-62.0106,7.5832,
2026_06_10_18_52_39.107,3.866,30.4,0,0.758,0,0,0,0, ,0,0,0,0,0, ,907.5,64.2,469.2,9,-38.6,4.8,25,618.716,85.2494,697.208,11.1573,-61.0167,7.5111,
2026_06_10_18_52_39.127,3.866,30.3,0,0.76,0,0,0,0, ,0,0,0,0,0, ,907.3,70.5,437.7,9.5,-36.1,8.9,25,636.308,84.1587,682.354,11.0411,-59.5745,7.47082,
2026_06_10_18_52_39.146,3.866,30.4,0,0.758,0,0,0,0, ,0,0,0,0,0, ,885,84.9,429.8,17.2,-43.1,11.8,25,652.142,83.7651,667.205,11.1818,-58.3573,7.64627,
2026_06_10_18_52_39.170,3.866,30.3,0,0.759,0,0,0,0, ,0,0,0,0,0, ,859.3,64.2,453.1,14.9,-45.6,14.7,25,665.549,83.2036,653.448,11.4784,-57.5038,7.98774,
2026_06_10_18_52_39.186,3.866,30.3,0,0.758,0,0,0,0, ,0,0,0,0,0, ,937.7,60.3,509.7,10.6,-41.8,14.3,25,679.744,81.9267,642.963,11.5559,-56.6626,8.38458,
2026_06_10_18_52_39.205,3.866,30.3,0,0.759,0,0,0,0, ,0,0,0,0,0, ,982.5,100.9,442.1,13,-37.7,13.3,25,696.828,81.8459,632.783,11.5708,-55.632,8.71459,
2026_06_10_18_52_39.226,3.866,30.3,0,0.76,0,0,0,0, ,0,0,0,0,0, ,918.3,73.2,343.3,27.3,-32.1,16,25,712.28,82.163,618.153,12.0936,-54.3686,9.07628,
2026_06_10_18_52_39.246,3.866,30.3,0,0.759,0,0,0,0, ,0,0,0,0,0, ,862.3,43.8,306.2,23.4,-37.8,17.3,25,723.128,80.721,600.274,12.9014,-53.1853,9.5378,
2026_06_10_18_52_39.266,3.866,30.3,0,0.759,0,0,0,0, ,0,0,0,0,0, ,872.9,50.2,356.2,13.3,-53.8,14.2,25,731.932,78.6661,583.877,13.2334,-52.7353,9.91636,
2026_06_10_18_52_39.286,3.866,30.4,0,0.759,0,0,0,0, ,0,0,0,0,0, ,986.6,107.1,415.7,12,-63.3,19.2,25,743.987,78.6652,571.816,13.1979,-53.0896,10.3297,
2026_06_10_18_52_39.305,3.866,30.3,0,0.758,0,0,0,0, ,0,0,0,0,0, ,947.5,79.2,319.3,7.5,-51.5,27.3,25,757.58,79.5478,559.365,12.9878,-53.3523,11.1171,
2026_06_10_18_52_39.327,3.866,30.3,0,0.76,0,0,0,0, ,0,0,0,0,0, ,865.8,58.9,291.8,7.5,-40.4,16.2,25,766.664,78.9081,543.898,12.6534,-52.9012,11.765,
2026_06_10_18_52_39.345,3.866,30.3,0,0.759,0,0,0,0, ,0,0,0,0,0, ,864,26.6,307.8,0.6,-37.7,2.9,25,772.65,76.7047,529.024,12.1291,-52.0571,11.63,
2026_06_10_18_52_39.364,3.866,30.3,0,0.759,0,0,0,0, ,0,0,0,0,0, ,921.5,10.7,340.9,2.5,-40.1,4.6,25,779.968,73.167,516.551,11.4844,-51.2554,11.1498,
2026_06_10_18_52_39.384,3.866,30.4,0,0.759,0,0,0,0, ,0,0,0,0,0, ,895.7,36.7,291.8,8.9,-44.1,1.9,25,787.807,70.1526,504.352,11.1319,-50.6975,10.6684,
2026_06_10_18_52_39.404,3.866,30.2,0,0.759,0,0,0,0, ,0,0,0,0,0, ,857,55.7,270.3,12.9,-43.7,-4.7,25,793.203,68.693,490.744,11.1178,-50.2832,9.93302,
2026_06_10_18_52_39.424,3.866,30.3,0,0.759,0,0,0,0, ,0,0,0,0,0, ,893.3,24.2,248.1,8.1,-39.9,-9.6,25,798.196,66.9415,476.634,11.0802,-49.7663,8.89203,
2026_06_10_18_52_39.444,3.866,30.4,0,0.759,0,0,0,0, ,0,0,0,0,0, ,994.7,37.9,222.9,10.5,-34.3,-6.9,25,807.081,64.7543,461.94,10.9717,-48.9944,7.84743,
2026_06_10_18_52_39.463,3.866,30.3,0,0.759,0,0,0,0, ,0,0,0,0,0, ,1038.5,54.9,218.6,3.5,-41.8,-5.1,25,819.849,63.6359,447.243,10.7297,-48.3275,7.00361,
2026_06_10_18_52_39.483,3.866,30.3,0,0.759,0,0,0,0, ,0,0,0,0,0, ,978.7,48.8,210.6,2.2,-48.9,-6.4,25,831.351,62.9177,433.066,10.2495,-48.1461,6.22643,
2026_06_10_18_52_39.503,3.866,30.3,0,0.759,0,0,0,0, ,0,0,0,0,0, ,955.8,41.1,203.7,11.4,-48.1,-6.7,25,839.632,61.8228,419.299,10.0393,-48.1676,5.44787,
2026_06_10_18_52_39.522,3.866,30.3,0,0.759,0,0,0,0, ,0,0,0,0,0, ,1028.9,8.3,201.6,15.1,-36.4,3.2,25,848.938,59.5606,406.097,10.2349,-47.807,5.00925,
2026_06_10_18_52_39.542,3.866,30.2,0,0.759,0,0,0,0, ,0,0,0,0,0, ,1074.8,48.2,160.6,13.5,-21,17.6,25,861.303,57.6526,392.387,10.4827,-46.6427,5.33775,
2026_06_10_18_52_39.562,3.866,30.3,0,0.759,0,0,0,0, ,0,0,0,0,0, ,1045.1,76.7,106.8,13.4,-17.7,20.7,25,873.408,57.945,376.623,10.6635,-44.9795,6.17943,
2026_06_10_18_52_39.582,3.866,30.3,0,0.76,0,0,0,0, ,0,0,0,0,0, ,990.6,57,76.1,7.4,-25.8,13.4,25,882.21,58.4876,359.245,10.6474,-43.564,6.84186,
2026_06_10_18_52_39.602,3.866,30.3,0,0.759,0,0,0,0, ,0,0,0,0,0, ,943.8,17.2,106.3,5.5,-34.8,11.3,25,887.389,57.1843,342.911,10.3916,-42.7557,7.17751,
2026_06_10_18_52_39.621,3.866,30.3,0,0.76,0,0,0,0, ,0,0,0,0,0, ,953.9,6.7,135.2,8.4,-35.3,13.3,25,891.135,54.4278,329.373,10.1819,-42.2862,7.48966,
2026_06_10_18_52_39.643,3.866,30.2,0,0.759,0,0,0,0, ,0,0,0,0,0, ,1012.4,42.6,128.2,10.9,-29.2,15.2,25,896.742,52.6132,317.327,10.1495,-41.6746,7.90162,
2026_06_10_18_52_39.662,3.866,30.4,0,0.759,0,0,0,0, ,0,0,0,0,0, ,1024.6,46.3,127.8,18.7,-24,14.4,25,904.161,52.1158,305.79,10.4329,-40.756,8.32199,
2026_06_10_18_52_39.682,3.866,30.2,0,0.759,0,0,0,0, ,0,0,0,0,0, ,966.9,33.9,69.9,24.1,-19.5,14.7,25,909.743,51.3836,293.18,11.1012,-39.5978,8.70151,
2026_06_10_18_52_39.701,3.866,30.3,0,0.759,0,0,0,0, ,0,0,0,0,0, ,942.3,31.9,48.9,31.5,-18,14.3,25,912.476,50.2572,278.934,12.1188,-38.3274,9.05485,
2026_06_10_18_52_39.721,3.866,30.3,0,0.757,0,0,0,0, ,0,0,0,0,0, ,955.3,-1.4,88.6,33.9,-22.2,15.6,25,914.69,48.124,266.126,13.373,-37.2167,9.41409,
2026_06_10_18_52_39.740,3.866,30.2,0,0.76,0,0,0,0, ,0,0,0,0,0, ,977.7,30.3,83.4,22.3,-18.1,12.4,25,917.847,46.072,255.149,14.2704,-36.1767,9.69354,
2026_06_10_18_52_39.761,3.866,30.3,0,0.759,0,0,0,0, ,0,0,0,0,0, ,994.5,29,67.2,7.1,-7.1,1.8,25,922.006,45.0713,244.19,14.2966,-34.74,9.5355,
2026_06_10_18_52_39.779,3.866,30.2,0,0.759,0,0,0,0, ,0,0,0,0,0, ,994.7,7.4,17.9,-1.3,-10.5,-3.9,25,926.43,43.4338,231.902,13.6021,-33.1592,8.89045,
2026_06_10_18_52_39.803,3.866,30.2,0,0.76,0,0,0,0, ,0,0,0,0,0, ,1005.2,2,23.8,-5.7,-21.1,-2,25,930.91,41.0735,219.041,12.5599,-32.1014,8.16892,
2026_06_10_18_52_39.820,3.866,30.3,0,0.759,0,0,0,0, ,0,0,0,0,0, ,1017.9,-16.2,96.5,-5.2,-22.2,1.3,25,935.824,38.1379,209.359,11.4624,-31.4645,7.6498,
2026_06_10_18_52_39.840,3.866,30.3,0,0.759,0,0,0,0, ,0,0,0,0,0, ,992.3,4.6,71.5,-0.9,-6,4.5,25,940.045,35.4604,201.72,10.5781,-30.4064,7.36036,
2026_06_10_18_52_39.860,3.866,30.2,0,0.758,0,0,0,0, ,0,0,0,0,0, ,954.5,2.3,27.5,4.7,1.9,-0.7,25,942.078,33.5098,192.444,10.0493,-28.6784,7.02762,
2026_06_10_18_52_39.879,3.866,30.3,0,0.759,0,0,0,0, ,0,0,0,0,0, ,953.9,-15.1,-2.3,1.1,-6,-5.3,25,942.817,31.0778,181.485,9.61361,-27.0557,6.41656,
2026_06_10_18_52_39.899,3.866,30.2,0,0.76,0,0,0,0, ,0,0,0,0,0, ,965.5,-11.1,16.7,2.5,-19.7,-4.9,25,943.845,28.3857,170.864,9.13747,-26.1901,5.71477,
2026_06_10_18_52_39.919,3.866,30.3,0,0.758,0,0,0,0, ,0,0,0,0,0, ,984.1,-12.2,68.4,1,-23.3,-6.6,25,945.732,25.946,163.045,8.6873,-25.9043,5.01613,
2026_06_10_18_52_39.939,3.866,30.3,0,0.757,0,0,0,0, ,0,0,0,0,0, ,1006.1,-2.6,43.3,4.8,-13.5,-2.1,25,948.74,23.914,156.513,8.33463,-25.447,4.44539,
2026_06_10_18_52_39.963,3.866,30.2,0,0.759,0,0,0,0, ,0,0,0,0,0, ,982.6,-7.4,26.3,3.1,-6.8,-3.2,25,951.519,22.1521,149.096,8.06744,-24.5148,4.01301,
2026_06_10_18_52_39.979,3.866,30.2,0,0.759,0,0,0,0, ,0,0,0,0,0, ,982.5,-2.9,13.7,3.7,-5.9,-6.4,25,953.41,20.4883,141.229,7.78302,-23.4079,3.47597,
2026_06_10_18_52_39.998,3.866,30.3,0,0.759,0,0,0,0, ,0,0,0,0,0, ,1026.7,1.4,26.1,1.5,-11,-5.8,25,956.53,19.1941,133.836,7.46718,-22.4964,2.89243,
2026_06_10_18_52_40.018,3.866,30.2,0,0.759,0,0,0,0, ,0,0,0,0,0, ,1008.9,-11.4,48.5,-1.5,-17,-0.6,25,960.263,17.7198,127.953,7.01215,-21.9787,2.52117,
2026_06_10_18_52_40.038,3.866,30.4,0,0.758,0,0,0,0, ,0,0,0,0,0, ,977.1,-0.4,31.1,-1.4,-12.8,-0.5,25,962.258,16.2805,122.581,6.49649,-21.5473,2.33402,
2026_06_10_18_52_40.058,3.866,30.2,0,0.758,0,0,0,0, ,0,0,0,0,0, ,959.2,7,25.1,1.2,-2.2,-4.1,25,962.617,15.4895,116.824,6.09451,-20.6913,2.05164,
2026_06_10_18_52_40.078,3.866,30.2,0,0.76,0,0,0,0, ,0,0,0,0,0, ,1006.1,11.8,28.4,-0.1,-1.8,-6.5,25,963.838,15.1184,111.335,5.75665,-19.5523,1.60365,
2026_06_10_18_52_40.097,3.866,30.3,0,0.76,0,0,0,0, ,0,0,0,0,0, ,1020.3,6.3,27.7,-2.5,-6.3,-1.2,25,966.846,14.7486,106.26,5.32663,-18.6076,1.27132,
2026_06_10_18_52_40.120,3.866,30.2,0,0.76,0,0,0,0, ,0,0,0,0,0, ,966.6,10.9,18.6,-3.6,-7.4,0,25,968.467,14.3739,101.195,4.81618,-17.8911,1.15728,
2026_06_10_18_52_40.137,3.866,30.2,0,0.758,0,0,0,0, ,0,0,0,0,0, ,937.7,4.5,15.3,-3.6,-3.9,-7.4,25,967.473,13.9672,96.0616,4.30332,-17.1452,0.861293,
2026_06_10_18_52_40.157,3.866,30.2,0,0.759,0,0,0,0, ,0,0,0,0,0, ,985.2,4.1,14.8,-3.9,-4.5,-8.9,25,967.106,13.3781,91.1249,3.81257,-16.3564,0.312167,
2026_06_10_18_52_40.177,3.866,30.2,0,0.759,0,0,0,0, ,0,0,0,0,0, ,1023.9,5.7,12.6,-3.2,-5.3,-4.4,25,969.388,12.8615,86.4069,3.36391,-15.6582,-0.11209,
2026_06_10_18_52_40.196,3.866,30.3,0,0.76,0,0,0,0, ,0,0,0,0,0, ,998.4,9.8,10.3,-3.4,-0.8,-0.4,25,971.933,12.55,81.8392,2.95783,-14.8899,-0.251509,
2026_06_10_18_52_40.216,3.866,30.2,0,0.758,0,0,0,0, ,0,0,0,0,0, ,970.8,19.1,-6.8,-2,7.3,-1.5,25,972.704,12.6658,76.9587,2.61306,-13.7845,-0.294074,
2026_06_10_18_52_40.235,3.866,30.2,0,0.758,0,0,0,0, ,0,0,0,0,0, ,982.1,18.3,-18,-1.2,3.3,-5.7,25,972.933,13.0335,71.5134,2.35632,-12.6216,-0.495529,
2026_06_10_18_52_40.255,3.866,30.2,0,0.757,0,0,0,0, ,0,0,0,0,0, ,1016.2,9.7,3.7,-2,-9.5,-5.5,25,974.53,13.0924,66.7199,2.11524,-12.0413,-0.806582,
2026_06_10_18_52_40.275,3.866,30.1,0,0.758,0,0,0,0, ,0,0,0,0,0, ,997.4,15.7,10.8,-2.5,-11.6,-1.9,25,976.497,13.0685,63.0959,1.84923,-11.9505,-0.9829,
2026_06_10_18_52_40.295,3.866,30.2,0,0.759,0,0,0,0, ,0,0,0,0,0, ,961,24.4,4.1,-2.5,-2.4,-4,25,976.661,13.4939,59.705,1.5842,-11.6488,-1.10277,
2026_06_10_18_52_40.315,3.866,30.2,0,0.758,0,0,0,0, ,0,0,0,0,0, ,993.5,30.7,-12,-3,0.6,-9.1,25,976.697,14.3505,55.826,1.32008,-10.9938,-1.43471,
2026_06_10_18_52_40.335,3.866,30.2,0,0.758,0,0,0,0, ,0,0,0,0,0, ,1065.4,16.1,-9.5,-6.4,-2.3,-6.3,25,979.912,14.9019,51.7691,0.953234,-10.3756,-1.8165,
2026_06_10_18_52_40.355,3.866,30.3,0,0.758,0,0,0,0, ,0,0,0,0,0, ,1088.7,4.3,10.2,-8.2,-7,-1.4,25,985.831,14.6154,48.6357,0.450303,-10.0267,-1.94042,
2026_06_10_18_52_40.375,3.866,30.2,0,0.76,0,0,0,0, ,0,0,0,0,0, ,1010.6,14.4,16.8,-9.9,-12.3,8.5,25,989.72,14.2945,46.4946,-0.128622,-10.0038,-1.60585,
2026_06_10_18_52_40.394,3.866,30.1,0,0.759,0,0,0,0, ,0,0,0,0,0, ,917.9,27.5,-19.6,-8,-3.1,4.1,25,988.168,14.7001,43.5761,-0.666174,-9.86339,-1.12408,
2026_06_10_18_52_40.414,3.866,30.2,0,0.758,0,0,0,0, ,0,0,0,0,0, ,954.5,41.3,-15.8,-4.5,2.2,-9.6,25,985.001,15.9006,39.842,-1.00644,-9.28977,-1.22316,
2026_06_10_18_52_40.434,3.866,30,0,0.758,0,0,0,0, ,0,0,0,0,0, ,957.8,8.7,-19.6,-0.7,-2.5,-17.3,25,983.243,16.4551,36.3356,-1.10355,-8.73281,-1.96824,
2026_06_10_18_52_40.454,3.866,30.2,0,0.757,0,0,0,0, ,0,0,0,0,0, ,1045.1,28.1,-9.6,-1.5,-0.7,-2.7,25,984.353,16.5736,33.2317,-1.10333,-8.29816,-2.45767,
2026_06_10_18_52_40.474,3.866,30.2,0,0.758,0,0,0,0, ,0,0,0,0,0, ,998.7,29,5.2,-0.3,6.5,-3.2,25,986.641,17.3034,31.0726,-1.09094,-7.61577,-2.48767,
2026_06_10_18_52_40.493,3.866,30.2,0,0.759,0,0,0,0, ,0,0,0,0,0, ,969.7,26.1,17.7,0,14,-2.4,25,986.492,17.9278,29.8768,-1.0336,-6.52707,-2.5067,
2026_06_10_18_52_40.513,3.866,30.1,0,0.759,0,0,0,0, ,0,0,0,0,0, ,1164.6,30.5,-16.8,6,18,0.3,25,991.407,18.5599,28.0836,-0.787804,-5.15433,-2.41794,
2026_06_10_18_52_40.533,3.866,30.1,0,0.758,0,0,0,0, ,0,0,0,0,0, ,991.4,24.1,24.6,-4.1,8.9,6.1,25,996.684,19.0925,26.6099,-0.681906,-4.02063,-2.07559,
2026_06_10_18_52_40.553,3.866,30.2,0,0.758,0,0,0,0, ,0,0,0,0,0, ,993.8,10.8,1.9,-1.9,1.4,7.6,25,996.435,18.9924,25.7958,-0.823165,-3.46179,-1.53169,
2026_06_10_18_52_40.573,3.866,30.2,0,0.76,0,0,0,0, ,0,0,0,0,0, ,992.3,17.7,20.7,-0.9,1.4,6,25,996.229,18.7034,24.9125,-0.858316,-3.16553,-1.02398,
2026_06_10_18_52_40.593,3.866,30.2,0,0.759,0,0,0,0, ,0,0,0,0,0, ,994.1,9.6,33.2,0.8,-0.3,7.6,25,996.044,18.3954,25.0366,-0.809059,-2.93911,-0.547205,
2026_06_10_18_52_40.613,3.866,30,0,0.758,0,0,0,0, ,0,0,0,0,0, ,992.5,-4.2,29.5,-0.5,-4,6.5,25,995.877,17.439,25.4214,-0.750617,-2.89103,-0.0842499,
2026_06_10_18_52_40.632,3.866,30.1,0,0.758,0,0,0,0, ,0,0,0,0,0, ,992.4,7.8,29,-0.9,-7.2,5.9,25,995.668,16.486,25.6547,-0.747532,-3.0561,0.298697,
2026_06_10_18_52_40.651,3.866,30.1,0,0.759,0,0,0,0, ,0,0,0,0,0, ,992.3,-4.8,20.5,-1,-9.8,6,25,995.466,15.5728,25.5995,-0.75987,-3.38784,0.643073,
2026_06_10_18_52_40.672,3.866,30.2,0,0.758,0,0,0,0, ,0,0,0,0,0, ,991.5,5.4,5.7,-5,-11.2,5,25,995.249,14.6421,24.8378,-0.896378,-3.82124,0.939042,
2026_06_10_18_52_40.691,3.866,30.2,0,0.758,0,0,0,0, ,0,0,0,0,0, ,990.4,-21.2,18.9,-3.6,-10.5,3.7,25,994.987,13.2684,24.0738,-1.10379,-4.24955,1.1469,
2026_06_10_18_52_40.711,3.866,30.2,0,0.758,0,0,0,0, ,0,0,0,0,0, ,992.1,2.5,63.8,5.8,-21.5,4.4,25,994.759,11.8901,25.1266,-0.969493,-4.9656,1.3238,
2026_06_10_18_52_40.731,3.866,30.1,0,0.757,0,0,0,0, ,0,0,0,0,0, ,991.2,-24.6,-40.4,6.1,-25,2,25,994.57,10.4922,24.3084,-0.547836,-6.0798,1.43814,
2026_06_10_18_52_40.751,3.866,30.1,0,0.757,0,0,0,0, ,0,0,0,0,0, ,991.9,-13.7,-74,2.1,-15,-0.1,25,994.386,8.6859,19.3415,-0.264609,-6.92806,1.40839,
2026_06_10_18_52_40.771,3.866,30,0,0.759,0,0,0,0, ,0,0,0,0,0, ,991.3,3.6,-53.9,-1.3,-7.6,-1.3,25,994.216,7.84887,14.2659,-0.224109,-7.19448,1.27991,
2026_06_10_18_52_40.791,3.866,30.1,0,0.758,0,0,0,0, ,0,0,0,0,0, ,992.9,-14.6,-6.1,-17.5,-5.4,-1.4,25,994.087,7.03542,11.5685,-0.783265,-7.15216,1.11965,
2026_06_10_18_52_40.811,3.866,30,0,0.757,0,0,0,0, ,0,0,0,0,0, ,992.3,6.9,-59,-8.1,-6.2,-1.5,25,993.996,6.37209,8.87999,-1.51553,-7.06976,0.963062,
2026_06_10_18_52_40.830,3.866,30.1,0,0.758,0,0,0,0, ,0,0,0,0,0, ,989.6,19.8,-136.4,-33.2,9.4,-4.7,25,993.811,6.79731,2.38527,-2.68154,-6.54145,0.715469,
2026_06_10_18_52_40.850,3.866,30.1,0,0.758,0,0,0,0, ,0,0,0,0,0, ,990.4,-1.8,-37.4,-2.8,20.7,-3.4,25,993.578,6.93153,-3.05555,-3.61501,-5.22572,0.425073,
2026_06_10_18_52_40.870,3.866,30.1,0,0.758,0,0,0,0, ,0,0,0,0,0, ,993.5,8.3,9.5,-2,18.9,-2.3,25,993.479,6.70719,-3.71943,-3.54097,-3.70072,0.225498,
2026_06_10_18_52_40.890,3.866,30.1,0,0.758,0,0,0,0, ,0,0,0,0,0, ,993.7,15.2,-10.7,8.4,15.7,0.7,25,993.487,7.01448,-3.52934,-3.13019,-2.42098,0.163007,
2026_06_10_18_52_40.910,3.866,30,0,0.758,0,0,0,0, ,0,0,0,0,0, ,993,17.3,-114.9,12.5,28.9,-0.1,25,993.478,7.57727,-7.14114,-2.30265,-0.914549,0.171355,
2026_06_10_18_52_40.930,3.866,30.1,0,0.758,0,0,0,0, ,0,0,0,0,0, ,1000.2,-17.9,-104,0.1,58.9,-4.8,25,993.668,7.09725,-13.3756,-1.77843,1.81634,0.0116163,
2026_06_10_18_52_40.949,3.866,30,0,0.758,0,0,0,0, ,0,0,0,0,0, ,1004.7,11.7,160,-0.2,51.1,-2.8,25,994.204,6.47586,-10.8543,-1.6731,5.05722,-0.220654,
2026_06_10_18_52_40.969,3.866,30.1,0,0.758,0,0,0,0, ,0,0,0,0,0, ,970.8,18.7,193.3,-2.5,21.2,0.3,25,993.81,7.00749,0.571777,-1.65341,6.95193,-0.28338,
2026_06_10_18_52_40.989,3.866,30.1,0,0.757,0,0,0,0, ,0,0,0,0,0, ,983.5,26.7,115.2,2.6,3.6,7.9,25,992.795,7.96375,9.93654,-1.54961,7.28392,-0.0162677,
2026_06_10_18_52_41.008,3.866,30,0,0.759,0,0,0,0, ,0,0,0,0,0, ,973.2,-35.6,136.2,-3.6,-1.4,1.5,25,991.915,7.20729,16.9909,-1.48565,6.90709,0.27113,
2026_06_10_18_52_41.028,3.866,30.1,0,0.759,0,0,0,0, ,0,0,0,0,0, ,999.8,0.7,19.4,-12.4,-22.4,-5,25,991.585,5.70473,20.6964,-1.88262,5.76103,0.147967,
2026_06_10_18_52_41.048,3.866,30.1,0,0.759,0,0,0,0, ,0,0,0,0,0, ,995.7,-26.6,8.5,-7,-14.3,-3.7,25,991.961,4.56796,20.2853,-2.35899,4.29177,-0.126128,
2026_06_10_18_52_41.068,3.866,30,0,0.758,0,0,0,0, ,0,0,0,0,0, ,994.7,-6.9,14,-25.3,-6.9,-9.3,25,992.158,3.2689,19.7347,-3.19938,3.3843,-0.514535,
2026_06_10_18_52_41.087,3.866,30,0,0.758,0,0,0,0, ,0,0,0,0,0, ,987.9,-60,22,-11.8,-6.7,-9.3,25,992.106,1.03134,19.629,-4.13481,2.7637,-1.0499,
2026_06_10_18_52_41.108,3.866,30,0,0.759,0,0,0,0, ,0,0,0,0,0, ,993.6,-13.6,18.5,-19.8,-6.1,-12.1,25,992.023,-1.27401,19.6669,-4.84565,2.20528,-1.63795,
2026_06_10_18_52_41.128,3.866,30,0,0.758,0,0,0,0, ,0,0,0,0,0, ,994.9,5.3,4.1,-16.4,-0.7,-12.4,25,992.159,-1.44926,19.157,-5.65334,1.86371,-2.28462,
2026_06_10_18_52_41.147,3.866,30,0,0.758,0,0,0,0, ,0,0,0,0,0, ,994.5,3,24.1,-10.6,1.5,-11.9,25,992.314,-1.10806,18.8488,-6.1315,1.77452,-2.8858,
2026_06_10_18_52_41.167,3.866,30,0,0.758,0,0,0,0, ,0,0,0,0,0, ,989,3.2,47.7,-7.3,-0.8,-12.5,25,992.279,-0.85163,19.8879,-6.30325,1.68771,-3.45338,
2026_06_10_18_52_41.187,3.866,30,0,0.757,0,0,0,0, ,0,0,0,0,0, ,1011.7,95.8,-35.7,-6,-0.9,-10.7,25,992.771,2.21667,19.0416,-6.32438,1.53307,-3.94981,
2026_06_10_18_52_41.207,3.866,30,0,0.757,0,0,0,0, ,0,0,0,0,0, ,988.6,25.6,53.2,-0.4,0.6,-3,25,993.221,5.7805,18.4145,-6.13399,1.43051,-4.12654,
2026_06_10_18_52_41.227,3.866,30,0,0.758,0,0,0,0, ,0,0,0,0,0, ,990.4,24.5,43.9,-0.4,0.5,-2.3,25,992.994,6.95473,20.2508,-5.78457,1.37685,-4.03657,
2026_06_10_18_52_41.247,3.866,30,0,0.759,0,0,0,0, ,0,0,0,0,0, ,991.6,13.9,36.1,-0.9,-1,-0.8,25,992.872,7.70093,21.4543,-5.47168,1.27771,-3.88504,
2026_06_10_18_52_41.267,3.866,30.1,0,0.758,0,0,0,0, ,0,0,0,0,0, ,992,8.4,37.2,-0.9,-1.2,-1.1,25,992.807,7.91111,22.3803,-5.1931,1.13282,-3.70619,
2026_06_10_18_52_41.286,3.866,30,0,0.757,0,0,0,0, ,0,0,0,0,0, ,990.3,12.9,36.2,-3,-1.3,-1.5,25,992.706,8.07801,23.2529,-4.99547,0.987619,-3.55956,
2026_06_10_18_52_41.306,3.866,30,0,0.758,0,0,0,0, ,0,0,0,0,0, ,991.6,11.8,34.7,-1.9,-1,-1.2,25,992.599,8.33833,23.9962,-4.84036,0.857358,-3.42492,
2026_06_10_18_52_41.325,3.866,30,0,0.759,0,0,0,0, ,0,0,0,0,0, ,992.1,13.1,36.9,-0.8,-1.2,-0.8,25,992.553,8.58889,24.7155,-4.62766,0.738081,-3.27715,
2026_06_10_18_52_41.346,3.866,30,0,0.759,0,0,0,0, ,0,0,0,0,0, ,992.9,10.6,34.7,-1.3,-1.3,-0.8,25,992.55,8.78761,25.3909,-4.40965,0.616933,-3.1262,
2026_06_10_18_52_41.365,3.866,30,0,0.758,0,0,0,0, ,0,0,0,0,0, ,992.7,11.1,33.3,-0.6,-1.1,-0.7,25,992.565,8.91329,25.9155,-4.19883,0.506213,-2.9814,
2026_06_10_18_52_41.385,3.866,30,0,0.758,0,0,0,0, ,0,0,0,0,0, ,991.3,10.7,35.1,-0.2,-1.1,-0.9,25,992.531,9.03435,26.4204,-3.96734,0.408335,-2.84847,
2026_06_10_18_52_41.405,3.866,30,0,0.76,0,0,0,0, ,0,0,0,0,0, ,992.3,14.6,43.5,0,-1.4,-0.7,25,992.486,9.25468,27.2052,-3.73167,0.30728,-2.72364,
2026_06_10_18_52_41.425,3.866,30,0,0.759,0,0,0,0, ,0,0,0,0,0, ,992.1,13,42.9,1.4,-2.2,-0.6,25,992.469,9.53166,28.1799,-3.46162,0.178868,-2.59728,
2026_06_10_18_52_41.445,3.866,29.9,0,0.759,0,0,0,0, ,0,0,0,0,0, ,992.9,2.5,7.9,4.5,-0.5,-1,25,992.471,9.42309,28.0105,-3.07091,0.0857021,-2.48776,
2026_06_10_18_52_41.464,3.866,30,0,0.759,0,0,0,0, ,0,0,0,0,0, ,991.3,12.4,39.1,3.7,-0.2,-1.1,25,992.448,9.30286,27.7356,-2.63393,0.0591515,-2.40014,
2026_06_10_18_52_41.484,3.866,29.9,0,0.759,0,0,0,0, ,0,0,0,0,0, ,992.9,13.9,27,3.3,-0.7,-1.2,25,992.427,9.53729,28.0595,-2.26014,0.0281251,-2.32396,
2026_06_10_18_52_41.504,3.866,30,0,0.758,0,0,0,0, ,0,0,0,0,0, ,992.1,15.1,32.3,2.7,-0.5,-0.6,25,992.432,9.83971,28.1564,-1.9396,-0.0101512,-2.23719,
2026_06_10_18_52_41.524,3.866,29.9,0,0.758,0,0,0,0, ,0,0,0,0,0, ,991.9,-1.7,24,0.2,-0.4,-1.2,25,992.405,9.64838,28.156,-1.73305,-0.0369545,-2.1557,
2026_06_10_18_52_41.544,3.866,29.9,0,0.757,0,0,0,0, ,0,0,0,0,0, ,991.3,4.1,29.4,-0.4,0.1,-2,25,992.356,9.13356,28.0673,-1.63354,-0.0438432,-2.12184,
2026_06_10_18_52_41.564,3.866,29.9,0,0.758,0,0,0,0, ,0,0,0,0,0, ,992.9,8.4,30.6,-0.6,0,-2.5,25,992.341,8.95784,28.1851,-1.56446,-0.0381247,-2.12965,
2026_06_10_18_52_41.584,3.866,30,0,0.758,0,0,0,0, ,0,0,0,0,0, ,991.6,10.8,32.9,-0.7,0.5,-2.6,25,992.335,8.99697,28.4023,-1.50874,-0.0205671,-2.15527,
2026_06_10_18_52_41.603,3.866,29.9,0,0.757,0,0,0,0, ,0,0,0,0,0, ,991.2,11.9,35.8,-0.7,0.3,-2.3,25,992.278,9.14036,28.7647,-1.45945,0.00506124,-2.17323,
2026_06_10_18_52_41.623,3.866,29.9,0,0.758,0,0,0,0, ,0,0,0,0,0, ,992.4,12.4,35.4,-0.9,-0.2,-1.7,25,992.249,9.32376,29.1813,-1.41927,0.00779969,-2.16267,
2026_06_10_18_52_41.643,3.866,29.9,0,0.759,0,0,0,0, ,0,0,0,0,0, ,991.3,9.8,36.1,-0.8,-0.5,-1.4,25,992.225,9.432,29.5816,-1.38458,-0.0140037,-2.12534,
2026_06_10_18_52_41.663,3.866,29.9,0,0.759,0,0,0,0, ,0,0,0,0,0, ,991.8,9.8,33.8,-0.7,-0.7,-1.4,25,992.183,9.45443,29.9087,-1.34591,-0.0497129,-2.08114,
2026_06_10_18_52_41.682,3.866,29.9,0,0.759,0,0,0,0, ,0,0,0,0,0, ,993.7,9.8,29.5,-0.6,-0.7,-1.6,25,992.218,9.47548,30.0148,-1.3035,-0.0893397,-2.04572,
2026_06_10_18_52_41.702,3.866,29.9,0,0.759,0,0,0,0, ,0,0,0,0,0, ,992.1,7.6,29.4,-0.6,-0.3,-1.7,25,992.26,9.42823,29.9804,-1.26063,-0.114364,-2.02161,
2026_06_10_18_52_41.722,3.866,30,0,0.76,0,0,0,0, ,0,0,0,0,0, ,992.1,8.5,32.9,-0.6,-0.1,-1.9,25,992.25,9.34424,30.0517,-1.22038,-0.119583,-2.0081,
2026_06_10_18_52_41.742,3.866,29.9,0,0.759,0,0,0,0, ,0,0,0,0,0, ,991.8,10.8,32.2,-0.7,0,-2.1,25,992.232,9.36287,30.2039,-1.18562,-0.115343,-2.00761,
2026_06_10_18_52_41.762,3.866,29.9,0,0.76,0,0,0,0, ,0,0,0,0,0, ,991.2,9.1,33.6,-0.7,0.1,-2.2,25,992.187,9.39865,30.3682,-1.15603,-0.105267,-2.01629,
2026_06_10_18_52_41.782,3.866,29.8,0,0.76,0,0,0,0, ,0,0,0,0,0, ,992,14.1,35.8,-0.7,0,-2.1,25,992.151,9.5328,30.6322,-1.12824,-0.0958054,-2.02444,
2026_06_10_18_52_41.802,3.866,29.9,0,0.759,0,0,0,0, ,0,0,0,0,0, ,992.1,10.9,36.9,-0.7,-0.5,-1.7,25,992.145,9.71361,30.9806,-1.10214,-0.105202,-2.01685,
2026_06_10_18_52_41.821,3.866,29.9,0,0.759,0,0,0,0, ,0,0,0,0,0, ,992.6,11.2,36.1,-0.6,-0.9,-1.5,25,992.158,9.79505,31.3169,-1.07459,-0.141447,-1.99145,
2026_06_10_18_52_41.841,3.866,29.9,0,0.759,0,0,0,0, ,0,0,0,0,0, ,992.5,10.8,30.7,-0.6,-0.8,-1.5,25,992.181,9.86847,31.4439,-1.04567,-0.184625,-1.9615,
2026_06_10_18_52_41.861,3.866,29.8,0,0.758,0,0,0,0, ,0,0,0,0,0, ,992.3,7.5,29.6,-0.7,0,-1.9,25,992.195,9.82469,31.365,-1.02156,-0.197749,-1.94557,
2026_06_10_18_52_41.881,3.866,29.9,0,0.758,0,0,0,0, ,0,0,0,0,0, ,993.1,9.3,31.7,-0.8,0.4,-2.3,25,992.226,9.73787,31.3215,-1.00501,-0.173511,-1.95498,
2026_06_10_18_52_41.900,3.866,29.8,0,0.759,0,0,0,0, ,0,0,0,0,0, ,992.4,11.5,35.8,-0.9,0.3,-2.5,25,992.258,9.77822,31.4694,-0.995563,-0.14161,-1.9821,
2026_06_10_18_52_41.921,3.866,29.9,0,0.759,0,0,0,0, ,0,0,0,0,0, ,992,4.3,32.1,-0.8,0,-2.5,25,992.254,9.66377,31.6206,-0.986693,-0.12384,-2.01366,
2026_06_10_18_52_41.941,3.866,29.9,0,0.759,0,0,0,0, ,0,0,0,0,0, ,991.9,12.2,40.4,-1,-0.4,-2.8,25,992.235,9.57762,31.9027,-0.98141,-0.128481,-2.05243,
2026_06_10_18_52_41.960,3.866,29.8,0,0.759,0,0,0,0, ,0,0,0,0,0, ,993.2,-4.6,37.1,-1.1,-1.1,-3.8,25,992.255,9.22554,32.32,-0.98559,-0.166355,-2.12846,
2026_06_10_18_52_41.980,3.866,29.9,0,0.758,0,0,0,0, ,0,0,0,0,0, ,991.4,19.2,24.2,-2.2,-2.2,-5.5,25,992.257,9.10821,32.2182,-1.02608,-0.256764,-2.28211,
2026_06_10_18_52_41.999,3.866,29.9,0,0.759,0,0,0,0, ,0,0,0,0,0, ,993.8,9.6,28.8,-1,-0.5,-5.8,25,992.278,9.43067,31.8697,-1.06105,-0.323383,-2.48734,
2026_06_10_18_52_42.020,3.866,29.8,0,0.76,0,0,0,0, ,0,0,0,0,0, ,991.2,29.2,31.8,-0.9,-0.3,-5.5,25,992.292,10.0382,31.7741,-1.05428,-0.328052,-2.68007,
2026_06_10_18_52_42.039,3.866,29.8,0,0.758,0,0,0,0, ,0,0,0,0,0, ,989.5,15.3,37.5,-0.9,-0.5,-4.8,25,992.173,10.7823,31.9493,-1.04488,-0.332436,-2.83058,
2026_06_10_18_52_42.059,3.866,29.8,0,0.758,0,0,0,0, ,0,0,0,0,0, ,991.5,21.8,32.1,-1.8,-0.9,-4.9,25,992.071,11.2557,32.1231,-1.06348,-0.354835,-2.95364,
2026_06_10_18_52_42.079,3.866,29.8,0,0.759,0,0,0,0, ,0,0,0,0,0, ,991.3,14.8,41.8,-1,-1.3,-4.8,25,992.031,11.6849,32.4172,-1.08398,-0.400243,-3.0692,
2026_06_10_18_52_42.098,3.866,29.9,0,0.76,0,0,0,0, ,0,0,0,0,0, ,990.9,26.2,38.3,-0.8,-2.9,-4.7,25,991.974,12.2221,32.8823,-1.07277,-0.503822,-3.17162,
2026_06_10_18_52_42.118,3.866,29.8,0,0.761,0,0,0,0, ,0,0,0,0,0, ,990.7,34,29.7,-0.1,-2.9,-2.7,25,991.902,13.3115,32.9504,-1.03482,-0.649839,-3.20382,
2026_06_10_18_52_42.138,3.866,29.8,0,0.758,0,0,0,0, ,0,0,0,0,0, ,992.1,26.4,24.2,0.7,-2.5,-1,25,991.872,14.3407,32.5848,-0.95348,-0.774771,-3.12132,
2026_06_10_18_52_42.158,3.866,29.8,0,0.759,0,0,0,0, ,0,0,0,0,0, ,992.7,21.2,14.5,0,0,-0.8,25,991.904,14.9171,31.7783,-0.874049,-0.80373,-2.98596,
2026_06_10_18_52_42.178,3.866,29.8,0,0.758,0,0,0,0, ,0,0,0,0,0, ,993.1,19.1,20.1,0.6,2.2,-0.8,25,991.965,15.236,30.896,-0.802506,-0.687722,-2.85275,
2026_06_10_18_52_42.198,3.866,29.8,0,0.758,0,0,0,0, ,0,0,0,0,0, ,992.3,16.9,34.4,0,2.8,-1.4,25,992.009,15.4044,30.6738,-0.735322,-0.49347,-2.74594,
2026_06_10_18_52_42.217,3.866,29.8,0,0.759,0,0,0,0, ,0,0,0,0,0, ,990.8,17.5,38.8,-0.2,2.2,-2.1,25,991.981,15.5138,31.035,-0.696607,-0.311055,-2.68525,
2026_06_10_18_52_42.238,3.866,29.8,0,0.759,0,0,0,0, ,0,0,0,0,0, ,992.3,16.9,45.1,0,0.5,-2.3,25,991.955,15.6166,31.7001,-0.660251,-0.209835,-2.65568,
2026_06_10_18_52_42.257,3.866,29.8,0,0.758,0,0,0,0, ,0,0,0,0,0, ,990.6,17.8,41,0,-1,-2.7,25,991.924,15.7222,32.3917,-0.620017,-0.212282,-2.6462,
2026_06_10_18_52_42.277,3.866,29.8,0,0.759,0,0,0,0, ,0,0,0,0,0, ,992.1,21.6,31,-0.6,-1.2,-2.9,25,991.889,15.9646,32.6116,-0.600516,-0.266378,-2.65557,
2026_06_10_18_52_42.298,3.866,29.8,0,0.759,0,0,0,0, ,0,0,0,0,0, ,990.9,17.9,32.3,-0.9,-0.8,-3.1,25,991.866,16.1953,32.553,-0.609625,-0.311083,-2.67656,
2026_06_10_18_52_42.317,3.866,29.8,0,0.757,0,0,0,0, ,0,0,0,0,0, ,985.7,53.5,53.7,-2.2,-2.7,-5.8,25,991.648,17.3839,33.1896,-0.666929,-0.398767,-2.78463,
2026_06_10_18_52_42.336,3.866,29.7,0,0.758,0,0,0,0, ,0,0,0,0,0, ,994.6,-1,31.9,-0.7,-1.5,-5.8,25,991.557,17.9241,33.7753,-0.714648,-0.502436,-2.96838,
2026_06_10_18_52_42.362,3.866,29.7,0,0.759,0,0,0,0, ,0,0,0,0,0, ,996.7,2.4,16.2,-2.5,-2.4,-6.9,25,991.806,16.8745,33.1826,-0.768599,-0.590647,-3.17444,
2026_06_10_18_52_42.376,3.866,29.7,0,0.759,0,0,0,0, ,0,0,0,0,0, ,992,20.7,42.8,-3.4,-2.9,-10,25,991.961,16.5501,32.9582,-0.901528,-0.716138,-3.49592,
2026_06_10_18_52_42.395,3.866,29.8,0,0.758,0,0,0,0, ,0,0,0,0,0, ,989.7,35.2,52.6,-4.4,-5.4,-11.6,25,991.894,17.2448,33.8565,-1.08425,-0.925389,-3.94102,
2026_06_10_18_52_42.416,3.866,29.8,0,0.758,0,0,0,0, ,0,0,0,0,0, ,990.9,38.9,42.6,-4.5,-9.3,-10.9,25,991.797,18.4516,34.694,-1.28935,-1.31689,-4.38641,
2026_06_10_18_52_42.436,3.866,29.8,0,0.758,0,0,0,0, ,0,0,0,0,0, ,991.6,41.3,19.7,-2.2,-9.9,-10.3,25,991.763,19.7708,34.4781,-1.41492,-1.82164,-4.76505,
2026_06_10_18_52_42.455,3.866,29.7,0,0.758,0,0,0,0, ,0,0,0,0,0, ,994.2,30.3,2.1,-0.5,-7.1,-11,25,991.833,20.7476,33.0413,-1.41096,-2.2286,-5.12366,
2026_06_10_18_52_42.475,3.866,29.7,0,0.758,0,0,0,0, ,0,0,0,0,0, ,993.2,31.1,9,-1.2,-4.6,-13.6,25,991.946,21.3541,31.366,-1.37678,-2.44928,-5.56097,
2026_06_10_18_52_42.495,3.866,29.8,0,0.757,0,0,0,0, ,0,0,0,0,0, ,990.7,54.3,11.3,-1.4,-3.5,-14.1,25,991.947,22.6549,30.0732,-1.3721,-2.54683,-6.06608,
2026_06_10_18_52_42.515,3.866,29.7,0,0.759,0,0,0,0, ,0,0,0,0,0, ,989.7,66.1,7.3,0,-1.7,-12.1,25,991.84,24.9428,28.8073,-1.33114,-2.55007,-6.49471,
2026_06_10_18_52_42.535,3.866,29.7,0,0.757,0,0,0,0, ,0,0,0,0,0, ,991.6,49,1.8,1,1.1,-11.8,25,991.768,26.9298,27.3291,-1.21956,-2.41295,-6.82714,
2026_06_10_18_52_42.555,3.866,29.7,0,0.758,0,0,0,0, ,0,0,0,0,0, ,992.9,44.1,13.3,0.3,2.9,-13.6,25,991.797,28.1254,26.1238,-1.10563,-2.14404,-7.18502,
2026_06_10_18_52_42.575,3.866,29.7,0,0.759,0,0,0,0, ,0,0,0,0,0, ,990.1,60.9,27.4,-2.6,1.4,-15.8,25,991.779,29.6107,25.772,-1.10834,-1.88237,-7.64296,
2026_06_10_18_52_42.594,3.866,29.7,0,0.758,0,0,0,0, ,0,0,0,0,0, ,989.2,59.3,26.6,-2.1,0.9,-16.4,25,991.649,31.4686,25.8468,-1.184,-1.69759,-8.15832,
2026_06_10_18_52_42.614,3.866,29.8,0,0.758,0,0,0,0, ,0,0,0,0,0, ,989.5,62.2,23.1,0.4,0.8,-18,25,991.509,33.253,25.7861,-1.16365,-1.54234,-8.70929,
2026_06_10_18_52_42.634,3.866,29.7,0,0.758,0,0,0,0, ,0,0,0,0,0, ,991.2,61.8,28.8,0,-0.4,-20.4,25,991.438,35.0047,25.7961,-1.08055,-1.43617,-9.34857,
2026_06_10_18_52_42.653,3.866,29.8,0,0.76,0,0,0,0, ,0,0,0,0,0, ,986.4,70.1,50,0.3,-3.7,-23.3,25,991.278,36.8905,26.6251,-1.00556,-1.47357,-10.1104,
2026_06_10_18_52_42.673,3.866,29.8,0,0.758,0,0,0,0, ,0,0,0,0,0, ,987.5,72.1,40.1,2.5,-9.1,-26,25,991.014,38.9751,27.7478,-0.858974,-1.77378,-10.9964,
2026_06_10_18_52_42.693,3.866,29.7,0,0.758,0,0,0,0, ,0,0,0,0,0, ,985.7,92.6,19.1,2.5,-11.7,-28.9,25,990.745,41.6183,27.8607,-0.654287,-2.29944,-11.999,
2026_06_10_18_52_42.713,3.866,29.7,0,0.757,0,0,0,0, ,0,0,0,0,0, ,983.6,113.4,5.6,1.3,-12,-29.9,25,990.374,45.3587,26.9155,-0.498635,-2.88143,-13.0594,
2026_06_10_18_52_42.733,3.866,29.7,0,0.758,0,0,0,0, ,0,0,0,0,0, ,982.4,132.3,-6.2,0.2,-10.1,-28.7,25,989.924,50.0808,25.2571,-0.422546,-3.3792,-14.0491,
2026_06_10_18_52_42.752,3.866,29.7,0,0.758,0,0,0,0, ,0,0,0,0,0, ,983.1,141.2,-19,-1.5,-7.9,-26.9,25,989.487,55.3622,22.9502,-0.436407,-3.72172,-14.887,
2026_06_10_18_52_42.772,3.866,29.7,0,0.757,0,0,0,0, ,0,0,0,0,0, ,980.4,153.3,-18.3,-1.4,-3.8,-25.8,25,989.016,60.9617,20.4151,-0.498173,-3.85141,-15.5855,
2026_06_10_18_52_42.792,3.866,29.8,0,0.759,0,0,0,0, ,0,0,0,0,0, ,977.4,160.5,-0.4,0.1,-1.3,-23.2,25,988.399,66.8079,18.6013,-0.507425,-3.7721,-16.1288,
2026_06_10_18_52_42.813,3.866,29.7,0,0.757,0,0,0,0, ,0,0,0,0,0, ,985.5,152.2,22.8,-1.1,0,-14.9,25,987.976,72.2644,18.1503,-0.506972,-3.58185,-16.3068,
2026_06_10_18_52_42.832,3.866,29.7,0,0.756,0,0,0,0, ,0,0,0,0,0, ,982.2,157.7,-39.7,2.8,0.3,-19.9,25,987.724,77.303,16.5294,-0.424282,-3.35444,-16.3734,
2026_06_10_18_52_42.852,3.866,29.7,0,0.758,0,0,0,0, ,0,0,0,0,0, ,976.4,171.2,-3.7,2.3,2.1,-19.4,25,987.211,82.6135,14.1998,-0.243036,-3.0769,-16.5731,
2026_06_10_18_52_42.872,3.866,29.7,0,0.758,0,0,0,0, ,0,0,0,0,0, ,974.1,178.5,15.5,0.5,1.1,-19,25,986.482,88.2342,13.694,-0.142914,-2.79191,-16.7331,
2026_06_10_18_52_42.892,3.866,29.7,0,0.758,0,0,0,0, ,0,0,0,0,0, ,972.7,184.4,19,-1.4,-2,-18.4,25,985.685,93.9145,13.9107,-0.161627,-2.6492,-16.853,
2026_06_10_18_52_42.911,3.866,29.6,0,0.757,0,0,0,0, ,0,0,0,0,0, ,972.6,190.5,6.4,-2.3,-4.2,-17.6,25,984.891,99.6144,13.8369,-0.264512,-2.67667,-16.9229,
2026_06_10_18_52_42.931,3.866,29.7,0,0.758,0,0,0,0, ,0,0,0,0,0, ,973.5,183.9,8.7,-5.2,-6,-17.8,25,984.169,104.952,13.4538,-0.476909,-2.82434,-16.9702,
2026_06_10_18_52_42.951,3.866,29.7,0,0.759,0,0,0,0, ,0,0,0,0,0, ,973.3,194.3,-6.1,-7.3,-7,-18.4,25,983.513,110.079,12.7132,-0.828707,-3.04832,-17.0391,
2026_06_10_18_52_42.971,3.866,29.7,0,0.757,0,0,0,0, ,0,0,0,0,0, ,971.6,195.5,-1.7,-6.7,-7,-18.9,25,982.839,115.248,11.7008,-1.20477,-3.28913,-17.1373,
2026_06_10_18_52_42.990,3.866,29.6,0,0.759,0,0,0,0, ,0,0,0,0,0, ,969.6,209.9,-5.4,-8.8,-8,-19.5,25,982.093,120.577,10.7715,-1.60362,-3.54573,-17.263,
2026_06_10_18_52_43.011,3.866,29.7,0,0.759,0,0,0,0, ,0,0,0,0,0, ,966.7,219.8,-5.9,-10.5,-7.9,-20.5,25,981.243,126.322,9.77078,-2.09395,-3.81411,-17.4297,
2026_06_10_18_52_43.030,3.866,29.6,0,0.758,0,0,0,0, ,0,0,0,0,0, ,968.3,210.2,-14,-11.6,-7.7,-20.4,25,980.406,131.726,8.56905,-2.63971,-4.057,-17.6138,
2026_06_10_18_52_43.050,3.866,29.6,0,0.759,0,0,0,0, ,0,0,0,0,0, ,966.5,223.6,-25.5,-10.7,-6.9,-21.4,25,979.613,136.916,6.84336,-3.1583,-4.25462,-17.814,
2026_06_10_18_52_43.069,3.866,29.7,0,0.758,0,0,0,0, ,0,0,0,0,0, ,965.5,225.7,-18.5,-7.3,-3.9,-22.2,25,978.784,142.262,5.08571,-3.51428,-4.32442,-18.0569,
2026_06_10_18_52_43.090,3.866,29.7,0,0.759,0,0,0,0, ,0,0,0,0,0, ,960.6,237.6,0.7,-9.9,-6.2,-23.1,25,977.825,147.709,4.23346,-3.82419,-4.36864,-18.3368,
2026_06_10_18_52_43.110,3.866,29.7,0,0.758,0,0,0,0, ,0,0,0,0,0, ,958.7,252.6,-10.2,-12.2,-8.5,-23.6,25,976.717,153.644,3.68603,-4.26451,-4.55031,-18.6423,
2026_06_10_18_52_43.129,3.866,29.7,0,0.758,0,0,0,0, ,0,0,0,0,0, ,957.1,265.3,-29.6,-11.3,-7.3,-22.9,25,975.571,160.061,2.24876,-4.72066,-4.75443,-18.9231,
2026_06_10_18_52_43.150,3.866,29.6,0,0.759,0,0,0,0, ,0,0,0,0,0, ,955.6,271.2,-27.8,-7.6,-4.7,-21.3,25,974.399,166.654,0.362817,-5.00885,-4.83034,-19.1167,
2026_06_10_18_52_43.170,3.866,29.6,0,0.758,0,0,0,0, ,0,0,0,0,0, ,953.9,267.4,-9.3,-4.8,-4.1,-21.7,25,973.202,172.909,-0.789683,-5.08144,-4.80411,-19.2619,
2026_06_10_18_52_43.189,3.866,29.6,0,0.758,0,0,0,0, ,0,0,0,0,0, ,950.8,283.2,-14.8,-5.2,-5.9,-21.7,25,971.931,179.148,-1.47586,-5.07648,-4.81605,-19.4105,
2026_06_10_18_52_43.208,3.866,29.7,0,0.757,0,0,0,0, ,0,0,0,0,0, ,950,287.2,-15.6,-2.3,-6.5,-20.1,25,970.619,185.611,-2.31217,-4.99565,-4.90038,-19.5013,
2026_06_10_18_52_43.228,3.866,29.6,0,0.757,0,0,0,0, ,0,0,0,0,0, ,947.7,296,-33.2,-1.4,-6.6,-19.7,25,969.293,192.07,-3.65815,-4.80396,-5.00091,-19.5256,
2026_06_10_18_52_43.248,3.866,29.6,0,0.759,0,0,0,0, ,0,0,0,0,0, ,947,295.2,-38.4,0.7,-3.1,-19.3,25,967.956,198.379,-5.61679,-4.53254,-4.99171,-19.524,
2026_06_10_18_52_43.268,3.866,29.7,0,0.76,0,0,0,0, ,0,0,0,0,0, ,944.8,303.5,-22.5,0.3,-2.3,-19.3,25,966.612,204.532,-7.13007,-4.22587,-4.85206,-19.5104,
2026_06_10_18_52_43.288,3.866,29.6,0,0.758,0,0,0,0, ,0,0,0,0,0, ,942.2,310.1,-22.5,-0.1,-3,-18.1,25,965.203,210.763,-8.06667,-3.96227,-4.71787,-19.461,
2026_06_10_18_52_43.308,3.866,29.6,0,0.759,0,0,0,0, ,0,0,0,0,0, ,940.6,313.7,-33.6,-2.9,-3.7,-18,25,963.753,216.926,-9.28441,-3.81222,-4.63452,-19.375,
2026_06_10_18_52_43.329,3.866,29.6,0,0.759,0,0,0,0, ,0,0,0,0,0, ,940.5,312.6,-26.3,-5.3,-3.4,-18.9,25,962.339,222.79,-10.5437,-3.82976,-4.56843,-19.3186,
2026_06_10_18_52_43.348,3.866,29.6,0,0.758,0,0,0,0, ,0,0,0,0,0, ,938.9,312,-23.5,-5.4,-3.8,-19.7,25,960.959,228.245,-11.4186,-3.9224,-4.50942,-19.3175,
2026_06_10_18_52_43.368,3.866,29.6,0,0.759,0,0,0,0, ,0,0,0,0,0, ,938.1,308.1,-23.3,-2,-4.4,-21.9,25,959.591,233.23,-12.1487,-3.90885,-4.48447,-19.4078,
2026_06_10_18_52_43.387,3.866,29.6,0,0.759,0,0,0,0, ,0,0,0,0,0, ,936,315.3,-31.6,0.4,-5.1,-25.4,25,958.217,238.011,-13.0811,-3.7194,-4.50065,-19.6663,
2026_06_10_18_52_43.407,3.866,29.6,0,0.759,0,0,0,0, ,0,0,0,0,0, ,929.3,342.4,-24,-0.1,-5.6,-27.8,25,956.659,243.547,-13.978,-3.48361,-4.55241,-20.0889,
2026_06_10_18_52_43.427,3.866,29.6,0,0.759,0,0,0,0, ,0,0,0,0,0, ,924.5,358.3,-23.3,1.3,-8,-26.3,25,954.846,250.055,-14.5674,-3.23476,-4.68937,-20.5131,
2026_06_10_18_52_43.447,3.866,29.6,0,0.758,0,0,0,0, ,0,0,0,0,0, ,922.4,355.3,-25.2,-7.6,-10.9,-26.4,25,952.932,256.56,-15.1574,-3.2296,-4.97947,-20.8687,
2026_06_10_18_52_43.466,3.866,29.6,0,0.758,0,0,0,0, ,0,0,0,0,0, ,920.2,352.5,-23.8,-11.9,-14,-28.5,25,951.005,262.492,-15.7268,-3.62694,-5.4347,-21.2698,
2026_06_10_18_52_43.486,3.866,29.6,0,0.76,0,0,0,0, ,0,0,0,0,0, ,917.3,369.9,-57.9,-14.2,-14.9,-30.2,25,949.039,268.507,-17.2577,-4.20115,-5.98407,-21.7622,
2026_06_10_18_52_43.506,3.866,29.6,0,0.759,0,0,0,0, ,0,0,0,0,0, ,909.5,374,-64.9,-12.4,-11.6,-32.8,25,946.868,274.81,-19.9476,-4.75561,-6.42684,-22.3556,
2026_06_10_18_52_43.526,3.866,29.6,0,0.759,0,0,0,0, ,0,0,0,0,0, ,892.2,396.8,-72.9,-11.7,-10,-46.7,25,944.063,281.549,-22.9307,-5.20012,-6.69333,-23.4155,
2026_06_10_18_52_43.546,3.866,29.6,0,0.759,0,0,0,0, ,0,0,0,0,0, ,914,401.1,-56.7,-20.1,-18.5,-48,25,941.567,288.703,-25.4821,-5.85214,-7.15382,-24.8741,
2026_06_10_18_52_43.566,3.866,29.5,0,0.758,0,0,0,0, ,0,0,0,0,0, ,987.3,420.5,-70.9,-25.6,-25,-51,25,942.121,296.144,-27.8171,-6.88795,-8.04327,-26.3747,
2026_06_10_18_52_43.585,3.866,29.5,0,0.76,0,0,0,0.001, ,0,0,0,0,0, ,945.9,424.1,-28.6,-24.7,-19.1,-49.8,25,943.612,303.831,-29.1536,-8.00079,-8.89681,-27.8387,
2026_06_10_18_52_43.605,3.866,29.5,0,0.758,0,0,0,0.001, ,0,0,0,0,0, ,849.8,447.6,-20.3,-25,9.1,-49.4,25,940.824,311.876,-28.867,-9.02754,-8.65934,-29.1648,
2026_06_10_18_52_43.625,3.866,29.6,0,0.759,0,0,0,0.001, ,0,0,0,0,0, ,860.1,459.9,-11.8,-29.5,13.3,-42.7,25,935.591,320.522,-28.0859,-10.138,-7.44916,-30.1938,
2026_06_10_18_52_43.645,3.866,29.6,0,0.759,0,0,0,0, ,0,0,0,0,0, ,889.1,466.5,-24.4,-35.2,1.6,-37.6,25,931.874,329.216,-27.4774,-11.4915,-6.54125,-30.8005,
2026_06_10_18_52_43.665,3.866,29.6,0,0.758,0,0,0,0, ,0,0,0,0,0, ,869.9,476.8,-34.6,-34.2,3,-35.3,25,928.683,337.896,-27.6007,-12.9058,-6.00248,-31.1447,
2026_06_10_18_52_43.685,3.866,29.6,0,0.757,0,0,0,0, ,0,0,0,0,0, ,816.4,500.7,-27.5,-26.1,12.1,-35.6,25,923.47,347.088,-27.8109,-13.9566,-5.17663,-31.4071,
2026_06_10_18_52_43.704,3.866,29.6,0,0.758,0,0,0,0, ,0,0,0,0,0, ,752.1,539.9,-17.5,-23,14.2,-41.6,25,914.987,357.643,-27.4872,-14.6021,-4.05985,-31.8454,
2026_06_10_18_52_43.724,3.866,29.5,0,0.758,0,0,0,0, ,0,0,0,0,0, ,813.8,531.3,4.2,-22.5,5.7,-45.6,25,906.941,368.488,-26.2175,-15.0986,-3.20613,-32.5617,
2026_06_10_18_52_43.744,3.866,29.6,0,0.758,0,0,0,0.001, ,0,0,0,0,0, ,884.5,527,-19.6,-19.7,-2,-42.3,25,903.419,378.278,-25.0891,-15.4644,-2.89802,-33.2557,
2026_06_10_18_52_43.764,3.866,29.5,0,0.759,0,0,0,0, ,0,0,0,0,0, ,845,550.7,-8.7,-14.9,-1.4,-38.3,25,901.063,388.063,-24.4225,-15.5762,-2.82501,-33.6849,
2026_06_10_18_52_43.784,3.866,29.6,0,0.758,0,0,0,0.001, ,0,0,0,0,0, ,783.9,589.8,10.8,-12.1,1.8,-38.5,25,895.785,399.165,-22.8702,-15.4497,-2.64068,-33.9723,
2026_06_10_18_52_43.804,3.866,29.5,0,0.76,0,0,0,0.001, ,0,0,0,0,0, ,759.6,620.8,-0.9,-10.6,4.2,-41.9,25,888.226,411.726,-21.1749,-15.1999,-2.29695,-34.3518,
2026_06_10_18_52_43.824,3.866,29.6,0,0.757,0,0,0,0.001, ,0,0,0,0,0, ,759.6,617.3,2.1,-9.5,10.4,-45.8,25,880.388,424.36,-19.848,-14.8861,-1.71213,-34.9306,
2026_06_10_18_52_43.844,3.866,29.5,0,0.758,0,0,0,0.001, ,0,0,0,0,0, ,797.3,613.6,1.9,-9.6,-0.6,-50.4,25,874.176,436.005,-18.5167,-14.5609,-1.30921,-35.7331,
2026_06_10_18_52_43.863,3.866,29.6,0,0.76,0,0,0,0.001, ,0,0,0,0,0, ,839.8,621.5,-17.4,2.4,-4.3,-47.9,25,870.787,447.068,-17.8606,-13.893,-1.37872,-36.5507,
2026_06_10_18_52_43.883,3.866,29.6,0,0.758,0,0,0,0.001, ,0,0,0,0,0, ,820.5,635.7,7,6.5,0,-39.2,25,868.31,458.13,-17.0891,-12.7752,-1.42572,-36.9772,
2026_06_10_18_52_43.903,3.866,29.4,0,0.759,0,0,0,0.001, ,0,0,0,0,0, ,756.7,656.4,26.4,4.4,1.7,-35.2,25,863.453,469.581,-15.03,-11.6646,-1.28705,-36.9908,
2026_06_10_18_52_43.923,3.866,29.5,0,0.757,0,0,0,0.002, ,0,0,0,0,0, ,723.8,676.3,7.8,6.9,6.2,-41.9,25,855.945,481.572,-13.0721,-10.6095,-0.967914,-37.0858,
2026_06_10_18_52_43.943,3.866,29.5,0,0.758,0,0,0,0.002, ,0,0,0,0,0, ,733.6,666,16.2,17.4,8.7,-41.3,25,848.191,493.124,-11.5443,-9.22257,-0.454948,-37.3609,
2026_06_10_18_52_43.962,3.866,29.4,0,0.759,0,0,0,0.002, ,0,0,0,0,0, ,741.5,680.6,-2.8,12.5,3.5,-43.4,25,841.449,504.104,-10.4325,-7.74956,-0.0555057,-37.6649,
2026_06_10_18_52_43.982,3.866,29.4,0,0.758,0,0,0,0.003, ,0,0,0,0,0, ,718.1,692.5,-3.1,7.5,3.4,-42.8,25,834.645,515.221,-9.97656,-6.66794,0.158111,-37.9961,
2026_06_10_18_52_44.001,3.866,29.5,0,0.758,0,0,0,0.003, ,0,0,0,0,0, ,679.3,704.1,12.5,7.9,6.1,-43.6,25,826.361,526.378,-9.08221,-5.7924,0.437929,-38.3132,
2026_06_10_18_52_44.021,3.866,29.6,0,0.759,0,0,0,0.002, ,0,0,0,0,0, ,656.9,708.1,22,2.4,8.3,-49.1,25,816.717,537.33,-7.47759,-5.12559,0.849993,-38.8029,
2026_06_10_18_52_44.041,3.866,29.4,0,0.759,0,0,0,0.001, ,0,0,0,0,0, ,674.6,703.3,16.4,4.3,4.5,-58.9,25,807.518,547.59,-5.85193,-4.60911,1.1882,-39.729,
2026_06_10_18_52_44.062,3.866,29.5,0,0.758,0,0,0,0.003, ,0,0,0,0,0, ,737.5,705.4,2,2,-0.4,-54.2,25,801.334,557.142,-4.9347,-4.13629,1.24071,-40.754,
2026_06_10_18_52_44.081,3.866,29.5,0,0.758,0,0,0,0.002, ,0,0,0,0,0, ,722.7,709.7,14.6,-2.5,-1.6,-44.8,25,796.994,566.308,-4.12821,-3.89947,1.10417,-41.287,
2026_06_10_18_52_44.101,3.866,29.4,0,0.758,0,0,0,0.002, ,0,0,0,0,0, ,650.3,741.6,8,-1,0.2,-39.9,25,790.26,576.018,-3.18805,-3.76849,0.994228,-41.3518,
2026_06_10_18_52_44.121,3.866,29.4,0,0.76,0,0,0,0.003, ,0,0,0,0,0, ,625.8,752.5,4.2,-3,0.1,-40.4,25,780.985,586.44,-2.62206,-3.66072,0.942782,-41.2785,
2026_06_10_18_52_44.140,3.866,29.5,0,0.757,0,0,0,0.003, ,0,0,0,0,0, ,599.3,768.6,13,-6.6,-0.1,-44,25,770.721,597.05,-1.93822,-3.73015,0.885332,-41.3347,
2026_06_10_18_52_44.160,3.866,29.5,0,0.758,0,0,0,0.002, ,0,0,0,0,0, ,614.1,765.1,20.3,-8.3,3.6,-45.1,25,760.726,607.397,-0.805499,-3.95682,0.938022,-41.5306,
2026_06_10_18_52_44.181,3.866,29.4,0,0.758,0,0,0,0.002, ,0,0,0,0,0, ,606,762,28.1,-15.7,3.9,-43.2,25,751.544,616.913,0.718274,-4.44695,1.10938,-41.6902,
2026_06_10_18_52_44.200,3.866,29.4,0,0.758,0,0,0,0.003, ,0,0,0,0,0, ,587.7,764.8,25.5,-17.8,5.1,-43.5,25,742.118,625.839,2.30763,-5.19667,1.31599,-41.7914,
2026_06_10_18_52_44.220,3.866,29.4,0,0.757,0,0,0,0.003, ,0,0,0,0,0, ,563.3,777.5,45.2,-24.5,1.6,-49.1,25,731.964,634.694,4.32115,-6.16883,1.43994,-42.0661,
2026_06_10_18_52_44.240,3.866,29.4,0,0.759,0,0,0,0.003, ,0,0,0,0,0, ,556.7,803.2,64.2,-35.5,-3,-55.6,25,721.485,644.179,7.39111,-7.62104,1.30954,-42.6928,
2026_06_10_18_52_44.260,3.866,29.4,0,0.758,0,0,0,0.003, ,0,0,0,0,0, ,577.5,835.8,68.4,-104,-8.3,-52.9,25,712.077,654.863,10.9809,-11.407,0.885441,-43.3971,
2026_06_10_18_52_44.282,3.866,29.4,0,0.757,0,0,0,0.003, ,0,0,0,0,0, ,537.5,800.4,120.7,-99,-14.1,-39.8,25,702.658,664.81,16.0734,-16.8971,0.148985,-43.577,
2026_06_10_18_52_44.299,3.866,29.5,0,0.759,0,0,0,0.003, ,0,0,0,0,0, ,504.3,807.3,89.3,-48.5,1.6,-44.5,25,691.582,673.283,21.4923,-20.3615,-0.240953,-43.4901,
2026_06_10_18_52_44.318,3.866,29.5,0,0.758,0,0,0,0.003, ,0,0,0,0,0, ,469.8,827,125.6,-21,9.8,-51,25,679.118,682.05,26.7304,-21.2383,0.121073,-43.7496,
2026_06_10_18_52_44.339,3.866,29.4,0,0.758,0,0,0,0.003, ,0,0,0,0,0, ,496.8,834.7,138.6,-27.6,8.8,-52.9,25,667.186,691.117,33.1513,-21.4249,0.680414,-44.2494,
2026_06_10_18_52_44.359,3.866,29.4,0,0.758,0,0,0,0.004, ,0,0,0,0,0, ,489,860.3,89.1,-28.9,6.9,-53.3,25,656.565,700.647,38.0689,-21.8408,1.11731,-44.7887,
2026_06_10_18_52_44.378,3.866,29.4,0,0.757,0,0,0,0.004, ,0,0,0,0,0, ,468.6,862.3,102.1,-17,7.2,-51.7,25,645.733,710.437,41.5747,-21.9084,1.47883,-45.2586,
2026_06_10_18_52_44.398,3.866,29.4,0,0.759,0,0,0,0.004, ,0,0,0,0,0, ,401.6,885.9,143.9,-14,4.4,-52.7,25,632.897,720.41,46.5366,-21.5179,1.74216,-45.6816,
2026_06_10_18_52_44.418,3.866,29.5,0,0.758,0,0,0,0.004, ,0,0,0,0,0, ,396.1,869.5,172.3,-18.4,8.8,-57.3,25,618.635,729.995,53.335,-21.1938,2.03818,-46.2494,
2026_06_10_18_52_44.441,3.866,29.4,0,0.759,0,0,0,0.003, ,0,0,0,0,0, ,438.8,863.4,154,-15.2,10,-60.1,25,606.375,738.31,60.0268,-20.9261,2.48679,-47.0081,
2026_06_10_18_52_44.457,3.866,29.4,0,0.758,0,0,0,0.004, ,0,0,0,0,0, ,456.7,856.9,156.6,-15,8.9,-50.8,25,596.709,745.735,65.8325,-20.5711,2.91111,-47.5226,
2026_06_10_18_52_44.478,3.866,29.5,0,0.758,0,0,0,0.004, ,0,0,0,0,0, ,462.4,869.3,183.1,-7.1,-3.7,-42.9,25,588.351,752.887,72.1711,-19.9909,2.89215,-47.4816,
2026_06_10_18_52_44.497,3.866,29.4,0,0.759,0,0,0,0.003, ,0,0,0,0,0, ,489.7,927.3,174.5,-7.5,-8.8,-34.6,25,581.507,761.748,78.6688,-19.2175,2.33505,-46.9495,
2026_06_10_18_52_44.518,3.866,29.5,0,0.758,0,0,0,0.004, ,0,0,0,0,0, ,419.7,936,145,-9.3,-4.8,-33.4,25,573.78,772.101,83.6097,-18.5583,1.77839,-46.1604,
2026_06_10_18_52_44.537,3.866,29.5,0,0.758,0,0,0,0.003, ,0,0,0,0,0, ,369,916.7,154.5,-6.7,1.1,-33.1,25,562.846,781.501,87.6401,-17.9149,1.55728,-45.3737,
2026_06_10_18_52_44.556,3.866,29.4,0,0.757,0,0,0,0.003, ,0,0,0,0,0, ,347.1,921.6,180.9,-4.1,4.4,-32.9,25,550.366,789.889,92.5187,-17.1523,1.62996,-44.6196,
2026_06_10_18_52_44.576,3.866,29.4,0,0.759,0,0,0,0.004, ,0,0,0,0,0, ,346.6,916.9,193.6,-1.1,2.1,-31.4,25,537.965,797.772,98.2914,-16.2655,1.72868,-43.8598,
2026_06_10_18_52_44.602,3.866,29.4,0,0.758,0,0,0,0.004, ,0,0,0,0,0, ,338.3,910.2,202.1,-2,2.5,-33.2,25,526.05,804.827,104.358,-15.3688,1.7635,-43.1554,
2026_06_10_18_52_44.617,3.866,29.4,0,0.758,0,0,0,0.004, ,0,0,0,0,0, ,310.7,927.6,198.9,-4.4,2.9,-36.4,25,513.768,811.778,110.217,-14.6273,1.82057,-42.6462,
2026_06_10_18_52_44.636,3.866,29.4,0,0.758,0,0,0,0.004, ,0,0,0,0,0, ,301.1,947.5,180.6,-2.9,8.6,-33,25,501.101,819.442,115.063,-13.9583,2.06002,-42.162,
2026_06_10_18_52_44.656,3.866,29.4,0,0.759,0,0,0,0.004, ,0,0,0,0,0, ,307,939.9,177.7,-3.5,9.3,-31,25,489.094,827.014,118.969,-13.3027,2.47987,-41.5427,
2026_06_10_18_52_44.675,3.866,29.4,0,0.757,0,0,0,0.005, ,0,0,0,0,0, ,301.1,932.2,177.4,-4.1,4.7,-30.1,25,477.818,833.659,122.539,-12.7237,2.75532,-40.8729,
2026_06_10_18_52_44.695,3.866,29.4,0,0.758,0,0,0,0.005, ,0,0,0,0,0, ,271.8,941.4,179.3,0.7,3.6,-29.6,25,466.156,839.944,125.94,-12.0519,2.84031,-40.2012,
2026_06_10_18_52_44.715,3.866,29.4,0,0.758,0,0,0,0.005, ,0,0,0,0,0, ,233,945.4,196.7,3,6,-31,25,453.13,846.248,129.721,-11.2048,2.95973,-39.5978,
2026_06_10_18_52_44.735,3.866,29.5,0,0.757,0,0,0,0.005, ,0,0,0,0,0, ,244,915.8,190.4,3.2,-0.2,-29.8,25,440.051,851.388,133.611,-10.3331,2.95609,-39.0373,
2026_06_10_18_52_44.755,3.866,29.5,0,0.757,0,0,0,0.004, ,0,0,0,0,0, ,253.4,945,196.8,10.8,-3.8,-23.1,25,428.391,856.203,137.266,-9.27684,2.65408,-38.2703,
2026_06_10_18_52_44.775,3.866,29.4,0,0.759,0,0,0,0.004, ,0,0,0,0,0, ,239.9,961.7,195.3,14.2,10.5,-23.4,25,417.316,862.123,140.849,-7.94981,2.69648,-37.355,
2026_06_10_18_52_44.795,3.866,29.5,0,0.756,0,0,0,0.005, ,0,0,0,0,0, ,238,958.2,175.2,7.8,9.7,-29.2,25,406.447,868.084,143.554,-6.79506,3.14764,-36.6813,
2026_06_10_18_52_44.814,3.866,29.4,0,0.758,0,0,0,0.004, ,0,0,0,0,0, ,226.1,971.8,164.9,3.8,1.6,-31.3,25,395.82,873.99,145.169,-6.02755,3.30012,-36.2894,
2026_06_10_18_52_44.834,3.866,29.5,0,0.759,0,0,0,0.005, ,0,0,0,0,0, ,209.3,1006.2,186.8,3.7,5.2,-32.4,25,384.965,880.999,147.039,-5.43173,3.30621,-36.0189,
2026_06_10_18_52_44.854,3.866,29.4,0,0.758,0,0,0,0.004, ,0,0,0,0,0, ,220.8,1003.4,177.3,3.3,7.4,-31.6,25,374.611,888.543,149.172,-4.88745,3.48864,-35.774,
2026_06_10_18_52_44.874,3.866,29.4,0,0.757,0,0,0,0.005, ,0,0,0,0,0, ,234.7,994.6,160.7,2.5,10.4,-29.1,25,365.662,895.274,150.38,-4.4129,3.8184,-35.4435,
2026_06_10_18_52_44.893,3.866,29.4,0,0.758,0,0,0,0.005, ,0,0,0,0,0, ,219.7,972.2,158.8,2,15.4,-24.5,25,357.224,900.644,150.951,-4.00688,4.37181,-34.9167,
2026_06_10_18_52_44.920,3.866,29.4,0,0.758,0,0,0,0.005, ,0,0,0,0,0, ,192.1,955.3,172.6,0.7,12.1,-26.1,25,348.003,904.489,151.85,-3.68045,4.94329,-34.3307,
2026_06_10_18_52_44.933,3.866,29.4,0,0.758,0,0,0,0.005, ,0,0,0,0,0, ,169.7,959.4,178.9,2.2,13.2,-30.9,25,337.82,907.711,153.306,-3.36781,5.41292,-33.9754,
2026_06_10_18_52_44.954,3.866,29.4,0,0.758,0,0,0,0.005, ,0,0,0,0,0, ,169.7,957.5,175.7,2.1,11.6,-33.2,25,327.575,910.803,154.769,-3.03157,5.83869,-33.8581,
2026_06_10_18_52_44.973,3.866,29.5,0,0.758,0,0,0,0.005, ,0,0,0,0,0, ,192.3,948.1,165.1,2.6,4.8,-30,25,318.643,913.362,155.721,-2.70363,5.98259,-33.7205,
2026_06_10_18_52_44.993,3.866,29.4,0,0.757,0,0,0,0.005, ,0,0,0,0,0, ,195.1,939.3,168,7.3,2.5,-24.7,25,311.03,915.211,156.381,-2.23724,5.84044,-33.3323,
2026_06_10_18_52_45.013,3.866,29.4,0,0.758,0,0,0,0.005, ,0,0,0,0,0, ,170.8,953.6,180.6,11.2,-3.2,-22.7,25,303.225,917.114,157.473,-1.53723,5.46321,-32.7453,
2026_06_10_18_52_45.032,3.866,29.4,0,0.757,0,0,0,0.006, ,0,0,0,0,0, ,143.7,959.2,170.2,14.4,-3.9,-21.7,25,294.329,919.508,158.565,-0.663557,4.91397,-32.1027,
2026_06_10_18_52_45.052,3.866,29.4,0,0.759,0,0,0,0.006, ,0,0,0,0,0, ,111.9,948.9,162.1,17.2,-2,-24,25,284.182,921.613,159.028,0.339691,4.43476,-31.5389,
2026_06_10_18_52_45.073,3.866,29.3,0,0.759,0,0,0,0.006, ,0,0,0,0,0, ,112.7,965.9,168.5,15.1,0.4,-30.7,25,273.708,923.794,159.41,1.30313,4.11577,-31.2836,
2026_06_10_18_52_45.092,3.866,29.4,0,0.758,0,0,0,0.007, ,0,0,0,0,0, ,138.4,983.7,138.5,11.4,-8.8,-31.4,25,264.679,926.902,159.05,2.03114,3.60903,-31.2694,
2026_06_10_18_52_45.112,3.866,29.4,0,0.758,0,0,0,0.006, ,0,0,0,0,0, ,114.2,984.2,110.7,13.7,-15.5,-27.4,25,256.247,930.378,156.95,2.67214,2.64871,-31.1555,
2026_06_10_18_52_45.132,3.866,29.4,0,0.759,0,0,0,0.006, ,0,0,0,0,0, ,86.1,981.3,116.5,22.4,-11.1,-25.8,25,246.735,933.57,154.309,3.60922,1.67684,-30.8779,
2026_06_10_18_52_45.151,3.866,29.5,0,0.759,0,0,0,0.006, ,0,0,0,0,0, ,67.8,984.7,138.7,21.8,-4.3,-25,25,236.388,936.582,152.681,4.73601,1.10543,-30.5441,
2026_06_10_18_52_45.171,3.866,29.4,0,0.76,0,0,0,0.005, ,0,0,0,0,0, ,69.9,980.5,111.9,18.7,-2.2,-23.4,25,226.179,939.386,151.013,5.68139,0.840025,-30.1575,
2026_06_10_18_52_45.191,3.866,29.5,0,0.758,0,0,0,0.006, ,0,0,0,0,0, ,64,969.8,88.6,21.6,0.4,-22.8,25,216.476,941.566,147.919,6.56307,0.733993,-29.7274,
2026_06_10_18_52_45.211,3.866,29.4,0,0.758,0,0,0,0.005, ,0,0,0,0,0, ,51.2,975,121,23.8,2.5,-24.1,25,206.794,943.444,145.292,7.54642,0.777624,-29.3449,
2026_06_10_18_52_45.231,3.866,29.5,0,0.759,0,0,0,0.006, ,0,0,0,0,0, ,53.8,997.5,131.7,15.2,-4,-24,25,197.392,946.053,144.137,8.27484,0.684535,-29.0222,
2026_06_10_18_52_45.255,3.866,29.4,0,0.758,0,0,0,0.005, ,0,0,0,0,0, ,48.5,1014.2,92.2,10,-8.8,-22.1,25,188.48,949.697,142.176,8.5384,0.252821,-28.6583,
2026_06_10_18_52_45.271,3.866,29.5,0,0.757,0,0,0,0.006, ,0,0,0,0,0, ,38.9,1009,59.5,16,-2.4,-18,25,179.658,953.469,138.134,8.81028,-0.103835,-28.1337,
2026_06_10_18_52_45.291,3.866,29.4,0,0.758,0,0,0,0.006, ,0,0,0,0,0, ,38.9,1005.4,70.4,23.9,0.9,-15.3,25,171.08,956.743,133.675,9.48911,-0.143211,-27.4339,
2026_06_10_18_52_45.311,3.866,29.4,0,0.759,0,0,0,0.006, ,0,0,0,0,0, ,35.8,1023.3,89.8,17.2,-3.7,-14.7,25,162.931,960.254,130.41,10.1631,-0.219797,-26.6762,
2026_06_10_18_52_45.330,3.866,29.4,0,0.759,0,0,0,0.006, ,0,0,0,0,0, ,55.5,1021.1,86.3,7.7,-6.7,-11.6,25,155.784,964.029,127.829,10.3025,-0.523278,-25.852,
2026_06_10_18_52_45.349,3.866,29.4,0,0.759,0,0,0,0.006, ,0,0,0,0,0, ,14.2,1012.2,72.8,6.4,-2.9,-10.7,25,148.415,967.235,124.887,10.1043,-0.78389,-24.9561,
2026_06_10_18_52_45.370,3.866,29.4,0,0.759,0,0,0,0.007, ,0,0,0,0,0, ,11.3,1009.2,55.6,0.1,-2,-11.1,25,140.148,969.884,121.189,9.6866,-0.885419,-24.0995,
2026_06_10_18_52_45.390,3.866,29.4,0,0.76,0,0,0,0.007, ,0,0,0,0,0, ,12,1018.4,46.3,-2.1,-2.3,-15,25,132.318,972.56,116.908,9.03539,-0.962479,-23.4262,
2026_06_10_18_52_45.415,3.866,29.5,0,0.757,0,0,0,0.007, ,0,0,0,0,0, ,-1,1006.3,76.9,2.4,-0.9,-13.3,25,124.59,974.985,113.538,8.49394,-1.00133,-22.8609,
2026_06_10_18_52_45.429,3.866,29.4,0,0.76,0,0,0,0.006, ,0,0,0,0,0, ,-14.8,981.3,87.6,1.6,0.4,-13.5,25,116.516,976.131,111.631,8.09821,-0.955544,-22.2844,
2026_06_10_18_52_45.449,3.866,29.5,0,0.757,0,0,0,0.007, ,0,0,0,0,0, ,-23.6,970.4,82.1,-1,-3.3,-15.7,25,108.246,976.114,109.999,7.62301,-0.985675,-21.8161,
2026_06_10_18_52_45.469,3.866,29.4,0,0.757,0,0,0,0.006, ,0,0,0,0,0, ,-7.9,996.5,61.1,-1,-0.7,-15.7,25,100.69,976.561,107.659,7.09754,-1.04749,-21.4434,
2026_06_10_18_52_45.488,3.866,29.5,0,0.757,0,0,0,0.007, ,0,0,0,0,0, ,8.7,1007.6,45.8,1.4,1.9,-14.6,25,94.5785,978.114,104.356,6.67722,-0.947092,-21.0599,
2026_06_10_18_52_45.508,3.866,29.5,0,0.759,0,0,0,0.006, ,0,0,0,0,0, ,9.6,1006.2,67.8,-3.1,-2.6,-16.9,25,89.3727,979.868,101.458,6.21853,-0.910707,-20.7364,
2026_06_10_18_52_45.528,3.866,29.4,0,0.759,0,0,0,0.006, ,0,0,0,0,0, ,-18.3,1040.2,41.7,-2.3,-3.4,-13,25,83.6614,982.509,98.6118,5.67506,-1.03802,-20.3838,
2026_06_10_18_52_45.548,3.866,29.5,0,0.761,0,0,0,0.007, ,0,0,0,0,0, ,-21.1,1021.4,49.6,6.4,4.5,-11,25,77.3628,985.452,95.3845,5.45416,-0.941253,-19.8729,
2026_06_10_18_52_45.574,3.866,29.4,0,0.758,0,0,0,0.006, ,0,0,0,0,0, ,-21.4,1002.8,62.9,3.8,-2.2,-7.4,25,71.3536,987.076,92.9997,5.43258,-0.813817,-19.2225,
2026_06_10_18_52_45.588,3.866,29.5,0,0.757,0,0,0,0.007, ,0,0,0,0,0, ,-27.9,989.1,77,-1.8,-3.5,-6.4,25,65.5034,987.616,91.5951,5.16247,-0.937897,-18.4716,
2026_06_10_18_52_45.607,3.866,29.5,0,0.759,0,0,0,0.006, ,0,0,0,0,0, ,-28.8,991.9,59.2,-0.4,0.1,-3.8,25,59.7842,987.792,90.1634,4.78085,-0.984338,-17.6568,
2026_06_10_18_52_45.627,3.866,29.4,0,0.758,0,0,0,0.006, ,0,0,0,0,0, ,-23,989.5,48.3,1.4,-1.2,-2.4,25,54.5628,987.969,87.9444,4.51998,-0.95787,-16.7697,
2026_06_10_18_52_45.648,3.866,29.5,0,0.758,0,0,0,0.007, ,0,0,0,0,0, ,-32.2,986.8,49.5,1.2,-2.5,-2.1,25,49.556,987.98,85.5652,4.32377,-1.01223,-15.8849,
2026_06_10_18_52_45.666,3.866,29.5,0,0.758,0,0,0,0.007, ,0,0,0,0,0, ,-39.3,984.4,64.3,-0.2,-3.4,-2.6,25,44.3577,987.835,83.8184,4.09076,-1.13032,-15.0601,
2026_06_10_18_52_45.687,3.866,29.5,0,0.758,0,0,0,0.007, ,0,0,0,0,0, ,-41.9,991.8,80,-4.3,-3.2,0,25,39.1806,987.851,83.1073,3.70437,-1.26253,-14.2216,
2026_06_10_18_52_45.707,3.866,29.5,0,0.758,0,0,0,0.007, ,0,0,0,0,0, ,-30.7,1002.1,42.6,-5.4,4.7,2.6,25,34.581,988.406,81.7785,3.18308,-1.13989,-13.2758,
2026_06_10_18_52_45.727,3.866,29.5,0,0.759,0,0,0,0.007, ,0,0,0,0,0, ,-34.9,1002.4,54.9,0,5,0.7,25,30.475,989.249,79.7658,2.82458,-0.774884,-12.3662,
2026_06_10_18_52_45.747,3.866,29.4,0,0.758,0,0,0,0.007, ,0,0,0,0,0, ,-21.4,989.1,61.1,-0.3,0.8,-1.2,25,26.9025,989.646,78.4394,2.64332,-0.550946,-11.6279,
2026_06_10_18_52_45.766,3.866,29.5,0,0.757,0,0,0,0.008, ,0,0,0,0,0, ,-25.6,983.5,65.5,-2.1,-1.2,-1.3,25,23.8311,989.442,77.5169,2.40912,-0.52956,-10.9955,
2026_06_10_18_52_45.786,3.866,29.5,0,0.758,0,0,0,0.007, ,0,0,0,0,0, ,-33.8,993.6,54.4,2.5,-0.2,-3.5,25,20.5691,989.387,76.4464,2.2745,-0.539946,-10.4717,
2026_06_10_18_52_45.806,3.866,29.4,0,0.759,0,0,0,0.007, ,0,0,0,0,0, ,-23.3,999.2,64.3,6.1,-2.9,-5.3,25,17.5759,989.815,75.4046,2.39793,-0.601497,-10.1017,
2026_06_10_18_52_45.825,3.866,29.5,0,0.76,0,0,0,0.008, ,0,0,0,0,0, ,-30.1,999.1,69.8,7.2,-1.9,-5.1,25,14.8778,990.384,74.8955,2.65704,-0.711093,-9.80302,
2026_06_10_18_52_45.846,3.866,29.5,0,0.758,0,0,0,0.007, ,0,0,0,0,0, ,-41,1004,65.3,3.4,1.7,-5.5,25,11.8049,991.064,74.4479,2.81809,-0.673854,-9.52861,
2026_06_10_18_52_45.866,3.866,29.4,0,0.758,0,0,0,0.007, ,0,0,0,0,0, ,-22,1000.1,33.8,0.8,2,-3.9,25,9.16597,991.733,72.9307,2.77434,-0.520057,-9.23437,
2026_06_10_18_52_45.886,3.866,29.4,0,0.758,0,0,0,0.008, ,0,0,0,0,0, ,-21.9,997.4,33.2,0.9,-0.8,-3.1,25,7.26984,992.161,70.5278,2.65707,-0.451804,-8.88493,
2026_06_10_18_52_45.909,3.866,29.5,0,0.757,0,0,0,0.008, ,0,0,0,0,0, ,-36.2,1002.5,57.2,1.2,-1.1,-2.1,25,5.0566,992.636,68.9844,2.55914,-0.482162,-8.50194,
2026_06_10_18_52_45.924,3.866,29.4,0,0.758,0,0,0,0.007, ,0,0,0,0,0, ,-33.6,1002.6,51.8,1.8,2.7,-1.8,25,2.62174,993.24,68.1018,2.4946,-0.404031,-8.10268,
2026_06_10_18_52_45.945,3.866,29.5,0,0.757,0,0,0,0.008, ,0,0,0,0,0, ,-34.3,993.2,39.1,-0.1,3.6,-0.3,25,0.393152,993.524,66.7214,2.39438,-0.187457,-7.67291,
2026_06_10_18_52_45.965,3.866,29.4,0,0.758,0,0,0,0.007, ,0,0,0,0,0, ,-32.8,997.3,45.8,-3.8,-0.1,0,25,-1.67526,993.629,65.2424,2.12965,-0.0693931,-7.21448,
2026_06_10_18_52_45.984,3.866,29.4,0,0.757,0,0,0,0.008, ,0,0,0,0,0, ,-28,999.1,51.5,-4.6,-1.3,0.5,25,-3.42567,993.908,64.2313,1.74393,-0.107821,-6.75962,
2026_06_10_18_52_46.004,3.866,29.5,0,0.758,0,0,0,0.008, ,0,0,0,0,0, ,-30.5,998.4,50.7,-3,-0.1,1.3,25,-4.99934,994.203,63.4311,1.4061,-0.143907,-6.29286,
2026_06_10_18_52_46.024,3.866,29.5,0,0.759,0,0,0,0.008, ,0,0,0,0,0, ,-30.5,994.2,50.7,-4.2,0.7,2.3,25,-6.55329,994.33,62.6553,1.10104,-0.116856,-5.7997,
2026_06_10_18_52_46.044,3.866,29.5,0,0.759,0,0,0,0.008, ,0,0,0,0,0, ,-24.4,995.3,51.5,-4.5,-1.4,2.2,25,-7.82668,994.356,61.9512,0.768868,-0.131063,-5.30917,
2026_06_10_18_52_46.068,3.866,29.5,0,0.758,0,0,0,0.008, ,0,0,0,0,0, ,-23.4,1001.4,59.8,-5.1,-2,2.4,25,-8.80615,994.599,61.5672,0.429515,-0.22667,-4.84549,
2026_06_10_18_52_46.083,3.866,29.5,0,0.757,0,0,0,0.008, ,0,0,0,0,0, ,-29,1000,53.8,-7.2,-1.9,2.5,25,-9.86609,994.971,61.2767,0.0285758,-0.331686,-4.40092,
2026_06_10_18_52_46.103,3.866,29.4,0,0.757,0,0,0,0.008, ,0,0,0,0,0, ,-27.4,996.5,62.2,-8.3,-0.5,2.6,25,-10.9833,995.171,61.077,-0.445431,-0.384599,-3.97735,
2026_06_10_18_52_46.122,3.866,29.5,0,0.759,0,0,0,0.009, ,0,0,0,0,0, ,-23.1,1000.2,72,-6.5,2.3,2.3,25,-11.8527,995.365,61.444,-0.869225,-0.306318,-3.58568,
2026_06_10_18_52_46.143,3.866,29.4,0,0.757,0,0,0,0.008, ,0,0,0,0,0, ,-20.1,1004,59.9,-6.7,2.2,1.8,25,-12.4467,995.775,61.7186,-1.21844,-0.150543,-3.24226,
2026_06_10_18_52_46.163,3.866,29.5,0,0.758,0,0,0,0.009, ,0,0,0,0,0, ,-10.9,985.9,59,-8.6,-2.1,1.5,25,-12.6327,995.725,61.5804,-1.61037,-0.138322,-2.94413,
2026_06_10_18_52_46.183,3.866,29.5,0,0.757,0,0,0,0.008, ,0,0,0,0,0, ,-14.5,970.5,67.5,-4.7,-3.5,1.2,25,-12.6368,994.657,61.6821,-1.91747,-0.300518,-2.68246,
2026_06_10_18_52_46.202,3.866,29.5,0,0.757,0,0,0,0.008, ,0,0,0,0,0, ,-22.3,982.1,82.1,-0.5,-1.5,0.2,25,-12.988,993.538,62.4815,-1.95906,-0.434549,-2.47634,
2026_06_10_18_52_46.222,3.866,29.5,0,0.757,0,0,0,0.008, ,0,0,0,0,0, ,-15.7,1015,68.6,-0.3,0.7,-0.1,25,-13.3544,993.844,63.2657,-1.86406,-0.432444,-2.32239,
2026_06_10_18_52_46.242,3.866,29.5,0,0.757,0,0,0,0.008, ,0,0,0,0,0, ,-10.3,1007.5,66.6,-0.2,-0.8,1.6,25,-13.3328,994.904,63.5298,-1.7657,-0.409139,-2.13517,
2026_06_10_18_52_46.262,3.866,29.5,0,0.758,0,0,0,0.008, ,0,0,0,0,0, ,-13,995.4,76.1,-7,-5.4,4.9,25,-13.2302,995.303,64.0063,-1.87748,-0.573113,-1.80701,
2026_06_10_18_52_46.282,3.866,29.5,0,0.758,0,0,0,0.008, ,0,0,0,0,0, ,-3.4,1001.2,71,-11,-5.6,3.4,25,-12.9237,995.486,64.5879,-2.31151,-0.873345,-1.44401,
2026_06_10_18_52_46.302,3.866,29.4,0,0.758,0,0,0,0.008, ,0,0,0,0,0, ,11.2,1016.3,77.3,-10,-5.1,6.3,25,-11.8985,996.294,65.1706,-2.81049,-1.14614,-1.06046,
2026_06_10_18_52_46.322,3.866,29.5,0,0.758,0,0,0,0.009, ,0,0,0,0,0, ,-15,1024.4,89.4,-8.6,-4.9,5.6,25,-11.2892,997.76,66.2784,-3.20595,-1.38099,-0.633264,
2026_06_10_18_52_46.341,3.866,29.5,0,0.759,0,0,0,0.008, ,0,0,0,0,0, ,6.3,1042.4,75,-9.5,-4.1,6,25,-10.8664,999.932,67.2486,-3.56207,-1.57105,-0.241237,
2026_06_10_18_52_46.361,3.866,29.5,0,0.757,0,0,0,0.008, ,0,0,0,0,0, ,22,1069.7,78.1,-10.1,-4.2,9.1,25,-9.34193,1003.35,67.8154,-3.94219,-1.72821,0.233541,
2026_06_10_18_52_46.387,3.866,29.6,0,0.758,0,0,0,0.008, ,0,0,0,0,0, ,27.7,1082.1,67.1,-7.9,-5.2,14,25,-7.25836,1007.77,68.107,-4.2504,-1.9093,0.923138,
2026_06_10_18_52_46.400,3.866,29.5,0,0.758,0,0,0,0.008, ,0,0,0,0,0, ,45.7,1081.9,46,-6.7,-6.6,16.7,25,-4.57965,1012.3,67.4027,-4.43624,-2.15248,1.80227,
2026_06_10_18_52_46.420,3.866,29.4,0,0.759,0,0,0,0.009, ,0,0,0,0,0, ,35.4,1036.1,33.9,-2.4,8.4,27.2,25,-1.82956,1015.14,65.7298,-4.44317,-1.96647,3.03003,
2026_06_10_18_52_46.440,3.866,29.5,0,0.76,0,0,0,0.009, ,0,0,0,0,0, ,19.1,985.7,58.3,5.6,13.2,30.1,25,-0.0575258,1014.88,64.5336,-4.07491,-1.18851,4.59124,
2026_06_10_18_52_46.460,3.866,29.5,0,0.759,0,0,0,0.009, ,0,0,0,0,0, ,-17.4,976.8,99.2,4.7,8.4,26.5,25,-0.00222343,1012.83,65.3999,-3.51277,-0.457965,6.036,
2026_06_10_18_52_46.480,3.866,29.5,0,0.759,0,0,0,0.009, ,0,0,0,0,0, ,5.4,979.6,109,-0.3,3.3,21.3,25,-0.367713,1010.72,67.7582,-3.16465,-0.0735733,7.12458,
2026_06_10_18_52_46.500,3.866,29.6,0,0.757,0,0,0,0.009, ,0,0,0,0,0, ,37.1,980.3,96.8,-3.9,4.8,19.7,25,0.949616,1008.85,69.8997,-3.09977,0.177707,7.93965,
2026_06_10_18_52_46.520,3.866,29.5,0,0.757,0,0,0,0.008, ,0,0,0,0,0, ,41.9,957.1,86.1,-1.5,9.1,17.9,25,3.29878,1006.4,71.2129,-3.07541,0.590393,8.60145,
2026_06_10_18_52_46.545,3.866,29.5,0,0.757,0,0,0,0.009, ,0,0,0,0,0, ,39.6,954.5,90.3,-2.4,7,20.2,25,5.58096,1003.32,72.2481,-3.00683,1.04496,9.23816,
2026_06_10_18_52_46.559,3.866,29.5,0,0.758,0,0,0,0.009, ,0,0,0,0,0, ,46.3,971.5,108.2,-6,1.8,15.3,25,7.85814,1000.86,73.8935,-3.07954,1.24941,9.75685,
2026_06_10_18_52_46.579,3.866,29.5,0,0.758,0,0,0,0.009, ,0,0,0,0,0, ,89.8,979.2,98.5,-6.4,1.2,12.2,25,11.5261,999.307,75.6885,-3.26969,1.26468,10.0002,
2026_06_10_18_52_46.599,3.866,29.5,0,0.757,0,0,0,0.009, ,0,0,0,0,0, ,118,977,84.8,-1.2,3,14.5,25,17.1551,998.014,76.6611,-3.30201,1.31558,10.2043,
2026_06_10_18_52_46.619,3.866,29.5,0,0.758,0,0,0,0.009, ,0,0,0,0,0, ,116.6,975.9,98,0.2,1.4,16.6,25,23.2577,996.7,77.5593,-3.13126,1.36948,10.5301,
2026_06_10_18_52_46.638,3.866,29.5,0,0.76,0,0,0,0.009, ,0,0,0,0,0, ,102.2,980.9,123.7,-1.6,2.1,17.8,25,28.507,995.585,79.5879,-2.98311,1.39267,10.9365,
2026_06_10_18_52_46.658,3.866,29.6,0,0.759,0,0,0,0.009, ,0,0,0,0,0, ,108.7,987.5,128.9,-3.7,1.9,20.1,25,33.1957,994.891,82.4345,-2.96281,1.42967,11.4248,
2026_06_10_18_52_46.678,3.866,29.6,0,0.759,0,0,0,0.008, ,0,0,0,0,0, ,114.6,991.2,106.3,-7.7,4.2,24.4,25,37.9765,994.554,84.5774,-3.12961,1.52841,12.0845,
2026_06_10_18_52_46.704,3.866,29.5,0,0.757,0,0,0,0.008, ,0,0,0,0,0, ,116.3,990.4,93.9,-10,4.9,27.1,25,42.6976,994.325,85.5233,-3.47819,1.71254,12.9172,
2026_06_10_18_52_46.717,3.866,29.5,0,0.757,0,0,0,0.009, ,0,0,0,0,0, ,146.2,1003.6,98.6,-11.6,4.5,27.4,25,48.0937,994.488,86.1769,-3.92436,1.89459,13.7906,
2026_06_10_18_52_46.738,3.866,29.5,0,0.759,0,0,0,0.009, ,0,0,0,0,0, ,198.9,1030.8,94.4,-17,4.3,34,25,55.6778,995.872,86.806,-4.55663,2.04726,14.8211,
2026_06_10_18_52_46.757,3.866,29.5,0,0.758,0,0,0,0.009, ,0,0,0,0,0, ,170.7,1069.7,90.3,-18.3,10.5,45.5,25,63.5462,999.186,87.1438,-5.35451,2.37345,16.3402,
2026_06_10_18_52_46.777,3.866,29.6,0,0.758,0,0,0,0.009, ,0,0,0,0,0, ,155.6,1040.8,83.4,-14.8,16.2,47.9,25,69.6158,1002.6,87.1259,-6.03673,3.04233,18.1902,
2026_06_10_18_52_46.797,3.866,29.5,0,0.758,0,0,0,0.009, ,0,0,0,0,0, ,162.5,987,55.2,-12.1,16.3,46,25,75.0657,1003.29,86.0397,-6.48848,3.84717,19.9428,
2026_06_10_18_52_46.817,3.866,29.6,0,0.758,0,0,0,0.01, ,0,0,0,0,0, ,185.3,949.2,77.5,-10,4.4,43.3,25,81.0884,1001.15,84.8398,-6.76645,4.24344,21.4484,
2026_06_10_18_52_46.836,3.866,29.6,0,0.759,0,0,0,0.009, ,0,0,0,0,0, ,194.2,950.5,119.7,-8.7,-2.5,44.8,25,87.7099,998.02,85.6783,-6.92388,4.04274,22.8256,
2026_06_10_18_52_46.857,3.866,29.6,0,0.758,0,0,0,0.009, ,0,0,0,0,0, ,195.8,931.7,149.6,-4.2,9.1,52.3,25,94.2479,994.552,88.6625,-6.895,3.99748,24.3932,
2026_06_10_18_52_46.876,3.866,29.6,0,0.759,0,0,0,0.009, ,0,0,0,0,0, ,208.3,916.3,170.7,-4,14.2,54.8,25,100.817,990.252,93.0188,-6.72468,4.46381,26.17,
2026_06_10_18_52_46.896,3.866,29.6,0,0.756,0,0,0,0.009, ,0,0,0,0,0, ,259.7,915.2,148.8,-8.3,15.1,53.7,25,108.933,985.712,97.0852,-6.68966,5.08453,27.8811,
2026_06_10_18_52_46.916,3.866,29.6,0,0.758,0,0,0,0.009, ,0,0,0,0,0, ,291.8,916.5,130.8,-7.5,14.2,50.7,25,119.098,981.455,99.6882,-6.76342,5.66742,29.363,
2026_06_10_18_52_46.936,3.866,29.5,0,0.758,0,0,0,0.009, ,0,0,0,0,0, ,308.5,909.9,151.7,-4.4,9.9,47.9,25,130.131,977.296,102.221,-6.71385,6.05636,30.5779,
2026_06_10_18_52_46.956,3.866,29.6,0,0.759,0,0,0,0.01, ,0,0,0,0,0, ,314.9,910.5,141.3,-2.7,5.7,45.4,25,141.196,973.207,104.919,-6.52105,6.16262,31.5573,
2026_06_10_18_52_46.976,3.866,29.6,0,0.757,0,0,0,0.009, ,0,0,0,0,0, ,288.6,902,154.4,2.9,12.4,41.3,25,150.979,969.127,107.535,-6.11758,6.33857,32.2759,
2026_06_10_18_52_46.995,3.866,29.6,0,0.756,0,0,0,0.009, ,0,0,0,0,0, ,313.7,897.5,155,1.4,10.9,34.7,25,160.13,964.899,110.409,-5.61378,6.66223,32.6248,
2026_06_10_18_52_47.015,3.866,29.6,0,0.757,0,0,0,0.009, ,0,0,0,0,0, ,372.6,895,156.8,-1,3.8,30.6,25,171.283,960.716,113.181,-5.2595,6.70414,32.6263,
2026_06_10_18_52_47.035,3.866,29.6,0,0.757,0,0,0,0.009, ,0,0,0,0,0, ,426.1,895.8,155.1,-0.4,1.7,32.5,25,185.181,956.736,115.788,-4.98166,6.46319,32.5607,
2026_06_10_18_52_47.055,3.866,29.5,0,0.758,0,0,0,0.009, ,0,0,0,0,0, ,432.6,899.5,142.5,1.4,4.4,38.4,25,200.06,953.135,117.799,-4.64762,6.2552,32.7368,
2026_06_10_18_52_47.074,3.866,29.6,0,0.758,0,0,0,0.01, ,0,0,0,0,0, ,398.3,901.9,150.2,2.9,5,40.3,25,213.185,949.94,119.539,-4.23339,6.16043,33.1398,
2026_06_10_18_52_47.094,3.866,29.6,0,0.758,0,0,0,0.009, ,0,0,0,0,0, ,411.7,903.6,152.7,4.4,3.5,39.4,25,224.874,947.064,121.484,-3.75299,6.04401,33.5487,
2026_06_10_18_52_47.114,3.866,29.6,0,0.758,0,0,0,0.009, ,0,0,0,0,0, ,473.2,885.6,150.1,4.1,-5.2,37.5,25,238.133,943.867,123.307,-3.26531,5.62391,33.8473,
2026_06_10_18_52_47.134,3.866,29.6,0,0.757,0,0,0,0.009, ,0,0,0,0,0, ,484.7,874.2,143.5,6.8,-10.2,34.8,25,252.807,939.969,124.738,-2.73422,4.81198,33.9877,
2026_06_10_18_52_47.154,3.866,29.5,0,0.76,0,0,0,0.009, ,0,0,0,0,0, ,476.8,881.1,136.7,9.4,-5.3,35.1,25,266.698,936.172,125.674,-2.07401,4.04648,34.0463,
2026_06_10_18_52_47.173,3.866,29.6,0,0.76,0,0,0,0.01, ,0,0,0,0,0, ,436.6,894,140.3,12.9,2,37.2,25,278.276,933.209,126.456,-1.26817,3.69936,34.1745,
2026_06_10_18_52_47.193,3.866,29.6,0,0.759,0,0,0,0.01, ,0,0,0,0,0, ,454.2,885.7,139.8,11.9,-2.5,34.9,25,288.46,930.567,127.284,-0.435269,3.45869,34.2888,
2026_06_10_18_52_47.213,3.866,29.5,0,0.757,0,0,0,0.01, ,0,0,0,0,0, ,474.3,862.4,149.1,9.7,-4.1,34.1,25,299.172,927.123,128.33,0.24938,3.04683,34.3017,
2026_06_10_18_52_47.233,3.866,29.6,0,0.758,0,0,0,0.01, ,0,0,0,0,0, ,486.2,845.9,152.5,6.9,-4.3,33.8,25,310.207,922.676,129.7,0.739964,2.60523,34.2802,
2026_06_10_18_52_47.252,3.866,29.6,0,0.759,0,0,0,0.01, ,0,0,0,0,0, ,515.9,844.8,130.4,3,-6.8,34.5,25,321.836,917.964,130.416,0.996513,2.10827,34.2723,
2026_06_10_18_52_47.273,3.866,29.6,0,0.759,0,0,0,0.01, ,0,0,0,0,0, ,513.6,839.2,149.9,1.9,-1.6,37.6,25,333.592,913.335,131.009,1.08509,1.72386,34.3806,
2026_06_10_18_52_47.293,3.866,29.6,0,0.759,0,0,0,0.01, ,0,0,0,0,0, ,488.4,840.2,161.8,1.6,7.6,38.3,25,343.793,908.848,132.523,1.1256,1.80163,34.5981,
2026_06_10_18_52_47.312,3.866,29.6,0,0.758,0,0,0,0.01, ,0,0,0,0,0, ,505.6,848.9,122.1,-1.6,8.7,36,25,353.129,904.93,133.097,1.05701,2.18848,34.7536,
2026_06_10_18_52_47.333,3.866,29.6,0,0.758,0,0,0,0.01, ,0,0,0,0,0, ,548.5,826.4,114.6,0.3,5.1,34.1,25,363.728,900.83,132.198,0.952991,2.47559,34.7717,
2026_06_10_18_52_47.355,3.866,29.6,0,0.757,0,0,0,0.01, ,0,0,0,0,0, ,578.1,818.3,131.2,-0.9,-3,34.3,25,375.889,896.047,131.632,0.876637,2.38872,34.7369,
2026_06_10_18_52_47.372,3.866,29.6,0,0.757,0,0,0,0.01, ,0,0,0,0,0, ,569.2,813.5,127.8,0.4,-0.4,36.5,25,387.94,891.163,131.502,0.807982,2.13956,34.7773,
2026_06_10_18_52_47.392,3.866,29.7,0,0.759,0,0,0,0.01, ,0,0,0,0,0, ,531.9,810,129.3,3.7,9,35.7,25,397.849,886.324,131.322,0.883668,2.27121,34.8579,
2026_06_10_18_52_47.412,3.866,29.7,0,0.758,0,0,0,0.009, ,0,0,0,0,0, ,557.4,803.1,110.8,4.4,6.5,29.7,25,406.795,881.463,130.635,1.07662,2.60508,34.7264,
2026_06_10_18_52_47.432,3.866,29.6,0,0.757,0,0,0,0.009, ,0,0,0,0,0, ,626.8,784.1,105.5,4.7,-6.1,28.5,25,418.087,876.109,129.265,1.28828,2.45852,34.3835,
2026_06_10_18_52_47.451,3.866,29.7,0,0.758,0,0,0,0.01, ,0,0,0,0,0, ,655.3,772.9,109.1,5.2,-12.3,34.5,25,431.674,870.161,127.926,1.51141,1.74808,34.2078,
2026_06_10_18_52_47.471,3.866,29.6,0,0.758,0,0,0,0.009, ,0,0,0,0,0, ,611.9,747.6,153.1,2.3,-8.4,40.4,25,443.979,863.463,128.12,1.64783,1.01085,34.4054,
2026_06_10_18_52_47.491,3.866,29.6,0,0.759,0,0,0,0.01, ,0,0,0,0,0, ,548.4,745.2,159.5,1,1,38.8,25,452.277,856.329,129.837,1.64796,0.723781,34.7219,
2026_06_10_18_52_47.514,3.866,29.7,0,0.76,0,0,0,0.01, ,0,0,0,0,0, ,598.9,761.4,121.2,0.2,2.2,33.9,25,459.673,850.051,130.478,1.5841,0.777176,34.8211,
2026_06_10_18_52_47.530,3.866,29.6,0,0.758,0,0,0,0.009, ,0,0,0,0,0, ,673,732.7,57.6,3.2,-5.2,38.9,25,470.415,843.775,127.975,1.59116,0.638411,34.9173,
2026_06_10_18_52_47.550,3.866,29.6,0,0.758,0,0,0,0.01, ,0,0,0,0,0, ,658.6,729.2,79.1,3.7,-12.9,44,25,482.321,836.899,124.341,1.70443,0.0480231,35.3154,
2026_06_10_18_52_47.571,3.866,29.6,0,0.76,0,0,0,0.01, ,0,0,0,0,0, ,580.6,742.4,143.1,11.6,-1.8,43.1,25,490.686,830.739,123.534,2.06674,-0.402794,35.8172,
2026_06_10_18_52_47.590,3.866,29.7,0,0.76,0,0,0,0.01, ,0,0,0,0,0, ,577.6,744,145.2,26.7,14.4,33.5,25,496.074,825.404,124.791,3.10775,0.00565757,35.9685,
2026_06_10_18_52_47.610,3.866,29.7,0,0.76,0,0,0,0.01, ,0,0,0,0,0, ,675,694.9,115.9,26.2,12.8,30.7,25,504.01,818.948,125.142,4.53017,0.834063,35.7328,
2026_06_10_18_52_47.630,3.866,29.7,0,0.76,0,0,0,0.01, ,0,0,0,0,0, ,716.7,691.5,82.7,19.1,5.3,37.6,25,515.7,811.285,123.567,5.63435,1.33472,35.6363,
2026_06_10_18_52_47.650,3.866,29.7,0,0.758,0,0,0,0.01, ,0,0,0,0,0, ,703.9,697.3,82.7,14.9,3.6,40.4,25,527.558,804.162,121.076,6.32694,1.52456,35.8413,
2026_06_10_18_52_47.669,3.866,29.7,0,0.758,0,0,0,0.01, ,0,0,0,0,0, ,684.4,704.7,118.6,10.4,1.2,35.3,25,537.71,797.876,119.832,6.71225,1.57791,35.9637,
2026_06_10_18_52_47.689,3.866,29.8,0,0.758,0,0,0,0.01, ,0,0,0,0,0, ,702.3,694.8,107.9,11,4.9,30.3,25,547.194,791.896,119.431,6.95526,1.66761,35.7709,
2026_06_10_18_52_47.708,3.866,29.7,0,0.76,0,0,0,0.009, ,0,0,0,0,0, ,762.5,682.2,70.1,10.6,-2.3,33.4,25,558.48,785.595,117.576,7.18955,1.64521,35.532,
2026_06_10_18_52_47.728,3.866,29.7,0,0.757,0,0,0,0.01, ,0,0,0,0,0, ,819,654.1,56.1,8.7,-8.4,36.8,25,572.634,778.439,114.257,7.33948,1.21894,35.5057,
2026_06_10_18_52_47.748,3.866,29.6,0,0.759,0,0,0,0.01, ,0,0,0,0,0, ,801.7,652.9,76.6,6.4,-11.4,43.2,25,587.12,770.825,111.337,7.35231,0.541379,35.7795,
2026_06_10_18_52_47.768,3.866,29.6,0,0.76,0,0,0,0.011, ,0,0,0,0,0, ,720.3,647.4,111,8.1,-3,42.1,25,597.716,763.472,110.269,7.34607,0.0696391,36.1982,
2026_06_10_18_52_47.788,3.866,29.8,0,0.758,0,0,0,0.011, ,0,0,0,0,0, ,729.3,632,112.5,6,-6.2,32.8,25,605.46,755.929,110.359,7.32803,-0.214917,36.2745,
2026_06_10_18_52_47.808,3.866,29.8,0,0.76,0,0,0,0.009, ,0,0,0,0,0, ,822.5,612.6,68.2,2.2,-13.9,29.1,25,615.846,747.786,109.14,7.13132,-0.814242,35.95,
2026_06_10_18_52_47.828,3.866,29.7,0,0.76,0,0,0,0.009, ,0,0,0,0,0, ,837.5,597.2,61.5,2.5,-16,31.6,25,628.896,739.079,106.441,6.83996,-1.67564,35.6088,
2026_06_10_18_52_47.847,3.866,29.5,0,0.761,0,0,0,0.01, ,0,0,0,0,0, ,777.9,593.9,78.4,2.1,-13.7,30.3,25,639.792,730.333,104.217,6.56331,-2.47845,35.3249,
2026_06_10_18_52_47.867,3.866,29.6,0,0.758,0,0,0,0.012, ,0,0,0,0,0, ,771.6,596,77.3,2,-8.3,27.2,25,648.016,722.083,102.61,6.28828,-2.99773,34.9242,
2026_06_10_18_52_47.887,3.866,29.8,0,0.76,0,0,0,0.011, ,0,0,0,0,0, ,844.8,586,43.7,4.1,-10.2,28,25,657.777,714.095,100.044,6.09095,-3.37873,34.4779,
2026_06_10_18_52_47.907,3.866,29.7,0,0.76,0,0,0,0.009, ,0,0,0,0,0, ,876.2,573.3,27.4,7.1,-12.2,30.2,25,670.131,705.902,96.1141,6.06103,-3.85534,34.1502,
2026_06_10_18_52_47.927,3.866,29.8,0,0.758,0,0,0,0.01, ,0,0,0,0,0, ,866,549.8,18.5,11.5,-12.5,37,25,682.377,697.106,91.6557,6.2584,-4.37298,34.1167,
2026_06_10_18_52_47.947,3.866,29.7,0,0.76,0,0,0,0.009, ,0,0,0,0,0, ,779.6,544.3,47.3,8.5,-6.3,36.4,25,690.934,687.962,88.0753,6.48641,-4.67932,34.2741,
2026_06_10_18_52_47.967,3.866,29.8,0,0.758,0,0,0,0.01, ,0,0,0,0,0, ,745.1,532.1,72.2,8.5,-5.2,30,25,695.286,678.836,86.3492,6.60911,-4.74456,34.2086,
2026_06_10_18_52_47.987,3.866,29.7,0,0.758,0,0,0,0.009, ,0,0,0,0,0, ,807.9,525.5,52.2,6,-9.4,26.5,25,700.235,669.693,84.8776,6.64816,-4.90028,33.8455,
2026_06_10_18_52_48.006,3.866,29.7,0,0.758,0,0,0,0.01, ,0,0,0,0,0, ,876.4,509.6,26.8,2.6,-10.8,30.3,25,708.883,660.422,82.1124,6.50507,-5.21714,33.5137,
2026_06_10_18_52_48.026,3.866,29.8,0,0.758,0,0,0,0.01, ,0,0,0,0,0, ,872.5,495.9,32.7,3.5,-12.6,37.6,25,718.972,650.814,78.9216,6.29453,-5.61219,33.5403,
2026_06_10_18_52_48.046,3.866,29.8,0,0.759,0,0,0,0.009, ,0,0,0,0,0, ,792.8,487.9,43,8.8,-15.4,43.9,25,725.9,641.13,76.4188,6.28572,-6.12332,33.9796,
2026_06_10_18_52_48.066,3.866,29.6,0,0.758,0,0,0,0.009, ,0,0,0,0,0, ,729.4,490.4,51.3,16,-19.5,40.5,25,728.045,631.868,74.6352,6.65831,-6.81354,34.4806,
2026_06_10_18_52_48.086,3.866,29.8,0,0.758,0,0,0,0.011, ,0,0,0,0,0, ,798.2,477.1,48.9,28.6,-24.1,39.3,25,730.223,622.843,73.1401,7.61148,-7.72678,34.8108,
2026_06_10_18_52_48.105,3.866,29.8,0,0.758,0,0,0,0.009, ,0,0,0,0,0, ,902.8,479.6,-21.4,28.3,-29,47.9,25,737.553,614.038,69.521,8.88132,-8.87382,35.3464,
2026_06_10_18_52_48.124,3.866,29.7,0,0.76,0,0,0,0.009, ,0,0,0,0,0, ,938.9,474.1,-38.6,26.5,-35.1,52.9,25,748.722,605.678,63.4564,10.0098,-10.2861,36.2637,
2026_06_10_18_52_48.145,3.866,29.8,0,0.759,0,0,0,0.01, ,0,0,0,0,0, ,910.8,457.1,-20.2,27.3,-19,40.8,25,759.455,597.142,57.798,11.0391,-11.3077,36.9088,
2026_06_10_18_52_48.169,3.866,29.8,0,0.758,0,0,0,0.01, ,0,0,0,0,0, ,889.4,439,-30.2,38.5,9.8,25.8,25,768.026,588.056,52.7403,12.3712,-10.8989,36.6889,
2026_06_10_18_52_48.185,3.866,29.8,0,0.761,0,0,0,0.01, ,0,0,0,0,0, ,916,419,-41.8,29.3,15.9,25.6,25,776.232,578.364,47.3327,13.6831,-9.45172,36.0193,
2026_06_10_18_52_48.204,3.866,29.8,0,0.757,0,0,0,0.01, ,0,0,0,0,0, ,929.8,408,-74.3,21.1,5.5,38.2,25,785.17,568.318,40.9109,14.3849,-8.22372,35.7683,
2026_06_10_18_52_48.224,3.866,29.7,0,0.76,0,0,0,0.01, ,0,0,0,0,0, ,893,406.4,-74.9,17.6,0.5,41.2,25,792.862,558.499,33.872,14.6875,-7.53978,36.0078,
2026_06_10_18_52_48.244,3.866,29.7,0,0.756,0,0,0,0.01, ,0,0,0,0,0, ,852.4,375.7,-47.3,12.2,12,27.1,25,797.727,548.295,28.0846,14.7004,-6.69946,35.8946,
2026_06_10_18_52_48.263,3.866,29.8,0,0.759,0,0,0,0.01, ,0,0,0,0,0, ,868.6,353,-29.7,11.7,15.5,14,25,801.552,537.086,24.0271,14.5328,-5.45332,34.9596,
2026_06_10_18_52_48.283,3.866,29.8,0,0.76,0,0,0,0.01, ,0,0,0,0,0, ,928.2,345.4,-36.8,8.5,5.2,18.4,25,807.454,525.637,20.5368,14.2627,-4.49031,33.8164,
2026_06_10_18_52_48.303,3.866,29.8,0,0.761,0,0,0,0.01, ,0,0,0,0,0, ,947.7,340,-46.8,14.2,-2.5,27.6,25,815.406,514.489,16.7382,14.0852,-4.13442,33.1573,
2026_06_10_18_52_48.328,3.866,29.8,0,0.758,0,0,0,0.01, ,0,0,0,0,0, ,936.2,337,-60.6,19,2.4,28,25,823.117,503.765,12.4458,14.2385,-3.88552,32.8308,
2026_06_10_18_52_48.343,3.866,29.8,0,0.759,0,0,0,0.01, ,0,0,0,0,0, ,908.2,325,-28.4,14.3,7.5,25.4,25,829.155,493.237,8.9757,14.3854,-3.34711,32.4572,
2026_06_10_18_52_48.363,3.866,29.8,0,0.76,0,0,0,0.01, ,0,0,0,0,0, ,920.8,314,-0.3,16.4,6.1,16.8,25,834.356,482.65,7.55429,14.4442,-2.72877,31.7651,
2026_06_10_18_52_48.383,3.866,29.8,0,0.76,0,0,0,0.01, ,0,0,0,0,0, ,975.9,311.2,-41.5,9.3,1.7,17.2,25,841.303,472.288,5.82036,14.347,-2.32483,30.8654,
2026_06_10_18_52_48.403,3.866,29.7,0,0.76,0,0,0,0.01, ,0,0,0,0,0, ,979.9,315.1,-70.8,9.6,-2,23.2,25,849.626,462.59,2.04404,14.0486,-2.1923,30.2155,
2026_06_10_18_52_48.422,3.866,29.7,0,0.759,0,0,0,0.011, ,0,0,0,0,0, ,987.6,302.4,-53.1,7.4,-2.6,24.7,25,857.8,453.215,-1.85559,13.7105,-2.19886,29.8337,
2026_06_10_18_52_48.442,3.866,29.8,0,0.758,0,0,0,0.011, ,0,0,0,0,0, ,1014.8,278.9,-28.5,3.4,1.6,27.5,25,866.538,443.309,-4.22877,13.2041,-2.09534,29.6061,
2026_06_10_18_52_48.461,3.866,29.9,0,0.76,0,0,0,0.01, ,0,0,0,0,0, ,1004.6,270.1,-43,9.8,7.3,36.8,25,875.262,433.022,-6.14959,12.8017,-1.69648,29.7612,
2026_06_10_18_52_48.481,3.866,29.8,0,0.758,0,0,0,0.009, ,0,0,0,0,0, ,935.5,271.8,-52,12.1,14.9,35.5,25,881.038,423.146,-8.66938,12.6888,-0.916695,30.1505,
2026_06_10_18_52_48.501,3.866,29.8,0,0.76,0,0,0,0.01, ,0,0,0,0,0, ,875.9,273.9,-54.1,7.9,11.3,23.6,25,882.541,413.987,-11.3738,12.525,-0.062553,30.1139,
2026_06_10_18_52_48.521,3.866,29.8,0,0.759,0,0,0,0.01, ,0,0,0,0,0, ,921,255.7,-39.4,7.9,-3.3,17.5,25,883.51,404.896,-13.5296,12.2431,0.185009,29.5311,
2026_06_10_18_52_48.541,3.866,29.8,0,0.758,0,0,0,0.01, ,0,0,0,0,0, ,1017.2,221.3,-15.2,6,-12.2,19.4,25,888.726,394.756,-14.3687,11.9206,-0.298531,28.8558,
2026_06_10_18_52_48.561,3.866,29.9,0,0.759,0,0,0,0.01, ,0,0,0,0,0, ,1021.3,224.9,-41.8,3.6,-3.3,25.1,25,896.68,384.296,-15.2298,11.4867,-0.752605,28.4533,
2026_06_10_18_52_48.581,3.866,29.8,0,0.76,0,0,0,0.009, ,0,0,0,0,0, ,958.3,232.6,-41.1,3.5,8.4,29.8,25,902.354,374.818,-16.8276,11.003,-0.551352,28.3922,
2026_06_10_18_52_48.600,3.866,29.9,0,0.758,0,0,0,0.01, ,0,0,0,0,0, ,937.9,225.7,-43.9,5.2,11.5,25.2,25,905.142,365.941,-18.392,10.5976,0.0885739,28.3378,
2026_06_10_18_52_48.620,3.866,29.9,0,0.76,0,0,0,0.009, ,0,0,0,0,0, ,952.1,219.9,-59.5,7.2,7.5,20.9,25,907.571,357.218,-20.4217,10.3296,0.662083,28.0156,
2026_06_10_18_52_48.643,3.866,29.8,0,0.758,0,0,0,0.009, ,0,0,0,0,0, ,983.6,202.7,-65.9,7.5,-1.8,19.1,25,911.244,348.326,-22.9981,10.1481,0.795409,27.5271,
2026_06_10_18_52_48.660,3.866,30,0,0.761,0,0,0,0.01, ,0,0,0,0,0, ,986,192.7,-56,7.9,-3.9,20.1,25,915.726,339.148,-25.3108,9.99888,0.573267,27.0441,
2026_06_10_18_52_48.680,3.866,29.9,0,0.761,0,0,0,0.008, ,0,0,0,0,0, ,967.7,179.9,-44.7,7.1,-1.4,23.5,25,919.451,329.833,-26.8366,9.84661,0.376849,26.7245,
2026_06_10_18_52_48.700,3.866,29.9,0,0.761,0,0,0,0.009, ,0,0,0,0,0, ,934.4,180.7,-22.3,5.9,4.7,22.4,25,921.377,320.721,-27.2426,9.64267,0.454432,26.4945,
2026_06_10_18_52_48.720,3.866,29.9,0,0.76,0,0,0,0.009, ,0,0,0,0,0, ,938.1,177.1,-23.3,3.4,8.1,17.6,25,922.283,312.079,-26.9719,9.33843,0.81674,26.0987,
2026_06_10_18_52_48.739,3.866,29.9,0,0.76,0,0,0,0.009, ,0,0,0,0,0, ,987.7,150.3,-25.7,6.9,1.6,16.5,25,924.758,303.037,-26.8213,9.0832,1.06252,25.5473,
2026_06_10_18_52_48.759,3.866,29.9,0,0.759,0,0,0,0.009, ,0,0,0,0,0, ,986.6,145.7,-32.5,7.6,-6.7,21.3,25,928.56,293.59,-26.9601,8.97149,0.842379,25.1423,
2026_06_10_18_52_48.779,3.866,29.9,0,0.759,0,0,0,0.009, ,0,0,0,0,0, ,959.8,156.3,-41.9,6.3,-3.1,28.1,25,931.28,284.901,-27.5841,8.8483,0.492453,25.1153,
2026_06_10_18_52_48.799,3.866,29.9,0,0.759,0,0,0,0.009, ,0,0,0,0,0, ,956.5,154,-29.2,4.7,0.4,24.5,25,932.918,276.994,-28.0696,8.64427,0.380178,25.1875,
2026_06_10_18_52_48.819,3.866,29.9,0,0.758,0,0,0,0.009, ,0,0,0,0,0, ,995.2,140,-57.3,8.3,2.2,16.3,25,935.534,269.072,-28.9946,8.5136,0.43623,24.8958,
2026_06_10_18_52_48.839,3.866,29.8,0,0.76,0,0,0,0.009, ,0,0,0,0,0, ,1026.9,120.3,-57.2,10.2,-0.9,14.7,25,940.136,260.607,-30.7164,8.55848,0.449256,24.3232,
2026_06_10_18_52_48.858,3.866,29.9,0,0.759,0,0,0,0.01, ,0,0,0,0,0, ,997.8,117.1,-65.9,5.9,-2,18.9,25,944.536,251.959,-32.5953,8.52749,0.33352,23.8648,
2026_06_10_18_52_48.878,3.866,29.9,0,0.759,0,0,0,0.009, ,0,0,0,0,0, ,951.7,129.5,-58.3,7.7,6.3,20.8,25,946.377,244.119,-34.3933,8.42222,0.444212,23.6201,
2026_06_10_18_52_48.898,3.866,30,0,0.76,0,0,0,0.009, ,0,0,0,0,0, ,929.1,127.8,-38.9,11.8,8.4,13.5,25,946.013,237.083,-35.259,8.50313,0.865034,23.2258,
2026_06_10_18_52_48.917,3.866,29.9,0,0.759,0,0,0,0.009, ,0,0,0,0,0, ,965.2,101.5,-25.2,12.8,4.4,7.8,25,946.082,229.622,-35.0635,8.7345,1.20232,22.4595,
2026_06_10_18_52_48.937,3.866,29.9,0,0.758,0,0,0,0.009, ,0,0,0,0,0, ,1000.7,86.3,-19.5,10.6,5.7,8,25,948.329,221.351,-34.2887,8.91521,1.43679,21.5723,
2026_06_10_18_52_48.957,3.866,29.9,0,0.758,0,0,0,0.009, ,0,0,0,0,0, ,1015.7,87.7,-40.8,12.6,8.1,11.7,25,951.977,213.164,-34.0365,9.07882,1.7697,20.858,
2026_06_10_18_52_48.980,3.866,29.9,0,0.758,0,0,0,0.009, ,0,0,0,0,0, ,982.7,93.7,-53.1,11.1,7,13.6,25,954.855,205.702,-34.8234,9.24769,2.12194,20.3578,
2026_06_10_18_52_48.997,3.866,29.9,0,0.758,0,0,0,0.009, ,0,0,0,0,0, ,938.5,92.4,-14,12.1,5.1,9.9,25,955.205,198.837,-34.7458,9.39103,2.36131,19.8332,
2026_06_10_18_52_49.017,3.866,29.9,0,0.76,0,0,0,0.009, ,0,0,0,0,0, ,938.3,86.4,3,8.5,6.3,5.3,25,954.181,192.168,-32.9637,9.44642,2.56476,19.0878,
2026_06_10_18_52_49.037,3.866,29.8,0,0.759,0,0,0,0.009, ,0,0,0,0,0, ,1027.2,57.8,-11.2,7.2,4.1,4,25,955.922,184.852,-31.2048,9.34914,2.72534,18.208,
2026_06_10_18_52_49.056,3.866,29.9,0,0.758,0,0,0,0.01, ,0,0,0,0,0, ,1028.6,60,-49.1,0.4,8.1,11.1,25,960.308,177.176,-31.1405,9.01099,2.93099,17.5585,
2026_06_10_18_52_49.076,3.866,30,0,0.76,0,0,0,0.009, ,0,0,0,0,0, ,1004.5,70.6,-23.9,10.2,5.6,13.6,25,963.735,170.359,-31.4671,8.78485,3.1698,17.2411,
2026_06_10_18_52_49.096,3.866,30,0,0.758,0,0,0,0.009, ,0,0,0,0,0, ,989,80.3,-33.9,7.9,8.1,5.1,25,965.747,164.575,-31.3107,8.80101,3.39406,16.7602,
2026_06_10_18_52_49.116,3.866,30,0,0.758,0,0,0,0.009, ,0,0,0,0,0, ,988.8,66.7,-6.8,8.5,7,6.6,25,967.158,159.026,-30.6428,8.76438,3.64732,16.0954,
2026_06_10_18_52_49.139,3.866,29.9,0,0.76,0,0,0,0.009, ,0,0,0,0,0, ,988.4,64.2,-21.9,8,7.6,7.6,25,968.465,153.323,-29.6499,8.73304,3.8699,15.5472,
2026_06_10_18_52_49.156,3.866,30,0,0.76,0,0,0,0.009, ,0,0,0,0,0, ,989.7,54.4,-8.4,5.5,8.7,7.5,25,969.719,147.594,-28.7663,8.6122,4.13072,15.0599,
2026_06_10_18_52_49.175,3.866,29.9,0,0.758,0,0,0,0.009, ,0,0,0,0,0, ,990.4,55,2.4,5.1,7.5,7.6,25,970.958,141.933,-27.1962,8.41036,4.3726,14.6023,
2026_06_10_18_52_49.196,3.866,29.9,0,0.758,0,0,0,0.009, ,0,0,0,0,0, ,990.2,53.5,-0.4,3.6,6.1,8,25,972.137,136.59,-25.478,8.16293,4.52052,14.1878,
2026_06_10_18_52_49.214,3.866,30,0,0.76,0,0,0,0.009, ,0,0,0,0,0, ,989.1,54.8,-7.6,5.3,6.6,9.2,25,973.204,131.566,-24.1692,7.93668,4.632,13.8473,
2026_06_10_18_52_49.234,3.866,29.9,0,0.76,0,0,0,0.009, ,0,0,0,0,0, ,991.8,47.8,-9.6,8.5,8.6,10.6,25,974.255,126.675,-23.2204,7.8735,4.81286,13.6067,
2026_06_10_18_52_49.254,3.866,29.9,0,0.757,0,0,0,0.009, ,0,0,0,0,0, ,991.3,38.6,2.4,12.1,10.5,10.4,25,975.309,121.588,-22.0248,8.02137,5.10153,13.4174,
2026_06_10_18_52_49.274,3.866,29.9,0,0.76,0,0,0,0.009, ,0,0,0,0,0, ,991.9,33,6.1,10.4,11,10.5,25,976.302,116.36,-20.4237,8.21811,5.44574,13.2366,
2026_06_10_18_52_49.295,3.866,29.9,0,0.758,0,0,0,0.009, ,0,0,0,0,0, ,990.6,36.2,14.6,7.8,11,11.2,25,977.212,111.378,-18.5484,8.27185,5.7842,13.0912,
2026_06_10_18_52_49.314,3.866,29.9,0,0.76,0,0,0,0.009, ,0,0,0,0,0, ,994.3,5.3,9.1,7.1,11,10.3,25,978.141,105.856,-16.696,8.22177,6.10204,12.9485,
2026_06_10_18_52_49.334,3.866,30,0,0.758,0,0,0,0.009, ,0,0,0,0,0, ,991.4,15.6,20.8,8.2,10.8,8.1,25,979.037,100.042,-14.7676,8.18693,6.39441,12.7201,
2026_06_10_18_52_49.354,3.866,30,0,0.758,0,0,0,0.009, ,0,0,0,0,0, ,993,7.2,24.7,7.2,10.6,7.3,25,979.839,94.6401,-12.4814,8.15726,6.65678,12.4142,
2026_06_10_18_52_49.373,3.866,30,0,0.758,0,0,0,0.009, ,0,0,0,0,0, ,992.4,3.2,36.9,10.8,10.6,4.6,25,980.623,89.1899,-9.8439,8.20861,6.89707,12.0202,
2026_06_10_18_52_49.394,3.866,30,0,0.758,0,0,0,0.009, ,0,0,0,0,0, ,995.4,6.4,61.5,6.4,7.5,4.1,25,981.432,84.0474,-6.24591,8.23246,7.02827,11.5528,
2026_06_10_18_52_49.413,3.866,29.9,0,0.76,0,0,0,0.009, ,0,0,0,0,0, ,989.7,-45.5,115.3,1.5,3,1.2,25,982.11,77.7344,-0.478428,7.9715,6.9199,11.0103,
2026_06_10_18_52_49.433,3.866,30,0,0.758,0,0,0,0.009, ,0,0,0,0,0, ,992.3,-7.8,14.4,0,-1.2,-0.6,25,982.651,71.3735,3.50252,7.53144,6.55307,10.3577,
2026_06_10_18_52_49.453,3.866,30.1,0,0.758,0,0,0,0.009, ,0,0,0,0,0, ,992.6,7.3,29,-0.3,-0.7,-2.2,25,983.249,67.0089,4.61143,7.06335,6.09585,9.64118,
2026_06_10_18_52_49.472,3.866,30,0,0.76,0,0,0,0.008, ,0,0,0,0,0, ,993.1,12.5,34,-0.5,0.4,-2.8,25,983.834,63.5289,6.24995,6.60855,5.71524,8.90133,
2026_06_10_18_52_49.493,3.866,30,0,0.757,0,0,0,0.009, ,0,0,0,0,0, ,993,10.2,31.2,-0.5,0.6,-2.9,25,984.395,60.3492,7.85566,6.17538,5.39744,8.18523,
2026_06_10_18_52_49.512,3.866,30,0,0.758,0,0,0,0.009, ,0,0,0,0,0, ,992.6,10.1,32.2,-0.8,0.4,-3,25,984.907,57.2902,9.30867,5.75945,5.099,7.50668,
2026_06_10_18_52_49.532,3.866,30,0,0.76,0,0,0,0.009, ,0,0,0,0,0, ,991.3,17.5,38.9,-0.8,0,-2.8,25,985.337,54.64,10.9078,5.35974,4.80047,6.87252,
2026_06_10_18_52_49.552,3.866,30,0,0.758,0,0,0,0.009, ,0,0,0,0,0, ,992.3,15.1,34.5,-0.9,-0.6,-2.2,25,985.73,52.3037,12.4795,4.98133,4.48966,6.30138,
2026_06_10_18_52_49.572,3.866,30,0,0.76,0,0,0,0.009, ,0,0,0,0,0, ,991.2,19.7,33.5,-1.4,-1.4,-1.6,25,986.097,50.1767,13.7909,4.6077,4.15513,5.80161,
2026_06_10_18_52_49.592,3.866,30.1,0,0.758,0,0,0,0.009, ,0,0,0,0,0, ,991.9,17,25.8,-0.8,-0.4,-0.9,25,986.43,48.2373,14.7573,4.25989,3.84709,5.3719,
