UTC_Time,Vin,TC1,TC2,Rh1,Vh1,Ah1,Acp1,Dty1,Err1,Rh2,Vh2,Ah2,Acp2,Dty2,Err2,Accel_x,Accel_y,Accel_z,gyro_x,gyro_y,gyro_z,Temp_c,Accel_x_h,Accel_y_h,Accel_z_h,gyro_x_h,gyro_y_h,gyro_z_h,
2026_07_06_17_07_26.482,3.869,29.2,0,0.758,0,0,0,0.005, ,0,0,0,0,0, ,779.1,39,620.2,-0.2,33.8,-13.5,25,779.1,39,620.2,-0.2,33.8,-13.5,
2026_07_06_17_07_26.502,3.869,29.2,0,0.757,0,0,0,0.006, ,0,0,0,0,0, ,773.3,34.6,644.5,0.3,22.2,-12.8,25,778.923,38.8659,620.94,-0.184766,33.4466,-13.4787,
2026_07_06_17_07_26.522,3.869,29.2,0,0.76,0,0,0,0.006, ,0,0,0,0,0, ,788,29,662.4,-0.5,10.3,-11.8,25,779.028,38.4354,622.921,-0.1796,32.3986,-13.4068,
2026_07_06_17_07_26.541,3.869,29.2,0,0.757,0,0,0,0.006, ,0,0,0,0,0, ,797.8,26.9,663.4,-1.4,2.5,-10.9,25,779.874,37.7964,625.358,-0.226546,30.8144,-13.2815,
2026_07_06_17_07_26.561,3.869,29.1,0,0.756,0,0,0,0.006, ,0,0,0,0,0, ,805.4,21.8,666.5,-2.7,0.7,-6.7,25,781.198,36.977,627.77,-0.337663,29.0341,-13.0084,
2026_07_06_17_07_26.581,3.869,29.2,0,0.76,0,0,0,0.007, ,0,0,0,0,0, ,781.3,31.6,660,-0.3,1.2,-4.3,25,781.938,36.3508,629.932,-0.408493,27.3227,-12.5509,
2026_07_06_17_07_26.601,3.869,29.1,0,0.757,0,0,0,0.006, ,0,0,0,0,0, ,765.6,33.3,644.1,-1.1,-0.6,-6,25,781.421,36.1131,631.28,-0.426257,25.676,-12.0999,
2026_07_06_17_07_26.620,3.869,29.1,0,0.757,0,0,0,0.007, ,0,0,0,0,0, ,763.6,29.4,638.3,-0.5,-0.2,-5.7,25,780.396,35.8228,631.885,-0.449032,24.087,-11.719,
2026_07_06_17_07_26.640,3.869,29.2,0,0.756,0,0,0,0.007, ,0,0,0,0,0, ,761.1,26.1,638.5,-1.4,-2,-4.6,25,779.296,35.3309,632.282,-0.479559,22.5522,-11.3187,
2026_07_06_17_07_26.660,3.869,29.2,0,0.757,0,0,0,0.007, ,0,0,0,0,0, ,769.1,30.8,629.8,-0.6,-4.3,-2.9,25,778.431,34.9116,632.396,-0.511274,20.986,-10.8575,
2026_07_06_17_07_26.680,3.869,29.2,0,0.758,0,0,0,0.007, ,0,0,0,0,0, ,766.9,27.8,614.3,-1.1,-3.2,-2.1,25,777.796,34.5696,631.765,-0.531915,19.4786,-10.3482,
2026_07_06_17_07_26.700,3.869,29.3,0,0.758,0,0,0,0.007, ,0,0,0,0,0, ,733.7,58.8,620.8,1.6,-0.4,-2.5,25,776.12,35.1016,630.899,-0.484267,18.1819,-9.85779,
2026_07_06_17_07_26.720,3.869,29.1,0,0.757,0,0,0,0.006, ,0,0,0,0,0, ,765.6,28.3,642.2,-0.2,-3.7,-2,25,774.507,35.6164,630.935,-0.412101,16.9491,-9.39419,
2026_07_06_17_07_26.740,3.869,29.1,0,0.757,0,0,0,0.008, ,0,0,0,0,0, ,763.5,44.1,671.3,0.4,1.1,-3.2,25,773.9,35.652,632.509,-0.380895,15.837,-8.98017,
2026_07_06_17_07_26.760,3.869,29.2,0,0.756,0,0,0,0.008, ,0,0,0,0,0, ,776.3,21.9,663.9,1.7,4,-2.6,25,773.656,35.4904,634.647,-0.293699,15.0273,-8.60966,
2026_07_06_17_07_26.779,3.869,29.2,0,0.758,0,0,0,0.007, ,0,0,0,0,0, ,775.2,25.6,643.6,2.7,4.9,0.3,25,773.784,34.775,635.811,-0.14174,14.3828,-8.15508,
2026_07_06_17_07_26.799,3.869,29.2,0,0.759,0,0,0,0.007, ,0,0,0,0,0, ,745.7,33.3,642.2,1.5,4.1,1.6,25,772.972,34.4505,636.243,-0.00513367,13.7805,-7.60024,
2026_07_06_17_07_26.823,3.869,29.3,0,0.756,0,0,0,0.007, ,0,0,0,0,0, ,741,34.4,650.8,1.4,0.4,-1.2,25,771.166,34.4139,636.868,0.0835385,13.0779,-7.12491,
2026_07_06_17_07_26.838,3.869,29.2,0,0.756,0,0,0,0.007, ,0,0,0,0,0, ,757.6,34.7,636.9,0.5,-1.7,-3.1,25,769.834,34.4222,637.294,0.136339,12.2414,-6.82176,
2026_07_06_17_07_26.858,3.869,29.3,0,0.757,0,0,0,0.008, ,0,0,0,0,0, ,764.4,28.6,646.4,-0.4,0,-1.4,25,769.296,34.2533,637.559,0.131077,11.4436,-6.54316,
2026_07_06_17_07_26.878,3.869,29.3,0,0.757,0,0,0,0.007, ,0,0,0,0,0, ,748.9,33.3,648.6,-0.8,2.4,-1.2,25,768.525,34.052,638.165,0.0865272,10.8194,-6.22366,
2026_07_06_17_07_26.897,3.869,29.3,0,0.755,0,0,0,0.007, ,0,0,0,0,0, ,741.2,34.7,660.8,-0.9,0.3,-2.6,25,767.095,34.0488,639.172,0.0294576,10.2423,-5.96019,
2026_07_06_17_07_26.917,3.869,29.3,0,0.757,0,0,0,0.007, ,0,0,0,0,0, ,754.1,31.2,656.7,-0.9,-2.2,-1.9,25,765.91,33.9818,640.365,-0.0271812,9.56031,-5.7341,
2026_07_06_17_07_26.937,3.869,29.2,0,0.76,0,0,0,0.007, ,0,0,0,0,0, ,750.4,29.4,654.6,-0.8,-1.8,-1.4,25,765.077,33.7575,641.297,-0.0773217,8.85586,-5.48522,
2026_07_06_17_07_26.959,3.869,29.2,0,0.757,0,0,0,0.008, ,0,0,0,0,0, ,740.9,30,650.3,-0.7,-2.5,-2.2,25,763.893,33.5102,641.976,-0.118313,8.18519,-5.26065,
2026_07_06_17_07_26.977,3.869,29.3,0,0.755,0,0,0,0.008, ,0,0,0,0,0, ,751.7,36.4,649.9,-1.9,-2.9,-4.3,25,762.821,33.4913,642.471,-0.190322,7.52187,-5.13813,
2026_07_06_17_07_26.996,3.869,29.3,0,0.759,0,0,0,0.007, ,0,0,0,0,0, ,764.7,30.6,655.2,-1.9,-0.6,-3.7,25,762.54,33.4918,643.086,-0.294506,6.95687,-5.06877,
2026_07_06_17_07_27.017,3.869,29.3,0,0.758,0,0,0,0.007, ,0,0,0,0,0, ,763.4,32.1,653.8,-1.6,0.5,-2.6,25,762.632,33.3613,643.781,-0.3832,6.52989,-4.95185,
2026_07_06_17_07_27.036,3.869,29.3,0,0.759,0,0,0,0.007, ,0,0,0,0,0, ,747.6,31.9,645.2,-1.3,2.2,-3,25,762.197,33.2784,644.13,-0.448208,6.21424,-4.82072,
2026_07_06_17_07_27.056,3.869,29.2,0,0.757,0,0,0,0.007, ,0,0,0,0,0, ,754,36.4,647.9,-0.8,-0.3,-3,25,761.503,33.3315,644.277,-0.48488,5.89345,-4.70977,
2026_07_06_17_07_27.075,3.869,29.2,0,0.757,0,0,0,0.008, ,0,0,0,0,0, ,755.6,34.1,642,-0.7,0.6,-3.4,25,761.094,33.4484,644.318,-0.501035,5.54346,-4.61777,
2026_07_06_17_07_27.099,3.869,29.3,0,0.757,0,0,0,0.008, ,0,0,0,0,0, ,795.7,37.1,655,0,1.3,-6.2,25,761.981,33.5795,644.573,-0.491832,5.26354,-4.62887,
2026_07_06_17_07_27.115,3.869,29.1,0,0.759,0,0,0,0.008, ,0,0,0,0,0, ,748.7,36.4,656.2,-1.3,-0.3,-2,25,762.604,33.7727,645.245,-0.50147,4.97326,-4.59665,
2026_07_06_17_07_27.135,3.869,29.3,0,0.76,0,0,0,0.009, ,0,0,0,0,0, ,753,35.6,643.9,0.2,-0.4,-3,25,761.888,33.9084,645.538,-0.504427,4.64888,-4.46888,
2026_07_06_17_07_27.155,3.869,29.2,0,0.757,0,0,0,0.008, ,0,0,0,0,0, ,756.8,34.1,651.4,0.2,1.9,-3.2,25,761.462,33.9658,645.666,-0.461501,4.41129,-4.38547,
2026_07_06_17_07_27.174,3.869,29.3,0,0.757,0,0,0,0.009, ,0,0,0,0,0, ,746.3,29.9,652.5,-0.4,0.1,-0.9,25,760.858,33.846,646.049,-0.439472,4.20341,-4.24315,
2026_07_06_17_07_27.194,3.869,29.3,0,0.757,0,0,0,0.008, ,0,0,0,0,0, ,736.5,33.8,649,-0.5,-2,-1.8,25,759.672,33.7244,646.336,-0.440114,3.88938,-4.06685,
2026_07_06_17_07_27.214,3.869,29.4,0,0.759,0,0,0,0.008, ,0,0,0,0,0, ,740.8,34.9,653.9,-0.3,0.4,-4.4,25,758.391,33.7625,646.647,-0.437669,3.60362,-4.00793,
2026_07_06_17_07_27.238,3.869,29.2,0,0.76,0,0,0,0.007, ,0,0,0,0,0, ,754.3,32.4,647.4,0,0.3,-3.8,25,757.73,33.7557,646.891,-0.42014,3.40535,-4.01354,
2026_07_06_17_07_27.254,3.869,29.3,0,0.757,0,0,0,0.009, ,0,0,0,0,0, ,755.3,39,652.5,0.5,-2,-1.9,25,757.552,33.8741,647.078,-0.379303,3.14604,-3.94264,
2026_07_06_17_07_27.273,3.869,29.4,0,0.757,0,0,0,0.008, ,0,0,0,0,0, ,758,40.6,654,0.6,-2.4,-2.7,25,757.497,34.2352,647.454,-0.322674,2.82027,-3.84254,
2026_07_06_17_07_27.294,3.869,29.4,0,0.757,0,0,0,0.008, ,0,0,0,0,0, ,767.7,38.4,656.6,-0.2,-1,-1.1,25,757.823,34.5561,647.932,-0.290823,2.54481,-3.72417,
2026_07_06_17_07_27.313,3.869,29.2,0,0.76,0,0,0,0.008, ,0,0,0,0,0, ,749.8,36.6,656.8,-0.6,1,-0.3,25,757.88,34.7355,648.466,-0.297476,2.38974,-3.53988,
2026_07_06_17_07_27.332,3.869,29.3,0,0.759,0,0,0,0.009, ,0,0,0,0,0, ,733.5,40.6,657.7,-1.3,1.4,-2.6,25,756.891,34.971,649.002,-0.337239,2.31724,-3.41253,
2026_07_06_17_07_27.354,3.869,29.3,0,0.76,0,0,0,0.009, ,0,0,0,0,0, ,748.1,36,651.9,-2.1,1,-4.6,25,755.91,35.1738,649.355,-0.420282,2.24916,-3.42395,
2026_07_06_17_07_27.372,3.869,29.3,0,0.758,0,0,0,0.009, ,0,0,0,0,0, ,757.6,32.2,643.9,-1.7,1.2,-3.3,25,755.724,35.1084,649.266,-0.510453,2.17913,-3.45601,
2026_07_06_17_07_27.394,3.869,29.3,0,0.76,0,0,0,0.009, ,0,0,0,0,0, ,743.7,34.6,634.6,-0.1,-1.9,-2,25,755.414,35.0043,648.656,-0.534191,2.02501,-3.40689,
2026_07_06_17_07_27.412,3.869,29.4,0,0.759,0,0,0,0.009, ,0,0,0,0,0, ,745.4,38.8,646.1,0.2,-5.1,-2.9,25,754.752,35.1076,648.15,-0.498592,1.68833,-3.34858,
2026_07_06_17_07_27.433,3.869,29.3,0,0.758,0,0,0,0.008, ,0,0,0,0,0, ,762.5,40,657.4,0,-0.7,-3.7,25,754.703,35.3692,648.369,-0.462115,1.40873,-3.34562,
2026_07_06_17_07_27.452,3.869,29.4,0,0.757,0,0,0,0.009, ,0,0,0,0,0, ,757.5,42.8,656,-1.2,2.2,-2.4,25,755.026,35.7367,648.877,-0.470517,1.36859,-3.32761,
2026_07_06_17_07_27.472,3.869,29.3,0,0.757,0,0,0,0.008, ,0,0,0,0,0, ,729.1,51.2,654.9,-1.7,1.3,-2.2,25,754.312,36.423,649.277,-0.530205,1.39183,-3.26499,
2026_07_06_17_07_27.492,3.869,29.4,0,0.757,0,0,0,0.009, ,0,0,0,0,0, ,730.8,45.7,653.1,-1.1,-1.9,-3.4,25,752.827,37.1559,649.565,-0.583208,1.28873,-3.23665,
2026_07_06_17_07_27.511,3.869,29.4,0,0.757,0,0,0,0.008, ,0,0,0,0,0, ,753.7,44.4,654,0.4,-0.2,-5.1,25,752.183,37.637,649.808,-0.568997,1.14622,-3.2984,
2026_07_06_17_07_27.531,3.869,29.4,0,0.759,0,0,0,0.008, ,0,0,0,0,0, ,772.4,35.1,645.9,0.2,-0.1,-4.7,25,752.845,37.7657,649.817,-0.516042,1.06723,-3.396,
2026_07_06_17_07_27.550,3.869,29.3,0,0.759,0,0,0,0.008, ,0,0,0,0,0, ,772.3,35.4,655.5,0.4,0.9,-1.9,25,754.033,37.6124,649.87,-0.466315,1.02657,-3.39015,
2026_07_06_17_07_27.571,3.869,29.3,0,0.757,0,0,0,0.009, ,0,0,0,0,0, ,752.1,40.6,643.5,-1.7,-1,0,25,754.531,37.6361,649.848,-0.477508,0.960967,-3.24145,
2026_07_06_17_07_27.591,3.869,29.4,0,0.759,0,0,0,0.009, ,0,0,0,0,0, ,745.6,45.2,660.4,-1.6,-0.2,-1.2,25,754.185,37.9568,649.976,-0.548957,0.865846,-3.08049,
2026_07_06_17_07_27.610,3.869,29.3,0,0.757,0,0,0,0.009, ,0,0,0,0,0, ,747.5,41.3,658,-0.7,1.4,-2.6,25,753.72,38.2794,650.538,-0.585583,0.849646,-3.00855,
2026_07_06_17_07_27.630,3.869,29.5,0,0.758,0,0,0,0.009, ,0,0,0,0,0, ,747.8,41.5,652.7,-0.7,1,-2.5,25,753.35,38.4695,650.831,-0.592555,0.870995,-2.98061,
2026_07_06_17_07_27.649,3.869,29.4,0,0.757,0,0,0,0.008, ,0,0,0,0,0, ,755.4,41.2,649.7,0,-1.3,-2,25,753.243,38.6451,650.854,-0.577774,0.808778,-2.93609,
2026_07_06_17_07_27.670,3.869,29.4,0,0.757,0,0,0,0.009, ,0,0,0,0,0, ,754.8,39.1,645.3,-0.4,-1,-0.5,25,753.356,38.7368,650.649,-0.554754,0.689415,-2.83334,
2026_07_06_17_07_27.689,3.869,29.5,0,0.759,0,0,0,0.009, ,0,0,0,0,0, ,749.2,42.9,644.8,0,-0.3,-0.9,25,753.274,38.8747,650.308,-0.533136,0.607795,-2.70334,
2026_07_06_17_07_27.710,3.869,29.3,0,0.759,0,0,0,0.008, ,0,0,0,0,0, ,741.9,44.3,660,0,0.4,-2.6,25,752.803,39.1626,650.436,-0.500648,0.573804,-2.64525,
2026_07_06_17_07_27.729,3.869,29.5,0,0.758,0,0,0,0.01, ,0,0,0,0,0, ,747.6,42.7,664.7,-0.3,-0.8,-3.2,25,752.312,39.4269,651.162,-0.47928,0.52665,-2.66077,
2026_07_06_17_07_27.749,3.869,29.4,0,0.757,0,0,0,0.008, ,0,0,0,0,0, ,753.9,40.7,656.7,-0.5,0.2,-2.8,25,752.217,39.5655,651.743,-0.474449,0.476276,-2.68144,
2026_07_06_17_07_27.769,3.869,29.5,0,0.757,0,0,0,0.009, ,0,0,0,0,0, ,755.8,40.1,641.2,-0.6,0.6,-1.6,25,752.378,39.6163,651.573,-0.479053,0.471628,-2.65211,
2026_07_06_17_07_27.788,3.869,29.5,0,0.758,0,0,0,0.008, ,0,0,0,0,0, ,750.2,43.5,643,0,-0.4,-1.8,25,752.415,39.7494,650.995,-0.468142,0.448982,-2.59409,
2026_07_06_17_07_27.808,3.869,29.4,0,0.758,0,0,0,0.008, ,0,0,0,0,0, ,748.4,41.2,648,0.1,0.5,-1.7,25,752.226,39.9079,650.661,-0.436568,0.424669,-2.54265,
2026_07_06_17_07_27.828,3.869,29.4,0,0.758,0,0,0,0.009, ,0,0,0,0,0, ,744.6,43,651.2,0.6,0,-2.6,25,751.877,40.0414,650.596,-0.388636,0.414025,-2.51872,
2026_07_06_17_07_27.848,3.869,29.3,0,0.758,0,0,0,0.009, ,0,0,0,0,0, ,753.5,42.1,661.2,0.6,-0.8,-2,25,751.704,40.1943,650.937,-0.328391,0.364421,-2.50539,
2026_07_06_17_07_27.867,3.869,29.5,0,0.759,0,0,0,0.01, ,0,0,0,0,0, ,752,42.3,664.1,-0.1,-0.4,-1.1,25,751.768,40.3165,651.651,-0.293146,0.305651,-2.44718,
2026_07_06_17_07_27.886,3.869,29.3,0,0.759,0,0,0,0.009, ,0,0,0,0,0, ,741.9,44.5,656,-0.1,0.8,-2.2,25,751.475,40.5044,652.163,-0.281376,0.299213,-2.3986,
2026_07_06_17_07_27.907,3.869,29.6,0,0.759,0,0,0,0.01, ,0,0,0,0,0, ,743.4,42.6,650.1,-0.7,0.4,-3.3,25,750.937,40.69,652.217,-0.288604,0.317542,-2.42001,
2026_07_06_17_07_27.926,3.869,29.4,0,0.759,0,0,0,0.008, ,0,0,0,0,0, ,753.1,43,652,-1,-2.1,-3,25,750.773,40.8186,652.146,-0.322814,0.246395,-2.46449,
2026_07_06_17_07_27.946,3.869,29.3,0,0.759,0,0,0,0.01, ,0,0,0,0,0, ,756.7,44.6,656.6,-0.7,-1.7,-1.5,25,751.025,41.0003,652.277,-0.35494,0.115599,-2.45142,
2026_07_06_17_07_27.967,3.869,29.4,0,0.759,0,0,0,0.01, ,0,0,0,0,0, ,754.3,42.7,652.5,-0.4,-1.2,-0.8,25,751.297,41.1617,652.416,-0.366826,0.0201956,-2.37212,
2026_07_06_17_07_27.986,3.869,29.5,0,0.758,0,0,0,0.01, ,0,0,0,0,0, ,744.2,44.4,659.5,0.4,-1,-0.9,25,751.173,41.3073,652.634,-0.344473,-0.0480663,-2.27936,
2026_07_06_17_07_28.005,3.869,29.5,0,0.757,0,0,0,0.009, ,0,0,0,0,0, ,745.1,46.1,664.5,-0.7,0.4,-1.9,25,750.775,41.5475,653.205,-0.332622,-0.0634185,-2.22578,
2026_07_06_17_07_28.025,3.869,29.5,0,0.758,0,0,0,0.009, ,0,0,0,0,0, ,748.5,42.3,651.6,-1.2,0.6,-2.7,25,750.533,41.7092,653.5,-0.370244,-0.0290852,-2.2303,
2026_07_06_17_07_28.046,3.869,29.4,0,0.758,0,0,0,0.009, ,0,0,0,0,0, ,744.9,40,647.7,-1.1,0.4,-2.4,25,750.299,41.6751,653.265,-0.41776,0.00315593,-2.24978,
2026_07_06_17_07_28.065,3.869,29.5,0,0.757,0,0,0,0.01, ,0,0,0,0,0, ,743.6,41.5,650.3,-0.8,-0.9,-2.1,25,749.931,41.6187,653.006,-0.450193,-0.0122708,-2.2498,
2026_07_06_17_07_28.085,3.869,29.6,0,0.757,0,0,0,0.009, ,0,0,0,0,0, ,747.6,46.3,645.2,0.1,-0.8,-2.9,25,749.667,41.7577,652.685,-0.444088,-0.0633199,-2.26504,
2026_07_06_17_07_28.109,3.869,29.4,0,0.758,0,0,0,0.008, ,0,0,0,0,0, ,750.6,42.9,646.3,0.1,1.1,-1.8,25,749.632,41.9309,652.263,-0.410932,-0.0503207,-2.27022,
2026_07_06_17_07_28.125,3.869,29.6,0,0.758,0,0,0,0.01, ,0,0,0,0,0, ,751.8,45.1,655,0,0.4,-2.2,25,749.728,42.057,652.164,-0.382844,-0.00155116,-2.25375,
2026_07_06_17_07_28.144,3.869,29.5,0,0.758,0,0,0,0.009, ,0,0,0,0,0, ,746.3,46.6,662.9,-0.2,-0.5,-1.9,25,749.686,42.2882,652.578,-0.365609,-0.00450351,-2.24134,
2026_07_06_17_07_28.164,3.869,29.5,0,0.759,0,0,0,0.009, ,0,0,0,0,0, ,746.5,45.7,663.9,-1.1,-0.6,-2.8,25,749.486,42.5235,653.237,-0.382939,-0.0377447,-2.24796,
2026_07_06_17_07_28.184,3.869,29.6,0,0.758,0,0,0,0.009, ,0,0,0,0,0, ,750.1,42.9,658.8,-1.3,-0.3,-2.6,25,749.414,42.6317,653.732,-0.432728,-0.0628665,-2.2755,
2026_07_06_17_07_28.203,3.869,29.6,0,0.759,0,0,0,0.009, ,0,0,0,0,0, ,743.4,43.2,646.6,-0.7,0.1,-2,25,749.252,42.6572,653.669,-0.467296,-0.0651293,-2.277,
2026_07_06_17_07_28.223,3.869,29.6,0,0.76,0,0,0,0.009, ,0,0,0,0,0, ,749.3,44.7,654.5,0,0,-2.3,25,749.075,42.736,653.479,-0.460149,-0.0581136,-2.26926,
2026_07_06_17_07_28.243,3.869,29.6,0,0.758,0,0,0,0.009, ,0,0,0,0,0, ,748,47.4,653.8,-0.5,-0.9,-2.1,25,749.049,42.938,653.52,-0.447343,-0.0819942,-2.26504,
2026_07_06_17_07_28.262,3.869,29.6,0,0.757,0,0,0,0.009, ,0,0,0,0,0, ,749.7,47.1,660.5,-1.4,-1.2,-2.2,25,749.037,43.2007,653.741,-0.477973,-0.140982,-2.25803,
2026_07_06_17_07_28.283,3.869,29.6,0,0.757,0,0,0,0.009, ,0,0,0,0,0, ,750.1,47.1,653.5,-1.8,-1.1,-2,25,749.089,43.4383,653.94,-0.546347,-0.202469,-2.2484,
2026_07_06_17_07_28.302,3.869,29.5,0,0.759,0,0,0,0.009, ,0,0,0,0,0, ,747.8,46.8,656.8,-2.6,-1.1,-2.1,25,749.081,43.6523,654.013,-0.647116,-0.257162,-2.23631,
2026_07_06_17_07_28.322,3.869,29.5,0,0.758,0,0,0,0.01, ,0,0,0,0,0, ,749.5,45.8,655,-0.7,0,-2,25,749.055,43.8137,654.128,-0.70823,-0.275007,-2.22496,
2026_07_06_17_07_28.342,3.869,29.5,0,0.755,0,0,0,0.01, ,0,0,0,0,0, ,746.7,44,649.1,-0.7,0.2,-2.1,25,748.996,43.8799,654.002,-0.707728,-0.252155,-2.21429,
2026_07_06_17_07_28.361,3.869,29.7,0,0.759,0,0,0,0.01, ,0,0,0,0,0, ,750.3,43.9,653.8,-0.5,0.7,-2.5,25,748.966,43.8841,653.846,-0.701163,-0.209368,-2.21952,
2026_07_06_17_07_28.382,3.869,29.6,0,0.757,0,0,0,0.008, ,0,0,0,0,0, ,744.1,42.7,653.8,0,0.4,-1.6,25,748.859,43.8485,653.843,-0.673671,-0.163094,-2.20919,
2026_07_06_17_07_28.401,3.869,29.7,0,0.76,0,0,0,0.009, ,0,0,0,0,0, ,743.7,45.5,658.6,0.1,-0.7,-2.4,25,748.556,43.8639,653.987,-0.629572,-0.162296,-2.19644,
2026_07_06_17_07_28.421,3.869,29.7,0,0.758,0,0,0,0.008, ,0,0,0,0,0, ,753.5,48.9,656.1,-0.9,-0.2,-2.2,25,748.559,44.0672,654.192,-0.615582,-0.179828,-2.20275,
2026_07_06_17_07_28.440,3.869,29.6,0,0.759,0,0,0,0.008, ,0,0,0,0,0, ,749.7,46,657.3,-1.2,-0.5,-1.7,25,748.744,44.2733,654.345,-0.642055,-0.190198,-2.18735,
2026_07_06_17_07_28.461,3.869,29.7,0,0.757,0,0,0,0.009, ,0,0,0,0,0, ,744,42.9,654.9,-0.8,-1.2,-1.8,25,748.629,44.2841,654.452,-0.663867,-0.230404,-2.1607,
2026_07_06_17_07_28.480,3.869,29.6,0,0.761,0,0,0,0.008, ,0,0,0,0,0, ,744,47.4,655.3,-0.7,-1.8,-2,25,748.347,44.3368,654.491,-0.669116,-0.30777,-2.14481,
2026_07_06_17_07_28.500,3.869,29.6,0,0.759,0,0,0,0.009, ,0,0,0,0,0, ,751.3,43,649.7,-1,0.1,-2.6,25,748.304,44.3894,654.37,-0.680138,-0.340812,-2.15427,
2026_07_06_17_07_28.520,3.869,29.7,0,0.759,0,0,0,0.009, ,0,0,0,0,0, ,750.9,42.6,648.8,0,1.1,-1.9,25,748.475,44.2926,654.058,-0.669161,-0.283482,-2.1601,
2026_07_06_17_07_28.540,3.869,29.7,0,0.759,0,0,0,0.008, ,0,0,0,0,0, ,744.8,46.7,650.3,0.2,0.2,-1.4,25,748.437,44.3144,653.783,-0.62229,-0.226598,-2.12902,
2026_07_06_17_07_28.560,3.869,29.6,0,0.759,0,0,0,0.009, ,0,0,0,0,0, ,749.3,48.9,658.3,-0.4,-1.2,-2.2,25,748.352,44.5268,653.815,-0.590463,-0.243258,-2.10897,
2026_07_06_17_07_28.580,3.869,29.6,0,0.76,0,0,0,0.009, ,0,0,0,0,0, ,749.7,47.7,663.6,-1.3,-0.9,-1.7,25,748.422,44.7567,654.249,-0.606279,-0.292419,-2.09928,
2026_07_06_17_07_28.600,3.869,29.6,0,0.756,0,0,0,0.009, ,0,0,0,0,0, ,748,45.7,656,-0.8,-0.7,-1.6,25,748.448,44.8751,654.588,-0.633318,-0.32335,-2.0719,
2026_07_06_17_07_28.619,3.869,29.6,0,0.759,0,0,0,0.009, ,0,0,0,0,0, ,746.5,48.5,655.1,-0.7,-0.2,-1.7,25,748.375,45.0107,654.646,-0.640428,-0.331067,-2.04619,
2026_07_06_17_07_28.639,3.869,29.6,0,0.76,0,0,0,0.009, ,0,0,0,0,0, ,747.6,46.5,651.7,-1.1,0.6,-2.7,25,748.294,45.1624,654.57,-0.656246,-0.298705,-2.05557,
2026_07_06_17_07_28.658,3.869,29.7,0,0.759,0,0,0,0.01, ,0,0,0,0,0, ,740.2,42.2,650.6,-0.9,0.5,-2.7,25,748.027,45.1129,654.362,-0.677194,-0.246987,-2.09484,
2026_07_06_17_07_28.679,3.869,29.6,0,0.759,0,0,0,0.009, ,0,0,0,0,0, ,747.6,48.4,651.2,-0.2,0.3,-4.2,25,747.775,45.1243,654.151,-0.669443,-0.207562,-2.17742,
2026_07_06_17_07_28.698,3.869,29.7,0,0.759,0,0,0,0.01, ,0,0,0,0,0, ,749.6,47.1,663.4,-0.6,-0.7,-3.3,25,747.825,45.2843,654.343,-0.653024,-0.207101,-2.27325,
2026_07_06_17_07_28.718,3.869,29.6,0,0.757,0,0,0,0.009, ,0,0,0,0,0, ,759.5,47.3,655.1,-1.1,1,-2.1,25,748.235,45.401,654.642,-0.665027,-0.18534,-2.29925,
2026_07_06_17_07_28.737,3.869,29.6,0,0.759,0,0,0,0.01, ,0,0,0,0,0, ,745.8,44.6,647.5,-0.9,1.4,-1.2,25,748.504,45.4345,654.438,-0.685439,-0.100921,-2.25969,
2026_07_06_17_07_28.757,3.869,29.7,0,0.759,0,0,0,0.01, ,0,0,0,0,0, ,737.4,46.6,655.2,-0.1,-0.5,-1.1,25,748.084,45.4446,654.25,-0.674139,-0.0673492,-2.19207,
2026_07_06_17_07_28.777,3.869,29.8,0,0.759,0,0,0,0.009, ,0,0,0,0,0, ,745.4,47.7,673.7,-0.9,-2.2,-1.5,25,747.676,45.5485,654.872,-0.663527,-0.145511,-2.13771,
2026_07_06_17_07_28.797,3.869,29.7,0,0.759,0,0,0,0.008, ,0,0,0,0,0, ,751.7,48.3,665.1,-1.2,-0.6,-1.5,25,747.729,45.6979,655.757,-0.687078,-0.221956,-2.09885,
2026_07_06_17_07_28.816,3.869,29.6,0,0.76,0,0,0,0.009, ,0,0,0,0,0, ,741.4,44.6,651.8,-1.4,0.3,-1.9,25,747.658,45.7437,655.921,-0.724428,-0.217571,-2.07454,
2026_07_06_17_07_28.836,3.869,29.7,0,0.76,0,0,0,0.01, ,0,0,0,0,0, ,744,46.7,649.2,-1.3,-1.4,-2.5,25,747.356,45.738,655.591,-0.762549,-0.237829,-2.08219,
2026_07_06_17_07_28.856,3.869,29.7,0,0.756,0,0,0,0.009, ,0,0,0,0,0, ,753,46.9,657.9,-1.2,-1.5,-2,25,747.425,45.8027,655.466,-0.792253,-0.311695,-2.09241,
2026_07_06_17_07_28.876,3.869,29.7,0,0.759,0,0,0,0.009, ,0,0,0,0,0, ,748.5,47.3,658.3,-0.9,-1.3,-1.4,25,747.628,45.8818,655.627,-0.807959,-0.378014,-2.0685,
2026_07_06_17_07_28.895,3.869,29.7,0,0.759,0,0,0,0.009, ,0,0,0,0,0, ,741.2,45.6,658.3,-1.2,-1.3,-1.3,25,747.459,45.9164,655.79,-0.822709,-0.434197,-2.02472,
2026_07_06_17_07_28.916,3.869,29.7,0,0.759,0,0,0,0.009, ,0,0,0,0,0, ,738,46.2,658.6,-1.2,-1.2,-3.3,25,746.98,45.9154,655.952,-0.8457,-0.48391,-2.04149,
2026_07_06_17_07_28.936,3.869,29.7,0,0.76,0,0,0,0.009, ,0,0,0,0,0, ,752.9,47.3,656.2,-1.5,-1.4,-3,25,746.886,45.9663,656.04,-0.876431,-0.533641,-2.10904,
2026_07_06_17_07_28.956,3.869,29.8,0,0.759,0,0,0,0.009, ,0,0,0,0,0, ,752.8,50.1,656.2,-1,-1.4,-2.3,25,747.25,46.1328,656.05,-0.899195,-0.586435,-2.14201,
2026_07_06_17_07_28.975,3.869,29.8,0,0.759,0,0,0,0.008, ,0,0,0,0,0, ,750.7,47.9,666.6,-0.9,-1.5,-2.3,25,747.524,46.3076,656.376,-0.902291,-0.639058,-2.15163,
2026_07_06_17_07_28.995,3.869,29.7,0,0.755,0,0,0,0.008, ,0,0,0,0,0, ,743.6,46.6,657.9,-1.7,-2.3,-2.2,25,747.501,46.365,656.734,-0.926526,-0.715897,-2.15763,
2026_07_06_17_07_29.014,3.869,29.8,0,0.759,0,0,0,0.009, ,0,0,0,0,0, ,750.2,45.4,645.3,-2,-0.8,-2.9,25,747.465,46.3428,656.421,-0.982801,-0.766725,-2.18154,
2026_07_06_17_07_29.034,3.869,29.8,0,0.76,0,0,0,0.009, ,0,0,0,0,0, ,758.6,42.7,648.1,-1.4,1.8,-2.2,25,747.887,46.203,655.829,-1.0265,-0.689534,-2.20399,
2026_07_06_17_07_29.054,3.869,29.7,0,0.757,0,0,0,0.009, ,0,0,0,0,0, ,753.5,44.9,638.4,-0.9,0.3,-1.1,25,748.385,46.0566,655.062,-1.03403,-0.583531,-2.17023,
2026_07_06_17_07_29.074,3.869,29.8,0,0.758,0,0,0,0.009, ,0,0,0,0,0, ,743.7,46.5,650.5,-0.3,-0.7,-1,25,748.398,46.0349,654.415,-1.00758,-0.56016,-2.10197,
2026_07_06_17_07_29.094,3.869,29.8,0,0.759,0,0,0,0.009, ,0,0,0,0,0, ,742.4,45.7,663.5,-0.6,-1.6,-1.5,25,748.072,46.0388,654.573,-0.973604,-0.596103,-2.05005,
2026_07_06_17_07_29.113,3.869,29.9,0,0.757,0,0,0,0.009, ,0,0,0,0,0, ,746.2,46.3,666.1,-0.5,-1.6,-1.3,25,747.842,46.0365,655.196,-0.947791,-0.657278,-2.01044,
2026_07_06_17_07_29.133,3.869,29.8,0,0.757,0,0,0,0.008, ,0,0,0,0,0, ,742.9,46,655.6,-1.4,-0.9,-1.4,25,747.641,46.0434,655.541,-0.947925,-0.693397,-1.97019,
2026_07_06_17_07_29.153,3.869,29.8,0,0.757,0,0,0,0.009, ,0,0,0,0,0, ,751.5,44.9,649.2,-1.2,-1.5,-2.5,25,747.615,46.0072,655.349,-0.96938,-0.724268,-1.96896,
2026_07_06_17_07_29.174,3.869,29.8,0,0.759,0,0,0,0.009, ,0,0,0,0,0, ,755.8,46.6,655.5,-1,-1.2,-1.6,25,747.982,45.9916,655.167,-0.977339,-0.762399,-1.9739,
2026_07_06_17_07_29.193,3.869,29.8,0,0.759,0,0,0,0.009, ,0,0,0,0,0, ,751.3,43.4,654,-1.1,0.1,-1.4,25,748.322,45.9311,655.141,-0.981767,-0.749456,-1.94502,
2026_07_06_17_07_29.212,3.869,29.8,0,0.759,0,0,0,0.009, ,0,0,0,0,0, ,742.1,46.5,651.3,-0.9,-0.7,-1.6,25,748.223,45.8713,654.989,-0.982878,-0.722067,-1.9179,
2026_07_06_17_07_29.231,3.869,29.8,0,0.757,0,0,0,0.009, ,0,0,0,0,0, ,752.9,48.3,656.7,-0.2,-0.7,-2.7,25,748.179,45.9645,654.929,-0.9565,-0.720722,-1.93205,
2026_07_06_17_07_29.251,3.869,29.9,0,0.757,0,0,0,0.009, ,0,0,0,0,0, ,760.1,44.4,654.5,-0.6,0,-1.5,25,748.686,45.988,654.97,-0.922588,-0.698131,-1.94228,
2026_07_06_17_07_29.272,3.869,29.8,0,0.757,0,0,0,0.008, ,0,0,0,0,0, ,744.6,43.3,652.4,-0.8,0.5,-0.6,25,748.909,45.8577,654.877,-0.909024,-0.640355,-1.88791,
2026_07_06_17_07_29.291,3.869,29.8,0,0.758,0,0,0,0.009, ,0,0,0,0,0, ,741.2,44.4,651.4,-1.2,-1.4,-1.3,25,748.543,45.7354,654.696,-0.914568,-0.628755,-1.83075,
2026_07_06_17_07_29.311,3.869,29.8,0,0.759,0,0,0,0.009, ,0,0,0,0,0, ,755.3,45.8,649.1,-1.1,-0.7,-1.7,25,748.525,45.6966,654.425,-0.928915,-0.654424,-1.8106,
2026_07_06_17_07_29.330,3.869,29.9,0,0.759,0,0,0,0.009, ,0,0,0,0,0, ,752,45,655.5,-0.6,-0.7,-0.5,25,748.837,45.6786,654.295,-0.924106,-0.657202,-1.7673,
2026_07_06_17_07_29.350,3.869,29.8,0,0.761,0,0,0,0.008, ,0,0,0,0,0, ,738,47.4,653.8,-0.2,-1.2,-1.2,25,748.604,45.7103,654.317,-0.892168,-0.675044,-1.7114,
2026_07_06_17_07_29.370,3.869,29.9,0,0.757,0,0,0,0.009, ,0,0,0,0,0, ,747.8,52.8,651.9,-0.5,-3.1,-3.4,25,748.256,45.9778,654.228,-0.85913,-0.764924,-1.74727,
2026_07_06_17_07_29.390,3.869,29.9,0,0.76,0,0,0,0.008, ,0,0,0,0,0, ,767,56.8,668.5,-0.6,-4.3,-3.6,25,748.813,46.5154,654.592,-0.840292,-0.94378,-1.85407,
2026_07_06_17_07_29.409,3.869,29.9,0,0.759,0,0,0,0.008, ,0,0,0,0,0, ,768,59.6,685.5,-0.6,-9.1,-1,25,749.952,47.2275,655.957,-0.825649,-1.29455,-1.88125,
2026_07_06_17_07_29.429,3.869,29.9,0,0.759,0,0,0,0.008, ,0,0,0,0,0, ,756.8,65.1,682.7,-0.1,-14.3,-1.3,25,750.71,48.149,657.672,-0.796664,-1.92863,-1.83669,
2026_07_06_17_07_29.450,3.869,29.9,0,0.76,0,0,0,0.008, ,0,0,0,0,0, ,776,57.2,687,-2.2,-19.6,-1.1,25,751.667,48.9412,659.328,-0.818196,-2.844,-1.79789,
2026_07_06_17_07_29.469,3.869,29.9,0,0.759,0,0,0,0.008, ,0,0,0,0,0, ,797.2,19.8,672.1,-1.9,-27.3,-0.1,25,753.795,48.305,660.56,-0.893259,-4.09967,-1.72489,
2026_07_06_17_07_29.489,3.869,29.9,0,0.757,0,0,0,0.008, ,0,0,0,0,0, ,837.2,34.1,637.2,-9.1,-36.6,-2,25,757.659,47.0037,660.2,-1.17398,-5.7968,-1.68377,
2026_07_06_17_07_29.508,3.869,29.9,0,0.759,0,0,0,0.008, ,0,0,0,0,0, ,865.2,29.2,617.9,1.3,-56.9,7.6,25,763.359,46.068,658.211,-1.3401,-8.29239,-1.41054,
2026_07_06_17_07_29.531,3.869,29.9,0,0.761,0,0,0,0.008, ,0,0,0,0,0, ,888.3,26,570.9,6.4,-84.9,16,25,770.269,44.9427,654.322,-1.02383,-12.1075,-0.60552,
2026_07_06_17_07_29.549,3.869,30,0,0.758,0,0,0,0.008, ,0,0,0,0,0, ,853,50.9,571.7,8.5,-128.1,22.3,25,776.386,44.547,649.263,-0.507453,-17.8596,0.598332,
2026_07_06_17_07_29.569,3.869,30,0,0.759,0,0,0,0.007, ,0,0,0,0,0, ,872.8,45,590.2,9.9,-156.4,25.9,25,781.658,44.7544,645.1,0.0840944,-25.4396,2.03046,
2026_07_06_17_07_29.589,3.869,30,0,0.758,0,0,0,0, ,0,0,0,0,0, ,896.4,37.2,571.5,6.3,-171.3,23.8,25,787.931,44.5317,641.185,0.572564,-33.874,3.42103,
2026_07_06_17_07_29.608,3.869,30,0,0.76,0,0,0,0, ,0,0,0,0,0, ,919.4,22.4,515.3,7.1,-173,25.4,25,795.242,43.634,635.226,0.945954,-42.3002,4.71162,
2026_07_06_17_07_29.627,3.869,29.9,0,0.759,0,0,0,0, ,0,0,0,0,0, ,919.4,7.9,425.6,5.1,-176.2,25.4,25,802.807,41.8982,625.185,1.26003,-50.3622,5.97232,
2026_07_06_17_07_29.647,3.869,30,0,0.759,0,0,0,0, ,0,0,0,0,0, ,902.9,0.9,364.5,5.6,-192.1,25.5,25,809.41,39.6132,611.161,1.50926,-58.5149,7.15924,
2026_07_06_17_07_29.667,3.869,30,0,0.758,0,0,0,0, ,0,0,0,0,0, ,910.1,3.7,294.3,0.4,-215.3,24.5,25,815.326,37.3394,593.991,1.6001,-67.3621,8.24641,
2026_07_06_17_07_29.686,3.869,30,0,0.758,0,0,0,0, ,0,0,0,0,0, ,940.9,-22.5,202.3,0.1,-206.5,24.1,25,822.04,34.4912,572.926,1.51783,-76.109,9.22468,
2026_07_06_17_07_29.707,3.869,30,0,0.76,0,0,0,0, ,0,0,0,0,0, ,950.6,-20.6,140.5,40.2,-189.8,19.9,25,829.578,31.0762,548.458,2.65323,-83.5458,10.0032,
2026_07_06_17_07_29.730,3.869,30,0,0.759,0,0,0,0, ,0,0,0,0,0, ,910.2,-24.5,25.7,24,-181.2,18.5,25,835.722,27.8084,520.1,4.44764,-89.7587,10.5636,
2026_07_06_17_07_29.746,3.869,30,0,0.758,0,0,0,0, ,0,0,0,0,0, ,914.9,-32.3,1.2,23.5,-182.6,18.4,25,840.404,24.3832,489.226,5.62388,-95.3735,11.0442,
2026_07_06_17_07_29.766,3.869,30,0,0.76,0,0,0,0, ,0,0,0,0,0, ,945.9,-55.5,-15.8,14,-181.2,17.4,25,845.888,20.2222,458.969,6.42375,-100.646,11.462,
2026_07_06_17_07_29.785,3.869,29.9,0,0.759,0,0,0,0, ,0,0,0,0,0, ,940.1,-68.6,-68.2,-0.4,-162.5,20.3,25,851.806,15.2087,428.441,6.44668,-104.985,11.9122,
2026_07_06_17_07_29.806,3.869,30,0,0.758,0,0,0,0, ,0,0,0,0,0, ,883.3,-58.1,-149.1,-4.3,-129.4,18.1,25,855.456,10.4215,395.712,5.91063,-107.482,12.3563,
2026_07_06_17_07_29.827,3.869,30,0,0.759,0,0,0,0, ,0,0,0,0,0, ,897.4,-39.4,-265.2,-2.2,-122.2,10.9,25,857.582,6.81577,358.975,5.35241,-108.598,12.4869,
2026_07_06_17_07_29.845,3.869,30,0,0.759,0,0,0,0, ,0,0,0,0,0, ,984.6,-93.9,-231.4,-10.2,-137.4,13.7,25,862.665,2.33895,321.97,4.64843,-109.89,12.4755,
2026_07_06_17_07_29.864,3.869,30.1,0,0.759,0,0,0,0, ,0,0,0,0,0, ,858.6,-25.8,-293.8,-2,-118.7,-1.7,25,866.257,-1.45069,286.347,3.99345,-110.996,12.0809,
2026_07_06_17_07_29.885,3.869,30.1,0,0.757,0,0,0,0, ,0,0,0,0,0, ,913,-67.8,-334.2,24.9,-113.8,-23.3,25,867.447,-4.21416,249.764,4.44783,-111.317,10.583,
2026_07_06_17_07_29.904,3.869,30.1,0,0.759,0,0,0,0, ,0,0,0,0,0, ,904.5,-84.8,-399.9,14.1,-128.2,-16,25,869.964,-8.60689,212.177,5.36507,-111.907,8.74069,
2026_07_06_17_07_29.925,3.869,30,0,0.758,0,0,0,0, ,0,0,0,0,0, ,832,-63.5,-445,6.6,-141.7,-12.4,25,869.86,-12.6009,173.504,5.66884,-113.311,7.34274,
2026_07_06_17_07_29.944,3.869,30,0,0.758,0,0,0,0, ,0,0,0,0,0, ,848.7,-72.8,-426.8,7.4,-133.1,-9.2,25,868.062,-15.9859,136.369,5.74996,-114.779,6.23717,
2026_07_06_17_07_29.964,3.869,30,0,0.757,0,0,0,0, ,0,0,0,0,0, ,851.6,-81.9,-448.9,-2.3,-110.3,-2.3,25,866.97,-19.7253,101.377,5.55496,-115.201,5.5067,
2026_07_06_17_07_29.983,3.869,30,0,0.757,0,0,0,0, ,0,0,0,0,0, ,781.7,-79.4,-535.1,-11.9,-94.6,4,25,863.904,-23.4379,65.2182,4.7838,-114.424,5.22293,
2026_07_06_17_07_30.002,3.869,30.1,0,0.758,0,0,0,0, ,0,0,0,0,0, ,748,-46.3,-554.8,-19.4,-97.9,1.5,25,857.868,-25.8396,28.036,3.53862,-113.316,5.07224,
2026_07_06_17_07_30.023,3.869,30.1,0,0.761,0,0,0,0, ,0,0,0,0,0, ,770,-48.2,-574.2,-25.1,-116.3,-1.1,25,851.843,-27.1443,-8.07162,1.96712,-112.937,4.77534,
2026_07_06_17_07_30.043,3.869,30,0,0.759,0,0,0,0, ,0,0,0,0,0, ,754.2,-42.7,-647.7,-28.2,-125.9,0,25,846.374,-28.2598,-44.8095,0.223267,-113.435,4.45082,
2026_07_06_17_07_30.064,3.869,30,0,0.76,0,0,0,0, ,0,0,0,0,0, ,726.3,-38.6,-674.9,-19.5,-121.7,-1.4,25,839.907,-29.0148,-82.3769,-1.2437,-114.066,4.13695,
2026_07_06_17_07_30.082,3.869,30,0,0.759,0,0,0,0, ,0,0,0,0,0, ,738,-35.6,-696.6,-15,-106.1,-6.7,25,833.341,-29.5075,-119.145,-2.21908,-114.056,3.63805,
2026_07_06_17_07_30.102,3.869,30,0,0.759,0,0,0,0, ,0,0,0,0,0, ,748.6,-53.8,-726.8,-16.8,-87.4,-2.3,25,827.854,-30.4333,-155.254,-3.05276,-113.002,3.14214,
2026_07_06_17_07_30.122,3.869,30,0,0.758,0,0,0,0, ,0,0,0,0,0, ,707.1,-43,-739.1,-17,-69.8,8.2,25,821.76,-31.5281,-190.457,-3.89658,-110.905,3.13043,
2026_07_06_17_07_30.142,3.869,30.1,0,0.758,0,0,0,0, ,0,0,0,0,0, ,650.2,-17.7,-743.7,-13.2,-45.9,4,25,813.039,-31.4564,-224.03,-4.57929,-107.672,3.31139,
2026_07_06_17_07_30.161,3.869,30.1,0,0.759,0,0,0,0, ,0,0,0,0,0, ,582.3,-11.9,-791.9,-8.2,-54,-8.1,25,801.047,-30.4414,-257.166,-4.95227,-104.155,2.98468,
2026_07_06_17_07_30.181,3.869,30,0,0.759,0,0,0,0, ,0,0,0,0,0, ,596.1,-13.7,-791.9,-14.9,-71.4,-3.9,25,788.138,-29.3663,-289.752,-5.35432,-101.629,2.43718,
2026_07_06_17_07_30.201,3.869,30.1,0,0.759,0,0,0,0, ,0,0,0,0,0, ,620.1,-16.6,-795.2,-15.2,-55.6,-4.5,25,777.167,-28.5,-320.452,-5.94515,-99.3052,2.03272,
2026_07_06_17_07_30.221,3.869,30,0,0.758,0,0,0,0, ,0,0,0,0,0, ,600,-17.2,-836.7,-11.2,-27.1,-5.3,25,766.983,-27.7932,-350.646,-6.38724,-95.7735,1.61026,
2026_07_06_17_07_30.240,3.869,30.1,0,0.758,0,0,0,0, ,0,0,0,0,0, ,552.2,-0.9,-809.8,-3.8,-19.6,-7.4,25,755.351,-26.651,-379.445,-6.45505,-91.3602,1.12518,
2026_07_06_17_07_30.260,3.869,30,0,0.759,0,0,0,0, ,0,0,0,0,0, ,542.7,7.3,-801.2,-2.8,-26.1,-8.4,25,742.682,-24.8319,-405.408,-6.26279,-87.1854,0.57521,
2026_07_06_17_07_30.280,3.869,30.1,0,0.758,0,0,0,0, ,0,0,0,0,0, ,580.9,-2,-824.7,-7,-38.6,-9.5,25,731.66,-23.1573,-430.243,-6.17974,-83.8438,-0.00523197,
2026_07_06_17_07_30.300,3.869,30,0,0.758,0,0,0,0, ,0,0,0,0,0, ,611.9,-10.1,-818.1,-7.2,-24.9,-7,25,723.417,-22.1148,-454.079,-6.23582,-80.6694,-0.507647,
2026_07_06_17_07_30.320,3.869,30,0,0.758,0,0,0,0, ,0,0,0,0,0, ,617.3,-2,-803.9,-6.1,8.2,-5.1,25,716.786,-21.1358,-475.829,-6.26106,-76.2624,-0.845385,
2026_07_06_17_07_30.342,3.869,30,0,0.758,0,0,0,0, ,0,0,0,0,0, ,619.5,3.2,-810.3,-8,41.7,-3.9,25,710.791,-19.8113,-496.016,-6.30914,-70.0948,-1.06809,
2026_07_06_17_07_30.358,3.869,30,0,0.759,0,0,0,0, ,0,0,0,0,0, ,571.6,16.3,-857,-4.8,45.7,-5.8,25,703.768,-18.0099,-516.59,-6.31467,-63.1604,-1.29855,
2026_07_06_17_07_30.379,3.869,30,0,0.759,0,0,0,0, ,0,0,0,0,0, ,583.2,12.8,-845.9,-4.7,16,-5.8,25,696.068,-16.0258,-536.996,-6.21933,-57.4317,-1.57286,
2026_07_06_17_07_30.398,3.869,30.1,0,0.759,0,0,0,0, ,0,0,0,0,0, ,632.2,13.4,-814.6,-2.3,4.4,-3.7,25,690.683,-14.2509,-554.866,-6.05362,-53.3104,-1.76646,
2026_07_06_17_07_30.418,3.869,30.1,0,0.758,0,0,0,0, ,0,0,0,0,0, ,690.3,3.1,-771.3,-2.3,32.3,-0.7,25,688.889,-12.8798,-569.374,-5.82488,-48.9435,-1.79288,
2026_07_06_17_07_30.438,3.869,30,0,0.758,0,0,0,0, ,0,0,0,0,0, ,732.5,8.9,-756.7,-1.8,90.2,1,25,690.261,-11.7293,-581.234,-5.59485,-42.2286,-1.67449,
2026_07_06_17_07_30.458,3.869,30,0,0.758,0,0,0,0, ,0,0,0,0,0, ,749.8,22.5,-748.2,3.8,164.6,-3.6,25,693.362,-10.0578,-591.668,-5.19298,-31.8919,-1.65167,
2026_07_06_17_07_30.478,3.869,30.1,0,0.759,0,0,0,0, ,0,0,0,0,0, ,734.9,5.2,-700.6,8.1,212.4,-6.4,25,696.347,-8.60095,-599.756,-4.51395,-18.4618,-1.85571,
2026_07_06_17_07_30.497,3.869,30.1,0,0.759,0,0,0,0, ,0,0,0,0,0, ,753.5,7.2,-650.3,5.8,225,-6.1,25,699.263,-7.69902,-604.369,-3.81537,-4.00971,-2.12348,
2026_07_06_17_07_30.517,3.869,30.1,0,0.759,0,0,0,0, ,0,0,0,0,0, ,824.5,-5.8,-586.7,3.6,198.5,-1.4,25,704.732,-7.18721,-605.23,-3.29646,9.13814,-2.2226,
2026_07_06_17_07_30.543,3.869,30.1,0,0.759,0,0,0,0, ,0,0,0,0,0, ,839.2,-13.7,-531.4,-0.2,177.2,8.9,25,712.478,-7.34338,-602.416,-2.99199,20.0284,-1.85864,
2026_07_06_17_07_30.557,3.869,30.2,0,0.755,0,0,0,0, ,0,0,0,0,0, ,889.7,-5.7,-485.8,-1,190.5,9.3,25,721.739,-7.48698,-596.699,-2.84623,30.0113,-1.19085,
2026_07_06_17_07_30.577,3.869,30,0,0.759,0,0,0,0, ,0,0,0,0,0, ,903.8,3.5,-438.2,-1.5,215.7,3.2,25,732.403,-7.09778,-588.491,-2.74896,40.5589,-0.737424,
2026_07_06_17_07_30.596,3.869,30,0,0.759,0,0,0,0, ,0,0,0,0,0, ,895,3.5,-374.6,-6.1,220.4,-4.9,25,742.58,-6.45197,-577.394,-2.81301,51.3747,-0.744284,
2026_07_06_17_07_30.617,3.869,30,0,0.759,0,0,0,0, ,0,0,0,0,0, ,941.1,6.5,-303.7,-8.2,206.8,-5.6,25,753.273,-5.75412,-562.876,-3.07729,61.2603,-1.01885,
2026_07_06_17_07_30.635,3.869,30.2,0,0.758,0,0,0,0, ,0,0,0,0,0, ,949.2,-0.4,-222.7,-7.7,189.1,-7,25,764.965,-5.21762,-544.615,-3.37422,69.5899,-1.34067,
2026_07_06_17_07_30.656,3.869,30.1,0,0.758,0,0,0,0, ,0,0,0,0,0, ,970.5,0,-154.7,-8.7,181.5,-6.9,25,776.841,-4.91186,-522.926,-3.66829,76.6409,-1.68249,
2026_07_06_17_07_30.675,3.869,30,0,0.758,0,0,0,0, ,0,0,0,0,0, ,1010.1,-6.4,-110.7,-7.2,188.5,-5.3,25,789.849,-4.80754,-499.147,-3.92921,83.2441,-1.95168,
2026_07_06_17_07_30.695,3.869,30.1,0,0.757,0,0,0,0, ,0,0,0,0,0, ,986.5,0.6,-93.9,-5.9,195.9,-7.3,25,802.551,-4.6913,-474.964,-4.08891,89.8836,-2.21666,
2026_07_06_17_07_30.715,3.869,30.1,0,0.757,0,0,0,0, ,0,0,0,0,0, ,954.1,3,-29.5,-1.6,189.1,-9.9,25,812.773,-4.29574,-449.781,-4.06826,96.1368,-2.60564,
2026_07_06_17_07_30.735,3.869,30,0,0.759,0,0,0,0, ,0,0,0,0,0, ,951.5,6.8,59.9,0.2,171.3,-8.7,25,821.306,-3.73537,-421.446,-3.86301,101.259,-3.01358,
2026_07_06_17_07_30.760,3.869,30.1,0,0.759,0,0,0,0, ,0,0,0,0,0, ,966.6,19.1,141.8,1.1,163.6,-7,25,829.7,-2.71861,-389.619,-3.588,105.293,-3.3083,
2026_07_06_17_07_30.775,3.869,30.1,0,0.758,0,0,0,0, ,0,0,0,0,0, ,958,11.9,195.9,2,168.8,-9.5,25,837.78,-1.60841,-355.587,-3.2749,109.004,-3.60943,
2026_07_06_17_07_30.794,3.869,30,0,0.759,0,0,0,0, ,0,0,0,0,0, ,921.1,0.9,239.7,2.1,173.4,-10.9,25,843.982,-1.1204,-320.646,-2.95041,112.788,-4.01105,
2026_07_06_17_07_30.815,3.869,30,0,0.758,0,0,0,0, ,0,0,0,0,0, ,868,7.8,291.8,2.2,165.4,-10.4,25,847.063,-0.787046,-284.913,-2.63961,116.238,-4.41561,
2026_07_06_17_07_30.835,3.869,30,0,0.759,0,0,0,0, ,0,0,0,0,0, ,840.9,28.4,341.9,3.5,145.1,-12.8,25,847.513,0.363884,-248.243,-2.30508,118.615,-4.85341,
2026_07_06_17_07_30.854,3.869,30.1,0,0.758,0,0,0,0, ,0,0,0,0,0, ,848.9,21.3,393.7,6.5,124.8,-13.2,25,847.354,1.85601,-210.703,-1.85993,119.611,-5.34984,
2026_07_06_17_07_30.873,3.869,30.1,0,0.757,0,0,0,0, ,0,0,0,0,0, ,829.5,28,428.2,13.4,112.9,-12.8,25,846.857,3.24501,-172.821,-1.14026,119.564,-5.81602,
2026_07_06_17_07_30.895,3.869,30.1,0,0.759,0,0,0,0, ,0,0,0,0,0, ,803.8,29.2,441.5,17.5,105.8,-13.5,25,845.017,4.79008,-135.791,-0.129294,118.942,-6.26294,
2026_07_06_17_07_30.914,3.869,30.1,0,0.759,0,0,0,0, ,0,0,0,0,0, ,759.2,43.9,482.6,19.8,83.3,-14,25,841.146,6.72545,-99.3598,1.01507,117.456,-6.71918,
2026_07_06_17_07_30.932,3.869,30,0,0.759,0,0,0,0, ,0,0,0,0,0, ,756.1,57.9,544.6,19.6,55,-17.4,25,836.058,9.41734,-62.0076,2.15368,114.512,-7.26645,
2026_07_06_17_07_30.952,3.869,30.2,0,0.759,0,0,0,0, ,0,0,0,0,0, ,776.6,56,566.5,17.2,35.9,-19.4,25,831.81,12.3139,-24.3752,3.14369,110.304,-7.9449,
2026_07_06_17_07_30.971,3.869,30.1,0,0.76,0,0,0,0, ,0,0,0,0,0, ,783,62.6,573.4,16.9,24.6,-16.7,25,828.641,15.1771,11.8415,3.99111,105.425,-8.56068,
2026_07_06_17_07_30.992,3.869,30.2,0,0.757,0,0,0,0, ,0,0,0,0,0, ,790.2,86.6,584.8,19,15.3,-16.6,25,826.079,18.7982,46.4088,4.84173,100.217,-9.05362,
2026_07_06_17_07_31.012,3.869,30.1,0,0.76,0,0,0,0, ,0,0,0,0,0, ,813.9,98.9,616,18.9,8,-15.7,25,824.615,23.3046,80.1676,5.70145,94.8196,-9.48606,
2026_07_06_17_07_31.031,3.869,30.1,0,0.76,0,0,0,0, ,0,0,0,0,0, ,825.8,107,643.9,17.2,7.5,-14.6,25,824.324,28.158,113.67,6.45394,89.5138,-9.8312,
2026_07_06_17_07_31.051,3.869,30.1,0,0.759,0,0,0,0, ,0,0,0,0,0, ,820.4,101.9,644.8,12.7,8.4,-13,25,824.25,32.807,146.008,6.97167,84.5435,-10.0731,
2026_07_06_17_07_31.071,3.869,30.1,0,0.759,0,0,0,0, ,0,0,0,0,0, ,823.8,119.2,641.2,9.7,8.8,-12.4,25,824.119,37.5445,176.294,7.22933,79.9157,-10.2331,
2026_07_06_17_07_31.091,3.869,30,0,0.758,0,0,0,0, ,0,0,0,0,0, ,832.5,133.5,635.3,8.4,9.6,-11.9,25,824.364,42.9561,204.444,7.34028,75.6064,-10.3499,
2026_07_06_17_07_31.110,3.869,30.1,0,0.758,0,0,0,0, ,0,0,0,0,0, ,839.2,133,640.9,7,11.9,-9.5,25,825.064,48.4584,230.87,7.3622,71.6543,-10.3713,
2026_07_06_17_07_31.131,3.869,30.1,0,0.758,0,0,0,0, ,0,0,0,0,0, ,826.5,139.1,647.2,4.1,9.4,-7.7,25,825.539,53.796,256.048,7.25177,67.9368,-10.2633,
2026_07_06_17_07_31.149,3.869,30.1,0,0.759,0,0,0,0, ,0,0,0,0,0, ,818.4,137.2,640.1,2.4,4.3,-6.3,25,825.35,58.9363,279.668,7.00791,64.2143,-10.0645,
2026_07_06_17_07_31.174,3.869,30.1,0,0.759,0,0,0,0, ,0,0,0,0,0, ,815.1,137.6,628,1.4,2.8,-5.1,25,824.826,63.7177,301.263,6.69665,60.5176,-9.79852,
2026_07_06_17_07_31.190,3.869,30.1,0,0.759,0,0,0,0, ,0,0,0,0,0, ,800.5,132.6,619.2,-0.1,3.1,-3.1,25,823.789,68.0675,320.905,6.32818,57.0096,-9.45126,
2026_07_06_17_07_31.210,3.869,30.1,0,0.758,0,0,0,0, ,0,0,0,0,0, ,783.8,129.6,612.6,-1.6,1.1,-2.1,25,821.861,71.9086,338.882,5.89076,53.6635,-9.03376,
2026_07_06_17_07_31.229,3.869,30,0,0.757,0,0,0,0, ,0,0,0,0,0, ,778,128.4,606.5,-2.7,-1.5,-2.4,25,819.365,75.3876,355.375,5.40078,50.3812,-8.62038,
2026_07_06_17_07_31.249,3.869,30.1,0,0.758,0,0,0,0, ,0,0,0,0,0, ,777,120.1,602.7,-2.3,-3.1,-2.8,25,816.814,78.3651,370.563,4.91932,47.171,-8.25351,
2026_07_06_17_07_31.269,3.869,30.1,0,0.757,0,0,0,0, ,0,0,0,0,0, ,768.5,121.3,597.5,-1.9,-1.5,-4.6,25,814.129,80.9449,384.55,4.49158,44.1563,-7.97603,
2026_07_06_17_07_31.291,3.869,30,0,0.759,0,0,0,0, ,0,0,0,0,0, ,774.1,125,590.4,-2,-1.9,-7,25,811.519,83.5168,397.31,4.09905,41.3619,-7.84343,
2026_07_06_17_07_31.309,3.869,30.1,0,0.757,0,0,0,0, ,0,0,0,0,0, ,787.4,123.9,595.4,-2,-0.2,-7.3,25,809.644,86.0112,409.229,3.72739,38.7775,-7.80117,
2026_07_06_17_07_31.328,3.869,30,0,0.759,0,0,0,0, ,0,0,0,0,0, ,771.9,112.9,601.4,-0.8,1.6,-7.8,25,807.816,87.9849,420.757,3.41494,36.4571,-7.78587,
2026_07_06_17_07_31.348,3.869,30,0,0.757,0,0,0,0, ,0,0,0,0,0, ,772,163.8,600.3,1.8,-3,-9.5,25,805.63,91.054,431.731,3.23731,34.1929,-7.83853,
2026_07_06_17_07_31.368,3.869,30,0,0.76,0,0,0,0, ,0,0,0,0,0, ,756.1,148.4,591.4,1.5,-3.4,-18.2,25,803.097,95.0177,441.732,3.14058,31.9142,-8.20485,
2026_07_06_17_07_31.388,3.869,30,0,0.758,0,0,0,0, ,0,0,0,0,0, ,771.6,172.6,614.7,2.6,-7.2,-23.6,25,800.705,99.0081,451.562,3.07412,29.6465,-8.97846,
2026_07_06_17_07_31.407,3.869,30.1,0,0.76,0,0,0,0, ,0,0,0,0,0, ,760.6,244.1,634.3,-1.8,-9.2,-33.4,25,798.596,105.671,462.101,2.91117,27.3402,-10.1681,
2026_07_06_17_07_31.428,3.869,30.1,0,0.759,0,0,0,0, ,0,0,0,0,0, ,773.1,209.1,630.1,-9.1,-5.4,-48.8,25,796.662,113.04,472.466,2.40166,25.2293,-12.053,
2026_07_06_17_07_31.447,3.869,30.1,0,0.758,0,0,0,0, ,0,0,0,0,0, ,793.8,267.4,664.9,-0.8,-6.6,-60.7,25,795.857,120.67,483.132,1.95367,23.3263,-14.6548,
2026_07_06_17_07_31.467,3.869,30.1,0,0.759,0,0,0,0, ,0,0,0,0,0, ,736.8,311.4,690.4,41.2,-0.8,-86.5,25,793.995,130.952,494.986,3.06556,21.6794,-18.2468,
2026_07_06_17_07_31.486,3.869,30.1,0,0.76,0,0,0,0, ,0,0,0,0,0, ,693.9,314,680.2,67.2,-4.3,-108.3,25,789.202,142.027,506.583,6.18156,20.2029,-23.0702,
2026_07_06_17_07_31.506,3.869,30,0,0.76,0,0,0,0, ,0,0,0,0,0, ,689.6,342.2,626.3,6.8,-34.7,-112.2,25,783.264,153.366,515.521,8.05956,17.7835,-28.3827,
2026_07_06_17_07_31.528,3.869,30.1,0,0.758,0,0,0,0, ,0,0,0,0,0, ,679.6,392.2,611.2,4.8,-51.6,-109.9,25,777.251,166.397,521.811,7.92187,14.0704,-33.4202,
2026_07_06_17_07_31.545,3.869,30,0,0.759,0,0,0,0, ,0,0,0,0,0, ,676.6,403.6,592.2,-6.4,-73.6,-114.3,25,771.209,180.504,526.679,7.39038,9.39827,-38.2148,
2026_07_06_17_07_31.565,3.869,30.1,0,0.758,0,0,0,0, ,0,0,0,0,0, ,694.8,484.2,528.4,4.2,-71.4,-136.1,25,765.999,196.555,528.728,6.873,4.4076,-43.5155,
2026_07_06_17_07_31.585,3.869,30.1,0,0.759,0,0,0,0, ,0,0,0,0,0, ,755.6,441.4,484.1,15,-44.1,-168.6,25,763.512,212.779,527.358,7.03917,0.619869,-50.1476,
2026_07_06_17_07_31.605,3.869,30,0,0.757,0,0,0,0, ,0,0,0,0,0, ,808.1,399.9,488.8,12,-51.1,-146.5,25,764.63,225.446,524.865,7.43288,-2.31853,-56.6924,
2026_07_06_17_07_31.625,3.869,30.1,0,0.757,0,0,0,0, ,0,0,0,0,0, ,819,426.2,463.3,7.4,-75.9,-105.2,25,767.611,236.878,521.891,7.57103,-6.04677,-60.9067,
2026_07_06_17_07_31.645,3.869,30.1,0,0.758,0,0,0,0, ,0,0,0,0,0, ,799.5,491.2,422.4,13.2,-88.8,-90.5,25,770.148,250.395,517.074,7.73733,-10.6965,-63.1579,
2026_07_06_17_07_31.665,3.869,30,0,0.759,0,0,0,0, ,0,0,0,0,0, ,792.9,488.6,369,22.1,-79.6,-98.6,25,771.736,264.99,509.678,8.34138,-15.1756,-65.0709,
2026_07_06_17_07_31.685,3.869,30.1,0,0.759,0,0,0,0, ,0,0,0,0,0, ,710.3,480.4,316.5,25.3,-71.9,-108.9,25,770.509,278.367,499.506,9.2773,-18.8669,-67.4279,
2026_07_06_17_07_31.704,3.869,30.1,0,0.759,0,0,0,0, ,0,0,0,0,0, ,778,522.5,268.7,34.9,-77.4,-88.7,25,768.903,291.961,486.897,10.5462,-22.2662,-69.3396,
2026_07_06_17_07_31.724,3.869,30.1,0,0.759,0,0,0,0, ,0,0,0,0,0, ,854.7,558.2,255.7,45.2,-85.3,-58.3,25,771.794,307.097,473.205,12.3441,-25.8666,-69.5931,
2026_07_06_17_07_31.744,3.869,30.1,0,0.76,0,0,0,0, ,0,0,0,0,0, ,819.8,580.8,186.7,64.3,-85.3,-46,25,775.783,323.087,457.848,14.9282,-29.4883,-68.5302,
2026_07_06_17_07_31.763,3.869,30.1,0,0.76,0,0,0,0, ,0,0,0,0,0, ,714.5,623.5,169.1,80.6,-58.4,-47.3,25,775.257,340.093,440.789,18.4334,-32.0697,-67.1969,
2026_07_06_17_07_31.783,3.869,30.1,0,0.757,0,0,0,0, ,0,0,0,0,0, ,617.3,646.9,152.3,88.7,-48.8,-67.3,25,768.593,358.076,423.721,22.4685,-33.3817,-66.5938,
2026_07_06_17_07_31.803,3.869,30,0,0.76,0,0,0,0, ,0,0,0,0,0, ,578.4,659.3,147.9,91.7,-66.2,-71,25,758.188,376.054,407.047,26.5959,-34.8514,-66.7496,
2026_07_06_17_07_31.822,3.869,30.1,0,0.759,0,0,0,0, ,0,0,0,0,0, ,599.2,675.7,123.5,92.4,-86.5,-60.5,25,747.866,393.814,390.512,30.5845,-37.3802,-66.6886,
2026_07_06_17_07_31.842,3.869,30.1,0,0.76,0,0,0,0, ,0,0,0,0,0, ,639.4,710.6,117.1,88,-76.5,-55.1,25,740.031,412.055,374.046,34.2173,-40.0688,-66.147,
2026_07_06_17_07_31.863,3.869,30.1,0,0.758,0,0,0,0, ,0,0,0,0,0, ,586.9,735.1,81.9,81.9,-57.7,-75.5,25,732.3,430.994,357.316,37.3088,-41.716,-66.0954,
2026_07_06_17_07_31.882,3.869,30,0,0.758,0,0,0,0, ,0,0,0,0,0, ,586.6,735.2,41.7,71.1,-42.7,-80.2,25,723.43,449.528,339.308,39.697,-42.233,-66.8117,
2026_07_06_17_07_31.903,3.869,30.1,0,0.76,0,0,0,0, ,0,0,0,0,0, ,637.3,742.9,48.5,55.6,-37.9,-66.6,25,716.637,467.171,321.38,41.1384,-42.1152,-67.2132,
2026_07_06_17_07_31.922,3.869,29.9,0,0.759,0,0,0,0, ,0,0,0,0,0, ,633.9,787.3,64.4,50.9,-36.1,-62.6,25,711.699,485.326,305.235,41.8764,-41.8035,-67.0539,
2026_07_06_17_07_31.941,3.869,30,0,0.759,0,0,0,0, ,0,0,0,0,0, ,650.5,817.7,61,38.8,-36,-52.8,25,707.464,504.654,290.456,42.0576,-41.4529,-66.4839,
2026_07_06_17_07_31.960,3.869,30,0,0.758,0,0,0,0, ,0,0,0,0,0, ,659.3,817.5,76.5,25.6,-24.7,-47.5,25,704.261,523.724,276.946,41.4569,-40.7763,-65.4886,
2026_07_06_17_07_31.981,3.869,30,0,0.759,0,0,0,0, ,0,0,0,0,0, ,633.1,819.4,65.7,12.2,-3.8,-48.1,25,700.722,541.684,264.402,40.0824,-39.1599,-64.4107,
2026_07_06_17_07_32.000,3.869,30.1,0,0.76,0,0,0,0, ,0,0,0,0,0, ,656.6,802.9,79.9,-2,0.3,-38.6,25,697.318,558.104,252.726,37.9506,-36.8802,-63.1273,
2026_07_06_17_07_32.021,3.869,30.1,0,0.759,0,0,0,0, ,0,0,0,0,0, ,667.2,816,41.3,-12.5,-7.8,-18.7,25,695.159,573.421,241.019,35.1962,-34.8613,-61.0263,
2026_07_06_17_07_32.040,3.869,30.1,0,0.759,0,0,0,0, ,0,0,0,0,0, ,611.4,841.6,26.2,-14.1,-6.8,-6.9,25,691.756,588.983,228.388,32.241,-33.1818,-58.0875,
2026_07_06_17_07_32.061,3.869,30.1,0,0.759,0,0,0,0, ,0,0,0,0,0, ,542.6,843.2,34.1,-11.8,1.4,-17.8,25,684.763,604.426,216.308,29.4872,-31.3243,-55.3004,
2026_07_06_17_07_32.080,3.869,30.1,0,0.76,0,0,0,0, ,0,0,0,0,0, ,531.6,819.7,23,-9.7,0.2,-12,25,675.764,618.26,204.867,27.0352,-29.3668,-52.8385,
2026_07_06_17_07_32.100,3.869,29.9,0,0.759,0,0,0,0, ,0,0,0,0,0, ,549.3,850.2,15.6,-9,-1.8,-6,25,667.519,631.464,193.559,24.818,-27.626,-50.1671,
2026_07_06_17_07_32.119,3.869,30.1,0,0.759,0,0,0,0, ,0,0,0,0,0, ,576,852.1,7.2,-10.5,-2.2,-0.9,25,661.128,644.851,182.458,22.7115,-26.0644,-47.3203,
2026_07_06_17_07_32.138,3.869,30.1,0,0.758,0,0,0,0, ,0,0,0,0,0, ,566.4,865.7,9.3,-11.9,-4.2,6,25,655.648,657.895,171.842,20.645,-24.6711,-44.2813,
2026_07_06_17_07_32.159,3.869,30,0,0.759,0,0,0,0, ,0,0,0,0,0, ,552.3,873.2,2.4,-12.9,-4.5,7,25,649.78,670.787,161.727,18.6313,-23.4328,-41.1868,
2026_07_06_17_07_32.179,3.869,30,0,0.758,0,0,0,0, ,0,0,0,0,0, ,554.9,865.4,-2.5,-15.7,-1.8,7.2,25,643.919,682.884,151.869,16.6246,-22.1968,-38.2443,
2026_07_06_17_07_32.197,3.869,30.1,0,0.758,0,0,0,0, ,0,0,0,0,0, ,643.3,858.8,3.6,-18,0.2,18.5,25,641.188,693.805,142.648,14.5847,-20.8929,-35.1308,
2026_07_06_17_07_32.218,3.869,30,0,0.757,0,0,0,0, ,0,0,0,0,0, ,726,856.9,7.5,-21.1,2.7,41.6,25,643.836,703.801,134.294,12.5046,-19.5314,-31.1588,
2026_07_06_17_07_32.237,3.869,30,0,0.759,0,0,0,0, ,0,0,0,0,0, ,757.4,856.8,11.2,-25,9.6,69.6,25,649.8,713.128,126.68,10.338,-17.9664,-25.872,
2026_07_06_17_07_32.258,3.869,30.1,0,0.757,0,0,0,0, ,0,0,0,0,0, ,722.9,853.1,8.3,-32.7,16,96.8,25,655.306,721.77,119.554,7.95001,-16.0916,-19.2254,
2026_07_06_17_07_32.276,3.869,30.1,0,0.759,0,0,0,0, ,0,0,0,0,0, ,838.3,797.9,66.6,-45.6,9.5,123.5,25,662.941,728.091,114.551,5.07986,-14.3341,-11.3416,
2026_07_06_17_07_32.296,3.869,30.1,0,0.76,0,0,0,0, ,0,0,0,0,0, ,973.9,757,111,-56.1,-1.1,159.1,25,677.758,731.099,112.982,1.67163,-13.2047,-2.03998,
2026_07_06_17_07_32.317,3.869,30.1,0,0.759,0,0,0,0, ,0,0,0,0,0, ,942.5,725.5,133.9,-66.8,-2.7,199,25,694.848,731.717,113.559,-2.17484,-12.5158,8.99519,
2026_07_06_17_07_32.337,3.869,30,0,0.759,0,0,0,0, ,0,0,0,0,0, ,777.8,709.5,145.1,-74,-7.3,211.7,25,704.921,730.851,115.14,-6.33231,-12.0578,20.9606,
2026_07_06_17_07_32.360,3.869,29.9,0,0.758,0,0,0,0, ,0,0,0,0,0, ,701.2,667.7,140.6,-65.1,-7.9,194.7,25,707.028,728.276,116.828,-10.1846,-11.7861,32.0658,
2026_07_06_17_07_32.377,3.869,30,0,0.759,0,0,0,0, ,0,0,0,0,0, ,725.3,567.7,120.4,-40.4,-7.5,178.8,25,707.407,721.538,117.661,-12.7785,-11.5371,41.4918,
2026_07_06_17_07_32.396,3.869,30.1,0,0.759,0,0,0,0, ,0,0,0,0,0, ,752.3,512.2,60.1,-9.5,8.6,169.3,25,709.32,710.473,115.991,-13.5202,-10.8006,49.5696,
2026_07_06_17_07_32.417,3.869,30,0,0.759,0,0,0,0, ,0,0,0,0,0, ,799,377.9,132.8,14.3,17,168.1,25,713.362,694.298,114.8,-12.55,-9.36242,56.8291,
2026_07_06_17_07_32.436,3.869,30,0,0.758,0,0,0,0, ,0,0,0,0,0, ,753.7,458.2,115.1,26.7,18.7,129.9,25,717.2,677.464,115.358,-10.536,-7.70416,62.4458,
2026_07_06_17_07_32.455,3.869,30,0,0.758,0,0,0,0, ,0,0,0,0,0, ,796.2,408.5,120.7,-5.9,6,123.8,25,720.72,662.589,115.513,-9.26026,-6.48211,66.3704,
2026_07_06_17_07_32.474,3.869,30,0,0.76,0,0,0,0, ,0,0,0,0,0, ,806.3,364.3,89.8,-28.2,-8.3,114.1,25,725.627,645.758,114.887,-9.73495,-6.15719,69.5745,
2026_07_06_17_07_32.495,3.869,29.9,0,0.758,0,0,0,0, ,0,0,0,0,0, ,915.7,276.8,83.9,-19,-2.2,104.3,25,733.876,625.941,113.179,-10.5798,-6.1019,71.9892,
2026_07_06_17_07_32.515,3.869,30,0,0.76,0,0,0,0, ,0,0,0,0,0, ,932,257.4,89.3,-1.6,13.2,100.6,25,745.453,604.074,111.559,-10.5628,-5.39491,73.8454,
2026_07_06_17_07_32.535,3.869,30,0,0.758,0,0,0,0, ,0,0,0,0,0, ,957.8,234,99.8,9,16.6,92.5,25,757.607,582.236,110.523,-9.69365,-4.15819,75.2289,
2026_07_06_17_07_32.554,3.869,30.1,0,0.758,0,0,0,0, ,0,0,0,0,0, ,1029.1,161,74,8.8,5.8,99.9,25,771.978,558.791,109.083,-8.5606,-3.2223,76.5069,
2026_07_06_17_07_32.574,3.869,30,0,0.759,0,0,0,0, ,0,0,0,0,0, ,1031.6,111.4,69.7,-0.8,4.4,116.4,25,787.723,533.039,106.814,-7.79519,-2.71516,78.4351,
2026_07_06_17_07_32.600,3.869,30,0,0.76,0,0,0,0, ,0,0,0,0,0, ,960.3,94.7,121.9,-6.8,17,113.4,25,800.412,506.837,106.143,-7.55174,-1.89768,80.6572,
2026_07_06_17_07_32.617,3.869,30,0,0.757,0,0,0,0, ,0,0,0,0,0, ,968.3,29.2,155.6,4.1,24.4,109.4,25,810.399,479.727,108.13,-7.17382,-0.52063,82.5306,
2026_07_06_17_07_32.633,3.869,30,0,0.758,0,0,0,0, ,0,0,0,0,0, ,820.5,21.2,137,7,28.1,102.8,25,815.517,452.029,110.456,-6.39846,1.1107,83.9668,
2026_07_06_17_07_32.653,3.869,30,0,0.757,0,0,0,0, ,0,0,0,0,0, ,765.8,6.2,106.4,4.6,29.4,82.7,25,814.154,425.318,111.141,-5.65512,2.79497,84.5021,
2026_07_06_17_07_32.674,3.869,30,0,0.759,0,0,0,0, ,0,0,0,0,0, ,639.7,-69.5,157.7,-8.4,25.8,62.2,25,807.366,397.472,112.415,-5.42629,4.30653,83.7676,
2026_07_06_17_07_32.693,3.869,30,0,0.759,0,0,0,0, ,0,0,0,0,0, ,734.7,-53.8,84.2,-2.4,37.3,52.5,25,800.043,369.494,112.935,-5.42469,5.96668,82.1578,
2026_07_06_17_07_32.713,3.869,30,0,0.758,0,0,0,0, ,0,0,0,0,0, ,845,-2.6,122.4,14.2,17.8,22.9,25,799.422,345.259,112.348,-4.73459,7.28191,79.4487,
2026_07_06_17_07_32.732,3.869,30,0,0.757,0,0,0,0, ,0,0,0,0,0, ,810.1,-37.3,180,15.2,4.4,-4.9,25,801.136,323.005,114.716,-3.55029,7.51458,75.1557,
2026_07_06_17_07_32.752,3.869,30,0,0.758,0,0,0,0, ,0,0,0,0,0, ,929.9,-56.2,175,10.7,3.2,-10.8,25,805.332,300.473,118.542,-2.54481,7.28822,70.0975,
2026_07_06_17_07_32.773,3.869,29.9,0,0.758,0,0,0,0, ,0,0,0,0,0, ,929.6,-58.4,227,6.7,8.6,-14.6,25,812.914,278.671,123.567,-1.85958,7.20363,65.0521,
2026_07_06_17_07_32.793,3.869,30.1,0,0.759,0,0,0,0, ,0,0,0,0,0, ,933.3,-29.9,259.5,8.7,16.5,-24.1,25,820.137,258.999,130.86,-1.27704,7.52942,59.9088,
2026_07_06_17_07_32.811,3.869,29.9,0,0.758,0,0,0,0, ,0,0,0,0,0, ,956.5,-27.3,256.8,9.1,16.6,-30.8,25,827.74,241.473,138.616,-0.656877,8.07911,54.5854,
2026_07_06_17_07_32.831,3.869,30,0,0.76,0,0,0,0, ,0,0,0,0,0, ,1068.4,-46.1,235.4,7,13.2,-32.7,25,838.996,224.522,145.166,-0.126301,8.49476,49.3243,
2026_07_06_17_07_32.854,3.869,30,0,0.76,0,0,0,0, ,0,0,0,0,0, ,1124.2,-58.4,247.1,8.7,14.5,-20.8,25,854.675,207.656,151.021,0.359754,8.82109,44.6885,
2026_07_06_17_07_32.871,3.869,30,0,0.759,0,0,0,0, ,0,0,0,0,0, ,1067.2,-45.8,257.3,11.3,21.2,-11.8,25,869.363,191.828,157.187,0.947207,9.37129,40.9721,
2026_07_06_17_07_32.891,3.869,30,0,0.759,0,0,0,0, ,0,0,0,0,0, ,989.3,-18,281.9,11.2,20.7,-12.4,25,879.045,178.194,164.037,1.57503,10.0769,37.738,
2026_07_06_17_07_32.909,3.869,30,0,0.76,0,0,0,0, ,0,0,0,0,0, ,988.1,-0.1,296.3,6,11.6,-19.9,25,885.727,166.784,171.658,2.00312,10.447,34.4542,
2026_07_06_17_07_32.930,3.869,30,0,0.759,0,0,0,0, ,0,0,0,0,0, ,1086,-17.3,306.5,6,6.1,-19.9,25,894.948,156.09,179.564,2.24668,10.3496,31.142,
2026_07_06_17_07_32.953,3.869,29.9,0,0.759,0,0,0,0, ,0,0,0,0,0, ,1101.5,-35.6,301.6,6.8,12.7,-7.1,25,907.063,144.967,187.15,2.49977,10.2918,28.4216,
2026_07_06_17_07_32.970,3.869,30,0,0.759,0,0,0,0, ,0,0,0,0,0, ,1017.2,-13.4,302.3,2.4,19.6,0.3,25,916.343,134.64,194.146,2.62775,10.6488,26.4825,
2026_07_06_17_07_32.990,3.869,30,0,0.758,0,0,0,0, ,0,0,0,0,0, ,965.3,-4.2,286,-0.7,16.8,-2.6,25,920.907,125.899,200.24,2.51942,11.1089,24.7986,
2026_07_06_17_07_33.009,3.869,29.9,0,0.759,0,0,0,0, ,0,0,0,0,0, ,1004.8,-21.7,294.3,-1,14.4,-2.5,25,924.816,117.438,205.719,2.3141,11.3826,23.1321,
2026_07_06_17_07_33.029,3.869,30.1,0,0.76,0,0,0,0, ,0,0,0,0,0, ,1010.2,-24.9,307.4,-0.2,20.9,4.1,25,929.855,108.862,211.516,2.13652,11.7645,21.7712,
2026_07_06_17_07_33.049,3.869,30,0,0.76,0,0,0,0, ,0,0,0,0,0, ,973,-11.5,330.5,-1.8,28,7.5,25,933.617,101.119,218.062,1.94539,12.5375,20.798,
2026_07_06_17_07_33.069,3.869,30,0,0.758,0,0,0,0, ,0,0,0,0,0, ,978.6,-18.9,324,-7.2,37.4,8.8,25,936.188,94.0307,224.716,1.55262,13.7662,20.0272,
2026_07_06_17_07_33.088,3.869,30.1,0,0.758,0,0,0,0, ,0,0,0,0,0, ,996.4,-49.5,324.8,-8,56.7,9.8,25,939.315,86.2167,230.791,0.994884,15.7944,19.3735,
2026_07_06_17_07_33.108,3.869,30,0,0.758,0,0,0,0, ,0,0,0,0,0, ,973.5,-31.1,321.6,-3.5,77.4,8.4,25,942.096,78.5071,236.422,0.583868,18.9178,18.7475,
2026_07_06_17_07_33.128,3.869,30.1,0,0.759,0,0,0,0, ,0,0,0,0,0, ,962.8,-45.5,361.5,-2.8,86.8,10.9,25,943.683,71.3891,242.828,0.356335,22.768,18.1931,
2026_07_06_17_07_33.148,3.869,30,0,0.759,0,0,0,0, ,0,0,0,0,0, ,982.2,-50.7,412.8,-8.9,98.4,13.8,25,945.439,64.1078,251.623,-0.0218633,27.0234,17.837,
2026_07_06_17_07_33.166,3.869,30,0,0.758,0,0,0,0, ,0,0,0,0,0, ,994.7,-60.6,448.7,-9.6,133,19.5,25,948.06,56.81,262.538,-0.584203,32.4271,17.7647,
2026_07_06_17_07_33.187,3.869,30.1,0,0.758,0,0,0,0, ,0,0,0,0,0, ,941.1,-68.4,453.8,-4,184,17,25,949.269,49.4177,274.038,-0.962978,40.1097,17.7943,
2026_07_06_17_07_33.207,3.869,30,0,0.758,0,0,0,0, ,0,0,0,0,0, ,854.1,-72.5,437.9,2.6,211.8,10.8,25,946.121,42.1133,284.508,-0.946953,49.725,17.557,
2026_07_06_17_07_33.226,3.869,29.9,0,0.76,0,0,0,0, ,0,0,0,0,0, ,760.1,-79.1,455.8,7.6,200.9,9.4,25,937.649,34.9279,294.4,-0.578467,59.2693,17.1026,
2026_07_06_17_07_33.246,3.869,30.1,0,0.759,0,0,0,0, ,0,0,0,0,0, ,710.5,-80.4,512,15.2,178.9,12.6,25,925.318,27.9397,305.948,0.151471,67.2296,16.7307,
2026_07_06_17_07_33.267,3.869,30,0,0.758,0,0,0,0, ,0,0,0,0,0, ,662.8,-68.1,602.6,20.5,168.7,12.7,25,910.775,21.7125,321.265,1.22998,73.7238,16.482,
2026_07_06_17_07_33.286,3.869,30,0,0.759,0,0,0,0, ,0,0,0,0,0, ,617.1,-56,662.4,21.5,161.2,6.1,25,894.271,16.6083,340.231,2.43471,79.2829,16.0505,
2026_07_06_17_07_33.306,3.869,30.1,0,0.759,0,0,0,0, ,0,0,0,0,0, ,584.5,-62.2,702.3,21.3,146.5,3.3,25,876.388,11.9948,361.079,3.59041,83.8268,15.3588,
2026_07_06_17_07_33.325,3.869,29.9,0,0.757,0,0,0,0, ,0,0,0,0,0, ,573.8,-64,734.3,21.5,136.3,5.6,25,858.275,7.41871,382.847,4.67568,87.3352,14.694,
2026_07_06_17_07_33.351,3.869,30,0,0.758,0,0,0,0, ,0,0,0,0,0, ,548.2,-64,765.9,25.7,141.9,7.5,25,840.16,3.06663,405.226,5.82888,90.4896,14.1978,
2026_07_06_17_07_33.369,3.869,30,0,0.76,0,0,0,0, ,0,0,0,0,0, ,517.4,-56.7,781.6,32.3,155.6,5.4,25,821.43,-0.797821,427.683,7.24087,94.0398,13.7256,
2026_07_06_17_07_33.386,3.869,30,0,0.758,0,0,0,0, ,0,0,0,0,0, ,471.9,-53.7,787.7,40.5,164.3,4.7,25,801.517,-4.11295,449.436,9.01775,98.0562,13.197,
2026_07_06_17_07_33.405,3.869,30.1,0,0.758,0,0,0,0, ,0,0,0,0,0, ,431.7,-50,798.8,46.2,159.7,9.4,25,780.206,-7.02193,470.387,11.1099,101.953,12.8224,
2026_07_06_17_07_33.425,3.869,30,0,0.76,0,0,0,0, ,0,0,0,0,0, ,350.3,-27,815.1,49,149.9,17.3,25,756.489,-8.94012,490.896,13.3335,105.173,12.8545,
2026_07_06_17_07_33.445,3.869,30,0,0.759,0,0,0,0, ,0,0,0,0,0, ,321.5,-16.4,822.9,50.9,146.6,20.5,25,730.859,-9.71768,510.89,15.5648,107.798,13.2229,
2026_07_06_17_07_33.464,3.869,30,0,0.76,0,0,0,0, ,0,0,0,0,0, ,236.6,12.6,852.4,54.8,143.3,21.7,25,703.327,-9.24129,530.802,17.8369,110.062,13.7029,
2026_07_06_17_07_33.484,3.869,30,0,0.759,0,0,0,0, ,0,0,0,0,0, ,183.3,31.1,877.3,55.3,134,16.8,25,673.262,-7.34666,551.158,20.1046,111.804,14.041,
2026_07_06_17_07_33.503,3.869,29.9,0,0.76,0,0,0,0, ,0,0,0,0,0, ,142.4,53.3,897,55.6,120.3,18,25,642.159,-4.32741,571.633,22.2584,112.739,14.2457,
2026_07_06_17_07_33.524,3.869,30.1,0,0.759,0,0,0,0, ,0,0,0,0,0, ,103.3,83.2,934.3,55.3,109.3,19.8,25,610.513,0.0952713,592.596,24.281,112.865,14.5293,
2026_07_06_17_07_33.543,3.869,30,0,0.758,0,0,0,0, ,0,0,0,0,0, ,43.3,109.3,978,54.1,93.8,16.9,25,577.777,5.9547,614.75,26.1347,112.175,14.7621,
2026_07_06_17_07_33.562,3.869,30,0,0.758,0,0,0,0, ,0,0,0,0,0, ,26.8,113.5,1009.8,50.4,71.6,16.3,25,544.704,12.3803,637.855,27.7261,110.379,14.8741,
2026_07_06_17_07_33.583,3.869,30.1,0,0.761,0,0,0,0, ,0,0,0,0,0, ,12.9,130.6,1034.7,48.2,60,19.1,25,512.721,19.0633,661.279,29.0407,107.663,15.0463,
2026_07_06_17_07_33.603,3.869,30.1,0,0.758,0,0,0,0, ,0,0,0,0,0, ,-37.2,162.1,1060.5,45.4,53.1,17.5,25,480.737,26.8198,684.82,30.1229,104.548,15.2446,
2026_07_06_17_07_33.622,3.869,30.1,0,0.758,0,0,0,0, ,0,0,0,0,0, ,-54.1,126.8,1092.7,46.3,38.9,9,25,448.66,33.9879,708.694,31.0813,100.98,15.123,
2026_07_06_17_07_33.643,3.869,30,0,0.758,0,0,0,0, ,0,0,0,0,0, ,-45.5,206.1,1088.8,42,27.5,5.8,25,418.285,42.0598,731.976,31.8777,96.8499,14.6524,
2026_07_06_17_07_33.662,3.869,30,0,0.758,0,0,0,0, ,0,0,0,0,0, ,-27.7,232,1080.4,30.9,23.9,4.3,25,390.566,52.8451,753.464,32.1563,92.5142,14.0673,
2026_07_06_17_07_33.682,3.869,30.1,0,0.757,0,0,0,0, ,0,0,0,0,0, ,-29.1,230.1,1066.4,25.9,20.2,6,25,365.035,63.7045,772.96,31.9274,88.2203,13.5239,
2026_07_06_17_07_33.700,3.869,30,0,0.758,0,0,0,0, ,0,0,0,0,0, ,-57.2,229.6,1067,24.5,12.1,7,25,340.161,73.829,790.86,31.5175,83.8285,13.0958,
2026_07_06_17_07_33.722,3.869,30.1,0,0.758,0,0,0,0, ,0,0,0,0,0, ,-75.4,244,1075.4,19.8,3.3,5.4,25,315.392,83.76,807.943,30.9466,79.1894,12.6756,
2026_07_06_17_07_33.741,3.869,30,0,0.759,0,0,0,0, ,0,0,0,0,0, ,-83.6,254.5,1091.6,13.3,-5.4,3.7,25,291.329,93.8446,824.735,30.0693,74.2998,12.1805,
2026_07_06_17_07_33.761,3.869,30,0,0.758,0,0,0,0, ,0,0,0,0,0, ,-64.4,265,1088.7,9.1,-13.2,1.6,25,269.066,103.954,840.908,28.9195,69.2055,11.5997,
2026_07_06_17_07_33.781,3.869,30.1,0,0.758,0,0,0,0, ,0,0,0,0,0, ,-30,270.3,1114.5,3.4,-15,-1,25,249.794,113.93,856.794,27.5381,64.129,10.9111,
2026_07_06_17_07_33.801,3.869,29.9,0,0.757,0,0,0,0, ,0,0,0,0,0, ,21.3,276.7,1088,-7.6,-12.1,0.5,25,234.307,123.653,871.691,25.732,59.3955,10.231,
2026_07_06_17_07_33.820,3.869,30,0,0.76,0,0,0,0, ,0,0,0,0,0, ,1.2,250.1,1086,-13.8,-21.9,5.8,25,220.715,132.169,884.811,23.5119,54.7401,9.79951,
2026_07_06_17_07_33.840,3.869,30,0,0.758,0,0,0,0, ,0,0,0,0,0, ,-29.4,246.2,1098.5,-24.9,-68.5,14.7,25,206.406,139.237,897.452,20.9,48.65,9.82696,
2026_07_06_17_07_33.860,3.869,30,0,0.759,0,0,0,0, ,0,0,0,0,0, ,23,242.4,1089.4,-34,-106.8,18.8,25,193.633,145.639,909.426,17.8318,40.3442,10.2488,
2026_07_06_17_07_33.885,3.869,30,0,0.759,0,0,0,0, ,0,0,0,0,0, ,65.7,220.9,1074.7,-44.7,-128.7,19.7,25,184.536,150.88,919.945,14.3473,30.7104,10.7973,
2026_07_06_17_07_33.899,3.869,29.9,0,0.759,0,0,0,0, ,0,0,0,0,0, ,104.4,207.2,1039.7,-49.5,-151.2,18.7,25,178.473,154.73,928.309,10.6029,20.3108,11.3094,
2026_07_06_17_07_33.920,3.869,30,0,0.758,0,0,0,0, ,0,0,0,0,0, ,139.6,177,1010.4,-57.2,-195.3,20,25,175.032,157.007,934.204,6.70573,8.51565,11.7994,
2026_07_06_17_07_33.939,3.869,30,0,0.759,0,0,0,0, ,0,0,0,0,0, ,240.9,139.6,960.3,-65.9,-242.1,27.2,25,175.959,157.086,937.321,2.5464,-5.3303,12.5185,
2026_07_06_17_07_33.959,3.869,30,0,0.759,0,0,0,0, ,0,0,0,0,0, ,320.1,112.7,885.2,-68.3,-250.1,31,25,182.33,155.201,936.433,-1.69768,-20.0022,13.5289,
2026_07_06_17_07_33.978,3.869,30,0,0.758,0,0,0,0, ,0,0,0,0,0, ,395,77,827.5,-65,-247.6,26.8,25,193.007,151.523,931.553,-5.65571,-33.9476,14.4656,
2026_07_06_17_07_33.998,3.869,30,0,0.758,0,0,0,0, ,0,0,0,0,0, ,498,39.3,777,-59.2,-217.3,19.6,25,208.454,145.833,923.674,-9.09528,-46.0439,14.9978,
2026_07_06_17_07_34.017,3.869,30,0,0.757,0,0,0,0, ,0,0,0,0,0, ,559.5,14.6,733.7,-49.7,-178.4,16.8,25,227.972,138.589,913.417,-11.8591,-55.2945,15.193,
2026_07_06_17_07_34.038,3.869,30.1,0,0.758,0,0,0,0, ,0,0,0,0,0, ,578.6,5.8,732.2,-41.2,-146.1,11,25,248.757,130.765,902.419,-13.906,-61.8121,15.1142,
2026_07_06_17_07_34.056,3.869,30,0,0.758,0,0,0,0, ,0,0,0,0,0, ,597.6,-1.8,705.4,-39.8,-135.6,3.5,25,269.436,122.918,891.23,-15.5266,-66.6285,14.6349,
2026_07_06_17_07_34.077,3.869,30,0,0.758,0,0,0,0, ,0,0,0,0,0, ,640.9,-12,653.6,-28.9,-139.1,-0.1,25,290.752,115.008,878.328,-16.6737,-70.9381,13.8467,
2026_07_06_17_07_34.097,3.869,29.9,0,0.76,0,0,0,0, ,0,0,0,0,0, ,654.7,-7.4,625.1,-21.5,-145.8,-1,25,312.51,107.408,863.765,-17.1932,-75.2959,12.9694,
2026_07_06_17_07_34.116,3.869,30,0,0.758,0,0,0,0, ,0,0,0,0,0, ,665.2,-15.1,589.8,-32.9,-176.8,0.4,25,333.682,100.177,848.146,-17.803,-80.5367,12.1608,
2026_07_06_17_07_34.143,3.869,29.9,0,0.757,0,0,0,0, ,0,0,0,0,0, ,754.5,-35.1,561.6,-39.2,-198.6,6.4,25,356.605,92.5434,831.544,-18.9149,-87.067,11.627,
2026_07_06_17_07_34.164,3.869,30,0,0.76,0,0,0,0, ,0,0,0,0,0, ,847.2,-48.7,519.4,-36.7,-181.3,5.5,25,383.676,84.3508,813.808,-20.0749,-93.3364,11.281,
2026_07_06_17_07_34.177,3.869,30,0,0.759,0,0,0,0, ,0,0,0,0,0, ,865.4,-57,471.5,-29.5,-153.8,1.9,25,412.477,75.9901,794.408,-20.8686,-97.8588,10.819,
2026_07_06_17_07_34.198,3.869,30,0,0.759,0,0,0,0, ,0,0,0,0,0, ,830.8,-43,424.5,-18.1,-146.3,-2.6,25,439.022,68.3126,773.299,-21.0472,-101.039,10.1384,
2026_07_06_17_07_34.216,3.869,30,0,0.758,0,0,0,0, ,0,0,0,0,0, ,832.1,-41.1,356.2,-15.9,-153.7,-10,25,462.936,61.5873,749.963,-20.8006,-104.023,9.13672,
2026_07_06_17_07_34.235,3.869,30,0,0.76,0,0,0,0, ,0,0,0,0,0, ,902.8,-57.3,321.8,15.2,-155.9,-12,25,487.586,54.8362,724.92,-19.5544,-107.117,7.90963,
2026_07_06_17_07_34.254,3.869,29.9,0,0.758,0,0,0,0, ,0,0,0,0,0, ,931.7,-61.7,252.6,18.4,-151.3,-8.8,25,513.769,47.8689,698.246,-17.3391,-109.95,6.79389,
2026_07_06_17_07_34.277,3.869,29.9,0,0.759,0,0,0,0, ,0,0,0,0,0, ,926.6,-50.6,192,22.9,-150,-8.8,25,539.081,41.5302,669.243,-15.0241,-112.43,5.84364,
2026_07_06_17_07_34.296,3.869,30,0,0.758,0,0,0,0, ,0,0,0,0,0, ,910.4,-16.4,138.1,5,-154.7,-5,25,562.202,36.9581,638.519,-13.2585,-114.862,5.06707,
2026_07_06_17_07_34.316,3.869,30,0,0.758,0,0,0,0, ,0,0,0,0,0, ,944.5,-48.4,109.6,-4.2,-156.1,0,25,584.459,32.7316,607.157,-12.4262,-117.333,4.60595,
2026_07_06_17_07_34.334,3.869,30,0,0.758,0,0,0,0, ,0,0,0,0,0, ,929.5,-47.8,46,-2.5,-136.1,-4.2,25,605.942,27.8059,574.899,-11.8731,-119.086,4.19731,
2026_07_06_17_07_34.355,3.869,29.9,0,0.76,0,0,0,0, ,0,0,0,0,0, ,939.5,-38.2,20.6,-0.5,-108.8,-13.3,25,625.964,23.4912,541.895,-11.241,-119.291,3.40833,
2026_07_06_17_07_34.374,3.869,30,0,0.76,0,0,0,0, ,0,0,0,0,0, ,977.9,-31.2,15.5,-1.8,-84.8,-15.8,25,646.24,19.9451,509.973,-10.6261,-117.92,2.314,
2026_07_06_17_07_34.394,3.869,29.9,0,0.759,0,0,0,0, ,0,0,0,0,0, ,1008.6,-43.4,6.8,-8.3,-54.8,-13,25,667.386,16.4568,479.576,-10.2863,-114.988,1.29549,
2026_07_06_17_07_34.414,3.869,29.9,0,0.759,0,0,0,0, ,0,0,0,0,0, ,979.8,-36.3,-36.6,-12.1,-24.1,-13.3,25,687.301,13.0256,449.444,-10.281,-110.385,0.415217,
2026_07_06_17_07_34.433,3.869,29.9,0,0.758,0,0,0,0, ,0,0,0,0,0, ,981,-42.2,-87.8,-12.3,-3.3,-18.3,25,705.162,9.84003,418.266,-10.398,-104.493,-0.572898,
2026_07_06_17_07_34.453,3.869,30,0,0.76,0,0,0,0, ,0,0,0,0,0, ,986.3,-21.3,-107,-5.9,13,-22.9,25,722.132,7.30563,386.842,-10.3189,-97.8299,-1.7933,
2026_07_06_17_07_34.473,3.869,30.1,0,0.76,0,0,0,0, ,0,0,0,0,0, ,1007,-5.3,-100.2,-1.5,14.1,-24.1,25,738.86,6.04998,356.956,-9.91552,-91.0427,-3.11605,
2026_07_06_17_07_34.492,3.869,30,0,0.758,0,0,0,0, ,0,0,0,0,0, ,1056,9.8,-83.9,1.6,2.6,-17.9,25,756.693,5.81842,329.595,-9.30825,-84.986,-4.20585,
2026_07_06_17_07_34.513,3.869,30,0,0.758,0,0,0,0, ,0,0,0,0,0, ,1075.1,28.1,-71.7,6.1,-7.4,-12.8,25,775.514,6.61862,304.769,-8.50642,-79.9534,-4.88495,
2026_07_06_17_07_34.532,3.869,30,0,0.76,0,0,0,0, ,0,0,0,0,0, ,1084.4,39.6,-47.1,8.3,-13.8,-9.3,25,794.053,8.27803,282.578,-7.54931,-75.7272,-5.26063,
2026_07_06_17_07_34.552,3.869,29.9,0,0.758,0,0,0,0, ,0,0,0,0,0, ,1091.3,41.7,-16.6,8.1,-19.6,-4.7,25,811.957,10.2507,263.417,-6.58959,-72.1302,-5.36663,
2026_07_06_17_07_34.573,3.869,30,0,0.759,0,0,0,0, ,0,0,0,0,0, ,1091.9,34.1,-28.5,8.9,-25.8,1.9,25,828.997,11.9356,245.991,-5.67006,-69.118,-5.12491,
2026_07_06_17_07_34.593,3.869,30,0,0.758,0,0,0,0, ,0,0,0,0,0, ,1056.2,12.6,-19,4.6,-58.3,21.3,25,843.93,12.6311,229.554,-4.91322,-67.4686,-4.10574,
2026_07_06_17_07_34.611,3.869,29.9,0,0.76,0,0,0,0, ,0,0,0,0,0, ,988.1,4,-135.6,-8.6,-125.5,39.6,25,854.791,12.3672,210.855,-4.73569,-68.9574,-2,
2026_07_06_17_07_34.631,3.869,30,0,0.759,0,0,0,0, ,0,0,0,0,0, ,995.6,-78,-166.1,10.9,-167.4,39.9,25,863.143,9.3589,188.813,-4.37703,-73.6796,0.544145,
2026_07_06_17_07_34.651,3.869,29.9,0,0.759,0,0,0,0, ,0,0,0,0,0, ,977.2,-40.4,-242.5,14.2,-208.9,42,25,870.654,5.18109,164.858,-3.34554,-80.6551,3.00638,
2026_07_06_17_07_34.672,3.869,30,0,0.759,0,0,0,0, ,0,0,0,0,0, ,911.1,-0.3,-343,36.2,-242.3,35.7,25,875.132,3.62529,136.973,-1.60605,-89.4877,5.1906,
2026_07_06_17_07_34.691,3.869,30,0,0.758,0,0,0,0, ,0,0,0,0,0, ,930.7,-35.7,-301.8,45.7,-250.1,20.1,25,877.921,2.3075,108.98,0.987211,-99.0374,6.57445,
2026_07_06_17_07_34.710,3.869,29.9,0,0.757,0,0,0,0, ,0,0,0,0,0, ,912.3,-82.5,-352.2,36.3,-241.2,29.2,25,880.577,-1.43452,82.4121,3.42549,-107.972,7.67593,
2026_07_06_17_07_34.729,3.869,29.9,0,0.759,0,0,0,0, ,0,0,0,0,0, ,808.9,-79.1,-386.9,22.5,-214,29.2,25,879.36,-6.27085,54.8707,5.00831,-115.261,8.98755,
2026_07_06_17_07_34.750,3.869,30,0,0.758,0,0,0,0, ,0,0,0,0,0, ,784.7,-71.8,-426.8,15.7,-196.3,25.2,25,874.329,-10.4865,26.7346,5.86702,-120.739,10.0974,
2026_07_06_17_07_34.769,3.869,30,0,0.758,0,0,0,0, ,0,0,0,0,0, ,778.4,-96,-488.2,2.4,-176.6,19.9,25,868.675,-14.9601,-2.77348,6.06099,-124.743,10.8562,
2026_07_06_17_07_34.790,3.869,30,0,0.758,0,0,0,0, ,0,0,0,0,0, ,730.8,-110.2,-573.9,4.3,-164.9,19.4,25,861.723,-20.3311,-34.9653,5.89579,-127.547,11.3921,
2026_07_06_17_07_34.809,3.869,29.9,0,0.758,0,0,0,0, ,0,0,0,0,0, ,696.8,-110.7,-633.6,-3.1,-152.2,16.2,25,852.709,-25.8227,-69.6256,5.57307,-129.436,11.7826,
2026_07_06_17_07_34.830,3.869,30,0,0.758,0,0,0,0, ,0,0,0,0,0, ,667.3,-133.5,-687.6,-5.6,-154.3,16.2,25,842.31,-31.6896,-105.638,4.96839,-130.887,12.0517,
2026_07_06_17_07_34.849,3.869,30,0,0.759,0,0,0,0, ,0,0,0,0,0, ,633.7,-131.1,-744.1,-9.8,-168.6,22.1,25,830.621,-37.8206,-142.823,4.19641,-132.75,12.4843,
2026_07_06_17_07_34.869,3.869,29.9,0,0.759,0,0,0,0, ,0,0,0,0,0, ,581.1,-122.3,-765.9,-14.4,-187.3,27.9,25,817.019,-43.2367,-180.127,3.20334,-135.504,13.247,
2026_07_06_17_07_34.888,3.869,30,0,0.76,0,0,0,0, ,0,0,0,0,0, ,531.3,-123.7,-760.9,-33,-181,35.5,25,801.125,-48.0972,-215.671,1.56392,-138.468,14.3715,
2026_07_06_17_07_34.910,3.869,30,0,0.758,0,0,0,0, ,0,0,0,0,0, ,510.9,-114,-808.1,-37.3,-166.6,32.3,25,784.061,-52.4087,-250.334,-0.673332,-140.621,15.5615,
2026_07_06_17_07_34.928,3.869,30,0,0.759,0,0,0,0, ,0,0,0,0,0, ,471.5,-109,-857.6,-41.6,-160.6,32.6,25,766.215,-56.0096,-285.831,-3.03629,-142.022,16.5906,
2026_07_06_17_07_34.948,3.869,30,0,0.757,0,0,0,0, ,0,0,0,0,0, ,373.5,-108.3,-923.9,-47.9,-162.8,44.9,25,745.27,-59.2174,-322.693,-5.57821,-143.221,17.941,
2026_07_06_17_07_34.967,3.869,30,0,0.759,0,0,0,0, ,0,0,0,0,0, ,328.1,-100.5,-967.2,-34.1,-160.3,41.4,25,721.232,-61.9707,-360.648,-7.73673,-144.338,19.4771,
2026_07_06_17_07_34.988,3.869,30,0,0.759,0,0,0,0, ,0,0,0,0,0, ,231.9,-66.1,-950.1,-23.8,-146.8,25.2,25,694.344,-63.2705,-397.089,-9.02941,-144.899,20.3195,
2026_07_06_17_07_35.013,3.869,30,0,0.759,0,0,0,0, ,0,0,0,0,0, ,277,-94.3,-898.5,-27.3,-102.2,18.4,25,667.538,-64.3021,-429.216,-10.0361,-143.656,20.4097,
2026_07_06_17_07_35.035,3.869,30,0,0.758,0,0,0,0, ,0,0,0,0,0, ,285.5,-96.1,-929.9,-30.1,-67.7,30.8,25,643.999,-66.1849,-458.77,-11.1735,-140.079,20.665,
2026_07_06_17_07_35.047,3.869,30,0,0.759,0,0,0,0, ,0,0,0,0,0, ,244.9,-81.1,-925.9,-34,-54,39.1,25,620.916,-67.5509,-487.357,-12.4456,-135.251,21.5355,
2026_07_06_17_07_35.067,3.869,30.1,0,0.759,0,0,0,0, ,0,0,0,0,0, ,182,-50.7,-974.7,-34.5,-37.7,31.2,25,596.086,-67.4503,-515.568,-13.7743,-129.803,22.3652,
2026_07_06_17_07_35.086,3.869,30,0,0.759,0,0,0,0, ,0,0,0,0,0, ,202.3,-61.5,-1011.5,-28.4,-25.5,17.7,25,571.471,-66.7586,-544.668,-14.8514,-123.819,22.4922,
2026_07_06_17_07_35.107,3.869,30,0,0.759,0,0,0,0, ,0,0,0,0,0, ,203.8,-64.4,-1028,-21.9,-8.4,16.7,25,549.02,-66.5265,-573.618,-15.479,-117.306,22.1697,
2026_07_06_17_07_35.125,3.869,30,0,0.758,0,0,0,0, ,0,0,0,0,0, ,172.9,-44,-1004.2,-18.4,5.3,19.2,25,527.042,-65.7754,-600.582,-15.7636,-110.252,21.9126,
2026_07_06_17_07_35.144,3.869,30,0,0.758,0,0,0,0, ,0,0,0,0,0, ,139.7,-34.3,-1026,-20.3,10.4,15.9,25,504.45,-64.1529,-625.841,-15.9822,-103.056,21.6467,
2026_07_06_17_07_35.165,3.869,30,0,0.759,0,0,0,0, ,0,0,0,0,0, ,120.8,-32.2,-1058.9,-18.2,-0.6,12.9,25,481.647,-62.2697,-651.228,-16.1813,-96.477,21.2051,
2026_07_06_17_07_35.187,3.869,30.1,0,0.759,0,0,0,0, ,0,0,0,0,0, ,135.8,-24.5,-1054.5,-12.9,-7.8,8.5,25,460.115,-60.2028,-675.937,-16.1429,-90.8538,20.565,
2026_07_06_17_07_35.205,3.869,29.9,0,0.759,0,0,0,0, ,0,0,0,0,0, ,153.9,-22.9,-1048.5,-10,8.2,5,25,440.904,-57.9784,-698.823,-15.8569,-85.3053,19.7231,
2026_07_06_17_07_35.226,3.869,30.1,0,0.759,0,0,0,0, ,0,0,0,0,0, ,126.5,-15.5,-1033.4,-6.4,25,3.5,25,422.579,-55.6153,-719.671,-15.3903,-79.0954,18.7802,
2026_07_06_17_07_35.243,3.869,30,0,0.761,0,0,0,0, ,0,0,0,0,0, ,146.4,-13.9,-1019,-3.6,17.5,3,25,405.143,-53.122,-738.35,-14.7571,-72.9806,17.8339,
2026_07_06_17_07_35.265,3.869,29.9,0,0.756,0,0,0,0, ,0,0,0,0,0, ,164.6,-14,-1012.8,-1.2,9.4,4.3,25,389.931,-50.735,-755.263,-14.0041,-67.7137,16.9695,
2026_07_06_17_07_35.284,3.869,30,0,0.759,0,0,0,0, ,0,0,0,0,0, ,200.6,-14.2,-1022.9,2.1,25.8,3.6,25,377.297,-48.5025,-771.265,-13.1233,-62.5149,16.1761,
2026_07_06_17_07_35.306,3.869,30,0,0.757,0,0,0,0, ,0,0,0,0,0, ,235.7,-26,-1014.8,7.2,54.9,3.9,25,367.599,-46.7718,-786.352,-12.0403,-56.2466,15.4189,
2026_07_06_17_07_35.328,3.869,30,0,0.76,0,0,0,0, ,0,0,0,0,0, ,244.5,-22,-1005.9,9.6,103.8,1.1,25,359.829,-45.3841,-800.002,-10.7947,-47.9837,14.6317,
2026_07_06_17_07_35.349,3.869,30,0,0.757,0,0,0,0, ,0,0,0,0,0, ,312.5,-21.6,-1025.7,11.6,152,-4.8,25,354.873,-43.947,-813.152,-9.49094,-37.2658,13.6273,
2026_07_06_17_07_35.363,3.869,30,0,0.757,0,0,0,0, ,0,0,0,0,0, ,372.9,-29,-1041.6,22.2,187.4,-7.6,25,354.131,-42.8107,-826.589,-7.88275,-24.6538,12.4191,
2026_07_06_17_07_35.383,3.869,29.9,0,0.759,0,0,0,0, ,0,0,0,0,0, ,405.2,-33.3,-1039,29.9,204,-8.2,25,356.259,-42.1001,-839.612,-5.81497,-11.226,11.1809,
2026_07_06_17_07_35.402,3.869,30.1,0,0.758,0,0,0,0, ,0,0,0,0,0, ,482,-55.4,-1010.3,34.9,229.9,-15.5,25,361.581,-42.2372,-850.887,-3.48625,2.67848,9.77746,
2026_07_06_17_07_35.424,3.869,30.1,0,0.76,0,0,0,0, ,0,0,0,0,0, ,502.8,-55,-878.1,43.2,244,-14.3,25,369.553,-43.0271,-856.574,-0.894193,16.9544,8.27368,
2026_07_06_17_07_35.442,3.869,29.9,0,0.758,0,0,0,0, ,0,0,0,0,0, ,573.4,-74.9,-836.1,30,229.9,-16.4,25,379.824,-44.363,-856.606,1.39061,30.3604,6.83411,
2026_07_06_17_07_35.464,3.869,30,0,0.758,0,0,0,0, ,0,0,0,0,0, ,617,-91.7,-799.5,25.3,215.5,-13.6,25,392.949,-46.7358,-854.241,2.99079,42.0811,5.5036,
2026_07_06_17_07_35.482,3.869,30,0,0.758,0,0,0,0, ,0,0,0,0,0, ,629,-99.3,-752.8,26.6,197.6,-12,25,406.967,-49.7073,-849.482,4.38987,52.1034,4.38822,
2026_07_06_17_07_35.503,3.869,30,0,0.759,0,0,0,0, ,0,0,0,0,0, ,653.3,-79.3,-682.1,30.4,189.1,-16.5,25,421.238,-52.12,-841.437,5.85908,60.7106,3.25245,
2026_07_06_17_07_35.522,3.869,30.1,0,0.757,0,0,0,0, ,0,0,0,0,0, ,711.4,-68.7,-585.6,24.5,186.6,-19.1,25,437.149,-53.4533,-828.787,7.17478,68.4582,1.96957,
2026_07_06_17_07_35.542,3.869,30,0,0.759,0,0,0,0, ,0,0,0,0,0, ,772.4,-71,-535.7,17.3,186,-19.6,25,455.72,-54.4525,-812.447,8.01116,75.6392,0.670408,
2026_07_06_17_07_35.561,3.869,30,0,0.758,0,0,0,0, ,0,0,0,0,0, ,793.8,-66,-519,13.8,179.7,-23.6,25,475.67,-55.3085,-795.074,8.47055,82.1723,-0.686694,
2026_07_06_17_07_35.582,3.869,30,0,0.758,0,0,0,0, ,0,0,0,0,0, ,844.1,-63.8,-427.2,11.4,165.2,-24.3,25,496.588,-55.893,-775.454,8.72219,87.6736,-2.1043,
2026_07_06_17_07_35.600,3.869,30,0,0.759,0,0,0,0, ,0,0,0,0,0, ,915,-80.2,-392.8,8.9,163.4,-21.6,25,519.925,-56.8745,-753.184,8.8092,92.343,-3.37459,
2026_07_06_17_07_35.621,3.869,30,0,0.76,0,0,0,0, ,0,0,0,0,0, ,941,-74.9,-372.1,9.4,180.8,-23.8,25,544.792,-58.1344,-730.592,8.82997,97.2032,-4.55223,
2026_07_06_17_07_35.641,3.869,30,0,0.76,0,0,0,0, ,0,0,0,0,0, ,939.9,-70.6,-308.8,10.6,193.6,-29.7,25,568.903,-59.0251,-706.818,8.90127,102.687,-5.90491,
2026_07_06_17_07_35.664,3.869,30,0,0.759,0,0,0,0, ,0,0,0,0,0, ,962.8,-64.3,-222.1,10.9,193.8,-30.4,25,592.208,-59.5385,-679.922,9.01392,108.233,-7.37625,
2026_07_06_17_07_35.680,3.869,30,0,0.758,0,0,0,0, ,0,0,0,0,0, ,996.2,-44,-134.6,6.2,194.1,-26.4,25,615.809,-59.2101,-649.358,8.98565,113.457,-8.65738,
2026_07_06_17_07_35.703,3.869,30,0,0.758,0,0,0,0, ,0,0,0,0,0, ,1020.2,-40.6,-64.2,2.8,208.5,-24.6,25,639.72,-58.1796,-615.845,8.71231,118.81,-9.68373,
2026_07_06_17_07_35.718,3.869,29.9,0,0.759,0,0,0,0, ,0,0,0,0,0, ,985.3,-42.8,-24.6,6.5,230,-28.3,25,661.842,-57.1754,-581.022,8.46476,124.93,-10.7054,
2026_07_06_17_07_35.741,3.869,30.1,0,0.759,0,0,0,0, ,0,0,0,0,0, ,926.2,-35.4,13.3,17.3,232.7,-36.4,25,679.752,-56.0739,-545.96,8.6741,131.415,-12.0244,
2026_07_06_17_07_35.759,3.869,30,0,0.759,0,0,0,0, ,0,0,0,0,0, ,887,-21.9,89.4,18,213.5,-37.8,25,693.576,-54.4028,-509.562,9.22107,137.002,-13.5524,
2026_07_06_17_07_35.780,3.869,29.9,0,0.759,0,0,0,0, ,0,0,0,0,0, ,862.6,-4.6,172.8,16.4,171,-35.8,25,704.619,-51.895,-470.522,9.70728,140.369,-14.9691,
2026_07_06_17_07_35.799,3.869,30.1,0,0.758,0,0,0,0, ,0,0,0,0,0, ,857.5,5.9,217.5,13,119.3,-29.6,25,714.091,-48.6931,-429.957,10.0115,140.66,-16.0496,
2026_07_06_17_07_35.820,3.869,30,0,0.757,0,0,0,0, ,0,0,0,0,0, ,848,25.1,259.7,13.2,79,-22.3,25,722.54,-44.7813,-389.217,10.1997,138.131,-16.6529,
2026_07_06_17_07_35.837,3.869,30,0,0.758,0,0,0,0, ,0,0,0,0,0, ,845.8,43,293.5,15.2,58.7,-23.5,25,730.118,-39.9775,-348.644,10.4435,133.909,-17.0336,
2026_07_06_17_07_35.859,3.869,30,0,0.759,0,0,0,0, ,0,0,0,0,0, ,882.2,62.7,332.5,18.8,57.7,-29.9,25,738.277,-34.3209,-308.325,10.843,129.295,-17.6226,
2026_07_06_17_07_35.878,3.869,30,0,0.758,0,0,0,0, ,0,0,0,0,0, ,907.8,62.7,376.7,19.1,52.7,-30,25,747.827,-28.4086,-267.928,11.3371,124.78,-18.3738,
2026_07_06_17_07_35.900,3.869,29.9,0,0.758,0,0,0,0, ,0,0,0,0,0, ,909.7,63.3,409.3,15.8,38.2,-25.5,25,757.633,-22.8384,-227.653,11.7096,119.946,-18.9452,
2026_07_06_17_07_35.916,3.869,29.9,0,0.758,0,0,0,0, ,0,0,0,0,0, ,899.1,80.6,426.7,12.2,18.8,-20.2,25,766.577,-17.0623,-188.308,11.8491,114.374,-19.1831,
2026_07_06_17_07_35.937,3.869,30,0,0.758,0,0,0,0, ,0,0,0,0,0, ,905,92.6,420.8,10.6,0.8,-18.5,25,774.832,-10.7453,-151.011,11.8218,108.001,-19.1933,
2026_07_06_17_07_35.957,3.869,30,0,0.757,0,0,0,0, ,0,0,0,0,0, ,923.5,90,412.8,9.5,-9.7,-15.7,25,783.328,-4.52696,-116.41,11.7138,101.149,-19.0657,
2026_07_06_17_07_35.979,3.869,29.9,0,0.759,0,0,0,0, ,0,0,0,0,0, ,1005.3,98.6,429.9,8.1,-3.4,-8.9,25,794.362,1.49531,-83.6401,11.5362,94.5858,-18.6534,
2026_07_06_17_07_35.995,3.869,29.9,0,0.758,0,0,0,0, ,0,0,0,0,0, ,982.7,126.3,449.5,5.4,20.4,-5.8,25,806.528,8.25661,-51.7491,11.2446,89.3399,-17.9646,
2026_07_06_17_07_36.017,3.869,30,0,0.758,0,0,0,0, ,0,0,0,0,0, ,927,131.2,429.6,-0.8,4.7,-2.5,25,815.566,15.5992,-21.8106,10.6995,84.6605,-17.1228,
2026_07_06_17_07_36.035,3.869,29.9,0,0.758,0,0,0,0, ,0,0,0,0,0, ,914.1,124.2,410.1,-1.7,-3.5,-3.3,25,821.963,22.4303,5.10312,9.97134,79.5381,-16.2561,
2026_07_06_17_07_36.059,3.869,29.9,0,0.759,0,0,0,0, ,0,0,0,0,0, ,917.3,104.7,401,-1.7,-10.5,-1.8,25,827.675,28.0378,29.5054,9.26012,74.2647,-15.4209,
2026_07_06_17_07_36.075,3.869,29.9,0,0.76,0,0,0,0, ,0,0,0,0,0, ,895.8,100.8,400.1,-0.4,-11.9,-1.8,25,832.482,32.5905,52.1159,8.63185,69.0567,-14.5909,
2026_07_06_17_07_36.096,3.869,30,0,0.759,0,0,0,0, ,0,0,0,0,0, ,900.3,98.2,384.3,0.6,-12.3,-2,25,836.477,36.6678,72.8398,8.11194,64.1112,-13.8175,
2026_07_06_17_07_36.115,3.869,30,0,0.759,0,0,0,0, ,0,0,0,0,0, ,911,93.2,369.7,0,-5.8,-0.8,25,840.693,40.2651,91.3745,7.6359,59.6529,-13.0608,
2026_07_06_17_07_36.136,3.869,30,0,0.76,0,0,0,0, ,0,0,0,0,0, ,905,99.8,370.1,0.6,-4.7,-1.4,25,844.794,43.6919,108.347,7.18887,55.6979,-12.332,
2026_07_06_17_07_36.155,3.869,30,0,0.758,0,0,0,0, ,0,0,0,0,0, ,902.4,94.6,384.8,-0.1,-6.7,-0.6,25,848.384,46.9526,124.746,6.76603,51.9565,-11.6414,
2026_07_06_17_07_36.177,3.869,30,0,0.759,0,0,0,0, ,0,0,0,0,0, ,908.8,105.8,390.6,-1,-7.8,-2.7,25,851.87,50.1973,140.769,6.32021,48.3486,-11.0326,
2026_07_06_17_07_36.193,3.869,30,0,0.758,0,0,0,0, ,0,0,0,0,0, ,937.8,103.1,382.5,-0.9,-7.2,-2.6,25,856.223,53.5034,155.747,5.87718,44.9453,-10.5218,
2026_07_06_17_07_36.216,3.869,29.9,0,0.758,0,0,0,0, ,0,0,0,0,0, ,934,101.8,355.8,-1.3,-3.8,0.7,25,861.078,56.486,168.751,5.45201,41.8713,-9.93848,
2026_07_06_17_07_36.233,3.869,29.9,0,0.759,0,0,0,0, ,0,0,0,0,0, ,905.8,97.5,353.6,-1.6,-0.6,0.4,25,864.663,59.1163,180.082,5.03142,39.1857,-9.29934,
2026_07_06_17_07_36.257,3.869,30,0,0.759,0,0,0,0, ,0,0,0,0,0, ,895.3,100.5,368.7,-1.2,0.2,-2.4,25,866.85,61.5468,191.116,4.6395,36.7856,-8.79359,
2026_07_06_17_07_36.273,3.869,30,0,0.758,0,0,0,0, ,0,0,0,0,0, ,915.8,101.9,377.3,-1,-0.8,-3,25,869.208,63.9631,202.2,4.28975,34.5257,-8.42227,
2026_07_06_17_07_36.295,3.869,30,0,0.758,0,0,0,0, ,0,0,0,0,0, ,921.3,97.7,361.5,-1.5,0.9,-3.1,25,872.215,66.1469,212.388,3.95217,32.4249,-8.09489,
2026_07_06_17_07_36.314,3.869,29.9,0,0.758,0,0,0,0, ,0,0,0,0,0, ,908.2,94.4,377.5,-0.5,1.6,-2,25,874.807,67.9692,221.962,3.6504,30.5251,-7.757,
2026_07_06_17_07_36.336,3.869,30.1,0,0.759,0,0,0,0, ,0,0,0,0,0, ,908.6,105.3,385.2,-0.3,-1.9,-1.7,25,876.854,69.9119,231.675,3.40358,28.6559,-7.39704,
2026_07_06_17_07_36.352,3.869,30,0,0.758,0,0,0,0, ,0,0,0,0,0, ,921.2,104.2,372.1,-2.1,-4.9,-2.2,25,879.172,72.0348,240.631,3.12305,26.7025,-7.06511,
2026_07_06_17_07_36.374,3.869,30.1,0,0.759,0,0,0,0, ,0,0,0,0,0, ,921.9,100.8,369.6,-2,-2.2,-2,25,881.755,73.8913,248.567,2.80782,24.859,-6.76255,
2026_07_06_17_07_36.391,3.869,30,0,0.76,0,0,0,0, ,0,0,0,0,0, ,910.6,100.9,380.3,-0.8,0.3,-2.7,25,883.857,75.5341,256.268,2.5514,23.2862,-6.49366,
2026_07_06_17_07_36.414,3.869,30,0,0.759,0,0,0,0, ,0,0,0,0,0, ,921.2,95,368.4,-1.1,-0.2,-2.5,25,885.809,76.9001,263.464,2.33804,21.8703,-6.25639,
2026_07_06_17_07_36.430,3.869,30,0,0.757,0,0,0,0, ,0,0,0,0,0, ,932.6,99.3,350.7,0.2,0.7,-1.5,25,888.313,78.1341,269.319,2.16814,20.5528,-5.99702,
2026_07_06_17_07_36.454,3.869,30,0,0.759,0,0,0,0, ,0,0,0,0,0, ,912.7,97.6,362.9,-0.1,1.1,0,25,890.406,79.3721,274.65,2.03907,19.3552,-5.67728,
2026_07_06_17_07_36.470,3.869,29.9,0,0.759,0,0,0,0, ,0,0,0,0,0, ,901.6,103.6,372,-0.7,-2.2,-0.5,25,891.426,80.6656,280.305,1.89044,18.1422,-5.34655,
2026_07_06_17_07_36.493,3.869,30.1,0,0.759,0,0,0,0, ,0,0,0,0,0, ,913.4,107.1,367.1,-0.6,-2.3,-2.1,25,892.406,82.1698,285.743,1.73563,16.8996,-5.09997,
2026_07_06_17_07_36.510,3.869,30.1,0,0.758,0,0,0,0, ,0,0,0,0,0, ,926.8,102.7,369.3,-0.6,-1.1,-2.6,25,894.093,83.555,290.768,1.5933,15.7662,-4.93239,
2026_07_06_17_07_36.533,3.869,30,0,0.758,0,0,0,0, ,0,0,0,0,0, ,925.1,99.8,370.8,0.4,0.5,-1.2,25,896.035,84.6332,295.599,1.49011,14.7871,-4.7476,
2026_07_06_17_07_36.550,3.869,30,0,0.758,0,0,0,0, ,0,0,0,0,0, ,909.6,102.5,374.3,0.1,0.2,-0.5,25,897.333,85.6397,300.288,1.41455,13.9074,-4.51009,
2026_07_06_17_07_36.575,3.869,30,0,0.759,0,0,0,0, ,0,0,0,0,0, ,911.2,93.6,368.5,-1.3,-2.2,-0.8,25,898.13,86.396,304.622,1.29178,12.999,-4.27487,
2026_07_06_17_07_36.589,3.869,30.1,0,0.759,0,0,0,0, ,0,0,0,0,0, ,919.4,98.1,371,-0.8,-2.7,-1,25,899.176,86.9721,308.59,1.14908,12.0575,-4.06921,
2026_07_06_17_07_36.612,3.869,30,0,0.76,0,0,0,0, ,0,0,0,0,0, ,913,99.6,389.7,-0.6,-2.7,-1.2,25,900.213,87.6959,312.963,1.0364,11.1582,-3.88828,
2026_07_06_17_07_36.629,3.869,30.1,0,0.757,0,0,0,0, ,0,0,0,0,0, ,901,98.3,381.9,-2.6,-5.3,-1.2,25,900.627,88.3817,317.402,0.875747,10.2345,-3.72446,
2026_07_06_17_07_36.652,3.869,30,0,0.76,0,0,0,0, ,0,0,0,0,0, ,908.2,97.9,365.1,-3.9,-4.4,-2.7,25,900.869,88.9739,320.82,0.624334,9.31532,-3.61633,
2026_07_06_17_07_36.667,3.869,30,0,0.759,0,0,0,0, ,0,0,0,0,0, ,910.6,101.1,367.1,-4,1.4,-4.6,25,901.389,89.6153,323.579,0.345586,8.65627,-3.61838,
2026_07_06_17_07_36.692,3.869,29.9,0,0.759,0,0,0,0, ,0,0,0,0,0, ,912.2,99.1,383.7,-5.6,3.8,-4.5,25,901.999,90.2542,326.737,0.0320268,8.28721,-3.67515,
2026_07_06_17_07_36.708,3.869,29.9,0,0.758,0,0,0,0, ,0,0,0,0,0, ,911.6,122.1,449.9,-16.6,16.4,-8.6,25,902.602,91.4941,332.226,-0.646331,8.39768,-3.85034,
2026_07_06_17_07_36.732,3.869,29.9,0,0.759,0,0,0,0, ,0,0,0,0,0, ,994.3,151,541.3,-41.8,79.2,-19.7,25,905.67,94.2397,342.181,-2.38632,10.7988,-4.47797,
2026_07_06_17_07_36.747,3.869,30.1,0,0.758,0,0,0,0, ,0,0,0,0,0, ,1181.5,139.8,560,-30.9,231.2,-28.7,25,916.775,97.3572,354.885,-4.45598,19.5982,-5.67978,
2026_07_06_17_07_36.769,3.869,29.9,0,0.759,0,0,0,0, ,0,0,0,0,0, ,1289,54.5,415.1,-38.7,250.1,-58.4,25,936.182,97.3446,362.969,-6.30507,33.0685,-7.9875,
2026_07_06_17_07_36.788,3.869,30,0,0.758,0,0,0,0, ,0,0,0,0,0, ,1216,-9.7,317.3,-25.7,250.1,-53.8,25,955.458,92.7777,363.166,-7.88304,46.2939,-10.9194,
2026_07_06_17_07_36.811,3.869,30.1,0,0.758,0,0,0,0, ,0,0,0,0,0, ,911.7,-43.4,224.9,-16.7,250.1,-13.7,25,962.063,85.5062,357.556,-8.69454,58.7133,-12.3106,
2026_07_06_17_07_36.826,3.869,30,0,0.758,0,0,0,0, ,0,0,0,0,0, ,546.5,6.1,278.3,12.2,250.1,31.9,25,947.867,79.1591,351.099,-8.30183,70.376,-11.0059,
2026_07_06_17_07_36.849,3.869,30,0,0.759,0,0,0,0, ,0,0,0,0,0, ,305.6,114.7,488.5,39.1,250.1,74.9,25,916.068,78.016,353.067,-6.23289,81.3279,-7.08116,
2026_07_06_17_07_36.867,3.869,30,0,0.757,0,0,0,0, ,0,0,0,0,0, ,78.7,230.1,657.7,58.1,210.4,97.5,25,871.955,83.7675,366.476,-2.89151,90.4028,-1.39684,
2026_07_06_17_07_36.893,3.869,30,0,0.759,0,0,0,0, ,0,0,0,0,0, ,-67.2,293.5,887.6,71.3,128.9,97,25,819.17,94.6164,391.227,1.22735,95.232,4.61445,
2026_07_06_17_07_36.905,3.869,29.9,0,0.76,0,0,0,0, ,0,0,0,0,0, ,-142.9,346.6,1015.6,68.6,68.2,81,25,762.851,108.354,425.375,5.41513,95.4341,9.7567,
2026_07_06_17_07_36.929,3.869,30,0,0.76,0,0,0,0, ,0,0,0,0,0, ,-154.5,413,1167.7,57.9,-53.9,89.1,25,707.303,124.895,465.976,8.93944,90.0543,14.3449,
2026_07_06_17_07_36.945,3.869,29.9,0,0.759,0,0,0,0, ,0,0,0,0,0, ,-184.5,413.6,1494.2,16.6,-250.1,151.1,25,653.873,142.47,518.685,10.6646,75.3041,20.7893,
2026_07_06_17_07_36.968,3.869,30,0,0.757,0,0,0,0, ,0,0,0,0,0, ,-111,294.9,1433.9,-47.2,-250.1,192.4,25,605.024,155.375,576.293,9.0824,55.4748,29.9885,
2026_07_06_17_07_36.984,3.869,29.9,0,0.758,0,0,0,0, ,0,0,0,0,0, ,200.9,129.5,1194.7,-85.8,-250.1,154,25,570.894,158.838,621.266,4.4766,36.8539,38.7154,
2026_07_06_17_07_37.009,3.869,30.1,0,0.759,0,0,0,0, ,0,0,0,0,0, ,428.4,94.8,839.9,-105.2,-250.1,81.6,25,555.28,155.993,645.399,-1.61573,19.3676,43.5347,
2026_07_06_17_07_37.025,3.869,30,0,0.758,0,0,0,0, ,0,0,0,0,0, ,685.6,110.2,683.4,-90.8,-250.1,38.8,25,555.384,152.733,652.483,-7.48914,2.94694,44.5502,
2026_07_06_17_07_37.050,3.869,29.9,0,0.758,0,0,0,0, ,0,0,0,0,0, ,837.8,38.5,467.7,-97.4,-250.1,48.4,25,567.957,147.957,647.795,-12.767,-12.4731,44.4923,
2026_07_06_17_07_37.064,3.869,30,0,0.758,0,0,0,0, ,0,0,0,0,0, ,836.3,-12.9,105.8,-95.3,-250.1,46.5,25,584.355,139.72,625.794,-17.8603,-26.9535,44.6725,
2026_07_06_17_07_37.088,3.869,29.9,0,0.76,0,0,0,0, ,0,0,0,0,0, ,797.4,-48.7,-204.7,-70.5,-250.1,24.3,25,598.522,129.329,584.646,-21.8237,-40.5515,44.1075,
2026_07_06_17_07_37.104,3.869,30,0,0.759,0,0,0,0, ,0,0,0,0,0, ,830.8,-92,-401.3,-48.4,-250.1,8,25,611.659,117.161,530.555,-24.1165,-53.3208,42.4038,
2026_07_06_17_07_37.126,3.869,29.9,0,0.758,0,0,0,0, ,0,0,0,0,0, ,896.6,-123.7,-503.2,-24.1,-250.1,2,25,627.018,103.45,470.665,-24.8559,-65.3121,40.1245,
2026_07_06_17_07_37.145,3.869,29.9,0,0.759,0,0,0,0, ,0,0,0,0,0, ,951.2,-97.6,-474.1,-7.7,-131.8,-7.8,25,645.109,90.4031,412.207,-24.3102,-72.9681,37.5027,
2026_07_06_17_07_37.168,3.869,30,0,0.759,0,0,0,0, ,0,0,0,0,0, ,937.8,-70.3,-388.1,-4.1,-31,-11.4,25,663.353,79.7785,360.818,-23.1883,-73.482,34.6324,
2026_07_06_17_07_37.182,3.869,30,0,0.758,0,0,0,0, ,0,0,0,0,0, ,869.2,-63.5,-334.9,-11.4,21.8,-17.3,25,677.987,70.8402,316.802,-22.2475,-69.2845,31.6475,
2026_07_06_17_07_37.207,3.869,30,0,0.758,0,0,0,0, ,0,0,0,0,0, ,859.1,-65.9,-338,-23.5,36.7,-21.5,25,689.331,62.5808,276.994,-21.9552,-63.28,28.5368,
2026_07_06_17_07_37.222,3.869,29.9,0,0.759,0,0,0,0, ,0,0,0,0,0, ,905.3,-67.2,-373.9,-32.8,35,-21.1,25,701.084,54.7118,238.424,-22.3327,-57.2393,25.4999,
2026_07_06_17_07_37.247,3.869,30,0,0.758,0,0,0,0, ,0,0,0,0,0, ,947.3,-56.3,-421.2,-28,39,-17.2,25,714.808,47.615,199.67,-22.8243,-51.4966,22.779,
2026_07_06_17_07_37.263,3.869,29.9,0,0.759,0,0,0,0, ,0,0,0,0,0, ,961.3,-29.2,-406,-16,47.6,-16.5,25,729.402,42.1083,162.298,-22.774,-45.7199,20.3642,
2026_07_06_17_07_37.287,3.869,30,0,0.758,0,0,0,0, ,0,0,0,0,0, ,965.4,-6.7,-342.6,-8.7,40.3,-15.2,25,743.659,38.4485,129.6,-22.1388,-40.2557,18.1574,
2026_07_06_17_07_37.302,3.869,29.9,0,0.758,0,0,0,0, ,0,0,0,0,0, ,997.4,14.5,-277.5,-5.9,23.4,-12.6,25,758.146,36.3432,102.808,-21.2346,-35.8617,16.2039,
2026_07_06_17_07_37.325,3.869,30,0,0.758,0,0,0,0, ,0,0,0,0,0, ,1037.7,17,-242.3,-3,13.7,-8.5,25,773.953,35.0883,80.7058,-20.2118,-32.546,14.5735,
2026_07_06_17_07_37.341,3.869,29.9,0,0.758,0,0,0,0, ,0,0,0,0,0, ,1043,15.9,-237,-2.9,12.1,-5.4,25,790.187,33.9526,61.1841,-19.1599,-29.7766,13.262,
2026_07_06_17_07_37.365,3.869,30,0,0.757,0,0,0,0, ,0,0,0,0,0, ,1037.3,10.8,-209.8,-3.2,16.5,-1.8,25,805.419,32.6971,43.8423,-18.1782,-27.0907,12.2344,
2026_07_06_17_07_37.381,3.869,29.9,0,0.757,0,0,0,0, ,0,0,0,0,0, ,982.4,20,-190.7,-4.5,25.8,-0.3,25,817.877,31.6431,28.9679,-17.3051,-24.151,11.4249,
2026_07_06_17_07_37.405,3.869,29.9,0,0.759,0,0,0,0, ,0,0,0,0,0, ,944.8,19.2,-164.3,-8.1,24.5,-3.4,25,826.757,30.9092,16.3863,-16.6344,-21.1468,10.616,
2026_07_06_17_07_37.417,3.869,30,0,0.76,0,0,0,0, ,0,0,0,0,0, ,957,11.8,-183.8,-12,22.3,-6.1,25,834.322,29.9702,4.78158,-16.2332,-18.4322,9.67961,
2026_07_06_17_07_37.445,3.869,30,0,0.758,0,0,0,0, ,0,0,0,0,0, ,962.6,9.2,-203.4,-13.3,22.7,-6.1,25,841.968,28.7837,-7.3073,-16.0149,-15.9379,8.71804,
2026_07_06_17_07_37.460,3.869,30,0,0.758,0,0,0,0, ,0,0,0,0,0, ,954.8,11.9,-212.6,-10.7,22.2,-6.5,25,849.081,27.6726,-19.537,-15.7702,-13.5986,7.80288,
2026_07_06_17_07_37.484,3.869,30,0,0.758,0,0,0,0, ,0,0,0,0,0, ,971.9,15.3,-218.3,-7,22,-7.9,25,856.045,26.8151,-31.4755,-15.3485,-11.4232,6.88864,
2026_07_06_17_07_37.500,3.869,30,0,0.759,0,0,0,0, ,0,0,0,0,0, ,988.8,20.1,-201.7,-5.3,18.2,-5.2,25,863.619,26.2596,-42.3543,-14.788,-9.5023,6.06972,
2026_07_06_17_07_37.524,3.869,30,0,0.758,0,0,0,0, ,0,0,0,0,0, ,981,22.2,-191.2,-5.4,13.4,-3.8,25,871.01,25.9482,-51.7445,-14.2128,-7.96044,5.42563,
2026_07_06_17_07_37.538,3.869,30,0,0.759,0,0,0,0, ,0,0,0,0,0, ,979.6,5.4,-183.9,-4.3,10.9,-5.7,25,877.67,25.208,-60.0201,-13.6423,-6.73496,4.80555,
2026_07_06_17_07_37.564,3.869,30,0,0.758,0,0,0,0, ,0,0,0,0,0, ,996.5,30.1,-178.9,-2.2,14.9,-5.3,25,884.396,24.7535,-67.4167,-13.009,-5.53845,4.17756,
2026_07_06_17_07_37.579,3.869,30,0,0.759,0,0,0,0, ,0,0,0,0,0, ,1000.3,26.8,-153.3,-5.6,19.2,-4.7,25,891.343,24.9787,-73.4302,-12.4539,-4.16197,3.6183,
2026_07_06_17_07_37.603,3.869,30,0,0.759,0,0,0,0, ,0,0,0,0,0, ,1013.6,34.4,-152.5,-7.4,21.7,-4.1,25,898.388,25.3213,-78.2729,-12.0911,-2.66218,3.12968,
2026_07_06_17_07_37.618,3.869,30,0,0.759,0,0,0,0, ,0,0,0,0,0, ,1094.8,28.8,-118,-9.2,48.1,-1.8,25,907.883,25.7039,-81.745,-11.8601,-0.373232,2.7592,
2026_07_06_17_07_37.644,3.869,29.9,0,0.759,0,0,0,0, ,0,0,0,0,0, ,1131.4,35.6,-58.1,-17.3,98.1,0,25,920.388,26.0998,-82.1292,-11.9448,4.10404,2.53622,
2026_07_06_17_07_37.658,3.869,30,0,0.759,0,0,0,0, ,0,0,0,0,0, ,1216.3,27.4,-11.3,-44.2,179,-1.4,25,935.834,26.4288,-79.239,-13.0907,12.2968,2.33901,
2026_07_06_17_07_37.681,3.869,30,0,0.758,0,0,0,0, ,0,0,0,0,0, ,1311.5,-38.8,-114.3,-32.9,250.1,4.3,25,955.825,24.471,-78.2372,-14.6422,24.6216,2.28484,
2026_07_06_17_07_37.696,3.869,29.9,0,0.759,0,0,0,0, ,0,0,0,0,0, ,1195.9,-83.7,-114.7,-16.6,250.1,-5.8,25,973.977,19.2474,-80.447,-15.2581,38.3617,2.0999,
2026_07_06_17_07_37.723,3.869,29.9,0,0.758,0,0,0,0, ,0,0,0,0,0, ,1057.9,-94.3,-69.2,-6.5,250.1,-16.6,25,983.296,12.651,-81.1479,-15.0321,51.2645,1.28944,
2026_07_06_17_07_37.737,3.869,30,0,0.756,0,0,0,0, ,0,0,0,0,0, ,940.7,-67.9,-8.9,10.9,250.1,-6.4,25,984.271,6.93808,-78.5826,-13.9821,63.3811,0.510085,
2026_07_06_17_07_37.762,3.869,30,0,0.759,0,0,0,0, ,0,0,0,0,0, ,668,12.2,65.4,50.2,250.1,-11,25,973.307,4.81818,-72.0725,-11.2684,74.7592,-0.0511549,
2026_07_06_17_07_37.776,3.869,30,0,0.759,0,0,0,0, ,0,0,0,0,0, ,388.1,67.3,245.2,91.1,250.1,-13.5,25,946.174,6.94684,-58.217,-6.27649,85.4441,-0.794522,
2026_07_06_17_07_37.802,3.869,30,0,0.759,0,0,0,0, ,0,0,0,0,0, ,102.6,151.4,479.7,117.7,250.1,-5.2,25,903.468,13.187,-32.5826,0.467862,95.4778,-1.31587,
2026_07_06_17_07_37.816,3.869,30,0,0.758,0,0,0,0, ,0,0,0,0,0, ,-87.2,314.2,741.4,130,250.1,15.4,25,848.882,26.5697,6.6083,7.98646,104.9,-0.924904,
2026_07_06_17_07_37.841,3.869,30,0,0.758,0,0,0,0, ,0,0,0,0,0, ,-194.2,394.6,1213.2,93.9,-6.6,67.7,25,788.579,46.5469,65.7598,14.3217,105.927,1.66341,
2026_07_06_17_07_37.856,3.869,30,0,0.759,0,0,0,0, ,0,0,0,0,0, ,-87.1,330.4,1383,33.5,-250.1,114.6,25,731.954,65.8002,140.856,17.3307,91.6506,7.1165,
2026_07_06_17_07_37.881,3.869,30,0,0.759,0,0,0,0, ,0,0,0,0,0, ,118.5,241.9,1265.1,-18,-250.1,116.1,25,688.308,79.2278,212.956,16.7469,70.8252,13.712,
2026_07_06_17_07_37.895,3.869,30,0,0.758,0,0,0,0, ,0,0,0,0,0, ,203.9,289,1169.1,-27.5,-250.1,61.1,25,656.187,90.5757,274.146,14.3401,51.2688,18.2755,
2026_07_06_17_07_37.921,3.869,30,0,0.758,0,0,0,0, ,0,0,0,0,0, ,409.5,255.1,1138,-62.4,-250.1,39.5,25,634.89,101.634,327.735,10.7271,32.9042,20.227,
2026_07_06_17_07_37.935,3.869,30,0,0.759,0,0,0,0, ,0,0,0,0,0, ,683.4,171.6,751.3,-114.4,-250.1,75.1,25,629.501,108.442,365.328,4.68652,15.6586,22.4861,
2026_07_06_17_07_37.961,3.869,30,0,0.758,0,0,0,0, ,0,0,0,0,0, ,817.1,55.7,272.3,-129.8,-250.1,97.6,25,636.859,108.759,374.254,-3.03954,-0.536064,26.3778,
2026_07_06_17_07_37.973,3.869,29.9,0,0.758,0,0,0,0, ,0,0,0,0,0, ,861.4,-35.1,-199.3,-106.9,-250.1,87.3,25,649.192,102.759,353.672,-10.0663,-15.7439,30.4041,
2026_07_06_17_07_37.999,3.869,30,0,0.76,0,0,0,0, ,0,0,0,0,0, ,912.5,-104.8,-531.3,-63.7,-250.1,55.8,25,663.68,92.235,309.86,-14.6508,-30.0249,32.9114,
2026_07_06_17_07_38.014,3.869,30,0,0.758,0,0,0,0, ,0,0,0,0,0, ,948.1,-124.5,-632.8,-43.9,-250.1,36,25,679.928,79.6279,255.509,-17.0365,-43.4358,33.7029,
2026_07_06_17_07_38.040,3.869,30,0,0.757,0,0,0,0, ,0,0,0,0,0, ,1075.5,-114.7,-598.7,-5.8,-250.1,11.8,25,700.151,67.4875,202.417,-17.5126,-56.0294,33.1055,
2026_07_06_17_07_38.054,3.869,30,0,0.759,0,0,0,0, ,0,0,0,0,0, ,1017.9,-60.6,-479.8,9.4,-48,2.8,25,721.269,58.0338,157.221,-16.3358,-61.6978,31.533,
2026_07_06_17_07_38.078,3.869,30,0,0.758,0,0,0,0, ,0,0,0,0,0, ,815.1,-9.8,-357.1,0,87.1,-16.8,25,733.166,52.3524,122.141,-15.0539,-56.7468,29.1849,
2026_07_06_17_07_38.094,3.869,30,0,0.758,0,0,0,0, ,0,0,0,0,0, ,750.3,-2.9,-329.4,-18,127.4,-45.2,25,736.184,48.7752,93.7816,-14.685,-46.7532,25.5174,
2026_07_06_17_07_38.119,3.869,29.9,0,0.759,0,0,0,0, ,0,0,0,0,0, ,855.7,-40.5,-387,-27.8,116.6,-52.4,25,740.256,44.4806,66.239,-15.1856,-36.4698,20.9887,
2026_07_06_17_07_38.136,3.869,30,0,0.758,0,0,0,0, ,0,0,0,0,0, ,996.7,-56.6,-399.7,-25.4,84.2,-36.9,25,751.587,38.8116,38.2328,-15.8811,-28.1293,16.9888,
2026_07_06_17_07_38.163,3.869,29.9,0,0.759,0,0,0,0, ,0,0,0,0,0, ,983.7,-58.3,-420.1,-16.6,52,-14.1,25,766.127,32.9456,10.9247,-16.1931,-22.2653,14.3997,
2026_07_06_17_07_38.172,3.869,29.9,0,0.759,0,0,0,0, ,0,0,0,0,0, ,929.1,-27.4,-414.1,-3.5,22.2,-1.5,25,777.722,28.3268,-15.1581,-15.8187,-18.6478,13.0469,
2026_07_06_17_07_38.197,3.869,29.9,0,0.759,0,0,0,0, ,0,0,0,0,0, ,933.9,16.8,-333.6,7.9,4.9,-1,25,787.093,26.2777,-37.0159,-14.7207,-16.6857,12.1756,
2026_07_06_17_07_38.211,3.869,30,0,0.759,0,0,0,0, ,0,0,0,0,0, ,988.1,42.7,-229.8,9.1,-7,-2.1,25,797.69,26.4893,-51.9263,-13.3057,-15.7329,11.3392,
2026_07_06_17_07_38.237,3.869,30,0,0.759,0,0,0,0, ,0,0,0,0,0, ,1035.8,55.4,-161.9,4.1,-9.2,-0.8,25,810.747,27.8641,-60.6967,-12.0927,-15.2678,10.5599,
2026_07_06_17_07_38.252,3.869,29.9,0,0.758,0,0,0,0, ,0,0,0,0,0, ,1041.1,37.3,-182.2,-4.4,5.4,-0.2,25,824.622,28.9906,-67.4823,-11.3649,-14.4532,9.88593,
2026_07_06_17_07_38.277,3.869,29.9,0,0.758,0,0,0,0, ,0,0,0,0,0, ,972.9,36,-208.2,-8.8,17.7,-1,25,835.736,29.4573,-75.2651,-11.0746,-12.8686,9.24695,
2026_07_06_17_07_38.291,3.869,30,0,0.759,0,0,0,0, ,0,0,0,0,0, ,948.8,19.7,-256.7,-8.9,21,-4.2,25,843.36,29.3594,-84.8435,-10.939,-10.9053,8.52502,
2026_07_06_17_07_38.317,3.869,29.9,0,0.758,0,0,0,0, ,0,0,0,0,0, ,958.7,5.9,-278.4,-5.4,22.3,-5.1,25,850.087,28.3503,-95.9772,-10.7081,-8.92146,7.72217,
2026_07_06_17_07_38.331,3.869,30,0,0.758,0,0,0,0, ,0,0,0,0,0, ,951.7,28.9,-270.2,-0.9,21.4,-5,25,856.492,27.683,-106.844,-10.2476,-7.04632,6.94387,
2026_07_06_17_07_38.356,3.869,29.9,0,0.759,0,0,0,0, ,0,0,0,0,0, ,950.1,16.2,-230.1,-0.9,11.7,-4,25,862.245,27.3702,-115.576,-9.67793,-5.60842,6.24651,
2026_07_06_17_07_38.370,3.869,29.9,0,0.758,0,0,0,0, ,0,0,0,0,0, ,938.7,27.4,-209.9,-3.3,0.6,-2.6,25,867.252,27.0308,-121.94,-9.21615,-4.89189,5.66477,
2026_07_06_17_07_38.397,3.869,30,0,0.758,0,0,0,0, ,0,0,0,0,0, ,981.4,27.4,-225.3,-3.2,-4.2,-3.1,25,872.907,27.0533,-127.769,-8.85259,-4.70348,5.1459,
2026_07_06_17_07_38.410,3.869,30,0,0.759,0,0,0,0, ,0,0,0,0,0, ,995.4,26.9,-241.5,-2.4,5.3,-1.7,25,879.944,27.0592,-134.206,-8.48376,-4.38335,4.68607,
2026_07_06_17_07_38.435,3.869,30,0,0.757,0,0,0,0, ,0,0,0,0,0, ,998.4,18.1,-225.5,-0.8,13.2,-4.1,25,887.071,26.7813,-140.257,-8.06428,-3.55256,4.22379,
2026_07_06_17_07_38.450,3.869,30.1,0,0.758,0,0,0,0, ,0,0,0,0,0, ,974.2,18.9,-208.7,-0.7,19.6,-1.6,25,893.118,26.2767,-144.939,-7.61857,-2.3367,3.79273,
2026_07_06_17_07_38.477,3.869,30,0,0.759,0,0,0,0, ,0,0,0,0,0, ,967.4,29.4,-208,-1.9,18.7,-2.9,25,897.852,26.1471,-148.803,-7.23353,-1.02736,3.42451,
2026_07_06_17_07_38.488,3.869,29.9,0,0.759,0,0,0,0, ,0,0,0,0,0, ,992.1,24.9,-194.2,-3.8,19.6,-2.9,25,902.843,26.2082,-151.99,-6.96641,0.202199,3.03911,
2026_07_06_17_07_38.514,3.869,30,0,0.758,0,0,0,0, ,0,0,0,0,0, ,1008.5,28.9,-160.2,-6.8,30.4,-2.8,25,908.781,26.2504,-153.526,-6.86486,1.71331,2.68024,
2026_07_06_17_07_38.529,3.869,29.9,0,0.76,0,0,0,0, ,0,0,0,0,0, ,1017.5,28,-148.1,-10.1,54.4,-3.8,25,915.132,26.3844,-153.564,-6.96146,4.19266,2.31582,
2026_07_06_17_07_38.555,3.869,30,0,0.758,0,0,0,0, ,0,0,0,0,0, ,1044.5,25.1,-122.6,-15.8,83.1,-3,25,922.193,26.3945,-152.455,-7.32638,8.12662,1.96751,
2026_07_06_17_07_38.568,3.869,30,0,0.76,0,0,0,0, ,0,0,0,0,0, ,1162.8,16.4,-113.4,-23.6,135.4,0.1,25,933.25,26.0505,-150.355,-8.0804,14.2888,1.75926,
2026_07_06_17_07_38.602,3.869,30,0,0.76,0,0,0,0, ,0,0,0,0,0, ,1376.7,-60.3,-151.3,-21.9,248.8,15.2,25,953.756,23.1255,-149.258,-8.97433,25.1242,2.11822,
2026_07_06_17_07_38.608,3.869,30,0,0.759,0,0,0,0, ,0,0,0,0,0, ,1285,-98.9,-174.5,-7.4,250.1,23.7,25,976.735,16.8657,-150.089,-9.32019,38.794,3.17438,
2026_07_06_17_07_38.635,3.869,29.9,0,0.759,0,0,0,0, ,0,0,0,0,0, ,1159.5,-79.5,-196.6,1.4,250.1,0.2,25,991.696,10.4023,-152.25,-8.93505,51.6705,3.70914,
2026_07_06_17_07_38.648,3.869,29.9,0,0.759,0,0,0,0, ,0,0,0,0,0, ,1167.9,-103.8,-152.3,32.3,250.1,8.8,25,1002.18,4.18348,-153.603,-7.36378,63.7623,3.75734,
2026_07_06_17_07_38.672,3.869,29.9,0,0.758,0,0,0,0, ,0,0,0,0,0, ,1038.9,-62.6,-153.9,56.6,250.1,17.6,25,1008.35,-1.14145,-153.572,-4.20638,75.1173,4.33275,
2026_07_06_17_07_38.687,3.869,30.1,0,0.758,0,0,0,0, ,0,0,0,0,0, ,530.6,-0.1,-65.9,104,250.1,31.8,25,994.72,-2.98228,-150.911,0.943231,85.7803,5.57388,
2026_07_06_17_07_38.713,3.869,30,0,0.758,0,0,0,0, ,0,0,0,0,0, ,-28.3,118.5,82,148.2,250.1,8.6,25,949.409,0.806953,-141.224,8.56997,95.7935,6.46516,
2026_07_06_17_07_38.727,3.869,30.1,0,0.76,0,0,0,0, ,0,0,0,0,0, ,-150,200.6,545.4,150.7,250.1,5.2,25,886.122,10.4804,-113.502,17.1548,105.197,6.49165,
2026_07_06_17_07_38.753,3.869,30.1,0,0.758,0,0,0,0, ,0,0,0,0,0, ,-33.3,246.9,921.3,122.9,250.1,50.3,25,826.539,23.4765,-61.8972,24.4457,114.027,7.78708,
2026_07_06_17_07_38.766,3.869,30,0,0.759,0,0,0,0, ,0,0,0,0,0, ,-193.7,320,1019.6,90.5,187.1,72.2,25,769.255,39.3186,1.01144,29.4581,120.399,11.045,
2026_07_06_17_07_38.793,3.869,30.1,0,0.758,0,0,0,0, ,0,0,0,0,0, ,-325.9,337.2,1112.7,62.8,74.8,66.9,25,706.547,56.9467,65.9183,32.3338,121.042,14.6101,
2026_07_06_17_07_38.805,3.869,30,0,0.758,0,0,0,0, ,0,0,0,0,0, ,-272.9,357.2,1132.4,41.4,-1.8,53,25,645.247,74.634,130.307,33.5383,115.89,17.373,
2026_07_06_17_07_38.831,3.869,30.1,0,0.759,0,0,0,0, ,0,0,0,0,0, ,-307.6,383.9,1204.8,24.8,-53.7,40,25,588.241,92.6664,193.578,33.5116,107.137,19.148,
2026_07_06_17_07_38.844,3.869,30,0,0.76,0,0,0,0, ,0,0,0,0,0, ,-333,347,1226,4.9,-132.6,26.5,25,532.876,109.289,255.845,32.3744,94.9321,20.0073,
2026_07_06_17_07_38.871,3.869,30,0,0.759,0,0,0,0, ,0,0,0,0,0, ,-282.1,332.6,1113.8,-2.5,-196.6,0.6,25,481.663,123.336,311.545,30.4748,79.1169,19.6138,
2026_07_06_17_07_38.885,3.869,30.1,0,0.761,0,0,0,0, ,0,0,0,0,0, ,-233.6,423.8,1109.6,-9.4,-250.1,-32.9,25,436.599,138.867,360.305,28.2551,60.6853,17.4344,
2026_07_06_17_07_38.912,3.869,30,0,0.759,0,0,0,0, ,0,0,0,0,0, ,-64.3,466.6,1324.5,-76.7,-250.1,-29.1,25,400.917,157.534,412.513,23.91,41.7468,14.483,
2026_07_06_17_07_38.925,3.869,30,0,0.759,0,0,0,0, ,0,0,0,0,0, ,306.7,363.8,1150.3,-153.5,-250.1,32.7,25,383.872,173.235,462.779,15.439,23.9624,13.7101,
2026_07_06_17_07_38.951,3.869,29.9,0,0.759,0,0,0,0, ,0,0,0,0,0, ,1725.4,416.6,1710.3,-170.1,-250.1,75,25,422.395,186.457,521.737,4.63854,7.26176,16.1561,
2026_07_06_17_07_38.964,3.869,30,0,0.759,0,0,0,0, ,0,0,0,0,0, ,148,352.9,27.4,-182.3,-250.1,55.1,25,453.736,198.54,542.89,-6.38131,-8.42123,19.1356,
2026_07_06_17_07_38.992,3.869,30,0,0.76,0,0,0,0, ,0,0,0,0,0, ,745.1,46.3,-86.9,-114.8,-250.1,33.3,25,453.298,198.605,507.994,-15.0447,-23.1485,20.663,
2026_07_06_17_07_39.003,3.869,30,0,0.759,0,0,0,0, ,0,0,0,0,0, ,847.1,-13.9,-209.5,-78,-250.1,-8.3,25,474.187,187.489,468.008,-20.0023,-36.9784,20.1655,
2026_07_06_17_07_39.029,3.869,30.1,0,0.758,0,0,0,0, ,0,0,0,0,0, ,893.1,-36.8,-272,-76.6,-250.1,-22.7,25,498.313,174.52,424.818,-23.4939,-49.9655,17.9922,
2026_07_06_17_07_39.046,3.869,30.1,0,0.76,0,0,0,0, ,0,0,0,0,0, ,1150.6,-13.9,-281.4,-36.9,-211,-19.5,25,530.216,162.34,382.069,-25.5204,-60.9698,15.61,
2026_07_06_17_07_39.074,3.869,30,0,0.758,0,0,0,0, ,0,0,0,0,0, ,1201,-40,-297.9,-6.5,-113.4,4.7,25,569.556,150.805,341.136,-25.2876,-67.1386,14.2078,
2026_07_06_17_07_39.084,3.869,29.9,0,0.759,0,0,0,0, ,0,0,0,0,0, ,1025.1,10,-208,6.8,-25.8,16.1,25,602.676,140.701,304.934,-23.7375,-67.2886,13.9758,
2026_07_06_17_07_39.111,3.869,29.9,0,0.759,0,0,0,0, ,0,0,0,0,0, ,841.7,32.1,-106.9,8.1,5.2,7.2,25,622.829,133.41,276.757,-21.837,-63.8158,13.834,
2026_07_06_17_07_39.122,3.869,30,0,0.759,0,0,0,0, ,0,0,0,0,0, ,781.6,17.3,-52.6,2.7,-5.3,-6.7,25,634.335,126.786,255.033,-20.1773,-59.9301,13.0063,
2026_07_06_17_07_39.150,3.869,29.9,0,0.759,0,0,0,0, ,0,0,0,0,0, ,874.8,9.8,-72.5,-5.1,-17.7,-16.8,25,646.149,119.885,235.68,-19.0208,-56.9789,11.4977,
2026_07_06_17_07_39.161,3.869,30,0,0.76,0,0,0,0, ,0,0,0,0,0, ,1039.9,6.4,-83.9,-11.2,-10.5,-10.6,25,665.113,113.073,216.553,-18.3584,-54.3659,9.9622,
2026_07_06_17_07_39.189,3.869,30,0,0.758,0,0,0,0, ,0,0,0,0,0, ,1045.7,26,-98.8,-6.2,8.5,-2.6,25,688.128,107.17,197.79,-17.7698,-51.114,8.95294,
2026_07_06_17_07_39.201,3.869,30,0,0.759,0,0,0,0, ,0,0,0,0,0, ,1001.7,51.5,-77,-0.5,22.2,-3.9,25,708.577,103.001,180.381,-16.8911,-47.0638,8.20933,
2026_07_06_17_07_39.229,3.869,29.9,0,0.76,0,0,0,0, ,0,0,0,0,0, ,1000.6,62.5,-36.7,-3.2,21.8,-8.9,25,726.406,100.198,165.925,-15.9746,-42.8552,7.31907,
2026_07_06_17_07_39.239,3.869,30,0,0.759,0,0,0,0, ,0,0,0,0,0, ,1070.1,58.3,-37.9,-6.9,2.6,-6,25,745.232,97.7725,153.541,-15.3088,-39.5003,6.41908,
2026_07_06_17_07_39.267,3.869,29.9,0,0.759,0,0,0,0, ,0,0,0,0,0, ,1079.1,70.4,-56.6,-0.7,-4.2,1.1,25,765.303,95.7358,141.305,-14.6075,-37.142,5.87862,
2026_07_06_17_07_39.280,3.869,30.1,0,0.758,0,0,0,0, ,0,0,0,0,0, ,1011.9,58.5,-25.5,4.4,-0.3,6.7,25,782.377,93.8293,130.193,-13.6046,-35.0158,5.75805,
2026_07_06_17_07_39.307,3.869,30.1,0,0.759,0,0,0,0, ,0,0,0,0,0, ,976.4,14.1,-43.9,-0.6,3.1,3.7,25,795.282,90.3236,120.145,-12.6598,-32.7967,5.72404,
2026_07_06_17_07_39.319,3.869,30,0,0.759,0,0,0,0, ,0,0,0,0,0, ,977.7,56.7,-61.1,-3.3,6.8,-5.9,25,806.359,86.9767,109.624,-12.0072,-30.4965,5.3082,
2026_07_06_17_07_39.348,3.869,30,0,0.758,0,0,0,0, ,0,0,0,0,0, ,982.7,48.4,-50.7,-1.9,16.7,-5.9,25,816.952,84.8788,99.5374,-11.4339,-27.9221,4.6252,
2026_07_06_17_07_39.359,3.869,30,0,0.759,0,0,0,0, ,0,0,0,0,0, ,993.1,50.7,-25.2,-1.9,21.8,-5.3,25,827.369,82.726,91.1593,-10.853,-25.0476,4.0021,
2026_07_06_17_07_39.385,3.869,29.9,0,0.76,0,0,0,0, ,0,0,0,0,0, ,973.8,56.6,-39.9,-2.9,22.2,-4.7,25,836.88,80.9542,83.6208,-10.3379,-22.1806,3.45354,
2026_07_06_17_07_39.399,3.869,30,0,0.759,0,0,0,0, ,0,0,0,0,0, ,966.9,57.8,-26.8,-2.7,17,-6.9,25,845.014,79.5067,76.4929,-9.87853,-19.6346,2.88965,
2026_07_06_17_07_39.428,3.869,30,0,0.759,0,0,0,0, ,0,0,0,0,0, ,960.9,60.4,-21.6,-1.8,9.2,-6,25,852.258,78.2631,70.3569,-9.41367,-17.6398,2.32052,
2026_07_06_17_07_39.439,3.869,30,0,0.759,0,0,0,0, ,0,0,0,0,0, ,975.5,52.1,-68.4,0.7,-1.2,-6.5,25,859.324,76.9217,63.3273,-8.87354,-16.3211,1.79825,
2026_07_06_17_07_39.466,3.869,30,0,0.759,0,0,0,0, ,0,0,0,0,0, ,1031.1,57.2,-39.5,6.2,0.8,-2.7,25,868.097,75.5645,56.1807,-8.12257,-15.3388,1.40836,
2026_07_06_17_07_39.477,3.869,29.9,0,0.759,0,0,0,0, ,0,0,0,0,0, ,1024.9,55.6,0.1,7.2,1.5,0.4,25,877.841,74.3967,51.5568,-7.21932,-14.334,1.25246,
2026_07_06_17_07_39.507,3.869,29.9,0,0.76,0,0,0,0, ,0,0,0,0,0, ,1006.3,72.1,27.8,6,6.6,1.3,25,886.236,73.754,49.2651,-6.37721,-13.2137,1.22793,
2026_07_06_17_07_39.518,3.869,29.9,0,0.758,0,0,0,0, ,0,0,0,0,0, ,981.6,70.6,55.7,-0.3,8.5,-0.3,25,892.8,73.6075,48.8071,-5.81493,-11.9484,1.18357,
2026_07_06_17_07_39.551,3.869,29.9,0,0.759,0,0,0,0, ,0,0,0,0,0, ,1005.3,63.3,25.8,-3.9,6.7,-3.4,25,898.933,73.2018,48.3162,-5.58855,-10.7572,0.998716,
2026_07_06_17_07_39.556,3.869,29.9,0,0.759,0,0,0,0, ,0,0,0,0,0, ,1019.5,56.2,7.9,-4.3,13.8,-2.4,25,905.847,72.3821,46.3987,-5.49784,-9.47706,0.761138,
2026_07_06_17_07_39.584,3.869,29.9,0,0.76,0,0,0,0, ,0,0,0,0,0, ,991.5,54.3,11.5,-2.9,18.3,-1.2,25,911.92,71.3381,44.1624,-5.38219,-7.92151,0.605068,
2026_07_06_17_07_39.595,3.869,30,0,0.759,0,0,0,0, ,0,0,0,0,0, ,948.7,56.5,7,-2.6,15.2,-1.8,25,915.465,70.3669,42.0349,-5.22179,-6.41809,0.476791,
2026_07_06_17_07_39.624,3.869,29.9,0,0.759,0,0,0,0, ,0,0,0,0,0, ,945.8,59.4,13.3,-2.8,7.2,-4,25,917.402,69.6102,40.0919,-5.06812,-5.34449,0.271018,
2026_07_06_17_07_39.637,3.869,30,0,0.76,0,0,0,0, ,0,0,0,0,0, ,987.4,60.6,11.4,-2,0.2,-2.7,25,920.4,69.0246,38.4014,-4.90553,-4.79334,0.0503618,
2026_07_06_17_07_39.666,3.869,30.1,0,0.759,0,0,0,0, ,0,0,0,0,0, ,989.2,52.3,18.9,0.2,2.3,0.5,25,924.538,68.2583,36.9845,-4.66144,-4.42507,-0.0197383,
2026_07_06_17_07_39.676,3.869,30,0,0.759,0,0,0,0, ,0,0,0,0,0, ,957,61.7,38.3,0.6,5.3,-1.6,25,927.497,67.5723,36.4736,-4.35301,-3.92386,-0.0520511,
2026_07_06_17_07_39.703,3.869,30,0,0.758,0,0,0,0, ,0,0,0,0,0, ,963,62.5,31.6,-0.8,1.3,-4.5,25,929.478,67.2388,36.3807,-4.09384,-3.48365,-0.234739,
2026_07_06_17_07_39.716,3.869,30,0,0.758,0,0,0,0, ,0,0,0,0,0, ,1009,60.1,19.2,-1.4,-0.2,-5,25,932.922,66.8769,35.7116,-3.91141,-3.23785,-0.509887,
2026_07_06_17_07_39.744,3.869,29.9,0,0.759,0,0,0,0, ,0,0,0,0,0, ,1026.1,61.4,24.6,-1,1.6,-1.1,25,938.079,66.5036,34.8699,-3.74618,-2.99789,-0.664675,
2026_07_06_17_07_39.755,3.869,29.9,0,0.758,0,0,0,0, ,0,0,0,0,0, ,994.3,64.9,34.9,-0.7,3.1,1,25,942.474,66.2992,34.558,-3.56969,-2.672,-0.627219,
2026_07_06_17_07_39.784,3.869,30.1,0,0.759,0,0,0,0, ,0,0,0,0,0, ,975.3,60.9,20,-1.3,0,-0.4,25,945.053,66.0921,34.1248,-3.4131,-2.41472,-0.570716,
2026_07_06_17_07_39.794,3.869,30,0,0.758,0,0,0,0, ,0,0,0,0,0, ,983.8,59.6,15.9,-0.9,-2.2,-1.9,25,947.155,65.7361,33.1392,-3.27215,-2.33461,-0.606016,
2026_07_06_17_07_39.821,3.869,29.9,0,0.759,0,0,0,0, ,0,0,0,0,0, ,995.7,55.1,17.3,-0.1,-2.1,-1.4,25,949.751,65.225,32.1313,-3.10322,-2.32336,-0.669634,
2026_07_06_17_07_39.833,3.869,30,0,0.758,0,0,0,0, ,0,0,0,0,0, ,981,54.8,26.2,0,-0.4,-0.3,25,952.103,64.5989,31.4987,-2.91717,-2.25795,-0.680625,
2026_07_06_17_07_39.864,3.869,29.9,0,0.758,0,0,0,0, ,0,0,0,0,0, ,970.7,58.3,38.2,-1.1,2.4,-2.1,25,953.55,64.1084,31.5414,-2.77292,-2.05942,-0.712275,
2026_07_06_17_07_39.873,3.869,29.9,0,0.758,0,0,0,0, ,0,0,0,0,0, ,986.2,64.3,30.7,-1.9,2.3,-4.3,25,955.068,63.9373,31.7187,-2.69535,-1.79072,-0.86387,
2026_07_06_17_07_39.904,3.869,29.9,0,0.759,0,0,0,0, ,0,0,0,0,0, ,995.3,61.5,29.4,-0.8,2.1,-4.6,25,957.242,63.8741,31.617,-2.61337,-1.54754,-1.0824,
2026_07_06_17_07_39.913,3.869,30,0,0.758,0,0,0,0, ,0,0,0,0,0, ,991.3,57.6,22.9,-1.9,0.4,-3,25,959.439,63.6106,31.2838,-2.53638,-1.37706,-1.248,
2026_07_06_17_07_39.942,3.869,30.1,0,0.758,0,0,0,0, ,0,0,0,0,0, ,1000.7,56.3,15.2,-2,0.9,-1.8,25,961.667,63.2047,30.5383,-2.50065,-1.25354,-1.3182,
2026_07_06_17_07_39.953,3.869,29.9,0,0.759,0,0,0,0, ,0,0,0,0,0, ,1001.8,59.4,12.5,-1.6,2.6,-1.1,25,964.079,62.8784,29.5214,-2.45795,-1.07051,-1.32623,
2026_07_06_17_07_39.980,3.869,30,0,0.759,0,0,0,0, ,0,0,0,0,0, ,988.5,61.7,22,-0.3,3.6,-0.7,25,965.973,62.7365,28.7736,-2.36606,-0.816369,-1.30026,
2026_07_06_17_07_39.992,3.869,30,0,0.758,0,0,0,0, ,0,0,0,0,0, ,971.9,62,34.5,-0.2,1.1,-1.4,25,966.84,62.6825,28.7417,-2.23711,-0.623418,-1.28501,
2026_07_06_17_07_40.023,3.869,29.9,0,0.758,0,0,0,0, ,0,0,0,0,0, ,988.8,62.1,34.4,-0.5,-1,-2.7,25,967.663,62.6439,29.0896,-2.12212,-0.582382,-1.33163,
2026_07_06_17_07_40.031,3.869,29.9,0,0.757,0,0,0,0, ,0,0,0,0,0, ,997,61,23.9,-0.7,0.3,-1.9,25,969.201,62.5773,29.0932,-2.02936,-0.568221,-1.39064,
2026_07_06_17_07_40.060,3.869,30,0,0.758,0,0,0,0, ,0,0,0,0,0, ,990.8,61.6,21.7,-0.4,1,-2.1,25,970.706,62.4994,28.7097,-1.93921,-0.493986,-1.42777,
2026_07_06_17_07_40.071,3.869,29.9,0,0.758,0,0,0,0, ,0,0,0,0,0, ,984,61.5,37.2,-0.5,0,-2.3,25,971.723,62.4416,28.7548,-1.84847,-0.433415,-1.47483,
2026_07_06_17_07_40.099,3.869,30,0,0.758,0,0,0,0, ,0,0,0,0,0, ,981.8,61.6,29.6,-0.8,-0.9,-2.9,25,972.404,62.3873,29.0379,-1.77543,-0.434425,-1.54339,
2026_07_06_17_07_40.112,3.869,29.9,0,0.758,0,0,0,0, ,0,0,0,0,0, ,984.8,62.7,29.1,-0.4,0.4,-3,25,973.068,62.3728,29.0569,-1.70381,-0.423187,-1.62911,
2026_07_06_17_07_40.141,3.869,29.9,0,0.759,0,0,0,0, ,0,0,0,0,0, ,1003.5,66.8,21.9,-0.5,-2.2,-3.1,25,974.353,62.5177,28.8402,-1.6274,-0.452243,-1.71569,
2026_07_06_17_07_40.150,3.869,29.9,0,0.758,0,0,0,0, ,0,0,0,0,0, ,1008.4,67.1,32.3,0.3,-0.9,-0.3,25,976.278,62.7878,28.7341,-1.53433,-0.519137,-1.71474,
2026_07_06_17_07_40.180,3.869,29.9,0,0.757,0,0,0,0, ,0,0,0,0,0, ,979.9,64.2,45.6,-0.2,-2.1,0.3,25,977.367,62.9622,29.3567,-1.43778,-0.578909,-1.61025,
2026_07_06_17_07_40.190,3.869,30,0,0.758,0,0,0,0, ,0,0,0,0,0, ,972.1,59.6,48.4,-1.3,-2,-1.4,25,977.284,62.8974,30.4318,-1.39587,-0.668553,-1.54564,
2026_07_06_17_07_40.218,3.869,29.9,0,0.758,0,0,0,0, ,0,0,0,0,0, ,971.6,55.7,43.3,-1.7,0.8,-3.1,25,976.953,62.5777,31.3714,-1.40221,-0.664376,-1.58856,
2026_07_06_17_07_40.229,3.869,29.9,0,0.758,0,0,0,0, ,0,0,0,0,0, ,976.5,61.1,39.4,-1.7,2.5,-4.9,25,976.776,62.3231,31.9794,-1.42036,-0.523344,-1.73551,
2026_07_06_17_07_40.259,3.869,30,0,0.759,0,0,0,0, ,0,0,0,0,0, ,984.3,62.6,47.4,-2.1,3,-5.4,25,976.997,62.2943,32.6754,-1.44959,-0.323874,-1.94358,
2026_07_06_17_07_40.270,3.869,29.9,0,0.76,0,0,0,0, ,0,0,0,0,0, ,1000.3,66.5,34.6,-2.7,1.5,-4.3,25,977.929,62.4317,33.1827,-1.5075,-0.167029,-2.12069,
2026_07_06_17_07_40.297,3.869,30,0,0.758,0,0,0,0, ,0,0,0,0,0, ,1003,66,29,-2.1,0.9,-2.2,25,979.375,62.6644,33.0984,-1.56189,-0.0837254,-2.1895,
2026_07_06_17_07_40.308,3.869,29.9,0,0.757,0,0,0,0, ,0,0,0,0,0, ,998.5,64.6,27.2,-1.7,1,-0.7,25,980.677,62.825,32.7938,-1.58249,-0.0207328,-2.14444,
2026_07_06_17_07_40.337,3.869,30,0,0.758,0,0,0,0, ,0,0,0,0,0, ,986.5,64.8,31.3,-1.4,1.1,-0.7,25,981.398,62.9393,32.5779,-1.58051,0.044515,-2.05642,
2026_07_06_17_07_40.348,3.869,29.9,0,0.759,0,0,0,0, ,0,0,0,0,0, ,976.1,68.8,41.6,-1.4,-0.5,-1.8,25,981.392,63.1745,32.8138,-1.56951,0.0600836,-2.00728,
2026_07_06_17_07_40.380,3.869,29.9,0,0.759,0,0,0,0, ,0,0,0,0,0, ,987.6,68.2,28,-2,-1.6,-3,25,981.42,63.4991,32.9348,-1.57747,-0.0075621,-2.03121,
2026_07_06_17_07_40.388,3.869,30.1,0,0.758,0,0,0,0, ,0,0,0,0,0, ,1008.7,68.4,32.1,-1,0.7,-2.8,25,982.439,63.7916,32.7591,-1.57275,-0.0345232,-2.08415,
2026_07_06_17_07_40.417,3.869,30,0,0.759,0,0,0,0, ,0,0,0,0,0, ,998.7,66.6,43.3,-0.9,3.6,-0.5,25,983.735,64.0176,33.0601,-1.5348,0.0985962,-2.0577,
2026_07_06_17_07_40.427,3.869,29.9,0,0.758,0,0,0,0, ,0,0,0,0,0, ,971.9,65.5,40.5,-1.5,1.6,-1.7,25,983.83,64.1414,33.5988,-1.5144,0.251025,-1.99934,
2026_07_06_17_07_40.457,3.869,29.9,0,0.759,0,0,0,0, ,0,0,0,0,0, ,990.1,62.3,24.4,-2.1,-1.1,-3.2,25,983.658,64.1267,33.5288,-1.5318,0.250963,-2.0268,
2026_07_06_17_07_40.468,3.869,29.9,0,0.758,0,0,0,0, ,0,0,0,0,0, ,996.2,63.4,29.9,-1.6,-1,-2.3,25,984.236,64.0489,33.1401,-1.55119,0.171686,-2.07087,
2026_07_06_17_07_40.497,3.869,29.9,0,0.758,0,0,0,0, ,0,0,0,0,0, ,979.9,62.1,27.9,-0.1,-2.7,-2,25,984.469,63.9698,32.8817,-1.50846,0.0484891,-2.07569,
2026_07_06_17_07_40.506,3.869,29.9,0,0.758,0,0,0,0, ,0,0,0,0,0, ,972,62.1,33.5,0.7,-6,-3,25,983.95,63.8558,32.7488,-1.39826,-0.219544,-2.10155,
2026_07_06_17_07_40.537,3.869,29.9,0,0.758,0,0,0,0, ,0,0,0,0,0, ,994.7,67.2,43,0.2,-4.4,-4,25,983.913,63.9042,33.084,-1.28563,-0.52304,-2.18677,
2026_07_06_17_07_40.547,3.869,30,0,0.758,0,0,0,0, ,0,0,0,0,0, ,994.7,67.2,52.3,-0.9,2.9,-4.2,25,984.57,64.1051,33.9716,-1.22861,-0.536871,-2.30335,
2026_07_06_17_07_40.576,3.869,30,0,0.759,0,0,0,0, ,0,0,0,0,0, ,966.9,62.9,45.8,-2.6,3.4,-4.5,25,984.341,64.1626,34.8905,-1.26039,-0.312202,-2.42807,
2026_07_06_17_07_40.585,3.869,29.9,0,0.76,0,0,0,0, ,0,0,0,0,0, ,975.7,67.7,36.1,-3.8,-1,-6.3,25,983.546,64.232,35.2597,-1.37858,-0.220052,-2.60917,
2026_07_06_17_07_40.614,3.869,29.9,0,0.758,0,0,0,0, ,0,0,0,0,0, ,1011.5,65.1,29.7,-3.9,-1.4,-5.2,25,984.159,64.3641,35.1159,-1.52918,-0.279768,-2.80057,
2026_07_06_17_07_40.625,3.869,29.9,0,0.758,0,0,0,0, ,0,0,0,0,0, ,1044.7,82.7,66.1,-5.3,9.3,0.1,25,986.836,64.9452,35.8949,-1.71631,-0.0220163,-2.7853,
2026_07_06_17_07_40.661,3.869,29.9,0,0.758,0,0,0,0, ,0,0,0,0,0, ,1042.6,102.1,139.1,-14.2,47,-2.6,25,990.298,66.6182,39.9598,-2.20586,1.69472,-2.69174,
2026_07_06_17_07_40.666,3.869,30,0,0.758,0,0,0,0, ,0,0,0,0,0, ,1071.1,102.7,99.3,-19.9,112,-20.4,25,994.354,68.7986,44.7885,-3.11043,6.43597,-3.22849,
2026_07_06_17_07_40.696,3.869,29.9,0,0.759,0,0,0,0, ,0,0,0,0,0, ,1039.3,97.4,207.7,-27.6,164.5,-25.7,25,998.062,70.703,51.4131,-4.36815,14.4684,-4.43637,
2026_07_06_17_07_40.705,3.869,30,0,0.758,0,0,0,0, ,0,0,0,0,0, ,1280.3,51.6,187,-43.6,244.8,-24.3,25,1007.92,70.9344,60.3061,-6.27134,26.0576,-5.68946,
2026_07_06_17_07_40.734,3.869,30,0,0.759,0,0,0,0, ,0,0,0,0,0, ,1395.2,-6.3,144,-22.1,250.1,-12.3,25,1028.02,67.9921,66.7164,-7.89098,39.5487,-6.45792,
2026_07_06_17_07_40.743,3.869,30,0,0.759,0,0,0,0, ,0,0,0,0,0, ,1055.7,-23.1,204.1,-13.8,250.1,-26.4,25,1040.05,62.953,73.257,-8.50395,52.3792,-7.24353,
2026_07_06_17_07_40.773,3.869,29.9,0,0.758,0,0,0,0, ,0,0,0,0,0, ,796.2,-24.9,295.4,-15.8,250.1,-32,25,1033.09,57.6543,84.0121,-8.88762,64.4278,-8.5815,
2026_07_06_17_07_40.783,3.869,29.9,0,0.758,0,0,0,0, ,0,0,0,0,0, ,672.2,26.3,291.1,-9.7,250.1,-40.8,25,1014.88,54.1837,96.7625,-9.12298,75.7422,-10.2767,
2026_07_06_17_07_40.812,3.869,30.1,0,0.759,0,0,0,0, ,0,0,0,0,0, ,603.1,32.7,315.3,17.4,250.1,-16.8,25,991.894,52.6795,109.342,-8.33244,86.3671,-11.4055,
2026_07_06_17_07_40.823,3.869,30.1,0,0.758,0,0,0,0, ,0,0,0,0,0, ,267.8,105.1,405.7,49.9,250.1,19.6,25,957.985,53.6679,124.647,-5.77414,96.3446,-10.6251,
2026_07_06_17_07_40.853,3.869,30,0,0.758,0,0,0,0, ,0,0,0,0,0, ,-18.6,208.6,664.6,64.1,250.1,53.2,25,907.201,59.9556,149.662,-1.94884,105.714,-7.75953,
2026_07_06_17_07_40.863,3.869,29.9,0,0.758,0,0,0,0, ,0,0,0,0,0, ,-62.6,256.4,960.5,54.4,134.8,82.1,25,849.444,70.47,190.057,1.78047,111,-3.16426,
2026_07_06_17_07_40.893,3.869,30,0,0.758,0,0,0,0, ,0,0,0,0,0, ,-73.3,237.3,1060.7,34,75,89,25,793.541,81.2182,240.059,4.36541,110.628,2.24176,
2026_07_06_17_07_40.902,3.869,29.9,0,0.759,0,0,0,0, ,0,0,0,0,0, ,-183.5,239.6,987.7,28.5,77,67.4,25,737.36,90.7995,287.842,6.00369,108.518,6.87047,
2026_07_06_17_07_40.932,3.869,30,0,0.758,0,0,0,0, ,0,0,0,0,0, ,-212.8,220.5,954.8,30.3,59.7,46.1,25,680.352,99.2851,329.488,7.4294,106.07,9.91,
2026_07_06_17_07_40.942,3.869,30,0,0.758,0,0,0,0, ,0,0,0,0,0, ,-165.7,248.1,1001.7,38.2,48.5,35.4,25,627.361,107.513,369.021,9.06378,102.903,11.7893,
2026_07_06_17_07_40.971,3.869,30,0,0.759,0,0,0,0, ,0,0,0,0,0, ,-153.3,262.6,1079.1,32.9,47.9,32.2,25,579.411,116.521,409.934,10.6778,99.5696,13.1306,
2026_07_06_17_07_40.981,3.869,30,0,0.759,0,0,0,0, ,0,0,0,0,0, ,-230.8,283,1065,26.7,51,30,25,532.401,126.045,450.281,11.843,96.5154,14.2256,
2026_07_06_17_07_41.011,3.869,30,0,0.758,0,0,0,0, ,0,0,0,0,0, ,-301.3,283.4,1049.8,20.2,26.5,24.4,25,483.745,135.621,487.278,12.5503,92.9953,15.0162,
2026_07_06_17_07_41.021,3.869,29.9,0,0.758,0,0,0,0, ,0,0,0,0,0, ,-262.5,292.6,1034.5,16.3,3.9,14.7,25,437.088,144.907,521.09,12.8977,88.2547,15.2925,
2026_07_06_17_07_41.052,3.869,30,0,0.758,0,0,0,0, ,0,0,0,0,0, ,-198.7,306,1033.2,17,9.3,7.4,25,396.401,154.315,552.336,13.1263,83.2789,15.034,
2026_07_06_17_07_41.060,3.869,30,0,0.759,0,0,0,0, ,0,0,0,0,0, ,-185,315.7,1054.5,13.6,14.4,6.4,25,360.555,163.854,582.288,13.2588,78.9262,14.5383,
2026_07_06_17_07_41.089,3.869,30,0,0.76,0,0,0,0, ,0,0,0,0,0, ,-195.9,300.2,1068.1,5.3,7,6.2,25,326.978,172.635,611.478,13.0267,74.7686,14.0363,
2026_07_06_17_07_41.099,3.869,30,0,0.758,0,0,0,0, ,0,0,0,0,0, ,-190.9,289,1025.3,-0.4,-0.3,0.1,25,295.267,180.067,637.999,12.3822,70.4166,13.3729,
2026_07_06_17_07_41.129,3.869,30,0,0.758,0,0,0,0, ,0,0,0,0,0, ,-138.7,275.8,999.1,-2.5,-5.2,-4.2,25,267.232,186.303,660.802,11.5393,65.958,12.4331,
2026_07_06_17_07_41.140,3.869,30,0,0.76,0,0,0,0, ,0,0,0,0,0, ,-114,279.2,975.4,-2.5,-10.7,-3.4,25,243.248,191.86,680.695,10.6838,61.4542,11.4439,
2026_07_06_17_07_41.171,3.869,30,0,0.759,0,0,0,0, ,0,0,0,0,0, ,-82.6,282.7,966.3,1.3,-16.3,-1.8,25,222.435,197.289,698.376,9.99615,56.8867,10.5881,
2026_07_06_17_07_41.179,3.869,30,0,0.759,0,0,0,0, ,0,0,0,0,0, ,-72.5,283.4,981.8,3.1,-16.8,-0.6,25,204.155,202.515,715.175,9.52107,52.4116,9.86974,
2026_07_06_17_07_41.210,3.869,30,0,0.759,0,0,0,0, ,0,0,0,0,0, ,-72,292.7,990.3,2.6,-34.3,1.2,25,187.311,207.728,731.682,9.11455,47.6608,9.28658,
2026_07_06_17_07_41.218,3.869,30,0,0.758,0,0,0,0, ,0,0,0,0,0, ,-81,336.6,1010.4,3.2,-80.5,11.4,25,171.235,214.243,748.054,8.73585,41.2587,9.10459,
2026_07_06_17_07_41.249,3.869,30,0,0.757,0,0,0,0, ,0,0,0,0,0, ,-115.6,355.4,1078.3,-6.3,-168,29.3,25,154.81,222.272,766.109,8.10906,31.173,9.78985,
2026_07_06_17_07_41.262,3.869,30,0,0.757,0,0,0,0, ,0,0,0,0,0, ,-85.2,345.2,1135,-18.8,-241.6,34,25,139.259,230.074,786.861,6.85015,16.7934,11.122,
2026_07_06_17_07_41.292,3.869,30,0,0.759,0,0,0,0, ,0,0,0,0,0, ,-36.7,338.7,1140.3,-25.7,-250.1,27.9,25,127.058,236.891,808.237,5.07686,0.788583,12.3302,
2026_07_06_17_07_41.297,3.869,30,0,0.76,0,0,0,0, ,0,0,0,0,0, ,115.2,308.7,1142.8,-46.3,-250.1,20.3,25,121.708,242.181,828.548,2.57374,-14.4999,13.0474,
2026_07_06_17_07_41.328,3.869,29.9,0,0.758,0,0,0,0, ,0,0,0,0,0, ,242.4,288.6,1052,-68,-250.1,25,25,125.187,245.622,844.931,-1.06568,-28.8568,13.6326,
2026_07_06_17_07_41.337,3.869,30,0,0.758,0,0,0,0, ,0,0,0,0,0, ,440.7,230.9,923.9,-94.2,-250.1,55.2,25,138.371,246.483,853.647,-5.94277,-42.3388,15.2455,
2026_07_06_17_07_41.369,3.869,30.1,0,0.759,0,0,0,0, ,0,0,0,0,0, ,581.6,156.6,778,-101,-250.1,79.3,25,161.087,243.27,853.482,-11.5281,-54.9993,18.4145,
2026_07_06_17_07_41.378,3.869,30,0,0.76,0,0,0,0, ,0,0,0,0,0, ,639.4,138,689.6,-92.6,-250.1,70.9,25,188.474,237.422,846.189,-16.7244,-66.8882,21.8688,
2026_07_06_17_07_41.409,3.869,30,0,0.76,0,0,0,0, ,0,0,0,0,0, ,661.3,95.4,567.8,-83,-250.1,51.4,25,216.619,230.065,832.936,-21.0556,-78.0527,24.2625,
2026_07_06_17_07_41.417,3.869,30,0,0.759,0,0,0,0, ,0,0,0,0,0, ,667.1,38.9,395.3,-77.6,-250.1,46.6,25,243.894,220.137,811.523,-24.6658,-88.5368,25.7699,
2026_07_06_17_07_41.447,3.869,30,0,0.758,0,0,0,0, ,0,0,0,0,0, ,673.8,11.3,217.6,-66.8,-250.1,37,25,269.887,208.252,780.745,-27.5624,-98.3821,26.7467,
2026_07_06_17_07_41.456,3.869,29.9,0,0.758,0,0,0,0, ,0,0,0,0,0, ,737.1,-21.3,63.1,-51.6,-250.1,27,25,296.429,195.257,741.721,-29.4903,-107.627,27.0669,
2026_07_06_17_07_41.488,3.869,30.1,0,0.758,0,0,0,0, ,0,0,0,0,0, ,805,-32.3,-26.2,-41,-250.1,20.9,25,325.351,181.726,697.647,-30.5146,-116.309,26.8769,
2026_07_06_17_07_41.496,3.869,30,0,0.76,0,0,0,0, ,0,0,0,0,0, ,804.8,-30.3,-84.3,-36.9,-250.1,0.7,25,354.574,168.744,651.767,-31.0287,-124.462,25.8972,
2026_07_06_17_07_41.525,3.869,30,0,0.758,0,0,0,0, ,0,0,0,0,0, ,738.7,-7.2,-143.9,-31.9,-250.1,-22.2,25,379.995,157.319,605.097,-31.2341,-132.118,23.664,
2026_07_06_17_07_41.535,3.869,30,0,0.759,0,0,0,0, ,0,0,0,0,0, ,893.7,-34,-221.3,-38.1,-250.1,-26.2,25,406.577,146.477,557.097,-31.4636,-139.308,20.7473,
2026_07_06_17_07_41.566,3.869,30,0,0.76,0,0,0,0, ,0,0,0,0,0, ,947.6,-32.5,-353.5,-34.6,-218.8,-13.2,25,437.903,135.525,505.635,-31.7614,-145.105,18.2826,
2026_07_06_17_07_41.574,3.869,30,0,0.757,0,0,0,0, ,0,0,0,0,0, ,908.3,-40.6,-515.6,-29.7,-185.9,-1,25,467.765,125.039,448.343,-31.785,-148.594,16.7358,
2026_07_06_17_07_41.606,3.869,30,0,0.76,0,0,0,0, ,0,0,0,0,0, ,800.6,-27.4,-629.8,-4.6,-190.2,-9.6,25,491.329,115.348,386.123,-30.8932,-150.998,15.393,
2026_07_06_17_07_41.616,3.869,30,0,0.758,0,0,0,0, ,0,0,0,0,0, ,846.9,2,-479.6,-17.8,-223.2,0.4,25,511.586,107.545,328.792,-29.6932,-154.393,14.1747,
2026_07_06_17_07_41.647,3.869,30,0,0.758,0,0,0,0, ,0,0,0,0,0, ,836.5,49.4,-524.4,-34.8,-234.8,6.7,25,531.702,102.557,278.165,-29.4864,-158.939,13.5272,
2026_07_06_17_07_41.654,3.869,30,0,0.758,0,0,0,0, ,0,0,0,0,0, ,905.7,11.8,-589.9,-52.6,-201.1,19.4,25,552.384,98.1725,227.263,-30.3525,-162.535,13.4982,
2026_07_06_17_07_41.686,3.869,30,0,0.759,0,0,0,0, ,0,0,0,0,0, ,848.7,-4,-791.5,-60.9,-163.1,33.7,25,572.178,92.4277,171.325,-31.9611,-163.727,14.2935,
2026_07_06_17_07_41.694,3.869,30.1,0,0.758,0,0,0,0, ,0,0,0,0,0, ,667.7,28,-833.4,-48.2,-120.6,25.3,25,583.513,87.5267,111.376,-33.3376,-162.394,15.2202,
2026_07_06_17_07_41.724,3.869,30,0,0.76,0,0,0,0, ,0,0,0,0,0, ,604,46.5,-917.2,-37.3,-121.7,21.3,25,586.703,84.4629,51.2506,-33.9112,-159.881,15.7125,
2026_07_06_17_07_41.733,3.869,29.9,0,0.757,0,0,0,0, ,0,0,0,0,0, ,629.5,67.6,-893.1,-20.7,-130.5,15.3,25,588.534,82.7925,-7.03006,-33.6119,-157.822,15.8702,
2026_07_06_17_07_41.765,3.869,30,0,0.758,0,0,0,0, ,0,0,0,0,0, ,537.2,43.4,-885.3,8.5,-123.7,-19,25,588.218,81.1293,-60.7873,-31.9354,-155.95,14.7904,
2026_07_06_17_07_41.772,3.869,29.9,0,0.759,0,0,0,0, ,0,0,0,0,0, ,620.8,10.2,-797.1,-5,-90.6,3.7,25,587.656,77.8186,-108.344,-29.8827,-152.976,13.4229,
2026_07_06_17_07_41.803,3.869,30.1,0,0.76,0,0,0,0, ,0,0,0,0,0, ,546.3,43.4,-863.8,-12.4,-9.6,10,25,587.406,74.7097,-152.347,-28.5919,-146.707,13.0224,
2026_07_06_17_07_41.813,3.869,30,0,0.76,0,0,0,0, ,0,0,0,0,0, ,503.4,53.7,-887.6,-11.4,26,4.9,25,583.594,73.1156,-196.426,-27.5747,-137.268,12.6828,
2026_07_06_17_07_41.844,3.869,30,0,0.759,0,0,0,0, ,0,0,0,0,0, ,511.4,56.1,-849.6,-9,22.8,4.1,25,578.951,72.0056,-237.387,-26.516,-127.416,12.1842,
2026_07_06_17_07_41.851,3.869,30,0,0.76,0,0,0,0, ,0,0,0,0,0, ,502.4,80.5,-853,-5.8,10.3,2.3,25,574.56,71.7798,-274.797,-25.3511,-118.643,11.6367,
2026_07_06_17_07_41.883,3.869,30,0,0.757,0,0,0,0, ,0,0,0,0,0, ,558.4,52.4,-841.9,-7.4,3.7,-0.9,25,571.869,71.455,-309.693,-24.2084,-110.987,10.9702,
2026_07_06_17_07_41.892,3.869,30,0,0.757,0,0,0,0, ,0,0,0,0,0, ,569.7,50,-847.1,-3,6.2,2,25,571.393,70.2207,-342.283,-23.0501,-103.922,10.3353,
2026_07_06_17_07_41.924,3.869,30,0,0.759,0,0,0,0, ,0,0,0,0,0, ,573.6,69,-836.3,-3.6,-1.4,0.9,25,571.408,69.5674,-372.716,-21.8466,-97.4428,9.79381,
2026_07_06_17_07_41.931,3.869,30,0,0.759,0,0,0,0, ,0,0,0,0,0, ,588.8,52.1,-799.6,-3.6,-12.6,0.6,25,572.005,69.0179,-399.848,-20.7347,-91.9315,9.24271,
2026_07_06_17_07_41.962,3.869,30,0,0.759,0,0,0,0, ,0,0,0,0,0, ,592.7,49.8,-809.6,-3.2,-14.2,2.1,25,573.147,67.9169,-424.512,-19.6784,-87.1459,8.76174,
2026_07_06_17_07_41.971,3.869,30,0,0.759,0,0,0,0, ,0,0,0,0,0, ,599.7,47.6,-819.5,-1.3,-6.8,6.1,25,574.552,66.7459,-448.28,-18.6163,-82.4753,8.47767,
2026_07_06_17_07_42.008,3.869,29.9,0,0.757,0,0,0,0, ,0,0,0,0,0, ,584.5,54.9,-849.6,1.5,10.2,6.6,25,575.621,65.8016,-471.819,-17.4758,-77.3459,8.34801,
2026_07_06_17_07_42.013,3.869,30,0,0.759,0,0,0,0, ,0,0,0,0,0, ,574.4,48.3,-824.5,2,26.2,4.4,25,575.855,64.9362,-494.075,-16.3042,-71.5236,8.17446,
2026_07_06_17_07_42.044,3.869,30,0,0.759,0,0,0,0, ,0,0,0,0,0, ,576.1,46.1,-811.1,-1.2,12.4,11.2,25,575.818,63.8554,-513.802,-15.2863,-65.989,8.15164,
2026_07_06_17_07_42.050,3.869,30,0,0.759,0,0,0,0, ,0,0,0,0,0, ,540.6,42.1,-837.4,-1,-9.2,16.5,25,574.753,62.6515,-532.72,-14.4218,-61.8703,8.49889,
2026_07_06_17_07_42.081,3.869,29.9,0,0.76,0,0,0,0, ,0,0,0,0,0, ,533.8,39.7,-841.9,3.6,-7.9,13.4,25,572.465,61.326,-551.423,-13.4638,-58.6211,8.892,
2026_07_06_17_07_42.089,3.869,30,0,0.758,0,0,0,0, ,0,0,0,0,0, ,559.3,37.4,-852.2,6.5,5.8,7.7,25,570.886,59.9381,-569.438,-12.3356,-55.1129,8.99304,
2026_07_06_17_07_42.123,3.869,30,0,0.759,0,0,0,0, ,0,0,0,0,0, ,587.2,31.2,-818.3,7.6,20.7,6.8,25,571.03,58.3758,-585.636,-11.1543,-50.947,8.88682,
2026_07_06_17_07_42.129,3.869,30,0,0.758,0,0,0,0, ,0,0,0,0,0, ,587,30,-810.4,7,23.3,9.8,25,572.009,56.6832,-599.573,-10.0297,-46.5018,8.85106,
2026_07_06_17_07_42.161,3.869,30.1,0,0.759,0,0,0,0, ,0,0,0,0,0, ,578.7,33.4,-836.1,6.9,15.6,12.1,25,572.67,55.1608,-613.204,-8.99502,-42.4829,8.97897,
2026_07_06_17_07_42.169,3.869,30,0,0.76,0,0,0,0, ,0,0,0,0,0, ,614.6,18.1,-850.5,8.7,1.9,16.9,25,574.131,53.3686,-627.225,-7.97158,-39.3609,9.3154,
2026_07_06_17_07_42.201,3.869,30,0,0.759,0,0,0,0, ,0,0,0,0,0, ,681,-5.1,-877.9,19.4,-8.7,25.7,25,578.62,50.5125,-641.666,-6.62964,-37.1695,10.0457,
2026_07_06_17_07_42.208,3.869,30,0,0.758,0,0,0,0, ,0,0,0,0,0, ,708.2,-1.5,-841.6,31.1,-11,39.9,25,585.688,47.2333,-654.955,-4.68697,-35.5047,11.4323,
