UTC_Time,Vin,TC1,TC2,Rh1,Vh1,Ah1,Acp1,Dty1,Err1,Rh2,Vh2,Ah2,Acp2,Dty2,Err2,Accel_x,Accel_y,Accel_z,gyro_x,gyro_y,gyro_z,Temp_c,Accel_x_h,Accel_y_h,Accel_z_h,gyro_x_h,gyro_y_h,gyro_z_h,
2026_07_06_20_15_42.171,3.859,60,0,0.781,0,0,0,0, ,0,0,0,0,0, ,-38.5,309.8,951.4,-0.5,-0.6,-1.7,25,-38.5,309.8,951.4,-0.5,-0.6,-1.7,
2026_07_06_20_15_42.191,3.859,59.9,0,0.779,0,0,0,0, ,0,0,0,0,0, ,-38.4,311,951,-0.6,-0.5,-1.7,25,-38.497,309.837,951.388,-0.503047,-0.596953,-1.7,
2026_07_06_20_15_42.210,3.859,59.8,0,0.78,0,0,0,0, ,0,0,0,0,0, ,-38.5,312.5,951.1,-0.6,-0.5,-1.7,25,-38.4941,309.953,951.367,-0.508955,-0.591045,-1.7,
2026_07_06_20_15_42.230,3.859,59.8,0,0.78,0,0,0,0, ,0,0,0,0,0, ,-38,311.1,950,-0.6,-0.5,-1.8,25,-38.4792,310.066,951.317,-0.514503,-0.585497,-1.70305,
2026_07_06_20_15_42.250,3.859,59.8,0,0.782,0,0,0,0, ,0,0,0,0,0, ,-39.1,311.8,949.5,-0.5,-0.5,-1.7,25,-38.4835,310.15,951.222,-0.516666,-0.580287,-1.70591,
2026_07_06_20_15_42.270,3.859,59.8,0,0.782,0,0,0,0, ,0,0,0,0,0, ,-37.4,311.7,951.1,-0.4,-0.5,-1.8,25,-38.4693,310.248,951.166,-0.512604,-0.575395,-1.70859,
2026_07_06_20_15_42.294,3.859,59.8,0,0.78,0,0,0,0, ,0,0,0,0,0, ,-38.5,311.7,951.5,-0.6,-0.5,-1.7,25,-38.4377,310.336,951.174,-0.511836,-0.5708,-1.71112,
2026_07_06_20_15_42.309,3.859,59.8,0,0.78,0,0,0,0, ,0,0,0,0,0, ,-40,310.3,951,-0.6,-0.5,-1.8,25,-38.4872,310.377,951.179,-0.517208,-0.566486,-1.71349,
2026_07_06_20_15_42.329,3.859,59.7,0,0.78,0,0,0,0, ,0,0,0,0,0, ,-37.7,312.1,951.4,-0.5,-0.6,-1.7,25,-38.5093,310.427,951.18,-0.519206,-0.565481,-1.71571,
2026_07_06_20_15_42.349,3.859,59.8,0,0.78,0,0,0,0, ,0,0,0,0,0, ,-38.8,311.7,950.5,-0.5,-0.6,-1.8,25,-38.4935,310.516,951.166,-0.518036,-0.567585,-1.7178,
2026_07_06_20_15_42.368,3.859,59.7,0,0.779,0,0,0,0, ,0,0,0,0,0, ,-39.6,311.7,951.9,-0.5,-0.5,-1.8,25,-38.5365,310.589,951.168,-0.516937,-0.566513,-1.72281,
2026_07_06_20_15_42.389,3.859,59.8,0,0.78,0,0,0,0, ,0,0,0,0,0, ,-38.9,313.2,951.6,-0.5,-0.6,-1.7,25,-38.58,310.702,951.203,-0.515905,-0.565507,-1.72447,
2026_07_06_20_15_42.408,3.859,59.8,0,0.782,0,0,0,0, ,0,0,0,0,0, ,-38.3,312.2,950.4,-0.5,-0.5,-1.7,25,-38.5812,310.824,951.191,-0.514936,-0.564562,-1.72298,
2026_07_06_20_15_42.431,3.859,59.7,0,0.78,0,0,0,0, ,0,0,0,0,0, ,-38.5,311.5,950.1,-0.6,-0.5,-1.7,25,-38.5702,310.886,951.134,-0.517072,-0.560628,-1.72158,
2026_07_06_20_15_42.448,3.859,59.6,0,0.779,0,0,0,0, ,0,0,0,0,0, ,-37.3,311.8,950.6,-0.5,-0.5,-1.8,25,-38.5293,310.933,951.086,-0.519079,-0.556933,-1.72331,
2026_07_06_20_15_42.468,3.859,59.7,0,0.782,0,0,0,0, ,0,0,0,0,0, ,-37.3,311.1,952.1,-0.5,-0.5,-1.7,25,-38.4544,310.964,951.102,-0.517916,-0.553464,-1.72494,
2026_07_06_20_15_42.487,3.859,59.7,0,0.78,0,0,0,0, ,0,0,0,0,0, ,-37.9,311.8,951.6,-0.6,-0.6,-1.7,25,-38.4024,310.994,951.148,-0.519871,-0.553253,-1.72342,
2026_07_06_20_15_42.507,3.859,59.7,0,0.779,0,0,0,0, ,0,0,0,0,0, ,-38.2,311.4,949.5,-0.5,-0.5,-1.7,25,-38.3809,311.031,951.111,-0.521707,-0.553055,-1.72199,
2026_07_06_20_15_42.527,3.859,59.7,0,0.78,0,0,0,0, ,0,0,0,0,0, ,-37.9,311.4,950.3,-0.6,-0.6,-1.7,25,-38.3607,311.053,951.037,-0.523431,-0.552868,-1.72065,
2026_07_06_20_15_42.547,3.859,59.7,0,0.781,0,0,0,0, ,0,0,0,0,0, ,-38.4,311.2,949.5,-0.6,-0.5,-1.7,25,-38.3479,311.068,950.968,-0.528097,-0.552694,-1.71939,
2026_07_06_20_15_42.569,3.859,59.6,0,0.781,0,0,0,0, ,0,0,0,0,0, ,-38.3,311.5,949.3,-0.6,-0.5,-1.7,25,-38.348,311.086,950.873,-0.532479,-0.549483,-1.71821,
2026_07_06_20_15_42.586,3.859,59.7,0,0.78,0,0,0,0, ,0,0,0,0,0, ,-37.8,310.7,953.3,-0.6,-0.6,-1.7,25,-38.3299,311.086,950.899,-0.536593,-0.549514,-1.7171,
2026_07_06_20_15_42.606,3.859,59.6,0,0.78,0,0,0,0, ,0,0,0,0,0, ,-39.7,312.2,949.7,-0.5,-0.6,-1.7,25,-38.3555,311.109,950.935,-0.53741,-0.552591,-1.71606,
2026_07_06_20_15_42.626,3.859,59.6,0,0.78,0,0,0,0, ,0,0,0,0,0, ,-37.7,312.3,949.2,-0.5,-0.5,-1.7,25,-38.3764,311.178,950.845,-0.535131,-0.552433,-1.71508,
2026_07_06_20_15_42.646,3.859,59.6,0,0.779,0,0,0,0, ,0,0,0,0,0, ,-38.6,310.7,949.5,-0.5,-0.5,-1.7,25,-38.3627,311.198,950.754,-0.53299,-0.549238,-1.71416,
2026_07_06_20_15_42.666,3.859,59.6,0,0.782,0,0,0,0, ,0,0,0,0,0, ,-38,311,950.5,-0.5,-0.6,-1.7,25,-38.3588,311.177,950.708,-0.53098,-0.549284,-1.7133,
2026_07_06_20_15_42.685,3.859,59.6,0,0.781,0,0,0,0, ,0,0,0,0,0, ,-38.4,311.5,951.7,-0.5,-0.5,-1.7,25,-38.3492,311.181,950.732,-0.529092,-0.549328,-1.71249,
2026_07_06_20_15_42.706,3.859,59.5,0,0.781,0,0,0,0, ,0,0,0,0,0, ,-39.9,312.1,951.5,-0.5,-0.6,-1.7,25,-38.398,311.219,950.785,-0.527319,-0.549369,-1.71173,
2026_07_06_20_15_42.725,3.859,59.6,0,0.78,0,0,0,0, ,0,0,0,0,0, ,-40.2,309.9,951.5,-0.5,-0.6,-1.7,25,-38.4986,311.205,950.828,-0.525654,-0.552454,-1.71101,
2026_07_06_20_15_42.745,3.859,59.6,0,0.781,0,0,0,0, ,0,0,0,0,0, ,-38.3,312.2,950.4,-0.5,-0.5,-1.7,25,-38.5444,311.196,950.836,-0.524091,-0.552304,-1.71034,
2026_07_06_20_15_42.765,3.859,59.6,0,0.781,0,0,0,0, ,0,0,0,0,0, ,-37.9,312,951,-0.5,-0.6,-1.8,25,-38.5173,311.251,950.827,-0.522623,-0.552164,-1.71276,
2026_07_06_20_15_42.784,3.859,59.5,0,0.781,0,0,0,0, ,0,0,0,0,0, ,-36.8,311.8,951.6,-0.6,-0.5,-1.7,25,-38.4462,311.291,950.856,-0.524291,-0.552032,-1.71503,
2026_07_06_20_15_42.804,3.859,59.5,0,0.781,0,0,0,0, ,0,0,0,0,0, ,-38.6,312.2,950.5,-0.5,-0.5,-1.7,25,-38.4007,311.334,950.868,-0.525858,-0.548861,-1.71411,
2026_07_06_20_15_42.824,3.859,59.6,0,0.779,0,0,0,0, ,0,0,0,0,0, ,-38.8,312.3,951,-0.5,-0.6,-1.7,25,-38.419,311.39,950.861,-0.524282,-0.548931,-1.71325,
2026_07_06_20_15_42.848,3.859,59.5,0,0.781,0,0,0,0, ,0,0,0,0,0, ,-37.1,312.1,950.3,-0.5,-0.6,-1.8,25,-38.3904,311.439,950.848,-0.522802,-0.552043,-1.71549,
2026_07_06_20_15_42.863,3.859,59.4,0,0.78,0,0,0,0, ,0,0,0,0,0, ,-38.2,312.2,950.9,-0.6,-0.6,-1.7,25,-38.3453,311.482,950.833,-0.52446,-0.554965,-1.71759,
2026_07_06_20_15_42.883,3.859,59.4,0,0.779,0,0,0,0, ,0,0,0,0,0, ,-38.4,310.4,950.9,-0.5,-0.5,-1.7,25,-38.3425,311.471,950.837,-0.526016,-0.554663,-1.71652,
2026_07_06_20_15_42.903,3.859,59.5,0,0.781,0,0,0,0, ,0,0,0,0,0, ,-39.1,311.4,949.5,-0.5,-0.5,-1.8,25,-38.3673,311.436,950.798,-0.524431,-0.551332,-1.71856,
2026_07_06_20_15_42.923,3.859,59.5,0,0.781,0,0,0,0, ,0,0,0,0,0, ,-37.9,312.6,950.6,-0.6,-0.5,-1.7,25,-38.3754,311.471,950.752,-0.525989,-0.548204,-1.72048,
2026_07_06_20_15_42.943,3.859,59.4,0,0.782,0,0,0,0, ,0,0,0,0,0, ,-39.1,311.5,950.9,-0.5,-0.6,-1.7,25,-38.383,311.506,950.752,-0.527452,-0.548313,-1.71923,
2026_07_06_20_15_42.963,3.859,59.4,0,0.781,0,0,0,0, ,0,0,0,0,0, ,-38.9,311.8,950.9,-0.6,-0.6,-1.7,25,-38.4206,311.515,950.761,-0.528826,-0.551463,-1.71806,
2026_07_06_20_15_42.988,3.859,59.4,0,0.781,0,0,0,0, ,0,0,0,0,0, ,-38.4,310.3,949.3,-0.5,-0.5,-1.8,25,-38.4346,311.487,950.721,-0.530116,-0.551374,-1.72,
2026_07_06_20_15_43.002,3.859,59.4,0,0.779,0,0,0,0, ,0,0,0,0,0, ,-39.4,311.8,950.8,-0.5,-0.5,-1.7,25,-38.463,311.46,950.68,-0.528281,-0.548243,-1.72183,
2026_07_06_20_15_43.022,3.859,59.5,0,0.781,0,0,0,0, ,0,0,0,0,0, ,-38,311.7,951.1,-0.5,-0.5,-1.8,25,-38.4774,311.478,950.697,-0.526558,-0.545303,-1.72355,
2026_07_06_20_15_43.041,3.859,59.4,0,0.781,0,0,0,0, ,0,0,0,0,0, ,-38.5,311,950.9,-0.5,-0.6,-1.7,25,-38.4635,311.47,950.715,-0.524939,-0.545589,-1.72516,
2026_07_06_20_15_43.062,3.859,59.4,0,0.782,0,0,0,0, ,0,0,0,0,0, ,-38.3,311.2,950.9,-0.5,-0.6,-1.7,25,-38.4597,311.447,950.726,-0.52342,-0.548905,-1.72363,
2026_07_06_20_15_43.083,3.859,59.3,0,0.781,0,0,0,0, ,0,0,0,0,0, ,-39,311.8,950.1,-0.5,-0.5,-1.8,25,-38.4713,311.45,950.713,-0.521993,-0.548972,-1.72523,
2026_07_06_20_15_43.100,3.859,59.4,0,0.782,0,0,0,0, ,0,0,0,0,0, ,-38.5,312,950.4,-0.5,-0.6,-1.8,25,-38.4883,311.478,950.684,-0.520652,-0.549034,-1.72979,
2026_07_06_20_15_43.120,3.859,59.4,0,0.782,0,0,0,0, ,0,0,0,0,0, ,-38.9,311.7,951,-0.6,-0.6,-1.7,25,-38.5012,311.501,950.685,-0.522441,-0.55214,-1.73102,
2026_07_06_20_15_43.142,3.859,59.4,0,0.779,0,0,0,0, ,0,0,0,0,0, ,-37.9,311,951.6,-0.6,-0.5,-1.7,25,-38.495,311.491,950.723,-0.527167,-0.55201,-1.72913,
2026_07_06_20_15_43.160,3.859,59.3,0,0.781,0,0,0,0, ,0,0,0,0,0, ,-38.4,312.3,950.8,-0.6,-0.5,-1.8,25,-38.474,311.501,950.752,-0.531605,-0.54884,-1.7304,
2026_07_06_20_15_43.180,3.859,59.4,0,0.779,0,0,0,0, ,0,0,0,0,0, ,-38.8,312.8,950.9,-0.5,-0.5,-1.7,25,-38.4816,311.565,950.758,-0.532726,-0.545864,-1.7316,
2026_07_06_20_15_43.200,3.859,59.3,0,0.781,0,0,0,0, ,0,0,0,0,0, ,-38.4,311.5,951.9,-0.5,-0.5,-1.6,25,-38.4889,311.601,950.797,-0.530732,-0.543069,-1.72662,
2026_07_06_20_15_43.220,3.859,59.2,0,0.781,0,0,0,0, ,0,0,0,0,0, ,-39,313.4,949.7,-0.6,-0.5,-1.7,25,-38.5017,311.652,950.797,-0.531906,-0.540445,-1.72196,
2026_07_06_20_15_43.239,3.859,59.4,0,0.779,0,0,0,0, ,0,0,0,0,0, ,-38.8,312.5,951.1,-0.6,-0.6,-1.7,25,-38.526,311.731,950.773,-0.536056,-0.541027,-1.72062,
2026_07_06_20_15_43.259,3.859,59.2,0,0.779,0,0,0,0, ,0,0,0,0,0, ,-37.1,311.5,951.5,-0.5,-0.6,-1.7,25,-38.4909,311.748,950.805,-0.536905,-0.544621,-1.71936,
2026_07_06_20_15_43.279,3.859,59.3,0,0.78,0,0,0,0, ,0,0,0,0,0, ,-38.8,311,950.1,-0.6,-0.6,-1.7,25,-38.4579,311.717,950.805,-0.537703,-0.547995,-1.71818,
2026_07_06_20_15_43.299,3.859,59.3,0,0.78,0,0,0,0, ,0,0,0,0,0, ,-39.5,313.1,949.8,-0.4,-0.6,-1.7,25,-38.5001,311.738,950.753,-0.535406,-0.551164,-1.71707,
2026_07_06_20_15_43.319,3.859,59.3,0,0.781,0,0,0,0, ,0,0,0,0,0, ,-37.2,312,949,-0.5,-0.5,-1.7,25,-38.491,311.787,950.67,-0.530201,-0.551094,-1.71603,
2026_07_06_20_15_43.339,3.859,59.2,0,0.781,0,0,0,0, ,0,0,0,0,0, ,-37.1,311.4,951.2,-0.5,-0.6,-1.7,25,-38.4092,311.782,950.635,-0.528361,-0.551027,-1.71506,
2026_07_06_20_15_43.358,3.859,59.3,0,0.782,0,0,0,0, ,0,0,0,0,0, ,-39,311.5,951.7,-0.6,-0.6,-1.7,25,-38.3874,311.762,950.685,-0.52968,-0.554011,-1.71414,
2026_07_06_20_15_43.378,3.859,59.3,0,0.778,0,0,0,0, ,0,0,0,0,0, ,-39.5,311.6,951.1,-0.5,-0.6,-1.7,25,-38.4399,311.749,950.729,-0.530918,-0.556814,-1.71328,
2026_07_06_20_15_43.398,3.859,59.2,0,0.778,0,0,0,0, ,0,0,0,0,0, ,-39.4,311.5,950.6,-0.5,-0.6,-1.8,25,-38.5015,311.737,950.736,-0.529034,-0.559445,-1.71551,
2026_07_06_20_15_43.417,3.859,59.2,0,0.779,0,0,0,0, ,0,0,0,0,0, ,-38.3,311.8,951.2,-0.5,-0.6,-1.7,25,-38.5227,311.731,950.746,-0.527265,-0.561917,-1.71762,
2026_07_06_20_15_43.437,3.859,59.2,0,0.781,0,0,0,0, ,0,0,0,0,0, ,-39,311.6,949.8,-0.5,-0.6,-1.7,25,-38.5305,311.729,950.731,-0.525603,-0.564237,-1.71654,
2026_07_06_20_15_43.457,3.859,59.2,0,0.778,0,0,0,0, ,0,0,0,0,0, ,-39,311.4,952.5,-0.6,-0.5,-1.7,25,-38.5591,311.716,950.757,-0.52709,-0.56337,-1.71553,
2026_07_06_20_15_43.477,3.859,59.2,0,0.781,0,0,0,0, ,0,0,0,0,0, ,-39.4,310.4,951.5,-0.5,-0.5,-1.7,25,-38.5981,311.666,950.832,-0.528486,-0.559508,-1.71459,
2026_07_06_20_15_43.496,3.859,59.2,0,0.78,0,0,0,0, ,0,0,0,0,0, ,-38.9,312.1,949.9,-0.5,-0.5,-1.8,25,-38.6318,311.64,950.824,-0.52675,-0.555882,-1.71675,
2026_07_06_20_15_43.517,3.859,59.2,0,0.778,0,0,0,0, ,0,0,0,0,0, ,-39.1,311.6,951.4,-0.5,-0.6,-1.7,25,-38.6542,311.653,950.814,-0.52512,-0.555523,-1.71877,
2026_07_06_20_15_43.536,3.859,59,0,0.781,0,0,0,0, ,0,0,0,0,0, ,-38.4,311.5,949.7,-0.6,-0.5,-1.7,25,-38.66,311.647,950.798,-0.526636,-0.555187,-1.71763,
2026_07_06_20_15_43.556,3.859,59,0,0.781,0,0,0,0, ,0,0,0,0,0, ,-37.4,311.5,949.8,-0.5,-0.5,-1.8,25,-38.6137,311.638,950.734,-0.52806,-0.551824,-1.7196,
2026_07_06_20_15_43.576,3.859,59,0,0.781,0,0,0,0, ,0,0,0,0,0, ,-38.4,312.5,949.9,-0.5,-0.6,-1.7,25,-38.5702,311.66,950.68,-0.52635,-0.551713,-1.72145,
2026_07_06_20_15_43.596,3.859,59.2,0,0.779,0,0,0,0, ,0,0,0,0,0, ,-38.5,312.5,950.3,-0.5,-0.5,-1.8,25,-38.5629,311.711,950.645,-0.524744,-0.551608,-1.72319,
2026_07_06_20_15_43.615,3.859,58.9,0,0.781,0,0,0,0, ,0,0,0,0,0, ,-37.5,310.6,950.9,-0.6,-0.5,-1.7,25,-38.5286,311.701,950.642,-0.526283,-0.548463,-1.72483,
2026_07_06_20_15_43.635,3.859,59,0,0.778,0,0,0,0, ,0,0,0,0,0, ,-37.7,310.1,949.9,-0.5,-0.6,-1.7,25,-38.472,311.619,950.627,-0.527728,-0.548557,-1.72331,
2026_07_06_20_15_43.655,3.859,59,0,0.781,0,0,0,0, ,0,0,0,0,0, ,-38.2,310.3,951.2,-0.6,-0.6,-1.7,25,-38.4402,311.533,950.622,-0.529086,-0.551692,-1.72189,
2026_07_06_20_15_43.675,3.859,58.9,0,0.781,0,0,0,0, ,0,0,0,0,0, ,-39,310.6,950.9,-0.5,-0.5,-1.8,25,-38.4499,311.467,950.648,-0.53036,-0.551589,-1.72361,
2026_07_06_20_15_43.695,3.859,59,0,0.781,0,0,0,0, ,0,0,0,0,0, ,-38.6,311.6,950,-0.6,-0.5,-1.7,25,-38.4713,311.444,950.636,-0.531557,-0.548445,-1.72521,
2026_07_06_20_15_43.714,3.859,59,0,0.779,0,0,0,0, ,0,0,0,0,0, ,-38.3,312.2,952.5,-0.6,-0.6,-1.7,25,-38.47,311.472,950.674,-0.535728,-0.54854,-1.72368,
2026_07_06_20_15_43.734,3.859,59,0,0.781,0,0,0,0, ,0,0,0,0,0, ,-39.1,311.4,950.4,-0.6,-0.5,-1.7,25,-38.484,311.492,950.721,-0.539644,-0.548629,-1.72223,
2026_07_06_20_15_43.758,3.859,58.8,0,0.78,0,0,0,0, ,0,0,0,0,0, ,-38.9,311.5,948.9,-0.5,-0.5,-1.8,25,-38.5154,311.489,950.656,-0.540275,-0.545666,-1.72393,
2026_07_06_20_15_43.774,3.859,58.9,0,0.778,0,0,0,0, ,0,0,0,0,0, ,-38.4,311.8,950.8,-0.5,-0.5,-1.7,25,-38.5236,311.499,950.607,-0.537821,-0.542883,-1.72552,
2026_07_06_20_15_43.794,3.859,58.9,0,0.781,0,0,0,0, ,0,0,0,0,0, ,-37.8,311.8,950.6,-0.5,-0.6,-1.8,25,-38.4978,311.518,950.612,-0.535516,-0.543317,-1.72701,
2026_07_06_20_15_43.813,3.859,58.9,0,0.781,0,0,0,0, ,0,0,0,0,0, ,-38.6,311.5,952.2,-0.6,-0.6,-1.7,25,-38.4797,311.526,950.66,-0.536399,-0.546771,-1.72841,
2026_07_06_20_15_43.833,3.859,58.8,0,0.781,0,0,0,0, ,0,0,0,0,0, ,-38.4,311.2,951.2,-0.6,-0.6,-1.8,25,-38.4809,311.515,950.724,-0.540275,-0.550014,-1.72972,
2026_07_06_20_15_43.853,3.859,58.9,0,0.779,0,0,0,0, ,0,0,0,0,0, ,-38.9,311.7,950.9,-0.5,-0.5,-1.7,25,-38.4912,311.511,950.744,-0.540867,-0.550013,-1.73096,
2026_07_06_20_15_43.873,3.859,58.8,0,0.781,0,0,0,0, ,0,0,0,0,0, ,-38.9,311.7,948.7,-0.5,-0.6,-1.7,25,-38.5161,311.523,950.686,-0.538377,-0.550013,-1.72907,
2026_07_06_20_15_43.892,3.859,58.9,0,0.779,0,0,0,0, ,0,0,0,0,0, ,-38.6,313.2,950.1,-0.5,-0.6,-1.7,25,-38.5304,311.579,950.608,-0.536038,-0.553059,-1.7273,
2026_07_06_20_15_43.913,3.859,58.8,0,0.781,0,0,0,0, ,0,0,0,0,0, ,-38.4,312.2,950.9,-0.6,-0.5,-1.7,25,-38.5285,311.647,950.601,-0.536889,-0.552872,-1.72564,
2026_07_06_20_15_43.936,3.859,58.9,0,0.78,0,0,0,0, ,0,0,0,0,0, ,-38.3,310.7,950.5,-0.6,-0.5,-1.7,25,-38.5177,311.635,950.607,-0.540735,-0.54965,-1.72408,
2026_07_06_20_15_43.952,3.859,58.8,0,0.779,0,0,0,0, ,0,0,0,0,0, ,-37.5,311.7,949.3,-0.5,-0.6,-1.7,25,-38.48,311.609,950.564,-0.5413,-0.549672,-1.72261,
2026_07_06_20_15_43.972,3.859,58.8,0,0.779,0,0,0,0, ,0,0,0,0,0, ,-39.7,311.7,950,-0.5,-0.6,-1.7,25,-38.4873,311.614,950.508,-0.538783,-0.552739,-1.72123,
2026_07_06_20_15_43.992,3.859,58.8,0,0.781,0,0,0,0, ,0,0,0,0,0, ,-39,312.3,950,-0.5,-0.6,-1.7,25,-38.5399,311.638,950.477,-0.53642,-0.555619,-1.71994,
2026_07_06_20_15_44.012,3.859,58.7,0,0.779,0,0,0,0, ,0,0,0,0,0, ,-38.6,310.9,952.2,-0.5,-0.5,-1.7,25,-38.5557,311.636,950.515,-0.5342,-0.555276,-1.71872,
2026_07_06_20_15_44.031,3.859,58.7,0,0.779,0,0,0,0, ,0,0,0,0,0, ,-38.6,311,951,-0.6,-0.5,-1.7,25,-38.5584,311.594,950.581,-0.535163,-0.551908,-1.71758,
2026_07_06_20_15_44.051,3.859,58.8,0,0.779,0,0,0,0, ,0,0,0,0,0, ,-38.9,311,951.4,-0.5,-0.5,-1.6,25,-38.5701,311.558,950.619,-0.536067,-0.548745,-1.71346,
2026_07_06_20_15_44.070,3.859,58.8,0,0.781,0,0,0,0, ,0,0,0,0,0, ,-38.6,312.6,950.4,-0.5,-0.5,-1.7,25,-38.5811,311.572,950.636,-0.533869,-0.545774,-1.7096,
2026_07_06_20_15_44.090,3.859,58.7,0,0.78,0,0,0,0, ,0,0,0,0,0, ,-39.1,311.1,950.4,-0.5,-0.5,-1.8,25,-38.5975,311.589,950.622,-0.531805,-0.542985,-1.71206,
2026_07_06_20_15_44.110,3.859,58.7,0,0.78,0,0,0,0, ,0,0,0,0,0, ,-38.4,312.9,950.9,-0.6,-0.6,-1.7,25,-38.6068,311.614,950.624,-0.532914,-0.543412,-1.71437,
2026_07_06_20_15_44.130,3.859,58.7,0,0.778,0,0,0,0, ,0,0,0,0,0, ,-38.9,311,951.5,-0.6,-0.5,-1.7,25,-38.6094,311.635,950.659,-0.537002,-0.543814,-1.71349,
2026_07_06_20_15_44.149,3.859,58.8,0,0.779,0,0,0,0, ,0,0,0,0,0, ,-38.8,312,950.5,-0.5,-0.6,-1.7,25,-38.6241,311.627,950.68,-0.537794,-0.544191,-1.71267,
2026_07_06_20_15_44.169,3.859,58.7,0,0.781,0,0,0,0, ,0,0,0,0,0, ,-37.8,311.4,951.6,-0.5,-0.5,-1.7,25,-38.6043,311.631,950.702,-0.535491,-0.544545,-1.7119,
2026_07_06_20_15_44.189,3.859,58.7,0,0.779,0,0,0,0, ,0,0,0,0,0, ,-39.3,312,950.1,-0.5,-0.5,-1.8,25,-38.601,311.635,950.711,-0.533328,-0.54183,-1.71422,
2026_07_06_20_15_44.212,3.859,58.6,0,0.779,0,0,0,0, ,0,0,0,0,0, ,-37.4,311.8,951.1,-0.5,-0.5,-1.7,25,-38.5857,311.651,950.704,-0.531297,-0.539281,-1.7164,
2026_07_06_20_15_44.229,3.859,58.6,0,0.779,0,0,0,0, ,0,0,0,0,0, ,-37.4,311.5,951.4,-0.5,-0.5,-1.8,25,-38.5134,311.651,950.738,-0.52939,-0.536888,-1.71845,
2026_07_06_20_15_44.248,3.859,58.7,0,0.779,0,0,0,0, ,0,0,0,0,0, ,-38.5,311.6,950.8,-0.6,-0.6,-1.7,25,-38.4791,311.645,950.76,-0.530646,-0.537687,-1.72037,
2026_07_06_20_15_44.268,3.859,58.6,0,0.779,0,0,0,0, ,0,0,0,0,0, ,-38.3,311.2,951,-0.5,-0.5,-1.7,25,-38.4743,311.63,950.768,-0.531826,-0.538437,-1.71913,
2026_07_06_20_15_44.288,3.859,58.6,0,0.781,0,0,0,0, ,0,0,0,0,0, ,-39.4,312.7,950.9,-0.6,-0.6,-1.7,25,-38.4972,311.65,950.779,-0.532933,-0.539142,-1.71796,
2026_07_06_20_15_44.308,3.859,58.6,0,0.779,0,0,0,0, ,0,0,0,0,0, ,-39,311.2,951,-0.6,-0.6,-1.7,25,-38.54,311.668,950.79,-0.53702,-0.54285,-1.71687,
2026_07_06_20_15_44.328,3.859,58.5,0,0.779,0,0,0,0, ,0,0,0,0,0, ,-37.8,312.5,949.9,-0.5,-0.5,-1.7,25,-38.5315,311.679,950.769,-0.537811,-0.543286,-1.71584,
2026_07_06_20_15_44.347,3.859,58.6,0,0.779,0,0,0,0, ,0,0,0,0,0, ,-38.3,311.1,949.9,-0.5,-0.5,-1.8,25,-38.5021,311.686,950.716,-0.535507,-0.540648,-1.71792,
2026_07_06_20_15_44.371,3.859,58.6,0,0.779,0,0,0,0, ,0,0,0,0,0, ,-38.2,312.6,950.8,-0.5,-0.5,-1.7,25,-38.4868,311.696,950.694,-0.533343,-0.538171,-1.71988,
2026_07_06_20_15_44.387,3.859,58.6,0,0.779,0,0,0,0, ,0,0,0,0,0, ,-39.4,312,950.6,-0.5,-0.6,-1.8,25,-38.5059,311.733,950.694,-0.531311,-0.538892,-1.72171,
2026_07_06_20_15_44.406,3.859,58.6,0,0.779,0,0,0,0, ,0,0,0,0,0, ,-38.8,311.7,951.5,-0.5,-0.6,-1.7,25,-38.5421,311.74,950.716,-0.529403,-0.542616,-1.72344,
2026_07_06_20_15_44.426,3.859,58.6,0,0.779,0,0,0,0, ,0,0,0,0,0, ,-38.5,310.7,951.7,-0.6,-0.5,-1.7,25,-38.5486,311.707,950.77,-0.530658,-0.543066,-1.72201,
2026_07_06_20_15_44.447,3.859,58.5,0,0.779,0,0,0,0, ,0,0,0,0,0, ,-39.5,311.4,951,-0.6,-0.5,-1.8,25,-38.5762,311.667,950.805,-0.534884,-0.540441,-1.72371,
2026_07_06_20_15_44.466,3.859,58.5,0,0.781,0,0,0,0, ,0,0,0,0,0, ,-37.9,311.1,949.9,-0.6,-0.6,-1.8,25,-38.5837,311.642,950.783,-0.538852,-0.541024,-1.72836,
2026_07_06_20_15_44.486,3.859,58.6,0,0.78,0,0,0,0, ,0,0,0,0,0, ,-38.4,312.1,951.6,-0.5,-0.6,-1.7,25,-38.5573,311.639,950.781,-0.539531,-0.544618,-1.72968,
2026_07_06_20_15_44.506,3.859,58.5,0,0.782,0,0,0,0, ,0,0,0,0,0, ,-38.4,310.9,950.4,-0.5,-0.6,-1.8,25,-38.5477,311.631,950.795,-0.537122,-0.547993,-1.73092,
2026_07_06_20_15_44.526,3.859,58.5,0,0.78,0,0,0,0, ,0,0,0,0,0, ,-37.8,311.8,951.4,-0.6,-0.6,-1.8,25,-38.5204,311.614,950.801,-0.537907,-0.551162,-1.73513,
2026_07_06_20_15_44.545,3.859,58.5,0,0.779,0,0,0,0, ,0,0,0,0,0, ,-38.9,309.9,951.2,-0.5,-0.5,-1.7,25,-38.51,311.567,950.832,-0.538644,-0.551091,-1.73604,
2026_07_06_20_15_44.565,3.859,58.5,0,0.779,0,0,0,0, ,0,0,0,0,0, ,-38.4,311.6,951.6,-0.5,-0.5,-1.7,25,-38.5186,311.517,950.866,-0.536289,-0.547978,-1.73384,
2026_07_06_20_15_44.585,3.859,58.4,0,0.779,0,0,0,0, ,0,0,0,0,0, ,-38.3,311.6,950.9,-0.6,-0.6,-1.7,25,-38.5083,311.522,950.89,-0.537125,-0.548101,-1.73178,
2026_07_06_20_15_44.604,3.859,58.4,0,0.779,0,0,0,0, ,0,0,0,0,0, ,-36.9,311.2,951.9,-0.5,-0.6,-1.7,25,-38.4529,311.515,950.921,-0.537909,-0.551263,-1.72984,
2026_07_06_20_15_44.624,3.859,58.4,0,0.779,0,0,0,0, ,0,0,0,0,0, ,-37.5,312,952,-0.6,-0.6,-1.6,25,-38.3766,311.52,950.983,-0.538646,-0.554233,-1.72498,
2026_07_06_20_15_44.644,3.859,58.5,0,0.779,0,0,0,0, ,0,0,0,0,0, ,-37.9,311.2,949.5,-0.5,-0.6,-1.7,25,-38.3354,311.525,950.969,-0.539338,-0.557022,-1.72041,
2026_07_06_20_15_44.664,3.859,58.3,0,0.778,0,0,0,0, ,0,0,0,0,0, ,-37.4,311.4,951.2,-0.5,-0.6,-1.7,25,-38.2936,311.511,950.931,-0.536941,-0.559641,-1.71916,
2026_07_06_20_15_44.683,3.859,58.4,0,0.781,0,0,0,0, ,0,0,0,0,0, ,-39.3,311.4,951.2,-0.5,-0.5,-1.7,25,-38.297,311.505,950.948,-0.53469,-0.559054,-1.718,
2026_07_06_20_15_44.703,3.859,58.4,0,0.779,0,0,0,0, ,0,0,0,0,0, ,-38.6,312.2,950.4,-0.5,-0.6,-1.8,25,-38.3368,311.523,950.939,-0.532576,-0.558502,-1.71995,
2026_07_06_20_15_44.723,3.859,58.4,0,0.779,0,0,0,0, ,0,0,0,0,0, ,-39.3,312.6,951.7,-0.6,-0.6,-1.7,25,-38.3742,311.576,950.946,-0.533638,-0.561031,-1.72178,
2026_07_06_20_15_44.743,3.859,58.4,0,0.779,0,0,0,0, ,0,0,0,0,0, ,-39.3,312.1,952.8,-0.6,-0.6,-1.8,25,-38.4306,311.623,951.025,-0.537681,-0.563405,-1.7235,
2026_07_06_20_15_44.763,3.859,58.4,0,0.781,0,0,0,0, ,0,0,0,0,0, ,-38.9,310.9,950.8,-0.5,-0.5,-1.8,25,-38.4714,311.616,951.072,-0.538432,-0.562589,-1.72816,
2026_07_06_20_15_44.783,3.859,58.3,0,0.779,0,0,0,0, ,0,0,0,0,0, ,-38.2,310.1,950.4,-0.5,-0.6,-1.7,25,-38.4762,311.548,951.044,-0.53609,-0.561821,-1.72949,
2026_07_06_20_15_44.803,3.859,58.4,0,0.778,0,0,0,0, ,0,0,0,0,0, ,-38,311.8,951.5,-0.5,-0.5,-1.7,25,-38.4533,311.511,951.038,-0.533891,-0.561101,-1.72769,
2026_07_06_20_15_44.823,3.859,58.3,0,0.779,0,0,0,0, ,0,0,0,0,0, ,-39,311.7,951.4,-0.6,-0.5,-1.8,25,-38.4561,311.526,951.063,-0.534873,-0.557378,-1.72905,
2026_07_06_20_15_44.842,3.859,58.4,0,0.778,0,0,0,0, ,0,0,0,0,0, ,-39.1,312.1,951,-0.5,-0.7,-1.7,25,-38.4923,311.549,951.071,-0.535794,-0.559975,-1.73033,
2026_07_06_20_15_44.862,3.859,58.3,0,0.779,0,0,0,0, ,0,0,0,0,0, ,-38.5,311.2,951,-0.5,-0.6,-1.7,25,-38.511,311.555,951.067,-0.533613,-0.565461,-1.72848,
2026_07_06_20_15_44.882,3.859,58.3,0,0.778,0,0,0,0, ,0,0,0,0,0, ,-38.3,311.4,952,-0.6,-0.6,-1.8,25,-38.5043,311.539,951.093,-0.534612,-0.567566,-1.72979,
2026_07_06_20_15_44.902,3.859,58.3,0,0.781,0,0,0,0, ,0,0,0,0,0, ,-37.5,312.1,950.8,-0.5,-0.5,-1.7,25,-38.4675,311.552,951.112,-0.535549,-0.566495,-1.73102,
2026_07_06_20_15_44.921,3.859,58.3,0,0.779,0,0,0,0, ,0,0,0,0,0, ,-38.9,310.9,950.9,-0.5,-0.5,-1.7,25,-38.4512,311.549,951.096,-0.533383,-0.562443,-1.72913,
2026_07_06_20_15_44.941,3.859,58.3,0,0.779,0,0,0,0, ,0,0,0,0,0, ,-37.1,310.6,950,-0.6,-0.6,-1.8,25,-38.4237,311.5,951.057,-0.534396,-0.561685,-1.7304,
2026_07_06_20_15_44.961,3.859,58.3,0,0.779,0,0,0,0, ,0,0,0,0,0, ,-38.4,311.6,950.6,-0.5,-0.5,-1.8,25,-38.3826,311.476,951.011,-0.535347,-0.560973,-1.73465,
2026_07_06_20_15_44.981,3.859,58.2,0,0.779,0,0,0,0, ,0,0,0,0,0, ,-39.9,312.2,950.5,-0.5,-0.6,-1.7,25,-38.4294,311.502,950.983,-0.533193,-0.560304,-1.73558,
2026_07_06_20_15_45.001,3.859,58.3,0,0.778,0,0,0,0, ,0,0,0,0,0, ,-38.8,311,951.1,-0.5,-0.5,-1.7,25,-38.4855,311.508,950.971,-0.53117,-0.559676,-1.73341,
2026_07_06_20_15_45.020,3.859,58.3,0,0.779,0,0,0,0, ,0,0,0,0,0, ,-38.6,311.1,951.6,-0.5,-0.5,-1.7,25,-38.4986,311.48,950.994,-0.529271,-0.55604,-1.73138,
2026_07_06_20_15_45.046,3.859,58.3,0,0.779,0,0,0,0, ,0,0,0,0,0, ,-39.6,311,951.1,-0.5,-0.5,-1.8,25,-38.5352,311.454,951.016,-0.527487,-0.552625,-1.73251,
2026_07_06_20_15_45.059,3.859,58.2,0,0.78,0,0,0,0, ,0,0,0,0,0, ,-38.9,312.3,950.6,-0.5,-0.6,-1.7,25,-38.5788,311.466,951.006,-0.525812,-0.552465,-1.73358,
2026_07_06_20_15_45.079,3.859,58.2,0,0.779,0,0,0,0, ,0,0,0,0,0, ,-37.5,312,951.4,-0.6,-0.5,-1.8,25,-38.5557,311.507,951.006,-0.527286,-0.552315,-1.73458,
2026_07_06_20_15_45.099,3.859,58.2,0,0.778,0,0,0,0, ,0,0,0,0,0, ,-38.3,311.2,951,-0.5,-0.5,-1.7,25,-38.5157,311.513,951.017,-0.52867,-0.549127,-1.73552,
2026_07_06_20_15_45.119,3.859,58.2,0,0.778,0,0,0,0, ,0,0,0,0,0, ,-38,310.9,950,-0.6,-0.5,-1.8,25,-38.4934,311.485,950.986,-0.52997,-0.546133,-1.7364,
2026_07_06_20_15_45.138,3.859,58.2,0,0.781,0,0,0,0, ,0,0,0,0,0, ,-37.1,310,950.9,-0.5,-0.5,-1.8,25,-38.4359,311.422,950.953,-0.53119,-0.543322,-1.74028,
2026_07_06_20_15_45.159,3.859,58.2,0,0.778,0,0,0,0, ,0,0,0,0,0, ,-38.9,311.4,950.8,-0.5,-0.6,-1.7,25,-38.4094,311.378,950.947,-0.52929,-0.543729,-1.74087,
2026_07_06_20_15_45.178,3.859,58.1,0,0.781,0,0,0,0, ,0,0,0,0,0, ,-38.6,311.5,951.4,-0.5,-0.5,-1.7,25,-38.4301,311.382,950.956,-0.527505,-0.544111,-1.73838,
2026_07_06_20_15_45.198,3.859,58.2,0,0.779,0,0,0,0, ,0,0,0,0,0, ,-37.7,311.5,951.9,-0.6,-0.6,-1.7,25,-38.4131,311.389,950.999,-0.528876,-0.54447,-1.73604,
2026_07_06_20_15_45.218,3.859,58.2,0,0.778,0,0,0,0, ,0,0,0,0,0, ,-38.9,312,951.1,-0.6,-0.6,-1.8,25,-38.4062,311.411,951.029,-0.53321,-0.547854,-1.73689,
2026_07_06_20_15_45.238,3.859,58.1,0,0.778,0,0,0,0, ,0,0,0,0,0, ,-38.5,311.8,952,-0.5,-0.5,-1.7,25,-38.4241,311.441,951.061,-0.534233,-0.547985,-1.73769,
2026_07_06_20_15_45.258,3.859,58.1,0,0.778,0,0,0,0, ,0,0,0,0,0, ,-39,311,950.5,-0.5,-0.6,-1.7,25,-38.4439,311.439,951.072,-0.532147,-0.548107,-1.73539,
2026_07_06_20_15_45.276,3.859,58.1,0,0.779,0,0,0,0, ,0,0,0,0,0, ,-37.7,311.6,950.8,-0.5,-0.5,-1.7,25,-38.4382,311.43,951.047,-0.530188,-0.548223,-1.73324,
2026_07_06_20_15_45.298,3.859,58.2,0,0.779,0,0,0,0, ,0,0,0,0,0, ,-37.8,311.8,952.2,-0.5,-0.5,-1.7,25,-38.3963,311.447,951.074,-0.528348,-0.545284,-1.73121,
2026_07_06_20_15_45.317,3.859,58.1,0,0.779,0,0,0,0, ,0,0,0,0,0, ,-39.5,311.8,951.2,-0.5,-0.5,-1.7,25,-38.4117,311.468,951.112,-0.526621,-0.542525,-1.72931,
2026_07_06_20_15_45.337,3.859,58.1,0,0.778,0,0,0,0, ,0,0,0,0,0, ,-38,311,950.5,-0.5,-0.5,-1.7,25,-38.4324,311.464,951.096,-0.524999,-0.539933,-1.72752,
2026_07_06_20_15_45.357,3.859,58.1,0,0.779,0,0,0,0, ,0,0,0,0,0, ,-38.4,310.4,950.4,-0.5,-0.6,-1.8,25,-38.4182,311.417,951.057,-0.523475,-0.540547,-1.72889,
2026_07_06_20_15_45.376,3.859,58.1,0,0.779,0,0,0,0, ,0,0,0,0,0, ,-38.4,311,950.5,-0.5,-0.5,-1.7,25,-38.4171,311.374,951.02,-0.522045,-0.541123,-1.73018,
2026_07_06_20_15_45.396,3.859,58.1,0,0.779,0,0,0,0, ,0,0,0,0,0, ,-39.4,310.9,952.2,-0.5,-0.5,-1.7,25,-38.4465,311.348,951.04,-0.520701,-0.538617,-1.72834,
2026_07_06_20_15_45.416,3.859,58.1,0,0.779,0,0,0,0, ,0,0,0,0,0, ,-40.2,310.9,951.2,-0.5,-0.6,-1.7,25,-38.529,311.321,951.08,-0.51944,-0.539311,-1.72661,
2026_07_06_20_15_45.435,3.859,58.1,0,0.779,0,0,0,0, ,0,0,0,0,0, ,-38,311.8,950.1,-0.6,-0.6,-1.8,25,-38.5638,311.322,951.054,-0.521302,-0.543009,-1.72804,
2026_07_06_20_15_45.456,3.859,58,0,0.779,0,0,0,0, ,0,0,0,0,0, ,-37.7,310.3,950.8,-0.5,-0.5,-1.8,25,-38.5203,311.306,951.017,-0.523051,-0.543435,-1.73242,
2026_07_06_20_15_45.475,3.859,58,0,0.778,0,0,0,0, ,0,0,0,0,0, ,-39.6,312.2,949.7,-0.5,-0.5,-1.8,25,-38.5282,311.302,950.971,-0.521646,-0.540788,-1.73654,
2026_07_06_20_15_45.495,3.859,58,0,0.779,0,0,0,0, ,0,0,0,0,0, ,-38.9,311,951,-0.6,-0.5,-1.8,25,-38.5722,311.32,950.933,-0.523374,-0.538302,-1.74041,
2026_07_06_20_15_45.515,3.859,58.1,0,0.778,0,0,0,0, ,0,0,0,0,0, ,-38.3,311.6,950.9,-0.6,-0.6,-1.7,25,-38.5739,311.319,950.934,-0.528044,-0.539015,-1.74099,
2026_07_06_20_15_45.534,3.859,58,0,0.778,0,0,0,0, ,0,0,0,0,0, ,-38.6,312,950.6,-0.5,-0.5,-1.7,25,-38.5663,311.349,950.923,-0.529381,-0.539685,-1.73849,
2026_07_06_20_15_45.560,3.859,57.9,0,0.781,0,0,0,0, ,0,0,0,0,0, ,-39.1,312.5,951,-0.5,-0.5,-1.7,25,-38.5836,311.403,950.915,-0.527591,-0.537266,-1.73615,
2026_07_06_20_15_45.574,3.859,58,0,0.78,0,0,0,0, ,0,0,0,0,0, ,-38.6,311.2,950.6,-0.5,-0.6,-1.8,25,-38.5998,311.431,950.908,-0.52591,-0.538042,-1.73699,
2026_07_06_20_15_45.594,3.859,57.9,0,0.778,0,0,0,0, ,0,0,0,0,0, ,-36.7,310.7,951.5,-0.6,-0.5,-1.7,25,-38.542,311.401,950.917,-0.527378,-0.538771,-1.73779,
2026_07_06_20_15_45.614,3.859,57.9,0,0.778,0,0,0,0, ,0,0,0,0,0, ,-38.4,310.9,952.5,-0.6,-0.6,-1.7,25,-38.4815,311.365,950.983,-0.531803,-0.539455,-1.73548,
2026_07_06_20_15_45.634,3.859,57.9,0,0.779,0,0,0,0, ,0,0,0,0,0, ,-39.4,311.8,951.4,-0.5,-0.5,-1.7,25,-38.507,311.364,951.042,-0.532912,-0.540098,-1.73332,
2026_07_06_20_15_45.652,3.859,57.9,0,0.778,0,0,0,0, ,0,0,0,0,0, ,-37.7,310.3,951,-0.6,-0.6,-1.7,25,-38.5096,311.345,951.051,-0.533953,-0.540701,-1.73129,
2026_07_06_20_15_45.673,3.859,57.9,0,0.778,0,0,0,0, ,0,0,0,0,0, ,-39.1,312.3,951,-0.5,-0.5,-1.7,25,-38.503,311.342,951.048,-0.534931,-0.541268,-1.72938,
2026_07_06_20_15_45.692,3.859,58,0,0.779,0,0,0,0, ,0,0,0,0,0, ,-38.9,311,950.8,-0.6,-0.5,-1.7,25,-38.5332,311.361,951.039,-0.535849,-0.538753,-1.72759,
2026_07_06_20_15_45.712,3.859,57.9,0,0.782,0,0,0,0, ,0,0,0,0,0, ,-38.5,311.8,950.9,-0.5,-0.6,-1.7,25,-38.5434,311.363,951.028,-0.536712,-0.539438,-1.72591,
2026_07_06_20_15_45.733,3.859,57.9,0,0.779,0,0,0,0, ,0,0,0,0,0, ,-38.9,311.8,951.6,-0.5,-0.5,-1.7,25,-38.5529,311.39,951.041,-0.534475,-0.540082,-1.72433,
2026_07_06_20_15_45.757,3.859,57.9,0,0.781,0,0,0,0, ,0,0,0,0,0, ,-37.9,310.5,953,-0.5,-0.6,-1.7,25,-38.5436,311.375,951.118,-0.532374,-0.540686,-1.72285,
2026_07_06_20_15_45.772,3.859,57.9,0,0.778,0,0,0,0, ,0,0,0,0,0, ,-38.2,311,951.1,-0.5,-0.5,-1.7,25,-38.5135,311.337,951.175,-0.530401,-0.541254,-1.72146,
2026_07_06_20_15_45.792,3.859,57.9,0,0.778,0,0,0,0, ,0,0,0,0,0, ,-39,310.5,952,-0.5,-0.5,-1.8,25,-38.5188,311.301,951.198,-0.528548,-0.53874,-1.7232,
2026_07_06_20_15_45.812,3.859,57.9,0,0.778,0,0,0,0, ,0,0,0,0,0, ,-38.2,313.7,952.2,-0.5,-0.5,-1.6,25,-38.5238,311.35,951.253,-0.526809,-0.536379,-1.72178,
2026_07_06_20_15_45.831,3.859,57.8,0,0.778,0,0,0,0, ,0,0,0,0,0, ,-38.6,310.6,950.4,-0.5,-0.5,-1.7,25,-38.5162,311.399,951.255,-0.525175,-0.534163,-1.71741,
2026_07_06_20_15_45.852,3.859,57.8,0,0.779,0,0,0,0, ,0,0,0,0,0, ,-37.7,311.6,950.4,-0.5,-0.6,-1.8,25,-38.4939,311.381,951.203,-0.523641,-0.535128,-1.71939,
2026_07_06_20_15_45.871,3.859,57.8,0,0.781,0,0,0,0, ,0,0,0,0,0, ,-38,312.1,950.6,-0.5,-0.5,-1.8,25,-38.4547,311.409,951.16,-0.5222,-0.536034,-1.72431,
2026_07_06_20_15_45.891,3.859,57.7,0,0.779,0,0,0,0, ,0,0,0,0,0, ,-38.2,310.4,950.5,-0.5,-0.6,-1.8,25,-38.4331,311.399,951.123,-0.520848,-0.536885,-1.72892,
2026_07_06_20_15_45.911,3.859,57.8,0,0.778,0,0,0,0, ,0,0,0,0,0, ,-37.7,311.6,951.4,-0.5,-0.6,-1.8,25,-38.4036,311.375,951.113,-0.519577,-0.540731,-1.73325,
2026_07_06_20_15_45.936,3.859,57.8,0,0.778,0,0,0,0, ,0,0,0,0,0, ,-39,312.2,952,-0.6,-0.5,-1.7,25,-38.4004,311.407,951.149,-0.521431,-0.541296,-1.73427,
2026_07_06_20_15_45.950,3.859,57.8,0,0.777,0,0,0,0, ,0,0,0,0,0, ,-38.6,311.6,950.4,-0.5,-0.6,-1.8,25,-38.4247,311.437,951.152,-0.523172,-0.541826,-1.73523,
2026_07_06_20_15_45.970,3.859,57.8,0,0.777,0,0,0,0, ,0,0,0,0,0, ,-39.4,312.7,951.1,-0.5,-0.5,-1.7,25,-38.4598,311.481,951.127,-0.52176,-0.542324,-1.73613,
2026_07_06_20_15_45.990,3.859,57.8,0,0.777,0,0,0,0, ,0,0,0,0,0, ,-38.4,312.2,950.9,-0.5,-0.5,-1.7,25,-38.4866,311.54,951.119,-0.520434,-0.539745,-1.73393,
2026_07_06_20_15_46.008,3.859,57.7,0,0.777,0,0,0,0, ,0,0,0,0,0, ,-37.3,311.1,950.8,-0.6,-0.5,-1.8,25,-38.4478,311.546,951.103,-0.522236,-0.537323,-1.73491,
2026_07_06_20_15_46.029,3.859,57.7,0,0.779,0,0,0,0, ,0,0,0,0,0, ,-39.6,311.1,951.4,-0.5,-0.5,-1.8,25,-38.4479,311.519,951.103,-0.523928,-0.535049,-1.73887,
2026_07_06_20_15_46.049,3.859,57.7,0,0.779,0,0,0,0, ,0,0,0,0,0, ,-38.6,311.7,950.9,-0.5,-0.5,-1.8,25,-38.4877,311.512,951.106,-0.522469,-0.532913,-1.7426,
2026_07_06_20_15_46.068,3.859,57.7,0,0.779,0,0,0,0, ,0,0,0,0,0, ,-38.9,310.9,950.3,-0.5,-0.5,-1.7,25,-38.5037,311.499,951.075,-0.5211,-0.530907,-1.74305,
2026_07_06_20_15_46.088,3.859,57.7,0,0.778,0,0,0,0, ,0,0,0,0,0, ,-38.8,311.7,951.6,-0.5,-0.6,-1.7,25,-38.5248,311.487,951.067,-0.519814,-0.532071,-1.74043,
2026_07_06_20_15_46.112,3.859,57.8,0,0.779,0,0,0,0, ,0,0,0,0,0, ,-38.8,311.1,951.6,-0.5,-0.5,-1.8,25,-38.5415,311.482,951.1,-0.518607,-0.533163,-1.74101,
2026_07_06_20_15_46.129,3.859,57.7,0,0.778,0,0,0,0, ,0,0,0,0,0, ,-38.9,310.7,952.5,-0.5,-0.5,-1.8,25,-38.5603,311.446,951.158,-0.517473,-0.531143,-1.7446,
2026_07_06_20_15_46.148,3.859,57.7,0,0.778,0,0,0,0, ,0,0,0,0,0, ,-38.4,311.8,949.7,-0.5,-0.5,-1.8,25,-38.5658,311.434,951.154,-0.516408,-0.529245,-1.74798,
2026_07_06_20_15_46.168,3.859,57.6,0,0.778,0,0,0,0, ,0,0,0,0,0, ,-38.3,310.7,949.9,-0.5,-0.5,-1.7,25,-38.5526,311.423,951.072,-0.515408,-0.527463,-1.7481,
2026_07_06_20_15_46.187,3.859,57.7,0,0.78,0,0,0,0, ,0,0,0,0,0, ,-39.7,311.5,950.6,-0.5,-0.5,-1.7,25,-38.5799,311.403,951.022,-0.51447,-0.525789,-1.74517,
2026_07_06_20_15_46.207,3.859,57.6,0,0.779,0,0,0,0, ,0,0,0,0,0, ,-38.4,311.1,950.9,-0.5,-0.5,-1.7,25,-38.6085,311.397,951.005,-0.513588,-0.524218,-1.74242,
2026_07_06_20_15_46.226,3.859,57.7,0,0.781,0,0,0,0, ,0,0,0,0,0, ,-38.9,312.2,951.1,-0.5,-0.5,-1.7,25,-38.6111,311.412,951.005,-0.51276,-0.522742,-1.73983,
2026_07_06_20_15_46.247,3.859,57.6,0,0.781,0,0,0,0, ,0,0,0,0,0, ,-39.1,311.6,951.6,-0.5,-0.5,-1.7,25,-38.6348,311.442,951.026,-0.511982,-0.521356,-1.73741,
2026_07_06_20_15_46.266,3.859,57.7,0,0.778,0,0,0,0, ,0,0,0,0,0, ,-38.2,311.6,950.8,-0.5,-0.5,-1.7,25,-38.6357,311.452,951.036,-0.511252,-0.520055,-1.73513,
2026_07_06_20_15_46.290,3.859,57.6,0,0.779,0,0,0,0, ,0,0,0,0,0, ,-39.5,311.4,951.4,-0.5,-0.5,-1.7,25,-38.6488,311.455,951.04,-0.510566,-0.518833,-1.73299,
2026_07_06_20_15_46.307,3.859,57.6,0,0.777,0,0,0,0, ,0,0,0,0,0, ,-38,312.3,951.1,-0.6,-0.5,-1.8,25,-38.6549,311.479,951.053,-0.512969,-0.517685,-1.73402,
2026_07_06_20_15_46.326,3.859,57.6,0,0.781,0,0,0,0, ,0,0,0,0,0, ,-38.6,311.1,950.9,-0.6,-0.6,-1.7,25,-38.6333,311.492,951.05,-0.518273,-0.519654,-1.735,
2026_07_06_20_15_46.346,3.859,57.6,0,0.781,0,0,0,0, ,0,0,0,0,0, ,-38.3,309.8,951.4,-0.5,-0.5,-1.7,25,-38.6221,311.429,951.056,-0.520206,-0.521503,-1.73286,
2026_07_06_20_15_46.365,3.859,57.6,0,0.778,0,0,0,0, ,0,0,0,0,0, ,-37.5,311.5,950.3,-0.5,-0.6,-1.7,25,-38.5781,311.381,951.043,-0.518975,-0.52324,-1.73086,
2026_07_06_20_15_46.385,3.859,57.6,0,0.779,0,0,0,0, ,0,0,0,0,0, ,-38,311.4,952.1,-0.5,-0.6,-1.8,25,-38.5277,311.385,951.053,-0.517819,-0.527917,-1.73203,
2026_07_06_20_15_46.405,3.859,57.6,0,0.779,0,0,0,0, ,0,0,0,0,0, ,-39.1,312.2,951.5,-0.5,-0.5,-1.8,25,-38.529,311.411,951.098,-0.516733,-0.529263,-1.73617,
2026_07_06_20_15_46.425,3.859,57.6,0,0.777,0,0,0,0, ,0,0,0,0,0, ,-38,311.8,951.4,-0.6,-0.5,-1.8,25,-38.5303,311.447,951.12,-0.51876,-0.52748,-1.74006,
2026_07_06_20_15_46.445,3.859,57.5,0,0.779,0,0,0,0, ,0,0,0,0,0, ,-38.5,311.5,950.5,-0.5,-0.5,-1.7,25,-38.5132,311.459,951.109,-0.520664,-0.525805,-1.74067,
2026_07_06_20_15_46.465,3.859,57.5,0,0.778,0,0,0,0, ,0,0,0,0,0, ,-39.6,311.2,951.9,-0.5,-0.6,-1.7,25,-38.5459,311.452,951.115,-0.519404,-0.52728,-1.73819,
2026_07_06_20_15_46.485,3.859,57.6,0,0.778,0,0,0,0, ,0,0,0,0,0, ,-37.9,311.5,951.2,-0.5,-0.5,-1.7,25,-38.5584,311.446,951.142,-0.518222,-0.528664,-1.73586,
2026_07_06_20_15_46.504,3.859,57.5,0,0.779,0,0,0,0, ,0,0,0,0,0, ,-39.4,312.3,950.9,-0.5,-0.5,-1.7,25,-38.564,311.474,951.136,-0.517112,-0.526917,-1.73368,
2026_07_06_20_15_46.524,3.859,57.5,0,0.778,0,0,0,0, ,0,0,0,0,0, ,-38.5,310.9,951.5,-0.6,-0.5,-1.7,25,-38.5875,311.481,951.14,-0.519116,-0.525277,-1.73162,
2026_07_06_20_15_46.544,3.859,57.5,0,0.779,0,0,0,0, ,0,0,0,0,0, ,-38.3,311.1,951.6,-0.5,-0.6,-1.7,25,-38.5761,311.452,951.165,-0.520998,-0.526784,-1.7297,
2026_07_06_20_15_46.563,3.859,57.5,0,0.778,0,0,0,0, ,0,0,0,0,0, ,-38.3,310.7,952,-0.5,-0.5,-1.7,25,-38.5592,311.419,951.204,-0.519718,-0.528198,-1.72789,
2026_07_06_20_15_46.583,3.859,57.5,0,0.778,0,0,0,0, ,0,0,0,0,0, ,-38.5,310.7,950.1,-0.5,-0.5,-1.7,25,-38.5495,311.375,951.194,-0.518517,-0.52648,-1.72619,
2026_07_06_20_15_46.603,3.859,57.3,0,0.779,0,0,0,0, ,0,0,0,0,0, ,-38,311.2,949.7,-0.5,-0.6,-1.7,25,-38.5313,311.349,951.115,-0.517388,-0.527913,-1.72459,
2026_07_06_20_15_46.628,3.859,57.3,0,0.777,0,0,0,0, ,0,0,0,0,0, ,-38,311.6,952.8,-0.5,-0.5,-1.8,25,-38.4989,311.352,951.124,-0.516329,-0.529259,-1.72614,
2026_07_06_20_15_46.642,3.859,57.3,0,0.778,0,0,0,0, ,0,0,0,0,0, ,-39.1,311.1,950.6,-0.5,-0.6,-1.7,25,-38.502,311.352,951.159,-0.515334,-0.530523,-1.72759,
2026_07_06_20_15_46.662,3.859,57.3,0,0.778,0,0,0,0, ,0,0,0,0,0, ,-38.5,310.3,950.3,-0.5,-0.6,-1.7,25,-38.5202,311.312,951.115,-0.514399,-0.534757,-1.72591,
2026_07_06_20_15_46.682,3.859,57.5,0,0.778,0,0,0,0, ,0,0,0,0,0, ,-39.7,310.7,951.9,-0.5,-0.5,-1.7,25,-38.5555,311.263,951.115,-0.513522,-0.535686,-1.72433,
2026_07_06_20_15_46.702,3.859,57.3,0,0.777,0,0,0,0, ,0,0,0,0,0, ,-37.5,312.2,951.9,-0.6,-0.5,-1.7,25,-38.5582,311.274,951.162,-0.515745,-0.533511,-1.72285,
2026_07_06_20_15_46.722,3.859,57.2,0,0.779,0,0,0,0, ,0,0,0,0,0, ,-38.3,312.1,950.1,-0.5,-0.5,-1.7,25,-38.5181,311.327,951.152,-0.517832,-0.531469,-1.72146,
2026_07_06_20_15_46.741,3.859,57.2,0,0.778,0,0,0,0, ,0,0,0,0,0, ,-37.5,311.5,949.9,-0.6,-0.6,-1.7,25,-38.4804,311.356,951.082,-0.519792,-0.532598,-1.72015,
2026_07_06_20_15_46.762,3.859,57.3,0,0.779,0,0,0,0, ,0,0,0,0,0, ,-39.1,310.6,950.6,-0.5,-0.5,-1.8,25,-38.4694,311.338,951.032,-0.521633,-0.533659,-1.72197,
2026_07_06_20_15_46.782,3.859,57.2,0,0.778,0,0,0,0, ,0,0,0,0,0, ,-39,311.7,950.5,-0.6,-0.5,-1.7,25,-38.5048,311.326,951.002,-0.523362,-0.531608,-1.72368,
2026_07_06_20_15_46.807,3.859,57.3,0,0.779,0,0,0,0, ,0,0,0,0,0, ,-39.3,311,950.3,-0.5,-0.6,-1.8,25,-38.5441,311.328,950.966,-0.524985,-0.532728,-1.72528,
2026_07_06_20_15_46.821,3.859,57.2,0,0.781,0,0,0,0, ,0,0,0,0,0, ,-39.1,310.4,951.2,-0.6,-0.6,-1.7,25,-38.5841,311.289,950.952,-0.526509,-0.536828,-1.72679,
2026_07_06_20_15_46.841,3.859,57.3,0,0.778,0,0,0,0, ,0,0,0,0,0, ,-38.8,311.1,950.1,-0.5,-0.5,-1.8,25,-38.6064,311.256,950.934,-0.527941,-0.53763,-1.7282,
2026_07_06_20_15_46.860,3.859,57.2,0,0.778,0,0,0,0, ,0,0,0,0,0, ,-39.9,311.7,950,-0.5,-0.6,-1.8,25,-38.6517,311.265,950.88,-0.526238,-0.538384,-1.73258,
2026_07_06_20_15_46.880,3.859,57.2,0,0.778,0,0,0,0, ,0,0,0,0,0, ,-38.2,311.7,949.8,-0.5,-0.5,-1.7,25,-38.676,311.292,950.82,-0.524639,-0.539092,-1.73364,
2026_07_06_20_15_46.899,3.859,57.2,0,0.778,0,0,0,0, ,0,0,0,0,0, ,-38.2,311.5,951.4,-0.6,-0.5,-1.7,25,-38.647,311.311,950.807,-0.526185,-0.53671,-1.73159,
2026_07_06_20_15_46.920,3.859,57.2,0,0.779,0,0,0,0, ,0,0,0,0,0, ,-39.3,312,951.5,-0.6,-0.6,-1.7,25,-38.6533,311.337,950.846,-0.530683,-0.53752,-1.72966,
2026_07_06_20_15_46.939,3.859,57.2,0,0.779,0,0,0,0, ,0,0,0,0,0, ,-38.8,310.9,951.5,-0.5,-0.5,-1.7,25,-38.6774,311.344,950.886,-0.53186,-0.53828,-1.72786,
2026_07_06_20_15_46.959,3.859,57.2,0,0.779,0,0,0,0, ,0,0,0,0,0, ,-38.3,311.8,950.1,-0.5,-0.6,-1.6,25,-38.6697,311.345,950.881,-0.529919,-0.538994,-1.72311,
2026_07_06_20_15_46.980,3.859,57.2,0,0.778,0,0,0,0, ,0,0,0,0,0, ,-39,312,949.9,-0.5,-0.5,-1.8,25,-38.6685,311.378,950.827,-0.528095,-0.539665,-1.7217,
2026_07_06_20_15_46.998,3.859,57.2,0,0.779,0,0,0,0, ,0,0,0,0,0, ,-38.5,311.7,950.6,-0.6,-0.5,-1.8,25,-38.6734,311.407,950.792,-0.52943,-0.537248,-1.72647,
2026_07_06_20_15_47.018,3.859,57.1,0,0.778,0,0,0,0, ,0,0,0,0,0, ,-39,311.4,950.3,-0.5,-0.5,-1.7,25,-38.6781,311.416,950.771,-0.530684,-0.534978,-1.72791,
2026_07_06_20_15_47.038,3.859,57.1,0,0.778,0,0,0,0, ,0,0,0,0,0, ,-38.5,310.9,951.7,-0.5,-0.5,-1.7,25,-38.6825,311.4,950.785,-0.528814,-0.532847,-1.72621,
2026_07_06_20_15_47.058,3.859,57,0,0.778,0,0,0,0, ,0,0,0,0,0, ,-38.5,310.6,951.7,-0.5,-0.5,-1.7,25,-38.6714,311.36,950.841,-0.527058,-0.530845,-1.72461,
2026_07_06_20_15_47.078,3.859,57.1,0,0.778,0,0,0,0, ,0,0,0,0,0, ,-38.8,311.8,950.4,-0.5,-0.5,-1.8,25,-38.6701,311.35,950.854,-0.525409,-0.528966,-1.72616,
2026_07_06_20_15_47.098,3.859,57.1,0,0.778,0,0,0,0, ,0,0,0,0,0, ,-39,311.6,949.9,-0.5,-0.5,-1.8,25,-38.6841,311.372,950.811,-0.523861,-0.5272,-1.73066,
2026_07_06_20_15_47.117,3.859,57,0,0.779,0,0,0,0, ,0,0,0,0,0, ,-40.4,311.6,952.2,-0.6,-0.6,-1.8,25,-38.746,311.386,950.825,-0.525454,-0.52859,-1.73488,
2026_07_06_20_15_47.137,3.859,57.1,0,0.778,0,0,0,0, ,0,0,0,0,0, ,-38.4,310.1,951.9,-0.6,-0.6,-1.7,25,-38.7858,311.353,950.9,-0.529996,-0.532941,-1.7358,
2026_07_06_20_15_47.157,3.859,57.1,0,0.778,0,0,0,0, ,0,0,0,0,0, ,-38.2,311,950.1,-0.5,-0.6,-1.7,25,-38.7562,311.304,950.906,-0.531215,-0.537028,-1.73362,
2026_07_06_20_15_47.177,3.859,57,0,0.778,0,0,0,0, ,0,0,0,0,0, ,-38.2,312.1,949.9,-0.5,-0.6,-1.8,25,-38.7223,311.319,950.851,-0.529313,-0.540865,-1.73462,
2026_07_06_20_15_47.196,3.859,57.1,0,0.778,0,0,0,0, ,0,0,0,0,0, ,-38.5,312.1,951.5,-0.5,-0.5,-1.8,25,-38.6996,311.367,950.842,-0.527527,-0.541422,-1.7386,
2026_07_06_20_15_47.216,3.859,57.1,0,0.778,0,0,0,0, ,0,0,0,0,0, ,-37.9,312.1,951.4,-0.5,-0.6,-1.8,25,-38.6692,311.411,950.879,-0.525849,-0.541944,-1.74235,
2026_07_06_20_15_47.236,3.859,57,0,0.778,0,0,0,0, ,0,0,0,0,0, ,-38.2,311.2,951.7,-0.6,-0.5,-1.7,25,-38.6315,311.426,950.92,-0.527321,-0.542435,-1.74281,
2026_07_06_20_15_47.256,3.859,57,0,0.779,0,0,0,0, ,0,0,0,0,0, ,-38.8,310.7,951.5,-0.5,-0.5,-1.8,25,-38.6235,311.397,950.961,-0.528703,-0.539849,-1.74325,
2026_07_06_20_15_47.276,3.859,57,0,0.778,0,0,0,0, ,0,0,0,0,0, ,-38.9,310.3,950.5,-0.5,-0.6,-1.8,25,-38.6373,311.342,950.963,-0.526954,-0.540468,-1.74671,
2026_07_06_20_15_47.296,3.859,57,0,0.779,0,0,0,0, ,0,0,0,0,0, ,-38.2,310.6,950.1,-0.5,-0.5,-1.7,25,-38.6319,311.288,950.923,-0.525311,-0.541049,-1.74691,
2026_07_06_20_15_47.315,3.859,57,0,0.779,0,0,0,0, ,0,0,0,0,0, ,-39.4,312,948.7,-0.5,-0.6,-1.8,25,-38.6422,311.289,950.83,-0.523769,-0.541594,-1.7471,
2026_07_06_20_15_47.335,3.859,57,0,0.778,0,0,0,0, ,0,0,0,0,0, ,-38.4,311.2,951,-0.5,-0.5,-1.8,25,-38.6579,311.308,950.77,-0.522321,-0.542107,-1.75032,
2026_07_06_20_15_47.360,3.859,57,0,0.778,0,0,0,0, ,0,0,0,0,0, ,-37.5,311.6,951.9,-0.6,-0.6,-1.7,25,-38.6148,311.313,950.812,-0.524007,-0.542588,-1.7503,
2026_07_06_20_15_47.375,3.859,57,0,0.779,0,0,0,0, ,0,0,0,0,0, ,-38.4,311,952.1,-0.6,-0.5,-1.8,25,-38.5742,311.312,950.884,-0.528638,-0.543039,-1.75028,
2026_07_06_20_15_47.395,3.859,57,0,0.778,0,0,0,0, ,0,0,0,0,0, ,-37.7,311.1,952.7,-0.5,-0.5,-1.7,25,-38.5423,311.296,950.977,-0.52994,-0.540417,-1.75027,
2026_07_06_20_15_47.414,3.859,57,0,0.778,0,0,0,0, ,0,0,0,0,0, ,-38.8,312.9,950.4,-0.5,-0.5,-1.8,25,-38.5245,311.339,951.012,-0.528115,-0.537954,-1.75025,
2026_07_06_20_15_47.434,3.859,56.9,0,0.778,0,0,0,0, ,0,0,0,0,0, ,-38,311.7,950.6,-0.5,-0.5,-1.8,25,-38.5169,311.398,950.98,-0.526402,-0.535641,-1.75328,
2026_07_06_20_15_47.454,3.859,56.9,0,0.778,0,0,0,0, ,0,0,0,0,0, ,-38.2,312,951,-0.6,-0.5,-1.8,25,-38.4915,311.425,950.969,-0.52784,-0.533469,-1.75613,
2026_07_06_20_15_47.474,3.859,56.9,0,0.779,0,0,0,0, ,0,0,0,0,0, ,-38.9,310.3,950.8,-0.5,-0.5,-1.7,25,-38.4951,311.409,950.965,-0.529191,-0.531429,-1.75575,
2026_07_06_20_15_47.493,3.859,56.9,0,0.779,0,0,0,0, ,0,0,0,0,0, ,-38.5,311,949.9,-0.5,-0.5,-1.7,25,-38.5076,311.362,950.928,-0.527412,-0.529514,-1.75236,
2026_07_06_20_15_47.514,3.859,56.9,0,0.778,0,0,0,0, ,0,0,0,0,0, ,-37.5,311.2,950.5,-0.6,-0.5,-1.7,25,-38.4766,311.346,950.883,-0.528788,-0.527716,-1.74917,
2026_07_06_20_15_47.536,3.859,56.9,0,0.778,0,0,0,0, ,0,0,0,0,0, ,-39,311.7,950.8,-0.5,-0.5,-1.8,25,-38.4628,311.353,950.869,-0.530081,-0.526027,-1.74922,
2026_07_06_20_15_47.553,3.859,56.9,0,0.778,0,0,0,0, ,0,0,0,0,0, ,-38,310.4,950.6,-0.6,-0.5,-1.7,25,-38.4651,311.334,950.859,-0.531295,-0.524441,-1.74927,
2026_07_06_20_15_47.572,3.859,56.9,0,0.778,0,0,0,0, ,0,0,0,0,0, ,-38.6,309.8,949.5,-0.5,-0.6,-1.7,25,-38.455,311.259,950.81,-0.532434,-0.525998,-1.74626,
2026_07_06_20_15_47.592,3.859,56.9,0,0.778,0,0,0,0, ,0,0,0,0,0, ,-38.3,311.2,950.6,-0.5,-0.5,-1.8,25,-38.4547,311.213,950.763,-0.530458,-0.527461,-1.74649,
2026_07_06_20_15_47.612,3.859,56.9,0,0.778,0,0,0,0, ,0,0,0,0,0, ,-38.9,311.6,951.7,-0.5,-0.6,-1.7,25,-38.4636,311.224,950.787,-0.528602,-0.528834,-1.7467,
2026_07_06_20_15_47.632,3.859,56.9,0,0.779,0,0,0,0, ,0,0,0,0,0, ,-37.8,312.1,951.4,-0.6,-0.6,-1.7,25,-38.4566,311.262,950.833,-0.529906,-0.533171,-1.74386,
2026_07_06_20_15_47.652,3.859,56.8,0,0.779,0,0,0,0, ,0,0,0,0,0, ,-39,311.7,949.9,-0.5,-0.6,-1.7,25,-38.4532,311.301,950.822,-0.53113,-0.537243,-1.74119,
2026_07_06_20_15_47.671,3.859,56.8,0,0.779,0,0,0,0, ,0,0,0,0,0, ,-38.3,311.5,950,-0.6,-0.5,-1.8,25,-38.4652,311.319,950.769,-0.53228,-0.538021,-1.74172,
2026_07_06_20_15_47.691,3.859,56.8,0,0.779,0,0,0,0, ,0,0,0,0,0, ,-38.2,311.1,949.7,-0.5,-0.6,-1.7,25,-38.4521,311.318,950.713,-0.53336,-0.538751,-1.74223,
2026_07_06_20_15_47.711,3.859,56.7,0,0.778,0,0,0,0, ,0,0,0,0,0, ,-38.5,311.7,951.5,-0.5,-0.6,-1.7,25,-38.4459,311.323,950.706,-0.531327,-0.542483,-1.73965,
2026_07_06_20_15_47.730,3.859,56.8,0,0.778,0,0,0,0, ,0,0,0,0,0, ,-38.3,311.4,951.2,-0.5,-0.6,-1.6,25,-38.4431,311.337,950.745,-0.529418,-0.545988,-1.73419,
2026_07_06_20_15_47.750,3.859,56.8,0,0.777,0,0,0,0, ,0,0,0,0,0, ,-39.5,310.9,951.5,-0.5,-0.6,-1.7,25,-38.4709,311.326,950.782,-0.527626,-0.549279,-1.72906,
2026_07_06_20_15_47.771,3.859,56.7,0,0.777,0,0,0,0, ,0,0,0,0,0, ,-38.2,310.5,951.1,-0.5,-0.5,-1.8,25,-38.494,311.287,950.814,-0.525942,-0.549323,-1.73034,
2026_07_06_20_15_47.790,3.859,56.8,0,0.778,0,0,0,0, ,0,0,0,0,0, ,-37.8,312.2,950.9,-0.6,-0.5,-1.7,25,-38.4639,311.291,950.825,-0.527408,-0.546318,-1.73153,
2026_07_06_20_15_47.810,3.859,56.8,0,0.779,0,0,0,0, ,0,0,0,0,0, ,-38.3,311.1,950.8,-0.5,-0.6,-1.7,25,-38.4387,311.313,950.827,-0.528785,-0.546542,-1.72961,
2026_07_06_20_15_47.830,3.859,56.8,0,0.779,0,0,0,0, ,0,0,0,0,0, ,-38.3,312.1,949.8,-0.5,-0.5,-1.7,25,-38.4302,311.331,950.795,-0.527031,-0.546753,-1.72781,
2026_07_06_20_15_47.849,3.859,56.8,0,0.779,0,0,0,0, ,0,0,0,0,0, ,-38.2,311,950.8,-0.6,-0.5,-1.7,25,-38.4192,311.344,950.764,-0.52843,-0.543904,-1.72611,
2026_07_06_20_15_47.869,3.859,56.8,0,0.778,0,0,0,0, ,0,0,0,0,0, ,-38.6,311.4,950.9,-0.5,-0.6,-1.7,25,-38.4181,311.335,950.77,-0.529745,-0.544275,-1.72452,
2026_07_06_20_15_47.889,3.859,56.8,0,0.778,0,0,0,0, ,0,0,0,0,0, ,-38.6,311.4,951,-0.5,-0.5,-1.7,25,-38.4292,311.339,950.781,-0.527932,-0.544624,-1.72303,
2026_07_06_20_15_47.909,3.859,56.8,0,0.781,0,0,0,0, ,0,0,0,0,0, ,-38.5,310.5,949.4,-0.5,-0.5,-1.8,25,-38.4365,311.315,950.745,-0.52623,-0.541905,-1.72467,
2026_07_06_20_15_47.929,3.859,56.7,0,0.778,0,0,0,0, ,0,0,0,0,0, ,-37.5,310.9,951.1,-0.5,-0.5,-1.7,25,-38.4099,311.278,950.715,-0.524632,-0.539351,-1.72622,
2026_07_06_20_15_47.948,3.859,56.7,0,0.779,0,0,0,0, ,0,0,0,0,0, ,-38.3,311,951.6,-0.6,-0.6,-1.7,25,-38.3788,311.258,950.754,-0.526178,-0.54,-1.72462,
2026_07_06_20_15_47.968,3.859,56.6,0,0.778,0,0,0,0, ,0,0,0,0,0, ,-37.2,311.8,949.5,-0.6,-0.6,-1.7,25,-38.3405,311.267,950.741,-0.530676,-0.543656,-1.72312,
2026_07_06_20_15_47.988,3.859,56.7,0,0.778,0,0,0,0, ,0,0,0,0,0, ,-38.3,311.5,948.9,-0.6,-0.6,-1.7,25,-38.3045,311.29,950.647,-0.534901,-0.54709,-1.72171,
2026_07_06_20_15_48.008,3.859,56.7,0,0.781,0,0,0,0, ,0,0,0,0,0, ,-39,311.1,952.1,-0.6,-0.5,-1.8,25,-38.3256,311.291,950.638,-0.538868,-0.547267,-1.72343,
2026_07_06_20_15_48.027,3.859,56.7,0,0.778,0,0,0,0, ,0,0,0,0,0, ,-38.6,313.1,950.6,-0.5,-0.6,-1.8,25,-38.3545,311.34,950.682,-0.539546,-0.547434,-1.7281,
2026_07_06_20_15_48.047,3.859,56.7,0,0.777,0,0,0,0, ,0,0,0,0,0, ,-38,311.1,952,-0.5,-0.5,-1.7,25,-38.3512,311.386,950.719,-0.537136,-0.54759,-1.72943,
2026_07_06_20_15_48.067,3.859,56.7,0,0.778,0,0,0,0, ,0,0,0,0,0, ,-38.3,312,952.3,-0.6,-0.6,-1.7,25,-38.3389,311.396,950.807,-0.53792,-0.547737,-1.72764,
2026_07_06_20_15_48.087,3.859,56.6,0,0.777,0,0,0,0, ,0,0,0,0,0, ,-38.8,311,950.8,-0.6,-0.6,-1.8,25,-38.3518,311.403,950.852,-0.541703,-0.550922,-1.729,
2026_07_06_20_15_48.107,3.859,56.7,0,0.777,0,0,0,0, ,0,0,0,0,0, ,-38.5,310.9,951.2,-0.6,-0.5,-1.8,25,-38.37,311.375,950.861,-0.545255,-0.550866,-1.73333,
2026_07_06_20_15_48.127,3.859,56.6,0,0.778,0,0,0,0, ,0,0,0,0,0, ,-38.3,311.1,951.4,-0.6,-0.5,-1.7,25,-38.3718,311.352,950.888,-0.548591,-0.547766,-1.73434,
2026_07_06_20_15_48.147,3.859,56.6,0,0.778,0,0,0,0, ,0,0,0,0,0, ,-38.8,311,951.2,-0.5,-0.6,-1.8,25,-38.3826,311.334,950.913,-0.548677,-0.547902,-1.7353,
2026_07_06_20_15_48.166,3.859,56.6,0,0.778,0,0,0,0, ,0,0,0,0,0, ,-38.9,311.8,951.6,-0.6,-0.5,-1.7,25,-38.4111,311.338,950.943,-0.548758,-0.54803,-1.73619,
2026_07_06_20_15_48.186,3.859,56.6,0,0.779,0,0,0,0, ,0,0,0,0,0, ,-38.6,311.7,950.9,-0.5,-0.5,-1.8,25,-38.4318,311.363,950.961,-0.548834,-0.545103,-1.73704,
2026_07_06_20_15_48.206,3.859,56.6,0,0.778,0,0,0,0, ,0,0,0,0,0, ,-39,312,949.9,-0.5,-0.6,-1.7,25,-38.4542,311.393,950.927,-0.545858,-0.545402,-1.73783,
2026_07_06_20_15_48.226,3.859,56.6,0,0.777,0,0,0,0, ,0,0,0,0,0, ,-38.9,312.5,950.1,-0.5,-0.5,-1.7,25,-38.4844,311.445,950.871,-0.543063,-0.545682,-1.73552,
2026_07_06_20_15_48.245,3.859,56.6,0,0.777,0,0,0,0, ,0,0,0,0,0, ,-38.2,311.4,950.1,-0.5,-0.6,-1.7,25,-38.4884,311.476,950.824,-0.540439,-0.545945,-1.73336,
2026_07_06_20_15_48.264,3.859,56.6,0,0.781,0,0,0,0, ,0,0,0,0,0, ,-38.2,311.5,951,-0.5,-0.5,-1.7,25,-38.4708,311.474,950.807,-0.537975,-0.546192,-1.73132,
2026_07_06_20_15_48.284,3.859,56.5,0,0.777,0,0,0,0, ,0,0,0,0,0, ,-38.2,311.2,951.1,-0.6,-0.6,-1.7,25,-38.4543,311.466,950.822,-0.538708,-0.546424,-1.72941,
2026_07_06_20_15_48.305,3.859,56.6,0,0.778,0,0,0,0, ,0,0,0,0,0, ,-37.7,310.3,950.9,-0.5,-0.5,-1.8,25,-38.4236,311.423,950.833,-0.539396,-0.546642,-1.73067,
2026_07_06_20_15_48.324,3.859,56.5,0,0.778,0,0,0,0, ,0,0,0,0,0, ,-38,311,950.3,-0.5,-0.5,-1.7,25,-38.3887,311.376,950.818,-0.536995,-0.5438,-1.73185,
2026_07_06_20_15_48.345,3.859,56.5,0,0.779,0,0,0,0, ,0,0,0,0,0, ,-37.4,312.1,950.1,-0.5,-0.5,-1.8,25,-38.3467,311.386,950.781,-0.534741,-0.541131,-1.73295,
2026_07_06_20_15_48.364,3.859,56.4,0,0.778,0,0,0,0, ,0,0,0,0,0, ,-37.4,312.2,950.9,-0.5,-0.6,-1.7,25,-38.289,311.433,950.764,-0.532624,-0.541671,-1.73399,
2026_07_06_20_15_48.384,3.859,56.5,0,0.779,0,0,0,0, ,0,0,0,0,0, ,-38.4,310.7,951,-0.5,-0.6,-1.7,25,-38.2653,311.434,950.775,-0.530636,-0.545226,-1.73192,
2026_07_06_20_15_48.404,3.859,56.5,0,0.778,0,0,0,0, ,0,0,0,0,0, ,-38.9,310.6,950.8,-0.6,-0.6,-1.8,25,-38.2887,311.386,950.783,-0.531816,-0.548563,-1.73302,
2026_07_06_20_15_48.423,3.859,56.6,0,0.777,0,0,0,0, ,0,0,0,0,0, ,-37.9,310.3,950.9,-0.5,-0.5,-1.7,25,-38.2955,311.329,950.787,-0.532924,-0.548651,-1.73406,
2026_07_06_20_15_48.443,3.859,56.5,0,0.777,0,0,0,0, ,0,0,0,0,0, ,-38.3,311,951.4,-0.5,-0.5,-1.8,25,-38.2836,311.288,950.809,-0.530918,-0.545686,-1.73503,
2026_07_06_20_15_48.463,3.859,56.5,0,0.777,0,0,0,0, ,0,0,0,0,0, ,-37.8,310.1,949,-0.5,-0.6,-1.8,25,-38.2694,311.243,950.772,-0.529034,-0.545949,-1.73899,
2026_07_06_20_15_48.483,3.859,56.5,0,0.779,0,0,0,0, ,0,0,0,0,0, ,-39.3,311,951.1,-0.5,-0.6,-1.7,25,-38.2865,311.201,950.728,-0.527264,-0.549243,-1.73966,
2026_07_06_20_15_48.503,3.859,56.5,0,0.779,0,0,0,0, ,0,0,0,0,0, ,-38.9,312,951,-0.6,-0.5,-1.7,25,-38.336,311.219,950.747,-0.52865,-0.549289,-1.73724,
2026_07_06_20_15_48.525,3.859,56.4,0,0.781,0,0,0,0, ,0,0,0,0,0, ,-38.6,311.1,951.2,-0.6,-0.6,-1.8,25,-38.3613,311.239,950.769,-0.532998,-0.549332,-1.73802,
2026_07_06_20_15_48.542,3.859,56.4,0,0.777,0,0,0,0, ,0,0,0,0,0, ,-39.1,310.4,950.1,-0.6,-0.5,-1.7,25,-38.3911,311.209,950.762,-0.537081,-0.549373,-1.73875,
2026_07_06_20_15_48.562,3.859,56.4,0,0.777,0,0,0,0, ,0,0,0,0,0, ,-37.4,311.1,950.3,-0.5,-0.6,-1.8,25,-38.3825,311.181,950.727,-0.537868,-0.549411,-1.73944,
2026_07_06_20_15_48.582,3.859,56.5,0,0.778,0,0,0,0, ,0,0,0,0,0, ,-38.6,310.5,949.4,-0.5,-0.6,-1.7,25,-38.3592,311.158,950.674,-0.53556,-0.552494,-1.74008,
2026_07_06_20_15_48.602,3.859,56.4,0,0.778,0,0,0,0, ,0,0,0,0,0, ,-38,310.6,950.9,-0.6,-0.6,-1.7,25,-38.3555,311.121,950.642,-0.53644,-0.555389,-1.73764,
2026_07_06_20_15_48.622,3.859,56.3,0,0.778,0,0,0,0, ,0,0,0,0,0, ,-37.4,310.4,952,-0.6,-0.5,-1.7,25,-38.3156,311.083,950.691,-0.540313,-0.55506,-1.73534,
2026_07_06_20_15_48.641,3.859,56.4,0,0.779,0,0,0,0, ,0,0,0,0,0, ,-38.9,311.7,951,-0.5,-0.5,-1.6,25,-38.3055,311.081,950.741,-0.540904,-0.551705,-1.73014,
2026_07_06_20_15_48.660,3.859,56.4,0,0.779,0,0,0,0, ,0,0,0,0,0, ,-39.3,310.6,949.2,-0.6,-0.5,-1.8,25,-38.3539,311.085,950.702,-0.541458,-0.548554,-1.72831,
2026_07_06_20_15_48.681,3.859,56.3,0,0.778,0,0,0,0, ,0,0,0,0,0, ,-37.8,311,949.8,-0.5,-0.6,-1.7,25,-38.3659,311.068,950.628,-0.541979,-0.548643,-1.72963,
2026_07_06_20_15_48.701,3.859,56.4,0,0.778,0,0,0,0, ,0,0,0,0,0, ,-39,311.4,949.4,-0.5,-0.5,-1.7,25,-38.368,311.076,950.566,-0.53942,-0.548725,-1.72782,
2026_07_06_20_15_48.721,3.859,56.4,0,0.777,0,0,0,0, ,0,0,0,0,0, ,-37.3,312.1,949.5,-0.6,-0.6,-1.8,25,-38.3547,311.117,950.498,-0.540065,-0.548803,-1.72917,
2026_07_06_20_15_48.745,3.859,56.4,0,0.777,0,0,0,0, ,0,0,0,0,0, ,-38.9,310.5,950.9,-0.6,-0.6,-1.7,25,-38.3392,311.128,950.48,-0.543717,-0.551923,-1.73044,
2026_07_06_20_15_48.760,3.859,56.4,0,0.778,0,0,0,0, ,0,0,0,0,0, ,-38.8,311.7,950.9,-0.5,-0.5,-1.7,25,-38.3703,311.126,950.505,-0.5441,-0.551806,-1.72859,
2026_07_06_20_15_48.779,3.859,56.4,0,0.778,0,0,0,0, ,0,0,0,0,0, ,-37.7,312.2,951.5,-0.6,-0.5,-1.7,25,-38.363,311.177,950.547,-0.54446,-0.548649,-1.72685,
2026_07_06_20_15_48.799,3.859,56.4,0,0.778,0,0,0,0, ,0,0,0,0,0, ,-38,311.7,950.6,-0.5,-0.6,-1.8,25,-38.3317,311.224,950.578,-0.544797,-0.548731,-1.72826,
2026_07_06_20_15_48.819,3.859,56.4,0,0.778,0,0,0,0, ,0,0,0,0,0, ,-39.9,227.2,957.2,34.5,-1.9,-7.3,25,-38.3694,308.678,950.781,0.524339,-0.591465,-1.90021,
2026_07_06_20_15_48.839,3.859,56.3,0,0.777,0,0,0,0, ,0,0,0,0,0, ,-52.3,582.5,875.9,87.9,-16.6,-47,25,-38.8405,314.539,948.695,4.22176,-1.11909,-3.43887,
2026_07_06_20_15_48.859,3.859,56.3,0,0.777,0,0,0,0, ,0,0,0,0,0, ,-33.6,340.4,954.7,14.9,-7.5,-20.6,25,-39.0909,323.491,946.66,7.09669,-1.7852,-5.289,
2026_07_06_20_15_48.879,3.859,56.3,0,0.778,0,0,0,0, ,0,0,0,0,0, ,-31.6,404.2,931.2,-23.8,0.3,1.9,25,-38.6953,326.465,946.434,6.39306,-1.89579,-5.53646,
2026_07_06_20_15_48.898,3.859,56.3,0,0.778,0,0,0,0, ,0,0,0,0,0, ,-39.7,391.9,923,-5.8,3.6,9.8,25,-38.5098,330.828,945.255,5.10161,-1.66143,-4.8426,
2026_07_06_20_15_48.918,3.859,56.3,0,0.778,0,0,0,0, ,0,0,0,0,0, ,-37.1,292.9,948.8,3.6,-0.5,-1.7,25,-38.5031,331.533,944.685,4.7237,-1.46574,-4.30071,
2026_07_06_20_15_48.938,3.859,56.3,0,0.778,0,0,0,0, ,0,0,0,0,0, ,64.5,159.4,1018.6,7.7,4.2,10.6,25,-35.322,325.111,947.063,4.78014,-1.26368,-3.76746,
2026_07_06_20_15_48.958,3.859,56.3,0,0.779,0,0,0,0, ,0,0,0,0,0, ,18.3,311.4,951.2,-1.1,17.8,47.2,25,-30.6467,319.644,949.368,4.68995,-0.516366,-1.77679,
2026_07_06_20_15_48.978,3.859,56.2,0,0.778,0,0,0,0, ,0,0,0,0,0, ,160.1,300,967.6,-29.1,23.7,54.1,25,-23.3436,318.794,949.98,3.484,0.779553,1.41797,
2026_07_06_20_15_48.997,3.859,56.3,0,0.776,0,0,0,0, ,0,0,0,0,0, ,-123.5,-26.1,917.2,-7.1,12.9,54,25,-20.8059,307.713,949.518,2.16872,1.84721,4.62523,
2026_07_06_20_15_49.017,3.859,56.2,0,0.776,0,0,0,0, ,0,0,0,0,0, ,-93,504.1,891.7,-8.3,3.8,10.9,25,-26.1345,303.526,946.772,1.56735,2.24347,6.3208,
2026_07_06_20_15_49.037,3.859,56.3,0,0.778,0,0,0,0, ,0,0,0,0,0, ,-176.7,563.9,861.3,0.4,-6.3,-17.1,25,-32.7594,317.571,942.489,1.23113,2.03059,5.74672,
2026_07_06_20_15_49.057,3.859,56.3,0,0.779,0,0,0,0, ,0,0,0,0,0, ,-25.7,297.9,961.1,7.3,-1.8,-5.6,25,-36.93,324.477,940.583,1.39072,1.66005,4.70489,
2026_07_06_20_15_49.077,3.859,56.2,0,0.779,0,0,0,0, ,0,0,0,0,0, ,-76.9,458,965.5,-44.9,8.3,10.6,25,-37.8056,327.735,941.967,0.160349,1.75694,4.57053,
2026_07_06_20_15_49.097,3.859,56.2,0,0.777,0,0,0,0, ,0,0,0,0,0, ,-179.5,264,927.3,-54.8,11.2,-0.4,25,-43.3141,329.762,942.237,-2.88716,2.24402,4.6028,
2026_07_06_20_15_49.116,3.859,56.2,0,0.778,0,0,0,0, ,0,0,0,0,0, ,-156.3,371.2,937.7,-28.5,2.5,-13.7,25,-50.906,329.021,941.644,-5.24927,2.52469,3.8927,
2026_07_06_20_15_49.136,3.859,56.2,0,0.778,0,0,0,0, ,0,0,0,0,0, ,-128.4,383.6,930.9,-40.9,4.7,-22.5,25,-56.4784,331.969,941.196,-7.04392,2.59022,2.55252,
2026_07_06_20_15_49.158,3.859,56.2,0,0.777,0,0,0,0, ,0,0,0,0,0, ,173.2,412.9,909.9,-36.7,-3.8,-29.9,25,-51.6717,336.008,939.929,-8.97906,2.4598,0.800417,
2026_07_06_20_15_49.176,3.859,56.2,0,0.778,0,0,0,0, ,0,0,0,0,0, ,273.6,284.4,1025.5,-39.4,3.2,4.8,25,-34.9095,336.779,941.621,-10.7506,2.29162,-0.0131243,
2026_07_06_20_15_49.195,3.859,56.2,0,0.779,0,0,0,0, ,0,0,0,0,0, ,87.7,226.6,1017.7,-27.3,13.7,22.7,25,-21.7739,331.826,946.495,-12.1277,2.6669,0.825566,
2026_07_06_20_15_49.215,3.859,56.1,0,0.778,0,0,0,0, ,0,0,0,0,0, ,-175.6,316.7,947.1,-29.4,9.7,19.1,25,-23.1252,328.159,948.683,-13.1163,3.21735,2.04885,
2026_07_06_20_15_49.234,3.859,56.1,0,0.777,0,0,0,0, ,0,0,0,0,0, ,-270.1,316,999.8,-16.6,12.8,7.8,25,-35.296,327.439,950.192,-13.7186,3.70684,2.74361,
2026_07_06_20_15_49.254,3.859,56.1,0,0.778,0,0,0,0, ,0,0,0,0,0, ,-122.5,133.4,1163.6,-11,26.8,-5.6,25,-45.1071,321.178,958.206,-13.7235,4.68752,2.64345,
2026_07_06_20_15_49.275,3.859,56.1,0,0.776,0,0,0,0, ,0,0,0,0,0, ,-57.3,183.8,1130.6,-21.5,50.7,-22.3,25,-47.8367,311.271,969.717,-13.8775,6.7632,1.63229,
2026_07_06_20_15_49.295,3.859,56.1,0,0.779,0,0,0,0, ,0,0,0,0,0, ,-163.9,305.1,985.3,-32.3,63.8,-21.4,25,-51.6614,307.199,975.093,-14.671,9.83974,0.201337,
2026_07_06_20_15_49.314,3.859,56.1,0,0.778,0,0,0,0, ,0,0,0,0,0, ,-129.1,234.3,1019.2,-40.2,49.9,-19.7,25,-57.4406,304.914,976.748,-15.986,12.7044,-1.0632,
2026_07_06_20_15_49.334,3.859,56.1,0,0.777,0,0,0,0, ,0,0,0,0,0, ,-178.9,232.6,1018.6,-40.3,27.7,-16,25,-63.3247,300.559,979.317,-17.4646,14.2946,-2.08614,
2026_07_06_20_15_49.353,3.859,56.1,0,0.777,0,0,0,0, ,0,0,0,0,0, ,-273.8,165.2,1020.2,-40.6,27.5,-18.9,25,-73.259,294.365,981.759,-18.8653,15.1054,-3.02238,
2026_07_06_20_15_49.379,3.859,56.1,0,0.778,0,0,0,0, ,0,0,0,0,0, ,-109.6,183.7,983.7,-57.4,46.3,-32.8,25,-80.4765,287.057,982.99,-20.7016,16.4335,-4.41344,
2026_07_06_20_15_49.393,3.859,56.1,0,0.782,0,0,0,0, ,0,0,0,0,0, ,-95,189,1077.7,-42.5,66.3,-20.2,25,-81.8064,280.92,985.897,-22.4839,18.8629,-5.75934,
2026_07_06_20_15_49.413,3.859,56.1,0,0.777,0,0,0,0, ,0,0,0,0,0, ,-204.9,117.1,930.7,-58.6,78.8,-18.7,25,-85.9589,273.128,987.012,-24.1942,22.1345,-6.59361,
2026_07_06_20_15_49.433,3.859,55.9,0,0.777,0,0,0,0, ,0,0,0,0,0, ,-162.9,95.8,898.4,-19.4,76.7,-29.9,25,-91.9272,262.971,982.597,-25.0964,25.5235,-7.67259,
2026_07_06_20_15_49.452,3.859,56,0,0.778,0,0,0,0, ,0,0,0,0,0, ,-226.3,233.7,1028.4,-19.5,64.2,12.8,25,-98.1838,256.986,981.427,-24.7523,28.2612,-7.72606,
2026_07_06_20_15_49.473,3.859,56,0,0.777,0,0,0,0, ,0,0,0,0,0, ,-267.7,334.1,1096.4,-61.8,18.1,49.7,25,-107.252,258.626,986.361,-25.7211,29.0466,-5.35096,
2026_07_06_20_15_49.492,3.859,56,0,0.778,0,0,0,0, ,0,0,0,0,0, ,-210.2,165.6,979.9,-84.1,-91.7,116.2,25,-115.278,258.091,989.517,-28.5991,25.0341,0.0298816,
2026_07_06_20_15_49.512,3.859,56,0,0.777,0,0,0,0, ,0,0,0,0,0, ,-164.9,45.8,890.6,-75.5,-146,121.8,25,-119.682,248.805,986.21,-31.7192,16.2662,7.27962,
2026_07_06_20_15_49.532,3.859,56,0,0.778,0,0,0,0, ,0,0,0,0,0, ,-228.5,151.6,894.8,-1.2,-108.9,136.3,25,-124.375,239.658,980.512,-32.1232,7.50847,14.7,
2026_07_06_20_15_49.551,3.859,56,0,0.777,0,0,0,0, ,0,0,0,0,0, ,-193.6,-87.1,955.9,0.1,-123.6,111.1,25,-129.657,227.019,977.151,-30.1992,-0.0330612,21.3422,
2026_07_06_20_15_49.571,3.859,56,0,0.778,0,0,0,0, ,0,0,0,0,0, ,50.7,1.4,874.1,-1.6,-12.5,65.1,25,-126.11,210.574,973.363,-28.4047,-4.17784,25.4102,
2026_07_06_20_15_49.592,3.859,56.1,0,0.778,0,0,0,0, ,0,0,0,0,0, ,-97.2,58.9,1010.9,5,-20.9,62.1,25,-119.842,199.579,971.483,-26.5702,-4.94091,27.7374,
2026_07_06_20_15_49.611,3.859,56,0,0.779,0,0,0,0, ,0,0,0,0,0, ,-53.2,-88.2,1104.6,55.7,-67.9,19.3,25,-117.121,186.525,976.739,-23.1016,-7.34545,28.5273,
2026_07_06_20_15_49.631,3.859,56,0,0.778,0,0,0,0, ,0,0,0,0,0, ,252.8,363,1769.5,36.5,89.7,-43.4,25,-103.903,183.531,1004.79,-18.8846,-6.23362,26.0547,
2026_07_06_20_15_49.651,3.859,56,0,0.777,0,0,0,0, ,0,0,0,0,0, ,-79.5,371.3,961.1,-54.1,250.1,-111.1,25,-92.291,194.72,1026.76,-18.2701,4.49952,19.7595,
2026_07_06_20_15_49.670,3.859,55.9,0,0.777,0,0,0,0, ,0,0,0,0,0, ,-412.5,-721.1,124.6,16.7,213.8,-58.5,25,-101.658,172.197,997.27,-18.2963,18.3598,13.3879,
2026_07_06_20_15_49.690,3.859,55.9,0,0.776,0,0,0,0, ,0,0,0,0,0, ,-161.6,-278.1,647.7,6,-55.3,86.6,25,-112.955,131.259,960.03,-16.4897,22.0703,13.4283,
2026_07_06_20_15_49.710,3.859,55.9,0,0.777,0,0,0,0, ,0,0,0,0,0, ,-105.5,471.8,1093.9,58.8,-45.6,72.5,25,-114.21,129.162,954.592,-13.5105,17.6511,17.4576,
2026_07_06_20_15_49.729,3.859,55.9,0,0.777,0,0,0,0, ,0,0,0,0,0, ,-356.2,353.1,816,88,-23.2,8.4,25,-121.318,146.425,954.614,-8.2144,14.4792,18.8587,
2026_07_06_20_15_49.749,3.859,55.9,0,0.778,0,0,0,0, ,0,0,0,0,0, ,-318.3,347.5,863.8,105.8,-35.4,-26.2,25,-134.476,158.849,947.624,-1.80899,11.8114,17.1671,
2026_07_06_20_15_49.769,3.859,55.9,0,0.778,0,0,0,0, ,0,0,0,0,0, ,-161.2,267.4,1020.7,68.7,-37.7,-70.2,25,-140.891,167.904,947.296,3.61804,8.8644,13.1838,
2026_07_06_20_15_49.789,3.859,55.9,0,0.778,0,0,0,0, ,0,0,0,0,0, ,-168.5,124.6,990.8,29.7,-47.3,-82,25,-142.351,169.616,950.858,6.39569,5.73438,7.74309,
2026_07_06_20_15_49.809,3.859,55.9,0,0.777,0,0,0,0, ,0,0,0,0,0, ,-169.9,209.8,1047.3,-1.8,-45.2,-86,25,-143.987,169.469,955.014,6.85603,2.56658,2.15249,
2026_07_06_20_15_49.829,3.859,55.9,0,0.778,0,0,0,0, ,0,0,0,0,0, ,-192.7,163.2,959.4,7.9,-31.2,-72.8,25,-146.261,170.507,957.959,6.6241,0.082368,-2.81711,
2026_07_06_20_15_49.848,3.859,55.9,0,0.777,0,0,0,0, ,0,0,0,0,0, ,-158.5,108,928.7,6.4,-25.6,-62.8,25,-148.049,168.38,957.112,6.65615,-1.65328,-6.77701,
2026_07_06_20_15_49.868,3.859,55.8,0,0.777,0,0,0,0, ,0,0,0,0,0, ,-165.1,33.6,944.2,-11.2,-32.5,-62.7,25,-148.887,162.433,955.853,6.10429,-3.32276,-10.1879,
2026_07_06_20_15_49.888,3.859,55.9,0,0.776,0,0,0,0, ,0,0,0,0,0, ,-238.8,177.7,1008.5,-12,-29,-42.5,25,-152.12,158.973,957.102,5.02543,-4.99411,-12.7723,
2026_07_06_20_15_49.908,3.859,55.8,0,0.779,0,0,0,0, ,0,0,0,0,0, ,-196.4,228.3,916.2,1,-5.8,-30.6,25,-156.111,161.656,957.422,4.38404,-5.75009,-14.2213,
2026_07_06_20_15_49.928,3.859,55.8,0,0.778,0,0,0,0, ,0,0,0,0,0, ,-186,276.2,916.1,9.5,-6.8,-35.2,25,-158.249,167.177,954.907,4.43681,-5.7836,-15.3595,
2026_07_06_20_15_49.948,3.859,55.9,0,0.777,0,0,0,0, ,0,0,0,0,0, ,-197.5,276.6,961.6,-10.9,-6,-51.5,25,-160.29,173.832,953.928,4.12379,-5.82117,-17.0652,
2026_07_06_20_15_49.967,3.859,55.8,0,0.777,0,0,0,0, ,0,0,0,0,0, ,-225.8,204.2,997.4,-3.6,-27.8,-35,25,-163.42,177.889,955.486,3.4307,-6.49628,-18.6608,
2026_07_06_20_15_49.987,3.859,55.8,0,0.778,0,0,0,0, ,0,0,0,0,0, ,-173.5,128.9,940.3,19.6,-19.5,-36.7,25,-165.628,177.198,956.301,3.70914,-7.54159,-19.7083,
2026_07_06_20_15_50.006,3.859,55.9,0,0.777,0,0,0,0, ,0,0,0,0,0, ,-151.3,162.1,964.4,16.5,-15.6,-21.1,25,-165.431,175.266,956.06,4.58303,-8.15147,-20.2684,
2026_07_06_20_15_50.033,3.859,55.7,0,0.777,0,0,0,0, ,0,0,0,0,0, ,-146.6,196.7,949,16.7,-8.6,-14.6,25,-164.427,175.518,956.099,5.31532,-8.39209,-20.121,
2026_07_06_20_15_50.053,3.859,55.8,0,0.777,0,0,0,0, ,0,0,0,0,0, ,-151.4,238,989.8,-3.5,-2.4,-28.8,25,-163.487,178.067,956.91,5.3936,-8.21585,-20.2173,
2026_07_06_20_15_50.066,3.859,55.8,0,0.778,0,0,0,0, ,0,0,0,0,0, ,-144.1,123,961.6,6.2,-21.7,-17.4,25,-162.528,178.216,958.055,5.1472,-8.44949,-20.3929,
2026_07_06_20_15_50.086,3.859,55.7,0,0.778,0,0,0,0, ,0,0,0,0,0, ,-113.1,141.2,1002.1,8.2,-28.9,-4.1,25,-160.46,175.405,959.505,5.27229,-9.47632,-19.8053,
2026_07_06_20_15_50.105,3.859,55.7,0,0.777,0,0,0,0, ,0,0,0,0,0, ,-106,259.1,974.4,17,-19.4,2.3,25,-157.358,176.913,961.256,5.71882,-10.3705,-18.6533,
2026_07_06_20_15_50.125,3.859,55.7,0,0.777,0,0,0,0, ,0,0,0,0,0, ,-125.3,252.1,951.2,20.7,-12.4,-7.2,25,-154.816,181.708,961.35,6.519,-10.7075,-17.6659,
2026_07_06_20_15_50.145,3.859,55.8,0,0.777,0,0,0,0, ,0,0,0,0,0, ,-102.5,196.5,964.2,19.3,-12.1,-8,25,-152.323,184.304,961.128,7.3405,-10.8015,-17.0525,
2026_07_06_20_15_50.165,3.859,55.7,0,0.777,0,0,0,0, ,0,0,0,0,0, ,-97.9,187.8,985.4,12.8,-18.2,-4.4,25,-149.147,184.782,961.961,7.87124,-11.0664,-16.3912,
2026_07_06_20_15_50.185,3.859,55.7,0,0.778,0,0,0,0, ,0,0,0,0,0, ,-85.8,278,979.7,9.5,-26.2,-5.1,25,-145.655,187.714,963.216,8.07103,-11.7449,-15.6818,
2026_07_06_20_15_50.205,3.859,55.7,0,0.778,0,0,0,0, ,0,0,0,0,0, ,-88.3,264.8,971,14.3,-26.9,-7.1,25,-142.084,192.814,963.955,8.30436,-12.6471,-15.0979,
2026_07_06_20_15_50.224,3.859,55.5,0,0.778,0,0,0,0, ,0,0,0,0,0, ,-81.2,262.2,1026.3,16.3,-5.8,-3.8,25,-138.59,197.121,966.069,8.73066,-12.8727,-14.51,
2026_07_06_20_15_50.244,3.859,55.7,0,0.778,0,0,0,0, ,0,0,0,0,0, ,-108.6,297.7,1083.4,6.6,14,-4.5,25,-135.928,202.168,971.479,8.89637,-11.8385,-13.8787,
2026_07_06_20_15_50.265,3.859,55.7,0,0.778,0,0,0,0, ,0,0,0,0,0, ,-71.6,198.6,999.5,-4,23.4,-21,25,-133.135,204.97,975.743,8.43347,-9.97751,-13.8099,
2026_07_06_20_15_50.291,3.859,55.7,0,0.776,0,0,0,0, ,0,0,0,0,0, ,-107.2,203.1,915.1,-7.5,-3.5,-6.2,25,-130.47,204.719,974.619,7.56916,-8.76318,-13.7971,
2026_07_06_20_15_50.304,3.859,55.7,0,0.776,0,0,0,0, ,0,0,0,0,0, ,-60.3,289,968.6,2.4,-6.5,1.9,25,-127.623,207.238,972.622,6.95252,-8.53386,-13.0874,
2026_07_06_20_15_50.324,3.859,55.5,0,0.778,0,0,0,0, ,0,0,0,0,0, ,-111.2,276.6,985.7,3.2,4.3,-0.3,25,-125.071,211.843,972.898,6.69948,-8.08086,-12.2411,
2026_07_06_20_15_50.344,3.859,55.7,0,0.778,0,0,0,0, ,0,0,0,0,0, ,-91.7,232.1,941.4,3,10.2,1,25,-123.632,214.433,972.329,6.48014,-7.14664,-11.4738,
2026_07_06_20_15_50.365,3.859,55.7,0,0.779,0,0,0,0, ,0,0,0,0,0, ,-111.9,250.4,948.1,4.9,4.4,2.9,25,-122.302,216.067,970.648,6.32596,-6.2663,-10.6558,
2026_07_06_20_15_50.382,3.859,55.7,0,0.777,0,0,0,0, ,0,0,0,0,0, ,-101.9,255.9,955.8,6,1.2,6.9,25,-121.363,218.327,969.509,6.27258,-5.71382,-9.70788,
2026_07_06_20_15_50.403,3.859,55.5,0,0.777,0,0,0,0, ,0,0,0,0,0, ,-113.4,274,976.6,6,7.4,5.8,25,-120.527,221.168,969.307,6.25597,-5.1036,-8.72935,
2026_07_06_20_15_50.422,3.859,55.5,0,0.777,0,0,0,0, ,0,0,0,0,0, ,-110.4,278.3,974.2,6,7.9,4.5,25,-120.002,224.518,969.678,6.24037,-4.32643,-7.88358,
2026_07_06_20_15_50.443,3.859,55.7,0,0.777,0,0,0,0, ,0,0,0,0,0, ,-113.7,259.2,947.1,5.5,1.8,2.7,25,-119.517,227.214,969.128,6.21049,-3.76724,-7.1838,
2026_07_06_20_15_50.462,3.859,55.7,0,0.777,0,0,0,0, ,0,0,0,0,0, ,-107,275.5,950,6.7,-0.3,5.9,25,-118.959,229.659,967.874,6.20375,-3.49197,-6.484,
2026_07_06_20_15_50.482,3.859,55.5,0,0.779,0,0,0,0, ,0,0,0,0,0, ,-137.2,264.5,945,4.6,-0.2,3.7,25,-119.15,232.118,966.633,6.17001,-3.29441,-5.79639,
2026_07_06_20_15_50.502,3.859,55.5,0,0.777,0,0,0,0, ,0,0,0,0,0, ,-155.2,264.1,984,2.5,-6.1,-0.3,25,-120.798,234.079,966.503,6.01035,-3.28561,-5.33957,
2026_07_06_20_15_50.522,3.859,55.5,0,0.777,0,0,0,0, ,0,0,0,0,0, ,-116.5,271.1,966,2.3,-3.7,-0.7,25,-121.716,236.122,967.021,5.79035,-3.38399,-5.04466,
2026_07_06_20_15_50.541,3.859,55.5,0,0.777,0,0,0,0, ,0,0,0,0,0, ,-111.5,261.9,964.8,0.2,-4.8,0.9,25,-121.245,237.973,966.922,5.51367,-3.43676,-4.73116,
2026_07_06_20_15_50.561,3.859,55.7,0,0.777,0,0,0,0, ,0,0,0,0,0, ,-104.7,283.5,948.2,-0.2,-10.5,2.3,25,-120.444,240.089,966.287,5.17768,-3.69351,-4.34536,
2026_07_06_20_15_50.580,3.859,55.4,0,0.777,0,0,0,0, ,0,0,0,0,0, ,-126.3,266.9,943.2,2.8,-12.3,1.3,25,-120.143,242.229,965.032,4.94138,-4.16312,-3.97087,
2026_07_06_20_15_50.600,3.859,55.5,0,0.777,0,0,0,0, ,0,0,0,0,0, ,-118.6,268.1,958.4,0.8,-6.6,-1.1,25,-120.284,243.768,964.165,4.74996,-4.48529,-3.7228,
2026_07_06_20_15_50.620,3.859,55.5,0,0.778,0,0,0,0, ,0,0,0,0,0, ,-106.5,275.5,949.4,-0.1,-2.2,-1.8,25,-119.812,245.477,963.539,4.48183,-4.48009,-3.5843,
2026_07_06_20_15_50.640,3.859,55.5,0,0.777,0,0,0,0, ,0,0,0,0,0, ,-90.3,276.7,940,3.7,-4.3,0.5,25,-118.508,247.343,962.391,4.31841,-4.40513,-3.4055,
2026_07_06_20_15_50.659,3.859,55.4,0,0.778,0,0,0,0, ,0,0,0,0,0, ,-73.6,262.3,935.3,7,-10.3,5.3,25,-116.28,248.693,960.884,4.38127,-4.58154,-3.02125,
2026_07_06_20_15_50.680,3.859,55.4,0,0.778,0,0,0,0, ,0,0,0,0,0, ,-101,281.2,940,8.1,-15.6,6,25,-114.514,250.098,959.468,4.57437,-5.09149,-2.49285,
2026_07_06_20_15_50.699,3.859,55.4,0,0.777,0,0,0,0, ,0,0,0,0,0, ,-115.7,272.9,947.1,5.7,-13.9,0,25,-114.138,251.74,958.498,4.71609,-5.68006,-2.15813,
2026_07_06_20_15_50.720,3.859,55.5,0,0.777,0,0,0,0, ,0,0,0,0,0, ,-81.9,279.6,961.1,6.2,-8.6,1.4,25,-113.204,253.234,958.23,4.79128,-6.01948,-1.98396,
2026_07_06_20_15_50.738,3.859,55.4,0,0.777,0,0,0,0, ,0,0,0,0,0, ,-67.2,288,963.8,6.1,-7.4,3.2,25,-110.848,255.097,958.487,4.87407,-6.14016,-1.72291,
2026_07_06_20_15_50.759,3.859,55.4,0,0.777,0,0,0,0, ,0,0,0,0,0, ,-75,302.6,985.1,4.9,-2.9,5,25,-108.426,257.546,959.46,4.91222,-6.07983,-1.36807,
2026_07_06_20_15_50.778,3.859,55.4,0,0.777,0,0,0,0, ,0,0,0,0,0, ,-76.6,307.1,986.8,3,1,1.9,25,-106.438,260.429,961.074,4.85358,-5.76723,-1.07447,
2026_07_06_20_15_50.799,3.859,55.3,0,0.778,0,0,0,0, ,0,0,0,0,0, ,-67.8,301.7,980.9,1.2,0.5,0.9,25,-104.351,263.109,962.462,4.68578,-5.37008,-0.923685,
2026_07_06_20_15_50.818,3.859,55.3,0,0.778,0,0,0,0, ,0,0,0,0,0, ,-65.6,298,972.4,-2.3,-2.7,0,25,-102.057,265.347,963.327,4.36673,-5.10988,-0.839976,
2026_07_06_20_15_50.839,3.859,55.2,0,0.778,0,0,0,0, ,0,0,0,0,0, ,-75,300.5,965.3,-3.2,-3,-0.4,25,-100.122,267.413,963.663,3.93305,-4.97216,-0.800978,
2026_07_06_20_15_50.857,3.859,55.4,0,0.777,0,0,0,0, ,0,0,0,0,0, ,-74.5,298,949.9,-0.5,-2.4,0.9,25,-98.5758,269.353,963.294,3.58065,-4.8337,-0.736934,
2026_07_06_20_15_50.878,3.859,55.3,0,0.777,0,0,0,0, ,0,0,0,0,0, ,-80.2,296.5,956.1,1,-1.9,1.4,25,-97.2823,271.053,962.666,3.37769,-4.67017,-0.621949,
2026_07_06_20_15_50.896,3.859,55.4,0,0.776,0,0,0,0, ,0,0,0,0,0, ,-85.3,293.7,962.2,-0.4,-1.6,0.3,25,-96.3968,272.519,962.452,3.19014,-4.49222,-0.532252,
2026_07_06_20_15_50.919,3.859,55.4,0,0.778,0,0,0,0, ,0,0,0,0,0, ,-80.9,296.8,954.9,-2.2,-3.4,-1.1,25,-95.5865,273.904,962.214,2.91652,-4.37082,-0.524193,
2026_07_06_20_15_50.936,3.859,55.3,0,0.777,0,0,0,0, ,0,0,0,0,0, ,-80.9,297.3,957.7,-1.7,-3.4,-0.8,25,-94.6915,275.314,961.854,2.61997,-4.31166,-0.55014,
2026_07_06_20_15_50.958,3.859,55.2,0,0.777,0,0,0,0, ,0,0,0,0,0, ,-71.7,303.2,952.7,-1.4,-2.7,-0.5,25,-93.5708,276.834,961.448,2.36586,-4.23478,-0.556226,
2026_07_06_20_15_50.976,3.859,55.2,0,0.777,0,0,0,0, ,0,0,0,0,0, ,-71.6,290.4,964.2,-0.1,-2.4,-0.7,25,-92.235,278.051,961.266,2.17599,-4.13211,-0.558893,
2026_07_06_20_15_50.996,3.859,55.3,0,0.778,0,0,0,0, ,0,0,0,0,0, ,-65.7,288.3,966.4,-3,-3.8,-1.5,25,-90.7978,278.739,961.512,1.94894,-4.06922,-0.591867,
2026_07_06_20_15_51.021,3.859,55.2,0,0.778,0,0,0,0, ,0,0,0,0,0, ,-62.9,285.1,955.4,-5.1,-4.8,-2.4,25,-89.1831,279.224,961.474,1.58338,-4.08328,-0.674628,
2026_07_06_20_15_51.042,3.859,55.3,0,0.778,0,0,0,0, ,0,0,0,0,0, ,-69.4,286.7,948.2,-3.7,-4.3,-1.8,25,-87.7795,279.631,960.885,1.21876,-4.11172,-0.761487,
2026_07_06_20_15_51.055,3.859,55.2,0,0.776,0,0,0,0, ,0,0,0,0,0, ,-70.1,304.1,955.3,0.7,-2.1,-1.5,25,-86.6808,280.592,960.328,1.05309,-4.05616,-0.81563,
2026_07_06_20_15_51.076,3.859,55.3,0,0.777,0,0,0,0, ,0,0,0,0,0, ,-63.4,276.1,959.7,0.6,-2.1,-3.1,25,-85.4663,281.171,960.156,1.02853,-3.93696,-0.906084,
2026_07_06_20_15_51.095,3.859,55.2,0,0.778,0,0,0,0, ,0,0,0,0,0, ,-62.3,286,966,-0.5,-3.2,-2.3,25,-84.0881,281.164,960.32,0.968898,-3.85853,-1.0154,
2026_07_06_20_15_51.116,3.859,55.2,0,0.777,0,0,0,0, ,0,0,0,0,0, ,-67.2,285,961,-1.4,-4,-2.1,25,-82.9097,281.428,960.514,0.851965,-3.84278,-1.08759,
2026_07_06_20_15_51.135,3.859,55.2,0,0.777,0,0,0,0, ,0,0,0,0,0, ,-70.3,297.4,944.5,-2.1,-3.6,-3.1,25,-82.0468,282.024,960.041,0.693407,-3.84017,-1.17975,
2026_07_06_20_15_51.156,3.859,55.2,0,0.777,0,0,0,0, ,0,0,0,0,0, ,-59.4,292.8,939.8,-0.9,-2.2,-4,25,-80.9989,282.821,958.95,0.559747,-3.78288,-1.32419,
2026_07_06_20_15_51.173,3.859,55.3,0,0.778,0,0,0,0, ,0,0,0,0,0, ,-53.7,286.6,954.2,-0.3,-1.8,-3.1,25,-79.5091,283.24,958.222,0.489075,-3.67424,-1.45982,
2026_07_06_20_15_51.195,3.859,55.1,0,0.779,0,0,0,0, ,0,0,0,0,0, ,-56.3,285.8,955.5,-0.2,-0.9,-1.9,25,-78.0155,283.42,958.017,0.444037,-3.5326,-1.52321,
2026_07_06_20_15_51.213,3.859,55.2,0,0.779,0,0,0,0, ,0,0,0,0,0, ,-60.3,291.2,955.8,-0.4,0.3,-1.7,25,-76.8141,283.73,957.872,0.398698,-3.33562,-1.54008,
2026_07_06_20_15_51.234,3.859,55.2,0,0.777,0,0,0,0, ,0,0,0,0,0, ,-56.6,289.5,959.5,1.1,0.2,-0.8,25,-75.6951,284.133,957.859,0.39573,-3.11712,-1.5224,
2026_07_06_20_15_51.253,3.859,55.2,0,0.778,0,0,0,0, ,0,0,0,0,0, ,-72.3,291,966.3,0.1,-0.6,-2.2,25,-75.0098,284.506,958.166,0.408178,-2.93936,-1.52103,
2026_07_06_20_15_51.274,3.859,55.2,0,0.777,0,0,0,0, ,0,0,0,0,0, ,-65.3,290.5,951.9,-2.2,-2.1,-3.3,25,-74.6314,284.886,958.223,0.31932,-2.84251,-1.59592,
2026_07_06_20_15_51.293,3.859,55.1,0,0.777,0,0,0,0, ,0,0,0,0,0, ,-61.5,285.5,949.9,-0.3,-1.4,-1.8,25,-73.947,285.076,957.777,0.22369,-2.77593,-1.65406,
2026_07_06_20_15_51.313,3.859,55.2,0,0.777,0,0,0,0, ,0,0,0,0,0, ,-61.1,287.8,963.2,-1,-1.1,-1.5,25,-73.1763,285.172,957.702,0.170449,-2.68294,-1.65382,
2026_07_06_20_15_51.332,3.859,55.2,0,0.778,0,0,0,0, ,0,0,0,0,0, ,-52.3,288.5,958.7,-2.3,-1.5,-1.5,25,-72.1723,285.353,957.9,0.0595155,-2.59867,-1.64444,
2026_07_06_20_15_51.354,3.859,55.2,0,0.777,0,0,0,0, ,0,0,0,0,0, ,-57.9,290.1,955.3,-0.5,-1.4,-1,25,-71.1319,285.594,957.845,-0.0294237,-2.52867,-1.62041,
2026_07_06_20_15_51.372,3.859,55.1,0,0.776,0,0,0,0, ,0,0,0,0,0, ,-65.7,288.9,956.1,0.1,-1.1,-1.9,25,-70.5633,285.832,957.714,-0.0398182,-2.45075,-1.61002,
2026_07_06_20_15_51.394,3.859,55.1,0,0.777,0,0,0,0, ,0,0,0,0,0, ,-68.1,290.7,957.2,0,-1.3,-1.8,25,-70.34,286.074,957.65,-0.0343449,-2.37454,-1.62465,
2026_07_06_20_15_51.412,3.859,55.2,0,0.776,0,0,0,0, ,0,0,0,0,0, ,-61.1,286.7,955.2,-0.6,-1.6,-1.8,25,-69.9903,286.234,957.561,-0.0505332,-2.3182,-1.63533,
2026_07_06_20_15_51.434,3.859,55.1,0,0.777,0,0,0,0, ,0,0,0,0,0, ,-57.6,288.2,961,-1.7,-1.2,-2,25,-69.3419,286.308,957.594,-0.117532,-2.26225,-1.65146,
2026_07_06_20_15_51.451,3.859,55.1,0,0.777,0,0,0,0, ,0,0,0,0,0, ,-55.6,291.2,962.4,-1.5,-1.8,-2,25,-68.5654,286.515,957.844,-0.20787,-2.2158,-1.6727,
2026_07_06_20_15_51.473,3.859,55.1,0,0.777,0,0,0,0, ,0,0,0,0,0, ,-55.5,286.8,960.8,-1.3,-1.7,-1.9,25,-67.7723,286.666,958.073,-0.280515,-2.18741,-1.6896,
2026_07_06_20_15_51.491,3.859,55.2,0,0.777,0,0,0,0, ,0,0,0,0,0, ,-57.7,286.1,951.7,-0.7,-1.6,-1.5,25,-67.0915,286.653,957.962,-0.324359,-2.15466,-1.69023,
2026_07_06_20_15_51.513,3.859,55.1,0,0.778,0,0,0,0, ,0,0,0,0,0, ,-61.7,269.2,947,2.5,-0.1,-0.5,25,-66.6411,286.104,957.437,-0.24975,-2.07516,-1.64817,
2026_07_06_20_15_51.535,3.859,55.1,0,0.778,0,0,0,0, ,0,0,0,0,0, ,-68.2,297.1,959.5,-0.7,-0.6,-2.1,25,-66.538,285.924,957.182,-0.179687,-1.97003,-1.62695,
2026_07_06_20_15_51.558,3.859,55,0,0.777,0,0,0,0, ,0,0,0,0,0, ,-58.3,289.9,969.3,-1.3,-1.8,-2.8,25,-66.3376,286.386,957.622,-0.229675,-1.92311,-1.67711,
2026_07_06_20_15_51.570,3.859,55.1,0,0.777,0,0,0,0, ,0,0,0,0,0, ,-56.7,293.5,962.2,-1.9,-2.4,-2.8,25,-65.7991,286.71,958.117,-0.313179,-1.93389,-1.74553,
2026_07_06_20_15_51.593,3.859,54.9,0,0.778,0,0,0,0, ,0,0,0,0,0, ,-52.4,286.3,944.2,-1.2,-1.9,-2,25,-65.1136,286.904,957.818,-0.388547,-1.94706,-1.78542,
2026_07_06_20_15_51.610,3.859,55,0,0.778,0,0,0,0, ,0,0,0,0,0, ,-58.9,287.7,953.1,0.4,-0.5,-0.4,25,-64.5369,286.91,957.259,-0.389245,-1.90153,-1.74974,
2026_07_06_20_15_51.632,3.859,55.1,0,0.776,0,0,0,0, ,0,0,0,0,0, ,-57.4,288.4,960.8,0,-0.6,-0.9,25,-64.1477,286.979,957.24,-0.353338,-1.81917,-1.68273,
2026_07_06_20_15_51.649,3.859,55,0,0.777,0,0,0,0, ,0,0,0,0,0, ,-57.4,290.2,961.5,0,-0.7,-1.6,25,-63.7365,287.121,957.478,-0.331807,-1.74793,-1.65636,
2026_07_06_20_15_51.672,3.859,55,0,0.777,0,0,0,0, ,0,0,0,0,0, ,-63.1,291.2,964.4,-0.7,-1.3,-1.9,25,-63.5241,287.339,957.812,-0.332915,-1.70235,-1.66206,
2026_07_06_20_15_51.689,3.859,55.1,0,0.776,0,0,0,0, ,0,0,0,0,0, ,-62.7,289,957.7,-1.7,-1.8,-2.7,25,-63.486,287.507,958.009,-0.385753,-1.69307,-1.70094,
2026_07_06_20_15_51.711,3.859,55,0,0.776,0,0,0,0, ,0,0,0,0,0, ,-50,284.3,953.3,-0.9,-1.9,-1.7,25,-63.0512,287.455,957.856,-0.441465,-1.70263,-1.73135,
2026_07_06_20_15_51.729,3.859,55,0,0.777,0,0,0,0, ,0,0,0,0,0, ,-54.8,295.5,971.1,1,-2.3,-0.5,25,-62.4021,287.604,958.121,-0.411517,-1.72685,-1.69288,
2026_07_06_20_15_51.752,3.859,54.9,0,0.777,0,0,0,0, ,0,0,0,0,0, ,-60.6,281.6,960.9,-1,-3.2,-2.9,25,-62.1156,287.662,958.601,-0.38644,-1.78919,-1.69331,
2026_07_06_20_15_51.768,3.859,55,0,0.776,0,0,0,0, ,0,0,0,0,0, ,-54.9,291.2,947.6,-1.8,-2.5,-3.6,25,-61.8496,287.585,958.336,-0.448204,-1.85384,-1.78817,
2026_07_06_20_15_51.789,3.859,55,0,0.777,0,0,0,0, ,0,0,0,0,0, ,-48.7,287.5,951.5,-0.1,-1.8,-2.2,25,-61.2372,287.692,957.801,-0.478782,-1.87188,-1.85592,
2026_07_06_20_15_51.807,3.859,55,0,0.777,0,0,0,0, ,0,0,0,0,0, ,-51.2,287.2,954.5,1.1,-0.2,-1,25,-60.5494,287.671,957.508,-0.419137,-1.81875,-1.84033,
2026_07_06_20_15_51.830,3.859,54.9,0,0.777,0,0,0,0, ,0,0,0,0,0, ,-57.7,283.4,968.5,0,-1.1,-2.1,25,-60.1777,287.527,957.751,-0.36008,-1.74753,-1.82264,
2026_07_06_20_15_51.847,3.859,54.9,0,0.776,0,0,0,0, ,0,0,0,0,0, ,-55,293.7,958.1,-1,-1.9,-2.9,25,-59.9444,287.589,958.089,-0.368607,-1.73245,-1.86391,
2026_07_06_20_15_51.869,3.859,55,0,0.777,0,0,0,0, ,0,0,0,0,0, ,-53.7,290,951.5,-0.6,-1.3,-2.8,25,-59.6035,287.849,957.889,-0.394895,-1.72438,-1.924,
2026_07_06_20_15_51.887,3.859,54.9,0,0.776,0,0,0,0, ,0,0,0,0,0, ,-53.4,287.2,957,-0.6,-1.5,-2.6,25,-59.2346,287.895,957.667,-0.407393,-1.70461,-1.97129,
2026_07_06_20_15_51.910,3.859,54.9,0,0.777,0,0,0,0, ,0,0,0,0,0, ,-48,285.5,957.6,0,-1.2,-1.3,25,-58.7146,287.801,957.645,-0.400849,-1.683,-1.96999,
2026_07_06_20_15_51.926,3.859,55,0,0.778,0,0,0,0, ,0,0,0,0,0, ,-50.5,286.3,957.3,-0.6,-0.9,-1.4,25,-58.1378,287.685,957.633,-0.394704,-1.64443,-1.93221,
2026_07_06_20_15_51.950,3.859,54.8,0,0.778,0,0,0,0, ,0,0,0,0,0, ,-58.3,286.7,958,-1.4,-1,-2.3,25,-57.91,287.613,957.634,-0.431589,-1.60211,-1.9272,
2026_07_06_20_15_51.966,3.859,54.9,0,0.777,0,0,0,0, ,0,0,0,0,0, ,-54.4,278.9,957.8,-0.5,-1,-2.8,25,-57.815,287.319,957.65,-0.46318,-1.56542,-1.96515,
2026_07_06_20_15_51.989,3.859,54.9,0,0.777,0,0,0,0, ,0,0,0,0,0, ,-48.8,288,950.5,-1.4,-0.9,-2.7,25,-57.4362,287.084,957.437,-0.492845,-1.52792,-2.01298,
2026_07_06_20_15_52.006,3.859,54.9,0,0.776,0,0,0,0, ,0,0,0,0,0, ,-50.6,287.5,955.5,-0.5,-0.6,-1.8,25,-56.9648,287.124,957.167,-0.520703,-1.48051,-2.02742,
2026_07_06_20_15_52.028,3.859,54.9,0,0.777,0,0,0,0, ,0,0,0,0,0, ,-55.9,291.1,960.9,-0.3,-0.7,-1.8,25,-56.7384,287.257,957.229,-0.513348,-1.4299,-2.01357,
2026_07_06_20_15_52.045,3.859,54.9,0,0.777,0,0,0,0, ,0,0,0,0,0, ,-59.3,289.4,961,-0.2,-0.1,-2,25,-56.7909,287.439,957.456,-0.4973,-1.36714,-2.00664,
2026_07_06_20_15_52.069,3.859,54.9,0,0.777,0,0,0,0, ,0,0,0,0,0, ,-50,288.9,956.9,0.5,-0.1,-1.6,25,-56.6605,287.543,957.547,-0.457855,-1.28993,-1.99405,
2026_07_06_20_15_52.085,3.859,54.9,0,0.777,0,0,0,0, ,0,0,0,0,0, ,-48.8,288.6,961.4,0.7,-0.6,-0.7,25,-56.218,287.617,957.645,-0.393392,-1.23265,-1.94262,
2026_07_06_20_15_52.108,3.859,54.9,0,0.778,0,0,0,0, ,0,0,0,0,0, ,-53.9,287.3,959.2,-0.3,-1.1,-0.6,25,-55.9214,287.637,957.807,-0.357232,-1.20933,-1.86385,
2026_07_06_20_15_52.126,3.859,54.9,0,0.777,0,0,0,0, ,0,0,0,0,0, ,-57.9,288.4,955.2,-0.9,-1.5,-1.7,25,-55.9201,287.65,957.77,-0.372026,-1.21486,-1.82035,
2026_07_06_20_15_52.150,3.859,54.9,0,0.777,0,0,0,0, ,0,0,0,0,0, ,-56.2,287.4,955.9,-1.6,-1.4,-2.6,25,-55.989,287.665,957.634,-0.425527,-1.22919,-1.84044,
2026_07_06_20_15_52.164,3.859,54.9,0,0.777,0,0,0,0, ,0,0,0,0,0, ,-51.6,288.5,954.3,-1.2,-1.6,-2.7,25,-55.8617,287.683,957.48,-0.484909,-1.24569,-1.88977,
2026_07_06_20_15_52.187,3.859,54.8,0,0.776,0,0,0,0, ,0,0,0,0,0, ,-49.1,285.2,954.5,0.4,-0.5,-1.2,25,-55.5258,287.632,957.292,-0.479735,-1.23377,-1.89344,
2026_07_06_20_15_52.203,3.859,54.8,0,0.777,0,0,0,0, ,0,0,0,0,0, ,-52.3,290,965.4,0.2,-0.7,-0.7,25,-55.2317,287.63,957.454,-0.43222,-1.19515,-1.83595,
2026_07_06_20_15_52.226,3.859,54.8,0,0.777,0,0,0,0, ,0,0,0,0,0, ,-49.8,288.5,961,-1.2,-1.2,-0.9,25,-54.9769,287.729,957.804,-0.43635,-1.18021,-1.77282,
2026_07_06_20_15_52.243,3.859,54.7,0,0.777,0,0,0,0, ,0,0,0,0,0, ,-55.4,286.7,958.2,-1,-1.4,-1.5,25,-54.8321,287.721,957.914,-0.476792,-1.18751,-1.73791,
2026_07_06_20_15_52.266,3.859,54.8,0,0.776,0,0,0,0, ,0,0,0,0,0, ,-54.6,288.8,954.9,-0.6,-1,-2.1,25,-54.8423,287.723,957.831,-0.496487,-1.18827,-1.7417,
2026_07_06_20_15_52.283,3.859,54.8,0,0.778,0,0,0,0, ,0,0,0,0,0, ,-50.7,284,954.7,-0.5,-1.2,-2.1,25,-54.7087,287.642,957.646,-0.499748,-1.18289,-1.76353,
2026_07_06_20_15_52.308,3.859,54.8,0,0.777,0,0,0,0, ,0,0,0,0,0, ,-47.2,286.4,958.9,-1.2,-1.6,-2,25,-54.3578,287.493,957.594,-0.521092,-1.19612,-1.78099,
2026_07_06_20_15_52.322,3.859,54.7,0,0.777,0,0,0,0, ,0,0,0,0,0, ,-45.5,288,956,-0.3,-0.9,-1,25,-53.8698,287.475,957.586,-0.535041,-1.1994,-1.76387,
2026_07_06_20_15_52.346,3.859,54.8,0,0.778,0,0,0,0, ,0,0,0,0,0, ,-54,288.8,958.9,0.2,-0.4,-1,25,-53.6187,287.532,957.577,-0.505483,-1.16592,-1.71732,
2026_07_06_20_15_52.363,3.859,54.8,0,0.777,0,0,0,0, ,0,0,0,0,0, ,-54.1,288.6,961.5,-0.1,-0.4,-2.2,25,-53.645,287.603,957.737,-0.471634,-1.11925,-1.71017,
2026_07_06_20_15_52.387,3.859,54.8,0,0.777,0,0,0,0, ,0,0,0,0,0, ,-53.2,288.5,959.9,-0.7,-1,-2.5,25,-53.6453,287.661,957.918,-0.467269,-1.0937,-1.74916,
2026_07_06_20_15_52.402,3.859,54.7,0,0.777,0,0,0,0, ,0,0,0,0,0, ,-51.1,284.7,955.2,-0.5,-1.2,-1.8,25,-53.5542,287.596,957.895,-0.475357,-1.09409,-1.77358,
2026_07_06_20_15_52.424,3.859,54.8,0,0.777,0,0,0,0, ,0,0,0,0,0, ,-50.5,283.5,959.7,-0.5,-1.5,-1.4,25,-53.3864,287.383,957.868,-0.476859,-1.10968,-1.76301,
2026_07_06_20_15_52.441,3.859,54.7,0,0.777,0,0,0,0, ,0,0,0,0,0, ,-49.9,302.1,966.3,0.2,-1.8,-1,25,-53.1922,287.713,958.181,-0.456941,-1.14261,-1.7287,
2026_07_06_20_15_52.465,3.859,54.8,0,0.777,0,0,0,0, ,0,0,0,0,0, ,-52.1,291.6,955.9,-0.3,-1.4,-2.2,25,-53.0586,288.27,958.359,-0.432143,-1.17048,-1.72086,
2026_07_06_20_15_52.481,3.859,54.6,0,0.777,0,0,0,0, ,0,0,0,0,0, ,-49.9,284.6,954.8,-1,-1.8,-2.5,25,-52.9332,288.26,958.175,-0.445418,-1.19665,-1.75919,
2026_07_06_20_15_52.504,3.859,54.7,0,0.777,0,0,0,0, ,0,0,0,0,0, ,-45.7,284.1,955.3,-0.9,-1.8,-2.2,25,-52.6204,288.021,957.985,-0.476166,-1.23342,-1.7952,
2026_07_06_20_15_52.520,3.859,54.8,0,0.778,0,0,0,0, ,0,0,0,0,0, ,-46,285.1,953.3,-0.5,-1.2,-1.5,25,-52.2078,287.813,957.76,-0.489806,-1.24966,-1.79854,
2026_07_06_20_15_52.545,3.859,54.7,0,0.776,0,0,0,0, ,0,0,0,0,0, ,-42.6,287.9,958.7,-0.5,-0.4,-1.2,25,-51.7259,287.733,957.653,-0.490427,-1.22226,-1.7712,
2026_07_06_20_15_52.560,3.859,54.7,0,0.777,0,0,0,0, ,0,0,0,0,0, ,-53.7,290.8,963.1,0.2,-0.7,-1.4,25,-51.508,287.831,957.851,-0.469683,-1.1813,-1.74249,
2026_07_06_20_15_52.584,3.859,54.6,0,0.776,0,0,0,0, ,0,0,0,0,0, ,-51.5,289.3,958.9,-0.3,-1.4,-1.9,25,-51.5746,287.967,958.043,-0.444108,-1.1733,-1.73685,
2026_07_06_20_15_52.599,3.859,54.7,0,0.776,0,0,0,0, ,0,0,0,0,0, ,-49.8,284.1,958.7,-0.9,-1.6,-1.8,25,-51.5182,287.889,958.089,-0.453608,-1.1932,-1.74375,
2026_07_06_20_15_52.624,3.859,54.6,0,0.775,0,0,0,0, ,0,0,0,0,0, ,-50.1,283.2,951.5,-1.2,-1.6,-2,25,-51.4227,287.631,957.907,-0.48995,-1.21799,-1.75327,
2026_07_06_20_15_52.639,3.859,54.7,0,0.78,0,0,0,0, ,0,0,0,0,0, ,-45.6,286.4,956.5,0,-0.9,-1.4,25,-51.2049,287.459,957.669,-0.496657,-1.21994,-1.75002,
2026_07_06_20_15_52.663,3.859,54.6,0,0.777,0,0,0,0, ,0,0,0,0,0, ,-49.5,287.5,966.6,-0.3,-1,-1.7,25,-50.9822,287.428,957.905,-0.475532,-1.20349,-1.73783,
2026_07_06_20_15_52.679,3.859,54.7,0,0.778,0,0,0,0, ,0,0,0,0,0, ,-43.7,287.9,963,-2,-2.1,-1.9,25,-50.7152,287.444,958.325,-0.516633,-1.22461,-1.74162,
2026_07_06_20_15_52.703,3.859,54.6,0,0.776,0,0,0,0, ,0,0,0,0,0, ,-44.6,283,954.5,-2.2,-1.9,-1.5,25,-50.3151,287.323,958.351,-0.613119,-1.27186,-1.73909,
2026_07_06_20_15_52.719,3.859,54.7,0,0.776,0,0,0,0, ,0,0,0,0,0, ,-50.2,276.1,956.5,-0.4,-1.9,-1.5,25,-50.1375,286.849,958.178,-0.654976,-1.31014,-1.72452,
2026_07_06_20_15_52.743,3.859,54.6,0,0.777,0,0,0,0, ,0,0,0,0,0, ,-47.9,296,956.4,-1.2,-1.4,-2.4,25,-50.0712,286.8,958.072,-0.663813,-1.33085,-1.73826,
2026_07_06_20_15_52.758,3.859,54.7,0,0.777,0,0,0,0, ,0,0,0,0,0, ,-39.1,285.2,962,-0.7,-1.7,-1.7,25,-49.6708,287.032,958.141,-0.681253,-1.3442,-1.75725,
2026_07_06_20_15_52.782,3.859,54.6,0,0.778,0,0,0,0, ,0,0,0,0,0, ,-43.4,280.1,956.2,-0.4,-1.1,-1.4,25,-49.1576,286.765,958.199,-0.673255,-1.3476,-1.74462,
2026_07_06_20_15_52.798,3.859,54.6,0,0.777,0,0,0,0, ,0,0,0,0,0, ,-43.5,284.9,954.9,-0.2,-0.5,-1.4,25,-48.8098,286.505,958.038,-0.650509,-1.31423,-1.72362,
2026_07_06_20_15_52.820,3.859,54.5,0,0.778,0,0,0,0, ,0,0,0,0,0, ,-42.4,289.9,955.5,0.1,-0.2,-0.8,25,-48.4527,286.559,957.865,-0.613916,-1.25547,-1.68562,
2026_07_06_20_15_52.837,3.859,54.6,0,0.776,0,0,0,0, ,0,0,0,0,0, ,-50.5,288.8,960.2,0.2,-0.1,-1.1,25,-48.3307,286.73,957.864,-0.567365,-1.18811,-1.6408,
2026_07_06_20_15_52.860,3.859,54.5,0,0.777,0,0,0,0, ,0,0,0,0,0, ,-48.9,287.3,959.8,0,0,-1.6,25,-48.4141,286.81,957.994,-0.526697,-1.11876,-1.62307,
2026_07_06_20_15_52.876,3.859,54.5,0,0.776,0,0,0,0, ,0,0,0,0,0, ,-48.9,287.1,957.6,0.7,0.1,-2.2,25,-48.4437,286.834,958.037,-0.473273,-1.04754,-1.63995,
2026_07_06_20_15_52.901,3.859,54.5,0,0.776,0,0,0,0, ,0,0,0,0,0, ,-41.7,285.1,957.6,0.3,0.2,-1.8,25,-48.2522,286.789,958.011,-0.413965,-0.97456,-1.66189,
2026_07_06_20_15_52.917,3.859,54.5,0,0.776,0,0,0,0, ,0,0,0,0,0, ,-42.6,284.5,957.6,0,-0.1,-1.5,25,-47.8803,286.668,957.986,-0.379598,-0.912126,-1.66117,
2026_07_06_20_15_52.941,3.859,54.5,0,0.777,0,0,0,0, ,0,0,0,0,0, ,-45,287.1,959.8,-0.3,-0.2,-1.4,25,-47.6317,286.615,958.029,-0.365607,-0.865684,-1.6483,
2026_07_06_20_15_52.956,3.859,54.6,0,0.777,0,0,0,0, ,0,0,0,0,0, ,-50.7,288.3,960.9,-0.4,-0.1,-2,25,-47.645,286.681,958.171,-0.364656,-0.822072,-1.65145,
2026_07_06_20_15_52.980,3.859,54.6,0,0.777,0,0,0,0, ,0,0,0,0,0, ,-44.1,285.4,955.5,0,0,-2.3,25,-47.6301,286.691,958.172,-0.354622,-0.775024,-1.68183,
2026_07_06_20_15_52.995,3.859,54.4,0,0.777,0,0,0,0, ,0,0,0,0,0, ,-45.7,286.6,957.8,0.4,0.1,-1.7,25,-47.4637,286.649,958.08,-0.320825,-0.724749,-1.70122,
2026_07_06_20_15_53.019,3.859,54.5,0,0.777,0,0,0,0, ,0,0,0,0,0, ,-50.7,287.9,959.8,-0.3,0,-1.5,25,-47.5086,286.686,958.124,-0.298228,-0.677538,-1.69505,
2026_07_06_20_15_53.035,3.859,54.5,0,0.777,0,0,0,0, ,0,0,0,0,0, ,-49.1,288.9,955.4,-0.3,0,-1.9,25,-47.6543,286.79,958.092,-0.298336,-0.63625,-1.69535,
2026_07_06_20_15_53.060,3.859,54.5,0,0.777,0,0,0,0, ,0,0,0,0,0, ,-43.5,287.9,957.7,0.7,0.5,-1.7,25,-47.5718,286.888,957.998,-0.267968,-0.582245,-1.70173,
2026_07_06_20_15_53.075,3.859,54.5,0,0.777,0,0,0,0, ,0,0,0,0,0, ,-47.1,288.6,960.5,0.1,-0.3,-2.1,25,-47.4333,286.971,958.065,-0.227264,-0.54067,-1.71381,
2026_07_06_20_15_53.099,3.859,54.5,0,0.776,0,0,0,0, ,0,0,0,0,0, ,-51.3,290.2,955.4,1,0.3,-2,25,-47.541,287.119,958.058,-0.1799,-0.507723,-1.7343,
2026_07_06_20_15_53.114,3.859,54.4,0,0.777,0,0,0,0, ,0,0,0,0,0, ,-47.4,285.2,959.8,0.7,0.3,-1.7,25,-47.6512,287.155,958.03,-0.11714,-0.458503,-1.74135,
2026_07_06_20_15_53.139,3.859,54.4,0,0.777,0,0,0,0, ,0,0,0,0,0, ,-46.1,288.4,957.1,-0.5,-0.7,-1.9,25,-47.5963,287.133,958.056,-0.103908,-0.44275,-1.74492,
2026_07_06_20_15_53.154,3.859,54.4,0,0.778,0,0,0,0, ,0,0,0,0,0, ,-50.6,290.7,956.1,0,-0.2,-1.6,25,-47.6422,287.28,957.967,-0.112811,-0.443192,-1.74523,
2026_07_06_20_15_53.178,3.859,54.4,0,0.777,0,0,0,0, ,0,0,0,0,0, ,-50.5,286.7,955.5,0.7,0.2,-1.8,25,-47.8194,287.367,957.835,-0.084608,-0.416185,-1.74248,
2026_07_06_20_15_53.193,3.859,54.4,0,0.777,0,0,0,0, ,0,0,0,0,0, ,-50.2,287.8,958.8,0.6,0,-2,25,-47.9736,287.36,957.793,-0.0398429,-0.38473,-1.75207,
2026_07_06_20_15_53.217,3.859,54.4,0,0.777,0,0,0,0, ,0,0,0,0,0, ,-46,286.6,955.4,0.3,-0.2,-1.8,25,-47.9813,287.35,957.751,-0.00999306,-0.367379,-1.76109,
2026_07_06_20_15_53.232,3.859,54.4,0,0.777,0,0,0,0, ,0,0,0,0,0, ,-50.7,291,956.7,0.4,0.1,-1.3,25,-48.0038,287.438,957.647,0.011944,-0.348039,-1.74823,
2026_07_06_20_15_53.257,3.859,54.4,0,0.777,0,0,0,0, ,0,0,0,0,0, ,-52.1,292.4,956.2,0.6,0,-1.5,25,-48.2108,287.698,957.574,0.0416849,-0.323783,-1.72701,
2026_07_06_20_15_53.273,3.859,54.3,0,0.776,0,0,0,0, ,0,0,0,0,0, ,-52.8,292.9,960,1.9,0.7,-1.5,25,-48.4691,288,957.606,0.115317,-0.282725,-1.71317,
2026_07_06_20_15_53.303,3.859,54.4,0,0.777,0,0,0,0, ,0,0,0,0,0, ,-68.1,297.3,941.6,1.8,0.7,-2.4,25,-49.1992,288.433,957.192,0.221024,-0.22284,-1.7276,
2026_07_06_20_15_53.312,3.859,54.4,0,0.776,0,0,0,0, ,0,0,0,0,0, ,-37.2,288.5,969.6,0.8,0.1,-2.2,25,-49.4095,288.705,957.095,0.286774,-0.184886,-1.76248,
2026_07_06_20_15_53.336,3.859,54.4,0,0.778,0,0,0,0, ,0,0,0,0,0, ,-37.4,290.4,955.2,0.4,-1.6,-1.6,25,-48.6715,288.75,957.418,0.305861,-0.219322,-1.77086,
2026_07_06_20_15_53.352,3.859,54.3,0,0.777,0,0,0,0, ,0,0,0,0,0, ,-49.8,293.7,959.5,1.1,0.2,-1,25,-48.3625,288.951,957.414,0.332926,-0.248614,-1.74217,
2026_07_06_20_15_53.376,3.859,54.3,0,0.778,0,0,0,0, ,0,0,0,0,0, ,-51.8,293.8,958.9,-1,-0.9,-2.3,25,-48.511,289.244,957.523,0.315685,-0.254792,-1.73655,
2026_07_06_20_15_53.391,3.859,54.4,0,0.777,0,0,0,0, ,0,0,0,0,0, ,-51.7,294,953.2,-1.1,-0.9,-2.4,25,-48.7084,289.527,957.433,0.232464,-0.294109,-1.77394,
2026_07_06_20_15_53.416,3.859,54.3,0,0.777,0,0,0,0, ,0,0,0,0,0, ,-49,296.6,956,0,-0.1,-1.5,25,-48.8084,289.879,957.26,0.184782,-0.306656,-1.78466,
2026_07_06_20_15_53.430,3.859,54.4,0,0.777,0,0,0,0, ,0,0,0,0,0, ,-52.3,293.8,959.2,0.2,-0.1,-1.2,25,-48.9207,290.203,957.281,0.179616,-0.294063,-1.75818,
2026_07_06_20_15_53.455,3.859,54.2,0,0.777,0,0,0,0, ,0,0,0,0,0, ,-49.9,296.2,961.1,-1,-0.6,-2.1,25,-49.0535,290.496,957.456,0.144296,-0.297471,-1.75159,
2026_07_06_20_15_53.470,3.859,54.3,0,0.776,0,0,0,0, ,0,0,0,0,0, ,-45.1,287.9,954.8,-1.5,-0.6,-2.3,25,-48.9588,290.59,957.486,0.0593307,-0.315907,-1.77891,
2026_07_06_20_15_53.496,3.859,54.3,0,0.777,0,0,0,0, ,0,0,0,0,0, ,-54.9,290.5,953.4,-1.4,0,-2.6,25,-49.0222,290.506,957.28,-0.0326442,-0.314937,-1.81981,
2026_07_06_20_15_53.510,3.859,54.3,0,0.776,0,0,0,0, ,0,0,0,0,0, ,-48,288.5,947.2,-0.4,0.5,-2.6,25,-49.1702,290.444,956.854,-0.0854987,-0.280511,-1.86735,
2026_07_06_20_15_53.535,3.859,54.2,0,0.778,0,0,0,0, ,0,0,0,0,0, ,-44.9,289.9,953.3,1,1.2,-1.5,25,-49.0044,290.369,956.452,-0.0620073,-0.211621,-1.87848,
2026_07_06_20_15_53.550,3.859,54.3,0,0.778,0,0,0,0, ,0,0,0,0,0, ,-56,292.7,954.4,1.1,1.1,-1.1,25,-49.0925,290.425,956.293,0.00575561,-0.128647,-1.84323,
2026_07_06_20_15_53.575,3.859,54.3,0,0.778,0,0,0,0, ,0,0,0,0,0, ,-53.4,291.1,955.2,1.1,1.4,-1.4,25,-49.4342,290.515,956.202,0.0724361,-0.0446358,-1.80708,
2026_07_06_20_15_53.588,3.859,54.3,0,0.776,0,0,0,0, ,0,0,0,0,0, ,-57,295.8,961.9,0.7,0.5,-1.5,25,-49.7856,290.694,956.345,0.122866,0.0159748,-1.78532,
2026_07_06_20_15_53.614,3.859,54.2,0,0.776,0,0,0,0, ,0,0,0,0,0, ,-56.1,300.5,964.9,-0.2,-0.6,-1.7,25,-50.1978,291.148,956.775,0.130613,0.0119545,-1.77403,
2026_07_06_20_15_53.629,3.859,54.3,0,0.776,0,0,0,0, ,0,0,0,0,0, ,-56.3,295.4,959.4,-0.4,-1.1,-1.9,25,-50.5635,291.563,957.103,0.104373,-0.0405709,-1.77561,
2026_07_06_20_15_53.654,3.859,54.2,0,0.778,0,0,0,0, ,0,0,0,0,0, ,-53.4,292.3,950.4,0.7,-0.4,-1.4,25,-50.8247,291.702,956.969,0.107153,-0.0838017,-1.76795,
2026_07_06_20_15_53.668,3.859,54.3,0,0.776,0,0,0,0, ,0,0,0,0,0, ,-53.8,293.2,953.8,1.4,-0.2,-1,25,-50.9939,291.766,956.672,0.164608,-0.0969763,-1.73334,
2026_07_06_20_15_53.694,3.859,54.3,0,0.776,0,0,0,0, ,0,0,0,0,0, ,-52.8,291.6,955.4,0.1,-0.4,-1.6,25,-51.1344,291.805,956.546,0.20028,-0.109348,-1.70694,
2026_07_06_20_15_53.708,3.859,54.3,0,0.776,0,0,0,0, ,0,0,0,0,0, ,-54.3,296.9,955.5,0,-0.6,-1.7,25,-51.2816,291.954,956.479,0.191122,-0.133153,-1.70347,
2026_07_06_20_15_53.733,3.859,54.2,0,0.776,0,0,0,0, ,0,0,0,0,0, ,-57.3,296.1,957,-0.1,-0.6,-1.8,25,-51.5569,292.231,956.465,0.176429,-0.161602,-1.7063,
2026_07_06_20_15_53.747,3.859,54.2,0,0.777,0,0,0,0, ,0,0,0,0,0, ,-54.1,299.6,958.8,-0.1,-0.5,-1.8,25,-51.8094,292.573,956.552,0.159584,-0.18527,-1.71201,
2026_07_06_20_15_53.774,3.859,54.2,0,0.777,0,0,0,0, ,0,0,0,0,0, ,-56.7,298.5,958.6,0.1,0,-2.2,25,-52.0282,292.968,956.683,0.149859,-0.189214,-1.72956,
2026_07_06_20_15_53.787,3.859,54.2,0,0.777,0,0,0,0, ,0,0,0,0,0, ,-44,312,966.5,0.3,1,-3.1,25,-51.9259,293.716,957.041,0.152915,-0.147215,-1.78565,
2026_07_06_20_15_53.812,3.859,54.2,0,0.777,0,0,0,0, ,0,0,0,0,0, ,-60.6,280.8,944.3,-1.9,3.8,-4.9,25,-51.9487,293.88,956.941,0.0948466,0.00800555,-1.92059,
2026_07_06_20_15_53.827,3.859,54.2,0,0.779,0,0,0,0, ,0,0,0,0,0, ,-53.8,291.2,938.9,0.3,0.3,-3,25,-52.2687,293.4,956.006,0.0403169,0.13244,-2.04426,
2026_07_06_20_15_53.854,3.859,54.2,0,0.777,0,0,0,0, ,0,0,0,0,0, ,-80.5,304.5,948.3,1.7,1,-2.6,25,-53.1756,293.671,955.25,0.0987976,0.163978,-2.09031,
2026_07_06_20_15_53.866,3.859,54.1,0,0.778,0,0,0,0, ,0,0,0,0,0, ,-49.8,294,946.4,1.5,1.7,-2.2,25,-53.9053,294.011,954.769,0.190277,0.236252,-2.10918,
2026_07_06_20_15_53.891,3.859,54.2,0,0.777,0,0,0,0, ,0,0,0,0,0, ,-48.7,291.2,957.1,1.9,-0.3,-1,25,-53.6216,293.925,954.585,0.282276,0.264511,-2.07815,
2026_07_06_20_15_53.906,3.859,54.2,0,0.776,0,0,0,0, ,0,0,0,0,0, ,-53.2,296.5,953.1,1,-0.9,-1,25,-53.4588,293.92,954.616,0.353434,0.21183,-2.01245,
2026_07_06_20_15_53.931,3.859,54.1,0,0.776,0,0,0,0, ,0,0,0,0,0, ,-51.6,300.4,956.2,2.1,0.2,-0.7,25,-53.3943,294.196,954.618,0.42635,0.177594,-1.94162,
2026_07_06_20_15_53.945,3.859,54.1,0,0.777,0,0,0,0, ,0,0,0,0,0, ,-58.1,302.7,958.9,1.7,0.4,-0.6,25,-53.483,294.644,954.797,0.51615,0.185053,-1.86291,
2026_07_06_20_15_53.971,3.859,54.2,0,0.777,0,0,0,0, ,0,0,0,0,0, ,-64.4,321.1,950.1,1.4,0,-0.5,25,-53.9563,295.696,954.779,0.579151,0.185964,-1.7829,
2026_07_06_20_15_53.988,3.859,54.1,0,0.777,0,0,0,0, ,0,0,0,0,0, ,-63.9,294.1,940.7,1.8,-0.2,-2.3,25,-54.5774,296.421,954.207,0.641359,0.168538,-1.75957,
2026_07_06_20_15_54.013,3.859,54.2,0,0.776,0,0,0,0, ,0,0,0,0,0, ,-61,301.6,959.9,0.3,0,-1.5,25,-55.0572,296.508,953.969,0.66626,0.152174,-1.76813,
2026_07_06_20_15_54.024,3.859,54.2,0,0.777,0,0,0,0, ,0,0,0,0,0, ,-41.1,308.7,965.3,-0.1,0.1,-0.8,25,-54.813,297.035,954.495,0.631754,0.145947,-1.73046,
2026_07_06_20_15_54.050,3.859,54.1,0,0.777,0,0,0,0, ,0,0,0,0,0, ,-55.2,308.7,954.2,0.6,1.4,-0.1,25,-54.407,297.746,954.815,0.608491,0.182757,-1.65243,
2026_07_06_20_15_54.063,3.859,54.1,0,0.776,0,0,0,0, ,0,0,0,0,0, ,-59.5,310.5,962.1,1.4,2.3,0.6,25,-54.5863,298.468,955.018,0.632348,0.284355,-1.5365,
2026_07_06_20_15_54.090,3.859,54.1,0,0.775,0,0,0,0, ,0,0,0,0,0, ,-61.5,315.1,979.1,2.2,6.8,0,25,-54.9467,299.342,955.968,0.703502,0.544292,-1.42459,
2026_07_06_20_15_54.104,3.859,54.1,0,0.777,0,0,0,0, ,0,0,0,0,0, ,-65.9,325.9,960.4,1.6,12.1,0.3,25,-55.4801,300.631,956.808,0.776414,1.08698,-1.32864,
2026_07_06_20_15_54.132,3.859,54.1,0,0.777,0,0,0,0, ,0,0,0,0,0, ,-60.5,337.8,950.6,2,13.6,-0.3,25,-55.9505,302.533,956.728,0.838788,1.80379,-1.24767,
2026_07_06_20_15_54.144,3.859,54,0,0.776,0,0,0,0, ,0,0,0,0,0, ,-59.4,346.4,953.3,1.2,7.8,-1.9,25,-56.1942,304.944,956.437,0.885175,2.34591,-1.23868,
2026_07_06_20_15_54.169,3.859,54.1,0,0.778,0,0,0,0, ,0,0,0,0,0, ,-53.7,340.2,955.9,-0.3,5.2,-1.7,25,-56.2159,307.282,956.325,0.858656,2.59905,-1.27288,
2026_07_06_20_15_54.183,3.859,54.1,0,0.776,0,0,0,0, ,0,0,0,0,0, ,-51,373.4,954.2,-1.1,2.2,1.2,25,-55.9803,310.299,956.247,0.763676,2.66613,-1.21055,
2026_07_06_20_15_54.209,3.859,54.1,0,0.777,0,0,0,0, ,0,0,0,0,0, ,-72.6,400.8,943.7,1.8,4,3.1,25,-56.335,314.979,955.803,0.738467,2.69257,-1.00577,
2026_07_06_20_15_54.222,3.859,54,0,0.777,0,0,0,0, ,0,0,0,0,0, ,-70.9,429,967,6.4,12.7,1.9,25,-57.2743,321.068,955.775,0.943311,3.03732,-0.792134,
2026_07_06_20_15_54.247,3.859,54,0,0.776,0,0,0,0, ,0,0,0,0,0, ,-61.6,421.3,979.3,6.5,15.9,0.2,25,-57.8213,327.411,956.834,1.27887,3.72364,-0.679879,
2026_07_06_20_15_54.261,3.859,54.1,0,0.776,0,0,0,0, ,0,0,0,0,0, ,-52.7,408.4,1004.7,2.6,12,-2.7,25,-57.7804,332.739,958.977,1.47821,4.34681,-0.71462,
2026_07_06_20_15_54.289,3.859,54,0,0.776,0,0,0,0, ,0,0,0,0,0, ,-39.7,420.8,984.1,3.4,9.1,-4.1,25,-57.0747,337.727,961.135,1.57094,4.72482,-0.878261,
2026_07_06_20_15_54.301,3.859,54,0,0.775,0,0,0,0, ,0,0,0,0,0, ,-29.4,417.3,977.2,8.9,12,-1.1,25,-55.7021,342.683,962.325,1.84998,5.07979,-0.983179,
2026_07_06_20_15_54.327,3.859,54.1,0,0.776,0,0,0,0, ,0,0,0,0,0, ,-30.2,415.4,1005.6,10.3,14.4,2.3,25,-54.1237,347.172,964.096,2.32225,5.57461,-0.886704,
2026_07_06_20_15_54.342,3.859,54,0,0.777,0,0,0,0, ,0,0,0,0,0, ,-31.3,423.4,1028.9,8.3,10.1,2.9,25,-52.6994,351.573,967.335,2.74745,5.9814,-0.674233,
2026_07_06_20_15_54.375,3.859,54,0,0.776,0,0,0,0, ,0,0,0,0,0, ,-42.9,446.4,1035.5,8.8,8.7,2.7,25,-51.7488,356.651,971.288,3.10105,6.18972,-0.462522,
2026_07_06_20_15_54.380,3.859,54,0,0.775,0,0,0,0, ,0,0,0,0,0, ,-65.5,457.6,1010.2,14,11.1,0,25,-51.8981,362.461,974.43,3.60676,6.41581,-0.352072,
2026_07_06_20_15_54.407,3.859,54,0,0.777,0,0,0,0, ,0,0,0,0,0, ,-60.3,441.8,1044.4,15.4,13.6,0.6,25,-52.5686,367.778,977.652,4.28276,6.77743,-0.312336,
2026_07_06_20_15_54.419,3.859,54,0,0.777,0,0,0,0, ,0,0,0,0,0, ,-55.5,453.9,1078.7,14.9,14.8,5.8,25,-52.8934,372.657,982.764,4.94498,7.22974,-0.098303,
2026_07_06_20_15_54.446,3.859,54,0,0.776,0,0,0,0, ,0,0,0,0,0, ,-77.7,499.6,1089.5,19.3,11,7.8,25,-53.7287,379,988.94,5.68568,7.57527,0.322062,
2026_07_06_20_15_54.460,3.859,53.8,0,0.776,0,0,0,0, ,0,0,0,0,0, ,-76.7,477.2,1154.1,19,4.5,4.5,25,-55.159,385.667,997.036,6.50616,7.58592,0.677202,
2026_07_06_20_15_54.486,3.859,53.8,0,0.775,0,0,0,0, ,0,0,0,0,0, ,-78.9,436.4,1218,8.3,-2.5,8,25,-56.5387,390.001,1008.55,6.94149,7.18459,1.01679,
2026_07_06_20_15_54.499,3.859,53.8,0,0.776,0,0,0,0, ,0,0,0,0,0, ,-121.7,470.8,1234.7,-1.1,0.1,10.5,25,-59.2054,393.877,1021.83,6.73786,6.67365,1.51851,
2026_07_06_20_15_54.526,3.859,54,0,0.777,0,0,0,0, ,0,0,0,0,0, ,-145.2,456.2,1223.3,-7.8,12.1,8,25,-63.7296,398.12,1034.45,6.0561,6.6387,1.98964,
2026_07_06_20_15_54.538,3.859,53.8,0,0.778,0,0,0,0, ,0,0,0,0,0, ,-153.6,446.6,1264.8,-17.8,23.2,7.8,25,-68.9502,401.366,1047.22,4.90706,7.3097,2.34981,
2026_07_06_20_15_54.565,3.859,53.8,0,0.777,0,0,0,0, ,0,0,0,0,0, ,-161.4,437.6,1223.6,-29.9,27.6,6.8,25,-74.3462,403.849,1059.23,3.15468,8.41208,2.65146,
2026_07_06_20_15_54.578,3.859,53.8,0,0.776,0,0,0,0, ,0,0,0,0,0, ,-181.3,424.8,1164.1,-32.5,15.3,7.6,25,-80.2574,405.515,1067.43,1.06119,9.20657,2.92863,
2026_07_06_20_15_54.605,3.859,53.8,0,0.776,0,0,0,0, ,0,0,0,0,0, ,-212.6,387.5,1165,-35.2,9.1,7.2,25,-87.3683,405.554,1073.35,-1.06621,9.38899,3.20111,
2026_07_06_20_15_54.618,3.859,53.7,0,0.777,0,0,0,0, ,0,0,0,0,0, ,-251.9,461.6,1172.4,-21.7,18.5,-9.5,25,-96.197,406.712,1079.16,-2.73491,9.65778,2.93596,
2026_07_06_20_15_54.644,3.859,53.8,0,0.776,0,0,0,0, ,0,0,0,0,0, ,-271.2,289.5,1097.4,-38.7,13.3,-1.5,25,-106.273,404.813,1082.56,-4.40856,10.0382,2.4219,
2026_07_06_20_15_54.657,3.859,53.7,0,0.776,0,0,0,0, ,0,0,0,0,0, ,-259.5,357.5,1068.3,-45,0.9,-0.3,25,-115.967,399.858,1082.57,-6.69015,9.85912,2.21947,
2026_07_06_20_15_54.685,3.859,53.8,0,0.776,0,0,0,0, ,0,0,0,0,0, ,-282.8,273.9,1092.2,-47.5,-4.4,-0.3,25,-125.423,394.729,1082.43,-9.10083,9.15169,2.06594,
2026_07_06_20_15_54.697,3.859,53.8,0,0.776,0,0,0,0, ,0,0,0,0,0, ,-260.7,279.4,1021.9,-49.3,-1.8,3.3,25,-134.34,387.534,1080.89,-11.4956,8.4051,2.03145,
2026_07_06_20_15_54.725,3.859,53.7,0,0.777,0,0,0,0, ,0,0,0,0,0, ,-255.7,224.2,1012.5,-49.9,0.7,-8.5,25,-141.888,379.263,1077,-13.8176,7.8594,1.74922,
2026_07_06_20_15_54.737,3.859,53.7,0,0.779,0,0,0,0, ,0,0,0,0,0, ,-238.1,179,991.5,-51,6.3,-1.4,25,-148.287,368.436,1072.43,-16.0499,7.59375,1.34099,
2026_07_06_20_15_54.765,3.859,53.8,0,0.777,0,0,0,0, ,0,0,0,0,0, ,-250.6,242.7,977.9,-51.3,-9,-0.2,25,-154.141,358.833,1067.09,-18.1888,7.04874,1.21052,
2026_07_06_20_15_54.777,3.859,53.8,0,0.776,0,0,0,0, ,0,0,0,0,0, ,-241.5,177.2,999.8,-51.1,-14.4,-7.1,25,-159.742,349.761,1062.32,-20.2004,5.90624,0.914334,
2026_07_06_20_15_54.805,3.859,53.8,0,0.777,0,0,0,0, ,0,0,0,0,0, ,-255.3,150.5,997.3,-51.3,-8.8,-1.4,25,-165.144,338.432,1058.43,-22.0895,4.83945,0.599633,
2026_07_06_20_15_54.816,3.859,53.7,0,0.776,0,0,0,0, ,0,0,0,0,0, ,-224.6,105.5,983.5,-56.6,-4.6,-12.7,25,-169.703,325.609,1054.29,-24.031,4.13627,0.133483,
2026_07_06_20_15_54.844,3.859,53.7,0,0.778,0,0,0,0, ,0,0,0,0,0, ,-208.7,83,981.9,-57.9,-1.8,-14.6,25,-172.564,311.51,1049.93,-26.0552,3.68921,-0.706448,
2026_07_06_20_15_54.856,3.859,53.7,0,0.776,0,0,0,0, ,0,0,0,0,0, ,-205,72.5,919.1,-59.9,-4.6,-9.8,25,-174.653,297.265,1043.87,-28.0567,3.2694,-1.40684,
2026_07_06_20_15_54.881,3.859,53.8,0,0.778,0,0,0,0, ,0,0,0,0,0, ,-205.8,81.5,912.3,-55.3,-12.4,-6,25,-176.527,283.843,1036.06,-29.857,2.55221,-1.80251,
2026_07_06_20_15_54.895,3.859,53.7,0,0.778,0,0,0,0, ,0,0,0,0,0, ,-209.7,115.1,917.3,-50.9,-18.2,-19.9,25,-178.429,272.537,1028.67,-31.2734,1.46434,-2.48181,
2026_07_06_20_15_54.922,3.859,53.7,0,0.777,0,0,0,0, ,0,0,0,0,0, ,-202,-3.1,902.4,-78.3,-3.8,-3.9,25,-180.1,259.341,1021.43,-33.3042,0.704791,-3.05573,
2026_07_06_20_15_54.934,3.859,53.8,0,0.777,0,0,0,0, ,0,0,0,0,0, ,-204.5,57.3,874.6,-52.3,-7.5,-16.2,25,-181.511,245.189,1013.33,-35.254,0.317546,-3.48195,
2026_07_06_20_15_54.961,3.859,53.7,0,0.775,0,0,0,0, ,0,0,0,0,0, ,-169.3,16.6,880.3,-45.7,-18,-14,25,-181.839,232.5,1005.05,-36.0916,-0.478757,-4.18992,
2026_07_06_20_15_54.974,3.859,53.7,0,0.777,0,0,0,0, ,0,0,0,0,0, ,-132.8,1,869.6,-37.2,-24.3,-6.6,25,-179.963,218.868,997.119,-36.4181,-1.73841,-4.56225,
2026_07_06_20_15_55.002,3.859,53.6,0,0.777,0,0,0,0, ,0,0,0,0,0, ,-144.7,-18.1,862.4,-45.3,-26.9,-1.5,25,-177.452,205.01,989.129,-36.7126,-3.19248,-4.53104,
2026_07_06_20_15_55.013,3.859,53.7,0,0.777,0,0,0,0, ,0,0,0,0,0, ,-139,-34.4,865.7,-48.6,-25.2,0.8,25,-175.282,190.917,981.507,-37.3364,-4.58536,-4.27626,
2026_07_06_20_15_55.040,3.859,53.6,0,0.777,0,0,0,0, ,0,0,0,0,0, ,-140.9,-72.3,878.5,-49.2,-30.7,-0.2,25,-173.129,176.032,974.84,-38.0411,-6.00914,-3.99739,
2026_07_06_20_15_55.053,3.859,53.6,0,0.776,0,0,0,0, ,0,0,0,0,0, ,-83.2,-80,895.9,-48.6,-34.3,9.4,25,-169.407,160.665,969.5,-38.7028,-7.62343,-3.47349,
2026_07_06_20_15_55.082,3.859,53.7,0,0.775,0,0,0,0, ,0,0,0,0,0, ,-93.3,-78,878,-42.8,-42.5,19,25,-164.462,146.06,964.469,-39.1292,-9.49887,-2.39651,
2026_07_06_20_15_55.094,3.859,53.7,0,0.778,0,0,0,0, ,0,0,0,0,0, ,-92.1,-76,877.6,-35.5,-38.5,28.6,25,-160.089,132.468,959.188,-39.1305,-11.388,-0.80016,
2026_07_06_20_15_55.121,3.859,53.6,0,0.776,0,0,0,0, ,0,0,0,0,0, ,-135.1,-83.3,890.3,-32.4,-29.7,28.3,25,-157.256,119.542,954.603,-38.8148,-12.772,0.982271,
2026_07_06_20_15_55.133,3.859,53.6,0,0.776,0,0,0,0, ,0,0,0,0,0, ,-158.6,-87.6,885.3,-38.5,-37,18.2,25,-156.622,107.05,950.532,-38.6097,-14.026,2.33921,
2026_07_06_20_15_55.161,3.859,53.6,0,0.775,0,0,0,0, ,0,0,0,0,0, ,-122.8,-102.4,894.6,-43.4,-36.5,9.7,25,-155.651,94.7375,946.84,-38.7523,-15.4107,3.04674,
2026_07_06_20_15_55.172,3.859,53.7,0,0.776,0,0,0,0, ,0,0,0,0,0, ,-81.7,-125,868.8,-40.8,-27.4,4.2,25,-152.397,82.0359,942.871,-38.9563,-16.4186,3.2846,
2026_07_06_20_15_55.205,3.859,53.6,0,0.775,0,0,0,0, ,0,0,0,0,0, ,-50.1,-129.6,836.1,-44.1,-14.3,3.4,25,-147.126,69.2794,937.361,-39.1692,-16.6886,3.31601,
2026_07_06_20_15_55.211,3.859,53.6,0,0.775,0,0,0,0, ,0,0,0,0,0, ,-30.2,-133.3,838.7,-41.4,-5.1,0.1,25,-140.607,57.0475,931.27,-39.3874,-16.2628,3.22058,
2026_07_06_20_15_55.239,3.859,53.5,0,0.776,0,0,0,0, ,0,0,0,0,0, ,-1,-199.3,863.7,-40.1,-0.9,-9.6,25,-132.99,43.4373,926.39,-39.4705,-15.4546,2.73487,
2026_07_06_20_15_55.251,3.859,53.5,0,0.777,0,0,0,0, ,0,0,0,0,0, ,0.1,-180.5,799.6,-38.1,0.2,-17,25,-124.913,29.2183,920.617,-39.4479,-14.5341,1.75774,
2026_07_06_20_15_55.278,3.859,53.6,0,0.776,0,0,0,0, ,0,0,0,0,0, ,33.9,-215.8,741.8,-34.1,-13.7,-13.2,25,-116.265,15.363,911.481,-39.2439,-14.0598,0.730476,
2026_07_06_20_15_55.291,3.859,53.5,0,0.776,0,0,0,0, ,0,0,0,0,0, ,45,-236.9,750.9,-31.1,-16.4,-4.7,25,-106.776,0.633636,901.419,-38.839,-14.1201,0.140572,
2026_07_06_20_15_55.319,3.859,53.6,0,0.776,0,0,0,0, ,0,0,0,0,0, ,36.1,-224.6,766.1,-27.6,-16.1,-6.7,25,-97.7987,-13.4663,892.71,-38.2608,-14.2499,-0.215338,
2026_07_06_20_15_55.330,3.859,53.6,0,0.775,0,0,0,0, ,0,0,0,0,0, ,38.3,-237.7,762.9,-23.2,-7.7,-9.5,25,-89.5722,-26.7314,884.897,-37.4771,-14.1067,-0.695809,
2026_07_06_20_15_55.360,3.859,53.5,0,0.776,0,0,0,0, ,0,0,0,0,0, ,68.2,-242.9,768.5,-19.8,4.9,-11.8,25,-80.869,-39.7457,877.633,-36.5035,-13.3324,-1.30239,
2026_07_06_20_15_55.369,3.859,53.5,0,0.776,0,0,0,0, ,0,0,0,0,0, ,91.3,-267.5,789,-18.3,0.4,-16.1,25,-71.0813,-52.875,871.608,-35.4399,-12.3585,-2.07311,
2026_07_06_20_15_55.397,3.859,53.4,0,0.776,0,0,0,0, ,0,0,0,0,0, ,106.4,-250.2,800.4,-14.7,-6.1,-15.2,25,-60.7261,-65.4266,866.921,-34.2858,-11.7791,-2.90045,
2026_07_06_20_15_55.409,3.859,53.5,0,0.776,0,0,0,0, ,0,0,0,0,0, ,116,-238.4,798.3,-13.8,-6.3,-9.8,25,-50.2494,-76.3267,862.803,-33.0648,-11.4391,-3.48542,
2026_07_06_20_15_55.436,3.859,53.5,0,0.776,0,0,0,0, ,0,0,0,0,0, ,112.6,-243.8,815.7,-9.2,-9.7,-5.8,25,-40.2221,-86.3676,859.403,-31.7507,-11.2295,-3.74834,
2026_07_06_20_15_55.448,3.859,53.6,0,0.777,0,0,0,0, ,0,0,0,0,0, ,116.8,-255.9,869,-5.1,-10.5,-0.9,25,-30.7816,-96.3298,858.364,-30.2516,-11.1607,-3.72407,
2026_07_06_20_15_55.478,3.859,53.5,0,0.777,0,0,0,0, ,0,0,0,0,0, ,84.1,-249,892,-4.4,-10.7,1.5,25,-22.7846,-105.843,859.713,-28.6976,-11.1265,-3.47885,
2026_07_06_20_15_55.489,3.859,53.5,0,0.776,0,0,0,0, ,0,0,0,0,0, ,63.2,-245.1,905.5,-4.9,-10.8,1.1,25,-16.9082,-114.448,862.092,-27.2322,-11.1036,-3.18764,
2026_07_06_20_15_55.517,3.859,53.5,0,0.776,0,0,0,0, ,0,0,0,0,0, ,57.4,-248.2,927.8,-8.4,-12,-3.4,25,-12.2033,-122.504,865.416,-25.978,-11.1216,-3.06347,
2026_07_06_20_15_55.528,3.859,53.5,0,0.777,0,0,0,0, ,0,0,0,0,0, ,77.3,-235.3,933.5,-8.6,-15,-1.3,25,-7.35551,-129.771,869.391,-24.9129,-11.2666,-3.01999,
2026_07_06_20_15_55.557,3.859,53.6,0,0.776,0,0,0,0, ,0,0,0,0,0, ,58.1,-252.4,921.6,-3.6,-15,-0.1,25,-2.78182,-136.722,872.935,-23.7665,-11.4941,-2.87862,
2026_07_06_20_15_55.568,3.859,53.5,0,0.776,0,0,0,0, ,0,0,0,0,0, ,53.2,-284.4,926.6,-1.2,-6.7,-1.2,25,0.778872,-144.747,876.053,-22.4645,-11.4548,-2.74281,
2026_07_06_20_15_55.597,3.859,53.4,0,0.777,0,0,0,0, ,0,0,0,0,0, ,36,-285.4,936.8,-1.5,-4.4,-5.2,25,3.44922,-153.287,879.444,-21.1778,-11.095,-2.77067,
2026_07_06_20_15_55.607,3.859,53.5,0,0.776,0,0,0,0, ,0,0,0,0,0, ,72,-265.8,930.6,-3.8,-6.7,-6.6,25,6.52966,-160.741,882.75,-20.0488,-10.7571,-2.96137,
2026_07_06_20_15_55.635,3.859,53.4,0,0.775,0,0,0,0, ,0,0,0,0,0, ,86,-261.5,887.5,-1.8,-10.7,-6.3,25,10.9458,-167.012,884.353,-18.9977,-10.6317,-3.17395,
2026_07_06_20_15_55.649,3.859,53.4,0,0.776,0,0,0,0, ,0,0,0,0,0, ,124.6,-285.7,916.1,0,-2.6,-2.1,25,16.6955,-173.507,885.416,-17.8949,-10.3891,-3.23648,
2026_07_06_20_15_55.677,3.859,53.4,0,0.777,0,0,0,0, ,0,0,0,0,0, ,128,-286,945.3,1.7,-5.8,0.9,25,23.3745,-180.353,888.176,-16.7526,-10.012,-3.07582,
2026_07_06_20_15_55.686,3.859,53.4,0,0.777,0,0,0,0, ,0,0,0,0,0, ,109.6,-261.3,963.9,1.2,-10.6,2.6,25,29.1895,-186.038,892.223,-15.6434,-9.90154,-2.78175,
2026_07_06_20_15_55.715,3.859,53.4,0,0.777,0,0,0,0, ,0,0,0,0,0, ,86.3,-241.8,953.9,1.7,-13.5,3.6,25,33.3796,-190.03,896.287,-14.6017,-10.0325,-2.42333,
2026_07_06_20_15_55.726,3.859,53.5,0,0.777,0,0,0,0, ,0,0,0,0,0, ,77,-263.7,956.2,3.4,-10.8,1.9,25,36.3211,-193.852,899.867,-13.5566,-10.1615,-2.10808,
2026_07_06_20_15_55.754,3.859,53.5,0,0.776,0,0,0,0, ,0,0,0,0,0, ,85.6,-264.7,961.3,2.7,-5.8,1.6,25,39.062,-198.139,903.456,-12.5446,-10.0481,-1.87298,
2026_07_06_20_15_55.766,3.859,53.5,0,0.776,0,0,0,0, ,0,0,0,0,0, ,82.7,-256.2,987.6,2.1,-8.5,2.6,25,41.8096,-201.936,907.782,-11.6339,-9.87147,-1.63087,
2026_07_06_20_15_55.794,3.859,53.4,0,0.776,0,0,0,0, ,0,0,0,0,0, ,74,-269.2,986.2,0,-7.6,1.1,25,44.0362,-205.639,912.603,-10.861,-9.76047,-1.41876,
2026_07_06_20_15_55.805,3.859,53.4,0,0.776,0,0,0,0, ,0,0,0,0,0, ,68.1,-268.5,947.2,-0.1,-3.2,-3.5,25,45.6824,-209.491,915.9,-10.2022,-9.49475,-1.40543,
2026_07_06_20_15_55.834,3.859,53.4,0,0.776,0,0,0,0, ,0,0,0,0,0, ,87.2,-264.1,934.3,1.7,0.8,-2.6,25,47.6304,-212.953,917.414,-9.53174,-8.98929,-1.50564,
2026_07_06_20_15_55.844,3.859,53.4,0,0.777,0,0,0,0, ,0,0,0,0,0, ,110.5,-264.6,943.7,2.9,-0.2,-0.6,25,50.7516,-216.085,918.729,-8.81075,-8.42323,-1.51139,
2026_07_06_20_15_55.873,3.859,53.4,0,0.776,0,0,0,0, ,0,0,0,0,0, ,108.7,-279.9,978.2,1.2,-3.4,0.9,25,54.3377,-219.507,921.302,-8.14892,-8.01962,-1.41015,
2026_07_06_20_15_55.885,3.859,53.4,0,0.777,0,0,0,0, ,0,0,0,0,0, ,78.6,-259.3,963.3,-0.7,-5.9,-2.1,25,56.7333,-222.56,924.315,-7.63711,-7.81429,-1.36078,
2026_07_06_20_15_55.914,3.859,53.4,0,0.776,0,0,0,0, ,0,0,0,0,0, ,82.7,-239,946.2,-0.1,-0.8,-2,25,58.1907,-224.18,926.17,-7.1961,-7.54224,-1.40278,
2026_07_06_20_15_55.924,3.859,53.3,0,0.777,0,0,0,0, ,0,0,0,0,0, ,96.8,-267.2,972,1.2,-1.4,0.1,25,60.1138,-225.942,928.177,-6.72407,-7.14967,-1.37519,
2026_07_06_20_15_55.952,3.859,53.3,0,0.776,0,0,0,0, ,0,0,0,0,0, ,93.8,-254.1,963.8,1.5,-3.7,2.1,25,62.258,-228.057,930.597,-6.23206,-6.86938,-1.22436,
2026_07_06_20_15_55.963,3.859,53.3,0,0.776,0,0,0,0, ,0,0,0,0,0, ,80.5,-266.8,966.1,1.4,-5.9,2.5,25,63.7749,-230.031,932.691,-5.76393,-6.74328,-1.00959,
2026_07_06_20_15_55.992,3.859,53.3,0,0.776,0,0,0,0, ,0,0,0,0,0, ,71.5,-271.4,962,0.7,-8.3,0,25,64.5198,-232.412,934.602,-5.34871,-6.76501,-0.871899,
2026_07_06_20_15_56.003,3.859,53.4,0,0.777,0,0,0,0, ,0,0,0,0,0, ,77.5,-260.2,963.6,0.4,-4.3,-2.2,25,65.128,-234.447,936.32,-4.98926,-6.73668,-0.885799,
2026_07_06_20_15_56.031,3.859,53.3,0,0.776,0,0,0,0, ,0,0,0,0,0, ,83.3,-264,946,1.4,-2.6,-1.1,25,66.0586,-236.132,937.446,-4.63038,-6.53639,-0.932367,
2026_07_06_20_15_56.042,3.859,53.4,0,0.776,0,0,0,0, ,0,0,0,0,0, ,82.7,-255.9,947.9,2.4,-6.6,0,25,67.091,-237.583,938.025,-4.23244,-6.4184,-0.909067,
2026_07_06_20_15_56.072,3.859,53.3,0,0.776,0,0,0,0, ,0,0,0,0,0, ,93,-258.1,982.5,2.9,-6.8,0.3,25,68.356,-238.766,939.681,-3.81304,-6.43556,-0.84453,
2026_07_06_20_15_56.088,3.859,53.3,0,0.776,0,0,0,0, ,0,0,0,0,0, ,109.6,-271.7,1005.9,1.5,-0.7,-1.6,25,70.3635,-240.359,943.003,-3.44662,-6.2719,-0.832676,
2026_07_06_20_15_56.116,3.859,53.3,0,0.774,0,0,0,0, ,0,0,0,0,0, ,101.1,-239.6,990.7,-1.2,-0.5,-1,25,72.4955,-241.291,946.373,-3.22745,-5.92627,-0.861153,
2026_07_06_20_15_56.122,3.859,53.3,0,0.777,0,0,0,0, ,0,0,0,0,0, ,83.2,-248.2,952.3,-3.2,-3,0.2,25,73.6932,-241.45,947.904,-3.16484,-5.67178,-0.833052,
2026_07_06_20_15_56.151,3.859,53.2,0,0.776,0,0,0,0, ,0,0,0,0,0, ,86.3,-271.7,943.9,-3.4,-1.9,-2.8,25,74.367,-242.577,947.916,-3.17307,-5.47545,-0.861506,
2026_07_06_20_15_56.161,3.859,53.1,0,0.776,0,0,0,0, ,0,0,0,0,0, ,95.2,-260.3,946.4,-2.5,0.2,-3.5,25,75.3653,-244.004,947.748,-3.15948,-5.19359,-1.00096,
2026_07_06_20_15_56.191,3.859,53.3,0,0.776,0,0,0,0, ,0,0,0,0,0, ,117.1,-248.6,967.4,-0.8,1.8,-1,25,77.2413,-244.641,948.305,-3.0675,-4.81617,-1.07707,
2026_07_06_20_15_56.201,3.859,53.2,0,0.776,0,0,0,0, ,0,0,0,0,0, ,111.6,-255.9,979.1,-2.8,1.2,-1.1,25,79.5026,-245.105,949.825,-2.99026,-4.43128,-1.07542,
2026_07_06_20_15_56.231,3.859,53.3,0,0.777,0,0,0,0, ,0,0,0,0,0, ,106.4,-261.2,936.8,-4.2,2.7,-0.6,25,81.3001,-245.924,950.32,-3.02132,-4.04242,-1.06169,
2026_07_06_20_15_56.241,3.859,53.3,0,0.777,0,0,0,0, ,0,0,0,0,0, ,110.2,-264.2,952.1,-0.6,-0.4,2.5,25,82.9454,-246.946,949.963,-2.98346,-3.72601,-0.939101,
2026_07_06_20_15_56.268,3.859,53.3,0,0.776,0,0,0,0, ,0,0,0,0,0, ,91,-245.6,972.2,0.8,-4.4,3.8,25,84.0212,-247.431,950.705,-2.79556,-3.6452,-0.689921,
2026_07_06_20_15_56.280,3.859,53.3,0,0.775,0,0,0,0, ,0,0,0,0,0, ,69.5,-267.4,972.7,-0.4,-2.9,2.3,25,83.7914,-247.984,952.03,-2.61302,-3.64549,-0.46202,
2026_07_06_20_15_56.310,3.859,53.2,0,0.776,0,0,0,0, ,0,0,0,0,0, ,75.1,-270.6,950.5,-3.5,1.6,-1.9,25,83.0911,-249.264,952.614,-2.57262,-3.46296,-0.421678,
2026_07_06_20_15_56.320,3.859,53.1,0,0.776,0,0,0,0, ,0,0,0,0,0, ,97.6,-273.8,957.8,-2.8,2.5,-1.4,25,83.2897,-250.662,952.707,-2.6078,-3.12701,-0.496529,
2026_07_06_20_15_56.349,3.859,53.2,0,0.776,0,0,0,0, ,0,0,0,0,0, ,91.5,-251.7,944,-0.9,-2.7,0.1,25,83.9759,-251.399,952.597,-2.56162,-2.94255,-0.505881,
2026_07_06_20_15_56.359,3.859,53.2,0,0.776,0,0,0,0, ,0,0,0,0,0, ,72.7,-263.9,941.6,0.5,-1.2,0.2,25,83.8616,-251.789,952,-2.41771,-2.88207,-0.465913,
2026_07_06_20_15_56.390,3.859,53.2,0,0.777,0,0,0,0, ,0,0,0,0,0, ,83.6,-281.9,940.6,0.1,1.4,-2.3,25,83.5135,-253.075,951.336,-2.2521,-2.70035,-0.501506,
2026_07_06_20_15_56.399,3.859,53.1,0,0.776,0,0,0,0, ,0,0,0,0,0, ,90.5,-287.8,961.9,0.7,-1.7,-1.1,25,83.729,-255.011,951.331,-2.09049,-2.54494,-0.574539,
2026_07_06_20_15_56.428,3.859,53.1,0,0.776,0,0,0,0, ,0,0,0,0,0, ,78,-270,966.9,0,-4.9,-0.8,25,83.7608,-256.467,952.127,-1.94177,-2.59095,-0.597419,
2026_07_06_20_15_56.439,3.859,53.1,0,0.776,0,0,0,0, ,0,0,0,0,0, ,73.8,-252.8,947.7,-0.8,-1.9,-2.7,25,83.2818,-256.768,952.442,-1.84782,-2.64025,-0.667654,
2026_07_06_20_15_56.469,3.859,53.3,0,0.776,0,0,0,0, ,0,0,0,0,0, ,76.2,-260.2,937.7,1.3,0.7,-2.3,25,82.7771,-256.751,951.849,-1.71998,-2.51592,-0.779313,
2026_07_06_20_15_56.478,3.859,53.1,0,0.775,0,0,0,0, ,0,0,0,0,0, ,78.7,-275.2,967.2,3.2,-0.4,-2.1,25,82.4525,-257.419,951.885,-1.47806,-2.35347,-0.865886,
2026_07_06_20_15_56.506,3.859,53.1,0,0.776,0,0,0,0, ,0,0,0,0,0, ,86.9,-250.1,986.3,1.3,-3.5,-2.2,25,82.4737,-257.737,953.4,-1.25088,-2.32888,-0.944137,
2026_07_06_20_15_56.518,3.859,53.2,0,0.776,0,0,0,0, ,0,0,0,0,0, ,85.3,-246.5,984.7,-0.8,-5.8,-2,25,82.6946,-257.162,955.357,-1.15942,-2.47032,-1.01457,
2026_07_06_20_15_56.549,3.859,53.2,0,0.776,0,0,0,0, ,0,0,0,0,0, ,72.2,-271.1,969.8,-0.4,-2.6,-4.3,25,82.4543,-257.262,956.691,-1.12533,-2.57573,-1.1447,
2026_07_06_20_15_56.557,3.859,53.2,0,0.776,0,0,0,0, ,0,0,0,0,0, ,102.7,-265.8,957.2,0.7,3.8,-6.7,25,82.7587,-257.944,957.106,-1.04762,-2.38221,-1.4101,
2026_07_06_20_15_56.587,3.859,53.1,0,0.777,0,0,0,0, ,0,0,0,0,0, ,127.6,-251,967.1,1.3,1.1,-3.9,25,84.7325,-257.972,957.413,-0.922841,-2.08774,-1.64714,
2026_07_06_20_15_56.599,3.859,53.1,0,0.777,0,0,0,0, ,0,0,0,0,0, ,111.4,-252.1,966.6,1.1,-6.5,0.3,25,86.8512,-257.58,957.988,-0.793481,-2.12505,-1.65646,
2026_07_06_20_15_56.630,3.859,53.1,0,0.778,0,0,0,0, ,0,0,0,0,0, ,92.4,-259.5,974.3,0.8,-5.6,-1.1,25,87.7682,-257.472,958.747,-0.687237,-2.36423,-1.57989,
2026_07_06_20_15_56.637,3.859,53,0,0.777,0,0,0,0, ,0,0,0,0,0, ,101.8,-246.3,972.4,0.4,0.6,-2.9,25,88.3369,-257.193,959.637,-0.608796,-2.3725,-1.60549,
2026_07_06_20_15_56.666,3.859,53.1,0,0.776,0,0,0,0, ,0,0,0,0,0, ,112.4,-253.5,976.4,1.1,0.5,-1.7,25,89.4802,-256.749,960.537,-0.525995,-2.19441,-1.64781,
2026_07_06_20_15_56.676,3.859,53.1,0,0.776,0,0,0,0, ,0,0,0,0,0, ,102.1,-239.3,948.7,-0.7,-1,-0.4,25,90.5631,-256.118,960.66,-0.481754,-2.07593,-1.61138,
2026_07_06_20_15_56.706,3.859,53.1,0,0.775,0,0,0,0, ,0,0,0,0,0, ,91,-258,943.1,-0.1,-1.6,-0.6,25,90.9279,-255.663,959.76,-0.476773,-2.02864,-1.54366,
2026_07_06_20_15_56.716,3.859,53,0,0.775,0,0,0,0, ,0,0,0,0,0, ,99.9,-265.9,958.1,1.2,0.5,-2.4,25,91.2035,-256.046,959.202,-0.414204,-1.93854,-1.541,
2026_07_06_20_15_56.746,3.859,53.1,0,0.775,0,0,0,0, ,0,0,0,0,0, ,103.7,-246.3,971.3,2,-0.6,-1.7,25,91.8492,-256.049,959.537,-0.291463,-1.82345,-1.57202,
2026_07_06_20_15_56.755,3.859,53,0,0.775,0,0,0,0, ,0,0,0,0,0, ,105.3,-246.2,977.1,0.7,-2,-1.4,25,92.6201,-255.452,960.431,-0.191436,-1.79156,-1.57067,
2026_07_06_20_15_56.787,3.859,53.1,0,0.775,0,0,0,0, ,0,0,0,0,0, ,115.1,-262.5,971.3,-1,-0.6,-1,25,93.6914,-255.385,961.27,-0.188911,-1.7616,-1.54809,
2026_07_06_20_15_56.795,3.859,53,0,0.775,0,0,0,0, ,0,0,0,0,0, ,111.4,-242.9,967.4,-0.8,-3.6,-1,25,94.8832,-255.222,961.762,-0.232243,-1.78222,-1.51469,
2026_07_06_20_15_56.825,3.859,53.1,0,0.776,0,0,0,0, ,0,0,0,0,0, ,95.2,-231.5,963.8,0.1,-3.7,-0.1,25,95.3961,-254.123,961.996,-0.239419,-1.89604,-1.4559,
2026_07_06_20_15_56.834,3.859,53.1,0,0.776,0,0,0,0, ,0,0,0,0,0, ,89.7,-249.7,958.7,0,-2.3,-1.2,25,95.2166,-253.299,961.95,-0.221783,-1.96331,-1.40679,
2026_07_06_20_15_56.867,3.859,53.1,0,0.778,0,0,0,0, ,0,0,0,0,0, ,105.2,-261.5,947.3,-2,2.5,-3.8,25,95.3527,-253.439,961.405,-0.269205,-1.83758,-1.47341,
2026_07_06_20_15_56.874,3.859,53.1,0,0.777,0,0,0,0, ,0,0,0,0,0, ,128.4,-257.3,952.6,-2.6,0.8,-1.4,25,96.6597,-253.803,960.707,-0.392957,-1.62506,-1.54206,
2026_07_06_20_15_56.904,3.859,53.1,0,0.777,0,0,0,0, ,0,0,0,0,0, ,119.8,-249.8,948.4,-0.5,-3.6,0.7,25,98.3318,-253.787,960.085,-0.463464,-1.61134,-1.46942,
2026_07_06_20_15_56.914,3.859,53,0,0.776,0,0,0,0, ,0,0,0,0,0, ,96,-253.2,946.8,1.1,-2.3,1.3,25,98.9149,-253.648,959.324,-0.416941,-1.69292,-1.31894,
2026_07_06_20_15_56.945,3.859,53,0,0.776,0,0,0,0, ,0,0,0,0,0, ,93.2,-246.8,947.3,0.1,-1.7,-1.3,25,98.6519,-253.426,958.576,-0.354971,-1.71163,-1.23857,
2026_07_06_20_15_56.954,3.859,53,0,0.775,0,0,0,0, ,0,0,0,0,0, ,106.5,-250.9,937.1,-0.8,-0.8,-2.9,25,98.7249,-253.147,957.578,-0.354668,-1.6835,-1.29106,
2026_07_06_20_15_56.984,3.859,53,0,0.776,0,0,0,0, ,0,0,0,0,0, ,121.2,-241.8,931,0.7,-2.7,-1.4,25,99.6466,-252.733,956.145,-0.336102,-1.68755,-1.3434,
2026_07_06_20_15_56.992,3.859,53,0,0.776,0,0,0,0, ,0,0,0,0,0, ,109.7,-248.1,941,1.6,-5.7,-0.6,25,100.61,-252.258,954.917,-0.245543,-1.84065,-1.32248,
2026_07_06_20_15_57.023,3.859,53.1,0,0.777,0,0,0,0, ,0,0,0,0,0, ,104.1,-253.6,916.8,0.8,-4,-4.1,25,100.993,-252.173,953.332,-0.157455,-2.02404,-1.38509,
2026_07_06_20_15_57.032,3.859,53,0,0.776,0,0,0,0, ,0,0,0,0,0, ,136.4,-261.4,892.9,1.3,0.7,-5.9,25,102.166,-252.497,950.377,-0.0838758,-2.00124,-1.60537,
2026_07_06_20_15_57.062,3.859,52.9,0,0.775,0,0,0,0, ,0,0,0,0,0, ,156.9,-238.1,864.3,3.1,-1.7,-2.9,25,104.877,-252.33,946.003,0.0552979,-1.90976,-1.77567,
2026_07_06_20_15_57.072,3.859,53,0,0.775,0,0,0,0, ,0,0,0,0,0, ,147.3,-223.1,827.3,5,-10.8,-0.3,25,107.755,-251.006,939.897,0.298725,-2.17424,-1.76497,
2026_07_06_20_15_57.103,3.859,53,0,0.776,0,0,0,0, ,0,0,0,0,0, ,126,-228,805,7.5,-16,-3.1,25,109.516,-249.454,932.356,0.661381,-2.85831,-1.76101,
2026_07_06_20_15_57.112,3.859,53,0,0.776,0,0,0,0, ,0,0,0,0,0, ,169.7,-225.4,827.3,8.1,-7.1,-8.9,25,111.852,-248.068,925.275,1.09639,-3.38796,-2.01932,
2026_07_06_20_15_57.143,3.859,52.9,0,0.777,0,0,0,0, ,0,0,0,0,0, ,219.4,-191.1,797.7,8.9,5.2,-10.9,25,116.891,-245.641,918.403,1.54755,-3.2394,-2.49955,
2026_07_06_20_15_57.151,3.859,52.9,0,0.776,0,0,0,0, ,0,0,0,0,0, ,219.1,-196.4,731.4,11.2,2.9,-5.8,25,123.129,-242.479,909.027,2.06567,-2.7952,-2.85606,
2026_07_06_20_15_57.183,3.859,52.9,0,0.776,0,0,0,0, ,0,0,0,0,0, ,190.9,-227.2,701,14.8,-9.5,-2.3,25,128.118,-240.61,897.277,2.73198,-2.82596,-2.92882,
2026_07_06_20_15_57.191,3.859,52.9,0,0.776,0,0,0,0, ,0,0,0,0,0, ,159.7,-167.1,667.9,17.3,-30,-0.5,25,130.993,-237.961,884.308,3.54354,-3.85727,-2.83566,
2026_07_06_20_15_57.221,3.859,52.9,0,0.775,0,0,0,0, ,0,0,0,0,0, ,94.2,-136.1,645.6,20.8,-50,-1.7,25,130.746,-232.699,870.441,4.48847,-6.05972,-2.72989,
2026_07_06_20_15_57.233,3.859,52.9,0,0.777,0,0,0,0, ,0,0,0,0,0, ,108.1,-185.5,645.5,23.8,-46.6,-13.1,25,128.943,-228.317,856.737,5.57386,-8.63374,-3.01447,
2026_07_06_20_15_57.263,3.859,52.9,0,0.776,0,0,0,0, ,0,0,0,0,0, ,145,-213.1,680.6,24.7,-27.2,-18.2,25,128.797,-226.549,844.934,6.71194,-10.3562,-3.78445,
2026_07_06_20_15_57.270,3.859,52.8,0,0.776,0,0,0,0, ,0,0,0,0,0, ,157.7,-145.1,674.9,19.1,-12.6,-18,25,130.171,-223.658,834.746,7.63746,-10.9378,-4.6568,
2026_07_06_20_15_57.300,3.859,52.8,0,0.777,0,0,0,0, ,0,0,0,0,0, ,74.7,-37.5,593.9,20.4,-22.9,-25.2,25,129.32,-215.592,822.538,8.37557,-11.3529,-5.68928,
2026_07_06_20_15_57.310,3.859,52.9,0,0.775,0,0,0,0, ,0,0,0,0,0, ,92.1,-131.5,586.9,28.6,-29,-47.2,25,126.522,-207.604,808.392,9.35815,-12.2424,-7.54853,
2026_07_06_20_15_57.341,3.859,52.9,0,0.774,0,0,0,0, ,0,0,0,0,0, ,146.4,-114.5,601.1,37,-25.1,-54.3,25,126.079,-202.448,795.327,10.7866,-13.1448,-10.1811,
2026_07_06_20_15_57.349,3.859,52.9,0,0.774,0,0,0,0, ,0,0,0,0,0, ,231.8,-50.9,687.6,43.7,-18.1,-42.6,25,129.919,-195.151,786.127,12.5882,-13.66,-12.5131,
2026_07_06_20_15_57.382,3.859,52.8,0,0.776,0,0,0,0, ,0,0,0,0,0, ,230.5,-43.7,775,37.4,-19,-21,25,136.088,-186.141,782.786,14.2921,-13.958,-13.6884,
2026_07_06_20_15_57.389,3.859,53,0,0.775,0,0,0,0, ,0,0,0,0,0, ,109.1,-35.7,691.8,40.3,-30,-26.5,25,138.142,-177.218,779.777,15.7886,-14.6004,-14.3015,
2026_07_06_20_15_57.420,3.859,52.9,0,0.775,0,0,0,0, ,0,0,0,0,0, ,76.4,-49.8,714.3,43.9,-36.5,-43.3,25,135.376,-169.024,775.101,17.3919,-15.7368,-15.5568,
2026_07_06_20_15_57.428,3.859,52.9,0,0.777,0,0,0,0, ,0,0,0,0,0, ,187.7,-32.4,834.7,43.2,-15.7,-49.2,25,135.173,-161.228,775.064,18.9859,-16.3683,-17.4271,
2026_07_06_20_15_57.459,3.859,52.9,0,0.776,0,0,0,0, ,0,0,0,0,0, ,277.9,-68.2,926.3,50.4,12.8,-39.2,25,141.122,-154.468,781.489,20.6809,-15.4593,-19.0586,
2026_07_06_20_15_57.468,3.859,52.9,0,0.777,0,0,0,0, ,0,0,0,0,0, ,223.6,-30.5,894.5,43.4,28.4,-30.8,25,147.803,-148.063,789.345,22.2786,-13.2619,-20.03,
2026_07_06_20_15_57.499,3.859,52.9,0,0.775,0,0,0,0, ,0,0,0,0,0, ,133,22.5,767.4,30,38.7,-47.3,25,149.661,-139.284,791.88,23.1574,-10.4093,-21.1891,
2026_07_06_20_15_57.507,3.859,52.8,0,0.775,0,0,0,0, ,0,0,0,0,0, ,262,-62.6,744.9,29.9,50.6,-50.8,25,152.576,-132.018,789.703,23.5713,-7.05413,-22.8868,
2026_07_06_20_15_57.539,3.859,52.8,0,0.776,0,0,0,0, ,0,0,0,0,0, ,296.3,-68.7,793.4,40.4,40.8,-34,25,160.29,-127.974,788.45,24.2769,-3.83942,-24.0759,
2026_07_06_20_15_57.547,3.859,52.8,0,0.776,0,0,0,0, ,0,0,0,0,0, ,250.8,-81.4,903.6,42.8,5.6,-1.4,25,167.191,-124.749,792.11,25.3325,-2.19171,-23.6874,
2026_07_06_20_15_57.578,3.859,52.8,0,0.774,0,0,0,0, ,0,0,0,0,0, ,93,30.2,874.5,27.3,-8,8.7,25,167.478,-118.707,798.017,25.9247,-2.13127,-22.0215,
2026_07_06_20_15_57.586,3.859,52.8,0,0.775,0,0,0,0, ,0,0,0,0,0, ,38.3,162.7,789.6,23.5,2.5,-19.8,25,161.273,-105.596,800.091,25.8927,-2.16898,-21.0178,
2026_07_06_20_15_57.617,3.859,52.8,0,0.775,0,0,0,0, ,0,0,0,0,0, ,152.4,136.7,907.9,46.4,-12.2,-29.1,25,157.256,-90.0387,803.056,26.4446,-2.33235,-21.2269,
2026_07_06_20_15_57.626,3.859,52.8,0,0.776,0,0,0,0, ,0,0,0,0,0, ,143.9,63.2,1067.8,48.8,-16.4,-16.5,25,156.701,-78.4613,814.317,27.7338,-3.06163,-21.3228,
2026_07_06_20_15_57.657,3.859,52.7,0,0.776,0,0,0,0, ,0,0,0,0,0, ,131.7,45.8,1125.7,21.5,30.9,-11.2,25,155.549,-70.359,831.528,28.1857,-2.43327,-20.8674,
