UTC_Time,Vin,TC1,TC2,Rh1,Vh1,Ah1,Acp1,Dty1,Err1,Rh2,Vh2,Ah2,Acp2,Dty2,Err2,Accel_x,Accel_y,Accel_z,gyro_x,gyro_y,gyro_z,Temp_c,Accel_x_h,Accel_y_h,Accel_z_h,gyro_x_h,gyro_y_h,gyro_z_h,
2026_06_10_18_59_55.981,3.864,27.7,0,0.755,0,0,0,0.018, ,0,0,0,0,0, ,-36.8,60.5,1001.3,-0.8,-0.4,-1.6,25,-36.7999,60.4998,1001.3,-0.799997,-0.399999,-1.59999,
2026_06_10_18_59_55.992,3.864,27.6,0,0.756,0,0,0,0.019, ,0,0,0,0,0, ,-37.8,59.9,1002,-0.5,-0.5,-1.6,25,-36.8304,60.4815,1001.32,-0.790857,-0.403046,-1.59999,
2026_06_10_18_59_56.023,3.864,27.6,0,0.756,0,0,0,0.019, ,0,0,0,0,0, ,-37.3,61.6,1001.8,-0.8,-0.5,-1.7,25,-36.8742,60.4979,1001.35,-0.782273,-0.408954,-1.60304,
2026_06_10_18_59_56.039,3.864,27.6,0,0.755,0,0,0,0.02, ,0,0,0,0,0, ,-38,58.2,1001.3,-0.7,-0.4,-1.7,25,-36.9215,60.4615,1001.37,-0.780307,-0.411455,-1.60895,
2026_06_10_18_59_56.055,3.864,27.7,0,0.755,0,0,0,0.02, ,0,0,0,0,0, ,-37.9,59.8,1001.5,-0.6,-0.4,-1.6,25,-36.9842,60.3724,1001.37,-0.772366,-0.410757,-1.61145,
2026_06_10_18_59_56.071,3.864,27.7,0,0.758,0,0,0,0.019, ,0,0,0,0,0, ,-36.9,61.2,1002.1,-0.7,-0.4,-1.7,25,-37.0095,60.3802,1001.39,-0.764909,-0.410101,-1.6138,
2026_06_10_18_59_56.103,3.864,27.6,0,0.756,0,0,0,0.02, ,0,0,0,0,0, ,-38.2,60.5,1003,-0.9,-0.4,-1.6,25,-37.0424,60.4088,1001.46,-0.767048,-0.409486,-1.61601,
2026_06_10_18_59_56.119,3.864,27.6,0,0.756,0,0,0,0.021, ,0,0,0,0,0, ,-38.2,61.2,1000.8,-0.6,-0.4,-1.6,25,-37.113,60.4357,1001.49,-0.766009,-0.408908,-1.61503,
2026_06_10_18_59_56.138,3.864,27.7,0,0.756,0,0,0,0.021, ,0,0,0,0,0, ,-38,60,1000.7,-0.6,-0.4,-1.7,25,-37.1731,60.4457,1001.45,-0.755893,-0.408365,-1.61716,
2026_06_10_18_59_56.151,3.864,27.7,0,0.757,0,0,0,0.02, ,0,0,0,0,0, ,-38.9,60,1001.8,-0.9,-0.4,-1.7,25,-37.2509,60.4185,1001.43,-0.755534,-0.407855,-1.62221,
2026_06_10_18_59_56.183,3.864,27.7,0,0.756,0,0,0,0.02, ,0,0,0,0,0, ,-37.7,60.7,1000.8,-0.6,-0.4,-1.8,25,-37.3149,60.4144,1001.43,-0.755196,-0.407377,-1.63,
2026_06_10_18_59_56.199,3.864,27.7,0,0.757,0,0,0,0.021, ,0,0,0,0,0, ,-36.1,59.5,1002.1,-0.7,-0.4,-1.6,25,-37.2896,60.3952,1001.43,-0.748786,-0.406927,-1.63426,
2026_06_10_18_59_56.215,3.864,27.7,0,0.758,0,0,0,0.021, ,0,0,0,0,0, ,-37.4,60.5,1000.9,-0.8,-0.5,-1.6,25,-37.2567,60.3711,1001.43,-0.74886,-0.409552,-1.63218,
2026_06_10_18_59_56.239,3.864,27.7,0,0.756,0,0,0,0.021, ,0,0,0,0,0, ,-37.2,60,1002.1,-0.6,-0.4,-1.7,25,-37.2593,60.3637,1001.44,-0.745883,-0.412017,-1.63326,
2026_06_10_18_59_56.262,3.864,27.8,0,0.756,0,0,0,0.021, ,0,0,0,0,0, ,-36.2,60.6,1001.3,-0.7,-0.4,-1.7,25,-37.2253,60.3599,1001.45,-0.74004,-0.411284,-1.63733,
2026_06_10_18_59_56.278,3.864,27.7,0,0.756,0,0,0,0.021, ,0,0,0,0,0, ,-38,59.9,1000.7,-0.8,-0.4,-1.6,25,-37.2176,60.3532,1001.42,-0.740647,-0.410597,-1.6381,
2026_06_10_18_59_56.294,3.864,27.7,0,0.756,0,0,0,0.022, ,0,0,0,0,0, ,-36.6,60.1,1002.3,-0.7,-0.4,-1.7,25,-37.2226,60.3316,1001.43,-0.741217,-0.409951,-1.63883,
2026_06_10_18_59_56.310,3.864,27.8,0,0.755,0,0,0,0.022, ,0,0,0,0,0, ,-37.1,60.4,999.8,-0.6,-0.4,-1.7,25,-37.1999,60.3267,1001.41,-0.735658,-0.409345,-1.64255,
2026_06_10_18_59_56.342,3.864,27.8,0,0.756,0,0,0,0.022, ,0,0,0,0,0, ,-38,60.1,1001.5,-0.9,-0.5,-1.6,25,-37.2213,60.322,1001.36,-0.736532,-0.411822,-1.64301,
2026_06_10_18_59_56.358,3.864,27.8,0,0.756,0,0,0,0.022, ,0,0,0,0,0, ,-37.7,60.4,1001.3,-0.6,-0.4,-1.6,25,-37.2596,60.3176,1001.36,-0.737353,-0.414149,-1.64039,
2026_06_10_18_59_56.374,3.864,27.8,0,0.757,0,0,0,0.022, ,0,0,0,0,0, ,-37.4,61.2,1001.4,-0.8,-0.4,-1.8,25,-37.2773,60.347,1001.36,-0.735077,-0.413286,-1.64402,
2026_06_10_18_59_56.390,3.864,27.8,0,0.756,0,0,0,0.022, ,0,0,0,0,0, ,-38.2,60.5,1001,-0.7,-0.4,-1.7,25,-37.3091,60.3777,1001.35,-0.735986,-0.412477,-1.65048,
2026_06_10_18_59_56.422,3.864,27.8,0,0.756,0,0,0,0.022, ,0,0,0,0,0, ,-38.2,60.9,1002.5,-0.8,-0.4,-1.7,25,-37.3634,60.3973,1001.38,-0.73684,-0.411716,-1.6535,
2026_06_10_18_59_56.439,3.864,27.8,0,0.756,0,0,0,0.023, ,0,0,0,0,0, ,-35.7,59.6,1001.9,-0.6,-0.4,-1.7,25,-37.3382,60.3883,1001.43,-0.734595,-0.411002,-1.65633,
2026_06_10_18_59_56.454,3.864,27.8,0,0.756,0,0,0,0.023, ,0,0,0,0,0, ,-36.9,60,1002.8,-0.8,-0.4,-1.8,25,-37.275,60.3525,1001.48,-0.732487,-0.410332,-1.66204,
2026_06_10_18_59_56.471,3.864,27.8,0,0.756,0,0,0,0.023, ,0,0,0,0,0, ,-37.8,59.5,1002.9,-0.6,-0.4,-1.6,25,-37.2795,60.3158,1001.57,-0.730507,-0.409702,-1.66435,
2026_06_10_18_59_56.502,3.864,27.8,0,0.757,0,0,0,0.023, ,0,0,0,0,0, ,-38.8,61,1001.8,-0.7,-0.3,-1.7,25,-37.3417,60.3118,1001.61,-0.725601,-0.406064,-1.66348,
2026_06_10_18_59_56.518,3.864,27.7,0,0.757,0,0,0,0.023, ,0,0,0,0,0, ,-37.9,58.9,1002.5,-0.8,-0.4,-1.6,25,-37.4032,60.2897,1001.65,-0.727088,-0.402648,-1.66265,
2026_06_10_18_59_56.539,3.864,27.9,0,0.757,0,0,0,0.025, ,0,0,0,0,0, ,-37.4,58.3,1002,-0.8,-0.5,-1.7,25,-37.4182,60.1867,1001.68,-0.731531,-0.405533,-1.66188,
2026_06_10_18_59_56.550,3.864,27.9,0,0.757,0,0,0,0.023, ,0,0,0,0,0, ,-38.4,60.6,1003.4,-0.6,-0.4,-1.7,25,-37.4476,60.1418,1001.75,-0.72961,-0.408243,-1.66421,
2026_06_10_18_59_56.582,3.864,27.9,0,0.756,0,0,0,0.023, ,0,0,0,0,0, ,-37.1,60.7,1000.9,-0.9,-0.4,-1.6,25,-37.466,60.1728,1001.77,-0.730852,-0.407741,-1.66334,
2026_06_10_18_59_56.598,3.864,27.9,0,0.756,0,0,0,0.024, ,0,0,0,0,0, ,-36.6,58.5,1001.8,-0.6,-0.4,-1.7,25,-37.4285,60.1379,1001.74,-0.732019,-0.407269,-1.66253,
2026_06_10_18_59_56.614,3.864,28,0,0.757,0,0,0,0.024, ,0,0,0,0,0, ,-36.8,61,1002.1,-0.6,-0.4,-1.6,25,-37.3841,60.1143,1001.76,-0.723974,-0.406826,-1.66176,
2026_06_10_18_59_56.640,3.864,27.9,0,0.756,0,0,0,0.023, ,0,0,0,0,0, ,-37.3,60.3,1000.7,-0.9,-0.4,-1.6,25,-37.3637,60.1469,1001.73,-0.72556,-0.40641,-1.658,
2026_06_10_18_59_56.651,3.864,28,0,0.757,0,0,0,0.024, ,0,0,0,0,0, ,-36.8,59.9,1002.5,-0.7,-0.4,-1.7,25,-37.3446,60.1441,1001.73,-0.730096,-0.40602,-1.65751,
2026_06_10_18_59_56.678,3.864,27.9,0,0.757,0,0,0,0.024, ,0,0,0,0,0, ,-37.2,61.2,1001.9,-0.5,-0.4,-1.7,25,-37.3236,60.1688,1001.76,-0.722169,-0.405653,-1.6601,
2026_06_10_18_59_56.694,3.864,27.9,0,0.758,0,0,0,0.025, ,0,0,0,0,0, ,-38.4,58.8,1001,-0.9,-0.4,-1.6,25,-37.3526,60.1585,1001.74,-0.720818,-0.405308,-1.65949,
2026_06_10_18_59_56.718,3.864,28,0,0.757,0,0,0,0.025, ,0,0,0,0,0, ,-37.2,59.3,1001.8,-0.6,-0.4,-1.7,25,-37.3799,60.091,1001.72,-0.722596,-0.404985,-1.65891,
2026_06_10_18_59_56.740,3.864,28,0,0.756,0,0,0,0.024, ,0,0,0,0,0, ,-37.7,60.3,1000.9,-0.6,-0.4,-1.7,25,-37.3842,60.0732,1001.69,-0.715125,-0.404681,-1.66141,
2026_06_10_18_59_56.758,3.864,28,0,0.756,0,0,0,0.024, ,0,0,0,0,0, ,-37.2,58.8,1002.8,-0.9,-0.4,-1.7,25,-37.3882,60.0413,1001.7,-0.71725,-0.404396,-1.66376,
2026_06_10_18_59_56.774,3.864,28,0,0.757,0,0,0,0.025, ,0,0,0,0,0, ,-37.4,58.7,1001.5,-0.5,-0.5,-1.6,25,-37.3828,59.9627,1001.73,-0.716199,-0.407175,-1.66293,
2026_06_10_18_59_56.790,3.864,28,0,0.758,0,0,0,0.025, ,0,0,0,0,0, ,-36.1,60.9,1002.3,-0.6,-0.4,-1.6,25,-37.3442,59.9527,1001.74,-0.706072,-0.409784,-1.65909,
2026_06_10_18_59_56.806,3.864,27.9,0,0.758,0,0,0,0.025, ,0,0,0,0,0, ,-38,58.8,1002.5,-0.8,-0.4,-1.7,25,-37.3263,59.9465,1001.78,-0.705702,-0.409188,-1.65854,
2026_06_10_18_59_56.840,3.864,28,0,0.757,0,0,0,0.026, ,0,0,0,0,0, ,-37.7,58.5,1002.4,-0.8,-0.4,-1.6,25,-37.3582,59.8675,1001.82,-0.711448,-0.408628,-1.65802,
2026_06_10_18_59_56.854,3.864,28,0,0.758,0,0,0,0.025, ,0,0,0,0,0, ,-37.8,60.5,1002.3,-0.5,-0.4,-1.6,25,-37.3821,59.8451,1001.85,-0.707703,-0.408103,-1.65448,
2026_06_10_18_59_56.870,3.864,28,0,0.757,0,0,0,0.026, ,0,0,0,0,0, ,-37.1,60.5,1001.7,-0.9,-0.4,-1.7,25,-37.3862,59.885,1001.86,-0.707234,-0.407609,-1.65421,
2026_06_10_18_59_56.886,3.864,28.2,0,0.756,0,0,0,0.026, ,0,0,0,0,0, ,-36.6,59.2,1003.2,-0.8,-0.4,-1.7,25,-37.3536,59.8829,1001.9,-0.715934,-0.407145,-1.657,
2026_06_10_18_59_56.917,3.864,28.1,0,0.757,0,0,0,0.024, ,0,0,0,0,0, ,-37.2,59.8,1001.9,-0.6,-0.4,-1.7,25,-37.3259,59.8595,1001.94,-0.714963,-0.40671,-1.65962,
2026_06_10_18_59_56.933,3.864,28.1,0,0.756,0,0,0,0.025, ,0,0,0,0,0, ,-37.5,60.1,1001.8,-0.8,-0.4,-1.7,25,-37.3274,59.865,1001.93,-0.714051,-0.406301,-1.66208,
2026_06_10_18_59_56.952,3.864,28.1,0,0.756,0,0,0,0.026, ,0,0,0,0,0, ,-38.2,58.7,1002.3,-0.7,-0.4,-1.7,25,-37.3592,59.8367,1001.94,-0.716242,-0.405917,-1.66439,
2026_06_10_18_59_56.965,3.864,28.1,0,0.757,0,0,0,0.026, ,0,0,0,0,0, ,-37.2,60.6,1001.2,-0.6,-0.4,-1.7,25,-37.38,59.8253,1001.93,-0.712205,-0.405556,-1.66656,
2026_06_10_18_59_56.997,3.864,28.1,0,0.757,0,0,0,0.026, ,0,0,0,0,0, ,-35.5,59.6,1000.6,-0.9,-0.4,-1.6,25,-37.3172,59.8421,1001.87,-0.714508,-0.405218,-1.66555,
2026_06_10_18_59_57.013,3.864,28.1,0,0.757,0,0,0,0.026, ,0,0,0,0,0, ,-37.7,58.8,1001.9,-0.6,-0.4,-1.6,25,-37.2735,59.8029,1001.83,-0.716671,-0.4049,-1.66156,
2026_06_10_18_59_57.029,3.864,28.1,0,0.756,0,0,0,0.026, ,0,0,0,0,0, ,-37.3,61.1,1001.7,-0.6,-0.3,-1.7,25,-37.2873,59.8119,1001.83,-0.709561,-0.401554,-1.66085,
2026_06_10_18_59_57.045,3.864,28.1,0,0.757,0,0,0,0.027, ,0,0,0,0,0, ,-37.5,60.7,1000.7,-0.9,-0.3,-1.7,25,-37.2942,59.8782,1001.79,-0.712026,-0.395366,-1.66324,
2026_06_10_18_59_57.077,3.864,28.1,0,0.76,0,0,0,0.027, ,0,0,0,0,0, ,-38.2,60.6,1002.3,-0.7,-0.3,-1.7,25,-37.3281,59.9252,1001.77,-0.717386,-0.389554,-1.66548,
2026_06_10_18_59_57.093,3.864,28.2,0,0.757,0,0,0,0.027, ,0,0,0,0,0, ,-37.9,59.8,1001.7,-0.7,-0.4,-1.7,25,-37.3721,59.942,1001.78,-0.716327,-0.387144,-1.66758,
2026_06_10_18_59_57.109,3.864,28.3,0,0.757,0,0,0,0.026, ,0,0,0,0,0, ,-36.9,59.5,1001.4,-0.9,-0.4,-1.7,25,-37.3738,59.9242,1001.77,-0.721426,-0.387928,-1.66956,
2026_06_10_18_59_57.125,3.864,28.2,0,0.756,0,0,0,0.026, ,0,0,0,0,0, ,-36.7,60.6,1001.5,-0.7,-0.4,-1.7,25,-37.3388,59.9319,1001.75,-0.726214,-0.388663,-1.67141,
2026_06_10_18_59_57.156,3.864,28.3,0,0.756,0,0,0,0.027, ,0,0,0,0,0, ,-36.4,60.7,1001.3,-0.7,-0.3,-1.6,25,-37.2907,59.9756,1001.73,-0.724617,-0.386307,-1.67011,
2026_06_10_18_59_57.173,3.864,28.3,0,0.76,0,0,0,0.026, ,0,0,0,0,0, ,-36.7,60.5,1002.1,-0.9,-0.4,-1.7,25,-37.2456,60.0137,1001.73,-0.72921,-0.384095,-1.66888,
2026_06_10_18_59_57.188,3.864,28.2,0,0.757,0,0,0,0.026, ,0,0,0,0,0, ,-36.4,60,1004.2,-0.7,-0.4,-1.7,25,-37.2032,60.0281,1001.81,-0.733524,-0.385064,-1.67078,
2026_06_10_18_59_57.205,3.864,28.3,0,0.757,0,0,0,0.027, ,0,0,0,0,0, ,-36.7,61,1002.6,-0.7,-0.4,-1.7,25,-37.1634,60.0568,1001.91,-0.731481,-0.385974,-1.67256,
2026_06_10_18_59_57.220,3.864,28.3,0,0.757,0,0,0,0.027, ,0,0,0,0,0, ,-37.4,60.6,1002.8,-0.9,-0.3,-1.7,25,-37.1565,60.1021,1001.96,-0.735656,-0.383782,-1.67423,
2026_06_10_18_59_57.253,3.864,28.3,0,0.758,0,0,0,0.027, ,0,0,0,0,0, ,-37.4,58.4,1002,-0.6,-0.4,-1.7,25,-37.1713,60.0654,1001.99,-0.736531,-0.381723,-1.6758,
2026_06_10_18_59_57.269,3.864,28.4,0,0.757,0,0,0,0.027, ,0,0,0,0,0, ,-37.7,60.7,1001.8,-0.7,-0.3,-1.7,25,-37.1944,60.034,1001.98,-0.731258,-0.37979,-1.67728,
2026_06_10_18_59_57.285,3.864,28.4,0,0.758,0,0,0,0.026, ,0,0,0,0,0, ,-36.8,60.1,1001.8,-0.8,-0.4,-1.7,25,-37.1978,60.0563,1001.97,-0.7324,-0.377975,-1.67866,
2026_06_10_18_59_57.301,3.864,28.4,0,0.756,0,0,0,0.026, ,0,0,0,0,0, ,-38.4,59.9,1001.4,-0.7,-0.4,-1.7,25,-37.2223,60.0529,1001.95,-0.733472,-0.379317,-1.67996,
2026_06_10_18_59_57.333,3.864,28.4,0,0.757,0,0,0,0.027, ,0,0,0,0,0, ,-36.9,59.5,1001.7,-0.6,-0.4,-1.6,25,-37.2484,60.0314,1001.92,-0.728386,-0.380577,-1.67814,
2026_06_10_18_59_57.349,3.864,28.4,0,0.757,0,0,0,0.027, ,0,0,0,0,0, ,-36.4,59.3,1002.5,-0.9,-0.5,-1.7,25,-37.2119,59.9929,1001.93,-0.729703,-0.384808,-1.67642,
2026_06_10_18_59_57.365,3.864,28.4,0,0.757,0,0,0,0.027, ,0,0,0,0,0, ,-36.9,59.3,1004.7,-0.6,-0.4,-1.7,25,-37.1777,59.9507,1002.04,-0.73094,-0.38878,-1.67786,
2026_06_10_18_59_57.381,3.864,28.5,0,0.761,0,0,0,0.027, ,0,0,0,0,0, ,-36.6,60.1,1002.9,-0.6,-0.4,-1.7,25,-37.1516,59.9354,1002.14,-0.72296,-0.389464,-1.67921,
2026_06_10_18_59_57.413,3.864,28.4,0,0.756,0,0,0,0.026, ,0,0,0,0,0, ,-36.9,59,1001.9,-0.9,-0.4,-1.7,25,-37.1271,59.9119,1002.16,-0.724608,-0.390106,-1.68047,
2026_06_10_18_59_57.429,3.864,28.4,0,0.758,0,0,0,0.027, ,0,0,0,0,0, ,-37.1,59.6,1001.7,-0.7,-0.3,-1.7,25,-37.1194,59.8746,1002.14,-0.729202,-0.387662,-1.68166,
2026_06_10_18_59_57.445,3.864,28.5,0,0.758,0,0,0,0.027, ,0,0,0,0,0, ,-37.5,59.3,1001.8,-0.7,-0.4,-1.7,25,-37.1304,59.8488,1002.11,-0.727423,-0.385367,-1.68278,
2026_06_10_18_59_57.462,3.864,28.6,0,0.755,0,0,0,0.027, ,0,0,0,0,0, ,-36.4,59.9,1002.4,-0.8,-0.4,-1.6,25,-37.1194,59.8336,1002.11,-0.728799,-0.386259,-1.68078,
2026_06_10_18_59_57.493,3.864,28.5,0,0.756,0,0,0,0.026, ,0,0,0,0,0, ,-37.3,59.6,1000.6,-0.6,-0.4,-1.7,25,-37.103,59.8285,1002.08,-0.727044,-0.387096,-1.67891,
2026_06_10_18_59_57.509,3.864,28.6,0,0.76,0,0,0,0.027, ,0,0,0,0,0, ,-37.3,60.4,1002.6,-0.7,-0.4,-1.6,25,-37.115,59.839,1002.05,-0.722349,-0.387883,-1.67715,
2026_06_10_18_59_57.525,3.864,28.6,0,0.757,0,0,0,0.026, ,0,0,0,0,0, ,-36.9,60.1,1003.1,-0.8,-0.3,-1.7,25,-37.1141,59.864,1002.1,-0.724034,-0.385574,-1.67549,
2026_06_10_18_59_57.541,3.864,28.5,0,0.758,0,0,0,0.027, ,0,0,0,0,0, ,-37.5,60.7,1001.9,-0.5,-0.4,-1.7,25,-37.1193,59.8967,1002.12,-0.719522,-0.383406,-1.67699,
2026_06_10_18_59_57.557,3.864,28.6,0,0.757,0,0,0,0.028, ,0,0,0,0,0, ,-37.2,59.5,1002,-0.7,-0.4,-1.7,25,-37.1334,59.9091,1002.11,-0.712239,-0.384417,-1.67839,
2026_06_10_18_59_57.589,3.864,28.7,0,0.756,0,0,0,0.027, ,0,0,0,0,0, ,-37.5,57.3,1002.1,-0.7,-0.3,-1.7,25,-37.1466,59.8171,1002.11,-0.711493,-0.38232,-1.67971,
2026_06_10_18_59_57.607,3.864,28.6,0,0.757,0,0,0,0.026, ,0,0,0,0,0, ,-37.8,59.5,1003,-0.7,-0.5,-1.7,25,-37.1772,59.7307,1002.13,-0.710793,-0.383398,-1.68094,
2026_06_10_18_59_57.621,3.864,28.7,0,0.757,0,0,0,0.027, ,0,0,0,0,0, ,-37.7,59.2,1000.9,-0.7,-0.4,-1.6,25,-37.2121,59.7075,1002.12,-0.710135,-0.387456,-1.67906,
2026_06_10_18_59_57.642,3.864,28.7,0,0.758,0,0,0,0.026, ,0,0,0,0,0, ,-37.8,60.3,1001.9,-0.8,-0.4,-1.6,25,-37.2449,59.7101,1002.08,-0.712564,-0.38822,-1.67424,
2026_06_10_18_59_57.668,3.864,28.8,0,0.759,0,0,0,0.027, ,0,0,0,0,0, ,-38,60.9,1001.8,-0.7,-0.4,-1.8,25,-37.2848,59.7644,1002.06,-0.714846,-0.388938,-1.67581,
2026_06_10_18_59_57.684,3.864,28.7,0,0.758,0,0,0,0.026, ,0,0,0,0,0, ,-37.2,59.9,1000.9,-0.7,-0.3,-1.7,25,-37.304,59.8031,1002.02,-0.713941,-0.386566,-1.68033,
2026_06_10_18_59_57.700,3.864,28.8,0,0.758,0,0,0,0.027, ,0,0,0,0,0, ,-36.4,59.9,1000.7,-0.7,-0.4,-1.7,25,-37.2733,59.809,1001.95,-0.713091,-0.384337,-1.68153,
2026_06_10_18_59_57.716,3.864,28.8,0,0.758,0,0,0,0.026, ,0,0,0,0,0, ,-37.2,60.4,1000.8,-0.6,-0.4,-1.6,25,-37.2445,59.8298,1001.87,-0.709247,-0.385292,-1.67961,
2026_06_10_18_59_57.748,3.864,28.8,0,0.758,0,0,0,0.026, ,0,0,0,0,0, ,-36.9,59.9,1001.9,-0.7,-0.4,-1.6,25,-37.2326,59.8493,1001.84,-0.705636,-0.386188,-1.67476,
2026_06_10_18_59_57.764,3.864,28.8,0,0.758,0,0,0,0.026, ,0,0,0,0,0, ,-37.4,59.6,1001.9,-0.8,-0.3,-1.7,25,-37.2276,59.8432,1001.84,-0.70834,-0.383983,-1.67325,
2026_06_10_18_59_57.780,3.864,28.8,0,0.759,0,0,0,0.027, ,0,0,0,0,0, ,-37.7,59.5,1002.5,-0.7,-0.4,-1.7,25,-37.2472,59.8254,1001.87,-0.710879,-0.381912,-1.67488,
2026_06_10_18_59_57.796,3.864,28.8,0,0.758,0,0,0,0.027, ,0,0,0,0,0, ,-37.7,60.4,1001.8,-0.7,-0.5,-1.7,25,-37.2748,59.833,1001.88,-0.710216,-0.386061,-1.67641,
2026_06_10_18_59_57.828,3.864,28.9,0,0.757,0,0,0,0.027, ,0,0,0,0,0, ,-37.9,61.2,1001.2,-0.8,-0.4,-1.7,25,-37.3068,59.8919,1001.86,-0.71264,-0.389957,-1.67785,
2026_06_10_18_59_57.844,3.864,28.9,0,0.758,0,0,0,0.026, ,0,0,0,0,0, ,-36.7,60,1000.7,-0.7,-0.4,-1.7,25,-37.3064,59.935,1001.8,-0.714917,-0.390569,-1.6792,
2026_06_10_18_59_57.860,3.864,28.9,0,0.758,0,0,0,0.026, ,0,0,0,0,0, ,-37.1,59.9,1001.3,-0.8,-0.4,-1.6,25,-37.2817,59.936,1001.76,-0.717055,-0.391144,-1.67742,
2026_06_10_18_59_57.876,3.864,28.9,0,0.757,0,0,0,0.026, ,0,0,0,0,0, ,-37.2,59.2,1003,-0.7,-0.4,-1.6,25,-37.2736,59.9124,1001.78,-0.719062,-0.391684,-1.6727,
2026_06_10_18_59_57.908,3.864,28.9,0,0.758,0,0,0,0.026, ,0,0,0,0,0, ,-36.3,59.3,1001,-0.7,-0.4,-1.6,25,-37.2417,59.8721,1001.79,-0.717901,-0.39219,-1.66827,
2026_06_10_18_59_57.924,3.864,28.9,0,0.757,0,0,0,0.027, ,0,0,0,0,0, ,-37.4,60.3,1001.5,-0.7,-0.5,-1.6,25,-37.2179,59.8677,1001.76,-0.71681,-0.395713,-1.66411,
2026_06_10_18_59_57.943,3.864,28.9,0,0.758,0,0,0,0.027, ,0,0,0,0,0, ,-38,58.7,1003,-0.7,-0.4,-1.6,25,-37.2472,59.8453,1001.79,-0.715785,-0.399021,-1.6602,
2026_06_10_18_59_57.967,3.864,28.9,0,0.757,0,0,0,0.027, ,0,0,0,0,0, ,-38,59.2,1001,-0.8,-0.4,-1.6,25,-37.2931,59.7907,1001.8,-0.71787,-0.399081,-1.65653,
2026_06_10_18_59_57.987,3.864,29.1,0,0.757,0,0,0,0.027, ,0,0,0,0,0, ,-37.1,60.4,1001.2,-0.8,-0.4,-1.7,25,-37.3088,59.7913,1001.76,-0.722875,-0.399137,-1.65614,
2026_06_10_18_59_58.006,3.864,29.1,0,0.757,0,0,0,0.025, ,0,0,0,0,0, ,-37.9,61.4,1001.7,-0.7,-0.4,-1.7,25,-37.3204,59.8588,1001.74,-0.724528,-0.39919,-1.65881,
2026_06_10_18_59_58.026,3.864,29.1,0,0.758,0,0,0,0.025, ,0,0,0,0,0, ,-36.3,60,1002.3,-0.8,-0.5,-1.7,25,-37.307,59.9101,1001.76,-0.72608,-0.402286,-1.66132,
2026_06_10_18_59_58.047,3.864,29.1,0,0.757,0,0,0,0.026, ,0,0,0,0,0, ,-37.2,60.3,1002.5,-0.7,-0.4,-1.7,25,-37.273,59.9247,1001.8,-0.727538,-0.405193,-1.66368,
2026_06_10_18_59_58.067,3.864,29.2,0,0.758,0,0,0,0.026, ,0,0,0,0,0, ,-37.1,59.9,1002.8,-0.7,-0.4,-1.6,25,-37.2655,59.9354,1001.85,-0.72586,-0.404877,-1.66284,
2026_06_10_18_59_58.088,3.864,29.2,0,0.757,0,0,0,0.025, ,0,0,0,0,0, ,-37.2,59.5,1002.5,-0.7,-0.4,-1.7,25,-37.2585,59.9211,1001.9,-0.724284,-0.40458,-1.66206,
2026_06_10_18_59_58.106,3.864,29.2,0,0.758,0,0,0,0.025, ,0,0,0,0,0, ,-36.4,59.8,1002,-0.6,-0.3,-1.7,25,-37.2306,59.9045,1001.92,-0.719757,-0.401254,-1.66437,
2026_06_10_18_59_58.115,3.864,29.2,0,0.758,0,0,0,0.025, ,0,0,0,0,0, ,-37.9,61.1,1001.4,-0.6,-0.4,-1.7,25,-37.2257,59.9378,1001.91,-0.71246,-0.398131,-1.66654,
2026_06_10_18_59_58.146,3.864,29.2,0,0.757,0,0,0,0.025, ,0,0,0,0,0, ,-37.5,58.2,1002.9,-0.5,-0.4,-1.7,25,-37.2546,59.9202,1001.92,-0.70256,-0.398244,-1.66858,
2026_06_10_18_59_58.162,3.864,29.2,0,0.759,0,0,0,0.025, ,0,0,0,0,0, ,-37.1,57.9,1001.9,0.4,-0.4,-1.6,25,-37.2573,59.8063,1001.95,-0.662794,-0.398351,-1.66745,
2026_06_10_18_59_58.178,3.864,29.3,0,0.757,0,0,0,0.025, ,0,0,0,0,0, ,-37.7,65,1001.3,-1.1,-0.4,-1.6,25,-37.266,59.9064,1001.93,-0.643733,-0.398452,-1.66334,
2026_06_10_18_59_58.206,3.864,29.3,0,0.758,0,0,0,0.025, ,0,0,0,0,0, ,-36.4,57.2,1000.9,0.5,-0.4,-1.5,25,-37.2529,59.9792,1001.88,-0.622787,-0.398546,-1.65643,
2026_06_10_18_59_58.226,3.864,29.3,0,0.76,0,0,0,0.025, ,0,0,0,0,0, ,-37.2,63.2,1000.8,-2.7,-0.4,-1.8,25,-37.2253,59.9926,1001.81,-0.651867,-0.398635,-1.65604,
2026_06_10_18_59_58.245,3.864,29.4,0,0.757,0,0,0,0.025, ,0,0,0,0,0, ,-37.7,73.8,1001.8,-5,-0.5,-2,25,-37.239,60.511,1001.78,-0.846754,-0.401765,-1.67091,
2026_06_10_18_59_58.258,3.864,29.4,0,0.758,0,0,0,0.024, ,0,0,0,0,0, ,-38.3,65,1004.2,-10.4,-0.5,-2.1,25,-37.2853,61.0527,1001.86,-1.26437,-0.407751,-1.69401,
2026_06_10_18_59_58.274,3.864,29.4,0,0.758,0,0,0,0.024, ,0,0,0,0,0, ,-37.2,47.2,1002.1,8,-0.2,-1.4,25,-37.3136,60.7509,1001.94,-1.26045,-0.404232,-1.69742,
2026_06_10_18_59_58.305,3.864,29.3,0,0.758,0,0,0,0.024, ,0,0,0,0,0, ,-38,61.6,1001.8,0.3,-0.4,-1.6,25,-37.3311,60.3639,1001.94,-0.930751,-0.39788,-1.68539,
2026_06_10_18_59_58.321,3.864,29.4,0,0.756,0,0,0,0.025, ,0,0,0,0,0, ,-38.5,64.3,1002.3,-4.1,-0.5,-1.8,25,-37.3871,60.5215,1001.94,-0.989815,-0.401056,-1.68628,
2026_06_10_18_59_58.344,3.864,29.3,0,0.758,0,0,0,0.024, ,0,0,0,0,0, ,-38.4,54.6,1002,0.1,-0.4,-1.6,25,-37.4519,60.4562,1001.96,-1.05137,-0.404039,-1.68712,
2026_06_10_18_59_58.354,3.864,29.4,0,0.758,0,0,0,0.025, ,0,0,0,0,0, ,-37.4,55.6,1000.7,0.2,-0.4,-1.6,25,-37.4792,60.1298,1001.92,-0.978164,-0.403793,-1.68181,
2026_06_10_18_59_58.370,3.864,29.4,0,0.758,0,0,0,0.024, ,0,0,0,0,0, ,-37.8,58.2,1001.8,-1.3,-0.4,-1.6,25,-37.4865,59.933,1001.88,-0.952073,-0.403562,-1.67682,
2026_06_10_18_59_58.402,3.864,29.4,0,0.758,0,0,0,0.024, ,0,0,0,0,0, ,-37.8,61.2,1002.3,-1.4,-0.4,-1.6,25,-37.5056,59.9188,1001.89,-0.976322,-0.403345,-1.67214,
2026_06_10_18_59_58.417,3.864,29.3,0,0.757,0,0,0,0.024, ,0,0,0,0,0, ,-37.1,57.6,1000.9,-1.8,-0.4,-1.7,25,-37.5022,59.8872,1001.87,-1.01433,-0.403141,-1.67079,
2026_06_10_18_59_58.444,3.864,29.5,0,0.761,0,0,0,0.025, ,0,0,0,0,0, ,-36.6,52.1,1002.9,0.7,-0.4,-1.6,25,-37.4625,59.5802,1001.87,-0.986032,-0.402949,-1.66952,
2026_06_10_18_59_58.449,3.864,29.3,0,0.76,0,0,0,0.024, ,0,0,0,0,0, ,-37.9,60.4,1004,-0.1,-0.3,-1.6,25,-37.4496,59.3773,1001.97,-0.907665,-0.399723,-1.66529,
2026_06_10_18_59_58.481,3.864,29.5,0,0.757,0,0,0,0.025, ,0,0,0,0,0, ,-37.1,62.3,1002,-2.6,-0.5,-1.7,25,-37.4526,59.4975,1002.03,-0.934619,-0.39974,-1.66436,
2026_06_10_18_59_58.502,3.864,29.6,0,0.758,0,0,0,0.024, ,0,0,0,0,0, ,-36.4,56.2,1002.5,0,-0.3,-1.5,25,-37.4098,59.4824,1002.05,-0.956885,-0.399756,-1.66043,
2026_06_10_18_59_58.513,3.864,29.5,0,0.758,0,0,0,0.023, ,0,0,0,0,0, ,-37.4,58.5,1001.8,0.3,-0.3,-1.6,25,-37.3787,59.3525,1002.05,-0.889434,-0.393677,-1.65371,
2026_06_10_18_59_58.529,3.864,29.4,0,0.758,0,0,0,0.024, ,0,0,0,0,0, ,-37.1,59.4,1002.3,-2.1,-0.4,-1.7,25,-37.3709,59.3279,1002.05,-0.890078,-0.391015,-1.65348,
2026_06_10_18_59_58.561,3.864,29.5,0,0.76,0,0,0,0.025, ,0,0,0,0,0, ,-36.8,56.2,1001.7,-0.9,-0.5,-1.7,25,-37.3452,59.2348,1002.05,-0.927245,-0.39461,-1.65631,
2026_06_10_18_59_58.577,3.864,29.6,0,0.76,0,0,0,0.024, ,0,0,0,0,0, ,-37.4,58.8,1001.7,-0.1,-0.4,-1.7,25,-37.3303,59.1291,1002.03,-0.90121,-0.397985,-1.65898,
2026_06_10_18_59_58.602,3.864,29.6,0,0.757,0,0,0,0.023, ,0,0,0,0,0, ,-37.4,58.4,1001.9,-1,-0.4,-1.7,25,-37.3346,59.0969,1002.01,-0.879808,-0.398108,-1.66148,
2026_06_10_18_59_58.609,3.864,29.5,0,0.758,0,0,0,0.023, ,0,0,0,0,0, ,-36.8,57.4,1002,-0.9,-0.4,-1.8,25,-37.3203,59.0239,1002.01,-0.884085,-0.398223,-1.66687,
2026_06_10_18_59_58.641,3.864,29.6,0,0.759,0,0,0,0.024, ,0,0,0,0,0, ,-37.5,59,1002.3,-0.8,-0.4,-1.7,25,-37.3099,58.9737,1002.02,-0.882008,-0.398331,-1.67194,
2026_06_10_18_59_58.657,3.864,29.6,0,0.76,0,0,0,0.023, ,0,0,0,0,0, ,-34.7,48.4,1000.9,-0.9,-0.8,-2.2,25,-37.2362,58.6524,1001.99,-0.880058,-0.41062,-1.68888,
2026_06_10_18_59_58.677,3.864,29.6,0,0.76,0,0,0,0.024, ,0,0,0,0,0, ,-6.9,127.6,1001.3,9.1,-0.6,-9.1,25,-36.2346,60.4407,1001.94,-0.576585,-0.428255,-1.93026,
2026_06_10_18_59_58.693,3.864,29.6,0,0.761,0,0,0,0.024, ,0,0,0,0,0, ,-31.7,42.4,1002.8,4.4,-0.1,1.1,25,-35.2026,61.9373,1001.95,-0.130122,-0.423486,-2.05639,
2026_06_10_18_59_58.709,3.864,29.6,0,0.757,0,0,0,0.024, ,0,0,0,0,0, ,-55.9,59.8,1003.1,0.5,-0.7,-5.5,25,-35.7265,61.2769,1002.01,0.0271045,-0.422055,-2.06514,
2026_06_10_18_59_58.740,3.864,29.7,0,0.759,0,0,0,0.024, ,0,0,0,0,0, ,-57.9,77.3,999,8.4,0,2.1,25,-37.0168,61.7201,1001.95,0.296625,-0.417664,-2.04289,
2026_06_10_18_59_58.756,3.864,29.7,0,0.758,0,0,0,0.023, ,0,0,0,0,0, ,-56.6,68.3,998.9,28.9,0.9,8.3,25,-38.2497,62.3953,1001.77,1.41503,-0.364791,-1.60152,
2026_06_10_18_59_58.772,3.864,29.7,0,0.76,0,0,0,0.023, ,0,0,0,0,0, ,-43.3,70.1,1001.3,38.2,0.3,1.8,25,-38.9627,62.81,1001.66,3.37326,-0.305999,-1.1962,
2026_06_10_18_59_58.788,3.864,29.6,0,0.758,0,0,0,0.023, ,0,0,0,0,0, ,-46.8,132.6,1024.1,32.7,-3,1.9,25,-39.3337,65.1585,1002.34,5.32793,-0.369618,-1.01057,
2026_06_10_18_59_58.820,3.864,29.7,0,0.761,0,0,0,0.024, ,0,0,0,0,0, ,-40.1,110.9,980.8,45.9,-6,-0.7,25,-39.5845,68.607,1002.34,7.39811,-0.621313,-0.912425,
2026_06_10_18_59_58.836,3.864,29.8,0,0.758,0,0,0,0.023, ,0,0,0,0,0, ,-24.9,137,1083.8,67.5,-14.4,-4,25,-39.1528,71.9795,1004.17,10.4024,-1.20501,-1.00003,
2026_06_10_18_59_58.852,3.864,29.7,0,0.759,0,0,0,0.022, ,0,0,0,0,0, ,-10.4,194.4,1086.9,19.3,-35.2,-8.2,25,-37.8425,77.6906,1009.12,12.4132,-2.64283,-1.31081,
2026_06_10_18_59_58.867,3.864,29.8,0,0.76,0,0,0,0.023, ,0,0,0,0,0, ,25.7,183.8,991.9,2.8,-44.8,-9.1,25,-35.0703,84.4796,1010.96,12.3302,-4.91929,-1.75804,
2026_06_10_18_59_58.899,3.864,29.8,0,0.758,0,0,0,0.022, ,0,0,0,0,0, ,29.6,171,988,8.1,-45.4,-12.3,25,-31.2483,90.1419,1009.68,11.9109,-7.3678,-2.30294,
2026_06_10_18_59_58.915,3.864,29.8,0,0.76,0,0,0,0.022, ,0,0,0,0,0, ,-7,174.6,993.2,19.2,-46.8,-7.9,25,-28.6555,95.1789,1008.52,12.0169,-9.72804,-2.77807,
2026_06_10_18_59_58.931,3.864,29.8,0,0.761,0,0,0,0.022, ,0,0,0,0,0, ,19,171.7,923.8,13.7,-39.8,-2.5,25,-26.5437,99.9303,1005.47,12.287,-11.7738,-2.92566,
2026_06_10_18_59_58.947,3.864,29.8,0,0.76,0,0,0,0.022, ,0,0,0,0,0, ,20.6,178.7,923.2,1.2,-24.4,8.5,25,-23.7196,104.517,1000.48,11.9923,-13.0125,-2.56456,
2026_06_10_18_59_58.979,3.864,29.8,0,0.759,0,0,0,0.022, ,0,0,0,0,0, ,14.4,168.4,937.3,4.1,-13.2,10.9,25,-21.2078,108.724,996.196,11.423,-13.3651,-1.81719,
2026_06_10_18_59_58.995,3.864,29.9,0,0.76,0,0,0,0.022, ,0,0,0,0,0, ,58.7,157.1,1012.2,11.7,-12.4,7.4,25,-17.6882,112.016,994.889,11.2083,-13.3307,-1.14888,
2026_06_10_18_59_59.018,3.864,29.9,0,0.76,0,0,0,0.022, ,0,0,0,0,0, ,109.6,163.9,1049.8,16.6,-16.9,5,25,-11.4824,114.97,997.089,11.3875,-13.4111,-0.701057,
2026_06_10_18_59_59.027,3.864,29.9,0,0.76,0,0,0,0.022, ,0,0,0,0,0, ,88.9,184.5,1029.2,8.7,-29.4,3.6,25,-4.73464,118.58,999.674,11.4645,-14.0046,-0.396305,
2026_06_10_18_59_59.046,3.864,29.9,0,0.758,0,0,0,0.022, ,0,0,0,0,0, ,87.6,200.9,973.3,11.6,-31.1,5.6,25,0.931609,123.096,999.77,11.3844,-14.9945,-0.0918427,
2026_06_10_18_59_59.075,3.864,29.9,0,0.758,0,0,0,0.022, ,0,0,0,0,0, ,91.7,169.4,992.4,13.3,-30.2,6.4,25,6.33789,126.878,998.739,11.4493,-15.9485,0.279379,
2026_06_10_18_59_59.091,3.864,29.9,0,0.759,0,0,0,0.022, ,0,0,0,0,0, ,86.5,184.2,1033.2,0.5,-40.4,4.3,25,11.3812,129.92,999.596,11.1721,-17.1278,0.58837,
2026_06_10_18_59_59.107,3.864,30,0,0.758,0,0,0,0.022, ,0,0,0,0,0, ,122.3,196.1,1029.6,-3.1,-49.9,7.9,25,17.0495,133.59,1001.53,10.4121,-18.8354,0.924235,
2026_06_10_18_59_59.135,3.864,29.9,0,0.76,0,0,0,0.021, ,0,0,0,0,0, ,108.2,173.8,1002.8,-2,-56.3,12.4,25,23.0336,136.72,1002.43,9.6222,-20.9234,1.48643,
2026_06_10_18_59_59.155,3.864,30,0,0.76,0,0,0,0, ,0,0,0,0,0, ,120.4,118.6,734.8,6.2,-53.1,10.6,25,28.5952,137.298,994.285,9.16381,-22.9816,2.09663,
2026_06_10_18_59_59.171,3.864,30,0,0.76,0,0,0,0, ,0,0,0,0,0, ,196.1,228.5,944.7,30,-41.2,-1.1,25,36.496,139.507,984.868,9.70836,-24.4544,2.25832,
2026_06_10_18_59_59.189,3.864,30.1,0,0.758,0,0,0,0, ,0,0,0,0,0, ,209.3,206.9,962.6,18.8,-44.6,-4.8,25,46.6241,144.272,982.965,10.6036,-25.5784,1.94094,
2026_06_10_18_59_59.203,3.864,30,0,0.761,0,0,0,0, ,0,0,0,0,0, ,151,221.5,920,15.2,-40.7,-9,25,54.7608,148.533,980.426,10.9934,-26.6187,1.40219,
2026_06_10_18_59_59.235,3.864,30,0,0.76,0,0,0,0, ,0,0,0,0,0, ,115.9,211.3,937.8,10.9,-34,-19.3,25,59.5559,152.669,977.286,11.1187,-27.2726,0.454483,
2026_06_10_18_59_59.251,3.864,30,0,0.76,0,0,0,0, ,0,0,0,0,0, ,171.5,212.1,897.7,7.2,-29.9,-25.3,25,64.6835,156.266,973.658,10.9927,-27.5577,-0.932118,
2026_06_10_18_59_59.267,3.864,30.1,0,0.76,0,0,0,0, ,0,0,0,0,0, ,220.4,236.9,900.1,8.5,-20.1,-30.5,25,72.6825,160.424,969.103,10.8012,-27.4018,-2.57547,
2026_06_10_18_59_59.283,3.864,30,0,0.76,0,0,0,0, ,0,0,0,0,0, ,234,267.5,900.1,4.5,-13.2,-34.2,25,82.0984,166.016,964.898,10.5391,-26.7466,-4.38986,
2026_06_10_18_59_59.315,3.864,30.1,0,0.759,0,0,0,0, ,0,0,0,0,0, ,283.8,209.4,937.7,14.7,-7.7,-20.6,25,92.8723,170.43,962.095,10.4818,-25.7536,-5.79204,
2026_06_10_18_59_59.331,3.864,30.1,0,0.759,0,0,0,0, ,0,0,0,0,0, ,293.3,255.7,991,14,-17,-18.3,25,104.796,174.216,962.232,10.7176,-24.9368,-6.62432,
2026_06_10_18_59_59.347,3.864,30,0,0.759,0,0,0,0, ,0,0,0,0,0, ,280.2,280.5,937.2,7.2,-22.9,-19.2,25,115.884,179.937,962.346,10.7104,-24.6329,-7.36323,
2026_06_10_18_59_59.364,3.864,30.2,0,0.758,0,0,0,0, ,0,0,0,0,0, ,231.2,266.6,919.6,7.7,-22.6,-18.1,25,124.404,185.641,960.278,10.5117,-24.5182,-8.05102,
2026_06_10_18_59_59.395,3.864,30,0,0.76,0,0,0,0, ,0,0,0,0,0, ,185.4,214.2,923.9,12.7,-15.3,-13.2,25,129.517,188.978,957.93,10.4927,-24.1788,-8.51408,
2026_06_10_18_59_59.411,3.864,30.1,0,0.759,0,0,0,0, ,0,0,0,0,0, ,199.7,268.7,930.7,4.6,-3.9,-3.4,25,133.358,192.176,956.063,10.3804,-23.2904,-8.50103,
2026_06_10_18_59_59.427,3.864,30.1,0,0.759,0,0,0,0, ,0,0,0,0,0, ,302.9,298.4,1114.1,-28.1,-13,13.3,25,140.545,197.744,960.106,9.03185,-22.3861,-7.68136,
2026_06_10_18_59_59.455,3.864,30.1,0,0.759,0,0,0,0, ,0,0,0,0,0, ,201.1,168,978.8,-35.4,-27.2,39.3,25,147.337,199.904,965.367,6.54671,-22.2468,-5.61062,
2026_06_10_18_59_59.479,3.864,30,0,0.759,0,0,0,0, ,0,0,0,0,0, ,152,176.3,956.9,-7.6,-25.2,45.2,25,149.117,198.213,965.519,4.83761,-22.4877,-2.69412,
2026_06_10_18_59_59.494,3.864,30.1,0,0.759,0,0,0,0, ,0,0,0,0,0, ,161.7,217.8,949.4,8.4,-24.8,33.7,25,149.588,198.142,964.765,4.5672,-22.6408,-0.12596,
2026_06_10_18_59_59.515,3.864,30.2,0,0.76,0,0,0,0, ,0,0,0,0,0, ,205.3,269.1,925.4,5.8,-26.8,15.4,25,151.655,200.903,963.097,4.72154,-22.8333,1.37773,
2026_06_10_18_59_59.533,3.864,30.1,0,0.76,0,0,0,0, ,0,0,0,0,0, ,185.9,202,932.8,9.1,-26.3,0.4,25,154.332,203.015,961.026,4.8878,-23.0598,1.77518,
2026_06_10_18_59_59.554,3.864,30,0,0.759,0,0,0,0, ,0,0,0,0,0, ,322.9,232.7,1018.5,20.9,-36.1,-10.2,25,160.43,203.888,961.917,5.50402,-23.5558,1.36841,
2026_06_10_18_59_59.573,3.864,30.1,0,0.759,0,0,0,0, ,0,0,0,0,0, ,394.1,264,1044.7,10,-70.7,-23.2,25,172.5,206.597,966.163,6.1101,-25.3745,0.267369,
2026_06_10_18_59_59.593,3.864,30,0,0.76,0,0,0,0, ,0,0,0,0,0, ,407.4,248.1,1043.5,-14.6,-107.4,-24,25,186.409,209.611,970.912,5.59761,-29.2547,-1.18705,
2026_06_10_18_59_59.615,3.864,30.1,0,0.759,0,0,0,0, ,0,0,0,0,0, ,411.8,235.9,1005.6,-16.1,-134.5,-15.2,25,200.01,211.585,974.181,4.32111,-34.8424,-2.30909,
2026_06_10_18_59_59.633,3.864,30.1,0,0.759,0,0,0,0, ,0,0,0,0,0, ,499.6,240.2,963.2,-18.9,-163.4,-3.6,25,215.591,213.197,974.804,2.99139,-41.7958,-2.74119,
2026_06_10_18_59_59.653,3.864,30,0,0.76,0,0,0,0, ,0,0,0,0,0, ,550.4,271.2,867.5,-24.7,-193.2,3.2,25,234.446,215.787,971.181,1.48066,-50.114,-2.58634,
2026_06_10_18_59_59.672,3.864,30.1,0,0.76,0,0,0,0, ,0,0,0,0,0, ,570.3,232,769.8,-25.3,-212.1,0.3,25,254.305,217.97,961.886,-0.133001,-59.4092,-2.32209,
2026_06_10_18_59_59.692,3.864,30.2,0,0.76,0,0,0,0, ,0,0,0,0,0, ,653.9,230.9,688.9,-1.9,-225.2,-2.2,25,276.108,218.791,947.716,-0.953646,-69.1129,-2.23848,
2026_06_10_18_59_59.712,3.864,30.1,0,0.759,0,0,0,0, ,0,0,0,0,0, ,688.4,229.2,583.8,17.7,-240.9,-0.6,25,300.181,219.477,928.742,-0.414127,-79.1028,-2.18738,
2026_06_10_18_59_59.732,3.864,30.1,0,0.758,0,0,0,0, ,0,0,0,0,0, ,752.3,231.2,577.1,28.6,-250.1,6.1,25,325.785,220.131,907.518,1.02181,-89.2427,-1.88651,
2026_06_10_18_59_59.754,3.864,30.1,0,0.759,0,0,0,0, ,0,0,0,0,0, ,757.6,231.4,517.4,47,-250.1,14.6,25,351.938,220.811,885.564,3.26298,-99.0449,-1.14085,
2026_06_10_18_59_59.771,3.864,30.3,0,0.759,0,0,0,0, ,0,0,0,0,0, ,757,216.9,449.5,61.4,-250.1,16.1,25,376.639,221.015,861.06,6.36696,-108.25,-0.135939,
2026_06_10_18_59_59.791,3.864,30.1,0,0.76,0,0,0,0, ,0,0,0,0,0, ,858.2,241.4,392.7,78.4,-250.1,15.4,25,402.901,221.511,834.25,10.2385,-116.894,0.832111,
2026_06_10_18_59_59.811,3.864,30.1,0,0.759,0,0,0,0, ,0,0,0,0,0, ,942.7,234.7,273.5,77.8,-250.1,19.9,25,433.22,222.518,803.711,14.3738,-125.011,1.85695,
2026_06_10_18_59_59.830,3.864,30,0,0.76,0,0,0,0, ,0,0,0,0,0, ,969.7,256.8,130.2,52.1,-250.1,24.7,25,465.089,223.934,767.035,17.4558,-132.634,3.1027,
2026_06_10_18_59_59.851,3.864,30.1,0,0.762,0,0,0,0, ,0,0,0,0,0, ,913.6,230.7,65.9,45.3,-243.8,25.8,25,494.13,225.142,726.269,19.3597,-139.6,4.4523,
2026_06_10_18_59_59.870,3.864,30.1,0,0.759,0,0,0,0, ,0,0,0,0,0, ,894.2,235.1,121.2,43.6,-174.6,21.1,25,519.1,225.614,687.713,20.8887,-143.841,5.60997,
2026_06_10_18_59_59.890,3.864,30.1,0,0.76,0,0,0,0, ,0,0,0,0,0, ,935.5,197.7,125,25.4,-110.2,14.9,25,543.216,225.053,653.307,21.7181,-143.753,6.36499,
2026_06_10_18_59_59.910,3.864,30.1,0,0.758,0,0,0,0, ,0,0,0,0,0, ,952.2,196.2,40.5,-1.1,-47.8,18.5,25,567.63,223.34,618.538,21.1351,-139.807,6.99478,
2026_06_10_18_59_59.929,3.864,30.1,0,0.76,0,0,0,0, ,0,0,0,0,0, ,960.4,200.1,-76.6,-27.6,12.3,25.3,25,591.314,221.805,579.746,18.9727,-132.37,7.90307,
2026_06_10_18_59_59.950,3.864,30.1,0,0.76,0,0,0,0, ,0,0,0,0,0, ,896.9,168.9,-75,-34.7,59.7,30.7,25,611.871,219.532,539.799,15.9183,-122.109,9.12772,
2026_06_10_18_59_59.970,3.864,30.1,0,0.759,0,0,0,0, ,0,0,0,0,0, ,905.8,185.4,20.6,-39.9,78.6,33.2,25,629.511,216.949,505.247,12.6753,-110.455,10.5185,
2026_06_10_18_59_59.989,3.864,30.1,0,0.758,0,0,0,0, ,0,0,0,0,0, ,926.1,172.7,39.1,-44.5,74.3,32.2,25,646.966,214.64,476.278,9.33138,-99.0651,11.8701,
2026_06_10_19_00_00.009,3.864,30.2,0,0.759,0,0,0,0, ,0,0,0,0,0, ,962.2,191.5,-43.9,-54.2,64.7,28,25,665.075,212.657,447.108,5.75548,-88.7932,12.981,
2026_06_10_19_00_00.030,3.864,30.1,0,0.76,0,0,0,0, ,0,0,0,0,0, ,997.6,158.6,-108.1,-45.7,54.8,25.1,25,684.26,210.365,415.232,2.36093,-79.7413,13.8079,
2026_06_10_19_00_00.049,3.864,30,0,0.756,0,0,0,0, ,0,0,0,0,0, ,947.7,131.8,10.3,-13.3,35.6,23.6,25,701.834,206.394,386.949,0.419406,-72.1277,14.4503,
2026_06_10_19_00_00.068,3.864,30.1,0,0.758,0,0,0,0, ,0,0,0,0,0, ,881.8,131.1,103.8,-2.2,2.7,14.3,25,714.808,201.827,366.845,-0.0784169,-66.5655,14.7245,
2026_06_10_19_00_00.088,3.864,30.2,0,0.76,0,0,0,0, ,0,0,0,0,0, ,914,140.2,37.7,-5,-17.5,6.9,25,725.966,197.795,348.802,-0.293013,-62.9601,14.4732,
2026_06_10_19_00_00.108,3.864,30.1,0,0.759,0,0,0,0, ,0,0,0,0,0, ,1001.7,135.7,-13.4,1.1,-15.4,2.2,25,740.096,194.148,328.287,-0.393986,-60.1259,13.8685,
2026_06_10_19_00_00.128,3.864,30.1,0,0.759,0,0,0,0, ,0,0,0,0,0, ,993.8,129.8,7.9,12.3,-5.4,3.5,25,755.797,190.406,308.115,0.0383037,-57.0957,13.197,
2026_06_10_19_00_00.148,3.864,30,0,0.76,0,0,0,0, ,0,0,0,0,0, ,910,112.9,63.8,11.4,0.7,5.6,25,767.747,186.198,291.524,0.758079,-53.7596,12.6701,
2026_06_10_19_00_00.169,3.864,30.2,0,0.759,0,0,0,0, ,0,0,0,0,0, ,919.3,98.1,128.7,14.3,1.2,15.2,25,776.699,181.281,279.624,1.49493,-50.4258,12.5318,
2026_06_10_19_00_00.187,3.864,30.1,0,0.76,0,0,0,0, ,0,0,0,0,0, ,1012.3,97.1,136.4,12.4,0.1,21.1,25,788.222,176.181,270.662,2.21735,-47.3133,12.8741,
2026_06_10_19_00_00.207,3.864,30.1,0,0.759,0,0,0,0, ,0,0,0,0,0, ,1000.6,84.8,129.1,6.7,-3.3,18.2,25,801.52,170.988,262.258,2.66418,-44.5277,13.287,
2026_06_10_19_00_00.227,3.864,30.1,0,0.76,0,0,0,0, ,0,0,0,0,0, ,965,104.6,110.7,5.1,-5.5,15,25,812.567,166.339,253.583,2.86136,-42.0824,13.4889,
2026_06_10_19_00_00.247,3.864,30.1,0,0.76,0,0,0,0, ,0,0,0,0,0, ,967,93.3,64.4,5.9,-4.2,8.9,25,821.917,162.232,243.465,3.02216,-39.8136,13.3951,
2026_06_10_19_00_00.266,3.864,30.1,0,0.758,0,0,0,0, ,0,0,0,0,0, ,983.3,90.8,95.2,14.7,-5.6,0.4,25,831.255,157.956,233.492,3.46565,-37.686,12.8622,
2026_06_10_19_00_00.286,3.864,30,0,0.758,0,0,0,0, ,0,0,0,0,0, ,1011.2,99.7,118.4,11.7,-14.3,-3.9,25,841.37,154.135,225.772,4.05884,-35.9958,11.9718,
2026_06_10_19_00_00.308,3.864,30.2,0,0.76,0,0,0,0, ,0,0,0,0,0, ,1020.5,88.9,91.4,8.8,-26.5,-3.3,25,852.002,150.488,218.406,4.43611,-35.0455,11.0229,
2026_06_10_19_00_00.326,3.864,30.1,0,0.759,0,0,0,0, ,0,0,0,0,0, ,1014.8,103.3,57.4,6.9,-33.9,1,25,862.096,147.174,209.631,4.64414,-34.7502,10.2811,
2026_06_10_19_00_00.346,3.864,30.1,0,0.757,0,0,0,0, ,0,0,0,0,0, ,983.1,99.8,39.1,10.6,-32,6.5,25,870.436,144.394,199.796,4.89435,-34.6405,9.88312,
2026_06_10_19_00_00.366,3.864,30.1,0,0.76,0,0,0,0, ,0,0,0,0,0, ,1003.6,83.9,42.1,17.2,-23.6,4.9,25,877.926,141.192,190.095,5.44313,-34.2237,9.62821,
2026_06_10_19_00_00.385,3.864,30.1,0,0.76,0,0,0,0, ,0,0,0,0,0, ,1008.5,103.7,48.7,7.7,-18.2,0.5,25,885.734,138.304,181.278,5.87011,-33.4118,9.20602,
2026_06_10_19_00_00.405,3.864,30.1,0,0.758,0,0,0,0, ,0,0,0,0,0, ,985.4,83.2,13.7,1.9,-12,0.7,25,892.511,135.571,172.133,5.8049,-32.2959,8.68159,
2026_06_10_19_00_00.425,3.864,30.1,0,0.758,0,0,0,0, ,0,0,0,0,0, ,971.3,87,0.7,4,-3.8,3.3,25,897.742,132.495,162.082,5.63093,-30.8093,8.27443,
2026_06_10_19_00_00.445,3.864,30.1,0,0.758,0,0,0,0, ,0,0,0,0,0, ,958.2,85.4,11.2,5.1,3.2,6.8,25,901.825,129.674,152.568,5.56506,-28.9501,8.07794,
2026_06_10_19_00_00.464,3.864,30.1,0,0.76,0,0,0,0, ,0,0,0,0,0, ,947.9,86.4,30.7,4,7.4,4.1,25,904.947,127.007,144.547,5.5032,-26.863,7.9178,
2026_06_10_19_00_00.484,3.864,30.2,0,0.76,0,0,0,0, ,0,0,0,0,0, ,937.6,85.2,35.1,2.1,7.6,3.1,25,907.25,124.496,137.744,5.35371,-24.769,7.65469,
2026_06_10_19_00_00.504,3.864,30.1,0,0.758,0,0,0,0, ,0,0,0,0,0, ,961.9,83.8,15,-3,4.5,-1.5,25,909.84,122.058,130.877,5.00005,-22.891,7.23698,
2026_06_10_19_00_00.524,3.864,30.1,0,0.76,0,0,0,0, ,0,0,0,0,0, ,988.7,81.9,-3.6,-0.2,-1.1,-8.5,25,913.829,119.669,123.249,4.59786,-21.3924,6.49129,
2026_06_10_19_00_00.544,3.864,30.1,0,0.758,0,0,0,0, ,0,0,0,0,0, ,996.4,80.3,14.6,4.7,-7.6,-3.7,25,918.626,117.319,116.073,4.45479,-20.3539,5.72401,
2026_06_10_19_00_00.563,3.864,30.1,0,0.758,0,0,0,0, ,0,0,0,0,0, ,989.7,82.7,39.1,3.2,-10.7,1.3,25,923.161,115.136,110.636,4.42403,-19.6712,5.30208,
2026_06_10_19_00_00.583,3.864,30.2,0,0.758,0,0,0,0, ,0,0,0,0,0, ,1006.8,85.2,13.1,-1.1,-6.8,-2.9,25,927.737,113.236,105.485,4.21842,-19.0057,4.93023,
2026_06_10_19_00_00.604,3.864,30.1,0,0.757,0,0,0,0, ,0,0,0,0,0, ,1024.2,82,22.3,-0.5,-1.9,-5.2,25,933.085,111.43,100.135,3.91261,-18.1126,4.383,
2026_06_10_19_00_00.623,3.864,30.1,0,0.758,0,0,0,0, ,0,0,0,0,0, ,1014.5,67.1,20.5,0.3,0.4,-1.2,25,938.342,109.182,95.3375,3.66809,-17.0546,3.92091,
2026_06_10_19_00_00.643,3.864,30.2,0,0.758,0,0,0,0, ,0,0,0,0,0, ,996.8,77.5,20.5,0.3,1.5,0,25,942.443,106.935,90.7771,3.46285,-15.9574,3.64542,
2026_06_10_19_00_00.663,3.864,30.2,0,0.758,0,0,0,0, ,0,0,0,0,0, ,984.6,73.1,38.8,1.5,2,-2.7,25,945.384,105.007,87.0522,3.30668,-14.8784,3.34101,
2026_06_10_19_00_00.683,3.864,30.1,0,0.76,0,0,0,0, ,0,0,0,0,0, ,992.9,72,47.6,1,0.9,-4.7,25,948.027,103.029,84.3799,3.18135,-13.8834,2.91195,
2026_06_10_19_00_00.702,3.864,30.1,0,0.76,0,0,0,0, ,0,0,0,0,0, ,1010.6,69.5,13.9,-1.6,1.2,-3.8,25,951.3,101.062,81.1118,2.9692,-12.9734,2.47552,
2026_06_10_19_00_00.722,3.864,30.1,0,0.757,0,0,0,0, ,0,0,0,0,0, ,992.4,78.3,37.7,-1.3,1.6,-1.9,25,954.359,99.407,77.7413,2.69991,-12.0975,2.15099,
2026_06_10_19_00_00.742,3.864,30.1,0,0.76,0,0,0,0, ,0,0,0,0,0, ,979,85.9,44,-3,-0.9,-5.2,25,956.269,98.3524,75.4932,2.40437,-11.339,1.80359,
2026_06_10_19_00_00.762,3.864,30.2,0,0.758,0,0,0,0, ,0,0,0,0,0, ,978.3,80.4,31.1,-3.6,-1.2,-6.3,25,957.633,97.426,73.1811,2.05676,-10.712,1.34329,
2026_06_10_19_00_00.782,3.864,30.1,0,0.761,0,0,0,0, ,0,0,0,0,0, ,986.6,91,32.1,-4.5,-1.4,-6.9,25,959.145,96.7114,70.6472,1.68463,-10.1384,0.859247,
2026_06_10_19_00_00.802,3.864,30.1,0,0.757,0,0,0,0, ,0,0,0,0,0, ,1010.1,88.6,30,-6.8,-4,-8.5,25,961.534,96.2903,68.2343,1.23767,-9.68515,0.337668,
2026_06_10_19_00_00.822,3.864,30.1,0,0.757,0,0,0,0, ,0,0,0,0,0, ,1014.2,95.9,24.2,-8.7,-7.3,-6.2,25,964.619,96.0441,65.7276,0.689986,-9.43926,-0.1308,
2026_06_10_19_00_00.841,3.864,30.2,0,0.758,0,0,0,0, ,0,0,0,0,0, ,1001.5,101.4,1.4,-6.7,-7.9,-0.8,25,967.253,96.2029,62.5024,0.178721,-9.32718,-0.33611,
2026_06_10_19_00_00.861,3.864,30.1,0,0.76,0,0,0,0, ,0,0,0,0,0, ,972.6,89.7,26.9,-4.2,-8.5,1.7,25,968.46,96.1631,59.5559,-0.164279,-9.25849,-0.288207,
2026_06_10_19_00_00.881,3.864,30.1,0,0.757,0,0,0,0, ,0,0,0,0,0, ,984.7,90,12.2,-9.7,-10.5,-4,25,969.081,95.7784,57.118,-0.577784,-9.27321,-0.340722,
2026_06_10_19_00_00.901,3.864,30.1,0,0.758,0,0,0,0, ,0,0,0,0,0, ,1004.5,87.2,-2.8,-6.8,-9,-4,25,970.636,95.341,53.9238,-1.04531,-9.30226,-0.563709,
2026_06_10_19_00_00.920,3.864,30.1,0,0.758,0,0,0,0, ,0,0,0,0,0, ,997.6,93.2,-13.7,-3,-4.6,3.3,25,972.489,95.0277,50.1351,-1.2802,-9.14978,-0.550687,
2026_06_10_19_00_00.940,3.864,30.1,0,0.758,0,0,0,0, ,0,0,0,0,0, ,979.6,98.9,-8.3,-0.7,2.7,8.4,25,973.471,95.09,46.4097,-1.31493,-8.65011,-0.160645,
2026_06_10_19_00_00.961,3.864,30.2,0,0.758,0,0,0,0, ,0,0,0,0,0, ,946.6,99.8,-5.8,0.1,6.5,2.7,25,972.839,95.3496,43.152,-1.25308,-7.84268,0.187348,
2026_06_10_19_00_00.980,3.864,30.1,0,0.76,0,0,0,0, ,0,0,0,0,0, ,945.3,92.5,1.4,0.8,2.2,-4.8,25,971.2,95.3983,40.3883,-1.1493,-7.09969,0.111947,
2026_06_10_19_00_01.000,3.864,30.1,0,0.757,0,0,0,0, ,0,0,0,0,0, ,950.5,91.6,16.7,2.1,-5.2,-8,25,969.78,95.1943,38.4787,-0.990903,-6.75846,-0.284875,
2026_06_10_19_00_01.019,3.864,30.1,0,0.757,0,0,0,0, ,0,0,0,0,0, ,1017.7,52.8,1.2,-8.2,-3.3,7,25,970.653,93.7931,36.6793,-1.11638,-6.6056,-0.297984,
2026_06_10_19_00_01.039,3.864,30.1,0,0.757,0,0,0,0, ,0,0,0,0,0, ,986.8,111.2,-6.5,-2,-4,0.6,25,972.578,93.0744,34.2826,-1.35913,-6.42549,-0.0482632,
2026_06_10_19_00_01.060,3.864,30.1,0,0.76,0,0,0,0, ,0,0,0,0,0, ,985.8,97.2,22.3,0.1,-3.7,-0.3,25,973.415,93.7524,32.6749,-1.3342,-6.26855,-0.0361816,
2026_06_10_19_00_01.080,3.864,30.1,0,0.757,0,0,0,0, ,0,0,0,0,0, ,987.4,84.9,10.7,-4.2,-7.7,0,25,974.218,93.5877,31.6893,-1.37782,-6.2339,-0.0431174,
2026_06_10_19_00_01.099,3.864,30.1,0,0.757,0,0,0,0, ,0,0,0,0,0, ,988.6,91.3,0.1,-2.5,-7.6,-0.3,25,975.058,93.2533,30.0873,-1.498,-6.3202,-0.0496305,
2026_06_10_19_00_01.123,3.864,30.1,0,0.757,0,0,0,0, ,0,0,0,0,0, ,989.1,84.3,-6.4,-3,-8,-0.3,25,975.898,92.921,28.0619,-1.57429,-6.41037,-0.0648874,
2026_06_10_19_00_01.138,3.864,30.2,0,0.757,0,0,0,0, ,0,0,0,0,0, ,987.9,92.7,-13.4,-0.1,-5.5,0.8,25,976.666,92.6516,25.7486,-1.57281,-6.43107,-0.045699,
2026_06_10_19_00_01.158,3.864,30.1,0,0.758,0,0,0,0, ,0,0,0,0,0, ,986.4,99.7,-2.1,2.5,-4,2.5,25,977.305,92.8678,23.7073,-1.40384,-6.32863,0.0576327,
2026_06_10_19_00_01.178,3.864,30.2,0,0.757,0,0,0,0, ,0,0,0,0,0, ,989.6,78,-2.4,-4.7,-5.9,4.1,25,977.957,92.623,22.1255,-1.38533,-6.24462,0.255214,
2026_06_10_19_00_01.198,3.864,30.1,0,0.758,0,0,0,0, ,0,0,0,0,0, ,990.7,85.2,-7.5,7.3,-5.1,3.3,25,978.7,91.9513,20.4756,-1.22169,-6.19924,0.465131,
2026_06_10_19_00_01.218,3.864,30.1,0,0.76,0,0,0,0, ,0,0,0,0,0, ,988.1,81,-26.8,3.4,-4.4,2.3,25,979.352,91.4119,18.1828,-0.821229,-6.11093,0.607412,
2026_06_10_19_00_01.237,3.864,30.1,0,0.758,0,0,0,0, ,0,0,0,0,0, ,989.7,78.7,-36,1,-2.9,2.5,25,979.934,90.7074,15.1613,-0.637123,-5.96097,0.716648,
2026_06_10_19_00_01.260,3.864,30.1,0,0.76,0,0,0,0, ,0,0,0,0,0, ,990.4,78.3,-59.6,4.4,4.3,1.7,25,980.55,89.9635,11.3246,-0.433767,-5.55506,0.800946,
2026_06_10_19_00_01.278,3.864,30,0,0.76,0,0,0,0, ,0,0,0,0,0, ,986,108.7,-61.8,11.2,13.2,2.8,25,981.016,90.179,6.93561,0.0679782,-4.68335,0.889248,
2026_06_10_19_00_01.298,3.864,30.2,0,0.758,0,0,0,0, ,0,0,0,0,0, ,993.2,51.8,-62.8,20.3,28.6,8.7,25,981.539,89.5739,2.71657,1.0236,-3.12436,1.18545,
2026_06_10_19_00_01.317,3.864,30,0,0.758,0,0,0,0, ,0,0,0,0,0, ,990.9,56.7,44.3,28.6,31.9,3.7,25,982.18,87.4214,1.98736,2.45115,-1.09061,1.49102,
2026_06_10_19_00_01.336,3.864,30.1,0,0.76,0,0,0,0, ,0,0,0,0,0, ,973.9,154.1,45,46.4,27.4,12.9,25,982.193,88.517,4.58711,4.58694,0.782643,1.90595,
2026_06_10_19_00_01.356,3.864,30.1,0,0.757,0,0,0,0, ,0,0,0,0,0, ,989.1,46.6,40.8,29.3,20.7,18.2,25,982.151,89.238,6.9218,6.6139,2.2005,2.73738,
2026_06_10_19_00_01.376,3.864,30.1,0,0.757,0,0,0,0, ,0,0,0,0,0, ,999.1,-33.2,65.9,11.8,13.3,4.7,25,982.879,84.2084,9.75102,7.46314,3.10234,3.26831,
2026_06_10_19_00_01.398,3.864,30.1,0,0.758,0,0,0,0, ,0,0,0,0,0, ,982.9,89.7,77.2,16.5,7.4,-1.5,25,983.374,80.7984,13.5169,7.87062,3.544,3.16664,
2026_06_10_19_00_01.415,3.864,30.1,0,0.761,0,0,0,0, ,0,0,0,0,0, ,988,47.7,63.5,4.7,-0.7,-0.8,25,983.501,80.0612,16.9802,8.03694,3.53217,2.9036,
2026_06_10_19_00_01.436,3.864,30.1,0,0.757,0,0,0,0, ,0,0,0,0,0, ,991.4,51.2,39.6,0.5,-3.8,-1.6,25,983.878,78.1958,19.0868,7.70562,3.17982,2.65353,
2026_06_10_19_00_01.457,3.864,30.1,0,0.757,0,0,0,0, ,0,0,0,0,0, ,991.2,58.8,24.2,4.1,-2.6,-1.5,25,984.331,76.7823,19.8676,7.37622,2.79105,2.39738,
2026_06_10_19_00_01.476,3.864,30.2,0,0.758,0,0,0,0, ,0,0,0,0,0, ,990.7,64.4,10.3,-0.9,-0.3,-0.4,25,984.734,75.8571,19.7081,7.02423,2.53261,2.1934,
2026_06_10_19_00_01.495,3.864,30.2,0,0.76,0,0,0,0, ,0,0,0,0,0, ,990.4,55.9,29.6,-1,2.9,-0.6,25,985.088,74.9,19.7228,6.5383,2.4575,2.02927,
2026_06_10_19_00_01.515,3.864,30.1,0,0.758,0,0,0,0, ,0,0,0,0,0, ,988.1,56.5,54.8,-0.8,0.8,-1,25,985.342,73.7604,21.0925,6.08503,2.42048,1.85686,
2026_06_10_19_00_01.535,3.864,30.1,0,0.76,0,0,0,0, ,0,0,0,0,0, ,989.6,58.3,36.7,-6.2,-2,-1,25,985.556,72.7635,22.5951,5.50094,2.23642,1.68277,
2026_06_10_19_00_01.555,3.864,30.1,0,0.758,0,0,0,0, ,0,0,0,0,0, ,991.8,66.5,17.4,-1.6,0.4,-0.9,25,985.869,72.132,22.8665,4.92807,2.05139,1.52234,
2026_06_10_19_00_01.575,3.864,30,0,0.758,0,0,0,0, ,0,0,0,0,0, ,985.5,128.4,-14.1,7,7.8,10.1,25,986.039,73.6748,21.5737,4.7923,2.17623,1.70988,
2026_06_10_19_00_01.594,3.864,30.1,0,0.758,0,0,0,0, ,0,0,0,0,0, ,980.8,140.6,23.1,8.4,16.9,31.4,25,985.863,77.3813,20.5332,4.96949,2.79619,2.87014,
2026_06_10_19_00_01.614,3.864,30.1,0,0.758,0,0,0,0, ,0,0,0,0,0, ,980.2,66.7,144.2,-33.3,5.7,37.3,25,985.536,78.9821,24.3794,3.90799,3.31439,4.78844,
2026_06_10_19_00_01.634,3.864,30.1,0,0.757,0,0,0,0, ,0,0,0,0,0, ,1000.4,-56.1,196.8,-64.5,-17.5,28.7,25,985.826,74.4921,33.2836,0.690001,2.75289,6.50759,
2026_06_10_19_00_01.653,3.864,30.2,0,0.758,0,0,0,0, ,0,0,0,0,0, ,1034.4,-29.6,11.1,26.1,-30.5,24.9,25,987.75,67.3415,37.5899,-0.522046,1.12264,7.74415,
2026_06_10_19_00_01.674,3.864,30.1,0,0.758,0,0,0,0, ,0,0,0,0,0, ,1000.3,12.9,-85.3,55.2,-17,20.7,25,989.554,62.7291,33.0385,1.98688,-0.393041,8.66162,
2026_06_10_19_00_01.693,3.864,30.1,0,0.758,0,0,0,0, ,0,0,0,0,0, ,994.2,-12.8,-22.4,-10.3,4.3,21.9,25,990.023,58.9096,27.7437,3.23385,-0.756043,9.43177,
2026_06_10_19_00_01.713,3.864,30.1,0,0.758,0,0,0,0, ,0,0,0,0,0, ,979.3,-116,35.2,-20.5,6,12,25,989.823,51.3954,26.4431,2.09835,-0.396143,9.88991,
2026_06_10_19_00_01.733,3.864,30.1,0,0.758,0,0,0,0, ,0,0,0,0,0, ,983.5,-78,37.3,2.2,1.8,-1.9,25,989.31,42.3525,27.0407,1.4129,-0.134347,9.59498,
2026_06_10_19_00_01.753,3.864,30.1,0,0.759,0,0,0,0, ,0,0,0,0,0, ,994.1,8,39.1,6.7,-1,-1.2,25,989.279,37.6389,27.7207,1.59797,-0.101785,8.91583,
2026_06_10_19_00_01.772,3.864,30.1,0,0.758,0,0,0,0, ,0,0,0,0,0, ,990.4,-35.1,23.3,-1.7,-0.3,-2.7,25,989.46,34.5196,27.9327,1.65294,-0.135192,8.2537,
2026_06_10_19_00_01.800,3.864,30,0,0.76,0,0,0,0, ,0,0,0,0,0, ,994.9,-9.3,-8.9,20.4,1.6,-1.6,25,989.655,31.0632,26.6693,2.12198,-0.0873446,7.61972,
2026_06_10_19_00_01.812,3.864,30.1,0,0.759,0,0,0,0, ,0,0,0,0,0, ,998.9,19.5,-0.9,9.2,10.7,-1,25,990.096,29.4811,24.7456,2.89455,0.292744,7.07618,
2026_06_10_19_00_01.832,3.864,30.1,0,0.76,0,0,0,0, ,0,0,0,0,0, ,993.5,-11.8,44.7,-15,14.6,2.2,25,990.468,27.9192,24.5722,2.54144,1.04576,6.68153,
2026_06_10_19_00_01.852,3.864,30.1,0,0.758,0,0,0,0, ,0,0,0,0,0, ,984.2,-56.3,63.4,1.4,10,0.2,25,990.369,24.1429,26.3685,1.9722,1.73157,6.3475,
2026_06_10_19_00_01.872,3.864,30.1,0,0.758,0,0,0,0, ,0,0,0,0,0, ,989.5,-6.5,72.9,7.8,4.3,-0.2,25,990.155,20.7583,28.9145,2.13233,2.06175,5.9607,
2026_06_10_19_00_01.891,3.864,30.1,0,0.758,0,0,0,0, ,0,0,0,0,0, ,989.5,-18.3,61.6,2.8,1.1,-0.5,25,990.115,18.7377,31.2506,2.32536,2.10065,5.57614,
2026_06_10_19_00_01.911,3.864,30.1,0,0.759,0,0,0,0, ,0,0,0,0,0, ,991,-22.7,52.1,4.6,-0.8,-0.8,25,990.123,16.3467,32.8106,2.40913,1.98178,5.19674,
2026_06_10_19_00_01.931,3.864,30.2,0,0.757,0,0,0,0, ,0,0,0,0,0, ,989.1,-19.1,56.8,0.3,-1.9,-1.3,25,990.119,14.0769,34.1292,2.41162,1.77875,4.81608,
2026_06_10_19_00_01.951,3.864,30.1,0,0.759,0,0,0,0, ,0,0,0,0,0, ,989.3,-18.1,65.3,-2.2,-4,-1.4,25,990.063,12.0857,35.7697,2.20677,1.49059,4.44033,
2026_06_10_19_00_01.971,3.864,30.1,0,0.759,0,0,0,0, ,0,0,0,0,0, ,988.1,-22.5,66.5,-4.1,-5.9,-1.7,25,989.98,10.1122,37.6058,1.88034,1.09812,4.0753,
2026_06_10_19_00_01.990,3.864,30.1,0,0.758,0,0,0,0, ,0,0,0,0,0, ,991.9,-19.6,38.4,0.3,-8.2,-2.2,25,989.981,8.21324,38.5103,1.64998,0.601592,3.70813,
2026_06_10_19_00_02.010,3.864,30.1,0,0.758,0,0,0,0, ,0,0,0,0,0, ,993.4,-12.6,19.5,-2.1,-6.3,-2.1,25,990.144,6.73165,37.9277,1.49459,0.123136,3.35115,
2026_06_10_19_00_02.030,3.864,30.1,0,0.76,0,0,0,0, ,0,0,0,0,0, ,995.8,-17.9,9.7,-0.9,-1.8,-1.6,25,990.415,5.39215,36.5062,1.3121,-0.131165,3.03421,
2026_06_10_19_00_02.050,3.864,30.1,0,0.759,0,0,0,0, ,0,0,0,0,0, ,993.4,-16.8,21.2,-0.1,2.1,-1,25,990.67,4.0063,35.2231,1.20168,-0.114031,2.77009,
2026_06_10_19_00_02.070,3.864,30.1,0,0.758,0,0,0,0, ,0,0,0,0,0, ,989.1,-17.7,63.7,-5,2.4,-1.3,25,990.706,2.71099,35.6635,0.973062,0.0300269,2.53121,
2026_06_10_19_00_02.090,3.864,30.1,0,0.759,0,0,0,0, ,0,0,0,0,0, ,984.2,-30.6,86.3,-7.9,-4.9,-2.4,25,990.458,1.07415,38.0606,0.520719,-0.0479747,2.26423,
2026_06_10_19_00_02.110,3.864,30,0,0.759,0,0,0,0, ,0,0,0,0,0, ,992,-40.1,12.5,14.5,-10.1,-3.8,25,990.315,-1.14545,38.7516,0.690081,-0.502083,1.93735,
2026_06_10_19_00_02.130,3.864,30,0,0.758,0,0,0,0, ,0,0,0,0,0, ,995.4,-4.1,6.7,18.5,-4.4,-4.5,25,990.521,-2.42236,36.9751,1.6535,-0.913284,1.5664,
2026_06_10_19_00_02.150,3.864,29.9,0,0.755,0,0,0,0, ,0,0,0,0,0, ,992.3,-13.4,24.1,14.5,0.2,-3.8,25,990.724,-2.80795,35.6604,2.55821,-0.985599,1.21806,
2026_06_10_19_00_02.169,3.864,30,0,0.759,0,0,0,0, ,0,0,0,0,0, ,993.7,-6.3,38.2,8.2,1.2,-3.3,25,990.863,-3.23708,35.3855,3.09396,-0.882883,0.927503,
2026_06_10_19_00_02.189,3.864,30.1,0,0.76,0,0,0,0, ,0,0,0,0,0, ,991.2,-7.4,46.3,4.3,0,-2.1,25,990.959,-3.45724,35.8038,3.28628,-0.79252,0.706452,
2026_06_10_19_00_02.211,3.864,30.1,0,0.76,0,0,0,0, ,0,0,0,0,0, ,992.3,-12.2,27.8,1.1,-0.2,-1.7,25,991.007,-3.84375,35.8798,3.25055,-0.750319,0.547621,
2026_06_10_19_00_02.228,3.864,30,0,0.759,0,0,0,0, ,0,0,0,0,0, ,992.1,-13.4,29.7,-2.1,1.6,-1.8,25,991.08,-4.38952,35.4453,3.022,-0.661941,0.40761,
2026_06_10_19_00_02.248,3.864,30.1,0,0.759,0,0,0,0, ,0,0,0,0,0, ,990.4,-11.5,41,-6.8,1.5,-1.5,25,991.09,-4.88071,35.4395,2.56668,-0.52715,0.282224,
2026_06_10_19_00_02.268,3.864,30,0,0.76,0,0,0,0, ,0,0,0,0,0, ,991.3,-9.5,44.1,-1,-0.1,-0.2,25,991.076,-5.22314,35.8728,2.17261,-0.452371,0.213229,
2026_06_10_19_00_02.288,3.864,30,0,0.759,0,0,0,0, ,0,0,0,0,0, ,985.9,-38.8,61.5,-2.9,-4.6,-1.7,25,990.925,-6.37649,36.9043,1.92139,-0.568008,0.142345,
2026_06_10_19_00_02.308,3.864,30,0,0.759,0,0,0,0, ,0,0,0,0,0, ,993.5,-18.1,17.5,0.1,-4.3,-1.5,25,990.85,-7.7216,37.0625,1.719,-0.804567,0.0361709,
2026_06_10_19_00_02.327,3.864,29.9,0,0.759,0,0,0,0, ,0,0,0,0,0, ,991,-17,39.3,-3.2,-2,-2.5,25,990.936,-8.32051,36.5346,1.51979,-0.947491,-0.0879083,
2026_06_10_19_00_02.348,3.864,30.1,0,0.758,0,0,0,0, ,0,0,0,0,0, ,989,-17.2,57.1,-4.4,-5.9,-3.1,25,990.879,-8.85551,37.2455,1.19562,-1.13046,-0.253176,
2026_06_10_19_00_02.367,3.864,30,0,0.76,0,0,0,0, ,0,0,0,0,0, ,993.6,-12,31.1,-5.9,-7.4,-3.3,25,990.904,-9.20557,37.6632,0.80893,-1.4668,-0.432748,
2026_06_10_19_00_02.387,3.864,29.9,0,0.759,0,0,0,0, ,0,0,0,0,0, ,992.6,-14.7,18.5,-6.2,-6.7,-3.1,25,991.038,-9.45812,36.8793,0.390964,-1.80703,-0.601378,
2026_06_10_19_00_02.407,3.864,29.9,0,0.758,0,0,0,0, ,0,0,0,0,0, ,994.5,-11.4,-1.7,-1.8,-3.6,-3.1,25,991.191,-9.677,35.1439,0.12339,-2.01074,-0.753638,
2026_06_10_19_00_02.427,3.864,29.9,0,0.758,0,0,0,0, ,0,0,0,0,0, ,992.7,-12.6,0.9,-5.6,1.6,-3.3,25,991.338,-9.81856,32.9779,-0.109598,-1.94915,-0.902713,
2026_06_10_19_00_02.446,3.864,29.8,0,0.759,0,0,0,0, ,0,0,0,0,0, ,992.5,11.3,27.7,24.8,2.7,0.1,25,991.415,-9.25985,31.8397,0.48208,-1.69936,-0.945204,
2026_06_10_19_00_02.466,3.864,29.9,0,0.758,0,0,0,0, ,0,0,0,0,0, ,992.4,-9.5,34,17.1,-1.1,-4.2,25,991.478,-8.64073,31.7794,1.72934,-1.54705,-1.01253,
2026_06_10_19_00_02.489,3.864,30,0,0.758,0,0,0,0, ,0,0,0,0,0, ,990.9,-13.7,28,32.9,-2.6,-2.1,25,991.488,-8.82106,31.7319,3.1474,-1.56551,-1.14278,
2026_06_10_19_00_02.506,3.864,30,0,0.76,0,0,0,0, ,0,0,0,0,0, ,993.2,-8,20.1,14.2,0.8,-4.6,25,991.523,-8.9447,31.2638,4.39068,-1.52496,-1.27728,
2026_06_10_19_00_02.526,3.864,29.9,0,0.759,0,0,0,0, ,0,0,0,0,0, ,992.5,-0.2,18.7,19.5,1.7,-2.5,25,991.604,-8.64948,30.5408,5.14992,-1.35586,-1.41578,
2026_06_10_19_00_02.546,3.864,29.9,0,0.758,0,0,0,0, ,0,0,0,0,0, ,993.5,-0.7,17.8,6.5,4.6,-2.1,25,991.689,-8.14982,29.7919,5.62829,-1.08128,-1.46966,
2026_06_10_19_00_02.565,3.864,29.9,0,0.758,0,0,0,0, ,0,0,0,0,0, ,994.7,5,32.4,-5.5,7.6,-1,25,991.836,-7.52218,29.506,5.31578,-0.643675,-1.47455,
2026_06_10_19_00_02.585,3.864,30.1,0,0.758,0,0,0,0, ,0,0,0,0,0, ,990.1,-26.4,44.4,-3.8,6,-1.1,25,991.87,-7.71583,30.0479,4.70849,-0.190076,-1.44868,
2026_06_10_19_00_02.605,3.864,29.9,0,0.759,0,0,0,0, ,0,0,0,0,0, ,992.7,-10.6,36.3,7.5,3.6,-1.4,25,991.841,-8.37299,30.6757,4.5343,0.114007,-1.43658,
2026_06_10_19_00_02.624,3.864,30,0,0.76,0,0,0,0, ,0,0,0,0,0, ,991.8,-5.9,31.3,4.9,4.6,-1.4,25,991.866,-8.36549,30.8661,4.63581,0.356903,-1.43435,
2026_06_10_19_00_02.644,3.864,29.9,0,0.758,0,0,0,0, ,0,0,0,0,0, ,991.8,-7,40.2,4.2,5.1,-1.2,25,991.862,-8.24877,31.1637,4.63058,0.630701,-1.42616,
2026_06_10_19_00_02.664,3.864,29.9,0,0.759,0,0,0,0, ,0,0,0,0,0, ,991.4,-8,49.8,3.1,4.5,-1,25,991.846,-8.20314,32.0069,4.57082,0.884768,-1.40628,
2026_06_10_19_00_02.684,3.864,29.9,0,0.758,0,0,0,0, ,0,0,0,0,0, ,989.2,-10.2,51.7,0.5,3.2,-1,25,991.752,-8.25779,33.149,4.40198,1.06546,-1.38153,
2026_06_10_19_00_02.704,3.864,29.9,0,0.76,0,0,0,0, ,0,0,0,0,0, ,989.9,-8.5,52.4,0,2.6,-0.9,25,991.618,-8.32435,34.3008,4.14897,1.17725,-1.35523,
2026_06_10_19_00_02.724,3.864,30,0,0.759,0,0,0,0, ,0,0,0,0,0, ,989.7,-11.2,54.6,-0.1,1.1,-1,25,991.507,-8.41732,35.4708,3.89309,1.21825,-1.33054,
2026_06_10_19_00_02.744,3.864,29.9,0,0.758,0,0,0,0, ,0,0,0,0,0, ,991.4,-7.2,47.9,-1,0.2,-1.1,25,991.449,-8.46501,36.4323,3.62234,1.18362,-1.31344,
2026_06_10_19_00_02.763,3.864,30,0,0.759,0,0,0,0, ,0,0,0,0,0, ,992.1,-8,42.2,-2.9,0,-0.8,25,991.467,-8.4123,36.9574,3.28278,1.11759,-1.29129,
2026_06_10_19_00_02.783,3.864,30,0,0.757,0,0,0,0, ,0,0,0,0,0, ,992.3,-9.2,47.8,-4,0.5,-0.9,25,991.512,-8.42374,37.4475,2.8725,1.06472,-1.2644,
2026_06_10_19_00_02.803,3.864,29.9,0,0.758,0,0,0,0, ,0,0,0,0,0, ,989.1,-18.6,53.9,-3.1,-0.6,-1.2,25,991.462,-8.75745,38.2643,2.48113,0.996791,-1.25134,
2026_06_10_19_00_02.823,3.864,30,0,0.758,0,0,0,0, ,0,0,0,0,0, ,990.8,-11.1,47.8,-2.4,-1.8,-1.9,25,991.37,-9.12871,39.0312,2.16235,0.862924,-1.26954,
2026_06_10_19_00_02.842,3.864,29.9,0,0.76,0,0,0,0, ,0,0,0,0,0, ,993.8,-9.6,33.2,-1,-1.3,-1.9,25,991.427,-9.20313,39.1207,1.92699,0.715887,-1.30796,
2026_06_10_19_00_02.863,3.864,29.9,0,0.759,0,0,0,0, ,0,0,0,0,0, ,992.9,-8.3,42.7,-1,0.2,-1.5,25,991.544,-9.18771,39.0494,1.74863,0.638747,-1.33185,
2026_06_10_19_00_02.883,3.864,30,0,0.758,0,0,0,0, ,0,0,0,0,0, ,988.7,-12.3,59.9,-5.3,-0.4,-2.1,25,991.499,-9.25549,39.7959,1.45012,0.59373,-1.36037,
2026_06_10_19_00_02.902,3.864,30,0,0.76,0,0,0,0, ,0,0,0,0,0, ,990.1,-13.4,55.9,-7.9,-3,-2.8,25,991.371,-9.47453,40.8991,0.959564,0.453955,-1.42677,
2026_06_10_19_00_02.921,3.864,29.9,0,0.758,0,0,0,0, ,0,0,0,0,0, ,991.2,-5.3,50,-0.1,-5.1,-1.7,25,991.327,-9.46694,41.6335,0.657341,0.179496,-1.47694,
2026_06_10_19_00_02.942,3.864,29.9,0,0.76,0,0,0,0, ,0,0,0,0,0, ,990.9,-1.7,57.2,-4,-6.8,-2.8,25,991.31,-9.10333,42.3627,0.492362,-0.19402,-1.52405,
2026_06_10_19_00_02.962,3.864,29.9,0,0.76,0,0,0,0, ,0,0,0,0,0, ,998.4,10.8,1,45.7,-8.3,3.6,25,991.514,-8.27133,41.5545,1.73291,-0.642275,-1.4068,
2026_06_10_19_00_02.982,3.864,30,0,0.758,0,0,0,0, ,0,0,0,0,0, ,991.5,1,47.2,9.7,-4.9,-3.6,25,991.723,-7.40777,40.4908,3.31528,-1.00532,-1.32107,
2026_06_10_19_00_03.001,3.864,29.9,0,0.758,0,0,0,0, ,0,0,0,0,0, ,997.6,83.1,53.9,-41.6,-1.9,2.7,25,991.895,-4.39393,41.1038,2.1413,-1.15125,-1.26799,
2026_06_10_19_00_03.021,3.864,29.9,0,0.756,0,0,0,0, ,0,0,0,0,0, ,989.6,-53.1,5.6,-3.3,0.5,-0.7,25,991.999,-3.21212,40.4119,0.642766,-1.12375,-1.12979,
2026_06_10_19_00_03.041,3.864,29.9,0,0.758,0,0,0,0, ,0,0,0,0,0, ,987,-20.3,61.7,7.1,-2.3,-1.5,25,991.774,-5.25278,39.9999,0.719379,-1.11012,-1.12797,
2026_06_10_19_00_03.060,3.864,30,0,0.758,0,0,0,0, ,0,0,0,0,0, ,989,-26.9,35.4,13.2,-3.2,-4.3,25,991.544,-6.37082,40.5209,1.29406,-1.21005,-1.23595,
2026_06_10_19_00_03.081,3.864,29.9,0,0.76,0,0,0,0, ,0,0,0,0,0, ,991.5,-15,39.3,9.9,-4.8,-6,25,991.465,-7.25924,40.3277,1.91903,-1.38006,-1.47447,
2026_06_10_19_00_03.100,3.864,30,0,0.758,0,0,0,0, ,0,0,0,0,0, ,995.2,-9,9.5,12.2,-3.1,-7.5,25,991.58,-7.54813,39.3571,2.47545,-1.53667,-1.79594,
2026_06_10_19_00_03.120,3.864,29.9,0,0.758,0,0,0,0, ,0,0,0,0,0, ,994.7,12,11.3,1.2,2.6,-4.4,25,991.785,-6.99676,37.5925,2.73288,-1.45826,-2.04908,
2026_06_10_19_00_03.140,3.864,29.9,0,0.757,0,0,0,0, ,0,0,0,0,0, ,988.4,-6.2,57.9,3.3,1.9,-2.8,25,991.771,-6.39367,37.4102,2.70346,-1.23229,-2.14359,
2026_06_10_19_00_03.166,3.864,29.9,0,0.757,0,0,0,0, ,0,0,0,0,0, ,984.2,-50.9,45.5,-0.6,-1.9,-5.4,25,991.437,-7.74382,38.281,2.62098,-1.15719,-2.26281,
2026_06_10_19_00_03.180,3.864,29.9,0,0.757,0,0,0,0, ,0,0,0,0,0, ,995.6,30.2,30.5,-9.4,-1,-14.4,25,991.344,-7.90264,38.2638,2.15658,-1.17504,-2.7282,
2026_06_10_19_00_03.200,3.864,29.9,0,0.756,0,0,0,0, ,0,0,0,0,0, ,988.4,-38.6,26.7,-3.2,-0.2,-13,25,991.384,-7.67701,37.6749,1.64125,-1.14,-3.3968,
2026_06_10_19_00_03.219,3.864,29.9,0,0.756,0,0,0,0, ,0,0,0,0,0, ,989.3,-8.5,30.5,-1.8,0.3,-20.1,25,991.229,-8.64427,37.1219,1.3889,-1.06748,-4.19832,
2026_06_10_19_00_03.239,3.864,29.9,0,0.76,0,0,0,0, ,0,0,0,0,0, ,1001.8,-21.1,-13.5,-17.5,7.8,-15,25,991.493,-9.01938,35.3778,0.716213,-0.755635,-5.01194,
2026_06_10_19_00_03.259,3.864,29.8,0,0.761,0,0,0,0, ,0,0,0,0,0, ,985.9,17.2,137,7.9,-3.4,-15.9,25,991.636,-8.58859,36.9848,0.380069,-0.575526,-5.64801,
2026_06_10_19_00_03.278,3.864,30,0,0.757,0,0,0,0, ,0,0,0,0,0, ,1000.6,-7.2,-18.1,-10.3,-5.5,-23.2,25,991.735,-7.76054,38.3538,0.283783,-0.811626,-6.49516,
2026_06_10_19_00_03.299,3.864,29.9,0,0.756,0,0,0,0, ,0,0,0,0,0, ,990.7,28.5,42.9,-16.1,-3.2,-26.1,25,991.973,-6.63865,36.7723,-0.537885,-1.02725,-7.60147,
2026_06_10_19_00_03.318,3.864,29.9,0,0.758,0,0,0,0, ,0,0,0,0,0, ,993,16.4,43,-14.7,-4.6,-28.2,25,991.966,-4.86606,37.1487,-1.44354,-1.2023,-8.79271,
2026_06_10_19_00_03.338,3.864,29.9,0,0.76,0,0,0,0, ,0,0,0,0,0, ,990.1,36.7,24.9,-10.4,-5.3,-33.8,25,991.94,-2.95164,36.9538,-2.12034,-1.43068,-10.146,
2026_06_10_19_00_03.358,3.864,29.9,0,0.76,0,0,0,0, ,0,0,0,0,0, ,990.3,46.7,31.3,-8.3,-2.8,-35,25,991.834,-0.230682,36.4143,-2.5609,-1.59029,-11.6239,
2026_06_10_19_00_03.377,3.864,29.9,0,0.758,0,0,0,0, ,0,0,0,0,0, ,989.9,49.5,42.6,-9.9,-4.9,-38.5,25,991.729,2.71447,36.4469,-2.95938,-1.728,-13.1551,
2026_06_10_19_00_03.397,3.864,29.8,0,0.76,0,0,0,0, ,0,0,0,0,0, ,984.9,88,28.8,-17.8,-7,-41.2,25,991.465,6.73851,36.4014,-3.62302,-1.98527,-14.7818,
2026_06_10_19_00_03.417,3.864,29.9,0,0.757,0,0,0,0, ,0,0,0,0,0, ,985.5,101.4,4.1,-18.3,-5.1,-41.8,25,991.083,12.0987,35.1856,-4.50217,-2.23297,-16.4099,
2026_06_10_19_00_03.437,3.864,29.9,0,0.757,0,0,0,0, ,0,0,0,0,0, ,985.1,104.6,8.5,-12.5,-2.5,-41.4,25,990.731,17.638,33.4254,-5.16626,-2.32846,-17.9449,
2026_06_10_19_00_03.456,3.864,29.9,0,0.758,0,0,0,0, ,0,0,0,0,0, ,981.2,121.4,30.8,-10.7,-1,-41.7,25,990.269,23.4491,32.586,-5.55831,-2.29321,-19.3834,
2026_06_10_19_00_03.477,3.864,29.9,0,0.757,0,0,0,0, ,0,0,0,0,0, ,979,125.9,34.7,-5.2,-1.4,-43,25,989.649,29.5551,32.5959,-5.70405,-2.22659,-20.7829,
2026_06_10_19_00_03.497,3.864,29.8,0,0.758,0,0,0,0, ,0,0,0,0,0, ,979.2,139.1,15.9,4.6,0,-44.2,25,989.006,35.8283,32.1514,-5.37475,-2.13356,-22.1733,
2026_06_10_19_00_03.517,3.864,29.9,0,0.76,0,0,0,0, ,0,0,0,0,0, ,975.3,164.4,19.4,13.1,2.3,-44.1,25,988.29,42.8923,31.2677,-4.50792,-1.93347,-23.5125,
2026_06_10_19_00_03.536,3.864,29.8,0,0.758,0,0,0,0, ,0,0,0,0,0, ,975.7,192.7,34.7,9.6,2.7,-36.6,25,987.51,51.1589,31.0107,-3.54158,-1.66331,-24.5386,
2026_06_10_19_00_03.556,3.864,29.9,0,0.757,0,0,0,0, ,0,0,0,0,0, ,977.1,193.8,31,6.1,5.3,-30.1,25,986.833,59.8176,31.1227,-2.84741,-1.3182,-25.0755,
2026_06_10_19_00_03.575,3.864,29.8,0,0.757,0,0,0,0, ,0,0,0,0,0, ,976,171,24.6,1.8,1.7,-26.1,25,986.207,67.2874,30.9203,-2.43319,-1.02459,-25.2598,
2026_06_10_19_00_03.596,3.864,29.8,0,0.758,0,0,0,0, ,0,0,0,0,0, ,967.1,215.9,24.2,6.1,2.9,-37.2,25,985.314,74.9755,30.5229,-2.04422,-0.821999,-25.6492,
2026_06_10_19_00_03.615,3.864,29.9,0,0.758,0,0,0,0, ,0,0,0,0,0, ,964.7,229.8,32.5,4.7,2.7,-34.5,25,984.131,83.9866,30.3905,-1.59058,-0.601283,-26.2708,
2026_06_10_19_00_03.635,3.864,29.9,0,0.76,0,0,0,0, ,0,0,0,0,0, ,964.2,220.7,26.1,7.3,3.1,-33.9,25,982.931,92.5948,30.3241,-1.12803,-0.387924,-26.754,
2026_06_10_19_00_03.655,3.864,29.9,0,0.757,0,0,0,0, ,0,0,0,0,0, ,959.5,254.3,23.5,7.8,4.8,-32.8,25,981.647,101.425,29.9874,-0.599215,-0.123582,-27.156,
2026_06_10_19_00_03.675,3.864,29.9,0,0.759,0,0,0,0, ,0,0,0,0,0, ,946.2,267.5,57.7,5.5,2.4,-29.8,25,979.892,111.143,30.6341,-0.157466,0.103324,-27.4085,
2026_06_10_19_00_03.694,3.864,29.9,0,0.757,0,0,0,0, ,0,0,0,0,0, ,950.9,278.3,50.6,1.8,-2.3,-29.5,25,977.982,121,32.0671,0.0745515,0.100075,-27.5451,
2026_06_10_19_00_03.714,3.864,29.9,0,0.76,0,0,0,0, ,0,0,0,0,0, ,952.7,279.1,30.1,-0.4,-4.4,-27.8,25,976.387,130.61,32.5719,0.112665,-0.110164,-27.6124,
2026_06_10_19_00_03.734,3.864,30,0,0.756,0,0,0,0, ,0,0,0,0,0, ,951.4,278.8,8.4,0.2,-1.9,-27.4,25,974.904,139.649,31.7601,0.0997055,-0.295404,-27.6116,
2026_06_10_19_00_03.754,3.864,29.9,0,0.76,0,0,0,0, ,0,0,0,0,0, ,950.8,286.2,6.7,0.6,2.7,-27.7,25,973.453,148.354,30.2848,0.118005,-0.253028,-27.6079,
2026_06_10_19_00_03.773,3.864,29.9,0,0.757,0,0,0,0, ,0,0,0,0,0, ,948.2,287.3,8.9,3.6,7.6,-28.3,25,971.993,156.788,28.9146,0.238783,0.0762189,-27.6318,
2026_06_10_19_00_03.793,3.864,29.9,0,0.758,0,0,0,0, ,0,0,0,0,0, ,942.2,304,31.3,3.3,10.3,-29.8,25,970.361,165.25,28.3775,0.434466,0.616965,-27.7182,
2026_06_10_19_00_03.813,3.864,29.9,0,0.758,0,0,0,0, ,0,0,0,0,0, ,939.8,304.4,40.7,-3.1,9.2,-31.3,25,968.571,173.717,28.842,0.414085,1.17351,-27.8908,
2026_06_10_19_00_03.834,3.864,29.9,0,0.756,0,0,0,0, ,0,0,0,0,0, ,935.5,319.4,41.2,-6,8.4,-33.5,25,966.687,182.138,29.5798,0.111586,1.63825,-28.1656,
2026_06_10_19_00_03.853,3.864,29.8,0,0.758,0,0,0,0, ,0,0,0,0,0, ,932.4,334.2,35,-4.2,9.8,-33.8,25,964.692,190.953,30.099,-0.205995,2.09295,-28.4998,
2026_06_10_19_00_03.873,3.864,30,0,0.757,0,0,0,0, ,0,0,0,0,0, ,925,347.7,59.2,-5.7,9.8,-33.8,25,962.499,200.093,31.135,-0.495083,2.5626,-28.8227,
2026_06_10_19_00_03.893,3.864,29.9,0,0.76,0,0,0,0, ,0,0,0,0,0, ,918.9,359.1,70.6,-10.2,5.3,-34.6,25,960.028,209.435,33.1926,-0.949367,2.86652,-29.1504,
2026_06_10_19_00_03.913,3.864,29.9,0,0.756,0,0,0,0, ,0,0,0,0,0, ,915.4,374,77.3,-26.1,0.2,-35.9,25,957.415,219.01,35.6762,-1.99753,2.85942,-29.5221,
2026_06_10_19_00_03.933,3.864,29.8,0,0.756,0,0,0,0, ,0,0,0,0,0, ,904.1,428.9,84.5,-39.8,-6.3,-32.2,25,954.511,230.127,38.432,-3.8837,2.49931,-29.798,
2026_06_10_19_00_03.952,3.864,29.9,0,0.759,0,0,0,0, ,0,0,0,0,0, ,901.8,430.7,91.3,-59.9,-13.4,-26.3,25,951.369,242.295,41.4465,-6.68477,1.74678,-29.7646,
2026_06_10_19_00_03.972,3.864,29.9,0,0.758,0,0,0,0, ,0,0,0,0,0, ,901.1,442.3,75.9,-67.9,-18.2,-17.9,25,948.327,254.129,44.0152,-10.1713,0.677519,-29.2976,
2026_06_10_19_00_03.992,3.864,29.9,0,0.76,0,0,0,0, ,0,0,0,0,0, ,823.7,437.1,-24.5,-31.5,-19.9,-17.4,25,943.091,265.437,42.8991,-12.5801,-0.524626,-28.5878,
2026_06_10_19_00_04.012,3.864,30,0,0.757,0,0,0,0, ,0,0,0,0,0, ,898.5,412.4,-23.3,0.7,-26.7,-46.8,25,938.094,275.145,38.8286,-12.7519,-1.9125,-28.8018,
2026_06_10_19_00_04.031,3.864,29.9,0,0.758,0,0,0,0, ,0,0,0,0,0, ,930.4,427.3,33.2,-12.7,-22,-68.2,25,936.653,283.963,36.7641,-12.3405,-3.27979,-30.5506,
2026_06_10_19_00_04.052,3.864,29.9,0,0.761,0,0,0,0, ,0,0,0,0,0, ,943.3,446.7,93.7,-27.2,-9.2,-79.5,25,936.665,293.289,38.3903,-12.8042,-4.03055,-33.1892,
2026_06_10_19_00_04.071,3.864,29.9,0,0.758,0,0,0,0, ,0,0,0,0,0, ,888.9,476.1,155.8,-34.5,16.6,-78.9,25,935.412,303.533,43.6528,-13.9039,-3.55947,-35.993,
2026_06_10_19_00_04.090,3.864,29.9,0,0.758,0,0,0,0, ,0,0,0,0,0, ,826.9,478.3,175.1,-35.6,38.8,-73.7,25,930.689,314.116,51.0748,-15.1925,-1.65459,-38.4492,
2026_06_10_19_00_04.110,3.864,29.9,0,0.756,0,0,0,0, ,0,0,0,0,0, ,781.1,531.2,120.3,-31.4,40.1,-68.5,25,922.969,325.733,56.9629,-16.3081,0.850216,-40.4388,
2026_06_10_19_00_04.131,3.864,29.9,0,0.758,0,0,0,0, ,0,0,0,0,0, ,745.3,563.2,86.1,-28.2,34.3,-67.9,25,913.233,339.228,59.7805,-17.1302,3.06528,-42.1305,
2026_06_10_19_00_04.150,3.864,29.9,0,0.758,0,0,0,0, ,0,0,0,0,0, ,797.4,536.3,114.8,-23.9,16.6,-73.1,25,904.587,352.057,62.2588,-17.6738,4.42935,-43.8593,
2026_06_10_19_00_04.170,3.864,29.9,0,0.757,0,0,0,0, ,0,0,0,0,0, ,848.3,547.7,152.2,-25.8,-0.4,-68.2,25,899.606,363.632,66.6001,-18.1111,4.65303,-45.4918,
2026_06_10_19_00_04.190,3.864,29.9,0,0.757,0,0,0,0, ,0,0,0,0,0, ,829.3,546.7,154,-27.3,0.9,-66.3,25,895.901,374.818,71.8711,-18.6253,4.38472,-46.8177,
2026_06_10_19_00_04.210,3.864,29.9,0,0.757,0,0,0,0, ,0,0,0,0,0, ,810.1,575.5,162.9,-23.4,10.4,-68.7,25,891.257,386.17,77.147,-19.0351,4.46182,-48.0781,
2026_06_10_19_00_04.230,3.864,29.9,0,0.757,0,0,0,0, ,0,0,0,0,0, ,813.1,601.6,135.4,-21.6,11.9,-73.3,25,886.403,398.502,81.5347,-19.2463,4.86938,-49.4749,
2026_06_10_19_00_04.256,3.864,29.9,0,0.761,0,0,0,0, ,0,0,0,0,0, ,818.3,631.5,110.1,-26.3,8.9,-63.5,25,882.095,411.789,84.0463,-19.5329,5.20641,-50.6281,
2026_06_10_19_00_04.269,3.864,29.9,0,0.757,0,0,0,0, ,0,0,0,0,0, ,805.6,653.9,115.2,-22.3,9.1,-57.4,25,877.82,425.86,85.7893,-19.8234,5.43758,-51.2266,
2026_06_10_19_00_04.290,3.864,29.8,0,0.758,0,0,0,0, ,0,0,0,0,0, ,799.4,686.6,135.1,-5.1,8.9,-58.6,25,873.23,440.753,88.1879,-19.4502,5.65466,-51.6394,
2026_06_10_19_00_04.309,3.864,29.9,0,0.757,0,0,0,0, ,0,0,0,0,0, ,676.5,706.6,192.1,-11.9,9.3,-61.8,25,864.987,456.344,92.7833,-18.783,5.86461,-52.1611,
2026_06_10_19_00_04.329,3.864,29.8,0,0.757,0,0,0,0, ,0,0,0,0,0, ,617.7,684.8,226.9,-22,17.2,-74.2,25,851.709,470.929,99.8957,-18.6713,6.31466,-53.1262,
2026_06_10_19_00_04.349,3.864,29.9,0,0.758,0,0,0,0, ,0,0,0,0,0, ,625,705.3,203.9,-38.8,18.5,-75.2,25,837.672,484.587,106.934,-19.386,7.01759,-54.4409,
2026_06_10_19_00_04.369,3.864,29.7,0,0.76,0,0,0,0, ,0,0,0,0,0, ,624.6,724.2,236.8,-60.4,13.3,-69.2,25,824.7,498.612,113.846,-21.2272,7.55887,-55.5231,
2026_06_10_19_00_04.394,3.864,29.8,0,0.758,0,0,0,0.001, ,0,0,0,0,0, ,655.2,720.4,258.1,-65,5.8,-62.8,25,813.439,512.243,121.987,-23.7544,7.6802,-56.1615,
2026_06_10_19_00_04.408,3.864,29.8,0,0.758,0,0,0,0.001, ,0,0,0,0,0, ,689.8,691,239.5,-40.9,8.1,-60.1,25,804.85,524.032,129.715,-25.5335,7.6357,-56.4838,
2026_06_10_19_00_04.428,3.864,29.8,0,0.759,0,0,0,0.001, ,0,0,0,0,0, ,667.3,728.8,253.4,-20.6,21.7,-48.5,25,797.154,535.358,136.828,-25.8514,8.07837,-56.3507,
2026_06_10_19_00_04.448,3.864,29.9,0,0.759,0,0,0,0.001, ,0,0,0,0,0, ,592,753.5,279.6,-16.9,20.2,-48.2,25,786.946,547.899,144.73,-25.4186,8.86274,-55.8632,
2026_06_10_19_00_04.467,3.864,29.9,0,0.758,0,0,0,0, ,0,0,0,0,0, ,557.4,771.6,262,-20.9,8.7,-48.6,25,774.013,560.979,152.413,-25.0214,9.20321,-55.4084,
2026_06_10_19_00_04.488,3.864,29.9,0,0.759,0,0,0,0, ,0,0,0,0,0, ,573.3,781.7,257.4,-29.8,-1.3,-50,25,761.297,574.122,158.95,-25.0414,8.86786,-55.0362,
2026_06_10_19_00_04.508,3.864,29.8,0,0.758,0,0,0,0, ,0,0,0,0,0, ,549.4,782.9,274,-24.8,0,-53.9,25,749.113,586.807,165.455,-25.1791,8.28786,-54.8481,
2026_06_10_19_00_04.529,3.864,29.9,0,0.758,0,0,0,0.001, ,0,0,0,0,0, ,504.6,795.4,279.1,-10,17.4,-65.6,25,735.578,599.138,172.225,-24.705,8.31298,-55.1468,
2026_06_10_19_00_04.547,3.864,29.8,0,0.759,0,0,0,0, ,0,0,0,0,0, ,499.1,794.4,270.8,-9.1,19,-65.6,25,721.335,611.067,178.485,-23.7815,8.91547,-55.7838,
2026_06_10_19_00_04.567,3.864,29.9,0,0.759,0,0,0,0.001, ,0,0,0,0,0, ,499,794.7,266.8,-9.3,21.2,-58.6,25,707.79,622.248,183.989,-22.893,9.59703,-56.1687,
2026_06_10_19_00_04.587,3.864,29.9,0,0.756,0,0,0,0, ,0,0,0,0,0, ,475,774.9,289.4,0.4,25.6,-61.2,25,694.335,632.153,189.724,-21.7691,10.4381,-56.3961,
2026_06_10_19_00_04.607,3.864,29.8,0,0.758,0,0,0,0, ,0,0,0,0,0, ,448.1,814.9,311.7,0,16.5,-57.6,25,680.15,642.071,196.477,-20.4304,11.0848,-56.5791,
2026_06_10_19_00_04.626,3.864,29.8,0,0.76,0,0,0,0.001, ,0,0,0,0,0, ,455.8,831.7,311.4,-3.2,10.1,-54,25,666.244,653.114,203.489,-19.2829,11.2198,-56.5316,
2026_06_10_19_00_04.646,3.864,29.7,0,0.76,0,0,0,0.001, ,0,0,0,0,0, ,448.9,834.2,310.3,-1.7,13.6,-49.6,25,653.21,664.073,210.032,-18.2571,11.2582,-56.2433,
2026_06_10_19_00_04.669,3.864,29.8,0,0.759,0,0,0,0.002, ,0,0,0,0,0, ,386.7,811.1,323.8,1.8,16.2,-50.3,25,638.865,673.736,216.553,-17.1415,11.4801,-55.8598,
2026_06_10_19_00_04.687,3.864,29.9,0,0.758,0,0,0,0.001, ,0,0,0,0,0, ,342.6,844.7,311.5,-0.5,11.4,-53.2,25,622.155,683.131,222.714,-16.0574,11.6215,-55.6094,
2026_06_10_19_00_04.706,3.864,29.7,0,0.76,0,0,0,0, ,0,0,0,0,0, ,359,893.1,296,-0.1,8.7,-52.5,25,605.619,694.451,227.652,-15.0971,11.5257,-55.4412,
2026_06_10_19_00_04.726,3.864,29.9,0,0.76,0,0,0,0.002, ,0,0,0,0,0, ,367.3,894.4,294,7,12.4,-51.1,25,590.844,706.596,231.756,-13.9669,11.4663,-55.2193,
2026_06_10_19_00_04.746,3.864,29.8,0,0.758,0,0,0,0, ,0,0,0,0,0, ,362.7,869.5,300,14.9,15.4,-46.5,25,577.081,717.282,235.732,-12.4486,11.6146,-54.8282,
2026_06_10_19_00_04.765,3.864,29.8,0,0.759,0,0,0,0.001, ,0,0,0,0,0, ,362.4,860.8,288.6,19.8,11.9,-42.5,25,564.008,726.292,239.301,-10.6327,11.7386,-54.1988,
2026_06_10_19_00_04.784,3.864,29.8,0,0.756,0,0,0,0.001, ,0,0,0,0,0, ,353.8,870.7,295.8,19.5,2.2,-35.5,25,551.461,734.79,242.524,-8.78736,11.4529,-53.2726,
2026_06_10_19_00_04.807,3.864,29.8,0,0.756,0,0,0,0.001, ,0,0,0,0,0, ,280.8,868.7,330.4,27.6,8,-38.1,25,537.191,743.012,246.825,-6.8168,11.0658,-52.2688,
2026_06_10_19_00_04.824,3.864,29.8,0,0.759,0,0,0,0.001, ,0,0,0,0,0, ,254.8,897.5,326,23.9,14,-36,25,520.775,751.548,251.784,-4.83226,11.0618,-51.3414,
2026_06_10_19_00_04.844,3.864,29.7,0,0.759,0,0,0,0.001, ,0,0,0,0,0, ,229.7,887.5,311.1,17.3,11.9,-44.5,25,503.803,760.137,255.852,-3.28248,11.1768,-50.6655,
2026_06_10_19_00_04.864,3.864,29.8,0,0.76,0,0,0,0.002, ,0,0,0,0,0, ,224.1,883,318.4,6.7,15.6,-46.7,25,486.929,767.761,259.441,-2.3512,11.3336,-50.3568,
2026_06_10_19_00_04.883,3.864,29.8,0,0.759,0,0,0,0.001, ,0,0,0,0,0, ,181.7,947,312.7,-3.4,20.7,-51.5,25,469.621,776.734,262.86,-2.10738,11.749,-50.2803,
2026_06_10_19_00_04.904,3.864,29.7,0,0.758,0,0,0,0.001, ,0,0,0,0,0, ,177.7,950.9,311.2,-9.2,31.2,-56.4,25,451.954,787.228,265.852,-2.36287,12.6144,-50.5039,
2026_06_10_19_00_04.924,3.864,29.7,0,0.758,0,0,0,0.002, ,0,0,0,0,0, ,250.9,941.7,296.8,-13.7,25.1,-52.1,25,437.472,796.922,268.176,-2.91662,13.5611,-50.7322,
2026_06_10_19_00_04.944,3.864,29.9,0,0.76,0,0,0,0.002, ,0,0,0,0,0, ,292.7,950.9,293.9,-18.7,17.5,-47.3,25,427.376,806.024,269.832,-3.72607,14.0327,-50.6693,
2026_06_10_19_00_04.963,3.864,29.8,0,0.758,0,0,0,0, ,0,0,0,0,0, ,246.2,928.8,318.3,-24.5,17.8,-43.4,25,417.753,814.179,272.042,-4.81526,14.2531,-50.3451,
2026_06_10_19_00_04.983,3.864,29.8,0,0.758,0,0,0,0.001, ,0,0,0,0,0, ,202.8,906,321.6,-14.4,19.4,-41.2,25,405.976,820.469,274.962,-5.70707,14.518,-49.8549,
2026_06_10_19_00_05.004,3.864,29.7,0,0.759,0,0,0,0.001, ,0,0,0,0,0, ,158.9,935.3,327.1,-10.5,15.5,-36.9,25,392.258,826.574,277.971,-6.11797,14.6967,-49.1964,
2026_06_10_19_00_05.023,3.864,29.7,0,0.759,0,0,0,0.002, ,0,0,0,0,0, ,151,973.8,331.5,-14.3,11.5,-37.2,25,377.797,834.373,281.099,-6.50078,14.6237,-48.4563,
2026_06_10_19_00_05.043,3.864,29.8,0,0.759,0,0,0,0.002, ,0,0,0,0,0, ,195.3,960.9,325.5,-16.8,8.7,-30.5,25,365.326,842.476,283.988,-7.05221,14.3481,-47.5662,
2026_06_10_19_00_05.063,3.864,29.8,0,0.756,0,0,0,0.001, ,0,0,0,0,0, ,207.7,929.4,321.6,-14.7,3.5,-19.2,25,355.343,848.733,286.399,-7.58224,13.8455,-46.1819,
2026_06_10_19_00_05.082,3.864,29.8,0,0.76,0,0,0,0.001, ,0,0,0,0,0, ,151.4,895.3,342.6,-11.4,1.3,-13.9,25,344.631,852.609,289.183,-7.91543,13.148,-44.3762,
2026_06_10_19_00_05.101,3.864,29.8,0,0.757,0,0,0,0.001, ,0,0,0,0,0, ,86.4,954.1,358.3,-6.7,2.9,-17.7,25,330.875,857.002,292.917,-7.98457,12.4748,-42.6349,
2026_06_10_19_00_05.121,3.864,29.8,0,0.759,0,0,0,0.001, ,0,0,0,0,0, ,60.3,978,363.2,1.8,9.2,-24.3,25,315.182,863.647,297.05,-7.6473,12.0832,-41.3165,
2026_06_10_19_00_05.142,3.864,29.7,0,0.758,0,0,0,0.001, ,0,0,0,0,0, ,75.3,965.6,353.8,7,9.9,-29.3,25,300.107,870.238,300.795,-6.91317,11.9289,-40.4319,
2026_06_10_19_00_05.162,3.864,29.7,0,0.759,0,0,0,0.002, ,0,0,0,0,0, ,79.5,931.8,342.5,8.9,13.1,-30.1,25,286.536,875.019,303.681,-6.00745,11.9027,-39.7779,
2026_06_10_19_00_05.181,3.864,29.9,0,0.76,0,0,0,0.002, ,0,0,0,0,0, ,86.7,945.5,341,13.1,15.5,-30.3,25,274.139,878.897,306.001,-4.97105,12.0488,-39.1943,
2026_06_10_19_00_05.201,3.864,29.8,0,0.759,0,0,0,0.001, ,0,0,0,0,0, ,90.9,938.1,345.2,15.3,10.1,-26.9,25,262.845,882.73,308.261,-3.80282,12.0946,-38.5487,
2026_06_10_19_00_05.221,3.864,29.7,0,0.758,0,0,0,0.001, ,0,0,0,0,0, ,40,927.6,340.3,19.6,19.5,-29,25,250.816,885.784,310.363,-2.50773,12.2595,-37.9028,
2026_06_10_19_00_05.247,3.864,29.8,0,0.759,0,0,0,0.002, ,0,0,0,0,0, ,5,936.1,343.1,13.3,10.7,-29.2,25,236.903,888.591,312.273,-1.35249,12.4326,-37.3664,
2026_06_10_19_00_05.260,3.864,29.8,0,0.757,0,0,0,0.001, ,0,0,0,0,0, ,36.6,957,321.7,7.7,7.4,-28.9,25,223.735,892.123,313.499,-0.630228,12.2264,-36.8596,
2026_06_10_19_00_05.280,3.864,29.8,0,0.76,0,0,0,0.001, ,0,0,0,0,0, ,72.3,936.5,301.5,9.4,4.6,-22.9,25,213.419,895.452,313.383,-0.070808,11.847,-36.1918,
2026_06_10_19_00_05.300,3.864,29.7,0,0.759,0,0,0,0.001, ,0,0,0,0,0, ,51,947.5,300.1,10,6,-16.7,25,204.17,898.288,312.617,0.524601,11.4481,-35.1929,
2026_06_10_19_00_05.320,3.864,29.7,0,0.759,0,0,0,0.002, ,0,0,0,0,0, ,5,962.7,322.2,9.7,2.9,-20.1,25,193.435,901.75,312.527,1.09287,11.0216,-34.1696,
2026_06_10_19_00_05.340,3.864,29.7,0,0.759,0,0,0,0.002, ,0,0,0,0,0, ,19.8,975.9,314.5,5.6,-1.9,-20.1,25,182.403,905.867,312.882,1.49244,10.3804,-33.3122,
2026_06_10_19_00_05.360,3.864,29.7,0,0.756,0,0,0,0.002, ,0,0,0,0,0, ,61.4,948.9,303.1,3.4,-7,-13.8,25,173.762,909.312,312.633,1.67572,9.47672,-32.3151,
2026_06_10_19_00_05.380,3.864,29.9,0,0.759,0,0,0,0.002, ,0,0,0,0,0, ,78.3,929.1,292.7,2.8,-16.1,-6.2,25,167.43,911.121,311.735,1.76251,8.1954,-30.9553,
2026_06_10_19_00_05.401,3.864,29.7,0,0.76,0,0,0,0.001, ,0,0,0,0,0, ,22.7,971.9,302.1,2.7,-29.4,-0.1,25,160.304,913.521,310.862,1.82268,6.30967,-29.2609,
2026_06_10_19_00_05.419,3.864,29.8,0,0.757,0,0,0,0.002, ,0,0,0,0,0, ,-11.8,959.1,329.8,6.5,-16.2,-4.1,25,150.868,916.688,311.172,1.99193,4.5358,-27.6058,
2026_06_10_19_00_05.438,3.864,29.7,0,0.758,0,0,0,0.002, ,0,0,0,0,0, ,9.8,947.1,294,4.3,-5.9,-11.9,25,141.614,918.907,311.216,2.19961,3.58604,-26.4111,
2026_06_10_19_00_05.458,3.864,29.8,0,0.758,0,0,0,0.002, ,0,0,0,0,0, ,18.4,920.1,272.5,2.2,-4.9,-6.5,25,133.843,919.802,309.512,2.26361,3.03845,-25.3623,
2026_06_10_19_00_05.478,3.864,29.7,0,0.757,0,0,0,0.002, ,0,0,0,0,0, ,9.6,910,256.9,-4.6,-16.1,-1.4,25,126.54,919.513,306.781,2.05255,2.21345,-24.0575,
2026_06_10_19_00_05.499,3.864,29.7,0,0.758,0,0,0,0.003, ,0,0,0,0,0, ,6.3,977.1,270,-3.8,-24.3,-0.5,25,119.314,920.977,304.141,1.67154,0.847631,-22.6494,
2026_06_10_19_00_05.518,3.864,29.8,0,0.76,0,0,0,0.003, ,0,0,0,0,0, ,-39.3,978.6,306.5,6.5,-8,-3.6,25,111.038,924.443,303.173,1.65194,-0.188162,-21.3941,
2026_06_10_19_00_05.538,3.864,29.7,0,0.757,0,0,0,0.002, ,0,0,0,0,0, ,-52.7,955,320.4,10.8,0,-11.7,25,101.468,927.024,303.799,2.07839,-0.420446,-20.5566,
2026_06_10_19_00_05.558,3.864,29.7,0,0.756,0,0,0,0.003, ,0,0,0,0,0, ,-11.9,933.8,309.8,6.6,2,-17.8,25,93.3166,928.083,304.487,2.48189,-0.333887,-20.2027,
2026_06_10_19_00_05.578,3.864,29.7,0,0.758,0,0,0,0.003, ,0,0,0,0,0, ,22.5,927.2,286.9,1.3,-1.1,-16.1,25,87.9531,928.23,304.113,2.57135,-0.286119,-20.0045,
2026_06_10_19_00_05.597,3.864,29.7,0,0.757,0,0,0,0.003, ,0,0,0,0,0, ,15.8,943.2,277.7,-1,-5.2,-13.9,25,83.7604,928.655,302.784,2.4238,-0.460637,-19.6995,
2026_06_10_19_00_05.617,3.864,29.7,0,0.759,0,0,0,0.003, ,0,0,0,0,0, ,-8.3,958.7,281.4,1,-5.3,-10.1,25,78.8847,930.014,301.368,2.2761,-0.752489,-19.2304,
2026_06_10_19_00_05.637,3.864,29.8,0,0.757,0,0,0,0.003, ,0,0,0,0,0, ,-35.7,973.5,295.6,5.3,2,-12.3,25,72.7371,932.213,300.584,2.32935,-0.807181,-18.741,
2026_06_10_19_00_05.657,3.864,29.8,0,0.76,0,0,0,0.002, ,0,0,0,0,0, ,-24.4,963.6,290.8,7.8,7.1,-17.1,25,66.4735,934.427,300.134,2.58655,-0.480728,-18.4948,
2026_06_10_19_00_05.676,3.864,29.7,0,0.758,0,0,0,0.002, ,0,0,0,0,0, ,15,958.8,291.1,2.8,1.8,-14.8,25,62.1364,936.058,299.575,2.7519,-0.180261,-18.3397,
2026_06_10_19_00_05.702,3.864,29.7,0,0.758,0,0,0,0.003, ,0,0,0,0,0, ,24.2,951.7,288.6,0.5,-0.5,-12.2,25,59.5443,937.228,298.982,2.68475,-0.129667,-18.0448,
2026_06_10_19_00_05.716,3.864,29.7,0,0.758,0,0,0,0.003, ,0,0,0,0,0, ,2.6,947,287.4,1.7,0.1,-8.7,25,56.7324,937.967,298.313,2.58818,-0.133953,-17.582,
2026_06_10_19_00_05.736,3.864,29.7,0,0.758,0,0,0,0.003, ,0,0,0,0,0, ,-45.4,951.1,290,2.4,3.9,-7.2,25,51.9712,938.642,297.727,2.55539,-0.0039155,-16.995,
2026_06_10_19_00_05.756,3.864,29.8,0,0.76,0,0,0,0.003, ,0,0,0,0,0, ,-71.7,964.7,286.2,-1.4,3.6,-9.4,25,45.2363,939.816,297.14,2.43014,0.224839,-16.4652,
2026_06_10_19_00_05.776,3.864,29.8,0,0.756,0,0,0,0.002, ,0,0,0,0,0, ,-43.9,967.6,281.3,-4.6,0.9,-9.4,25,38.9575,941.42,296.324,2.09924,0.348247,-16.0346,
2026_06_10_19_00_05.796,3.864,29.7,0,0.756,0,0,0,0.002, ,0,0,0,0,0, ,-10.9,961.9,268.9,-3.9,0.5,-8,25,34.9139,942.842,295.031,1.71233,0.369682,-15.5877,
2026_06_10_19_00_05.815,3.864,29.7,0,0.76,0,0,0,0.003, ,0,0,0,0,0, ,-17.9,977.5,276.4,-0.1,-1.2,-7.2,25,31.9088,944.479,293.667,1.48611,0.325826,-15.1009,
2026_06_10_19_00_05.835,3.864,29.8,0,0.757,0,0,0,0.003, ,0,0,0,0,0, ,-42.1,985.2,284.3,0.2,0,-7.2,25,28.1362,946.725,292.856,1.3986,0.269409,-14.6195,
2026_06_10_19_00_05.855,3.864,29.8,0,0.757,0,0,0,0.002, ,0,0,0,0,0, ,-50.9,979.7,285.8,-0.4,0,-8.3,25,23.5881,948.902,292.38,1.30728,0.252992,-14.2009,
2026_06_10_19_00_05.875,3.864,29.7,0,0.757,0,0,0,0.002, ,0,0,0,0,0, ,-36,971.5,278.4,-1.9,-0.6,-6.3,25,19.503,950.529,291.754,1.15754,0.219294,-13.7803,
2026_06_10_19_00_05.895,3.864,29.9,0,0.758,0,0,0,0.003, ,0,0,0,0,0, ,-27,970.8,272.8,-1.6,-2.5,-4.3,25,16.395,951.786,290.769,0.980359,0.111477,-13.2636,
2026_06_10_19_00_05.914,3.864,29.7,0,0.757,0,0,0,0.001, ,0,0,0,0,0, ,-58.2,960.5,274.7,0.6,-0.4,-4.3,25,12.8,952.631,289.732,0.89015,0.0163249,-12.7173,
2026_06_10_19_00_05.934,3.864,29.7,0,0.758,0,0,0,0.003, ,0,0,0,0,0, ,-91.9,966.4,288.3,2.6,4.5,-7.5,25,7.4466,953.29,289.23,0.933406,0.140252,-12.3019,
2026_06_10_19_00_05.954,3.864,29.7,0,0.76,0,0,0,0.003, ,0,0,0,0,0, ,-65.3,974.4,285,-1.6,1,-8.5,25,2.20314,954.333,289.073,0.906996,0.299283,-12.0398,
2026_06_10_19_00_05.973,3.864,29.7,0,0.76,0,0,0,0.003, ,0,0,0,0,0, ,-16.9,966.9,276.2,-3.6,-0.9,-5.1,25,-0.435647,955.327,288.557,0.693288,0.284093,-11.7205,
2026_06_10_19_00_05.993,3.864,29.8,0,0.756,0,0,0,0.003, ,0,0,0,0,0, ,-20.5,957,276.8,-1.1,-0.9,-2.2,25,-1.54863,955.731,287.822,0.507838,0.211937,-11.2287,
2026_06_10_19_00_06.013,3.864,29.7,0,0.758,0,0,0,0.002, ,0,0,0,0,0, ,-56.7,958.8,280,1.2,0.1,-2.4,25,-3.80645,955.863,287.248,0.479938,0.174647,-10.6846,
2026_06_10_19_00_06.033,3.864,29.7,0,0.758,0,0,0,0.003, ,0,0,0,0,0, ,-75.4,961.7,277.7,2,0.6,-3.7,25,-7.59942,956.13,286.736,0.548192,0.185333,-10.2194,
2026_06_10_19_00_06.054,3.864,29.7,0,0.758,0,0,0,0.003, ,0,0,0,0,0, ,-48.9,959.3,277.5,0,-2.1,-2.4,25,-10.9236,956.396,286.179,0.575724,0.128336,-9.78247,
2026_06_10_19_00_06.073,3.864,29.7,0,0.757,0,0,0,0.003, ,0,0,0,0,0, ,-44.6,956,282.2,-1.8,-2.6,-0.2,25,-13.1068,956.473,285.794,0.485797,-0.0226877,-9.26557,
2026_06_10_19_00_06.093,3.864,29.7,0,0.758,0,0,0,0.003, ,0,0,0,0,0, ,-58.7,960.8,291.3,-1.6,-1,-1.3,25,-15.4555,956.59,285.852,0.3526,-0.130993,-8.74665,
2026_06_10_19_00_06.112,3.864,29.7,0,0.757,0,0,0,0.003, ,0,0,0,0,0, ,-53.3,958.4,281.6,-1.1,0.7,-1.4,25,-17.9262,956.774,285.889,0.248848,-0.132151,-8.29592,
2026_06_10_19_00_06.133,3.864,29.7,0,0.758,0,0,0,0.003, ,0,0,0,0,0, ,-45.5,950,275.7,-2.3,-0.7,-0.3,25,-19.8441,956.617,285.447,0.13009,-0.124098,-7.84218,
2026_06_10_19_00_06.153,3.864,29.7,0,0.758,0,0,0,0.003, ,0,0,0,0,0, ,-48.8,953.1,274.1,-3.7,-3.7,1.7,25,-21.5081,956.308,284.805,-0.0606498,-0.250598,-7.32164,
2026_06_10_19_00_06.173,3.864,29.7,0,0.757,0,0,0,0.003, ,0,0,0,0,0, ,-40.6,960.5,274,-5.7,-8.1,3.7,25,-22.9213,956.338,284.149,-0.34336,-0.594859,-6.71095,
2026_06_10_19_00_06.192,3.864,29.7,0,0.758,0,0,0,0.003, ,0,0,0,0,0, ,-19.5,956.5,272.4,-6,-10.5,4.9,25,-23.3557,956.47,283.482,-0.678921,-1.12533,-6.03997,
2026_06_10_19_00_06.212,3.864,29.7,0,0.761,0,0,0,0.003, ,0,0,0,0,0, ,-52.6,951.6,285.8,-2.9,-7.7,4,25,-24.1293,956.322,283.215,-0.908721,-1.61128,-5.40074,
2026_06_10_19_00_06.231,3.864,29.7,0,0.758,0,0,0,0.004, ,0,0,0,0,0, ,-61.8,963.5,295.5,-3.8,-5.5,2.5,25,-26.1445,956.397,283.668,-1.05749,-1.91528,-4.87358,
2026_06_10_19_00_06.251,3.864,29.8,0,0.757,0,0,0,0.004, ,0,0,0,0,0, ,-25.8,967.6,287.5,-4.7,-4.8,2,25,-27.2204,956.955,284.145,-1.25203,-2.1124,-4.43949,
2026_06_10_19_00_06.271,3.864,29.8,0,0.758,0,0,0,0.003, ,0,0,0,0,0, ,-4.1,953.3,291.2,-3.8,-7.4,3.3,25,-26.4727,957.168,284.463,-1.43472,-2.35539,-4.00747,
2026_06_10_19_00_06.291,3.864,29.7,0,0.757,0,0,0,0.003, ,0,0,0,0,0, ,-13.7,940.1,296.9,-1.8,-8.9,4.7,25,-25.4018,956.53,285.047,-1.51792,-2.7085,-3.51952,
2026_06_10_19_00_06.311,3.864,29.7,0,0.758,0,0,0,0.004, ,0,0,0,0,0, ,-58.1,951.2,305.7,-0.4,-7.3,2.8,25,-26.0416,955.867,286.037,-1.49245,-3.03705,-3.07653,
2026_06_10_19_00_06.331,3.864,29.7,0,0.758,0,0,0,0.004, ,0,0,0,0,0, ,-78.1,960.6,303.4,-1.5,-4.2,-0.2,25,-28.6045,955.869,287.165,-1.45939,-3.20237,-2.80984,
2026_06_10_19_00_06.351,3.864,29.8,0,0.758,0,0,0,0.004, ,0,0,0,0,0, ,-56,959.1,283.4,-2.4,-2.1,-2.2,25,-30.9473,956.112,287.545,-1.48929,-3.19918,-2.71174,
2026_06_10_19_00_06.370,3.864,29.8,0,0.758,0,0,0,0.003, ,0,0,0,0,0, ,-27.9,952.5,271.6,-1,-2.1,-2.3,25,-31.6178,956.093,286.933,-1.50213,-3.1322,-2.6836,
2026_06_10_19_00_06.394,3.864,29.8,0,0.755,0,0,0,0.003, ,0,0,0,0,0, ,-22.9,950.3,272.9,0,-3.4,-2.1,25,-31.2389,955.807,286.038,-1.44106,-3.10891,-2.65413,
2026_06_10_19_00_06.410,3.864,29.7,0,0.758,0,0,0,0.003, ,0,0,0,0,0, ,-23,951.2,276.1,0.6,-3.6,-2,25,-30.7338,955.499,285.335,-1.33497,-3.13274,-2.61732,
2026_06_10_19_00_06.430,3.864,29.7,0,0.76,0,0,0,0.004, ,0,0,0,0,0, ,-35.6,949.4,281.6,1.8,-3.5,-1.3,25,-30.6464,955.182,284.94,-1.18049,-3.15816,-2.55837,
2026_06_10_19_00_06.449,3.864,29.8,0,0.756,0,0,0,0.004, ,0,0,0,0,0, ,-53.7,947.8,294.3,0,-3.8,-1.6,25,-31.4997,954.781,285.123,-1.05371,-3.18814,-2.49083,
2026_06_10_19_00_06.469,3.864,29.6,0,0.758,0,0,0,0.003, ,0,0,0,0,0, ,-57.6,956.1,297.4,-2.7,-2.3,-2.3,25,-32.9714,954.608,285.777,-1.07177,-3.17972,-2.45787,
2026_06_10_19_00_06.489,3.864,29.7,0,0.758,0,0,0,0.005, ,0,0,0,0,0, ,-44.5,958.9,291.5,-3.8,-1.4,-3.8,25,-34.0731,954.784,286.306,-1.2045,-3.09869,-2.49396,
2026_06_10_19_00_06.509,3.864,29.8,0,0.758,0,0,0,0.004, ,0,0,0,0,0, ,-26.8,958.3,282.9,-3.5,0,-4,25,-34.1692,955.017,286.36,-1.35353,-2.95252,-2.57964,
2026_06_10_19_00_06.529,3.864,29.8,0,0.758,0,0,0,0.003, ,0,0,0,0,0, ,-12,953.8,277.7,-3,-0.5,-3.1,25,-33.2692,955.08,285.991,-1.46909,-2.78783,-2.63877,
2026_06_10_19_00_06.549,3.864,29.7,0,0.76,0,0,0,0.003, ,0,0,0,0,0, ,-14,961.5,281.3,-2.6,-2.1,-1,25,-32.034,955.236,285.595,-1.55019,-2.69717,-2.60289,
2026_06_10_19_00_06.568,3.864,29.8,0,0.76,0,0,0,0.004, ,0,0,0,0,0, ,-20,966.5,291.2,-0.9,-2.6,-0.6,25,-31.1179,955.77,285.635,-1.56237,-2.67601,-2.49303,
2026_06_10_19_00_06.588,3.864,29.8,0,0.758,0,0,0,0.003, ,0,0,0,0,0, ,-13.3,968,299.1,-0.6,-1.8,0.4,25,-30.2362,956.47,286.215,-1.51287,-2.64701,-2.3472,
2026_06_10_19_00_06.608,3.864,29.8,0,0.757,0,0,0,0.003, ,0,0,0,0,0, ,-29.7,974.2,310.6,-1.4,0.2,1.6,25,-29.7039,957.362,287.351,-1.48161,-2.53445,-2.14323,
2026_06_10_19_00_06.628,3.864,29.8,0,0.757,0,0,0,0.003, ,0,0,0,0,0, ,-17.5,965.4,308.5,-4.2,-0.7,2.5,25,-29.3319,958.12,288.703,-1.56195,-2.39525,-1.88771,
2026_06_10_19_00_06.647,3.864,29.8,0,0.758,0,0,0,0.003, ,0,0,0,0,0, ,5,955.2,293.9,-5.2,-1.1,4.7,25,-27.9254,958.252,289.465,-1.75318,-2.30413,-1.5533,
2026_06_10_19_00_06.672,3.864,29.7,0,0.758,0,0,0,0.003, ,0,0,0,0,0, ,-1,944.2,285.2,-4.9,-4.2,7.1,25,-26.1018,957.731,289.47,-1.95408,-2.32521,-1.09911,
2026_06_10_19_00_06.687,3.864,29.8,0,0.757,0,0,0,0.004, ,0,0,0,0,0, ,-34.9,943.9,293.2,-3.6,-6.4,6.8,25,-25.605,956.898,289.454,-2.09399,-2.50648,-0.608621,
2026_06_10_19_00_06.707,3.864,29.7,0,0.759,0,0,0,0.003, ,0,0,0,0,0, ,-60.5,950.5,294.9,-1.7,-4.1,3.3,25,-26.9514,956.307,289.734,-2.12787,-2.67367,-0.263799,
2026_06_10_19_00_06.727,3.864,29.8,0,0.757,0,0,0,0.004, ,0,0,0,0,0, ,-48.4,949.5,294,-2.3,-2.8,0.5,25,-28.6271,955.922,290.021,-2.12008,-2.72097,-0.131942,
2026_06_10_19_00_06.747,3.864,29.7,0,0.758,0,0,0,0.003, ,0,0,0,0,0, ,-35.4,956,292.8,-3.5,-2.7,-0.1,25,-29.436,955.729,290.227,-2.1676,-2.72274,-0.111714,
2026_06_10_19_00_06.767,3.864,29.8,0,0.757,0,0,0,0.004, ,0,0,0,0,0, ,-20.8,969.7,289.9,-4.2,-3.5,-0.4,25,-29.3545,956.163,290.295,-2.27012,-2.74573,-0.120141,
2026_06_10_19_00_06.786,3.864,29.7,0,0.76,0,0,0,0.003, ,0,0,0,0,0, ,-2.9,979,296.2,-4.7,-4.4,1.6,25,-28.2879,957.271,290.463,-2.40296,-2.81912,-0.0762577,
2026_06_10_19_00_06.806,3.864,29.7,0,0.757,0,0,0,0.004, ,0,0,0,0,0, ,20.3,975.7,303.3,-4.8,-4.4,4.8,25,-26.0339,958.495,291.029,-2.54598,-2.91545,0.123389,
2026_06_10_19_00_06.825,3.864,29.8,0,0.757,0,0,0,0.004, ,0,0,0,0,0, ,15.5,957,304.1,-4.7,-3.6,8.6,25,-23.3567,958.973,291.801,-2.68029,-2.98154,0.524151,
2026_06_10_19_00_06.845,3.864,29.8,0,0.76,0,0,0,0.003, ,0,0,0,0,0, ,-8.1,940.3,299.4,-2.6,-1.2,9.6,25,-21.7079,958.344,292.408,-2.73938,-2.9461,1.04674,
2026_06_10_19_00_06.866,3.864,29.8,0,0.758,0,0,0,0.004, ,0,0,0,0,0, ,0.7,934.4,293,-1.5,-5.5,8.6,25,-20.6106,957.065,292.639,-2.69737,-2.97072,1.53749,
2026_06_10_19_00_06.886,3.864,29.7,0,0.758,0,0,0,0.004, ,0,0,0,0,0, ,35,951.6,301.1,-2.4,-10.7,11.4,25,-18.2669,956.208,292.907,-2.65183,-3.28328,2.05317,
2026_06_10_19_00_06.905,3.864,29.8,0,0.758,0,0,0,0.004, ,0,0,0,0,0, ,20.1,989.6,315.5,-1.8,-8.8,14.1,25,-15.4749,957.085,293.845,-2.6182,-3.67735,2.70501,
2026_06_10_19_00_06.925,3.864,29.8,0,0.76,0,0,0,0.004, ,0,0,0,0,0, ,51.5,991.6,319.2,-5,-8.3,19.2,25,-12.3503,959.127,295.278,-2.66584,-3.97427,3.55478,
2026_06_10_19_00_06.945,3.864,29.7,0,0.758,0,0,0,0.004, ,0,0,0,0,0, ,92.2,981,300.1,-7.6,-7.4,27.1,25,-7.21939,960.783,296.154,-2.8873,-4.21045,4.74887,
2026_06_10_19_00_06.964,3.864,29.7,0,0.759,0,0,0,0.004, ,0,0,0,0,0, ,100.4,991.9,286.3,-7.6,-12.1,36,25,-0.911177,962.347,295.974,-3.17448,-4.54802,6.38206,
2026_06_10_19_00_06.984,3.864,29.8,0,0.76,0,0,0,0.004, ,0,0,0,0,0, ,89.7,989.6,275.6,-3.5,-12.4,42,25,4.93646,964.078,295.058,-3.31924,-5.01736,8.36972,
2026_06_10_19_00_07.004,3.864,29.8,0,0.76,0,0,0,0.004, ,0,0,0,0,0, ,71.6,984.9,284.4,0.9,-11.3,46.5,25,9.55025,965.49,294.14,-3.19619,-5.43372,10.5562,
2026_06_10_19_00_07.024,3.864,29.9,0,0.76,0,0,0,0.004, ,0,0,0,0,0, ,84.2,994.5,305,-2,-16.7,50.7,25,13.7153,966.965,294.175,-3.03494,-5.95573,12.8745,
2026_06_10_19_00_07.044,3.864,29.7,0,0.759,0,0,0,0.003, ,0,0,0,0,0, ,175.7,979,312.2,-6.5,-30.6,56.3,25,20.7984,968.171,295.054,-3.10898,-7.03397,15.3501,
2026_06_10_19_00_07.063,3.864,29.8,0,0.759,0,0,0,0.005, ,0,0,0,0,0, ,255.3,950.4,311.6,-4.2,-38.6,65.6,25,32.663,967.959,296.08,-3.24554,-8.71378,18.1288,
2026_06_10_19_00_07.083,3.864,29.8,0,0.759,0,0,0,0.004, ,0,0,0,0,0, ,210.6,958.7,318.2,-1.6,-35,77.3,25,44.868,967.142,297.227,-3.22449,-10.4253,21.3781,
2026_06_10_19_00_07.103,3.864,29.7,0,0.759,0,0,0,0.004, ,0,0,0,0,0, ,140.2,968.1,324.5,-0.7,-33,79.2,25,52.8223,966.914,298.697,-3.09807,-11.8619,24.8437,
2026_06_10_19_00_07.123,3.864,29.8,0,0.759,0,0,0,0.005, ,0,0,0,0,0, ,116.8,958.3,329.8,0,-27.9,73.3,25,57.4339,966.688,300.431,-2.93061,-12.9946,27.9763,
2026_06_10_19_00_07.142,3.864,29.7,0,0.759,0,0,0,0.004, ,0,0,0,0,0, ,142.2,943.6,330.5,0.5,-27,69.7,25,61.8254,965.729,302.242,-2.73679,-13.8755,30.6285,
2026_06_10_19_00_07.163,3.864,29.8,0,0.758,0,0,0,0.005, ,0,0,0,0,0, ,194.9,908.6,305.9,-3.9,-25.2,64.8,25,68.3289,963.314,303.214,-2.67361,-14.6204,32.8601,
2026_06_10_19_00_07.183,3.864,29.8,0,0.758,0,0,0,0.004, ,0,0,0,0,0, ,249.7,875,301.5,-8.6,-26.1,63.1,25,77.7116,958.956,303.244,-2.89155,-15.2925,34.7547,
2026_06_10_19_00_07.202,3.864,29.9,0,0.759,0,0,0,0.004, ,0,0,0,0,0, ,257.2,877.3,305.6,-9.2,-21.9,61.3,25,88.4206,953.91,303.263,-3.25769,-15.8231,36.4271,
2026_06_10_19_00_07.221,3.864,29.8,0,0.759,0,0,0,0.003, ,0,0,0,0,0, ,235.7,886.3,308.5,-6.1,-14.1,53.2,25,98.0505,949.516,303.493,-3.52535,-15.9558,37.696,
2026_06_10_19_00_07.242,3.864,29.8,0,0.759,0,0,0,0.004, ,0,0,0,0,0, ,273.9,880.1,306.3,-6.5,-14.2,45.8,25,107.602,945.475,303.731,-3.69443,-15.8457,38.4153,
2026_06_10_19_00_07.262,3.864,29.9,0,0.759,0,0,0,0.004, ,0,0,0,0,0, ,360.7,859.3,304.6,-4.2,-22.2,39.4,25,120.381,940.857,303.836,-3.79531,-15.9892,38.6703,
2026_06_10_19_00_07.282,3.864,29.8,0,0.759,0,0,0,0.003, ,0,0,0,0,0, ,411.2,865.8,299.4,-2.6,-23.5,41.8,25,136.564,936.085,303.724,-3.77122,-16.4073,38.7879,
2026_06_10_19_00_07.301,3.864,29.6,0,0.759,0,0,0,0.004, ,0,0,0,0,0, ,355.7,869.1,314,2,-11.9,42.4,25,151.609,931.903,303.906,-3.5597,-16.4861,38.9897,
2026_06_10_19_00_07.321,3.864,29.7,0,0.76,0,0,0,0.006, ,0,0,0,0,0, ,351.1,868.6,325.8,-4.3,-10.1,39.5,25,163.905,928.061,304.88,-3.41286,-16.1517,39.1092,
2026_06_10_19_00_07.341,3.864,29.7,0,0.76,0,0,0,0.005, ,0,0,0,0,0, ,425.4,850.2,297.4,-11.2,-9,39.7,25,177.576,923.877,305.29,-3.67715,-15.7495,39.1391,
2026_06_10_19_00_07.364,3.864,29.7,0,0.76,0,0,0,0.005, ,0,0,0,0,0, ,517.9,824.2,267.4,-9.2,-13.6,45.8,25,195.496,918.595,303.895,-4.07464,-15.4783,39.3591,
2026_06_10_19_00_07.380,3.864,29.8,0,0.758,0,0,0,0.005, ,0,0,0,0,0, ,520.3,815.6,266.8,-4.1,-18.5,55.7,25,215.216,912.581,301.653,-4.23157,-15.5132,40.0533,
2026_06_10_19_00_07.400,3.864,29.7,0,0.76,0,0,0,0.004, ,0,0,0,0,0, ,454.4,833.2,294.4,-1.8,-20,59.5,25,231.799,907.207,300.37,-4.15348,-15.7409,41.1225,
2026_06_10_19_00_07.420,3.864,29.7,0,0.758,0,0,0,0.005, ,0,0,0,0,0, ,424.4,833.9,315.5,0.7,-7.9,54,25,244.45,902.719,300.649,-3.93389,-15.6317,42.0748,
2026_06_10_19_00_07.440,3.864,29.7,0,0.759,0,0,0,0.005, ,0,0,0,0,0, ,509.8,798.8,316.6,-5.3,-1.8,55.1,25,258.018,897.455,301.587,-3.83432,-14.9747,42.835,
2026_06_10_19_00_07.460,3.864,29.7,0,0.759,0,0,0,0.005, ,0,0,0,0,0, ,627.8,770.5,281.4,-14.1,-10.1,69.6,25,276.956,890.581,301.43,-4.19176,-14.4248,44.0242,
2026_06_10_19_00_07.479,3.864,29.8,0,0.756,0,0,0,0.005, ,0,0,0,0,0, ,591,811.7,268.6,-9.2,-17.8,87.5,25,297.214,884.519,299.819,-4.64625,-14.3958,46.1281,
2026_06_10_19_00_07.500,3.864,29.9,0,0.758,0,0,0,0.004, ,0,0,0,0,0, ,465.3,822.5,296.5,-2.3,-14,81.6,25,311.287,880.411,298.767,-4.71351,-14.4875,48.4695,
2026_06_10_19_00_07.519,3.864,29.7,0,0.759,0,0,0,0.003, ,0,0,0,0,0, ,501.3,778.4,305.5,6,-4.7,61.7,25,321.769,875.538,298.903,-4.31355,-14.1744,49.882,
2026_06_10_19_00_07.539,3.864,29.7,0,0.759,0,0,0,0.005, ,0,0,0,0,0, ,665.1,737.5,267.5,9.2,-3.6,59.9,25,337.7,868.373,298.147,-3.58756,-13.5636,50.5473,
2026_06_10_19_00_07.559,3.864,29.7,0,0.758,0,0,0,0.005, ,0,0,0,0,0, ,716.5,691.5,248.2,9.1,-9.7,73.7,25,359.217,858.996,295.692,-2.81137,-13.1423,51.5377,
2026_06_10_19_00_07.579,3.864,29.7,0,0.758,0,0,0,0.005, ,0,0,0,0,0, ,645.6,753.9,250.1,12.1,-16.6,81.5,25,378.829,850.691,292.855,-1.99411,-13.1427,53.1259,
2026_06_10_19_00_07.598,3.864,29.8,0,0.758,0,0,0,0.005, ,0,0,0,0,0, ,561.4,700.3,313.1,16.7,-5.6,70.2,25,392.52,843.159,292.17,-0.995098,-13.0183,54.5107,
2026_06_10_19_00_07.619,3.864,29.8,0,0.758,0,0,0,0.004, ,0,0,0,0,0, ,625,681.1,283.4,19.3,-4.9,60.4,25,404.748,833.869,292.54,0.162416,-12.5449,55.1681,
2026_06_10_19_00_07.643,3.864,29.8,0,0.759,0,0,0,0.004, ,0,0,0,0,0, ,731.4,653.3,226.1,25.1,-8.7,63.6,25,421.412,823.712,290.237,1.50533,-12.1948,55.5845,
2026_06_10_19_00_07.658,3.864,29.7,0,0.758,0,0,0,0.004, ,0,0,0,0,0, ,775.6,666,215,21.7,-24.2,77.2,25,441.649,813.715,285.991,2.83954,-12.4541,56.4873,
2026_06_10_19_00_07.677,3.864,29.7,0,0.758,0,0,0,0.005, ,0,0,0,0,0, ,705.4,633.5,232.6,33.4,-27,76.8,25,459.86,803.723,282.201,4.34533,-13.2552,57.7373,
2026_06_10_19_00_07.697,3.864,29.9,0,0.761,0,0,0,0.005, ,0,0,0,0,0, ,678.9,621.8,240.4,42.1,-17.6,64.1,25,474.015,792.994,279.416,6.38093,-13.8064,58.512,
2026_06_10_19_00_07.717,3.864,29.8,0,0.759,0,0,0,0.004, ,0,0,0,0,0, ,723,584.2,272.8,27.6,-9.1,57.4,25,487.844,781.416,278.026,8.11576,-13.7785,58.6483,
2026_06_10_19_00_07.737,3.864,29.7,0,0.758,0,0,0,0.005, ,0,0,0,0,0, ,825.1,573.8,235.9,3,-11.6,68.1,25,505.285,769.081,276.583,8.55355,-13.5696,58.8983,
2026_06_10_19_00_07.757,3.864,29.7,0,0.759,0,0,0,0.005, ,0,0,0,0,0, ,881.8,576.5,161.8,-15,-25.3,88.5,25,526.501,757.264,271.846,7.66669,-13.867,60.0806,
2026_06_10_19_00_07.781,3.864,29.8,0,0.759,0,0,0,0.005, ,0,0,0,0,0, ,799.8,577.8,162.8,-12.3,-30.8,97.8,25,545.653,746.288,265.171,6.36771,-14.7313,62.0957,
2026_06_10_19_00_07.797,3.864,29.8,0,0.759,0,0,0,0.005, ,0,0,0,0,0, ,683.1,509.6,208.1,13.8,-14.5,69.6,25,557.585,733.943,260.313,6.02538,-15.2138,63.4122,
2026_06_10_19_00_07.817,3.864,30,0,0.759,0,0,0,0.005, ,0,0,0,0,0, ,749.1,496.5,217.4,21.6,-6.2,37.3,25,567.244,719.873,257.414,6.7368,-14.9175,62.8052,
2026_06_10_19_00_07.836,3.864,29.7,0,0.759,0,0,0,0.003, ,0,0,0,0,0, ,912.9,471,154.5,10.9,-13.2,34,25,583.317,705.484,253.059,7.31651,-14.5995,61.1504,
2026_06_10_19_00_07.856,3.864,29.8,0,0.759,0,0,0,0.005, ,0,0,0,0,0, ,938.5,462.6,132.4,6.5,-14.7,40.9,25,604.181,690.939,246.38,7.40082,-14.5599,59.7062,
2026_06_10_19_00_07.876,3.864,29.7,0,0.76,0,0,0,0.005, ,0,0,0,0,0, ,864,445.3,146.4,3.8,-19.1,51.8,25,622.284,676.498,239.861,7.26366,-14.7025,58.8923,
2026_06_10_19_00_07.895,3.864,29.8,0,0.759,0,0,0,0.006, ,0,0,0,0,0, ,806,457.8,166.3,-10.2,-26.7,51.6,25,635.246,662.79,234.772,6.62603,-15.2021,58.454,
2026_06_10_19_00_07.915,3.864,29.8,0,0.759,0,0,0,0.005, ,0,0,0,0,0, ,822.5,430.1,160.1,-19.2,-22.2,41.4,25,646.154,649.454,230.411,5.32648,-15.7656,57.7255,
2026_06_10_19_00_07.935,3.864,29.8,0,0.759,0,0,0,0.005, ,0,0,0,0,0, ,869.5,397.3,148.8,-18.1,-6.4,29.7,25,658.332,635.088,225.782,3.86541,-15.6763,56.3742,
2026_06_10_19_00_07.955,3.864,29.8,0,0.758,0,0,0,0.005, ,0,0,0,0,0, ,903.4,371.2,143.4,-12.5,-1.1,24.6,25,672.233,619.803,220.926,2.69752,-14.9495,54.5934,
2026_06_10_19_00_07.975,3.864,29.8,0,0.76,0,0,0,0.005, ,0,0,0,0,0, ,905.5,378.2,136.9,-14.5,-7.2,28.4,25,686.384,604.867,216.004,1.71048,-14.2914,52.8814,
2026_06_10_19_00_07.994,3.864,29.8,0,0.759,0,0,0,0.005, ,0,0,0,0,0, ,887.3,359.9,151.8,-25.5,-13.3,35.5,25,699.182,590.497,211.637,0.387498,-14.0452,51.6059,
2026_06_10_19_00_08.014,3.864,29.8,0,0.759,0,0,0,0.005, ,0,0,0,0,0, ,851.1,363,157.9,-34.5,-16.6,32.7,25,709.542,576.539,208.177,-1.46424,-14.1003,50.5392,
2026_06_10_19_00_08.035,3.864,29.7,0,0.758,0,0,0,0.005, ,0,0,0,0,0, ,868.2,369.1,146.6,-30,-15.9,27.4,25,718.689,563.712,204.769,-3.34025,-14.2313,49.2906,
2026_06_10_19_00_08.059,3.864,29.8,0,0.758,0,0,0,0.006, ,0,0,0,0,0, ,945,336.5,143.5,-22.9,-16.1,27.2,25,730.14,550.86,201.13,-4.7485,-14.3391,47.9505,
2026_06_10_19_00_08.074,3.864,29.8,0,0.759,0,0,0,0.005, ,0,0,0,0,0, ,991.6,309.4,143,-4.2,-21.5,32.7,25,744.653,536.972,197.603,-5.28484,-14.6109,46.8536,
2026_06_10_19_00_08.093,3.864,29.8,0,0.759,0,0,0,0.005, ,0,0,0,0,0, ,972.7,312.2,117.3,13,-22,35.1,25,759.125,523.189,193.492,-4.69467,-15.046,46.0643,
2026_06_10_19_00_08.109,3.864,29.8,0,0.758,0,0,0,0.005, ,0,0,0,0,0, ,924.4,344.1,120.2,35.4,-12,28.8,25,770.669,511.304,188.938,-2.9339,-15.165,45.2042,
2026_06_10_19_00_08.133,3.864,29.8,0,0.759,0,0,0,0.005, ,0,0,0,0,0, ,974.6,325.9,127.3,37.8,-8.4,26.3,25,781.566,500.561,184.965,-0.524803,-14.8625,44.1284,
2026_06_10_19_00_08.153,3.864,29.8,0,0.758,0,0,0,0.005, ,0,0,0,0,0, ,1049,311.5,63.5,36.3,-14.9,38.1,25,795.596,489.478,179.507,1.76491,-14.6667,43.4015,
2026_06_10_19_00_08.173,3.864,29.7,0,0.758,0,0,0,0.005, ,0,0,0,0,0, ,993,310.7,13.9,34.9,-12.9,53,25,809.332,478.609,170.927,3.82674,-14.62,43.5324,
2026_06_10_19_00_08.192,3.864,29.7,0,0.76,0,0,0,0.006, ,0,0,0,0,0, ,910.2,288.3,62.6,36.9,-7.6,54.6,25,818.001,467.694,162.842,5.7812,-14.3537,44.1581,
2026_06_10_19_00_08.212,3.864,29.8,0,0.76,0,0,0,0.006, ,0,0,0,0,0, ,892.9,287.5,78.3,35.2,-2.5,43.4,25,823.092,456.738,157.212,7.62571,-13.7868,44.4532,
2026_06_10_19_00_08.232,3.864,29.8,0,0.757,0,0,0,0.005, ,0,0,0,0,0, ,941.5,253.6,51.5,22,1.5,38.4,25,828.827,445.392,151.587,8.90383,-12.9771,44.2366,
2026_06_10_19_00_08.252,3.864,29.8,0,0.76,0,0,0,0.005, ,0,0,0,0,0, ,964.3,222.2,44.1,12.5,0.4,45.2,25,836.388,432.748,145.262,9.41242,-12.1284,44.0882,
2026_06_10_19_00_08.272,3.864,29.9,0,0.758,0,0,0,0.005, ,0,0,0,0,0, ,924.8,207.7,46.2,11.4,0.3,46.8,25,842.979,419.476,139.162,9.56706,-11.368,44.2047,
2026_06_10_19_00_08.292,3.864,29.8,0,0.759,0,0,0,0.004, ,0,0,0,0,0, ,893.7,205.9,87.1,13.1,-1.7,40.3,25,847.017,406.516,134.743,9.73055,-10.7179,44.1648,
2026_06_10_19_00_08.312,3.864,29.9,0,0.759,0,0,0,0.005, ,0,0,0,0,0, ,914.5,186.6,89.4,11.4,-1.6,29.6,25,850.496,393.703,131.91,9.88408,-10.1653,43.6032,
2026_06_10_19_00_08.331,3.864,29.8,0,0.758,0,0,0,0.004, ,0,0,0,0,0, ,964.4,164.6,88.6,15.1,1.1,21.9,25,855.916,380.412,129.295,10.0892,-9.56113,42.5153,
2026_06_10_19_00_08.351,3.864,29.8,0,0.758,0,0,0,0.005, ,0,0,0,0,0, ,973.8,149.5,93.1,15.9,1.7,20.1,25,862.813,366.801,126.952,10.4189,-8.89319,41.2042,
2026_06_10_19_00_08.371,3.864,30,0,0.759,0,0,0,0.005, ,0,0,0,0,0, ,954.2,160.6,97.9,14.2,5,18,25,868.98,353.898,125.036,10.7011,-8.14712,39.8542,
2026_06_10_19_00_08.391,3.864,29.8,0,0.756,0,0,0,0.004, ,0,0,0,0,0, ,948.8,145.6,96,18.7,7.9,13.6,25,874.008,341.661,123.324,11.0514,-7.25761,38.3884,
2026_06_10_19_00_08.411,3.864,29.8,0,0.756,0,0,0,0.005, ,0,0,0,0,0, ,977,130.3,109.1,23.9,5.6,10.5,25,879.425,329.248,122.058,11.676,-6.40402,36.7834,
2026_06_10_19_00_08.431,3.864,29.8,0,0.758,0,0,0,0.005, ,0,0,0,0,0, ,999.1,121.5,109,18.7,6.3,12.3,25,886.044,316.856,121.265,12.2624,-5.6512,35.2366,
2026_06_10_19_00_08.451,3.864,29.9,0,0.76,0,0,0,0.005, ,0,0,0,0,0, ,1000.7,121.9,87.8,14,4.9,17.1,25,892.982,304.964,119.872,12.5115,-4.96558,33.9851,
2026_06_10_19_00_08.470,3.864,29.9,0,0.76,0,0,0,0.004, ,0,0,0,0,0, ,992.5,121.3,85.6,7.3,-0.2,18.6,25,899.297,293.79,117.851,12.3981,-4.51978,33.0019,
2026_06_10_19_00_08.490,3.864,29.9,0,0.76,0,0,0,0.004, ,0,0,0,0,0, ,1010.8,106,84.1,9.7,0.8,22.6,25,905.534,282.813,115.84,12.1605,-4.22608,32.2462,
2026_06_10_19_00_08.510,3.864,29.8,0,0.758,0,0,0,0.005, ,0,0,0,0,0, ,992.4,91.4,110.3,11.2,6.3,29.3,25,911.388,271.594,114.704,12.0563,-3.75222,31.8625,
2026_06_10_19_00_08.529,3.864,29.8,0,0.76,0,0,0,0.005, ,0,0,0,0,0, ,962.1,90.3,121.5,12.3,7.8,31.5,25,915.401,260.579,114.777,12.0376,-3.09396,31.7734,
2026_06_10_19_00_08.549,3.864,29.8,0,0.758,0,0,0,0.005, ,0,0,0,0,0, ,948.6,68.7,120.7,20.7,3.9,28.4,25,917.836,249.545,115.162,12.3096,-2.54894,31.6623,
2026_06_10_19_00_08.569,3.864,29.8,0,0.759,0,0,0,0.005, ,0,0,0,0,0, ,944.9,80.5,109.1,22.1,2,26.6,25,919.598,238.884,115.146,12.8635,-2.21385,31.4086,
2026_06_10_19_00_08.589,3.864,29.9,0,0.758,0,0,0,0.005, ,0,0,0,0,0, ,916,78.9,98.2,17.1,1.1,21,25,920.259,229.184,114.446,13.274,-1.98449,30.945,
2026_06_10_19_00_08.609,3.864,29.9,0,0.758,0,0,0,0.005, ,0,0,0,0,0, ,922.9,87.2,98.9,8.3,-1.4,17.7,25,920.21,220.279,113.477,13.239,-1.8727,30.2384,
2026_06_10_19_00_08.628,3.864,29.9,0,0.76,0,0,0,0.005, ,0,0,0,0,0, ,962.2,58.3,82.7,11.5,-11.4,15.7,25,921.571,211.289,112.095,13.0356,-2.14858,29.4134,
2026_06_10_19_00_08.648,3.864,29.9,0,0.756,0,0,0,0.005, ,0,0,0,0,0, ,964.1,52.9,100,18.1,-16.9,12.5,25,924.105,201.802,110.831,13.1431,-2.87992,28.4803,
2026_06_10_19_00_08.668,3.864,29.9,0,0.758,0,0,0,0.005, ,0,0,0,0,0, ,969.6,46.6,93.6,23.2,-14.9,7.1,25,926.71,192.536,109.976,13.6005,-3.67333,27.3419,
2026_06_10_19_00_08.688,3.864,29.9,0,0.759,0,0,0,0.005, ,0,0,0,0,0, ,993.7,46.9,86,27.9,-14.8,4.3,25,930.057,183.652,108.746,14.3287,-4.35441,26.0231,
2026_06_10_19_00_08.707,3.864,29.8,0,0.758,0,0,0,0.005, ,0,0,0,0,0, ,1059.6,41.8,34.5,16.2,-10.6,7.8,25,935.944,175.163,105.791,14.7992,-4.86297,24.806,
2026_06_10_19_00_08.727,3.864,29.8,0,0.76,0,0,0,0.005, ,0,0,0,0,0, ,1049.5,38.3,47.7,4,3.5,14.7,25,943.171,166.93,101.849,14.5129,-4.78296,23.9799,
2026_06_10_19_00_08.747,3.864,29.8,0,0.758,0,0,0,0.006, ,0,0,0,0,0, ,1007.4,38.2,67.6,2.7,8.8,9.7,25,948.368,159.088,99.1557,13.8326,-4.11673,23.2621,
2026_06_10_19_00_08.767,3.864,29.8,0,0.76,0,0,0,0.006, ,0,0,0,0,0, ,999.1,31.7,68.7,5.1,3.9,3.8,25,951.712,151.524,97.2663,13.2274,-3.47891,22.2559,
2026_06_10_19_00_08.787,3.864,29.9,0,0.76,0,0,0,0.006, ,0,0,0,0,0, ,993.6,25,82.6,1.7,-0.7,4,25,954.432,144.018,95.949,12.6285,-3.16942,21.1373,
2026_06_10_19_00_08.807,3.864,29.9,0,0.758,0,0,0,0.005, ,0,0,0,0,0, ,983.3,36.9,81,2.1,0.2,5.8,25,956.505,137.128,95.0868,11.9747,-2.99152,20.1479,
2026_06_10_19_00_08.827,3.864,29.8,0,0.76,0,0,0,0.005, ,0,0,0,0,0, ,989.1,37.5,73.3,6.3,1.5,6,25,958.315,131.038,93.9938,11.501,-2.75742,19.2796,
2026_06_10_19_00_08.847,3.864,29.9,0,0.759,0,0,0,0.006, ,0,0,0,0,0, ,993.4,27.3,88.5,4.2,-2.1,4.3,25,960.322,125.028,93.1959,11.12,-2.60767,18.4186,
2026_06_10_19_00_08.865,3.864,29.9,0,0.759,0,0,0,0.005, ,0,0,0,0,0, ,990.7,27.4,86.1,-0.2,-2,1,25,962.255,119.075,92.8366,10.5643,-2.57369,17.4577,
2026_06_10_19_00_08.890,3.864,29.9,0,0.759,0,0,0,0.005, ,0,0,0,0,0, ,988.4,29.4,66.8,0.2,4.4,4,25,963.918,113.55,91.838,9.92053,-2.34373,16.5462,
2026_06_10_19_00_08.906,3.864,29.9,0,0.759,0,0,0,0.005, ,0,0,0,0,0, ,956.6,22.2,77.1,-0.3,6.1,3,25,964.441,108.203,90.6261,9.31295,-1.88099,15.7512,
2026_06_10_19_00_08.926,3.864,29.9,0,0.758,0,0,0,0.005, ,0,0,0,0,0, ,937,22.9,77.2,-0.1,1,-0.4,25,963.366,102.983,89.8049,8.73326,-1.55004,14.8706,
2026_06_10_19_00_08.945,3.864,29.9,0,0.759,0,0,0,0.005, ,0,0,0,0,0, ,947.6,32.2,84.7,-5,-1.4,-7.6,25,962.083,98.3865,89.2653,8.04568,-1.46777,13.7207,
2026_06_10_19_00_08.966,3.864,29.9,0,0.758,0,0,0,0.005, ,0,0,0,0,0, ,993,18.4,89.4,-6.9,3,-6.9,25,962.583,93.9328,89.1303,7.19282,-1.32958,12.4428,
2026_06_10_19_00_08.986,3.864,29.9,0,0.759,0,0,0,0.005, ,0,0,0,0,0, ,1033.2,14.7,79.3,-5.3,7.2,-3.8,25,965.662,89.2173,88.839,6.38279,-0.937776,11.3585,
2026_06_10_19_00_09.005,3.864,29.9,0,0.76,0,0,0,0.005, ,0,0,0,0,0, ,1025.8,23,68.8,-4.4,3.4,0,25,969.552,84.9293,87.9378,5.69829,-0.557661,10.5506,
2026_06_10_19_00_09.024,3.864,29.9,0,0.76,0,0,0,0.005, ,0,0,0,0,0, ,1007.8,38.2,67.5,-3.7,-1.8,-2.4,25,972.431,81.6186,86.732,5.10425,-0.474929,9.83453,
2026_06_10_19_00_09.045,3.864,29.9,0,0.76,0,0,0,0.005, ,0,0,0,0,0, ,999.6,29.4,88,-2.8,-2.8,-2.2,25,974.337,78.7046,86.1847,4.59517,-0.586144,9.09509,
2026_06_10_19_00_09.065,3.864,29.9,0,0.759,0,0,0,0.005, ,0,0,0,0,0, ,984.1,31.6,94.9,-3.1,-0.8,-4.8,25,975.404,75.7672,86.5055,4.13538,-0.660113,8.32757,
2026_06_10_19_00_09.084,3.864,29.8,0,0.76,0,0,0,0.005, ,0,0,0,0,0, ,976.4,38.8,93.6,-4.6,2.7,-4.5,25,975.699,73.2951,86.9774,3.64877,-0.561997,7.53675,
2026_06_10_19_00_09.104,3.864,29.9,0,0.76,0,0,0,0.006, ,0,0,0,0,0, ,1004.7,34.3,55.2,-4.7,4.3,-3.2,25,976.604,71.0559,86.211,3.14307,-0.314469,6.84287,
2026_06_10_19_00_09.124,3.864,29.9,0,0.76,0,0,0,0.005, ,0,0,0,0,0, ,1025.8,22.2,51.7,-1.1,0,-2.2,25,978.959,68.4475,84.2146,2.77482,-0.164291,6.26135,
2026_06_10_19_00_09.144,3.864,29.9,0,0.759,0,0,0,0.005, ,0,0,0,0,0, ,992.7,27.8,76,0.4,-4.4,-2.6,25,980.805,65.7999,82.9737,2.5844,-0.288342,5.73355,
2026_06_10_19_00_09.163,3.864,29.9,0,0.759,0,0,0,0.005, ,0,0,0,0,0, ,965.8,39.5,85.4,2.1,-1.9,-4.2,25,980.71,63.8407,82.8351,2.50308,-0.462724,5.17698,
2026_06_10_19_00_09.183,3.864,29.9,0,0.759,0,0,0,0.005, ,0,0,0,0,0, ,980.1,36.9,80.3,2.5,1.7,-4.2,25,980.237,62.2783,82.836,2.49071,-0.44062,4.60557,
2026_06_10_19_00_09.203,3.864,29.9,0,0.759,0,0,0,0.005, ,0,0,0,0,0, ,1009.1,43.8,52.4,3.9,-0.1,-4.5,25,981.112,60.942,81.8314,2.53393,-0.36502,4.05984,
2026_06_10_19_00_09.222,3.864,29.9,0,0.759,0,0,0,0.005, ,0,0,0,0,0, ,1037.2,34.5,35.7,1.6,-4.2,-3.7,25,983.674,59.6141,79.5291,2.5471,-0.473792,3.5626,
2026_06_10_19_00_09.242,3.864,29.9,0,0.758,0,0,0,0.005, ,0,0,0,0,0, ,992.1,35.4,84.5,0.5,-4.5,-0.5,25,985.562,58.1111,78.3451,2.45587,-0.709999,3.21753,
2026_06_10_19_00_09.262,3.864,30,0,0.758,0,0,0,0.005, ,0,0,0,0,0, ,964.8,37.7,102.1,0.4,-0.6,-3.4,25,985.128,56.7972,79.2565,2.33364,-0.822124,2.90264,
2026_06_10_19_00_09.282,3.864,29.9,0,0.758,0,0,0,0.004, ,0,0,0,0,0, ,978.8,43.3,86.6,3.4,4.1,-5.3,25,984.316,55.8041,80.1762,2.30721,-0.665385,2.46068,
2026_06_10_19_00_09.302,3.864,29.9,0,0.758,0,0,0,0.005, ,0,0,0,0,0, ,987.5,43.3,78.6,4.9,4.1,-1.2,25,984.245,55.0421,80.3239,2.41951,-0.374994,2.11268,
2026_06_10_19_00_09.322,3.864,29.9,0,0.76,0,0,0,0.005, ,0,0,0,0,0, ,994.7,30.8,69.8,4.2,-0.7,1.8,25,984.663,53.9457,79.9507,2.54933,-0.248549,2.00222,
2026_06_10_19_00_09.341,3.864,29.9,0,0.758,0,0,0,0.005, ,0,0,0,0,0, ,978,34.4,88.1,4.3,-4.7,-2,25,984.766,52.645,79.8898,2.65297,-0.397935,1.87412,
2026_06_10_19_00_09.361,3.864,29.9,0,0.76,0,0,0,0.005, ,0,0,0,0,0, ,995.3,32.7,94.9,3.8,-3.2,-6.5,25,984.88,51.4814,80.5973,2.7381,-0.614389,1.50093,
2026_06_10_19_00_09.381,3.864,29.9,0,0.759,0,0,0,0.005, ,0,0,0,0,0, ,995.4,36.8,83.2,3.2,1.7,-4.5,25,985.518,50.4618,81.1123,2.78453,-0.622652,1.07431,
2026_06_10_19_00_09.401,3.864,29.9,0,0.758,0,0,0,0.005, ,0,0,0,0,0, ,964.8,45,89.7,3.2,3.7,0.6,25,985.188,49.8791,81.4376,2.80985,-0.420178,0.890018,
2026_06_10_19_00_09.421,3.864,29.9,0,0.759,0,0,0,0.005, ,0,0,0,0,0, ,965.8,38.5,98.7,3,-0.2,-2.5,25,983.976,49.3838,82.2153,2.82753,-0.287933,0.777892,
2026_06_10_19_00_09.440,3.864,30,0,0.758,0,0,0,0.005, ,0,0,0,0,0, ,989.2,27.8,95.3,2.5,-5.8,-5.8,25,983.582,48.3945,83.1163,2.8228,-0.4532,0.477599,
2026_06_10_19_00_09.460,3.864,29.9,0,0.758,0,0,0,0.004, ,0,0,0,0,0, ,992.5,35.5,92.5,-1.4,-3.3,-2.9,25,984.025,47.3742,83.7734,2.6843,-0.702848,0.183417,
2026_06_10_19_00_09.481,3.864,29.9,0,0.759,0,0,0,0.005, ,0,0,0,0,0, ,994.6,39.5,90,-4.7,7.7,-2.8,25,984.605,46.7725,84.229,2.33487,-0.525956,-0.00143204,
2026_06_10_19_00_09.498,3.864,30,0,0.759,0,0,0,0.005, ,0,0,0,0,0, ,1001.2,36.4,87.1,-5.5,11.3,-3.3,25,985.415,46.2348,84.4923,1.88181,0.0850005,-0.187204,
2026_06_10_19_00_09.520,3.864,30,0,0.759,0,0,0,0.004, ,0,0,0,0,0, ,1015.6,35.8,71.1,-4.2,4.1,-4,25,986.816,45.6172,84.1637,1.47159,0.54904,-0.398218,
2026_06_10_19_00_09.540,3.864,30,0,0.759,0,0,0,0.004, ,0,0,0,0,0, ,1010.3,40.4,88.2,-3.6,-1.8,-0.1,25,988.408,45.1592,83.8887,1.14426,0.585661,-0.498874,
2026_06_10_19_00_09.560,3.864,29.9,0,0.76,0,0,0,0.004, ,0,0,0,0,0, ,1002.5,41,108,-4.7,1.4,1.7,25,989.505,44.8874,84.7547,0.821638,0.537784,-0.419724,
2026_06_10_19_00_09.579,3.864,29.9,0,0.76,0,0,0,0.005, ,0,0,0,0,0, ,1002,40.7,99.3,-3.5,7.1,2.1,25,990.281,44.6414,85.9061,0.521726,0.763997,-0.278365,
2026_06_10_19_00_09.599,3.864,29.9,0,0.758,0,0,0,0.005, ,0,0,0,0,0, ,993.8,39.7,68.8,-2.5,5,3.7,25,990.746,44.3708,85.793,0.307121,1.08611,-0.0846838,
2026_06_10_19_00_09.619,3.864,30,0,0.76,0,0,0,0.005, ,0,0,0,0,0, ,976.3,39.7,70.3,-1.6,-0.2,3.4,25,990.399,44.0861,84.8032,0.163484,1.16618,0.136805,
2026_06_10_19_00_09.639,3.864,29.9,0,0.759,0,0,0,0.004, ,0,0,0,0,0, ,997.6,31.8,94.8,0.3,-3.6,1.8,25,990.188,43.5781,84.6659,0.113912,0.979333,0.286906,
2026_06_10_19_00_09.658,3.864,29.9,0,0.76,0,0,0,0.005, ,0,0,0,0,0, ,1001.2,14.6,101,-1,-2.9,6.9,25,990.75,42.3364,85.4723,0.0856423,0.721608,0.5345,
2026_06_10_19_00_09.678,3.864,30,0,0.759,0,0,0,0.005, ,0,0,0,0,0, ,974.3,36.4,114.9,-7.4,8.8,9.4,25,990.567,41.3104,86.8421,-0.175514,0.857401,0.99857,
2026_06_10_19_00_09.698,3.864,30,0,0.759,0,0,0,0.004, ,0,0,0,0,0, ,960.2,20.1,146.4,-13.6,19.5,4.1,25,989.146,40.5145,89.5116,-0.804662,1.66742,1.34905,
2026_06_10_19_00_09.718,3.864,30,0,0.759,0,0,0,0.004, ,0,0,0,0,0, ,954.1,22.3,147.8,-19,12.6,-1.2,25,987.196,39.3375,93.0209,-1.74891,2.54386,1.3552,
2026_06_10_19_00_09.738,3.864,30,0,0.759,0,0,0,0.004, ,0,0,0,0,0, ,982.5,31,89.7,-17,2.3,-6.7,25,986.045,38.5644,94.5888,-2.73921,2.84282,1.03191,
2026_06_10_19_00_09.758,3.864,30,0,0.759,0,0,0,0.004, ,0,0,0,0,0, ,1021.3,31.4,32.7,-11.6,2.7,-4.2,25,987.011,38.1156,92.5541,-3.4437,2.82193,0.636922,
2026_06_10_19_00_09.777,3.864,29.9,0,0.759,0,0,0,0.004, ,0,0,0,0,0, ,1012.3,21.9,71,-12.1,7.1,2.8,25,988.826,37.4169,90.0737,-3.95595,2.94857,0.555454,
2026_06_10_19_00_09.797,3.864,30,0,0.758,0,0,0,0.005, ,0,0,0,0,0, ,971.3,29.5,126.3,-14.3,-5.7,3.6,25,989.007,36.7029,90.5964,-4.51926,2.81154,0.716606,
2026_06_10_19_00_09.817,3.864,30,0,0.758,0,0,0,0.004, ,0,0,0,0,0, ,970.9,29.6,133.4,-14.6,-15.2,-2.3,25,987.916,36.2671,92.9884,-5.12442,2.00342,0.712547,
2026_06_10_19_00_09.837,3.864,29.9,0,0.759,0,0,0,0.004, ,0,0,0,0,0, ,966.1,129.7,28.3,3,-7.7,-7,25,986.733,38.9107,92.2487,-5.16559,1.1836,0.385767,
2026_06_10_19_00_09.857,3.864,29.9,0,0.759,0,0,0,0.005, ,0,0,0,0,0, ,994.3,-77.6,139.7,27.4,20.1,-22.5,25,986.335,38.127,91.746,-3.92456,1.48929,-0.536569,
2026_06_10_19_00_09.877,3.864,29.9,0,0.759,0,0,0,0.005, ,0,0,0,0,0, ,1010.7,20.7,178.4,-12.5,18.5,-12.4,25,987.32,34.07,95.8474,-3.23142,2.57463,-1.56723,
2026_06_10_19_00_09.896,3.864,29.9,0,0.761,0,0,0,0.005, ,0,0,0,0,0, ,990.7,16.1,177.9,-32.1,-7.8,-5.6,25,988.135,33.1151,100.863,-4.39341,2.74375,-2.02017,
2026_06_10_19_00_09.916,3.864,30,0,0.759,0,0,0,0.005, ,0,0,0,0,0, ,984.9,40.5,167.3,-25.6,-41.5,-6.2,25,988.115,32.8217,105.234,-5.88374,1.07445,-2.25659,
2026_06_10_19_00_09.936,3.864,30,0,0.759,0,0,0,0.004, ,0,0,0,0,0, ,1029.4,54.8,112.6,-50.7,-43.8,0,25,989.275,33.7253,107.35,-7.84996,-1.59001,-2.30799,
2026_06_10_19_00_09.956,3.864,30,0,0.758,0,0,0,0.004, ,0,0,0,0,0, ,1041.7,35.7,93,-47.7,-11.5,9.2,25,992.095,34.4276,107.072,-10.3697,-3.17804,-1.88703,
2026_06_10_19_00_09.976,3.864,30,0,0.76,0,0,0,0.004, ,0,0,0,0,0, ,991.6,51.3,126.3,-40.8,-3,5.3,25,993.591,34.9804,107.229,-12.4343,-3.42618,-1.33024,
2026_06_10_19_00_09.995,3.864,30,0,0.759,0,0,0,0.004, ,0,0,0,0,0, ,1016.8,48,100.8,-47.8,-13.9,4.4,25,994.238,35.8743,107.615,-14.3761,-3.73232,-0.953636,
2026_06_10_19_00_10.016,3.864,30,0,0.759,0,0,0,0.004, ,0,0,0,0,0, ,1055.6,28.1,63.5,-65.9,-29.8,9.2,25,996.795,36.0069,106.063,-16.9644,-4.83636,-0.481149,
2026_06_10_19_00_10.035,3.864,30,0,0.76,0,0,0,0.004, ,0,0,0,0,0, ,1068.7,11.4,36,-67.4,-28.1,26.2,25,1000.78,35.0163,102.631,-19.9921,-6.30579,0.626765,
2026_06_10_19_00_10.055,3.864,30,0,0.758,0,0,0,0.004, ,0,0,0,0,0, ,1046.2,24,50.6,-66.5,-16.3,31.2,25,1004.23,33.961,99.0158,-22.8536,-7.27434,2.33748,
2026_06_10_19_00_10.075,3.864,30,0,0.759,0,0,0,0.004, ,0,0,0,0,0, ,982,3.7,91,-85.2,5.7,35,25,1004.83,32.7355,97.2964,-26.0831,-7.15403,4.21207,
2026_06_10_19_00_10.095,3.864,30,0,0.76,0,0,0,0.004, ,0,0,0,0,0, ,953.7,-8.3,114.6,-97.9,20.5,19.4,25,1002.58,30.6006,97.6318,-30.0724,-5.9198,5.6129,
2026_06_10_19_00_10.115,3.864,30,0,0.76,0,0,0,0.004, ,0,0,0,0,0, ,917.1,35.5,122.4,-101.3,37.1,-7.4,25,998.485,29.5646,98.9035,-34.3093,-3.80406,5.63648,
2026_06_10_19_00_10.135,3.864,30,0,0.759,0,0,0,0.004, ,0,0,0,0,0, ,901,67.9,158.9,-109.1,36.9,-9.7,25,993.035,30.9135,101.447,-38.6292,-1.31756,4.772,
2026_06_10_19_00_10.155,3.864,29.9,0,0.761,0,0,0,0.004, ,0,0,0,0,0, ,885.7,66.1,160.6,-115.4,19.7,-5.8,25,986.96,33.1125,105,-43.1155,0.487255,4.00894,
2026_06_10_19_00_10.174,3.864,30.1,0,0.76,0,0,0,0.005, ,0,0,0,0,0, ,912.3,50.9,47.2,-126.8,28.7,6.8,25,981.6,34.6595,104.933,-47.8676,1.93225,3.79511,
2026_06_10_19_00_10.194,3.864,30,0,0.76,0,0,0,0.004, ,0,0,0,0,0, ,1178.5,-146.4,-61.6,-104,29,45,25,985.488,29.6377,98.1,-51.9829,3.57255,5.14213,
2026_06_10_19_00_10.213,3.864,30,0,0.759,0,0,0,0.004, ,0,0,0,0,0, ,1149.4,-161,40.5,-83.9,-13.1,37.7,25,996.363,18.4656,91.4792,-54.5403,3.8393,7.34854,
2026_06_10_19_00_10.234,3.864,29.9,0,0.759,0,0,0,0.004, ,0,0,0,0,0, ,1017.5,-102.7,173.8,-85.5,-28.6,21.2,25,1001.67,9.30571,92.4341,-56.3781,2.3348,8.69535,
2026_06_10_19_00_10.253,3.864,30.1,0,0.759,0,0,0,0.005, ,0,0,0,0,0, ,1008.7,-141.7,185.7,-80.2,-12.3,11.5,25,1002.37,1.29208,97.7549,-57.9913,0.946349,9.16181,
2026_06_10_19_00_10.273,3.864,30.1,0,0.758,0,0,0,0.004, ,0,0,0,0,0, ,1018.7,-86,121.8,-69.3,-2.1,-8.7,25,1003.06,-5.72439,101.167,-59.0125,0.449931,8.68882,
2026_06_10_19_00_10.293,3.864,30,0,0.759,0,0,0,0.004, ,0,0,0,0,0, ,1010.9,-107.6,65.6,-74.3,0.3,-10.3,25,1003.77,-11.2743,100.712,-59.7917,0.367669,7.58044,
2026_06_10_19_00_10.312,3.864,30,0,0.759,0,0,0,0.004, ,0,0,0,0,0, ,972,-105.5,84.5,-73.1,-10.1,-2.3,25,1003.02,-17.0802,99.1483,-60.6393,0.0466709,6.7346,
2026_06_10_19_00_10.332,3.864,29.9,0,0.758,0,0,0,0.004, ,0,0,0,0,0, ,849.3,-107.5,186.7,-73.9,-24.3,2.7,25,997.393,-22.5292,101.37,-61.423,-1.0043,6.3364,
2026_06_10_19_00_10.352,3.864,29.9,0,0.759,0,0,0,0.005, ,0,0,0,0,0, ,777.4,27.5,249,-99.4,-38.3,16.1,25,986.178,-23.5938,108.468,-62.9602,-2.85044,6.52309,
2026_06_10_19_00_10.372,3.864,30,0,0.76,0,0,0,0.005, ,0,0,0,0,0, ,1036.8,-2.5,20.2,-127,6.7,49.6,25,981.359,-21.3944,110.06,-66.0217,-3.63956,8.12738,
2026_06_10_19_00_10.392,3.864,30,0,0.759,0,0,0,0.004, ,0,0,0,0,0, ,1067.3,-184.8,-116.5,-92.3,23.2,19.4,25,985.667,-25.7974,100.419,-68.6803,-2.50675,9.73446,
2026_06_10_19_00_10.412,3.864,30,0,0.76,0,0,0,0.004, ,0,0,0,0,0, ,1011.3,-135.7,-47.8,-87.1,-1.7,12.2,25,988.935,-33.9906,89.2938,-69.9612,-1.69892,10.1041,
2026_06_10_19_00_10.431,3.864,30.1,0,0.759,0,0,0,0.004, ,0,0,0,0,0, ,1016.1,-81.4,56.6,-119.4,-12.2,15.6,25,990.444,-38.5341,84.1206,-71.9897,-2.01891,10.3354,
2026_06_10_19_00_10.451,3.864,30,0,0.76,0,0,0,0.004, ,0,0,0,0,0, ,1017.3,-61.5,164.1,-177.7,12.2,14.9,25,992.044,-40.5399,85.719,-76.6551,-1.89588,10.6349,
2026_06_10_19_00_10.471,3.864,29.9,0,0.759,0,0,0,0.004, ,0,0,0,0,0, ,918.8,-268.1,125.2,-203,37.1,8.8,25,990.582,-48.112,89.3101,-83.5834,-0.278242,10.7089,
2026_06_10_19_00_10.491,3.864,30,0,0.758,0,0,0,0.005, ,0,0,0,0,0, ,983,-137.9,101.5,-185.5,25.1,11,25,988.164,-57.5505,90.775,-90.3272,1.63387,10.6596,
2026_06_10_19_00_10.511,3.864,30.1,0,0.759,0,0,0,0.004, ,0,0,0,0,0, ,947.9,-169.7,46.9,-156.3,22.1,3.5,25,986.78,-63.4157,89.765,-95.2371,2.97243,10.4519,
2026_06_10_19_00_10.530,3.864,30.1,0,0.76,0,0,0,0.004, ,0,0,0,0,0, ,946.1,-184.3,68.1,-145.9,36.1,-4.8,25,984.356,-70.3372,87.7988,-98.6412,4.56458,9.77534,
2026_06_10_19_00_10.550,3.864,30.1,0,0.759,0,0,0,0.004, ,0,0,0,0,0, ,910.2,-170.7,51.7,-128.5,41.2,-8.8,25,980.931,-76.8675,86.0987,-100.991,6.64166,8.76528,
2026_06_10_19_00_10.570,3.864,30,0,0.759,0,0,0,0.004, ,0,0,0,0,0, ,888.1,-152.2,-15.9,-114.6,24.9,-9.2,25,975.947,-82.0217,81.9429,-102.244,8.25092,7.68271,
2026_06_10_19_00_10.590,3.864,30.1,0,0.76,0,0,0,0.004, ,0,0,0,0,0, ,894.1,-109.3,-25.1,-93.1,17.8,-19.4,25,970.777,-84.9911,75.7003,-102.342,9.04914,6.34314,
2026_06_10_19_00_10.609,3.864,30,0,0.76,0,0,0,0.004, ,0,0,0,0,0, ,914.9,-112.1,-13.4,-91,3.8,-33.6,25,966.738,-86.5577,69.9142,-101.714,9.15584,4.34176,
2026_06_10_19_00_10.629,3.864,30,0,0.759,0,0,0,0.004, ,0,0,0,0,0, ,961.7,-149.6,-40.5,-83.1,-5.1,-37.6,25,965.005,-89.2568,64.0116,-100.821,8.55829,1.90781,
2026_06_10_19_00_10.650,3.864,30,0,0.759,0,0,0,0.004, ,0,0,0,0,0, ,972.7,-231.4,2.4,-67.5,-1.5,-33.2,25,965.139,-95.4263,58.95,-99.2657,7.83568,-0.365637,
2026_06_10_19_00_10.669,3.864,30,0,0.759,0,0,0,0.004, ,0,0,0,0,0, ,928.2,-17.4,21.4,-60.5,-2.9,-24.5,25,964.244,-97.1919,56.0829,-97.1167,7.22413,-2.1014,
2026_06_10_19_00_10.689,3.864,30.1,0,0.76,0,0,0,0.004, ,0,0,0,0,0, ,959.1,-141.1,13.5,-69.7,-0.6,-32.8,25,962.989,-96.0986,53.7287,-95.1656,6.67727,-3.71921,
2026_06_10_19_00_10.711,3.864,30.1,0,0.76,0,0,0,0.004, ,0,0,0,0,0, ,980.9,-140.8,-6.3,-63.5,-0.3,-26.6,25,963.416,-98.8317,50.674,-93.4249,6.24295,-5.30241,
2026_06_10_19_00_10.729,3.864,30.1,0,0.759,0,0,0,0.004, ,0,0,0,0,0, ,999.2,-110.5,7.6,-56.5,1,-21.8,25,965.039,-100.466,47.6257,-91.3881,5.88385,-6.45398,
2026_06_10_19_00_10.748,3.864,29.9,0,0.76,0,0,0,0.004, ,0,0,0,0,0, ,1000.8,-73.6,-14.8,-52.9,-0.9,-18,25,967.169,-99.9531,44.5041,-89.1524,5.52835,-7.27335,
2026_06_10_19_00_10.768,3.864,30,0,0.758,0,0,0,0.005, ,0,0,0,0,0, ,985.7,-63.7,-7.2,-55.4,-3.6,-17.7,25,968.759,-98.0455,41.1218,-87.0195,5.05436,-7.91786,
2026_06_10_19_00_10.788,3.864,30,0,0.759,0,0,0,0.004, ,0,0,0,0,0, ,993.5,-49.3,45,-70,-9,-15.6,25,970.029,-95.5139,39.7677,-85.5375,4.36245,-8.44998,
2026_06_10_19_00_10.809,3.864,30.1,0,0.76,0,0,0,0.004, ,0,0,0,0,0, ,1086.5,-388.5,31.6,-66.3,-9.4,-16,25,974.293,-103.033,39.6782,-84.4779,3.53599,-8.89787,
2026_06_10_19_00_10.828,3.864,30.1,0,0.76,0,0,0,0.004, ,0,0,0,0,0, ,1026.1,15.8,14.6,-51.4,0.6,8.8,25,979.29,-108.11,38.668,-82.9162,3.05239,-8.57503,
2026_06_10_19_00_10.854,3.864,30.1,0,0.759,0,0,0,0.004, ,0,0,0,0,0, ,997.6,-71.5,-34.5,-67.7,-4.7,7.3,25,981.274,-103.219,35.7053,-81.4924,2.74146,-7.56194,
2026_06_10_19_00_10.867,3.864,30,0,0.758,0,0,0,0.004, ,0,0,0,0,0, ,998.6,-72.5,-130.8,-49.1,-10.5,6.8,25,982.299,-101.317,28.4931,-80.0852,2.11128,-6.67153,
2026_06_10_19_00_10.888,3.864,30.1,0,0.76,0,0,0,0.004, ,0,0,0,0,0, ,985.4,-32.7,9.3,-48.8,-16.7,5.1,25,982.891,-98.3479,23.0548,-78.1879,1.15387,-5.9024,
2026_06_10_19_00_10.907,3.864,30.1,0,0.759,0,0,0,0.004, ,0,0,0,0,0, ,973.2,-63.8,65,-76.5,-20.5,8.7,25,982.672,-95.2951,23.9137,-77.241,-0.0498787,-5.12226,
2026_06_10_19_00_10.926,3.864,30.1,0,0.758,0,0,0,0.003, ,0,0,0,0,0, ,962.6,-88,28.9,-77.7,-3.2,6,25,981.772,-94.1132,25.3175,-77.2324,-0.768949,-4.36223,
2026_06_10_19_00_10.947,3.864,30.1,0,0.759,0,0,0,0.003, ,0,0,0,0,0, ,982.9,-81.4,-25,-67.4,10.8,2.4,25,981.222,-93.5396,23.8936,-76.9471,-0.490528,-3.84047,
2026_06_10_19_00_10.966,3.864,30.1,0,0.759,0,0,0,0.003, ,0,0,0,0,0, ,993.6,-90.4,-75.8,-49.3,10.3,6.6,25,981.65,-93.0741,19.3663,-75.8138,0.182254,-3.33222,
2026_06_10_19_00_10.986,3.864,30.1,0,0.759,0,0,0,0.003, ,0,0,0,0,0, ,981.9,-117.5,-68.9,-37.1,7.7,0.3,25,982.022,-93.7368,13.7773,-73.8264,0.719585,-2.91893,
2026_06_10_19_00_11.006,3.864,30,0,0.76,0,0,0,0.003, ,0,0,0,0,0, ,980.2,-105.4,-1,-33.2,0.9,0.9,25,981.963,-94.8162,10.808,-71.4696,0.937767,-2.7045,
2026_06_10_19_00_11.025,3.864,30.1,0,0.758,0,0,0,0.004, ,0,0,0,0,0, ,986,-107.6,7.4,-36.3,4.8,-0.1,25,982.032,-95.5282,10.3444,-69.232,1.05429,-2.51532,
2026_06_10_19_00_11.046,3.864,30,0,0.758,0,0,0,0.003, ,0,0,0,0,0, ,993.2,-107.1,-38.9,-33.6,10.7,0.5,25,982.493,-96.2486,8.75427,-67.1429,1.46231,-2.34985,
2026_06_10_19_00_11.066,3.864,30.1,0,0.76,0,0,0,0.004, ,0,0,0,0,0, ,1002,-133.1,-46.5,-27,11.8,1.2,25,983.414,-97.702,5.61877,-64.8978,2.05875,-2.15486,
2026_06_10_19_00_11.085,3.864,30.1,0,0.759,0,0,0,0.003, ,0,0,0,0,0, ,1010.4,-145.2,-54.4,-20.3,6.3,4.3,25,984.802,-100.228,2.20208,-62.3843,2.48478,-1.85597,
2026_06_10_19_00_11.105,3.864,30,0,0.76,0,0,0,0.003, ,0,0,0,0,0, ,1018.7,-110.2,-37.9,-18.4,6.1,2.5,25,986.615,-101.902,-0.744374,-59.7619,2.71118,-1.53568,
2026_06_10_19_00_11.125,3.864,30.1,0,0.759,0,0,0,0.004, ,0,0,0,0,0, ,998.5,-108,-19.4,-19.7,5.5,1.6,25,987.955,-102.34,-2.44487,-57.281,2.8994,-1.31718,
2026_06_10_19_00_11.144,3.864,30.1,0,0.759,0,0,0,0.003, ,0,0,0,0,0, ,982.7,-97.9,0.9,-18.5,5.5,-1.8,25,988.116,-102.378,-2.85956,-54.9543,3.05787,-1.24301,
2026_06_10_19_00_11.165,3.864,30.1,0,0.76,0,0,0,0.003, ,0,0,0,0,0, ,986.5,-100.5,-19.4,-16.9,4.8,-6.7,25,987.902,-102.184,-3.24898,-52.6842,3.18536,-1.42625,
2026_06_10_19_00_11.185,3.864,29.9,0,0.759,0,0,0,0.003, ,0,0,0,0,0, ,997.8,-111,-52.7,-12,0.3,-5.9,25,988.161,-102.401,-5.24779,-50.3543,3.14665,-1.72324,
2026_06_10_19_00_11.205,3.864,30.1,0,0.758,0,0,0,0.005, ,0,0,0,0,0, ,986.4,-103.1,-30.1,-9.8,-4.2,-2.9,25,988.401,-102.685,-7.45081,-47.95,2.83607,-1.88636,
2026_06_10_19_00_11.224,3.864,30.1,0,0.759,0,0,0,0.003, ,0,0,0,0,0, ,979.9,-106.9,39.4,-14.3,-2,-7,25,988.081,-102.826,-6.71342,-45.7624,2.47434,-2.07305,
2026_06_10_19_00_11.244,3.864,30.1,0,0.76,0,0,0,0.003, ,0,0,0,0,0, ,964.4,-32.9,44.9,-30.7,14.3,-0.4,25,987.11,-100.819,-3.73581,-44.3448,2.69833,-2.17219,
2026_06_10_19_00_11.264,3.864,30.1,0,0.759,0,0,0,0.003, ,0,0,0,0,0, ,962.1,-99.4,-55.6,-28.3,14.9,2.4,25,985.656,-98.7066,-3.83417,-43.4402,3.42358,-1.97889,
2026_06_10_19_00_11.283,3.864,30.1,0,0.759,0,0,0,0.003, ,0,0,0,0,0, ,982.1,-70.5,-92.6,-6,-0.4,-8.6,25,984.83,-97.8683,-8.116,-41.8381,3.65676,-2.0472,
2026_06_10_19_00_11.304,3.864,30.1,0,0.761,0,0,0,0.003, ,0,0,0,0,0, ,993.2,-75.1,-56.6,-2.1,-8.3,-10.5,25,985.002,-96.3407,-12.1674,-39.5354,3.16884,-2.5044,
2026_06_10_19_00_11.323,3.864,30.1,0,0.76,0,0,0,0.003, ,0,0,0,0,0, ,980.1,-90.8,10.9,-2.4,-10.4,-12.8,25,985.102,-95.5247,-12.8183,-37.2633,2.40598,-3.06171,
2026_06_10_19_00_11.343,3.864,30,0,0.758,0,0,0,0.003, ,0,0,0,0,0, ,982.4,-105.4,14.5,-3.1,-6.3,-12.1,25,984.867,-95.6816,-11.2633,-35.1602,1.75054,-3.63381,
2026_06_10_19_00_11.362,3.864,30.1,0,0.759,0,0,0,0.004, ,0,0,0,0,0, ,990.1,-105.3,3.4,1.5,-2.5,-5.7,25,984.952,-96.2708,-10.0316,-33.0664,1.37574,-3.95472,
2026_06_10_19_00_11.383,3.864,30,0,0.759,0,0,0,0.003, ,0,0,0,0,0, ,984.8,-94.9,-22.2,1.5,-2,-3.1,25,985.104,-96.5042,-9.99308,-30.96,1.15479,-3.98186,
2026_06_10_19_00_11.402,3.864,30.1,0,0.759,0,0,0,0.004, ,0,0,0,0,0, ,987.1,-80.3,-30.5,4.1,-3.5,-0.7,25,985.155,-95.9616,-10.9898,-28.9027,0.916845,-3.85499,
2026_06_10_19_00_11.422,3.864,30.1,0,0.76,0,0,0,0.003, ,0,0,0,0,0, ,998.9,-67.7,-38.5,6.2,-6.2,-1.4,25,985.633,-94.6233,-12.4225,-26.8276,0.565428,-3.68406,
2026_06_10_19_00_11.443,3.864,30,0,0.759,0,0,0,0.003, ,0,0,0,0,0, ,990.2,-79.8,-11.8,7.3,-7,-3.5,25,986.177,-93.3513,-13.1981,-24.7815,0.128785,-3.60886,
2026_06_10_19_00_11.462,3.864,30.1,0,0.759,0,0,0,0.004, ,0,0,0,0,0, ,991.6,-102.2,15.8,4,-4,-3.5,25,986.465,-93.208,-12.2719,-22.9271,-0.214219,-3.60223,
2026_06_10_19_00_11.482,3.864,30.1,0,0.759,0,0,0,0.003, ,0,0,0,0,0, ,986.4,-100.3,8.5,2.2,1.3,1.3,25,986.619,-93.6981,-10.7837,-21.3411,-0.283431,-3.44975,
