UTC_Time,Vin,TC1,TC2,Rh1,Vh1,Ah1,Acp1,Dty1,Err1,Rh2,Vh2,Ah2,Acp2,Dty2,Err2,Accel_x,Accel_y,Accel_z,gyro_x,gyro_y,gyro_z,Temp_c,Accel_x_h,Accel_y_h,Accel_z_h,gyro_x_h,gyro_y_h,gyro_z_h,
2026_07_06_21_19_03.722,3.868,29.1,0,0.757,3.809,5.031,18.2,0.95, ,0,0,0,0,0, ,-42.1,511.9,858.5,-0.4,-0.4,-1.5,25,-42.1,511.9,858.5,-0.4,-0.4,-1.5,
2026_07_06_21_19_03.740,3.857,29.1,0,0.761,3.88,5.098,18.79,0.95, ,0,0,0,0,0, ,-42.1,512,860.1,-0.4,-0.4,-1.6,25,-42.1,511.903,858.549,-0.4,-0.4,-1.50305,
2026_07_06_21_19_03.761,3.857,29.2,0,0.764,0,0,0,0.007, ,0,0,0,0,0, ,-41.6,512.2,860.4,-0.4,-0.3,-1.7,25,-42.0848,511.915,858.652,-0.4,-0.396953,-1.512,
2026_07_06_21_19_03.780,3.857,29.3,0,0.762,0,0,0,0.006, ,0,0,0,0,0, ,-40.8,513.4,859.3,-0.3,-0.4,-1.6,25,-42.0308,511.969,858.725,-0.396953,-0.394092,-1.52041,
2026_07_06_21_19_03.800,3.857,29.5,0,0.759,0,0,0,0.005, ,0,0,0,0,0, ,-42.2,511.2,860.4,-0.3,-0.4,-1.6,25,-41.9985,511.989,858.794,-0.391045,-0.394452,-1.52526,
2026_07_06_21_19_03.820,3.857,29.6,0,0.76,0,0,0,0.004, ,0,0,0,0,0, ,-41.8,510.6,858.6,-0.4,-0.4,-1.6,25,-41.9986,511.923,858.837,-0.388544,-0.39479,-1.52982,
2026_07_06_21_19_03.840,3.857,29.7,0,0.76,0,0,0,0.003, ,0,0,0,0,0, ,-41.7,511.7,858.8,-0.3,-0.4,-1.6,25,-41.9834,511.876,858.829,-0.386195,-0.395108,-1.53409,
2026_07_06_21_19_03.860,3.857,29.7,0,0.76,0,0,0,0.002, ,0,0,0,0,0, ,-42.8,511.7,858.7,-0.2,-0.3,-1.6,25,-41.9997,511.865,858.824,-0.377896,-0.392359,-1.53811,
2026_07_06_21_19_03.879,3.857,29.7,0,0.76,0,0,0,0.002, ,0,0,0,0,0, ,-43.4,510.3,858.1,-0.3,-0.4,-1.6,25,-42.0667,511.812,858.798,-0.370102,-0.389778,-1.54188,
2026_07_06_21_19_03.899,3.857,29.8,0,0.76,0,0,0,0.002, ,0,0,0,0,0, ,-41.8,511.4,858.8,-0.2,-0.4,-1.5,25,-42.0992,511.754,858.777,-0.362783,-0.3904,-1.54237,
2026_07_06_21_19_03.920,3.857,29.8,0,0.76,0,0,0,0.002, ,0,0,0,0,0, ,-41.2,512,858,-0.3,-0.4,-1.6,25,-42.0627,511.75,858.754,-0.355911,-0.390985,-1.54284,
2026_07_06_21_19_03.939,3.857,29.9,0,0.76,0,0,0,0.002, ,0,0,0,0,0, ,-42.1,512,858.6,-0.4,-0.3,-1.6,25,-42.0376,511.766,858.726,-0.35555,-0.388488,-1.54632,
2026_07_06_21_19_03.959,3.857,29.9,0,0.76,0,0,0,0.001, ,0,0,0,0,0, ,-41.1,513,859.7,-0.4,-0.3,-1.6,25,-42.0109,511.81,858.752,-0.358259,-0.383096,-1.54959,
2026_07_06_21_19_03.979,3.857,29.8,0,0.76,0,0,0,0.001, ,0,0,0,0,0, ,-41.6,512.6,860.9,-0.3,-0.3,-1.6,25,-41.9706,511.871,858.846,-0.357756,-0.378032,-1.55267,
2026_07_06_21_19_03.999,3.857,29.9,0,0.76,0,0,0,0.002, ,0,0,0,0,0, ,-40.7,512,860.2,-0.3,-0.4,-1.6,25,-41.9206,511.897,858.95,-0.354236,-0.376324,-1.55555,
2026_07_06_21_19_04.018,3.857,30,0,0.759,0,0,0,0.001, ,0,0,0,0,0, ,-41.8,512,859.6,-0.3,-0.4,-1.7,25,-41.8798,511.903,859.008,-0.350931,-0.377767,-1.56131,
2026_07_06_21_19_04.038,3.857,29.9,0,0.76,0,0,0,0, ,0,0,0,0,0, ,-41.9,511.9,857.9,-0.3,-0.4,-1.6,25,-41.8779,511.906,858.992,-0.347828,-0.379121,-1.56671,
2026_07_06_21_19_04.058,3.857,30,0,0.759,0,0,0,0, ,0,0,0,0,0, ,-41.5,511.3,858.8,-0.3,-0.4,-1.6,25,-41.8671,511.887,858.953,-0.344913,-0.380394,-1.56874,
2026_07_06_21_19_04.078,3.857,30.1,0,0.76,0,0,0,0, ,0,0,0,0,0, ,-41.2,510.7,858.8,-0.2,-0.4,-1.6,25,-41.8356,511.833,858.944,-0.339129,-0.381588,-1.57064,
2026_07_06_21_19_04.101,3.857,30,0,0.759,0,0,0,0, ,0,0,0,0,0, ,-42.3,510.8,858.6,-0.2,-0.4,-1.6,25,-41.8304,511.767,858.929,-0.330651,-0.38271,-1.57243,
2026_07_06_21_19_04.118,3.857,30,0,0.76,0,0,0,0, ,0,0,0,0,0, ,-42.6,513,857.5,-0.3,-0.4,-1.5,25,-41.8681,511.775,858.875,-0.325737,-0.383764,-1.57107,
2026_07_06_21_19_04.137,3.857,30,0,0.761,0,0,0,0, ,0,0,0,0,0, ,-41.8,510.8,859.3,-0.3,-0.4,-1.7,25,-41.8884,511.783,858.846,-0.324168,-0.384753,-1.57283,
2026_07_06_21_19_04.157,3.857,30,0,0.759,0,0,0,0, ,0,0,0,0,0, ,-41.7,510.4,858.7,-0.3,-0.4,-1.6,25,-41.8799,511.711,858.856,-0.322695,-0.385682,-1.57753,
2026_07_06_21_19_04.177,3.857,30.1,0,0.76,0,0,0,0, ,0,0,0,0,0, ,-41.6,510.9,859.3,-0.3,-0.4,-1.6,25,-41.8659,511.646,858.865,-0.321312,-0.386555,-1.5789,
2026_07_06_21_19_04.196,3.857,30.1,0,0.76,0,0,0,0, ,0,0,0,0,0, ,-41.2,511.4,859.1,-0.4,-0.4,-1.6,25,-41.8375,511.616,858.885,-0.323061,-0.387374,-1.58019,
2026_07_06_21_19_04.217,3.857,30.2,0,0.759,0,0,0,0, ,0,0,0,0,0, ,-42.4,512.2,858.6,-0.4,-0.4,-1.6,25,-41.8352,511.627,858.883,-0.327749,-0.388144,-1.58139,
2026_07_06_21_19_04.236,3.857,30.2,0,0.759,0,0,0,0, ,0,0,0,0,0, ,-40.5,512.5,859.7,-0.4,-0.4,-1.6,25,-41.8118,511.671,858.899,-0.332152,-0.388866,-1.58253,
2026_07_06_21_19_04.256,3.857,30.1,0,0.758,0,0,0,0, ,0,0,0,0,0, ,-41,512.5,860.1,-0.4,-0.4,-1.6,25,-41.7471,511.722,858.96,-0.336286,-0.389545,-1.58359,
2026_07_06_21_19_04.275,3.857,30.2,0,0.761,0,0,0,0, ,0,0,0,0,0, ,-40.8,511.8,859.7,-0.4,-0.4,-1.6,25,-41.6954,511.748,859.017,-0.340169,-0.390182,-1.58459,
2026_07_06_21_19_04.296,3.857,30.1,0,0.761,0,0,0,0, ,0,0,0,0,0, ,-42.1,512.4,860.3,-0.3,-0.5,-1.6,25,-41.6805,511.769,859.077,-0.340768,-0.393827,-1.58553,
2026_07_06_21_19_04.315,3.857,30.2,0,0.759,0,0,0,0, ,0,0,0,0,0, ,-41.8,512.4,859.7,-0.4,-0.4,-1.6,25,-41.6969,511.808,859.134,-0.341331,-0.39725,-1.58641,
2026_07_06_21_19_04.335,3.857,30.2,0,0.76,0,0,0,0, ,0,0,0,0,0, ,-41.2,511.8,857.6,-0.3,-0.4,-1.6,25,-41.6849,511.826,859.104,-0.341859,-0.397418,-1.58724,
2026_07_06_21_19_04.354,3.857,30.2,0,0.759,0,0,0,0, ,0,0,0,0,0, ,-41.9,513.4,858.3,-0.3,-0.4,-1.6,25,-41.6767,511.873,859.034,-0.339308,-0.397575,-1.58802,
2026_07_06_21_19_04.374,3.857,30.2,0,0.758,0,0,0,0, ,0,0,0,0,0, ,-41.9,511.8,859.9,-0.2,-0.4,-1.6,25,-41.6903,511.917,859.038,-0.333866,-0.397723,-1.58875,
2026_07_06_21_19_04.398,3.857,30.3,0,0.759,0,0,0,0, ,0,0,0,0,0, ,-41.3,511.9,859.2,-0.2,-0.4,-1.6,25,-41.6848,511.913,859.069,-0.325708,-0.397861,-1.58943,
2026_07_06_21_19_04.415,3.857,30.2,0,0.759,0,0,0,0, ,0,0,0,0,0, ,-40.7,511.8,859.2,-0.3,-0.5,-1.6,25,-41.6431,511.909,859.077,-0.321095,-0.401039,-1.59008,
2026_07_06_21_19_04.434,3.857,30.2,0,0.76,0,0,0,0, ,0,0,0,0,0, ,-42.6,510.7,858.1,-0.2,-0.5,-1.6,25,-41.6435,511.869,859.051,-0.316763,-0.407069,-1.59068,
2026_07_06_21_19_04.454,3.857,30.2,0,0.759,0,0,0,0, ,0,0,0,0,0, ,-41.5,512.5,859.1,-0.3,-0.4,-1.6,25,-41.6683,511.853,859.023,-0.312694,-0.409685,-1.59125,
2026_07_06_21_19_04.474,3.857,30.2,0,0.759,0,0,0,0, ,0,0,0,0,0, ,-41.1,511.1,860.2,-0.3,-0.4,-1.7,25,-41.6458,511.849,859.062,-0.311921,-0.409095,-1.59483,
2026_07_06_21_19_04.493,3.857,30.3,0,0.76,0,0,0,0, ,0,0,0,0,0, ,-41.3,509.8,858.3,-0.4,-0.4,-1.6,25,-41.6187,511.764,859.073,-0.314241,-0.408541,-1.59819,
2026_07_06_21_19_04.513,3.857,30.3,0,0.761,0,0,0,0, ,0,0,0,0,0, ,-43.3,511.2,859.6,-0.4,-0.3,-1.6,25,-41.6602,511.687,859.066,-0.319467,-0.404973,-1.5983,
2026_07_06_21_19_04.533,3.857,30.3,0,0.76,0,0,0,0, ,0,0,0,0,0, ,-42.1,513,859.9,-0.4,-0.4,-1.6,25,-41.7235,511.712,859.107,-0.324375,-0.401624,-1.59841,
2026_07_06_21_19_04.553,3.857,30.2,0,0.76,0,0,0,0, ,0,0,0,0,0, ,-41.8,510.8,859.6,-0.4,-0.5,-1.5,25,-41.7373,511.724,859.146,-0.328983,-0.404571,-1.59546,
2026_07_06_21_19_04.573,3.857,30.3,0,0.758,0,0,0,0, ,0,0,0,0,0, ,-39.6,512.6,860.1,-0.4,-0.5,-1.6,25,-41.6741,511.722,859.189,-0.333311,-0.410387,-1.59269,
2026_07_06_21_19_04.593,3.857,30.3,0,0.759,0,0,0,0, ,0,0,0,0,0, ,-42.2,512.6,857.4,-0.5,-0.4,-1.6,25,-41.6269,511.776,859.163,-0.340421,-0.412801,-1.59313,
2026_07_06_21_19_04.612,3.857,30.4,0,0.758,0,0,0,0, ,0,0,0,0,0, ,-40.8,512,857.9,-0.3,-0.4,-1.5,25,-41.6192,511.808,859.07,-0.344052,-0.412021,-1.5905,
2026_07_06_21_19_04.632,3.857,30.4,0,0.758,0,0,0,0, ,0,0,0,0,0, ,-41.1,512.3,858.2,-0.3,-0.4,-1.6,25,-41.5784,511.829,859.008,-0.341368,-0.411288,-1.58804,
2026_07_06_21_19_04.651,3.857,30.3,0,0.759,0,0,0,0, ,0,0,0,0,0, ,-42.7,511.9,858.7,-0.3,-0.4,-1.6,25,-41.598,511.845,858.974,-0.338847,-0.4106,-1.58876,
2026_07_06_21_19_04.672,3.857,30.3,0,0.759,0,0,0,0, ,0,0,0,0,0, ,-41.8,511.9,858.6,-0.3,-0.4,-1.6,25,-41.6378,511.848,858.954,-0.336479,-0.409954,-1.58945,
2026_07_06_21_19_04.692,3.857,30.3,0,0.759,0,0,0,0, ,0,0,0,0,0, ,-42.2,510.7,859.2,-0.4,-0.4,-1.6,25,-41.6598,511.815,858.951,-0.337303,-0.409348,-1.59009,
2026_07_06_21_19_04.711,3.857,30.3,0,0.759,0,0,0,0, ,0,0,0,0,0, ,-41.8,510.7,859.3,-0.5,-0.4,-1.6,25,-41.6806,511.747,858.969,-0.344171,-0.408778,-1.5907,
2026_07_06_21_19_04.731,3.857,30.3,0,0.76,0,0,0,0, ,0,0,0,0,0, ,-41.6,512.2,859.4,-0.4,-0.3,-1.5,25,-41.6817,511.729,858.993,-0.35062,-0.405196,-1.58822,
2026_07_06_21_19_04.751,3.857,30.4,0,0.759,0,0,0,0, ,0,0,0,0,0, ,-42.7,511.7,858,-0.3,-0.4,-1.7,25,-41.7103,511.742,858.975,-0.350582,-0.401833,-1.58893,
2026_07_06_21_19_04.770,3.857,30.4,0,0.76,0,0,0,0, ,0,0,0,0,0, ,-41.5,511.4,858.5,-0.4,-0.4,-1.5,25,-41.734,511.731,858.931,-0.350547,-0.401721,-1.58961,
2026_07_06_21_19_04.792,3.857,30.3,0,0.76,0,0,0,0, ,0,0,0,0,0, ,-42.4,512.4,859.1,-0.4,-0.4,-1.7,25,-41.7472,511.741,858.923,-0.35356,-0.401616,-1.59024,
2026_07_06_21_19_04.810,3.857,30.3,0,0.762,0,0,0,0, ,0,0,0,0,0, ,-41.7,511.5,859.1,-0.2,-0.4,-1.6,25,-41.7656,511.754,858.933,-0.350296,-0.401518,-1.59388,
2026_07_06_21_19_04.830,3.857,30.3,0,0.759,0,0,0,0, ,0,0,0,0,0, ,-41.5,511.9,860.5,-0.3,-0.4,-1.6,25,-41.7555,511.75,858.986,-0.344184,-0.401425,-1.59426,
2026_07_06_21_19_04.856,3.857,30.3,0,0.759,0,0,0,0, ,0,0,0,0,0, ,-40.1,512.3,858,-0.2,-0.4,-1.7,25,-41.6973,511.772,859.002,-0.338445,-0.401338,-1.59765,
2026_07_06_21_19_04.870,3.857,30.2,0,0.758,0,0,0,0, ,0,0,0,0,0, ,-41.7,510,859.1,-0.2,-0.4,-1.6,25,-41.6487,511.734,858.975,-0.330009,-0.401257,-1.60084,
2026_07_06_21_19_04.889,3.857,30.4,0,0.76,0,0,0,0, ,0,0,0,0,0, ,-41.1,511.3,859.2,-0.3,-0.3,-1.7,25,-41.6336,511.668,858.985,-0.325133,-0.398133,-1.60384,
2026_07_06_21_19_04.910,3.857,30.3,0,0.761,0,0,0,0, ,0,0,0,0,0, ,-41,512.3,859.8,-0.3,-0.4,-1.5,25,-41.598,511.676,859.017,-0.323602,-0.3952,-1.6036,
2026_07_06_21_19_04.929,3.857,30.4,0,0.76,0,0,0,0, ,0,0,0,0,0, ,-40.8,512,859.1,-0.3,-0.3,-1.6,25,-41.5555,511.705,859.043,-0.322163,-0.392446,-1.60034,
2026_07_06_21_19_04.949,3.857,30.2,0,0.76,0,0,0,0, ,0,0,0,0,0, ,-42.2,513.4,856.8,-0.3,-0.4,-1.7,25,-41.5521,511.765,858.977,-0.320813,-0.389859,-1.60336,
2026_07_06_21_19_04.969,3.857,30.2,0,0.759,0,0,0,0, ,0,0,0,0,0, ,-41.9,510.8,859,-0.3,-0.5,-1.6,25,-41.5824,511.786,858.911,-0.319544,-0.393524,-1.60621,
2026_07_06_21_19_04.989,3.857,30.3,0,0.758,0,0,0,0, ,0,0,0,0,0, ,-40.8,510.2,858.7,-0.4,-0.4,-1.6,25,-41.5683,511.707,858.907,-0.3214,-0.396966,-1.60583,
2026_07_06_21_19_05.011,3.857,30.3,0,0.758,0,0,0,0, ,0,0,0,0,0, ,-41.7,512,858.8,-0.5,-0.4,-1.6,25,-41.5489,511.67,858.898,-0.329237,-0.397151,-1.60547,
2026_07_06_21_19_05.028,3.857,30.3,0,0.761,0,0,0,0, ,0,0,0,0,0, ,-43,511.3,858.7,-0.3,-0.4,-1.6,25,-41.5977,511.669,858.889,-0.333549,-0.397324,-1.60514,
2026_07_06_21_19_05.048,3.857,30.3,0,0.759,0,0,0,0, ,0,0,0,0,0, ,-42.6,511.3,859.7,-0.4,-0.4,-1.6,25,-41.671,511.647,858.908,-0.334552,-0.397487,-1.60483,
2026_07_06_21_19_05.067,3.857,30.4,0,0.759,0,0,0,0, ,0,0,0,0,0, ,-41.9,512.2,858.1,-0.3,-0.4,-1.7,25,-41.7062,511.653,858.907,-0.335493,-0.39764,-1.60758,
2026_07_06_21_19_05.087,3.857,30.3,0,0.759,0,0,0,0, ,0,0,0,0,0, ,-42.2,512.5,860.1,-0.3,-0.4,-1.5,25,-41.7272,511.695,858.919,-0.33333,-0.397784,-1.60712,
2026_07_06_21_19_05.108,3.857,30.3,0,0.76,0,0,0,0, ,0,0,0,0,0, ,-41.9,512.2,859.1,-0.4,-0.3,-1.6,25,-41.7469,511.735,858.96,-0.334346,-0.394872,-1.60364,
2026_07_06_21_19_05.127,3.857,30.3,0,0.761,0,0,0,0, ,0,0,0,0,0, ,-41.9,511.9,859.1,-0.4,-0.4,-1.6,25,-41.7562,511.755,858.969,-0.338347,-0.392138,-1.60341,
2026_07_06_21_19_05.147,3.857,30.4,0,0.76,0,0,0,0, ,0,0,0,0,0, ,-42.4,512.6,859.1,-0.3,-0.4,-1.6,25,-41.7802,511.785,858.977,-0.339057,-0.392617,-1.60321,
2026_07_06_21_19_05.167,3.857,30.4,0,0.759,0,0,0,0, ,0,0,0,0,0, ,-39.7,511.5,859.3,-0.2,-0.4,-1.6,25,-41.7357,511.801,858.99,-0.33363,-0.393067,-1.60301,
2026_07_06_21_19_05.186,3.857,30.3,0,0.76,0,0,0,0, ,0,0,0,0,0, ,-42.8,511.5,859,-0.2,-0.4,-1.5,25,-41.7061,511.783,859,-0.325487,-0.393489,-1.59978,
2026_07_06_21_19_05.207,3.857,30.3,0,0.76,0,0,0,0, ,0,0,0,0,0, ,-40.8,511.9,860.4,-0.3,-0.4,-1.6,25,-41.7118,511.778,859.043,-0.320887,-0.393886,-1.59675,
2026_07_06_21_19_05.226,3.857,30.3,0,0.76,0,0,0,0, ,0,0,0,0,0, ,-42.3,510.8,859.1,-0.3,-0.4,-1.6,25,-41.702,511.751,859.086,-0.319614,-0.394259,-1.59695,
2026_07_06_21_19_05.246,3.857,30.3,0,0.76,0,0,0,0, ,0,0,0,0,0, ,-42.8,511.7,858.1,-0.3,-0.4,-1.6,25,-41.7536,511.721,859.056,-0.318419,-0.394609,-1.59713,
2026_07_06_21_19_05.266,3.857,30.4,0,0.759,0,0,0,0, ,0,0,0,0,0, ,-41.9,511.5,859.2,-0.3,-0.4,-1.6,25,-41.79,511.714,859.032,-0.317296,-0.394937,-1.59731,
2026_07_06_21_19_05.286,3.857,30.4,0,0.76,0,0,0,0, ,0,0,0,0,0, ,-42.4,511.3,858.3,-0.3,-0.4,-1.6,25,-41.8119,511.694,859.014,-0.316242,-0.395246,-1.59747,
2026_07_06_21_19_05.306,3.857,30.4,0,0.759,0,0,0,0, ,0,0,0,0,0, ,-41.8,511.9,858.1,-0.4,-0.4,-1.5,25,-41.8295,511.689,858.965,-0.3183,-0.395535,-1.59458,
2026_07_06_21_19_05.325,3.857,30.3,0,0.76,0,0,0,0, ,0,0,0,0,0, ,-42.2,512.8,858.5,-0.4,-0.4,-1.6,25,-41.8399,511.729,858.924,-0.323278,-0.395807,-1.59186,
2026_07_06_21_19_05.345,3.857,30.4,0,0.759,0,0,0,0, ,0,0,0,0,0, ,-42.2,511.5,859.8,-0.3,-0.4,-1.6,25,-41.8618,511.755,858.938,-0.324907,-0.396063,-1.59236,
2026_07_06_21_19_05.365,3.857,30.3,0,0.76,0,0,0,0, ,0,0,0,0,0, ,-41.2,511.4,858.8,-0.2,-0.4,-1.6,25,-41.852,511.736,858.96,-0.320342,-0.396303,-1.59282,
2026_07_06_21_19_05.386,3.857,30.4,0,0.76,0,0,0,0, ,0,0,0,0,0, ,-42.1,510.9,859,-0.2,-0.4,-1.7,25,-41.8396,511.7,858.956,-0.313009,-0.396528,-1.59631,
2026_07_06_21_19_05.405,3.857,30.3,0,0.761,0,0,0,0, ,0,0,0,0,0, ,-42.4,511.4,857.4,-0.4,-0.4,-1.7,25,-41.8647,511.667,858.91,-0.312216,-0.39674,-1.60263,
2026_07_06_21_19_05.424,3.857,30.4,0,0.76,0,0,0,0, ,0,0,0,0,0, ,-41.7,511.3,861.3,-0.4,-0.5,-1.6,25,-41.8759,511.648,858.937,-0.317565,-0.399985,-1.60551,
2026_07_06_21_19_05.444,3.857,30.4,0,0.759,0,0,0,0, ,0,0,0,0,0, ,-41.7,510.9,859.8,-0.3,-0.4,-1.6,25,-41.8652,511.614,859.035,-0.319542,-0.403033,-1.60518,
2026_07_06_21_19_05.464,3.857,30.4,0,0.758,0,0,0,0, ,0,0,0,0,0, ,-41.1,512.4,858.2,-0.3,-0.4,-1.6,25,-41.8369,511.616,859.033,-0.318351,-0.402848,-1.60486,
2026_07_06_21_19_05.484,3.857,30.3,0,0.76,0,0,0,0, ,0,0,0,0,0, ,-41.5,511.1,859,-0.4,-0.4,-1.6,25,-41.8042,511.624,859.007,-0.32028,-0.402675,-1.60457,
2026_07_06_21_19_05.503,3.857,30.3,0,0.76,0,0,0,0, ,0,0,0,0,0, ,-41.5,512.4,859.9,-0.4,-0.5,-1.5,25,-41.7856,511.632,859.034,-0.325137,-0.405559,-1.60124,
2026_07_06_21_19_05.523,3.857,30.3,0,0.758,0,0,0,0, ,0,0,0,0,0, ,-41.7,510.8,858,-0.4,-0.3,-1.6,25,-41.7743,511.63,859.029,-0.329699,-0.40522,-1.59812,
2026_07_06_21_19_05.543,3.857,30.3,0,0.759,0,0,0,0, ,0,0,0,0,0, ,-42.1,512.5,858.1,-0.3,-0.3,-1.6,25,-41.782,511.631,858.969,-0.330936,-0.398808,-1.59823,
2026_07_06_21_19_05.563,3.857,30.3,0,0.759,0,0,0,0, ,0,0,0,0,0, ,-41,512.2,859.2,-0.3,-0.4,-1.6,25,-41.7678,511.675,858.95,-0.329051,-0.395834,-1.59834,
2026_07_06_21_19_05.583,3.857,30.4,0,0.76,0,0,0,0, ,0,0,0,0,0, ,-41.6,511.8,859.3,-0.3,-0.4,-1.5,25,-41.7393,511.695,858.968,-0.327281,-0.396088,-1.59539,
2026_07_06_21_19_05.602,3.857,30.3,0,0.761,0,0,0,0, ,0,0,0,0,0, ,-41.6,512.4,858,-0.2,-0.4,-1.6,25,-41.7308,511.72,858.949,-0.322572,-0.396326,-1.59263,
2026_07_06_21_19_05.622,3.857,30.3,0,0.759,0,0,0,0, ,0,0,0,0,0, ,-42.2,512.9,857.7,-0.3,-0.4,-1.6,25,-41.7411,511.776,858.882,-0.318149,-0.39655,-1.59308,
2026_07_06_21_19_05.642,3.857,30.4,0,0.759,0,0,0,0, ,0,0,0,0,0, ,-41.6,511.8,858.7,-0.3,-0.4,-1.6,25,-41.7508,511.811,858.84,-0.317043,-0.39676,-1.5935,
2026_07_06_21_19_05.662,3.857,30.4,0,0.76,0,0,0,0, ,0,0,0,0,0, ,-41.9,511.7,857.9,-0.3,-0.4,-1.6,25,-41.7508,511.808,858.807,-0.316005,-0.396958,-1.5939,
2026_07_06_21_19_05.683,3.857,30.4,0,0.761,0,0,0,0, ,0,0,0,0,0, ,-41.8,511.2,858.7,-0.2,-0.4,-1.6,25,-41.7568,511.786,858.776,-0.311983,-0.397143,-1.59427,
2026_07_06_21_19_05.702,3.857,30.4,0,0.761,0,0,0,0, ,0,0,0,0,0, ,-42.7,511.7,859.4,-0.3,-0.4,-1.6,25,-41.7869,511.765,858.793,-0.308206,-0.397317,-1.59462,
2026_07_06_21_19_05.721,3.857,30.4,0,0.76,0,0,0,0, ,0,0,0,0,0, ,-41.9,511.4,859.1,-0.3,-0.3,-1.5,25,-41.8181,511.752,858.821,-0.307706,-0.394434,-1.5919,
2026_07_06_21_19_05.746,3.857,30.3,0,0.762,0,0,0,0, ,0,0,0,0,0, ,-41.9,512.3,857.6,-0.4,-0.4,-1.6,25,-41.8231,511.758,858.792,-0.310283,-0.391726,-1.58934,
2026_07_06_21_19_05.761,3.857,30.3,0,0.76,0,0,0,0, ,0,0,0,0,0, ,-41.2,511.1,858.1,-0.4,-0.4,-1.7,25,-41.8065,511.755,858.735,-0.31575,-0.39223,-1.59304,
2026_07_06_21_19_05.781,3.857,30.4,0,0.76,0,0,0,0, ,0,0,0,0,0, ,-41.3,512,857.9,-0.5,-0.4,-1.6,25,-41.7726,511.742,858.69,-0.323931,-0.392704,-1.59651,
2026_07_06_21_19_05.801,3.857,30.4,0,0.759,0,0,0,0, ,0,0,0,0,0, ,-41.5,511.7,857.9,-0.4,-0.4,-1.6,25,-41.7499,511.749,858.642,-0.331613,-0.393148,-1.59672,
2026_07_06_21_19_05.820,3.857,30.4,0,0.76,0,0,0,0, ,0,0,0,0,0, ,-41.8,512.5,860.1,-0.3,-0.4,-1.6,25,-41.7438,511.77,858.664,-0.332734,-0.393566,-1.59692,
2026_07_06_21_19_05.840,3.857,30.3,0,0.76,0,0,0,0, ,0,0,0,0,0, ,-41.1,512.3,859.9,-0.5,-0.4,-1.6,25,-41.7259,511.809,858.745,-0.336833,-0.393958,-1.59711,
2026_07_06_21_19_05.860,3.857,30.3,0,0.76,0,0,0,0, ,0,0,0,0,0, ,-42.2,511.5,860.1,-0.4,-0.4,-1.6,25,-41.7213,511.814,858.822,-0.343729,-0.394326,-1.59729,
2026_07_06_21_19_05.880,3.857,30.4,0,0.76,0,0,0,0, ,0,0,0,0,0, ,-42.6,512,859.1,-0.3,-0.3,-1.5,25,-41.7626,511.81,858.869,-0.344111,-0.391625,-1.59441,
2026_07_06_21_19_05.910,3.857,30.4,0,0.758,0,0,0,0, ,0,0,0,0,0, ,-40.6,513.1,858.5,-0.2,-0.4,-1.6,25,-41.7527,511.855,858.865,-0.338376,-0.389088,-1.5917,
2026_07_06_21_19_05.920,3.857,30.4,0,0.76,0,0,0,0, ,0,0,0,0,0, ,-41.6,511.9,858.6,-0.3,-0.3,-1.5,25,-41.7129,511.895,858.846,-0.332991,-0.386707,-1.58916,
2026_07_06_21_19_05.940,3.857,30.3,0,0.76,0,0,0,0, ,0,0,0,0,0, ,-41.2,510.9,857.5,-0.3,-0.4,-1.6,25,-41.6939,511.864,858.797,-0.33098,-0.38447,-1.58677,
2026_07_06_21_19_05.960,3.857,30.4,0,0.759,0,0,0,0, ,0,0,0,0,0, ,-41.1,511.2,857.5,-0.3,-0.4,-1.6,25,-41.6607,511.815,858.718,-0.329092,-0.385416,-1.58758,
2026_07_06_21_19_05.979,3.857,30.4,0,0.76,0,0,0,0, ,0,0,0,0,0, ,-41,511.2,858.7,-0.3,-0.4,-1.6,25,-41.6235,511.777,858.68,-0.32732,-0.386305,-1.58834,
2026_07_06_21_19_05.999,3.857,30.4,0,0.76,0,0,0,0, ,0,0,0,0,0, ,-41.6,511.7,858.3,-0.2,-0.4,-1.6,25,-41.6038,511.757,858.669,-0.322608,-0.387139,-1.58905,
2026_07_06_21_19_06.018,3.857,30.3,0,0.758,0,0,0,0, ,0,0,0,0,0, ,-39.9,511.5,859.7,-0.3,-0.4,-1.6,25,-41.5518,511.748,858.69,-0.318183,-0.387923,-1.58971,
2026_07_06_21_19_06.038,3.857,30.4,0,0.76,0,0,0,0, ,0,0,0,0,0, ,-41.9,511.4,857.5,-0.3,-0.4,-1.6,25,-41.512,511.73,858.684,-0.317075,-0.388659,-1.59034,
2026_07_06_21_19_06.058,3.857,30.5,0,0.759,0,0,0,0, ,0,0,0,0,0, ,-42.6,512.4,858,-0.4,-0.4,-1.6,25,-41.557,511.74,858.627,-0.319082,-0.38935,-1.59093,
2026_07_06_21_19_06.078,3.857,30.4,0,0.759,0,0,0,0, ,0,0,0,0,0, ,-42.9,512.4,858.1,-0.4,-0.4,-1.6,25,-41.6297,511.78,858.592,-0.324013,-0.389999,-1.59148,
2026_07_06_21_19_06.099,3.857,30.4,0,0.76,0,0,0,0, ,0,0,0,0,0, ,-41.9,513.1,857.6,-0.2,-0.4,-1.7,25,-41.6767,511.839,858.547,-0.322549,-0.390608,-1.59505,
2026_07_06_21_19_06.118,3.857,30.4,0,0.76,0,0,0,0, ,0,0,0,0,0, ,-41.1,513,858.8,-0.2,-0.4,-1.6,25,-41.6659,511.913,858.526,-0.315082,-0.391181,-1.5984,
2026_07_06_21_19_06.138,3.857,30.4,0,0.758,0,0,0,0, ,0,0,0,0,0, ,-41.6,511.9,858.3,-0.2,-0.4,-1.6,25,-41.6466,511.946,858.527,-0.308069,-0.391718,-1.59849,
2026_07_06_21_19_06.157,3.857,30.5,0,0.759,0,0,0,0, ,0,0,0,0,0, ,-42.3,512.4,858.2,-0.3,-0.5,-1.6,25,-41.6651,511.958,858.51,-0.30453,-0.39527,-1.59859,
2026_07_06_21_19_06.177,3.857,30.4,0,0.759,0,0,0,0, ,0,0,0,0,0, ,-42.1,511.7,857.9,-0.3,-0.4,-1.6,25,-41.6977,511.964,858.482,-0.304254,-0.398605,-1.59867,
2026_07_06_21_19_06.197,3.857,30.4,0,0.76,0,0,0,0, ,0,0,0,0,0, ,-42.2,510.1,858.2,-0.3,-0.4,-1.7,25,-41.7253,511.899,858.456,-0.303995,-0.39869,-1.6018,
2026_07_06_21_19_06.216,3.857,30.4,0,0.76,0,0,0,0, ,0,0,0,0,0, ,-41.9,510.8,858.8,-0.3,-0.4,-1.6,25,-41.7451,511.811,858.459,-0.303751,-0.39877,-1.60474,
2026_07_06_21_19_06.236,3.857,30.4,0,0.759,0,0,0,0, ,0,0,0,0,0, ,-41.6,511.7,859.2,-0.4,-0.4,-1.6,25,-41.7454,511.777,858.492,-0.30657,-0.398845,-1.60445,
2026_07_06_21_19_06.256,3.857,30.5,0,0.759,0,0,0,0, ,0,0,0,0,0, ,-41.9,511.7,859.7,-0.4,-0.4,-1.6,25,-41.7457,511.772,858.55,-0.312263,-0.398915,-1.60418,
2026_07_06_21_19_06.276,3.857,30.3,0,0.758,0,0,0,0, ,0,0,0,0,0, ,-41.3,511.7,858.3,-0.4,-0.5,-1.6,25,-41.7368,511.768,858.577,-0.31761,-0.402028,-1.60392,
2026_07_06_21_19_06.296,3.857,30.3,0,0.76,0,0,0,0, ,0,0,0,0,0, ,-40.6,511.5,858.8,-0.4,-0.4,-1.7,25,-41.6888,511.757,858.576,-0.32263,-0.404951,-1.60673,
2026_07_06_21_19_06.316,3.857,30.4,0,0.759,0,0,0,0, ,0,0,0,0,0, ,-41.2,511.8,857.5,-0.5,-0.4,-1.6,25,-41.6408,511.751,858.55,-0.330392,-0.40465,-1.60937,
2026_07_06_21_19_06.336,3.857,30.5,0,0.76,0,0,0,0, ,0,0,0,0,0, ,-42.3,512.3,859.6,-0.4,-0.5,-1.6,25,-41.6474,511.769,858.55,-0.33768,-0.407413,-1.6088,
2026_07_06_21_19_06.355,3.857,30.3,0,0.759,0,0,0,0, ,0,0,0,0,0, ,-41.9,511.8,859.3,-0.4,-0.4,-1.7,25,-41.675,511.786,858.605,-0.341478,-0.410008,-1.61131,
2026_07_06_21_19_06.375,3.857,30.3,0,0.76,0,0,0,0, ,0,0,0,0,0, ,-40.4,512.6,859.1,-0.4,-0.4,-1.6,25,-41.643,511.811,858.641,-0.345044,-0.409398,-1.61367,
2026_07_06_21_19_06.396,3.857,30.3,0,0.759,0,0,0,0, ,0,0,0,0,0, ,-41.7,512.5,860.1,-0.3,-0.3,-1.5,25,-41.6069,511.856,858.699,-0.345346,-0.405779,-1.60979,
2026_07_06_21_19_06.414,3.857,30.4,0,0.759,0,0,0,0, ,0,0,0,0,0, ,-41.7,511.7,858.1,-0.3,-0.4,-1.6,25,-41.6125,511.871,858.724,-0.342583,-0.40238,-1.60614,
2026_07_06_21_19_06.434,3.857,30.4,0,0.76,0,0,0,0, ,0,0,0,0,0, ,-41.2,513.3,858.2,-0.3,-0.4,-1.5,25,-41.6026,511.91,858.689,-0.339988,-0.402235,-1.60272,
2026_07_06_21_19_06.454,3.857,30.4,0,0.759,0,0,0,0, ,0,0,0,0,0, ,-42.4,512,858.6,-0.3,-0.4,-1.5,25,-41.6147,511.955,858.671,-0.337551,-0.402099,-1.59646,
2026_07_06_21_19_06.474,3.857,30.3,0,0.76,0,0,0,0, ,0,0,0,0,0, ,-41.8,511.4,859,-0.3,-0.4,-1.6,25,-41.6442,511.939,858.679,-0.335263,-0.401971,-1.59363,
2026_07_06_21_19_06.494,3.857,30.4,0,0.759,0,0,0,0, ,0,0,0,0,0, ,-41.1,512.3,858.1,-0.3,-0.4,-1.5,25,-41.6324,511.934,858.671,-0.333114,-0.401851,-1.59097,
2026_07_06_21_19_06.514,3.857,30.5,0,0.76,0,0,0,0, ,0,0,0,0,0, ,-42.3,512.8,858.1,-0.3,-0.4,-1.6,25,-41.6365,511.971,858.636,-0.331096,-0.401738,-1.58848,
2026_07_06_21_19_06.534,3.857,30.4,0,0.76,0,0,0,0, ,0,0,0,0,0, ,-41.6,510.3,860.2,-0.3,-0.4,-1.5,25,-41.6556,511.946,858.668,-0.329201,-0.401632,-1.58613,
2026_07_06_21_19_06.555,3.857,30.4,0,0.759,0,0,0,0, ,0,0,0,0,0, ,-41.9,511.4,858.5,-0.3,-0.4,-1.6,25,-41.6614,511.879,858.709,-0.327422,-0.401533,-1.58393,
2026_07_06_21_19_06.573,3.857,30.3,0,0.759,0,0,0,0, ,0,0,0,0,0, ,-41.8,511.7,858.2,-0.3,-0.4,-1.6,25,-41.6729,511.859,858.687,-0.325751,-0.401439,-1.58491,
2026_07_06_21_19_06.593,3.857,30.3,0,0.76,0,0,0,0, ,0,0,0,0,0, ,-41.8,512,858.3,-0.4,-0.4,-1.5,25,-41.6806,511.858,858.661,-0.327229,-0.401351,-1.58278,
2026_07_06_21_19_06.612,3.857,30.4,0,0.759,0,0,0,0, ,0,0,0,0,0, ,-41.8,511.5,857.6,-0.3,-0.4,-1.6,25,-41.6879,511.852,858.617,-0.328616,-0.401269,-1.58078,
2026_07_06_21_19_06.632,3.857,30.3,0,0.76,0,0,0,0, ,0,0,0,0,0, ,-42.2,511.9,859,-0.5,-0.4,-1.7,25,-41.7069,511.842,858.598,-0.332966,-0.401192,-1.585,
2026_07_06_21_19_06.652,3.857,30.3,0,0.76,0,0,0,0, ,0,0,0,0,0, ,-42.3,512,859.3,-0.4,-0.5,-1.6,25,-41.74,511.849,858.632,-0.340098,-0.404166,-1.58896,
2026_07_06_21_19_06.672,3.857,30.3,0,0.759,0,0,0,0, ,0,0,0,0,0, ,-40.2,511.7,859.2,-0.5,-0.4,-1.6,25,-41.7101,511.849,858.669,-0.346795,-0.406959,-1.58963,
2026_07_06_21_19_06.692,3.857,30.3,0,0.757,0,0,0,0, ,0,0,0,0,0, ,-40.6,511.4,857.9,-0.4,-0.4,-1.6,25,-41.6303,511.831,858.662,-0.353084,-0.406535,-1.59027,
2026_07_06_21_19_06.717,3.857,30.4,0,0.758,0,0,0,0, ,0,0,0,0,0, ,-41.7,512,858.6,-0.3,-0.5,-1.6,25,-41.601,511.823,858.637,-0.352896,-0.409184,-1.59086,
2026_07_06_21_19_06.732,3.857,30.3,0,0.76,0,0,0,0, ,0,0,0,0,0, ,-41.5,512.4,859.6,-0.3,-0.4,-1.6,25,-41.601,511.846,858.665,-0.349673,-0.411671,-1.59142,
2026_07_06_21_19_06.752,3.857,30.4,0,0.76,0,0,0,0, ,0,0,0,0,0, ,-42.6,510.9,859.1,-0.4,-0.4,-1.7,25,-41.6283,511.834,858.707,-0.349693,-0.41096,-1.59499,
2026_07_06_21_19_06.771,3.857,30.4,0,0.759,0,0,0,0, ,0,0,0,0,0, ,-42.2,511.2,858,-0.4,-0.4,-1.6,25,-41.6754,511.786,858.697,-0.352758,-0.410292,-1.59834,
2026_07_06_21_19_06.791,3.857,30.4,0,0.758,0,0,0,0, ,0,0,0,0,0, ,-42.2,511.9,859.6,-0.3,-0.4,-1.6,25,-41.7073,511.772,858.704,-0.35259,-0.409665,-1.59844,
2026_07_06_21_19_06.811,3.857,30.4,0,0.758,0,0,0,0, ,0,0,0,0,0, ,-39.7,510.7,859.7,-0.3,-0.4,-1.6,25,-41.6612,511.743,858.761,-0.349386,-0.409076,-1.59854,
2026_07_06_21_19_06.831,3.857,30.3,0,0.759,0,0,0,0, ,0,0,0,0,0, ,-42.4,511.9,858,-0.5,-0.4,-1.7,25,-41.6239,511.716,858.767,-0.35247,-0.408523,-1.60167,
2026_07_06_21_19_06.850,3.857,30.3,0,0.76,0,0,0,0, ,0,0,0,0,0, ,-41.1,511.9,858.7,-0.4,-0.4,-1.6,25,-41.6316,511.727,858.741,-0.358413,-0.408003,-1.60462,
2026_07_06_21_19_06.871,3.857,30.3,0,0.761,0,0,0,0, ,0,0,0,0,0, ,-41.5,512.3,858.3,-0.4,-0.4,-1.6,25,-41.6114,511.75,858.727,-0.360947,-0.407516,-1.60433,
2026_07_06_21_19_06.890,3.857,30.4,0,0.76,0,0,0,0, ,0,0,0,0,0, ,-41,510.9,858.5,-0.4,-0.4,-1.6,25,-41.5894,511.741,858.707,-0.363327,-0.407058,-1.60407,
2026_07_06_21_19_06.910,3.857,30.4,0,0.759,0,0,0,0, ,0,0,0,0,0, ,-40.5,513,858.1,-0.4,-0.4,-1.6,25,-41.5382,511.754,858.682,-0.365562,-0.406628,-1.60382,
2026_07_06_21_19_06.930,3.857,30.3,0,0.759,0,0,0,0, ,0,0,0,0,0, ,-42.2,512.8,857.9,-0.3,-0.4,-1.6,25,-41.5268,511.823,858.64,-0.364614,-0.406224,-1.60359,
2026_07_06_21_19_06.949,3.857,30.4,0,0.76,0,0,0,0, ,0,0,0,0,0, ,-41.7,512.8,858.1,-0.3,-0.4,-1.6,25,-41.5526,511.883,858.601,-0.360676,-0.405844,-1.60337,
2026_07_06_21_19_06.969,3.857,30.4,0,0.76,0,0,0,0, ,0,0,0,0,0, ,-41.9,513.6,858.7,-0.3,-0.4,-1.5,25,-41.5676,511.963,858.589,-0.356979,-0.405488,-1.60012,
2026_07_06_21_19_06.989,3.857,30.4,0,0.761,0,0,0,0, ,0,0,0,0,0, ,-40.4,512.3,858,-0.2,-0.4,-1.6,25,-41.5422,512.023,858.574,-0.35046,-0.405154,-1.59706,
2026_07_06_21_19_07.010,3.857,30.3,0,0.76,0,0,0,0, ,0,0,0,0,0, ,-41.6,511.7,858.3,-0.2,-0.5,-1.6,25,-41.5091,512.022,858.549,-0.341291,-0.407887,-1.59724,
2026_07_06_21_19_07.029,3.857,30.4,0,0.759,0,0,0,0, ,0,0,0,0,0, ,-40.4,511.4,858,-0.2,-0.4,-1.5,25,-41.4781,511.993,858.524,-0.332681,-0.410453,-1.59436,
2026_07_06_21_19_07.051,3.857,30.4,0,0.759,0,0,0,0, ,0,0,0,0,0, ,-40.8,511.7,857.5,-0.3,-0.4,-1.6,25,-41.4246,511.966,858.477,-0.327643,-0.409816,-1.59166,
2026_07_06_21_19_07.069,3.857,30.4,0,0.76,0,0,0,0, ,0,0,0,0,0, ,-42.2,512.8,860.1,-0.3,-0.3,-1.6,25,-41.4292,511.983,858.497,-0.325958,-0.406171,-1.59217,
2026_07_06_21_19_07.088,3.857,30.3,0,0.759,0,0,0,0, ,0,0,0,0,0, ,-41.8,511.7,857.1,-0.2,-0.4,-1.6,25,-41.464,512,858.503,-0.32133,-0.402748,-1.59265,
2026_07_06_21_19_07.108,3.857,30.4,0,0.76,0,0,0,0, ,0,0,0,0,0, ,-43.5,511.3,859.8,-0.3,-0.4,-1.6,25,-41.5363,511.969,858.5,-0.316983,-0.402581,-1.59309,
2026_07_06_21_19_07.128,3.857,30.4,0,0.76,0,0,0,0, ,0,0,0,0,0, ,-41.2,510.8,859.1,-0.4,-0.4,-1.7,25,-41.5858,511.913,858.558,-0.318995,-0.402423,-1.59656,
2026_07_06_21_19_07.148,3.857,30.3,0,0.759,0,0,0,0, ,0,0,0,0,0, ,-41.6,511.3,858.1,-0.3,-0.4,-1.6,25,-41.5745,511.861,858.56,-0.320884,-0.402276,-1.59982,
2026_07_06_21_19_07.167,3.857,30.3,0,0.758,0,0,0,0, ,0,0,0,0,0, ,-42.4,510.3,858.5,-0.4,-0.3,-1.6,25,-41.6005,511.796,858.544,-0.322659,-0.39909,-1.59983,
2026_07_06_21_19_07.187,3.857,30.3,0,0.759,0,0,0,0, ,0,0,0,0,0, ,-40.7,512.4,859.2,-0.3,-0.4,-1.6,25,-41.5974,511.769,858.563,-0.324325,-0.396099,-1.59984,
2026_07_06_21_19_07.207,3.857,30.5,0,0.76,0,0,0,0, ,0,0,0,0,0, ,-42.1,510.9,858.2,-0.4,-0.4,-1.6,25,-41.5853,511.762,858.571,-0.325889,-0.396336,-1.59985,
2026_07_06_21_19_07.227,3.857,30.4,0,0.76,0,0,0,0, ,0,0,0,0,0, ,-42.6,511.1,858.3,-0.4,-0.4,-1.6,25,-41.6319,511.715,858.552,-0.330405,-0.39656,-1.59986,
2026_07_06_21_19_07.247,3.857,30.4,0,0.758,0,0,0,0, ,0,0,0,0,0, ,-41.2,513.3,859.8,-0.4,-0.4,-1.6,25,-41.6483,511.745,858.582,-0.334646,-0.396769,-1.59987,
2026_07_06_21_19_07.266,3.857,30.3,0,0.76,0,0,0,0, ,0,0,0,0,0, ,-41.9,511.3,857.5,-0.4,-0.4,-1.6,25,-41.6423,511.779,858.586,-0.338629,-0.396966,-1.59988,
2026_07_06_21_19_07.286,3.857,30.4,0,0.76,0,0,0,0, ,0,0,0,0,0, ,-41.9,512.3,858.8,-0.4,-0.4,-1.6,25,-41.658,511.78,858.56,-0.342369,-0.397151,-1.59988,
2026_07_06_21_19_07.306,3.857,30.4,0,0.76,0,0,0,0, ,0,0,0,0,0, ,-42.6,511.9,859.9,-0.3,-0.4,-1.6,25,-41.6941,511.799,858.608,-0.342834,-0.397325,-1.59989,
2026_07_06_21_19_07.326,3.857,30.4,0,0.759,0,0,0,0, ,0,0,0,0,0, ,-42.1,512.6,859,-0.2,-0.4,-1.6,25,-41.734,511.827,858.659,-0.337177,-0.397488,-1.5999,
2026_07_06_21_19_07.346,3.857,30.4,0,0.759,0,0,0,0, ,0,0,0,0,0, ,-40.5,511.2,860.3,-0.2,-0.4,-1.7,25,-41.7076,511.831,858.72,-0.328817,-0.397641,-1.60295,
2026_07_06_21_19_07.366,3.857,30.4,0,0.76,0,0,0,0, ,0,0,0,0,0, ,-42.4,511.8,857.9,-0.3,-0.5,-1.5,25,-41.6919,511.811,858.743,-0.324014,-0.400831,-1.60277,
2026_07_06_21_19_07.385,3.857,30.4,0,0.759,0,0,0,0, ,0,0,0,0,0, ,-42.3,512.9,858.2,-0.2,-0.4,-1.6,25,-41.732,511.844,858.701,-0.319504,-0.403828,-1.59955,
2026_07_06_21_19_07.405,3.857,30.3,0,0.76,0,0,0,0, ,0,0,0,0,0, ,-41.7,511.7,859.9,-0.2,-0.4,-1.6,25,-41.7483,511.872,858.722,-0.312222,-0.403594,-1.59958,
2026_07_06_21_19_07.424,3.857,30.4,0,0.759,0,0,0,0, ,0,0,0,0,0, ,-41,511.4,859.1,-0.2,-0.4,-1.6,25,-41.7241,511.852,858.769,-0.305383,-0.403375,-1.59961,
2026_07_06_21_19_07.444,3.857,30.4,0,0.761,0,0,0,0, ,0,0,0,0,0, ,-41.8,513.1,860.5,-0.3,-0.4,-1.6,25,-41.7043,511.876,858.832,-0.302008,-0.40317,-1.59963,
2026_07_06_21_19_07.464,3.857,30.4,0,0.759,0,0,0,0, ,0,0,0,0,0, ,-41.9,511.8,859.6,-0.4,-0.4,-1.5,25,-41.7132,511.911,858.906,-0.304933,-0.402977,-1.59661,
2026_07_06_21_19_07.484,3.857,30.3,0,0.759,0,0,0,0, ,0,0,0,0,0, ,-41.8,510.9,858.6,-0.3,-0.4,-1.6,25,-41.7215,511.877,858.918,-0.307679,-0.402795,-1.59377,
2026_07_06_21_19_07.505,3.857,30.4,0,0.758,0,0,0,0, ,0,0,0,0,0, ,-41.7,511.1,858.7,-0.3,-0.4,-1.6,25,-41.7233,511.824,858.902,-0.307211,-0.402625,-1.59415,
2026_07_06_21_19_07.524,3.857,30.5,0,0.759,0,0,0,0, ,0,0,0,0,0, ,-40.8,511.4,858.1,-0.3,-0.5,-1.5,25,-41.6944,511.789,858.871,-0.306772,-0.405512,-1.59146,
2026_07_06_21_19_07.544,3.857,30.4,0,0.76,0,0,0,0, ,0,0,0,0,0, ,-42.2,511.1,859,-0.3,-0.4,-1.6,25,-41.6826,511.756,858.852,-0.306359,-0.408223,-1.58893,
2026_07_06_21_19_07.563,3.857,30.3,0,0.759,0,0,0,0, ,0,0,0,0,0, ,-41,511.5,857.9,-0.3,-0.5,-1.6,25,-41.6775,511.728,858.827,-0.305972,-0.410769,-1.5896,
2026_07_06_21_19_07.583,3.857,30.4,0,0.759,0,0,0,0, ,0,0,0,0,0, ,-41.9,512.3,859,-0.2,-0.4,-1.5,25,-41.6637,511.739,858.804,-0.302561,-0.413159,-1.58719,
2026_07_06_21_19_07.603,3.857,30.4,0,0.76,0,0,0,0, ,0,0,0,0,0, ,-41.5,510.9,858.5,-0.3,-0.4,-1.6,25,-41.6659,511.73,858.801,-0.299358,-0.412357,-1.58492,
2026_07_06_21_19_07.623,3.857,30.5,0,0.76,0,0,0,0, ,0,0,0,0,0, ,-42.3,512.2,857.6,-0.2,-0.3,-1.7,25,-41.6802,511.719,858.755,-0.29635,-0.408557,-1.58889,
2026_07_06_21_19_07.642,3.857,30.4,0,0.759,0,0,0,0, ,0,0,0,0,0, ,-41.3,511.4,860.4,-0.4,-0.4,-1.6,25,-41.6875,511.724,858.77,-0.296573,-0.404989,-1.59261,
2026_07_06_21_19_07.662,3.857,30.4,0,0.76,0,0,0,0, ,0,0,0,0,0, ,-41.2,511.3,859.1,-0.4,-0.4,-1.6,25,-41.6608,511.701,858.83,-0.302875,-0.404685,-1.59306,
2026_07_06_21_19_07.682,3.857,30.3,0,0.759,0,0,0,0, ,0,0,0,0,0, ,-41.2,510.7,860.7,-0.3,-0.5,-1.6,25,-41.6327,511.659,858.895,-0.305747,-0.407446,-1.59349,
2026_07_06_21_19_07.704,3.857,30.4,0,0.758,0,0,0,0, ,0,0,0,0,0, ,-41.6,510.6,859.2,-0.4,-0.4,-1.5,25,-41.6185,511.597,858.959,-0.308444,-0.41004,-1.59084,
2026_07_06_21_19_07.722,3.857,30.4,0,0.759,0,0,0,0, ,0,0,0,0,0, ,-42.4,512.3,859.3,-0.5,-0.4,-1.6,25,-41.6418,511.588,858.977,-0.31707,-0.409428,-1.58835,
2026_07_06_21_19_07.742,3.857,30.4,0,0.759,0,0,0,0, ,0,0,0,0,0, ,-41.9,511.8,858.1,-0.3,-0.4,-1.6,25,-41.6728,511.616,858.96,-0.322123,-0.408853,-1.58906,
2026_07_06_21_19_07.761,3.857,30.4,0,0.759,0,0,0,0, ,0,0,0,0,0, ,-42.6,512.3,860.1,-0.3,-0.4,-1.6,25,-41.7079,511.643,858.969,-0.320775,-0.408314,-1.58973,
2026_07_06_21_19_07.781,3.857,30.4,0,0.76,0,0,0,0, ,0,0,0,0,0, ,-41.2,511.8,858.1,-0.4,-0.4,-1.6,25,-41.7196,511.668,858.977,-0.322556,-0.407807,-1.59035,
2026_07_06_21_19_07.802,3.857,30.4,0,0.759,0,0,0,0, ,0,0,0,0,0, ,-41.1,511.7,859.1,-0.4,-0.3,-1.6,25,-41.6849,511.673,858.954,-0.327275,-0.404285,-1.59094,
2026_07_06_21_19_07.821,3.857,30.4,0,0.759,0,0,0,0, ,0,0,0,0,0, ,-41.8,511.5,859,-0.3,-0.4,-1.6,25,-41.6706,511.668,858.96,-0.32866,-0.400977,-1.59149,
2026_07_06_21_19_07.841,3.857,30.4,0,0.76,0,0,0,0, ,0,0,0,0,0, ,-41.9,511.3,859.1,-0.4,-0.4,-1.6,25,-41.6815,511.652,858.965,-0.32996,-0.400917,-1.59201,
2026_07_06_21_19_07.867,3.857,30.4,0,0.758,0,0,0,0, ,0,0,0,0,0, ,-41.5,512.6,857.7,-0.4,-0.4,-1.6,25,-41.6827,511.67,858.931,-0.334228,-0.400861,-1.5925,
2026_07_06_21_19_07.881,3.857,30.4,0,0.76,0,0,0,0, ,0,0,0,0,0, ,-41.2,513.1,859.2,-0.3,-0.4,-1.6,25,-41.6624,511.742,858.901,-0.33519,-0.400809,-1.59295,
2026_07_06_21_19_07.900,3.857,30.4,0,0.759,0,0,0,0, ,0,0,0,0,0, ,-43.4,512,858,-0.3,-0.4,-1.6,25,-41.7012,511.791,858.883,-0.333045,-0.400759,-1.59338,
2026_07_06_21_19_07.919,3.857,30.4,0,0.759,0,0,0,0, ,0,0,0,0,0, ,-41.2,511.9,857.6,-0.3,-0.4,-1.6,25,-41.7377,511.801,858.817,-0.331031,-0.400713,-1.59379,
2026_07_06_21_19_07.940,3.857,30.4,0,0.759,0,0,0,0, ,0,0,0,0,0, ,-40.5,511.4,859.9,-0.2,-0.4,-1.6,25,-41.6836,511.792,858.813,-0.326094,-0.40067,-1.59417,
2026_07_06_21_19_07.959,3.857,30.4,0,0.76,0,0,0,0, ,0,0,0,0,0, ,-41.6,512.9,858.2,-0.4,-0.4,-1.6,25,-41.645,511.813,858.827,-0.324504,-0.400629,-1.59452,
2026_07_06_21_19_07.979,3.857,30.4,0,0.759,0,0,0,0, ,0,0,0,0,0, ,-41.5,511.4,858.1,-0.4,-0.4,-1.6,25,-41.6392,511.834,858.786,-0.329104,-0.400591,-1.59485,
2026_07_06_21_19_08.000,3.857,30.4,0,0.761,0,0,0,0, ,0,0,0,0,0, ,-41.3,511.4,859,-0.2,-0.4,-1.6,25,-41.6247,511.808,858.772,-0.327331,-0.400555,-1.59517,
2026_07_06_21_19_08.018,3.857,30.4,0,0.76,0,0,0,0, ,0,0,0,0,0, ,-42.1,511.2,858.5,-0.3,-0.4,-1.6,25,-41.6292,511.777,858.77,-0.322618,-0.400521,-1.59546,
2026_07_06_21_19_08.039,3.857,30.4,0,0.759,0,0,0,0, ,0,0,0,0,0, ,-41.6,511.3,858.5,-0.4,-0.4,-1.7,25,-41.6427,511.744,858.754,-0.324287,-0.400489,-1.59879,
2026_07_06_21_19_08.058,3.857,30.4,0,0.76,0,0,0,0, ,0,0,0,0,0, ,-42.3,510.8,859.8,-0.4,-0.5,-1.6,25,-41.6614,511.702,858.778,-0.328901,-0.403506,-1.60191,
2026_07_06_21_19_08.078,3.857,30.4,0,0.759,0,0,0,0, ,0,0,0,0,0, ,-40.8,512.6,859.1,-0.4,-0.4,-1.5,25,-41.6546,511.702,858.819,-0.333233,-0.406339,-1.59874,
2026_07_06_21_19_08.097,3.857,30.4,0,0.759,0,0,0,0, ,0,0,0,0,0, ,-41.2,511.8,858.6,-0.4,-0.4,-1.5,25,-41.6147,511.732,858.821,-0.337302,-0.405953,-1.59273,
2026_07_06_21_19_08.118,3.857,30.4,0,0.758,0,0,0,0, ,0,0,0,0,0, ,-41.7,512.6,859.3,-0.4,-0.4,-1.5,25,-41.6047,511.761,858.829,-0.341122,-0.40559,-1.58708,
2026_07_06_21_19_08.138,3.857,30.5,0,0.758,0,0,0,0, ,0,0,0,0,0, ,-42.6,512,857.6,-0.4,-0.4,-1.6,25,-41.6379,511.794,858.806,-0.34471,-0.40525,-1.58482,
2026_07_06_21_19_08.157,3.857,30.4,0,0.758,0,0,0,0, ,0,0,0,0,0, ,-41.6,511.4,859.7,-0.3,-0.3,-1.6,25,-41.6661,511.788,858.796,-0.345033,-0.401883,-1.58574,
2026_07_06_21_19_08.178,3.857,30.4,0,0.76,0,0,0,0, ,0,0,0,0,0, ,-40,511.7,857.7,-0.3,-0.4,-1.6,25,-41.6133,511.774,858.79,-0.342289,-0.398721,-1.58661,
2026_07_06_21_19_08.200,3.857,30.4,0,0.76,0,0,0,0, ,0,0,0,0,0, ,-40.7,510.6,858.8,-0.3,-0.4,-1.5,25,-41.5363,511.736,858.757,-0.339712,-0.398799,-1.58438,
2026_07_06_21_19_08.217,3.857,30.4,0,0.759,0,0,0,0, ,0,0,0,0,0, ,-42.4,512.4,858.1,-0.4,-0.4,-1.5,25,-41.5372,511.721,858.739,-0.340339,-0.398872,-1.57924,
2026_07_06_21_19_08.237,3.857,30.4,0,0.759,0,0,0,0, ,0,0,0,0,0, ,-41.8,511.7,858.1,-0.4,-0.4,-1.6,25,-41.5715,511.741,858.7,-0.343974,-0.398941,-1.57746,
2026_07_06_21_19_08.256,3.857,30.4,0,0.76,0,0,0,0, ,0,0,0,0,0, ,-41.5,511.1,858.8,-0.4,-0.4,-1.6,25,-41.5762,511.72,858.685,-0.347388,-0.399006,-1.57883,
2026_07_06_21_19_08.276,3.857,30.3,0,0.759,0,0,0,0, ,0,0,0,0,0, ,-40.4,511.5,858.1,-0.3,-0.4,-1.6,25,-41.5381,511.695,858.67,-0.347547,-0.399066,-1.58012,
2026_07_06_21_19_08.296,3.857,30.4,0,0.761,0,0,0,0, ,0,0,0,0,0, ,-42.4,510.8,858.5,-0.4,-0.5,-1.6,25,-41.5297,511.662,858.648,-0.347697,-0.40217,-1.58133,
2026_07_06_21_19_08.316,3.857,30.4,0,0.76,0,0,0,0, ,0,0,0,0,0, ,-40.2,511.3,858.8,-0.4,-0.4,-1.6,25,-41.5157,511.624,858.648,-0.350884,-0.405085,-1.58247,
2026_07_06_21_19_08.335,3.857,30.3,0,0.759,0,0,0,0, ,0,0,0,0,0, ,-42.7,512.6,858.1,-0.3,-0.4,-1.6,25,-41.5117,511.644,858.636,-0.35083,-0.404775,-1.58354,
2026_07_06_21_19_08.359,3.857,30.3,0,0.759,0,0,0,0, ,0,0,0,0,0, ,-42.1,512.3,859.6,-0.4,-0.4,-1.6,25,-41.5658,511.693,858.649,-0.35078,-0.404484,-1.58454,
2026_07_06_21_19_08.375,3.857,30.4,0,0.76,0,0,0,0, ,0,0,0,0,0, ,-42.2,512.3,857.9,-0.4,-0.4,-1.6,25,-41.6014,511.73,858.655,-0.353779,-0.404211,-1.58548,
2026_07_06_21_19_08.395,3.857,30.4,0,0.76,0,0,0,0, ,0,0,0,0,0, ,-42.6,510.9,858.8,-0.3,-0.4,-1.6,25,-41.6501,511.722,858.636,-0.353549,-0.403954,-1.58637,
2026_07_06_21_19_08.414,3.857,30.4,0,0.76,0,0,0,0, ,0,0,0,0,0, ,-42.6,512.4,858.8,-0.2,-0.4,-1.5,25,-41.708,511.718,858.646,-0.347239,-0.403713,-1.58415,
2026_07_06_21_19_08.435,3.857,30.3,0,0.759,0,0,0,0, ,0,0,0,0,0, ,-41.3,512,858.5,-0.2,-0.4,-1.5,25,-41.7227,511.747,858.647,-0.338266,-0.403487,-1.57902,
2026_07_06_21_19_08.455,3.857,30.4,0,0.759,0,0,0,0, ,0,0,0,0,0, ,-42.4,511.4,859.1,-0.3,-0.4,-1.6,25,-41.7305,511.744,858.656,-0.332888,-0.403274,-1.57725,
2026_07_06_21_19_08.475,3.857,30.3,0,0.758,0,0,0,0, ,0,0,0,0,0, ,-41.1,511.9,859,-0.3,-0.4,-1.6,25,-41.7317,511.739,858.68,-0.330884,-0.403075,-1.57864,
2026_07_06_21_19_08.494,3.857,30.4,0,0.759,0,0,0,0, ,0,0,0,0,0, ,-41.8,511.5,857.1,-0.3,-0.4,-1.6,25,-41.7145,511.736,858.642,-0.329002,-0.402887,-1.57994,
2026_07_06_21_19_08.520,3.857,30.5,0,0.758,0,0,0,0, ,0,0,0,0,0, ,-40.1,511.2,857.9,-0.3,-0.4,-1.6,25,-41.6679,511.713,858.572,-0.327234,-0.402711,-1.58116,
2026_07_06_21_19_08.534,3.857,30.3,0,0.76,0,0,0,0, ,0,0,0,0,0, ,-42.2,511.3,858,-0.4,-0.5,-1.6,25,-41.6363,511.685,858.534,-0.328622,-0.405593,-1.58231,
2026_07_06_21_19_08.553,3.857,30.3,0,0.759,0,0,0,0, ,0,0,0,0,0, ,-41.8,510.7,859,-0.3,-0.4,-1.6,25,-41.6585,511.643,858.532,-0.329924,-0.408299,-1.58339,
2026_07_06_21_19_08.573,3.857,30.4,0,0.76,0,0,0,0, ,0,0,0,0,0, ,-41.2,511.4,858.6,-0.4,-0.4,-1.6,25,-41.6488,511.607,858.548,-0.331148,-0.407793,-1.5844,
2026_07_06_21_19_08.593,3.857,30.4,0,0.759,0,0,0,0, ,0,0,0,0,0, ,-41.9,510.2,858.5,-0.4,-0.4,-1.6,25,-41.6428,511.558,858.548,-0.335343,-0.407319,-1.58535,
2026_07_06_21_19_08.613,3.857,30.4,0,0.76,0,0,0,0, ,0,0,0,0,0, ,-40.7,513.4,859.6,-0.4,-0.4,-1.7,25,-41.6219,511.572,858.579,-0.339283,-0.406873,-1.58929,
2026_07_06_21_19_08.632,3.857,30.3,0,0.76,0,0,0,0, ,0,0,0,0,0, ,-41.8,511.8,859.2,-0.3,-0.5,-1.6,25,-41.5993,511.635,858.629,-0.339936,-0.409501,-1.59299,
2026_07_06_21_19_08.652,3.857,30.3,0,0.76,0,0,0,0, ,0,0,0,0,0, ,-41,512.5,858,-0.4,-0.4,-1.6,25,-41.5871,511.666,858.627,-0.34055,-0.411969,-1.59342,
2026_07_06_21_19_08.672,3.857,30.3,0,0.759,0,0,0,0, ,0,0,0,0,0, ,-43.4,513,857.6,-0.3,-0.4,-1.7,25,-41.6245,511.732,858.577,-0.341126,-0.411239,-1.59687,
2026_07_06_21_19_08.692,3.857,30.4,0,0.759,0,0,0,0, ,0,0,0,0,0, ,-42.4,512.8,859.4,-0.3,-0.4,-1.6,25,-41.7022,511.804,858.572,-0.338619,-0.410554,-1.6001,
2026_07_06_21_19_08.711,3.857,30.3,0,0.759,0,0,0,0, ,0,0,0,0,0, ,-41.6,511.2,859.3,-0.2,-0.4,-1.6,25,-41.7203,511.815,858.62,-0.333219,-0.409911,-1.6001,
2026_07_06_21_19_08.731,3.857,30.3,0,0.759,0,0,0,0, ,0,0,0,0,0, ,-41.5,511.4,860.2,-0.2,-0.4,-1.6,25,-41.71,511.784,858.688,-0.325101,-0.409307,-1.60009,
2026_07_06_21_19_08.751,3.857,30.3,0,0.758,0,0,0,0, ,0,0,0,0,0, ,-41.2,512.4,858.6,-0.3,-0.5,-1.5,25,-41.688,511.791,858.732,-0.320525,-0.411787,-1.59704,
2026_07_06_21_19_08.771,3.857,30.4,0,0.76,0,0,0,0, ,0,0,0,0,0, ,-42.8,512,858,-0.3,-0.4,-1.6,25,-41.707,511.816,858.705,-0.319274,-0.414116,-1.59417,
2026_07_06_21_19_08.791,3.857,30.3,0,0.76,0,0,0,0, ,0,0,0,0,0, ,-41.5,510.9,859.2,-0.2,-0.5,-1.6,25,-41.734,511.794,858.699,-0.315053,-0.416302,-1.59453,
2026_07_06_21_19_08.811,3.857,30.4,0,0.759,0,0,0,0, ,0,0,0,0,0, ,-40.8,510.9,858.2,-0.3,-0.4,-1.6,25,-41.6984,511.739,858.699,-0.311088,-0.418356,-1.59486,
2026_07_06_21_19_08.831,3.857,30.3,0,0.759,0,0,0,0, ,0,0,0,0,0, ,-40.8,511.7,858.1,-0.4,-0.4,-1.6,25,-41.6437,511.713,858.666,-0.31346,-0.417237,-1.59517,
2026_07_06_21_19_08.851,3.857,30.4,0,0.759,0,0,0,0, ,0,0,0,0,0, ,-41.5,511.9,858,-0.3,-0.4,-1.6,25,-41.6136,511.718,858.628,-0.315686,-0.416187,-1.59547,
2026_07_06_21_19_08.871,3.857,30.3,0,0.759,0,0,0,0, ,0,0,0,0,0, ,-42.6,512.3,857,-0.4,-0.4,-1.7,25,-41.6402,511.741,858.559,-0.317777,-0.4152,-1.59879,
2026_07_06_21_19_08.891,3.857,30.3,0,0.76,0,0,0,0, ,0,0,0,0,0, ,-41.7,512.6,859.2,-0.3,-0.4,-1.5,25,-41.6713,511.784,858.531,-0.319741,-0.414274,-1.59887,
2026_07_06_21_19_08.910,3.857,30.3,0,0.759,0,0,0,0, ,0,0,0,0,0, ,-41.7,512.9,857.4,-0.2,-0.4,-1.6,25,-41.673,511.843,858.517,-0.315491,-0.413404,-1.59589,
2026_07_06_21_19_08.929,3.857,30.4,0,0.76,0,0,0,0, ,0,0,0,0,0, ,-41.6,510.3,858.7,-0.2,-0.5,-1.5,25,-41.6716,511.828,858.489,-0.308453,-0.415634,-1.59309,
2026_07_06_21_19_08.949,3.857,30.3,0,0.759,0,0,0,0, ,0,0,0,0,0, ,-41.7,510.6,858.3,-0.4,-0.4,-1.6,25,-41.6703,511.744,858.49,-0.307938,-0.417728,-1.59047,
2026_07_06_21_19_08.970,3.857,30.4,0,0.76,0,0,0,0, ,0,0,0,0,0, ,-40.7,511.1,857.7,-0.3,-0.4,-1.7,25,-41.6416,511.69,858.46,-0.310501,-0.416648,-1.59409,
2026_07_06_21_19_08.989,3.857,30.3,0,0.758,0,0,0,0, ,0,0,0,0,0, ,-41.7,511.7,858.3,-0.3,-0.4,-1.6,25,-41.6147,511.672,858.432,-0.309861,-0.415634,-1.5975,
2026_07_06_21_19_09.009,3.857,30.3,0,0.76,0,0,0,0, ,0,0,0,0,0, ,-41.8,511.5,858.7,-0.3,-0.3,-1.6,25,-41.623,511.668,858.436,-0.30926,-0.411634,-1.59765,
2026_07_06_21_19_09.028,3.857,30.3,0,0.759,0,0,0,0, ,0,0,0,0,0, ,-41,510.9,858.8,-0.4,-0.4,-1.6,25,-41.6094,511.639,858.455,-0.311743,-0.407878,-1.5978,
2026_07_06_21_19_09.048,3.857,30.3,0,0.76,0,0,0,0, ,0,0,0,0,0, ,-42.1,512.5,858.3,-0.5,-0.4,-1.5,25,-41.6058,511.643,858.461,-0.320168,-0.407398,-1.59488,
2026_07_06_21_19_09.069,3.857,30.3,0,0.76,0,0,0,0, ,0,0,0,0,0, ,-42.3,510.6,857.6,-0.4,-0.4,-1.7,25,-41.642,511.637,858.43,-0.32808,-0.406947,-1.59519,
2026_07_06_21_19_09.088,3.857,30.3,0,0.759,0,0,0,0, ,0,0,0,0,0, ,-41.6,511.5,859.4,-0.4,-0.5,-1.6,25,-41.6607,511.602,858.434,-0.332462,-0.409571,-1.59853,
2026_07_06_21_19_09.108,3.857,30.3,0,0.76,0,0,0,0, ,0,0,0,0,0, ,-41.8,512.6,859.7,-0.4,-0.3,-1.6,25,-41.6631,511.629,858.502,-0.336578,-0.408988,-1.59862,
2026_07_06_21_19_09.128,3.857,30.3,0,0.759,0,0,0,0, ,0,0,0,0,0, ,-42.3,512.4,858.5,-0.3,-0.4,-1.6,25,-41.6867,511.682,858.538,-0.337396,-0.405393,-1.59871,
2026_07_06_21_19_09.147,3.857,30.3,0,0.76,0,0,0,0, ,0,0,0,0,0, ,-41.3,511.4,857.9,-0.3,-0.5,-1.6,25,-41.6936,511.695,858.518,-0.335117,-0.408111,-1.59879,
2026_07_06_21_19_09.167,3.857,30.3,0,0.758,0,0,0,0, ,0,0,0,0,0, ,-42.3,512.8,860.2,-0.4,-0.4,-1.5,25,-41.7001,511.72,858.55,-0.336024,-0.410664,-1.59581,
2026_07_06_21_19_09.187,3.857,30.4,0,0.76,0,0,0,0, ,0,0,0,0,0, ,-41.2,512.4,859.3,-0.3,-0.4,-1.7,25,-41.7031,511.774,858.623,-0.336876,-0.410014,-1.59607,
2026_07_06_21_19_09.207,3.857,30.4,0,0.758,0,0,0,0, ,0,0,0,0,0, ,-41.6,512.4,858.6,-0.3,-0.4,-1.6,25,-41.6847,511.812,858.643,-0.334629,-0.409404,-1.59936,
2026_07_06_21_19_09.227,3.857,30.3,0,0.76,0,0,0,0, ,0,0,0,0,0, ,-42.2,512.4,858,-0.2,-0.4,-1.6,25,-41.6978,511.848,858.622,-0.329471,-0.408831,-1.59939,
2026_07_06_21_19_09.247,3.857,30.3,0,0.76,0,0,0,0, ,0,0,0,0,0, ,-41.2,512.2,859,-0.2,-0.3,-1.6,25,-41.6979,511.875,858.615,-0.321582,-0.405246,-1.59943,
2026_07_06_21_19_09.266,3.857,30.3,0,0.76,0,0,0,0, ,0,0,0,0,0, ,-41.9,510.6,857.9,-0.2,-0.4,-1.6,25,-41.6889,511.846,858.605,-0.314173,-0.401879,-1.59947,
2026_07_06_21_19_09.286,3.857,30.4,0,0.759,0,0,0,0, ,0,0,0,0,0, ,-41,512.5,858.8,-0.3,-0.4,-1.6,25,-41.6744,511.828,858.589,-0.310262,-0.401765,-1.5995,
2026_07_06_21_19_09.306,3.857,30.3,0,0.759,0,0,0,0, ,0,0,0,0,0, ,-42.1,510.6,859,-0.3,-0.4,-1.5,25,-41.6668,511.811,858.608,-0.309637,-0.401657,-1.59648,
2026_07_06_21_19_09.326,3.857,30.4,0,0.759,0,0,0,0, ,0,0,0,0,0, ,-41.1,509.5,858.8,-0.4,-0.4,-1.5,25,-41.6627,511.704,858.626,-0.312097,-0.401556,-1.5906,
2026_07_06_21_19_09.345,3.857,30.3,0,0.757,0,0,0,0, ,0,0,0,0,0, ,-41.7,511.3,858.3,-0.4,-0.4,-1.6,25,-41.6467,511.624,858.621,-0.317453,-0.401461,-1.58813,
2026_07_06_21_19_09.365,3.857,30.4,0,0.76,0,0,0,0, ,0,0,0,0,0, ,-41.8,513.1,859,-0.3,-0.4,-1.6,25,-41.653,511.659,858.623,-0.319437,-0.401372,-1.58885,
2026_07_06_21_19_09.385,3.857,30.4,0,0.759,0,0,0,0, ,0,0,0,0,0, ,-41.6,512,859.2,-0.5,-0.4,-1.6,25,-41.6559,511.714,858.652,-0.324346,-0.401289,-1.58953,
2026_07_06_21_19_09.405,3.857,30.4,0,0.758,0,0,0,0, ,0,0,0,0,0, ,-41.1,511.4,859.7,-0.5,-0.5,-1.6,25,-41.6372,511.713,858.701,-0.33505,-0.404257,-1.59017,
2026_07_06_21_19_09.424,3.857,30.3,0,0.758,0,0,0,0, ,0,0,0,0,0, ,-41.7,512.8,858.3,-0.4,-0.5,-1.6,25,-41.6228,511.736,858.719,-0.342055,-0.410091,-1.59077,
2026_07_06_21_19_09.444,3.857,30.4,0,0.76,0,0,0,0, ,0,0,0,0,0, ,-41.3,512,857.9,-0.3,-0.4,-1.5,25,-41.6153,511.777,858.681,-0.342539,-0.412523,-1.58828,
2026_07_06_21_19_09.464,3.857,30.4,0,0.76,0,0,0,0, ,0,0,0,0,0, ,-41.2,511.7,858.6,-0.4,-0.4,-1.6,25,-41.593,511.781,858.655,-0.342993,-0.41176,-1.58595,
2026_07_06_21_19_09.483,3.857,30.3,0,0.761,0,0,0,0, ,0,0,0,0,0, ,-41.2,511.4,859.2,-0.3,-0.4,-1.6,25,-41.5691,511.767,858.67,-0.34342,-0.411044,-1.58681,
2026_07_06_21_19_09.503,3.857,30.4,0,0.759,0,0,0,0, ,0,0,0,0,0, ,-41.5,513.5,858,-0.3,-0.4,-1.6,25,-41.5557,511.809,858.666,-0.340774,-0.410371,-1.58761,
2026_07_06_21_19_09.523,3.857,30.3,0,0.758,0,0,0,0, ,0,0,0,0,0, ,-41.5,512.5,859.9,-0.3,-0.4,-1.6,25,-41.5523,511.881,858.683,-0.33829,-0.409739,-1.58837,
2026_07_06_21_19_09.544,3.857,30.3,0,0.759,0,0,0,0, ,0,0,0,0,0, ,-40.2,512.6,859,-0.4,-0.4,-1.6,25,-41.5095,511.922,858.73,-0.339003,-0.409145,-1.58908,
2026_07_06_21_19_09.563,3.857,30.3,0,0.758,0,0,0,0, ,0,0,0,0,0, ,-42.8,512.5,858.7,-0.4,-0.4,-1.6,25,-41.5089,511.96,858.737,-0.34272,-0.408588,-1.58974,
2026_07_06_21_19_09.583,3.857,30.4,0,0.76,0,0,0,0, ,0,0,0,0,0, ,-42.7,512.6,858.7,-0.3,-0.5,-1.5,25,-41.5846,511.996,858.735,-0.343164,-0.411111,-1.58732,
2026_07_06_21_19_09.603,3.857,30.4,0,0.76,0,0,0,0, ,0,0,0,0,0, ,-40.2,511.1,859.6,-0.4,-0.4,-1.6,25,-41.5764,511.987,858.76,-0.343581,-0.413481,-1.58504,
2026_07_06_21_19_09.623,3.857,30.3,0,0.759,0,0,0,0, ,0,0,0,0,0, ,-40.6,511.2,857.6,-0.4,-0.4,-1.6,25,-41.5047,511.936,858.75,-0.347019,-0.41266,-1.58596,
2026_07_06_21_19_09.643,3.857,30.4,0,0.759,0,0,0,0, ,0,0,0,0,0, ,-41.2,511.7,859.2,-0.3,-0.4,-1.7,25,-41.4678,511.907,858.729,-0.3472,-0.411888,-1.58986,
2026_07_06_21_19_09.662,3.857,30.3,0,0.761,0,0,0,0, ,0,0,0,0,0, ,-41.2,511.9,859.1,-0.3,-0.4,-1.7,25,-41.4515,511.9,858.755,-0.344324,-0.411164,-1.59657,
2026_07_06_21_19_09.682,3.857,30.3,0,0.76,0,0,0,0, ,0,0,0,0,0, ,-43.2,511.1,859.3,-0.3,-0.4,-1.5,25,-41.4971,511.876,858.782,-0.341623,-0.410484,-1.59678,
2026_07_06_21_19_09.702,3.857,30.3,0,0.76,0,0,0,0, ,0,0,0,0,0, ,-42.2,510.7,857.6,-0.2,-0.4,-1.6,25,-41.5704,511.816,858.762,-0.33604,-0.409845,-1.59393,
2026_07_06_21_19_09.721,3.857,30.3,0,0.759,0,0,0,0, ,0,0,0,0,0, ,-40.7,511.9,859.7,-0.2,-0.4,-1.7,25,-41.5631,511.785,858.755,-0.32775,-0.409245,-1.59735,
2026_07_06_21_19_09.741,3.857,30.3,0,0.759,0,0,0,0, ,0,0,0,0,0, ,-42.2,511.3,858.7,-0.3,-0.4,-1.6,25,-41.5562,511.774,858.782,-0.323012,-0.408681,-1.60055,
2026_07_06_21_19_09.761,3.857,30.3,0,0.759,0,0,0,0, ,0,0,0,0,0, ,-41.6,510.7,858.5,-0.3,-0.4,-1.6,25,-41.5771,511.727,858.771,-0.32161,-0.408152,-1.60052,
2026_07_06_21_19_09.780,3.857,30.4,0,0.758,0,0,0,0, ,0,0,0,0,0, ,-42.1,511.2,858.5,-0.4,-0.4,-1.7,25,-41.5938,511.679,858.754,-0.32334,-0.407656,-1.60354,
2026_07_06_21_19_09.801,3.857,30.3,0,0.76,0,0,0,0, ,0,0,0,0,0, ,-42.9,510.9,858.7,-0.3,-0.3,-1.7,25,-41.649,511.641,858.745,-0.324964,-0.404142,-1.60941,
2026_07_06_21_19_09.820,3.857,30.3,0,0.761,0,0,0,0, ,0,0,0,0,0, ,-42.2,510.9,859.4,-0.4,-0.5,-1.6,25,-41.7039,511.596,858.764,-0.32649,-0.40389,-1.61189,
2026_07_06_21_19_09.840,3.857,30.2,0,0.759,0,0,0,0, ,0,0,0,0,0, ,-41.3,511.4,858.7,-0.4,-0.4,-1.6,25,-41.7067,511.569,858.781,-0.330969,-0.4067,-1.61116,
2026_07_06_21_19_09.860,3.857,30.3,0,0.759,0,0,0,0, ,0,0,0,0,0, ,-42.1,512.5,858,-0.3,-0.4,-1.6,25,-41.7063,511.592,858.755,-0.332129,-0.406291,-1.61048,
2026_07_06_21_19_09.880,3.857,30.3,0,0.758,0,0,0,0, ,0,0,0,0,0, ,-42.9,511.9,859,-0.4,-0.4,-1.5,25,-41.7547,511.629,858.739,-0.333218,-0.405908,-1.6068,
2026_07_06_21_19_09.899,3.857,30.4,0,0.76,0,0,0,0, ,0,0,0,0,0, ,-41.6,511.8,858.8,-0.4,-0.4,-1.6,25,-41.7849,511.642,858.749,-0.337288,-0.405548,-1.60334,
2026_07_06_21_19_09.919,3.857,30.4,0,0.76,0,0,0,0, ,0,0,0,0,0, ,-41.7,512.2,859,-0.3,-0.4,-1.6,25,-41.7766,511.664,858.758,-0.338062,-0.40521,-1.60313,
2026_07_06_21_19_09.939,3.857,30.3,0,0.759,0,0,0,0, ,0,0,0,0,0, ,-41,512.4,857.6,-0.3,-0.4,-1.8,25,-41.7506,511.703,858.73,-0.335743,-0.404892,-1.60904,
2026_07_06_21_19_09.962,3.857,30.4,0,0.76,0,0,0,0, ,0,0,0,0,0, ,-41.6,512.6,858.3,-0.3,-0.4,-1.6,25,-41.7232,511.751,858.683,-0.333565,-0.404594,-1.61458,
2026_07_06_21_19_09.979,3.857,30.4,0,0.759,0,0,0,0, ,0,0,0,0,0, ,-42.3,511.9,859,-0.3,-0.4,-1.6,25,-41.737,511.782,858.681,-0.331519,-0.404314,-1.61369,
2026_07_06_21_19_09.998,3.857,30.3,0,0.76,0,0,0,0, ,0,0,0,0,0, ,-41,511.5,858.7,-0.2,-0.5,-1.6,25,-41.7317,511.777,858.691,-0.326552,-0.407098,-1.61286,
2026_07_06_21_19_10.019,3.857,30.4,0,0.76,0,0,0,0, ,0,0,0,0,0, ,-41.9,511.2,858.5,-0.2,-0.4,-1.6,25,-41.7145,511.751,858.685,-0.31884,-0.409713,-1.61207,
2026_07_06_21_19_10.038,3.857,30.3,0,0.759,0,0,0,0, ,0,0,0,0,0, ,-42.9,511.2,858.5,-0.3,-0.4,-1.6,25,-41.7563,511.717,858.674,-0.314645,-0.409121,-1.61134,
2026_07_06_21_19_10.058,3.857,30.3,0,0.759,0,0,0,0, ,0,0,0,0,0, ,-42.8,512.2,859,-0.3,-0.4,-1.6,25,-41.8229,511.716,858.679,-0.313753,-0.408565,-1.61065,
2026_07_06_21_19_10.077,3.857,30.4,0,0.759,0,0,0,0, ,0,0,0,0,0, ,-40.6,512.2,858,-0.3,-0.4,-1.7,25,-41.8155,511.746,858.668,-0.312915,-0.408043,-1.61304,
2026_07_06_21_19_10.097,3.857,30.3,0,0.76,0,0,0,0, ,0,0,0,0,0, ,-41.5,511.3,858.5,-0.3,-0.4,-1.6,25,-41.7688,511.746,858.642,-0.312128,-0.407553,-1.6153,
2026_07_06_21_19_10.120,3.857,30.3,0,0.758,0,0,0,0, ,0,0,0,0,0, ,-40.5,510.9,858.2,-0.4,-0.4,-1.7,25,-41.722,511.707,858.625,-0.314436,-0.407093,-1.61741,
2026_07_06_21_19_10.137,3.857,30.3,0,0.76,0,0,0,0, ,0,0,0,0,0, ,-41.9,512.5,859.1,-0.3,-0.4,-1.7,25,-41.6902,511.706,858.626,-0.316603,-0.40666,-1.62244,
2026_07_06_21_19_10.157,3.857,30.4,0,0.759,0,0,0,0, ,0,0,0,0,0, ,-42.2,512.5,859.1,-0.4,-0.4,-1.6,25,-41.7121,511.755,858.655,-0.318638,-0.406255,-1.62412,
2026_07_06_21_19_10.176,3.857,30.3,0,0.76,0,0,0,0, ,0,0,0,0,0, ,-41.2,512.4,857.2,-0.4,-0.4,-1.6,25,-41.7113,511.797,858.624,-0.323596,-0.405873,-1.62265,
2026_07_06_21_19_10.197,3.857,30.4,0,0.759,0,0,0,0, ,0,0,0,0,0, ,-41.5,511.5,858.8,-0.3,-0.4,-1.6,25,-41.6893,511.806,858.586,-0.325205,-0.405516,-1.62127,
2026_07_06_21_19_10.216,3.857,30.3,0,0.758,0,0,0,0, ,0,0,0,0,0, ,-41.5,511.4,859.4,-0.2,-0.4,-1.5,25,-41.6778,511.785,858.618,-0.320622,-0.405179,-1.61693,
2026_07_06_21_19_10.236,3.857,30.3,0,0.759,0,0,0,0, ,0,0,0,0,0, ,-41.8,511.5,858.5,-0.3,-0.4,-1.7,25,-41.6761,511.764,858.638,-0.316319,-0.404864,-1.6159,
2026_07_06_21_19_10.256,3.857,30.4,0,0.758,0,0,0,0, ,0,0,0,0,0, ,-43.2,511.1,859.7,-0.3,-0.4,-1.6,25,-41.7263,511.736,858.666,-0.315324,-0.404567,-1.61798,
2026_07_06_21_19_10.281,3.857,30.4,0,0.76,0,0,0,0, ,0,0,0,0,0, ,-41.9,512.5,858.2,-0.3,-0.4,-1.6,25,-41.7765,511.74,858.683,-0.31439,-0.404289,-1.61688,
2026_07_06_21_19_10.296,3.857,30.3,0,0.759,0,0,0,0, ,0,0,0,0,0, ,-42.6,511.7,857.2,-0.3,-0.4,-1.6,25,-41.8054,511.762,858.623,-0.313513,-0.404028,-1.61585,
2026_07_06_21_19_10.315,3.857,30.4,0,0.758,0,0,0,0, ,0,0,0,0,0, ,-41.8,510.3,859.1,-0.3,-0.4,-1.7,25,-41.8294,511.715,858.595,-0.31269,-0.403782,-1.61793,
2026_07_06_21_19_10.335,3.857,30.3,0,0.759,0,0,0,0, ,0,0,0,0,0, ,-42.1,511.3,857,-0.5,-0.4,-1.6,25,-41.8367,511.66,858.561,-0.31801,-0.403552,-1.61989,
2026_07_06_21_19_10.355,3.857,30.4,0,0.759,0,0,0,0, ,0,0,0,0,0, ,-41.6,511.5,859.1,-0.4,-0.3,-1.6,25,-41.8376,511.644,858.53,-0.326054,-0.400288,-1.61867,
2026_07_06_21_19_10.375,3.857,30.4,0,0.76,0,0,0,0, ,0,0,0,0,0, ,-42.4,511.1,858.7,-0.4,-0.4,-1.5,25,-41.8475,511.623,858.553,-0.33056,-0.397224,-1.61449,
2026_07_06_21_19_10.395,3.857,30.4,0,0.76,0,0,0,0, ,0,0,0,0,0, ,-41.3,512.9,859.2,-0.4,-0.5,-1.6,25,-41.8476,511.646,858.577,-0.334791,-0.40044,-1.61056,
2026_07_06_21_19_10.414,3.857,30.5,0,0.758,0,0,0,0, ,0,0,0,0,0, ,-42.1,512.6,860.4,-0.4,-0.5,-1.6,25,-41.8386,511.713,858.651,-0.338765,-0.406507,-1.60992,
2026_07_06_21_19_10.440,3.857,30.4,0,0.759,0,0,0,0, ,0,0,0,0,0, ,-41.1,512.4,859.2,-0.4,-0.4,-1.6,25,-41.8241,511.761,858.721,-0.342496,-0.409157,-1.60931,
2026_07_06_21_19_10.453,3.857,30.3,0,0.76,0,0,0,0, ,0,0,0,0,0, ,-41.2,512.5,859.1,-0.4,-0.4,-1.5,25,-41.783,511.803,858.748,-0.346,-0.408599,-1.6057,
2026_07_06_21_19_10.473,3.857,30.3,0,0.759,0,0,0,0, ,0,0,0,0,0, ,-42.6,511.7,859.6,-0.3,-0.4,-1.7,25,-41.7901,511.821,858.784,-0.346244,-0.408075,-1.60535,
2026_07_06_21_19_10.493,3.857,30.4,0,0.76,0,0,0,0, ,0,0,0,0,0, ,-41.8,512.5,858.6,-0.3,-0.4,-1.6,25,-41.8151,511.838,858.804,-0.343426,-0.407583,-1.60807,
2026_07_06_21_19_10.513,3.857,30.4,0,0.761,0,0,0,0, ,0,0,0,0,0, ,-41.7,511.5,859.2,-0.2,-0.4,-1.6,25,-41.8111,511.848,858.809,-0.337733,-0.407121,-1.60758,
2026_07_06_21_19_10.532,3.857,30.4,0,0.76,0,0,0,0, ,0,0,0,0,0, ,-42.6,512,859.6,-0.2,-0.5,-1.6,25,-41.8318,511.842,858.845,-0.32934,-0.409734,-1.60712,
2026_07_06_21_19_10.552,3.857,30.4,0,0.762,0,0,0,0, ,0,0,0,0,0, ,-42.2,511.9,858.1,-0.3,-0.4,-1.6,25,-41.8664,511.849,858.846,-0.324505,-0.412188,-1.60668,
2026_07_06_21_19_10.572,3.857,30.4,0,0.759,0,0,0,0, ,0,0,0,0,0, ,-41.3,511.4,857.6,-0.3,-0.4,-1.6,25,-41.8593,511.836,858.785,-0.323012,-0.411445,-1.60628,
2026_07_06_21_19_10.592,3.857,30.4,0,0.758,0,0,0,0, ,0,0,0,0,0, ,-42.3,511.4,858.6,-0.3,-0.4,-1.7,25,-41.8557,511.81,858.743,-0.32161,-0.410748,-1.60894,
2026_07_06_21_19_10.612,3.857,30.4,0,0.759,0,0,0,0, ,0,0,0,0,0, ,-41.5,511.5,858.2,-0.2,-0.4,-1.6,25,-41.8584,511.788,858.722,-0.317246,-0.410093,-1.61144,
2026_07_06_21_19_10.631,3.857,30.3,0,0.76,0,0,0,0, ,0,0,0,0,0, ,-41.1,510.7,858.8,-0.4,-0.4,-1.6,25,-41.8244,511.746,858.709,-0.316195,-0.409478,-1.61075,
2026_07_06_21_19_10.652,3.857,30.3,0,0.76,0,0,0,0, ,0,0,0,0,0, ,-41.6,511.2,858.2,-0.3,-0.4,-1.6,25,-41.7955,511.698,858.696,-0.318255,-0.4089,-1.61009,
2026_07_06_21_19_10.671,3.857,30.4,0,0.759,0,0,0,0, ,0,0,0,0,0, ,-41.1,510.6,859.1,-0.4,-0.4,-1.5,25,-41.7683,511.649,858.693,-0.320189,-0.408358,-1.60643,
2026_07_06_21_19_10.691,3.857,30.3,0,0.758,0,0,0,0, ,0,0,0,0,0, ,-42.1,512,858,-0.3,-0.5,-1.6,25,-41.7581,511.628,858.685,-0.322006,-0.410895,-1.60299,
2026_07_06_21_19_10.711,3.857,30.3,0,0.758,0,0,0,0, ,0,0,0,0,0, ,-41.9,511.5,859,-0.4,-0.4,-1.6,25,-41.7728,511.635,858.673,-0.323712,-0.413278,-1.60281,
2026_07_06_21_19_10.731,3.857,30.4,0,0.76,0,0,0,0, ,0,0,0,0,0, ,-42.1,511.8,859.3,-0.5,-0.4,-1.7,25,-41.7867,511.636,858.702,-0.331408,-0.412469,-1.60568,
2026_07_06_21_19_10.751,3.857,30.4,0,0.759,0,0,0,0, ,0,0,0,0,0, ,-42.4,511.8,858.3,-0.4,-0.4,-1.6,25,-41.8149,511.646,858.708,-0.338634,-0.411709,-1.60838,
2026_07_06_21_19_10.771,3.857,30.4,0,0.76,0,0,0,0, ,0,0,0,0,0, ,-41.5,513.1,858.6,-0.4,-0.4,-1.6,25,-41.8231,511.695,858.693,-0.342374,-0.410996,-1.60787,
2026_07_06_21_19_10.790,3.857,30.2,0,0.758,0,0,0,0, ,0,0,0,0,0, ,-42.2,513.4,858.2,-0.4,-0.4,-1.6,25,-41.8248,511.79,858.675,-0.345885,-0.410326,-1.60739,
2026_07_06_21_19_10.810,3.857,30.3,0,0.76,0,0,0,0, ,0,0,0,0,0, ,-41,511.9,858.7,-0.4,-0.4,-1.6,25,-41.8111,511.842,858.661,-0.349183,-0.409696,-1.60694,
2026_07_06_21_19_10.829,3.857,30.4,0,0.76,0,0,0,0, ,0,0,0,0,0, ,-41.9,511.9,859.1,-0.3,-0.4,-1.6,25,-41.7891,511.846,858.676,-0.349233,-0.409106,-1.60652,
2026_07_06_21_19_10.849,3.857,30.4,0,0.76,0,0,0,0, ,0,0,0,0,0, ,-40.4,511.9,858,-0.3,-0.4,-1.6,25,-41.7501,511.849,858.668,-0.346233,-0.408551,-1.60612,
2026_07_06_21_19_10.869,3.857,30.4,0,0.759,0,0,0,0, ,0,0,0,0,0, ,-40.8,511.3,858.2,-0.4,-0.5,-1.6,25,-41.68,511.834,858.633,-0.346462,-0.411077,-1.60575,
2026_07_06_21_19_10.889,3.857,30.3,0,0.759,0,0,0,0, ,0,0,0,0,0, ,-41.9,512.2,858.5,-0.4,-0.4,-1.6,25,-41.6599,511.829,858.616,-0.349725,-0.413448,-1.6054,
2026_07_06_21_19_10.909,3.857,30.4,0,0.758,0,0,0,0, ,0,0,0,0,0, ,-41.8,510.1,858.6,-0.5,-0.4,-1.6,25,-41.6715,511.787,858.612,-0.355835,-0.412629,-1.60507,
2026_07_06_21_19_10.931,3.857,30.2,0,0.759,0,0,0,0, ,0,0,0,0,0, ,-41.7,510.4,858,-0.4,-0.5,-1.5,25,-41.6763,511.694,858.593,-0.361573,-0.414906,-1.60171,
2026_07_06_21_19_10.949,3.857,30.3,0,0.761,0,0,0,0, ,0,0,0,0,0, ,-41,511.1,858.7,-0.4,-0.5,-1.6,25,-41.6564,511.636,858.578,-0.363915,-0.420092,-1.59856,
2026_07_06_21_19_10.968,3.857,30.4,0,0.76,0,0,0,0, ,0,0,0,0,0, ,-41.6,511.7,858.8,-0.3,-0.4,-1.6,25,-41.6347,511.622,858.589,-0.363067,-0.421914,-1.59865,
2026_07_06_21_19_10.988,3.857,30.4,0,0.759,0,0,0,0, ,0,0,0,0,0, ,-41.3,512.3,859.9,-0.3,-0.4,-1.6,25,-41.6234,511.645,858.635,-0.359224,-0.420579,-1.59873,
2026_07_06_21_19_11.007,3.857,30.3,0,0.758,0,0,0,0, ,0,0,0,0,0, ,-41.8,512.2,857.9,-0.3,-0.4,-1.6,25,-41.619,511.682,858.651,-0.355615,-0.419325,-1.59881,
2026_07_06_21_19_11.028,3.857,30.4,0,0.759,0,0,0,0, ,0,0,0,0,0, ,-42.2,512.2,859.2,-0.3,-0.4,-1.6,25,-41.6422,511.713,858.645,-0.352226,-0.418147,-1.59888,
2026_07_06_21_19_11.048,3.857,30.4,0,0.759,0,0,0,0, ,0,0,0,0,0, ,-42.8,512.2,857.7,-0.3,-0.4,-1.5,25,-41.6945,511.743,858.633,-0.349043,-0.417041,-1.5959,
2026_07_06_21_19_11.067,3.857,30.5,0,0.76,0,0,0,0, ,0,0,0,0,0, ,-41.8,511.1,858.7,-0.3,-0.4,-1.7,25,-41.7314,511.737,858.607,-0.346055,-0.416003,-1.59615,
2026_07_06_21_19_11.090,3.857,30.2,0,0.76,0,0,0,0, ,0,0,0,0,0, ,-42.4,511.1,858,-0.3,-0.4,-1.6,25,-41.7538,511.698,858.591,-0.343248,-0.415028,-1.59943,
2026_07_06_21_19_11.106,3.857,30.3,0,0.762,0,0,0,0, ,0,0,0,0,0, ,-40.7,511.7,858.6,-0.4,-0.5,-1.6,25,-41.7414,511.68,858.573,-0.34366,-0.417159,-1.59947,
2026_07_06_21_19_11.126,3.857,30.2,0,0.759,0,0,0,0, ,0,0,0,0,0, ,-41.2,511.2,859.2,-0.2,-0.4,-1.5,25,-41.6932,511.666,858.593,-0.340999,-0.41916,-1.59645,
2026_07_06_21_19_11.148,3.857,30.4,0,0.759,0,0,0,0, ,0,0,0,0,0, ,-42.6,512,857.2,-0.3,-0.5,-1.5,25,-41.7058,511.662,858.569,-0.335454,-0.421039,-1.59058,
2026_07_06_21_19_11.166,3.857,30.4,0,0.76,0,0,0,0, ,0,0,0,0,0, ,-41.7,511.7,858.5,-0.3,-0.4,-1.6,25,-41.7328,511.674,858.525,-0.333294,-0.422804,-1.5881,
2026_07_06_21_19_11.186,3.857,30.3,0,0.759,0,0,0,0, ,0,0,0,0,0, ,-41.7,512.3,858.1,-0.3,-0.4,-1.6,25,-41.7308,511.694,858.512,-0.331265,-0.421415,-1.58883,
2026_07_06_21_19_11.206,3.857,30.4,0,0.76,0,0,0,0, ,0,0,0,0,0, ,-41.3,511.2,858.8,-0.4,-0.4,-1.6,25,-41.7168,511.697,858.508,-0.332406,-0.42011,-1.58951,
2026_07_06_21_19_11.225,3.857,30.4,0,0.76,0,0,0,0, ,0,0,0,0,0, ,-42.3,511.2,858.5,-0.4,-0.4,-1.6,25,-41.7218,511.667,858.517,-0.336525,-0.418884,-1.59015,
2026_07_06_21_19_11.245,3.857,30.3,0,0.761,0,0,0,0, ,0,0,0,0,0, ,-41.5,510.9,859.6,-0.4,-0.4,-1.6,25,-41.7327,511.629,858.549,-0.340393,-0.417733,-1.59075,
2026_07_06_21_19_11.265,3.857,30.3,0,0.759,0,0,0,0, ,0,0,0,0,0, ,-40.8,510.9,857.4,-0.4,-0.3,-1.6,25,-41.6972,511.585,858.546,-0.344026,-0.413606,-1.59131,
2026_07_06_21_19_11.285,3.857,30.2,0,0.759,0,0,0,0, ,0,0,0,0,0, ,-43.4,511.9,858.6,-0.3,-0.4,-1.6,25,-41.7217,511.573,858.513,-0.34439,-0.40973,-1.59184,
2026_07_06_21_19_11.304,3.857,30.3,0,0.76,0,0,0,0, ,0,0,0,0,0, ,-41.6,511.8,859.3,-0.4,-0.4,-1.6,25,-41.7692,511.59,858.539,-0.344732,-0.409137,-1.59234,
2026_07_06_21_19_11.324,3.857,30.3,0,0.76,0,0,0,0, ,0,0,0,0,0, ,-41.8,511.8,858.3,-0.4,-0.4,-1.6,25,-41.765,511.603,858.555,-0.348099,-0.40858,-1.59281,
2026_07_06_21_19_11.345,3.857,30.3,0,0.759,0,0,0,0, ,0,0,0,0,0, ,-41.1,512.6,859.6,-0.3,-0.4,-1.6,25,-41.7458,511.639,858.579,-0.348215,-0.408057,-1.59324,
2026_07_06_21_19_11.364,3.857,30.3,0,0.759,0,0,0,0, ,0,0,0,0,0, ,-42.3,511.7,857,-0.3,-0.4,-1.6,25,-41.743,511.671,858.562,-0.345277,-0.407566,-1.59366,
2026_07_06_21_19_11.384,3.857,30.4,0,0.758,0,0,0,0, ,0,0,0,0,0, ,-41,511.7,857.4,-0.3,-0.4,-1.6,25,-41.7373,511.672,858.479,-0.342518,-0.407105,-1.59404,
2026_07_06_21_19_11.404,3.857,30.3,0,0.759,0,0,0,0, ,0,0,0,0,0, ,-42.4,512.6,859.6,-0.3,-0.4,-1.5,25,-41.735,511.701,858.481,-0.339927,-0.406672,-1.59136,
2026_07_06_21_19_11.423,3.857,30.3,0,0.759,0,0,0,0, ,0,0,0,0,0, ,-43,511.5,858.1,-0.2,-0.4,-1.6,25,-41.7938,511.723,858.503,-0.334447,-0.406266,-1.58884,
2026_07_06_21_19_11.443,3.857,30.3,0,0.759,0,0,0,0, ,0,0,0,0,0, ,-41,511.8,858.5,-0.3,-0.5,-1.6,25,-41.8064,511.718,858.491,-0.329301,-0.408931,-1.58952,
2026_07_06_21_19_11.463,3.857,30.3,0,0.759,0,0,0,0, ,0,0,0,0,0, ,-41.9,511.2,857.9,-0.3,-0.3,-1.6,25,-41.7847,511.705,858.473,-0.327516,-0.408387,-1.59016,
2026_07_06_21_19_11.482,3.857,30.1,0,0.759,0,0,0,0, ,0,0,0,0,0, ,-41.3,512.8,858.8,-0.3,-0.5,-1.6,25,-41.7734,511.723,858.466,-0.325839,-0.407876,-1.59076,
2026_07_06_21_19_11.502,3.857,30.3,0,0.759,0,0,0,0, ,0,0,0,0,0, ,-41.6,511.3,857.5,-0.2,-0.4,-1.6,25,-41.7537,511.743,858.446,-0.321218,-0.410442,-1.59132,
2026_07_06_21_19_11.522,3.857,30.2,0,0.76,0,0,0,0, ,0,0,0,0,0, ,-41.2,510.1,858.3,-0.3,-0.5,-1.6,25,-41.7322,511.679,858.413,-0.316878,-0.412853,-1.59185,
2026_07_06_21_19_11.542,3.857,30.2,0,0.76,0,0,0,0, ,0,0,0,0,0, ,-41.8,512.8,857.9,-0.3,-0.4,-1.6,25,-41.718,511.665,858.394,-0.315849,-0.415117,-1.59235,
2026_07_06_21_19_11.562,3.857,30.3,0,0.759,0,0,0,0, ,0,0,0,0,0, ,-41.7,512.3,858.1,-0.4,-0.4,-1.6,25,-41.72,511.719,858.37,-0.31793,-0.414195,-1.59281,
2026_07_06_21_19_11.584,3.857,30.3,0,0.758,0,0,0,0, ,0,0,0,0,0, ,-41.6,511.1,859,-0.3,-0.4,-1.5,25,-41.7157,511.718,858.381,-0.319885,-0.41333,-1.5902,
2026_07_06_21_19_11.602,3.857,30.2,0,0.759,0,0,0,0, ,0,0,0,0,0, ,-41.9,512.3,858.2,-0.3,-0.3,-1.6,25,-41.7178,511.717,858.394,-0.318673,-0.409471,-1.58775,
2026_07_06_21_19_11.621,3.857,30.3,0,0.76,0,0,0,0, ,0,0,0,0,0, ,-41.1,512.6,858.3,-0.3,-0.4,-1.6,25,-41.7045,511.762,858.385,-0.317535,-0.405847,-1.5885,
2026_07_06_21_19_11.641,3.857,30.4,0,0.759,0,0,0,0, ,0,0,0,0,0, ,-41.7,511.5,857.7,-0.3,-0.4,-1.6,25,-41.686,511.779,858.362,-0.316466,-0.405491,-1.5892,
2026_07_06_21_19_11.662,3.857,30.2,0,0.758,0,0,0,0, ,0,0,0,0,0, ,-41.5,512.8,859.2,-0.3,-0.4,-1.5,25,-41.6807,511.802,858.367,-0.315463,-0.405156,-1.58681,
2026_07_06_21_19_11.681,3.857,30.3,0,0.759,0,0,0,0, ,0,0,0,0,0, ,-42.2,511.7,860.4,-0.3,-0.4,-1.6,25,-41.691,511.829,858.455,-0.314521,-0.404842,-1.58457,
2026_07_06_21_19_11.700,3.857,30.2,0,0.759,0,0,0,0, ,0,0,0,0,0, ,-41.3,513.3,858.2,-0.3,-0.4,-1.6,25,-41.6946,511.87,858.506,-0.313636,-0.404547,-1.58551,
2026_07_06_21_19_11.720,3.857,30.3,0,0.76,0,0,0,0, ,0,0,0,0,0, ,-41.6,511.4,857.7,-0.3,-0.4,-1.6,25,-41.6797,511.899,858.472,-0.312805,-0.40427,-1.58639,
2026_07_06_21_19_11.740,3.857,30.3,0,0.76,0,0,0,0, ,0,0,0,0,0, ,-42.1,510.9,858.3,-0.4,-0.4,-1.6,25,-41.6901,511.854,858.443,-0.315071,-0.40401,-1.58722,
2026_07_06_21_19_11.759,3.857,30.2,0,0.76,0,0,0,0, ,0,0,0,0,0, ,-42.1,511.2,860.2,-0.4,-0.4,-1.6,25,-41.7151,511.805,858.493,-0.320247,-0.403765,-1.588,
2026_07_06_21_19_11.779,3.857,30.3,0,0.76,0,0,0,0, ,0,0,0,0,0, ,-41.8,512.4,858.2,-0.3,-0.4,-1.6,25,-41.7294,511.804,858.536,-0.32206,-0.403536,-1.58873,
2026_07_06_21_19_11.800,3.857,30.3,0,0.76,0,0,0,0, ,0,0,0,0,0, ,-41.5,511.4,859,-0.4,-0.4,-1.6,25,-41.7246,511.81,858.54,-0.323763,-0.40332,-1.58942,
2026_07_06_21_19_11.819,3.857,30.2,0,0.76,0,0,0,0, ,0,0,0,0,0, ,-41.7,511.4,858.2,-0.4,-0.4,-1.6,25,-41.717,511.785,858.543,-0.328408,-0.403118,-1.59006,
2026_07_06_21_19_11.839,3.857,30.3,0,0.759,0,0,0,0, ,0,0,0,0,0, ,-41.6,511.8,858.7,-0.5,-0.4,-1.6,25,-41.7129,511.774,858.538,-0.335818,-0.402928,-1.59067,
2026_07_06_21_19_11.859,3.857,30.3,0,0.76,0,0,0,0, ,0,0,0,0,0, ,-41.5,512.5,858.8,-0.3,-0.4,-1.6,25,-41.703,511.797,858.551,-0.339729,-0.40275,-1.59124,
2026_07_06_21_19_11.878,3.857,30.2,0,0.759,0,0,0,0, ,0,0,0,0,0, ,-40.5,511.7,858.5,-0.4,-0.4,-1.6,25,-41.6601,511.815,858.557,-0.340355,-0.402582,-1.59177,
2026_07_06_21_19_11.898,3.857,30.3,0,0.759,0,0,0,0, ,0,0,0,0,0, ,-41,511.9,858.7,-0.4,-0.3,-1.6,25,-41.6047,511.814,858.559,-0.343989,-0.399378,-1.59227,
2026_07_06_21_19_11.919,3.857,30.3,0,0.759,0,0,0,0, ,0,0,0,0,0, ,-41,511.4,859.1,-0.4,-0.4,-1.7,25,-41.5678,511.804,858.58,-0.347403,-0.396369,-1.59579,
2026_07_06_21_19_11.938,3.857,30.2,0,0.759,0,0,0,0, ,0,0,0,0,0, ,-41,513.3,858,-0.3,-0.5,-1.6,25,-41.5332,511.838,858.578,-0.347561,-0.399637,-1.59909,
2026_07_06_21_19_11.958,3.857,30.3,0,0.758,0,0,0,0, ,0,0,0,0,0, ,-41.6,511.5,860.2,-0.3,-0.4,-1.6,25,-41.519,511.872,858.61,-0.344663,-0.402706,-1.59915,
2026_07_06_21_19_11.978,3.857,30.3,0,0.76,0,0,0,0, ,0,0,0,0,0, ,-41.7,511.2,859.3,-0.3,-0.3,-1.6,25,-41.527,511.84,858.679,-0.341941,-0.399494,-1.5992,
2026_07_06_21_19_11.997,3.857,30.4,0,0.759,0,0,0,0, ,0,0,0,0,0, ,-41.6,512,858.8,-0.3,-0.4,-1.5,25,-41.5345,511.825,858.702,-0.339385,-0.396478,-1.5962,
2026_07_06_21_19_12.017,3.857,30.2,0,0.76,0,0,0,0, ,0,0,0,0,0, ,-42.1,513,858.5,-0.2,-0.4,-1.5,25,-41.5537,511.867,858.699,-0.333938,-0.396693,-1.59034,
2026_07_06_21_19_12.037,3.857,30.2,0,0.759,0,0,0,0, ,0,0,0,0,0, ,-42.1,510.8,859.3,-0.3,-0.4,-1.6,25,-41.587,511.869,858.711,-0.328823,-0.396894,-1.58788,
2026_07_06_21_19_12.057,3.857,30.3,0,0.759,0,0,0,0, ,0,0,0,0,0, ,-42.2,511.4,858.5,-0.3,-0.4,-1.6,25,-41.6213,511.822,858.723,-0.327067,-0.397084,-1.58862,
2026_07_06_21_19_12.082,3.857,30.3,0,0.759,0,0,0,0, ,0,0,0,0,0, ,-41.5,512.4,859.4,-0.4,-0.4,-1.6,25,-41.6352,511.827,858.737,-0.328464,-0.397261,-1.58931,
2026_07_06_21_19_12.097,3.857,30.3,0,0.76,0,0,0,0, ,0,0,0,0,0, ,-42.2,511.7,858,-0.4,-0.4,-1.6,25,-41.6483,511.84,858.734,-0.332824,-0.397428,-1.58997,
2026_07_06_21_19_12.116,3.857,30.2,0,0.759,0,0,0,0, ,0,0,0,0,0, ,-40.8,511.9,858.6,-0.3,-0.4,-1.6,25,-41.6393,511.838,858.708,-0.33387,-0.397585,-1.59058,
2026_07_06_21_19_12.136,3.857,30.3,0,0.759,0,0,0,0, ,0,0,0,0,0, ,-41.3,511.9,858.7,-0.4,-0.4,-1.6,25,-41.6034,511.841,858.704,-0.334853,-0.397732,-1.59115,
2026_07_06_21_19_12.155,3.857,30.2,0,0.759,0,0,0,0, ,0,0,0,0,0, ,-42.4,510.9,859.1,-0.3,-0.4,-1.6,25,-41.6184,511.815,858.716,-0.335776,-0.39787,-1.59169,
2026_07_06_21_19_12.175,3.857,30.3,0,0.759,0,0,0,0, ,0,0,0,0,0, ,-40.8,512.2,859.1,-0.4,-0.4,-1.6,25,-41.6173,511.798,858.74,-0.336643,-0.398,-1.5922,
2026_07_06_21_19_12.195,3.857,30.3,0,0.761,0,0,0,0, ,0,0,0,0,0, ,-42.6,513.1,857.4,-0.4,-0.5,-1.6,25,-41.6223,511.85,858.71,-0.340504,-0.401169,-1.59267,
2026_07_06_21_19_12.215,3.857,30.3,0,0.759,0,0,0,0, ,0,0,0,0,0, ,-42.3,512.3,859,-0.3,-0.4,-1.6,25,-41.6728,511.902,858.679,-0.341082,-0.404144,-1.59312,
2026_07_06_21_19_12.235,3.857,30.3,0,0.759,0,0,0,0, ,0,0,0,0,0, ,-41.7,510.4,857.4,-0.2,-0.3,-1.6,25,-41.6927,511.868,858.65,-0.335532,-0.400845,-1.59354,
2026_07_06_21_19_12.254,3.857,30.4,0,0.758,0,0,0,0, ,0,0,0,0,0, ,-41.1,510.6,859.7,-0.4,-0.4,-1.6,25,-41.6749,511.785,858.643,-0.333367,-0.397747,-1.59393,
2026_07_06_21_19_12.274,3.857,30.2,0,0.759,0,0,0,0, ,0,0,0,0,0, ,-42.2,511.1,857.9,-0.5,-0.4,-1.6,25,-41.6734,511.728,858.653,-0.340474,-0.397884,-1.5943,
2026_07_06_21_19_12.294,3.857,30.3,0,0.758,0,0,0,0, ,0,0,0,0,0, ,-43.3,511.9,858.8,-0.3,-0.4,-1.6,25,-41.739,511.714,858.635,-0.344102,-0.398013,-1.59465,
2026_07_06_21_19_12.314,3.857,30.4,0,0.758,0,0,0,0, ,0,0,0,0,0, ,-41.1,511.3,858,-0.3,-0.4,-1.7,25,-41.7671,511.707,858.62,-0.341414,-0.398134,-1.59802,
2026_07_06_21_19_12.334,3.857,30.3,0,0.76,0,0,0,0, ,0,0,0,0,0, ,-41.7,511.1,859.2,-0.4,-0.4,-1.6,25,-41.7447,511.676,858.619,-0.341937,-0.398248,-1.60119,
2026_07_06_21_19_12.353,3.857,30.3,0,0.761,0,0,0,0, ,0,0,0,0,0, ,-40.5,513,859.7,-0.5,-0.4,-1.6,25,-41.7054,511.699,858.67,-0.348522,-0.398355,-1.60112,
2026_07_06_21_19_12.374,3.857,30.3,0,0.76,0,0,0,0, ,0,0,0,0,0, ,-41,511.7,859.1,-0.3,-0.3,-1.6,25,-41.6472,511.739,858.714,-0.351659,-0.395408,-1.60105,
2026_07_06_21_19_12.393,3.857,30.4,0,0.76,0,0,0,0, ,0,0,0,0,0, ,-42.1,512.9,858.6,-0.4,-0.4,-1.6,25,-41.6413,511.773,858.722,-0.351558,-0.392641,-1.60098,
2026_07_06_21_19_12.412,3.857,30.3,0,0.76,0,0,0,0, ,0,0,0,0,0, ,-41.9,512.4,858.6,-0.3,-0.3,-1.6,25,-41.6631,511.826,858.715,-0.351463,-0.390042,-1.60092,
2026_07_06_21_19_12.432,3.857,30.2,0,0.759,0,0,0,0, ,0,0,0,0,0, ,-42.3,512.3,858.8,-0.3,-0.4,-1.6,25,-41.6897,511.858,858.714,-0.348327,-0.387602,-1.60087,
2026_07_06_21_19_12.452,3.857,30.3,0,0.759,0,0,0,0, ,0,0,0,0,0, ,-41.8,512,858.3,-0.3,-0.3,-1.5,25,-41.7117,511.876,858.704,-0.345382,-0.385311,-1.59777,
2026_07_06_21_19_12.472,3.857,30.3,0,0.759,0,0,0,0, ,0,0,0,0,0, ,-42.2,512.8,858.2,-0.2,-0.5,-1.6,25,-41.7293,511.908,858.676,-0.33957,-0.386206,-1.59486,
2026_07_06_21_19_12.491,3.857,30.2,0,0.759,0,0,0,0, ,0,0,0,0,0, ,-41.7,511.2,857.9,-0.3,-0.3,-1.6,25,-41.7427,511.914,858.638,-0.334112,-0.387047,-1.59517,
2026_07_06_21_19_12.512,3.857,30.2,0,0.76,0,0,0,0, ,0,0,0,0,0, ,-41.8,512.3,858.8,-0.3,-0.4,-1.6,25,-41.7432,511.904,858.621,-0.332033,-0.384789,-1.59547,
2026_07_06_21_19_12.532,3.857,30.3,0,0.76,0,0,0,0, ,0,0,0,0,0, ,-41.9,510.7,859.1,-0.2,-0.4,-1.6,25,-41.7497,511.879,858.641,-0.327034,-0.385716,-1.59574,
2026_07_06_21_19_12.552,3.857,30.4,0,0.758,0,0,0,0, ,0,0,0,0,0, ,-41.7,509.8,858,-0.3,-0.5,-1.6,25,-41.7527,511.78,858.635,-0.32234,-0.389633,-1.596,
2026_07_06_21_19_12.571,3.857,30.2,0,0.759,0,0,0,0, ,0,0,0,0,0, ,-40.8,510.7,858.5,-0.3,-0.3,-1.6,25,-41.7221,511.687,858.612,-0.320979,-0.390265,-1.59624,
2026_07_06_21_19_12.591,3.857,30.3,0,0.76,0,0,0,0, ,0,0,0,0,0, ,-42.4,510.4,858.8,-0.4,-0.4,-1.6,25,-41.7147,511.617,858.614,-0.322747,-0.387811,-1.59647,
2026_07_06_21_19_12.610,3.857,30.3,0,0.76,0,0,0,0, ,0,0,0,0,0, ,-41.2,512,858.8,-0.4,-0.5,-1.6,25,-41.7199,511.592,858.625,-0.327455,-0.391601,-1.59669,
2026_07_06_21_19_12.630,3.857,30.3,0,0.759,0,0,0,0, ,0,0,0,0,0, ,-42.8,510.9,858.2,-0.4,-0.4,-1.5,25,-41.7369,511.583,858.618,-0.331875,-0.39516,-1.59384,
2026_07_06_21_19_12.651,3.857,30.3,0,0.759,0,0,0,0, ,0,0,0,0,0, ,-42.1,512.5,858.3,-0.4,-0.4,-1.6,25,-41.7804,511.59,858.595,-0.336027,-0.395455,-1.59117,
2026_07_06_21_19_12.670,3.857,30.3,0,0.758,0,0,0,0, ,0,0,0,0,0, ,-41.2,511.7,858.1,-0.3,-0.4,-1.5,25,-41.7724,511.621,858.571,-0.336878,-0.395732,-1.58866,
2026_07_06_21_19_12.689,3.857,30.2,0,0.757,0,0,0,0, ,0,0,0,0,0, ,-42.1,511.9,858,-0.4,-0.5,-1.7,25,-41.765,511.632,858.539,-0.337678,-0.399039,-1.58935,
2026_07_06_21_19_12.710,3.857,30.3,0,0.76,0,0,0,0, ,0,0,0,0,0, ,-41.9,512.4,859.9,-0.4,-0.4,-1.6,25,-41.7793,511.664,858.564,-0.341476,-0.402144,-1.59305,
2026_07_06_21_19_12.730,3.857,30.2,0,0.76,0,0,0,0, ,0,0,0,0,0, ,-42.2,511.2,856.8,-0.3,-0.4,-1.6,25,-41.7958,511.672,858.551,-0.341995,-0.402013,-1.59347,
2026_07_06_21_19_12.752,3.857,30.3,0,0.759,0,0,0,0, ,0,0,0,0,0, ,-42.3,512,859.8,-0.3,-0.4,-1.6,25,-41.8235,511.668,858.536,-0.339436,-0.401891,-1.59387,
2026_07_06_21_19_12.769,3.857,30.3,0,0.759,0,0,0,0, ,0,0,0,0,0, ,-41.8,511.4,859.6,-0.3,-0.4,-1.6,25,-41.8373,511.67,858.607,-0.337033,-0.401776,-1.59424,
2026_07_06_21_19_12.789,3.857,30.4,0,0.76,0,0,0,0, ,0,0,0,0,0, ,-42.8,512.4,859.1,-0.3,-0.4,-1.6,25,-41.8655,511.684,858.652,-0.334776,-0.401667,-1.59459,
2026_07_06_21_19_12.809,3.857,30.3,0,0.76,0,0,0,0, ,0,0,0,0,0, ,-42.8,510.3,858.3,-0.3,-0.4,-1.5,25,-41.9224,511.663,858.655,-0.332657,-0.401566,-1.59188,
2026_07_06_21_19_12.829,3.857,30.2,0,0.759,0,0,0,0, ,0,0,0,0,0, ,-42.4,511.7,859,-0.3,-0.4,-1.6,25,-41.9637,511.623,858.655,-0.330667,-0.40147,-1.58933,
2026_07_06_21_19_12.848,3.857,30.3,0,0.759,0,0,0,0, ,0,0,0,0,0, ,-42.1,512,859.2,-0.2,-0.4,-1.5,25,-41.9812,511.637,858.682,-0.325751,-0.401381,-1.58693,
2026_07_06_21_19_12.868,3.857,30.3,0,0.759,0,0,0,0, ,0,0,0,0,0, ,-42.8,512.5,859.4,-0.3,-0.4,-1.5,25,-42.0097,511.674,858.72,-0.321135,-0.401297,-1.58163,
2026_07_06_21_19_12.888,3.857,30.2,0,0.76,0,0,0,0, ,0,0,0,0,0, ,-42.1,511.4,858.2,-0.4,-0.5,-1.6,25,-42.0366,511.691,858.725,-0.322894,-0.404264,-1.5797,
2026_07_06_21_19_12.908,3.857,30.3,0,0.759,0,0,0,0, ,0,0,0,0,0, ,-40.5,512.6,859.6,-0.4,-0.4,-1.6,25,-41.9917,511.71,858.735,-0.327593,-0.407051,-1.58094,
2026_07_06_21_19_12.927,3.857,30.2,0,0.76,0,0,0,0, ,0,0,0,0,0, ,-42.8,511.8,859.4,-0.3,-0.4,-1.6,25,-41.9709,511.74,858.782,-0.328958,-0.406622,-1.5821,
2026_07_06_21_19_12.947,3.857,30.2,0,0.759,0,0,0,0, ,0,0,0,0,0, ,-42.8,512.4,859.4,-0.3,-0.4,-1.6,25,-42.0214,511.762,858.82,-0.327194,-0.406218,-1.58319,
2026_07_06_21_19_12.966,3.857,30.3,0,0.759,0,0,0,0, ,0,0,0,0,0, ,-41.6,511.2,858.8,-0.3,-0.5,-1.6,25,-42.0323,511.764,858.837,-0.325536,-0.408886,-1.58422,
2026_07_06_21_19_12.986,3.857,30.2,0,0.759,0,0,0,0, ,0,0,0,0,0, ,-41.1,511.8,859.1,-0.3,-0.4,-1.6,25,-41.9907,511.748,858.844,-0.32398,-0.411392,-1.58518,
2026_07_06_21_19_13.006,3.857,30.3,0,0.761,0,0,0,0, ,0,0,0,0,0, ,-42.1,511.2,859.4,-0.2,-0.5,-1.6,25,-41.9669,511.733,858.868,-0.319472,-0.413744,-1.58608,
2026_07_06_21_19_13.027,3.857,30.2,0,0.76,0,0,0,0, ,0,0,0,0,0, ,-42.1,510.3,858.8,-0.3,-0.4,-1.6,25,-41.975,511.673,858.882,-0.315239,-0.415954,-1.58693,
2026_07_06_21_19_13.046,3.857,30.3,0,0.76,0,0,0,0, ,0,0,0,0,0, ,-42.8,510.7,859.6,-0.3,-0.3,-1.6,25,-42.0039,511.601,858.902,-0.31431,-0.411935,-1.58773,
2026_07_06_21_19_13.066,3.857,30.2,0,0.76,0,0,0,0, ,0,0,0,0,0, ,-42.2,510.3,859.3,-0.4,-0.4,-1.6,25,-42.0342,511.534,858.935,-0.316485,-0.40816,-1.58847,
2026_07_06_21_19_13.086,3.857,30.2,0,0.759,0,0,0,0, ,0,0,0,0,0, ,-42.8,511.3,859.1,-0.3,-0.3,-1.7,25,-42.0626,511.49,858.951,-0.318527,-0.404616,-1.59222,
2026_07_06_21_19_13.105,3.857,30.2,0,0.76,0,0,0,0, ,0,0,0,0,0, ,-42.3,511.2,858,-0.3,-0.4,-1.7,25,-42.0923,511.475,858.927,-0.317398,-0.401288,-1.59879,
2026_07_06_21_19_13.128,3.857,30.2,0,0.758,0,0,0,0, ,0,0,0,0,0, ,-40.6,510.9,858.6,-0.3,-0.4,-1.6,25,-42.0531,511.449,858.889,-0.316338,-0.40121,-1.60191,
2026_07_06_21_19_13.145,3.857,30.3,0,0.759,0,0,0,0, ,0,0,0,0,0, ,-41.9,510.8,858.2,-0.5,-0.4,-1.6,25,-42.0042,511.413,858.859,-0.321436,-0.401136,-1.6018,
2026_07_06_21_19_13.165,3.857,30.3,0,0.759,0,0,0,0, ,0,0,0,0,0, ,-40.8,513.4,859,-0.4,-0.3,-1.6,25,-41.9643,511.454,858.843,-0.329271,-0.39802,-1.60169,
2026_07_06_21_19_13.185,3.857,30.3,0,0.759,0,0,0,0, ,0,0,0,0,0, ,-42.3,511.2,858.7,-0.3,-0.4,-1.6,25,-41.9391,511.506,858.844,-0.330534,-0.395094,-1.60158,
2026_07_06_21_19_13.205,3.857,30.2,0,0.759,0,0,0,0, ,0,0,0,0,0, ,-42.1,511.3,858.7,-0.4,-0.4,-1.6,25,-41.955,511.49,858.835,-0.33172,-0.395393,-1.60149,
2026_07_06_21_19_13.227,3.857,30.3,0,0.758,0,0,0,0, ,0,0,0,0,0, ,-40.8,511.5,859,-0.3,-0.5,-1.6,25,-41.9242,511.485,858.836,-0.332834,-0.39872,-1.6014,
2026_07_06_21_19_13.244,3.857,30.2,0,0.759,0,0,0,0, ,0,0,0,0,0, ,-41.8,512.6,858.5,-0.2,-0.4,-1.6,25,-41.8862,511.519,858.83,-0.327786,-0.401845,-1.60131,
2026_07_06_21_19_13.265,3.857,30.3,0,0.76,0,0,0,0, ,0,0,0,0,0, ,-42.2,511.3,859,-0.3,-0.4,-1.6,25,-41.8931,511.546,858.826,-0.323046,-0.401733,-1.60123,
2026_07_06_21_19_13.283,3.857,30.3,0,0.759,0,0,0,0, ,0,0,0,0,0, ,-42.2,511.7,858.7,-0.3,-0.5,-1.6,25,-41.9118,511.543,858.827,-0.321642,-0.404674,-1.60116,
2026_07_06_21_19_13.304,3.857,30.3,0,0.759,0,0,0,0, ,0,0,0,0,0, ,-42.1,513.3,858.8,-0.3,-0.4,-1.5,25,-41.9263,511.601,858.822,-0.320323,-0.407436,-1.59804,
2026_07_06_21_19_13.323,3.857,30.3,0,0.76,0,0,0,0, ,0,0,0,0,0, ,-41.9,511.2,859.3,-0.3,-0.4,-1.6,25,-41.9308,511.641,858.836,-0.319085,-0.406983,-1.59511,
2026_07_06_21_19_13.343,3.857,30.3,0,0.759,0,0,0,0, ,0,0,0,0,0, ,-41.2,510.4,859.9,-0.3,-0.4,-1.6,25,-41.9076,511.589,858.883,-0.317922,-0.406557,-1.59541,
2026_07_06_21_19_13.363,3.857,30.2,0,0.759,0,0,0,0, ,0,0,0,0,0, ,-41.3,510.9,859.4,-0.4,-0.4,-1.6,25,-41.8675,511.532,858.93,-0.319876,-0.406158,-1.59569,
2026_07_06_21_19_13.382,3.857,30.3,0,0.759,0,0,0,0, ,0,0,0,0,0, ,-41.5,511.9,858.6,-0.4,-0.4,-1.7,25,-41.839,511.524,858.934,-0.324759,-0.405783,-1.599,
2026_07_06_21_19_13.402,3.857,30.4,0,0.759,0,0,0,0, ,0,0,0,0,0, ,-41.5,510.8,859.6,-0.4,-0.4,-1.6,25,-41.8184,511.514,858.944,-0.329344,-0.40543,-1.60211,
2026_07_06_21_19_13.423,3.857,30.3,0,0.76,0,0,0,0, ,0,0,0,0,0, ,-41.8,511.9,858.5,-0.4,-0.5,-1.7,25,-41.8081,511.504,858.95,-0.33365,-0.408146,-1.60503,
2026_07_06_21_19_13.446,3.857,30.3,0,0.76,0,0,0,0, ,0,0,0,0,0, ,-41.2,512.2,857.9,-0.5,-0.4,-1.6,25,-41.7893,511.537,858.905,-0.34074,-0.410697,-1.60777,
2026_07_06_21_19_13.461,3.857,30.3,0,0.759,0,0,0,0, ,0,0,0,0,0, ,-41.9,512.2,858.5,-0.4,-0.5,-1.5,25,-41.7748,511.577,858.862,-0.347398,-0.413092,-1.60425,
2026_07_06_21_19_13.481,3.857,30.3,0,0.759,0,0,0,0, ,0,0,0,0,0, ,-41.3,512.2,857.6,-0.5,-0.4,-1.6,25,-41.7641,511.615,858.812,-0.35365,-0.415341,-1.60094,
2026_07_06_21_19_13.501,3.857,30.4,0,0.758,0,0,0,0, ,0,0,0,0,0, ,-40.7,513.1,858.3,-0.3,-0.4,-1.6,25,-41.7175,511.678,858.76,-0.356474,-0.414406,-1.60088,
2026_07_06_21_19_13.521,3.857,30.3,0,0.758,0,0,0,0, ,0,0,0,0,0, ,-40.8,511.2,859.6,-0.3,-0.4,-1.6,25,-41.6586,511.707,858.771,-0.353033,-0.413528,-1.60083,
2026_07_06_21_19_13.541,3.857,30.3,0,0.758,0,0,0,0, ,0,0,0,0,0, ,-42.8,511.8,859,-0.3,-0.3,-1.5,25,-41.6672,511.694,858.804,-0.349801,-0.409657,-1.59773,
2026_07_06_21_19_13.561,3.857,30.3,0,0.76,0,0,0,0, ,0,0,0,0,0, ,-41.5,510.4,858.6,-0.4,-0.4,-1.6,25,-41.6966,511.658,858.803,-0.349813,-0.406021,-1.59482,
2026_07_06_21_19_13.581,3.857,30.3,0,0.76,0,0,0,0, ,0,0,0,0,0, ,-41.8,512.2,859.6,-0.3,-0.4,-1.6,25,-41.6938,511.636,858.821,-0.349825,-0.405655,-1.59514,
2026_07_06_21_19_13.602,3.857,30.3,0,0.76,0,0,0,0, ,0,0,0,0,0, ,-41.2,511.4,859.1,-0.4,-0.4,-1.6,25,-41.682,511.646,858.854,-0.349835,-0.40531,-1.59543,
2026_07_06_21_19_13.620,3.857,30.3,0,0.76,0,0,0,0, ,0,0,0,0,0, ,-42.3,511.3,859.1,-0.4,-0.4,-1.6,25,-41.6861,511.628,858.869,-0.352892,-0.404986,-1.59571,
2026_07_06_21_19_13.641,3.857,30.3,0,0.76,0,0,0,0, ,0,0,0,0,0, ,-41.8,512,859,-0.5,-0.4,-1.6,25,-41.7083,511.63,858.88,-0.35881,-0.404683,-1.59597,
2026_07_06_21_19_13.660,3.857,30.3,0,0.759,0,0,0,0, ,0,0,0,0,0, ,-41.7,512.6,858.1,-0.4,-0.4,-1.6,25,-41.7108,511.67,858.86,-0.364367,-0.404397,-1.59622,
2026_07_06_21_19_13.680,3.857,30.3,0,0.759,0,0,0,0, ,0,0,0,0,0, ,-40.8,512.5,858.6,-0.3,-0.4,-1.6,25,-41.6828,511.724,858.829,-0.363491,-0.404129,-1.59645,
2026_07_06_21_19_13.700,3.857,30.1,0,0.759,0,0,0,0, ,0,0,0,0,0, ,-42.1,511.7,859,-0.3,-0.4,-1.6,25,-41.6686,511.747,858.827,-0.359622,-0.403878,-1.59667,
2026_07_06_21_19_13.719,3.857,30.2,0,0.76,0,0,0,0, ,0,0,0,0,0, ,-41.9,513.9,858.3,-0.3,-0.4,-1.6,25,-41.6888,511.811,858.816,-0.355989,-0.403641,-1.59687,
2026_07_06_21_19_13.739,3.857,30.4,0,0.761,0,0,0,0, ,0,0,0,0,0, ,-41,511.2,858.7,-0.2,-0.5,-1.6,25,-41.6742,511.856,858.797,-0.34953,-0.406466,-1.59706,
2026_07_06_21_19_13.759,3.857,30.3,0,0.76,0,0,0,0, ,0,0,0,0,0, ,-41.1,511.4,859.6,-0.2,-0.4,-1.6,25,-41.6362,511.822,858.818,-0.340418,-0.409119,-1.59724,
2026_07_06_21_19_13.779,3.857,30.2,0,0.76,0,0,0,0, ,0,0,0,0,0, ,-41.6,511.1,858.1,-0.3,-0.4,-1.6,25,-41.6187,511.787,858.82,-0.334908,-0.408563,-1.59741,
2026_07_06_21_19_13.804,3.857,30.3,0,0.758,0,0,0,0, ,0,0,0,0,0, ,-40,510.7,858.1,-0.3,-0.3,-1.5,25,-41.5688,511.733,858.776,-0.332781,-0.404995,-1.59452,
2026_07_06_21_19_13.817,3.857,30.2,0,0.76,0,0,0,0, ,0,0,0,0,0, ,-42.4,510.7,856.5,-0.3,-0.4,-1.5,25,-41.5464,511.67,858.686,-0.330784,-0.401643,-1.58876,
2026_07_06_21_19_13.839,3.857,30.3,0,0.758,0,0,0,0, ,0,0,0,0,0, ,-42.9,511.3,859.3,-0.3,-0.5,-1.6,25,-41.6136,511.629,858.638,-0.328908,-0.40459,-1.5864,
2026_07_06_21_19_13.858,3.857,30.3,0,0.758,0,0,0,0, ,0,0,0,0,0, ,-41.5,510.9,858.6,-0.5,-0.4,-1.6,25,-41.6494,511.597,858.657,-0.33324,-0.407357,-1.58723,
2026_07_06_21_19_13.878,3.857,30.3,0,0.759,0,0,0,0, ,0,0,0,0,0, ,-41.3,511.7,859.4,-0.4,-0.4,-1.6,25,-41.6342,511.579,858.678,-0.340355,-0.406909,-1.588,
2026_07_06_21_19_13.898,3.857,30.3,0,0.758,0,0,0,0, ,0,0,0,0,0, ,-41.2,511.5,858.6,-0.4,-0.4,-1.6,25,-41.6107,511.58,858.698,-0.34399,-0.406488,-1.58874,
2026_07_06_21_19_13.917,3.857,30.2,0,0.759,0,0,0,0, ,0,0,0,0,0, ,-40.8,511.1,857.5,-0.4,-0.4,-1.6,25,-41.5735,511.563,858.658,-0.347403,-0.406093,-1.58942,
2026_07_06_21_19_13.937,3.857,30.3,0,0.759,0,0,0,0, ,0,0,0,0,0, ,-42.4,512.5,858.7,-0.4,-0.4,-1.5,25,-41.5751,511.578,858.624,-0.350608,-0.405721,-1.58702,
2026_07_06_21_19_13.957,3.857,30.3,0,0.76,0,0,0,0, ,0,0,0,0,0, ,-42.4,510.9,859.7,-0.4,-0.4,-1.7,25,-41.6254,511.585,858.659,-0.353618,-0.405373,-1.58781,
2026_07_06_21_19_13.977,3.857,30.3,0,0.759,0,0,0,0, ,0,0,0,0,0, ,-41.6,511.3,859.1,-0.4,-0.4,-1.6,25,-41.6482,511.556,858.705,-0.356444,-0.405045,-1.5916,
2026_07_06_21_19_13.997,3.857,30.2,0,0.759,0,0,0,0, ,0,0,0,0,0, ,-41.7,512.4,858.3,-0.4,-0.4,-1.5,25,-41.6483,511.574,858.704,-0.359098,-0.404738,-1.58907,
2026_07_06_21_19_14.016,3.857,30.2,0,0.76,0,0,0,0, ,0,0,0,0,0, ,-40.7,510.7,859.6,-0.3,-0.4,-1.6,25,-41.621,511.572,858.719,-0.358544,-0.404449,-1.58668,
2026_07_06_21_19_14.035,3.857,30.2,0,0.759,0,0,0,0, ,0,0,0,0,0, ,-41.9,512.3,859.2,-0.4,-0.4,-1.6,25,-41.6015,511.568,858.761,-0.358023,-0.404178,-1.5875,
2026_07_06_21_19_14.056,3.857,30.2,0,0.76,0,0,0,0, ,0,0,0,0,0, ,-41.1,511.5,858.2,-0.2,-0.4,-1.6,25,-41.5953,511.588,858.757,-0.354487,-0.403923,-1.58826,
2026_07_06_21_19_14.075,3.857,30.1,0,0.759,0,0,0,0, ,0,0,0,0,0, ,-41.6,511.5,858.3,-0.3,-0.4,-1.5,25,-41.5803,511.583,858.726,-0.34812,-0.403684,-1.58593,
2026_07_06_21_19_14.095,3.857,30.3,0,0.76,0,0,0,0, ,0,0,0,0,0, ,-42.3,512.3,860.3,-0.4,-0.4,-1.6,25,-41.6029,511.602,858.761,-0.348235,-0.40346,-1.58374,
2026_07_06_21_19_14.115,3.857,30.2,0,0.759,0,0,0,0, ,0,0,0,0,0, ,-42.2,511.2,857.2,-0.3,-0.4,-1.6,25,-41.6423,511.611,858.76,-0.348342,-0.403249,-1.58473,
2026_07_06_21_19_14.135,3.857,30.3,0,0.759,0,0,0,0, ,0,0,0,0,0, ,-40.8,511.8,857.9,-0.2,-0.5,-1.6,25,-41.6336,511.604,858.687,-0.34235,-0.406098,-1.58566,
2026_07_06_21_19_14.155,3.857,30.1,0,0.759,0,0,0,0, ,0,0,0,0,0, ,-43.4,511.7,858,-0.4,-0.4,-1.6,25,-41.662,511.613,858.642,-0.339769,-0.408773,-1.58653,
2026_07_06_21_19_14.177,3.857,30.3,0,0.759,0,0,0,0, ,0,0,0,0,0, ,-42.3,511.9,858.8,-0.4,-0.4,-1.6,25,-41.7344,511.624,858.627,-0.343439,-0.408239,-1.58735,
2026_07_06_21_19_14.194,3.857,30.3,0,0.759,0,0,0,0, ,0,0,0,0,0, ,-42.2,511.7,858.6,-0.4,-0.5,-1.6,25,-41.7659,511.635,858.632,-0.346886,-0.410783,-1.58812,
2026_07_06_21_19_14.214,3.857,30.2,0,0.76,0,0,0,0, ,0,0,0,0,0, ,-41.5,513,859,-0.4,-0.4,-1.6,25,-41.771,511.679,858.642,-0.350123,-0.413173,-1.58885,
2026_07_06_21_19_14.234,3.857,30.2,0,0.759,0,0,0,0, ,0,0,0,0,0, ,-41.2,511.9,858.5,-0.3,-0.4,-1.6,25,-41.7453,511.726,858.648,-0.350115,-0.41237,-1.58953,
2026_07_06_21_19_14.253,3.857,30.3,0,0.76,0,0,0,0, ,0,0,0,0,0, ,-41.9,511.9,858.5,-0.2,-0.4,-1.6,25,-41.7334,511.736,858.639,-0.344014,-0.411617,-1.59017,
2026_07_06_21_19_14.273,3.857,30.2,0,0.76,0,0,0,0, ,0,0,0,0,0, ,-42.2,510.7,859,-0.2,-0.4,-1.6,25,-41.7527,511.71,858.646,-0.335238,-0.410909,-1.59076,
2026_07_06_21_19_14.293,3.857,30.2,0,0.759,0,0,0,0, ,0,0,0,0,0, ,-41.8,510.3,858.6,-0.2,-0.4,-1.6,25,-41.7678,511.636,858.655,-0.326997,-0.410244,-1.59133,
2026_07_06_21_19_14.313,3.857,30.3,0,0.759,0,0,0,0, ,0,0,0,0,0, ,-40.8,509.8,857.6,-0.2,-0.4,-1.6,25,-41.7393,511.539,858.622,-0.319258,-0.40962,-1.59186,
2026_07_06_21_19_14.334,3.857,30.2,0,0.76,0,0,0,0, ,0,0,0,0,0, ,-41.1,512,858,-0.3,-0.3,-1.6,25,-41.6912,511.5,858.572,-0.315038,-0.405987,-1.59235,
2026_07_06_21_19_14.352,3.857,30.2,0,0.761,0,0,0,0, ,0,0,0,0,0, ,-41.2,512.5,858.1,-0.3,-0.4,-1.6,25,-41.6582,511.546,858.54,-0.314122,-0.402575,-1.59282,
2026_07_06_21_19_14.372,3.857,30.2,0,0.758,0,0,0,0, ,0,0,0,0,0, ,-45.4,509.2,855.4,-0.1,-0.5,-1.6,25,-41.7582,511.504,858.431,-0.307167,-0.405465,-1.59326,
2026_07_06_21_19_14.392,3.857,30.2,0,0.758,0,0,0,0, ,0,0,0,0,0, ,-41.7,508,859.7,-0.4,-0.5,-1.6,25,-41.8674,511.327,858.377,-0.303684,-0.411226,-1.59367,
2026_07_06_21_19_14.413,3.857,30.3,0,0.76,0,0,0,0, ,0,0,0,0,0, ,-40.5,512.5,858.8,-0.5,-0.4,-1.6,25,-41.8207,511.261,858.43,-0.3126,-0.413588,-1.59405,
2026_07_06_21_19_14.431,3.857,30.2,0,0.761,0,0,0,0, ,0,0,0,0,0, ,-41.7,511.1,858.5,-0.3,-0.4,-1.6,25,-41.7768,511.294,858.444,-0.317926,-0.41276,-1.59442,
2026_07_06_21_19_14.451,3.857,30.3,0,0.759,0,0,0,0, ,0,0,0,0,0, ,-41.9,510.8,858,-0.8,-0.4,-1.7,25,-41.7782,511.273,858.432,-0.332068,-0.411983,-1.5978,
2026_07_06_21_19_14.471,3.857,30.3,0,0.759,0,0,0,0, ,0,0,0,0,0, ,-42.6,515.1,857.7,-0.5,-0.4,-1.6,25,-41.8069,511.375,858.396,-0.351442,-0.411253,-1.60098,
2026_07_06_21_19_14.492,3.857,30.2,0,0.759,0,0,0,0, ,0,0,0,0,0, ,-40.8,512.2,859,0,-0.4,-1.7,25,-41.8004,511.514,858.394,-0.34526,-0.410567,-1.60397,
2026_07_06_21_19_14.518,3.857,30.2,0,0.759,0,0,0,0, ,0,0,0,0,0, ,-42.2,511.2,859,-0.5,-0.4,-1.6,25,-41.7821,511.525,858.43,-0.339455,-0.409923,-1.60678,
2026_07_06_21_19_14.531,3.857,30.2,0,0.759,0,0,0,0, ,0,0,0,0,0, ,-42.4,511.4,860.2,-0.6,-0.5,-1.6,25,-41.8137,511.511,858.502,-0.352285,-0.412365,-1.60636,
2026_07_06_21_19_14.551,3.857,30.2,0,0.76,0,0,0,0, ,0,0,0,0,0, ,-42.9,513.1,858.3,-0.1,-0.3,-1.6,25,-41.8646,511.556,858.547,-0.352146,-0.411612,-1.60597,
2026_07_06_21_19_14.570,3.857,30.2,0,0.76,0,0,0,0, ,0,0,0,0,0, ,-40.4,512.3,859.2,-0.3,-0.4,-1.6,25,-41.8515,511.626,858.56,-0.342875,-0.407857,-1.60561,
2026_07_06_21_19_14.590,3.857,30.2,0,0.759,0,0,0,0, ,0,0,0,0,0, ,-41.2,512.3,858.7,-0.2,-0.4,-1.6,25,-41.7875,511.667,858.583,-0.337215,-0.407378,-1.60527,
2026_07_06_21_19_14.610,3.857,30.3,0,0.759,0,0,0,0, ,0,0,0,0,0, ,-42.6,511.8,859.1,-0.3,-0.4,-1.5,25,-41.7943,511.691,858.603,-0.3319,-0.406929,-1.6019,
2026_07_06_21_19_14.629,3.857,30.3,0,0.759,0,0,0,0, ,0,0,0,0,0, ,-42.9,512.8,858,-0.3,-0.4,-1.6,25,-41.8526,511.728,858.6,-0.329957,-0.406507,-1.59874,
2026_07_06_21_19_14.649,3.857,30.2,0,0.761,0,0,0,0, ,0,0,0,0,0, ,-41.2,512.4,859.1,-0.2,-0.4,-1.5,25,-41.8646,511.781,858.597,-0.325084,-0.40611,-1.59577,
2026_07_06_21_19_14.669,3.857,30.2,0,0.758,0,0,0,0, ,0,0,0,0,0, ,-40.8,510.7,858.5,-0.1,-0.4,-1.6,25,-41.8119,511.767,858.609,-0.314415,-0.405738,-1.59298,
2026_07_06_21_19_14.690,3.857,30.2,0,0.759,0,0,0,0, ,0,0,0,0,0, ,-41.9,510.7,859.3,-0.3,-0.4,-1.6,25,-41.7838,511.702,858.627,-0.307443,-0.405388,-1.59341,
2026_07_06_21_19_14.709,3.857,30.2,0,0.76,0,0,0,0, ,0,0,0,0,0, ,-41.8,511.3,858.2,-0.5,-0.4,-1.6,25,-41.7878,511.659,858.634,-0.313083,-0.40506,-1.59381,
2026_07_06_21_19_14.728,3.857,30.2,0,0.759,0,0,0,0, ,0,0,0,0,0, ,-40.8,512.6,858.6,-0.2,-0.5,-1.6,25,-41.7581,511.677,858.62,-0.315333,-0.407798,-1.59419,
2026_07_06_21_19_14.748,3.857,30.2,0,0.759,0,0,0,0, ,0,0,0,0,0, ,-41.8,511.1,858.5,-0.3,-0.4,-1.6,25,-41.7302,511.687,858.616,-0.311351,-0.41037,-1.59454,
2026_07_06_21_19_14.768,3.857,30.1,0,0.76,0,0,0,0, ,0,0,0,0,0, ,-42.6,512.3,858.7,-0.5,-0.4,-1.6,25,-41.7588,511.688,858.615,-0.316753,-0.409738,-1.59487,
2026_07_06_21_19_14.788,3.857,30.2,0,0.758,0,0,0,0, ,0,0,0,0,0, ,-40.4,511.2,859.2,-0.4,-0.3,-1.6,25,-41.743,511.692,858.635,-0.324873,-0.406098,-1.59519,
2026_07_06_21_19_14.807,3.857,30.2,0,0.759,0,0,0,0, ,0,0,0,0,0, ,-42.2,511.9,858.5,-0.3,-0.4,-1.6,25,-41.716,511.683,858.648,-0.326404,-0.402679,-1.59548,
2026_07_06_21_19_14.828,3.857,30.3,0,0.76,0,0,0,0, ,0,0,0,0,0, ,-42.1,512.3,857.7,-0.4,-0.4,-1.6,25,-41.7425,511.709,858.615,-0.327842,-0.402516,-1.59575,
2026_07_06_21_19_14.848,3.857,30.2,0,0.759,0,0,0,0, ,0,0,0,0,0, ,-41.8,511.4,860.2,-0.3,-0.4,-1.7,25,-41.7551,511.717,858.635,-0.329192,-0.402363,-1.59906,
2026_07_06_21_19_14.867,3.857,30.3,0,0.759,0,0,0,0, ,0,0,0,0,0, ,-42.1,511.3,858.6,-0.4,-0.4,-1.5,25,-41.767,511.695,858.682,-0.33046,-0.402219,-1.59912,
2026_07_06_21_19_14.887,3.857,30.2,0,0.758,0,0,0,0, ,0,0,0,0,0, ,-41.6,513.4,858.1,-0.3,-0.4,-1.6,25,-41.772,511.735,858.662,-0.331651,-0.402084,-1.59612,
2026_07_06_21_19_14.906,3.857,30.3,0,0.76,0,0,0,0, ,0,0,0,0,0, ,-41.1,511.2,857.6,-0.3,-0.4,-1.6,25,-41.7463,511.769,858.612,-0.329722,-0.401957,-1.59636,
2026_07_06_21_19_14.926,3.857,30.1,0,0.759,0,0,0,0, ,0,0,0,0,0, ,-41.8,510.4,858,-0.4,-0.4,-1.6,25,-41.7283,511.71,858.563,-0.330958,-0.401837,-1.59658,
2026_07_06_21_19_14.947,3.857,30.2,0,0.76,0,0,0,0, ,0,0,0,0,0, ,-41.6,511.3,858.6,-0.4,-0.4,-1.6,25,-41.7265,511.658,858.547,-0.335165,-0.401725,-1.59679,
2026_07_06_21_19_14.966,3.857,30.2,0,0.759,0,0,0,0, ,0,0,0,0,0, ,-41.1,512.9,858.3,-0.3,-0.4,-1.6,25,-41.7036,511.685,858.541,-0.336069,-0.40162,-1.59699,
2026_07_06_21_19_14.986,3.857,30.2,0,0.759,0,0,0,0, ,0,0,0,0,0, ,-40.6,511.7,859.6,-0.4,-0.4,-1.6,25,-41.6516,511.722,858.566,-0.336918,-0.401522,-1.59717,
2026_07_06_21_19_15.006,3.857,30.3,0,0.759,0,0,0,0, ,0,0,0,0,0, ,-42.7,511.5,858.8,-0.4,-0.4,-1.6,25,-41.6515,511.715,858.604,-0.340762,-0.401429,-1.59734,
2026_07_06_21_19_15.029,3.857,30.2,0,0.761,0,0,0,0, ,0,0,0,0,0, ,-43,512.2,858.6,-0.4,-0.4,-1.6,25,-41.7245,511.723,858.61,-0.344372,-0.401342,-1.5975,
2026_07_06_21_19_15.045,3.857,30.3,0,0.76,0,0,0,0, ,0,0,0,0,0, ,-42.2,510.7,859.8,-0.4,-0.4,-1.6,25,-41.7779,511.706,858.646,-0.347762,-0.40126,-1.59766,
2026_07_06_21_19_15.065,3.857,30.3,0,0.76,0,0,0,0, ,0,0,0,0,0, ,-41,513,859.9,-0.3,-0.4,-1.6,25,-41.767,511.715,858.719,-0.347898,-0.401183,-1.5978,
2026_07_06_21_19_15.085,3.857,30.3,0,0.76,0,0,0,0, ,0,0,0,0,0, ,-40.7,511.1,859.2,-0.3,-0.4,-1.6,25,-41.7112,511.736,858.77,-0.344979,-0.401111,-1.59793,
2026_07_06_21_19_15.105,3.857,30.2,0,0.759,0,0,0,0, ,0,0,0,0,0, ,-43.5,512.4,859.2,-0.3,-0.4,-1.6,25,-41.7348,511.736,858.796,-0.342239,-0.401043,-1.59806,
2026_07_06_21_19_15.125,3.857,30.3,0,0.759,0,0,0,0, ,0,0,0,0,0, ,-41.8,511.3,859.9,-0.4,-0.4,-1.5,25,-41.7906,511.743,858.842,-0.342711,-0.40098,-1.59513,
2026_07_06_21_19_15.144,3.857,30.2,0,0.759,0,0,0,0, ,0,0,0,0,0, ,-42.3,511.9,859.2,-0.2,-0.4,-1.6,25,-41.8064,511.735,858.885,-0.340109,-0.40092,-1.59238,
2026_07_06_21_19_15.164,3.857,30.2,0,0.76,0,0,0,0, ,0,0,0,0,0, ,-42.6,511.9,858.3,-0.3,-0.4,-1.6,25,-41.8456,511.745,858.877,-0.334618,-0.400864,-1.59284,
2026_07_06_21_19_15.184,3.857,30.3,0,0.759,0,0,0,0, ,0,0,0,0,0, ,-41.9,511.7,858.8,-0.3,-0.4,-1.6,25,-41.8703,511.748,858.857,-0.332508,-0.400811,-1.59328,
2026_07_06_21_19_15.204,3.857,30.2,0,0.758,0,0,0,0, ,0,0,0,0,0, ,-41.9,511.2,859.3,-0.2,-0.4,-1.6,25,-41.8721,511.73,858.869,-0.32748,-0.400762,-1.59369,
2026_07_06_21_19_15.224,3.857,30.3,0,0.759,0,0,0,0, ,0,0,0,0,0, ,-41.1,511.3,858,-0.3,-0.4,-1.6,25,-41.8494,511.701,858.856,-0.322759,-0.400716,-1.59407,
2026_07_06_21_19_15.243,3.857,30.3,0,0.759,0,0,0,0, ,0,0,0,0,0, ,-42.7,509.6,859,-0.3,-0.4,-1.6,25,-41.8525,511.624,858.834,-0.321372,-0.400672,-1.59444,
2026_07_06_21_19_15.263,3.857,30.2,0,0.759,0,0,0,0, ,0,0,0,0,0, ,-40.8,511.1,858.2,-0.3,-0.4,-1.5,25,-41.8463,511.547,858.82,-0.32007,-0.400631,-1.59173,
2026_07_06_21_19_15.284,3.857,30.2,0,0.759,0,0,0,0, ,0,0,0,0,0, ,-41.2,512.2,858,-0.4,-0.5,-1.7,25,-41.7947,511.553,858.776,-0.321894,-0.403639,-1.59223,
2026_07_06_21_19_15.303,3.857,30.3,0,0.759,0,0,0,0, ,0,0,0,0,0, ,-42.1,512.2,858.8,-0.4,-0.4,-1.6,25,-41.7859,511.592,858.753,-0.326653,-0.406464,-1.59575,
2026_07_06_21_19_15.322,3.857,30.3,0,0.761,0,0,0,0, ,0,0,0,0,0, ,-41.8,510.6,858.3,-0.3,-0.4,-1.6,25,-41.7959,511.581,858.741,-0.328076,-0.406071,-1.59601,
2026_07_06_21_19_15.342,3.857,30.2,0,0.759,0,0,0,0, ,0,0,0,0,0, ,-42.6,512,859.4,-0.4,-0.4,-1.6,25,-41.8205,511.564,858.747,-0.329412,-0.405701,-1.59625,
2026_07_06_21_19_15.368,3.857,30.3,0,0.759,0,0,0,0, ,0,0,0,0,0, ,-41.9,511.4,859,-0.5,-0.4,-1.7,25,-41.8467,511.572,858.775,-0.33676,-0.405353,-1.59953,
2026_07_06_21_19_15.382,3.857,30.2,0,0.759,0,0,0,0, ,0,0,0,0,0, ,-42.2,511.2,858.8,-0.4,-0.4,-1.7,25,-41.8591,511.555,858.782,-0.343661,-0.405027,-1.60565,
2026_07_06_21_19_15.401,3.857,30.3,0,0.759,0,0,0,0, ,0,0,0,0,0, ,-42.2,512.4,859.3,-0.4,-0.4,-1.6,25,-41.8798,511.57,858.799,-0.347094,-0.404721,-1.60835,
2026_07_06_21_19_15.422,3.857,30.2,0,0.76,0,0,0,0, ,0,0,0,0,0, ,-41.9,511.4,858.8,-0.3,-0.4,-1.6,25,-41.8902,511.59,858.814,-0.347271,-0.404433,-1.60785,
2026_07_06_21_19_15.441,3.857,30.3,0,0.758,0,0,0,0, ,0,0,0,0,0, ,-41.6,512.9,859.2,-0.3,-0.3,-1.6,25,-41.8817,511.624,858.825,-0.34439,-0.401116,-1.60737,
2026_07_06_21_19_15.461,3.857,30.2,0,0.758,0,0,0,0, ,0,0,0,0,0, ,-40.5,512.9,857.9,-0.2,-0.3,-1.5,25,-41.831,511.702,858.809,-0.338639,-0.394954,-1.60387,
2026_07_06_21_19_15.481,3.857,30.3,0,0.759,0,0,0,0, ,0,0,0,0,0, ,-41.1,512.8,859.6,-0.2,-0.4,-1.6,25,-41.7682,511.772,858.805,-0.33019,-0.392215,-1.60059,
2026_07_06_21_19_15.500,3.857,30.3,0,0.759,0,0,0,0, ,0,0,0,0,0, ,-42.2,512.3,859.2,-0.4,-0.3,-1.6,25,-41.761,511.82,858.841,-0.328351,-0.389642,-1.60055,
2026_07_06_21_19_15.520,3.857,30.2,0,0.759,0,0,0,0, ,0,0,0,0,0, ,-42.1,512.8,859.4,-0.3,-0.4,-1.6,25,-41.7847,511.864,858.869,-0.32967,-0.387227,-1.60052,
2026_07_06_21_19_15.540,3.857,30.2,0,0.76,0,0,0,0, ,0,0,0,0,0, ,-41.2,512.8,858.8,-0.2,-0.4,-1.6,25,-41.7765,511.921,858.883,-0.324815,-0.388005,-1.60049,
2026_07_06_21_19_15.560,3.857,30.2,0,0.759,0,0,0,0, ,0,0,0,0,0, ,-40.8,512.4,859.3,-0.3,-0.3,-1.5,25,-41.7291,511.962,858.893,-0.320256,-0.385689,-1.59741,
2026_07_06_21_19_15.580,3.857,30.2,0,0.759,0,0,0,0, ,0,0,0,0,0, ,-41.2,510.7,858.5,-0.3,-0.3,-1.6,25,-41.6847,511.937,858.894,-0.319022,-0.380467,-1.59452,
2026_07_06_21_19_15.600,3.857,30.2,0,0.76,0,0,0,0, ,0,0,0,0,0, ,-41.6,511.4,858.8,-0.3,-0.4,-1.6,25,-41.6674,511.883,858.879,-0.317862,-0.378611,-1.59486,
2026_07_06_21_19_15.619,3.857,30.3,0,0.759,0,0,0,0, ,0,0,0,0,0, ,-42.1,512.3,858.7,-0.3,-0.4,-1.6,25,-41.6785,511.881,858.871,-0.316774,-0.379914,-1.59517,
2026_07_06_21_19_15.639,3.857,30.2,0,0.759,0,0,0,0, ,0,0,0,0,0, ,-42.6,513.3,858.2,-0.3,-0.3,-1.6,25,-41.7194,511.937,858.845,-0.315752,-0.378091,-1.59546,
2026_07_06_21_19_15.659,3.857,30.2,0,0.758,0,0,0,0, ,0,0,0,0,0, ,-40.2,504,861.4,1.9,0,-0.6,25,-41.6999,511.737,858.904,-0.247761,-0.364192,-1.56527,
2026_07_06_21_19_15.678,3.857,30.3,0,0.759,0,0,0,0, ,0,0,0,0,0, ,-97,500.9,863.8,1.3,4.9,7.2,25,-43.3392,511.171,859.129,-0.135163,-0.192702,-1.26879,
2026_07_06_21_19_15.699,3.857,30.3,0,0.759,0,0,0,0, ,0,0,0,0,0, ,-150.8,502.5,856.8,-7,1.6,1.3,25,-48.2483,510.594,859.2,-0.300598,0.0170874,-0.932492,
2026_07_06_21_19_15.719,3.857,30.2,0,0.759,0,0,0,0, ,0,0,0,0,0, ,-96.8,505.3,851,-8.1,-6,-10.7,25,-52.8523,510.186,858.877,-0.742359,-0.118016,-1.16207,
2026_07_06_21_19_15.739,3.857,30.3,0,0.759,0,0,0,0, ,0,0,0,0,0, ,-41,534.6,840.3,0.2,-11.5,-20,25,-53.8302,510.781,858.071,-0.937824,-0.644028,-2.02665,
2026_07_06_21_19_15.758,3.857,30.2,0,0.759,0,0,0,0, ,0,0,0,0,0, ,-39.3,492.5,868.5,3.3,-10.9,-18,25,-52.9965,510.95,857.848,-0.774035,-1.28728,-3.06096,
2026_07_06_21_19_15.778,3.857,30.2,0,0.759,0,0,0,0, ,0,0,0,0,0, ,36.6,515.8,858,-1.8,-8.9,-16.2,25,-49.8493,510.535,858.177,-0.681164,-1.81212,-3.91647,
2026_07_06_21_19_15.797,3.857,30.2,0,0.76,0,0,0,0, ,0,0,0,0,0, ,74.3,495.6,867.7,-2.3,-4.9,-8.9,25,-43.4327,510.241,858.462,-0.764577,-2.12216,-4.44257,
2026_07_06_21_19_15.817,3.857,30.2,0,0.759,0,0,0,0, ,0,0,0,0,0, ,-37.7,507.4,860.9,2.9,1.3,1.2,25,-39.6708,509.708,858.817,-0.699705,-2.10253,-4.40646,
2026_07_06_21_19_15.837,3.857,30.2,0,0.76,0,0,0,0, ,0,0,0,0,0, ,-41.8,521.6,854,2.2,0.2,-0.4,25,-39.6756,510,858.734,-0.501676,-1.9287,-4.11357,
2026_07_06_21_19_15.862,3.857,30.2,0,0.759,0,0,0,0, ,0,0,0,0,0, ,-42.9,514.6,860.1,-3.9,0,-0.5,25,-39.8386,510.494,858.631,-0.522902,-1.80508,-3.89032,
2026_07_06_21_19_15.878,3.857,30.2,0,0.76,0,0,0,0, ,0,0,0,0,0, ,-44.7,507.2,857.7,-6.7,2.4,3.6,25,-40.08,510.518,858.648,-0.814006,-1.62196,-3.5588,
2026_07_06_21_19_15.897,3.857,30.3,0,0.759,0,0,0,0, ,0,0,0,0,0, ,-55.5,513.4,855.8,0,-0.3,-1.4,25,-40.6906,510.505,858.532,-0.968543,-1.45914,-3.27491,
2026_07_06_21_19_15.916,3.857,30.2,0,0.759,0,0,0,0, ,0,0,0,0,0, ,-70.8,510.4,853.3,7.2,-0.7,-1.9,25,-42.0592,510.59,858.289,-0.690148,-1.40069,-3.17589,
2026_07_06_21_19_15.936,3.857,30.2,0,0.76,0,0,0,0, ,0,0,0,0,0, ,-74.7,517.7,852.6,9.2,-2.5,-3.8,25,-43.9294,510.801,857.964,-0.148404,-1.41283,-3.15603,
2026_07_06_21_19_15.956,3.857,30.2,0,0.759,0,0,0,0, ,0,0,0,0,0, ,-29.2,544.9,852.6,13.2,-5.7,-10.3,25,-44.4182,512.05,857.637,0.543139,-1.57658,-3.39332,
2026_07_06_21_19_15.976,3.857,30.3,0,0.759,0,0,0,0, ,0,0,0,0,0, ,-41.3,539,857,15.6,-3.3,-6.2,25,-43.8595,513.872,857.464,1.38754,-1.75473,-3.68927,
2026_07_06_21_19_15.996,3.857,30.2,0,0.759,0,0,0,0, ,0,0,0,0,0, ,-37.7,553.3,868.7,21,4.9,-3.3,25,-43.5939,515.839,857.792,2.41814,-1.59905,-3.75391,
2026_07_06_21_19_16.015,3.857,30.2,0,0.758,0,0,0,0, ,0,0,0,0,0, ,-56.5,599.1,966.1,15.4,10.5,-6.9,25,-43.8075,519.517,861.425,3.37985,-1.03239,-3.83594,
2026_07_06_21_19_16.035,3.857,30.2,0,0.759,0,0,0,0, ,0,0,0,0,0, ,-96.8,598.2,960,-14.9,8.2,-9,25,-45.8088,524.339,867.618,3.18913,-0.399713,-4.08664,
2026_07_06_21_19_16.055,3.857,30.2,0,0.759,0,0,0,0, ,0,0,0,0,0, ,-136.1,543.7,859.4,-23.3,6.5,-12.8,25,-50.1135,527.18,870.182,1.83088,0.0725355,-4.50183,
2026_07_06_21_19_16.075,3.857,30.2,0,0.759,0,0,0,0, ,0,0,0,0,0, ,-85.8,579.5,873,-9.7,0.5,-18.3,25,-53.8208,529.277,869.939,0.713844,0.281397,-5.17508,
2026_07_06_21_19_16.094,3.857,30.2,0,0.759,0,0,0,0, ,0,0,0,0,0, ,-52.4,592.6,908.4,-23.8,-13.6,-21.7,25,-54.7518,532.737,871.204,-0.350359,-0.134892,-6.07847,
2026_07_06_21_19_16.114,3.857,30.2,0,0.76,0,0,0,0, ,0,0,0,0,0, ,-44.3,586.4,918.5,-42,-25.5,-13,25,-54.3617,536.196,873.779,-2.33385,-1.318,-6.76533,
2026_07_06_21_19_16.134,3.857,30.3,0,0.76,0,0,0,0, ,0,0,0,0,0, ,-96.1,522,870.1,-33.3,-26.2,-2.4,25,-55.3269,537.293,875.029,-4.48593,-2.81292,-6.82228,
2026_07_06_21_19_16.154,3.857,30.2,0,0.758,0,0,0,0, ,0,0,0,0,0, ,-100.7,533,842.4,-41,-28.2,-6.3,25,-57.9516,536.696,873.885,-6.4764,-4.29901,-6.67163,
2026_07_06_21_19_16.174,3.857,30.2,0,0.759,0,0,0,0, ,0,0,0,0,0, ,-93.5,504.3,845.2,-39.6,-27.6,-14.8,25,-60.3372,535.597,872.052,-8.53752,-5.73719,-6.90797,
2026_07_06_21_19_16.194,3.857,30.2,0,0.76,0,0,0,0, ,0,0,0,0,0, ,-73.2,459.2,851.4,-33.9,-20.2,-20.7,25,-61.7396,532.315,870.604,-10.2567,-6.84399,-7.56865,
2026_07_06_21_19_16.213,3.857,30.2,0,0.759,0,0,0,0, ,0,0,0,0,0, ,4.7,463.5,900.5,-33.3,-14.3,-27.1,25,-60.0644,527.991,870.93,-11.6792,-7.4781,-8.56385,
2026_07_06_21_19_16.233,3.857,30.3,0,0.759,0,0,0,0, ,0,0,0,0,0, ,23,467.6,966.9,-38.7,-12,-25.7,25,-55.5603,524.186,874.755,-13.1612,-7.82374,-9.65074,
2026_07_06_21_19_16.253,3.857,30.2,0,0.759,0,0,0,0, ,0,0,0,0,0, ,-14,430.7,957.3,-43.6,-13.1,-16.3,25,-51.9004,519.613,880.078,-14.8668,-8.11174,-10.3423,
2026_07_06_21_19_16.273,3.857,30.3,0,0.758,0,0,0,0, ,0,0,0,0,0, ,-13.5,424.9,937.5,-48.8,-14.6,-13.7,25,-49.5756,514.018,884.18,-16.7762,-8.46142,-10.6262,
2026_07_06_21_19_16.293,3.857,30.3,0,0.76,0,0,0,0, ,0,0,0,0,0, ,-13.4,412.7,912.9,-47,-19.2,-13.1,25,-47.3742,508.216,886.68,-18.6728,-8.97564,-10.7952,
2026_07_06_21_19_16.312,3.857,30.2,0,0.759,0,0,0,0, ,0,0,0,0,0, ,-4.5,376.9,900.7,-39.9,-19.9,-5.6,25,-45.0327,501.305,887.906,-20.1826,-9.62002,-10.7071,
2026_07_06_21_19_16.332,3.857,30.2,0,0.76,0,0,0,0, ,0,0,0,0,0, ,12.4,335.8,911.6,-25.1,-17.5,16.3,25,-42.0478,492.472,889.018,-20.9332,-10.1733,-9.72864,
2026_07_06_21_19_16.351,3.857,30.2,0,0.76,0,0,0,0, ,0,0,0,0,0, ,18.5,374.8,932.1,-11.8,-19.9,26.9,25,-38.544,484.113,891.018,-20.7819,-10.6929,-7.81955,
2026_07_06_21_19_16.372,3.857,30.2,0,0.759,0,0,0,0, ,0,0,0,0,0, ,-12.5,378.1,960.2,-1.8,-15.9,20,25,-36.0124,477.552,894.378,-19.9299,-11.1321,-5.91407,
2026_07_06_21_19_16.392,3.857,30.2,0,0.76,0,0,0,0, ,0,0,0,0,0, ,9.1,367.6,960.5,-2,1.4,7,25,-33.9215,471.172,898.398,-18.8312,-10.8955,-4.73102,
2026_07_06_21_19_16.412,3.857,30.3,0,0.759,0,0,0,0, ,0,0,0,0,0, ,26.4,349.1,946.1,6.3,25.1,-0.8,25,-30.7728,464.297,901.744,-17.5527,-9.42417,-4.25382,
2026_07_06_21_19_16.431,3.857,30.3,0,0.76,0,0,0,0, ,0,0,0,0,0, ,6.5,360.1,950.3,0.4,34.6,-6.5,25,-27.8952,457.612,904.575,-16.2789,-7.0309,-4.21702,
2026_07_06_21_19_16.451,3.857,30.2,0,0.76,0,0,0,0, ,0,0,0,0,0, ,-8,366.2,929.1,1.1,25.7,-8.7,25,-26.241,451.856,906.715,-15.2412,-4.76519,-4.42317,
2026_07_06_21_19_16.471,3.857,30.2,0,0.759,0,0,0,0, ,0,0,0,0,0, ,-16.2,356.4,931.6,5,8.3,-7.6,25,-25.3793,446.338,908.155,-14.1266,-3.43887,-4.65028,
2026_07_06_21_19_16.491,3.857,30.2,0,0.758,0,0,0,0, ,0,0,0,0,0, ,-16.9,357.9,950.6,-0.3,-7.6,-5.5,25,-24.8413,440.903,910.163,-13.1225,-3.20799,-4.76604,
2026_07_06_21_19_16.511,3.857,30.2,0,0.76,0,0,0,0, ,0,0,0,0,0, ,-20.3,356.4,917.9,-2.1,-12.5,-4.4,25,-24.4609,435.799,911.631,-12.396,-3.62492,-4.77725,
2026_07_06_21_19_16.536,3.857,30.2,0,0.759,0,0,0,0, ,0,0,0,0,0, ,-25.3,369.7,913.2,0.6,-9.6,-6.6,25,-24.3597,431.366,911.87,-11.6863,-4.07739,-4.82129,
2026_07_06_21_19_16.550,3.857,30.2,0,0.76,0,0,0,0, ,0,0,0,0,0, ,-19.7,355.8,893.9,1.5,-1.2,-9.1,25,-24.2464,427.185,911.363,-10.9102,-4.15799,-5.00586,
2026_07_06_21_19_16.570,3.857,30.2,0,0.759,0,0,0,0, ,0,0,0,0,0, ,-7.3,375.8,934.2,3.1,8.6,-10.9,25,-23.5915,423.444,911.526,-10.1052,-3.67914,-5.31019,
2026_07_06_21_19_16.590,3.857,30.2,0,0.759,0,0,0,0, ,0,0,0,0,0, ,-19.7,370.7,950,-3.5,13,-13.8,25,-22.9766,420.385,913.389,-9.50161,-2.79682,-5.73917,
2026_07_06_21_19_16.609,3.857,30.3,0,0.76,0,0,0,0, ,0,0,0,0,0, ,-22,376.8,900.5,-4.5,14.3,-17.7,25,-22.847,417.543,914.112,-9.16636,-1.79459,-6.34921,
2026_07_06_21_19_16.629,3.857,30.2,0,0.76,0,0,0,0, ,0,0,0,0,0, ,-19.6,370.1,874.5,0.5,17.3,-18.1,25,-22.7222,414.856,912.49,-8.72966,-0.72242,-7.05309,
2026_07_06_21_19_16.648,3.857,30.1,0,0.76,0,0,0,0, ,0,0,0,0,0, ,-20.1,361,875.4,4.7,19.1,-15,25,-22.5472,411.852,910.203,-8.03926,0.430665,-7.6318,
2026_07_06_21_19_16.669,3.857,30.3,0,0.76,0,0,0,0, ,0,0,0,0,0, ,-27.2,375.6,896.4,5.5,15.7,-12.7,25,-22.6144,409.198,908.722,-7.23859,1.46473,-8.01072,
2026_07_06_21_19_16.688,3.857,30.2,0,0.76,0,0,0,0, ,0,0,0,0,0, ,-32.1,376.8,917.7,3.6,9.2,-11.2,25,-23.0432,407.187,908.62,-6.52022,2.13415,-8.25077,
2026_07_06_21_19_16.709,3.857,30.3,0,0.759,0,0,0,0, ,0,0,0,0,0, ,-36.4,386.1,913.3,1.2,5.8,-8.8,25,-23.7261,405.619,909.039,-5.97664,2.46113,-8.35737,
2026_07_06_21_19_16.728,3.857,30.2,0,0.759,0,0,0,0, ,0,0,0,0,0, ,-52.9,378.9,906.8,-2,6.9,-7.7,25,-25.0011,404.21,909.101,-5.63682,2.69811,-8.35083,
2026_07_06_21_19_16.748,3.857,30.3,0,0.759,0,0,0,0, ,0,0,0,0,0, ,-64.9,379.2,887.5,-0.4,8,-7.4,25,-27.0668,402.677,908.373,-5.36645,2.98768,-8.30202,
2026_07_06_21_19_16.768,3.857,30.3,0,0.759,0,0,0,0, ,0,0,0,0,0, ,-59.2,380.9,904.7,2.4,7.9,-9.1,25,-29.1986,401.298,907.625,-4.97849,3.29007,-8.29885,
2026_07_06_21_19_16.788,3.857,30.2,0,0.76,0,0,0,0, ,0,0,0,0,0, ,-54.9,380.7,929,-0.8,8.1,-8.4,25,-30.8958,400.049,908.187,-4.62637,3.57708,-8.32635,
2026_07_06_21_19_16.807,3.857,30.3,0,0.759,0,0,0,0, ,0,0,0,0,0, ,-58.8,391.1,927.7,-5.7,7.3,-5.8,25,-32.4774,399.187,909.416,-4.54249,3.82832,-8.25162,
2026_07_06_21_19_16.827,3.857,30.2,0,0.758,0,0,0,0, ,0,0,0,0,0, ,-74,376.2,897.8,-5.3,7.1,-5,25,-34.5446,398.24,909.619,-4.60084,4.03378,-8.07785,
2026_07_06_21_19_16.846,3.857,30.3,0,0.759,0,0,0,0, ,0,0,0,0,0, ,-87.7,370.2,889.7,-3,6.3,-6,25,-37.3663,396.714,908.652,-4.57337,4.19625,-7.92076,
2026_07_06_21_19_16.866,3.857,30.2,0,0.76,0,0,0,0, ,0,0,0,0,0, ,-82.3,373.9,905.3,-0.9,2.1,-6.6,25,-40.269,395.211,907.972,-4.41351,4.19648,-7.82199,
2026_07_06_21_19_16.886,3.857,30.3,0,0.758,0,0,0,0, ,0,0,0,0,0, ,-64.2,373.6,916,-3.4,-3.2,-4.3,25,-42.2788,393.903,908.135,-4.27557,3.90724,-7.67745,
2026_07_06_21_19_16.906,3.857,30.3,0,0.759,0,0,0,0, ,0,0,0,0,0, ,-57.4,375.6,916.5,-2.2,-5,-1,25,-43.4074,392.727,908.63,-4.18566,3.4193,-7.37109,
2026_07_06_21_19_16.926,3.857,30.3,0,0.759,0,0,0,0, ,0,0,0,0,0, ,-68.1,374.2,896.6,-1,-5.4,0.3,25,-44.5861,391.641,908.503,-4.02809,2.89406,-6.94324,
2026_07_06_21_19_16.946,3.857,30.3,0,0.76,0,0,0,0, ,0,0,0,0,0, ,-81.5,369.2,907.9,1.7,-7.6,1.7,25,-46.4272,390.426,908.122,-3.7613,2.32161,-6.4592,
2026_07_06_21_19_16.966,3.857,30.1,0,0.76,0,0,0,0, ,0,0,0,0,0, ,-80,372.4,920.7,1.9,-10,1.9,25,-48.5188,389.23,908.499,-3.42241,1.64389,-5.95591,
2026_07_06_21_19_16.986,3.857,30.1,0,0.758,0,0,0,0, ,0,0,0,0,0, ,-68.4,375.4,927.7,-1,-14.7,1.7,25,-50.0837,388.295,909.455,-3.18644,0.791137,-5.48328,
2026_07_06_21_19_17.005,3.857,30.2,0,0.759,0,0,0,0, ,0,0,0,0,0, ,-59.4,377.6,921.7,-2.5,-15,2.1,25,-50.9257,387.577,910.384,-3.0989,-0.161994,-5.03336,
2026_07_06_21_19_17.025,3.857,30.1,0,0.759,0,0,0,0, ,0,0,0,0,0, ,-55.5,375.3,909.3,-0.8,-12.7,3.5,25,-51.3232,386.899,910.696,-3.01061,-0.996107,-4.55602,
2026_07_06_21_19_17.051,3.857,30.3,0,0.758,0,0,0,0, ,0,0,0,0,0, ,-58.3,374.1,913.3,1.9,-11.5,3.8,25,-51.6631,386.155,910.733,-2.79364,-1.67275,-4.05596,
2026_07_06_21_19_17.065,3.857,30.2,0,0.759,0,0,0,0, ,0,0,0,0,0, ,-59.3,368.1,918.5,0.5,-13,3.7,25,-52.098,385.238,911.048,-2.55027,-2.3173,-3.58029,
2026_07_06_21_19_17.085,3.857,30.2,0,0.76,0,0,0,0, ,0,0,0,0,0, ,-53.8,368.5,917.1,0,-12.7,4.9,25,-52.3693,384.206,911.459,-2.37963,-2.95914,-3.10008,
2026_07_06_21_19_17.104,3.857,30.3,0,0.759,0,0,0,0, ,0,0,0,0,0, ,-55.4,362,904.1,0.8,-11.9,4.1,25,-52.5052,383.051,911.407,-2.21025,-3.52835,-2.63695,
2026_07_06_21_19_17.124,3.857,30.3,0,0.759,0,0,0,0, ,0,0,0,0,0, ,-44.6,363.7,904.6,0.2,-12.7,1,25,-52.3525,381.82,910.977,-2.04509,-4.06287,-2.32087,
2026_07_06_21_19_17.143,3.857,30.2,0,0.76,0,0,0,0, ,0,0,0,0,0, ,-31.1,362.9,899.5,0.9,-12.8,2.3,25,-51.4688,380.691,910.433,-1.88695,-4.59224,-2.0789,
2026_07_06_21_19_17.163,3.857,30.2,0,0.759,0,0,0,0, ,0,0,0,0,0, ,-26.9,373.1,919,1.9,-14.6,4.7,25,-50.0996,379.918,910.361,-1.68666,-5.14725,-1.73893,
2026_07_06_21_19_17.183,3.857,30.3,0,0.76,0,0,0,0, ,0,0,0,0,0, ,-15.5,370.1,905.1,1.9,-16.6,4.1,25,-48.3385,379.411,910.464,-1.46809,-5.78421,-1.36484,
2026_07_06_21_19_17.203,3.857,30.2,0,0.76,0,0,0,0, ,0,0,0,0,0, ,-4.2,374.6,909,2.9,-14.4,3,25,-45.9931,378.981,910.256,-1.23238,-6.37627,-1.06534,
2026_07_06_21_19_17.223,3.857,30.2,0,0.758,0,0,0,0, ,0,0,0,0,0, ,-10.7,377.5,939.4,3.8,-10.3,3.9,25,-43.6444,378.802,911.105,-0.953143,-6.74029,-0.79019,
2026_07_06_21_19_17.243,3.857,30.1,0,0.759,0,0,0,0, ,0,0,0,0,0, ,-25.1,382.5,936.8,-2.3,-9.2,4.3,25,-42.0756,378.875,912.75,-0.849358,-6.92369,-0.492194,
2026_07_06_21_19_17.263,3.857,30.2,0,0.76,0,0,0,0, ,0,0,0,0,0, ,-21.9,382.6,915.1,0.2,-6.8,2.6,25,-40.9437,379.099,913.555,-0.861584,-6.98928,-0.251966,
2026_07_06_21_19_17.283,3.857,30.2,0,0.759,0,0,0,0, ,0,0,0,0,0, ,-11.9,380.4,935.1,1.6,-4.1,-0.7,25,-39.4785,379.245,914.258,-0.754238,-6.89548,-0.178722,
2026_07_06_21_19_17.302,3.857,30.1,0,0.759,0,0,0,0, ,0,0,0,0,0, ,-1.7,381.8,930.9,-0.4,-1.8,-2.1,25,-37.4872,379.358,915.4,-0.671714,-6.65505,-0.253143,
2026_07_06_21_19_17.323,3.857,30.2,0,0.759,0,0,0,0, ,0,0,0,0,0, ,-5.7,383.4,930.9,-1.4,-0.8,-0.8,25,-35.4283,379.556,916.345,-0.685625,-6.32873,-0.326077,
2026_07_06_21_19_17.342,3.857,30.1,0,0.759,0,0,0,0, ,0,0,0,0,0, ,-14.4,385.6,925.9,-2.5,-1.7,0.5,25,-33.8818,379.857,917.079,-0.762673,-6.01925,-0.315347,
2026_07_06_21_19_17.362,3.857,30.3,0,0.759,0,0,0,0, ,0,0,0,0,0, ,-15.9,383.9,912.7,-1,-1.7,-0.3,25,-32.7403,380.155,917.215,-0.822838,-5.75604,-0.290037,
2026_07_06_21_19_17.381,3.857,30.2,0,0.758,0,0,0,0, ,0,0,0,0,0, ,-13.4,383,925.6,1.7,0.2,-2.3,25,-31.6379,380.356,917.333,-0.751368,-5.45099,-0.351581,
2026_07_06_21_19_17.401,3.857,30.2,0,0.759,0,0,0,0, ,0,0,0,0,0, ,1.4,389.7,939.2,0.3,1.9,-5.2,25,-30.0756,380.721,918.251,-0.644644,-5.05483,-0.558673,
2026_07_06_21_19_17.421,3.857,30.3,0,0.759,0,0,0,0, ,0,0,0,0,0, ,11.7,391.2,943.2,-1.2,4.4,-4.5,25,-27.8437,381.314,919.649,-0.632783,-4.55485,-0.820175,
2026_07_06_21_19_17.441,3.857,30.2,0,0.758,0,0,0,0, ,0,0,0,0,0, ,-8.7,382.3,924.9,-1.8,8.7,-2.1,25,-26.0556,381.645,920.527,-0.685629,-3.87815,-0.97129,
2026_07_06_21_19_17.460,3.857,30.2,0,0.759,0,0,0,0, ,0,0,0,0,0, ,-27.7,376.2,913.2,-1,10.7,-4.1,25,-25.5769,381.499,920.437,-0.729161,-3.05073,-1.10101,
2026_07_06_21_19_17.480,3.857,30.2,0,0.76,0,0,0,0, ,0,0,0,0,0, ,-24.7,375,934.6,0,8.1,-6.5,25,-25.6149,381.14,920.648,-0.715197,-2.29201,-1.35688,
2026_07_06_21_19_17.500,3.857,30.2,0,0.76,0,0,0,0, ,0,0,0,0,0, ,-21.4,378.4,939.6,-2.4,4.3,-4.6,25,-25.4586,380.869,921.65,-0.744739,-1.77453,-1.6124,
2026_07_06_21_19_17.519,3.857,30.2,0,0.76,0,0,0,0, ,0,0,0,0,0, ,-33.4,377,912.8,-3.5,3.9,-2.5,25,-25.5769,380.676,921.928,-0.879122,-1.41655,-1.73047,
2026_07_06_21_19_17.540,3.857,30.1,0,0.76,0,0,0,0, ,0,0,0,0,0, ,-31,377.1,907.2,-0.3,5.9,-5.8,25,-25.9805,380.455,921.201,-0.941332,-1.03164,-1.87791,
2026_07_06_21_19_17.562,3.857,30.1,0,0.759,0,0,0,0, ,0,0,0,0,0, ,-17.7,373.1,920.7,-1.8,8.1,-7.2,25,-25.8811,380.129,920.759,-0.947954,-0.54221,-2.15957,
2026_07_06_21_19_17.580,3.857,30.1,0,0.758,0,0,0,0, ,0,0,0,0,0, ,-23.9,373.4,920.4,-1.5,10.3,-3.4,25,-25.5715,379.71,920.746,-0.990735,0.0514562,-2.35094,
2026_07_06_21_19_17.599,3.857,30.1,0,0.759,0,0,0,0, ,0,0,0,0,0, ,-51.2,367.9,900.7,1.6,9.4,-1.3,25,-26.3014,379.158,920.125,-0.927315,0.648555,-2.35088,
2026_07_06_21_19_17.619,3.857,30.1,0,0.759,0,0,0,0, ,0,0,0,0,0, ,-55.9,375.1,918.7,1.4,3.1,-4,25,-27.9619,378.691,919.49,-0.779401,0.989893,-2.36911,
2026_07_06_21_19_17.639,3.857,30.1,0,0.759,0,0,0,0, ,0,0,0,0,0, ,-26.1,384.6,928.8,0.1,-1,-4.8,25,-28.7564,378.762,919.749,-0.686203,0.993556,-2.49287,
2026_07_06_21_19_17.659,3.857,30.2,0,0.759,0,0,0,0, ,0,0,0,0,0, ,-19.4,380.7,926.5,0.5,-0.5,-2.8,25,-28.3904,378.999,920.231,-0.626106,0.887308,-2.57252,
2026_07_06_21_19_17.679,3.857,30,0,0.759,0,0,0,0, ,0,0,0,0,0, ,-33.5,377,913.9,0.4,3.4,1.2,25,-28.2721,378.99,920.229,-0.560531,0.921597,-2.46451,
2026_07_06_21_19_17.698,3.857,30.2,0,0.758,0,0,0,0, ,0,0,0,0,0, ,-57.3,378,914.4,1.6,4.5,-0.9,25,-29.3159,378.899,919.858,-0.465436,1.10614,-2.30519,
2026_07_06_21_19_17.722,3.857,30.2,0,0.76,0,0,0,0, ,0,0,0,0,0, ,-56.1,380.9,939,1.4,0.1,-4.3,25,-30.9846,378.932,920.275,-0.345667,1.17889,-2.32315,
2026_07_06_21_19_17.738,3.857,30.2,0,0.759,0,0,0,0, ,0,0,0,0,0, ,-35,381.8,934.4,-1.9,-4.5,-2.9,25,-31.8722,379.08,921.276,-0.339838,0.97299,-2.40096,
2026_07_06_21_19_17.757,3.857,30.2,0,0.759,0,0,0,0, ,0,0,0,0,0, ,-31.9,369.5,897.7,-1.4,-3.9,0.6,25,-31.9683,378.871,920.958,-0.419676,0.657761,-2.32473,
2026_07_06_21_19_17.778,3.857,30.2,0,0.758,0,0,0,0, ,0,0,0,0,0, ,-33.3,381.3,922.6,2.9,-1.8,-0.3,25,-32.0068,378.659,920.299,-0.348399,0.444007,-2.17393,
2026_07_06_21_19_17.797,3.857,30.2,0,0.759,0,0,0,0, ,0,0,0,0,0, ,-28.5,386.9,949.4,-0.2,-3.1,-1.2,25,-31.9394,378.991,921.256,-0.244902,0.267653,-2.08716,
2026_07_06_21_19_17.817,3.857,30.2,0,0.759,0,0,0,0, ,0,0,0,0,0, ,-31.8,385.6,931.8,-2.3,-4.1,2.6,25,-31.8303,379.433,922.435,-0.30615,0.031968,-1.91731,
2026_07_06_21_19_17.836,3.857,30.2,0,0.76,0,0,0,0, ,0,0,0,0,0, ,-55.1,382,908.4,0.1,-5.8,2.9,25,-32.5384,379.699,922.292,-0.354526,-0.271621,-1.6329,
2026_07_06_21_19_17.856,3.857,30.1,0,0.758,0,0,0,0, ,0,0,0,0,0, ,-44.6,391.6,922.7,1,-9.7,-0.5,25,-33.5933,380.132,921.882,-0.299406,-0.727334,-1.46027,
2026_07_06_21_19_17.881,3.857,30.1,0,0.758,0,0,0,0, ,0,0,0,0,0, ,-30.3,380.1,924.5,-0.7,-9.8,1.5,25,-33.8283,380.48,921.986,-0.27202,-1.27715,-1.34082,
2026_07_06_21_19_17.896,3.857,30.2,0,0.758,0,0,0,0, ,0,0,0,0,0, ,-31.6,386.5,929.1,1.4,-6.2,1.9,25,-33.6529,380.652,922.28,-0.234116,-1.68683,-1.15552,
2026_07_06_21_19_17.916,3.857,30.1,0,0.759,0,0,0,0, ,0,0,0,0,0, ,-22.7,396.9,946.1,0,-6.2,-1.2,25,-33.2567,381.325,923.213,-0.177193,-1.96185,-1.06377,
2026_07_06_21_19_17.936,3.857,30.1,0,0.76,0,0,0,0, ,0,0,0,0,0, ,-9,387.3,926.2,-1.7,-6.7,0,25,-32.196,381.982,924.002,-0.218193,-2.23534,-1.03551,
2026_07_06_21_19_17.956,3.857,30.2,0,0.76,0,0,0,0, ,0,0,0,0,0, ,-15,387.9,906.7,-0.3,-7,2.3,25,-30.9653,382.324,923.541,-0.265834,-2.51655,-0.902333,
2026_07_06_21_19_17.976,3.857,30.3,0,0.761,0,0,0,0, ,0,0,0,0,0, ,-26.9,383.6,912.9,1.1,-8.1,1.5,25,-30.355,382.533,922.704,-0.22526,-2.82328,-0.731566,
2026_07_06_21_19_17.995,3.857,30.1,0,0.759,0,0,0,0, ,0,0,0,0,0, ,-18.4,389.5,926.2,0.5,-9.2,-0.3,25,-29.8854,382.778,922.512,-0.162783,-3.17834,-0.650423,
2026_07_06_21_19_18.015,3.857,30.2,0,0.759,0,0,0,0, ,0,0,0,0,0, ,-0.1,389.4,925,-1.1,-7.6,0,25,-28.628,383.184,922.7,-0.171145,-3.49654,-0.619929,
2026_07_06_21_19_18.034,3.857,30.2,0,0.759,0,0,0,0, ,0,0,0,0,0, ,-2.1,381.9,904.2,-0.4,-3.7,0.8,25,-26.9505,383.335,922.206,-0.206419,-3.62776,-0.557777,
2026_07_06_21_19_18.054,3.857,30.3,0,0.759,0,0,0,0, ,0,0,0,0,0, ,-5.7,395.9,924.4,2.1,-3.7,-0.6,25,-25.5458,383.674,921.725,-0.142043,-3.63217,-0.517694,
2026_07_06_21_19_18.074,3.857,30.2,0,0.758,0,0,0,0, ,0,0,0,0,0, ,10.3,394.2,935.1,-0.8,-5.6,-1.4,25,-23.849,384.367,922.214,-0.093778,-3.69419,-0.547084,
2026_07_06_21_19_18.095,3.857,30.2,0,0.759,0,0,0,0, ,0,0,0,0,0, ,5.9,384.3,920.2,-1.2,-2,1.7,25,-21.9021,384.665,922.545,-0.149001,-3.70064,-0.504606,
2026_07_06_21_19_18.114,3.857,30.1,0,0.759,0,0,0,0, ,0,0,0,0,0, ,-24.4,382,909.5,0.1,2.7,0.5,25,-21.1311,384.572,922.076,-0.173437,-3.4538,-0.406825,
2026_07_06_21_19_18.134,3.857,30.2,0,0.759,0,0,0,0, ,0,0,0,0,0, ,-27.7,384.8,910.8,1.6,3.3,-4.4,25,-21.4309,384.501,921.349,-0.111071,-3.06052,-0.500862,
2026_07_06_21_19_18.154,3.857,30.2,0,0.759,0,0,0,0, ,0,0,0,0,0, ,0.6,386.9,925.4,0.8,1,-6,25,-20.9506,384.583,921.151,-0.0311777,-2.74301,-0.787216,
2026_07_06_21_19_18.175,3.857,30.2,0,0.758,0,0,0,0, ,0,0,0,0,0, ,11.3,391.4,922.4,0,-0.5,-2.2,25,-19.3114,384.861,921.319,-0.00490281,-2.56062,-0.989089,
2026_07_06_21_19_18.194,3.857,30.2,0,0.759,0,0,0,0, ,0,0,0,0,0, ,-6.4,395.9,920.6,1.4,-0.9,0.1,25,-17.9853,385.397,921.33,0.0380522,-2.44724,-0.9928,
2026_07_06_21_19_18.219,3.857,30.1,0,0.76,0,0,0,0, ,0,0,0,0,0, ,-18,391.1,929.9,0.6,-2,-1.3,25,-17.6327,385.891,921.569,0.0966709,-2.38647,-0.968864,
2026_07_06_21_19_18.233,3.857,30.1,0,0.759,0,0,0,0, ,0,0,0,0,0, ,-10.7,386.2,922.7,-0.9,-0.6,-2.6,25,-17.4327,386.059,921.857,0.0816394,-2.32026,-1.02865,
2026_07_06_21_19_18.254,3.857,30.1,0,0.759,0,0,0,0, ,0,0,0,0,0, ,-1.5,389.1,917.1,0.1,4,-3.6,25,-16.7421,386.156,921.738,0.0522895,-2.07528,-1.15487,
2026_07_06_21_19_18.273,3.857,30.2,0,0.76,0,0,0,0, ,0,0,0,0,0, ,-3.6,383.9,921.7,0.8,7.3,-3.6,25,-15.8773,386.177,921.595,0.076525,-1.60452,-1.30387,
2026_07_06_21_19_18.293,3.857,30.1,0,0.759,0,0,0,0, ,0,0,0,0,0, ,-9.8,391.3,922.6,-0.8,5.5,-3,25,-15.318,386.264,921.629,0.0718617,-1.11674,-1.42551,
2026_07_06_21_19_18.312,3.857,30.2,0,0.758,0,0,0,0, ,0,0,0,0,0, ,-16.3,385,918.2,-0.9,3.2,-2.3,25,-15.1798,386.378,921.554,0.0156858,-0.783614,-1.50013,
2026_07_06_21_19_18.332,3.857,30.1,0,0.759,0,0,0,0, ,0,0,0,0,0, ,-21.8,390.2,919.3,-0.4,3.1,-2.6,25,-15.4157,386.453,921.383,-0.0248794,-0.54391,-1.55801,
2026_07_06_21_19_18.351,3.857,30.2,0,0.758,0,0,0,0, ,0,0,0,0,0, ,-22.8,396.3,922.9,-0.2,2.8,-3.4,25,-15.8352,386.867,921.366,-0.0416446,-0.330999,-1.64588,
2026_07_06_21_19_18.371,3.857,30.2,0,0.759,0,0,0,0, ,0,0,0,0,0, ,-25.2,376.9,910.4,-1.4,2.4,-3.1,25,-16.3327,386.851,921.079,-0.0878569,-0.152392,-1.74364,
2026_07_06_21_19_18.391,3.857,30.2,0,0.759,0,0,0,0, ,0,0,0,0,0, ,-17.7,387.6,918.2,-1.8,1.4,-3.6,25,-16.6446,386.57,920.666,-0.180003,-0.0273241,-1.84152,
2026_07_06_21_19_18.411,3.857,30.1,0,0.759,0,0,0,0, ,0,0,0,0,0, ,-19.7,382,908.6,1.3,1.4,-1.7,25,-16.7698,386.463,920.223,-0.184269,0.0596534,-1.89079,
2026_07_06_21_19_18.431,3.857,30.2,0,0.758,0,0,0,0, ,0,0,0,0,0, ,-5.9,402.2,936.8,0.8,-0.2,-3.6,25,-16.5279,386.806,920.374,-0.109055,0.0925808,-1.93705,
2026_07_06_21_19_18.451,3.857,30.2,0,0.758,0,0,0,0, ,0,0,0,0,0, ,-3,392.7,928.1,-0.3,-0.7,-1.1,25,-15.7919,387.455,921.11,-0.0871754,0.0595173,-1.96222,
2026_07_06_21_19_18.471,3.857,30.1,0,0.758,0,0,0,0, ,0,0,0,0,0, ,-24.1,391.2,923,-1,-0.7,1.2,25,-15.6553,387.729,921.38,-0.121472,0.0132342,-1.8396,
2026_07_06_21_19_18.490,3.857,30.1,0,0.758,0,0,0,0, ,0,0,0,0,0, ,-36.2,385,918.8,0.1,-1.3,-0.7,25,-16.5386,387.751,921.351,-0.141492,-0.0485097,-1.71226,
2026_07_06_21_19_18.510,3.857,30.1,0,0.76,0,0,0,0, ,0,0,0,0,0, ,-29.9,392.9,923.9,-0.6,-1.4,-2.2,25,-17.5447,387.824,921.351,-0.148104,-0.127819,-1.69628,
2026_07_06_21_19_18.530,3.857,30.2,0,0.759,0,0,0,0, ,0,0,0,0,0, ,-17,393.7,925.2,0.3,-0.4,-2.4,25,-17.9046,388.158,921.546,-0.14822,-0.174874,-1.73307,
2026_07_06_21_19_18.553,3.857,30.1,0,0.758,0,0,0,0, ,0,0,0,0,0, ,-6.2,396.6,924.3,-0.9,-0.9,-2.6,25,-17.5204,388.584,921.741,-0.157469,-0.203827,-1.77981,
2026_07_06_21_19_18.570,3.857,30,0,0.758,0,0,0,0, ,0,0,0,0,0, ,-9.1,393,923.5,0,-1.8,0.1,25,-16.9189,388.963,921.873,-0.175295,-0.273672,-1.74752,
2026_07_06_21_19_18.589,3.857,30.2,0,0.759,0,0,0,0, ,0,0,0,0,0, ,-23.1,393,922.2,-1,-3.3,1,25,-16.869,389.209,921.932,-0.195082,-0.412386,-1.60752,
2026_07_06_21_19_18.609,3.857,30.2,0,0.759,0,0,0,0, ,0,0,0,0,0, ,-15.6,389.8,909,0,-3.4,-0.8,25,-17.0202,389.342,921.546,-0.213663,-0.591397,-1.50346,
2026_07_06_21_19_18.629,3.857,30.2,0,0.758,0,0,0,0, ,0,0,0,0,0, ,-7.6,387.2,908.3,1,-2.4,-0.8,25,-16.6899,389.291,920.761,-0.170174,-0.732077,-1.4606,
2026_07_06_21_19_18.649,3.857,30.1,0,0.76,0,0,0,0, ,0,0,0,0,0, ,-20.2,396.4,933.2,2.7,-3.6,0.8,25,-16.5199,389.444,920.76,-0.0470696,-0.870279,-1.37159,
2026_07_06_21_19_18.668,3.857,30.2,0,0.759,0,0,0,0, ,0,0,0,0,0, ,-23,405.5,934.5,-1.8,-8.1,0.3,25,-16.8295,390.145,921.558,-0.0167794,-1.17373,-1.25449,
2026_07_06_21_19_18.688,3.857,30.3,0,0.759,0,0,0,0, ,0,0,0,0,0, ,-7.6,399.9,920,-1.1,-7.1,-0.3,25,-16.7363,390.91,921.904,-0.104116,-1.56533,-1.17805,
2026_07_06_21_19_18.708,3.857,30.1,0,0.758,0,0,0,0, ,0,0,0,0,0, ,0,399,914.3,1.1,-2.5,-1.1,25,-15.948,391.431,921.615,-0.0977717,-1.76244,-1.14892,
2026_07_06_21_19_18.730,3.857,30.2,0,0.758,0,0,0,0, ,0,0,0,0,0, ,-2.4,397,937.7,0.9,-0.3,-0.9,25,-15.0493,391.831,921.882,-0.0308762,-1.74036,-1.13984,
2026_07_06_21_19_18.748,3.857,30.2,0,0.759,0,0,0,0, ,0,0,0,0,0, ,-4.7,399.7,930.1,-2.1,-1.3,0,25,-14.3485,392.228,922.614,-0.0655572,-1.68305,-1.09781,
2026_07_06_21_19_18.768,3.857,30.2,0,0.759,0,0,0,0, ,0,0,0,0,0, ,-6.9,395.6,910.1,-1.1,-1.5,-0.2,25,-13.8276,392.559,922.461,-0.159062,-1.66581,-1.037,
2026_07_06_21_19_18.787,3.857,30.1,0,0.76,0,0,0,0, ,0,0,0,0,0, ,-11.5,396.3,925.6,-0.4,-1.5,-0.9,25,-13.5456,392.765,922.18,-0.195073,-1.6557,-1.00733,
2026_07_06_21_19_18.807,3.857,30.2,0,0.758,0,0,0,0, ,0,0,0,0,0, ,-13.4,395.3,927.6,-0.9,-2.4,-0.8,25,-13.4788,392.95,922.449,-0.222795,-1.67364,-0.997738,
2026_07_06_21_19_18.828,3.857,30.1,0,0.76,0,0,0,0, ,0,0,0,0,0, ,-6.2,396.1,915,-1.2,-2.4,-1.2,25,-13.2547,393.118,922.379,-0.273203,-1.7179,-0.997876,
2026_07_06_21_19_18.847,3.857,30.1,0,0.759,0,0,0,0, ,0,0,0,0,0, ,-3.5,391.4,922.1,-0.7,-1.5,-1.7,25,-12.7425,393.156,922.146,-0.314445,-1.73204,-1.02543,
2026_07_06_21_19_18.867,3.857,30.2,0,0.759,0,0,0,0, ,0,0,0,0,0, ,5.3,394.2,917.8,-1.6,-1,-2.2,25,-11.9112,393.135,922.012,-0.365361,-1.70267,-1.08177,
2026_07_06_21_19_18.893,3.857,30.1,0,0.76,0,0,0,0, ,0,0,0,0,0, ,3.5,390.9,917.2,-1.4,-0.1,-0.8,25,-10.9172,393.099,921.737,-0.434504,-1.63243,-1.10725,
2026_07_06_21_19_18.907,3.857,30.1,0,0.759,0,0,0,0, ,0,0,0,0,0, ,-4.2,393.1,917.4,-2.7,0.7,-1.6,25,-10.2733,393.032,921.467,-0.532948,-1.51467,-1.11291,
2026_07_06_21_19_18.926,3.857,30,0,0.759,0,0,0,0, ,0,0,0,0,0, ,-8,385.3,899.7,0.5,3.2,-2.4,25,-10.019,392.798,920.68,-0.567503,-1.30354,-1.16696,
2026_07_06_21_19_18.946,3.857,30.2,0,0.76,0,0,0,0, ,0,0,0,0,0, ,-8.5,393.5,917.2,0.4,2.9,-3.1,25,-9.91116,392.591,919.934,-0.505499,-1.03825,-1.26343,
2026_07_06_21_19_18.966,3.857,30.2,0,0.76,0,0,0,0, ,0,0,0,0,0, ,-7.4,392,920,0.3,1.1,-1.8,25,-9.79165,392.601,919.853,-0.453367,-0.853104,-1.33574,
2026_07_06_21_19_18.985,3.857,30.1,0,0.76,0,0,0,0, ,0,0,0,0,0, ,-4.7,391.8,925,0.2,0.5,-2.2,25,-9.56364,392.558,920.014,-0.410505,-0.752368,-1.37621,
2026_07_06_21_19_19.005,3.857,30.1,0,0.76,0,0,0,0, ,0,0,0,0,0, ,-7.2,397,916.1,-0.3,1,-2.5,25,-9.34344,392.671,920.047,-0.388537,-0.660818,-1.43555,
2026_07_06_21_19_19.025,3.857,30.1,0,0.76,0,0,0,0, ,0,0,0,0,0, ,-17.3,393.4,914.6,0.3,1.3,-1.4,25,-9.52055,392.825,919.761,-0.36486,-0.550471,-1.4669,
2026_07_06_21_19_19.045,3.857,30.1,0,0.758,0,0,0,0, ,0,0,0,0,0, ,-16.4,394.2,928.5,0.4,0.3,-2.6,25,-9.96719,392.884,919.87,-0.321299,-0.468177,-1.49939,
2026_07_06_21_19_19.065,3.857,30.2,0,0.758,0,0,0,0, ,0,0,0,0,0, ,-12.4,392.2,926.7,-0.8,0,-2.9,25,-10.2373,392.903,920.341,-0.313907,-0.430507,-1.5756,
2026_07_06_21_19_19.085,3.857,30.2,0,0.76,0,0,0,0, ,0,0,0,0,0, ,-6.8,392.2,919.9,0.9,0.6,-1.6,25,-10.1985,392.86,920.521,-0.291731,-0.385991,-1.61669,
2026_07_06_21_19_19.104,3.857,30.2,0,0.76,0,0,0,0, ,0,0,0,0,0, ,-15.9,391.3,922.3,-0.4,-0.6,-0.9,25,-10.2687,392.793,920.557,-0.25872,-0.36247,-1.59435,
