UTC_Time,Vin,TC1,TC2,Rh1,Vh1,Ah1,Acp1,Dty1,Err1,Rh2,Vh2,Ah2,Acp2,Dty2,Err2,Accel_x,Accel_y,Accel_z,gyro_x,gyro_y,gyro_z,Temp_c,Accel_x_h,Accel_y_h,Accel_z_h,gyro_x_h,gyro_y_h,gyro_z_h,
2026_07_06_16_51_06.160,3.868,27.8,0,0.756,3.806,5.034,18.2,0.95, ,0,0,0,0,0, ,-37.7,245.8,969.9,-0.5,-0.5,-1.7,25,-37.7,245.8,969.9,-0.5,-0.5,-1.7,
2026_07_06_16_51_06.180,3.853,27.9,0,0.758,3.875,5.112,18.81,0.95, ,0,0,0,0,0, ,-37.7,244.8,971,-0.6,-0.5,-1.8,25,-37.7,245.77,969.934,-0.503047,-0.5,-1.70305,
2026_07_06_16_51_06.200,3.853,27.9,0,0.762,0,0,0,0.017, ,0,0,0,0,0, ,-37.8,247.9,969.1,-0.5,-0.4,-1.8,25,-37.703,245.805,969.941,-0.505908,-0.496953,-1.70895,
2026_07_06_16_51_06.220,3.853,28.1,0,0.761,0,0,0,0.017, ,0,0,0,0,0, ,-38.5,248.2,968.7,-0.6,-0.5,-1.8,25,-37.7303,245.942,969.877,-0.508595,-0.494092,-1.7145,
2026_07_06_16_51_06.239,3.853,28.3,0,0.76,0,0,0,0.015, ,0,0,0,0,0, ,-38.4,246.8,970,-0.5,-0.5,-1.8,25,-37.7741,246.037,969.845,-0.511118,-0.494452,-1.71971,
2026_07_06_16_51_06.261,3.853,28.3,0,0.759,0,0,0,0.014, ,0,0,0,0,0, ,-38,246.8,969.2,-0.5,-0.5,-1.7,25,-37.8001,246.083,969.83,-0.510441,-0.49479,-1.72156,
2026_07_06_16_51_06.279,3.853,28.3,0,0.76,0,0,0,0.014, ,0,0,0,0,0, ,-38.2,245.9,970.2,-0.6,-0.5,-1.8,25,-37.8184,246.099,969.822,-0.512851,-0.495108,-1.72329,
2026_07_06_16_51_06.298,3.853,28.5,0,0.759,0,0,0,0.014, ,0,0,0,0,0, ,-37.8,246.8,968.7,-0.5,-0.4,-1.7,25,-37.8294,246.115,969.8,-0.515115,-0.492359,-1.72492,
2026_07_06_16_51_06.318,3.853,28.6,0,0.76,0,0,0,0.013, ,0,0,0,0,0, ,-38.6,246.2,968.5,-0.7,-0.4,-1.8,25,-37.852,246.138,969.726,-0.520288,-0.486731,-1.72645,
2026_07_06_16_51_06.338,3.853,28.5,0,0.758,0,0,0,0.012, ,0,0,0,0,0, ,-37.3,247,969.3,-0.6,-0.5,-1.7,25,-37.858,246.166,969.676,-0.528192,-0.484492,-1.72788,
2026_07_06_16_51_06.358,3.853,28.6,0,0.758,0,0,0,0.013, ,0,0,0,0,0, ,-38.9,247.3,969.3,-0.6,-0.5,-1.7,25,-37.8727,246.226,969.653,-0.532568,-0.485437,-1.72618,
2026_07_06_16_51_06.377,3.853,28.6,0,0.758,0,0,0,0.012, ,0,0,0,0,0, ,-38.2,245.8,969.7,-0.5,-0.5,-1.7,25,-37.914,246.246,969.644,-0.53363,-0.486325,-1.72459,
2026_07_06_16_51_06.397,3.853,28.6,0,0.759,0,0,0,0.013, ,0,0,0,0,0, ,-38.5,246.8,970.7,-0.6,-0.5,-1.8,25,-37.9406,246.249,969.678,-0.534628,-0.487158,-1.72614,
2026_07_06_16_51_06.421,3.853,28.6,0,0.76,0,0,0,0.013, ,0,0,0,0,0, ,-38.2,245.8,969.1,-0.7,-0.4,-1.8,25,-37.9655,246.252,969.691,-0.541658,-0.484894,-1.73064,
2026_07_06_16_51_06.437,3.853,28.7,0,0.759,0,0,0,0.013, ,0,0,0,0,0, ,-37.2,247.1,969.9,-0.5,-0.5,-1.7,25,-37.9493,246.264,969.68,-0.545213,-0.482767,-1.73182,
2026_07_06_16_51_06.457,3.853,28.7,0,0.758,0,0,0,0.012, ,0,0,0,0,0, ,-37.7,246.7,970.4,-0.5,-0.5,-1.8,25,-37.9189,246.303,969.708,-0.542458,-0.483818,-1.73293,
2026_07_06_16_51_06.477,3.853,28.8,0,0.759,0,0,0,0.012, ,0,0,0,0,0, ,-38.4,246.7,969.4,-0.5,-0.4,-1.8,25,-37.9269,246.327,969.72,-0.539871,-0.481757,-1.73701,
2026_07_06_16_51_06.497,3.853,28.8,0,0.76,0,0,0,0.012, ,0,0,0,0,0, ,-37.7,247.5,969.9,-0.5,-0.5,-1.7,25,-37.9344,246.374,969.716,-0.537441,-0.479822,-1.7378,
2026_07_06_16_51_06.515,3.853,28.8,0,0.76,0,0,0,0.012, ,0,0,0,0,0, ,-37.2,245.7,970.2,-0.5,-0.4,-1.8,25,-37.9049,246.388,969.736,-0.53516,-0.478004,-1.73855,
2026_07_06_16_51_06.536,3.853,28.8,0,0.758,0,0,0,0.012, ,0,0,0,0,0, ,-36.9,247.3,968.2,-0.5,-0.5,-1.8,25,-37.8528,246.395,969.703,-0.533017,-0.476298,-1.74229,
2026_07_06_16_51_06.556,3.853,28.7,0,0.759,0,0,0,0.012, ,0,0,0,0,0, ,-37.2,247.5,969.8,-0.5,-0.5,-1.7,25,-37.8039,246.456,969.661,-0.531005,-0.477742,-1.74276,
2026_07_06_16_51_06.575,3.853,28.9,0,0.761,0,0,0,0.013, ,0,0,0,0,0, ,-37.5,246,970.2,-0.4,-0.4,-1.8,25,-37.7762,246.474,969.681,-0.526069,-0.476052,-1.7432,
2026_07_06_16_51_06.596,3.853,28.9,0,0.759,0,0,0,0.011, ,0,0,0,0,0, ,-39.1,246.2,970.3,-0.6,-0.5,-1.7,25,-37.8081,246.451,969.716,-0.52448,-0.474464,-1.74362,
2026_07_06_16_51_06.616,3.853,28.8,0,0.76,0,0,0,0.011, ,0,0,0,0,0, ,-37.7,246.9,969.7,-0.5,-0.4,-1.7,25,-37.8442,246.457,969.733,-0.526035,-0.472973,-1.74096,
2026_07_06_16_51_06.635,3.853,28.9,0,0.759,0,0,0,0.012, ,0,0,0,0,0, ,-38,246,970.2,-0.7,-0.5,-1.8,25,-37.8446,246.457,969.746,-0.530543,-0.471573,-1.74151,
2026_07_06_16_51_06.655,3.853,29.1,0,0.758,0,0,0,0.012, ,0,0,0,0,0, ,-37.7,245.8,968.9,-0.7,-0.5,-1.7,25,-37.8449,246.423,969.734,-0.540869,-0.473306,-1.74203,
2026_07_06_16_51_06.675,3.853,29.1,0,0.759,0,0,0,0.01, ,0,0,0,0,0, ,-38.3,249,970.3,-0.7,-0.5,-1.7,25,-37.8543,246.482,969.726,-0.550566,-0.474932,-1.73947,
2026_07_06_16_51_06.695,3.853,28.9,0,0.76,0,0,0,0.01, ,0,0,0,0,0, ,-38.6,247.5,969.3,-0.6,-0.5,-1.8,25,-37.8906,246.59,969.731,-0.556625,-0.47646,-1.74011,
2026_07_06_16_51_06.715,3.853,29.2,0,0.759,0,0,0,0.012, ,0,0,0,0,0, ,-39.1,245.6,969.9,-0.6,-0.5,-1.8,25,-37.9491,246.588,969.723,-0.559268,-0.477894,-1.74376,
2026_07_06_16_51_06.734,3.853,29.1,0,0.758,0,0,0,0.01, ,0,0,0,0,0, ,-38.5,245.8,970.2,-0.5,-0.5,-1.8,25,-38.0009,246.534,969.743,-0.558704,-0.479241,-1.74719,
2026_07_06_16_51_06.754,3.853,29.1,0,0.759,0,0,0,0.011, ,0,0,0,0,0, ,-38.6,247,969.8,-0.5,-0.5,-1.8,25,-38.0344,246.526,969.758,-0.555126,-0.480506,-1.7504,
2026_07_06_16_51_06.774,3.853,29.1,0,0.758,0,0,0,0.011, ,0,0,0,0,0, ,-38.6,247.3,970,-0.5,-0.4,-1.8,25,-38.0689,246.564,969.767,-0.551767,-0.478647,-1.75343,
2026_07_06_16_51_06.794,3.853,29.1,0,0.759,0,0,0,0.011, ,0,0,0,0,0, ,-38.2,247.1,970,-0.5,-0.5,-1.7,25,-38.089,246.602,969.781,-0.548613,-0.476902,-1.75322,
2026_07_06_16_51_06.814,3.853,29.2,0,0.759,0,0,0,0.011, ,0,0,0,0,0, ,-38,245.7,968.9,-0.5,-0.5,-1.7,25,-38.0897,246.59,969.761,-0.54565,-0.478309,-1.74997,
2026_07_06_16_51_06.834,3.853,29.2,0,0.758,0,0,0,0.01, ,0,0,0,0,0, ,-37.9,246.4,969.9,-0.5,-0.5,-1.7,25,-38.0812,246.557,969.739,-0.542868,-0.479631,-1.74693,
2026_07_06_16_51_06.853,3.853,29.2,0,0.76,0,0,0,0.01, ,0,0,0,0,0, ,-38.4,246.7,970.3,-0.5,-0.4,-1.8,25,-38.0854,246.557,969.761,-0.540256,-0.477825,-1.74712,
2026_07_06_16_51_06.873,3.853,29.3,0,0.759,0,0,0,0.01, ,0,0,0,0,0, ,-38.3,246.5,969.6,-0.4,-0.4,-1.7,25,-38.1015,246.559,969.773,-0.534756,-0.473083,-1.74729,
2026_07_06_16_51_06.893,3.853,29.3,0,0.759,0,0,0,0.01, ,0,0,0,0,0, ,-38.8,246.3,970.2,-0.6,-0.5,-1.8,25,-38.1288,246.55,969.78,-0.532638,-0.471676,-1.74746,
2026_07_06_16_51_06.917,3.853,29.3,0,0.759,0,0,0,0.01, ,0,0,0,0,0, ,-37.5,246.7,968.2,-0.5,-0.4,-1.7,25,-38.1301,246.547,969.745,-0.533696,-0.470355,-1.74761,
2026_07_06_16_51_06.933,3.853,29.3,0,0.76,0,0,0,0.01, ,0,0,0,0,0, ,-37.5,246.4,969.2,-0.6,-0.5,-1.7,25,-38.0917,246.547,969.681,-0.53469,-0.469115,-1.74471,
2026_07_06_16_51_06.952,3.853,29.3,0,0.759,0,0,0,0.01, ,0,0,0,0,0, ,-37.5,247.1,969.4,-0.4,-0.5,-1.7,25,-38.0557,246.559,969.658,-0.532576,-0.470997,-1.74199,
2026_07_06_16_51_06.972,3.853,29.3,0,0.759,0,0,0,0.01, ,0,0,0,0,0, ,-37.5,246.2,970.7,-0.4,-0.4,-1.7,25,-38.0218,246.565,969.682,-0.524497,-0.469718,-1.73943,
2026_07_06_16_51_06.992,3.853,29.3,0,0.759,0,0,0,0.01, ,0,0,0,0,0, ,-37.7,245.1,970.4,-0.5,-0.5,-1.8,25,-37.9961,246.509,969.735,-0.519957,-0.468516,-1.74007,
2026_07_06_16_51_07.012,3.853,29.2,0,0.759,0,0,0,0.01, ,0,0,0,0,0, ,-39.3,246.4,969.9,-0.5,-0.4,-1.8,25,-38.0268,246.463,969.76,-0.518741,-0.467388,-1.74372,
2026_07_06_16_51_07.031,3.853,29.3,0,0.76,0,0,0,0.011, ,0,0,0,0,0, ,-38.8,247,969.1,-0.6,-0.5,-1.8,25,-38.0892,246.477,969.744,-0.520646,-0.466328,-1.74715,
2026_07_06_16_51_07.051,3.853,29.4,0,0.76,0,0,0,0.01, ,0,0,0,0,0, ,-37.5,246.8,969.9,-0.4,-0.4,-1.7,25,-38.0929,246.503,969.729,-0.519388,-0.465333,-1.74733,
2026_07_06_16_51_07.071,3.853,29.3,0,0.761,0,0,0,0.009, ,0,0,0,0,0, ,-38.5,245.4,970.3,-0.5,-0.5,-1.7,25,-38.0872,246.478,969.752,-0.51516,-0.464399,-1.74444,
2026_07_06_16_51_07.092,3.853,29.4,0,0.76,0,0,0,0.01, ,0,0,0,0,0, ,-37.3,245.4,969.6,-0.7,-0.5,-1.7,25,-38.0758,246.413,969.764,-0.52033,-0.466568,-1.74173,
2026_07_06_16_51_07.111,3.853,29.4,0,0.759,0,0,0,0.01, ,0,0,0,0,0, ,-37.1,246.5,969.4,-0.7,-0.5,-1.8,25,-38.0224,246.384,969.748,-0.531278,-0.468605,-1.74224,
2026_07_06_16_51_07.131,3.853,29.3,0,0.76,0,0,0,0.01, ,0,0,0,0,0, ,-37.1,247,968.3,-0.5,-0.5,-1.7,25,-37.9662,246.407,969.693,-0.535466,-0.470519,-1.74271,
2026_07_06_16_51_07.150,3.853,29.4,0,0.759,0,0,0,0.01, ,0,0,0,0,0, ,-39,246.8,971.4,-0.6,-0.5,-1.7,25,-37.9713,246.437,969.703,-0.536352,-0.472315,-1.74011,
2026_07_06_16_51_07.170,3.853,29.5,0,0.759,0,0,0,0.01, ,0,0,0,0,0, ,-39.3,246.4,968.6,-0.5,-0.5,-1.7,25,-38.0432,246.447,969.721,-0.537183,-0.474002,-1.73766,
2026_07_06_16_51_07.190,3.853,29.4,0,0.76,0,0,0,0.009, ,0,0,0,0,0, ,-38.3,246,969.3,-0.5,-0.5,-1.8,25,-38.0893,246.432,969.674,-0.534917,-0.475586,-1.73842,
2026_07_06_16_51_07.210,3.853,29.4,0,0.76,0,0,0,0.01, ,0,0,0,0,0, ,-37.7,245.9,969.7,-0.5,-0.4,-1.8,25,-38.0838,246.402,969.663,-0.53279,-0.474027,-1.74217,
2026_07_06_16_51_07.229,3.853,29.4,0,0.759,0,0,0,0.01, ,0,0,0,0,0, ,-37.9,246.5,968.9,-0.5,-0.4,-1.7,25,-38.0665,246.39,969.641,-0.530792,-0.469516,-1.74265,
2026_07_06_16_51_07.249,3.853,29.5,0,0.759,0,0,0,0.01, ,0,0,0,0,0, ,-38.5,246,968.7,-0.5,-0.5,-1.8,25,-38.0747,246.382,969.59,-0.528915,-0.468327,-1.74309,
2026_07_06_16_51_07.269,3.853,29.5,0,0.759,0,0,0,0.009, ,0,0,0,0,0, ,-37.7,246,969.1,-0.5,-0.5,-1.8,25,-38.0762,246.358,969.548,-0.527153,-0.470257,-1.74656,
2026_07_06_16_51_07.289,3.853,29.4,0,0.759,0,0,0,0.009, ,0,0,0,0,0, ,-37.9,246.2,971.5,-0.5,-0.5,-1.8,25,-38.0594,246.343,969.594,-0.525499,-0.472069,-1.74982,
2026_07_06_16_51_07.308,3.853,29.5,0,0.759,0,0,0,0.01, ,0,0,0,0,0, ,-37.7,247.1,968.6,-0.5,-0.5,-1.7,25,-38.0436,246.361,969.622,-0.523945,-0.473771,-1.74983,
2026_07_06_16_51_07.328,3.853,29.5,0,0.76,0,0,0,0.009, ,0,0,0,0,0, ,-38.3,247.3,969.2,-0.5,-0.5,-1.7,25,-38.0409,246.412,969.578,-0.522486,-0.47537,-1.74679,
2026_07_06_16_51_07.348,3.853,29.4,0,0.759,0,0,0,0.009, ,0,0,0,0,0, ,-38.4,245.4,970.5,-0.5,-0.5,-1.8,25,-38.0598,246.409,969.594,-0.521115,-0.476871,-1.74699,
2026_07_06_16_51_07.368,3.853,29.5,0,0.759,0,0,0,0.01, ,0,0,0,0,0, ,-36.8,246,970.8,-0.5,-0.5,-1.7,25,-38.0317,246.365,969.658,-0.519829,-0.47828,-1.74717,
2026_07_06_16_51_07.387,3.853,29.5,0,0.759,0,0,0,0.01, ,0,0,0,0,0, ,-38.3,245.8,968.8,-0.6,-0.5,-1.8,25,-38.0024,246.337,969.667,-0.521667,-0.479604,-1.74734,
2026_07_06_16_51_07.414,3.853,29.6,0,0.758,0,0,0,0.01, ,0,0,0,0,0, ,-37.7,246.4,969.6,-0.6,-0.4,-1.8,25,-38.0022,246.323,969.639,-0.526441,-0.4778,-1.75055,
2026_07_06_16_51_07.428,3.853,29.3,0,0.759,0,0,0,0.009, ,0,0,0,0,0, ,-38.8,246,970.5,-0.6,-0.5,-1.7,25,-38.0173,246.315,969.664,-0.530923,-0.476106,-1.75052,
2026_07_06_16_51_07.447,3.853,29.4,0,0.759,0,0,0,0.011, ,0,0,0,0,0, ,-37.9,246.7,969.3,-0.5,-0.5,-1.7,25,-38.0376,246.317,969.678,-0.532086,-0.477562,-1.74744,
2026_07_06_16_51_07.467,3.853,29.5,0,0.76,0,0,0,0.011, ,0,0,0,0,0, ,-37.9,246.9,972,-0.5,-0.5,-1.7,25,-38.0292,246.347,969.737,-0.53013,-0.478929,-1.74455,
2026_07_06_16_51_07.487,3.853,29.5,0,0.757,0,0,0,0.01, ,0,0,0,0,0, ,-37.9,247,968.8,-0.5,-0.4,-1.8,25,-38.0213,246.383,969.778,-0.528294,-0.477166,-1.74488,
2026_07_06_16_51_07.506,3.853,29.5,0,0.76,0,0,0,0.01, ,0,0,0,0,0, ,-37.2,247.6,970.3,-0.5,-0.5,-1.8,25,-37.9926,246.439,969.764,-0.52657,-0.475511,-1.74824,
2026_07_06_16_51_07.526,3.853,29.6,0,0.758,0,0,0,0.01, ,0,0,0,0,0, ,-38.9,248.1,968.7,-0.5,-0.5,-1.8,25,-37.9961,246.525,969.748,-0.524951,-0.477003,-1.75139,
2026_07_06_16_51_07.546,3.853,29.7,0,0.759,0,0,0,0.009, ,0,0,0,0,0, ,-38,247.6,970.8,-0.5,-0.5,-1.8,25,-38.0238,246.606,969.748,-0.523431,-0.478404,-1.75436,
2026_07_06_16_51_07.566,3.853,29.5,0,0.759,0,0,0,0.008, ,0,0,0,0,0, ,-38.2,245.3,969.6,-0.5,-0.5,-1.8,25,-38.0284,246.596,969.775,-0.522003,-0.47972,-1.75714,
2026_07_06_16_51_07.591,3.853,29.6,0,0.759,0,0,0,0.01, ,0,0,0,0,0, ,-37.1,245.8,970,-0.6,-0.5,-1.7,25,-38.0054,246.533,969.777,-0.523709,-0.480956,-1.7567,
2026_07_06_16_51_07.606,3.853,29.5,0,0.759,0,0,0,0.009, ,0,0,0,0,0, ,-39,248.2,968.7,-0.5,-0.4,-1.7,25,-38.0081,246.561,969.751,-0.525311,-0.47907,-1.75325,
2026_07_06_16_51_07.625,3.853,29.5,0,0.759,0,0,0,0.01, ,0,0,0,0,0, ,-37.7,246.4,968.6,-0.4,-0.4,-1.8,25,-38.0289,246.606,969.684,-0.520722,-0.474251,-1.75305,
2026_07_06_16_51_07.645,3.853,29.7,0,0.759,0,0,0,0.01, ,0,0,0,0,0, ,-37.8,248.2,969.8,-0.6,-0.4,-1.7,25,-38.0119,246.648,969.654,-0.519459,-0.469727,-1.75286,
2026_07_06_16_51_07.665,3.853,29.5,0,0.76,0,0,0,0.009, ,0,0,0,0,0, ,-37.9,245.8,968.5,-0.4,-0.4,-1.8,25,-38.0021,246.67,969.624,-0.518273,-0.465478,-1.75269,
2026_07_06_16_51_07.684,3.853,29.7,0,0.759,0,0,0,0.01, ,0,0,0,0,0, ,-37.5,246.2,969.8,-0.6,-0.5,-1.7,25,-37.9837,246.629,969.595,-0.51716,-0.464535,-1.75253,
2026_07_06_16_51_07.705,3.853,29.5,0,0.76,0,0,0,0.009, ,0,0,0,0,0, ,-37.8,247.1,970.5,-0.6,-0.5,-1.7,25,-37.9633,246.63,969.629,-0.522208,-0.466696,-1.74932,
2026_07_06_16_51_07.724,3.853,29.5,0,0.759,0,0,0,0.01, ,0,0,0,0,0, ,-37.7,247,970.7,-0.4,-0.4,-1.7,25,-37.9503,246.656,969.688,-0.520854,-0.465678,-1.74632,
2026_07_06_16_51_07.744,3.853,29.6,0,0.759,0,0,0,0.01, ,0,0,0,0,0, ,-37.1,247,969.7,-0.4,-0.5,-1.7,25,-37.9168,246.677,969.719,-0.51349,-0.464723,-1.7435,
2026_07_06_16_51_07.764,3.853,29.6,0,0.759,0,0,0,0.01, ,0,0,0,0,0, ,-38,246.3,969.3,-0.4,-0.4,-1.8,25,-37.8944,246.675,969.706,-0.506574,-0.463826,-1.74389,
2026_07_06_16_51_07.784,3.853,29.6,0,0.76,0,0,0,0.01, ,0,0,0,0,0, ,-37.1,245.7,970,-0.6,-0.5,-1.8,25,-37.8734,246.634,969.702,-0.506174,-0.462983,-1.74731,
2026_07_06_16_51_07.803,3.853,29.6,0,0.758,0,0,0,0.01, ,0,0,0,0,0, ,-38.4,246.7,969.3,-0.7,-0.5,-1.7,25,-37.8659,246.608,969.699,-0.514938,-0.465239,-1.74748,
2026_07_06_16_51_07.823,3.853,29.6,0,0.76,0,0,0,0.01, ,0,0,0,0,0, ,-38.4,245.9,970,-0.5,-0.5,-1.8,25,-37.8985,246.589,969.696,-0.520121,-0.467357,-1.74763,
2026_07_06_16_51_07.843,3.853,29.6,0,0.759,0,0,0,0.01, ,0,0,0,0,0, ,-39.3,245.9,969.3,-0.6,-0.5,-1.7,25,-37.9565,246.547,969.693,-0.521942,-0.469346,-1.74777,
2026_07_06_16_51_07.863,3.853,29.7,0,0.759,0,0,0,0.01, ,0,0,0,0,0, ,-37.3,246.2,971.3,-0.7,-0.5,-1.8,25,-37.9774,246.517,969.73,-0.529746,-0.471214,-1.74791,
2026_07_06_16_51_07.883,3.853,29.6,0,0.76,0,0,0,0.009, ,0,0,0,0,0, ,-37.9,246.8,970.9,-0.7,-0.5,-1.8,25,-37.9544,246.516,969.814,-0.540121,-0.472969,-1.75108,
2026_07_06_16_51_07.903,3.853,29.6,0,0.759,0,0,0,0.01, ,0,0,0,0,0, ,-38.2,247.5,969.7,-0.7,-0.5,-1.8,25,-37.9602,246.554,969.843,-0.549863,-0.474616,-1.75406,
2026_07_06_16_51_07.923,3.853,29.7,0,0.759,0,0,0,0.01, ,0,0,0,0,0, ,-38,247,970.3,-0.5,-0.4,-1.8,25,-37.9687,246.597,969.853,-0.552918,-0.473116,-1.75686,
2026_07_06_16_51_07.944,3.853,29.6,0,0.759,0,0,0,0.009, ,0,0,0,0,0, ,-38.8,247.6,971.1,-0.5,-0.5,-1.8,25,-37.995,246.64,969.905,-0.549694,-0.471707,-1.75949,
2026_07_06_16_51_07.962,3.853,29.6,0,0.759,0,0,0,0.01, ,0,0,0,0,0, ,-37.8,247.5,969.6,-0.5,-0.4,-1.8,25,-38.0136,246.695,969.932,-0.546665,-0.470384,-1.76196,
2026_07_06_16_51_07.982,3.853,29.7,0,0.759,0,0,0,0.01, ,0,0,0,0,0, ,-37.9,246.2,971.1,-0.6,-0.4,-1.8,25,-38.0036,246.704,969.957,-0.546869,-0.466095,-1.76428,
2026_07_06_16_51_08.002,3.853,29.7,0,0.759,0,0,0,0.009, ,0,0,0,0,0, ,-37.5,245.8,969.3,-0.6,-0.5,-1.8,25,-37.9851,246.662,969.972,-0.550106,-0.465114,-1.76646,
2026_07_06_16_51_08.022,3.853,29.7,0,0.761,0,0,0,0.009, ,0,0,0,0,0, ,-37.5,247,969.3,-0.5,-0.5,-1.8,25,-37.9556,246.646,969.931,-0.5501,-0.46724,-1.7685,
2026_07_06_16_51_08.041,3.853,29.7,0,0.76,0,0,0,0.009, ,0,0,0,0,0, ,-38.2,245.2,969.4,-0.4,-0.5,-1.8,25,-37.9491,246.612,969.896,-0.544,-0.469237,-1.77042,
2026_07_06_16_51_08.061,3.853,29.7,0,0.76,0,0,0,0.009, ,0,0,0,0,0, ,-38.3,244.7,971.3,-0.5,-0.5,-1.8,25,-37.9675,246.511,969.923,-0.538272,-0.471111,-1.77222,
2026_07_06_16_51_08.081,3.853,29.7,0,0.759,0,0,0,0.009, ,0,0,0,0,0, ,-38.5,247.1,969.4,-0.7,-0.5,-1.8,25,-37.9938,246.474,969.949,-0.542033,-0.472872,-1.77391,
2026_07_06_16_51_08.101,3.853,29.6,0,0.759,0,0,0,0.009, ,0,0,0,0,0, ,-37.7,247,969.3,-0.7,-0.4,-1.8,25,-38.0003,246.509,969.913,-0.55166,-0.471478,-1.7755,
2026_07_06_16_51_08.121,3.853,29.7,0,0.759,0,0,0,0.01, ,0,0,0,0,0, ,-37.5,248.1,969.9,-0.5,-0.4,-1.8,25,-37.9759,246.572,969.894,-0.554605,-0.467122,-1.777,
2026_07_06_16_51_08.141,3.853,29.8,0,0.759,0,0,0,0.009, ,0,0,0,0,0, ,-38.4,246.2,970.2,-0.5,-0.5,-1.7,25,-37.9743,246.608,969.903,-0.551278,-0.466079,-1.77535,
2026_07_06_16_51_08.160,3.853,29.7,0,0.758,0,0,0,0.009, ,0,0,0,0,0, ,-38,245.3,969.6,-0.7,-0.5,-1.7,25,-37.9881,246.555,969.903,-0.554247,-0.468146,-1.77076,
2026_07_06_16_51_08.179,3.853,29.8,0,0.76,0,0,0,0.01, ,0,0,0,0,0, ,-36.6,246.9,971.5,-0.7,-0.5,-1.8,25,-37.9461,246.528,969.942,-0.563129,-0.470087,-1.76949,
2026_07_06_16_51_08.199,3.853,29.7,0,0.759,0,0,0,0.009, ,0,0,0,0,0, ,-37.9,247.4,969.9,-0.4,-0.5,-1.7,25,-37.9037,246.565,969.989,-0.562329,-0.47191,-1.76831,
2026_07_06_16_51_08.219,3.853,29.7,0,0.76,0,0,0,0.01, ,0,0,0,0,0, ,-37.4,246.2,969.3,-0.4,-0.5,-1.7,25,-37.8883,246.58,969.965,-0.552437,-0.473622,-1.76414,
2026_07_06_16_51_08.239,3.853,29.7,0,0.758,0,0,0,0.01, ,0,0,0,0,0, ,-37.9,247,969.9,-0.5,-0.5,-1.7,25,-37.8737,246.581,969.943,-0.546194,-0.475229,-1.76024,
2026_07_06_16_51_08.259,3.853,29.9,0,0.759,0,0,0,0.01, ,0,0,0,0,0, ,-38.6,246,970.4,-0.5,-0.5,-1.8,25,-37.8967,246.576,969.955,-0.543379,-0.476739,-1.75961,
2026_07_06_16_51_08.278,3.853,29.8,0,0.758,0,0,0,0.008, ,0,0,0,0,0, ,-37.4,246.2,968.1,-0.5,-0.5,-1.7,25,-37.903,246.547,969.912,-0.540736,-0.478156,-1.75903,
2026_07_06_16_51_08.304,3.853,29.8,0,0.759,0,0,0,0.009, ,0,0,0,0,0, ,-37.4,246.2,968.6,-0.5,-0.5,-1.7,25,-37.8723,246.526,969.817,-0.538254,-0.479487,-1.75543,
2026_07_06_16_51_08.319,3.853,29.9,0,0.758,0,0,0,0.009, ,0,0,0,0,0, ,-38.5,245.8,969.2,-0.5,-0.5,-1.8,25,-37.8771,246.494,969.761,-0.535923,-0.480737,-1.7551,
2026_07_06_16_51_08.338,3.853,29.8,0,0.76,0,0,0,0.008, ,0,0,0,0,0, ,-38.5,247.4,969.2,-0.7,-0.4,-1.8,25,-37.915,246.5,969.727,-0.539827,-0.478864,-1.75783,
2026_07_06_16_51_08.358,3.853,29.9,0,0.76,0,0,0,0.009, ,0,0,0,0,0, ,-38.6,244.9,970.8,-0.6,-0.5,-1.8,25,-37.9537,246.479,969.744,-0.546541,-0.477105,-1.7604,
2026_07_06_16_51_08.378,3.853,29.8,0,0.76,0,0,0,0.008, ,0,0,0,0,0, ,-38.6,246.5,969.8,-0.6,-0.5,-1.8,25,-37.9931,246.432,969.778,-0.549799,-0.4785,-1.76282,
2026_07_06_16_51_08.398,3.853,29.9,0,0.759,0,0,0,0.009, ,0,0,0,0,0, ,-37.5,247.6,969.9,-0.5,-0.5,-1.7,25,-37.9966,246.469,969.782,-0.549811,-0.47981,-1.76204,
2026_07_06_16_51_08.418,3.853,29.9,0,0.76,0,0,0,0.008, ,0,0,0,0,0, ,-37.9,247.8,969.7,-0.4,-0.5,-1.8,25,-37.9785,246.544,969.783,-0.543729,-0.481041,-1.7613,
2026_07_06_16_51_08.437,3.853,29.9,0,0.76,0,0,0,0.008, ,0,0,0,0,0, ,-37.7,246.9,969.2,-0.5,-0.5,-1.8,25,-37.9676,246.593,969.763,-0.538017,-0.482196,-1.76366,
2026_07_06_16_51_08.457,3.853,29.8,0,0.759,0,0,0,0.008, ,0,0,0,0,0, ,-38,246.7,970.7,-0.6,-0.4,-1.8,25,-37.9604,246.606,969.774,-0.538747,-0.480234,-1.76588,
2026_07_06_16_51_08.480,3.853,29.9,0,0.759,0,0,0,0.009, ,0,0,0,0,0, ,-37.9,246.4,969.6,-0.5,-0.5,-1.7,25,-37.9598,246.602,969.797,-0.539433,-0.478392,-1.76491,
2026_07_06_16_51_08.497,3.853,29.8,0,0.759,0,0,0,0.008, ,0,0,0,0,0, ,-37.8,246.9,970,-0.5,-0.4,-1.8,25,-37.9531,246.605,969.797,-0.53703,-0.476662,-1.764,
2026_07_06_16_51_08.517,3.853,29.9,0,0.76,0,0,0,0.009, ,0,0,0,0,0, ,-37.3,246.7,969.8,-0.5,-0.4,-1.8,25,-37.9286,246.617,969.804,-0.534774,-0.47199,-1.76619,
2026_07_06_16_51_08.536,3.853,29.9,0,0.759,0,0,0,0.008, ,0,0,0,0,0, ,-39.1,246.8,970.3,-0.5,-0.5,-1.7,25,-37.9451,246.625,969.819,-0.532655,-0.47065,-1.76521,
2026_07_06_16_51_08.556,3.853,29.9,0,0.758,0,0,0,0.008, ,0,0,0,0,0, ,-37.9,244.2,968.5,-0.5,-0.4,-1.8,25,-37.9789,246.557,969.793,-0.530665,-0.469392,-1.76428,
2026_07_06_16_51_08.576,3.853,29.9,0,0.759,0,0,0,0.008, ,0,0,0,0,0, ,-37.8,247.3,969.8,-0.5,-0.5,-1.6,25,-37.9711,246.508,969.754,-0.528796,-0.46821,-1.76036,
2026_07_06_16_51_08.596,3.853,29.9,0,0.759,0,0,0,0.008, ,0,0,0,0,0, ,-38.5,245.9,969.6,-0.7,-0.5,-1.8,25,-37.982,246.513,969.751,-0.533135,-0.470147,-1.75668,
2026_07_06_16_51_08.615,3.853,30,0,0.759,0,0,0,0.008, ,0,0,0,0,0, ,-38,247.3,969.2,-0.7,-0.5,-1.8,25,-37.9983,246.519,969.729,-0.543303,-0.471966,-1.75932,
2026_07_06_16_51_08.634,3.853,29.9,0,0.759,0,0,0,0.007, ,0,0,0,0,0, ,-38.3,248,969.3,-0.5,-0.5,-1.7,25,-38.0075,246.587,969.7,-0.546758,-0.473675,-1.75876,
2026_07_06_16_51_08.655,3.853,29.9,0,0.76,0,0,0,0, ,0,0,0,0,0, ,-38,248.1,969.9,-0.3,-0.4,-1.7,25,-38.0162,246.677,969.694,-0.537815,-0.472232,-1.75518,
2026_07_06_16_51_08.674,3.853,30,0,0.76,0,0,0,0, ,0,0,0,0,0, ,-37.8,245.1,968.9,-0.5,-0.5,-1.8,25,-38.0091,246.672,969.676,-0.529417,-0.470877,-1.75486,
2026_07_06_16_51_08.695,3.853,30,0,0.759,0,0,0,0, ,0,0,0,0,0, ,-37.3,246.2,971.4,-0.6,-0.4,-1.7,25,-37.9812,246.61,969.705,-0.530671,-0.469605,-1.75456,
2026_07_06_16_51_08.714,3.853,29.9,0,0.759,0,0,0,0, ,0,0,0,0,0, ,-37.5,247.1,969.2,-0.5,-0.4,-1.7,25,-37.9457,246.612,969.741,-0.531849,-0.465363,-1.75124,
2026_07_06_16_51_08.735,3.853,29.9,0,0.759,0,0,0,0, ,0,0,0,0,0, ,-38.8,246.9,968.3,-0.4,-0.5,-1.7,25,-37.9582,246.636,969.681,-0.526862,-0.464427,-1.74812,
2026_07_06_16_51_08.754,3.853,30,0,0.759,0,0,0,0, ,0,0,0,0,0, ,-38,246.8,970.7,-0.5,-0.5,-1.7,25,-37.9851,246.649,969.67,-0.522178,-0.466595,-1.74518,
2026_07_06_16_51_08.774,3.853,30,0,0.76,0,0,0,0, ,0,0,0,0,0, ,-37.3,246.7,969.1,-0.5,-0.5,-1.8,25,-37.9647,246.655,969.684,-0.520826,-0.468631,-1.74548,
2026_07_06_16_51_08.793,3.853,29.9,0,0.759,0,0,0,0, ,0,0,0,0,0, ,-37.5,245.2,970.9,-0.6,-0.4,-1.8,25,-37.9303,246.612,969.703,-0.522604,-0.467495,-1.7488,
2026_07_06_16_51_08.814,3.853,30,0,0.758,0,0,0,0, ,0,0,0,0,0, ,-37.3,246.7,969.3,-0.6,-0.5,-1.8,25,-37.898,246.572,969.727,-0.52732,-0.466429,-1.75192,
2026_07_06_16_51_08.833,3.853,30,0,0.76,0,0,0,0, ,0,0,0,0,0, ,-37.7,245.9,970.9,-0.5,-0.5,-1.8,25,-37.8737,246.555,969.75,-0.528702,-0.468475,-1.75485,
2026_07_06_16_51_08.859,3.853,29.9,0,0.76,0,0,0,0, ,0,0,0,0,0, ,-38.8,248,969.7,-0.5,-0.4,-1.8,25,-37.8966,246.579,969.783,-0.526953,-0.467349,-1.7576,
2026_07_06_16_51_08.872,3.853,29.9,0,0.761,0,0,0,0, ,0,0,0,0,0, ,-38.9,247.4,969.3,-0.5,-0.5,-1.8,25,-37.9547,246.647,969.766,-0.525311,-0.466292,-1.76019,
2026_07_06_16_51_08.892,3.853,30,0,0.759,0,0,0,0, ,0,0,0,0,0, ,-37.9,245.1,969.9,-0.7,-0.5,-1.8,25,-37.9819,246.623,969.756,-0.529862,-0.468346,-1.76261,
2026_07_06_16_51_08.913,3.853,29.9,0,0.76,0,0,0,0, ,0,0,0,0,0, ,-38.6,248.6,972.5,-0.7,-0.5,-1.8,25,-37.9982,246.637,969.844,-0.54023,-0.470275,-1.76489,
2026_07_06_16_51_08.932,3.853,30,0,0.759,0,0,0,0, ,0,0,0,0,0, ,-37.9,247,968,0,-0.5,-1.8,25,-38.0136,246.708,969.869,-0.528638,-0.472086,-1.76703,
2026_07_06_16_51_08.952,3.853,30.1,0,0.758,0,0,0,0, ,0,0,0,0,0, ,-36.6,246.9,970.5,-0.3,-0.5,-1.8,25,-37.967,246.723,969.831,-0.505565,-0.473787,-1.76904,
2026_07_06_16_51_08.972,3.853,29.9,0,0.758,0,0,0,0, ,0,0,0,0,0, ,-38,245.2,969.4,-0.6,-0.5,-1.8,25,-37.9264,246.682,969.838,-0.502179,-0.475385,-1.77093,
2026_07_06_16_51_08.991,3.853,29.9,0,0.761,0,0,0,0, ,0,0,0,0,0, ,-39.1,246.9,969.8,-0.8,-0.5,-1.8,25,-37.9644,246.643,969.824,-0.514233,-0.476885,-1.7727,
2026_07_06_16_51_09.011,3.853,30,0,0.76,0,0,0,0, ,0,0,0,0,0, ,-38.8,248,969.8,-0.6,-0.5,-1.8,25,-38.0244,246.692,969.822,-0.525554,-0.478293,-1.77436,
2026_07_06_16_51_09.031,3.853,30,0,0.76,0,0,0,0, ,0,0,0,0,0, ,-37.9,244.9,970.7,-0.7,-0.5,-1.8,25,-38.0443,246.678,969.848,-0.533137,-0.479616,-1.77592,
2026_07_06_16_51_09.055,3.853,30,0,0.76,0,0,0,0, ,0,0,0,0,0, ,-38,247.3,969.9,-0.7,-0.4,-1.8,25,-38.0385,246.642,969.876,-0.543305,-0.477811,-1.77739,
2026_07_06_16_51_09.070,3.853,30,0,0.759,0,0,0,0, ,0,0,0,0,0, ,-38.5,248.4,969.6,-0.4,-0.5,-1.8,25,-38.0514,246.716,969.868,-0.543713,-0.476116,-1.77877,
2026_07_06_16_51_09.091,3.853,30,0,0.759,0,0,0,0, ,0,0,0,0,0, ,-37.8,246.9,969.3,-0.5,-0.4,-1.7,25,-38.0574,246.773,969.843,-0.538003,-0.474525,-1.77701,
2026_07_06_16_51_09.110,3.853,30,0,0.76,0,0,0,0, ,0,0,0,0,0, ,-38.8,246.7,970.2,-0.5,-0.4,-1.7,25,-38.0722,246.775,969.837,-0.535687,-0.469984,-1.77232,
2026_07_06_16_51_09.130,3.853,30,0,0.759,0,0,0,0, ,0,0,0,0,0, ,-37.8,246.3,969.9,-0.5,-0.4,-1.8,25,-38.0861,246.758,969.85,-0.533512,-0.465719,-1.77096,
2026_07_06_16_51_09.150,3.853,30.1,0,0.759,0,0,0,0, ,0,0,0,0,0, ,-38,246.8,970,-0.5,-0.4,-1.7,25,-38.0748,246.745,969.856,-0.53147,-0.461714,-1.76968,
2026_07_06_16_51_09.170,3.853,30,0,0.759,0,0,0,0, ,0,0,0,0,0, ,-37.5,246.8,970,-0.5,-0.5,-1.7,25,-38.055,246.749,969.865,-0.529552,-0.461,-1.76544,
2026_07_06_16_51_09.189,3.853,30,0,0.759,0,0,0,0, ,0,0,0,0,0, ,-38.3,245.9,969.3,-0.5,-0.4,-1.8,25,-38.0455,246.724,969.852,-0.527751,-0.46033,-1.7645,
2026_07_06_16_51_09.209,3.853,30.1,0,0.759,0,0,0,0, ,0,0,0,0,0, ,-37.8,244.3,970.2,-0.6,-0.4,-1.7,25,-38.0458,246.625,969.846,-0.529107,-0.456654,-1.76361,
2026_07_06_16_51_09.229,3.853,30,0,0.759,0,0,0,0, ,0,0,0,0,0, ,-37.4,246.5,969.6,-0.7,-0.5,-1.7,25,-38.0186,246.551,969.849,-0.536474,-0.456248,-1.75974,
2026_07_06_16_51_09.255,3.853,30,0,0.759,0,0,0,0, ,0,0,0,0,0, ,-37.7,247.1,969.7,-0.6,-0.5,-1.7,25,-37.9901,246.566,969.837,-0.543392,-0.458914,-1.7561,
2026_07_06_16_51_09.269,3.853,30.1,0,0.759,0,0,0,0, ,0,0,0,0,0, ,-37.5,248.1,969.8,-0.5,-0.5,-1.7,25,-37.9663,246.629,969.832,-0.543795,-0.461418,-1.75268,
2026_07_06_16_51_09.288,3.853,30,0,0.759,0,0,0,0, ,0,0,0,0,0, ,-36.6,245.4,970.9,-0.6,-0.5,-1.7,25,-37.9105,246.636,969.863,-0.544173,-0.463769,-1.74947,
2026_07_06_16_51_09.308,3.853,30,0,0.759,0,0,0,0, ,0,0,0,0,0, ,-37.3,247.1,969.9,-0.6,-0.5,-1.7,25,-37.8519,246.613,969.896,-0.547575,-0.465977,-1.74645,
2026_07_06_16_51_09.329,3.853,30,0,0.76,0,0,0,0, ,0,0,0,0,0, ,-38,247,969.9,-0.6,-0.5,-1.8,25,-37.8396,246.639,969.896,-0.55077,-0.46805,-1.74667,
2026_07_06_16_51_09.348,3.853,30.1,0,0.76,0,0,0,0, ,0,0,0,0,0, ,-38.8,246.7,971,-0.5,-0.5,-1.7,25,-37.8738,246.652,969.93,-0.550723,-0.469997,-1.74687,
2026_07_06_16_51_09.368,3.853,30.1,0,0.76,0,0,0,0, ,0,0,0,0,0, ,-38.3,245.6,970.3,-0.5,-0.4,-1.7,25,-37.915,246.622,969.974,-0.547632,-0.468779,-1.74402,
2026_07_06_16_51_09.387,3.853,30,0,0.759,0,0,0,0, ,0,0,0,0,0, ,-37.2,246.8,970.4,-0.6,-0.5,-1.7,25,-37.9049,246.596,969.997,-0.547776,-0.467634,-1.74133,
2026_07_06_16_51_09.407,3.853,30,0,0.759,0,0,0,0, ,0,0,0,0,0, ,-39,246.9,970.5,-0.6,-0.4,-1.8,25,-37.9168,246.611,970.024,-0.550958,-0.46656,-1.74186,
2026_07_06_16_51_09.427,3.853,30,0,0.759,0,0,0,0, ,0,0,0,0,0, ,-37.7,245.9,969.7,-0.5,-0.5,-1.8,25,-37.9432,246.598,970.029,-0.5509,-0.465551,-1.74541,
2026_07_06_16_51_09.447,3.853,30,0,0.759,0,0,0,0, ,0,0,0,0,0, ,-36.6,246.8,970.5,-0.4,-0.5,-1.8,25,-37.8949,246.583,970.033,-0.544751,-0.46765,-1.74873,
2026_07_06_16_51_09.467,3.853,30.1,0,0.761,0,0,0,0, ,0,0,0,0,0, ,-38.5,246.4,968.8,-0.4,-0.5,-1.8,25,-37.8739,246.584,970.01,-0.535931,-0.469621,-1.75186,
2026_07_06_16_51_09.487,3.853,30,0,0.759,0,0,0,0, ,0,0,0,0,0, ,-37.3,246.9,971.6,-0.5,-0.4,-1.8,25,-37.8755,246.588,970.021,-0.530694,-0.468426,-1.75479,
2026_07_06_16_51_09.507,3.853,30,0,0.759,0,0,0,0, ,0,0,0,0,0, ,-38.4,246.5,969.6,-0.8,-0.5,-1.7,25,-37.8739,246.595,970.057,-0.537964,-0.467303,-1.7545,
2026_07_06_16_51_09.527,3.853,30,0,0.76,0,0,0,0, ,0,0,0,0,0, ,-37.9,246.5,970.3,-0.6,-0.5,-1.7,25,-37.8907,246.589,970.05,-0.547838,-0.469295,-1.75118,
2026_07_06_16_51_09.547,3.853,29.9,0,0.76,0,0,0,0, ,0,0,0,0,0, ,-37.7,245.7,970.4,-0.5,-0.4,-1.8,25,-37.8852,246.56,970.068,-0.54797,-0.468119,-1.75111,
2026_07_06_16_51_09.566,3.853,30,0,0.76,0,0,0,0, ,0,0,0,0,0, ,-36.9,247,970.7,-0.6,-0.4,-1.8,25,-37.8495,246.547,970.098,-0.548094,-0.463968,-1.75408,
2026_07_06_16_51_09.586,3.853,30,0,0.761,0,0,0,0, ,0,0,0,0,0, ,-38.8,245.7,969.6,-0.6,-0.4,-1.7,25,-37.8496,246.535,970.101,-0.551257,-0.46007,-1.75384,
2026_07_06_16_51_09.605,3.853,30.1,0,0.759,0,0,0,0, ,0,0,0,0,0, ,-38.2,246.8,970.2,-0.5,-0.4,-1.8,25,-37.8892,246.517,970.089,-0.55118,-0.45641,-1.7536,
2026_07_06_16_51_09.626,3.853,29.9,0,0.759,0,0,0,0, ,0,0,0,0,0, ,-37.8,246.4,968.6,-0.4,-0.4,-1.8,25,-37.896,246.522,970.047,-0.545015,-0.452972,-1.75643,
2026_07_06_16_51_09.645,3.853,30,0,0.759,0,0,0,0, ,0,0,0,0,0, ,-38.2,245.3,971.9,-0.4,-0.4,-1.8,25,-37.9023,246.481,970.059,-0.536178,-0.449744,-1.75908,
2026_07_06_16_51_09.665,3.853,30,0,0.76,0,0,0,0, ,0,0,0,0,0, ,-38.5,246.2,969.3,-0.6,-0.5,-1.8,25,-37.9296,246.437,970.092,-0.533973,-0.44976,-1.76158,
2026_07_06_16_51_09.684,3.853,30,0,0.759,0,0,0,0, ,0,0,0,0,0, ,-38.8,246.4,969.7,-0.5,-0.5,-1.8,25,-37.9735,246.429,970.056,-0.53495,-0.452821,-1.76392,
2026_07_06_16_51_09.705,3.853,30,0,0.76,0,0,0,0, ,0,0,0,0,0, ,-37.7,245.8,970,-0.5,-0.5,-1.8,25,-37.9903,246.409,970.043,-0.53282,-0.455696,-1.76612,
2026_07_06_16_51_09.725,3.853,30,0,0.76,0,0,0,0, ,0,0,0,0,0, ,-39.5,245.2,970.4,-0.5,-0.5,-1.7,25,-38.0275,246.353,970.053,-0.53082,-0.458396,-1.76514,
2026_07_06_16_51_09.744,3.853,30,0,0.759,0,0,0,0, ,0,0,0,0,0, ,-38.2,247.3,969.3,-0.5,-0.5,-1.7,25,-38.0776,246.347,970.041,-0.528942,-0.460931,-1.76117,
2026_07_06_16_51_09.764,3.853,30,0,0.76,0,0,0,0, ,0,0,0,0,0, ,-38.5,247.6,970,-0.4,-0.5,-1.7,25,-38.0942,246.414,970.017,-0.524132,-0.463312,-1.75744,
2026_07_06_16_51_09.784,3.853,30.1,0,0.759,0,0,0,0, ,0,0,0,0,0, ,-37.7,245.1,969.6,-0.4,-0.4,-1.8,25,-38.0946,246.41,970.004,-0.516567,-0.462501,-1.75699,
2026_07_06_16_51_09.804,3.853,30.1,0,0.76,0,0,0,0, ,0,0,0,0,0, ,-37.3,246.2,970.3,-0.6,-0.4,-1.8,25,-38.0583,246.364,970,-0.515558,-0.458692,-1.75961,
2026_07_06_16_51_09.824,3.853,30,0,0.759,0,0,0,0, ,0,0,0,0,0, ,-38.4,246.9,969.9,-0.5,-0.4,-1.7,25,-38.0456,246.375,970.006,-0.517657,-0.455116,-1.75902,
2026_07_06_16_51_09.843,3.853,29.9,0,0.759,0,0,0,0, ,0,0,0,0,0, ,-38.2,246.7,969.6,-0.4,-0.5,-1.8,25,-38.0611,246.401,969.991,-0.513534,-0.454804,-1.75847,
2026_07_06_16_51_09.867,3.853,30,0,0.759,0,0,0,0, ,0,0,0,0,0, ,-37.3,245.2,970.7,-0.5,-0.4,-1.8,25,-38.0422,246.374,970.001,-0.509662,-0.454511,-1.761,
2026_07_06_16_51_09.883,3.853,30,0,0.76,0,0,0,0, ,0,0,0,0,0, ,-38.8,246.4,970.8,-0.6,-0.5,-1.7,25,-38.0426,246.339,970.046,-0.51212,-0.454236,-1.76033,
2026_07_06_16_51_09.903,3.853,30,0,0.76,0,0,0,0, ,0,0,0,0,0, ,-38.4,246.9,970.5,-0.5,-0.5,-1.8,25,-38.0766,246.358,970.083,-0.514428,-0.457025,-1.7597,
2026_07_06_16_51_09.923,3.853,29.9,0,0.758,0,0,0,0, ,0,0,0,0,0, ,-38.4,245.6,971.3,-0.5,-0.5,-1.8,25,-38.0963,246.351,970.133,-0.513549,-0.459644,-1.76216,
2026_07_06_16_51_09.943,3.853,30,0,0.759,0,0,0,0, ,0,0,0,0,0, ,-36.7,246.3,972.1,-0.6,-0.5,-1.7,25,-38.063,246.327,970.228,-0.51577,-0.462103,-1.76142,
2026_07_06_16_51_09.962,3.853,29.9,0,0.758,0,0,0,0, ,0,0,0,0,0, ,-39.3,246.7,970.7,-0.7,-0.5,-1.7,25,-38.0592,246.337,970.3,-0.52395,-0.464412,-1.75767,
2026_07_06_16_51_09.982,3.853,30,0,0.758,0,0,0,0, ,0,0,0,0,0, ,-38.2,249,968.6,-0.6,-0.5,-1.8,25,-38.1013,246.429,970.26,-0.531631,-0.466581,-1.75721,
2026_07_06_16_51_10.002,3.853,30,0,0.758,0,0,0,0, ,0,0,0,0,0, ,-37.8,248.2,970.7,-0.5,-0.5,-1.7,25,-38.0951,246.562,970.223,-0.532751,-0.468617,-1.75677,
2026_07_06_16_51_10.021,3.853,30,0,0.76,0,0,0,0, ,0,0,0,0,0, ,-37.2,246.5,970.7,-0.7,-0.4,-1.7,25,-38.0588,246.61,970.252,-0.536849,-0.467483,-1.75331,
2026_07_06_16_51_10.041,3.853,30,0,0.759,0,0,0,0, ,0,0,0,0,0, ,-36.7,246.7,969.8,-0.6,-0.4,-1.8,25,-37.9913,246.609,970.252,-0.543744,-0.463371,-1.75311,
2026_07_06_16_51_10.061,3.853,30,0,0.76,0,0,0,0, ,0,0,0,0,0, ,-37.9,247.8,970.7,-0.4,-0.4,-1.8,25,-37.9492,246.648,970.252,-0.541078,-0.459509,-1.75596,
2026_07_06_16_51_10.081,3.853,29.9,0,0.759,0,0,0,0, ,0,0,0,0,0, ,-37.9,246.3,969.2,-0.5,-0.4,-1.7,25,-37.9462,246.673,970.233,-0.535528,-0.455883,-1.7556,
2026_07_06_16_51_10.101,3.853,30,0,0.759,0,0,0,0, ,0,0,0,0,0, ,-37.7,246.2,970.3,-0.4,-0.5,-1.8,25,-37.9373,246.647,970.204,-0.530316,-0.455524,-1.75526,
2026_07_06_16_51_10.121,3.853,30,0,0.759,0,0,0,0, ,0,0,0,0,0, ,-38.6,245.8,969.3,-0.6,-0.5,-1.7,25,-37.9502,246.607,970.179,-0.528469,-0.458234,-1.75494,
2026_07_06_16_51_10.141,3.853,29.9,0,0.759,0,0,0,0, ,0,0,0,0,0, ,-37.9,246.7,969.8,-0.6,-0.4,-1.8,25,-37.9685,246.586,970.141,-0.532828,-0.457733,-1.75464,
2026_07_06_16_51_10.160,3.853,30,0,0.76,0,0,0,0, ,0,0,0,0,0, ,-37.1,247,971,-0.5,-0.5,-1.8,25,-37.9399,246.602,970.157,-0.533874,-0.457261,-1.7574,
2026_07_06_16_51_10.180,3.853,30,0,0.759,0,0,0,0, ,0,0,0,0,0, ,-37.3,246.3,970.9,-0.4,-0.4,-1.8,25,-37.8948,246.605,970.205,-0.528763,-0.456819,-1.76,
2026_07_06_16_51_10.199,3.853,30,0,0.759,0,0,0,0, ,0,0,0,0,0, ,-37.9,246.4,970.4,-0.5,-0.5,-1.7,25,-37.8769,246.589,970.232,-0.523963,-0.456403,-1.75939,
2026_07_06_16_51_10.219,3.853,30,0,0.759,0,0,0,0, ,0,0,0,0,0, ,-37.5,246.3,970.9,-0.6,-0.4,-1.7,25,-37.8661,246.575,970.258,-0.52555,-0.456013,-1.75577,
2026_07_06_16_51_10.239,3.853,29.9,0,0.76,0,0,0,0, ,0,0,0,0,0, ,-36.9,246.5,971,-0.7,-0.5,-1.8,25,-37.8255,246.564,970.3,-0.533134,-0.455647,-1.75542,
2026_07_06_16_51_10.259,3.853,30,0,0.759,0,0,0,0, ,0,0,0,0,0, ,-37.9,245.9,970.8,-0.6,-0.5,-1.7,25,-37.7996,246.542,970.336,-0.540255,-0.45835,-1.75509,
2026_07_06_16_51_10.279,3.853,30,0,0.759,0,0,0,0, ,0,0,0,0,0, ,-37.2,246.7,970.4,-0.5,-0.5,-1.8,25,-37.7844,246.527,970.352,-0.540849,-0.460888,-1.75478,
2026_07_06_16_51_10.298,3.853,30,0,0.759,0,0,0,0, ,0,0,0,0,0, ,-38.4,246.8,971.6,-0.6,-0.4,-1.8,25,-37.7853,246.541,970.392,-0.541407,-0.460224,-1.75753,
2026_07_06_16_51_10.318,3.853,30,0,0.76,0,0,0,0, ,0,0,0,0,0, ,-38.9,246,970.9,-0.6,-0.4,-1.8,25,-37.838,246.532,970.444,-0.544977,-0.456554,-1.76012,
2026_07_06_16_51_10.338,3.853,30,0,0.759,0,0,0,0, ,0,0,0,0,0, ,-37.9,247,970.2,-0.4,-0.5,-1.8,25,-37.8723,246.53,970.451,-0.542236,-0.456155,-1.76255,
2026_07_06_16_51_10.358,3.853,30,0,0.759,0,0,0,0, ,0,0,0,0,0, ,-38.9,246.9,970.2,-0.5,-0.5,-1.7,25,-37.9044,246.556,970.435,-0.536616,-0.458827,-1.76179,
2026_07_06_16_51_10.378,3.853,30,0,0.759,0,0,0,0, ,0,0,0,0,0, ,-37.7,246.4,970.4,-0.7,-0.5,-1.8,25,-37.9285,246.561,970.427,-0.540478,-0.461336,-1.76107,
2026_07_06_16_51_10.398,3.853,29.9,0,0.759,0,0,0,0, ,0,0,0,0,0, ,-37.4,247.9,968.9,-0.6,-0.5,-1.7,25,-37.9055,246.597,970.38,-0.547152,-0.463692,-1.76039,
2026_07_06_16_51_10.418,3.853,30,0,0.759,0,0,0,0, ,0,0,0,0,0, ,-37.5,247.1,968.7,-0.5,-0.4,-1.8,25,-37.8777,246.652,970.284,-0.547326,-0.462857,-1.75976,
2026_07_06_16_51_10.438,3.853,30,0,0.76,0,0,0,0, ,0,0,0,0,0, ,-37.5,245.2,970.4,-0.5,-0.5,-1.8,25,-37.8547,246.622,970.239,-0.544442,-0.462074,-1.76221,
2026_07_06_16_51_10.457,3.853,29.9,0,0.759,0,0,0,0, ,0,0,0,0,0, ,-38.2,245.7,970.9,-0.6,-0.4,-1.7,25,-37.8544,246.55,970.264,-0.544781,-0.461338,-1.76147,
2026_07_06_16_51_10.477,3.853,30,0,0.759,0,0,0,0, ,0,0,0,0,0, ,-37.8,247.3,970,-0.4,-0.5,-1.7,25,-37.8633,246.547,970.275,-0.542052,-0.460647,-1.75772,
2026_07_06_16_51_10.502,3.853,30,0,0.759,0,0,0,0, ,0,0,0,0,0, ,-37.8,247.1,970.7,-0.6,-0.4,-1.8,25,-37.8594,246.587,970.28,-0.539489,-0.459998,-1.75725,
2026_07_06_16_51_10.519,3.853,29.9,0,0.757,0,0,0,0, ,0,0,0,0,0, ,-37.9,247.9,969.7,-0.5,-0.5,-1.8,25,-37.8588,246.643,970.275,-0.54013,-0.459389,-1.75986,
2026_07_06_16_51_10.536,3.853,30,0,0.76,0,0,0,0, ,0,0,0,0,0, ,-38.8,245.6,970.5,-0.4,-0.4,-1.8,25,-37.8888,246.649,970.264,-0.534637,-0.458817,-1.7623,
2026_07_06_16_51_10.556,3.853,30,0,0.759,0,0,0,0, ,0,0,0,0,0, ,-37.8,246.4,971.1,-0.5,-0.4,-1.7,25,-37.9138,246.61,970.297,-0.52948,-0.455233,-1.76155,
2026_07_06_16_51_10.576,3.853,30,0,0.759,0,0,0,0, ,0,0,0,0,0, ,-37.7,245.6,971.4,-0.5,-0.5,-1.7,25,-37.9039,246.572,970.355,-0.527683,-0.454914,-1.7578,
2026_07_06_16_51_10.596,3.853,29.9,0,0.76,0,0,0,0, ,0,0,0,0,0, ,-37.5,247.3,968.9,-0.5,-0.4,-1.8,25,-37.8853,246.565,970.342,-0.525996,-0.454615,-1.75733,
2026_07_06_16_51_10.616,3.853,30.1,0,0.759,0,0,0,0, ,0,0,0,0,0, ,-38.9,246.5,969.2,-0.5,-0.4,-1.8,25,-37.9045,246.585,970.264,-0.524412,-0.451286,-1.75993,
2026_07_06_16_51_10.636,3.853,30,0,0.759,0,0,0,0, ,0,0,0,0,0, ,-38.3,246.7,970.7,-0.5,-0.5,-1.8,25,-37.9469,246.586,970.245,-0.522925,-0.451208,-1.76237,
2026_07_06_16_51_10.656,3.853,30,0,0.759,0,0,0,0, ,0,0,0,0,0, ,-38.3,245.2,970.2,-0.5,-0.4,-1.7,25,-37.9684,246.548,970.257,-0.521528,-0.451134,-1.76162,
2026_07_06_16_51_10.675,3.853,29.9,0,0.76,0,0,0,0, ,0,0,0,0,0, ,-37.3,244.8,969.8,-0.5,-0.4,-1.8,25,-37.9581,246.453,970.241,-0.520216,-0.448018,-1.76091,
2026_07_06_16_51_10.695,3.853,29.9,0,0.759,0,0,0,0, ,0,0,0,0,0, ,-38,246.3,969.8,-0.6,-0.4,-1.8,25,-37.9394,246.398,970.215,-0.522031,-0.445092,-1.76329,
2026_07_06_16_51_10.715,3.853,30,0,0.759,0,0,0,0, ,0,0,0,0,0, ,-38,248,970.7,-0.6,-0.4,-1.7,25,-37.9431,246.444,970.217,-0.526782,-0.442345,-1.76248,
2026_07_06_16_51_10.737,3.853,30,0,0.76,0,0,0,0, ,0,0,0,0,0, ,-37.3,247.4,970.8,-0.6,-0.4,-1.8,25,-37.9252,246.521,970.249,-0.531244,-0.439764,-1.76172,
2026_07_06_16_51_10.754,3.853,29.9,0,0.76,0,0,0,0, ,0,0,0,0,0, ,-37.5,246.7,970.3,-0.7,-0.5,-1.8,25,-37.8932,246.553,970.268,-0.538481,-0.440388,-1.76405,
2026_07_06_16_51_10.774,3.853,30.1,0,0.76,0,0,0,0, ,0,0,0,0,0, ,-38,247.3,970.9,-0.7,-0.5,-1.8,25,-37.8845,246.58,970.288,-0.548323,-0.444021,-1.76624,
2026_07_06_16_51_10.794,3.853,30,0,0.759,0,0,0,0, ,0,0,0,0,0, ,-38.9,246.9,972.2,-0.5,-0.4,-1.8,25,-37.9189,246.612,970.365,-0.551472,-0.444385,-1.7683,
2026_07_06_16_51_10.814,3.853,29.9,0,0.759,0,0,0,0, ,0,0,0,0,0, ,-37.4,245.9,969.2,-0.5,-0.4,-1.8,25,-37.933,246.599,970.385,-0.548336,-0.44168,-1.77023,
2026_07_06_16_51_10.833,3.853,30,0,0.759,0,0,0,0, ,0,0,0,0,0, ,-38.9,247.4,970.5,-0.4,-0.4,-1.7,25,-37.9462,246.602,970.353,-0.542343,-0.43914,-1.769,
2026_07_06_16_51_10.853,3.853,30,0,0.759,0,0,0,0, ,0,0,0,0,0, ,-37.8,246.7,970.8,-0.6,-0.4,-1.8,25,-37.9708,246.629,970.371,-0.539763,-0.436755,-1.76784,
2026_07_06_16_51_10.873,3.853,30,0,0.759,0,0,0,0, ,0,0,0,0,0, ,-38.4,247,970.7,-0.6,-0.4,-1.8,25,-37.9787,246.643,970.394,-0.543434,-0.434515,-1.7698,
2026_07_06_16_51_10.893,3.853,30,0,0.759,0,0,0,0, ,0,0,0,0,0, ,-38.5,248,970,-0.4,-0.5,-1.7,25,-38.0074,246.695,970.391,-0.540787,-0.435459,-1.76859,
2026_07_06_16_51_10.913,3.853,29.9,0,0.759,0,0,0,0, ,0,0,0,0,0, ,-38.3,246.5,970.3,-0.4,-0.5,-1.8,25,-38.0314,246.729,970.376,-0.532208,-0.439392,-1.76746,
2026_07_06_16_51_10.932,3.853,30,0,0.759,0,0,0,0, ,0,0,0,0,0, ,-36.8,246.5,970.3,-0.5,-0.5,-1.8,25,-38.002,246.715,970.372,-0.527198,-0.443085,-1.76944,
2026_07_06_16_51_10.952,3.853,30,0,0.759,0,0,0,0, ,0,0,0,0,0, ,-38.2,246.4,970.9,-0.5,-0.4,-1.7,25,-37.9714,246.699,970.386,-0.525541,-0.443507,-1.76826,
2026_07_06_16_51_10.972,3.853,30,0,0.759,0,0,0,0, ,0,0,0,0,0, ,-38.5,246.4,970.7,-0.6,-0.5,-1.8,25,-37.9945,246.68,970.411,-0.527031,-0.443902,-1.76715,
2026_07_06_16_51_10.992,3.853,30,0,0.759,0,0,0,0, ,0,0,0,0,0, ,-38,246.4,969.9,-0.8,-0.5,-1.8,25,-38.0101,246.663,970.404,-0.537572,-0.447321,-1.76915,
2026_07_06_16_51_11.012,3.853,30,0,0.759,0,0,0,0, ,0,0,0,0,0, ,-37.9,245.7,970.2,-0.5,-0.5,-1.7,25,-38.0064,246.626,970.383,-0.544423,-0.450531,-1.76798,
2026_07_06_16_51_11.032,3.853,29.9,0,0.759,0,0,0,0, ,0,0,0,0,0, ,-37.2,246,969.9,-0.5,-0.5,-1.8,25,-37.9786,246.579,970.362,-0.541716,-0.453545,-1.76689,
2026_07_06_16_51_11.051,3.853,29.9,0,0.76,0,0,0,0, ,0,0,0,0,0, ,-39.4,248.2,969.2,-0.8,-0.5,-1.8,25,-37.9982,246.611,970.313,-0.548314,-0.456376,-1.7689,
2026_07_06_16_51_11.071,3.853,29.9,0,0.759,0,0,0,0, ,0,0,0,0,0, ,-38.4,246.8,971.8,-0.5,-0.5,-1.7,25,-38.0531,246.665,970.324,-0.554511,-0.459035,-1.76775,
2026_07_06_16_51_11.091,3.853,30,0,0.759,0,0,0,0, ,0,0,0,0,0, ,-38.2,244.8,972.1,-0.5,-0.5,-1.8,25,-38.0682,246.612,970.423,-0.551189,-0.461531,-1.76667,
2026_07_06_16_51_11.110,3.853,30,0,0.759,0,0,0,0, ,0,0,0,0,0, ,-37.3,247.1,969.1,-0.5,-0.4,-1.8,25,-38.0488,246.572,970.434,-0.54807,-0.460828,-1.7687,
2026_07_06_16_51_11.129,3.853,29.9,0,0.76,0,0,0,0, ,0,0,0,0,0, ,-38.5,247.1,969.4,-0.6,-0.4,-1.8,25,-38.0397,246.604,970.362,-0.548187,-0.457122,-1.77061,
2026_07_06_16_51_11.150,3.853,30,0,0.761,0,0,0,0, ,0,0,0,0,0, ,-37.3,245.4,969.9,-0.4,-0.4,-1.7,25,-38.0312,246.582,970.319,-0.545251,-0.453641,-1.76935,
2026_07_06_16_51_11.169,3.853,29.9,0,0.758,0,0,0,0, ,0,0,0,0,0, ,-37.1,246,969.8,-0.6,-0.5,-1.7,25,-37.9806,246.529,970.29,-0.542493,-0.453419,-1.76513,
2026_07_06_16_51_11.190,3.853,29.9,0,0.759,0,0,0,0, ,0,0,0,0,0, ,-37.1,246.4,969.7,-0.7,-0.4,-1.8,25,-37.9269,246.509,970.257,-0.549045,-0.45321,-1.7642,
2026_07_06_16_51_11.209,3.853,29.9,0,0.759,0,0,0,0.001, ,0,0,0,0,0, ,-39.4,247.4,969.8,-0.7,-0.5,-1.8,25,-37.9466,246.532,970.226,-0.558243,-0.453015,-1.76639,
2026_07_06_16_51_11.229,3.853,29.9,0,0.759,0,0,0,0.001, ,0,0,0,0,0, ,-37.3,248.6,970.9,-0.6,-0.4,-1.7,25,-37.9712,246.622,970.234,-0.563835,-0.452831,-1.76539,
2026_07_06_16_51_11.249,3.853,30,0,0.759,0,0,0,0.001, ,0,0,0,0,0, ,-38.4,247.9,969.2,-0.5,-0.5,-1.8,25,-37.9638,246.721,970.223,-0.562992,-0.452659,-1.76445,
2026_07_06_16_51_11.268,3.853,30,0,0.758,0,0,0,0, ,0,0,0,0,0, ,-39,246.7,971.1,-0.6,-0.4,-1.8,25,-38.0086,246.756,970.218,-0.5622,-0.452497,-1.76662,
2026_07_06_16_51_11.289,3.853,30,0,0.759,0,0,0,0, ,0,0,0,0,0, ,-37.4,248,970.3,-0.6,-0.5,-1.8,25,-38.0203,246.792,970.247,-0.564504,-0.452344,-1.76865,
2026_07_06_16_51_11.308,3.853,30,0,0.759,0,0,0,0, ,0,0,0,0,0, ,-37.5,246.8,969.2,-0.5,-0.5,-1.7,25,-37.9856,246.83,970.217,-0.56362,-0.455248,-1.76751,
2026_07_06_16_51_11.328,3.853,30,0,0.758,0,0,0,0, ,0,0,0,0,0, ,-38,244.6,970,-0.6,-0.4,-1.8,25,-37.9712,246.761,970.18,-0.56279,-0.454929,-1.76645,
2026_07_06_16_51_11.348,3.853,29.9,0,0.759,0,0,0,0, ,0,0,0,0,0, ,-38.5,246.9,970.9,-0.6,-0.5,-1.7,25,-37.9882,246.699,970.196,-0.565057,-0.454628,-1.76544,
2026_07_06_16_51_11.368,3.853,30,0,0.758,0,0,0,0.001, ,0,0,0,0,0, ,-38.2,246,969.6,-0.5,-0.4,-1.8,25,-38.0102,246.684,970.199,-0.56414,-0.454346,-1.7645,
2026_07_06_16_51_11.388,3.853,29.9,0,0.759,0,0,0,0, ,0,0,0,0,0, ,-38.2,245.4,970.8,-0.5,-0.5,-1.7,25,-38.0218,246.624,970.199,-0.560231,-0.454081,-1.76362,
2026_07_06_16_51_11.408,3.853,30,0,0.759,0,0,0,0.001, ,0,0,0,0,0, ,-36.6,245.6,970.7,-0.5,-0.5,-1.7,25,-37.9839,246.555,970.233,-0.556561,-0.45688,-1.75974,
2026_07_06_16_51_11.428,3.853,29.9,0,0.757,0,0,0,0, ,0,0,0,0,0, ,-38.6,246,972.2,-0.5,-0.5,-1.8,25,-37.9605,246.509,970.307,-0.553114,-0.459507,-1.75915,
2026_07_06_16_51_11.450,3.853,29.9,0,0.759,0,0,0,0.001, ,0,0,0,0,0, ,-38.8,246.7,970.3,-0.5,-0.5,-1.7,25,-38.0056,246.5,970.365,-0.549878,-0.461975,-1.75859,
2026_07_06_16_51_11.469,3.853,30,0,0.759,0,0,0,0.001, ,0,0,0,0,0, ,-37.3,246.8,970.5,-0.6,-0.5,-1.8,25,-38.0083,246.515,970.367,-0.549885,-0.464292,-1.75807,
2026_07_06_16_51_11.487,3.853,30,0,0.759,0,0,0,0, ,0,0,0,0,0, ,-35.7,246.4,970.2,-0.5,-0.4,-1.7,25,-37.9164,246.52,970.366,-0.549892,-0.463421,-1.75758,
2026_07_06_16_51_11.506,3.853,30,0,0.759,0,0,0,0, ,0,0,0,0,0, ,-38.5,246,970.7,-0.6,-0.4,-1.8,25,-37.8666,246.501,970.371,-0.549899,-0.459556,-1.75711,
2026_07_06_16_51_11.526,3.853,29.9,0,0.759,0,0,0,0, ,0,0,0,0,0, ,-38,246.3,970.4,-0.5,-0.5,-1.7,25,-37.89,246.479,970.382,-0.549905,-0.458974,-1.75668,
2026_07_06_16_51_11.546,3.853,30,0,0.76,0,0,0,0.001, ,0,0,0,0,0, ,-38.4,247.1,970.8,-0.6,-0.4,-1.8,25,-37.9089,246.493,970.395,-0.549911,-0.458427,-1.75627,
2026_07_06_16_51_11.566,3.853,30,0,0.759,0,0,0,0, ,0,0,0,0,0, ,-37.4,246,969.8,-0.7,-0.5,-1.8,25,-37.9083,246.496,970.389,-0.55601,-0.457914,-1.75894,
2026_07_06_16_51_11.586,3.853,30,0,0.758,0,0,0,0, ,0,0,0,0,0, ,-36.9,247.8,970.9,-0.5,-0.5,-1.8,25,-37.8621,246.521,970.387,-0.55869,-0.460478,-1.76144,
2026_07_06_16_51_11.605,3.853,30,0,0.76,0,0,0,0, ,0,0,0,0,0, ,-37.1,245.2,971.3,-0.4,-0.5,-1.8,25,-37.8096,246.52,970.43,-0.552067,-0.462887,-1.76379,
2026_07_06_16_51_11.625,3.853,30,0,0.759,0,0,0,0, ,0,0,0,0,0, ,-39.4,246.7,969.3,-0.7,-0.4,-1.8,25,-37.8364,246.485,970.422,-0.551941,-0.462101,-1.766,
2026_07_06_16_51_11.644,3.853,30,0,0.759,0,0,0,0, ,0,0,0,0,0, ,-39.3,246.5,970.5,-0.4,-0.5,-1.7,25,-37.9287,246.492,970.391,-0.551823,-0.461364,-1.76502,
2026_07_06_16_51_11.665,3.853,29.9,0,0.758,0,0,0,0, ,0,0,0,0,0, ,-38.9,246.3,969.4,-0.5,-0.5,-1.8,25,-38,246.486,970.364,-0.545618,-0.463718,-1.76411,
2026_07_06_16_51_11.691,3.853,29.9,0,0.759,0,0,0,0.001, ,0,0,0,0,0, ,-36.9,246.8,970.2,-0.4,-0.5,-1.7,25,-37.9939,246.49,970.329,-0.539791,-0.465929,-1.76325,
2026_07_06_16_51_11.709,3.853,29.9,0,0.76,0,0,0,0.001, ,0,0,0,0,0, ,-37.9,246,969.6,-0.5,-0.5,-1.7,25,-37.9578,246.485,970.303,-0.53432,-0.468005,-1.75939,
2026_07_06_16_51_11.724,3.853,30,0,0.76,0,0,0,0.001, ,0,0,0,0,0, ,-37.8,247,970.3,-0.6,-0.5,-1.8,25,-37.9512,246.486,970.282,-0.535275,-0.469955,-1.75882,
2026_07_06_16_51_11.744,3.853,30,0,0.759,0,0,0,0, ,0,0,0,0,0, ,-37.7,247.4,967.8,-0.5,-0.5,-1.7,25,-37.9389,246.529,970.207,-0.536172,-0.471786,-1.75828,
2026_07_06_16_51_11.764,3.853,30,0,0.76,0,0,0,0, ,0,0,0,0,0, ,-38.9,248.5,969.3,-0.4,-0.5,-1.8,25,-37.9609,246.616,970.106,-0.530921,-0.473505,-1.75778,
2026_07_06_16_51_11.783,3.853,30,0,0.759,0,0,0,0, ,0,0,0,0,0, ,-37.9,246,969.4,-0.6,-0.5,-1.8,25,-37.9877,246.654,970.06,-0.529037,-0.47512,-1.76035,
2026_07_06_16_51_11.804,3.853,30,0,0.759,0,0,0,0, ,0,0,0,0,0, ,-37.8,244.6,970.2,-0.8,-0.4,-1.7,25,-37.9793,246.572,970.044,-0.539455,-0.473589,-1.75972,
2026_07_06_16_51_11.823,3.853,30,0,0.759,0,0,0,0, ,0,0,0,0,0, ,-38,247.6,969.4,-0.2,-0.5,-1.7,25,-37.9745,246.543,970.029,-0.537051,-0.472152,-1.75608,
2026_07_06_16_51_11.842,3.853,30,0,0.759,0,0,0,0, ,0,0,0,0,0, ,-37.4,245.8,970.5,-0.3,-0.5,-1.7,25,-37.9577,246.553,970.024,-0.519559,-0.473849,-1.75266,
2026_07_06_16_51_11.862,3.853,29.9,0,0.758,0,0,0,0, ,0,0,0,0,0, ,-39.1,245.4,970.7,-0.7,-0.4,-1.8,25,-37.9755,246.495,970.059,-0.518367,-0.472395,-1.7525,
2026_07_06_16_51_11.882,3.853,30,0,0.759,0,0,0,0.001, ,0,0,0,0,0, ,-36.8,246.8,970.4,-0.6,-0.5,-1.8,25,-37.974,246.471,970.089,-0.526388,-0.471031,-1.7554,
2026_07_06_16_51_11.902,3.853,29.9,0,0.758,0,0,0,0, ,0,0,0,0,0, ,-38.3,246.9,971.8,-0.5,-0.5,-1.8,25,-37.9482,246.494,970.151,-0.527827,-0.472796,-1.75811,
2026_07_06_16_51_11.922,3.853,29.8,0,0.759,0,0,0,0.001, ,0,0,0,0,0, ,-37.3,247,970.7,-0.5,-0.4,-1.7,25,-37.9391,246.521,970.218,-0.526131,-0.471407,-1.75762,
2026_07_06_16_51_11.942,3.853,29.9,0,0.759,0,0,0,0.001, ,0,0,0,0,0, ,-38,246.7,969.3,-0.5,-0.5,-1.7,25,-37.9215,246.541,970.204,-0.524539,-0.470102,-1.75411,
2026_07_06_16_51_11.961,3.853,29.9,0,0.759,0,0,0,0.001, ,0,0,0,0,0, ,-38.2,247.4,970.2,-0.7,-0.4,-1.9,25,-37.9324,246.572,970.177,-0.529137,-0.468877,-1.7569,
2026_07_06_16_51_11.981,3.853,29.8,0,0.759,0,0,0,0.001, ,0,0,0,0,0, ,-37.1,248,968.7,-0.8,-0.4,-1.8,25,-37.9152,246.641,970.132,-0.542596,-0.46468,-1.76258,
2026_07_06_16_51_12.001,3.853,29.8,0,0.759,0,0,0,0.001, ,0,0,0,0,0, ,-38.4,246.9,970.7,-0.5,-0.5,-1.7,25,-37.9051,246.69,970.106,-0.549141,-0.463786,-1.76181,
2026_07_06_16_51_12.022,3.853,29.9,0,0.759,0,0,0,0.002, ,0,0,0,0,0, ,-38,246.5,971.9,-0.5,-0.5,-1.7,25,-37.9231,246.691,970.179,-0.546147,-0.465992,-1.75804,
2026_07_06_16_51_12.041,3.853,29.9,0,0.759,0,0,0,0.001, ,0,0,0,0,0, ,-38.5,246.7,970.5,-0.6,-0.5,-1.7,25,-37.943,246.686,970.241,-0.546381,-0.468065,-1.75451,
2026_07_06_16_51_12.061,3.853,29.8,0,0.76,0,0,0,0.001, ,0,0,0,0,0, ,-37.1,246.4,970.2,-0.6,-0.5,-1.8,25,-37.9343,246.677,970.248,-0.549649,-0.470011,-1.75423,
2026_07_06_16_51_12.080,3.853,29.9,0,0.758,0,0,0,0.002, ,0,0,0,0,0, ,-38,247.4,969.2,-0.5,-0.5,-1.8,25,-37.9109,246.691,970.214,-0.54967,-0.471838,-1.75702,
2026_07_06_16_51_12.100,3.853,29.9,0,0.759,0,0,0,0.001, ,0,0,0,0,0, ,-37.9,246.5,968.9,-0.5,-0.4,-1.8,25,-37.9133,246.707,970.143,-0.546643,-0.470507,-1.75964,
2026_07_06_16_51_12.120,3.853,29.9,0,0.759,0,0,0,0.001, ,0,0,0,0,0, ,-38.2,247.4,971.6,-0.6,-0.4,-1.7,25,-37.9216,246.721,970.15,-0.546848,-0.466211,-1.75905,
2026_07_06_16_51_12.139,3.853,29.8,0,0.759,0,0,0,0.001, ,0,0,0,0,0, ,-38.5,246,970.5,-0.5,-0.5,-1.9,25,-37.9477,246.72,970.205,-0.54704,-0.465223,-1.76155,
2026_07_06_16_51_12.159,3.853,30,0,0.758,0,0,0,0.002, ,0,0,0,0,0, ,-39.1,247.9,969.2,-0.6,-0.5,-1.8,25,-37.9996,246.734,970.183,-0.54722,-0.467342,-1.76694,
2026_07_06_16_51_12.180,3.853,29.8,0,0.76,0,0,0,0, ,0,0,0,0,0, ,-38,247,970.2,-0.4,-0.5,-1.8,25,-38.0332,246.778,970.154,-0.544343,-0.469332,-1.76895,
2026_07_06_16_51_12.199,3.853,29.9,0,0.759,0,0,0,0.002, ,0,0,0,0,0, ,-36.9,246.7,969.8,-0.5,-0.4,-1.8,25,-37.9976,246.782,970.144,-0.538594,-0.468154,-1.77085,
2026_07_06_16_51_12.225,3.853,29.9,0,0.76,0,0,0,0.001, ,0,0,0,0,0, ,-38.9,246.8,969.9,-0.5,-0.4,-1.8,25,-37.9917,246.78,970.126,-0.536242,-0.464001,-1.77262,
2026_07_06_16_51_12.239,3.853,29.9,0,0.759,0,0,0,0.001, ,0,0,0,0,0, ,-38.4,246,968.9,-0.5,-0.5,-1.8,25,-38.0318,246.757,970.082,-0.534034,-0.463148,-1.77429,
2026_07_06_16_51_12.259,3.853,30,0,0.759,0,0,0,0.001, ,0,0,0,0,0, ,-38.8,244.9,969.1,-0.6,-0.5,-1.8,25,-38.0664,246.677,970.016,-0.535007,-0.465394,-1.77586,
2026_07_06_16_51_12.279,3.853,29.9,0,0.759,0,0,0,0, ,0,0,0,0,0, ,-38.5,244.3,969.7,-0.5,-0.5,-1.8,25,-38.102,246.551,969.979,-0.53592,-0.467502,-1.77733,
2026_07_06_16_51_12.301,3.853,29.9,0,0.76,0,0,0,0.001, ,0,0,0,0,0, ,-37.8,246.5,969.4,-0.5,-0.5,-1.8,25,-38.1049,246.481,969.953,-0.533731,-0.469483,-1.77871,
2026_07_06_16_51_12.318,3.853,29.9,0,0.759,0,0,0,0.001, ,0,0,0,0,0, ,-37.7,246.8,970.9,-0.7,-0.5,-1.7,25,-38.0833,246.491,969.965,-0.53777,-0.471342,-1.77696,
2026_07_06_16_51_12.337,3.853,29.9,0,0.759,0,0,0,0.001, ,0,0,0,0,0, ,-37.7,247.4,968.6,-0.7,-0.5,-1.7,25,-38.0599,246.528,969.951,-0.547655,-0.473089,-1.77227,
2026_07_06_16_51_12.357,3.853,29.8,0,0.759,0,0,0,0.001, ,0,0,0,0,0, ,-37.7,247.6,968.9,-0.6,-0.5,-1.7,25,-38.038,246.587,969.878,-0.553892,-0.474729,-1.76787,
2026_07_06_16_51_12.377,3.853,29.9,0,0.758,0,0,0,0.002, ,0,0,0,0,0, ,-38.9,245.7,971,-0.5,-0.4,-1.7,25,-38.054,246.591,969.883,-0.553655,-0.473222,-1.76373,
2026_07_06_16_51_12.397,3.853,29.9,0,0.758,0,0,0,0.001, ,0,0,0,0,0, ,-38,246,970.3,-0.5,-0.4,-1.8,25,-38.0781,246.546,969.929,-0.550385,-0.46876,-1.76289,
2026_07_06_16_51_12.418,3.853,29.9,0,0.76,0,0,0,0.001, ,0,0,0,0,0, ,-38.3,245.1,970.2,-0.5,-0.5,-1.8,25,-38.0825,246.485,969.949,-0.547315,-0.467617,-1.76516,
2026_07_06_16_51_12.436,3.853,29.9,0,0.759,0,0,0,0.001, ,0,0,0,0,0, ,-37.4,246.4,970,-0.7,-0.5,-1.8,25,-38.0683,246.44,969.958,-0.550525,-0.46959,-1.76728,
2026_07_06_16_51_12.456,3.853,29.9,0,0.759,0,0,0,0.001, ,0,0,0,0,0, ,-39.5,246.5,969.8,-0.4,-0.5,-1.8,25,-38.0916,246.441,969.955,-0.550493,-0.471443,-1.76927,
2026_07_06_16_51_12.476,3.853,29.9,0,0.759,0,0,0,0.001, ,0,0,0,0,0, ,-37.2,245.9,970.3,-0.4,-0.5,-1.7,25,-38.1073,246.426,969.96,-0.541323,-0.473183,-1.7681,
2026_07_06_16_51_12.499,3.853,29.8,0,0.759,0,0,0,0.001, ,0,0,0,0,0, ,-37.4,246.5,968.8,-0.6,-0.5,-1.8,25,-38.0581,246.413,969.935,-0.538805,-0.474817,-1.767,
2026_07_06_16_51_12.516,3.853,29.9,0,0.758,0,0,0,0.002, ,0,0,0,0,0, ,-37.8,247.1,970.9,-0.5,-0.5,-1.8,25,-38.0302,246.436,969.93,-0.539487,-0.476352,-1.76901,
2026_07_06_16_51_12.536,3.853,29.9,0,0.759,0,0,0,0.001, ,0,0,0,0,0, ,-37.8,244.9,970.3,-0.6,-0.4,-1.7,25,-38.0162,246.41,969.971,-0.540128,-0.474746,-1.76785,
2026_07_06_16_51_12.556,3.853,29.9,0,0.76,0,0,0,0.001, ,0,0,0,0,0, ,-38.5,247.4,970.2,-0.7,-0.6,-1.8,25,-38.0243,246.394,969.988,-0.546823,-0.476285,-1.76676,
2026_07_06_16_51_12.576,3.853,29.9,0,0.759,0,0,0,0.001, ,0,0,0,0,0, ,-37.3,247.5,970.8,-0.7,-0.5,-1.8,25,-38.0168,246.458,970.019,-0.556157,-0.480777,-1.76879,
2026_07_06_16_51_12.594,3.853,29.9,0,0.76,0,0,0,0.001, ,0,0,0,0,0, ,-37.9,245.8,969.7,-0.5,-0.4,-1.8,25,-37.9914,246.47,970.033,-0.558829,-0.478902,-1.77069,
2026_07_06_16_51_12.617,3.853,29.9,0,0.759,0,0,0,0.001, ,0,0,0,0,0, ,-39,247.1,971.4,-0.4,-0.5,-1.8,25,-38.0193,246.469,970.065,-0.552197,-0.47714,-1.77247,
2026_07_06_16_51_12.635,3.853,29.9,0,0.759,0,0,0,0.001, ,0,0,0,0,0, ,-38.8,246.2,970.4,-0.7,-0.5,-1.8,25,-38.073,246.48,970.116,-0.552063,-0.478533,-1.77415,
2026_07_06_16_51_12.656,3.853,29.9,0,0.759,0,0,0,0.001, ,0,0,0,0,0, ,-38,247.1,968.2,-0.5,-0.4,-1.7,25,-38.0929,246.49,970.066,-0.554984,-0.476795,-1.77268,
2026_07_06_16_51_12.675,3.853,29.9,0,0.759,0,0,0,0.001, ,0,0,0,0,0, ,-38.3,246,970.7,-0.5,-0.5,-1.7,25,-38.0964,246.494,970.028,-0.551634,-0.475162,-1.76825,
2026_07_06_16_51_12.694,3.853,29.9,0,0.76,0,0,0,0.001, ,0,0,0,0,0, ,-37.9,247.3,970.3,-0.5,-0.5,-1.8,25,-38.0966,246.503,970.057,-0.548487,-0.476675,-1.76714,
2026_07_06_16_51_12.713,3.853,29.8,0,0.76,0,0,0,0.001, ,0,0,0,0,0, ,-38.5,246.8,970.9,-0.6,-0.5,-1.8,25,-38.1029,246.537,970.09,-0.548579,-0.478097,-1.76914,
2026_07_06_16_51_12.735,3.853,29.9,0,0.759,0,0,0,0.002, ,0,0,0,0,0, ,-38.4,246.7,970.4,-0.4,-0.5,-1.8,25,-38.1241,246.55,970.124,-0.545619,-0.479431,-1.77102,
2026_07_06_16_51_12.754,3.853,29.9,0,0.759,0,0,0,0.001, ,0,0,0,0,0, ,-37.9,247,969.7,-0.5,-0.5,-1.7,25,-38.1256,246.568,970.12,-0.539792,-0.480685,-1.76974,
2026_07_06_16_51_12.775,3.853,29.9,0,0.759,0,0,0,0.001, ,0,0,0,0,0, ,-37.7,246.5,968.3,-0.6,-0.4,-1.7,25,-38.1058,246.579,970.052,-0.540414,-0.478815,-1.76549,
2026_07_06_16_51_12.793,3.853,29.9,0,0.759,0,0,0,0.001, ,0,0,0,0,0, ,-36.4,244.6,972.6,-0.7,-0.5,-1.8,25,-38.0415,246.516,970.076,-0.547092,-0.477059,-1.76455,
2026_07_06_16_51_12.819,3.853,29.9,0,0.76,0,0,0,0.001, ,0,0,0,0,0, ,-39.4,246.9,969.7,-0.4,-0.5,-1.8,25,-38.0328,246.47,970.141,-0.547269,-0.478457,-1.76671,
2026_07_06_16_51_12.833,3.853,29.9,0,0.759,0,0,0,0.001, ,0,0,0,0,0, ,-37.5,247.4,970.2,-0.3,-0.4,-1.8,25,-38.0583,246.511,970.13,-0.535248,-0.476723,-1.76874,
2026_07_06_16_51_12.853,3.853,29.9,0,0.759,0,0,0,0.001, ,0,0,0,0,0, ,-37.9,247.1,969.6,-0.6,-0.5,-1.7,25,-38.0364,246.556,970.116,-0.530054,-0.475095,-1.76759,
2026_07_06_16_51_12.873,3.853,29.9,0,0.759,0,0,0,0.001, ,0,0,0,0,0, ,-37.4,245.4,969.8,-0.7,-0.4,-1.8,25,-38.0129,246.537,970.09,-0.537363,-0.473565,-1.76652,
2026_07_06_16_51_12.893,3.853,29.9,0,0.759,0,0,0,0.001, ,0,0,0,0,0, ,-37.5,249.7,970.2,-0.6,-0.5,-1.8,25,-37.9786,246.599,970.085,-0.544227,-0.472129,-1.76856,
2026_07_06_16_51_12.911,3.853,29.9,0,0.759,0,0,0,0.001, ,0,0,0,0,0, ,-37.9,246.4,969.8,-0.5,-0.5,-1.8,25,-37.9616,246.688,970.08,-0.544578,-0.473828,-1.77048,
2026_07_06_16_51_12.933,3.853,29.8,0,0.76,0,0,0,0.001, ,0,0,0,0,0, ,-39.3,245.8,971,-0.6,-0.4,-1.7,25,-38.0005,246.652,970.099,-0.544909,-0.472376,-1.76923,
2026_07_06_16_51_12.951,3.853,30,0,0.758,0,0,0,0.002, ,0,0,0,0,0, ,-38.8,247.1,969.4,-0.6,-0.5,-1.8,25,-38.0645,246.639,970.105,-0.548266,-0.471012,-1.76806,
2026_07_06_16_51_12.972,3.853,29.9,0,0.759,0,0,0,0, ,0,0,0,0,0, ,-37.9,247.4,969.6,-0.6,-0.5,-1.7,25,-38.0819,246.677,970.068,-0.551418,-0.472779,-1.76696,
2026_07_06_16_51_12.990,3.853,29.9,0,0.758,0,0,0,0.001, ,0,0,0,0,0, ,-38.6,245.6,971,-0.3,-0.5,-1.7,25,-38.0921,246.666,970.083,-0.545238,-0.474437,-1.76288,
2026_07_06_16_51_13.012,3.853,29.9,0,0.76,0,0,0,0.001, ,0,0,0,0,0, ,-37.7,246,970.2,-0.5,-0.5,-1.8,25,-38.0956,246.613,970.114,-0.536388,-0.475995,-1.76209,
2026_07_06_16_51_13.031,3.853,29.9,0,0.76,0,0,0,0.001, ,0,0,0,0,0, ,-37.9,247.8,971.6,-0.5,-0.5,-1.7,25,-38.0776,246.631,970.162,-0.53417,-0.477458,-1.76136,
2026_07_06_16_51_13.051,3.853,29.9,0,0.759,0,0,0,0.001, ,0,0,0,0,0, ,-37.5,246.3,969.8,-0.5,-0.5,-1.8,25,-38.0546,246.656,970.195,-0.532088,-0.478832,-1.76066,
2026_07_06_16_51_13.070,3.853,29.9,0,0.759,0,0,0,0.001, ,0,0,0,0,0, ,-37.9,247,968,-0.5,-0.4,-1.7,25,-38.033,246.656,970.116,-0.530133,-0.477075,-1.76001,
2026_07_06_16_51_13.091,3.853,29.9,0,0.758,0,0,0,0.001, ,0,0,0,0,0, ,-38.9,246.4,969.7,-0.5,-0.5,-1.7,25,-38.0554,246.658,970.039,-0.528297,-0.475425,-1.75636,
2026_07_06_16_51_13.110,3.853,29.9,0,0.759,0,0,0,0.001, ,0,0,0,0,0, ,-38.4,244.9,970.8,-0.5,-0.5,-1.8,25,-38.0916,246.597,970.052,-0.526572,-0.476922,-1.75597,
2026_07_06_16_51_13.132,3.853,29.9,0,0.759,0,0,0,0.001, ,0,0,0,0,0, ,-38.2,245.8,970.7,-0.6,-0.4,-1.7,25,-38.1043,246.521,970.094,-0.528,-0.475282,-1.75561,
2026_07_06_16_51_13.150,3.853,29.9,0,0.759,0,0,0,0.001, ,0,0,0,0,0, ,-37.9,246.2,970.2,-0.4,-0.5,-1.7,25,-38.101,246.489,970.116,-0.526294,-0.473741,-1.75222,
2026_07_06_16_51_13.171,3.853,29.9,0,0.758,0,0,0,0.001, ,0,0,0,0,0, ,-38,245.4,971.5,-0.5,-0.5,-1.8,25,-38.0918,246.447,970.161,-0.521644,-0.475341,-1.75208,
2026_07_06_16_51_13.190,3.853,29.9,0,0.757,0,0,0,0.001, ,0,0,0,0,0, ,-38.3,247.3,971.4,-0.5,-0.5,-1.7,25,-38.0953,246.441,970.239,-0.520326,-0.476844,-1.75196,
2026_07_06_16_51_13.211,3.853,29.9,0,0.759,0,0,0,0.001, ,0,0,0,0,0, ,-38,246,970.5,-0.5,-0.5,-1.7,25,-38.0987,246.454,970.282,-0.519087,-0.478255,-1.74879,
2026_07_06_16_51_13.229,3.853,29.9,0,0.758,0,0,0,0.001, ,0,0,0,0,0, ,-38.3,247.1,970.4,-0.4,-0.4,-1.7,25,-38.1018,246.46,970.293,-0.514877,-0.476533,-1.74582,
2026_07_06_16_51_13.251,3.853,29.9,0,0.759,0,0,0,0.001, ,0,0,0,0,0, ,-39.4,245.7,969.8,-0.5,-0.4,-1.8,25,-38.1474,246.456,970.281,-0.510924,-0.471869,-1.74607,
2026_07_06_16_51_13.268,3.853,29.9,0,0.76,0,0,0,0.001, ,0,0,0,0,0, ,-37.3,248,969.8,-0.4,-0.5,-1.7,25,-38.1597,246.48,970.252,-0.507211,-0.470537,-1.74631,
2026_07_06_16_51_13.291,3.853,29.8,0,0.76,0,0,0,0.001, ,0,0,0,0,0, ,-37.5,247.5,970.7,-0.6,-0.5,-1.8,25,-38.1134,246.558,970.252,-0.506772,-0.472332,-1.74654,
2026_07_06_16_51_13.308,3.853,29.9,0,0.76,0,0,0,0.002, ,0,0,0,0,0, ,-38.8,246.9,969.9,-0.6,-0.4,-1.8,25,-38.1157,246.597,970.254,-0.512453,-0.470971,-1.74979,
2026_07_06_16_51_13.331,3.853,29.9,0,0.759,0,0,0,0.001, ,0,0,0,0,0, ,-38.3,246.5,969.7,-0.5,-0.5,-1.8,25,-38.1421,246.603,970.227,-0.514741,-0.469693,-1.75285,
2026_07_06_16_51_13.347,3.853,29.9,0,0.759,0,0,0,0.001, ,0,0,0,0,0, ,-38.3,246.3,970.4,-0.6,-0.5,-1.8,25,-38.1518,246.591,970.216,-0.516889,-0.47154,-1.75573,
2026_07_06_16_51_13.370,3.853,29.9,0,0.758,0,0,0,0.001, ,0,0,0,0,0, ,-38.9,245.1,970.3,-0.5,-0.4,-1.8,25,-38.1791,246.536,970.224,-0.518907,-0.470228,-1.75842,
2026_07_06_16_51_13.387,3.853,29.9,0,0.759,0,0,0,0.001, ,0,0,0,0,0, ,-37.8,244.9,971.3,-0.5,-0.5,-1.7,25,-38.1895,246.443,970.259,-0.517755,-0.468995,-1.75791,
2026_07_06_16_51_13.409,3.853,29.8,0,0.759,0,0,0,0.001, ,0,0,0,0,0, ,-38.5,246.5,969.2,-0.6,-0.5,-1.7,25,-38.1871,246.398,970.259,-0.51972,-0.470884,-1.75438,
2026_07_06_16_51_13.426,3.853,29.9,0,0.759,0,0,0,0.002, ,0,0,0,0,0, ,-38.6,246.4,970.7,-0.6,-0.4,-1.7,25,-38.2092,246.401,970.24,-0.524612,-0.469612,-1.75107,
2026_07_06_16_51_13.449,3.853,29.9,0,0.759,0,0,0,0.002, ,0,0,0,0,0, ,-39,247.3,969.4,-0.6,-0.4,-1.7,25,-38.2452,246.428,970.228,-0.529206,-0.46537,-1.74796,
2026_07_06_16_51_13.467,3.853,29.9,0,0.76,0,0,0,0.001, ,0,0,0,0,0, ,-37.3,246.3,970.4,-0.5,-0.5,-1.7,25,-38.2394,246.451,970.208,-0.530473,-0.464433,-1.74503,
2026_07_06_16_51_13.489,3.853,29.9,0,0.759,0,0,0,0.002, ,0,0,0,0,0, ,-37.5,247.8,970.7,-0.6,-0.4,-1.7,25,-38.1882,246.487,970.229,-0.531663,-0.463554,-1.74229,
2026_07_06_16_51_13.505,3.853,29.9,0,0.759,0,0,0,0.002, ,0,0,0,0,0, ,-38.9,246.7,970.3,-0.7,-0.5,-1.8,25,-38.189,246.534,970.246,-0.538874,-0.462728,-1.74276,
2026_07_06_16_51_13.527,3.853,29.8,0,0.759,0,0,0,0.002, ,0,0,0,0,0, ,-38,247.6,970.8,-0.5,-0.5,-1.8,25,-38.2049,246.571,970.264,-0.542599,-0.464999,-1.74625,
2026_07_06_16_51_13.545,3.853,29.8,0,0.759,0,0,0,0.002, ,0,0,0,0,0, ,-37.1,246.9,971.5,-0.4,-0.5,-1.8,25,-38.165,246.613,970.318,-0.536956,-0.467132,-1.74952,
2026_07_06_16_51_13.567,3.853,29.9,0,0.759,0,0,0,0.002, ,0,0,0,0,0, ,-39.5,246.2,970.2,-0.4,-0.5,-1.7,25,-38.1732,246.609,970.351,-0.52861,-0.469135,-1.74955,
2026_07_06_16_51_13.585,3.853,29.9,0,0.76,0,0,0,0.002, ,0,0,0,0,0, ,-37.7,246.7,969.9,-0.5,-0.4,-1.8,25,-38.1992,246.599,970.332,-0.52382,-0.467969,-1.74958,
2026_07_06_16_51_13.607,3.853,29.8,0,0.759,0,0,0,0.002, ,0,0,0,0,0, ,-39.3,246.5,970.2,-0.5,-0.4,-1.7,25,-38.2175,246.599,970.315,-0.522369,-0.463827,-1.7496,
2026_07_06_16_51_13.625,3.853,29.8,0,0.759,0,0,0,0.002, ,0,0,0,0,0, ,-37.5,246.3,970.2,-0.5,-0.5,-1.7,25,-38.2286,246.587,970.308,-0.521005,-0.462984,-1.74658,
2026_07_06_16_51_13.649,3.853,29.9,0,0.759,0,0,0,0.002, ,0,0,0,0,0, ,-38.2,245.9,969.2,-0.7,-0.5,-1.8,25,-38.2056,246.557,970.271,-0.525819,-0.46524,-1.74679,
2026_07_06_16_51_13.664,3.853,29.9,0,0.759,0,0,0,0.002, ,0,0,0,0,0, ,-38.6,247.5,970.2,-0.5,-0.5,-1.8,25,-38.2174,246.566,970.236,-0.53034,-0.467358,-1.75003,
2026_07_06_16_51_13.686,3.853,29.8,0,0.758,0,0,0,0.002, ,0,0,0,0,0, ,-37.8,246.3,969.1,-0.5,-0.5,-1.7,25,-38.2164,246.586,970.2,-0.528491,-0.469347,-1.75003,
2026_07_06_16_51_13.704,3.853,29.9,0,0.76,0,0,0,0.002, ,0,0,0,0,0, ,-37.9,246.4,971.3,-0.5,-0.4,-1.8,25,-38.194,246.572,970.2,-0.526755,-0.468168,-1.75003,
2026_07_06_16_51_13.726,3.853,29.9,0,0.759,0,0,0,0.002, ,0,0,0,0,0, ,-36.3,245.1,971,-0.6,-0.5,-1.7,25,-38.1274,246.522,970.258,-0.528171,-0.467061,-1.75003,
2026_07_06_16_51_13.744,3.853,29.9,0,0.76,0,0,0,0.002, ,0,0,0,0,0, ,-37.1,247.5,969.7,-0.6,-0.5,-1.8,25,-38.0404,246.508,970.264,-0.532548,-0.469068,-1.75003,
2026_07_06_16_51_13.767,3.853,29.9,0,0.759,0,0,0,0.002, ,0,0,0,0,0, ,-38.2,246.4,969.8,-0.5,-0.5,-1.8,25,-38.0166,246.535,970.233,-0.533612,-0.470953,-1.75307,
2026_07_06_16_51_13.783,3.853,29.8,0,0.759,0,0,0,0.002, ,0,0,0,0,0, ,-37.9,246.8,970.5,-0.6,-0.4,-1.8,25,-38.0186,246.539,970.228,-0.53461,-0.469676,-1.75593,
2026_07_06_16_51_13.805,3.853,29.9,0,0.76,0,0,0,0.003, ,0,0,0,0,0, ,-37.8,247.8,969.7,-0.6,-0.4,-1.7,25,-38.0084,246.586,970.22,-0.538595,-0.465431,-1.75557,
2026_07_06_16_51_13.822,3.853,29.9,0,0.759,0,0,0,0.002, ,0,0,0,0,0, ,-38.3,247.8,969.4,-0.5,-0.5,-1.7,25,-38.0109,246.66,970.179,-0.53929,-0.46449,-1.75218,
2026_07_06_16_51_13.844,3.853,29.9,0,0.759,0,0,0,0.002, ,0,0,0,0,0, ,-37.9,247.3,970.2,-0.5,-0.4,-1.8,25,-38.0163,246.714,970.156,-0.536896,-0.463607,-1.75205,
2026_07_06_16_51_13.862,3.853,29.8,0,0.76,0,0,0,0.002, ,0,0,0,0,0, ,-36.8,247.4,969.4,-0.6,-0.4,-1.7,25,-37.9757,246.753,970.134,-0.537694,-0.459731,-1.75192,
2026_07_06_16_51_13.886,3.853,29.9,0,0.76,0,0,0,0.003, ,0,0,0,0,0, ,-37.8,246.8,970.7,-0.5,-0.5,-1.7,25,-37.9345,246.774,970.129,-0.538444,-0.459138,-1.74876,
2026_07_06_16_51_13.901,3.853,29.9,0,0.76,0,0,0,0.002, ,0,0,0,0,0, ,-38.9,246.8,969.9,-0.6,-0.4,-1.7,25,-37.9599,246.775,970.139,-0.539148,-0.458581,-1.74579,
2026_07_06_16_51_13.925,3.853,29.9,0,0.759,0,0,0,0.002, ,0,0,0,0,0, ,-38.5,247.1,971.4,-0.6,-0.4,-1.8,25,-38.005,246.786,970.171,-0.542857,-0.455012,-1.74605,
2026_07_06_16_51_13.941,3.853,29.9,0,0.76,0,0,0,0.002, ,0,0,0,0,0, ,-37.9,246.9,969.1,-0.5,-0.5,-1.7,25,-38.0168,246.799,970.175,-0.543292,-0.454706,-1.74629,
2026_07_06_16_51_13.965,3.853,29.9,0,0.759,0,0,0,0.002, ,0,0,0,0,0, ,-38.4,247.9,968.9,-0.6,-0.5,-1.8,25,-38.025,246.836,970.104,-0.543701,-0.457466,-1.74651,
2026_07_06_16_51_13.982,3.853,29.9,0,0.759,0,0,0,0.002, ,0,0,0,0,0, ,-38.5,248,970,-0.6,-0.4,-1.8,25,-38.0509,246.904,970.064,-0.547131,-0.457011,-1.74977,
2026_07_06_16_51_14.007,3.853,29.9,0,0.759,0,0,0,0.002, ,0,0,0,0,0, ,-37.5,246.4,970,-0.5,-0.4,-1.8,25,-38.0478,246.922,970.06,-0.547306,-0.453537,-1.75283,
2026_07_06_16_51_14.020,3.853,29.9,0,0.758,0,0,0,0.002, ,0,0,0,0,0, ,-38.4,248.1,970.7,-0.5,-0.5,-1.8,25,-38.0418,246.942,970.078,-0.544423,-0.453322,-1.75571,
2026_07_06_16_51_14.042,3.853,29.9,0,0.759,0,0,0,0.002, ,0,0,0,0,0, ,-38,246.5,969.4,-0.5,-0.5,-1.6,25,-38.0514,246.964,970.076,-0.541716,-0.456166,-1.75231,
2026_07_06_16_51_14.059,3.853,29.8,0,0.758,0,0,0,0.002, ,0,0,0,0,0, ,-37.9,246.4,969.8,-0.6,-0.5,-1.7,25,-38.0453,246.932,970.047,-0.542221,-0.458837,-1.74608,
2026_07_06_16_51_14.091,3.853,29.9,0,0.759,0,0,0,0.003, ,0,0,0,0,0, ,-37.2,246.9,972.1,-0.5,-0.5,-1.8,25,-38.0151,246.915,970.102,-0.542695,-0.461346,-1.74632,
2026_07_06_16_51_14.099,3.853,29.9,0,0.759,0,0,0,0.002, ,0,0,0,0,0, ,-37.8,248.2,970.2,-0.5,-0.4,-1.8,25,-37.9837,246.954,970.166,-0.540093,-0.460654,-1.74959,
2026_07_06_16_51_14.123,3.853,29.9,0,0.76,0,0,0,0.002, ,0,0,0,0,0, ,-37.2,245.9,970.8,-0.5,-0.5,-1.7,25,-37.9542,246.96,970.186,-0.53765,-0.460005,-1.74961,
2026_07_06_16_51_14.139,3.853,29.8,0,0.76,0,0,0,0.002, ,0,0,0,0,0, ,-37.8,246,969.7,-0.5,-0.4,-1.7,25,-37.9265,246.898,970.19,-0.535356,-0.459395,-1.74659,
2026_07_06_16_51_14.162,3.853,30,0,0.759,0,0,0,0.003, ,0,0,0,0,0, ,-38.3,245.8,972,-0.6,-0.5,-1.8,25,-37.9341,246.837,970.23,-0.536248,-0.458823,-1.7468,
2026_07_06_16_51_14.178,3.853,29.8,0,0.759,0,0,0,0.001, ,0,0,0,0,0, ,-38.9,246.7,970.9,-0.6,-0.5,-1.6,25,-37.9746,246.801,970.305,-0.540133,-0.461332,-1.74395,
2026_07_06_16_51_14.201,3.853,29.9,0,0.759,0,0,0,0.003, ,0,0,0,0,0, ,-37.8,245.2,970.8,-0.4,-0.5,-1.7,25,-37.9975,246.75,970.338,-0.537688,-0.463688,-1.73822,
2026_07_06_16_51_14.218,3.853,30,0,0.76,0,0,0,0.002, ,0,0,0,0,0, ,-38.6,245.1,970.7,-0.5,-0.5,-1.7,25,-38.0099,246.652,970.363,-0.532344,-0.465901,-1.73589,
2026_07_06_16_51_14.241,3.853,29.8,0,0.759,0,0,0,0.001, ,0,0,0,0,0, ,-37.8,246.8,970.8,-0.8,-0.4,-1.8,25,-38.0214,246.609,970.387,-0.539514,-0.464932,-1.73675,
2026_07_06_16_51_14.258,3.853,29.9,0,0.759,0,0,0,0.003, ,0,0,0,0,0, ,-37.9,247.3,970.3,-0.7,-0.5,-1.7,25,-38.011,246.636,970.397,-0.55234,-0.464022,-1.73756,
2026_07_06_16_51_14.281,3.853,29.9,0,0.758,0,0,0,0.002, ,0,0,0,0,0, ,-36.8,247.8,970.9,-0.5,-0.5,-1.8,25,-37.9707,246.692,970.409,-0.555245,-0.466215,-1.73832,
2026_07_06_16_51_14.297,3.853,29.8,0,0.758,0,0,0,0.002, ,0,0,0,0,0, ,-39,246.5,970.5,-0.5,-0.4,-1.7,25,-37.9664,246.72,970.427,-0.551878,-0.465226,-1.73903,
2026_07_06_16_51_14.322,3.853,29.9,0,0.759,0,0,0,0.003, ,0,0,0,0,0, ,-37.5,246.8,969.6,-0.6,-0.5,-1.8,25,-37.9837,246.716,970.404,-0.551764,-0.464299,-1.7397,
2026_07_06_16_51_14.337,3.853,29.8,0,0.76,0,0,0,0.002, ,0,0,0,0,0, ,-39,247.6,971.3,-0.7,-0.5,-1.8,25,-37.9999,246.745,970.407,-0.55775,-0.466474,-1.74337,
2026_07_06_16_51_14.362,3.853,29.9,0,0.759,0,0,0,0.003, ,0,0,0,0,0, ,-37.1,247.9,968.8,-0.4,-0.5,-1.6,25,-38.003,246.806,970.385,-0.557278,-0.468517,-1.74073,
2026_07_06_16_51_14.375,3.853,29.8,0,0.759,0,0,0,0.002, ,0,0,0,0,0, ,-37.7,246.4,969.6,-0.4,-0.5,-1.8,25,-37.9662,246.827,970.313,-0.547694,-0.470436,-1.73825,
2026_07_06_16_51_14.402,3.853,29.7,0,0.761,0,0,0,0.003, ,0,0,0,0,0, ,-38.8,247.3,971.4,-0.5,-0.5,-1.8,25,-37.9835,246.829,970.324,-0.54174,-0.472237,-1.74201,
2026_07_06_16_51_14.415,3.853,29.9,0,0.759,0,0,0,0.004, ,0,0,0,0,0, ,-39.3,246.7,969.7,-0.6,-0.5,-1.8,25,-38.0485,246.839,970.338,-0.542244,-0.473929,-1.74554,
2026_07_06_16_51_14.442,3.853,29.8,0,0.76,0,0,0,0.002, ,0,0,0,0,0, ,-38,247.5,969.3,-0.4,-0.5,-1.7,25,-38.0852,246.855,970.287,-0.539669,-0.475518,-1.74582,
2026_07_06_16_51_14.457,3.853,30,0,0.758,0,0,0,0.003, ,0,0,0,0,0, ,-38.5,247,969.3,-0.5,-0.5,-1.7,25,-38.0952,246.879,970.227,-0.534205,-0.47701,-1.74302,
2026_07_06_16_51_14.483,3.853,29.9,0,0.76,0,0,0,0.001, ,0,0,0,0,0, ,-38.5,245.2,970,-0.5,-0.5,-1.7,25,-38.1199,246.832,970.191,-0.532121,-0.478411,-1.7404,
2026_07_06_16_51_14.498,3.853,29.9,0,0.759,0,0,0,0.002, ,0,0,0,0,0, ,-38.6,246.5,969.8,-0.6,-0.5,-1.8,25,-38.1461,246.772,970.174,-0.53321,-0.479726,-1.74099,
2026_07_06_16_51_14.543,3.853,29.8,0,0.759,0,0,0,0.002, ,0,0,0,0,0, ,-37.8,248.1,970.5,-0.5,-0.5,-1.7,25,-38.1494,246.804,970.172,-0.534233,-0.480962,-1.74154,
2026_07_06_16_51_14.544,3.853,29.9,0,0.759,0,0,0,0.003, ,0,0,0,0,0, ,-38,245.6,969.8,-0.5,-0.4,-1.7,25,-38.1342,246.807,970.171,-0.532147,-0.479075,-1.73901,
2026_07_06_16_51_14.570,3.853,29.9,0,0.759,0,0,0,0.002, ,0,0,0,0,0, ,-37.7,248.9,968.6,-0.5,-0.5,-1.7,25,-38.1169,246.834,970.112,-0.530188,-0.477303,-1.73663,
2026_07_06_16_51_14.577,3.853,29.9,0,0.76,0,0,0,0.002, ,0,0,0,0,0, ,-38.2,246.4,970,-0.4,-0.5,-1.7,25,-38.1067,246.883,970.062,-0.525302,-0.478686,-1.7344,
2026_07_06_16_51_14.602,3.853,30,0,0.759,0,0,0,0.002, ,0,0,0,0,0, ,-38.4,245.6,970,-0.5,-0.4,-1.7,25,-38.1185,246.83,970.058,-0.520713,-0.476938,-1.7323,
2026_07_06_16_51_14.613,3.853,29.8,0,0.76,0,0,0,0.001, ,0,0,0,0,0, ,-38.8,246.2,970.4,-0.6,-0.4,-1.8,25,-38.1478,246.773,970.067,-0.522498,-0.47225,-1.73338,
2026_07_06_16_51_14.639,3.853,29.9,0,0.759,0,0,0,0.003, ,0,0,0,0,0, ,-37.3,247,970,-0.6,-0.5,-1.7,25,-38.1419,246.762,970.075,-0.527221,-0.470894,-1.73439,
2026_07_06_16_51_14.653,3.853,29.8,0,0.759,0,0,0,0.002, ,0,0,0,0,0, ,-37.5,246.8,969.7,-0.6,-0.5,-1.7,25,-38.0966,246.771,970.061,-0.531656,-0.472668,-1.7323,
2026_07_06_16_51_14.677,3.853,29.8,0,0.759,0,0,0,0.003, ,0,0,0,0,0, ,-37.2,247.3,969.7,-0.6,-0.4,-1.7,25,-38.0511,246.788,970.039,-0.53582,-0.471286,-1.73033,
2026_07_06_16_51_14.693,3.853,29.8,0,0.76,0,0,0,0.003, ,0,0,0,0,0, ,-37.2,245.7,969.8,-0.5,-0.5,-1.8,25,-37.9993,246.77,970.022,-0.536684,-0.469989,-1.73153,
2026_07_06_16_51_14.720,3.853,29.8,0,0.758,0,0,0,0.003, ,0,0,0,0,0, ,-39,245.9,969.3,-0.7,-0.5,-1.7,25,-38.0054,246.711,969.993,-0.540543,-0.471818,-1.73265,
2026_07_06_16_51_14.733,3.853,29.9,0,0.759,0,0,0,0.003, ,0,0,0,0,0, ,-38.2,245.3,968.6,-0.5,-0.5,-1.7,25,-38.0416,246.643,969.93,-0.544166,-0.473535,-1.73066,
2026_07_06_16_51_14.758,3.853,29.9,0,0.76,0,0,0,0.002, ,0,0,0,0,0, ,-38.4,247,971.3,-0.4,-0.4,-1.8,25,-38.0574,246.613,969.931,-0.538428,-0.472101,-1.73184,
2026_07_06_16_51_14.773,3.853,29.8,0,0.76,0,0,0,0.002, ,0,0,0,0,0, ,-38.9,246.5,971.4,-0.5,-0.5,-1.7,25,-38.0935,246.622,970.017,-0.533039,-0.470754,-1.73295,
2026_07_06_16_51_14.797,3.853,29.8,0,0.76,0,0,0,0.003, ,0,0,0,0,0, ,-38.4,247.1,972.2,-0.5,-0.5,-1.7,25,-38.1274,246.633,970.126,-0.531026,-0.472536,-1.73094,
2026_07_06_16_51_14.812,3.853,29.9,0,0.76,0,0,0,0.003, ,0,0,0,0,0, ,-38,245.6,970.5,-0.4,-0.4,-1.7,25,-38.1318,246.615,970.2,-0.526088,-0.471163,-1.72905,
2026_07_06_16_51_14.837,3.853,29.9,0,0.756,0,0,0,0.002, ,0,0,0,0,0, ,-38.9,247.5,971.1,-0.6,-0.4,-1.7,25,-38.1512,246.611,970.237,-0.524499,-0.466827,-1.72728,
2026_07_06_16_51_14.851,3.853,29.9,0,0.758,0,0,0,0.002, ,0,0,0,0,0, ,-37.3,246.7,969.7,-0.5,-0.5,-1.8,25,-38.1481,246.641,970.247,-0.526053,-0.465801,-1.72867,
2026_07_06_16_51_14.876,3.853,29.8,0,0.758,0,0,0,0.002, ,0,0,0,0,0, ,-38.6,247,970.2,-0.5,-0.4,-1.8,25,-38.136,246.654,970.229,-0.524465,-0.464838,-1.73301,
2026_07_06_16_51_14.891,3.853,29.9,0,0.759,0,0,0,0.003, ,0,0,0,0,0, ,-38.5,247.1,970.3,-0.5,-0.4,-1.8,25,-38.1613,246.678,970.23,-0.522974,-0.460887,-1.7371,
2026_07_06_16_51_14.914,3.853,29.8,0,0.759,0,0,0,0.002, ,0,0,0,0,0, ,-38.9,246.9,969.9,-0.5,-0.4,-1.7,25,-38.1941,246.698,970.222,-0.521574,-0.457177,-1.73788,
2026_07_06_16_51_14.931,3.853,29.9,0,0.76,0,0,0,0.003, ,0,0,0,0,0, ,-38.3,246.2,970.5,-0.5,-0.4,-1.8,25,-38.2188,246.689,970.221,-0.520259,-0.453693,-1.73862,
2026_07_06_16_51_14.957,3.853,29.8,0,0.759,0,0,0,0.002, ,0,0,0,0,0, ,-37.7,245.6,970,-0.6,-0.4,-1.7,25,-38.2055,246.641,970.223,-0.522072,-0.450421,-1.73931,
2026_07_06_16_51_14.970,3.853,29.9,0,0.76,0,0,0,0.003, ,0,0,0,0,0, ,-37.7,245.8,970.2,-0.5,-0.4,-1.7,25,-38.1747,246.583,970.215,-0.523774,-0.447348,-1.73692,
2026_07_06_16_51_14.996,3.853,29.9,0,0.759,0,0,0,0.003, ,0,0,0,0,0, ,-37.9,247.6,970.7,-0.6,-0.4,-1.7,25,-38.1519,246.59,970.229,-0.525372,-0.444463,-1.73467,
2026_07_06_16_51_15.010,3.853,29.9,0,0.758,0,0,0,0.003, ,0,0,0,0,0, ,-37.7,247.1,971.1,-0.6,-0.5,-1.8,25,-38.1304,246.637,970.27,-0.529919,-0.4448,-1.7356,
2026_07_06_16_51_15.034,3.853,29.8,0,0.759,0,0,0,0.003, ,0,0,0,0,0, ,-37.9,246.7,970.2,-0.5,-0.5,-1.8,25,-38.1103,246.653,970.293,-0.531143,-0.448164,-1.73953,
2026_07_06_16_51_15.050,3.853,29.9,0,0.759,0,0,0,0.003, ,0,0,0,0,0, ,-38.2,247.5,969.6,-0.6,-0.5,-1.8,25,-38.1066,246.68,970.269,-0.532292,-0.451323,-1.74321,
2026_07_06_16_51_15.075,3.853,29.9,0,0.759,0,0,0,0.003, ,0,0,0,0,0, ,-38,245.8,970.7,-0.6,-0.5,-1.8,25,-38.1062,246.678,970.262,-0.536418,-0.454289,-1.74667,
2026_07_06_16_51_15.088,3.853,29.9,0,0.759,0,0,0,0.003, ,0,0,0,0,0, ,-36.9,247,970.7,-0.5,-0.5,-1.7,25,-38.0662,246.661,970.289,-0.537246,-0.457075,-1.74688,
2026_07_06_16_51_15.113,3.853,29.8,0,0.759,0,0,0,0.003, ,0,0,0,0,0, ,-38.4,247.3,970,-0.5,-0.4,-1.7,25,-38.0409,246.691,970.293,-0.534976,-0.456644,-1.74402,
2026_07_06_16_51_15.129,3.853,29.9,0,0.76,0,0,0,0.003, ,0,0,0,0,0, ,-37.3,246.5,969.8,-0.5,-0.5,-1.8,25,-38.0292,246.704,970.269,-0.532845,-0.456239,-1.74438,
2026_07_06_16_51_15.155,3.853,29.8,0,0.757,0,0,0,0.003, ,0,0,0,0,0, ,-38.5,247.5,970.4,-0.5,-0.5,-1.6,25,-38.0213,246.722,970.258,-0.530843,-0.458905,-1.74168,
2026_07_06_16_51_15.169,3.853,30,0,0.758,0,0,0,0.003, ,0,0,0,0,0, ,-38.2,246.5,969.6,-0.5,-0.5,-1.8,25,-38.0414,246.739,970.243,-0.528964,-0.46141,-1.73914,
2026_07_06_16_51_15.194,3.853,29.8,0,0.759,0,0,0,0.002, ,0,0,0,0,0, ,-37.9,244.9,969.4,-0.5,-0.5,-1.8,25,-38.0419,246.675,970.197,-0.527199,-0.463761,-1.74285,
2026_07_06_16_51_15.209,3.853,29.8,0,0.759,0,0,0,0.003, ,0,0,0,0,0, ,-38.2,246.3,969.8,-0.5,-0.4,-1.7,25,-38.0424,246.61,970.161,-0.525541,-0.462923,-1.74328,
2026_07_06_16_51_15.234,3.853,29.9,0,0.759,0,0,0,0.003, ,0,0,0,0,0, ,-38.6,247,968.8,-0.5,-0.5,-1.8,25,-38.0642,246.612,970.109,-0.523985,-0.462135,-1.74369,
2026_07_06_16_51_15.247,3.853,29.9,0,0.759,0,0,0,0.003, ,0,0,0,0,0, ,-39.1,247.3,969.3,-0.6,-0.5,-1.7,25,-38.1121,246.645,970.044,-0.52557,-0.464443,-1.74408,
2026_07_06_16_51_15.273,3.853,29.9,0,0.76,0,0,0,0.003, ,0,0,0,0,0, ,-38.9,246.7,970.3,-0.5,-0.5,-1.7,25,-38.1662,246.667,970.029,-0.527059,-0.466609,-1.74139,
2026_07_06_16_51_15.287,3.853,29.9,0,0.759,0,0,0,0.003, ,0,0,0,0,0, ,-38.4,245.8,970.2,-0.6,-0.5,-1.8,25,-38.1957,246.641,970.043,-0.528457,-0.468644,-1.74192,
2026_07_06_16_51_15.312,3.853,30,0,0.761,0,0,0,0.003, ,0,0,0,0,0, ,-38.4,246.8,969.6,-0.6,-0.5,-1.7,25,-38.2081,246.621,970.034,-0.532817,-0.470555,-1.74241,
2026_07_06_16_51_15.326,3.853,29.8,0,0.759,0,0,0,0.002, ,0,0,0,0,0, ,-37.9,246.8,971.1,-0.4,-0.4,-1.7,25,-38.2046,246.631,970.053,-0.530817,-0.469302,-1.73982,
2026_07_06_16_51_15.352,3.853,29.9,0,0.759,0,0,0,0.004, ,0,0,0,0,0, ,-38.8,248.4,969.1,-0.5,-0.5,-1.8,25,-38.2134,246.69,970.056,-0.525892,-0.468126,-1.74044,
2026_07_06_16_51_15.366,3.853,29.9,0,0.76,0,0,0,0.003, ,0,0,0,0,0, ,-37.4,245.3,969.9,-0.5,-0.4,-1.8,25,-38.2065,246.7,970.022,-0.524314,-0.467021,-1.74407,
2026_07_06_16_51_15.391,3.853,29.9,0,0.759,0,0,0,0.003, ,0,0,0,0,0, ,-37.8,246.5,970.9,-0.6,-0.5,-1.7,25,-38.1696,246.651,970.045,-0.525879,-0.465984,-1.74443,
2026_07_06_16_51_15.406,3.853,29.9,0,0.76,0,0,0,0.003, ,0,0,0,0,0, ,-38.3,246.3,968.8,-0.6,-0.5,-1.8,25,-38.1623,246.636,970.033,-0.530396,-0.468057,-1.74477,
2026_07_06_16_51_15.442,3.853,29.9,0,0.759,0,0,0,0.003, ,0,0,0,0,0, ,-38,247.9,969.2,-0.5,-0.5,-1.7,25,-38.1615,246.664,969.97,-0.531591,-0.470004,-1.74509,
2026_07_06_16_51_15.451,3.853,29.9,0,0.76,0,0,0,0.003, ,0,0,0,0,0, ,-39.1,247.4,970.4,-0.6,-0.5,-1.7,25,-38.1852,246.724,969.96,-0.532713,-0.471832,-1.74234,
2026_07_06_16_51_15.481,3.853,29.9,0,0.76,0,0,0,0.003, ,0,0,0,0,0, ,-38,247.5,970.7,-0.6,-0.4,-1.8,25,-38.2074,246.769,969.996,-0.536813,-0.470501,-1.74281,
2026_07_06_16_51_15.488,3.853,30,0,0.76,0,0,0,0.003, ,0,0,0,0,0, ,-37.7,246.2,970.5,-0.6,-0.4,-1.8,25,-38.1857,246.774,970.033,-0.540663,-0.466205,-1.7463,
2026_07_06_16_51_15.517,3.853,29.9,0,0.759,0,0,0,0.002, ,0,0,0,0,0, ,-37.8,246.4,971.4,-0.6,-0.5,-1.8,25,-38.1591,246.745,970.089,-0.544279,-0.465217,-1.74957,
2026_07_06_16_51_15.524,3.853,29.9,0,0.758,0,0,0,0.003, ,0,0,0,0,0, ,-38,245.9,969.9,-0.5,-0.5,-1.8,25,-38.1433,246.709,970.123,-0.544628,-0.467337,-1.75264,
2026_07_06_16_51_15.551,3.853,29.9,0,0.759,0,0,0,0.003, ,0,0,0,0,0, ,-38.4,246.5,970.7,-0.5,-0.4,-1.8,25,-38.1468,246.678,970.134,-0.541908,-0.466281,-1.75553,
2026_07_06_16_51_15.564,3.853,29.9,0,0.759,0,0,0,0.003, ,0,0,0,0,0, ,-37.2,246.7,970.8,-0.6,-0.5,-1.8,25,-38.1256,246.673,970.171,-0.542401,-0.465288,-1.75824,
2026_07_06_16_51_15.591,3.853,29.9,0,0.759,0,0,0,0.003, ,0,0,0,0,0, ,-37.9,247,970,-0.6,-0.5,-1.7,25,-38.0906,246.684,970.185,-0.545911,-0.467404,-1.75774,
2026_07_06_16_51_15.604,3.853,29.8,0,0.76,0,0,0,0.003, ,0,0,0,0,0, ,-38.8,248.5,968.5,-0.5,-0.5,-1.8,25,-38.1064,246.749,970.128,-0.54616,-0.46939,-1.75726,
2026_07_06_16_51_15.631,3.853,29.9,0,0.76,0,0,0,0.004, ,0,0,0,0,0, ,-38.2,246,971.4,-0.4,-0.5,-1.8,25,-38.1304,246.779,970.117,-0.540301,-0.471255,-1.75987,
2026_07_06_16_51_15.643,3.853,29.9,0,0.76,0,0,0,0.003, ,0,0,0,0,0, ,-37.5,246.4,971.9,-0.5,-0.5,-1.8,25,-38.1133,246.744,970.211,-0.534798,-0.473007,-1.76231,
2026_07_06_16_51_15.672,3.853,29.9,0,0.76,0,0,0,0.003, ,0,0,0,0,0, ,-37.4,246.3,969.8,-0.6,-0.5,-1.8,25,-38.0729,246.72,970.25,-0.535724,-0.474652,-1.76461,
2026_07_06_16_51_15.683,3.853,29.9,0,0.759,0,0,0,0.003, ,0,0,0,0,0, ,-37.7,246.7,970.7,-0.5,-0.4,-1.8,25,-38.041,246.706,970.25,-0.536594,-0.47315,-1.76677,
2026_07_06_16_51_15.711,3.853,30,0,0.759,0,0,0,0.003, ,0,0,0,0,0, ,-38.6,247.3,970.8,-0.5,-0.5,-1.7,25,-38.0476,246.724,970.28,-0.534364,-0.471739,-1.76575,
2026_07_06_16_51_15.729,3.853,29.8,0,0.758,0,0,0,0.002, ,0,0,0,0,0, ,-38.5,247.1,970,-0.5,-0.5,-1.7,25,-38.0782,246.753,970.287,-0.53227,-0.473461,-1.76174,
2026_07_06_16_51_15.757,3.853,29.9,0,0.759,0,0,0,0.004, ,0,0,0,0,0, ,-36.9,246.5,969.2,-0.5,-0.5,-1.8,25,-38.0552,246.756,970.246,-0.530304,-0.475078,-1.76102,
2026_07_06_16_51_15.764,3.853,29.9,0,0.76,0,0,0,0.003, ,0,0,0,0,0, ,-38.2,246.3,970.4,-0.6,-0.4,-1.7,25,-38.0244,246.734,970.218,-0.531504,-0.47355,-1.76035,
2026_07_06_16_51_15.790,3.853,29.9,0,0.758,0,0,0,0.003, ,0,0,0,0,0, ,-38.8,247.4,971.6,-0.7,-0.5,-1.8,25,-38.0534,246.742,970.266,-0.538725,-0.472115,-1.75972,
2026_07_06_16_51_15.801,3.853,29.8,0,0.758,0,0,0,0.003, ,0,0,0,0,0, ,-38,247.1,969.1,-0.6,-0.5,-1.7,25,-38.0745,246.772,970.271,-0.545506,-0.473814,-1.75913,
2026_07_06_16_51_15.826,3.853,30,0,0.759,0,0,0,0.004, ,0,0,0,0,0, ,-38.5,248.1,970,-0.5,-0.5,-1.8,25,-38.0852,246.823,970.227,-0.54578,-0.47541,-1.75857,
2026_07_06_16_51_15.842,3.853,29.9,0,0.759,0,0,0,0.002, ,0,0,0,0,0, ,-37.5,247.1,968.6,-0.5,-0.4,-1.7,25,-38.08,246.87,970.171,-0.54299,-0.473862,-1.75805,
2026_07_06_16_51_15.869,3.853,29.9,0,0.76,0,0,0,0.003, ,0,0,0,0,0, ,-38.6,247.4,971.1,-0.4,-0.5,-1.8,25,-38.0782,246.893,970.151,-0.537323,-0.472407,-1.75756,
2026_07_06_16_51_15.881,3.853,30,0,0.76,0,0,0,0.003, ,0,0,0,0,0, ,-37.3,245.7,970.3,-0.5,-0.5,-1.7,25,-38.0704,246.872,970.185,-0.532002,-0.474089,-1.7571,
2026_07_06_16_51_15.907,3.853,30,0,0.76,0,0,0,0.002, ,0,0,0,0,0, ,-37.9,246.5,969.3,-0.4,-0.4,-1.7,25,-38.0417,246.825,970.161,-0.527005,-0.472621,-1.75362,
2026_07_06_16_51_15.920,3.853,29.9,0,0.76,0,0,0,0.002, ,0,0,0,0,0, ,-37.2,245.4,970.2,-0.5,-0.4,-1.8,25,-38.0117,246.772,970.136,-0.522313,-0.468196,-1.7534,
2026_07_06_16_51_15.947,3.853,29.8,0,0.76,0,0,0,0.003, ,0,0,0,0,0, ,-37.3,247,970.4,-0.5,-0.4,-1.8,25,-37.9653,246.737,970.146,-0.520953,-0.46404,-1.75624,
2026_07_06_16_51_15.960,3.853,29.9,0,0.76,0,0,0,0.004, ,0,0,0,0,0, ,-39.1,246.7,969.2,-0.5,-0.5,-1.8,25,-37.9796,246.744,970.125,-0.519676,-0.463184,-1.75891,
2026_07_06_16_51_15.989,3.853,29.9,0,0.759,0,0,0,0.003, ,0,0,0,0,0, ,-39.7,247,971,-0.7,-0.4,-1.8,25,-38.0662,246.751,970.123,-0.524571,-0.462381,-1.76141,
2026_07_06_16_51_16.000,3.853,29.9,0,0.757,0,0,0,0.003, ,0,0,0,0,0, ,-37.5,246.2,969.9,-0.8,-0.4,-1.8,25,-38.0987,246.741,970.143,-0.538308,-0.45858,-1.76376,
2026_07_06_16_51_16.027,3.853,29.9,0,0.758,0,0,0,0.003, ,0,0,0,0,0, ,-38,248,970.7,-0.5,-0.5,-1.7,25,-38.0775,246.763,970.153,-0.545114,-0.458057,-1.76292,
2026_07_06_16_51_16.040,3.853,29.8,0,0.758,0,0,0,0.003, ,0,0,0,0,0, ,-38.3,247.4,970.7,-0.5,-0.5,-1.7,25,-38.0819,246.82,970.186,-0.542365,-0.460613,-1.75909,
2026_07_06_16_51_16.067,3.853,30,0,0.76,0,0,0,0.004, ,0,0,0,0,0, ,-36.7,246.4,970.2,-0.5,-0.4,-1.9,25,-38.0464,246.825,970.202,-0.539783,-0.459966,-1.76158,
2026_07_06_16_51_16.079,3.853,30,0,0.76,0,0,0,0.002, ,0,0,0,0,0, ,-37.1,247.3,970.5,-0.6,-0.4,-1.7,25,-37.9766,246.827,970.211,-0.540406,-0.456312,-1.76392,
2026_07_06_16_51_16.106,3.853,30,0,0.759,0,0,0,0.002, ,0,0,0,0,0, ,-39.3,246.2,969.7,-0.5,-0.5,-1.8,25,-37.9902,246.822,970.205,-0.540991,-0.455927,-1.76307,
2026_07_06_16_51_16.119,3.853,30,0,0.759,0,0,0,0.002, ,0,0,0,0,0, ,-38,246.5,971.5,-0.5,-0.4,-1.8,25,-38.0304,246.793,970.229,-0.538493,-0.455566,-1.76532,
2026_07_06_16_51_16.145,3.853,29.9,0,0.759,0,0,0,0.002, ,0,0,0,0,0, ,-37.5,247,969.8,-0.6,-0.4,-1.7,25,-38.0133,246.791,970.254,-0.539194,-0.45218,-1.76439,
2026_07_06_16_51_16.159,3.853,29.9,0,0.758,0,0,0,0.003, ,0,0,0,0,0, ,-36.7,249,970,-0.6,-0.5,-1.8,25,-37.9576,246.864,970.233,-0.542899,-0.452047,-1.76351,
2026_07_06_16_51_16.186,3.853,29.9,0,0.758,0,0,0,0.003, ,0,0,0,0,0, ,-37.8,246.7,970.5,-0.5,-0.4,-1.8,25,-37.9145,246.924,970.234,-0.543332,-0.451922,-1.76574,
2026_07_06_16_51_16.198,3.853,30,0,0.759,0,0,0,0.003, ,0,0,0,0,0, ,-38.2,247.5,969.6,-0.6,-0.5,-1.7,25,-37.9197,246.935,970.223,-0.543738,-0.451805,-1.76478,
2026_07_06_16_51_16.225,3.853,29.9,0,0.76,0,0,0,0.002, ,0,0,0,0,0, ,-36.9,247,971.1,-0.7,-0.5,-1.7,25,-37.8972,246.954,970.23,-0.550214,-0.454742,-1.76083,
2026_07_06_16_51_16.239,3.853,30,0,0.76,0,0,0,0.003, ,0,0,0,0,0, ,-36.6,246.5,969.7,-0.6,-0.5,-1.8,25,-37.8273,246.942,970.241,-0.556294,-0.4575,-1.76017,
2026_07_06_16_51_16.266,3.853,29.9,0,0.76,0,0,0,0.002, ,0,0,0,0,0, ,-38,247,969.4,-0.5,-0.4,-1.8,25,-37.7952,246.93,970.199,-0.555911,-0.457043,-1.7626,
2026_07_06_16_51_16.281,3.853,29.9,0,0.758,0,0,0,0.003, ,0,0,0,0,0, ,-37.9,246.9,970.3,-0.5,-0.5,-1.7,25,-37.8046,246.931,970.177,-0.552504,-0.456614,-1.76183,
2026_07_06_16_51_16.308,3.853,30,0,0.76,0,0,0,0.003, ,0,0,0,0,0, ,-39.6,246.8,970.3,-0.6,-0.5,-1.8,25,-37.8622,246.926,970.185,-0.552351,-0.459258,-1.76111,
2026_07_06_16_51_16.316,3.853,29.9,0,0.761,0,0,0,0.002, ,0,0,0,0,0, ,-38.3,246.5,970.5,-0.7,-0.5,-1.7,25,-37.9285,246.91,970.198,-0.558302,-0.46174,-1.76043,
2026_07_06_16_51_16.345,3.853,30,0,0.76,0,0,0,0.003, ,0,0,0,0,0, ,-38.5,246.9,968.2,-0.6,-0.4,-1.7,25,-37.9572,246.897,970.146,-0.56389,-0.461025,-1.75675,
2026_07_06_16_51_16.356,3.853,30,0,0.76,0,0,0,0.002, ,0,0,0,0,0, ,-39.3,246.4,970.4,-0.6,-0.5,-1.7,25,-38.0147,246.882,970.095,-0.56609,-0.460353,-1.75329,
2026_07_06_16_51_16.386,3.853,30,0,0.759,0,0,0,0.002, ,0,0,0,0,0, ,-38.5,246.7,969.9,-0.6,-0.5,-1.7,25,-38.0686,246.862,970.098,-0.568156,-0.462769,-1.75004,
2026_07_06_16_51_16.396,3.853,29.9,0,0.758,0,0,0,0.002, ,0,0,0,0,0, ,-37.7,247.3,970.4,-0.5,-0.5,-1.8,25,-38.0705,246.87,970.101,-0.56705,-0.465038,-1.75004,
2026_07_06_16_51_16.424,3.853,29.9,0,0.758,0,0,0,0.003, ,0,0,0,0,0, ,-39.3,246.9,969.4,-0.6,-0.5,-1.7,25,-38.0967,246.884,970.089,-0.566011,-0.467168,-1.75004,
2026_07_06_16_51_16.435,3.853,29.9,0,0.758,0,0,0,0.003, ,0,0,0,0,0, ,-37.9,247.1,970.7,-0.6,-0.5,-1.8,25,-38.1274,246.891,970.087,-0.568082,-0.469169,-1.75004,
2026_07_06_16_51_16.460,3.853,30.1,0,0.759,0,0,0,0.003, ,0,0,0,0,0, ,-38.5,247.5,969.9,-0.5,-0.5,-1.8,25,-38.1318,246.916,970.1,-0.56698,-0.471048,-1.75308,
2026_07_06_16_51_16.474,3.853,30,0,0.76,0,0,0,0.002, ,0,0,0,0,0, ,-38.6,247.1,970.9,-0.4,-0.5,-1.8,25,-38.1573,246.939,970.118,-0.559852,-0.472812,-1.75594,
2026_07_06_16_51_16.504,3.853,29.9,0,0.76,0,0,0,0.002, ,0,0,0,0,0, ,-38.3,248.1,968.5,-0.4,-0.4,-1.7,25,-38.1751,246.98,970.092,-0.550111,-0.471422,-1.75558,
2026_07_06_16_51_16.514,3.853,30,0,0.76,0,0,0,0.003, ,0,0,0,0,0, ,-38.2,245.8,970.7,-0.5,-0.4,-1.8,25,-38.1797,246.978,970.062,-0.54401,-0.46707,-1.75524,
2026_07_06_16_51_16.542,3.853,29.9,0,0.76,0,0,0,0.002, ,0,0,0,0,0, ,-38.5,247.5,969.4,-0.5,-0.5,-1.7,25,-38.1901,246.958,970.062,-0.541328,-0.46603,-1.75492,
2026_07_06_16_51_16.554,3.853,29.9,0,0.76,0,0,0,0.003, ,0,0,0,0,0, ,-38.2,245.6,968,-0.5,-0.4,-1.8,25,-38.1998,246.933,969.979,-0.53881,-0.465053,-1.75462,
2026_07_06_16_51_16.582,3.853,30,0,0.76,0,0,0,0.003, ,0,0,0,0,0, ,-37.5,246.7,970.8,-0.5,-0.5,-1.7,25,-38.1785,246.885,969.943,-0.536445,-0.464135,-1.75434,
2026_07_06_16_51_16.594,3.853,29.9,0,0.76,0,0,0,0.002, ,0,0,0,0,0, ,-37.8,245.6,970.2,-0.5,-0.5,-1.8,25,-38.1463,246.84,969.977,-0.534224,-0.466321,-1.75407,
2026_07_06_16_51_16.621,3.853,30,0,0.758,0,0,0,0.003, ,0,0,0,0,0, ,-37.3,248.2,971,-0.4,-0.4,-1.8,25,-38.11,246.844,970.015,-0.529092,-0.465326,-1.75687,
2026_07_06_16_51_16.634,3.853,30,0,0.757,0,0,0,0.002, ,0,0,0,0,0, ,-37.2,247,970.4,-0.4,-0.5,-1.8,25,-38.0576,246.89,970.057,-0.521225,-0.464392,-1.7595,
2026_07_06_16_51_16.660,3.853,29.9,0,0.76,0,0,0,0.002, ,0,0,0,0,0, ,-37.9,246.5,969.7,-0.5,-0.5,-1.7,25,-38.0266,246.882,970.057,-0.516885,-0.466562,-1.75892,
2026_07_06_16_51_16.672,3.853,29.9,0,0.759,0,0,0,0.003, ,0,0,0,0,0, ,-38.4,247,969.1,-0.5,-0.5,-1.8,25,-38.0341,246.874,970.017,-0.515856,-0.4686,-1.75838,
2026_07_06_16_51_16.701,3.853,30,0,0.759,0,0,0,0.003, ,0,0,0,0,0, ,-38,246.5,970.9,-0.5,-0.5,-1.8,25,-38.0442,246.866,970.016,-0.51489,-0.470513,-1.76091,
2026_07_06_16_51_16.713,3.853,30,0,0.76,0,0,0,0.002, ,0,0,0,0,0, ,-37.4,247.6,970.7,-0.5,-0.4,-1.7,25,-38.0233,246.877,970.063,-0.513982,-0.469263,-1.76025,
2026_07_06_16_51_16.739,3.853,29.9,0,0.759,0,0,0,0.002, ,0,0,0,0,0, ,-39,246.9,969.2,-0.5,-0.5,-1.7,25,-38.034,246.9,970.056,-0.51313,-0.468089,-1.75658,
2026_07_06_16_51_16.753,3.853,30,0,0.76,0,0,0,0.003, ,0,0,0,0,0, ,-37.8,246.8,968.6,-0.5,-0.5,-1.7,25,-38.0563,246.897,969.986,-0.51233,-0.470034,-1.75313,
2026_07_06_16_51_16.781,3.853,30,0,0.76,0,0,0,0.002, ,0,0,0,0,0, ,-38.3,246.3,970.8,-0.5,-0.4,-1.8,25,-38.056,246.876,969.969,-0.511579,-0.468813,-1.75294,
2026_07_06_16_51_16.791,3.853,30.1,0,0.758,0,0,0,0.002, ,0,0,0,0,0, ,-39.4,246.7,971,-0.5,-0.5,-1.8,25,-38.1043,246.853,970.025,-0.510873,-0.467667,-1.75581,
2026_07_06_16_51_16.820,3.853,30,0,0.758,0,0,0,0.002, ,0,0,0,0,0, ,-39.5,246.8,970.3,-0.7,-0.4,-1.7,25,-38.1863,246.847,970.063,-0.516304,-0.46659,-1.75545,
2026_07_06_16_51_16.831,3.853,29.9,0,0.76,0,0,0,0.002, ,0,0,0,0,0, ,-38.4,247.1,971,-0.5,-0.5,-1.8,25,-38.2329,246.853,970.099,-0.521405,-0.465579,-1.75512,
2026_07_06_16_51_16.859,3.853,30,0,0.76,0,0,0,0.003, ,0,0,0,0,0, ,-38.2,245.3,970.4,-0.6,-0.5,-1.8,25,-38.237,246.813,970.136,-0.523147,-0.467677,-1.75786,
2026_07_06_16_51_16.872,3.853,29.9,0,0.759,0,0,0,0.002, ,0,0,0,0,0, ,-37.7,246.5,970.8,-0.7,-0.4,-1.8,25,-38.2195,246.757,970.164,-0.530877,-0.4666,-1.76042,
2026_07_06_16_51_16.906,3.853,30,0,0.76,0,0,0,0.003, ,0,0,0,0,0, ,-37.5,249.5,969.8,-0.1,-0.5,-1.8,25,-38.1817,246.833,970.172,-0.522902,-0.465588,-1.76284,
2026_07_06_16_51_16.912,3.853,30,0,0.759,0,0,0,0.002, ,0,0,0,0,0, ,-37.9,245.3,969.6,0.2,-0.4,-1.8,25,-38.1524,246.868,970.144,-0.487991,-0.464638,-1.7651,
2026_07_06_16_51_16.939,3.853,30,0,0.759,0,0,0,0.002, ,0,0,0,0,0, ,-39.3,243,971.3,0.7,-0.4,-1.6,25,-38.1797,246.702,970.162,-0.430832,-0.460699,-1.76113,
2026_07_06_16_51_16.950,3.853,30,0,0.759,0,0,0,0.002, ,0,0,0,0,0, ,-68.8,242.6,968.5,3.9,0,0.3,25,-39.1468,246.464,970.146,-0.264422,-0.444813,-1.69342,
2026_07_06_16_51_16.976,3.853,30,0,0.759,0,0,0,0.002, ,0,0,0,0,0, ,-102.5,249.3,969.2,2.6,0.3,1.8,25,-41.9805,246.433,970.067,-0.0502618,-0.408566,-1.52625,
2026_07_06_16_51_16.990,3.853,29.9,0,0.76,0,0,0,0.002, ,0,0,0,0,0, ,-20.3,257.3,965.9,-8.5,-3.2,-12.1,25,-43.1639,246.851,969.914,-0.226965,-0.472029,-1.74707,
2026_07_06_16_51_17.020,3.853,30,0,0.759,0,0,0,0.003, ,0,0,0,0,0, ,49.9,246.8,972.7,-14.9,-2.3,-8.7,25,-39.6317,247.168,969.876,-0.926103,-0.610843,-2.27436,
2026_07_06_16_51_17.030,3.853,30,0,0.759,0,0,0,0.002, ,0,0,0,0,0, ,-82.2,233.6,974.6,-2.3,0.1,1.3,25,-38.2008,246.744,970.106,-1.39373,-0.640651,-2.36123,
2026_07_06_16_51_17.058,3.853,30,0,0.758,0,0,0,0.002, ,0,0,0,0,0, ,-91,231.4,971.6,-10.7,0,0.8,25,-41.1501,245.876,970.289,-1.70489,-0.598564,-2.15336,
2026_07_06_16_51_17.069,3.853,30,0,0.76,0,0,0,0.002, ,0,0,0,0,0, ,-116.3,253.5,964.3,2.5,-0.8,-2.9,25,-44.9587,245.667,970.146,-1.85085,-0.586464,-2.08612,
2026_07_06_16_51_17.098,3.853,29.9,0,0.76,0,0,0,0.002, ,0,0,0,0,0, ,-152.3,236.6,964.1,10.6,-2.7,-11.7,25,-50.403,245.629,969.784,-1.33892,-0.657367,-2.40384,
2026_07_06_16_51_17.109,3.853,30,0,0.76,0,0,0,0.003, ,0,0,0,0,0, ,-45.1,241,973.9,-0.8,-7.3,-28.2,25,-53.3461,245.213,969.736,-0.958735,-0.921996,-3.47306,
2026_07_06_16_51_17.137,3.853,30,0,0.76,0,0,0,0.002, ,0,0,0,0,0, ,123.5,246.2,971.3,-0.7,-7.6,-28.8,25,-47.7065,245.115,969.911,-0.946015,-1.3198,-4.99814,
2026_07_06_16_51_17.148,3.853,30.1,0,0.76,0,0,0,0.002, ,0,0,0,0,0, ,93.8,262.8,969.2,-6.5,-2.8,-10.4,25,-38.1786,245.687,969.931,-1.10774,-1.55625,-5.88794,
2026_07_06_16_51_17.176,3.853,29.9,0,0.76,0,0,0,0.002, ,0,0,0,0,0, ,-53.5,253.9,968.7,4.6,-1.3,-5.5,25,-34.6242,246.458,969.872,-1.09813,-1.58633,-6.0136,
2026_07_06_16_51_17.188,3.853,30.1,0,0.758,0,0,0,0.003, ,0,0,0,0,0, ,-61.7,245.4,966.1,5.1,-2.4,-9.5,25,-36.0243,246.653,969.721,-0.735666,-1.6024,-6.10418,
2026_07_06_16_51_17.214,3.853,30,0,0.758,0,0,0,0.002, ,0,0,0,0,0, ,-29.6,247.3,984.4,81,-3.8,-4.8,25,-36.6108,246.634,970.058,1.93252,-1.69366,-6.16791,
2026_07_06_16_51_17.227,3.853,29.9,0,0.759,0,0,0,0.002, ,0,0,0,0,0, ,-6.3,297.6,1078.2,-0.3,-18.5,-3.4,25,-35.4737,248.208,973.79,4.27359,-2.26991,-6.04189,
2026_07_06_16_51_17.257,3.853,29.9,0,0.759,0,0,0,0.003, ,0,0,0,0,0, ,13,282.3,1039.3,-21,-34.5,3.1,25,-33.1079,250.751,978.967,3.36418,-3.74643,-5.68286,
2026_07_06_16_51_17.267,3.853,30,0,0.76,0,0,0,0.003, ,0,0,0,0,0, ,-20.8,150.2,992.3,-19,-39.9,7.5,25,-31.328,248.649,981.212,1.94043,-5.78501,-5.01359,
2026_07_06_16_51_17.295,3.853,29.9,0,0.76,0,0,0,0.002, ,0,0,0,0,0, ,-67.6,331.7,1046.2,-15.1,-53.8,-6.6,25,-32.1124,248.18,983.53,0.783198,-8.2874,-4.68065,
2026_07_06_16_51_17.307,3.853,30,0,0.759,0,0,0,0.003, ,0,0,0,0,0, ,11.4,300,902.5,-21.4,-51.1,2.1,25,-31.8679,252.303,982.97,-0.376637,-10.9786,-4.53253,
2026_07_06_16_51_17.336,3.853,30,0,0.757,0,0,0,0.003, ,0,0,0,0,0, ,31.4,294.5,947.7,-18.9,-47.2,6,25,-28.6219,255.042,979.444,-1.58158,-13.3046,-4.00954,
2026_07_06_16_51_17.347,3.853,30,0,0.759,0,0,0,0.002, ,0,0,0,0,0, ,41.5,257.2,1029.9,-24.9,-54.1,1,25,-24.6566,256.31,980.014,-2.81973,-15.5804,-3.55192,
2026_07_06_16_51_17.374,3.853,30,0,0.758,0,0,0,0.003, ,0,0,0,0,0, ,60.7,134.8,1023.1,-27.3,-65.2,-10.6,25,-20.0401,252.635,982.847,-4.23837,-18.2659,-3.62798,
2026_07_06_16_51_17.385,3.853,29.9,0,0.758,0,0,0,0.003, ,0,0,0,0,0, ,36,199.8,1023.4,-27.2,-76.1,-19,25,-15.8726,247.435,985.309,-5.64064,-21.458,-4.30877,
2026_07_06_16_51_17.414,3.853,29.9,0,0.759,0,0,0,0.003, ,0,0,0,0,0, ,-18.7,70.4,895.8,-38.6,-71.4,-26,25,-14.3783,240.59,983.742,-7.30176,-24.6446,-5.4173,
2026_07_06_16_51_17.425,3.853,29.9,0,0.76,0,0,0,0.003, ,0,0,0,0,0, ,-1.8,116.4,882.8,-4.5,-45.5,-30.8,25,-14.1267,231.62,977.987,-8.17001,-26.7046,-6.81781,
2026_07_06_16_51_17.454,3.853,30,0,0.759,0,0,0,0.003, ,0,0,0,0,0, ,103,283.3,953.8,12.3,-33.2,-29,25,-10.1824,229.684,974.35,-7.4345,-27.4752,-8.22438,
2026_07_06_16_51_17.464,3.853,30,0,0.759,0,0,0,0.003, ,0,0,0,0,0, ,278.4,542.8,870.4,43.9,-32.1,-25.5,25,2.05885,240.858,970.556,-5.26911,-27.7905,-9.38375,
2026_07_06_16_51_17.493,3.853,29.9,0,0.76,0,0,0,0.003, ,0,0,0,0,0, ,273.1,103.2,950.9,102.6,-37.3,-20,25,18.7369,245.864,966.906,-0.484354,-28.2115,-10.1983,
2026_07_06_16_51_17.504,3.853,30,0,0.758,0,0,0,0.003, ,0,0,0,0,0, ,144.6,240.6,1004.5,48.9,-61.2,-71.9,25,30.3219,241.356,967.564,4.16118,-29.4936,-12.3769,
2026_07_06_16_51_17.534,3.853,29.8,0,0.76,0,0,0,0.003, ,0,0,0,0,0, ,203.4,307.3,1040.4,57.6,-76.1,-97.4,25,39.0773,243.343,970.908,7.15253,-31.8797,-16.781,
2026_07_06_16_51_17.544,3.853,29.9,0,0.759,0,0,0,0.004, ,0,0,0,0,0, ,149.9,453.1,1166.3,-17.2,-113.2,-97.2,25,47.4606,251.682,978.979,7.94761,-35.7047,-21.6876,
2026_07_06_16_51_17.575,3.853,30,0,0.759,0,0,0,0.003, ,0,0,0,0,0, ,72.5,329.9,1029.9,-52,-136.8,-45.2,25,51.3448,260.202,986.238,5.35486,-41.1462,-24.7048,
2026_07_06_16_51_17.584,3.853,30,0,0.759,0,0,0,0.003, ,0,0,0,0,0, ,386.4,316.7,977,-8.4,-136,26.5,25,62.198,264.047,987.287,3.18824,-46.9507,-23.7691,
2026_07_06_16_51_17.613,3.853,29.9,0,0.759,0,0,0,0.003, ,0,0,0,0,0, ,520.1,269.2,916.1,-36.4,-120,38.1,25,86.0278,265.809,984.804,1.62895,-51.8896,-20.3524,
2026_07_06_16_51_17.626,3.853,30.1,0,0.759,0,0,0,0.003, ,0,0,0,0,0, ,467.5,217.2,873.6,-17.5,-93.1,33.3,25,110.876,264.431,979.323,-0.112575,-55.2205,-16.9367,
2026_07_06_16_51_17.657,3.853,30,0,0.758,0,0,0,0.002, ,0,0,0,0,0, ,410.4,298.2,959.3,-13,-74,35.4,25,130.868,264.021,975.491,-1.03501,-56.9468,-13.8114,
2026_07_06_16_51_17.663,3.853,29.9,0,0.759,0,0,0,0.003, ,0,0,0,0,0, ,407.5,336.1,872.6,-35.8,-63.8,38.2,25,147.814,267.258,971.863,-2.45882,-57.6752,-10.7273,
2026_07_06_16_51_17.693,3.853,29.9,0,0.759,0,0,0,0.003, ,0,0,0,0,0, ,630.2,497.6,659.9,-106.8,-37.1,17.8,25,170.424,276.374,959.334,-6.65383,-57.2349,-8.36736,
2026_07_06_16_51_17.702,3.853,29.9,0,0.759,0,0,0,0.003, ,0,0,0,0,0, ,290.1,101.6,874.3,-125.1,5.2,3.5,25,188.079,277.789,947.619,-13.3141,-54.7191,-7.20849,
2026_07_06_16_51_17.731,3.853,29.9,0,0.758,0,0,0,0.003, ,0,0,0,0,0, ,343.5,-15.9,1008.4,-66.5,-2.5,-26.6,25,195.923,263.473,947.237,-18.3405,-51.3024,-7.47305,
2026_07_06_16_51_17.742,3.853,30,0,0.76,0,0,0,0.003, ,0,0,0,0,0, ,497.1,294.5,947,-78.9,-30.9,-49.9,25,209.596,255.906,949.094,-21.6531,-49.1938,-9.34852,
2026_07_06_16_51_17.771,3.853,30,0,0.76,0,0,0,0.003, ,0,0,0,0,0, ,438.1,201.4,980.4,-82,-47.2,-71.8,25,225.318,255.421,949.984,-25.236,-48.5757,-12.4869,
2026_07_06_16_51_17.782,3.853,29.9,0,0.759,0,0,0,0.003, ,0,0,0,0,0, ,430.2,180.6,1028.9,-107.1,-62.6,-76.4,25,238.044,251.496,953.315,-29.4598,-48.9611,-16.2414,
2026_07_06_16_51_17.810,3.853,30.1,0,0.759,0,0,0,0.003, ,0,0,0,0,0, ,435,109.9,963.3,-120.9,-77.8,-55.3,25,249.9,245.021,955.922,-34.6115,-50.2553,-19.2645,
2026_07_06_16_51_17.821,3.853,30,0,0.759,0,0,0,0.002, ,0,0,0,0,0, ,495.3,129.2,887.9,-105.3,-78.2,-26.6,25,263.016,237.375,954.074,-39.3944,-51.946,-20.5859,
2026_07_06_16_51_17.853,3.853,30,0,0.759,0,0,0,0.003, ,0,0,0,0,0, ,520.3,125.9,808.9,-94.6,-64.8,-4.9,25,277.933,230.683,947.635,-43.0845,-53.1376,-20.2912,
2026_07_06_16_51_17.862,3.853,30,0,0.759,0,0,0,0.003, ,0,0,0,0,0, ,564.4,-429.9,422.9,6.7,-86.5,42,25,294.046,207.363,927.42,-43.1372,-54.5094,-17.9243,
2026_07_06_16_51_17.893,3.853,29.9,0,0.76,0,0,0,0.003, ,0,0,0,0,0, ,521.2,100.4,659.1,-38,-189.1,64.4,25,309.204,184.687,903.872,-41.4622,-59.585,-13.5902,
2026_07_06_16_51_17.901,3.853,30,0,0.759,0,0,0,0.003, ,0,0,0,0,0, ,647.2,21.6,621,-33.9,-250.1,74,25,325.962,177.15,887.796,-41.1263,-69.3359,-8.54518,
2026_07_06_16_51_17.930,3.853,29.9,0,0.759,0,0,0,0.003, ,0,0,0,0,0, ,776.2,80.9,500.1,-8.3,-250.1,94.8,25,349.468,169.478,867.854,-39.906,-80.3512,-2.88133,
2026_07_06_16_51_17.940,3.853,30,0,0.76,0,0,0,0.003, ,0,0,0,0,0, ,818.2,12.4,524,123.2,-250.1,165.3,25,376.751,161.993,846.172,-33.9734,-90.6953,5.21917,
2026_07_06_16_51_17.969,3.853,30,0,0.759,0,0,0,0.003, ,0,0,0,0,0, ,893.5,-112.5,479.4,104.6,-250.1,199.3,25,405.947,149.072,825.181,-24.9623,-100.409,16.01,
2026_07_06_16_51_17.979,3.853,29.9,0,0.759,0,0,0,0.003, ,0,0,0,0,0, ,794.6,-132.3,459.2,67.6,-250.1,170.4,25,432.643,132.529,803.495,-18.1945,-109.531,26.2987,
2026_07_06_16_51_18.008,3.853,29.9,0,0.76,0,0,0,0.003, ,0,0,0,0,0, ,906.9,-151.6,359.8,14,-250.1,105.6,25,458.122,115.803,779.486,-14.5995,-118.097,33.1055,
2026_07_06_16_51_18.020,3.853,30,0,0.759,0,0,0,0.003, ,0,0,0,0,0, ,985.3,-184.2,371,7.2,-246.3,87.6,25,487.858,98.5149,754.252,-13.0639,-126.025,36.9747,
2026_07_06_16_51_18.049,3.853,30,0,0.76,0,0,0,0.003, ,0,0,0,0,0, ,947.8,-176.6,427.1,4.9,-155.4,74.9,25,517.028,81.5186,732.607,-11.8991,-130.585,39.6727,
2026_07_06_16_51_18.059,3.853,30,0,0.76,0,0,0,0.003, ,0,0,0,0,0, ,954.9,-189.3,237.5,22,-50.5,56.4,25,543.495,65.4025,708.213,-10.3544,-128.901,41.2557,
2026_07_06_16_51_18.090,3.853,30,0,0.759,0,0,0,0.003, ,0,0,0,0,0, ,911.2,-222,216.6,-1.7,10.8,25.3,25,567.233,48.8852,678.892,-9.10494,-122.255,41.231,
2026_07_06_16_51_18.099,3.853,30,0,0.759,0,0,0,0.003, ,0,0,0,0,0, ,824.2,-165.6,140,-11.2,-14.8,10.6,25,585.543,34.0966,648.388,-8.94315,-114.927,39.8123,
2026_07_06_16_51_18.128,3.853,29.9,0,0.759,0,0,0,0.003, ,0,0,0,0,0, ,741.8,-213.1,154.9,-38,-48.4,12.7,25,597.575,20.4803,617.862,-9.89724,-109.849,38.0962,
2026_07_06_16_51_18.138,3.853,30,0,0.758,0,0,0,0.003, ,0,0,0,0,0, ,707.8,-190.7,215.5,-41.3,-60.1,12.9,25,605.328,6.92904,591.496,-11.7103,-106.461,36.5547,
2026_07_06_16_51_18.168,3.853,30,0,0.759,0,0,0,0.003, ,0,0,0,0,0, ,820.8,-283.4,194.5,-61.2,-44.1,0.3,25,615.016,-7.93843,567.944,-14.1198,-103.149,34.7293,
2026_07_06_16_51_18.178,3.853,30.1,0,0.76,0,0,0,0.003, ,0,0,0,0,0, ,909.4,-277,156,-51.7,-28.5,-10.1,25,630.255,-24.5294,544.014,-16.6993,-99.0751,32.3144,
2026_07_06_16_51_18.209,3.853,30,0,0.76,0,0,0,0.002, ,0,0,0,0,0, ,908.3,-256.1,79.3,-40.5,-23.2,-8.5,25,647.232,-39.2775,518.033,-18.4909,-94.613,29.7785,
2026_07_06_16_51_18.217,3.853,30,0,0.761,0,0,0,0.003, ,0,0,0,0,0, ,782.7,-162.4,43.5,23,-33.6,-38.5,25,659.314,-49.6352,490.207,-17.8973,-90.5781,26.5319,
2026_07_06_16_51_18.247,3.853,29.9,0,0.76,0,0,0,0.003, ,0,0,0,0,0, ,725.2,-134.7,254.2,17.7,-69.6,-60.4,25,665.081,-55.6628,469.405,-15.5666,-88.2029,21.9017,
2026_07_06_16_51_18.258,3.853,30,0,0.758,0,0,0,0.003, ,0,0,0,0,0, ,953.7,-190.3,25.8,25,-38.8,-79.6,25,675.706,-62.1732,449.332,-13.317,-86.1309,16.3015,
2026_07_06_16_51_18.289,3.853,30,0,0.758,0,0,0,0.003, ,0,0,0,0,0, ,953.4,-149.1,5.8,22.5,-62.5,-78.7,25,692.638,-68.7256,422.914,-11.0582,-83.9687,10.4849,
2026_07_06_16_51_18.297,3.853,30,0,0.759,0,0,0,0.003, ,0,0,0,0,0, ,1059.4,-152.7,16.4,23,-74.2,-84.9,25,711.757,-73.7331,397.819,-8.99802,-83.017,4.86128,
2026_07_06_16_51_18.327,3.853,30,0,0.758,0,0,0,0.003, ,0,0,0,0,0, ,1122.6,-193.7,147.8,11.8,-70.4,-72.3,25,734.868,-79.7944,378.58,-7.38939,-82.3639,-0.224637,
2026_07_06_16_51_18.337,3.853,29.9,0,0.76,0,0,0,0.003, ,0,0,0,0,0, ,1025.1,-124.6,75.1,5,-54.8,-60.6,25,755.524,-84.6301,362.302,-6.42723,-81.1595,-4.26024,
2026_07_06_16_51_18.366,3.853,29.9,0,0.76,0,0,0,0.003, ,0,0,0,0,0, ,995.2,-83.9,-8.4,-10.9,-46.9,-44.1,25,771.041,-85.8257,342.256,-6.21533,-79.3126,-7.19071,
2026_07_06_16_51_18.376,3.853,30,0,0.76,0,0,0,0.003, ,0,0,0,0,0, ,934.9,47.6,-107.4,2.5,-57.6,-56.8,25,782.863,-81.7017,317.872,-6.09252,-77.6634,-9.82683,
2026_07_06_16_51_18.406,3.853,30,0,0.76,0,0,0,0.003, ,0,0,0,0,0, ,1078.9,-63.3,-64.9,6.1,-69.4,-61.5,25,796.515,-77.2014,293.252,-5.45923,-76.8003,-12.8325,
2026_07_06_16_51_18.416,3.853,30,0,0.759,0,0,0,0.003, ,0,0,0,0,0, ,1086.3,-89.8,-89.2,3.6,-56.1,-45.6,25,813.949,-77.1617,270.686,-4.83101,-75.9442,-15.3137,
2026_07_06_16_51_18.444,3.853,30.1,0,0.758,0,0,0,0.003, ,0,0,0,0,0, ,1086.1,-49.6,-131.9,-3.7,-25.9,-29.6,25,830.539,-76.707,247.455,-4.53967,-73.8147,-16.6718,
2026_07_06_16_51_18.454,3.853,30,0,0.758,0,0,0,0.002, ,0,0,0,0,0, ,1096,-33.8,-103.8,-4.1,-6.8,-20.5,25,846.414,-74.5737,225.194,-4.50069,-70.313,-17.1823,
2026_07_06_16_51_18.485,3.853,30,0,0.76,0,0,0,0.003, ,0,0,0,0,0, ,1069.4,-1.2,-89.8,-3.1,-7.4,-13.8,25,860.812,-71.0958,205.572,-4.4458,-66.4609,-17.1803,
2026_07_06_16_51_18.495,3.853,30,0,0.76,0,0,0,0.003, ,0,0,0,0,0, ,1024.9,7.2,-118.6,1.9,-15.2,-10.2,25,872.167,-66.5806,186.696,-4.21145,-63.0996,-16.8647,
2026_07_06_16_51_18.533,3.853,29.9,0,0.757,0,0,0,0.003, ,0,0,0,0,0, ,996.2,37.5,-90.4,12.2,-32.3,-17.2,25,880.6,-61.1614,168.951,-3.5252,-60.7017,-16.6718,
2026_07_06_16_51_18.541,3.853,30,0,0.758,0,0,0,0.003, ,0,0,0,0,0, ,1021.7,-11.1,-109,5,-3.7,-11.1,25,888.421,-56.63,152.58,-2.78632,-58.0996,-16.5181,
2026_07_06_16_51_18.572,3.853,30.1,0,0.758,0,0,0,0.003, ,0,0,0,0,0, ,1009.1,23.1,-83.1,7.5,10.1,-13.8,25,896.159,-52.8135,137.429,-2.23567,-54.3641,-16.2702,
2026_07_06_16_51_18.579,3.853,30,0,0.76,0,0,0,0.002, ,0,0,0,0,0, ,988.5,-3.9,-85.6,3.7,14.5,-8.2,25,902.414,-49.0102,123.914,-1.75819,-50.3018,-15.9491,
2026_07_06_16_51_18.610,3.853,30,0,0.76,0,0,0,0.003, ,0,0,0,0,0, ,1020.5,17,-100.2,5.8,15,-6.8,25,908.635,-45.6245,110.702,-1.36159,-46.3377,-15.4342,
2026_07_06_16_51_18.619,3.853,30,0,0.76,0,0,0,0.003, ,0,0,0,0,0, ,987,16.1,-105.1,1.7,14,-3.3,25,914.431,-41.8357,97.7012,-1.05011,-42.6304,-14.8014,
2026_07_06_16_51_18.649,3.853,30,0,0.759,0,0,0,0.003, ,0,0,0,0,0, ,961.5,5.8,-114.6,5.3,7,-4.5,25,918.076,-38.6191,85.0536,-0.772835,-39.3928,-14.1371,
2026_07_06_16_51_18.656,3.853,29.9,0,0.759,0,0,0,0.003, ,0,0,0,0,0, ,995.7,18.4,-110.1,8.7,4.1,-10.7,25,921.764,-35.5284,73.0243,-0.299178,-36.6541,-13.7388,
2026_07_06_16_51_18.687,3.853,30,0,0.76,0,0,0,0.003, ,0,0,0,0,0, ,987.5,15.1,-67.1,2.7,10.7,-10.7,25,926.02,-32.3427,63.1753,0.0663972,-33.9695,-13.5536,
2026_07_06_16_51_18.693,3.853,29.9,0,0.759,0,0,0,0.003, ,0,0,0,0,0, ,1019.2,21.2,-43.9,-0.3,3.8,-7.1,25,930.732,-29.2658,55.9435,0.135476,-31.4577,-13.27,
2026_07_06_16_51_18.723,3.853,30,0,0.758,0,0,0,0.003, ,0,0,0,0,0, ,1028,16.9,-57.1,0.8,2.1,-4.4,25,936.391,-26.3215,49.4571,0.142455,-29.361,-12.8118,
2026_07_06_16_51_18.733,3.853,30.1,0,0.759,0,0,0,0.003, ,0,0,0,0,0, ,1012.3,18.6,-52.9,-0.1,6,-0.6,25,941.495,-23.6359,43.0918,0.155102,-27.325,-12.1834,
2026_07_06_16_51_18.762,3.853,30,0,0.76,0,0,0,0.002, ,0,0,0,0,0, ,994.8,27.7,-34.9,-1.9,7.3,0,25,945.277,-20.7849,37.7907,0.0847131,-25.2547,-11.4592,
2026_07_06_16_51_18.772,3.853,30,0,0.76,0,0,0,0.003, ,0,0,0,0,0, ,996.4,21.6,-74.7,-5.3,2.1,0.2,25,948.343,-18.0162,32.1485,-0.139824,-23.4293,-10.7549,
2026_07_06_16_51_18.803,3.853,30,0,0.759,0,0,0,0.003, ,0,0,0,0,0, ,994.8,18,-84.4,-3,1.2,0.7,25,951.223,-15.7118,25.3418,-0.384194,-21.901,-10.0721,
2026_07_06_16_51_18.812,3.853,30,0,0.76,0,0,0,0.003, ,0,0,0,0,0, ,981,10.4,-86.6,16.5,2.2,-2.9,25,953.458,-13.889,18.5874,0.0505458,-20.4628,-9.52532,
2026_07_06_16_51_18.843,3.853,30,0,0.759,0,0,0,0.003, ,0,0,0,0,0, ,979.9,3,-87.1,1.6,-6.9,-3,25,955.103,-12.6344,12.1623,0.59895,-19.3591,-9.12464,
2026_07_06_16_51_18.851,3.853,30,0,0.759,0,0,0,0.003, ,0,0,0,0,0, ,983,8.6,-72.6,1.8,-9.4,-1.6,25,956.708,-11.5111,6.55532,0.666045,-18.676,-8.70876,
2026_07_06_16_51_18.882,3.853,30,0,0.758,0,0,0,0.003, ,0,0,0,0,0, ,952.1,16.8,-32.8,4.2,-13.7,-1.8,25,957.369,-10.0357,2.94445,0.808271,-18.2418,-8.28167,
2026_07_06_16_51_18.891,3.853,30,0,0.759,0,0,0,0.003, ,0,0,0,0,0, ,968.5,25,-55.6,4.4,-9.6,-5.5,25,957.548,-8.15055,0.0715862,1.02105,-17.8401,-7.99942,
2026_07_06_16_51_18.922,3.853,30,0,0.758,0,0,0,0.003, ,0,0,0,0,0, ,979.1,20,-68.1,12.9,-6,-10.8,25,958.538,-6.28278,-3.70176,1.48594,-17.2283,-8.0086,
2026_07_06_16_51_18.931,3.853,30.1,0,0.759,0,0,0,0.003, ,0,0,0,0,0, ,996.4,16.6,-85.6,0.6,-11.5,-7,25,960.318,-4.78477,-8.15923,1.80672,-16.7116,-8.06292,
2026_07_06_16_51_18.961,3.853,30.1,0,0.759,0,0,0,0.002, ,0,0,0,0,0, ,1006.2,17.4,-89.8,0.6,-13.3,-2.9,25,962.815,-3.45726,-13.0062,1.73318,-16.4489,-7.87323,
2026_07_06_16_51_18.970,3.853,30,0,0.759,0,0,0,0.002, ,0,0,0,0,0, ,992.4,28.4,-80.9,4,-15.1,-2.3,25,965.039,-1.85111,-17.4147,1.76772,-16.3119,-7.55189,
2026_07_06_16_51_19.002,3.853,30,0,0.76,0,0,0,0.003, ,0,0,0,0,0, ,955.8,34.7,-99.6,3.9,-25.5,-2.3,25,965.591,0.184267,-21.8531,1.9007,-16.5549,-7.23185,
2026_07_06_16_51_19.011,3.853,30,0,0.759,0,0,0,0.003, ,0,0,0,0,0, ,1005.9,21.4,-99.8,0.2,-22,1.2,25,966.521,1.88234,-26.5969,1.9098,-16.9933,-6.82468,
2026_07_06_16_51_19.043,3.853,30,0,0.758,0,0,0,0.003, ,0,0,0,0,0, ,1011.7,15.3,-146.2,-0.1,-13.6,3.1,25,969.097,2.88583,-32.4715,1.79647,-17.0425,-6.27778,
2026_07_06_16_51_19.052,3.853,30,0,0.759,0,0,0,0.003, ,0,0,0,0,0, ,1000.4,13.3,-155.3,4,-17.4,7.2,25,971.349,3.58138,-39.6791,1.80583,-16.9485,-5.5814,
2026_07_06_16_51_19.083,3.853,30,0,0.76,0,0,0,0.003, ,0,0,0,0,0, ,935.5,57,-145.9,12.2,-43.7,3.1,25,971.142,5.5051,-46.4383,2.18938,-17.7773,-4.92746,
2026_07_06_16_51_19.091,3.853,30,0,0.759,0,0,0,0.003, ,0,0,0,0,0, ,905.6,20,-149,-1.4,-68.9,4.8,25,968.059,7.51572,-52.5937,2.38502,-20.1248,-4.38649,
2026_07_06_16_51_19.124,3.853,30.1,0,0.759,0,0,0,0.003, ,0,0,0,0,0, ,1026.9,19.5,-231.5,24.8,-81.3,-2.3,25,967.949,8.26125,-60.9821,2.95266,-23.4749,-4.04301,
2026_07_06_16_51_19.131,3.853,30.1,0,0.759,0,0,0,0.002, ,0,0,0,0,0, ,1018.1,-7.2,-225.3,35.3,-102.5,8.5,25,971.273,8.1326,-71.1842,4.6039,-27.6445,-3.60774,
2026_07_06_16_51_19.161,3.853,30,0,0.76,0,0,0,0.002, ,0,0,0,0,0, ,979.1,3.1,-260.6,39.2,-121,16.8,25,972.938,7.51209,-81.6511,6.59327,-32.7697,-2.61703,
2026_07_06_16_51_19.169,3.853,30,0,0.758,0,0,0,0.003, ,0,0,0,0,0, ,935.6,3.1,-290.4,37.2,-136.2,17,25,971.988,7.24323,-93.4638,8.51931,-38.6094,-1.42771,
2026_07_06_16_51_19.200,3.853,30,0,0.758,0,0,0,0.003, ,0,0,0,0,0, ,928.8,6.2,-346.4,31.5,-158.5,15.8,25,969.564,7.08521,-107.171,10.0934,-45.2357,-0.341336,
2026_07_06_16_51_19.208,3.853,30,0,0.759,0,0,0,0.003, ,0,0,0,0,0, ,878.2,-19.4,-432,27.8,-157.3,10,25,965.538,6.25126,-124.357,11.2851,-52.1012,0.465558,
2026_07_06_16_51_19.240,3.853,30.1,0,0.76,0,0,0,0.003, ,0,0,0,0,0, ,883.6,-58.2,-440.9,22.9,-143.4,9.4,25,960.38,3.50595,-143.375,12.1422,-58.0882,1.02828,
2026_07_06_16_51_19.247,3.853,30,0,0.762,0,0,0,0.002, ,0,0,0,0,0, ,836.6,-29.4,-533.4,23.3,-146.9,6.9,25,954.269,0.623247,-164.324,12.8099,-63.3936,1.46226,
2026_07_06_16_51_19.279,3.853,30,0,0.759,0,0,0,0.003, ,0,0,0,0,0, ,827.2,-76.5,-522,12.5,-151.3,12.6,25,946.813,-2.64137,-186.467,13.1201,-68.6163,1.9673,
2026_07_06_16_51_19.287,3.853,30.1,0,0.759,0,0,0,0.003, ,0,0,0,0,0, ,896.3,-62.7,-621,17.9,-152,20.6,25,941.629,-6.72166,-209.93,13.2468,-73.6762,2.85898,
2026_07_06_16_51_19.321,3.853,30,0,0.758,0,0,0,0.002, ,0,0,0,0,0, ,765.8,-76.5,-638.4,42.8,-163.2,-2.7,25,934.891,-10.5533,-235.51,14.2891,-78.7903,3.23015,
2026_07_06_16_51_19.328,3.853,30.1,0,0.759,0,0,0,0.003, ,0,0,0,0,0, ,733.6,-89.3,-596.6,32.6,-154.6,-1.2,25,923.606,-14.9619,-258.787,15.7157,-83.672,2.91448,
2026_07_06_16_51_19.361,3.853,30.1,0,0.758,0,0,0,0.002, ,0,0,0,0,0, ,684.6,-77.6,-621.7,15.5,-137.6,12.3,25,910.534,-19.1354,-280.138,16.2235,-87.4762,3.07508,
2026_07_06_16_51_19.369,3.853,30,0,0.76,0,0,0,0.002, ,0,0,0,0,0, ,661.9,-88,-681.8,8.5,-134,10.6,25,896.075,-23.015,-302.783,15.9662,-90.4209,3.58543,
2026_07_06_16_51_19.401,3.853,30.1,0,0.76,0,0,0,0.003, ,0,0,0,0,0, ,621.7,-111.8,-661.8,4.1,-119.1,6.9,25,880.58,-27.7002,-325.27,15.3771,-92.6225,3.90015,
2026_07_06_16_51_19.407,3.853,30,0,0.759,0,0,0,0.002, ,0,0,0,0,0, ,563.5,-130.4,-729.7,-0.5,-93,4.5,25,863.031,-33.3917,-347.846,14.5498,-93.4408,4.00983,
2026_07_06_16_51_19.441,3.853,30,0,0.759,0,0,0,0.003, ,0,0,0,0,0, ,524.4,-122.3,-766.2,-0.8,-91.7,1.5,25,843.587,-39.0564,-372.227,13.6235,-93.3743,3.94829,
2026_07_06_16_51_19.447,3.853,30.1,0,0.757,0,0,0,0.003, ,0,0,0,0,0, ,543,-110.7,-750,-5,-103.9,1.3,25,824.703,-43.7756,-395.741,12.6166,-93.644,3.793,
2026_07_06_16_51_19.479,3.853,30.1,0,0.758,0,0,0,0.002, ,0,0,0,0,0, ,534.6,-107.5,-752.9,-6.9,-105.1,0.3,25,807.281,-47.7563,-417.417,11.4852,-94.3055,3.61062,
2026_07_06_16_51_19.485,3.853,30.1,0,0.757,0,0,0,0.002, ,0,0,0,0,0, ,480.8,-108.7,-814,-13.6,-93.4,-3.2,25,789.025,-51.4335,-439.722,10.1607,-94.6068,3.30224,
2026_07_06_16_51_19.517,3.853,30,0,0.76,0,0,0,0.002, ,0,0,0,0,0, ,477.6,-102.4,-835.9,-4.6,-77.5,-9,25,770.145,-54.7312,-463.197,8.98704,-94.0488,2.72929,
2026_07_06_16_51_19.525,3.853,30.1,0,0.76,0,0,0,0.003, ,0,0,0,0,0, ,461.6,-102.6,-830,-4.9,-77.3,-9.7,25,751.831,-57.6421,-485.729,8.14994,-93.0343,1.99321,
2026_07_06_16_51_19.559,3.853,30.1,0,0.759,0,0,0,0.002, ,0,0,0,0,0, ,485.8,-88.6,-826.4,-4.7,-84.8,-1.8,25,734.882,-59.9552,-506.598,7.36081,-92.304,1.52135,
2026_07_06_16_51_19.567,3.853,30,0,0.759,0,0,0,0.002, ,0,0,0,0,0, ,458.8,-90.2,-849.8,-6,-78.3,2.7,25,718.881,-61.7495,-526.799,6.58624,-91.6487,1.45607,
2026_07_06_16_51_19.599,3.853,30.1,0,0.758,0,0,0,0.003, ,0,0,0,0,0, ,377.9,-91.9,-903.1,-14.8,-67,3.8,25,700.568,-63.535,-548.106,5.55114,-90.4909,1.56539,
2026_07_06_16_51_19.605,3.853,30.1,0,0.758,0,0,0,0.002, ,0,0,0,0,0, ,345.4,-64.5,-865.2,-18.6,-81.2,5.3,25,679.915,-64.4286,-568.584,4.19521,-89.4921,1.74726,
2026_07_06_16_51_19.638,3.853,30.1,0,0.76,0,0,0,0.002, ,0,0,0,0,0, ,375.1,-56.7,-860.4,-22.9,-94.8,6.1,25,660.435,-64.1953,-586.513,2.67511,-89.4012,1.98813,
2026_07_06_16_51_19.644,3.853,30.1,0,0.759,0,0,0,0.002, ,0,0,0,0,0, ,372,-67.1,-928.9,-25.7,-84.7,10.2,25,642.953,-64.0554,-605.29,1.03132,-89.4225,2.36362,
2026_07_06_16_51_19.676,3.853,30.1,0,0.759,0,0,0,0.002, ,0,0,0,0,0, ,323.4,-74.4,-962.4,-24.6,-55.3,10.6,25,624.961,-64.4634,-626.03,-0.564106,-88.2389,2.85334,
2026_07_06_16_51_19.689,3.853,30.1,0,0.759,0,0,0,0.002, ,0,0,0,0,0, ,266.1,-55.7,-970.4,-17.3,-37,5.8,25,604.839,-64.4991,-646.772,-1.80637,-85.6741,3.17915,
2026_07_06_16_51_19.723,3.853,30.1,0,0.76,0,0,0,0.002, ,0,0,0,0,0, ,273.5,-35.2,-957,-11.7,-41.5,0.6,25,584.422,-63.3383,-666.084,-2.57989,-82.8451,3.18042,
2026_07_06_16_51_19.723,3.853,30.1,0,0.76,0,0,0,0.002, ,0,0,0,0,0, ,278,-30.6,-961,-12.9,-43.9,5,25,565.613,-61.4835,-683.934,-3.17221,-80.3988,3.15724,
2026_07_06_16_51_19.755,3.853,30.1,0,0.76,0,0,0,0.002, ,0,0,0,0,0, ,258.5,-24.5,-979.4,-17.9,-38.6,9.8,25,547.492,-59.4157,-701.378,-3.91734,-78.0132,3.41578,
2026_07_06_16_51_19.765,3.853,30.1,0,0.759,0,0,0,0.002, ,0,0,0,0,0, ,241,-15.5,-978.8,-17.7,-36,7.4,25,529.349,-57.0138,-718.302,-4.76331,-75.5322,3.73169,
2026_07_06_16_51_19.797,3.853,30.1,0,0.759,0,0,0,0.002, ,0,0,0,0,0, ,246.2,-30.8,-1027.7,-16.9,-33.5,6.1,25,511.936,-54.9502,-735.666,-5.52727,-73.047,3.91562,
2026_07_06_16_51_19.805,3.853,30,0,0.759,0,0,0,0.002, ,0,0,0,0,0, ,211.5,-20,-1036.6,-9.4,-25.3,5.7,25,494.685,-53.1495,-753.733,-5.99178,-70.3873,4.03655,
2026_07_06_16_51_19.837,3.853,30,0,0.759,0,0,0,0.002, ,0,0,0,0,0, ,199.3,-2.4,-1014,-6.9,-19.7,5.7,25,477.057,-50.5932,-770.282,-6.12329,-67.4692,4.13791,
2026_07_06_16_51_19.845,3.853,30.1,0,0.757,0,0,0,0.002, ,0,0,0,0,0, ,166.5,-3.4,-1002.6,-13.7,-17.7,6.4,25,459.132,-47.6869,-784.786,-6.37781,-64.4973,4.25443,
2026_07_06_16_51_19.877,3.853,30.1,0,0.759,0,0,0,0.002, ,0,0,0,0,0, ,146.3,-5,-1000.4,-15.7,-17.1,6,25,440.684,-45.0369,-797.992,-6.88495,-61.6273,4.37299,
2026_07_06_16_51_19.885,3.853,30.1,0,0.76,0,0,0,0.002, ,0,0,0,0,0, ,179.1,-37.9,-978,-13.9,-13.6,3.1,25,423.744,-43.5996,-809.644,-7.36727,-58.8073,4.38377,
2026_07_06_16_51_19.918,3.853,30,0,0.759,0,0,0,0.002, ,0,0,0,0,0, ,142,9.7,-999.8,-9.4,-6.3,6.2,25,407.706,-41.802,-820.567,-7.62825,-55.83,4.4,
2026_07_06_16_51_19.925,3.853,30.1,0,0.759,0,0,0,0.002, ,0,0,0,0,0, ,106,-15.8,-1015.5,-11.5,3.6,2.8,25,390.418,-39.4405,-831.967,-7.8002,-52.5102,4.40609,
2026_07_06_16_51_19.959,3.853,30.1,0,0.759,0,0,0,0.002, ,0,0,0,0,0, ,73.8,7.9,-1000.6,-10.1,-0.5,-0.7,25,372.105,-37.2778,-842.697,-7.983,-49.2159,4.20158,
2026_07_06_16_51_19.967,3.853,30.1,0,0.759,0,0,0,0.002, ,0,0,0,0,0, ,136.4,6.8,-995.4,-12.1,-13.8,-1.5,25,355.834,-34.5583,-852.161,-8.17294,-46.6525,3.87851,
2026_07_06_16_51_20.000,3.853,30.1,0,0.758,0,0,0,0.002, ,0,0,0,0,0, ,164.4,0.7,-1007,-11.9,-10.6,0.5,25,343.316,-32.2239,-861.243,-8.40615,-44.553,3.6117,
2026_07_06_16_51_20.007,3.853,30.1,0,0.759,0,0,0,0.002, ,0,0,0,0,0, ,139.5,3.9,-1029.7,-8.7,3.9,0.7,25,331.654,-30.1201,-870.817,-8.52156,-42.0422,3.42817,
2026_07_06_16_51_20.041,3.853,30.1,0,0.76,0,0,0,0.002, ,0,0,0,0,0, ,117.1,18,-1015.6,-7.3,7,-2.4,25,319.262,-27.6174,-880.069,-8.48978,-39.1482,3.16747,
2026_07_06_16_51_20.042,3.853,30.1,0,0.759,0,0,0,0.002, ,0,0,0,0,0, ,154.6,18.3,-1002.8,-8.6,-2.4,-4.1,25,308.086,-24.8284,-887.938,-8.45688,-36.6224,2.77641,
2026_07_06_16_51_20.075,3.853,30.1,0,0.759,0,0,0,0.002, ,0,0,0,0,0, ,187.5,16.7,-1013,-9.3,-3.4,-1.2,25,299.735,-22.249,-895.248,-8.48693,-34.5675,2.44574,
2026_07_06_16_51_20.083,3.853,30.1,0,0.759,0,0,0,0.002, ,0,0,0,0,0, ,168.3,15.8,-1020.8,-7.7,4.6,1.4,25,292.311,-19.903,-902.661,-8.48773,-32.4244,2.30279,
2026_07_06_16_51_20.117,3.853,30.1,0,0.76,0,0,0,0.002, ,0,0,0,0,0, ,145.1,21.7,-1017,-6.2,3.8,1,25,284.047,-17.5476,-909.745,-8.39402,-30.1926,2.23559,
2026_07_06_16_51_20.124,3.853,30.1,0,0.758,0,0,0,0.002, ,0,0,0,0,0, ,150.6,25.8,-1011.9,-6.1,0.2,0.3,25,275.747,-15.031,-916.125,-8.25728,-28.2309,2.13897,
2026_07_06_16_51_20.155,3.853,30.1,0,0.76,0,0,0,0.001, ,0,0,0,0,0, ,167.2,21.9,-998.9,-5.8,-4.2,-0.2,25,268.627,-12.6617,-921.565,-8.11668,-26.6325,2.01167,
2026_07_06_16_51_20.164,3.853,30,0,0.759,0,0,0,0.001, ,0,0,0,0,0, ,164.7,23.1,-1001.7,-4.7,0.4,0.3,25,262.37,-10.519,-926.363,-7.94199,-25.1253,1.89213,
2026_07_06_16_51_20.196,3.853,30.1,0,0.759,0,0,0,0.002, ,0,0,0,0,0, ,153.5,25.6,-995.4,-4.7,5.7,0.3,25,256.077,-8.39421,-930.762,-7.74443,-23.4084,1.79511,
2026_07_06_16_51_20.203,3.853,30.1,0,0.758,0,0,0,0.001, ,0,0,0,0,0, ,156.7,29.6,-991.8,-6,4.8,-0.7,25,249.924,-6.20081,-934.591,-7.59852,-21.662,1.67354,
2026_07_06_16_51_20.235,3.853,30.1,0,0.758,0,0,0,0.001, ,0,0,0,0,0, ,207.8,31.2,-1015.7,-6.6,4.9,0.9,25,245.8,-3.97045,-938.806,-7.51939,-20.0464,1.57765,
2026_07_06_16_51_20.243,3.853,30.2,0,0.759,0,0,0,0.001, ,0,0,0,0,0, ,238,28.4,-1063.2,-1,15.9,7.6,25,244.405,-1.91256,-944.939,-7.29274,-18.1911,1.74049,
2026_07_06_16_51_20.278,3.853,30,0,0.759,0,0,0,0.001, ,0,0,0,0,0, ,195.3,47.2,-1090.5,3.6,36.9,8.6,25,242.713,0.507422,-952.977,-6.76912,-15.4738,2.12803,
2026_07_06_16_51_20.278,3.853,30.1,0,0.76,0,0,0,0.002, ,0,0,0,0,0, ,233.8,-60.7,-1092.5,2.8,53.6,0.5,25,240.997,0.0651731,-961.418,-6.16163,-11.7735,2.27562,
2026_07_06_16_51_20.312,3.853,30.1,0,0.759,0,0,0,0.001, ,0,0,0,0,0, ,212.8,40.1,-1110.3,12.8,74.8,-0.3,25,239.919,-0.566455,-969.948,-5.31084,-7.14385,2.14304,
2026_07_06_16_51_20.320,3.853,30.1,0,0.76,0,0,0,0.001, ,0,0,0,0,0, ,299.9,36.3,-1105.1,16.7,111.6,-4.6,25,240.92,1.79588,-978.343,-4.08838,-1.02915,1.86315,
2026_07_06_16_51_20.353,3.853,30.2,0,0.76,0,0,0,0.001, ,0,0,0,0,0, ,373.4,5.1,-1072.5,29.6,157.4,-10.5,25,246.753,2.94785,-985.074,-2.42855,7.22966,1.28954,
2026_07_06_16_51_20.360,3.853,30.1,0,0.758,0,0,0,0.001, ,0,0,0,0,0, ,421,17.7,-1039.5,37.9,192.3,-12.8,25,255.921,3.4629,-989.396,-0.223916,17.444,0.501034,
2026_07_06_16_51_20.392,3.853,30.1,0,0.758,0,0,0,0.001, ,0,0,0,0,0, ,444.3,15.3,-962.7,40.8,210.1,-12.7,25,266.691,4.25735,-990.109,2.18762,28.6417,-0.306451,
2026_07_06_16_51_20.400,3.853,30.1,0,0.758,0,0,0,0.001, ,0,0,0,0,0, ,492.6,13.7,-881.2,30.5,194.9,-3.6,25,278.985,4.88151,-985.956,4.22673,39.2361,-0.784417,
2026_07_06_16_51_20.433,3.853,30.1,0,0.76,0,0,0,0.001, ,0,0,0,0,0, ,505.9,2.8,-850.7,12,151.8,16.4,25,292.408,5.08678,-978.643,5.26409,47.4087,-0.346616,
2026_07_06_16_51_20.441,3.853,30.2,0,0.759,0,0,0,0.001, ,0,0,0,0,0, ,523,-20.3,-828.3,10.8,131.9,18.8,25,305.938,4.2436,-970.164,5.638,53.1637,0.747005,
2026_07_06_16_51_20.475,3.853,30.2,0,0.759,0,0,0,0.001, ,0,0,0,0,0, ,570.5,-40.7,-778.9,12.1,130.3,12.1,25,320.613,2.12641,-960.014,5.99216,57.913,1.64297,
2026_07_06_16_51_20.475,3.853,30.1,0,0.759,0,0,0,0, ,0,0,0,0,0, ,606.3,-44.1,-737.4,11.6,140.5,5.5,25,336.931,-0.586918,-947.713,6.34913,62.6348,2.0791,
2026_07_06_16_51_20.511,3.853,30.1,0,0.758,0,0,0,0.001, ,0,0,0,0,0, ,631.9,-45.6,-690.1,9.9,150.1,-2.5,25,354.126,-3.2842,-933.456,6.6173,67.6722,2.04381,
2026_07_06_16_51_20.519,3.853,30.1,0,0.758,0,0,0,0.001, ,0,0,0,0,0, ,687.8,-57.7,-640.1,6.8,155.8,-6,25,372.756,-6.23149,-917.103,6.72289,72.8689,1.66028,
2026_07_06_16_51_20.553,3.853,30.1,0,0.759,0,0,0,0.001, ,0,0,0,0,0, ,722,-72.8,-598.9,0.3,150.3,-3.7,25,392.996,-9.82793,-898.967,6.52954,77.7549,1.26356,
2026_07_06_16_51_20.560,3.853,30.1,0,0.758,0,0,0,0.001, ,0,0,0,0,0, ,714.9,-67.8,-588.3,-3.2,129.6,1.8,25,412.828,-13.5129,-880.359,6.04329,81.5449,1.12867,
2026_07_06_16_51_20.594,3.853,30.1,0,0.759,0,0,0,0.001, ,0,0,0,0,0, ,734.9,-59.5,-548.5,-1.8,113.3,1.5,25,431.845,-16.5682,-861.349,5.52268,83.9766,1.16044,
2026_07_06_16_51_20.594,3.853,30.1,0,0.759,0,0,0,0.001, ,0,0,0,0,0, ,766.1,-66,-496.9,-2.9,111.6,-5.7,25,451.263,-19.3824,-840.713,5.04294,85.7117,0.961758,
2026_07_06_16_51_20.629,3.853,30.1,0,0.758,0,0,0,0.001, ,0,0,0,0,0, ,802.2,-62.9,-466.4,-4.9,115.9,-9.3,25,471.548,-22.1287,-818.832,4.49798,87.4203,0.44612,
2026_07_06_16_51_20.638,3.853,30.1,0,0.759,0,0,0,0.001, ,0,0,0,0,0, ,836.1,-67.1,-448.6,-7.7,112.5,-9,25,492.73,-24.7412,-796.814,3.83998,89.0522,-0.138643,
2026_07_06_16_51_20.671,3.853,30.1,0,0.759,0,0,0,0.001, ,0,0,0,0,0, ,864.6,-80.9,-430.1,-9.5,104.8,-1,25,514.523,-27.7429,-775.031,3.08192,90.2464,-0.434882,
2026_07_06_16_51_20.677,3.853,30.1,0,0.76,0,0,0,0.001, ,0,0,0,0,0, ,870.9,-67.7,-394.4,-9.6,103,2.1,25,536.048,-30.5799,-752.924,2.31216,91.0784,-0.374866,
2026_07_06_16_51_20.712,3.853,30.1,0,0.76,0,0,0,0.001, ,0,0,0,0,0, ,870.1,-55.7,-330.9,-9.3,110.9,-2.3,25,556.428,-32.4763,-729.141,1.5954,92.0456,-0.358116,
2026_07_06_16_51_20.719,3.853,30.1,0,0.759,0,0,0,0.001, ,0,0,0,0,0, ,881.8,-64.3,-315.7,-10.7,129,-9.4,25,575.899,-34.1535,-704.41,0.888809,93.746,-0.692778,
2026_07_06_16_51_20.754,3.853,30.1,0,0.758,0,0,0,0.001, ,0,0,0,0,0, ,880.3,-67.5,-279,-13,134.7,-11.4,25,594.494,-36.0881,-679.605,0.112538,96.068,-1.28431,
2026_07_06_16_51_20.754,3.853,30,0,0.759,0,0,0,0.001, ,0,0,0,0,0, ,889.2,-59.2,-226.3,-12.4,123,-12,25,612.182,-37.7494,-653.588,-0.668226,98.0657,-1.91902,
2026_07_06_16_51_20.788,3.853,30.1,0,0.758,0,0,0,0.002, ,0,0,0,0,0, ,904.9,-41.7,-189,-12.5,111.4,-12.3,25,629.541,-38.5233,-626.413,-1.38618,99.2317,-2.54247,
2026_07_06_16_51_20.795,3.853,30,0,0.761,0,0,0,0.001, ,0,0,0,0,0, ,895.9,-34,-176.3,-13,106,-13.7,25,646.046,-38.4823,-599.372,-2.07866,99.8086,-3.17972,
2026_07_06_16_51_20.830,3.853,30.1,0,0.759,0,0,0,0.002, ,0,0,0,0,0, ,935.7,-35,-146.4,-12.5,99.2,-19.1,25,662.485,-38.2396,-572.68,-2.72895,99.9787,-3.98533,
2026_07_06_16_51_20.838,3.853,30.1,0,0.759,0,0,0,0.001, ,0,0,0,0,0, ,968.6,-51.2,-104.2,-10.2,99,-19.7,25,680.136,-38.5358,-545.417,-3.25429,99.9252,-4.92467,
2026_07_06_16_51_20.872,3.853,30.1,0,0.758,0,0,0,0.001, ,0,0,0,0,0, ,940.6,-32.2,-72.9,-8.5,90.7,-17.6,25,696.861,-38.7286,-517.577,-3.62575,99.6159,-5.76105,
2026_07_06_16_51_20.872,3.853,30.1,0,0.758,0,0,0,0.001, ,0,0,0,0,0, ,908.4,-10.2,-39.5,-6.4,73.5,-22.7,25,710.733,-37.6605,-489.462,-3.85879,98.5485,-6.63788,
2026_07_06_16_51_20.908,3.853,30.1,0,0.758,0,0,0,0.001, ,0,0,0,0,0, ,947.9,-10.3,-19.2,-6.2,57.8,-25.2,25,723.982,-35.9901,-461.424,-4.00755,96.5438,-7.69284,
2026_07_06_16_51_20.915,3.853,30.1,0,0.758,0,0,0,0.001, ,0,0,0,0,0, ,997.5,-17.8,12,-4.9,41.4,-20.6,25,739.138,-34.6532,-433.525,-4.10154,93.6831,-8.61952,
2026_07_06_16_51_20.949,3.853,30.1,0,0.758,0,0,0,0.001, ,0,0,0,0,0, ,1001.4,-11.2,19.7,-3.4,28.3,-15.4,25,755.001,-33.4251,-406.141,-4.1045,90.098,-9.19115,
2026_07_06_16_51_20.956,3.853,30.1,0,0.759,0,0,0,0.001, ,0,0,0,0,0, ,986.6,-1.7,-3.9,-0.6,23,-13.9,25,769.565,-31.7813,-380.911,-3.97625,86.1707,-9.52379,
2026_07_06_16_51_20.991,3.853,30.1,0,0.76,0,0,0,0.001, ,0,0,0,0,0, ,968.5,19.8,16.2,2.7,9.8,-14.3,25,782.239,-29.2931,-357.324,-3.66997,81.919,-9.80266,
2026_07_06_16_51_20.991,3.853,30.1,0,0.759,0,0,0,0.001, ,0,0,0,0,0, ,1011.2,21.2,45.7,2.8,0.3,-14.5,25,794.89,-26.2589,-333.664,-3.27875,77.2348,-10.0828,
2026_07_06_16_51_21.027,3.853,30.1,0,0.758,0,0,0,0.001, ,0,0,0,0,0, ,1027.7,27.5,50.7,2,-1.2,-11.8,25,808.574,-23.1749,-310.394,-2.9327,72.5009,-10.2697,
2026_07_06_16_51_21.036,3.853,30.1,0,0.76,0,0,0,0.001, ,0,0,0,0,0, ,1020.1,25.2,44.7,0.7,2,-10,25,821.696,-20.157,-288.573,-2.67172,68.1073,-10.3081,
2026_07_06_16_51_21.071,3.853,30.1,0,0.757,0,0,0,0.001, ,0,0,0,0,0, ,982.5,33.3,31.9,1.6,0.5,-9,25,832.64,-17.1462,-268.654,-2.43884,64.0332,-10.2589,
2026_07_06_16_51_21.071,3.853,30.1,0,0.758,0,0,0,0.001, ,0,0,0,0,0, ,968.6,54,29.7,2.1,-5.2,-12.1,25,841.349,-13.4415,-250.406,-2.17749,59.9879,-10.2766,
2026_07_06_16_51_21.105,3.853,30,0,0.759,0,0,0,0.001, ,0,0,0,0,0, ,1000,49.1,57,0.1,-8.1,-13.3,25,850.06,-9.48104,-232.505,-1.97776,55.9272,-10.4243,
2026_07_06_16_51_21.112,3.853,30,0,0.76,0,0,0,0.002, ,0,0,0,0,0, ,1009.8,37.3,51.3,-2.8,-4.6,-11.8,25,859.496,-6.27079,-215.037,-1.93951,52.1322,-10.5538,
2026_07_06_16_51_21.147,3.853,30.1,0,0.76,0,0,0,0.002, ,0,0,0,0,0, ,987.6,42.6,32.2,-3.8,-0.2,-11.1,25,867.978,-3.45421,-199.389,-2.02241,48.8091,-10.6084,
2026_07_06_16_51_21.154,3.853,30.1,0,0.759,0,0,0,0.001, ,0,0,0,0,0, ,991,41.9,-7.2,-3.6,-4.4,-9.6,25,875.371,-0.669108,-186.477,-2.12464,45.6947,-10.5927,
2026_07_06_16_51_21.189,3.853,30.2,0,0.76,0,0,0,0.001, ,0,0,0,0,0, ,1010.9,33.5,-12.6,0.1,-9.2,-6.8,25,883.024,1.66901,-175.717,-2.10181,42.4958,-10.4469,
2026_07_06_16_51_21.189,3.853,30.1,0,0.761,0,0,0,0, ,0,0,0,0,0, ,1009.1,44.4,17.2,2.9,-2,-7,25,890.761,3.94082,-164.869,-1.88233,39.5649,-10.2307,
2026_07_06_16_51_21.224,3.853,30.1,0,0.758,0,0,0,0.001, ,0,0,0,0,0, ,975.2,67.6,30,1.7,2.3,-8.4,25,896.94,7.11318,-153.384,-1.62747,37.1631,-10.0765,
2026_07_06_16_51_21.232,3.853,30.1,0,0.758,0,0,0,0.001, ,0,0,0,0,0, ,967.8,74,11.9,-0.3,-3.2,-10.8,25,901.483,10.9941,-142.761,-1.48564,34.871,-10.0475,
2026_07_06_16_51_21.267,3.853,30.1,0,0.758,0,0,0,0.001, ,0,0,0,0,0, ,1000,67.3,6.7,0,-5.4,-12.3,25,906.506,14.6294,-133.495,-1.40425,32.484,-10.1391,
2026_07_06_16_51_21.268,3.853,30.1,0,0.761,0,0,0,0.001, ,0,0,0,0,0, ,1011.5,65.3,16.1,1.1,-0.9,-12.9,25,912.553,17.7781,-124.665,-1.28516,30.3126,-10.289,
2026_07_06_16_51_21.302,3.853,30.1,0,0.759,0,0,0,0.001, ,0,0,0,0,0, ,1026.1,63.4,19.6,1,-0.3,-10.2,25,919.028,20.616,-115.98,-1.14286,28.4289,-10.3659,
2026_07_06_16_51_21.317,3.853,30.1,0,0.759,0,0,0,0.001, ,0,0,0,0,0, ,1050.2,64.5,-1.5,3.9,-3.3,-5.5,25,926.287,23.2567,-108.361,-0.923921,26.5868,-10.2125,
