UTC_Time,Vin,TC1,TC2,Rh1,Vh1,Ah1,Acp1,Dty1,Err1,Rh2,Vh2,Ah2,Acp2,Dty2,Err2,Accel_x,Accel_y,Accel_z,gyro_x,gyro_y,gyro_z,Temp_c,Accel_x_h,Accel_y_h,Accel_z_h,gyro_x_h,gyro_y_h,gyro_z_h,
2026_07_06_17_12_59.796,3.873,42.7,0,0.767,0,0,0,0, ,0,0,0,0,0, ,156.3,0,-988.6,-0.1,-0.6,-1.7,25,156.3,0,-988.6,-0.1,-0.6,-1.7,
2026_07_06_17_12_59.814,3.873,42.5,0,0.768,0,0,0,0, ,0,0,0,0,0, ,157.1,-0.9,-987.5,-0.2,-0.2,-1.6,25,156.324,-0.0274219,-988.566,-0.103047,-0.587813,-1.69695,
2026_07_06_17_12_59.834,3.873,42.6,0,0.768,0,0,0,0, ,0,0,0,0,0, ,156.9,1,-985.4,-0.2,-0.7,-1.5,25,156.366,-0.022704,-988.437,-0.108955,-0.579415,-1.688,
2026_07_06_17_12_59.854,3.873,42.5,0,0.768,0,0,0,0, ,0,0,0,0,0, ,157.9,3.2,-986.6,-0.1,-0.8,-1.7,25,156.429,0.106648,-988.289,-0.111456,-0.58981,-1.68264,
2026_07_06_17_12_59.873,3.873,42.5,0,0.769,0,0,0,0, ,0,0,0,0,0, ,157.8,2.4,-988.2,-0.1,-1.2,-1.5,25,156.515,0.270774,-988.235,-0.110758,-0.614806,-1.6776,
2026_07_06_17_12_59.893,3.873,42.5,0,0.767,0,0,0,0, ,0,0,0,0,0, ,158.8,-0.6,-989.2,0.3,-0.9,-1.5,25,156.624,0.309118,-988.263,-0.097915,-0.641325,-1.66678,
2026_07_06_17_12_59.916,3.873,42.5,0,0.768,0,0,0,0, ,0,0,0,0,0, ,154,-3.5,-990.9,0.3,-0.6,-1.8,25,156.61,0.165359,-988.372,-0.073667,-0.647948,-1.66576,
2026_07_06_17_12_59.932,3.873,42.6,0,0.768,0,0,0,0, ,0,0,0,0,0, ,155.6,0.2,-988.1,0.4,0.1,-2.4,25,156.5,0.0547357,-988.441,-0.0478498,-0.623698,-1.69222,
2026_07_06_17_12_59.953,3.873,42.5,0,0.768,0,0,0,0, ,0,0,0,0,0, ,158.8,2.4,-986,-0.2,-0.5,-2,25,156.543,0.130619,-988.356,-0.0388402,-0.597879,-1.72316,
2026_07_06_17_12_59.972,3.873,42.5,0,0.769,0,0,0,0, ,0,0,0,0,0, ,158.9,-0.2,-986.5,-0.3,-0.7,-1.6,25,156.683,0.189691,-988.228,-0.0517078,-0.598008,-1.72784,
2026_07_06_17_12_59.992,3.873,42.6,0,0.769,0,0,0,0, ,0,0,0,0,0, ,155.1,-1.2,-987.4,-0.6,-0.7,-1.3,25,156.703,0.135475,-988.15,-0.0759787,-0.604223,-1.71091,
2026_07_06_17_13_00.012,3.873,42.4,0,0.767,0,0,0,0, ,0,0,0,0,0, ,155.7,-1.3,-988.2,-0.3,-0.1,-1.6,25,156.623,0.0510477,-988.129,-0.0987706,-0.591778,-1.69501,
2026_07_06_17_13_00.032,3.873,42.5,0,0.767,0,0,0,0, ,0,0,0,0,0, ,156.4,3,-985.4,-0.2,0,-1.8,25,156.588,0.0997339,-988.048,-0.107986,-0.558764,-1.69532,
2026_07_06_17_13_00.054,3.873,42.4,0,0.769,0,0,0,0, ,0,0,0,0,0, ,157.7,-0.2,-986.9,-0.3,-0.2,-2,25,156.616,0.178969,-987.932,-0.11664,-0.530808,-1.70779,
2026_07_06_17_13_00.071,3.873,42.6,0,0.769,0,0,0,0, ,0,0,0,0,0, ,156.7,-0.9,-986,-0.3,-0.3,-2,25,156.652,0.134547,-987.842,-0.127814,-0.513696,-1.7256,
2026_07_06_17_13_00.091,3.873,42.4,0,0.768,0,0,0,0, ,0,0,0,0,0, ,157.3,0.8,-987.1,-0.4,-0.5,-2,25,156.673,0.123301,-987.763,-0.141353,-0.506768,-1.74232,
2026_07_06_17_13_00.111,3.873,42.5,0,0.767,0,0,0,0, ,0,0,0,0,0, ,160.2,2.6,-986.8,-0.2,-0.4,-1.6,25,156.8,0.219381,-987.713,-0.151021,-0.503308,-1.74583,
2026_07_06_17_13_00.131,3.873,42.4,0,0.769,0,0,0,0, ,0,0,0,0,0, ,155,-1.3,-985.7,-0.2,-0.6,-1.4,25,156.848,0.245622,-987.624,-0.154005,-0.503107,-1.73085,
2026_07_06_17_13_00.150,3.873,42.4,0,0.769,0,0,0,0, ,0,0,0,0,0, ,155.8,0.7,-988.8,-0.1,0,-1.8,25,156.76,0.212373,-987.601,-0.153761,-0.49073,-1.72288,
2026_07_06_17_13_00.170,3.873,42.5,0,0.769,0,0,0,0, ,0,0,0,0,0, ,157.4,-0.9,-988,-0.3,0,-2.1,25,156.75,0.193338,-987.65,-0.156579,-0.460826,-1.73672,
2026_07_06_17_13_00.192,3.873,42.5,0,0.768,0,0,0,0, ,0,0,0,0,0, ,158.8,-3.7,-986.4,-0.6,-0.6,-1.8,25,156.833,0.0414004,-987.623,-0.174459,-0.451026,-1.74972,
2026_07_06_17_13_00.209,3.873,42.4,0,0.768,0,0,0,0, ,0,0,0,0,0, ,158,-1.7,-984.2,-0.4,-1,-1.7,25,156.928,-0.125654,-987.481,-0.194297,-0.472291,-1.74973,
2026_07_06_17_13_00.230,3.873,42.5,0,0.77,0,0,0,0, ,0,0,0,0,0, ,157.3,-0.3,-988.2,-0.2,-0.8,-1.4,25,156.972,-0.178934,-987.403,-0.200738,-0.498355,-1.73756,
2026_07_06_17_13_00.249,3.873,42.4,0,0.768,0,0,0,0, ,0,0,0,0,0, ,153.6,0.7,-988.2,0,-0.3,-1.8,25,156.879,-0.155843,-987.452,-0.194599,-0.501502,-1.72918,
2026_07_06_17_13_00.269,3.873,42.4,0,0.769,0,0,0,0, ,0,0,0,0,0, ,158,-0.6,-987.5,-0.2,0,-2,25,156.814,-0.143299,-987.476,-0.188835,-0.480082,-1.73959,
2026_07_06_17_13_00.289,3.873,42.4,0,0.768,0,0,0,0, ,0,0,0,0,0, ,157.4,0.1,-986.9,-0.5,-0.3,-2,25,156.868,-0.149801,-987.459,-0.198656,-0.459968,-1.75546,
2026_07_06_17_13_00.308,3.873,42.4,0,0.767,0,0,0,0, ,0,0,0,0,0, ,157.7,-1.3,-986.4,-0.7,0,-1.6,25,156.909,-0.177235,-987.41,-0.223113,-0.441079,-1.75817,
2026_07_06_17_13_00.329,3.873,42.4,0,0.768,0,0,0,0, ,0,0,0,0,0, ,158.2,0,-986.2,-0.9,-0.4,-1.5,25,156.973,-0.206044,-987.342,-0.258267,-0.426389,-1.74549,
2026_07_06_17_13_00.348,3.873,42.4,0,0.77,0,0,0,0, ,0,0,0,0,0, ,158.8,0.2,-985.4,-0.4,-0.2,-1.8,25,157.066,-0.187395,-987.248,-0.282138,-0.418687,-1.73967,
2026_07_06_17_13_00.368,3.873,42.3,0,0.769,0,0,0,0, ,0,0,0,0,0, ,157.8,0.4,-985.9,-0.1,-0.6,-2,25,157.141,-0.157694,-987.151,-0.28018,-0.417548,-1.74944,
2026_07_06_17_13_00.388,3.873,42.4,0,0.768,0,0,0,0, ,0,0,0,0,0, ,157.9,0.1,-988.2,-0.3,-1.2,-1.9,25,157.184,-0.13285,-987.145,-0.275294,-0.446947,-1.76166,
2026_07_06_17_13_00.408,3.873,42.4,0,0.767,0,0,0,0, ,0,0,0,0,0, ,155.2,-2.4,-986.2,-0.4,-1.2,-1.4,25,157.146,-0.194833,-987.148,-0.279846,-0.492837,-1.75485,
2026_07_06_17_13_00.427,3.873,42.4,0,0.768,0,0,0,0, ,0,0,0,0,0, ,155.1,-0.3,-990.8,-0.6,-0.7,-1.5,25,157.024,-0.265226,-987.23,-0.293262,-0.520695,-1.73628,
2026_07_06_17_13_00.448,3.873,42.4,0,0.769,0,0,0,0, ,0,0,0,0,0, ,158.2,-2.4,-986.2,-0.7,-0.2,-1.7,25,157.001,-0.331329,-987.308,-0.315,-0.516387,-1.72797,
2026_07_06_17_13_00.467,3.873,42.4,0,0.767,0,0,0,0, ,0,0,0,0,0, ,156.7,-1.9,-987,-0.4,-0.5,-1.7,25,157.028,-0.442155,-987.265,-0.329321,-0.506248,-1.72627,
2026_07_06_17_13_00.487,3.873,42.3,0,0.768,0,0,0,0, ,0,0,0,0,0, ,157.2,1.8,-988.2,-0.6,-0.9,-1.8,25,157.024,-0.418258,-987.285,-0.339722,-0.518055,-1.72771,
2026_07_06_17_13_00.506,3.873,42.4,0,0.768,0,0,0,0, ,0,0,0,0,0, ,158.8,-0.9,-985.1,-0.4,-0.6,-1.6,25,157.083,-0.365348,-987.246,-0.349488,-0.532189,-1.72603,
2026_07_06_17_13_00.527,3.873,42.4,0,0.77,0,0,0,0, ,0,0,0,0,0, ,156.4,1,-988.7,-0.2,-0.6,-1.5,25,157.115,-0.340038,-987.225,-0.346473,-0.536321,-1.7153,
2026_07_06_17_13_00.546,3.873,42.4,0,0.768,0,0,0,0, ,0,0,0,0,0, ,153.8,-1.8,-988,-0.2,0.1,-1.8,25,156.992,-0.343692,-987.294,-0.337547,-0.518873,-1.71132,
2026_07_06_17_13_00.566,3.873,42.4,0,0.767,0,0,0,0, ,0,0,0,0,0, ,158.6,0.9,-985.9,-0.6,-0.2,-1.6,25,156.944,-0.35017,-987.273,-0.341353,-0.490301,-1.71063,
2026_07_06_17_13_00.586,3.873,42.3,0,0.767,0,0,0,0, ,0,0,0,0,0, ,156.2,-0.1,-987.9,-0.5,-0.4,-1.7,25,156.971,-0.304457,-987.25,-0.354067,-0.478705,-1.70694,
2026_07_06_17_13_00.606,3.873,42.4,0,0.768,0,0,0,0, ,0,0,0,0,0, ,159.5,-0.8,-986,-0.7,-0.9,-1.5,25,157.025,-0.313326,-987.232,-0.369054,-0.489143,-1.70042,
2026_07_06_17_13_00.626,3.873,42.4,0,0.767,0,0,0,0, ,0,0,0,0,0, ,156.3,-1.5,-986.9,-0.4,-1,-1.5,25,157.078,-0.36431,-987.184,-0.38008,-0.517227,-1.68821,
2026_07_06_17_13_00.650,3.873,42.5,0,0.768,0,0,0,0, ,0,0,0,0,0, ,155.8,1.5,-989.8,-0.3,-0.7,-1.5,25,157.016,-0.34211,-987.255,-0.378247,-0.537505,-1.67674,
2026_07_06_17_13_00.665,3.873,42.4,0,0.767,0,0,0,0, ,0,0,0,0,0, ,156,-0.7,-987.5,-0.3,-0.5,-1.6,25,156.948,-0.296888,-987.34,-0.373479,-0.541313,-1.66901,
2026_07_06_17_13_00.686,3.873,42.3,0,0.768,0,0,0,0, ,0,0,0,0,0, ,156.8,0.7,-987.4,-0.1,-0.2,-1.8,25,156.914,-0.278796,-987.347,-0.362908,-0.529655,-1.6709,
2026_07_06_17_13_00.704,3.873,42.4,0,0.767,0,0,0,0, ,0,0,0,0,0, ,156.9,-0.8,-987.9,-0.2,-0.3,-1.9,25,156.91,-0.264854,-987.365,-0.349934,-0.512614,-1.68182,
2026_07_06_17_13_00.725,3.873,42.3,0,0.768,0,0,0,0, ,0,0,0,0,0, ,157.1,1.7,-988,-0.5,-0.8,-1.7,25,156.916,-0.221293,-987.401,-0.349938,-0.514892,-1.68902,
2026_07_06_17_13_00.744,3.873,42.3,0,0.769,0,0,0,0, ,0,0,0,0,0, ,157.1,-0.9,-990.4,-0.7,-0.8,-1.6,25,156.927,-0.183433,-987.511,-0.365176,-0.532266,-1.68664,
2026_07_06_17_13_00.764,3.873,42.4,0,0.768,0,0,0,0, ,0,0,0,0,0, ,154.9,-5.4,-987.4,-0.5,-0.4,-1.7,25,156.871,-0.364208,-987.595,-0.379485,-0.536393,-1.68441,
2026_07_06_17_13_00.784,3.873,42.3,0,0.768,0,0,0,0, ,0,0,0,0,0, ,158,1.2,-988,-0.5,-0.5,-1.5,25,156.845,-0.469983,-987.602,-0.386829,-0.531129,-1.67926,
2026_07_06_17_13_00.803,3.873,42.3,0,0.768,0,0,0,0, ,0,0,0,0,0, ,155.3,-2.4,-989.6,-0.3,-0.1,-1.8,25,156.833,-0.477906,-987.675,-0.387632,-0.517044,-1.67748,
2026_07_06_17_13_00.824,3.873,42.3,0,0.769,0,0,0,0, ,0,0,0,0,0, ,156.7,-2.9,-987.5,-0.5,-0.3,-2.2,25,156.782,-0.610268,-987.728,-0.388386,-0.497724,-1.69713,
2026_07_06_17_13_00.842,3.873,42.4,0,0.767,0,0,0,0, ,0,0,0,0,0, ,151.1,18,-994.2,-1.9,0.2,-4.2,25,156.607,-0.113001,-987.918,-0.437843,-0.470441,-1.78872,
2026_07_06_17_13_00.863,3.873,42.3,0,0.769,0,0,0,0, ,0,0,0,0,0, ,152.3,-0.4,-987.3,-0.8,-1.2,-1.2,25,156.308,0.430135,-988.091,-0.493428,-0.472242,-1.84425,
2026_07_06_17_13_00.883,3.873,42.4,0,0.771,0,0,0,0, ,0,0,0,0,0, ,155.8,0.7,-986.6,-0.9,-0.7,-1.7,25,156.17,0.413064,-988.021,-0.515156,-0.501356,-1.82022,
2026_07_06_17_13_00.902,3.873,42.3,0,0.768,0,0,0,0, ,0,0,0,0,0, ,156.4,0.3,-991,-0.9,-0.2,-2.2,25,156.166,0.418362,-988.069,-0.538608,-0.498226,-1.82813,
2026_07_06_17_13_00.925,3.873,42.4,0,0.768,0,0,0,0, ,0,0,0,0,0, ,157.5,0.4,-989.7,-0.5,0,-1.8,25,156.214,0.414196,-988.208,-0.548443,-0.473959,-1.8386,
2026_07_06_17_13_00.943,3.873,42.4,0,0.768,0,0,0,0, ,0,0,0,0,0, ,156.7,-0.4,-988.5,-0.3,0.3,-2.1,25,156.268,0.388956,-988.262,-0.539397,-0.435937,-1.84539,
2026_07_06_17_13_00.963,3.873,42.3,0,0.768,0,0,0,0, ,0,0,0,0,0, ,157.8,1,-984.8,-0.5,-0.2,-2.1,25,156.327,0.383535,-988.164,-0.530902,-0.406325,-1.86091,
2026_07_06_17_13_00.983,3.873,42.3,0,0.768,0,0,0,0, ,0,0,0,0,0, ,157.8,2.3,-987.6,-0.7,-0.8,-1.6,25,156.417,0.46071,-988.044,-0.535113,-0.412033,-1.86024,
2026_07_06_17_13_01.002,3.873,42.3,0,0.769,0,0,0,0, ,0,0,0,0,0, ,156,-1.7,-988,-0.7,-0.9,-1.7,25,156.447,0.450917,-988.029,-0.545161,-0.438722,-1.84743,
2026_07_06_17_13_01.021,3.873,42.3,0,0.769,0,0,0,0, ,0,0,0,0,0, ,156.6,0.1,-987,-0.7,-1.1,-1.6,25,156.438,0.374689,-987.997,-0.554596,-0.472925,-1.8354,
2026_07_06_17_13_01.041,3.873,42.3,0,0.769,0,0,0,0, ,0,0,0,0,0, ,155.7,0.3,-989.5,-0.3,-0.8,-1.8,25,156.42,0.364044,-988.013,-0.551269,-0.501997,-1.82715,
2026_07_06_17_13_01.061,3.873,42.3,0,0.767,0,0,0,0, ,0,0,0,0,0, ,154.6,1.2,-987.9,-0.4,-0.4,-1.6,25,156.343,0.387563,-988.054,-0.539005,-0.507969,-1.8194,
2026_07_06_17_13_01.080,3.873,42.3,0,0.767,0,0,0,0, ,0,0,0,0,0, ,156.3,-2.9,-989.5,-0.5,-0.1,-1.8,25,156.288,0.312149,-988.094,-0.533581,-0.492249,-1.81212,
2026_07_06_17_13_01.101,3.873,42.3,0,0.769,0,0,0,0, ,0,0,0,0,0, ,156.1,-0.9,-987.3,-0.5,-0.1,-1.8,25,156.283,0.177346,-988.112,-0.531535,-0.468346,-1.81139,
2026_07_06_17_13_01.121,3.873,42.4,0,0.767,0,0,0,0, ,0,0,0,0,0, ,158.6,1.7,-986.5,-0.5,-0.3,-1.7,25,156.348,0.190914,-988.039,-0.529613,-0.451994,-1.80765,
2026_07_06_17_13_01.141,3.873,42.3,0,0.767,0,0,0,0, ,0,0,0,0,0, ,157.8,1.8,-988.6,-0.6,-0.6,-1.5,25,156.461,0.285921,-988.009,-0.530855,-0.451872,-1.79499,
2026_07_06_17_13_01.160,3.873,42.2,0,0.767,0,0,0,0, ,0,0,0,0,0, ,157.7,0.8,-985.8,-0.6,-0.7,-1.6,25,156.539,0.347717,-987.959,-0.535069,-0.463946,-1.78006,
2026_07_06_17_13_01.180,3.873,42.3,0,0.769,0,0,0,0, ,0,0,0,0,0, ,157.1,1.5,-988.2,-0.6,-1.2,-1.7,25,156.592,0.396606,-987.901,-0.539025,-0.493565,-1.77214,
2026_07_06_17_13_01.199,3.873,42.2,0,0.768,0,0,0,0, ,0,0,0,0,0, ,154.4,0.1,-986.9,-0.4,-0.9,-1.9,25,156.541,0.421188,-987.88,-0.536647,-0.527472,-1.77383,
2026_07_06_17_13_01.220,3.873,42.3,0,0.768,0,0,0,0, ,0,0,0,0,0, ,159.6,4.1,-989.1,-0.5,-0.5,-2,25,156.569,0.52349,-987.887,-0.531367,-0.537986,-1.78457,
2026_07_06_17_13_01.239,3.873,42.3,0,0.767,0,0,0,0, ,0,0,0,0,0, ,156.8,0.2,-989.6,-0.6,0.1,-1.7,25,156.668,0.622606,-987.976,-0.532503,-0.51739,-1.78856,
2026_07_06_17_13_01.266,3.873,42.3,0,0.768,0,0,0,0, ,0,0,0,0,0, ,156,-0.1,-989,-0.8,0,-1.6,25,156.652,0.587712,-988.057,-0.54271,-0.482814,-1.78011,
2026_07_06_17_13_01.279,3.873,42.3,0,0.768,0,0,0,0, ,0,0,0,0,0, ,157.7,1.3,-985.5,-0.6,0,-1.7,25,156.664,0.588461,-988.008,-0.552294,-0.453393,-1.77219,
2026_07_06_17_13_01.297,3.873,42.3,0,0.768,0,0,0,0, ,0,0,0,0,0, ,159.9,3.4,-986.3,-0.2,-0.5,-2,25,156.794,0.695805,-987.879,-0.543014,-0.440999,-1.77693,
2026_07_06_17_13_01.318,3.873,42.2,0,0.769,0,0,0,0, ,0,0,0,0,0, ,156.7,-0.7,-989.3,-0.1,-1,-2,25,156.886,0.73567,-987.874,-0.519065,-0.459828,-1.79052,
2026_07_06_17_13_01.338,3.873,42.2,0,0.768,0,0,0,0, ,0,0,0,0,0, ,156.4,-0.3,-987,-0.4,-0.9,-1.9,25,156.865,0.660371,-987.891,-0.502669,-0.489698,-1.80024,
2026_07_06_17_13_01.358,3.873,42.3,0,0.768,0,0,0,0, ,0,0,0,0,0, ,155.6,-2,-990.9,-0.5,-0.3,-1.8,25,156.813,0.550052,-987.956,-0.499459,-0.49642,-1.80327,
2026_07_06_17_13_01.378,3.873,42.2,0,0.768,0,0,0,0, ,0,0,0,0,0, ,155.8,2.3,-985.9,-0.6,-0.4,-1.7,25,156.745,0.525674,-987.983,-0.502539,-0.487497,-1.80002,
2026_07_06_17_13_01.397,3.873,42.3,0,0.769,0,0,0,0, ,0,0,0,0,0, ,157.7,2.5,-985.4,-0.5,-0.5,-1.7,25,156.745,0.63989,-987.841,-0.505431,-0.485212,-1.79393,
2026_07_06_17_13_01.417,3.873,42.2,0,0.769,0,0,0,0, ,0,0,0,0,0, ,155,0.9,-986.2,-0.3,-0.6,-1.8,25,156.721,0.704491,-987.716,-0.499006,-0.48916,-1.79125,
2026_07_06_17_13_01.444,3.873,42.2,0,0.767,0,0,0,0, ,0,0,0,0,0, ,154.5,0.2,-987.3,-0.3,-0.7,-1.8,25,156.601,0.695077,-987.657,-0.486879,-0.498962,-1.79179,
2026_07_06_17_13_01.457,3.873,42.3,0,0.768,0,0,0,0, ,0,0,0,0,0, ,157.7,2,-987.4,-0.4,-0.6,-1.9,25,156.57,0.719752,-987.639,-0.478538,-0.508165,-1.79533,
2026_07_06_17_13_01.477,3.873,42.2,0,0.769,0,0,0,0, ,0,0,0,0,0, ,156.3,-0.1,-988.8,-0.3,-0.7,-1.9,25,156.597,0.733782,-987.667,-0.470706,-0.516808,-1.80171,
2026_07_06_17_13_01.497,3.873,42.3,0,0.769,0,0,0,0, ,0,0,0,0,0, ,154.1,-0.4,-988.6,-0.3,-0.4,-1.9,25,156.511,0.673833,-987.73,-0.460303,-0.518831,-1.8077,
2026_07_06_17_13_01.516,3.873,42.2,0,0.767,0,0,0,0, ,0,0,0,0,0, ,155.8,-3,-988.5,-0.5,-0.1,-2,25,156.416,0.529178,-987.78,-0.456628,-0.502449,-1.81637,
2026_07_06_17_13_01.538,3.873,42.3,0,0.769,0,0,0,0, ,0,0,0,0,0, ,157.8,0.4,-987.4,-0.7,-0.4,-1.8,25,156.44,0.417712,-987.79,-0.465365,-0.487066,-1.82147,
2026_07_06_17_13_01.555,3.873,42.4,0,0.768,0,0,0,0, ,0,0,0,0,0, ,157.5,-1,-986.6,-0.7,-0.5,-1.4,25,156.513,0.373977,-987.742,-0.479663,-0.484807,-1.80797,
2026_07_06_17_13_01.577,3.873,42.2,0,0.768,0,0,0,0, ,0,0,0,0,0, ,157.8,4,-986.9,-0.3,-0.3,-1.6,25,156.583,0.442594,-987.681,-0.480902,-0.479639,-1.78921,
2026_07_06_17_13_01.596,3.873,42.3,0,0.768,0,0,0,0, ,0,0,0,0,0, ,155.3,0.3,-985.7,-0.2,-0.2,-1.8,25,156.581,0.546639,-987.597,-0.466832,-0.465645,-1.78377,
2026_07_06_17_13_01.622,3.873,42,0,0.769,0,0,0,0, ,0,0,0,0,0, ,156.3,2.3,-986.3,-0.4,-0.6,-1.9,25,156.533,0.592547,-987.5,-0.456666,-0.461645,-1.78781,
2026_07_06_17_13_01.635,3.873,42.3,0,0.767,0,0,0,0, ,0,0,0,0,0, ,158.2,-0.8,-988.1,-0.5,-0.4,-2,25,156.577,0.602141,-987.482,-0.456259,-0.463982,-1.79769,
2026_07_06_17_13_01.656,3.873,42.2,0,0.768,0,0,0,0, ,0,0,0,0,0, ,157.3,-0.9,-989,-0.9,-0.8,-1.6,25,156.648,0.513652,-987.547,-0.471112,-0.472271,-1.79783,
2026_07_06_17_13_01.676,3.873,42.2,0,0.768,0,0,0,0, ,0,0,0,0,0, ,155.1,-0.4,-987.4,-0.7,-0.3,-1.7,25,156.621,0.442742,-987.587,-0.491154,-0.477008,-1.78882,
2026_07_06_17_13_01.694,3.873,42.2,0,0.768,0,0,0,0, ,0,0,0,0,0, ,157.7,2.1,-986.5,-0.8,-0.7,-1.5,25,156.608,0.467559,-987.548,-0.506927,-0.478409,-1.77732,
2026_07_06_17_13_01.714,3.873,42.2,0,0.768,0,0,0,0, ,0,0,0,0,0, ,158.3,4.1,-984.2,-0.5,-0.8,-1.6,25,156.692,0.627973,-987.414,-0.515646,-0.494959,-1.76346,
2026_07_06_17_13_01.734,3.873,42.2,0,0.766,0,0,0,0, ,0,0,0,0,0, ,156.3,2.6,-990.2,-0.4,-1.2,-1.8,25,156.729,0.793847,-987.401,-0.511646,-0.525735,-1.7596,
2026_07_06_17_13_01.754,3.873,42.2,0,0.768,0,0,0,0, ,0,0,0,0,0, ,155.6,-0.2,-988.5,-0.6,-1.1,-1.7,25,156.682,0.818597,-987.52,-0.510936,-0.563776,-1.75901,
2026_07_06_17_13_01.775,3.873,42.3,0,0.768,0,0,0,0, ,0,0,0,0,0, ,154.1,-1.3,-994,-0.9,-0.7,-1.6,25,156.57,0.72301,-987.747,-0.525504,-0.584264,-1.75237,
2026_07_06_17_13_01.794,3.873,42.2,0,0.768,0,0,0,0, ,0,0,0,0,0, ,154.6,-1.7,-985.1,-0.6,0,-1.8,25,156.435,0.587546,-987.857,-0.539184,-0.569989,-1.74918,
2026_07_06_17_13_01.813,3.873,42.3,0,0.77,0,0,0,0, ,0,0,0,0,0, ,156.9,1.9,-987.6,-0.3,0,-2,25,156.393,0.557836,-987.765,-0.533749,-0.535255,-1.75837,
2026_07_06_17_13_01.833,3.873,42,0,0.768,0,0,0,0, ,0,0,0,0,0, ,158,5.8,-986,-0.3,-0.4,-1.8,25,156.458,0.758452,-987.706,-0.519505,-0.514826,-1.767,
2026_07_06_17_13_01.853,3.873,42.2,0,0.768,0,0,0,0, ,0,0,0,0,0, ,156.9,0.8,-988.8,-0.6,-0.6,-1.8,25,156.518,0.913328,-987.688,-0.51527,-0.513922,-1.76901,
2026_07_06_17_13_01.872,3.873,42.3,0,0.768,0,0,0,0, ,0,0,0,0,0, ,156.3,0.1,-986.3,-0.7,-0.8,-1.4,25,156.523,0.885094,-987.679,-0.52348,-0.525261,-1.75871,
2026_07_06_17_13_01.893,3.873,42.2,0,0.768,0,0,0,0, ,0,0,0,0,0, ,155.1,0.9,-989.5,-0.8,-0.9,-1.5,25,156.473,0.861627,-987.693,-0.537284,-0.54505,-1.7399,
2026_07_06_17_13_01.912,3.873,42.3,0,0.769,0,0,0,0, ,0,0,0,0,0, ,155.2,2.6,-989.8,-0.6,-0.6,-1.8,25,156.392,0.915762,-987.812,-0.547199,-0.557539,-1.73442,
2026_07_06_17_13_01.932,3.873,42.3,0,0.768,0,0,0,0, ,0,0,0,0,0, ,155.1,2.3,-986.8,-0.7,0,-2,25,156.317,1.00925,-987.842,-0.553463,-0.541845,-1.74451,
2026_07_06_17_13_01.959,3.873,42.2,0,0.768,0,0,0,0, ,0,0,0,0,0, ,155.6,0.8,-989,-0.7,0,-2,25,156.258,1.04221,-987.845,-0.562393,-0.508827,-1.76008,
2026_07_06_17_13_01.972,3.873,42.2,0,0.769,0,0,0,0, ,0,0,0,0,0, ,154.7,-1.2,-987.9,-0.7,0.1,-1.8,25,156.19,0.96651,-987.882,-0.570778,-0.474773,-1.76861,
2026_07_06_17_13_01.991,3.873,42.2,0,0.768,0,0,0,0, ,0,0,0,0,0, ,155.8,1.3,-985.5,-0.8,0.2,-1.9,25,156.133,0.91066,-987.81,-0.5817,-0.436701,-1.77357,
2026_07_06_17_13_02.012,3.873,42,0,0.768,0,0,0,0, ,0,0,0,0,0, ,157.7,4.3,-986.9,-1,0,-2.2,25,156.171,1.02579,-987.712,-0.601096,-0.403996,-1.79041,
2026_07_06_17_13_02.031,3.873,42.2,0,0.767,0,0,0,0, ,0,0,0,0,0, ,160,5.9,-985.4,-1,-1,-1.7,25,156.334,1.27406,-987.617,-0.625404,-0.409846,-1.80014,
2026_07_06_17_13_02.050,3.873,42.2,0,0.768,0,0,0,0, ,0,0,0,0,0, ,161.1,6.1,-984.6,-0.6,-3,-0.2,25,156.591,1.56205,-987.457,-0.636044,-0.506746,-1.74833,
2026_07_06_17_13_02.071,3.873,42.2,0,0.769,0,0,0,0, ,0,0,0,0,0, ,144.4,-5.4,-998.7,-1.1,-1.3,-0.6,25,156.357,1.48819,-987.713,-0.649082,-0.606882,-1.66617,
2026_07_06_17_13_02.090,3.873,42.2,0,0.768,0,0,0,0, ,0,0,0,0,0, ,144.2,-6.7,-997,-2.3,2.1,-1.6,25,155.622,1.02883,-988.331,-0.713122,-0.545525,-1.63167,
2026_07_06_17_13_02.110,3.873,42,0,0.769,0,0,0,0, ,0,0,0,0,0, ,158.8,-2.1,-992.9,-2.5,3.6,-2.4,25,155.371,0.698013,-988.734,-0.815916,-0.33861,-1.65411,
2026_07_06_17_13_02.130,3.873,42.2,0,0.767,0,0,0,0, ,0,0,0,0,0, ,158.2,1.7,-989,-2,3.4,-2.3,25,155.561,0.64329,-988.869,-0.903306,-0.104695,-1.69652,
2026_07_06_17_13_02.150,3.873,42.2,0,0.768,0,0,0,0, ,0,0,0,0,0, ,163,5.3,-987.1,-1.4,0.4,-1.9,25,155.869,0.817371,-988.819,-0.951854,0.0174661,-1.7211,
2026_07_06_17_13_02.169,3.873,42.2,0,0.768,0,0,0,0, ,0,0,0,0,0, ,156.2,3,-984.8,-0.3,-0.8,-1.8,25,156.096,1.02045,-988.644,-0.945648,0.00421427,-1.72896,
2026_07_06_17_13_02.190,3.873,42.2,0,0.767,0,0,0,0, ,0,0,0,0,0, ,163,11.7,-976.1,0,-1.4,-2.6,25,156.309,1.40616,-988.145,-0.897163,-0.0630738,-1.75766,
2026_07_06_17_13_02.209,3.873,42.3,0,0.768,0,0,0,0, ,0,0,0,0,0, ,159.9,26.7,-982.4,2.4,-1.5,-0.5,25,156.623,2.49047,-987.603,-0.769367,-0.14759,-1.74501,
2026_07_06_17_13_02.229,3.873,42,0,0.768,0,0,0,0, ,0,0,0,0,0, ,153.4,-1.3,-991.6,1.3,-2.9,-0.2,25,156.624,3.11261,-987.566,-0.609749,-0.272658,-1.66,
2026_07_06_17_13_02.249,3.873,41.9,0,0.769,0,0,0,0, ,0,0,0,0,0, ,154.9,0.2,-989.7,0.4,-1.9,-1.2,25,156.474,2.88942,-987.754,-0.520796,-0.402293,-1.6015,
2026_07_06_17_13_02.269,3.873,42,0,0.768,0,0,0,0, ,0,0,0,0,0, ,157.1,2.1,-992.1,-0.4,-0.2,-2.6,25,156.445,2.78343,-987.946,-0.48906,-0.441763,-1.61969,
2026_07_06_17_13_02.289,3.873,42,0,0.768,0,0,0,0, ,0,0,0,0,0, ,157.9,-0.9,-984.8,-0.8,-0.7,-2.5,25,156.509,2.65038,-987.976,-0.49582,-0.442265,-1.67638,
2026_07_06_17_13_02.309,3.873,42.2,0,0.769,0,0,0,0, ,0,0,0,0,0, ,169.1,6.2,-981.5,-0.8,-2,-2.4,25,156.935,2.65035,-987.682,-0.514356,-0.49758,-1.72352,
2026_07_06_17_13_02.328,3.873,42,0,0.769,0,0,0,0, ,0,0,0,0,0, ,160.1,3.5,-983.1,-0.3,-3.3,-1.8,25,157.402,2.78439,-987.354,-0.516528,-0.628743,-1.74646,
2026_07_06_17_13_02.348,3.873,42,0,0.769,0,0,0,0, ,0,0,0,0,0, ,149.1,-0.8,-991.4,-0.2,-2.7,-2,25,157.231,2.69699,-987.348,-0.500287,-0.773241,-1.75582,
2026_07_06_17_13_02.368,3.873,42.2,0,0.768,0,0,0,0, ,0,0,0,0,0, ,147.5,0.7,-993.5,-0.6,-0.6,-2.7,25,156.687,2.52959,-987.659,-0.494175,-0.826669,-1.79203,
2026_07_06_17_13_02.387,3.873,42,0,0.768,0,0,0,0, ,0,0,0,0,0, ,150.3,0.8,-991.5,-0.9,0.5,-3.1,25,156.213,2.42115,-987.954,-0.509765,-0.779341,-1.85955,
2026_07_06_17_13_02.408,3.873,42.3,0,0.767,0,0,0,0, ,0,0,0,0,0, ,157.3,4.2,-987.3,-0.9,0.6,-2.9,25,156.066,2.42595,-988.042,-0.533545,-0.698334,-1.92904,
2026_07_06_17_13_02.427,3.873,42.2,0,0.767,0,0,0,0, ,0,0,0,0,0, ,156,2.9,-984.7,-1.2,0.3,-1.8,25,156.101,2.49445,-987.918,-0.565016,-0.628357,-1.95469,
2026_07_06_17_13_02.447,3.873,42,0,0.768,0,0,0,0, ,0,0,0,0,0, ,157.4,3.6,-984.3,-1.4,-0.4,-1.6,25,156.138,2.54049,-987.709,-0.609804,-0.593114,-1.93917,
2026_07_06_17_13_02.467,3.873,42,0,0.769,0,0,0,0, ,0,0,0,0,0, ,157.2,1.4,-987.1,-1,-0.4,-1.8,25,156.208,2.53802,-987.587,-0.645769,-0.581346,-1.9246,
2026_07_06_17_13_02.485,3.873,41.9,0,0.768,0,0,0,0, ,0,0,0,0,0, ,154.2,3.6,-989,-0.6,0,-2.3,25,156.178,2.53571,-987.615,-0.655168,-0.558108,-1.93224,
2026_07_06_17_13_02.506,3.873,42,0,0.769,0,0,0,0, ,0,0,0,0,0, ,156,2.5,-989,-0.3,0.5,-2.4,25,156.112,2.56705,-987.699,-0.642665,-0.508864,-1.9577,
2026_07_06_17_13_02.526,3.873,42.2,0,0.767,0,0,0,0, ,0,0,0,0,0, ,157.2,5.2,-987,-0.6,0,-1.9,25,156.142,2.64523,-987.718,-0.630925,-0.46262,-1.96942,
2026_07_06_17_13_02.546,3.873,42,0,0.768,0,0,0,0, ,0,0,0,0,0, ,156,3.6,-987.9,-0.7,-0.3,-1.9,25,156.17,2.75216,-987.701,-0.632087,-0.44357,-1.96519,
2026_07_06_17_13_02.566,3.873,42,0,0.768,0,0,0,0, ,0,0,0,0,0, ,158.2,4.5,-987.4,-0.7,-0.6,-1.5,25,156.226,2.83124,-987.698,-0.636226,-0.443962,-1.94903,
2026_07_06_17_13_02.586,3.873,42.2,0,0.768,0,0,0,0, ,0,0,0,0,0, ,154.4,3.5,-991.2,-0.6,0.1,-1.6,25,156.231,2.90247,-987.796,-0.637065,-0.432142,-1.92471,
2026_07_06_17_13_02.605,3.873,42,0,0.768,0,0,0,0, ,0,0,0,0,0, ,163.8,4.5,-993.7,-0.4,1.6,-1.6,25,156.406,2.96935,-988.08,-0.628713,-0.354012,-1.90492,
2026_07_06_17_13_02.625,3.873,42.2,0,0.768,0,0,0,0, ,0,0,0,0,0, ,148.9,0.1,-1017.3,0.5,10.3,-1.7,25,156.402,2.92856,-989.141,-0.587354,0.0301389,-1.88939,
2026_07_06_17_13_02.645,3.873,42,0,0.769,0,0,0,0, ,0,0,0,0,0, ,122.8,-14.5,-1032.1,-0.1,21.1,-3.4,25,155.15,2.31135,-991.308,-0.539374,0.985021,-1.92965,
2026_07_06_17_13_02.669,3.873,42,0,0.769,0,0,0,0, ,0,0,0,0,0, ,157.7,-52.4,-1044,-14.6,31.1,-12.4,25,154.242,0.132142,-994.156,-0.954397,2.51546,-2.29346,
2026_07_06_17_13_02.685,3.873,42,0,0.767,0,0,0,0, ,0,0,0,0,0, ,194.4,12.3,-1049.4,-11.3,47.3,-12.3,25,155.571,-1.09771,-997.358,-1.68538,4.75093,-2.90628,
2026_07_06_17_13_02.704,3.873,42,0,0.768,0,0,0,0, ,0,0,0,0,0, ,245.1,-21.9,-1075.5,-3.6,64.7,-4.4,25,159.482,-1.32332,-1001.32,-2.03666,7.87392,-3.23801,
2026_07_06_17_13_02.724,3.873,41.9,0,0.768,0,0,0,0, ,0,0,0,0,0, ,203.4,-8.6,-1083.9,6.3,80.7,-11.9,25,163.429,-2.17197,-1006.1,-1.83029,11.8243,-3.53733,
2026_07_06_17_13_02.743,3.873,42,0,0.769,0,0,0,0, ,0,0,0,0,0, ,338.3,-3,-1138.3,2.2,103.2,-18.5,25,169.975,-2.39306,-1012.5,-1.45977,16.7069,-4.24803,
2026_07_06_17_13_02.763,3.873,42,0,0.769,0,0,0,0, ,0,0,0,0,0, ,381.3,36,-1135,1.8,130.1,-24.7,25,181.542,-1.24176,-1020.06,-1.24894,22.7972,-5.30541,
2026_07_06_17_13_02.784,3.873,42,0,0.769,0,0,0,0, ,0,0,0,0,0, ,472.2,50.6,-1113.2,10.5,155.9,-28.1,25,196.484,1.4725,-1026.4,-0.798066,30.1221,-6.59087,
2026_07_06_17_13_02.803,3.873,42,0,0.767,0,0,0,0, ,0,0,0,0,0, ,495.7,41.2,-1130.3,12.2,157.2,-26.2,25,214.002,4.1798,-1032.21,-0.0577932,37.8263,-7.84369,
2026_07_06_17_13_02.824,3.873,42,0,0.766,0,0,0,0, ,0,0,0,0,0, ,495.4,-16.3,-1076.9,18.7,143.4,-11.2,25,231.159,4.68377,-1036.56,0.887213,44.6801,-8.50524,
2026_07_06_17_13_02.843,3.873,42,0,0.767,0,0,0,0, ,0,0,0,0,0, ,536.2,8.9,-975.3,24.1,135.8,-4.5,25,248.504,4.17288,-1035.93,2.13721,50.4643,-8.46531,
2026_07_06_17_13_02.862,3.873,41.9,0,0.767,0,0,0,0, ,0,0,0,0,0, ,645.1,79.4,-930.5,8.7,162.8,-8.1,25,269.353,6.60899,-1030.87,3.00635,56.4871,-8.33337,
2026_07_06_17_13_02.883,3.873,41.9,0,0.769,0,0,0,0, ,0,0,0,0,0, ,688.1,72,-878.2,-12.4,214.4,-18.3,25,293.561,10.8192,-1023.16,2.71042,64.5377,-8.62993,
2026_07_06_17_13_02.902,3.873,42,0,0.768,0,0,0,0, ,0,0,0,0,0, ,638.1,51.2,-780.3,-30.7,245,-25.4,25,316.079,13.9137,-1011.34,1.23205,74.6023,-9.43552,
2026_07_06_17_13_02.923,3.873,42,0,0.768,0,0,0,0, ,0,0,0,0,0, ,616.9,48,-668.7,-33.1,241.5,-22,25,335.057,16.0883,-993.862,-0.786937,84.8793,-10.3048,
2026_07_06_17_13_02.942,3.873,42.2,0,0.767,0,0,0,0, ,0,0,0,0,0, ,632.2,39,-576.9,-33.6,227,-17.6,25,352.698,17.7587,-971.25,-2.77125,93.9816,-10.8834,
2026_07_06_17_13_02.962,3.873,41.9,0,0.767,0,0,0,0, ,0,0,0,0,0, ,644.2,54.8,-512.5,-35,220.6,-19.5,25,370.095,19.5345,-945.258,-4.69253,101.892,-11.3506,
2026_07_06_17_13_02.981,3.873,41.9,0,0.767,0,0,0,0, ,0,0,0,0,0, ,701.5,37.3,-460.3,-38.6,218.3,-18.2,25,388.545,21.1503,-917.296,-6.64908,109.056,-11.8076,
2026_07_06_17_13_03.000,3.873,41.9,0,0.769,0,0,0,0, ,0,0,0,0,0, ,731.5,39.7,-410.1,-39.5,206.2,-18.3,25,408.529,22.2075,-887.918,-8.62351,115.344,-12.2001,
2026_07_06_17_13_03.021,3.873,41.9,0,0.768,0,0,0,0, ,0,0,0,0,0, ,785.7,48.4,-368,-39.7,196.4,-23.5,25,429.862,23.5386,-857.518,-10.5111,120.582,-12.7303,
2026_07_06_17_13_03.042,3.873,42,0,0.768,0,0,0,0, ,0,0,0,0,0, ,794,39,-316.1,-46.2,198.4,-33.3,25,451.799,24.7672,-826.107,-12.4879,125.263,-13.6852,
2026_07_06_17_13_03.061,3.873,41.9,0,0.767,0,0,0,0, ,0,0,0,0,0, ,811.5,61.5,-302.3,-53.6,206.3,-39.2,25,473.185,26.32,-794.608,-14.7677,129.961,-15.0602,
2026_07_06_17_13_03.080,3.873,41.9,0,0.769,0,0,0,0, ,0,0,0,0,0, ,785.1,46.7,-205.8,-60.8,207.6,-47.1,25,492.996,28.0129,-761.668,-17.3534,134.652,-16.7719,
2026_07_06_17_13_03.099,3.873,41.9,0,0.767,0,0,0,0, ,0,0,0,0,0, ,776.2,93,-98.1,-52.2,199.5,-56.6,25,510.525,30.5623,-724.513,-19.7389,138.851,-18.9095,
2026_07_06_17_13_03.120,3.873,41.9,0,0.768,0,0,0,0, ,0,0,0,0,0, ,807.4,144.7,-18.5,-52.9,181.8,-59.3,25,527.665,35.9423,-683.916,-21.7383,142.007,-21.2885,
2026_07_06_17_13_03.140,3.873,41.8,0,0.769,0,0,0,0, ,0,0,0,0,0, ,838.8,154.7,34,-53.1,161,-55.5,25,545.668,42.8744,-641.767,-23.6433,143.798,-23.4891,
2026_07_06_17_13_03.160,3.873,41.9,0,0.77,0,0,0,0, ,0,0,0,0,0, ,830.8,151.2,78.7,-50,147.7,-58.4,25,563.287,49.5822,-599.226,-25.3439,144.441,-25.5281,
2026_07_06_17_13_03.180,3.873,41.9,0,0.769,0,0,0,0, ,0,0,0,0,0, ,820.3,178.4,127.4,-44.4,134.9,-67.6,25,579.269,56.6033,-556.431,-26.6758,144.25,-27.8115,
2026_07_06_17_13_03.200,3.873,41.9,0,0.769,0,0,0,0, ,0,0,0,0,0, ,839.3,241.9,226,-40.8,112.7,-66.4,25,594.536,65.96,-511.756,-27.6461,143.004,-30.1996,
2026_07_06_17_13_03.219,3.873,41.9,0,0.767,0,0,0,0, ,0,0,0,0,0, ,874.6,306.7,260,-33.4,80.9,-50,25,610.527,78.6557,-465.763,-28.2222,140.188,-31.9059,
2026_07_06_17_13_03.238,3.873,41.9,0,0.769,0,0,0,0, ,0,0,0,0,0, ,880,291.1,268.3,-24,50.8,-33.8,25,626.783,92.0769,-421.284,-28.2513,135.658,-32.5149,
2026_07_06_17_13_03.259,3.873,41.9,0,0.767,0,0,0,0, ,0,0,0,0,0, ,869.8,268.6,286.6,-3.8,17.6,-20.9,25,641.903,103.519,-378.705,-27.3768,129.476,-32.2001,
2026_07_06_17_13_03.279,3.873,41.9,0,0.769,0,0,0,0, ,0,0,0,0,0, ,905,306.5,273,15.5,-20.2,-8.9,25,656.863,114.734,-338.577,-25.3521,121.507,-31.1459,
2026_07_06_17_13_03.298,3.873,41.9,0,0.769,0,0,0,0, ,0,0,0,0,0, ,949.9,317.9,257.5,22.8,-40.6,-0.7,25,673.352,126.767,-301.781,-22.6402,112.25,-29.5405,
2026_07_06_17_13_03.318,3.873,41.9,0,0.767,0,0,0,0, ,0,0,0,0,0, ,1003,336.3,221.4,17.3,-33.2,-4.7,25,691.822,138.975,-268.8,-20.0388,103.161,-27.9049,
2026_07_06_17_13_03.338,3.873,41.9,0,0.766,0,0,0,0, ,0,0,0,0,0, ,1038.4,354.8,209.4,5.2,-10.8,-15.4,25,711.863,151.563,-239.294,-18.1321,95.5339,-26.8168,
2026_07_06_17_13_03.358,3.873,42,0,0.767,0,0,0,0, ,0,0,0,0,0, ,1031.6,362.1,214.7,-4.4,5.3,-18.9,25,731.554,164.17,-211.79,-17.0028,89.5448,-26.2278,
2026_07_06_17_13_03.378,3.873,41.9,0,0.768,0,0,0,0, ,0,0,0,0,0, ,992.7,363.5,233.1,-6,5.5,-13.9,25,748.653,176.274,-185.24,-16.2836,84.4172,-25.6289,
2026_07_06_17_13_03.398,3.873,41.9,0,0.769,0,0,0,0, ,0,0,0,0,0, ,959.5,345.4,226.6,-4.8,-4.7,-8,25,762.513,187.132,-159.946,-15.6204,79.2974,-24.7344,
2026_07_06_17_13_03.417,3.873,41.8,0,0.767,0,0,0,0, ,0,0,0,0,0, ,950.9,328.2,210.3,-0.7,-14.4,-4.1,25,774.255,196.252,-136.887,-14.8361,73.8833,-23.5958,
2026_07_06_17_13_03.437,3.873,41.9,0,0.767,0,0,0,0, ,0,0,0,0,0, ,940.5,317.8,184.9,1.6,-15.9,-1,25,784.702,203.976,-116.505,-13.9046,68.4578,-22.3133,
2026_07_06_17_13_03.456,3.873,41.9,0,0.769,0,0,0,0, ,0,0,0,0,0, ,932.9,313.2,171.7,2.8,-11.6,0.6,25,793.964,210.772,-98.5399,-12.9232,63.4483,-20.9658,
2026_07_06_17_13_03.476,3.873,41.9,0,0.769,0,0,0,0, ,0,0,0,0,0, ,929.8,321.1,172.7,2,-4.7,0,25,802.336,217.254,-82.0417,-11.9894,59.0852,-19.6699,
2026_07_06_17_13_03.496,3.873,41.8,0,0.769,0,0,0,0, ,0,0,0,0,0, ,916.8,322.9,182.8,-0.7,-2.8,-0.9,25,809.708,223.637,-66.2107,-11.2192,55.2562,-18.4987,
2026_07_06_17_13_03.515,3.873,41.9,0,0.769,0,0,0,0, ,0,0,0,0,0, ,907.8,309,185.1,-4,-4.2,-2.3,25,815.959,229.262,-50.9665,-10.6788,51.6758,-17.4689,
2026_07_06_17_13_03.536,3.873,41.9,0,0.769,0,0,0,0, ,0,0,0,0,0, ,899.7,296.2,182.6,0,-9.5,-2.1,25,821.309,233.731,-36.6574,-10.1499,48.1093,-16.5385,
2026_07_06_17_13_03.555,3.873,42,0,0.767,0,0,0,0, ,0,0,0,0,0, ,909.3,302.3,183.4,5.1,-14.2,-1.5,25,826.379,237.724,-23.272,-9.376,44.4556,-15.6404,
2026_07_06_17_13_03.575,3.873,41.8,0,0.769,0,0,0,0, ,0,0,0,0,0, ,942.8,317.3,172.2,12.2,-22.1,-0.1,25,832.452,242.116,-11.0192,-8.27754,40.6405,-14.736,
2026_07_06_17_13_03.595,3.873,41.8,0,0.77,0,0,0,0, ,0,0,0,0,0, ,989,341.4,166.7,22.3,-39.5,8.5,25,840.584,247.432,-0.0218317,-6.72196,36.2871,-13.5821,
2026_07_06_17_13_03.615,3.873,41.9,0,0.769,0,0,0,0, ,0,0,0,0,0, ,989.2,342.2,159.4,30.9,-65.9,20.1,25,849.634,253.182,9.91536,-4.6914,30.8645,-11.883,
2026_07_06_17_13_03.635,3.873,41.9,0,0.769,0,0,0,0, ,0,0,0,0,0, ,968.5,316.4,140.5,43.5,-101.1,28.1,25,857.508,257.821,18.4487,-2.13864,23.8954,-9.69033,
2026_07_06_17_13_03.655,3.873,41.9,0,0.768,0,0,0,0, ,0,0,0,0,0, ,952.3,296.6,66.2,63.9,-145.4,35.2,25,863.778,260.787,23.6224,1.26402,14.9287,-7.17116,
2026_07_06_17_13_03.674,3.873,41.9,0,0.769,0,0,0,0, ,0,0,0,0,0, ,979.7,306.7,-46.2,92.1,-193.3,55.9,25,870.008,263.277,22.7923,5.94012,3.69925,-3.95846,
2026_07_06_17_13_03.693,3.873,41.8,0,0.77,0,0,0,0, ,0,0,0,0,0, ,981.5,289.9,-149.2,101.9,-223.6,84.2,25,876.747,265.412,15.4498,11.4891,-9.2286,0.55143,
2026_07_06_17_13_03.713,3.873,41.8,0,0.77,0,0,0,0, ,0,0,0,0,0, ,940.9,231.4,-192.1,97.8,-234.6,91.2,25,881.893,265.121,4.10932,16.8736,-22.627,5.86204,
2026_07_06_17_13_03.734,3.873,41.9,0,0.769,0,0,0,0, ,0,0,0,0,0, ,841.4,188.1,-203.6,81.6,-241,83.3,25,882.457,261.747,-8.19757,21.3114,-35.7391,10.8216,
2026_07_06_17_13_03.753,3.873,41.9,0,0.769,0,0,0,0, ,0,0,0,0,0, ,808.4,129.2,-295.8,80.6,-250.1,66.5,25,878.95,255.465,-22.9141,24.9548,-48.5245,14.7264,
2026_07_06_17_13_03.773,3.873,41.9,0,0.769,0,0,0,0, ,0,0,0,0,0, ,807.2,115.7,-369.5,76.4,-250.1,68.5,25,874.614,247.359,-41.7887,28.2177,-60.808,17.9423,
2026_07_06_17_13_03.799,3.873,41.9,0,0.769,0,0,0,0, ,0,0,0,0,0, ,721.3,56.7,-435.6,77.4,-249.3,78.5,25,867.889,237.538,-63.7725,31.1843,-72.3186,21.3278,
2026_07_06_17_13_03.814,3.873,41.9,0,0.767,0,0,0,0, ,0,0,0,0,0, ,665.4,-18.4,-520.3,78.2,-250.1,72.7,25,857.253,224.23,-89.0115,34.0249,-83.1278,24.635,
2026_07_06_17_13_03.833,3.873,41.9,0,0.769,0,0,0,0, ,0,0,0,0,0, ,623,-69.2,-557.4,80.6,-241.4,56.2,25,844.27,207.897,-116.424,36.79,-93.0376,27.0613,
2026_07_06_17_13_03.852,3.873,41.9,0,0.767,0,0,0,0, ,0,0,0,0,0, ,593,-60.5,-608.5,75.7,-229.3,43.6,25,829.872,191.277,-144.852,39.3104,-101.71,28.453,
2026_07_06_17_13_03.873,3.873,41.9,0,0.769,0,0,0,0, ,0,0,0,0,0, ,573.4,-71,-702.3,66.3,-219.9,38.6,25,814.841,175.614,-175.964,41.2414,-109.198,29.2237,
2026_07_06_17_13_03.892,3.873,41.8,0,0.769,0,0,0,0, ,0,0,0,0,0, ,540.7,-95.8,-807.6,55.2,-203.7,38,25,799.132,159.831,-211.246,42.4302,-115.451,29.7768,
2026_07_06_17_13_03.912,3.873,41.9,0,0.769,0,0,0,0, ,0,0,0,0,0, ,487.9,-158,-822.7,46.8,-194,32.4,25,781.775,142.358,-248.046,42.9525,-120.533,30.1072,
2026_07_06_17_13_03.932,3.873,41.9,0,0.769,0,0,0,0, ,0,0,0,0,0, ,445.3,-167.9,-854.6,42.8,-187.4,27.2,25,762.569,123.753,-284.036,43.065,-124.809,30.0885,
2026_07_06_17_13_03.952,3.873,41.8,0,0.766,0,0,0,0, ,0,0,0,0,0, ,433.7,-92.7,-908.4,33.4,-174.1,28.3,25,742.882,108.272,-320.444,42.7625,-128.218,29.946,
2026_07_06_17_13_03.972,3.873,41.8,0,0.769,0,0,0,0, ,0,0,0,0,0, ,431.7,-106.5,-940.4,13.5,-147.8,29.7,25,723.98,95.6046,-357.248,41.5856,-130.212,29.8884,
2026_07_06_17_13_03.990,3.873,41.8,0,0.77,0,0,0,0, ,0,0,0,0,0, ,378.7,-149.9,-955.5,4.7,-116.2,23.7,25,704.554,81.9666,-393.244,39.606,-130.321,29.6941,
2026_07_06_17_13_04.011,3.873,41.8,0,0.767,0,0,0,0, ,0,0,0,0,0, ,302.9,-171.8,-961.6,5,-105.6,17.1,25,682.388,67.1699,-427.692,37.4881,-129.138,29.1277,
2026_07_06_17_13_04.031,3.873,41.8,0,0.769,0,0,0,0, ,0,0,0,0,0, ,244.7,-159.7,-943.2,10.2,-108.7,17.2,25,657.49,52.9764,-459.666,35.6668,-127.798,28.3978,
2026_07_06_17_13_04.051,3.873,41.8,0,0.767,0,0,0,0, ,0,0,0,0,0, ,239.7,-116.4,-969.1,12,-114.6,29.6,25,632.183,41.3357,-489.921,34.1698,-126.814,28.0933,
2026_07_06_17_13_04.070,3.873,41.8,0,0.767,0,0,0,0, ,0,0,0,0,0, ,242.7,-138.4,-991.9,6.3,-107.6,33.1,25,608.357,31.0534,-519.816,32.6451,-125.856,28.2917,
2026_07_06_17_13_04.090,3.873,41.9,0,0.767,0,0,0,0, ,0,0,0,0,0, ,222.7,-171.2,-1021.1,-4,-82.6,23.5,25,585.466,19.7279,-549.473,30.7259,-123.982,28.2922,
2026_07_06_17_13_04.110,3.873,41.8,0,0.769,0,0,0,0, ,0,0,0,0,0, ,174.4,-184.3,-1033.2,-8.3,-59.9,14.1,25,561.888,7.69412,-578.581,28.4788,-120.769,27.7138,
2026_07_06_17_13_04.129,3.873,41.8,0,0.769,0,0,0,0, ,0,0,0,0,0, ,110.2,-174.1,-1002.4,-9.1,-54.1,12,25,536.32,-3.69474,-605.346,26.2132,-116.883,26.8202,
2026_07_06_17_13_04.150,3.873,41.8,0,0.769,0,0,0,0, ,0,0,0,0,0, ,100.8,-146.7,-991.8,-7.6,-56.8,20.9,25,510.066,-13.244,-629.219,24.107,-113.139,26.1883,
2026_07_06_17_13_04.176,3.873,41.8,0,0.77,0,0,0,0, ,0,0,0,0,0, ,100.5,-158.9,-989.7,-8.9,-56.8,22.9,25,485.118,-21.7482,-651.249,22.1352,-109.706,25.927,
2026_07_06_17_13_04.189,3.873,41.8,0,0.766,0,0,0,0, ,0,0,0,0,0, ,67.1,-166.7,-997.6,-11.3,-49,19.4,25,460.662,-30.3435,-672.115,20.1709,-106.244,25.6359,
2026_07_06_17_13_04.209,3.873,41.9,0,0.767,0,0,0,0, ,0,0,0,0,0, ,16.7,-172.1,-998.7,-18,-42.5,11.2,25,435.144,-38.8173,-691.982,18.049,-102.558,25.006,
2026_07_06_17_13_04.228,3.873,41.8,0,0.769,0,0,0,0, ,0,0,0,0,0, ,5,-159.9,-1007.2,-22.6,-37,3.1,25,409.289,-46.5675,-710.932,15.7121,-98.7307,23.9179,
2026_07_06_17_13_04.248,3.873,41.8,0,0.769,0,0,0,0, ,0,0,0,0,0, ,42.9,-125.3,-1027.4,-23.8,-27.8,8.1,25,385.807,-52.4194,-729.601,13.3409,-94.6886,22.8017,
2026_07_06_17_13_04.268,3.873,41.7,0,0.77,0,0,0,0, ,0,0,0,0,0, ,39.7,-131.4,-1018.6,-23.1,-16.6,10.2,25,364.814,-57.0465,-747.48,11.099,-90.2714,21.9698,
2026_07_06_17_13_04.288,3.873,41.7,0,0.767,0,0,0,0, ,0,0,0,0,0, ,-12.5,-147.2,-1005.4,-22.9,-12,10.2,25,343.412,-62.0588,-763.599,9.02105,-85.6419,21.2526,
2026_07_06_17_13_04.308,3.873,41.8,0,0.767,0,0,0,0, ,0,0,0,0,0, ,-38,-150.6,-988.5,-23.1,-8.1,5.2,25,320.946,-67.3507,-777.819,7.06976,-81.0355,20.4267,
2026_07_06_17_13_04.328,3.873,41.7,0,0.767,0,0,0,0, ,0,0,0,0,0, ,-21.3,-124.3,-965.8,-25.7,-4.4,1.3,25,299.582,-71.6223,-789.966,5.15208,-76.4782,19.38,
2026_07_06_17_13_04.348,3.873,41.8,0,0.767,0,0,0,0, ,0,0,0,0,0, ,26.7,-97,-1339.5,-22.6,2.9,4.1,25,281.491,-74.0006,-812.067,3.36648,-71.8635,18.3636,
2026_07_06_17_13_04.369,3.873,41.8,0,0.769,0,0,0,0, ,0,0,0,0,0, ,33,-245.8,-1121.4,20.3,34.5,-2.5,25,266.156,-79.9359,-837.562,3.09126,-66.3448,17.2933,
2026_07_06_17_13_04.386,3.873,41.8,0,0.769,0,0,0,0, ,0,0,0,0,0, ,-87,-36.6,-1005.8,4.2,38.5,1.6,25,248.292,-83.6692,-851.336,3.64937,-60.0777,16.2121,
2026_07_06_17_13_04.408,3.873,41.9,0,0.767,0,0,0,0, ,0,0,0,0,0, ,-113.6,-125.6,-970.9,-10.4,30.1,-8.2,25,227.05,-83.5126,-859.686,3.23808,-54.3266,15.023,
2026_07_06_17_13_04.426,3.873,41.8,0,0.767,0,0,0,0, ,0,0,0,0,0, ,-35.8,-142.9,-1012.9,-19,40.4,-19.4,25,208.662,-86.6044,-867.742,2.14498,-48.868,13.2666,
2026_07_06_17_13_04.447,3.873,41.8,0,0.767,0,0,0,0, ,0,0,0,0,0, ,10.6,-121.7,-985.4,-22.8,30.2,-19.7,25,195.179,-89.389,-875.75,0.740674,-43.739,11.2669,
2026_07_06_17_13_04.467,3.873,41.8,0,0.769,0,0,0,0, ,0,0,0,0,0, ,86.3,-66,-987,-17.1,21.5,-16.4,25,186.237,-89.6608,-882.481,-0.520163,-39.4984,9.48037,
2026_07_06_17_13_04.486,3.873,41.8,0,0.769,0,0,0,0, ,0,0,0,0,0, ,122.5,-61.4,-984.3,-11.3,19.1,-7.5,25,181.25,-88.0788,-888.768,-1.35378,-35.8545,8.17446,
2026_07_06_17_13_04.506,3.873,41.7,0,0.769,0,0,0,0, ,0,0,0,0,0, ,115.9,-85,-984.4,-4.5,14,-4,25,177.469,-87.1722,-894.592,-1.75269,-32.6611,7.32594,
2026_07_06_17_13_04.526,3.873,41.7,0,0.767,0,0,0,0, ,0,0,0,0,0, ,89.5,-85.6,-999.6,-1.4,18.8,-9.7,25,172.913,-87.0581,-900.528,-1.82565,-29.6714,6.46209,
2026_07_06_17_13_04.546,3.873,41.8,0,0.769,0,0,0,0, ,0,0,0,0,0, ,74.5,-99.4,-1002.6,1.4,17.7,-9.8,25,167.373,-87.3897,-906.656,-1.7144,-26.7512,5.47417,
2026_07_06_17_13_04.564,3.873,41.9,0,0.767,0,0,0,0, ,0,0,0,0,0, ,51.5,-87.4,-998.5,4,12.7,-9.2,25,161.013,-87.7559,-912.378,-1.4454,-24.1948,4.56168,
2026_07_06_17_13_04.586,3.873,41.7,0,0.769,0,0,0,0, ,0,0,0,0,0, ,31.8,-98,-999.5,1.5,9.2,-9.9,25,153.739,-88.0572,-917.657,-1.18974,-22.0532,3.70175,
2026_07_06_17_13_04.605,3.873,41.7,0,0.767,0,0,0,0, ,0,0,0,0,0, ,52.1,-88.7,-993.2,-0.8,4.4,-9.6,25,146.927,-88.3798,-922.452,-1.09591,-20.2949,2.88203,
2026_07_06_17_13_04.626,3.873,41.7,0,0.767,0,0,0,0, ,0,0,0,0,0, ,79.1,-83.6,-994.2,-2.7,2.9,-5.9,25,141.971,-88.2439,-926.794,-1.13577,-18.8358,2.23414,
2026_07_06_17_13_04.645,3.873,41.7,0,0.766,0,0,0,0, ,0,0,0,0,0, ,79.2,-92.8,-1000.2,-7.1,7.7,-7.9,25,138.143,-88.2412,-931.084,-1.36515,-17.365,1.67753,
2026_07_06_17_13_04.664,3.873,41.7,0,0.767,0,0,0,0, ,0,0,0,0,0, ,88,-73.6,-990.9,-6.6,9.5,-5.1,25,134.819,-87.934,-935.012,-1.69939,-15.7828,1.17921,
2026_07_06_17_13_04.684,3.873,41.8,0,0.767,0,0,0,0, ,0,0,0,0,0, ,97.1,-78.3,-986.3,-3.7,5.8,-1.9,25,132.243,-87.2037,-938.278,-1.90966,-14.3548,0.894074,
2026_07_06_17_13_04.705,3.873,41.7,0,0.769,0,0,0,0, ,0,0,0,0,0, ,105.2,-77.5,-989.9,-1.7,3.3,-2,25,130.349,-86.6368,-941.314,-1.95782,-13.2028,0.720763,
2026_07_06_17_13_04.724,3.873,41.8,0,0.767,0,0,0,0, ,0,0,0,0,0, ,102.5,-80.5,-988.8,-0.9,1.6,-2.1,25,128.734,-86.1714,-944.241,-1.91773,-12.249,0.551919,
2026_07_06_17_13_04.743,3.873,41.9,0,0.769,0,0,0,0, ,0,0,0,0,0, ,100.5,-85,-991.6,0.1,1,-2,25,127.074,-85.9629,-947.042,-1.82525,-11.4233,0.393365,
2026_07_06_17_13_04.763,3.873,41.7,0,0.769,0,0,0,0, ,0,0,0,0,0, ,99.6,-84.3,-989.9,1.4,0.9,-2.4,25,125.428,-85.8829,-949.705,-1.66832,-10.6693,0.235332,
2026_07_06_17_13_04.784,3.873,41.9,0,0.769,0,0,0,0, ,0,0,0,0,0, ,100.8,-80.3,-994.2,0.8,0.7,-1.6,25,123.89,-85.6646,-952.286,-1.49962,-9.97042,0.0991163,
2026_07_06_17_13_04.808,3.873,41.7,0,0.769,0,0,0,0, ,0,0,0,0,0, ,96.6,-82,-991.3,-0.6,0.3,-1.3,25,122.355,-85.3895,-954.751,-1.40215,-9.33238,0.00471705,
2026_07_06_17_13_04.823,3.873,41.7,0,0.766,0,0,0,0, ,0,0,0,0,0, ,100,-86.5,-988.7,-1.1,-0.3,-1.3,25,120.889,-85.32,-956.899,-1.3685,-8.76369,-0.0747891,
2026_07_06_17_13_04.843,3.873,41.7,0,0.769,0,0,0,0, ,0,0,0,0,0, ,102.7,-86,-989.8,0,-0.4,-1.5,25,119.699,-85.3767,-958.871,-1.31862,-8.25098,-0.155544,
2026_07_06_17_13_04.862,3.873,41.8,0,0.769,0,0,0,0, ,0,0,0,0,0, ,99.9,-82.2,-996.7,0.8,0.2,-1.5,25,118.578,-85.2989,-960.966,-1.21389,-7.75428,-0.237472,
2026_07_06_17_13_04.882,3.873,41.7,0,0.767,0,0,0,0, ,0,0,0,0,0, ,100.4,-81.2,-995.7,0.3,1.5,-1.3,25,117.455,-85.0796,-963.113,-1.10641,-7.22996,-0.308313,
2026_07_06_17_13_04.902,3.873,41.7,0,0.769,0,0,0,0, ,0,0,0,0,0, ,93.3,-81.6,-995.4,-1.5,2.5,-1.5,25,116.199,-84.8554,-965.089,-1.07555,-6.66751,-0.374838,
2026_07_06_17_13_04.922,3.873,41.8,0,0.767,0,0,0,0, ,0,0,0,0,0, ,102.1,-85.4,-990.4,-2.9,3,-1.9,25,115.072,-84.7728,-966.784,-1.14407,-6.09363,-0.45559,
2026_07_06_17_13_04.942,3.873,41.7,0,0.769,0,0,0,0, ,0,0,0,0,0, ,105.1,-85,-987.5,-2.7,1.8,-2.1,25,114.373,-84.7988,-968.135,-1.24498,-5.57605,-0.549703,
2026_07_06_17_13_04.961,3.873,41.8,0,0.767,0,0,0,0, ,0,0,0,0,0, ,109.4,-76.4,-989.1,-1.6,0,-2.1,25,113.939,-84.549,-969.364,-1.30013,-5.18141,-0.644174,
2026_07_06_17_13_04.981,3.873,41.7,0,0.769,0,0,0,0, ,0,0,0,0,0, ,108.5,-79.3,-992.6,-1.3,-0.6,-1.5,25,113.635,-84.1408,-970.673,-1.30926,-4.88395,-0.714607,
2026_07_06_17_13_05.006,3.873,41.7,0,0.769,0,0,0,0, ,0,0,0,0,0, ,104.8,-82.7,-990.8,-1,-0.7,-1,25,113.209,-83.9494,-971.954,-1.29955,-4.62595,-0.747233,
2026_07_06_17_13_05.020,3.873,41.6,0,0.765,0,0,0,0, ,0,0,0,0,0, ,104.2,-84.2,-996,-0.8,0.3,-1.7,25,112.678,-83.919,-973.261,-1.27521,-4.35624,-0.783964,
2026_07_06_17_13_05.042,3.873,41.7,0,0.767,0,0,0,0, ,0,0,0,0,0, ,103.1,-83.7,-988.7,-1,1.2,-2.1,25,112.128,-83.9209,-974.424,-1.25234,-4.04508,-0.851972,
2026_07_06_17_13_05.062,3.873,41.7,0,0.767,0,0,0,0, ,0,0,0,0,0, ,108.1,-79.7,-988.2,-0.5,0.1,-2,25,111.73,-83.7855,-975.279,-1.22173,-3.75897,-0.924977,
2026_07_06_17_13_05.092,3.873,41.7,0,0.77,0,0,0,0, ,0,0,0,0,0, ,106,-80,-991.5,-0.4,-0.2,-2.1,25,111.445,-83.5457,-976.167,-1.1747,-3.53296,-0.993533,
2026_07_06_17_13_05.109,3.873,41.6,0,0.77,0,0,0,0, ,0,0,0,0,0, ,108.8,-79.4,-990.3,-0.3,-0.2,-2.1,25,111.199,-83.3114,-977.065,-1.12445,-3.32985,-1.06096,
2026_07_06_17_13_05.119,3.873,41.7,0,0.77,0,0,0,0, ,0,0,0,0,0, ,106.5,-80.2,-992.1,-0.8,-0.8,-1,25,110.982,-83.0974,-977.926,-1.08944,-3.15741,-1.09076,
2026_07_06_17_13_05.139,3.873,41.7,0,0.769,0,0,0,0, ,0,0,0,0,0, ,106.8,-83.2,-990.7,-0.5,-0.5,-1.2,25,110.718,-83.0122,-978.747,-1.06266,-3.00461,-1.09132,
2026_07_06_17_13_05.159,3.873,41.6,0,0.769,0,0,0,0, ,0,0,0,0,0, ,103.7,-81.7,-992.5,-0.1,-0.2,-1.5,25,110.385,-82.978,-979.53,-1.01619,-2.84285,-1.10709,
2026_07_06_17_13_05.179,3.873,41.6,0,0.767,0,0,0,0, ,0,0,0,0,0, ,108.3,-78.4,-992.9,0,0.5,-2.5,25,110.118,-82.7996,-980.333,-0.957313,-2.66047,-1.1615,
2026_07_06_17_13_05.199,3.873,41.6,0,0.77,0,0,0,0, ,0,0,0,0,0, ,105.8,-83.4,-990.9,-0.4,0.2,-2.5,25,109.931,-82.6838,-981.038,-0.911164,-2.47702,-1.24306,
2026_07_06_17_13_05.218,3.873,41.6,0,0.769,0,0,0,0, ,0,0,0,0,0, ,107.1,-74.8,-994.3,-1.3,0.3,-1.6,25,109.719,-82.4654,-981.742,-0.907437,-2.31084,-1.29224,
2026_07_06_17_13_05.238,3.873,41.7,0,0.769,0,0,0,0, ,0,0,0,0,0, ,107,-81.5,-991.4,-1.4,0.7,-1,25,109.556,-82.2024,-982.419,-0.934405,-2.13956,-1.29271,
2026_07_06_17_13_05.258,3.873,41.7,0,0.769,0,0,0,0, ,0,0,0,0,0, ,106.8,-79.9,-989.2,-1.6,0.9,-0.7,25,109.394,-82.1109,-982.9,-0.968871,-1.96043,-1.26573,
2026_07_06_17_13_05.277,3.873,41.7,0,0.769,0,0,0,0, ,0,0,0,0,0, ,106.6,-79.4,-990.4,-0.8,0.7,-1.7,25,109.23,-81.9609,-983.32,-0.982956,-1.79222,-1.26173,
2026_07_06_17_13_05.299,3.873,41.6,0,0.769,0,0,0,0, ,0,0,0,0,0, ,110.3,-76.4,-990.7,0,0.7,-2.2,25,109.183,-81.7135,-983.761,-0.947432,-1.64035,-1.30367,
2026_07_06_17_13_05.317,3.873,41.6,0,0.767,0,0,0,0, ,0,0,0,0,0, ,110.4,-77.5,-996.5,-0.9,0.7,-2.6,25,109.254,-81.4232,-984.36,-0.91712,-1.49773,-1.37047,
2026_07_06_17_13_05.338,3.873,41.6,0,0.769,0,0,0,0, ,0,0,0,0,0, ,108.8,-85.2,-987.3,-1.5,0.2,-2,25,109.275,-81.4187,-984.82,-0.934358,-1.37904,-1.42712,
2026_07_06_17_13_05.358,3.873,41.7,0,0.769,0,0,0,0, ,0,0,0,0,0, ,118.2,-104.3,-991.2,-2.9,0.1,-2.9,25,109.532,-82.2311,-985.09,-1.01148,-1.28587,-1.48945,
2026_07_06_17_13_05.378,3.873,41.6,0,0.769,0,0,0,0, ,0,0,0,0,0, ,111.3,-59.9,-980.3,-0.2,1.3,-2.8,25,109.85,-82.2231,-985.13,-1.0443,-1.16485,-1.57236,
2026_07_06_17_13_05.396,3.873,41.6,0,0.767,0,0,0,0, ,0,0,0,0,0, ,109.8,-69.2,-992.6,0.1,-1.2,-1.7,25,109.893,-81.1462,-985.21,-0.983708,-1.09082,-1.61365,
2026_07_06_17_13_05.416,3.873,41.6,0,0.769,0,0,0,0, ,0,0,0,0,0, ,109.7,-77.6,-993.8,-0.6,0.3,-2.1,25,109.884,-80.6741,-985.697,-0.938998,-1.05177,-1.6311,
2026_07_06_17_13_05.436,3.873,41.6,0,0.77,0,0,0,0, ,0,0,0,0,0, ,112.6,-79.8,-991.5,-0.8,-0.2,-1.8,25,109.961,-80.5538,-986.121,-0.924434,-0.984632,-1.65053,
2026_07_06_17_13_05.456,3.873,41.6,0,0.769,0,0,0,0, ,0,0,0,0,0, ,110.3,-79.2,-991.9,-0.7,0.1,-2.1,25,110.052,-80.4896,-986.461,-0.913805,-0.927678,-1.66878,
2026_07_06_17_13_05.476,3.873,41.6,0,0.769,0,0,0,0, ,0,0,0,0,0, ,110.8,-79.4,-989.7,-0.6,-0.2,-2.1,25,110.082,-80.4171,-986.725,-0.897729,-0.874195,-1.69506,
2026_07_06_17_13_05.495,3.873,41.7,0,0.769,0,0,0,0, ,0,0,0,0,0, ,111.5,-80.6,-990.7,-1,0.1,-2.1,25,110.147,-80.3917,-986.937,-0.891774,-0.82397,-1.71974,
2026_07_06_17_13_05.516,3.873,41.6,0,0.769,0,0,0,0, ,0,0,0,0,0, ,106.3,-65.4,-992.5,-0.5,0.5,-2.9,25,110.071,-79.9413,-987.221,-0.883134,-0.755478,-1.76728,
2026_07_06_17_13_05.536,3.873,41.6,0,0.769,0,0,0,0, ,0,0,0,0,0, ,107.5,-74.5,-995.6,-0.7,0,-1.4,25,109.878,-79.3324,-987.637,-0.865881,-0.694207,-1.79061,
2026_07_06_17_13_05.555,3.873,41.6,0,0.766,0,0,0,0, ,0,0,0,0,0, ,113.7,-81.9,-987.6,-1.6,0,-1.8,25,109.922,-79.2634,-987.879,-0.883194,-0.651904,-1.77899,
2026_07_06_17_13_05.582,3.873,41.6,0,0.769,0,0,0,0, ,0,0,0,0,0, ,113.1,-82,-988.6,-1.3,-0.5,-1.8,25,110.134,-79.4271,-987.892,-0.917734,-0.627413,-1.78027,
2026_07_06_17_13_05.595,3.873,41.5,0,0.769,0,0,0,0, ,0,0,0,0,0, ,108.6,-77,-989.6,-0.5,-0.7,-2.1,25,110.178,-79.4316,-987.966,-0.916653,-0.625742,-1.79061,
2026_07_06_17_13_05.616,3.873,41.6,0,0.769,0,0,0,0, ,0,0,0,0,0, ,111.4,-75,-991.6,-1,-0.7,-2.2,25,110.167,-79.2225,-988.126,-0.906498,-0.630267,-1.81251,
2026_07_06_17_13_05.635,3.873,41.6,0,0.767,0,0,0,0, ,0,0,0,0,0, ,112,-74.3,-991.4,-1.1,-0.3,-2.6,25,110.26,-78.9438,-988.332,-0.915243,-0.622329,-1.84831,
2026_07_06_17_13_05.655,3.873,41.7,0,0.767,0,0,0,0, ,0,0,0,0,0, ,113.1,-79.5,-991.3,-0.9,-0.2,-2.1,25,110.4,-78.8193,-988.516,-0.920408,-0.59964,-1.87889,
2026_07_06_17_13_05.674,3.873,41.6,0,0.769,0,0,0,0, ,0,0,0,0,0, ,112.4,-75.6,-988.8,0,-0.6,-2.1,25,110.543,-78.7419,-988.609,-0.891742,-0.587475,-1.89236,
2026_07_06_17_13_05.693,3.873,41.7,0,0.769,0,0,0,0, ,0,0,0,0,0, ,112.6,-84.9,-997.8,-2.3,0.3,-3.7,25,110.662,-78.8338,-988.895,-0.90748,-0.560816,-1.95376,
2026_07_06_17_13_05.714,3.873,41.7,0,0.769,0,0,0,0, ,0,0,0,0,0, ,111.8,-78.6,-985.3,-1.2,0.2,-2.7,25,110.756,-79.0115,-989.057,-0.958821,-0.511407,-2.0297,
2026_07_06_17_13_05.734,3.873,41.7,0,0.767,0,0,0,0, ,0,0,0,0,0, ,110.1,-76.9,-988.1,-0.6,-0.4,-2.5,25,110.768,-78.9347,-988.913,-0.955236,-0.486337,-2.06446,
2026_07_06_17_13_05.753,3.873,41.7,0,0.77,0,0,0,0, ,0,0,0,0,0, ,119.5,-86.7,-987.4,-1.3,0,-3.3,25,111.014,-79.1093,-988.842,-0.954917,-0.468888,-2.11537,
2026_07_06_17_13_05.773,3.873,41.5,0,0.77,0,0,0,0, ,0,0,0,0,0, ,116.3,-70.5,-990.7,-0.1,-0.9,-1.1,25,111.433,-79.0782,-988.855,-0.939383,-0.467737,-2.12053,
2026_07_06_17_13_05.793,3.873,41.6,0,0.769,0,0,0,0, ,0,0,0,0,0, ,112.9,-79.9,-991.8,-1,0.1,-1.8,25,111.626,-78.8419,-989.001,-0.915655,-0.46361,-2.07967,
2026_07_06_17_13_05.812,3.873,41.5,0,0.766,0,0,0,0, ,0,0,0,0,0, ,110.1,-76.5,-987.1,-1.2,-0.4,-1.3,25,111.618,-78.8028,-989.028,-0.926889,-0.444499,-2.04739,
2026_07_06_17_13_05.833,3.873,41.7,0,0.769,0,0,0,0, ,0,0,0,0,0, ,111.5,-75.9,-992.6,-0.8,0,-1.9,25,111.569,-78.6442,-989.078,-0.931344,-0.4296,-2.02013,
2026_07_06_17_13_05.852,3.873,41.5,0,0.769,0,0,0,0, ,0,0,0,0,0, ,113.5,-75.8,-986.8,-0.1,-0.4,-2.2,25,111.625,-78.4739,-989.116,-0.902012,-0.415609,-2.02195,
2026_07_06_17_13_05.872,3.873,41.5,0,0.769,0,0,0,0, ,0,0,0,0,0, ,120.9,-64.8,-992.6,0.2,-1,-1.8,25,111.965,-77.9758,-989.152,-0.843999,-0.432939,-2.02061,
2026_07_06_17_13_05.893,3.873,41.5,0,0.769,0,0,0,0, ,0,0,0,0,0, ,110.8,-78.7,-993.6,-0.6,0,-1.7,25,112.202,-77.5964,-989.392,-0.804755,-0.437025,-2.00412,
2026_07_06_17_13_05.913,3.873,41.6,0,0.767,0,0,0,0, ,0,0,0,0,0, ,110.4,-78.1,-990.6,-1.7,-0.2,-1.4,25,112.104,-77.6454,-989.557,-0.825793,-0.416488,-1.97645,
2026_07_06_17_13_05.932,3.873,41.6,0,0.768,0,0,0,0, ,0,0,0,0,0, ,113.2,-78.8,-992.3,-1.9,0.5,-1.9,25,112.086,-77.6944,-989.673,-0.885159,-0.381967,-1.95656,
2026_07_06_17_13_05.957,3.873,41.5,0,0.768,0,0,0,0, ,0,0,0,0,0, ,114,-75,-986.8,-1.4,0,-2,25,112.178,-77.646,-989.665,-0.931767,-0.343457,-1.95616,
2026_07_06_17_13_05.977,3.873,41.6,0,0.769,0,0,0,0, ,0,0,0,0,0, ,121,-68.8,-988,-0.3,-1,-1.5,25,112.502,-77.2959,-989.527,-0.926784,-0.352996,-1.94359,
2026_07_06_17_13_05.991,3.873,41.6,0,0.769,0,0,0,0, ,0,0,0,0,0, ,112.3,-75.3,-994,0.1,-0.2,-1.6,25,112.755,-76.9762,-989.617,-0.876402,-0.368048,-1.91961,
2026_07_06_17_13_06.011,3.873,41.6,0,0.768,0,0,0,0, ,0,0,0,0,0, ,113.5,-72.9,-991.8,-0.1,-0.4,-1.6,25,112.764,-76.8009,-989.817,-0.822996,-0.363901,-1.90013,
2026_07_06_17_13_06.032,3.873,41.5,0,0.769,0,0,0,0, ,0,0,0,0,0, ,112.4,-75.8,-992.6,-0.9,0,-1.9,25,112.775,-76.6516,-989.962,-0.803314,-0.353914,-1.89098,
2026_07_06_17_13_06.051,3.873,41.5,0,0.766,0,0,0,0, ,0,0,0,0,0, ,114.7,-76.6,-989.8,-0.8,-0.4,-2,25,112.822,-76.6241,-990.038,-0.806159,-0.344535,-1.89458,
2026_07_06_17_13_06.070,3.873,41.6,0,0.769,0,0,0,0, ,0,0,0,0,0, ,117.9,-72,-990.7,-0.2,-0.7,-1.5,25,113.034,-76.4824,-990.051,-0.787502,-0.357055,-1.88577,
2026_07_06_17_13_06.090,3.873,41.6,0,0.769,0,0,0,0, ,0,0,0,0,0, ,116.2,-69.2,-991,0.2,-0.5,-1.6,25,113.279,-76.124,-990.099,-0.739514,-0.37186,-1.86531,
2026_07_06_17_13_06.109,3.873,41.6,0,0.768,0,0,0,0, ,0,0,0,0,0, ,109.9,-76.1,-995.3,-0.7,-0.2,-1.6,25,113.265,-75.9123,-990.285,-0.709684,-0.370527,-1.84914,
2026_07_06_17_13_06.132,3.873,41.6,0,0.768,0,0,0,0, ,0,0,0,0,0, ,112.9,-76.5,-991.2,-1.2,0.1,-1.6,25,113.151,-75.9359,-990.466,-0.724328,-0.350995,-1.83396,
2026_07_06_17_13_06.150,3.873,41.6,0,0.768,0,0,0,0, ,0,0,0,0,0, ,114.1,-77.5,-990.1,-0.8,0,-1.7,25,113.173,-76.0008,-990.477,-0.741127,-0.32656,-1.82275,
2026_07_06_17_13_06.169,3.873,41.5,0,0.769,0,0,0,0, ,0,0,0,0,0, ,116.2,-72.5,-988.8,-0.1,-0.2,-2,25,113.293,-75.9398,-990.415,-0.723386,-0.312754,-1.82441,
2026_07_06_17_13_06.190,3.873,41.6,0,0.769,0,0,0,0, ,0,0,0,0,0, ,114.8,-72.3,-990.7,0,-0.7,-1.8,25,113.428,-75.7241,-990.374,-0.682352,-0.321117,-1.82902,
2026_07_06_17_13_06.213,3.873,41.5,0,0.766,0,0,0,0, ,0,0,0,0,0, ,114.3,-75.1,-990.1,-0.1,-1.1,-1.7,25,113.496,-75.6007,-990.376,-0.643818,-0.356393,-1.8242,
2026_07_06_17_13_06.229,3.873,41.5,0,0.768,0,0,0,0, ,0,0,0,0,0, ,115.8,-75.3,-993.1,-0.3,-0.7,-1.9,25,113.591,-75.5763,-990.45,-0.616773,-0.389519,-1.82273,
2026_07_06_17_13_06.249,3.873,41.5,0,0.766,0,0,0,0, ,0,0,0,0,0, ,112.9,-76.2,-991.3,-0.7,-0.6,-2,25,113.637,-75.5869,-990.557,-0.609657,-0.405392,-1.83048,
2026_07_06_17_13_06.270,3.873,41.5,0,0.769,0,0,0,0, ,0,0,0,0,0, ,115.9,-74.7,-989.6,-0.5,-0.4,-1.8,25,113.683,-75.5785,-990.55,-0.609068,-0.411157,-1.83472,
2026_07_06_17_13_06.290,3.873,41.6,0,0.767,0,0,0,0, ,0,0,0,0,0, ,116.2,-74.8,-990.9,-0.2,-0.5,-2,25,113.828,-75.5281,-990.532,-0.593281,-0.413524,-1.8387,
2026_07_06_17_13_06.308,3.873,41.5,0,0.77,0,0,0,0, ,0,0,0,0,0, ,118.7,-100.2,-997.8,-4.7,0.1,-6.2,25,114.048,-76.2576,-990.765,-0.706425,-0.400512,-1.97649,
2026_07_06_17_13_06.329,3.873,41.5,0,0.769,0,0,0,0, ,0,0,0,0,0, ,113.8,-74.5,-982.6,-0.6,-1.6,-0.8,25,114.183,-76.9335,-990.73,-0.824862,-0.421809,-2.06933,
2026_07_06_17_13_06.347,3.873,41.5,0,0.769,0,0,0,0, ,0,0,0,0,0, ,122.3,-70.8,-992.6,-0.9,-0.3,-1.7,25,114.418,-76.6725,-990.54,-0.8203,-0.453996,-2.01941,
2026_07_06_17_13_06.368,3.873,41.6,0,0.768,0,0,0,0, ,0,0,0,0,0, ,109.4,-77.5,-988.8,-1.1,-1,-1.6,25,114.506,-76.5188,-990.549,-0.83125,-0.46594,-1.99689,
2026_07_06_17_13_06.388,3.873,41.5,0,0.767,0,0,0,0, ,0,0,0,0,0, ,115.7,-73.1,-990.3,-0.3,-0.7,-1.7,25,114.386,-76.4445,-990.488,-0.823252,-0.489344,-1.97576,
2026_07_06_17_13_06.407,3.873,41.5,0,0.768,0,0,0,0, ,0,0,0,0,0, ,115.6,-73.2,-993,-0.2,-0.7,-1.8,25,114.463,-76.2438,-990.559,-0.78832,-0.502181,-1.962,
2026_07_06_17_13_06.427,3.873,41.6,0,0.768,0,0,0,0, ,0,0,0,0,0, ,113.2,-75.6,-991.6,-0.4,-0.6,-2,25,114.459,-76.1314,-990.665,-0.758563,-0.511188,-1.95822,
2026_07_06_17_13_06.447,3.873,41.5,0,0.77,0,0,0,0, ,0,0,0,0,0, ,115.8,-74.4,-990.4,-0.6,-0.9,-1.5,25,114.462,-76.0625,-990.686,-0.742807,-0.525741,-1.94553,
2026_07_06_17_13_06.466,3.873,41.5,0,0.769,0,0,0,0, ,0,0,0,0,0, ,114.7,-75.3,-989.5,-0.7,-0.9,-1.7,25,114.51,-75.9886,-990.641,-0.737151,-0.548547,-1.92448,
2026_07_06_17_13_06.487,3.873,41.5,0,0.766,0,0,0,0, ,0,0,0,0,0, ,112.4,-74.5,-991.2,-0.9,-0.7,-1.7,25,114.451,-75.9222,-990.623,-0.740981,-0.56387,-1.9108,
2026_07_06_17_13_06.506,3.873,41.5,0,0.768,0,0,0,0, ,0,0,0,0,0, ,115.6,-73.3,-992,-0.4,-0.6,-1.8,25,114.424,-75.799,-990.683,-0.735437,-0.569119,-1.901,
2026_07_06_17_13_06.525,3.873,41.5,0,0.769,0,0,0,0, ,0,0,0,0,0, ,114.8,-72.1,-990.6,-0.2,-0.3,-1.6,25,114.471,-75.6102,-990.72,-0.708902,-0.56186,-1.88875,
2026_07_06_17_13_06.546,3.873,41.7,0,0.768,0,0,0,0, ,0,0,0,0,0, ,110.3,-74.5,-992.3,-0.6,-0.4,-1.1,25,114.354,-75.4694,-990.765,-0.690079,-0.54895,-1.85592,
2026_07_06_17_13_06.566,3.873,41.4,0,0.768,0,0,0,0, ,0,0,0,0,0, ,111.6,-74.5,-990.2,-1,0,-1.7,25,114.147,-75.4103,-990.794,-0.696777,-0.527686,-1.82814,
2026_07_06_17_13_06.585,3.873,41.5,0,0.769,0,0,0,0, ,0,0,0,0,0, ,115.8,-75.8,-990.7,-1,-0.1,-1.8,25,114.12,-75.3945,-990.773,-0.715255,-0.498577,-1.82338,
2026_07_06_17_13_06.605,3.873,41.6,0,0.767,0,0,0,0, ,0,0,0,0,0, ,115.1,-73.3,-991.9,-0.4,-0.2,-1.9,25,114.201,-75.343,-990.805,-0.714325,-0.477335,-1.825,
2026_07_06_17_13_06.626,3.873,41.5,0,0.769,0,0,0,0, ,0,0,0,0,0, ,116.8,-70.5,-992.9,-0.3,-0.1,-2.1,25,114.307,-75.1332,-990.903,-0.692124,-0.457388,-1.83566,
2026_07_06_17_13_06.645,3.873,41.6,0,0.769,0,0,0,0, ,0,0,0,0,0, ,115.6,-72,-990.7,-0.7,-0.1,-1.3,25,114.423,-74.8966,-990.957,-0.680417,-0.43561,-1.8274,
2026_07_06_17_13_06.664,3.873,41.6,0,0.769,0,0,0,0, ,0,0,0,0,0, ,114,-75.9,-990.4,-0.9,0,-1.6,25,114.446,-74.8389,-990.932,-0.687704,-0.412112,-1.8044,
2026_07_06_17_13_06.685,3.873,41.5,0,0.766,0,0,0,0, ,0,0,0,0,0, ,113,-76.5,-992.1,-0.9,0.1,-1.7,25,114.388,-74.9218,-990.952,-0.70064,-0.383952,-1.79499,
2026_07_06_17_13_06.704,3.873,41.4,0,0.768,0,0,0,0, ,0,0,0,0,0, ,118.2,-72,-989,-0.5,0,-1.9,25,114.462,-74.8809,-990.927,-0.700601,-0.357508,-1.79529,
2026_07_06_17_13_06.724,3.873,41.6,0,0.769,0,0,0,0, ,0,0,0,0,0, ,117.4,-69.3,-990.6,-0.2,-0.7,-1.5,25,114.665,-74.6231,-990.859,-0.679237,-0.35705,-1.78949,
2026_07_06_17_13_06.744,3.873,41.5,0,0.769,0,0,0,0, ,0,0,0,0,0, ,114,-74.8,-990.6,-0.4,-0.2,-1.6,25,114.728,-74.4663,-990.843,-0.656127,-0.362715,-1.77489,
2026_07_06_17_13_06.763,3.873,41.5,0,0.767,0,0,0,0, ,0,0,0,0,0, ,113.2,-77,-991.2,-0.7,-0.1,-1.6,25,114.66,-74.5536,-990.846,-0.64966,-0.349752,-1.76424,
2026_07_06_17_13_06.783,3.873,41.5,0,0.767,0,0,0,0, ,0,0,0,0,0, ,115.1,-73.7,-989.1,-0.5,-0.1,-1.9,25,114.628,-74.6022,-990.804,-0.646634,-0.334533,-1.76337,
2026_07_06_17_13_06.803,3.873,41.5,0,0.768,0,0,0,0, ,0,0,0,0,0, ,116.2,-73.1,-990.8,-0.1,-0.7,-2.2,25,114.691,-74.5289,-990.752,-0.625511,-0.338522,-1.78084,
2026_07_06_17_13_06.823,3.873,41.5,0,0.769,0,0,0,0, ,0,0,0,0,0, ,117.4,-76.1,-998.7,-3.5,0,-5.5,25,114.819,-74.5332,-990.996,-0.697081,-0.339222,-1.90693,
2026_07_06_17_13_06.842,3.873,41.6,0,0.769,0,0,0,0, ,0,0,0,0,0, ,112.3,-72.9,-989.3,-0.8,-1.2,-1,25,114.821,-74.5312,-991.179,-0.785618,-0.355113,-1.98877,
2026_07_06_17_13_06.862,3.873,41.5,0,0.77,0,0,0,0, ,0,0,0,0,0, ,117.9,-73.8,-991.5,-1.1,-0.3,-1.7,25,114.838,-74.4592,-991.131,-0.795635,-0.379176,-1.94984,
2026_07_06_17_13_06.884,3.873,41.6,0,0.769,0,0,0,0, ,0,0,0,0,0, ,113.1,-75.1,-989.2,-1,-0.6,-1.8,25,114.878,-74.4587,-991.084,-0.811136,-0.383492,-1.93767,
2026_07_06_17_13_06.902,3.873,41.5,0,0.769,0,0,0,0, ,0,0,0,0,0, ,117.7,-69.7,-991.8,-0.3,-0.3,-1.9,25,114.91,-74.3332,-991.048,-0.801316,-0.387545,-1.93232,
2026_07_06_17_13_06.923,3.873,41.5,0,0.767,0,0,0,0, ,0,0,0,0,0, ,114.5,-70.6,-992.6,-0.3,-0.4,-1.6,25,114.983,-74.0783,-991.118,-0.770768,-0.385257,-1.92121,
2026_07_06_17_13_06.942,3.873,41.5,0,0.769,0,0,0,0, ,0,0,0,0,0, ,115.1,-72.5,-989,-0.4,-0.2,-1.6,25,114.972,-73.9242,-991.099,-0.745127,-0.380062,-1.90164,
2026_07_06_17_13_06.962,3.873,41.6,0,0.766,0,0,0,0, ,0,0,0,0,0, ,114.7,-72.7,-991.2,-0.5,-0.2,-1.8,25,114.967,-73.8435,-991.038,-0.727143,-0.369089,-1.88935,
2026_07_06_17_13_06.981,3.873,41.5,0,0.766,0,0,0,0, ,0,0,0,0,0, ,116.6,-71.1,-990.6,-0.5,-0.7,-1.9,25,115.009,-73.7251,-991.03,-0.713301,-0.37402,-1.88695,
2026_07_06_17_13_07.000,3.873,41.5,0,0.768,0,0,0,0, ,0,0,0,0,0, ,116.6,-71.7,-989.5,-0.5,-0.8,-1.8,25,115.106,-73.5834,-990.97,-0.700303,-0.396931,-1.8847,
2026_07_06_17_13_07.022,3.873,41.5,0,0.766,0,0,0,0, ,0,0,0,0,0, ,116.3,-69.3,-993.4,-0.5,-0.7,-2.1,25,115.188,-73.3955,-990.999,-0.688097,-0.418446,-1.88868,
2026_07_06_17_13_07.043,3.873,41.6,0,0.768,0,0,0,0, ,0,0,0,0,0, ,114.9,-72.5,-992.1,-0.7,-0.1,-1.7,25,115.213,-73.2435,-991.106,-0.682729,-0.417322,-1.88937,
2026_07_06_17_13_07.061,3.873,41.5,0,0.769,0,0,0,0, ,0,0,0,0,0, ,113.6,-71.6,-991.2,-0.7,0.2,-1.6,25,115.154,-73.1707,-991.139,-0.683781,-0.388845,-1.87478,
2026_07_06_17_13_07.080,3.873,41.5,0,0.769,0,0,0,0, ,0,0,0,0,0, ,113.5,-71.4,-991.3,-1,0.2,-1.6,25,115.056,-73.0689,-991.146,-0.69391,-0.352962,-1.85804,
2026_07_06_17_13_07.101,3.873,41.6,0,0.768,0,0,0,0, ,0,0,0,0,0, ,117,-71.6,-989.9,-0.8,0,-1.8,25,115.068,-72.9733,-991.112,-0.706469,-0.32536,-1.84841,
2026_07_06_17_13_07.121,3.873,41.5,0,0.768,0,0,0,0, ,0,0,0,0,0, ,117.6,-70.8,-991.2,-0.6,-0.8,-1.7,25,115.204,-72.8653,-991.078,-0.706075,-0.329908,-1.84241,
2026_07_06_17_13_07.140,3.873,41.4,0,0.768,0,0,0,0, ,0,0,0,0,0, ,116.9,-72.2,-990.6,-0.7,-0.7,-1.5,25,115.329,-72.7821,-991.067,-0.702658,-0.355507,-1.82764,
2026_07_06_17_13_07.160,3.873,41.5,0,0.768,0,0,0,0, ,0,0,0,0,0, ,115.7,-72.8,-991.6,-0.8,-0.5,-1.5,25,115.388,-72.7649,-991.069,-0.705542,-0.370406,-1.80767,
2026_07_06_17_13_07.180,3.873,41.5,0,0.769,0,0,0,0, ,0,0,0,0,0, ,114.9,-72.8,-992.1,-0.7,-0.1,-1.6,25,115.383,-72.767,-991.117,-0.708252,-0.366116,-1.79197,
2026_07_06_17_13_07.200,3.873,41.4,0,0.769,0,0,0,0, ,0,0,0,0,0, ,116.9,-69.7,-991,-0.2,0,-2.2,25,115.414,-72.6746,-991.143,-0.692514,-0.346852,-1.79856,
2026_07_06_17_13_07.219,3.873,41.5,0,0.769,0,0,0,0, ,0,0,0,0,0, ,118.1,-70.9,-991.5,-0.7,-0.5,-1.8,25,115.541,-72.5299,-991.15,-0.677736,-0.34095,-1.81083,
2026_07_06_17_13_07.239,3.873,41.5,0,0.769,0,0,0,0, ,0,0,0,0,0, ,118.2,-70.9,-990.3,-0.8,-0.7,-1.6,25,115.7,-72.4305,-991.135,-0.68214,-0.356736,-1.80408,
2026_07_06_17_13_07.259,3.873,41.5,0,0.767,0,0,0,0, ,0,0,0,0,0, ,112.7,-74.4,-990.8,-0.9,-0.3,-1.6,25,115.685,-72.4439,-991.099,-0.692369,-0.365466,-1.79164,
2026_07_06_17_13_07.279,3.873,41.6,0,0.769,0,0,0,0, ,0,0,0,0,0, ,114.3,-72,-990.1,-0.7,-0.1,-1.5,25,115.552,-72.49,-991.059,-0.698928,-0.355383,-1.77692,
2026_07_06_17_13_07.299,3.873,41.5,0,0.768,0,0,0,0, ,0,0,0,0,0, ,117.1,-70.6,-989.6,-0.3,-0.2,-2,25,115.561,-72.4175,-990.986,-0.686805,-0.342868,-1.77528,
2026_07_06_17_13_07.319,3.873,41.5,0,0.766,0,0,0,0, ,0,0,0,0,0, ,118.1,-71.4,-990.8,0.1,-0.9,-2.4,25,115.685,-72.3311,-990.938,-0.651047,-0.35549,-1.80116,
2026_07_06_17_13_07.339,3.873,41.5,0,0.766,0,0,0,0, ,0,0,0,0,0, ,115.6,-73.7,-990.4,0.3,-1.1,-2.2,25,115.756,-72.3444,-990.917,-0.599186,-0.394765,-1.83156,
2026_07_06_17_13_07.359,3.873,41.5,0,0.768,0,0,0,0, ,0,0,0,0,0, ,115.9,-72,-991.2,0.3,-0.8,-2.1,25,115.756,-72.3752,-990.91,-0.544392,-0.428599,-1.85096,
2026_07_06_17_13_07.380,3.873,41.4,0,0.765,0,0,0,0, ,0,0,0,0,0, ,115.6,-73.7,-991.5,0,-0.7,-2.1,25,115.755,-72.4042,-990.937,-0.502078,-0.448185,-1.86614,
2026_07_06_17_13_07.398,3.873,41.3,0,0.768,0,0,0,0, ,0,0,0,0,0, ,117.6,-71.5,-992.3,0,-0.7,-2.1,25,115.807,-72.4161,-990.996,-0.471482,-0.46353,-1.88039,
2026_07_06_17_13_07.417,3.873,41.5,0,0.766,0,0,0,0, ,0,0,0,0,0, ,116,-72.3,-992.5,0,-0.8,-1.9,25,115.867,-72.3847,-991.081,-0.442751,-0.480987,-1.88768,
2026_07_06_17_13_07.437,3.873,41.4,0,0.768,0,0,0,0, ,0,0,0,0,0, ,113,-72.7,-991.5,-0.2,-0.9,-1.6,25,115.784,-72.3917,-991.137,-0.421865,-0.503473,-1.87929,
2026_07_06_17_13_07.456,3.873,41.5,0,0.768,0,0,0,0, ,0,0,0,0,0, ,114.2,-72.6,-994,-0.7,-0.1,-1.8,25,115.651,-72.4074,-991.235,-0.423579,-0.503262,-1.86836,
2026_07_06_17_13_07.477,3.873,41.4,0,0.767,0,0,0,0, ,0,0,0,0,0, ,114.6,-73.8,-991.6,-0.9,0.3,-1.9,25,115.575,-72.4557,-991.331,-0.446517,-0.4665,-1.86724,
2026_07_06_17_13_07.497,3.873,41.5,0,0.769,0,0,0,0, ,0,0,0,0,0, ,116.2,-71,-989.5,-0.5,0,-1.8,25,115.564,-72.4523,-991.283,-0.461964,-0.428932,-1.86619,
2026_07_06_17_13_07.517,3.873,41.4,0,0.768,0,0,0,0, ,0,0,0,0,0, ,117.5,-69.5,-989.5,-0.3,-0.5,-2.1,25,115.642,-72.3181,-991.175,-0.458188,-0.418029,-1.8713,
2026_07_06_17_13_07.536,3.873,41.5,0,0.769,0,0,0,0, ,0,0,0,0,0, ,117.1,-71.2,-990.3,-0.2,-0.8,-2.1,25,115.743,-72.1982,-991.097,-0.445502,-0.432164,-1.88524,
2026_07_06_17_13_07.557,3.873,41.5,0,0.768,0,0,0,0, ,0,0,0,0,0, ,115.2,-71.2,-990.7,-0.4,-0.6,-1.6,25,115.768,-72.1374,-991.06,-0.436635,-0.448486,-1.88309,
2026_07_06_17_13_07.576,3.873,41.5,0,0.768,0,0,0,0, ,0,0,0,0,0, ,114,-74.2,-990.8,-0.6,-0.5,-1.6,25,115.697,-72.1717,-991.042,-0.440496,-0.454672,-1.86584,
2026_07_06_17_13_07.596,3.873,41.5,0,0.768,0,0,0,0, ,0,0,0,0,0, ,116.8,-71.4,-990.8,-0.6,-0.4,-1.7,25,115.679,-72.2099,-991.027,-0.450216,-0.454387,-1.85269,
2026_07_06_17_13_07.616,3.873,41.3,0,0.768,0,0,0,0, ,0,0,0,0,0, ,117.4,-70.9,-991.4,-0.5,-0.2,-2.1,25,115.766,-72.1454,-991.031,-0.456297,-0.444979,-1.85557,
2026_07_06_17_13_07.636,3.873,41.4,0,0.768,0,0,0,0, ,0,0,0,0,0, ,117.4,-72,-992.1,-0.7,-0.3,-2.2,25,115.865,-72.103,-991.075,-0.465054,-0.433098,-1.87351,
2026_07_06_17_13_07.656,3.873,41.3,0,0.769,0,0,0,0, ,0,0,0,0,0, ,116.8,-73.4,-989.6,-0.7,-0.3,-1.5,25,115.94,-72.1394,-991.061,-0.479371,-0.424987,-1.87208,
2026_07_06_17_13_07.675,3.873,41.3,0,0.769,0,0,0,0, ,0,0,0,0,0, ,116.3,-71.1,-991.3,-0.5,-0.2,-1.2,25,115.978,-72.1461,-991.024,-0.486722,-0.414324,-1.84026,
2026_07_06_17_13_07.694,3.873,41.4,0,0.768,0,0,0,0, ,0,0,0,0,0, ,116.9,-70.4,-991,-0.4,-0.2,-1.6,25,116.015,-72.061,-991.032,-0.484484,-0.401263,-1.81344,
2026_07_06_17_13_07.716,3.873,41.4,0,0.768,0,0,0,0, ,0,0,0,0,0, ,116,-70.8,-990.1,-0.3,-0.4,-1.8,25,116.042,-71.972,-991.002,-0.476289,-0.395093,-1.80652,
2026_07_06_17_13_07.735,3.873,41.3,0,0.768,0,0,0,0, ,0,0,0,0,0, ,116.4,-69.8,-991.5,-0.3,-0.9,-2.1,25,116.052,-71.8701,-990.99,-0.465546,-0.410626,-1.81527,
2026_07_06_17_13_07.756,3.873,41.5,0,0.769,0,0,0,0, ,0,0,0,0,0, ,116.9,-73.7,-989.6,-0.5,-0.3,-2,25,116.088,-71.8628,-990.963,-0.461552,-0.422166,-1.82957,
2026_07_06_17_13_07.775,3.873,41.4,0,0.767,0,0,0,0, ,0,0,0,0,0, ,118.1,-71.6,-990.4,-0.4,-0.6,-1.8,25,116.174,-71.9108,-990.905,-0.460848,-0.423862,-1.83386,
2026_07_06_17_13_07.796,3.873,41.4,0,0.77,0,0,0,0, ,0,0,0,0,0, ,115.7,-70.3,-991.9,-0.5,-0.5,-1.5,25,116.218,-71.8522,-990.92,-0.460187,-0.431549,-1.82266,
2026_07_06_17_13_07.814,3.873,41.4,0,0.768,0,0,0,0, ,0,0,0,0,0, ,112.9,-72.7,-989.2,-0.9,0,-1.4,25,116.101,-71.8308,-990.897,-0.474801,-0.420486,-1.79995,
2026_07_06_17_13_07.834,3.873,41.4,0,0.768,0,0,0,0, ,0,0,0,0,0, ,116.4,-71.6,-989.8,-0.5,-0.1,-1.7,25,116.013,-71.8502,-990.812,-0.488524,-0.397909,-1.78472,
2026_07_06_17_13_07.854,3.873,41.4,0,0.769,0,0,0,0, ,0,0,0,0,0, ,117.5,-71.2,-991.6,0,-0.4,-2,25,116.07,-71.8228,-990.805,-0.473989,-0.388896,-1.7887,
2026_07_06_17_13_07.873,3.873,41.3,0,0.768,0,0,0,0, ,0,0,0,0,0, ,118.4,-72,-993.7,-0.2,-0.9,-2,25,116.185,-71.8092,-990.917,-0.451199,-0.404807,-1.80157,
2026_07_06_17_13_07.892,3.873,41.4,0,0.768,0,0,0,0, ,0,0,0,0,0, ,115.2,-73.6,-993,-0.3,-0.6,-1.6,25,116.222,-71.8696,-991.066,-0.438938,-0.425842,-1.80148,
2026_07_06_17_13_07.913,3.873,41.4,0,0.768,0,0,0,0, ,0,0,0,0,0, ,115.1,-73.6,-993.2,-0.6,-0.3,-1.5,25,116.157,-71.975,-991.19,-0.439612,-0.427314,-1.78615,
2026_07_06_17_13_07.932,3.873,41.3,0,0.769,0,0,0,0, ,0,0,0,0,0, ,115.8,-71.2,-992.7,-0.6,0,-1.6,25,116.114,-72.0009,-991.297,-0.449386,-0.410415,-1.77176,
2026_07_06_17_13_07.953,3.873,41.3,0,0.769,0,0,0,0, ,0,0,0,0,0, ,117.9,-69.7,-988.8,-0.3,-0.3,-1.9,25,116.159,-71.9064,-991.264,-0.449423,-0.394546,-1.77044,
2026_07_06_17_13_07.971,3.873,41.4,0,0.767,0,0,0,0, ,0,0,0,0,0, ,116.5,-71.4,-989.2,-0.2,-0.7,-1.9,25,116.222,-71.8238,-991.126,-0.437271,-0.400972,-1.77833,
2026_07_06_17_13_07.993,3.873,41.4,0,0.768,0,0,0,0, ,0,0,0,0,0, ,116,-73.4,-994,-0.7,-0.7,-1.3,25,116.224,-71.8589,-991.155,-0.438047,-0.419194,-1.76746,
2026_07_06_17_13_08.011,3.873,41.4,0,0.768,0,0,0,0, ,0,0,0,0,0, ,115.9,-73.4,-989.9,-0.8,-0.2,-1.6,25,116.207,-71.9528,-991.203,-0.457056,-0.421072,-1.74812,
2026_07_06_17_13_08.031,3.873,41.3,0,0.766,0,0,0,0, ,0,0,0,0,0, ,117.1,-70.4,-989.7,-0.4,-0.3,-1.5,25,116.225,-71.9496,-991.118,-0.465767,-0.410647,-1.73605,
2026_07_06_17_13_08.052,3.873,41.3,0,0.769,0,0,0,0, ,0,0,0,0,0, ,117,-72.3,-989.7,-0.1,-0.6,-1.9,25,116.275,-71.913,-991.031,-0.452619,-0.413045,-1.73385,
2026_07_06_17_13_08.072,3.873,41.4,0,0.768,0,0,0,0, ,0,0,0,0,0, ,116.2,-71.8,-990.1,0.1,-1.1,-1.9,25,116.295,-71.9214,-990.962,-0.425037,-0.439672,-1.74397,
2026_07_06_17_13_08.092,3.873,41.4,0,0.768,0,0,0,0, ,0,0,0,0,0, ,116.6,-71.8,-991.5,0,-1,-1.7,25,116.301,-71.914,-990.952,-0.39609,-0.476864,-1.74739,
2026_07_06_17_13_08.110,3.873,41.4,0,0.768,0,0,0,0, ,0,0,0,0,0, ,112.9,-73.1,-993.8,-0.6,-0.2,-1.6,25,116.207,-71.9466,-991.056,-0.390234,-0.484367,-1.74145,
2026_07_06_17_13_08.130,3.873,41.4,0,0.768,0,0,0,0, ,0,0,0,0,0, ,116.5,-72.7,-990.4,-0.9,0.1,-1.7,25,116.115,-72.0047,-991.119,-0.412157,-0.457898,-1.73588,
2026_07_06_17_13_08.149,3.873,41.3,0,0.768,0,0,0,0, ,0,0,0,0,0, ,116.2,-72.2,-988.5,-0.5,-0.3,-1.7,25,116.129,-72.0319,-991.018,-0.429698,-0.436089,-1.73369,
2026_07_06_17_13_08.171,3.873,41.4,0,0.768,0,0,0,0, ,0,0,0,0,0, ,117,-69.8,-989.5,0,-1,-1.9,25,116.158,-71.969,-990.895,-0.418747,-0.449124,-1.73773,
2026_07_06_17_13_08.192,3.873,41.3,0,0.766,0,0,0,0, ,0,0,0,0,0, ,115.6,-71.4,-991.9,-0.1,-1.1,-2,25,116.167,-71.8856,-990.883,-0.396277,-0.48574,-1.75067,
2026_07_06_17_13_08.211,3.873,41.3,0,0.769,0,0,0,0, ,0,0,0,0,0, ,115.4,-72.7,-992.4,-0.5,-0.7,-1.5,25,116.126,-71.8956,-990.96,-0.39041,-0.510984,-1.75063,
2026_07_06_17_13_08.230,3.873,41.2,0,0.77,0,0,0,0, ,0,0,0,0,0, ,112.9,-74.3,-990.7,-0.5,-0.1,-1.5,25,116.006,-71.9934,-990.996,-0.397088,-0.504221,-1.73536,
2026_07_06_17_13_08.250,3.873,41.4,0,0.769,0,0,0,0, ,0,0,0,0,0, ,116.3,-72.2,-991.9,-0.4,0.1,-2,25,115.92,-72.0699,-991.015,-0.400312,-0.473495,-1.73625,
2026_07_06_17_13_08.271,3.873,41.4,0,0.768,0,0,0,0, ,0,0,0,0,0, ,112.7,-72,-990.2,-0.6,-0.1,-2,25,115.833,-72.0718,-991.017,-0.406387,-0.444641,-1.75232,
2026_07_06_17_13_08.289,3.873,41.4,0,0.768,0,0,0,0, ,0,0,0,0,0, ,116.8,-72,-991.9,-0.6,-0.5,-2.1,25,115.767,-72.0674,-991.019,-0.418185,-0.435827,-1.77046,
2026_07_06_17_13_08.309,3.873,41.3,0,0.768,0,0,0,0, ,0,0,0,0,0, ,116.3,-74.2,-990.1,-0.4,-0.9,-1.9,25,115.815,-72.1303,-991.018,-0.423171,-0.451925,-1.78445,
2026_07_06_17_13_08.329,3.873,41.4,0,0.766,0,0,0,0, ,0,0,0,0,0, ,117.7,-73.1,-991.2,-0.1,-0.6,-1.7,25,115.887,-72.2229,-990.995,-0.412618,-0.470089,-1.7854,
2026_07_06_17_13_08.348,3.873,41.3,0,0.769,0,0,0,0, ,0,0,0,0,0, ,115.1,-71.4,-989.6,0.2,-0.6,-2.1,25,115.919,-72.2246,-990.959,-0.384428,-0.478006,-1.79238,
2026_07_06_17_13_08.369,3.873,41.3,0,0.769,0,0,0,0, ,0,0,0,0,0, ,116,-71,-990.1,0.1,-1,-2.1,25,115.896,-72.1621,-990.891,-0.351861,-0.497627,-1.81113,
2026_07_06_17_13_08.388,3.873,41.3,0,0.769,0,0,0,0, ,0,0,0,0,0, ,114.3,-74.2,-991.5,-0.1,-1.1,-2.4,25,115.851,-72.1888,-990.886,-0.330419,-0.531287,-1.83787,
2026_07_06_17_13_08.408,3.873,41.3,0,0.77,0,0,0,0, ,0,0,0,0,0, ,115.6,-71.8,-989.1,-0.3,-1.2,-2.4,25,115.796,-72.2383,-990.85,-0.322472,-0.56899,-1.87212,
2026_07_06_17_13_08.437,3.873,41.4,0,0.768,0,0,0,0, ,0,0,0,0,0, ,116.2,-73.1,-994.6,0,-0.9,-2.5,25,115.802,-72.2512,-990.911,-0.311962,-0.598302,-1.90734,
2026_07_06_17_13_08.448,3.873,41.3,0,0.768,0,0,0,0, ,0,0,0,0,0, ,115.7,-71.6,-989.8,-0.1,-0.7,-1.6,25,115.811,-72.2572,-990.99,-0.295999,-0.610593,-1.91603,
2026_07_06_17_13_08.468,3.873,41.3,0,0.766,0,0,0,0, ,0,0,0,0,0, ,116.6,-71.7,-991.3,0,-0.7,-1.8,25,115.832,-72.2202,-990.963,-0.281008,-0.616041,-1.90287,
2026_07_06_17_13_08.487,3.873,41.4,0,0.769,0,0,0,0, ,0,0,0,0,0, ,112.6,-74.5,-992,-0.6,-0.1,-2.1,25,115.757,-72.2738,-991.005,-0.282165,-0.602876,-1.90574,
2026_07_06_17_13_08.508,3.873,41.3,0,0.769,0,0,0,0, ,0,0,0,0,0, ,114.7,-74,-990.9,-1,0,-2,25,115.628,-72.3942,-991.032,-0.313721,-0.569185,-1.91453,
2026_07_06_17_13_08.527,3.873,41.4,0,0.768,0,0,0,0, ,0,0,0,0,0, ,117.4,-73.7,-989.6,-0.7,-0.5,-1.9,25,115.654,-72.4829,-990.984,-0.3464,-0.549735,-1.91669,
2026_07_06_17_13_08.548,3.873,41.2,0,0.769,0,0,0,0, ,0,0,0,0,0, ,116.4,-70.9,-989.2,-0.1,-0.9,-1.8,25,115.73,-72.4718,-990.888,-0.349667,-0.558891,-1.91263,
2026_07_06_17_13_08.567,3.873,41.3,0,0.769,0,0,0,0, ,0,0,0,0,0, ,115.8,-72.2,-991.9,-0.1,-0.8,-1.6,25,115.753,-72.4156,-990.867,-0.334453,-0.576631,-1.89967,
2026_07_06_17_13_08.588,3.873,41.3,0,0.768,0,0,0,0, ,0,0,0,0,0, ,114.2,-73.1,-989.6,-0.4,-0.3,-1.4,25,115.707,-72.4299,-990.86,-0.329306,-0.575008,-1.87532,
2026_07_06_17_13_08.606,3.873,41.3,0,0.767,0,0,0,0, ,0,0,0,0,0, ,114.3,-75.4,-988.8,-0.7,-0.2,-1.6,25,115.618,-72.5408,-990.759,-0.342755,-0.555203,-1.85244,
2026_07_06_17_13_08.627,3.873,41.3,0,0.769,0,0,0,0, ,0,0,0,0,0, ,115.1,-74,-987.7,-0.5,-0.4,-1.9,25,115.562,-72.6724,-990.606,-0.358431,-0.539651,-1.8462,
2026_07_06_17_13_08.645,3.873,41.2,0,0.768,0,0,0,0, ,0,0,0,0,0, ,115.3,-71.2,-989.9,-0.1,-1,-2,25,115.54,-72.668,-990.496,-0.35487,-0.549423,-1.85253,
2026_07_06_17_13_08.666,3.873,41.2,0,0.769,0,0,0,0, ,0,0,0,0,0, ,116.5,-71.6,-991.8,0,-1.1,-1.9,25,115.562,-72.5907,-990.517,-0.336292,-0.579927,-1.85847,
2026_07_06_17_13_08.685,3.873,41.4,0,0.768,0,0,0,0, ,0,0,0,0,0, ,113.6,-73.6,-993.7,-0.3,-0.5,-1.5,25,115.531,-72.5913,-990.653,-0.32494,-0.593337,-1.84881,
2026_07_06_17_13_08.707,3.873,41.3,0,0.768,0,0,0,0, ,0,0,0,0,0, ,114.5,-74.4,-991.9,-1.1,0.2,-1.6,25,115.44,-72.6771,-990.784,-0.347795,-0.566321,-1.8306,
2026_07_06_17_13_08.725,3.873,41.3,0,0.769,0,0,0,0, ,0,0,0,0,0, ,116,-72.3,-988.7,-1,0,-1.6,25,115.429,-72.7181,-990.755,-0.390586,-0.525718,-1.81655,
2026_07_06_17_13_08.746,3.873,41.3,0,0.768,0,0,0,0, ,0,0,0,0,0, ,114.9,-73.1,-988.2,-0.5,-0.9,-1.7,25,115.43,-72.717,-990.614,-0.412488,-0.521103,-1.8064,
2026_07_06_17_13_08.765,3.873,41.2,0,0.768,0,0,0,0, ,0,0,0,0,0, ,115.2,-72.7,-990.7,-0.5,-0.8,-1.9,25,115.407,-72.7282,-990.543,-0.41782,-0.541146,-1.80601,
2026_07_06_17_13_08.787,3.873,41.2,0,0.768,0,0,0,0, ,0,0,0,0,0, ,115.8,-73.4,-992.3,-0.4,-0.3,-1.8,25,115.413,-72.7478,-990.602,-0.419781,-0.541685,-1.80869,
2026_07_06_17_13_08.806,3.873,41.2,0,0.768,0,0,0,0, ,0,0,0,0,0, ,115.7,-72.2,-990.6,-0.3,-0.3,-1.6,25,115.433,-72.751,-990.653,-0.415529,-0.526958,-1.80207,
2026_07_06_17_13_08.826,3.873,41.3,0,0.768,0,0,0,0, ,0,0,0,0,0, ,114.9,-71.6,-992,-0.5,-0.1,-1.7,25,115.425,-72.6991,-990.693,-0.414583,-0.507034,-1.7928,
2026_07_06_17_13_08.845,3.873,41.3,0,0.768,0,0,0,0, ,0,0,0,0,0, ,113.8,-73.8,-990.6,-0.8,-0.1,-1.9,25,115.36,-72.6992,-990.73,-0.428928,-0.48223,-1.79324,
2026_07_06_17_13_08.866,3.873,41.4,0,0.766,0,0,0,0, ,0,0,0,0,0, ,117.1,-72.8,-990.4,-0.9,-0.3,-2,25,115.365,-72.7358,-990.716,-0.454587,-0.465032,-1.80279,
2026_07_06_17_13_08.884,3.873,41.2,0,0.768,0,0,0,0, ,0,0,0,0,0, ,115.1,-73.4,-990.2,-0.9,-0.5,-1.7,25,115.41,-72.758,-990.69,-0.48173,-0.461069,-1.80567,
2026_07_06_17_13_08.907,3.873,41.2,0,0.768,0,0,0,0, ,0,0,0,0,0, ,117.6,-70.9,-990.4,-0.7,-0.5,-1.3,25,115.467,-72.7209,-990.667,-0.501124,-0.463441,-1.78704,
2026_07_06_17_13_08.923,3.873,41.4,0,0.768,0,0,0,0, ,0,0,0,0,0, ,114.6,-71.8,-990.9,-0.5,-0.3,-1.4,25,115.506,-72.6374,-990.666,-0.50715,-0.459575,-1.76041,
2026_07_06_17_13_08.945,3.873,41.4,0,0.768,0,0,0,0, ,0,0,0,0,0, ,115.1,-73.3,-990.1,-0.6,0,-1.7,25,115.466,-72.6321,-990.656,-0.509761,-0.44071,-1.74759,
2026_07_06_17_13_08.963,3.873,41.2,0,0.768,0,0,0,0, ,0,0,0,0,0, ,114.7,-74.7,-991.2,-0.6,-0.2,-2,25,115.431,-72.7154,-990.655,-0.51526,-0.419948,-1.75383,
2026_07_06_17_13_08.985,3.873,41.3,0,0.769,0,0,0,0, ,0,0,0,0,0, ,116.6,-72,-990.6,-0.3,-0.5,-1.9,25,115.445,-72.7541,-990.67,-0.511283,-0.415686,-1.76578,
2026_07_06_17_13_09.003,3.873,41.2,0,0.766,0,0,0,0, ,0,0,0,0,0, ,117.4,-71,-992.5,-0.6,-0.3,-1.2,25,115.539,-72.6777,-990.724,-0.507549,-0.41473,-1.75263,
2026_07_06_17_13_09.023,3.873,41.3,0,0.769,0,0,0,0, ,0,0,0,0,0, ,114,-74.8,-990.4,-0.8,-0.1,-1.3,25,115.549,-72.6912,-990.768,-0.519276,-0.401645,-1.722,
2026_07_06_17_13_09.042,3.873,41.3,0,0.766,0,0,0,0, ,0,0,0,0,0, ,116.3,-72.1,-989.8,-0.7,-0.5,-1.4,25,115.525,-72.7375,-990.727,-0.533336,-0.395451,-1.69934,
2026_07_06_17_13_09.063,3.873,41.2,0,0.769,0,0,0,0, ,0,0,0,0,0, ,114.9,-73.1,-989.2,-0.3,-0.7,-1.8,25,115.529,-72.7291,-990.652,-0.531304,-0.407916,-1.69328,
2026_07_06_17_13_09.082,3.873,41.3,0,0.768,0,0,0,0, ,0,0,0,0,0, ,116.3,-70.8,-991.2,-0.3,-0.3,-2.1,25,115.534,-72.6816,-990.625,-0.517209,-0.413527,-1.70893,
2026_07_06_17_13_09.104,3.873,41.3,0,0.768,0,0,0,0, ,0,0,0,0,0, ,116.4,-72.3,-993,-1,-0.1,-1.6,25,115.583,-72.6126,-990.715,-0.525301,-0.400515,-1.71752,
2026_07_06_17_13_09.122,3.873,41.2,0,0.768,0,0,0,0, ,0,0,0,0,0, ,115.1,-74.9,-989,-0.8,-0.3,-1.4,25,115.594,-72.6728,-990.732,-0.548134,-0.388296,-1.70427,
2026_07_06_17_13_09.144,3.873,41.2,0,0.768,0,0,0,0, ,0,0,0,0,0, ,116.2,-71.8,-991.8,-0.5,-0.5,-1.5,25,115.597,-72.7141,-990.712,-0.554342,-0.38901,-1.68877,
2026_07_06_17_13_09.161,3.873,41.3,0,0.768,0,0,0,0, ,0,0,0,0,0, ,117,-71,-991.3,-0.4,-0.4,-1.6,25,115.658,-72.634,-990.763,-0.547984,-0.392726,-1.68032,
2026_07_06_17_13_09.181,3.873,41.2,0,0.769,0,0,0,0, ,0,0,0,0,0, ,114.7,-71.8,-991.2,-0.1,-0.7,-2,25,115.67,-72.5588,-990.793,-0.529825,-0.40231,-1.68761,
2026_07_06_17_13_09.200,3.873,41.2,0,0.768,0,0,0,0, ,0,0,0,0,0, ,115.9,-70.8,-990.9,-0.1,-0.9,-2,25,115.647,-72.4821,-990.808,-0.503633,-0.426544,-1.70665,
2026_07_06_17_13_09.224,3.873,41.3,0,0.768,0,0,0,0, ,0,0,0,0,0, ,116.6,-72.7,-991.8,-0.5,-0.4,-1.4,25,115.684,-72.4375,-990.841,-0.491224,-0.440161,-1.70624,
2026_07_06_17_13_09.239,3.873,41.2,0,0.768,0,0,0,0, ,0,0,0,0,0, ,111.9,-75,-990.8,-0.9,0,-1.4,25,115.597,-72.5236,-990.869,-0.503946,-0.425526,-1.68758,
2026_07_06_17_13_09.262,3.873,41.2,0,0.768,0,0,0,0, ,0,0,0,0,0, ,117.4,-72.8,-989.2,-0.8,-0.1,-1.6,25,115.539,-72.6074,-990.816,-0.525034,-0.402643,-1.67615,
2026_07_06_17_13_09.280,3.873,41.3,0,0.768,0,0,0,0, ,0,0,0,0,0, ,115.9,-71.2,-988.7,-0.1,-0.8,-2,25,115.607,-72.5704,-990.703,-0.520461,-0.405528,-1.6837,
2026_07_06_17_13_09.301,3.873,41.2,0,0.768,0,0,0,0, ,0,0,0,0,0, ,116.4,-67.5,-992.9,0,-0.9,-1.7,25,115.64,-72.3742,-990.709,-0.491793,-0.432613,-1.69383,
2026_07_06_17_13_09.319,3.873,41.2,0,0.768,0,0,0,0, ,0,0,0,0,0, ,117.7,-72.6,-993.2,-0.6,-0.2,-2.1,25,115.726,-72.2325,-990.851,-0.480105,-0.439767,-1.70639,
2026_07_06_17_13_09.341,3.873,41.3,0,0.766,0,0,0,0, ,0,0,0,0,0, ,115.6,-75,-989.9,-0.9,-0.7,-1.7,25,115.782,-72.3281,-990.894,-0.496552,-0.44039,-1.71819,
2026_07_06_17_13_09.359,3.873,41.3,0,0.768,0,0,0,0, ,0,0,0,0,0, ,117.4,-73.2,-990.4,-0.5,-0.8,-1.5,25,115.826,-72.436,-990.848,-0.50895,-0.459257,-1.71099,
2026_07_06_17_13_09.381,3.873,41.3,0,0.766,0,0,0,0, ,0,0,0,0,0, ,114.7,-72.7,-991.2,-0.2,-1,-1.7,25,115.839,-72.4674,-990.846,-0.499264,-0.486115,-1.70423,
2026_07_06_17_13_09.399,3.873,41.2,0,0.768,0,0,0,0, ,0,0,0,0,0, ,115.1,-69.2,-991.2,-0.1,-0.8,-1.8,25,115.782,-72.3749,-990.867,-0.47798,-0.511336,-1.70702,
2026_07_06_17_13_09.420,3.873,41.2,0,0.768,0,0,0,0, ,0,0,0,0,0, ,115.2,-72.1,-992.3,-0.6,-0.4,-1.8,25,115.744,-72.2698,-990.921,-0.470182,-0.516739,-1.71268,
2026_07_06_17_13_09.438,3.873,41.2,0,0.768,0,0,0,0, ,0,0,0,0,0, ,115.7,-74.2,-991.4,-1,-0.3,-1.3,25,115.726,-72.3234,-990.978,-0.49028,-0.506578,-1.70277,
2026_07_06_17_13_09.461,3.873,41.3,0,0.769,0,0,0,0, ,0,0,0,0,0, ,114.5,-73.8,-990.1,-1.1,-0.4,-1.4,25,115.688,-72.4256,-990.964,-0.524388,-0.497037,-1.68127,
2026_07_06_17_13_09.478,3.873,41.2,0,0.769,0,0,0,0, ,0,0,0,0,0, ,113.4,-75.6,-989,-0.7,-0.5,-1.7,25,115.582,-72.5642,-990.878,-0.547277,-0.494171,-1.67327,
2026_07_06_17_13_09.499,3.873,41.2,0,0.766,0,0,0,0, ,0,0,0,0,0, ,117.7,-66.8,-988.8,0,-0.7,-1.9,25,115.58,-72.4811,-990.757,-0.535255,-0.50062,-1.68099,
2026_07_06_17_13_09.518,3.873,41.3,0,0.769,0,0,0,0, ,0,0,0,0,0, ,112.4,-72.5,-991.3,0.2,-0.7,-2,25,115.548,-72.3085,-990.714,-0.496544,-0.512769,-1.69739,
2026_07_06_17_13_09.541,3.873,41.2,0,0.768,0,0,0,0, ,0,0,0,0,0, ,115.1,-71.1,-993.7,-0.1,-0.5,-2.1,25,115.438,-72.2775,-990.823,-0.463239,-0.518085,-1.71887,
2026_07_06_17_13_09.556,3.873,41.2,0,0.768,0,0,0,0, ,0,0,0,0,0, ,114.2,-73.2,-988.6,-0.8,-0.3,-1.8,25,115.39,-72.2698,-990.843,-0.462432,-0.510889,-1.73296,
2026_07_06_17_13_09.579,3.873,41.2,0,0.768,0,0,0,0, ,0,0,0,0,0, ,115.2,-72.7,-992.9,-1,-0.2,-1.7,25,115.348,-72.3112,-990.837,-0.489097,-0.494991,-1.734,
2026_07_06_17_13_09.597,3.873,41.2,0,0.766,0,0,0,0, ,0,0,0,0,0, ,113.5,-71.4,-988.1,-0.7,-0.1,-1.7,25,115.287,-72.2953,-990.817,-0.511089,-0.473968,-1.73193,
2026_07_06_17_13_09.620,3.873,41.2,0,0.769,0,0,0,0, ,0,0,0,0,0, ,117.3,-69.2,-991,-0.4,-0.6,-1.9,25,115.294,-72.1737,-990.739,-0.51346,-0.466414,-1.73607,
2026_07_06_17_13_09.635,3.873,41.2,0,0.768,0,0,0,0, ,0,0,0,0,0, ,118.2,-72.1,-990.6,-0.3,-0.4,-1.7,25,115.444,-72.0809,-990.743,-0.5035,-0.468461,-1.73997,
2026_07_06_17_13_09.660,3.873,41.1,0,0.766,0,0,0,0, ,0,0,0,0,0, ,114.5,-73.9,-991.6,-0.7,-0.6,-1.7,25,115.499,-72.1369,-990.765,-0.503286,-0.470383,-1.73753,
2026_07_06_17_13_09.675,3.873,41.2,0,0.768,0,0,0,0, ,0,0,0,0,0, ,115.1,-72.7,-991.9,-0.9,-0.4,-1.4,25,115.456,-72.2078,-990.825,-0.521367,-0.472187,-1.72611,
2026_07_06_17_13_09.697,3.873,41.2,0,0.768,0,0,0,0, ,0,0,0,0,0, ,114.7,-72.6,-991.2,-0.6,-0.5,-1.7,25,115.422,-72.2347,-990.869,-0.5353,-0.470835,-1.71537,
2026_07_06_17_13_09.715,3.873,41.2,0,0.769,0,0,0,0, ,0,0,0,0,0, ,116.2,-68.2,-990.3,-0.1,-0.5,-1.9,25,115.424,-72.1229,-990.862,-0.524008,-0.472613,-1.72053,
2026_07_06_17_13_09.738,3.873,41.2,0,0.768,0,0,0,0, ,0,0,0,0,0, ,115.3,-72.1,-992.1,0,-0.7,-2,25,115.444,-72.0027,-990.882,-0.495123,-0.480375,-1.73451,
2026_07_06_17_13_09.755,3.873,41.2,0,0.768,0,0,0,0, ,0,0,0,0,0, ,116,-73.1,-992.4,-0.4,-0.3,-1.9,25,115.457,-72.0391,-990.966,-0.477139,-0.481571,-1.74765,
2026_07_06_17_13_09.778,3.873,41.3,0,0.768,0,0,0,0, ,0,0,0,0,0, ,116.2,-73.2,-992.3,-1,-0.4,-1.4,25,115.496,-72.1068,-991.05,-0.49072,-0.473553,-1.7417,
2026_07_06_17_13_09.795,3.873,41.2,0,0.768,0,0,0,0, ,0,0,0,0,0, ,113.8,-72.5,-989.8,-0.9,-0.3,-1.4,25,115.466,-72.1521,-991.05,-0.518707,-0.466024,-1.72087,
2026_07_06_17_13_09.817,3.873,41.3,0,0.768,0,0,0,0, ,0,0,0,0,0, ,116.3,-71.1,-989.2,-0.5,-0.4,-1.7,25,115.44,-72.1306,-990.956,-0.529755,-0.458954,-1.71046,
2026_07_06_17_13_09.835,3.873,41.2,0,0.769,0,0,0,0, ,0,0,0,0,0, ,114.7,-69.9,-990.2,0.1,-0.6,-2,25,115.444,-72.0312,-990.879,-0.50966,-0.461455,-1.71896,
2026_07_06_17_13_09.861,3.873,41.2,0,0.768,0,0,0,0, ,0,0,0,0,0, ,117.6,-68.2,-992.4,0.2,-0.9,-1.9,25,115.487,-71.8496,-990.905,-0.469462,-0.479039,-1.73304,
2026_07_06_17_13_09.873,3.873,41.1,0,0.769,0,0,0,0, ,0,0,0,0,0, ,114.9,-72.5,-993.1,-0.4,-0.3,-2.1,25,115.533,-71.7582,-991.017,-0.446948,-0.48641,-1.74931,
2026_07_06_17_13_09.898,3.873,41.2,0,0.768,0,0,0,0, ,0,0,0,0,0, ,114,-73.7,-992.1,-1.1,-0.7,-1.6,25,115.467,-71.84,-991.114,-0.465415,-0.487238,-1.75545,
2026_07_06_17_13_09.914,3.873,41.2,0,0.768,0,0,0,0, ,0,0,0,0,0, ,114.9,-72.8,-991,-0.9,-0.3,-1.6,25,115.405,-71.9259,-991.14,-0.497991,-0.488016,-1.74597,
2026_07_06_17_13_09.937,3.873,41.2,0,0.768,0,0,0,0, ,0,0,0,0,0, ,115.1,-70.1,-989.5,-0.4,-0.3,-1.7,25,115.381,-71.8969,-991.086,-0.507254,-0.476558,-1.74013,
2026_07_06_17_13_09.952,3.873,41.2,0,0.769,0,0,0,0, ,0,0,0,0,0, ,117.4,-67.6,-991,-0.1,-0.8,-1.8,25,115.434,-71.7112,-991.035,-0.491578,-0.481034,-1.74073,
2026_07_06_17_13_09.978,3.873,41.1,0,0.768,0,0,0,0, ,0,0,0,0,0, ,115.8,-72.9,-991.8,-0.2,-0.9,-1.7,25,115.505,-71.6222,-991.057,-0.470763,-0.503518,-1.74129,
2026_07_06_17_13_09.993,3.873,41.2,0,0.768,0,0,0,0, ,0,0,0,0,0, ,112.4,-75.1,-994.1,-0.4,-0.7,-1.6,25,115.419,-71.7671,-991.173,-0.460357,-0.521584,-1.73573,
2026_07_06_17_13_10.015,3.873,41.1,0,0.769,0,0,0,0, ,0,0,0,0,0, ,111.2,-74.4,-990.2,-0.4,-0.3,-1.8,25,115.199,-71.9488,-991.232,-0.456679,-0.520269,-1.73355,
2026_07_06_17_13_10.039,3.873,41.2,0,0.768,0,0,0,0, ,0,0,0,0,0, ,115.3,-68.4,-989.2,0,-0.6,-1.8,25,115.08,-71.9154,-991.139,-0.441038,-0.515987,-1.7376,
2026_07_06_17_13_10.062,3.873,41.2,0,0.766,0,0,0,0, ,0,0,0,0,0, ,115.9,-71.2,-991.3,0,-1.1,-1.5,25,115.112,-71.7865,-991.085,-0.414162,-0.536341,-1.73226,
2026_07_06_17_13_10.072,3.873,41.2,0,0.768,0,0,0,0, ,0,0,0,0,0, ,111.4,-75.4,-992.6,-0.4,-1,-1.5,25,115.022,-71.8787,-991.137,-0.401112,-0.567642,-1.71811,
2026_07_06_17_13_10.095,3.873,41.1,0,0.768,0,0,0,0, ,0,0,0,0,0, ,113.6,-73.7,-991.9,-0.9,-0.2,-1.9,25,114.869,-72.0415,-991.205,-0.416278,-0.569614,-1.71701,
2026_07_06_17_13_10.111,3.873,41.1,0,0.766,0,0,0,0, ,0,0,0,0,0, ,115.6,-70.4,-991.4,-0.8,-0.6,-2.2,25,114.852,-72.042,-991.232,-0.442708,-0.559278,-1.7373,
2026_07_06_17_13_10.136,3.873,41.1,0,0.769,0,0,0,0, ,0,0,0,0,0, ,115.4,-72.3,-990.3,-0.2,-1,-2.3,25,114.892,-71.9999,-991.209,-0.446199,-0.573947,-1.76854,
2026_07_06_17_13_10.151,3.873,41.2,0,0.768,0,0,0,0, ,0,0,0,0,0, ,115.6,-71.2,-991.5,0.3,-0.5,-2,25,114.929,-71.9846,-991.19,-0.415962,-0.584675,-1.79179,
2026_07_06_17_13_10.174,3.873,41.1,0,0.768,0,0,0,0, ,0,0,0,0,0, ,112.9,-73.9,-992,0.1,-0.3,-1.8,25,114.888,-72.0191,-991.224,-0.378427,-0.573422,-1.79838,
2026_07_06_17_13_10.190,3.873,41.1,0,0.768,0,0,0,0, ,0,0,0,0,0, ,112.9,-73.2,-992.5,-0.5,-0.6,-1.5,25,114.766,-72.1124,-991.287,-0.367554,-0.565901,-1.78934,
2026_07_06_17_13_10.216,3.873,41.1,0,0.768,0,0,0,0, ,0,0,0,0,0, ,112.7,-74.4,-991.9,-0.9,-0.1,-1.8,25,114.647,-72.2152,-991.342,-0.387813,-0.552744,-1.78085,
2026_07_06_17_13_10.231,3.873,41.1,0,0.768,0,0,0,0, ,0,0,0,0,0, ,115.1,-73.4,-990.3,-0.7,-0.5,-2,25,114.601,-72.3179,-991.328,-0.41293,-0.537343,-1.78811,
2026_07_06_17_13_10.253,3.873,41.2,0,0.768,0,0,0,0, ,0,0,0,0,0, ,117.3,-71.1,-991,0,-0.7,-2.1,25,114.699,-72.3137,-991.286,-0.409095,-0.541161,-1.80407,
2026_07_06_17_13_10.270,3.873,41.2,0,0.768,0,0,0,0, ,0,0,0,0,0, ,116,-70.3,-991.5,0,-1,-1.6,25,114.817,-72.2154,-991.284,-0.384166,-0.559981,-1.80687,
2026_07_06_17_13_10.292,3.873,41.1,0,0.768,0,0,0,0, ,0,0,0,0,0, ,111.8,-74.3,-992.5,-0.6,-0.4,-1.6,25,114.762,-72.2206,-991.328,-0.379037,-0.568513,-1.79426,
2026_07_06_17_13_10.309,3.873,41.2,0,0.768,0,0,0,0, ,0,0,0,0,0, ,112.4,-74.3,-991.6,-1,0,-1.8,25,114.599,-72.3473,-991.372,-0.40469,-0.546057,-1.78852,
2026_07_06_17_13_10.333,3.873,41.2,0,0.768,0,0,0,0, ,0,0,0,0,0, ,113.2,-72,-990.4,-0.8,-0.1,-1.9,25,114.49,-72.3962,-991.349,-0.434873,-0.515828,-1.79226,
2026_07_06_17_13_10.349,3.873,41.1,0,0.766,0,0,0,0, ,0,0,0,0,0, ,116.8,-69.7,-989.5,-0.3,-0.7,-1.8,25,114.521,-72.302,-991.264,-0.441888,-0.50877,-1.79578,
2026_07_06_17_13_10.373,3.873,41.1,0,0.768,0,0,0,0, ,0,0,0,0,0, ,115.1,-71.6,-991,-0.3,-0.7,-1.6,25,114.608,-72.2013,-991.202,-0.433242,-0.520423,-1.78994,
2026_07_06_17_13_10.389,3.873,41.2,0,0.768,0,0,0,0, ,0,0,0,0,0, ,111.4,-75,-991.3,-0.5,-0.7,-1.4,25,114.525,-72.2683,-991.199,-0.431216,-0.531366,-1.77228,
2026_07_06_17_13_10.413,3.873,41,0,0.768,0,0,0,0, ,0,0,0,0,0, ,111.6,-74.8,-991.9,-0.5,-0.4,-1.8,25,114.341,-72.4286,-991.223,-0.435408,-0.532502,-1.76178,
2026_07_06_17_13_10.428,3.873,41.1,0,0.768,0,0,0,0, ,0,0,0,0,0, ,114.9,-71.8,-991.2,-0.2,0.1,-2.2,25,114.274,-72.4817,-991.243,-0.430203,-0.509193,-1.77629,
2026_07_06_17_13_10.452,3.873,41.2,0,0.766,0,0,0,0, ,0,0,0,0,0, ,116.3,-69.7,-990.4,-0.2,-0.1,-2,25,114.355,-72.3762,-991.216,-0.416175,-0.478164,-1.79602,
2026_07_06_17_13_10.471,3.873,41.1,0,0.769,0,0,0,0, ,0,0,0,0,0, ,115.3,-74.7,-992.1,-0.3,-0.4,-1.6,25,114.443,-72.3655,-991.218,-0.406049,-0.46426,-1.79626,
2026_07_06_17_13_10.497,3.873,41.1,0,0.768,0,0,0,0, ,0,0,0,0,0, ,111.2,-75.5,-990.9,-0.8,0.1,-1.7,25,114.37,-72.5321,-991.235,-0.414821,-0.44511,-1.78735,
2026_07_06_17_13_10.507,3.873,41.1,0,0.768,0,0,0,0, ,0,0,0,0,0, ,116.5,-73.1,-989.9,-0.9,0,-1.7,25,114.339,-72.6398,-991.185,-0.44134,-0.414939,-1.78203,
2026_07_06_17_13_10.531,3.873,41.2,0,0.769,0,0,0,0, ,0,0,0,0,0, ,116.4,-71.2,-989.3,-0.5,-0.3,-1.8,25,114.467,-72.61,-991.088,-0.457102,-0.398795,-1.78008,
2026_07_06_17_13_10.547,3.873,41.1,0,0.768,0,0,0,0, ,0,0,0,0,0, ,116.6,-70.8,-990.1,-0.2,-0.6,-1.8,25,114.591,-72.5119,-991.003,-0.450575,-0.401915,-1.78129,
2026_07_06_17_13_10.571,3.873,41.2,0,0.768,0,0,0,0, ,0,0,0,0,0, ,116.2,-72.2,-992.7,-0.3,-0.8,-1.5,25,114.701,-72.4502,-991.028,-0.438353,-0.420079,-1.77329,
2026_07_06_17_13_10.587,3.873,41.2,0,0.769,0,0,0,0, ,0,0,0,0,0, ,112.7,-75.3,-991.6,-0.5,-0.5,-1.4,25,114.686,-72.5294,-991.096,-0.436016,-0.43409,-1.75359,
2026_07_06_17_13_10.610,3.873,41.1,0,0.769,0,0,0,0, ,0,0,0,0,0, ,114.5,-72,-992.1,-0.5,-0.3,-1.4,25,114.62,-72.5977,-991.142,-0.439915,-0.432013,-1.73204,
2026_07_06_17_13_10.626,3.873,41.1,0,0.768,0,0,0,0, ,0,0,0,0,0, ,113.2,-69.8,-989.8,-0.5,-0.2,-1.7,25,114.573,-72.4942,-991.13,-0.443576,-0.420921,-1.72095,
2026_07_06_17_13_10.650,3.873,41.1,0,0.77,0,0,0,0, ,0,0,0,0,0, ,117.1,-72.7,-990.4,-0.6,-0.6,-2,25,114.608,-72.4184,-991.067,-0.450061,-0.419647,-1.72881,
2026_07_06_17_13_10.666,3.873,41.1,0,0.768,0,0,0,0, ,0,0,0,0,0, ,114.8,-74.4,-990.9,-0.4,-0.8,-1.8,25,114.69,-72.4874,-991.042,-0.453104,-0.436731,-1.73924,
2026_07_06_17_13_10.691,3.873,41.2,0,0.769,0,0,0,0, ,0,0,0,0,0, ,117.4,-72.2,-993.1,-0.4,-0.6,-1.4,25,114.776,-72.5369,-991.1,-0.449868,-0.452774,-1.73076,
2026_07_06_17_13_10.706,3.873,41.1,0,0.768,0,0,0,0, ,0,0,0,0,0, ,112.3,-75,-992.3,-0.5,0,-1.4,25,114.78,-72.6017,-991.198,-0.449876,-0.443464,-1.7106,
2026_07_06_17_13_10.729,3.873,41.1,0,0.768,0,0,0,0, ,0,0,0,0,0, ,113.2,-71,-992.4,-0.7,0.4,-2,25,114.657,-72.626,-991.268,-0.459025,-0.404253,-1.70996,
2026_07_06_17_13_10.746,3.873,41,0,0.768,0,0,0,0, ,0,0,0,0,0, ,119.3,-69.5,-991.2,-0.9,0.7,-1.9,25,114.754,-72.4812,-991.3,-0.479803,-0.346103,-1.72459,
2026_07_06_17_13_10.770,3.873,41,0,0.768,0,0,0,0, ,0,0,0,0,0, ,114.1,-74.7,-990.1,-1.1,0.2,-1.7,25,114.872,-72.4579,-991.261,-0.511502,-0.297591,-1.72918,
2026_07_06_17_13_10.785,3.873,41.1,0,0.769,0,0,0,0, ,0,0,0,0,0, ,114.8,-71.8,-988.5,-0.9,0,-1.7,25,114.847,-72.5062,-991.141,-0.54127,-0.273362,-1.7274,
2026_07_06_17_13_10.810,3.873,41.1,0,0.768,0,0,0,0, ,0,0,0,0,0, ,115.4,-71.2,-989.3,-0.5,-0.3,-2,25,114.862,-72.4449,-991.005,-0.550943,-0.265845,-1.73487,
2026_07_06_17_13_10.825,3.873,41.1,0,0.766,0,0,0,0, ,0,0,0,0,0, ,117.5,-71,-988.8,-0.3,-1.1,-2,25,114.959,-72.3629,-990.886,-0.541745,-0.292301,-1.75103,
2026_07_06_17_13_10.850,3.873,41,0,0.768,0,0,0,0, ,0,0,0,0,0, ,114.9,-72.8,-991,-0.3,-1.1,-2,25,115.034,-72.3347,-990.826,-0.527013,-0.34152,-1.7662,
2026_07_06_17_13_10.864,3.873,41,0,0.766,0,0,0,0, ,0,0,0,0,0, ,113.4,-75.3,-990.3,-0.6,-0.5,-1.3,25,114.981,-72.4393,-990.815,-0.52232,-0.369459,-1.75912,
2026_07_06_17_13_10.888,3.873,41.1,0,0.768,0,0,0,0, ,0,0,0,0,0, ,115.1,-72.5,-992.5,-0.4,-0.1,-1.6,25,114.936,-72.5283,-990.851,-0.52096,-0.365226,-1.74028,
2026_07_06_17_13_10.906,3.873,41,0,0.768,0,0,0,0, ,0,0,0,0,0, ,116.3,-70.5,-987.4,-0.2,-0.3,-1.8,25,114.983,-72.4656,-990.796,-0.507495,-0.355158,-1.73783,
2026_07_06_17_13_10.930,3.873,41.1,0,0.768,0,0,0,0, ,0,0,0,0,0, ,118,-69.7,-991.3,-0.2,-1.1,-1.8,25,115.115,-72.3215,-990.708,-0.488757,-0.376172,-1.74162,
2026_07_06_17_13_10.944,3.873,41,0,0.77,0,0,0,0, ,0,0,0,0,0, ,114.1,-74.2,-989.6,-0.3,-1.2,-1.8,25,115.172,-72.2988,-990.692,-0.474208,-0.423327,-1.74517,
2026_07_06_17_13_10.966,3.873,41,0,0.768,0,0,0,0, ,0,0,0,0,0, ,117.1,-73.2,-993.5,-0.3,-0.7,-1.4,25,115.198,-72.3842,-990.744,-0.463592,-0.455421,-1.73633,
2026_07_06_17_13_10.983,3.873,41,0,0.768,0,0,0,0, ,0,0,0,0,0, ,114.5,-72.8,-994.1,-0.5,-0.4,-1.4,25,115.234,-72.4217,-990.93,-0.459717,-0.461184,-1.71583,
2026_07_06_17_13_11.007,3.873,41,0,0.768,0,0,0,0, ,0,0,0,0,0, ,113.8,-70.8,-991.6,-0.3,0.1,-2.1,25,115.168,-72.3838,-991.047,-0.456078,-0.442222,-1.71792,
2026_07_06_17_13_11.022,3.873,41,0,0.768,0,0,0,0, ,0,0,0,0,0, ,117.4,-74.3,-989.1,-1,0,-2,25,115.195,-72.394,-991.005,-0.467895,-0.412227,-1.73815,
2026_07_06_17_13_11.048,3.873,41,0,0.768,0,0,0,0, ,0,0,0,0,0, ,117.5,-72.2,-987.6,-0.9,-0.8,-1.8,25,115.332,-72.4461,-990.843,-0.497274,-0.411482,-1.74801,
2026_07_06_17_13_11.062,3.873,41.1,0,0.768,0,0,0,0, ,0,0,0,0,0, ,113.8,-71.8,-991.3,-0.5,-0.7,-1.7,25,115.351,-72.4189,-990.758,-0.509627,-0.43211,-1.74814,
2026_07_06_17_13_11.087,3.873,41.1,0,0.767,0,0,0,0, ,0,0,0,0,0, ,114.8,-71.4,-989.2,-0.1,-0.3,-2,25,115.287,-72.369,-990.727,-0.496853,-0.436247,-1.75434,
2026_07_06_17_13_11.102,3.873,40.9,0,0.766,0,0,0,0, ,0,0,0,0,0, ,116.2,-71.2,-990.2,0,-0.1,-2.1,25,115.3,-72.3039,-990.665,-0.469623,-0.421851,-1.77236,
2026_07_06_17_13_11.128,3.873,41,0,0.767,0,0,0,0, ,0,0,0,0,0, ,115.6,-73.6,-992.9,0,-0.5,-2.2,25,115.337,-72.3098,-990.719,-0.441005,-0.414426,-1.79537,
2026_07_06_17_13_11.141,3.873,41.1,0,0.767,0,0,0,0, ,0,0,0,0,0, ,115.7,-74,-992,-0.4,-0.1,-2,25,115.356,-72.4006,-990.824,-0.426319,-0.407453,-1.81393,
2026_07_06_17_13_11.167,3.873,41.1,0,0.769,0,0,0,0, ,0,0,0,0,0, ,116.2,-73.8,-991.6,-0.6,0.1,-1.9,25,115.392,-72.4919,-990.884,-0.430809,-0.382624,-1.82223,
2026_07_06_17_13_11.181,3.873,41,0,0.769,0,0,0,0, ,0,0,0,0,0, ,117.1,-71.6,-987.6,-0.4,-0.3,-1.6,25,115.469,-72.5046,-990.805,-0.435025,-0.365401,-1.81783,
2026_07_06_17_13_11.206,3.873,41.1,0,0.768,0,0,0,0, ,0,0,0,0,0, ,118.2,-67,-988.7,0,-1.1,-1.7,25,115.602,-72.3093,-990.644,-0.420703,-0.385791,-1.8076,
2026_07_06_17_13_11.220,3.873,41,0,0.767,0,0,0,0, ,0,0,0,0,0, ,112,-74.7,-992.1,-0.2,-1.1,-1.9,25,115.571,-72.2204,-990.629,-0.401161,-0.429313,-1.80714,
2026_07_06_17_13_11.244,3.873,41,0,0.768,0,0,0,0, ,0,0,0,0,0, ,112.4,-76,-991.5,-0.4,-0.7,-1.9,25,115.366,-72.4111,-990.7,-0.394996,-0.457996,-1.81279,
2026_07_06_17_13_11.261,3.873,41,0,0.767,0,0,0,0, ,0,0,0,0,0, ,113.7,-73.2,-992.9,-0.8,-0.1,-1.9,25,115.225,-72.5445,-990.791,-0.407489,-0.454461,-1.81811,
2026_07_06_17_13_11.285,3.873,41.1,0,0.767,0,0,0,0, ,0,0,0,0,0, ,119.6,-70.6,-990.1,-1,0,-1.6,25,115.311,-72.5052,-990.835,-0.437501,-0.429815,-1.81396,
2026_07_06_17_13_11.300,3.873,41,0,0.767,0,0,0,0, ,0,0,0,0,0, ,117.3,-72.2,-988.8,-0.6,-0.4,-1.6,25,115.503,-72.4379,-990.75,-0.459591,-0.41581,-1.80092,
2026_07_06_17_13_11.326,3.873,41,0,0.767,0,0,0,0, ,0,0,0,0,0, ,116.2,-73.4,-990.9,-0.4,-0.7,-1.4,25,115.579,-72.4599,-990.695,-0.462053,-0.423987,-1.78258,
2026_07_06_17_13_11.339,3.873,41.1,0,0.768,0,0,0,0, ,0,0,0,0,0, ,114.9,-73.2,-991.6,-0.3,-0.8,-1.6,25,115.577,-72.5111,-990.729,-0.455225,-0.443854,-1.76536,
2026_07_06_17_13_11.364,3.873,41,0,0.768,0,0,0,0, ,0,0,0,0,0, ,117.1,-71.7,-991.3,-0.6,-0.7,-1.4,25,115.603,-72.5074,-990.773,-0.454907,-0.46251,-1.74919,
2026_07_06_17_13_11.382,3.873,41,0,0.766,0,0,0,0, ,0,0,0,0,0, ,113,-74.2,-990.4,-0.7,-0.7,-1.5,25,115.569,-72.5344,-990.778,-0.466795,-0.476982,-1.73096,
2026_07_06_17_13_11.407,3.873,41.1,0,0.768,0,0,0,0, ,0,0,0,0,0, ,115.2,-71.4,-991.3,-0.5,-0.5,-1.8,25,115.48,-72.5506,-990.782,-0.474912,-0.484478,-1.72603,
2026_07_06_17_13_11.419,3.873,41,0,0.767,0,0,0,0, ,0,0,0,0,0, ,114.2,-72.6,-989.7,-0.7,-0.4,-1.6,25,115.432,-72.517,-990.765,-0.482535,-0.482377,-1.72444,
2026_07_06_17_13_11.444,3.873,41,0,0.766,0,0,0,0, ,0,0,0,0,0, ,114.8,-71.6,-990.2,-0.4,-0.7,-1.8,25,115.375,-72.4916,-990.715,-0.486646,-0.486498,-1.72295,
2026_07_06_17_13_11.458,3.873,41,0,0.768,0,0,0,0, ,0,0,0,0,0, ,118.2,-71.5,-993.6,-1,-0.6,-1.4,25,115.444,-72.4342,-990.788,-0.499647,-0.496461,-1.71546,
2026_07_06_17_13_11.483,3.873,41,0,0.768,0,0,0,0, ,0,0,0,0,0, ,114.1,-76,-988.8,-1.1,-0.5,-1.6,25,115.487,-72.5144,-990.813,-0.533184,-0.499724,-1.70233,
2026_07_06_17_13_11.498,3.873,41,0,0.769,0,0,0,0, ,0,0,0,0,0, ,118.2,-73.3,-990.7,-0.6,-0.6,-1.8,25,115.527,-72.6445,-990.748,-0.55249,-0.502787,-1.70219,
2026_07_06_17_13_11.523,3.873,41,0,0.768,0,0,0,0, ,0,0,0,0,0, ,116.6,-72,-988.7,-0.2,-0.6,-1.6,25,115.641,-72.6449,-990.684,-0.543198,-0.508711,-1.70205,
2026_07_06_17_13_11.537,3.873,41,0,0.768,0,0,0,0, ,0,0,0,0,0, ,115.8,-72.2,-991,-0.1,-1,-1.7,25,115.675,-72.6117,-990.633,-0.519237,-0.526462,-1.69888,
2026_07_06_17_13_11.562,3.873,41,0,0.768,0,0,0,0, ,0,0,0,0,0, ,114.6,-73.9,-989.9,-0.3,-0.5,-2.2,25,115.646,-72.6384,-990.622,-0.499784,-0.540084,-1.71418,
2026_07_06_17_13_11.577,3.873,41,0,0.766,0,0,0,0, ,0,0,0,0,0, ,115.6,-70.4,-989.3,-0.5,-0.5,-2,25,115.613,-72.6086,-990.56,-0.493703,-0.537641,-1.7377,
2026_07_06_17_13_11.602,3.873,41,0,0.767,0,0,0,0, ,0,0,0,0,0, ,113.4,-74.3,-990.7,-0.8,-0.2,-1.4,25,115.545,-72.5929,-990.526,-0.503228,-0.526207,-1.7354,
2026_07_06_17_13_11.617,3.873,40.9,0,0.768,0,0,0,0, ,0,0,0,0,0, ,115.1,-72,-989.6,-0.5,-0.3,-1.6,25,115.466,-72.6268,-990.503,-0.512172,-0.509375,-1.72105,
2026_07_06_17_13_11.643,3.873,41,0,0.768,0,0,0,0, ,0,0,0,0,0, ,114.7,-71.1,-990.6,-0.3,-0.4,-1.8,25,115.432,-72.5612,-990.478,-0.505336,-0.499663,-1.71977,
2026_07_06_17_13_11.655,3.873,41.1,0,0.768,0,0,0,0, ,0,0,0,0,0, ,115.7,-70.5,-990.8,-0.2,-0.6,-1.8,25,115.418,-72.4539,-990.492,-0.489777,-0.499684,-1.72466,
2026_07_06_17_13_11.683,3.873,40.9,0,0.768,0,0,0,0, ,0,0,0,0,0, ,113.4,-73.4,-993,-0.6,-0.4,-1.7,25,115.365,-72.4232,-990.578,-0.484306,-0.499703,-1.7262,
2026_07_06_17_13_11.696,3.873,41,0,0.769,0,0,0,0, ,0,0,0,0,0, ,115.8,-74.4,-992.5,-0.8,-0.3,-1.6,25,115.318,-72.5132,-990.71,-0.49745,-0.490581,-1.72156,
2026_07_06_17_13_11.723,3.873,41,0,0.766,0,0,0,0, ,0,0,0,0,0, ,115.4,-69.9,-990.3,-0.8,0,-1.7,25,115.335,-72.491,-990.752,-0.515886,-0.469827,-1.7172,
2026_07_06_17_13_11.734,3.873,40.9,0,0.767,0,0,0,0, ,0,0,0,0,0, ,117.3,-70,-990.6,-0.4,-0.4,-1.9,25,115.397,-72.3362,-990.734,-0.521012,-0.453384,-1.72225,
2026_07_06_17_13_11.761,3.873,41,0,0.768,0,0,0,0, ,0,0,0,0,0, ,114.5,-71.8,-990.1,0,-1.1,-1.8,25,115.428,-72.2487,-990.71,-0.50145,-0.471459,-1.73003,
2026_07_06_17_13_11.774,3.873,41,0,0.768,0,0,0,0, ,0,0,0,0,0, ,111.6,-72.9,-991.8,0,-0.8,-2,25,115.283,-72.2548,-990.725,-0.470893,-0.50062,-1.74039,
2026_07_06_17_13_11.800,3.873,40.9,0,0.769,0,0,0,0, ,0,0,0,0,0, ,114.6,-72.8,-992.9,-0.4,-0.2,-1.9,25,115.15,-72.2911,-990.824,-0.454386,-0.500582,-1.75316,
2026_07_06_17_13_11.815,3.873,41,0,0.768,0,0,0,0, ,0,0,0,0,0, ,116.5,-72,-989.7,-0.7,-0.2,-1.8,25,115.174,-72.2977,-990.853,-0.460212,-0.482266,-1.75906,
2026_07_06_17_13_11.839,3.873,40.9,0,0.768,0,0,0,0, ,0,0,0,0,0, ,115.9,-74,-991.8,-0.8,-0.3,-1.8,25,115.237,-72.3405,-990.847,-0.477871,-0.468112,-1.76156,
2026_07_06_17_13_11.855,3.873,41,0,0.768,0,0,0,0, ,0,0,0,0,0, ,115.4,-72.8,-990.4,-0.5,-0.7,-1.9,25,115.262,-72.4051,-990.862,-0.48836,-0.470055,-1.76695,
2026_07_06_17_13_11.880,3.873,40.9,0,0.766,0,0,0,0, ,0,0,0,0,0, ,115.4,-71.2,-991.2,-0.4,-0.7,-1.8,25,115.27,-72.3804,-990.858,-0.486023,-0.484067,-1.77201,
2026_07_06_17_13_11.897,3.873,40.9,0,0.769,0,0,0,0, ,0,0,0,0,0, ,115.7,-70.9,-991.3,-0.2,-0.6,-1.6,25,115.287,-72.2993,-990.882,-0.474687,-0.494179,-1.76762,
2026_07_06_17_13_11.923,3.873,40.9,0,0.768,0,0,0,0, ,0,0,0,0,0, ,113.5,-71.7,-991.5,-0.4,-0.7,-1.6,25,115.246,-72.2384,-990.914,-0.464042,-0.503674,-1.75741,
2026_07_06_17_13_11.933,3.873,40.9,0,0.768,0,0,0,0, ,0,0,0,0,0, ,116.4,-73.6,-991.6,-0.4,-0.6,-1.7,25,115.228,-72.2635,-990.952,-0.460139,-0.512591,-1.75086,
2026_07_06_17_13_11.958,3.873,41,0,0.767,0,0,0,0, ,0,0,0,0,0, ,114.7,-73.2,-988.8,-0.6,-0.8,-1.7,25,115.247,-72.3328,-990.907,-0.462568,-0.524011,-1.74776,
2026_07_06_17_13_11.973,3.873,40.9,0,0.768,0,0,0,0, ,0,0,0,0,0, ,115.8,-71.5,-989.2,-0.4,-0.9,-1.7,25,115.247,-72.3338,-990.79,-0.464849,-0.543876,-1.74485,
2026_07_06_17_13_12.000,3.873,40.9,0,0.766,0,0,0,0, ,0,0,0,0,0, ,114.9,-72.2,-990.6,-0.1,-1,-1.8,25,115.254,-72.3043,-990.736,-0.451757,-0.568624,-1.74516,
2026_07_06_17_13_12.013,3.873,41,0,0.767,0,0,0,0, ,0,0,0,0,0, ,112.3,-72.5,-992.4,-0.2,-0.7,-1.5,25,115.153,-72.3071,-990.783,-0.433369,-0.585771,-1.73937,
2026_07_06_17_13_12.039,3.873,40.9,0,0.767,0,0,0,0, ,0,0,0,0,0, ,114,-73.2,-992.1,-0.8,-0.2,-1.6,25,115.031,-72.3402,-990.872,-0.437429,-0.577497,-1.72783,
2026_07_06_17_13_12.052,3.873,40.9,0,0.768,0,0,0,0, ,0,0,0,0,0, ,116.6,-74,-989,-0.7,-0.4,-1.6,25,115.047,-72.417,-990.852,-0.456476,-0.560587,-1.72004,
2026_07_06_17_13_12.078,3.873,40.9,0,0.769,0,0,0,0, ,0,0,0,0,0, ,115.2,-74,-989.8,0,-0.6,-1.8,25,115.099,-72.5134,-990.764,-0.449988,-0.556895,-1.71882,
2026_07_06_17_13_12.092,3.873,40.9,0,0.769,0,0,0,0, ,0,0,0,0,0, ,114.5,-69.8,-991.5,0.1,-0.9,-1.9,25,115.084,-72.4761,-990.757,-0.41952,-0.568662,-1.72681,
2026_07_06_17_13_12.118,3.873,40.8,0,0.768,0,0,0,0, ,0,0,0,0,0, ,112.4,-71.6,-994.3,-0.3,-0.4,-2.1,25,114.984,-72.3678,-990.888,-0.400049,-0.573619,-1.74346,
2026_07_06_17_13_12.131,3.873,40.9,0,0.768,0,0,0,0, ,0,0,0,0,0, ,113.7,-74.7,-991.5,-1,0,-1.8,25,114.867,-72.4155,-991.01,-0.415281,-0.550852,-1.75604,
2026_07_06_17_13_12.156,3.873,40.8,0,0.767,0,0,0,0, ,0,0,0,0,0, ,116.2,-72.3,-990.8,-1,0.3,-2,25,114.872,-72.4816,-991.019,-0.450912,-0.508143,-1.76482,
2026_07_06_17_13_12.171,3.873,40.9,0,0.767,0,0,0,0, ,0,0,0,0,0, ,115.1,-69.8,-987.9,-0.4,-0.1,-2.1,25,114.919,-72.3943,-990.917,-0.466091,-0.471085,-1.78219,
2026_07_06_17_13_12.198,3.873,40.9,0,0.767,0,0,0,0, ,0,0,0,0,0, ,115.6,-70.5,-988.8,-0.1,-0.8,-1.9,25,114.945,-72.2576,-990.761,-0.452923,-0.4698,-1.79547,
2026_07_06_17_13_12.209,3.873,41,0,0.768,0,0,0,0, ,0,0,0,0,0, ,114.8,-72.7,-991,-0.2,-1,-1.6,25,114.961,-72.2175,-990.708,-0.434463,-0.496015,-1.7927,
2026_07_06_17_13_12.238,3.873,40.9,0,0.768,0,0,0,0, ,0,0,0,0,0, ,111.3,-74.8,-991.8,-0.6,-0.4,-1.8,25,114.844,-72.3109,-990.75,-0.432363,-0.508445,-1.78705,
2026_07_06_17_13_12.249,3.873,40.8,0,0.77,0,0,0,0, ,0,0,0,0,0, ,113.8,-72.7,-991.2,-1,0.1,-1.9,25,114.705,-72.3986,-990.796,-0.454766,-0.486603,-1.79088,
2026_07_06_17_13_12.277,3.873,40.9,0,0.769,0,0,0,0, ,0,0,0,0,0, ,117.7,-71.2,-988.6,-0.7,-0.2,-2,25,114.768,-72.3713,-990.741,-0.478851,-0.459997,-1.80058,
2026_07_06_17_13_12.289,3.873,40.9,0,0.769,0,0,0,0, ,0,0,0,0,0, ,116.9,-70.3,-988.7,-0.2,-1.1,-1.7,25,114.923,-72.2725,-990.614,-0.477093,-0.471576,-1.80359,
2026_07_06_17_13_12.316,3.873,40.9,0,0.768,0,0,0,0, ,0,0,0,0,0, ,113.2,-72.5,-992.6,-0.2,-0.9,-1.7,25,114.93,-72.2193,-990.616,-0.460207,-0.503776,-1.79728,
2026_07_06_17_13_12.329,3.873,40.9,0,0.768,0,0,0,0, ,0,0,0,0,0, ,113.1,-74.3,-990.6,-0.2,-0.6,-1.8,25,114.822,-72.2912,-990.676,-0.444351,-0.518781,-1.7944,
2026_07_06_17_13_12.352,3.873,41,0,0.768,0,0,0,0, ,0,0,0,0,0, ,115.7,-74.7,-990.6,-0.2,-0.2,-1.8,25,114.796,-72.4258,-990.671,-0.429461,-0.511542,-1.79474,
2026_07_06_17_13_12.369,3.873,40.9,0,0.767,0,0,0,0, ,0,0,0,0,0, ,114.8,-72.2,-991.8,-0.3,-0.5,-1.8,25,114.824,-72.4882,-990.704,-0.418525,-0.501698,-1.79506,
2026_07_06_17_13_12.398,3.873,40.9,0,0.767,0,0,0,0, ,0,0,0,0,0, ,115.8,-73.4,-989.5,-0.4,-0.7,-1.6,25,114.853,-72.5072,-990.7,-0.414349,-0.507689,-1.78927,
2026_07_06_17_13_12.408,3.873,40.9,0,0.768,0,0,0,0, ,0,0,0,0,0, ,113,-73.1,-991,-0.2,-0.7,-1.6,25,114.825,-72.5525,-990.673,-0.407381,-0.519408,-1.77773,
2026_07_06_17_13_12.442,3.873,40.8,0,0.768,0,0,0,0, ,0,0,0,0,0, ,115.3,-71.4,-990.6,-0.1,-0.4,-1.6,25,114.784,-72.5341,-990.681,-0.391697,-0.521272,-1.7669,
2026_07_06_17_13_12.449,3.873,40.9,0,0.767,0,0,0,0, ,0,0,0,0,0, ,114.5,-69.7,-991.5,-0.2,-0.4,-1.5,25,114.791,-72.4132,-990.703,-0.376968,-0.513882,-1.75369,
2026_07_06_17_13_12.475,3.873,40.9,0,0.767,0,0,0,0, ,0,0,0,0,0, ,113.8,-72.8,-990.4,-0.4,-0.5,-2,25,114.752,-72.3423,-990.718,-0.372278,-0.509989,-1.75346,
2026_07_06_17_13_12.488,3.873,40.9,0,0.768,0,0,0,0, ,0,0,0,0,0, ,115.2,-73.9,-991.8,-0.6,-0.6,-1.8,25,114.737,-72.4037,-990.742,-0.380061,-0.512427,-1.76239,
2026_07_06_17_13_12.515,3.873,40.8,0,0.768,0,0,0,0, ,0,0,0,0,0, ,114.9,-72.8,-990.8,-0.7,-0.6,-1.5,25,114.756,-72.4614,-990.776,-0.396511,-0.517764,-1.75554,
2026_07_06_17_13_12.528,3.873,40.8,0,0.768,0,0,0,0, ,0,0,0,0,0, ,113.7,-72.9,-989.9,-0.6,-0.7,-1.5,25,114.728,-72.485,-990.75,-0.411958,-0.525822,-1.73997,
2026_07_06_17_13_12.554,3.873,40.8,0,0.766,0,0,0,0, ,0,0,0,0,0, ,114,-71.4,-991.2,-0.3,-0.4,-1.8,25,114.675,-72.4646,-990.737,-0.414276,-0.527295,-1.73449,
2026_07_06_17_13_12.567,3.873,40.9,0,0.766,0,0,0,0, ,0,0,0,0,0, ,114.2,-72.6,-991.5,-0.3,-0.5,-1.9,25,114.64,-72.4363,-990.775,-0.407312,-0.522585,-1.74153,
2026_07_06_17_13_12.594,3.873,40.9,0,0.768,0,0,0,0, ,0,0,0,0,0, ,115.8,-73.1,-990.8,-0.3,-0.5,-2.1,25,114.661,-72.4615,-990.798,-0.400773,-0.521209,-1.75728,
2026_07_06_17_13_12.607,3.873,40.8,0,0.767,0,0,0,0, ,0,0,0,0,0, ,114.7,-74.3,-990.7,-0.5,-0.6,-1.6,25,114.697,-72.537,-990.795,-0.400726,-0.522963,-1.76293,
2026_07_06_17_13_12.634,3.873,40.9,0,0.768,0,0,0,0, ,0,0,0,0,0, ,115.4,-70.9,-991.3,-0.5,-0.5,-1.7,25,114.719,-72.5408,-990.807,-0.406775,-0.524611,-1.75605,
2026_07_06_17_13_12.647,3.873,40.8,0,0.767,0,0,0,0, ,0,0,0,0,0, ,113.4,-72.9,-989.5,-0.5,-0.6,-1.4,25,114.699,-72.5018,-990.782,-0.412456,-0.526158,-1.74349,
2026_07_06_17_13_12.675,3.873,40.9,0,0.767,0,0,0,0, ,0,0,0,0,0, ,113.5,-72.3,-989.8,-0.2,-0.5,-1.7,25,114.623,-72.5078,-990.713,-0.40865,-0.527611,-1.7317,
2026_07_06_17_13_12.686,3.873,40.9,0,0.768,0,0,0,0, ,0,0,0,0,0, ,113.5,-71.5,-989.5,0,-0.5,-2,25,114.555,-72.4707,-990.649,-0.389842,-0.525928,-1.73891,
2026_07_06_17_13_12.713,3.873,40.8,0,0.765,0,0,0,0, ,0,0,0,0,0, ,114.8,-70.4,-990.8,0,-0.3,-2.3,25,114.53,-72.3781,-990.618,-0.366086,-0.518255,-1.76396,
2026_07_06_17_13_12.725,3.873,40.8,0,0.768,0,0,0,0, ,0,0,0,0,0, ,116.3,-74.5,-992,-0.7,-0.3,-2,25,114.592,-72.3824,-990.666,-0.365106,-0.504955,-1.78748,
2026_07_06_17_13_12.752,3.873,40.9,0,0.768,0,0,0,0, ,0,0,0,0,0, ,116.3,-74.3,-988.5,-0.6,-0.5,-1.3,25,114.696,-72.5054,-990.641,-0.382466,-0.498559,-1.77911,
2026_07_06_17_13_12.764,3.873,40.8,0,0.767,0,0,0,0, ,0,0,0,0,0, ,113.2,-74.5,-990.4,-0.3,-0.5,-1.7,25,114.7,-72.6208,-990.568,-0.386582,-0.498647,-1.7621,
2026_07_06_17_13_12.792,3.873,40.9,0,0.767,0,0,0,0, ,0,0,0,0,0, ,113.1,-72.6,-991,-0.1,-0.4,-2,25,114.605,-72.6775,-990.576,-0.375212,-0.495682,-1.76745,
2026_07_06_17_13_12.805,3.873,40.9,0,0.766,0,0,0,0, ,0,0,0,0,0, ,114.9,-72.6,-990.8,-0.1,-0.6,-2.2,25,114.568,-72.6727,-990.596,-0.358441,-0.495945,-1.78772,
2026_07_06_17_13_12.832,3.873,40.9,0,0.767,0,0,0,0, ,0,0,0,0,0, ,114.5,-74.8,-989.9,-0.3,-1,-2,25,114.576,-72.7353,-990.581,-0.348786,-0.514474,-1.80675,
2026_07_06_17_13_12.844,3.873,40.8,0,0.768,0,0,0,0, ,0,0,0,0,0, ,116.2,-76.6,-991.2,-0.2,-1.1,-1.7,25,114.623,-72.916,-990.579,-0.342766,-0.547107,-1.80938,
2026_07_06_17_13_12.873,3.873,40.9,0,0.769,0,0,0,0, ,0,0,0,0,0, ,112.9,-73.6,-991.6,-0.3,-0.6,-1.9,25,114.619,-73.0491,-990.629,-0.337113,-0.565565,-1.80881,
2026_07_06_17_13_12.884,3.873,40.8,0,0.766,0,0,0,0, ,0,0,0,0,0, ,113.4,-71,-991,-0.3,-0.2,-1.9,25,114.529,-73.0034,-990.67,-0.334852,-0.555476,-1.81437,
2026_07_06_17_13_12.912,3.873,40.8,0,0.769,0,0,0,0, ,0,0,0,0,0, ,113.7,-71.8,-992,-1,-0.4,-2.2,25,114.47,-72.9057,-990.72,-0.354056,-0.539908,-1.82873,
2026_07_06_17_13_12.924,3.873,40.8,0,0.769,0,0,0,0, ,0,0,0,0,0, ,120.2,-103.1,-998.7,-7,0,-7,25,114.621,-73.792,-991.003,-0.576231,-0.519195,-1.9976,
2026_07_06_17_13_12.951,3.873,40.8,0,0.768,0,0,0,0, ,0,0,0,0,0, ,113.5,-72.7,-984.7,-1.4,-2.3,-0.3,25,114.757,-74.6517,-991.045,-0.797054,-0.557634,-2.09829,
2026_07_06_17_13_12.963,3.873,40.8,0,0.766,0,0,0,0, ,0,0,0,0,0, ,120.8,-65.1,-993,-1,-0.2,-1.8,25,114.903,-74.3012,-990.911,-0.821609,-0.599825,-2.03441,
2026_07_06_17_13_12.991,3.873,40.8,0,0.767,0,0,0,0, ,0,0,0,0,0, ,107.7,-73.7,-990.9,-1,-1.1,-1.5,25,114.863,-74.0026,-990.975,-0.832479,-0.602883,-2.01099,
2026_07_06_17_13_13.003,3.873,40.9,0,0.767,0,0,0,0, ,0,0,0,0,0, ,115.1,-70,-990.8,0,0,-1.9,25,114.652,-73.8714,-990.967,-0.812219,-0.59966,-1.99204,
2026_07_06_17_13_13.031,3.873,40.8,0,0.768,0,0,0,0, ,0,0,0,0,0, ,115.4,-70.4,-991.6,0,-0.6,-2.2,25,114.688,-73.6477,-990.981,-0.762724,-0.5814,-1.99557,
2026_07_06_17_13_13.042,3.873,40.8,0,0.768,0,0,0,0, ,0,0,0,0,0, ,113.1,-71.8,-990.6,-0.3,-0.7,-1.9,25,114.662,-73.4924,-990.988,-0.725387,-0.58558,-1.99889,
2026_07_06_17_13_13.071,3.873,40.8,0,0.767,0,0,0,0, ,0,0,0,0,0, ,114.3,-72.2,-994,-0.7,-0.3,-1.7,25,114.603,-73.4015,-991.068,-0.711652,-0.580365,-1.98677,
2026_07_06_17_13_13.081,3.873,40.8,0,0.767,0,0,0,0, ,0,0,0,0,0, ,114.8,-71.1,-991.6,-0.8,-0.5,-1.4,25,114.6,-73.2947,-991.174,-0.713989,-0.569374,-1.96015,
2026_07_06_17_13_13.110,3.873,40.9,0,0.767,0,0,0,0, ,0,0,0,0,0, ,115.4,-71.7,-989.6,-0.4,-0.6,-1.7,25,114.63,-73.1793,-991.139,-0.707043,-0.568193,-1.93516,
2026_07_06_17_13_13.122,3.873,40.8,0,0.769,0,0,0,0, ,0,0,0,0,0, ,114.7,-70.1,-990.9,0,-0.6,-2,25,114.656,-73.0404,-991.085,-0.676145,-0.570132,-1.92997,
2026_07_06_17_13_13.149,3.873,40.8,0,0.768,0,0,0,0, ,0,0,0,0,0, ,111.6,-72.1,-993.5,-0.2,-0.3,-2,25,114.564,-72.9221,-991.153,-0.641036,-0.562811,-1.93424,
2026_07_06_17_13_13.161,3.873,40.8,0,0.768,0,0,0,0, ,0,0,0,0,0, ,112.7,-73.6,-990.8,-0.6,-0.1,-2,25,114.417,-72.9177,-991.213,-0.626348,-0.540702,-1.93824,
2026_07_06_17_13_13.190,3.873,40.8,0,0.767,0,0,0,0, ,0,0,0,0,0, ,111.6,-72.7,-993.5,-1.1,0.5,-2,25,114.279,-72.9319,-991.271,-0.639977,-0.495566,-1.94201,
2026_07_06_17_13_13.200,3.873,40.8,0,0.768,0,0,0,0, ,0,0,0,0,0, ,110.5,-71.8,-991,-1.7,1.5,-2.5,25,114.082,-72.8903,-991.33,-0.686291,-0.40443,-1.96078,
2026_07_06_17_13_13.230,3.873,40.8,0,0.767,0,0,0,0, ,0,0,0,0,0, ,117.1,-67.2,-995.1,-2,1.7,-2.8,25,114.065,-72.6837,-991.435,-0.757204,-0.282285,-2.00278,
2026_07_06_17_13_13.240,3.873,40.8,0,0.766,0,0,0,0, ,0,0,0,0,0, ,99.6,-73.4,-1003.2,-5,4.9,-3.7,25,113.717,-72.5385,-991.905,-0.924343,-0.0639894,-2.07878,
2026_07_06_17_13_13.269,3.873,40.8,0,0.767,0,0,0,0, ,0,0,0,0,0, ,76.9,-37.7,-1030.8,-13.3,16.9,-7.7,25,112.165,-71.5033,-993.434,-1.42559,0.604129,-2.29945,
2026_07_06_17_13_13.280,3.873,40.8,0,0.768,0,0,0,0, ,0,0,0,0,0, ,101.9,-73.9,-997.9,-17.9,20.5,-3.8,25,110.778,-70.5463,-994.709,-2.28935,1.70685,-2.50971,
2026_07_06_17_13_13.308,3.873,40.8,0,0.768,0,0,0,0, ,0,0,0,0,0, ,141.6,-46.1,-1036.9,-15.1,22.3,-0.3,25,111.446,-69.9037,-996.092,-3.15531,2.9069,-2.4817,
2026_07_06_17_13_13.319,3.873,40.8,0,0.766,0,0,0,0, ,0,0,0,0,0, ,156.8,3.6,-1081.1,-19.2,32.9,1.1,25,113.747,-66.9388,-999.925,-4.00811,4.41163,-2.3061,
2026_07_06_17_13_13.347,3.873,40.8,0,0.768,0,0,0,0, ,0,0,0,0,0, ,171.8,-130.6,-1245.6,-14.1,70,10.2,25,116.827,-66.7293,-1009.88,-4.77848,7.27803,-1.82127,
2026_07_06_17_13_13.359,3.873,40.8,0,0.768,0,0,0,0, ,0,0,0,0,0, ,127.9,-121.8,-1199.7,-5,118,-11.9,25,118.84,-70.3533,-1022.85,-5.06924,12.5627,-1.76209,
2026_07_06_17_13_13.388,3.873,40.7,0,0.768,0,0,0,0, ,0,0,0,0,0, ,275.6,-112,-1243.6,-9.8,167.4,-27.2,25,123.892,-73.1897,-1034.96,-5.21127,20.4929,-2.84604,
2026_07_06_17_13_13.398,3.873,40.8,0,0.766,0,0,0,0, ,0,0,0,0,0, ,412.2,-43.2,-1155.7,-8.3,182.5,-35.8,25,137.299,-73.4585,-1045,-5.44519,29.9051,-4.59214,
2026_07_06_17_13_13.426,3.873,40.8,0,0.767,0,0,0,0, ,0,0,0,0,0, ,489,-44.3,-1153.5,2,171.8,-18,25,156.391,-71.6481,-1051.68,-5.30533,38.8779,-5.95152,
2026_07_06_17_13_13.438,3.873,40.8,0,0.767,0,0,0,0, ,0,0,0,0,0, ,514.6,-23.1,-1055.9,12.9,159.7,-10.5,25,177.439,-69.3356,-1054.91,-4.52805,46.6091,-6.45721,
2026_07_06_17_13_13.465,3.873,40.8,0,0.768,0,0,0,0, ,0,0,0,0,0, ,609.2,15.7,-932.7,12.7,171.9,-13.5,25,200.867,-65.336,-1051.22,-3.47212,53.8723,-6.79497,
2026_07_06_17_13_13.478,3.873,40.8,0,0.769,0,0,0,0, ,0,0,0,0,0, ,661.8,56.2,-814.8,0.7,201.6,-15,25,227.352,-59.1639,-1040.4,-2.85226,61.9696,-7.24926,
2026_07_06_17_13_13.507,3.873,40.8,0,0.768,0,0,0,0, ,0,0,0,0,0, ,641.9,86.6,-702.1,-22.3,228.8,-17.4,25,253.22,-51.2076,-1023.22,-3.33658,71.307,-7.7947,
2026_07_06_17_13_13.517,3.873,40.7,0,0.768,0,0,0,0, ,0,0,0,0,0, ,627.6,70.4,-629.5,-38.5,240.2,-16.3,25,276.47,-43.3036,-1001.44,-4.98575,81.2516,-8.34651,
2026_07_06_17_13_13.546,3.873,40.8,0,0.767,0,0,0,0, ,0,0,0,0,0, ,620.3,25.3,-561.5,-54.9,239.5,-17.6,25,297.644,-37.7489,-976.703,-7.52771,90.9162,-8.87078,
2026_07_06_17_13_13.556,3.873,40.7,0,0.767,0,0,0,0, ,0,0,0,0,0, ,622.3,19.6,-505,-64.5,239.1,-24.3,25,317.367,-34.0805,-949.68,-10.707,99.9583,-9.60686,
2026_07_06_17_13_13.586,3.873,40.8,0,0.767,0,0,0,0, ,0,0,0,0,0, ,616.3,18.5,-438.9,-74,230.6,-31,25,335.766,-30.8429,-920.568,-14.2744,108.178,-10.7064,
2026_07_06_17_13_13.597,3.873,40.8,0,0.767,0,0,0,0, ,0,0,0,0,0, ,659.4,34.7,-383.1,-79.7,212.7,-36,25,354.174,-27.3425,-889.516,-18.0876,115.093,-12.0954,
2026_07_06_17_13_13.626,3.873,40.8,0,0.768,0,0,0,0, ,0,0,0,0,0, ,732.1,43.5,-377.5,-82.4,200.3,-36.9,25,374.989,-23.2936,-858.486,-21.9244,120.663,-13.5795,
2026_07_06_17_13_13.636,3.873,40.8,0,0.768,0,0,0,0, ,0,0,0,0,0, ,776.6,51,-345.3,-78,193.4,-37.5,25,398.106,-18.9949,-828.195,-25.4756,125.306,-15.0188,
2026_07_06_17_13_13.672,3.873,40.8,0,0.768,0,0,0,0, ,0,0,0,0,0, ,809.5,75,-307.4,-77.4,190.4,-43.4,25,422.173,-13.9983,-797.614,-28.658,129.364,-16.5685,
2026_07_06_17_13_13.677,3.873,40.7,0,0.768,0,0,0,0, ,0,0,0,0,0, ,853.6,94.6,-279.7,-80.1,193.3,-48.5,25,447.12,-7.97779,-766.897,-31.7105,133.172,-18.359,
2026_07_06_17_13_13.705,3.873,40.8,0,0.768,0,0,0,0, ,0,0,0,0,0, ,862.6,108,-216.9,-86,213.1,-55.9,25,472.164,-1.31868,-735.295,-34.839,137.439,-20.4212,
2026_07_06_17_13_13.716,3.873,40.8,0,0.767,0,0,0,0, ,0,0,0,0,0, ,848.3,146.1,-151.2,-90.4,224,-67,25,495.52,6.50379,-701.704,-38.0907,142.382,-22.9214,
2026_07_06_17_13_13.746,3.873,40.7,0,0.768,0,0,0,0, ,0,0,0,0,0, ,876.9,171,-83.8,-88.7,204.2,-65.3,25,517.889,15.7691,-666.104,-41.2265,146.752,-25.5556,
2026_07_06_17_13_13.754,3.873,40.7,0,0.767,0,0,0,0, ,0,0,0,0,0, ,875.4,180.5,-3.9,-77.9,175.2,-59.2,25,539.721,25.5179,-628.185,-43.7903,149.369,-27.7917,
2026_07_06_17_13_13.783,3.873,40.8,0,0.767,0,0,0,0, ,0,0,0,0,0, ,854.9,218,64.2,-67.5,158,-57.4,25,559.552,36.1047,-588.068,-45.552,150.419,-29.6508,
2026_07_06_17_13_13.794,3.873,40.8,0,0.769,0,0,0,0, ,0,0,0,0,0, ,841.7,235.8,145.1,-56.6,143.1,-59,25,577.147,47.7313,-545.855,-46.5574,150.427,-31.3905,
2026_07_06_17_13_13.823,3.873,40.8,0,0.769,0,0,0,0, ,0,0,0,0,0, ,881.1,275.5,200.9,-44.2,121.3,-54.6,25,594.469,60.4014,-502.05,-46.7915,149.316,-32.9389,
2026_07_06_17_13_13.834,3.873,40.7,0,0.768,0,0,0,0, ,0,0,0,0,0, ,872.4,304.9,260.4,-31.4,97.2,-45.8,25,611.67,74.4047,-457.401,-46.2436,146.875,-33.9907,
2026_07_06_17_13_13.863,3.873,40.7,0,0.767,0,0,0,0, ,0,0,0,0,0, ,812.5,310.4,317.5,-26,68,-41.6,25,625.733,88.6181,-411.921,-45.1745,142.958,-34.5824,
2026_07_06_17_13_13.874,3.873,40.7,0,0.767,0,0,0,0, ,0,0,0,0,0, ,816.7,296.2,334.8,-8.2,25.3,-34.9,25,637.243,101.7,-366.944,-43.4637,137.089,-34.8059,
2026_07_06_17_13_13.903,3.873,40.7,0,0.768,0,0,0,0, ,0,0,0,0,0, ,876.7,345.3,314.6,18.7,-22.7,-14.8,25,650.006,115.049,-324.797,-40.4952,128.815,-34.1992,
2026_07_06_17_13_13.913,3.873,40.8,0,0.768,0,0,0,0, ,0,0,0,0,0, ,910.1,362.9,310.5,34.2,-49.4,5,25,664.838,129.616,-285.959,-36.4158,118.768,-32.4138,
2026_07_06_17_13_13.943,3.873,40.7,0,0.768,0,0,0,0, ,0,0,0,0,0, ,938.4,366.9,310.5,32.7,-50.5,4.6,25,680.646,143.953,-249.612,-32.1583,108.487,-30.1461,
2026_07_06_17_13_13.953,3.873,40.8,0,0.767,0,0,0,0, ,0,0,0,0,0, ,965.5,387.2,306,25.1,-36.9,-0.8,25,697.179,158.158,-215.617,-28.4376,99.2131,-28.1933,
2026_07_06_17_13_13.981,3.873,40.7,0,0.768,0,0,0,0, ,0,0,0,0,0, ,977.4,388.4,276.2,16.4,-24.9,-4.5,25,713.892,172.152,-184.739,-25.4402,91.2843,-26.6367,
2026_07_06_17_13_13.993,3.873,40.7,0,0.768,0,0,0,0, ,0,0,0,0,0, ,961.3,369.6,255.7,11,-14.4,-3.8,25,729.459,184.756,-157.276,-23.0551,84.5242,-25.2664,
2026_07_06_17_13_14.023,3.873,40.8,0,0.767,0,0,0,0, ,0,0,0,0,0, ,948.8,364.1,256.5,10,-9.5,-4.2,25,743.206,195.853,-132.085,-21.0103,78.6453,-23.9705,
2026_07_06_17_13_14.033,3.873,40.7,0,0.767,0,0,0,0, ,0,0,0,0,0, ,924.6,356.3,252.6,9.7,-1.4,-5.5,25,754.997,205.868,-108.525,-19.1298,73.5208,-22.8054,
2026_07_06_17_13_14.062,3.873,40.7,0,0.767,0,0,0,0, ,0,0,0,0,0, ,907.4,362.4,266.7,7.1,0.5,-7.3,25,764.808,215.22,-86.0892,-17.4522,69.0132,-21.8057,
2026_07_06_17_13_14.071,3.873,40.7,0,0.768,0,0,0,0, ,0,0,0,0,0, ,908,374.7,263.9,4.5,-0.2,-5.3,25,773.516,224.564,-64.6764,-16.0353,64.8168,-20.8608,
2026_07_06_17_13_14.102,3.873,40.7,0,0.768,0,0,0,0, ,0,0,0,0,0, ,902.2,372.5,262.9,1.8,3.2,-5.8,25,781.534,233.646,-44.6843,-14.8662,60.9585,-19.9278,
2026_07_06_17_13_14.112,3.873,40.7,0,0.767,0,0,0,0, ,0,0,0,0,0, ,903.6,376,260.2,-0.5,5.9,-7.2,25,788.93,242.214,-26.0231,-13.9206,57.5211,-19.1095,
2026_07_06_17_13_14.141,3.873,40.7,0,0.767,0,0,0,0, ,0,0,0,0,0, ,900.8,367.1,258.6,-0.7,3.9,-6.7,25,795.832,250.095,-8.63015,-13.1089,54.3145,-18.3686,
2026_07_06_17_13_14.151,3.873,40.6,0,0.767,0,0,0,0, ,0,0,0,0,0, ,899.7,363,264.4,0.7,-0.2,-4.7,25,802.195,257.1,7.83091,-12.3101,51.1174,-17.5966,
2026_07_06_17_13_14.182,3.873,40.7,0,0.767,0,0,0,0, ,0,0,0,0,0, ,899.5,364.9,258.3,1.2,-2.6,-3.8,25,808.131,263.612,23.2797,-11.5021,47.9171,-16.7833,
2026_07_06_17_13_14.191,3.873,40.7,0,0.766,0,0,0,0, ,0,0,0,0,0, ,906.7,368.2,251.8,1,-3.1,-2.1,25,813.918,269.884,37.4032,-10.7341,44.8235,-15.9403,
2026_07_06_17_13_14.220,3.873,40.7,0,0.768,0,0,0,0, ,0,0,0,0,0, ,903,365.7,251.5,-0.1,-1.2,-1,25,819.459,275.799,50.4589,-10.0526,41.9611,-15.0634,
2026_07_06_17_13_14.231,3.873,40.7,0,0.768,0,0,0,0, ,0,0,0,0,0, ,891.7,369,259.6,-2.4,1.7,-2.1,25,824.206,281.378,62.9566,-9.51618,39.4193,-14.2399,
2026_07_06_17_13_14.260,3.873,40.7,0,0.766,0,0,0,0, ,0,0,0,0,0, ,881.1,361.5,259.1,-3.6,0,-2.4,25,827.996,286.489,74.9243,-9.1191,37.069,-13.5093,
2026_07_06_17_13_14.270,3.873,40.7,0,0.767,0,0,0,0, ,0,0,0,0,0, ,888,353,247,-1.8,-2.8,-0.9,25,831.442,290.801,85.7789,-8.72794,34.7248,-12.7866,
2026_07_06_17_13_14.300,3.873,40.7,0,0.768,0,0,0,0, ,0,0,0,0,0, ,896.4,356,244.2,-1.2,-1.7,-0.5,25,835.144,294.683,95.518,-8.28748,32.4716,-12.0501,
2026_07_06_17_13_14.309,3.873,40.7,0,0.768,0,0,0,0, ,0,0,0,0,0, ,891.2,351.6,249.3,-1.5,1.9,-1.7,25,838.719,298.285,104.734,-7.86473,30.499,-11.3828,
2026_07_06_17_13_14.339,3.873,40.7,0,0.768,0,0,0,0, ,0,0,0,0,0, ,880.9,362.1,269.1,-3.3,1,-2.4,25,841.603,301.854,114.146,-7.53172,28.7288,-10.8141,
2026_07_06_17_13_14.349,3.873,40.7,0,0.767,0,0,0,0, ,0,0,0,0,0, ,882.6,359.8,263.3,-3,-3.8,-1,25,844.049,305.455,123.412,-7.26471,26.8928,-10.2587,
2026_07_06_17_13_14.385,3.873,40.6,0,0.767,0,0,0,0, ,0,0,0,0,0, ,889.4,353.7,248.6,-1.3,-6.4,-0.1,25,846.606,308.581,131.489,-6.95304,24.9433,-9.66707,
2026_07_06_17_13_14.390,3.873,40.7,0,0.768,0,0,0,0, ,0,0,0,0,0, ,902.4,353.3,238.6,-0.9,-4.6,1.2,25,849.61,311.318,138.321,-6.59637,23.0881,-9.04447,
2026_07_06_17_13_14.420,3.873,40.7,0,0.767,0,0,0,0, ,0,0,0,0,0, ,898.1,347.9,238.1,-0.3,-1.6,0.1,25,852.695,313.712,144.416,-6.23096,21.4923,-8.45371,
2026_07_06_17_13_14.428,3.873,40.6,0,0.768,0,0,0,0, ,0,0,0,0,0, ,899,350.8,241.4,-0.5,-0.3,0.4,25,855.49,315.884,150.225,-5.87564,20.1247,-7.92333,
2026_07_06_17_13_14.458,3.873,40.7,0,0.766,0,0,0,0, ,0,0,0,0,0, ,886.5,351.6,246.4,-1,-1.4,0.2,25,857.76,318.036,155.934,-5.56329,18.8466,-7.42222,
2026_07_06_17_13_14.467,3.873,40.6,0,0.766,0,0,0,0, ,0,0,0,0,0, ,885.6,351.1,244.2,0.2,-4,-0.2,25,859.484,320.066,161.38,-5.24866,17.5336,-6.96993,
2026_07_06_17_13_14.497,3.873,40.6,0,0.768,0,0,0,0, ,0,0,0,0,0, ,892,354.1,243,1.3,-4.1,-0.5,25,861.271,322.048,166.39,-4.88311,16.2183,-6.56653,
2026_07_06_17_13_14.507,3.873,40.6,0,0.767,0,0,0,0, ,0,0,0,0,0, ,903,356.5,236.2,0.1,-0.8,0.5,25,863.478,324.075,170.851,-4.54289,15.0807,-6.16638,
2026_07_06_17_13_14.538,3.873,40.6,0,0.768,0,0,0,0, ,0,0,0,0,0, ,895.9,350.7,239.6,-0.3,2,-0.4,25,865.67,325.874,174.937,-4.27215,14.1983,-5.78757,
2026_07_06_17_13_14.546,3.873,40.6,0,0.768,0,0,0,0, ,0,0,0,0,0, ,884.8,346.3,247.3,-0.3,1.8,-0.7,25,867.174,327.253,179.112,-4.0301,13.4489,-5.46841,
2026_07_06_17_13_14.578,3.873,40.7,0,0.767,0,0,0,0, ,0,0,0,0,0, ,881.8,345.7,251,0.8,-2.5,-1.4,25,868.157,328.395,183.38,-3.76928,12.608,-5.19916,
2026_07_06_17_13_14.586,3.873,40.6,0,0.766,0,0,0,0, ,0,0,0,0,0, ,901.7,352.9,242.6,1.1,-4,-0.7,25,869.595,329.669,187.245,-3.4817,11.6417,-4.94632,
2026_07_06_17_13_14.617,3.873,40.6,0,0.768,0,0,0,0, ,0,0,0,0,0, ,902.2,354.8,243.8,0.7,-1.6,-0.2,25,871.566,331.142,190.654,-3.21469,10.7616,-4.67233,
2026_07_06_17_13_14.627,3.873,40.6,0,0.767,0,0,0,0, ,0,0,0,0,0, ,889.2,349.1,248.2,-0.6,0.6,-1.3,25,873.037,332.41,194.027,-3.01575,10.0754,-4.43331,
2026_07_06_17_13_14.658,3.873,40.7,0,0.767,0,0,0,0, ,0,0,0,0,0, ,890.8,346.6,252.9,-1.5,0.4,-2.8,25,874.071,333.351,197.471,-2.89596,9.49187,-4.28808,
2026_07_06_17_13_14.665,3.873,40.6,0,0.768,0,0,0,0, ,0,0,0,0,0, ,890.2,350.7,253.6,-1.5,-2,-1.8,25,875.072,334.284,200.87,-2.81089,8.86471,-4.16693,
2026_07_06_17_13_14.697,3.873,40.6,0,0.767,0,0,0,0, ,0,0,0,0,0, ,886.3,348.7,250.3,-0.9,-4,-1.8,25,875.875,335.223,203.983,-2.71273,8.14171,-4.02269,
2026_07_06_17_13_14.704,3.873,40.7,0,0.767,0,0,0,0, ,0,0,0,0,0, ,890.6,349.1,247.3,-0.5,-4.2,-1.7,25,876.641,336.056,206.714,-2.59008,7.39573,-3.8842,
2026_07_06_17_13_14.735,3.873,40.6,0,0.769,0,0,0,0, ,0,0,0,0,0, ,899.7,350.4,238.8,-1.5,-3,-1,25,877.769,336.891,208.928,-2.49318,6.72568,-3.72977,
2026_07_06_17_13_14.745,3.873,40.7,0,0.767,0,0,0,0, ,0,0,0,0,0, ,904.2,353.6,239.7,-1.1,-0.4,-0.6,25,879.243,337.812,210.776,-2.42047,6.21224,-3.55124,
2026_07_06_17_13_14.776,3.873,40.7,0,0.768,0,0,0,0, ,0,0,0,0,0, ,890,360.4,260.1,-2.9,-0.7,-1,25,880.331,338.981,213.16,-2.39485,5.80016,-3.38359,
2026_07_06_17_13_14.784,3.873,40.6,0,0.767,0,0,0,0, ,0,0,0,0,0, ,879.3,345.5,254.6,-3.7,-5.3,-1.2,25,880.594,339.832,215.853,-2.45001,5.2639,-3.24443,
2026_07_06_17_13_14.814,3.873,40.6,0,0.766,0,0,0,0, ,0,0,0,0,0, ,885.7,337,239.1,-1.2,-10,-1.4,25,880.71,339.919,217.742,-2.45001,4.47696,-3.12594,
2026_07_06_17_13_14.825,3.873,40.7,0,0.768,0,0,0,0, ,0,0,0,0,0, ,899.7,339.1,220.9,3.2,-12.5,1.9,25,881.441,339.805,218.489,-2.23977,3.5186,-2.92022,
2026_07_06_17_13_14.854,3.873,40.6,0,0.768,0,0,0,0, ,0,0,0,0,0, ,895.3,344.7,221.9,6.1,-13.4,2.6,25,882.419,339.932,218.666,-1.81993,2.51504,-2.60516,
2026_07_06_17_13_14.864,3.873,40.6,0,0.768,0,0,0,0, ,0,0,0,0,0, ,897.4,347.6,227.5,4.4,-11.9,1.2,25,883.268,340.311,219.034,-1.3891,1.59092,-2.33063,
2026_07_06_17_13_14.895,3.873,40.7,0,0.769,0,0,0,0, ,0,0,0,0,0, ,906.9,357.1,231.8,1.3,-10.6,-0.2,25,884.419,341.045,219.681,-1.13078,0.808431,-2.15814,
2026_07_06_17_13_14.904,3.873,40.6,0,0.767,0,0,0,0, ,0,0,0,0,0, ,915.5,352.2,220.4,0,-8.8,0,25,886.051,341.874,220.072,-1.02227,0.168073,-2.03272,
2026_07_06_17_13_14.933,3.873,40.6,0,0.768,0,0,0,0, ,0,0,0,0,0, ,895.9,343.6,223.3,2.2,-12.3,2.3,25,887.248,342.241,220.18,-0.892942,-0.485059,-1.83877,
2026_07_06_17_13_14.943,3.873,40.6,0,0.768,0,0,0,0, ,0,0,0,0,0, ,894.5,337.2,216.1,6.1,-18.6,4.1,25,887.733,342.129,220.151,-0.585638,-1.39699,-1.53172,
2026_07_06_17_13_14.975,3.873,40.5,0,0.769,0,0,0,0, ,0,0,0,0,0, ,901.1,338.5,209.4,7.9,-21.8,4.6,25,888.346,341.868,219.7,-0.123388,-2.54279,-1.1733,
2026_07_06_17_13_14.982,3.873,40.6,0,0.768,0,0,0,0, ,0,0,0,0,0, ,913.3,346,197.5,6.3,-20,3.9,25,889.495,341.891,218.71,0.316787,-3.66144,-0.842821,
2026_07_06_17_13_15.014,3.873,40.6,0,0.768,0,0,0,0, ,0,0,0,0,0, ,916.5,340.6,187.5,3.7,-14.9,2.8,25,891.043,341.977,217.113,0.60217,-4.50168,-0.587321,
2026_07_06_17_13_15.023,3.873,40.6,0,0.766,0,0,0,0, ,0,0,0,0,0, ,911.1,339.3,182.7,2.1,-12.7,2.6,25,892.43,341.854,215.162,0.742194,-5.06829,-0.387,
2026_07_06_17_13_15.052,3.873,40.6,0,0.767,0,0,0,0, ,0,0,0,0,0, ,906.3,333.2,178.5,2.7,-13.9,2.6,25,893.421,341.512,213.056,0.843217,-5.56991,-0.204979,
2026_07_06_17_13_15.062,3.873,40.6,0,0.767,0,0,0,0, ,0,0,0,0,0, ,919,334.3,167.2,4.1,-16.5,3.5,25,894.593,341.039,210.606,0.999021,-6.15675,-0.0066292,
2026_07_06_17_13_15.094,3.873,40.6,0,0.768,0,0,0,0, ,0,0,0,0,0, ,930.7,336.9,153.3,4.6,-14.6,4.6,25,896.437,340.708,207.537,1.20322,-6.72915,0.240572,
2026_07_06_17_13_15.101,3.873,40.5,0,0.767,0,0,0,0, ,0,0,0,0,0, ,932.1,344.4,164,4.4,-10.5,8,25,898.568,340.704,204.558,1.40412,-7.08386,0.609818,
2026_07_06_17_13_15.137,3.873,40.6,0,0.767,0,0,0,0, ,0,0,0,0,0, ,916.8,326.2,167.1,4.8,-13.2,9.5,25,900.145,340.375,202.181,1.59887,-7.37429,1.10586,
2026_07_06_17_13_15.144,3.873,40.6,0,0.767,0,0,0,0, ,0,0,0,0,0, ,927.4,307.7,148.1,13.7,-17.2,13.2,25,901.483,338.947,199.464,2.06511,-7.85117,1.73011,
