UTC_Time,Vin,TC1,TC2,Rh1,Vh1,Ah1,Acp1,Dty1,Err1,Rh2,Vh2,Ah2,Acp2,Dty2,Err2,Accel_x,Accel_y,Accel_z,gyro_x,gyro_y,gyro_z,Temp_c,Accel_x_h,Accel_y_h,Accel_z_h,gyro_x_h,gyro_y_h,gyro_z_h,
2026_07_06_19_27_25.595,3.873,53,0,0.775,0,0,0,0, ,0,0,0,0,0, ,991.5,6.1,26.7,-0.4,-0.4,-1.7,25,991.5,6.1,26.7,-0.4,-0.4,-1.7,
2026_07_06_19_27_25.611,3.873,53,0,0.776,0,0,0,0, ,0,0,0,0,0, ,989.1,8.5,28.1,-0.3,-0.6,-1.7,25,991.427,6.17312,26.7427,-0.396953,-0.406094,-1.7,
2026_07_06_19_27_25.631,3.873,52.9,0,0.773,0,0,0,0, ,0,0,0,0,0, ,990.8,8.3,27.8,-0.3,-0.7,-1.6,25,991.337,6.30883,26.8162,-0.391045,-0.420957,-1.69695,
2026_07_06_19_27_25.650,3.873,52.9,0,0.776,0,0,0,0, ,0,0,0,0,0, ,989.3,7.4,27.4,-0.3,-0.5,-1.6,25,991.258,6.40274,26.864,-0.385497,-0.431867,-1.69105,
2026_07_06_19_27_25.670,3.873,52.9,0,0.775,0,0,0,0, ,0,0,0,0,0, ,991.2,6.4,27,-0.3,-0.5,-1.7,25,991.197,6.43304,26.8845,-0.380287,-0.436019,-1.68854,
2026_07_06_19_27_25.690,3.873,53,0,0.776,0,0,0,0, ,0,0,0,0,0, ,991,7.9,27.9,-0.4,-0.5,-1.7,25,991.191,6.47673,26.9189,-0.378441,-0.439918,-1.68924,
2026_07_06_19_27_25.709,3.873,52.9,0,0.776,0,0,0,0, ,0,0,0,0,0, ,992,8.6,28.4,-0.4,-0.6,-1.7,25,991.21,6.58479,26.9939,-0.379755,-0.446626,-1.6899,
2026_07_06_19_27_25.732,3.873,52.9,0,0.776,0,0,0,0, ,0,0,0,0,0, ,989.6,6.1,25.5,-0.3,-0.5,-1.6,25,991.185,6.63142,26.9913,-0.377942,-0.452925,-1.68747,
2026_07_06_19_27_25.749,3.873,52.8,0,0.776,0,0,0,0, ,0,0,0,0,0, ,990.3,7.8,28.1,-0.3,-0.5,-1.7,25,991.11,6.65083,26.9796,-0.373192,-0.455794,-1.68518,
2026_07_06_19_27_25.769,3.873,52.8,0,0.777,0,0,0,0, ,0,0,0,0,0, ,989.8,7,26.9,-0.4,-0.3,-2,25,991.045,6.69649,27.0113,-0.371779,-0.452394,-1.69523,
2026_07_06_19_27_25.789,3.873,52.9,0,0.777,0,0,0,0, ,0,0,0,0,0, ,990.8,9.1,27.5,-0.4,-0.4,-1.8,25,991,6.77897,27.0228,-0.373499,-0.446154,-1.70771,
2026_07_06_19_27_25.809,3.873,52.8,0,0.776,0,0,0,0, ,0,0,0,0,0, ,990.6,7.8,25.5,-0.4,-0.5,-1.8,25,990.981,6.88079,26.991,-0.375114,-0.446389,-1.71333,
2026_07_06_19_27_25.829,3.873,52.8,0,0.776,0,0,0,0, ,0,0,0,0,0, ,990.8,5,34.6,-0.5,-0.7,-1.7,25,990.964,6.8515,27.1774,-0.379677,-0.455749,-1.71556,
2026_07_06_19_27_25.848,3.873,52.9,0,0.776,0,0,0,0, ,0,0,0,0,0, ,989.6,9.3,28.6,-0.4,-0.6,-1.8,25,990.918,6.86969,27.4469,-0.383962,-0.467587,-1.71766,
2026_07_06_19_27_25.872,3.873,52.8,0,0.777,0,0,0,0, ,0,0,0,0,0, ,991.5,7.8,26,-0.4,-0.5,-1.7,25,990.895,6.97208,27.4379,-0.38494,-0.472609,-1.71963,
2026_07_06_19_27_25.888,3.873,52.9,0,0.777,0,0,0,0, ,0,0,0,0,0, ,991.6,8,27.3,-0.4,-0.5,-1.6,25,990.935,7.02863,27.3899,-0.385857,-0.474278,-1.71539,
2026_07_06_19_27_25.908,3.873,52.9,0,0.775,0,0,0,0, ,0,0,0,0,0, ,989.3,7.4,27.3,-0.4,-0.6,-1.4,25,990.906,7.06954,27.3844,-0.386719,-0.478892,-1.70226,
2026_07_06_19_27_25.927,3.873,52.8,0,0.776,0,0,0,0, ,0,0,0,0,0, ,990.4,6.2,27,-0.4,-0.6,-1.6,25,990.841,7.05311,27.3701,-0.387529,-0.486272,-1.68994,
2026_07_06_19_27_25.947,3.873,52.9,0,0.775,0,0,0,0, ,0,0,0,0,0, ,990.3,7.8,27,-0.3,-0.6,-1.5,25,990.811,7.04988,27.3476,-0.385242,-0.493202,-1.68141,
2026_07_06_19_27_25.967,3.873,52.9,0,0.776,0,0,0,0, ,0,0,0,0,0, ,991,6.8,27.3,-0.3,-0.6,-1.6,25,990.802,7.06512,27.3356,-0.380047,-0.49971,-1.6734,
2026_07_06_19_27_25.987,3.873,52.8,0,0.776,0,0,0,0, ,0,0,0,0,0, ,990.2,7.3,26.8,-0.3,-0.5,-1.7,25,990.789,7.0642,27.3181,-0.375169,-0.502775,-1.67198,
2026_07_06_19_27_26.006,3.873,52.8,0,0.776,0,0,0,0, ,0,0,0,0,0, ,991.4,5.6,26.9,-0.3,-0.5,-1.9,25,990.79,7.02677,27.2896,-0.370589,-0.502606,-1.67978,
2026_07_06_19_27_26.027,3.873,52.8,0,0.775,0,0,0,0, ,0,0,0,0,0, ,991.8,8.3,27.4,-0.3,-0.5,-1.8,25,990.839,7.02209,27.2811,-0.366287,-0.502447,-1.69015,
2026_07_06_19_27_26.047,3.873,52.8,0,0.776,0,0,0,0, ,0,0,0,0,0, ,993,7.8,28.9,-0.3,-0.6,-1.6,25,990.934,7.08473,27.3341,-0.362248,-0.505345,-1.69075,
2026_07_06_19_27_26.066,3.873,52.8,0,0.776,0,0,0,0, ,0,0,0,0,0, ,989.3,8,27.2,-0.2,-0.6,-1.5,25,990.948,7.13441,27.3777,-0.355408,-0.511113,-1.68217,
2026_07_06_19_27_26.086,3.873,52.7,0,0.775,0,0,0,0, ,0,0,0,0,0, ,989.7,7.8,26.6,-0.3,-0.5,-1.6,25,990.859,7.18106,27.3486,-0.348984,-0.513483,-1.67412,
2026_07_06_19_27_26.106,3.873,52.8,0,0.775,0,0,0,0, ,0,0,0,0,0, ,989.5,7.6,27.7,-0.3,-0.5,-1.7,25,990.783,7.21269,27.3365,-0.345999,-0.512661,-1.67265,
2026_07_06_19_27_26.125,3.873,52.8,0,0.775,0,0,0,0, ,0,0,0,0,0, ,992.1,7.2,28.4,-0.3,-0.5,-1.7,25,990.784,7.2241,27.38,-0.343196,-0.511889,-1.67432,
2026_07_06_19_27_26.145,3.873,52.8,0,0.776,0,0,0,0, ,0,0,0,0,0, ,991.8,6.3,26.6,-0.3,-0.5,-1.8,25,990.855,7.19521,27.3873,-0.340564,-0.511165,-1.67893,
2026_07_06_19_27_26.165,3.873,52.8,0,0.775,0,0,0,0, ,0,0,0,0,0, ,992.5,6.9,26.2,-0.4,-0.3,-2,25,990.934,7.15894,27.3271,-0.341139,-0.504391,-1.6924,
2026_07_06_19_27_26.185,3.873,52.8,0,0.775,0,0,0,0, ,0,0,0,0,0, ,990.6,9.7,26.7,-0.5,-0.5,-1.8,25,990.971,7.22847,27.2737,-0.347773,-0.498029,-1.70505,
2026_07_06_19_27_26.205,3.873,52.7,0,0.775,0,0,0,0, ,0,0,0,0,0, ,992,9.6,27.9,-0.4,-0.7,-1.5,25,990.991,7.37603,27.2753,-0.354002,-0.504243,-1.7017,
2026_07_06_19_27_26.225,3.873,52.6,0,0.776,0,0,0,0, ,0,0,0,0,0, ,992.3,3.5,25.2,-0.4,-0.6,-1.5,25,991.062,7.3257,27.2311,-0.356805,-0.513125,-1.68941,
2026_07_06_19_27_26.244,3.873,52.7,0,0.776,0,0,0,0, ,0,0,0,0,0, ,992.4,7.8,26.4,-0.4,-0.4,-1.8,25,991.14,7.22358,27.1439,-0.359437,-0.512326,-1.687,
2026_07_06_19_27_26.264,3.873,52.7,0,0.776,0,0,0,0, ,0,0,0,0,0, ,990.8,8.5,26.7,-0.3,-0.6,-1.6,25,991.168,7.28004,27.1077,-0.358862,-0.511574,-1.6878,
2026_07_06_19_27_26.284,3.873,52.7,0,0.775,0,0,0,0, ,0,0,0,0,0, ,988.6,8.4,26,-0.4,-0.6,-1.5,25,991.079,7.35133,27.0615,-0.358322,-0.516963,-1.6794,
2026_07_06_19_27_26.304,3.873,52.7,0,0.775,0,0,0,0, ,0,0,0,0,0, ,990.2,6.4,27.4,-0.3,-0.5,-1.7,25,990.977,7.3543,27.0395,-0.357815,-0.518976,-1.67456,
2026_07_06_19_27_26.324,3.873,52.7,0,0.775,0,0,0,0, ,0,0,0,0,0, ,990.1,6.5,25.7,-0.3,-0.5,-1.8,25,990.926,7.29919,27.0096,-0.354292,-0.51782,-1.67916,
2026_07_06_19_27_26.343,3.873,52.6,0,0.776,0,0,0,0, ,0,0,0,0,0, ,991,8.4,26.7,-0.4,-0.4,-1.9,25,990.903,7.30838,26.9603,-0.354031,-0.513687,-1.68957,
2026_07_06_19_27_26.362,3.873,52.8,0,0.776,0,0,0,0, ,0,0,0,0,0, ,990.1,8.5,26.1,-0.5,-0.5,-1.9,25,990.882,7.37795,26.9262,-0.359879,-0.509806,-1.70239,
2026_07_06_19_27_26.383,3.873,52.7,0,0.776,0,0,0,0, ,0,0,0,0,0, ,991.4,9.2,27.5,-0.5,-0.5,-1.7,25,990.874,7.46765,26.9185,-0.368417,-0.509208,-1.70834,
2026_07_06_19_27_26.402,3.873,52.7,0,0.776,0,0,0,0, ,0,0,0,0,0, ,991.5,7.5,26.7,-0.3,-0.6,-1.5,25,990.909,7.52142,26.9295,-0.370342,-0.511694,-1.70174,
2026_07_06_19_27_26.426,3.873,52.6,0,0.775,0,0,0,0, ,0,0,0,0,0, ,990.6,7.8,27.8,-0.3,-0.6,-1.6,25,990.917,7.52926,26.9491,-0.366055,-0.517075,-1.69249,
2026_07_06_19_27_26.442,3.873,52.6,0,0.775,0,0,0,0, ,0,0,0,0,0, ,991.5,7.4,26.2,-0.3,-0.6,-1.6,25,990.926,7.53357,26.9522,-0.36203,-0.522129,-1.68686,
2026_07_06_19_27_26.462,3.873,52.6,0,0.776,0,0,0,0, ,0,0,0,0,0, ,989.1,8.1,27.9,-0.4,-0.7,-1.6,25,990.887,7.54676,26.9581,-0.361297,-0.529921,-1.68156,
2026_07_06_19_27_26.482,3.873,52.6,0,0.777,0,0,0,0, ,0,0,0,0,0, ,989.5,6.7,27.4,-0.4,-0.5,-1.5,25,990.791,7.53781,27.0003,-0.363656,-0.534191,-1.67355,
2026_07_06_19_27_26.501,3.873,52.6,0,0.775,0,0,0,0, ,0,0,0,0,0, ,989.5,8.6,29.2,-0.3,-0.5,-1.6,25,990.712,7.54465,27.0795,-0.362823,-0.532108,-1.66602,
2026_07_06_19_27_26.522,3.873,52.6,0,0.776,0,0,0,0, ,0,0,0,0,0, ,992,7.4,26.8,-0.3,-0.6,-1.6,25,990.714,7.5724,27.1356,-0.358995,-0.533198,-1.66199,
2026_07_06_19_27_26.541,3.873,52.6,0,0.777,0,0,0,0, ,0,0,0,0,0, ,991.4,6.8,26.8,-0.3,-0.5,-1.6,25,990.774,7.54361,27.1151,-0.3554,-0.534222,-1.65822,
2026_07_06_19_27_26.561,3.873,52.6,0,0.776,0,0,0,0, ,0,0,0,0,0, ,992.4,8.5,27,-0.4,-0.4,-1.7,25,990.843,7.55009,27.102,-0.355071,-0.52909,-1.65772,
2026_07_06_19_27_26.587,3.873,52.6,0,0.776,0,0,0,0, ,0,0,0,0,0, ,990.1,6.1,28.3,-0.4,-0.6,-1.6,25,990.868,7.53485,27.1354,-0.357809,-0.527317,-1.65725,
2026_07_06_19_27_26.601,3.873,52.6,0,0.781,0,0,0,0, ,0,0,0,0,0, ,990.8,8,25.8,-0.4,-0.4,-1.9,25,990.842,7.50531,27.1302,-0.36038,-0.525652,-1.6629,
2026_07_06_19_27_26.621,3.873,52.5,0,0.776,0,0,0,0, ,0,0,0,0,0, ,990.3,7.6,28.3,-0.3,-0.6,-1.7,25,990.825,7.52327,27.1253,-0.359747,-0.524089,-1.67125,
2026_07_06_19_27_26.640,3.873,52.5,0,0.776,0,0,0,0, ,0,0,0,0,0, ,991.2,6.1,25.3,-0.3,-0.5,-1.8,25,990.82,7.48224,27.1055,-0.356107,-0.525668,-1.67605,
2026_07_06_19_27_26.660,3.873,52.5,0,0.776,0,0,0,0, ,0,0,0,0,0, ,990.4,7.9,27.4,-0.3,-0.4,-1.8,25,990.819,7.45285,27.0595,-0.352688,-0.521057,-1.6836,
2026_07_06_19_27_26.680,3.873,52.6,0,0.774,0,0,0,0, ,0,0,0,0,0, ,991.5,6.8,28.3,-0.4,-0.5,-1.5,25,990.827,7.44658,27.1076,-0.352524,-0.516727,-1.68156,
2026_07_06_19_27_26.699,3.873,52.6,0,0.776,0,0,0,0, ,0,0,0,0,0, ,989.8,4.6,26,-0.4,-0.5,-1.7,25,990.816,7.34015,27.1102,-0.355417,-0.515708,-1.67659,
2026_07_06_19_27_26.720,3.873,52.5,0,0.776,0,0,0,0, ,0,0,0,0,0, ,990.4,7.2,27.2,-0.3,-0.6,-1.8,25,990.772,7.25239,27.0791,-0.355087,-0.517797,-1.68106,
2026_07_06_19_27_26.739,3.873,52.5,0,0.776,0,0,0,0, ,0,0,0,0,0, ,988.5,9.2,26.7,-0.3,-0.6,-1.6,25,990.692,7.31014,27.0713,-0.35173,-0.522807,-1.68221,
2026_07_06_19_27_26.759,3.873,52.6,0,0.775,0,0,0,0, ,0,0,0,0,0, ,990.8,8.7,27.7,-0.4,-0.5,-1.5,25,990.628,7.41007,27.0791,-0.351624,-0.524464,-1.67416,
2026_07_06_19_27_26.778,3.873,52.6,0,0.774,0,0,0,0, ,0,0,0,0,0, ,990.3,5.3,28.1,-0.4,-0.5,-1.7,25,990.624,7.38508,27.1291,-0.354572,-0.522973,-1.66964,
2026_07_06_19_27_26.798,3.873,52.5,0,0.776,0,0,0,0, ,0,0,0,0,0, ,991.8,6.3,27.2,-0.3,-0.5,-1.8,25,990.65,7.28849,27.1609,-0.354294,-0.521573,-1.67454,
2026_07_06_19_27_26.819,3.873,52.5,0,0.777,0,0,0,0, ,0,0,0,0,0, ,988.7,8.1,26.6,-0.3,-0.4,-1.8,25,990.625,7.2831,27.145,-0.350985,-0.517212,-1.68218,
2026_07_06_19_27_26.838,3.873,52.5,0,0.776,0,0,0,0, ,0,0,0,0,0, ,989.6,9.6,26.9,-0.4,-0.4,-1.7,25,990.535,7.37858,27.1209,-0.350925,-0.510069,-1.68631,
2026_07_06_19_27_26.858,3.873,52.5,0,0.775,0,0,0,0, ,0,0,0,0,0, ,990.3,7.3,28.3,-0.3,-0.5,-1.6,25,990.5,7.44387,27.1501,-0.350869,-0.506409,-1.6841,
2026_07_06_19_27_26.880,3.873,52.5,0,0.776,0,0,0,0, ,0,0,0,0,0, ,991.8,7.5,27.5,-0.3,-0.5,-1.7,25,990.533,7.4412,27.1958,-0.347769,-0.506018,-1.68202,
2026_07_06_19_27_26.898,3.873,52.4,0,0.776,0,0,0,0, ,0,0,0,0,0, ,990.1,8,27.7,-0.3,-0.5,-1.8,25,990.559,7.46001,27.2204,-0.344858,-0.505651,-1.68617,
2026_07_06_19_27_26.917,3.873,52.4,0,0.776,0,0,0,0, ,0,0,0,0,0, ,990.8,6.3,25.7,-0.3,-0.5,-1.7,25,990.552,7.44112,27.1887,-0.342125,-0.505307,-1.69006,
2026_07_06_19_27_26.937,3.873,52.4,0,0.775,0,0,0,0, ,0,0,0,0,0, ,989.9,8.7,28.4,-0.4,-0.5,-1.7,25,990.54,7.44471,27.1803,-0.342604,-0.504984,-1.69066,
2026_07_06_19_27_26.957,3.873,52.4,0,0.776,0,0,0,0, ,0,0,0,0,0, ,989.6,8.7,27.9,-0.3,-0.6,-1.6,25,990.492,7.5212,27.2394,-0.343055,-0.507727,-1.68818,
2026_07_06_19_27_26.977,3.873,52.5,0,0.775,0,0,0,0, ,0,0,0,0,0, ,989.9,8.5,29.1,-0.4,-0.5,-1.7,25,990.446,7.58694,27.3162,-0.343478,-0.510303,-1.68586,
2026_07_06_19_27_26.996,3.873,52.4,0,0.775,0,0,0,0, ,0,0,0,0,0, ,990.8,7.2,27.2,-0.3,-0.7,-1.5,25,990.44,7.60297,27.367,-0.343876,-0.515769,-1.68062,
2026_07_06_19_27_27.016,3.873,52.4,0,0.774,0,0,0,0, ,0,0,0,0,0, ,989.9,6.9,27.8,-0.4,-0.6,-1.7,25,990.435,7.56928,27.3751,-0.344249,-0.523948,-1.67571,
2026_07_06_19_27_27.035,3.873,52.4,0,0.775,0,0,0,0, ,0,0,0,0,0, ,990.7,7.5,25.3,-0.3,-0.5,-1.7,25,990.427,7.54677,27.3248,-0.344599,-0.525536,-1.67719,
2026_07_06_19_27_27.056,3.873,52.4,0,0.777,0,0,0,0, ,0,0,0,0,0, ,990.1,7.2,27.2,-0.3,-0.4,-1.7,25,990.425,7.53478,27.2593,-0.341882,-0.520933,-1.67858,
2026_07_06_19_27_27.076,3.873,52.4,0,0.776,0,0,0,0, ,0,0,0,0,0, ,991.4,8,26.9,-0.3,-0.6,-1.6,25,990.445,7.53876,27.2466,-0.339329,-0.519657,-1.67684,
2026_07_06_19_27_27.095,3.873,52.4,0,0.775,0,0,0,0, ,0,0,0,0,0, ,991.6,6.8,26.7,-0.3,-0.6,-1.7,25,990.509,7.5303,27.2193,-0.336933,-0.524553,-1.6752,
2026_07_06_19_27_27.114,3.873,52.4,0,0.775,0,0,0,0, ,0,0,0,0,0, ,989.7,6.9,26.1,-0.3,-0.6,-1.6,25,990.518,7.48885,27.1694,-0.334682,-0.529151,-1.67367,
2026_07_06_19_27_27.134,3.873,52.4,0,0.776,0,0,0,0, ,0,0,0,0,0, ,989.2,7.2,27.4,-0.2,-0.5,-1.6,25,990.453,7.4621,27.1439,-0.329522,-0.530421,-1.66918,
2026_07_06_19_27_27.155,3.873,52.4,0,0.776,0,0,0,0, ,0,0,0,0,0, ,991.3,8.1,26.9,-0.3,-0.5,-1.7,25,990.44,7.47355,27.1442,-0.324676,-0.528567,-1.66801,
2026_07_06_19_27_27.175,3.873,52.4,0,0.775,0,0,0,0, ,0,0,0,0,0, ,990.8,8.5,27.4,-0.4,-0.5,-1.6,25,990.477,7.52391,27.1446,-0.326219,-0.526827,-1.66691,
2026_07_06_19_27_27.194,3.873,52.4,0,0.775,0,0,0,0, ,0,0,0,0,0, ,990.6,8,26.9,-0.3,-0.5,-1.7,25,990.491,7.56816,27.1449,-0.327668,-0.525192,-1.66588,
2026_07_06_19_27_27.214,3.873,52.4,0,0.776,0,0,0,0, ,0,0,0,0,0, ,990.3,8.3,27.4,-0.4,-0.5,-1.6,25,990.489,7.60362,27.1452,-0.329029,-0.523657,-1.66491,
2026_07_06_19_27_27.234,3.873,52.4,0,0.778,0,0,0,0, ,0,0,0,0,0, ,991.3,5.9,26.1,-0.3,-0.4,-1.8,25,990.508,7.57293,27.1211,-0.330307,-0.519168,-1.66705,
2026_07_06_19_27_27.253,3.873,52.4,0,0.776,0,0,0,0, ,0,0,0,0,0, ,991.8,6.7,28,-0.3,-0.5,-1.8,25,990.571,7.49536,27.1168,-0.32846,-0.514953,-1.67515,
2026_07_06_19_27_27.274,3.873,52.4,0,0.775,0,0,0,0, ,0,0,0,0,0, ,990.9,7,26.2,-0.3,-0.4,-1.8,25,990.619,7.45603,27.1158,-0.326726,-0.510995,-1.68276,
2026_07_06_19_27_27.293,3.873,52.3,0,0.775,0,0,0,0, ,0,0,0,0,0, ,990.6,9.8,27.5,-0.3,-0.5,-1.6,25,990.627,7.51355,27.0996,-0.325097,-0.507278,-1.68381,
2026_07_06_19_27_27.314,3.873,52.4,0,0.776,0,0,0,0, ,0,0,0,0,0, ,990.4,8.4,28.1,-0.4,-0.6,-1.5,25,990.619,7.61023,27.1423,-0.326615,-0.509882,-1.67566,
2026_07_06_19_27_27.332,3.873,52.3,0,0.775,0,0,0,0, ,0,0,0,0,0, ,992,8.9,27.2,-0.3,-0.7,-1.4,25,990.654,7.67359,27.1732,-0.32804,-0.51842,-1.66191,
2026_07_06_19_27_27.352,3.873,52.3,0,0.775,0,0,0,0, ,0,0,0,0,0, ,990.7,7.2,25.7,-0.3,-0.7,-1.5,25,990.697,7.69653,27.1291,-0.326331,-0.529485,-1.64899,
2026_07_06_19_27_27.372,3.873,52.4,0,0.775,0,0,0,0, ,0,0,0,0,0, ,990.7,8.6,26.4,-0.3,-0.6,-1.8,25,990.697,7.70893,27.0634,-0.324727,-0.536829,-1.64906,
2026_07_06_19_27_27.391,3.873,52.3,0,0.775,0,0,0,0, ,0,0,0,0,0, ,989.9,8,26.7,-0.4,-0.6,-1.9,25,990.673,7.74495,27.0321,-0.326267,-0.540679,-1.6613,
2026_07_06_19_27_27.411,3.873,52.1,0,0.775,0,0,0,0, ,0,0,0,0,0, ,990.3,8,27.8,-0.3,-0.5,-1.8,25,990.638,7.76049,27.0454,-0.327713,-0.541247,-1.6728,
2026_07_06_19_27_27.431,3.873,52.3,0,0.775,0,0,0,0, ,0,0,0,0,0, ,990.3,7.2,28.5,-0.3,-0.5,-1.6,25,990.617,7.75071,27.1127,-0.326024,-0.538733,-1.67446,
2026_07_06_19_27_27.451,3.873,52.3,0,0.776,0,0,0,0, ,0,0,0,0,0, ,990.9,7.6,26.3,-0.3,-0.6,-1.6,25,990.616,7.72934,27.1302,-0.324438,-0.53942,-1.66992,
2026_07_06_19_27_27.471,3.873,52.3,0,0.776,0,0,0,0, ,0,0,0,0,0, ,989.1,7.8,26.2,-0.3,-0.5,-1.7,25,990.579,7.72755,27.0766,-0.322949,-0.540064,-1.66871,
2026_07_06_19_27_27.491,3.873,52.1,0,0.776,0,0,0,0, ,0,0,0,0,0, ,990.1,9.2,27.5,-0.3,-0.5,-1.7,25,990.519,7.77462,27.0628,-0.321551,-0.537623,-1.67061,
2026_07_06_19_27_27.510,3.873,52.1,0,0.775,0,0,0,0, ,0,0,0,0,0, ,989.7,8.1,27.4,-0.4,-0.5,-1.6,25,990.481,7.82796,27.0863,-0.323284,-0.53533,-1.66936,
2026_07_06_19_27_27.531,3.873,52.1,0,0.774,0,0,0,0, ,0,0,0,0,0, ,990.7,6.1,26.9,-0.4,-0.7,-1.6,25,990.464,7.7836,27.0902,-0.327959,-0.539271,-1.66513,
2026_07_06_19_27_27.551,3.873,52.3,0,0.774,0,0,0,0, ,0,0,0,0,0, ,991.8,7.4,25.6,-0.3,-0.6,-1.7,25,990.512,7.72062,27.039,-0.329302,-0.546019,-1.66421,
2026_07_06_19_27_27.570,3.873,52.3,0,0.776,0,0,0,0, ,0,0,0,0,0, ,991.3,7.3,27.5,-0.4,-0.5,-1.7,25,990.575,7.69803,27.0092,-0.330564,-0.546261,-1.66639,
2026_07_06_19_27_27.589,3.873,52.1,0,0.778,0,0,0,0, ,0,0,0,0,0, ,990.4,8.6,27.4,-0.3,-0.5,-1.6,25,990.592,7.71339,27.0361,-0.331748,-0.543442,-1.66539,
2026_07_06_19_27_27.609,3.873,52.1,0,0.775,0,0,0,0, ,0,0,0,0,0, ,991.2,6.3,25.3,-0.3,-0.4,-1.8,25,990.605,7.69734,26.9943,-0.329813,-0.537748,-1.6675,
2026_07_06_19_27_27.629,3.873,52.3,0,0.775,0,0,0,0, ,0,0,0,0,0, ,991.4,8.6,28.3,-0.4,-0.5,-1.8,25,990.647,7.68227,26.9824,-0.331043,-0.532401,-1.67557,
2026_07_06_19_27_27.649,3.873,52.1,0,0.775,0,0,0,0, ,0,0,0,0,0, ,989.9,9.6,27.4,-0.4,-0.5,-1.7,25,990.647,7.76866,27.0353,-0.335246,-0.530427,-1.68011,
2026_07_06_19_27_27.669,3.873,52.1,0,0.775,0,0,0,0, ,0,0,0,0,0, ,989.3,6.7,26.4,-0.3,-0.6,-1.6,25,990.583,7.7919,27.0271,-0.336145,-0.531619,-1.67827,
2026_07_06_19_27_27.689,3.873,52.1,0,0.776,0,0,0,0, ,0,0,0,0,0, ,989,9.3,27.7,-0.4,-0.5,-1.6,25,990.496,7.80458,27.0285,-0.336989,-0.532739,-1.6735,
2026_07_06_19_27_27.708,3.873,52.1,0,0.775,0,0,0,0, ,0,0,0,0,0, ,990.9,7.8,28.3,-0.4,-0.6,-1.5,25,990.463,7.85,27.0877,-0.340829,-0.533791,-1.66598,
2026_07_06_19_27_27.728,3.873,52.1,0,0.776,0,0,0,0, ,0,0,0,0,0, ,992.6,5.6,27,-0.3,-0.6,-1.7,25,990.541,7.77992,27.1219,-0.341388,-0.537826,-1.66196,
2026_07_06_19_27_27.748,3.873,52.1,0,0.774,0,0,0,0, ,0,0,0,0,0, ,990.6,6.4,26.2,-0.4,-0.5,-1.7,25,990.606,7.67146,27.0901,-0.341912,-0.538568,-1.66428,
2026_07_06_19_27_27.768,3.873,52.1,0,0.775,0,0,0,0, ,0,0,0,0,0, ,990.7,8,27.5,-0.3,-0.4,-1.7,25,990.608,7.64273,27.0755,-0.342405,-0.533171,-1.66645,
2026_07_06_19_27_27.787,3.873,52.1,0,0.775,0,0,0,0, ,0,0,0,0,0, ,990.9,7.3,26.6,-0.3,-0.6,-1.6,25,990.62,7.64317,27.0739,-0.339821,-0.531149,-1.66545,
2026_07_06_19_27_27.808,3.873,52.1,0,0.775,0,0,0,0, ,0,0,0,0,0, ,991.3,5.7,25.8,-0.3,-0.4,-1.8,25,990.649,7.57351,27.0207,-0.337395,-0.529251,-1.66756,
2026_07_06_19_27_27.827,3.873,52.1,0,0.775,0,0,0,0, ,0,0,0,0,0, ,990.3,10.1,28.3,-0.4,-0.6,-1.7,25,990.659,7.59341,27.0225,-0.338163,-0.527469,-1.67258,
2026_07_06_19_27_27.847,3.873,52,0,0.775,0,0,0,0, ,0,0,0,0,0, ,989.3,7.8,27.4,-0.3,-0.4,-1.7,25,990.606,7.67607,27.0729,-0.338884,-0.525795,-1.67425,
2026_07_06_19_27_27.867,3.873,52,0,0.775,0,0,0,0, ,0,0,0,0,0, ,989.1,8,26.4,-0.3,-0.5,-1.5,25,990.521,7.68972,27.0624,-0.336515,-0.521176,-1.66973,
2026_07_06_19_27_27.887,3.873,52.1,0,0.775,0,0,0,0, ,0,0,0,0,0, ,990.4,7.2,27.3,-0.4,-0.4,-1.8,25,990.474,7.68425,27.0494,-0.337336,-0.516839,-1.66852,
2026_07_06_19_27_27.907,3.873,52,0,0.775,0,0,0,0, ,0,0,0,0,0, ,989.7,8.3,25,-0.3,-0.5,-1.9,25,990.448,7.68826,26.9946,-0.338108,-0.512766,-1.67958,
2026_07_06_19_27_27.926,3.873,52,0,0.776,0,0,0,0, ,0,0,0,0,0, ,992.1,9.3,27.8,-0.3,-0.5,-1.8,25,990.475,7.75601,26.9584,-0.335786,-0.511988,-1.68997,
2026_07_06_19_27_27.946,3.873,52.1,0,0.776,0,0,0,0, ,0,0,0,0,0, ,992.3,6.3,26.4,-0.3,-0.5,-1.7,25,990.58,7.75869,26.967,-0.333605,-0.511257,-1.69363,
2026_07_06_19_27_27.966,3.873,52,0,0.776,0,0,0,0, ,0,0,0,0,0, ,991.3,9.1,28.4,-0.4,-0.5,-1.8,25,990.655,7.75511,26.9934,-0.334604,-0.510571,-1.69706,
2026_07_06_19_27_27.985,3.873,52,0,0.776,0,0,0,0, ,0,0,0,0,0, ,991.3,8.9,28.4,-0.4,-0.7,-1.6,25,990.694,7.83097,27.0791,-0.338589,-0.516021,-1.69724,
2026_07_06_19_27_28.005,3.873,52.1,0,0.775,0,0,0,0, ,0,0,0,0,0, ,990.7,6.2,25,-0.4,-0.6,-1.4,25,990.713,7.81385,27.056,-0.342331,-0.524185,-1.68522,
2026_07_06_19_27_28.026,3.873,52,0,0.774,0,0,0,0, ,0,0,0,0,0, ,990.3,6.8,28,-0.4,-0.6,-1.6,25,990.7,7.73379,27.0221,-0.345846,-0.528805,-1.67393,
2026_07_06_19_27_28.045,3.873,52,0,0.776,0,0,0,0, ,0,0,0,0,0, ,990.6,6.5,26.7,-0.4,-0.6,-1.7,25,990.685,7.66774,27.0421,-0.349146,-0.533144,-1.67248,
2026_07_06_19_27_28.065,3.873,52,0,0.776,0,0,0,0, ,0,0,0,0,0, ,990.4,7,26.8,-0.3,-0.7,-1.7,25,990.673,7.61182,27.0243,-0.349198,-0.540265,-1.67415,
2026_07_06_19_27_28.085,3.873,52,0,0.776,0,0,0,0, ,0,0,0,0,0, ,990.8,7.5,26.4,-0.4,-0.5,-1.8,25,990.669,7.58977,26.9984,-0.349247,-0.543905,-1.67877,
2026_07_06_19_27_28.104,3.873,52.1,0,0.776,0,0,0,0, ,0,0,0,0,0, ,991.3,8,27.2,-0.4,-0.4,-1.8,25,990.692,7.59953,26.9864,-0.352339,-0.538182,-1.68616,
2026_07_06_19_27_28.124,3.873,52,0,0.776,0,0,0,0, ,0,0,0,0,0, ,991,8.4,27.2,-0.4,-0.6,-1.6,25,990.72,7.63612,26.9994,-0.355244,-0.535856,-1.68701,
2026_07_06_19_27_28.144,3.873,51.9,0,0.775,0,0,0,0, ,0,0,0,0,0, ,989.9,6.3,26.7,-0.3,-0.6,-1.6,25,990.703,7.61869,26.9964,-0.354924,-0.539764,-1.6817,
2026_07_06_19_27_28.163,3.873,51.9,0,0.775,0,0,0,0, ,0,0,0,0,0, ,991,8.7,27.3,-0.3,-0.5,-1.6,25,990.688,7.61146,26.9966,-0.351577,-0.540388,-1.67672,
2026_07_06_19_27_28.183,3.873,51.9,0,0.777,0,0,0,0, ,0,0,0,0,0, ,990.7,7.4,25.8,-0.3,-0.5,-1.6,25,990.698,7.63818,26.9694,-0.348434,-0.537927,-1.67205,
2026_07_06_19_27_28.203,3.873,51.9,0,0.777,0,0,0,0, ,0,0,0,0,0, ,990.7,6.1,26,-0.3,-0.5,-1.6,25,990.698,7.58406,26.9042,-0.345483,-0.535616,-1.66766,
2026_07_06_19_27_28.223,3.873,51.8,0,0.776,0,0,0,0, ,0,0,0,0,0, ,991.4,6.4,27.2,-0.3,-0.6,-1.7,25,990.719,7.50276,26.8857,-0.342711,-0.536492,-1.66658,
2026_07_06_19_27_28.243,3.873,52,0,0.774,0,0,0,0, ,0,0,0,0,0, ,990.6,8.1,26.4,-0.4,-0.5,-1.8,25,990.737,7.48736,26.8805,-0.343155,-0.537315,-1.67167,
2026_07_06_19_27_28.263,3.873,51.9,0,0.775,0,0,0,0, ,0,0,0,0,0, ,990.6,8.7,27.3,-0.3,-0.6,-1.8,25,990.728,7.54297,26.8786,-0.343572,-0.538088,-1.67949,
2026_07_06_19_27_28.282,3.873,51.8,0,0.775,0,0,0,0, ,0,0,0,0,0, ,990.2,8.1,26.6,-0.3,-0.5,-1.8,25,990.708,7.5952,26.8829,-0.340917,-0.538814,-1.68683,
2026_07_06_19_27_28.302,3.873,52,0,0.776,0,0,0,0, ,0,0,0,0,0, ,990.6,8,27.2,-0.3,-0.6,-1.7,25,990.689,7.62291,26.884,-0.338424,-0.539496,-1.69068,
2026_07_06_19_27_28.322,3.873,51.8,0,0.776,0,0,0,0, ,0,0,0,0,0, ,990.2,8.3,26.6,-0.3,-0.5,-1.7,25,990.672,7.65503,26.885,-0.336082,-0.540136,-1.69125,
2026_07_06_19_27_28.341,3.873,51.8,0,0.776,0,0,0,0, ,0,0,0,0,0, ,990.1,7.6,26.6,-0.4,-0.6,-1.6,25,990.64,7.67301,26.8676,-0.33693,-0.540737,-1.68873,
2026_07_06_19_27_28.361,3.873,51.9,0,0.774,0,0,0,0, ,0,0,0,0,0, ,989.3,6.8,27.3,-0.4,-0.6,-1.6,25,990.583,7.64418,26.8726,-0.340774,-0.544348,-1.68333,
2026_07_06_19_27_28.381,3.873,51.9,0,0.775,0,0,0,0, ,0,0,0,0,0, ,991.2,7.3,27.9,-0.3,-0.5,-1.7,25,990.562,7.60798,26.9169,-0.341336,-0.544693,-1.6813,
2026_07_06_19_27_28.401,3.873,51.9,0,0.774,0,0,0,0, ,0,0,0,0,0, ,990.8,6.1,26.9,-0.3,-0.5,-1.8,25,990.589,7.55265,26.9464,-0.338817,-0.541969,-1.68548,
2026_07_06_19_27_28.420,3.873,51.9,0,0.775,0,0,0,0, ,0,0,0,0,0, ,991.6,8.1,26.1,-0.3,-0.5,-1.8,25,990.626,7.52506,26.9192,-0.336452,-0.539412,-1.69246,
2026_07_06_19_27_28.440,3.873,51.9,0,0.775,0,0,0,0, ,0,0,0,0,0, ,990.4,9.3,27,-0.4,-0.4,-1.6,25,990.649,7.59666,26.8967,-0.337277,-0.533963,-1.69292,
2026_07_06_19_27_28.460,3.873,51.9,0,0.776,0,0,0,0, ,0,0,0,0,0, ,991,8.5,27.7,-0.3,-0.5,-1.6,25,990.652,7.67608,26.9243,-0.338053,-0.528847,-1.68726,
2026_07_06_19_27_28.481,3.873,51.9,0,0.775,0,0,0,0, ,0,0,0,0,0, ,991,6.2,26,-0.3,-0.6,-1.7,25,990.673,7.65621,26.9198,-0.335734,-0.530136,-1.68499,
2026_07_06_19_27_28.500,3.873,51.8,0,0.775,0,0,0,0, ,0,0,0,0,0, ,991.5,7.2,26.8,-0.4,-0.6,-1.8,25,990.709,7.59794,26.8881,-0.336603,-0.534393,-1.68895,
2026_07_06_19_27_28.520,3.873,51.8,0,0.775,0,0,0,0, ,0,0,0,0,0, ,989.9,10.9,28.8,-0.5,-0.5,-1.7,25,990.708,7.68643,26.9437,-0.343513,-0.535344,-1.69267,
2026_07_06_19_27_28.539,3.873,51.8,0,0.775,0,0,0,0, ,0,0,0,0,0, ,991.4,6.7,26.1,-0.4,-0.7,-1.4,25,990.704,7.75429,26.9745,-0.350002,-0.539284,-1.68398,
2026_07_06_19_27_28.560,3.873,51.8,0,0.775,0,0,0,0, ,0,0,0,0,0, ,989.5,7.5,27,-0.3,-0.6,-1.6,25,990.689,7.71442,26.9487,-0.350002,-0.546031,-1.67276,
2026_07_06_19_27_28.579,3.873,51.8,0,0.775,0,0,0,0, ,0,0,0,0,0, ,991.2,7.4,26.1,-0.4,-0.6,-1.7,25,990.668,7.6983,26.9244,-0.350002,-0.54932,-1.67138,
2026_07_06_19_27_28.598,3.873,51.8,0,0.776,0,0,0,0, ,0,0,0,0,0, ,990.3,7,24.7,-0.3,-0.5,-1.5,25,990.673,7.66794,26.8315,-0.350002,-0.549361,-1.66703,
2026_07_06_19_27_28.618,3.873,51.7,0,0.775,0,0,0,0, ,0,0,0,0,0, ,989.1,8.6,28.1,-0.4,-0.5,-1.6,25,990.614,7.67598,26.8052,-0.350002,-0.546353,-1.6599,
2026_07_06_19_27_28.637,3.873,51.8,0,0.775,0,0,0,0, ,0,0,0,0,0, ,989.9,6.9,26.1,-0.4,-0.5,-1.8,25,990.546,7.6805,26.8231,-0.353049,-0.543529,-1.66234,
2026_07_06_19_27_28.658,3.873,51.7,0,0.776,0,0,0,0, ,0,0,0,0,0, ,991,6.4,27.2,-0.3,-0.5,-1.9,25,990.54,7.6177,26.8126,-0.352863,-0.540876,-1.67378,
2026_07_06_19_27_28.678,3.873,51.7,0,0.775,0,0,0,0, ,0,0,0,0,0, ,992.3,7,26.8,-0.4,-0.5,-1.8,25,990.608,7.56178,26.824,-0.352688,-0.538385,-1.68451,
2026_07_06_19_27_28.697,3.873,51.7,0,0.776,0,0,0,0, ,0,0,0,0,0, ,991,7.9,27.9,-0.3,-0.5,-1.7,25,990.671,7.55497,26.8561,-0.352524,-0.536046,-1.6885,
2026_07_06_19_27_28.717,3.873,51.8,0,0.774,0,0,0,0, ,0,0,0,0,0, ,989.9,7.5,26.9,-0.4,-0.5,-1.5,25,990.658,7.5638,26.8892,-0.352371,-0.533849,-1.68311,
2026_07_06_19_27_28.738,3.873,51.9,0,0.775,0,0,0,0, ,0,0,0,0,0, ,992,6.8,29.5,-0.4,-0.6,-1.6,25,990.676,7.53859,26.9691,-0.355273,-0.534834,-1.675,
2026_07_06_19_27_28.757,3.873,51.8,0,0.775,0,0,0,0, ,0,0,0,0,0, ,988.7,7.6,28.1,-0.3,-0.7,-1.7,25,990.656,7.51795,27.0807,-0.354952,-0.541852,-1.67348,
2026_07_06_19_27_28.779,3.873,51.8,0,0.775,0,0,0,0, ,0,0,0,0,0, ,991.4,8.1,25.7,-0.3,-0.6,-1.7,25,990.619,7.53819,27.0697,-0.351603,-0.548442,-1.67509,
2026_07_06_19_27_28.795,3.873,51.8,0,0.775,0,0,0,0, ,0,0,0,0,0, ,990.3,7.6,28,-0.4,-0.5,-1.6,25,990.633,7.55719,27.0563,-0.351505,-0.548537,-1.67356,
2026_07_06_19_27_28.817,3.873,51.7,0,0.774,0,0,0,0, ,0,0,0,0,0, ,989.6,6.4,27.3,-0.4,-0.5,-1.7,25,990.591,7.52324,27.0924,-0.354461,-0.545579,-1.67213,
2026_07_06_19_27_28.837,3.873,51.7,0,0.775,0,0,0,0, ,0,0,0,0,0, ,990.4,10.2,29.9,-0.3,-0.6,-1.7,25,990.555,7.57057,27.1843,-0.354189,-0.545849,-1.67383,
2026_07_06_19_27_28.856,3.873,51.7,0,0.775,0,0,0,0, ,0,0,0,0,0, ,991.9,7,25.6,-0.3,-0.6,-1.7,25,990.592,7.6333,27.2188,-0.350887,-0.549148,-1.67542,
2026_07_06_19_27_28.876,3.873,51.7,0,0.776,0,0,0,0, ,0,0,0,0,0, ,990.9,6.7,25.7,-0.3,-0.4,-1.8,25,990.641,7.58557,27.1232,-0.347786,-0.546153,-1.67997,
2026_07_06_19_27_28.895,3.873,51.7,0,0.776,0,0,0,0, ,0,0,0,0,0, ,991.2,6.7,26.4,-0.3,-0.5,-1.7,25,990.666,7.5316,27.0578,-0.344874,-0.540294,-1.68423,
2026_07_06_19_27_28.915,3.873,51.7,0,0.774,0,0,0,0, ,0,0,0,0,0, ,990.1,9.2,27.5,-0.3,-0.5,-1.7,25,990.665,7.5571,27.0512,-0.342139,-0.537839,-1.68519,
2026_07_06_19_27_28.935,3.873,51.7,0,0.775,0,0,0,0, ,0,0,0,0,0, ,988.6,7.5,28,-0.3,-0.5,-1.6,25,990.585,7.60542,27.0938,-0.339571,-0.535533,-1.68305,
2026_07_06_19_27_28.956,3.873,51.7,0,0.775,0,0,0,0, ,0,0,0,0,0, ,990.7,8,26.2,-0.3,-0.6,-1.7,25,990.528,7.61423,27.0942,-0.33716,-0.536414,-1.68104,
2026_07_06_19_27_28.975,3.873,51.7,0,0.775,0,0,0,0, ,0,0,0,0,0, ,990.7,8.5,26.3,-0.3,-0.5,-1.7,25,990.538,7.65297,27.0427,-0.334896,-0.537242,-1.68219,
2026_07_06_19_27_28.995,3.873,51.7,0,0.775,0,0,0,0, ,0,0,0,0,0, ,990.9,8.3,27.4,-0.3,-0.5,-1.6,25,990.554,7.69849,27.031,-0.332769,-0.534973,-1.68023,
2026_07_06_19_27_29.014,3.873,51.7,0,0.777,0,0,0,0, ,0,0,0,0,0, ,991,7.2,27.7,-0.4,-0.6,-1.5,25,990.578,7.70163,27.0626,-0.333819,-0.535889,-1.67229,
2026_07_06_19_27_29.034,3.873,51.6,0,0.775,0,0,0,0, ,0,0,0,0,0, ,988.8,6.3,27.9,-0.3,-0.6,-1.6,25,990.537,7.64364,27.1076,-0.334805,-0.539795,-1.66484,
2026_07_06_19_27_29.054,3.873,51.6,0,0.775,0,0,0,0, ,0,0,0,0,0, ,990.3,6.5,26,-0.3,-0.7,-1.7,25,990.477,7.56786,27.098,-0.332684,-0.546511,-1.66394,
2026_07_06_19_27_29.073,3.873,51.6,0,0.775,0,0,0,0, ,0,0,0,0,0, ,990.7,7.9,25.7,-0.3,-0.6,-1.8,25,990.478,7.54544,27.0219,-0.330693,-0.552817,-1.66918,
2026_07_06_19_27_29.093,3.873,51.7,0,0.776,0,0,0,0, ,0,0,0,0,0, ,991.6,6.9,26.7,-0.3,-0.4,-1.8,25,990.519,7.53658,26.9718,-0.328822,-0.549599,-1.67715,
2026_07_06_19_27_29.119,3.873,51.5,0,0.776,0,0,0,0, ,0,0,0,0,0, ,989.8,8.7,27.5,-0.3,-0.5,-1.7,25,990.53,7.55263,26.9796,-0.327066,-0.543529,-1.68159,
2026_07_06_19_27_29.133,3.873,51.6,0,0.775,0,0,0,0, ,0,0,0,0,0, ,988.6,10,29,-0.3,-0.6,-1.7,25,990.449,7.66216,27.057,-0.325417,-0.543924,-1.68271,
2026_07_06_19_27_29.153,3.873,51.7,0,0.775,0,0,0,0, ,0,0,0,0,0, ,989.1,6.7,25.8,-0.3,-0.6,-1.5,25,990.352,7.70407,27.0779,-0.323868,-0.547341,-1.67767,
2026_07_06_19_27_29.173,3.873,51.6,0,0.775,0,0,0,0, ,0,0,0,0,0, ,990.9,6.5,27.5,-0.3,-0.4,-1.7,25,990.33,7.63679,27.0519,-0.322413,-0.544456,-1.67294,
2026_07_06_19_27_29.192,3.873,51.7,0,0.774,0,0,0,0, ,0,0,0,0,0, ,991.3,5.6,25.7,-0.3,-0.5,-1.7,25,990.377,7.5401,27.0243,-0.321047,-0.5387,-1.67459,
2026_07_06_19_27_29.212,3.873,51.6,0,0.776,0,0,0,0, ,0,0,0,0,0, ,990.3,7.2,26.4,-0.4,-0.5,-1.7,25,990.403,7.47062,26.965,-0.322812,-0.536342,-1.67614,
2026_07_06_19_27_29.232,3.873,51.6,0,0.774,0,0,0,0, ,0,0,0,0,0, ,990.3,7,28.5,-0.4,-0.6,-1.6,25,990.397,7.44804,26.9945,-0.327515,-0.537174,-1.67455,
2026_07_06_19_27_29.251,3.873,51.6,0,0.774,0,0,0,0, ,0,0,0,0,0, ,991.2,7.6,26.6,-0.4,-0.6,-1.6,25,990.418,7.43902,27.0284,-0.331932,-0.541003,-1.67,
2026_07_06_19_27_29.272,3.873,51.6,0,0.774,0,0,0,0, ,0,0,0,0,0, ,989.5,6.7,27.9,-0.4,-0.5,-1.8,25,990.414,7.42141,27.0419,-0.33608,-0.541551,-1.67183,
2026_07_06_19_27_29.291,3.873,51.6,0,0.775,0,0,0,0, ,0,0,0,0,0, ,990.2,6.3,28.1,-0.3,-0.5,-1.8,25,990.38,7.36526,27.1003,-0.336929,-0.539019,-1.67964,
2026_07_06_19_27_29.312,3.873,51.5,0,0.776,0,0,0,0, ,0,0,0,0,0, ,990.2,7.5,26,-0.3,-0.4,-1.8,25,990.369,7.33691,27.0972,-0.334678,-0.533594,-1.68698,
2026_07_06_19_27_29.331,3.873,51.6,0,0.776,0,0,0,0, ,0,0,0,0,0, ,991.2,6.9,28,-0.4,-0.5,-1.6,25,990.389,7.32856,27.0913,-0.335612,-0.5285,-1.68777,
2026_07_06_19_27_29.351,3.873,51.6,0,0.775,0,0,0,0, ,0,0,0,0,0, ,990.2,6.2,25.7,-0.3,-0.5,-1.7,25,990.408,7.28112,27.0766,-0.336489,-0.526764,-1.68547,
2026_07_06_19_27_29.370,3.873,51.6,0,0.774,0,0,0,0, ,0,0,0,0,0, ,990.2,9.3,27,-0.4,-0.5,-1.8,25,990.395,7.30969,27.0323,-0.337312,-0.525133,-1.6894,
2026_07_06_19_27_29.390,3.873,51.6,0,0.774,0,0,0,0, ,0,0,0,0,0, ,990.9,9.2,28.6,-0.4,-0.6,-1.4,25,990.405,7.42793,27.0791,-0.341132,-0.526648,-1.68395,
2026_07_06_19_27_29.410,3.873,51.5,0,0.775,0,0,0,0, ,0,0,0,0,0, ,988.7,5.1,25.8,-0.3,-0.6,-1.6,25,990.368,7.41099,27.0864,-0.341672,-0.531118,-1.67274,
2026_07_06_19_27_29.430,3.873,51.5,0,0.775,0,0,0,0, ,0,0,0,0,0, ,991,6.8,27.2,-0.3,-0.5,-1.9,25,990.336,7.32196,27.0507,-0.339133,-0.532269,-1.67745,
2026_07_06_19_27_29.452,3.873,51.6,0,0.776,0,0,0,0, ,0,0,0,0,0, ,991.8,7.5,26.4,-0.3,-0.4,-1.7,25,990.401,7.31148,27.0354,-0.336748,-0.527255,-1.68492,
2026_07_06_19_27_29.469,3.873,51.6,0,0.775,0,0,0,0, ,0,0,0,0,0, ,990.9,7.5,28.3,-0.4,-0.4,-1.7,25,990.459,7.32297,27.0546,-0.337556,-0.519501,-1.68584,
2026_07_06_19_27_29.490,3.873,51.6,0,0.774,0,0,0,0, ,0,0,0,0,0, ,990.4,6.3,26.1,-0.3,-0.5,-1.7,25,990.471,7.2972,27.0635,-0.338314,-0.515265,-1.6867,
2026_07_06_19_27_29.509,3.873,51.5,0,0.775,0,0,0,0, ,0,0,0,0,0, ,989.5,7.3,26.6,-0.3,-0.6,-1.7,25,990.439,7.2669,27.02,-0.335979,-0.517382,-1.68751,
2026_07_06_19_27_29.529,3.873,51.5,0,0.775,0,0,0,0, ,0,0,0,0,0, ,989.8,7.5,26.6,-0.2,-0.6,-1.8,25,990.391,7.27501,26.9944,-0.33074,-0.522417,-1.69132,
2026_07_06_19_27_29.548,3.873,51.5,0,0.775,0,0,0,0, ,0,0,0,0,0, ,990.7,6.9,25.7,-0.3,-0.5,-1.7,25,990.382,7.27044,26.9429,-0.32582,-0.524097,-1.69489,
2026_07_06_19_27_29.569,3.873,51.5,0,0.775,0,0,0,0, ,0,0,0,0,0, ,989.9,7.6,26.9,-0.4,-0.4,-1.6,25,990.377,7.26919,26.9038,-0.327293,-0.519582,-1.69216,
2026_07_06_19_27_29.588,3.873,51.4,0,0.774,0,0,0,0, ,0,0,0,0,0, ,990.7,7.8,26.3,-0.5,-0.7,-1.4,25,990.372,7.29545,26.8852,-0.334771,-0.521436,-1.68045,
2026_07_06_19_27_29.608,3.873,51.5,0,0.775,0,0,0,0, ,0,0,0,0,0, ,990.2,6.8,26.6,-0.4,-0.6,-1.5,25,990.377,7.29572,26.8587,-0.341793,-0.52927,-1.66641,
2026_07_06_19_27_29.628,3.873,51.5,0,0.775,0,0,0,0, ,0,0,0,0,0, ,990.4,6.9,28.1,-0.4,-0.8,-1.4,25,990.372,7.26856,26.8887,-0.34534,-0.539674,-1.65322,
2026_07_06_19_27_29.648,3.873,51.5,0,0.773,0,0,0,0, ,0,0,0,0,0, ,989.7,6.1,25.8,-0.4,-0.7,-1.5,25,990.353,7.22173,26.8924,-0.348671,-0.552491,-1.64084,
2026_07_06_19_27_29.667,3.873,51.5,0,0.776,0,0,0,0, ,0,0,0,0,0, ,993.6,6.4,28.5,-0.5,-0.5,-1.6,25,990.432,7.16251,26.9081,-0.354845,-0.555386,-1.6353,
2026_07_06_19_27_29.688,3.873,51.5,0,0.776,0,0,0,0, ,0,0,0,0,0, ,990.9,8,24.6,-0.5,-0.4,-1.7,25,990.543,7.1648,26.8863,-0.363691,-0.548964,-1.6362,
2026_07_06_19_27_29.707,3.873,51.5,0,0.774,0,0,0,0, ,0,0,0,0,0, ,988.8,5.4,26.9,-0.4,-0.3,-2,25,990.5,7.13647,26.817,-0.36895,-0.53684,-1.64922,
2026_07_06_19_27_29.727,3.873,51.5,0,0.774,0,0,0,0, ,0,0,0,0,0, ,988,8,30.6,-0.4,-0.6,-1.7,25,990.372,7.10988,26.9348,-0.370842,-0.531548,-1.66146,
2026_07_06_19_27_29.747,3.873,51.5,0,0.774,0,0,0,0, ,0,0,0,0,0, ,989.6,5.4,28.3,-0.3,-0.5,-1.8,25,990.277,7.0849,27.0881,-0.369572,-0.532672,-1.66685,
2026_07_06_19_27_29.766,3.873,51.4,0,0.775,0,0,0,0, ,0,0,0,0,0, ,991.4,10.2,27,-0.4,-0.2,-2,25,990.29,7.12848,27.1223,-0.368379,-0.521541,-1.68106,
2026_07_06_19_27_29.787,3.873,51.4,0,0.775,0,0,0,0, ,0,0,0,0,0, ,992,7.3,26.7,-0.5,-0.4,-1.7,25,990.376,7.22729,27.1057,-0.373353,-0.50804,-1.69136,
2026_07_06_19_27_29.806,3.873,51.5,0,0.775,0,0,0,0, ,0,0,0,0,0, ,990.7,5.2,26.2,-0.4,-0.3,-2,25,990.436,7.16773,27.0658,-0.378024,-0.49841,-1.70102,
2026_07_06_19_27_29.827,3.873,51.4,0,0.774,0,0,0,0, ,0,0,0,0,0, ,990.3,5.7,25.7,-0.5,-0.2,-2.3,25,990.439,7.06306,26.9978,-0.38241,-0.483272,-1.72838,
2026_07_06_19_27_29.846,3.873,51.4,0,0.774,0,0,0,0, ,0,0,0,0,0, ,991.6,-0.2,22.9,-0.9,0,-2.8,25,990.471,6.80023,26.8334,-0.401763,-0.459917,-1.77845,
2026_07_06_19_27_29.866,3.873,51.4,0,0.775,0,0,0,0, ,0,0,0,0,0, ,988.2,4.5,63.8,0,-1.8,-4.3,25,990.436,6.51686,27.8399,-0.404703,-0.486734,-1.8864,
2026_07_06_19_27_29.885,3.873,51.4,0,0.775,0,0,0,0, ,0,0,0,0,0, ,992.4,5.9,42.4,3.2,-2.9,-3.2,25,990.428,6.43661,29.3792,-0.282541,-0.600277,-1.99997,
2026_07_06_19_27_29.906,3.873,51.3,0,0.775,0,0,0,0, ,0,0,0,0,0, ,996.3,-2,-12.3,3.8,-1.7,-5.5,25,990.667,6.16321,28.506,-0.0520424,-0.703854,-2.14317,
2026_07_06_19_27_29.925,3.873,51.4,0,0.775,0,0,0,0, ,0,0,0,0,0, ,1007.4,-35.1,32.3,-3.7,11.8,-18.1,25,991.348,4.65725,27.3783,-0.0458242,-0.353228,-2.73164,
2026_07_06_19_27_29.945,3.873,51.3,0,0.774,0,0,0,0, ,0,0,0,0,0, ,1007,25,31.3,-14.3,26,-49.4,25,992.314,4.06571,27.6477,-0.591469,0.820015,-4.62182,
2026_07_06_19_27_29.970,3.873,51.4,0,0.774,0,0,0,0, ,0,0,0,0,0, ,1093.9,74.4,47.3,-18.4,29,-59.8,25,995.857,6.84655,28.3578,-1.55175,2.44583,-7.66736,
2026_07_06_19_27_29.985,3.873,51.2,0,0.775,0,0,0,0, ,0,0,0,0,0, ,1394.2,119.1,-134.3,1.3,36.8,-55.5,25,1010.98,12.325,23.9789,-1.97821,4.30163,-10.7132,
2026_07_06_19_27_30.008,3.873,51.3,0,0.775,0,0,0,0, ,0,0,0,0,0, ,1886.7,226.4,6.2,-23.8,18.7,-19.6,25,1049.34,22.1009,18.6147,-2.54321,5.73051,-12.3485,
2026_07_06_19_27_30.023,3.873,51.3,0,0.774,0,0,0,0, ,0,0,0,0,0, ,1999.9,266.3,-130.9,-21.3,-4,15.3,25,1103.81,35.7661,13.6809,-3.76237,5.8292,-11.7271,
2026_07_06_19_27_30.043,3.873,51.3,0,0.774,0,0,0,0, ,0,0,0,0,0, ,1999.6,321.5,-80.8,-13.5,1.4,32.9,25,1158.41,51.4961,6.39698,-4.59342,5.39476,-9.54386,
2026_07_06_19_27_30.063,3.873,51.3,0,0.774,0,0,0,0, ,0,0,0,0,0, ,1911.8,298.3,-9.7,-2.2,5.5,50.3,25,1207,67.2426,3.24975,-4.79186,5.27626,-6.42728,
2026_07_06_19_27_30.083,3.873,51.4,0,0.775,0,0,0,0, ,0,0,0,0,0, ,1828.7,217.2,13.9,15,1.3,50.9,25,1247.41,78.8517,3.17968,-4.10986,5.16192,-2.95218,
2026_07_06_19_27_30.103,3.873,51.3,0,0.775,0,0,0,0, ,0,0,0,0,0, ,1731.5,72.1,84.7,26.8,-11.6,42.6,25,1279.87,82.8613,5.99014,-2.58582,4.53354,0.0765436,
2026_07_06_19_27_30.123,3.873,51.3,0,0.775,0,0,0,0, ,0,0,0,0,0, ,1633.1,69.2,180.2,28.5,-23.6,48.7,25,1304.4,82.1171,13.6963,-0.743327,3.18478,2.85368,
2026_07_06_19_27_30.143,3.873,51.4,0,0.774,0,0,0,0, ,0,0,0,0,0, ,1415.1,139.2,238.2,22.1,-11.9,61.4,25,1317.78,83.4628,25.6098,0.843688,1.90906,6.03439,
2026_07_06_19_27_30.163,3.873,51.3,0,0.774,0,0,0,0, ,0,0,0,0,0, ,1212,123.9,251.5,11,0,55.8,25,1317.53,86.3931,38.9697,1.80079,1.43015,9.23761,
2026_07_06_19_27_30.182,3.873,51.3,0,0.773,0,0,0,0, ,0,0,0,0,0, ,1027.9,-10.9,218.6,14,3.1,33.1,25,1305.49,84.5715,50.9184,2.45277,1.43745,11.3834,
2026_07_06_19_27_30.202,3.873,51.3,0,0.774,0,0,0,0, ,0,0,0,0,0, ,1011.8,-86.7,250.9,7.5,-14.9,9,25,1288.08,76.4442,62.1206,2.95839,0.990329,11.9724,
2026_07_06_19_27_30.222,3.873,51.3,0,0.775,0,0,0,0, ,0,0,0,0,0, ,1207,-34.3,207.6,3.2,-49.7,5.4,25,1277.19,68.0991,72.3051,3.10413,-1.0383,11.6816,
2026_07_06_19_27_30.242,3.873,51.2,0,0.775,0,0,0,0, ,0,0,0,0,0, ,1272.4,10.2,117,22.9,-42.7,30.4,25,1274.91,63.2151,77.7891,3.7102,-3.79034,12.0605,
2026_07_06_19_27_30.261,3.873,51.3,0,0.775,0,0,0,0, ,0,0,0,0,0, ,1016.7,-20.3,164.1,41.2,-32.5,47.4,25,1266.96,59.0552,81.6136,5.43716,-5.85062,13.6961,
2026_07_06_19_27_30.281,3.873,51.3,0,0.775,0,0,0,0, ,0,0,0,0,0, ,826.5,-34.9,148.3,39.1,-50.2,50.5,25,1245.92,53.7746,86.1587,7.55247,-8.01386,15.8444,
2026_07_06_19_27_30.300,3.873,51.3,0,0.775,0,0,0,0, ,0,0,0,0,0, ,744.9,96,164.5,28.7,-68.9,49.7,25,1217.87,52.3594,90.4391,9.15802,-11.1543,17.9318,
2026_07_06_19_27_30.321,3.873,51.3,0,0.774,0,0,0,0, ,0,0,0,0,0, ,601.1,326.7,255.7,46.3,-79.3,117.9,25,1184.67,62.0479,97.7309,10.8851,-14.9901,21.9456,
2026_07_06_19_27_30.344,3.873,51.4,0,0.774,0,0,0,0, ,0,0,0,0,0, ,535.4,-60,370.6,-34.7,-101.7,150.2,25,1147.11,66.3928,110.858,10.5752,-19.5915,28.777,
2026_07_06_19_27_30.360,3.873,51.3,0,0.774,0,0,0,0, ,0,0,0,0,0, ,704.1,-207.6,166.6,-40.4,-45.1,48.6,25,1114.97,54.1936,120.47,7.64261,-22.8704,33.0806,
2026_07_06_19_27_30.380,3.873,51.3,0,0.774,0,0,0,0, ,0,0,0,0,0, ,906.1,-78.8,-110.2,-36.1,55.4,-29.1,25,1096.09,42.1649,114.848,4.84603,-21.1629,31.6589,
2026_07_06_19_27_30.400,3.873,51.2,0,0.775,0,0,0,0, ,0,0,0,0,0, ,654.1,47.6,102.5,41.6,89.1,52.3,25,1076.83,38.6449,107.615,4.7183,-15.4706,30.4365,
2026_07_06_19_27_30.420,3.873,51.3,0,0.774,0,0,0,0, ,0,0,0,0,0, ,229.3,-150.1,260.7,52.1,71.3,87.4,25,1038.13,33.1669,112.123,7.2857,-9.64066,32.8383,
2026_07_06_19_27_30.440,3.873,51.3,0,0.776,0,0,0,0, ,0,0,0,0,0, ,104.9,-230.5,206.5,5.1,29.9,68.4,25,985.051,19.5494,119.526,8.58454,-5.96975,35.5843,
2026_07_06_19_27_30.460,3.873,51.2,0,0.774,0,0,0,0, ,0,0,0,0,0, ,184.9,-166.7,117.4,-22.8,0.2,52.4,25,933.855,6.2559,122.111,7.52212,-4.68886,37.0965,
2026_07_06_19_27_30.480,3.873,51.2,0,0.774,0,0,0,0, ,0,0,0,0,0, ,345.7,-178.9,182.6,-5.8,-19.1,34.6,25,893.115,-4.65532,123.81,6.19234,-4.97899,37.4867,
2026_07_06_19_27_30.499,3.873,51.2,0,0.775,0,0,0,0, ,0,0,0,0,0, ,547.8,-348.6,97.6,51.7,-23.4,5.6,25,865.914,-20.4439,124.803,7.21351,-5.9705,36.4272,
2026_07_06_19_27_30.519,3.873,51.2,0,0.774,0,0,0,0, ,0,0,0,0,0, ,697.1,-448.1,155.8,24.2,-41,-1.6,25,851.078,-43.4725,124.919,9.08651,-7.56886,34.3293,
2026_07_06_19_27_30.538,3.873,51.2,0,0.774,0,0,0,0, ,0,0,0,0,0, ,755.1,-547.4,197.5,9.8,-61.6,18.7,25,843.462,-71.1551,128.071,9.56874,-10.2337,32.7583,
2026_07_06_19_27_30.559,3.873,51.1,0,0.774,0,0,0,0, ,0,0,0,0,0, ,734.2,-523.8,36.9,-8,-58.5,44.5,25,837.441,-99.4572,127.408,9.04049,-13.2694,32.6878,
2026_07_06_19_27_30.578,3.873,51.3,0,0.775,0,0,0,0, ,0,0,0,0,0, ,584.9,-451.1,-2,-26.7,-51.7,61.4,25,826.601,-123.1,120.708,7.43232,-15.8185,33.9225,
2026_07_06_19_27_30.598,3.873,51.2,0,0.775,0,0,0,0, ,0,0,0,0,0, ,514.6,-450.4,-114.8,-25.3,-53.5,58.3,25,809.73,-143.067,109.793,5.39504,-18.0598,35.5024,
2026_07_06_19_27_30.618,3.873,51.3,0,0.775,0,0,0,0, ,0,0,0,0,0, ,519.7,-478.5,-252.3,-7.8,-60,47.5,25,791.901,-162.651,91.9179,4.05776,-20.4175,36.5626,
2026_07_06_19_27_30.638,3.873,51.1,0,0.775,0,0,0,0, ,0,0,0,0,0, ,546.7,-482.5,-438.9,11.8,-54.7,29.4,25,776.136,-182.02,65.2566,3.93237,-22.6681,36.6776,
2026_07_06_19_27_30.657,3.873,51.2,0,0.774,0,0,0,0, ,0,0,0,0,0, ,570.8,-479.3,-471.8,12.1,-50,24.6,25,762.889,-200.233,33.5322,4.42094,-24.4768,36.0879,
2026_07_06_19_27_30.677,3.873,51.1,0,0.775,0,0,0,0, ,0,0,0,0,0, ,596.8,-498.1,-478,25.2,-43.8,18.4,25,751.976,-217.811,2.54958,5.28802,-25.8432,35.1989,
2026_07_06_19_27_30.697,3.873,51.1,0,0.775,0,0,0,0, ,0,0,0,0,0, ,596.8,-559.3,-379.2,14.5,-35,1.9,25,742.52,-236.756,-23.7236,6.17539,-26.6694,33.6725,
2026_07_06_19_27_30.717,3.873,51.1,0,0.775,0,0,0,0, ,0,0,0,0,0, ,611.3,-561.1,-343.9,6.4,-36,-9.2,25,734.082,-256.466,-44.3099,6.43588,-27.2075,31.3982,
2026_07_06_19_27_30.737,3.873,51.2,0,0.775,0,0,0,0, ,0,0,0,0,0, ,725.4,-554.8,-343.3,-4.9,-45.8,1.9,25,730.077,-274.838,-62.5479,6.0894,-28.0419,29.2624,
2026_07_06_19_27_30.757,3.873,51.1,0,0.774,0,0,0,0, ,0,0,0,0,0, ,599.6,-538.3,-369.8,-10.3,-32,-5.9,25,725.959,-291.395,-80.4636,5.2552,-28.7035,27.3574,
2026_07_06_19_27_30.776,3.873,51.1,0,0.775,0,0,0,0, ,0,0,0,0,0, ,709.3,-498.6,-346.1,0.6,-34.9,-11.6,25,721.601,-305.231,-97.373,4.63941,-28.9928,25.1571,
2026_07_06_19_27_30.796,3.873,51.2,0,0.774,0,0,0,0, ,0,0,0,0,0, ,688.2,-517.3,-376.8,15.5,-21.1,-11.9,25,720.209,-317.584,-113.465,4.84725,-28.9323,22.9081,
2026_07_06_19_27_30.816,3.873,51.1,0,0.775,0,0,0,0, ,0,0,0,0,0, ,634.6,-493,-288,26.3,1,-30.7,25,716.625,-329.014,-126.806,5.82546,-27.7816,20.2141,
2026_07_06_19_27_30.836,3.873,51.1,0,0.775,0,0,0,0, ,0,0,0,0,0, ,644.6,-469.9,-268,6.4,5.4,-23.4,25,711.931,-338.303,-136.02,6.4668,-25.8937,17.334,
2026_07_06_19_27_30.855,3.873,51.1,0,0.774,0,0,0,0, ,0,0,0,0,0, ,630.1,-473.9,-375.7,-5.7,19.5,-16.5,25,707.386,-346.444,-147.344,6.09406,-23.5571,15.062,
2026_07_06_19_27_30.875,3.873,51,0,0.775,0,0,0,0, ,0,0,0,0,0, ,628,-459.7,-439.4,-1,21.9,-22.8,25,702.613,-353.778,-163.2,5.51856,-20.8602,12.9467,
2026_07_06_19_27_30.901,3.873,51,0,0.774,0,0,0,0, ,0,0,0,0,0, ,630.6,-450.4,-436.6,7.9,7.6,-27.5,25,698.145,-359.95,-179.946,5.39251,-18.6902,10.6252,
2026_07_06_19_27_30.915,3.873,51,0,0.775,0,0,0,0, ,0,0,0,0,0, ,618.2,-457.3,-356.2,18.9,-9.8,-33,25,693.651,-365.672,-193.136,5.88046,-17.6183,8.13437,
2026_07_06_19_27_30.935,3.873,51.1,0,0.775,0,0,0,0, ,0,0,0,0,0, ,614.7,-428.7,-291,25.7,-27,-35,25,688.947,-370.384,-201.086,6.88103,-17.6659,5.56681,
2026_07_06_19_27_30.955,3.873,51.1,0,0.774,0,0,0,0, ,0,0,0,0,0, ,633.5,-428.2,-272.2,27.6,-29.2,-38.6,25,684.995,-373.922,-205.992,8.0857,-18.3018,2.98508,
2026_07_06_19_27_30.973,3.873,51.1,0,0.774,0,0,0,0, ,0,0,0,0,0, ,619,-385,-290.6,34.3,-32.4,-41,25,681.416,-375.914,-210.588,9.47899,-19.0634,0.377865,
2026_07_06_19_27_30.993,3.873,51.1,0,0.775,0,0,0,0, ,0,0,0,0,0, ,563.7,-342.4,-276.9,41.8,-43.7,-37.3,25,675.927,-375.169,-215.046,11.22,-20.2204,-2.03086,
2026_07_06_19_27_31.013,3.873,51,0,0.774,0,0,0,0, ,0,0,0,0,0, ,536.3,-331,-276.7,58.4,-54.4,-43.1,25,668.254,-372.825,-218.809,13.5893,-21.9772,-4.3568,
2026_07_06_19_27_31.033,3.873,51.1,0,0.774,0,0,0,0, ,0,0,0,0,0, ,545.7,-324.7,-220,62.4,-57.9,-47.2,25,660.499,-370.084,-220.609,16.4418,-24.0596,-6.84263,
2026_07_06_19_27_31.053,3.873,51,0,0.774,0,0,0,0, ,0,0,0,0,0, ,595,-263.7,-260.9,64.1,-44.2,-51.2,25,655.006,-365.46,-221.818,19.2942,-25.7043,-9.42378,
2026_07_06_19_27_31.073,3.873,51.1,0,0.773,0,0,0,0, ,0,0,0,0,0, ,645.5,-205.6,-264.8,77,-10.7,-44.4,25,652.888,-357.489,-224.319,22.4176,-25.8107,-11.7623,
2026_07_06_19_27_31.095,3.873,51,0,0.774,0,0,0,0, ,0,0,0,0,0, ,582.7,-252.3,-98.1,84,9.2,-35.5,25,650.524,-349.656,-221.706,25.957,-24.2836,-13.48,
2026_07_06_19_27_31.113,3.873,51,0,0.774,0,0,0,0, ,0,0,0,0,0, ,465.8,-223.7,-41.8,66.4,1.8,-36.9,25,642.829,-342.852,-212.459,28.9577,-22.4686,-14.8645,
2026_07_06_19_27_31.133,3.873,51,0,0.774,0,0,0,0, ,0,0,0,0,0, ,417.3,-121.4,-20.6,20.7,-12.8,-34.7,25,630.564,-332.474,-201.413,29.8469,-21.4346,-16.1403,
2026_07_06_19_27_31.152,3.873,51.1,0,0.774,0,0,0,0, ,0,0,0,0,0, ,423.4,-33.9,13.9,-18.7,-8.6,-31.4,25,617.754,-316.946,-189.344,28.0891,-20.7805,-17.1707,
2026_07_06_19_27_31.172,3.873,51,0,0.774,0,0,0,0, ,0,0,0,0,0, ,505.2,-142.7,12.8,-41.9,7.1,-38.8,25,608.403,-303.013,-176.992,24.531,-19.5598,-18.2633,
2026_07_06_19_27_31.192,3.873,51,0,0.775,0,0,0,0, ,0,0,0,0,0, ,658.2,-209.4,-105.4,-50.3,40.3,-48.7,25,606.776,-295.276,-169.028,20.2269,-16.9237,-19.8164,
2026_07_06_19_27_31.211,3.873,51.1,0,0.774,0,0,0,0, ,0,0,0,0,0, ,692.7,-158.6,-84.2,-43.6,53,-41.7,25,610.96,-288.495,-164.505,16.1333,-13.0497,-21.3632,
2026_07_06_19_27_31.231,3.873,51,0,0.775,0,0,0,0, ,0,0,0,0,0, ,607.2,-54.5,-88.2,-34.3,45.1,-28.7,25,613.336,-277.408,-159.733,12.7767,-9.26548,-22.2064,
2026_07_06_19_27_31.251,3.873,50.9,0,0.774,0,0,0,0, ,0,0,0,0,0, ,628.7,-193.4,-93.2,-34.1,50.9,-46.1,25,613.617,-268.057,-155.526,9.91405,-5.77587,-23.1322,
2026_07_06_19_27_31.276,3.873,50.9,0,0.774,0,0,0,0, ,0,0,0,0,0, ,752.1,-175.2,-10.2,-15.8,59.3,-63.3,25,618.296,-262.953,-149.199,7.78952,-2.06624,-25.0559,
2026_07_06_19_27_31.293,3.873,50.9,0,0.776,0,0,0,0, ,0,0,0,0,0, ,885.3,-127.8,127.9,-37.2,54.1,-56.4,25,630.509,-256.161,-136.521,5.7,1.51482,-27.1762,
2026_07_06_19_27_31.311,3.873,51,0,0.775,0,0,0,0, ,0,0,0,0,0, ,922.8,-17.7,38.8,-96.9,49.6,-48.3,25,647.177,-244.984,-123.123,1.2668,4.58212,-28.7102,
2026_07_06_19_27_31.330,3.873,50.9,0,0.774,0,0,0,0, ,0,0,0,0,0, ,936.4,-184.9,-137.4,-85.7,54.6,-46.5,25,664.388,-236.229,-118.624,-4.37399,7.47774,-29.8491,
2026_07_06_19_27_31.350,3.873,51,0,0.773,0,0,0,0, ,0,0,0,0,0, ,1039.7,-178.1,-145.1,-11.6,86.5,-75.8,25,684.111,-232.894,-120.003,-7.07206,11.3212,-31.7565,
2026_07_06_19_27_31.370,3.873,51,0,0.774,0,0,0,0, ,0,0,0,0,0, ,1134.3,-143.1,-29.9,-21.3,95.8,-74.6,25,708.662,-228.488,-118.023,-7.64352,16.1858,-34.4038,
2026_07_06_19_27_31.390,3.873,50.9,0,0.775,0,0,0,0, ,0,0,0,0,0, ,1249.3,-79.1,7.4,-36,106.5,-71,25,738.103,-221.335,-111.516,-8.92361,21.3633,-36.7436,
2026_07_06_19_27_31.410,3.873,50.9,0,0.774,0,0,0,0, ,0,0,0,0,0, ,1279.4,-47.6,-86.3,-30.7,84.4,-66.9,25,770.171,-211.708,-107.125,-10.4121,25.8779,-38.7062,
2026_07_06_19_27_31.430,3.873,51,0,0.774,0,0,0,0, ,0,0,0,0,0, ,1382.3,-1.8,-116.5,-5.4,66.1,-70,25,804.338,-200.312,-106.776,-10.8775,28.8866,-40.5187,
2026_07_06_19_27_31.449,3.873,50.9,0,0.774,0,0,0,0, ,0,0,0,0,0, ,1475,35.1,-31.7,4.2,68.9,-51.2,25,842.382,-187.091,-104.785,-10.2512,31.2396,-41.7424,
2026_07_06_19_27_31.470,3.873,50.9,0,0.774,0,0,0,0, ,0,0,0,0,0, ,1348.7,77.2,142.4,12.1,70.4,-39,25,877.084,-172.268,-95.0263,-9.12991,33.5802,-41.947,
2026_07_06_19_27_31.493,3.873,50.9,0,0.774,0,0,0,0, ,0,0,0,0,0, ,1411.8,171.3,316.5,5.6,35.3,-49.3,25,907.745,-154.199,-75.2536,-8.03426,34.7544,-42.0812,
2026_07_06_19_27_31.509,3.873,50.9,0,0.774,0,0,0,0, ,0,0,0,0,0, ,1558.1,273.3,351.4,-14.7,9.3,-44.8,25,942.919,-131.256,-50.3177,-7.82194,33.9955,-42.384,
2026_07_06_19_27_31.528,3.873,50.9,0,0.775,0,0,0,0, ,0,0,0,0,0, ,1621.8,305.1,367.7,-51.3,5.8,-34.1,25,982.347,-105.635,-25.3414,-9.35623,32.384,-42.2052,
2026_07_06_19_27_31.548,3.873,50.9,0,0.774,0,0,0,0, ,0,0,0,0,0, ,1690.4,229.4,266.3,-77.4,4.6,-8.7,25,1023.4,-82.9121,-4.47998,-12.7074,30.7275,-40.9374,
2026_07_06_19_27_31.568,3.873,50.9,0,0.774,0,0,0,0, ,0,0,0,0,0, ,1671.5,96.8,185.1,-61.8,18.4,7.4,25,1063.47,-67.9207,9.54661,-16.1743,29.5558,-38.4824,
2026_07_06_19_27_31.588,3.873,50.9,0,0.774,0,0,0,0, ,0,0,0,0,0, ,1522.5,39.7,230.3,-51.4,23.3,21.2,25,1095.98,-59.6228,21.6216,-18.6377,29.0253,-35.266,
2026_07_06_19_27_31.607,3.873,50.8,0,0.775,0,0,0,0, ,0,0,0,0,0, ,1278.9,19.6,237.9,-36,1.5,39.3,25,1114.55,-54.1828,34.5695,-20.165,28.0122,-31.2736,
2026_07_06_19_27_31.627,3.873,50.9,0,0.774,0,0,0,0, ,0,0,0,0,0, ,1046.1,-26.2,222.1,-43.4,-33.9,35.1,25,1117.48,-51.0821,46.4785,-21.3554,25.318,-27.101,
2026_07_06_19_27_31.647,3.873,50.9,0,0.774,0,0,0,0, ,0,0,0,0,0, ,973.5,-15.7,175.2,5.9,-51.3,2,25,1110.91,-49.2459,55.7515,-21.1966,21.1792,-24.3191,
2026_07_06_19_27_31.673,3.873,50.8,0,0.774,0,0,0,0, ,0,0,0,0,0, ,1083.2,78.7,149,0,-49.8,-22.1,25,1105.88,-44.3255,62.2321,-19.7252,16.8082,-23.4496,
2026_07_06_19_27_31.690,3.873,50.8,0,0.774,0,0,0,0, ,0,0,0,0,0, ,1276.4,83,42.7,-10.8,-37.3,-23,25,1110.39,-36.6976,64.2807,-18.8522,13.1302,-23.3948,
2026_07_06_19_27_31.706,3.873,50.8,0,0.774,0,0,0,0, ,0,0,0,0,0, ,1314.4,54.9,-35.6,-4.9,3.1,-13,25,1121.66,-30.2597,60.5799,-18.1818,11.288,-23.066,
2026_07_06_19_27_31.726,3.873,50.8,0,0.775,0,0,0,0, ,0,0,0,0,0, ,1190.9,49.8,35.1,0.9,17.3,-2.4,25,1129.64,-25.2257,56.8731,-17.1957,11.2217,-22.1297,
2026_07_06_19_27_31.746,3.873,50.8,0,0.773,0,0,0,0, ,0,0,0,0,0, ,1047.1,53.8,48.2,3.4,3,-2.2,25,1128.99,-20.5319,55.9454,-16.0168,11.1564,-20.9213,
2026_07_06_19_27_31.766,3.873,50.8,0,0.774,0,0,0,0, ,0,0,0,0,0, ,1021.8,75.6,21.3,3,-20.6,-11.6,25,1123.23,-15.3381,54.6538,-14.8458,9.94031,-20.0669,
2026_07_06_19_27_31.786,3.873,50.8,0,0.774,0,0,0,0, ,0,0,0,0,0, ,1167.8,75,-41,5,-34.6,-9.7,25,1121.5,-9.81483,50.7231,-13.6974,7.6527,-19.493,
2026_07_06_19_27_31.805,3.873,50.9,0,0.773,0,0,0,0, ,0,0,0,0,0, ,1117,68.2,22.4,9.2,-11.9,-0.5,25,1122.77,-4.85361,47.0655,-12.4301,5.76956,-18.616,
2026_07_06_19_27_31.825,3.873,50.8,0,0.773,0,0,0,0, ,0,0,0,0,0, ,989.9,55.6,80.8,-1.2,-6.3,1.6,25,1118.55,-0.785815,47.3418,-11.4289,4.86345,-17.448,
2026_07_06_19_27_31.844,3.873,50.8,0,0.774,0,0,0,0, ,0,0,0,0,0, ,953.7,31.7,38.9,-10.2,-4,-3.2,25,1109.61,1.92199,48.104,-11.0797,4.25326,-16.4335,
2026_07_06_19_27_31.864,3.873,50.9,0,0.774,0,0,0,0, ,0,0,0,0,0, ,956.7,21.1,-18.6,-9.9,-1.7,-6.4,25,1100.2,3.41362,45.7912,-11.017,3.8204,-15.7246,
2026_07_06_19_27_31.889,3.873,50.7,0,0.775,0,0,0,0, ,0,0,0,0,0, ,944.3,12.8,-1.5,-5.8,4,-7.3,25,1091.08,4.23849,42.3884,-10.824,3.65767,-15.1838,
2026_07_06_19_27_31.905,3.873,50.8,0,0.775,0,0,0,0, ,0,0,0,0,0, ,993.5,-9,33.3,-5.3,1.2,-12.7,25,1083.63,4.09599,40.7742,-10.5026,3.59322,-14.8679,
2026_07_06_19_27_31.924,3.873,50.7,0,0.773,0,0,0,0, ,0,0,0,0,0, ,1045.7,4.8,10.4,-3.5,2.9,-4.1,25,1079.73,3.71842,39.621,-10.1307,3.49918,-14.4738,
2026_07_06_19_27_31.944,3.873,50.7,0,0.775,0,0,0,0, ,0,0,0,0,0, ,1003.7,13.5,10.9,0.8,9.2,-2.1,25,1076.38,4.04941,37.8556,-9.59567,3.65462,-13.7807,
2026_07_06_19_27_31.964,3.873,50.7,0,0.775,0,0,0,0, ,0,0,0,0,0, ,981,21.3,40.5,1.2,10.6,-2.7,25,1071.26,4.86296,37.1149,-8.95,4.0352,-13.0872,
2026_07_06_19_27_31.984,3.873,50.8,0,0.775,0,0,0,0, ,0,0,0,0,0, ,985.1,21.9,58.3,0.6,10.9,-3.4,25,1065.88,5.88287,37.8635,-8.34976,4.44438,-12.4756,
2026_07_06_19_27_32.003,3.873,50.8,0,0.774,0,0,0,0, ,0,0,0,0,0, ,1000.4,21.3,59.5,0.9,10.4,-3.1,25,1061.42,6.84064,39.1454,-7.79524,4.82254,-11.9134,
2026_07_06_19_27_32.023,3.873,50.8,0,0.774,0,0,0,0, ,0,0,0,0,0, ,1006.4,16.9,67.2,0.8,10,-1.9,25,1057.89,7.58769,40.6204,-7.26843,5.15023,-11.3397,
2026_07_06_19_27_32.043,3.873,50.8,0,0.774,0,0,0,0, ,0,0,0,0,0, ,997.9,17,61.6,-0.2,9.4,-2.2,25,1054.49,8.15821,42.0695,-6.80722,5.42748,-10.7737,
2026_07_06_19_27_32.063,3.873,50.8,0,0.774,0,0,0,0, ,0,0,0,0,0, ,980.3,10.9,67.6,0.9,9.4,-3.8,25,1050.51,8.51114,43.4424,-6.37108,5.66955,-10.2999,
2026_07_06_19_27_32.088,3.873,50.8,0,0.774,0,0,0,0, ,0,0,0,0,0, ,972.6,12.2,91.9,2.4,6.5,-5.2,25,1045.99,8.69632,45.6549,-5.8823,5.80852,-9.94651,
2026_07_06_19_27_32.102,3.873,50.7,0,0.776,0,0,0,0, ,0,0,0,0,0, ,986.4,21.6,108.5,4.1,1.4,-5.6,25,1041.94,9.19624,48.9787,-5.3258,5.69527,-9.66946,
2026_07_06_19_27_32.122,3.873,50.8,0,0.774,0,0,0,0, ,0,0,0,0,0, ,1005.9,34,89.7,1.6,-2,-4.9,25,1039.15,10.3299,52.033,-4.82758,5.32993,-9.40015,
2026_07_06_19_27_32.142,3.873,50.6,0,0.775,0,0,0,0, ,0,0,0,0,0, ,999.6,29.4,68.6,0.7,-1.5,-3.9,25,1036.93,11.6321,53.6854,-4.46333,4.8985,-9.09545,
2026_07_06_19_27_32.162,3.873,50.7,0,0.774,0,0,0,0, ,0,0,0,0,0, ,979.3,22.9,66.2,1.1,-0.2,-4.6,25,1034.04,12.5168,54.5212,-4.1365,4.5482,-8.80018,
2026_07_06_19_27_32.182,3.873,50.7,0,0.774,0,0,0,0, ,0,0,0,0,0, ,975.8,17.3,88.7,1.3,-2.4,-5.6,25,1030.6,12.9789,55.9184,-3.81131,4.19182,-8.5747,
2026_07_06_19_27_32.201,3.873,50.7,0,0.774,0,0,0,0, ,0,0,0,0,0, ,990.6,24.4,75,0.7,-6.1,-5.6,25,1027.71,13.4586,57.4986,-3.51812,3.6774,-8.39343,
2026_07_06_19_27_32.221,3.873,50.6,0,0.773,0,0,0,0, ,0,0,0,0,0, ,987.9,31.9,75.4,2.2,-7,-5.1,25,1025.37,14.3538,58.5773,-3.21537,3.05417,-8.20797,
2026_07_06_19_27_32.240,3.873,50.7,0,0.774,0,0,0,0, ,0,0,0,0,0, ,984.6,39.4,78.3,1,-7.7,-4.9,25,1022.98,15.6516,59.6908,-2.92193,2.42016,-8.01249,
2026_07_06_19_27_32.260,3.873,50.7,0,0.775,0,0,0,0, ,0,0,0,0,0, ,980.7,39.9,70,-1.8,-9.1,-4.8,25,1020.52,17.114,60.5719,-2.76825,1.76081,-7.81977,
2026_07_06_19_27_32.280,3.873,50.6,0,0.774,0,0,0,0, ,0,0,0,0,0, ,985.3,40.5,53.8,-2.6,-9.8,-4.6,25,1018.24,18.5208,60.6528,-2.73363,1.07765,-7.62966,
2026_07_06_19_27_32.300,3.873,50.7,0,0.774,0,0,0,0, ,0,0,0,0,0, ,986.6,36.9,51.8,-3.8,-10.5,-4,25,1016.27,19.7504,60.1743,-2.76205,0.393466,-7.42676,
2026_07_06_19_27_32.320,3.873,50.7,0,0.774,0,0,0,0, ,0,0,0,0,0, ,984.7,33.5,40.4,-4.3,-10.8,-4.1,25,1014.4,20.6919,59.3166,-2.84053,-0.279495,-7.22099,
2026_07_06_19_27_32.340,3.873,50.7,0,0.774,0,0,0,0, ,0,0,0,0,0, ,990.6,37.3,33.5,-4.2,-10.7,-3.8,25,1012.77,21.5882,57.9537,-2.92642,-0.917542,-7.02166,
2026_07_06_19_27_32.359,3.873,50.6,0,0.775,0,0,0,0, ,0,0,0,0,0, ,1005.6,38.9,35.2,-3.4,-9.1,-2.7,25,1011.88,22.5944,56.5153,-2.97965,-1.46491,-6.79183,
2026_07_06_19_27_32.379,3.873,50.7,0,0.774,0,0,0,0, ,0,0,0,0,0, ,1001.5,36.3,33.5,-1.1,-6.4,-1.6,25,1011.37,23.5088,55.1646,-2.93519,-1.84791,-6.50897,
2026_07_06_19_27_32.399,3.873,50.7,0,0.774,0,0,0,0, ,0,0,0,0,0, ,987.1,35.2,37.2,0.3,-5.2,-1.2,25,1010.33,24.2547,53.9572,-2.7807,-2.08874,-6.19764,
2026_07_06_19_27_32.419,3.873,50.7,0,0.774,0,0,0,0, ,0,0,0,0,0, ,982.6,39.9,35.4,1.2,-5.1,-1.2,25,1008.78,25.0649,52.8812,-2.56555,-2.27528,-5.89309,
2026_07_06_19_27_32.439,3.873,50.6,0,0.774,0,0,0,0, ,0,0,0,0,0, ,993.8,39,38.2,0.2,-5.7,-1.2,25,1007.52,25.9415,51.9012,-2.36656,-2.4657,-5.60711,
2026_07_06_19_27_32.458,3.873,50.7,0,0.774,0,0,0,0, ,0,0,0,0,0, ,993.1,39.1,36.4,-0.2,-5.7,-1.8,25,1006.67,26.7403,51.0115,-2.22234,-2.66279,-5.35683,
2026_07_06_19_27_32.478,3.873,50.6,0,0.775,0,0,0,0, ,0,0,0,0,0, ,987.9,39.7,39.5,-0.8,-6.2,-1.6,25,1005.68,27.5117,50.2155,-2.11739,-2.8631,-5.13399,
2026_07_06_19_27_32.500,3.873,50.6,0,0.775,0,0,0,0, ,0,0,0,0,0, ,984.3,37.3,30.2,-1.1,-5.5,-2.3,25,1004.49,28.1813,49.2792,-2.04625,-3.04512,-4.93997,
2026_07_06_19_27_32.518,3.873,50.7,0,0.773,0,0,0,0, ,0,0,0,0,0, ,991.9,39.6,20.9,-1.5,-4.8,-2.3,25,1003.49,28.8071,47.8332,-2.00078,-3.17338,-4.7791,
2026_07_06_19_27_32.537,3.873,50.6,0,0.773,0,0,0,0, ,0,0,0,0,0, ,991.4,40.5,24.4,-2.2,-3.9,-2,25,1002.77,29.4922,46.2986,-1.99159,-3.24508,-4.61889,
2026_07_06_19_27_32.557,3.873,50.7,0,0.774,0,0,0,0, ,0,0,0,0,0, ,991.4,35.4,22.2,-2.8,-3.6,-2.5,25,1002.08,30.0076,44.8971,-2.02257,-3.27585,-4.47453,
2026_07_06_19_27_32.577,3.873,50.7,0,0.774,0,0,0,0, ,0,0,0,0,0, ,993.2,35.4,18.1,-2.2,-2.3,-2.9,25,1001.48,30.3362,43.3891,-2.05166,-3.25599,-4.3664,
2026_07_06_19_27_32.597,3.873,50.6,0,0.774,0,0,0,0, ,0,0,0,0,0, ,993.7,36,8.3,-1.8,-0.5,-3.2,25,1000.99,30.6631,41.5495,-2.04851,-3.14289,-4.28618,
2026_07_06_19_27_32.617,3.873,50.6,0,0.774,0,0,0,0, ,0,0,0,0,0, ,994.7,32.9,13.9,-0.8,0.7,-3.3,25,1000.58,30.8938,39.6939,-2.0029,-2.94528,-4.22304,
2026_07_06_19_27_32.637,3.873,50.4,0,0.774,0,0,0,0, ,0,0,0,0,0, ,992.4,37.4,31.7,-0.4,0.3,-3,25,1000.15,31.1532,38.6645,-1.91741,-2.73533,-4.15765,
2026_07_06_19_27_32.656,3.873,50.6,0,0.774,0,0,0,0, ,0,0,0,0,0, ,990.7,39,34.9,-0.4,-0.1,-2.6,25,999.625,31.5826,38.3376,-1.82495,-2.56256,-4.07492,
2026_07_06_19_27_32.676,3.873,50.4,0,0.774,0,0,0,0, ,0,0,0,0,0, ,985.9,42.9,29.9,-1.1,-0.6,-2.7,25,998.935,32.1534,37.9757,-1.75944,-2.42773,-3.98809,
2026_07_06_19_27_32.696,3.873,50.6,0,0.773,0,0,0,0, ,0,0,0,0,0, ,991.5,44.3,29.7,-2.2,-0.9,-3,25,998.311,32.851,37.4775,-1.75277,-2.32549,-3.91873,
2026_07_06_19_27_32.716,3.873,50.4,0,0.774,0,0,0,0, ,0,0,0,0,0, ,989.3,38.3,21.1,-2.1,-1.1,-2.4,25,997.829,33.3658,36.7416,-1.77698,-2.24472,-3.84447,
2026_07_06_19_27_32.735,3.873,50.6,0,0.775,0,0,0,0, ,0,0,0,0,0, ,987.5,37.8,24.9,-1.7,-0.5,-2.6,25,997.254,33.6513,35.9042,-1.78447,-2.15668,-3.76254,
2026_07_06_19_27_32.755,3.873,50.4,0,0.774,0,0,0,0, ,0,0,0,0,0, ,990.8,42.6,17.4,-1.8,0,-3.5,25,996.76,34.0503,35.0051,-1.78237,-2.04049,-3.71912,
2026_07_06_19_27_32.775,3.873,50.7,0,0.774,0,0,0,0, ,0,0,0,0,0, ,990.9,44.6,20.2,-1.7,1.3,-3.3,25,996.4,34.6323,34.0176,-1.7804,-1.87654,-3.69967,
2026_07_06_19_27_32.795,3.873,50.6,0,0.775,0,0,0,0, ,0,0,0,0,0, ,991.6,40.1,19.4,-2.1,2.1,-3.1,25,996.086,35.1026,33.1512,-1.78769,-1.6586,-3.66922,
2026_07_06_19_27_32.815,3.873,50.6,0,0.775,0,0,0,0, ,0,0,0,0,0, ,994.1,35.2,19.2,-1.1,2.7,-3,25,995.889,35.2578,32.3072,-1.77625,-1.41128,-3.63149,
2026_07_06_19_27_32.834,3.873,50.6,0,0.773,0,0,0,0, ,0,0,0,0,0, ,986.5,38.5,35.7,-0.2,2.4,-3,25,995.549,35.3548,32.0112,-1.70762,-1.16989,-3.59301,
2026_07_06_19_27_32.855,3.873,50.6,0,0.774,0,0,0,0, ,0,0,0,0,0, ,988,43.4,41.7,-0.6,0.9,-3.1,25,995.043,35.6958,32.4188,-1.62794,-0.998048,-3.55992,
2026_07_06_19_27_32.874,3.873,50.6,0,0.774,0,0,0,0, ,0,0,0,0,0, ,991.3,45.7,33.8,-1.3,-0.2,-3.1,25,994.714,36.2353,32.7436,-1.58663,-0.915902,-3.53189,
2026_07_06_19_27_32.894,3.873,50.6,0,0.775,0,0,0,0, ,0,0,0,0,0, ,989.5,43.4,27.8,-1.3,-0.1,-3,25,994.451,36.742,32.6252,-1.56916,-0.86923,-3.50253,
2026_07_06_19_27_32.914,3.873,50.6,0,0.776,0,0,0,0, ,0,0,0,0,0, ,990.2,41.5,25.3,-1.5,0.2,-3.1,25,994.171,37.0898,32.255,-1.55885,-0.813214,-3.47495,
2026_07_06_19_27_32.934,3.873,50.6,0,0.774,0,0,0,0, ,0,0,0,0,0, ,988.8,43.2,31.8,-1,0.2,-2.5,25,993.886,37.4104,32.0292,-1.54003,-0.751471,-3.43382,
2026_07_06_19_27_32.953,3.873,50.4,0,0.774,0,0,0,0, ,0,0,0,0,0, ,988.2,47.4,33.2,-1.1,-0.1,-3,25,993.558,37.8911,32.0579,-1.51017,-0.702632,-3.39215,
2026_07_06_19_27_32.973,3.873,50.4,0,0.774,0,0,0,0, ,0,0,0,0,0, ,987.5,46.6,33.9,-1.5,-0.5,-3.1,25,993.21,38.4462,32.1488,-1.49736,-0.678096,-3.3713,
2026_07_06_19_27_32.993,3.873,50.4,0,0.773,0,0,0,0, ,0,0,0,0,0, ,985.7,45.6,35.8,-2,-1.2,-3,25,992.807,38.9126,32.3134,-1.51276,-0.688572,-3.35172,
2026_07_06_19_27_33.013,3.873,50.6,0,0.774,0,0,0,0, ,0,0,0,0,0, ,994.2,43.4,24.7,-2.2,-1.2,-2.8,25,992.633,39.2531,32.1877,-1.54854,-0.719737,-3.32419,
2026_07_06_19_27_33.032,3.873,50.4,0,0.773,0,0,0,0, ,0,0,0,0,0, ,989.8,42.7,24,-1.5,-0.3,-2.6,25,992.595,39.4845,31.7101,-1.56691,-0.721581,-3.28616,
2026_07_06_19_27_33.052,3.873,50.6,0,0.774,0,0,0,0, ,0,0,0,0,0, ,992.4,43.7,25.5,-0.5,0.3,-2.3,25,992.504,39.7109,31.286,-1.53237,-0.67761,-3.2352,
2026_07_06_19_27_33.072,3.873,50.4,0,0.775,0,0,0,0, ,0,0,0,0,0, ,985.7,44.7,33.8,-0.3,0.2,-2.3,25,992.293,39.9844,31.1863,-1.46336,-0.621083,-3.17822,
2026_07_06_19_27_33.092,3.873,50.4,0,0.774,0,0,0,0, ,0,0,0,0,0, ,987.7,51.5,39,-1.3,-0.6,-2.3,25,991.952,40.479,31.504,-1.42294,-0.595424,-3.1247,
2026_07_06_19_27_33.112,3.873,50.4,0,0.775,0,0,0,0, ,0,0,0,0,0, ,987.9,44.5,35.1,-1.8,-1.8,-1.8,25,991.699,40.9373,31.8419,-1.43068,-0.632265,-3.05921,
2026_07_06_19_27_33.132,3.873,50.4,0,0.774,0,0,0,0, ,0,0,0,0,0, ,989.8,45.5,29.7,-2,-2.3,-1.6,25,991.526,41.1849,31.8759,-1.45928,-0.718658,-2.97638,
2026_07_06_19_27_33.152,3.873,50.3,0,0.773,0,0,0,0, ,0,0,0,0,0, ,990.6,44.4,31.1,-1.9,-2.3,-1.8,25,991.445,41.4143,31.786,-1.48918,-0.815021,-2.8986,
2026_07_06_19_27_33.171,3.873,50.3,0,0.772,0,0,0,0, ,0,0,0,0,0, ,989.5,47.6,25.5,-1.5,-1.1,-2.4,25,991.36,41.6937,31.5736,-1.50203,-0.86895,-2.84994,
2026_07_06_19_27_33.191,3.873,50.3,0,0.774,0,0,0,0, ,0,0,0,0,0, ,992.4,47.9,26.4,-1.8,-0.9,-2,25,991.335,42.0628,31.2309,-1.51105,-0.876936,-2.81033,
2026_07_06_19_27_33.211,3.873,50.3,0,0.774,0,0,0,0, ,0,0,0,0,0, ,986.3,47.6,30.5,-1.5,-0.7,-2,25,991.214,42.4094,31.0614,-1.51952,-0.872247,-2.76095,
2026_07_06_19_27_33.231,3.873,50.4,0,0.773,0,0,0,0, ,0,0,0,0,0, ,991.3,45.8,34.7,-1.7,-1.4,-2,25,991.067,42.6708,31.1552,-1.52442,-0.883079,-2.71458,
2026_07_06_19_27_33.250,3.873,50.3,0,0.773,0,0,0,0, ,0,0,0,0,0, ,995.2,48,19.4,-2,-1.1,-2,25,991.2,42.9285,30.905,-1.54426,-0.905438,-2.67104,
2026_07_06_19_27_33.270,3.873,50.4,0,0.773,0,0,0,0, ,0,0,0,0,0, ,997.1,53.7,26.8,-5.2,-0.4,-2.5,25,991.502,43.4113,30.4294,-1.66953,-0.895966,-2.64538,
2026_07_06_19_27_33.290,3.873,50.2,0,0.775,0,0,0,0, ,0,0,0,0,0, ,1019.1,75.4,32.9,-11.2,-0.6,-3.4,25,992.513,44.6994,30.3941,-2.06748,-0.871837,-2.66394,
2026_07_06_19_27_33.310,3.873,50.2,0,0.774,0,0,0,0, ,0,0,0,0,0, ,1084.7,92.7,-0.6,-22.6,2.4,-7.2,25,996.132,47.0973,29.5261,-2.97134,-0.763866,-2.82458,
2026_07_06_19_27_33.329,3.873,50.4,0,0.774,0,0,0,0, ,0,0,0,0,0, ,1158.9,96.4,11.7,-28.7,6,-11.3,25,1003.79,49.989,28.0651,-4.35332,-0.46138,-3.21613,
2026_07_06_19_27_33.349,3.873,50.2,0,0.774,0,0,0,0, ,0,0,0,0,0, ,1293.5,125.2,-31.3,-16.7,16.1,-27,25,1017.34,53.6946,25.7577,-5.47132,0.240094,-4.1871,
2026_07_06_19_27_33.369,3.873,50.3,0,0.774,0,0,0,0, ,0,0,0,0,0, ,1486.6,225.4,-24.5,-19.3,33.7,-46.7,25,1040.05,61.105,22.4879,-6.23479,1.74281,-6.17749,
2026_07_06_19_27_33.389,3.873,50.2,0,0.774,0,0,0,0, ,0,0,0,0,0, ,1757,215.6,11.8,-22.7,27,-24.2,25,1075.5,70.8181,20.7306,-7.13454,3.48606,-7.96129,
2026_07_06_19_27_33.409,3.873,50.2,0,0.774,0,0,0,0, ,0,0,0,0,0, ,1803.1,348.9,-65.9,-19.2,22.9,-13,25,1118.44,83.7022,17.819,-7.97642,4.79402,-8.60958,
2026_07_06_19_27_33.429,3.873,50.4,0,0.774,0,0,0,0, ,0,0,0,0,0, ,1754.1,376.4,-69.2,-7.4,28,-4.3,25,1158.67,100.701,12.6168,-8.30083,6.05274,-8.61205,
2026_07_06_19_27_33.448,3.873,50.3,0,0.774,0,0,0,0, ,0,0,0,0,0, ,1626.5,364.8,-73.7,5.6,38.3,-12.1,25,1191.06,117.148,7.49397,-7.84984,7.70398,-8.58694,
2026_07_06_19_27_33.468,3.873,50.3,0,0.774,0,0,0,0, ,0,0,0,0,0, ,1600.4,359.4,36,14,22.7,-24.8,25,1216.8,132.074,5.88863,-6.7743,9.09311,-9.18797,
2026_07_06_19_27_33.488,3.873,50.3,0,0.773,0,0,0,0, ,0,0,0,0,0, ,1677.3,368.8,124.2,10.9,-1.4,-14.9,25,1242.52,146.213,10.4109,-5.60282,9.18798,-9.83768,
2026_07_06_19_27_33.508,3.873,50.3,0,0.772,0,0,0,0, ,0,0,0,0,0, ,1536.4,364.8,99.6,13.2,12.7,9.9,25,1264.72,159.655,16.5954,-4.5271,8.97239,-9.39054,
2026_07_06_19_27_33.528,3.873,50.3,0,0.774,0,0,0,0, ,0,0,0,0,0, ,1220.4,302.6,166.1,23.3,33.3,14.9,25,1271.65,170.261,23.6796,-3.13912,9.8272,-8.06268,
2026_07_06_19_27_33.547,3.873,50.3,0,0.774,0,0,0,0, ,0,0,0,0,0, ,1081,270.6,228.7,15.6,5.2,2.4,25,1264.28,177.351,34.2657,-1.7626,10.4014,-7.04425,
2026_07_06_19_27_33.567,3.873,50.2,0,0.774,0,0,0,0, ,0,0,0,0,0, ,1114.7,286.1,201.4,13.2,-21.8,-5.6,25,1254.14,183.505,45.2823,-0.77769,9.26178,-6.7125,
2026_07_06_19_27_33.588,3.873,50.2,0,0.775,0,0,0,0, ,0,0,0,0,0, ,1161,269.6,239.6,18.5,-26.6,0.6,25,1247.05,189.254,55.9596,0.23556,7.2227,-6.4558,
2026_07_06_19_27_33.610,3.873,50.2,0,0.774,0,0,0,0, ,0,0,0,0,0, ,1153.4,149.9,314.6,25.3,-22.3,6.2,25,1241.58,190.503,69.4353,1.55574,5.29265,-5.85521,
2026_07_06_19_27_33.630,3.873,50.3,0,0.774,0,0,0,0, ,0,0,0,0,0, ,1166,110.5,330.2,24.6,-18.9,9.2,25,1236.59,186.829,84.8504,2.98132,3.71482,-5.02919,
2026_07_06_19_27_33.646,3.873,50.3,0,0.774,0,0,0,0, ,0,0,0,0,0, ,1161.1,164.7,301.2,28.4,-16.3,23.5,25,1232.14,183.829,98.9178,4.41449,2.41595,-3.72639,
2026_07_06_19_27_33.666,3.873,50.1,0,0.774,0,0,0,0, ,0,0,0,0,0, ,1091.4,201,288.8,28.5,-21.1,32.1,25,1225.68,183.769,110.867,5.87916,1.12919,-1.80525,
2026_07_06_19_27_33.686,3.873,50.1,0,0.775,0,0,0,0, ,0,0,0,0,0, ,998.9,150.1,299,27.8,-23.2,42.8,25,1214.68,183.268,122.02,7.23629,-0.289383,0.586862,
2026_07_06_19_27_33.706,3.873,50.2,0,0.774,0,0,0,0, ,0,0,0,0,0, ,915.5,158.5,306.1,32.1,-10.9,47.4,25,1198.99,181.503,133.021,8.6204,-1.31073,3.29938,
2026_07_06_19_27_33.725,3.873,50.1,0,0.773,0,0,0,0, ,0,0,0,0,0, ,784.6,159.5,325.6,35.6,-7.1,55.4,25,1177.73,180.132,144.162,10.1578,-1.7793,6.23051,
2026_07_06_19_27_33.745,3.873,50.2,0,0.774,0,0,0,0, ,0,0,0,0,0, ,733.7,158.2,355.2,28.1,-18,55.4,25,1152.22,178.835,156.121,11.4797,-2.43564,9.22678,
2026_07_06_19_27_33.765,3.873,50.1,0,0.774,0,0,0,0, ,0,0,0,0,0, ,707.1,166.1,377.5,1.1,-22.5,68.3,25,1125.91,177.818,168.931,11.6698,-3.5212,12.4335,
2026_07_06_19_27_33.785,3.873,50.1,0,0.774,0,0,0,0, ,0,0,0,0,0, ,769.8,156.6,350.5,-33.1,-5,92.4,25,1102.3,176.815,180.818,9.98371,-4.14452,16.5722,
2026_07_06_19_27_33.804,3.873,50.1,0,0.773,0,0,0,0, ,0,0,0,0,0, ,861,149.5,289,-46.5,38.1,125.8,25,1084.81,175.366,189.285,6.95002,-2.88345,22.2106,
2026_07_06_19_27_33.824,3.873,50.1,0,0.774,0,0,0,0, ,0,0,0,0,0, ,771.9,98,297.2,-43.8,56,156.2,25,1068.46,172.221,195.611,3.77517,0.159373,29.4493,
2026_07_06_19_27_33.844,3.873,50.2,0,0.774,0,0,0,0, ,0,0,0,0,0, ,657.5,36.9,224.4,-43.3,36.9,184.8,25,1046.9,165.837,199.583,0.891294,2.98021,38.0446,
2026_07_06_19_27_33.865,3.873,50.2,0,0.775,0,0,0,0, ,0,0,0,0,0, ,503.9,-80,171.2,-28.1,11.4,201.7,25,1018.49,154.418,199.475,-1.33849,4.27024,47.5024,
2026_07_06_19_27_33.884,3.873,50.1,0,0.774,0,0,0,0, ,0,0,0,0,0, ,359.6,-187.7,224.4,-20.3,-26,210.3,25,982.739,136.851,199.373,-2.73161,3.56518,57.1609,
2026_07_06_19_27_33.904,3.873,50.1,0,0.774,0,0,0,0, ,0,0,0,0,0, ,346.9,-249.2,212,-20.4,-67.4,214.9,25,944.379,115.2,200.52,-3.80523,0.502147,66.6329,
2026_07_06_19_27_33.923,3.873,50.1,0,0.774,0,0,0,0, ,0,0,0,0,0, ,323.2,-335.6,191.6,-15.3,-94.2,208.1,25,907.248,90.3621,200.598,-4.66108,-4.4522,75.4608,
2026_07_06_19_27_33.944,3.873,50,0,0.774,0,0,0,0, ,0,0,0,0,0, ,279.7,-431.3,228.6,-12.4,-106.6,178.2,25,870.333,61.4892,201.177,-5.22103,-10.299,82.6325,
2026_07_06_19_27_33.963,3.873,50.1,0,0.773,0,0,0,0, ,0,0,0,0,0, ,131.3,-504,204.7,-5.2,-102.1,126.3,25,829.819,29.2448,202.12,-5.43913,-16.0303,86.8748,
2026_07_06_19_27_33.984,3.873,50.1,0,0.774,0,0,0,0, ,0,0,0,0,0, ,156.6,-519,144.2,-17.2,-106.6,82.9,25,788.024,-3.70686,200.434,-5.79018,-21.4122,87.9549,
2026_07_06_19_27_34.002,3.873,50,0,0.774,0,0,0,0, ,0,0,0,0,0, ,187.7,-527.4,36.2,-28.7,-104,70.5,25,750.494,-35.3635,193.716,-6.83586,-26.5241,87.2691,
2026_07_06_19_27_34.023,3.873,50.1,0,0.774,0,0,0,0, ,0,0,0,0,0, ,280,-626.2,-192.6,-45,-88.3,59.4,25,719.011,-68.3573,177.146,-8.66484,-30.767,85.909,
2026_07_06_19_27_34.042,3.873,50.2,0,0.774,0,0,0,0, ,0,0,0,0,0, ,307.1,-638.4,-415.5,-52.2,-79.3,52.9,25,693.085,-102.723,147.823,-11.0984,-33.9987,84.0956,
2026_07_06_19_27_34.063,3.873,50.2,0,0.774,0,0,0,0, ,0,0,0,0,0, ,292.7,-628.4,-525.8,-66.6,-83.2,45.5,25,669.125,-135.061,110.135,-14.0418,-36.878,81.9691,
2026_07_06_19_27_34.081,3.873,50.1,0,0.773,0,0,0,0, ,0,0,0,0,0, ,320.1,-671.8,-586.5,-40.1,-81.3,34,25,647.022,-166.446,69.5335,-16.4371,-39.6429,79.3964,
2026_07_06_19_27_34.104,3.873,50.1,0,0.775,0,0,0,0, ,0,0,0,0,0, ,351.8,-734.7,-607.7,-12.9,-49.3,19.5,25,628.066,-199.157,28.9105,-17.0503,-41.2064,76.1882,
2026_07_06_19_27_34.121,3.873,50,0,0.774,0,0,0,0, ,0,0,0,0,0, ,319.2,-733,-579.1,-8.3,-22.9,21.5,25,610.237,-231.74,-9.01151,-16.6573,-40.8952,72.7947,
2026_07_06_19_27_34.141,3.873,50.1,0,0.774,0,0,0,0, ,0,0,0,0,0, ,290.4,-752.8,-504.8,-4,-17.7,13.1,25,591.625,-262.889,-41.4874,-16.017,-39.6402,69.413,
2026_07_06_19_27_34.160,3.873,50,0,0.774,0,0,0,0, ,0,0,0,0,0, ,370.2,-756.1,-471,1.8,-24.3,-0.5,25,575.7,-292.843,-68.6907,-15.108,-38.5043,65.5671,
2026_07_06_19_27_34.181,3.873,50,0,0.774,0,0,0,0, ,0,0,0,0,0, ,426.7,-752.3,-383.5,11.1,-33.4,-5.1,25,564.899,-320.957,-90.5404,-13.7943,-37.916,61.401,
2026_07_06_19_27_34.200,3.873,50.1,0,0.774,0,0,0,0, ,0,0,0,0,0, ,490.2,-752.5,-289.7,4.4,-37.2,-8,25,558.412,-347.248,-105.535,-12.4814,-37.7566,57.2602,
2026_07_06_19_27_34.222,3.873,50.1,0,0.774,0,0,0,0, ,0,0,0,0,0, ,535,-728.6,-326.7,-12,-17,-3.7,25,555.621,-371.215,-117.885,-11.9524,-37.1072,53.4144,
2026_07_06_19_27_34.240,3.873,50,0,0.774,0,0,0,0, ,0,0,0,0,0, ,529.6,-720.2,-432.9,-24.5,23,5.7,25,554.2,-392.737,-133.845,-12.3362,-34.6632,50.2204,
2026_07_06_19_27_34.261,3.873,50.1,0,0.774,0,0,0,0, ,0,0,0,0,0, ,431.6,-747,-497,-21,51.3,5,25,549.715,-413.509,-154.022,-12.9708,-30.2871,47.4861,
2026_07_06_19_27_34.280,3.873,50,0,0.774,0,0,0,0, ,0,0,0,0,0, ,426.6,-708.4,-512.4,-7.5,34.1,-10.8,25,542.365,-432.655,-175.391,-13.0487,-25.8394,44.4157,
2026_07_06_19_27_34.301,3.873,50,0,0.773,0,0,0,0, ,0,0,0,0,0, ,477.2,-665.6,-481,5.2,0.9,-23,25,536.852,-448.154,-194.971,-12.3236,-23.1984,40.6793,
2026_07_06_19_27_34.323,3.873,50,0,0.774,0,0,0,0, ,0,0,0,0,0, ,560.3,-673.8,-419.9,14.6,-9.5,-33.8,25,535.749,-461.654,-210.539,-10.9694,-22.0468,36.4698,
2026_07_06_19_27_34.344,3.873,49.9,0,0.774,0,0,0,0, ,0,0,0,0,0, ,616.8,-653.6,-326.9,17.6,-7.3,-34.9,25,538.966,-473.967,-220.464,-9.31984,-21.2152,32.1542,
2026_07_06_19_27_34.359,3.873,49.9,0,0.773,0,0,0,0, ,0,0,0,0,0, ,642.8,-668.5,-292.1,17.4,-1.3,-35,25,544.502,-485.367,-225.889,-7.6855,-20.1844,28.065,
2026_07_06_19_27_34.379,3.873,50,0,0.773,0,0,0,0, ,0,0,0,0,0, ,651.3,-675.1,-270,19.8,7.2,-36.4,25,550.751,-496.728,-229.251,-6.08373,-18.7747,24.1794,
2026_07_06_19_27_34.398,3.873,50,0,0.776,0,0,0,0, ,0,0,0,0,0, ,648.8,-641.3,-233,18.6,5.9,-34.3,25,556.802,-506.567,-230.606,-4.543,-17.2314,20.5518,
2026_07_06_19_27_34.421,3.873,50,0,0.774,0,0,0,0, ,0,0,0,0,0, ,638.6,-634,-238.2,15,4.9,-33,25,562.097,-514.555,-230.911,-3.24241,-15.8523,17.2489,
2026_07_06_19_27_34.437,3.873,50,0,0.775,0,0,0,0, ,0,0,0,0,0, ,641.8,-639.1,-226.4,11.6,6.9,-34.9,25,566.856,-521.989,-230.995,-2.23436,-14.5268,14.1289,
2026_07_06_19_27_34.459,3.873,49.9,0,0.773,0,0,0,0, ,0,0,0,0,0, ,618.5,-621,-196.2,8.6,6.6,-34.1,25,570.713,-528.574,-229.795,-1.48274,-13.2303,11.1656,
2026_07_06_19_27_34.477,3.873,49.9,0,0.773,0,0,0,0, ,0,0,0,0,0, ,606.3,-625,-186.2,6.3,1.9,-38.3,25,573.254,-534.328,-227.443,-0.938398,-12.165,8.27927,
2026_07_06_19_27_34.499,3.873,50,0,0.774,0,0,0,0, ,0,0,0,0,0, ,602.4,-641.7,-179.5,-0.3,-0.7,-39.9,25,575.149,-540.362,-224.726,-0.698402,-11.3872,5.39209,
2026_07_06_19_27_34.517,3.873,50,0,0.774,0,0,0,0, ,0,0,0,0,0, ,578.2,-654.4,-217.1,-9.2,4.8,-36.7,25,576.072,-546.925,-223.116,-0.945296,-10.5683,2.72961,
2026_07_06_19_27_34.539,3.873,49.9,0,0.774,0,0,0,0, ,0,0,0,0,0, ,521.1,-621.2,-246.8,-13.9,11.2,-36.1,25,574.462,-552.462,-223.654,-1.59152,-9.43684,0.345146,
2026_07_06_19_27_34.557,3.873,50,0,0.774,0,0,0,0, ,0,0,0,0,0, ,476.3,-536.2,-253.5,-9.2,0.5,-43.4,25,569.845,-554.061,-225.268,-2.19836,-8.5053,-2.09815,
2026_07_06_19_27_34.580,3.873,49.9,0,0.774,0,0,0,0, ,0,0,0,0,0, ,465.5,-473.9,-234.9,-5,-16.9,-52.3,25,563.816,-551.075,-226.422,-2.49706,-8.4867,-4.88615,
2026_07_06_19_27_34.596,3.873,50,0,0.774,0,0,0,0, ,0,0,0,0,0, ,464.1,-435.3,-196.4,-2.1,-29.8,-63.2,25,557.782,-545.196,-225.766,-2.56122,-9.39243,-8.10755,
2026_07_06_19_27_34.618,3.873,49.9,0,0.774,0,0,0,0, ,0,0,0,0,0, ,482.4,-405.3,-192.8,-1.6,-42.5,-79.3,25,552.631,-537.585,-223.867,-2.51788,-11.023,-11.9553,
2026_07_06_19_27_34.636,3.873,50,0,0.774,0,0,0,0, ,0,0,0,0,0, ,572.8,-370.3,-235.8,2.9,-33.2,-88.3,25,551.105,-528.457,-223.284,-2.32484,-12.6577,-16.3333,
2026_07_06_19_27_34.656,3.873,49.9,0,0.772,0,0,0,0, ,0,0,0,0,0, ,651.1,-322,-284.3,3.4,-20.2,-83.4,25,554.813,-517.348,-225.524,-1.99122,-13.5134,-20.5695,
2026_07_06_19_27_34.675,3.873,49.8,0,0.773,0,0,0,0, ,0,0,0,0,0, ,664.7,-326.9,-254.7,2.5,-15.8,-79.9,25,561.095,-505.593,-228.204,-1.69011,-13.7868,-24.2916,
2026_07_06_19_27_34.697,3.873,49.9,0,0.773,0,0,0,0, ,0,0,0,0,0, ,666.1,-259.6,-246.3,1,-17.7,-76.8,25,567.451,-492.654,-229.562,-1.48048,-13.9674,-27.5858,
2026_07_06_19_27_34.715,3.873,49.9,0,0.774,0,0,0,0, ,0,0,0,0,0, ,679.4,-205.3,-228.8,2.2,-20.5,-72.1,25,573.868,-476.797,-230.049,-1.29276,-14.2802,-30.4416,
2026_07_06_19_27_34.737,3.873,49.9,0,0.774,0,0,0,0, ,0,0,0,0,0, ,595,-210.3,-212.2,5,-3.3,-71.9,25,577.727,-460.405,-229.467,-0.99461,-14.1351,-32.974,
2026_07_06_19_27_34.755,3.873,49.9,0,0.774,0,0,0,0, ,0,0,0,0,0, ,605.2,-171.6,-140.3,3.5,13.9,-76.3,25,579.09,-443.985,-226.224,-0.675016,-12.9508,-35.4801,
2026_07_06_19_27_34.777,3.873,49.9,0,0.774,0,0,0,0, ,0,0,0,0,0, ,675,-137.2,-168.3,-11.3,13.2,-67.2,25,582.808,-426.339,-221.842,-0.871539,-11.3359,-37.6903,
2026_07_06_19_27_34.794,3.873,50.1,0,0.774,0,0,0,0, ,0,0,0,0,0, ,752.8,-206,-204.1,-16.5,33.7,-53.8,25,590.797,-410.816,-219.67,-1.66546,-9.21615,-39.0803,
2026_07_06_19_27_34.815,3.873,49.8,0,0.774,0,0,0,0, ,0,0,0,0,0, ,692.1,-250.1,-198.8,-13.1,62.4,-37.8,25,598.819,-399.678,-218.559,-2.46585,-5.72649,-39.4898,
2026_07_06_19_27_34.839,3.873,49.9,0,0.773,0,0,0,0, ,0,0,0,0,0, ,625.6,-219.1,-174.6,-10,56,-28.8,25,602.477,-389.619,-216.618,-3.01941,-1.77003,-39.1126,
2026_07_06_19_27_34.861,3.873,49.9,0,0.774,0,0,0,0, ,0,0,0,0,0, ,549.9,-176.3,-171.2,-3.3,39.4,-31.6,25,601.58,-377.924,-213.954,-3.24065,1.24455,-38.5695,
2026_07_06_19_27_34.873,3.873,49.8,0,0.773,0,0,0,0, ,0,0,0,0,0, ,630.4,-96,-105.7,1.9,30,-42.5,25,600.883,-363.191,-209.353,-3.08583,3.28324,-38.4769,
2026_07_06_19_27_34.893,3.873,49.8,0,0.773,0,0,0,0, ,0,0,0,0,0, ,817.6,-246.8,-87.4,-0.7,33.6,-63.3,25,608.386,-351.504,-202.479,-2.86122,5.02098,-39.3558,
2026_07_06_19_27_34.913,3.873,49.8,0,0.773,0,0,0,0, ,0,0,0,0,0, ,806.3,-223.2,-33.9,-1.9,70.5,-41.8,25,620.79,-344.404,-193.836,-2.76609,7.88681,-40.1598,
2026_07_06_19_27_34.935,3.873,49.8,0,0.773,0,0,0,0, ,0,0,0,0,0, ,699.5,-98.3,-32.2,-25.6,83.6,-45.9,25,628.841,-333.213,-184.038,-3.43542,12.1014,-40.3847,
2026_07_06_19_27_34.953,3.873,49.9,0,0.774,0,0,0,0, ,0,0,0,0,0, ,903.3,-64.3,22.8,-40.1,63.4,-77.7,25,639.356,-317.862,-173.11,-5.22787,15.8429,-41.6897,
2026_07_06_19_27_34.975,3.873,49.8,0,0.774,0,0,0,0, ,0,0,0,0,0, ,1253.9,-124.3,-44.1,-57.6,52.5,-72.8,25,666.123,-304.238,-163.21,-7.88609,18.4088,-43.7348,
2026_07_06_19_27_34.992,3.873,49.9,0,0.773,0,0,0,0, ,0,0,0,0,0, ,1255.4,-119.9,-89.3,-116.6,71.3,-53.6,25,701.986,-293.139,-157.329,-12.7132,21.0591,-44.9209,
2026_07_06_19_27_35.015,3.873,50,0,0.773,0,0,0,0, ,0,0,0,0,0, ,1069.7,-121.4,-188.5,-4.4,101.5,-47.8,25,730.052,-282.628,-156.206,-15.6252,25.0408,-45.2731,
2026_07_06_19_27_35.031,3.873,49.9,0,0.773,0,0,0,0, ,0,0,0,0,0, ,1143.7,-101.9,-3.6,-3.5,91.6,-72.1,25,753.004,-272.209,-152.54,-14.9137,29.3984,-46.1675,
2026_07_06_19_27_35.053,3.873,49.9,0,0.773,0,0,0,0, ,0,0,0,0,0, ,1393.1,-85.3,50.1,-28.1,50.4,-76.4,25,784.411,-261.325,-141.828,-14.9677,31.9335,-47.8787,
2026_07_06_19_27_35.071,3.873,49.8,0,0.774,0,0,0,0, ,0,0,0,0,0, ,1456.4,-4.6,12.6,-35.7,45.5,-39.4,25,823.431,-248.14,-131.275,-15.9996,32.9095,-48.4894,
2026_07_06_19_27_35.094,3.873,49.8,0,0.775,0,0,0,0, ,0,0,0,0,0, ,1374,-10.7,-6.9,-7.4,42.1,-13,25,859.492,-233.485,-123.102,-16.3378,33.5731,-47.1312,
2026_07_06_19_27_35.110,3.873,49.8,0,0.774,0,0,0,0, ,0,0,0,0,0, ,1301.1,14.4,34.3,-2.6,30.1,-11.1,25,888.624,-219.144,-114.765,-15.6469,33.7271,-44.9934,
2026_07_06_19_27_35.132,3.873,49.9,0,0.774,0,0,0,0, ,0,0,0,0,0, ,1289,-3.2,178.3,9.5,48.8,-18.7,25,913.39,-205.449,-101.294,-14.4832,34.0758,-43.1596,
2026_07_06_19_27_35.150,3.873,49.9,0,0.773,0,0,0,0, ,0,0,0,0,0, ,1174.4,46.5,385.3,8.3,73.7,-16.7,25,932.787,-191.61,-77.9494,-13.0583,35.7318,-41.6081,
2026_07_06_19_27_35.172,3.873,49.9,0,0.775,0,0,0,0, ,0,0,0,0,0, ,1115.7,89.9,412.4,-18.7,56.2,-23.2,25,945.722,-175.778,-48.8944,-12.5794,37.5122,-40.2883,
2026_07_06_19_27_35.190,3.873,49.8,0,0.773,0,0,0,0, ,0,0,0,0,0, ,1210,96.5,295.2,-57.4,11.4,-27.2,25,958.953,-159.387,-24.3552,-14.1315,37.286,-39.3689,
2026_07_06_19_27_35.212,3.873,49.7,0,0.773,0,0,0,0, ,0,0,0,0,0, ,1382.9,42.2,155.8,-47.5,-11.1,-22.5,25,979.52,-145.448,-9.12966,-16.4665,35.0231,-38.4842,
2026_07_06_19_27_35.229,3.873,49.9,0,0.773,0,0,0,0, ,0,0,0,0,0, ,1434.3,47.3,81.9,-13.9,-8.1,-14.2,25,1005.67,-133.858,-1.3309,-17.3339,32.3038,-37.2572,
2026_07_06_19_27_35.252,3.873,49.7,0,0.774,0,0,0,0, ,0,0,0,0,0, ,1397.5,59.5,82.7,6.8,-9.2,-8,25,1030.67,-122.447,3.76536,-16.4939,29.8082,-35.6633,
2026_07_06_19_27_35.269,3.873,49.8,0,0.774,0,0,0,0, ,0,0,0,0,0, ,1351.1,53.3,121,14,-17.1,-5.4,25,1051.61,-111.549,9.74239,-14.8551,27.1904,-33.8983,
2026_07_06_19_27_35.293,3.873,49.9,0,0.774,0,0,0,0, ,0,0,0,0,0, ,1283.6,46.6,104.4,14.5,-18.6,0.7,25,1067.8,-101.707,16.0164,-13.0815,24.4458,-31.9758,
2026_07_06_19_27_35.309,3.873,49.8,0,0.774,0,0,0,0, ,0,0,0,0,0, ,1237,32.3,124.5,14.4,-8.7,-1.1,25,1079.53,-93.1056,22.0147,-11.4038,22.1243,-30.0395,
2026_07_06_19_27_35.331,3.873,49.8,0,0.773,0,0,0,0, ,0,0,0,0,0, ,1211,20.7,146.1,6.7,-10.6,-4.7,25,1088.33,-85.8171,28.918,-10.066,20.1881,-28.3857,
2026_07_06_19_27_35.348,3.873,49.8,0,0.772,0,0,0,0, ,0,0,0,0,0, ,1231.3,18.3,128,1.9,-14.1,-4.4,25,1096.43,-79.3994,35.5073,-9.19056,18.2053,-26.9332,
2026_07_06_19_27_35.372,3.873,49.8,0,0.773,0,0,0,0, ,0,0,0,0,0, ,1243.6,23,66.2,-5.4,-19.4,1.8,25,1105.02,-73.3026,39.2606,-8.73715,16.0752,-25.3712,
2026_07_06_19_27_35.387,3.873,49.8,0,0.774,0,0,0,0, ,0,0,0,0,0, ,1227,7.5,15.9,-4.7,-12.7,8.3,25,1112.96,-67.9064,39.3696,-8.51247,14.1176,-23.5174,
2026_07_06_19_27_35.411,3.873,49.7,0,0.775,0,0,0,0, ,0,0,0,0,0, ,1113.8,-19.1,2.9,4.2,-3.9,11.9,25,1116.46,-64.1218,37.5434,-8.00897,12.7515,-21.4688,
2026_07_06_19_27_35.428,3.873,49.8,0,0.773,0,0,0,0, ,0,0,0,0,0, ,977.4,-20.5,54.3,10.5,-11.7,4.7,25,1112.14,-61.421,36.9984,-7.07304,11.4991,-19.6548,
2026_07_06_19_27_35.452,3.873,49.9,0,0.773,0,0,0,0, ,0,0,0,0,0, ,909.4,2.6,109.7,2.3,-25.7,-9.1,25,1101.86,-58.2235,39.7407,-6.25202,9.65889,-18.5911,
2026_07_06_19_27_35.467,3.873,49.8,0,0.774,0,0,0,0, ,0,0,0,0,0, ,995.6,6.1,86.4,-3.1,-27,-19.3,25,1092.76,-54.4105,43.2939,-5.89542,7.4646,-18.3236,
2026_07_06_19_27_35.490,3.873,49.8,0,0.774,0,0,0,0, ,0,0,0,0,0, ,1110.3,-9.2,38.8,-10.1,-4.4,-18.6,25,1090.33,-51.1893,44.4704,-5.93835,6.05301,-18.3617,
2026_07_06_19_27_35.507,3.873,49.7,0,0.773,0,0,0,0, ,0,0,0,0,0, ,1081.5,-6.2,2.8,-5.6,18.4,-7.8,25,1090.67,-48.5391,43.0279,-6.05484,6.11071,-18.0472,
2026_07_06_19_27_35.530,3.873,49.8,0,0.774,0,0,0,0, ,0,0,0,0,0, ,1026.4,-11.8,-2,-2.5,18.4,-4.5,25,1088.43,-46.1297,40.4303,-5.93267,6.85959,-17.3222,
2026_07_06_19_27_35.546,3.873,49.7,0,0.773,0,0,0,0, ,0,0,0,0,0, ,940.7,-5.2,10.6,-0.4,5.5,-6.8,25,1082.04,-43.8367,38.2286,-5.65951,7.16979,-16.6109,
2026_07_06_19_27_35.568,3.873,49.7,0,0.774,0,0,0,0, ,0,0,0,0,0, ,952,-16.1,27.5,0.8,-5.6,-12.7,25,1073.77,-41.8144,37.0599,-5.30245,6.72983,-16.1928,
2026_07_06_19_27_35.585,3.873,49.7,0,0.774,0,0,0,0, ,0,0,0,0,0, ,969.8,-8.5,33.6,-0.2,-6.7,-15.5,25,1066.9,-40.0158,36.6632,-4.96105,5.94497,-16.0653,
2026_07_06_19_27_35.609,3.873,49.8,0,0.772,0,0,0,0, ,0,0,0,0,0, ,1015.2,7.9,26,0.3,-4.4,-16.1,25,1062.36,-37.5956,36.245,-4.65569,5.24449,-16.0491,
2026_07_06_19_27_35.625,3.873,49.8,0,0.775,0,0,0,0, ,0,0,0,0,0, ,1054.1,30.2,-8.9,-2.7,-15.8,-13.6,25,1060.67,-34.1438,34.5573,-4.44511,4.30944,-15.9761,
2026_07_06_19_27_35.648,3.873,49.8,0,0.774,0,0,0,0, ,0,0,0,0,0, ,1085.3,43.4,-2.4,7.1,-13.1,-9,25,1061.22,-29.8207,32.1072,-4.04017,3.16628,-15.6911,
2026_07_06_19_27_35.665,3.873,49.7,0,0.774,0,0,0,0, ,0,0,0,0,0, ,1075.8,25.3,75.6,6.3,-1.8,-3.6,25,1062.4,-25.9103,32.381,-3.38569,2.51935,-15.1188,
2026_07_06_19_27_35.689,3.873,49.7,0,0.774,0,0,0,0, ,0,0,0,0,0, ,995.3,59.2,86.7,5.4,3.8,-2.1,25,1060.76,-21.7567,35.3528,-2.82289,2.42677,-14.3712,
2026_07_06_19_27_35.704,3.873,49.7,0,0.774,0,0,0,0, ,0,0,0,0,0, ,1000.1,36.8,38.8,1.2,-0.3,1.1,25,1056.92,-17.5059,37.0223,-2.44978,2.38553,-13.5259,
2026_07_06_19_27_35.727,3.873,49.6,0,0.774,0,0,0,0, ,0,0,0,0,0, ,1025.3,8,24.7,3.2,-2.4,1.5,25,1054.23,-15.0742,36.7011,-2.16643,2.15789,-12.6225,
2026_07_06_19_27_35.744,3.873,49.5,0,0.774,0,0,0,0, ,0,0,0,0,0, ,988.4,-2.6,49.3,4.8,-3.8,0,25,1051.34,-13.9911,36.7193,-1.79066,1.83749,-11.8076,
2026_07_06_19_27_35.768,3.873,49.7,0,0.773,0,0,0,0, ,0,0,0,0,0, ,951.9,4.6,61.2,4,-5.9,-2.6,25,1046.39,-13.0775,37.8485,-1.41342,1.42997,-11.1673,
2026_07_06_19_27_35.784,3.873,49.7,0,0.774,0,0,0,0, ,0,0,0,0,0, ,961.5,10.1,51.6,1,-10.2,-5,25,1040.93,-11.8327,38.979,-1.17495,0.852287,-10.7183,
2026_07_06_19_27_35.807,3.873,49.7,0,0.773,0,0,0,0, ,0,0,0,0,0, ,1234.2,-12.4,-37.7,-4.8,-9.3,0.8,25,1044.4,-11.1818,37.0272,-1.21913,0.20621,-10.1932,
2026_07_06_19_27_35.823,3.873,49.7,0,0.773,0,0,0,0, ,0,0,0,0,0, ,989.1,38.3,4.7,-4.2,-5.1,0.3,25,1048.49,-9.71123,33.7654,-1.41906,-0.245106,-9.5385,
2026_07_06_19_27_35.846,3.873,49.6,0,0.774,0,0,0,0, ,0,0,0,0,0, ,991.2,-7.9,27.2,-1.1,-4.2,-1.1,25,1044.94,-8.1932,32.6798,-1.49407,-0.513529,-8.98163,
2026_07_06_19_27_35.863,3.873,49.7,0,0.774,0,0,0,0, ,0,0,0,0,0, ,989.2,-3,22.9,-4.2,-4.2,-3.2,25,1041.6,-8.02604,32.2148,-1.56451,-0.738173,-8.56533,
2026_07_06_19_27_35.885,3.873,49.6,0,0.773,0,0,0,0, ,0,0,0,0,0, ,992.3,16.4,-6.7,-2.2,-0.7,-3.3,25,1038.5,-7.12867,30.7453,-1.66417,-0.842488,-8.24142,
2026_07_06_19_27_35.903,3.873,49.6,0,0.774,0,0,0,0, ,0,0,0,0,0, ,990.8,17.8,21.8,-0.4,1.8,-2.5,25,1035.64,-5.65224,29.3319,-1.64198,-0.757633,-7.91593,
2026_07_06_19_27_35.926,3.873,49.7,0,0.773,0,0,0,0, ,0,0,0,0,0, ,990.8,24.1,11.1,2.2,4.8,-0.5,25,1032.91,-4.03116,28.5469,-1.48708,-0.510371,-7.52496,
2026_07_06_19_27_35.942,3.873,49.6,0,0.774,0,0,0,0, ,0,0,0,0,0, ,992,7,21.1,4.1,7.3,0.1,25,1030.38,-2.83794,27.7884,-1.20451,-0.110598,-7.07859,
2026_07_06_19_27_35.966,3.873,49.6,0,0.773,0,0,0,0, ,0,0,0,0,0, ,990.3,17.4,42.9,1.5,5.1,0.9,25,1027.99,-1.92156,28.045,-0.960481,0.273954,-6.61677,
2026_07_06_19_27_35.982,3.873,49.7,0,0.773,0,0,0,0, ,0,0,0,0,0, ,989.6,1.3,57,-1.5,-1.3,-0.8,25,1025.67,-1.2347,29.3799,-0.901951,0.373041,-6.21052,
2026_07_06_19_27_36.005,3.873,49.6,0,0.774,0,0,0,0, ,0,0,0,0,0, ,990.7,-13.6,37.5,-5.6,-4.8,-2.9,25,1023.51,-1.53423,30.4688,-1.06332,0.164449,-5.9448,
2026_07_06_19_27_36.021,3.873,49.6,0,0.776,0,0,0,0, ,0,0,0,0,0, ,991.9,-10.2,24.7,-5.6,-5.4,-4.7,25,1021.54,-2.16589,30.5073,-1.33977,-0.156353,-5.8141,
2026_07_06_19_27_36.045,3.873,49.5,0,0.774,0,0,0,0, ,0,0,0,0,0, ,992.9,9.5,-5.1,-2.9,-2.7,-5.8,25,1019.77,-2.05524,29.2454,-1.51711,-0.393622,-5.77972,
2026_07_06_19_27_36.061,3.873,49.6,0,0.773,0,0,0,0, ,0,0,0,0,0, ,991,17.5,34.9,-1.2,0.6,-5.2,25,1018.07,-1.10734,28.3713,-1.54959,-0.43362,-5.76268,
2026_07_06_19_27_36.083,3.873,49.6,0,0.773,0,0,0,0, ,0,0,0,0,0, ,991.6,11.2,51,-2.5,-4.2,-4.7,25,1016.44,-0.165407,29.2597,-1.56789,-0.516884,-5.71316,
2026_07_06_19_27_36.100,3.873,49.6,0,0.773,0,0,0,0, ,0,0,0,0,0, ,989.7,6.5,39.3,-8.4,-7.8,-5.6,25,1014.87,0.383969,30.228,-1.80446,-0.851011,-5.67884,
2026_07_06_19_27_36.125,3.873,49.5,0,0.773,0,0,0,0, ,0,0,0,0,0, ,989.5,9.2,15.1,-9.5,-9.6,-6.8,25,1013.33,0.83893,30.0435,-2.23989,-1.32931,-5.7106,
2026_07_06_19_27_36.140,3.873,49.6,0,0.774,0,0,0,0, ,0,0,0,0,0, ,989.8,17.3,-0.2,-9.4,-8.1,-7.4,25,1011.89,1.59523,28.6667,-2.67926,-1.7876,-5.79526,
2026_07_06_19_27_36.163,3.873,49.6,0,0.774,0,0,0,0, ,0,0,0,0,0, ,990.2,39.7,11.7,-4.5,-6.1,-5.2,25,1010.55,3.23474,27.2702,-2.9395,-2.11133,-5.82602,
2026_07_06_19_27_36.179,3.873,49.6,0,0.774,0,0,0,0, ,0,0,0,0,0, ,991.3,34.7,14.1,-6.4,-7.6,-1.7,25,1009.35,5.3045,26.3945,-3.09249,-2.40009,-5.68123,
2026_07_06_19_27_36.203,3.873,49.5,0,0.773,0,0,0,0, ,0,0,0,0,0, ,991,25.2,-15.1,-5.1,-5.2,0.4,25,1008.24,6.80633,24.7556,-3.25443,-2.64383,-5.37464,
2026_07_06_19_27_36.223,3.873,49.7,0,0.773,0,0,0,0, ,0,0,0,0,0, ,990.1,16.9,-7.8,-3.2,-2.7,0.9,25,1007.16,7.67431,22.5493,-3.309,-2.72343,-5.00752,
2026_07_06_19_27_36.246,3.873,49.4,0,0.774,0,0,0,0, ,0,0,0,0,0, ,990.3,22,-9.3,-0.1,0.1,0.8,25,1006.13,8.39189,20.6542,-3.20791,-2.63669,-4.65057,
2026_07_06_19_27_36.258,3.873,49.6,0,0.773,0,0,0,0, ,0,0,0,0,0, ,989.2,15.9,-4.2,0.6,3.2,1.7,25,1005.13,9.03527,18.9843,-2.99719,-2.37547,-4.29101,
2026_07_06_19_27_36.283,3.873,49.5,0,0.774,0,0,0,0, ,0,0,0,0,0, ,990.7,15.3,3.7,-0.3,4.4,1.7,25,1004.2,9.43531,17.8122,-2.80541,-1.99915,-3.92593,
2026_07_06_19_27_36.298,3.873,49.4,0,0.773,0,0,0,0, ,0,0,0,0,0, ,990.7,8,6.3,0.4,5.8,1.6,25,1003.38,9.57027,17.0314,-2.63141,-1.56655,-3.58615,
2026_07_06_19_27_36.323,3.873,49.4,0,0.772,0,0,0,0, ,0,0,0,0,0, ,990.4,5.3,15.7,1.6,6,0.4,25,1002.6,9.39231,16.6639,-2.41012,-1.11155,-3.30668,
2026_07_06_19_27_36.337,3.873,49.5,0,0.773,0,0,0,0, ,0,0,0,0,0, ,990.6,2.6,34.9,1.3,4.1,-0.7,25,1001.86,9.06067,17.1902,-2.17489,-0.736083,-3.11432,
2026_07_06_19_27_36.363,3.873,49.5,0,0.773,0,0,0,0, ,0,0,0,0,0, ,991,1.7,33.2,0.6,0.5,-1.7,25,1001.19,8.63955,18.2176,-1.98447,-0.551072,-2.99766,
2026_07_06_19_27_36.378,3.873,49.6,0,0.773,0,0,0,0, ,0,0,0,0,0, ,992.4,10.7,25.2,1.4,-1,-2.6,25,1000.61,8.49089,18.8868,-1.8026,-0.532725,-2.94601,
2026_07_06_19_27_36.401,3.873,49.6,0,0.774,0,0,0,0, ,0,0,0,0,0, ,993.7,6.5,16.9,1,-1.8,-2.7,25,1000.15,8.49754,19.0186,-1.61963,-0.585575,-2.92797,
2026_07_06_19_27_36.417,3.873,49.4,0,0.773,0,0,0,0, ,0,0,0,0,0, ,990.4,9.3,10.8,0.6,-1.2,-3.3,25,999.655,8.46113,18.7037,-1.47219,-0.641298,-2.93236,
2026_07_06_19_27_36.441,3.873,49.4,0,0.773,0,0,0,0, ,0,0,0,0,0, ,989.8,19.2,10.9,1.4,0.5,-2.3,25,999.073,8.81389,18.2251,-1.32154,-0.623547,-2.9243,
2026_07_06_19_27_36.456,3.873,49.4,0,0.772,0,0,0,0, ,0,0,0,0,0, ,989.9,13.6,25.5,1.4,0.4,-1.4,25,998.511,9.27617,18.2236,-1.15569,-0.558127,-2.85883,
2026_07_06_19_27_36.481,3.873,49.5,0,0.772,0,0,0,0, ,0,0,0,0,0, ,991.3,9.7,24.5,-0.3,-1,-1.5,25,998.029,9.42082,18.6365,-1.05175,-0.542398,-2.77298,
2026_07_06_19_27_36.496,3.873,49.5,0,0.774,0,0,0,0, ,0,0,0,0,0, ,990.2,9.2,1.3,-0.3,0,-1.7,25,997.585,9.4226,18.2869,-1.00594,-0.539814,-2.7015,
2026_07_06_19_27_36.519,3.873,49.4,0,0.774,0,0,0,0, ,0,0,0,0,0, ,990.3,14,2,1.8,3.2,-1.5,25,997.138,9.55529,17.2731,-0.89894,-0.409419,-2.63438,
2026_07_06_19_27_36.538,3.873,49.5,0,0.773,0,0,0,0, ,0,0,0,0,0, ,990.7,16.9,20.2,2.4,5,0,25,996.734,9.9145,16.8969,-0.716193,-0.134627,-2.51955,
2026_07_06_19_27_36.562,3.873,49.5,0,0.773,0,0,0,0, ,0,0,0,0,0, ,991.6,1.2,44,0,2.8,-0.1,25,996.394,9.86181,17.8234,-0.599425,0.111233,-2.36906,
2026_07_06_19_27_36.575,3.873,49.4,0,0.774,0,0,0,0, ,0,0,0,0,0, ,992.5,2.8,29.4,-0.9,-0.1,-0.9,25,996.129,9.38274,18.9737,-0.590319,0.186721,-2.25517,
2026_07_06_19_27_36.598,3.873,49.5,0,0.773,0,0,0,0, ,0,0,0,0,0, ,991.5,2.3,22.7,-1.1,-0.4,-2,25,995.877,8.96637,19.4049,-0.615284,0.160108,-2.2061,
2026_07_06_19_27_36.615,3.873,49.4,0,0.774,0,0,0,0, ,0,0,0,0,0, ,991.3,6.8,21.2,-1.3,-0.7,-2.9,25,995.604,8.69724,19.56,-0.650915,0.116836,-2.22096,
2026_07_06_19_27_36.640,3.873,49.4,0,0.773,0,0,0,0, ,0,0,0,0,0, ,990.3,13.5,28,-1.2,-1.6,-2.8,25,995.312,8.78577,19.8671,-0.687422,0.0396381,-2.2593,
2026_07_06_19_27_36.654,3.873,49.4,0,0.773,0,0,0,0, ,0,0,0,0,0, ,990.2,9.1,22.8,-0.5,-1.7,-2.3,25,995.003,8.93898,20.2043,-0.697329,-0.0633242,-2.27701,
2026_07_06_19_27_36.678,3.873,49.3,0,0.773,0,0,0,0, ,0,0,0,0,0, ,991.5,9.1,20.3,-0.3,-1.7,-2.3,25,994.75,8.94879,20.2863,-0.67921,-0.163059,-2.27841,
2026_07_06_19_27_36.694,3.873,49.4,0,0.774,0,0,0,0, ,0,0,0,0,0, ,991,11.1,13.9,-0.7,-0.7,-2.1,25,994.537,9.01895,20.0921,-0.66829,-0.226248,-2.27363,
2026_07_06_19_27_36.719,3.873,49.4,0,0.774,0,0,0,0, ,0,0,0,0,0, ,990.3,6.9,19.4,-0.5,0.9,-2.3,25,994.3,9.01779,19.8824,-0.664128,-0.206367,-2.26915,
2026_07_06_19_27_36.733,3.873,49.4,0,0.773,0,0,0,0, ,0,0,0,0,0, ,990.3,11.4,34.4,-0.8,0,-2.8,25,994.056,9.02585,20.31,-0.663267,-0.16637,-2.28626,
2026_07_06_19_27_36.757,3.873,49.5,0,0.773,0,0,0,0, ,0,0,0,0,0, ,989.7,15,25.3,-1,-1.2,-2,25,993.809,9.28021,20.8913,-0.677693,-0.192794,-2.29319,
2026_07_06_19_27_36.773,3.873,49.4,0,0.772,0,0,0,0, ,0,0,0,0,0, ,991.6,6.4,24.1,-1,-1,-1.7,25,993.617,9.36673,21.1234,-0.697334,-0.248077,-2.26618,
2026_07_06_19_27_36.799,3.873,49.3,0,0.773,0,0,0,0, ,0,0,0,0,0, ,990.3,7.6,18.7,-1.2,-0.6,-2.1,25,993.454,9.22251,21.1403,-0.721871,-0.28171,-2.24387,
2026_07_06_19_27_36.813,3.873,49.3,0,0.774,0,0,0,0, ,0,0,0,0,0, ,989.9,12.4,23.4,-1.1,-0.4,-1.8,25,993.25,9.26988,21.1348,-0.74796,-0.295012,-2.22596,
2026_07_06_19_27_36.837,3.873,49.3,0,0.773,0,0,0,0, ,0,0,0,0,0, ,989.3,6.9,19.7,-0.9,-0.1,-2,25,993.027,9.29305,21.1601,-0.763319,-0.292269,-2.2061,
2026_07_06_19_27_36.853,3.873,49.3,0,0.773,0,0,0,0, ,0,0,0,0,0, ,991.6,7.3,26.3,-1.1,0,-2.2,25,992.87,9.15941,21.2722,-0.777742,-0.277506,-2.19963,
2026_07_06_19_27_36.878,3.873,49.3,0,0.774,0,0,0,0, ,0,0,0,0,0, ,990.8,12.3,27.2,-0.9,-0.5,-2.3,25,992.768,9.19844,21.606,-0.791286,-0.275829,-2.2027,
2026_07_06_19_27_36.892,3.873,49.4,0,0.774,0,0,0,0, ,0,0,0,0,0, ,991.6,15,20.5,-1,-1.2,-1.9,25,992.673,9.46971,21.7427,-0.800957,-0.310818,-2.19644,
2026_07_06_19_27_36.917,3.873,49.3,0,0.772,0,0,0,0, ,0,0,0,0,0, ,988.7,12.8,20.5,-0.9,-0.4,-0.9,25,992.519,9.73968,21.667,-0.81004,-0.340628,-2.14791,
2026_07_06_19_27_36.931,3.873,49.4,0,0.774,0,0,0,0, ,0,0,0,0,0, ,989.3,7.3,15.8,-1.1,0.1,-1.2,25,992.305,9.75859,21.4527,-0.821615,-0.329011,-2.08101,
2026_07_06_19_27_36.956,3.873,49.3,0,0.773,0,0,0,0, ,0,0,0,0,0, ,989.8,6.9,24.9,-1,0.8,-1.7,25,992.137,9.59658,21.3855,-0.835533,-0.28154,-2.04256,
2026_07_06_19_27_36.971,3.873,49.4,0,0.773,0,0,0,0, ,0,0,0,0,0, ,990.4,8.4,28.6,-1,0.3,-2.2,25,992.013,9.47796,21.7124,-0.845555,-0.230868,-2.03691,
2026_07_06_19_27_36.997,3.873,49.3,0,0.773,0,0,0,0, ,0,0,0,0,0, ,991.8,7.8,34.5,-1,-1.2,-2.2,25,991.957,9.39399,22.3119,-0.854966,-0.244222,-2.04685,
2026_07_06_19_27_37.011,3.873,49.3,0,0.773,0,0,0,0, ,0,0,0,0,0, ,991.9,9.1,23.1,-1,-1.8,-2.4,25,991.951,9.33647,22.7073,-0.863804,-0.320746,-2.06228,
2026_07_06_19_27_37.035,3.873,49.3,0,0.774,0,0,0,0, ,0,0,0,0,0, ,989.5,11.4,22.4,-1,-1.4,-2.4,25,991.874,9.39214,22.7099,-0.872104,-0.3987,-2.08286,
2026_07_06_19_27_37.050,3.873,49.3,0,0.773,0,0,0,0, ,0,0,0,0,0, ,991.4,14.5,19,-0.9,-0.4,-1.9,25,991.788,9.60895,22.5874,-0.87685,-0.429248,-2.08695,
2026_07_06_19_27_37.076,3.873,49.3,0,0.773,0,0,0,0, ,0,0,0,0,0, ,991.6,11.4,23.3,-1,0.3,-1.3,25,991.77,9.81254,22.4998,-0.881308,-0.406138,-2.05728,
2026_07_06_19_27_37.090,3.873,49.2,0,0.773,0,0,0,0, ,0,0,0,0,0, ,991.8,6.9,26.8,-1,0.3,-1.2,25,991.766,9.77217,22.6552,-0.888541,-0.363107,-2.00808,
2026_07_06_19_27_37.115,3.873,49.2,0,0.773,0,0,0,0, ,0,0,0,0,0, ,991,7.3,28.6,-1,-0.1,-1.5,25,991.743,9.60933,22.9626,-0.895333,-0.334887,-1.96798,
2026_07_06_19_27_37.129,3.873,49.2,0,0.773,0,0,0,0, ,0,0,0,0,0, ,989.6,6.5,27.3,-1.2,-0.9,-1.8,25,991.656,9.44423,23.2665,-0.907805,-0.344948,-1.9486,
2026_07_06_19_27_37.155,3.873,49.2,0,0.773,0,0,0,0, ,0,0,0,0,0, ,989,7.3,23.1,-1.3,-0.7,-1.9,25,991.512,9.28919,23.3844,-0.928657,-0.372678,-1.9426,
2026_07_06_19_27_37.174,3.873,49.2,0,0.774,0,0,0,0, ,0,0,0,0,0, ,991.5,7.4,21.1,-1.4,-0.2,-2.3,25,991.435,9.17102,23.3061,-0.954333,-0.37739,-1.95219,
2026_07_06_19_27_37.200,3.873,49.2,0,0.774,0,0,0,0, ,0,0,0,0,0, ,990.2,11.8,28.5,-1.2,-0.1,-2.3,25,991.399,9.19716,23.3971,-0.975397,-0.363533,-1.97338,
2026_07_06_19_27_37.208,3.873,49.4,0,0.773,0,0,0,0, ,0,0,0,0,0, ,991.2,12.3,26.3,-1,-0.6,-1.5,25,991.357,9.37101,23.641,-0.98299,-0.362709,-1.96891,
2026_07_06_19_27_37.233,3.873,49.2,0,0.774,0,0,0,0, ,0,0,0,0,0, ,991.9,8.4,21.3,-1,-0.5,-1.5,25,991.369,9.43067,23.6507,-0.984027,-0.374122,-1.94034,
2026_07_06_19_27_37.248,3.873,49.3,0,0.773,0,0,0,0, ,0,0,0,0,0, ,989.8,9.6,26.6,-1,0,-1.3,25,991.337,9.40442,23.669,-0.985,-0.366558,-1.90741,
2026_07_06_19_27_37.274,3.873,49.3,0,0.774,0,0,0,0, ,0,0,0,0,0, ,988.7,6.9,28,-1.1,-0.4,-1.4,25,991.21,9.33407,23.8902,-0.988961,-0.356408,-1.87344,
2026_07_06_19_27_37.288,3.873,49.3,0,0.774,0,0,0,0, ,0,0,0,0,0, ,990.7,5.7,29.7,-1.2,-1.2,-2,25,991.118,9.14919,24.1925,-0.998774,-0.38344,-1.86287,
2026_07_06_19_27_37.313,3.873,49.2,0,0.773,0,0,0,0, ,0,0,0,0,0, ,991,6.2,26.3,-1.2,-1.4,-2.3,25,991.101,8.95424,24.4245,-1.01104,-0.439293,-1.88037,
2026_07_06_19_27_37.327,3.873,49.2,0,0.773,0,0,0,0, ,0,0,0,0,0, ,991.8,14.1,22.8,-1,-1.1,-2,25,991.12,9.0271,24.4321,-1.01646,-0.488695,-1.8968,
2026_07_06_19_27_37.354,3.873,49.2,0,0.774,0,0,0,0, ,0,0,0,0,0, ,991.6,8.6,24.2,-1.1,-1,-1.7,25,991.155,9.16865,24.3753,-1.0185,-0.5229,-1.89395,
2026_07_06_19_27_37.366,3.873,49.3,0,0.773,0,0,0,0, ,0,0,0,0,0, ,991,4.1,19.8,-1.1,-0.5,-2.3,25,991.164,8.99689,24.2306,-1.02347,-0.536739,-1.90041,
2026_07_06_19_27_37.392,3.873,49.3,0,0.773,0,0,0,0, ,0,0,0,0,0, ,991.2,12.4,28.9,-1,-0.1,-2.3,25,991.16,8.95138,24.2379,-1.02508,-0.522312,-1.92476,
2026_07_06_19_27_37.406,3.873,49.2,0,0.773,0,0,0,0, ,0,0,0,0,0, ,990.7,9.2,25.1,-1,-1,-1.9,25,991.147,9.06403,24.4062,-1.02356,-0.524,-1.93544,
2026_07_06_19_27_37.431,3.873,49.3,0,0.772,0,0,0,0, ,0,0,0,0,0, ,989.6,8.7,20.9,-1.1,-0.1,-1.9,25,991.086,9.05708,24.3205,-1.02517,-0.525584,-1.93328,
2026_07_06_19_27_37.446,3.873,49.3,0,0.773,0,0,0,0, ,0,0,0,0,0, ,990.4,6.1,28.3,-1,-1,-2,25,991.02,8.9561,24.3375,-1.02668,-0.527072,-1.9343,
2026_07_06_19_27_37.472,3.873,49.3,0,0.772,0,0,0,0, ,0,0,0,0,0, ,990.9,6.9,26.3,-1,-1.1,-2.2,25,990.998,8.80643,24.5181,-1.02505,-0.558938,-1.9444,
2026_07_06_19_27_37.485,3.873,49.1,0,0.774,0,0,0,0, ,0,0,0,0,0, ,992,12.6,24.9,-0.9,-1.2,-1.8,25,991.025,8.86393,24.584,-1.02048,-0.594956,-1.94778,
2026_07_06_19_27_37.512,3.873,49.3,0,0.773,0,0,0,0, ,0,0,0,0,0, ,990.4,5.9,19.1,-1.1,-0.8,-1.6,25,991.036,8.88746,24.4265,-1.01923,-0.619638,-1.93269,
2026_07_06_19_27_37.528,3.873,49.2,0,0.773,0,0,0,0, ,0,0,0,0,0, ,991,9.3,23.5,-1.1,0.5,-1.7,25,991.015,8.809,24.236,-1.02415,-0.591019,-1.91546,
2026_07_06_19_27_37.555,3.873,49.1,0,0.774,0,0,0,0, ,0,0,0,0,0, ,990.9,4.5,35,-1.3,-0.4,-1.9,25,991.011,8.69267,24.5415,-1.03487,-0.551957,-1.90842,
2026_07_06_19_27_37.564,3.873,49.2,0,0.773,0,0,0,0, ,0,0,0,0,0, ,991,5.3,26.9,-1.2,-1.3,-2.7,25,991.008,8.46156,24.9321,-1.04798,-0.570119,-1.93229,
2026_07_06_19_27_37.590,3.873,49.2,0,0.773,0,0,0,0, ,0,0,0,0,0, ,990.4,10.7,25.3,-1.1,-1.7,-3,25,990.989,8.43343,25.0032,-1.0542,-0.626784,-1.98821,
2026_07_06_19_27_37.605,3.873,49.3,0,0.772,0,0,0,0, ,0,0,0,0,0, ,991,11.4,19.2,-0.9,-0.5,-2.3,25,990.971,8.59288,24.8355,-1.05089,-0.65562,-2.02854,
2026_07_06_19_27_37.631,3.873,49.2,0,0.773,0,0,0,0, ,0,0,0,0,0, ,990.8,8.3,26.7,-0.9,-0.4,-2,25,990.967,8.66948,24.7206,-1.0417,-0.64309,-2.03594,
2026_07_06_19_27_37.644,3.873,49.2,0,0.773,0,0,0,0, ,0,0,0,0,0, ,991,9.5,22.4,-1,-0.2,-1.8,25,990.963,8.68353,24.7102,-1.03611,-0.622183,-2.02765,
2026_07_06_19_27_37.670,3.873,49.2,0,0.773,0,0,0,0, ,0,0,0,0,0, ,992,10.6,24.5,-1,0,-1.6,25,990.996,8.7668,24.6334,-1.03391,-0.590363,-2.00769,
2026_07_06_19_27_37.683,3.873,49.2,0,0.773,0,0,0,0, ,0,0,0,0,0, ,992.3,6.3,24.5,-1,0.2,-1.3,25,991.066,8.7475,24.6252,-1.03184,-0.548294,-1.9737,
2026_07_06_19_27_37.710,3.873,49.2,0,0.772,0,0,0,0, ,0,0,0,0,0, ,989.9,4.5,35.6,-0.9,-0.6,-1.5,25,991.068,8.54351,24.9558,-1.02686,-0.52707,-1.93874,
2026_07_06_19_27_37.723,3.873,49.2,0,0.774,0,0,0,0, ,0,0,0,0,0, ,989.9,5.9,24.5,-0.8,-1.3,-2,25,990.997,8.33976,25.2662,-1.01608,-0.552842,-1.92724,
2026_07_06_19_27_37.749,3.873,49.2,0,0.773,0,0,0,0, ,0,0,0,0,0, ,989,7.8,22,-0.7,-1,-2.4,25,990.903,8.24898,25.1434,-0.999865,-0.589231,-1.94386,
2026_07_06_19_27_37.762,3.873,49.2,0,0.774,0,0,0,0, ,0,0,0,0,0, ,989.8,11.7,25.6,-0.8,-0.3,-2.2,25,990.811,8.34045,25.0615,-0.984639,-0.592934,-1.96557,
2026_07_06_19_27_37.788,3.873,49.1,0,0.773,0,0,0,0, ,0,0,0,0,0, ,990.8,10.8,25.5,-0.9,-0.5,-1.7,25,990.78,8.51775,25.0913,-0.976435,-0.581177,-1.96462,
2026_07_06_19_27_37.802,3.873,49.1,0,0.773,0,0,0,0, ,0,0,0,0,0, ,990.6,7.9,24.7,-1,-0.5,-1.5,25,990.775,8.56846,25.0918,-0.974824,-0.576231,-1.9424,
2026_07_06_19_27_37.829,3.873,49.1,0,0.774,0,0,0,0, ,0,0,0,0,0, ,990.7,2,34,-1.1,-1,-1.7,25,990.767,8.34796,25.3513,-0.979405,-0.58682,-1.92153,
2026_07_06_19_27_37.842,3.873,49.2,0,0.774,0,0,0,0, ,0,0,0,0,0, ,990.4,0.1,29.5,-0.9,-1.4,-2.7,25,990.754,7.90324,25.7412,-0.98066,-0.624185,-1.9385,
2026_07_06_19_27_37.869,3.873,49,0,0.773,0,0,0,0, ,0,0,0,0,0, ,990.1,9.8,30.7,-0.5,-2.2,-3.1,25,990.723,7.72328,26.0068,-0.963557,-0.695837,-1.99709,
2026_07_06_19_27_37.881,3.873,49.1,0,0.773,0,0,0,0, ,0,0,0,0,0, ,990.7,11.3,23.9,0,-2.6,-2.6,25,990.704,7.89553,26.0856,-0.920075,-0.799684,-2.04907,
2026_07_06_19_27_37.914,3.873,49.1,0,0.773,0,0,0,0, ,0,0,0,0,0, ,991.6,12,16.3,-0.2,-1.8,-2.5,25,990.731,8.12432,25.7209,-0.870101,-0.885016,-2.07959,
2026_07_06_19_27_37.921,3.873,49.2,0,0.772,0,0,0,0, ,0,0,0,0,0, ,991.3,8.5,17.7,-0.6,-0.7,-2.4,25,990.775,8.25386,25.1895,-0.841455,-0.907257,-2.10216,
2026_07_06_19_27_37.947,3.873,49.1,0,0.774,0,0,0,0, ,0,0,0,0,0, ,989.9,13.9,23.9,-0.9,0.2,-2.2,25,990.764,8.43339,24.922,-0.835882,-0.867205,-2.11422,
2026_07_06_19_27_37.960,3.873,49.1,0,0.774,0,0,0,0, ,0,0,0,0,0, ,990.3,10.1,28.1,-0.9,0,-1.8,25,990.724,8.65073,24.9877,-0.839789,-0.808266,-2.10726,
2026_07_06_19_27_37.987,3.873,49.1,0,0.773,0,0,0,0, ,0,0,0,0,0, ,991.6,10.6,26.1,-0.7,-0.3,-1.6,25,990.737,8.75428,25.1164,-0.837364,-0.768153,-2.08244,
2026_07_06_19_27_37.999,3.873,49.1,0,0.773,0,0,0,0, ,0,0,0,0,0, ,991.3,7.8,24.9,-0.5,-0.5,-1.6,25,990.781,8.78144,25.1398,-0.8229,-0.745719,-2.05304,
2026_07_06_19_27_38.026,3.873,49.1,0,0.772,0,0,0,0, ,0,0,0,0,0, ,991,7.5,26.1,-0.5,-0.7,-1.8,25,990.803,8.71249,25.1617,-0.803223,-0.736839,-2.03153,
2026_07_06_19_27_38.039,3.873,49.1,0,0.773,0,0,0,0, ,0,0,0,0,0, ,990.3,6.5,28.3,-0.7,-1.1,-2.2,25,990.794,8.60814,25.2859,-0.790839,-0.746782,-2.02961,
2026_07_06_19_27_38.067,3.873,49.1,0,0.774,0,0,0,0, ,0,0,0,0,0, ,991.9,9.5,18.6,-0.6,-1.2,-2.5,25,990.813,8.57108,25.174,-0.782257,-0.771353,-2.04913,
2026_07_06_19_27_38.078,3.873,49.1,0,0.774,0,0,0,0, ,0,0,0,0,0, ,991.3,13,20.5,-0.5,-1,-2,25,990.861,8.73432,24.8313,-0.768104,-0.79138,-2.06137,
2026_07_06_19_27_38.105,3.873,49.1,0,0.773,0,0,0,0, ,0,0,0,0,0, ,992.4,12.4,21.1,-0.6,-0.1,-1.2,25,990.921,8.97598,24.5857,-0.754813,-0.776671,-2.03326,
2026_07_06_19_27_38.118,3.873,49.1,0,0.774,0,0,0,0, ,0,0,0,0,0, ,991.3,6.4,26.9,-0.8,-0.1,-1.5,25,990.978,9.00182,24.55,-0.751473,-0.735436,-1.99162,
2026_07_06_19_27_38.146,3.873,49.1,0,0.773,0,0,0,0, ,0,0,0,0,0, ,991,6.5,25.3,-0.9,-0.7,-2.3,25,990.988,8.84632,24.6444,-0.757477,-0.714996,-1.98604,
2026_07_06_19_27_38.158,3.873,49,0,0.774,0,0,0,0, ,0,0,0,0,0, ,991.9,5.2,31.9,-0.9,-1.6,-2.8,25,991.016,8.66373,24.8855,-0.766162,-0.741504,-2.02041,
2026_07_06_19_27_38.185,3.873,49,0,0.773,0,0,0,0, ,0,0,0,0,0, ,990.7,9.7,27.9,-0.6,-2.2,-3.5,25,991.033,8.58977,25.1911,-0.765177,-0.812099,-2.08924,
2026_07_06_19_27_38.198,3.873,49,0,0.774,0,0,0,0, ,0,0,0,0,0, ,989.1,12.8,26.1,-0.4,-2.8,-3.3,25,990.964,8.75188,25.3013,-0.749018,-0.914956,-2.16911,
2026_07_06_19_27_38.226,3.873,49.1,0,0.774,0,0,0,0, ,0,0,0,0,0, ,989,12.5,14.6,-0.6,-2.5,-2.9,25,990.848,8.98942,24.9996,-0.733843,-1.02069,-2.22584,
2026_07_06_19_27_38.238,3.873,49.1,0,0.773,0,0,0,0, ,0,0,0,0,0, ,990.6,14.1,13.3,-0.6,-1.3,-2,25,990.784,9.2521,24.3262,-0.725687,-1.07427,-2.2395,
2026_07_06_19_27_38.266,3.873,49,0,0.774,0,0,0,0, ,0,0,0,0,0, ,990.4,14.8,15.9,-0.9,-0.1,-1.6,25,990.767,9.56884,23.7335,-0.727169,-1.05146,-2.21272,
2026_07_06_19_27_38.277,3.873,49.1,0,0.774,0,0,0,0, ,0,0,0,0,0, ,991.4,12.9,19.1,-1,0.7,-1.2,25,990.775,9.82973,23.3537,-0.740747,-0.969107,-2.16319,
2026_07_06_19_27_38.305,3.873,49.1,0,0.773,0,0,0,0, ,0,0,0,0,0, ,990.4,16.2,23.8,-1,0.7,-0.4,25,990.782,10.1174,23.2377,-0.756546,-0.867396,-2.08012,
2026_07_06_19_27_38.317,3.873,49,0,0.773,0,0,0,0, ,0,0,0,0,0, ,989.9,7.9,25.7,-0.9,0.3,-0.3,25,990.744,10.2351,23.3298,-0.768334,-0.78407,-1.97469,
2026_07_06_19_27_38.344,3.873,49,0,0.774,0,0,0,0, ,0,0,0,0,0, ,989.6,5.8,32.9,-0.7,-0.4,-1.2,25,990.683,10.0289,23.6936,-0.770264,-0.739338,-1.90006,
2026_07_06_19_27_38.356,3.873,49,0,0.773,0,0,0,0, ,0,0,0,0,0, ,990.7,7.9,26.2,-0.5,-1.4,-1.8,25,990.651,9.83514,24.0505,-0.759888,-0.749128,-1.87569,
2026_07_06_19_27_38.384,3.873,49.1,0,0.772,0,0,0,0, ,0,0,0,0,0, ,991.3,6.8,20.6,-0.3,-1.7,-2.4,25,990.672,9.68371,24.0109,-0.737958,-0.797931,-1.88935,
2026_07_06_19_27_38.396,3.873,49,0,0.774,0,0,0,0, ,0,0,0,0,0, ,991,10.6,14.7,-0.5,-0.7,-2.6,25,990.701,9.62376,23.6233,-0.717363,-0.822432,-1.92657,
2026_07_06_19_27_38.423,3.873,49.1,0,0.773,0,0,0,0, ,0,0,0,0,0, ,990.3,13.9,21.4,-0.8,0.1,-2.1,25,990.698,9.7838,23.2836,-0.713259,-0.790596,-1.95237,
2026_07_06_19_27_38.435,3.873,49,0,0.773,0,0,0,0, ,0,0,0,0,0, ,989.2,12.5,25.7,-0.8,0.1,-1.7,25,990.64,9.99197,23.2999,-0.718544,-0.736326,-1.94918,
2026_07_06_19_27_38.461,3.873,49,0,0.774,0,0,0,0, ,0,0,0,0,0, ,991.9,12.2,23.9,-0.7,-0.3,-1.4,25,990.635,10.1357,23.3913,-0.720461,-0.69755,-1.92485,
2026_07_06_19_27_38.475,3.873,49,0,0.773,0,0,0,0, ,0,0,0,0,0, ,990.6,13.1,23.6,-0.6,-0.7,-1.4,25,990.672,10.2889,23.4131,-0.716167,-0.685511,-1.89287,
2026_07_06_19_27_38.503,3.873,49,0,0.773,0,0,0,0, ,0,0,0,0,0, ,991.3,10.1,22.4,-0.6,-0.6,-1.2,25,990.689,10.3688,23.388,-0.709088,-0.683347,-1.85674,
2026_07_06_19_27_38.515,3.873,49,0,0.773,0,0,0,0, ,0,0,0,0,0, ,990.1,9.6,23.8,-0.5,-0.6,-1.3,25,990.69,10.3372,23.3704,-0.699394,-0.678268,-1.81977,
2026_07_06_19_27_38.541,3.873,48.9,0,0.773,0,0,0,0, ,0,0,0,0,0, ,988.5,14,17.7,-0.4,-0.1,-1.4,25,990.605,10.4263,23.2107,-0.684197,-0.658265,-1.79114,
2026_07_06_19_27_38.555,3.873,48.9,0,0.774,0,0,0,0, ,0,0,0,0,0, ,992.3,7.6,23.4,-0.6,0,-1.1,25,990.593,10.4491,23.0486,-0.672972,-0.621198,-1.75817,
2026_07_06_19_27_38.583,3.873,49,0,0.773,0,0,0,0, ,0,0,0,0,0, ,990.7,7.4,25.6,-0.5,-0.1,-1.7,25,990.648,10.2694,23.137,-0.665478,-0.586391,-1.73634,
2026_07_06_19_27_38.594,3.873,48.9,0,0.773,0,0,0,0, ,0,0,0,0,0, ,991.9,8.4,32.7,-0.5,-1.2,-1.8,25,990.688,10.125,23.5035,-0.655395,-0.590267,-1.73717,
2026_07_06_19_27_38.620,3.873,49,0,0.773,0,0,0,0, ,0,0,0,0,0, ,990.3,4.1,20.5,-0.6,-1.6,-2.1,25,990.713,9.88885,23.6922,-0.648972,-0.63961,-1.75014,
2026_07_06_19_27_38.634,3.873,49,0,0.774,0,0,0,0, ,0,0,0,0,0, ,987.9,14,20,-0.7,-0.3,-2.3,25,990.615,9.83774,23.4824,-0.649035,-0.658525,-1.77755,
2026_07_06_19_27_38.661,3.873,48.9,0,0.772,0,0,0,0, ,0,0,0,0,0, ,990.2,10.7,28.8,-0.5,-0.6,-1.5,25,990.519,9.99083,23.5383,-0.646047,-0.645818,-1.78502,
2026_07_06_19_27_38.673,3.873,48.9,0,0.773,0,0,0,0, ,0,0,0,0,0, ,989.7,4.5,25.8,-0.5,-0.9,-1.6,25,990.485,9.84514,23.7675,-0.637147,-0.652166,-1.7707,
2026_07_06_19_27_38.701,3.873,49,0,0.773,0,0,0,0, ,0,0,0,0,0, ,990.3,9.1,27.4,-0.7,-1.4,-2.3,25,990.455,9.65957,23.9401,-0.634883,-0.682503,-1.78162,
2026_07_06_19_27_38.715,3.873,49,0,0.773,0,0,0,0, ,0,0,0,0,0, ,990.7,10.4,27.3,-0.9,-2.7,-2.2,25,990.458,9.66508,24.1479,-0.644945,-0.765835,-1.81016,
2026_07_06_19_27_38.744,3.873,48.9,0,0.773,0,0,0,0, ,0,0,0,0,0, ,991.3,12.9,20.6,-0.3,-2.5,-1.7,25,990.491,9.78604,24.1359,-0.642206,-0.877604,-1.81868,
2026_07_06_19_27_38.752,3.873,48.9,0,0.772,0,0,0,0, ,0,0,0,0,0, ,990.9,13.3,24.4,-0.2,-2.8,-1.2,25,990.528,9.98798,24.0362,-0.618306,-0.98561,-1.79622,
2026_07_06_19_27_38.778,3.873,48.9,0,0.773,0,0,0,0, ,0,0,0,0,0, ,990.4,6.7,10.4,-0.5,-2.9,-1.4,25,990.535,9.98872,23.6318,-0.601956,-1.09922,-1.76598,
2026_07_06_19_27_38.791,3.873,49,0,0.773,0,0,0,0, ,0,0,0,0,0, ,989.1,9.5,5.4,-0.1,-0.8,-1.6,25,990.487,9.87362,22.6731,-0.583556,-1.14497,-1.74977,
2026_07_06_19_27_38.820,3.873,48.9,0,0.773,0,0,0,0, ,0,0,0,0,0, ,990.9,6.8,19.1,-0.5,-0.2,-1.8,25,990.458,9.76859,22.038,-0.566277,-1.10567,-1.74674,
2026_07_06_19_27_38.831,3.873,49,0,0.772,0,0,0,0, ,0,0,0,0,0, ,991.9,7.4,19.4,-0.6,0,-2.4,25,990.515,9.60597,21.8681,-0.565285,-1.04439,-1.76827,
2026_07_06_19_27_38.859,3.873,48.9,0,0.772,0,0,0,0, ,0,0,0,0,0, ,991.3,12,24.2,-0.7,-0.5,-2.3,25,990.581,9.6117,21.8639,-0.570447,-0.995978,-1.80371,
2026_07_06_19_27_38.871,3.873,49,0,0.774,0,0,0,0, ,0,0,0,0,0, ,991,14,20,-0.5,-0.8,-1.9,25,990.616,9.81818,21.8783,-0.572248,-0.974895,-1.82177,
2026_07_06_19_27_38.900,3.873,48.9,0,0.773,0,0,0,0, ,0,0,0,0,0, ,989.2,6.3,20.1,-0.3,-1,-1.6,25,990.585,9.8384,21.7669,-0.561752,-0.970331,-1.8174,
2026_07_06_19_27_38.911,3.873,49,0,0.773,0,0,0,0, ,0,0,0,0,0, ,991.4,10.9,15.8,-0.1,-0.8,-1.8,25,990.567,9.76293,21.5343,-0.539707,-0.966045,-1.81024,
2026_07_06_19_27_38.939,3.873,48.9,0,0.773,0,0,0,0, ,0,0,0,0,0, ,989.5,14.6,12.8,-0.1,0.4,-1,25,990.56,9.94496,21.0935,-0.512913,-0.919364,-1.78524,
2026_07_06_19_27_38.950,3.873,48.9,0,0.772,0,0,0,0, ,0,0,0,0,0, ,990.8,6.8,21.2,-0.3,0.9,-0.9,25,990.535,9.99097,20.844,-0.493845,-0.823731,-1.73435,
2026_07_06_19_27_38.981,3.873,48.9,0,0.773,0,0,0,0, ,0,0,0,0,0, ,990.4,6.2,23.9,-0.2,1,-1.5,25,990.539,9.77824,20.948,-0.478985,-0.715644,-1.70178,
2026_07_06_19_27_38.990,3.873,48.9,0,0.773,0,0,0,0, ,0,0,0,0,0, ,989.8,8.1,29.4,-0.4,-0.1,-1.8,25,990.512,9.61808,21.2955,-0.468078,-0.644613,-1.69863,
2026_07_06_19_27_39.017,3.873,48.7,0,0.773,0,0,0,0, ,0,0,0,0,0, ,990.4,7.8,28.5,-0.6,-1.3,-2.2,25,990.487,9.51643,21.7619,-0.470024,-0.647988,-1.71699,
2026_07_06_19_27_39.029,3.873,48.7,0,0.773,0,0,0,0, ,0,0,0,0,0, ,991.6,8.3,18,-0.6,-1.5,-2.1,25,990.518,9.42707,21.8526,-0.477944,-0.693814,-1.74338,
2026_07_06_19_27_39.057,3.873,48.7,0,0.773,0,0,0,0, ,0,0,0,0,0, ,992,10.4,18,-0.5,-0.6,-2.3,25,990.596,9.42237,21.6178,-0.482335,-0.715519,-1.7712,
2026_07_06_19_27_39.068,3.873,48.9,0,0.773,0,0,0,0, ,0,0,0,0,0, ,989.8,11.5,17.8,-0.6,0,-2,25,990.615,9.51546,21.3913,-0.486458,-0.690198,-1.79429,
2026_07_06_19_27_39.096,3.873,48.9,0,0.772,0,0,0,0, ,0,0,0,0,0, ,990.7,12.8,23.9,-0.7,-0.3,-1.6,25,990.593,9.676,21.3583,-0.496424,-0.65728,-1.79464,
2026_07_06_19_27_39.108,3.873,48.9,0,0.773,0,0,0,0, ,0,0,0,0,0, ,988.7,8.3,20.6,-0.5,0.1,-1.2,25,990.538,9.72926,21.4126,-0.502736,-0.623321,-1.77059,
2026_07_06_19_27_39.136,3.873,48.6,0,0.773,0,0,0,0, ,0,0,0,0,0, ,991.5,9.5,22.8,-0.5,0.2,-1.6,25,990.512,9.67873,21.4301,-0.502569,-0.576196,-1.748,
2026_07_06_19_27_39.154,3.873,48.6,0,0.773,0,0,0,0, ,0,0,0,0,0, ,991.6,8.1,27,-0.5,-0.4,-1.6,25,990.575,9.62518,21.6416,-0.502413,-0.547178,-1.73899,
2026_07_06_19_27_39.182,3.873,48.7,0,0.773,0,0,0,0, ,0,0,0,0,0, ,990.9,9.6,27.8,-0.4,-1.2,-1.4,25,990.616,9.57795,21.9925,-0.499219,-0.562585,-1.72442,
2026_07_06_19_27_39.187,3.873,48.6,0,0.774,0,0,0,0, ,0,0,0,0,0, ,990.6,5.7,22.2,-0.4,-1.7,-1.2,25,990.624,9.46046,22.1757,-0.493173,-0.616661,-1.69856,
2026_07_06_19_27_39.215,3.873,48.7,0,0.772,0,0,0,0, ,0,0,0,0,0, ,991.6,7.6,8,-0.5,-0.4,-1.9,25,990.653,9.2892,21.7446,-0.490542,-0.643068,-1.68951,
2026_07_06_19_27_39.227,3.873,48.6,0,0.773,0,0,0,0, ,0,0,0,0,0, ,991.3,11.8,22.8,-0.7,0.6,-2,25,990.702,9.31423,21.3579,-0.497212,-0.597787,-1.70538,
2026_07_06_19_27_39.257,3.873,48.7,0,0.773,0,0,0,0, ,0,0,0,0,0, ,990.7,13.1,25,-0.5,0.5,-1.4,25,990.72,9.50532,21.5129,-0.503475,-0.527844,-1.70505,
2026_07_06_19_27_39.266,3.873,48.7,0,0.773,0,0,0,0, ,0,0,0,0,0, ,990.8,10.6,23.3,-0.6,-0.3,-0.8,25,990.722,9.6482,21.6736,-0.506311,-0.489585,-1.66818,
2026_07_06_19_27_39.293,3.873,48.7,0,0.774,0,0,0,0, ,0,0,0,0,0, ,990.4,1.2,23.6,-0.6,-0.3,-1.1,25,990.714,9.41979,21.7818,-0.51202,-0.478032,-1.62442,
2026_07_06_19_27_39.306,3.873,48.9,0,0.773,0,0,0,0, ,0,0,0,0,0, ,990.1,3.2,27.3,-0.6,-0.3,-2,25,990.686,8.97984,22.0053,-0.517381,-0.467183,-1.61988,
2026_07_06_19_27_39.335,3.873,48.7,0,0.772,0,0,0,0, ,0,0,0,0,0, ,989.6,7.8,26.8,-0.6,-1.1,-2.7,25,990.635,8.76778,22.3127,-0.522416,-0.48137,-1.66437,
2026_07_06_19_27_39.346,3.873,48.7,0,0.773,0,0,0,0, ,0,0,0,0,0, ,989.7,13.4,21.9,-0.5,-1.1,-2.4,25,990.575,8.87943,22.4369,-0.524097,-0.519068,-1.71834,
2026_07_06_19_27_39.374,3.873,48.6,0,0.773,0,0,0,0, ,0,0,0,0,0, ,987.9,14.1,20.3,-0.5,-1.1,-1.3,25,990.467,9.17623,22.3554,-0.522628,-0.554469,-1.72637,
2026_07_06_19_27_39.386,3.873,48.7,0,0.773,0,0,0,0, ,0,0,0,0,0, ,989,5.4,16.6,-0.4,0,-1.4,25,990.344,9.2112,22.1174,-0.518202,-0.554196,-1.70343,
2026_07_06_19_27_39.415,3.873,48.7,0,0.772,0,0,0,0, ,0,0,0,0,0, ,990.7,6.8,26.8,-0.5,0,-2,25,990.314,9.02161,22.092,-0.514046,-0.520425,-1.70322,
2026_07_06_19_27_39.425,3.873,48.6,0,0.773,0,0,0,0, ,0,0,0,0,0, ,990.6,8,27.2,-0.6,-0.7,-1.9,25,990.334,8.92279,22.3911,-0.516237,-0.51004,-1.71826,
2026_07_06_19_27_39.453,3.873,48.6,0,0.772,0,0,0,0, ,0,0,0,0,0, ,992,9.3,25,-0.5,-0.9,-1.7,25,990.393,8.90617,22.6171,-0.518295,-0.527709,-1.72324,
2026_07_06_19_27_39.464,3.873,48.6,0,0.773,0,0,0,0, ,0,0,0,0,0, ,989.9,7.9,20.1,-0.5,-1.3,-1.7,25,990.427,8.88751,22.613,-0.51718,-0.562583,-1.72182,
2026_07_06_19_27_39.493,3.873,48.6,0,0.773,0,0,0,0, ,0,0,0,0,0, ,990.6,5.6,16.4,-0.6,-0.8,-1.8,25,990.416,8.75726,22.3471,-0.51918,-0.592285,-1.72354,
2026_07_06_19_27_39.504,3.873,48.6,0,0.772,0,0,0,0, ,0,0,0,0,0, ,991.5,6.1,19,-0.5,0.6,-2.6,25,990.455,8.5801,22.064,-0.521058,-0.562287,-1.75258,
2026_07_06_19_27_39.532,3.873,48.6,0,0.772,0,0,0,0, ,0,0,0,0,0, ,991.5,10.6,28,-0.1,0.6,-2.6,25,990.519,8.56607,22.1515,-0.507587,-0.49146,-1.80422,
2026_07_06_19_27_39.543,3.873,48.5,0,0.773,0,0,0,0, ,0,0,0,0,0, ,990.7,10.1,24.6,0.8,-0.3,-2.2,25,990.554,8.67478,22.4043,-0.455328,-0.452371,-1.84052,
2026_07_06_19_27_39.573,3.873,48.7,0,0.773,0,0,0,0, ,0,0,0,0,0, ,989.6,6.7,33,1.2,-0.4,-1.6,25,990.529,8.65804,22.794,-0.366644,-0.446133,-1.84415,
2026_07_06_19_27_39.583,3.873,48.7,0,0.773,0,0,0,0, ,0,0,0,0,0, ,990.6,12.9,25.7,1.3,-0.3,-1.6,25,990.503,8.72763,23.1935,-0.26813,-0.440274,-1.82927,
2026_07_06_19_27_39.612,3.873,48.6,0,0.772,0,0,0,0, ,0,0,0,0,0, ,990.3,5.6,17.7,1.3,-0.1,-1.3,25,990.5,8.75946,23.1025,-0.172572,-0.425633,-1.80616,
2026_07_06_19_27_39.623,3.873,48.7,0,0.776,0,0,0,0, ,0,0,0,0,0, ,990.9,15.3,21.3,1,0.5,-1.2,25,990.506,8.86248,22.883,-0.0919776,-0.387508,-1.77227,
2026_07_06_19_27_39.652,3.873,48.6,0,0.773,0,0,0,0, ,0,0,0,0,0, ,993.2,10.6,30.2,0.8,-0.4,-0.6,25,990.6,9.11156,23.0577,-0.031529,-0.360848,-1.71911,
2026_07_06_19_27_39.662,3.873,48.6,0,0.773,0,0,0,0, ,0,0,0,0,0, ,991.5,28.3,14.6,2.4,0.4,0.9,25,990.707,9.74156,23.0176,0.0678923,-0.338858,-1.60521,
2026_07_06_19_27_39.691,3.873,48.6,0,0.773,0,0,0,0, ,0,0,0,0,0, ,992.3,43.7,9.5,0.5,4,4.6,25,990.78,11.3417,22.3493,0.152114,-0.184147,-1.33982,
2026_07_06_19_27_39.701,3.873,48.6,0,0.773,0,0,0,0, ,0,0,0,0,0, ,995.7,135.1,79.5,-11.5,0.3,-4.4,25,990.976,16.0984,23.6991,-0.192311,-0.0419097,-1.25208,
2026_07_06_19_27_39.730,3.873,48.6,0,0.773,0,0,0,0, ,0,0,0,0,0, ,987.9,170.5,24.2,-11.8,0,0,25,991.026,24.4286,25.4145,-0.890514,-0.0302152,-1.30984,
2026_07_06_19_27_39.741,3.873,48.6,0,0.772,0,0,0,0, ,0,0,0,0,0, ,1004.6,185.6,-10.7,10,7,-19.5,25,991.344,33.7899,24.2772,-0.891092,0.184907,-1.82416,
2026_07_06_19_27_39.773,3.873,48.5,0,0.773,0,0,0,0, ,0,0,0,0,0, ,1300.1,269.2,42.4,9.4,6.7,-26.5,25,1001.16,45.588,23.7636,-0.245698,0.591061,-3.11457,
2026_07_06_19_27_39.781,3.873,48.6,0,0.773,0,0,0,0, ,0,0,0,0,0, ,1266.8,272.4,-3.7,7.6,32.9,-2.4,25,1018.36,59.3119,23.4947,0.287243,1.76161,-3.80532,
2026_07_06_19_27_39.811,3.873,48.5,0,0.773,0,0,0,0, ,0,0,0,0,0, ,1290.2,238.2,-66.5,-1.9,54.5,15.4,25,1034.21,71.2549,19.9241,0.443411,4.31723,-3.17734,
2026_07_06_19_27_39.821,3.873,48.5,0,0.773,0,0,0,0, ,0,0,0,0,0, ,1198.9,234.8,-223.2,-5.1,65.3,28.1,25,1047.03,81.3245,9.88314,0.20311,7.7043,-1.65833,
2026_07_06_19_27_39.853,3.873,48.6,0,0.773,0,0,0,0, ,0,0,0,0,0, ,1145.7,192.9,-329.5,3.9,56.1,26.7,25,1054.66,89.4003,-7.55919,0.15417,10.9337,0.112412,
2026_07_06_19_27_39.860,3.873,48.6,0,0.773,0,0,0,0, ,0,0,0,0,0, ,1124.1,146.1,-416.6,14.8,35.9,26.1,25,1059.55,94.2814,-29.8313,0.714541,13.0706,1.71431,
2026_07_06_19_27_39.889,3.873,48.6,0,0.773,0,0,0,0, ,0,0,0,0,0, ,1098.9,91.9,-480.2,28.7,28.9,26.1,25,1062.72,95.7877,-55.3378,1.99639,14.2485,3.20031,
2026_07_06_19_27_39.899,3.873,48.5,0,0.774,0,0,0,0, ,0,0,0,0,0, ,1062.3,21.9,-452.3,39.7,22.3,25.4,25,1063.81,93.418,-80.3778,3.9588,14.9402,4.57444,
2026_07_06_19_27_39.929,3.873,48.6,0,0.773,0,0,0,0, ,0,0,0,0,0, ,992.4,-23.6,-450.6,50.4,24.7,18.7,25,1061.59,87.6735,-102.99,6.46279,15.4618,5.63935,
2026_07_06_19_27_39.940,3.873,48.6,0,0.773,0,0,0,0, ,0,0,0,0,0, ,983,-53.8,-432.9,64.1,33.5,10.5,25,1057.08,79.9726,-123.633,9.55764,16.2929,6.18539,
2026_07_06_19_27_39.969,3.873,48.5,0,0.772,0,0,0,0, ,0,0,0,0,0, ,1017.3,-137.6,-390.1,69.5,23,12.2,25,1053.61,69.2676,-141.175,13.0458,17.0215,6.50011,
2026_07_06_19_27_39.979,3.873,48.5,0,0.772,0,0,0,0, ,0,0,0,0,0, ,1069.3,-170.6,-408.9,76.7,18.7,22.4,25,1052.98,55.6561,-156.917,16.7054,17.2548,7.15823,
2026_07_06_19_27_40.008,3.873,48.6,0,0.772,0,0,0,0, ,0,0,0,0,0, ,1071.7,-169.3,-403.8,87.7,20.2,29.2,25,1054.05,41.9082,-172.117,20.6965,17.3886,8.29421,
2026_07_06_19_27_40.018,3.873,48.5,0,0.773,0,0,0,0, ,0,0,0,0,0, ,976.6,-109.1,-286.8,105.2,21.9,39.1,25,1052.23,30.872,-182.67,25.3127,17.6117,9.8698,
2026_07_06_19_27_40.048,3.873,48.5,0,0.773,0,0,0,0, ,0,0,0,0,0, ,867,-71.1,-145.8,104.3,15.3,41.7,25,1044.28,23.5002,-184.719,30.1534,17.6719,11.7302,
2026_07_06_19_27_40.058,3.873,48.5,0,0.772,0,0,0,0, ,0,0,0,0,0, ,814,-57.1,-20.7,96.3,5.7,36.9,25,1031.86,18.1621,-178.536,34.428,17.2349,13.4103,
2026_07_06_19_27_40.088,3.873,48.5,0,0.773,0,0,0,0, ,0,0,0,0,0, ,803.9,16.4,7.8,97,-3.3,31.8,25,1018.28,15.8153,-168.049,38.2196,16.2578,14.6863,
2026_07_06_19_27_40.097,3.873,48.5,0,0.773,0,0,0,0, ,0,0,0,0,0, ,849.8,137.5,60.3,124.1,-7.8,32.9,25,1006.61,19.5407,-155.734,42.6273,14.9289,15.7627,
2026_07_06_19_27_40.127,3.873,48.5,0,0.773,0,0,0,0, ,0,0,0,0,0, ,762.8,247.1,286.7,149,-24.2,34.6,25,994.408,30.0682,-135.671,48.3507,13.0441,16.8588,
2026_07_06_19_27_40.140,3.873,48.5,0,0.772,0,0,0,0, ,0,0,0,0,0, ,804.1,274.9,489.3,154.7,-59.3,23.4,25,981.553,44.1406,-103.76,54.6577,9.70511,17.5986,
2026_07_06_19_27_40.170,3.873,48.5,0,0.773,0,0,0,0, ,0,0,0,0,0, ,816.8,335.2,570,156.9,-61.8,15.1,25,971.126,60.0397,-65.1617,60.821,5.42394,17.6993,
2026_07_06_19_27_40.177,3.873,48.5,0,0.774,0,0,0,0, ,0,0,0,0,0, ,866.3,307.4,689.6,152.6,-20,18.2,25,963.23,75.9603,-22.8125,66.5448,2.60108,17.6353,
2026_07_06_19_27_40.206,3.873,48.6,0,0.773,0,0,0,0, ,0,0,0,0,0, ,873.4,351,729,122.7,8.9,47.3,25,957.54,91.3921,21.8006,70.8778,2.10437,18.5564,
2026_07_06_19_27_40.216,3.873,48.5,0,0.773,0,0,0,0, ,0,0,0,0,0, ,875.4,348.6,553.5,108.4,38.1,73.2,25,952.474,107.139,59.5483,73.6,3.40817,21.0971,
2026_07_06_19_27_40.247,3.873,48.5,0,0.773,0,0,0,0, ,0,0,0,0,0, ,653.6,503.5,511.4,128.9,55.9,71.6,25,941.019,126.572,88.3658,76.3452,6.06454,24.2233,
2026_07_06_19_27_40.256,3.873,48.5,0,0.772,0,0,0,0, ,0,0,0,0,0, ,601.1,339.5,703.4,137.3,29.1,20.2,25,921.905,144.545,119.994,79.8037,8.28483,25.5443,
2026_07_06_19_27_40.288,3.873,48.4,0,0.772,0,0,0,0, ,0,0,0,0,0, ,716,198.2,887.3,121.7,-29.6,-20.6,25,905.857,152.119,161.149,82.8321,7.76474,23.9755,
2026_07_06_19_27_40.295,3.873,48.5,0,0.773,0,0,0,0, ,0,0,0,0,0, ,921.6,-14.7,1005.3,84.5,-71,-41.9,25,900.552,148.441,208.994,84.0672,4.22642,20.6102,
2026_07_06_19_27_40.326,3.873,48.5,0,0.772,0,0,0,0, ,0,0,0,0,0, ,1162.3,-188.1,893.7,58,-58.6,-65.4,25,909.168,133.216,254.119,83.2861,0.0201213,16.0849,
2026_07_06_19_27_40.335,3.873,48.4,0,0.773,0,0,0,0, ,0,0,0,0,0, ,1290,-276.8,816,17.6,-27.8,-45.2,25,928.484,110.933,290.726,80.5143,-2.6136,11.7349,
2026_07_06_19_27_40.367,3.873,48.5,0,0.773,0,0,0,0, ,0,0,0,0,0, ,1292.1,-203.3,612.7,-6.7,-22.5,-31.4,25,950.578,89.5452,316.54,75.9401,-3.98692,8.68592,
2026_07_06_19_27_40.374,3.873,48.4,0,0.772,0,0,0,0, ,0,0,0,0,0, ,1308.9,-230.5,359.9,-11.3,-24.5,-11.3,25,971.901,70.8712,326.885,70.764,-5.17599,6.85561,
2026_07_06_19_27_40.405,3.873,48.4,0,0.773,0,0,0,0, ,0,0,0,0,0, ,1163,-97.6,250.2,-8.4,-9.9,33.8,25,987.992,56.5557,325.554,65.8516,-5.90871,7.12339,
2026_07_06_19_27_40.414,3.873,48.5,0,0.773,0,0,0,0, ,0,0,0,0,0, ,922.9,-59.4,216.5,-3.9,0.7,48.7,25,991.341,48.3258,319.936,61.464,-5.82896,9.20298,
2026_07_06_19_27_40.446,3.873,48.4,0,0.773,0,0,0,0, ,0,0,0,0,0, ,718.2,-23,157.9,-1.1,8.4,37.6,25,980.933,42.8703,311.847,57.5662,-5.19649,11.2716,
2026_07_06_19_27_40.453,3.873,48.4,0,0.773,0,0,0,0, ,0,0,0,0,0, ,684,-55.6,248.4,1.3,-4,9.3,25,963.881,37.863,305.223,54.0644,-4.74577,12.0137,
2026_07_06_19_27_40.484,3.873,48.4,0,0.773,0,0,0,0, ,0,0,0,0,0, ,792.6,-105.3,196,-5.3,-19.8,-9.7,25,950.135,30.6533,300.164,50.648,-5.18173,11.2695,
2026_07_06_19_27_40.493,3.873,48.4,0,0.773,0,0,0,0, ,0,0,0,0,0, ,887.8,-74.5,180.5,0.2,-8.7,-18.3,25,943.435,23.3071,293.344,47.4062,-5.73433,9.72961,
2026_07_06_19_27_40.525,3.873,48.4,0,0.772,0,0,0,0, ,0,0,0,0,0, ,986.4,-124.1,206.7,2.6,-1.2,-14.5,25,943.049,15.8357,287.266,44.6027,-5.68653,8.13734,
2026_07_06_19_27_40.533,3.873,48.4,0,0.773,0,0,0,0, ,0,0,0,0,0, ,975.7,-141.4,205.6,2.7,3.7,-1.9,25,945.365,6.7813,282.323,42.0462,-5.26384,7.14178,
2026_07_06_19_27_40.564,3.873,48.3,0,0.773,0,0,0,0, ,0,0,0,0,0, ,917.7,-121.5,291.5,-0.9,9,-0.3,25,945.446,-1.64217,280.265,39.5389,-4.55612,6.63955,
2026_07_06_19_27_40.573,3.873,48.4,0,0.773,0,0,0,0, ,0,0,0,0,0, ,917.8,-112.6,266.6,-6.7,5.3,-7,25,943.759,-8.67483,280.191,36.8979,-3.84278,6.01253,
2026_07_06_19_27_40.604,3.873,48.3,0,0.774,0,0,0,0, ,0,0,0,0,0, ,969.6,-124.3,239.3,-12.7,-3,-12.5,25,943.755,-15.3643,278.531,34.0583,-3.53853,5.052,
2026_07_06_19_27_40.611,3.873,48.4,0,0.773,0,0,0,0, ,0,0,0,0,0, ,1017.2,-89.5,186.1,-16.9,-10.3,-12.2,25,946.78,-20.9422,274.52,31.081,-3.72813,3.99157,
2026_07_06_19_27_40.641,3.873,48.3,0,0.772,0,0,0,0, ,0,0,0,0,0, ,1043.5,-84.3,160.7,-17.1,-11,-7.7,25,951.873,-24.9615,268.358,28.1511,-4.14994,3.142,
2026_07_06_19_27_40.651,3.873,48.3,0,0.773,0,0,0,0, ,0,0,0,0,0, ,1033.8,-72.3,147,-17.7,-9.6,-3.5,25,957.161,-28.2118,261.38,25.3753,-4.5247,2.60929,
2026_07_06_19_27_40.681,3.873,48.4,0,0.772,0,0,0,0, ,0,0,0,0,0, ,990.3,-45.7,119.1,-16,-5.2,1,25,960.506,-30.088,253.56,22.8022,-4.69992,2.37411,
2026_07_06_19_27_40.690,3.873,48.3,0,0.771,0,0,0,0, ,0,0,0,0,0, ,937.5,-14.1,71.7,-14.8,5.1,3.2,25,960.712,-30.0765,243.922,20.4743,-4.41656,2.35741,
2026_07_06_19_27_40.721,3.873,48.4,0,0.775,0,0,0,0, ,0,0,0,0,0, ,912.7,0.8,92.1,-9.5,5.8,-5.6,25,958.542,-28.649,234.049,18.4862,-3.81532,2.14063,
2026_07_06_19_27_40.736,3.873,48.4,0,0.774,0,0,0,0, ,0,0,0,0,0, ,946.6,-32.5,122.5,-8.9,-0.6,-13.8,25,956.782,-27.869,226.325,16.7991,-3.42439,1.41909,
2026_07_06_19_27_40.767,3.873,48.4,0,0.773,0,0,0,0, ,0,0,0,0,0, ,1005.4,-34.7,128.9,-9.4,-0.3,-14.4,25,957.953,-28.2183,220.193,15.2178,-3.24313,0.473396,
2026_07_06_19_27_40.772,3.873,48.3,0,0.771,0,0,0,0, ,0,0,0,0,0, ,1043,-17.9,97.7,-8.8,5.8,-7.6,25,961.99,-28.1014,213.679,13.736,-2.87793,-0.225764,
2026_07_06_19_27_40.805,3.873,48.3,0,0.772,0,0,0,0, ,0,0,0,0,0, ,1022.7,-20.6,105.2,-6.7,6.5,-2.6,25,966.308,-27.562,206.84,12.4267,-2.32779,-0.522788,
2026_07_06_19_27_40.809,3.873,48.4,0,0.773,0,0,0,0, ,0,0,0,0,0, ,1015.5,-24.1,118.7,-5.7,0,-3.9,25,969.525,-27.2444,201.058,11.2916,-1.98789,-0.688978,
2026_07_06_19_27_40.839,3.873,48.4,0,0.773,0,0,0,0, ,0,0,0,0,0, ,1027.2,-38.3,144.5,-5.6,2.9,-2.6,25,972.683,-27.4854,196.825,10.2592,-1.7784,-0.84504,
2026_07_06_19_27_40.849,3.873,48.3,0,0.773,0,0,0,0, ,0,0,0,0,0, ,979.7,-3.9,117.3,-6.9,7.4,2.4,25,974.558,-27.0963,192.808,9.25319,-1.3562,-0.799639,
2026_07_06_19_27_40.880,3.873,48.4,0,0.773,0,0,0,0, ,0,0,0,0,0, ,963.8,-2.5,118.6,-2.1,8.6,-0.8,25,974.387,-25.6401,188.246,8.41511,-0.786054,-0.702161,
2026_07_06_19_27_40.888,3.873,48.4,0,0.771,0,0,0,0, ,0,0,0,0,0, ,980.8,-22.8,117.4,-2.2,-1.3,-1.2,25,974.26,-24.8486,183.966,7.77129,-0.515732,-0.720311,
2026_07_06_19_27_40.920,3.873,48.3,0,0.771,0,0,0,0, ,0,0,0,0,0, ,986,-26.1,96.5,-0.7,2.3,-0.5,25,974.817,-24.8243,179.273,7.20937,-0.453835,-0.728214,
2026_07_06_19_27_40.928,3.873,48.3,0,0.773,0,0,0,0, ,0,0,0,0,0, ,948.6,12.9,108.5,3.1,9.3,-2.3,25,974.358,-23.7137,174.594,6.84318,-0.0727424,-0.769151,
2026_07_06_19_27_40.961,3.873,48.2,0,0.773,0,0,0,0, ,0,0,0,0,0, ,955.4,-14.7,135.2,4.7,0.7,-9.3,25,972.996,-22.3235,171.38,6.66383,0.236378,-1.07572,
2026_07_06_19_27_40.968,3.873,48.3,0,0.773,0,0,0,0, ,0,0,0,0,0, ,992.9,-44.3,178.8,2.5,-6.5,-11.6,25,973.066,-22.7608,170.504,6.47712,0.0452548,-1.64696,
2026_07_06_19_27_40.999,3.873,48.3,0,0.773,0,0,0,0, ,0,0,0,0,0, ,1036.9,-40.7,180.9,0.9,0.3,-5.8,25,975.616,-23.9637,171.073,6.18602,-0.146409,-2.07676,
2026_07_06_19_27_41.008,3.873,48.3,0,0.773,0,0,0,0, ,0,0,0,0,0, ,992.6,-5.8,162.9,2.2,7.5,-2.1,25,978,-23.9202,171.124,5.90351,0.100169,-2.19091,
2026_07_06_19_27_41.039,3.873,48.4,0,0.773,0,0,0,0, ,0,0,0,0,0, ,993.8,-38.8,165.4,3.3,0.1,-5.2,25,978.927,-23.8215,170.699,5.71134,0.325627,-2.27982,
2026_07_06_19_27_41.048,3.873,48.3,0,0.771,0,0,0,0, ,0,0,0,0,0, ,993.7,-45.5,183.8,-1.1,-3.8,-2.4,25,979.83,-24.9384,170.937,5.43034,0.19305,-2.37246,
2026_07_06_19_27_41.078,3.873,48.2,0,0.771,0,0,0,0, ,0,0,0,0,0, ,995.4,-28.1,163.2,-1.6,-0.7,-0.6,25,980.727,-25.6612,171.093,5.01716,0.0441767,-2.31929,
2026_07_06_19_27_41.087,3.873,48.3,0,0.773,0,0,0,0, ,0,0,0,0,0, ,1008.4,-31.3,141.4,0.5,-0.5,1.4,25,982.017,-25.9073,169.948,4.67791,0.00492218,-2.15359,
2026_07_06_19_27_41.118,3.873,48.2,0,0.773,0,0,0,0, ,0,0,0,0,0, ,994.1,-46.1,161.4,0,-1.6,3.4,25,983.189,-26.6868,168.817,4.40809,-0.0593621,-1.8761,
2026_07_06_19_27_41.127,3.873,48.3,0,0.773,0,0,0,0, ,0,0,0,0,0, ,961.6,-39.1,182.3,-1.6,-0.6,3.9,25,982.864,-27.6566,169.002,4.09072,-0.122776,-1.53935,
2026_07_06_19_27_41.159,3.873,48.2,0,0.772,0,0,0,0, ,0,0,0,0,0, ,953.8,-26.8,163.5,-1.1,2.1,0.5,25,981.33,-27.9791,169.24,3.75918,-0.0695912,-1.31149,
2026_07_06_19_27_41.166,3.873,48.3,0,0.772,0,0,0,0, ,0,0,0,0,0, ,978.5,-38.8,147.3,-1.2,-2,-1.6,25,980.405,-28.2729,168.396,3.46002,-0.0623036,-1.26508,
2026_07_06_19_27_41.197,3.873,48.2,0,0.772,0,0,0,0, ,0,0,0,0,0, ,987.5,-42.2,156,-1.8,-7,-0.6,25,980.563,-29.018,167.376,3.15777,-0.332726,-1.25502,
2026_07_06_19_27_41.205,3.873,48.3,0,0.772,0,0,0,0, ,0,0,0,0,0, ,1000.9,-45,164.3,-0.5,-1.9,1.5,25,981.394,-29.9066,166.935,2.89527,-0.583622,-1.15112,
2026_07_06_19_27_41.236,3.873,48.3,0,0.772,0,0,0,0, ,0,0,0,0,0, ,952,-30.8,161.3,-1.4,3.7,3.7,25,981.093,-30.3937,166.683,2.66095,-0.493214,-0.922541,
2026_07_06_19_27_41.245,3.873,48.2,0,0.774,0,0,0,0, ,0,0,0,0,0, ,939.8,-37.1,177.1,-1.2,-3.5,-4.1,25,978.949,-30.6104,166.837,2.41958,-0.457065,-0.878511,
2026_07_06_19_27_41.278,3.873,48.2,0,0.773,0,0,0,0, ,0,0,0,0,0, ,1008.4,-56.6,159,-3.6,-10.8,-5.3,25,978.653,-31.6,166.911,2.12588,-0.864916,-1.11138,
2026_07_06_19_27_41.284,3.873,48.2,0,0.773,0,0,0,0, ,0,0,0,0,0, ,1028.8,-41,152.7,-3.1,-4,1.7,25,981.087,-32.6481,166.237,1.7922,-1.26315,-1.15335,
2026_07_06_19_27_41.318,3.873,48.2,0,0.773,0,0,0,0, ,0,0,0,0,0, ,991.2,-38.4,141.2,-1.9,2.5,7.4,25,982.849,-33.0778,165.061,1.53064,-1.23188,-0.805798,
