UTC_Time,Vin,TC1,TC2,Rh1,Vh1,Ah1,Acp1,Dty1,Err1,Rh2,Vh2,Ah2,Acp2,Dty2,Err2,Accel_x,Accel_y,Accel_z,gyro_x,gyro_y,gyro_z,Temp_c,Accel_x_h,Accel_y_h,Accel_z_h,gyro_x_h,gyro_y_h,gyro_z_h,
2026_07_06_15_59_21.818,3.861,30.9,0,0.759,0,0,0,0, ,0,0,0,0,0, ,-38.2,157.1,987.5,-0.5,-0.5,-1.8,25,-38.2,157.1,987.5,-0.5,-0.5,-1.8,
2026_07_06_15_59_21.838,3.861,30.9,0,0.758,0,0,0,0, ,0,0,0,0,0, ,-38.3,156.6,986.8,-0.5,-0.5,-1.8,25,-38.203,157.085,987.479,-0.5,-0.5,-1.8,
2026_07_06_15_59_21.858,3.861,30.8,0,0.759,0,0,0,0, ,0,0,0,0,0, ,-37.2,155.6,988.7,-0.5,-0.5,-1.8,25,-38.1754,157.025,987.495,-0.5,-0.5,-1.8,
2026_07_06_15_59_21.878,3.861,30.8,0,0.759,0,0,0,0, ,0,0,0,0,0, ,-38.2,157.2,987.7,-0.6,-0.5,-1.8,25,-38.1465,156.987,987.538,-0.503047,-0.5,-1.8,
2026_07_06_15_59_21.898,3.861,30.7,0,0.758,0,0,0,0, ,0,0,0,0,0, ,-36.7,157.4,988.5,-0.5,-0.4,-1.9,25,-38.104,157.006,987.572,-0.505908,-0.496953,-1.80305,
2026_07_06_15_59_21.918,3.861,30.8,0,0.757,0,0,0,0, ,0,0,0,0,0, ,-36.9,156.6,987.4,-0.5,-0.5,-1.8,25,-38.0246,157.005,987.595,-0.505548,-0.494092,-1.80591,
2026_07_06_15_59_21.938,3.861,30.8,0,0.759,0,0,0,0, ,0,0,0,0,0, ,-38.4,156.4,988.7,-0.6,-0.5,-1.9,25,-38.0017,156.975,987.623,-0.508257,-0.494452,-1.80859,
2026_07_06_15_59_21.958,3.861,30.8,0,0.759,0,0,0,0, ,0,0,0,0,0, ,-37.2,157.9,987.4,-0.5,-0.5,-1.8,25,-37.9894,156.985,987.649,-0.510801,-0.49479,-1.81112,
2026_07_06_15_59_21.979,3.861,30.8,0,0.759,0,0,0,0, ,0,0,0,0,0, ,-37.8,156.4,987.5,-0.5,-0.5,-1.9,25,-37.9596,156.995,987.637,-0.510142,-0.495108,-1.81349,
2026_07_06_15_59_21.996,3.861,30.7,0,0.759,0,0,0,0, ,0,0,0,0,0, ,-38.4,158,988.4,-0.6,-0.5,-1.8,25,-37.9682,157.008,987.656,-0.512571,-0.495406,-1.81571,
2026_07_06_15_59_22.017,3.861,30.7,0,0.757,0,0,0,0, ,0,0,0,0,0, ,-38,156.6,988.1,-0.5,-0.5,-1.9,25,-37.9823,157.026,987.692,-0.514852,-0.495686,-1.8178,
2026_07_06_15_59_22.037,3.861,30.7,0,0.758,0,0,0,0, ,0,0,0,0,0, ,-39.1,156.9,988.8,-0.5,-0.5,-1.8,25,-38.0169,157.009,987.738,-0.513947,-0.495949,-1.81976,
2026_07_06_15_59_22.056,3.861,30.7,0,0.759,0,0,0,0, ,0,0,0,0,0, ,-37.2,156.4,988.1,-0.6,-0.5,-1.9,25,-38.025,156.987,987.782,-0.516144,-0.496195,-1.82161,
2026_07_06_15_59_22.076,3.861,30.8,0,0.758,0,0,0,0, ,0,0,0,0,0, ,-38.5,156.9,986.5,-0.6,-0.5,-1.9,25,-38.0143,156.966,987.752,-0.521254,-0.496427,-1.82638,
2026_07_06_15_59_22.096,3.861,30.7,0,0.759,0,0,0,0, ,0,0,0,0,0, ,-36.8,156.6,988.7,-0.5,-0.5,-1.8,25,-37.9921,156.953,987.743,-0.523006,-0.496645,-1.82782,
2026_07_06_15_59_22.116,3.861,30.8,0,0.759,0,0,0,0, ,0,0,0,0,0, ,-38.8,157.3,988,-0.6,-0.5,-1.8,25,-37.9804,156.953,987.78,-0.524651,-0.496849,-1.82613,
2026_07_06_15_59_22.135,3.861,30.8,0,0.759,0,0,0,0, ,0,0,0,0,0, ,-36.7,157.2,987.9,-0.5,-0.5,-1.7,25,-37.9664,156.971,987.79,-0.526195,-0.497041,-1.82149,
2026_07_06_15_59_22.155,3.861,30.8,0,0.76,0,0,0,0, ,0,0,0,0,0, ,-37.7,157.2,988.8,-0.6,-0.5,-1.8,25,-37.9197,156.985,987.825,-0.527646,-0.497222,-1.81713,
2026_07_06_15_59_22.175,3.861,30.8,0,0.758,0,0,0,0, ,0,0,0,0,0, ,-38.2,156.7,987.5,-0.5,-0.5,-1.8,25,-37.9215,156.983,987.844,-0.529008,-0.497391,-1.81609,
2026_07_06_15_59_22.195,3.861,30.8,0,0.758,0,0,0,0, ,0,0,0,0,0, ,-36.7,158.5,986.6,-0.5,-0.5,-1.8,25,-37.8928,157.021,987.796,-0.52724,-0.49755,-1.81511,
2026_07_06_15_59_22.214,3.861,30.8,0,0.759,0,0,0,0, ,0,0,0,0,0, ,-37.8,157.2,987.7,-0.6,-0.5,-1.9,25,-37.8536,157.071,987.757,-0.528627,-0.497699,-1.81723,
2026_07_06_15_59_22.234,3.861,30.8,0,0.759,0,0,0,0, ,0,0,0,0,0, ,-38,157.7,986.8,-0.6,-0.5,-1.8,25,-37.8565,157.094,987.726,-0.532977,-0.497839,-1.81923,
2026_07_06_15_59_22.256,3.861,30.8,0,0.759,0,0,0,0, ,0,0,0,0,0, ,-37.8,157.8,988.2,-0.6,-0.5,-1.8,25,-37.8591,157.134,987.712,-0.537061,-0.497971,-1.81806,
2026_07_06_15_59_22.273,3.861,30.8,0,0.76,0,0,0,0, ,0,0,0,0,0, ,-37.2,158.6,988.1,-0.5,-0.5,-1.9,25,-37.8372,157.199,987.739,-0.537849,-0.498095,-1.82001,
2026_07_06_15_59_22.293,3.861,30.7,0,0.758,0,0,0,0, ,0,0,0,0,0, ,-37.8,156.8,986.4,-0.6,-0.5,-1.8,25,-37.8167,157.23,987.709,-0.53859,-0.498211,-1.82183,
2026_07_06_15_59_22.314,3.861,30.8,0,0.759,0,0,0,0, ,0,0,0,0,0, ,-35.8,157.2,988.5,-0.6,-0.5,-1.8,25,-37.7547,157.216,987.693,-0.542332,-0.49832,-1.8205,
2026_07_06_15_59_22.334,3.861,30.7,0,0.759,0,0,0,0, ,0,0,0,0,0, ,-37.2,157.3,986.9,-0.5,-0.5,-1.8,25,-37.6783,157.218,987.694,-0.542799,-0.498422,-1.81925,
2026_07_06_15_59_22.353,3.861,30.8,0,0.759,0,0,0,0, ,0,0,0,0,0, ,-37.1,156,987.6,-0.4,-0.5,-1.8,25,-37.6461,157.183,987.667,-0.537144,-0.498518,-1.81808,
2026_07_06_15_59_22.373,3.861,30.8,0,0.759,0,0,0,0, ,0,0,0,0,0, ,-37.1,158,987.9,-0.4,-0.5,-1.8,25,-37.6128,157.172,987.672,-0.528787,-0.498609,-1.81698,
2026_07_06_15_59_22.396,3.861,30.7,0,0.759,0,0,0,0, ,0,0,0,0,0, ,-36.8,155.2,988.4,-0.5,-0.5,-1.8,25,-37.5724,157.137,987.701,-0.523986,-0.498693,-1.81594,
2026_07_06_15_59_22.412,3.861,30.8,0,0.758,0,0,0,0, ,0,0,0,0,0, ,-37.5,156.8,986.8,-0.5,-0.5,-1.8,25,-37.5467,157.068,987.695,-0.522524,-0.498773,-1.81497,
2026_07_06_15_59_22.432,3.861,30.8,0,0.759,0,0,0,0, ,0,0,0,0,0, ,-37.3,156.1,988.6,-0.5,-0.5,-1.8,25,-37.5377,157.03,987.695,-0.521152,-0.498848,-1.81406,
2026_07_06_15_59_22.452,3.861,30.7,0,0.759,0,0,0,0, ,0,0,0,0,0, ,-36.8,156.9,988.8,-0.5,-0.4,-1.8,25,-37.508,156.998,987.756,-0.519863,-0.495871,-1.8132,
2026_07_06_15_59_22.471,3.861,30.7,0,0.758,0,0,0,0, ,0,0,0,0,0, ,-36.9,158.2,987,-0.5,-0.5,-1.8,25,-37.4679,157.032,987.765,-0.518652,-0.493076,-1.8124,
2026_07_06_15_59_22.491,3.861,30.7,0,0.759,0,0,0,0, ,0,0,0,0,0, ,-37.5,157.3,988.4,-0.5,-0.5,-1.9,25,-37.4516,157.075,987.761,-0.517516,-0.493498,-1.81469,
2026_07_06_15_59_22.512,3.861,30.8,0,0.759,0,0,0,0, ,0,0,0,0,0, ,-36.8,156.7,987.4,-0.5,-0.5,-1.8,25,-37.4332,157.071,987.769,-0.516448,-0.493894,-1.81684,
2026_07_06_15_59_22.535,3.861,30.7,0,0.759,0,0,0,0, ,0,0,0,0,0, ,-37.8,156.9,986.5,-0.5,-0.5,-1.9,25,-37.4251,157.054,987.72,-0.515446,-0.494266,-1.81886,
2026_07_06_15_59_22.551,3.861,30.8,0,0.759,0,0,0,0, ,0,0,0,0,0, ,-37.8,157.2,988.4,-0.6,-0.4,-1.8,25,-37.4479,157.054,987.703,-0.517552,-0.491569,-1.82076,
2026_07_06_15_59_22.571,3.861,30.8,0,0.759,0,0,0,0, ,0,0,0,0,0, ,-37.5,157.5,987.1,-0.5,-0.4,-1.8,25,-37.4602,157.072,987.706,-0.519529,-0.485989,-1.81949,
2026_07_06_15_59_22.591,3.861,30.7,0,0.758,0,0,0,0, ,0,0,0,0,0, ,-37.5,158.3,988.8,-0.6,-0.5,-1.8,25,-37.4627,157.122,987.721,-0.521386,-0.483796,-1.81831,
2026_07_06_15_59_22.611,3.861,30.8,0,0.76,0,0,0,0, ,0,0,0,0,0, ,-39.1,157.1,987.3,-0.6,-0.5,-1.9,25,-37.5137,157.158,987.741,-0.526176,-0.484783,-1.82024,
2026_07_06_15_59_22.630,3.861,30.7,0,0.759,0,0,0,0, ,0,0,0,0,0, ,-37.5,156.2,988.6,-0.6,-0.5,-1.9,25,-37.5616,157.127,987.754,-0.530675,-0.48571,-1.8251,
2026_07_06_15_59_22.649,3.861,30.8,0,0.759,0,0,0,0, ,0,0,0,0,0, ,-38.2,157.1,987.5,-0.5,-0.5,-1.8,25,-37.5792,157.098,987.772,-0.531853,-0.486581,-1.82662,
2026_07_06_15_59_22.669,3.861,30.8,0,0.759,0,0,0,0, ,0,0,0,0,0, ,-37.8,156.4,988.6,-0.6,-0.5,-1.8,25,-37.6048,157.076,987.789,-0.532959,-0.487399,-1.82499,
2026_07_06_15_59_22.692,3.861,30.8,0,0.759,0,0,0,0, ,0,0,0,0,0, ,-37.2,156.9,987.9,-0.6,-0.5,-1.8,25,-37.5984,157.05,987.817,-0.537044,-0.488167,-1.82347,
2026_07_06_15_59_22.709,3.861,30.8,0,0.76,0,0,0,0, ,0,0,0,0,0, ,-37.3,157.4,986.6,-0.5,-0.5,-1.9,25,-37.5772,157.057,987.782,-0.537833,-0.488888,-1.82509,
2026_07_06_15_59_22.729,3.861,30.8,0,0.76,0,0,0,0, ,0,0,0,0,0, ,-37.5,157.2,988,-0.5,-0.5,-1.8,25,-37.5664,157.071,987.753,-0.535528,-0.489565,-1.82661,
2026_07_06_15_59_22.749,3.861,30.8,0,0.757,0,0,0,0, ,0,0,0,0,0, ,-37.9,156.8,987.1,-0.5,-0.5,-1.9,25,-37.5745,157.067,987.74,-0.533363,-0.490201,-1.82803,
2026_07_06_15_59_22.769,3.861,30.8,0,0.757,0,0,0,0, ,0,0,0,0,0, ,-37.5,156.8,988.2,-0.5,-0.5,-1.8,25,-37.5822,157.051,987.735,-0.53133,-0.490798,-1.82937,
2026_07_06_15_59_22.788,3.861,30.8,0,0.758,0,0,0,0, ,0,0,0,0,0, ,-38.2,157.2,985.8,-0.5,-0.5,-1.8,25,-37.5985,157.048,987.69,-0.529421,-0.491359,-1.82758,
2026_07_06_15_59_22.808,3.861,30.8,0,0.759,0,0,0,0, ,0,0,0,0,0, ,-37.3,157.1,988.2,-0.5,-0.5,-1.8,25,-37.6077,157.054,987.648,-0.527628,-0.491885,-1.8259,
2026_07_06_15_59_22.827,3.861,30.8,0,0.759,0,0,0,0, ,0,0,0,0,0, ,-37.7,157.2,987.6,-0.6,-0.5,-1.8,25,-37.6012,157.06,987.663,-0.528991,-0.49238,-1.82432,
2026_07_06_15_59_22.848,3.861,30.8,0,0.759,0,0,0,0, ,0,0,0,0,0, ,-36.9,157.7,988.7,-0.4,-0.5,-1.8,25,-37.5828,157.084,987.693,-0.527225,-0.492844,-1.82284,
2026_07_06_15_59_22.867,3.861,30.7,0,0.759,0,0,0,0, ,0,0,0,0,0, ,-35.6,158.2,987.9,-0.6,-0.5,-1.9,25,-37.5016,157.136,987.73,-0.525566,-0.49328,-1.82449,
2026_07_06_15_59_22.886,3.861,30.8,0,0.758,0,0,0,0, ,0,0,0,0,0, ,-37.8,156.4,987.3,-0.5,-0.5,-1.8,25,-37.4528,157.146,987.722,-0.527055,-0.49369,-1.82605,
2026_07_06_15_59_22.907,3.861,30.8,0,0.759,0,0,0,0, ,0,0,0,0,0, ,-37.7,158.6,987.6,-0.5,-0.5,-1.8,25,-37.4709,157.168,987.706,-0.525406,-0.494074,-1.82446,
2026_07_06_15_59_22.927,3.861,30.8,0,0.76,0,0,0,0, ,0,0,0,0,0, ,-36.8,157.2,988,-0.5,-0.5,-1.8,25,-37.4574,157.212,987.711,-0.523858,-0.494435,-1.82297,
2026_07_06_15_59_22.947,3.861,30.8,0,0.76,0,0,0,0, ,0,0,0,0,0, ,-36.7,155.7,987.5,-0.6,-0.4,-1.7,25,-37.4143,157.166,987.714,-0.525451,-0.491728,-1.81852,
2026_07_06_15_59_22.967,3.861,30.8,0,0.76,0,0,0,0, ,0,0,0,0,0, ,-37.7,157.5,988,-0.6,-0.5,-1.9,25,-37.4012,157.132,987.716,-0.529994,-0.489185,-1.8174,
2026_07_06_15_59_22.986,3.861,30.8,0,0.76,0,0,0,0, ,0,0,0,0,0, ,-36.8,157.3,987.7,-0.6,-0.5,-1.8,25,-37.392,157.148,987.724,-0.53426,-0.489844,-1.81938,
2026_07_06_15_59_23.006,3.861,30.8,0,0.758,0,0,0,0, ,0,0,0,0,0, ,-38.3,158,988.1,-0.6,-0.5,-1.8,25,-37.4017,157.178,987.735,-0.538266,-0.490463,-1.8182,
2026_07_06_15_59_23.028,3.861,30.8,0,0.758,0,0,0,0, ,0,0,0,0,0, ,-37.4,157.2,986.9,-0.6,-0.5,-1.8,25,-37.429,157.204,987.72,-0.542028,-0.491044,-1.81709,
2026_07_06_15_59_23.045,3.861,30.8,0,0.759,0,0,0,0, ,0,0,0,0,0, ,-38.8,157.9,987.7,-0.6,-0.5,-1.8,25,-37.4699,157.225,987.695,-0.54556,-0.49159,-1.81605,
2026_07_06_15_59_23.065,3.861,30.8,0,0.759,0,0,0,0, ,0,0,0,0,0, ,-37.1,157.5,987.7,-0.6,-0.5,-1.8,25,-37.4991,157.254,987.695,-0.548878,-0.492102,-1.81507,
2026_07_06_15_59_23.085,3.861,30.8,0,0.758,0,0,0,0, ,0,0,0,0,0, ,-38.4,158.6,985.4,-0.6,-0.5,-1.8,25,-37.5144,157.303,987.625,-0.551993,-0.492583,-1.81415,
2026_07_06_15_59_23.106,3.861,30.9,0,0.758,0,0,0,0, ,0,0,0,0,0, ,-37.4,158.5,988,-0.7,-0.5,-1.9,25,-37.5379,157.379,987.569,-0.557965,-0.493035,-1.81634,
2026_07_06_15_59_23.124,3.861,30.8,0,0.758,0,0,0,0, ,0,0,0,0,0, ,-37.3,158,987.3,-0.6,-0.5,-1.8,25,-37.5265,157.432,987.574,-0.563574,-0.49346,-1.81839,
2026_07_06_15_59_23.144,3.861,30.9,0,0.759,0,0,0,0, ,0,0,0,0,0, ,-36.6,158,988.4,-0.6,-0.5,-1.8,25,-37.4913,157.466,987.591,-0.565793,-0.493858,-1.81727,
2026_07_06_15_59_23.164,3.861,30.8,0,0.759,0,0,0,0, ,0,0,0,0,0, ,-37.5,156.1,987,-0.6,-0.4,-1.8,25,-37.4644,157.441,987.597,-0.567878,-0.491186,-1.81622,
2026_07_06_15_59_23.184,3.861,30.9,0,0.757,0,0,0,0, ,0,0,0,0,0, ,-37.5,158,986.8,-0.6,-0.5,-1.9,25,-37.4666,157.417,987.555,-0.569835,-0.488676,-1.81828,
2026_07_06_15_59_23.209,3.861,30.8,0,0.759,0,0,0,0, ,0,0,0,0,0, ,-38.4,157.7,987.1,-0.6,-0.5,-1.8,25,-37.4961,157.444,987.518,-0.571673,-0.489366,-1.82021,
2026_07_06_15_59_23.223,3.861,30.8,0,0.76,0,0,0,0, ,0,0,0,0,0, ,-37.4,157.9,987.7,-0.6,-0.5,-1.8,25,-37.5207,157.465,987.511,-0.5734,-0.490014,-1.81898,
2026_07_06_15_59_23.244,3.861,30.8,0,0.759,0,0,0,0, ,0,0,0,0,0, ,-36.3,157.4,987.5,-0.5,-0.5,-1.8,25,-37.4798,157.477,987.516,-0.571974,-0.490623,-1.81782,
2026_07_06_15_59_23.263,3.861,30.8,0,0.759,0,0,0,0, ,0,0,0,0,0, ,-37.9,157.2,986.8,-0.6,-0.5,-1.8,25,-37.4567,157.466,987.494,-0.570635,-0.491194,-1.81673,
2026_07_06_15_59_23.283,3.861,30.8,0,0.759,0,0,0,0, ,0,0,0,0,0, ,-38.2,157.3,986.6,-0.5,-0.4,-1.8,25,-37.4928,157.453,987.446,-0.569377,-0.488684,-1.81571,
2026_07_06_15_59_23.302,3.861,30.8,0,0.759,0,0,0,0, ,0,0,0,0,0, ,-37.1,156.9,987.5,-0.6,-0.5,-1.8,25,-37.5024,157.431,987.421,-0.568196,-0.486326,-1.81476,
2026_07_06_15_59_23.322,3.861,30.8,0,0.759,0,0,0,0, ,0,0,0,0,0, ,-37.8,157.2,987.6,-0.5,-0.5,-1.9,25,-37.4992,157.408,987.429,-0.567088,-0.48716,-1.8169,
2026_07_06_15_59_23.342,3.861,30.8,0,0.759,0,0,0,0, ,0,0,0,0,0, ,-36.8,156.9,987.5,-0.6,-0.4,-1.9,25,-37.4871,157.386,987.437,-0.566046,-0.484895,-1.82197,
2026_07_06_15_59_23.362,3.861,30.9,0,0.759,0,0,0,0, ,0,0,0,0,0, ,-37.5,156.9,987,-0.5,-0.5,-1.8,25,-37.4665,157.356,987.425,-0.565069,-0.482769,-1.82368,
2026_07_06_15_59_23.383,3.861,30.8,0,0.76,0,0,0,0, ,0,0,0,0,0, ,-38.3,156.2,987.6,-0.5,-0.4,-1.8,25,-37.4929,157.307,987.418,-0.561103,-0.480772,-1.82223,
2026_07_06_15_59_23.401,3.861,30.8,0,0.758,0,0,0,0, ,0,0,0,0,0, ,-37.1,155.7,988.2,-0.6,-0.4,-1.8,25,-37.5056,157.225,987.447,-0.560427,-0.47585,-1.82088,
2026_07_06_15_59_23.420,3.861,30.8,0,0.758,0,0,0,0, ,0,0,0,0,0, ,-36.9,157.7,987,-0.5,-0.4,-1.8,25,-37.4748,157.193,987.456,-0.559791,-0.471228,-1.81961,
2026_07_06_15_59_23.440,3.861,30.8,0,0.758,0,0,0,0, ,0,0,0,0,0, ,-37.3,156.3,988.1,-0.6,-0.5,-1.9,25,-37.4519,157.181,987.462,-0.559195,-0.469934,-1.82146,
2026_07_06_15_59_23.461,3.861,30.8,0,0.76,0,0,0,0, ,0,0,0,0,0, ,-37.3,156.3,987.6,-0.5,-0.4,-1.8,25,-37.4427,157.127,987.486,-0.558634,-0.46872,-1.8232,
2026_07_06_15_59_23.482,3.861,30.8,0,0.759,0,0,0,0, ,0,0,0,0,0, ,-37.7,155.7,986.8,-0.5,-0.5,-1.8,25,-37.4462,157.059,987.468,-0.555061,-0.467579,-1.82178,
2026_07_06_15_59_23.499,3.861,30.8,0,0.759,0,0,0,0, ,0,0,0,0,0, ,-35.8,159.3,986.8,-0.6,-0.4,-1.8,25,-37.4037,157.085,987.428,-0.554753,-0.466508,-1.82046,
2026_07_06_15_59_23.520,3.861,30.8,0,0.759,0,0,0,0, ,0,0,0,0,0, ,-39.9,153.9,986.2,-0.7,-0.5,-1.8,25,-37.4309,157.056,987.371,-0.560557,-0.465502,-1.81921,
2026_07_06_15_59_23.540,3.861,30.8,0,0.759,0,0,0,0, ,0,0,0,0,0, ,-34.6,156.8,987.6,-0.6,-0.4,-1.9,25,-37.4199,156.952,987.342,-0.566008,-0.464557,-1.82109,
2026_07_06_15_59_23.560,3.861,30.9,0,0.759,0,0,0,0, ,0,0,0,0,0, ,-37.5,154.7,986.9,-0.7,-0.5,-1.8,25,-37.3364,156.879,987.337,-0.571126,-0.46367,-1.82285,
2026_07_06_15_59_23.579,3.861,30.8,0,0.759,0,0,0,0, ,0,0,0,0,0, ,-36.7,156.9,987.9,-0.6,-0.5,-1.9,25,-37.322,156.813,987.341,-0.575932,-0.465884,-1.8245,
2026_07_06_15_59_23.599,3.861,30.8,0,0.759,0,0,0,0, ,0,0,0,0,0, ,-38.6,156.8,987.1,-0.7,-0.5,-1.8,25,-37.342,156.815,987.35,-0.580446,-0.467963,-1.82606,
2026_07_06_15_59_23.619,3.861,30.8,0,0.758,0,0,0,0, ,0,0,0,0,0, ,-35.6,157.5,987.6,-0.6,-0.5,-1.9,25,-37.3273,156.836,987.35,-0.584684,-0.469915,-1.82752,
2026_07_06_15_59_23.639,3.861,30.8,0,0.759,0,0,0,0, ,0,0,0,0,0, ,-39.7,156.3,987.3,-0.6,-0.5,-1.8,25,-37.3469,156.84,987.356,-0.585617,-0.471748,-1.82889,
2026_07_06_15_59_23.658,3.861,30.9,0,0.759,0,0,0,0, ,0,0,0,0,0, ,-38.2,157.2,988,-0.5,-0.4,-1.8,25,-37.4446,156.834,987.374,-0.583447,-0.470423,-1.82713,
2026_07_06_15_59_23.678,3.861,30.8,0,0.76,0,0,0,0, ,0,0,0,0,0, ,-36.8,156.8,988.6,-0.7,-0.5,-1.8,25,-37.448,156.844,987.431,-0.584456,-0.469179,-1.82547,
2026_07_06_15_59_23.699,3.861,30.8,0,0.759,0,0,0,0, ,0,0,0,0,0, ,-37.8,156.7,986.9,-0.5,-0.4,-1.8,25,-37.439,156.838,987.45,-0.585403,-0.46801,-1.82392,
2026_07_06_15_59_23.718,3.861,30.8,0,0.759,0,0,0,0, ,0,0,0,0,0, ,-37.7,158,986.2,-0.7,-0.5,-1.9,25,-37.4579,156.87,987.395,-0.586292,-0.466912,-1.82551,
2026_07_06_15_59_23.742,3.861,30.8,0,0.76,0,0,0,0, ,0,0,0,0,0, ,-37.5,156.8,987,-0.5,-0.4,-1.9,25,-37.4666,156.902,987.347,-0.587128,-0.465882,-1.83005,
2026_07_06_15_59_23.757,3.861,30.8,0,0.76,0,0,0,0, ,0,0,0,0,0, ,-36.9,157.4,986.2,-0.6,-0.5,-1.8,25,-37.4503,156.914,987.301,-0.584865,-0.464914,-1.83126,
2026_07_06_15_59_23.777,3.861,30.8,0,0.759,0,0,0,0, ,0,0,0,0,0, ,-38.4,155.8,987.9,-0.6,-0.5,-1.8,25,-37.4625,156.895,987.286,-0.585788,-0.467052,-1.82936,
2026_07_06_15_59_23.797,3.861,30.8,0,0.759,0,0,0,0, ,0,0,0,0,0, ,-36.4,156.3,987.1,-0.6,-0.5,-1.8,25,-37.4587,156.843,987.299,-0.586654,-0.46906,-1.82757,
2026_07_06_15_59_23.817,3.861,30.9,0,0.758,0,0,0,0, ,0,0,0,0,0, ,-36.4,156.9,987.5,-0.6,-0.5,-1.8,25,-37.3942,156.829,987.299,-0.587467,-0.470945,-1.82589,
2026_07_06_15_59_23.838,3.861,30.9,0,0.759,0,0,0,0, ,0,0,0,0,0, ,-37.9,156.3,987.1,-0.6,-0.4,-1.8,25,-37.3793,156.815,987.299,-0.588231,-0.469669,-1.82431,
2026_07_06_15_59_23.857,3.861,30.8,0,0.759,0,0,0,0, ,0,0,0,0,0, ,-39.1,157.4,986.8,-0.5,-0.5,-1.8,25,-37.4476,156.817,987.278,-0.585901,-0.46847,-1.82283,
2026_07_06_15_59_23.876,3.861,30.9,0,0.759,0,0,0,0, ,0,0,0,0,0, ,-37.8,157.3,988,-0.5,-0.5,-1.8,25,-37.5087,156.849,987.285,-0.580666,-0.470392,-1.82144,
2026_07_06_15_59_23.895,3.861,30.9,0,0.76,0,0,0,0, ,0,0,0,0,0, ,-36.8,156.2,987.7,-0.6,-0.5,-1.9,25,-37.496,156.843,987.32,-0.578798,-0.472196,-1.82318,
2026_07_06_15_59_23.916,3.861,30.8,0,0.76,0,0,0,0, ,0,0,0,0,0, ,-37.7,155.8,986.8,-0.5,-0.4,-1.8,25,-37.481,156.792,987.315,-0.577043,-0.470843,-1.82481,
2026_07_06_15_59_23.936,3.861,30.9,0,0.76,0,0,0,0, ,0,0,0,0,0, ,-36.2,156.4,987,-0.5,-0.5,-1.8,25,-37.4486,156.75,987.29,-0.572348,-0.469573,-1.8233,
2026_07_06_15_59_23.956,3.861,30.8,0,0.758,0,0,0,0, ,0,0,0,0,0, ,-37.5,156.6,988.5,-0.5,-0.5,-1.9,25,-37.4121,156.734,987.318,-0.567939,-0.471427,-1.82493,
2026_07_06_15_59_23.975,3.861,30.8,0,0.758,0,0,0,0, ,0,0,0,0,0, ,-38.6,157.5,988,-0.5,-0.5,-1.8,25,-37.451,156.754,987.375,-0.563799,-0.473168,-1.82646,
2026_07_06_15_59_23.995,3.861,30.9,0,0.758,0,0,0,0, ,0,0,0,0,0, ,-38.3,156.6,988.7,-0.6,-0.4,-1.8,25,-37.5119,156.772,987.434,-0.562958,-0.471757,-1.82484,
2026_07_06_15_59_24.015,3.861,30.8,0,0.758,0,0,0,0, ,0,0,0,0,0, ,-38.9,156.6,987.1,-0.6,-0.4,-1.8,25,-37.5782,156.761,987.463,-0.565216,-0.467384,-1.82333,
2026_07_06_15_59_24.035,3.861,30.8,0,0.759,0,0,0,0, ,0,0,0,0,0, ,-36.8,155.8,988,-0.6,-0.5,-1.8,25,-37.5948,156.727,987.468,-0.567335,-0.466325,-1.82191,
2026_07_06_15_59_24.055,3.861,30.8,0,0.759,0,0,0,0, ,0,0,0,0,0, ,-36.9,156.2,987.7,-0.6,-0.5,-1.8,25,-37.5494,156.683,987.491,-0.569326,-0.468377,-1.82057,
2026_07_06_15_59_24.074,3.861,30.7,0,0.759,0,0,0,0, ,0,0,0,0,0, ,-36.9,157.9,987.6,-0.6,-0.5,-1.9,25,-37.5098,156.705,987.501,-0.571195,-0.470304,-1.82237,
2026_07_06_15_59_24.094,3.861,30.8,0,0.759,0,0,0,0, ,0,0,0,0,0, ,-37.7,156.9,987.4,-0.6,-0.5,-1.8,25,-37.497,156.747,987.501,-0.57295,-0.472113,-1.82405,
2026_07_06_15_59_24.114,3.861,30.9,0,0.759,0,0,0,0, ,0,0,0,0,0, ,-37.8,158.3,987.3,-0.6,-0.5,-1.7,25,-37.5124,156.799,987.492,-0.574599,-0.473813,-1.81954,
2026_07_06_15_59_24.134,3.861,30.8,0,0.76,0,0,0,0, ,0,0,0,0,0, ,-37.8,156.9,987.9,-0.5,-0.4,-1.7,25,-37.53,156.848,987.498,-0.5731,-0.472362,-1.81225,
2026_07_06_15_59_24.152,3.861,30.9,0,0.759,0,0,0,0, ,0,0,0,0,0, ,-38,156.7,987.9,-0.6,-0.4,-1.8,25,-37.5525,156.845,987.523,-0.571692,-0.467952,-1.80846,
2026_07_06_15_59_24.174,3.861,30.9,0,0.759,0,0,0,0, ,0,0,0,0,0, ,-37.3,158.3,987.7,-0.7,-0.5,-1.8,25,-37.5584,156.885,987.54,-0.576464,-0.466858,-1.80794,
2026_07_06_15_59_24.192,3.861,30.8,0,0.759,0,0,0,0, ,0,0,0,0,0, ,-37.8,157.4,987,-0.6,-0.4,-1.8,25,-37.5579,156.944,987.528,-0.580945,-0.465831,-1.80746,
2026_07_06_15_59_24.212,3.861,30.8,0,0.759,0,0,0,0, ,0,0,0,0,0, ,-38.5,157.5,985.5,-0.6,-0.5,-1.9,25,-37.594,156.975,987.45,-0.582106,-0.464866,-1.81005,
2026_07_06_15_59_24.232,3.861,30.8,0,0.759,0,0,0,0, ,0,0,0,0,0, ,-38.9,156.7,988.1,-0.6,-0.5,-1.8,25,-37.6614,156.982,987.411,-0.583197,-0.467007,-1.81249,
2026_07_06_15_59_24.252,3.861,30.8,0,0.759,0,0,0,0, ,0,0,0,0,0, ,-39.4,156.6,985.1,-0.5,-0.5,-1.8,25,-37.7521,156.962,987.361,-0.581174,-0.469018,-1.81173,
2026_07_06_15_59_24.272,3.861,30.8,0,0.76,0,0,0,0, ,0,0,0,0,0, ,-37.5,159.5,989.8,-0.5,-0.4,-1.9,25,-37.7946,157.028,987.367,-0.576227,-0.467859,-1.81406,
2026_07_06_15_59_24.292,3.861,30.8,0,0.76,0,0,0,0, ,0,0,0,0,0, ,-38.4,159.9,988.5,-0.5,-0.5,-1.9,25,-37.8041,157.191,987.475,-0.571582,-0.46677,-1.8193,
2026_07_06_15_59_24.311,3.861,30.8,0,0.758,0,0,0,0, ,0,0,0,0,0, ,-38.4,158.3,987.1,-0.4,-0.5,-1.8,25,-37.8404,157.308,987.495,-0.564173,-0.468795,-1.82117,
2026_07_06_15_59_24.331,3.861,31,0,0.761,0,0,0,0, ,0,0,0,0,0, ,-36.1,157.1,987.3,-0.5,-0.5,-1.8,25,-37.8044,157.331,987.477,-0.557216,-0.470697,-1.81988,
2026_07_06_15_59_24.350,3.861,30.8,0,0.759,0,0,0,0, ,0,0,0,0,0, ,-37.5,158,988.6,-0.3,-0.5,-1.8,25,-37.7432,157.345,987.506,-0.547635,-0.472483,-1.81867,
2026_07_06_15_59_24.371,3.861,30.9,0,0.758,0,0,0,0, ,0,0,0,0,0, ,-37.7,157.2,988.1,-0.5,-0.5,-1.8,25,-37.7345,157.36,987.557,-0.538639,-0.474159,-1.81753,
2026_07_06_15_59_24.391,3.861,30.9,0,0.76,0,0,0,0, ,0,0,0,0,0, ,-38.9,157.5,986.9,-0.5,-0.5,-1.8,25,-37.769,157.36,987.554,-0.536284,-0.475734,-1.81646,
2026_07_06_15_59_24.411,3.861,30.9,0,0.759,0,0,0,0, ,0,0,0,0,0, ,-37.4,157.8,987.7,-0.5,-0.5,-1.9,25,-37.7922,157.377,987.538,-0.534073,-0.477213,-1.8185,
2026_07_06_15_59_24.430,3.861,30.8,0,0.758,0,0,0,0, ,0,0,0,0,0, ,-37.3,156.4,987.1,0.7,-0.5,-1.8,25,-37.7652,157.361,987.53,-0.495434,-0.478601,-1.82042,
2026_07_06_15_59_24.449,3.861,30.8,0,0.759,0,0,0,0, ,0,0,0,0,0, ,35.7,173,992.7,-19.2,-1.2,-3.8,25,-35.5127,157.808,987.674,-1.02892,-0.501233,-1.88012,
2026_07_06_15_59_24.470,3.861,30.9,0,0.759,0,0,0,0, ,0,0,0,0,0, ,28.3,124.8,988.2,-4.6,1.8,14.7,25,-31.3986,157.265,987.844,-1.69137,-0.452408,-1.43344,
2026_07_06_15_59_24.489,3.861,30.9,0,0.76,0,0,0,0, ,0,0,0,0,0, ,4.1,180.7,980.4,-11,2.8,22,25,-28.4981,156.99,987.628,-2.06362,-0.284683,-0.227884,
2026_07_06_15_59_24.510,3.861,30.8,0,0.76,0,0,0,0, ,0,0,0,0,0, ,-93.8,151.2,984.3,7.7,2.5,18,25,-29.4945,157.536,987.306,-2.03841,-0.105851,1.00475,
2026_07_06_15_59_24.529,3.861,30.8,0,0.76,0,0,0,0, ,0,0,0,0,0, ,-141.7,132.9,988,6,0.5,5,25,-34.8726,156.592,987.236,-1.49677,-0.00799466,1.64431,
2026_07_06_15_59_24.549,3.861,30.8,0,0.759,0,0,0,0, ,0,0,0,0,0, ,-37.1,147,988.4,-1.4,-0.5,-1.8,25,-38.1954,155.578,987.294,-1.26541,-0.00750749,1.64161,
2026_07_06_15_59_24.569,3.861,30.8,0,0.759,0,0,0,0, ,0,0,0,0,0, ,-37.3,151.7,989.1,-0.9,-0.5,-1.8,25,-38.1347,155.199,987.383,-1.25838,-0.0375187,1.43188,
2026_07_06_15_59_24.588,3.861,30.9,0,0.759,0,0,0,0, ,0,0,0,0,0, ,-36.2,152.2,989.7,-1,-0.5,-1.8,25,-38.0503,155.001,987.506,-1.23958,-0.0657012,1.23494,
2026_07_06_15_59_24.608,3.861,30.9,0,0.759,0,0,0,0, ,0,0,0,0,0, ,-39.3,146.9,987.6,-0.5,-0.5,-1.7,25,-38.032,154.668,987.576,-1.20975,-0.0921663,1.05305,
2026_07_06_15_59_24.627,3.861,30.7,0,0.758,0,0,0,0, ,0,0,0,0,0, ,-46.6,138,990.3,11,0,0.2,25,-38.3317,153.924,987.659,-0.816109,-0.101784,0.943173,
2026_07_06_15_59_24.647,3.861,30.8,0,0.759,0,0,0,0, ,0,0,0,0,0, ,-89.1,139.2,989.6,1.4,-0.4,-1.8,25,-40.1305,152.99,987.799,-0.388565,-0.107769,0.836948,
2026_07_06_15_59_24.668,3.861,30.9,0,0.759,0,0,0,0, ,0,0,0,0,0, ,-9.6,191.7,983.6,0.7,-1,-4.2,25,-40.6923,153.749,987.726,-0.300903,-0.143858,0.603134,
2026_07_06_15_59_24.687,3.861,30.8,0,0.76,0,0,0,0, ,0,0,0,0,0, ,-33.2,114.9,989.2,-7.8,-0.9,-3.6,25,-39.5167,153.722,987.645,-0.498894,-0.192983,0.328725,
2026_07_06_15_59_24.706,3.861,30.8,0,0.759,0,0,0,0, ,0,0,0,0,0, ,-38.9,161.3,989.3,24.1,0.4,3.6,25,-39.3054,152.77,987.743,0.0281476,-0.196457,0.308693,
2026_07_06_15_59_24.727,3.861,30.8,0,0.76,0,0,0,0, ,0,0,0,0,0, ,-42.2,154.6,987.6,17.1,0.2,2.7,25,-39.3813,153.086,987.786,1.28174,-0.166204,0.481835,
2026_07_06_15_59_24.747,3.861,30.8,0,0.759,0,0,0,0, ,0,0,0,0,0, ,-56.8,156.6,984.2,27.6,1.6,4.6,25,-39.9979,153.239,987.671,2.56559,-0.101232,0.674895,
2026_07_06_15_59_24.766,3.861,30.8,0,0.759,0,0,0,0, ,0,0,0,0,0, ,-50.7,199.3,1009.6,9.2,-3.8,3.8,25,-40.8359,154.745,988.233,3.5305,-0.162095,0.889706,
2026_07_06_15_59_24.787,3.861,30.8,0,0.757,0,0,0,0, ,0,0,0,0,0, ,69.2,269.5,1144.8,27.7,-20.3,6,25,-37.7838,159.599,993.655,4.43966,-0.886514,1.13408,
2026_07_06_15_59_24.805,3.861,30.8,0,0.759,0,0,0,0, ,0,0,0,0,0, ,39.3,207.1,1137,-22.6,-52,19.8,25,-32.1755,164.395,1002.63,4.32451,-3.03538,1.85107,
2026_07_06_15_59_24.826,3.861,30.8,0,0.758,0,0,0,0, ,0,0,0,0,0, ,-32.9,118.7,1029.1,-21.4,-64.6,36.7,25,-30.0198,164.303,1007.53,2.72036,-6.40307,3.45975,
2026_07_06_15_59_24.845,3.861,30.8,0,0.759,0,0,0,0, ,0,0,0,0,0, ,-67.7,235.1,1101.4,-0.9,-77.4,19.2,25,-31.2556,165.071,1011.05,1.87513,-10.3394,4.95213,
2026_07_06_15_59_24.865,3.861,30.8,0,0.758,0,0,0,0, ,0,0,0,0,0, ,130.4,202.5,1039,-3.5,-88.7,13,25,-27.4406,168.345,1014.65,1.6268,-14.7702,5.63145,
2026_07_06_15_59_24.885,3.861,30.8,0,0.759,0,0,0,0, ,0,0,0,0,0, ,158,211.3,995.2,-30.9,-98,30.7,25,-16.9812,170.695,1014.8,0.479546,-19.5587,6.61977,
2026_07_06_15_59_24.905,3.861,30.9,0,0.758,0,0,0,0, ,0,0,0,0,0, ,127.8,207.8,933.7,-29.5,-87.4,36.7,25,-7.23847,173.062,1011.73,-1.38999,-24.0157,8.26997,
2026_07_06_15_59_24.924,3.861,30.8,0,0.758,0,0,0,0, ,0,0,0,0,0, ,100.2,163.3,897.9,-29.9,-63.3,25.7,25,0.149498,173.823,1005.89,-3.11513,-27.1439,9.66727,
2026_07_06_15_59_24.944,3.861,30.8,0,0.759,0,0,0,0, ,0,0,0,0,0, ,67.8,121.4,915.8,-17.1,-35,6,25,5.25914,171.905,999.851,-4.35733,-28.4849,10.044,
2026_07_06_15_59_24.964,3.861,30.7,0,0.758,0,0,0,0, ,0,0,0,0,0, ,43.7,96,932.6,-18.9,-11.8,-13.5,25,8.33592,168.054,995.241,-5.18868,-28.1751,9.20346,
2026_07_06_15_59_24.984,3.861,30.8,0,0.759,0,0,0,0, ,0,0,0,0,0, ,73.8,-19.5,913.3,-11.7,-3.8,-0.9,25,11.408,160.144,990.836,-5.80484,-26.9335,8.20387,
2026_07_06_15_59_25.003,3.861,30.9,0,0.76,0,0,0,0, ,0,0,0,0,0, ,214.2,186.6,1045.5,0.3,-31.2,-2.4,25,19.4879,155.476,990.139,-5.79845,-26.3586,7.6034,
2026_07_06_15_59_25.022,3.861,30.8,0,0.759,0,0,0,0, ,0,0,0,0,0, ,277.9,105.9,1012.3,-1.5,-70.9,5.8,25,33.294,154.914,992.501,-5.48167,-27.8632,7.24366,
2026_07_06_15_59_25.043,3.861,30.9,0,0.76,0,0,0,0, ,0,0,0,0,0, ,209.7,119.8,1041.3,-6.5,-100.5,21.4,25,46.1217,152.351,994.591,-5.39138,-31.3877,7.631,
2026_07_06_15_59_25.063,3.861,30.8,0,0.759,0,0,0,0, ,0,0,0,0,0, ,206.6,171.2,1017.2,-23.8,-104.1,15.3,25,55.9953,151.933,996.703,-5.98605,-35.7089,8.28419,
2026_07_06_15_59_25.083,3.861,30.8,0,0.758,0,0,0,0, ,0,0,0,0,0, ,367.4,146.3,936.4,-19.9,-64.7,-11.4,25,70.0721,152.349,995.49,-6.95276,-38.676,7.8982,
2026_07_06_15_59_25.103,3.861,30.8,0,0.759,0,0,0,0, ,0,0,0,0,0, ,430.5,-133.3,924.5,-4.7,7.4,-9.7,25,90.1131,143.461,991.527,-7.27861,-38.065,6.77401,
2026_07_06_15_59_25.123,3.861,30.8,0,0.759,0,0,0,0, ,0,0,0,0,0, ,357.4,27.8,925,-56.9,52.6,3.2,25,108.628,131.505,987.457,-8.71194,-33.9173,6.16317,
2026_07_06_15_59_25.142,3.861,30.8,0,0.758,0,0,0,0, ,0,0,0,0,0, ,234.6,162.2,982.4,-13.4,64.8,12.9,25,120.046,129.28,985.4,-10.323,-28.2735,6.27815,
2026_07_06_15_59_25.162,3.861,30.8,0,0.758,0,0,0,0, ,0,0,0,0,0, ,208,226.6,964.5,-46.4,39.6,10,25,126.216,133.248,984.672,-11.516,-23.3696,6.59331,
2026_07_06_15_59_25.181,3.861,30.9,0,0.758,0,0,0,0, ,0,0,0,0,0, ,115.3,194,931.7,-25.2,9.6,3,25,128.376,137.944,982.444,-12.9958,-20.4465,6.58763,
2026_07_06_15_59_25.201,3.861,30.8,0,0.759,0,0,0,0, ,0,0,0,0,0, ,81.6,-38.4,1052.7,-14.5,-23.3,7.6,25,126.552,134.279,983.038,-13.4135,-19.6179,6.50916,
2026_07_06_15_59_25.221,3.861,30.9,0,0.757,0,0,0,0, ,0,0,0,0,0, ,183.2,-46.3,1154.1,-25.5,-67.3,-6.3,25,126.908,123.515,990.373,-13.8148,-21.1829,6.15212,
2026_07_06_15_59_25.241,3.861,30.9,0,0.76,0,0,0,0, ,0,0,0,0,0, ,366.8,74.8,885,-54.6,-74.4,-15.6,25,135.933,116.857,992.151,-15.4135,-24.2095,5.10996,
2026_07_06_15_59_25.262,3.861,30.9,0,0.76,0,0,0,0, ,0,0,0,0,0, ,471.8,70.5,921.2,-36.1,-42.8,-12.8,25,153.2,114.163,986.724,-17.2378,-26.3052,3.93326,
2026_07_06_15_59_25.280,3.861,30.9,0,0.76,0,0,0,0, ,0,0,0,0,0, ,298.3,-15,1026.8,-58.3,-15.6,4.5,25,167.329,108.897,985.949,-19.0636,-26.4816,3.44068,
2026_07_06_15_59_25.300,3.861,30.9,0,0.759,0,0,0,0, ,0,0,0,0,0, ,261.7,-5.7,886.9,-62.7,14.9,-1.2,25,174.195,101.631,984.176,-21.5886,-24.8892,3.33156,
2026_07_06_15_59_25.320,3.861,30.8,0,0.758,0,0,0,0, ,0,0,0,0,0, ,297.3,6.2,834.7,-73.6,31.9,-17.8,25,180.612,95.4528,976.657,-24.426,-21.9466,2.54964,
2026_07_06_15_59_25.340,3.861,30.8,0,0.759,0,0,0,0, ,0,0,0,0,0, ,344.9,-392,319.2,115.8,15.8,-22,25,189.173,77.8813,952.3,-21.6517,-19.1558,1.18162,
2026_07_06_15_59_25.360,3.861,30.8,0,0.759,0,0,0,0, ,0,0,0,0,0, ,244.8,24,1083.6,-37.6,-133.2,-3,25,195.612,61.9229,937.011,-17.9497,-21.5656,0.347893,
2026_07_06_15_59_25.380,3.861,30.9,0,0.759,0,0,0,0, ,0,0,0,0,0, ,379.6,11.3,977.1,-28.6,-199.5,-5.2,25,202.717,59.225,942.699,-18.8729,-30.3884,0.0768497,
2026_07_06_15_59_25.399,3.861,30.9,0,0.759,0,0,0,0, ,0,0,0,0,0, ,481.5,-41.2,876,-36.5,-191.2,-8.8,25,216.601,54.705,941.715,-19.7063,-40.4407,-0.354396,
2026_07_06_15_59_25.419,3.861,30.9,0,0.759,0,0,0,0, ,0,0,0,0,0, ,543.5,-86.3,871.8,-21.1,-160.8,-16.9,25,234.632,47.4866,937.582,-20.2605,-48.7014,-1.11585,
2026_07_06_15_59_25.439,3.861,30.9,0,0.759,0,0,0,0, ,0,0,0,0,0, ,587.6,-56.8,796.7,-24.3,-147.6,-8.1,25,254.797,40.2329,931.285,-20.4092,-55.1302,-1.80957,
2026_07_06_15_59_25.459,3.861,30.9,0,0.759,0,0,0,0, ,0,0,0,0,0, ,548.8,-24.5,875.2,-4.7,-153.5,16.6,25,273.895,35.3041,925.476,-20.0491,-60.9448,-1.44031,
2026_07_06_15_59_25.479,3.861,30.9,0,0.759,0,0,0,0, ,0,0,0,0,0, ,583.9,-71.7,781.2,21.7,-185.4,52,25,291.717,30.2216,919.548,-18.3094,-67.5569,0.737612,
2026_07_06_15_59_25.498,3.861,30.9,0,0.759,0,0,0,0, ,0,0,0,0,0, ,724.4,-40.8,639.7,50.1,-211.9,64,25,313.802,24.9523,906.806,-15.006,-75.5453,4.22704,
2026_07_06_15_59_25.518,3.861,30.9,0,0.759,0,0,0,0, ,0,0,0,0,0, ,694.5,-64.4,592.4,50.8,-187.5,49.3,25,337.912,20.2264,889.088,-11.0172,-83.111,7.42156,
2026_07_06_15_59_25.537,3.861,30.9,0,0.758,0,0,0,0, ,0,0,0,0,0, ,793.2,-119.5,615.1,33.2,-126.1,33.2,25,362.649,13.3907,871.701,-7.78651,-87.6014,9.48298,
2026_07_06_15_59_25.558,3.861,30.9,0,0.759,0,0,0,0, ,0,0,0,0,0, ,858.8,-109.9,609.4,15.4,-85.3,26.1,25,390.884,5.58514,855.89,-5.83124,-88.7043,10.7119,
2026_07_06_15_59_25.577,3.861,30.8,0,0.76,0,0,0,0, ,0,0,0,0,0, ,791,1.3,537.5,23.3,-77.2,29.3,25,417.332,1.93589,838.679,-4.29676,-88.2501,11.7471,
2026_07_06_15_59_25.597,3.861,30.9,0,0.759,0,0,0,0, ,0,0,0,0,0, ,764.2,-44.9,507.3,29.4,-86.1,39.5,25,439.286,0.489486,819.406,-2.42922,-87.8479,13.1275,
2026_07_06_15_59_25.617,3.861,30.8,0,0.758,0,0,0,0, ,0,0,0,0,0, ,779.5,-91.3,510.3,28.3,-90.6,36.8,25,459.552,-3.69019,800.478,-0.523143,-87.8785,14.6523,
2026_07_06_15_59_25.636,3.861,30.9,0,0.759,0,0,0,0, ,0,0,0,0,0, ,797.8,-103.1,472.2,22.3,-88.1,29.5,25,479.606,-9.38844,781.635,1.05045,-87.9681,15.7795,
2026_07_06_15_59_25.657,3.861,30.9,0,0.759,0,0,0,0, ,0,0,0,0,0, ,816.1,-140.3,476.3,19.7,-89.5,19.5,25,499.554,-16.2324,762.903,2.26613,-88.0188,16.3109,
2026_07_06_15_59_25.677,3.861,30.8,0,0.759,0,0,0,0, ,0,0,0,0,0, ,838.2,-76.1,465.8,14,-100.6,9.6,25,519.517,-21.8367,745.119,3.15483,-88.4473,16.2036,
2026_07_06_15_59_25.696,3.861,30.8,0,0.759,0,0,0,0, ,0,0,0,0,0, ,886.7,-71.2,436.2,15.9,-112.1,3.4,25,540.414,-24.9941,727.196,3.8736,-89.5382,15.6123,
2026_07_06_15_59_25.716,3.861,30.5,0,0.758,0,0,0,0, ,0,0,0,0,0, ,945.8,-115.9,398,13,-109.4,8.4,25,563.317,-29.1717,708.299,4.5181,-90.8308,15.0205,
2026_07_06_15_59_25.736,3.861,30.9,0,0.758,0,0,0,0, ,0,0,0,0,0, ,921.5,-128,365.4,9.9,-87.4,13.1,25,585.884,-34.8254,688.397,4.94051,-91.2921,14.7602,
2026_07_06_15_59_25.755,3.861,30.9,0,0.76,0,0,0,0, ,0,0,0,0,0, ,897.8,-164.9,354.1,3.8,-68.7,7.5,25,605.613,-41.6275,668.37,5.05687,-90.4851,14.4884,
2026_07_06_15_59_25.775,3.861,30.9,0,0.759,0,0,0,0, ,0,0,0,0,0, ,919.6,-105.9,288,-0.3,-62.9,-3.9,25,624.083,-47.3418,647.205,4.85536,-88.9809,13.7152,
2026_07_06_15_59_25.795,3.861,30.9,0,0.759,0,0,0,0, ,0,0,0,0,0, ,866.6,-64.4,273.8,-1.5,-58.8,-12.7,25,640.476,-49.6457,624.884,4.50464,-87.2667,12.3737,
2026_07_06_15_59_25.815,3.861,30.9,0,0.76,0,0,0,0, ,0,0,0,0,0, ,887.5,-91.4,217.7,-1.9,-44.7,-25.6,25,654.892,-51.3674,601.78,4.12655,-85.1024,10.4527,
2026_07_06_15_59_25.835,3.861,30.8,0,0.759,0,0,0,0, ,0,0,0,0,0, ,860.7,-24,223.8,1.1,-30.7,-29.3,25,668.25,-51.7533,578.561,3.85071,-82.2138,8.14302,
2026_07_06_15_59_25.855,3.861,30.9,0,0.759,0,0,0,0, ,0,0,0,0,0, ,1014.5,-136.7,286.6,6.6,-10.3,-32.7,25,684.664,-53.4959,558.856,3.85067,-78.4531,5.75774,
2026_07_06_15_59_25.874,3.861,30.8,0,0.76,0,0,0,0, ,0,0,0,0,0, ,929.9,-54.1,296.3,16,-60.1,-17.9,25,702.185,-56.0495,542.561,4.30461,-75.8174,3.86516,
2026_07_06_15_59_25.899,3.861,30.8,0,0.759,0,0,0,0, ,0,0,0,0,0, ,939.3,-56.1,181.1,22.5,-80.2,-23.4,25,716.348,-55.9916,524.045,5.21535,-75.472,2.37127,
2026_07_06_15_59_25.913,3.861,30.9,0,0.759,0,0,0,0, ,0,0,0,0,0, ,932.3,-53.4,186.6,21.6,-64,-36.3,25,729.721,-55.916,503.314,6.24121,-75.2665,0.407785,
2026_07_06_15_59_25.933,3.861,30.9,0,0.759,0,0,0,0, ,0,0,0,0,0, ,1003.2,-39.3,134.2,24.1,-72.1,-33.2,25,744.226,-55.333,482.418,7.25331,-74.8268,-1.73464,
2026_07_06_15_59_25.953,3.861,30.8,0,0.758,0,0,0,0, ,0,0,0,0,0, ,1008.5,-26.3,103.5,21.1,-75.5,-25.4,25,760.169,-53.9599,460.263,8.1885,-74.7642,-3.41441,
2026_07_06_15_59_25.973,3.861,31,0,0.759,0,0,0,0, ,0,0,0,0,0, ,989.9,-21.6,103.5,19.8,-67.6,-24,25,774.735,-52.1312,438.523,8.93568,-74.5683,-4.7115,
2026_07_06_15_59_25.992,3.861,30.9,0,0.759,0,0,0,0, ,0,0,0,0,0, ,960.4,-7.8,125.3,12.5,-53.4,-26.4,25,786.947,-49.8502,418.771,9.3753,-73.7111,-5.96001,
2026_07_06_15_59_26.013,3.861,30.8,0,0.76,0,0,0,0, ,0,0,0,0,0, ,979.3,-2.5,89.9,10.2,-47.4,-25.3,25,798.093,-47.1263,399.809,9.49564,-72.2905,-7.17206,
2026_07_06_15_59_26.031,3.861,30.9,0,0.759,0,0,0,0, ,0,0,0,0,0, ,990.4,-9.7,56.1,15.7,-29.6,-10.7,25,809.473,-44.6263,379.894,9.70614,-70.2314,-7.83189,
2026_07_06_15_59_26.052,3.861,30.8,0,0.759,0,0,0,0, ,0,0,0,0,0, ,998.5,1.7,69.8,13.8,-15.7,-12.8,25,820.745,-42.1506,360.581,10.0135,-67.3319,-8.07065,
2026_07_06_15_59_26.072,3.861,30.9,0,0.759,0,0,0,0, ,0,0,0,0,0, ,1005.9,5.4,52.3,15.3,-20.8,-10.3,25,831.803,-39.3657,342.328,10.2899,-64.341,-8.28267,
2026_07_06_15_59_26.091,3.861,30.9,0,0.761,0,0,0,0, ,0,0,0,0,0, ,1001.7,-0.1,60.4,10.2,-20.3,-11.2,25,842.284,-36.8054,324.901,10.4398,-61.6725,-8.43302,
2026_07_06_15_59_26.112,3.861,30.9,0,0.761,0,0,0,0, ,0,0,0,0,0, ,977.6,11.5,78,7.1,-16.8,-10.6,25,851.264,-34.2152,309.319,10.3308,-59.0447,-8.58336,
2026_07_06_15_59_26.132,3.861,30.9,0,0.758,0,0,0,0, ,0,0,0,0,0, ,1005.4,15.3,58.1,4.7,-8.9,-12.6,25,859.81,-31.3137,294.617,10.0608,-56.2297,-8.76718,
2026_07_06_15_59_26.151,3.861,30.9,0,0.759,0,0,0,0, ,0,0,0,0,0, ,1032.3,7,27.9,4.3,-4.1,-8.1,25,869.501,-28.726,279.284,9.72192,-53.1993,-8.86363,
2026_07_06_15_59_26.171,3.861,30.9,0,0.758,0,0,0,0, ,0,0,0,0,0, ,995.4,20.5,28.5,6.9,-5.7,-4.9,25,878.297,-26.1377,263.984,9.47074,-50.2561,-8.7196,
2026_07_06_15_59_26.190,3.861,30.8,0,0.757,0,0,0,0, ,0,0,0,0,0, ,962.6,25.8,43.8,9.3,-1.4,-6.5,25,884.434,-23.1342,250.1,9.38721,-47.4099,-8.53559,
2026_07_06_15_59_26.211,3.861,30.8,0,0.76,0,0,0,0, ,0,0,0,0,0, ,958.4,20.8,75.3,3.4,2.9,-9.8,25,889.069,-20.3046,238.488,9.20213,-44.4752,-8.5121,
2026_07_06_15_59_26.230,3.861,30.8,0,0.759,0,0,0,0, ,0,0,0,0,0, ,1013.1,22.7,61,1.8,3.6,-9.8,25,894.961,-17.7419,228.108,8.79981,-41.5669,-8.59058,
2026_07_06_15_59_26.250,3.861,30.9,0,0.76,0,0,0,0, ,0,0,0,0,0, ,1054.9,27.2,33.2,0.6,-2.5,-7.8,25,903.433,-15.1404,217.078,8.3367,-39.0004,-8.60334,
2026_07_06_15_59_26.270,3.861,31,0,0.759,0,0,0,0, ,0,0,0,0,0, ,1013.5,35.7,35,4.2,-6.8,-3.9,25,911.402,-12.3013,205.928,7.97493,-36.9072,-8.43556,
2026_07_06_15_59_26.289,3.861,30.9,0,0.759,0,0,0,0, ,0,0,0,0,0, ,980.7,40.8,57,5.8,-6.4,-3.9,25,916.624,-9.2208,196.182,7.79365,-35.0604,-8.15917,
2026_07_06_15_59_26.316,3.861,30.9,0,0.758,0,0,0,0, ,0,0,0,0,0, ,973.7,38.5,46.5,3.9,-3.1,-6.1,25,920.316,-6.24273,187.381,7.61427,-33.2133,-7.96666,
2026_07_06_15_59_26.330,3.861,30.9,0,0.758,0,0,0,0, ,0,0,0,0,0, ,1011.9,30,51.7,2.5,-2.6,-7.1,25,924.733,-3.77521,178.955,7.34527,-31.3631,-7.88338,
2026_07_06_15_59_26.350,3.861,30.9,0,0.759,0,0,0,0, ,0,0,0,0,0, ,1018.1,31.6,53.4,-2.7,-2.4,-3.8,25,930.233,-1.66828,171.252,6.89158,-29.6042,-7.7351,
2026_07_06_15_59_26.369,3.861,30.8,0,0.76,0,0,0,0, ,0,0,0,0,0, ,998.7,37.1,23.5,-2.7,-2.4,-0.3,25,934.997,0.526582,163.159,6.30709,-27.9465,-7.38866,
2026_07_06_15_59_26.388,3.861,30.9,0,0.758,0,0,0,0, ,0,0,0,0,0, ,975.3,36.2,16.9,1.7,-1.3,-3.1,25,938.166,2.72785,154.448,5.89228,-26.3562,-7.04201,
2026_07_06_15_59_26.408,3.861,30.8,0,0.757,0,0,0,0, ,0,0,0,0,0, ,963.1,55.9,40.4,6.8,-2,-2.7,25,940.057,5.3678,146.782,5.79221,-24.8507,-6.7896,
2026_07_06_15_59_26.428,3.861,30.9,0,0.759,0,0,0,0, ,0,0,0,0,0, ,995.4,30.8,56.5,2.9,-1.7,-6,25,942.445,7.68234,140.79,5.73479,-23.4491,-6.64094,
2026_07_06_15_59_26.447,3.861,30.9,0,0.759,0,0,0,0, ,0,0,0,0,0, ,1027.5,33.5,31.8,1.5,-0.6,-2.9,25,946.65,9.17333,134.901,5.51939,-22.0902,-6.50743,
2026_07_06_15_59_26.467,3.861,30.9,0,0.76,0,0,0,0, ,0,0,0,0,0, ,996.7,41.6,31.3,0.2,4.9,-0.8,25,950.638,10.9025,128.603,5.23485,-20.6131,-6.22362,
2026_07_06_15_59_26.486,3.861,30.9,0,0.759,0,0,0,0, ,0,0,0,0,0, ,963.5,45.2,39,2.1,6.5,0.9,25,952.434,12.8829,122.908,4.98593,-19.0096,-5.84132,
2026_07_06_15_59_26.507,3.861,30.9,0,0.759,0,0,0,0, ,0,0,0,0,0, ,989.3,41.9,32.1,-1,0.6,-5.8,25,953.894,14.7516,117.585,4.71561,-17.6349,-5.63466,
2026_07_06_15_59_26.527,3.861,30.8,0,0.758,0,0,0,0, ,0,0,0,0,0, ,1011.3,40.6,34.4,2.3,-4.3,-3,25,956.722,16.3664,112.446,4.46787,-16.673,-5.55942,
2026_07_06_15_59_26.546,3.861,30.9,0,0.758,0,0,0,0, ,0,0,0,0,0, ,993.6,38,62.5,1.3,-1.3,-0.7,25,959.509,17.7639,108.546,4.30529,-15.8276,-5.33338,
2026_07_06_15_59_26.567,3.861,30.8,0,0.759,0,0,0,0, ,0,0,0,0,0, ,986,40.2,57.6,-2.1,3.4,-1.1,25,961.354,19.0641,105.591,4.01856,-14.7991,-5.06322,
2026_07_06_15_59_26.587,3.861,30.9,0,0.759,0,0,0,0, ,0,0,0,0,0, ,983.1,48.7,23.6,-3.9,3.7,-2.5,25,962.768,20.611,101.63,3.59087,-13.681,-4.86437,
2026_07_06_15_59_26.606,3.861,31,0,0.759,0,0,0,0, ,0,0,0,0,0, ,990.9,39.3,23.3,-3.4,1.4,-3.8,25,964.245,22.0363,96.8661,3.14963,-12.6919,-4.7599,
2026_07_06_15_59_26.626,3.861,30.9,0,0.758,0,0,0,0, ,0,0,0,0,0, ,1002.5,38,62.7,-2.1,1.9,-2.9,25,966.222,23.0487,93.5836,2.79012,-11.818,-4.67398,
2026_07_06_15_59_26.645,3.861,30.8,0,0.759,0,0,0,0, ,0,0,0,0,0, ,1001.4,35,53.4,-3.5,4.1,-1.4,25,968.399,23.8684,91.4183,2.44947,-10.915,-4.52018,
2026_07_06_15_59_26.665,3.861,30.9,0,0.76,0,0,0,0, ,0,0,0,0,0, ,998,39.9,45.1,-5.4,12.7,-0.5,25,970.307,24.696,88.8487,2.02904,-9.73798,-4.30262,
2026_07_06_15_59_26.685,3.861,30.9,0,0.758,0,0,0,0, ,0,0,0,0,0, ,991.5,36.2,65.3,-7.8,19.6,1,25,971.796,25.5098,86.7982,1.50321,-8.16043,-4.0252,
2026_07_06_15_59_26.704,3.861,30.9,0,0.761,0,0,0,0, ,0,0,0,0,0, ,967.1,29.6,73.7,-11.5,29.5,0.4,25,972.254,25.9601,85.7441,0.823557,-6.16714,-3.73725,
2026_07_06_15_59_26.725,3.861,30.8,0,0.758,0,0,0,0, ,0,0,0,0,0, ,977.1,46.9,107.7,-15.5,45.1,-2.6,25,972.244,26.709,86.0461,-0.049285,-3.51836,-3.57655,
2026_07_06_15_59_26.745,3.861,30.9,0,0.759,0,0,0,0, ,0,0,0,0,0, ,996.8,53.2,99.2,-8.3,47.6,5.8,25,973.14,28.1314,87.1066,-0.771438,-0.479506,-3.2611,
2026_07_06_15_59_26.767,3.861,30.8,0,0.76,0,0,0,0, ,0,0,0,0,0, ,1001.9,6.8,120.2,-17.7,50,-2.4,25,974.738,28.2452,88.4834,-1.51662,2.52346,-2.95878,
2026_07_06_15_59_26.784,3.861,30.9,0,0.758,0,0,0,0, ,0,0,0,0,0, ,988.4,33.4,144.5,-11.8,60.5,3.8,25,975.981,27.7489,91.1565,-2.32303,5.73649,-2.73583,
2026_07_06_15_59_26.803,3.861,30.8,0,0.758,0,0,0,0, ,0,0,0,0,0, ,998.2,12.6,186.6,-11.8,71.4,6.7,25,977.037,27.4595,95.6899,-2.90053,9.40575,-2.24919,
2026_07_06_15_59_26.823,3.861,30.8,0,0.758,0,0,0,0, ,0,0,0,0,0, ,966.7,17.4,177.6,-15.2,69.6,7.5,25,977.367,26.7002,100.956,-3.54643,13.1287,-1.67947,
2026_07_06_15_59_26.844,3.861,30.8,0,0.759,0,0,0,0, ,0,0,0,0,0, ,943.2,36.9,165.4,-14.3,67.6,8.7,25,976.001,26.7277,105.254,-4.22915,16.509,-1.08354,
2026_07_06_15_59_26.863,3.861,30.8,0,0.758,0,0,0,0, ,0,0,0,0,0, ,943.7,24.1,230.8,-13.4,72.6,6.3,25,974.017,26.9575,110.912,-4.81542,19.7747,-0.560478,
2026_07_06_15_59_26.883,3.861,30.9,0,0.759,0,0,0,0, ,0,0,0,0,0, ,973.7,-2,301.8,-26.9,88.1,1.9,25,973.084,25.9882,120.381,-5.74987,23.466,-0.27648,
2026_07_06_15_59_26.902,3.861,30.8,0,0.759,0,0,0,0, ,0,0,0,0,0, ,951.2,19.4,312.7,-30.2,106.1,-0.4,25,972.436,24.9347,131.768,-7.13925,27.953,-0.213929,
2026_07_06_15_59_26.923,3.861,30.8,0,0.758,0,0,0,0, ,0,0,0,0,0, ,854.7,25.7,317.6,-33.2,106.2,-2,25,968.201,24.7894,142.943,-8.63593,32.7182,-0.274018,
2026_07_06_15_59_26.943,3.861,30.8,0,0.758,0,0,0,0, ,0,0,0,0,0, ,1076.5,-14.7,311.1,-28.9,87.4,-12.8,25,968.043,23.6139,153.388,-10.0018,36.6232,-0.708257,
2026_07_06_15_59_26.963,3.861,30.8,0,0.759,0,0,0,0, ,0,0,0,0,0, ,945.9,-6.3,385.7,-37.7,90,0.1,25,970.673,21.5351,165.272,-11.4215,39.7966,-1.05205,
2026_07_06_15_59_26.983,3.861,30.8,0,0.76,0,0,0,0, ,0,0,0,0,0, ,920.4,-1.9,389.4,-36.4,84.8,2.5,25,968.386,19.973,178.817,-12.9833,42.6974,-0.908723,
2026_07_06_15_59_27.003,3.861,30.7,0,0.758,0,0,0,0, ,0,0,0,0,0, ,871.8,9.6,426.3,-31.5,89.9,11.1,25,963.981,18.9905,192.774,-14.2609,45.4184,-0.438973,
2026_07_06_15_59_27.022,3.861,30.9,0,0.759,0,0,0,0, ,0,0,0,0,0, ,898.3,-45,491.9,-27,95,18.2,25,959.171,16.7546,209.003,-15.1743,48.2844,0.480512,
2026_07_06_15_59_27.043,3.861,30.8,0,0.758,0,0,0,0, ,0,0,0,0,0, ,888,-14.2,491.6,-27.6,107.2,20,25,955.148,13.9299,226.233,-15.9132,51.5029,1.61514,
2026_07_06_15_59_27.060,3.861,30.8,0,0.76,0,0,0,0, ,0,0,0,0,0, ,838.7,-8.3,523,-26.2,122.8,25.1,25,949.554,12.3955,243.36,-16.5827,55.3722,2.89085,
2026_07_06_15_59_27.081,3.861,30.9,0,0.757,0,0,0,0, ,0,0,0,0,0, ,828.3,-63.4,565.3,-22.9,136.3,24.3,25,942.482,9.45554,261.69,-17.0682,59.8924,4.21985,
2026_07_06_15_59_27.100,3.861,30.9,0,0.759,0,0,0,0, ,0,0,0,0,0, ,791.3,-61.7,549.9,-15.7,130.9,26.5,25,934.397,5.0677,279.722,-17.2042,64.384,5.51051,
2026_07_06_15_59_27.121,3.861,30.8,0,0.76,0,0,0,0, ,0,0,0,0,0, ,717.7,-62.5,576.9,-17.5,109.1,28.3,25,923.434,0.974671,297.008,-17.1674,67.7731,6.8444,
2026_07_06_15_59_27.141,3.861,30.9,0,0.76,0,0,0,0, ,0,0,0,0,0, ,690.7,-72,634.7,-11,105.2,20.6,25,910.075,-3.18277,315.825,-16.9896,70.1726,7.91725,
2026_07_06_15_59_27.160,3.861,30.9,0,0.76,0,0,0,0, ,0,0,0,0,0, ,652.2,-78.6,665.5,-10.3,103.7,13,25,895.534,-7.57741,336.195,-16.6033,72.2614,8.45854,
2026_07_06_15_59_27.180,3.861,30.8,0,0.76,0,0,0,0, ,0,0,0,0,0, ,633,-89.5,697.3,-14.4,114.5,8.5,25,880.12,-12.2375,357.231,-16.3441,74.5063,8.59817,
2026_07_06_15_59_27.199,3.861,30.9,0,0.757,0,0,0,0, ,0,0,0,0,0, ,627.1,-105.3,724.4,0,128.9,12.5,25,864.882,-17.4271,378.78,-15.7869,77.3821,8.71407,
2026_07_06_15_59_27.219,3.861,30.9,0,0.759,0,0,0,0, ,0,0,0,0,0, ,638.1,-115.7,717,11.2,96.2,14.4,25,850.727,-23.0987,399.616,-14.4836,79.5252,9.00266,
2026_07_06_15_59_27.239,3.861,30.9,0,0.759,0,0,0,0, ,0,0,0,0,0, ,589.1,-104.2,758.3,12.1,72.6,17.3,25,836.277,-28.3912,420.215,-12.8911,79.8222,9.41992,
2026_07_06_15_59_27.259,3.861,30.9,0,0.76,0,0,0,0, ,0,0,0,0,0, ,492.9,-112.3,829.2,9.4,84,15.1,25,818.284,-33.2576,442.977,-11.4505,79.7295,9.83308,
2026_07_06_15_59_27.279,3.861,30.9,0,0.757,0,0,0,0, ,0,0,0,0,0, ,466.3,-123.1,862.7,2.3,101.4,10.9,25,797.645,-38.4033,467.533,-10.3962,80.5199,10.0261,
2026_07_06_15_59_27.299,3.861,30.8,0,0.759,0,0,0,0, ,0,0,0,0,0, ,479.3,-126.3,904.2,-0.9,104,5.6,25,777.85,-43.662,492.878,-9.72006,81.8715,9.91784,
2026_07_06_15_59_27.319,3.861,30.8,0,0.762,0,0,0,0, ,0,0,0,0,0, ,511.1,-149.6,909.7,-1.5,97.7,5.1,25,760.626,-49.4077,518.11,-9.20087,83.028,9.63949,
2026_07_06_15_59_27.338,3.861,30.8,0,0.758,0,0,0,0, ,0,0,0,0,0, ,503.5,-130.3,878.1,-4.9,86.4,13.7,25,745.189,-54.9251,541.01,-8.8352,83.5777,9.62489,
2026_07_06_15_59_27.359,3.861,30.8,0,0.759,0,0,0,0, ,0,0,0,0,0, ,420.5,-104.3,841,-2.9,84.9,20.2,25,727.932,-58.7261,560.421,-8.53446,83.704,10.0713,
2026_07_06_15_59_27.378,3.861,30.9,0,0.758,0,0,0,0, ,0,0,0,0,0, ,363,-109.3,848.5,1.8,81,12.7,25,707.446,-61.6556,577.747,-8.0479,83.6581,10.46,
2026_07_06_15_59_27.397,3.861,30.9,0,0.758,0,0,0,0, ,0,0,0,0,0, ,367.7,-116.2,867.7,8.1,75.2,6.7,25,686.6,-64.7691,594.831,-7.25584,83.3194,10.4137,
2026_07_06_15_59_27.417,3.861,30.9,0,0.758,0,0,0,0, ,0,0,0,0,0, ,404.7,-119.6,903.4,9,70.3,9.3,25,668.294,-68.0068,612.547,-6.29268,82.6753,10.2666,
2026_07_06_15_59_27.437,3.861,30.8,0,0.757,0,0,0,0, ,0,0,0,0,0, ,369.8,-126.3,899.6,8.6,66.2,15.6,25,651.168,-71.3549,630.155,-5.37297,81.7963,10.3996,
2026_07_06_15_59_27.457,3.861,30.9,0,0.759,0,0,0,0, ,0,0,0,0,0, ,318.2,-110.4,882,11.7,60.1,16.3,25,632.45,-74.2187,646.038,-4.42704,80.66,10.7379,
2026_07_06_15_59_27.477,3.861,30.9,0,0.759,0,0,0,0, ,0,0,0,0,0, ,281.2,-93.2,890.5,17.7,57.3,15,25,612.173,-75.8994,660.676,-3.26148,79.3218,11.0372,
2026_07_06_15_59_27.497,3.861,30.9,0,0.76,0,0,0,0, ,0,0,0,0,0, ,246,-111.9,949.5,20.1,62.6,11.6,25,590.932,-77.5234,676.479,-1.91102,78.1413,11.1751,
2026_07_06_15_59_27.516,3.861,30.9,0,0.757,0,0,0,0, ,0,0,0,0,0, ,225.8,-108,979.6,15.5,71.6,8.3,25,569.297,-79.4994,694.033,-0.709876,77.4685,11.1004,
2026_07_06_15_59_27.536,3.861,30.9,0,0.759,0,0,0,0, ,0,0,0,0,0, ,200.1,-92.7,976.8,14.1,80.4,3.4,25,547.582,-80.77,711.349,0.235257,77.379,10.7805,
2026_07_06_15_59_27.555,3.861,30.9,0,0.759,0,0,0,0, ,0,0,0,0,0, ,207.1,-93.8,968.5,13.3,77.5,4,25,526.621,-81.5305,727.272,1.05576,77.4748,10.349,
2026_07_06_15_59_27.576,3.861,30.9,0,0.759,0,0,0,0, ,0,0,0,0,0, ,192.7,-87.7,975,13.4,73.3,5.8,25,506.711,-82.0923,742.17,1.80494,77.3483,10.017,
2026_07_06_15_59_27.596,3.861,30.9,0,0.759,0,0,0,0, ,0,0,0,0,0, ,142.3,-77,955.3,16.7,71.2,4.9,25,486.04,-82.108,755.758,2.61206,77.0376,9.73257,
2026_07_06_15_59_27.615,3.861,30.9,0,0.758,0,0,0,0, ,0,0,0,0,0, ,108.2,-52.7,954.9,24.9,67,2.6,25,464.055,-81.0564,767.905,3.72039,76.5539,9.36801,
2026_07_06_15_59_27.635,3.861,30.9,0,0.759,0,0,0,0, ,0,0,0,0,0, ,104.8,-67.9,981.8,24.9,58.7,1.5,25,442.266,-79.7915,780.12,5.01102,75.7189,8.92207,
2026_07_06_15_59_27.654,3.861,30.9,0,0.759,0,0,0,0, ,0,0,0,0,0, ,99.8,-83.1,1016.2,19.7,53.4,-0.1,25,421.55,-79.53,793.458,6.06457,74.5203,8.42103,
2026_07_06_15_59_27.675,3.861,30.9,0,0.759,0,0,0,0, ,0,0,0,0,0, ,66.8,-78.8,1036.7,3.6,47.1,1.4,25,400.938,-79.6165,807.656,6.40493,73.0413,7.94749,
2026_07_06_15_59_27.694,3.861,30.9,0,0.757,0,0,0,0, ,0,0,0,0,0, ,50,-68.8,1037.4,6.1,45.3,3.1,25,380.064,-79.2621,821.635,6.31018,71.4057,7.6003,
2026_07_06_15_59_27.714,3.861,30.9,0,0.759,0,0,0,0, ,0,0,0,0,0, ,67.3,-78.8,1086.4,23.1,47.4,4.6,25,360.478,-78.9292,836.276,6.81534,69.8788,7.37176,
2026_07_06_15_59_27.735,3.861,31,0,0.76,0,0,0,0, ,0,0,0,0,0, ,114.6,-66.4,1144.8,13,27.8,2.4,25,344.054,-78.5436,853.297,7.49995,67.9119,7.13583,
2026_07_06_15_59_27.754,3.861,30.9,0,0.758,0,0,0,0, ,0,0,0,0,0, ,90.4,-44.4,1135.7,-5.1,14.1,10.1,25,329.334,-77.1332,870.783,7.28363,65.0501,7.08185,
2026_07_06_15_59_27.773,3.861,30.9,0,0.758,0,0,0,0, ,0,0,0,0,0, ,42.9,-49.1,1078.6,-11.2,20.6,15,25,313.327,-75.2818,885.187,6.34314,62.1434,7.41506,
2026_07_06_15_59_27.794,3.861,30.9,0,0.76,0,0,0,0, ,0,0,0,0,0, ,-4.5,-36.2,987,-8.5,27.3,16.3,25,295.403,-73.2933,894.182,5.35637,59.816,7.91688,
2026_07_06_15_59_27.814,3.861,30.9,0,0.76,0,0,0,0, ,0,0,0,0,0, ,-36.8,-57.9,923,-1.7,23.9,14.4,25,276.144,-71.6941,897.888,4.71919,57.7309,8.36983,
2026_07_06_15_59_27.833,3.861,30.9,0,0.759,0,0,0,0, ,0,0,0,0,0, ,-72.1,-68.7,953.2,3.2,11.4,10.4,25,255.998,-71.1826,900.339,4.47731,55.2885,8.61542,
2026_07_06_15_59_27.853,3.861,30.9,0,0.76,0,0,0,0, ,0,0,0,0,0, ,-37.5,-69.9,1008.6,2.9,11.8,7.8,25,237.059,-71.0678,905.248,4.39034,52.6262,8.64495,
2026_07_06_15_59_27.872,3.861,30.9,0,0.759,0,0,0,0, ,0,0,0,0,0, ,-14.4,-61,1010.2,2.5,19.5,8.5,25,221.032,-70.7255,911.595,4.28733,50.373,8.61479,
2026_07_06_15_59_27.892,3.861,30.8,0,0.758,0,0,0,0, ,0,0,0,0,0, ,-1,-43.7,963.5,4.8,22,10,25,207.094,-69.6057,916.18,4.24849,48.5679,8.6535,
2026_07_06_15_59_27.913,3.861,30.9,0,0.758,0,0,0,0, ,0,0,0,0,0, ,-30.7,-53.8,965.3,8.9,9.9,14.3,25,193.508,-68.3348,919.119,4.40702,46.5802,8.86657,
2026_07_06_15_59_27.934,3.861,30.9,0,0.759,0,0,0,0, ,0,0,0,0,0, ,-90.6,-52.4,1035,6.9,-1.5,13.6,25,178.02,-67.4065,924.057,4.61988,43.9977,9.17634,
2026_07_06_15_59_27.952,3.861,30.8,0,0.758,0,0,0,0, ,0,0,0,0,0, ,-90.3,-59,1044.4,1.8,8.7,7.9,25,161.66,-66.6931,931.104,4.60343,41.5359,9.27223,
2026_07_06_15_59_27.971,3.861,30.9,0,0.759,0,0,0,0, ,0,0,0,0,0, ,-81.9,-57.7,1045.6,0,17.6,6.4,25,146.562,-66.1847,938.044,4.37775,39.8062,9.14291,
2026_07_06_15_59_27.991,3.861,30.9,0,0.759,0,0,0,0, ,0,0,0,0,0, ,-82.2,-41.7,1015.1,-2.2,20.5,4.4,25,132.631,-65.1802,943.669,4.04395,38.5413,8.91483,
2026_07_06_15_59_28.011,3.861,30.9,0,0.76,0,0,0,0, ,0,0,0,0,0, ,-55.9,-49.6,1009.7,-1.9,13.9,2.1,25,120.341,-63.99,947.857,3.6726,37.2408,8.56963,
2026_07_06_15_59_28.031,3.861,30.9,0,0.758,0,0,0,0, ,0,0,0,0,0, ,-69.5,-55,1038.4,-5.1,9.2,4.8,25,109.187,-63.2777,952.5,3.23552,35.6753,8.25765,
2026_07_06_15_59_28.051,3.861,30.9,0,0.759,0,0,0,0, ,0,0,0,0,0, ,-93.2,-52.9,1002.8,-7.1,14.9,5.1,25,97.5764,-62.7093,956.65,2.66664,34.2356,8.05609,
2026_07_06_15_59_28.071,3.861,30.9,0,0.759,0,0,0,0, ,0,0,0,0,0, ,-116.5,-27.3,972.9,-4.3,10.1,2.4,25,85.241,-61.3315,958.551,2.1568,32.9111,7.79369,
2026_07_06_15_59_28.090,3.861,30.9,0,0.759,0,0,0,0, ,0,0,0,0,0, ,-87.4,-55.9,983.1,0.5,1.2,0,25,73.8341,-60.1291,959.737,1.90959,31.2499,7.39188,
2026_07_06_15_59_28.110,3.861,31,0,0.758,0,0,0,0, ,0,0,0,0,0, ,-78.3,-66.7,1031,-0.9,-0.6,0.2,25,64.2862,-60.2005,962.62,1.78103,29.3639,6.94753,
2026_07_06_15_59_28.130,3.861,31,0,0.758,0,0,0,0, ,0,0,0,0,0, ,-103.6,-54.3,1021.9,-6.2,3.6,-0.4,25,54.8265,-60.2187,966.509,1.45617,27.6659,6.51808,
2026_07_06_15_59_28.150,3.861,31,0,0.756,0,0,0,0, ,0,0,0,0,0, ,-92.4,-55,971.5,-4.8,2.6,-2.4,25,45.5136,-59.8794,968.349,1.03228,26.169,6.03557,
2026_07_06_15_59_28.169,3.861,30.9,0,0.758,0,0,0,0, ,0,0,0,0,0, ,-76.6,-54.1,962.6,-0.1,-3.1,-3.8,25,37.5909,-59.5546,968.27,0.82008,24.559,5.47887,
2026_07_06_15_59_28.194,3.861,31,0,0.759,0,0,0,0, ,0,0,0,0,0, ,-65,-52.6,990.2,2,-9.9,-2.4,25,30.9858,-59.1765,968.765,0.827997,22.6664,4.95609,
2026_07_06_15_59_28.209,3.861,30.9,0,0.759,0,0,0,0, ,0,0,0,0,0, ,-72.2,-48.5,1006.3,0.1,-11.5,0.3,25,24.9173,-58.6509,970.562,0.841525,20.6331,4.5901,
2026_07_06_15_59_28.229,3.861,31,0,0.758,0,0,0,0, ,0,0,0,0,0, ,-49.8,-66.6,1028,0.2,-3.2,-1.8,25,19.6817,-58.5838,973.401,0.799385,18.9279,4.26469,
2026_07_06_15_59_28.248,3.861,31,0,0.758,0,0,0,0, ,0,0,0,0,0, ,-42.8,-51.7,1012.9,-3,0,0.4,25,15.661,-58.6183,976.268,0.66536,17.677,3.96215,
2026_07_06_15_59_28.268,3.861,30.9,0,0.759,0,0,0,0, ,0,0,0,0,0, ,-40,-50.6,990.1,-3,1,2.6,25,12.1838,-58.1632,977.806,0.442003,16.6303,3.81211,
2026_07_06_15_59_28.288,3.861,30.9,0,0.759,0,0,0,0, ,0,0,0,0,0, ,-39.9,-48.9,990.6,-0.6,-5.4,6.2,25,9.00691,-57.6505,978.57,0.305381,15.4828,3.84794,
2026_07_06_15_59_28.308,3.861,30.9,0,0.761,0,0,0,0, ,0,0,0,0,0, ,-14.1,-87.8,1032.4,1.3,-21.7,12.4,25,6.81274,-58.3025,980.577,0.3081,13.7136,4.18017,
2026_07_06_15_59_28.326,3.861,30.9,0,0.759,0,0,0,0, ,0,0,0,0,0, ,-53.8,-72.2,1048,-0.7,-40.2,18.5,25,4.32876,-59.6247,984.21,0.307606,10.9919,4.86693,
2026_07_06_15_59_28.348,3.861,31,0,0.759,0,0,0,0, ,0,0,0,0,0, ,-63.8,-61.7,1045.1,0,-57.4,19.3,25,0.48185,-60.0711,988.009,0.267533,7.34835,5.72207,
2026_07_06_15_59_28.366,3.861,30.9,0,0.758,0,0,0,0, ,0,0,0,0,0, ,-25.5,-54.1,1057.2,-4.2,-76.3,20.3,25,-2.26837,-59.9388,991.857,0.123262,2.82689,6.57994,
2026_07_06_15_59_28.388,3.861,31,0,0.759,0,0,0,0, ,0,0,0,0,0, ,17.4,-63.5,1037.9,-5.5,-78.1,19.1,25,-2.37694,-59.8694,995.25,-0.179797,-2.04975,7.37945,
2026_07_06_15_59_28.407,3.861,30.9,0,0.759,0,0,0,0, ,0,0,0,0,0, ,20.2,-35,1033.6,-4.2,-63.7,12,25,-1.08647,-59.2223,997.718,-0.464387,-6.24531,7.87734,
2026_07_06_15_59_28.431,3.861,30.9,0,0.761,0,0,0,0, ,0,0,0,0,0, ,111.8,-61.4,1018.1,0.7,-74.5,8.6,25,3.00161,-58.5506,999.433,-0.542729,-10.0755,8.02497,
2026_07_06_15_59_28.447,3.861,30.9,0,0.758,0,0,0,0, ,0,0,0,0,0, ,172.8,-56.6,1019.5,-4.9,-102.6,14.7,25,11.4901,-58.578,1000.61,-0.637625,-14.8576,8.24587,
2026_07_06_15_59_28.466,3.861,31,0,0.76,0,0,0,0, ,0,0,0,0,0, ,136.5,-46.2,979.6,-0.5,-121.3,21.8,25,20.2139,-58.1406,1000.55,-0.763301,-20.7741,8.8555,
2026_07_06_15_59_28.486,3.861,31,0,0.759,0,0,0,0, ,0,0,0,0,0, ,138.1,-47.6,995.3,6.8,-128.3,20.7,25,27.3488,-57.4556,999.75,-0.524834,-27.1132,9.61079,
2026_07_06_15_59_28.506,3.861,30.9,0,0.759,0,0,0,0, ,0,0,0,0,0, ,129.2,-21.9,992.5,1.5,-125.3,20.5,25,33.8266,-56.072,999.393,-0.239962,-33.1879,10.2804,
2026_07_06_15_59_28.525,3.861,30.9,0,0.759,0,0,0,0, ,0,0,0,0,0, ,208.4,-79.8,1016.7,-2,-113.4,17.4,25,42.0515,-55.7538,999.711,-0.240573,-38.4384,10.8087,
2026_07_06_15_59_28.546,3.861,31,0,0.759,0,0,0,0, ,0,0,0,0,0, ,267.9,-83.3,1006.2,-7.2,-103,14,25,54.0013,-57.3257,1000.43,-0.506226,-42.6895,11.1068,
2026_07_06_15_59_28.566,3.861,30.9,0,0.759,0,0,0,0, ,0,0,0,0,0, ,299.9,-76.9,956.9,-9.1,-98.9,12.7,25,68.0107,-58.7135,999.276,-0.972018,-46.2397,11.2435,
2026_07_06_15_59_28.584,3.861,31,0,0.758,0,0,0,0, ,0,0,0,0,0, ,328.8,-53.9,937.1,-10.1,-96.9,7.7,25,83.022,-59.121,996.09,-1.49779,-49.3878,11.1799,
2026_07_06_15_59_28.605,3.861,30.9,0,0.759,0,0,0,0, ,0,0,0,0,0, ,421,-86.7,956,-12.4,-94.8,2.3,25,100.808,-59.8022,993.071,-2.09206,-52.2191,10.8033,
2026_07_06_15_59_28.624,3.861,30.9,0,0.759,0,0,0,0, ,0,0,0,0,0, ,448.1,-96,945.9,-13.9,-95.6,4.7,25,121.146,-61.7247,990.505,-2.7659,-54.8382,10.3583,
2026_07_06_15_59_28.644,3.861,31,0,0.759,0,0,0,0, ,0,0,0,0,0, ,488.5,-86,901.7,-10.7,-98.7,10.6,25,142.3,-63.5086,986.44,-3.34689,-57.4166,10.1932,
2026_07_06_15_59_28.664,3.861,31,0,0.759,0,0,0,0, ,0,0,0,0,0, ,443.8,-73.3,858.3,-10.7,-104.6,10.8,25,162.035,-64.4922,979.954,-3.79497,-60.1121,10.2241,
2026_07_06_15_59_28.685,3.861,31,0,0.758,0,0,0,0, ,0,0,0,0,0, ,424.3,-71.1,842.2,-9,-113,2.2,25,178.611,-64.9619,972.05,-4.16395,-63.079,9.99718,
2026_07_06_15_59_28.704,3.861,30.8,0,0.758,0,0,0,0, ,0,0,0,0,0, ,499.8,-80.8,832.2,-7.1,-121,-7.1,25,195.883,-65.6315,963.832,-4.40075,-66.3648,9.23868,
2026_07_06_15_59_28.724,3.861,31,0,0.759,0,0,0,0, ,0,0,0,0,0, ,593,-107.2,842.2,-7.8,-122.3,-5.3,25,217.243,-67.3602,956.116,-4.58657,-69.7337,8.29789,
2026_07_06_15_59_28.743,3.861,30.9,0,0.759,0,0,0,0, ,0,0,0,0,0, ,622.4,-124.7,848.5,-11.1,-110.1,2.6,25,241.036,-70.3212,949.366,-4.88293,-72.5653,7.70997,
2026_07_06_15_59_28.762,3.861,31,0,0.758,0,0,0,0, ,0,0,0,0,0, ,553.9,-112.5,802.2,-14.4,-100.4,3.8,25,262.188,-73.2631,941.809,-5.36233,-74.557,7.43514,
2026_07_06_15_59_28.782,3.861,30.9,0,0.762,0,0,0,0, ,0,0,0,0,0, ,609,-108.6,747.8,-15.4,-108.6,-7.7,25,281.643,-75.5353,931.644,-5.94353,-76.3817,6.86324,
2026_07_06_15_59_28.803,3.861,30.9,0,0.758,0,0,0,0, ,0,0,0,0,0, ,684.6,-86,697.3,-14.7,-112.9,-7.8,25,303.895,-76.8616,918.902,-6.49846,-78.476,5.97274,
2026_07_06_15_59_28.823,3.861,31,0,0.759,0,0,0,0, ,0,0,0,0,0, ,718.5,-103.1,677.2,-11.9,-110.5,-2.3,25,328.127,-77.9395,904.786,-6.91293,-80.5006,5.30104,
2026_07_06_15_59_28.842,3.861,31,0,0.759,0,0,0,0, ,0,0,0,0,0, ,680.5,-93,641.6,-8.9,-103.7,-1.9,25,350.758,-79.165,889.833,-7.12542,-82.1215,4.85004,
2026_07_06_15_59_28.862,3.861,30.9,0,0.76,0,0,0,0, ,0,0,0,0,0, ,704.5,-98.7,644.8,-6.7,-96.9,-7.2,25,371.583,-80.1817,874.803,-7.16653,-83.2292,4.27723,
2026_07_06_15_59_28.881,3.861,30.8,0,0.759,0,0,0,0, ,0,0,0,0,0, ,796.7,-126.8,638,-8.8,-90,-6.6,25,394.679,-82.1663,860.58,-7.20208,-83.852,3.59612,
2026_07_06_15_59_28.901,3.861,31,0,0.76,0,0,0,0, ,0,0,0,0,0, ,812.1,-133.1,606.3,-5.2,-92.1,-4,25,419.646,-85.0782,846.051,-7.18977,-84.2907,3.05401,
2026_07_06_15_59_28.922,3.861,30.9,0,0.759,0,0,0,0, ,0,0,0,0,0, ,768.1,-81.1,539.9,-4.7,-105.1,-5,25,442.221,-86.4201,829.418,-7.05328,-85.1626,2.59369,
2026_07_06_15_59_28.940,3.861,30.9,0,0.759,0,0,0,0, ,0,0,0,0,0, ,739.8,-79.1,481,-2.9,-98.3,-6.7,25,461.217,-86.035,809.981,-6.85504,-86.1704,2.07915,
2026_07_06_15_59_28.960,3.861,30.9,0,0.759,0,0,0,0, ,0,0,0,0,0, ,767.3,-86.5,488.8,2.9,-89,-15.9,25,479.031,-85.8379,790.171,-6.43731,-86.6262,1.26386,
2026_07_06_15_59_28.980,3.861,31,0,0.76,0,0,0,0, ,0,0,0,0,0, ,843.1,-97.7,480.5,4.5,-75.7,-14.1,25,498.907,-86.2195,771.554,-5.81957,-86.3656,0.272779,
2026_07_06_15_59_29.000,3.861,31,0,0.76,0,0,0,0, ,0,0,0,0,0, ,880.4,-92.2,456.9,2.2,-58.4,-8.8,25,521.018,-86.7515,753.099,-5.26079,-85.1886,-0.441578,
2026_07_06_15_59_29.020,3.861,31,0,0.759,0,0,0,0, ,0,0,0,0,0, ,870.3,-94.8,425.6,2.9,-55.9,-8.4,25,542.61,-87.1627,734.095,-4.78482,-83.48,-0.938732,
2026_07_06_15_59_29.040,3.861,31,0,0.759,0,0,0,0, ,0,0,0,0,0, ,835.2,-93.3,422.8,8,-72.9,-14,25,561.509,-87.5824,715.211,-4.16114,-82.3173,-1.56403,
2026_07_06_15_59_29.059,3.861,31,0,0.758,0,0,0,0, ,0,0,0,0,0, ,845.5,-77.7,393.4,9.7,-79.9,-18.1,25,578.501,-87.4555,696.496,-3.36827,-81.9567,-2.44677,
2026_07_06_15_59_29.079,3.861,31,0,0.759,0,0,0,0, ,0,0,0,0,0, ,877.3,-77.7,378,7.4,-68.5,-20.6,25,595.74,-86.861,677.557,-2.642,-81.484,-3.47681,
2026_07_06_15_59_29.099,3.861,31,0,0.757,0,0,0,0, ,0,0,0,0,0, ,922.1,-76.1,365.6,4.7,-57.5,-20.1,25,614.263,-86.254,658.925,-2.11234,-80.3576,-4.50502,
2026_07_06_15_59_29.119,3.861,30.9,0,0.759,0,0,0,0, ,0,0,0,0,0, ,941.1,-55.7,323.7,3.6,-57.1,-15.2,25,633.6,-85.0137,639.774,-1.73072,-78.9526,-5.30604,
2026_07_06_15_59_29.139,3.861,30.9,0,0.759,0,0,0,0, ,0,0,0,0,0, ,915,-49.9,285.2,5.7,-58.8,-11.1,25,651.543,-83.0507,619.34,-1.3419,-77.6727,-5.78403,
2026_07_06_15_59_29.159,3.861,30.9,0,0.759,0,0,0,0, ,0,0,0,0,0, ,887.2,-49.6,303.2,4.7,-62.8,-13,25,666.751,-81.0214,599.527,-0.943252,-76.6445,-6.16586,
2026_07_06_15_59_29.179,3.861,31,0,0.759,0,0,0,0, ,0,0,0,0,0, ,916.5,-60,285.2,1.1,-57.4,-16.3,25,681.077,-79.4236,580.921,-0.709054,-75.6364,-6.68287,
2026_07_06_15_59_29.197,3.861,31,0,0.759,0,0,0,0, ,0,0,0,0,0, ,943.8,-52.1,267.7,-3.4,-46.5,-19.3,25,696.255,-77.9992,562.367,-0.735924,-74.193,-7.36032,
2026_07_06_15_59_29.219,3.861,30.9,0,0.758,0,0,0,0, ,0,0,0,0,0, ,947.9,-45.7,261.2,-3.4,-52.2,-18.7,25,711.465,-76.226,544.213,-0.898266,-72.6791,-8.06961,
2026_07_06_15_59_29.238,3.861,31,0,0.76,0,0,0,0, ,0,0,0,0,0, ,937.1,-32.8,203.4,3.5,-67.3,-20.3,25,725.543,-73.9728,525.206,-0.840481,-71.8912,-8.76615,
2026_07_06_15_59_29.257,3.861,31,0,0.76,0,0,0,0, ,0,0,0,0,0, ,942.1,-22.4,183.9,3,-85.9,-24.9,25,738.587,-71.1469,505.002,-0.591217,-72.1782,-9.60915,
2026_07_06_15_59_29.277,3.861,31,0,0.761,0,0,0,0, ,0,0,0,0,0, ,981.3,-31.2,183.3,0.1,-80.5,-24.7,25,752.183,-68.4445,485.416,-0.460737,-72.8498,-10.5348,
2026_07_06_15_59_29.298,3.861,30.9,0,0.758,0,0,0,0, ,0,0,0,0,0, ,993.2,-34.3,179,-2,-67.8,-22.2,25,766.508,-66.2694,466.875,-0.490551,-72.9291,-11.3219,
2026_07_06_15_59_29.317,3.861,30.9,0,0.759,0,0,0,0, ,0,0,0,0,0, ,990.7,-20.8,147.3,-8.2,-40.3,-18.9,25,780.246,-63.9099,448.367,-0.77144,-71.7786,-11.8842,
2026_07_06_15_59_29.337,3.861,30.9,0,0.759,0,0,0,0, ,0,0,0,0,0, ,994.3,-11.5,90.4,-10.3,-27.3,-17.6,25,793.18,-60.9996,428.287,-1.2881,-69.4643,-12.2721,
2026_07_06_15_59_29.357,3.861,30.9,0,0.758,0,0,0,0, ,0,0,0,0,0, ,991,2.6,47.9,-9.2,-21.5,-16.5,25,805.335,-57.5536,406.402,-1.80375,-66.7182,-12.5633,
2026_07_06_15_59_29.378,3.861,31,0,0.758,0,0,0,0, ,0,0,0,0,0, ,994.8,10.9,48.7,-7.2,-17,-17,25,816.765,-53.6351,384.58,-2.19352,-63.8256,-12.8184,
2026_07_06_15_59_29.395,3.861,31,0,0.759,0,0,0,0, ,0,0,0,0,0, ,973.3,32.9,61.1,2.7,-13.6,-9.8,25,826.959,-49.0322,364.49,-2.19696,-60.8686,-12.8538,
2026_07_06_15_59_29.417,3.861,30.9,0,0.758,0,0,0,0, ,0,0,0,0,0, ,1044,6.4,83.3,-0.9,-6.4,-13,25,838.031,-44.8468,346.679,-2.00824,-57.7688,-12.7652,
2026_07_06_15_59_29.436,3.861,30.9,0,0.759,0,0,0,0, ,0,0,0,0,0, ,1045.1,24.5,85.8,-2.4,0.8,-5.3,25,850.615,-41.1725,330.705,-1.98641,-54.4191,-12.5449,
2026_07_06_15_59_29.456,3.861,31,0,0.759,0,0,0,0, ,0,0,0,0,0, ,1014.1,16.1,71,-2.6,3.6,-2.5,25,861.522,-37.4265,315.331,-2.01771,-50.9689,-12.0181,
2026_07_06_15_59_29.476,3.861,30.9,0,0.759,0,0,0,0, ,0,0,0,0,0, ,963.8,37.2,82.5,0.6,-5.9,-6.2,25,869.287,-33.5219,300.792,-1.95569,-47.933,-11.5509,
2026_07_06_15_59_29.495,3.861,30.9,0,0.759,0,0,0,0, ,0,0,0,0,0, ,1002.4,15,105.3,5.2,-8,-6.3,25,876.223,-29.8887,288.185,-1.6598,-45.4356,-11.2278,
2026_07_06_15_59_29.515,3.861,30.9,0,0.759,0,0,0,0, ,0,0,0,0,0, ,1042.9,16.2,115.6,1.5,-4.7,-5.4,25,885.146,-27.1167,277.354,-1.35451,-43.0539,-10.9001,
2026_07_06_15_59_29.535,3.861,31,0,0.761,0,0,0,0, ,0,0,0,0,0, ,1005.2,25.2,90.9,-1.6,1.5,1.4,25,893.61,-24.2029,266.744,-1.27502,-40.5278,-10.3578,
2026_07_06_15_59_29.554,3.861,30.9,0,0.759,0,0,0,0, ,0,0,0,0,0, ,971.3,23.6,87.5,-1.6,2.4,-1.2,25,899.377,-21.2411,255.925,-1.29482,-37.9393,-9.72051,
2026_07_06_15_59_29.574,3.861,30.9,0,0.758,0,0,0,0, ,0,0,0,0,0, ,972.7,19.2,80.5,-1.8,2.3,-4.9,25,903.803,-18.6427,245.449,-1.31951,-35.4841,-9.31402,
2026_07_06_15_59_29.594,3.861,31,0,0.76,0,0,0,0, ,0,0,0,0,0, ,978.6,23.9,93.5,-1.3,-0.6,-7.8,25,908.181,-16.1934,235.793,-1.33356,-33.27,-9.1334,
2026_07_06_15_59_29.614,3.861,31,0,0.759,0,0,0,0, ,0,0,0,0,0, ,1011.8,23.4,113.2,0.6,-3.1,-6.5,25,913.484,-13.7655,227.722,-1.27362,-31.3554,-9.01254,
2026_07_06_15_59_29.633,3.861,31,0,0.758,0,0,0,0, ,0,0,0,0,0, ,1013,29.2,87.2,1.6,-2.3,-2,25,919.511,-11.324,219.951,-1.12898,-29.6092,-8.72232,
2026_07_06_15_59_29.653,3.861,31,0,0.759,0,0,0,0, ,0,0,0,0,0, ,994.2,36.1,83.2,0,2.2,-2.7,25,924.636,-8.64433,211.74,-1.01143,-27.8079,-8.33401,
2026_07_06_15_59_29.673,3.861,30.8,0,0.759,0,0,0,0, ,0,0,0,0,0, ,972,22.9,75.9,-0.8,5.8,-6.2,25,928.198,-6.31991,203.685,-0.974174,-25.8696,-8.09733,
2026_07_06_15_59_29.692,3.861,30.9,0,0.759,0,0,0,0, ,0,0,0,0,0, ,971.4,29.9,90.3,0.1,1.3,-9.4,25,930.849,-4.32604,196.337,-0.936138,-24.0769,-8.07921,
2026_07_06_15_59_29.713,3.861,30.9,0,0.759,0,0,0,0, ,0,0,0,0,0, ,1016.4,35.8,124.5,-0.5,2.7,-15.6,25,934.691,-2.06062,190.917,-0.89128,-22.4878,-8.3486,
2026_07_06_15_59_29.733,3.861,30.9,0,0.76,0,0,0,0, ,0,0,0,0,0, ,1000.8,42.2,156.6,-6.4,16.8,-29.6,25,939.195,0.441509,187.848,-1.0472,-20.5233,-9.21704,
2026_07_06_15_59_29.752,3.861,30.9,0,0.758,0,0,0,0, ,0,0,0,0,0, ,979.7,38.2,91.1,-8.4,12,-31.5,25,942.306,2.86429,183.948,-1.43433,-18.3952,-10.517,
2026_07_06_15_59_29.772,3.861,30.9,0,0.758,0,0,0,0, ,0,0,0,0,0, ,1002.5,56.5,117,-12,-11.1,-37.9,25,945.28,5.57514,179.079,-1.96848,-17.2468,-11.9907,
2026_07_06_15_59_29.792,3.861,30.9,0,0.76,0,0,0,0, ,0,0,0,0,0, ,998.4,41.7,144.8,-12.7,-9.4,-46,25,948.642,8.22744,176.143,-2.60111,-16.8204,-13.8163,
2026_07_06_15_59_29.811,3.861,30.8,0,0.759,0,0,0,0, ,0,0,0,0,0, ,994.1,41,173.3,-18.5,1.3,-52.5,25,951.543,10.2458,175.102,-3.39323,-16.0422,-15.9756,
2026_07_06_15_59_29.832,3.861,30.9,0,0.759,0,0,0,0, ,0,0,0,0,0, ,990.2,71.8,122.4,-20.4,-6.9,-51.6,25,954.017,13.0584,173.441,-4.37169,-15.2353,-18.1738,
2026_07_06_15_59_29.850,3.861,30.9,0,0.758,0,0,0,0, ,0,0,0,0,0, ,928.8,89.7,45.2,-15,-5.7,-62.1,25,954.351,17.1833,167.978,-5.18388,-14.6908,-20.5307,
2026_07_06_15_59_29.872,3.861,30.9,0,0.76,0,0,0,0, ,0,0,0,0,0, ,854.3,115.4,71.6,-11,-0.2,-82.4,25,950.524,22.3854,161.301,-5.66018,-13.9753,-23.6823,
2026_07_06_15_59_29.892,3.861,30.9,0,0.759,0,0,0,0, ,0,0,0,0,0, ,928.5,148.5,117.1,-23,-4.9,-88.8,25,946.921,29.0619,157.221,-6.3512,-13.2791,-27.4554,
2026_07_06_15_59_29.911,3.861,30.9,0,0.759,0,0,0,0, ,0,0,0,0,0, ,928.8,185.7,91.9,-33.3,-2.9,-88.8,25,945.808,37.4736,154.009,-7.67956,-12.7076,-31.1936,
2026_07_06_15_59_29.930,3.861,30.9,0,0.759,0,0,0,0, ,0,0,0,0,0, ,882.6,221.1,64.5,-36.6,8.3,-95,25,943.364,47.5848,149.389,-9.34135,-11.7687,-34.8929,
2026_07_06_15_59_29.950,3.861,30.9,0,0.759,0,0,0,0, ,0,0,0,0,0, ,880.4,259.8,109,-38.2,12.5,-100.9,25,939.594,59.3375,145.572,-11.0512,-10.4178,-38.7354,
2026_07_06_15_59_29.971,3.861,30.9,0,0.758,0,0,0,0, ,0,0,0,0,0, ,931.7,276.4,161.7,-31.3,13.5,-103.2,25,937.55,72.059,144.949,-12.4953,-8.99075,-42.5937,
2026_07_06_15_59_29.990,3.861,30.9,0,0.759,0,0,0,0, ,0,0,0,0,0, ,1006.3,287.3,215.9,-6.3,12.5,-93.7,25,939.467,84.8431,147.621,-12.8795,-7.65069,-45.9974,
2026_07_06_15_59_30.010,3.861,30.9,0,0.761,0,0,0,0, ,0,0,0,0,0, ,1027.8,352.6,145.9,-10.1,17.4,-83.5,25,944.194,99.1699,149.649,-12.5944,-6.27346,-48.5935,
2026_07_06_15_59_30.030,3.861,30.9,0,0.759,0,0,0,0, ,0,0,0,0,0, ,914.4,402.4,74.7,-24.9,16.4,-76.8,25,945.834,116.131,147.251,-12.8933,-4.86132,-50.5165,
2026_07_06_15_59_30.051,3.861,31,0,0.759,0,0,0,0, ,0,0,0,0,0, ,824.3,400.6,56.8,-15.8,21.8,-78.6,25,941.173,133.52,142.285,-13.3477,-3.40118,-52.173,
2026_07_06_15_59_30.074,3.861,30.9,0,0.759,0,0,0,0, ,0,0,0,0,0, ,735.5,465.8,69.2,-8.7,30.9,-90.2,25,931.346,151.782,137.453,-13.2808,-1.58822,-54.1368,
2026_07_06_15_59_30.095,3.861,30.9,0,0.759,0,0,0,0, ,0,0,0,0,0, ,838.8,466.6,218.9,-8.9,25.3,-106.1,25,922.559,170.942,137.855,-13.0077,0.220907,-56.8189,
2026_07_06_15_59_30.108,3.861,30.9,0,0.759,0,0,0,0, ,0,0,0,0,0, ,971.3,449.5,258.7,-12.5,12.1,-94.6,25,921.492,188.438,144.007,-12.8671,1.34698,-59.4715,
2026_07_06_15_59_30.129,3.861,31,0,0.758,0,0,0,0, ,0,0,0,0,0, ,915.4,497.4,177.6,-15,12.2,-74.5,25,922.824,205.806,148.525,-12.9209,2.00529,-60.9998,
2026_07_06_15_59_30.148,3.861,30.9,0,0.76,0,0,0,0, ,0,0,0,0,0, ,766.6,554.8,162.1,-13.4,17.7,-67,25,917.838,225.323,149.824,-12.9989,2.7941,-61.5939,
2026_07_06_15_59_30.169,3.861,30.9,0,0.758,0,0,0,0, ,0,0,0,0,0, ,648.4,547.1,174.6,-17,27.5,-74.8,25,905.02,245.166,150.953,-13.133,4.00103,-62.161,
2026_07_06_15_59_30.188,3.861,30.9,0,0.759,0,0,0,0, ,0,0,0,0,0, ,591.6,558.5,219.4,-20.6,33.2,-93.3,25,887.652,263.913,153.759,-13.4783,5.60667,-63.4949,
2026_07_06_15_59_30.209,3.861,30.9,0,0.76,0,0,0,0, ,0,0,0,0,0, ,762.5,563.8,305,-13.8,15.4,-107,25,874.818,282.026,160.367,-13.7051,6.74579,-65.7285,
2026_07_06_15_59_30.227,3.861,31,0,0.759,0,0,0,0, ,0,0,0,0,0, ,868.2,624.5,260.6,-14.5,4.6,-96.8,25,871.194,301.046,167.828,-13.7322,6.94409,-67.9327,
2026_07_06_15_59_30.249,3.861,30.9,0,0.758,0,0,0,0, ,0,0,0,0,0, ,827.1,671.3,222.6,-25.2,6.1,-76.2,25,869.76,322.182,172.323,-14.105,6.84695,-69.0642,
2026_07_06_15_59_30.266,3.861,30.9,0,0.758,0,0,0,0, ,0,0,0,0,0, ,706.5,693.4,196.8,-32.5,5.6,-65.4,25,863.485,344.13,174.601,-15.0036,6.7862,-69.17,
2026_07_06_15_59_30.288,3.861,30.9,0,0.758,0,0,0,0, ,0,0,0,0,0, ,571.7,687.7,237,-29,18,-72.9,25,849.812,365.24,177.179,-15.9631,7.09173,-69.1687,
2026_07_06_15_59_30.307,3.861,30.9,0,0.758,0,0,0,0, ,0,0,0,0,0, ,521.9,704.7,258.4,-15.9,31.6,-92.6,25,831.347,385.408,181.476,-16.3584,8.17083,-69.9964,
2026_07_06_15_59_30.327,3.861,30.9,0,0.759,0,0,0,0, ,0,0,0,0,0, ,633.1,713.6,276.1,-7.9,25.1,-101.3,25,815.878,405.136,186.703,-16.0867,9.4005,-71.6388,
2026_07_06_15_59_30.346,3.861,30.9,0,0.76,0,0,0,0, ,0,0,0,0,0, ,693.7,759.8,284.1,-14.1,15.8,-95.2,25,806.587,425.34,192.394,-15.7767,10.0738,-73.2605,
2026_07_06_15_59_30.366,3.861,30.9,0,0.76,0,0,0,0, ,0,0,0,0,0, ,664,766.3,280.3,-15.3,16.7,-86.7,25,798.803,445.92,197.867,-15.7111,10.4502,-74.3384,
2026_07_06_15_59_30.386,3.861,30.9,0,0.758,0,0,0,0, ,0,0,0,0,0, ,549.9,799.5,276.9,-15.6,15.4,-80.7,25,787.112,466.454,202.787,-15.6952,10.7914,-74.9089,
2026_07_06_15_59_30.406,3.861,30.9,0,0.759,0,0,0,0, ,0,0,0,0,0, ,450.5,824,298.5,-10.7,21.6,-87,25,769.628,487.496,207.961,-15.5401,11.2612,-75.4537,
2026_07_06_15_59_30.425,3.861,30.9,0,0.759,0,0,0,0, ,0,0,0,0,0, ,413.8,811.5,317.3,-6,38.2,-95.9,25,749.063,507.621,214.051,-15.102,12.397,-76.4285,
2026_07_06_15_59_30.448,3.861,31,0,0.759,0,0,0,0, ,0,0,0,0,0, ,452.3,824.4,316.5,-9.4,46,-91.5,25,729.806,526.531,220.318,-14.6509,14.207,-77.481,
2026_07_06_15_59_30.464,3.861,30.9,0,0.759,0,0,0,0, ,0,0,0,0,0, ,468.1,845.2,309.2,-10.4,42.3,-85.8,25,713.377,545.316,225.957,-14.3614,16.0316,-78.1616,
2026_07_06_15_59_30.486,3.861,31,0,0.758,0,0,0,0, ,0,0,0,0,0, ,430.6,851.8,348.1,-12.7,31.7,-90,25,697.288,563.792,232.215,-14.1901,17.3094,-78.755,
2026_07_06_15_59_30.505,3.861,31,0,0.759,0,0,0,0, ,0,0,0,0,0, ,398.6,843.8,371.5,-14.9,24.4,-92.3,25,680.061,581.098,239.99,-14.1663,17.9639,-79.5104,
2026_07_06_15_59_30.524,3.861,30.8,0,0.759,0,0,0,0, ,0,0,0,0,0, ,387.5,857.7,380.8,-9.4,37.9,-88.4,25,662.572,597.53,248.287,-14.0434,18.7674,-80.1709,
2026_07_06_15_59_30.544,3.861,30.9,0,0.758,0,0,0,0, ,0,0,0,0,0, ,395.6,852.4,383.4,-5,43.7,-77,25,646.056,613.223,256.441,-13.6264,20.11,-80.325,
2026_07_06_15_59_30.564,3.861,30.9,0,0.761,0,0,0,0, ,0,0,0,0,0, ,411.7,858.7,402.3,4.3,44.1,-69.2,25,631.285,627.99,264.753,-12.8174,21.5597,-79.8847,
2026_07_06_15_59_30.583,3.861,30.9,0,0.758,0,0,0,0, ,0,0,0,0,0, ,372.5,854.4,405.6,10.8,45.7,-69,25,616.709,641.918,273.236,-11.5763,22.982,-79.2275,
2026_07_06_15_59_30.604,3.861,30.9,0,0.758,0,0,0,0, ,0,0,0,0,0, ,351.5,861.2,412.1,8.7,32.1,-64.4,25,601.188,655.073,281.5,-10.2767,23.952,-78.4641,
2026_07_06_15_59_30.622,3.861,30.9,0,0.759,0,0,0,0, ,0,0,0,0,0, ,347.2,862.6,409.5,5.3,24.9,-58.5,25,585.842,667.677,289.379,-9.22388,24.2292,-77.4273,
2026_07_06_15_59_30.646,3.861,30.8,0,0.758,0,0,0,0, ,0,0,0,0,0, ,327.7,892.4,402.8,3.1,24.3,-45.7,25,570.705,680.463,296.495,-8.40587,24.2518,-75.884,
2026_07_06_15_59_30.663,3.861,30.9,0,0.76,0,0,0,0, ,0,0,0,0,0, ,247.1,921,369.2,5.8,34.6,-39.3,25,553.441,694.249,301.949,-7.62246,24.5685,-73.8496,
2026_07_06_15_59_30.685,3.861,31,0,0.76,0,0,0,0, ,0,0,0,0,0, ,224.8,889.8,352.9,7.6,35.9,-36.7,25,534.094,707.116,305.55,-6.74969,25.2195,-71.665,
2026_07_06_15_59_30.702,3.861,30.9,0,0.758,0,0,0,0, ,0,0,0,0,0, ,250.6,890.1,358.3,4.7,18.7,-31.4,25,516.033,718.257,308.6,-5.96361,25.3462,-69.3729,
2026_07_06_15_59_30.722,3.861,30.9,0,0.76,0,0,0,0, ,0,0,0,0,0, ,276.7,896.9,364.8,9.5,16,-24.8,25,500.653,728.936,311.827,-5.16755,24.859,-66.8578,
2026_07_06_15_59_30.742,3.861,31,0,0.759,0,0,0,0, ,0,0,0,0,0, ,250.2,891.3,369.5,6.5,16.1,-14.3,25,486.199,739.001,315.198,-4.36515,24.3222,-63.975,
2026_07_06_15_59_30.763,3.861,30.9,0,0.76,0,0,0,0, ,0,0,0,0,0, ,192.5,890,367.5,3.5,12.6,-8.1,25,470.059,748.242,318.446,-3.79446,23.7145,-60.759,
2026_07_06_15_59_30.781,3.861,30.9,0,0.761,0,0,0,0, ,0,0,0,0,0, ,141.7,908.9,355.4,2.4,11.8,-9.9,25,451.598,757.456,321.067,-3.38347,23.0128,-57.6049,
2026_07_06_15_59_30.803,3.861,30.9,0,0.759,0,0,0,0, ,0,0,0,0,0, ,133.1,918,372.9,1.6,9.5,-15.1,25,432.451,766.962,323.692,-3.05542,22.2595,-54.8564,
2026_07_06_15_59_30.820,3.861,31,0,0.758,0,0,0,0, ,0,0,0,0,0, ,169.3,910.1,385.7,-1.3,6.2,-16.3,25,415.313,775.925,327.081,-2.86009,21.3814,-52.4703,
2026_07_06_15_59_30.843,3.861,31,0,0.759,0,0,0,0, ,0,0,0,0,0, ,177.4,930.7,377.3,0.7,13.4,-12.3,25,400.568,784.729,330.397,-2.70408,20.6756,-50.1443,
2026_07_06_15_59_30.861,3.861,30.9,0,0.759,0,0,0,0, ,0,0,0,0,0, ,153.4,937.2,361.4,0.7,12.7,-8.9,25,386.237,793.822,332.771,-2.49665,20.211,-47.7345,
2026_07_06_15_59_30.881,3.861,30.9,0,0.759,0,0,0,0, ,0,0,0,0,0, ,167.7,927.7,360.5,0.6,3.2,-9.5,25,372.485,802.27,334.488,-2.3049,19.4638,-45.3863,
2026_07_06_15_59_30.900,3.861,30.9,0,0.759,0,0,0,0, ,0,0,0,0,0, ,217.8,917.2,362,-0.8,-3.1,-6.2,25,361.532,809.593,336.119,-2.17054,18.2808,-43.099,
2026_07_06_15_59_30.922,3.861,30.9,0,0.758,0,0,0,0, ,0,0,0,0,0, ,226.8,918.8,383.5,-0.4,-3,0.6,25,353.048,816.199,338.351,-2.07483,16.9809,-40.6433,
2026_07_06_15_59_30.940,3.861,30.9,0,0.757,0,0,0,0, ,0,0,0,0,0, ,171.8,931.8,383.4,0.4,-12.8,10.7,25,343.679,822.848,341.099,-1.9484,15.4648,-37.8223,
2026_07_06_15_59_30.963,3.861,31,0,0.762,0,0,0,0, ,0,0,0,0,0, ,80.4,934.3,372.3,0.9,-3.3,5,25,330.42,829.563,343.339,-1.79006,14.0318,-35.0391,
2026_07_06_15_59_30.978,3.861,30.9,0,0.759,0,0,0,0, ,0,0,0,0,0, ,98,923.8,385.9,-0.9,8.4,-4.7,25,315.721,835.626,345.518,-1.68097,13.3321,-32.8948,
2026_07_06_15_59_31.000,3.861,30.9,0,0.76,0,0,0,0, ,0,0,0,0,0, ,162.9,917.7,366.6,-4.6,1.1,-2.1,25,304.431,840.813,347.391,-1.74612,12.8092,-31.0974,
2026_07_06_15_59_31.024,3.861,30.9,0,0.759,0,0,0,0, ,0,0,0,0,0, ,177.4,900.8,360.4,-0.8,0.8,-2.9,25,296.248,844.983,348.372,-1.80425,12.0865,-29.3548,
2026_07_06_15_59_31.047,3.861,31,0,0.76,0,0,0,0, ,0,0,0,0,0, ,128.6,901.7,381.9,2.8,5.6,-6,25,287.519,848.412,349.76,-1.63336,11.545,-27.8371,
2026_07_06_15_59_31.058,3.861,30.9,0,0.759,0,0,0,0, ,0,0,0,0,0, ,138.1,920.7,387,-3.3,1.6,-5,25,278.124,852.238,351.874,-1.54906,11.0608,-26.476,
2026_07_06_15_59_31.080,3.861,30.9,0,0.759,0,0,0,0, ,0,0,0,0,0, ,147.7,931.7,379.3,-4.3,-1,-3.7,25,269.884,856.745,353.78,-1.68623,10.4051,-25.1277,
2026_07_06_15_59_31.098,3.861,30.9,0,0.758,0,0,0,0, ,0,0,0,0,0, ,128.2,919.5,362.7,-1.8,4,-4.1,25,261.844,860.941,354.829,-1.76933,9.86244,-23.8341,
2026_07_06_15_59_31.119,3.861,30.9,0,0.759,0,0,0,0, ,0,0,0,0,0, ,132.2,913.9,361.5,-0.5,4.8,-6.5,25,253.822,864.339,355.272,-1.73159,9.52958,-22.7047,
2026_07_06_15_59_31.137,3.861,30.9,0,0.758,0,0,0,0, ,0,0,0,0,0, ,160.4,915.4,370.1,0.9,0.9,-6.8,25,247.27,867.405,355.914,-1.61389,9.12254,-21.7264,
2026_07_06_15_59_31.159,3.861,30.9,0,0.758,0,0,0,0, ,0,0,0,0,0, ,160.1,912.9,383.6,3,3.4,-4.7,25,241.967,870.253,357.19,-1.39671,8.69765,-20.7528,
2026_07_06_15_59_31.176,3.861,30.9,0,0.759,0,0,0,0, ,0,0,0,0,0, ,128.7,899.1,385.9,1.1,1.2,-5.5,25,236.022,872.432,358.869,-1.18668,8.30779,-19.799,
2026_07_06_15_59_31.200,3.861,31,0,0.759,0,0,0,0, ,0,0,0,0,0, ,107.5,909,385.9,0.5,-1.4,-7.7,25,228.836,874.358,360.516,-1.06562,7.79544,-18.9946,
2026_07_06_15_59_31.216,3.861,30.9,0,0.759,0,0,0,0, ,0,0,0,0,0, ,117.1,917.4,380.2,-1,3.2,-8.9,25,221.734,876.725,361.89,-1.01591,7.37525,-18.3429,
2026_07_06_15_59_31.238,3.861,31,0,0.759,0,0,0,0, ,0,0,0,0,0, ,141.8,920.5,377.3,-2.4,7.8,-9.1,25,216.111,879.298,362.917,-1.0576,7.26098,-17.7736,
2026_07_06_15_59_31.255,3.861,31,0,0.758,0,0,0,0, ,0,0,0,0,0, ,155.5,916.9,378.2,-2.8,6.5,-8.7,25,212,881.699,363.821,-1.15159,7.25422,-17.2329,
2026_07_06_15_59_31.279,3.861,30.9,0,0.76,0,0,0,0, ,0,0,0,0,0, ,162.5,916.1,382.8,-3,3.3,-6.3,25,208.77,883.82,364.837,-1.25813,7.11076,-16.6398,
2026_07_06_15_59_31.295,3.861,31,0,0.759,0,0,0,0, ,0,0,0,0,0, ,149.9,919.7,380,-3.8,2.5,-2.2,25,205.567,885.897,365.847,-1.38865,6.85416,-15.8848,
2026_07_06_15_59_31.318,3.861,30.9,0,0.759,0,0,0,0, ,0,0,0,0,0, ,128,926.1,371.3,-4.7,-3.9,-1.2,25,201.507,888.152,366.444,-1.56302,6.39383,-15.0204,
2026_07_06_15_59_31.335,3.861,30.9,0,0.759,0,0,0,0, ,0,0,0,0,0, ,120.7,922.3,366.6,-2.6,-3.1,-2.5,25,196.806,890.348,366.597,-1.69019,5.79093,-14.2178,
2026_07_06_15_59_31.357,3.861,30.9,0,0.758,0,0,0,0, ,0,0,0,0,0, ,114,916.1,367.3,0.5,2.7,-1.2,25,191.964,892.107,366.618,-1.65118,5.42585,-13.4642,
2026_07_06_15_59_31.374,3.861,30.9,0,0.759,0,0,0,0, ,0,0,0,0,0, ,122,918.8,368.4,-1.4,1.6,-1.2,25,187.457,893.651,366.693,-1.57798,5.22623,-12.7168,
2026_07_06_15_59_31.397,3.861,31,0,0.76,0,0,0,0, ,0,0,0,0,0, ,147.2,913.9,371.3,-2.3,-1.8,-1.9,25,184.236,895.034,366.886,-1.59456,4.90167,-12.0363,
2026_07_06_15_59_31.414,3.861,30.9,0,0.759,0,0,0,0, ,0,0,0,0,0, ,121,920.2,378.2,-1.3,-4.6,-0.2,25,181.18,896.376,367.365,-1.60708,4.40797,-11.3668,
2026_07_06_15_59_31.436,3.861,30.9,0,0.759,0,0,0,0, ,0,0,0,0,0, ,59.4,931.3,382.8,1.6,0,-2.8,25,175.636,898.166,368.165,-1.50001,3.9992,-10.7656,
2026_07_06_15_59_31.455,3.861,30.9,0,0.76,0,0,0,0, ,0,0,0,0,0, ,77.8,928.2,378.9,0.3,6.4,-6.3,25,169.114,900.09,368.938,-1.35071,3.9505,-10.3868,
2026_07_06_15_59_31.477,3.861,30.9,0,0.759,0,0,0,0, ,0,0,0,0,0, ,143.9,907.1,378.2,-0.1,6.6,-5.7,25,165.563,901.16,369.524,-1.26231,4.10586,-10.1195,
2026_07_06_15_59_31.493,3.861,30.9,0,0.759,0,0,0,0, ,0,0,0,0,0, ,152,903.9,373.2,2,4.5,-3.6,25,164.49,901.425,369.9,-1.12749,4.19386,-9.78621,
2026_07_06_15_59_31.516,3.861,30.9,0,0.76,0,0,0,0, ,0,0,0,0,0, ,99.1,916.6,382,2.7,5.2,-6.5,25,162.117,901.963,370.37,-0.915585,4.23385,-9.49759,
2026_07_06_15_59_31.532,3.861,31,0,0.758,0,0,0,0, ,0,0,0,0,0, ,112,923.9,376.9,-2,1.7,-9,25,158.67,903.077,370.923,-0.838463,4.18608,-9.3911,
2026_07_06_15_59_31.556,3.861,30.9,0,0.759,0,0,0,0, ,0,0,0,0,0, ,163.4,919.5,371.2,-5.1,-3.1,-6.7,25,157.392,904.212,371.113,-1.0037,3.88834,-9.29719,
2026_07_06_15_59_31.573,3.861,31,0,0.759,0,0,0,0, ,0,0,0,0,0, ,152.5,928.8,365.4,-0.9,-1.7,-1.7,25,157.426,905.427,370.942,-1.12535,3.50514,-8.98658,
2026_07_06_15_59_31.595,3.861,31,0,0.759,0,0,0,0, ,0,0,0,0,0, ,94.4,926.6,366,3.7,7.2,-0.3,25,155.356,906.784,370.623,-0.971459,3.45912,-8.4999,
2026_07_06_15_59_31.612,3.861,31,0,0.758,0,0,0,0, ,0,0,0,0,0, ,79.8,920.6,371.7,2.1,3.6,-4.8,25,151.196,907.809,370.515,-0.735542,3.5774,-8.13732,
2026_07_06_15_59_31.634,3.861,31,0,0.759,0,0,0,0, ,0,0,0,0,0, ,131.4,907.8,385.3,-0.7,-1.8,-6.7,25,148.418,908.198,371.001,-0.648064,3.41424,-7.99185,
2026_07_06_15_59_31.651,3.861,31,0,0.758,0,0,0,0, ,0,0,0,0,0, ,157.4,904.7,392,-0.8,-0.5,-2.3,25,148.173,908.08,372.077,-0.654275,3.13611,-7.77906,
2026_07_06_15_59_31.674,3.861,30.9,0,0.759,0,0,0,0, ,0,0,0,0,0, ,124.7,911.9,386.2,-1.8,2.2,-0.1,25,147.739,908.093,373.114,-0.693624,2.9968,-7.37815,
2026_07_06_15_59_31.694,3.861,31,0,0.759,0,0,0,0, ,0,0,0,0,0, ,104.3,906.4,386.7,-3.1,0.2,-2,25,145.714,908.157,373.927,-0.800653,2.88731,-6.99253,
2026_07_06_15_59_31.718,3.861,30.9,0,0.759,0,0,0,0, ,0,0,0,0,0, ,107.5,910.4,383.1,-4.3,-1.4,-2.3,25,143.287,908.172,374.595,-0.977332,2.6748,-6.69744,
2026_07_06_15_59_31.731,3.861,30.9,0,0.76,0,0,0,0, ,0,0,0,0,0, ,117.3,914,379,-6.1,-3.9,-2.1,25,141.405,908.418,374.989,-1.23465,2.35032,-6.42338,
2026_07_06_15_59_31.753,3.861,31,0,0.76,0,0,0,0, ,0,0,0,0,0, ,112.9,917.1,372.8,-5.2,-4.4,-2.8,25,139.802,908.852,375.044,-1.50371,1.95421,-6.18125,
2026_07_06_15_59_31.770,3.861,30.9,0,0.759,0,0,0,0, ,0,0,0,0,0, ,102.9,904.6,377.4,-1.1,1.2,-2.5,25,137.858,908.974,375.048,-1.60403,1.73762,-5.96606,
2026_07_06_15_59_31.794,3.861,31,0,0.759,0,0,0,0, ,0,0,0,0,0, ,96.3,903.1,379.7,-0.7,0.4,-2.4,25,135.527,908.662,375.261,-1.56113,1.68049,-5.7518,
2026_07_06_15_59_31.810,3.861,30.9,0,0.759,0,0,0,0, ,0,0,0,0,0, ,113.2,911.8,384.3,-1.8,0.6,-3.2,25,133.651,908.588,375.672,-1.54217,1.60855,-5.57193,
2026_07_06_15_59_31.832,3.861,31,0,0.758,0,0,0,0, ,0,0,0,0,0, ,124.2,919.6,372.9,-2.4,-0.5,-2.1,25,132.74,909.021,375.85,-1.57616,1.51358,-5.39387,
2026_07_06_15_59_31.849,3.861,30.9,0,0.759,0,0,0,0, ,0,0,0,0,0, ,106.8,916.1,373.2,-0.5,-0.3,-2.3,25,131.69,909.559,375.679,-1.56848,1.39697,-5.19925,
2026_07_06_15_59_31.873,3.861,30.9,0,0.759,0,0,0,0, ,0,0,0,0,0, ,92.5,914.9,378.4,-0.4,-1,-3.6,25,129.737,909.921,375.687,-1.50032,1.27223,-5.06218,
2026_07_06_15_59_31.889,3.861,31.1,0,0.759,0,0,0,0, ,0,0,0,0,0, ,94.6,906.7,390.1,-1.7,-2.2,-4.2,25,127.532,909.975,376.209,-1.47288,1.0972,-4.99136,
2026_07_06_15_59_31.911,3.861,30.9,0,0.759,0,0,0,0, ,0,0,0,0,0, ,108.6,907.1,389.6,-2.8,-1.6,-3.4,25,125.952,909.787,377.04,-1.52023,0.914561,-4.91876,
2026_07_06_15_59_31.929,3.861,31,0,0.758,0,0,0,0, ,0,0,0,0,0, ,132,915.8,380.7,-3.8,-4.6,-1.1,25,125.607,909.889,377.534,-1.62869,0.669924,-4.75614,
2026_07_06_15_59_31.952,3.861,31,0,0.759,0,0,0,0, ,0,0,0,0,0, ,173.3,920.7,388,-0.9,-7.9,1.4,25,127.255,910.398,377.949,-1.67264,0.248241,-4.45717,
2026_07_06_15_59_31.968,3.861,31,0,0.759,0,0,0,0, ,0,0,0,0,0, ,219.3,923.9,409,-2.7,-17.8,6.3,25,131.463,911.124,379.202,-1.6804,-0.549933,-3.95095,
2026_07_06_15_59_31.991,3.861,31,0,0.758,0,0,0,0, ,0,0,0,0,0, ,223.7,943.3,404.1,-6.7,-17.1,18.8,25,136.949,912.493,380.868,-1.86441,-1.57978,-2.94542,
2026_07_06_15_59_32.007,3.861,31,0,0.759,0,0,0,0, ,0,0,0,0,0, ,183.9,953.1,401.3,-13.2,-19.4,29.8,25,141.023,914.669,382.199,-2.35713,-2.59562,-1.28516,
2026_07_06_15_59_32.032,3.861,30.9,0,0.761,0,0,0,0, ,0,0,0,0,0, ,199.2,940.7,397,-20.1,-28.1,37.3,25,144.102,916.633,383.232,-3.2281,-3.88472,0.837612,
2026_07_06_15_59_32.051,3.861,31.1,0,0.757,0,0,0,0, ,0,0,0,0,0, ,285.5,923.3,397.3,-24.1,-46.9,49.9,25,150.089,917.57,384.08,-4.3781,-5.93315,3.44344,
2026_07_06_15_59_32.074,3.861,31,0,0.758,0,0,0,0, ,0,0,0,0,0, ,343.2,932.9,390,-17.8,-60.1,64.3,25,160.099,918.211,384.663,-5.38795,-8.83175,6.71314,
2026_07_06_15_59_32.086,3.861,31,0,0.758,0,0,0,0, ,0,0,0,0,0, ,369.6,926.2,391.4,-13.2,-61.3,84.4,25,172.061,918.902,385.031,-6.00416,-11.9925,10.8348,
2026_07_06_15_59_32.111,3.861,31,0,0.759,0,0,0,0, ,0,0,0,0,0, ,308.9,941.7,374.1,-5.2,-50.2,99.2,25,182.249,919.819,384.892,-6.1989,-14.6589,15.7686,
2026_07_06_15_59_32.126,3.861,31,0,0.759,0,0,0,0, ,0,0,0,0,0, ,279.2,912.1,382.8,7.6,-52.8,99.6,25,189.062,920.251,384.499,-5.74803,-16.9039,20.8649,
2026_07_06_15_59_32.149,3.861,31,0,0.759,0,0,0,0, ,0,0,0,0,0, ,349.9,867.5,425.7,-0.2,-70.7,101.5,25,196.709,918.395,385.703,-5.17229,-19.6368,25.7207,
2026_07_06_15_59_32.166,3.861,31,0,0.759,0,0,0,0, ,0,0,0,0,0, ,370.1,772.5,394.1,-9.7,-70.9,133.5,25,206.659,912.399,387.177,-5.15875,-22.7545,31.3135,
2026_07_06_15_59_32.190,3.861,30.9,0,0.759,0,0,0,0, ,0,0,0,0,0, ,326.2,843.5,403.5,-10.7,-43.3,114.9,25,215.281,906.037,387.886,-5.46595,-24.8474,36.9738,
2026_07_06_15_59_32.205,3.861,31,0,0.76,0,0,0,0, ,0,0,0,0,0, ,378,813.4,387,-5.5,-42,99.1,25,223.619,901.309,388.334,-5.62646,-25.9323,41.241,
2026_07_06_15_59_32.231,3.861,30.9,0,0.759,0,0,0,0, ,0,0,0,0,0, ,374.7,781.9,388.9,-5,-29.8,97,25,232.926,894.993,388.311,-5.60352,-26.5397,44.7028,
2026_07_06_15_59_32.245,3.861,30.9,0,0.759,0,0,0,0, ,0,0,0,0,0, ,408.4,785.8,391.2,3.3,-11,91.5,25,242.592,888.22,388.417,-5.31385,-26.1656,47.7221,
2026_07_06_15_59_32.270,3.861,31,0,0.759,0,0,0,0, ,0,0,0,0,0, ,474.2,769.8,371.5,-10.5,-15.9,83.4,25,254.701,881.491,387.986,-5.20941,-25.3907,50.143,
2026_07_06_15_59_32.285,3.861,31,0,0.759,0,0,0,0, ,0,0,0,0,0, ,571,743.1,348.3,-21.9,-29.1,84.7,25,271.026,873.871,386.275,-5.87915,-25.2145,52.2092,
2026_07_06_15_59_32.308,3.861,30.9,0,0.759,0,0,0,0, ,0,0,0,0,0, ,627.3,729.2,330.6,-21,-23.7,90,25,291.021,865.479,383.421,-6.828,-25.2868,54.3506,
2026_07_06_15_59_32.324,3.861,31,0,0.758,0,0,0,0, ,0,0,0,0,0, ,674,698.6,310.6,-13.4,-21.1,93.6,25,312.936,856.242,379.593,-7.46005,-25.1109,56.6327,
2026_07_06_15_59_32.347,3.861,30.9,0,0.76,0,0,0,0, ,0,0,0,0,0, ,661.1,707.5,305.4,-9.4,-28,96.4,25,334.545,846.907,375.231,-7.70014,-25.0767,58.9707,
2026_07_06_15_59_32.364,3.861,30.9,0,0.759,0,0,0,0, ,0,0,0,0,0, ,630.6,663.9,340.8,-2.8,-24.7,91.2,25,353.515,837.084,372.054,-7.60263,-25.1543,61.0931,
2026_07_06_15_59_32.388,3.861,31,0,0.757,0,0,0,0, ,0,0,0,0,0, ,691.2,599.1,337.2,-4.9,-17.8,95.7,25,372.247,824.556,370.04,-7.37395,-24.9164,63.0648,
2026_07_06_15_59_32.404,3.861,31,0,0.759,0,0,0,0, ,0,0,0,0,0, ,770.2,612.9,322.6,-8.3,-29.2,106.7,25,394.09,811.238,367.594,-7.32679,-24.8301,65.3887,
2026_07_06_15_59_32.434,3.861,30.9,0,0.759,0,0,0,0, ,0,0,0,0,0, ,763.9,598.1,294.3,-13.8,-41.4,110.2,25,416.817,798.7,363.99,-7.55367,-25.4681,68.0127,
2026_07_06_15_59_32.443,3.861,31,0,0.758,0,0,0,0, ,0,0,0,0,0, ,744.9,565.4,299.9,-8.2,-41.4,106.2,25,437.388,785.48,359.913,-7.76368,-26.4389,70.4616,
2026_07_06_15_59_32.467,3.861,31,0,0.759,0,0,0,0, ,0,0,0,0,0, ,766.7,502.4,312,-0.1,-33.4,98.6,25,456.792,770.149,356.625,-7.54347,-27.1069,72.4079,
2026_07_06_15_59_32.483,3.861,31,0,0.76,0,0,0,0, ,0,0,0,0,0, ,817,496,292.1,4.2,-29.3,94.4,25,477.209,753.638,353.299,-6.95887,-27.3654,73.876,
2026_07_06_15_59_32.506,3.861,31,0,0.759,0,0,0,0, ,0,0,0,0,0, ,854.1,464.4,270.5,6.9,-29.1,98.1,25,499.046,736.976,348.912,-6.19661,-27.4772,75.2394,
2026_07_06_15_59_32.522,3.861,30.9,0,0.759,0,0,0,0, ,0,0,0,0,0, ,847,421.1,275.2,8.4,-34.1,100.2,25,520.465,719.046,344.277,-5.35283,-27.7285,76.6965,
2026_07_06_15_59_32.547,3.861,31,0,0.759,0,0,0,0, ,0,0,0,0,0, ,792.7,413.9,272.8,13.1,-35.5,99.1,25,538.709,700.671,339.994,-4.37157,-28.1594,78.0952,
2026_07_06_15_59_32.561,3.861,31,0,0.759,0,0,0,0, ,0,0,0,0,0, ,801.5,387.5,286.1,17.1,-34.3,95.6,25,554.455,682.391,336.305,-3.18502,-28.5701,79.2685,
2026_07_06_15_59_32.586,3.861,31,0,0.76,0,0,0,0, ,0,0,0,0,0, ,855.7,336,271.8,26,-23.4,88.4,25,571.161,662.852,332.81,-1.67773,-28.5872,80.0444,
2026_07_06_15_59_32.601,3.861,30.9,0,0.76,0,0,0,0, ,0,0,0,0,0, ,875.6,326,246.3,32.1,-12.2,85.8,25,589.106,642.63,328.315,0.194741,-27.9298,80.4743,
2026_07_06_15_59_32.625,3.861,31.1,0,0.759,0,0,0,0, ,0,0,0,0,0, ,908.5,306.6,212.6,27,-11.9,69.9,25,607.567,622.744,322.291,1.98358,-26.9622,80.3144,
2026_07_06_15_59_32.641,3.861,30.9,0,0.76,0,0,0,0, ,0,0,0,0,0, ,868.8,291,214.4,8.3,-12.1,64.6,25,624.695,603.004,315.661,2.93825,-26.0504,79.5183,
2026_07_06_15_59_32.664,3.861,31,0,0.759,0,0,0,0, ,0,0,0,0,0, ,906.3,241.9,246.8,19.9,-11.8,64.8,25,640.713,582.495,310.478,3.61842,-25.1912,78.6153,
2026_07_06_15_59_32.680,3.861,31,0,0.759,0,0,0,0, ,0,0,0,0,0, ,947.8,208.1,244.6,28.2,-14.9,71,25,658.162,560.71,306.53,4.86347,-24.4696,77.9623,
2026_07_06_15_59_32.704,3.861,31,0,0.759,0,0,0,0, ,0,0,0,0,0, ,921.2,218.1,202.6,20.1,-7.2,62.1,25,675.001,539.528,301.477,6.03874,-23.6518,77.2669,
2026_07_06_15_59_32.720,3.861,30.9,0,0.759,0,0,0,0, ,0,0,0,0,0, ,913.3,200.4,195.6,15.4,2.5,51.1,25,689.763,519.402,295.238,6.7524,-22.3538,76.0075,
2026_07_06_15_59_32.745,3.861,31,0,0.757,0,0,0,0, ,0,0,0,0,0, ,957.2,171.6,190.7,20.8,-1.1,47.4,25,704.722,499.085,289.017,7.44389,-20.9489,74.377,
2026_07_06_15_59_32.760,3.861,31.1,0,0.762,0,0,0,0, ,0,0,0,0,0, ,952,148.6,193.2,11.7,-13.6,44,25,719.949,478.428,283.102,7.98051,-20.1202,72.6295,
2026_07_06_15_59_32.784,3.861,31,0,0.758,0,0,0,0, ,0,0,0,0,0, ,872.9,156.9,194.5,10.6,-13.3,38.1,25,731.68,458.582,277.663,8.17365,-19.7138,70.7051,
2026_07_06_15_59_32.802,3.861,31,0,0.758,0,0,0,0, ,0,0,0,0,0, ,840.8,138.7,196.2,19.9,-5.6,30.6,25,739.307,439.644,272.647,8.60487,-19.0883,68.4897,
2026_07_06_15_59_32.827,3.861,31,0,0.76,0,0,0,0, ,0,0,0,0,0, ,889.6,124,190.1,35.9,0,22.1,25,746.979,420.857,267.803,9.78066,-18.0958,65.9218,
2026_07_06_15_59_32.839,3.861,31,0,0.759,0,0,0,0, ,0,0,0,0,0, ,956.4,108.2,176.7,34.6,3.2,18.2,25,757.705,402.286,262.66,11.3327,-16.8955,63.1326,
2026_07_06_15_59_32.865,3.861,31,0,0.758,0,0,0,0, ,0,0,0,0,0, ,965,125.2,164.1,43.4,5,24.2,25,770.075,384.883,257.038,13.0187,-15.6161,60.5773,
2026_07_06_15_59_32.878,3.861,31,0,0.759,0,0,0,0, ,0,0,0,0,0, ,941.6,106.2,187.9,32.2,2.5,17.5,25,781.24,368.48,252.099,14.5288,-14.436,58.1564,
2026_07_06_15_59_32.904,3.861,31,0,0.759,0,0,0,0, ,0,0,0,0,0, ,909.6,112.6,197.3,29.6,14.4,10.3,25,790.037,352.692,248.474,15.5264,-13.0414,55.4596,
2026_07_06_15_59_32.918,3.861,30.9,0,0.758,0,0,0,0, ,0,0,0,0,0, ,915.5,106.2,237.7,29.5,20.3,5.8,25,797.503,337.866,246.586,16.381,-11.1894,52.5705,
2026_07_06_15_59_32.942,3.861,30.9,0,0.758,0,0,0,0, ,0,0,0,0,0, ,1030.7,87.4,224.4,27.9,9.7,3.5,25,808.203,323.176,245.639,17.1317,-9.59349,49.6504,
2026_07_06_15_59_32.957,3.861,30.9,0,0.759,0,0,0,0, ,0,0,0,0,0, ,1039.9,95.2,192.5,21.4,3,10.5,25,822.042,309.046,243.373,17.5898,-8.62194,47.0514,
2026_07_06_15_59_32.982,3.861,31,0,0.758,0,0,0,0, ,0,0,0,0,0, ,979.2,104.7,198.4,17.4,-1.4,19.8,25,833.468,296.305,240.453,17.7001,-8.04779,45.1074,
2026_07_06_15_59_32.997,3.861,30.8,0,0.758,0,0,0,0, ,0,0,0,0,0, ,958.2,96.1,208.4,10.6,0.1,12.9,25,841.709,284.367,238.195,17.4746,-7.59699,43.355,
2026_07_06_15_59_33.021,3.861,31,0,0.76,0,0,0,0, ,0,0,0,0,0, ,957.2,93,239.7,13.7,3.8,2.8,25,848.777,272.8,237.333,17.1502,-7.01522,41.1914,
2026_07_06_15_59_33.037,3.861,31,0,0.759,0,0,0,0, ,0,0,0,0,0, ,1035,73.7,233,10.1,2,5.7,25,857.755,261.255,237.273,16.8302,-6.41101,38.9403,
2026_07_06_15_59_33.062,3.861,31,0,0.758,0,0,0,0, ,0,0,0,0,0, ,1029,93.1,181.3,13.7,-1.6,18,25,868.373,250.417,235.438,16.5298,-6.00815,37.2895,
2026_07_06_15_59_33.076,3.861,31,0,0.759,0,0,0,0, ,0,0,0,0,0, ,991.3,91.3,171.7,16.6,-9.4,23.3,25,877.012,240.776,231.846,16.4457,-5.97718,36.2755,
2026_07_06_15_59_33.101,3.861,30.9,0,0.759,0,0,0,0, ,0,0,0,0,0, ,943.7,73.6,200.1,13.1,-11.9,16.3,25,882.526,231.128,229.046,16.3485,-6.26193,35.2715,
2026_07_06_15_59_33.116,3.861,30.9,0,0.758,0,0,0,0, ,0,0,0,0,0, ,1012.5,47.4,240.2,17.1,-8.9,13.8,25,888.35,220.73,228.504,16.2724,-6.5141,34.0393,
2026_07_06_15_59_33.141,3.861,31,0,0.761,0,0,0,0, ,0,0,0,0,0, ,1033.3,41.1,228.6,8.2,-6.2,19,25,896.55,209.976,228.863,16.0517,-6.57722,32.9644,
2026_07_06_15_59_33.155,3.861,30.9,0,0.76,0,0,0,0, ,0,0,0,0,0, ,985.8,50.9,176.2,1,-9.8,21.7,25,903.436,199.984,227.251,15.3538,-6.66392,32.1957,
2026_07_06_15_59_33.180,3.861,31,0,0.762,0,0,0,0, ,0,0,0,0,0, ,966,49.6,156.4,5.4,-13.5,19.1,25,907.851,190.859,223.537,14.6132,-6.96776,31.4769,
2026_07_06_15_59_33.195,3.861,31,0,0.76,0,0,0,0, ,0,0,0,0,0, ,947.5,41.8,177,7.2,-11.7,13.1,25,910.831,182.014,220.073,14.1066,-7.31098,30.5399,
2026_07_06_15_59_33.220,3.861,31,0,0.759,0,0,0,0, ,0,0,0,0,0, ,1000.3,35.6,218.2,6.8,-12.3,11.4,25,914.674,173.28,218.704,13.6736,-7.59671,29.4253,
2026_07_06_15_59_33.234,3.861,30.9,0,0.758,0,0,0,0, ,0,0,0,0,0, ,1023.1,25.6,216.7,5.9,-13.5,16.7,25,920.587,164.586,218.627,13.2273,-7.91988,28.4884,
2026_07_06_15_59_33.259,3.861,31,0,0.76,0,0,0,0, ,0,0,0,0,0, ,977.6,29.2,193.8,4.3,-14.1,25.5,25,925.447,156.226,217.812,12.732,-8.2782,28.0382,
2026_07_06_15_59_33.274,3.861,31,0,0.758,0,0,0,0, ,0,0,0,0,0, ,943.9,27.5,153.8,5,-10.2,20.7,25,927.599,148.434,215.13,12.2395,-8.51414,27.7372,
2026_07_06_15_59_33.301,3.861,31,0,0.759,0,0,0,0, ,0,0,0,0,0, ,964.7,34.4,114.3,6.5,-11,11.7,25,929.226,141.274,210.189,11.8441,-8.64125,27.0342,
2026_07_06_15_59_33.314,3.861,30.9,0,0.759,0,0,0,0, ,0,0,0,0,0, ,1038.9,23.8,141.8,11.6,-26.5,14,25,933.648,134.439,205.184,11.6738,-9.25725,26.1698,
2026_07_06_15_59_33.339,3.861,31,0,0.76,0,0,0,0, ,0,0,0,0,0, ,1049.3,7.6,146.9,17,-41.4,29.3,25,940.379,127.203,201.477,11.8338,-10.762,25.8944,
2026_07_06_15_59_33.354,3.861,31,0,0.76,0,0,0,0, ,0,0,0,0,0, ,998.4,-20.8,137.6,20.9,-47.7,33.2,25,945.465,119.05,197.868,12.2675,-12.8209,26.2208,
2026_07_06_15_59_33.379,3.861,31,0,0.759,0,0,0,0, ,0,0,0,0,0, ,921.2,1,103.6,25.6,-51.8,27.4,25,946.339,111.192,193.159,12.9367,-15.0713,26.4694,
2026_07_06_15_59_33.393,3.861,31,0,0.76,0,0,0,0, ,0,0,0,0,0, ,977.1,-28.8,66.4,24.3,-68.6,27.3,25,946.51,103.569,186.568,13.6688,-17.8213,26.523,
2026_07_06_15_59_33.419,3.861,31,0,0.758,0,0,0,0, ,0,0,0,0,0, ,1047.7,-55.6,79.5,26.9,-88.4,31.5,25,950.525,94.6861,179.645,14.3958,-21.5189,26.6983,
2026_07_06_15_59_33.433,3.861,31.1,0,0.758,0,0,0,0, ,0,0,0,0,0, ,1019.6,-50.5,57,32.6,-89.9,32.6,25,955.591,85.6835,172.857,15.3315,-25.6402,27.0244,
2026_07_06_15_59_33.458,3.861,30.9,0,0.759,0,0,0,0, ,0,0,0,0,0, ,953.6,12.2,-21.8,52.2,-86.5,24.6,25,957.48,79.2952,163.396,16.981,-29.4524,27.1205,
2026_07_06_15_59_33.472,3.861,31,0,0.76,0,0,0,0, ,0,0,0,0,0, ,1047.7,-123.4,-25.7,42,-102.1,8.2,25,960.111,71.075,151.991,18.8164,-33.4041,26.4672,
2026_07_06_15_59_33.497,3.861,31,0,0.762,0,0,0,0, ,0,0,0,0,0, ,1018.7,-64.6,-63.2,47.1,-101,25.8,25,964.565,61.0157,140.021,20.3845,-37.5567,25.8903,
2026_07_06_15_59_33.512,3.861,30.9,0,0.76,0,0,0,0, ,0,0,0,0,0, ,940.1,-70.4,-70.5,53.9,-105.5,33.4,25,965.469,53.1843,127.415,22.2197,-41.5599,26.1163,
2026_07_06_15_59_33.538,3.861,30.9,0,0.759,0,0,0,0, ,0,0,0,0,0, ,994,-93.3,-122.9,51.8,-122.5,31.2,25,965.565,44.9557,113.758,24.0862,-45.9742,26.4932,
2026_07_06_15_59_33.551,3.861,31,0,0.758,0,0,0,0, ,0,0,0,0,0, ,939,-121.8,-138,42.9,-122.4,21.6,25,965.622,35.6623,98.8762,25.5038,-50.6345,26.4875,
2026_07_06_15_59_33.576,3.861,30.8,0,0.759,0,0,0,0, ,0,0,0,0,0, ,904,-120.1,-153.5,26.1,-120.3,11.2,25,962.934,26.1188,83.9693,26.052,-54.9437,25.8728,
2026_07_06_15_59_33.591,3.861,30.9,0,0.76,0,0,0,0, ,0,0,0,0,0, ,927.1,-153,-171.5,7.6,-111.6,4.9,25,960.046,16.2062,68.9501,25.4913,-58.6613,24.7867,
2026_07_06_15_59_33.616,3.861,31,0,0.759,0,0,0,0, ,0,0,0,0,0, ,931.6,-126.8,-272.4,5.4,-104.3,7.4,25,958.176,6.69344,51.2233,24.334,-61.6648,23.651,
2026_07_06_15_59_33.634,3.861,31.1,0,0.758,0,0,0,0, ,0,0,0,0,0, ,921.9,-121.2,-325,0.8,-102.8,9.4,25,956.261,-1.27069,29.8999,23.0401,-64.2172,22.7217,
2026_07_06_15_59_33.661,3.861,31,0,0.763,0,0,0,0, ,0,0,0,0,0, ,895.2,-127.1,-378.9,1.2,-114.9,2.7,25,953.353,-8.75865,6.63091,21.697,-66.937,21.7057,
2026_07_06_15_59_33.669,3.861,31,0,0.759,0,0,0,0, ,0,0,0,0,0, ,814.9,-116.3,-461.4,5.5,-128.3,-5.3,25,947.363,-15.641,-19.376,20.579,-70.268,20.3038,
2026_07_06_15_59_33.698,3.861,31.1,0,0.759,0,0,0,0, ,0,0,0,0,0, ,801.8,-71.5,-495.8,48.3,-146.9,-25.3,25,938.892,-20.4099,-47.36,20.9642,-74.3711,18.1342,
2026_07_06_15_59_33.709,3.861,30.9,0,0.759,0,0,0,0, ,0,0,0,0,0, ,880.6,-163.5,-404.7,48,-138.8,-34,25,932.939,-26.3263,-71.9111,22.6208,-78.544,15.2224,
2026_07_06_15_59_33.736,3.861,31,0,0.758,0,0,0,0, ,0,0,0,0,0, ,861.3,-155.5,-489.8,41.1,-126.2,-15.9,25,929.161,-34.4416,-94.7833,23.9571,-81.8319,12.7744,
2026_07_06_15_59_33.749,3.861,31.1,0,0.759,0,0,0,0, ,0,0,0,0,0, ,792.8,-159,-542.3,31.7,-133.2,-5.3,25,922.939,-41.9253,-120.454,24.7153,-84.7489,11.35,
2026_07_06_15_59_33.775,3.861,31,0,0.759,0,0,0,0, ,0,0,0,0,0, ,727.5,-103.8,-594.4,32.4,-146.8,-5.9,25,913.019,-47.3776,-147.748,25.1623,-88.1158,10.3171,
2026_07_06_15_59_33.788,3.861,30.9,0,0.757,0,0,0,0, ,0,0,0,0,0, ,728.3,-129,-647.4,35,-151.7,-18.3,25,901.738,-51.5837,-176.581,25.6826,-91.8411,8.95105,
2026_07_06_15_59_33.815,3.861,30.9,0,0.759,0,0,0,0, ,0,0,0,0,0, ,716.7,-145.2,-638.6,28.8,-150.7,-18.6,25,890.816,-56.7948,-205.003,26.0614,-95.4583,7.2813,
2026_07_06_15_59_33.829,3.861,31,0,0.759,0,0,0,0, ,0,0,0,0,0, ,709.4,-145.7,-730.7,25.6,-152.3,-12.8,25,879.983,-62.1972,-234.232,26.1308,-98.8733,5.88088,
2026_07_06_15_59_33.855,3.861,31,0,0.76,0,0,0,0, ,0,0,0,0,0, ,688.8,-133.4,-802.1,28.8,-174,-5.1,25,868.961,-66.9109,-266.661,26.196,-102.79,4.97712,
2026_07_06_15_59_33.868,3.861,30.9,0,0.763,0,0,0,0, ,0,0,0,0,0, ,641.2,-176.3,-767.9,30.2,-189.3,0.9,25,856.532,-72.2697,-298.247,26.3973,-107.596,4.54586,
2026_07_06_15_59_33.894,3.861,31,0,0.761,0,0,0,0, ,0,0,0,0,0, ,579.7,-160,-801,14.8,-172.8,18.8,25,841.536,-78.1124,-327.875,26.1598,-112.072,4.86908,
2026_07_06_15_59_33.908,3.861,31,0,0.76,0,0,0,0, ,0,0,0,0,0, ,555.6,-222.7,-726.3,-4.4,-127.9,30.6,25,824.846,-85.0128,-354.43,24.8826,-114.404,6.07753,
2026_07_06_15_59_33.934,3.861,31,0,0.757,0,0,0,0, ,0,0,0,0,0, ,515,-182.4,-825,-6,-111.5,28,25,807.202,-92.1753,-380.098,23.0494,-114.727,7.49265,
2026_07_06_15_59_33.947,3.861,31,0,0.76,0,0,0,0, ,0,0,0,0,0, ,430.6,-185,-870.2,-12.9,-112.3,27.1,25,786.824,-97.7525,-408.586,21.069,-114.555,8.71489,
2026_07_06_15_59_33.973,3.861,31,0,0.759,0,0,0,0, ,0,0,0,0,0, ,387.9,-154,-860.5,-5.5,-114,24.5,25,763.816,-102.125,-436.42,19.2245,-114.469,9.75602,
2026_07_06_15_59_33.986,3.861,31,0,0.759,0,0,0,0, ,0,0,0,0,0, ,341.3,-209.1,-786.3,-12.6,-115.2,22,25,739.489,-106.965,-460.002,17.5015,-114.477,10.5783,
2026_07_06_15_59_34.013,3.861,30.9,0,0.759,0,0,0,0, ,0,0,0,0,0, ,323.3,-192.2,-841.5,-31.8,-97.9,17.9,25,714.676,-112.674,-481.568,15.0822,-113.994,11.1494,
2026_07_06_15_59_34.026,3.861,31,0,0.76,0,0,0,0, ,0,0,0,0,0, ,360.4,-175.6,-929.9,-32.9,-75.7,18.3,25,691.957,-117.014,-506.194,12.1918,-112.337,11.5729,
2026_07_06_15_59_34.054,3.861,31,0,0.76,0,0,0,0, ,0,0,0,0,0, ,282.2,-167.4,-921.9,-27.7,-65,21.7,25,669.37,-120.334,-531.77,9.60245,-109.778,12.0865,
2026_07_06_15_59_34.066,3.861,31.1,0,0.76,0,0,0,0, ,0,0,0,0,0, ,209.1,-156.9,-975.9,-33.9,-75.2,22,25,643.549,-122.882,-557.189,7.14042,-107.361,12.6814,
2026_07_06_15_59_34.091,3.861,31,0,0.759,0,0,0,0, ,0,0,0,0,0, ,172.8,-152.9,-982.9,-30.7,-85.8,17.8,25,615.969,-124.833,-582.918,4.73702,-105.724,13.1213,
2026_07_06_15_59_34.105,3.861,31,0,0.759,0,0,0,0, ,0,0,0,0,0, ,157.5,-135.7,-1004.2,-21.4,-87.6,12.8,25,588.497,-126.02,-607.94,2.86094,-104.564,13.2541,
2026_07_06_15_59_34.131,3.861,30.8,0,0.759,0,0,0,0, ,0,0,0,0,0, ,210.5,-135.1,-1033.4,-15.5,-86.1,12.1,25,563.848,-126.591,-632.977,1.5623,-103.485,13.2051,
2026_07_06_15_59_34.145,3.861,30.9,0,0.759,0,0,0,0, ,0,0,0,0,0, ,189.8,-145.2,-1019.8,-5.8,-70.5,14.1,25,541.685,-127.418,-656.964,0.818117,-101.95,13.1987,
2026_07_06_15_59_34.172,3.861,30.9,0,0.759,0,0,0,0, ,0,0,0,0,0, ,109.3,-138,-1023,0.5,-58.8,12.5,25,517.79,-128.282,-679.171,0.606779,-99.6773,13.2049,
2026_07_06_15_59_34.184,3.861,31,0,0.76,0,0,0,0, ,0,0,0,0,0, ,51.6,-122,-968.2,3.5,-61.8,7.4,25,491.139,-128.386,-698.454,0.691678,-97.2777,13.0065,
2026_07_06_15_59_34.212,3.861,30.9,0,0.759,0,0,0,0, ,0,0,0,0,0, ,92.4,-140.6,-942.2,-2.1,-73.4,6.9,25,465.598,-128.564,-714.099,0.692186,-95.4692,12.6496,
2026_07_06_15_59_34.223,3.861,31,0,0.758,0,0,0,0, ,0,0,0,0,0, ,91.4,-143,-971.1,-4.4,-64.7,8.8,25,442.826,-129.371,-728.88,0.451959,-93.8593,12.3572,
2026_07_06_15_59_34.251,3.861,31,0,0.76,0,0,0,0, ,0,0,0,0,0, ,54.5,-152.8,-993.5,-5.2,-39.7,11.6,25,420.286,-130.5,-744.323,0.131917,-91.3207,12.2257,
2026_07_06_15_59_34.264,3.861,31,0,0.759,0,0,0,0, ,0,0,0,0,0, ,-8.5,-131.8,-1020.7,-2.5,-21.5,10.7,25,396.077,-131.219,-760.336,-0.110731,-87.6205,12.1601,
2026_07_06_15_59_34.290,3.861,30.9,0,0.76,0,0,0,0, ,0,0,0,0,0, ,-25.8,-138.6,-1004.2,-5,-24.2,8.1,25,370.896,-131.461,-775.699,-0.332499,-83.6736,11.992,
2026_07_06_15_59_34.303,3.861,31,0,0.76,0,0,0,0, ,0,0,0,0,0, ,-58.4,-141.9,-996.8,-5.8,-29.3,6,25,345.729,-131.997,-789.398,-0.641299,-80.2048,11.6908,
2026_07_06_15_59_34.331,3.861,31.1,0,0.759,0,0,0,0, ,0,0,0,0,0, ,-27.4,-136.4,-1020.8,-8.2,-30.7,4.2,25,322.047,-132.433,-802.767,-1.02878,-77.1454,11.2892,
2026_07_06_15_59_34.343,3.861,31,0,0.759,0,0,0,0, ,0,0,0,0,0, ,18.9,-139.2,-1038.9,-0.9,-22.4,5.9,25,302.163,-132.76,-816.605,-1.24336,-74.0623,10.909,
2026_07_06_15_59_34.370,3.861,31.1,0,0.759,0,0,0,0, ,0,0,0,0,0, ,-3.9,-136.8,-983.5,1.3,-6.1,8.1,25,284.207,-133.079,-828.463,-1.1554,-70.4175,10.6708,
2026_07_06_15_59_34.382,3.861,31,0,0.758,0,0,0,0, ,0,0,0,0,0, ,-72.7,-138.5,-989.1,-3.2,-10.4,10.1,25,264.554,-133.358,-838.082,-1.14289,-66.6291,10.5751,
2026_07_06_15_59_34.409,3.861,31,0,0.759,0,0,0,0, ,0,0,0,0,0, ,-76.9,-134.3,-991,-6.8,-20,5,25,243.875,-133.543,-847.342,-1.37793,-63.4952,10.3907,
2026_07_06_15_59_34.422,3.861,31,0,0.759,0,0,0,0, ,0,0,0,0,0, ,-42.1,-134.7,-1011.1,-5.3,-10.6,0.7,25,225.388,-133.601,-856.709,-1.66263,-60.5583,9.9312,
2026_07_06_15_59_34.449,3.861,31,0,0.759,0,0,0,0, ,0,0,0,0,0, ,-30.5,-131.1,-1036.7,-2.2,-2.4,2.3,25,209.441,-133.559,-866.897,-1.78983,-57.2641,9.41743,
2026_07_06_15_59_34.462,3.861,31,0,0.758,0,0,0,0, ,0,0,0,0,0, ,-48.3,-132.5,-994.9,-0.3,-13.1,5.3,25,194.278,-133.452,-875.971,-1.75694,-54.2468,9.07511,
2026_07_06_15_59_34.490,3.861,31,0,0.759,0,0,0,0, ,0,0,0,0,0, ,-81.5,-137.5,-973.1,-3.3,-10.5,3.3,25,178.484,-133.546,-882.554,-1.75956,-51.6602,8.78413,
2026_07_06_15_59_34.501,3.861,30.9,0,0.761,0,0,0,0, ,0,0,0,0,0, ,-78.4,-127.3,-994.9,-6,-6.5,-1.1,25,162.736,-133.476,-888.736,-1.9357,-49.0302,8.31588,
2026_07_06_15_59_34.529,3.861,30.9,0,0.76,0,0,0,0, ,0,0,0,0,0, ,-44.9,-128.4,-1002.8,-5.5,-5,-2.9,25,149.062,-133.133,-895.446,-2.16813,-46.3928,7.68726,
2026_07_06_15_59_34.540,3.861,31,0,0.761,0,0,0,0, ,0,0,0,0,0, ,-35.2,-130.1,-1023.8,-2.6,-10,0.6,25,137.538,-132.897,-902.627,-2.28281,-44.0228,7.14873,
2026_07_06_15_59_34.568,3.861,31,0,0.759,0,0,0,0, ,0,0,0,0,0, ,-39.3,-131.3,-1009.7,0.5,-5.6,0.9,25,126.887,-132.763,-909.582,-2.20768,-41.8154,6.75881,
2026_07_06_15_59_34.580,3.861,31.1,0,0.759,0,0,0,0, ,0,0,0,0,0, ,-61.5,-127.9,-982,0.5,-2.3,1.5,25,116.084,-132.57,-914.839,-2.04268,-39.508,6.42007,
2026_07_06_15_59_34.607,3.861,31,0,0.759,0,0,0,0, ,0,0,0,0,0, ,-68.9,-124.2,-976.1,-1,-6,1.9,25,105.037,-132.173,-918.752,-1.93344,-37.3534,6.13244,
2026_07_06_15_59_34.620,3.861,31,0,0.759,0,0,0,0, ,0,0,0,0,0, ,-54.4,-125.7,-975.9,-2.8,-12.1,0.3,25,94.8791,-131.733,-922.24,-1.9314,-35.6286,5.82578,
2026_07_06_15_59_34.648,3.861,31,0,0.76,0,0,0,0, ,0,0,0,0,0, ,-55.2,-132.3,-981,-3,0,-0.8,25,85.7581,-131.566,-925.665,-1.99043,-33.8262,5.45554,
2026_07_06_15_59_34.660,3.861,30.9,0,0.76,0,0,0,0, ,0,0,0,0,0, ,-74.7,-127,-989.5,-4.4,6.6,-1.8,25,76.5743,-131.449,-929.296,-2.0946,-31.5638,5.04387,
2026_07_06_15_59_34.688,3.861,31,0,0.76,0,0,0,0, ,0,0,0,0,0, ,-69.7,-129,-1009.1,-3.4,6.6,-2.6,25,67.5084,-131.239,-933.562,-2.20462,-29.2382,4.60245,
2026_07_06_15_59_34.699,3.861,31.1,0,0.76,0,0,0,0, ,0,0,0,0,0, ,-60.9,-126.9,-1003,-0.4,3.8,-1.5,25,59.4153,-131.039,-937.979,-2.18606,-27.1396,4.19706,
2026_07_06_15_59_34.725,3.861,31,0,0.76,0,0,0,0, ,0,0,0,0,0, ,-74.7,-119.9,-971.8,-1.7,-3.4,-0.2,25,51.6632,-130.573,-940.991,-2.11683,-25.4736,3.88951,
2026_07_06_15_59_34.738,3.861,31,0,0.76,0,0,0,0, ,0,0,0,0,0, ,-69.5,-126.8,-994.8,-4,-11.4,-0.1,25,44.1213,-130.133,-943.569,-2.16151,-24.3723,3.64335,
2026_07_06_15_59_34.766,3.861,31,0,0.759,0,0,0,0, ,0,0,0,0,0, ,-61.4,-127.4,-1022.3,-1.7,-9.5,-1.9,25,37.4443,-129.948,-947.529,-2.20346,-23.5239,3.3604,
2026_07_06_15_59_34.777,3.861,30.9,0,0.758,0,0,0,0, ,0,0,0,0,0, ,-55.9,-124.5,-1016.9,4.2,0.2,-2.9,25,31.5886,-129.705,-951.921,-1.99302,-22.3737,3.00937,
2026_07_06_15_59_34.805,3.861,30.8,0,0.76,0,0,0,0, ,0,0,0,0,0, ,-64.8,-125.6,-967.7,1.7,1.4,-1.6,25,25.9861,-129.421,-954.381,-1.6918,-20.9616,2.68888,
2026_07_06_15_59_34.818,3.861,30.9,0,0.759,0,0,0,0, ,0,0,0,0,0, ,-79.8,-124.7,-972.6,-1,-1.1,-2.9,25,19.9968,-129.161,-955.342,-1.56738,-19.6751,2.38792,
2026_07_06_15_59_34.845,3.861,30.9,0,0.759,0,0,0,0, ,0,0,0,0,0, ,-66,-132.6,-987,-2.2,4.3,-3.6,25,14.3359,-129.13,-956.833,-1.56937,-18.3787,2.04436,
2026_07_06_15_59_34.857,3.861,31,0,0.758,0,0,0,0, ,0,0,0,0,0, ,-34.7,-131.8,-1010.8,-0.7,7.8,-3.9,25,10.3941,-129.317,-959.396,-1.56209,-16.89,1.69126,
2026_07_06_15_59_34.886,3.861,30.9,0,0.76,0,0,0,0, ,0,0,0,0,0, ,-63.1,-124.3,-1013.9,-0.9,5.9,-1.5,25,6.78085,-129.239,-962.623,-1.51565,-15.4434,1.42367,
2026_07_06_15_59_34.896,3.861,31,0,0.758,0,0,0,0, ,0,0,0,0,0, ,-58.9,-129.1,-1005.6,0,10.7,-3.7,25,2.65046,-129.085,-965.495,-1.45072,-13.9965,1.17848,
2026_07_06_15_59_34.926,3.861,30.9,0,0.759,0,0,0,0, ,0,0,0,0,0, ,-47.1,-131.5,-995.2,0.1,28.3,-6.3,25,-0.740744,-129.159,-967.622,-1.35927,-11.9553,0.801976,
2026_07_06_15_59_34.936,3.861,31,0,0.76,0,0,0,0, ,0,0,0,0,0, ,-48.7,-126,-1030.1,-1.7,36.1,-6.7,25,-3.61451,-129.134,-970.366,-1.32519,-9.26461,0.357012,
2026_07_06_15_59_34.965,3.861,31,0,0.76,0,0,0,0, ,0,0,0,0,0, ,-11.2,-130.6,-1024.2,2.2,40.5,-7.7,25,-5.21933,-129.083,-973.826,-1.2292,-6.36614,-0.103493,
2026_07_06_15_59_34.976,3.861,31.1,0,0.759,0,0,0,0, ,0,0,0,0,0, ,44,-226,-967.7,17.3,66.9,12.2,25,-3.9019,-132.082,-975.174,-0.560152,-2.70586,0.0399229,
2026_07_06_15_59_35.004,3.861,31.1,0,0.759,0,0,0,0, ,0,0,0,0,0, ,-40.7,-122.9,-1019.7,16,67.6,1.5,25,-3.56358,-134.664,-976.303,0.488591,1.55708,0.454912,
2026_07_06_15_59_35.016,3.861,30.9,0,0.758,0,0,0,0, ,0,0,0,0,0, ,15.1,-137.9,-978.1,12.3,69.4,-8.9,25,-4.12643,-134.404,-977.68,1.32108,5.63641,0.201722,
2026_07_06_15_59_35.046,3.861,31,0,0.759,0,0,0,0, ,0,0,0,0,0, ,63.4,-139.8,-966.9,0.4,69.1,-12.1,25,-1.48318,-134.675,-977.364,1.62753,9.51286,-0.450414,
2026_07_06_15_59_35.062,3.861,30.9,0,0.76,0,0,0,0, ,0,0,0,0,0, ,124.1,-171.2,-1053.5,2.8,81.7,-16,25,4.32009,-135.944,-979.365,1.62585,13.5279,-1.27914,
2026_07_06_15_59_35.090,3.861,31,0,0.76,0,0,0,0, ,0,0,0,0,0, ,121.9,-150.1,-1072.3,14.2,99.5,-15.8,25,11.5522,-137.45,-984.456,2.04475,18.2244,-2.1701,
2026_07_06_15_59_35.095,3.861,31.1,0,0.76,0,0,0,0, ,0,0,0,0,0, ,159.3,-164.7,-1004.8,29.3,113.5,-13.4,25,19.416,-138.665,-987.752,3.24554,23.6037,-2.92754,
2026_07_06_15_59_35.124,3.861,31,0,0.759,0,0,0,0, ,0,0,0,0,0, ,166.6,-161.4,-949.2,26.7,116.8,-17.8,25,28.1626,-140.151,-987.097,4.75401,29.1823,-3.69977,
2026_07_06_15_59_35.133,3.861,31.1,0,0.759,0,0,0,0, ,0,0,0,0,0, ,219.7,-183.9,-946.4,19.7,122.9,-27.3,25,38.2165,-142.132,-984.702,5.87806,34.7074,-4.84846,
2026_07_06_15_59_35.164,3.861,31,0,0.759,0,0,0,0, ,0,0,0,0,0, ,291.2,-179.5,-950.1,19.6,145.9,-37,25,51.4542,-144.543,-982.481,6.71729,40.7824,-6.51215,
2026_07_06_15_59_35.174,3.861,30.9,0,0.759,0,0,0,0, ,0,0,0,0,0, ,378.4,-184.6,-900.3,19.5,161.4,-40.8,25,68.7206,-146.828,-978.99,7.49928,47.6603,-8.48578,
2026_07_06_15_59_35.202,3.861,31.1,0,0.759,0,0,0,0, ,0,0,0,0,0, ,375.6,-177,-886.9,14.3,158.1,-42,25,87.5063,-148.899,-973.787,8.07214,54.4907,-10.4915,
2026_07_06_15_59_35.214,3.861,30.8,0,0.759,0,0,0,0, ,0,0,0,0,0, ,419.3,-177.4,-865.6,9.4,136.4,-37.2,25,106.394,-150.623,-967.843,8.30235,60.1433,-12.2653,
2026_07_06_15_59_35.243,3.861,31,0,0.759,0,0,0,0, ,0,0,0,0,0, ,485.4,-176.6,-827.2,7.3,132.7,-37.1,25,127.475,-152.231,-960.443,8.30526,64.6774,-13.7817,
2026_07_06_15_59_35.252,3.861,31,0,0.759,0,0,0,0, ,0,0,0,0,0, ,521.6,-173.5,-816.8,6.4,143.3,-38.1,25,150.389,-153.621,-952.006,8.21658,69.1455,-15.2331,
2026_07_06_15_59_35.281,3.861,30.9,0,0.76,0,0,0,0, ,0,0,0,0,0, ,577.8,-171,-813.7,7.2,165.3,-37.5,25,174.722,-154.756,-943.673,8.13025,74.3346,-16.6083,
2026_07_06_15_59_35.292,3.861,31,0,0.76,0,0,0,0, ,0,0,0,0,0, ,594.3,-153.9,-764.2,10.2,162.2,-34.3,25,199.788,-155.225,-934.244,8.16497,79.7834,-17.7839,
2026_07_06_15_59_35.321,3.861,31.1,0,0.757,0,0,0,0, ,0,0,0,0,0, ,620.4,-150.7,-692,3.8,121.8,-27,25,224.623,-155.047,-921.683,8.09398,83.5747,-18.5679,
2026_07_06_15_59_35.332,3.861,31,0,0.758,0,0,0,0, ,0,0,0,0,0, ,659.9,-151.8,-691.7,-0.2,88.1,-19.2,25,249.945,-154.816,-907.677,7.71044,84.8773,-18.8441,
2026_07_06_15_59_35.361,3.861,31,0,0.759,0,0,0,0, ,0,0,0,0,0, ,705.3,-153.4,-686.2,-1.4,77.8,-13.2,25,276.309,-154.681,-894.348,7.19184,84.7598,-18.683,
2026_07_06_15_59_35.372,3.861,31,0,0.759,0,0,0,0, ,0,0,0,0,0, ,693.4,-148.8,-680.1,-1.1,83.5,-13.2,25,302.088,-154.462,-881.479,6.67741,84.5094,-18.3488,
2026_07_06_15_59_35.401,3.861,31,0,0.76,0,0,0,0, ,0,0,0,0,0, ,699.5,-138.1,-633.7,-0.3,90.1,-20,25,326.12,-153.791,-867.793,6.22785,84.649,-18.2423,
2026_07_06_15_59_35.411,3.861,31.1,0,0.757,0,0,0,0, ,0,0,0,0,0, ,723.6,-124.5,-595.9,1.2,101.7,-28.3,25,349.607,-152.421,-852.377,5.87576,85.3346,-18.6023,
2026_07_06_15_59_35.440,3.861,31,0,0.758,0,0,0,0, ,0,0,0,0,0, ,823.7,-131.8,-608.7,2.1,119.9,-33.7,25,375.447,-150.942,-837.137,5.61826,86.8864,-19.3578,
2026_07_06_15_59_35.451,3.861,31,0,0.759,0,0,0,0, ,0,0,0,0,0, ,819.8,-128.1,-595.5,4.5,117.8,-26.1,25,402.644,-149.663,-822.815,5.47699,88.8341,-20.0002,
2026_07_06_15_59_35.481,3.861,31,0,0.759,0,0,0,0, ,0,0,0,0,0, ,808.2,-107,-514.5,4.2,122.3,-27.3,25,427.711,-147.706,-806.495,5.40831,90.7364,-20.4085,
2026_07_06_15_59_35.491,3.861,30.9,0,0.759,0,0,0,0, ,0,0,0,0,0, ,838.8,-101.8,-477.1,5.3,148.1,-37.5,25,451.829,-145.067,-787.562,5.3682,93.4459,-21.1392,
2026_07_06_15_59_35.519,3.861,31,0,0.76,0,0,0,0, ,0,0,0,0,0, ,883.6,-89.3,-406,4.6,165.9,-40.9,25,476.775,-142.049,-766.477,5.34271,97.3187,-22.2398,
2026_07_06_15_59_35.530,3.861,31,0,0.758,0,0,0,0, ,0,0,0,0,0, ,901.2,-85,-332.5,-4,160.8,-31.9,25,502.102,-138.704,-742.271,5.03542,101.342,-23.1027,
2026_07_06_15_59_35.558,3.861,31,0,0.759,0,0,0,0, ,0,0,0,0,0, ,917.2,-69.4,-328.4,-7.4,145.6,-26.9,25,526.91,-134.956,-717.175,4.38123,104.503,-23.4864,
2026_07_06_15_59_35.571,3.861,31,0,0.758,0,0,0,0, ,0,0,0,0,0, ,926,-66,-304.1,-3.6,117.7,-21.1,25,550.961,-130.858,-692.744,3.7791,106.157,-23.5177,
2026_07_06_15_59_35.600,3.861,30.9,0,0.759,0,0,0,0, ,0,0,0,0,0, ,894.5,-58.5,-227.6,-0.4,97.1,-24.2,25,572.855,-126.677,-666.73,3.42693,106.233,-23.4648,
2026_07_06_15_59_35.608,3.861,30.9,0,0.758,0,0,0,0, ,0,0,0,0,0, ,937.8,-41.7,-177.3,-4.3,102.2,-31.5,25,593.775,-122.01,-638.438,3.0749,105.831,-23.732,
2026_07_06_15_59_35.638,3.861,31,0,0.76,0,0,0,0, ,0,0,0,0,0, ,983.6,-36.6,-161.2,-7.4,112.5,-35,25,616.134,-116.961,-609.847,2.53104,105.924,-24.312,
2026_07_06_15_59_35.650,3.861,31,0,0.76,0,0,0,0, ,0,0,0,0,0, ,1003.4,-33.4,-135.4,-9.1,110,-27.7,25,639.13,-111.967,-581.722,1.87407,106.249,-24.7409,
2026_07_06_15_59_35.682,3.861,31.1,0,0.759,0,0,0,0, ,0,0,0,0,0, ,960.4,-28.8,-110.7,-9.1,93.4,-20,25,660.018,-107.039,-553.771,1.20534,105.971,-24.6866,
2026_07_06_15_59_35.688,3.861,31,0,0.762,0,0,0,0, ,0,0,0,0,0, ,937.1,-18.6,-86.7,-6.4,76.6,-22.5,25,677.612,-101.96,-526.04,0.659621,104.693,-24.4772,
2026_07_06_15_59_35.717,3.861,31,0,0.76,0,0,0,0, ,0,0,0,0,0, ,973.9,-9.7,-59.8,-4,83.3,-30.4,25,694.546,-96.6094,-498.448,0.302551,103.186,-24.5974,
2026_07_06_15_59_35.732,3.861,31,0,0.759,0,0,0,0, ,0,0,0,0,0, ,983.5,0.1,-21.8,-2.2,97.1,-35.2,25,711.862,-91.0148,-470.56,0.0952077,102.394,-25.0973,
2026_07_06_15_59_35.762,3.861,31,0,0.758,0,0,0,0, ,0,0,0,0,0, ,983.1,11.8,10.8,-1.8,92.9,-35.4,25,728.402,-85.106,-442.221,-0.032469,101.944,-25.719,
2026_07_06_15_59_35.767,3.861,30.9,0,0.759,0,0,0,0, ,0,0,0,0,0, ,1027.9,15.2,21.9,-4.6,69.4,-24.9,25,745.288,-79.0972,-414.277,-0.22549,100.677,-25.989,
2026_07_06_15_59_35.796,3.861,31,0,0.759,0,0,0,0, ,0,0,0,0,0, ,1027.8,23.4,36.7,-4.2,47.2,-11.4,25,762.507,-73.1011,-387.246,-0.479875,98.0943,-25.5113,
2026_07_06_15_59_35.807,3.861,31,0,0.759,0,0,0,0, ,0,0,0,0,0, ,991,28.6,56.8,-0.6,45.9,-9.5,25,777.552,-67.0621,-360.8,-0.596882,94.9533,-24.5935,
2026_07_06_15_59_35.836,3.861,31,0,0.759,0,0,0,0, ,0,0,0,0,0, ,954.9,35.2,93.6,-0.7,48.3,-13.9,25,789.459,-61.0316,-334.231,-0.600119,92.0372,-23.8078,
2026_07_06_15_59_35.846,3.861,31,0,0.76,0,0,0,0, ,0,0,0,0,0, ,947.2,34.4,89.3,-1,38,-17.1,25,799.306,-55.1919,-308.291,-0.615346,89.0582,-23.3016,
2026_07_06_15_59_35.876,3.861,31,0,0.758,0,0,0,0, ,0,0,0,0,0, ,967.4,39.4,87,2.3,19.8,-15.6,25,808.934,-49.58,-284.133,-0.538239,85.3923,-22.878,
2026_07_06_15_59_35.886,3.861,31,0,0.76,0,0,0,0, ,0,0,0,0,0, ,985.3,45.8,110.3,1.3,1.1,-9.1,25,819.136,-43.9628,-260.807,-0.395753,80.8255,-22.2364,
2026_07_06_15_59_35.916,3.861,31,0,0.759,0,0,0,0, ,0,0,0,0,0, ,992.7,46.1,113.5,1,2.8,-7.3,25,829.487,-38.4837,-238.095,-0.301558,76.019,-21.3811,
2026_07_06_15_59_35.926,3.861,30.9,0,0.76,0,0,0,0, ,0,0,0,0,0, ,968.8,57.4,135.7,2.3,19.5,-12,25,838.704,-32.9851,-215.993,-0.182635,72.0661,-20.6662,
2026_07_06_15_59_35.956,3.861,31,0,0.76,0,0,0,0, ,0,0,0,0,0, ,966.3,60.6,138,1.5,29,-16.4,25,846.556,-27.3798,-194.492,-0.0557247,69.1523,-20.2722,
2026_07_06_15_59_35.965,3.861,30.9,0,0.76,0,0,0,0, ,0,0,0,0,0, ,975.9,65.5,128.9,1.3,20.3,-15.3,25,854.145,-21.8692,-174.508,0.0329835,66.4404,-20.0027,
2026_07_06_15_59_35.996,3.861,31,0,0.758,0,0,0,0, ,0,0,0,0,0, ,969.7,73.4,144,1,-2.1,-9.4,25,861.376,-16.3045,-155.559,0.101052,62.9462,-19.5364,
2026_07_06_15_59_36.005,3.861,31,0,0.76,0,0,0,0, ,0,0,0,0,0, ,1004.8,76.9,164.5,-1.5,-15.8,-3.9,25,869.046,-10.7314,-136.68,0.0796595,58.5651,-18.7511,
2026_07_06_15_59_36.034,3.861,31,0,0.758,0,0,0,0, ,0,0,0,0,0, ,1002.9,73.6,153.9,0.7,-0.9,-3.7,25,877.261,-5.49195,-118.65,0.0504302,54.4874,-17.84,
2026_07_06_15_59_36.046,3.861,31,0,0.759,0,0,0,0, ,0,0,0,0,0, ,970.4,72.2,137.4,1.7,16.2,-7.6,25,883.927,-0.714945,-102.544,0.120482,51.6333,-17.0972,
2026_07_06_15_59_36.075,3.861,31.1,0,0.759,0,0,0,0, ,0,0,0,0,0, ,953.2,67,131.9,1.8,7.2,-8.8,25,888.672,3.56987,-88.0901,0.219781,49.1998,-16.555,
2026_07_06_15_59_36.084,3.861,30.9,0,0.76,0,0,0,0, ,0,0,0,0,0, ,968.3,71,146.8,1.4,-10,-7.3,25,893.064,7.55702,-74.2305,0.303888,46.1164,-16.0367,
2026_07_06_15_59_36.113,3.861,30.9,0,0.757,0,0,0,0, ,0,0,0,0,0, ,1020.7,70.5,161.8,-0.5,-5.4,-6.2,25,899.246,11.4078,-60.3044,0.312792,42.837,-15.4708,
2026_07_06_15_59_36.123,3.861,31,0,0.759,0,0,0,0, ,0,0,0,0,0, ,1006.8,73.1,140,-0.7,11.4,-4.3,25,906.223,15.088,-47.4341,0.257168,40.4094,-14.848,
2026_07_06_15_59_36.152,3.861,31.1,0,0.76,0,0,0,0, ,0,0,0,0,0, ,963.5,71,130.8,1.5,7.3,-3.8,25,911.033,18.5591,-36.2927,0.265872,38.5167,-14.19,
2026_07_06_15_59_36.163,3.861,31,0,0.759,0,0,0,0, ,0,0,0,0,0, ,954.4,72.6,151.6,1.5,-6,-5.3,25,913.953,21.8035,-25.4767,0.341077,36.2092,-13.6026,
2026_07_06_15_59_36.194,3.861,31,0,0.759,0,0,0,0, ,0,0,0,0,0, ,994,76.6,159.4,1.4,-9.2,-5.8,25,917.624,25.0208,-14.4484,0.408652,33.5396,-13.1119,
2026_07_06_15_59_36.202,3.861,31,0,0.759,0,0,0,0, ,0,0,0,0,0, ,1031.6,82.5,173.8,1.4,8,-6,25,923.424,28.3436,-3.41581,0.469062,31.4592,-12.6724,
2026_07_06_15_59_36.233,3.861,31,0,0.76,0,0,0,0, ,0,0,0,0,0, ,1014.4,77.7,152.7,-0.2,15.2,-1.2,25,929.492,31.4975,6.74039,0.477041,30.249,-12.1195,
2026_07_06_15_59_36.242,3.861,31,0,0.76,0,0,0,0, ,0,0,0,0,0, ,956.9,77.3,143.7,0.7,4.5,-0.7,25,932.914,34.3008,15.3606,0.463206,29.006,-11.4389,
2026_07_06_15_59_36.273,3.861,30.9,0,0.758,0,0,0,0, ,0,0,0,0,0, ,971.8,77.8,156.9,1.6,-10.4,-1.8,25,934.83,36.9363,23.5835,0.505057,27.0587,-10.818,
2026_07_06_15_59_36.285,3.861,31,0,0.758,0,0,0,0, ,0,0,0,0,0, ,997.3,77.1,172.2,1,-5.4,-2,25,937.859,39.4051,32.1736,0.553499,24.9284,-10.2746,
2026_07_06_15_59_36.315,3.861,31.1,0,0.76,0,0,0,0, ,0,0,0,0,0, ,984,81.9,175.7,0.2,10,-2.8,25,941.076,41.8484,40.8131,0.556333,23.5495,-9.79471,
2026_07_06_15_59_36.321,3.861,31.1,0,0.759,0,0,0,0, ,0,0,0,0,0, ,970,77.6,155.8,-1.4,7.6,-1.9,25,943.265,44.158,48.4264,0.485869,22.6507,-9.34105,
2026_07_06_15_59_36.351,3.861,31.1,0,0.76,0,0,0,0, ,0,0,0,0,0, ,968.8,74.7,147.8,-0.6,-4.8,0,25,944.858,46.1075,54.7258,0.395324,21.3557,-8.82972,
2026_07_06_15_59_36.361,3.861,31,0,0.759,0,0,0,0, ,0,0,0,0,0, ,989.7,81.5,157.9,0.1,-9.7,1.2,25,946.954,48.0571,60.7052,0.355999,19.6125,-8.25509,
2026_07_06_15_59_36.392,3.861,31,0,0.757,0,0,0,0, ,0,0,0,0,0, ,981.6,86.4,185.4,0.3,-1,0,25,949.312,50.2443,67.4659,0.346493,18.0914,-7.71549,
2026_07_06_15_59_36.401,3.861,31,0,0.758,0,0,0,0, ,0,0,0,0,0, ,976.1,75,164.4,-1.3,11.5,-2.6,25,951.112,52.1002,74.0127,0.29491,17.3089,-7.32454,
2026_07_06_15_59_36.430,3.861,31.1,0,0.76,0,0,0,0, ,0,0,0,0,0, ,963.3,74.8,138.3,-0.8,6.9,-1.1,25,952.245,53.4896,78.7254,0.212954,16.8147,-6.99094,
2026_07_06_15_59_36.441,3.861,30.9,0,0.759,0,0,0,0, ,0,0,0,0,0, ,970.3,71,138.9,-0.1,-8.1,0.9,25,953.131,54.6724,82.374,0.172556,15.7535,-6.57102,
2026_07_06_15_59_36.471,3.861,30.9,0,0.76,0,0,0,0, ,0,0,0,0,0, ,987.3,80.3,155.3,-0.4,-15.6,3.3,25,954.696,55.9507,86.3183,0.146806,14.0714,-6.04263,
2026_07_06_15_59_36.480,3.861,31.1,0,0.758,0,0,0,0, ,0,0,0,0,0, ,987.5,79.4,174.8,0.4,-8,3.8,25,956.689,57.4071,91.116,0.13786,12.4949,-5.45808,
2026_07_06_15_59_36.510,3.861,31,0,0.759,0,0,0,0, ,0,0,0,0,0, ,970.5,79.5,174.1,0.1,7.8,0.2,25,958.048,58.7503,96.1941,0.144694,11.7274,-5.0036,
2026_07_06_15_59_36.519,3.861,31.1,0,0.758,0,0,0,0, ,0,0,0,0,0, ,965.4,70,148,-0.5,8.8,-2,25,958.652,59.7253,100.146,0.123689,11.5185,-4.75354,
2026_07_06_15_59_36.549,3.861,31,0,0.758,0,0,0,0, ,0,0,0,0,0, ,967.4,64.9,139.5,0.8,-2.9,-1.3,25,959.124,60.196,102.803,0.125292,10.9964,-4.56442,
2026_07_06_15_59_36.559,3.861,31.1,0,0.759,0,0,0,0, ,0,0,0,0,0, ,977,68.9,153,1.4,-7.4,-0.3,25,959.921,60.6045,105.451,0.184689,10.0125,-4.33502,
2026_07_06_15_59_36.589,3.861,31.1,0,0.761,0,0,0,0, ,0,0,0,0,0, ,987.3,73.9,170.6,0.4,-7.1,0.7,25,961.275,61.2624,108.885,0.228278,8.96053,-4.05867,
2026_07_06_15_59_36.598,3.861,31,0,0.759,0,0,0,0, ,0,0,0,0,0, ,984.2,75.5,169.6,-0.6,2.2,0.3,25,962.767,62.0812,112.615,0.208273,8.2652,-3.78088,
2026_07_06_15_59_36.628,3.861,31,0,0.759,0,0,0,0, ,0,0,0,0,0, ,967.8,71.5,154.4,-0.3,13.8,-1.8,25,963.573,62.7771,115.624,0.16816,8.24904,-3.59618,
2026_07_06_15_59_36.638,3.861,31.1,0,0.758,0,0,0,0, ,0,0,0,0,0, ,942.3,49,175.4,-2.9,19.6,-3,25,963.054,62.6231,118.627,0.0604126,8.76402,-3.52329,
2026_07_06_15_59_36.670,3.861,30.9,0,0.758,0,0,0,0, ,0,0,0,0,0, ,963.9,61.6,177.7,0.9,9.2,-2,25,962.447,62.1768,122.157,-0.00420628,9.10747,-3.46093,
2026_07_06_15_59_36.678,3.861,31,0,0.759,0,0,0,0, ,0,0,0,0,0, ,947.3,92.4,190.1,0.5,4.3,4.3,25,962.03,63.0801,125.919,0.0387063,8.96381,-3.17995,
2026_07_06_15_59_36.709,3.861,31,0,0.76,0,0,0,0, ,0,0,0,0,0, ,981.4,81.7,222.6,1.4,28.6,6.4,25,962.171,64.5408,130.821,0.0942382,9.42,-2.66016,
2026_07_06_15_59_36.716,3.861,31,0,0.76,0,0,0,0, ,0,0,0,0,0, ,950.5,73.3,196.8,6.6,78.7,-0.4,25,962.402,65.3305,135.627,0.332246,12.1153,-2.31524,
2026_07_06_15_59_36.747,3.861,31.1,0,0.759,0,0,0,0, ,0,0,0,0,0, ,930.6,56.7,182.7,8.2,85.4,-5.6,25,961.07,65.3103,138.925,0.762937,16.3769,-2.35697,
2026_07_06_15_59_36.756,3.861,31,0,0.759,0,0,0,0, ,0,0,0,0,0, ,933.1,69.5,224.2,10.6,61.3,-1.4,25,959.289,65.1757,142.857,1.28926,19.8487,-2.42663,
2026_07_06_15_59_36.789,3.861,31.1,0,0.759,0,0,0,0, ,0,0,0,0,0, ,966.1,73.4,253.7,10.2,46.7,6.3,25,958.699,65.558,148.713,1.84444,21.9298,-2.12946,
2026_07_06_15_59_36.796,3.861,31,0,0.759,0,0,0,0, ,0,0,0,0,0, ,984.6,73.9,298.9,5.8,48.1,7.6,25,959.714,66.0511,156.488,2.21955,23.4819,-1.57618,
2026_07_06_15_59_36.827,3.861,31,0,0.759,0,0,0,0, ,0,0,0,0,0, ,960.9,73.8,315.4,4.9,63.8,10.8,25,960.508,66.5263,165.669,2.41031,25.4604,-0.919503,
2026_07_06_15_59_36.836,3.861,31.1,0,0.76,0,0,0,0, ,0,0,0,0,0, ,929.8,60,311,4.7,75.2,8.8,25,959.584,66.5491,174.659,2.55593,28.1441,-0.266284,
2026_07_06_15_59_36.867,3.861,30.9,0,0.759,0,0,0,0, ,0,0,0,0,0, ,925.2,55.9,324.7,7.9,73.2,6.6,25,957.629,66.0251,183.385,2.78409,30.9506,0.219162,
2026_07_06_15_59_36.876,3.861,31.1,0,0.758,0,0,0,0, ,0,0,0,0,0, ,970,52.2,364.3,9.2,68.4,9.7,25,957.018,65.2954,193.203,3.13545,33.3789,0.702447,
2026_07_06_15_59_36.908,3.861,30.9,0,0.759,0,0,0,0, ,0,0,0,0,0, ,966.3,48.9,372.4,8.7,73,15.2,25,957.696,64.3968,203.876,3.48977,35.6532,1.41831,
2026_07_06_15_59_36.914,3.861,31,0,0.76,0,0,0,0, ,0,0,0,0,0, ,907.3,53.3,403.3,11.5,77.3,17.2,25,956.423,63.5866,215.087,3.89258,38.06,2.31907,
2026_07_06_15_59_36.946,3.861,31.1,0,0.758,0,0,0,0, ,0,0,0,0,0, ,883.5,46.1,419.3,16.3,75.5,15.6,25,952.704,62.7403,227.043,4.50241,40.3964,3.17713,
2026_07_06_15_59_36.955,3.861,31.1,0,0.759,0,0,0,0, ,0,0,0,0,0, ,901.3,43.3,425.1,19.2,72.9,15.6,25,949.03,61.641,238.936,5.30968,42.4563,3.93415,
2026_07_06_15_59_36.985,3.861,31.1,0,0.76,0,0,0,0, ,0,0,0,0,0, ,903,45.8,475.5,21.8,70,21,25,946.173,60.5995,251.816,6.23534,44.2231,4.80957,
2026_07_06_15_59_36.994,3.861,31,0,0.759,0,0,0,0, ,0,0,0,0,0, ,848.5,49.8,520.8,22,66.1,24.9,25,941.881,59.8196,266.827,7.18991,45.675,5.915,
2026_07_06_15_59_37.025,3.861,30.9,0,0.758,0,0,0,0, ,0,0,0,0,0, ,843.1,41.2,529.2,20,63.6,24.4,25,936.027,58.947,282.559,8.03146,46.8435,7.05666,
2026_07_06_15_59_37.034,3.861,31,0,0.759,0,0,0,0, ,0,0,0,0,0, ,824.3,35.7,544.3,18.9,51.8,27.9,25,929.791,57.6979,298.049,8.72728,47.5051,8.22016,
2026_07_06_15_59_37.065,3.861,31.1,0,0.76,0,0,0,0, ,0,0,0,0,0, ,790.8,31.1,553.5,18.3,36.6,28.9,25,922.342,56.2173,313.335,9.3289,47.3037,9.44987,
2026_07_06_15_59_37.077,3.861,31,0,0.761,0,0,0,0, ,0,0,0,0,0, ,878,30.6,533.3,21.7,44.5,35.4,25,916.983,54.6715,327.355,9.97917,46.8921,10.8332,
2026_07_06_15_59_37.112,3.861,31,0,0.76,0,0,0,0, ,0,0,0,0,0, ,832.7,22,551.8,28.1,58.1,44.8,25,913.227,52.9426,340.468,10.8884,47.1607,12.6166,
2026_07_06_15_59_37.118,3.861,31,0,0.761,0,0,0,0, ,0,0,0,0,0, ,708.9,10.4,582.5,26.8,53.8,43.9,25,904.548,50.7036,354.282,11.8976,47.6963,14.5504,
2026_07_06_15_59_37.149,3.861,30.9,0,0.76,0,0,0,0, ,0,0,0,0,0, ,681,4.7,617.4,25.8,40.7,34.5,25,891.776,48.0739,369.252,12.7753,47.6691,16.0524,
2026_07_06_15_59_37.155,3.861,30.9,0,0.76,0,0,0,0, ,0,0,0,0,0, ,786.1,0.2,651.6,23.4,23.4,32,25,882.134,45.2937,385.416,13.4958,46.7173,17.1004,
2026_07_06_15_59_37.187,3.861,31,0,0.759,0,0,0,0, ,0,0,0,0,0, ,854.3,0.9,651.8,24.8,27.5,39.5,25,878.36,42.5671,401.642,14.142,45.4214,18.2369,
2026_07_06_15_59_37.192,3.861,31,0,0.758,0,0,0,0, ,0,0,0,0,0, ,771.7,-10.1,646.4,22.8,38.9,39.4,25,874.377,39.6929,416.722,14.7306,44.6766,19.5296,
2026_07_06_15_59_37.224,3.861,31,0,0.758,0,0,0,0, ,0,0,0,0,0, ,687.2,-10.7,659,19.9,34.9,32.4,25,865.545,36.6403,431.102,15.1339,44.2027,20.5271,
2026_07_06_15_59_37.232,3.861,31,0,0.76,0,0,0,0, ,0,0,0,0,0, ,720.4,-22,639.8,19.9,28.3,30.7,25,855.689,33.4112,444.404,15.4244,43.4347,21.1988,
2026_07_06_15_59_37.263,3.861,31.1,0,0.758,0,0,0,0, ,0,0,0,0,0, ,766.1,-23.5,677.8,16.4,2.1,43.2,25,848.837,29.9889,457.469,15.5905,41.7142,22.1587,
2026_07_06_15_59_37.271,3.861,31.1,0,0.759,0,0,0,0, ,0,0,0,0,0, ,800.4,-40.5,702.5,11.1,-13.8,49.8,25,844.841,26.2115,471.648,15.4783,38.8158,23.642,
2026_07_06_15_59_37.302,3.861,31,0,0.759,0,0,0,0, ,0,0,0,0,0, ,769.1,-44.9,692.8,16.1,5,46.7,25,841.179,22.0122,485.42,15.3638,36.1823,25.1415,
2026_07_06_15_59_37.311,3.861,31,0,0.759,0,0,0,0, ,0,0,0,0,0, ,691,-59.9,661.3,14.2,15.4,35.2,25,834.407,17.4777,497.097,15.3508,34.599,26.1049,
2026_07_06_15_59_37.342,3.861,31,0,0.76,0,0,0,0, ,0,0,0,0,0, ,718.2,-70,653,15.2,4.1,31.8,25,826.497,12.4547,506.851,15.3112,33.0848,26.5555,
2026_07_06_15_59_37.350,3.861,31.1,0,0.76,0,0,0,0, ,0,0,0,0,0, ,840.9,-65,669,17.4,-16.5,42.2,25,823.636,7.58251,516.244,15.3714,30.6908,27.192,
2026_07_06_15_59_37.383,3.861,31,0,0.758,0,0,0,0, ,0,0,0,0,0, ,746.2,-44.9,709.5,13,-33.7,57,25,821.803,3.77193,526.787,15.361,27.2911,28.5574,
2026_07_06_15_59_37.390,3.861,31,0,0.758,0,0,0,0, ,0,0,0,0,0, ,728.2,-66.7,687,5.7,-23.4,42.4,25,816.647,0.141767,537.235,14.9947,23.8883,29.8458,
2026_07_06_15_59_37.422,3.861,31,0,0.758,0,0,0,0, ,0,0,0,0,0, ,777.4,-96.8,598.1,7.8,-2.9,34,25,812.756,-4.84851,543.653,14.4923,21.6313,30.3549,
2026_07_06_15_59_37.430,3.861,31,0,0.758,0,0,0,0, ,0,0,0,0,0, ,809,-116.4,612.1,14.4,-15.3,44.4,25,811.565,-11.049,547.397,14.2856,19.7586,30.8939,
2026_07_06_15_59_37.461,3.861,31,0,0.76,0,0,0,0, ,0,0,0,0,0, ,778.6,-115.3,621.8,15.1,-37.1,52.4,25,810.482,-17.4353,551.636,14.3139,16.958,31.9607,
2026_07_06_15_59_37.469,3.861,30.9,0,0.759,0,0,0,0, ,0,0,0,0,0, ,746.5,-120.1,643.9,15.3,-47.4,52.7,25,807.561,-23.5452,556.585,14.3679,13.35,33.2153,
2026_07_06_15_59_37.501,3.861,31,0,0.759,0,0,0,0, ,0,0,0,0,0, ,760.4,-105.4,653.9,11.5,-53.7,48.5,25,804.264,-28.9811,562.21,14.3089,9.45608,34.2747,
2026_07_06_15_59_37.508,3.861,30.9,0,0.76,0,0,0,0, ,0,0,0,0,0, ,748.6,-136.2,708.8,-1,-63.2,47.6,25,801.231,-34.5763,569.47,13.7568,5.31805,35.1142,
