UTC_Time,Vin,TC1,TC2,Rh1,Vh1,Ah1,Acp1,Dty1,Err1,Rh2,Vh2,Ah2,Acp2,Dty2,Err2,Accel_x,Accel_y,Accel_z,gyro_x,gyro_y,gyro_z,Temp_c,Accel_x_h,Accel_y_h,Accel_z_h,gyro_x_h,gyro_y_h,gyro_z_h,
2026_07_06_21_51_51.821,3.871,32.5,0,0.76,0,0,0,0, ,0,0,0,0,0, ,-38.5,423,905.1,-0.7,-0.4,-1.8,25,-38.5,423,905.1,-0.7,-0.4,-1.8,
2026_07_06_21_51_51.841,3.871,32.5,0,0.76,0,0,0,0, ,0,0,0,0,0, ,-40.4,422.4,904.1,-0.7,-0.4,-1.7,25,-38.5579,422.982,905.07,-0.7,-0.4,-1.79695,
2026_07_06_21_51_51.861,3.871,32.5,0,0.76,0,0,0,0, ,0,0,0,0,0, ,-39.7,420.7,906.9,-0.8,-0.4,-1.8,25,-38.6488,422.894,905.096,-0.703047,-0.4,-1.79409,
2026_07_06_21_51_51.880,3.871,32.5,0,0.76,0,0,0,0, ,0,0,0,0,0, ,-39.1,421.7,906.6,-0.7,-0.5,-1.8,25,-38.6946,422.791,905.197,-0.705908,-0.403047,-1.79445,
2026_07_06_21_51_51.900,3.871,32.5,0,0.761,0,0,0,0, ,0,0,0,0,0, ,-39.6,423.4,905.8,-0.7,-0.5,-1.8,25,-38.7345,422.777,905.258,-0.705548,-0.408955,-1.79479,
2026_07_06_21_51_51.919,3.871,32.5,0,0.761,0,0,0,0, ,0,0,0,0,0, ,-40,422.2,906.1,-0.7,-0.6,-1.7,25,-38.7995,422.778,905.3,-0.70521,-0.41755,-1.79206,
2026_07_06_21_51_51.940,3.871,32.5,0,0.759,0,0,0,0, ,0,0,0,0,0, ,-41,423.5,905.7,-0.7,-0.5,-1.8,25,-38.9031,422.782,905.336,-0.704892,-0.425621,-1.7895,
2026_07_06_21_51_51.959,3.871,32.5,0,0.76,0,0,0,0, ,0,0,0,0,0, ,-40,423.7,906.3,-0.8,-0.5,-1.7,25,-39.0004,422.832,905.377,-0.707641,-0.430154,-1.78709,
2026_07_06_21_51_51.979,3.871,32.5,0,0.759,0,0,0,0, ,0,0,0,0,0, ,-39.7,424.1,905.6,-0.8,-0.5,-1.7,25,-39.0522,422.897,905.412,-0.713269,-0.43441,-1.78178,
2026_07_06_21_51_51.999,3.871,32.5,0,0.763,0,0,0,0, ,0,0,0,0,0, ,-39,423,905,-0.6,-0.5,-1.7,25,-39.0703,422.937,905.405,-0.712461,-0.438407,-1.7768,
2026_07_06_21_51_52.019,3.871,32.5,0,0.761,0,0,0,0, ,0,0,0,0,0, ,-39.3,422.8,905.3,-0.7,-0.5,-1.7,25,-39.0752,422.935,905.389,-0.708655,-0.44216,-1.77212,
2026_07_06_21_51_52.039,3.871,32.5,0,0.761,0,0,0,0, ,0,0,0,0,0, ,-39.4,422.6,907.1,-0.7,-0.4,-1.8,25,-39.0919,422.92,905.439,-0.708127,-0.442638,-1.77077,
2026_07_06_21_51_52.058,3.871,32.5,0,0.759,0,0,0,0, ,0,0,0,0,0, ,-40.4,422.8,905.8,-0.6,-0.5,-1.8,25,-39.1412,422.907,905.5,-0.704585,-0.443086,-1.77255,
2026_07_06_21_51_52.078,3.871,32.5,0,0.76,0,0,0,0, ,0,0,0,0,0, ,-40.7,423.3,904.7,-0.7,-0.5,-1.8,25,-39.227,422.916,905.485,-0.701259,-0.446555,-1.77423,
2026_07_06_21_51_52.098,3.871,32.6,0,0.76,0,0,0,0, ,0,0,0,0,0, ,-39.3,423.2,905.7,-0.6,-0.5,-1.7,25,-39.2741,422.936,905.468,-0.698135,-0.449811,-1.77275,
2026_07_06_21_51_52.117,3.871,32.5,0,0.761,0,0,0,0, ,0,0,0,0,0, ,-40.1,421.8,905.5,-0.6,-0.5,-1.8,25,-39.3001,422.91,905.476,-0.692155,-0.45287,-1.77136,
2026_07_06_21_51_52.137,3.871,32.5,0,0.759,0,0,0,0, ,0,0,0,0,0, ,-39.3,423.9,904.2,-0.6,-0.5,-1.7,25,-39.3244,422.906,905.438,-0.686539,-0.455742,-1.77006,
2026_07_06_21_51_52.158,3.871,32.5,0,0.763,0,0,0,0, ,0,0,0,0,0, ,-40.5,424,903.8,-0.7,-0.5,-1.7,25,-39.3595,422.97,905.35,-0.684313,-0.458439,-1.76579,
2026_07_06_21_51_52.178,3.871,32.5,0,0.763,0,0,0,0, ,0,0,0,0,0, ,-40.4,422.7,904.6,-0.7,-0.4,-1.7,25,-39.426,422.993,905.28,-0.685269,-0.457925,-1.76178,
2026_07_06_21_51_52.198,3.871,32.5,0,0.761,0,0,0,0, ,0,0,0,0,0, ,-40.6,422.6,905.8,-0.7,-0.5,-1.8,25,-39.4914,422.972,905.275,-0.686166,-0.457442,-1.76106,
2026_07_06_21_51_52.217,3.871,32.5,0,0.761,0,0,0,0, ,0,0,0,0,0, ,-40,422.8,906.7,-0.7,-0.5,-1.8,25,-39.5407,422.955,905.335,-0.687009,-0.460035,-1.76344,
2026_07_06_21_51_52.237,3.871,32.5,0,0.759,0,0,0,0, ,0,0,0,0,0, ,-39.7,422.2,905.6,-0.7,-0.4,-1.7,25,-39.5595,422.928,905.384,-0.687801,-0.459424,-1.76262,
2026_07_06_21_51_52.257,3.871,32.4,0,0.76,0,0,0,0, ,0,0,0,0,0, ,-39.4,423.9,905.6,-0.8,-0.5,-1.7,25,-39.559,422.935,905.397,-0.691591,-0.458849,-1.7588,
2026_07_06_21_51_52.276,3.871,32.4,0,0.761,0,0,0,0, ,0,0,0,0,0, ,-40.2,422.6,905.3,-0.7,-0.5,-1.8,25,-39.5736,422.954,905.401,-0.695151,-0.461357,-1.75827,
2026_07_06_21_51_52.297,3.871,32.5,0,0.76,0,0,0,0, ,0,0,0,0,0, ,-39.7,423,906.7,-0.7,-0.4,-1.8,25,-39.5966,422.945,905.437,-0.695446,-0.460665,-1.76081,
2026_07_06_21_51_52.316,3.871,32.5,0,0.759,0,0,0,0, ,0,0,0,0,0, ,-40.4,423.8,904.7,-0.7,-0.5,-1.8,25,-39.6242,422.973,905.453,-0.695724,-0.460015,-1.7632,
2026_07_06_21_51_52.336,3.871,32.5,0,0.759,0,0,0,0, ,0,0,0,0,0, ,-39.4,423.3,905.6,-0.7,-0.5,-1.8,25,-39.641,423.008,905.435,-0.695984,-0.462452,-1.76544,
2026_07_06_21_51_52.356,3.871,32.4,0,0.76,0,0,0,0, ,0,0,0,0,0, ,-42.1,424.3,904.6,-0.7,-0.5,-1.8,25,-39.7086,423.056,905.414,-0.696229,-0.46474,-1.76755,
2026_07_06_21_51_52.376,3.871,32.5,0,0.761,0,0,0,0, ,0,0,0,0,0, ,-40.2,422.6,906,-0.6,-0.5,-1.8,25,-39.7964,423.08,905.407,-0.693412,-0.466888,-1.76952,
2026_07_06_21_51_52.395,3.871,32.4,0,0.761,0,0,0,0, ,0,0,0,0,0, ,-39.5,422.9,905.3,-0.8,-0.4,-1.8,25,-39.7997,423.06,905.422,-0.693813,-0.465859,-1.77138,
2026_07_06_21_51_52.415,3.871,32.5,0,0.759,0,0,0,0, ,0,0,0,0,0, ,-40.2,422.2,905.8,-0.7,-0.5,-1.8,25,-39.8028,423.029,905.43,-0.697237,-0.464893,-1.77312,
2026_07_06_21_51_52.436,3.871,32.5,0,0.763,0,0,0,0, ,0,0,0,0,0, ,-40,421.7,904.5,-0.7,-0.5,-1.7,25,-39.8209,422.963,905.413,-0.697405,-0.467032,-1.77172,
2026_07_06_21_51_52.456,3.871,32.5,0,0.76,0,0,0,0, ,0,0,0,0,0, ,-41.5,422.9,905.3,-0.8,-0.5,-1.8,25,-39.8775,422.923,905.382,-0.70061,-0.469041,-1.77039,
2026_07_06_21_51_52.474,3.871,32.5,0,0.762,0,0,0,0, ,0,0,0,0,0, ,-40.6,422.8,904.1,-0.7,-0.5,-1.7,25,-39.9489,422.918,905.34,-0.70362,-0.470928,-1.76915,
2026_07_06_21_51_52.495,3.871,32.5,0,0.76,0,0,0,0, ,0,0,0,0,0, ,-40.1,422.9,905.8,-0.7,-0.4,-1.7,25,-39.9734,422.914,905.316,-0.7034,-0.469652,-1.76494,
2026_07_06_21_51_52.514,3.871,32.5,0,0.759,0,0,0,0, ,0,0,0,0,0, ,-40.4,422.9,905.6,-0.7,-0.4,-1.7,25,-39.9902,422.913,905.34,-0.703192,-0.465408,-1.76098,
2026_07_06_21_51_52.534,3.871,32.5,0,0.76,0,0,0,0, ,0,0,0,0,0, ,-40,422.7,906.2,-0.7,-0.5,-1.6,25,-40.003,422.906,905.374,-0.702998,-0.464469,-1.75422,
2026_07_06_21_51_52.554,3.871,32.5,0,0.76,0,0,0,0, ,0,0,0,0,0, ,-40.2,422.9,904.9,-0.7,-0.5,-1.8,25,-40.0089,422.9,905.385,-0.702815,-0.466634,-1.75091,
2026_07_06_21_51_52.573,3.871,32.5,0,0.762,0,0,0,0, ,0,0,0,0,0, ,-39.5,423.2,906,-0.6,-0.5,-1.7,25,-39.9992,422.909,905.389,-0.699597,-0.468667,-1.75086,
2026_07_06_21_51_52.594,3.871,32.5,0,0.76,0,0,0,0, ,0,0,0,0,0, ,-41.8,423,905.1,-0.6,-0.5,-1.7,25,-40.0389,422.921,905.398,-0.693528,-0.470577,-1.74776,
2026_07_06_21_51_52.613,3.871,32.5,0,0.76,0,0,0,0, ,0,0,0,0,0, ,-40.2,422.2,904,-0.7,-0.5,-1.7,25,-40.0975,422.901,905.347,-0.690875,-0.47237,-1.74485,
2026_07_06_21_51_52.633,3.871,32.5,0,0.76,0,0,0,0, ,0,0,0,0,0, ,-41,422.4,905.7,-0.7,-0.5,-1.7,25,-40.1281,422.864,905.316,-0.691431,-0.474053,-1.74211,
2026_07_06_21_51_52.653,3.871,32.5,0,0.76,0,0,0,0, ,0,0,0,0,0, ,-39.9,422.1,904.5,-0.6,-0.5,-1.8,25,-40.1477,422.827,905.303,-0.688906,-0.475635,-1.7426,
2026_07_06_21_51_52.673,3.871,32.6,0,0.76,0,0,0,0, ,0,0,0,0,0, ,-40.2,422.2,905.7,-0.6,-0.5,-1.7,25,-40.1418,422.786,905.291,-0.683489,-0.477119,-1.74305,
2026_07_06_21_51_52.692,3.871,32.6,0,0.761,0,0,0,0, ,0,0,0,0,0, ,-39.9,422.6,906.2,-0.7,-0.5,-1.8,25,-40.1362,422.762,905.331,-0.681448,-0.478514,-1.74347,
2026_07_06_21_51_52.712,3.871,32.5,0,0.759,0,0,0,0, ,0,0,0,0,0, ,-40.5,424,906.9,-0.7,-0.5,-1.7,25,-40.1401,422.795,905.405,-0.682579,-0.479823,-1.74387,
2026_07_06_21_51_52.732,3.871,32.5,0,0.76,0,0,0,0, ,0,0,0,0,0, ,-40.6,422.7,905,-0.6,-0.4,-1.7,25,-40.165,422.829,905.438,-0.680593,-0.478006,-1.74119,
2026_07_06_21_51_52.752,3.871,32.5,0,0.759,0,0,0,0, ,0,0,0,0,0, ,-41.1,423.4,906,-0.7,-0.5,-1.7,25,-40.2068,422.842,905.442,-0.678729,-0.476299,-1.73868,
2026_07_06_21_51_52.772,3.871,32.5,0,0.76,0,0,0,0, ,0,0,0,0,0, ,-40.8,420.6,906.3,-0.7,-0.5,-1.7,25,-40.2521,422.791,905.485,-0.680025,-0.477743,-1.73633,
2026_07_06_21_51_52.791,3.871,32.4,0,0.761,0,0,0,0, ,0,0,0,0,0, ,-39.6,423,905.3,-0.7,-0.5,-1.7,25,-40.2489,422.731,905.505,-0.681242,-0.4791,-1.73411,
2026_07_06_21_51_52.812,3.871,32.5,0,0.76,0,0,0,0, ,0,0,0,0,0, ,-41.1,422.7,905.7,-0.6,-0.5,-1.7,25,-40.2551,422.738,905.504,-0.679339,-0.480373,-1.73203,
2026_07_06_21_51_52.831,3.871,32.5,0,0.76,0,0,0,0, ,0,0,0,0,0, ,-39.4,421.8,905.8,-0.6,-0.5,-1.7,25,-40.2547,422.708,905.519,-0.674504,-0.481569,-1.73008,
2026_07_06_21_51_52.851,3.871,32.5,0,0.761,0,0,0,0, ,0,0,0,0,0, ,-41,422.6,906.1,-0.7,-0.5,-1.8,25,-40.2514,422.677,905.545,-0.673011,-0.482692,-1.7313,
2026_07_06_21_51_52.871,3.871,32.5,0,0.761,0,0,0,0, ,0,0,0,0,0, ,-41,422.3,904.7,-0.7,-0.5,-1.7,25,-40.297,422.663,905.537,-0.674655,-0.483747,-1.73244,
2026_07_06_21_51_52.891,3.871,32.5,0,0.76,0,0,0,0, ,0,0,0,0,0, ,-40,421.9,903.4,-0.6,-0.5,-1.7,25,-40.3094,422.629,905.446,-0.673153,-0.484737,-1.73046,
2026_07_06_21_51_52.911,3.871,32.4,0,0.762,0,0,0,0, ,0,0,0,0,0, ,-40.2,422.8,904.4,-0.6,-0.5,-1.7,25,-40.2966,422.612,905.352,-0.668695,-0.485667,-1.7286,
2026_07_06_21_51_52.930,3.871,32.6,0,0.76,0,0,0,0, ,0,0,0,0,0, ,-40.1,423.5,905.8,-0.6,-0.5,-1.8,25,-40.2877,422.645,905.336,-0.664509,-0.486541,-1.72991,
2026_07_06_21_51_52.950,3.871,32.5,0,0.76,0,0,0,0, ,0,0,0,0,0, ,-40.5,422.7,905.8,-0.7,-0.5,-1.8,25,-40.2884,422.673,905.365,-0.663625,-0.487361,-1.73418,
2026_07_06_21_51_52.972,3.871,32.6,0,0.76,0,0,0,0, ,0,0,0,0,0, ,-39.5,423.2,905.6,-0.6,-0.5,-1.7,25,-40.2709,422.689,905.385,-0.662795,-0.488131,-1.73514,
2026_07_06_21_51_52.990,3.871,32.5,0,0.76,0,0,0,0, ,0,0,0,0,0, ,-40.5,421.5,905.1,-0.7,-0.5,-1.8,25,-40.2544,422.669,905.383,-0.662015,-0.488854,-1.73605,
2026_07_06_21_51_53.010,3.871,32.5,0,0.762,0,0,0,0, ,0,0,0,0,0, ,-39.4,422.2,905.1,-0.8,-0.5,-1.8,25,-40.2358,422.619,905.366,-0.667377,-0.489534,-1.73995,
2026_07_06_21_51_53.029,3.871,32.5,0,0.76,0,0,0,0, ,0,0,0,0,0, ,-41.9,423.3,905.7,-0.7,-0.5,-1.7,25,-40.2611,422.627,905.368,-0.672411,-0.490171,-1.74056,
2026_07_06_21_51_53.049,3.871,32.4,0,0.76,0,0,0,0, ,0,0,0,0,0, ,-39.9,422.8,906.1,-0.7,-0.5,-1.7,25,-40.3,422.653,905.4,-0.674093,-0.49077,-1.73809,
2026_07_06_21_51_53.069,3.871,32.6,0,0.76,0,0,0,0, ,0,0,0,0,0, ,-40.6,423,906,-0.7,-0.5,-1.7,25,-40.2969,422.668,905.44,-0.675671,-0.491333,-1.73577,
2026_07_06_21_51_53.089,3.871,32.6,0,0.762,0,0,0,0, ,0,0,0,0,0, ,-40.6,422.4,906,-0.8,-0.5,-1.7,25,-40.3154,422.67,905.474,-0.680201,-0.491861,-1.73359,
2026_07_06_21_51_53.109,3.871,32.5,0,0.76,0,0,0,0, ,0,0,0,0,0, ,-40.1,422.4,905,-0.6,-0.5,-1.7,25,-40.3175,422.653,905.476,-0.681407,-0.492357,-1.73154,
2026_07_06_21_51_53.128,3.871,32.5,0,0.76,0,0,0,0, ,0,0,0,0,0, ,-39.7,423.2,905.1,-0.6,-0.5,-1.7,25,-40.2921,422.662,905.45,-0.676446,-0.492823,-1.72962,
2026_07_06_21_51_53.147,3.871,32.6,0,0.761,0,0,0,0, ,0,0,0,0,0, ,-40.8,422.9,904.4,-0.7,-0.5,-1.7,25,-40.2895,422.686,905.407,-0.674835,-0.49326,-1.72781,
2026_07_06_21_51_53.168,3.871,32.5,0,0.76,0,0,0,0, ,0,0,0,0,0, ,-39.7,421.6,905.5,-0.6,-0.5,-1.7,25,-40.2871,422.659,905.379,-0.673322,-0.493671,-1.72612,
2026_07_06_21_51_53.187,3.871,32.5,0,0.759,0,0,0,0, ,0,0,0,0,0, ,-40.1,422.6,906.2,-0.7,-0.5,-1.7,25,-40.2635,422.625,905.408,-0.6719,-0.494056,-1.72453,
2026_07_06_21_51_53.207,3.871,32.4,0,0.762,0,0,0,0, ,0,0,0,0,0, ,-40.4,422.1,906.2,-0.8,-0.5,-1.7,25,-40.2627,422.608,905.456,-0.67666,-0.494419,-1.72303,
2026_07_06_21_51_53.227,3.871,32.4,0,0.76,0,0,0,0, ,0,0,0,0,0, ,-39,422.4,905,-0.7,-0.4,-1.8,25,-40.2284,422.587,905.465,-0.681129,-0.491712,-1.72468,
2026_07_06_21_51_53.253,3.871,32.5,0,0.759,0,0,0,0, ,0,0,0,0,0, ,-40.4,423,905.8,-0.7,-0.5,-1.8,25,-40.1962,422.593,905.461,-0.682279,-0.48917,-1.72927,
2026_07_06_21_51_53.267,3.871,32.5,0,0.761,0,0,0,0, ,0,0,0,0,0, ,-40.6,424,906.2,-0.7,-0.5,-1.7,25,-40.2147,422.649,905.494,-0.683359,-0.48983,-1.73053,
2026_07_06_21_51_53.287,3.871,32.5,0,0.762,0,0,0,0, ,0,0,0,0,0, ,-39,423,905.1,-0.8,-0.5,-1.7,25,-40.1894,422.701,905.503,-0.68742,-0.49045,-1.72867,
2026_07_06_21_51_53.307,3.871,32.4,0,0.76,0,0,0,0, ,0,0,0,0,0, ,-41.3,423.9,904.7,-0.6,-0.5,-1.7,25,-40.187,422.746,905.467,-0.688186,-0.491032,-1.72692,
2026_07_06_21_51_53.327,3.871,32.6,0,0.76,0,0,0,0, ,0,0,0,0,0, ,-38.9,424.6,904.7,-0.6,-0.4,-1.7,25,-40.1817,422.838,905.42,-0.682812,-0.488531,-1.72528,
2026_07_06_21_51_53.346,3.871,32.4,0,0.761,0,0,0,0, ,0,0,0,0,0, ,-40.4,423.3,905.3,-0.7,-0.5,-1.6,25,-40.1493,422.906,905.394,-0.680813,-0.486183,-1.72069,
2026_07_06_21_51_53.366,3.871,32.4,0,0.763,0,0,0,0, ,0,0,0,0,0, ,-40.5,423.2,906.1,-0.6,-0.5,-1.8,25,-40.1677,422.927,905.413,-0.678935,-0.487025,-1.71943,
2026_07_06_21_51_53.391,3.871,32.4,0,0.76,0,0,0,0, ,0,0,0,0,0, ,-40,423.3,905.5,-0.5,-0.5,-1.8,25,-40.1727,422.946,905.436,-0.671078,-0.487816,-1.72434,
2026_07_06_21_51_53.405,3.871,32.4,0,0.76,0,0,0,0, ,0,0,0,0,0, ,-41.1,423.2,905.1,-0.7,-0.5,-1.7,25,-40.1957,422.965,905.428,-0.666747,-0.488558,-1.72591,
2026_07_06_21_51_53.426,3.871,32.4,0,0.76,0,0,0,0, ,0,0,0,0,0, ,-40.7,422.6,907.2,-0.7,-0.5,-1.8,25,-40.2386,422.961,905.472,-0.668773,-0.489256,-1.72737,
2026_07_06_21_51_53.445,3.871,32.5,0,0.761,0,0,0,0, ,0,0,0,0,0, ,-40.4,421.9,905,-0.7,-0.5,-1.8,25,-40.2576,422.918,905.51,-0.670676,-0.48991,-1.7318,
2026_07_06_21_51_53.466,3.871,32.5,0,0.76,0,0,0,0, ,0,0,0,0,0, ,-40.1,423,906.2,-0.7,-0.5,-1.7,25,-40.2571,422.889,905.516,-0.672463,-0.490525,-1.73291,
2026_07_06_21_51_53.485,3.871,32.4,0,0.762,0,0,0,0, ,0,0,0,0,0, ,-39.5,421.2,906.1,-0.7,-0.5,-1.8,25,-40.2292,422.841,905.555,-0.674141,-0.491103,-1.73395,
2026_07_06_21_51_53.505,3.871,32.4,0,0.763,0,0,0,0, ,0,0,0,0,0, ,-40,422.1,906.2,-0.7,-0.4,-1.7,25,-40.2,422.768,905.591,-0.675717,-0.488598,-1.73493,
2026_07_06_21_51_53.524,3.871,32.5,0,0.76,0,0,0,0, ,0,0,0,0,0, ,-40.2,422.9,904.7,-0.8,-0.5,-1.8,25,-40.1939,422.752,905.582,-0.680243,-0.486246,-1.73585,
2026_07_06_21_51_53.544,3.871,32.5,0,0.763,0,0,0,0, ,0,0,0,0,0, ,-39.7,423.3,905.8,-0.7,-0.5,-1.8,25,-40.1791,422.773,905.562,-0.684494,-0.487084,-1.73976,
2026_07_06_21_51_53.564,3.871,32.5,0,0.76,0,0,0,0, ,0,0,0,0,0, ,-40.4,423.7,905.1,-0.6,-0.4,-1.7,25,-40.1712,422.818,905.555,-0.682392,-0.484824,-1.74038,
2026_07_06_21_51_53.585,3.871,32.5,0,0.76,0,0,0,0, ,0,0,0,0,0, ,-40.2,422.9,904.6,-0.7,-0.4,-1.7,25,-40.1791,422.847,905.512,-0.680418,-0.479655,-1.73792,
2026_07_06_21_51_53.604,3.871,32.4,0,0.762,0,0,0,0, ,0,0,0,0,0, ,-40.6,422.9,905.1,-0.7,-0.5,-1.7,25,-40.1925,422.85,905.472,-0.681612,-0.477848,-1.73561,
2026_07_06_21_51_53.623,3.871,32.5,0,0.76,0,0,0,0, ,0,0,0,0,0, ,-39.4,423,905.6,-0.7,-0.5,-1.6,25,-40.1808,422.856,905.464,-0.682732,-0.479198,-1.73039,
2026_07_06_21_51_53.644,3.871,32.5,0,0.762,0,0,0,0, ,0,0,0,0,0, ,-40.4,423.5,905.3,-0.7,-0.5,-1.8,25,-40.1637,422.88,905.464,-0.683784,-0.480466,-1.72854,
2026_07_06_21_51_53.664,3.871,32.4,0,0.761,0,0,0,0, ,0,0,0,0,0, ,-40.6,422.7,905.3,-0.6,-0.5,-1.7,25,-40.1842,422.894,905.454,-0.681726,-0.481656,-1.72985,
2026_07_06_21_51_53.683,3.871,32.5,0,0.763,0,0,0,0, ,0,0,0,0,0, ,-40.7,421.8,905.7,-0.6,-0.5,-1.7,25,-40.2126,422.854,905.456,-0.676746,-0.482774,-1.72803,
2026_07_06_21_51_53.703,3.871,32.5,0,0.76,0,0,0,0, ,0,0,0,0,0, ,-39.9,423.9,905.2,-0.6,-0.5,-1.8,25,-40.2179,422.854,905.456,-0.672069,-0.483824,-1.72937,
2026_07_06_21_51_53.723,3.871,32.5,0,0.761,0,0,0,0, ,0,0,0,0,0, ,-40.2,423.4,905.7,-0.5,-0.4,-1.7,25,-40.2077,422.903,905.456,-0.66463,-0.481762,-1.73062,
2026_07_06_21_51_53.742,3.871,32.5,0,0.76,0,0,0,0, ,0,0,0,0,0, ,-40,421.3,905.2,-0.6,-0.5,-1.7,25,-40.2011,422.869,905.455,-0.657645,-0.479827,-1.72876,
2026_07_06_21_51_53.762,3.871,32.5,0,0.763,0,0,0,0, ,0,0,0,0,0, ,-40.4,422.7,904.9,-0.6,-0.4,-1.8,25,-40.201,422.816,905.431,-0.654132,-0.478009,-1.73005,
2026_07_06_21_51_53.782,3.871,32.5,0,0.762,0,0,0,0, ,0,0,0,0,0, ,-40.7,423.3,906.1,-0.7,-0.5,-1.7,25,-40.2223,422.827,905.435,-0.65388,-0.476302,-1.73127,
2026_07_06_21_51_53.802,3.871,32.5,0,0.76,0,0,0,0, ,0,0,0,0,0, ,-40.6,421.2,905.1,-0.7,-0.5,-1.7,25,-40.2484,422.792,905.445,-0.656691,-0.477747,-1.72936,
2026_07_06_21_51_53.821,3.871,32.5,0,0.761,0,0,0,0, ,0,0,0,0,0, ,-40.8,424.1,905.8,-0.6,-0.5,-1.8,25,-40.2759,422.783,905.445,-0.656283,-0.479103,-1.73062,
2026_07_06_21_51_53.842,3.871,32.6,0,0.761,0,0,0,0, ,0,0,0,0,0, ,-39.7,422.7,904.1,-0.6,-0.4,-1.7,25,-40.2743,422.821,905.415,-0.652853,-0.477329,-1.7318,
2026_07_06_21_51_53.861,3.871,32.5,0,0.763,0,0,0,0, ,0,0,0,0,0, ,-40.2,423.5,904.6,-0.6,-0.5,-1.7,25,-40.2545,422.838,905.35,-0.649633,-0.475664,-1.72986,
2026_07_06_21_51_53.881,3.871,32.4,0,0.76,0,0,0,0, ,0,0,0,0,0, ,-40.2,421.8,905,-0.7,-0.5,-1.8,25,-40.2512,422.827,905.317,-0.649655,-0.477147,-1.73109,
2026_07_06_21_51_53.901,3.871,32.4,0,0.76,0,0,0,0, ,0,0,0,0,0, ,-39.7,421.7,904.7,-0.6,-0.5,-1.7,25,-40.2329,422.761,905.288,-0.649676,-0.478539,-1.73224,
2026_07_06_21_51_53.920,3.871,32.5,0,0.761,0,0,0,0, ,0,0,0,0,0, ,-39.9,422.2,905.2,-0.6,-0.5,-1.8,25,-40.2065,422.712,905.268,-0.646649,-0.479847,-1.73333,
2026_07_06_21_51_53.940,3.871,32.6,0,0.76,0,0,0,0, ,0,0,0,0,0, ,-40.4,422.2,905.2,-0.6,-0.5,-1.7,25,-40.203,422.68,905.263,-0.643806,-0.481075,-1.73434,
2026_07_06_21_51_53.960,3.871,32.5,0,0.761,0,0,0,0, ,0,0,0,0,0, ,-40,422.3,905.2,-0.7,-0.5,-1.7,25,-40.2029,422.654,905.26,-0.644184,-0.482228,-1.73225,
2026_07_06_21_51_53.980,3.871,32.5,0,0.761,0,0,0,0, ,0,0,0,0,0, ,-40.6,423.9,905,-0.7,-0.5,-1.8,25,-40.2088,422.681,905.25,-0.647585,-0.483311,-1.73333,
2026_07_06_21_51_54.000,3.871,32.4,0,0.763,0,0,0,0, ,0,0,0,0,0, ,-41.1,423.4,903.9,-0.7,-0.5,-1.7,25,-40.2479,422.74,905.201,-0.650779,-0.484328,-1.73435,
2026_07_06_21_51_54.020,3.871,32.6,0,0.76,0,0,0,0, ,0,0,0,0,0, ,-39.4,423.4,905.6,-0.8,-0.5,-1.7,25,-40.248,422.781,905.174,-0.656825,-0.485283,-1.73225,
2026_07_06_21_51_54.040,3.871,32.5,0,0.761,0,0,0,0, ,0,0,0,0,0, ,-40.6,422.3,906.7,-0.8,-0.5,-1.8,25,-40.2329,422.785,905.233,-0.66555,-0.48618,-1.73333,
2026_07_06_21_51_54.060,3.871,32.5,0,0.76,0,0,0,0, ,0,0,0,0,0, ,-40,425.5,905.8,-0.7,-0.5,-1.7,25,-40.237,422.853,905.295,-0.670696,-0.487022,-1.73435,
2026_07_06_21_51_54.079,3.871,32.5,0,0.761,0,0,0,0, ,0,0,0,0,0, ,-41.1,422.2,906.1,-0.6,-0.5,-1.8,25,-40.256,422.913,905.335,-0.669435,-0.487813,-1.7353,
2026_07_06_21_51_54.099,3.871,32.5,0,0.76,0,0,0,0, ,0,0,0,0,0, ,-40,423.4,904.6,-0.8,-0.4,-1.7,25,-40.274,422.907,905.336,-0.671298,-0.485509,-1.7362,
2026_07_06_21_51_54.119,3.871,32.5,0,0.76,0,0,0,0, ,0,0,0,0,0, ,-40.5,423.5,906.3,-0.7,-0.5,-1.7,25,-40.2725,422.94,905.343,-0.676093,-0.483345,-1.73399,
2026_07_06_21_51_54.139,3.871,32.5,0,0.76,0,0,0,0, ,0,0,0,0,0, ,-40.4,423.7,906,-0.6,-0.5,-1.7,25,-40.2833,422.98,905.392,-0.674503,-0.48436,-1.73192,
2026_07_06_21_51_54.160,3.871,32.5,0,0.761,0,0,0,0, ,0,0,0,0,0, ,-40.8,421.8,904.9,-0.6,-0.5,-1.7,25,-40.3026,422.966,905.396,-0.669963,-0.485313,-1.72998,
2026_07_06_21_51_54.179,3.871,32.5,0,0.76,0,0,0,0, ,0,0,0,0,0, ,-40,422.6,905.3,-0.7,-0.5,-1.7,25,-40.3085,422.919,905.378,-0.668747,-0.486208,-1.72815,
2026_07_06_21_51_54.198,3.871,32.5,0,0.76,0,0,0,0, ,0,0,0,0,0, ,-40.5,421.7,906.1,-0.6,-0.6,-1.7,25,-40.305,422.872,905.397,-0.667604,-0.490095,-1.72643,
2026_07_06_21_51_54.218,3.871,32.5,0,0.76,0,0,0,0, ,0,0,0,0,0, ,-39.7,423,904.7,-0.6,-0.5,-1.8,25,-40.2925,422.841,905.397,-0.663485,-0.493746,-1.72787,
2026_07_06_21_51_54.238,3.871,32.5,0,0.761,0,0,0,0, ,0,0,0,0,0, ,-40.8,423.2,905.3,-0.6,-0.5,-1.8,25,-40.2899,422.856,905.373,-0.659616,-0.494127,-1.73227,
2026_07_06_21_51_54.258,3.871,32.5,0,0.761,0,0,0,0, ,0,0,0,0,0, ,-40.5,421,905.5,-0.7,-0.5,-1.7,25,-40.3118,422.81,905.375,-0.65903,-0.494485,-1.73335,
2026_07_06_21_51_54.277,3.871,32.5,0,0.761,0,0,0,0, ,0,0,0,0,0, ,-40.6,422.4,905.7,-0.7,-0.4,-1.7,25,-40.3264,422.743,905.389,-0.661527,-0.491774,-1.73131,
2026_07_06_21_51_54.297,3.871,32.5,0,0.761,0,0,0,0, ,0,0,0,0,0, ,-41.3,422.3,904.2,-0.7,-0.5,-1.7,25,-40.3644,422.719,905.362,-0.663871,-0.489228,-1.72941,
2026_07_06_21_51_54.317,3.871,32.5,0,0.763,0,0,0,0, ,0,0,0,0,0, ,-41.1,422.3,905,-0.7,-0.5,-1.7,25,-40.4153,422.693,905.315,-0.666073,-0.489885,-1.72761,
2026_07_06_21_51_54.337,3.871,32.6,0,0.761,0,0,0,0, ,0,0,0,0,0, ,-41.7,422.9,905.1,-0.7,-0.5,-1.7,25,-40.4753,422.687,905.299,-0.66814,-0.490501,-1.72593,
2026_07_06_21_51_54.356,3.871,32.5,0,0.761,0,0,0,0, ,0,0,0,0,0, ,-41.1,423.8,906.6,-0.8,-0.5,-1.7,25,-40.5316,422.728,905.333,-0.673129,-0.49108,-1.72435,
2026_07_06_21_51_54.376,3.871,32.5,0,0.76,0,0,0,0, ,0,0,0,0,0, ,-40.4,422.7,904.4,-0.7,-0.5,-1.7,25,-40.5449,422.76,905.343,-0.677813,-0.491624,-1.72287,
2026_07_06_21_51_54.397,3.871,32.5,0,0.761,0,0,0,0, ,0,0,0,0,0, ,-39.6,422.9,906.4,-0.7,-0.4,-1.7,25,-40.5117,422.762,905.346,-0.679165,-0.489087,-1.72147,
2026_07_06_21_51_54.416,3.871,32.5,0,0.76,0,0,0,0, ,0,0,0,0,0, ,-40.2,423.3,905,-0.7,-0.5,-1.8,25,-40.4745,422.783,905.368,-0.680435,-0.486705,-1.72321,
2026_07_06_21_51_54.436,3.871,32.5,0,0.761,0,0,0,0, ,0,0,0,0,0, ,-41.3,424,904.9,-0.7,-0.4,-1.8,25,-40.4912,422.836,905.343,-0.681627,-0.484469,-1.72789,
2026_07_06_21_51_54.456,3.871,32.6,0,0.761,0,0,0,0, ,0,0,0,0,0, ,-40.2,422.7,905.1,-0.6,-0.4,-1.7,25,-40.507,422.867,905.322,-0.6797,-0.479321,-1.72924,
2026_07_06_21_51_54.475,3.871,32.5,0,0.76,0,0,0,0, ,0,0,0,0,0, ,-40.5,423.5,906.4,-0.6,-0.5,-1.7,25,-40.4974,422.881,905.348,-0.674843,-0.477534,-1.72746,
2026_07_06_21_51_54.495,3.871,32.5,0,0.761,0,0,0,0, ,0,0,0,0,0, ,-40.6,423.2,905.8,-0.7,-0.4,-1.7,25,-40.5006,422.91,905.394,-0.673329,-0.475857,-1.72578,
2026_07_06_21_51_54.515,3.871,32.5,0,0.761,0,0,0,0, ,0,0,0,0,0, ,-40,423.4,905.5,-0.6,-0.5,-1.7,25,-40.4884,422.933,905.409,-0.671907,-0.474281,-1.72421,
2026_07_06_21_51_54.535,3.871,32.5,0,0.761,0,0,0,0, ,0,0,0,0,0, ,-40.7,422.7,905.3,-0.5,-0.5,-1.8,25,-40.48,422.941,905.409,-0.664479,-0.475848,-1.72578,
2026_07_06_21_51_54.555,3.871,32.5,0,0.758,0,0,0,0, ,0,0,0,0,0, ,-39.4,422.9,905.7,-0.7,-0.5,-1.7,25,-40.4538,422.932,905.414,-0.66055,-0.47732,-1.72726,
2026_07_06_21_51_54.574,3.871,32.4,0,0.761,0,0,0,0, ,0,0,0,0,0, ,-40.4,423,906.3,-0.6,-0.4,-1.7,25,-40.42,422.933,905.45,-0.659907,-0.475655,-1.7256,
2026_07_06_21_51_54.595,3.871,32.5,0,0.761,0,0,0,0, ,0,0,0,0,0, ,-39.7,422.6,905.8,-0.7,-0.5,-1.7,25,-40.3975,422.925,905.486,-0.659303,-0.474092,-1.72404,
2026_07_06_21_51_54.622,3.871,32.5,0,0.761,0,0,0,0, ,0,0,0,0,0, ,-41,423,905.2,-0.7,-0.5,-1.8,25,-40.3946,422.917,905.487,-0.661783,-0.475671,-1.72562,
2026_07_06_21_51_54.634,3.871,32.5,0,0.761,0,0,0,0, ,0,0,0,0,0, ,-40.2,423.2,904.5,-0.6,-0.4,-1.7,25,-40.4071,422.929,905.448,-0.661065,-0.474106,-1.72711,
2026_07_06_21_51_54.654,3.871,32.5,0,0.761,0,0,0,0, ,0,0,0,0,0, ,-40.1,423.7,905.5,-0.6,-0.5,-1.7,25,-40.3914,422.96,905.421,-0.657344,-0.472637,-1.72545,
2026_07_06_21_51_54.674,3.871,32.6,0,0.761,0,0,0,0, ,0,0,0,0,0, ,-40.4,422.4,905.6,-0.6,-0.5,-1.7,25,-40.3828,422.966,905.429,-0.653849,-0.474305,-1.7239,
2026_07_06_21_51_54.693,3.871,32.6,0,0.761,0,0,0,0, ,0,0,0,0,0, ,-40.7,423.5,906.1,-0.7,-0.5,-1.8,25,-40.393,422.965,905.455,-0.653615,-0.475871,-1.72549,
2026_07_06_21_51_54.714,3.871,32.5,0,0.76,0,0,0,0, ,0,0,0,0,0, ,-39.6,423.3,905.2,-0.6,-0.5,-1.8,25,-40.3782,422.991,905.467,-0.653395,-0.477341,-1.73003,
2026_07_06_21_51_54.733,3.871,32.5,0,0.761,0,0,0,0, ,0,0,0,0,0, ,-39.9,423.5,904.5,-0.6,-0.5,-1.7,25,-40.3399,423.016,905.429,-0.650141,-0.478722,-1.73125,
2026_07_06_21_51_54.753,3.871,32.5,0,0.763,0,0,0,0, ,0,0,0,0,0, ,-40,423.2,906.2,-0.6,-0.4,-1.7,25,-40.3162,423.037,905.424,-0.647085,-0.476971,-1.72935,
2026_07_06_21_51_54.778,3.871,32.5,0,0.761,0,0,0,0, ,0,0,0,0,0, ,-39,422.9,905.6,-0.6,-0.5,-1.8,25,-40.2664,423.037,905.453,-0.644216,-0.475328,-1.7306,
2026_07_06_21_51_54.792,3.871,32.5,0,0.761,0,0,0,0, ,0,0,0,0,0, ,-40.2,422.3,905.5,-0.6,-0.5,-1.7,25,-40.2258,423.011,905.459,-0.641522,-0.476831,-1.73179,
2026_07_06_21_51_54.812,3.871,32.6,0,0.76,0,0,0,0, ,0,0,0,0,0, ,-39.6,423.3,906,-0.7,-0.5,-1.7,25,-40.206,422.998,905.477,-0.642038,-0.478243,-1.72985,
2026_07_06_21_51_54.832,3.871,32.4,0,0.761,0,0,0,0, ,0,0,0,0,0, ,-40.2,422.7,904.9,-0.7,-0.5,-1.7,25,-40.1873,422.998,905.475,-0.64557,-0.479569,-1.72803,
2026_07_06_21_51_54.852,3.871,32.5,0,0.761,0,0,0,0, ,0,0,0,0,0, ,-39.9,422.9,906.9,-0.9,-0.4,-1.8,25,-40.1789,422.986,905.501,-0.654981,-0.477767,-1.72937,
2026_07_06_21_51_54.872,3.871,32.4,0,0.763,0,0,0,0, ,0,0,0,0,0, ,-41.8,423.2,904.4,-0.7,-0.4,-1.7,25,-40.2198,422.99,905.51,-0.663818,-0.473028,-1.73063,
2026_07_06_21_51_54.892,3.871,32.4,0,0.764,0,0,0,0, ,0,0,0,0,0, ,-42.1,421.6,905.1,-0.7,-0.4,-1.7,25,-40.3253,422.954,905.464,-0.666023,-0.468578,-1.72876,
2026_07_06_21_51_54.911,3.871,32.5,0,0.76,0,0,0,0, ,0,0,0,0,0, ,-39.3,422.3,905.6,-0.7,-0.4,-1.8,25,-40.3481,422.893,905.457,-0.668093,-0.464399,-1.73005,
2026_07_06_21_51_54.931,3.871,32.5,0,0.76,0,0,0,0, ,0,0,0,0,0, ,-40.1,423.8,905.7,-0.7,-0.5,-1.8,25,-40.3086,422.902,905.469,-0.670038,-0.463522,-1.73432,
2026_07_06_21_51_54.951,3.871,32.5,0,0.76,0,0,0,0, ,0,0,0,0,0, ,-40.4,423.3,905.6,-0.7,-0.5,-1.7,25,-40.305,422.942,905.48,-0.671863,-0.465745,-1.73527,
2026_07_06_21_51_54.971,3.871,32.4,0,0.759,0,0,0,0, ,0,0,0,0,0, ,-39,423.2,906.2,-0.7,-0.4,-1.7,25,-40.2682,422.961,905.505,-0.673578,-0.464785,-1.73312,
2026_07_06_21_51_54.991,3.871,32.4,0,0.76,0,0,0,0, ,0,0,0,0,0, ,-40.1,423.5,906.4,-0.7,-0.5,-1.7,25,-40.2244,422.984,905.554,-0.675188,-0.463884,-1.7311,
2026_07_06_21_51_55.010,3.871,32.4,0,0.76,0,0,0,0, ,0,0,0,0,0, ,-40,423.2,904.5,-0.6,-0.5,-1.8,25,-40.2138,423.007,905.547,-0.673653,-0.466085,-1.73226,
2026_07_06_21_51_55.030,3.871,32.5,0,0.762,0,0,0,0, ,0,0,0,0,0, ,-41.5,422.6,905.2,-0.6,-0.5,-1.7,25,-40.2465,423,905.505,-0.669165,-0.468152,-1.73334,
2026_07_06_21_51_55.050,3.871,32.5,0,0.761,0,0,0,0, ,0,0,0,0,0, ,-40.1,422.7,904.2,-0.6,-0.5,-1.8,25,-40.2802,422.979,905.456,-0.66495,-0.470092,-1.73435,
2026_07_06_21_51_55.070,3.871,32.5,0,0.762,0,0,0,0, ,0,0,0,0,0, ,-39.7,423,904.9,-0.7,-0.5,-1.7,25,-40.257,422.971,905.401,-0.664039,-0.471915,-1.73531,
2026_07_06_21_51_55.089,3.871,32.4,0,0.76,0,0,0,0, ,0,0,0,0,0, ,-40.6,422.9,905.2,-0.5,-0.5,-1.6,25,-40.2505,422.97,905.379,-0.660137,-0.473626,-1.73011,
2026_07_06_21_51_55.110,3.871,32.5,0,0.762,0,0,0,0, ,0,0,0,0,0, ,-40.8,421.6,905.1,-0.5,-0.5,-1.8,25,-40.2779,422.926,905.365,-0.650379,-0.475233,-1.72827,
2026_07_06_21_51_55.129,3.871,32.5,0,0.759,0,0,0,0, ,0,0,0,0,0, ,-39.7,422.9,904.6,-0.7,-0.5,-1.8,25,-40.2762,422.885,905.334,-0.647309,-0.476743,-1.73264,
2026_07_06_21_51_55.149,3.871,32.4,0,0.762,0,0,0,0, ,0,0,0,0,0, ,-39.9,421.9,905.7,-0.6,-0.5,-1.7,25,-40.2472,422.855,905.323,-0.647473,-0.47816,-1.7337,
2026_07_06_21_51_55.169,3.871,32.4,0,0.76,0,0,0,0, ,0,0,0,0,0, ,-39.7,422.8,904.4,-0.6,-0.5,-1.7,25,-40.2199,422.824,905.306,-0.64458,-0.479491,-1.73165,
2026_07_06_21_51_55.188,3.871,32.5,0,0.76,0,0,0,0, ,0,0,0,0,0, ,-40.6,422.3,904.4,-0.7,-0.5,-1.7,25,-40.2157,422.808,905.251,-0.64491,-0.480741,-1.72972,
2026_07_06_21_51_55.208,3.871,32.5,0,0.76,0,0,0,0, ,0,0,0,0,0, ,-40.5,423.4,904.9,-0.7,-0.5,-1.7,25,-40.236,422.81,905.214,-0.648267,-0.481914,-1.72791,
2026_07_06_21_51_55.228,3.871,32.6,0,0.762,0,0,0,0, ,0,0,0,0,0, ,-39.3,422.6,905.3,-0.7,-0.4,-1.8,25,-40.2156,422.822,905.207,-0.65142,-0.479969,-1.72925,
2026_07_06_21_51_55.249,3.871,32.5,0,0.762,0,0,0,0, ,0,0,0,0,0, ,-39.1,422.6,905,-0.7,-0.5,-1.7,25,-40.1537,422.808,905.204,-0.65438,-0.478143,-1.73052,
2026_07_06_21_51_55.272,3.871,32.5,0,0.76,0,0,0,0, ,0,0,0,0,0, ,-39.6,422.7,906.2,-0.5,-0.5,-1.7,25,-40.1047,422.799,905.228,-0.651066,-0.479475,-1.72866,
2026_07_06_21_51_55.288,3.871,32.5,0,0.762,0,0,0,0, ,0,0,0,0,0, ,-39.7,422.4,905.3,-0.5,-0.4,-1.7,25,-40.077,422.783,905.26,-0.641861,-0.477679,-1.72691,
2026_07_06_21_51_55.308,3.871,32.5,0,0.762,0,0,0,0, ,0,0,0,0,0, ,-39.5,422.4,905.5,-0.6,-0.5,-1.7,25,-40.0479,422.76,905.268,-0.636263,-0.475992,-1.72527,
2026_07_06_21_51_55.328,3.871,32.5,0,0.76,0,0,0,0, ,0,0,0,0,0, ,-40.4,421.8,906.1,-0.7,-0.5,-1.8,25,-40.042,422.72,905.301,-0.6371,-0.477455,-1.72678,
2026_07_06_21_51_55.347,3.871,32.5,0,0.76,0,0,0,0, ,0,0,0,0,0, ,-40.1,422.9,905.8,-0.7,-0.5,-1.7,25,-40.0546,422.697,905.34,-0.640933,-0.478829,-1.72819,
2026_07_06_21_51_55.367,3.871,32.5,0,0.76,0,0,0,0, ,0,0,0,0,0, ,-39.9,423.7,904.9,-0.6,-0.5,-1.7,25,-40.0513,422.734,905.341,-0.641485,-0.480119,-1.72648,
2026_07_06_21_51_55.387,3.871,32.6,0,0.762,0,0,0,0, ,0,0,0,0,0, ,-40.2,421.9,904.6,-0.7,-0.5,-1.7,25,-40.0512,422.738,905.305,-0.642004,-0.481331,-1.72486,
2026_07_06_21_51_55.407,3.871,32.5,0,0.76,0,0,0,0, ,0,0,0,0,0, ,-41.2,421.9,903.9,-0.8,-0.5,-1.7,25,-40.0908,422.687,905.241,-0.648585,-0.482468,-1.72335,
2026_07_06_21_51_55.427,3.871,32.5,0,0.762,0,0,0,0, ,0,0,0,0,0, ,-39.4,422.4,905.8,-0.8,-0.5,-1.8,25,-40.1035,422.654,905.217,-0.657812,-0.483537,-1.72497,
2026_07_06_21_51_55.447,3.871,32.5,0,0.76,0,0,0,0, ,0,0,0,0,0, ,-40.8,422.8,906.3,-0.7,-0.5,-1.8,25,-40.1033,422.651,905.268,-0.66343,-0.48454,-1.72954,
2026_07_06_21_51_55.467,3.871,32.6,0,0.762,0,0,0,0, ,0,0,0,0,0, ,-40.6,421.5,904,-0.7,-0.5,-1.7,25,-40.1397,422.62,905.26,-0.665658,-0.485482,-1.73079,
2026_07_06_21_51_55.487,3.871,32.6,0,0.762,0,0,0,0, ,0,0,0,0,0, ,-39.5,422.8,905.7,-0.8,-0.5,-1.8,25,-40.1342,422.592,905.235,-0.670798,-0.486367,-1.73196,
2026_07_06_21_51_55.506,3.871,32.5,0,0.762,0,0,0,0, ,0,0,0,0,0, ,-41.6,423.3,906,-0.7,-0.5,-1.7,25,-40.1595,422.62,905.273,-0.675624,-0.487197,-1.73306,
2026_07_06_21_51_55.526,3.871,32.4,0,0.762,0,0,0,0, ,0,0,0,0,0, ,-40,423.2,905.1,-0.7,-0.6,-1.7,25,-40.1986,422.658,905.29,-0.67711,-0.491024,-1.73105,
2026_07_06_21_51_55.545,3.871,32.6,0,0.76,0,0,0,0, ,0,0,0,0,0, ,-40.6,423,905.1,-0.7,-0.4,-1.6,25,-40.2047,422.685,905.278,-0.678505,-0.491571,-1.72611,
2026_07_06_21_51_55.565,3.871,32.5,0,0.76,0,0,0,0, ,0,0,0,0,0, ,-40.2,422.3,904.5,-0.6,-0.4,-1.7,25,-40.2166,422.683,905.249,-0.676768,-0.485991,-1.72147,
2026_07_06_21_51_55.585,3.871,32.5,0,0.76,0,0,0,0, ,0,0,0,0,0, ,-40.1,422.9,906.1,-0.6,-0.4,-1.8,25,-40.2126,422.678,905.252,-0.67209,-0.480751,-1.72321,
2026_07_06_21_51_55.610,3.871,32.4,0,0.76,0,0,0,0, ,0,0,0,0,0, ,-39.6,423,906.6,-0.5,-0.5,-1.8,25,-40.1905,422.694,905.319,-0.66465,-0.478877,-1.72789,
2026_07_06_21_51_55.624,3.871,32.5,0,0.76,0,0,0,0, ,0,0,0,0,0, ,-41,422.3,905.1,-0.6,-0.5,-1.7,25,-40.1972,422.692,905.351,-0.657663,-0.480164,-1.72923,
2026_07_06_21_51_55.645,3.871,32.5,0,0.76,0,0,0,0, ,0,0,0,0,0, ,-39.1,423,906.1,-0.7,-0.5,-1.7,25,-40.1882,422.689,905.367,-0.657196,-0.481373,-1.72745,
2026_07_06_21_51_55.665,3.871,32.5,0,0.759,0,0,0,0, ,0,0,0,0,0, ,-40.5,422.4,906.3,-0.6,-0.5,-1.7,25,-40.1645,422.69,905.417,-0.656758,-0.482508,-1.72578,
2026_07_06_21_51_55.684,3.871,32.5,0,0.76,0,0,0,0, ,0,0,0,0,0, ,-38.9,422.7,906.1,-0.6,-0.5,-1.7,25,-40.1362,422.681,905.465,-0.653299,-0.483574,-1.72421,
2026_07_06_21_51_55.704,3.871,32.5,0,0.763,0,0,0,0, ,0,0,0,0,0, ,-39.5,422.4,905.5,-0.7,-0.5,-1.7,25,-40.0792,422.673,905.485,-0.653098,-0.484575,-1.72273,
2026_07_06_21_51_55.724,3.871,32.5,0,0.76,0,0,0,0, ,0,0,0,0,0, ,-40.2,423.4,905.8,-0.8,-0.5,-1.8,25,-40.0652,422.687,905.495,-0.659003,-0.485515,-1.7244,
2026_07_06_21_51_55.743,3.871,32.6,0,0.762,0,0,0,0, ,0,0,0,0,0, ,-41.5,421.9,905.3,-0.7,-0.5,-1.7,25,-40.113,422.685,905.499,-0.664548,-0.486398,-1.72596,
2026_07_06_21_51_55.763,3.871,32.5,0,0.76,0,0,0,0, ,0,0,0,0,0, ,-40.4,423,905.8,-0.8,-0.6,-1.8,25,-40.164,422.671,905.502,-0.669755,-0.490274,-1.72742,
2026_07_06_21_51_55.791,3.871,32.6,0,0.76,0,0,0,0, ,0,0,0,0,0, ,-40.4,422.2,906.2,-0.7,-0.6,-1.7,25,-40.1784,422.666,905.532,-0.674645,-0.49696,-1.7288,
2026_07_06_21_51_55.802,3.871,32.5,0,0.76,0,0,0,0, ,0,0,0,0,0, ,-40.2,422.8,906,-0.7,-0.5,-1.6,25,-40.1858,422.656,905.567,-0.67619,-0.500192,-1.724,
2026_07_06_21_51_55.823,3.871,32.5,0,0.762,0,0,0,0, ,0,0,0,0,0, ,-39,422.7,905,-0.7,-0.5,-1.7,25,-40.1501,422.662,905.563,-0.677641,-0.50018,-1.71949,
2026_07_06_21_51_55.842,3.871,32.6,0,0.76,0,0,0,0, ,0,0,0,0,0, ,-40.4,421.9,906.2,-0.7,-0.4,-1.7,25,-40.1227,422.64,905.565,-0.679004,-0.497123,-1.7183,
2026_07_06_21_51_55.863,3.871,32.5,0,0.76,0,0,0,0, ,0,0,0,0,0, ,-40.8,422.6,905.5,-0.7,-0.5,-1.7,25,-40.1518,422.616,905.582,-0.680283,-0.494251,-1.71718,
2026_07_06_21_51_55.882,3.871,32.6,0,0.762,0,0,0,0, ,0,0,0,0,0, ,-41,422.8,907.1,-0.7,-0.5,-1.7,25,-40.1974,422.621,905.626,-0.681485,-0.494601,-1.71614,
2026_07_06_21_51_55.902,3.871,32.6,0,0.761,0,0,0,0, ,0,0,0,0,0, ,-39.5,423.5,904.4,-0.6,-0.5,-1.7,25,-40.2006,422.653,905.634,-0.679566,-0.49493,-1.71515,
2026_07_06_21_51_55.922,3.871,32.6,0,0.762,0,0,0,0, ,0,0,0,0,0, ,-39.7,422.9,905.7,-0.5,-0.5,-1.7,25,-40.164,422.687,905.598,-0.671671,-0.495239,-1.71423,
2026_07_06_21_51_55.942,3.871,32.6,0,0.76,0,0,0,0, ,0,0,0,0,0, ,-40,423.9,905.6,-0.7,-0.5,-1.7,25,-40.1449,422.73,905.601,-0.667303,-0.495529,-1.71336,
2026_07_06_21_51_55.964,3.871,32.5,0,0.762,0,0,0,0, ,0,0,0,0,0, ,-38.9,422.9,906.1,-0.7,-0.5,-1.7,25,-40.1025,422.771,905.616,-0.669296,-0.495802,-1.71255,
2026_07_06_21_51_55.981,3.871,32.6,0,0.762,0,0,0,0, ,0,0,0,0,0, ,-41,422.8,904.5,-0.5,-0.5,-1.8,25,-40.0932,422.776,905.597,-0.665073,-0.496058,-1.71483,
2026_07_06_21_51_56.002,3.871,32.6,0,0.76,0,0,0,0, ,0,0,0,0,0, ,-40.5,423.2,905.8,-0.8,-0.4,-1.7,25,-40.1332,422.789,905.57,-0.664154,-0.493251,-1.71697,
2026_07_06_21_51_56.021,3.871,32.6,0,0.762,0,0,0,0, ,0,0,0,0,0, ,-39.6,423.9,906,-0.7,-0.5,-1.7,25,-40.1282,422.836,905.59,-0.669386,-0.490615,-1.71594,
2026_07_06_21_51_56.041,3.871,32.6,0,0.762,0,0,0,0, ,0,0,0,0,0, ,-39.9,422.3,904.5,-0.7,-0.5,-1.7,25,-40.1051,422.852,905.569,-0.671251,-0.491187,-1.71497,
2026_07_06_21_51_56.061,3.871,32.6,0,0.76,0,0,0,0, ,0,0,0,0,0, ,-40.6,422.6,905.5,-0.7,-0.5,-1.7,25,-40.114,422.827,905.535,-0.673003,-0.491724,-1.71406,
2026_07_06_21_51_56.081,3.871,32.6,0,0.762,0,0,0,0, ,0,0,0,0,0, ,-40.4,423.7,905.3,-0.7,-0.5,-1.7,25,-40.1375,422.847,905.526,-0.674648,-0.492229,-1.7132,
2026_07_06_21_51_56.101,3.871,32.6,0,0.76,0,0,0,0, ,0,0,0,0,0, ,-39.1,422.6,905.5,-0.6,-0.5,-1.7,25,-40.1139,422.866,905.519,-0.673146,-0.492702,-1.7124,
2026_07_06_21_51_56.120,3.871,32.5,0,0.762,0,0,0,0, ,0,0,0,0,0, ,-40.5,424.6,905.5,-0.6,-0.5,-1.8,25,-40.0947,422.91,905.518,-0.668689,-0.493147,-1.71469,
2026_07_06_21_51_56.140,3.871,32.5,0,0.762,0,0,0,0, ,0,0,0,0,0, ,-40.2,423.9,906.2,-0.6,-0.6,-1.8,25,-40.1103,422.992,905.538,-0.664503,-0.496611,-1.71989,
2026_07_06_21_51_56.161,3.871,32.5,0,0.762,0,0,0,0, ,0,0,0,0,0, ,-40,422.3,904.4,-0.6,-0.5,-1.7,25,-40.1097,422.999,905.523,-0.660572,-0.499865,-1.72172,
2026_07_06_21_51_56.180,3.871,32.6,0,0.759,0,0,0,0, ,0,0,0,0,0, ,-39.5,421.9,903.6,-0.6,-0.5,-1.8,25,-40.0877,422.944,905.43,-0.656881,-0.499873,-1.72344,
2026_07_06_21_51_56.199,3.871,32.5,0,0.76,0,0,0,0, ,0,0,0,0,0, ,-40.8,421.7,904.6,-0.6,-0.5,-1.8,25,-40.0915,422.874,905.349,-0.653415,-0.499881,-1.72811,
2026_07_06_21_51_56.219,3.871,32.5,0,0.762,0,0,0,0, ,0,0,0,0,0, ,-40.1,423,905.1,-0.7,-0.5,-1.8,25,-40.1134,422.842,905.319,-0.653207,-0.499888,-1.73249,
2026_07_06_21_51_56.239,3.871,32.6,0,0.762,0,0,0,0, ,0,0,0,0,0, ,-40.4,421.8,905.2,-0.7,-0.4,-1.7,25,-40.1217,422.815,905.309,-0.656058,-0.496848,-1.73356,
2026_07_06_21_51_56.259,3.871,32.5,0,0.759,0,0,0,0, ,0,0,0,0,0, ,-40.4,423.2,904,-0.7,-0.5,-1.7,25,-40.1387,422.796,905.266,-0.658736,-0.493993,-1.73151,
2026_07_06_21_51_56.279,3.871,32.6,0,0.76,0,0,0,0, ,0,0,0,0,0, ,-41.2,422.3,905.6,-0.6,-0.5,-1.7,25,-40.179,422.793,905.237,-0.658204,-0.494359,-1.72959,
2026_07_06_21_51_56.298,3.871,32.6,0,0.76,0,0,0,0, ,0,0,0,0,0, ,-41.1,421.9,907.1,-0.7,-0.4,-1.7,25,-40.2381,422.751,905.305,-0.657704,-0.491656,-1.72779,
2026_07_06_21_51_56.318,3.871,32.6,0,0.76,0,0,0,0, ,0,0,0,0,0, ,-41,424.5,905.2,-0.8,-0.5,-1.7,25,-40.2876,422.778,905.356,-0.663328,-0.489118,-1.7261,
2026_07_06_21_51_56.338,3.871,32.5,0,0.761,0,0,0,0, ,0,0,0,0,0, ,-41,423,906.3,-0.7,-0.5,-1.7,25,-40.331,422.838,905.38,-0.66861,-0.489781,-1.7245,
2026_07_06_21_51_56.359,3.871,32.6,0,0.761,0,0,0,0, ,0,0,0,0,0, ,-40.2,424.4,906.3,-0.7,-0.4,-1.7,25,-40.3474,422.89,905.436,-0.670523,-0.487357,-1.72301,
2026_07_06_21_51_56.378,3.871,32.6,0,0.76,0,0,0,0, ,0,0,0,0,0, ,-40.2,422.9,905.6,-0.8,-0.4,-1.8,25,-40.3384,422.936,905.468,-0.675366,-0.482033,-1.72466,
2026_07_06_21_51_56.398,3.871,32.6,0,0.759,0,0,0,0, ,0,0,0,0,0, ,-41.9,423.4,906.2,-0.6,-0.5,-1.8,25,-40.3818,422.949,905.494,-0.676867,-0.480081,-1.72925,
2026_07_06_21_51_56.417,3.871,32.5,0,0.762,0,0,0,0, ,0,0,0,0,0, ,-41.6,422.9,905.7,-0.6,-0.5,-1.7,25,-40.4652,422.962,905.522,-0.672183,-0.481295,-1.73051,
2026_07_06_21_51_56.437,3.871,32.6,0,0.761,0,0,0,0, ,0,0,0,0,0, ,-40.1,422.8,904.9,-0.6,-0.5,-1.8,25,-40.4886,422.955,905.508,-0.667784,-0.482435,-1.7317,
2026_07_06_21_51_56.457,3.871,32.6,0,0.76,0,0,0,0, ,0,0,0,0,0, ,-41,422.9,904.7,-0.7,-0.5,-1.7,25,-40.4924,422.948,905.465,-0.6667,-0.483505,-1.73281,
2026_07_06_21_51_56.477,3.871,32.6,0,0.763,0,0,0,0, ,0,0,0,0,0, ,-40.7,423.2,905.3,-0.6,-0.5,-1.7,25,-40.5142,422.955,905.437,-0.665683,-0.48451,-1.73082,
2026_07_06_21_51_56.497,3.871,32.6,0,0.761,0,0,0,0, ,0,0,0,0,0, ,-40.1,421.2,906,-0.6,-0.5,-1.8,25,-40.5072,422.909,905.45,-0.66168,-0.485454,-1.73198,
2026_07_06_21_51_56.516,3.871,32.5,0,0.761,0,0,0,0, ,0,0,0,0,0, ,-41.1,421.1,904.7,-0.6,-0.5,-1.7,25,-40.5129,422.801,905.444,-0.657922,-0.486341,-1.73308,
2026_07_06_21_51_56.536,3.871,32.6,0,0.76,0,0,0,0, ,0,0,0,0,0, ,-39.7,422.3,904.2,-0.7,-0.5,-1.7,25,-40.506,422.734,905.383,-0.657439,-0.487173,-1.73107,
2026_07_06_21_51_56.556,3.871,32.6,0,0.76,0,0,0,0, ,0,0,0,0,0, ,-39.9,424.4,905.1,-0.7,-0.5,-1.7,25,-40.463,422.772,905.339,-0.660032,-0.487955,-1.72917,
2026_07_06_21_51_56.576,3.871,32.5,0,0.764,0,0,0,0, ,0,0,0,0,0, ,-39.1,422.8,905.7,-0.7,-0.6,-1.7,25,-40.4043,422.822,905.342,-0.662468,-0.491736,-1.7274,
2026_07_06_21_51_56.595,3.871,32.6,0,0.76,0,0,0,0, ,0,0,0,0,0, ,-40.7,422.6,905.3,-0.8,-0.5,-1.8,25,-40.3735,422.815,905.352,-0.667802,-0.495286,-1.72877,
2026_07_06_21_51_56.615,3.871,32.6,0,0.759,0,0,0,0, ,0,0,0,0,0, ,-40.5,422.2,907.4,-0.7,-0.5,-1.7,25,-40.3873,422.79,905.413,-0.672811,-0.495573,-1.73007,
2026_07_06_21_51_56.635,3.871,32.6,0,0.76,0,0,0,0, ,0,0,0,0,0, ,-40.1,423.3,906.3,-0.7,-0.5,-1.7,25,-40.382,422.787,905.5,-0.674468,-0.495843,-1.72823,
2026_07_06_21_51_56.655,3.871,32.6,0,0.763,0,0,0,0, ,0,0,0,0,0, ,-40.4,422.8,905.2,-0.7,-0.4,-1.8,25,-40.374,422.803,905.516,-0.676024,-0.49305,-1.72956,
2026_07_06_21_51_56.674,3.871,32.5,0,0.761,0,0,0,0, ,0,0,0,0,0, ,-39.9,422.9,904.7,-0.8,-0.5,-1.7,25,-40.3603,422.806,905.481,-0.680532,-0.490426,-1.73081,
2026_07_06_21_51_56.695,3.871,32.6,0,0.761,0,0,0,0, ,0,0,0,0,0, ,-40.8,423,906.1,-0.7,-0.5,-1.7,25,-40.3597,422.815,905.476,-0.684765,-0.49101,-1.72893,
2026_07_06_21_51_56.715,3.871,32.5,0,0.761,0,0,0,0, ,0,0,0,0,0, ,-39.4,422.9,904.7,-0.7,-0.5,-1.7,25,-40.3439,422.823,905.471,-0.685693,-0.491557,-1.72717,
2026_07_06_21_51_56.734,3.871,32.5,0,0.761,0,0,0,0, ,0,0,0,0,0, ,-41.5,422.7,905.3,-0.7,-0.5,-1.7,25,-40.3503,422.822,905.443,-0.686565,-0.492072,-1.72551,
2026_07_06_21_51_56.844,3.871,32.6,0,0.76,0,0,0,0, ,0,0,0,0,0, ,-40.6,423.8,906.9,-0.8,-0.5,-1.8,25,-40.393,422.848,905.483,-0.690431,-0.492555,-1.727,
2026_07_06_21_51_56.845,3.871,32.6,0,0.76,0,0,0,0, ,0,0,0,0,0, ,-40.7,424,904.2,-0.6,-0.5,-1.7,25,-40.4086,422.912,905.487,-0.691014,-0.493009,-1.7284,
2026_07_06_21_51_56.847,3.871,32.6,0,0.761,0,0,0,0, ,0,0,0,0,0, ,-39.4,422.9,904.6,-0.7,-0.4,-1.8,25,-40.3868,422.945,905.421,-0.688514,-0.490388,-1.72972,
2026_07_06_21_51_56.847,3.871,32.6,0,0.761,0,0,0,0, ,0,0,0,0,0, ,-40.1,422.6,906.3,-0.8,-0.5,-1.7,25,-40.348,422.933,905.422,-0.692261,-0.487927,-1.73096,
2026_07_06_21_51_56.848,3.871,32.6,0,0.761,0,0,0,0, ,0,0,0,0,0, ,-40.8,424.8,906,-0.7,-0.5,-1.7,25,-40.3542,422.98,905.467,-0.69578,-0.488662,-1.72907,
2026_07_06_21_51_56.866,3.871,32.6,0,0.763,0,0,0,0, ,0,0,0,0,0, ,-40,423.2,906.3,-0.6,-0.5,-1.7,25,-40.357,423.042,905.508,-0.69299,-0.489353,-1.7273,
2026_07_06_21_51_56.873,3.871,32.6,0,0.76,0,0,0,0, ,0,0,0,0,0, ,-40.1,423,906.3,-0.7,-0.5,-1.8,25,-40.3383,423.045,905.557,-0.69037,-0.490002,-1.72868,
2026_07_06_21_51_56.893,3.871,32.6,0,0.761,0,0,0,0, ,0,0,0,0,0, ,-40.4,423.7,905.8,-0.6,-0.5,-1.8,25,-40.3329,423.064,905.587,-0.68791,-0.490611,-1.73303,
2026_07_06_21_51_56.912,3.871,32.5,0,0.763,0,0,0,0, ,0,0,0,0,0, ,-40,423.4,906.3,-0.6,-0.5,-1.7,25,-40.3248,423.093,905.615,-0.682553,-0.491183,-1.73406,
2026_07_06_21_51_56.932,3.871,32.6,0,0.763,0,0,0,0, ,0,0,0,0,0, ,-41.9,422.9,904.1,-0.6,-0.5,-1.7,25,-40.3629,423.097,905.59,-0.677523,-0.491721,-1.73199,
2026_07_06_21_51_56.953,3.871,32.6,0,0.761,0,0,0,0, ,0,0,0,0,0, ,-40,423.2,906.3,-0.6,-0.5,-1.8,25,-40.3987,423.094,905.566,-0.672799,-0.492225,-1.73308,
2026_07_06_21_51_56.973,3.871,32.6,0,0.76,0,0,0,0, ,0,0,0,0,0, ,-40.8,422.4,905.7,-0.6,-0.4,-1.7,25,-40.3988,423.076,905.592,-0.668362,-0.489652,-1.73411,
2026_07_06_21_51_56.992,3.871,32.6,0,0.76,0,0,0,0, ,0,0,0,0,0, ,-40.7,423.8,905,-0.5,-0.5,-1.7,25,-40.4202,423.078,905.578,-0.66115,-0.487236,-1.73204,
2026_07_06_21_51_57.012,3.871,32.6,0,0.76,0,0,0,0, ,0,0,0,0,0, ,-40,422.7,903.9,-0.6,-0.5,-1.8,25,-40.4159,423.088,905.509,-0.654377,-0.488014,-1.73313,
2026_07_06_21_51_57.031,3.871,32.6,0,0.761,0,0,0,0, ,0,0,0,0,0, ,-41.5,423.2,907.1,-0.6,-0.4,-1.7,25,-40.4362,423.08,905.508,-0.651063,-0.485697,-1.73416,
2026_07_06_21_51_57.052,3.871,32.6,0,0.76,0,0,0,0, ,0,0,0,0,0, ,-40.2,423.2,906,-0.7,-0.5,-1.7,25,-40.4615,423.087,905.572,-0.650998,-0.483522,-1.73208,
2026_07_06_21_51_57.071,3.871,32.6,0,0.76,0,0,0,0, ,0,0,0,0,0, ,-41.7,421.7,904.4,-0.6,-0.5,-1.7,25,-40.4912,423.048,905.549,-0.650937,-0.484526,-1.73012,
2026_07_06_21_51_57.091,3.871,32.6,0,0.76,0,0,0,0, ,0,0,0,0,0, ,-38.9,422.8,907.2,-0.7,-0.5,-1.7,25,-40.4796,423,905.564,-0.65088,-0.485469,-1.72829,
2026_07_06_21_51_57.111,3.871,32.6,0,0.763,0,0,0,0, ,0,0,0,0,0, ,-40.7,423.2,905,-0.8,-0.5,-1.7,25,-40.4382,423,905.597,-0.65692,-0.486354,-1.72656,
2026_07_06_21_51_57.131,3.871,32.5,0,0.761,0,0,0,0, ,0,0,0,0,0, ,-39.5,421.9,905.5,-0.7,-0.5,-1.7,25,-40.4176,422.972,905.576,-0.662592,-0.487186,-1.72494,
2026_07_06_21_51_57.151,3.871,32.6,0,0.76,0,0,0,0, ,0,0,0,0,0, ,-40.2,423.3,904.5,-0.7,-0.5,-1.8,25,-40.383,422.95,905.541,-0.664872,-0.487967,-1.72647,
2026_07_06_21_51_57.175,3.871,32.6,0,0.76,0,0,0,0, ,0,0,0,0,0, ,-40.1,423.9,904.2,-0.6,-0.5,-1.7,25,-40.3688,422.989,905.468,-0.663966,-0.4887,-1.7279,
2026_07_06_21_51_57.190,3.871,32.5,0,0.763,0,0,0,0, ,0,0,0,0,0, ,-40.4,423.5,907.2,-0.8,-0.5,-1.7,25,-40.3615,423.032,905.482,-0.666161,-0.489389,-1.7262,
2026_07_06_21_51_57.210,3.871,32.5,0,0.761,0,0,0,0, ,0,0,0,0,0, ,-39.6,423,905.2,-0.7,-0.5,-1.8,25,-40.3395,423.046,905.526,-0.67127,-0.490035,-1.72765,
2026_07_06_21_51_57.229,3.871,32.6,0,0.759,0,0,0,0, ,0,0,0,0,0, ,-41.1,423.3,906.3,-0.7,-0.4,-1.8,25,-40.3401,423.052,905.54,-0.673021,-0.487596,-1.73206,
2026_07_06_21_51_57.250,3.871,32.4,0,0.76,0,0,0,0, ,0,0,0,0,0, ,-39.3,423,904.9,-0.5,-0.5,-1.8,25,-40.3316,423.058,905.543,-0.668571,-0.485305,-1.7362,
2026_07_06_21_51_57.270,3.871,32.6,0,0.763,0,0,0,0, ,0,0,0,0,0, ,-38.9,423.8,906.8,-0.7,-0.5,-1.7,25,-40.2566,423.079,905.562,-0.664393,-0.4862,-1.73704,
2026_07_06_21_51_57.289,3.871,32.5,0,0.761,0,0,0,0, ,0,0,0,0,0, ,-40.5,423.9,905.5,-0.7,-0.5,-1.8,25,-40.2226,423.126,905.598,-0.666563,-0.487041,-1.73783,
2026_07_06_21_51_57.309,3.871,32.5,0,0.761,0,0,0,0, ,0,0,0,0,0, ,-40.6,423.2,905.2,-0.6,-0.5,-1.7,25,-40.2426,423.152,905.583,-0.665553,-0.487831,-1.73857,
2026_07_06_21_51_57.329,3.871,32.5,0,0.759,0,0,0,0, ,0,0,0,0,0, ,-40.7,421.9,906.3,-0.6,-0.5,-1.7,25,-40.2674,423.115,905.593,-0.661559,-0.488572,-1.73622,
2026_07_06_21_51_57.348,3.871,32.5,0,0.761,0,0,0,0, ,0,0,0,0,0, ,-41,421.5,905.3,-0.6,-0.5,-1.7,25,-40.3029,423.029,905.606,-0.657807,-0.489269,-1.73402,
2026_07_06_21_51_57.368,3.871,32.6,0,0.761,0,0,0,0, ,0,0,0,0,0, ,-40.2,422.1,904.9,-0.7,-0.6,-1.7,25,-40.321,422.954,905.575,-0.657332,-0.49297,-1.73194,
2026_07_06_21_51_57.389,3.871,32.6,0,0.761,0,0,0,0, ,0,0,0,0,0, ,-41,422.8,906.3,-0.7,-0.5,-1.7,25,-40.338,422.923,905.576,-0.659932,-0.496445,-1.73,
2026_07_06_21_51_57.407,3.871,32.5,0,0.763,0,0,0,0, ,0,0,0,0,0, ,-40.6,422.8,905.7,-0.7,-0.5,-1.7,25,-40.3662,422.916,905.602,-0.662373,-0.496661,-1.72817,
2026_07_06_21_51_57.428,3.871,32.5,0,0.758,0,0,0,0, ,0,0,0,0,0, ,-40.5,422.7,906.1,-0.7,-0.5,-1.7,25,-40.3774,422.906,905.62,-0.664666,-0.496865,-1.72645,
2026_07_06_21_51_57.448,3.871,32.5,0,0.762,0,0,0,0, ,0,0,0,0,0, ,-39.6,423.3,905.7,-0.7,-0.5,-1.7,25,-40.3574,422.911,905.637,-0.666819,-0.497056,-1.72484,
2026_07_06_21_51_57.472,3.871,32.5,0,0.76,0,0,0,0, ,0,0,0,0,0, ,-40.7,422.2,906.4,-0.6,-0.5,-1.8,25,-40.3448,422.902,905.663,-0.665795,-0.497235,-1.72637,
2026_07_06_21_51_57.487,3.871,32.6,0,0.762,0,0,0,0, ,0,0,0,0,0, ,-39.9,423.4,906.1,-0.6,-0.5,-1.7,25,-40.3421,422.895,905.698,-0.661785,-0.497404,-1.72781,
2026_07_06_21_51_57.507,3.871,32.6,0,0.762,0,0,0,0, ,0,0,0,0,0, ,-39.3,423.2,904.5,-0.7,-0.5,-1.8,25,-40.2968,422.92,905.674,-0.661067,-0.497562,-1.72917,
2026_07_06_21_51_57.527,3.871,32.5,0,0.762,0,0,0,0, ,0,0,0,0,0, ,-38.5,421,905.8,-0.8,-0.5,-1.8,25,-40.2117,422.87,905.642,-0.666486,-0.497711,-1.73348,
2026_07_06_21_51_57.547,3.871,32.5,0,0.76,0,0,0,0, ,0,0,0,0,0, ,-38.4,422.1,906.2,-0.7,-0.5,-1.6,25,-40.1044,422.79,905.664,-0.671575,-0.49785,-1.73144,
2026_07_06_21_51_57.567,3.871,32.5,0,0.762,0,0,0,0, ,0,0,0,0,0, ,-40.4,423.2,904.6,-0.7,-0.6,-1.8,25,-40.0614,422.781,905.648,-0.673308,-0.501028,-1.72953,
2026_07_06_21_51_57.587,3.871,32.6,0,0.76,0,0,0,0, ,0,0,0,0,0, ,-39.4,422.4,906,-0.8,-0.4,-1.7,25,-40.0516,422.782,905.627,-0.677981,-0.500965,-1.73077,
2026_07_06_21_51_57.607,3.871,32.5,0,0.762,0,0,0,0, ,0,0,0,0,0, ,-39.7,423.3,904.5,-0.8,-0.6,-1.7,25,-40.021,422.786,905.604,-0.685417,-0.500907,-1.7289,
2026_07_06_21_51_57.626,3.871,32.5,0,0.76,0,0,0,0, ,0,0,0,0,0, ,-41.9,422.1,905,-0.7,-0.5,-1.8,25,-40.0685,422.781,905.552,-0.689352,-0.503898,-1.73018,
2026_07_06_21_51_57.646,3.871,32.5,0,0.762,0,0,0,0, ,0,0,0,0,0, ,-39.3,422.3,904.9,-0.7,-0.5,-1.7,25,-40.1009,422.746,905.515,-0.690001,-0.503661,-1.73139,
2026_07_06_21_51_57.666,3.871,32.4,0,0.76,0,0,0,0, ,0,0,0,0,0, ,-40,423.3,907.1,-0.6,-0.5,-1.7,25,-40.0734,422.749,905.545,-0.687563,-0.503438,-1.72948,
2026_07_06_21_51_57.686,3.871,32.6,0,0.762,0,0,0,0, ,0,0,0,0,0, ,-40.6,422.8,904.6,-0.6,-0.5,-1.8,25,-40.0872,422.767,905.563,-0.682228,-0.503228,-1.73073,
2026_07_06_21_51_57.706,3.871,32.5,0,0.762,0,0,0,0, ,0,0,0,0,0, ,-40.6,423.4,905.2,-0.6,-0.5,-1.7,25,-40.1185,422.788,905.523,-0.677217,-0.503031,-1.7319,
2026_07_06_21_51_57.725,3.871,32.7,0,0.762,0,0,0,0, ,0,0,0,0,0, ,-39.9,423.4,906,-0.7,-0.5,-1.7,25,-40.1265,422.825,905.527,-0.675558,-0.502847,-1.72996,
2026_07_06_21_51_57.745,3.871,32.6,0,0.762,0,0,0,0, ,0,0,0,0,0, ,-39.9,422.4,905.1,-0.5,-0.5,-1.7,25,-40.1127,422.83,905.529,-0.670954,-0.502673,-1.72813,
2026_07_06_21_51_57.765,3.871,32.5,0,0.762,0,0,0,0, ,0,0,0,0,0, ,-40.1,421.8,905.1,-0.6,-0.5,-1.7,25,-40.1058,422.785,905.503,-0.663583,-0.50251,-1.72642,
2026_07_06_21_51_57.784,3.871,32.5,0,0.76,0,0,0,0, ,0,0,0,0,0, ,-40,422.6,905.3,-0.5,-0.5,-1.7,25,-40.1024,422.749,905.484,-0.656662,-0.502357,-1.72481,
2026_07_06_21_51_57.804,3.871,32.5,0,0.762,0,0,0,0, ,0,0,0,0,0, ,-40.4,422.6,905.7,-0.7,-0.5,-1.8,25,-40.1084,422.74,905.485,-0.653209,-0.502214,-1.72634,
2026_07_06_21_51_57.826,3.871,32.6,0,0.763,0,0,0,0, ,0,0,0,0,0, ,-41.2,421.6,906.1,-0.6,-0.5,-1.7,25,-40.1505,422.701,905.51,-0.653013,-0.502079,-1.72779,
2026_07_06_21_51_57.844,3.871,32.5,0,0.76,0,0,0,0, ,0,0,0,0,0, ,-40,421.5,905.5,-0.6,-0.5,-1.8,25,-40.1779,422.631,905.528,-0.649783,-0.501952,-1.72914,
2026_07_06_21_51_57.864,3.871,32.5,0,0.762,0,0,0,0, ,0,0,0,0,0, ,-40.4,422.7,904.5,-0.9,-0.5,-1.8,25,-40.1792,422.599,905.496,-0.65589,-0.501833,-1.73346,
2026_07_06_21_51_57.884,3.871,32.5,0,0.762,0,0,0,0, ,0,0,0,0,0, ,-40.1,423.3,907.2,-0.7,-0.5,-1.7,25,-40.1836,422.623,905.518,-0.664672,-0.501721,-1.73447,
2026_07_06_21_51_57.904,3.871,32.6,0,0.76,0,0,0,0, ,0,0,0,0,0, ,-40.2,422.6,906.1,-0.7,-0.5,-1.8,25,-40.1815,422.643,905.587,-0.666824,-0.501617,-1.73541,
2026_07_06_21_51_57.923,3.871,32.6,0,0.763,0,0,0,0, ,0,0,0,0,0, ,-41.5,422.3,906.3,-0.8,-0.5,-1.7,25,-40.2222,422.631,905.624,-0.671893,-0.501518,-1.7363,
2026_07_06_21_51_57.945,3.871,32.6,0,0.762,0,0,0,0, ,0,0,0,0,0, ,-39.6,423.3,905.8,-0.7,-0.5,-1.8,25,-40.2422,422.642,905.65,-0.676653,-0.501426,-1.73714,
2026_07_06_21_51_57.963,3.871,32.5,0,0.76,0,0,0,0, ,0,0,0,0,0, ,-39.6,422.2,906.4,-0.7,-0.5,-1.7,25,-40.2031,422.648,905.677,-0.678075,-0.501339,-1.73792,
2026_07_06_21_51_57.983,3.871,32.6,0,0.76,0,0,0,0, ,0,0,0,0,0, ,-40.1,423.2,905.5,-0.7,-0.4,-1.6,25,-40.1816,422.651,905.694,-0.679411,-0.49821,-1.73256,
2026_07_06_21_51_58.003,3.871,32.6,0,0.762,0,0,0,0, ,0,0,0,0,0, ,-39.6,422.8,906.1,-0.6,-0.5,-1.8,25,-40.1614,422.673,905.7,-0.677619,-0.495272,-1.73058,
2026_07_06_21_51_58.022,3.871,32.5,0,0.762,0,0,0,0, ,0,0,0,0,0, ,-39.7,422.6,906.7,-0.6,-0.5,-1.7,25,-40.1302,422.674,905.743,-0.672889,-0.49556,-1.73176,
2026_07_06_21_51_58.042,3.871,32.6,0,0.762,0,0,0,0, ,0,0,0,0,0, ,-39.1,422.1,905.7,-0.6,-0.5,-1.8,25,-40.0857,422.655,905.771,-0.668448,-0.495831,-1.73287,
2026_07_06_21_51_58.062,3.871,32.6,0,0.763,0,0,0,0, ,0,0,0,0,0, ,-40.1,423.5,905.6,-0.6,-0.5,-1.8,25,-40.0561,422.663,905.764,-0.664276,-0.496085,-1.73696,
2026_07_06_21_51_58.082,3.871,32.7,0,0.762,0,0,0,0, ,0,0,0,0,0, ,-41.1,421.9,904,-0.6,-0.5,-1.7,25,-40.0893,422.666,905.705,-0.66036,-0.496324,-1.73776,
2026_07_06_21_51_58.101,3.871,32.7,0,0.76,0,0,0,0, ,0,0,0,0,0, ,-41,421.8,905.3,-0.6,-0.5,-1.8,25,-40.1478,422.616,905.641,-0.656681,-0.496548,-1.7385,
2026_07_06_21_51_58.122,3.871,32.6,0,0.762,0,0,0,0, ,0,0,0,0,0, ,-39.3,422.1,906.1,-0.6,-0.4,-1.7,25,-40.1479,422.575,905.644,-0.653227,-0.493711,-1.7392,
2026_07_06_21_51_58.141,3.871,32.6,0,0.76,0,0,0,0, ,0,0,0,0,0, ,-39.6,422.4,904.7,-0.7,-0.5,-1.7,25,-40.1054,422.556,905.629,-0.653031,-0.491048,-1.73682,
2026_07_06_21_51_58.161,3.871,32.6,0,0.76,0,0,0,0, ,0,0,0,0,0, ,-40.1,422.6,906.8,-0.7,-0.4,-1.8,25,-40.0898,422.552,905.637,-0.655893,-0.488546,-1.73762,
2026_07_06_21_51_58.181,3.871,32.6,0,0.762,0,0,0,0, ,0,0,0,0,0, ,-40.2,423.3,905.7,-0.6,-0.4,-1.7,25,-40.0935,422.576,905.674,-0.655534,-0.48315,-1.73837,
2026_07_06_21_51_58.201,3.871,32.5,0,0.762,0,0,0,0, ,0,0,0,0,0, ,-39.9,423,906.2,-0.7,-0.4,-1.7,25,-40.0909,422.611,905.691,-0.655197,-0.478083,-1.73603,
2026_07_06_21_51_58.220,3.871,32.6,0,0.76,0,0,0,0, ,0,0,0,0,0, ,-39.3,421.7,905.5,-0.6,-0.5,-1.7,25,-40.0609,422.595,905.701,-0.65488,-0.476372,-1.73384,
2026_07_06_21_51_58.240,3.871,32.6,0,0.762,0,0,0,0, ,0,0,0,0,0, ,-40.7,423.8,905.3,-0.6,-0.5,-1.7,25,-40.0572,422.605,905.682,-0.651536,-0.477812,-1.73178,
2026_07_06_21_51_58.265,3.871,32.5,0,0.76,0,0,0,0, ,0,0,0,0,0, ,-40.7,423.3,904.7,-0.6,-0.5,-1.7,25,-40.0964,422.662,905.641,-0.648395,-0.479164,-1.72984,
2026_07_06_21_51_58.280,3.871,32.7,0,0.762,0,0,0,0, ,0,0,0,0,0, ,-39.7,421.8,904.1,-0.6,-0.5,-1.7,25,-40.1027,422.656,905.565,-0.645446,-0.480434,-1.72802,
2026_07_06_21_51_58.299,3.871,32.6,0,0.762,0,0,0,0, ,0,0,0,0,0, ,-40.1,422.6,906,-0.6,-0.5,-1.8,25,-40.0904,422.628,905.534,-0.642677,-0.481626,-1.72936,
2026_07_06_21_51_58.319,3.871,32.6,0,0.762,0,0,0,0, ,0,0,0,0,0, ,-40,423.2,906.7,-0.7,-0.5,-1.7,25,-40.0879,422.644,905.583,-0.643123,-0.482746,-1.73062,
2026_07_06_21_51_58.339,3.871,32.6,0,0.762,0,0,0,0, ,0,0,0,0,0, ,-40.6,421.7,904.4,-0.7,-0.5,-1.8,25,-40.1008,422.633,905.581,-0.646589,-0.483797,-1.7318,
2026_07_06_21_51_58.359,3.871,32.5,0,0.762,0,0,0,0, ,0,0,0,0,0, ,-39.7,421.6,906.2,-0.8,-0.5,-1.7,25,-40.1038,422.573,905.564,-0.652891,-0.484784,-1.73291,
2026_07_06_21_51_58.379,3.871,32.6,0,0.763,0,0,0,0, ,0,0,0,0,0, ,-41.9,422.9,905.8,-0.7,-0.5,-1.8,25,-40.1462,422.553,905.591,-0.658808,-0.485712,-1.73395,
2026_07_06_21_51_58.398,3.871,32.6,0,0.76,0,0,0,0, ,0,0,0,0,0, ,-39.6,423.8,906.1,-0.6,-0.4,-1.7,25,-40.183,422.602,905.613,-0.658271,-0.483535,-1.73493,
2026_07_06_21_51_58.419,3.871,32.6,0,0.762,0,0,0,0, ,0,0,0,0,0, ,-40.7,422.6,906.8,-0.8,-0.5,-1.8,25,-40.181,422.638,905.664,-0.660814,-0.481492,-1.73585,
2026_07_06_21_51_58.443,3.871,32.5,0,0.762,0,0,0,0, ,0,0,0,0,0, ,-38.9,424.5,906,-0.7,-0.5,-1.7,25,-40.1578,422.694,905.709,-0.666249,-0.48262,-1.73671,
2026_07_06_21_51_58.458,3.871,32.6,0,0.763,0,0,0,0, ,0,0,0,0,0, ,-40.1,423.2,906.3,-0.7,-0.5,-1.7,25,-40.1177,422.764,905.735,-0.668306,-0.483679,-1.73447,
2026_07_06_21_51_58.479,3.871,32.5,0,0.762,0,0,0,0, ,0,0,0,0,0, ,-38.9,421.9,906,-0.7,-0.5,-1.7,25,-40.0801,422.751,905.761,-0.670237,-0.484673,-1.73237,
2026_07_06_21_51_58.497,3.871,32.6,0,0.76,0,0,0,0, ,0,0,0,0,0, ,-40,421.5,905.2,-0.7,-0.6,-1.7,25,-40.0417,422.687,905.751,-0.672051,-0.488654,-1.7304,
2026_07_06_21_51_58.517,3.871,32.6,0,0.76,0,0,0,0, ,0,0,0,0,0, ,-40.7,422.1,906.4,-0.7,-0.5,-1.7,25,-40.0605,422.633,905.754,-0.673754,-0.492393,-1.72855,
2026_07_06_21_51_58.537,3.871,32.6,0,0.762,0,0,0,0, ,0,0,0,0,0, ,-40,422.8,905.6,-0.7,-0.5,-1.8,25,-40.0781,422.622,905.769,-0.675353,-0.492856,-1.72985,
2026_07_06_21_51_58.557,3.871,32.6,0,0.762,0,0,0,0, ,0,0,0,0,0, ,-39.9,423.5,905,-0.6,-0.5,-1.7,25,-40.0703,422.654,905.74,-0.673808,-0.493291,-1.73108,
2026_07_06_21_51_58.577,3.871,32.5,0,0.762,0,0,0,0, ,0,0,0,0,0, ,-39.5,422.6,905.8,-0.6,-0.5,-1.7,25,-40.0477,422.678,905.72,-0.669311,-0.4937,-1.72919,
2026_07_06_21_51_58.597,3.871,32.6,0,0.762,0,0,0,0, ,0,0,0,0,0, ,-41.6,421.7,904.9,-0.7,-0.5,-1.7,25,-40.0783,422.646,905.697,-0.668134,-0.494084,-1.72741,
2026_07_06_21_51_58.616,3.871,32.7,0,0.762,0,0,0,0, ,0,0,0,0,0, ,-39.5,421,905.8,-0.6,-0.5,-1.8,25,-40.1071,422.567,905.676,-0.667029,-0.494445,-1.72879,
2026_07_06_21_51_58.636,3.871,32.6,0,0.762,0,0,0,0, ,0,0,0,0,0, ,-41,422.7,904.1,-0.6,-0.5,-1.7,25,-40.1158,422.523,905.632,-0.662944,-0.494783,-1.73008,
2026_07_06_21_51_58.660,3.871,32.6,0,0.76,0,0,0,0, ,0,0,0,0,0, ,-40.4,422.9,904.5,-0.6,-0.5,-1.7,25,-40.1514,422.54,905.551,-0.659109,-0.495101,-1.72825,
2026_07_06_21_51_58.676,3.871,32.7,0,0.762,0,0,0,0, ,0,0,0,0,0, ,-41.2,422.6,905.7,-0.7,-0.5,-1.8,25,-40.1909,422.553,905.523,-0.658554,-0.4954,-1.72957,
2026_07_06_21_51_58.695,3.871,32.6,0,0.762,0,0,0,0, ,0,0,0,0,0, ,-40.2,422.2,905.7,-0.6,-0.5,-1.7,25,-40.2219,422.544,905.534,-0.658032,-0.49568,-1.73082,
2026_07_06_21_51_58.716,3.871,32.5,0,0.762,0,0,0,0, ,0,0,0,0,0, ,-39.7,424.4,909,-0.6,-0.5,-1.7,25,-40.2054,422.59,905.645,-0.654496,-0.495943,-1.72894,
2026_07_06_21_51_58.736,3.871,32.7,0,0.762,0,0,0,0, ,0,0,0,0,0, ,-39.7,421.6,904.2,-0.5,-0.5,-1.7,25,-40.1746,422.615,905.703,-0.648128,-0.49619,-1.72717,
2026_07_06_21_51_58.755,3.871,32.6,0,0.762,0,0,0,0, ,0,0,0,0,0, ,-39.9,423.3,908.2,-0.8,-0.5,-1.8,25,-40.1517,422.605,905.733,-0.648242,-0.496423,-1.72857,
2026_07_06_21_51_58.778,3.871,32.6,0,0.762,0,0,0,0, ,0,0,0,0,0, ,-41.3,423.5,905.2,-0.5,-0.5,-1.7,25,-40.1791,422.653,905.792,-0.648349,-0.496641,-1.72987,
2026_07_06_21_51_58.795,3.871,32.6,0,0.762,0,0,0,0, ,0,0,0,0,0, ,-39.7,423.3,907.4,-0.7,-0.4,-1.8,25,-40.1986,422.699,905.823,-0.645403,-0.493798,-1.7311,
2026_07_06_21_51_58.815,3.871,32.6,0,0.76,0,0,0,0, ,0,0,0,0,0, ,-40.1,423.7,905.7,-0.9,-0.5,-1.8,25,-40.1804,422.747,905.867,-0.654824,-0.491129,-1.7353,
2026_07_06_21_51_58.835,3.871,32.7,0,0.762,0,0,0,0, ,0,0,0,0,0, ,-39.7,423.9,905.1,-0.6,-0.6,-1.7,25,-40.1633,422.812,905.839,-0.660624,-0.494717,-1.73619,
2026_07_06_21_51_58.855,3.871,32.6,0,0.76,0,0,0,0, ,0,0,0,0,0, ,-40.4,423,904.7,-0.5,-0.5,-1.7,25,-40.1564,422.851,905.782,-0.653883,-0.498086,-1.73399,
2026_07_06_21_51_58.875,3.871,32.6,0,0.763,0,0,0,0, ,0,0,0,0,0, ,-40.7,423.3,907.2,-0.7,-0.5,-1.7,25,-40.1804,422.869,905.792,-0.650599,-0.498202,-1.73192,
2026_07_06_21_51_58.895,3.871,32.6,0,0.763,0,0,0,0, ,0,0,0,0,0, ,-41.2,422.2,903.8,-0.6,-0.5,-1.7,25,-40.2273,422.862,905.774,-0.650563,-0.498312,-1.72997,
2026_07_06_21_51_58.914,3.871,32.6,0,0.76,0,0,0,0, ,0,0,0,0,0, ,-40.5,422.7,905.7,-0.7,-0.5,-1.8,25,-40.2653,422.836,905.712,-0.650528,-0.498415,-1.73119,
2026_07_06_21_51_58.934,3.871,32.6,0,0.76,0,0,0,0, ,0,0,0,0,0, ,-39.7,422.2,905.7,-0.8,-0.5,-1.7,25,-40.2552,422.813,905.711,-0.65659,-0.498511,-1.73234,
2026_07_06_21_51_58.959,3.871,32.7,0,0.76,0,0,0,0, ,0,0,0,0,0, ,-39.9,422.3,906.3,-0.8,-0.5,-1.7,25,-40.2274,422.779,905.729,-0.665329,-0.498602,-1.73037,
2026_07_06_21_51_58.974,3.871,32.7,0,0.76,0,0,0,0, ,0,0,0,0,0, ,-39.6,423.2,906.3,-0.7,-0.5,-1.7,25,-40.1984,422.777,905.763,-0.670489,-0.498687,-1.72852,
2026_07_06_21_51_58.993,3.871,32.6,0,0.762,0,0,0,0, ,0,0,0,0,0, ,-41,423.5,906.3,-0.6,-0.5,-1.7,25,-40.2045,422.812,905.796,-0.66924,-0.498767,-1.72678,
2026_07_06_21_51_59.013,3.871,32.6,0,0.763,0,0,0,0, ,0,0,0,0,0, ,-40.7,422.7,904.6,-0.6,-0.5,-1.7,25,-40.2439,422.829,905.775,-0.665021,-0.498842,-1.72515,
2026_07_06_21_51_59.033,3.871,32.7,0,0.76,0,0,0,0, ,0,0,0,0,0, ,-39.6,423,905.5,-0.8,-0.5,-1.7,25,-40.2382,422.831,905.731,-0.667152,-0.498913,-1.72361,
2026_07_06_21_51_59.053,3.871,32.6,0,0.761,0,0,0,0, ,0,0,0,0,0, ,-41.2,424.1,904.5,-0.6,-0.5,-1.7,25,-40.248,422.874,905.686,-0.669154,-0.498979,-1.72218,
2026_07_06_21_51_59.072,3.871,32.7,0,0.762,0,0,0,0, ,0,0,0,0,0, ,-39.3,423.5,906.3,-0.5,-0.5,-1.8,25,-40.2481,422.931,905.669,-0.661893,-0.499041,-1.72387,
2026_07_06_21_51_59.092,3.871,32.6,0,0.762,0,0,0,0, ,0,0,0,0,0, ,-39.5,422.8,904.7,-0.7,-0.5,-1.7,25,-40.1965,422.944,905.659,-0.658121,-0.4991,-1.72546,
2026_07_06_21_51_59.112,3.871,32.5,0,0.764,0,0,0,0, ,0,0,0,0,0, ,-41,423,906.1,-0.7,-0.5,-1.7,25,-40.1997,422.942,905.643,-0.660673,-0.499155,-1.72391,
2026_07_06_21_51_59.132,3.871,32.6,0,0.762,0,0,0,0, ,0,0,0,0,0, ,-41.1,422.4,905.5,-0.5,-0.5,-1.8,25,-40.2515,422.927,905.652,-0.656976,-0.499206,-1.7255,
2026_07_06_21_51_59.152,3.871,32.6,0,0.76,0,0,0,0, ,0,0,0,0,0, ,-40.2,421.5,906,-0.7,-0.5,-1.7,25,-40.2758,422.867,905.658,-0.653504,-0.499255,-1.72699,
2026_07_06_21_51_59.173,3.871,32.7,0,0.76,0,0,0,0, ,0,0,0,0,0, ,-42.1,423.2,906.4,-0.6,-0.5,-1.8,25,-40.3291,422.836,905.691,-0.653291,-0.4993,-1.7284,
2026_07_06_21_51_59.192,3.871,32.7,0,0.762,0,0,0,0, ,0,0,0,0,0, ,-40.2,423,904.7,-0.6,-0.5,-1.8,25,-40.3791,422.852,905.683,-0.650043,-0.499343,-1.73276,
2026_07_06_21_51_59.213,3.871,32.6,0,0.76,0,0,0,0, ,0,0,0,0,0, ,-40.5,422.4,905.7,-0.7,-0.5,-1.8,25,-40.3773,422.843,905.653,-0.650041,-0.499383,-1.73686,
2026_07_06_21_51_59.233,3.871,32.6,0,0.76,0,0,0,0, ,0,0,0,0,0, ,-39.3,422.4,906.1,-0.6,-0.6,-1.8,25,-40.3482,422.816,905.668,-0.650038,-0.502467,-1.74071,
2026_07_06_21_51_59.254,3.871,32.5,0,0.761,0,0,0,0, ,0,0,0,0,0, ,-39.7,421.8,906.6,-0.7,-0.5,-1.7,25,-40.2966,422.772,905.71,-0.650036,-0.505364,-1.74127,
2026_07_06_21_51_59.276,3.871,32.6,0,0.761,0,0,0,0, ,0,0,0,0,0, ,-40.4,423.4,905.6,-0.7,-0.5,-1.8,25,-40.2815,422.762,905.734,-0.65308,-0.505037,-1.7418,
2026_07_06_21_51_59.292,3.871,32.5,0,0.76,0,0,0,0, ,0,0,0,0,0, ,-39.9,422.1,906.1,-0.7,-0.5,-1.7,25,-40.2735,422.761,905.741,-0.65594,-0.50473,-1.7423,
2026_07_06_21_51_59.313,3.871,32.5,0,0.76,0,0,0,0, ,0,0,0,0,0, ,-40,422.7,906,-0.7,-0.5,-1.8,25,-40.2538,422.739,905.76,-0.658625,-0.504442,-1.74277,
2026_07_06_21_51_59.330,3.871,32.7,0,0.759,0,0,0,0, ,0,0,0,0,0, ,-41.1,423,905.8,-0.8,-0.5,-1.7,25,-40.2719,422.746,905.768,-0.664193,-0.504171,-1.74321,
2026_07_06_21_51_59.350,3.871,32.7,0,0.76,0,0,0,0, ,0,0,0,0,0, ,-40.2,423.9,905.6,-0.7,-0.5,-1.7,25,-40.2949,422.789,905.764,-0.669422,-0.503917,-1.74058,
2026_07_06_21_51_59.369,3.871,32.5,0,0.761,0,0,0,0, ,0,0,0,0,0, ,-40.4,423.3,905.6,-0.6,-0.5,-1.8,25,-40.2952,422.838,905.754,-0.668238,-0.503678,-1.74115,
2026_07_06_21_51_59.392,3.871,32.7,0,0.762,0,0,0,0, ,0,0,0,0,0, ,-40.2,423.4,904.6,-0.6,-0.5,-1.8,25,-40.2955,422.869,905.714,-0.66408,-0.503454,-1.74474,
2026_07_06_21_51_59.414,3.871,32.6,0,0.76,0,0,0,0, ,0,0,0,0,0, ,-40.6,423.5,906.6,-0.7,-0.5,-1.8,25,-40.3019,422.905,905.707,-0.663222,-0.503244,-1.74811,
2026_07_06_21_51_59.443,3.871,32.5,0,0.759,0,0,0,0, ,0,0,0,0,0, ,-39.9,422.7,905.2,-0.6,-0.5,-1.7,25,-40.2987,422.916,905.719,-0.662416,-0.503046,-1.74822,
2026_07_06_21_51_59.449,3.871,32.5,0,0.76,0,0,0,0, ,0,0,0,0,0, ,-39.9,422.3,906.2,-0.7,-0.5,-1.7,25,-40.2744,422.891,905.718,-0.66166,-0.50286,-1.74528,
2026_07_06_21_51_59.473,3.871,32.6,0,0.761,0,0,0,0, ,0,0,0,0,0, ,-39.9,423.7,906.1,-0.6,-0.5,-1.7,25,-40.2516,422.898,905.744,-0.660949,-0.502686,-1.74252,
2026_07_06_21_51_59.491,3.871,32.5,0,0.76,0,0,0,0, ,0,0,0,0,0, ,-40.7,423,906,-0.6,-0.4,-1.8,25,-40.2545,422.925,905.763,-0.657235,-0.499475,-1.74298,
2026_07_06_21_51_59.521,3.871,32.7,0,0.76,0,0,0,0, ,0,0,0,0,0, ,-39.9,422.8,906.4,-0.7,-0.5,-1.7,25,-40.2573,422.924,905.789,-0.656794,-0.496461,-1.74341,
2026_07_06_21_51_59.530,3.871,32.6,0,0.762,0,0,0,0, ,0,0,0,0,0, ,-40.6,420.8,905.3,-0.6,-0.4,-1.8,25,-40.2569,422.855,905.793,-0.65638,-0.493629,-1.74381,
2026_07_06_21_51_59.558,3.871,32.6,0,0.762,0,0,0,0, ,0,0,0,0,0, ,-39.7,421.7,906.2,-0.6,-0.5,-1.8,25,-40.2504,422.757,905.79,-0.652944,-0.490971,-1.74723,
2026_07_06_21_51_59.567,3.871,32.5,0,0.763,0,0,0,0, ,0,0,0,0,0, ,-39.7,422.3,905.1,-0.7,-0.4,-1.6,25,-40.2168,422.711,905.782,-0.652765,-0.488474,-1.74435,
2026_07_06_21_51_59.595,3.871,32.7,0,0.76,0,0,0,0, ,0,0,0,0,0, ,-40.5,423,906.3,-0.6,-0.4,-1.7,25,-40.2097,422.708,905.777,-0.652596,-0.483083,-1.73861,
2026_07_06_21_51_59.607,3.871,32.5,0,0.76,0,0,0,0, ,0,0,0,0,0, ,-40.7,424.1,904.4,-0.6,-0.5,-1.7,25,-40.2335,422.759,905.751,-0.649391,-0.481067,-1.73625,
2026_07_06_21_51_59.627,3.871,32.6,0,0.76,0,0,0,0, ,0,0,0,0,0, ,-40.1,425,904.7,-0.6,-0.5,-1.8,25,-40.2436,422.868,905.678,-0.646382,-0.48222,-1.73709,
2026_07_06_21_51_59.647,3.871,32.7,0,0.76,0,0,0,0, ,0,0,0,0,0, ,-40.8,421.9,905.5,-0.6,-0.5,-1.6,25,-40.2562,422.904,905.643,-0.643555,-0.483304,-1.73483,
2026_07_06_21_51_59.674,3.871,32.5,0,0.763,0,0,0,0, ,0,0,0,0,0, ,-40.6,422.2,905.5,-0.6,-0.5,-1.7,25,-40.2833,422.851,905.634,-0.640901,-0.484321,-1.72966,
2026_07_06_21_51_59.687,3.871,32.5,0,0.76,0,0,0,0, ,0,0,0,0,0, ,-41,422.8,906.4,-0.6,-0.5,-1.7,25,-40.3147,422.83,905.653,-0.638409,-0.485277,-1.72785,
2026_07_06_21_51_59.717,3.871,32.6,0,0.761,0,0,0,0, ,0,0,0,0,0, ,-40.1,423,905.5,-0.6,-0.5,-1.7,25,-40.3291,422.834,905.671,-0.636068,-0.486174,-1.72616,
2026_07_06_21_51_59.727,3.871,32.7,0,0.762,0,0,0,0, ,0,0,0,0,0, ,-40.5,423.5,905.7,-0.6,-0.5,-1.7,25,-40.3273,422.86,905.667,-0.63387,-0.487016,-1.72456,
2026_07_06_21_51_59.746,3.871,32.6,0,0.76,0,0,0,0, ,0,0,0,0,0, ,-39.7,422.3,906.6,-0.7,-0.5,-1.7,25,-40.3135,422.862,905.696,-0.634853,-0.487808,-1.72307,
2026_07_06_21_51_59.770,3.871,32.5,0,0.762,0,0,0,0, ,0,0,0,0,0, ,-41.1,422.1,906.2,-0.7,-0.5,-1.7,25,-40.3187,422.822,905.739,-0.638823,-0.488551,-1.72166,
2026_07_06_21_51_59.793,3.871,32.6,0,0.76,0,0,0,0, ,0,0,0,0,0, ,-39.9,421.9,905.5,-0.7,-0.5,-1.7,25,-40.3298,422.772,905.746,-0.642551,-0.489248,-1.72034,
2026_07_06_21_51_59.806,3.871,32.6,0,0.76,0,0,0,0, ,0,0,0,0,0, ,-39.4,423.8,907.3,-0.7,-0.5,-1.7,25,-40.2883,422.776,905.786,-0.646052,-0.489903,-1.7191,
2026_07_06_21_51_59.826,3.871,32.6,0,0.762,0,0,0,0, ,0,0,0,0,0, ,-40.6,424,905,-0.8,-0.5,-1.7,25,-40.2708,422.845,905.808,-0.652386,-0.490519,-1.71794,
2026_07_06_21_51_59.845,3.871,32.5,0,0.759,0,0,0,0, ,0,0,0,0,0, ,-40.7,423,904.6,-0.7,-0.5,-1.7,25,-40.2939,422.885,905.747,-0.658334,-0.491096,-1.71684,
2026_07_06_21_51_59.866,3.871,32.6,0,0.76,0,0,0,0, ,0,0,0,0,0, ,-41.1,421.9,908.2,-0.7,-0.5,-1.8,25,-40.3308,422.858,905.786,-0.660873,-0.491639,-1.71886,
2026_07_06_21_51_59.885,3.871,32.6,0,0.76,0,0,0,0, ,0,0,0,0,0, ,-39.7,422.2,903.9,-0.7,-0.5,-1.7,25,-40.335,422.809,905.802,-0.663258,-0.492149,-1.72076,
2026_07_06_21_51_59.909,3.871,32.6,0,0.761,0,0,0,0, ,0,0,0,0,0, ,-39.9,423.9,906.1,-0.7,-0.5,-1.7,25,-40.3024,422.824,905.754,-0.665497,-0.492627,-1.7195,
2026_07_06_21_51_59.924,3.871,32.5,0,0.76,0,0,0,0, ,0,0,0,0,0, ,-39.9,422.8,905.1,-0.7,-0.5,-1.8,25,-40.2779,422.856,905.744,-0.667599,-0.493076,-1.72136,
2026_07_06_21_51_59.943,3.871,32.7,0,0.76,0,0,0,0, ,0,0,0,0,0, ,-40.6,424.4,904.9,-0.6,-0.5,-1.8,25,-40.2762,422.901,905.699,-0.666527,-0.493498,-1.72615,
2026_07_06_21_51_59.965,3.871,32.6,0,0.762,0,0,0,0, ,0,0,0,0,0, ,-40.7,424.3,906.2,-0.7,-0.4,-1.7,25,-40.299,422.989,905.69,-0.66552,-0.490848,-1.7276,
2026_07_06_21_51_59.983,3.871,32.6,0,0.76,0,0,0,0, ,0,0,0,0,0, ,-39.3,422.4,906,-0.7,-0.4,-1.7,25,-40.2808,423.011,905.715,-0.667621,-0.485312,-1.72592,
2026_07_06_21_52_00.013,3.871,32.5,0,0.76,0,0,0,0, ,0,0,0,0,0, ,-39.9,422.8,905.2,-0.6,-0.4,-1.7,25,-40.2393,422.986,905.708,-0.666547,-0.480113,-1.72434,
2026_07_06_21_52_00.036,3.871,32.6,0,0.76,0,0,0,0, ,0,0,0,0,0, ,-41.3,422.9,905.6,-0.5,-0.5,-1.7,25,-40.2613,422.978,905.689,-0.659445,-0.478278,-1.72286,
2026_07_06_21_52_00.043,3.871,32.6,0,0.762,0,0,0,0, ,0,0,0,0,0, ,-40.5,422.4,906.7,-0.7,-0.5,-1.7,25,-40.3002,422.958,905.717,-0.655823,-0.479602,-1.72146,
2026_07_06_21_52_00.063,3.871,32.6,0,0.76,0,0,0,0, ,0,0,0,0,0, ,-40.2,422.4,906,-0.5,-0.5,-1.7,25,-40.3032,422.924,905.756,-0.652421,-0.480845,-1.72016,
2026_07_06_21_52_00.083,3.871,32.6,0,0.76,0,0,0,0, ,0,0,0,0,0, ,-40,423,905.2,-0.7,-0.5,-1.8,25,-40.2908,422.91,905.746,-0.649226,-0.482012,-1.72197,
2026_07_06_21_52_00.102,3.871,32.5,0,0.76,0,0,0,0, ,0,0,0,0,0, ,-40.2,422.2,905.8,-0.7,-0.4,-1.7,25,-40.2792,422.891,905.731,-0.65232,-0.480061,-1.72368,
2026_07_06_21_52_00.125,3.871,32.6,0,0.76,0,0,0,0, ,0,0,0,0,0, ,-40.2,423.2,906,-0.7,-0.5,-1.8,25,-40.2744,422.88,905.741,-0.655226,-0.478229,-1.72529,
2026_07_06_21_52_00.152,3.871,32.5,0,0.762,0,0,0,0, ,0,0,0,0,0, ,-39.9,421.9,906.1,-0.6,-0.4,-1.8,25,-40.2607,422.86,905.76,-0.654908,-0.476509,-1.72984,
2026_07_06_21_52_00.161,3.871,32.5,0,0.762,0,0,0,0, ,0,0,0,0,0, ,-39.5,422.9,905.8,-0.8,-0.4,-1.8,25,-40.2265,422.832,905.772,-0.657655,-0.471847,-1.73411,
2026_07_06_21_52_00.185,3.871,32.6,0,0.76,0,0,0,0, ,0,0,0,0,0, ,-39.6,423,906.3,-0.8,-0.5,-1.8,25,-40.1853,422.839,905.789,-0.666329,-0.470515,-1.73813,
2026_07_06_21_52_00.201,3.871,32.5,0,0.762,0,0,0,0, ,0,0,0,0,0, ,-39.3,421.9,904.4,-0.6,-0.4,-1.8,25,-40.1405,422.815,905.762,-0.668381,-0.469265,-1.7419,
2026_07_06_21_52_00.221,3.871,32.6,0,0.762,0,0,0,0, ,0,0,0,0,0, ,-41.2,422.8,905.7,-0.7,-0.5,-1.7,25,-40.1472,422.787,905.719,-0.667261,-0.468091,-1.74239,
2026_07_06_21_52_00.243,3.871,32.6,0,0.76,0,0,0,0, ,0,0,0,0,0, ,-41.3,422.6,906.1,-0.7,-0.5,-1.7,25,-40.2144,422.782,905.73,-0.669256,-0.470036,-1.73981,
2026_07_06_21_52_00.261,3.871,32.6,0,0.763,0,0,0,0, ,0,0,0,0,0, ,-39.5,424.1,906.3,-0.6,-0.5,-1.7,25,-40.2257,422.816,905.758,-0.668083,-0.471862,-1.73738,
2026_07_06_21_52_00.281,3.871,32.6,0,0.762,0,0,0,0, ,0,0,0,0,0, ,-40,422.4,905.7,-0.7,-0.5,-1.7,25,-40.1967,422.843,905.773,-0.666981,-0.473576,-1.73511,
2026_07_06_21_52_00.300,3.871,32.6,0,0.762,0,0,0,0, ,0,0,0,0,0, ,-40.7,423.5,906,-0.6,-0.4,-1.7,25,-40.206,422.849,905.778,-0.665946,-0.47214,-1.73297,
2026_07_06_21_52_00.321,3.871,32.6,0,0.76,0,0,0,0, ,0,0,0,0,0, ,-40.8,422.9,905.3,-0.7,-0.5,-1.7,25,-40.2392,422.871,905.77,-0.664974,-0.470791,-1.73096,
2026_07_06_21_52_00.340,3.871,32.5,0,0.762,0,0,0,0, ,0,0,0,0,0, ,-40,422.9,905.8,-0.8,-0.5,-1.7,25,-40.249,422.872,905.757,-0.670156,-0.472571,-1.72907,
2026_07_06_21_52_00.360,3.871,32.6,0,0.762,0,0,0,0, ,0,0,0,0,0, ,-40.7,421.9,906.9,-0.7,-0.4,-1.8,25,-40.2551,422.844,905.793,-0.675021,-0.471195,-1.73035,
2026_07_06_21_52_00.380,3.871,32.6,0,0.762,0,0,0,0, ,0,0,0,0,0, ,-40.6,422.6,905.6,-0.7,-0.5,-1.8,25,-40.2792,422.807,905.821,-0.676543,-0.469904,-1.73459,
2026_07_06_21_52_00.399,3.871,32.5,0,0.762,0,0,0,0, ,0,0,0,0,0, ,-40.4,422.4,906.6,-0.7,-0.4,-1.7,25,-40.2927,422.789,905.838,-0.677973,-0.468691,-1.73553,
2026_07_06_21_52_00.421,3.871,32.6,0,0.762,0,0,0,0, ,0,0,0,0,0, ,-39.9,423,906.6,-0.8,-0.5,-1.8,25,-40.284,422.783,905.884,-0.682362,-0.467552,-1.73641,
2026_07_06_21_52_00.439,3.871,32.6,0,0.762,0,0,0,0, ,0,0,0,0,0, ,-40.1,423.9,905.7,-0.6,-0.5,-1.8,25,-40.2667,422.824,905.9,-0.683437,-0.469529,-1.74029,
2026_07_06_21_52_00.459,3.871,32.6,0,0.762,0,0,0,0, ,0,0,0,0,0, ,-39.6,422.7,906.2,-0.6,-0.5,-1.7,25,-40.2413,422.853,905.903,-0.678352,-0.471386,-1.74088,
2026_07_06_21_52_00.479,3.871,32.6,0,0.762,0,0,0,0, ,0,0,0,0,0, ,-40.2,423.8,906.3,-0.7,-0.5,-1.8,25,-40.2205,422.877,905.924,-0.676625,-0.47313,-1.74143,
2026_07_06_21_52_00.499,3.871,32.6,0,0.76,0,0,0,0, ,0,0,0,0,0, ,-40.8,422.7,905.7,-0.6,-0.5,-1.7,25,-40.2375,422.9,905.929,-0.675002,-0.474767,-1.74196,
2026_07_06_21_52_00.519,3.871,32.6,0,0.762,0,0,0,0, ,0,0,0,0,0, ,-40.1,424,905,-0.5,-0.5,-1.7,25,-40.2505,422.927,905.894,-0.667385,-0.476305,-1.7394,
2026_07_06_21_52_00.538,3.871,32.6,0,0.762,0,0,0,0, ,0,0,0,0,0, ,-40.7,421.5,905.8,-0.6,-0.5,-1.7,25,-40.2596,422.916,905.864,-0.660232,-0.477749,-1.737,
2026_07_06_21_52_00.558,3.871,32.7,0,0.76,0,0,0,0, ,0,0,0,0,0, ,-40.4,423,905.8,-0.5,-0.5,-1.8,25,-40.2773,422.876,905.86,-0.653514,-0.479104,-1.73779,
2026_07_06_21_52_00.578,3.871,32.6,0,0.76,0,0,0,0, ,0,0,0,0,0, ,-39.7,421.8,904.5,-0.7,-0.6,-1.7,25,-40.2634,422.847,905.817,-0.650253,-0.483425,-1.73853,
2026_07_06_21_52_00.598,3.871,32.6,0,0.762,0,0,0,0, ,0,0,0,0,0, ,-39.6,422.6,906,-0.6,-0.4,-1.8,25,-40.226,422.807,905.782,-0.650238,-0.484435,-1.73923,
2026_07_06_21_52_00.618,3.871,32.6,0,0.762,0,0,0,0, ,0,0,0,0,0, ,-41.1,422.3,906,-0.6,-0.4,-1.8,25,-40.2336,422.786,905.795,-0.647177,-0.479289,-1.74294,
2026_07_06_21_52_00.637,3.871,32.5,0,0.762,0,0,0,0, ,0,0,0,0,0, ,-40.4,422.3,905.1,-0.8,-0.5,-1.8,25,-40.2651,422.756,905.78,-0.650395,-0.477505,-1.74641,
2026_07_06_21_52_00.657,3.871,32.6,0,0.762,0,0,0,0, ,0,0,0,0,0, ,-39.9,422.2,905.2,-0.7,-0.5,-1.7,25,-40.2581,422.725,905.742,-0.656465,-0.478875,-1.74663,
2026_07_06_21_52_00.677,3.871,32.6,0,0.762,0,0,0,0, ,0,0,0,0,0, ,-40.7,422.9,904.4,-0.7,-0.5,-1.7,25,-40.2606,422.715,905.685,-0.659118,-0.480163,-1.74379,
2026_07_06_21_52_00.697,3.871,32.6,0,0.761,0,0,0,0, ,0,0,0,0,0, ,-40.1,422.2,905.8,-0.7,-0.5,-1.7,25,-40.2691,422.705,905.649,-0.661609,-0.481372,-1.74112,
2026_07_06_21_52_00.717,3.871,32.6,0,0.759,0,0,0,0, ,0,0,0,0,0, ,-40.2,423.9,906,-0.7,-0.5,-1.7,25,-40.2618,422.726,905.664,-0.663949,-0.482507,-1.73862,
2026_07_06_21_52_00.736,3.871,32.6,0,0.76,0,0,0,0, ,0,0,0,0,0, ,-39.7,422.9,905.6,-0.7,-0.5,-1.7,25,-40.2428,422.767,905.672,-0.666146,-0.483573,-1.73626,
2026_07_06_21_52_00.756,3.871,32.6,0,0.762,0,0,0,0, ,0,0,0,0,0, ,-41,422.2,905.7,-0.6,-0.5,-1.6,25,-40.2494,422.753,905.671,-0.665162,-0.484574,-1.73101,
2026_07_06_21_52_00.776,3.871,32.6,0,0.762,0,0,0,0, ,0,0,0,0,0, ,-40.7,422.3,906.4,-0.6,-0.4,-1.7,25,-40.286,422.723,905.694,-0.661191,-0.482467,-1.72607,
2026_07_06_21_52_00.796,3.871,32.6,0,0.76,0,0,0,0, ,0,0,0,0,0, ,-40.6,422.8,904.6,-0.7,-0.5,-1.8,25,-40.3082,422.712,905.682,-0.660509,-0.480488,-1.72753,
2026_07_06_21_52_00.816,3.871,32.7,0,0.76,0,0,0,0, ,0,0,0,0,0, ,-40,423.5,904.4,-0.6,-0.5,-1.7,25,-40.3077,422.739,905.61,-0.659869,-0.481677,-1.7289,
2026_07_06_21_52_00.836,3.871,32.6,0,0.761,0,0,0,0, ,0,0,0,0,0, ,-39.7,422.6,905.2,-0.6,-0.5,-1.7,25,-40.2798,422.758,905.561,-0.65622,-0.482794,-1.72714,
2026_07_06_21_52_00.858,3.871,32.6,0,0.76,0,0,0,0, ,0,0,0,0,0, ,-40.7,423,904.9,-0.6,-0.5,-1.7,25,-40.2749,422.76,905.53,-0.652794,-0.483842,-1.72548,
2026_07_06_21_52_00.875,3.871,32.7,0,0.762,0,0,0,0, ,0,0,0,0,0, ,-40.2,421.6,905.5,-0.7,-0.5,-1.7,25,-40.2856,422.732,905.51,-0.652624,-0.484827,-1.72393,
2026_07_06_21_52_00.895,3.871,32.5,0,0.763,0,0,0,0, ,0,0,0,0,0, ,-39.4,422.4,906.1,-0.7,-0.5,-1.7,25,-40.256,422.688,905.527,-0.655511,-0.485752,-1.72247,
2026_07_06_21_52_00.915,3.871,32.6,0,0.762,0,0,0,0, ,0,0,0,0,0, ,-41.3,421.9,904.9,-0.6,-0.5,-1.7,25,-40.2617,422.655,905.526,-0.655175,-0.48662,-1.7211,
2026_07_06_21_52_00.935,3.871,32.7,0,0.762,0,0,0,0, ,0,0,0,0,0, ,-40,422.3,905.3,-0.7,-0.4,-1.7,25,-40.2854,422.621,905.5,-0.65486,-0.484388,-1.71982,
2026_07_06_21_52_00.955,3.871,32.6,0,0.76,0,0,0,0, ,0,0,0,0,0, ,-41,422.1,905.8,-0.8,-0.4,-1.7,25,-40.2985,422.596,905.503,-0.660658,-0.479246,-1.71861,
2026_07_06_21_52_00.974,3.871,32.6,0,0.759,0,0,0,0, ,0,0,0,0,0, ,-40.1,424.1,905.6,-0.7,-0.5,-1.7,25,-40.3138,422.626,905.515,-0.666102,-0.477464,-1.71748,
2026_07_06_21_52_00.994,3.871,32.6,0,0.762,0,0,0,0, ,0,0,0,0,0, ,-40.5,422.1,905.6,-0.7,-0.5,-1.7,25,-40.3129,422.655,905.52,-0.668167,-0.478837,-1.71641,
2026_07_06_21_52_01.015,3.871,32.6,0,0.762,0,0,0,0, ,0,0,0,0,0, ,-40.8,423.7,905.2,-0.7,-0.5,-1.7,25,-40.3335,422.67,905.513,-0.670107,-0.480127,-1.71541,
2026_07_06_21_52_01.034,3.871,32.6,0,0.763,0,0,0,0, ,0,0,0,0,0, ,-39.4,423.9,906.1,-0.7,-0.5,-1.8,25,-40.3193,422.739,905.521,-0.671929,-0.481338,-1.71752,
2026_07_06_21_52_01.053,3.871,32.6,0,0.762,0,0,0,0, ,0,0,0,0,0, ,-39.7,421.5,904.9,-0.7,-0.6,-1.7,25,-40.2724,422.737,905.52,-0.673639,-0.485522,-1.7195,
2026_07_06_21_52_01.073,3.871,32.6,0,0.762,0,0,0,0, ,0,0,0,0,0, ,-39.9,421,906,-0.7,-0.5,-1.7,25,-40.2436,422.646,905.516,-0.675246,-0.489451,-1.71831,
2026_07_06_21_52_01.093,3.871,32.6,0,0.762,0,0,0,0, ,0,0,0,0,0, ,-41,422.7,904.9,-0.7,-0.4,-1.8,25,-40.2562,422.597,905.512,-0.676754,-0.487047,-1.72024,
2026_07_06_21_52_01.113,3.871,32.7,0,0.762,0,0,0,0, ,0,0,0,0,0, ,-40.1,422.2,905.8,-0.7,-0.5,-1.7,25,-40.2741,422.588,905.502,-0.678171,-0.484789,-1.72205,
2026_07_06_21_52_01.133,3.871,32.7,0,0.76,0,0,0,0, ,0,0,0,0,0, ,-40.7,422.2,906.1,-0.7,-0.5,-1.8,25,-40.2818,422.565,905.529,-0.679501,-0.485716,-1.72376,
2026_07_06_21_52_01.152,3.871,32.7,0,0.761,0,0,0,0, ,0,0,0,0,0, ,-40.5,422.4,905,-0.7,-0.5,-1.8,25,-40.3011,422.549,905.53,-0.68075,-0.486587,-1.7284,
2026_07_06_21_52_01.172,3.871,32.6,0,0.762,0,0,0,0, ,0,0,0,0,0, ,-39.4,422.3,906.1,-0.7,-0.4,-1.8,25,-40.2797,422.537,905.532,-0.681923,-0.484357,-1.73277,
2026_07_06_21_52_01.192,3.871,32.6,0,0.763,0,0,0,0, ,0,0,0,0,0, ,-39.9,423.4,907.1,-0.7,-0.5,-1.7,25,-40.2414,422.556,905.597,-0.683025,-0.482264,-1.73382,
2026_07_06_21_52_01.212,3.871,32.6,0,0.763,0,0,0,0, ,0,0,0,0,0, ,-41.1,422.6,905.2,-0.7,-0.5,-1.7,25,-40.2571,422.583,905.63,-0.684059,-0.483344,-1.73176,
2026_07_06_21_52_01.231,3.871,32.6,0,0.762,0,0,0,0, ,0,0,0,0,0, ,-40.8,423.3,904.7,-0.7,-0.4,-1.7,25,-40.2994,422.605,905.589,-0.685031,-0.481312,-1.72982,
2026_07_06_21_52_01.251,3.871,32.6,0,0.762,0,0,0,0, ,0,0,0,0,0, ,-40.5,422.4,905.7,-0.6,-0.5,-1.7,25,-40.3207,422.62,905.565,-0.682896,-0.479404,-1.728,
2026_07_06_21_52_01.273,3.871,32.6,0,0.76,0,0,0,0, ,0,0,0,0,0, ,-39.5,422.2,905,-0.6,-0.4,-1.8,25,-40.3012,422.601,905.552,-0.677844,-0.477613,-1.72934,
2026_07_06_21_52_01.291,3.871,32.7,0,0.762,0,0,0,0, ,0,0,0,0,0, ,-41.2,422.2,906,-0.7,-0.4,-1.7,25,-40.3042,422.576,905.549,-0.676148,-0.472883,-1.7306,
2026_07_06_21_52_01.310,3.871,32.6,0,0.762,0,0,0,0, ,0,0,0,0,0, ,-39.9,422.8,904,-0.6,-0.5,-1.7,25,-40.3191,422.571,905.515,-0.674554,-0.471489,-1.72874,
2026_07_06_21_52_01.331,3.871,32.6,0,0.762,0,0,0,0, ,0,0,0,0,0, ,-40,423,905.3,-0.6,-0.5,-1.7,25,-40.2966,422.591,905.463,-0.670011,-0.473226,-1.72699,
2026_07_06_21_52_01.350,3.871,32.6,0,0.761,0,0,0,0, ,0,0,0,0,0, ,-40.5,422.1,905.5,-0.5,-0.5,-1.7,25,-40.2938,422.589,905.459,-0.662698,-0.474858,-1.72534,
2026_07_06_21_52_01.370,3.871,32.6,0,0.762,0,0,0,0, ,0,0,0,0,0, ,-40,421.8,904.7,-0.6,-0.5,-1.7,25,-40.2911,422.55,905.437,-0.65583,-0.47639,-1.7238,
2026_07_06_21_52_01.390,3.871,32.6,0,0.762,0,0,0,0, ,0,0,0,0,0, ,-40.7,422.6,906.9,-0.7,-0.5,-1.7,25,-40.2947,422.529,905.459,-0.655475,-0.477828,-1.72235,
2026_07_06_21_52_01.410,3.871,32.5,0,0.762,0,0,0,0, ,0,0,0,0,0, ,-40.2,422.4,904.9,-0.7,-0.5,-1.7,25,-40.3042,422.527,905.486,-0.658188,-0.479179,-1.72099,
2026_07_06_21_52_01.430,3.871,32.6,0,0.76,0,0,0,0, ,0,0,0,0,0, ,-40.5,423,905.1,-0.6,-0.5,-1.7,25,-40.307,422.537,905.456,-0.657689,-0.480448,-1.71971,
2026_07_06_21_52_01.450,3.871,32.6,0,0.762,0,0,0,0, ,0,0,0,0,0, ,-40.1,422.7,906.7,-0.7,-0.5,-1.8,25,-40.3065,422.557,905.483,-0.657221,-0.48164,-1.72155,
2026_07_06_21_52_01.470,3.871,32.6,0,0.763,0,0,0,0, ,0,0,0,0,0, ,-39.5,421.8,905.1,-0.9,-0.5,-1.8,25,-40.2757,422.538,905.509,-0.665921,-0.482759,-1.72633,
2026_07_06_21_52_01.489,3.871,32.6,0,0.76,0,0,0,0, ,0,0,0,0,0, ,-39.9,423.8,907.5,-0.8,-0.5,-1.6,25,-40.2406,422.554,905.557,-0.677139,-0.483809,-1.72473,
2026_07_06_21_52_01.509,3.871,32.6,0,0.761,0,0,0,0, ,0,0,0,0,0, ,-41.1,422.6,905.6,-0.7,-0.5,-1.7,25,-40.2564,422.593,905.618,-0.681579,-0.484796,-1.72017,
2026_07_06_21_52_01.529,3.871,32.6,0,0.763,0,0,0,0, ,0,0,0,0,0, ,-40.5,421.7,904,-0.7,-0.5,-1.7,25,-40.2895,422.566,905.568,-0.682701,-0.485722,-1.71895,
2026_07_06_21_52_01.548,3.871,32.7,0,0.76,0,0,0,0, ,0,0,0,0,0, ,-40.8,422.8,905.7,-0.7,-0.5,-1.6,25,-40.3115,422.547,905.524,-0.683755,-0.486592,-1.71474,
2026_07_06_21_52_01.568,3.871,32.7,0,0.76,0,0,0,0, ,0,0,0,0,0, ,-40.8,422.4,906.2,-0.6,-0.4,-1.8,25,-40.3413,422.55,905.55,-0.681698,-0.484363,-1.71385,
2026_07_06_21_52_01.588,3.871,32.6,0,0.762,0,0,0,0, ,0,0,0,0,0, ,-40.8,423,905.8,-0.6,-0.5,-1.8,25,-40.3692,422.559,905.577,-0.67672,-0.482269,-1.7191,
2026_07_06_21_52_01.608,3.871,32.6,0,0.763,0,0,0,0, ,0,0,0,0,0, ,-39.7,422.1,905.6,-0.6,-0.5,-1.7,25,-40.362,422.559,905.585,-0.672045,-0.483349,-1.72098,
2026_07_06_21_52_01.629,3.871,32.6,0,0.762,0,0,0,0, ,0,0,0,0,0, ,-40.1,423.2,906.9,-0.6,-0.5,-1.6,25,-40.3338,422.564,905.625,-0.667655,-0.484364,-1.71665,
2026_07_06_21_52_01.648,3.871,32.5,0,0.76,0,0,0,0, ,0,0,0,0,0, ,-41.2,422.6,905.8,-0.6,-0.5,-1.7,25,-40.3531,422.585,905.67,-0.663532,-0.485317,-1.71259,
2026_07_06_21_52_01.667,3.871,32.6,0,0.762,0,0,0,0, ,0,0,0,0,0, ,-40,422.2,907.1,-0.6,-0.4,-1.7,25,-40.3681,422.573,905.717,-0.65966,-0.483164,-1.71182,
2026_07_06_21_52_01.687,3.871,32.5,0,0.762,0,0,0,0, ,0,0,0,0,0, ,-41.3,422.3,904.1,-0.7,-0.5,-1.7,25,-40.3853,422.554,905.71,-0.659072,-0.481143,-1.7111,
2026_07_06_21_52_01.707,3.871,32.6,0,0.76,0,0,0,0, ,0,0,0,0,0, ,-39.9,422.2,907.2,-0.7,-0.5,-1.7,25,-40.3984,422.535,905.706,-0.661566,-0.482293,-1.71043,
2026_07_06_21_52_01.727,3.871,32.7,0,0.76,0,0,0,0, ,0,0,0,0,0, ,-39.3,422.1,905.5,-0.7,-0.5,-1.7,25,-40.3497,422.512,905.746,-0.663908,-0.483372,-1.70979,
2026_07_06_21_52_01.746,3.871,32.7,0,0.76,0,0,0,0, ,0,0,0,0,0, ,-40.7,424.3,905.7,-0.6,-0.5,-1.7,25,-40.3284,422.554,905.737,-0.66306,-0.484385,-1.7092,
2026_07_06_21_52_01.767,3.871,32.6,0,0.762,0,0,0,0, ,0,0,0,0,0, ,-40.1,423.2,905,-0.7,-0.5,-1.7,25,-40.3328,422.627,905.713,-0.662264,-0.485336,-1.70863,
2026_07_06_21_52_01.786,3.871,32.7,0,0.759,0,0,0,0, ,0,0,0,0,0, ,-41.3,424.8,904.9,-0.5,-0.5,-1.8,25,-40.3552,422.71,905.667,-0.65847,-0.48623,-1.71116,
2026_07_06_21_52_01.806,3.871,32.7,0,0.76,0,0,0,0, ,0,0,0,0,0, ,-40.6,422.3,905.8,-0.6,-0.5,-1.8,25,-40.3914,422.761,905.647,-0.65186,-0.487069,-1.71657,
2026_07_06_21_52_01.826,3.871,32.7,0,0.76,0,0,0,0, ,0,0,0,0,0, ,-40.4,422.6,905,-0.6,-0.5,-1.8,25,-40.398,422.743,905.632,-0.6487,-0.487857,-1.72165,
2026_07_06_21_52_01.845,3.871,32.6,0,0.761,0,0,0,0, ,0,0,0,0,0, ,-39.7,422.6,906,-0.7,-0.5,-1.8,25,-40.3768,422.734,905.624,-0.648779,-0.488597,-1.72643,
2026_07_06_21_52_01.865,3.871,32.6,0,0.76,0,0,0,0, ,0,0,0,0,0, ,-41,423.2,906.2,-0.6,-0.5,-1.7,25,-40.3752,422.744,905.653,-0.648854,-0.489292,-1.72786,
2026_07_06_21_52_01.885,3.871,32.6,0,0.763,0,0,0,0, ,0,0,0,0,0, ,-40.5,421.3,905.2,-0.7,-0.5,-1.8,25,-40.398,422.714,905.656,-0.648924,-0.489944,-1.72921,
2026_07_06_21_52_01.907,3.871,32.7,0,0.76,0,0,0,0, ,0,0,0,0,0, ,-40.8,423,904.7,-0.8,-0.5,-1.7,25,-40.4134,422.679,905.613,-0.655083,-0.490557,-1.73048,
2026_07_06_21_52_01.927,3.871,32.5,0,0.76,0,0,0,0, ,0,0,0,0,0, ,-39.3,422.2,906.4,-0.7,-0.5,-1.8,25,-40.3912,422.675,905.609,-0.660867,-0.491133,-1.73167,
2026_07_06_21_52_01.945,3.871,32.7,0,0.762,0,0,0,0, ,0,0,0,0,0, ,-41.3,422.2,905.8,-0.8,-0.4,-1.8,25,-40.3857,422.646,905.639,-0.666298,-0.488626,-1.73583,
2026_07_06_21_52_01.965,3.871,32.5,0,0.762,0,0,0,0, ,0,0,0,0,0, ,-40.7,422.6,904.9,-0.8,-0.5,-1.8,25,-40.4231,422.631,905.621,-0.674446,-0.486272,-1.73974,
2026_07_06_21_52_01.984,3.871,32.7,0,0.76,0,0,0,0, ,0,0,0,0,0, ,-39.6,423.2,907.1,-0.8,-0.5,-1.8,25,-40.4065,422.647,905.645,-0.682097,-0.487109,-1.74342,
2026_07_06_21_52_02.004,3.871,32.7,0,0.76,0,0,0,0, ,0,0,0,0,0, ,-40.7,423.2,905.8,-0.7,-0.5,-1.7,25,-40.3908,422.681,905.694,-0.686235,-0.487894,-1.74382,
2026_07_06_21_52_02.024,3.871,32.6,0,0.76,0,0,0,0, ,0,0,0,0,0, ,-40.1,422.7,904.7,-0.7,-0.4,-1.8,25,-40.3914,422.697,905.667,-0.687074,-0.485585,-1.74419,
2026_07_06_21_52_02.044,3.871,32.7,0,0.76,0,0,0,0, ,0,0,0,0,0, ,-40,422.2,906.4,-0.7,-0.5,-1.7,25,-40.3706,422.682,905.659,-0.687861,-0.483417,-1.74455,
2026_07_06_21_52_02.064,3.871,32.7,0,0.762,0,0,0,0, ,0,0,0,0,0, ,-39.5,424.3,906.8,-0.5,-0.5,-1.8,25,-40.3328,422.717,905.717,-0.682507,-0.484427,-1.74488,
2026_07_06_21_52_02.084,3.871,32.6,0,0.762,0,0,0,0, ,0,0,0,0,0, ,-40.5,421.8,904.7,-0.4,-0.5,-1.7,25,-40.3125,422.737,905.719,-0.668339,-0.485376,-1.74519,
2026_07_06_21_52_02.107,3.871,32.7,0,0.762,0,0,0,0, ,0,0,0,0,0, ,-40,423,905.3,-0.5,-0.5,-1.7,25,-40.3087,422.717,905.675,-0.655034,-0.486267,-1.74244,
2026_07_06_21_52_02.126,3.871,32.6,0,0.76,0,0,0,0, ,0,0,0,0,0, ,-39.5,423.4,904.9,-0.5,-0.5,-1.7,25,-40.2746,422.746,905.64,-0.645586,-0.487104,-1.73985,
2026_07_06_21_52_02.143,3.871,32.6,0,0.76,0,0,0,0, ,0,0,0,0,0, ,-41.1,425,904.2,-0.6,-0.5,-1.6,25,-40.2762,422.835,905.574,-0.639762,-0.48789,-1.73438,
2026_07_06_21_52_02.163,3.871,32.5,0,0.762,0,0,0,0, ,0,0,0,0,0, ,-41.2,424.3,907.1,-0.8,-0.5,-1.7,25,-40.3294,422.945,905.578,-0.643432,-0.488628,-1.72923,
2026_07_06_21_52_02.184,3.871,32.6,0,0.759,0,0,0,0, ,0,0,0,0,0, ,-40,422.1,903.9,-0.6,-0.5,-1.8,25,-40.3459,422.961,905.573,-0.646879,-0.489321,-1.7305,
2026_07_06_21_52_02.203,3.871,32.7,0,0.762,0,0,0,0, ,0,0,0,0,0, ,-40,421.8,904.5,-0.7,-0.5,-1.7,25,-40.3248,422.899,905.49,-0.64707,-0.489972,-1.73169,
2026_07_06_21_52_02.222,3.871,32.6,0,0.761,0,0,0,0, ,0,0,0,0,0, ,-39.9,422.8,905.2,-0.6,-0.5,-1.7,25,-40.302,422.863,905.451,-0.647248,-0.490583,-1.72976,
2026_07_06_21_52_02.243,3.871,32.6,0,0.762,0,0,0,0, ,0,0,0,0,0, ,-41.3,422.4,906.6,-0.4,-0.4,-1.8,25,-40.3202,422.847,905.478,-0.638275,-0.48811,-1.73099,
2026_07_06_21_52_02.262,3.871,32.6,0,0.76,0,0,0,0, ,0,0,0,0,0, ,-39.9,420.6,907.2,-0.8,-0.5,-1.7,25,-40.3372,422.765,905.565,-0.635943,-0.485787,-1.73215,
2026_07_06_21_52_02.282,3.871,32.6,0,0.76,0,0,0,0, ,0,0,0,0,0, ,-40,422.2,906.1,-0.9,-0.5,-1.8,25,-40.3136,422.681,905.631,-0.648987,-0.486654,-1.73324,
2026_07_06_21_52_02.302,3.871,32.5,0,0.76,0,0,0,0, ,0,0,0,0,0, ,-40.5,424.3,906.7,-0.7,-0.5,-1.7,25,-40.3097,422.716,905.678,-0.658189,-0.487467,-1.73426,
2026_07_06_21_52_02.322,3.871,32.5,0,0.762,0,0,0,0, ,0,0,0,0,0, ,-38.6,422.9,904.6,-0.6,-0.5,-1.7,25,-40.2634,422.77,905.676,-0.65769,-0.488231,-1.73217,
2026_07_06_21_52_02.341,3.871,32.7,0,0.762,0,0,0,0, ,0,0,0,0,0, ,-40,423.3,905.8,-0.7,-0.4,-1.7,25,-40.2047,422.79,905.647,-0.657222,-0.485901,-1.73021,
2026_07_06_21_52_02.362,3.871,32.6,0,0.76,0,0,0,0, ,0,0,0,0,0, ,-40.2,422.6,904.5,-0.5,-0.5,-1.8,25,-40.1984,422.8,905.617,-0.653735,-0.483713,-1.73142,
2026_07_06_21_52_02.381,3.871,32.6,0,0.76,0,0,0,0, ,0,0,0,0,0, ,-40.6,422.7,905.7,-0.7,-0.5,-1.8,25,-40.2106,422.791,905.585,-0.65046,-0.484706,-1.7356,
2026_07_06_21_52_02.401,3.871,32.6,0,0.761,0,0,0,0, ,0,0,0,0,0, ,-39.9,423.8,903.3,-0.6,-0.5,-1.8,25,-40.213,422.819,905.519,-0.650432,-0.485638,-1.73952,
2026_07_06_21_52_02.421,3.871,32.6,0,0.762,0,0,0,0, ,0,0,0,0,0, ,-42.6,422.2,901.6,-0.3,-0.5,-1.7,25,-40.2762,422.83,905.332,-0.638218,-0.486513,-1.74016,
2026_07_06_21_52_02.441,3.871,32.6,0,0.76,0,0,0,0, ,0,0,0,0,0, ,-37.1,418.5,904.6,-0.9,-0.4,-1.8,25,-40.2503,422.679,905.196,-0.635889,-0.484288,-1.74076,
2026_07_06_21_52_02.460,3.871,32.6,0,0.762,0,0,0,0, ,0,0,0,0,0, ,-40.4,424.6,908.4,-0.9,-0.4,-1.7,25,-40.1588,422.61,905.276,-0.651984,-0.479152,-1.74132,
2026_07_06_21_52_02.480,3.871,32.6,0,0.76,0,0,0,0, ,0,0,0,0,0, ,-39.6,421.2,903.9,-0.2,-0.4,-1.8,25,-40.1492,422.628,905.329,-0.645769,-0.474328,-1.74185,
2026_07_06_21_52_02.500,3.871,32.6,0,0.759,0,0,0,0, ,0,0,0,0,0, ,-40.8,423.3,906.1,-0.8,-0.4,-1.8,25,-40.1523,422.605,905.309,-0.636886,-0.469799,-1.74539,
2026_07_06_21_52_02.521,3.871,32.5,0,0.762,0,0,0,0, ,0,0,0,0,0, ,-41.2,421.2,908.8,-0.4,-0.5,-1.8,25,-40.2039,422.583,905.439,-0.634638,-0.468592,-1.74872,
2026_07_06_21_52_02.542,3.871,32.6,0,0.764,0,0,0,0, ,0,0,0,0,0, ,-39.7,422.7,905.3,-0.9,-0.5,-1.8,25,-40.2189,422.544,905.537,-0.635575,-0.470506,-1.75185,
2026_07_06_21_52_02.562,3.871,32.5,0,0.762,0,0,0,0, ,0,0,0,0,0, ,-41.3,425,905.8,-0.7,-0.5,-1.7,25,-40.236,422.624,905.538,-0.645594,-0.472304,-1.75173,
2026_07_06_21_52_02.579,3.871,32.6,0,0.761,0,0,0,0, ,0,0,0,0,0, ,-40.8,422.8,906.1,-0.5,-0.5,-1.7,25,-40.2856,422.702,905.563,-0.642816,-0.473991,-1.74858,
2026_07_06_21_52_02.599,3.871,32.6,0,0.76,0,0,0,0, ,0,0,0,0,0, ,-40.4,421.5,905.8,-0.6,-0.5,-1.8,25,-40.3048,422.668,905.587,-0.63716,-0.475576,-1.74867,
2026_07_06_21_52_02.618,3.871,32.5,0,0.762,0,0,0,0, ,0,0,0,0,0, ,-37.9,423.8,906,-0.8,-0.4,-1.6,25,-40.2344,422.667,905.606,-0.640989,-0.474018,-1.7457,
2026_07_06_21_52_02.639,3.871,32.6,0,0.762,0,0,0,0, ,0,0,0,0,0, ,-39.5,423.7,905.1,-0.5,-0.5,-1.7,25,-40.1409,422.733,905.603,-0.641538,-0.472554,-1.73987,
2026_07_06_21_52_02.658,3.871,32.6,0,0.763,0,0,0,0, ,0,0,0,0,0, ,-41.3,423.4,906.1,-0.7,-0.4,-1.7,25,-40.1567,422.783,905.602,-0.639007,-0.47118,-1.73744,
2026_07_06_21_52_02.678,3.871,32.6,0,0.76,0,0,0,0, ,0,0,0,0,0, ,-40,421.7,904.6,-0.6,-0.4,-1.8,25,-40.1868,422.769,905.587,-0.639677,-0.466842,-1.73821,
2026_07_06_21_52_02.698,3.871,32.6,0,0.761,0,0,0,0, ,0,0,0,0,0, ,-41.9,421.9,905.6,-0.7,-0.4,-1.8,25,-40.2333,422.71,905.557,-0.640306,-0.462769,-1.74197,
2026_07_06_21_52_02.719,3.871,32.6,0,0.761,0,0,0,0, ,0,0,0,0,0, ,-39,422.2,904.4,-0.7,-0.5,-1.7,25,-40.2465,422.669,905.523,-0.643944,-0.461991,-1.74246,
2026_07_06_21_52_02.737,3.871,32.6,0,0.76,0,0,0,0, ,0,0,0,0,0, ,-40.8,423.3,906.2,-0.7,-0.5,-1.8,25,-40.2254,422.674,905.51,-0.64736,-0.464307,-1.74292,
2026_07_06_21_52_02.758,3.871,32.6,0,0.762,0,0,0,0, ,0,0,0,0,0, ,-40,422.1,904.1,-0.6,-0.5,-1.7,25,-40.236,422.676,905.488,-0.64752,-0.466482,-1.74335,
2026_07_06_21_52_02.777,3.871,32.6,0,0.76,0,0,0,0, ,0,0,0,0,0, ,-40,422.4,906.3,-0.7,-0.5,-1.7,25,-40.2216,422.65,905.47,-0.647672,-0.468525,-1.74071,
2026_07_06_21_52_02.798,3.871,32.6,0,0.76,0,0,0,0, ,0,0,0,0,0, ,-39.6,423,905.3,-0.7,-0.5,-1.8,25,-40.1959,422.653,905.49,-0.65086,-0.470443,-1.74128,
2026_07_06_21_52_02.816,3.871,32.6,0,0.763,0,0,0,0, ,0,0,0,0,0, ,-41.5,422.9,905.6,-0.6,-0.5,-1.8,25,-40.2175,422.671,905.488,-0.650808,-0.472244,-1.74485,
2026_07_06_21_52_02.837,3.871,32.6,0,0.76,0,0,0,0, ,0,0,0,0,0, ,-40.2,423.2,905.1,-0.7,-0.5,-1.7,25,-40.2561,422.694,905.48,-0.650759,-0.473935,-1.74517,
2026_07_06_21_52_02.856,3.871,32.6,0,0.76,0,0,0,0, ,0,0,0,0,0, ,-38.9,421.9,906.3,-0.9,-0.5,-1.8,25,-40.213,422.685,905.493,-0.659853,-0.475524,-1.74546,
2026_07_06_21_52_02.879,3.871,32.6,0,0.762,0,0,0,0, ,0,0,0,0,0, ,-39.3,424.8,906,-0.7,-0.5,-1.7,25,-40.1452,422.726,905.533,-0.668393,-0.477015,-1.74574,
2026_07_06_21_52_02.896,3.871,32.7,0,0.76,0,0,0,0, ,0,0,0,0,0, ,-40.5,423,904.7,-0.7,-0.5,-1.8,25,-40.1303,422.797,905.522,-0.670319,-0.478416,-1.746,
2026_07_06_21_52_02.917,3.871,32.6,0,0.761,0,0,0,0, ,0,0,0,0,0, ,-43.2,422.7,906.9,-0.7,-0.5,-1.8,25,-40.2351,422.801,905.539,-0.672128,-0.479731,-1.74929,
2026_07_06_21_52_02.936,3.871,32.5,0,0.762,0,0,0,0, ,0,0,0,0,0, ,-40.1,423,906.7,-0.5,-0.5,-1.8,25,-40.3213,422.804,905.616,-0.667733,-0.480966,-1.75238,
2026_07_06_21_52_02.957,3.871,32.6,0,0.76,0,0,0,0, ,0,0,0,0,0, ,-39.9,418.5,906.7,-0.1,-0.5,-1.7,25,-40.3017,422.678,905.682,-0.645324,-0.482126,-1.75223,
2026_07_06_21_52_02.979,3.871,32.6,0,0.762,0,0,0,0, ,0,0,0,0,0, ,-39.5,432.7,903.6,5.1,-0.4,-1.5,25,-40.265,422.857,905.649,-0.453656,-0.480168,-1.74296,
2026_07_06_21_52_03.000,3.871,32.6,0,0.762,0,0,0,0, ,0,0,0,0,0, ,-39.4,400.5,913.2,-2.2,2.7,5.3,25,-40.2154,422.475,905.817,-0.337652,-0.38083,-1.52097,
2026_07_06_21_52_03.015,3.871,32.6,0,0.76,0,0,0,0, ,0,0,0,0,0, ,-42.2,450.9,895.5,-5.8,1.2,2,25,-40.251,422.672,905.728,-0.560826,-0.238795,-1.20586,
2026_07_06_21_52_03.037,3.871,32.6,0,0.763,0,0,0,0, ,0,0,0,0,0, ,-39.9,416.6,906,-1.8,-0.5,-1.7,25,-40.2997,423.347,905.424,-0.758213,-0.202915,-1.12324,
2026_07_06_21_52_03.055,3.871,32.6,0,0.763,0,0,0,0, ,0,0,0,0,0, ,-41.8,423.8,905.3,-1.1,-0.5,-1.8,25,-40.3332,423.155,905.438,-0.800369,-0.221019,-1.16143,
2026_07_06_21_52_03.076,3.871,32.6,0,0.762,0,0,0,0, ,0,0,0,0,0, ,-40.2,425.2,904.5,-0.3,-0.5,-1.8,25,-40.3739,423.237,905.405,-0.794253,-0.238019,-1.20034,
2026_07_06_21_52_03.095,3.871,32.6,0,0.762,0,0,0,0, ,0,0,0,0,0, ,-40.4,425.7,905.6,-0.3,-0.5,-1.7,25,-40.3694,423.372,905.384,-0.764134,-0.253984,-1.23384,
2026_07_06_21_52_03.116,3.871,32.6,0,0.76,0,0,0,0, ,0,0,0,0,0, ,-39.7,420.6,905.6,-1.2,-0.6,-1.7,25,-40.3499,423.358,905.397,-0.763273,-0.272022,-1.26224,
2026_07_06_21_52_03.134,3.871,32.6,0,0.763,0,0,0,0, ,0,0,0,0,0, ,-41,423.9,906,-1.2,-0.4,-1.8,25,-40.3499,423.291,905.421,-0.789886,-0.285915,-1.29197,
2026_07_06_21_52_03.155,3.871,32.7,0,0.763,0,0,0,0, ,0,0,0,0,0, ,-40.1,423.8,904.9,-0.3,-0.5,-1.7,25,-40.3621,423.325,905.423,-0.787455,-0.295914,-1.31988,
2026_07_06_21_52_03.173,3.871,32.6,0,0.76,0,0,0,0, ,0,0,0,0,0, ,-40.2,425.9,905,-0.3,-0.5,-1.7,25,-40.3492,423.418,905.394,-0.757751,-0.30835,-1.34304,
2026_07_06_21_52_03.195,3.871,32.6,0,0.762,0,0,0,0, ,0,0,0,0,0, ,-39.5,423,904.7,-1,-0.5,-1.8,25,-40.3187,423.481,905.361,-0.751185,-0.320029,-1.36784,
2026_07_06_21_52_03.213,3.871,32.6,0,0.761,0,0,0,0, ,0,0,0,0,0, ,-40,422.8,903.9,-1.3,-0.5,-1.8,25,-40.2841,423.445,905.296,-0.775488,-0.330996,-1.39418,
2026_07_06_21_52_03.234,3.871,32.7,0,0.76,0,0,0,0, ,0,0,0,0,0, ,-39.6,423,905.5,-0.7,-0.5,-1.7,25,-40.2546,423.412,905.26,-0.789169,-0.341294,-1.41586,
2026_07_06_21_52_03.253,3.871,32.6,0,0.764,0,0,0,0, ,0,0,0,0,0, ,-38.3,422.9,905.5,-0.5,-0.4,-1.7,25,-40.1751,423.384,905.275,-0.777642,-0.347919,-1.43317,
2026_07_06_21_52_03.275,3.871,32.6,0,0.761,0,0,0,0, ,0,0,0,0,0, ,-38.4,423,905,-0.2,-0.5,-1.7,25,-40.0639,423.358,905.273,-0.751582,-0.354139,-1.44943,
2026_07_06_21_52_03.293,3.871,32.6,0,0.762,0,0,0,0, ,0,0,0,0,0, ,-40.6,424,906,-0.5,-0.5,-1.7,25,-40.0295,423.366,905.287,-0.727111,-0.363028,-1.4647,
2026_07_06_21_52_03.313,3.871,32.6,0,0.763,0,0,0,0, ,0,0,0,0,0, ,-40.4,422.8,905.7,-1,-0.6,-1.7,25,-40.0582,423.368,905.321,-0.728506,-0.374421,-1.47904,
2026_07_06_21_52_03.332,3.871,32.6,0,0.762,0,0,0,0, ,0,0,0,0,0, ,-41,422.8,905.1,-1,-0.5,-1.6,25,-40.0973,423.334,905.326,-0.74505,-0.385121,-1.48946,
2026_07_06_21_52_03.354,3.871,32.7,0,0.762,0,0,0,0, ,0,0,0,0,0, ,-39.7,439,901.4,-11.1,-0.7,-2,25,-40.1127,423.795,905.2,-1.06832,-0.398215,-1.50838,
2026_07_06_21_52_03.371,3.871,32.6,0,0.761,0,0,0,0, ,0,0,0,0,0, ,-37.1,426.5,907.2,-7.4,-0.9,-2.5,25,-40.0083,424.34,905.145,-1.56689,-0.422699,-1.55357,
2026_07_06_21_52_03.393,3.871,32.7,0,0.762,0,0,0,0, ,0,0,0,0,0, ,-17.4,421.2,909.7,-18.3,-2.7,-6.8,25,-39.2309,424.311,905.346,-2.25446,-0.506628,-1.74226,
2026_07_06_21_52_03.411,3.871,32.6,0,0.761,0,0,0,0, ,0,0,0,0,0, ,-46,401.2,910,-11.5,-4.4,-10.3,25,-38.772,423.512,905.621,-3.02504,-0.692083,-2.15711,
2026_07_06_21_52_03.433,3.871,32.6,0,0.761,0,0,0,0, ,0,0,0,0,0, ,-49.3,389.8,918,-5.3,-2.7,-6.5,25,-39.313,421.805,906.131,-3.35258,-0.866238,-2.53754,
2026_07_06_21_52_03.451,3.871,32.6,0,0.76,0,0,0,0, ,0,0,0,0,0, ,-38.8,399.1,917.9,-2.1,-1.5,-3.7,25,-39.6016,420.138,906.851,-3.37375,-0.94142,-2.69369,
2026_07_06_21_52_03.473,3.871,32.6,0,0.76,0,0,0,0, ,0,0,0,0,0, ,-39.1,401.2,915.1,0,-0.5,-1.7,25,-39.5619,418.92,907.439,-3.23215,-0.94499,-2.69407,
2026_07_06_21_52_03.491,3.871,32.6,0,0.762,0,0,0,0, ,0,0,0,0,0, ,-39.4,404.4,914.5,3.2,-0.5,-1.6,25,-39.5429,417.937,907.888,-2.93769,-0.917873,-2.63045,
2026_07_06_21_52_03.513,3.871,32.6,0,0.761,0,0,0,0, ,0,0,0,0,0, ,-43.2,395,915.7,17.2,-0.1,-0.9,25,-39.65,416.826,908.327,-2.13711,-0.880222,-2.54633,
2026_07_06_21_52_03.530,3.871,32.6,0,0.76,0,0,0,0, ,0,0,0,0,0, ,-184.8,391.3,917.2,22.9,3.4,7.1,25,-44.1807,415.383,908.822,-0.785083,-0.726036,-2.20225,
2026_07_06_21_52_03.552,3.871,32.7,0,0.761,0,0,0,0, ,0,0,0,0,0, ,-101.5,413.9,907.1,32.3,-0.5,-1.5,25,-50.2116,414.604,909.025,0.944632,-0.593434,-1.89743,
2026_07_06_21_52_03.569,3.871,32.6,0,0.761,0,0,0,0, ,0,0,0,0,0, ,-40.7,484.4,893.7,23.3,0,-1,25,-51.4845,416.709,908.5,2.58113,-0.572506,-1.85798,
2026_07_06_21_52_03.590,3.871,32.6,0,0.762,0,0,0,0, ,0,0,0,0,0, ,-41.7,420.1,912.9,3.8,0,-0.9,25,-50.8578,418.875,908.183,3.24955,-0.537619,-1.80265,
2026_07_06_21_52_03.609,3.871,32.6,0,0.762,0,0,0,0, ,0,0,0,0,0, ,-8.1,410.4,921.3,-0.9,-3.1,-5.1,25,-49.276,418.654,908.726,3.13989,-0.599311,-1.87561,
2026_07_06_21_52_03.631,3.871,32.6,0,0.762,0,0,0,0, ,0,0,0,0,0, ,70,369.2,1039.5,20.2,-43.1,-62.5,25,-44.3872,416.896,913.094,3.5366,-1.97045,-3.821,
2026_07_06_21_52_03.649,3.871,32.6,0,0.761,0,0,0,0, ,0,0,0,0,0, ,-54.9,643,934.8,30.3,-57.7,-65.9,25,-41.2223,422.332,917.607,4.85976,-4.92162,-7.50035,
2026_07_06_21_52_03.670,3.871,32.6,0,0.762,0,0,0,0, ,0,0,0,0,0, ,-46.7,568.2,904.6,14.8,-57.3,-25,25,-41.8059,433.5,917.734,5.93776,-8.12562,-9.8129,
2026_07_06_21_52_03.688,3.871,32.6,0,0.762,0,0,0,0, ,0,0,0,0,0, ,-29.5,502.5,923.3,-2.4,-53.2,1.3,25,-41.5801,439.706,917.504,5.95374,-10.9973,-9.93704,
2026_07_06_21_52_03.710,3.871,32.5,0,0.762,0,0,0,0, ,0,0,0,0,0, ,-26.7,465.5,936,-14.4,-63.8,-1.9,25,-40.7587,442.405,918.244,5.07906,-13.892,-9.34978,
2026_07_06_21_52_03.728,3.871,32.7,0,0.762,0,0,0,0, ,0,0,0,0,0, ,52.6,486.9,896.9,-18.1,-68.7,0.3,25,-37.4858,444.465,918.134,3.77932,-17.0825,-8.82878,
2026_07_06_21_52_03.750,3.871,32.6,0,0.761,0,0,0,0, ,0,0,0,0,0, ,87.6,513.5,894.7,-22.6,-72.5,4.9,25,-30.9298,447.861,916.773,2.30894,-20.3437,-8.13234,
2026_07_06_21_52_03.768,3.871,32.6,0,0.761,0,0,0,0, ,0,0,0,0,0, ,169,473.9,901.1,-27.5,-75.3,12,25,-21.2267,450.654,915.623,0.641751,-23.6073,-7.12185,
2026_07_06_21_52_03.791,3.871,32.6,0,0.763,0,0,0,0, ,0,0,0,0,0, ,142.7,467.2,890.3,-29.7,-83.1,13.2,25,-10.4361,451.867,914.409,-1.14017,-26.995,-5.92005,
2026_07_06_21_52_03.808,3.871,32.6,0,0.763,0,0,0,0, ,0,0,0,0,0, ,101.4,439,877.6,-31.3,-85.8,9.5,25,-2.36274,451.942,912.553,-2.92928,-30.4962,-4.86766,
2026_07_06_21_52_03.829,3.871,32.7,0,0.762,0,0,0,0, ,0,0,0,0,0, ,117,432.3,831.5,-18.2,-75.4,13,25,4.43561,450.949,909.019,-4.25898,-33.5494,-3.88549,
2026_07_06_21_52_03.847,3.871,32.6,0,0.762,0,0,0,0, ,0,0,0,0,0, ,157.7,378.7,823.3,-17,-60.5,14.2,25,12.5351,448.18,904.045,-5.07195,-35.6457,-2.81997,
2026_07_06_21_52_03.870,3.871,32.7,0,0.762,0,0,0,0, ,0,0,0,0,0, ,218.9,401.9,862.4,-14.4,-50.6,12,25,23.2458,444.653,900.316,-5.7196,-36.8586,-1.84984,
2026_07_06_21_52_03.892,3.871,32.7,0,0.762,0,0,0,0, ,0,0,0,0,0, ,225.5,458.1,947.3,-7,-50.4,16.4,25,35.3695,443.76,900.592,-6.02309,-37.6899,-0.871807,
2026_07_06_21_52_03.916,3.871,32.6,0,0.757,0,0,0,0, ,0,0,0,0,0, ,231.5,423.8,933.1,-0.3,-60.5,25.5,25,47.1384,443.588,903.006,-5.87848,-38.7721,0.457959,
2026_07_06_21_52_03.926,3.871,32.6,0,0.76,0,0,0,0, ,0,0,0,0,0, ,285.8,409.5,896.9,-9.2,-86.9,32.3,25,60.0274,441.947,903.737,-5.80971,-40.9005,2.19115,
2026_07_06_21_52_03.949,3.871,32.6,0,0.762,0,0,0,0, ,0,0,0,0,0, ,340.3,363.2,773.9,-7.3,-74.5,34.4,25,75.446,438.559,899.572,-5.95842,-43.3258,4.08989,
2026_07_06_21_52_03.966,3.871,32.6,0,0.76,0,0,0,0, ,0,0,0,0,0, ,314.9,360.1,857.7,-10.8,-62.2,34.8,25,90.8116,433.872,894.468,-6.14681,-44.8507,5.9491,
2026_07_06_21_52_03.989,3.871,32.7,0,0.762,0,0,0,0, ,0,0,0,0,0, ,321.8,350.4,866.9,-15.4,-51.4,29.7,25,104.677,429.081,892.507,-6.57052,-45.5789,7.55181,
2026_07_06_21_52_04.006,3.871,32.5,0,0.76,0,0,0,0, ,0,0,0,0,0, ,342.4,372.6,877.6,-23,-23,22.9,25,118.536,424.963,891.273,-7.34013,-45.0683,8.69428,
2026_07_06_21_52_04.028,3.871,32.7,0,0.759,0,0,0,0, ,0,0,0,0,0, ,344.8,378.4,854.2,-18.9,-6.5,18,25,132.251,421.949,889.727,-8.16948,-43.2208,9.41064,
2026_07_06_21_52_04.046,3.871,32.7,0,0.762,0,0,0,0, ,0,0,0,0,0, ,333.4,343.5,837.5,-16.4,-15.7,14.6,25,144.856,418.232,887.053,-8.7472,-41.2634,9.83046,
2026_07_06_21_52_04.068,3.871,32.7,0,0.762,0,0,0,0, ,0,0,0,0,0, ,332.6,329.7,847.4,-11.6,-35.8,17,25,156.321,413.257,884.335,-9.06729,-40.3181,10.1942,
2026_07_06_21_52_04.085,3.871,32.7,0,0.76,0,0,0,0, ,0,0,0,0,0, ,392.8,327.6,854.6,-13.7,-46.1,18.3,25,168.897,408.102,882.304,-9.28561,-40.3566,10.6486,
2026_07_06_21_52_04.109,3.871,32.6,0,0.762,0,0,0,0, ,0,0,0,0,0, ,398.4,327.3,822.2,-14.5,-40.5,19.4,25,182.712,403.187,879.628,-9.57899,-40.5359,11.1483,
2026_07_06_21_52_04.130,3.871,32.7,0,0.762,0,0,0,0, ,0,0,0,0,0, ,387.2,293,799.8,-9.4,-34,13.5,25,195.514,397.517,875.446,-9.72347,-40.3357,11.4714,
2026_07_06_21_52_04.153,3.871,32.6,0,0.76,0,0,0,0, ,0,0,0,0,0, ,386.4,310.7,828.6,-7.8,-30.3,8,25,207.17,391.688,871.714,-9.65501,-39.8369,11.4274,
2026_07_06_21_52_04.164,3.871,32.6,0,0.762,0,0,0,0, ,0,0,0,0,0, ,451.9,336.9,880.6,-9.4,-34.5,5.2,25,220.088,387.551,870.671,-9.59072,-39.3837,11.1333,
2026_07_06_21_52_04.188,3.871,32.7,0,0.76,0,0,0,0, ,0,0,0,0,0, ,458,336.6,854.1,-10.1,-46.4,13.2,25,234.4,384.455,870.469,-9.60043,-39.4487,11.0155,
2026_07_06_21_52_04.204,3.871,32.6,0,0.762,0,0,0,0, ,0,0,0,0,0, ,469.6,311.4,825.3,-10.4,-63.8,17.2,25,248.379,380.771,868.594,-9.64001,-40.4024,11.2705,
2026_07_06_21_52_04.226,3.871,32.6,0,0.76,0,0,0,0, ,0,0,0,0,0, ,487.4,288.9,798.8,-13,-73.2,17.3,25,262.402,375.858,865.148,-9.76554,-42.1146,11.6348,
2026_07_06_21_52_04.243,3.871,32.6,0,0.762,0,0,0,0, ,0,0,0,0,0, ,524.1,268,843.1,-5.6,-65.1,14.8,25,277.231,369.922,862.455,-9.73717,-43.7621,11.9039,
2026_07_06_21_52_04.267,3.871,32.6,0,0.762,0,0,0,0, ,0,0,0,0,0, ,528.1,263.5,839.8,-11.1,-58.3,0,25,292.396,363.574,861.175,-9.65264,-44.8552,11.6294,
2026_07_06_21_52_04.283,3.871,32.7,0,0.76,0,0,0,0, ,0,0,0,0,0, ,524,294.5,794,-19.3,-61.3,-8.9,25,306.635,358.421,858.477,-9.99068,-45.7659,10.6496,
2026_07_06_21_52_04.305,3.871,32.6,0,0.762,0,0,0,0, ,0,0,0,0,0, ,553.7,298.3,755.2,-17.8,-71.8,-9.8,25,320.785,354.641,853.366,-10.5123,-47.0324,9.43087,
2026_07_06_21_52_04.323,3.871,32.6,0,0.76,0,0,0,0, ,0,0,0,0,0, ,543.4,273,758.4,-17.6,-77.9,-4.5,25,334.665,350.437,847.481,-10.9503,-48.7276,8.42047,
2026_07_06_21_52_04.346,3.871,32.7,0,0.762,0,0,0,0, ,0,0,0,0,0, ,571.7,256.2,718.1,-17.3,-77.7,-7,25,348.247,345.206,840.825,-11.3463,-50.4992,7.55696,
2026_07_06_21_52_04.363,3.871,32.6,0,0.76,0,0,0,0, ,0,0,0,0,0, ,609.3,236.9,722.9,-26,-77.7,-17.1,25,363.009,339.195,833.493,-11.9742,-52.1567,6.36216,
2026_07_06_21_52_04.385,3.871,32.7,0,0.762,0,0,0,0, ,0,0,0,0,0, ,641.1,277,754.8,-25.8,-78.9,-30.7,25,378.986,334.183,827.725,-12.8228,-53.7498,4.51806,
2026_07_06_21_52_04.403,3.871,32.7,0,0.762,0,0,0,0, ,0,0,0,0,0, ,667.6,312.9,723,-18.8,-83.4,-20.8,25,395.766,331.792,822.312,-13.4003,-55.4195,2.6736,
2026_07_06_21_52_04.426,3.871,32.7,0,0.76,0,0,0,0, ,0,0,0,0,0, ,607,300.7,657.3,-9,-96.5,-2.5,25,410.485,330.269,814.259,-13.4308,-57.5237,1.80076,
2026_07_06_21_52_04.442,3.871,32.6,0,0.762,0,0,0,0, ,0,0,0,0,0, ,662.4,215.8,630.4,-11,-109,2.6,25,424.148,325.88,803.875,-13.2217,-60.2797,1.69407,
2026_07_06_21_52_04.464,3.871,32.7,0,0.762,0,0,0,0, ,0,0,0,0,0, ,708.2,214.2,642.8,-23.7,-98.6,-21,25,440.062,319.124,793.681,-13.4733,-62.9317,1.03021,
2026_07_06_21_52_04.482,3.871,32.7,0,0.762,0,0,0,0, ,0,0,0,0,0, ,764.6,274.5,621.7,-29.8,-82.5,-41.4,25,458.12,314.567,783.844,-14.2823,-64.6147,-0.933817,
2026_07_06_21_52_04.507,3.871,32.6,0,0.76,0,0,0,0, ,0,0,0,0,0, ,745.8,317,566.7,-22.2,-86.3,-36.5,25,476.223,313.42,772.288,-14.9964,-65.8204,-3.25043,
2026_07_06_21_52_04.522,3.871,32.7,0,0.762,0,0,0,0, ,0,0,0,0,0, ,700,260.1,526.6,-14.8,-96.2,-18.1,25,491.255,311.905,758.538,-15.2099,-67.37,-4.71595,
2026_07_06_21_52_04.545,3.871,32.7,0,0.762,0,0,0,0, ,0,0,0,0,0, ,737.5,410.6,406.3,-22.6,-80.5,-18.7,25,505.118,313.334,740.739,-15.4226,-68.6485,-5.54982,
2026_07_06_21_52_04.560,3.871,32.7,0,0.762,0,0,0,0, ,0,0,0,0,0, ,904.1,190.3,621.4,-24.4,-43.4,-3.4,25,524.355,312.549,726.913,-15.9148,-68.2403,-5.88499,
2026_07_06_21_52_04.584,3.871,32.8,0,0.759,0,0,0,0, ,0,0,0,0,0, ,815.1,404.2,462.8,-16,-50.1,-3.7,25,544.784,311.616,715.651,-16.1759,-66.9307,-5.7427,
2026_07_06_21_52_04.600,3.871,32.7,0,0.76,0,0,0,0, ,0,0,0,0,0, ,748.2,37.9,513.9,-26.3,-65.2,-3.1,25,559.218,306.097,701.8,-16.479,-66.3652,-5.59994,
2026_07_06_21_52_04.624,3.871,32.7,0,0.762,0,0,0,0, ,0,0,0,0,0, ,711.1,299.8,540.1,-6.1,-69.3,-18.1,25,569.604,297.734,691.148,-16.462,-66.4191,-5.90463,
2026_07_06_21_52_04.640,3.871,32.6,0,0.76,0,0,0,0, ,0,0,0,0,0, ,946.8,287.7,439.8,-5.1,-48.8,-4.8,25,585.408,297.491,678.887,-15.8001,-65.97,-6.24255,
2026_07_06_21_52_04.664,3.871,32.5,0,0.76,0,0,0,0, ,0,0,0,0,0, ,829.2,240.7,465.8,-17.6,-41.9,-6.4,25,603.847,295.462,665.11,-15.5289,-64.7135,-6.2034,
2026_07_06_21_52_04.680,3.871,32.6,0,0.76,0,0,0,0, ,0,0,0,0,0, ,630.2,333.4,402,-6.8,-51.7,-18.6,25,611.516,294.95,651.021,-15.3261,-63.6219,-6.5871,
2026_07_06_21_52_04.703,3.871,32.6,0,0.76,0,0,0,0, ,0,0,0,0,0, ,914.9,262.2,339.1,30,-83,-19.9,25,621.329,295.123,633.929,-13.6853,-63.8491,-7.35874,
2026_07_06_21_52_04.719,3.871,32.6,0,0.762,0,0,0,0, ,0,0,0,0,0, ,915.8,289,399.7,27.3,-104.2,-10.1,25,639.246,293.934,617.81,-11.1055,-65.662,-7.82438,
2026_07_06_21_52_04.743,3.871,32.5,0,0.76,0,0,0,0, ,0,0,0,0,0, ,903,323.8,407.2,22.4,-123.8,0,25,655.708,294.693,604.747,-8.91443,-68.6076,-7.65532,
2026_07_06_21_52_04.759,3.871,32.7,0,0.762,0,0,0,0, ,0,0,0,0,0, ,1004.3,310.5,231.5,18.4,-60.9,19.2,25,673.864,296.062,587.356,-7.12808,-70.0544,-6.60382,
2026_07_06_21_52_04.783,3.871,32.7,0,0.762,0,0,0,0, ,0,0,0,0,0, ,944.4,207.2,344.3,7.5,56.7,18.6,25,692.175,293.794,569.108,-5.90458,-65.9134,-5.04968,
2026_07_06_21_52_04.799,3.871,32.7,0,0.76,0,0,0,0, ,0,0,0,0,0, ,792.4,304.9,477.5,12.3,51.6,1.8,25,702.914,291.494,559.467,-4.94148,-58.5971,-4.12041,
2026_07_06_21_52_04.823,3.871,32.7,0,0.762,0,0,0,0, ,0,0,0,0,0, ,912.8,291.8,420,0.7,-9,27.6,25,712.035,291.912,552.72,-4.24427,-53.7284,-2.97354,
2026_07_06_21_52_04.838,3.871,32.7,0,0.76,0,0,0,0, ,0,0,0,0,0, ,951.1,242.5,272.5,4.2,-15.2,22.9,25,725.436,290.403,540.138,-3.83634,-51.1916,-1.25367,
2026_07_06_21_52_04.862,3.871,32.7,0,0.76,0,0,0,0, ,0,0,0,0,0, ,795,229.4,318.3,11.3,-8.9,12,25,734.432,287.085,525.225,-3.13029,-48.8064,-0.113911,
2026_07_06_21_52_04.882,3.871,32.7,0,0.76,0,0,0,0, ,0,0,0,0,0, ,836,267.3,323.8,11.1,-29.6,-2.5,25,739.372,284.724,512.783,-2.25704,-47.0053,0.182484,
2026_07_06_21_52_04.906,3.871,32.5,0,0.762,0,0,0,0, ,0,0,0,0,0, ,912.2,291.2,344.6,6.5,-42.1,8.7,25,747.582,284.391,501.9,-1.58325,-46.3256,0.36027,
2026_07_06_21_52_04.918,3.871,32.7,0,0.762,0,0,0,0, ,0,0,0,0,0, ,906.1,357.5,347.9,5.3,-68.5,17.3,25,757.427,286.826,492.415,-1.12724,-46.8724,1.1305,
2026_07_06_21_52_04.941,3.871,32.6,0,0.762,0,0,0,0, ,0,0,0,0,0, ,833.4,312,301.2,-4.6,-81,52.7,25,764.272,289.746,482.186,-1.03722,-48.5712,3.19443,
2026_07_06_21_52_04.957,3.871,32.6,0,0.762,0,0,0,0, ,0,0,0,0,0, ,962.5,146.1,271.9,-0.3,-75.3,49.5,25,772.418,286.048,470.265,-1.12331,-50.3737,6.11367,
2026_07_06_21_52_04.982,3.871,32.7,0,0.76,0,0,0,0, ,0,0,0,0,0, ,1141.6,196.4,326.5,0,-37.3,15.9,25,789.458,279.052,459.84,-1.064,-50.7348,7.73378,
2026_07_06_21_52_04.996,3.871,32.7,0,0.76,0,0,0,0, ,0,0,0,0,0, ,942.8,218.2,259.2,-1.1,-4,-1.3,25,804.859,274.68,449.664,-1.03268,-48.9015,7.70734,
2026_07_06_21_52_05.019,3.871,32.6,0,0.762,0,0,0,0, ,0,0,0,0,0, ,942.1,217.1,238.7,1.5,-7.3,0.5,25,813.244,271.204,437.433,-0.957565,-46.2659,7.2133,
2026_07_06_21_52_05.036,3.871,32.6,0,0.762,0,0,0,0, ,0,0,0,0,0, ,945.4,249,266.2,0.5,-20,7.6,25,821.197,268.879,426.161,-0.838276,-44.2784,7.02054,
2026_07_06_21_52_05.061,3.871,32.6,0,0.762,0,0,0,0, ,0,0,0,0,0, ,936.2,203.9,240.4,0.2,-15.8,6.1,25,828.485,266.294,415.627,-0.765865,-42.6709,7.01015,
2026_07_06_21_52_05.076,3.871,32.6,0,0.763,0,0,0,0, ,0,0,0,0,0, ,942.3,220.7,237.7,2.7,-22.6,6,25,835.235,263.004,404.867,-0.630836,-41.2407,6.95164,
2026_07_06_21_52_05.099,3.871,32.7,0,0.761,0,0,0,0, ,0,0,0,0,0, ,954.5,194.5,201.2,4,-29.8,9,25,842.131,259.627,393.568,-0.388254,-40.3241,6.98505,
2026_07_06_21_52_05.116,3.871,32.6,0,0.76,0,0,0,0, ,0,0,0,0,0, ,936,191.1,184.3,3.5,-25.4,4.3,25,848.415,255.555,381.331,-0.136079,-39.5487,6.96464,
2026_07_06_21_52_05.140,3.871,32.6,0,0.76,0,0,0,0, ,0,0,0,0,0, ,978.1,219.3,227.1,0,-12.9,4.7,25,855.034,252.487,370.628,-0.0211459,-38.3057,6.81445,
2026_07_06_21_52_05.155,3.871,32.6,0,0.761,0,0,0,0, ,0,0,0,0,0, ,948.3,200.1,218.2,0.9,-11.4,6.5,25,861.626,249.879,361.611,0.00756454,-36.7118,6.74044,
2026_07_06_21_52_05.179,3.871,32.6,0,0.762,0,0,0,0, ,0,0,0,0,0, ,947.8,224.1,203.6,3.1,-14.4,9.3,25,866.892,247.577,352.427,0.128979,-35.2608,6.8111,
2026_07_06_21_52_05.194,3.871,32.6,0,0.761,0,0,0,0, ,0,0,0,0,0, ,954.2,170.7,199.9,2.5,-16,10.6,25,872.018,244.519,343.245,0.291744,-34.0383,7.00238,
2026_07_06_21_52_05.219,3.871,32.5,0,0.759,0,0,0,0, ,0,0,0,0,0, ,954.3,169.7,191,-2.4,-21.2,3,25,877.029,239.991,334.239,0.277013,-33.0976,6.99005,
2026_07_06_21_52_05.234,3.871,32.6,0,0.761,0,0,0,0, ,0,0,0,0,0, ,958.4,184.2,179.9,-2.5,-21.8,2.4,25,881.862,236.149,325.172,0.110835,-32.3908,6.72862,
2026_07_06_21_52_05.259,3.871,32.6,0,0.762,0,0,0,0, ,0,0,0,0,0, ,953.7,207,182.9,1.5,-23.3,4.3,25,886.383,233.678,316.411,0.0736125,-31.7912,6.52274,
2026_07_06_21_52_05.274,3.871,32.5,0,0.763,0,0,0,0, ,0,0,0,0,0, ,962.8,169,152.8,6.3,-22.7,14.1,25,890.762,230.895,307.358,0.306783,-31.2555,6.68588,
2026_07_06_21_52_05.298,3.871,32.5,0,0.762,0,0,0,0, ,0,0,0,0,0, ,966.1,140.6,161.3,0.5,-25.3,5.6,25,895.253,226.258,298.199,0.495276,-30.8133,6.8787,
2026_07_06_21_52_05.314,3.871,32.6,0,0.761,0,0,0,0, ,0,0,0,0,0, ,959.4,179.4,163.6,-1,-28.7,2.7,25,899.366,222.22,289.926,0.449861,-30.581,6.71242,
2026_07_06_21_52_05.338,3.871,32.6,0,0.761,0,0,0,0, ,0,0,0,0,0, ,964.8,181.2,143.5,0.6,-32.1,3.6,25,903.189,219.666,281.616,0.41026,-30.5699,6.49533,
2026_07_06_21_52_05.354,3.871,32.6,0,0.761,0,0,0,0, ,0,0,0,0,0, ,967.2,177.3,115.9,0.8,-33,4.3,25,907.016,217.203,272.359,0.427916,-30.6906,6.34023,
2026_07_06_21_52_05.378,3.871,32.6,0,0.76,0,0,0,0, ,0,0,0,0,0, ,969.1,174.4,111.3,0,-33,4.4,25,910.742,214.683,262.684,0.426215,-30.8313,6.21895,
2026_07_06_21_52_05.393,3.871,32.5,0,0.762,0,0,0,0, ,0,0,0,0,0, ,969.9,204.5,66.1,1.5,-31.2,6.9,25,914.322,213.145,252.082,0.445945,-30.9086,6.18428,
2026_07_06_21_52_05.417,3.871,32.7,0,0.762,0,0,0,0, ,0,0,0,0,0, ,978,168.9,61.6,2.2,-25.2,11.2,25,917.956,211.534,240.612,0.531505,-30.7436,6.35891,
2026_07_06_21_52_05.432,3.871,32.6,0,0.762,0,0,0,0, ,0,0,0,0,0, ,971,179.8,78.3,3.1,-25,13.1,25,921.401,209.268,230.212,0.660601,-30.3997,6.7118,
2026_07_06_21_52_05.457,3.871,32.5,0,0.762,0,0,0,0, ,0,0,0,0,0, ,975.2,165.2,58.3,1.1,-24.6,14.2,25,924.552,207.027,220.345,0.748314,-30.0584,7.1346,
2026_07_06_21_52_05.472,3.871,32.7,0,0.762,0,0,0,0, ,0,0,0,0,0, ,977.2,154.4,56.3,-0.7,-22,13.5,25,927.699,204.149,210.41,0.714901,-29.6466,7.54382,
2026_07_06_21_52_05.496,3.871,32.5,0,0.762,0,0,0,0, ,0,0,0,0,0, ,976.6,146.6,56.8,3.3,-18,18.3,25,930.697,200.88,201.034,0.750556,-29.0588,8.05302,
2026_07_06_21_52_05.512,3.871,32.6,0,0.761,0,0,0,0, ,0,0,0,0,0, ,973.1,182.2,40.8,12.2,-19,22.7,25,933.388,198.657,191.757,1.17708,-28.4153,8.81151,
2026_07_06_21_52_05.537,3.871,32.6,0,0.761,0,0,0,0, ,0,0,0,0,0, ,985.8,117,24.4,2.7,-19.1,23.4,25,936.195,195.668,182.059,1.55934,-27.8446,9.67917,
2026_07_06_21_52_05.551,3.871,32.6,0,0.761,0,0,0,0, ,0,0,0,0,0, ,985.5,117.5,5.7,-1,-14.1,22.9,25,939.208,190.889,171.882,1.51611,-27.1594,10.5,
2026_07_06_21_52_05.575,3.871,32.6,0,0.762,0,0,0,0, ,0,0,0,0,0, ,982.5,141.2,9.2,0.6,-8.1,24.7,25,941.938,187.139,161.861,1.41154,-26.1808,11.3105,
2026_07_06_21_52_05.591,3.871,32.6,0,0.761,0,0,0,0, ,0,0,0,0,0, ,985.4,105.1,13.6,3.9,-4.2,28.5,25,944.498,183.24,152.693,1.46263,-24.9602,12.2422,
2026_07_06_21_52_05.617,3.871,32.6,0,0.76,0,0,0,0, ,0,0,0,0,0, ,990.4,87.8,-13.1,0.3,0.9,28.4,25,947.143,177.951,143.403,1.50147,-23.5397,13.2299,
2026_07_06_21_52_05.630,3.871,32.6,0,0.762,0,0,0,0, ,0,0,0,0,0, ,986.3,90.3,26.3,-0.7,6.5,29,25,949.654,172.534,135.067,1.39779,-21.8798,14.1726,
2026_07_06_21_52_05.655,3.871,32.6,0,0.763,0,0,0,0, ,0,0,0,0,0, ,985.3,73.8,49.3,-2.7,5.8,29.9,25,951.857,167.02,129.14,1.20902,-20.1717,15.1036,
2026_07_06_21_52_05.671,3.871,32.6,0,0.761,0,0,0,0, ,0,0,0,0,0, ,981.5,79.5,65.7,-0.2,1.8,32.2,25,953.779,161.513,124.774,1.04698,-18.7109,16.0753,
2026_07_06_21_52_05.696,3.871,32.6,0,0.762,0,0,0,0, ,0,0,0,0,0, ,982.9,49.6,64.3,1.4,-2.8,34.6,25,955.511,155.604,121.132,1.01975,-17.6012,17.131,
2026_07_06_21_52_05.710,3.871,32.6,0,0.761,0,0,0,0, ,0,0,0,0,0, ,989.2,15.8,48,-1.7,-6.9,34.2,25,957.372,148.115,117.172,0.948464,-16.8242,18.1833,
2026_07_06_21_52_05.734,3.871,32.6,0,0.762,0,0,0,0, ,0,0,0,0,0, ,993.5,-2.4,32.7,-5.2,-7.8,30.5,25,959.442,139.497,112.49,0.680433,-16.2469,19.0466,
2026_07_06_21_52_05.750,3.871,32.7,0,0.762,0,0,0,0, ,0,0,0,0,0, ,1012.4,-207.7,25,-2.1,-2.8,10.3,25,962.093,124.595,107.394,0.416547,-15.5798,19.1291,
2026_07_06_21_52_05.775,3.871,32.6,0,0.761,0,0,0,0, ,0,0,0,0,0, ,992,15,35.1,-10.9,-2.4,3,25,964.537,111.131,102.68,-0.00493009,-14.7888,18.3687,
2026_07_06_21_52_05.790,3.871,32.6,0,0.761,0,0,0,0, ,0,0,0,0,0, ,993.4,-28.9,4.3,-15.6,-2,-0.6,25,966.254,103.936,97.6239,-0.812051,-14.0217,17.3224,
2026_07_06_21_52_05.815,3.871,32.6,0,0.762,0,0,0,0, ,0,0,0,0,0, ,990.6,-9.1,23.8,-6.7,-1,-2.3,25,967.823,96.4443,92.5311,-1.44202,-13.2587,16.1785,
2026_07_06_21_52_05.829,3.871,32.6,0,0.76,0,0,0,0, ,0,0,0,0,0, ,990.9,5.4,26.6,-0.5,-0.9,-2.9,25,969.22,90.4545,88.4281,-1.57352,-12.5086,15.0342,
2026_07_06_21_52_05.855,3.871,32.6,0,0.763,0,0,0,0, ,0,0,0,0,0, ,991,-3.1,14.1,-2.3,-0.4,-4,25,970.544,85.0125,84.2796,-1.56295,-11.786,13.9078,
2026_07_06_21_52_05.869,3.871,32.6,0,0.762,0,0,0,0, ,0,0,0,0,0, ,991.4,-2.1,47.2,-6.5,1.1,-6.9,25,971.803,79.6736,81.0115,-1.73583,-11.0464,12.7282,
2026_07_06_21_52_05.895,3.871,32.6,0,0.758,0,0,0,0, ,0,0,0,0,0, ,990.4,6.3,39.6,-0.9,-1.5,-1.7,25,972.966,74.9465,78.7196,-1.85552,-10.3855,11.6905,
2026_07_06_21_52_05.908,3.871,32.6,0,0.761,0,0,0,0, ,0,0,0,0,0, ,993.2,14.7,20.3,-2.6,-0.1,-1.6,25,974.114,71.0193,75.7477,-1.84909,-9.80136,10.8776,
2026_07_06_21_52_05.934,3.871,32.6,0,0.761,0,0,0,0, ,0,0,0,0,0, ,990.9,12,32.3,-1.2,-0.8,-1.4,25,975.207,67.5051,72.7345,-1.85219,-9.23151,10.1233,
2026_07_06_21_52_05.947,3.871,32.6,0,0.762,0,0,0,0, ,0,0,0,0,0, ,992.6,10.1,29.7,-0.7,-0.2,-1.3,25,976.215,64.0648,70.1913,-1.79722,-8.69943,9.42417,
2026_07_06_21_52_05.973,3.871,32.5,0,0.762,0,0,0,0, ,0,0,0,0,0, ,991,9.5,30.7,-0.7,-0.3,-1.4,25,977.165,60.7581,67.7543,-1.73036,-8.18454,8.76762,
2026_07_06_21_52_05.992,3.871,32.6,0,0.76,0,0,0,0, ,0,0,0,0,0, ,992.4,10.2,31.2,-0.8,-0.1,-1.4,25,978.051,57.6559,65.5115,-1.67061,-7.69799,8.14803,
2026_07_06_21_52_06.018,3.871,32.5,0,0.761,0,0,0,0, ,0,0,0,0,0, ,990.3,6.8,29.5,-0.7,-0.2,-1.7,25,978.861,54.6604,63.3689,-1.61451,-7.23803,7.55706,
2026_07_06_21_52_06.027,3.871,32.7,0,0.76,0,0,0,0, ,0,0,0,0,0, ,992,9.5,31.4,-0.6,-0.3,-1.9,25,979.61,51.8262,61.3629,-1.55574,-6.8122,6.98686,
2026_07_06_21_52_06.052,3.871,32.6,0,0.762,0,0,0,0, ,0,0,0,0,0, ,991.8,11.9,34.5,-0.5,-0.4,-2.1,25,980.359,49.3201,59.6315,-1.49445,-6.41841,6.43923,
2026_07_06_21_52_06.068,3.871,32.7,0,0.763,0,0,0,0, ,0,0,0,0,0, ,990.2,11.3,32.5,-0.5,-0.7,-1.9,25,981.007,47.0215,58.0391,-1.43385,-6.0608,5.92496,
2026_07_06_21_52_06.094,3.871,32.6,0,0.761,0,0,0,0, ,0,0,0,0,0, ,990.6,10.6,29,-0.5,-0.4,-1.9,25,981.58,44.8234,56.3762,-1.37695,-5.72499,5.44813,
2026_07_06_21_52_06.107,3.871,32.6,0,0.761,0,0,0,0, ,0,0,0,0,0, ,990.2,11.2,32.9,-0.5,-0.3,-2,25,982.117,42.7562,54.8268,-1.32351,-5.39745,4.9973,
2026_07_06_21_52_06.132,3.871,32.6,0,0.76,0,0,0,0, ,0,0,0,0,0, ,990.8,12.8,32.3,-0.6,-0.3,-1.8,25,982.628,40.882,53.4723,-1.27637,-5.08682,4.577,
2026_07_06_21_52_06.146,3.871,32.6,0,0.762,0,0,0,0, ,0,0,0,0,0, ,990.8,11.1,33.6,-0.5,-0.7,-1.6,25,983.126,39.1189,52.2217,-1.23211,-4.80731,4.1945,
2026_07_06_21_52_06.172,3.871,32.6,0,0.762,0,0,0,0, ,0,0,0,0,0, ,990.9,10.7,31.6,-0.5,-0.9,-1.5,25,983.597,37.3993,51.026,-1.1875,-4.56312,3.84444,
2026_07_06_21_52_06.185,3.871,32.6,0,0.762,0,0,0,0, ,0,0,0,0,0, ,990.1,10.7,29.2,-0.5,-0.9,-1.4,25,984.017,35.7724,49.7691,-1.1456,-4.3399,3.52181,
2026_07_06_21_52_06.212,3.871,32.6,0,0.762,0,0,0,0, ,0,0,0,0,0, ,991,11.2,32.5,-0.5,-0.6,-1.5,25,984.415,34.2597,48.6163,-1.10626,-4.12114,3.21884,
2026_07_06_21_52_06.225,3.871,32.6,0,0.761,0,0,0,0, ,0,0,0,0,0, ,991,12.3,33.6,-0.5,-0.8,-1.5,25,984.817,32.8881,47.6677,-1.06932,-3.91266,2.93129,
2026_07_06_21_52_06.252,3.871,32.5,0,0.761,0,0,0,0, ,0,0,0,0,0, ,992.3,9,31.6,-0.5,-0.6,-1.6,25,985.233,31.5329,46.7495,-1.03462,-3.71689,2.65821,
2026_07_06_21_52_06.265,3.871,32.6,0,0.76,0,0,0,0, ,0,0,0,0,0, ,990.3,11.7,32.2,-0.5,-0.6,-1.7,25,985.603,30.2421,45.8446,-1.00204,-3.52696,2.39568,
2026_07_06_21_52_06.291,3.871,32.6,0,0.763,0,0,0,0, ,0,0,0,0,0, ,991.8,11.4,32.4,-0.5,-0.8,-1.6,25,985.935,29.103,45.0192,-0.971451,-3.35469,2.14914,
2026_07_06_21_52_06.305,3.871,32.6,0,0.762,0,0,0,0, ,0,0,0,0,0, ,990.7,12.2,31.1,-0.5,-0.7,-1.3,25,986.259,28.0486,44.2106,-0.942722,-3.19596,1.92982,
2026_07_06_21_52_06.331,3.871,32.6,0,0.761,0,0,0,0, ,0,0,0,0,0, ,991.4,10.1,28.3,-0.5,-1,-1.4,25,986.551,27.0189,43.3264,-0.915744,-3.05301,1.72996,
2026_07_06_21_52_06.344,3.871,32.7,0,0.76,0,0,0,0, ,0,0,0,0,0, ,991.2,10.6,30.2,-0.5,-0.7,-1.6,25,986.84,26.0031,42.4686,-0.89041,-2.91876,1.53313,
2026_07_06_21_52_06.370,3.871,32.6,0,0.762,0,0,0,0, ,0,0,0,0,0, ,992.4,12.3,34,-0.5,-0.7,-1.6,25,987.142,25.1163,41.8368,-0.866619,-2.78356,1.34221,
2026_07_06_21_52_06.384,3.871,32.6,0,0.762,0,0,0,0, ,0,0,0,0,0, ,993,10.1,30.5,-0.4,-0.8,-1.4,25,987.481,24.2683,41.2526,-0.841231,-2.65964,1.16901,
2026_07_06_21_52_06.410,3.871,32.6,0,0.762,0,0,0,0, ,0,0,0,0,0, ,990.9,8.3,29,-0.5,-0.4,-1.8,25,987.753,23.35,40.5516,-0.817391,-2.53413,1.00027,
2026_07_06_21_52_06.423,3.871,32.6,0,0.761,0,0,0,0, ,0,0,0,0,0, ,992.4,9.8,27.3,-0.5,-0.4,-2,25,987.991,22.4786,39.7959,-0.79805,-2.40408,0.823537,
2026_07_06_21_52_06.449,3.871,32.6,0,0.761,0,0,0,0, ,0,0,0,0,0, ,992.4,11.1,30.6,-0.6,-0.3,-2,25,988.259,21.7456,39.135,-0.782934,-2.27891,0.651478,
2026_07_06_21_52_06.463,3.871,32.6,0,0.762,0,0,0,0, ,0,0,0,0,0, ,991.3,10.9,29.9,-0.5,-0.4,-1.7,25,988.478,21.0908,38.5936,-0.76874,-2.16137,0.499044,
2026_07_06_21_52_06.489,3.871,32.6,0,0.762,0,0,0,0, ,0,0,0,0,0, ,992,11.4,29.7,-0.5,-0.5,-1.8,25,988.671,20.4851,38.0577,-0.752363,-2.05708,0.361993,
2026_07_06_21_52_06.503,3.871,32.6,0,0.762,0,0,0,0, ,0,0,0,0,0, ,991,9.8,31.1,-0.6,-0.5,-1.8,25,988.844,19.8827,37.5911,-0.740032,-1.96219,0.230246,
2026_07_06_21_52_06.529,3.871,32.6,0,0.762,0,0,0,0, ,0,0,0,0,0, ,990.9,11.2,31.9,-0.5,-0.4,-1.9,25,988.972,19.3109,37.2199,-0.728452,-1.87005,0.103481,
2026_07_06_21_52_06.542,3.871,32.6,0,0.76,0,0,0,0, ,0,0,0,0,0, ,992.3,10.2,31.4,-0.5,-0.4,-1.8,25,989.132,18.7862,36.8805,-0.714531,-1.78046,-0.0155588,
2026_07_06_21_52_06.570,3.871,32.7,0,0.76,0,0,0,0, ,0,0,0,0,0, ,989.6,12.5,31.9,-0.5,-0.4,-1.6,25,989.243,18.3331,36.5617,-0.701458,-1.69634,-0.118204,
2026_07_06_21_52_06.585,3.871,32.6,0,0.76,0,0,0,0, ,0,0,0,0,0, ,989.8,7.4,36.7,-0.5,-1.3,-1.4,25,989.271,17.8222,36.4239,-0.689181,-1.64477,-0.202408,
2026_07_06_21_52_06.611,3.871,32.6,0,0.762,0,0,0,0, ,0,0,0,0,0, ,990.9,16.2,41.3,-0.8,-1.4,-0.9,25,989.337,17.4552,36.5809,-0.686794,-1.62681,-0.260152,
2026_07_06_21_52_06.622,3.871,32.6,0,0.762,0,0,0,0, ,0,0,0,0,0, ,990.9,12.5,29.9,-2.7,-3.7,-0.5,25,989.432,17.266,36.5211,-0.751583,-1.68306,-0.286955,
2026_07_06_21_52_06.648,3.871,32.6,0,0.76,0,0,0,0, ,0,0,0,0,0, ,991,5.9,23.6,-3.2,-2.3,-0.8,25,989.524,16.7745,35.9257,-0.885549,-1.76331,-0.309078,
2026_07_06_21_52_06.661,3.871,32.7,0,0.762,0,0,0,0, ,0,0,0,0,0, ,991,7.6,33.9,-2.8,-2.8,-1.2,25,989.614,16.1636,35.4884,-1.0144,-1.81125,-0.351181,
2026_07_06_21_52_06.687,3.871,32.6,0,0.76,0,0,0,0, ,0,0,0,0,0, ,990.2,6.4,11.5,-1.9,-1.7,-1.7,25,989.674,15.6052,34.7091,-1.09579,-1.83799,-0.41814,
2026_07_06_21_52_06.700,3.871,32.6,0,0.762,0,0,0,0, ,0,0,0,0,0, ,991.5,11.7,28.1,-0.7,1,-2,25,989.746,15.2058,33.8006,-1.10823,-1.74731,-0.505394,
2026_07_06_21_52_06.728,3.871,32.6,0,0.76,0,0,0,0, ,0,0,0,0,0, ,992.1,9.3,30.7,-0.8,0.3,-1.8,25,989.871,14.919,33.5324,-1.0864,-1.60123,-0.590378,
2026_07_06_21_52_06.740,3.871,32.6,0,0.76,0,0,0,0, ,0,0,0,0,0, ,992.5,7.4,27,-0.8,0.7,-2,25,990.019,14.5187,33.2471,-1.06895,-1.47318,-0.670183,
2026_07_06_21_52_06.768,3.871,32.6,0,0.762,0,0,0,0, ,0,0,0,0,0, ,990.3,9.8,33.4,-0.9,0.5,-2.1,25,990.103,14.158,33.0614,-1.05561,-1.34685,-0.754266,
2026_07_06_21_52_06.780,3.871,32.6,0,0.76,0,0,0,0, ,0,0,0,0,0, ,991.4,9.5,34,-0.7,-0.7,-2.2,25,990.149,13.8833,33.1003,-1.04003,-1.27087,-0.839318,
2026_07_06_21_52_06.807,3.871,32.6,0,0.76,0,0,0,0, ,0,0,0,0,0, ,991.6,13.3,30.2,-0.6,-0.7,-1.9,25,990.231,13.732,33.0394,-1.01626,-1.23608,-0.913094,
2026_07_06_21_52_06.820,3.871,32.6,0,0.762,0,0,0,0, ,0,0,0,0,0, ,991.5,9.3,20.5,-0.6,0,-1.7,25,990.312,13.5838,32.5708,-0.990897,-1.18209,-0.96714,
2026_07_06_21_52_06.846,3.871,32.5,0,0.762,0,0,0,0, ,0,0,0,0,0, ,990.1,9.6,31,-1,0.5,-1.9,25,990.341,13.3319,32.1552,-0.979264,-1.09482,-1.01789,
2026_07_06_21_52_06.859,3.871,32.6,0,0.762,0,0,0,0, ,0,0,0,0,0, ,991.6,8.5,38.6,-1.3,0.2,-2.1,25,990.372,13.071,32.3163,-0.989668,-1.00678,-1.07774,
2026_07_06_21_52_06.886,3.871,32.7,0,0.762,0,0,0,0, ,0,0,0,0,0, ,990.6,10.8,32.2,-1.2,-0.8,-2.1,25,990.417,12.8625,32.5042,-1.00553,-0.963706,-1.14003,
2026_07_06_21_52_06.901,3.871,32.6,0,0.76,0,0,0,0, ,0,0,0,0,0, ,990.9,11.7,32.8,-0.5,-1.4,-1.8,25,990.437,12.7642,32.504,-0.996054,-0.972012,-1.18939,
2026_07_06_21_52_06.928,3.871,32.7,0,0.762,0,0,0,0, ,0,0,0,0,0, ,992.1,10.4,26.1,-0.5,-1.2,-1.7,25,990.502,12.6598,32.3179,-0.965826,-0.991998,-1.22355,
2026_07_06_21_52_06.938,3.871,32.6,0,0.762,0,0,0,0, ,0,0,0,0,0, ,992.1,9.3,19.2,-0.4,0.3,-2,25,990.599,12.4886,31.7288,-0.934393,-0.95897,-1.26173,
2026_07_06_21_52_06.965,3.871,32.5,0,0.762,0,0,0,0, ,0,0,0,0,0, ,990.3,10.1,40.8,-0.6,0.4,-2,25,990.636,12.3186,31.6234,-0.907922,-0.879205,-1.30672,
2026_07_06_21_52_06.978,3.871,32.6,0,0.762,0,0,0,0, ,0,0,0,0,0, ,992,10.6,31.7,-0.6,-0.4,-2,25,990.667,12.1987,31.9053,-0.889158,-0.825629,-1.34896,
2026_07_06_21_52_07.004,3.871,32.6,0,0.76,0,0,0,0, ,0,0,0,0,0, ,991,10.9,31.6,-0.6,-0.5,-2,25,990.718,12.1104,31.8898,-0.871538,-0.802739,-1.38864,
2026_07_06_21_52_07.018,3.871,32.5,0,0.763,0,0,0,0, ,0,0,0,0,0, ,991.6,10.6,33.8,-0.6,-0.4,-1.7,25,990.753,12.0275,31.9392,-0.854991,-0.781244,-1.41675,
2026_07_06_21_52_07.045,3.871,32.6,0,0.76,0,0,0,0, ,0,0,0,0,0, ,991.4,11.4,31.3,-0.5,-1.1,-1.6,25,990.799,11.9649,31.9764,-0.836405,-0.77934,-1.43096,
2026_07_06_21_52_07.057,3.871,32.6,0,0.762,0,0,0,0, ,0,0,0,0,0, ,991.6,11.7,29.2,-0.4,-0.9,-1.6,25,990.842,11.9396,31.8712,-0.812859,-0.792786,-1.44126,
2026_07_06_21_52_07.084,3.871,32.6,0,0.762,0,0,0,0, ,0,0,0,0,0, ,990.4,9.8,28.4,-0.4,-0.4,-1.8,25,990.851,11.8671,31.684,-0.7877,-0.784085,-1.45703,
2026_07_06_21_52_07.097,3.871,32.7,0,0.762,0,0,0,0, ,0,0,0,0,0, ,990.1,11.5,29.1,-0.5,0,-1.8,25,990.815,11.7929,31.5052,-0.767122,-0.748493,-1.47793,
2026_07_06_21_52_07.125,3.871,32.6,0,0.759,0,0,0,0, ,0,0,0,0,0, ,990.6,11.1,33.3,-0.6,0.1,-1.8,25,990.786,11.7629,31.4866,-0.753891,-0.699834,-1.49756,
2026_07_06_21_52_07.137,3.871,32.6,0,0.762,0,0,0,0, ,0,0,0,0,0, ,990.4,11.1,32.8,-0.5,-0.6,-1.8,25,990.769,11.7225,31.5819,-0.741466,-0.672423,-1.51599,
2026_07_06_21_52_07.164,3.871,32.6,0,0.76,0,0,0,0, ,0,0,0,0,0, ,990.7,9.7,30.6,-0.5,-0.5,-2,25,990.755,11.6419,31.5891,-0.726752,-0.664962,-1.53939,
2026_07_06_21_52_07.177,3.871,32.7,0,0.762,0,0,0,0, ,0,0,0,0,0, ,991.2,9.6,31.1,-0.5,-0.4,-2.1,25,990.767,11.5205,31.5441,-0.712934,-0.651863,-1.5705,
2026_07_06_21_52_07.205,3.871,32.7,0,0.76,0,0,0,0, ,0,0,0,0,0, ,991.3,-15.5,52,-0.7,-1,-4.1,25,990.797,10.6387,32.1538,-0.706052,-0.654797,-1.66371,
2026_07_06_21_52_07.219,3.871,32.6,0,0.76,0,0,0,0, ,0,0,0,0,0, ,991.8,15,32.8,-0.7,-0.1,-1.9,25,990.843,9.9752,32.7782,-0.705683,-0.64841,-1.74514,
2026_07_06_21_52_07.247,3.871,32.6,0,0.762,0,0,0,0, ,0,0,0,0,0, ,991.6,14.4,29.1,-0.5,-0.3,-1.7,25,990.895,10.2631,32.6668,-0.699243,-0.621085,-1.74848,
2026_07_06_21_52_07.256,3.871,32.6,0,0.762,0,0,0,0, ,0,0,0,0,0, ,990.4,8.7,38.6,-0.7,-0.3,-1.6,25,990.901,10.3415,32.7389,-0.693196,-0.601519,-1.74248,
2026_07_06_21_52_07.283,3.871,32.6,0,0.762,0,0,0,0, ,0,0,0,0,0, ,991,9.6,35.6,-0.5,-0.5,-1.6,25,990.889,10.2689,33.0046,-0.687517,-0.589239,-1.7338,
2026_07_06_21_52_07.295,3.871,32.6,0,0.762,0,0,0,0, ,0,0,0,0,0, ,991.8,12.8,26.2,-0.4,-0.9,-1.9,25,990.92,10.3257,32.8764,-0.673043,-0.595989,-1.73478,
