UTC_Time,Vin,TC1,TC2,Rh1,Vh1,Ah1,Acp1,Dty1,Err1,Rh2,Vh2,Ah2,Acp2,Dty2,Err2,Accel_x,Accel_y,Accel_z,gyro_x,gyro_y,gyro_z,Temp_c,Accel_x_h,Accel_y_h,Accel_z_h,gyro_x_h,gyro_y_h,gyro_z_h,
2026_07_06_17_19_00.044,3.869,32.9,0,0.76,0,0,0,0, ,0,0,0,0,0, ,708.6,84.9,-695.9,-1.1,-0.4,-1.6,25,708.6,84.9,-695.9,-1.1,-0.4,-1.6,
2026_07_06_17_19_00.063,3.869,32.9,0,0.759,0,0,0,0, ,0,0,0,0,0, ,709.5,83,-693.2,-0.2,0,-1.5,25,708.627,84.8421,-695.818,-1.07258,-0.387813,-1.59695,
2026_07_06_17_19_00.083,3.869,32.9,0,0.76,0,0,0,0, ,0,0,0,0,0, ,710.5,81.6,-692.6,-0.2,-0.1,-1.8,25,708.711,84.6872,-695.64,-1.01941,-0.367227,-1.60019,
2026_07_06_17_19_00.103,3.869,32.9,0,0.76,0,0,0,0, ,0,0,0,0,0, ,711.1,79.5,-691.7,-0.6,1.1,-2,25,708.838,84.4351,-695.427,-0.98166,-0.31438,-1.61846,
2026_07_06_17_19_00.123,3.869,33,0,0.759,0,0,0,0, ,0,0,0,0,0, ,709.7,84.9,-682.1,-0.7,0,-2.3,25,708.933,84.2989,-694.908,-0.96145,-0.261707,-1.65085,
2026_07_06_17_19_00.142,3.869,32.9,0,0.762,0,0,0,0, ,0,0,0,0,0, ,709.9,83.1,-691.6,-0.7,-1.2,-2.2,25,708.986,84.2807,-694.417,-0.945518,-0.282322,-1.68736,
2026_07_06_17_19_00.162,3.869,33,0,0.759,0,0,0,0, ,0,0,0,0,0, ,709.7,81.4,-689.3,-0.3,-0.6,-2.4,25,709.036,84.1569,-694.175,-0.918369,-0.319962,-1.72469,
2026_07_06_17_19_00.182,3.869,32.9,0,0.76,0,0,0,0, ,0,0,0,0,0, ,710.2,84.7,-686.4,-0.9,-0.7,-2.5,25,709.092,84.0895,-693.789,-0.898968,-0.340073,-1.76889,
2026_07_06_17_19_00.202,3.869,33,0,0.76,0,0,0,0, ,0,0,0,0,0, ,710.2,84.7,-686.8,-0.9,-2,-2.5,25,709.159,84.1267,-693.351,-0.899031,-0.401616,-1.81344,
2026_07_06_17_19_00.222,3.869,32.8,0,0.76,0,0,0,0, ,0,0,0,0,0, ,710.2,87.7,-695,-1.2,-2.4,-2.2,25,709.223,84.253,-693.202,-0.908231,-0.511205,-1.84614,
2026_07_06_17_19_00.241,3.869,33,0,0.76,0,0,0,0, ,0,0,0,0,0, ,709.7,84.1,-692,-1.3,-1.5,-1.8,25,709.267,84.3534,-693.22,-0.929057,-0.598881,-1.85551,
2026_07_06_17_19_00.261,3.869,33,0,0.76,0,0,0,0, ,0,0,0,0,0, ,710,84.8,-687.6,-1,-1.9,-2,25,709.302,84.3593,-693.012,-0.942521,-0.665981,-1.85822,
2026_07_06_17_19_00.281,3.869,33,0,0.76,0,0,0,0, ,0,0,0,0,0, ,708.8,88.6,-703,-1.1,-2.1,-1.7,25,709.308,84.5019,-693.151,-0.949071,-0.747273,-1.85772,
2026_07_06_17_19_00.300,3.869,32.9,0,0.76,0,0,0,0, ,0,0,0,0,0, ,708.7,85.2,-699.5,-0.9,-0.5,-1.5,25,709.274,84.648,-693.645,-0.952174,-0.780954,-1.84202,
2026_07_06_17_19_00.320,3.869,32.9,0,0.759,0,0,0,0, ,0,0,0,0,0, ,707.6,82.1,-693.2,-0.5,-0.3,-1.7,25,709.206,84.5872,-693.81,-0.936807,-0.75774,-1.82727,
2026_07_06_17_19_00.341,3.869,32.9,0,0.759,0,0,0,0, ,0,0,0,0,0, ,708.6,82.5,-693.6,0.2,-0.1,-1.9,25,709.138,84.4478,-693.785,-0.888861,-0.723753,-1.82561,
2026_07_06_17_19_00.361,3.869,32.9,0,0.76,0,0,0,0, ,0,0,0,0,0, ,708.1,85.9,-696.5,-0.5,0,-2,25,709.09,84.4327,-693.862,-0.843837,-0.682696,-1.83319,
2026_07_06_17_19_00.380,3.869,33,0,0.76,0,0,0,0, ,0,0,0,0,0, ,708.2,90.4,-685.5,-1.7,-0.9,-1.6,25,709.033,84.6593,-693.687,-0.859447,-0.668516,-1.83117,
2026_07_06_17_19_00.400,3.869,33,0,0.76,0,0,0,0, ,0,0,0,0,0, ,708.4,88,-697.3,-2,-1.1,-1.5,25,708.988,84.936,-693.548,-0.919809,-0.688716,-1.81403,
2026_07_06_17_19_00.419,3.869,32.9,0,0.762,0,0,0,0, ,0,0,0,0,0, ,708.3,83,-695.5,-2,-0.8,-1.6,25,708.95,84.9703,-693.722,-0.985633,-0.704638,-1.79794,
2026_07_06_17_19_00.439,3.869,32.9,0,0.762,0,0,0,0, ,0,0,0,0,0, ,708,87.2,-689.4,-1.4,-1,-1.8,25,708.901,84.9782,-693.644,-1.02916,-0.716543,-1.79197,
2026_07_06_17_19_00.459,3.869,33,0,0.76,0,0,0,0, ,0,0,0,0,0, ,707.3,86.5,-691.2,-0.9,-1.5,-1.7,25,708.825,85.0923,-693.44,-1.03653,-0.74905,-1.78942,
2026_07_06_17_19_00.479,3.869,32.9,0,0.76,0,0,0,0, ,0,0,0,0,0, ,707.2,85.9,-701.2,-0.7,-0.9,-1.9,25,708.729,85.1598,-693.609,-1.02211,-0.77653,-1.79006,
2026_07_06_17_19_00.499,3.869,32.9,0,0.76,0,0,0,0, ,0,0,0,0,0, ,707.3,89.1,-700.6,-0.4,0.6,-1.7,25,708.639,85.3024,-694.053,-0.993345,-0.738351,-1.79067,
2026_07_06_17_19_00.519,3.869,32.9,0,0.76,0,0,0,0, ,0,0,0,0,0, ,707.8,87.1,-694.3,0,0.9,-1.4,25,708.572,85.4729,-694.26,-0.945001,-0.647654,-1.776,
2026_07_06_17_19_00.539,3.869,32.9,0,0.76,0,0,0,0, ,0,0,0,0,0, ,708.7,82.7,-693.9,0.3,0.6,-1.8,25,708.553,85.438,-694.25,-0.878274,-0.562485,-1.76528,
2026_07_06_17_19_00.558,3.869,32.9,0,0.76,0,0,0,0, ,0,0,0,0,0, ,710.3,83.7,-686.8,-0.4,0.8,-2.1,25,708.61,85.3016,-694.013,-0.827801,-0.485552,-1.77653,
2026_07_06_17_19_00.578,3.869,32.9,0,0.76,0,0,0,0, ,0,0,0,0,0, ,708,86.6,-688.1,-0.6,0,-2.1,25,708.643,85.2924,-693.613,-0.807826,-0.431589,-1.79624,
2026_07_06_17_19_00.598,3.869,33,0,0.762,0,0,0,0, ,0,0,0,0,0, ,710.5,84.9,-691.1,-0.4,-0.3,-1.9,25,708.68,85.3202,-693.368,-0.789068,-0.41443,-1.80866,
2026_07_06_17_19_00.618,3.869,32.9,0,0.763,0,0,0,0, ,0,0,0,0,0, ,709.7,85.2,-686.6,0.3,-0.7,-2.1,25,708.767,85.3038,-693.093,-0.744031,-0.419644,-1.82032,
2026_07_06_17_19_00.638,3.869,32.9,0,0.76,0,0,0,0, ,0,0,0,0,0, ,709.7,87.2,-681.7,-0.8,-2.4,-1.8,25,708.824,85.3584,-692.548,-0.713926,-0.488525,-1.82822,
2026_07_06_17_19_00.657,3.869,32.9,0,0.76,0,0,0,0, ,0,0,0,0,0, ,708.9,86.7,-692.9,-1.5,-3.3,-1.4,25,708.853,85.4554,-692.228,-0.740499,-0.632427,-1.81432,
2026_07_06_17_19_00.677,3.869,32.9,0,0.76,0,0,0,0, ,0,0,0,0,0, ,708.9,80.3,-699.5,-1.1,-2.8,-1.5,25,708.855,85.3362,-692.47,-0.774594,-0.779748,-1.79212,
2026_07_06_17_19_00.696,3.869,32.9,0,0.762,0,0,0,0, ,0,0,0,0,0, ,707.6,81,-696.8,-0.1,-1.7,-2.2,25,708.819,85.0507,-692.816,-0.763954,-0.869342,-1.79564,
2026_07_06_17_19_00.716,3.869,32.9,0,0.76,0,0,0,0, ,0,0,0,0,0, ,707.3,84.1,-695.6,-0.3,-1,-2.4,25,708.735,84.8983,-693.022,-0.729588,-0.898632,-1.82638,
2026_07_06_17_19_00.736,3.869,32.9,0,0.76,0,0,0,0, ,0,0,0,0,0, ,707.8,88.1,-691.2,-0.3,-1.3,-2.3,25,708.663,84.9715,-693.045,-0.70341,-0.91395,-1.85829,
2026_07_06_17_19_00.756,3.869,32.9,0,0.76,0,0,0,0, ,0,0,0,0,0, ,707.5,86.3,-692.6,-0.4,-1.7,-2,25,708.601,85.1073,-692.976,-0.681874,-0.949662,-1.87606,
2026_07_06_17_19_00.776,3.869,32.9,0,0.759,0,0,0,0, ,0,0,0,0,0, ,707,85,-698.3,-0.1,-1.8,-2.1,25,708.519,85.1404,-693.126,-0.655557,-0.998433,-1.88666,
2026_07_06_17_19_00.796,3.869,32.9,0,0.762,0,0,0,0, ,0,0,0,0,0, ,706.5,85.9,-702.6,-0.1,-0.4,-1.9,25,708.411,85.1592,-693.573,-0.621703,-1.00462,-1.89357,
2026_07_06_17_19_00.816,3.869,32.9,0,0.76,0,0,0,0, ,0,0,0,0,0, ,707.3,84.8,-689.9,-0.6,-0.5,-1.9,25,708.319,85.1709,-693.736,-0.605146,-0.970825,-1.89396,
2026_07_06_17_19_00.835,3.869,32.9,0,0.76,0,0,0,0, ,0,0,0,0,0, ,708,89.8,-693.3,-1,-1.5,-1.6,25,708.278,85.3006,-693.606,-0.61702,-0.972602,-1.88519,
2026_07_06_17_19_00.855,3.869,32.9,0,0.76,0,0,0,0, ,0,0,0,0,0, ,706,84.1,-694.9,-1.5,-1,-1.2,25,708.2,85.4011,-693.636,-0.655592,-0.989506,-1.85562,
2026_07_06_17_19_00.875,3.869,32.9,0,0.762,0,0,0,0, ,0,0,0,0,0, ,706.7,83.3,-694.4,-0.8,-1,-1.6,25,708.088,85.2975,-693.698,-0.68572,-0.990146,-1.82786,
2026_07_06_17_19_00.895,3.869,32.8,0,0.762,0,0,0,0, ,0,0,0,0,0, ,707.6,85.4,-694,0.3,-1.4,-2,25,708.03,85.2397,-693.728,-0.659168,-1.00293,-1.82616,
2026_07_06_17_19_00.915,3.869,32.9,0,0.76,0,0,0,0, ,0,0,0,0,0, ,708,87.2,-703.2,-1.2,-0.2,-1.4,25,708.016,85.3043,-694.025,-0.646422,-0.990568,-1.81847,
2026_07_06_17_19_00.935,3.869,32.9,0,0.76,0,0,0,0, ,0,0,0,0,0, ,705.8,85.6,-692.8,-0.9,-0.1,-1.3,25,707.948,85.3711,-694.267,-0.671015,-0.939345,-1.78992,
2026_07_06_17_19_00.954,3.869,32.9,0,0.761,0,0,0,0, ,0,0,0,0,0, ,707.6,83,-694.5,0,-0.5,-1.6,25,707.872,85.3058,-694.23,-0.657547,-0.900385,-1.76921,
2026_07_06_17_19_00.974,3.869,32.9,0,0.761,0,0,0,0, ,0,0,0,0,0, ,706.5,82.8,-697.6,-0.1,0,-1.8,25,707.822,85.1592,-694.341,-0.620525,-0.860753,-1.76499,
2026_07_06_17_19_00.994,3.869,32.9,0,0.761,0,0,0,0, ,0,0,0,0,0, ,708,83.8,-687.7,-0.8,-0.5,-2.2,25,707.787,85.0459,-694.238,-0.610133,-0.823535,-1.77931,
2026_07_06_17_19_01.014,3.869,32.9,0,0.762,0,0,0,0, ,0,0,0,0,0, ,706.1,85.5,-691.2,-0.7,-1.7,-2,25,707.742,85.0218,-693.946,-0.618656,-0.840382,-1.79885,
2026_07_06_17_19_01.034,3.869,32.9,0,0.761,0,0,0,0, ,0,0,0,0,0, ,706.7,85.5,-693.7,-0.7,-2,-1.9,25,707.661,85.0509,-693.855,-0.623613,-0.901905,-1.80807,
2026_07_06_17_19_01.053,3.869,32.9,0,0.762,0,0,0,0, ,0,0,0,0,0, ,707,83.7,-689.6,-0.7,-2.5,-1.9,25,707.611,85.0235,-693.72,-0.628268,-0.984055,-1.81367,
2026_07_06_17_19_01.072,3.869,32.9,0,0.761,0,0,0,0, ,0,0,0,0,0, ,706.4,87.4,-693.1,-1.2,-3.4,-1.6,25,707.556,85.0555,-693.576,-0.647874,-1.10385,-1.80979,
2026_07_06_17_19_01.093,3.869,33,0,0.76,0,0,0,0, ,0,0,0,0,0, ,705.2,92.4,-700.9,-3.6,-4.1,-0.9,25,707.449,85.3508,-693.785,-0.754644,-1.2651,-1.77568,
2026_07_06_17_19_01.113,3.869,32.9,0,0.761,0,0,0,0, ,0,0,0,0,0, ,704.9,81.6,-705.6,-3.7,-3.5,-0.9,25,707.303,85.4513,-694.361,-0.93108,-1.41957,-1.72231,
2026_07_06_17_19_01.132,3.869,32.9,0,0.761,0,0,0,0, ,0,0,0,0,0, ,704.9,81.5,-709.4,-1.6,-1.2,-1.4,25,707.156,85.2135,-695.162,-1.03583,-1.47627,-1.68744,
2026_07_06_17_19_01.152,3.869,32.9,0,0.761,0,0,0,0, ,0,0,0,0,0, ,702.8,83.8,-700,0.2,-0.3,-1.9,25,706.955,85.0573,-695.743,-1.01536,-1.43202,-1.68516,
2026_07_06_17_19_01.172,3.869,32.9,0,0.761,0,0,0,0, ,0,0,0,0,0, ,704.5,86.4,-698.6,-0.6,0,-1.8,25,706.753,85.0599,-695.96,-0.965676,-1.35389,-1.6952,
2026_07_06_17_19_01.192,3.869,32.9,0,0.761,0,0,0,0, ,0,0,0,0,0, ,703.7,85.6,-699.9,0,0.4,-1.7,25,706.592,85.1172,-696.16,-0.925111,-1.2592,-1.69854,
2026_07_06_17_19_01.212,3.869,32.9,0,0.76,0,0,0,0, ,0,0,0,0,0, ,705.4,84.2,-697.2,1,1,-2,25,706.467,85.104,-696.306,-0.838268,-1.13981,-1.70777,
2026_07_06_17_19_01.237,3.869,33,0,0.761,0,0,0,0, ,0,0,0,0,0, ,705.2,85,-696.5,-0.2,1.5,-1.8,25,706.396,85.0733,-696.339,-0.762811,-0.994184,-1.71949,
2026_07_06_17_19_01.253,3.869,32.9,0,0.761,0,0,0,0, ,0,0,0,0,0, ,707.2,84.5,-686.4,-0.4,0.7,-1.9,25,706.384,85.0536,-696.041,-0.734609,-0.86657,-1.72744,
2026_07_06_17_19_01.271,3.869,32.9,0,0.761,0,0,0,0, ,0,0,0,0,0, ,705,86,-700.3,-0.7,-0.2,-1.9,25,706.367,85.0655,-695.877,-0.723359,-0.798529,-1.73795,
2026_07_06_17_19_01.291,3.869,32.9,0,0.761,0,0,0,0, ,0,0,0,0,0, ,706.1,81.6,-695.1,-0.7,0.7,-2.1,25,706.317,84.9884,-695.988,-0.721936,-0.734634,-1.75392,
2026_07_06_17_19_01.311,3.869,32.9,0,0.76,0,0,0,0, ,0,0,0,0,0, ,706.2,85.3,-686.5,-0.5,-0.2,-2.6,25,706.307,84.8947,-695.672,-0.714505,-0.674633,-1.79025,
2026_07_06_17_19_01.330,3.869,32.9,0,0.761,0,0,0,0, ,0,0,0,0,0, ,705.8,88.6,-699,-0.5,-0.8,-2.2,25,706.288,85.0199,-695.494,-0.701434,-0.663991,-1.8274,
2026_07_06_17_19_01.350,3.869,32.9,0,0.76,0,0,0,0, ,0,0,0,0,0, ,706.2,85.5,-692.7,-0.9,-0.3,-1.7,25,706.271,85.1436,-695.516,-0.701347,-0.657045,-1.83487,
2026_07_06_17_19_01.371,3.869,32.9,0,0.761,0,0,0,0, ,0,0,0,0,0, ,707.8,83.4,-691,-0.9,-0.7,-1.6,25,706.315,85.1013,-695.292,-0.713452,-0.647475,-1.82361,
2026_07_06_17_19_01.391,3.869,32.9,0,0.761,0,0,0,0, ,0,0,0,0,0, ,705.8,84.8,-692.8,-0.3,-1.1,-1.9,25,706.345,85.0403,-695.086,-0.706539,-0.662863,-1.81912,
2026_07_06_17_19_01.409,3.869,32.9,0,0.761,0,0,0,0, ,0,0,0,0,0, ,707.2,86.6,-702,-1.2,-0.9,-1.6,25,706.354,85.0805,-695.227,-0.709187,-0.683407,-1.81491,
2026_07_06_17_19_01.429,3.869,32.9,0,0.761,0,0,0,0, ,0,0,0,0,0, ,707.2,85,-696.8,-0.7,0,-1.7,25,706.406,85.1244,-695.481,-0.723862,-0.669184,-1.80486,
2026_07_06_17_19_01.449,3.869,32.9,0,0.761,0,0,0,0, ,0,0,0,0,0, ,706.1,83.6,-689.6,0,-0.3,-2.1,25,706.421,85.0741,-695.342,-0.701079,-0.637546,-1.81066,
2026_07_06_17_19_01.469,3.869,32.8,0,0.761,0,0,0,0, ,0,0,0,0,0, ,706,88.7,-687.9,-0.7,-1.4,-1.8,25,706.398,85.1397,-694.94,-0.679685,-0.650493,-1.81915,
2026_07_06_17_19_01.488,3.869,32.9,0,0.761,0,0,0,0, ,0,0,0,0,0, ,704.7,87.5,-696.1,-1.3,-2,-1,25,706.334,85.3201,-694.761,-0.699205,-0.714447,-1.79361,
2026_07_06_17_19_01.509,3.869,32.9,0,0.762,0,0,0,0, ,0,0,0,0,0, ,706.9,82.6,-699.5,-0.7,-1.8,-1.3,25,706.302,85.3036,-694.946,-0.717534,-0.786692,-1.75439,
2026_07_06_17_19_01.529,3.869,32.9,0,0.763,0,0,0,0, ,0,0,0,0,0, ,705.9,84.2,-695.4,-0.2,-0.9,-1.6,25,706.308,85.1876,-695.099,-0.701231,-0.821018,-1.73584,
2026_07_06_17_19_01.548,3.869,32.9,0,0.761,0,0,0,0, ,0,0,0,0,0, ,705.3,85.5,-692.2,-1,-2,-1.6,25,706.264,85.1671,-695.02,-0.695063,-0.859347,-1.72756,
2026_07_06_17_19_01.568,3.869,32.9,0,0.76,0,0,0,0, ,0,0,0,0,0, ,704.8,82.6,-700.5,-1,-1.9,-1.6,25,706.19,85.099,-695.101,-0.713645,-0.925809,-1.71979,
2026_07_06_17_19_01.588,3.869,32.9,0,0.76,0,0,0,0, ,0,0,0,0,0, ,704.9,83.1,-709.5,-0.3,-0.3,-1.9,25,706.109,84.9619,-695.704,-0.709766,-0.936423,-1.72163,
2026_07_06_17_19_01.607,3.869,32.9,0,0.76,0,0,0,0, ,0,0,0,0,0, ,705.4,84.5,-695.3,0.4,1.1,-2,25,706.05,84.8911,-696.112,-0.663468,-0.854985,-1.73555,
2026_07_06_17_19_01.628,3.869,32.9,0,0.761,0,0,0,0, ,0,0,0,0,0, ,706,89.5,-686.1,-0.7,-0.3,-1.8,25,706.029,85.0196,-695.782,-0.632179,-0.778509,-1.74557,
2026_07_06_17_19_01.646,3.869,33,0,0.761,0,0,0,0, ,0,0,0,0,0, ,705.8,85.3,-704.2,-1.9,-1,-1.3,25,706.021,85.1647,-695.744,-0.672874,-0.770678,-1.73365,
2026_07_06_17_19_01.667,3.869,32.9,0,0.76,0,0,0,0, ,0,0,0,0,0, ,705.6,80.9,-697.3,-0.9,0,-1.9,25,706.002,85.0389,-696.049,-0.717183,-0.754184,-1.72551,
2026_07_06_17_19_01.687,3.869,32.9,0,0.761,0,0,0,0, ,0,0,0,0,0, ,705.8,82.5,-691.2,0.3,-0.1,-2.5,25,705.983,84.8354,-695.939,-0.691761,-0.711273,-1.75442,
2026_07_06_17_19_01.706,3.869,32.9,0,0.762,0,0,0,0, ,0,0,0,0,0, ,706.4,89.3,-690.7,-0.3,-1.4,-2.2,25,705.99,84.9003,-695.635,-0.649607,-0.713633,-1.79071,
2026_07_06_17_19_01.726,3.869,32.8,0,0.761,0,0,0,0, ,0,0,0,0,0, ,706.7,88.8,-696.2,-2,-1.7,-1.2,25,706.024,85.1532,-695.502,-0.6801,-0.764599,-1.78519,
2026_07_06_17_19_01.746,3.869,33,0,0.762,0,0,0,0, ,0,0,0,0,0, ,705.5,84.9,-700.8,-1,-1.2,-1.1,25,706.029,85.2566,-695.685,-0.730062,-0.806365,-1.74648,
2026_07_06_17_19_01.766,3.869,32.9,0,0.761,0,0,0,0, ,0,0,0,0,0, ,705.9,84.3,-700.5,-0.2,-0.6,-1.4,25,706.009,85.2166,-695.987,-0.722137,-0.812071,-1.71622,
2026_07_06_17_19_01.785,3.869,32.8,0,0.76,0,0,0,0, ,0,0,0,0,0, ,706.5,83.8,-698.8,-1.1,0.1,-1.4,25,706.021,85.1455,-696.21,-0.717741,-0.77782,-1.69695,
2026_07_06_17_19_01.805,3.869,32.9,0,0.761,0,0,0,0, ,0,0,0,0,0, ,705.5,83.2,-692.6,-1,0,-1.5,25,706.019,85.0452,-696.179,-0.737988,-0.727375,-1.68191,
2026_07_06_17_19_01.825,3.869,33,0,0.761,0,0,0,0, ,0,0,0,0,0, ,707.1,83.4,-694.2,-0.3,-0.3,-1.5,25,706.036,84.9388,-696.01,-0.732626,-0.692191,-1.67082,
2026_07_06_17_19_01.845,3.869,32.9,0,0.762,0,0,0,0, ,0,0,0,0,0, ,704.5,84.7,-700.6,-0.1,-0.3,-1.7,25,706.022,84.8847,-696.095,-0.700169,-0.668292,-1.66651,
2026_07_06_17_19_01.865,3.869,32.9,0,0.76,0,0,0,0, ,0,0,0,0,0, ,706.2,81,-695.1,-0.5,0.2,-1.7,25,705.981,84.7607,-696.202,-0.675784,-0.630615,-1.66855,
2026_07_06_17_19_01.885,3.869,33,0,0.76,0,0,0,0, ,0,0,0,0,0, ,706.6,83.2,-693.4,-1,0,-2,25,706.007,84.5986,-696.083,-0.680306,-0.586093,-1.6796,
2026_07_06_17_19_01.905,3.869,32.9,0,0.762,0,0,0,0, ,0,0,0,0,0, ,706.9,85.5,-698.1,-0.1,0.1,-2.1,25,706.052,84.5834,-696.062,-0.672366,-0.547331,-1.70217,
2026_07_06_17_19_01.925,3.869,32.8,0,0.761,0,0,0,0, ,0,0,0,0,0, ,706.9,86.6,-692.6,0,-0.2,-2.1,25,706.104,84.6728,-696.019,-0.63444,-0.517025,-1.72642,
2026_07_06_17_19_01.944,3.869,33,0,0.761,0,0,0,0, ,0,0,0,0,0, ,706.9,85.6,-691.8,-0.7,-0.6,-1.9,25,706.152,84.7598,-695.786,-0.617107,-0.509894,-1.74309,
2026_07_06_17_19_01.964,3.869,33,0,0.762,0,0,0,0, ,0,0,0,0,0, ,707.3,83.1,-691.7,-1.1,-1,-1.8,25,706.21,84.7348,-695.54,-0.634346,-0.527572,-1.7496,
2026_07_06_17_19_01.984,3.869,32.9,0,0.761,0,0,0,0, ,0,0,0,0,0, ,705.4,84.3,-696.1,-1.1,-1.9,-1.8,25,706.218,84.6717,-695.44,-0.662722,-0.583782,-1.75267,
2026_07_06_17_19_02.005,3.869,33,0,0.761,0,0,0,0, ,0,0,0,0,0, ,705.5,83,-703.2,-1,-1.2,-2.2,25,706.172,84.6095,-695.697,-0.686322,-0.642661,-1.76775,
2026_07_06_17_19_02.023,3.869,32.9,0,0.76,0,0,0,0, ,0,0,0,0,0, ,705.9,85.4,-693.8,-0.3,-1.1,-2.3,25,706.143,84.5845,-695.868,-0.684108,-0.673577,-1.79713,
2026_07_06_17_19_02.043,3.869,33,0,0.761,0,0,0,0, ,0,0,0,0,0, ,704.9,86.7,-694.5,-1.2,-1.5,-2.1,25,706.098,84.6738,-695.763,-0.688124,-0.71175,-1.82168,
2026_07_06_17_19_02.062,3.869,32.9,0,0.761,0,0,0,0, ,0,0,0,0,0, ,705.3,85.5,-703.6,-1.4,-1.3,-2,25,706.037,84.7607,-695.963,-0.72541,-0.75369,-1.8356,
2026_07_06_17_19_02.083,3.869,32.9,0,0.76,0,0,0,0, ,0,0,0,0,0, ,705.2,84.2,-696.5,-0.1,-0.2,-2.1,25,705.989,84.7662,-696.212,-0.726908,-0.753465,-1.84866,
2026_07_06_17_19_02.103,3.869,32.9,0,0.76,0,0,0,0, ,0,0,0,0,0, ,707.2,84.4,-688.1,0.2,-0.8,-2,25,706.002,84.7378,-695.974,-0.679565,-0.73802,-1.86093,
2026_07_06_17_19_02.122,3.869,33,0,0.762,0,0,0,0, ,0,0,0,0,0, ,706,86.5,-696,-1.2,-0.9,-1.6,25,706.038,84.7812,-695.735,-0.668623,-0.744844,-1.85722,
2026_07_06_17_19_02.142,3.869,33,0,0.762,0,0,0,0, ,0,0,0,0,0, ,705,85.2,-695.9,-0.6,-0.6,-1.6,25,706.005,84.8463,-695.748,-0.682723,-0.745158,-1.84154,
2026_07_06_17_19_02.162,3.869,33,0,0.761,0,0,0,0, ,0,0,0,0,0, ,706.5,87.2,-702.1,-0.6,-0.5,-1.6,25,705.99,84.9288,-695.946,-0.677682,-0.733265,-1.82682,
2026_07_06_17_19_02.181,3.869,33,0,0.761,0,0,0,0, ,0,0,0,0,0, ,704.4,84.9,-689.8,0,-0.2,-1.6,25,705.957,84.9971,-695.946,-0.654667,-0.70991,-1.813,
2026_07_06_17_19_02.202,3.869,33,0,0.761,0,0,0,0, ,0,0,0,0,0, ,705.4,86.9,-692.6,-1.1,-1.9,-1.3,25,705.893,85.0521,-695.657,-0.648289,-0.730634,-1.79088,
2026_07_06_17_19_02.222,3.869,32.9,0,0.762,0,0,0,0, ,0,0,0,0,0, ,705,84.3,-699.4,-0.5,-1.6,-1.3,25,705.85,85.0855,-695.678,-0.657534,-0.792752,-1.76097,
2026_07_06_17_19_02.243,3.869,32.9,0,0.761,0,0,0,0, ,0,0,0,0,0, ,705.3,82.7,-704.8,-1.2,-0.4,-1.5,25,705.808,84.9889,-696.069,-0.669262,-0.805381,-1.73897,
2026_07_06_17_19_02.262,3.869,32.9,0,0.76,0,0,0,0, ,0,0,0,0,0, ,705.6,83.2,-696.1,-0.7,0.3,-1.8,25,705.786,84.8647,-696.336,-0.686369,-0.75935,-1.73355,
2026_07_06_17_19_02.281,3.869,33,0,0.76,0,0,0,0, ,0,0,0,0,0, ,706.4,86.5,-693.8,-0.5,-0.6,-2,25,705.799,84.8638,-696.252,-0.681106,-0.722218,-1.74369,
2026_07_06_17_19_02.301,3.869,33,0,0.76,0,0,0,0, ,0,0,0,0,0, ,706.1,83.8,-699.8,-0.6,-0.2,-1.9,25,705.826,84.8812,-696.285,-0.673117,-0.702583,-1.75627,
2026_07_06_17_19_02.320,3.869,32.9,0,0.763,0,0,0,0, ,0,0,0,0,0, ,705.3,85.6,-700.1,-0.5,0,-1.9,25,705.819,84.8702,-696.509,-0.665615,-0.665863,-1.76502,
2026_07_06_17_19_02.340,3.869,33,0,0.763,0,0,0,0, ,0,0,0,0,0, ,705.9,84.7,-698.1,0.1,1,-1.8,25,705.805,84.8872,-696.666,-0.637241,-0.594818,-1.7702,
2026_07_06_17_19_02.361,3.869,32.9,0,0.761,0,0,0,0, ,0,0,0,0,0, ,706.4,84.7,-697.8,-0.6,1.2,-2.1,25,705.826,84.8758,-696.745,-0.613644,-0.49154,-1.78116,
2026_07_06_17_19_02.380,3.869,33,0,0.761,0,0,0,0, ,0,0,0,0,0, ,707.3,85.4,-687,-0.7,0.6,-1.9,25,705.889,84.8864,-696.48,-0.615859,-0.406743,-1.79449,
2026_07_06_17_19_02.400,3.869,32.8,0,0.76,0,0,0,0, ,0,0,0,0,0, ,706.4,86,-682.2,-0.7,-1.5,-1.8,25,705.947,84.936,-695.756,-0.620987,-0.409379,-1.79788,
2026_07_06_17_19_02.419,3.869,32.9,0,0.76,0,0,0,0, ,0,0,0,0,0, ,706.6,84.1,-705.5,-1.2,-2,-1.5,25,705.981,84.9429,-695.64,-0.641036,-0.491073,-1.78887,
2026_07_06_17_19_02.438,3.869,32.9,0,0.761,0,0,0,0, ,0,0,0,0,0, ,706,84.5,-701.9,-0.3,-0.7,-1.8,25,706,84.9038,-696.131,-0.647676,-0.543414,-1.7804,
2026_07_06_17_19_02.459,3.869,32.9,0,0.762,0,0,0,0, ,0,0,0,0,0, ,707.7,83.6,-693.1,-0.4,-0.2,-2,25,706.052,84.8517,-696.214,-0.629536,-0.537722,-1.78769,
2026_07_06_17_19_02.479,3.869,33.1,0,0.761,0,0,0,0, ,0,0,0,0,0, ,706.6,85.9,-690.9,-1.1,-0.8,-1.9,25,706.119,84.8455,-695.958,-0.636877,-0.535423,-1.79758,
2026_07_06_17_19_02.499,3.869,32.9,0,0.758,0,0,0,0, ,0,0,0,0,0, ,706.4,85.6,-696.4,-1.1,-1.2,-1.8,25,706.142,84.9007,-695.817,-0.665098,-0.563733,-1.80078,
2026_07_06_17_19_02.518,3.869,33,0,0.76,0,0,0,0, ,0,0,0,0,0, ,704.9,82.3,-696.4,-0.5,-0.4,-2,25,706.112,84.8427,-695.853,-0.673319,-0.578131,-1.80682,
2026_07_06_17_19_02.539,3.869,33,0,0.761,0,0,0,0, ,0,0,0,0,0, ,706,84.1,-696.6,-0.5,-0.4,-2.3,25,706.072,84.7426,-695.892,-0.662757,-0.567276,-1.82773,
2026_07_06_17_19_02.561,3.869,32.9,0,0.761,0,0,0,0, ,0,0,0,0,0, ,706.5,86.5,-694.8,0.1,0,-2.1,25,706.083,84.7766,-695.88,-0.634558,-0.544895,-1.85042,
2026_07_06_17_19_02.579,3.869,32.8,0,0.761,0,0,0,0, ,0,0,0,0,0, ,706.5,85.3,-692.9,-0.3,-0.3,-1.8,25,706.108,84.845,-695.757,-0.601984,-0.520831,-1.85649,
2026_07_06_17_19_02.601,3.869,32.9,0,0.761,0,0,0,0, ,0,0,0,0,0, ,705.8,85.3,-689.6,-0.6,-0.8,-1.8,25,706.111,84.8728,-695.482,-0.592722,-0.522608,-1.85305,
2026_07_06_17_19_02.617,3.869,33,0,0.761,0,0,0,0, ,0,0,0,0,0, ,706.6,85.3,-691.6,-1.2,-1.8,-1.8,25,706.116,84.8988,-695.184,-0.611447,-0.569981,-1.84981,
2026_07_06_17_19_02.637,3.869,32.9,0,0.76,0,0,0,0, ,0,0,0,0,0, ,706.6,85.9,-693.2,-1,-2.2,-1.7,25,706.146,84.9415,-695.015,-0.641218,-0.657123,-1.84373,
2026_07_06_17_19_02.658,3.869,32.9,0,0.76,0,0,0,0, ,0,0,0,0,0, ,706,83.4,-703.2,-0.5,-1.9,-1.7,25,706.155,84.9238,-695.209,-0.647847,-0.742001,-1.83497,
2026_07_06_17_19_02.676,3.869,32.9,0,0.761,0,0,0,0, ,0,0,0,0,0, ,706,83.1,-701.4,-0.4,-0.3,-1.7,25,706.146,84.8218,-695.641,-0.635791,-0.763817,-1.82675,
2026_07_06_17_19_02.697,3.869,32.9,0,0.761,0,0,0,0, ,0,0,0,0,0, ,706.2,87.5,-692.5,-0.3,-0.3,-1.8,25,706.143,84.8509,-695.721,-0.618375,-0.735553,-1.82207,
2026_07_06_17_19_02.717,3.869,33,0,0.761,0,0,0,0, ,0,0,0,0,0, ,705.3,85,-694.2,-0.8,-1.4,-1.4,25,706.119,84.9362,-695.576,-0.614209,-0.742527,-1.80854,
2026_07_06_17_19_02.737,3.869,32.9,0,0.761,0,0,0,0, ,0,0,0,0,0, ,703.7,83.3,-704.3,-1.1,-0.9,-1.3,25,706.02,84.8883,-695.8,-0.634671,-0.767357,-1.7806,
2026_07_06_17_19_02.756,3.869,33,0,0.761,0,0,0,0, ,0,0,0,0,0, ,705.5,81.1,-696.7,-0.5,-0.2,-1.9,25,705.934,84.7244,-696.087,-0.644746,-0.754112,-1.76959,
2026_07_06_17_19_02.776,3.869,32.9,0,0.762,0,0,0,0, ,0,0,0,0,0, ,705.6,86.3,-693.1,-0.1,-0.4,-2.2,25,705.91,84.662,-696.014,-0.623738,-0.72644,-1.78668,
2026_07_06_17_19_02.797,3.869,32.9,0,0.761,0,0,0,0, ,0,0,0,0,0, ,706.4,88.2,-693.8,-1.1,-0.8,-1.8,25,705.916,84.8197,-695.858,-0.622291,-0.718735,-1.79968,
2026_07_06_17_19_02.816,3.869,33,0,0.761,0,0,0,0, ,0,0,0,0,0, ,706.5,85.8,-693.8,-0.9,-0.8,-1.2,25,705.948,84.9526,-695.733,-0.645308,-0.723687,-1.78142,
2026_07_06_17_19_02.836,3.869,32.9,0,0.76,0,0,0,0, ,0,0,0,0,0, ,705.6,82.5,-692.5,-0.4,-1.5,-1.2,25,705.955,84.9037,-695.575,-0.645594,-0.749665,-1.74599,
2026_07_06_17_19_02.855,3.869,33,0,0.761,0,0,0,0, ,0,0,0,0,0, ,704.8,82.3,-699.5,-1,-1.2,-1.2,25,705.909,84.7511,-695.601,-0.648909,-0.786248,-1.71272,
2026_07_06_17_19_02.884,3.869,32.9,0,0.762,0,0,0,0, ,0,0,0,0,0, ,705.2,84.3,-701,-0.9,0,-1.5,25,705.853,84.6627,-695.884,-0.667257,-0.774899,-1.69061,
2026_07_06_17_19_02.900,3.869,32.9,0,0.761,0,0,0,0, ,0,0,0,0,0, ,706.5,84.9,-692.8,0,-0.5,-1.7,25,705.853,84.6589,-695.946,-0.654018,-0.742913,-1.68509,
2026_07_06_17_19_02.914,3.869,32.8,0,0.761,0,0,0,0, ,0,0,0,0,0, ,704.9,83.6,-698.3,-0.7,-0.6,-1.5,25,705.844,84.6339,-695.922,-0.635492,-0.731157,-1.67991,
2026_07_06_17_19_02.934,3.869,32.9,0,0.761,0,0,0,0, ,0,0,0,0,0, ,706.2,81,-699.2,-1.4,0.5,-1.8,25,705.826,84.4917,-696.094,-0.660751,-0.689649,-1.67808,
2026_07_06_17_19_02.954,3.869,32.9,0,0.763,0,0,0,0, ,0,0,0,0,0, ,704.7,83.1,-700,-0.7,0.8,-2.1,25,705.803,84.3429,-696.308,-0.684471,-0.608014,-1.69465,
2026_07_06_17_19_02.974,3.869,33,0,0.761,0,0,0,0, ,0,0,0,0,0, ,705,85.2,-693.3,0.2,1,-2.6,25,705.745,84.3312,-696.329,-0.657995,-0.51612,-1.73459,
2026_07_06_17_19_02.994,3.869,32.9,0,0.761,0,0,0,0, ,0,0,0,0,0, ,706.9,88,-696.7,-0.6,1.1,-2.3,25,705.757,84.4694,-696.248,-0.630086,-0.420684,-1.77818,
2026_07_06_17_19_03.013,3.869,32.9,0,0.761,0,0,0,0, ,0,0,0,0,0, ,706.2,87.4,-691.2,-0.9,0.4,-1.8,25,705.806,84.6663,-696.108,-0.637393,-0.349346,-1.79475,
2026_07_06_17_19_03.034,3.869,33,0,0.763,0,0,0,0, ,0,0,0,0,0, ,708.3,84.3,-693.9,-0.7,-0.2,-1.6,25,705.894,84.7384,-695.891,-0.647302,-0.321964,-1.78897,
2026_07_06_17_19_03.054,3.869,32.9,0,0.761,0,0,0,0, ,0,0,0,0,0, ,707.8,82.3,-692.1,-0.4,-0.4,-1.8,25,706.025,84.6508,-695.715,-0.641373,-0.320625,-1.78355,
2026_07_06_17_19_03.078,3.869,32.9,0,0.762,0,0,0,0, ,0,0,0,0,0, ,707.8,84.5,-696.2,-1,0,-1.9,25,706.133,84.5746,-695.62,-0.644945,-0.313275,-1.7876,
2026_07_06_17_19_03.093,3.869,32.9,0,0.761,0,0,0,0, ,0,0,0,0,0, ,707.3,84.2,-689.3,-0.7,-0.2,-1.8,25,706.22,84.5609,-695.445,-0.657441,-0.300278,-1.7914,
2026_07_06_17_19_03.112,3.869,32.9,0,0.761,0,0,0,0, ,0,0,0,0,0, ,707.1,84.9,-700.6,-0.8,-0.1,-1.8,25,706.279,84.5602,-695.415,-0.663081,-0.291121,-1.79193,
2026_07_06_17_19_03.132,3.869,32.9,0,0.762,0,0,0,0, ,0,0,0,0,0, ,709.1,82.8,-691.5,-0.3,1,-1.8,25,706.39,84.5169,-695.453,-0.65619,-0.245959,-1.79242,
2026_07_06_17_19_03.153,3.869,32.9,0,0.761,0,0,0,0, ,0,0,0,0,0, ,707.8,85.6,-686.7,-0.5,-0.1,-1.8,25,706.516,84.4976,-695.066,-0.640579,-0.203549,-1.79288,
2026_07_06_17_19_03.172,3.869,32.9,0,0.762,0,0,0,0, ,0,0,0,0,0, ,707.5,85.2,-694.7,-0.7,-1,-1.6,25,706.585,84.5526,-694.8,-0.638106,-0.22466,-1.78722,
2026_07_06_17_19_03.192,3.869,32.9,0,0.763,0,0,0,0, ,0,0,0,0,0, ,707.5,83.3,-698.6,-0.7,-0.7,-1.5,25,706.641,84.5342,-694.913,-0.641878,-0.262767,-1.77277,
2026_07_06_17_19_03.211,3.869,32.8,0,0.761,0,0,0,0, ,0,0,0,0,0, ,708.2,82,-695.1,-0.5,0,-1.9,25,706.714,84.4193,-695.031,-0.639326,-0.268083,-1.76833,
2026_07_06_17_19_03.232,3.869,32.9,0,0.762,0,0,0,0, ,0,0,0,0,0, ,709.1,85,-689.5,-0.3,-0.5,-1.9,25,706.832,84.3633,-694.864,-0.624742,-0.266981,-1.77635,
2026_07_06_17_19_03.251,3.869,32.9,0,0.763,0,0,0,0, ,0,0,0,0,0, ,708.4,86.5,-693.9,-0.6,-0.9,-1.5,25,706.949,84.4478,-694.672,-0.614093,-0.293368,-1.7717,
2026_07_06_17_19_03.270,3.869,32.9,0,0.763,0,0,0,0, ,0,0,0,0,0, ,708.6,84.4,-701,-1.3,-0.1,-1.3,25,707.044,84.5089,-694.841,-0.634563,-0.30596,-1.74905,
2026_07_06_17_19_03.291,3.869,32.9,0,0.761,0,0,0,0, ,0,0,0,0,0, ,708.8,82.5,-691.2,-0.4,0.2,-1.5,25,707.145,84.4444,-694.918,-0.647691,-0.284268,-1.72778,
2026_07_06_17_19_03.310,3.869,32.9,0,0.761,0,0,0,0, ,0,0,0,0,0, ,709.7,82.7,-688.8,-0.2,-0.3,-1.7,25,707.273,84.332,-694.618,-0.626504,-0.269993,-1.71999,
2026_07_06_17_19_03.330,3.869,32.9,0,0.761,0,0,0,0, ,0,0,0,0,0, ,710.3,84.8,-694.2,-1.3,-0.2,-1.6,25,707.439,84.2965,-694.428,-0.634029,-0.268774,-1.71573,
2026_07_06_17_19_03.350,3.869,32.9,0,0.76,0,0,0,0, ,0,0,0,0,0, ,708.4,83.8,-692.1,-0.9,-0.3,-1.8,25,707.556,84.2967,-694.35,-0.662424,-0.26763,-1.71477,
2026_07_06_17_19_03.371,3.869,32.9,0,0.762,0,0,0,0, ,0,0,0,0,0, ,710.5,81.9,-684.3,-0.4,-0.5,-1.9,25,707.671,84.2086,-693.975,-0.661667,-0.275697,-1.72301,
2026_07_06_17_19_03.390,3.869,32.9,0,0.761,0,0,0,0, ,0,0,0,0,0, ,709.2,83.6,-691,-0.8,-1,-2,25,707.804,84.1197,-693.59,-0.657909,-0.304599,-1.73684,
2026_07_06_17_19_03.409,3.869,32.9,0,0.762,0,0,0,0, ,0,0,0,0,0, ,708.7,83.2,-688.9,-0.4,-1.8,-2.1,25,707.874,84.0758,-693.368,-0.65438,-0.37135,-1.75593,
2026_07_06_17_19_03.429,3.869,33,0,0.762,0,0,0,0, ,0,0,0,0,0, ,706.7,86.3,-693.3,-0.5,-2,-1.8,25,707.863,84.1169,-693.23,-0.641926,-0.464502,-1.76775,
2026_07_06_17_19_03.448,3.869,32.9,0,0.762,0,0,0,0, ,0,0,0,0,0, ,709.1,84.1,-689,-0.8,-2.1,-1.5,25,707.865,84.1829,-693.103,-0.642418,-0.561119,-1.76058,
2026_07_06_17_19_03.469,3.869,32.9,0,0.76,0,0,0,0, ,0,0,0,0,0, ,708.1,83.8,-693.2,-1.2,-2.8,-1.5,25,707.91,84.1687,-692.981,-0.664208,-0.676222,-1.7447,
2026_07_06_17_19_03.490,3.869,32.8,0,0.762,0,0,0,0, ,0,0,0,0,0, ,708.2,82.2,-697.1,-1,-2.5,-1.7,25,707.925,84.0975,-693.113,-0.690764,-0.796499,-1.73588,
2026_07_06_17_19_03.508,3.869,32.8,0,0.763,0,0,0,0, ,0,0,0,0,0, ,707.5,83,-693.9,-0.6,-2.2,-1.8,25,707.92,84.0062,-693.259,-0.697421,-0.891166,-1.73674,
2026_07_06_17_19_03.528,3.869,32.9,0,0.762,0,0,0,0, ,0,0,0,0,0, ,707.1,84.1,-692.2,-0.9,-2.4,-1.6,25,707.882,83.9784,-693.246,-0.700625,-0.977017,-1.7345,
2026_07_06_17_19_03.549,3.869,32.9,0,0.761,0,0,0,0, ,0,0,0,0,0, ,706.5,82,-698.8,-1.2,-2.5,-1.7,25,707.816,83.9219,-693.383,-0.721915,-1.06678,-1.72935,
2026_07_06_17_19_03.568,3.869,32.9,0,0.76,0,0,0,0, ,0,0,0,0,0, ,706.4,83.8,-698.8,-1.1,-1.8,-1.8,25,707.733,83.8596,-693.713,-0.748001,-1.13279,-1.73061,
2026_07_06_17_19_03.588,3.869,32.9,0,0.759,0,0,0,0, ,0,0,0,0,0, ,705.3,82.5,-702.8,-0.3,-1.1,-1.9,25,707.618,83.8164,-694.145,-0.745076,-1.15212,-1.73789,
2026_07_06_17_19_03.608,3.869,33,0,0.761,0,0,0,0, ,0,0,0,0,0, ,706.1,79.7,-694.7,-0.2,-0.1,-2.2,25,707.501,83.6508,-694.426,-0.714908,-1.11847,-1.75691,
2026_07_06_17_19_03.629,3.869,33,0,0.761,0,0,0,0, ,0,0,0,0,0, ,706.7,84.2,-691.7,-1.1,-0.7,-2.3,25,707.434,83.5472,-694.351,-0.710952,-1.07469,-1.78695,
2026_07_06_17_19_03.647,3.869,33,0,0.76,0,0,0,0, ,0,0,0,0,0, ,705.4,85.9,-697.8,-1.2,-1,-2.2,25,707.35,83.6388,-694.375,-0.737707,-1.061,-1.81517,
2026_07_06_17_19_03.667,3.869,32.9,0,0.761,0,0,0,0, ,0,0,0,0,0, ,704.8,87.1,-699.3,-0.9,-0.9,-1.9,25,707.213,83.8131,-694.63,-0.756737,-1.05423,-1.82948,
2026_07_06_17_19_03.686,3.869,32.9,0,0.76,0,0,0,0, ,0,0,0,0,0, ,707.1,84.8,-696,-1,-1,-1.6,25,707.136,83.9433,-694.814,-0.768514,-1.04788,-1.82464,
2026_07_06_17_19_03.706,3.869,32.9,0,0.761,0,0,0,0, ,0,0,0,0,0, ,704.9,84.5,-695.9,-0.4,-1,-1.6,25,707.067,83.9864,-694.883,-0.764339,-1.04496,-1.81095,
2026_07_06_17_19_03.726,3.869,32.9,0,0.761,0,0,0,0, ,0,0,0,0,0, ,705.9,86,-700.3,-0.4,-0.7,-1.4,25,706.965,84.0634,-695.079,-0.742137,-1.03308,-1.792,
2026_07_06_17_19_03.746,3.869,32.9,0,0.76,0,0,0,0, ,0,0,0,0,0, ,705.5,83,-691.5,-1.1,-0.9,-1.2,25,706.888,84.09,-695.129,-0.742616,-1.01888,-1.76202,
2026_07_06_17_19_03.766,3.869,32.9,0,0.761,0,0,0,0, ,0,0,0,0,0, ,705.3,83.4,-699,-1.3,-1,-1.3,25,706.797,84.0358,-695.137,-0.770488,-1.01468,-1.73082,
2026_07_06_17_19_03.792,3.869,32.9,0,0.761,0,0,0,0, ,0,0,0,0,0, ,703.8,80.6,-702.7,-0.5,0,-1.6,25,706.66,83.9117,-695.485,-0.77838,-0.983319,-1.71371,
2026_07_06_17_19_03.806,3.869,33,0,0.761,0,0,0,0, ,0,0,0,0,0, ,705.3,84.1,-690.7,-0.5,0.3,-1.8,25,706.532,83.8165,-695.559,-0.761416,-0.914257,-1.71287,
2026_07_06_17_19_03.825,3.869,32.9,0,0.76,0,0,0,0, ,0,0,0,0,0, ,705.5,88,-688.1,-1.1,-1.2,-1.3,25,706.463,83.9526,-695.183,-0.763768,-0.885967,-1.70295,
2026_07_06_17_19_03.845,3.869,32.9,0,0.761,0,0,0,0, ,0,0,0,0,0, ,705,84.5,-703.8,-1.5,-1.4,-1.1,25,706.389,84.0926,-695.23,-0.796444,-0.911197,-1.6723,
2026_07_06_17_19_03.864,3.869,32.9,0,0.761,0,0,0,0, ,0,0,0,0,0, ,704.8,79.1,-698.2,-0.6,-0.3,-1.5,25,706.298,83.9529,-695.582,-0.811895,-0.907468,-1.64961,
2026_07_06_17_19_03.885,3.869,33,0,0.76,0,0,0,0, ,0,0,0,0,0, ,705.3,80,-697.5,-0.6,-0.1,-1.8,25,706.222,83.6846,-695.72,-0.798983,-0.864356,-1.64963,
2026_07_06_17_19_03.905,3.869,33,0,0.761,0,0,0,0, ,0,0,0,0,0, ,704.8,85.3,-693.8,-0.4,-0.5,-2.3,25,706.151,83.6216,-695.716,-0.780764,-0.829966,-1.67403,
2026_07_06_17_19_03.923,3.869,32.9,0,0.76,0,0,0,0, ,0,0,0,0,0, ,704.5,87,-710.5,-0.6,0,-1.8,25,706.059,83.7757,-696.108,-0.763655,-0.794624,-1.69694,
2026_07_06_17_19_03.944,3.869,32.9,0,0.761,0,0,0,0, ,0,0,0,0,0, ,706,81.2,-708.8,-0.5,2.5,-1.8,25,706.01,83.7954,-696.933,-0.750635,-0.67003,-1.70322,
2026_07_06_17_19_03.963,3.869,32.9,0,0.761,0,0,0,0, ,0,0,0,0,0, ,707.6,85,-715.5,-0.3,4.7,-2.1,25,706.058,83.753,-697.86,-0.729268,-0.409825,-1.71826,
2026_07_06_17_19_03.984,3.869,32.9,0,0.761,0,0,0,0, ,0,0,0,0,0, ,708.1,91.3,-721,0,8.9,-1.6,25,706.167,84.021,-699.103,-0.693969,0.0295236,-1.72629,
2026_07_06_17_19_04.009,3.869,32.9,0,0.761,0,0,0,0, ,0,0,0,0,0, ,708.9,90.5,-759.2,-0.7,16,-0.7,25,706.309,84.4402,-701.601,-0.673008,0.786396,-1.69117,
2026_07_06_17_19_04.023,3.869,32.9,0,0.761,0,0,0,0, ,0,0,0,0,0, ,770.1,71.1,-812.5,6.6,37.4,-2.8,25,708.332,84.2184,-706.735,-0.452231,2.36551,-1.69476,
2026_07_06_17_19_04.043,3.869,32.9,0,0.76,0,0,0,0, ,0,0,0,0,0, ,812.2,65.9,-819.8,18.3,80.7,-7.3,25,713.379,83.2605,-713.402,0.333998,5.81972,-1.89922,
2026_07_06_17_19_04.063,3.869,32.9,0,0.761,0,0,0,0, ,0,0,0,0,0, ,780.2,112.7,-689.5,32.5,116.6,-8.4,25,718.426,83.6285,-715.916,1.86146,11.4766,-2.26184,
2026_07_06_17_19_04.083,3.869,33,0,0.761,0,0,0,0, ,0,0,0,0,0, ,773.4,135.7,-612.1,23.3,119.2,-17.6,25,721.983,86.1009,-711.948,3.44818,17.9617,-2.9162,
2026_07_06_17_19_04.102,3.869,32.9,0,0.761,0,0,0,0, ,0,0,0,0,0, ,846.3,93.1,-581.1,7.2,98.3,-6.9,25,727.337,87.8253,-704.919,4.16735,23.4941,-3.48498,
2026_07_06_17_19_04.122,3.869,33.1,0,0.76,0,0,0,0, ,0,0,0,0,0, ,896.7,66,-550.4,10.7,90.6,-2.7,25,736.122,87.3211,-696.438,4.4588,27.818,-3.56511,
2026_07_06_17_19_04.143,3.869,32.9,0,0.761,0,0,0,0, ,0,0,0,0,0, ,960.6,54.5,-494.7,9.8,84.6,4.5,25,747.854,85.6714,-685.842,4.8117,31.461,-3.29302,
2026_07_06_17_19_04.162,3.869,32.9,0,0.761,0,0,0,0, ,0,0,0,0,0, ,1102.5,44.9,-384.8,7.4,107.7,14.2,25,765.142,83.4794,-670.846,5.04255,35.403,-2.52258,
2026_07_06_17_19_04.182,3.869,32.9,0,0.761,0,0,0,0, ,0,0,0,0,0, ,1012.3,60.4,-296.5,5.9,161.2,22.7,25,782.951,81.6007,-650.724,5.1405,41.4386,-1.24457,
2026_07_06_17_19_04.201,3.869,32.9,0,0.761,0,0,0,0, ,0,0,0,0,0, ,865.3,102.5,-308.2,9.1,160.1,16.3,25,792.448,81.5916,-629.495,5.28428,48.7031,0.0195546,
2026_07_06_17_19_04.221,3.869,32.9,0,0.76,0,0,0,0, ,0,0,0,0,0, ,915.2,56.5,-277.3,-13.8,145.7,11.6,25,798.408,81.4641,-608.975,4.81907,55.0526,0.868441,
2026_07_06_17_19_04.240,3.869,32.9,0,0.762,0,0,0,0, ,0,0,0,0,0, ,959.4,43.5,-213.2,-20.6,147.4,16.4,25,806.872,79.5468,-586.811,3.47728,60.6282,1.66865,
2026_07_06_17_19_04.261,3.869,32.9,0,0.761,0,0,0,0, ,0,0,0,0,0, ,957.5,21.1,-198.7,-19.5,158,16.4,25,816.109,76.6677,-563.602,2.04359,66.2388,2.56634,
2026_07_06_17_19_04.281,3.869,32.9,0,0.761,0,0,0,0, ,0,0,0,0,0, ,932.1,31.3,-105.1,-33.2,164.9,21.1,25,823.951,73.5923,-538.514,0.313355,72.0408,3.55253,
2026_07_06_17_19_04.301,3.869,32.9,0,0.76,0,0,0,0, ,0,0,0,0,0, ,899.7,29.1,-102,-39.9,183.2,12.4,25,829.554,70.9481,-512.008,-1.93301,78.257,4.35675,
2026_07_06_17_19_04.320,3.869,33,0,0.761,0,0,0,0, ,0,0,0,0,0, ,850.4,32.5,-113,-36.2,183.2,-6.3,25,832.326,68.5016,-487.358,-4.13388,84.6519,4.27712,
2026_07_06_17_19_04.339,3.869,32.9,0,0.761,0,0,0,0, ,0,0,0,0,0, ,864.8,23.5,-81.2,-36.7,145.1,-11.8,25,833.867,66.0335,-463.577,-6.10315,89.4963,3.465,
2026_07_06_17_19_04.360,3.869,32.9,0,0.76,0,0,0,0, ,0,0,0,0,0, ,947.7,6.5,-25.5,-35.4,111.9,-6.4,25,838.277,62.9236,-438.579,-7.92803,91.8731,2.69932,
2026_07_06_17_19_04.380,3.869,33,0,0.761,0,0,0,0, ,0,0,0,0,0, ,991.2,7,-17.2,-38.7,100.3,-1.8,25,846.271,59.5006,-413.154,-9.70265,92.7401,2.28499,
2026_07_06_17_19_04.399,3.869,32.9,0,0.76,0,0,0,0, ,0,0,0,0,0, ,991,-4.6,-20.7,-48.8,98.3,-6.4,25,855.096,55.9479,-389.132,-11.7774,93.1398,1.8959,
2026_07_06_17_19_04.422,3.869,32.9,0,0.76,0,0,0,0, ,0,0,0,0,0, ,948.8,21.3,5.8,-45.8,90.9,-3.9,25,862.092,53.0474,-365.873,-13.9421,93.2288,1.46654,
2026_07_06_17_19_04.439,3.869,32.9,0,0.761,0,0,0,0, ,0,0,0,0,0, ,920.7,29.5,73.2,-45.6,87.8,-7.8,25,866.52,51.3626,-341.171,-15.8773,92.9924,1.02069,
2026_07_06_17_19_04.458,3.869,33,0,0.762,0,0,0,0, ,0,0,0,0,0, ,909.9,21.4,88.9,-46.2,95.8,-17.2,25,869.492,49.7836,-315.442,-17.7068,92.9198,0.196772,
2026_07_06_17_19_04.479,3.869,32.9,0,0.759,0,0,0,0, ,0,0,0,0,0, ,906,30.8,136.7,-49.1,95.1,-20.7,25,871.836,48.3403,-289.346,-19.5315,93.074,-0.969984,
2026_07_06_17_19_04.499,3.869,32.9,0,0.761,0,0,0,0, ,0,0,0,0,0, ,931.1,14,188.5,-43.6,92.3,-15.4,25,874.682,46.7596,-261.805,-21.1657,93.1121,-2.0108,
2026_07_06_17_19_04.518,3.869,32.9,0,0.761,0,0,0,0, ,0,0,0,0,0, ,930.1,17.7,203.8,-8.5,98.5,-3.8,25,878.09,44.876,-233.899,-21.4634,93.2515,-2.47326,
2026_07_06_17_19_04.538,3.869,33,0,0.761,0,0,0,0, ,0,0,0,0,0, ,892.5,26.3,251.2,-2.7,97.7,-4.6,25,880.114,43.482,-205.782,-20.4967,93.547,-2.57849,
2026_07_06_17_19_04.557,3.869,32.9,0,0.761,0,0,0,0, ,0,0,0,0,0, ,881.4,27.2,285.6,0.3,96,-7.5,25,880.53,42.4624,-176.887,-19.3208,93.7483,-2.79003,
2026_07_06_17_19_04.578,3.869,32.9,0,0.763,0,0,0,0, ,0,0,0,0,0, ,890.1,29,352,1.1,94.9,-10.8,25,880.848,41.5872,-146.681,-18.1008,93.852,-3.17759,
2026_07_06_17_19_04.598,3.869,32.9,0,0.76,0,0,0,0, ,0,0,0,0,0, ,918.9,23.1,390,5.4,101,-6.1,25,882.29,40.6404,-115.135,-16.7997,94.1017,-3.49888,
2026_07_06_17_19_04.621,3.869,32.9,0,0.76,0,0,0,0, ,0,0,0,0,0, ,902.2,49.1,434.5,10.1,105.6,-6.2,25,884.012,40.3637,-82.9972,-15.3037,94.6622,-3.66043,
2026_07_06_17_19_04.637,3.869,33,0,0.761,0,0,0,0, ,0,0,0,0,0, ,872.8,56,510.2,8.4,96.9,-11.7,25,884.224,41.1063,-49.1558,-13.8075,95.0636,-3.98277,
2026_07_06_17_19_04.656,3.869,32.9,0,0.76,0,0,0,0, ,0,0,0,0,0, ,875.9,47.6,531.6,5.6,93.2,-5.5,25,883.623,41.758,-14.418,-12.5395,95.0628,-4.26413,
2026_07_06_17_19_04.675,3.869,33,0,0.762,0,0,0,0, ,0,0,0,0,0, ,839.9,61.1,548.2,5.6,88.6,-6,25,882.055,42.5253,19.3608,-11.4342,94.8091,-4.35467,
2026_07_06_17_19_04.697,3.869,33,0,0.761,0,0,0,0, ,0,0,0,0,0, ,808.5,70.3,577.3,4.5,67,-5.7,25,878.53,43.9375,52.4735,-10.4296,93.7726,-4.4458,
2026_07_06_17_19_04.716,3.869,33,0,0.761,0,0,0,0, ,0,0,0,0,0, ,809,67.5,613.4,4.2,45.9,-0.4,25,874.277,45.4587,85.5551,-9.52901,91.4983,-4.36074,
2026_07_06_17_19_04.736,3.869,33,0,0.76,0,0,0,0, ,0,0,0,0,0, ,788.4,67.3,649,0.3,42.5,-2,25,869.672,46.7957,118.805,-8.81123,88.6161,-4.16813,
2026_07_06_17_19_04.757,3.869,33,0,0.76,0,0,0,0, ,0,0,0,0,0, ,784.9,54.3,634.2,-3.1,52.5,-5.1,25,864.613,47.6491,150.663,-8.35961,86.1105,-4.13046,
2026_07_06_17_19_04.775,3.869,33,0,0.76,0,0,0,0, ,0,0,0,0,0, ,764.1,56.5,626.9,-4.9,58.1,-8.7,25,859.121,48.1214,179.906,-8.09395,84.233,-4.29923,
2026_07_06_17_19_04.795,3.869,33,0,0.761,0,0,0,0, ,0,0,0,0,0, ,766.9,57.3,620.2,-4.7,60.7,-12.1,25,853.416,48.6564,206.941,-7.89322,82.7198,-4.671,
2026_07_06_17_19_04.814,3.869,33,0,0.761,0,0,0,0, ,0,0,0,0,0, ,798.7,46.7,637.2,-4.4,82.3,-10.4,25,849.113,48.8601,232.642,-7.68949,82.0361,-5.07191,
2026_07_06_17_19_04.835,3.869,33,0,0.763,0,0,0,0, ,0,0,0,0,0, ,770.8,38.9,655.1,-0.7,122.3,-9.9,25,845.191,48.4908,257.84,-7.37631,83.2709,-5.38135,
2026_07_06_17_19_04.855,3.869,32.9,0,0.761,0,0,0,0, ,0,0,0,0,0, ,700.4,44.4,665,1.9,147.7,-13.3,25,838.513,48.074,282.35,-6.89025,86.4231,-5.7603,
2026_07_06_17_19_04.874,3.869,33,0,0.761,0,0,0,0, ,0,0,0,0,0, ,654.7,58.8,678.5,6.2,142.9,-10.3,25,828.704,48.2888,306.079,-6.22358,90.0109,-6.12835,
2026_07_06_17_19_04.893,3.869,32.9,0,0.761,0,0,0,0, ,0,0,0,0,0, ,619.5,64.8,739.9,11.3,118.7,-4.4,25,817.028,49.1122,330.644,-5.31113,92.4965,-6.20279,
2026_07_06_17_19_04.914,3.869,33,0,0.761,0,0,0,0, ,0,0,0,0,0, ,600.2,64.3,780.8,13.8,90.8,4.8,25,804.403,50.0529,356.829,-4.22271,93.2432,-5.81262,
2026_07_06_17_19_04.933,3.869,33,0,0.76,0,0,0,0, ,0,0,0,0,0, ,592.2,72.7,815.9,15.7,75.9,13.8,25,791.716,51.177,383.734,-3.06656,92.6404,-4.89169,
2026_07_06_17_19_04.953,3.869,33.1,0,0.761,0,0,0,0, ,0,0,0,0,0, ,587.2,75.8,838.8,17.2,75.5,15.2,25,779.406,52.583,410.767,-1.87727,91.6081,-3.71001,
2026_07_06_17_19_04.974,3.869,33,0,0.761,0,0,0,0, ,0,0,0,0,0, ,553.8,81.7,845.5,18.4,83.2,13.4,25,766.675,54.1776,437.054,-0.678189,90.8611,-2.61253,
2026_07_06_17_19_04.992,3.869,33,0,0.761,0,0,0,0, ,0,0,0,0,0, ,501.4,90.8,846.4,19,90.1,9.2,25,752.107,56.132,461.972,0.502669,90.6045,-1.76473,
2026_07_06_17_19_05.013,3.869,33,0,0.762,0,0,0,0, ,0,0,0,0,0, ,442,103.3,861.3,18,84.5,7.9,25,735.02,58.6254,485.852,1.59938,90.4031,-1.13618,
2026_07_06_17_19_05.032,3.869,32.9,0,0.762,0,0,0,0, ,0,0,0,0,0, ,417.2,106.8,875.2,17.9,73.5,5.9,25,716.408,61.4544,509.154,2.59575,89.7082,-0.646475,
2026_07_06_17_19_05.053,3.869,33,0,0.762,0,0,0,0, ,0,0,0,0,0, ,417.6,106.4,898,17.6,61.5,5.4,25,698.187,64.2055,532.155,3.51921,88.3549,-0.262784,
2026_07_06_17_19_05.077,3.869,33,0,0.76,0,0,0,0, ,0,0,0,0,0, ,404.1,97.9,898.3,16.8,50.6,6,25,680.678,66.5177,554.457,4.35288,86.3863,0.100573,
2026_07_06_17_19_05.092,3.869,33.1,0,0.762,0,0,0,0, ,0,0,0,0,0, ,361.9,109.7,901.9,11.5,36.6,6.9,25,662.538,68.7896,575.52,4.94989,83.779,0.487492,
2026_07_06_17_19_05.112,3.869,33.1,0,0.761,0,0,0,0, ,0,0,0,0,0, ,345,119.9,908,10.7,14.6,6.2,25,643.703,71.5934,595.595,5.32467,80.2338,0.856926,
2026_07_06_17_19_05.131,3.869,32.9,0,0.761,0,0,0,0, ,0,0,0,0,0, ,341.7,122.3,937.3,7.5,-0.6,5.9,25,625.4,74.6102,615.525,5.55473,75.7711,1.17338,
2026_07_06_17_19_05.150,3.869,33,0,0.759,0,0,0,0, ,0,0,0,0,0, ,359.1,123.6,958.1,4.6,3.2,3.9,25,608.642,77.5559,635.767,5.58491,71.233,1.40047,
2026_07_06_17_19_05.171,3.869,33.1,0,0.76,0,0,0,0, ,0,0,0,0,0, ,370.9,115.1,937.1,6.8,15.2,-4.9,25,593.795,80.1027,654.769,5.59192,67.4529,1.28466,
2026_07_06_17_19_05.191,3.869,33,0,0.761,0,0,0,0, ,0,0,0,0,0, ,380.4,123.6,925.9,6.5,15.9,-8.6,25,580.502,82.4944,671.632,5.6564,64.29,0.795048,
2026_07_06_17_19_05.210,3.869,32.9,0,0.761,0,0,0,0, ,0,0,0,0,0, ,385.8,119.9,924.1,4.8,9,-7,25,568.473,84.8865,687.072,5.65601,61.131,0.271287,
2026_07_06_17_19_05.230,3.869,33,0,0.761,0,0,0,0, ,0,0,0,0,0, ,397.3,125.4,925.9,5.6,-6.7,0.4,25,557.692,87.1877,701.571,5.62822,57.4759,0.0536617,
2026_07_06_17_19_05.250,3.869,32.9,0,0.761,0,0,0,0, ,0,0,0,0,0, ,378.4,129.6,949.7,2.4,-12,4.3,25,547.342,89.6442,715.966,5.529,53.4037,0.193595,
2026_07_06_17_19_05.270,3.869,33,0,0.76,0,0,0,0, ,0,0,0,0,0, ,378.2,128.2,948.7,1,-8.7,1.8,25,537.041,92.0364,730.178,5.29567,49.5187,0.367657,
2026_07_06_17_19_05.292,3.869,33,0,0.761,0,0,0,0, ,0,0,0,0,0, ,392.8,124.2,934.6,1.1,-4.7,-2,25,527.806,94.1182,743.065,5.03695,46.0929,0.339159,
2026_07_06_17_19_05.310,3.869,32.9,0,0.761,0,0,0,0, ,0,0,0,0,0, ,406.9,122.6,912.9,1,-2.7,-2.7,25,520.009,95.9026,754.076,4.79399,43.0587,0.175289,
2026_07_06_17_19_05.328,3.869,33,0,0.761,0,0,0,0, ,0,0,0,0,0, ,399.7,126.8,911.9,1.4,-6.5,0,25,512.897,97.6574,763.723,4.57499,40.1545,0.0823413,
2026_07_06_17_19_05.349,3.869,32.9,0,0.762,0,0,0,0, ,0,0,0,0,0, ,400,127.1,933.8,0.6,-8.6,1.4,25,506.008,99.4424,773.42,4.35713,37.2475,0.11998,
2026_07_06_17_19_05.369,3.869,32.9,0,0.761,0,0,0,0, ,0,0,0,0,0, ,396.9,126,931.2,-0.3,-3.6,-0.3,25,499.454,101.094,783.114,4.10076,34.606,0.146184,
2026_07_06_17_19_05.389,3.869,33,0,0.76,0,0,0,0, ,0,0,0,0,0, ,390.3,123.4,915.6,-1.1,-1.1,-2,25,493.004,102.533,791.663,3.80822,32.354,0.067198,
2026_07_06_17_19_05.409,3.869,32.9,0,0.761,0,0,0,0, ,0,0,0,0,0, ,392.8,123.1,906,-0.9,-2.3,-2.3,25,486.821,103.795,798.923,3.51522,30.2788,-0.0679125,
2026_07_06_17_19_05.428,3.869,32.9,0,0.762,0,0,0,0, ,0,0,0,0,0, ,403.6,125,907.4,-0.8,-5.4,-0.6,25,481.421,105.03,805.49,3.24921,28.1991,-0.152133,
2026_07_06_17_19_05.448,3.869,32.9,0,0.761,0,0,0,0, ,0,0,0,0,0, ,411.3,122.3,912.2,-0.4,-9.1,1.6,25,476.913,106.164,811.847,3.01465,26.0389,-0.112394,
2026_07_06_17_19_05.468,3.869,32.9,0,0.76,0,0,0,0, ,0,0,0,0,0, ,401.8,121.4,909.4,-1.3,-11,3.3,25,472.625,107.12,817.877,2.77915,23.8397,0.0437518,
2026_07_06_17_19_05.488,3.869,33,0,0.759,0,0,0,0, ,0,0,0,0,0, ,395.1,124.7,912.7,-2.1,-13,3,25,468.105,108.091,823.554,2.5062,21.6558,0.233039,
2026_07_06_17_19_05.509,3.869,33,0,0.76,0,0,0,0, ,0,0,0,0,0, ,408.6,121.8,908.9,-2.7,-14.2,1.5,25,464.068,109.015,828.871,2.20723,19.5074,0.355947,
2026_07_06_17_19_05.527,3.869,33.1,0,0.763,0,0,0,0, ,0,0,0,0,0, ,433.5,117.5,905.5,-1.9,-15.2,2,25,461.447,109.663,833.644,1.93257,17.4228,0.440897,
2026_07_06_17_19_05.547,3.869,32.9,0,0.762,0,0,0,0, ,0,0,0,0,0, ,446.2,119.1,908.9,-1.9,-16.5,3.3,25,460.131,110.189,838.126,1.69902,15.3953,0.575515,
2026_07_06_17_19_05.566,3.869,32.9,0,0.76,0,0,0,0, ,0,0,0,0,0, ,452,119.8,909.7,-2.4,-23.8,5.6,25,459.458,110.753,842.464,1.46447,13.2292,0.811616,
2026_07_06_17_19_05.587,3.869,33,0,0.761,0,0,0,0, ,0,0,0,0,0, ,473.7,119.8,903.1,-5,-39.2,8.1,25,459.665,111.305,846.36,1.14976,10.5036,1.17958,
2026_07_06_17_19_05.607,3.869,32.9,0,0.762,0,0,0,0, ,0,0,0,0,0, ,496.7,115.8,910.2,-8,-66.9,15.6,25,461.221,111.7,850.034,0.683604,6.63076,1.82981,
2026_07_06_17_19_05.626,3.869,32.9,0,0.76,0,0,0,0, ,0,0,0,0,0, ,510.1,115.7,911.2,-12.4,-105.5,25.1,25,463.791,111.947,853.731,0.0203847,0.973886,2.95838,
2026_07_06_17_19_05.646,3.869,33,0,0.76,0,0,0,0, ,0,0,0,0,0, ,550.9,109.1,865.4,-16.1,-141,31.4,25,467.856,111.975,855.837,-0.849217,-6.59601,4.49959,
2026_07_06_17_19_05.665,3.869,32.9,0,0.761,0,0,0,0, ,0,0,0,0,0, ,571.1,82.2,855.2,-15.8,-168.6,35.5,25,473.532,110.98,856.109,-1.76942,-15.6272,6.26376,
2026_07_06_17_19_05.686,3.869,33,0,0.761,0,0,0,0, ,0,0,0,0,0, ,629.2,83.9,787.5,-15.4,-177.4,37.8,25,481.248,109.278,853.991,-2.61222,-25.2171,8.11542,
2026_07_06_17_19_05.705,3.869,32.9,0,0.761,0,0,0,0, ,0,0,0,0,0, ,658.4,74.7,779.5,-13,-163.7,35.6,25,491.154,107.451,849.695,-3.31835,-34.0733,9.85729,
2026_07_06_17_19_05.725,3.869,32.9,0,0.761,0,0,0,0, ,0,0,0,0,0, ,686.6,61,759.1,-14.1,-144.3,29.8,25,502.204,105.038,844.796,-3.94184,-41.3813,11.2493,
2026_07_06_17_19_05.744,3.869,32.9,0,0.76,0,0,0,0, ,0,0,0,0,0, ,710.6,43.5,695.3,-16.8,-131.4,23.7,25,514.172,101.821,837.63,-4.64312,-47.2599,12.1938,
2026_07_06_17_19_05.765,3.869,32.9,0,0.762,0,0,0,0, ,0,0,0,0,0, ,729.1,22,604.2,-17.1,-130.6,21.1,25,526.706,97.6122,826.181,-5.39307,-52.3628,12.8158,
2026_07_06_17_19_05.785,3.869,32.9,0,0.761,0,0,0,0, ,0,0,0,0,0, ,784.5,3.1,562.5,-12.8,-130.1,22.2,25,540.727,92.4287,811.384,-5.97545,-57.1152,13.3541,
2026_07_06_17_19_05.805,3.869,32.9,0,0.76,0,0,0,0, ,0,0,0,0,0, ,813.7,-3.7,542.2,-7,-119.2,20.4,25,556.472,86.7781,795.599,-6.2146,-61.2306,13.8383,
2026_07_06_17_19_05.824,3.869,32.9,0,0.761,0,0,0,0, ,0,0,0,0,0, ,822.7,-14.2,530.8,-4,-109.2,19.3,25,572.421,80.9447,779.81,-6.17105,-64.4584,14.2047,
2026_07_06_17_19_05.844,3.869,33,0,0.762,0,0,0,0, ,0,0,0,0,0, ,829.2,-17.3,480.2,-2.3,-104.5,17.9,25,587.87,75.0523,763.094,-5.98696,-67.0416,14.4725,
2026_07_06_17_19_05.864,3.869,32.9,0,0.761,0,0,0,0, ,0,0,0,0,0, ,830.8,-20.5,441.4,-4.7,-111,17.2,25,602.625,69.3271,744.673,-5.83541,-69.5223,14.66,
2026_07_06_17_19_05.884,3.869,32.9,0,0.76,0,0,0,0, ,0,0,0,0,0, ,836,-16.9,420.2,-2.8,-116.7,16.8,25,616.688,63.963,725.547,-5.70833,-72.2235,14.8026,
2026_07_06_17_19_05.904,3.869,32.9,0,0.761,0,0,0,0, ,0,0,0,0,0, ,867.3,-23,384.8,-1.2,-117,13.3,25,631.006,58.8495,705.861,-5.48235,-74.9429,14.8177,
2026_07_06_17_19_05.923,3.869,32.8,0,0.76,0,0,0,0, ,0,0,0,0,0, ,922.2,-29.4,377.4,0.9,-99.9,11.5,25,647.078,53.6668,686.071,-5.15741,-76.9848,14.6704,
2026_07_06_17_19_05.943,3.869,32.9,0,0.761,0,0,0,0, ,0,0,0,0,0, ,946.6,-41.1,361.3,-0.4,-83.2,9.7,25,664.586,48.2484,666.771,-4.8279,-77.8723,14.4223,
2026_07_06_17_19_05.963,3.869,33,0,0.759,0,0,0,0, ,0,0,0,0,0, ,927.9,-44.6,317.7,0.3,-75.9,10,25,681.202,42.6971,646.828,-4.53675,-77.9746,14.1437,
2026_07_06_17_19_05.982,3.869,32.9,0,0.761,0,0,0,0, ,0,0,0,0,0, ,926.3,-62.2,298.9,1.7,-79.4,9.5,25,696.186,36.8412,626.199,-4.19935,-77.9548,13.876,
2026_07_06_17_19_06.002,3.869,32.9,0,0.761,0,0,0,0, ,0,0,0,0,0, ,905.8,-27.3,256.5,3.4,-82.3,6.5,25,709.584,31.8692,604.962,-3.78806,-78.1312,13.5179,
2026_07_06_17_19_06.021,3.869,33,0,0.761,0,0,0,0, ,0,0,0,0,0, ,941.4,-48.3,223.9,5.1,-82.7,3.8,25,722.626,27.6238,582.734,-3.29824,-78.3974,13.008,
2026_07_06_17_19_06.041,3.869,33.1,0,0.76,0,0,0,0, ,0,0,0,0,0, ,953.9,-46.2,188.1,11.1,-89.1,7.2,25,736.338,23.0612,559.777,-2.60366,-78.8546,12.5505,
2026_07_06_17_19_06.061,3.869,33,0,0.761,0,0,0,0, ,0,0,0,0,0, ,950.4,-48.8,158,24.9,-99.9,15.5,25,749.489,18.7613,536.211,-1.34813,-79.808,12.4773,
2026_07_06_17_19_06.080,3.869,32.9,0,0.76,0,0,0,0, ,0,0,0,0,0, ,943.1,-57.2,150.6,29.2,-106.3,13.5,25,761.51,14.3884,512.938,0.382384,-81.2274,12.6006,
2026_07_06_17_19_06.101,3.869,32.9,0,0.761,0,0,0,0, ,0,0,0,0,0, ,942.7,-52.6,128,27.2,-113.7,9,25,772.563,10.1661,490.17,2.07752,-82.9807,12.5183,
2026_07_06_17_19_06.122,3.869,32.9,0,0.762,0,0,0,0, ,0,0,0,0,0, ,951.1,-49.9,83.3,27.4,-115.3,8.9,25,783.187,6.42358,466.738,3.61451,-84.9014,12.3008,
2026_07_06_17_19_06.141,3.869,32.9,0,0.761,0,0,0,0, ,0,0,0,0,0, ,978,-54,37.4,30,-110.1,6.2,25,794.239,2.86644,441.974,5.14316,-86.5954,12.0113,
2026_07_06_17_19_06.160,3.869,32.8,0,0.761,0,0,0,0, ,0,0,0,0,0, ,1001.8,-65.7,7.6,21.9,-99.6,1.5,25,806.162,-0.955344,416.412,6.41108,-87.7078,11.514,
2026_07_06_17_19_06.180,3.869,32.9,0,0.76,0,0,0,0, ,0,0,0,0,0, ,979.1,-78.4,-36.8,20.9,-95.4,3,25,817.392,-5.28767,390.147,7.32447,-88.3045,10.9495,
2026_07_06_17_19_06.200,3.869,32.9,0,0.761,0,0,0,0, ,0,0,0,0,0, ,955.4,-72.5,-75.6,19.4,-107.2,5.6,25,826.524,-9.56319,362.948,8.10602,-89.0964,10.5443,
2026_07_06_17_19_06.220,3.869,32.9,0,0.762,0,0,0,0, ,0,0,0,0,0, ,994.1,-67,-120.4,15.5,-109.2,7.8,25,835.556,-13.2308,334.859,8.67542,-90.2605,10.31,
2026_07_06_17_19_06.240,3.869,33,0,0.761,0,0,0,0, ,0,0,0,0,0, ,1003.7,-71.2,-148.9,15.4,-94.8,8.6,25,845.51,-16.6354,306.248,9.08825,-90.9759,10.1814,
2026_07_06_17_19_06.260,3.869,32.9,0,0.76,0,0,0,0, ,0,0,0,0,0, ,991.3,-72.3,-144.4,15.5,-93.6,7.4,25,854.772,-19.9939,278.65,9.47592,-91.1724,10.0485,
2026_07_06_17_19_06.279,3.869,32.9,0,0.76,0,0,0,0, ,0,0,0,0,0, ,982.1,-73.3,-175.1,9.8,-102.8,11.2,25,862.811,-23.2118,251.935,9.66934,-91.6006,10.0029,
2026_07_06_17_19_06.299,3.869,32.9,0,0.76,0,0,0,0, ,0,0,0,0,0, ,975.3,-94.8,-224.2,1.2,-106.1,16.1,25,869.873,-26.9191,224.416,9.41527,-92.3836,10.2251,
2026_07_06_17_19_06.318,3.869,32.9,0,0.761,0,0,0,0, ,0,0,0,0,0, ,933.8,-99.8,-290,-5.5,-110.8,22,25,875.033,-31.2079,195.074,8.71051,-93.3627,10.7629,
2026_07_06_17_19_06.339,3.869,32.9,0,0.762,0,0,0,0, ,0,0,0,0,0, ,929.6,-100.8,-351.4,-1.2,-116.3,24,25,878.486,-35.4182,163.644,7.97557,-94.5928,11.5086,
2026_07_06_17_19_06.358,3.869,32.9,0,0.763,0,0,0,0, ,0,0,0,0,0, ,898,-112.3,-367,0.4,-122.5,19.4,25,880.638,-39.7528,131.783,7.46519,-96.1045,12.1296,
2026_07_06_17_19_06.378,3.869,32.9,0,0.761,0,0,0,0, ,0,0,0,0,0, ,901.4,-119,-398.6,-7.9,-125.8,25.1,25,881.8,-44.3778,100.426,6.78176,-97.8135,12.7463,
2026_07_06_17_19_06.398,3.869,32.9,0,0.761,0,0,0,0, ,0,0,0,0,0, ,890.3,-130.6,-388.1,-12,-121,31.7,25,882.656,-49.2785,70.3363,5.76217,-99.3727,13.7002,
2026_07_06_17_19_06.418,3.869,32.9,0,0.759,0,0,0,0, ,0,0,0,0,0, ,884.3,-133.9,-450.3,-13,-104.3,28.8,25,882.939,-54.3346,40.5052,4.64932,-100.182,14.7087,
2026_07_06_17_19_06.437,3.869,33,0,0.76,0,0,0,0, ,0,0,0,0,0, ,841.9,-143.5,-499.1,-12.2,-96.1,27.2,25,881.73,-59.4756,9.10985,3.59819,-100.183,15.5187,
2026_07_06_17_19_06.457,3.869,32.9,0,0.761,0,0,0,0, ,0,0,0,0,0, ,807.8,-147.2,-519.7,-17.3,-105.7,26.3,25,878.264,-64.7086,-22.4868,2.48009,-100.227,16.2031,
2026_07_06_17_19_06.484,3.869,33,0,0.761,0,0,0,0, ,0,0,0,0,0, ,807.3,-161.1,-559.9,-17.6,-117.7,32.4,25,873.955,-70.1589,-54.0106,1.2656,-100.926,17.0042,
2026_07_06_17_19_06.501,3.869,33,0,0.762,0,0,0,0, ,0,0,0,0,0, ,802.9,-167.2,-611.6,-14.7,-113.2,33.9,25,869.759,-75.8865,-86.4135,0.204342,-101.811,17.9881,
2026_07_06_17_19_06.516,3.869,32.9,0,0.761,0,0,0,0, ,0,0,0,0,0, ,767.2,-173.9,-634.5,-11.6,-94.1,25.8,25,864.597,-81.6551,-119.115,-0.609439,-101.923,18.7109,
2026_07_06_17_19_06.536,3.869,32.9,0,0.76,0,0,0,0, ,0,0,0,0,0, ,713.6,-171.8,-651.1,-11.7,-79.8,18.4,25,857.029,-87.2123,-151.027,-1.28222,-101.011,18.9175,
2026_07_06_17_19_06.556,3.869,32.9,0,0.761,0,0,0,0, ,0,0,0,0,0, ,702.3,-166.7,-660.1,-7.2,-77.1,16,25,847.944,-92.2114,-181.774,-1.77995,-99.6357,18.8128,
2026_07_06_17_19_06.577,3.869,33,0,0.762,0,0,0,0, ,0,0,0,0,0, ,686.8,-171.3,-664.4,-6.4,-76.7,11.8,25,838.597,-96.8907,-211.053,-2.08586,-98.2503,18.5134,
2026_07_06_17_19_06.596,3.869,32.9,0,0.76,0,0,0,0, ,0,0,0,0,0, ,674.1,-183.2,-693.8,-8.1,-77.6,12.5,25,828.96,-101.788,-239.575,-2.40055,-96.9645,18.1257,
2026_07_06_17_19_06.616,3.869,33.1,0,0.759,0,0,0,0, ,0,0,0,0,0, ,651.2,-184.2,-734,-7.1,-79.8,14,25,818.825,-106.779,-268.479,-2.71739,-95.8515,17.8285,
2026_07_06_17_19_06.636,3.869,33,0,0.76,0,0,0,0, ,0,0,0,0,0, ,647,-181.6,-727.9,-6.8,-80.1,13.8,25,808.483,-111.418,-296.661,-2.97531,-94.8825,17.5892,
2026_07_06_17_19_06.655,3.869,32.9,0,0.761,0,0,0,0, ,0,0,0,0,0, ,607.9,-180.9,-734.3,-11.8,-77.4,12.9,25,797.451,-115.673,-323.134,-3.36072,-93.8994,17.3308,
2026_07_06_17_19_06.675,3.869,32.9,0,0.761,0,0,0,0, ,0,0,0,0,0, ,609.4,-191.6,-760.7,-10.8,-68.4,8.5,25,785.946,-119.974,-348.994,-3.84452,-92.6198,16.9268,
2026_07_06_17_19_06.694,3.869,33,0,0.761,0,0,0,0, ,0,0,0,0,0, ,569.5,-186.4,-788.5,-11.9,-53.5,3,25,773.972,-124.18,-374.93,-4.30189,-90.6899,16.2457,
2026_07_06_17_19_06.714,3.869,33,0,0.76,0,0,0,0, ,0,0,0,0,0, ,566.5,-188.4,-805,-8.7,-34.8,-1.9,25,761.421,-128.033,-400.634,-4.6674,-87.8539,15.2892,
2026_07_06_17_19_06.734,3.869,32.9,0,0.759,0,0,0,0, ,0,0,0,0,0, ,535.8,-178.8,-839.3,-1.4,-19.8,-6.1,25,748.607,-131.419,-426.32,-4.69071,-84.1639,14.1138,
2026_07_06_17_19_06.754,3.869,33,0,0.76,0,0,0,0, ,0,0,0,0,0, ,515.8,-165.6,-846.6,0.9,-11.3,-12.9,25,735.03,-133.904,-451.709,-4.42011,-79.9827,12.6748,
2026_07_06_17_19_06.774,3.869,33,0,0.761,0,0,0,0, ,0,0,0,0,0, ,540.5,-168.8,-818.6,2.9,-13.7,-14.9,25,722.423,-135.933,-474.919,-4.03498,-75.8705,11.0554,
2026_07_06_17_19_06.794,3.869,33,0,0.761,0,0,0,0, ,0,0,0,0,0, ,562.8,-167.1,-773.3,-1.3,-17,-12,25,712.017,-137.884,-494.482,-3.74034,-72.1825,9.56212,
2026_07_06_17_19_06.814,3.869,32.9,0,0.761,0,0,0,0, ,0,0,0,0,0, ,564.9,-159.3,-788.5,-7,-12.4,-10,25,702.988,-139.427,-511.936,-3.76531,-68.6797,8.30912,
2026_07_06_17_19_06.834,3.869,33,0,0.761,0,0,0,0, ,0,0,0,0,0, ,588.5,-167.2,-814.8,-7.2,2.7,-14.1,25,695.292,-140.878,-529.59,-3.96852,-64.79,7.06848,
2026_07_06_17_19_06.856,3.869,32.9,0,0.76,0,0,0,0, ,0,0,0,0,0, ,588.5,-166.3,-842,-4.9,18.8,-16.6,25,688.784,-142.455,-547.799,-4.09536,-60.1868,5.70236,
2026_07_06_17_19_06.873,3.869,32.8,0,0.761,0,0,0,0, ,0,0,0,0,0, ,582.6,-164.3,-811.7,-3.5,21.2,-18.1,25,682.494,-143.847,-564.804,-4.10173,-55.3004,4.2976,
2026_07_06_17_19_06.893,3.869,33,0,0.761,0,0,0,0, ,0,0,0,0,0, ,603.5,-156.7,-744.5,-4.5,3.7,-12.4,25,677.043,-144.862,-577.801,-4.09553,-51.1719,3.10642,
2026_07_06_17_19_06.912,3.869,33,0,0.761,0,0,0,0, ,0,0,0,0,0, ,587.1,-139.2,-760.1,-11.1,-2.3,-9.5,25,672.062,-145.05,-588.435,-4.32127,-48.011,2.24986,
2026_07_06_17_19_06.931,3.869,33,0,0.76,0,0,0,0, ,0,0,0,0,0, ,599.4,-149.6,-793.3,-15.2,7.4,-11.2,25,667.259,-145.01,-599.907,-4.85927,-44.9299,1.48205,
2026_07_06_17_19_06.952,3.869,32.9,0,0.761,0,0,0,0, ,0,0,0,0,0, ,607.9,-152.9,-813.1,-14.7,10,-10.8,25,663.383,-145.391,-612.295,-5.47418,-41.6618,0.721429,
2026_07_06_17_19_06.971,3.869,33,0,0.762,0,0,0,0, ,0,0,0,0,0, ,598.8,-134.5,-807.9,-12.1,10,-9.7,25,659.725,-145.288,-624.373,-5.95716,-38.5137,0.0528579,
2026_07_06_17_19_06.991,3.869,33,0,0.761,0,0,0,0, ,0,0,0,0,0, ,626.3,-143.7,-817.1,-8.9,6.3,-9.2,25,656.85,-144.911,-635.837,-6.23399,-35.6701,-0.526222,
2026_07_06_17_19_07.012,3.869,33,0,0.761,0,0,0,0, ,0,0,0,0,0, ,618.1,-130.3,-833.7,-7.6,-0.1,-3.9,25,654.739,-144.429,-647.389,-6.35684,-33.3076,-0.893296,
2026_07_06_17_19_07.031,3.869,32.9,0,0.761,0,0,0,0, ,0,0,0,0,0, ,591.6,-117.1,-790.4,-8.1,-6.6,-1,25,651.699,-143.165,-657.423,-6.44783,-31.482,-0.988158,
2026_07_06_17_19_07.051,3.869,32.9,0,0.761,0,0,0,0, ,0,0,0,0,0, ,580.3,-114.7,-783.8,-11.5,-3,-2.5,25,647.692,-141.504,-665.325,-6.6521,-29.8561,-1.03458,
2026_07_06_17_19_07.071,3.869,33,0,0.761,0,0,0,0, ,0,0,0,0,0, ,566.8,-115.7,-790.5,-14.2,7.9,-6.3,25,643.174,-139.901,-672.749,-7.02978,-27.8874,-1.23966,
2026_07_06_17_19_07.091,3.869,32.8,0,0.762,0,0,0,0, ,0,0,0,0,0, ,566,-119.3,-812.9,-13.3,13.1,-9.6,25,638.496,-138.536,-680.607,-7.4393,-25.5482,-1.64857,
2026_07_06_17_19_07.111,3.869,33.1,0,0.761,0,0,0,0, ,0,0,0,0,0, ,579.9,-120.6,-817.1,-10.4,16.5,-10.6,25,634.501,-137.403,-688.796,-7.70808,-23.0895,-2.16358,
2026_07_06_17_19_07.131,3.869,33,0,0.761,0,0,0,0, ,0,0,0,0,0, ,580,-114.8,-798.5,-9.2,18.9,-11.3,25,631.177,-136.203,-696.048,-7.83555,-20.6039,-2.699,
2026_07_06_17_19_07.150,3.869,33,0,0.76,0,0,0,0, ,0,0,0,0,0, ,581.5,-101.9,-782.4,-3.8,12.1,-10.1,25,628.104,-134.505,-701.801,-7.75417,-18.4038,-3.18657,
2026_07_06_17_19_07.169,3.869,33,0,0.762,0,0,0,0, ,0,0,0,0,0, ,586,-107.5,-790.1,-2.1,3.3,-9.4,25,625.401,-132.689,-706.947,-7.46141,-16.8131,-3.58652,
2026_07_06_17_19_07.189,3.869,33,0,0.76,0,0,0,0, ,0,0,0,0,0, ,592,-101.5,-815.4,-2.7,2.6,-9,25,623.183,-130.971,-712.785,-7.15298,-15.6088,-3.9286,
2026_07_06_17_19_07.209,3.869,33,0,0.761,0,0,0,0, ,0,0,0,0,0, ,612.5,-105.4,-784.9,-2.6,0,-8.7,25,621.908,-129.294,-718.109,-6.87858,-14.5784,-4.22849,
2026_07_06_17_19_07.229,3.869,33,0,0.763,0,0,0,0, ,0,0,0,0,0, ,615.2,-99.9,-780.2,-3,-2.7,-7.7,25,621.417,-127.671,-722.036,-6.63004,-13.7723,-4.47051,
2026_07_06_17_19_07.249,3.869,33.1,0,0.761,0,0,0,0, ,0,0,0,0,0, ,626.5,-100.3,-776,-6.9,-2.4,-5.4,25,621.382,-125.991,-725.452,-6.52767,-13.0884,-4.59723,
2026_07_06_17_19_07.269,3.869,33,0,0.76,0,0,0,0, ,0,0,0,0,0, ,614.7,-92.4,-785.6,-7.3,0,-4.2,25,621.334,-124.184,-728.825,-6.56254,-12.364,-4.60958,
2026_07_06_17_19_07.289,3.869,32.9,0,0.762,0,0,0,0, ,0,0,0,0,0, ,600.2,-90.2,-791.7,-5.9,-2.1,-2.5,25,620.488,-122.18,-732.47,-6.56483,-11.6745,-4.53283,
2026_07_06_17_19_07.308,3.869,33,0,0.761,0,0,0,0, ,0,0,0,0,0, ,586.4,-80.8,-803.5,-5.5,-4.5,-5.9,25,618.832,-119.945,-736.439,-6.51213,-11.1642,-4.51255,
2026_07_06_17_19_07.328,3.869,33,0,0.761,0,0,0,0, ,0,0,0,0,0, ,596.9,-86.4,-785.7,-3.1,-7.3,-5,25,617.175,-117.73,-739.983,-6.37732,-10.8434,-4.56967,
2026_07_06_17_19_07.348,3.869,33,0,0.76,0,0,0,0, ,0,0,0,0,0, ,604.9,-89.1,-796.6,-5.5,-3.2,-5.2,25,616.183,-115.904,-743.101,-6.25074,-10.5026,-4.60199,
2026_07_06_17_19_07.368,3.869,33,0,0.761,0,0,0,0, ,0,0,0,0,0, ,617.3,-92.7,-808.2,-5.4,4,-4.7,25,615.874,-114.38,-746.715,-6.20194,-9.8382,-4.6232,
2026_07_06_17_19_07.387,3.869,33,0,0.762,0,0,0,0, ,0,0,0,0,0, ,600.7,-86.9,-791.8,-4.2,3.8,-4.2,25,615.455,-112.882,-749.962,-6.11651,-9.00103,-4.61264,
2026_07_06_17_19_07.408,3.869,33,0,0.761,0,0,0,0, ,0,0,0,0,0, ,583.3,-71.6,-766.9,-2.3,-5,-1.8,25,614.025,-110.833,-751.753,-5.94183,-8.48909,-4.51437,
2026_07_06_17_19_07.427,3.869,32.9,0,0.761,0,0,0,0, ,0,0,0,0,0, ,581.4,-76.5,-777.7,-3.5,-6.6,-3.8,25,612.095,-108.591,-753.005,-5.75647,-8.32523,-4.4099,
2026_07_06_17_19_07.446,3.869,33,0,0.761,0,0,0,0, ,0,0,0,0,0, ,597,-79.9,-780.3,-5.1,2.2,-6.3,25,610.7,-106.739,-754.589,-5.66772,-7.95197,-4.44891,
2026_07_06_17_19_07.466,3.869,33,0,0.761,0,0,0,0, ,0,0,0,0,0, ,605.4,-80.5,-786.2,-6.4,10.6,-7.8,25,610.121,-105.122,-756.335,-5.67273,-7.0774,-4.60741,
2026_07_06_17_19_07.487,3.869,33,0,0.76,0,0,0,0, ,0,0,0,0,0, ,666.7,-81,-833.3,-5.3,-0.3,-1.6,25,611.701,-103.637,-759.59,-5.68353,-6.33229,-4.61305,
2026_07_06_17_19_07.506,3.869,33.1,0,0.763,0,0,0,0, ,0,0,0,0,0, ,603.6,-69.4,-863.1,0,-7.2,-0.7,25,613.13,-101.904,-764.99,-5.49868,-6.17493,-4.40202,
2026_07_06_17_19_07.526,3.869,33,0,0.761,0,0,0,0, ,0,0,0,0,0, ,610.4,-75.5,-806.1,0.7,0.4,0.4,25,612.757,-100.109,-769.232,-5.14227,-6.00584,-4.14292,
2026_07_06_17_19_07.545,3.869,33,0,0.76,0,0,0,0, ,0,0,0,0,0, ,592.2,-75.6,-786.2,-0.7,1.2,-1.4,25,612.058,-98.6125,-770.872,-4.82892,-5.5911,-3.92093,
2026_07_06_17_19_07.566,3.869,33,0,0.76,0,0,0,0, ,0,0,0,0,0, ,597.7,-80.9,-798.3,-0.7,0.4,-2,25,611.016,-97.3717,-772.175,-4.57731,-5.20165,-3.78559,
2026_07_06_17_19_07.585,3.869,33.1,0,0.761,0,0,0,0, ,0,0,0,0,0, ,601.3,-77,-806.8,1.6,2.7,-2.4,25,610.314,-96.2491,-774.026,-4.27096,-4.79022,-3.68897,
2026_07_06_17_19_07.605,3.869,33,0,0.761,0,0,0,0, ,0,0,0,0,0, ,601.4,-74.7,-794.6,2.8,4.6,-2.5,25,609.768,-95.006,-775.651,-3.87664,-4.27589,-3.61347,
2026_07_06_17_19_07.625,3.869,32.9,0,0.762,0,0,0,0, ,0,0,0,0,0, ,602.6,-78.9,-768.6,0.6,2.6,-2.2,25,609.295,-93.8966,-776.014,-3.53681,-3.79596,-3.53647,
2026_07_06_17_19_07.644,3.869,32.9,0,0.761,0,0,0,0, ,0,0,0,0,0, ,605.2,-78.3,-775.6,-1.5,-0.2,-1.9,25,608.966,-92.9645,-775.775,-3.34871,-3.49151,-3.44589,
2026_07_06_17_19_07.665,3.869,32.9,0,0.761,0,0,0,0, ,0,0,0,0,0, ,603.8,-80.2,-796.7,-1.1,0.1,-2,25,608.694,-92.1287,-776.408,-3.22386,-3.2818,-3.35474,
2026_07_06_17_19_07.685,3.869,32.9,0,0.76,0,0,0,0, ,0,0,0,0,0, ,605.5,-77.3,-802,0.1,1.9,-2,25,608.447,-91.3135,-777.806,-3.05788,-3.02088,-3.27218,
2026_07_06_17_19_07.705,3.869,33,0,0.761,0,0,0,0, ,0,0,0,0,0, ,603.6,-73.4,-793.9,0.8,3.8,-2.9,25,608.21,-90.3407,-779.033,-2.84412,-2.66312,-3.22208,
2026_07_06_17_19_07.725,3.869,33,0,0.761,0,0,0,0, ,0,0,0,0,0, ,607.6,-81.9,-782.1,0.9,3.1,-2.6,25,608.051,-89.5674,-779.58,-2.61901,-2.2906,-3.19331,
2026_07_06_17_19_07.744,3.869,33,0,0.761,0,0,0,0, ,0,0,0,0,0, ,608.7,-82.1,-781.1,0.6,2.1,-2.2,25,608.057,-89.1062,-779.703,-2.41371,-1.99258,-3.14497,
2026_07_06_17_19_07.763,3.869,33,0,0.761,0,0,0,0, ,0,0,0,0,0, ,609.8,-76.9,-793,-0.6,3,-1.9,25,608.129,-88.5208,-780.15,-2.26662,-1.71577,-3.07825,
2026_07_06_17_19_07.784,3.869,33,0,0.762,0,0,0,0, ,0,0,0,0,0, ,610.8,-76.2,-766.7,-0.8,1.5,-1.8,25,608.262,-87.7914,-780.132,-2.17116,-1.4741,-3.0034,
2026_07_06_17_19_07.803,3.869,33,0,0.761,0,0,0,0, ,0,0,0,0,0, ,608.1,-80.6,-783.8,-1.6,-0.1,-2.3,25,608.334,-87.2191,-779.835,-2.11198,-1.34162,-2.9453,
2026_07_06_17_19_07.823,3.869,33,0,0.761,0,0,0,0, ,0,0,0,0,0, ,610.4,-83.2,-792.7,-0.1,0.4,-2.1,25,608.39,-86.8949,-780.347,-2.03507,-1.25072,-2.89989,
2026_07_06_17_19_07.843,3.869,33,0,0.761,0,0,0,0, ,0,0,0,0,0, ,611.5,-82.5,-776.7,0.4,1.3,-2.2,25,608.546,-86.6485,-780.613,-1.90192,-1.12271,-2.85419,
2026_07_06_17_19_07.866,3.869,33,0,0.761,0,0,0,0, ,0,0,0,0,0, ,612.3,-78,-771.6,-0.7,-0.5,-2.2,25,608.75,-86.2586,-780.219,-1.79516,-1.02992,-2.81432,
2026_07_06_17_19_07.883,3.869,33,0,0.761,0,0,0,0, ,0,0,0,0,0, ,611.4,-80.8,-782.1,-2.5,-1.8,-1.7,25,608.939,-85.8406,-780.014,-1.78327,-1.03724,-2.76165,
2026_07_06_17_19_07.902,3.869,33,0,0.761,0,0,0,0, ,0,0,0,0,0, ,611.5,-81.1,-791.5,-2.5,-1.6,-1.6,25,609.092,-85.5426,-780.427,-1.82695,-1.07762,-2.69391,
2026_07_06_17_19_07.923,3.869,33,0,0.761,0,0,0,0, ,0,0,0,0,0, ,610.9,-81.7,-798.4,-0.9,1.1,-1.9,25,609.221,-85.2901,-781.312,-1.81921,-1.02719,-2.63639,
2026_07_06_17_19_07.942,3.869,33,0,0.761,0,0,0,0, ,0,0,0,0,0, ,611.8,-79.4,-785.7,0.3,2.7,-2.2,25,609.35,-85.0013,-781.966,-1.72663,-0.848815,-2.60066,
2026_07_06_17_19_07.960,3.869,33,0,0.761,0,0,0,0, ,0,0,0,0,0, ,614.2,-82.3,-777.8,0.1,2.2,-2.1,25,609.573,-84.7483,-781.953,-1.60923,-0.647794,-2.5732,
2026_07_06_17_19_07.981,3.869,33,0,0.762,0,0,0,0, ,0,0,0,0,0, ,613.2,-81.5,-790.6,0.6,2,-2.3,25,609.824,-84.5748,-782.09,-1.48984,-0.48035,-2.55046,
2026_07_06_17_19_08.002,3.869,33,0,0.761,0,0,0,0, ,0,0,0,0,0, ,613.4,-82.2,-807.7,1.6,5.8,-2.3,25,610.036,-84.4087,-783.13,-1.33202,-0.213422,-2.53519,
2026_07_06_17_19_08.021,3.869,32.8,0,0.761,0,0,0,0, ,0,0,0,0,0, ,618.1,-83.3,-800.1,3.4,10.6,-2.3,25,610.384,-84.3076,-784.395,-1.09851,0.29927,-2.52086,
2026_07_06_17_19_08.041,3.869,33,0,0.76,0,0,0,0, ,0,0,0,0,0, ,655.1,-78,-788.9,7.1,16.1,-2.2,25,611.982,-84.0848,-785.011,-0.711645,1.09455,-2.50436,
2026_07_06_17_19_08.061,3.869,33,0,0.761,0,0,0,0, ,0,0,0,0,0, ,690.9,-72.7,-786,5.3,26.9,-8,25,615.7,-83.5525,-785.16,-0.290467,2.33801,-2.66253,
2026_07_06_17_19_08.081,3.869,32.9,0,0.761,0,0,0,0, ,0,0,0,0,0, ,674.3,-47.1,-781.4,8.6,36.3,-7.6,25,619.777,-82.1112,-785.071,0.150749,4.12116,-2.97559,
2026_07_06_17_19_08.101,3.869,33,0,0.761,0,0,0,0, ,0,0,0,0,0, ,745.8,-67,-771.4,9,38.8,-5.2,25,625.278,-80.584,-784.542,0.677813,6.15823,-3.18427,
2026_07_06_17_19_08.119,3.869,33,0,0.761,0,0,0,0, ,0,0,0,0,0, ,778.6,-97,-804,8.9,36.2,0,25,633.622,-80.6703,-784.735,1.1819,8.06812,-3.14866,
2026_07_06_17_19_08.140,3.869,33,0,0.76,0,0,0,0, ,0,0,0,0,0, ,792.8,-106.3,-800.9,11.3,46,2.9,25,642.889,-81.9487,-785.814,1.72535,10.081,-2.86843,
2026_07_06_17_19_08.166,3.869,33,0,0.761,0,0,0,0, ,0,0,0,0,0, ,772.4,-107.4,-764.6,13.7,55.6,2,25,651.402,-83.4662,-785.628,2.38193,12.5623,-2.54434,
2026_07_06_17_19_08.179,3.869,32.9,0,0.763,0,0,0,0, ,0,0,0,0,0, ,767.4,-105.1,-722.9,13.7,66.4,5.9,25,658.623,-84.8545,-783.076,3.07162,15.514,-2.14859,
2026_07_06_17_19_08.198,3.869,33,0,0.761,0,0,0,0, ,0,0,0,0,0, ,742.1,-91.4,-708,13.8,74.2,4.2,25,664.481,-85.6708,-778.955,3.72233,18.8525,-1.70993,
2026_07_06_17_19_08.219,3.869,33.1,0,0.76,0,0,0,0, ,0,0,0,0,0, ,756.2,-103.2,-653.1,17,74.4,3.2,25,669.641,-86.3795,-772.958,4.43394,22.2313,-1.38026,
2026_07_06_17_19_08.240,3.869,33,0,0.761,0,0,0,0, ,0,0,0,0,0, ,779.2,-121.9,-588.1,14.2,66.9,8.5,25,675.616,-87.9742,-763.674,5.11437,25.1818,-0.939666,
2026_07_06_17_19_08.257,3.869,33,0,0.76,0,0,0,0, ,0,0,0,0,0, ,744.9,-120.2,-580.6,8.3,62.1,17.3,25,680.883,-89.9898,-752.746,5.48826,27.5778,-0.0963119,
2026_07_06_17_19_08.279,3.869,32.9,0,0.761,0,0,0,0, ,0,0,0,0,0, ,726,-120.1,-556.8,4.7,63.6,16.9,25,684.208,-91.8277,-741.531,5.54992,29.7272,0.951588,
2026_07_06_17_19_08.298,3.869,33.1,0,0.761,0,0,0,0, ,0,0,0,0,0, ,752.1,-135.6,-554.1,2.6,69.3,11,25,687.55,-94.0228,-730.192,5.43414,31.965,1.74368,
2026_07_06_17_19_08.318,3.869,32.9,0,0.761,0,0,0,0, ,0,0,0,0,0, ,765.2,-141.3,-543.3,1.6,78.1,7.3,25,691.883,-96.7301,-719.132,5.23097,34.5082,2.195,
2026_07_06_17_19_08.337,3.869,33,0,0.76,0,0,0,0, ,0,0,0,0,0, ,786.2,-150.7,-541.9,2.3,91,0.5,25,696.991,-99.7325,-708.375,5.03103,37.5576,2.2989,
2026_07_06_17_19_08.359,3.869,33.1,0,0.761,0,0,0,0, ,0,0,0,0,0, ,824.5,-158,-489,3.4,105.1,-2,25,703.594,-103.061,-696.618,4.89813,41.2439,2.11311,
2026_07_06_17_19_08.378,3.869,32.9,0,0.762,0,0,0,0, ,0,0,0,0,0, ,844.6,-158.8,-428.1,0.6,110.1,-1.6,25,711.574,-106.433,-682.111,4.72152,45.2875,1.87465,
2026_07_06_17_19_08.396,3.869,32.9,0,0.762,0,0,0,0, ,0,0,0,0,0, ,831.4,-152.2,-411.8,-7.4,102.1,1.4,25,719.278,-109.423,-666.136,4.22662,48.9932,1.75432,
2026_07_06_17_19_08.416,3.869,33,0,0.76,0,0,0,0, ,0,0,0,0,0, ,830.3,-139.8,-437.7,-8.3,101.1,2.1,25,726.077,-111.652,-651.426,3.4907,52.199,1.75406,
2026_07_06_17_19_08.437,3.869,33,0,0.762,0,0,0,0, ,0,0,0,0,0, ,874.7,-151.3,-396.4,-6.9,105.6,0.1,25,733.781,-113.718,-637.144,2.81486,55.316,1.7142,
2026_07_06_17_19_08.456,3.869,33,0,0.761,0,0,0,0, ,0,0,0,0,0, ,874,-152,-372.8,-2.8,104.2,-1.1,25,742.347,-116.029,-621.754,2.34778,58.3375,1.57927,
2026_07_06_17_19_08.475,3.869,32.9,0,0.761,0,0,0,0, ,0,0,0,0,0, ,875.3,-149.6,-350.9,-7,97.7,-5,25,750.409,-118.148,-605.917,1.90612,60.9342,1.29718,
2026_07_06_17_19_08.496,3.869,32.9,0,0.761,0,0,0,0, ,0,0,0,0,0, ,907.5,-146.7,-301.2,-8.9,92.3,-5.7,25,759.001,-119.976,-588.862,1.30551,63.0101,0.892115,
2026_07_06_17_19_08.516,3.869,33,0,0.761,0,0,0,0, ,0,0,0,0,0, ,947.3,-153.8,-266.7,-9.5,94.8,-5.6,25,769.262,-121.821,-570.282,0.665332,64.8711,0.493455,
2026_07_06_17_19_08.535,3.869,33,0,0.76,0,0,0,0, ,0,0,0,0,0, ,930,-139.7,-268.1,-13,99.8,-8.5,25,779.584,-123.34,-551.825,-0.0607581,66.8472,0.0337761,
2026_07_06_17_19_08.557,3.869,33,0,0.76,0,0,0,0, ,0,0,0,0,0, ,919.7,-133.5,-243.4,-19.7,95.4,-11.3,25,788.437,-124.148,-533.783,-1.05338,68.7212,-0.571563,
2026_07_06_17_19_08.575,3.869,33,0,0.761,0,0,0,0, ,0,0,0,0,0, ,926.1,-134.1,-218.2,-21.4,90.1,-10.8,25,796.63,-124.736,-515.32,-2.24146,70.1855,-1.21009,
2026_07_06_17_19_08.595,3.869,33,0,0.76,0,0,0,0, ,0,0,0,0,0, ,950.4,-131.8,-188.2,-23.6,82.9,-11.5,25,805.26,-125.237,-496.3,-3.47596,71.1797,-1.81581,
2026_07_06_17_19_08.615,3.869,32.9,0,0.762,0,0,0,0, ,0,0,0,0,0, ,978,-130.7,-140.5,-22.1,85.6,-15,25,814.946,-125.603,-476.072,-4.65657,71.9761,-2.51258,
2026_07_06_17_19_08.636,3.869,33,0,0.761,0,0,0,0, ,0,0,0,0,0, ,962.7,-125.8,-104.3,-24.4,83.7,-16.1,25,824.416,-125.765,-454.52,-5.78961,72.7484,-3.30705,
2026_07_06_17_19_08.654,3.869,33,0,0.76,0,0,0,0, ,0,0,0,0,0, ,944.7,-114.8,-92.4,-24.7,77,-14.3,25,832.294,-125.432,-432.816,-6.93282,73.2117,-4.03177,
2026_07_06_17_19_08.675,3.869,33,0,0.762,0,0,0,0, ,0,0,0,0,0, ,958,-110.1,-68.9,-24.1,73.2,-11.5,25,839.549,-124.64,-411.356,-7.99722,73.3267,-4.57218,
2026_07_06_17_19_08.694,3.869,33,0,0.759,0,0,0,0, ,0,0,0,0,0, ,960.4,-107,-44.6,-24.7,67.7,-11,25,846.84,-123.66,-389.747,-8.99677,73.1514,-4.97911,
2026_07_06_17_19_08.713,3.869,32.9,0,0.762,0,0,0,0, ,0,0,0,0,0, ,942.6,-99.4,-22.7,-26.8,56.9,-9.4,25,853.218,-122.413,-368.047,-10.0177,72.4902,-5.29726,
2026_07_06_17_19_08.738,3.869,33,0,0.761,0,0,0,0, ,0,0,0,0,0, ,964.1,-122.6,10.4,-22.6,47.2,-6,25,859.32,-121.718,-345.994,-10.9124,71.2446,-5.44367,
2026_07_06_17_19_08.759,3.869,33,0,0.761,0,0,0,0, ,0,0,0,0,0, ,937.2,-93.2,32.7,-10.5,40.2,1.2,25,864.885,-120.876,-323.597,-11.2559,69.5661,-5.2582,
2026_07_06_17_19_08.773,3.869,33,0,0.761,0,0,0,0, ,0,0,0,0,0, ,978.2,-103.1,38.2,-15.3,43.8,-5.5,25,870.541,-119.491,-301.717,-11.3561,67.8863,-5.06879,
2026_07_06_17_19_08.793,3.869,33.1,0,0.76,0,0,0,0, ,0,0,0,0,0, ,974.4,-93.3,91.5,-14.8,54.4,-8.6,25,876.986,-118.193,-279.38,-11.5812,66.7415,-5.18952,
2026_07_06_17_19_08.813,3.869,33,0,0.76,0,0,0,0, ,0,0,0,0,0, ,976.3,-93,123.5,-14.7,54.7,-13.8,25,882.98,-116.667,-255.804,-11.7743,65.9986,-5.55579,
2026_07_06_17_19_08.835,3.869,32.9,0,0.762,0,0,0,0, ,0,0,0,0,0, ,996.9,-98.1,116.5,-15,58,-15,25,889.294,-115.38,-232.904,-11.9617,65.4106,-6.09473,
2026_07_06_17_19_08.852,3.869,32.9,0,0.761,0,0,0,0, ,0,0,0,0,0, ,1010.3,-99.1,136.7,-13.2,69.1,-15.2,25,896.26,-114.358,-210.996,-12.092,65.2972,-6.64349,
2026_07_06_17_19_08.875,3.869,33,0,0.76,0,0,0,0, ,0,0,0,0,0, ,999.2,-98.6,152.9,-8.5,81.1,-14.1,25,902.871,-113.413,-189.315,-12.0163,65.8946,-7.13139,
2026_07_06_17_19_08.892,3.869,32.9,0,0.761,0,0,0,0, ,0,0,0,0,0, ,975.5,-83.4,177.2,-7.8,91,-13.1,25,908.019,-112.047,-167.721,-11.7807,67.1228,-7.52557,
2026_07_06_17_19_08.913,3.869,33.1,0,0.76,0,0,0,0, ,0,0,0,0,0, ,979.7,-86.7,187.1,-7.8,96.7,-14.8,25,912.259,-110.402,-146.401,-11.5382,68.7515,-7.91706,
2026_07_06_17_19_08.931,3.869,33.1,0,0.76,0,0,0,0, ,0,0,0,0,0, ,988.7,-88.5,230.7,-6.8,96.7,-11.4,25,916.643,-109.012,-124.75,-11.2799,70.4546,-8.23289,
2026_07_06_17_19_08.953,3.869,32.9,0,0.76,0,0,0,0, ,0,0,0,0,0, ,969.8,-83.7,271.7,-5.7,95.8,-6.8,25,920.458,-107.616,-101.84,-10.9734,72.0265,-8.28573,
2026_07_06_17_19_08.971,3.869,33.1,0,0.761,0,0,0,0, ,0,0,0,0,0, ,934.8,-72,307.3,-6.5,95,-3.5,25,922.398,-105.802,-77.9929,-10.6764,73.4508,-8.09465,
2026_07_06_17_19_08.994,3.869,33,0,0.76,0,0,0,0, ,0,0,0,0,0, ,926.3,-67.9,328.2,-7.7,95.5,-5.4,25,922.895,-103.618,-53.8773,-10.4585,74.7792,-7.87255,
2026_07_06_17_19_09.011,3.869,33.1,0,0.762,0,0,0,0, ,0,0,0,0,0, ,921.9,-67.6,337,-5.2,98,-11.7,25,922.968,-101.432,-30.3263,-10.2142,76.1181,-7.91383,
2026_07_06_17_19_09.032,3.869,33,0,0.76,0,0,0,0, ,0,0,0,0,0, ,909.7,-81.1,367.6,-3.2,95.9,-11.3,25,922.532,-99.7816,-7.01005,-9.84772,77.3875,-8.13237,
2026_07_06_17_19_09.049,3.869,33.1,0,0.761,0,0,0,0, ,0,0,0,0,0, ,887,-73.2,411.1,-0.5,90.4,-8.7,25,921.058,-98.4025,17.1431,-9.36036,78.348,-8.24618,
2026_07_06_17_19_09.073,3.869,32.9,0,0.761,0,0,0,0, ,0,0,0,0,0, ,855.1,-64.6,441.7,-0.7,83.5,-8,25,918.011,-96.6047,42.0822,-8.82652,78.8722,-8.2525,
2026_07_06_17_19_09.090,3.869,33,0,0.763,0,0,0,0, ,0,0,0,0,0, ,861.4,-67.1,458.8,1.2,80.5,-8.3,25,914.369,-94.7306,66.9549,-8.27342,79.0628,-8.24626,
2026_07_06_17_19_09.111,3.869,33,0,0.76,0,0,0,0, ,0,0,0,0,0, ,862.7,-71.2,484.2,5.8,80.9,-7,25,911.181,-93.1718,91.6069,-7.55598,79.1626,-8.20992,
2026_07_06_17_19_09.130,3.869,33,0,0.761,0,0,0,0, ,0,0,0,0,0, ,827.2,-65.6,504.1,8.1,78.3,-5.5,25,907.145,-91.6623,116.137,-6.67202,79.1892,-8.09049,
2026_07_06_17_19_09.151,3.869,33.1,0,0.76,0,0,0,0, ,0,0,0,0,0, ,799.9,-58.1,525.6,8.4,73.3,-4.7,25,901.441,-89.8456,140.433,-5.76271,78.9827,-7.90826,
2026_07_06_17_19_09.169,3.869,33,0,0.761,0,0,0,0, ,0,0,0,0,0, ,800.5,-56.1,559.9,10.7,72.5,-4.8,25,895.272,-87.8501,164.95,-4.82959,78.612,-7.7158,
2026_07_06_17_19_09.190,3.869,33,0,0.76,0,0,0,0, ,0,0,0,0,0, ,798.3,-57.7,582.5,12,75.1,-4.6,25,889.43,-85.9641,189.706,-3.84365,78.3188,-7.53202,
2026_07_06_17_19_09.208,3.869,33.1,0,0.762,0,0,0,0, ,0,0,0,0,0, ,773.9,-52.2,603.3,14.6,75.2,-3.6,25,883.133,-84.0742,214.275,-2.79896,78.1257,-7.32289,
2026_07_06_17_19_09.230,3.869,33,0,0.76,0,0,0,0, ,0,0,0,0,0, ,748,-41,633,16,68.2,-1.9,25,875.688,-81.7906,238.886,-1.69605,77.7341,-7.04423,
2026_07_06_17_19_09.247,3.869,33,0,0.761,0,0,0,0, ,0,0,0,0,0, ,744.1,-39.4,652.3,15.6,64.3,-1.3,25,867.788,-79.2562,263.491,-0.629887,77.0343,-6.71247,
2026_07_06_17_19_09.270,3.869,33,0,0.761,0,0,0,0, ,0,0,0,0,0, ,739.1,-37.8,661.4,14.9,58.7,-0.9,25,860.098,-76.7787,287.461,0.337793,76.0877,-6.37046,
2026_07_06_17_19_09.287,3.869,33,0,0.761,0,0,0,0, ,0,0,0,0,0, ,724.9,-29.2,672.8,16.7,60.6,-0.9,25,852.292,-74.1414,310.595,1.28002,75.086,-6.0371,
2026_07_06_17_19_09.309,3.869,33,0,0.761,0,0,0,0, ,0,0,0,0,0, ,698.3,-24,698.8,18.9,69.6,-2.9,25,843.719,-71.2443,333.459,2.28671,74.4775,-5.785,
2026_07_06_17_19_09.327,3.869,32.9,0,0.76,0,0,0,0, ,0,0,0,0,0, ,672.2,-17,714.8,16.8,71.5,-7.9,25,834.062,-68.1521,356.21,3.2351,74.2382,-5.76154,
2026_07_06_17_19_09.348,3.869,33,0,0.76,0,0,0,0, ,0,0,0,0,0, ,667.7,-17.8,713.3,15.4,58.6,-7.3,25,824.062,-65.0594,378.016,4.01905,73.6783,-5.87357,
2026_07_06_17_19_09.367,3.869,33,0,0.76,0,0,0,0, ,0,0,0,0,0, ,653.4,-12.6,724.9,15.8,47.3,-3.5,25,814.098,-62.0211,398.8,4.72476,72.4151,-5.84471,
2026_07_06_17_19_09.388,3.869,33,0,0.761,0,0,0,0, ,0,0,0,0,0, ,635.6,-1.9,749.1,18,42.1,-1.6,25,803.763,-58.6835,419.409,5.46669,70.7263,-5.64394,
2026_07_06_17_19_09.406,3.869,32.9,0,0.76,0,0,0,0, ,0,0,0,0,0, ,620.8,4.8,770.8,18.1,40.5,-4.1,25,793.064,-55.0191,440.161,6.23349,68.9331,-5.47368,
2026_07_06_17_19_09.427,3.869,33,0,0.762,0,0,0,0, ,0,0,0,0,0, ,606,8.1,779.4,15.3,29.2,-5.5,25,782.116,-51.2733,460.571,6.87129,66.8562,-5.43263,
2026_07_06_17_19_09.446,3.869,33,0,0.76,0,0,0,0, ,0,0,0,0,0, ,600.5,14,778.8,13.1,6.9,-2.9,25,771.216,-47.4755,479.982,7.31788,63.882,-5.35752,
2026_07_06_17_19_09.470,3.869,33,0,0.76,0,0,0,0, ,0,0,0,0,0, ,606.9,19.8,813.3,7.6,-5.8,1.6,25,761.008,-43.5526,499.242,7.50265,60.0227,-5.07065,
2026_07_06_17_19_09.485,3.869,33,0,0.761,0,0,0,0, ,0,0,0,0,0, ,613.2,31.2,823.7,4.8,-3.9,-0.8,25,751.809,-39.3447,518.697,7.42327,56.0696,-4.73728,
2026_07_06_17_19_09.507,3.869,33.1,0,0.761,0,0,0,0, ,0,0,0,0,0, ,630.6,15.6,811.1,5.6,11.1,-6.3,25,743.893,-35.5212,536.899,7.28779,52.8722,-4.66493,
2026_07_06_17_19_09.524,3.869,33,0,0.761,0,0,0,0, ,0,0,0,0,0, ,618,7.5,802.6,7.6,20.2,-9.6,25,736.605,-32.6528,553.349,7.24588,50.604,-4.86512,
2026_07_06_17_19_09.548,3.869,33,0,0.762,0,0,0,0, ,0,0,0,0,0, ,593.9,29.7,785.1,6.3,11.6,-8.1,25,728.644,-29.5296,568.005,7.22785,48.4892,-5.10795,
2026_07_06_17_19_09.564,3.869,33,0,0.761,0,0,0,0, ,0,0,0,0,0, ,604.3,33.3,789.3,7.1,-2.9,-4.1,25,720.749,-25.8106,581.362,7.19568,45.7995,-5.1684,
2026_07_06_17_19_09.586,3.869,33.1,0,0.761,0,0,0,0, ,0,0,0,0,0, ,625.6,40.6,816,7,-3.2,-4.1,25,714.302,-21.9861,594.847,7.18681,42.8227,-5.10329,
2026_07_06_17_19_09.605,3.869,33,0,0.761,0,0,0,0, ,0,0,0,0,0, ,626.9,28.6,828,4.5,4.2,-4.8,25,708.937,-18.5379,608.689,7.09925,40.2437,-5.06348,
2026_07_06_17_19_09.627,3.869,33,0,0.761,0,0,0,0, ,0,0,0,0,0, ,615.3,38,801.5,4.1,7.6,-5.7,25,703.584,-15.379,621.246,6.92867,38.1508,-5.07485,
2026_07_06_17_19_09.644,3.869,33,0,0.76,0,0,0,0, ,0,0,0,0,0, ,603.5,45.1,805.5,3.5,3.9,-5.9,25,697.845,-11.9099,632.352,6.73802,36.1764,-5.11904,
2026_07_06_17_19_09.665,3.869,33,0,0.762,0,0,0,0, ,0,0,0,0,0, ,601.4,52.8,821.5,1.9,-4.2,-4.9,25,692.032,-8.20128,643.391,6.49195,33.9628,-5.13616,
2026_07_06_17_19_09.683,3.869,33,0,0.761,0,0,0,0, ,0,0,0,0,0, ,613.2,51.5,853.1,0.9,-6.2,-5,25,686.868,-4.52362,655.207,6.18166,31.5763,-5.12482,
2026_07_06_17_19_09.705,3.869,33,0,0.761,0,0,0,0, ,0,0,0,0,0, ,604.9,55.5,850.2,-5.8,-0.1,-6.7,25,682.126,-0.987809,667.178,5.65567,29.4602,-5.16901,
2026_07_06_17_19_09.724,3.869,33,0,0.761,0,0,0,0, ,0,0,0,0,0, ,705.5,41.3,786.3,-12.3,2.8,-5.6,25,680.485,2.02176,676.384,4.75954,27.7472,-5.22879,
2026_07_06_17_19_09.747,3.869,33,0,0.761,0,0,0,0, ,0,0,0,0,0, ,579.4,4.8,755.6,-1.7,15.3,-4.6,25,678.168,3.30317,682.146,4.04295,26.6078,-5.22094,
2026_07_06_17_19_09.763,3.869,33,0,0.76,0,0,0,0, ,0,0,0,0,0, ,601.8,31.7,796.5,-3.4,-2.6,-2.4,25,672.831,4.21399,687.869,3.64119,25.3734,-5.11607,
2026_07_06_17_19_09.785,3.869,33.1,0,0.76,0,0,0,0, ,0,0,0,0,0, ,613.4,28,762.4,-0.2,-8.9,1.2,25,668.856,5.77619,693.449,3.30962,23.4768,-4.84087,
2026_07_06_17_19_09.802,3.869,33.1,0,0.761,0,0,0,0, ,0,0,0,0,0, ,591.9,42.9,802,-1.4,-5.9,0.9,25,664.822,7.58443,698.858,3.05919,21.5952,-4.4819,
2026_07_06_17_19_09.824,3.869,33,0,0.76,0,0,0,0, ,0,0,0,0,0, ,625.1,39.1,822.9,-7.7,-4.7,0.7,25,661.39,9.62069,705.78,2.5955,19.9563,-4.16003,
2026_07_06_17_19_09.841,3.869,32.9,0,0.761,0,0,0,0, ,0,0,0,0,0, ,589.9,27,759.2,-7.5,-1.5,-1.8,25,658.106,11.0484,710.976,1.97421,18.5513,-3.94004,
2026_07_06_17_19_09.865,3.869,33,0,0.761,0,0,0,0, ,0,0,0,0,0, ,589.1,20.8,758.5,-1.1,-6.4,-2.9,25,653.925,11.8316,713.893,1.59188,17.1801,-3.84315,
2026_07_06_17_19_09.881,3.869,33,0,0.761,0,0,0,0, ,0,0,0,0,0, ,627.5,27,766.4,0,-7.7,-1.8,25,651.145,12.567,716.852,1.46136,15.7036,-3.75216,
2026_07_06_17_19_09.904,3.869,33,0,0.761,0,0,0,0, ,0,0,0,0,0, ,630.2,28.8,786.7,-0.8,-5.4,-0.5,25,649.786,13.5013,720.49,1.34793,14.3475,-3.59359,
2026_07_06_17_19_09.922,3.869,33,0,0.761,0,0,0,0, ,0,0,0,0,0, ,614.6,31.7,787.7,-2.4,-3.1,-0.5,25,648.118,14.522,724.555,1.16829,13.2143,-3.40508,
2026_07_06_17_19_09.944,3.869,33,0,0.763,0,0,0,0, ,0,0,0,0,0, ,617.3,33.8,788.5,-3,-1.5,-1.2,25,646.157,15.6327,728.427,0.932567,12.2689,-3.24938,
2026_07_06_17_19_09.961,3.869,33,0,0.761,0,0,0,0, ,0,0,0,0,0, ,603.2,25.3,770.6,-2,-0.6,-2.8,25,643.969,16.4808,731.543,0.723395,11.4572,-3.17324,
2026_07_06_17_19_09.984,3.869,33,0,0.761,0,0,0,0, ,0,0,0,0,0, ,613.8,29.4,774.7,-0.4,-4.5,-3.4,25,641.808,17.1432,734.048,0.606188,10.6037,-3.16878,
2026_07_06_17_19_10.000,3.869,33,0,0.761,0,0,0,0, ,0,0,0,0,0, ,626.3,28,769.8,1,-7.7,-3.2,25,640.482,17.8474,736.376,0.58753,9.58579,-3.17678,
2026_07_06_17_19_10.026,3.869,32.9,0,0.759,0,0,0,0, ,0,0,0,0,0, ,630,25.5,768.1,2,-11.3,-0.9,25,639.73,18.3899,738.361,0.643134,8.42275,-3.10811,
2026_07_06_17_19_10.039,3.869,33,0,0.76,0,0,0,0, ,0,0,0,0,0, ,621.9,31.9,773.8,0.7,-13.1,0.8,25,638.891,19.0182,740.346,0.686208,7.16605,-2.92176,
2026_07_06_17_19_10.064,3.869,32.9,0,0.761,0,0,0,0, ,0,0,0,0,0, ,626.5,30.5,784.1,0.5,-13.3,0.5,25,637.996,19.7605,742.699,0.680955,5.92499,-2.70411,
2026_07_06_17_19_10.080,3.869,33,0,0.761,0,0,0,0, ,0,0,0,0,0, ,634,35.1,785.6,-1.6,-11.5,0.4,25,637.524,20.5551,745.267,0.605944,4.80831,-2.5119,
2026_07_06_17_19_10.103,3.869,33,0,0.761,0,0,0,0, ,0,0,0,0,0, ,629.3,39.9,797.9,-3,-8.5,-0.4,25,637.166,21.5877,748.1,0.428863,3.90593,-2.35883,
2026_07_06_17_19_10.120,3.869,33,0,0.76,0,0,0,0, ,0,0,0,0,0, ,625.4,32.7,778.8,-5.8,-11.1,-2,25,636.567,22.4842,750.553,0.134604,3.07073,-2.28822,
2026_07_06_17_19_10.143,3.869,33,0,0.759,0,0,0,0, ,0,0,0,0,0, ,646.7,27,764,-5.2,-17.9,-0.4,25,636.536,22.9331,751.823,-0.208755,2.00001,-2.2219,
2026_07_06_17_19_10.159,3.869,33,0,0.76,0,0,0,0, ,0,0,0,0,0, ,665.1,32.4,789.7,-5.7,-20.3,2,25,637.716,23.3454,753.348,-0.528143,0.71423,-2.03776,
2026_07_06_17_19_10.181,3.869,33,0,0.761,0,0,0,0, ,0,0,0,0,0, ,663.5,28.3,730.8,-7.7,-18,2.4,25,639.336,23.7723,753.769,-0.90424,-0.496246,-1.77952,
2026_07_06_17_19_10.198,3.869,33,0,0.761,0,0,0,0, ,0,0,0,0,0, ,637.4,7.4,747.6,-1.6,-17.3,2.5,25,640.013,23.4114,752.881,-1.1325,-1.54155,-1.52178,
2026_07_06_17_19_10.224,3.869,33,0,0.761,0,0,0,0, ,0,0,0,0,0, ,670.1,12.9,754.3,-2.3,-23.6,3.7,25,640.85,22.6033,752.763,-1.18231,-2.69379,-1.24014,
2026_07_06_17_19_10.240,3.869,33,0,0.76,0,0,0,0, ,0,0,0,0,0, ,692.7,17.2,732.7,-0.8,-22.3,4.2,25,643.321,22.143,752.199,-1.20472,-3.92815,-0.923868,
2026_07_06_17_19_10.264,3.869,33,0,0.76,0,0,0,0, ,0,0,0,0,0, ,695.8,12.8,743.7,0,-24,6,25,646.425,21.7077,751.346,-1.15568,-5.09948,-0.556788,
2026_07_06_17_19_10.278,3.869,33,0,0.76,0,0,0,0, ,0,0,0,0,0, ,689,15.2,727.7,-1.2,-31.2,8.3,25,649.226,21.238,750.392,-1.12182,-6.47061,-0.0871559,
2026_07_06_17_19_10.302,3.869,33,0,0.76,0,0,0,0, ,0,0,0,0,0, ,702,8.9,712.6,-0.7,-41.1,10,25,652.046,20.6781,748.549,-1.11135,-8.27919,0.475733,
2026_07_06_17_19_10.317,3.869,33,0,0.763,0,0,0,0, ,0,0,0,0,0, ,703.2,16.1,711.3,-1.2,-55.2,10.8,25,655.127,20.1798,746.319,-1.10152,-10.7088,1.08049,
2026_07_06_17_19_10.342,3.869,33,0,0.761,0,0,0,0, ,0,0,0,0,0, ,716.5,9.1,700.4,-3.7,-71.2,13.3,25,658.461,19.7179,743.853,-1.18369,-13.9075,1.74895,
2026_07_06_17_19_10.356,3.869,33.1,0,0.761,0,0,0,0, ,0,0,0,0,0, ,751.7,8,685.9,-6.5,-81.2,15,25,663.071,19.0373,740.763,-1.42234,-17.7035,2.50464,
2026_07_06_17_19_10.380,3.869,33,0,0.761,0,0,0,0, ,0,0,0,0,0, ,742.9,4.7,650.6,-8.6,-82.5,15.3,25,668.203,18.2642,736.345,-1.79575,-21.6124,3.27521,
2026_07_06_17_19_10.396,3.869,33,0,0.76,0,0,0,0, ,0,0,0,0,0, ,759.3,-7.6,664.7,-14.5,-93.4,16.7,25,673.255,17.0629,731.549,-2.39015,-25.6548,4.05063,
2026_07_06_17_19_10.420,3.869,33,0,0.761,0,0,0,0, ,0,0,0,0,0, ,774.2,-16.9,627,-19,-106.1,16.9,25,678.952,15.2766,726.327,-3.2652,-30.17,4.82754,
2026_07_06_17_19_10.436,3.869,33,0,0.762,0,0,0,0, ,0,0,0,0,0, ,800,-31.6,566.1,-18.1,-115.9,16.6,25,685.543,12.868,718.419,-4.19662,-35.0956,5.55407,
2026_07_06_17_19_10.461,3.869,32.9,0,0.761,0,0,0,0, ,0,0,0,0,0, ,833.1,-42.8,527,-15.6,-119.9,17.1,25,693.526,9.81695,707.945,-4.96768,-40.1415,6.24241,
2026_07_06_17_19_10.475,3.869,33,0,0.761,0,0,0,0, ,0,0,0,0,0, ,859.2,-52.1,489.9,-13.4,-121.6,17.6,25,702.826,6.32724,695.789,-5.54856,-45.0536,6.91928,
2026_07_06_17_19_10.499,3.869,33,0,0.761,0,0,0,0, ,0,0,0,0,0, ,873.2,-59.8,444.5,-11.9,-125.2,18.6,25,712.782,2.53222,681.859,-5.9813,-49.8278,7.60061,
2026_07_06_17_19_10.515,3.869,33,0,0.76,0,0,0,0, ,0,0,0,0,0, ,875.4,-67.6,409.4,-14.6,-133.6,19.1,25,722.624,-1.5038,666.325,-6.42424,-54.6767,8.28612,
2026_07_06_17_19_10.539,3.869,33,0,0.76,0,0,0,0, ,0,0,0,0,0, ,904,-73.6,360.7,-16.2,-144.2,19.4,25,732.806,-5.71435,649.185,-6.9712,-59.8091,8.95423,
2026_07_06_17_19_10.555,3.869,33.1,0,0.76,0,0,0,0, ,0,0,0,0,0, ,947.9,-83.7,309,-9.8,-139.2,19.7,25,744.575,-10.1589,630.03,-7.33858,-64.7993,9.59991,
2026_07_06_17_19_10.581,3.869,33,0,0.762,0,0,0,0, ,0,0,0,0,0, ,968.8,-88,292.4,-5.1,-121.4,16.9,25,757.602,-14.7713,609.962,-7.34537,-68.7908,10.1301,
2026_07_06_17_19_10.594,3.869,33,0,0.76,0,0,0,0, ,0,0,0,0,0, ,963.7,-93.5,268.3,-4.4,-109.1,14.5,25,770.317,-19.4012,589.876,-7.18721,-71.6219,10.4695,
2026_07_06_17_19_10.619,3.869,33,0,0.761,0,0,0,0, ,0,0,0,0,0, ,951,-102.9,196.5,-3.3,-102.8,10.2,25,781.714,-24.203,568.092,-6.98385,-73.7137,10.5841,
2026_07_06_17_19_10.633,3.869,33,0,0.76,0,0,0,0, ,0,0,0,0,0, ,936.6,-52.9,127.6,-22.1,-106,12.1,25,791.591,-27.4752,543.349,-7.33218,-75.5837,10.6186,
2026_07_06_17_19_10.657,3.869,33,0,0.76,0,0,0,0, ,0,0,0,0,0, ,990.8,-143.5,146.7,3.3,-115.1,13.2,25,802.079,-31.785,518.596,-7.45819,-77.7144,10.7424,
2026_07_06_17_19_10.673,3.869,33,0,0.761,0,0,0,0, ,0,0,0,0,0, ,980.1,-128.7,53.2,17,-116.7,14.6,25,813.253,-38.1417,493.085,-6.38519,-80.0414,10.9348,
2026_07_06_17_19_10.697,3.869,32.9,0,0.762,0,0,0,0, ,0,0,0,0,0, ,981,-145.3,30.7,24.5,-118.4,19.1,25,823.448,-44.1659,465.594,-4.73164,-82.3271,11.2952,
2026_07_06_17_19_10.713,3.869,33,0,0.761,0,0,0,0, ,0,0,0,0,0, ,968.5,-131.5,41.2,38.3,-117.4,17.8,25,832.668,-49.9083,439.413,-2.52987,-84.4948,11.7312,
2026_07_06_17_19_10.744,3.869,33.1,0,0.762,0,0,0,0, ,0,0,0,0,0, ,960,-129.6,9.3,45.5,-111.4,11.6,25,840.686,-54.8224,414.175,0.177578,-86.3171,11.9121,
2026_07_06_17_19_10.753,3.869,33,0,0.761,0,0,0,0, ,0,0,0,0,0, ,950.4,-126.3,-24.1,45,-103.9,7.1,25,847.664,-59.2786,388.485,2.92418,-87.6171,11.756,
2026_07_06_17_19_10.776,3.869,33,0,0.76,0,0,0,0, ,0,0,0,0,0, ,953.3,-135.2,-45.1,42.7,-98.4,7.3,25,854.013,-63.6339,362.703,5.4181,-88.4418,11.4784,
2026_07_06_17_19_10.792,3.869,33,0,0.762,0,0,0,0, ,0,0,0,0,0, ,968.3,-153.1,-84.7,35.3,-93.2,6.3,25,860.52,-68.5403,336.646,7.46449,-88.8902,11.1933,
2026_07_06_17_19_10.816,3.869,33,0,0.76,0,0,0,0, ,0,0,0,0,0, ,969.7,-163,-143.7,28.6,-93.3,8.1,25,867.131,-73.9948,309.173,8.95658,-89.1558,10.9499,
2026_07_06_17_19_10.831,3.869,33,0,0.759,0,0,0,0, ,0,0,0,0,0, ,955.2,-155.5,-165.7,27.3,-102.2,11.1,25,872.939,-79.1901,280.905,10.114,-89.6795,10.8677,
2026_07_06_17_19_10.857,3.869,33,0,0.76,0,0,0,0, ,0,0,0,0,0, ,922.3,-164.3,-171.9,21.8,-115,16.4,25,876.95,-84.1083,253.502,10.9937,-90.8325,11.0433,
2026_07_06_17_19_10.871,3.869,33,0,0.762,0,0,0,0, ,0,0,0,0,0, ,886.5,-160.2,-186,4.8,-119.4,17.4,25,878.622,-88.8701,227.149,11.1342,-92.4393,11.4002,
2026_07_06_17_19_10.897,3.869,33,0,0.76,0,0,0,0, ,0,0,0,0,0, ,899.2,-156.1,-232.7,-2.3,-114.7,16.1,25,879.489,-93.0918,200.55,10.5319,-93.939,11.7262,
2026_07_06_17_19_10.911,3.869,32.9,0,0.76,0,0,0,0, ,0,0,0,0,0, ,927.1,-166.1,-278.5,-8.8,-106.3,14.9,25,881.541,-97.2361,172.753,9.55191,-94.9482,11.9562,
2026_07_06_17_19_10.935,3.869,32.9,0,0.76,0,0,0,0, ,0,0,0,0,0, ,925.1,-197.5,-338.8,-6.3,-91.7,15.4,25,884.256,-102.389,143.418,8.50977,-95.1951,12.1508,
2026_07_06_17_19_10.951,3.869,33,0,0.76,0,0,0,0, ,0,0,0,0,0, ,881.1,-204.7,-392.7,0,-93,16.3,25,885.404,-108.404,112.39,7.79925,-95.0217,12.3762,
2026_07_06_17_19_10.976,3.869,33,0,0.76,0,0,0,0, ,0,0,0,0,0, ,865.4,-194.2,-381.4,-22.5,-120.5,20.5,25,884.664,-113.952,81.9557,6.63844,-95.7364,12.7433,
2026_07_06_17_19_10.990,3.869,33,0,0.76,0,0,0,0, ,0,0,0,0,0, ,873.9,-198.8,-443.7,-27.7,-133.2,24,25,883.749,-118.983,51.8218,4.70438,-97.6324,13.3226,
2026_07_06_17_19_11.015,3.869,33,0,0.76,0,0,0,0, ,0,0,0,0,0, ,859.8,-214.4,-510.4,-24.9,-118.4,22.4,25,882.719,-124.322,19.5936,2.81505,-99.3489,13.9245,
2026_07_06_17_19_11.029,3.869,33,0,0.762,0,0,0,0, ,0,0,0,0,0, ,831.5,-224.7,-547.6,-17,-97.2,18.3,25,880.46,-130.125,-13.8363,1.36686,-99.8638,14.3161,
2026_07_06_17_19_11.053,3.869,33,0,0.762,0,0,0,0, ,0,0,0,0,0, ,782.4,-212.2,-581.5,-16.4,-97.1,19.5,25,875.981,-135.507,-47.3954,0.265914,-99.6985,14.5954,
2026_07_06_17_19_11.069,3.869,33,0,0.76,0,0,0,0, ,0,0,0,0,0, ,750.6,-205.6,-581.6,-17.8,-109.2,20.3,25,869.309,-139.98,-79.9454,-0.792321,-99.9088,14.9187,
2026_07_06_17_19_11.097,3.869,33,0,0.762,0,0,0,0, ,0,0,0,0,0, ,744.9,-206.2,-603.3,-22.5,-110.4,21.1,25,861.902,-143.997,-111.176,-1.97193,-100.512,15.271,
2026_07_06_17_19_11.112,3.869,33,0,0.762,0,0,0,0, ,0,0,0,0,0, ,744.1,-211.3,-631.1,-22.2,-95.5,18,25,854.747,-147.942,-142.012,-3.21372,-100.66,15.5317,
2026_07_06_17_19_11.138,3.869,32.9,0,0.762,0,0,0,0, ,0,0,0,0,0, ,708.9,-220.4,-687.6,-21.6,-84.5,16.1,25,846.932,-152.081,-173.537,-4.35241,-100.011,15.6242,
2026_07_06_17_19_11.148,3.869,33,0,0.762,0,0,0,0, ,0,0,0,0,0, ,687.8,-218.6,-698.6,-20.6,-78.3,14.3,25,837.878,-156.189,-205.198,-5.37297,-98.8765,15.5984,
2026_07_06_17_19_11.175,3.869,33,0,0.761,0,0,0,0, ,0,0,0,0,0, ,681.8,-214.5,-685,-16.2,-73.9,12.1,25,828.55,-159.867,-234.85,-6.1668,-97.4885,15.4522,
2026_07_06_17_19_11.188,3.869,33,0,0.762,0,0,0,0, ,0,0,0,0,0, ,670.1,-217.7,-699.9,-12.2,-66.4,7.1,25,819.251,-163.294,-262.735,-6.65633,-95.8226,15.0956,
2026_07_06_17_19_11.213,3.869,33,0,0.761,0,0,0,0, ,0,0,0,0,0, ,629.3,-220.5,-760.7,-10.3,-62.8,6.1,25,808.919,-166.695,-291.228,-6.93625,-93.9199,14.5779,
2026_07_06_17_19_11.228,3.869,33,0,0.76,0,0,0,0, ,0,0,0,0,0, ,605.1,-214.7,-779.1,-5.2,-67,6,25,797.236,-169.797,-320.397,-6.98584,-92.1515,14.0582,
2026_07_06_17_19_11.253,3.869,33,0,0.759,0,0,0,0, ,0,0,0,0,0, ,583.7,-208.6,-758.1,-1,-73.5,2.6,25,784.876,-172.347,-347.709,-6.74905,-90.8169,13.4636,
2026_07_06_17_19_11.267,3.869,33,0,0.762,0,0,0,0, ,0,0,0,0,0, ,591.6,-214.8,-742.4,-2.8,-71.9,2.6,25,772.857,-174.745,-372.239,-6.45356,-89.7129,12.8016,
2026_07_06_17_19_11.291,3.869,32.9,0,0.761,0,0,0,0, ,0,0,0,0,0, ,578.2,-211.6,-763.7,-4.8,-66.6,3.1,25,761.404,-177.088,-395.445,-6.29186,-88.466,12.1952,
2026_07_06_17_19_11.307,3.869,33,0,0.761,0,0,0,0, ,0,0,0,0,0, ,568.1,-225.3,-775.3,-8.3,-50.9,1.3,25,749.932,-179.609,-418.239,-6.30759,-86.6551,11.5861,
2026_07_06_17_19_11.332,3.869,33,0,0.762,0,0,0,0, ,0,0,0,0,0, ,543.3,-212,-768.5,-9.7,-39.5,2.1,25,738.096,-181.988,-439.79,-6.47166,-84.129,10.9837,
2026_07_06_17_19_11.347,3.869,33,0,0.761,0,0,0,0, ,0,0,0,0,0, ,535,-204.9,-777.3,-12,-30.9,-2.2,25,725.973,-183.601,-460.089,-6.73846,-81.1474,10.3113,
2026_07_06_17_19_11.372,3.869,33,0,0.761,0,0,0,0, ,0,0,0,0,0, ,554.6,-211.9,-797.3,-12.7,-22.8,-3.6,25,714.932,-185.112,-480.028,-7.08042,-77.8386,9.50623,
2026_07_06_17_19_11.386,3.869,33,0,0.761,0,0,0,0, ,0,0,0,0,0, ,544.3,-206.6,-833.3,-11.5,-7.7,-5.9,25,704.848,-186.583,-500.459,-7.3863,-74.0246,8.63749,
2026_07_06_17_19_11.414,3.869,33,0,0.762,0,0,0,0, ,0,0,0,0,0, ,532.8,-198.2,-842.1,-12.2,-3.8,-6.1,25,694.715,-187.547,-521.009,-7.6583,-69.8641,7.74552,
2026_07_06_17_19_11.426,3.869,33,0,0.765,0,0,0,0, ,0,0,0,0,0, ,550.6,-201.4,-821,-10.7,-0.4,-8.3,25,685.39,-188.293,-539.933,-7.88936,-65.7348,6.83477,
2026_07_06_17_19_11.451,3.869,33.1,0,0.762,0,0,0,0, ,0,0,0,0,0, ,556.5,-199.3,-833,-8.2,6.8,-9.8,25,677.356,-189.028,-557.426,-7.98446,-61.5341,5.8668,
2026_07_06_17_19_11.464,3.869,33,0,0.761,0,0,0,0, ,0,0,0,0,0, ,541.5,-190.5,-882.3,-8,17.5,-11.8,25,669.534,-189.386,-575.721,-7.9915,-57.0439,4.85116,
2026_07_06_17_19_11.490,3.869,33,0,0.76,0,0,0,0, ,0,0,0,0,0, ,538.6,-184.4,-854.6,-5.1,33.6,-17.9,25,661.644,-189.268,-593.559,-7.90366,-52.0109,3.65062,
2026_07_06_17_19_11.504,3.869,33,0,0.76,0,0,0,0, ,0,0,0,0,0, ,557.9,-180.1,-803.1,-1,39.1,-19.4,25,654.734,-188.84,-607.897,-7.60789,-46.6264,2.29168,
2026_07_06_17_19_11.531,3.869,33,0,0.76,0,0,0,0, ,0,0,0,0,0, ,552.4,-169.6,-764,-4.3,22.8,-13.2,25,648.666,-187.988,-618.601,-7.30577,-41.8991,1.15875,
2026_07_06_17_19_11.544,3.869,33,0,0.761,0,0,0,0, ,0,0,0,0,0, ,553.7,-167.8,-777.4,-11.6,12.4,-10.1,25,642.839,-186.812,-627.87,-7.34503,-38.2733,0.378217,
2026_07_06_17_19_11.570,3.869,33,0,0.762,0,0,0,0, ,0,0,0,0,0, ,567.2,-169.7,-839.5,-6.1,13.9,-10.8,25,637.819,-185.712,-638.874,-7.43674,-35.1397,-0.281628,
2026_07_06_17_19_11.584,3.869,33,0,0.762,0,0,0,0, ,0,0,0,0,0, ,566.5,-171.8,-851.8,-3.9,10.2,-11.3,25,633.494,-184.8,-651.474,-7.28825,-32.2641,-0.937825,
2026_07_06_17_19_11.609,3.869,33.1,0,0.761,0,0,0,0, ,0,0,0,0,0, ,583.8,-169.7,-810.6,-4.8,7.9,-8.7,25,629.939,-183.944,-662.426,-7.1092,-29.7465,-1.49005,
2026_07_06_17_19_11.624,3.869,32.9,0,0.759,0,0,0,0, ,0,0,0,0,0, ,588.9,-162.9,-794,-6.1,17.7,-10.8,25,627.282,-182.869,-670.95,-7.00809,-27.1538,-1.99339,
2026_07_06_17_19_11.648,3.869,33,0,0.762,0,0,0,0, ,0,0,0,0,0, ,598.2,-168.9,-792.6,-1.7,18.2,-10.1,25,625.227,-181.835,-678.405,-6.81869,-24.4053,-2.50872,
2026_07_06_17_19_11.663,3.869,33,0,0.762,0,0,0,0, ,0,0,0,0,0, ,596.1,-155.1,-788.4,-5,11.7,-8.7,25,623.516,-180.626,-685.236,-6.60732,-22.0071,-2.92865,
2026_07_06_17_19_11.689,3.869,33,0,0.761,0,0,0,0, ,0,0,0,0,0, ,612.6,-148.8,-777.9,-6.1,14.2,-8.3,25,622.348,-178.878,-691.203,-6.54289,-19.8769,-3.26816,
2026_07_06_17_19_11.703,3.869,33,0,0.762,0,0,0,0, ,0,0,0,0,0, ,641.1,-155.5,-792.7,-0.2,26.8,-13.3,25,622.622,-177.25,-696.937,-6.33613,-17.4165,-3.72713,
2026_07_06_17_19_11.728,3.869,32.9,0,0.76,0,0,0,0, ,0,0,0,0,0, ,643.6,-155.8,-782.4,-1.8,50,-18,25,623.824,-175.933,-702.459,-6.01096,-14.0151,-4.45368,
2026_07_06_17_19_11.743,3.869,33,0,0.761,0,0,0,0, ,0,0,0,0,0, ,655.5,-151,-775.6,3.6,72.5,-27.1,25,625.392,-174.56,-707.123,-5.58983,-9.42867,-5.55642,
2026_07_06_17_19_11.769,3.869,33,0,0.76,0,0,0,0, ,0,0,0,0,0, ,660.8,-143.5,-774.6,10.1,76.4,-26.5,25,627.388,-172.896,-711.265,-4.83177,-4.31731,-6.85095,
2026_07_06_17_19_11.781,3.869,33.1,0,0.762,0,0,0,0, ,0,0,0,0,0, ,677.9,-144.8,-749.3,12,68.8,-23.7,25,629.945,-171.144,-714.354,-3.86398,0.369837,-7.96301,
2026_07_06_17_19_11.807,3.869,32.9,0,0.762,0,0,0,0, ,0,0,0,0,0, ,692.1,-140.9,-683.8,12.6,63.7,-18.9,25,633.3,-169.42,-714.488,-2.87899,4.38441,-8.77573,
2026_07_06_17_19_11.822,3.869,33,0,0.761,0,0,0,0, ,0,0,0,0,0, ,679.3,-123.4,-693.3,14.5,69.1,-18.4,25,636.493,-167.149,-712.907,-1.87785,8.16348,-9.37744,
2026_07_06_17_19_11.848,3.869,32.9,0,0.761,0,0,0,0, ,0,0,0,0,0, ,713.9,-135.4,-709.5,21.3,91.8,-26.6,25,640.156,-164.849,-712.206,-0.672633,12.5684,-10.1771,
2026_07_06_17_19_11.861,3.869,32.9,0,0.759,0,0,0,0, ,0,0,0,0,0, ,754.6,-134.7,-670.2,28.3,113.9,-35.2,25,645.89,-163.033,-710.844,0.879605,18.07,-11.4399,
2026_07_06_17_19_11.886,3.869,33,0,0.76,0,0,0,0, ,0,0,0,0,0, ,785.7,-132.5,-628.6,28.3,118.2,-40,25,653.462,-161.239,-707.099,2.55054,24.0406,-13.034,
2026_07_06_17_19_11.901,3.869,33,0,0.76,0,0,0,0, ,0,0,0,0,0, ,794.3,-122.3,-602.5,18.7,108.4,-31.8,25,661.782,-159.177,-701.521,3.82714,29.4799,-14.4274,
2026_07_06_17_19_11.927,3.869,33,0,0.762,0,0,0,0, ,0,0,0,0,0, ,870.6,-130.9,-645.2,11.8,80.6,-19.2,25,672.182,-157.192,-696.787,4.52322,33.442,-15.1022,
2026_07_06_17_19_11.940,3.869,33,0,0.76,0,0,0,0, ,0,0,0,0,0, ,842.7,-114.1,-588.9,14.1,70.3,-16.3,25,683.423,-155.078,-691.928,5.03673,36.0019,-15.2635,
2026_07_06_17_19_11.965,3.869,33,0,0.76,0,0,0,0, ,0,0,0,0,0, ,909.9,-123.6,-520.1,23.5,90.6,-22.8,25,695.177,-152.87,-683.554,5.87543,38.7105,-15.5247,
2026_07_06_17_19_11.980,3.869,32.9,0,0.761,0,0,0,0, ,0,0,0,0,0, ,892.3,-118.1,-484.8,27.2,98.8,-23.4,25,707.725,-150.919,-672.518,7.06216,42.1223,-15.9863,
2026_07_06_17_19_12.005,3.869,33.1,0,0.761,0,0,0,0, ,0,0,0,0,0, ,892.2,-112.9,-438.3,32.7,107.6,-31.8,25,718.97,-148.761,-659.662,8.45689,45.8442,-16.694,
2026_07_06_17_19_12.019,3.869,33,0,0.76,0,0,0,0, ,0,0,0,0,0, ,901.9,-101.4,-393.3,21.9,103,-32.1,25,729.821,-146.225,-644.802,9.60514,49.4673,-17.6237,
2026_07_06_17_19_12.045,3.869,33,0,0.76,0,0,0,0, ,0,0,0,0,0, ,902.3,-95.3,-358.3,17,86.9,-29.1,25,740.32,-143.308,-628.409,10.2051,52.2389,-18.4144,
2026_07_06_17_19_12.059,3.869,32.9,0,0.76,0,0,0,0, ,0,0,0,0,0, ,927.2,-86.3,-354.1,11.1,85.1,-30.7,25,750.949,-140.108,-611.822,10.4394,54.2962,-19.1143,
2026_07_06_17_19_12.085,3.869,33,0,0.76,0,0,0,0, ,0,0,0,0,0, ,956.1,-93.1,-338.8,8.7,94.2,-31.1,25,762.57,-137.036,-595.651,10.4065,56.4506,-19.8325,
2026_07_06_17_19_12.098,3.869,33,0,0.761,0,0,0,0, ,0,0,0,0,0, ,937.5,-73.8,-285,3.4,89.8,-22.5,25,773.796,-133.771,-578.36,10.141,58.6169,-20.2571,
2026_07_06_17_19_12.126,3.869,33,0,0.761,0,0,0,0, ,0,0,0,0,0, ,925.4,-61.1,-225.7,4.5,79.1,-23,25,783.403,-129.729,-558.676,9.76376,60.1911,-20.409,
2026_07_06_17_19_12.138,3.869,33.1,0,0.761,0,0,0,0, ,0,0,0,0,0, ,935,-83.8,-268.4,4.5,65.9,-26.8,25,792.349,-126.239,-539.686,9.443,60.9412,-20.6827,
2026_07_06_17_19_12.164,3.869,33,0,0.76,0,0,0,0, ,0,0,0,0,0, ,962,-73.2,-245.9,-0.3,61.8,-22.6,25,801.864,-123.33,-522.469,8.99553,61.1184,-20.9275,
2026_07_06_17_19_12.178,3.869,33,0,0.76,0,0,0,0, ,0,0,0,0,0, ,962.6,-53.4,-165.5,-4.5,61.4,-15.9,25,811.641,-119.672,-503.166,8.30112,61.1478,-20.8253,
2026_07_06_17_19_12.203,3.869,33,0,0.76,0,0,0,0, ,0,0,0,0,0, ,944.7,-41.1,-141.7,-10.7,64.5,-16.9,25,820.295,-115.259,-481.865,7.33214,61.2576,-20.5556,
2026_07_06_17_19_12.217,3.869,33,0,0.759,0,0,0,0, ,0,0,0,0,0, ,931.2,-41.8,-145.7,-13.8,67.9,-20.8,25,827.464,-110.761,-461.258,6.13886,61.5588,-20.4517,
2026_07_06_17_19_12.243,3.869,33,0,0.76,0,0,0,0, ,0,0,0,0,0, ,920.2,-39.7,-138.5,-11.4,61.3,-23.2,25,833.45,-106.495,-441.809,4.99696,61.7441,-20.546,
2026_07_06_17_19_12.257,3.869,33,0,0.761,0,0,0,0, ,0,0,0,0,0, ,941.2,-43.9,-109.4,-10.1,50.3,-25,25,839.377,-102.552,-422.439,4.03738,61.3819,-20.7626,
2026_07_06_17_19_12.283,3.869,32.9,0,0.761,0,0,0,0, ,0,0,0,0,0, ,939.9,-32.1,-102.7,-15.5,36.4,-18.9,25,845.542,-98.6186,-403.159,3.01135,60.2831,-20.835,
2026_07_06_17_19_12.297,3.869,33,0,0.76,0,0,0,0, ,0,0,0,0,0, ,945.8,-26.6,-104.3,-15.6,26.5,-18.5,25,851.472,-94.3976,-384.899,1.88027,58.5261,-20.7049,
2026_07_06_17_19_12.323,3.869,33,0,0.763,0,0,0,0, ,0,0,0,0,0, ,958.7,-23.1,-104.2,-13.4,26.7,-19.1,25,857.613,-90.1595,-367.797,0.882095,56.5806,-20.5888,
2026_07_06_17_19_12.336,3.869,33,0,0.761,0,0,0,0, ,0,0,0,0,0, ,952,-14.1,-82.7,-10.7,30.4,-20.3,25,863.569,-85.7989,-351.079,0.0940454,54.8724,-20.5346,
2026_07_06_17_19_12.362,3.869,33,0,0.761,0,0,0,0, ,0,0,0,0,0, ,890.8,-21.3,-36,-22.7,40.3,-11.6,25,867.093,-81.6491,-333.302,-0.929342,53.6828,-20.2552,
2026_07_06_17_19_12.379,3.869,33,0,0.761,0,0,0,0, ,0,0,0,0,0, ,1018.7,-14.5,-30.3,-17.5,38.4,-11.6,25,872.434,-77.7644,-315.011,-2.09755,52.8094,-19.7278,
2026_07_06_17_19_12.407,3.869,33,0,0.76,0,0,0,0, ,0,0,0,0,0, ,994.6,10.3,-65.5,-16.4,29.8,-14.1,25,880.613,-73.1536,-298.734,-3.00262,51.6693,-19.3087,
2026_07_06_17_19_12.415,3.869,33,0,0.761,0,0,0,0, ,0,0,0,0,0, ,1013.1,22.5,-51.1,-11.8,46.1,-11.1,25,888.123,-67.6964,-284.083,-3.67887,50.8333,-18.8999,
2026_07_06_17_19_12.442,3.869,33,0,0.76,0,0,0,0, ,0,0,0,0,0, ,983.5,12.4,-10.6,-6.6,27.1,-15,25,894.837,-62.5078,-268.651,-4.01531,49.9659,-18.5434,
2026_07_06_17_19_12.455,3.869,32.9,0,0.762,0,0,0,0, ,0,0,0,0,0, ,1007.2,3.9,-38.3,-10.5,11.4,-9.6,25,900.962,-58.2021,-253.77,-4.29165,48.0942,-18.163,
2026_07_06_17_19_12.482,3.869,33,0,0.76,0,0,0,0, ,0,0,0,0,0, ,1029.9,15.6,-62.8,-7.8,-0.7,3.6,25,908.127,-54.0613,-241.387,-4.5877,45.4895,-17.239,
2026_07_06_17_19_12.495,3.869,33,0,0.76,0,0,0,0, ,0,0,0,0,0, ,1025.2,1.2,-38.3,-0.8,-2.2,4.5,25,915.405,-50.255,-229.757,-4.57017,42.6291,-15.9417,
2026_07_06_17_19_12.521,3.869,33,0,0.761,0,0,0,0, ,0,0,0,0,0, ,984.3,22.9,-9.5,-3.9,-0.4,2.4,25,920.849,-46.4583,-217.213,-4.43488,39.9522,-14.76,
2026_07_06_17_19_12.533,3.869,33,0,0.762,0,0,0,0, ,0,0,0,0,0, ,986.9,28.9,5.6,-3.4,0.9,-2.7,25,924.795,-42.049,-204.095,-4.38705,37.5328,-13.8697,
2026_07_06_17_19_12.560,3.869,32.9,0,0.761,0,0,0,0, ,0,0,0,0,0, ,1004.6,13.7,0.3,-3.9,8.8,-4.4,25,929.119,-38.1887,-191.479,-4.34214,35.5412,-13.2408,
2026_07_06_17_19_12.573,3.869,32.9,0,0.76,0,0,0,0, ,0,0,0,0,0, ,974.1,7.9,-11.4,-2.9,15.8,-2.4,25,932.789,-35.2034,-180.149,-4.28473,34.1249,-12.6412,
2026_07_06_17_19_12.599,3.869,33,0,0.761,0,0,0,0, ,0,0,0,0,0, ,976.5,19.7,-11.7,8.3,19.8,0.6,25,935.38,-32.2173,-169.875,-3.85909,33.1301,-11.9257,
2026_07_06_17_19_12.613,3.869,33,0,0.761,0,0,0,0, ,0,0,0,0,0, ,994.3,0.6,-6.2,4.3,14.9,-7.5,25,938.428,-29.6355,-160.068,-3.24002,32.1685,-11.4092,
2026_07_06_17_19_12.639,3.869,32.9,0,0.76,0,0,0,0, ,0,0,0,0,0, ,984.8,27.4,35.5,4.4,17,-10.5,25,941.543,-26.9765,-149.421,-2.77751,31.1802,-11.2624,
2026_07_06_17_19_12.653,3.869,33,0,0.761,0,0,0,0, ,0,0,0,0,0, ,974.9,30.7,60.5,3.4,14.3,-7.9,25,943.877,-23.5624,-137.391,-2.3706,30.2338,-11.1367,
2026_07_06_17_19_12.679,3.869,33,0,0.761,0,0,0,0, ,0,0,0,0,0, ,1000.4,27.8,81.9,0.2,3.4,-4.7,25,946.545,-20.3441,-124.68,-2.11645,28.9308,-10.842,
2026_07_06_17_19_12.692,3.869,32.9,0,0.762,0,0,0,0, ,0,0,0,0,0, ,1015.8,25.1,21.7,-2.8,-0.3,-2.8,25,950.296,-17.4926,-113.926,-2.0667,27.2623,-10.4098,
2026_07_06_17_19_12.719,3.869,33,0,0.762,0,0,0,0, ,0,0,0,0,0, ,1020.7,23.5,25,0,2.7,-2,25,954.437,-14.9459,-105.56,-2.02607,25.6741,-9.92171,
2026_07_06_17_19_12.732,3.869,33,0,0.761,0,0,0,0, ,0,0,0,0,0, ,996.2,29.2,57.3,0,3.4,-1.2,25,957.728,-12.4294,-96.6203,-1.90261,24.2954,-9.4146,
2026_07_06_17_19_12.759,3.869,32.9,0,0.76,0,0,0,0, ,0,0,0,0,0, ,971.4,27,51.1,0.4,3.2,-4.1,25,959.317,-9.95963,-87.4297,-1.77448,23.016,-9.00238,
2026_07_06_17_19_12.771,3.869,32.9,0,0.76,0,0,0,0, ,0,0,0,0,0, ,978.7,25.1,42.6,0.5,2,-4.7,25,960.276,-7.76529,-79.247,-1.63893,21.7719,-8.72193,
2026_07_06_17_19_12.799,3.869,32.9,0,0.761,0,0,0,0, ,0,0,0,0,0, ,981.9,28.6,19.2,-0.3,1,-4,25,961.496,-5.65592,-72.535,-1.53296,20.5366,-8.45551,
2026_07_06_17_19_12.812,3.869,33,0,0.76,0,0,0,0, ,0,0,0,0,0, ,970.3,39.6,29.1,-1.6,3.9,-1.8,25,962.386,-3.2333,-66.6432,-1.49744,19.4344,-8.11697,
2026_07_06_17_19_12.847,3.869,33,0,0.761,0,0,0,0, ,0,0,0,0,0, ,991,21.6,41.2,3.2,4.7,-2,25,963.499,-1.17158,-60.4402,-1.35744,18.5122,-7.73813,
2026_07_06_17_19_12.852,3.869,32.9,0,0.76,0,0,0,0, ,0,0,0,0,0, ,987.7,25.7,49.1,1,3.4,-2.3,25,965.074,0.340986,-54.0058,-1.14675,17.6309,-7.3976,
2026_07_06_17_19_12.880,3.869,32.9,0,0.76,0,0,0,0, ,0,0,0,0,0, ,992.9,26.7,30.7,0.4,4.1,-2.8,25,966.611,1.91677,-48.2834,-1.03421,16.785,-7.1022,
2026_07_06_17_19_12.890,3.869,33,0,0.761,0,0,0,0, ,0,0,0,0,0, ,989.1,31.1,46.8,2.4,6.3,-2.2,25,968.097,3.56106,-42.9798,-0.885877,16.0791,-6.82175,
2026_07_06_17_19_12.917,3.869,32.9,0,0.761,0,0,0,0, ,0,0,0,0,0, ,984.2,28.8,69.7,2.5,3.9,-1.7,25,969.228,5.16914,-36.8111,-0.682597,15.41,-6.52488,
2026_07_06_17_19_12.930,3.869,33,0,0.762,0,0,0,0, ,0,0,0,0,0, ,987.9,36.1,48.9,1,0.4,-0.9,25,970.253,6.83156,-30.9543,-0.534361,14.602,-6.20649,
2026_07_06_17_19_12.958,3.869,33,0,0.76,0,0,0,0, ,0,0,0,0,0, ,989.5,32.4,48.2,-0.8,0.2,0.9,25,971.377,8.50237,-26.1096,-0.495705,13.7305,-5.82828,
2026_07_06_17_19_12.968,3.869,33,0,0.76,0,0,0,0, ,0,0,0,0,0, ,982.6,33,77.5,-3.8,-2.3,0.8,25,972.271,9.97692,-20.6886,-0.605654,12.8298,-5.42132,
2026_07_06_17_19_12.999,3.869,33,0,0.761,0,0,0,0, ,0,0,0,0,0, ,984.6,18.5,77.8,-5.3,-8.2,1.8,25,972.962,10.9381,-14.6961,-0.846012,11.7281,-5.01174,
2026_07_06_17_19_13.008,3.869,32.9,0,0.762,0,0,0,0, ,0,0,0,0,0, ,991.5,18.6,35.4,-3.6,-9.1,1.5,25,973.881,11.4019,-10.3515,-1.06563,10.4863,-4.60579,
2026_07_06_17_19_13.036,3.869,33,0,0.762,0,0,0,0, ,0,0,0,0,0, ,991.6,14.2,35.7,-2.7,-7.6,0.5,25,974.958,11.7065,-7.55435,-1.19265,9.33843,-4.26419,
2026_07_06_17_19_13.048,3.869,32.9,0,0.761,0,0,0,0, ,0,0,0,0,0, ,998.5,4.3,-2.6,1.9,-5.1,-0.4,25,976.182,11.5568,-6.08549,-1.14434,8.38242,-4.00129,
2026_07_06_17_19_13.076,3.869,32.9,0,0.761,0,0,0,0, ,0,0,0,0,0, ,1005.7,-16.6,-28.9,5,6.8,-3.9,25,977.762,10.4778,-6.67442,-0.864377,7.92341,-3.88848,
2026_07_06_17_19_13.088,3.869,33,0,0.76,0,0,0,0, ,0,0,0,0,0, ,1002.4,-11.9,-4.2,23,17.8,-8.8,25,979.363,8.97096,-7.27621,0.041421,8.19011,-4.03848,
2026_07_06_17_19_13.115,3.869,33,0,0.76,0,0,0,0, ,0,0,0,0,0, ,992.9,23.1,27.2,30.7,25.6,-10,25,980.478,8.76554,-6.13204,1.67507,9.01337,-4.3652,
2026_07_06_17_19_13.127,3.869,33,0,0.76,0,0,0,0, ,0,0,0,0,0, ,978.2,58.8,90.6,19.1,25.6,-10.5,25,980.787,10.7268,-2.16915,3.09034,10.0241,-4.7238,
2026_07_06_17_19_13.156,3.869,33,0,0.761,0,0,0,0, ,0,0,0,0,0, ,970.8,78.8,149.9,11,12.7,-5.5,25,980.404,14.2656,5.29077,3.81913,10.5802,-4.92345,
2026_07_06_17_19_13.167,3.869,33,0,0.761,0,0,0,0, ,0,0,0,0,0, ,970.7,51.2,151.3,-2.1,-0.7,-2.1,25,979.816,17.3572,14.1455,3.85757,10.3011,-4.85499,
2026_07_06_17_19_13.197,3.869,32.9,0,0.761,0,0,0,0, ,0,0,0,0,0, ,976.1,40.5,126.3,-5.4,-14.2,-0.6,25,979.425,19.0935,21.7417,3.39399,9.21941,-4.6414,
2026_07_06_17_19_13.206,3.869,33,0,0.761,0,0,0,0, ,0,0,0,0,0, ,982.9,48,91.6,-4,-22.4,1.2,25,979.429,20.6265,27.0559,2.90076,7.54244,-4.34028,
2026_07_06_17_19_13.234,3.869,32.9,0,0.761,0,0,0,0, ,0,0,0,0,0, ,978.5,37.9,93.6,-5.1,-26,3.7,25,979.507,21.9868,31.05,2.44673,5.60814,-3.9265,
2026_07_06_17_19_13.245,3.869,32.9,0,0.762,0,0,0,0, ,0,0,0,0,0, ,972.9,89.4,112.3,-6.8,-38.4,8.9,25,979.275,24.5257,35.4314,1.93505,3.30421,-3.30332,
2026_07_06_17_19_13.275,3.869,33,0,0.76,0,0,0,0, ,0,0,0,0,0, ,994.2,82.8,19.4,0.9,-44.3,21.2,25,979.535,28.2779,37.2851,1.63737,0.58309,-2.18492,
2026_07_06_17_19_13.285,3.869,33,0,0.76,0,0,0,0, ,0,0,0,0,0, ,1011.1,-109.1,-145.1,-0.6,-18,13.1,25,980.944,25.7534,31.1831,1.54673,-1.35065,-1.0067,
2026_07_06_17_19_13.314,3.869,33,0,0.76,0,0,0,0, ,0,0,0,0,0, ,991.8,15.6,26.4,10.4,-5.3,10.4,25,982.193,21.3352,25.6662,1.75107,-1.97826,-0.229336,
2026_07_06_17_19_13.326,3.869,33,0,0.761,0,0,0,0, ,0,0,0,0,0, ,994.8,-9.6,47.9,8.8,-8.4,9.8,25,982.87,20.2179,26.366,2.22937,-2.27513,0.400108,
2026_07_06_17_19_13.361,3.869,32.9,0,0.761,0,0,0,0, ,0,0,0,0,0, ,992.7,21.3,6.7,13.4,-9.4,9.6,25,983.533,19.3423,26.4229,2.76992,-2.67884,0.96682,
2026_07_06_17_19_13.366,3.869,33,0,0.759,0,0,0,0, ,0,0,0,0,0, ,992.1,-37.9,-83,4,-1.7,0.8,25,984.073,17.6579,22.488,3.13129,-2.8538,1.22478,
2026_07_06_17_19_13.395,3.869,33,0,0.761,0,0,0,0, ,0,0,0,0,0, ,988.5,-32.3,-7,14.4,10.5,-1.4,25,984.453,14.443,18.3755,3.5011,-2.41177,1.13186,
2026_07_06_17_19_13.405,3.869,33,0,0.76,0,0,0,0, ,0,0,0,0,0, ,1003.7,-27,-23.1,9.1,17.4,-6.2,25,985.163,11.756,16.3386,4.00377,-1.41472,0.831328,
2026_07_06_17_19_13.433,3.869,33,0,0.762,0,0,0,0, ,0,0,0,0,0, ,989.8,-10.8,88.7,4.9,15.8,-6.1,25,985.869,9.88793,17.3417,4.18635,-0.316952,0.405903,
2026_07_06_17_19_13.444,3.869,33,0,0.761,0,0,0,0, ,0,0,0,0,0, ,989.7,24.5,63.8,-9.9,1.4,-4.5,25,986.105,9.70281,20.9314,3.7789,0.226424,0.0581999,
2026_07_06_17_19_13.473,3.869,33,0,0.761,0,0,0,0, ,0,0,0,0,0, ,990.6,7.2,26.1,-6.9,0.7,-2.7,25,986.352,10.0774,22.3951,3.03675,0.276611,-0.164722,
2026_07_06_17_19_13.483,3.869,33,0,0.761,0,0,0,0, ,0,0,0,0,0, ,987.3,8.9,52.4,-6.5,-3.4,-1.6,25,986.51,9.95386,23.4222,2.44341,0.17749,-0.285699,
2026_07_06_17_19_13.512,3.869,32.9,0,0.761,0,0,0,0, ,0,0,0,0,0, ,994.1,0.7,-3.2,-3.5,-3.1,-0.9,25,986.765,9.6398,23.4939,1.98983,-0.0313731,-0.344462,
2026_07_06_17_19_13.524,3.869,33,0,0.761,0,0,0,0, ,0,0,0,0,0, ,989.7,-3.6,17.3,-1.8,-1,-2.1,25,987.078,8.96401,22.4919,1.70709,-0.154383,-0.414877,
2026_07_06_17_19_13.550,3.869,33,0,0.761,0,0,0,0, ,0,0,0,0,0, ,990.6,-1.9,22.9,-1.6,0.1,-3.5,25,987.265,8.25019,22.3461,1.49947,-0.172397,-0.560221,
2026_07_06_17_19_13.564,3.869,33,0,0.761,0,0,0,0, ,0,0,0,0,0, ,992.7,13.6,15.3,-0.7,-0.1,-4.6,25,987.533,8.10393,22.1483,1.33802,-0.161892,-0.772879,
2026_07_06_17_19_13.591,3.869,33,0,0.761,0,0,0,0, ,0,0,0,0,0, ,991.9,19.6,29.4,-0.6,-0.6,-3,25,987.823,8.62166,22.1606,1.21687,-0.173355,-0.957344,
2026_07_06_17_19_13.603,3.869,33,0,0.761,0,0,0,0, ,0,0,0,0,0, ,989.8,7.5,26.6,-0.6,-1.3,-1.5,25,988.008,8.92198,22.5165,1.10616,-0.220682,-1.03612,
2026_07_06_17_19_13.633,3.869,33,0,0.761,0,0,0,0, ,0,0,0,0,0, ,989.8,-2.5,13.3,-0.9,-1.1,-2.3,25,988.117,8.53064,22.3601,0.993049,-0.280359,-1.08876,
2026_07_06_17_19_13.643,3.869,33,0,0.76,0,0,0,0, ,0,0,0,0,0, ,989.9,11.9,29.5,-0.6,0.1,-2.6,25,988.222,8.29721,22.3016,0.886832,-0.293743,-1.17171,
2026_07_06_17_19_13.672,3.869,33.1,0,0.761,0,0,0,0, ,0,0,0,0,0, ,992,6.8,22.8,-0.9,-0.1,-3.1,25,988.389,8.36136,22.5361,0.787088,-0.275843,-1.27398,
2026_07_06_17_19_13.682,3.869,32.9,0,0.761,0,0,0,0, ,0,0,0,0,0, ,991.3,4.6,20.2,-0.8,0,-3.3,25,988.587,8.19919,22.4729,0.687328,-0.262081,-1.39135,
2026_07_06_17_19_13.711,3.869,33,0,0.762,0,0,0,0, ,0,0,0,0,0, ,992.1,8.4,24.5,-0.6,0.2,-3.2,25,988.777,8.09564,22.4654,0.602788,-0.240017,-1.50461,
2026_07_06_17_19_13.721,3.869,32.9,0,0.761,0,0,0,0, ,0,0,0,0,0, ,991.4,10.9,28.4,-0.7,0.3,-3.2,25,988.958,8.19036,22.7083,0.526446,-0.210156,-1.60792,
2026_07_06_17_19_13.749,3.869,33,0,0.762,0,0,0,0, ,0,0,0,0,0, ,990.1,17,34.6,-0.8,-1.1,-2,25,989.067,8.54134,23.244,0.448662,-0.221725,-1.66838,
2026_07_06_17_19_13.761,3.869,33,0,0.762,0,0,0,0, ,0,0,0,0,0, ,991.8,7.3,28.5,-2.3,-2.7,-1.4,25,989.182,8.76124,23.7501,0.326869,-0.323995,-1.6703,
2026_07_06_17_19_13.790,3.869,33,0,0.761,0,0,0,0, ,0,0,0,0,0, ,992.4,-37.8,22,-0.8,-3.6,-4.9,25,989.36,7.29806,23.8415,0.212497,-0.496204,-1.76047,
2026_07_06_17_19_13.801,3.869,32.9,0,0.76,0,0,0,0, ,0,0,0,0,0, ,991.9,13.1,-12.5,0.3,0,-7.7,25,989.53,6.10075,22.6782,0.184314,-0.575654,-2.0371,
2026_07_06_17_19_13.832,3.869,33,0,0.761,0,0,0,0, ,0,0,0,0,0, ,983.7,46,61.6,1.4,-0.8,-3.9,25,989.425,7.52969,22.7922,0.224879,-0.56495,-2.2664,
2026_07_06_17_19_13.840,3.869,33,0,0.761,0,0,0,0, ,0,0,0,0,0, ,1008.6,86.6,72.3,-2,-46.1,12.2,25,989.834,11.111,25.4831,0.192894,-1.95951,-1.8754,
2026_07_06_17_19_13.870,3.869,32.9,0,0.76,0,0,0,0, ,0,0,0,0,0, ,1104.1,50.2,33.3,-26,-79.3,12.2,25,993.888,14.6021,27.1477,-0.671985,-5.66088,-1.01768,
2026_07_06_17_19_13.885,3.869,33,0,0.761,0,0,0,0, ,0,0,0,0,0, ,1115.7,10.1,-104.6,-21.9,-66.7,-1.7,25,1000.96,15.5495,23.321,-2.09049,-9.76436,-0.635745,
2026_07_06_17_19_13.915,3.869,33,0,0.761,0,0,0,0, ,0,0,0,0,0, ,1238.2,-23.4,-107,-11.9,-28.4,-9.7,25,1011.68,14.1967,15.4527,-2.99294,-12.0669,-0.944348,
2026_07_06_17_19_13.920,3.869,33,0,0.76,0,0,0,0, ,0,0,0,0,0, ,1207.5,-18.4,-59.4,-2.8,11.2,-13.7,25,1024.55,12.058,9.44102,-3.25845,-11.8557,-1.59977,
2026_07_06_17_19_13.950,3.869,32.9,0,0.76,0,0,0,0, ,0,0,0,0,0, ,1088.7,14.7,-52,25.2,29.8,-44.5,25,1032.08,11.2105,5.47149,-2.37739,-9.88398,-3.27557,
2026_07_06_17_19_13.959,3.869,32.9,0,0.762,0,0,0,0, ,0,0,0,0,0, ,948.6,83.2,-83,39.8,47.5,-67.7,25,1031.26,13.5102,1.02479,-0.252049,-6.92644,-6.49455,
2026_07_06_17_19_13.987,3.869,33,0,0.761,0,0,0,0, ,0,0,0,0,0, ,811,79.7,-61,32,55.2,-91.7,25,1022.03,17.6503,-3.42516,1.95097,-3.37522,-10.9555,
2026_07_06_17_19_13.998,3.869,32.9,0,0.76,0,0,0,0, ,0,0,0,0,0, ,749.1,75.5,-43.3,31.7,60.6,-115.3,25,1007.29,21.3035,-6.39433,3.77294,0.358735,-16.5949,
2026_07_06_17_19_14.027,3.869,33,0,0.761,0,0,0,0, ,0,0,0,0,0, ,662.9,124.2,38.6,16.3,54.2,-149.7,25,988.925,26.0899,-6.14788,5.00552,3.83469,-23.6579,
2026_07_06_17_19_14.037,3.869,33,0,0.759,0,0,0,0, ,0,0,0,0,0, ,696.5,191.7,91,-6.2,3.9,-154.4,25,970.082,34.1252,-1.82449,5.00824,5.37125,-31.4818,
2026_07_06_17_19_14.067,3.869,33,0,0.76,0,0,0,0, ,0,0,0,0,0, ,794.3,258.9,32.5,-14.7,-36,-176.1,25,956.39,45.7749,2.04958,4.06625,4.06589,-39.6333,
2026_07_06_17_19_14.078,3.869,33,0,0.762,0,0,0,0, ,0,0,0,0,0, ,770.8,322.3,-4.3,-20,-62.5,-196.2,25,945.797,60.6939,2.7839,2.7612,0.816952,-48.5617,
2026_07_06_17_19_14.106,3.869,33,0,0.761,0,0,0,0, ,0,0,0,0,0, ,817.7,339.8,-46.6,-25.3,-80.5,-194.6,25,936.562,77.1687,1.0634,1.2127,-3.58986,-57.5096,
2026_07_06_17_19_14.117,3.869,33,0,0.762,0,0,0,0, ,0,0,0,0,0, ,960.6,404.9,-80.2,-22.9,-67.2,-184.6,25,933.673,95.1563,-2.86484,-0.329791,-7.87134,-65.5589,
2026_07_06_17_19_14.146,3.869,33,0,0.761,0,0,0,0, ,0,0,0,0,0, ,901.2,510.3,-77.3,-22.9,-71.9,-170.6,25,933.504,117.243,-7.48909,-1.70516,-11.6299,-72.3864,
2026_07_06_17_19_14.158,3.869,32.9,0,0.759,0,0,0,0, ,0,0,0,0,0, ,772.8,573.8,-110.9,-24.2,-75.3,-178.5,25,927.623,143.129,-12.7669,-3.03633,-15.4062,-78.612,
2026_07_06_17_19_14.188,3.869,33,0,0.76,0,0,0,0, ,0,0,0,0,0, ,727.4,607.7,-122.4,-27.8,-72.1,-192.7,25,916.805,170.406,-19.0973,-4.43568,-18.9585,-85.1316,
2026_07_06_17_19_14.196,3.869,33.1,0,0.761,0,0,0,0, ,0,0,0,0,0, ,762,668.2,-98.1,-31.4,-60.8,-175.9,25,906.318,198.897,-24.6519,-5.96913,-21.8525,-91.1746,
2026_07_06_17_19_14.226,3.869,32.9,0,0.761,0,0,0,0, ,0,0,0,0,0, ,754.3,702.5,-100.3,-37.3,-57.1,-160.3,25,897.289,228.54,-29.1947,-7.69859,-24.1131,-95.8623,
2026_07_06_17_19_14.235,3.869,33,0,0.761,0,0,0,0, ,0,0,0,0,0, ,727,752.6,-134.5,-39.8,-52,-153,25,887.744,258.949,-34.5697,-9.5786,-25.9679,-99.5665,
2026_07_06_17_19_14.264,3.869,33,0,0.76,0,0,0,0, ,0,0,0,0,0, ,616.2,731.5,-124.3,-34.9,-50,-152.7,25,874.572,288.388,-40.3484,-11.2709,-27.4933,-102.813,
2026_07_06_17_19_14.275,3.869,32.9,0,0.76,0,0,0,0, ,0,0,0,0,0, ,555.2,749.8,-142.7,-27.9,-40.2,-150.6,25,856.969,315.948,-46.0249,-12.4975,-28.5662,-105.789,
2026_07_06_17_19_14.306,3.869,33,0,0.761,0,0,0,0, ,0,0,0,0,0, ,459.5,871.7,-132.6,-26.4,-35.7,-142.4,25,835.664,346.1,-51.6083,-13.3904,-29.138,-108.27,
2026_07_06_17_19_14.315,3.869,33,0,0.763,0,0,0,0, ,0,0,0,0,0, ,425.5,876.2,-59.6,-35.1,-48.1,-139.9,25,811.706,378.265,-54.3195,-14.4483,-29.9157,-110.274,
2026_07_06_17_19_14.345,3.869,33,0,0.759,0,0,0,0, ,0,0,0,0,0, ,486.8,873.6,-145.3,-33.6,-43.4,-132.4,25,790.039,408.529,-57.2524,-15.661,-30.8806,-111.851,
2026_07_06_17_19_14.355,3.869,33,0,0.761,0,0,0,0, ,0,0,0,0,0, ,412.8,851,-168.4,-22.5,-33,-137,25,769.306,436.181,-63.3217,-16.416,-31.3266,-113.243,
2026_07_06_17_19_14.384,3.869,32.9,0,0.76,0,0,0,0, ,0,0,0,0,0, ,437.2,922.8,-103.7,-20.7,-42.8,-116.2,25,748.325,463.646,-67.7535,-16.7319,-31.7272,-114.057,
2026_07_06_17_19_14.395,3.869,33,0,0.76,0,0,0,0, ,0,0,0,0,0, ,445.3,961.3,-49.9,-32.8,-49.4,-91.9,25,729.612,492.799,-68.3048,-17.3424,-32.603,-113.447,
2026_07_06_17_19_14.425,3.869,33,0,0.761,0,0,0,0, ,0,0,0,0,0, ,419.4,939.8,-102.6,-28,-27.8,-87.7,25,711.498,520.693,-68.789,-18.1381,-32.9685,-112.006,
2026_07_06_17_19_14.434,3.869,33,0,0.762,0,0,0,0, ,0,0,0,0,0, ,405.5,927.2,-125.3,-9.7,-2.4,-83.1,25,693.275,545.849,-71.541,-18.1814,-31.8796,-110.385,
2026_07_06_17_19_14.463,3.869,33,0,0.76,0,0,0,0, ,0,0,0,0,0, ,347.9,966.3,-122.1,-1.3,-9.4,-61.5,25,673.983,570.279,-74.7194,-17.4087,-30.2965,-108.064,
2026_07_06_17_19_14.473,3.869,33,0,0.762,0,0,0,0, ,0,0,0,0,0, ,324.8,996,-55.1,-0.5,-17.5,-44.3,25,653.409,595.316,-75.5653,-16.4027,-29.2699,-104.703,
2026_07_06_17_19_14.503,3.869,33,0,0.762,0,0,0,0, ,0,0,0,0,0, ,312.3,973.5,-47.8,-3.6,-6.3,-33.5,25,633.003,619.047,-74.0957,-15.5281,-28.2114,-100.693,
2026_07_06_17_19_14.513,3.869,33,0,0.76,0,0,0,0, ,0,0,0,0,0, ,277.4,951.6,-77.5,3.2,3.6,-30,25,612.397,639.979,-73.3983,-14.594,-26.5745,-96.4915,
2026_07_06_17_19_14.544,3.869,33,0,0.761,0,0,0,0, ,0,0,0,0,0, ,247.6,966.9,-146.3,10.6,0.7,-20.7,25,591.075,659.435,-75.7445,-13.2842,-24.8241,-92.1563,
2026_07_06_17_19_14.558,3.869,33,0,0.761,0,0,0,0, ,0,0,0,0,0, ,198.3,1021.2,-95.5,13.1,-7,-13.8,25,568.643,679.826,-78.4961,-11.7526,-23.5034,-87.5917,
2026_07_06_17_19_14.588,3.869,33,0,0.761,0,0,0,0, ,0,0,0,0,0, ,234,979,-64.8,7.5,-14.1,-6,25,547.163,699.342,-78.5969,-10.4088,-22.714,-82.8574,
2026_07_06_17_19_14.593,3.869,33,0,0.761,0,0,0,0, ,0,0,0,0,0, ,259.7,958.3,-73.4,2.9,-7.8,2.4,25,528.862,715.753,-78.0182,-9.45761,-21.9972,-77.9179,
2026_07_06_17_19_14.622,3.869,32.9,0,0.76,0,0,0,0, ,0,0,0,0,0, ,215.8,989.1,-120.4,4.3,-2,1.7,25,511.123,731.472,-79.1688,-8.66191,-20.9553,-73.0449,
2026_07_06_17_19_14.632,3.869,33,0,0.761,0,0,0,0, ,0,0,0,0,0, ,196.4,1006.7,-118.6,8.2,0.6,-8.8,25,492.535,747.707,-81.6265,-7.75322,-19.721,-68.81,
2026_07_06_17_19_14.662,3.869,33,0,0.761,0,0,0,0, ,0,0,0,0,0, ,218.3,988.6,-96.3,5.9,-1.6,-6.8,25,475.157,762.938,-83.2001,-6.85114,-18.5497,-65.0922,
2026_07_06_17_19_14.672,3.869,32.9,0,0.761,0,0,0,0, ,0,0,0,0,0, ,248.1,978.6,-86.3,3.9,-3.2,-2.9,25,460.413,776.385,-83.6937,-6.13506,-17.5656,-61.4212,
2026_07_06_17_19_14.702,3.869,32.9,0,0.761,0,0,0,0, ,0,0,0,0,0, ,292.8,965.5,-91.4,-0.5,-5.3,8.4,25,448.837,788.308,-84.0079,-5.65761,-16.7542,-57.5108,
2026_07_06_17_19_14.711,3.869,33,0,0.761,0,0,0,0, ,0,0,0,0,0, ,290.7,986.3,-148.6,2.8,3.5,10.8,25,439.264,799.74,-86.2012,-5.24277,-15.7881,-53.4212,
2026_07_06_17_19_14.740,3.869,32.9,0,0.76,0,0,0,0, ,0,0,0,0,0, ,121.7,1070.8,-99.8,0,11,-2.5,25,425.062,813.683,-88.5167,-4.83798,-14.3842,-49.913,
2026_07_06_17_19_14.750,3.869,33,0,0.762,0,0,0,0, ,0,0,0,0,0, ,175.4,1013.5,-41,-6.3,10.1,-5.1,25,408.212,827.605,-87.4127,-4.73512,-12.8647,-47.103,
2026_07_06_17_19_14.780,3.869,32.9,0,0.761,0,0,0,0, ,0,0,0,0,0, ,244.2,999.5,-91.4,-14.1,-8.4,4.4,25,396.121,838.506,-86.1201,-5.06813,-12.029,-44.254,
2026_07_06_17_19_14.791,3.869,33,0,0.762,0,0,0,0, ,0,0,0,0,0, ,326.1,999.2,-110.4,-14,-7.8,11.1,25,389.359,848.308,-87.0207,-5.61547,-11.7896,-41.085,
2026_07_06_17_19_14.822,3.869,32.9,0,0.761,0,0,0,0, ,0,0,0,0,0, ,345.7,1011.2,-105.8,-11.8,-3.1,22.1,25,386.101,857.868,-88.3053,-6.05937,-11.4033,-37.5698,
2026_07_06_17_19_14.830,3.869,32.9,0,0.762,0,0,0,0, ,0,0,0,0,0, ,334.3,1027.2,-107.6,-11.9,2.6,33.9,25,383.292,867.699,-89.4262,-6.41223,-10.7236,-33.5741,
2026_07_06_17_19_14.862,3.869,32.9,0,0.762,0,0,0,0, ,0,0,0,0,0, ,331.7,1013.4,-96,-14.6,2.8,54.2,25,380.227,876.999,-90.1802,-6.82891,-9.90561,-28.8439,
2026_07_06_17_19_14.870,3.869,32.9,0,0.76,0,0,0,0, ,0,0,0,0,0, ,347,1028.1,-90.9,-17.8,-3.4,65,25,377.736,885.758,-90.3795,-7.39996,-9.32027,-23.4544,
2026_07_06_17_19_14.901,3.869,32.9,0,0.761,0,0,0,0, ,0,0,0,0,0, ,406.9,1017.4,-108.6,-16.9,3.2,72.5,25,377.688,894.106,-90.9505,-8.00629,-8.75841,-17.8357,
2026_07_06_17_19_14.908,3.869,32.9,0,0.761,0,0,0,0, ,0,0,0,0,0, ,409.1,1006.5,-102.6,-14.5,15.1,79.1,25,379.536,901.287,-91.8432,-8.47513,-7.66712,-12.1297,
2026_07_06_17_19_14.940,3.869,33,0,0.763,0,0,0,0, ,0,0,0,0,0, ,457.3,963.2,-69,-17,14.1,94.6,25,382.806,906.38,-91.4749,-8.91844,-6.31021,-6.09817,
2026_07_06_17_19_14.948,3.869,33,0,0.761,0,0,0,0, ,0,0,0,0,0, ,517.4,921,-53.3,-22.5,16.3,118.3,25,389.176,908.556,-89.627,-9.57849,-4.99944,0.760237,
2026_07_06_17_19_14.979,3.869,33,0,0.761,0,0,0,0, ,0,0,0,0,0, ,531.8,908.2,-53.9,-28,30.8,142.8,25,397.429,908.925,-87.4316,-10.5335,-3.2597,8.6693,
2026_07_06_17_19_14.989,3.869,32.9,0,0.762,0,0,0,0, ,0,0,0,0,0, ,419.4,926.1,-84.9,-24.1,46.9,143.5,25,402.192,909.426,-86.3328,-11.479,-0.693644,16.8642,
2026_07_06_17_19_15.018,3.869,32.9,0,0.761,0,0,0,0, ,0,0,0,0,0, ,444.5,873,-30.3,-26.7,45.2,135.3,25,404.006,908.824,-84.5819,-12.3273,2.1548,24.3312,
2026_07_06_17_19_15.028,3.869,32.9,0,0.762,0,0,0,0, ,0,0,0,0,0, ,517.3,851.6,42.3,-24.8,23.8,142.5,25,408.691,905.989,-79.0621,-13.1453,4.12583,31.3128,
2026_07_06_17_19_15.060,3.869,32.9,0,0.762,0,0,0,0, ,0,0,0,0,0, ,609.7,815.3,44.1,-37.3,5.7,157.3,25,418.125,901.569,-71.6117,-14.2363,4.77324,38.5392,
2026_07_06_17_19_15.068,3.869,32.9,0,0.761,0,0,0,0, ,0,0,0,0,0, ,699.7,760.9,17,-43.6,11.9,172.5,25,432.541,894.654,-65.3862,-15.8337,5.01862,46.2393,
2026_07_06_17_19_15.097,3.869,32.9,0,0.76,0,0,0,0, ,0,0,0,0,0, ,696.6,712.4,20,-47.6,15.6,182.2,25,448.727,885.026,-60.2744,-17.6476,5.55069,54.2289,
2026_07_06_17_19_15.107,3.869,33,0,0.762,0,0,0,0, ,0,0,0,0,0, ,715.9,650.5,22,-34.5,17.8,179.6,25,464.42,872.62,-55.3218,-19.0737,6.2301,61.9479,
2026_07_06_17_19_15.140,3.869,32.9,0,0.761,0,0,0,0, ,0,0,0,0,0, ,687.2,625.1,16.1,-7.4,28.8,161.2,25,478.87,858.311,-50.7897,-19.188,7.2703,68.5567,
2026_07_06_17_19_15.146,3.869,33,0,0.761,0,0,0,0, ,0,0,0,0,0, ,669.3,595,21.4,0.1,39.7,149.2,25,491.02,843.183,-46.5522,-18.2412,8.91437,73.8365,
2026_07_06_17_19_15.179,3.869,33,0,0.761,0,0,0,0, ,0,0,0,0,0, ,701,527.4,83,-1.6,33.6,151.6,25,502.849,825.999,-40.5345,-17.1753,10.6045,78.5021,
2026_07_06_17_19_15.186,3.869,32.9,0,0.761,0,0,0,0, ,0,0,0,0,0, ,755.6,493.6,136.9,-4.1,19.2,155.2,25,516.588,806.774,-31.3643,-16.3024,11.5671,83.0662,
2026_07_06_17_19_15.216,3.869,32.9,0,0.762,0,0,0,0, ,0,0,0,0,0, ,777.7,487.6,118.1,-11.3,4.1,158.3,25,531.826,787.507,-21.6835,-15.7782,11.5721,87.5563,
2026_07_06_17_19_15.231,3.869,33,0,0.759,0,0,0,0, ,0,0,0,0,0, ,764.1,442.9,84.9,3.5,-3,156.8,25,546.395,767.869,-14.177,-15.0543,10.9004,91.8215,
2026_07_06_17_19_15.267,3.869,32.9,0,0.761,0,0,0,0, ,0,0,0,0,0, ,792.6,361,77.8,6.1,-4,145.1,25,560.529,745.571,-8.35584,-13.8445,10.0229,95.4247,
2026_07_06_17_19_15.267,3.869,32.9,0,0.762,0,0,0,0, ,0,0,0,0,0, ,864.3,274.9,81.5,6.6,-7,131.5,25,576.856,719.513,-2.99299,-12.6139,9.07699,98.0374,
2026_07_06_17_19_15.302,3.869,33,0,0.761,0,0,0,0, ,0,0,0,0,0, ,878.7,266.3,41.7,2,-18.5,129.2,25,594.811,692.157,0.943148,-11.5832,7.74691,100.006,
2026_07_06_17_19_15.307,3.869,32.9,0,0.76,0,0,0,0, ,0,0,0,0,0, ,942.5,187.2,18.9,-5.3,-25.4,124.2,25,614.054,663.796,2.73208,-10.9779,5.93725,101.633,
2026_07_06_17_19_15.339,3.869,33,0,0.761,0,0,0,0, ,0,0,0,0,0, ,952.5,147.4,19.4,-10.6,-27,119.8,25,634.373,633.541,3.73255,-10.7934,3.97889,102.874,
2026_07_06_17_19_15.345,3.869,33,0,0.762,0,0,0,0, ,0,0,0,0,0, ,954.9,129.2,25.3,-22.9,-26.2,109.4,25,653.832,603.362,4.86705,-11.1563,2.11549,103.589,
2026_07_06_17_19_15.381,3.869,32.9,0,0.761,0,0,0,0, ,0,0,0,0,0, ,967.1,116.8,28.5,-21.6,-23.6,104.3,25,672.55,574.09,6.20968,-11.8324,0.469233,103.787,
2026_07_06_17_19_15.387,3.869,33,0,0.762,0,0,0,0, ,0,0,0,0,0, ,971.5,45.8,0.4,-8.5,-25.2,95,25,690.634,544.061,6.71183,-12.0284,-1.04624,103.535,
2026_07_06_17_19_15.425,3.869,32.9,0,0.762,0,0,0,0, ,0,0,0,0,0, ,1001.8,17.4,-32.8,-13.9,8.1,126.5,25,708.672,512.833,5.31564,-11.978,-1.5035,103.975,
2026_07_06_17_19_15.427,3.869,32.9,0,0.759,0,0,0,0, ,0,0,0,0,0, ,922.7,34,0.1,-1.7,-5,104.6,25,724.124,483.148,3.99539,-11.7234,-1.31742,104.68,
2026_07_06_17_19_15.457,3.869,33,0,0.76,0,0,0,0, ,0,0,0,0,0, ,1010.8,-58.7,21.2,7.5,-35.5,76,25,738.909,452.954,4.4009,-10.8322,-2.47113,103.804,
2026_07_06_17_19_15.463,3.869,33,0,0.761,0,0,0,0, ,0,0,0,0,0, ,1010.9,-115.1,-11.7,20.7,-33.5,74.6,25,755.481,420.056,4.42218,-9.31294,-4.42289,102.067,
2026_07_06_17_19_15.496,3.869,33,0,0.76,0,0,0,0, ,0,0,0,0,0, ,941.7,-87.2,51.2,6.4,-4.5,66.8,25,768.937,388.295,5.35621,-7.91973,-5.31118,100.156,
2026_07_06_17_19_15.502,3.869,32.9,0,0.762,0,0,0,0, ,0,0,0,0,0, ,894.5,-70.4,128.9,10.8,9.2,44.6,25,778.027,359.832,10.5172,-6.91306,-4.84433,97.4466,
2026_07_06_17_19_15.536,3.869,32.9,0,0.761,0,0,0,0, ,0,0,0,0,0, ,972.5,-109.7,126.9,7.1,10,35.5,25,787.501,332.417,17.6703,-5.9464,-3.96413,93.949,
2026_07_06_17_19_15.543,3.869,33,0,0.761,0,0,0,0, ,0,0,0,0,0, ,1008.9,-160.1,82.6,0.9,12.5,38.7,25,799.883,303.94,22.9767,-5.34029,-3.03701,90.4848,
2026_07_06_17_19_15.577,3.869,33,0,0.761,0,0,0,0, ,0,0,0,0,0, ,986.2,-172.8,22.4,-0.1,13.4,33.3,25,811.929,275.276,24.7758,-4.9905,-2.06281,87.1646,
2026_07_06_17_19_15.582,3.869,33,0,0.76,0,0,0,0, ,0,0,0,0,0, ,971.3,-177,-6.1,6,10.9,20.2,25,822.094,247.843,23.7626,-4.50662,-1.19671,83.4831,
2026_07_06_17_19_15.617,3.869,32.9,0,0.761,0,0,0,0, ,0,0,0,0,0, ,1023,-197,42.3,13.3,10.5,12.5,25,832.762,221.345,23.4176,-3.64395,-0.471758,79.3922,
2026_07_06_17_19_15.622,3.869,33,0,0.761,0,0,0,0, ,0,0,0,0,0, ,1017.9,-210.2,52.4,17,2.2,9.4,25,844.199,195.45,24.8759,-2.4987,-0.0560568,75.2215,
2026_07_06_17_19_15.656,3.869,33,0,0.76,0,0,0,0, ,0,0,0,0,0, ,968.7,-197.6,60.1,21,-1.8,0.5,25,853.285,171.114,26.7878,-1.18862,-0.0404533,70.9393,
2026_07_06_17_19_15.661,3.869,32.9,0,0.762,0,0,0,0, ,0,0,0,0,0, ,936.2,-177.9,99.4,20.7,-3.1,-4.6,25,859.328,149.246,30.0152,0.154359,-0.187285,66.4915,
2026_07_06_17_19_15.694,3.869,33,0,0.762,0,0,0,0, ,0,0,0,0,0, ,926.8,-166.5,107.5,18.6,-0.5,-11,25,863.726,129.658,34.4901,1.34237,-0.28556,61.9644,
2026_07_06_17_19_15.700,3.869,33,0,0.761,0,0,0,0, ,0,0,0,0,0, ,954.2,-185.9,66,22,0.3,-18.6,25,868.404,111.02,37.6747,2.4976,-0.274252,57.2866,
2026_07_06_17_19_15.735,3.869,32.9,0,0.761,0,0,0,0, ,0,0,0,0,0, ,972.4,-206.7,42.4,27.2,5.3,-19.7,25,874.187,92.2924,38.6817,3.84447,-0.0869151,52.6287,
