UTC_Time,Vin,TC1,TC2,Rh1,Vh1,Ah1,Acp1,Dty1,Err1,Rh2,Vh2,Ah2,Acp2,Dty2,Err2,Accel_x,Accel_y,Accel_z,gyro_x,gyro_y,gyro_z,Temp_c,Accel_x_h,Accel_y_h,Accel_z_h,gyro_x_h,gyro_y_h,gyro_z_h,
2026_06_09_16_05_41.606,0,23.9,0,0.755,0,0,0,0.047, ,0,0,0,0,0, ,-35.2,69,1004.8,-0.3,-0.5,-1.5,25,-1.27032,2.49012,36.2619,-0.0108266,-0.0180444,-0.0541331,
2026_06_09_16_05_41.626,3.855,24,0,0.753,3.905,5.185,1.01,0.05, ,0,0,0,0,0, ,-35.8,70.1,1004.7,-0.2,-0.6,-1.5,25,-1.23749,2.4239,34.9024,-0.00796928,-0.0198212,-0.0521072,
2026_06_09_16_05_41.645,3.855,24.1,0,0.755,0,0,0,0.049, ,0,0,0,0,0, ,-36.6,69.4,1002.4,-0.2,-0.5,-1.5,25,-1.23451,2.3588,33.3787,-0.00276064,-0.0214133,-0.0499239,
2026_06_09_16_05_41.666,3.855,24,0,0.756,0,0,0,0.049, ,0,0,0,0,0, ,-37.2,68.4,1003.2,-0.2,-0.6,-1.5,25,-1.25992,2.24357,31.7285,0.00220616,-0.0228217,-0.0476016,
2026_06_09_16_05_41.685,3.855,24,0,0.755,3.902,5.168,1,0.05, ,0,0,0,0,0, ,-37.1,69,1005.2,-0.2,-0.6,-1.5,25,-1.29013,2.11313,30.0714,0.0069185,-0.0265007,-0.0451586,
2026_06_09_16_05_41.705,3.853,24,0,0.755,3.904,5.17,1.02,0.051, ,0,0,0,0,0, ,-35.5,69.7,1005.1,-0.2,-0.6,-1.5,25,-1.27081,2.01056,28.394,0.0113656,-0.0298688,-0.0426129,
2026_06_09_16_05_41.725,3.856,24,0,0.755,3.901,5.166,1.04,0.052, ,0,0,0,0,0, ,-35.5,70.4,1001.4,-0.3,-0.6,-1.4,25,-1.20695,1.93743,26.5658,0.0130865,-0.0329244,-0.0375298,
2026_06_09_16_05_41.745,3.854,24,0,0.755,3.904,5.17,1.04,0.052, ,0,0,0,0,0, ,-34.7,68.9,1003.4,-0.1,-0.6,-1.5,25,-1.12065,1.83873,24.6546,0.0171106,-0.0356679,-0.0325111,
2026_06_09_16_05_41.765,3.856,24.3,0,0.755,3.901,5.166,1.06,0.053, ,0,0,0,0,0, ,-35,69.2,1003.6,-0.1,-0.5,-1.5,25,-1.0208,1.70637,22.7696,0.0257574,-0.0356489,-0.0300305,
2026_06_09_16_05_41.788,3.854,24.3,0,0.754,3.902,5.175,1.02,0.051, ,0,0,0,0,0, ,-34.9,68.6,1003.5,-0.2,-0.6,-1.5,25,-0.925722,1.56475,20.8673,0.031401,-0.0354552,-0.0275235,
2026_06_09_16_05_41.804,3.856,24.3,0,0.755,3.904,5.17,1.04,0.052, ,0,0,0,0,0, ,-35.6,68.1,1004.2,-0.2,-0.6,-1.4,25,-0.845457,1.39538,18.9702,0.0341609,-0.0375484,-0.0225516,
2026_06_09_16_05_41.823,3.853,24.1,0,0.755,3.904,5.17,1.04,0.052, ,0,0,0,0,0, ,-36.2,67.3,1002.4,-0.2,-0.6,-1.5,25,-0.796839,1.19557,17.0456,0.0366171,-0.0393539,-0.0177125,
2026_06_09_16_05_41.843,3.855,24.3,0,0.756,3.904,5.164,1.08,0.054, ,0,0,0,0,0, ,-36.8,68.7,1001.5,-0.3,-0.6,-1.5,25,-0.776105,1.01437,15.0652,0.0363202,-0.0408769,-0.0154756,
2026_06_09_16_05_41.863,3.853,24.3,0,0.755,3.9,5.165,1.06,0.053, ,0,0,0,0,0, ,-36.4,66.2,1002.9,-0.3,-0.6,-1.5,25,-0.757468,0.81009,13.1199,0.0334067,-0.0421237,-0.0132721,
2026_06_09_16_05_41.884,3.855,24.4,0,0.755,3.899,5.164,1.08,0.054, ,0,0,0,0,0, ,-36.4,69,1003.6,-0.2,-0.6,-1.5,25,-0.726202,0.619192,11.2569,0.0329236,-0.0431018,-0.0111112,
2026_06_09_16_05_41.903,3.854,24.3,0,0.755,3.901,5.166,1.08,0.054, ,0,0,0,0,0, ,-35,69.2,1003.5,-0.2,-0.6,-1.4,25,-0.658561,0.508169,9.44451,0.0347542,-0.0438195,-0.00654941,
2026_06_09_16_05_41.922,3.856,24.4,0,0.755,3.899,5.164,1.1,0.055, ,0,0,0,0,0, ,-35.6,70.1,1004.2,-0.2,-0.6,-1.5,25,-0.571374,0.42706,7.68914,0.0363236,-0.0442861,-0.00217906,
2026_06_09_16_05_41.942,3.853,24.4,0,0.755,3.901,5.166,1.1,0.055, ,0,0,0,0,0, ,-34.3,68.3,1002,-0.3,-0.6,-1.5,25,-0.468483,0.325756,5.94519,0.035185,-0.0445115,-0.000464471,
2026_06_09_16_05_41.965,3.856,24.4,0,0.756,3.903,5.162,1.1,0.055, ,0,0,0,0,0, ,-35.7,69.4,1003.6,-0.2,-0.6,-1.5,25,-0.37078,0.210649,4.24276,0.0339287,-0.0445065,0.00116832,
2026_06_09_16_05_41.982,3.852,24.4,0,0.755,3.898,5.162,1.12,0.056, ,0,0,0,0,0, ,-35.7,67.9,1004.1,-0.2,-0.6,-1.5,25,-0.310373,0.0903402,2.6544,0.0350191,-0.0442824,0.00271527,
2026_06_09_16_05_42.002,3.853,24.5,0,0.756,3.9,5.158,1.14,0.057, ,0,0,0,0,0, ,-35.6,67.3,1000.4,-0.1,-0.6,-1.5,25,-0.248946,-0.0760085,1.0524,0.0383355,-0.0438511,0.00417298,
2026_06_09_16_05_42.022,3.852,24.6,0,0.756,3.899,5.157,1.12,0.056, ,0,0,0,0,0, ,-36,69.2,1003.2,-0.2,-0.6,-1.5,25,-0.196661,-0.201946,-0.498299,0.0413003,-0.0432248,0.00553862,
2026_06_09_16_05_42.042,3.856,24.6,0,0.756,3.898,5.156,1.12,0.056, ,0,0,0,0,0, ,-36,69.2,1003.1,-0.2,-0.6,-1.5,25,-0.15578,-0.274122,-1.90428,0.0414641,-0.0424162,0.00681,
2026_06_09_16_05_42.062,3.853,24.5,0,0.756,3.901,5.16,1.14,0.057, ,0,0,0,0,0, ,-35.8,68.9,1003.1,-0.1,-0.5,-1.4,25,-0.111231,-0.348763,-3.23438,0.0438676,-0.038986,0.0104376,
2026_06_09_16_05_42.082,3.855,24.6,0,0.755,3.893,5.156,1.16,0.058, ,0,0,0,0,0, ,-35.6,67.7,1001.9,-0.1,-0.6,-1.4,25,-0.0585112,-0.454807,-4.51272,0.0483892,-0.035532,0.0162881,
2026_06_09_16_05_42.101,3.854,24.6,0,0.754,3.895,5.165,1.16,0.058, ,0,0,0,0,0, ,-36.2,68.8,1004.3,-0.2,-0.5,-1.5,25,-0.0178968,-0.555861,-5.67671,0.0499985,-0.0320722,0.0193191,
2026_06_09_16_05_42.121,3.853,24.6,0,0.757,3.906,5.159,1.16,0.058, ,0,0,0,0,0, ,-35.1,68.9,1005.4,-0.1,-0.6,-1.4,25,0.0330747,-0.619793,-6.66981,0.0512824,-0.028624,0.0221064,
2026_06_09_16_05_42.145,3.855,24.7,0,0.756,3.894,5.15,1.18,0.059, ,0,0,0,0,0, ,-35.8,69.4,1002.3,-0.1,-0.5,-1.4,25,0.0911922,-0.662823,-7.63038,0.0547027,-0.0252039,0.0271001,
2026_06_09_16_05_42.160,3.855,24.6,0,0.756,3.9,5.158,1.16,0.058, ,0,0,0,0,0, ,-34.9,68.8,1002,-0.2,-0.6,-1.5,25,0.150914,-0.702927,-8.58961,0.0552336,-0.0218273,0.0292632,
2026_06_09_16_05_42.181,3.853,24.8,0,0.756,3.898,5.156,1.2,0.06, ,0,0,0,0,0, ,-36,67.7,1003.1,-0.2,-0.5,-1.5,25,0.202059,-0.779288,-9.43984,0.0530141,-0.0185088,0.0287238,
2026_06_09_16_05_42.200,3.854,24.7,0,0.756,3.897,5.154,1.18,0.059, ,0,0,0,0,0, ,-35.8,67.3,1005,-0.1,-0.6,-1.5,25,0.22763,-0.884845,-10.1283,0.0530943,-0.0152617,0.0280694,
2026_06_09_16_05_42.220,3.853,24.8,0,0.755,3.893,5.156,1.2,0.06, ,0,0,0,0,0, ,-36.1,68.2,1004.7,-0.2,-0.6,-1.4,25,0.248374,-0.968604,-10.6938,0.0529089,-0.0145509,0.0297608,
2026_06_09_16_05_42.239,3.852,24.7,0,0.757,3.901,5.153,1.2,0.06, ,0,0,0,0,0, ,-36.2,69.7,1002.6,-0.1,-0.6,-1.5,25,0.257067,-0.98463,-11.2378,0.0524718,-0.0138032,0.0312227,
2026_06_09_16_05_42.259,3.854,24.9,0,0.758,3.897,5.141,1.22,0.061, ,0,0,0,0,0, ,-35.7,68.4,1003.7,-0.2,-0.6,-1.4,25,0.273876,-0.990113,-11.7242,0.0517976,-0.0130242,0.0324589,
2026_06_09_16_05_42.280,3.852,24.9,0,0.756,3.892,5.148,1.2,0.06, ,0,0,0,0,0, ,-36,68.9,1004.3,-0.2,-0.5,-1.5,25,0.293415,-1.01006,-12.0873,0.0484491,-0.00976699,0.0334746,
2026_06_09_16_05_42.299,3.854,24.9,0,0.755,3.891,5.153,1.2,0.06, ,0,0,0,0,0, ,-33.9,68.1,1003.1,-0.2,-0.6,-1.4,25,0.354688,-1.03142,-12.3877,0.0450259,-0.00662142,0.0342755,
2026_06_09_16_05_42.324,3.852,25,0,0.757,3.901,5.153,1.22,0.061, ,0,0,0,0,0, ,-36.1,68.3,1004,-0.2,-0.5,-1.5,25,0.408756,-1.06135,-12.6197,0.0415488,-0.00359748,0.0348682,
2026_06_09_16_05_42.339,3.852,25,0,0.758,3.897,5.141,1.22,0.061, ,0,0,0,0,0, ,-35.6,69.2,1002.4,-0.1,-0.5,-1.5,25,0.416472,-1.05761,-12.7953,0.0404896,0.00174805,0.0328078,
2026_06_09_16_05_42.359,3.854,25.1,0,0.756,3.889,5.144,1.22,0.061, ,0,0,0,0,0, ,-36.2,69,1003.5,-0.2,-0.6,-1.5,25,0.419304,-1.03168,-12.9115,0.0392828,0.00437063,0.0306868,
2026_06_09_16_05_42.379,3.853,25,0,0.755,3.892,5.154,1.22,0.061, ,0,0,0,0,0, ,-37.3,67.2,1000.7,-0.1,-0.6,-1.5,25,0.378245,-1.05098,-13,0.0379415,0.0043909,0.0285186,
2026_06_09_16_05_42.398,3.851,25.1,0,0.756,3.897,5.154,1.24,0.062, ,0,0,0,0,0, ,-36,70.3,1002.4,-0.2,-0.6,-1.5,25,0.342239,-1.03227,-13.0471,0.0364791,0.00438853,0.0263161,
2026_06_09_16_05_42.419,3.854,25.2,0,0.756,3.893,5.149,1.24,0.062, ,0,0,0,0,0, ,-37.1,70.8,1002.6,-0.2,-0.6,-1.4,25,0.311217,-0.921121,-12.981,0.0324564,0.00436465,0.0265442,
2026_06_09_16_05_42.438,3.852,25.2,0,0.755,3.891,5.153,1.24,0.062, ,0,0,0,0,0, ,-35.2,69.7,1003.5,-0.1,-0.5,-1.5,25,0.299799,-0.825593,-12.8272,0.0309233,0.0067726,0.0266302,
2026_06_09_16_05_42.458,3.854,25.3,0,0.755,3.892,5.154,1.24,0.062, ,0,0,0,0,0, ,-35.5,69.5,1000.7,-0.2,-0.6,-1.5,25,0.326699,-0.762559,-12.6643,0.0293129,0.00902907,0.0241286,
2026_06_09_16_05_42.477,3.852,25.2,0,0.756,3.898,5.156,1.24,0.062, ,0,0,0,0,0, ,-35.5,67,1003.2,-0.3,-0.5,-1.5,25,0.343313,-0.765066,-12.4544,0.0227327,0.0111304,0.0216308,
2026_06_09_16_05_42.501,3.851,25.3,0,0.758,3.898,5.142,1.26,0.063, ,0,0,0,0,0, ,-35.6,71,1004.7,-0.1,-0.6,-1.4,25,0.354968,-0.726898,-12.0952,0.0188154,0.0130738,0.0216011,
2026_06_09_16_05_42.517,3.852,25.3,0,0.754,3.88,5.145,1.25,0.063, ,0,0,0,0,0, ,-36.1,69.8,1002.4,-0.2,-0.5,-1.4,25,0.349589,-0.618358,-11.7137,0.0174496,0.0148574,0.0239185,
2026_06_09_16_05_42.537,3.854,25.4,0,0.756,3.898,5.156,1.26,0.063, ,0,0,0,0,0, ,-36,69.5,1003.2,-0.2,-0.6,-1.5,25,0.332942,-0.548877,-11.33,0.0136127,0.0164804,0.0235522,
2026_06_09_16_05_42.557,3.852,25.4,0,0.755,3.891,5.153,1.26,0.063, ,0,0,0,0,0, ,-37.1,67.5,1003.2,-0.2,-0.5,-1.5,25,0.29095,-0.536498,-10.8896,0.00989679,0.0179425,0.0206356,
2026_06_09_16_05_42.577,3.851,25.4,0,0.758,3.901,5.146,1.26,0.063, ,0,0,0,0,0, ,-36.2,70.1,1003.1,-0.2,-0.6,-1.5,25,0.244678,-0.507369,-10.4196,0.00631439,0.0192446,0.0177604,
2026_06_09_16_05_42.597,3.854,25.5,0,0.758,3.892,5.134,1.27,0.064, ,0,0,0,0,0, ,-34.9,70.1,1003.6,-0.1,-0.6,-1.4,25,0.253418,-0.413412,-9.91154,0.00532872,0.0179357,0.0173909,
2026_06_09_16_05_42.617,3.852,25.6,0,0.757,3.891,5.14,1.25,0.063, ,0,0,0,0,0, ,-33.8,69.8,1004,-0.2,-0.6,-1.5,25,0.319332,-0.329382,-9.35744,0.00436513,0.0166027,0.0169537,
2026_06_09_16_05_42.636,3.85,25.6,0,0.758,3.896,5.139,1.26,0.063, ,0,0,0,0,0, ,-36,69.7,1003.5,-0.2,-0.5,-1.5,25,0.353465,-0.257659,-8.78686,0.000975119,0.0177053,0.0140023,
2026_06_09_16_05_42.656,3.852,25.5,0,0.755,3.882,5.141,1.25,0.063, ,0,0,0,0,0, ,-36,68.2,1003.9,-0.3,-0.5,-1.5,25,0.330235,-0.227418,-8.2034,-0.0047056,0.0211188,0.0111266,
2026_06_09_16_05_42.676,3.851,25.7,0,0.758,3.899,5.143,1.3,0.065, ,0,0,0,0,0, ,-34.6,69.3,1003.7,-0.2,-0.6,-1.4,25,0.340848,-0.207348,-7.60323,-0.0100845,0.0218087,0.0107893,
2026_06_09_16_05_42.703,3.854,25.6,0,0.757,3.887,5.134,1.27,0.064, ,0,0,0,0,0, ,-35.4,70,1002.1,-0.2,-0.6,-1.4,25,0.363973,-0.143101,-7.03915,-0.0126978,0.019905,0.0128675,
2026_06_09_16_05_42.717,3.852,25.9,0,0.758,3.896,5.139,1.3,0.065, ,0,0,0,0,0, ,-36.4,68.7,1003.1,-0.3,-0.6,-1.4,25,0.340031,-0.096013,-6.48277,-0.0175725,0.0179967,0.0147804,
2026_06_09_16_05_42.736,3.852,25.7,0,0.755,3.884,5.144,1.25,0.063, ,0,0,0,0,0, ,-36.8,68.2,1004.1,-0.3,-0.6,-1.5,25,0.281257,-0.0949002,-5.87268,-0.0245736,0.0160932,0.0140744,
2026_06_09_16_05_42.755,3.85,25.9,0,0.756,3.894,5.15,1.3,0.065, ,0,0,0,0,0, ,-36.6,68.1,1002.8,-0.2,-0.5,-1.5,25,0.219075,-0.108087,-5.27092,-0.0286582,0.0166559,0.0108816,
2026_06_09_16_05_42.775,3.854,25.9,0,0.757,3.891,5.14,1.27,0.064, ,0,0,0,0,0, ,-34.7,69.4,1003.6,-0.2,-0.6,-1.6,25,0.210359,-0.0906687,-4.68496,-0.029949,0.017109,0.00533952,
2026_06_09_16_05_42.795,3.852,26,0,0.757,3.893,5.142,1.28,0.064, ,0,0,0,0,0, ,-35.4,70.4,1004.2,-0.2,-0.6,-1.5,25,0.230459,-0.0172578,-4.07032,-0.031029,0.0150033,4.29597e-05,
2026_06_09_16_05_42.815,3.85,26,0,0.758,3.895,5.138,1.28,0.064, ,0,0,0,0,0, ,-34.7,69.7,1005,-0.2,-0.6,-1.5,25,0.248438,0.0599941,-3.43143,-0.031903,0.012927,-0.00254189,
2026_06_09_16_05_42.835,3.851,26.1,0,0.758,3.891,5.133,1.27,0.064, ,0,0,0,0,0, ,-35.1,69.4,1004.3,-0.2,-0.6,-1.5,25,0.271667,0.10864,-2.80452,-0.0325769,0.0108888,-0.00498745,
2026_06_09_16_05_42.853,3.851,26,0,0.759,3.894,5.13,1.27,0.064, ,0,0,0,0,0, ,-35.5,67.6,1003.9,-0.1,-0.6,-1.4,25,0.272801,0.10287,-2.2215,-0.0306051,0.00889691,-0.00483633,
2026_06_09_16_05_42.874,3.853,26.1,0,0.757,3.884,5.13,1.29,0.065, ,0,0,0,0,0, ,-35.8,69.3,1004.2,-0.1,-0.5,-1.5,25,0.255369,0.094423,-1.65857,-0.026127,0.00941101,-0.00466879,
2026_06_09_16_05_42.895,3.852,26.1,0,0.755,3.887,5.148,1.28,0.064, ,0,0,0,0,0, ,-35.8,69.9,1003.9,-0.2,-0.6,-1.5,25,0.230178,0.142325,-1.11508,-0.024192,0.00985352,-0.00693861,
2026_06_09_16_05_42.920,3.851,26.2,0,0.757,3.895,5.145,1.3,0.065, ,0,0,0,0,0, ,-37.7,68.6,1003.4,-0.2,-0.6,-1.4,25,0.158496,0.170011,-0.612371,-0.0246847,0.0077736,-0.00661076,
2026_06_09_16_05_42.933,3.852,26.2,0,0.758,3.894,5.137,1.28,0.064, ,0,0,0,0,0, ,-36.2,67.7,1001.4,-0.3,-0.6,-1.5,25,0.0797406,0.141554,-0.192598,-0.0274838,0.00575738,-0.0062664,
2026_06_09_16_05_42.954,3.854,26.2,0,0.759,3.894,5.13,1.29,0.065, ,0,0,0,0,0, ,-34.3,68.3,1003.7,-0.2,-0.5,-1.5,25,0.0878278,0.106439,0.214893,-0.0300102,0.00626383,-0.00836022,
2026_06_09_16_05_42.973,3.851,26.3,0,0.757,3.887,5.134,1.29,0.065, ,0,0,0,0,0, ,-35.1,68.9,1002.9,-0.2,-0.5,-1.4,25,0.122059,0.101947,0.638123,-0.0298126,0.00916673,-0.00785798,
2026_06_09_16_05_42.993,3.85,26.3,0,0.758,3.894,5.137,1.3,0.065, ,0,0,0,0,0, ,-35.1,69.2,1003.1,-0.3,-0.6,-1.4,25,0.134393,0.119242,1.02274,-0.0319299,0.00942993,-0.00488949,
2026_06_09_16_05_43.013,3.851,26.5,0,0.757,3.886,5.133,1.29,0.065, ,0,0,0,0,0, ,-35,68.4,1004.2,-0.3,-0.6,-1.5,25,0.147912,0.122841,1.41533,-0.0362382,0.00718158,-0.00449465,
2026_06_09_16_05_43.033,3.85,26.4,0,0.758,3.894,5.137,1.28,0.064, ,0,0,0,0,0, ,-35.6,68.6,1001.9,-0.2,-0.6,-1.5,25,0.147778,0.110944,1.75226,-0.0377045,0.00500811,-0.00654918,
2026_06_09_16_05_43.052,3.852,26.5,0,0.758,3.89,5.131,1.29,0.065, ,0,0,0,0,0, ,-36.8,69.4,1003,-0.3,-0.6,-1.5,25,0.102783,0.123606,2.03461,-0.038913,0.00291655,-0.00847067,
2026_06_09_16_05_43.072,3.85,26.6,0,0.758,3.892,5.134,1.29,0.065, ,0,0,0,0,0, ,-36.6,70.1,1004.2,-0.2,-0.6,-1.5,25,0.0349674,0.171821,2.34949,-0.0398705,0.00091319,-0.0102562,
2026_06_09_16_05_43.103,3.853,26.5,0,0.758,3.891,5.133,1.27,0.064, ,0,0,0,0,0, ,-35.4,70.6,1004,-0.3,-0.5,-1.5,25,0.00463511,0.24625,2.66186,-0.0405845,0.00145575,-0.0119036,
2026_06_09_16_05_43.119,3.852,26.6,0,0.757,3.889,5.137,1.29,0.065, ,0,0,0,0,0, ,-37.7,68.1,1002.4,-0.2,-0.5,-1.5,25,-0.0512062,0.266771,2.90166,-0.0410635,0.00441668,-0.0134115,
2026_06_09_16_05_43.132,3.852,26.6,0,0.758,3.894,5.137,1.3,0.065, ,0,0,0,0,0, ,-36,70.6,1002.3,-0.3,-0.5,-1.5,25,-0.11877,0.284972,3.07371,-0.0413167,0.00721063,-0.0147794,
2026_06_09_16_05_43.151,3.85,26.7,0,0.759,3.894,5.13,1.29,0.065, ,0,0,0,0,0, ,-34.9,69.5,1004.8,-0.3,-0.6,-1.5,25,-0.113773,0.335206,3.28102,-0.0438059,0.00737986,-0.0160074,
2026_06_09_16_05_43.171,3.853,26.7,0,0.758,3.887,5.127,1.29,0.065, ,0,0,0,0,0, ,-33.6,69.3,1001.5,-0.2,-0.6,-1.5,25,-0.0496098,0.349446,3.44238,-0.0435051,0.00505226,-0.0170962,
2026_06_09_16_05_43.191,3.851,26.8,0,0.757,3.889,5.137,1.29,0.065, ,0,0,0,0,0, ,-34.7,68.3,1003.9,-0.2,-0.5,-1.5,25,0.0165559,0.33184,3.5568,-0.0405524,0.00526608,-0.0180474,
2026_06_09_16_05_43.211,3.85,26.8,0,0.758,3.894,5.137,1.28,0.064, ,0,0,0,0,0, ,-36.6,68.9,1003.7,-0.3,-0.5,-1.6,25,0.00583019,0.303653,3.70202,-0.0399968,0.00789562,-0.0213152,
2026_06_09_16_05_43.231,3.853,26.8,0,0.758,3.89,5.131,1.29,0.065, ,0,0,0,0,0, ,-37.4,68.9,1003.7,-0.3,-0.6,-1.5,25,-0.0706066,0.290065,3.81697,-0.0417235,0.00790512,-0.0243177,
2026_06_09_16_05_43.251,3.851,26.9,0,0.758,3.893,5.135,1.29,0.065, ,0,0,0,0,0, ,-36,69.9,1003.4,-0.3,-0.6,-1.5,25,-0.128234,0.300236,3.90011,-0.04316,0.00542304,-0.0246009,
2026_06_09_16_05_43.271,3.85,26.9,0,0.759,3.894,5.13,1.29,0.065, ,0,0,0,0,0, ,-36.6,70,1003,-0.2,-0.6,-1.5,25,-0.162785,0.335402,3.94279,-0.0418611,0.00303596,-0.0247489,
2026_06_09_16_05_43.291,3.853,26.9,0,0.759,3.89,5.125,1.29,0.065, ,0,0,0,0,0, ,-35.1,68.9,1002.6,-0.2,-0.6,-1.5,25,-0.172771,0.342668,3.94433,-0.0379674,0.000750987,-0.0247678,
2026_06_09_16_05_43.312,3.852,27,0,0.758,3.89,5.131,1.29,0.065, ,0,0,0,0,0, ,-33.8,68.2,1003.6,-0.2,-0.7,-1.4,25,-0.112754,0.303751,3.94107,-0.0340776,-0.00387778,-0.0222115,
2026_06_09_16_05_43.330,3.851,27.1,0,0.758,3.892,5.134,1.29,0.065, ,0,0,0,0,0, ,-34.4,69.3,1001.8,-0.3,-0.5,-1.5,25,-0.0379608,0.275053,3.89893,-0.0326628,-0.00580827,-0.0196711,
2026_06_09_16_05_43.350,3.85,27,0,0.759,3.894,5.13,1.27,0.064, ,0,0,0,0,0, ,-34.3,70.1,1004.1,-0.2,-0.5,-1.5,25,0.021091,0.292999,3.85189,-0.0311564,-0.00271114,-0.0196105,
2026_06_09_16_05_43.370,3.852,27.2,0,0.757,3.883,5.129,1.29,0.065, ,0,0,0,0,0, ,-36,69.4,1004.1,-0.2,-0.6,-1.5,25,0.0379083,0.311073,3.84459,-0.0271181,-0.00220469,-0.0194562,
2026_06_09_16_05_43.390,3.851,27.1,0,0.758,3.895,5.138,1.28,0.064, ,0,0,0,0,0, ,-36.2,67.5,1003.2,-0.3,-0.6,-1.5,25,0.0071228,0.262971,3.79662,-0.0255964,-0.00416439,-0.0192136,
2026_06_09_16_05_43.409,3.85,27.2,0,0.759,3.894,5.13,1.29,0.065, ,0,0,0,0,0, ,-36.1,69.3,1003,-0.2,-0.6,-1.4,25,-0.0246401,0.21348,3.70532,-0.0240232,-0.00600745,-0.0164361,
2026_06_09_16_05_43.429,3.853,27.2,0,0.759,3.89,5.125,1.29,0.065, ,0,0,0,0,0, ,-35.4,68.8,1002.9,-0.2,-0.6,-1.5,25,-0.0351065,0.197243,3.59289,-0.0199566,-0.00773051,-0.0137138,
2026_06_09_16_05_43.449,3.852,27.2,0,0.758,3.89,5.131,1.29,0.065, ,0,0,0,0,0, ,-35.8,69.3,1003.7,-0.3,-0.5,-1.4,25,-0.0375301,0.180829,3.48542,-0.0184433,-0.00687881,-0.0110574,
2026_06_09_16_05_43.469,3.851,27.3,0,0.759,3.894,5.13,1.29,0.065, ,0,0,0,0,0, ,-36.1,68.7,1001.8,-0.2,-0.5,-1.5,25,-0.0568149,0.161878,3.33908,-0.0169133,-0.00358281,-0.00847674,
2026_06_09_16_05_43.495,3.853,27.5,0,0.759,3.891,5.126,1.29,0.065, ,0,0,0,0,0, ,-36.2,69.5,1002,-0.2,-0.5,-1.5,25,-0.0846827,0.147962,3.14177,-0.0129228,-0.00043081,-0.00843307,
2026_06_09_16_05_43.508,3.859,27.3,0,0.759,3.894,5.13,1.25,0.063, ,0,0,0,0,0, ,-35.4,68.3,1002.8,-0.3,-0.5,-1.5,25,-0.0936013,0.124191,2.96317,-0.0115165,0.00256873,-0.00834998,
2026_06_09_16_05_43.528,3.852,27.5,0,0.758,3.896,5.139,1.3,0.065, ,0,0,0,0,0, ,-35.2,68.7,1003,-0.3,-0.6,-1.5,25,-0.0770996,0.0813559,2.80325,-0.0125745,0.00295635,-0.00822982,
2026_06_09_16_05_43.548,3.85,27.6,0,0.76,3.897,5.127,1.27,0.064, ,0,0,0,0,0, ,-35.4,69.7,1003.1,-0.2,-0.5,-1.6,25,-0.0610273,0.0745511,2.64472,-0.0110666,0.00331038,-0.0105272,
2026_06_09_16_05_43.568,3.853,27.5,0,0.76,3.891,5.119,1.25,0.063, ,0,0,0,0,0, ,-35.5,69.2,1001.9,-0.3,-0.6,-1.5,25,-0.0527989,0.0799734,2.45395,-0.009578,0.00363074,-0.0126599,
2026_06_09_16_05_43.588,3.852,27.7,0,0.758,3.888,5.129,1.27,0.064, ,0,0,0,0,0, ,-35.4,69.9,1001.7,-0.2,-0.6,-1.4,25,-0.0447138,0.0896401,2.22612,-0.00811525,0.00146533,-0.00972141,
2026_06_09_16_05_43.608,3.851,27.7,0,0.759,3.896,5.133,1.25,0.063, ,0,0,0,0,0, ,-34.9,69.7,1002.4,-0.2,-0.6,-1.4,25,-0.022092,0.110652,2.01075,-0.00423208,-0.000601099,-0.00442692,
2026_06_09_16_05_43.627,3.854,27.7,0,0.759,3.892,5.127,1.25,0.063, ,0,0,0,0,0, ,-35.6,70.4,1002.4,-0.2,-0.6,-1.5,25,-0.00537496,0.142348,1.81319,-0.000518504,-0.00256322,-0.00182244,
2026_06_09_16_05_43.647,3.852,27.8,0,0.758,3.893,5.135,1.25,0.063, ,0,0,0,0,0, ,-37.1,69.4,1003.1,-0.2,-0.6,-1.5,25,-0.0433988,0.164433,1.63356,0.00301551,-0.00441649,-0.00178887,
2026_06_09_16_05_43.667,3.851,27.9,0,0.76,3.898,5.128,1.25,0.063, ,0,0,0,0,0, ,-36.1,67.8,1002,-0.2,-0.6,-1.5,25,-0.0916047,0.120867,1.44487,0.00636134,-0.0061571,-0.00174813,
2026_06_09_16_05_43.692,3.853,27.8,0,0.759,3.89,5.125,1.23,0.062, ,0,0,0,0,0, ,-36.7,69.4,1002.8,-0.2,-0.5,-1.5,25,-0.127186,0.0788428,1.25096,0.00951173,-0.00532983,-0.00170077,
2026_06_09_16_05_43.707,3.85,27.9,0,0.758,3.892,5.134,1.25,0.063, ,0,0,0,0,0, ,-35,70.4,1004.1,-0.2,-0.5,-1.4,25,-0.133423,0.102247,1.11189,0.0124607,-0.00206471,0.000804811,
2026_06_09_16_05_43.726,3.851,28,0,0.759,3.894,5.13,1.25,0.063, ,0,0,0,0,0, ,-34.7,69.7,1003,-0.3,-0.5,-1.4,25,-0.0896521,0.131356,0.979069,0.0127515,0.00105045,0.0056357,
2026_06_09_16_05_43.746,3.851,27.9,0,0.76,3.895,5.125,1.23,0.062, ,0,0,0,0,0, ,-35.4,69.4,1002.6,-0.2,-0.6,-1.5,25,-0.0573951,0.133868,0.811152,0.0129652,0.0015555,0.00774974,
2026_06_09_16_05_43.766,3.853,28,0,0.758,3.887,5.127,1.25,0.063, ,0,0,0,0,0, ,-35.1,68.6,1002.4,-0.3,-0.6,-1.5,25,-0.0362458,0.108624,0.63276,0.0131046,-0.000424053,0.00726974,
2026_06_09_16_05_43.785,3.852,28.1,0,0.759,3.898,5.135,1.24,0.062, ,0,0,0,0,0, ,-37.7,69.8,1003.6,-0.2,-0.5,-1.5,25,-0.0723548,0.0938905,0.48452,0.0131725,0.000147732,0.00677745,
2026_06_09_16_05_43.806,3.85,28.2,0,0.759,3.894,5.13,1.23,0.062, ,0,0,0,0,0, ,-35.8,69.8,1003.7,-0.3,-0.5,-1.5,25,-0.123501,0.108843,0.37304,0.0131721,0.00314291,0.00627591,
2026_06_09_16_05_43.826,3.853,28.1,0,0.759,3.893,5.129,1.21,0.061, ,0,0,0,0,0, ,-36.3,69.2,1001.2,-0.2,-0.6,-1.5,25,-0.137201,0.107813,0.206338,0.0131069,0.00352354,0.00576803,
2026_06_09_16_05_43.845,3.851,28.1,0,0.759,3.895,5.131,1.23,0.062, ,0,0,0,0,0, ,-35.2,68.8,1003.9,-0.2,-0.6,-1.5,25,-0.134839,0.081781,0.051699,0.0154324,0.00141598,0.00525664,
2026_06_09_16_05_43.865,3.85,28.2,0,0.759,3.893,5.129,1.23,0.062, ,0,0,0,0,0, ,-34.6,69.2,1003.5,-0.2,-0.5,-1.4,25,-0.0902421,0.0566222,-0.0392111,0.0175678,0.00185696,0.00719658,
2026_06_09_16_05_43.885,3.853,28.2,0,0.759,3.892,5.127,1.23,0.062, ,0,0,0,0,0, ,-34.4,70.4,1002.1,-0.2,-0.6,-1.5,25,-0.0277702,0.0716528,-0.16961,0.019512,0.00226717,0.00900591,
2026_06_09_16_05_43.911,3.851,28.2,0,0.758,3.892,5.134,1.23,0.062, ,0,0,0,0,0, ,-35.6,70.5,1002.3,-0.2,-0.5,-1.4,25,0.00725311,0.117471,-0.322203,0.0212646,0.00264608,0.0106821,
2026_06_09_16_05_43.924,3.852,28.2,0,0.759,3.895,5.131,1.23,0.062, ,0,0,0,0,0, ,-36.2,70.5,1002,-0.3,-0.6,-1.5,25,-0.00361584,0.162916,-0.468177,0.0203743,0.00299337,0.0122235,
2026_06_09_16_05_43.945,3.85,28.3,0,0.759,3.894,5.13,1.23,0.062, ,0,0,0,0,0, ,-35.1,70.3,1002.4,-0.3,-0.6,-1.5,25,-0.00167312,0.200425,-0.602231,0.016975,0.000856716,0.0111769,
2026_06_09_16_05_43.964,3.853,28.4,0,0.759,3.892,5.127,1.23,0.062, ,0,0,0,0,0, ,-36.3,69.4,1001.8,-0.2,-0.5,-1.5,25,-0.00226955,0.208132,-0.731647,0.016111,0.00127279,0.0101265,
2026_06_09_16_05_43.983,3.851,28.5,0,0.758,3.893,5.135,1.21,0.061, ,0,0,0,0,0, ,-37.3,69.8,1002,-0.2,-0.6,-1.5,25,-0.0567731,0.202175,-0.86092,0.0176622,0.00166218,0.00907769,
2026_06_09_16_05_44.003,3.85,28.3,0,0.759,3.897,5.134,1.2,0.06, ,0,0,0,0,0, ,-36.2,68.1,1002.9,-0.3,-0.6,-1.4,25,-0.105872,0.163636,-0.952636,0.016598,-0.000427876,0.0104878,
2026_06_09_16_05_44.023,3.853,28.4,0,0.76,3.895,5.125,1.23,0.062, ,0,0,0,0,0, ,-35.4,69.8,1004.5,-0.2,-0.6,-1.5,25,-0.10545,0.12618,-0.973854,0.0155043,-0.00241332,0.011777,
2026_06_09_16_05_44.044,3.851,28.5,0,0.758,3.89,5.131,1.23,0.062, ,0,0,0,0,0, ,-34.4,69.5,1002.8,-0.2,-0.5,-1.5,25,-0.0603896,0.12427,-0.991686,0.0168399,-0.00183734,0.0104928,
2026_06_09_16_05_44.063,3.85,28.5,0,0.76,3.899,5.13,1.22,0.061, ,0,0,0,0,0, ,-34.9,70,1002.6,-0.2,-0.6,-1.5,25,-0.00498112,0.126745,-1.05035,0.0180271,-0.00128055,0.0092199,
2026_06_09_16_05_44.083,3.853,28.5,0,0.761,3.895,5.118,1.21,0.061, ,0,0,0,0,0, ,-36,69.5,1004.6,-0.2,-0.6,-1.5,25,0.00849999,0.128475,-1.05682,0.0190671,-0.00319692,0.00796397,
2026_06_09_16_05_44.103,3.851,28.5,0,0.759,3.891,5.126,1.21,0.061, ,0,0,0,0,0, ,-36.3,70.3,1003.7,-0.3,-0.6,-1.5,25,-0.0130521,0.136843,-1.03079,0.0175101,-0.00500354,0.00673038,
2026_06_09_16_05_44.123,3.85,28.7,0,0.758,3.891,5.133,1.21,0.061, ,0,0,0,0,0, ,-36.1,68.9,1003.2,-0.3,-0.6,-1.5,25,-0.0359351,0.129413,-1.03528,0.0134909,-0.00669691,0.00552413,
2026_06_09_16_05_44.142,3.851,28.7,0,0.759,3.896,5.133,1.19,0.06, ,0,0,0,0,0, ,-38,68.6,1003.1,-0.2,-0.6,-1.5,25,-0.0992054,0.0800224,-1.04917,0.0120546,-0.00827422,0.00434981,
2026_06_09_16_05_44.162,3.853,28.7,0,0.761,3.899,5.123,1.19,0.06, ,0,0,0,0,0, ,-36.6,68.9,1002.5,-0.3,-0.6,-1.4,25,-0.171145,0.0326602,-1.07437,0.0106292,-0.0097334,0.0056638,
2026_06_09_16_05_44.182,3.851,28.7,0,0.759,3.891,5.126,1.19,0.06, ,0,0,0,0,0, ,-35.5,70.8,1001.8,-0.2,-0.5,-1.5,25,-0.177408,0.0414074,-1.12491,0.00922141,-0.00862089,0.00688544,
2026_06_09_16_05_44.202,3.85,29.1,0,0.761,3.899,5.123,1.19,0.06, ,0,0,0,0,0, ,-35.6,68.9,1002.9,-0.2,-0.6,-1.4,25,-0.157969,0.0495215,-1.15763,0.0102894,-0.00752045,0.00801324,
2026_06_09_16_05_44.222,3.853,28.9,0,0.759,3.891,5.126,1.13,0.057, ,0,0,0,0,0, ,-34.4,69.5,1002.5,-0.2,-0.6,-1.5,25,-0.111731,0.0251155,-1.16587,0.0112542,-0.00888908,0.00904623,
2026_06_09_16_05_44.241,3.851,29.1,0,0.758,3.894,5.137,1.18,0.059, ,0,0,0,0,0, ,-34.9,67.8,1001.9,-0.3,-0.6,-1.4,25,-0.0500442,-0.025191,-1.19248,0.00966414,-0.0101468,0.00998398,
2026_06_09_16_05_44.262,3.85,29.1,0,0.76,3.902,5.134,1.14,0.057, ,0,0,0,0,0, ,-33.6,69.9,1003.1,-0.2,-0.6,-1.6,25,0.0284809,-0.0630976,-1.1972,0.00810441,-0.0112928,0.00837437,
2026_06_09_16_05_44.281,3.853,29.1,0,0.76,3.896,5.126,1.13,0.057, ,0,0,0,0,0, ,-35.7,69.3,1003.7,-0.3,-0.6,-1.5,25,0.0833972,-0.0620517,-1.15165,0.00658124,-0.0123269,0.00435027,
2026_06_09_16_05_44.302,3.851,29.1,0,0.759,3.895,5.131,1.15,0.058, ,0,0,0,0,0, ,-35.7,70,1002.9,-0.2,-0.6,-1.5,25,0.0837137,-0.0582992,-1.10756,0.00510033,-0.0132496,0.00295425,
2026_06_09_16_05_44.321,3.85,29.1,0,0.76,3.898,5.128,1.15,0.058, ,0,0,0,0,0, ,-37.5,67.7,1003.7,-0.3,-0.5,-1.4,25,0.0394634,-0.0936781,-1.06017,0.00366692,-0.0116096,0.00406429,
2026_06_09_16_05_44.340,3.853,29.3,0,0.759,3.892,5.127,1.15,0.058, ,0,0,0,0,0, ,-35.8,69.2,1002.5,-0.2,-0.6,-1.5,25,-0.00526346,-0.146478,-1.01969,0.00228573,-0.00999279,0.00509986,
2026_06_09_16_05_44.365,3.851,29.1,0,0.758,3.897,5.141,1.12,0.056, ,0,0,0,0,0, ,-35.8,68.4,1004.5,-0.3,-0.6,-1.5,25,-0.00608403,-0.178801,-0.956554,0.000961015,-0.0108582,0.00360736,
2026_06_09_16_05_44.380,3.852,29.3,0,0.761,3.904,5.13,1.16,0.058, ,0,0,0,0,0, ,-35.2,69.9,1003.9,-0.2,-0.6,-1.5,25,0.00787856,-0.191492,-0.85747,-0.000303467,-0.0116276,0.00217027,
2026_06_09_16_05_44.400,3.85,29.4,0,0.759,3.893,5.129,1.11,0.056, ,0,0,0,0,0, ,-35.7,67.9,1001.8,-0.2,-0.6,-1.4,25,0.0235697,-0.214878,-0.825227,0.000947722,-0.012302,0.00324512,
2026_06_09_16_05_44.420,3.852,29.2,0,0.761,3.902,5.127,1.12,0.056, ,0,0,0,0,0, ,-35,68.9,1000.3,-0.2,-0.5,-1.4,25,0.0432794,-0.260579,-0.878778,0.00213288,-0.0104306,0.00670343,
2026_06_09_16_05_44.439,3.851,29.3,0,0.759,3.892,5.127,1.13,0.057, ,0,0,0,0,0, ,-35.2,70,1003.2,-0.2,-0.5,-1.6,25,0.07407,-0.25126,-0.891041,0.0032494,-0.00614732,0.00505478,
2026_06_09_16_05_44.460,3.85,29.5,0,0.761,3.902,5.127,1.14,0.057, ,0,0,0,0,0, ,-35,70.4,1002.5,-0.2,-0.6,-1.5,25,0.102986,-0.204377,-0.844363,0.00429515,-0.00449601,0.0010099,
2026_06_09_16_05_44.479,3.853,29.5,0,0.761,3.898,5.122,1.09,0.055, ,0,0,0,0,0, ,-35.8,68.2,1001.3,-0.2,-0.5,-1.5,25,0.115263,-0.202925,-0.842405,0.00526844,-0.00290352,-0.000389412,
2026_06_09_16_05_44.499,3.851,29.6,0,0.759,3.895,5.131,1.09,0.055, ,0,0,0,0,0, ,-36.3,68.2,1002.6,-0.3,-0.6,-1.5,25,0.0944912,-0.254492,-0.83394,0.00371588,-0.00137483,-0.00171818,
2026_06_09_16_05_44.519,3.85,29.5,0,0.759,3.899,5.137,1.08,0.054, ,0,0,0,0,0, ,-36.9,69.4,1004.1,-0.2,-0.6,-1.5,25,0.0472991,-0.27285,-0.75312,0.00222114,-0.00236649,-0.00297332,
2026_06_09_16_05_44.539,3.853,29.6,0,0.759,3.897,5.134,1.1,0.055, ,0,0,0,0,0, ,-36,69.7,1001.9,-0.2,-0.6,-1.5,25,0.00954485,-0.25218,-0.689715,0.00324093,-0.00329786,-0.00415224,
2026_06_09_16_05_44.559,3.851,29.5,0,0.759,3.901,5.139,1.08,0.054, ,0,0,0,0,0, ,-35.1,68.8,1002.5,-0.3,-0.5,-1.5,25,0.0177341,-0.245994,-0.665256,0.00174257,-0.00171513,-0.00525289,
2026_06_09_16_05_44.579,3.85,29.7,0,0.76,3.901,5.132,1.1,0.055, ,0,0,0,0,0, ,-34.9,68.7,1003.7,-0.3,-0.5,-1.4,25,0.052408,-0.263421,-0.594578,-0.00214306,0.00225059,-0.0038215,
2026_06_09_16_05_44.602,3.853,29.7,0,0.761,3.901,5.126,1.07,0.054, ,0,0,0,0,0, ,-35,67.6,1003.1,-0.1,-0.5,-1.4,25,0.0875753,-0.308121,-0.509725,-0.000923233,0.00601072,1.06796e-05,
2026_06_09_16_05_44.620,3.849,29.8,0,0.761,3.901,5.126,1.07,0.054, ,0,0,0,0,0, ,-35.7,67.9,1001.3,-0.2,-0.6,-1.5,25,0.100969,-0.368727,-0.485373,0.00269348,0.00710467,0.0012027,
2026_06_09_16_05_44.638,3.85,29.8,0,0.758,3.89,5.131,1.05,0.053, ,0,0,0,0,0, ,-35.6,70,1000.6,-0.2,-0.5,-1.5,25,0.0984953,-0.365692,-0.521127,0.00366738,0.00810994,-0.000121823,
2026_06_09_16_05_44.659,3.849,29.9,0,0.76,3.904,5.136,1.06,0.053, ,0,0,0,0,0, ,-36.6,68.9,1005.3,-0.3,-0.6,-1.4,25,0.0735881,-0.336482,-0.454473,0.00212328,0.00902595,0.00107137,
2026_06_09_16_05_44.678,3.853,29.8,0,0.762,3.904,5.123,1.04,0.052, ,0,0,0,0,0, ,-36.1,68.9,1002.4,-0.2,-0.6,-1.5,25,0.0372789,-0.33402,-0.344709,0.000644441,0.00740039,0.00220077,
2026_06_09_16_05_44.698,3.851,29.8,0,0.761,3.9,5.124,1.05,0.053, ,0,0,0,0,0, ,-36.9,67.6,1000.8,-0.3,-0.5,-1.4,25,-0.00478976,-0.361911,-0.348975,-0.000765043,0.00827024,0.00326393,
2026_06_09_16_05_44.718,3.85,29.9,0,0.761,3.9,5.124,1.05,0.053, ,0,0,0,0,0, ,-36.4,67.9,1003.2,-0.2,-0.5,-1.5,25,-0.0521282,-0.411171,-0.331696,-0.00210163,0.0115088,0.00425887,
2026_06_09_16_05_44.737,3.853,29.9,0,0.762,3.903,5.122,1.03,0.052, ,0,0,0,0,0, ,-35,69.7,1004.1,-0.2,-0.6,-1.4,25,-0.0502971,-0.404495,-0.232709,-0.000910152,0.0120797,0.00518402,
2026_06_09_16_05_44.757,3.851,30.1,0,0.761,3.901,5.126,1.03,0.052, ,0,0,0,0,0, ,-33.4,68.1,1002.4,-0.3,-0.6,-1.5,25,0.025257,-0.391248,-0.157046,-0.00222478,0.0101109,0.00603825,
2026_06_09_16_05_44.777,3.853,30,0,0.761,3.902,5.127,1.02,0.051, ,0,0,0,0,0, ,-34.6,69.8,1001,-0.3,-0.6,-1.5,25,0.10679,-0.37427,-0.160337,-0.00591613,0.00818883,0.00436866,
2026_06_09_16_05_44.797,3.853,30.1,0,0.758,0,0,0,0, ,0,0,0,0,0, ,-34,69,1002.9,-0.3,-0.6,-1.5,25,0.169085,-0.334211,-0.150415,-0.00939729,0.00632066,0.00275943,
2026_06_09_16_05_44.817,3.853,30.1,0,0.76,0,0,0,0, ,0,0,0,0,0, ,-36.7,69.9,1004.6,-0.3,-0.6,-1.4,25,0.175996,-0.292017,-0.0519609,-0.0126614,0.00451296,0.00366768,
2026_06_09_16_05_44.837,3.853,30.1,0,0.76,0,0,0,0, ,0,0,0,0,0, ,-36.3,68.4,1001.4,-0.3,-0.6,-1.5,25,0.125301,-0.265166,0.00513806,-0.0157031,0.00277167,0.00451332,
2026_06_09_16_05_44.857,3.853,30.2,0,0.762,0,0,0,0, ,0,0,0,0,0, ,-36,69.2,1002.9,-0.3,-0.6,-1.5,25,0.0936401,-0.255491,0.0177258,-0.0185181,0.00110212,0.00284307,
2026_06_09_16_05_44.876,3.853,30.1,0,0.761,0,0,0,0, ,0,0,0,0,0, ,-36.2,68.4,1003.1,-0.2,-0.5,-1.5,25,0.0655225,-0.245031,0.0712944,-0.0186517,0.00196119,0.00124073,
2026_06_09_16_05_44.896,3.853,30.1,0,0.761,0,0,0,0, ,0,0,0,0,0, ,-35.2,68.6,1003.7,-0.3,-0.5,-1.5,25,0.0580782,-0.248589,0.141501,-0.0186868,0.00522061,-0.000289138,
2026_06_09_16_05_44.916,3.853,30.2,0,0.76,0,0,0,0, ,0,0,0,0,0, ,-36.2,68.2,1002.9,-0.1,-0.6,-1.5,25,0.0507128,-0.255652,0.202665,-0.016176,0.0058423,-0.00174255,
2026_06_09_16_05_44.936,3.853,30.2,0,0.762,0,0,0,0, ,0,0,0,0,0, ,-34.4,68.8,1003.6,-0.2,-0.5,-1.4,25,0.063076,-0.256205,0.257377,-0.0112564,0.0064047,-0.000663942,
2026_06_09_16_05_44.956,3.853,30.2,0,0.761,0,0,0,0, ,0,0,0,0,0, ,-34,67.1,1003.2,-0.2,-0.6,-1.5,25,0.128469,-0.282441,0.315493,-0.00897475,0.00690795,0.000365044,
2026_06_09_16_05_44.975,3.853,30.2,0,0.759,0,0,0,0, ,0,0,0,0,0, ,-34.9,68.9,1003.4,-0.2,-0.6,-1.4,25,0.177762,-0.303546,0.364301,-0.00676078,0.00490032,0.00134177,
2026_06_09_16_05_44.995,3.853,30.3,0,0.761,0,0,0,0, ,0,0,0,0,0, ,-36.7,67.6,1001.7,-0.2,-0.5,-1.5,25,0.157553,-0.30986,0.372138,-0.00462207,0.00541916,0.00226397,
2026_06_09_16_05_45.015,3.853,30.2,0,0.761,0,0,0,0, ,0,0,0,0,0, ,-36.2,69.2,1003,-0.3,-0.6,-1.5,25,0.10568,-0.306981,0.367947,-0.00501763,0.00588585,0.000677635,
2026_06_09_16_05_45.035,3.853,30.2,0,0.76,0,0,0,0, ,0,0,0,0,0, ,-36.6,67.7,1005.7,-0.2,-0.5,-1.5,25,0.0582824,-0.300278,0.460235,-0.00536907,0.00630064,-0.000834244,
2026_06_09_16_05_45.055,3.853,30.3,0,0.761,0,0,0,0, ,0,0,0,0,0, ,-36.2,67.6,1002.9,-0.2,-0.5,-1.5,25,0.0129223,-0.331658,0.543277,-0.00322465,0.0091162,-0.00226786,
2026_06_09_16_05_45.075,3.853,30.2,0,0.761,0,0,0,0, ,0,0,0,0,0, ,-35.6,68.8,1001.9,-0.2,-0.6,-1.5,25,-0.00575533,-0.332891,0.526387,-0.0011695,0.00929659,-0.00362,
2026_06_09_16_05_45.095,3.853,30.3,0,0.759,0,0,0,0, ,0,0,0,0,0, ,-36.3,67.8,1002.9,-0.2,-0.6,-1.4,25,-0.0259407,-0.327518,0.507731,0.000790616,0.00697015,-0.00243582,
2026_06_09_16_05_45.113,3.853,30.3,0,0.76,0,0,0,0, ,0,0,0,0,0, ,-35.5,68.9,1004.8,-0.2,-0.5,-1.5,25,-0.0425561,-0.318343,0.5586,0.00265071,0.00717562,-0.00129771,
2026_06_09_16_05_45.135,3.853,30.3,0,0.759,0,0,0,0, ,0,0,0,0,0, ,-35.2,69.9,1002.5,-0.2,-0.6,-1.5,25,-0.0311732,-0.256553,0.594412,0.00440651,0.00733565,-0.00266118,
2026_06_09_16_05_45.153,3.853,30.3,0,0.758,0,0,0,0, ,0,0,0,0,0, ,-35.2,69.2,1001.7,-0.1,-0.5,-1.5,25,-0.0128384,-0.189173,0.549521,0.00850665,0.00745168,-0.00394467,
2026_06_09_16_05_45.173,3.853,30.3,0,0.761,0,0,0,0, ,0,0,0,0,0, ,-34.5,69,1003.5,-0.2,-0.6,-1.5,25,0.0218256,-0.146235,0.528646,0.0123638,0.00752529,-0.00514578,
2026_06_09_16_05_45.193,3.853,30.3,0,0.762,0,0,0,0, ,0,0,0,0,0, ,-34.9,69.3,1002.3,-0.2,-0.5,-1.5,25,0.0620384,-0.102229,0.520901,0.0135186,0.00755821,-0.00626261,
2026_06_09_16_05_45.213,3.853,30.4,0,0.759,0,0,0,0, ,0,0,0,0,0, ,-36,68.3,1001.2,-0.2,-0.6,-1.5,25,0.063191,-0.0770434,0.45457,0.0145503,0.00755226,-0.00729381,
2026_06_09_16_05_45.233,3.853,30.3,0,0.759,0,0,0,0, ,0,0,0,0,0, ,-36.7,68.3,1002.6,-0.2,-0.5,-1.5,25,0.0198367,-0.0772345,0.396608,0.0154596,0.00750939,-0.00823849,
2026_06_09_16_05_45.253,3.853,30.4,0,0.758,0,0,0,0, ,0,0,0,0,0, ,-35.5,68.8,1004.5,-0.2,-0.6,-1.6,25,-0.00922835,-0.0647748,0.420454,0.0162481,0.00743161,-0.0115484,
2026_06_09_16_05_45.273,3.853,30.4,0,0.758,0,0,0,0, ,0,0,0,0,0, ,-36.4,69.5,1003,-0.1,-0.5,-1.4,25,-0.029466,-0.023181,0.450869,0.01937,0.00732102,-0.0121869,
2026_06_09_16_05_45.296,3.853,30.4,0,0.759,0,0,0,0, ,0,0,0,0,0, ,-35.8,69,1002.9,-0.1,-0.5,-1.4,25,-0.0559224,0.0213913,0.438335,0.0246955,0.00963193,-0.00782972,
2026_06_09_16_05_45.312,3.853,30.4,0,0.758,0,0,0,0, ,0,0,0,0,0, ,-35.4,68.6,1004.2,-0.2,-0.6,-1.5,25,-0.056284,0.0416028,0.453683,0.027186,0.00932988,-0.00609979,
2026_06_09_16_05_45.332,3.853,30.4,0,0.761,0,0,0,0, ,0,0,0,0,0, ,-34.5,68.9,1003.1,-0.2,-0.6,-1.5,25,-0.0244725,0.0581659,0.470945,0.0269682,0.0065445,-0.0068768,
2026_06_09_16_05_45.355,3.853,30.3,0,0.762,0,0,0,0, ,0,0,0,0,0, ,-35.1,68.3,1002.3,-0.2,-0.6,-1.5,25,0.0132561,0.0662736,0.438448,0.0266282,0.00386347,-0.00758182,
2026_06_09_16_05_45.373,3.853,30.4,0,0.757,0,0,0,0, ,0,0,0,0,0, ,-36.6,69.2,1004.8,-0.2,-0.6,-1.5,25,-0.00242632,0.0810134,0.447071,0.0261736,0.00129489,-0.00821489,
2026_06_09_16_05_45.392,3.853,30.4,0,0.761,0,0,0,0, ,0,0,0,0,0, ,-34.7,69.4,1003.7,-0.3,-0.5,-1.5,25,-0.00751909,0.121605,0.487398,0.0231602,0.00129806,-0.00877644,
2026_06_09_16_05_45.411,3.853,30.4,0,0.761,0,0,0,0, ,0,0,0,0,0, ,-35.2,68.4,1002.3,-0.2,-0.6,-1.5,25,0.0220052,0.139989,0.462042,0.0201804,0.00129468,-0.00926718,
2026_06_09_16_05_45.431,3.853,30.3,0,0.761,0,0,0,0, ,0,0,0,0,0, ,-36.8,69,1003.4,-0.1,-0.5,-1.4,25,-0.00152234,0.146973,0.428296,0.0221516,0.00128508,-0.00723603,
2026_06_09_16_05_45.451,3.853,30.5,0,0.761,0,0,0,0, ,0,0,0,0,0, ,-34.5,68.9,1004.2,-0.3,-0.5,-1.5,25,-0.00672334,0.165151,0.440685,0.0214648,0.00372178,-0.00526883,
2026_06_09_16_05_45.471,3.853,30.4,0,0.761,0,0,0,0, ,0,0,0,0,0, ,-34.7,68.8,1003,-0.2,-0.6,-1.5,25,0.0398592,0.176719,0.440487,0.0182537,0.00356847,-0.00582431,
2026_06_09_16_05_45.491,3.853,30.4,0,0.759,0,0,0,0, ,0,0,0,0,0, ,-35.2,68.1,1001.8,-0.2,-0.6,-1.4,25,0.0667956,0.167232,0.379274,0.0175624,0.000952939,-0.00387167,
2026_06_09_16_05_45.511,3.853,30.4,0,0.76,0,0,0,0, ,0,0,0,0,0, ,-35.1,69.3,1003.4,-0.2,-0.6,-1.4,25,0.0822732,0.169647,0.329004,0.0168183,-0.00153902,0.00045644,
2026_06_09_16_05_45.530,3.853,30.4,0,0.759,0,0,0,0, ,0,0,0,0,0, ,-34.7,70,1002.4,-0.2,-0.6,-1.4,25,0.108847,0.217698,0.294291,0.0160279,-0.00390118,0.00457004,
2026_06_09_16_05_45.550,3.853,30.4,0,0.759,0,0,0,0, ,0,0,0,0,0, ,-35.7,69.9,1002.1,-0.3,-0.5,-1.4,25,0.118868,0.277033,0.227952,0.0127451,-0.0036761,0.00845937,
2026_06_09_16_05_45.570,3.853,30.5,0,0.761,0,0,0,0, ,0,0,0,0,0, ,-36.2,69.9,1002.5,-0.3,-0.6,-1.5,25,0.0910297,0.32964,0.166194,0.00710835,-0.00344395,0.0096641,
2026_06_09_16_05_45.590,3.853,30.4,0,0.761,0,0,0,0, ,0,0,0,0,0, ,-36,68.2,1003.9,-0.3,-0.5,-1.5,25,0.0567513,0.336356,0.150786,0.00171298,-0.00320621,0.00830997,
2026_06_09_16_05_45.617,3.853,30.5,0,0.759,0,0,0,0, ,0,0,0,0,0, ,-36.1,68.9,1002.9,-0.3,-0.5,-1.4,25,0.0263266,0.316563,0.145199,-0.00342622,-0.000512161,0.00943345,
2026_06_09_16_05_45.629,3.853,30.4,0,0.761,0,0,0,0, ,0,0,0,0,0, ,-35.6,69.9,1001.5,-0.3,-0.6,-1.5,25,0.00707298,0.337868,0.0803188,-0.00829649,-0.000399879,0.0104553,
2026_06_09_16_05_45.653,3.853,30.4,0,0.761,0,0,0,0, ,0,0,0,0,0, ,-35.2,70.5,1002.3,-0.3,-0.6,-1.5,25,0.0107981,0.395697,0.0035106,-0.012887,-0.00274329,0.00892342,
2026_06_09_16_05_45.669,3.853,30.4,0,0.759,0,0,0,0, ,0,0,0,0,0, ,-36.1,69.4,1003.9,-0.2,-0.6,-1.5,25,0.00202658,0.436479,-0.0106955,-0.0147367,-0.00495826,0.00742266,
2026_06_09_16_05_45.689,3.853,30.4,0,0.761,0,0,0,0, ,0,0,0,0,0, ,-34.9,68.4,1003.5,-0.2,-0.6,-1.5,25,0.00103168,0.421615,0.00527405,-0.013971,-0.00704016,0.00595892,
2026_06_09_16_05_45.709,3.853,30.4,0,0.761,0,0,0,0, ,0,0,0,0,0, ,-35.5,66.1,1001.9,-0.2,-0.6,-1.5,25,0.0147934,0.32448,-0.0286088,-0.0131739,-0.00898526,0.0045376,
2026_06_09_16_05_45.728,3.853,30.4,0,0.759,0,0,0,0, ,0,0,0,0,0, ,-35.1,69.7,1002,-0.2,-0.6,-1.4,25,0.0229031,0.262388,-0.0974714,-0.012351,-0.0107907,0.00561578,
2026_06_09_16_05_45.748,3.853,30.5,0,0.758,0,0,0,0, ,0,0,0,0,0, ,-37.4,69.7,1003.2,-0.3,-0.6,-1.5,25,-0.0160889,0.290326,-0.130599,-0.0139597,-0.0124544,0.00661342,
2026_06_09_16_05_45.768,3.853,30.4,0,0.758,0,0,0,0, ,0,0,0,0,0, ,-35.5,69.8,1004.8,-0.2,-0.5,-1.5,25,-0.0628981,0.317915,-0.0927972,-0.0154207,-0.011523,0.00507736,
2026_06_09_16_05_45.788,3.853,30.4,0,0.758,0,0,0,0, ,0,0,0,0,0, ,-35,69,1002.1,-0.2,-0.5,-1.5,25,-0.0482496,0.32542,-0.0833671,-0.014282,-0.00812826,0.00359162,
2026_06_09_16_05_45.808,3.853,30.4,0,0.761,0,0,0,0, ,0,0,0,0,0, ,-37.2,69.2,1002.5,-0.3,-0.6,-1.5,25,-0.0757686,0.316239,-0.130388,-0.0155808,-0.00731215,0.00216105,
2026_06_09_16_05_45.827,3.853,30.4,0,0.759,0,0,0,0, ,0,0,0,0,0, ,-35.7,70.5,1003.2,-0.2,-0.5,-1.5,25,-0.11873,0.342733,-0.147486,-0.0167392,-0.00650003,0.000789981,
2026_06_09_16_05_45.846,3.853,30.4,0,0.759,0,0,0,0, ,0,0,0,0,0, ,-35.4,69.9,1002.1,-0.3,-0.6,-1.5,25,-0.11486,0.383403,-0.172827,-0.0177583,-0.0056957,-0.000517737,
2026_06_09_16_05_45.875,3.853,30.4,0,0.761,0,0,0,0, ,0,0,0,0,0, ,-35.1,67.8,1003.7,-0.3,-0.6,-1.5,25,-0.0959006,0.353981,-0.183813,-0.021092,-0.00735492,-0.00175877,
2026_06_09_16_05_45.895,3.853,30.5,0,0.759,0,0,0,0, ,0,0,0,0,0, ,-35.4,68.3,1001.8,-0.3,-0.5,-1.4,25,-0.0773986,0.285023,-0.200711,-0.0241583,-0.00644435,-0.000478107,
2026_06_09_16_05_45.907,3.853,30.4,0,0.759,0,0,0,0, ,0,0,0,0,0, ,-35.6,71.1,1002.3,-0.3,-0.5,-1.5,25,-0.0716833,0.298963,-0.250121,-0.0269551,-0.00309451,0.000742103,
2026_06_09_16_05_45.927,3.853,30.4,0,0.761,0,0,0,0, ,0,0,0,0,0, ,-37.2,69.8,1002.8,-0.2,-0.5,-1.5,25,-0.110034,0.347529,-0.271354,-0.0270298,0.000106287,-0.000553348,
2026_06_09_16_05_45.947,3.853,30.4,0,0.759,0,0,0,0, ,0,0,0,0,0, ,-36.3,68.3,1002.6,-0.3,-0.6,-1.5,25,-0.163127,0.32334,-0.282853,-0.0269676,0.000697422,-0.00178254,
2026_06_09_16_05_45.967,3.853,30.3,0,0.76,0,0,0,0, ,0,0,0,0,0, ,-36,67.2,1004.1,-0.3,-0.5,-1.5,25,-0.183386,0.234987,-0.260515,-0.0292277,0.00125613,-0.00294266,
2026_06_09_16_05_45.986,3.853,30.4,0,0.76,0,0,0,0, ,0,0,0,0,0, ,-35,69.5,1003.5,-0.2,-0.5,-1.5,25,-0.169869,0.179235,-0.215919,-0.0287808,0.00423341,-0.00403139,
2026_06_09_16_05_46.006,3.853,30.5,0,0.758,0,0,0,0, ,0,0,0,0,0, ,-35.2,69.4,1001.5,-0.2,-0.6,-1.4,25,-0.136561,0.179282,-0.236202,-0.0257617,0.00459164,-0.00259469,
2026_06_09_16_05_46.026,3.853,30.5,0,0.759,0,0,0,0, ,0,0,0,0,0, ,-35.8,69.4,1004.1,-0.3,-0.5,-1.5,25,-0.123831,0.175991,-0.239614,-0.025216,0.00490968,-0.00121566,
2026_06_09_16_05_46.047,3.853,30.4,0,0.761,0,0,0,0, ,0,0,0,0,0, ,-35.5,69.2,1002.8,-0.3,-0.6,-1.5,25,-0.118471,0.167089,-0.209799,-0.0270249,0.00518793,-0.00235044,
2026_06_09_16_05_46.066,3.853,30.4,0,0.761,0,0,0,0, ,0,0,0,0,0, ,-35.7,69.5,1002.3,-0.3,-0.5,-1.5,25,-0.110338,0.160253,-0.224551,-0.0286119,0.00542696,-0.00341798,
2026_06_09_16_05_46.086,3.853,30.4,0,0.758,0,0,0,0, ,0,0,0,0,0, ,-35.4,69.5,1003.1,-0.2,-0.5,-1.5,25,-0.0996086,0.160318,-0.230117,-0.0275279,0.00807968,-0.00441632,
2026_06_09_16_05_46.105,3.853,30.4,0,0.759,0,0,0,0, ,0,0,0,0,0, ,-36.2,68.8,1002,-0.2,-0.6,-1.5,25,-0.101175,0.142426,-0.241633,-0.0239092,0.00811033,-0.00534393,
2026_06_09_16_05_46.128,3.853,30.4,0,0.759,0,0,0,0, ,0,0,0,0,0, ,-35.1,69.8,1002.6,-0.3,-0.5,-1.6,25,-0.0948092,0.132065,-0.263653,-0.0228023,0.0080995,-0.00865187,
2026_06_09_16_05_46.145,3.853,30.4,0,0.758,0,0,0,0, ,0,0,0,0,0, ,-35.1,68.1,1003.9,-0.2,-0.5,-1.5,25,-0.0613146,0.104396,-0.236702,-0.0216374,0.0105015,-0.0117549,
2026_06_09_16_05_46.169,3.853,30.4,0,0.761,0,0,0,0, ,0,0,0,0,0, ,-35.6,67.2,1003.7,-0.2,-0.6,-1.6,25,-0.0414213,0.0138141,-0.182932,-0.0179708,0.0102817,-0.0146479,
2026_06_09_16_05_46.192,3.853,30.3,0,0.761,0,0,0,0, ,0,0,0,0,0, ,-34.7,70.3,1004.1,-0.2,-0.6,-1.5,25,-0.0124909,-0.0184463,-0.125995,-0.0143954,0.00756986,-0.0173268,
2026_06_09_16_05_46.217,3.853,30.3,0,0.758,0,0,0,0, ,0,0,0,0,0, ,-36.2,69,1002.6,-0.2,-0.5,-1.4,25,0.000369132,-0.00489463,-0.0982033,-0.0109244,0.00740589,-0.0148846,
2026_06_09_16_05_46.225,3.853,30.3,0,0.761,0,0,0,0, ,0,0,0,0,0, ,-36.3,68.4,1000.1,-0.2,-0.5,-1.6,25,-0.0266378,-0.0385746,-0.169377,-0.00756988,0.00966563,-0.014941,
2026_06_09_16_05_46.245,3.853,30.4,0,0.758,0,0,0,0, ,0,0,0,0,0, ,-36.8,68.2,1003.9,-0.3,-0.6,-1.5,25,-0.066902,-0.09003,-0.204347,-0.00679468,0.00931474,-0.0173731,
2026_06_09_16_05_46.264,3.853,30.4,0,0.758,0,0,0,0, ,0,0,0,0,0, ,-36.2,67.6,1003.2,-0.3,-0.5,-1.4,25,-0.10241,-0.158136,-0.160576,-0.00847617,0.00893516,-0.014696,
2026_06_09_16_05_46.284,3.853,30.4,0,0.759,0,0,0,0, ,0,0,0,0,0, ,-36.8,68.9,1002.4,-0.2,-0.5,-1.6,25,-0.135671,-0.204956,-0.154943,-0.00758127,0.0109823,-0.0145299,
2026_06_09_16_05_46.303,3.853,30.3,0,0.759,0,0,0,0, ,0,0,0,0,0, ,-36.6,68.2,1003.2,-0.2,-0.6,-1.6,25,-0.176441,-0.233758,-0.148823,-0.00424073,0.0104228,-0.0192047,
2026_06_09_16_05_46.325,3.853,30.4,0,0.759,0,0,0,0, ,0,0,0,0,0, ,-35.8,69.8,1004.5,-0.2,-0.5,-1.4,25,-0.189821,-0.237926,-0.0907743,-0.00104312,0.00983934,-0.0186513,
2026_06_09_16_05_46.343,3.853,30.3,0,0.759,0,0,0,0, ,0,0,0,0,0, ,-35.7,69.7,1001.9,-0.3,-0.6,-1.5,25,-0.179539,-0.203934,-0.0670032,-0.000449351,0.00923602,-0.0155809,
2026_06_09_16_05_46.363,3.853,30.3,0,0.759,0,0,0,0, ,0,0,0,0,0, ,-35.6,68.9,1002.6,-0.3,-0.6,-1.5,25,-0.163973,-0.192673,-0.0906594,-0.00233465,0.0061646,-0.0150365,
2026_06_09_16_05_46.383,3.853,30.3,0,0.758,0,0,0,0, ,0,0,0,0,0, ,-35.7,68.4,1004.2,-0.3,-0.5,-1.5,25,-0.148362,-0.212894,-0.0563092,-0.00411598,0.00566559,-0.0144447,
2026_06_09_16_05_46.403,3.853,30.4,0,0.759,0,0,0,0, ,0,0,0,0,0, ,-35,70,1003.7,-0.2,-0.6,-1.5,25,-0.118072,-0.2041,0.00360847,-0.00333751,0.00516314,-0.0138107,
2026_06_09_16_05_46.424,3.853,30.4,0,0.759,0,0,0,0, ,0,0,0,0,0, ,-36,68.6,1004.3,-0.2,-0.6,-1.5,25,-0.0960426,-0.189826,0.0630214,-0.000128601,0.00220772,-0.0131398,
2026_06_09_16_05_46.445,3.853,30.4,0,0.759,0,0,0,0, ,0,0,0,0,0, ,-36.4,68.9,1002.1,-0.2,-0.6,-1.4,25,-0.10895,-0.202292,0.0799745,0.00292356,-0.000613636,-0.00998478,
2026_06_09_16_05_46.463,3.853,30.4,0,0.759,0,0,0,0, ,0,0,0,0,0, ,-34.9,69.3,1001.3,-0.2,-0.5,-1.5,25,-0.0937146,-0.195983,0.0221371,0.00581163,-0.000841438,-0.00693534,
2026_06_09_16_05_46.486,3.853,30.3,0,0.759,0,0,0,0, ,0,0,0,0,0, ,-35.2,68.4,1004.6,-0.2,-0.5,-1.5,25,-0.0493381,-0.201279,0.0283313,0.00852942,0.00139824,-0.00645343,
2026_06_09_16_05_46.531,3.853,30.3,0,0.758,0,0,0,0, ,0,0,0,0,0, ,-34.5,69.3,1005.3,-0.2,-0.6,-1.5,25,0.00291383,-0.205324,0.132168,0.0110719,0.00106903,-0.00596335,
2026_06_09_16_05_46.531,3.853,30.4,0,0.758,0,0,0,0, ,0,0,0,0,0, ,-34.6,68.6,1002.4,-0.2,-0.6,-1.5,25,0.0673018,-0.203253,0.176315,0.0134351,-0.00170147,-0.00546791,
2026_06_09_16_05_46.551,3.853,30.3,0,0.758,0,0,0,0, ,0,0,0,0,0, ,-33.3,67.9,1004,-0.3,-0.6,-1.5,25,0.157626,-0.234613,0.18555,0.013164,-0.00432771,-0.00496983,
2026_06_09_16_05_46.573,3.853,30.3,0,0.758,0,0,0,0, ,0,0,0,0,0, ,-35,68.1,1003,-0.2,-0.5,-1.5,25,0.232935,-0.27554,0.208131,0.0128414,-0.00435166,-0.00447168,
2026_06_09_16_05_46.581,3.853,30.3,0,0.761,0,0,0,0, ,0,0,0,0,0, ,-37.2,68.4,1001.9,-0.2,-0.6,-1.4,25,0.207769,-0.30084,0.177083,0.0149234,-0.00435299,-0.00152377,
2026_06_09_16_05_46.601,3.853,30.4,0,0.758,0,0,0,0, ,0,0,0,0,0, ,-36,69.4,1000.1,-0.3,-0.5,-1.4,25,0.158291,-0.291539,0.0755717,0.0143777,-0.0043328,0.00373925,
2026_06_09_16_05_46.621,3.853,30.4,0,0.759,0,0,0,0, ,0,0,0,0,0, ,-35.6,69.4,1001.8,-0.3,-0.5,-1.5,25,0.149694,-0.256736,-0.0237865,0.0113356,-0.00184009,0.00627356,
2026_06_09_16_05_46.643,3.853,30.4,0,0.76,0,0,0,0, ,0,0,0,0,0, ,-36.2,67.9,1003.7,-0.2,-0.6,-1.5,25,0.135877,-0.259157,-0.0298759,0.0108391,-0.00191272,0.00620049,
2026_06_09_16_05_46.660,3.853,30.3,0,0.759,0,0,0,0, ,0,0,0,0,0, ,-35.4,68.3,1000.4,-0.2,-0.6,-1.5,25,0.126972,-0.287155,-0.0698488,0.0127657,-0.00442453,0.00610046,
2026_06_09_16_05_46.680,3.853,30.2,0,0.758,0,0,0,0, ,0,0,0,0,0, ,-35.4,69.9,1001.7,-0.2,-0.6,-1.5,25,0.137495,-0.263322,-0.15656,0.0145348,-0.00679134,0.00597526,
2026_06_09_16_05_46.700,3.853,30.3,0,0.759,0,0,0,0, ,0,0,0,0,0, ,-34.7,69.4,1003.6,-0.2,-0.6,-1.4,25,0.16399,-0.212387,-0.15978,0.0161456,-0.0090086,0.00827892,
2026_06_09_16_05_46.724,3.853,30.3,0,0.759,0,0,0,0, ,0,0,0,0,0, ,-34.9,68.2,1004.3,-0.3,-0.6,-1.5,25,0.200638,-0.204589,-0.098298,0.0151456,-0.0110727,0.0104288,
2026_06_09_16_05_46.740,3.853,30.4,0,0.758,0,0,0,0, ,0,0,0,0,0, ,-35.5,68.9,1002.4,-0.2,-0.6,-1.5,25,0.214882,-0.208427,-0.0687719,0.0141201,-0.0129811,0.00996968,
2026_06_09_16_05_46.760,3.853,30.3,0,0.758,0,0,0,0, ,0,0,0,0,0, ,-35.7,69.2,1002.8,-0.3,-0.5,-1.5,25,0.207752,-0.186527,-0.0771374,0.0130752,-0.0122797,0.00948395,
2026_06_09_16_05_46.779,3.853,30.3,0,0.76,0,0,0,0, ,0,0,0,0,0, ,-37.7,68.4,1004.3,-0.3,-0.5,-1.5,25,0.146,-0.177043,-0.0381223,0.00956501,-0.00909997,0.0089753,
2026_06_09_16_05_46.800,3.853,30.3,0,0.76,0,0,0,0, ,0,0,0,0,0, ,-36.3,68.8,1001.8,-0.1,-0.6,-1.5,25,0.0718441,-0.176961,-0.0253544,0.0110841,-0.00848355,0.00844736,
2026_06_09_16_05_46.819,3.853,30.3,0,0.758,0,0,0,0, ,0,0,0,0,0, ,-35.2,69.2,1002,-0.3,-0.5,-1.5,25,0.0622749,-0.156393,-0.0694871,0.0124741,-0.00785555,0.00790368,
2026_06_09_16_05_46.845,3.853,30.3,0,0.759,0,0,0,0, ,0,0,0,0,0, ,-35.8,68.1,1003.4,-0.2,-0.5,-1.5,25,0.0651289,-0.153228,-0.0718775,0.0112823,-0.00476747,0.00734772,
2026_06_09_16_05_46.862,3.853,30.4,0,0.759,0,0,0,0, ,0,0,0,0,0, ,-34.7,69.3,1004,-0.3,-0.5,-1.5,25,0.0797827,-0.147011,-0.0247532,0.0100934,-0.00180734,0.00678281,
2026_06_09_16_05_46.883,3.853,30.2,0,0.759,0,0,0,0, ,0,0,0,0,0, ,-34.3,68.8,1001.8,-0.2,-0.5,-1.4,25,0.130107,-0.123209,-0.0190535,0.00891296,0.00101652,0.00866434,
2026_06_09_16_05_46.898,3.853,30.4,0,0.759,0,0,0,0, ,0,0,0,0,0, ,-34.1,71.4,1001.8,-0.2,-0.5,-1.5,25,0.192035,-0.0484716,-0.0674872,0.0101987,0.00369687,0.0104109,
2026_06_09_16_05_46.919,3.853,30.3,0,0.761,0,0,0,0, ,0,0,0,0,0, ,-35.2,71,1005.6,-0.3,-0.6,-1.5,25,0.22791,0.0767866,-0.0200312,0.00891894,0.0037754,0.00956832,
2026_06_09_16_05_46.938,3.853,30.4,0,0.761,0,0,0,0, ,0,0,0,0,0, ,-37.1,69,1004.3,-0.3,-0.6,-1.5,25,0.187338,0.136671,0.0865001,0.00520584,0.0013793,0.00871991,
2026_06_09_16_05_46.960,3.853,30.3,0,0.758,0,0,0,0, ,0,0,0,0,0, ,-37.4,69.5,1000.6,-0.3,-0.6,-1.5,25,0.0938847,0.156163,0.0647725,0.00164918,-0.00090608,0.00787014,
2026_06_09_16_05_46.977,3.853,30.3,0,0.759,0,0,0,0, ,0,0,0,0,0, ,-36.2,67.6,1002.4,-0.2,-0.6,-1.5,25,0.0266212,0.139599,-0.00279895,0.00071099,-0.00307491,0.00702326,
2026_06_09_16_05_47.001,3.853,30.4,0,0.76,0,0,0,0, ,0,0,0,0,0, ,-36.3,68.8,1004.3,-0.1,-0.6,-1.5,25,-0.0105007,0.105994,0.0236876,0.00471963,-0.00512222,0.00618329,
2026_06_09_16_05_47.018,3.853,30.2,0,0.759,0,0,0,0, ,0,0,0,0,0, ,-34.5,69.2,1002.6,-0.2,-0.6,-1.5,25,-0.00406363,0.11275,0.0536615,0.00850841,-0.00704389,0.00535405,
2026_06_09_16_05_47.041,3.853,30.2,0,0.759,0,0,0,0, ,0,0,0,0,0, ,-34.1,68.4,1001.3,-0.3,-0.5,-1.5,25,0.0560254,0.10881,0.00833618,0.00716512,-0.00638443,0.0045391,
2026_06_09_16_05_47.057,3.853,30.3,0,0.759,0,0,0,0, ,0,0,0,0,0, ,-33.5,69.3,1004.2,-0.3,-0.5,-1.5,25,0.137413,0.106979,0.00442811,0.00340024,-0.00327369,0.00374174,
2026_06_09_16_05_47.078,3.853,30.3,0,0.758,0,0,0,0, ,0,0,0,0,0, ,-34.7,66.4,1003.4,-0.2,-0.6,-1.4,25,0.199419,0.0556677,0.0521862,0.00225541,-0.00275153,0.0054172,
2026_06_09_16_05_47.099,3.853,30.3,0,0.758,0,0,0,0, ,0,0,0,0,0, ,-35.1,70,1001.9,-0.3,-0.5,-1.5,25,0.218166,0.0237634,0.0409454,0.00115561,-0.00224143,0.0069838,
2026_06_09_16_05_47.122,3.853,30.2,0,0.759,0,0,0,0, ,0,0,0,0,0, ,-36.3,68.2,1002,-0.2,-0.5,-1.4,25,0.195685,0.0374455,-0.0042767,0.000104045,0.000706871,0.00843915,
2026_06_09_16_05_47.136,3.853,30.3,0,0.759,0,0,0,0, ,0,0,0,0,0, ,-37.5,68.7,1003.6,-0.3,-0.5,-1.5,25,0.114489,0.0183939,-0.00557435,-0.000896457,0.00350709,0.00978153,
2026_06_09_16_05_47.159,3.853,30.2,0,0.759,0,0,0,0, ,0,0,0,0,0, ,-36.2,69,1002.1,-0.2,-0.5,-1.6,25,0.0391638,0.0198033,-0.00432934,-0.00184347,0.00615269,0.00610555,
2026_06_09_16_05_47.176,3.853,30.3,0,0.759,0,0,0,0, ,0,0,0,0,0, ,-35.5,68.4,1003.2,-0.3,-0.5,-1.4,25,0.0163828,0.0136896,-0.0129318,-0.00273496,0.00863823,0.00503193,
2026_06_09_16_05_47.198,3.853,30.2,0,0.759,0,0,0,0, ,0,0,0,0,0, ,-35.8,69.5,1002.8,-0.2,-0.5,-1.5,25,0.00444703,0.0200692,-0.00388319,-0.00356924,0.0109593,0.00643832,
2026_06_09_16_05_47.216,3.853,30.3,0,0.759,0,0,0,0, ,0,0,0,0,0, ,-34.4,67.9,1005.1,-0.2,-0.5,-1.5,25,0.0200484,0.0137761,0.0513309,-0.00189286,0.0131125,0.00529184,
2026_06_09_16_05_47.245,3.853,30.1,0,0.759,0,0,0,0, ,0,0,0,0,0, ,-35.2,67.5,1002.9,-0.2,-0.6,-1.4,25,0.0494988,-0.0413195,0.106037,-0.000289368,0.0126433,0.00662768,
2026_06_09_16_05_47.257,3.853,30.2,0,0.759,0,0,0,0, ,0,0,0,0,0, ,-34.1,69.9,1001.7,-0.2,-0.6,-1.4,25,0.0846174,-0.0444661,0.0741655,0.00123691,0.00968271,0.0103175,
2026_06_09_16_05_47.283,3.853,30.2,0,0.757,0,0,0,0, ,0,0,0,0,0, ,-35.1,69.2,1003,-0.3,-0.5,-1.5,25,0.120049,-0.00555261,0.0459428,0.000230082,0.00927173,0.0113233,
2026_06_09_16_05_47.295,3.853,30.2,0,0.759,0,0,0,0, ,0,0,0,0,0, ,-35.6,67.9,1004.7,-0.2,-0.6,-1.5,25,0.116369,-0.0175634,0.0924427,-0.000728503,0.0088352,0.0097719,
2026_06_09_16_05_47.318,3.853,30.2,0,0.758,0,0,0,0, ,0,0,0,0,0, ,-36.9,67.1,1002.4,-0.1,-0.6,-1.5,25,0.0681565,-0.080394,0.121494,0.00326784,0.00592438,0.00824838,
2026_06_09_16_05_47.335,3.853,30.2,0,0.758,0,0,0,0, ,0,0,0,0,0, ,-35.8,69.2,1003.4,-0.3,-0.5,-1.5,25,0.0170686,-0.107869,0.116644,0.00459991,0.00557928,0.00675893,
2026_06_09_16_05_47.356,3.853,30.1,0,0.759,0,0,0,0, ,0,0,0,0,0, ,-36.4,69.3,1002.5,-0.2,-0.5,-1.5,25,-0.0193371,-0.0795171,0.113909,0.00339183,0.00767578,0.00530921,
2026_06_09_16_05_47.373,3.853,30.2,0,0.762,0,0,0,0, ,0,0,0,0,0, ,-36.2,68.2,1003.5,-0.2,-0.6,-1.5,25,-0.0636708,-0.0766855,0.113198,0.00467845,0.00717946,0.00390443,
2026_06_09_16_05_47.395,3.853,30.2,0,0.758,0,0,0,0, ,0,0,0,0,0, ,-33.9,68.8,1003.5,-0.2,-0.6,-1.5,25,-0.0442124,-0.0858757,0.136486,0.0058789,0.00421994,0.00254931,
2026_06_09_16_05_47.414,3.853,30.2,0,0.759,0,0,0,0, ,0,0,0,0,0, ,-33.5,68.7,1003.4,-0.3,-0.6,-1.5,25,0.0407179,-0.0819311,0.155507,0.00453935,0.00138476,0.00124808,
2026_06_09_16_05_47.436,3.853,30.1,0,0.76,0,0,0,0, ,0,0,0,0,0, ,-35.8,67.8,1004.8,-0.2,-0.6,-1.5,25,0.0746914,-0.102298,0.204707,0.00324312,-0.00131819,4.51171e-06,
2026_06_09_16_05_47.453,3.853,30.2,0,0.757,0,0,0,0, ,0,0,0,0,0, ,-35.7,68.7,1001.7,-0.2,-0.5,-1.5,25,0.052683,-0.121162,0.208798,0.00444665,-0.00142992,-0.00117809,
2026_06_09_16_05_47.476,3.853,30.1,0,0.76,0,0,0,0, ,0,0,0,0,0, ,-35.6,69.2,1001.9,-0.3,-0.5,-1.5,25,0.0363986,-0.104173,0.140547,0.00311707,0.000923036,-0.00229688,
2026_06_09_16_05_47.493,3.853,30.2,0,0.761,0,0,0,0, ,0,0,0,0,0, ,-37.5,68.7,1003.4,-0.3,-0.6,-1.5,25,-0.0234053,-0.087504,0.116639,-0.000614827,0.000703885,-0.00334949,
2026_06_09_16_05_47.518,3.853,30.1,0,0.759,0,0,0,0, ,0,0,0,0,0, ,-37.2,68.6,1001.8,-0.2,-0.6,-1.5,25,-0.119396,-0.0859343,0.0908745,-0.00170851,-0.00196015,-0.00433396,
2026_06_09_16_05_47.533,3.853,30.1,0,0.76,0,0,0,0, ,0,0,0,0,0, ,-36.2,69,1003.1,-0.3,-0.5,-1.5,25,-0.178212,-0.0766615,0.0585684,-0.00274013,-0.00203171,-0.0052488,
2026_06_09_16_05_47.557,3.853,30.2,0,0.758,0,0,0,0, ,0,0,0,0,0, ,-35.1,68.6,1002.5,-0.2,-0.5,-1.5,25,-0.18177,-0.0674657,0.0447235,-0.00370765,0.000362417,-0.0060929,
2026_06_09_16_05_47.582,3.853,30.1,0,0.758,0,0,0,0, ,0,0,0,0,0, ,-35.4,68.6,1003.6,-0.2,-0.5,-1.5,25,-0.16464,-0.0681971,0.043598,-0.00215729,0.00263734,-0.00686557,
2026_06_09_16_05_47.605,3.853,30.3,0,0.757,0,0,0,0, ,0,0,0,0,0, ,-33.3,70.8,1003.4,-0.2,-0.5,-1.5,25,-0.1034,-0.0146088,0.0643828,-0.000672332,0.0047877,-0.00756652,
2026_06_09_16_05_47.612,3.853,30,0,0.758,0,0,0,0, ,0,0,0,0,0, ,-34.9,70.3,1003.7,-0.2,-0.5,-1.5,25,-0.0323931,0.0781101,0.0862841,0.000743112,0.006809,-0.0081958,
2026_06_09_16_05_47.633,3.853,30,0,0.758,0,0,0,0, ,0,0,0,0,0, ,-35.8,69.4,1003.1,-0.3,-0.5,-1.4,25,-0.026013,0.131567,0.0993284,-0.000366686,0.00869761,-0.00630166,
2026_06_09_16_05_47.652,3.853,30.2,0,0.76,0,0,0,0, ,0,0,0,0,0, ,-37.9,69.5,1001.9,-0.3,-0.6,-1.5,25,-0.0933824,0.162136,0.0671048,-0.00387241,0.00799857,-0.00446936,
2026_06_09_16_05_47.675,3.853,30.1,0,0.758,0,0,0,0, ,0,0,0,0,0, ,-36.6,67.6,1002.6,-0.2,-0.6,-1.5,25,-0.176605,0.146267,0.02387,-0.00473495,0.00484224,-0.00515706,
2026_06_09_16_05_47.691,3.853,30.1,0,0.76,0,0,0,0, ,0,0,0,0,0, ,-36.7,69.3,1002.6,-0.2,-0.6,-1.4,25,-0.22545,0.125552,-0.000198098,-0.0030797,0.00181684,-0.00333346,
2026_06_09_16_05_47.714,3.853,30.1,0,0.759,0,0,0,0, ,0,0,0,0,0, ,-36.4,69.4,1001.9,-0.1,-0.6,-1.4,25,-0.265883,0.149374,-0.0402488,0.00096171,-0.00106914,0.000869301,
2026_06_09_16_05_47.731,3.853,30.2,0,0.759,0,0,0,0, ,0,0,0,0,0, ,-35.5,70.9,1003.7,-0.3,-0.6,-1.5,25,-0.273598,0.210525,-0.0511622,0.00234802,-0.00380832,0.0024095,
2026_06_09_16_05_47.754,3.853,30.1,0,0.758,0,0,0,0, ,0,0,0,0,0, ,-35,68.8,1002.5,-0.2,-0.6,-1.5,25,-0.245255,0.252926,-0.0465759,0.0012026,-0.00639439,0.00141012,
2026_06_09_16_05_47.770,3.853,30,0,0.76,0,0,0,0, ,0,0,0,0,0, ,-35.6,68.2,1002.6,-0.3,-0.5,-1.5,25,-0.219546,0.225794,-0.0689597,0.000107438,-0.00636995,0.000452809,
2026_06_09_16_05_47.797,3.853,30.1,0,0.76,0,0,0,0, ,0,0,0,0,0, ,-36.2,68.2,1001.9,-0.2,-0.6,-1.5,25,-0.223442,0.184166,-0.104618,-0.000934547,-0.00631532,-0.000459786,
2026_06_09_16_05_47.810,3.853,30,0,0.758,0,0,0,0, ,0,0,0,0,0, ,-35.1,69.8,1004.1,-0.1,-0.5,-1.5,25,-0.213785,0.182906,-0.10123,0.0029835,-0.00623224,-0.00132536,
2026_06_09_16_05_47.833,3.853,30.2,0,0.758,0,0,0,0, ,0,0,0,0,0, ,-35.2,68.2,1002.4,-0.2,-0.6,-1.5,25,-0.179026,0.180807,-0.085248,0.00669469,-0.00612253,-0.00214195,
2026_06_09_16_05_47.850,3.853,30.2,0,0.759,0,0,0,0, ,0,0,0,0,0, ,-36.6,67.7,1003.4,-0.3,-0.5,-1.5,25,-0.181872,0.126425,-0.0867938,0.00528655,-0.00598802,-0.00290793,
2026_06_09_16_05_47.873,3.853,30.1,0,0.758,0,0,0,0, ,0,0,0,0,0, ,-36.9,67.8,1002.4,-0.2,-0.6,-1.5,25,-0.225369,0.0642778,-0.087836,0.00392142,-0.00583059,-0.00362202,
2026_06_09_16_05_47.890,3.853,30.1,0,0.757,0,0,0,0, ,0,0,0,0,0, ,-36.4,69,1002.4,-0.2,-0.5,-1.5,25,-0.260718,0.03674,-0.112916,0.00505608,-0.00565216,-0.00428324,
2026_06_09_16_05_47.913,3.853,30.1,0,0.758,0,0,0,0, ,0,0,0,0,0, ,-36,68.6,1003.2,-0.2,-0.5,-1.5,25,-0.270978,0.0299888,-0.116592,0.00611017,-0.00300246,-0.00489092,
2026_06_09_16_05_47.929,3.853,30.2,0,0.758,0,0,0,0, ,0,0,0,0,0, ,-34.6,69.8,1002.1,-0.2,-0.5,-1.5,25,-0.235261,0.0430384,-0.126871,0.00708245,-0.000467906,-0.00544469,
2026_06_09_16_05_47.959,3.853,30.2,0,0.758,0,0,0,0, ,0,0,0,0,0, ,-33.3,68.4,1005.1,-0.2,-0.5,-1.5,25,-0.133928,0.0503315,-0.0894309,0.00797214,0.00194465,-0.00594447,
2026_06_09_16_05_47.969,3.853,30.1,0,0.758,0,0,0,0, ,0,0,0,0,0, ,-34.5,69,1003.4,-0.2,-0.5,-1.5,25,-0.0344527,0.0374016,-0.0215067,0.00877891,0.0042293,-0.00639045,
2026_06_09_16_05_47.991,3.853,30.1,0,0.758,0,0,0,0, ,0,0,0,0,0, ,-34.7,68.8,1003.6,-0.2,-0.5,-1.4,25,0.0259838,0.0347302,0.00640988,0.00950285,0.00638106,-0.00433089,
2026_06_09_16_05_48.009,3.853,30.1,0,0.758,0,0,0,0, ,0,0,0,0,0, ,-34.9,68.7,1003.5,-0.2,-0.5,-1.5,25,0.0735195,0.0246621,0.0353773,0.0101445,0.00839584,-0.002351,
2026_06_09_16_05_48.032,3.853,30.1,0,0.757,0,0,0,0, ,0,0,0,0,0, ,-35.5,68.7,1001.5,-0.2,-0.5,-1.5,25,0.0987443,0.0125139,0.011255,0.0107046,0.0102704,-0.00290879,
2026_06_09_16_05_48.048,3.853,30.1,0,0.757,0,0,0,0, ,0,0,0,0,0, ,-36.7,70.3,1002.6,-0.2,-0.5,-1.4,25,0.0781065,0.0401345,-0.0338099,0.0111845,0.0120025,-0.000972721,
2026_06_09_16_05_48.073,3.853,30.1,0,0.759,0,0,0,0, ,0,0,0,0,0, ,-36.7,70.1,1002.8,-0.3,-0.5,-1.5,25,0.02867,0.100533,-0.0446201,0.00913361,0.0135904,0.000873189,
2026_06_09_16_05_48.088,3.853,30,0,0.757,0,0,0,0, ,0,0,0,0,0, ,-35.4,69.4,1002.9,-0.2,-0.5,-1.5,25,0.0133947,0.135404,-0.0473227,0.00713828,0.0150335,0.000172105,
2026_06_09_16_05_48.116,3.853,30.1,0,0.76,0,0,0,0, ,0,0,0,0,0, ,-35.7,69.3,1002.9,-0.3,-0.6,-1.5,25,0.0233242,0.148281,-0.0472064,0.00520562,0.0138796,-0.000495444,
2026_06_09_16_05_48.127,3.853,30,0,0.758,0,0,0,0, ,0,0,0,0,0, ,-34.4,67.2,1001.5,-0.1,-0.5,-1.5,25,0.0571734,0.105848,-0.081194,0.00579426,0.0127138,-0.00112781,
2026_06_09_16_05_48.154,3.853,30,0,0.76,0,0,0,0, ,0,0,0,0,0, ,-35,69.3,1001.2,-0.2,-0.6,-1.5,25,0.106246,0.0649742,-0.154802,0.00877763,0.0115426,-0.00172361,
2026_06_09_16_05_48.167,3.853,30,0,0.758,0,0,0,0, ,0,0,0,0,0, ,-34.9,68.7,1001.9,-0.2,-0.6,-1.5,25,0.140127,0.0625672,-0.214227,0.00911926,0.00791977,-0.00228169,
2026_06_09_16_05_48.189,3.853,30,0,0.76,0,0,0,0, ,0,0,0,0,0, ,-36.2,69.5,1002.6,-0.3,-0.5,-1.5,25,0.142231,0.0648742,-0.235353,0.00694704,0.00688774,-0.00280116,
2026_06_09_16_05_48.207,3.853,30,0,0.759,0,0,0,0, ,0,0,0,0,0, ,-36.3,68.4,1002.8,-0.3,-0.6,-1.5,25,0.109199,0.0593919,-0.232215,0.00239496,0.00587238,-0.00328135,
2026_06_09_16_05_48.230,3.853,30,0,0.758,0,0,0,0, ,0,0,0,0,0, ,-36.3,68.6,1003.4,-0.3,-0.6,-1.4,25,0.074798,0.0318163,-0.208467,-0.00194568,0.00242572,-0.00126965,
2026_06_09_16_05_48.246,3.853,30,0,0.758,0,0,0,0, ,0,0,0,0,0, ,-35.7,69.2,1001.8,-0.2,-0.5,-1.5,25,0.0564281,0.0250535,-0.209379,-0.00361169,0.00158829,0.000649644,
2026_06_09_16_05_48.269,3.853,30,0,0.76,0,0,0,0, ,0,0,0,0,0, ,-35.6,68.8,1002.1,-0.1,-0.5,-1.5,25,0.0558461,0.0234033,-0.241093,-0.000273877,0.00323627,1.94462e-05,
2026_06_09_16_05_48.286,3.853,30.1,0,0.76,0,0,0,0, ,0,0,0,0,0, ,-35.4,69,1002.8,-0.3,-0.6,-1.5,25,0.0623739,0.0168144,-0.245542,0.000449431,0.00233532,-0.000579941,
2026_06_09_16_05_48.315,3.853,30,0,0.758,0,0,0,0, ,0,0,0,0,0, ,-35.7,70,1003.2,-0.1,-0.5,-1.5,25,0.0658219,0.0398917,-0.221588,0.00113505,0.00146705,-0.00114707,
2026_06_09_16_05_48.326,3.853,30,0,0.758,0,0,0,0, ,0,0,0,0,0, ,-34.7,68.1,1003.4,-0.2,-0.6,-1.5,25,0.0859416,0.0395711,-0.183002,0.00423361,0.000634123,-0.00168074,
2026_06_09_16_05_48.351,3.853,29.9,0,0.759,0,0,0,0, ,0,0,0,0,0, ,-35.7,68.4,1003.9,-0.3,-0.5,-1.6,25,0.104651,-0.000163295,-0.128242,0.00225502,-0.000161076,-0.00463211,
2026_06_09_16_05_48.370,3.853,30,0,0.758,0,0,0,0, ,0,0,0,0,0, ,-35.7,68.7,1003.4,-0.2,-0.6,-1.4,25,0.0974055,-0.0232353,-0.0755357,0.00036236,-0.000916482,-0.00496375,
2026_06_09_16_05_48.395,3.853,30,0,0.758,0,0,0,0, ,0,0,0,0,0, ,-35.7,68.7,1001.9,-0.2,-0.6,-1.6,25,0.0900353,-0.0377049,-0.0740851,0.00101289,-0.00408249,-0.00525466,
2026_06_09_16_05_48.405,3.853,30,0,0.76,0,0,0,0, ,0,0,0,0,0, ,-36.8,69.7,1001.9,-0.2,-0.5,-1.5,25,0.0556091,-0.0267574,-0.109123,0.00162653,-0.00462094,-0.00795756,
2026_06_09_16_05_48.429,3.853,30,0,0.757,0,0,0,0, ,0,0,0,0,0, ,-35.8,69.4,1002,-0.2,-0.6,-1.5,25,0.020145,0.00095032,-0.139453,0.00220206,-0.00511021,-0.00803653,
2026_06_09_16_05_48.445,3.853,30,0,0.757,0,0,0,0, ,0,0,0,0,0, ,-34.3,67.9,1003.7,-0.2,-0.5,-1.5,25,0.047625,-0.0168443,-0.12347,0.0027385,-0.0055503,-0.00807202,
2026_06_09_16_05_48.471,3.853,30,0,0.758,0,0,0,0, ,0,0,0,0,0, ,-34.1,67.8,1001.8,-0.2,-0.6,-1.5,25,0.115209,-0.0729178,-0.112566,0.00323515,-0.00594145,-0.00806599,
2026_06_09_16_05_48.485,3.853,29.9,0,0.758,0,0,0,0, ,0,0,0,0,0, ,-36,69.5,1002.1,-0.2,-0.5,-1.5,25,0.137225,-0.0866473,-0.140878,0.00369149,-0.00628414,-0.00802051,
2026_06_09_16_05_48.507,3.853,29.9,0,0.758,0,0,0,0, ,0,0,0,0,0, ,-34.4,68.6,1003.9,-0.2,-0.6,-1.5,25,0.150127,-0.0796594,-0.115612,0.00410726,-0.00657905,-0.00793772,
2026_06_09_16_05_48.523,3.853,29.9,0,0.76,0,0,0,0, ,0,0,0,0,0, ,-35.5,68.9,1003.9,-0.2,-0.6,-1.4,25,0.173918,-0.0873344,-0.046874,0.00448239,-0.00927924,-0.00536772,
2026_06_09_16_05_48.548,3.853,30,0,0.758,0,0,0,0, ,0,0,0,0,0, ,-36.8,68.7,1003.4,-0.2,-0.5,-1.6,25,0.136833,-0.0917505,0.00646275,0.00481704,-0.00934911,-0.00534946,
2026_06_09_16_05_48.563,3.853,29.9,0,0.758,0,0,0,0, ,0,0,0,0,0, ,-37.4,67.9,1002.8,-0.3,-0.6,-1.5,25,0.0543017,-0.12002,0.0301771,0.00265938,-0.00936948,-0.0077579,
2026_06_09_16_05_48.592,3.853,30,0,0.757,0,0,0,0, ,0,0,0,0,0, ,-36.7,68.1,1003.2,-0.2,-0.5,-1.5,25,-0.0219977,-0.161024,0.0476751,0.000594424,-0.00934267,-0.00755782,
2026_06_09_16_05_48.603,3.853,30,0,0.758,0,0,0,0, ,0,0,0,0,0, ,-35.6,68.8,1002.3,-0.2,-0.6,-1.5,25,-0.0503078,-0.177154,0.0518192,0.00107997,-0.00927113,-0.00733031,
2026_06_09_16_05_48.631,3.853,29.9,0,0.758,0,0,0,0, ,0,0,0,0,0, ,-34.4,68.3,1003.5,-0.1,-0.5,-1.5,25,-0.0205818,-0.186715,0.0628609,0.00398855,-0.00915741,-0.00707784,
2026_06_09_16_05_48.643,3.853,29.9,0,0.759,0,0,0,0, ,0,0,0,0,0, ,-35.6,68.3,1003.4,-0.2,-0.5,-1.5,25,0.00778773,-0.207148,0.100026,0.00673483,-0.00655198,-0.00680286,
2026_06_09_16_05_48.667,3.853,30,0,0.761,0,0,0,0, ,0,0,0,0,0, ,-35.4,68.1,1002.9,-0.2,-0.6,-1.5,25,0.0102059,-0.230463,0.120163,0.00686106,-0.0064942,-0.00650784,
2026_06_09_16_05_48.683,3.853,29.9,0,0.758,0,0,0,0, ,0,0,0,0,0, ,-36,67.9,1003.6,-0.1,-0.6,-1.5,25,0.00264658,-0.261307,0.143623,0.00939945,-0.00885941,-0.00619522,
2026_06_09_16_05_48.709,3.853,29.8,0,0.758,0,0,0,0, ,0,0,0,0,0, ,-35.1,69,1003.1,-0.2,-0.6,-1.5,25,0.00280146,-0.267281,0.170128,0.011767,-0.011065,-0.0058674,
2026_06_09_16_05_48.722,3.853,29.9,0,0.76,0,0,0,0, ,0,0,0,0,0, ,-35.5,70.3,1003.6,-0.2,-0.5,-1.5,25,0.0151957,-0.212793,0.194495,0.0115083,-0.0106556,-0.00552674,
2026_06_09_16_05_48.748,3.853,30,0,0.757,0,0,0,0, ,0,0,0,0,0, ,-36,68.8,1003.2,-0.2,-0.5,-1.4,25,0.00483781,-0.164832,0.219161,0.0112056,-0.00776173,-0.00272339,
2026_06_09_16_05_48.761,3.853,29.8,0,0.757,0,0,0,0, ,0,0,0,0,0, ,-36.6,69,1003.1,-0.2,-0.6,-1.5,25,-0.0320097,-0.15029,0.229277,0.0108625,-0.00742365,-4.41002e-05,
2026_06_09_16_05_48.785,3.853,29.9,0,0.759,0,0,0,0, ,0,0,0,0,0, ,-35.1,69.5,1002.9,-0.3,-0.6,-1.5,25,-0.0448229,-0.118555,0.23041,0.00803057,-0.00951773,5.18428e-05,
2026_06_09_16_05_48.810,3.853,29.9,0,0.758,0,0,0,0, ,0,0,0,0,0, ,-35.4,68.3,1002,-0.2,-0.5,-1.5,25,-0.0273609,-0.104958,0.203379,0.00529792,-0.00901004,0.000142825,
2026_06_09_16_05_48.838,3.853,29.9,0,0.761,0,0,0,0, ,0,0,0,0,0, ,-35.2,68.2,1002.9,-0.2,-0.5,-1.5,25,-0.0130727,-0.123388,0.176672,0.00512533,-0.00603069,0.000228641,
2026_06_09_16_05_48.847,3.853,29.9,0,0.759,0,0,0,0, ,0,0,0,0,0, ,-35.5,69.3,1004,-0.2,-0.6,-1.5,25,-0.00187291,-0.115784,0.199447,0.00493596,-0.00561989,0.000309122,
2026_06_09_16_05_48.875,3.853,29.8,0,0.761,0,0,0,0, ,0,0,0,0,0, ,-36,68.4,1002.6,-0.2,-0.5,-1.5,25,-0.0108304,-0.103079,0.212764,0.00473154,-0.00520154,0.000384132,
2026_06_09_16_05_48.882,3.853,29.8,0,0.759,0,0,0,0, ,0,0,0,0,0, ,-35.4,69,1003.4,-0.2,-0.5,-1.5,25,-0.0168432,-0.0978448,0.209667,0.00451383,-0.00232591,0.000453571,
2026_06_09_16_05_48.910,3.853,29.8,0,0.759,0,0,0,0, ,0,0,0,0,0, ,-35.5,69.2,1001.7,-0.3,-0.5,-1.6,25,-0.0102172,-0.0727682,0.183621,0.00183239,0.000420145,-0.00193479,
2026_06_09_16_05_48.920,3.853,29.8,0,0.758,0,0,0,0, ,0,0,0,0,0, ,-35.1,68.2,1001,-0.2,-0.6,-1.6,25,0.00349072,-0.0681801,0.0990939,-0.00072657,0.000577297,-0.00664865,
2026_06_09_16_05_48.944,3.853,29.8,0,0.757,0,0,0,0, ,0,0,0,0,0, ,-35.5,68.3,1002.9,-0.3,-0.5,-1.5,25,0.0165092,-0.0855504,0.0476505,-0.00315645,0.000723896,-0.0086464,
2026_06_09_16_05_48.959,3.853,29.8,0,0.758,0,0,0,0, ,0,0,0,0,0, ,-36.6,68.2,1003.2,-0.2,-0.5,-1.5,25,-0.00797465,-0.101647,0.052443,-0.00545161,0.0033119,-0.00805139,
2026_06_09_16_05_48.989,3.853,29.8,0,0.759,0,0,0,0, ,0,0,0,0,0, ,-36,69,1002.4,-0.2,-0.5,-1.5,25,-0.0434792,-0.0992885,0.0444813,-0.00515518,0.00575666,-0.00744589,
2026_06_09_16_05_49.000,3.853,29.8,0,0.758,0,0,0,0, ,0,0,0,0,0, ,-35.8,68.6,1003.2,-0.2,-0.5,-1.5,25,-0.0574109,-0.0867474,0.0366908,-0.00484787,0.00805315,-0.00683339,
2026_06_09_16_05_49.026,3.853,29.8,0,0.758,0,0,0,0, ,0,0,0,0,0, ,-34.1,69.5,1002.8,-0.2,-0.6,-1.5,25,-0.0237854,-0.0621332,0.0389093,-0.00453175,0.00774516,-0.00621725,
2026_06_09_16_05_49.039,3.853,29.8,0,0.76,0,0,0,0, ,0,0,0,0,0, ,-33.8,68.1,1003.5,-0.3,-0.6,-1.5,25,0.0573515,-0.0506806,0.0481834,-0.00666096,0.00496194,-0.00560069,
2026_06_09_16_05_49.064,3.853,29.8,0,0.758,0,0,0,0, ,0,0,0,0,0, ,-35.6,68.6,1004.3,-0.2,-0.7,-1.5,25,0.0974441,-0.0616095,0.0935477,-0.00865292,-0.00016139,-0.00498676,
2026_06_09_16_05_49.079,3.853,29.8,0,0.758,0,0,0,0, ,0,0,0,0,0, ,-35.7,68.3,1005.9,-0.2,-0.6,-1.5,25,0.0884991,-0.0667943,0.195079,-0.00805238,-0.00503266,-0.00437837,
2026_06_09_16_05_49.105,3.853,29.8,0,0.761,0,0,0,0, ,0,0,0,0,0, ,-36,68.9,1002.4,-0.3,-0.6,-1.5,25,0.069748,-0.0640391,0.244078,-0.00989377,-0.00718807,-0.00377824,
2026_06_09_16_05_49.118,3.853,29.7,0,0.759,0,0,0,0, ,0,0,0,0,0, ,-36,69.4,1003.1,-0.2,-0.5,-1.5,25,0.0442163,-0.0341297,0.220811,-0.0115961,-0.00675018,-0.00318892,
2026_06_09_16_05_49.148,3.853,29.8,0,0.758,0,0,0,0, ,0,0,0,0,0, ,-35.8,69.8,1004.2,-0.2,-0.6,-1.5,25,0.0246232,0.0165506,0.241734,-0.0107056,-0.0063005,-0.00261278,
2026_06_09_16_05_49.165,3.853,29.7,0,0.761,0,0,0,0, ,0,0,0,0,0, ,-34.6,69.3,1003.7,-0.3,-0.5,-1.5,25,0.0401999,0.0622116,0.275154,-0.0122582,-0.00584182,-0.00205203,
2026_06_09_16_05_49.191,3.853,29.7,0,0.757,0,0,0,0, ,0,0,0,0,0, ,-35.5,68.3,1001.9,-0.2,-0.5,-1.6,25,0.062171,0.0685443,0.24918,-0.0136743,-0.00292469,-0.00396082,
2026_06_09_16_05_49.198,3.853,29.9,0,0.76,0,0,0,0, ,0,0,0,0,0, ,-35.4,69,1003.1,-0.3,-0.5,-1.5,25,0.0631409,0.066872,0.208538,-0.0149535,-0.000136209,-0.00575648,
2026_06_09_16_05_49.223,3.853,29.8,0,0.757,0,0,0,0, ,0,0,0,0,0, ,-36,69.7,1001.9,-0.3,-0.5,-1.5,25,0.0514912,0.0992823,0.168861,-0.0185484,0.00251619,-0.00498354,
2026_06_09_16_05_49.237,3.853,29.8,0,0.759,0,0,0,0, ,0,0,0,0,0, ,-35.8,69.9,1002.9,-0.3,-0.5,-1.4,25,0.0303505,0.151683,0.125394,-0.0218756,0.0050261,-0.00177179,
2026_06_09_16_05_49.262,3.853,29.8,0,0.758,0,0,0,0, ,0,0,0,0,0, ,-36.1,69.3,1001.5,-0.2,-0.5,-1.4,25,0.00764487,0.190958,0.0736325,-0.0224797,0.00738815,0.00374333,
2026_06_09_16_05_49.276,3.853,29.7,0,0.759,0,0,0,0, ,0,0,0,0,0, ,-36.8,67.8,1002,-0.2,-0.6,-1.5,25,-0.0385065,0.175871,0.00197629,-0.0204912,0.00714579,0.00651737,
2026_06_09_16_05_49.302,3.853,29.8,0,0.758,0,0,0,0, ,0,0,0,0,0, ,-36.1,69.3,1003.4,-0.2,-0.6,-1.5,25,-0.0822046,0.160656,-0.0195838,-0.0184992,0.00442793,0.00667108,
2026_06_09_16_05_49.316,3.853,29.8,0,0.758,0,0,0,0, ,0,0,0,0,0, ,-35.2,69,1002.4,-0.3,-0.5,-1.5,25,-0.08412,0.174822,-0.0301807,-0.0189659,0.0042737,0.00678438,
2026_06_09_16_05_49.349,3.853,29.7,0,0.757,0,0,0,0, ,0,0,0,0,0, ,-34.9,69.2,1002.6,-0.2,-0.6,-1.4,25,-0.056101,0.184979,-0.0597276,-0.0193163,0.00410598,0.00931085,
2026_06_09_16_05_49.356,3.853,29.8,0,0.758,0,0,0,0, ,0,0,0,0,0, ,-36.1,68.7,1004,-0.2,-0.5,-1.5,25,-0.0512491,0.18637,-0.0482972,-0.0171021,0.00392625,0.0116675,
2026_06_09_16_05_49.386,3.853,29.7,0,0.758,0,0,0,0, ,0,0,0,0,0, ,-34.5,68.9,1002.3,-0.2,-0.5,-1.5,25,-0.0365739,0.179418,-0.0445454,-0.0149122,0.00618814,0.0113989,
2026_06_09_16_05_49.395,3.853,29.7,0,0.76,0,0,0,0, ,0,0,0,0,0, ,-35.4,68.9,1003.4,-0.3,-0.5,-1.4,25,-0.00527309,0.176827,-0.0554706,-0.0152084,0.00830861,0.0135395,
2026_06_09_16_05_49.425,3.853,29.7,0,0.758,0,0,0,0, ,0,0,0,0,0, ,-35.7,67.9,1004,-0.3,-0.6,-1.5,25,-0.00490734,0.14897,-0.0238995,-0.0178673,0.00783197,0.0155084,
2026_06_09_16_05_49.435,3.853,29.8,0,0.758,0,0,0,0, ,0,0,0,0,0, ,-35.8,68.9,1003,-0.2,-0.5,-1.5,25,-0.0143439,0.121745,-0.00356819,-0.0178555,0.00734011,0.0148521,
2026_06_09_16_05_49.460,3.853,29.7,0,0.761,0,0,0,0, ,0,0,0,0,0, ,-36.7,68.2,1001.7,-0.2,-0.6,-1.5,25,-0.0477687,0.102612,-0.0406158,-0.0153042,0.0068362,0.0141549,
2026_06_09_16_05_49.475,3.853,29.7,0,0.758,0,0,0,0, ,0,0,0,0,0, ,-36.3,68.6,1000.4,-0.1,-0.5,-1.4,25,-0.0915795,0.0765546,-0.139402,-0.0103504,0.00632331,0.0158742,
2026_06_09_16_05_49.500,3.853,29.7,0,0.757,0,0,0,0, ,0,0,0,0,0, ,-37.3,68.4,1003.1,-0.2,-0.5,-1.5,25,-0.147503,0.0563024,-0.198327,-0.00558859,0.00825657,0.0174309,
2026_06_09_16_05_49.515,3.853,29.8,0,0.76,0,0,0,0, ,0,0,0,0,0, ,-35.4,68.9,1002.1,-0.1,-0.5,-1.5,25,-0.177888,0.0441225,-0.211699,-0.00103274,0.0100543,0.0163733,
2026_06_09_16_05_49.540,3.853,29.6,0,0.757,0,0,0,0, ,0,0,0,0,0, ,-34.6,68.6,1002,-0.2,-0.6,-1.5,25,-0.139698,0.0372268,-0.250345,0.00330476,0.00926221,0.0152868,
2026_06_09_16_05_49.554,3.853,29.7,0,0.757,0,0,0,0, ,0,0,0,0,0, ,-34.5,68.7,1001.5,-0.2,-0.6,-1.5,25,-0.0806223,0.0255813,-0.300575,0.0049611,0.00601113,0.0141783,
2026_06_09_16_05_49.581,3.853,29.7,0,0.758,0,0,0,0, ,0,0,0,0,0, ,-36.3,68.4,1003.4,-0.2,-0.6,-1.5,25,-0.0657336,0.0094767,-0.312529,0.00651175,0.00288987,0.0130543,
2026_06_09_16_05_49.593,3.853,29.8,0,0.759,0,0,0,0, ,0,0,0,0,0, ,-34.7,68.4,1002.5,-0.2,-0.5,-1.5,25,-0.0561555,-0.0132412,-0.297834,0.00795426,0.0023596,0.011921,
2026_06_09_16_05_49.623,3.853,29.7,0,0.758,0,0,0,0, ,0,0,0,0,0, ,-35.7,70.1,1003.2,-0.3,-0.5,-1.5,25,-0.0320574,0.00690701,-0.287298,0.00683466,0.00429587,0.0107846,
2026_06_09_16_05_49.633,3.853,29.6,0,0.758,0,0,0,0, ,0,0,0,0,0, ,-35.8,69,1004.2,-0.1,-0.6,-1.5,25,-0.0359569,0.0407459,-0.234175,0.00818845,0.00366385,0.00965076,
2026_06_09_16_05_49.669,3.853,29.8,0,0.758,0,0,0,0, ,0,0,0,0,0, ,-35.7,68.7,1001.9,-0.2,-0.6,-1.4,25,-0.039488,0.0383942,-0.214381,0.0118877,0.00059261,0.0109771,
2026_06_09_16_05_49.679,3.853,29.7,0,0.76,0,0,0,0, ,0,0,0,0,0, ,-37.2,69,1002.3,-0.2,-0.5,-1.5,25,-0.0769816,0.0359686,-0.241093,0.0128947,0.000121232,0.0121844,
2026_06_09_16_05_49.710,3.853,29.6,0,0.758,0,0,0,0, ,0,0,0,0,0, ,-35.6,67.8,1003.5,-0.2,-0.5,-1.4,25,-0.109805,0.0114154,-0.226073,0.0137888,0.00212454,0.0132723,
2026_06_09_16_05_49.718,3.853,29.7,0,0.758,0,0,0,0, ,0,0,0,0,0, ,-36.2,68.3,1002.5,-0.2,-0.6,-1.5,25,-0.115955,-0.0291549,-0.20577,0.0145711,0.00156696,0.0142415,
2026_06_09_16_05_49.746,3.853,29.8,0,0.757,0,0,0,0, ,0,0,0,0,0, ,-35.7,68.3,1001.8,-0.2,-0.5,-1.5,25,-0.123685,-0.0553311,-0.227137,0.0152432,0.00102901,0.0126409,
2026_06_09_16_05_49.752,3.853,29.7,0,0.758,0,0,0,0, ,0,0,0,0,0, ,-35.5,69.7,1003.4,-0.2,-0.6,-1.5,25,-0.113261,-0.0456207,-0.224265,0.0158072,0.000512364,0.0110564,
2026_06_09_16_05_49.779,3.853,29.6,0,0.759,0,0,0,0, ,0,0,0,0,0, ,-35,69.9,1004.1,-0.2,-0.6,-1.5,25,-0.085625,0.00307282,-0.164031,0.0162657,-0.00243363,0.00949513,
2026_06_09_16_05_49.792,3.853,29.8,0,0.76,0,0,0,0, ,0,0,0,0,0, ,-35.8,69.3,1002.1,-0.2,-0.5,-1.5,25,-0.0662787,0.0395546,-0.137821,0.0166215,-0.00277098,0.00796366,
2026_06_09_16_05_49.818,3.853,29.6,0,0.758,0,0,0,0, ,0,0,0,0,0, ,-36.1,68.3,1003,-0.2,-0.5,-1.4,25,-0.0745283,0.0348178,-0.13919,0.016878,-0.000625974,0.0089202,
2026_06_09_16_05_49.831,3.853,29.7,0,0.758,0,0,0,0, ,0,0,0,0,0, ,-36,69.2,1001.3,-0.2,-0.6,-1.4,25,-0.0869104,0.0276893,-0.159424,0.0170387,-0.00103524,0.012238,
2026_06_09_16_05_49.858,3.853,29.7,0,0.759,0,0,0,0, ,0,0,0,0,0, ,-35.1,68.9,1005.3,-0.2,-0.5,-1.4,25,-0.0737352,0.035487,-0.12148,0.0171075,-0.00141933,0.0153328,
2026_06_09_16_05_49.871,3.853,29.6,0,0.758,0,0,0,0, ,0,0,0,0,0, ,-36.2,68.2,1001.7,-0.2,-0.5,-1.5,25,-0.0657472,0.0182057,-0.0749886,0.0170887,0.000674567,0.0157481,
2026_06_09_16_05_49.907,3.853,29.7,0,0.758,0,0,0,0, ,0,0,0,0,0, ,-34.5,67.6,1002.9,-0.2,-0.5,-1.5,25,-0.043114,-0.030196,-0.089259,0.0169865,0.00266245,0.0136133,
2026_06_09_16_05_49.914,3.853,29.7,0,0.76,0,0,0,0, ,0,0,0,0,0, ,-34.9,68.4,1002.1,-0.2,-0.5,-1.5,25,0.0104997,-0.0711706,-0.0925819,0.0168057,0.00453972,0.0115161,
2026_06_09_16_05_49.945,3.853,29.6,0,0.758,0,0,0,0, ,0,0,0,0,0, ,-36.4,69,1001.7,-0.2,-0.5,-1.5,25,0.0148413,-0.0754547,-0.124712,0.0165509,0.00630255,0.00946492,
2026_06_09_16_05_49.951,3.853,29.7,0,0.758,0,0,0,0, ,0,0,0,0,0, ,-35.7,68.6,1003.2,-0.2,-0.6,-1.4,25,-0.00072054,-0.0742525,-0.127677,0.016227,0.00549571,0.0099199,
2026_06_09_16_05_49.977,3.853,29.7,0,0.759,0,0,0,0, ,0,0,0,0,0, ,-35.5,68.8,1001.5,-0.2,-0.6,-1.4,25,0.00655389,-0.0776477,-0.134772,0.0158391,0.00224918,0.0127558,
2026_06_09_16_05_49.990,3.853,29.7,0,0.76,0,0,0,0, ,0,0,0,0,0, ,-36.7,68.4,1002.6,-0.2,-0.5,-1.4,25,-0.0110824,-0.0853978,-0.155568,0.0153921,0.00160296,0.0153898,
2026_06_09_16_05_50.017,3.853,29.7,0,0.76,0,0,0,0, ,0,0,0,0,0, ,-36.6,69.3,1002.8,-0.2,-0.5,-1.5,25,-0.0547728,-0.0800863,-0.1427,0.0148912,0.00343269,0.0153666,
2026_06_09_16_05_50.029,3.853,29.6,0,0.76,0,0,0,0, ,0,0,0,0,0, ,-36.2,69,1001.8,-0.3,-0.5,-1.5,25,-0.0837897,-0.0599276,-0.149377,0.0118892,0.00515576,0.0128167,
2026_06_09_16_05_50.057,3.853,29.7,0,0.76,0,0,0,0, ,0,0,0,0,0, ,-35.5,68.7,1003.9,-0.2,-0.5,-1.5,25,-0.0839969,-0.0551753,-0.128016,0.00897597,0.00676893,0.0103286,
2026_06_09_16_05_50.069,3.853,29.7,0,0.759,0,0,0,0, ,0,0,0,0,0, ,-35.1,68.1,1002.4,-0.2,-0.6,-1.4,25,-0.0568062,-0.0724537,-0.0923574,0.0086135,0.00581745,0.0103638,
2026_06_09_16_05_50.102,3.853,29.7,0,0.758,0,0,0,0, ,0,0,0,0,0, ,-32.8,68.7,1002,-0.2,-0.6,-1.5,25,0.0355394,-0.0885276,-0.104584,0.00822635,0.00243181,0.0103463,
2026_06_09_16_05_50.111,3.853,29.6,0,0.758,0,0,0,0, ,0,0,0,0,0, ,-35.8,68.4,1001.9,-0.3,-0.6,-1.5,25,0.106016,-0.0960203,-0.127957,0.00536549,-0.000799773,0.00782639,
2026_06_09_16_05_50.137,3.853,29.6,0,0.758,0,0,0,0, ,0,0,0,0,0, ,-35.6,68.2,1002.6,-0.1,-0.5,-1.4,25,0.103853,-0.114933,-0.13484,0.00507065,-0.00141677,0.00784369,
2026_06_09_16_05_50.149,3.853,29.6,0,0.758,0,0,0,0, ,0,0,0,0,0, ,-35,69.8,1002.9,-0.3,-0.5,-1.5,25,0.120901,-0.0980218,-0.1162,0.00476528,0.000455643,0.00782149,
2026_06_09_16_05_50.195,3.853,29.6,0,0.758,0,0,0,0, ,0,0,0,0,0, ,-35.2,70,1002.8,-0.3,-0.5,-1.4,25,0.146326,-0.0373177,-0.0929962,-0.00045292,0.00223398,0.00776183,
2026_06_09_16_05_50.195,3.853,29.7,0,0.76,0,0,0,0, ,0,0,0,0,0, ,-35.8,69.8,1000.9,-0.2,-0.5,-1.5,25,0.150166,0.0205932,-0.119516,-0.00296081,0.00391409,0.00766685,
2026_06_09_16_05_50.229,3.853,29.5,0,0.759,0,0,0,0, ,0,0,0,0,0, ,-36.6,68.4,1002.8,-0.2,-0.5,-1.4,25,0.118747,0.0363279,-0.144145,-0.00287895,0.00549251,0.00753874,
2026_06_09_16_05_50.229,3.853,29.7,0,0.758,0,0,0,0.001, ,0,0,0,0,0, ,-37.1,69.4,1003.1,-0.2,-0.5,-1.5,25,0.0564062,0.0413032,-0.11291,-0.00278692,0.00696645,0.00737975,
2026_06_09_16_05_50.260,3.853,29.6,0,0.756,0,0,0,0, ,0,0,0,0,0, ,-35.5,68.6,1002,-0.2,-0.6,-1.5,25,0.0238182,0.0507351,-0.102268,-0.00268566,0.00588162,0.00474004,
2026_06_09_16_05_50.269,3.853,29.6,0,0.758,0,0,0,0, ,0,0,0,0,0, ,-35.8,69.2,1003.4,-0.1,-0.5,-1.5,25,0.0245891,0.0545501,-0.0842858,-0.000123978,0.00482099,0.00220642,
2026_06_09_16_05_50.299,3.853,29.5,0,0.759,0,0,0,0, ,0,0,0,0,0, ,-34.7,69,1003,-0.3,-0.5,-1.4,25,0.0448183,0.0677178,-0.0422485,-0.000139477,0.00624079,0.00223835,
2026_06_09_16_05_50.308,3.853,29.6,0,0.76,0,0,0,0.001, ,0,0,0,0,0, ,-35.7,69.2,1002.6,-0.2,-0.6,-1.5,25,0.0662866,0.0799059,-0.0216831,-0.00260569,0.00510804,0.00225768,
2026_06_09_16_05_50.334,3.853,29.5,0,0.76,0,0,0,0, ,0,0,0,0,0, ,-36,68.8,1003.1,-0.2,-0.5,-1.5,25,0.0544973,0.0861983,0.00043216,-0.00248595,0.00400567,-0.000187219,
2026_06_09_16_05_50.347,3.853,29.5,0,0.76,0,0,0,0.001, ,0,0,0,0,0, ,-35.6,69.7,1003.4,-0.1,-0.5,-1.4,25,0.0454698,0.104018,0.0410791,9.23347e-05,0.00538978,-5.91335e-05,
2026_06_09_16_05_50.374,3.853,29.5,0,0.758,0,0,0,0.001, ,0,0,0,0,0, ,-35.6,70.5,1004,-0.3,-0.5,-1.5,25,0.0464696,0.162138,0.1016,9.15528e-05,0.00667945,6.2962e-05,
2026_06_09_16_05_50.386,3.853,29.6,0,0.758,0,0,0,0.001, ,0,0,0,0,0, ,-35,68.7,1003.2,-0.2,-0.5,-1.5,25,0.0619043,0.192087,0.153748,-0.0023618,0.00787295,-0.0022734,
2026_06_09_16_05_50.413,3.853,29.5,0,0.758,0,0,0,0, ,0,0,0,0,0, ,-35.1,69.7,1003.2,-0.2,-0.5,-1.5,25,0.0885378,0.200003,0.182963,-0.00223104,0.00896912,-0.00448398,
2026_06_09_16_05_50.426,3.853,29.6,0,0.759,0,0,0,0.001, ,0,0,0,0,0, ,-36,68.2,1004,-0.2,-0.6,-1.5,25,0.0889071,0.194284,0.229461,-0.00209569,0.00751517,-0.00656404,
2026_06_09_16_05_50.457,3.853,29.6,0,0.759,0,0,0,0.001, ,0,0,0,0,0, ,-35.1,70,1002.4,-0.2,-0.5,-1.5,25,0.0888202,0.195245,0.252931,-0.00195665,0.00609548,-0.00850975,
2026_06_09_16_05_50.466,3.853,29.5,0,0.758,0,0,0,0.001, ,0,0,0,0,0, ,-35.6,70.3,1002.6,-0.2,-0.5,-1.5,25,0.0981085,0.246692,0.239672,-0.00181479,0.00716754,-0.0103181,
2026_06_09_16_05_50.494,3.853,29.5,0,0.758,0,0,0,0.001, ,0,0,0,0,0, ,-36,69.5,1003.1,-0.2,-0.5,-1.4,25,0.0843882,0.282139,0.243046,-0.00167094,0.0081517,-0.00953473,
2026_06_09_16_05_50.505,3.853,29.6,0,0.758,0,0,0,0.002, ,0,0,0,0,0, ,-35.6,68.9,1001.7,-0.2,-0.5,-1.5,25,0.070925,0.280127,0.222989,-0.00152591,0.00904742,-0.0087428,
2026_06_09_16_05_50.532,3.853,29.5,0,0.758,0,0,0,0.001, ,0,0,0,0,0, ,-36.1,69.2,1002.3,0,-0.5,-1.5,25,0.0553203,0.269477,0.183199,0.00352384,0.00985462,-0.0103988,
2026_06_09_16_05_50.545,3.853,29.6,0,0.758,0,0,0,0.002, ,0,0,0,0,0, ,-35.6,69.3,1001.3,-0.2,-0.6,-1.6,25,0.0402084,0.26783,0.134649,0.00830858,0.00812151,-0.0143745,
2026_06_09_16_05_50.572,3.853,29.6,0,0.759,0,0,0,0.001, ,0,0,0,0,0, ,-36.4,69.2,1002.4,-0.2,-0.5,-1.4,25,0.0182828,0.264943,0.0902687,0.00791339,0.00643337,-0.0156322,
2026_06_09_16_05_50.589,3.853,29.5,0,0.759,0,0,0,0.001, ,0,0,0,0,0, ,-36.1,67.9,1001.5,-0.1,-0.6,-1.5,25,-0.0149183,0.226562,0.052525,0.00995074,0.00479632,-0.014299,
2026_06_09_16_05_50.617,3.853,29.5,0,0.759,0,0,0,0.002, ,0,0,0,0,0, ,-35.4,69,1002.8,-0.2,-0.6,-1.5,25,-0.021896,0.184043,0.0261813,0.0118391,0.000763749,-0.0154129,
2026_06_09_16_05_50.623,3.853,29.5,0,0.759,0,0,0,0.002, ,0,0,0,0,0, ,-34,70.1,1003,-0.3,-0.5,-1.5,25,0.0230717,0.196649,0.037783,0.00867224,-0.000622651,-0.0163962,
2026_06_09_16_05_50.651,3.853,29.4,0,0.759,0,0,0,0.002, ,0,0,0,0,0, ,-34.4,69.7,1003.1,-0.3,-0.5,-1.6,25,0.090242,0.224833,0.0559856,0.00316576,0.000514174,-0.0197026,
2026_06_09_16_05_50.663,3.853,29.6,0,0.759,0,0,0,0.003, ,0,0,0,0,0, ,-35.7,67.5,1003.1,-0.3,-0.5,-1.5,25,0.111987,0.18677,0.0754712,-0.00208626,0.00159271,-0.0227498,
2026_06_09_16_05_50.692,3.853,29.6,0,0.758,0,0,0,0.001, ,0,0,0,0,0, ,-36.2,67.2,1002.5,-0.2,-0.6,-1.5,25,0.0879739,0.0883502,0.0789169,-0.00461826,0.000158341,-0.0230832,
2026_06_09_16_05_50.703,3.853,29.6,0,0.76,0,0,0,0.001, ,0,0,0,0,0, ,-35.2,68.6,1002.9,-0.1,-0.6,-1.5,25,0.0769661,0.0212951,0.0769015,-0.002099,-0.00365862,-0.0232866,
2026_06_09_16_05_50.736,3.853,29.5,0,0.759,0,0,0,0.001, ,0,0,0,0,0, ,-36,69.3,1002,-0.2,-0.6,-1.5,25,0.0710232,0.0089192,0.0623451,0.000307044,-0.00727036,-0.0233652,
2026_06_09_16_05_50.744,3.853,29.5,0,0.759,0,0,0,0.002, ,0,0,0,0,0, ,-35.7,68.9,1002.1,-0.2,-0.6,-1.4,25,0.052761,0.00446285,0.0285769,0.000141418,-0.0106691,-0.0208726,
2026_06_09_16_05_50.775,3.853,29.5,0,0.759,0,0,0,0.002, ,0,0,0,0,0, ,-36.8,69.3,1004,-0.2,-0.5,-1.4,25,0.0155171,0.000203058,0.0453672,-1.67817e-05,-0.0113965,-0.0159473,
2026_06_09_16_05_50.782,3.853,29.5,0,0.759,0,0,0,0.002, ,0,0,0,0,0, ,-34.6,69.4,1004.3,-0.2,-0.5,-1.5,25,0.0069971,0.00841199,0.115058,-0.00016714,-0.00957983,-0.0136371,
2026_06_09_16_05_50.811,3.853,29.4,0,0.758,0,0,0,0.002, ,0,0,0,0,0, ,-35.1,69.7,1002.8,-0.2,-0.5,-1.6,25,0.0405472,0.0259854,0.151338,-0.000309301,-0.00780507,-0.0162773,
2026_06_09_16_05_50.822,3.853,29.5,0,0.758,0,0,0,0.003, ,0,0,0,0,0, ,-35.4,69.4,1003.7,-0.2,-0.6,-1.5,25,0.0526348,0.0425688,0.170381,-0.000442966,-0.00853103,-0.0187077,
2026_06_09_16_05_50.850,3.853,29.6,0,0.76,0,0,0,0.002, ,0,0,0,0,0, ,-34.7,69.9,1004.2,-0.2,-0.6,-1.5,25,0.0736787,0.0630336,0.22198,-0.000567892,-0.0116315,-0.0184747,
2026_06_09_16_05_50.861,3.853,29.5,0,0.758,0,0,0,0.002, ,0,0,0,0,0, ,-35,70.1,1002.1,-0.2,-0.6,-1.5,25,0.103136,0.0993491,0.23072,-0.000683892,-0.0145226,-0.018162,
2026_06_09_16_05_50.891,3.853,29.5,0,0.76,0,0,0,0.002, ,0,0,0,0,0, ,-36.2,68.9,1001.5,-0.2,-0.5,-1.6,25,0.0938582,0.108872,0.171685,-0.000790834,-0.0147482,-0.0202273,
2026_06_09_16_05_50.901,3.853,29.5,0,0.759,0,0,0,0.002, ,0,0,0,0,0, ,-36.8,69,1003.9,-0.3,-0.6,-1.6,25,0.0404338,0.0904184,0.15884,-0.00334079,-0.01489,-0.0245438,
2026_06_09_16_05_50.929,3.853,29.5,0,0.759,0,0,0,0.002, ,0,0,0,0,0, ,-36.4,68.3,1003.2,-0.3,-0.6,-1.5,25,-0.0154741,0.0577108,0.187529,-0.00820139,-0.0174037,-0.0260755,
2026_06_09_16_05_50.941,3.853,29.4,0,0.756,0,0,0,0.003, ,0,0,0,0,0, ,-37.3,67.3,1002.6,-0.2,-0.5,-1.4,25,-0.0808246,-0.0153637,0.182007,-0.010331,-0.0172561,-0.0224992,
2026_06_09_16_05_50.972,3.853,29.5,0,0.758,0,0,0,0.003, ,0,0,0,0,0, ,-35.8,67.6,1002.6,-0.2,-0.6,-1.5,25,-0.127859,-0.101944,0.161145,-0.00985315,-0.0170308,-0.0189874,
2026_06_09_16_05_50.980,3.853,29.4,0,0.759,0,0,0,0.003, ,0,0,0,0,0, ,-35.5,69.9,1002.5,-0.2,-0.6,-1.5,25,-0.127817,-0.12002,0.138061,-0.00935015,-0.0191847,-0.0180065,
2026_06_09_16_05_51.014,3.853,29.5,0,0.759,0,0,0,0.004, ,0,0,0,0,0, ,-34.7,70,1004,-0.2,-0.5,-1.6,25,-0.100174,-0.0777652,0.149759,-0.00882573,-0.0186863,-0.0194371,
2026_06_09_16_05_51.020,3.853,29.5,0,0.76,0,0,0,0.003, ,0,0,0,0,0, ,-35.5,69.7,1003.2,-0.3,-0.5,-1.4,25,-0.073393,-0.0421043,0.177311,-0.0107357,-0.015668,-0.0182495,
2026_06_09_16_05_51.049,3.853,29.5,0,0.759,0,0,0,0.003, ,0,0,0,0,0, ,-36,67.9,1002.9,-0.3,-0.5,-1.5,25,-0.0794417,-0.0594802,0.175665,-0.0149513,-0.0127206,-0.0145781,
2026_06_09_16_05_51.060,3.853,29.5,0,0.759,0,0,0,0.003, ,0,0,0,0,0, ,-36.9,67.9,1002.3,-0.3,-0.5,-1.5,25,-0.119132,-0.11985,0.151163,-0.0188864,-0.00985505,-0.0134671,
2026_06_09_16_05_51.089,3.853,29.4,0,0.76,0,0,0,0.003, ,0,0,0,0,0, ,-36,69.9,1003.2,-0.2,-0.6,-1.4,25,-0.15629,-0.127624,0.134475,-0.0200833,-0.00953361,-0.00989205,
2026_06_09_16_05_51.099,3.853,29.5,0,0.76,0,0,0,0.004, ,0,0,0,0,0, ,-36.2,69,1001.5,-0.2,-0.5,-1.4,25,-0.173689,-0.107415,0.0983249,-0.0186703,-0.00918096,-0.00399141,
2026_06_09_16_05_51.128,3.853,29.4,0,0.759,0,0,0,0.003, ,0,0,0,0,0, ,-35.7,69.8,1001.7,-0.3,-0.6,-1.5,25,-0.182023,-0.0901198,0.026681,-0.0196868,-0.00880035,-0.000812642,
2026_06_09_16_05_51.139,3.853,29.5,0,0.759,0,0,0,0.004, ,0,0,0,0,0, ,-36.6,68.1,1002.6,-0.2,-0.4,-1.5,25,-0.198859,-0.0952981,-0.0146076,-0.0205565,-0.00594288,-0.00023793,
2026_06_09_16_05_51.166,3.853,29.5,0,0.758,0,0,0,0.003, ,0,0,0,0,0, ,-35.6,69.4,1004.5,-0.2,-0.6,-1.4,25,-0.211438,-0.109561,0.0148609,-0.01883,-0.00319626,0.00276193,
2026_06_09_16_05_51.178,3.853,29.4,0,0.761,0,0,0,0.003, ,0,0,0,0,0, ,-34.1,70.5,1002.4,-0.1,-0.5,-1.4,25,-0.161053,-0.0637333,0.0379079,-0.0146432,-0.00302075,0.00805322,
2026_06_09_16_05_51.208,3.853,29.5,0,0.758,0,0,0,0.004, ,0,0,0,0,0, ,-34.3,69.9,1003.6,-0.2,-0.5,-1.5,25,-0.080468,-0.00757787,0.0375677,-0.0105896,-0.000386801,0.0105932,
2026_06_09_16_05_51.218,3.853,29.4,0,0.76,0,0,0,0.003, ,0,0,0,0,0, ,-36.3,69.4,1003.1,-0.2,-0.5,-1.5,25,-0.057386,0.0188871,0.0542229,-0.00913473,0.00211988,0.0105042,
2026_06_09_16_05_51.249,3.853,29.4,0,0.757,0,0,0,0.004, ,0,0,0,0,0, ,-35.8,69.7,1002.8,-0.2,-0.6,-1.5,25,-0.0719355,0.0390566,0.0501771,-0.00770622,0.00204101,0.0103678,
2026_06_09_16_05_51.266,3.853,29.5,0,0.758,0,0,0,0.004, ,0,0,0,0,0, ,-36.1,69.7,1001.9,-0.3,-0.6,-1.5,25,-0.0805127,0.0654009,0.0166578,-0.00876196,-0.000496208,0.0101869,
2026_06_09_16_05_51.300,3.853,29.5,0,0.758,0,0,0,0.003, ,0,0,0,0,0, ,-35.6,68.8,1003.4,-0.3,-0.5,-1.6,25,-0.083368,0.0680615,-0.000585967,-0.0121749,-0.000454386,0.00751264,
2026_06_09_16_05_51.301,3.853,29.4,0,0.758,0,0,0,0.004, ,0,0,0,0,0, ,-36,68.2,1003.7,-0.3,-0.5,-1.5,25,-0.0832204,0.0334738,0.0271575,-0.0153605,0.00203979,0.00493247,
2026_06_09_16_05_51.331,3.853,29.4,0,0.758,0,0,0,0.004, ,0,0,0,0,0, ,-36,67.8,1004,-0.2,-0.6,-1.5,25,-0.0924785,-0.0241042,0.0681188,-0.0158619,0.00194942,0.00490669,
2026_06_09_16_05_51.338,3.853,29.4,0,0.758,0,0,0,0.004, ,0,0,0,0,0, ,-34.7,69.8,1000.6,-0.2,-0.5,-1.5,25,-0.0689488,-0.0395048,0.0307177,-0.0138085,0.00185388,0.00485799,
2026_06_09_16_05_51.365,3.853,29.4,0,0.758,0,0,0,0.004, ,0,0,0,0,0, ,-34,69.8,1002.4,-0.3,-0.5,-1.5,25,0.00281004,-0.00491226,-0.0442345,-0.0142398,0.00420605,0.00478774,
2026_06_09_16_05_51.377,3.853,29.4,0,0.76,0,0,0,0.005, ,0,0,0,0,0, ,-34.7,69.3,1004.3,-0.3,-0.6,-1.4,25,0.0710357,0.0157472,-0.0245626,-0.017032,0.00396997,0.0071495,
2026_06_09_16_05_51.407,3.853,29.4,0,0.758,0,0,0,0.005, ,0,0,0,0,0, ,-35.2,68.4,1002.9,-0.2,-0.6,-1.5,25,0.106139,0.000985486,0.00652646,-0.0171511,0.00127375,0.0093602,
2026_06_09_16_05_51.416,3.853,29.4,0,0.758,0,0,0,0.005, ,0,0,0,0,0, ,-36.3,67.6,1001.7,-0.2,-0.5,-1.5,25,0.0997637,-0.0547439,-0.027697,-0.0147277,0.00115564,0.00896419,
2026_06_09_16_05_51.443,3.853,29.4,0,0.758,0,0,0,0.005, ,0,0,0,0,0, ,-35.4,70.1,1004,-0.2,-0.5,-1.5,25,0.0883048,-0.0657838,-0.0331323,-0.0123506,0.00348978,0.00854342,
2026_06_09_16_05_51.456,3.853,29.4,0,0.758,0,0,0,0.005, ,0,0,0,0,0, ,-35.4,70.1,1005.2,-0.2,-0.5,-1.5,25,0.0990421,-0.0146539,0.0476878,-0.0100292,0.00569226,0.00810118,
2026_06_09_16_05_51.485,3.853,29.4,0,0.758,0,0,0,0.005, ,0,0,0,0,0, ,-34.9,68.7,1002.5,-0.3,-0.5,-1.5,25,0.121025,-0.000289724,0.0875269,-0.0102244,0.00775866,0.0076407,
2026_06_09_16_05_51.496,3.853,29.4,0,0.758,0,0,0,0.005, ,0,0,0,0,0, ,-35.4,68.7,1002.1,-0.3,-0.5,-1.5,25,0.141334,-0.0209589,0.0489628,-0.0128118,0.00968549,0.00716516,
2026_06_09_16_05_51.530,3.853,29.4,0,0.758,0,0,0,0.005, ,0,0,0,0,0, ,-36.4,67.7,1003.1,-0.2,-0.5,-1.5,25,0.123168,-0.0650326,0.0267612,-0.012757,0.0114701,0.00667762,
2026_06_09_16_05_51.536,3.853,29.4,0,0.76,0,0,0,0.005, ,0,0,0,0,0, ,-34.9,69.2,1005.8,-0.2,-0.6,-1.5,25,0.117547,-0.0943636,0.0962467,-0.0101898,0.0106585,0.00618108,
2026_06_09_16_05_51.567,3.853,29.4,0,0.758,0,0,0,0.005, ,0,0,0,0,0, ,-36,70,1000.2,-0.1,-0.5,-1.4,25,0.12143,-0.0653912,0.0907383,-0.00524618,0.00983413,0.0081306,
2026_06_09_16_05_51.575,3.853,29.4,0,0.759,0,0,0,0.005, ,0,0,0,0,0, ,-35.4,69.4,1001,-0.2,-0.5,-1.5,25,0.112264,-0.0326131,-0.0326505,-0.000519143,0.0114539,0.00994444,
2026_06_09_16_05_51.606,3.853,29.5,0,0.758,0,0,0,0.005, ,0,0,0,0,0, ,-35.8,67.8,1004.5,-0.3,-0.5,-1.5,25,0.107899,-0.0552292,-0.0443844,-0.000925698,0.0129378,0.00916814,
2026_06_09_16_05_51.615,3.853,29.4,0,0.759,0,0,0,0.004, ,0,0,0,0,0, ,-35.7,68.3,1002.9,-0.1,-0.5,-1.4,25,0.0958591,-0.103438,-0.00873245,0.00114441,0.0142852,0.0108369,
2026_06_09_16_05_51.643,3.853,29.4,0,0.76,0,0,0,0.005, ,0,0,0,0,0, ,-36.7,69.3,1001.9,-0.2,-0.6,-1.4,25,0.061868,-0.11199,-0.0385415,0.00555951,0.0130439,0.0148226,
2026_06_09_16_05_51.654,3.853,29.3,0,0.758,0,0,0,0.005, ,0,0,0,0,0, ,-36.1,70.4,1001.5,-0.2,-0.6,-1.6,25,0.0194305,-0.068075,-0.10103,0.00727852,0.00934704,0.0136354,
2026_06_09_16_05_51.683,3.853,29.4,0,0.757,0,0,0,0.006, ,0,0,0,0,0, ,-36.3,68.6,1004,-0.2,-0.5,-1.5,25,-0.0112128,-0.0431438,-0.10846,0.00887736,0.00823759,0.00998709,
2026_06_09_16_05_51.693,3.853,29.4,0,0.758,0,0,0,0.006, ,0,0,0,0,0, ,-35.2,68.4,1003.9,-0.2,-0.6,-1.6,25,-0.0182286,-0.0682659,-0.0561397,0.010354,0.00714195,0.00646849,
2026_06_09_16_05_51.723,3.853,29.3,0,0.759,0,0,0,0.006, ,0,0,0,0,0, ,-33.9,69.4,1001.2,-0.3,-0.5,-1.4,25,0.0340413,-0.0722022,-0.0747685,0.0092551,0.00606485,0.00554273,
2026_06_09_16_05_51.733,3.853,29.4,0,0.758,0,0,0,0.006, ,0,0,0,0,0, ,-34.7,69.9,1002.9,-0.3,-0.5,-1.4,25,0.0958407,-0.0388071,-0.116637,0.00571228,0.00746285,0.00953938,
2026_06_09_16_05_51.763,3.853,29.4,0,0.758,0,0,0,0.006, ,0,0,0,0,0, ,-34.5,68.6,1004.6,-0.2,-0.5,-1.6,25,0.139424,-0.026476,-0.0725045,0.00476723,0.00875551,0.00838869,
2026_06_09_16_05_51.773,3.853,29.4,0,0.758,0,0,0,0.006, ,0,0,0,0,0, ,-36.2,69.2,1001.3,-0.2,-0.6,-1.4,25,0.1434,-0.0317843,-0.0694147,0.00629719,0.00748946,0.00725309,
2026_06_09_16_05_51.808,3.853,29.4,0,0.758,0,0,0,0.006, ,0,0,0,0,0, ,-36.4,69.5,1001.3,-0.3,-0.5,-1.4,25,0.099884,-0.0146062,-0.147055,0.00526893,0.00624859,0.0110418,
2026_06_09_16_05_51.815,3.853,29.3,0,0.76,0,0,0,0.006, ,0,0,0,0,0, ,-36.1,69.8,1005.6,-0.3,-0.5,-1.6,25,0.0604617,0.0165145,-0.114721,0.00181296,0.00748994,0.00968588,
2026_06_09_16_05_51.848,3.853,29.4,0,0.758,0,0,0,0.007, ,0,0,0,0,0, ,-34.1,68.7,1003.6,-0.1,-0.6,-1.5,25,0.0790745,0.0264102,-0.0270073,0.00342187,0.00618134,0.0058966,
2026_06_09_16_05_51.852,3.853,29.4,0,0.758,0,0,0,0.006, ,0,0,0,0,0, ,-34,68.2,1000.3,-0.2,-0.5,-1.5,25,0.14788,-0.00354429,-0.0734267,0.00738718,0.00490645,0.00471627,
2026_06_09_16_05_51.882,3.853,29.3,0,0.758,0,0,0,0.006, ,0,0,0,0,0, ,-34.5,68.8,1002.8,-0.2,-0.5,-1.5,25,0.202774,-0.0295599,-0.136825,0.00866944,0.00612207,0.00357057,
2026_06_09_16_05_51.892,3.853,29.3,0,0.758,0,0,0,0.007, ,0,0,0,0,0, ,-35.6,69.3,1003.9,-0.2,-0.5,-1.5,25,0.214742,-0.0271801,-0.10816,0.0098461,0.0072479,0.00246347,
2026_06_09_16_05_51.921,3.853,29.3,0,0.76,0,0,0,0.007, ,0,0,0,0,0, ,-36.2,70.3,1003.6,-0.2,-0.5,-1.6,25,0.183377,0.0119994,-0.0607518,0.0109165,0.0082828,-0.00105364,
2026_06_09_16_05_51.931,3.853,29.4,0,0.758,0,0,0,0.007, ,0,0,0,0,0, ,-36,68.7,1000.1,-0.2,-0.6,-1.5,25,0.142839,0.0344852,-0.108552,0.0118806,0.00677396,-0.00439306,
2026_06_09_16_05_51.962,3.853,29.4,0,0.76,0,0,0,0.006, ,0,0,0,0,0, ,-36.1,69.7,1003.5,-0.3,-0.6,-1.5,25,0.106037,0.0409851,-0.155925,0.0102868,0.00285357,-0.0050949,
2026_06_09_16_05_51.972,3.853,29.4,0,0.759,0,0,0,0.006, ,0,0,0,0,0, ,-36.1,69,1003.6,-0.2,-0.5,-1.5,25,0.0680649,0.0543208,-0.11438,0.00872038,0.00156355,-0.00573721,
2026_06_09_16_05_52.001,3.853,29.3,0,0.758,0,0,0,0.006, ,0,0,0,0,0, ,-36.3,69.4,1001.5,-0.2,-0.5,-1.4,25,0.0267155,0.0593784,-0.123353,0.00963998,0.00278125,-0.00386758,
2026_06_09_16_05_52.018,3.853,29.3,0,0.758,0,0,0,0.007, ,0,0,0,0,0, ,-35,70.1,1000.9,-0.2,-0.5,-1.5,25,0.0142361,0.0908691,-0.197484,0.010467,0.00392553,-0.00207058,
2026_06_09_16_05_52.051,3.853,29.3,0,0.758,0,0,0,0.007, ,0,0,0,0,0, ,-36.3,69.7,1005.6,-0.3,-0.6,-1.5,25,0.0022985,0.127724,-0.166469,0.00874968,0.00254218,-0.00280367,
2026_06_09_16_05_52.051,3.853,29.4,0,0.759,0,0,0,0.007, ,0,0,0,0,0, ,-35.7,69.5,1004.5,-0.2,-0.5,-1.4,25,-0.0262301,0.147429,-0.0478771,0.00707347,0.00121414,-0.00103483,
2026_06_09_16_05_52.087,3.853,29.3,0,0.758,0,0,0,0.007, ,0,0,0,0,0, ,-34.7,68.2,1001.8,-0.2,-0.6,-1.5,25,-0.0139957,0.128658,-0.0280472,0.00789678,-5.47486e-05,0.000652358,
2026_06_09_16_05_52.095,3.853,29.3,0,0.759,0,0,0,0.008, ,0,0,0,0,0, ,-37.2,69.9,1002.4,-0.2,-0.5,-1.5,25,-0.0390748,0.119983,-0.0605465,0.00864078,-0.00126114,-0.000198572,
2026_06_09_16_05_52.125,3.853,29.3,0,0.76,0,0,0,0.008, ,0,0,0,0,0, ,-35.5,70.1,1005.2,-0.2,-0.5,-1.5,25,-0.0823487,0.157733,-0.00777934,0.00930572,5.0017e-05,-0.00100679,
2026_06_09_16_05_52.133,3.853,29.3,0,0.76,0,0,0,0.008, ,0,0,0,0,0, ,-35.5,69.3,1002,-0.1,-0.6,-1.5,25,-0.0814076,0.178141,0.032629,0.0123443,-0.00115554,-0.00177041,
2026_06_09_16_05_52.163,3.853,29.3,0,0.758,0,0,0,0.008, ,0,0,0,0,0, ,-34.7,67.9,1001.7,-0.2,-0.5,-1.5,25,-0.0604942,0.142723,-0.0149308,0.0151731,-0.00229628,-0.00248786,
2026_06_09_16_05_52.171,3.853,29.3,0,0.76,0,0,0,0.008, ,0,0,0,0,0, ,-35.4,68.7,1002.6,-0.3,-0.5,-1.5,25,-0.0378563,0.093626,-0.0453723,0.012884,-0.000917593,-0.00315785,
2026_06_09_16_05_52.201,3.853,29.3,0,0.759,0,0,0,0.008, ,0,0,0,0,0, ,-35.7,69.3,1005.6,-0.2,-0.5,-1.5,25,-0.0406636,0.0808053,0.0215363,0.0106437,0.000397999,-0.00377943,
2026_06_09_16_05_52.210,3.853,29.3,0,0.758,0,0,0,0.008, ,0,0,0,0,0, ,-33.9,68.9,1001.7,-0.1,-0.5,-1.5,25,-0.00635041,0.0731196,0.0629887,0.0133652,0.00164711,-0.0043519,
2026_06_09_16_05_52.240,3.853,29.3,0,0.758,0,0,0,0.008, ,0,0,0,0,0, ,-36.8,69.3,1000.4,-0.2,-0.5,-1.4,25,-0.000662498,0.0654505,-0.0254134,0.0158873,0.00282684,-0.00242268,
2026_06_09_16_05_52.249,3.853,29.3,0,0.757,0,0,0,0.008, ,0,0,0,0,0, ,-34.6,69.3,1005.2,-0.3,-0.5,-1.5,25,-0.0124153,0.0676436,-0.0235292,0.0133031,0.00393478,-0.000576134,
2026_06_09_16_05_52.280,3.853,29.3,0,0.761,0,0,0,0.008, ,0,0,0,0,0, ,-35.2,68.8,1004.3,-0.1,-0.5,-1.4,25,0.015704,0.0571349,0.074012,0.0132322,0.004969,0.00118269,
2026_06_09_16_05_52.289,3.853,29.4,0,0.761,0,0,0,0.008, ,0,0,0,0,0, ,-35.5,68.7,1001.8,-0.2,-0.5,-1.5,25,0.0202973,0.032147,0.0830307,0.0155518,0.005928,0.00284942,
2026_06_09_16_05_52.325,3.853,29.4,0,0.759,0,0,0,0.008, ,0,0,0,0,0, ,-35.5,68.7,1002.3,-0.2,-0.5,-1.5,25,0.0172089,0.00577382,0.0421546,0.0152287,0.00681076,0.00196821,
2026_06_09_16_05_52.332,3.853,29.3,0,0.759,0,0,0,0.008, ,0,0,0,0,0, ,-36.7,68.4,1005.2,-0.2,-0.5,-1.5,25,-0.0152388,-0.0266908,0.0864495,0.0148465,0.00761666,0.00112052,
2026_06_09_16_05_52.366,3.853,29.4,0,0.759,0,0,0,0.008, ,0,0,0,0,0, ,-35.4,68.7,1003.4,-0.2,-0.5,-1.5,25,-0.0435679,-0.0574316,0.155121,0.0144099,0.0083455,0.000308876,
2026_06_09_16_05_52.373,3.853,29.3,0,0.76,0,0,0,0.008, ,0,0,0,0,0, ,-36,69.5,1001.4,-0.2,-0.5,-1.5,25,-0.0531279,-0.0594081,0.126478,0.0139236,0.00899746,-0.000464483,
2026_06_09_16_05_52.404,3.853,29.3,0,0.759,0,0,0,0.009, ,0,0,0,0,0, ,-36.2,69.8,1001.2,-0.3,-0.5,-1.5,25,-0.0815744,-0.034021,0.0446684,0.0109405,0.00957311,-0.00119762,
2026_06_09_16_05_52.410,3.853,29.4,0,0.759,0,0,0,0.009, ,0,0,0,0,0, ,-34.4,68.7,1004.6,-0.2,-0.5,-1.5,25,-0.0689893,-0.0293286,0.045119,0.00804967,0.0100733,-0.00188891,
2026_06_09_16_05_52.441,3.853,29.4,0,0.76,0,0,0,0.008, ,0,0,0,0,0, ,-35.8,68.3,1002.8,-0.1,-0.6,-1.6,25,-0.0468726,-0.0615042,0.0845591,0.0101653,0.00804724,-0.00498914,
2026_06_09_16_05_52.448,3.853,29.4,0,0.758,0,0,0,0.008, ,0,0,0,0,0, ,-35.5,68.1,1001.3,-0.1,-0.5,-1.4,25,-0.0525834,-0.106512,0.0407273,0.0145792,0.00608085,-0.00546058,
2026_06_09_16_05_52.479,3.853,29.4,0,0.758,0,0,0,0.008, ,0,0,0,0,0, ,-34.6,69.2,1003,-0.2,-0.5,-1.5,25,-0.028329,-0.126718,0.00374896,0.0162527,0.00663308,-0.00342983,
2026_06_09_16_05_52.486,3.853,29.4,0,0.759,0,0,0,0.008, ,0,0,0,0,0, ,-35,69.3,1005.6,-0.3,-0.6,-1.5,25,0.00713624,-0.115882,0.0740083,0.0128597,0.00467338,-0.00393392,
2026_06_09_16_05_52.517,3.853,29.5,0,0.759,0,0,0,0.008, ,0,0,0,0,0, ,-36.3,69,1002.5,-0.2,-0.5,-1.5,25,-0.00085973,-0.109911,0.128196,0.00956966,0.00278676,-0.00439391,
2026_06_09_16_05_52.526,3.853,29.4,0,0.76,0,0,0,0.007, ,0,0,0,0,0, ,-36.2,67.3,999.3,-0.3,-0.5,-1.6,25,-0.0378853,-0.152734,0.0246093,0.00639384,0.0034311,-0.00726185,
2026_06_09_16_05_52.557,3.853,29.4,0,0.758,0,0,0,0.008, ,0,0,0,0,0, ,-35.2,68.8,1002.9,-0.2,-0.5,-1.4,25,-0.0459345,-0.197609,-0.0642096,0.00334226,0.00402692,-0.00750118,
2026_06_09_16_05_52.566,3.853,29.4,0,0.759,0,0,0,0.008, ,0,0,0,0,0, ,-34.9,71.2,1004.2,-0.2,-0.5,-1.5,25,-0.0214845,-0.143675,-0.0281996,0.00287604,0.00457368,-0.00523965,
2026_06_09_16_05_52.608,3.853,29.3,0,0.758,0,0,0,0.008, ,0,0,0,0,0, ,-35.1,68.6,1002.3,-0.3,-0.6,-1.5,25,0.00432444,-0.0965821,-0.00853051,-3.36596e-05,0.00261892,-0.00551536,
2026_06_09_16_05_52.608,3.853,29.4,0,0.757,0,0,0,0.009, ,0,0,0,0,0, ,-34.9,69.5,1001.5,-0.3,-0.6,-1.5,25,0.0288463,-0.0930097,-0.0559927,-0.00525265,-0.00170504,-0.00575038,
2026_06_09_16_05_52.640,3.853,29.3,0,0.759,0,0,0,0.009, ,0,0,0,0,0, ,-34.9,69,1005.4,-0.3,-0.5,-1.6,25,0.0569277,-0.0793455,-0.0248333,-0.0101898,-0.00335638,-0.00839769,
2026_06_09_16_05_52.647,3.853,29.3,0,0.759,0,0,0,0.009, ,0,0,0,0,0, ,-35.6,68.6,1001.9,-0.2,-0.5,-1.5,25,0.0661862,-0.0880298,0.0147295,-0.0123824,-0.00245802,-0.0108738,
2026_06_09_16_05_52.680,3.853,29.5,0,0.759,0,0,0,0.01, ,0,0,0,0,0, ,-36.3,68.3,999.2,-0.3,-0.6,-1.5,25,0.0403343,-0.113019,-0.0997548,-0.0144065,-0.00404377,-0.0107227,
2026_06_09_16_05_52.688,3.853,29.4,0,0.759,0,0,0,0.008, ,0,0,0,0,0, ,-36,68.9,1002,-0.4,-0.5,-1.5,25,0.00574281,-0.12887,-0.205681,-0.0211646,-0.00553182,-0.0105262,
2026_06_09_16_05_52.719,3.853,29.4,0,0.758,0,0,0,0.009, ,0,0,0,0,0, ,-35.4,69.2,1003.9,-0.3,-0.6,-1.5,25,-0.00511112,-0.121239,-0.190147,-0.027487,-0.00691963,-0.0102874,
2026_06_09_16_05_52.725,3.853,29.4,0,0.757,0,0,0,0.009, ,0,0,0,0,0, ,-35.5,68.3,1005.2,-0.2,-0.4,-1.5,25,-0.00314676,-0.128097,-0.0959685,-0.0284596,-0.00575312,-0.0100096,
2026_06_09_16_05_52.756,3.853,29.4,0,0.759,0,0,0,0.009, ,0,0,0,0,0, ,-34.5,71.1,1003.7,-0.1,-0.6,-1.5,25,0.0208063,-0.0873968,-0.0108402,-0.0243398,-0.00461546,-0.00969617,
2026_06_09_16_05_52.764,3.853,29.4,0,0.759,0,0,0,0.009, ,0,0,0,0,0, ,-34.9,70.1,1000.4,-0.2,-0.5,-1.6,25,0.0581949,-0.0041231,-0.047537,-0.0203022,-0.00596301,-0.0118025,
2026_06_09_16_05_52.796,3.853,29.4,0,0.76,0,0,0,0.009, ,0,0,0,0,0, ,-36,67.7,1003,-0.4,-0.6,-1.6,25,0.0566807,-0.00828656,-0.0993651,-0.023719,-0.00721509,-0.0161994,
2026_06_09_16_05_52.803,3.853,29.3,0,0.759,0,0,0,0.009, ,0,0,0,0,0, ,-35.6,68.9,1003.7,-0.2,-0.6,-1.5,25,0.0377964,-0.0416308,-0.0672407,-0.0268513,-0.0108224,-0.0178488,
2026_06_09_16_05_52.835,3.853,29.4,0,0.758,0,0,0,0.01, ,0,0,0,0,0, ,-35.6,68.1,1004.3,-0.3,-0.6,-1.4,25,0.0294607,-0.063326,-0.00448262,-0.0272455,-0.0141994,-0.0144249,
2026_06_09_16_05_52.844,3.853,29.5,0,0.758,0,0,0,0.009, ,0,0,0,0,0, ,-34.3,70,1003.9,-0.1,-0.5,-1.5,25,0.0532666,-0.0566713,0.0601243,-0.025034,-0.0148887,-0.0110979,
2026_06_09_16_05_52.880,3.853,29.4,0,0.758,0,0,0,0.008, ,0,0,0,0,0, ,-36,69,1003.4,-0.3,-0.5,-1.5,25,0.0658338,-0.0279942,0.0991979,-0.0228075,-0.0130186,-0.0103316,
2026_06_09_16_05_52.885,3.853,29.4,0,0.76,0,0,0,0.009, ,0,0,0,0,0, ,-35.5,68.7,1001.4,-0.2,-0.5,-1.4,25,0.0480343,-0.0324637,0.0745622,-0.02303,-0.0111761,-0.0070997,
2026_06_09_16_05_52.920,3.853,29.4,0,0.76,0,0,0,0.009, ,0,0,0,0,0, ,-35,67.8,1002.8,-0.3,-0.5,-1.5,25,0.0553926,-0.0659799,0.0360534,-0.0231281,-0.00936882,-0.00399135,
2026_06_09_16_05_52.928,3.853,29.4,0,0.76,0,0,0,0.009, ,0,0,0,0,0, ,-34.9,69.9,1001.8,-0.2,-0.6,-1.5,25,0.0768299,-0.0681011,0.00906334,-0.0231074,-0.0100562,-0.00346793,
2026_06_09_16_05_52.961,3.853,29.5,0,0.759,0,0,0,0.01, ,0,0,0,0,0, ,-35.6,68.3,1003.7,-0.2,-0.6,-1.5,25,0.0821244,-0.0575219,0.0054223,-0.0205216,-0.0131125,-0.00295309,
2026_06_09_16_05_52.968,3.853,29.4,0,0.759,0,0,0,0.009, ,0,0,0,0,0, ,-34.9,68.7,1001.4,-0.2,-0.5,-1.5,25,0.0867544,-0.0766041,-0.00787464,-0.0179616,-0.0135021,-0.00244895,
2026_06_09_16_05_53.000,3.853,29.4,0,0.757,0,0,0,0.01, ,0,0,0,0,0, ,-35.6,69.5,1001.9,-0.2,-0.6,-1.5,25,0.0907299,-0.064947,-0.0646192,-0.0154385,-0.013806,-0.00195746,
2026_06_09_16_05_53.007,3.853,29.4,0,0.758,0,0,0,0.01, ,0,0,0,0,0, ,-35.2,69.8,1002.9,-0.2,-0.5,-1.6,25,0.0867067,-0.0265676,-0.08148,-0.0129632,-0.014027,-0.00393259,
2026_06_09_16_05_53.039,3.853,29.5,0,0.759,0,0,0,0.01, ,0,0,0,0,0, ,-35.1,69.3,1004,-0.3,-0.5,-1.5,25,0.0947144,0.00515617,-0.0456176,-0.0129975,-0.0117159,-0.00579147,
2026_06_09_16_05_53.045,3.853,29.3,0,0.759,0,0,0,0.009, ,0,0,0,0,0, ,-35,68.1,1002.9,-0.3,-0.5,-1.4,25,0.106767,-0.00638813,-0.0112891,-0.0154182,-0.0094604,-0.00262632,
2026_06_09_16_05_53.077,3.853,29.4,0,0.759,0,0,0,0.011, ,0,0,0,0,0, ,-35.7,67.9,1000.8,-0.2,-0.5,-1.4,25,0.102989,-0.0516651,-0.0570581,-0.015192,-0.00726887,0.0028487,
2026_06_09_16_05_53.083,3.853,29.4,0,0.759,0,0,0,0.01, ,0,0,0,0,0, ,-36.4,69.9,1004.6,-0.3,-0.5,-1.5,25,0.0645587,-0.0503279,-0.0586156,-0.0149021,-0.00514901,0.00558901,
2026_06_09_16_05_53.120,3.853,29.5,0,0.758,0,0,0,0.01, ,0,0,0,0,0, ,-36,69.5,1004.3,-0.3,-0.6,-1.4,25,0.0203385,-0.00957371,0.0260178,-0.0170051,-0.00555989,0.00816739,
2026_06_09_16_05_53.127,3.853,29.4,0,0.759,0,0,0,0.009, ,0,0,0,0,0, ,-35.4,69.3,1002.8,-0.2,-0.5,-1.5,25,0.00270828,0.014516,0.0622336,-0.016469,-0.00592322,0.0105791,
2026_06_09_16_05_53.162,3.853,29.5,0,0.758,0,0,0,0.01, ,0,0,0,0,0, ,-36,68.3,1000.7,-0.3,-0.6,-1.6,25,-0.0140706,0.00792688,0.0080894,-0.0158781,-0.00623954,0.00791599,
2026_06_09_16_05_53.162,3.853,29.4,0,0.758,0,0,0,0.009, ,0,0,0,0,0, ,-33.8,67.6,1003.9,-0.3,-0.5,-1.5,25,0.00927739,-0.040065,-0.0164646,-0.01769,-0.0065096,0.00534452,
2026_06_09_16_05_53.193,3.853,29.5,0,0.76,0,0,0,0.01, ,0,0,0,0,0, ,-36.3,67.3,1004.3,-0.2,-0.6,-1.5,25,0.0240781,-0.110027,0.048544,-0.0168737,-0.00673433,0.00532498,
2026_06_09_16_05_53.208,3.853,29.5,0,0.758,0,0,0,0.009, ,0,0,0,0,0, ,-34.9,69.5,1001.9,-0.1,-0.5,-1.5,25,0.0110605,-0.129425,0.0610818,-0.01111,-0.00691485,0.00528016,
2026_06_09_16_05_53.241,3.853,29.5,0,0.759,0,0,0,0.01, ,0,0,0,0,0, ,-35.6,69.8,1000.6,-0.2,-0.6,-1.5,25,0.0157919,-0.0859299,-0.0180265,-0.0055742,-0.00705244,0.00521151,
2026_06_09_16_05_53.241,3.853,29.5,0,0.759,0,0,0,0.01, ,0,0,0,0,0, ,-34.1,68.3,1001.5,-0.2,-0.5,-1.6,25,0.0398309,-0.07357,-0.102975,-0.00273458,-0.00714853,0.00266839,
2026_06_09_16_05_53.276,3.853,29.4,0,0.758,0,0,0,0.01, ,0,0,0,0,0, ,-35.8,68.2,1002.9,-0.2,-0.5,-1.5,25,0.0575902,-0.100689,-0.12685,-2.07471e-05,-0.00475251,0.000236833,
2026_06_09_16_05_53.281,3.853,29.4,0,0.759,0,0,0,0.01, ,0,0,0,0,0, ,-36.6,67.3,1002.4,-0.2,-0.6,-1.5,25,0.0128907,-0.150502,-0.126858,0.00256009,-0.00490274,0.000375526,
2026_06_09_16_05_53.315,3.853,29.4,0,0.758,0,0,0,0.011, ,0,0,0,0,0, ,-36.3,70,1003,-0.2,-0.5,-1.5,25,-0.0419409,-0.152993,-0.123789,0.00500175,-0.00502144,0.000505566,
2026_06_09_16_05_53.321,3.853,29.4,0,0.759,0,0,0,0.011, ,0,0,0,0,0, ,-36.3,68.6,1004.3,-0.2,-0.5,-1.5,25,-0.0865202,-0.122729,-0.0736709,0.007299,-0.00265741,0.000626737,
2026_06_09_16_05_53.354,3.853,29.4,0,0.759,0,0,0,0.011, ,0,0,0,0,0, ,-36.4,68.1,1002.4,-0.2,-0.5,-1.6,25,-0.130939,-0.139935,-0.0403596,0.00944762,-0.000396225,-0.00171328,
2026_06_09_16_05_53.361,3.853,29.4,0,0.757,0,0,0,0.011, ,0,0,0,0,0, ,-35.2,69,1003,-0.2,-0.6,-1.4,25,-0.14556,-0.1458,-0.0403609,0.0114443,-0.000696143,-0.00147794,
2026_06_09_16_05_53.398,3.853,29.4,0,0.759,0,0,0,0.011, ,0,0,0,0,0, ,-35.1,67.9,1003.1,-0.3,-0.5,-1.5,25,-0.126869,-0.155562,-0.0229993,0.0108345,-0.000977921,0.00120531,
2026_06_09_16_05_53.398,3.853,29.4,0,0.759,0,0,0,0.011, ,0,0,0,0,0, ,-34.9,68.6,1002.4,-0.1,-0.6,-1.5,25,-0.101113,-0.173888,-0.0210882,0.0126534,-0.00124106,0.00129886,
2026_06_09_16_05_53.435,3.853,29.5,0,0.758,0,0,0,0.011, ,0,0,0,0,0, ,-35.1,68.6,1001.5,-0.2,-0.6,-1.4,25,-0.0761214,-0.173293,-0.0584009,0.0167728,-0.00393734,0.00383359,
2026_06_09_16_05_53.443,3.853,29.5,0,0.758,0,0,0,0.01, ,0,0,0,0,0, ,-35.2,68.2,1003,-0.3,-0.6,-1.5,25,-0.059337,-0.181682,-0.0788835,0.0157033,-0.00648198,0.00622511,
2026_06_09_16_05_53.477,3.853,29.5,0,0.76,0,0,0,0.01, ,0,0,0,0,0, ,-36.7,67.9,1004.2,-0.2,-0.6,-1.5,25,-0.0823179,-0.205929,-0.0317641,0.0146088,-0.00886988,0.0060165,
2026_06_09_16_05_53.483,3.853,29.6,0,0.758,0,0,0,0.01, ,0,0,0,0,0, ,-34.9,68.9,1002.1,-0.3,-0.6,-1.5,25,-0.0964096,-0.210806,-0.00886908,0.013496,-0.011097,0.00578847,
2026_06_09_16_05_53.515,3.853,29.5,0,0.759,0,0,0,0.009, ,0,0,0,0,0, ,-36.3,68.3,1002,-0.3,-0.6,-1.4,25,-0.0995264,-0.204597,-0.0410011,0.00991911,-0.0131601,0.00799526,
2026_06_09_16_05_53.521,3.853,29.4,0,0.759,0,0,0,0.01, ,0,0,0,0,0, ,-36,68.8,1004.8,-0.2,-0.6,-1.4,25,-0.128974,-0.200137,-0.00514648,0.00892091,-0.0150572,0.0125066,
2026_06_09_16_05_53.558,3.853,29.4,0,0.759,0,0,0,0.011, ,0,0,0,0,0, ,-35.6,67.6,1002.8,-0.3,-0.5,-1.5,25,-0.139176,-0.212073,0.048592,0.0079277,-0.014335,0.0142829,
2026_06_09_16_05_53.558,3.853,29.5,0,0.757,0,0,0,0.011, ,0,0,0,0,0, ,-35.8,68.3,1001.4,-0.2,-0.5,-1.5,25,-0.143287,-0.234641,0.016083,0.00694413,-0.0111253,0.0134495,
2026_06_09_16_05_53.592,3.853,29.6,0,0.758,0,0,0,0.011, ,0,0,0,0,0, ,-35.5,68.1,1003.2,-0.1,-0.6,-1.5,25,-0.144039,-0.242684,-0.00510173,0.0108789,-0.0104704,0.0125907,
2026_06_09_16_05_53.598,3.853,29.6,0,0.759,0,0,0,0.01, ,0,0,0,0,0, ,-36.1,68.3,1003,0.4,-0.5,-1.4,25,-0.151401,-0.249137,0.0140116,0.02928,-0.00979595,0.0141641,
2026_06_09_16_05_53.634,3.853,29.5,0,0.759,0,0,0,0.01, ,0,0,0,0,0, ,-36.7,67.7,1002.6,0.6,-0.5,-1.5,25,-0.187081,-0.263854,0.0174047,0.0637996,-0.00665418,0.0155905,
2026_06_09_16_05_53.641,3.853,29.5,0,0.76,0,0,0,0.011, ,0,0,0,0,0, ,-35.7,63.9,1003.6,2.5,-0.5,-1.4,25,-0.21028,-0.384444,0.035258,0.147807,-0.00363369,0.0168702,
2026_06_09_16_05_53.679,3.853,29.5,0,0.759,0,0,0,0.011, ,0,0,0,0,0, ,-34.9,75.1,1003.7,0.4,-0.5,-1.5,25,-0.187167,-0.315765,0.0790365,0.222062,-0.000743438,0.018004,
2026_06_09_16_05_53.679,3.853,29.4,0,0.758,0,0,0,0.011, ,0,0,0,0,0, ,-35,72.2,1003.1,-3,-0.6,-1.6,25,-0.1471,-0.0453695,0.108018,0.156712,-0.000443427,0.0140891,
2026_06_09_16_05_53.712,3.853,29.6,0,0.759,0,0,0,0.012, ,0,0,0,0,0, ,-35.4,64.9,1003.4,-1.2,-0.6,-1.6,25,-0.120534,-0.0381316,0.127689,0.0545596,-0.00260811,0.00784458,
2026_06_09_16_05_53.720,3.853,29.6,0,0.758,0,0,0,0.01, ,0,0,0,0,0, ,-35.1,66.5,1001.5,0.9,-0.5,-1.5,25,-0.0971283,-0.170834,0.106532,0.0527828,-0.00220161,0.00431984,
2026_06_09_16_05_53.757,3.853,29.6,0,0.759,0,0,0,0.01, ,0,0,0,0,0, ,-35.1,28.1,1004.8,15.2,-0.2,-1,25,-0.0670356,-1.19858,0.120218,0.452987,0.00800445,0.0156596,
2026_06_09_16_05_53.757,3.853,29.5,0,0.759,0,0,0,0.01, ,0,0,0,0,0, ,1.8,115.8,1002.4,10,-0.5,-3,25,0.866759,-0.961102,0.154709,1.05448,0.0176705,-0.0104163,
2026_06_09_16_05_53.791,3.853,29.6,0,0.761,0,0,0,0.011, ,0,0,0,0,0, ,-23.5,38,1001.7,5.1,-0.8,-6.7,25,2.03494,-0.487769,0.110731,1.37361,0.0120625,-0.174935,
2026_06_09_16_05_53.798,3.853,29.6,0,0.759,0,0,0,0.01, ,0,0,0,0,0, ,-8.5,79.8,1004.7,9.2,-0.6,-5.9,25,2.88322,-0.918024,0.124762,1.6507,0.00421788,-0.401636,
2026_06_09_16_05_53.830,3.853,29.4,0,0.76,0,0,0,0.01, ,0,0,0,0,0, ,-31.6,89.2,999.6,17.4,-0.3,-1,25,3.47707,-0.0671476,0.085995,2.20768,0.00899801,-0.475466,
2026_06_09_16_05_53.835,3.853,29.6,0,0.759,0,0,0,0.012, ,0,0,0,0,0, ,-35.1,118.2,994.5,10.5,0.2,2,25,3.37238,1.68396,-0.201416,2.75834,0.0331167,-0.349612,
2026_06_09_16_05_53.870,3.853,29.6,0,0.758,0,0,0,0.01, ,0,0,0,0,0, ,-0.2,74.2,1000.9,25.8,0,3.6,25,4.02619,2.97306,-0.441859,3.47438,0.0632457,-0.115407,
2026_06_09_16_05_53.877,3.853,29.6,0,0.759,0,0,0,0.01, ,0,0,0,0,0, ,-22.9,89.1,1026.2,62.2,0.9,11,25,4.92725,3.47072,0.109001,5.40595,0.108751,0.328575,
2026_06_09_16_05_53.913,3.853,29.6,0,0.76,0,0,0,0.01, ,0,0,0,0,0, ,-43.9,112.9,1026.7,67.5,-7.6,11.4,25,4.68824,4.87584,1.26496,8.2387,-0.0348764,0.940431,
2026_06_09_16_05_53.920,3.853,29.6,0,0.759,0,0,0,0.01, ,0,0,0,0,0, ,0.9,143.7,1085.3,31.4,-15.3,0.7,25,5.02147,7.52691,3.80723,10.1367,-0.568538,1.26507,
2026_06_09_16_05_53.959,3.853,29.6,0,0.76,0,0,0,0.011, ,0,0,0,0,0, ,7.4,143.4,1081,7,-32.6,-10,25,6.57156,10.7588,7.53758,10.408,-1.68626,1.0428,
2026_06_09_16_05_53.959,3.853,29.6,0,0.759,0,0,0,0.011, ,0,0,0,0,0, ,28.9,110.7,1098,-6.6,-53.4,-24.3,25,8.69985,12.9699,11.3593,9.68295,-3.67514,0.213242,
2026_06_09_16_05_53.992,3.853,29.6,0,0.759,0,0,0,0.011, ,0,0,0,0,0, ,65.9,196,1007.9,43.7,-55.7,-11.4,25,12.1154,16.2985,13.145,9.84567,-6.11481,-0.61101,
2026_06_09_16_05_53.998,3.853,29.6,0,0.758,0,0,0,0.011, ,0,0,0,0,0, ,-30.1,270.6,1077.7,11,-65.4,-6.2,25,13.857,23.3045,14.2806,10.3835,-8.69895,-0.947986,
2026_06_09_16_05_54.033,3.853,29.6,0,0.758,0,0,0,0.011, ,0,0,0,0,0, ,-58.7,170.4,1028.8,-10.8,-83.8,-2.9,25,12.3894,29.2244,15.8026,9.50729,-11.8025,-1.05533,
2026_06_09_16_05_54.033,3.853,29.8,0,0.758,0,0,0,0.011, ,0,0,0,0,0, ,-12.2,143.1,977.1,-16.9,-82.2,2,25,11.3717,31.5834,14.7052,7.94307,-15.1077,-0.95113,
2026_06_09_16_05_54.068,3.853,29.5,0,0.759,0,0,0,0.009, ,0,0,0,0,0, ,132,137.5,959.1,-17.9,-76.7,-3,25,15.0242,32.8642,11.88,6.24232,-18.0023,-0.849806,
2026_06_09_16_05_54.074,3.853,29.6,0,0.761,0,0,0,0.012, ,0,0,0,0,0, ,90.3,148.6,1014.6,0.1,-67.7,-9.8,25,20.9369,34.0552,10.0544,5.01108,-20.3105,-1.03862,
2026_06_09_16_05_54.116,3.853,29.6,0,0.759,0,0,0,0.011, ,0,0,0,0,0, ,83.2,155.8,1019.8,-10.2,-68.2,-9.3,25,25.2599,35.4686,9.75722,4.00435,-22.1971,-1.36754,
2026_06_09_16_05_54.116,3.853,29.6,0,0.759,0,0,0,0.011, ,0,0,0,0,0, ,62.2,160,1010.9,-17,-75.7,-4.4,25,28.5572,36.9175,9.3358,2.60793,-24.0779,-1.54117,
2026_06_09_16_05_54.151,3.853,29.6,0,0.761,0,0,0,0.011, ,0,0,0,0,0, ,194.7,162.1,940.7,-24,-81.2,-0.8,25,34.2863,38.2679,6.94938,0.928754,-26.0666,-1.49026,
2026_06_09_16_05_54.151,3.853,29.7,0,0.758,0,0,0,0.011, ,0,0,0,0,0, ,270.9,117.4,895.6,-29,-71.7,4.5,25,44.6831,38.3188,1.81841,-0.966911,-27.7312,-1.21626,
2026_06_09_16_05_54.193,3.853,29.7,0,0.757,0,0,0,0.01, ,0,0,0,0,0, ,289.4,80.4,968,-2.4,-51.2,11,25,56.672,36.175,-2.40044,-2.23517,-28.4418,-0.660342,
2026_06_09_16_05_54.193,3.853,29.5,0,0.758,0,0,0,0.01, ,0,0,0,0,0, ,206.5,92.4,1058.8,-5.2,-36.7,0,25,66.2144,33.345,-2.39863,-2.84661,-28.1192,-0.238786,
2026_06_09_16_05_54.232,3.853,29.6,0,0.759,0,0,0,0.012, ,0,0,0,0,0, ,247.9,165.5,935.1,-2.1,-13.7,2.5,25,73.9449,32.5763,-3.19185,-3.40667,-26.7543,-0.0451606,
2026_06_09_16_05_54.232,3.853,29.7,0,0.759,0,0,0,0.011, ,0,0,0,0,0, ,395.9,226.3,805.1,38.1,27.4,3,25,85.5762,34.9681,-10.1516,-2.86069,-23.7526,0.212756,
2026_06_09_16_05_54.268,3.853,29.7,0,0.759,0,0,0,0.01, ,0,0,0,0,0, ,361.8,82.5,734.3,86.7,67.2,17.1,25,99.0083,35.035,-21.6439,-0.149867,-18.7972,0.814991,
2026_06_09_16_05_54.275,3.853,29.6,0,0.76,0,0,0,0.01, ,0,0,0,0,0, ,312.6,147.8,815.4,165.9,107.4,48,25,109.251,33.001,-32.2133,5.56261,-12.0306,2.48715,
2026_06_09_16_05_54.311,3.853,29.7,0,0.759,0,0,0,0.011, ,0,0,0,0,0, ,279.6,292.7,929.3,212.5,142.3,84.1,25,116.437,36.0586,-37.3239,14.0523,-3.69487,5.70798,
2026_06_09_16_05_54.311,3.853,29.6,0,0.758,0,0,0,0.01, ,0,0,0,0,0, ,-85.9,266.1,1280,63.1,149.7,75.1,25,112.926,41.6894,-30.6072,19.5356,5.28747,9.40727,
2026_06_09_16_05_54.345,3.853,29.7,0,0.759,0,0,0,0.011, ,0,0,0,0,0, ,-43.4,465.2,1148.3,-10.4,134.1,-36.6,25,101.109,51.0686,-18.6988,19.1878,13.6022,9.919,
2026_06_09_16_05_54.352,3.853,29.7,0,0.759,0,0,0,0.01, ,0,0,0,0,0, ,68.4,313.5,1026.6,0.9,128.8,-81.1,25,93.1575,60.8985,-13.4961,17.2373,20.9295,6.52648,
2026_06_09_16_05_54.388,3.853,29.6,0,0.758,0,0,0,0.011, ,0,0,0,0,0, ,45,274.9,1044.6,10.6,124,-62.6,25,87.3044,65.2796,-11.0249,15.8124,27.5467,2.63062,
2026_06_09_16_05_54.394,3.853,29.7,0,0.76,0,0,0,0.011, ,0,0,0,0,0, ,77.2,384.3,1071.4,-10,105,-36.8,25,81.5239,70.8604,-7.52203,14.1122,33.12,-0.000836418,
2026_06_09_16_05_54.432,3.853,29.7,0,0.76,0,0,0,0.011, ,0,0,0,0,0, ,19.2,290.7,976.6,-28.1,70.6,-2.5,25,74.9925,76.2056,-5.82132,11.4769,36.9473,-1.02948,
2026_06_09_16_05_54.432,3.853,29.7,0,0.761,0,0,0,0.011, ,0,0,0,0,0, ,-129.3,291.9,1064.5,-42.7,22.9,6.9,25,63.3481,78.6473,-4.34453,8.11235,38.3916,-0.931017,
2026_06_09_16_05_54.473,3.853,29.7,0,0.759,0,0,0,0.011, ,0,0,0,0,0, ,-141.2,342.6,1074.5,-88.6,-31.5,-27,25,48.0293,81.8544,-0.518095,3.3893,37.0722,-1.43357,
2026_06_09_16_05_54.473,3.853,29.8,0,0.758,0,0,0,0.011, ,0,0,0,0,0, ,-191.1,300.6,1037.2,-158.4,-71.1,-63.4,25,31.7097,84.7141,2.45379,-3.95598,33.3297,-3.62828,
2026_06_09_16_05_54.514,3.853,29.7,0,0.758,0,0,0,0.01, ,0,0,0,0,0, ,-87.4,187,912.5,-214,-92.5,-64.8,25,17.3534,83.2005,1.29534,-13.9965,28.1107,-6.62439,
2026_06_09_16_05_54.514,3.853,29.7,0,0.76,0,0,0,0.011, ,0,0,0,0,0, ,-13.4,86.5,840.6,-172,-64.2,-44.8,25,7.97313,76.101,-4.63363,-23.8092,23.1784,-8.98481,
2026_06_09_16_05_54.551,3.853,29.7,0,0.76,0,0,0,0.011, ,0,0,0,0,0, ,90,25.8,982.9,-135.8,-18.4,-43.7,25,3.36376,65.0218,-8.52267,-31.1057,20.1907,-10.6678,
2026_06_09_16_05_54.551,3.853,29.7,0,0.759,0,0,0,0.011, ,0,0,0,0,0, ,90.6,-47.9,889.2,-88.8,27.5,-33.6,25,1.51413,50.8698,-10.9872,-35.8508,19.4987,-11.941,
2026_06_09_16_05_54.589,3.853,29.8,0,0.759,0,0,0,0.011, ,0,0,0,0,0, ,-10.9,7.9,904.1,-43.9,60.1,-3.6,25,-2.72649,36.7222,-15.2091,-37.933,20.6695,-12.1096,
2026_06_09_16_05_54.590,3.853,29.7,0,0.758,0,0,0,0.01, ,0,0,0,0,0, ,-103,11.7,986.2,-56.2,56.7,8.9,25,-11.4931,24.549,-16.7703,-38.9267,22.3971,-11.1681,
2026_06_09_16_05_54.628,3.853,29.8,0,0.758,0,0,0,0.011, ,0,0,0,0,0, ,-108.8,-145.9,993.4,-1.6,27.2,-10.2,25,-22.1738,9.08034,-15.9825,-38.6426,23.1228,-10.3796,
2026_06_09_16_05_54.628,3.853,29.7,0,0.76,0,0,0,0.01, ,0,0,0,0,0, ,-54.1,-97.5,991,11.4,3.5,-22.9,25,-31.0222,-8.35217,-15.0369,-36.5243,22.3943,-10.3584,
2026_06_09_16_05_54.664,3.853,29.7,0,0.761,0,0,0,0.011, ,0,0,0,0,0, ,36.6,81.4,889.7,26.1,-38.9,-41.3,25,-35.7184,-19.3148,-16.6065,-33.6507,19.9704,-11.0497,
2026_06_09_16_05_54.670,3.853,29.7,0,0.76,0,0,0,0.011, ,0,0,0,0,0, ,19.2,21.8,1057.3,-1.2,-77.1,-59.7,25,-38.2108,-26.7192,-16.3915,-31.0611,15.5905,-12.5552,
2026_06_09_16_05_54.707,3.853,29.7,0,0.759,0,0,0,0.011, ,0,0,0,0,0, ,-158.6,-53.1,947.2,-47.2,-97.8,-60.1,25,-45.1793,-36.9269,-14.6962,-30.2429,9.90421,-14.3859,
2026_06_09_16_05_54.707,3.853,29.7,0,0.759,0,0,0,0.011, ,0,0,0,0,0, ,-127.4,-188.7,855.8,50.5,-94.9,-50.1,25,-55.1782,-51.6138,-17.9528,-28.048,4.01151,-15.8205,
2026_06_09_16_05_54.747,3.853,29.7,0,0.758,0,0,0,0.011, ,0,0,0,0,0, ,182.2,133.6,836.1,55.5,-103.8,-29.2,25,-56.0579,-60.7479,-23.6855,-23.3041,-1.75909,-16.3491,
2026_06_09_16_05_54.747,3.853,29.8,0,0.759,0,0,0,0.011, ,0,0,0,0,0, ,279.2,11.4,804.5,114.2,-107.5,10.9,25,-46.6476,-64.2278,-30.2783,-17.1161,-7.54698,-15.2754,
2026_06_09_16_05_54.782,3.853,29.8,0,0.76,0,0,0,0.01, ,0,0,0,0,0, ,367.4,-66.1,942.8,88.1,-118.3,42.1,25,-32.9276,-72.1176,-33.7821,-10.3477,-13.3694,-12.4306,
2026_06_09_16_05_54.788,3.853,29.7,0,0.76,0,0,0,0.01, ,0,0,0,0,0, ,343.5,-31.7,1089.2,94.9,-135.8,67,25,-18.1414,-80.3218,-29.9662,-4.33357,-19.5343,-8.2885,
2026_06_09_16_05_54.824,3.853,29.8,0,0.76,0,0,0,0.011, ,0,0,0,0,0, ,338.7,116.2,1104.9,41.8,-146.3,99,25,-4.69478,-83.2575,-22.2149,0.271628,-25.9872,-2.91336,
2026_06_09_16_05_54.830,3.853,29.8,0,0.76,0,0,0,0.01, ,0,0,0,0,0, ,5.8,43,1020.8,-10.7,-126.6,103.1,25,-0.165405,-83.8072,-16.4115,2.06015,-31.77,3.09774,
2026_06_09_16_05_54.865,3.853,29.8,0,0.761,0,0,0,0.01, ,0,0,0,0,0, ,-62.8,96.4,969.1,-12,-52.6,27.5,25,-5.70278,-84.4024,-14.1419,2.43154,-34.8149,7.04549,
2026_06_09_16_05_54.865,3.853,29.8,0,0.759,0,0,0,0.01, ,0,0,0,0,0, ,307,49.8,558.2,-49.3,51,-89.9,25,-3.55457,-84.3858,-23.2576,1.8262,-33.1839,6.03222,
2026_06_09_16_05_54.900,3.853,29.8,0,0.758,0,0,0,0.01, ,0,0,0,0,0, ,501,31.3,909.4,49.4,160.8,-113.6,25,12.3311,-85.5504,-33.2755,2.74717,-26.2364,1.57893,
2026_06_09_16_05_54.906,3.853,29.8,0,0.759,0,0,0,0.01, ,0,0,0,0,0, ,294.7,83,1098.1,-14.5,202.3,-39.8,25,27.0753,-85.4222,-29.399,4.46279,-15.7902,-1.43521,
2026_06_09_16_05_54.942,3.853,29.8,0,0.758,0,0,0,0.01, ,0,0,0,0,0, ,220.7,89.5,1136.5,-32.5,188.4,16.9,25,34.0895,-83.4521,-19.9988,4.06395,-5.10174,-1.09439,
2026_06_09_16_05_54.948,3.853,29.8,0,0.759,0,0,0,0.01, ,0,0,0,0,0, ,54,58.8,1170.4,-22.8,116.5,32.3,25,34.6894,-81.7608,-9.18812,3.46112,2.98373,1.00313,
2026_06_09_16_05_54.986,3.853,29.8,0,0.76,0,0,0,0.01, ,0,0,0,0,0, ,55.1,98.8,970.9,-34,4.7,-10.5,25,31.0281,-79.5214,-2.92316,2.83401,6.15334,2.32093,
2026_06_09_16_05_54.986,3.853,29.7,0,0.759,0,0,0,0.011, ,0,0,0,0,0, ,-44.3,142.4,774.2,-20.9,-27.4,-44,25,24.983,-74.95,-6.6665,2.27029,5.60852,1.69168,
2026_06_09_16_05_55.028,3.853,29.8,0,0.76,0,0,0,0.011, ,0,0,0,0,0, ,56.6,43.7,994.3,-10.8,8.4,-28.4,25,19.148,-71.5845,-9.6196,2.29192,5.15351,0.646004,
2026_06_09_16_05_55.028,3.853,29.8,0,0.759,0,0,0,0.011, ,0,0,0,0,0, ,154.7,43.7,952.5,-10.1,56.1,-21.6,25,18.3847,-70.4516,-8.00826,2.56603,6.74297,0.197716,
2026_06_09_16_05_55.063,3.853,29.8,0,0.758,0,0,0,0.011, ,0,0,0,0,0, ,132.8,77.2,852,-8.8,78.8,-6.1,25,19.4367,-68.2055,-9.9259,2.86309,9.94756,0.31727,
2026_06_09_16_05_55.063,3.853,29.8,0,0.759,0,0,0,0.011, ,0,0,0,0,0, ,70.5,88,889,-2.1,94.9,8.9,25,18.2766,-64.6472,-13.2577,3.32765,13.8974,1.17731,
2026_06_09_16_05_55.100,3.853,29.8,0,0.76,0,0,0,0.011, ,0,0,0,0,0, ,-54,28.6,1081.1,2.1,105,18.7,25,12.5027,-62.1365,-10.7429,4.02031,18.2275,2.5975,
2026_06_09_16_05_55.113,3.853,29.8,0,0.759,0,0,0,0.011, ,0,0,0,0,0, ,-35.5,20.7,1123.7,-4.7,106.9,16.6,25,4.35103,-61.093,-2.54319,4.59543,22.5497,4.12405,
2026_06_09_16_05_55.150,3.853,29.8,0,0.758,0,0,0,0.011, ,0,0,0,0,0, ,-45.7,19.2,1125.9,-48.7,87.1,26.3,25,-3.21875,-60.0302,6.36544,3.874,26.1098,5.74178,
2026_06_09_16_05_55.150,3.853,29.8,0,0.759,0,0,0,0.011, ,0,0,0,0,0, ,-61.6,17.7,1008.5,-38.1,74.6,42.6,25,-11.0414,-58.7971,11.9809,2.34983,28.5746,7.88944,
2026_06_09_16_05_55.185,3.853,29.9,0,0.759,0,0,0,0.011, ,0,0,0,0,0, ,-131.1,27.9,976.3,-9.2,43.2,40.7,25,-20.5202,-57.1215,13.5935,1.85744,29.7012,10.246,
2026_06_09_16_05_55.185,3.853,29.8,0,0.76,0,0,0,0.01, ,0,0,0,0,0, ,-137.6,34.7,1014.1,-3.3,1.1,53.1,25,-31.2966,-54.8296,15.1973,2.2334,28.8239,12.694,
2026_06_09_16_05_55.223,3.853,29.8,0,0.761,0,0,0,0.011, ,0,0,0,0,0, ,-130,-18.5,1135.1,3.3,-33.8,70.5,25,-41.3633,-53.5177,20.5416,2.88643,25.9593,15.6901,
2026_06_09_16_05_55.223,3.853,29.8,0,0.76,0,0,0,0.011, ,0,0,0,0,0, ,-141.8,-80.3,1013.6,-9.9,-31,62.3,25,-50.8354,-54.8264,25.5103,3.33136,22.3202,18.6875,
2026_06_09_16_05_55.263,3.853,29.9,0,0.759,0,0,0,0.011, ,0,0,0,0,0, ,-184.4,88.9,962.4,15.9,-71.2,16.1,25,-60.9264,-53.1671,25.8748,4.04703,17.8324,20.1118,
2026_06_09_16_05_55.263,3.853,29.8,0,0.758,0,0,0,0.01, ,0,0,0,0,0, ,557.2,141.9,1162.7,-8.1,-112.1,19.4,25,-53.0817,-45.8785,29.75,4.7518,11.4882,20.3152,
2026_06_09_16_05_55.303,3.853,29.8,0,0.759,0,0,0,0.011, ,0,0,0,0,0, ,-73.6,-212.6,1012.2,-13.8,-48.7,67.4,25,-42.6431,-46.1144,34.5097,4.67029,5.95015,21.6665,
2026_06_09_16_05_55.303,3.853,29.7,0,0.758,0,0,0,0.011, ,0,0,0,0,0, ,-243.7,208.6,1271.8,13.3,-79.5,46.1,25,-52.1456,-44.476,41.5412,5.09452,1.45383,23.4995,
2026_06_09_16_05_55.340,3.853,29.8,0,0.76,0,0,0,0.012, ,0,0,0,0,0, ,-141.7,99.3,1137.4,-32.5,-98.3,3.6,25,-62.595,-35.0504,51.0932,5.01429,-4.04542,23.5622,
2026_06_09_16_05_55.340,3.853,29.9,0,0.76,0,0,0,0.011, ,0,0,0,0,0, ,-268.5,-190.1,855.7,13.6,-201.6,-26.9,25,-72.8317,-35.6911,49.7216,4.92064,-12.2491,21.7157,
2026_06_09_16_05_55.376,3.853,29.9,0,0.758,0,0,0,0.01, ,0,0,0,0,0, ,-7.8,66.1,899.7,16.4,-250.1,-20.8,25,-78.9239,-36.9386,42.3434,6.00643,-23.7125,19.2544,
2026_06_09_16_05_55.382,3.853,29.9,0,0.758,0,0,0,0.01, ,0,0,0,0,0, ,212.7,17,947,-16.3,-250.1,-14.8,25,-72.5285,-32.8645,37.3571,6.27618,-35.6861,17.1156,
2026_06_09_16_05_55.419,3.853,29.9,0,0.758,0,0,0,0.01, ,0,0,0,0,0, ,242.3,62.7,956.2,-22.7,-250.1,-21.4,25,-59.9565,-28.9115,33.8168,5.54297,-46.8966,14.9827,
2026_06_09_16_05_55.419,3.853,29.8,0,0.759,0,0,0,0.01, ,0,0,0,0,0, ,289.9,36.2,906.6,-44.4,-250.1,-34.9,25,-45.8126,-24.5392,29.2928,4.12935,-57.3262,12.3876,
2026_06_09_16_05_55.457,3.853,29.8,0,0.758,0,0,0,0.011, ,0,0,0,0,0, ,429,26.1,811.1,-71.2,-250.1,-60.5,25,-27.5583,-21.1578,21.2882,1.57541,-66.9618,8.89997,
2026_06_09_16_05_55.463,3.853,29.9,0,0.759,0,0,0,0.011, ,0,0,0,0,0, ,661,75.4,609.9,-86.5,-250.1,-71.8,25,-0.963481,-16.8767,6.29569,-1.89341,-75.7948,4.63467,
2026_06_09_16_05_55.500,3.853,29.9,0,0.76,0,0,0,0.01, ,0,0,0,0,0, ,805.9,2.8,468.3,-83.3,-250.1,-60.9,25,33.574,-13.2938,-16.3986,-5.47948,-83.821,0.545905,
2026_06_09_16_05_55.500,3.853,29.9,0,0.758,0,0,0,0.01, ,0,0,0,0,0, ,854.3,29.4,355.4,-72.5,-250.1,-42.9,25,70.9922,-10.9491,-44.1398,-8.51937,-91.0406,-2.63635,
2026_06_09_16_05_55.543,3.853,29.9,0,0.76,0,0,0,0.01, ,0,0,0,0,0, ,741.8,63.1,188.5,-60.2,-182.9,-30.9,25,104.654,-7.18673,-77.1641,-10.8017,-95.8095,-4.9139,
2026_06_09_16_05_55.543,3.853,29.9,0,0.759,0,0,0,0.01, ,0,0,0,0,0, ,772.3,64.6,65.7,-51,-146.1,-55.4,25,134.138,-2.71033,-115.292,-12.3917,-97.3222,-7.36205,
2026_06_09_16_05_55.583,3.853,29.8,0,0.757,0,0,0,0.01, ,0,0,0,0,0, ,919.5,59.3,-13.3,-51.3,-149.1,-60,25,165.872,1.46672,-155.931,-13.6244,-97.4522,-10.3674,
2026_06_09_16_05_55.583,3.853,29.9,0,0.758,0,0,0,0.011, ,0,0,0,0,0, ,986.4,79.7,-30.3,-36.7,-136.5,-55.1,25,200.483,5.80196,-196.162,-14.3789,-96.8601,-13.167,
2026_06_09_16_05_55.622,3.853,29.9,0,0.759,0,0,0,0.01, ,0,0,0,0,0, ,996.4,107.1,69.7,-1.4,-180.2,-21.2,25,234.294,11.0681,-231.418,-13.8018,-96.5823,-14.8129,
2026_06_09_16_05_55.622,3.853,29.9,0,0.76,0,0,0,0.01, ,0,0,0,0,0, ,1083,125.9,-141.4,-3,-180.5,21,25,267.66,17.1544,-266.529,-12.3587,-96.9212,-14.439,
2026_06_09_16_05_55.659,3.853,29.9,0,0.759,0,0,0,0.01, ,0,0,0,0,0, ,986.8,-45.7,-264.7,-15,-93.3,10.2,25,297.836,19.1107,-306.804,-11.2589,-94.6348,-13.2423,
2026_06_09_16_05_55.659,3.853,29.8,0,0.76,0,0,0,0.01, ,0,0,0,0,0, ,948.9,75.6,-267,-17.2,-27.4,-31.9,25,321.776,19.6434,-346.673,-10.5057,-88.2399,-13.3362,
2026_06_09_16_05_55.696,3.853,29.9,0,0.759,0,0,0,0.011, ,0,0,0,0,0, ,1041.3,81.2,-238.8,-19.3,-2.1,-23.1,25,344.292,23.165,-382.242,-9.84322,-79.4874,-14.1763,
2026_06_09_16_05_55.701,3.853,29.9,0,0.758,0,0,0,0.01, ,0,0,0,0,0, ,1043.8,84.9,-206,-11.9,24.2,-17.1,25,366.335,26.6278,-412.687,-9.03471,-69.5071,-14.5425,
2026_06_09_16_05_55.740,3.853,30,0,0.759,0,0,0,0.01, ,0,0,0,0,0, ,1036,98,-174.6,-3.3,31.3,-12.2,25,385.361,30.2015,-438.031,-7.82898,-58.8547,-14.5518,
2026_06_09_16_05_55.740,3.853,29.9,0,0.759,0,0,0,0.01, ,0,0,0,0,0, ,1019.2,113.7,-126.9,-9.3,12.7,-7.9,25,400.951,34.1573,-458.033,-6.58004,-48.7166,-14.2632,
2026_06_09_16_05_55.778,3.853,29.9,0,0.76,0,0,0,0.01, ,0,0,0,0,0, ,970.2,112.6,-166.5,-9.8,-0.6,-5.3,25,412.188,38.1088,-474.599,-5.51932,-39.618,-13.7494,
2026_06_09_16_05_55.778,3.853,29.9,0,0.759,0,0,0,0.01, ,0,0,0,0,0, ,1015.5,125,-171.6,-4.5,4,-8.4,25,420.751,41.9558,-489.109,-4.36572,-30.9836,-13.2052,
2026_06_09_16_05_55.819,3.853,29.9,0,0.759,0,0,0,0.01, ,0,0,0,0,0, ,1028.1,130,-176.6,-0.4,7.7,-2.5,25,428.24,45.834,-500.745,-3.01667,-22.4165,-12.554,
