UTC_Time,Vin,TC1,TC2,Rh1,Vh1,Ah1,Acp1,Dty1,Err1,Rh2,Vh2,Ah2,Acp2,Dty2,Err2,Accel_x,Accel_y,Accel_z,gyro_x,gyro_y,gyro_z,Temp_c,Accel_x_h,Accel_y_h,Accel_z_h,gyro_x_h,gyro_y_h,gyro_z_h,
2026_07_06_17_19_31.695,3.873,39,0,0.764,0,0,0,0, ,0,0,0,0,0, ,656.6,33.6,749.6,-0.8,-0.3,-1.8,25,656.6,33.6,749.6,-0.8,-0.3,-1.8,
2026_07_06_17_19_31.714,3.873,38.6,0,0.764,0,0,0,0, ,0,0,0,0,0, ,656.6,31.6,751.8,-1,-0.7,-1.6,25,656.6,33.5391,749.667,-0.806094,-0.312188,-1.79391,
2026_07_06_17_19_31.734,3.873,38.5,0,0.766,0,0,0,0, ,0,0,0,0,0, ,656.7,28.9,748.2,-1.3,-1.2,-1.8,25,656.603,33.3386,749.687,-0.827051,-0.351054,-1.78818,
2026_07_06_17_19_31.754,3.873,38.6,0,0.766,0,0,0,0, ,0,0,0,0,0, ,657.1,28,740.4,-0.6,-0.4,-2,25,656.621,33.0407,749.359,-0.834543,-0.378412,-1.795,
2026_07_06_17_19_31.774,3.873,38.5,0,0.766,0,0,0,0, ,0,0,0,0,0, ,658.8,31,745.4,-0.2,0.7,-1.9,25,656.702,32.825,748.965,-0.808063,-0.346212,-1.80444,
2026_07_06_17_19_31.793,3.873,38.7,0,0.767,0,0,0,0, ,0,0,0,0,0, ,654.9,32.3,754.2,-0.3,0.1,-1.8,25,656.711,32.7534,749.016,-0.774056,-0.300739,-1.80722,
2026_07_06_17_19_31.813,3.873,38.6,0,0.767,0,0,0,0, ,0,0,0,0,0, ,656.1,29.5,750.8,-0.8,-0.5,-1.9,25,656.637,32.6404,749.229,-0.760402,-0.294601,-1.80983,
2026_07_06_17_19_31.834,3.873,38.6,0,0.767,0,0,0,0, ,0,0,0,0,0, ,655.6,29.2,745.4,-0.4,-0.3,-2.1,25,656.589,32.4399,749.16,-0.750628,-0.301023,-1.82141,
2026_07_06_17_19_31.852,3.873,38.5,0,0.766,0,0,0,0, ,0,0,0,0,0, ,658.3,29.9,748.2,-0.4,0.3,-2.3,25,656.611,32.2638,749.016,-0.729262,-0.28268,-1.84448,
2026_07_06_17_19_31.873,3.873,38.7,0,0.764,0,0,0,0, ,0,0,0,0,0, ,654.6,35,751.2,-0.7,0.3,-2.3,25,656.601,32.2752,749.058,-0.718338,-0.247173,-1.87224,
2026_07_06_17_19_31.893,3.873,38.5,0,0.766,0,0,0,0, ,0,0,0,0,0, ,656.1,31.3,751.5,-1.2,-0.4,-2,25,656.525,32.3285,749.197,-0.732455,-0.235158,-1.88917,
2026_07_06_17_19_31.912,3.873,38.5,0,0.766,0,0,0,0, ,0,0,0,0,0, ,655,31.1,751.7,-0.9,-0.2,-1.8,25,656.466,32.2597,749.344,-0.751805,-0.239109,-1.88983,
2026_07_06_17_19_31.932,3.873,38.5,0,0.767,0,0,0,0, ,0,0,0,0,0, ,654,31.4,749.7,-0.6,0,-2.1,25,656.346,32.1982,749.426,-0.751695,-0.230632,-1.8935,
2026_07_06_17_19_31.952,3.873,38.6,0,0.765,0,0,0,0, ,0,0,0,0,0, ,653.4,31.7,752.6,-0.7,-0.6,-2.2,25,656.185,32.1587,749.531,-0.745498,-0.234859,-1.90913,
2026_07_06_17_19_31.972,3.873,38.5,0,0.766,0,0,0,0, ,0,0,0,0,0, ,655.2,33.5,749.7,-1.2,-1.1,-2.1,25,656.07,32.1856,749.63,-0.75796,-0.272344,-1.9238,
2026_07_06_17_19_31.992,3.873,38.5,0,0.766,0,0,0,0, ,0,0,0,0,0, ,655.3,32.4,748.5,-1.1,-0.8,-2,25,656.02,32.2322,749.598,-0.78185,-0.313639,-1.93149,
2026_07_06_17_19_32.012,3.873,38.5,0,0.765,0,0,0,0, ,0,0,0,0,0, ,656.1,30.2,747.9,-0.7,-0.4,-1.8,25,656,32.1754,749.513,-0.78905,-0.331089,-1.92958,
2026_07_06_17_19_32.031,3.873,38.5,0,0.765,0,0,0,0, ,0,0,0,0,0, ,657.2,32.3,751.2,-0.7,-0.2,-1.8,25,656.04,32.119,749.515,-0.783623,-0.329195,-1.92168,
2026_07_06_17_19_32.051,3.873,38.5,0,0.763,0,0,0,0, ,0,0,0,0,0, ,656.3,32.5,752.4,-0.7,-0.7,-1.6,25,656.083,32.1361,749.654,-0.778527,-0.336556,-1.90817,
2026_07_06_17_19_32.071,3.873,38.5,0,0.767,0,0,0,0, ,0,0,0,0,0, ,656,31.1,751.5,-0.8,-1.2,-1.4,25,656.087,32.1156,749.794,-0.776789,-0.373938,-1.8833,
2026_07_06_17_19_32.090,3.873,38.5,0,0.764,0,0,0,0, ,0,0,0,0,0, ,656.2,27.4,744.7,-1.1,-1.3,-1.5,25,656.088,31.941,749.691,-0.787344,-0.427323,-1.85689,
2026_07_06_17_19_32.110,3.873,38.5,0,0.764,0,0,0,0, ,0,0,0,0,0, ,658.6,28.5,750.2,-0.6,-0.4,-1.7,25,656.168,31.6978,749.554,-0.791162,-0.45308,-1.84124,
2026_07_06_17_19_32.130,3.873,38.5,0,0.763,0,0,0,0, ,0,0,0,0,0, ,656.9,29.6,746.2,-0.4,-0.1,-1.9,25,656.264,31.5364,749.472,-0.773419,-0.440705,-1.83873,
2026_07_06_17_19_32.149,3.873,38.5,0,0.765,0,0,0,0, ,0,0,0,0,0, ,656.4,28.8,751.5,-0.5,-0.2,-2,25,656.288,31.3941,749.434,-0.753711,-0.42299,-1.84551,
2026_07_06_17_19_32.170,3.873,38.5,0,0.763,0,0,0,0, ,0,0,0,0,0, ,653.3,31,749.6,-0.6,-0.7,-2,25,656.2,31.303,749.502,-0.741297,-0.424636,-1.85492,
2026_07_06_17_19_32.190,3.873,38.5,0,0.765,0,0,0,0, ,0,0,0,0,0, ,656.9,29.7,746.3,-0.6,0,-2,25,656.133,31.2449,749.407,-0.732687,-0.420088,-1.86376,
2026_07_06_17_19_32.209,3.873,38.4,0,0.765,0,0,0,0, ,0,0,0,0,0, ,655.5,31.7,749.6,-0.7,0.4,-2.1,25,656.137,31.2117,749.318,-0.727648,-0.382301,-1.87511,
2026_07_06_17_19_32.229,3.873,38.5,0,0.763,0,0,0,0, ,0,0,0,0,0, ,656.4,29.2,751.8,-0.5,0.4,-2.1,25,656.126,31.1653,749.403,-0.71987,-0.33463,-1.88882,
2026_07_06_17_19_32.249,3.873,38.5,0,0.765,0,0,0,0, ,0,0,0,0,0, ,652.3,31.6,754.6,-0.8,-0.7,-2,25,656.018,31.1187,749.634,-0.715612,-0.323379,-1.89864,
2026_07_06_17_19_32.268,3.873,38.4,0,0.766,0,0,0,0, ,0,0,0,0,0, ,656.4,30.1,748.4,-0.5,-0.9,-2,25,655.916,31.1023,749.748,-0.711614,-0.352423,-1.90481,
2026_07_06_17_19_32.289,3.873,38.4,0,0.766,0,0,0,0, ,0,0,0,0,0, ,656,31.3,751.4,-0.3,-0.8,-1.7,25,655.933,31.0778,749.757,-0.692625,-0.382744,-1.90147,
2026_07_06_17_19_32.308,3.873,38.4,0,0.766,0,0,0,0, ,0,0,0,0,0, ,656.7,30.6,748.2,-0.8,-1.3,-2,25,655.959,31.07,749.76,-0.683934,-0.423405,-1.89834,
2026_07_06_17_19_32.328,3.873,38.4,0,0.765,0,0,0,0, ,0,0,0,0,0, ,657.5,31,745.4,-0.9,-0.6,-2.1,25,656.028,31.0535,749.579,-0.694053,-0.455494,-1.90758,
2026_07_06_17_19_32.348,3.873,38.5,0,0.766,0,0,0,0, ,0,0,0,0,0, ,654,33.6,748.4,-0.7,0,-2,25,656.011,31.1295,749.416,-0.700509,-0.446019,-1.91626,
2026_07_06_17_19_32.368,3.873,38.5,0,0.766,0,0,0,0, ,0,0,0,0,0, ,655.7,31.7,749.8,-0.6,0,-1.7,25,655.941,31.2222,749.397,-0.697432,-0.41884,-1.91222,
2026_07_06_17_19_32.388,3.873,38.5,0,0.766,0,0,0,0, ,0,0,0,0,0, ,654.6,33.5,748.7,-0.8,0,-1.8,25,655.892,31.3061,749.388,-0.697588,-0.393316,-1.90234,
2026_07_06_17_19_32.408,3.873,38.4,0,0.766,0,0,0,0, ,0,0,0,0,0, ,654.2,30.7,751.4,-0.7,-0.9,-1.7,25,655.801,31.3545,749.428,-0.700782,-0.396771,-1.89305,
2026_07_06_17_19_32.427,3.873,38.3,0,0.766,0,0,0,0, ,0,0,0,0,0, ,654.6,31.3,749.5,-0.7,-1.1,-1.4,25,655.716,31.3329,749.49,-0.700734,-0.43353,-1.87215,
2026_07_06_17_19_32.446,3.873,38.5,0,0.766,0,0,0,0, ,0,0,0,0,0, ,654.9,31.2,748.4,-0.8,-0.9,-1.4,25,655.657,31.3278,749.458,-0.703736,-0.468049,-1.84338,
2026_07_06_17_19_32.466,3.873,38.4,0,0.766,0,0,0,0, ,0,0,0,0,0, ,656.8,30.8,750.1,-0.8,-0.9,-1.6,25,655.669,31.3079,749.445,-0.709602,-0.494371,-1.82245,
2026_07_06_17_19_32.486,3.873,38.4,0,0.765,0,0,0,0, ,0,0,0,0,0, ,655.5,31.2,750.7,-0.9,-1.2,-1.7,25,655.698,31.2891,749.503,-0.718158,-0.52823,-1.81194,
2026_07_06_17_19_32.506,3.873,38.4,0,0.766,0,0,0,0, ,0,0,0,0,0, ,658.3,30.1,746.5,-0.9,-1,-1.9,25,655.771,31.2502,749.448,-0.729239,-0.563072,-1.81121,
2026_07_06_17_19_32.526,3.873,38.4,0,0.765,0,0,0,0, ,0,0,0,0,0, ,657.4,29.9,743.5,-0.8,0,-2,25,655.898,31.174,749.177,-0.736598,-0.559229,-1.81967,
2026_07_06_17_19_32.546,3.873,38.3,0,0.765,0,0,0,0, ,0,0,0,0,0, ,654.9,31.3,748.6,-0.9,0.1,-2,25,655.913,31.139,748.986,-0.743508,-0.522104,-1.83066,
2026_07_06_17_19_32.569,3.873,38.4,0,0.766,0,0,0,0, ,0,0,0,0,0, ,655.7,32.8,753.6,-0.5,0,-1.9,25,655.876,31.1945,749.115,-0.740857,-0.487241,-1.83793,
2026_07_06_17_19_32.585,3.873,38.4,0,0.766,0,0,0,0, ,0,0,0,0,0, ,654.1,31,753.5,-0.8,-1,-1.8,25,655.817,31.2375,749.385,-0.73532,-0.488019,-1.83867,
2026_07_06_17_19_32.605,3.873,38.4,0,0.766,0,0,0,0, ,0,0,0,0,0, ,656.8,30.3,748.6,-0.7,-1.1,-1.9,25,655.794,31.2017,749.487,-0.736215,-0.522264,-1.83936,
2026_07_06_17_19_32.625,3.873,38.4,0,0.766,0,0,0,0, ,0,0,0,0,0, ,656.1,30.3,744.9,-0.7,-0.7,-1.9,25,655.834,31.1468,749.32,-0.734008,-0.545283,-1.84305,
2026_07_06_17_19_32.644,3.873,38.4,0,0.766,0,0,0,0, ,0,0,0,0,0, ,657.8,30.6,747.5,-0.6,-0.4,-2,25,655.902,31.1043,749.13,-0.728889,-0.54557,-1.84957,
2026_07_06_17_19_32.664,3.873,38.4,0,0.765,0,0,0,0, ,0,0,0,0,0, ,655.1,33.9,744.8,-0.8,0,-2,25,655.936,31.1741,748.948,-0.727128,-0.524512,-1.85874,
2026_07_06_17_19_32.685,3.873,38.4,0,0.766,0,0,0,0, ,0,0,0,0,0, ,657.3,32.5,752.5,-0.7,0,-2,25,655.952,31.2976,748.93,-0.728522,-0.492549,-1.86735,
2026_07_06_17_19_32.705,3.873,38.3,0,0.766,0,0,0,0, ,0,0,0,0,0, ,656.7,31.8,751,-0.4,-0.4,-1.8,25,656.016,31.3495,749.102,-0.717643,-0.474722,-1.86934,
2026_07_06_17_19_32.724,3.873,38.3,0,0.766,0,0,0,0, ,0,0,0,0,0, ,655.6,30.8,748.5,-0.7,-0.7,-2,25,656.024,31.3465,749.142,-0.707428,-0.47931,-1.8712,
2026_07_06_17_19_32.745,3.873,38.3,0,0.766,0,0,0,0, ,0,0,0,0,0, ,653.9,34.4,750.7,-0.9,-0.5,-1.6,25,655.946,31.4229,749.169,-0.713069,-0.486664,-1.86687,
2026_07_06_17_19_32.763,3.873,38.3,0,0.766,0,0,0,0, ,0,0,0,0,0, ,653.9,29.5,751.9,-1,-1.2,-1.3,25,655.821,31.455,749.299,-0.727507,-0.508805,-1.84146,
2026_07_06_17_19_32.783,3.873,38.3,0,0.765,0,0,0,0, ,0,0,0,0,0, ,659.4,28.5,743,-0.9,-0.8,-1.5,25,655.872,31.3054,749.187,-0.741065,-0.538737,-1.81456,
2026_07_06_17_19_32.803,3.873,38.3,0,0.765,0,0,0,0, ,0,0,0,0,0, ,658.4,28,746.4,-0.7,0.1,-1.8,25,656.056,31.1192,748.913,-0.744656,-0.527236,-1.80453,
2026_07_06_17_19_32.822,3.873,38.3,0,0.766,0,0,0,0, ,0,0,0,0,0, ,653,31.7,753.9,-0.9,-0.2,-2.1,25,656.035,31.0419,748.989,-0.748029,-0.498154,-1.8134,
2026_07_06_17_19_32.843,3.873,38.3,0,0.766,0,0,0,0, ,0,0,0,0,0, ,655.6,29.9,750,-0.6,-0.2,-1.8,25,655.929,31.0271,749.169,-0.748149,-0.479986,-1.82172,
2026_07_06_17_19_32.862,3.873,38.3,0,0.765,0,0,0,0, ,0,0,0,0,0, ,655,30.1,749,-0.6,0,-1.8,25,655.891,30.9645,749.189,-0.739121,-0.45683,-1.8204,
2026_07_06_17_19_32.883,3.873,38.3,0,0.766,0,0,0,0, ,0,0,0,0,0, ,656.4,30.1,749.7,-0.4,0.2,-1.7,25,655.879,30.9119,749.199,-0.72455,-0.422898,-1.81611,
2026_07_06_17_19_32.901,3.873,38.3,0,0.765,0,0,0,0, ,0,0,0,0,0, ,653.8,31.4,753,-0.9,-0.1,-1.8,25,655.832,30.902,749.33,-0.720007,-0.394081,-1.81208,
2026_07_06_17_19_32.921,3.873,38.3,0,0.764,0,0,0,0, ,0,0,0,0,0, ,652.2,32.3,757,-1.4,-1.7,-2,25,655.659,30.9598,749.676,-0.74621,-0.424911,-1.81744,
2026_07_06_17_19_32.942,3.873,38.3,0,0.765,0,0,0,0, ,0,0,0,0,0, ,657.1,30.3,747.4,-1.5,-2.1,-1.9,25,655.598,30.9805,749.829,-0.789097,-0.514799,-1.82552,
2026_07_06_17_19_32.962,3.873,38.3,0,0.766,0,0,0,0, ,0,0,0,0,0, ,656.9,30.8,745.6,-1,-1.4,-1.7,25,655.683,30.9543,749.627,-0.817183,-0.590069,-1.82396,
2026_07_06_17_19_32.982,3.873,38.3,0,0.766,0,0,0,0, ,0,0,0,0,0, ,656.4,29.6,744.5,-1.1,-0.9,-1.7,25,655.742,30.9083,749.348,-0.83137,-0.62419,-1.81641,
2026_07_06_17_19_33.001,3.873,38.3,0,0.766,0,0,0,0, ,0,0,0,0,0, ,656.6,31.4,746.7,-0.6,-0.5,-1.6,25,655.788,30.8834,749.119,-0.832506,-0.628809,-1.80627,
2026_07_06_17_19_33.021,3.873,38.3,0,0.766,0,0,0,0, ,0,0,0,0,0, ,656.1,30,748,-0.8,-0.2,-1.6,25,655.822,30.8722,749.011,-0.824431,-0.611819,-1.7937,
2026_07_06_17_19_33.041,3.873,38.4,0,0.766,0,0,0,0, ,0,0,0,0,0, ,655.8,29.6,750.8,-0.6,-0.5,-1.5,25,655.83,30.8069,749.035,-0.816849,-0.595865,-1.77885,
2026_07_06_17_19_33.060,3.873,38.3,0,0.766,0,0,0,0, ,0,0,0,0,0, ,656.8,29.5,749.7,-0.9,-1,-1.6,25,655.859,30.7303,749.109,-0.812775,-0.605257,-1.7649,
2026_07_06_17_19_33.079,3.873,38.2,0,0.766,0,0,0,0, ,0,0,0,0,0, ,658.9,28.6,748.5,-1.1,-1.1,-1.7,25,655.98,30.6279,749.109,-0.824184,-0.632359,-1.7579,
2026_07_06_17_19_33.100,3.873,38.3,0,0.765,0,0,0,0, ,0,0,0,0,0, ,655,29.1,749.2,-1,-0.9,-1.8,25,656.039,30.5196,749.093,-0.837945,-0.654762,-1.75742,
2026_07_06_17_19_33.120,3.873,38.3,0,0.765,0,0,0,0, ,0,0,0,0,0, ,658.3,30.2,748.7,-0.9,-1,-1.8,25,656.076,30.4666,749.084,-0.844773,-0.672753,-1.76001,
2026_07_06_17_19_33.139,3.873,38.2,0,0.766,0,0,0,0, ,0,0,0,0,0, ,657.4,29.4,745.9,-1,-0.9,-2.1,25,656.185,30.426,748.975,-0.851185,-0.689648,-1.77159,
2026_07_06_17_19_33.159,3.873,38.3,0,0.764,0,0,0,0, ,0,0,0,0,0, ,657.3,28.5,747.5,-1,-0.5,-2.2,25,656.256,30.336,748.837,-0.860254,-0.690279,-1.79465,
2026_07_06_17_19_33.179,3.873,38.3,0,0.764,0,0,0,0, ,0,0,0,0,0, ,658.4,31,754.8,-1,-1.2,-2.1,25,656.353,30.3003,748.978,-0.868769,-0.700012,-1.8163,
2026_07_06_17_19_33.199,3.873,38.3,0,0.766,0,0,0,0, ,0,0,0,0,0, ,656.3,29,764.1,-1.3,-3.4,-1.8,25,656.413,30.282,749.616,-0.885907,-0.797511,-1.82445,
2026_07_06_17_19_33.218,3.873,38.3,0,0.766,0,0,0,0, ,0,0,0,0,0, ,654.2,37.9,783.6,-2.6,-9.6,-0.5,25,656.343,30.4751,751.093,-0.95075,-1.14501,-1.78335,
2026_07_06_17_19_33.238,3.873,38.3,0,0.765,0,0,0,0, ,0,0,0,0,0, ,657.5,35.5,802.4,-4,-18.7,2.2,25,656.313,30.8544,753.646,-1.09391,-1.9375,-1.62288,
2026_07_06_17_19_33.258,3.873,38.2,0,0.765,0,0,0,0, ,0,0,0,0,0, ,695.3,27.8,807.4,-8.7,-34.5,6.8,25,657.537,30.9029,756.77,-1.4142,-3.44037,-1.24977,
2026_07_06_17_19_33.277,3.873,38.3,0,0.765,0,0,0,0, ,0,0,0,0,0, ,739.6,12,784.4,-7.7,-43.3,11.2,25,661.188,30.2324,759.154,-1.82771,-5.60119,-0.625173,
2026_07_06_17_19_33.298,3.873,38.2,0,0.764,0,0,0,0, ,0,0,0,0,0, ,741.5,11.8,767.9,-5.4,-46.5,14.4,25,666.024,29.1153,760.19,-2.11547,-7.99596,0.192923,
2026_07_06_17_19_33.317,3.873,38.2,0,0.764,0,0,0,0, ,0,0,0,0,0, ,772.2,26.8,760.8,-8.2,-58.7,13,25,671.558,28.5171,760.443,-2.40094,-10.714,1.01601,
2026_07_06_17_19_33.338,3.873,38.2,0,0.766,0,0,0,0, ,0,0,0,0,0, ,883,2.8,736,-12.9,-114.2,28.7,25,681.067,27.6813,759.709,-2.89752,-15.3292,2.22464,
2026_07_06_17_19_33.357,3.873,38.1,0,0.766,0,0,0,0, ,0,0,0,0,0, ,805,19.8,717,-13.6,-136.3,27.9,25,690.996,26.683,757.686,-3.52838,-22.0275,3.81361,
2026_07_06_17_19_33.377,3.873,38.2,0,0.765,0,0,0,0, ,0,0,0,0,0, ,832.8,8.1,707.7,-19.2,-150.8,34.6,25,698.79,25.9071,754.923,-4.31274,-29.4328,5.48552,
2026_07_06_17_19_33.397,3.873,38.2,0,0.766,0,0,0,0, ,0,0,0,0,0, ,813.1,-3.9,629.8,-23.7,-163.9,36.5,25,706.356,24.4564,749.672,-5.35704,-37.2277,7.31757,
2026_07_06_17_19_33.415,3.873,38.2,0,0.766,0,0,0,0, ,0,0,0,0,0, ,836.6,-28.9,565,-27.4,-169,34.7,25,713.577,21.9667,740.393,-6.58755,-45.1022,9.04103,
2026_07_06_17_19_33.436,3.873,38.1,0,0.766,0,0,0,0, ,0,0,0,0,0, ,850.8,-51.7,507.9,-28.8,-168.8,35.9,25,721.506,18.1723,727.965,-7.89846,-52.6461,10.6412,
2026_07_06_17_19_33.457,3.873,38.2,0,0.766,0,0,0,0, ,0,0,0,0,0, ,840.2,-76.6,397.5,-25.3,-179.1,30.9,25,729.062,13.1558,711.191,-9.06551,-60.0381,12.0281,
2026_07_06_17_19_33.476,3.873,38.2,0,0.765,0,0,0,0, ,0,0,0,0,0, ,918.4,-63.7,306.6,-33.1,-198.2,29.7,25,738.217,8.07934,689.306,-10.2925,-67.8754,13.1415,
2026_07_06_17_19_33.495,3.873,38.1,0,0.766,0,0,0,0, ,0,0,0,0,0, ,869.1,-151,344.8,-1.8,-217.2,-1.8,25,747.695,1.04536,667.149,-10.7286,-76.3959,13.1908,
2026_07_06_17_19_33.516,3.873,38.1,0,0.765,0,0,0,0, ,0,0,0,0,0, ,896.9,-78.7,214.1,-6.1,-213.6,20.1,25,755.94,-6.01701,643.523,-10.3155,-84.8665,12.9445,
2026_07_06_17_19_33.535,3.873,38.1,0,0.765,0,0,0,0, ,0,0,0,0,0, ,902.8,-99.4,174.5,-8.6,-211.5,14.4,25,764.71,-11.0768,616.149,-10.1348,-92.6472,13.2069,
2026_07_06_17_19_33.555,3.873,38.1,0,0.763,0,0,0,0, ,0,0,0,0,0, ,951.2,-120.4,80.6,1.6,-209.4,2.1,25,774.599,-17.0989,586.375,-9.73052,-99.8258,12.9048,
2026_07_06_17_19_33.575,3.873,38.2,0,0.764,0,0,0,0, ,0,0,0,0,0, ,969.1,-113.8,-33.2,-4.8,-196,20.6,25,785.906,-23.1927,552.087,-9.23507,-106.095,12.8101,
2026_07_06_17_19_33.595,3.873,38.2,0,0.766,0,0,0,0, ,0,0,0,0,0, ,962.5,-149.5,-114.3,-23.4,-173.5,36.4,25,796.868,-29.8018,513.95,-9.53153,-110.888,13.7662,
2026_07_06_17_19_33.614,3.873,38.2,0,0.766,0,0,0,0, ,0,0,0,0,0, ,896.9,-161.7,-114.7,-13.9,-134.7,34.8,25,804.963,-37.4676,475.654,-10.0872,-113.521,15.0967,
2026_07_06_17_19_33.634,3.873,38.1,0,0.765,0,0,0,0, ,0,0,0,0,0, ,867.6,-170.1,-154.2,-18.8,-110.3,28.1,25,809.673,-45.294,438.476,-10.4688,-114.068,16.0932,
2026_07_06_17_19_33.654,3.873,38.1,0,0.766,0,0,0,0, ,0,0,0,0,0, ,839.9,-159.5,-169.5,-17.7,-93.2,17.7,25,812.359,-52.5764,401.893,-10.943,-113.318,16.508,
2026_07_06_17_19_33.674,3.873,38.1,0,0.766,0,0,0,0, ,0,0,0,0,0, ,864.9,-158.9,-200.4,-31.1,-94.7,14.2,25,814.799,-59.0738,366.132,-11.763,-112.137,16.474,
2026_07_06_17_19_33.693,3.873,38.2,0,0.767,0,0,0,0, ,0,0,0,0,0, ,885.3,-173,-245.7,-26.7,-105.2,19,25,818.473,-65.5865,330.229,-12.8073,-111.395,16.4817,
2026_07_06_17_19_33.713,3.873,38.1,0,0.765,0,0,0,0, ,0,0,0,0,0, ,892.8,-190.4,-309.6,-25.1,-101.1,19.7,25,822.774,-72.6622,293.187,-13.6051,-110.892,16.6565,
2026_07_06_17_19_33.733,3.873,38.2,0,0.765,0,0,0,0, ,0,0,0,0,0, ,867.7,-186.1,-373.5,-18.9,-95,22.9,25,826.276,-79.7058,254.507,-14.1167,-110.11,16.9394,
2026_07_06_17_19_33.753,3.873,38.1,0,0.765,0,0,0,0, ,0,0,0,0,0, ,813.5,-189.4,-395.5,-6.6,-102.6,18.1,25,827.149,-86.2898,215.568,-14.0334,-109.42,17.1564,
2026_07_06_17_19_33.773,3.873,38.1,0,0.765,0,0,0,0, ,0,0,0,0,0, ,812.2,-175.9,-352.4,-8.3,-135.4,10.1,25,826.278,-92.1617,179.644,-13.6322,-110.004,16.9702,
2026_07_06_17_19_33.793,3.873,38.1,0,0.766,0,0,0,0, ,0,0,0,0,0, ,833.3,-183.4,-369.1,-23.2,-156.4,12,25,826.063,-97.493,146.714,-13.7613,-112.192,16.6094,
2026_07_06_17_19_33.812,3.873,38.2,0,0.765,0,0,0,0, ,0,0,0,0,0, ,828.9,-187.3,-437.5,-30.7,-149.8,14.1,25,826.37,-102.847,113.197,-14.565,-114.684,16.3925,
2026_07_06_17_19_33.833,3.873,38.1,0,0.765,0,0,0,0, ,0,0,0,0,0, ,817,-188.1,-504.6,-33.9,-135.8,12.8,25,826.161,-108.018,77.5947,-15.6457,-116.398,16.2132,
2026_07_06_17_19_33.852,3.873,38.1,0,0.765,0,0,0,0, ,0,0,0,0,0, ,787.1,-207.1,-571.4,-12.6,-110.4,-4.1,25,824.692,-113.476,40.0819,-16.1091,-116.806,15.4903,
2026_07_06_17_19_33.872,3.873,38.1,0,0.766,0,0,0,0, ,0,0,0,0,0, ,723.2,-178.4,-585.5,-12.2,-91.4,-8.7,25,820.454,-118.307,2.39015,-15.8831,-115.837,14.1563,
2026_07_06_17_19_33.891,3.873,38,0,0.766,0,0,0,0, ,0,0,0,0,0, ,704.5,-165,-617.1,-28.9,-115.4,-5,25,813.958,-121.561,-34.3972,-16.1675,-115.079,12.8763,
2026_07_06_17_19_33.911,3.873,38.1,0,0.765,0,0,0,0, ,0,0,0,0,0, ,713.7,-160.5,-650,-40.1,-136.4,-1.8,25,807.568,-124.071,-70.9081,-17.2846,-115.738,11.8844,
2026_07_06_17_19_33.930,3.873,38.1,0,0.765,0,0,0,0, ,0,0,0,0,0, ,720.9,-172.6,-688.2,-34.7,-115.9,-3.5,25,802.068,-126.659,-107.36,-18.5104,-116.373,10.9987,
2026_07_06_17_19_33.950,3.873,38.1,0,0.765,0,0,0,0, ,0,0,0,0,0, ,669.4,-156.3,-735.2,-29.4,-96.4,-3.8,25,795.552,-128.962,-144.187,-19.3355,-115.75,10.1061,
2026_07_06_17_19_33.971,3.873,38.1,0,0.766,0,0,0,0, ,0,0,0,0,0, ,621.9,-143.7,-762.8,-25.3,-100.7,-9.8,25,786.418,-130.244,-181.043,-19.8238,-114.702,9.07587,
2026_07_06_17_19_33.990,3.873,38,0,0.766,0,0,0,0, ,0,0,0,0,0, ,617.6,-136.8,-804.3,-21,-106.1,-9.9,25,776.261,-130.854,-217.758,-20.0265,-114.013,7.92257,
2026_07_06_17_19_34.010,3.873,38.1,0,0.765,0,0,0,0, ,0,0,0,0,0, ,610.2,-140.7,-842.7,-11.5,-89.4,-7.1,25,766.368,-131.335,-254.671,-19.7964,-113.022,6.92182,
2026_07_06_17_19_34.030,3.873,38.1,0,0.766,0,0,0,0, ,0,0,0,0,0, ,552.8,-122.9,-851.8,-12.3,-87.5,0.1,25,755.102,-131.363,-290.781,-19.3152,-111.525,6.28674,
2026_07_06_17_19_34.050,3.873,38,0,0.765,0,0,0,0, ,0,0,0,0,0, ,512.9,-111.9,-832.1,-13.2,-108.4,0.9,25,741.559,-130.513,-324.368,-18.9151,-110.698,5.93411,
2026_07_06_17_19_34.070,3.873,38.1,0,0.765,0,0,0,0, ,0,0,0,0,0, ,495.2,-113.4,-842.2,-17.2,-128.1,0.6,25,727.085,-129.424,-355.616,-18.6888,-111.158,5.6182,
2026_07_06_17_19_34.089,3.873,38.1,0,0.766,0,0,0,0, ,0,0,0,0,0, ,510,-120.2,-885.6,-15.5,-140.6,5.1,25,713.406,-128.655,-386.589,-18.5462,-112.571,5.44952,
2026_07_06_17_19_34.109,3.873,38,0,0.766,0,0,0,0, ,0,0,0,0,0, ,488.4,-139.1,-917.6,-11,-128.7,9.8,25,700.353,-128.715,-417.973,-18.2235,-113.916,5.57142,
2026_07_06_17_19_34.134,3.873,38,0,0.765,0,0,0,0, ,0,0,0,0,0, ,383,-122.9,-947.6,5.5,-94.7,2.5,25,684.225,-128.855,-449.333,-17.2806,-113.781,5.60668,
2026_07_06_17_19_34.149,3.873,38.1,0,0.765,0,0,0,0, ,0,0,0,0,0, ,331.9,-111.3,-914.6,10.2,-91.4,-0.4,25,664.313,-128.138,-478.69,-15.7492,-112.518,5.32901,
2026_07_06_17_19_34.169,3.873,38,0,0.765,0,0,0,0, ,0,0,0,0,0, ,308.4,-120.4,-925.5,8.6,-101.7,-3.1,25,643.34,-127.39,-505.586,-14.2167,-111.545,4.89763,
2026_07_06_17_19_34.188,3.873,38,0,0.765,0,0,0,0, ,0,0,0,0,0, ,287.7,-128.7,-927.9,4.4,-107.9,0.7,25,622.299,-127.216,-531.247,-12.9542,-111.134,4.52605,
2026_07_06_17_19_34.209,3.873,38.1,0,0.765,0,0,0,0, ,0,0,0,0,0, ,237.1,-129.3,-952.5,0.5,-96.1,7.7,25,600.368,-127.325,-556.168,-12.0155,-110.577,4.50619,
2026_07_06_17_19_34.229,3.873,38,0,0.766,0,0,0,0, ,0,0,0,0,0, ,213.8,-118.6,-976.5,0.1,-68.4,7.9,25,577.521,-127.119,-581.051,-11.2651,-108.851,4.7069,
2026_07_06_17_19_34.248,3.873,38.1,0,0.767,0,0,0,0, ,0,0,0,0,0, ,167.4,-110.5,-969.4,-2.8,-43.5,5.6,25,553.943,-126.354,-604.932,-10.6609,-105.628,4.8314,
2026_07_06_17_19_34.266,3.873,38.1,0,0.766,0,0,0,0, ,0,0,0,0,0, ,154.9,-102.1,-989.5,-5.2,-34.9,1.1,25,530.007,-125.132,-627.754,-10.255,-101.58,4.74113,
2026_07_06_17_19_34.288,3.873,38,0,0.765,0,0,0,0, ,0,0,0,0,0, ,192.5,-114.9,-1022.3,-2.6,-27.6,-3.8,25,508.295,-124.118,-650.797,-9.86771,-97.2939,4.36995,
2026_07_06_17_19_34.306,3.873,37.9,0,0.766,0,0,0,0, ,0,0,0,0,0, ,207.6,-122.5,-1015.9,-1.8,-21.1,-3.3,25,489.511,-123.788,-673.241,-9.40046,-92.8489,3.88733,
2026_07_06_17_19_34.331,3.873,38,0,0.766,0,0,0,0, ,0,0,0,0,0, ,200.3,-126.7,-1006.9,-0.7,-3.5,-0.4,25,472.11,-123.837,-693.847,-8.90379,-87.9404,3.53771,
2026_07_06_17_19_34.348,3.873,38,0,0.767,0,0,0,0, ,0,0,0,0,0, ,188.8,-120.4,-1001.9,-0.4,13.9,-0.5,25,455.196,-123.82,-712.772,-8.39473,-82.2647,3.29471,
2026_07_06_17_19_34.367,3.873,38,0,0.765,0,0,0,0, ,0,0,0,0,0, ,203.9,-114.8,-1029,0.4,20.8,-3,25,439.423,-123.441,-731.216,-7.88318,-76.1944,2.9873,
2026_07_06_17_19_34.386,3.873,38,0,0.766,0,0,0,0, ,0,0,0,0,0, ,235.8,-123.2,-1027.8,4.4,17.8,-3.5,25,426.042,-123.17,-749.326,-7.25655,-70.3752,2.60721,
2026_07_06_17_19_34.406,3.873,38,0,0.765,0,0,0,0, ,0,0,0,0,0, ,270.3,-142.5,-1006.1,7.2,25.3,-0.4,25,415.501,-123.76,-765.634,-6.46091,-64.7735,2.32951,
2026_07_06_17_19_34.426,3.873,38,0,0.766,0,0,0,0, ,0,0,0,0,0, ,281,-146.1,-1020.1,12.3,56.6,1.9,25,406.979,-125.012,-780.714,-5.47306,-58.331,2.23326,
2026_07_06_17_19_34.444,3.873,37.9,0,0.766,0,0,0,0, ,0,0,0,0,0, ,284.3,-139.2,-1023.9,14.8,95.2,1.6,25,399.402,-126.087,-795.418,-4.31384,-50.1513,2.20381,
2026_07_06_17_19_34.465,3.873,37.9,0,0.767,0,0,0,0, ,0,0,0,0,0, ,322.3,-142.7,-1006.3,16.1,139.2,-2.1,25,393.546,-126.992,-808.804,-3.10948,-39.9533,2.05428,
2026_07_06_17_19_34.486,3.873,38,0,0.765,0,0,0,0, ,0,0,0,0,0, ,399.5,-153,-959.1,23.3,184.9,-8.7,25,391.557,-128.263,-819.401,-1.71953,-27.6438,1.60003,
2026_07_06_17_19_34.504,3.873,38,0,0.766,0,0,0,0, ,0,0,0,0,0, ,422.3,-150.8,-932,23.1,205.6,-5.9,25,392.735,-129.704,-827.088,-0.200998,-14.0612,1.05769,
2026_07_06_17_19_34.529,3.873,38,0,0.765,0,0,0,0, ,0,0,0,0,0, ,433.2,-145.9,-901.1,24.7,220.9,-15.7,25,394.869,-130.84,-832.54,1.26766,-0.209395,0.335111,
2026_07_06_17_19_34.544,3.873,38,0,0.765,0,0,0,0, ,0,0,0,0,0, ,511.5,-152.2,-846.6,27.4,240.3,-23.9,25,399.591,-131.95,-835.057,2.77783,13.8556,-0.891872,
2026_07_06_17_19_34.564,3.873,37.9,0,0.766,0,0,0,0, ,0,0,0,0,0, ,592.7,-147.8,-778.9,28.8,250.1,-30.9,25,408.884,-133.05,-833.698,4.3209,27.9531,-2.50721,
2026_07_06_17_19_34.584,3.873,38,0,0.766,0,0,0,0, ,0,0,0,0,0, ,658,-148.8,-726.8,18.7,250.1,-42.8,25,422.075,-133.979,-828.771,5.50486,41.4902,-4.59997,
2026_07_06_17_19_34.604,3.873,38,0,0.766,0,0,0,0, ,0,0,0,0,0, ,723.5,-151.8,-664.4,17.3,250.1,-50.5,25,438.447,-134.973,-820.656,6.26628,54.2023,-7.1624,
2026_07_06_17_19_34.623,3.873,38,0,0.765,0,0,0,0, ,0,0,0,0,0, ,752.8,-149,-587.7,21.8,229.8,-49.8,25,456.711,-135.914,-808.797,7.07576,65.5213,-9.78195,
2026_07_06_17_19_34.643,3.873,37.9,0,0.766,0,0,0,0, ,0,0,0,0,0, ,840.4,-146.7,-529.5,22.7,207,-49.2,25,477.423,-136.641,-793.551,8.00044,74.8374,-12.2023,
2026_07_06_17_19_34.664,3.873,38,0,0.763,0,0,0,0, ,0,0,0,0,0, ,913.4,-145.6,-485.2,8,181.3,-28.6,25,501.766,-137.22,-776.111,8.4483,82.108,-13.8292,
2026_07_06_17_19_34.682,3.873,38,0,0.765,0,0,0,0, ,0,0,0,0,0, ,904.7,-132.5,-402.3,1.5,157.6,-11.4,25,526.585,-137.332,-755.857,8.22294,87.4304,-14.2052,
2026_07_06_17_19_34.703,3.873,37.9,0,0.766,0,0,0,0, ,0,0,0,0,0, ,881.3,-127.1,-338.6,4.8,142.9,-13.6,25,548.913,-136.873,-732.372,7.91381,91.2585,-14.1013,
2026_07_06_17_19_34.723,3.873,37.9,0,0.766,0,0,0,0, ,0,0,0,0,0, ,857,-135.7,-316.7,3.2,132.4,-19.3,25,568.427,-136.539,-707.709,7.67531,94.0854,-14.2444,
2026_07_06_17_19_34.745,3.873,37.9,0,0.765,0,0,0,0, ,0,0,0,0,0, ,893.3,-130.9,-287.9,8,119.9,-19.5,25,587.118,-136.342,-683.004,7.54884,96.0394,-14.5586,
2026_07_06_17_19_34.762,3.873,37.9,0,0.767,0,0,0,0, ,0,0,0,0,0, ,917.6,-117.6,-238.7,12,106.5,-18.9,25,606.517,-135.605,-657.429,7.69821,97.0851,-14.8414,
2026_07_06_17_19_34.781,3.873,37.9,0,0.765,0,0,0,0, ,0,0,0,0,0, ,899.9,-113,-227.2,1.9,89.5,-16.3,25,624.934,-134.368,-631.562,7.65262,97.1409,-15.0095,
2026_07_06_17_19_34.801,3.873,37.9,0,0.765,0,0,0,0, ,0,0,0,0,0, ,883.7,-105.8,-180.5,-1.3,73.1,-15.5,25,641.196,-132.846,-605.498,7.20457,96.1756,-15.0638,
2026_07_06_17_19_34.822,3.873,37.9,0,0.766,0,0,0,0, ,0,0,0,0,0, ,900.2,-83.6,-135,-3.3,67.9,-19.3,25,656.476,-130.522,-578.214,6.62538,94.611,-15.2061,
2026_07_06_17_19_34.841,3.873,37.9,0,0.765,0,0,0,0, ,0,0,0,0,0, ,938.5,-91.7,-116.8,-5.9,77.1,-25,25,672.495,-127.909,-550.651,5.94134,93.2636,-15.6293,
2026_07_06_17_19_34.861,3.873,37.9,0,0.766,0,0,0,0, ,0,0,0,0,0, ,956,-82.7,-94.4,-6,84.9,-25.6,25,689.238,-125.429,-523.53,5.21671,92.5163,-16.2186,
2026_07_06_17_19_34.880,3.873,37.9,0,0.767,0,0,0,0, ,0,0,0,0,0, ,947.3,-68.9,-48.8,-6.1,84.3,-28.3,25,705.229,-122.404,-495.991,4.53014,92.0339,-16.8725,
2026_07_06_17_19_34.901,3.873,37.9,0,0.765,0,0,0,0, ,0,0,0,0,0, ,978.1,-66,-23.9,-10.5,87.4,-27.7,25,720.919,-119.056,-467.982,3.74831,91.657,-17.5506,
2026_07_06_17_19_34.919,3.873,38,0,0.766,0,0,0,0, ,0,0,0,0,0, ,986.2,-58.3,-11.8,-15.2,91.3,-25.5,25,736.837,-115.588,-440.552,2.73685,91.5164,-18.1021,
2026_07_06_17_19_34.943,3.873,37.9,0,0.766,0,0,0,0, ,0,0,0,0,0, ,969.6,-44.5,27.7,-16.7,81.4,-23.5,25,751.527,-111.676,-413.221,1.59812,91.2016,-18.4919,
2026_07_06_17_19_34.961,3.873,37.9,0,0.764,0,0,0,0, ,0,0,0,0,0, ,956.9,-45.2,46.2,-16.2,75.6,-26.3,25,764.429,-107.604,-385.789,0.49831,90.4276,-18.8824,
2026_07_06_17_19_34.979,3.873,37.9,0,0.767,0,0,0,0, ,0,0,0,0,0, ,986.3,-39.6,58.8,-10.3,79.4,-33.2,25,777.053,-103.631,-359.081,-0.339477,89.6398,-19.5447,
2026_07_06_17_19_34.999,3.873,37.9,0,0.765,0,0,0,0, ,0,0,0,0,0, ,1009.3,-29.5,94.7,-10.6,87.2,-29.4,25,790.505,-99.4212,-332.522,-0.955587,89.2535,-20.261,
2026_07_06_17_19_35.019,3.873,37.8,0,0.765,0,0,0,0, ,0,0,0,0,0, ,986.2,-15.5,127.9,-10.5,79.2,-24.9,25,803.134,-94.7338,-305.477,-1.54025,88.8846,-20.6808,
2026_07_06_17_19_35.039,3.873,38,0,0.765,0,0,0,0, ,0,0,0,0,0, ,985.8,-10.7,132.4,-14.7,63.7,-19.8,25,814.278,-89.7592,-278.931,-2.2142,87.8222,-20.7825,
2026_07_06_17_19_35.058,3.873,37.9,0,0.764,0,0,0,0, ,0,0,0,0,0, ,991,-14.6,139.7,-18.5,54.5,-12,25,824.888,-85.0604,-253.643,-3.09083,86.0719,-20.485,
2026_07_06_17_19_35.078,3.873,37.8,0,0.767,0,0,0,0, ,0,0,0,0,0, ,974.9,-1.9,169.9,-15.1,57.6,-13.9,25,834.52,-80.3798,-228.753,-3.92624,84.2425,-20.0258,
2026_07_06_17_19_35.098,3.873,37.8,0,0.765,0,0,0,0, ,0,0,0,0,0, ,975,5.4,212.5,-19.5,61.2,-20.9,25,843.077,-75.375,-203.162,-4.7412,82.7286,-19.8658,
2026_07_06_17_19_35.117,3.873,37.9,0,0.766,0,0,0,0, ,0,0,0,0,0, ,979.1,4.3,230.2,-18.5,66.4,-21.6,25,851.241,-70.4863,-177.294,-5.6101,81.5752,-19.9502,
2026_07_06_17_19_35.139,3.873,37.8,0,0.765,0,0,0,0, ,0,0,0,0,0, ,954.3,7.8,241.4,-5.9,64.6,-16.9,25,858.277,-65.8223,-152.121,-6.01167,80.5956,-19.9075,
2026_07_06_17_19_35.158,3.873,37.9,0,0.764,0,0,0,0, ,0,0,0,0,0, ,951.7,11.2,239.1,0,56.3,-10.1,25,864.049,-61.2324,-128.211,-5.8251,79.368,-19.517,
2026_07_06_17_19_35.178,3.873,37.9,0,0.764,0,0,0,0, ,0,0,0,0,0, ,952.1,16.4,285.6,0.3,51.4,-4.9,25,869.403,-56.6601,-104.411,-5.46099,77.813,-18.7848,
2026_07_06_17_19_35.199,3.873,37.8,0,0.765,0,0,0,0, ,0,0,0,0,0, ,926,20,311.4,1.3,54.7,-8.4,25,873.647,-52.0983,-79.8586,-5.07946,76.304,-18.0453,
2026_07_06_17_19_35.217,3.873,37.9,0,0.766,0,0,0,0, ,0,0,0,0,0, ,914.3,21.1,317.9,2.7,65.9,-11,25,876.481,-47.6713,-55.8182,-4.64806,75.3287,-17.5368,
2026_07_06_17_19_35.237,3.873,37.9,0,0.764,0,0,0,0, ,0,0,0,0,0, ,912.8,15.1,321.4,3.1,62.8,-8.1,25,878.74,-43.6634,-32.9381,-4.1881,74.6597,-17.0501,
2026_07_06_17_19_35.256,3.873,37.9,0,0.765,0,0,0,0, ,0,0,0,0,0, ,933.3,30.5,320,2.1,50.8,8,25,881.44,-39.6133,-11.3883,-3.77445,73.5714,-16.0141,
2026_07_06_17_19_35.277,3.873,37.8,0,0.765,0,0,0,0, ,0,0,0,0,0, ,946,17.7,337.1,14.7,24.1,28.3,25,884.987,-35.7307,9.3267,-3.03257,71.3702,-13.9322,
2026_07_06_17_19_35.295,3.873,37.9,0,0.765,0,0,0,0, ,0,0,0,0,0, ,940.9,15.2,373.6,22.8,-10.2,41.5,25,888.55,-32.551,30.4125,-1.70519,67.4446,-10.9565,
2026_07_06_17_19_35.316,3.873,37.9,0,0.765,0,0,0,0, ,0,0,0,0,0, ,911.9,5.2,390.7,21.8,-28.4,35,25,890.856,-29.9458,51.8465,-0.242376,62.1586,-7.95801,
2026_07_06_17_19_35.337,3.873,37.8,0,0.765,0,0,0,0, ,0,0,0,0,0, ,889.1,26.8,415.8,3.9,-32.8,25.7,25,891.444,-27.146,73.2601,0.555441,56.5062,-5.62361,
2026_07_06_17_19_35.356,3.873,37.9,0,0.765,0,0,0,0, ,0,0,0,0,0, ,927.7,-6.7,446.6,5.4,-33.1,23.6,25,892.477,-24.8794,95.0721,0.804953,51.0549,-3.77882,
2026_07_06_17_19_35.376,3.873,37.8,0,0.765,0,0,0,0, ,0,0,0,0,0, ,935,-18.3,389.4,1.9,-18.1,21.4,25,894.846,-24.125,114.751,0.978323,46.3838,-2.17745,
2026_07_06_17_19_35.395,3.873,37.9,0,0.764,0,0,0,0, ,0,0,0,0,0, ,908.3,-5,377.1,8.3,-5.2,8.5,25,896.479,-23.3648,131.112,1.22949,42.8473,-1.13375,
2026_07_06_17_19_35.415,3.873,37.8,0,0.765,0,0,0,0, ,0,0,0,0,0, ,979,-46.3,398.4,7.2,7.6,6.5,25,899.354,-23.5041,146.751,1.62683,40.3094,-0.607628,
2026_07_06_17_19_35.435,3.873,37.8,0,0.765,0,0,0,0, ,0,0,0,0,0, ,873.5,-19.4,344.7,8.7,12.1,-4.4,25,900.993,-24.0736,160.45,2.01215,38.4533,-0.506616,
2026_07_06_17_19_35.454,3.873,37.8,0,0.765,0,0,0,0, ,0,0,0,0,0, ,908.8,-21.7,419,5.6,25.8,-10,25,900.393,-23.8589,173.941,2.32524,37.2648,-0.914494,
2026_07_06_17_19_35.474,3.873,37.8,0,0.764,0,0,0,0, ,0,0,0,0,0, ,887.5,-8.4,418.8,0.8,20.8,-13.5,25,900.256,-23.3221,188.868,2.37854,36.4139,-1.57478,
2026_07_06_17_19_35.494,3.873,37.8,0,0.766,0,0,0,0, ,0,0,0,0,0, ,905.7,-25.8,393.7,-0.7,19.1,-12.9,25,900.033,-22.9429,202.115,2.23665,35.4106,-2.28319,
2026_07_06_17_19_35.514,3.873,37.7,0,0.765,0,0,0,0, ,0,0,0,0,0, ,899.6,-22.5,380,-1.6,18.7,-12.1,25,900.193,-23.0165,213.372,2.03027,34.4045,-2.90578,
2026_07_06_17_19_35.534,3.873,37.9,0,0.765,0,0,0,0, ,0,0,0,0,0, ,881.1,-5.9,408,-2.1,14.5,-12.3,25,899.593,-22.4792,224.379,1.79382,33.3195,-3.47215,
2026_07_06_17_19_35.554,3.873,37.8,0,0.765,0,0,0,0, ,0,0,0,0,0, ,898.1,-3.1,427.3,-4.3,11.7,-13.5,25,898.984,-21.3836,236.157,1.48951,32.0874,-4.04666,
2026_07_06_17_19_35.574,3.873,37.8,0,0.764,0,0,0,0, ,0,0,0,0,0, ,932.9,-7.9,405.2,-4.6,16.3,-13,25,899.991,-20.4157,247.131,1.12757,30.9852,-4.60749,
2026_07_06_17_19_35.593,3.873,37.8,0,0.765,0,0,0,0, ,0,0,0,0,0, ,937.3,-6.7,399.9,-4,25.1,-15.4,25,902.13,-19.6165,256.602,0.796827,30.3584,-5.19203,
2026_07_06_17_19_35.612,3.873,37.8,0,0.765,0,0,0,0, ,0,0,0,0,0, ,954.7,-3.6,399,-3.9,18.7,-13.5,25,904.803,-18.7349,265.307,0.507568,29.843,-5.75619,
2026_07_06_17_19_35.632,3.873,37.7,0,0.765,0,0,0,0, ,0,0,0,0,0, ,958.8,0.4,387.9,-2.8,10.3,-10,25,907.969,-17.6908,273.116,0.272497,28.908,-6.12144,
2026_07_06_17_19_35.652,3.873,37.8,0,0.766,0,0,0,0, ,0,0,0,0,0, ,954.4,15.1,409.5,1,0.1,-4.4,25,910.932,-16.1405,280.768,0.201048,27.4633,-6.18716,
2026_07_06_17_19_35.672,3.873,37.7,0,0.765,0,0,0,0, ,0,0,0,0,0, ,920.4,14.2,434.5,0.4,3.2,-1.8,25,912.545,-14.2642,289.375,0.231453,25.8903,-5.99904,
2026_07_06_17_19_35.692,3.873,37.8,0,0.764,0,0,0,0, ,0,0,0,0,0, ,890.3,9.3,436.7,0.7,3.2,-2.7,25,912.107,-12.6789,298.285,0.250864,24.5076,-5.77058,
2026_07_06_17_19_35.711,3.873,37.7,0,0.764,0,0,0,0, ,0,0,0,0,0, ,885.9,6.7,414.6,-2,2.1,-3.2,25,910.644,-11.4188,306.047,0.195968,23.1757,-5.5987,
2026_07_06_17_19_35.731,3.873,37.8,0,0.767,0,0,0,0, ,0,0,0,0,0, ,888.4,4,416.5,-0.7,0.8,-3.1,25,909.212,-10.397,312.719,0.101761,21.8518,-5.44948,
2026_07_06_17_19_35.752,3.873,37.7,0,0.763,0,0,0,0, ,0,0,0,0,0, ,897.9,5.9,414.3,0.5,0.2,-1.8,25,908.233,-9.46175,318.977,0.0894657,20.5507,-5.2667,
2026_07_06_17_19_35.772,3.873,37.8,0,0.764,0,0,0,0, ,0,0,0,0,0, ,896.6,7.6,429.9,0.5,-0.9,-1.7,25,907.564,-8.47385,325.261,0.114483,19.277,-5.0524,
2026_07_06_17_19_35.790,3.873,37.8,0,0.766,0,0,0,0, ,0,0,0,0,0, ,898.3,5.9,433.9,0.9,-1.4,-1.6,25,906.948,-7.54615,331.759,0.150163,18.0322,-4.84507,
2026_07_06_17_19_35.811,3.873,37.7,0,0.765,0,0,0,0, ,0,0,0,0,0, ,905.7,3.7,415,1.6,0.3,-2.9,25,906.646,-6.7938,337.407,0.217184,16.8999,-4.68693,
2026_07_06_17_19_35.830,3.873,37.7,0,0.765,0,0,0,0, ,0,0,0,0,0, ,906.3,8,416,2.2,0.9,-3.4,25,906.607,-6.02332,342.166,0.319731,15.9066,-4.59328,
2026_07_06_17_19_35.850,3.873,37.7,0,0.765,0,0,0,0, ,0,0,0,0,0, ,902.4,12.8,423.8,0.8,1.4,-3.7,25,906.469,-5.02252,346.903,0.391653,15.0074,-4.5297,
2026_07_06_17_19_35.870,3.873,37.8,0,0.765,0,0,0,0, ,0,0,0,0,0, ,890.5,11.2,427.9,-0.2,0.1,-3.3,25,905.859,-3.98521,351.714,0.386068,14.1386,-4.46695,
2026_07_06_17_19_35.890,3.873,37.7,0,0.766,0,0,0,0, ,0,0,0,0,0, ,894.7,11.4,427.2,0.2,-0.6,-2.3,25,905.051,-3.05377,356.335,0.362542,13.2618,-4.36537,
2026_07_06_17_19_35.909,3.873,37.7,0,0.766,0,0,0,0, ,0,0,0,0,0, ,899.2,11.3,430.9,-0.4,-2.5,-2.1,25,904.557,-2.17604,360.766,0.334356,12.3592,-4.23342,
2026_07_06_17_19_35.930,3.873,37.7,0,0.764,0,0,0,0, ,0,0,0,0,0, ,897.2,10.6,425.1,-1.4,-4.1,-2.7,25,904.17,-1.37617,364.863,0.259137,11.405,-4.1217,
2026_07_06_17_19_35.950,3.873,37.7,0,0.766,0,0,0,0, ,0,0,0,0,0, ,893.4,7.5,420.1,-2.4,-3.8,-3.2,25,903.629,-0.740829,368.382,0.127565,10.4693,-4.0503,
2026_07_06_17_19_35.969,3.873,37.7,0,0.765,0,0,0,0, ,0,0,0,0,0, ,901,7.9,403.6,-1.8,-0.8,-3,25,903.238,-0.226466,371.03,-0.00817729,9.69113,-3.99239,
2026_07_06_17_19_35.993,3.873,37.7,0,0.766,0,0,0,0, ,0,0,0,0,0, ,906.1,9.5,406.2,-0.1,0,-2.7,25,903.257,0.31749,373.094,-0.0655696,9.0762,-3.92277,
2026_07_06_17_19_36.008,3.873,37.7,0,0.765,0,0,0,0, ,0,0,0,0,0, ,901.8,11.7,420,0.1,0.4,-2.8,25,903.299,0.944081,375.532,-0.061574,8.53531,-3.85131,
2026_07_06_17_19_36.029,3.873,37.7,0,0.764,0,0,0,0, ,0,0,0,0,0, ,898.8,12.5,425.2,-0.5,0.3,-3.4,25,903.116,1.62389,378.4,-0.0700093,8.03652,-3.80552,
2026_07_06_17_19_36.048,3.873,37.7,0,0.764,0,0,0,0, ,0,0,0,0,0, ,899.7,12,419.5,-1.3,0.9,-3.7,25,902.88,2.27142,381.079,-0.120587,7.58335,-3.78995,
2026_07_06_17_19_36.068,3.873,37.6,0,0.766,0,0,0,0, ,0,0,0,0,0, ,899.6,10.7,419.4,-0.7,0.6,-3.5,25,902.684,2.82465,383.417,-0.174176,7.16695,-3.77838,
2026_07_06_17_19_36.087,3.873,37.6,0,0.766,0,0,0,0, ,0,0,0,0,0, ,900.3,15.9,412.1,0,1,-2.9,25,902.517,3.46299,385.387,-0.18489,6.77896,-3.74313,
2026_07_06_17_19_36.107,3.873,37.6,0,0.765,0,0,0,0, ,0,0,0,0,0, ,903.6,16.4,414,0.7,2.8,-3,25,902.482,4.2361,387.073,-0.152295,6.48165,-3.6948,
2026_07_06_17_19_36.128,3.873,37.6,0,0.766,0,0,0,0, ,0,0,0,0,0, ,898.6,15.5,429.4,0.5,2.4,-3,25,902.398,4.94992,389.183,-0.106452,6.24511,-3.65246,
2026_07_06_17_19_36.148,3.873,37.6,0,0.764,0,0,0,0, ,0,0,0,0,0, ,888.6,16.7,430.6,0.1,1.3,-3.2,25,901.862,5.62938,391.67,-0.0816843,5.97728,-3.6188,
2026_07_06_17_19_36.167,3.873,37.6,0,0.766,0,0,0,0, ,0,0,0,0,0, ,892.9,12.4,421.5,0.4,0.9,-3.4,25,901.185,6.17298,393.765,-0.0614723,5.68008,-3.59937,
2026_07_06_17_19_36.187,3.873,37.7,0,0.765,0,0,0,0, ,0,0,0,0,0, ,885.3,16.2,431.3,0.9,0.4,-3,25,900.449,6.66822,395.754,-0.0181169,5.37356,-3.57503,
2026_07_06_17_19_36.213,3.873,37.7,0,0.765,0,0,0,0, ,0,0,0,0,0, ,892.7,19.5,434.5,1.7,-0.9,-4,25,899.751,7.34961,398.018,0.0622058,5.03087,-3.57046,
2026_07_06_17_19_36.226,3.873,37.7,0,0.764,0,0,0,0, ,0,0,0,0,0, ,899.2,20.5,431.8,-0.1,-1.6,-4.3,25,899.519,8.12049,400.158,0.107165,4.64813,-3.60578,
2026_07_06_17_19_36.245,3.873,37.7,0,0.764,0,0,0,0, ,0,0,0,0,0, ,908.4,21.4,424.8,-0.9,-1.7,-4,25,899.78,8.90229,401.873,0.070166,4.26434,-3.63894,
2026_07_06_17_19_36.266,3.873,37.7,0,0.765,0,0,0,0, ,0,0,0,0,0, ,902.3,19.6,419.5,-0.6,-1.7,-3,25,900.12,9.60903,403.109,0.0201872,3.90089,-3.63047,
2026_07_06_17_19_36.286,3.873,37.6,0,0.766,0,0,0,0, ,0,0,0,0,0, ,898,20.3,423.7,-0.9,-1.6,-2.8,25,900.121,10.2392,404.236,-0.0267461,3.56263,-3.58596,
2026_07_06_17_19_36.305,3.873,37.6,0,0.765,0,0,0,0, ,0,0,0,0,0, ,900.7,23.3,420.6,0,-1.8,-2.6,25,900.074,10.9437,405.327,-0.0525381,3.24194,-3.53197,
2026_07_06_17_19_36.326,3.873,37.6,0,0.765,0,0,0,0, ,0,0,0,0,0, ,898.1,22,426,-0.3,-1.4,-3.2,25,900.033,11.657,406.423,-0.0584772,2.94688,-3.49346,
2026_07_06_17_19_36.346,3.873,37.6,0,0.766,0,0,0,0, ,0,0,0,0,0, ,894.8,20.3,422.4,-0.6,-1.9,-4.1,25,899.815,12.2355,407.506,-0.0823356,2.66676,-3.503,
2026_07_06_17_19_36.368,3.873,37.6,0,0.765,0,0,0,0, ,0,0,0,0,0, ,903.4,18.4,415.8,-0.6,-0.8,-3.7,25,899.771,12.669,408.212,-0.113881,2.42199,-3.52719,
2026_07_06_17_19_36.384,3.873,37.6,0,0.766,0,0,0,0, ,0,0,0,0,0, ,899.9,22.4,423.5,0.5,-1.1,-2.7,25,899.886,13.1401,408.909,-0.109988,2.21651,-3.50725,
2026_07_06_17_19_36.404,3.873,37.7,0,0.764,0,0,0,0, ,0,0,0,0,0, ,901.7,19,411.1,0.2,-0.5,-2.7,25,899.942,13.6008,409.421,-0.0819576,2.03269,-3.45806,
2026_07_06_17_19_36.428,3.873,37.6,0,0.765,0,0,0,0, ,0,0,0,0,0, ,901.9,25.5,421,0,0.4,-2.7,25,900.055,14.1279,409.825,-0.0708695,1.90578,-3.41187,
2026_07_06_17_19_36.445,3.873,37.5,0,0.765,0,0,0,0, ,0,0,0,0,0, ,900.8,27.4,428.2,-0.3,-0.2,-2.2,25,900.134,14.8788,410.725,-0.0756915,1.79574,-3.35325,
2026_07_06_17_19_36.464,3.873,37.6,0,0.765,0,0,0,0, ,0,0,0,0,0, ,897.2,28.3,425.1,-0.4,-0.4,-2.2,25,900.065,15.6692,411.695,-0.0924072,1.66803,-3.28298,
2026_07_06_17_19_36.484,3.873,37.6,0,0.764,0,0,0,0, ,0,0,0,0,0, ,897.3,22.8,420.7,-0.7,-0.8,-2.5,25,899.893,16.2713,412.378,-0.120292,1.52982,-3.22612,
2026_07_06_17_19_36.504,3.873,37.6,0,0.766,0,0,0,0, ,0,0,0,0,0, ,894.4,18.9,419.5,-0.9,-0.5,-2.8,25,899.647,16.5503,412.849,-0.161711,1.39699,-3.19102,
2026_07_06_17_19_36.524,3.873,37.6,0,0.766,0,0,0,0, ,0,0,0,0,0, ,895.2,20.8,420.5,-1.1,-0.1,-2.5,25,899.351,16.7514,413.285,-0.212795,1.29358,-3.15805,
2026_07_06_17_19_36.543,3.873,37.5,0,0.766,0,0,0,0, ,0,0,0,0,0, ,899.6,25.8,425.2,-0.3,-0.4,-1.8,25,899.232,17.1505,413.867,-0.242484,1.19951,-3.09662,
2026_07_06_17_19_36.563,3.873,37.6,0,0.766,0,0,0,0, ,0,0,0,0,0, ,902.9,25.3,420.8,-1,-0.9,-2.1,25,899.355,17.6623,414.424,-0.267317,1.08681,-3.02675,
2026_07_06_17_19_36.582,3.873,37.5,0,0.765,0,0,0,0, ,0,0,0,0,0, ,903,21.9,412.2,-0.9,-0.3,-2.3,25,899.574,18.0241,414.55,-0.308918,0.98402,-2.97637,
2026_07_06_17_19_36.603,3.873,37.6,0,0.765,0,0,0,0, ,0,0,0,0,0, ,894.1,22,424.4,-0.3,0.3,-2.5,25,899.512,18.2634,414.779,-0.326656,0.924056,-2.94125,
2026_07_06_17_19_36.623,3.873,37.6,0,0.764,0,0,0,0, ,0,0,0,0,0, ,894.5,25.3,425.2,-0.3,-0.4,-2,25,899.194,18.5916,415.39,-0.325031,0.864699,-2.89912,
2026_07_06_17_19_36.642,3.873,37.6,0,0.765,0,0,0,0, ,0,0,0,0,0, ,899.4,25,419.7,-0.6,-0.7,-2.1,25,899.058,18.9913,415.82,-0.332647,0.778491,-2.84738,
2026_07_06_17_19_36.662,3.873,37.5,0,0.764,0,0,0,0, ,0,0,0,0,0, ,899.1,28.4,423.8,-0.7,-0.7,-2.3,25,899.069,19.461,416.181,-0.351985,0.688396,-2.80793,
2026_07_06_17_19_36.681,3.873,37.5,0,0.766,0,0,0,0, ,0,0,0,0,0, ,894.4,27.9,424.5,-1.5,-1,-2.5,25,898.928,19.9905,416.667,-0.397567,0.59465,-2.78307,
2026_07_06_17_19_36.702,3.873,37.5,0,0.766,0,0,0,0, ,0,0,0,0,0, ,892.3,25.3,420.8,-1.5,-1.2,-2.8,25,898.588,20.3933,417.031,-0.464747,0.491382,-2.77496,
2026_07_06_17_19_36.722,3.873,37.6,0,0.765,0,0,0,0, ,0,0,0,0,0, ,898.8,24.7,416.2,-1.2,-0.5,-2.3,25,898.403,20.674,417.121,-0.518692,0.409642,-2.76125,
2026_07_06_17_19_36.742,3.873,37.5,0,0.765,0,0,0,0, ,0,0,0,0,0, ,901,28.1,422.6,-0.3,-0.3,-1.8,25,898.494,21.0229,417.26,-0.532787,0.360304,-2.71791,
2026_07_06_17_19_36.761,3.873,37.6,0,0.765,0,0,0,0, ,0,0,0,0,0, ,896.4,26.6,425.1,-0.7,-0.9,-1.6,25,898.507,21.4085,417.661,-0.530789,0.301785,-2.65588,
2026_07_06_17_19_36.780,3.873,37.6,0,0.765,0,0,0,0, ,0,0,0,0,0, ,895,22.3,420.8,-1.3,-1.2,-2,25,898.336,21.5938,417.984,-0.559382,0.219411,-2.60373,
2026_07_06_17_19_36.800,3.873,37.5,0,0.764,0,0,0,0, ,0,0,0,0,0, ,894.7,23.4,423.5,-1.7,-1.1,-2.5,25,898.123,21.6704,418.238,-0.616701,0.135963,-2.58217,
2026_07_06_17_19_36.820,3.873,37.5,0,0.766,0,0,0,0, ,0,0,0,0,0, ,902,26.7,414.3,-1.5,-0.9,-2.5,25,898.137,21.8763,418.278,-0.676621,0.0667399,-2.57717,
2026_07_06_17_19_36.839,3.873,37.5,0,0.765,0,0,0,0, ,0,0,0,0,0, ,901.1,24.2,418.2,-1.4,-1,-2.6,25,898.345,22.0941,418.154,-0.723748,0.00478229,-2.57551,
2026_07_06_17_19_36.859,3.873,37.5,0,0.765,0,0,0,0, ,0,0,0,0,0, ,895,24.2,419.7,-1.2,-0.7,-2.5,25,898.327,22.2224,418.203,-0.758864,-0.047306,-2.57396,
2026_07_06_17_19_36.883,3.873,37.5,0,0.766,0,0,0,0, ,0,0,0,0,0, ,899.4,24,414.7,-1,-0.4,-2.3,25,898.258,22.3368,418.142,-0.779652,-0.0779389,-2.56335,
2026_07_06_17_19_36.900,3.873,37.6,0,0.765,0,0,0,0, ,0,0,0,0,0, ,900.7,28.4,428.2,-1.4,-0.7,-2.5,25,898.368,22.5722,418.343,-0.805267,-0.106705,-2.5534,
2026_07_06_17_19_36.919,3.873,37.5,0,0.765,0,0,0,0, ,0,0,0,0,0, ,897.8,28.1,433.7,-2.4,-2.6,-2.5,25,898.421,22.9182,419.112,-0.871977,-0.20075,-2.55015,
2026_07_06_17_19_36.939,3.873,37.5,0,0.765,0,0,0,0, ,0,0,0,0,0, ,902.8,21.8,423.3,-3.4,-5.4,-2.9,25,898.536,23.042,419.684,-0.99556,-0.432266,-2.55928,
2026_07_06_17_19_36.959,3.873,37.5,0,0.765,0,0,0,0, ,0,0,0,0,0, ,898.1,25.7,429.1,-3.8,-6.7,-3.1,25,898.652,23.0852,420.081,-1.15427,-0.774597,-2.58613,
2026_07_06_17_19_36.977,3.873,37.6,0,0.765,0,0,0,0, ,0,0,0,0,0, ,906.1,28.1,426.3,-5.6,-10.7,-3.5,25,898.863,23.3176,420.545,-1.37034,-1.25755,-2.62964,
2026_07_06_17_19_36.998,3.873,37.5,0,0.764,0,0,0,0, ,0,0,0,0,0, ,920.4,31.6,432.2,-8,-17.2,-3,25,899.739,23.7157,421.075,-1.70121,-2.031,-2.66744,
2026_07_06_17_19_37.018,3.873,37.5,0,0.765,0,0,0,0, ,0,0,0,0,0, ,907.7,35.1,434.8,-8.1,-26.5,0,25,900.611,24.3028,421.833,-2.08809,-3.23872,-2.5963,
2026_07_06_17_19_37.038,3.873,37.5,0,0.764,0,0,0,0, ,0,0,0,0,0, ,914.7,36,430.1,-7.2,-37.3,2.3,25,901.257,24.9882,422.48,-2.42701,-4.98526,-2.36801,
2026_07_06_17_19_37.057,3.873,37.5,0,0.765,0,0,0,0, ,0,0,0,0,0, ,913.6,48,403.1,-7.4,-57.8,-4.1,25,902.042,26.0248,422.121,-2.72396,-7.57905,-2.27855,
2026_07_06_17_19_37.078,3.873,37.5,0,0.766,0,0,0,0, ,0,0,0,0,0, ,962.2,45.5,395.6,-8.1,-75.6,2.2,25,904.227,27.2878,420.734,-3.03024,-11.1817,-2.19759,
2026_07_06_17_19_37.098,3.873,37.5,0,0.765,0,0,0,0, ,0,0,0,0,0, ,979.6,30.2,362.1,-9,-99,10,25,908.29,27.9314,418.181,-3.3666,-15.8202,-1.69196,
2026_07_06_17_19_37.119,3.873,37.5,0,0.765,0,0,0,0, ,0,0,0,0,0, ,991.9,10.4,296.7,-9.4,-113.2,13.4,25,913.01,27.4664,412.771,-3.72207,-21.3216,-0.875886,
2026_07_06_17_19_37.137,3.873,37.5,0,0.765,0,0,0,0, ,0,0,0,0,0, ,1015.9,-2.3,256.4,-4.1,-107.6,11.6,25,918.549,26.0394,404.47,-3.90658,-26.7498,-0.060793,
2026_07_06_17_19_37.157,3.873,37.4,0,0.765,0,0,0,0, ,0,0,0,0,0, ,987.5,-7.9,212.8,-2.8,-94.8,14.3,25,923.616,24.1419,394.119,-3.87876,-31.2866,0.732052,
2026_07_06_17_19_37.175,3.873,37.5,0,0.764,0,0,0,0, ,0,0,0,0,0, ,971.1,-9.3,185,2.2,-91.8,12.8,25,927.009,22.1467,382.223,-3.66068,-35.0656,1.51315,
2026_07_06_17_19_37.196,3.873,37.4,0,0.765,0,0,0,0, ,0,0,0,0,0, ,976.5,-10.3,157.7,2.3,-98.1,14.5,25,929.861,20.1999,369.373,-3.3005,-38.7148,2.25274,
2026_07_06_17_19_37.216,3.873,37.4,0,0.765,0,0,0,0, ,0,0,0,0,0, ,976.4,-16.3,122.8,2.1,-105.6,15.1,25,932.7,18.1585,355.41,-2.96531,-42.5621,3.01733,
2026_07_06_17_19_37.235,3.873,37.5,0,0.765,0,0,0,0, ,0,0,0,0,0, ,962.8,-17.9,82,2,-110.3,15.5,25,934.948,16.01,339.993,-2.65969,-46.5467,3.76581,
2026_07_06_17_19_37.255,3.873,37.5,0,0.765,0,0,0,0, ,0,0,0,0,0, ,953.6,-35.5,24.4,7.8,-111.8,12.9,25,936.365,13.4073,322.516,-2.19902,-50.4773,4.40164,
2026_07_06_17_19_37.276,3.873,37.5,0,0.764,0,0,0,0, ,0,0,0,0,0, ,937.9,-50.6,-2,44.2,-120.5,7.1,25,936.937,9.96695,303.545,-0.480645,-54.4793,4.74279,
2026_07_06_17_19_37.295,3.873,37.6,0,0.765,0,0,0,0, ,0,0,0,0,0, ,938.5,-21.3,-58.3,37.5,-127.3,7.6,25,937.014,7.16888,283.211,2.03794,-58.7096,4.90167,
2026_07_06_17_19_37.315,3.873,37.4,0,0.765,0,0,0,0, ,0,0,0,0,0, ,991.4,-39.7,-63.8,32.7,-129,14.4,25,938.716,4.87344,262.232,4.05266,-62.9411,5.27329,
2026_07_06_17_19_37.340,3.873,37.4,0,0.765,0,0,0,0, ,0,0,0,0,0, ,991.9,-35.4,-90.3,23.5,-117.7,15.2,25,941.942,2.28826,241.557,5.51804,-66.6223,5.85382,
2026_07_06_17_19_37.357,3.873,37.5,0,0.765,0,0,0,0, ,0,0,0,0,0, ,968.8,-49.3,-120.8,15.8,-96.5,12.9,25,944.282,-0.431885,220.406,6.37921,-69.0889,6.35327,
2026_07_06_17_19_37.375,3.873,37.5,0,0.765,0,0,0,0, ,0,0,0,0,0, ,946.8,-66.7,-164,9.8,-88.7,12,25,945.106,-3.93994,198.297,6.77048,-70.5216,6.72479,
2026_07_06_17_19_37.394,3.873,37.5,0,0.764,0,0,0,0, ,0,0,0,0,0, ,927,-70.1,-207.1,6.8,-90.3,12.1,25,944.606,-7.86798,174.906,6.86368,-71.6781,7.0493,
2026_07_06_17_19_37.414,3.873,37.4,0,0.765,0,0,0,0, ,0,0,0,0,0, ,906.9,-76.4,-229.1,5.4,-91.2,9.2,25,942.921,-11.8522,150.958,6.81715,-72.8403,7.26872,
2026_07_06_17_19_37.434,3.873,37.4,0,0.765,0,0,0,0, ,0,0,0,0,0, ,898.6,-83,-258.7,0.4,-93.9,6.5,25,940.473,-15.9867,126.896,6.57844,-74.0413,7.30414,
2026_07_06_17_19_37.453,3.873,37.4,0,0.765,0,0,0,0, ,0,0,0,0,0, ,885.2,-81,-283.5,-7.5,-107.7,12.8,25,937.513,-20.0094,102.643,5.96124,-75.672,7.44709,
2026_07_06_17_19_37.473,3.873,37.5,0,0.766,0,0,0,0, ,0,0,0,0,0, ,894.4,-83,-348.1,-20.1,-117.3,17.5,25,934.606,-23.7869,77.1442,4.75704,-77.9162,7.91649,
2026_07_06_17_19_37.495,3.873,37.5,0,0.765,0,0,0,0, ,0,0,0,0,0, ,875.8,-103.5,-391.9,-27.7,-111,13.8,25,931.589,-28.0198,49.8964,3.01075,-80.1242,8.38775,
2026_07_06_17_19_37.513,3.873,37.5,0,0.766,0,0,0,0, ,0,0,0,0,0, ,826.6,-103,-390.7,-23.8,-96.3,12.8,25,926.69,-32.6042,23.011,1.25815,-81.5578,8.68709,
2026_07_06_17_19_37.533,3.873,37.5,0,0.765,0,0,0,0, ,0,0,0,0,0, ,826.9,-87,-458.1,-23.8,-82.3,10.3,25,920.6,-36.4064,-4.25314,-0.268835,-82.0296,8.86155,
2026_07_06_17_19_37.552,3.873,37.5,0,0.765,0,0,0,0, ,0,0,0,0,0, ,849.7,-86.1,-486.4,-26,-70.6,6.1,25,915.585,-39.462,-32.7717,-1.7698,-81.6896,8.82123,
2026_07_06_17_19_37.572,3.873,37.4,0,0.765,0,0,0,0, ,0,0,0,0,0, ,845.9,-92,-551.2,-25.7,-60.1,6.5,25,911.454,-42.4838,-62.389,-3.23718,-80.6939,8.6676,
2026_07_06_17_19_37.596,3.873,37.5,0,0.765,0,0,0,0, ,0,0,0,0,0, ,833.2,-96.1,-576.4,-18.5,-53.4,6.5,25,907.073,-45.6261,-92.9438,-4.38664,-79.2348,8.53551,
2026_07_06_17_19_37.611,3.873,37.4,0,0.765,0,0,0,0, ,0,0,0,0,0, ,804.8,-88.1,-572.2,-10.7,-63.8,6,25,901.706,-48.4581,-122.276,-5.00901,-77.9774,8.39623,
2026_07_06_17_19_37.631,3.873,37.4,0,0.766,0,0,0,0, ,0,0,0,0,0, ,791.6,-81,-573.7,-11.7,-74.3,7.6,25,895.398,-50.6575,-149.739,-5.38628,-77.4333,8.29896,
2026_07_06_17_19_37.650,3.873,37.4,0,0.763,0,0,0,0, ,0,0,0,0,0, ,799.5,-76.7,-585.8,-19.7,-97.9,11.3,25,889.314,-52.3754,-175.943,-6.01477,-77.9615,8.3691,
2026_07_06_17_19_37.672,3.873,37.4,0,0.765,0,0,0,0, ,0,0,0,0,0, ,816.7,-78.7,-612.3,-20.1,-101.9,13.5,25,884.365,-53.9187,-201.726,-6.8609,-79.2983,8.61474,
2026_07_06_17_19_37.690,3.873,37.3,0,0.765,0,0,0,0, ,0,0,0,0,0, ,799.9,-81.5,-628.5,-3.3,-84.8,12.6,25,879.73,-55.5141,-227.239,-7.15578,-80.1546,8.88501,
2026_07_06_17_19_37.711,3.873,37.4,0,0.766,0,0,0,0, ,0,0,0,0,0, ,773.3,-82.1,-633.3,6.3,-59.7,8.6,25,874.054,-57.1159,-251.837,-6.62832,-79.6729,8.98952,
2026_07_06_17_19_37.731,3.873,37.4,0,0.765,0,0,0,0, ,0,0,0,0,0, ,766.9,-91.9,-658.3,2.3,-43.4,5.7,25,867.72,-58.9369,-275.844,-5.96238,-77.9592,8.87742,
2026_07_06_17_19_37.750,3.873,37.4,0,0.765,0,0,0,0, ,0,0,0,0,0, ,759.6,-94.7,-657.4,4.2,-26.5,-1.9,25,861.354,-61.0309,-299.123,-5.401,-75.3383,8.45224,
2026_07_06_17_19_37.770,3.873,37.5,0,0.765,0,0,0,0, ,0,0,0,0,0, ,730.7,-89.2,-676.5,4.2,-8.7,-15.5,25,854.272,-62.9151,-321.537,-4.81594,-71.8199,7.40702,
2026_07_06_17_19_37.789,3.873,37.4,0,0.766,0,0,0,0, ,0,0,0,0,0, ,742.3,-85.4,-657.7,-1.6,2.9,-20.1,25,847.096,-64.401,-342.595,-4.44325,-67.6201,5.87097,
2026_07_06_17_19_37.810,3.873,37.3,0,0.765,0,0,0,0, ,0,0,0,0,0, ,744.9,-83.9,-652,-4.1,15.2,-19.5,25,840.789,-65.635,-361.623,-4.34616,-62.948,4.30664,
2026_07_06_17_19_37.829,3.873,37.4,0,0.765,0,0,0,0, ,0,0,0,0,0, ,755.2,-80.2,-655.5,-4.1,28.7,-19.5,25,835.26,-66.6352,-379.424,-4.33116,-57.7745,2.85593,
2026_07_06_17_19_37.849,3.873,37.3,0,0.766,0,0,0,0, ,0,0,0,0,0, ,760.4,-79.5,-672.8,-3.3,33.9,-14.7,25,830.539,-67.4405,-396.775,-4.2927,-52.3466,1.63986,
2026_07_06_17_19_37.870,3.873,37.4,0,0.764,0,0,0,0, ,0,0,0,0,0, ,749.1,-69.4,-660.8,-4.2,19.8,-10.6,25,825.921,-67.8677,-413.23,-4.25963,-47.5205,0.769075,
2026_07_06_17_19_37.888,3.873,37.4,0,0.764,0,0,0,0, ,0,0,0,0,0, ,754.6,-64.5,-650.3,-5.9,6.6,-10.7,25,821.407,-67.8117,-427.996,-4.30779,-43.8204,0.0732248,
2026_07_06_17_19_37.909,3.873,37.4,0,0.764,0,0,0,0, ,0,0,0,0,0, ,774.7,-64.5,-658.2,-4.7,0.8,-9.7,25,817.949,-67.6099,-441.783,-4.36825,-40.9246,-0.5528,
2026_07_06_17_19_37.929,3.873,37.4,0,0.764,0,0,0,0, ,0,0,0,0,0, ,797.9,-64.6,-654.5,-0.5,0,-7.4,25,816.02,-67.4235,-454.859,-4.2605,-38.4064,-1.04013,
2026_07_06_17_19_37.948,3.873,37.4,0,0.764,0,0,0,0, ,0,0,0,0,0, ,791.2,-61.2,-645.8,0,2.1,-3.2,25,814.712,-67.1478,-466.759,-4.01611,-36.002,-1.29971,
2026_07_06_17_19_37.968,3.873,37.3,0,0.765,0,0,0,0, ,0,0,0,0,0, ,775.6,-60.7,-624.5,-0.7,4.4,-4.2,25,812.804,-66.7701,-477.02,-3.79271,-33.6101,-1.44598,
2026_07_06_17_19_37.987,3.873,37.3,0,0.765,0,0,0,0, ,0,0,0,0,0, ,763.9,-59.3,-637.2,-0.7,5.5,-6.7,25,810.18,-66.3576,-486.394,-3.60424,-31.2603,-1.68998,
2026_07_06_17_19_38.008,3.873,37.3,0,0.764,0,0,0,0, ,0,0,0,0,0, ,761.9,-58.4,-649.2,0.5,1.1,-6.9,25,807.299,-65.9001,-495.95,-3.3907,-29.1543,-2.00137,
2026_07_06_17_19_38.027,3.873,37.4,0,0.765,0,0,0,0, ,0,0,0,0,0, ,765.1,-60.3,-648.1,0.5,-7.3,-2.6,25,804.63,-65.5009,-505.255,-3.15361,-27.5666,-2.16886,
2026_07_06_17_19_38.048,3.873,37.4,0,0.766,0,0,0,0, ,0,0,0,0,0, ,762.6,-58.1,-630.2,-0.5,-9.8,0,25,802.145,-65.117,-513.414,-2.96144,-26.4078,-2.11592,
2026_07_06_17_19_38.067,3.873,37.3,0,0.765,0,0,0,0, ,0,0,0,0,0, ,762.5,-62.3,-630.7,-0.7,-3.7,-1.1,25,799.732,-64.8173,-520.546,-2.81754,-25.2099,-2.02049,
2026_07_06_17_19_38.087,3.873,37.4,0,0.765,0,0,0,0, ,0,0,0,0,0, ,747.5,-59.9,-637.6,-1.3,1.1,-2.2,25,797.006,-64.5908,-527.469,-2.70678,-23.7529,-1.99792,
2026_07_06_17_19_38.108,3.873,37.3,0,0.765,0,0,0,0, ,0,0,0,0,0, ,730.7,-58.7,-641.2,-1.6,-1,-3,25,793.478,-64.2684,-534.29,-2.6302,-22.3024,-2.03461,
2026_07_06_17_19_38.126,3.873,37.4,0,0.765,0,0,0,0, ,0,0,0,0,0, ,735.9,-57.4,-633.5,-2.9,-5,-2.9,25,789.81,-63.8895,-540.57,-2.60703,-21.1262,-2.09039,
2026_07_06_17_19_38.146,3.873,37.3,0,0.765,0,0,0,0, ,0,0,0,0,0, ,749.5,-57.1,-641.9,-4.1,-3.3,-3.8,25,786.94,-63.4849,-546.489,-2.66145,-20.0917,-2.16715,
2026_07_06_17_19_38.167,3.873,37.4,0,0.764,0,0,0,0, ,0,0,0,0,0, ,758.4,-57,-640.9,-4.4,3,-3.8,25,784.929,-63.0928,-552.272,-2.75825,-18.8765,-2.26665,
2026_07_06_17_19_38.186,3.873,37.3,0,0.766,0,0,0,0, ,0,0,0,0,0, ,759.1,-53.1,-630.6,-4.1,7.5,-4.5,25,783.334,-62.6027,-557.359,-2.84915,-17.4063,-2.38141,
2026_07_06_17_19_38.206,3.873,37.4,0,0.765,0,0,0,0, ,0,0,0,0,0, ,759.1,-54.8,-632.5,-5.3,7.5,-3.2,25,781.857,-62.0754,-561.88,-2.96194,-15.8885,-2.47091,
2026_07_06_17_19_38.225,3.873,37.3,0,0.766,0,0,0,0, ,0,0,0,0,0, ,760.8,-52.7,-645.5,-3.7,3.5,-2,25,780.522,-61.5681,-566.58,-3.05566,-14.5852,-2.47877,
2026_07_06_17_19_38.246,3.873,37.3,0,0.764,0,0,0,0, ,0,0,0,0,0, ,767.5,-53.1,-647.8,-1.9,1.6,-3.3,25,779.525,-61.0398,-571.459,-3.04008,-13.541,-2.48921,
2026_07_06_17_19_38.265,3.873,37.3,0,0.767,0,0,0,0, ,0,0,0,0,0, ,778.8,-52.2,-640,-1,-0.9,-2.9,25,779.136,-60.5286,-575.873,-2.94319,-12.6945,-2.52643,
2026_07_06_17_19_38.285,3.873,37.3,0,0.765,0,0,0,0, ,0,0,0,0,0, ,781,-52.1,-625.7,-1.7,-1,-2.4,25,779.183,-60.018,-579.345,-2.8461,-11.9788,-2.53396,
2026_07_06_17_19_38.304,3.873,37.3,0,0.765,0,0,0,0, ,0,0,0,0,0, ,778.5,-48.3,-613.2,-3.5,2.2,-2.7,25,779.217,-59.4197,-581.789,-2.83111,-11.2123,-2.53494,
2026_07_06_17_19_38.328,3.873,37.3,0,0.765,0,0,0,0, ,0,0,0,0,0, ,773.6,-49.5,-618.7,-4.7,2.8,-3.3,25,779.024,-58.7787,-583.871,-2.90843,-10.3767,-2.56328,
2026_07_06_17_19_38.346,3.873,37.3,0,0.764,0,0,0,0, ,0,0,0,0,0, ,769.5,-47.6,-624.1,-6.1,2.4,-4.1,25,778.569,-58.1554,-586.158,-3.06026,-9.58596,-2.63254,
2026_07_06_17_19_38.363,3.873,37.3,0,0.763,0,0,0,0, ,0,0,0,0,0, ,765,-52.9,-639.7,-6.3,2.6,-6.2,25,777.879,-57.6736,-588.945,-3.25159,-8.84947,-2.78595,
2026_07_06_17_19_38.384,3.873,37.3,0,0.765,0,0,0,0, ,0,0,0,0,0, ,770,-48,-639.1,-4.6,3.8,-5.1,25,777.247,-57.2335,-592.02,-3.38555,-8.1152,-2.96048,
2026_07_06_17_19_38.404,3.873,37.3,0,0.765,0,0,0,0, ,0,0,0,0,0, ,759.6,-40.7,-647.8,-4.7,1.2,-1.3,25,776.488,-56.4484,-595.154,-3.46261,-7.46834,-2.97508,
2026_07_06_17_19_38.424,3.873,37.3,0,0.765,0,0,0,0, ,0,0,0,0,0, ,759.6,-41.9,-631.1,-2.9,0.4,-2,25,775.459,-55.5253,-597.853,-3.48317,-6.96449,-2.89433,
2026_07_06_17_19_38.443,3.873,37.4,0,0.765,0,0,0,0, ,0,0,0,0,0, ,761.2,-46.7,-630.6,-1.3,0.5,-3.2,25,774.541,-54.8412,-599.864,-3.39888,-6.51267,-2.87639,
2026_07_06_17_19_38.464,3.873,37.3,0,0.765,0,0,0,0, ,0,0,0,0,0, ,776.3,-48.4,-642.8,1.2,4.9,-5.1,25,774.188,-54.3969,-602.109,-3.19481,-5.95127,-2.954,
2026_07_06_17_19_38.483,3.873,37.3,0,0.766,0,0,0,0, ,0,0,0,0,0, ,755,-36.7,-637.9,6.8,20.5,-16.4,25,773.668,-53.675,-604.439,-2.75637,-4.81471,-3.42907,
2026_07_06_17_19_38.503,3.873,37.3,0,0.764,0,0,0,0, ,0,0,0,0,0, ,775.8,-33.9,-628.1,4.6,24.9,-13.7,25,773.164,-52.5553,-606.179,-2.24106,-3.13803,-4.13722,
2026_07_06_17_19_38.523,3.873,37.3,0,0.764,0,0,0,0, ,0,0,0,0,0, ,803.1,-39.1,-607.4,1.5,21.2,-8.8,25,774.157,-51.5769,-606.884,-1.91864,-1.5422,-4.57066,
2026_07_06_17_19_38.542,3.873,37.4,0,0.764,0,0,0,0, ,0,0,0,0,0, ,788.2,-30.8,-603.8,0.4,23.9,-6.1,25,775.466,-50.5637,-606.806,-1.74383,-0.0740801,-4.74612,
2026_07_06_17_19_38.562,3.873,37.2,0,0.765,0,0,0,0, ,0,0,0,0,0, ,798.8,-36.4,-604.3,1.5,25,-5,25,776.565,-49.53,-606.638,-1.57968,1.42036,-4.7951,
2026_07_06_17_19_38.581,3.873,37.2,0,0.765,0,0,0,0, ,0,0,0,0,0, ,806.7,-37.2,-616.6,3.3,28.6,-6.1,25,778.161,-48.7542,-606.871,-1.33716,2.96693,-4.84111,
2026_07_06_17_19_38.601,3.873,37.2,0,0.766,0,0,0,0, ,0,0,0,0,0, ,822.7,-38.3,-599.1,5.5,40.4,-8,25,780.388,-48.0837,-606.93,-0.987556,4.88847,-4.97571,
2026_07_06_17_19_38.622,3.873,37.2,0,0.764,0,0,0,0, ,0,0,0,0,0, ,838.9,-33.4,-565.4,5.3,43.1,-3.2,25,783.46,-47.3382,-605.426,-0.598314,7.13472,-5.01375,
2026_07_06_17_19_38.641,3.873,37.3,0,0.765,0,0,0,0, ,0,0,0,0,0, ,833.3,-27.4,-550.1,2.1,37,-0.1,25,786.667,-46.306,-602.521,-0.336386,9.1405,-4.80877,
2026_07_06_17_19_38.662,3.873,37.2,0,0.766,0,0,0,0, ,0,0,0,0,0, ,857.5,-35.1,-543.2,2.5,38.7,-1.4,25,790.246,-45.3885,-599.116,-0.175731,10.89,-4.56144,
2026_07_06_17_19_38.681,3.873,37.2,0,0.765,0,0,0,0, ,0,0,0,0,0, ,888.6,-43.4,-561,7.3,55.5,2.3,25,795.292,-45.0145,-596.251,0.133571,13.0965,-4.25606,
2026_07_06_17_19_38.701,3.873,37.3,0,0.765,0,0,0,0, ,0,0,0,0,0, ,899.2,-48.2,-553.3,8.6,75.1,4.5,25,801.301,-45.0623,-593.869,0.609885,16.2777,-3.78952,
2026_07_06_17_19_38.721,3.873,37.3,0,0.766,0,0,0,0, ,0,0,0,0,0, ,879.3,-45.6,-492.1,8.4,98.9,4.6,25,806.661,-45.1743,-589.532,1.09069,20.5873,-3.28133,
2026_07_06_17_19_38.741,3.873,37.2,0,0.766,0,0,0,0, ,0,0,0,0,0, ,859.4,-51.3,-446.6,9.3,115.3,-3.9,25,810.481,-45.3739,-582.208,1.56352,25.8592,-3.06004,
2026_07_06_17_19_38.760,3.873,37.3,0,0.765,0,0,0,0, ,0,0,0,0,0, ,904.9,-46.6,-435.4,4.5,116.8,-3.9,25,814.848,-45.5918,-573.603,1.88871,31.3552,-3.11123,
2026_07_06_17_19_38.779,3.873,37.2,0,0.764,0,0,0,0, ,0,0,0,0,0, ,943.2,-47.8,-382.9,1.5,121.1,-0.4,25,821.503,-45.6898,-563.582,1.95643,36.693,-3.05265,
2026_07_06_17_19_38.800,3.873,37.3,0,0.764,0,0,0,0, ,0,0,0,0,0, ,925.9,-49.1,-362.6,2.5,139.4,-1.4,25,828.391,-45.858,-551.953,1.95909,42.3941,-2.92148,
2026_07_06_17_19_38.819,3.873,37.2,0,0.765,0,0,0,0, ,0,0,0,0,0, ,923.9,-54.1,-323.2,2.3,162.6,-5.5,25,834.272,-46.2079,-539.214,1.98596,49.0123,-2.95368,
2026_07_06_17_19_38.840,3.873,37.2,0,0.764,0,0,0,0, ,0,0,0,0,0, ,919.4,-48.5,-241,0.3,174.9,-11.9,25,839.597,-46.5182,-523.546,1.94415,56.3088,-3.30385,
2026_07_06_17_19_38.863,3.873,37.2,0,0.765,0,0,0,0, ,0,0,0,0,0, ,960.3,-43.4,-145.2,-2.7,173.1,-15.1,25,845.706,-46.4836,-503.409,1.75256,63.4806,-3.92518,
2026_07_06_17_19_38.879,3.873,37.2,0,0.766,0,0,0,0, ,0,0,0,0,0, ,997.1,-46,-130.3,0.7,171.5,-15.8,25,853.81,-46.3749,-481.127,1.58482,70.1118,-4.62747,
2026_07_06_17_19_38.899,3.873,37,0,0.764,0,0,0,0, ,0,0,0,0,0, ,978.8,-46.1,-100,3.3,171,-17,25,861.985,-46.3551,-458.825,1.61012,76.2749,-5.34486,
2026_07_06_17_19_38.918,3.873,37.2,0,0.765,0,0,0,0, ,0,0,0,0,0, ,951.7,-34.7,-17.7,4.6,158.6,-15.7,25,868.277,-45.9922,-434.452,1.75271,81.6694,-6.01548,
2026_07_06_17_19_38.939,3.873,37.2,0,0.764,0,0,0,0, ,0,0,0,0,0, ,962.8,-27.8,48.4,1.2,140.9,-13.5,25,873.699,-45.0939,-407.042,1.82262,85.8181,-6.5386,
2026_07_06_17_19_38.959,3.873,37.3,0,0.765,0,0,0,0, ,0,0,0,0,0, ,962.4,-24,102.4,-1.3,135.5,-12,25,879.116,-43.9243,-377.643,1.70851,89.0101,-6.91711,
2026_07_06_17_19_38.978,3.873,37,0,0.765,0,0,0,0, ,0,0,0,0,0, ,942.5,-24.6,123.9,-0.8,139.6,-13,25,883.585,-42.7284,-347.736,1.54041,91.968,-7.25732,
2026_07_06_17_19_38.997,3.873,37,0,0.765,0,0,0,0, ,0,0,0,0,0, ,891.7,-13.7,190.5,2.2,136.2,-19,25,885.628,-41.2916,-316.966,1.4892,94.767,-7.79008,
2026_07_06_17_19_39.017,3.873,37.2,0,0.765,0,0,0,0, ,0,0,0,0,0, ,870.3,-3.4,221.9,3.7,129,-23,25,885.346,-39.2964,-285.086,1.57822,97.0724,-8.59505,
2026_07_06_17_19_39.038,3.873,37.3,0,0.765,0,0,0,0, ,0,0,0,0,0, ,859.6,4.5,291.5,2,105.8,-26.8,25,884.103,-36.8683,-252.071,1.65572,98.3111,-9.58864,
2026_07_06_17_19_39.057,3.873,37,0,0.764,0,0,0,0, ,0,0,0,0,0, ,869,17.2,336.3,-1.9,86.1,-27.2,25,882.896,-33.9604,-217.582,1.55787,98.1673,-10.6496,
2026_07_06_17_19_39.077,3.873,37.2,0,0.764,0,0,0,0, ,0,0,0,0,0, ,889.4,14.7,347.4,-3.7,84.4,-29.9,25,882.671,-30.919,-183.491,1.29231,97.3801,-11.7404,
2026_07_06_17_19_39.097,3.873,37.3,0,0.765,0,0,0,0, ,0,0,0,0,0, ,893.7,15.9,355.7,-5.7,86.6,-29.3,25,883.212,-28.1025,-150.887,0.927155,96.6562,-12.8288,
2026_07_06_17_19_39.117,3.873,37.2,0,0.765,0,0,0,0, ,0,0,0,0,0, ,878.7,18.5,365.2,-3.6,80.2,-28.3,25,883.394,-25.3419,-119.728,0.587297,95.8484,-13.802,
2026_07_06_17_19_39.137,3.873,37.2,0,0.765,0,0,0,0, ,0,0,0,0,0, ,863.8,25.1,391.8,-1.7,69,-26.6,25,882.654,-22.4692,-89.3669,0.390024,94.5535,-14.6337,
2026_07_06_17_19_39.155,3.873,37.2,0,0.764,0,0,0,0, ,0,0,0,0,0, ,871.7,43,427.3,0.2,60.7,-25.6,25,881.746,-19.0251,-58.9642,0.320554,92.7435,-15.3324,
2026_07_06_17_19_39.176,3.873,37,0,0.764,0,0,0,0, ,0,0,0,0,0, ,880.3,55.9,453.9,-0.7,59.5,-25.1,25,881.396,-14.8524,-28.522,0.285786,90.7543,-15.9429,
2026_07_06_17_19_39.196,3.873,37.2,0,0.765,0,0,0,0, ,0,0,0,0,0, ,885,64.9,473.8,1,57.2,-23.3,25,881.472,-10.2667,1.48192,0.277511,88.7796,-16.446,
2026_07_06_17_19_39.216,3.873,37,0,0.765,0,0,0,0, ,0,0,0,0,0, ,867.5,71.7,490.2,3.7,49.1,-19.9,25,881.154,-5.47902,30.7635,0.403804,86.6085,-16.7601,
2026_07_06_17_19_39.236,3.873,37.2,0,0.764,0,0,0,0, ,0,0,0,0,0, ,853.6,82.3,516.7,4.4,37.2,-17.8,25,879.898,-0.452957,59.5678,0.625994,83.9602,-16.8875,
2026_07_06_17_19_39.255,3.873,37.2,0,0.764,0,0,0,0, ,0,0,0,0,0, ,970.2,96.1,540,2,29.8,-11,25,881.848,5.01027,88.1342,0.782847,80.8853,-16.7359,
2026_07_06_17_19_39.275,3.873,37.2,0,0.765,0,0,0,0, ,0,0,0,0,0, ,955.5,110.7,541.2,1.4,26.8,-5.3,25,886.784,11.0059,115.706,0.838736,77.6809,-16.2127,
2026_07_06_17_19_39.296,3.873,37.2,0,0.764,0,0,0,0, ,0,0,0,0,0, ,881.9,96.8,530.1,3.7,20.3,-3.5,25,888.729,16.6575,141.297,0.943016,74.3823,-15.4928,
2026_07_06_17_19_39.315,3.873,37.2,0,0.765,0,0,0,0, ,0,0,0,0,0, ,838.2,96.1,558.1,4.2,16.8,-3.4,25,886.982,21.5198,165.842,1.12625,70.98,-14.759,
2026_07_06_17_19_39.335,3.873,36.9,0,0.764,0,0,0,0, ,0,0,0,0,0, ,798.9,93.9,576,1.9,11.8,-3.3,25,882.812,25.9975,190.291,1.24348,67.5261,-14.0637,
2026_07_06_17_19_39.353,3.873,37,0,0.765,0,0,0,0, ,0,0,0,0,0, ,786.3,92.1,570.4,0.5,8.9,-3.9,25,877.314,30.0805,213.625,1.24083,64.0419,-13.4261,
2026_07_06_17_19_39.374,3.873,37,0,0.765,0,0,0,0, ,0,0,0,0,0, ,810.6,89.7,557.8,0.1,7.7,-4.3,25,872.508,33.7867,234.982,1.1835,60.6451,-12.8578,
2026_07_06_17_19_39.397,3.873,37,0,0.765,0,0,0,0, ,0,0,0,0,0, ,835.3,90.3,543.3,-0.3,6.8,-3.3,25,869.489,37.2122,254.212,1.10529,57.3914,-12.3058,
2026_07_06_17_19_39.416,3.873,37,0,0.764,0,0,0,0, ,0,0,0,0,0, ,841,86.7,545.2,0.9,4.8,-2.9,25,867.579,40.3375,271.886,1.05622,54.2475,-11.7449,
2026_07_06_17_19_39.433,3.873,37.2,0,0.764,0,0,0,0, ,0,0,0,0,0, ,831.7,86.7,547.1,2.5,3.9,-2.7,25,865.676,43.1627,288.599,1.09545,51.2069,-11.1998,
2026_07_06_17_19_39.452,3.873,37.2,0,0.765,0,0,0,0, ,0,0,0,0,0, ,818.7,91.3,557.6,2.6,3.5,-2.5,25,863.209,45.956,304.671,1.18408,48.3119,-10.6757,
2026_07_06_17_19_39.474,3.873,37,0,0.765,0,0,0,0, ,0,0,0,0,0, ,824,96.8,564.5,0.9,0.6,-2.7,25,860.659,48.8867,320.294,1.21857,45.4928,-10.1836,
2026_07_06_17_19_39.493,3.873,37,0,0.764,0,0,0,0, ,0,0,0,0,0, ,821,94.3,560.1,-0.6,-1.3,-2.5,25,858.333,51.7302,335.041,1.15345,42.6993,-9.72149,
2026_07_06_17_19_39.512,3.873,37,0,0.765,0,0,0,0, ,0,0,0,0,0, ,821.1,91.5,539.6,-1.1,-1.1,-2.4,25,856.061,54.239,348.131,1.03137,40.0242,-9.27838,
2026_07_06_17_19_39.532,3.873,37,0,0.764,0,0,0,0, ,0,0,0,0,0, ,820,94.2,541,-0.1,0.4,-2.4,25,853.897,56.5919,359.842,0.931956,37.5639,-8.85923,
2026_07_06_17_19_39.552,3.873,37,0,0.765,0,0,0,0, ,0,0,0,0,0, ,815.1,95.4,558.3,-0.8,-0.5,-2.8,25,851.682,58.9202,371.408,0.847743,35.2718,-8.47781,
2026_07_06_17_19_39.572,3.873,37,0,0.765,0,0,0,0, ,0,0,0,0,0, ,821.6,92.8,559.2,-1.3,-2.2,-2.3,25,849.651,61.064,382.824,0.732099,33.0401,-8.11658,
2026_07_06_17_19_39.592,3.873,37,0,0.764,0,0,0,0, ,0,0,0,0,0, ,820.9,94.7,549.6,-2.5,-2.2,-2.5,25,847.921,63.0558,393.28,0.571706,30.8927,-7.76823,
2026_07_06_17_19_39.612,3.873,36.9,0,0.765,0,0,0,0, ,0,0,0,0,0, ,834.4,91,531,-1.5,-1.3,-1.8,25,846.685,64.8713,402.239,0.414992,28.9035,-7.42587,
2026_07_06_17_19_39.631,3.873,37,0,0.765,0,0,0,0, ,0,0,0,0,0, ,824.4,94.7,539.4,-0.1,0.1,-1.8,25,845.632,66.5763,410.341,0.340954,27.1057,-7.08304,
2026_07_06_17_19_39.652,3.873,37,0,0.764,0,0,0,0, ,0,0,0,0,0, ,820.8,96.5,548.4,0,0.6,-2,25,844.228,68.3449,418.48,0.31713,25.4752,-6.7672,
2026_07_06_17_19_39.670,3.873,37,0,0.764,0,0,0,0, ,0,0,0,0,0, ,824.2,97.6,558.5,-1.2,-0.5,-2.3,25,842.904,70.0941,426.704,0.261242,23.9259,-6.48584,
2026_07_06_17_19_39.691,3.873,37,0,0.765,0,0,0,0, ,0,0,0,0,0, ,823.3,93.8,555.1,-1.1,-1.2,-1.8,25,841.737,71.6545,434.632,0.175245,22.4161,-6.21553,
2026_07_06_17_19_39.711,3.873,37,0,0.765,0,0,0,0, ,0,0,0,0,0, ,817.9,88.8,554.5,-1.3,-2,-1.9,25,840.449,72.8516,441.955,0.0914408,20.9526,-5.94951,
2026_07_06_17_19_39.730,3.873,37,0,0.765,0,0,0,0, ,0,0,0,0,0, ,817.3,95,544.4,-0.9,-1.7,-1.9,25,839.057,74.0124,448.505,0.0188374,19.5631,-5.70274,
2026_07_06_17_19_39.750,3.873,37,0,0.765,0,0,0,0, ,0,0,0,0,0, ,823.4,91.7,547.6,-1.2,-1.4,-2.6,25,837.917,75.1908,454.446,-0.0462949,18.2765,-5.49234,
2026_07_06_17_19_39.769,3.873,37,0,0.765,0,0,0,0, ,0,0,0,0,0, ,827.1,94.6,552,-1.3,-1.7,-2.3,25,837.145,76.2852,460.257,-0.119646,17.0683,-5.30695,
2026_07_06_17_19_39.790,3.873,36.9,0,0.763,0,0,0,0, ,0,0,0,0,0, ,826,94.1,551.6,-1.9,-3.3,-2.1,25,836.499,77.386,465.835,-0.209855,15.8759,-5.11762,
2026_07_06_17_19_39.810,3.873,37,0,0.764,0,0,0,0, ,0,0,0,0,0, ,824.3,92.6,537.8,-1.8,-3.2,-2.1,25,835.808,78.3588,470.641,-0.309801,14.7104,-4.93373,
2026_07_06_17_19_39.829,3.873,36.9,0,0.765,0,0,0,0, ,0,0,0,0,0, ,823.6,92.6,536,-1.4,-2,-2.3,25,835.085,79.2266,474.679,-0.388423,13.6556,-4.76714,
2026_07_06_17_19_39.850,3.873,36.9,0,0.764,0,0,0,0, ,0,0,0,0,0, ,827.7,93.7,542.2,-1,-1.2,-2.2,25,834.51,80.0751,478.605,-0.437878,12.7259,-4.61376,
2026_07_06_17_19_39.869,3.873,37,0,0.765,0,0,0,0, ,0,0,0,0,0, ,826.7,94.7,544.1,-0.6,-0.9,-1.8,25,834.065,80.9358,482.538,-0.459945,11.8864,-4.45448,
2026_07_06_17_19_39.890,3.873,37,0,0.765,0,0,0,0, ,0,0,0,0,0, ,823.1,93.3,544.9,-1.5,-1.5,-2.2,25,833.506,81.7319,486.314,-0.495901,11.089,-4.30491,
2026_07_06_17_19_39.909,3.873,36.9,0,0.765,0,0,0,0, ,0,0,0,0,0, ,823.8,92.5,546.7,-1.9,-1.1,-2.7,25,832.893,82.4125,489.939,-0.569276,10.334,-4.19188,
2026_07_06_17_19_39.928,3.873,37,0,0.764,0,0,0,0, ,0,0,0,0,0, ,827.3,96.6,542.3,-1.7,-1.6,-2.7,25,832.446,83.1521,493.263,-0.644273,9.62204,-4.10097,
2026_07_06_17_19_39.948,3.873,36.9,0,0.764,0,0,0,0, ,0,0,0,0,0, ,832.2,95.4,543.9,-1.1,-0.9,-2.2,25,832.282,83.935,496.3,-0.690325,8.95953,-4.00036,
2026_07_06_17_19_39.968,3.873,36.9,0,0.765,0,0,0,0, ,0,0,0,0,0, ,824.9,95.2,542.1,-0.9,-1.5,-1.8,25,832.054,84.6276,499.146,-0.709196,8.34043,-3.87846,
2026_07_06_17_19_39.991,3.873,37,0,0.765,0,0,0,0, ,0,0,0,0,0, ,822.1,92.7,538.5,-1.4,-1,-2.3,25,831.533,85.1957,501.654,-0.736058,7.75601,-3.76704,
2026_07_06_17_19_40.012,3.873,36.8,0,0.764,0,0,0,0, ,0,0,0,0,0, ,822.6,93.6,543.5,-0.7,0.1,-2.4,25,830.973,85.6804,504.052,-0.755189,7.25596,-3.68069,
2026_07_06_17_19_40.027,3.873,37,0,0.763,0,0,0,0, ,0,0,0,0,0, ,826.9,98.9,552.8,-1.6,-1.4,-2.7,25,830.594,86.3245,506.739,-0.779247,6.77419,-3.61179,
2026_07_06_17_19_40.047,3.873,36.9,0,0.764,0,0,0,0, ,0,0,0,0,0, ,831.6,92.7,538.2,-1.8,-1.7,-2.3,25,830.512,86.9019,509.101,-0.835356,6.26694,-3.54404,
2026_07_06_17_19_40.066,3.873,37,0,0.765,0,0,0,0, ,0,0,0,0,0, ,828.2,92.2,543.8,-1.3,-1.9,-1.9,25,830.475,87.24,511.045,-0.878904,5.77536,-3.45604,
2026_07_06_17_19_40.088,3.873,36.9,0,0.767,0,0,0,0, ,0,0,0,0,0, ,819.8,93.6,541.6,-1.1,-1.8,-1.8,25,830.08,87.5849,512.974,-0.898471,5.31069,-3.35817,
2026_07_06_17_19_40.107,3.873,37,0,0.764,0,0,0,0, ,0,0,0,0,0, ,826,92,531.9,-0.9,-1.1,-1.6,25,829.643,87.9027,514.423,-0.904658,4.89871,-3.25713,
2026_07_06_17_19_40.127,3.873,36.9,0,0.764,0,0,0,0, ,0,0,0,0,0, ,832.8,98,536,-0.3,1,-1.4,25,829.628,88.3352,515.612,-0.886093,4.59715,-3.15005,
2026_07_06_17_19_40.145,3.873,37,0,0.764,0,0,0,0, ,0,0,0,0,0, ,827.3,95.4,554.9,-1,-1,-1.3,25,829.654,88.8449,517.431,-0.871706,4.31701,-3.04036,
2026_07_06_17_19_40.166,3.873,36.9,0,0.765,0,0,0,0, ,0,0,0,0,0, ,822.5,91,537.1,-2.3,-1.7,-2,25,829.364,89.1103,519.172,-0.919133,3.97167,-2.95564,
2026_07_06_17_19_40.186,3.873,36.8,0,0.764,0,0,0,0, ,0,0,0,0,0, ,823.9,90.4,538.6,-1.6,-0.9,-2.2,25,828.988,89.2072,520.31,-0.981952,3.65043,-2.9035,
2026_07_06_17_19_40.206,3.873,36.9,0,0.764,0,0,0,0, ,0,0,0,0,0, ,825.5,92.8,544.1,-1.1,-0.1,-2.2,25,828.727,89.353,521.592,-1.00438,3.39751,-2.86063,
2026_07_06_17_19_40.225,3.873,36.9,0,0.764,0,0,0,0, ,0,0,0,0,0, ,827.8,95.7,543.9,-1.3,-1.2,-2.3,25,828.601,89.6514,522.957,-1.0163,3.15087,-2.82342,
2026_07_06_17_19_40.246,3.873,36.9,0,0.764,0,0,0,0, ,0,0,0,0,0, ,828.3,93.9,543.5,-1.4,-0.9,-2.2,25,828.567,89.9651,524.221,-1.03664,2.89488,-2.78848,
2026_07_06_17_19_40.268,3.873,36.9,0,0.764,0,0,0,0, ,0,0,0,0,0, ,829.4,96,541.8,-1.1,-1,-2.2,25,828.584,90.2689,525.344,-1.04964,2.66058,-2.75262,
2026_07_06_17_19_40.290,3.873,36.9,0,0.764,0,0,0,0, ,0,0,0,0,0, ,830.4,94.9,543.2,-1.4,-1.6,-2.2,25,828.664,90.5846,526.39,-1.06185,2.41923,-2.71894,
2026_07_06_17_19_40.304,3.873,36.9,0,0.764,0,0,0,0, ,0,0,0,0,0, ,828.9,90.2,528.9,-1.7,-1.5,-2.3,25,828.724,90.7044,526.979,-1.09159,2.17736,-2.69036,
2026_07_06_17_19_40.326,3.873,36.9,0,0.765,0,0,0,0, ,0,0,0,0,0, ,827.6,93.5,537.1,-1.4,-0.6,-2.5,25,828.696,90.7742,527.345,-1.11953,1.98069,-2.67267,
2026_07_06_17_19_40.344,3.873,36.9,0,0.764,0,0,0,0, ,0,0,0,0,0, ,823.2,95.9,542.9,-1.3,-0.6,-2.5,25,828.495,91.0134,528.117,-1.13357,1.82343,-2.66215,
2026_07_06_17_19_40.363,3.873,36.9,0,0.765,0,0,0,0, ,0,0,0,0,0, ,824.8,95.7,545.8,-1.5,-0.5,-2.1,25,828.221,91.3051,529.106,-1.14981,1.6788,-2.64008,
2026_07_06_17_19_40.383,3.873,37,0,0.766,0,0,0,0, ,0,0,0,0,0, ,827.8,89.3,529,-1.7,0,-2.3,25,828.104,91.3779,529.611,-1.17724,1.56126,-2.61326,
2026_07_06_17_19_40.404,3.873,36.9,0,0.764,0,0,0,0, ,0,0,0,0,0, ,832.8,93.5,537.8,-0.8,1.7,-2.3,25,828.238,91.3793,529.842,-1.18167,1.51792,-2.59417,
2026_07_06_17_19_40.422,3.873,36.9,0,0.764,0,0,0,0, ,0,0,0,0,0, ,834.4,91.9,537.2,-0.3,1.5,-2.1,25,828.564,91.4597,530.309,-1.14318,1.52292,-2.57015,
2026_07_06_17_19_40.442,3.873,36.9,0,0.765,0,0,0,0, ,0,0,0,0,0, ,825.9,94.3,547.4,0,1.1,-2,25,828.661,91.5597,531.04,-1.08266,1.50934,-2.53846,
2026_07_06_17_19_40.463,3.873,36.9,0,0.764,0,0,0,0, ,0,0,0,0,0, ,820,93.8,544.1,-0.4,0.6,-2.2,25,828.313,91.7115,531.936,-1.02887,1.46916,-2.51174,
2026_07_06_17_19_40.482,3.873,36.9,0,0.764,0,0,0,0, ,0,0,0,0,0, ,825.4,95.8,544.6,-0.6,0.6,-2.3,25,827.971,91.8997,532.692,-0.996645,1.4162,-2.49579,
2026_07_06_17_19_40.503,3.873,36.9,0,0.765,0,0,0,0, ,0,0,0,0,0, ,825.5,96.8,543.4,-0.9,0,-2.1,25,827.817,92.1678,533.381,-0.981615,1.34818,-2.47776,
2026_07_06_17_19_40.523,3.873,36.9,0,0.765,0,0,0,0, ,0,0,0,0,0, ,825.6,96.5,551.1,-1.4,-0.7,-2,25,827.679,92.4409,534.227,-0.991876,1.24469,-2.4517,
2026_07_06_17_19_40.542,3.873,36.9,0,0.765,0,0,0,0, ,0,0,0,0,0, ,826.1,91.1,539.5,-1.6,-1.4,-2,25,827.568,92.5238,534.901,-1.02284,1.10486,-2.42417,
2026_07_06_17_19_40.562,3.873,37,0,0.764,0,0,0,0, ,0,0,0,0,0, ,825.5,92.1,534,-0.8,0.2,-2.4,25,827.46,92.4675,535.014,-1.03364,1.00097,-2.41051,
2026_07_06_17_19_40.582,3.873,36.9,0,0.764,0,0,0,0, ,0,0,0,0,0, ,827,93.9,545,-0.9,0.5,-2.6,25,827.386,92.4999,535.287,-1.02245,0.961303,-2.41596,
2026_07_06_17_19_40.602,3.873,36.9,0,0.764,0,0,0,0, ,0,0,0,0,0, ,824.9,98.3,545.1,-0.5,0.7,-2.4,25,827.299,92.7193,535.882,-1.0028,0.939286,-2.42109,
2026_07_06_17_19_40.621,3.873,36.9,0,0.765,0,0,0,0, ,0,0,0,0,0, ,821.1,101.6,555,-1.1,-0.5,-2.1,25,827.037,93.1599,536.746,-0.990438,0.888142,-2.41066,
2026_07_06_17_19_40.642,3.873,36.9,0,0.764,0,0,0,0, ,0,0,0,0,0, ,823.2,94.2,544.4,-1.7,-1,-1.7,25,826.739,93.4488,537.535,-1.0154,0.788318,-2.37954,
2026_07_06_17_19_40.661,3.873,36.8,0,0.764,0,0,0,0, ,0,0,0,0,0, ,825.3,93.3,549.1,-1.8,-1.5,-2,25,826.587,93.4671,538.097,-1.06016,0.664108,-2.34727,
2026_07_06_17_19_40.683,3.873,36.8,0,0.763,0,0,0,0, ,0,0,0,0,0, ,825.4,91.7,545.5,-1.8,-1.8,-2,25,826.512,93.4082,538.657,-1.10524,0.523092,-2.32611,
2026_07_06_17_19_40.700,3.873,36.8,0,0.765,0,0,0,0, ,0,0,0,0,0, ,828,92.4,523,-0.9,-0.4,-2.1,25,826.523,93.3254,538.389,-1.12016,0.424185,-2.30929,
2026_07_06_17_19_40.721,3.873,36.8,0,0.764,0,0,0,0, ,0,0,0,0,0, ,827.8,96.9,549.6,-0.4,0.7,-2.2,25,826.607,93.4061,538.262,-1.09151,0.407477,-2.29958,
2026_07_06_17_19_40.740,3.873,36.8,0,0.765,0,0,0,0, ,0,0,0,0,0, ,828.6,98.2,546.3,-1.6,-1,-2.3,25,826.704,93.6587,538.852,-1.08593,0.373505,-2.29656,
2026_07_06_17_19_40.760,3.873,36.9,0,0.764,0,0,0,0, ,0,0,0,0,0, ,825.6,94.9,547.2,-2.1,-1.7,-2.3,25,826.728,93.8348,539.333,-1.13249,0.268479,-2.29677,
2026_07_06_17_19_40.780,3.873,36.9,0,0.764,0,0,0,0, ,0,0,0,0,0, ,824,87.8,529.7,-2.2,-1.3,-2.3,25,826.611,93.6834,539.279,-1.1945,0.160713,-2.29696,
2026_07_06_17_19_40.800,3.873,36.8,0,0.764,0,0,0,0, ,0,0,0,0,0, ,824.5,92.2,544.3,-0.6,1.2,-2.2,25,826.467,93.459,539.141,-1.20702,0.147872,-2.2941,
2026_07_06_17_19_40.819,3.873,36.8,0,0.765,0,0,0,0, ,0,0,0,0,0, ,826.5,94.9,543.4,-0.8,0,-2.2,25,826.408,93.4645,539.427,-1.17612,0.175424,-2.28837,
2026_07_06_17_19_40.841,3.873,36.9,0,0.764,0,0,0,0, ,0,0,0,0,0, ,826.2,96.1,551.6,-1.2,0.1,-2.4,25,826.405,93.5886,539.919,-1.16539,0.167781,-2.28908,
2026_07_06_17_19_40.858,3.873,36.8,0,0.764,0,0,0,0, ,0,0,0,0,0, ,822.3,95.9,546.6,-1.7,-1.8,-2.4,25,826.273,93.7355,540.479,-1.18273,0.10576,-2.29584,
2026_07_06_17_19_40.881,3.873,36.9,0,0.765,0,0,0,0, ,0,0,0,0,0, ,820.8,92.8,539.4,-1.4,-0.6,-2.3,25,825.985,93.7729,540.632,-1.20511,0.0261901,-2.29914,
2026_07_06_17_19_40.897,3.873,36.8,0,0.764,0,0,0,0, ,0,0,0,0,0, ,825.3,98.2,550,-1.8,-1.3,-2.4,25,825.807,93.8782,540.88,-1.22918,-0.0332965,-2.30224,
2026_07_06_17_19_40.919,3.873,36.8,0,0.763,0,0,0,0, ,0,0,0,0,0, ,828.7,93.6,532.3,-1.8,-1.4,-2.2,25,825.879,94.0014,540.897,-1.26396,-0.113533,-2.3021,
2026_07_06_17_19_40.937,3.873,36.8,0,0.765,0,0,0,0, ,0,0,0,0,0, ,828.4,93.2,543.8,-1,0,-2.2,25,826.042,93.9647,540.723,-1.27225,-0.149271,-2.29588,
2026_07_06_17_19_40.958,3.873,36.8,0,0.764,0,0,0,0, ,0,0,0,0,0, ,821.8,97.1,548.4,-1.2,-1.1,-2.1,25,825.985,94.037,541.051,-1.26176,-0.17369,-2.28699,
2026_07_06_17_19_40.978,3.873,36.8,0,0.765,0,0,0,0, ,0,0,0,0,0, ,821.5,95,537.7,-1.5,-1.4,-2.2,25,825.72,94.1596,541.173,-1.26713,-0.239278,-2.27864,
2026_07_06_17_19_40.999,3.873,36.8,0,0.765,0,0,0,0, ,0,0,0,0,0, ,826.2,98.9,548.3,-1.6,-0.7,-2.2,25,825.607,94.3297,541.284,-1.28437,-0.288681,-2.27385,
2026_07_06_17_19_41.017,3.873,36.8,0,0.765,0,0,0,0, ,0,0,0,0,0, ,829.7,95.7,530.3,-1.3,-1,-1.6,25,825.749,94.5107,541.163,-1.29446,-0.322887,-2.25107,
2026_07_06_17_19_41.039,3.873,36.8,0,0.764,0,0,0,0, ,0,0,0,0,0, ,826.1,95.3,540.5,-0.9,0,-1.6,25,825.88,94.571,540.812,-1.28261,-0.33368,-2.21139,
2026_07_06_17_19_41.056,3.873,36.7,0,0.765,0,0,0,0, ,0,0,0,0,0, ,821.1,93.9,553.1,-0.9,-1.7,-1.3,25,825.741,94.5727,541.177,-1.2593,-0.365143,-2.165,
2026_07_06_17_19_41.079,3.873,36.9,0,0.765,0,0,0,0, ,0,0,0,0,0, ,820.6,93.3,542.1,-1.9,-2.2,-2,25,825.443,94.5135,541.568,-1.26787,-0.46172,-2.13361,
2026_07_06_17_19_41.096,3.873,36.8,0,0.762,0,0,0,0, ,0,0,0,0,0, ,831.2,94.1,536.9,-2.1,-1.6,-2.3,25,825.471,94.4639,541.442,-1.31249,-0.549365,-2.13461,
2026_07_06_17_19_41.118,3.873,36.8,0,0.764,0,0,0,0, ,0,0,0,0,0, ,833.8,93.5,539.4,-1.9,-1.7,-2.3,25,825.899,94.4234,541.242,-1.35438,-0.616435,-2.14469,
2026_07_06_17_19_41.135,3.873,36.8,0,0.763,0,0,0,0, ,0,0,0,0,0, ,827.3,88.9,527.2,-0.9,0,-1.9,25,826.183,94.227,540.758,-1.35716,-0.630668,-2.14197,
2026_07_06_17_19_41.157,3.873,36.7,0,0.764,0,0,0,0, ,0,0,0,0,0, ,825.4,94.7,543,0,1.8,-2.1,25,826.193,94.0791,540.413,-1.30188,-0.537393,-2.13332,
2026_07_06_17_19_41.175,3.873,36.8,0,0.764,0,0,0,0, ,0,0,0,0,0, ,826.1,94.8,542.8,-0.3,0.7,-2,25,826.166,94.12,540.564,-1.23169,-0.428474,-2.12824,
2026_07_06_17_19_41.197,3.873,36.7,0,0.764,0,0,0,0, ,0,0,0,0,0, ,827.6,94.7,545.6,-0.7,0.8,-2.5,25,826.208,94.1584,540.786,-1.1871,-0.35666,-2.13566,
2026_07_06_17_19_41.214,3.873,36.8,0,0.764,0,0,0,0, ,0,0,0,0,0, ,825.6,95.2,552.9,-1.7,-0.7,-2.7,25,826.232,94.2066,541.302,-1.18789,-0.33188,-2.16395,
2026_07_06_17_19_41.236,3.873,36.7,0,0.766,0,0,0,0, ,0,0,0,0,0, ,822.9,98,542.7,-1.7,-1.1,-2.4,25,826.111,94.3525,541.698,-1.21909,-0.366499,-2.18748,
2026_07_06_17_19_41.254,3.873,36.9,0,0.764,0,0,0,0, ,0,0,0,0,0, ,822.5,97.1,542.6,-0.9,-0.2,-1.9,25,825.903,94.5473,541.756,-1.22402,-0.383775,-2.1852,
2026_07_06_17_19_41.277,3.873,36.8,0,0.764,0,0,0,0, ,0,0,0,0,0, ,825.6,97.2,546.7,-1.1,-1,-1.9,25,825.79,94.7059,541.932,-1.21037,-0.396951,-2.16782,
2026_07_06_17_19_41.294,3.873,36.8,0,0.765,0,0,0,0, ,0,0,0,0,0, ,827.6,93.8,539.7,-1.5,-1.4,-2.1,25,825.839,94.7543,542.009,-1.21583,-0.445887,-2.15759,
2026_07_06_17_19_41.315,3.873,36.6,0,0.765,0,0,0,0, ,0,0,0,0,0, ,832.3,93.6,534.9,-1.2,-1,-1.9,25,826.09,94.6901,541.722,-1.22401,-0.491841,-2.14799,
2026_07_06_17_19_41.333,3.873,36.8,0,0.766,0,0,0,0, ,0,0,0,0,0, ,826.4,91.6,531.3,-1,-0.5,-1.8,25,826.289,94.5627,541.197,-1.21645,-0.507573,-2.12983,
2026_07_06_17_19_41.357,3.873,36.9,0,0.764,0,0,0,0, ,0,0,0,0,0, ,824.9,93.7,541.5,-0.8,0.6,-2.3,25,826.25,94.4461,540.905,-1.19717,-0.473595,-2.12496,
2026_07_06_17_19_41.373,3.873,36.7,0,0.765,0,0,0,0, ,0,0,0,0,0, ,827.5,96.6,546.9,-0.8,0,-2,25,826.247,94.489,541.106,-1.17297,-0.426454,-2.12649,
2026_07_06_17_19_41.396,3.873,36.7,0,0.766,0,0,0,0, ,0,0,0,0,0, ,830.2,94.8,545.7,-1.1,-1.3,-1.9,25,826.405,94.5628,541.422,-1.15938,-0.440077,-2.11573,
2026_07_06_17_19_41.412,3.873,36.8,0,0.765,0,0,0,0, ,0,0,0,0,0, ,826.1,94.3,544.9,-1.2,-1.8,-1.8,25,826.512,94.562,541.658,-1.15881,-0.507713,-2.09954,
2026_07_06_17_19_41.435,3.873,36.9,0,0.765,0,0,0,0, ,0,0,0,0,0, ,820.3,90.5,533.4,-1.2,-1.6,-2,25,826.31,94.4303,541.506,-1.16132,-0.580368,-2.08738,
2026_07_06_17_19_41.452,3.873,36.8,0,0.764,0,0,0,0, ,0,0,0,0,0, ,822.9,93.8,540.4,-1.2,-0.3,-2.4,25,826.023,94.2913,541.225,-1.16368,-0.602892,-2.09424,
2026_07_06_17_19_41.475,3.873,36.8,0,0.765,0,0,0,0, ,0,0,0,0,0, ,830.9,95.9,541.9,-1.1,-0.5,-2,25,826.076,94.3254,541.22,-1.16284,-0.590528,-2.10069,
2026_07_06_17_19_41.492,3.873,36.8,0,0.763,0,0,0,0, ,0,0,0,0,0, ,832.6,97,546.2,-1.5,-1.4,-1.8,25,826.422,94.4549,541.393,-1.1712,-0.612434,-2.08846,
2026_07_06_17_19_41.515,3.873,36.7,0,0.765,0,0,0,0, ,0,0,0,0,0, ,825,97,539,-1.4,-1.7,-2,25,826.567,94.6099,541.466,-1.18819,-0.669567,-2.07698,
2026_07_06_17_19_41.531,3.873,36.8,0,0.765,0,0,0,0, ,0,0,0,0,0, ,823.4,95.4,535.4,-1.1,-0.6,-2,25,826.423,94.7068,541.206,-1.19196,-0.698843,-2.07228,
2026_07_06_17_19_41.556,3.873,36.8,0,0.764,0,0,0,0, ,0,0,0,0,0, ,827.1,94.3,544.4,-1,-0.5,-2.1,25,826.351,94.7156,541.127,-1.18331,-0.689773,-2.07093,
2026_07_06_17_19_41.571,3.873,36.7,0,0.764,0,0,0,0, ,0,0,0,0,0, ,823.7,94.6,544.5,-1.1,0,-1.6,25,826.293,94.6994,541.329,-1.17518,-0.662974,-2.05746,
2026_07_06_17_19_41.593,3.873,36.7,0,0.765,0,0,0,0, ,0,0,0,0,0, ,825.9,93,550,-1.3,-1.6,-1.8,25,826.202,94.6446,541.69,-1.17669,-0.671324,-2.03568,
2026_07_06_17_19_41.611,3.873,36.9,0,0.764,0,0,0,0, ,0,0,0,0,0, ,828.8,92,538.4,-1.8,-1.4,-2.3,25,826.272,94.5139,541.843,-1.19944,-0.721822,-2.03655,
2026_07_06_17_19_41.634,3.873,36.7,0,0.764,0,0,0,0, ,0,0,0,0,0, ,832.5,93.7,535.6,-1.6,-1.2,-2.6,25,826.539,94.4125,541.548,-1.22995,-0.757054,-2.06175,
2026_07_06_17_19_41.650,3.873,36.9,0,0.765,0,0,0,0, ,0,0,0,0,0, ,830.3,93.6,527.9,-0.5,0.2,-2.3,25,826.835,94.366,540.951,-1.21898,-0.74139,-2.08541,
2026_07_06_17_19_41.674,3.873,36.8,0,0.765,0,0,0,0, ,0,0,0,0,0, ,824.8,95.5,543,-0.3,1,-2.5,25,826.879,94.3772,540.616,-1.16907,-0.659649,-2.10458,
2026_07_06_17_19_41.689,3.873,36.6,0,0.764,0,0,0,0, ,0,0,0,0,0, ,822.5,95.3,538.4,-0.7,1.2,-2.2,25,826.682,94.4396,540.621,-1.1283,-0.552421,-2.11953,
2026_07_06_17_19_41.712,3.873,36.8,0,0.765,0,0,0,0, ,0,0,0,0,0, ,826.2,97.7,551.5,-0.8,1.1,-2.3,25,826.54,94.5651,540.885,-1.10525,-0.448679,-2.12748,
2026_07_06_17_19_41.729,3.873,36.7,0,0.764,0,0,0,0, ,0,0,0,0,0, ,827.8,97,552.1,-1.1,0,-2.3,25,826.568,94.7348,541.55,-1.09579,-0.387822,-2.138,
2026_07_06_17_19_41.752,3.873,36.8,0,0.765,0,0,0,0, ,0,0,0,0,0, ,828.3,92.7,539.9,-1.2,-0.7,-2.4,25,826.658,94.7418,541.821,-1.09909,-0.385518,-2.15091,
2026_07_06_17_19_41.768,3.873,36.6,0,0.765,0,0,0,0, ,0,0,0,0,0, ,822.3,94.2,545.6,-0.9,-0.1,-2.4,25,826.575,94.6631,541.878,-1.0961,-0.3864,-2.16609,
2026_07_06_17_19_41.792,3.873,36.7,0,0.765,0,0,0,0, ,0,0,0,0,0, ,823.9,98,542.1,-0.9,-0.3,-2.3,25,826.364,94.7507,541.998,-1.08415,-0.375041,-2.1773,
2026_07_06_17_19_41.808,3.873,36.7,0,0.765,0,0,0,0, ,0,0,0,0,0, ,825,97.5,548.8,-1.1,-0.8,-2.2,25,826.247,94.9335,542.208,-1.07902,-0.385703,-2.18173,
2026_07_06_17_19_41.831,3.873,36.7,0,0.765,0,0,0,0, ,0,0,0,0,0, ,827.6,94.1,539,-1.7,-1.3,-2.1,25,826.25,94.9863,542.311,-1.09858,-0.426183,-2.1798,
2026_07_06_17_19_41.847,3.873,36.8,0,0.765,0,0,0,0, ,0,0,0,0,0, ,829.9,96.8,541.9,-1.4,-1.2,-2.1,25,826.403,95.0145,542.198,-1.12609,-0.476385,-2.17493,
2026_07_06_17_19_41.872,3.873,36.8,0,0.764,0,0,0,0, ,0,0,0,0,0, ,823.8,96.9,538.9,-1.2,-1.4,-1.7,25,826.43,95.1264,542.088,-1.13669,-0.526574,-2.15818,
2026_07_06_17_19_41.888,3.873,36.8,0,0.765,0,0,0,0, ,0,0,0,0,0, ,824.4,96,539.6,-0.9,-0.5,-2,25,826.288,95.207,541.915,-1.13141,-0.552376,-2.1394,
2026_07_06_17_19_41.912,3.873,36.8,0,0.765,0,0,0,0, ,0,0,0,0,0, ,829.4,96.5,542.4,-0.8,-0.3,-1.7,25,826.325,95.2706,541.86,-1.11426,-0.543091,-2.12177,
2026_07_06_17_19_41.927,3.873,36.8,0,0.764,0,0,0,0, ,0,0,0,0,0, ,830.9,97.6,543.8,-1,-1,-1.8,25,826.558,95.379,541.935,-1.1012,-0.549606,-2.09911,
2026_07_06_17_19_41.951,3.873,36.7,0,0.765,0,0,0,0, ,0,0,0,0,0, ,824.7,95,546.7,-1.4,-1.5,-1.7,25,826.634,95.4351,542.137,-1.10722,-0.592286,-2.07784,
2026_07_06_17_19_41.968,3.873,36.7,0,0.765,0,0,0,0, ,0,0,0,0,0, ,823.7,91.6,534.6,-1.5,-1.7,-1.9,25,826.486,95.305,542.046,-1.12811,-0.653694,-2.06091,
2026_07_06_17_19_41.992,3.873,36.7,0,0.765,0,0,0,0, ,0,0,0,0,0, ,828.9,93.3,539.3,-1.2,-0.4,-2.3,25,826.474,95.1311,541.736,-1.14163,-0.677843,-2.06329,
2026_07_06_17_19_42.007,3.873,36.6,0,0.765,0,0,0,0, ,0,0,0,0,0, ,831.6,97.2,543.9,-1.2,-1.4,-1.8,25,826.704,95.1383,541.728,-1.14519,-0.691381,-2.06248,
2026_07_06_17_19_42.029,3.873,36.7,0,0.764,0,0,0,0, ,0,0,0,0,0, ,824.9,95.4,542.1,-1.5,-1.4,-1.8,25,826.799,95.2091,541.805,-1.15767,-0.734563,-2.04648,
2026_07_06_17_19_42.046,3.873,36.7,0,0.763,0,0,0,0, ,0,0,0,0,0, ,824.4,94.7,544.6,-1.5,-1.6,-2,25,826.668,95.1994,541.899,-1.17853,-0.781206,-2.03756,
2026_07_06_17_19_42.070,3.873,36.7,0,0.765,0,0,0,0, ,0,0,0,0,0, ,823.3,94.6,540.4,-1.5,-1.6,-2.1,25,826.496,95.1659,541.936,-1.19812,-0.831102,-2.03832,
2026_07_06_17_19_42.086,3.873,36.6,0,0.764,0,0,0,0, ,0,0,0,0,0, ,830.4,96.3,535.4,-1.5,-1.1,-2.1,25,826.518,95.1832,541.69,-1.21652,-0.862722,-2.04207,
2026_07_06_17_19_42.108,3.873,36.7,0,0.765,0,0,0,0, ,0,0,0,0,0, ,833.7,95.7,541.3,-1.6,-1.7,-2,25,826.855,95.233,541.486,-1.23684,-0.895462,-2.04256,
2026_07_06_17_19_42.127,3.873,36.7,0,0.763,0,0,0,0, ,0,0,0,0,0, ,827.6,94.8,536.6,-1.4,-1.6,-2,25,827.086,95.234,541.332,-1.25287,-0.941442,-2.03996,
2026_07_06_17_19_42.150,3.873,36.6,0,0.765,0,0,0,0, ,0,0,0,0,0, ,825,93.2,536.3,-1.2,-0.8,-2,25,827.038,95.1588,541.034,-1.25575,-0.957198,-2.03753,
2026_07_06_17_19_42.165,3.873,36.8,0,0.765,0,0,0,0, ,0,0,0,0,0, ,825.6,95.3,535,-0.7,0.1,-2,25,826.932,95.1035,540.706,-1.23711,-0.920197,-2.03524,
2026_07_06_17_19_42.189,3.873,36.7,0,0.764,0,0,0,0, ,0,0,0,0,0, ,832.7,98.2,543.7,-0.9,0.1,-1.9,25,827.067,95.2038,540.624,-1.21048,-0.858029,-2.03005,
2026_07_06_17_19_42.211,3.873,36.6,0,0.765,0,0,0,0, ,0,0,0,0,0, ,828.1,94.1,541.2,-1.3,-0.9,-2,25,827.27,95.2615,540.735,-1.20374,-0.830117,-2.02517,
2026_07_06_17_19_42.235,3.873,36.7,0,0.764,0,0,0,0, ,0,0,0,0,0, ,824.4,91.4,540.8,-1.2,-0.6,-2.1,25,827.208,95.1084,540.751,-1.20656,-0.825235,-2.02668,
2026_07_06_17_19_42.244,3.873,36.7,0,0.765,0,0,0,0, ,0,0,0,0,0, ,823.9,92.1,537.7,-1.1,0.1,-2.3,25,827.022,94.9038,540.66,-1.20312,-0.790182,-2.03724,
2026_07_06_17_19_42.267,3.873,36.6,0,0.765,0,0,0,0, ,0,0,0,0,0, ,831.7,96.4,538.9,-1.1,0,-2.4,25,827.069,94.8639,540.516,-1.19683,-0.738983,-2.0563,
2026_07_06_17_19_42.284,3.873,36.6,0,0.766,0,0,0,0, ,0,0,0,0,0, ,830.9,98.2,540.6,-1.2,0.3,-2.2,25,827.327,95.0124,540.469,-1.19398,-0.684811,-2.07115,
2026_07_06_17_19_42.308,3.873,36.6,0,0.764,0,0,0,0, ,0,0,0,0,0, ,827.5,90.2,548,-1.1,-0.5,-2.1,25,827.441,94.9629,540.703,-1.1913,-0.649174,-2.07596,
2026_07_06_17_19_42.323,3.873,36.6,0,0.765,0,0,0,0, ,0,0,0,0,0, ,821.6,93,538.6,-1.5,-0.6,-2.7,25,827.265,94.7579,540.861,-1.19792,-0.643131,-2.0957,
2026_07_06_17_19_42.347,3.873,36.6,0,0.764,0,0,0,0, ,0,0,0,0,0, ,826.2,93.9,539.9,-1.1,-0.1,-2.6,25,827.06,94.6782,540.763,-1.20414,-0.625268,-2.12948,
2026_07_06_17_19_42.362,3.873,36.6,0,0.765,0,0,0,0, ,0,0,0,0,0, ,827.3,98.8,547.1,-1.2,-0.3,-2.3,25,827.041,94.7801,540.93,-1.20084,-0.599353,-2.14901,
2026_07_06_17_19_42.388,3.873,36.6,0,0.765,0,0,0,0, ,0,0,0,0,0, ,829.8,97.5,546,-1.6,-1.2,-2.3,25,827.133,94.9855,541.272,-1.21298,-0.608533,-2.15821,
2026_07_06_17_19_42.402,3.873,36.6,0,0.765,0,0,0,0, ,0,0,0,0,0, ,828.4,97.6,539.6,-1.8,-1.9,-2.1,25,827.253,95.1417,541.365,-1.24266,-0.665904,-2.16076,
2026_07_06_17_19_42.426,3.873,36.7,0,0.764,0,0,0,0, ,0,0,0,0,0, ,825.3,94.6,535.1,-2,-2,-2.2,25,827.228,95.2001,541.12,-1.28271,-0.744153,-2.1601,
2026_07_06_17_19_42.441,3.873,36.6,0,0.764,0,0,0,0, ,0,0,0,0,0, ,823.2,93.7,533.5,-1,-0.6,-2.1,25,827.047,95.1361,540.705,-1.29596,-0.778025,-2.15949,
2026_07_06_17_19_42.465,3.873,36.6,0,0.765,0,0,0,0, ,0,0,0,0,0, ,830,96.4,538.9,-1,-0.2,-2,25,827.02,95.1309,540.43,-1.27792,-0.754989,-2.15282,
2026_07_06_17_19_42.483,3.873,36.6,0,0.765,0,0,0,0, ,0,0,0,0,0, ,831.4,98.1,541.6,-1.3,-0.1,-1.9,25,827.244,95.26,540.419,-1.27013,-0.718123,-2.14046,
2026_07_06_17_19_42.506,3.873,36.6,0,0.764,0,0,0,0, ,0,0,0,0,0, ,830.3,94.8,545.6,-1.5,-1.4,-2,25,827.464,95.3325,540.613,-1.27804,-0.720065,-2.12885,
2026_07_06_17_19_42.521,3.873,36.7,0,0.763,0,0,0,0, ,0,0,0,0,0, ,824.2,90.9,540.2,-1.5,-1.5,-2.2,25,827.451,95.1813,540.753,-1.29157,-0.764546,-2.12709,
2026_07_06_17_19_42.546,3.873,36.5,0,0.764,0,0,0,0, ,0,0,0,0,0, ,826.7,90.4,530.5,-0.5,0.5,-2.8,25,827.329,94.9051,540.423,-1.2738,-0.748425,-2.14982,
2026_07_06_17_19_42.560,3.873,36.6,0,0.764,0,0,0,0, ,0,0,0,0,0, ,833.3,94.8,534,-1,-0.3,-2.2,25,827.491,94.7647,539.925,-1.24188,-0.696724,-2.17116,
2026_07_06_17_19_42.585,3.873,36.6,0,0.765,0,0,0,0, ,0,0,0,0,0, ,828.9,97.2,543.2,-0.3,0.7,-2.2,25,827.711,94.8399,539.844,-1.20581,-0.64208,-2.17291,
2026_07_06_17_19_42.604,3.873,36.6,0,0.764,0,0,0,0, ,0,0,0,0,0, ,825.1,97.1,546.9,-0.8,-0.7,-2.1,25,827.668,94.9807,540.162,-1.16585,-0.602953,-2.17152,
2026_07_06_17_19_42.627,3.873,36.6,0,0.764,0,0,0,0, ,0,0,0,0,0, ,823.8,97.9,540.1,-1,-0.3,-2.1,25,827.472,95.1342,540.365,-1.14965,-0.59668,-2.16716,
2026_07_06_17_19_42.640,3.873,36.6,0,0.765,0,0,0,0, ,0,0,0,0,0, ,828.6,95.8,536.4,-1.3,-0.4,-2.1,25,827.394,95.2388,540.236,-1.14967,-0.581648,-2.16307,
2026_07_06_17_19_42.664,3.873,36.7,0,0.764,0,0,0,0, ,0,0,0,0,0, ,833.7,93.5,532.4,-1.2,0,-2.3,25,827.623,95.2029,539.881,-1.15578,-0.558391,-2.16532,
2026_07_06_17_19_42.680,3.873,36.6,0,0.763,0,0,0,0, ,0,0,0,0,0, ,830.4,96.6,540.7,-0.9,0.3,-2.4,25,827.893,95.1936,539.678,-1.14934,-0.515223,-2.17657,
2026_07_06_17_19_42.704,3.873,36.6,0,0.764,0,0,0,0, ,0,0,0,0,0, ,825.5,96.3,544.7,-1.1,-0.3,-2.2,25,827.897,95.2702,539.862,-1.14024,-0.483827,-2.18409,
2026_07_06_17_19_42.719,3.873,36.7,0,0.765,0,0,0,0, ,0,0,0,0,0, ,822.3,97.2,544.7,-1.1,-1,-2,25,827.653,95.3603,540.157,-1.13779,-0.493953,-2.17897,
2026_07_06_17_19_42.744,3.873,36.6,0,0.763,0,0,0,0, ,0,0,0,0,0, ,828.2,96.1,541.1,-1.2,-1.2,-2,25,827.507,95.4389,540.324,-1.13853,-0.530884,-2.16806,
2026_07_06_17_19_42.758,3.873,36.6,0,0.765,0,0,0,0, ,0,0,0,0,0, ,829.4,93.9,534.9,-1.3,-0.7,-1.9,25,827.585,95.4122,540.182,-1.14532,-0.556424,-2.15477,
2026_07_06_17_19_42.784,3.873,36.6,0,0.765,0,0,0,0, ,0,0,0,0,0, ,828,96.1,538.9,-1.5,-0.5,-2.2,25,827.653,95.3871,539.982,-1.16084,-0.559079,-2.14839,
2026_07_06_17_19_42.798,3.873,36.6,0,0.764,0,0,0,0, ,0,0,0,0,0, ,828.2,96.6,539.7,-0.9,0,-2,25,827.681,95.4457,539.941,-1.16323,-0.540245,-2.14544,
2026_07_06_17_19_42.823,3.873,36.6,0,0.764,0,0,0,0, ,0,0,0,0,0, ,824.9,96.6,540.2,-0.5,-0.1,-1.7,25,827.612,95.5161,539.941,-1.135,-0.510371,-2.12744,
2026_07_06_17_19_42.837,3.873,36.6,0,0.765,0,0,0,0, ,0,0,0,0,0, ,826.4,97.6,548.3,-1,-0.4,-2,25,827.492,95.6126,540.204,-1.11154,-0.494504,-2.11053,
2026_07_06_17_19_42.863,3.873,36.6,0,0.764,0,0,0,0, ,0,0,0,0,0, ,827.3,94.1,542.9,-1.3,-1.3,-1.9,25,827.453,95.6271,540.533,-1.11388,-0.516167,-2.10075,
2026_07_06_17_19_42.877,3.873,36.6,0,0.764,0,0,0,0, ,0,0,0,0,0, ,827.1,94.1,538.3,-1.3,-1.1,-2,25,827.438,95.534,540.537,-1.12522,-0.557838,-2.09156,
2026_07_06_17_19_42.901,3.873,36.6,0,0.765,0,0,0,0, ,0,0,0,0,0, ,828.9,95.7,538.8,-1.1,-0.5,-2,25,827.472,95.4954,540.416,-1.12978,-0.572595,-2.08598,
2026_07_06_17_19_42.917,3.873,36.6,0,0.764,0,0,0,0, ,0,0,0,0,0, ,832.1,97.2,537.4,-1,-0.5,-2,25,827.656,95.5535,540.275,-1.12492,-0.568171,-2.08074,
2026_07_06_17_19_42.941,3.873,36.6,0,0.765,0,0,0,0, ,0,0,0,0,0, ,831.9,95.3,542.6,-1.1,-0.6,-2,25,827.921,95.596,540.258,-1.12035,-0.567064,-2.07582,
2026_07_06_17_19_42.957,3.873,36.5,0,0.763,0,0,0,0, ,0,0,0,0,0, ,827.6,93.8,535.2,-0.9,-0.6,-2.1,25,828.032,95.5322,540.175,-1.11302,-0.569071,-2.07425,
2026_07_06_17_19_42.983,3.873,36.6,0,0.764,0,0,0,0, ,0,0,0,0,0, ,823.4,95.2,539.9,-0.4,0,-1.9,25,827.878,95.4693,540.015,-1.0848,-0.552674,-2.06973,
2026_07_06_17_19_42.999,3.873,36.5,0,0.763,0,0,0,0, ,0,0,0,0,0, ,822.9,98.8,547.2,-1.1,-0.7,-1.8,25,827.59,95.5626,540.231,-1.0644,-0.540324,-2.05634,
2026_07_06_17_19_43.025,3.873,36.6,0,0.764,0,0,0,0, ,0,0,0,0,0, ,826.2,97.2,544.6,-1.1,-1.2,-1.6,25,827.405,95.7111,540.576,-1.06657,-0.565289,-2.03462,
2026_07_06_17_19_43.036,3.873,36.6,0,0.764,0,0,0,0, ,0,0,0,0,0, ,828.7,96.1,541.7,-1.5,-2.4,-1.7,25,827.408,95.7684,540.733,-1.0808,-0.640529,-2.01118,
2026_07_06_17_19_43.061,3.873,36.5,0,0.764,0,0,0,0, ,0,0,0,0,0, ,830.6,92.5,531.2,-1.4,-2,-1.6,25,827.544,95.6789,540.472,-1.10329,-0.735559,-1.98917,
2026_07_06_17_19_43.075,3.873,36.5,0,0.764,0,0,0,0, ,0,0,0,0,0, ,828.3,92.8,534.1,-0.9,-0.3,-2.1,25,827.66,95.4943,539.995,-1.10614,-0.760814,-1.98069,
2026_07_06_17_19_43.099,3.873,36.5,0,0.764,0,0,0,0, ,0,0,0,0,0, ,829.2,98,539.6,-0.6,-0.1,-2.2,25,827.727,95.4886,539.804,-1.08444,-0.726639,-1.99101,
2026_07_06_17_19_43.115,3.873,36.5,0,0.764,0,0,0,0, ,0,0,0,0,0, ,829.3,95.3,531.4,-0.4,0.3,-1.7,25,827.82,95.5593,539.541,-1.04882,-0.676266,-1.98851,
2026_07_06_17_19_43.141,3.873,36.5,0,0.765,0,0,0,0, ,0,0,0,0,0, ,828.1,96.4,550.5,-0.9,-0.5,-2.2,25,827.873,95.577,539.627,-1.02452,-0.64115,-1.98616,
2026_07_06_17_19_43.154,3.873,36.5,0,0.765,0,0,0,0, ,0,0,0,0,0, ,824.8,98,538.8,-1.5,-1.1,-2.1,25,827.786,95.6759,539.933,-1.03521,-0.65083,-1.99615,
2026_07_06_17_19_43.178,3.873,36.7,0,0.764,0,0,0,0, ,0,0,0,0,0, ,826,96.5,537.1,-0.9,-0.5,-2,25,827.641,95.7719,539.812,-1.04526,-0.65992,-1.99943,
2026_07_06_17_19_43.193,3.873,36.7,0,0.765,0,0,0,0, ,0,0,0,0,0, ,828.1,94.4,540.8,-0.8,0,-1.7,25,827.605,95.7523,539.76,-1.03336,-0.63494,-1.99032,
2026_07_06_17_19_43.221,3.873,36.6,0,0.766,0,0,0,0, ,0,0,0,0,0, ,828.4,93,539.9,-0.9,-0.6,-1.8,25,827.644,95.6272,539.796,-1.02218,-0.61453,-1.97568,
2026_07_06_17_19_43.233,3.873,36.6,0,0.764,0,0,0,0, ,0,0,0,0,0, ,829.7,97.4,538.8,-0.9,-0.4,-2.3,25,827.73,95.6012,539.769,-1.01474,-0.607551,-1.98021,
2026_07_06_17_19_43.258,3.873,36.5,0,0.764,0,0,0,0, ,0,0,0,0,0, ,827.6,96.3,538.5,-1.1,0,-2.1,25,827.786,95.6773,539.7,-1.01384,-0.582716,-1.9936,
2026_07_06_17_19_43.273,3.873,36.6,0,0.764,0,0,0,0, ,0,0,0,0,0, ,828.6,94.8,537.1,-1,0.8,-2.2,25,827.805,95.6695,539.585,-1.01604,-0.522831,-2.00313,
2026_07_06_17_19_43.297,3.873,36.6,0,0.763,0,0,0,0, ,0,0,0,0,0, ,828.2,93.3,533.2,-0.5,1.2,-2.2,25,827.841,95.5708,539.314,-0.999832,-0.430034,-2.01513,
2026_07_06_17_19_43.313,3.873,36.6,0,0.763,0,0,0,0, ,0,0,0,0,0, ,827.6,97.1,547.1,-0.5,1.4,-2.5,25,827.845,95.5482,539.365,-0.969373,-0.32461,-2.03553,
2026_07_06_17_19_43.339,3.873,36.7,0,0.764,0,0,0,0, ,0,0,0,0,0, ,824.5,97,547.9,-0.8,0,-2.1,25,827.736,95.6397,539.861,-0.949911,-0.262173,-2.05165,
2026_07_06_17_19_43.352,3.873,36.7,0,0.764,0,0,0,0, ,0,0,0,0,0, ,822,96.6,551.3,-1.6,-1,-2.2,25,827.462,95.7104,540.455,-0.965151,-0.276665,-2.05764,
2026_07_06_17_19_43.377,3.873,36.6,0,0.765,0,0,0,0, ,0,0,0,0,0, ,823.8,94.8,542.9,-1.9,-1.8,-2.3,25,827.184,95.7098,540.859,-1.01298,-0.345119,-2.06937,
2026_07_06_17_19_43.392,3.873,36.4,0,0.764,0,0,0,0, ,0,0,0,0,0, ,833.2,95.2,531.9,-1.3,-1.2,-1.9,25,827.264,95.6665,540.649,-1.04875,-0.415494,-2.07123,
2026_07_06_17_19_43.418,3.873,36.6,0,0.764,0,0,0,0, ,0,0,0,0,0, ,830.3,97.2,536,-0.4,-0.3,-1.6,25,827.538,95.6991,540.24,-1.03664,-0.435878,-2.05166,
2026_07_06_17_19_43.437,3.873,36.6,0,0.764,0,0,0,0, ,0,0,0,0,0, ,822.8,99.7,544,-0.9,0,-1.7,25,827.478,95.8667,540.226,-1.01308,-0.418457,-2.02718,
2026_07_06_17_19_43.464,3.873,36.4,0,0.765,0,0,0,0, ,0,0,0,0,0, ,822.7,98.5,544.1,-1.2,0,-1.8,25,827.189,96.0637,540.459,-1.01533,-0.392958,-2.01029,
2026_07_06_17_19_43.471,3.873,36.6,0,0.765,0,0,0,0, ,0,0,0,0,0, ,826.6,97.6,545.8,-1,-0.8,-1.4,25,827.035,96.1848,540.733,-1.02049,-0.393387,-1.98529,
2026_07_06_17_19_43.496,3.873,36.5,0,0.765,0,0,0,0, ,0,0,0,0,0, ,825.9,94.8,544.3,-1,-0.8,-1.4,25,826.987,96.1857,540.996,-1.01924,-0.418165,-1.94962,
2026_07_06_17_19_43.511,3.873,36.5,0,0.763,0,0,0,0, ,0,0,0,0,0, ,823.4,96.1,546.2,-1.2,-1.4,-1.7,25,826.845,96.1409,541.255,-1.02416,-0.459714,-1.92527,
2026_07_06_17_19_43.535,3.873,36.6,0,0.763,0,0,0,0, ,0,0,0,0,0, ,825.9,94.2,543.9,-1.2,-1.6,-1.8,25,826.711,96.0805,541.486,-1.03488,-0.523107,-1.91459,
2026_07_06_17_19_43.549,3.873,36.6,0,0.764,0,0,0,0, ,0,0,0,0,0, ,826.9,94.6,537.2,-1.4,-1.9,-2.1,25,826.692,95.9781,541.429,-1.05103,-0.59787,-1.91675,
2026_07_06_17_19_43.577,3.873,36.5,0,0.763,0,0,0,0, ,0,0,0,0,0, ,830.9,96.9,534,-1,-0.6,-1.9,25,826.826,95.9642,541.074,-1.06011,-0.63761,-1.92182,
2026_07_06_17_19_43.590,3.873,36.5,0,0.766,0,0,0,0, ,0,0,0,0,0, ,827.7,95.4,542.6,-1,-1,-1.9,25,826.977,95.9755,540.905,-1.05645,-0.647505,-1.92049,
2026_07_06_17_19_43.615,3.873,36.6,0,0.764,0,0,0,0, ,0,0,0,0,0, ,825.3,93.1,533.4,-1,-0.2,-1.9,25,826.948,95.8704,540.728,-1.05301,-0.64461,-1.91924,
2026_07_06_17_19_43.630,3.873,36.6,0,0.764,0,0,0,0, ,0,0,0,0,0, ,827.3,93.8,542.4,-0.6,0.4,-2,25,826.909,95.7229,540.556,-1.03759,-0.599236,-1.92112,
2026_07_06_17_19_43.656,3.873,36.6,0,0.764,0,0,0,0, ,0,0,0,0,0, ,827.5,96.3,547.3,-0.7,-0.4,-1.9,25,826.939,95.6819,540.817,-1.01397,-0.56272,-1.92288,
2026_07_06_17_19_43.669,3.873,36.5,0,0.765,0,0,0,0, ,0,0,0,0,0, ,829.2,94.2,542.6,-0.9,-1.3,-1.7,25,827.025,95.6555,541.069,-1.00093,-0.580226,-1.91539,
2026_07_06_17_19_43.694,3.873,36.6,0,0.764,0,0,0,0, ,0,0,0,0,0, ,823.7,91.9,538.5,-1.4,-1.4,-2.1,25,826.99,95.4968,541.037,-1.01002,-0.627134,-1.91445,
2026_07_06_17_19_43.708,3.873,36.5,0,0.765,0,0,0,0, ,0,0,0,0,0, ,825,94.8,540.2,-1.3,-0.7,-2.5,25,826.829,95.3659,540.935,-1.03073,-0.652902,-1.93795,
2026_07_06_17_19_43.734,3.873,36.6,0,0.764,0,0,0,0, ,0,0,0,0,0, ,824.8,93.2,536.1,-1.1,-0.6,-2.4,25,826.711,95.2827,540.765,-1.04105,-0.652726,-1.96915,
2026_07_06_17_19_43.748,3.873,36.6,0,0.765,0,0,0,0, ,0,0,0,0,0, ,828.4,96.5,537.4,-0.7,0.2,-2.3,25,826.704,95.2563,540.52,-1.03245,-0.625138,-1.99236,
2026_07_06_17_19_43.774,3.873,36.5,0,0.764,0,0,0,0, ,0,0,0,0,0, ,829.8,102.1,542.4,-0.9,-0.2,-2.3,25,826.85,95.5028,540.482,-1.01829,-0.587043,-2.0111,
2026_07_06_17_19_43.788,3.873,36.5,0,0.765,0,0,0,0, ,0,0,0,0,0, ,829.1,98.1,538.5,-0.6,0.1,-1.7,25,827.009,95.7829,540.48,-1.00194,-0.554317,-2.01043,
2026_07_06_17_19_43.813,3.873,36.5,0,0.765,0,0,0,0, ,0,0,0,0,0, ,824.3,96.3,551.2,-0.9,-0.8,-1.9,25,826.99,95.8693,540.747,-0.986586,-0.541867,-1.9976,
2026_07_06_17_19_43.827,3.873,36.6,0,0.764,0,0,0,0, ,0,0,0,0,0, ,822.3,94.1,537.7,-1.3,-1.3,-1.8,25,826.765,95.8285,540.972,-0.993497,-0.572831,-1.98861,
2026_07_06_17_19_43.852,3.873,36.6,0,0.765,0,0,0,0, ,0,0,0,0,0, ,828,93.7,536.6,-0.8,0.2,-1.8,25,826.667,95.711,540.739,-0.996941,-0.57144,-1.97712,
2026_07_06_17_19_43.867,3.873,36.5,0,0.765,0,0,0,0, ,0,0,0,0,0, ,829.2,98.7,545.1,-0.9,-0.4,-1.8,25,826.784,95.7408,540.746,-0.987986,-0.542711,-1.96632,
2026_07_06_17_19_43.893,3.873,36.5,0,0.765,0,0,0,0, ,0,0,0,0,0, ,828.4,97.1,542.2,-1.1,-1.1,-1.9,25,826.907,95.8723,540.923,-0.988718,-0.555343,-1.95923,
2026_07_06_17_19_43.906,3.873,36.5,0,0.763,0,0,0,0, ,0,0,0,0,0, ,826.9,94.4,537.3,-1,-1,-2.2,25,826.953,95.8649,540.852,-0.992453,-0.585486,-1.96477,
2026_07_06_17_19_43.933,3.873,36.5,0,0.765,0,0,0,0, ,0,0,0,0,0, ,825.1,93.5,540.5,-0.9,-0.6,-1.9,25,826.895,95.7482,540.733,-0.989866,-0.598558,-1.96996,
2026_07_06_17_19_43.946,3.873,36.6,0,0.765,0,0,0,0, ,0,0,0,0,0, ,829.7,96.4,545.2,-1.2,-1.4,-1.9,25,826.925,95.6996,540.862,-0.99353,-0.623021,-1.9657,
2026_07_06_17_19_43.974,3.873,36.5,0,0.764,0,0,0,0, ,0,0,0,0,0, ,827.5,96.4,540.6,-1.3,-1.4,-1.9,25,827.027,95.7422,540.986,-1.00916,-0.670368,-1.96169,
2026_07_06_17_19_43.985,3.873,36.5,0,0.765,0,0,0,0, ,0,0,0,0,0, ,827.7,92.6,539,-1.2,-1.4,-1.8,25,827.062,95.6665,540.914,-1.02384,-0.71483,-1.95489,
2026_07_06_17_19_44.012,3.873,36.5,0,0.764,0,0,0,0, ,0,0,0,0,0, ,829.9,94.4,540,-1.3,-1.4,-2.2,25,827.168,95.5345,540.828,-1.03762,-0.756583,-1.95764,
2026_07_06_17_19_44.024,3.873,36.5,0,0.764,0,0,0,0, ,0,0,0,0,0, ,829.8,93.8,530,-1,-0.6,-2,25,827.332,95.4471,540.472,-1.04447,-0.771416,-1.96631,
2026_07_06_17_19_44.052,3.873,36.5,0,0.764,0,0,0,0, ,0,0,0,0,0, ,827,94.4,538.5,-0.7,0,-2.1,25,827.397,95.365,540.093,-1.03262,-0.742689,-1.97141,
2026_07_06_17_19_44.065,3.873,36.4,0,0.764,0,0,0,0, ,0,0,0,0,0, ,825.9,96.5,542.9,-0.8,0,-2.1,25,827.339,95.3702,540.13,-1.01539,-0.697431,-1.97925,
2026_07_06_17_19_44.092,3.873,36.4,0,0.764,0,0,0,0, ,0,0,0,0,0, ,829.2,98.2,547.3,-0.9,-0.1,-2.4,25,827.352,95.4908,540.433,-1.00531,-0.657978,-1.99575,
2026_07_06_17_19_44.104,3.873,36.5,0,0.765,0,0,0,0, ,0,0,0,0,0, ,828.8,96.6,541,-1.5,-1.4,-2.1,25,827.452,95.6072,540.66,-1.01718,-0.663586,-2.01124,
2026_07_06_17_19_44.130,3.873,36.5,0,0.765,0,0,0,0, ,0,0,0,0,0, ,823.7,92,538.4,-1.5,-1.1,-2,25,827.379,95.5275,540.601,-1.0466,-0.699321,-2.0136,
2026_07_06_17_19_44.143,3.873,36.4,0,0.765,0,0,0,0, ,0,0,0,0,0, ,825.4,94.9,535.5,-1.3,-0.7,-2.2,25,827.207,95.4009,540.379,-1.06814,-0.71155,-2.01887,
2026_07_06_17_19_44.174,3.873,36.5,0,0.765,0,0,0,0, ,0,0,0,0,0, ,831.2,99.6,536,-0.6,-0.1,-2,25,827.273,95.5136,540.097,-1.06094,-0.692564,-2.02381,
2026_07_06_17_19_44.195,3.873,36.5,0,0.764,0,0,0,0, ,0,0,0,0,0, ,825.4,96.4,541.5,-1,-0.6,-1.8,25,827.336,95.6651,540.015,-1.04504,-0.671689,-2.01627,
2026_07_06_17_19_44.223,3.873,36.4,0,0.765,0,0,0,0, ,0,0,0,0,0, ,829.2,90.8,540.8,-1.4,-0.7,-1.9,25,827.334,95.5393,540.084,-1.05448,-0.670368,-2.00613,
2026_07_06_17_19_44.223,3.873,36.5,0,0.764,0,0,0,0, ,0,0,0,0,0, ,826.9,92.1,537.2,-1,-0.5,-2,25,827.377,95.2901,540.018,-1.06335,-0.66608,-2.00271,
2026_07_06_17_19_44.250,3.873,36.4,0,0.764,0,0,0,0, ,0,0,0,0,0, ,828.8,95.4,534.4,-0.7,-0.3,-2,25,827.406,95.1962,539.761,-1.05035,-0.649866,-2.00255,
2026_07_06_17_19_44.263,3.873,36.5,0,0.766,0,0,0,0, ,0,0,0,0,0, ,831.2,95.5,534.1,-0.5,0.4,-2.2,25,827.564,95.2117,539.425,-1.0229,-0.607217,-2.00849,
2026_07_06_17_19_44.290,3.873,36.4,0,0.766,0,0,0,0, ,0,0,0,0,0, ,830.9,96.1,539.5,-0.3,0.9,-2.2,25,827.777,95.2475,539.265,-0.984945,-0.530606,-2.02016,
2026_07_06_17_19_44.303,3.873,36.5,0,0.767,0,0,0,0, ,0,0,0,0,0, ,823.4,98.6,550.6,-0.6,0.2,-2.2,25,827.738,95.3757,539.617,-0.952347,-0.464756,-2.03112,
2026_07_06_17_19_44.330,3.873,36.4,0,0.763,0,0,0,0, ,0,0,0,0,0, ,822.7,96.3,550.1,-1,-0.9,-2.1,25,827.453,95.5021,540.271,-0.943063,-0.457763,-2.03836,
2026_07_06_17_19_44.342,3.873,36.4,0,0.765,0,0,0,0, ,0,0,0,0,0, ,825.4,97.1,547.7,-1.4,-1.8,-2,25,827.245,95.5751,540.797,-0.95872,-0.512134,-2.03907,
2026_07_06_17_19_44.367,3.873,36.4,0,0.764,0,0,0,0, ,0,0,0,0,0, ,829.9,95.7,542.2,-1.8,-2.5,-2.1,25,827.27,95.6253,541.05,-0.997798,-0.611942,-2.03974,
2026_07_06_17_19_44.381,3.873,36.5,0,0.764,0,0,0,0, ,0,0,0,0,0, ,832.5,92.2,526.6,-1.4,-2.3,-1.9,25,827.51,95.5232,540.645,-1.03449,-0.720901,-2.03731,
2026_07_06_17_19_44.409,3.873,36.4,0,0.765,0,0,0,0, ,0,0,0,0,0, ,831.5,96,531.3,-1,-1.5,-2,25,827.783,95.4365,539.932,-1.04458,-0.792753,-2.03199,
2026_07_06_17_19_44.422,3.873,36.5,0,0.764,0,0,0,0, ,0,0,0,0,0, ,826.2,96,533.5,-0.7,-1,-2,25,827.848,95.4709,539.473,-1.03272,-0.820616,-2.03004,
2026_07_06_17_19_44.451,3.873,36.4,0,0.764,0,0,0,0, ,0,0,0,0,0, ,826.4,98.9,538,-0.9,-0.2,-1.9,25,827.754,95.5915,539.246,-1.01854,-0.807172,-2.02517,
2026_07_06_17_19_44.461,3.873,36.4,0,0.764,0,0,0,0, ,0,0,0,0,0, ,834.1,99.2,534.6,-0.8,0,-1.8,25,827.906,95.8022,539.067,-1.00827,-0.764079,-2.01449,
2026_07_06_17_19_44.488,3.873,36.5,0,0.765,0,0,0,0, ,0,0,0,0,0, ,832.8,96.5,540.8,-0.4,-0.2,-1.5,25,828.244,95.927,538.984,-0.983392,-0.723612,-1.99228,
2026_07_06_17_19_44.500,3.873,36.4,0,0.764,0,0,0,0, ,0,0,0,0,0, ,823.2,95.3,547.3,-0.8,-1.2,-1.5,25,828.229,95.9254,539.292,-0.960029,-0.722173,-1.96228,
2026_07_06_17_19_44.526,3.873,36.5,0,0.764,0,0,0,0, ,0,0,0,0,0, ,821.2,94.7,542.7,-1,-1.2,-1.3,25,827.862,95.869,539.64,-0.956371,-0.75129,-1.92802,
2026_07_06_17_19_44.539,3.873,36.4,0,0.765,0,0,0,0, ,0,0,0,0,0, ,828.6,93,540.2,-1.3,-1.7,-1.8,25,827.681,95.7459,539.75,-0.96817,-0.793868,-1.90498,
2026_07_06_17_19_44.566,3.873,36.4,0,0.765,0,0,0,0, ,0,0,0,0,0, ,831.9,93.6,534,-1.2,-1.2,-2,25,827.838,95.5969,539.589,-0.985344,-0.833851,-1.90468,
2026_07_06_17_19_44.579,3.873,36.4,0,0.765,0,0,0,0, ,0,0,0,0,0, ,836.1,92.7,530.6,-0.8,-0.6,-2,25,828.213,95.4478,539.145,-0.986237,-0.837882,-1.91049,
2026_07_06_17_19_44.605,3.873,36.5,0,0.765,0,0,0,0, ,0,0,0,0,0, ,828.1,94.7,537.8,-0.5,-0.1,-2.1,25,828.45,95.3413,538.843,-0.965748,-0.808152,-1.91899,
2026_07_06_17_19_44.618,3.873,36.4,0,0.765,0,0,0,0, ,0,0,0,0,0, ,822.9,96.4,540.6,-0.8,0,-2.1,25,828.27,95.354,538.865,-0.946507,-0.761952,-1.93002,
2026_07_06_17_19_44.647,3.873,36.3,0,0.764,0,0,0,0, ,0,0,0,0,0, ,825.1,95.8,543.9,-1,-0.7,-2.1,25,828.01,95.3995,539.071,-0.943673,-0.736849,-1.94038,
2026_07_06_17_19_44.657,3.873,36.4,0,0.764,0,0,0,0, ,0,0,0,0,0, ,829.8,96.9,539.6,-1.2,-0.9,-2,25,827.976,95.4574,539.235,-0.953199,-0.740697,-1.94706,
2026_07_06_17_19_44.685,3.873,36.5,0,0.764,0,0,0,0, ,0,0,0,0,0, ,832.6,94.8,538.5,-1.3,-1.8,-2,25,828.172,95.4813,539.223,-0.971285,-0.777826,-1.95028,
2026_07_06_17_19_44.698,3.873,36.5,0,0.764,0,0,0,0, ,0,0,0,0,0, ,829.9,95,540.2,-1.5,-1.8,-2.2,25,828.36,95.4459,539.231,-0.99741,-0.840115,-1.95941,
2026_07_06_17_19_44.724,3.873,36.4,0,0.764,0,0,0,0, ,0,0,0,0,0, ,823.8,93.7,532.8,-1.5,-1.3,-2.2,25,828.268,95.3791,539.065,-1.02804,-0.883374,-1.97407,
2026_07_06_17_19_44.738,3.873,36.4,0,0.765,0,0,0,0, ,0,0,0,0,0, ,830.5,94.3,535.8,-1,-0.1,-2.1,25,828.2,95.2951,538.774,-1.04156,-0.872199,-1.98479,
2026_07_06_17_19_44.765,3.873,36.4,0,0.765,0,0,0,0, ,0,0,0,0,0, ,830.8,97.5,531,-0.5,0.1,-2,25,828.349,95.3319,538.447,-1.0238,-0.81905,-1.98876,
2026_07_06_17_19_44.776,3.873,36.4,0,0.764,0,0,0,0, ,0,0,0,0,0, ,830,96.5,540.5,-0.8,0,-2.3,25,828.474,95.4336,538.283,-1.00102,-0.766092,-1.99859,
2026_07_06_17_19_44.805,3.873,36.4,0,0.763,0,0,0,0, ,0,0,0,0,0, ,829.2,96.3,533.3,-1.1,0.1,-2.4,25,828.543,95.4925,538.198,-0.997909,-0.716361,-2.02,
2026_07_06_17_19_44.817,3.873,36.3,0,0.764,0,0,0,0, ,0,0,0,0,0, ,829.9,94.2,538.3,-0.4,0.6,-2.1,25,828.604,95.4777,538.052,-0.982802,-0.65138,-2.03402,
2026_07_06_17_19_44.844,3.873,36.4,0,0.764,0,0,0,0, ,0,0,0,0,0, ,826.6,97.5,541.3,-0.4,0.2,-1.9,25,828.582,95.5004,538.159,-0.947287,-0.587311,-2.03195,
2026_07_06_17_19_44.856,3.873,36.3,0,0.763,0,0,0,0, ,0,0,0,0,0, ,825.4,98.6,547.4,-0.7,-0.3,-1.8,25,828.425,95.6557,538.536,-0.923077,-0.554569,-2.02086,
2026_07_06_17_19_44.884,3.873,36.3,0,0.764,0,0,0,0, ,0,0,0,0,0, ,825,96.8,548,-1.6,-2.1,-1.6,25,828.229,95.7803,539.094,-0.936906,-0.5939,-2.00131,
2026_07_06_17_19_44.895,3.873,36.4,0,0.764,0,0,0,0, ,0,0,0,0,0, ,827.1,95.2,538.6,-2,-2.7,-1.9,25,828.096,95.7937,539.351,-0.9895,-0.703959,-1.98599,
2026_07_06_17_19_44.926,3.873,36.4,0,0.766,0,0,0,0, ,0,0,0,0,0, ,835.3,91.1,524.7,-1.5,-1.7,-2,25,828.285,95.6326,538.881,-1.03584,-0.795124,-1.9838,
2026_07_06_17_19_44.935,3.873,36.4,0,0.765,0,0,0,0, ,0,0,0,0,0, ,830.9,93,530,-0.4,0,-2,25,828.578,95.4143,538.179,-1.03061,-0.798468,-1.98479,
2026_07_06_17_19_44.966,3.873,36.5,0,0.764,0,0,0,0, ,0,0,0,0,0, ,828.7,96.1,538.3,0,0.3,-2,25,828.653,95.3616,537.933,-0.979997,-0.740671,-1.98571,
2026_07_06_17_19_44.979,3.873,36.3,0,0.764,0,0,0,0, ,0,0,0,0,0, ,827.8,96.4,542.3,-0.4,0.3,-2,25,828.628,95.4158,538.077,-0.932466,-0.677255,-1.98658,
2026_07_06_17_19_45.007,3.873,36.3,0,0.765,0,0,0,0, ,0,0,0,0,0, ,828.4,95,539.9,-0.8,-0.1,-2.2,25,828.596,95.4331,538.262,-0.912206,-0.629891,-1.99349,
2026_07_06_17_19_45.013,3.873,36.4,0,0.764,0,0,0,0, ,0,0,0,0,0, ,827.1,94.7,540.7,-1,-0.5,-2.1,25,828.545,95.3975,538.386,-0.911462,-0.609788,-2.00303,
2026_07_06_17_19_45.043,3.873,36.4,0,0.765,0,0,0,0, ,0,0,0,0,0, ,831.6,93.8,534.1,-0.5,0.5,-2,25,828.594,95.3276,538.326,-0.901623,-0.572629,-2.00589,
2026_07_06_17_19_45.055,3.873,36.4,0,0.763,0,0,0,0, ,0,0,0,0,0, ,829.5,98.2,541.9,-0.2,0.6,-2.1,25,828.713,95.3686,538.306,-0.868009,-0.504219,-2.00858,
2026_07_06_17_19_45.085,3.873,36.4,0,0.764,0,0,0,0, ,0,0,0,0,0, ,826.5,101,547.8,-0.7,-0.7,-1.9,25,828.669,95.6264,538.705,-0.842536,-0.47654,-2.00806,
2026_07_06_17_19_45.093,3.873,36.3,0,0.763,0,0,0,0, ,0,0,0,0,0, ,825.9,99.6,545.8,-1.3,-2.3,-1.9,25,828.519,95.9112,539.198,-0.852132,-0.538907,-2.00147,
2026_07_06_17_19_45.121,3.873,36.4,0,0.764,0,0,0,0, ,0,0,0,0,0, ,827.2,94.7,534.9,-1.6,-1.9,-1.9,25,828.399,95.9867,539.268,-0.888564,-0.634036,-1.99529,
2026_07_06_17_19_45.133,3.873,36.3,0,0.765,0,0,0,0, ,0,0,0,0,0, ,829.4,94.8,530.5,-1.5,-1.2,-2,25,828.393,95.9114,538.868,-0.928871,-0.689853,-1.99253,
2026_07_06_17_19_45.162,3.873,36.3,0,0.764,0,0,0,0, ,0,0,0,0,0, ,831.5,97,531.3,-0.7,-0.1,-2,25,828.518,95.9107,538.382,-0.939299,-0.687424,-1.99299,
2026_07_06_17_19_45.173,3.873,36.4,0,0.765,0,0,0,0, ,0,0,0,0,0, ,827,97.4,538.2,-0.5,0.1,-1.9,25,828.563,95.9892,538.161,-0.918623,-0.645534,-1.99037,
2026_07_06_17_19_45.200,3.873,36.3,0,0.763,0,0,0,0, ,0,0,0,0,0, ,824.4,96.1,546.5,-1,-0.3,-2,25,828.388,96.0356,538.416,-0.908347,-0.612291,-1.98791,
2026_07_06_17_19_45.211,3.873,36.4,0,0.764,0,0,0,0, ,0,0,0,0,0, ,828.1,94.8,538.9,-1.6,-0.7,-2.2,25,828.258,95.9999,538.677,-0.932214,-0.605448,-1.99474,
2026_07_06_17_19_45.242,3.873,36.3,0,0.764,0,0,0,0, ,0,0,0,0,0, ,836.3,94.4,532.2,-1.2,-0.4,-2.3,25,828.498,95.9146,538.487,-0.960719,-0.602069,-2.01029,
2026_07_06_17_19_45.252,3.873,36.4,0,0.764,0,0,0,0, ,0,0,0,0,0, ,831.5,94.9,532.8,-1,0,-2.3,25,828.827,95.8375,538.122,-0.969207,-0.577568,-2.02795,
2026_07_06_17_19_45.281,3.873,36.4,0,0.764,0,0,0,0, ,0,0,0,0,0, ,826,94.4,536,-0.4,0.9,-2.2,25,828.823,95.7652,537.895,-0.952802,-0.514951,-2.04148,
2026_07_06_17_19_45.292,3.873,36.2,0,0.764,0,0,0,0, ,0,0,0,0,0, ,824.7,95.9,542.9,-0.4,1.4,-2.2,25,828.611,95.7277,537.99,-0.919116,-0.413493,-2.05114,
2026_07_06_17_19_45.321,3.873,36.4,0,0.764,0,0,0,0, ,0,0,0,0,0, ,829.8,97.9,545,-0.6,1.1,-2.3,25,828.528,95.7991,538.353,-0.893576,-0.312124,-2.06326,
2026_07_06_17_19_45.331,3.873,36.4,0,0.764,0,0,0,0, ,0,0,0,0,0, ,831.7,97.1,542.1,-1.3,-0.3,-2.3,25,828.664,95.9028,538.67,-0.897014,-0.268729,-2.07768,
2026_07_06_17_19_45.361,3.873,36.4,0,0.764,0,0,0,0, ,0,0,0,0,0, ,825,96.8,541.8,-1.3,-0.5,-2.5,25,828.644,95.9666,538.87,-0.921571,-0.276728,-2.09732,
2026_07_06_17_19_45.371,3.873,36.4,0,0.764,0,0,0,0, ,0,0,0,0,0, ,826,97.9,536.1,-1.1,-0.6,-2.3,25,828.453,96.0509,538.875,-0.938538,-0.293381,-2.11577,
2026_07_06_17_19_45.401,3.873,36.3,0,0.764,0,0,0,0, ,0,0,0,0,0, ,828.2,99.2,537.4,-0.8,0,-2.2,25,828.37,96.2032,538.745,-0.939236,-0.293784,-2.12395,
2026_07_06_17_19_45.410,3.873,36.2,0,0.764,0,0,0,0, ,0,0,0,0,0, ,825.4,103.2,547.1,-0.8,0,-1.8,25,828.275,96.5077,538.959,-0.930752,-0.275881,-2.11639,
2026_07_06_17_19_45.438,3.873,36.4,0,0.763,0,0,0,0, ,0,0,0,0,0, ,825.5,101,547.1,-1.4,-1.8,-1.6,25,828.103,96.8485,539.455,-0.941065,-0.313914,-2.09102,
2026_07_06_17_19_45.450,3.873,36.3,0,0.765,0,0,0,0, ,0,0,0,0,0, ,826.5,95.7,537.7,-1.6,-1.4,-2.2,25,827.974,96.94,539.634,-0.975125,-0.392285,-2.07938,
2026_07_06_17_19_45.478,3.873,36.2,0,0.764,0,0,0,0, ,0,0,0,0,0, ,830.8,94.4,537.9,-1.1,0.1,-2.6,25,828.016,96.8248,539.522,-0.997969,-0.407989,-2.09892,
2026_07_06_17_19_45.489,3.873,36.2,0,0.764,0,0,0,0, ,0,0,0,0,0, ,828.4,95.7,535.5,-0.6,-0.4,-1.9,25,828.112,96.7166,539.35,-0.988952,-0.392268,-2.10812,
2026_07_06_17_19_45.517,3.873,36.4,0,0.765,0,0,0,0, ,0,0,0,0,0, ,822.9,97.1,544.3,-0.5,0.1,-2,25,827.962,96.6973,539.384,-0.962204,-0.377505,-2.09849,
2026_07_06_17_19_45.528,3.873,36.4,0,0.765,0,0,0,0, ,0,0,0,0,0, ,825.6,97.2,541.9,-1,-0.5,-2,25,827.736,96.7249,539.61,-0.949272,-0.366688,-2.09249,
2026_07_06_17_19_45.557,3.873,36.2,0,0.764,0,0,0,0, ,0,0,0,0,0, ,827.1,98.3,542.4,-1.2,-0.6,-2,25,827.651,96.7874,539.765,-0.958457,-0.377859,-2.08685,
2026_07_06_17_19_45.569,3.873,36.3,0,0.766,0,0,0,0, ,0,0,0,0,0, ,830.4,95.2,538,-0.9,-0.4,-2.1,25,827.718,96.7851,539.792,-0.964036,-0.385302,-2.08461,
2026_07_06_17_19_45.597,3.873,36.3,0,0.764,0,0,0,0, ,0,0,0,0,0, ,830.6,95.4,534.3,-1,-0.3,-2.2,25,827.888,96.6946,539.57,-0.963181,-0.38315,-2.08859,
2026_07_06_17_19_45.607,3.873,36.4,0,0.764,0,0,0,0, ,0,0,0,0,0, ,827.7,98.6,541.5,-0.7,0.3,-2.2,25,827.965,96.7132,539.468,-0.956284,-0.359802,-2.09538,
2026_07_06_17_19_45.636,3.873,36.3,0,0.765,0,0,0,0, ,0,0,0,0,0, ,822.3,97.6,549.5,-0.7,-0.7,-1.8,25,827.784,96.7977,539.836,-0.940666,-0.350064,-2.08957,
2026_07_06_17_19_45.651,3.873,36.2,0,0.764,0,0,0,0, ,0,0,0,0,0, ,823.1,98,545.2,-1.2,-1.6,-1.8,25,827.474,96.8588,540.293,-0.941235,-0.39881,-2.07192,
2026_07_06_17_19_45.680,3.873,36.3,0,0.764,0,0,0,0, ,0,0,0,0,0, ,828.8,95.9,540.6,-1.5,-2,-2,25,827.381,96.8644,540.452,-0.966144,-0.484195,-2.06145,
2026_07_06_17_19_45.687,3.873,36.2,0,0.764,0,0,0,0, ,0,0,0,0,0, ,831.1,96.8,535.6,-1.4,-1.7,-2.1,25,827.538,96.833,540.309,-0.995629,-0.567424,-2.06075,
2026_07_06_17_19_45.716,3.873,36.2,0,0.764,0,0,0,0, ,0,0,0,0,0, ,828.6,94.9,533.2,-0.9,-1,-2.1,25,827.679,96.7731,539.949,-1.00504,-0.615112,-2.06314,
2026_07_06_17_19_45.727,3.873,36.3,0,0.765,0,0,0,0, ,0,0,0,0,0, ,827.3,96.1,534.4,-0.6,-0.2,-2.1,25,827.695,96.6955,539.574,-0.989495,-0.614191,-2.06539,
2026_07_06_17_19_45.756,3.873,36.3,0,0.764,0,0,0,0, ,0,0,0,0,0, ,830.2,98.9,540.1,-0.5,0.6,-2.2,25,827.76,96.7446,539.433,-0.962713,-0.564577,-2.07054,
2026_07_06_17_19_45.765,3.873,36.3,0,0.763,0,0,0,0, ,0,0,0,0,0, ,829.7,101.9,545.5,-0.6,0,-1.9,25,827.893,96.9673,539.638,-0.937563,-0.511891,-2.06929,
2026_07_06_17_19_45.796,3.873,36.3,0,0.764,0,0,0,0, ,0,0,0,0,0, ,826.4,100.5,543.2,-0.7,-0.5,-1.7,25,827.903,97.2252,539.925,-0.92004,-0.495932,-2.05288,
2026_07_06_17_19_45.806,3.873,36.3,0,0.764,0,0,0,0, ,0,0,0,0,0, ,823.7,97.1,541,-0.8,-0.5,-1.9,25,827.729,97.3212,540.057,-0.909678,-0.49618,-2.03747,
2026_07_06_17_19_45.834,3.873,36.3,0,0.764,0,0,0,0, ,0,0,0,0,0, ,824.5,99.3,542.2,-0.8,-0.3,-2.1,25,827.508,97.3748,540.151,-0.902995,-0.490319,-2.03519,
2026_07_06_17_19_45.846,3.873,36.3,0,0.763,0,0,0,0, ,0,0,0,0,0, ,832,98.8,538.2,-0.9,-0.4,-2,25,827.553,97.4768,540.154,-0.899765,-0.481769,-2.03609,
2026_07_06_17_19_45.877,3.873,36.2,0,0.764,0,0,0,0, ,0,0,0,0,0, ,829.1,97.9,540.2,-0.9,-0.7,-1.8,25,827.736,97.53,540.096,-0.89978,-0.485926,-2.0278,
2026_07_06_17_19_45.885,3.873,36.3,0,0.764,0,0,0,0, ,0,0,0,0,0, ,824.2,98.2,545.1,-1.1,-1,-2.1,25,827.669,97.5617,540.252,-0.905887,-0.508112,-2.02306,
2026_07_06_17_19_45.914,3.873,36.3,0,0.764,0,0,0,0, ,0,0,0,0,0, ,824.4,97.4,542.3,-1.2,-1.1,-2.1,25,827.464,97.5763,540.462,-0.920762,-0.541133,-2.02774,
2026_07_06_17_19_45.925,3.873,36.3,0,0.764,0,0,0,0, ,0,0,0,0,0, ,829.2,95.7,539,-1.2,-0.9,-2.1,25,827.424,97.5137,540.473,-0.937779,-0.569096,-2.03215,
2026_07_06_17_19_45.954,3.873,36.3,0,0.765,0,0,0,0, ,0,0,0,0,0, ,828.9,96.1,534.1,-1.2,-0.7,-2.2,25,827.523,97.4154,540.234,-0.953758,-0.583166,-2.03933,
2026_07_06_17_19_45.964,3.873,36.3,0,0.764,0,0,0,0, ,0,0,0,0,0, ,830.6,95.5,534.7,-0.5,0.1,-2,25,827.658,97.3169,539.879,-0.947435,-0.565911,-2.04303,
2026_07_06_17_19_45.994,3.873,36.3,0,0.764,0,0,0,0, ,0,0,0,0,0, ,825,96.8,536.9,-0.2,0.9,-2,25,827.667,97.2458,539.63,-0.911029,-0.500957,-2.0404,
2026_07_06_17_19_46.004,3.873,36.3,0,0.763,0,0,0,0, ,0,0,0,0,0, ,822.2,102.5,549.5,-0.5,0.4,-2.1,25,827.419,97.3923,539.848,-0.876841,-0.430821,-2.04099,
2026_07_06_17_19_46.032,3.873,36.3,0,0.765,0,0,0,0, ,0,0,0,0,0, ,828.2,99.7,545.5,-1.3,-0.8,-2.1,25,827.284,97.6183,540.314,-0.878252,-0.416755,-2.04459,
2026_07_06_17_19_46.042,3.873,36.2,0,0.764,0,0,0,0, ,0,0,0,0,0, ,826.9,98.3,541.6,-1.3,-1,-2,25,827.3,97.7025,540.511,-0.903953,-0.446203,-2.04492,
2026_07_06_17_19_46.073,3.873,36.3,0,0.764,0,0,0,0, ,0,0,0,0,0, ,824.2,97.5,544.1,-1.6,-1.4,-2,25,827.194,97.7145,540.654,-0.937227,-0.492137,-2.04218,
2026_07_06_17_19_46.083,3.873,36.3,0,0.764,0,0,0,0, ,0,0,0,0,0, ,827.2,95.7,539.1,-1.2,-1.3,-2,25,827.103,97.6466,540.711,-0.965428,-0.544413,-2.03961,
2026_07_06_17_19_46.112,3.873,36.3,0,0.764,0,0,0,0, ,0,0,0,0,0, ,831.5,97.1,529.2,-0.8,-0.3,-1.9,25,827.24,97.5706,540.312,-0.967534,-0.559988,-2.03415,
2026_07_06_17_19_46.122,3.873,36.3,0,0.764,0,0,0,0, ,0,0,0,0,0, ,831.5,101.3,543.5,-0.7,0,-2,25,827.499,97.6699,540.07,-0.954278,-0.535004,-2.02902,
2026_07_06_17_19_46.153,3.873,36.3,0,0.765,0,0,0,0, ,0,0,0,0,0, ,822.6,98,545.2,-1,-0.7,-1.9,25,827.472,97.7906,540.331,-0.947924,-0.523731,-2.0242,
2026_07_06_17_19_46.162,3.873,36.2,0,0.764,0,0,0,0, ,0,0,0,0,0, ,825.1,95.2,537.4,-1,-0.5,-1.9,25,827.251,97.718,540.39,-0.951097,-0.528378,-2.01664,
2026_07_06_17_19_46.191,3.873,36.3,0,0.764,0,0,0,0, ,0,0,0,0,0, ,828.9,96.5,540.8,-0.6,0,-2.1,25,827.236,97.6042,540.311,-0.94189,-0.511415,-2.01562,
2026_07_06_17_19_46.201,3.873,36.3,0,0.766,0,0,0,0, ,0,0,0,0,0, ,830.3,101.5,543.9,-0.8,-0.2,-1.9,25,827.38,97.6893,540.436,-0.92715,-0.486344,-2.01467,
2026_07_06_17_19_46.231,3.873,36.2,0,0.765,0,0,0,0, ,0,0,0,0,0, ,827.6,97.6,538,-0.9,-0.5,-1.9,25,827.476,97.8026,540.467,-0.922448,-0.478036,-2.00768,
2026_07_06_17_19_46.241,3.873,36.3,0,0.765,0,0,0,0, ,0,0,0,0,0, ,826,98.1,541,-0.8,-0.1,-2.1,25,827.434,97.8055,540.408,-0.918033,-0.467187,-2.00721,
2026_07_06_17_19_46.270,3.873,36.3,0,0.765,0,0,0,0, ,0,0,0,0,0, ,824.9,97.9,545.5,-1,-0.5,-2,25,827.313,97.8174,540.581,-0.916935,-0.456999,-2.00982,
2026_07_06_17_19_46.280,3.873,36.3,0,0.763,0,0,0,0, ,0,0,0,0,0, ,826,99.3,546,-0.8,-1.1,-2,25,827.2,97.8651,540.896,-0.915903,-0.4779,-2.00922,
2026_07_06_17_19_46.309,3.873,36.3,0,0.764,0,0,0,0, ,0,0,0,0,0, ,828.8,97.5,541.8,-1.4,-1.9,-2.1,25,827.212,97.8977,541.079,-0.927121,-0.540184,-2.01171,
2026_07_06_17_19_46.321,3.873,36.2,0,0.764,0,0,0,0, ,0,0,0,0,0, ,826.9,97.6,536.9,-1.2,-1.4,-2.1,25,827.251,97.8765,540.974,-0.949843,-0.607814,-2.01709,
2026_07_06_17_19_46.351,3.873,36.3,0,0.765,0,0,0,0, ,0,0,0,0,0, ,827.8,98.5,535.2,-1,-0.7,-2.1,25,827.257,97.8871,540.674,-0.958994,-0.63476,-2.02214,
2026_07_06_17_19_46.359,3.873,36.3,0,0.764,0,0,0,0, ,0,0,0,0,0, ,827,98.9,537.8,-0.9,-0.3,-2,25,827.266,97.9366,540.42,-0.958445,-0.626548,-2.02384,
2026_07_06_17_19_46.390,3.873,36.3,0,0.764,0,0,0,0, ,0,0,0,0,0, ,827.1,101,545.7,-1.2,-0.9,-1.8,25,827.253,98.0593,540.501,-0.964025,-0.62493,-2.01629,
2026_07_06_17_19_46.400,3.873,36.1,0,0.764,0,0,0,0, ,0,0,0,0,0, ,827.5,99.8,537.8,-1.2,-1,-1.7,25,827.255,98.2019,540.577,-0.978404,-0.644739,-2.00006,
2026_07_06_17_19_46.431,3.873,36.2,0,0.764,0,0,0,0, ,0,0,0,0,0, ,828.4,96.1,535,-0.9,-0.8,-1.8,25,827.298,98.1866,540.322,-0.982767,-0.660294,-1.98483,
2026_07_06_17_19_46.439,3.873,36.2,0,0.764,0,0,0,0, ,0,0,0,0,0, ,827.3,93.9,538,-0.6,-0.5,-1.9,25,827.331,97.9924,540.089,-0.968583,-0.659667,-1.97661,
2026_07_06_17_19_46.468,3.873,36.2,0,0.765,0,0,0,0, ,0,0,0,0,0, ,828,97.1,539.3,-0.8,-0.1,-2.1,25,827.351,97.8405,540.002,-0.952216,-0.637749,-1.97804,
2026_07_06_17_19_46.478,3.873,36.3,0,0.764,0,0,0,0, ,0,0,0,0,0, ,828.6,98,543.3,-0.7,-0.4,-2,25,827.409,97.8228,540.081,-0.939894,-0.614121,-1.98242,
2026_07_06_17_19_46.508,3.873,36.3,0,0.765,0,0,0,0, ,0,0,0,0,0, ,822.8,97.6,546.3,-1.1,-1.2,-1.9,25,827.305,97.8214,540.368,-0.937463,-0.625448,-1.98045,
2026_07_06_17_19_46.518,3.873,36.3,0,0.763,0,0,0,0, ,0,0,0,0,0, ,823.6,98.9,536.4,-1.2,-0.7,-2.1,25,827.054,97.8475,540.428,-0.950414,-0.645225,-1.98164,
2026_07_06_17_19_46.549,3.873,36.2,0,0.763,0,0,0,0, ,0,0,0,0,0, ,832.6,97.9,531.1,-0.9,0,-2.1,25,827.118,97.8812,540.021,-0.956483,-0.627235,-1.98885,
2026_07_06_17_19_46.558,3.873,36.3,0,0.764,0,0,0,0, ,0,0,0,0,0, ,832.6,100.2,536.8,-0.6,0.7,-2.2,25,827.452,97.9524,539.651,-0.9439,-0.567685,-1.99867,
2026_07_06_17_19_46.589,3.873,36.1,0,0.765,0,0,0,0, ,0,0,0,0,0, ,826,97.6,544.1,-0.7,0.4,-2.1,25,827.565,98.0102,539.7,-0.925991,-0.499576,-2.00789,
2026_07_06_17_19_46.597,3.873,36.2,0,0.764,0,0,0,0, ,0,0,0,0,0, ,822.2,98.8,552.2,-1.1,-0.5,-2.2,25,827.354,98.0217,540.215,-0.924407,-0.47218,-2.01655,
2026_07_06_17_19_46.628,3.873,36.3,0,0.764,0,0,0,0, ,0,0,0,0,0, ,825.6,98.7,542.8,-1.1,-0.7,-2,25,827.143,98.0661,540.659,-0.935107,-0.479969,-2.02164,
2026_07_06_17_19_46.637,3.873,36.2,0,0.765,0,0,0,0, ,0,0,0,0,0, ,828,100.7,541.7,-1,-1.2,-2.1,25,827.122,98.1657,540.756,-0.942108,-0.508611,-2.02336,
2026_07_06_17_19_46.668,3.873,36.1,0,0.763,0,0,0,0, ,0,0,0,0,0, ,830.6,97.7,540,-1.4,-1.2,-2.2,25,827.255,98.2287,540.761,-0.957824,-0.550743,-2.03108,
2026_07_06_17_19_46.676,3.873,36.1,0,0.764,0,0,0,0, ,0,0,0,0,0, ,825.6,98.7,540.4,-1.4,-1.3,-2.3,25,827.306,98.227,540.727,-0.984769,-0.593354,-2.04442,
2026_07_06_17_19_46.707,3.873,36.2,0,0.765,0,0,0,0, ,0,0,0,0,0, ,823.7,96.5,538.2,-1.2,-0.8,-2.1,25,827.145,98.1888,540.64,-1.00398,-0.621181,-2.0539,
2026_07_06_17_19_46.716,3.873,36.2,0,0.763,0,0,0,0, ,0,0,0,0,0, ,824.9,98.6,538.6,-0.6,-0.1,-1.9,25,826.971,98.1498,540.504,-0.997642,-0.610749,-2.05062,
2026_07_06_17_19_46.745,3.873,36.2,0,0.764,0,0,0,0, ,0,0,0,0,0, ,828.4,100.3,543.2,-0.8,0,-1.9,25,826.952,98.2291,540.528,-0.979504,-0.576579,-2.04144,
2026_07_06_17_19_46.755,3.873,36.2,0,0.763,0,0,0,0, ,0,0,0,0,0, ,827.7,99.8,543.9,-0.8,0,-1.9,25,827.019,98.34,540.712,-0.968566,-0.541443,-2.03282,
2026_07_06_17_19_46.788,3.873,36.2,0,0.764,0,0,0,0, ,0,0,0,0,0, ,825.9,99.6,542.1,-0.9,-0.6,-1.8,25,827.005,98.4229,540.851,-0.961341,-0.526731,-2.02168,
2026_07_06_17_19_46.794,3.873,36.2,0,0.763,0,0,0,0, ,0,0,0,0,0, ,823.6,97.2,538.3,-0.9,-0.6,-1.8,25,826.868,98.4215,540.812,-0.957603,-0.531195,-2.00817,
2026_07_06_17_19_46.825,3.873,36.2,0,0.764,0,0,0,0, ,0,0,0,0,0, ,829.8,97.6,542.8,-1.1,-0.5,-2,25,826.858,98.3593,540.796,-0.960186,-0.532341,-2.00158,
2026_07_06_17_19_46.835,3.873,36.1,0,0.764,0,0,0,0, ,0,0,0,0,0, ,827.6,100.2,543.2,-1.1,-1,-2.1,25,826.97,98.3922,540.93,-0.968706,-0.545605,-2.00453,
2026_07_06_17_19_46.867,3.873,36.2,0,0.763,0,0,0,0, ,0,0,0,0,0, ,825.1,99.3,541.5,-1,-1.3,-2.1,25,826.932,98.4749,541.017,-0.97366,-0.582435,-2.01035,
2026_07_06_17_19_46.876,3.873,36.1,0,0.765,0,0,0,0, ,0,0,0,0,0, ,823.2,95.2,534.7,-1.1,-0.9,-1.8,25,826.763,98.4003,540.839,-0.978312,-0.613974,-2.00667,
2026_07_06_17_19_46.907,3.873,36.2,0,0.764,0,0,0,0, ,0,0,0,0,0, ,826.4,95.5,541.1,-0.9,-0.3,-2,25,826.643,98.2144,540.66,-0.979634,-0.613123,-2.00017,
2026_07_06_17_19_46.914,3.873,36.1,0,0.764,0,0,0,0, ,0,0,0,0,0, ,830.5,97.7,538.8,-0.9,-0.3,-2.1,25,826.753,98.116,540.617,-0.974781,-0.594042,-2.00321,
2026_07_06_17_19_46.943,3.873,36.1,0,0.764,0,0,0,0, ,0,0,0,0,0, ,831.4,98.3,537.4,-0.7,0,-2.2,25,827.009,98.109,540.463,-0.96413,-0.566983,-2.01215,
2026_07_06_17_19_46.953,3.873,36.1,0,0.764,0,0,0,0, ,0,0,0,0,0, ,826.7,97.7,543,-0.8,-0.1,-2.1,25,827.133,98.1023,540.447,-0.951082,-0.535479,-2.02055,
2026_07_06_17_19_46.985,3.873,36.1,0,0.763,0,0,0,0, ,0,0,0,0,0, ,820.9,101.9,543.8,-0.8,0,-2.2,25,826.93,98.2058,540.627,-0.941875,-0.505895,-2.02844,
2026_07_06_17_19_46.993,3.873,36.1,0,0.764,0,0,0,0, ,0,0,0,0,0, ,826.2,100.4,539.3,-1,-0.4,-2,25,826.724,98.3852,540.683,-0.939323,-0.487255,-2.0328,
2026_07_06_17_19_47.025,3.873,36.1,0,0.765,0,0,0,0, ,0,0,0,0,0, ,828.8,98.7,544.9,-1,-0.4,-1.9,25,826.771,98.4562,540.77,-0.943021,-0.481938,-2.02776,
2026_07_06_17_19_47.032,3.873,36.2,0,0.764,0,0,0,0, ,0,0,0,0,0, ,828.6,98.5,544.5,-1,-1,-1.8,25,826.889,98.4649,541.009,-0.946493,-0.495226,-2.01692,
2026_07_06_17_19_47.064,3.873,36.1,0,0.763,0,0,0,0, ,0,0,0,0,0, ,826.4,99.8,541.1,-1.2,-1.1,-2,25,826.926,98.5067,541.118,-0.955847,-0.529033,-2.0098,
2026_07_06_17_19_47.072,3.873,36.1,0,0.764,0,0,0,0, ,0,0,0,0,0, ,827.3,99.9,542.6,-1.1,-1.3,-2,25,826.922,98.5885,541.163,-0.967679,-0.56992,-2.0092,
2026_07_06_17_19_47.103,3.873,36.2,0,0.764,0,0,0,0, ,0,0,0,0,0, ,825.3,100.7,537.8,-0.7,-0.7,-1.7,25,826.884,98.6928,541.104,-0.963554,-0.596128,-1.9995,
2026_07_06_17_19_47.111,3.873,36.2,0,0.762,0,0,0,0, ,0,0,0,0,0, ,825.8,98.6,544,-1,-0.9,-1.6,25,826.802,98.7512,541.092,-0.956635,-0.608551,-1.9782,
2026_07_06_17_19_47.144,3.873,36.1,0,0.763,0,0,0,0, ,0,0,0,0,0, ,826.5,98.6,539.3,-1,-1.1,-1.5,25,826.763,98.742,541.126,-0.959277,-0.632405,-1.95211,
2026_07_06_17_19_47.152,3.873,36.2,0,0.765,0,0,0,0, ,0,0,0,0,0, ,831.5,94.9,535.6,-0.6,-0.4,-1.7,25,826.899,98.6206,540.902,-0.949571,-0.639571,-1.93065,
2026_07_06_17_19_47.181,3.873,36.1,0,0.764,0,0,0,0, ,0,0,0,0,0, ,828.3,98.5,538.5,-0.4,0,-1.9,25,827.082,98.5035,540.667,-0.922176,-0.612785,-1.92269,
2026_07_06_17_19_47.190,3.873,36.1,0,0.763,0,0,0,0, ,0,0,0,0,0, ,827.1,101.4,546.5,-0.9,-0.5,-2,25,827.12,98.5917,540.779,-0.90559,-0.590677,-1.92435,
2026_07_06_17_19_47.223,3.873,36.1,0,0.764,0,0,0,0, ,0,0,0,0,0, ,825.6,99.9,543.7,-1.2,-1,-1.8,25,827.073,98.7171,541.042,-0.91439,-0.600386,-1.92287,
2026_07_06_17_19_47.231,3.873,36.1,0,0.764,0,0,0,0, ,0,0,0,0,0, ,826.2,94.9,536.6,-1,-0.8,-1.7,25,827.001,98.6368,540.988,-0.9257,-0.618644,-1.91234,
2026_07_06_17_19_47.263,3.873,36.1,0,0.764,0,0,0,0, ,0,0,0,0,0, ,827,95.3,536,-0.4,0,-1.8,25,826.977,98.4213,540.702,-0.911947,-0.60532,-1.90244,
2026_07_06_17_19_47.269,3.873,36.1,0,0.764,0,0,0,0, ,0,0,0,0,0, ,827.1,96.5,542.9,-0.2,0.3,-1.9,25,826.981,98.2677,540.626,-0.874656,-0.559293,-1.89925,
2026_07_06_17_19_47.302,3.873,36.1,0,0.763,0,0,0,0, ,0,0,0,0,0, ,827.6,100.9,549.3,-0.9,-0.9,-2,25,827.004,98.294,540.959,-0.854873,-0.543492,-1.90234,
2026_07_06_17_19_47.310,3.873,36.1,0,0.764,0,0,0,0, ,0,0,0,0,0, ,830.2,100.2,543.9,-1.8,-2.2,-2.2,25,827.119,98.4315,541.303,-0.885044,-0.604826,-1.91439,
2026_07_06_17_19_47.341,3.873,36.1,0,0.765,0,0,0,0, ,0,0,0,0,0, ,826.4,99.2,537.5,-1.7,-2.2,-2.3,25,827.191,98.5088,541.266,-0.937753,-0.702032,-1.93484,
2026_07_06_17_19_47.354,3.873,36.1,0,0.763,0,0,0,0, ,0,0,0,0,0, ,823.7,98.9,532.2,-1.1,-0.8,-2.2,25,827.061,98.5418,540.875,-0.965921,-0.750658,-1.95404,
