UTC_Time,Vin,TC1,TC2,Rh1,Vh1,Ah1,Acp1,Dty1,Err1,Rh2,Vh2,Ah2,Acp2,Dty2,Err2,Accel_x,Accel_y,Accel_z,gyro_x,gyro_y,gyro_z,Temp_c,Accel_x_h,Accel_y_h,Accel_z_h,gyro_x_h,gyro_y_h,gyro_z_h,
2026_06_26_18_26_17.600,0,30.8,0,0.758,0,0,0,0, ,0,0,0,0,0, ,212.5,-345.3,916.3,-0.3,-0.1,-1.7,25,212.5,-345.3,916.3,-0.3,-0.1,-1.7,
2026_06_26_18_26_17.619,0,30.7,0,0.758,0,0,0,0, ,0,0,0,0,0, ,216,-347.6,918.8,-0.7,-0.3,-1.8,25,212.607,-345.37,916.376,-0.312188,-0.106094,-1.70305,
2026_06_26_18_26_17.638,0,30.5,0,0.758,0,0,0,0, ,0,0,0,0,0, ,215.4,-347.5,914,-0.8,0,-1.4,25,212.795,-345.503,916.378,-0.338867,-0.108769,-1.69677,
2026_06_26_18_26_17.658,0,30.7,0,0.759,0,0,0,0, ,0,0,0,0,0, ,210.3,-344.3,913.6,-1,-0.1,-1.6,25,212.798,-345.527,916.221,-0.373061,-0.105188,-1.68478,
2026_06_26_18_26_17.678,0,30.7,0,0.759,0,0,0,0, ,0,0,0,0,0, ,210.8,-346.1,912.7,-1,-0.8,-1.9,25,212.661,-345.507,916.033,-0.411265,-0.1262,-1.68875,
2026_06_26_18_26_17.698,0,30.8,0,0.758,0,0,0,0, ,0,0,0,0,0, ,211.3,-346.5,912.7,-0.6,-1,-1.8,25,212.563,-345.555,915.83,-0.434953,-0.173353,-1.69858,
2026_06_26_18_26_17.718,0,30.8,0,0.759,0,0,0,0, ,0,0,0,0,0, ,213.6,-347.4,916,-0.2,-0.2,-1.4,25,212.556,-345.64,915.74,-0.432823,-0.199352,-1.69257,
2026_06_26_18_26_17.738,0,30.7,0,0.762,0,0,0,0, ,0,0,0,0,0, ,208.7,-346.8,918.2,-0.4,0,-1.5,25,212.471,-345.729,915.823,-0.42473,-0.193298,-1.67779,
2026_06_26_18_26_17.758,0,30.8,0,0.76,0,0,0,0, ,0,0,0,0,0, ,211.6,-348,917.9,-0.9,-0.6,-1.9,25,212.329,-345.831,915.959,-0.438457,-0.1998,-1.67914,
2026_06_26_18_26_17.778,0,30.8,0,0.76,0,0,0,0, ,0,0,0,0,0, ,213.7,-347.9,914.3,-0.7,0.1,-1.6,25,212.349,-345.96,915.967,-0.460488,-0.202859,-1.68346,
2026_06_26_18_26_17.798,0,30.7,0,0.758,0,0,0,0, ,0,0,0,0,0, ,208.1,-347.4,913,-0.5,-0.1,-1.5,25,212.261,-346.063,915.826,-0.46899,-0.190497,-1.67533,
2026_06_26_18_26_17.817,0,30.8,0,0.759,0,0,0,0, ,0,0,0,0,0, ,210.2,-347.5,917.4,-0.7,-1,-2.2,25,212.071,-346.148,915.788,-0.476973,-0.212405,-1.68597,
2026_06_26_18_26_17.840,0,30.7,0,0.76,0,0,0,0, ,0,0,0,0,0, ,212.7,-347.1,917.4,-1,-0.9,-1.8,25,212.033,-346.218,915.886,-0.499705,-0.257352,-1.70511,
2026_06_26_18_26_17.857,0,30.8,0,0.76,0,0,0,0, ,0,0,0,0,0, ,211.9,-344.9,915.7,-1,0,-1.9,25,212.049,-346.205,915.927,-0.530191,-0.269091,-1.71394,
2026_06_26_18_26_17.877,0,30.7,0,0.76,0,0,0,0, ,0,0,0,0,0, ,208.8,-344.7,909.3,-0.6,-0.1,-1.8,25,211.946,-346.119,915.718,-0.546633,-0.25574,-1.72223,
2026_06_26_18_26_17.896,0,30.8,0,0.762,0,0,0,0, ,0,0,0,0,0, ,213.5,-345.4,909.9,-0.3,-0.3,-1.9,25,211.897,-346.054,915.345,-0.540744,-0.252344,-1.73001,
2026_06_26_18_26_17.916,0,30.7,0,0.76,0,0,0,0, ,0,0,0,0,0, ,210.8,-345.7,912.5,0,0,-1.5,25,211.913,-346.023,915.092,-0.516933,-0.246107,-1.72819,
2026_06_26_18_26_17.935,0,30.7,0,0.76,0,0,0,0, ,0,0,0,0,0, ,211.6,-344.2,919.1,-0.6,-1.1,-1.9,25,211.869,-345.958,915.136,-0.503714,-0.264626,-1.72647,
2026_06_26_18_26_17.955,0,30.8,0,0.761,0,0,0,0, ,0,0,0,0,0, ,214.4,-347.1,920.5,-0.9,-0.8,-2,25,211.938,-345.939,915.42,-0.518722,-0.306391,-1.74009,
2026_06_26_18_26_17.975,0,30.8,0,0.76,0,0,0,0, ,0,0,0,0,0, ,215.9,-348.1,919.5,-0.2,0.1,-1.3,25,212.134,-346.04,915.699,-0.520628,-0.309048,-1.7346,
2026_06_26_18_26_17.995,0,30.8,0,0.759,0,0,0,0, ,0,0,0,0,0, ,208.3,-345,916.7,-0.4,-0.4,-1.2,25,212.132,-346.071,915.845,-0.507183,-0.299356,-1.70507,
2026_06_26_18_26_18.015,0,30.7,0,0.759,0,0,0,0, ,0,0,0,0,0, ,205.2,-345.4,923.3,-0.9,-1.3,-1.8,25,211.804,-346.018,916.098,-0.515886,-0.332911,-1.69257,
2026_06_26_18_26_18.034,0,30.7,0,0.761,0,0,0,0, ,0,0,0,0,0, ,207.1,-347.5,924.8,-1.5,-0.9,-2.2,25,211.459,-346.045,916.583,-0.557575,-0.379655,-1.71131,
2026_06_26_18_26_18.054,0,30.7,0,0.76,0,0,0,0, ,0,0,0,0,0, ,212.8,-349.1,917.6,-1.2,-0.3,-2.1,25,211.367,-346.182,916.864,-0.605863,-0.393083,-1.73804,
2026_06_26_18_26_18.075,0,30.7,0,0.76,0,0,0,0, ,0,0,0,0,0, ,214.1,-346.1,911.1,-0.9,0,-2.1,25,211.494,-346.268,916.711,-0.632928,-0.37827,-1.7601,
2026_06_26_18_26_18.094,0,30.7,0,0.76,0,0,0,0, ,0,0,0,0,0, ,212.4,-346.8,909.5,-1,-0.2,-1.4,25,211.601,-346.279,916.32,-0.652249,-0.361313,-1.75948,
2026_06_26_18_26_18.115,0,30.7,0,0.76,0,0,0,0, ,0,0,0,0,0, ,209.8,-345.3,909.9,-1,-0.4,-1.8,25,211.571,-346.266,915.917,-0.67344,-0.357577,-1.74976,
2026_06_26_18_26_18.134,0,30.7,0,0.76,0,0,0,0, ,0,0,0,0,0, ,209.7,-347,913,-1,-0.5,-2,25,211.46,-346.258,915.645,-0.69334,-0.363209,-1.75892,
2026_06_26_18_26_18.154,0,30.8,0,0.758,0,0,0,0, ,0,0,0,0,0, ,211.7,-349.4,911.9,-1.5,-0.8,-2.4,25,211.413,-346.377,915.45,-0.727261,-0.380685,-1.7858,
2026_06_26_18_26_18.174,0,30.8,0,0.76,0,0,0,0, ,0,0,0,0,0, ,211.1,-346.8,908.9,-1.2,-0.8,-2.3,25,211.413,-346.482,915.142,-0.76521,-0.406237,-1.82018,
2026_06_26_18_26_18.193,0,30.7,0,0.76,0,0,0,0, ,0,0,0,0,0, ,215.6,-346.3,911.3,0,-0.4,-1.5,25,211.531,-346.486,914.835,-0.755142,-0.418044,-1.82504,
2026_06_26_18_26_18.213,0,30.7,0,0.76,0,0,0,0, ,0,0,0,0,0, ,207.8,-345.7,919.6,-0.3,0.1,-1.3,25,211.541,-346.456,914.873,-0.718266,-0.40171,-1.79914,
2026_06_26_18_26_18.233,0,30.7,0,0.761,0,0,0,0, ,0,0,0,0,0, ,207,-343.9,920.6,-1,-0.5,-2.1,25,211.289,-346.355,915.191,-0.714106,-0.389419,-1.7931,
2026_06_26_18_26_18.253,0,30.8,0,0.759,0,0,0,0, ,0,0,0,0,0, ,210.9,-346.4,917.3,-1.1,-0.4,-2.2,25,211.146,-346.282,915.42,-0.734575,-0.39311,-1.81485,
2026_06_26_18_26_18.273,0,30.7,0,0.76,0,0,0,0, ,0,0,0,0,0, ,212.4,-347.5,914.3,-0.2,0,-1.7,25,211.177,-346.323,915.443,-0.729421,-0.381343,-1.82308,
2026_06_26_18_26_18.292,0,30.7,0,0.76,0,0,0,0, ,0,0,0,0,0, ,208.1,-346.8,917.7,-0.4,-0.1,-1.5,25,211.12,-346.373,915.477,-0.703253,-0.361152,-1.80949,
2026_06_26_18_26_18.312,0,30.8,0,0.761,0,0,0,0, ,0,0,0,0,0, ,208.7,-348,921.7,-0.7,-0.5,-2,25,210.955,-346.436,915.735,-0.693914,-0.357425,-1.80586,
2026_06_26_18_26_18.332,0,30.7,0,0.762,0,0,0,0, ,0,0,0,0,0, ,211,-348.1,918,-1.2,-0.7,-2.3,25,210.887,-346.534,915.985,-0.70952,-0.372207,-1.82684,
2026_06_26_18_26_18.351,0,30.7,0,0.759,0,0,0,0, ,0,0,0,0,0, ,216.3,-350.2,914.3,-1.5,-0.1,-2.7,25,211.056,-346.693,915.995,-0.748549,-0.373901,-1.86786,
2026_06_26_18_26_18.372,0,30.7,0,0.76,0,0,0,0, ,0,0,0,0,0, ,219.9,-350.7,908.4,-0.9,-0.4,-2,25,211.485,-346.922,915.712,-0.776059,-0.36635,-1.89724,
2026_06_26_18_26_18.391,0,30.7,0,0.761,0,0,0,0, ,0,0,0,0,0, ,219.1,-350.9,911.8,-0.5,-0.3,-1.2,25,211.973,-347.159,915.37,-0.771424,-0.365354,-1.87912,
2026_06_26_18_26_18.411,0,30.8,0,0.759,0,0,0,0, ,0,0,0,0,0, ,212.2,-346.9,912.1,-0.4,-0.4,-1.3,25,212.197,-347.265,915.162,-0.751837,-0.364418,-1.84079,
2026_06_26_18_26_18.432,0,30.7,0,0.759,0,0,0,0, ,0,0,0,0,0, ,208.7,-345,912.7,-0.7,-0.8,-1.5,25,212.091,-347.185,914.994,-0.739538,-0.378774,-1.81393,
2026_06_26_18_26_18.451,0,30.8,0,0.761,0,0,0,0, ,0,0,0,0,0, ,207.6,-344.1,914.9,-0.8,-0.5,-1.6,25,211.851,-347.024,914.921,-0.740176,-0.395302,-1.79784,
2026_06_26_18_26_18.471,0,30.7,0,0.76,0,0,0,0, ,0,0,0,0,0, ,207.3,-346.6,915.5,-0.3,-0.1,-1.5,25,211.583,-346.922,914.938,-0.728587,-0.389495,-1.78274,
2026_06_26_18_26_18.491,0,30.8,0,0.76,0,0,0,0, ,0,0,0,0,0, ,203.7,-344.3,915.2,-0.5,0.1,-1.7,25,211.212,-346.832,914.963,-0.708563,-0.36576,-1.7716,
2026_06_26_18_26_18.510,0,30.8,0,0.759,0,0,0,0, ,0,0,0,0,0, ,206.5,-346.9,917.7,-0.5,-0.8,-2.1,25,210.839,-346.757,915.054,-0.695854,-0.364799,-1.77943,
2026_06_26_18_26_18.530,0,30.7,0,0.761,0,0,0,0, ,0,0,0,0,0, ,212.2,-348.6,917.1,-0.9,-1.2,-2,25,210.749,-346.818,915.197,-0.696107,-0.403507,-1.79592,
2026_06_26_18_26_18.550,0,30.7,0,0.76,0,0,0,0, ,0,0,0,0,0, ,208.6,-347.7,918,-1.1,-0.9,-2.1,25,210.727,-346.899,915.34,-0.714625,-0.442903,-1.8114,
2026_06_26_18_26_18.570,0,30.7,0,0.761,0,0,0,0, ,0,0,0,0,0, ,208.8,-347.5,913.5,-0.7,-0.4,-2.1,25,210.604,-346.942,915.365,-0.725922,-0.455523,-1.82899,
2026_06_26_18_26_18.590,0,30.7,0,0.76,0,0,0,0, ,0,0,0,0,0, ,212.6,-347.6,916.9,-0.2,0.4,-2,25,210.61,-346.979,915.355,-0.709108,-0.427764,-1.84245,
2026_06_26_18_26_18.610,0,30.7,0,0.759,0,0,0,0, ,0,0,0,0,0, ,214.8,-347.4,915.8,-0.7,-0.3,-2,25,210.798,-347.011,915.416,-0.693318,-0.39865,-1.85205,
2026_06_26_18_26_18.630,0,30.7,0,0.761,0,0,0,0, ,0,0,0,0,0, ,214.4,-348.8,913.9,-1.2,-0.8,-2.1,25,211.03,-347.077,915.381,-0.70896,-0.407873,-1.86412,
2026_06_26_18_26_18.650,0,30.8,0,0.758,0,0,0,0, ,0,0,0,0,0, ,217,-347.2,909.6,-0.8,-0.6,-1.7,25,211.314,-347.133,915.16,-0.726695,-0.425675,-1.8663,
2026_06_26_18_26_18.669,0,30.7,0,0.759,0,0,0,0, ,0,0,0,0,0, ,213.3,-347.2,915.5,-0.3,-0.3,-1.4,25,211.548,-347.137,915.001,-0.715928,-0.427157,-1.84703,
2026_06_26_18_26_18.689,0,30.8,0,0.759,0,0,0,0, ,0,0,0,0,0, ,212,-347.7,916.8,-0.4,0.1,-1.6,25,211.615,-347.156,915.071,-0.693629,-0.407221,-1.82588,
2026_06_26_18_26_18.709,0,30.7,0,0.76,0,0,0,0, ,0,0,0,0,0, ,210.8,-348.1,917.6,-0.9,-0.2,-1.7,25,211.602,-347.202,915.201,-0.69097,-0.385453,-1.81516,
2026_06_26_18_26_18.729,0,30.8,0,0.76,0,0,0,0, ,0,0,0,0,0, ,209.3,-346.8,914.7,-0.7,-0.3,-1.7,25,211.508,-347.217,915.258,-0.697614,-0.377199,-1.80815,
2026_06_26_18_26_18.748,0,30.7,0,0.761,0,0,0,0, ,0,0,0,0,0, ,209.8,-347.7,914.5,-0.6,0,-1.7,25,211.388,-347.219,915.218,-0.694713,-0.363354,-1.80156,
2026_06_26_18_26_18.768,0,30.7,0,0.761,0,0,0,0, ,0,0,0,0,0, ,207.5,-346.9,914.4,-1,-0.5,-2,25,211.221,-347.224,915.171,-0.701129,-0.356446,-1.80451,
2026_06_26_18_26_18.788,0,30.7,0,0.761,0,0,0,0, ,0,0,0,0,0, ,213.2,-345.9,914.4,-1,-0.4,-1.7,25,211.168,-347.174,915.124,-0.719341,-0.362147,-1.80728,
2026_06_26_18_26_18.809,0,30.8,0,0.759,0,0,0,0, ,0,0,0,0,0, ,208.2,-346.1,912.3,-0.3,0.7,-1.1,25,211.14,-347.102,915.016,-0.715116,-0.330938,-1.78246,
2026_06_26_18_26_18.828,0,30.7,0,0.76,0,0,0,0, ,0,0,0,0,0, ,199.7,-343.5,914.3,-0.6,-0.1,-1.6,25,210.702,-346.962,914.912,-0.69896,-0.29249,-1.75611,
2026_06_26_18_26_18.848,0,30.7,0,0.76,0,0,0,0, ,0,0,0,0,0, ,208.4,-348.6,910.1,-0.6,-0.7,-2.3,25,210.296,-346.906,914.746,-0.69293,-0.299042,-1.76792,
2026_06_26_18_26_18.867,0,30.8,0,0.761,0,0,0,0, ,0,0,0,0,0, ,209.8,-347.1,912.1,-0.7,-0.4,-2.3,25,210.223,-346.964,914.524,-0.690314,-0.314335,-1.80035,
2026_06_26_18_26_18.887,0,30.8,0,0.76,0,0,0,0, ,0,0,0,0,0, ,212.7,-349.1,915,-0.9,-1,-2.2,25,210.286,-347.033,914.465,-0.696998,-0.337836,-1.82775,
2026_06_26_18_26_18.906,0,30.7,0,0.759,0,0,0,0, ,0,0,0,0,0, ,221.3,-350.5,916.9,0,-1.7,-1.5,25,210.695,-347.202,914.555,-0.681946,-0.399515,-1.8291,
2026_06_26_18_26_18.926,0,30.8,0,0.76,0,0,0,0, ,0,0,0,0,0, ,210.6,-348.7,918.7,0,0,-0.7,25,211.015,-347.348,914.753,-0.64039,-0.426966,-1.78467,
2026_06_26_18_26_18.950,0,30.5,0,0.761,0,0,0,0, ,0,0,0,0,0, ,200.1,-342.6,914.5,0,0.7,-1.4,25,210.67,-347.244,914.866,-0.601367,-0.37962,-1.7399,
2026_06_26_18_26_18.966,0,30.7,0,0.761,0,0,0,0, ,0,0,0,0,0, ,204.3,-346.6,919.4,-0.5,-0.8,-2.1,25,210.154,-347.083,914.993,-0.579955,-0.359534,-1.74052,
2026_06_26_18_26_18.985,0,30.8,0,0.76,0,0,0,0, ,0,0,0,0,0, ,207.5,-346.9,920.2,-0.9,-1.2,-2.3,25,209.895,-347.063,915.286,-0.58727,-0.398562,-1.76852,
2026_06_26_18_26_19.006,0,30.7,0,0.759,0,0,0,0, ,0,0,0,0,0, ,209.7,-349.7,915.2,-0.9,-0.7,-2.4,25,209.816,-347.138,915.433,-0.606327,-0.432165,-1.80395,
2026_06_26_18_26_19.025,0,30.7,0,0.76,0,0,0,0, ,0,0,0,0,0, ,212.5,-349.1,913.5,-0.6,-0.5,-1.8,25,209.894,-347.276,915.367,-0.615082,-0.442393,-1.82199,
2026_06_26_18_26_19.048,0,30.8,0,0.76,0,0,0,0, ,0,0,0,0,0, ,205.4,-345.2,911.9,-0.3,0.1,-1.5,25,209.837,-347.268,915.204,-0.605023,-0.427622,-1.81151,
2026_06_26_18_26_19.064,0,30.7,0,0.76,0,0,0,0, ,0,0,0,0,0, ,203.7,-343.2,914.5,-0.5,-0.5,-2,25,209.514,-347.081,915.082,-0.592529,-0.413751,-1.80776,
2026_06_26_18_26_19.085,0,30.8,0,0.759,0,0,0,0, ,0,0,0,0,0, ,208.8,-348.2,917.8,-0.8,-1.2,-2.6,25,209.315,-346.997,915.147,-0.596031,-0.440335,-1.83776,
2026_06_26_18_26_19.105,0,30.7,0,0.76,0,0,0,0, ,0,0,0,0,0, ,216.6,-350.4,916.6,-0.7,-0.5,-2.2,25,209.522,-347.138,915.272,-0.605414,-0.465299,-1.87202,
2026_06_26_18_26_19.125,0,30.7,0,0.76,0,0,0,0, ,0,0,0,0,0, ,214.8,-346.1,913.9,-0.5,0.2,-1.6,25,209.898,-347.205,915.271,-0.605084,-0.446086,-1.87373,
2026_06_26_18_26_19.144,0,30.7,0,0.759,0,0,0,0, ,0,0,0,0,0, ,211.9,-344.8,914.9,-0.4,-0.2,-1.5,25,210.109,-347.098,915.218,-0.595633,-0.418902,-1.854,
2026_06_26_18_26_19.164,0,30.5,0,0.76,0,0,0,0, ,0,0,0,0,0, ,208.7,-343.9,917.8,-0.5,-0.9,-1.9,25,210.12,-346.931,915.287,-0.586759,-0.426891,-1.84462,
2026_06_26_18_26_19.184,0,30.8,0,0.76,0,0,0,0, ,0,0,0,0,0, ,213.6,-345.7,920.7,-1,-0.3,-2.3,25,210.183,-346.801,915.528,-0.596706,-0.43744,-1.86018,
2026_06_26_18_26_19.203,0,30.8,0,0.76,0,0,0,0, ,0,0,0,0,0, ,215.2,-344.1,913.3,-0.8,0,-1.8,25,210.44,-346.685,915.618,-0.615188,-0.419924,-1.87174,
2026_06_26_18_26_19.223,0,30.7,0,0.76,0,0,0,0, ,0,0,0,0,0, ,212.6,-343.9,910.7,-0.4,-0.3,-1.3,25,210.651,-346.522,915.398,-0.614263,-0.403475,-1.85214,
2026_06_26_18_26_19.245,0,30.7,0,0.76,0,0,0,0, ,0,0,0,0,0, ,208.2,-348.2,920.4,-0.3,-1.1,-1.3,25,210.636,-346.493,915.407,-0.598159,-0.421545,-1.81849,
2026_06_26_18_26_19.263,0,30.8,0,0.76,0,0,0,0, ,0,0,0,0,0, ,207.6,-347.9,923.3,-0.6,-0.3,-1.6,25,210.469,-346.588,915.799,-0.589131,-0.438513,-1.79604,
2026_06_26_18_26_19.283,0,30.7,0,0.759,0,0,0,0, ,0,0,0,0,0, ,207.3,-348.6,918,-1,0.3,-2,25,210.285,-346.689,916.095,-0.601981,-0.411791,-1.79628,
2026_06_26_18_26_19.302,0,30.7,0,0.76,0,0,0,0, ,0,0,0,0,0, ,211.3,-348.1,912.5,-1.3,-0.6,-2.2,25,210.225,-346.79,916.044,-0.635376,-0.395838,-1.81479,
2026_06_26_18_26_19.323,0,30.7,0,0.761,0,0,0,0, ,0,0,0,0,0, ,216.4,-350.4,916.7,-0.9,-0.8,-1.8,25,210.446,-346.94,915.956,-0.663689,-0.414373,-1.82607,
2026_06_26_18_26_19.342,0,30.7,0,0.76,0,0,0,0, ,0,0,0,0,0, ,208,-347,911.1,-0.6,0,-1.2,25,210.553,-347.047,915.83,-0.668948,-0.413497,-1.8062,
2026_06_26_18_26_19.362,0,30.7,0,0.76,0,0,0,0, ,0,0,0,0,0, ,201.9,-345.7,913,-0.8,0.1,-1.7,25,210.211,-347.005,915.6,-0.67084,-0.385253,-1.7845,
2026_06_26_18_26_19.382,0,30.7,0,0.76,0,0,0,0, ,0,0,0,0,0, ,205.4,-343.8,909.7,-0.8,-0.3,-2,25,209.811,-346.867,915.341,-0.678711,-0.36787,-1.78849,
2026_06_26_18_26_19.402,0,30.7,0,0.759,0,0,0,0, ,0,0,0,0,0, ,207.3,-346.9,910.5,-0.8,-0.7,-2.3,25,209.6,-346.775,915.022,-0.686102,-0.375922,-1.81052,
2026_06_26_18_26_19.422,0,30.8,0,0.762,0,0,0,0, ,0,0,0,0,0, ,207.1,-346,912.8,-0.1,-1.1,-2.1,25,209.454,-346.755,914.816,-0.671715,-0.407858,-1.83425,
2026_06_26_18_26_19.441,0,30.8,0,0.76,0,0,0,0, ,0,0,0,0,0, ,207.2,-347.2,915,-0.4,-0.5,-2.3,25,209.314,-346.746,914.76,-0.646016,-0.431754,-1.85654,
2026_06_26_18_26_19.461,0,30.8,0,0.76,0,0,0,0, ,0,0,0,0,0, ,207.3,-345.3,915.2,-0.3,-0.6,-2.2,25,209.188,-346.716,914.781,-0.627978,-0.43896,-1.88052,
2026_06_26_18_26_19.481,0,30.7,0,0.76,0,0,0,0, ,0,0,0,0,0, ,214.4,-345.8,921,-0.2,-0.9,-1.9,25,209.289,-346.644,914.983,-0.604945,-0.457914,-1.89084,
2026_06_26_18_26_19.500,0,30.7,0,0.76,0,0,0,0, ,0,0,0,0,0, ,211.1,-347.2,922.2,-0.3,-0.4,-1.6,25,209.5,-346.636,915.386,-0.583315,-0.469619,-1.88226,
2026_06_26_18_26_19.521,0,30.7,0,0.76,0,0,0,0, ,0,0,0,0,0, ,205.6,-344.8,923.5,-0.8,-0.3,-2,25,209.43,-346.597,915.841,-0.581285,-0.46233,-1.87725,
2026_06_26_18_26_19.546,0,30.7,0,0.76,0,0,0,0, ,0,0,0,0,0, ,208.9,-344.8,916.9,-1.1,-0.3,-2.5,25,209.297,-346.487,916.107,-0.603754,-0.452438,-1.89996,
2026_06_26_18_26_19.560,0,30.7,0,0.761,0,0,0,0, ,0,0,0,0,0, ,212.2,-347.5,913.8,-0.8,-0.3,-2.4,25,209.374,-346.467,916.061,-0.624853,-0.443149,-1.93348,
2026_06_26_18_26_19.580,0,30.7,0,0.76,0,0,0,0, ,0,0,0,0,0, ,217.2,-346.8,913.8,-0.4,-0.5,-1.8,25,209.698,-346.509,915.923,-0.623339,-0.440519,-1.94363,
2026_06_26_18_26_19.600,0,30.7,0,0.762,0,0,0,0, ,0,0,0,0,0, ,215.8,-349.1,918.5,-0.5,-0.3,-1.4,25,210.113,-346.596,915.937,-0.612776,-0.43805,-1.92269,
2026_06_26_18_26_19.620,0,30.8,0,0.759,0,0,0,0, ,0,0,0,0,0, ,207.6,-347.7,919,-0.8,-0.8,-1.4,25,210.209,-346.706,916.108,-0.615044,-0.444872,-1.89084,
2026_06_26_18_26_19.639,0,30.8,0,0.76,0,0,0,0, ,0,0,0,0,0, ,200.3,-345.7,916.2,-0.8,0,-2.1,25,209.828,-346.706,916.199,-0.626315,-0.442138,-1.88226,
2026_06_26_18_26_19.659,0,30.7,0,0.76,0,0,0,0, ,0,0,0,0,0, ,206.2,-347,909.6,-0.9,0.2,-2.7,25,209.427,-346.684,915.998,-0.639946,-0.409101,-1.91381,
2026_06_26_18_26_19.679,0,30.7,0,0.76,0,0,0,0, ,0,0,0,0,0, ,220.5,-348.2,906.3,-0.6,0.6,-2.1,25,209.666,-346.74,915.508,-0.646652,-0.359797,-1.94343,
2026_06_26_18_26_19.700,0,30.7,0,0.761,0,0,0,0, ,0,0,0,0,0, ,216.6,-346.6,910.1,-0.2,-0.8,-1.1,25,210.208,-346.78,915.062,-0.631622,-0.343965,-1.9225,
2026_06_26_18_26_19.719,0,30.7,0,0.76,0,0,0,0, ,0,0,0,0,0, ,202.3,-342.6,916,-0.3,-1.6,-1.2,25,210.161,-346.647,914.94,-0.608367,-0.39613,-1.87543,
2026_06_26_18_26_19.738,0,30.8,0,0.76,0,0,0,0, ,0,0,0,0,0, ,198.6,-341.5,922.3,-0.3,-1,-2.2,25,209.57,-346.367,915.196,-0.589576,-0.451209,-1.86474,
2026_06_26_18_26_19.758,0,30.7,0,0.761,0,0,0,0, ,0,0,0,0,0, ,208.7,-340.9,921.5,-0.5,0,-2.3,25,209.209,-346.052,915.605,-0.578023,-0.454183,-1.88822,
2026_06_26_18_26_19.778,0,30.7,0,0.76,0,0,0,0, ,0,0,0,0,0, ,212.2,-345.8,923.9,-0.4,0.1,-2.1,25,209.284,-345.888,916.037,-0.570222,-0.423459,-1.90722,
2026_06_26_18_26_19.798,0,30.8,0,0.76,0,0,0,0, ,0,0,0,0,0, ,214.1,-351.3,923.7,-0.8,-1.4,-2.1,25,209.52,-346.05,916.51,-0.572037,-0.437264,-1.91896,
2026_06_26_18_26_19.817,0,30.7,0,0.761,0,0,0,0, ,0,0,0,0,0, ,215.5,-348.9,920.1,-1,-0.1,-1.9,25,209.842,-346.297,916.839,-0.592022,-0.456321,-1.9239,
2026_06_26_18_26_19.837,0,30.7,0,0.76,0,0,0,0, ,0,0,0,0,0, ,215.9,-348.1,916,-1.5,0,-1.8,25,210.199,-346.431,916.912,-0.632117,-0.431561,-1.9194,
2026_06_26_18_26_19.857,0,30.7,0,0.759,0,0,0,0, ,0,0,0,0,0, ,221.9,-345.2,912.5,-1.6,-0.9,-1.7,25,210.729,-346.444,916.75,-0.688051,-0.432685,-1.90908,
2026_06_26_18_26_19.881,0,30.7,0,0.761,0,0,0,0, ,0,0,0,0,0, ,217.8,-344.7,909.7,-1.3,-0.2,-0.5,25,211.285,-346.353,916.406,-0.734482,-0.439834,-1.85977,
2026_06_26_18_26_19.897,0,30.7,0,0.76,0,0,0,0, ,0,0,0,0,0, ,207.8,-344.2,908.8,-0.6,0.3,-0.4,25,211.377,-346.237,915.97,-0.747615,-0.409984,-1.77386,
2026_06_26_18_26_19.917,0,30.7,0,0.76,0,0,0,0, ,0,0,0,0,0, ,203.7,-343,908.5,-0.3,-0.3,-0.4,25,211.034,-346.077,915.524,-0.729479,-0.385001,-1.69014,
2026_06_26_18_26_19.936,0,30.7,0,0.759,0,0,0,0, ,0,0,0,0,0, ,195.9,-343.6,913.5,-0.2,-1.4,-1.1,25,210.35,-345.907,915.248,-0.700261,-0.413337,-1.63285,
2026_06_26_18_26_19.956,0,30.7,0,0.76,0,0,0,0, ,0,0,0,0,0, ,199.3,-345.2,920.1,-0.3,-1.5,-2,25,209.573,-345.816,915.343,-0.672823,-0.476508,-1.62781,
2026_06_26_18_26_19.976,0,30.7,0,0.761,0,0,0,0, ,0,0,0,0,0, ,207,-349.2,920.7,-0.1,-0.6,-1.7,25,209.181,-345.9,915.651,-0.644011,-0.511456,-1.64135,
2026_06_26_18_26_19.995,0,30.8,0,0.761,0,0,0,0, ,0,0,0,0,0, ,207.8,-349.7,919.9,-0.1,0,-1.4,25,209.073,-346.116,915.934,-0.61086,-0.49857,-1.63578,
2026_06_26_18_26_20.015,0,30.7,0,0.759,0,0,0,0, ,0,0,0,0,0, ,203.6,-347.9,922.1,-0.5,-0.7,-2,25,208.867,-346.28,916.243,-0.591917,-0.489517,-1.63969,
2026_06_26_18_26_20.035,0,30.7,0,0.761,0,0,0,0, ,0,0,0,0,0, ,207.3,-347.5,920,-1.1,-0.9,-2.4,25,208.659,-346.366,916.536,-0.604597,-0.508437,-1.67384,
2026_06_26_18_26_20.055,0,30.7,0,0.76,0,0,0,0, ,0,0,0,0,0, ,212.7,-347.5,917.9,-1.4,-0.2,-2.8,25,208.741,-346.435,916.683,-0.643926,-0.510969,-1.73027,
2026_06_26_18_26_20.075,0,30.7,0,0.76,0,0,0,0, ,0,0,0,0,0, ,220.7,-347.5,913.3,-1.7,0.1,-2.3,25,209.226,-346.5,916.617,-0.69914,-0.482879,-1.78023,
2026_06_26_18_26_20.095,0,30.7,0,0.76,0,0,0,0, ,0,0,0,0,0, ,214.1,-344.9,906.7,-1.1,0.1,-1.4,25,209.724,-346.482,916.214,-0.741849,-0.44736,-1.78448,
2026_06_26_18_26_20.114,0,30.7,0,0.759,0,0,0,0, ,0,0,0,0,0, ,206.9,-339.5,911.7,-0.2,-0.8,-1.3,25,209.771,-346.221,915.786,-0.736252,-0.441427,-1.758,
2026_06_26_18_26_20.134,0,30.5,0,0.759,0,0,0,0, ,0,0,0,0,0, ,208.6,-341,912.1,-0.5,-0.9,-1.9,25,209.648,-345.857,915.55,-0.712715,-0.466324,-1.74837,
2026_06_26_18_26_20.161,0,30.7,0,0.759,0,0,0,0, ,0,0,0,0,0, ,211.3,-343.2,914.5,-0.5,0,-2,25,209.666,-345.628,915.412,-0.699752,-0.46533,-1.76066,
2026_06_26_18_26_20.174,0,30.8,0,0.76,0,0,0,0, ,0,0,0,0,0, ,210.2,-346.3,915.1,-0.5,-0.5,-1.2,25,209.732,-345.575,915.375,-0.68758,-0.452208,-1.75087,
2026_06_26_18_26_20.193,0,30.8,0,0.76,0,0,0,0, ,0,0,0,0,0, ,198.6,-344.2,914.7,-0.1,-1.3,-1.1,25,209.407,-345.555,915.346,-0.663962,-0.479495,-1.71425,
2026_06_26_18_26_20.213,0,30.7,0,0.759,0,0,0,0, ,0,0,0,0,0, ,197.9,-348.2,926,-0.1,-0.9,-1.9,25,208.728,-345.594,915.651,-0.629595,-0.517307,-1.7012,
2026_06_26_18_26_20.234,0,30.7,0,0.76,0,0,0,0, ,0,0,0,0,0, ,209.8,-352.4,927.6,-0.9,-0.6,-2.3,25,208.43,-345.881,916.33,-0.621698,-0.531487,-1.7255,
2026_06_26_18_26_20.253,0,30.7,0,0.759,0,0,0,0, ,0,0,0,0,0, ,213,-353.5,924.8,-1.3,-0.1,-2.2,25,208.611,-346.312,916.932,-0.650845,-0.520428,-1.75746,
2026_06_26_18_26_20.273,0,30.7,0,0.759,0,0,0,0, ,0,0,0,0,0, ,212.6,-350,918.2,-1.8,0,-2,25,208.867,-346.643,917.21,-0.705637,-0.491761,-1.77834,
2026_06_26_18_26_20.293,0,30.8,0,0.76,0,0,0,0, ,0,0,0,0,0, ,210.6,-347,915.2,-1.4,-0.5,-1.8,25,209.033,-346.756,917.179,-0.760137,-0.477029,-1.78575,
2026_06_26_18_26_20.313,0,30.7,0,0.759,0,0,0,0, ,0,0,0,0,0, ,208.4,-343.8,911.7,-1,-0.5,-1.8,25,209.062,-346.674,916.952,-0.786941,-0.478428,-1.78662,
2026_06_26_18_26_20.333,0,30.7,0,0.761,0,0,0,0, ,0,0,0,0,0, ,210.2,-344.7,913.5,-0.8,-0.1,-1.9,25,209.076,-346.526,916.687,-0.793831,-0.467555,-1.79048,
2026_06_26_18_26_20.352,0,30.7,0,0.76,0,0,0,0, ,0,0,0,0,0, ,214.2,-344.8,909.9,-0.6,0.1,-1.8,25,209.266,-346.418,916.383,-0.788113,-0.439064,-1.79411,
2026_06_26_18_26_20.372,0,30.7,0,0.761,0,0,0,0, ,0,0,0,0,0, ,209.5,-342.4,911.2,-0.6,-0.3,-1.6,25,209.424,-346.246,916.027,-0.77665,-0.418402,-1.78837,
2026_06_26_18_26_20.392,0,30.7,0,0.76,0,0,0,0, ,0,0,0,0,0, ,209.3,-344.8,911.7,-0.7,-1.1,-1.8,25,209.422,-346.085,915.748,-0.768932,-0.435562,-1.78299,
2026_06_26_18_26_20.411,0,30.7,0,0.759,0,0,0,0, ,0,0,0,0,0, ,208,-347,919.5,-0.6,-0.7,-1.7,25,209.375,-346.074,915.739,-0.761685,-0.463864,-1.78098,
2026_06_26_18_26_20.431,0,30.7,0,0.76,0,0,0,0, ,0,0,0,0,0, ,206.1,-350.7,921.5,-1,-0.6,-1.9,25,209.234,-346.243,916.03,-0.76402,-0.475206,-1.78214,
2026_06_26_18_26_20.451,0,30.7,0,0.761,0,0,0,0, ,0,0,0,0,0, ,206.1,-347.1,918.7,-1,-0.1,-2.2,25,209.043,-346.405,916.278,-0.7784,-0.467577,-1.79846,
2026_06_26_18_26_20.471,0,30.7,0,0.76,0,0,0,0, ,0,0,0,0,0, ,209.9,-348.6,915.5,-0.8,-0.3,-2,25,208.979,-346.493,916.328,-0.78581,-0.451271,-1.81683,
2026_06_26_18_26_20.494,0,30.8,0,0.759,0,0,0,0, ,0,0,0,0,0, ,211.5,-348.9,914.9,-0.6,-0.9,-1.7,25,209.084,-346.63,916.259,-0.780581,-0.460334,-1.81886,
2026_06_26_18_26_20.511,0,30.7,0,0.761,0,0,0,0, ,0,0,0,0,0, ,208.9,-346.9,918.8,-1,-0.3,-1.7,25,209.152,-346.708,916.295,-0.781764,-0.468845,-1.81161,
2026_06_26_18_26_20.531,0,30.7,0,0.759,0,0,0,0, ,0,0,0,0,0, ,206,-345.7,911.4,-0.9,0.1,-1.7,25,209.048,-346.683,916.222,-0.792016,-0.446369,-1.80481,
2026_06_26_18_26_20.550,0,30.7,0,0.759,0,0,0,0, ,0,0,0,0,0, ,208.3,-345.4,907.4,-0.6,0.5,-2.1,25,208.933,-346.614,915.806,-0.789455,-0.400887,-1.81061,
2026_06_26_18_26_20.570,0,30.7,0,0.761,0,0,0,0, ,0,0,0,0,0, ,212,-348,910,-0.1,-0.8,-1.8,25,209.007,-346.619,915.373,-0.762676,-0.385598,-1.81911,
2026_06_26_18_26_20.590,0,30.7,0,0.76,0,0,0,0, ,0,0,0,0,0, ,213.9,-348.1,913,0,-1.3,-1.3,25,209.247,-346.706,915.137,-0.719247,-0.426085,-1.80271,
2026_06_26_18_26_20.610,0,30.7,0,0.759,0,0,0,0, ,0,0,0,0,0, ,206.5,-345.4,915.4,0,-0.1,-0.8,25,209.305,-346.709,915.08,-0.675418,-0.442777,-1.75684,
2026_06_26_18_26_20.629,0,30.7,0,0.759,0,0,0,0, ,0,0,0,0,0, ,198.1,-344.3,919.4,-0.3,0.5,-1.4,25,208.878,-346.596,915.222,-0.643401,-0.403608,-1.71681,
2026_06_26_18_26_20.649,0,30.7,0,0.761,0,0,0,0, ,0,0,0,0,0, ,197.8,-343.9,913.3,-0.2,-0.2,-2,25,208.212,-346.444,915.29,-0.619428,-0.369872,-1.71579,
2026_06_26_18_26_20.669,0,30.7,0,0.76,0,0,0,0, ,0,0,0,0,0, ,204.9,-348.8,915.8,0.1,-0.1,-2.4,25,207.794,-346.438,915.245,-0.584728,-0.356474,-1.7453,
2026_06_26_18_26_20.689,0,30.7,0,0.761,0,0,0,0, ,0,0,0,0,0, ,212.7,-350.9,919.1,0,0,-2.3,25,207.855,-346.646,915.38,-0.54605,-0.337798,-1.78214,
2026_06_26_18_26_20.709,0,30.7,0,0.76,0,0,0,0, ,0,0,0,0,0, ,215.4,-343.5,920,-0.9,-0.7,-2.3,25,208.233,-346.68,915.634,-0.540197,-0.338542,-1.8137,
2026_06_26_18_26_20.728,0,30.8,0,0.76,0,0,0,0, ,0,0,0,0,0, ,215.4,-343.3,919.9,-0.9,-0.2,-2.2,25,208.67,-346.48,915.897,-0.562122,-0.345334,-1.84029,
2026_06_26_18_26_20.748,0,30.7,0,0.761,0,0,0,0, ,0,0,0,0,0, ,210.5,-344.4,913,-0.6,0,-1.9,25,208.931,-346.319,915.93,-0.573571,-0.330384,-1.85307,
2026_06_26_18_26_20.768,0,30.7,0,0.761,0,0,0,0, ,0,0,0,0,0, ,209.2,-340.6,912.1,-0.3,-0.7,-1.9,25,208.987,-346.087,915.724,-0.566041,-0.331579,-1.85593,
2026_06_26_18_26_20.787,0,30.7,0,0.76,0,0,0,0, ,0,0,0,0,0, ,209.8,-345.8,922.6,0.1,-1.5,-1.4,25,209.018,-345.911,915.824,-0.537641,-0.378405,-1.84338,
2026_06_26_18_26_20.808,0,30.7,0,0.76,0,0,0,0, ,0,0,0,0,0, ,204.3,-345.4,923.8,-0.6,-0.4,-1.8,25,208.898,-345.892,916.273,-0.520113,-0.413236,-1.82855,
2026_06_26_18_26_20.832,0,30.8,0,0.76,0,0,0,0, ,0,0,0,0,0, ,201.7,-344.4,921.2,-1.1,0,-2.5,25,208.539,-345.831,916.652,-0.540216,-0.400242,-1.84814,
2026_06_26_18_26_20.847,0,30.7,0,0.759,0,0,0,0, ,0,0,0,0,0, ,208.3,-346,917.3,-1.2,-1,-2.5,25,208.323,-345.793,916.811,-0.577374,-0.406321,-1.88786,
2026_06_26_18_26_20.867,0,30.7,0,0.759,0,0,0,0, ,0,0,0,0,0, ,211.3,-349.4,920.5,-0.7,-1,-1.6,25,208.413,-345.909,916.938,-0.600081,-0.442498,-1.89774,
2026_06_26_18_26_20.887,0,30.7,0,0.76,0,0,0,0, ,0,0,0,0,0, ,205.5,-350.3,917.2,-0.6,0.1,-1.7,25,208.412,-346.149,917.055,-0.603123,-0.442956,-1.88264,
2026_06_26_18_26_20.907,0,30.8,0,0.761,0,0,0,0, ,0,0,0,0,0, ,206.7,-348.1,916.9,-1.3,-0.5,-2.2,25,208.271,-346.335,917.054,-0.624261,-0.42815,-1.88675,
2026_06_26_18_26_20.927,0,30.7,0,0.759,0,0,0,0, ,0,0,0,0,0, ,215,-347.5,914.7,-1.6,-0.6,-2.3,25,208.428,-346.424,916.978,-0.67458,-0.435576,-1.90888,
2026_06_26_18_26_20.946,0,30.7,0,0.76,0,0,0,0, ,0,0,0,0,0, ,215.2,-348.7,911.9,-1.6,-0.2,-2,25,208.835,-346.527,916.754,-0.730972,-0.433408,-1.92358,
2026_06_26_18_26_20.967,0,30.8,0,0.761,0,0,0,0, ,0,0,0,0,0, ,208.9,-344.4,908.5,-1,-0.2,-1.4,25,209.031,-346.528,916.354,-0.765647,-0.419185,-1.90995,
2026_06_26_18_26_20.985,0,30.7,0,0.76,0,0,0,0, ,0,0,0,0,0, ,202.3,-342.2,910.7,-0.5,-1.3,-1.9,25,208.822,-346.331,915.943,-0.764694,-0.439344,-1.89411,
2026_06_26_18_26_21.007,0,30.5,0,0.759,0,0,0,0, ,0,0,0,0,0, ,212.5,-341,917.4,-0.3,-0.7,-2,25,208.735,-346.043,915.827,-0.74247,-0.473509,-1.89752,
2026_06_26_18_26_21.025,0,30.8,0,0.76,0,0,0,0, ,0,0,0,0,0, ,214.1,-344.2,914.3,-0.7,0,-1.7,25,209.013,-345.833,915.829,-0.727695,-0.465982,-1.89462,
2026_06_26_18_26_21.045,0,30.7,0,0.759,0,0,0,0, ,0,0,0,0,0, ,208.4,-345.5,910,-0.5,-0.5,-1.5,25,209.15,-345.773,915.605,-0.719913,-0.452821,-1.87667,
2026_06_26_18_26_21.065,0,30.7,0,0.76,0,0,0,0, ,0,0,0,0,0, ,203.2,-345,915.5,0,-1,-1.6,25,208.945,-345.741,915.431,-0.691278,-0.47093,-1.85676,
2026_06_26_18_26_21.085,0,30.7,0,0.76,0,0,0,0, ,0,0,0,0,0, ,205.6,-347.7,921.3,-0.2,-1.3,-1.8,25,208.668,-345.778,915.612,-0.655247,-0.512311,-1.84721,
2026_06_26_18_26_21.105,0,30.8,0,0.761,0,0,0,0, ,0,0,0,0,0, ,208.2,-348.8,924.1,-0.6,-0.7,-1.8,25,208.561,-345.929,916.044,-0.639693,-0.54203,-1.84433,
2026_06_26_18_26_21.125,0,30.7,0,0.76,0,0,0,0, ,0,0,0,0,0, ,209.5,-348.8,920.4,-1.3,-0.4,-2.1,25,208.578,-346.104,916.422,-0.658602,-0.542515,-1.85077,
2026_06_26_18_26_21.144,0,30.7,0,0.759,0,0,0,0, ,0,0,0,0,0, ,212.2,-347,914.9,-1.1,-0.3,-2.1,25,208.717,-346.213,916.497,-0.691594,-0.530784,-1.86596,
2026_06_26_18_26_21.164,0,30.7,0,0.761,0,0,0,0, ,0,0,0,0,0, ,213.2,-343.9,912.1,-0.7,-0.4,-1.7,25,208.96,-346.167,916.314,-0.704293,-0.519767,-1.86803,
2026_06_26_18_26_21.184,0,30.7,0,0.761,0,0,0,0, ,0,0,0,0,0, ,213.3,-343.5,912.5,-0.8,-1,-1.6,25,209.221,-346.017,916.069,-0.707079,-0.53075,-1.85475,
2026_06_26_18_26_21.204,0,30.7,0,0.76,0,0,0,0, ,0,0,0,0,0, ,211.3,-343.7,914.5,-0.4,-0.5,-1.4,25,209.409,-345.869,915.913,-0.700554,-0.544111,-1.83313,
2026_06_26_18_26_21.224,0,30.7,0,0.759,0,0,0,0, ,0,0,0,0,0, ,207.5,-344.2,917.3,-0.5,0.2,-1.3,25,209.408,-345.752,915.912,-0.685286,-0.520095,-1.80369,
2026_06_26_18_26_21.243,0,30.7,0,0.76,0,0,0,0, ,0,0,0,0,0, ,206.5,-342,913.8,-0.8,-0.5,-1.8,25,209.261,-345.591,915.89,-0.683135,-0.497542,-1.78823,
2026_06_26_18_26_21.263,0,30.8,0,0.76,0,0,0,0, ,0,0,0,0,0, ,211,-349.1,917.7,-0.6,-1.1,-1.9,25,209.23,-345.588,915.881,-0.684163,-0.515973,-1.79199,
2026_06_26_18_26_21.282,0,30.7,0,0.76,0,0,0,0, ,0,0,0,0,0, ,209.8,-346.9,917.8,-0.3,-0.5,-1.3,25,209.301,-345.735,915.995,-0.669894,-0.533281,-1.78029,
2026_06_26_18_26_21.303,0,30.7,0,0.761,0,0,0,0, ,0,0,0,0,0, ,206.5,-345.9,920,-0.5,-0.3,-1.5,25,209.231,-345.776,916.172,-0.653447,-0.525159,-1.75712,
2026_06_26_18_26_21.323,0,30.7,0,0.76,0,0,0,0, ,0,0,0,0,0, ,205.3,-346.3,919.6,-1.1,-0.6,-1.5,25,209.028,-345.796,916.393,-0.662378,-0.520579,-1.74145,
2026_06_26_18_26_21.343,0,30.8,0,0.759,0,0,0,0, ,0,0,0,0,0, ,207,-347,917.7,-1.2,-0.7,-2,25,208.853,-345.848,916.531,-0.692092,-0.528466,-1.74197,
2026_06_26_18_26_21.362,0,30.7,0,0.76,0,0,0,0, ,0,0,0,0,0, ,210.3,-346.3,916.3,-1.1,-0.2,-1.8,25,208.841,-345.896,916.559,-0.719996,-0.523684,-1.7516,
2026_06_26_18_26_21.382,0,30.7,0,0.76,0,0,0,0, ,0,0,0,0,0, ,209.9,-346,913.5,-1.2,-0.5,-1.6,25,208.917,-345.912,916.458,-0.746199,-0.5131,-1.74846,
2026_06_26_18_26_21.402,0,30.7,0,0.759,0,0,0,0, ,0,0,0,0,0, ,211.3,-349.4,916.7,-1,-1.7,-1.6,25,209.02,-346.021,916.376,-0.767759,-0.548865,-1.73941,
2026_06_26_18_26_21.421,0,30.7,0,0.76,0,0,0,0, ,0,0,0,0,0, ,210.6,-347.1,917.8,-1.1,-0.7,-1.5,25,209.137,-346.157,916.429,-0.784958,-0.588543,-1.72787,
2026_06_26_18_26_21.441,0,30.7,0,0.759,0,0,0,0, ,0,0,0,0,0, ,210.5,-345.4,914.3,-1.4,-0.2,-1.7,25,209.224,-346.162,916.406,-0.813297,-0.580101,-1.72008,
2026_06_26_18_26_21.461,0,30.8,0,0.76,0,0,0,0, ,0,0,0,0,0, ,213.3,-345.8,907.8,-1.7,-1.2,-1.9,25,209.387,-346.128,916.079,-0.858189,-0.587407,-1.72495,
2026_06_26_18_26_21.481,0,30.7,0,0.761,0,0,0,0, ,0,0,0,0,0, ,214.3,-348.6,903.4,-0.8,-0.8,-1.2,25,209.656,-346.193,915.441,-0.882065,-0.612549,-1.71429,
2026_06_26_18_26_21.501,0,30.7,0,0.761,0,0,0,0, ,0,0,0,0,0, ,211.5,-347.5,908.3,-0.1,-1.3,-1.3,25,209.853,-346.307,914.856,-0.855736,-0.639207,-1.68599,
2026_06_26_18_26_21.521,0,30.7,0,0.759,0,0,0,0, ,0,0,0,0,0, ,211.7,-344.7,914.9,-0.4,-2,-1.3,25,209.96,-346.294,914.658,-0.818824,-0.700802,-1.66247,
2026_06_26_18_26_21.541,0,30.8,0,0.759,0,0,0,0, ,0,0,0,0,0, ,212.1,-346.1,920.1,-0.5,-1.1,-1,25,210.078,-346.24,914.831,-0.796349,-0.75255,-1.63124,
2026_06_26_18_26_21.560,0,30.8,0,0.759,0,0,0,0, ,0,0,0,0,0, ,212.7,-347.2,914.7,-0.1,0.1,-0.8,25,210.219,-346.265,914.988,-0.766103,-0.73716,-1.58668,
2026_06_26_18_26_21.580,0,30.7,0,0.761,0,0,0,0, ,0,0,0,0,0, ,219.9,-345.7,906.3,0.5,0.1,-0.6,25,210.59,-346.276,914.714,-0.707231,-0.686146,-1.53265,
2026_06_26_18_26_21.599,0,30.7,0,0.76,0,0,0,0, ,0,0,0,0,0, ,208.2,-347,917.4,0.6,-1.4,0,25,210.801,-346.28,914.54,-0.630618,-0.683943,-1.45754,
2026_06_26_18_26_21.619,0,30.7,0,0.759,0,0,0,0, ,0,0,0,0,0, ,202.2,-341.6,922.6,-0.3,-2,-0.8,25,210.46,-346.16,914.872,-0.583049,-0.745859,-1.39309,
2026_06_26_18_26_21.640,0,30.8,0,0.76,0,0,0,0, ,0,0,0,0,0, ,204.8,-346,919.1,-0.5,-1.3,-1.3,25,210.035,-346.016,915.237,-0.571895,-0.800955,-1.37219,
2026_06_26_18_26_21.660,0,30.7,0,0.76,0,0,0,0, ,0,0,0,0,0, ,215.8,-346.5,914.5,-0.3,-0.4,-1.1,25,210.052,-346.03,915.332,-0.56142,-0.803944,-1.36169,
2026_06_26_18_26_21.680,0,30.7,0,0.76,0,0,0,0, ,0,0,0,0,0, ,223.3,-346.9,915.7,0,-0.6,-0.6,25,210.63,-346.071,915.318,-0.536349,-0.785422,-1.33051,
2026_06_26_18_26_21.700,0,30.7,0,0.761,0,0,0,0, ,0,0,0,0,0, ,236.2,-352,916.5,-0.3,-1.5,0.2,25,211.795,-346.277,915.365,-0.512806,-0.801545,-1.26162,
2026_06_26_18_26_21.723,0,30.7,0,0.76,0,0,0,0, ,0,0,0,0,0, ,238,-353.2,926.6,-0.8,-1.2,1,25,213.337,-346.662,915.742,-0.515073,-0.834966,-1.14818,
2026_06_26_18_26_21.738,0,30.7,0,0.761,0,0,0,0, ,0,0,0,0,0, ,253,-358.8,941,-1.2,-1,1.3,25,215.297,-347.231,916.843,-0.544623,-0.851117,-1.00813,
2026_06_26_18_26_21.758,0,30.7,0,0.759,0,0,0,0, ,0,0,0,0,0, ,282.8,-335.8,958.7,-2.1,-2,2.5,25,218.503,-347.235,918.854,-0.611982,-0.890658,-0.830919,
2026_06_26_18_26_21.778,0,30.7,0,0.76,0,0,0,0, ,0,0,0,0,0, ,307,-364.7,942.3,-4.5,-4.9,4.9,25,223.158,-347.419,920.783,-0.775783,-1.04662,-0.554816,
2026_06_26_18_26_21.798,0,30.7,0,0.759,0,0,0,0, ,0,0,0,0,0, ,291.1,-342.4,941.2,-5.5,-4.5,6.4,25,227.783,-347.793,922.06,-1.0332,-1.26925,-0.17671,
2026_06_26_18_26_21.817,0,30.7,0,0.761,0,0,0,0, ,0,0,0,0,0, ,289,-349.6,927.7,-5.1,-5.9,9.6,25,231.577,-347.683,922.815,-1.2932,-1.50878,0.321558,
2026_06_26_18_26_21.838,0,30.7,0,0.759,0,0,0,0, ,0,0,0,0,0, ,296.9,-340.6,917.4,-5,-4.1,10.3,25,235.317,-347.526,922.799,-1.52213,-1.72152,0.908291,
2026_06_26_18_26_21.857,0,30.8,0,0.761,0,0,0,0, ,0,0,0,0,0, ,305.4,-353.1,906.2,-4.4,-2.6,13.5,25,239.329,-347.485,922.129,-1.71579,-1.82076,1.5781,
2026_06_26_18_26_21.877,0,30.7,0,0.759,0,0,0,0, ,0,0,0,0,0, ,291.6,-355.9,899.4,-3.8,-6.3,18,25,242.935,-347.912,920.951,-1.86107,-1.98098,2.4417,
2026_06_26_18_26_21.897,0,30.7,0,0.76,0,0,0,0, ,0,0,0,0,0, ,292.3,-359.2,908.2,-4,-9.1,18.9,25,245.922,-348.5,919.906,-1.98532,-2.32948,3.4172,
2026_06_26_18_26_21.917,0,30.7,0,0.759,0,0,0,0, ,0,0,0,0,0, ,299.5,-361.5,908.3,-3.8,-11.4,21.8,25,248.967,-349.222,919.196,-2.102,-2.81214,4.44905,
2026_06_26_18_26_21.937,0,30.7,0,0.76,0,0,0,0, ,0,0,0,0,0, ,288,-358,895,-3.8,-15.9,23.5,25,251.696,-349.863,918.126,-2.20547,-3.47257,5.55817,
2026_06_26_18_26_21.957,0,30.8,0,0.76,0,0,0,0, ,0,0,0,0,0, ,289.7,-358.6,875.2,-4.2,-35.9,21.6,25,253.96,-350.377,916.114,-2.31482,-4.83924,6.59361,
2026_06_26_18_26_21.976,0,30.7,0,0.76,0,0,0,0, ,0,0,0,0,0, ,300.1,-354.9,852,-4.2,-69.4,18.9,25,256.455,-350.766,912.914,-2.4297,-7.75271,7.42579,
2026_06_26_18_26_21.996,0,30.7,0,0.761,0,0,0,0, ,0,0,0,0,0, ,320.3,-357.6,855.7,-2.5,-95.7,18.7,25,259.73,-351.1,909.315,-2.48578,-12.3107,8.11891,
2026_06_26_18_26_22.016,0,30.8,0,0.759,0,0,0,0, ,0,0,0,0,0, ,330.9,-360.5,888,0.3,-104.3,21.2,25,263.744,-351.584,907.032,-2.40134,-17.6542,8.83987,
2026_06_26_18_26_22.035,0,30.7,0,0.76,0,0,0,0, ,0,0,0,0,0, ,339.5,-356.2,867.9,3.8,-106.7,19,25,268.098,-351.997,905.259,-2.13008,-23.0073,9.52603,
2026_06_26_18_26_22.055,0,30.7,0,0.76,0,0,0,0, ,0,0,0,0,0, ,358,-329.7,824.9,2.1,-141.5,6.1,25,273.013,-351.445,901.673,-1.82051,-29.1677,9.7103,
2026_06_26_18_26_22.078,0,30.7,0,0.759,0,0,0,0, ,0,0,0,0,0, ,371.9,-324.5,748,4.4,-190.7,0.6,25,278.615,-349.962,894.651,-1.51153,-37.512,9.32272,
2026_06_26_18_26_22.095,0,30.7,0,0.759,0,0,0,0, ,0,0,0,0,0, ,474.7,-381.9,851.8,12.5,-202.9,2.8,25,287.432,-350.159,888.877,-0.904499,-47.2186,8.85821,
2026_06_26_18_26_22.115,0,30.7,0,0.759,0,0,0,0, ,0,0,0,0,0, ,507.5,-389.8,885.3,3.6,-188.4,4.2,25,299.843,-352.334,887.639,-0.358835,-56.2636,8.5317,
2026_06_26_18_26_22.134,0,30.8,0,0.761,0,0,0,0, ,0,0,0,0,0, ,494.5,-371.4,838.9,6.7,-169.8,8.2,25,312.101,-354.057,886.082,-0.0231401,-63.749,8.38961,
2026_06_26_18_26_22.155,0,30.8,0,0.761,0,0,0,0, ,0,0,0,0,0, ,527,-333.6,741.3,13.6,-149.3,2.6,25,324.206,-353.962,880.233,0.596786,-69.5868,8.20743,
2026_06_26_18_26_22.174,0,30.7,0,0.76,0,0,0,0, ,0,0,0,0,0, ,573.6,-349.6,708.3,17.9,-150.4,-12.5,25,337.984,-353.208,870.762,1.52018,-74.4779,7.40565,
2026_06_26_18_26_22.193,0,30.7,0,0.761,0,0,0,0, ,0,0,0,0,0, ,682.3,-376.8,671.6,11,-175.2,-14.6,25,355.654,-353.817,859.744,2.3081,-79.86,6.12866,
2026_06_26_18_26_22.214,0,30.7,0,0.76,0,0,0,0, ,0,0,0,0,0, ,716.3,-354.3,600.2,7,-185.5,-6.7,25,376.595,-354.532,846.103,2.71588,-85.9836,5.10621,
2026_06_26_18_26_22.234,0,30.7,0,0.759,0,0,0,0, ,0,0,0,0,0, ,729.4,-342.7,559,18.2,-172.5,-4.4,25,397.695,-354.165,829.863,3.3182,-91.6518,4.45685,
2026_06_26_18_26_22.254,0,30.7,0,0.76,0,0,0,0, ,0,0,0,0,0, ,724.3,-332,510.6,18.7,-180.9,-18.8,25,417.752,-353.14,811.883,4.24029,-96.8344,3.47839,
2026_06_26_18_26_22.273,0,30.8,0,0.76,0,0,0,0, ,0,0,0,0,0, ,778.8,-320.3,453.6,14.6,-200.9,-20.7,25,438.093,-351.495,791.787,4.99651,-102.567,2.06291,
2026_06_26_18_26_22.293,0,30.8,0,0.76,0,0,0,0, ,0,0,0,0,0, ,831.1,-334.3,439.6,12.7,-190.9,-18.1,25,460.449,-350.021,770.752,5.52383,-108.254,0.755012,
2026_06_26_18_26_22.312,0,30.7,0,0.76,0,0,0,0, ,0,0,0,0,0, ,794.7,-320.8,388.7,12.4,-170.8,-10.2,25,481.926,-348.652,749.021,5.95199,-112.678,-0.153263,
2026_06_26_18_26_22.332,0,30.9,0,0.759,0,0,0,0, ,0,0,0,0,0, ,874.5,-348.3,344.3,4.8,-169.5,9,25,503.417,-347.792,725.711,6.11335,-116.18,-0.180486,
2026_06_26_18_26_22.352,0,30.8,0,0.76,0,0,0,0, ,0,0,0,0,0, ,901.7,-344.4,344.3,-0.9,-162.9,2.3,25,526.859,-347.704,702.469,5.85965,-119.228,0.17481,
2026_06_26_18_26_22.373,0,30.7,0,0.761,0,0,0,0, ,0,0,0,0,0, ,906.7,-329.9,248.9,11.1,-142.6,-5.8,25,549.853,-347.061,677.737,5.81335,-121.271,0.0575165,
2026_06_26_18_26_22.392,0,30.8,0,0.759,0,0,0,0, ,0,0,0,0,0, ,868.7,-303.5,203.1,33.4,-149.3,-4.1,25,570.441,-345.211,650.209,6.81496,-122.775,-0.247629,
2026_06_26_18_26_22.412,0,30.9,0,0.76,0,0,0,0, ,0,0,0,0,0, ,878.7,-291.1,179.5,36.8,-154.2,-5.8,25,588.92,-342.291,622.244,8.53858,-124.54,-0.53418,
2026_06_26_18_26_22.432,0,30.7,0,0.76,0,0,0,0, ,0,0,0,0,0, ,936.2,-332.1,171.8,43.8,-129,-11.4,25,608.331,-340.421,595.03,10.474,-125.58,-1.02569,
2026_06_26_18_26_22.451,0,30.8,0,0.759,0,0,0,0, ,0,0,0,0,0, ,945.5,-326.4,160.8,48.1,-98.1,-11.8,25,628.594,-339.74,568.904,12.6359,-124.847,-1.67006,
2026_06_26_18_26_22.471,0,30.7,0,0.759,0,0,0,0, ,0,0,0,0,0, ,894.7,-318.7,91.9,57.3,-78.2,-12.9,25,646.357,-338.693,541.936,15.0773,-122.611,-2.32087,
2026_06_26_18_26_22.491,0,30.9,0,0.76,0,0,0,0, ,0,0,0,0,0, ,894.2,-277.3,31,47.3,-96.5,-14,25,661.476,-336.213,512.656,17.3455,-120.462,-2.99905,
2026_06_26_18_26_22.511,0,30.7,0,0.759,0,0,0,0, ,0,0,0,0,0, ,934.2,-291.9,5.9,52.3,-96.5,0,25,676.876,-333.068,482.541,19.3232,-119.002,-3.24286,
2026_06_26_18_26_22.531,0,30.8,0,0.759,0,0,0,0, ,0,0,0,0,0, ,967.7,-321.1,3.5,54.7,-70.9,14.1,25,693.577,-331.449,453.422,21.4059,-116.851,-2.61564,
2026_06_26_18_26_22.550,0,30.7,0,0.761,0,0,0,0, ,0,0,0,0,0, ,936.5,-316.5,9.1,48.7,-39,18.7,25,709.331,-330.678,426.176,23.2519,-113.079,-1.45687,
2026_06_26_18_26_22.570,0,30.9,0,0.76,0,0,0,0, ,0,0,0,0,0, ,892,-324.5,11.1,30,-12.6,5.5,25,721.818,-330.058,400.821,24.2329,-107.76,-0.630752,
2026_06_26_18_26_22.590,0,30.9,0,0.76,0,0,0,0, ,0,0,0,0,0, ,1045.2,-331.1,-112.7,27.1,8.2,-11.8,25,736.857,-329.92,373.3,24.496,-101.327,-0.784268,
2026_06_26_18_26_22.610,0,30.8,0,0.76,0,0,0,0, ,0,0,0,0,0, ,925.2,-282.2,-100.8,29.2,12.1,-13.7,25,751.99,-328.502,344.047,24.7186,-94.5343,-1.51343,
2026_06_26_18_26_22.630,0,30.7,0,0.76,0,0,0,0, ,0,0,0,0,0, ,884.7,-269.7,-42.2,25.3,6.3,-13.5,25,761.311,-325.3,318.725,24.8729,-88.213,-2.24996,
2026_06_26_18_26_22.649,0,30.8,0,0.759,0,0,0,0, ,0,0,0,0,0, ,887.6,-311.2,52.7,10.4,-12,-23.2,25,768.918,-323.176,299.623,24.4449,-83.0112,-3.23105,
2026_06_26_18_26_22.669,0,30.7,0,0.759,0,0,0,0, ,0,0,0,0,0, ,930.5,-326.7,50.4,-5.1,-14.4,-18.2,25,777.458,-322.919,284.506,23.1168,-78.7571,-4.29557,
2026_06_26_18_26_22.689,0,30.7,0,0.76,0,0,0,0, ,0,0,0,0,0, ,1000.8,-318.6,22.5,-17.7,0,-7.6,25,788.926,-322.902,269.39,21.0134,-74.3966,-4.8199,
2026_06_26_18_26_22.709,0,30.8,0,0.76,0,0,0,0, ,0,0,0,0,0, ,991.4,-306.2,-30.5,-20,8.6,4.7,25,801.55,-322.262,252.73,18.5843,-69.601,-4.61455,
2026_06_26_18_26_22.729,0,30.8,0,0.76,0,0,0,0, ,0,0,0,0,0, ,875.6,-298.8,55.7,-18,3.9,7.6,25,809.591,-321.058,238.097,16.294,-64.9788,-3.95858,
2026_06_26_18_26_22.748,0,30.8,0,0.76,0,0,0,0, ,0,0,0,0,0, ,943.3,-314.3,24.1,-12.7,8.4,3.1,25,815.676,-320.174,226.019,14.3657,-60.6444,-3.39134,
2026_06_26_18_26_22.768,0,30.8,0,0.76,0,0,0,0, ,0,0,0,0,0, ,926.8,-307.4,14.5,-10.5,1.8,-4.5,25,822.95,-319.606,213.423,12.7834,-56.6381,-3.22734,
2026_06_26_18_26_22.788,0,30.8,0,0.76,0,0,0,0, ,0,0,0,0,0, ,949.4,-303.1,-10.1,-4.4,0.8,-9.1,25,829.967,-318.731,200.551,11.5504,-53.1075,-3.44504,
2026_06_26_18_26_22.807,0,30.8,0,0.759,0,0,0,0, ,0,0,0,0,0, ,972.2,-293.4,-13.9,4.9,1.9,-13.4,25,837.94,-317.483,187.599,10.8618,-49.789,-3.92066,
2026_06_26_18_26_22.827,0,30.8,0,0.76,0,0,0,0, ,0,0,0,0,0, ,978.3,-291.1,-38.3,14,9.1,-19.3,25,846.307,-315.945,174.577,10.7758,-46.4198,-4.67807,
2026_06_26_18_26_22.847,0,30.8,0,0.759,0,0,0,0, ,0,0,0,0,0, ,966.7,-277,-58.4,21.1,6.5,-22.4,25,853.997,-314.002,160.992,11.1886,-43.1158,-5.66355,
2026_06_26_18_26_22.867,0,30.9,0,0.761,0,0,0,0, ,0,0,0,0,0, ,969.4,-267.4,-23,22.5,3.8,-18.6,25,860.947,-311.454,148.701,11.8352,-40.1746,-6.56765,
2026_06_26_18_26_22.887,0,30.8,0,0.76,0,0,0,0, ,0,0,0,0,0, ,954.9,-253.5,-14.5,23.9,3.8,-19.5,25,867.114,-308.346,138.497,12.5277,-37.4949,-7.32829,
2026_06_26_18_26_22.907,0,30.8,0,0.759,0,0,0,0, ,0,0,0,0,0, ,937.5,-253.2,3.2,20,5.2,-21.2,25,871.934,-304.995,129.713,13.1019,-34.9358,-8.1218,
2026_06_26_18_26_22.927,0,30.8,0,0.76,0,0,0,0, ,0,0,0,0,0, ,962.8,-248.4,-5.3,14.7,5.1,-21,25,876.7,-301.692,121.745,13.3608,-32.4931,-8.91266,
2026_06_26_18_26_22.947,0,30.7,0,0.759,0,0,0,0, ,0,0,0,0,0, ,946.2,-247,13,9.6,5.6,-18.8,25,881.441,-298.402,114.561,13.287,-30.187,-9.5822,
2026_06_26_18_26_22.966,0,30.7,0,0.76,0,0,0,0, ,0,0,0,0,0, ,937.8,-239,9,6.7,3,-17.8,25,885.131,-295.026,108.25,12.974,-28.0855,-10.1134,
2026_06_26_18_26_22.986,0,30.8,0,0.76,0,0,0,0, ,0,0,0,0,0, ,967.7,-241.2,-19.2,6.4,-3.7,-16.6,25,889.252,-291.679,101.343,12.5825,-26.3954,-10.5453,
2026_06_26_18_26_23.005,0,30.8,0,0.759,0,0,0,0, ,0,0,0,0,0, ,985.1,-238.1,3.5,7.3,-7.2,-10.7,25,894.562,-288.509,94.6888,12.2332,-25.119,-10.7345,
2026_06_26_18_26_23.026,0,30.8,0,0.759,0,0,0,0, ,0,0,0,0,0, ,974.9,-236.9,10.1,6.5,-2.8,-7.4,25,899.769,-285.4,89.3331,11.9082,-23.893,-10.6318,
2026_06_26_18_26_23.045,0,30.7,0,0.759,0,0,0,0, ,0,0,0,0,0, ,959.7,-230.1,8.7,5.8,0,-7.1,25,903.884,-282.238,84.4621,11.5573,-22.5223,-10.4257,
2026_06_26_18_26_23.065,0,30.8,0,0.761,0,0,0,0, ,0,0,0,0,0, ,965.9,-228.8,-5,5.7,3.3,-9,25,907.474,-279.021,79.428,11.2034,-21.0493,-10.281,
2026_06_26_18_26_23.085,0,30.7,0,0.76,0,0,0,0, ,0,0,0,0,0, ,990.9,-229.1,-13.6,6.9,6.2,-8.5,25,911.796,-275.97,74.0211,10.9046,-19.4772,-10.1877,
2026_06_26_18_26_23.105,0,30.7,0,0.76,0,0,0,0, ,0,0,0,0,0, ,984.6,-222.7,-5.8,6.5,2.2,-5.5,25,916.425,-272.919,68.9194,10.6484,-18.0344,-9.99343,
2026_06_26_18_26_23.124,0,30.7,0,0.759,0,0,0,0, ,0,0,0,0,0, ,963.7,-219.4,16.4,5.3,-4.5,-4.1,25,919.942,-269.758,65.0425,10.359,-17.0055,-9.67695,
2026_06_26_18_26_23.144,0,30.7,0,0.76,0,0,0,0, ,0,0,0,0,0, ,956.9,-221.6,9.5,4.5,-4.2,-7,25,922.401,-266.756,61.8682,10.0264,-16.2343,-9.42547,
2026_06_26_18_26_23.164,0,30.7,0,0.76,0,0,0,0, ,0,0,0,0,0, ,972,-222,-11.4,2.2,1,-9,25,924.964,-264.017,58.0402,9.61954,-15.3425,-9.3386,
2026_06_26_18_26_23.183,0,30.9,0,0.759,0,0,0,0, ,0,0,0,0,0, ,981.5,-225.3,-3.1,1.2,4.1,-8.3,25,928.12,-261.557,54.0616,9.13694,-14.2522,-9.29664,
2026_06_26_18_26_23.204,0,30.8,0,0.76,0,0,0,0, ,0,0,0,0,0, ,967.5,-216.4,14.4,0.3,4,-5.8,25,930.946,-259.076,51.1115,8.62586,-13.1369,-9.15974,
2026_06_26_18_26_23.224,0,30.7,0,0.761,0,0,0,0, ,0,0,0,0,0, ,937.5,-211.9,8.7,1,2.1,-7,25,932.259,-256.339,48.7007,8.13983,-12.1505,-8.99157,
2026_06_26_18_26_23.244,0,30.8,0,0.76,0,0,0,0, ,0,0,0,0,0, ,948.4,-212.2,-18.3,2.8,-0.7,-9.8,25,932.911,-253.64,45.4405,7.75959,-11.3674,-8.95552,
2026_06_26_18_26_23.263,0,30.8,0,0.76,0,0,0,0, ,0,0,0,0,0, ,969.7,-214.3,-18.6,4,-2.1,-9,25,934.504,-251.178,41.5472,7.49393,-10.76,-8.9826,
2026_06_26_18_26_23.283,0,30.9,0,0.759,0,0,0,0, ,0,0,0,0,0, ,967.7,-211.3,5.1,3.6,-2.6,-7.8,25,936.587,-248.84,38.6041,7.26883,-10.2475,-8.9471,
2026_06_26_18_26_23.303,0,30.8,0,0.761,0,0,0,0, ,0,0,0,0,0, ,958,-208.4,14.4,1.8,-0.6,-6.9,25,938.188,-246.464,36.8458,6.99042,-9.72059,-8.84978,
2026_06_26_18_26_23.323,0,30.8,0,0.76,0,0,0,0, ,0,0,0,0,0, ,949.4,-200.1,12,-1.4,1.4,-7.2,25,939.133,-243.891,35.4049,6.57663,-9.10386,-8.7401,
2026_06_26_18_26_23.342,0,30.8,0,0.759,0,0,0,0, ,0,0,0,0,0, ,964.5,-196.7,2,-2.4,3.2,-9.1,25,940.219,-241.119,33.6739,6.06008,-8.40894,-8.70414,
2026_06_26_18_26_23.362,0,30.7,0,0.759,0,0,0,0, ,0,0,0,0,0, ,981.2,-201.5,9.2,-2.3,1.4,-9.1,25,942.207,-238.559,31.9632,5.54759,-7.75636,-8.72827,
2026_06_26_18_26_23.382,0,30.8,0,0.76,0,0,0,0, ,0,0,0,0,0, ,998.4,-201.5,14.5,-1.5,-1.3,-6.1,25,945.107,-236.3,30.7375,5.09376,-7.28066,-8.65951,
2026_06_26_18_26_23.402,0,30.8,0,0.76,0,0,0,0, ,0,0,0,0,0, ,996.5,-198.2,6.3,-1.1,-2.1,-2.9,25,948.297,-234.079,29.4982,4.70414,-6.94059,-8.40604,
2026_06_26_18_26_23.421,0,30.8,0,0.761,0,0,0,0, ,0,0,0,0,0, ,979,-196.4,16.2,-0.6,-0.8,-3.8,25,950.701,-231.838,28.3862,4.36568,-6.60601,-8.09794,
2026_06_26_18_26_23.441,0,30.8,0,0.761,0,0,0,0, ,0,0,0,0,0, ,969.4,-193.1,18.5,0.1,-0.4,-5.7,25,952.133,-229.578,27.7137,4.08441,-6.24002,-7.89392,
2026_06_26_18_26_23.461,0,30.7,0,0.76,0,0,0,0, ,0,0,0,0,0, ,976.1,-188.2,10.9,0.3,-0.4,-6.2,25,953.39,-227.206,26.9207,3.84771,-5.88414,-7.77547,
2026_06_26_18_26_23.481,0,30.7,0,0.759,0,0,0,0, ,0,0,0,0,0, ,990.4,-190,18.6,0.1,-0.7,-5.8,25,955.209,-224.884,26.179,3.62542,-5.55909,-7.66727,
2026_06_26_18_26_23.501,0,30.7,0,0.76,0,0,0,0, ,0,0,0,0,0, ,994.3,-193.1,8,0.3,-0.9,-4.5,25,957.472,-222.852,25.3942,3.41669,-5.26909,-7.51388,
2026_06_26_18_26_23.520,0,30.8,0,0.759,0,0,0,0, ,0,0,0,0,0, ,986.4,-191.5,1.5,0.4,-1,-3.3,25,959.476,-220.991,24.1362,3.22981,-5.00589,-7.29366,
2026_06_26_18_26_23.541,0,30.7,0,0.758,0,0,0,0, ,0,0,0,0,0, ,972.5,-188.3,4.3,-1,-1.7,-2.7,25,960.693,-219.096,22.8421,3.01471,-4.78311,-7.03201,
2026_06_26_18_26_23.560,0,30.7,0,0.76,0,0,0,0, ,0,0,0,0,0, ,981.3,-193.1,-2.6,-1.2,-1.6,-3.1,25,961.681,-217.366,21.502,2.76397,-4.59219,-6.78022,
2026_06_26_18_26_23.580,0,30.7,0,0.761,0,0,0,0, ,0,0,0,0,0, ,977,-190.3,-5.4,-0.9,-1.1,-2.5,25,962.745,-215.802,19.948,2.53156,-4.39462,-6.53767,
2026_06_26_18_26_23.599,0,30.7,0,0.759,0,0,0,0, ,0,0,0,0,0, ,961.1,-191.4,1,-0.2,-0.6,-3,25,963.129,-214.281,18.5983,2.34378,-4.17862,-6.30686,
2026_06_26_18_26_23.620,0,30.8,0,0.761,0,0,0,0, ,0,0,0,0,0, ,955.5,-191.6,6.2,1.1,-1.5,-3.3,25,962.835,-212.893,17.6844,2.22837,-3.98797,-6.11449,
2026_06_26_18_26_23.644,0,30.8,0,0.759,0,0,0,0, ,0,0,0,0,0, ,964.5,-182.9,-6.5,1.6,-1.8,-4.2,25,962.662,-211.33,16.5976,2.17485,-3.8455,-5.9704,
2026_06_26_18_26_23.660,0,30.8,0,0.76,0,0,0,0, ,0,0,0,0,0, ,985.3,-187.6,-16.6,2.3,-0.4,-4.6,25,963.408,-209.741,14.8823,2.16115,-3.67819,-5.87471,
2026_06_26_18_26_23.679,0,30.7,0,0.76,0,0,0,0, ,0,0,0,0,0, ,977.7,-186.2,-7.2,3.2,-0.2,-4.3,25,964.511,-208.349,13.2503,2.19703,-3.47233,-5.78789,
2026_06_26_18_26_23.699,0,30.8,0,0.76,0,0,0,0, ,0,0,0,0,0, ,961.5,-180.1,2.1,2.2,1.2,-5,25,964.821,-206.814,12.2874,2.22768,-3.23027,-5.71855,
2026_06_26_18_26_23.718,0,30.7,0,0.76,0,0,0,0, ,0,0,0,0,0, ,957.2,-177.4,10.6,0.8,1,-6.5,25,964.487,-205.104,11.9256,2.18334,-2.96639,-5.72047,
2026_06_26_18_26_23.738,0,30.8,0,0.759,0,0,0,0, ,0,0,0,0,0, ,961.9,-175.9,8.7,0.5,0.8,-7.4,25,964.186,-203.37,11.787,2.0899,-2.73079,-5.79539,
2026_06_26_18_26_23.758,0,30.7,0,0.759,0,0,0,0, ,0,0,0,0,0, ,976,-173,1.5,0.5,1,-8.3,25,964.477,-201.607,11.3795,1.99301,-2.50953,-5.92059,
2026_06_26_18_26_23.778,0,30.7,0,0.76,0,0,0,0, ,0,0,0,0,0, ,968.6,-172.9,-5.4,1.6,1.1,-8.7,25,964.953,-199.861,10.5672,1.93555,-2.29263,-6.07778,
2026_06_26_18_26_23.798,0,30.7,0,0.76,0,0,0,0, ,0,0,0,0,0, ,961.7,-180.7,29.7,2,-0.1,-8,25,964.965,-198.456,10.6637,1.92729,-2.12245,-6.21624,
2026_06_26_18_26_23.817,0,30.8,0,0.761,0,0,0,0, ,0,0,0,0,0, ,958.9,-178.4,29.9,1.3,-0.7,-8.3,25,964.681,-197.304,11.8298,1.91039,-2.01749,-6.33408,
2026_06_26_18_26_23.843,0,30.7,0,0.76,0,0,0,0, ,0,0,0,0,0, ,967,-172.2,5.2,1.1,0.5,-8.9,25,964.576,-195.963,12.1784,1.8671,-1.90064,-6.47216,
2026_06_26_18_26_23.860,0,30.7,0,0.759,0,0,0,0, ,0,0,0,0,0, ,978.1,-174.6,-1.9,0.5,1.4,-9.7,25,965.062,-194.588,11.5368,1.80208,-1.72693,-6.64448,
2026_06_26_18_26_23.877,0,30.7,0,0.76,0,0,0,0, ,0,0,0,0,0, ,979.4,-166.5,3,1.4,0.2,-9.1,25,965.896,-193.123,10.8673,1.75015,-1.57295,-6.81239,
2026_06_26_18_26_23.897,0,30.8,0,0.76,0,0,0,0, ,0,0,0,0,0, ,990.1,-162.5,8.6,0.9,-0.5,-8.4,25,967.045,-191.379,10.5585,1.71358,-1.48623,-6.93047,
2026_06_26_18_26_23.916,0,30.9,0,0.76,0,0,0,0, ,0,0,0,0,0, ,991.9,-162.5,3.6,0.8,0.6,-7.1,25,968.504,-189.619,10.2868,1.66096,-1.39262,-6.98041,
2026_06_26_18_26_23.937,0,30.7,0,0.761,0,0,0,0, ,0,0,0,0,0, ,982.6,-160,-9.5,1.8,1.8,-7.3,25,969.647,-187.89,9.48019,1.63896,-1.23463,-6.99379,
2026_06_26_18_26_23.956,0,30.9,0,0.758,0,0,0,0, ,0,0,0,0,0, ,975.3,-153.1,-3.4,3.2,0.7,-8.5,25,970.214,-185.981,8.50944,1.69143,-1.08323,-7.04901,
2026_06_26_18_26_23.976,0,30.9,0,0.76,0,0,0,0, ,0,0,0,0,0, ,973.1,-151.3,4.2,3.1,-0.7,-8.7,25,970.457,-183.922,8.01527,1.78031,-1.01722,-7.14352,
2026_06_26_18_26_23.996,0,30.7,0,0.761,0,0,0,0, ,0,0,0,0,0, ,963.3,-148.4,15.9,2.5,-1.1,-9.3,25,970.319,-181.846,8.13926,1.84245,-1.01007,-7.25665,
2026_06_26_18_26_24.016,0,30.9,0,0.76,0,0,0,0, ,0,0,0,0,0, ,954.8,-141.6,13.9,2.5,0.2,-11.6,25,969.632,-179.6,8.55125,1.88252,-0.975944,-7.45125,
2026_06_26_18_26_24.036,0,30.7,0,0.759,0,0,0,0, ,0,0,0,0,0, ,958.4,-144.2,10.8,2.8,1.5,-13.7,25,968.838,-177.364,8.78273,1.92929,-0.864676,-7.76805,
2026_06_26_18_26_24.055,0,30.7,0,0.759,0,0,0,0, ,0,0,0,0,0, ,947,-138.6,19.7,2.6,1.2,-14.6,25,967.855,-175.172,9.17683,1.97625,-0.729719,-8.15695,
2026_06_26_18_26_24.074,0,30.9,0,0.759,0,0,0,0, ,0,0,0,0,0, ,950.4,-130.6,24.7,1.7,0,-17.6,25,966.688,-172.7,9.97043,1.98684,-0.648689,-8.64098,
2026_06_26_18_26_24.095,0,30.8,0,0.76,0,0,0,0, ,0,0,0,0,0, ,980.3,-134.1,29.1,0.6,-1.6,-18.1,25,966.606,-170.241,11.0021,1.93585,-0.65791,-9.20215,
2026_06_26_18_26_24.114,0,30.8,0,0.76,0,0,0,0, ,0,0,0,0,0, ,980.3,-132.3,25.2,-0.7,-2.7,-16.6,25,967.441,-167.984,11.9861,1.81483,-0.748834,-9.69866,
2026_06_26_18_26_24.134,0,30.7,0,0.761,0,0,0,0, ,0,0,0,0,0, ,973.5,-121.3,9.8,-1,-3.7,-16.4,25,968.017,-165.474,12.3221,1.65244,-0.898202,-10.1131,
2026_06_26_18_26_24.154,0,30.7,0,0.76,0,0,0,0, ,0,0,0,0,0, ,1007.6,-119.1,5.6,-1.2,-4.2,-15,25,969.39,-162.715,12.0404,1.48472,-1.08417,-10.4536,
2026_06_26_18_26_24.174,0,30.8,0,0.76,0,0,0,0, ,0,0,0,0,0, ,1012.6,-113.1,9,-1.7,-2.2,-11.7,25,971.871,-159.875,11.7516,1.30588,-1.2131,-10.6301,
2026_06_26_18_26_24.193,0,30.9,0,0.76,0,0,0,0, ,0,0,0,0,0, ,985.4,-105.9,15,-1.5,0.2,-11.3,25,973.524,-156.805,11.7667,1.12881,-1.20012,-10.6831,
2026_06_26_18_26_24.214,0,30.8,0,0.76,0,0,0,0, ,0,0,0,0,0, ,968.1,-99.3,19.8,-0.9,0.3,-14,25,973.721,-153.502,12.11,0.986894,-1.11175,-10.8029,
2026_06_26_18_26_24.233,0,30.8,0,0.759,0,0,0,0, ,0,0,0,0,0, ,992.1,-100,17.3,0,-0.1,-15,25,974.109,-150.22,12.5024,0.899334,-1.03791,-11.0282,
2026_06_26_18_26_24.253,0,30.8,0,0.76,0,0,0,0, ,0,0,0,0,0, ,1003.6,-96.6,-0.2,0.5,0.3,-13.8,25,975.556,-147.057,12.2616,0.859765,-0.968569,-11.2337,
2026_06_26_18_26_24.280,0,30.9,0,0.76,0,0,0,0, ,0,0,0,0,0, ,995.9,-91.3,4.2,0,0,-12.3,25,977.03,-143.82,11.6363,0.822607,-0.900406,-11.3444,
2026_06_26_18_26_24.297,0,31,0,0.759,0,0,0,0, ,0,0,0,0,0, ,972.7,-83.4,0.8,1,-0.9,-13.6,25,977.473,-140.379,11.0795,0.802948,-0.87296,-11.4422,
2026_06_26_18_26_24.312,0,30.8,0,0.76,0,0,0,0, ,0,0,0,0,0, ,991.2,-79.4,8.3,0.5,-1.2,-14.9,25,977.746,-136.785,10.6816,0.799722,-0.883748,-11.6133,
2026_06_26_18_26_24.333,0,30.9,0,0.759,0,0,0,0, ,0,0,0,0,0, ,1032.8,-83.4,10.1,-0.6,0.5,-11.5,25,979.833,-133.41,10.5913,0.747942,-0.851223,-11.71,
2026_06_26_18_26_24.352,0,30.9,0,0.761,0,0,0,0, ,0,0,0,0,0, ,1014.6,-78.2,7,0.5,2.3,-7.7,25,982.507,-130.204,10.4669,0.699317,-0.714039,-11.5814,
2026_06_26_18_26_24.372,0,30.8,0,0.762,0,0,0,0, ,0,0,0,0,0, ,986.4,-72.7,-0.9,-0.1,1.3,-6.5,25,983.603,-126.868,10.015,0.66889,-0.56084,-11.3083,
2026_06_26_18_26_24.392,0,30.8,0,0.76,0,0,0,0, ,0,0,0,0,0, ,965.5,-62.3,2,0.1,-1.4,-8,25,983.137,-123.25,9.4382,0.62813,-0.52971,-11.061,
2026_06_26_18_26_24.411,0,30.9,0,0.759,0,0,0,0, ,0,0,0,0,0, ,963.2,-61.4,3.9,0.1,-2.4,-9.3,25,981.992,-119.508,9.04283,0.595947,-0.613212,-10.9141,
2026_06_26_18_26_24.432,0,30.8,0,0.76,0,0,0,0, ,0,0,0,0,0, ,989,-61.7,14.2,-2.1,-2.9,-11.2,25,981.633,-115.976,9.04326,0.498694,-0.737329,-10.8736,
2026_06_26_18_26_24.452,0,30.8,0,0.76,0,0,0,0, ,0,0,0,0,0, ,1011.9,-68.6,13,-3.9,-2.4,-10.1,25,982.78,-112.879,9.32094,0.285492,-0.853882,-10.86,
2026_06_26_18_26_24.471,0,30.8,0,0.76,0,0,0,0, ,0,0,0,0,0, ,998.6,-65.9,15.3,-4,0.1,-8.4,25,984.149,-110.099,9.61521,0.0273919,-0.871927,-10.7619,
2026_06_26_18_26_24.491,0,30.9,0,0.76,0,0,0,0, ,0,0,0,0,0, ,976.1,-59.6,13.1,-2.8,-0.5,-8.3,25,984.344,-107.213,9.8946,-0.181465,-0.830982,-10.6149,
2026_06_26_18_26_24.511,0,30.7,0,0.76,0,0,0,0, ,0,0,0,0,0, ,976.1,-55,8.1,-1,-2.3,-9,25,983.842,-104.172,9.93758,-0.286188,-0.865656,-10.4952,
2026_06_26_18_26_24.530,0,30.8,0,0.76,0,0,0,0, ,0,0,0,0,0, ,995.4,-55.5,4.3,-0.2,-2.9,-9.4,25,983.958,-101.191,9.70982,-0.305311,-0.971343,-10.4163,
2026_06_26_18_26_24.549,0,30.8,0,0.76,0,0,0,0, ,0,0,0,0,0, ,1013.6,-60.3,17.3,-1.5,-2.7,-6.6,25,985.21,-98.5526,9.77626,-0.338503,-1.08278,-10.269,
2026_06_26_18_26_24.569,0,30.8,0,0.758,0,0,0,0, ,0,0,0,0,0, ,994.8,-48.4,20.2,-3,-2,-4.9,25,986.367,-95.859,10.3231,-0.454985,-1.16,-9.99365,
2026_06_26_18_26_24.589,0,30.8,0,0.76,0,0,0,0, ,0,0,0,0,0, ,988.6,-47.4,4.6,-4.2,-0.6,-6.4,25,986.692,-92.9365,10.4497,-0.646634,-1.16853,-9.72896,
2026_06_26_18_26_24.610,0,30.8,0,0.759,0,0,0,0, ,0,0,0,0,0, ,994.7,-50.7,-5.8,-3.1,1,-7.5,25,986.994,-90.2622,9.77632,-0.829652,-1.08513,-9.55961,
2026_06_26_18_26_24.630,0,30.8,0,0.76,0,0,0,0, ,0,0,0,0,0, ,992.1,-46.5,2.4,-1.4,-0.5,-6.8,25,987.384,-87.7234,9.07698,-0.916204,-1.00377,-9.41278,
2026_06_26_18_26_24.649,0,30.8,0,0.759,0,0,0,0, ,0,0,0,0,0, ,993.8,-43.7,8.1,-0.6,-3.3,-6.9,25,987.723,-85.126,8.84377,-0.92131,-1.05839,-9.25661,
2026_06_26_18_26_24.669,0,30.8,0,0.76,0,0,0,0, ,0,0,0,0,0, ,1007.5,-45.8,5.2,-1.1,-1.2,-5.6,25,988.511,-82.6656,8.71009,-0.916965,-1.131,-9.07339,
2026_06_26_18_26_24.688,0,30.8,0,0.76,0,0,0,0, ,0,0,0,0,0, ,996.5,-41.9,-7.3,-1,2.3,-4.5,25,989.333,-80.3003,8.11533,-0.925072,-1.02857,-8.82822,
2026_06_26_18_26_24.708,0,30.8,0,0.758,0,0,0,0, ,0,0,0,0,0, ,978.3,-34.5,-2.3,-0.1,1.1,-4.1,25,989.215,-77.7348,7.32831,-0.902216,-0.862294,-8.55228,
2026_06_26_18_26_24.728,0,30.8,0,0.76,0,0,0,0, ,0,0,0,0,0, ,980.9,-31.8,6.2,-0.4,-3.6,-4.7,25,988.629,-75.0179,7.00057,-0.862471,-0.88592,-8.29925,
2026_06_26_18_26_24.748,0,30.8,0,0.761,0,0,0,0, ,0,0,0,0,0, ,992,-33.2,9.2,-2.1,-4,-5.1,25,988.497,-72.427,7.04319,-0.886086,-1.0635,-8.09211,
2026_06_26_18_26_24.767,0,30.8,0,0.759,0,0,0,0, ,0,0,0,0,0, ,1001.2,-34.5,2.3,-3.9,0.1,-5.4,25,988.99,-70.0762,6.96438,-1.0149,-1.11752,-7.91892,
2026_06_26_18_26_24.787,0,30.8,0,0.759,0,0,0,0, ,0,0,0,0,0, ,992.1,-34.1,-1.5,-4.3,1.3,-5.5,25,989.457,-67.8961,6.56437,-1.2029,-1.00676,-7.76847,
2026_06_26_18_26_24.807,0,30.8,0,0.76,0,0,0,0, ,0,0,0,0,0, ,1002.5,17.9,-11.7,-5.9,7.5,-4.3,25,989.935,-64.2523,5.76216,-1.44038,-0.677288,-7.59367,
2026_06_26_18_26_24.827,0,30.8,0,0.76,0,0,0,0, ,0,0,0,0,0, ,982.4,-40.5,27.2,3.6,2.7,1.5,25,990.088,-61.0255,5.8833,-1.42269,-0.325235,-7.21624,
2026_06_26_18_26_24.847,0,30.8,0,0.761,0,0,0,0, ,0,0,0,0,0, ,993.1,-27.5,14.1,-0.7,0.9,-1.2,25,989.946,-59.3786,6.78314,-1.24763,-0.195729,-6.76736,
2026_06_26_18_26_24.866,0,30.8,0,0.76,0,0,0,0, ,0,0,0,0,0, ,986.2,-35.2,3.9,3.2,-3,0.3,25,989.928,-57.6706,6.91823,-1.09543,-0.247786,-6.3824,
2026_06_26_18_26_24.886,0,30.9,0,0.759,0,0,0,0, ,0,0,0,0,0, ,994.2,-43.8,19.6,2.3,-0.7,-2.6,25,989.944,-56.5634,7.21267,-0.861101,-0.345421,-6.06355,
2026_06_26_18_26_24.906,0,30.8,0,0.759,0,0,0,0, ,0,0,0,0,0, ,989.5,-41.5,19.2,0.2,2.3,-3.2,25,990.061,-55.7155,7.95533,-0.732456,-0.275622,-5.87077,
2026_06_26_18_26_24.926,0,30.8,0,0.76,0,0,0,0, ,0,0,0,0,0, ,990.1,-37.2,13.1,-2.8,2.3,-4.2,25,990.045,-54.7182,8.4547,-0.76704,-0.11867,-5.73849,
2026_06_26_18_26_24.946,0,30.8,0,0.76,0,0,0,0, ,0,0,0,0,0, ,993,-44.1,-6.8,2.3,1.8,-2.9,25,990.136,-53.861,8.13144,-0.735533,0.0134837,-5.60513,
2026_06_26_18_26_24.966,0,30.9,0,0.76,0,0,0,0, ,0,0,0,0,0, ,990.6,-29.9,5.9,7.8,-2,2.9,25,990.238,-52.8335,7.60851,-0.382977,0.00656825,-5.26357,
2026_06_26_18_26_24.986,0,30.9,0,0.76,0,0,0,0, ,0,0,0,0,0, ,989.1,-42.2,21.1,11.8,4.9,-5.7,25,990.214,-51.8107,7.96752,0.237548,0.0945274,-5.02813,
2026_06_26_18_26_25.005,0,30.8,0,0.759,0,0,0,0, ,0,0,0,0,0, ,989,-38.3,27.8,14.3,2.5,-7.1,25,990.143,-51.1063,8.97192,1.01831,0.314236,-5.11173,
2026_06_26_18_26_25.025,0,30.8,0,0.76,0,0,0,0, ,0,0,0,0,0, ,989.2,-39.3,26.7,14.2,0.5,-8.7,25,990.08,-50.3563,10.0857,1.82461,0.386493,-5.28164,
2026_06_26_18_26_25.045,0,30.8,0,0.761,0,0,0,0, ,0,0,0,0,0, ,990.3,-40.1,4.5,13.4,1,-10.2,25,990.06,-49.707,10.4218,2.55436,0.408645,-5.53565,
2026_06_26_18_26_25.065,0,30.9,0,0.761,0,0,0,0, ,0,0,0,0,0, ,990.7,-31.9,4.1,10.3,3.4,-12,25,990.086,-48.8717,10.0487,3.12082,0.517805,-5.87473,
2026_06_26_18_26_25.085,0,30.9,0,0.759,0,0,0,0, ,0,0,0,0,0, ,990.8,-26.7,5.6,10.3,4.6,-12.4,25,990.127,-47.6791,9.73193,3.5583,0.730001,-6.26017,
2026_06_26_18_26_25.104,0,30.8,0,0.76,0,0,0,0, ,0,0,0,0,0, ,991.3,-19.4,24.4,7.5,5.7,-12.6,25,990.183,-46.1782,10.0529,3.88381,0.999345,-6.64041,
2026_06_26_18_26_25.124,0,30.8,0,0.76,0,0,0,0, ,0,0,0,0,0, ,988.1,-20.8,41.1,2.5,4.6,-12.9,25,990.154,-44.5891,11.4361,3.95183,1.25228,-7.01271,
2026_06_26_18_26_25.144,0,30.8,0,0.761,0,0,0,0, ,0,0,0,0,0, ,992.7,-2.9,18.9,-5.1,4.7,-13.8,25,990.169,-42.594,12.5673,3.63179,1.45932,-7.39889,
2026_06_26_18_26_25.164,0,30.8,0,0.76,0,0,0,0, ,0,0,0,0,0, ,990.2,-3.5,26.6,-8.4,5.1,-12.7,25,990.247,-40.1935,13.1878,2.99915,1.66899,-7.75544,
2026_06_26_18_26_25.184,0,30.8,0,0.761,0,0,0,0, ,0,0,0,0,0, ,990.6,15.3,50,-10.4,3.2,-11.6,25,990.256,-37.3846,14.7181,2.24358,1.82018,-8.02324,
2026_06_26_18_26_25.203,0,30.8,0,0.76,0,0,0,0, ,0,0,0,0,0, ,990.8,5.8,36.1,-14.1,0.4,-9.5,25,990.283,-34.4636,16.4446,1.36038,1.81895,-8.17721,
2026_06_26_18_26_25.223,0,30.8,0,0.76,0,0,0,0, ,0,0,0,0,0, ,992,9.6,26.9,-11.8,0,-7.2,25,990.351,-31.8943,17.362,0.488338,1.72029,-8.18774,
2026_06_26_18_26_25.243,0,30.8,0,0.761,0,0,0,0, ,0,0,0,0,0, ,990.2,-8.4,30.8,-9.5,-0.1,-7.2,25,990.397,-29.9142,18.062,-0.190405,1.61242,-8.12755,
2026_06_26_18_26_25.262,0,30.8,0,0.761,0,0,0,0, ,0,0,0,0,0, ,988.8,6.9,40.4,-10.6,-1.4,-8.6,25,990.342,-28.137,19.1308,-0.791224,1.46846,-8.11368,
2026_06_26_18_26_25.283,0,30.8,0,0.76,0,0,0,0, ,0,0,0,0,0, ,986.3,-0.4,47.4,-11.6,-4.9,-9.9,25,990.172,-26.2243,20.6401,-1.41941,1.18702,-8.18293,
2026_06_26_18_26_25.301,0,30.8,0,0.76,0,0,0,0, ,0,0,0,0,0, ,993,-27.2,10.8,-3.8,1.1,-2.6,25,990.14,-25.4672,21.1557,-1.80214,0.998904,-8.06514,
2026_06_26_18_26_25.322,0,30.8,0,0.758,0,0,0,0, ,0,0,0,0,0, ,989.8,15.3,33,-7,1.3,-3.7,25,990.217,-24.2779,21.201,-2.02138,1.01116,-7.76562,
2026_06_26_18_26_25.342,0,30.8,0,0.759,0,0,0,0, ,0,0,0,0,0, ,990.6,10.2,27.2,-3.9,1.2,-3.2,25,990.216,-22.0215,21.7433,-2.23031,1.02571,-7.50264,
2026_06_26_18_26_25.361,0,30.8,0,0.761,0,0,0,0, ,0,0,0,0,0, ,991.4,10.8,30.3,-2,1.5,-3.1,25,990.264,-20.0397,22.1703,-2.27417,1.04547,-7.2374,
2026_06_26_18_26_25.381,0,30.8,0,0.759,0,0,0,0, ,0,0,0,0,0, ,988.2,15.9,37.3,-1.3,0.2,-2.5,25,990.235,-18.005,22.879,-2.23613,1.03356,-6.967,
2026_06_26_18_26_25.401,0,30.9,0,0.761,0,0,0,0, ,0,0,0,0,0, ,991,9.5,24.2,-0.8,0.1,-2.3,25,990.197,-16.134,23.3586,-2.16385,0.97972,-6.6887,
2026_06_26_18_26_25.420,0,30.9,0,0.76,0,0,0,0, ,0,0,0,0,0, ,993.1,7.4,20.8,-1.3,1.7,-3,25,990.31,-14.6359,23.3063,-2.09598,0.974862,-6.44259,
2026_06_26_18_26_25.441,0,30.8,0,0.76,0,0,0,0, ,0,0,0,0,0, ,989.9,16.2,34.6,-3.6,2.1,-3.3,25,990.382,-13.0249,23.574,-2.11755,1.03124,-6.24195,
2026_06_26_18_26_25.464,0,30.9,0,0.759,0,0,0,0, ,0,0,0,0,0, ,988.7,17.7,41,-4.3,0.3,-2.5,25,990.316,-11.1983,24.4409,-2.22922,1.04152,-6.0383,
2026_06_26_18_26_25.483,0,30.8,0,0.76,0,0,0,0, ,0,0,0,0,0, ,986.3,17.2,44.1,-4.6,-1.7,-1.5,25,990.145,-9.45258,25.5444,-2.36455,0.935398,-5.79221,
2026_06_26_18_26_25.500,0,30.8,0,0.76,0,0,0,0, ,0,0,0,0,0, ,989.9,15.5,33.4,-7,-3.1,-0.8,25,990.02,-7.88023,26.3492,-2.57389,0.732147,-5.50933,
2026_06_26_18_26_25.520,0,30.8,0,0.758,0,0,0,0, ,0,0,0,0,0, ,993.4,7.6,18.6,-7.4,-1.8,-1.2,25,990.119,-6.6962,26.3279,-2.8558,0.538235,-5.23454,
2026_06_26_18_26_25.539,0,30.9,0,0.759,0,0,0,0, ,0,0,0,0,0, ,992,3.7,27.8,-5.3,0.2,-2.1,25,990.277,-5.94386,26.1373,-3.06873,0.456686,-5.01611,
2026_06_26_18_26_25.560,0,30.9,0,0.759,0,0,0,0, ,0,0,0,0,0, ,990.6,11.5,31.4,-3.2,0.5,-2.4,25,990.339,-5.11853,26.3483,-3.14071,0.450185,-4.84755,
2026_06_26_18_26_25.579,0,30.8,0,0.76,0,0,0,0, ,0,0,0,0,0, ,990.2,14.8,38.9,-2,-0.5,-1.9,25,990.343,-4.00529,26.8846,-3.10776,0.422752,-4.68317,
2026_06_26_18_26_25.599,0,30.8,0,0.759,0,0,0,0, ,0,0,0,0,0, ,991.3,10.6,28,-1.5,-0.6,-1.6,25,990.368,-2.98731,27.2847,-3.02502,0.363475,-4.50443,
2026_06_26_18_26_25.619,0,30.7,0,0.761,0,0,0,0, ,0,0,0,0,0, ,991.2,12.6,27.8,-1.7,-0.4,-1.6,25,990.421,-2.0984,27.3222,-2.93818,0.310857,-4.32744,
2026_06_26_18_26_25.638,0,30.9,0,0.76,0,0,0,0, ,0,0,0,0,0, ,990.6,12,32.8,-1.2,-0.1,-1.8,25,990.45,-1.22099,27.5037,-2.8475,0.27668,-4.16733,
2026_06_26_18_26_25.659,0,30.8,0,0.759,0,0,0,0, ,0,0,0,0,0, ,990.3,11.5,30,-1.4,0,-2,25,990.45,-0.430575,27.7411,-2.7532,0.256772,-4.02916,
2026_06_26_18_26_25.679,0,30.8,0,0.759,0,0,0,0, ,0,0,0,0,0, ,989.7,13.4,34.9,-1.4,-0.8,-1.8,25,990.423,0.354335,28.028,-2.67074,0.21675,-3.89942,
2026_06_26_18_26_25.698,0,30.8,0,0.76,0,0,0,0, ,0,0,0,0,0, ,991.8,9,24.5,-1.1,-0.7,-1.7,25,990.443,1.01524,28.1299,-2.58416,0.157839,-3.76844,
2026_06_26_18_26_25.719,0,30.8,0,0.761,0,0,0,0, ,0,0,0,0,0, ,991.9,11.1,31.6,-1.3,0,-2.2,25,990.529,1.5658,28.1251,-2.49981,0.126893,-3.65763,
2026_06_26_18_26_25.738,0,30.8,0,0.76,0,0,0,0, ,0,0,0,0,0, ,991.3,10.9,30.2,-1.9,0.3,-2.3,25,990.594,2.1407,28.2942,-2.44498,0.128301,-3.57185,
2026_06_26_18_26_25.758,0,30.8,0,0.758,0,0,0,0, ,0,0,0,0,0, ,991.4,13.5,32.5,-3.6,0.1,-2.2,25,990.64,2.75368,28.4804,-2.46357,0.13267,-3.4913,
2026_06_26_18_26_25.777,0,30.8,0,0.76,0,0,0,0, ,0,0,0,0,0, ,989.3,15.2,32.4,-4.2,0,-2.2,25,990.622,3.46033,28.7223,-2.5511,0.127632,-3.41261,
2026_06_26_18_26_25.797,0,30.9,0,0.761,0,0,0,0, ,0,0,0,0,0, ,988.1,16.9,41.1,-4,-1.2,-1.8,25,990.505,4.22752,29.2115,-2.64549,0.0832921,-3.32653,
2026_06_26_18_26_25.817,0,30.8,0,0.76,0,0,0,0, ,0,0,0,0,0, ,990.1,11.7,29,-4,-1.5,-1.6,25,990.42,4.84131,29.5672,-2.72803,-0.0040491,-3.22741,
2026_06_26_18_26_25.837,0,30.8,0,0.761,0,0,0,0, ,0,0,0,0,0, ,992.3,11.4,28,-5.3,-0.8,-1.8,25,990.467,5.25012,29.5022,-2.84515,-0.0738805,-3.13434,
2026_06_26_18_26_25.856,0,30.8,0,0.76,0,0,0,0, ,0,0,0,0,0, ,990.4,13.3,36.6,-3.2,-0.3,-1.8,25,990.521,5.68277,29.6727,-2.93076,-0.102894,-3.05303,
2026_06_26_18_26_25.877,0,30.8,0,0.759,0,0,0,0, ,0,0,0,0,0, ,991.2,13,30.5,-2.3,-0.8,-1.6,25,990.538,6.1378,29.909,-2.91974,-0.13014,-2.97058,
2026_06_26_18_26_25.896,0,30.8,0,0.76,0,0,0,0, ,0,0,0,0,0, ,989.8,13.7,33.2,-2.9,-1.3,-1.4,25,990.536,6.5773,30.0273,-2.90026,-0.186194,-2.88096,
2026_06_26_18_26_25.917,0,30.8,0,0.76,0,0,0,0, ,0,0,0,0,0, ,990.4,9.2,32.9,-1.8,-1.4,-1.2,25,990.509,6.87423,30.2115,-2.86673,-0.257113,-2.78462,
2026_06_26_18_26_25.936,0,30.9,0,0.761,0,0,0,0, ,0,0,0,0,0, ,992,9.3,25.2,-0.9,-0.9,-1.4,25,990.551,7.019,30.1407,-2.7743,-0.311523,-2.69415,
2026_06_26_18_26_25.956,0,30.9,0,0.76,0,0,0,0, ,0,0,0,0,0, ,991.2,13.4,29.9,-0.8,-0.4,-1.8,25,990.615,7.28292,29.9828,-2.65704,-0.332149,-2.62748,
2026_06_26_18_26_25.981,0,30.8,0,0.759,0,0,0,0, ,0,0,0,0,0, ,990.1,13,31.4,-0.7,-0.1,-1.9,25,990.617,7.64349,30.0235,-2.54083,-0.327143,-2.5801,
2026_06_26_18_26_26.002,0,30.8,0,0.76,0,0,0,0, ,0,0,0,0,0, ,990.7,13.6,32.3,-0.6,-0.5,-1.5,25,990.604,7.98819,30.1348,-2.42561,-0.325489,-2.52647,
2026_06_26_18_26_26.015,0,30.7,0,0.76,0,0,0,0, ,0,0,0,0,0, ,991.6,12.3,32.2,-0.6,-0.9,-1.4,25,990.637,8.29055,30.2637,-2.31436,-0.348311,-2.46087,
2026_06_26_18_26_26.036,0,30.8,0,0.76,0,0,0,0, ,0,0,0,0,0, ,990.7,11.4,30.1,-0.9,-0.9,-1.4,25,990.669,8.50745,30.3177,-2.21903,-0.381929,-2.39623,
2026_06_26_18_26_26.054,0,30.8,0,0.76,0,0,0,0, ,0,0,0,0,0, ,991.6,11.3,27,-1.7,-0.8,-1.6,25,990.698,8.68067,30.21,-2.16303,-0.410453,-2.34161,
2026_06_26_18_26_26.074,0,30.8,0,0.759,0,0,0,0, ,0,0,0,0,0, ,990.2,11.9,31.3,-1.2,-0.3,-1.6,25,990.71,8.85857,30.1454,-2.11958,-0.418956,-2.29642,
2026_06_26_18_26_26.094,0,30.8,0,0.76,0,0,0,0, ,0,0,0,0,0, ,990.6,14.1,35,-1.2,-0.7,-1.5,25,990.691,9.11093,30.3285,-2.06354,-0.423895,-2.25093,
2026_06_26_18_26_26.116,0,30.8,0,0.76,0,0,0,0, ,0,0,0,0,0, ,988.6,14.4,31.4,-1.4,-1.2,-1.2,25,990.625,9.4241,30.5034,-2.01701,-0.455954,-2.19603,
2026_06_26_18_26_26.133,0,30.8,0,0.76,0,0,0,0, ,0,0,0,0,0, ,991.4,11.2,28.1,-1.7,-1.2,-1.2,25,990.587,9.62981,30.4575,-1.98855,-0.501295,-2.13534,
2026_06_26_18_26_26.155,0,30.9,0,0.76,0,0,0,0, ,0,0,0,0,0, ,991.9,8.7,22,-1.8,-0.9,-1.4,25,990.651,9.64933,30.128,-1.97402,-0.534731,-2.08443,
2026_06_26_18_26_26.173,0,30.7,0,0.76,0,0,0,0, ,0,0,0,0,0, ,989.7,10.2,29.7,-1.7,-0.5,-1.6,25,990.661,9.63718,29.8673,-1.96037,-0.544802,-2.04882,
2026_06_26_18_26_26.195,0,30.9,0,0.76,0,0,0,0, ,0,0,0,0,0, ,991.3,12,31.7,-1.3,-0.4,-1.8,25,990.651,9.72632,29.9181,-1.93231,-0.539025,-2.02756,
2026_06_26_18_26_26.213,0,30.8,0,0.759,0,0,0,0, ,0,0,0,0,0, ,991.8,10.6,31.8,-0.8,-0.4,-1.8,25,990.706,9.82222,30.0297,-1.87855,-0.530554,-2.0137,
2026_06_26_18_26_26.234,0,30.9,0,0.76,0,0,0,0, ,0,0,0,0,0, ,990.9,10,26.9,-0.7,-0.2,-1.9,25,990.745,9.85133,29.9883,-1.80977,-0.516504,-2.00372,
2026_06_26_18_26_26.252,0,30.9,0,0.76,0,0,0,0, ,0,0,0,0,0, ,991.6,11.7,31.7,-0.5,0,-2.2,25,990.776,9.91219,29.9463,-1.73605,-0.491123,-2.00654,
2026_06_26_18_26_26.274,0,30.8,0,0.758,0,0,0,0, ,0,0,0,0,0, ,990.3,12.5,30.1,-0.5,0,-2.1,25,990.786,10.0455,30.0044,-1.66073,-0.461196,-2.01528,
2026_06_26_18_26_26.292,0,30.8,0,0.758,0,0,0,0, ,0,0,0,0,0, ,989.1,14.7,35.2,-0.5,-0.6,-1.7,25,990.72,10.2621,30.1657,-1.59,-0.451373,-2.00826,
2026_06_26_18_26_26.313,0,30.8,0,0.759,0,0,0,0, ,0,0,0,0,0, ,990.4,13.6,32.2,-0.5,-1.2,-1.3,25,990.661,10.499,30.381,-1.52358,-0.478711,-1.97729,
2026_06_26_18_26_26.331,0,30.9,0,0.761,0,0,0,0, ,0,0,0,0,0, ,990.7,11.2,26.1,-0.4,-1.1,-1.2,25,990.654,10.6149,30.306,-1.45816,-0.519618,-1.93297,
2026_06_26_18_26_26.353,0,30.8,0,0.761,0,0,0,0, ,0,0,0,0,0, ,992.3,7.4,25.5,0,-0.6,-1.6,25,990.706,10.5347,30.0314,-1.38149,-0.53975,-1.90049,
2026_06_26_18_26_26.371,0,30.8,0,0.76,0,0,0,0, ,0,0,0,0,0, ,990.7,8.7,30,1,0,-2.1,25,990.754,10.3833,29.8924,-1.26683,-0.525141,-1.89741,
2026_06_26_18_26_26.392,0,30.8,0,0.761,0,0,0,0, ,0,0,0,0,0, ,989.8,13.4,32.9,2.8,-0.2,-1.8,25,990.723,10.424,29.9873,-1.07386,-0.499234,-1.90062,
2026_06_26_18_26_26.411,0,30.8,0,0.759,0,0,0,0, ,0,0,0,0,0, ,991.4,13.6,29.7,2.9,-0.5,-1.7,25,990.716,10.6114,30.0673,-0.834746,-0.49014,-1.89144,
2026_06_26_18_26_26.432,0,30.9,0,0.76,0,0,0,0, ,0,0,0,0,0, ,991.9,14.1,29.6,1.4,-0.9,-1.4,25,990.773,10.8088,30.0419,-0.652863,-0.502928,-1.87063,
2026_06_26_18_26_26.450,0,30.8,0,0.76,0,0,0,0, ,0,0,0,0,0, ,991.2,11.9,28,1,-0.7,-1.5,25,990.82,10.9423,29.9662,-0.539954,-0.521031,-1.845,
2026_06_26_18_26_26.479,0,30.8,0,0.761,0,0,0,0, ,0,0,0,0,0, ,990.1,11.7,28.9,0.5,-0.8,-1.4,25,990.81,10.9945,29.8738,-0.461348,-0.534984,-1.82093,
2026_06_26_18_26_26.490,0,30.8,0,0.759,0,0,0,0, ,0,0,0,0,0, ,991.9,11.2,28.5,-0.5,-0.5,-1.5,25,990.821,11.0223,29.8023,-0.433234,-0.541992,-1.79833,
2026_06_26_18_26_26.511,0,30.9,0,0.761,0,0,0,0, ,0,0,0,0,0, ,990.8,12.2,31.9,-0.6,-0.7,-1.3,25,990.854,11.0636,29.8265,-0.44035,-0.545527,-1.77405,
2026_06_26_18_26_26.529,0,30.8,0,0.76,0,0,0,0, ,0,0,0,0,0, ,989.9,11.3,32.8,-0.5,-1.2,-1,25,990.823,11.1054,29.9803,-0.447032,-0.570175,-1.73603,
2026_06_26_18_26_26.551,0,30.8,0,0.759,0,0,0,0, ,0,0,0,0,0, ,990.7,9.1,28.5,-0.5,-1.2,-1.2,25,990.791,11.0503,30.0211,-0.450259,-0.608555,-1.69727,
2026_06_26_18_26_26.569,0,30.8,0,0.76,0,0,0,0, ,0,0,0,0,0, ,991.3,10.3,27.8,-0.5,-0.9,-1.4,25,990.804,10.968,29.9071,-0.45329,-0.635455,-1.67306,
2026_06_26_18_26_26.591,0,30.7,0,0.76,0,0,0,0, ,0,0,0,0,0, ,990.9,10.2,28.6,-0.6,-0.9,-1.5,25,990.822,10.9242,29.8031,-0.459184,-0.651576,-1.65947,
2026_06_26_18_26_26.609,0,30.8,0,0.76,0,0,0,0, ,0,0,0,0,0, ,990.8,8,24.5,-0.7,-0.7,-1.6,25,990.824,10.8131,29.6048,-0.470811,-0.660621,-1.6528,
2026_06_26_18_26_26.630,0,30.8,0,0.759,0,0,0,0, ,0,0,0,0,0, ,991.5,10.4,27.9,-0.8,-0.5,-1.6,25,990.843,10.7148,29.3973,-0.487825,-0.656927,-1.64958,
2026_06_26_18_26_26.649,0,30.8,0,0.758,0,0,0,0, ,0,0,0,0,0, ,991.2,9.5,27.4,-0.8,-0.3,-1.8,25,990.874,10.6682,29.2909,-0.506848,-0.64127,-1.65265,
2026_06_26_18_26_26.671,0,30.8,0,0.758,0,0,0,0, ,0,0,0,0,0, ,991.9,10.2,28.6,-0.7,-0.2,-1.9,25,990.915,10.6183,29.2122,-0.521665,-0.617427,-1.66468,
2026_06_26_18_26_26.688,0,30.7,0,0.761,0,0,0,0, ,0,0,0,0,0, ,990.7,10.8,26.8,-0.5,-0.3,-1.8,25,990.939,10.6111,29.1201,-0.526438,-0.595037,-1.67597,
2026_06_26_18_26_26.710,0,30.8,0,0.76,0,0,0,0, ,0,0,0,0,0, ,990.2,11.9,30.6,-0.5,-0.5,-1.7,25,990.909,10.6561,29.0945,-0.524827,-0.583152,-1.68048,
2026_06_26_18_26_26.728,0,30.8,0,0.76,0,0,0,0, ,0,0,0,0,0, ,990.6,11.8,29.2,-0.6,-0.7,-1.5,25,990.878,10.7289,29.1435,-0.526361,-0.584179,-1.67558,
2026_06_26_18_26_26.749,0,30.7,0,0.76,0,0,0,0, ,0,0,0,0,0, ,990.4,10.6,27.8,-0.5,-0.8,-1.4,25,990.855,10.7576,29.1043,-0.527802,-0.594283,-1.66183,
2026_06_26_18_26_26.767,0,30.9,0,0.759,0,0,0,0, ,0,0,0,0,0, ,990.1,10.6,27.5,-0.5,-0.7,-1.6,25,990.818,10.748,29.0157,-0.526108,-0.603772,-1.65197,
2026_06_26_18_26_26.789,0,30.9,0,0.758,0,0,0,0, ,0,0,0,0,0, ,990.4,10.1,28.1,-0.5,-0.5,-1.7,25,990.784,10.7237,28.9416,-0.524517,-0.603542,-1.65185,
2026_06_26_18_26_26.809,0,30.8,0,0.761,0,0,0,0, ,0,0,0,0,0, ,991.2,9.3,27.3,-0.5,-0.3,-1.8,25,990.785,10.6613,28.866,-0.523023,-0.591139,-1.65783,
2026_06_26_18_26_26.831,0,30.8,0,0.761,0,0,0,0, ,0,0,0,0,0, ,991.6,9.7,24.5,-0.5,0.1,-2,25,990.822,10.5906,28.6852,-0.52162,-0.56121,-1.67259,
2026_06_26_18_26_26.846,0,30.9,0,0.761,0,0,0,0, ,0,0,0,0,0, ,990.8,12,32.1,-0.5,0,-2,25,990.845,10.6064,28.6617,-0.520302,-0.523965,-1.69254,
2026_06_26_18_26_26.868,0,30.9,0,0.757,0,0,0,0, ,0,0,0,0,0, ,990.8,8,30.1,-0.5,-0.2,-2,25,990.842,10.5694,28.8103,-0.519065,-0.498129,-1.71128,
2026_06_26_18_26_26.886,0,30.8,0,0.761,0,0,0,0, ,0,0,0,0,0, ,991.6,11.7,29.4,-0.5,0,-2,25,990.864,10.5256,28.8676,-0.517903,-0.473868,-1.72887,
2026_06_26_18_26_26.907,0,30.8,0,0.759,0,0,0,0, ,0,0,0,0,0, ,990.9,10.9,31.6,-0.5,-0.7,-1.6,25,990.888,10.5728,28.9671,-0.516812,-0.46632,-1.7332,
2026_06_26_18_26_26.926,0,30.8,0,0.761,0,0,0,0, ,0,0,0,0,0, ,990.1,10.3,28.3,-0.5,-0.9,-1.6,25,990.864,10.5744,29.027,-0.515788,-0.486654,-1.72509,
2026_06_26_18_26_26.948,0,30.8,0,0.759,0,0,0,0, ,0,0,0,0,0, ,991.5,8.5,24.9,-0.5,0,-1.7,25,990.86,10.5029,28.8791,-0.514826,-0.48442,-1.72051,
2026_06_26_18_26_26.965,0,30.9,0,0.761,0,0,0,0, ,0,0,0,0,0, ,990.4,10.8,29.4,-0.5,-0.5,-1.5,25,990.866,10.4509,28.7737,-0.513922,-0.470135,-1.71317,
2026_06_26_18_26_26.988,0,30.8,0,0.758,0,0,0,0, ,0,0,0,0,0, ,990.8,11.3,31.2,-0.6,-0.4,-1.7,25,990.849,10.4874,28.8667,-0.516121,-0.468908,-1.70627,
2026_06_26_18_26_27.004,0,30.8,0,0.759,0,0,0,0, ,0,0,0,0,0, ,991.3,11.1,28,-0.5,-0.7,-1.6,25,990.862,10.5308,28.9114,-0.518185,-0.47385,-1.70284,
2026_06_26_18_26_27.029,0,30.8,0,0.759,0,0,0,0, ,0,0,0,0,0, ,991.2,10.9,30.2,-0.5,-0.8,-1.4,25,990.885,10.5594,28.9229,-0.517077,-0.490678,-1.69048,
2026_06_26_18_26_27.044,0,30.8,0,0.76,0,0,0,0, ,0,0,0,0,0, ,990.6,11.3,27.2,-0.5,-0.8,-1.5,25,990.886,10.5924,28.9093,-0.516037,-0.509527,-1.67583,
2026_06_26_18_26_27.068,0,30.8,0,0.76,0,0,0,0, ,0,0,0,0,0, ,990.9,10,27.5,-0.5,-0.6,-1.4,25,990.878,10.5959,28.8143,-0.515059,-0.521134,-1.66207,
2026_06_26_18_26_27.083,0,30.8,0,0.76,0,0,0,0, ,0,0,0,0,0, ,991.3,9.5,23.9,-0.5,-0.7,-1.4,25,990.891,10.5443,28.6245,-0.514142,-0.528987,-1.6461,
2026_06_26_18_26_27.106,0,30.8,0,0.761,0,0,0,0, ,0,0,0,0,0, ,989.6,10.6,30.8,-0.5,-0.6,-1.5,25,990.865,10.5142,28.5468,-0.51328,-0.536361,-1.63415,
2026_06_26_18_26_27.124,0,30.8,0,0.758,0,0,0,0, ,0,0,0,0,0, ,990.6,9.6,28.8,-0.5,-0.9,-1.4,25,990.818,10.489,28.6232,-0.512471,-0.54938,-1.62293,
2026_06_26_18_26_27.146,0,30.8,0,0.759,0,0,0,0, ,0,0,0,0,0, ,990.1,9.6,29,-0.6,-0.9,-1.4,25,990.789,10.4348,28.6401,-0.514758,-0.570745,-1.60934,
2026_06_26_18_26_27.163,0,30.8,0,0.76,0,0,0,0, ,0,0,0,0,0, ,990.3,8.1,25.6,-0.7,-0.7,-1.5,25,990.754,10.3382,28.5584,-0.522999,-0.584716,-1.59963,
2026_06_26_18_26_27.186,0,30.8,0,0.76,0,0,0,0, ,0,0,0,0,0, ,989.8,10.7,28.4,-0.6,-0.7,-1.6,25,990.711,10.281,28.4635,-0.530738,-0.591741,-1.59661,
2026_06_26_18_26_27.203,0,30.8,0,0.759,0,0,0,0, ,0,0,0,0,0, ,989.9,9,28.3,-0.5,-0.6,-1.5,25,990.658,10.2548,28.4565,-0.531912,-0.595291,-1.59377,
2026_06_26_18_26_27.224,0,30.8,0,0.76,0,0,0,0, ,0,0,0,0,0, ,990.7,8,25.2,-0.5,-0.4,-1.7,25,990.636,10.1478,28.3525,-0.529967,-0.589484,-1.59415,
2026_06_26_18_26_27.242,0,30.9,0,0.759,0,0,0,0, ,0,0,0,0,0, ,990.4,10.7,29.4,-0.5,-0.6,-1.6,25,990.631,10.0992,28.2884,-0.528141,-0.584031,-1.59755,
2026_06_26_18_26_27.266,0,30.8,0,0.76,0,0,0,0, ,0,0,0,0,0, ,990.2,9.3,28.5,-0.6,-0.9,-1.4,25,990.611,10.0932,28.3287,-0.529473,-0.594145,-1.59161,
2026_06_26_18_26_27.282,0,30.8,0,0.76,0,0,0,0, ,0,0,0,0,0, ,989.8,8.5,27.5,-0.6,-0.5,-1.7,25,990.574,10.0205,28.3087,-0.533771,-0.600596,-1.58907,
2026_06_26_18_26_27.305,0,30.8,0,0.759,0,0,0,0, ,0,0,0,0,0, ,991.8,9.6,27.2,-0.4,-0.5,-1.7,25,990.587,9.96134,28.2503,-0.531713,-0.594465,-1.59583,
2026_06_26_18_26_27.322,0,30.8,0,0.761,0,0,0,0, ,0,0,0,0,0, ,989.8,9.2,25,-0.5,-0.4,-1.8,25,990.6,9.92713,28.1192,-0.526734,-0.585662,-1.60522,
2026_06_26_18_26_27.345,0,30.8,0,0.761,0,0,0,0, ,0,0,0,0,0, ,991.2,12.5,29.1,-0.5,0,-1.9,25,990.594,9.98337,28.0541,-0.525104,-0.562161,-1.62014,
2026_06_26_18_26_27.361,0,30.9,0,0.759,0,0,0,0, ,0,0,0,0,0, ,991.2,10.3,28.8,-0.6,-0.5,-1.5,25,990.631,10.0697,28.1087,-0.526622,-0.543139,-1.62501,
2026_06_26_18_26_27.384,0,30.8,0,0.759,0,0,0,0, ,0,0,0,0,0, ,990.1,10.8,29.9,-0.5,-0.6,-1.5,25,990.632,10.099,28.1843,-0.528046,-0.543557,-1.61739,
2026_06_26_18_26_27.401,0,30.8,0,0.76,0,0,0,0, ,0,0,0,0,0, ,991.4,9.3,25.6,-0.5,-0.8,-1.5,25,990.64,10.096,28.1579,-0.526337,-0.55309,-1.61024,
2026_06_26_18_26_27.423,0,30.8,0,0.76,0,0,0,0, ,0,0,0,0,0, ,990.4,10.7,30.5,-0.5,-0.6,-1.5,25,990.655,10.0901,28.1513,-0.524732,-0.562042,-1.60352,
2026_06_26_18_26_27.440,0,30.8,0,0.759,0,0,0,0, ,0,0,0,0,0, ,990.6,11.4,28.8,-0.5,-1.3,-1,25,990.646,10.1486,28.2426,-0.523225,-0.585683,-1.58198,
2026_06_26_18_26_27.463,0,30.7,0,0.759,0,0,0,0, ,0,0,0,0,0, ,992,7.5,25.7,-0.5,-0.9,-1.3,25,990.686,10.106,28.1821,-0.52181,-0.617025,-1.55565,
2026_06_26_18_26_27.480,0,30.9,0,0.76,0,0,0,0, ,0,0,0,0,0, ,991.5,6.9,24,-0.5,-0.4,-1.7,25,990.751,9.92896,27.9791,-0.520481,-0.619034,-1.55226,
2026_06_26_18_26_27.503,0,30.7,0,0.76,0,0,0,0, ,0,0,0,0,0, ,989.6,8.3,28.4,-0.6,-0.5,-1.8,25,990.738,9.78704,27.8707,-0.52228,-0.608734,-1.56431,
2026_06_26_18_26_27.519,0,30.8,0,0.761,0,0,0,0, ,0,0,0,0,0, ,992.5,8.9,28.4,-0.6,-0.6,-1.6,25,990.757,9.71471,27.9029,-0.527016,-0.605154,-1.57258,
2026_06_26_18_26_27.541,0,30.7,0,0.759,0,0,0,0, ,0,0,0,0,0, ,989.8,5.1,22.2,-1.2,-0.4,-2,25,990.781,9.54928,27.7443,-0.549744,-0.598747,-1.58644,
2026_06_26_18_26_27.559,0,30.7,0,0.761,0,0,0,0, ,0,0,0,0,0, ,990.8,9.8,23.8,-2.1,0.1,-2.2,25,990.752,9.42135,27.4552,-0.616791,-0.571401,-1.61773,
2026_06_26_18_26_27.582,0,30.9,0,0.759,0,0,0,0, ,0,0,0,0,0, ,991,12,29.2,-2,0,-2.1,25,990.761,9.51146,27.397,-0.704127,-0.533534,-1.65017,
2026_06_26_18_26_27.598,0,30.7,0,0.759,0,0,0,0, ,0,0,0,0,0, ,991.4,10.2,29.2,-1.3,-0.2,-1.9,25,990.788,9.60826,27.5069,-0.761766,-0.507116,-1.67149,
2026_06_26_18_26_27.622,0,30.7,0,0.76,0,0,0,0, ,0,0,0,0,0, ,992.1,10.4,31.1,-0.7,-0.2,-1.8,25,990.846,9.65041,27.6679,-0.776284,-0.488401,-1.68236,
2026_06_26_18_26_27.637,0,30.8,0,0.76,0,0,0,0, ,0,0,0,0,0, ,991.2,7.9,24.4,-0.5,-0.4,-1.7,25,990.895,9.61992,27.6729,-0.765542,-0.47692,-1.68649,
2026_06_26_18_26_27.661,0,30.8,0,0.76,0,0,0,0, ,0,0,0,0,0, ,990.7,9.8,29.7,-0.4,-0.2,-1.9,25,990.899,9.573,27.635,-0.746313,-0.466139,-1.6934,
2026_06_26_18_26_27.677,0,30.8,0,0.76,0,0,0,0, ,0,0,0,0,0, ,990.2,10.7,28.9,-0.5,-0.7,-1.5,25,990.871,9.61426,27.7364,-0.728257,-0.465156,-1.6938,
2026_06_26_18_26_27.707,0,30.9,0,0.759,0,0,0,0, ,0,0,0,0,0, ,990.1,13.4,31.2,-0.5,-1.1,-1.2,25,990.827,9.76268,27.8774,-0.714347,-0.491654,-1.67285,
2026_06_26_18_26_27.717,0,30.9,0,0.76,0,0,0,0, ,0,0,0,0,0, ,990.7,7,25,-0.5,-1,-1.2,25,990.801,9.78933,27.891,-0.701285,-0.525678,-1.64404,
2026_06_26_18_26_27.740,0,30.8,0,0.76,0,0,0,0, ,0,0,0,0,0, ,992.5,6.2,23.5,-0.6,-0.6,-1.4,25,990.85,9.59498,27.6691,-0.692067,-0.542395,-1.62307,
2026_06_26_18_26_27.757,0,30.8,0,0.759,0,0,0,0, ,0,0,0,0,0, ,990.1,9.3,28.3,-0.5,-0.3,-1.7,25,990.877,9.48256,27.5613,-0.683409,-0.536765,-1.61862,
2026_06_26_18_26_27.780,0,30.8,0,0.76,0,0,0,0, ,0,0,0,0,0, ,991.2,9.5,26.8,-0.5,-0.3,-1.8,25,990.864,9.47752,27.5606,-0.672233,-0.522337,-1.62663,
2026_06_26_18_26_27.796,0,30.8,0,0.759,0,0,0,0, ,0,0,0,0,0, ,990.6,10,27.9,-0.5,-0.5,-1.6,25,990.866,9.49413,27.5478,-0.661737,-0.514882,-1.6311,
2026_06_26_18_26_27.820,0,30.8,0,0.761,0,0,0,0, ,0,0,0,0,0, ,990.3,9,27.4,-0.5,-0.5,-1.7,25,990.84,9.49449,27.554,-0.651882,-0.513975,-1.63225,
2026_06_26_18_26_27.836,0,30.9,0,0.76,0,0,0,0, ,0,0,0,0,0, ,990.9,9.2,28.4,-0.5,-0.7,-1.6,25,990.826,9.47045,27.5751,-0.642626,-0.519217,-1.63333,
2026_06_26_18_26_27.859,0,30.8,0,0.76,0,0,0,0, ,0,0,0,0,0, ,990.6,8.5,25.8,-0.5,-0.6,-1.7,25,990.821,9.43264,27.5461,-0.633935,-0.527187,-1.63435,
2026_06_26_18_26_27.875,0,30.8,0,0.76,0,0,0,0, ,0,0,0,0,0, ,992.3,8.1,25.2,-0.5,-0.5,-1.7,25,990.86,9.36362,27.4215,-0.625773,-0.528577,-1.63835,
2026_06_26_18_26_27.899,0,30.9,0,0.76,0,0,0,0, ,0,0,0,0,0, ,991,10.6,28.4,-0.5,-0.4,-1.7,25,990.908,9.36279,27.3836,-0.618109,-0.523789,-1.64211,
2026_06_26_18_26_27.916,0,30.8,0,0.759,0,0,0,0, ,0,0,0,0,0, ,990.2,9.7,28.8,-0.5,-0.5,-1.6,25,990.889,9.41076,27.4577,-0.610912,-0.519292,-1.64259,
2026_06_26_18_26_27.940,0,30.9,0,0.759,0,0,0,0, ,0,0,0,0,0, ,991.4,9.5,28,-0.5,-0.6,-1.6,25,990.884,9.42229,27.5151,-0.604153,-0.521163,-1.63999,
2026_06_26_18_26_27.955,0,30.8,0,0.759,0,0,0,0, ,0,0,0,0,0, ,990.2,8.3,26.8,-0.5,-0.5,-1.6,25,990.878,9.39046,27.5081,-0.597806,-0.522921,-1.63755,
2026_06_26_18_26_27.980,0,30.8,0,0.759,0,0,0,0, ,0,0,0,0,0, ,990.9,10.2,27,-0.5,-0.5,-1.6,25,990.858,9.3819,27.4711,-0.591846,-0.521524,-1.63527,
2026_06_26_18_26_27.994,0,30.8,0,0.759,0,0,0,0, ,0,0,0,0,0, ,990.4,10,27.7,-0.6,-0.7,-1.6,25,990.846,9.42566,27.4637,-0.589296,-0.526306,-1.63312,
2026_06_26_18_26_28.018,0,30.8,0,0.76,0,0,0,0, ,0,0,0,0,0, ,991.6,8.9,25.8,-0.6,-0.7,-1.5,25,990.855,9.42715,27.4202,-0.589948,-0.53689,-1.62805,
2026_06_26_18_26_28.033,0,30.8,0,0.759,0,0,0,0, ,0,0,0,0,0, ,990.3,10.1,27.3,-0.5,-0.8,-1.4,25,990.861,9.43159,27.3672,-0.587514,-0.549877,-1.6172,
2026_06_26_18_26_28.057,0,30.8,0,0.76,0,0,0,0, ,0,0,0,0,0, ,992,6.1,22.8,-0.6,-0.5,-1.5,25,990.879,9.35044,27.226,-0.585228,-0.555978,-1.60701,
2026_06_26_18_26_28.074,0,30.8,0,0.76,0,0,0,0, ,0,0,0,0,0, ,990.7,8.1,27.2,-0.5,-0.4,-1.7,25,990.907,9.21331,27.0903,-0.583081,-0.54952,-1.60659,
2026_06_26_18_26_28.097,0,30.8,0,0.76,0,0,0,0, ,0,0,0,0,0, ,991.3,9,26.3,-0.5,-0.5,-1.7,25,990.913,9.17289,27.0696,-0.578019,-0.543456,-1.61228,
2026_06_26_18_26_28.113,0,30.9,0,0.759,0,0,0,0, ,0,0,0,0,0, ,991.4,8.1,26,-0.5,-0.4,-1.7,25,990.94,9.13493,27.0135,-0.573264,-0.537761,-1.61762,
2026_06_26_18_26_28.138,0,30.9,0,0.76,0,0,0,0, ,0,0,0,0,0, ,991.2,8.5,26.2,-0.5,-0.4,-1.7,25,990.961,9.08405,26.9579,-0.5688,-0.529366,-1.62264,
2026_06_26_18_26_28.153,0,30.8,0,0.759,0,0,0,0, ,0,0,0,0,0, ,989.9,7.3,25.6,-0.6,-0.3,-1.8,25,990.936,9.0119,26.8934,-0.567654,-0.518436,-1.6304,
2026_06_26_18_26_28.177,0,30.8,0,0.761,0,0,0,0, ,0,0,0,0,0, ,989.5,9.5,28.3,-0.5,-0.2,-1.9,25,990.861,8.97461,26.8969,-0.566578,-0.502078,-1.64379,
2026_06_26_18_26_28.192,0,30.8,0,0.759,0,0,0,0, ,0,0,0,0,0, ,991.3,9.1,27.7,-0.5,-0.4,-1.7,25,990.833,8.99444,26.9641,-0.562521,-0.489764,-1.65331,
2026_06_26_18_26_28.216,0,30.8,0,0.76,0,0,0,0, ,0,0,0,0,0, ,991.3,6.7,25.8,-0.5,-0.4,-1.8,25,990.861,8.92775,26.951,-0.558711,-0.484294,-1.6592,
2026_06_26_18_26_28.232,0,30.8,0,0.76,0,0,0,0, ,0,0,0,0,0, ,991,7,26,-0.5,-0.1,-2.1,25,990.879,8.80113,26.887,-0.555134,-0.470017,-1.67692,
2026_06_26_18_26_28.256,0,30.8,0,0.76,0,0,0,0, ,0,0,0,0,0, ,991,6.2,24,-0.5,0.2,-2.5,25,990.886,8.667,26.772,-0.551774,-0.438328,-1.71489,
2026_06_26_18_26_28.271,0,30.8,0,0.758,0,0,0,0, ,0,0,0,0,0, ,991,13.6,30.8,-0.5,0.1,-2.3,25,990.893,8.74214,26.8103,-0.548619,-0.402477,-1.75664,
2026_06_26_18_26_28.296,0,30.8,0,0.759,0,0,0,0, ,0,0,0,0,0, ,991.3,11.5,30.5,-0.5,-0.3,-1.7,25,990.909,8.97418,27.0443,-0.545656,-0.384045,-1.77147,
2026_06_26_18_26_28.311,0,30.8,0,0.761,0,0,0,0, ,0,0,0,0,0, ,990.2,8.6,27.9,-0.5,-0.4,-1.6,25,990.899,9.03974,27.1756,-0.542874,-0.38197,-1.76406,
2026_06_26_18_26_28.335,0,30.7,0,0.761,0,0,0,0, ,0,0,0,0,0, ,990.3,8.9,28,-0.5,-0.3,-1.7,25,990.86,9.02208,27.2228,-0.540261,-0.380022,-1.75711,
2026_06_26_18_26_28.354,0,30.8,0,0.76,0,0,0,0, ,0,0,0,0,0, ,990.9,9.7,27.9,-0.5,-0.5,-1.6,25,990.844,9.03902,27.2671,-0.537808,-0.381239,-1.75059,
2026_06_26_18_26_28.378,0,30.9,0,0.762,0,0,0,0, ,0,0,0,0,0, ,991.5,9.5,26.7,-0.5,-0.7,-1.6,25,990.866,9.0732,27.2691,-0.535504,-0.39457,-1.74141,
2026_06_26_18_26_28.390,0,30.8,0,0.76,0,0,0,0, ,0,0,0,0,0, ,989.8,9.7,26.4,-0.5,-0.4,-1.6,25,990.852,9.1053,27.2253,-0.533341,-0.404042,-1.73279,
2026_06_26_18_26_28.415,0,30.7,0,0.761,0,0,0,0, ,0,0,0,0,0, ,991.5,8,25.2,-0.5,-0.2,-1.9,25,990.84,9.08975,27.1384,-0.531309,-0.397701,-1.73384,
2026_06_26_18_26_28.429,0,30.8,0,0.761,0,0,0,0, ,0,0,0,0,0, ,989.7,10.6,30.7,-0.5,-0.2,-1.9,25,990.825,9.10256,27.1879,-0.529401,-0.385654,-1.74397,
2026_06_26_18_26_28.454,0,30.8,0,0.761,0,0,0,0, ,0,0,0,0,0, ,990.3,10.4,29.6,-0.5,-0.5,-1.7,25,990.775,9.18771,27.3684,-0.527609,-0.383481,-1.74738,
2026_06_26_18_26_28.469,0,30.8,0,0.759,0,0,0,0, ,0,0,0,0,0, ,991.2,8.5,26,-0.5,-0.5,-1.8,25,990.774,9.2037,27.3947,-0.525927,-0.390582,-1.74754,
2026_06_26_18_26_28.493,0,30.9,0,0.761,0,0,0,0, ,0,0,0,0,0, ,990.3,8.3,25.6,-0.5,-0.3,-1.8,25,990.772,9.15472,27.2975,-0.524347,-0.391156,-1.75074,
2026_06_26_18_26_28.509,0,30.8,0,0.76,0,0,0,0, ,0,0,0,0,0, ,990.7,9,27.3,-0.5,-0.2,-1.9,25,990.756,9.12397,27.2459,-0.522863,-0.382554,-1.75679,
2026_06_26_18_26_28.535,0,30.8,0,0.759,0,0,0,0, ,0,0,0,0,0, ,991.9,9,26.7,-0.5,-0.2,-1.9,25,990.789,9.11641,27.2309,-0.52147,-0.37143,-1.76551,
2026_06_26_18_26_28.548,0,30.9,0,0.761,0,0,0,0, ,0,0,0,0,0, ,990.3,9.6,28,-0.5,-0.2,-1.9,25,990.808,9.1276,27.2382,-0.520162,-0.360983,-1.77371,
2026_06_26_18_26_28.574,0,30.8,0,0.761,0,0,0,0, ,0,0,0,0,0, ,989.2,9.7,28.3,-0.5,-0.3,-1.8,25,990.743,9.15943,27.2937,-0.518933,-0.35422,-1.77836,
2026_06_26_18_26_28.589,0,30.8,0,0.761,0,0,0,0, ,0,0,0,0,0, ,990.3,10.1,27.5,-0.6,-0.2,-1.9,25,990.683,9.20456,27.3307,-0.520826,-0.347869,-1.78272,
2026_06_26_18_26_28.610,0,30.7,0,0.759,0,0,0,0, ,0,0,0,0,0, ,991.8,12.8,29.1,-0.5,-0.5,-1.6,25,990.705,9.34139,27.3897,-0.522604,-0.347999,-1.78073,
2026_06_26_18_26_28.627,0,30.8,0,0.76,0,0,0,0, ,0,0,0,0,0, ,989.7,11.4,29.6,-0.6,-0.8,-1.4,25,990.708,9.5095,27.5092,-0.524274,-0.366402,-1.76362,
2026_06_26_18_26_28.654,0,30.8,0,0.762,0,0,0,0, ,0,0,0,0,0, ,991.6,9.6,29.2,-0.6,-0.9,-1.4,25,990.704,9.56985,27.6244,-0.528888,-0.395871,-1.74146,
2026_06_26_18_26_28.667,0,30.8,0,0.759,0,0,0,0, ,0,0,0,0,0, ,992.5,7.3,25.5,-0.5,-0.7,-1.6,25,990.786,9.50161,27.6077,-0.530175,-0.420498,-1.72675,
2026_06_26_18_26_28.692,0,30.8,0,0.761,0,0,0,0, ,0,0,0,0,0, ,991,8.5,25.3,-0.5,0,-2.1,25,990.845,9.40401,27.4732,-0.528336,-0.416202,-1.73426,
2026_06_26_18_26_28.712,0,30.8,0,0.758,0,0,0,0, ,0,0,0,0,0, ,992.1,10.9,31.6,-0.5,0,-2.1,25,990.888,9.42205,27.5327,-0.526609,-0.39084,-1.75655,
2026_06_26_18_26_28.738,0,30.9,0,0.759,0,0,0,0, ,0,0,0,0,0, ,990.1,11.3,31,-0.5,-0.3,-1.8,25,990.901,9.5243,27.7623,-0.524988,-0.376164,-1.76834,
2026_06_26_18_26_28.747,0,30.8,0,0.759,0,0,0,0, ,0,0,0,0,0, ,990.2,9.5,28.1,-0.5,-0.7,-1.6,25,990.855,9.57766,27.8712,-0.523465,-0.38371,-1.76417,
2026_06_26_18_26_28.772,0,30.9,0,0.759,0,0,0,0, ,0,0,0,0,0, ,989.9,10.1,28.4,-0.5,-0.5,-1.8,25,990.806,9.59121,27.8943,-0.522035,-0.39689,-1.76026,
2026_06_26_18_26_28.786,0,30.8,0,0.759,0,0,0,0, ,0,0,0,0,0, ,990.7,8.9,29.6,-0.5,-0.2,-1.9,25,990.775,9.58565,27.9617,-0.520692,-0.394033,-1.76573,
2026_06_26_18_26_28.811,0,30.8,0,0.76,0,0,0,0, ,0,0,0,0,0, ,990.6,10.2,27.5,-0.5,-0.2,-1.9,25,990.768,9.58348,27.9975,-0.519431,-0.382209,-1.77391,
2026_06_26_18_26_28.826,0,30.8,0,0.759,0,0,0,0, ,0,0,0,0,0, ,990.1,11.3,31,-0.6,-0.5,-1.7,25,990.742,9.65457,28.0738,-0.521294,-0.380246,-1.7755,
2026_06_26_18_26_28.852,0,30.8,0,0.762,0,0,0,0, ,0,0,0,0,0, ,991.6,10,28.3,-0.5,-0.5,-1.6,25,990.749,9.71523,28.1699,-0.523043,-0.387544,-1.76785,
2026_06_26_18_26_28.865,0,30.8,0,0.759,0,0,0,0, ,0,0,0,0,0, ,992.3,9.3,28.3,-0.5,-0.3,-1.8,25,990.822,9.71125,28.1778,-0.521639,-0.388303,-1.76372,
2026_06_26_18_26_28.890,0,30.8,0,0.759,0,0,0,0, ,0,0,0,0,0, ,989.7,11.4,28.9,-0.5,-0.4,-1.6,25,990.833,9.75017,28.2035,-0.520321,-0.385969,-1.75984,
2026_06_26_18_26_28.905,0,30.8,0,0.759,0,0,0,0, ,0,0,0,0,0, ,990.2,9.8,27.8,-0.5,-0.6,-1.5,25,990.779,9.80196,28.2125,-0.519082,-0.392917,-1.74705,
2026_06_26_18_26_28.931,0,30.7,0,0.761,0,0,0,0, ,0,0,0,0,0, ,991.4,10.7,28.8,-0.5,-0.6,-1.6,25,990.78,9.82926,28.2178,-0.517919,-0.405536,-1.73504,
2026_06_26_18_26_28.945,0,30.8,0,0.761,0,0,0,0, ,0,0,0,0,0, ,991.9,9.5,26.9,-0.5,-0.5,-1.6,25,990.833,9.84576,28.1954,-0.516827,-0.41434,-1.72681,
2026_06_26_18_26_28.969,0,30.9,0,0.761,0,0,0,0, ,0,0,0,0,0, ,989.9,9,26.8,-0.5,-0.3,-1.8,25,990.837,9.80946,28.1134,-0.515802,-0.413466,-1.72518,
2026_06_26_18_26_28.984,0,30.9,0,0.762,0,0,0,0, ,0,0,0,0,0, ,993.6,10,27.5,-0.5,-0.3,-1.9,25,990.893,9.7906,28.0547,-0.514839,-0.406552,-1.73278,
2026_06_26_18_26_29.010,0,30.9,0,0.761,0,0,0,0, ,0,0,0,0,0, ,990.6,11.8,30.7,-0.5,-0.5,-1.7,25,990.967,9.8582,28.1184,-0.513935,-0.406152,-1.73688,
2026_06_26_18_26_29.024,0,30.8,0,0.759,0,0,0,0, ,0,0,0,0,0, ,991,10,27.2,-0.5,-0.6,-1.6,25,990.956,9.92169,28.1691,-0.513086,-0.414918,-1.73159,
2026_06_26_18_26_29.049,0,30.9,0,0.758,0,0,0,0, ,0,0,0,0,0, ,991.9,9.1,25.7,-0.5,-0.4,-1.7,25,990.986,9.89904,28.0643,-0.512288,-0.420103,-1.72661,
2026_06_26_18_26_29.063,0,30.8,0,0.761,0,0,0,0, ,0,0,0,0,0, ,990.8,9.7,25.7,-0.5,-0.2,-1.9,25,991.009,9.86863,27.9202,-0.511539,-0.412784,-1.73109,
2026_06_26_18_26_29.089,0,30.8,0,0.761,0,0,0,0, ,0,0,0,0,0, ,990.1,10.7,29.7,-0.5,-0.5,-1.6,25,990.975,9.88882,27.9068,-0.510836,-0.408958,-1.73224,
2026_06_26_18_26_29.103,0,30.7,0,0.761,0,0,0,0, ,0,0,0,0,0, ,990.7,10.8,30.7,-0.5,-0.6,-1.6,25,990.94,9.9413,28.0466,-0.510176,-0.417553,-1.72418,
2026_06_26_18_26_29.130,0,30.8,0,0.76,0,0,0,0, ,0,0,0,0,0, ,991.2,10.2,29.4,-0.5,-0.7,-1.6,25,990.94,9.97535,28.1686,-0.509556,-0.431718,-1.71661,
2026_06_26_18_26_29.144,0,30.9,0,0.759,0,0,0,0, ,0,0,0,0,0, ,990.4,8.9,26,-0.5,-0.3,-1.9,25,990.932,9.94943,28.1401,-0.508974,-0.435879,-1.71865,
2026_06_26_18_26_29.169,0,30.8,0,0.761,0,0,0,0, ,0,0,0,0,0, ,989.8,11.4,27.8,-0.5,-0.1,-2,25,990.881,9.96165,28.0645,-0.508427,-0.421505,-1.73275,
2026_06_26_18_26_29.182,0,30.8,0,0.759,0,0,0,0, ,0,0,0,0,0, ,989.3,11.3,28.4,-0.5,-0.1,-1.8,25,990.8,10.0463,28.0667,-0.507913,-0.401913,-1.74294,
2026_06_26_18_26_29.209,0,30.7,0,0.761,0,0,0,0, ,0,0,0,0,0, ,990.8,10.4,27.2,-0.5,-0.3,-1.6,25,990.754,10.0952,28.0504,-0.507431,-0.389609,-1.74032,
2026_06_26_18_26_29.221,0,30.8,0,0.759,0,0,0,0, ,0,0,0,0,0, ,990.1,10.2,26.9,-0.4,-0.4,-1.8,25,990.736,10.1077,27.9895,-0.503931,-0.387195,-1.73786,
2026_06_26_18_26_29.247,0,30.9,0,0.761,0,0,0,0, ,0,0,0,0,0, ,989.8,9.6,30.3,-0.5,-0.4,-1.8,25,990.688,10.0951,28.0267,-0.500645,-0.387976,-1.74165,
2026_06_26_18_26_29.261,0,30.8,0,0.759,0,0,0,0, ,0,0,0,0,0, ,992,10.6,27.8,-0.5,-0.7,-1.6,25,990.701,10.0954,28.089,-0.500606,-0.397849,-1.73911,
2026_06_26_18_26_29.286,0,30.8,0,0.761,0,0,0,0, ,0,0,0,0,0, ,991.2,8.6,28,-0.5,-0.4,-1.8,25,990.755,10.0652,28.0775,-0.500569,-0.407121,-1.73673,
2026_06_26_18_26_29.301,0,30.9,0,0.759,0,0,0,0, ,0,0,0,0,0, ,991.5,9.7,26.7,-0.5,0,-2,25,990.792,10.0094,28.0332,-0.500534,-0.394499,-1.74668,
2026_06_26_18_26_29.326,0,30.8,0,0.759,0,0,0,0, ,0,0,0,0,0, ,989.8,11.9,29.9,-0.5,-0.4,-1.7,25,990.783,10.0576,28.0494,-0.500501,-0.382647,-1.75297,
2026_06_26_18_26_29.340,0,30.9,0,0.761,0,0,0,0, ,0,0,0,0,0, ,991.5,11.4,30,-0.5,-0.8,-1.4,25,990.775,10.1546,28.1653,-0.500471,-0.395892,-1.74061,
2026_06_26_18_26_29.367,0,30.7,0,0.761,0,0,0,0, ,0,0,0,0,0, ,991.5,6.8,25.3,-0.5,-0.6,-1.6,25,990.819,10.0903,28.1339,-0.500442,-0.414423,-1.72594,
2026_06_26_18_26_29.380,0,30.8,0,0.759,0,0,0,0, ,0,0,0,0,0, ,990.6,8.6,26.4,-0.5,-0.2,-1.9,25,990.833,9.94469,27.9947,-0.500415,-0.413545,-1.72741,
2026_06_26_18_26_29.406,0,30.9,0,0.759,0,0,0,0, ,0,0,0,0,0, ,990.4,10.6,28,-0.5,0,-2,25,990.813,9.92368,27.9463,-0.50039,-0.394438,-1.74097,
2026_06_26_18_26_29.420,0,30.9,0,0.761,0,0,0,0, ,0,0,0,0,0, ,988.8,11.2,30.8,-0.5,-0.3,-1.9,25,990.739,9.98318,28.0348,-0.500366,-0.379542,-1.75371,
2026_06_26_18_26_29.446,0,30.9,0,0.759,0,0,0,0, ,0,0,0,0,0, ,991.2,10.9,27,-0.5,-0.1,-1.9,25,990.694,10.0482,28.0876,-0.500344,-0.368602,-1.76263,
2026_06_26_18_26_29.459,0,30.8,0,0.759,0,0,0,0, ,0,0,0,0,0, ,991.5,10.1,26,-0.5,0,-1.9,25,990.734,10.0757,27.9908,-0.500323,-0.349187,-1.771,
2026_06_26_18_26_29.503,0,30.8,0,0.761,0,0,0,0, ,0,0,0,0,0, ,991.6,10.1,29.9,-0.5,0.3,-2.1,25,990.784,10.0772,27.9883,-0.500303,-0.318768,-1.78495,
2026_06_26_18_26_29.503,0,30.8,0,0.759,0,0,0,0, ,0,0,0,0,0, ,991.5,12.3,33.3,-0.6,-0.2,-1.9,25,990.83,10.1456,28.2084,-0.503332,-0.296296,-1.79806,
2026_06_26_18_26_29.529,0,30.9,0,0.759,0,0,0,0, ,0,0,0,0,0, ,990.7,13,34.6,-0.5,-1.1,-1.4,25,990.847,10.2982,28.5583,-0.506176,-0.31785,-1.78903,
2026_06_26_18_26_29.538,0,30.9,0,0.759,0,0,0,0, ,0,0,0,0,0, ,991.3,10.6,28,-0.5,-1.5,-1.2,25,990.856,10.3897,28.7254,-0.505799,-0.377699,-1.75923,
2026_06_26_18_26_29.564,0,30.9,0,0.761,0,0,0,0, ,0,0,0,0,0, ,992.5,5.9,18.7,-0.5,-0.5,-1.7,25,990.92,10.2594,28.3978,-0.505446,-0.415621,-1.74039,
2026_06_26_18_26_29.578,0,30.8,0,0.761,0,0,0,0, ,0,0,0,0,0, ,991.5,6.4,21.8,-0.5,1.1,-2.6,25,990.986,10.0089,27.9013,-0.505114,-0.372013,-1.76535,
2026_06_26_18_26_29.604,0,30.9,0,0.761,0,0,0,0, ,0,0,0,0,0, ,989.2,14.1,35.4,-0.5,1.2,-2.7,25,990.947,10.0236,27.9439,-0.504802,-0.279265,-1.81926,
2026_06_26_18_26_29.617,0,30.9,0,0.761,0,0,0,0, ,0,0,0,0,0, ,988.5,13.5,33.9,-0.5,0.3,-2.1,25,990.819,10.2538,28.3525,-0.50451,-0.216544,-1.85465,
2026_06_26_18_26_29.641,0,31,0,0.761,0,0,0,0, ,0,0,0,0,0, ,991,10.2,31.1,-0.5,-0.1,-2,25,990.754,10.351,28.6053,-0.504235,-0.197255,-1.86655,
2026_06_26_18_26_29.657,0,30.9,0,0.761,0,0,0,0, ,0,0,0,0,0, ,993.5,8.1,22.9,-0.5,0.4,-2.2,25,990.845,10.2778,28.5074,-0.503977,-0.176094,-1.88078,
2026_06_26_18_26_29.684,0,30.9,0,0.759,0,0,0,0, ,0,0,0,0,0, ,990.8,10.9,25.6,-0.4,1.1,-2.4,25,990.925,10.2304,28.248,-0.500688,-0.11966,-1.90632,
2026_06_26_18_26_29.697,0,30.9,0,0.76,0,0,0,0, ,0,0,0,0,0, ,993.6,13.7,29,0,1.8,-2.3,25,991.002,10.3566,28.1902,-0.482364,-0.024009,-1.93336,
2026_06_26_18_26_29.723,0,30.9,0,0.761,0,0,0,0, ,0,0,0,0,0, ,990.9,10.2,33,1,2.5,-2.3,25,991.078,10.4537,28.3615,-0.422502,0.10847,-1.9557,
2026_06_26_18_26_29.736,0,30.9,0,0.76,0,0,0,0, ,0,0,0,0,0, ,995.3,10.3,14.4,3.6,3.8,-1.9,25,991.202,10.4412,28.0774,-0.256599,0.293813,-1.9645,
2026_06_26_18_26_29.762,0,30.9,0,0.761,0,0,0,0, ,0,0,0,0,0, ,998.7,10.8,-3.6,8.7,10.1,-0.5,25,991.555,10.4479,26.6955,0.133803,0.699424,-1.91791,
2026_06_26_18_26_29.776,0,30.9,0,0.76,0,0,0,0, ,0,0,0,0,0, ,998.6,28.5,0.7,10.3,18.2,1.6,25,991.987,11.0086,24.9804,0.704555,1.51907,-1.76752,
2026_06_26_18_26_29.804,0,31,0,0.761,0,0,0,0, ,0,0,0,0,0, ,1005.9,34.6,-24.1,9.8,28.7,4.7,25,992.613,12.2604,22.7452,1.27404,2.85548,-1.46786,
2026_06_26_18_26_29.816,0,30.8,0,0.761,0,0,0,0, ,0,0,0,0,0, ,1001.3,17.7,-4.8,7.4,41.2,6.8,25,993.282,13.1068,20.4786,1.72047,4.81124,-1.02802,
2026_06_26_18_26_29.842,0,30.8,0,0.76,0,0,0,0, ,0,0,0,0,0, ,993.5,8.4,33.2,4.8,50.9,7.2,25,993.533,13.1033,20.096,1.98735,7.32423,-0.538814,
2026_06_26_18_26_29.855,0,30.9,0,0.761,0,0,0,0, ,0,0,0,0,0, ,984,16.9,81.5,-5.2,57.6,6.3,25,993.242,13.0757,22.3662,1.85406,10.1838,-0.0946519,
2026_06_26_18_26_29.882,0,30.9,0,0.76,0,0,0,0, ,0,0,0,0,0, ,977.1,23.4,110.5,-6.5,58.1,7.9,25,992.468,13.5068,26.8532,1.38459,13.0884,0.343772,
2026_06_26_18_26_29.895,0,30.9,0,0.759,0,0,0,0, ,0,0,0,0,0, ,981,-9.1,122.4,-9.4,58.7,10.9,25,991.651,13.1194,32.313,0.815763,15.8496,0.895636,
2026_06_26_18_26_29.923,0,30.9,0,0.76,0,0,0,0, ,0,0,0,0,0, ,985.7,-6.2,106.9,-9.7,81.5,17.4,25,991.145,11.8538,37.3304,0.184099,19.1555,1.70332,
2026_06_26_18_26_29.935,0,31,0,0.761,0,0,0,0, ,0,0,0,0,0, ,959.9,-32.3,151.9,-13.3,92.3,16.1,25,990.027,9.95838,42.9409,-0.5279,23.2837,2.62023,
2026_06_26_18_26_29.961,0,30.9,0,0.761,0,0,0,0, ,0,0,0,0,0, ,944.8,-28.9,206.7,-14.4,96.5,14.5,25,987.731,7.48686,51.2503,-1.33972,27.6173,3.3929,
2026_06_26_18_26_29.974,0,30.9,0,0.761,0,0,0,0, ,0,0,0,0,0, ,1016.3,-31,260.1,-22.4,110.3,12.5,25,987.293,5.20555,62.35,-2.37933,32.2353,4.0088,
2026_06_26_18_26_30.002,0,30.8,0,0.759,0,0,0,0, ,0,0,0,0,0, ,981.5,-50.2,308.4,-14,143.2,17.7,25,988.001,2.41427,75.8721,-3.3434,37.9948,4.68467,
2026_06_26_18_26_30.014,0,30.9,0,0.759,0,0,0,0, ,0,0,0,0,0, ,915.2,-53.8,303.5,5.4,156.4,15.2,25,985.584,-0.901595,89.8924,-3.40169,44.8079,5.40162,
2026_06_26_18_26_30.040,0,30.8,0,0.76,0,0,0,0, ,0,0,0,0,0, ,851,-29.7,348.5,14.5,157.3,12.2,25,979.339,-3.39079,104.28,-2.58807,51.6355,5.90731,
2026_06_26_18_26_30.053,0,30.9,0,0.76,0,0,0,0, ,0,0,0,0,0, ,797.1,-34.9,440.1,16.4,162,7.6,25,969.876,-5.15245,121.953,-1.48888,58.2176,6.15061,
2026_06_26_18_26_30.080,0,30.9,0,0.763,0,0,0,0, ,0,0,0,0,0, ,815,-49,513.1,16.7,167.5,0.7,25,959.893,-7.3948,143.565,-0.389634,64.7095,6.0287,
2026_06_26_18_26_30.092,0,30.8,0,0.76,0,0,0,0, ,0,0,0,0,0, ,809.2,-52.7,585.4,12.2,174.4,1.6,25,950.887,-10.0429,168.286,0.514656,71.1835,5.7314,
2026_06_26_18_26_30.120,0,30.9,0,0.758,0,0,0,0, ,0,0,0,0,0, ,777.5,-50.2,632.9,6.4,186.5,2.7,25,941.287,-12.5661,195.151,1.05001,77.8419,5.51316,
2026_06_26_18_26_30.132,0,30.8,0,0.758,0,0,0,0, ,0,0,0,0,0, ,738.2,-57.9,650.2,4.1,204.7,6.5,25,930.109,-15.094,222.354,1.30595,85.0178,5.45752,
2026_06_26_18_26_30.159,0,30.8,0,0.76,0,0,0,0, ,0,0,0,0,0, ,660.5,-50.5,677.9,4.8,210.8,7.8,25,916.047,-17.477,249.269,1.49754,92.4968,5.56065,
2026_06_26_18_26_30.172,0,30.8,0,0.761,0,0,0,0, ,0,0,0,0,0, ,577.6,-44.9,707.3,8.1,198.7,4.6,25,897.949,-19.3188,276.285,1.79933,99.3372,5.59961,
2026_06_26_18_26_30.201,0,30.9,0,0.76,0,0,0,0, ,0,0,0,0,0, ,555,-50,765.8,12.5,188.9,2.2,25,877.739,-21.033,304.332,2.31734,105.094,5.46557,
2026_06_26_18_26_30.211,0,30.9,0,0.759,0,0,0,0, ,0,0,0,0,0, ,539.3,-59,832.3,11.8,186.5,6.8,25,857.594,-23.0724,334.479,2.91652,110.127,5.40673,
2026_06_26_18_26_30.239,0,30.9,0,0.761,0,0,0,0, ,0,0,0,0,0, ,482.4,-53.4,858.3,6.2,174.6,10,25,836.464,-25.0911,365.607,3.28723,114.419,5.58914,
2026_06_26_18_26_30.251,0,30.9,0,0.758,0,0,0,0, ,0,0,0,0,0, ,422.7,-47.9,881.4,7.2,155.8,11.6,25,813.069,-26.6486,396.335,3.4952,117.513,5.90667,
2026_06_26_18_26_30.278,0,30.8,0,0.758,0,0,0,0, ,0,0,0,0,0, ,374.8,-39,906.1,5,133.8,12.3,25,787.822,-27.6724,426.646,3.65393,119.176,6.27494,
2026_06_26_18_26_30.291,0,30.9,0,0.76,0,0,0,0, ,0,0,0,0,0, ,323.9,-44.7,938.5,7.4,111.6,16.5,25,761.102,-28.5364,456.85,3.80908,119.391,6.77006,
2026_06_26_18_26_30.319,0,30.8,0,0.76,0,0,0,0, ,0,0,0,0,0, ,274.5,-35.4,957,7.9,101.5,14.3,25,732.955,-29.238,486.764,4.04313,118.608,7.29595,
2026_06_26_18_26_30.331,0,30.9,0,0.759,0,0,0,0, ,0,0,0,0,0, ,250.2,-38.4,984.3,11.5,101,8.4,25,704.278,-29.7049,516.251,4.38785,117.551,7.54299,
2026_06_26_18_26_30.364,0,30.9,0,0.76,0,0,0,0, ,0,0,0,0,0, ,238.6,-41.5,1004.7,10.3,95.3,7.2,25,676.254,-30.3292,545.394,4.78468,116.368,7.55865,
2026_06_26_18_26_30.372,0,30.9,0,0.759,0,0,0,0, ,0,0,0,0,0, ,220.3,-38.2,990.6,5.8,79.2,10.5,25,649.027,-30.9094,572.953,4.98366,114.594,7.63734,
2026_06_26_18_26_30.398,0,30.9,0,0.76,0,0,0,0, ,0,0,0,0,0, ,183.2,-30.5,1006.4,1.5,68,12.8,25,621.771,-31.119,598.885,4.90239,112.096,7.88186,
2026_06_26_18_26_30.409,0,30.9,0,0.76,0,0,0,0, ,0,0,0,0,0, ,154.4,-29.5,1017.2,0.1,67.2,12.8,25,594.168,-31.0509,624.047,4.6524,109.384,8.18156,
2026_06_26_18_26_30.437,0,30.9,0,0.76,0,0,0,0, ,0,0,0,0,0, ,137,-33.9,1009.2,0.4,67.1,12.2,25,566.839,-31.0904,647.761,4.38413,106.811,8.44472,
2026_06_26_18_26_30.449,0,30.9,0,0.759,0,0,0,0, ,0,0,0,0,0, ,118.7,-26.9,1000.4,4.4,71.2,12.4,25,540.088,-31.0483,669.518,4.26322,104.516,8.67965,
2026_06_26_18_26_30.476,0,30.9,0,0.758,0,0,0,0, ,0,0,0,0,0, ,82.3,-34.6,1022.7,4.2,77.3,8.8,25,513.301,-31.0302,690.361,4.26547,102.671,8.79667,
2026_06_26_18_26_30.488,0,30.9,0,0.761,0,0,0,0, ,0,0,0,0,0, ,64.5,-36.6,1014.6,-0.4,69.5,8.9,25,486.495,-31.3086,710.366,4.12132,100.888,8.79992,
2026_06_26_18_26_30.517,0,30.9,0,0.76,0,0,0,0, ,0,0,0,0,0, ,50.6,-31.4,986.5,-2.4,56.8,10,25,460.356,-31.4726,728.049,3.78486,98.5881,8.83953,
2026_06_26_18_26_30.528,0,30.9,0,0.759,0,0,0,0, ,0,0,0,0,0, ,35.5,-30.3,982.6,-3.3,49.1,12.3,25,434.926,-31.4347,743.68,3.38055,95.807,8.98033,
2026_06_26_18_26_30.555,0,30.9,0,0.76,0,0,0,0, ,0,0,0,0,0, ,-4,-37.7,987.4,-1.8,56,15.7,25,409.383,-31.591,758.385,3.01916,93.171,9.28621,
2026_06_26_18_26_30.568,0,30.8,0,0.759,0,0,0,0, ,0,0,0,0,0, ,-13.3,-38.6,973.9,-0.5,63.2,14.5,25,383.909,-31.9907,771.929,2.7651,91.1253,9.64049,
2026_06_26_18_26_30.596,0,30.9,0,0.759,0,0,0,0, ,0,0,0,0,0, ,-51.3,-27.2,947.2,4,69,8.8,25,358.546,-32.0461,783.423,2.70324,89.6003,9.76295,
2026_06_26_18_26_30.608,0,30.8,0,0.759,0,0,0,0, ,0,0,0,0,0, ,-72.3,-18.7,1169.7,6.8,52.1,15.4,25,332.931,-31.4918,800.183,2.86758,87.8301,9.90536,
2026_06_26_18_26_30.635,0,30.9,0,0.759,0,0,0,0, ,0,0,0,0,0, ,-92.8,-19.4,1276.9,-9,39,13,25,307.613,-30.7336,825.966,2.6258,85.2536,10.1671,
2026_06_26_18_26_30.647,0,30.8,0,0.761,0,0,0,0, ,0,0,0,0,0, ,-81,-18.4,1033,-18.3,34.8,1.9,25,283.572,-30.0125,846.014,1.634,82.3071,10.0015,
2026_06_26_18_26_30.676,0,30.8,0,0.759,0,0,0,0, ,0,0,0,0,0, ,-88.6,-36.2,875,-9.8,30,2.7,25,261.125,-29.8472,852.594,0.678253,79.2659,9.53218,
2026_06_26_18_26_30.687,0,30.9,0,0.76,0,0,0,0, ,0,0,0,0,0, ,-83.8,-46.8,875.9,-1.5,25,8.6,25,239.959,-30.5573,853.987,0.292625,76.1114,9.29561,
2026_06_26_18_26_30.715,0,30.9,0,0.76,0,0,0,0, ,0,0,0,0,0, ,-107.9,-51.8,947.7,1.4,26.4,13.1,25,219.496,-31.6995,857.51,0.271746,73.0394,9.39033,
2026_06_26_18_26_30.727,0,30.9,0,0.758,0,0,0,0, ,0,0,0,0,0, ,-137.2,-52.9,1053.4,-2.8,30.8,16,25,198.653,-32.9579,866.227,0.21253,70.3314,9.70475,
2026_06_26_18_26_30.755,0,30.8,0,0.761,0,0,0,0, ,0,0,0,0,0, ,-157.9,-44.1,1054.8,-8.3,19,8.9,25,177.556,-33.905,877.675,-0.138624,67.5629,9.87204,
2026_06_26_18_26_30.766,0,30.8,0,0.759,0,0,0,0, ,0,0,0,0,0, ,-128.1,-43.5,953.9,-6.9,15.5,8,25,158.022,-34.5079,885.394,-0.593301,64.497,9.78538,
2026_06_26_18_26_30.793,0,30.9,0,0.76,0,0,0,0, ,0,0,0,0,0, ,-152.8,-47.9,958.9,-3.4,19.4,12.7,25,139.834,-35.1899,889.721,-0.870975,61.6301,9.81979,
2026_06_26_18_26_30.806,0,30.9,0,0.761,0,0,0,0, ,0,0,0,0,0, ,-183.3,-52.4,996.9,-6.5,11,13.8,25,121.072,-36.1016,895.095,-1.11954,58.8007,10.0288,
2026_06_26_18_26_30.835,0,30.9,0,0.759,0,0,0,0, ,0,0,0,0,0, ,-192.6,-52.7,1017.3,-10.8,4.2,10.8,25,102.241,-37.1039,901.92,-1.57843,55.6807,10.1672,
2026_06_26_18_26_30.848,0,31,0,0.76,0,0,0,0, ,0,0,0,0,0, ,-160.1,-53.5,1000.1,-13.2,2.8,6.7,25,85.2645,-38.0787,908.427,-2.21349,52.5009,10.0809,
2026_06_26_18_26_30.877,0,30.9,0,0.76,0,0,0,0, ,0,0,0,0,0, ,-114.8,-42.6,968,-9.6,10,6.7,25,71.6929,-38.6863,913.035,-2.7733,49.6917,9.87484,
2026_06_26_18_26_30.885,0,30.9,0,0.759,0,0,0,0, ,0,0,0,0,0, ,-115.2,-45.7,979.9,-3.2,14.2,8.5,25,60.3163,-39.0192,916.747,-2.9943,47.4009,9.73621,
2026_06_26_18_26_30.913,0,31,0,0.762,0,0,0,0, ,0,0,0,0,0, ,-141.1,-42.7,981.2,-1.7,10.5,10,25,48.8316,-39.3349,920.635,-2.96113,45.265,9.70658,
2026_06_26_18_26_30.924,0,30.8,0,0.761,0,0,0,0, ,0,0,0,0,0, ,-156.8,-49.9,964.7,0.1,9.4,12.5,25,36.7793,-39.7594,923.823,-2.82944,43.113,9.80064,
2026_06_26_18_26_30.953,0,30.9,0,0.759,0,0,0,0, ,0,0,0,0,0, ,-202.3,-58.9,989.3,1.8,5.2,12.6,25,23.5967,-40.6515,927.064,-2.59913,40.9306,9.96818,
2026_06_26_18_26_30.964,0,30.8,0,0.76,0,0,0,0, ,0,0,0,0,0, ,-220.5,-47.9,1011.5,0,-1.1,8.5,25,9.27662,-41.4284,931.532,-2.3859,38.5613,10.0036,
2026_06_26_18_26_30.996,0,30.8,0,0.759,0,0,0,0, ,0,0,0,0,0, ,-193.4,-51.6,998.9,-1,3.5,3.8,25,-3.89968,-41.9355,936.022,-2.27098,36.2846,9.7688,
2026_06_26_18_26_31.003,0,30.9,0,0.759,0,0,0,0, ,0,0,0,0,0, ,-167.1,-51.1,975.4,-0.9,8.7,3.8,25,-14.646,-42.5092,939.137,-2.19048,34.4453,9.40508,
2026_06_26_18_26_31.032,0,30.9,0,0.761,0,0,0,0, ,0,0,0,0,0, ,-177.1,-57.9,982.9,-0.8,3.1,6.4,25,-24.2409,-43.2399,941.576,-2.10879,32.7058,9.14274,
2026_06_26_18_26_31.043,0,30.9,0,0.762,0,0,0,0, ,0,0,0,0,0, ,-194.9,-46.9,972.1,-0.9,-3.8,7,25,-34.0981,-43.7981,943.765,-2.03209,30.6914,8.99388,
2026_06_26_18_26_31.074,0,30.9,0,0.759,0,0,0,0, ,0,0,0,0,0, ,-225,-46.2,992.4,-0.2,-3.6,5.9,25,-44.8141,-43.9658,946.11,-1.94177,28.5957,8.83886,
2026_06_26_18_26_31.083,0,30.9,0,0.762,0,0,0,0, ,0,0,0,0,0, ,-224.4,-38.9,996.5,-1.2,0.6,1.1,25,-55.7759,-43.8795,949.056,-1.8661,26.7618,8.51353,
2026_06_26_18_26_31.111,0,30.9,0,0.759,0,0,0,0, ,0,0,0,0,0, ,-179.3,-45,984.4,-1.2,4.3,-2,25,-64.6772,-43.7619,951.578,-1.82551,25.2803,7.96731,
2026_06_26_18_26_31.123,0,30.8,0,0.761,0,0,0,0, ,0,0,0,0,0, ,-156.9,-51.5,976.4,-1.3,2.1,-0.5,25,-70.9796,-44.0354,953.334,-1.79044,23.9347,7.40563,
2026_06_26_18_26_31.153,0,30.9,0,0.759,0,0,0,0, ,0,0,0,0,0, ,-171.9,-49.4,981.8,-0.9,-2.4,2.6,25,-76.6724,-44.4263,954.904,-1.74837,22.4671,7.01834,
2026_06_26_18_26_31.163,0,30.9,0,0.762,0,0,0,0, ,0,0,0,0,0, ,-196.1,-42.9,993,-0.7,1.2,2.2,25,-83.2127,-44.5313,956.885,-1.69058,21.0614,6.73691,
2026_06_26_18_26_31.191,0,30.9,0,0.761,0,0,0,0, ,0,0,0,0,0, ,-206.2,-47.7,1008.3,-2.6,3.4,-1,25,-90.3995,-44.5782,959.552,-1.6881,19.9182,6.36294,
2026_06_26_18_26_31.202,0,30.9,0,0.761,0,0,0,0, ,0,0,0,0,0, ,-184.8,-50.4,987.5,-3.9,3,-4,25,-96.804,-44.8507,961.888,-1.78328,18.8994,5.82285,
2026_06_26_18_26_31.230,0,30.9,0,0.761,0,0,0,0, ,0,0,0,0,0, ,-173.7,-53.5,974.7,-3.4,-1.3,-3,25,-101.828,-45.2833,963.059,-1.89703,17.7995,5.25474,
2026_06_26_18_26_31.241,0,30.9,0,0.759,0,0,0,0, ,0,0,0,0,0, ,-195.8,-58.1,995.4,-4.5,-6.7,-1.2,25,-106.881,-45.9242,964.399,-2.02214,16.4711,4.80656,
2026_06_26_18_26_31.270,0,30.9,0,0.761,0,0,0,0, ,0,0,0,0,0, ,-205.9,-57.1,1007.3,-6.1,-4.6,-1.2,25,-112.607,-46.6357,966.651,-2.22188,15.1231,4.44054,
2026_06_26_18_26_31.280,0,30.9,0,0.758,0,0,0,0, ,0,0,0,0,0, ,-188.7,-54.9,1005.7,-9.5,8.7,-5,25,-117.768,-47.2063,969.079,-2.5618,14.3265,3.98104,
2026_06_26_18_26_31.310,0,30.8,0,0.762,0,0,0,0, ,0,0,0,0,0, ,-135.2,-62.5,985.4,-11.2,19.4,-5.7,25,-120.461,-47.9067,970.692,-3.03639,14.3096,3.41243,
2026_06_26_18_26_31.320,0,30.8,0,0.759,0,0,0,0, ,0,0,0,0,0, ,-138,-56.5,953.1,-8.2,16.4,-1.6,25,-121.444,-48.6132,970.604,-3.44246,14.5284,2.98206,
2026_06_26_18_26_31.351,0,30.8,0,0.761,0,0,0,0, ,0,0,0,0,0, ,-182.3,-62,965.9,-3.6,6.5,2.1,25,-123.803,-49.2613,969.928,-3.59221,14.3408,2.81557,
2026_06_26_18_26_31.365,0,30.9,0,0.759,0,0,0,0, ,0,0,0,0,0, ,-240.7,-58.9,983.1,-3.2,-0.4,2.5,25,-129.147,-49.9431,970.206,-3.5805,13.6528,2.78416,
2026_06_26_18_26_31.395,0,30.8,0,0.759,0,0,0,0, ,0,0,0,0,0, ,-257.6,-59.2,970.4,-3.2,-0.2,-0.8,25,-136.46,-50.4981,970.605,-3.55731,12.8025,2.66629,
2026_06_26_18_26_31.401,0,30.8,0,0.761,0,0,0,0, ,0,0,0,0,0, ,-239.3,-67.2,974.1,-2.1,2.5,-3.6,25,-143.284,-51.2721,970.705,-3.50202,12.0925,2.36975,
2026_06_26_18_26_31.429,0,30.8,0,0.761,0,0,0,0, ,0,0,0,0,0, ,-205.3,-68.8,978.8,-1.8,2.2,-4.4,25,-148.099,-52.2915,971.055,-3.40745,11.4988,1.9816,
2026_06_26_18_26_31.439,0,30.9,0,0.761,0,0,0,0, ,0,0,0,0,0, ,-192.8,-71.7,980.7,-2.3,-1.8,-2.9,25,-151.204,-53.3858,971.585,-3.32473,10.8103,1.63842,
2026_06_26_18_26_31.469,0,30.9,0,0.761,0,0,0,0, ,0,0,0,0,0, ,-194,-67.7,983.2,-2.5,1,-1.7,25,-153.775,-54.38,972.217,-3.26838,10.1271,1.39842,
2026_06_26_18_26_31.479,0,30.9,0,0.761,0,0,0,0, ,0,0,0,0,0, ,-197.5,-66.2,988.2,-3.1,5.1,-1.8,25,-156.333,-55.146,973.038,-3.23983,9.69587,1.20657,
2026_06_26_18_26_31.509,0,31,0,0.759,0,0,0,0, ,0,0,0,0,0, ,-197,-66.6,980.4,-4.2,4.6,-1.9,25,-158.826,-55.8317,973.725,-3.26483,9.40057,1.02031,
2026_06_26_18_26_31.518,0,30.9,0,0.761,0,0,0,0, ,0,0,0,0,0, ,-194.9,-68.3,975.3,-3.5,4.8,-1.9,25,-161.089,-56.5397,973.976,-3.30049,9.11413,0.842352,
2026_06_26_18_26_31.548,0,30.8,0,0.759,0,0,0,0, ,0,0,0,0,0, ,-200.9,-68.9,970.7,-1.8,4.1,-1.3,25,-163.332,-57.2747,973.917,-3.26085,8.82991,0.693521,
2026_06_26_18_26_31.558,0,30.8,0,0.761,0,0,0,0, ,0,0,0,0,0, ,-220,-71.8,975.9,-1.4,-0.9,-0.3,25,-166.203,-58.0714,973.879,-3.15964,8.38934,0.602509,
2026_06_26_18_26_31.587,0,30.9,0,0.759,0,0,0,0, ,0,0,0,0,0, ,-236.5,-69.4,978.6,-1.7,0.1,-0.9,25,-169.984,-58.8349,974.084,-3.06155,7.85374,0.529231,
2026_06_26_18_26_31.597,0,30.8,0,0.762,0,0,0,0, ,0,0,0,0,0, ,-225.9,-68.9,979,-2.1,3.8,-3.4,25,-173.714,-59.4635,974.372,-2.99077,7.49398,0.365966,
2026_06_26_18_26_31.627,0,30.9,0,0.761,0,0,0,0, ,0,0,0,0,0, ,-201,-74,971.1,-2.1,1.1,-3.8,25,-176.136,-60.1939,974.413,-2.93649,7.18661,0.12429,
2026_06_26_18_26_31.638,0,30.9,0,0.76,0,0,0,0, ,0,0,0,0,0, ,-199.3,-74.8,972.6,-0.7,-2.3,-1.9,25,-177.599,-61.0596,974.257,-2.84286,6.71211,-0.056956,
2026_06_26_18_26_31.668,0,30.8,0,0.761,0,0,0,0, ,0,0,0,0,0, ,-216.1,-71,983,-1,-2.2,-1.1,25,-179.433,-61.7811,974.473,-2.72142,6.16599,-0.144891,
2026_06_26_18_26_31.678,0,30.8,0,0.761,0,0,0,0, ,0,0,0,0,0, ,-218.7,-71.7,981.9,-1.8,3.8,-2.3,25,-181.747,-62.3642,974.959,-2.6409,5.839,-0.239656,
2026_06_26_18_26_31.708,0,30.8,0,0.761,0,0,0,0, ,0,0,0,0,0, ,-204.7,-75.8,983.2,-2.5,6.5,-2.9,25,-183.572,-63.058,975.422,-2.61098,5.79701,-0.383489,
2026_06_26_18_26_31.717,0,30.9,0,0.759,0,0,0,0, ,0,0,0,0,0, ,-203.1,-78.6,979.7,-2.8,5,-2.6,25,-184.811,-63.9198,975.789,-2.61336,5.79415,-0.527699,
2026_06_26_18_26_31.747,0,30.8,0,0.759,0,0,0,0, ,0,0,0,0,0, ,-217.4,-76.5,972.6,-3.5,1.5,-1.9,25,-186.361,-64.7504,975.811,-2.64606,5.63911,-0.632651,
2026_06_26_18_26_31.757,0,30.9,0,0.76,0,0,0,0, ,0,0,0,0,0, ,-224.1,-75.8,977.2,-4.1,-0.4,-2,25,-188.457,-65.4451,975.755,-2.71638,5.32899,-0.712927,
2026_06_26_18_26_31.786,0,30.8,0,0.761,0,0,0,0, ,0,0,0,0,0, ,-217.8,-75.4,965.8,-3.3,4.1,-2,25,-190.437,-66.0639,975.496,-2.77632,5.11699,-0.791358,
2026_06_26_18_26_31.796,0,30.8,0,0.762,0,0,0,0, ,0,0,0,0,0, ,-218.7,-77.6,978,-2.5,5.8,-2.3,25,-192.132,-66.6998,975.277,-2.78386,5.10682,-0.87415,
2026_06_26_18_26_31.826,0,30.8,0,0.759,0,0,0,0, ,0,0,0,0,0, ,-224.1,-78.6,975.3,-2.7,1,-2,25,-193.915,-67.3945,975.361,-2.77265,5.00281,-0.951898,
2026_06_26_18_26_31.836,0,30.9,0,0.761,0,0,0,0, ,0,0,0,0,0, ,-235.4,-77.1,970.8,-2.5,-1,-1.9,25,-196.099,-68.0317,975.22,-2.76213,4.69795,-1.01272,
2026_06_26_18_26_31.867,0,30.9,0,0.761,0,0,0,0, ,0,0,0,0,0, ,-241.5,-78.4,967.5,-2.5,0,-2.7,25,-198.68,-68.6239,974.85,-2.74616,4.3812,-1.09116,
2026_06_26_18_26_31.875,0,30.8,0,0.761,0,0,0,0, ,0,0,0,0,0, ,-226.1,-84.4,969.9,-1.5,-0.1,-3.3,25,-200.82,-69.4024,974.475,-2.70069,4.11117,-1.20748,
2026_06_26_18_26_31.904,0,30.9,0,0.761,0,0,0,0, ,0,0,0,0,0, ,-211.6,-82.6,974.7,-1.1,-1.8,-2.8,25,-201.919,-70.2615,974.343,-2.61533,3.80276,-1.31976,
2026_06_26_18_26_31.914,0,30.9,0,0.761,0,0,0,0, ,0,0,0,0,0, ,-213.1,-80,976.9,-1,-1.1,-1.6,25,-202.554,-70.9341,974.431,-2.51995,3.48267,-1.3734,
2026_06_26_18_26_31.945,0,30.9,0,0.761,0,0,0,0, ,0,0,0,0,0, ,-222.9,-79.4,978.2,-1.5,0.1,-1.5,25,-203.495,-71.4683,974.621,-2.44256,3.23997,-1.38416,
2026_06_26_18_26_31.958,0,30.8,0,0.761,0,0,0,0, ,0,0,0,0,0, ,-229.4,-80.8,974.1,-2,0.8,-1.8,25,-204.876,-71.9943,974.715,-2.40036,3.06996,-1.40036,
2026_06_26_18_26_31.988,0,30.8,0,0.762,0,0,0,0, ,0,0,0,0,0, ,-229.3,-78.9,976.1,-1.9,0.4,-2.1,25,-206.367,-72.473,974.738,-2.37291,2.91945,-1.43386,
2026_06_26_18_26_31.994,0,30.8,0,0.759,0,0,0,0, ,0,0,0,0,0, ,-225.3,-78.9,968.6,-1.5,-0.6,-2.8,25,-207.643,-72.8647,974.593,-2.33191,2.73545,-1.49578,
2026_06_26_18_26_32.024,0,30.9,0,0.761,0,0,0,0, ,0,0,0,0,0, ,-216.4,-83,973.2,-1,0.2,-2,25,-208.448,-73.3574,974.368,-2.26598,2.55657,-1.55088,
2026_06_26_18_26_32.034,0,30.9,0,0.761,0,0,0,0, ,0,0,0,0,0, ,-217.1,-81.1,979.7,-1.2,3.6,-1.7,25,-208.954,-73.8871,974.494,-2.19493,2.51656,-1.56911,
2026_06_26_18_26_32.064,0,30.9,0,0.761,0,0,0,0, ,0,0,0,0,0, ,-221.6,-84.5,976.9,-2.1,3.5,-1.4,25,-209.587,-74.4302,974.726,-2.16172,2.57954,-1.56794,
2026_06_26_18_26_32.074,0,30.9,0,0.76,0,0,0,0, ,0,0,0,0,0, ,-225.4,-83.8,974.7,-2.6,3.6,-1.7,25,-210.435,-75.0225,974.792,-2.17319,2.63867,-1.56685,
2026_06_26_18_26_32.104,0,30.8,0,0.759,0,0,0,0, ,0,0,0,0,0, ,-229.6,-86.9,968.6,-2.3,1.7,-2,25,-211.475,-75.6518,974.6,-2.19006,2.63936,-1.5841,
2026_06_26_18_26_32.113,0,30.8,0,0.759,0,0,0,0, ,0,0,0,0,0, ,-237.6,-85.4,965,-1.6,-0.4,-1.6,25,-212.823,-76.2916,974.125,-2.17543,2.51814,-1.59726,
2026_06_26_18_26_32.145,0,30.9,0,0.759,0,0,0,0, ,0,0,0,0,0, ,-239.7,-83.8,977.1,-1.3,1,-2.4,25,-214.397,-76.7979,973.938,-2.13123,2.38297,-1.6218,
2026_06_26_18_26_32.152,0,30.9,0,0.762,0,0,0,0, ,0,0,0,0,0, ,-229.7,-84.9,968.8,-1.2,1.5,-2.9,25,-215.634,-77.2581,973.877,-2.07753,2.31393,-1.68446,
2026_06_26_18_26_32.184,0,30.9,0,0.759,0,0,0,0, ,0,0,0,0,0, ,-225.4,-86.9,971.1,-0.8,-0.2,-2.4,25,-216.36,-77.7847,973.638,-2.01187,2.21253,-1.74329,
2026_06_26_18_26_32.192,0,30.9,0,0.758,0,0,0,0, ,0,0,0,0,0, ,-226.1,-83,974.4,-1.2,-1,-1.8,25,-216.932,-78.2213,973.584,-1.9502,2.04114,-1.76503,
2026_06_26_18_26_32.223,0,30.9,0,0.759,0,0,0,0, ,0,0,0,0,0, ,-232.5,-81.1,970.3,-1.2,-0.2,-1.9,25,-217.686,-78.4546,973.509,-1.90449,1.8802,-1.77021,
2026_06_26_18_26_32.232,0,30.8,0,0.761,0,0,0,0, ,0,0,0,0,0, ,-226.6,-85.3,972,-0.8,0.6,-1.8,25,-218.409,-78.7438,973.365,-1.84937,1.77781,-1.77507,
2026_06_26_18_26_32.263,0,30.8,0,0.761,0,0,0,0, ,0,0,0,0,0, ,-228.7,-86.5,976.8,-0.9,1.1,-1.4,25,-218.972,-79.1799,973.428,-1.78847,1.72127,-1.7644,
2026_06_26_18_26_32.271,0,30.9,0,0.759,0,0,0,0, ,0,0,0,0,0, ,-235.3,-86.9,969.4,-0.9,0,-1.8,25,-219.766,-79.6381,973.408,-1.73433,1.6499,-1.75438,
2026_06_26_18_26_32.301,0,30.9,0,0.759,0,0,0,0, ,0,0,0,0,0, ,-233.2,-85.5,971.6,-0.9,-0.9,-2.3,25,-220.649,-80.038,973.231,-1.68349,1.52194,-1.7724,
2026_06_26_18_26_32.311,0,30.8,0,0.761,0,0,0,0, ,0,0,0,0,0, ,-232.5,-87.6,973.8,-1.1,-1.6,-2.1,25,-221.392,-80.4348,973.199,-1.64184,1.35302,-1.79846,
2026_06_26_18_26_32.342,0,30.9,0,0.759,0,0,0,0, ,0,0,0,0,0, ,-230.4,-86.6,967.6,-0.8,0.7,-2.3,25,-222.005,-80.841,973.046,-1.59968,1.24315,-1.82292,
2026_06_26_18_26_32.351,0,30.8,0,0.759,0,0,0,0, ,0,0,0,0,0, ,-225.5,-88.2,973.9,-0.6,-0.5,-2,25,-222.367,-81.2407,972.906,-1.54486,1.17349,-1.84286,
2026_06_26_18_26_32.381,0,30.9,0,0.76,0,0,0,0, ,0,0,0,0,0, ,-225.8,-86.1,971.5,-0.5,-0.9,-1.3,25,-222.567,-81.6008,972.894,-1.48423,1.05932,-1.8311,
2026_06_26_18_26_32.390,0,30.9,0,0.759,0,0,0,0, ,0,0,0,0,0, ,-239.2,-84.7,972,-0.5,-0.3,-1.2,25,-223.173,-81.8323,972.824,-1.42426,0.958209,-1.79569,
2026_06_26_18_26_32.421,0,30.8,0,0.761,0,0,0,0, ,0,0,0,0,0, ,-236.5,-83.8,970.2,-0.8,-1.1,-2.2,25,-224.067,-81.9796,972.719,-1.37707,0.857162,-1.78986,
2026_06_26_18_26_32.430,0,30.8,0,0.761,0,0,0,0, ,0,0,0,0,0, ,-233.3,-86.7,971.1,-0.8,-2.6,-1.9,25,-224.727,-82.1789,972.593,-1.34191,0.692194,-1.80571,
2026_06_26_18_26_32.461,0,30.8,0,0.761,0,0,0,0, ,0,0,0,0,0, ,-230.1,-84.1,978.7,-1,-1.3,-2.3,25,-225.152,-82.3752,972.734,-1.31498,0.531185,-1.82365,
2026_06_26_18_26_32.469,0,30.8,0,0.759,0,0,0,0, ,0,0,0,0,0, ,-223.9,-85.3,955.3,-0.6,-0.9,-2,25,-225.265,-82.5169,972.384,-1.2836,0.431785,-1.84353,
2026_06_26_18_26_32.501,0,30.8,0,0.759,0,0,0,0, ,0,0,0,0,0, ,-227.6,-91.4,975,0.5,-1,-0.7,25,-225.294,-82.8723,971.943,-1.20843,0.347583,-1.81346,
2026_06_26_18_26_32.508,0,30.9,0,0.759,0,0,0,0, ,0,0,0,0,0, ,-235.4,-83.2,986.4,-0.8,0.8,-1.5,25,-225.672,-83.1421,972.477,-1.14393,0.320308,-1.76998,
2026_06_26_18_26_32.540,0,30.9,0,0.761,0,0,0,0, ,0,0,0,0,0, ,-228.2,-84.8,965.2,-1.3,0,-2.2,25,-226.046,-83.1944,972.679,-1.1382,0.325164,-1.77486,
2026_06_26_18_26_32.548,0,30.9,0,0.758,0,0,0,0, ,0,0,0,0,0, ,-230.4,-88.7,965.6,-0.5,-1.6,-1.5,25,-226.244,-83.4111,972.236,-1.12369,0.2566,-1.77944,
2026_06_26_18_26_32.580,0,30.8,0,0.761,0,0,0,0, ,0,0,0,0,0, ,-234.4,-86.5,980.5,-0.6,-1,-1.9,25,-226.619,-83.6663,972.285,-1.08873,0.161744,-1.7746,
2026_06_26_18_26_32.588,0,30.9,0,0.762,0,0,0,0, ,0,0,0,0,0, ,-229.8,-85.8,973.1,-1.3,-1.4,-2.7,25,-226.953,-83.8177,972.561,-1.08028,0.078763,-1.80661,
2026_06_26_18_26_32.619,0,30.9,0,0.759,0,0,0,0, ,0,0,0,0,0, ,-226,-87.5,976.1,-1.4,-0.7,-2.1,25,-227.011,-83.9903,972.685,-1.09671,0.00997897,-1.84277,
2026_06_26_18_26_32.628,0,30.8,0,0.759,0,0,0,0, ,0,0,0,0,0, ,-228.1,-86.5,976.3,-1.9,0.1,-1.7,25,-227.013,-84.1737,972.899,-1.13043,-0.00891037,-1.84626,
2026_06_26_18_26_32.656,0,30.9,0,0.76,0,0,0,0, ,0,0,0,0,0, ,-226.6,-87,975.8,-2.4,0.8,-2.6,25,-227.034,-84.3307,973.091,-1.19256,0.0190545,-1.86477,
2026_06_26_18_26_32.667,0,30.8,0,0.759,0,0,0,0, ,0,0,0,0,0, ,-224.6,-89.1,978.5,-2.8,1.1,-2.3,25,-226.946,-84.5573,973.338,-1.27832,0.075784,-1.90043,
2026_06_26_18_26_32.707,0,30.9,0,0.761,0,0,0,0, ,0,0,0,0,0, ,-233.2,-86.1,964.8,-2.5,0.9,-2.1,25,-227.066,-84.7427,973.236,-1.36191,0.132103,-1.91869,
2026_06_26_18_26_32.707,0,30.8,0,0.761,0,0,0,0, ,0,0,0,0,0, ,-233.1,-89.3,967.6,-2.5,-0.8,-2,25,-227.436,-84.9229,972.807,-1.43126,0.1271,-1.92669,
2026_06_26_18_26_32.739,0,30.8,0,0.759,0,0,0,0, ,0,0,0,0,0, ,-224.2,-92.7,976.4,-2.3,-0.4,-1.6,25,-227.51,-85.2933,972.758,-1.4903,0.0827925,-1.91897,
2026_06_26_18_26_32.747,0,30.9,0,0.761,0,0,0,0, ,0,0,0,0,0, ,-236,-91.3,964.7,-1.7,0.3,-1.5,25,-227.668,-85.702,972.623,-1.52136,0.0747005,-1.89648,
2026_06_26_18_26_32.778,0,30.8,0,0.761,0,0,0,0, ,0,0,0,0,0, ,-243.6,-88.3,970.3,-1.7,-1.4,-1.9,25,-228.407,-85.9517,972.311,-1.53224,0.0366328,-1.88451,
2026_06_26_18_26_32.786,0,30.9,0,0.761,0,0,0,0, ,0,0,0,0,0, ,-235.2,-84.1,974.4,-1.8,-1.1,-2.6,25,-229.077,-85.9668,972.313,-1.54551,-0.0417714,-1.90678,
2026_06_26_18_26_32.819,0,30.8,0,0.759,0,0,0,0, ,0,0,0,0,0, ,-227.9,-86,966.6,-1.6,-0.5,-2.4,25,-229.228,-85.9109,972.203,-1.55493,-0.0879759,-1.94293,
2026_06_26_18_26_32.826,0,30.9,0,0.759,0,0,0,0, ,0,0,0,0,0, ,-228.6,-90.2,969.7,-1.4,-1,-1.9,25,-229.168,-86.0443,971.956,-1.55158,-0.128318,-1.95555,
2026_06_26_18_26_32.856,0,30.9,0,0.76,0,0,0,0, ,0,0,0,0,0, ,-227.6,-92.1,972.6,-1,-0.9,-1.9,25,-229.103,-86.3555,971.907,-1.53015,-0.178389,-1.95217,
2026_06_26_18_26_32.865,0,30.9,0,0.759,0,0,0,0, ,0,0,0,0,0, ,-229.4,-92,975.3,-1,-0.6,-1.6,25,-229.066,-86.7025,972.031,-1.49785,-0.213222,-1.93985,
2026_06_26_18_26_32.897,0,30.8,0,0.761,0,0,0,0, ,0,0,0,0,0, ,-231,-90.4,970,-1,-0.3,-2.2,25,-229.136,-86.9765,972.069,-1.46751,-0.22765,-1.93742,
2026_06_26_18_26_32.905,0,30.9,0,0.761,0,0,0,0, ,0,0,0,0,0, ,-231.9,-90.8,968.1,-0.9,-1.6,-2.1,25,-229.277,-87.1974,971.885,-1.43597,-0.271669,-1.95037,
2026_06_26_18_26_32.936,0,30.9,0,0.758,0,0,0,0, ,0,0,0,0,0, ,-235.8,-91.6,973.7,-0.9,-2.8,-2.1,25,-229.555,-87.4413,971.825,-1.40331,-0.389176,-1.95949,
2026_06_26_18_26_32.944,0,30.9,0,0.761,0,0,0,0, ,0,0,0,0,0, ,-229.3,-91.5,977.6,-1.4,0,-2.5,25,-229.738,-87.6916,972.058,-1.38788,-0.450773,-1.98024,
2026_06_26_18_26_32.976,0,30.8,0,0.761,0,0,0,0, ,0,0,0,0,0, ,-224.6,-92.6,968,-1.4,0.3,-2.7,25,-229.568,-87.9572,972.103,-1.38862,-0.414164,-2.01801,
2026_06_26_18_26_32.985,0,30.8,0,0.761,0,0,0,0, ,0,0,0,0,0, ,-222.1,-94.2,970.5,-0.9,-1.4,-1.6,25,-229.189,-88.2889,971.929,-1.37408,-0.422441,-2.02605,
2026_06_26_18_26_33.016,0,30.9,0,0.761,0,0,0,0, ,0,0,0,0,0, ,-233.3,-89.9,972.6,-0.9,-1.2,-1.6,25,-229.098,-88.5181,971.906,-1.34519,-0.475917,-2.00009,
2026_06_26_18_26_33.024,0,30.9,0,0.761,0,0,0,0, ,0,0,0,0,0, ,-238.7,-93.7,968.8,-0.8,-1.9,-2,25,-229.519,-88.7181,971.833,-1.31501,-0.541369,-1.98789,
2026_06_26_18_26_33.056,0,30.9,0,0.761,0,0,0,0, ,0,0,0,0,0, ,-231,-94.7,976.8,-1,-0.9,-2.7,25,-229.844,-89.0521,971.892,-1.28972,-0.593692,-2.00996,
2026_06_26_18_26_33.064,0,31,0,0.761,0,0,0,0, ,0,0,0,0,0, ,-225.7,-92.2,969.3,-1.1,-2.5,-3,25,-229.753,-89.3201,971.962,-1.27511,-0.661108,-2.06115,
2026_06_26_18_26_33.095,0,30.8,0,0.759,0,0,0,0, ,0,0,0,0,0, ,-232.4,-92.5,975.7,-1.2,-5.4,-2.8,25,-229.71,-89.5048,971.995,-1.26749,-0.861525,-2.11227,
2026_06_26_18_26_33.103,0,30.8,0,0.761,0,0,0,0, ,0,0,0,0,0, ,-233.3,-91,974.3,-2,-7,-3.1,25,-229.901,-89.6416,972.178,-1.28775,-1.18684,-2.16332,
2026_06_26_18_26_33.136,0,30.9,0,0.759,0,0,0,0, ,0,0,0,0,0, ,-220.2,-97.5,970.8,-2.3,-6.3,-3,25,-229.709,-89.9224,972.201,-1.34029,-1.51975,-2.21735,
2026_06_26_18_26_33.143,0,30.8,0,0.759,0,0,0,0, ,0,0,0,0,0, ,-207.6,-96.5,971.9,-2.8,-7.6,-1.9,25,-228.746,-90.3537,972.149,-1.41401,-1.85066,-2.23153,
2026_06_26_18_26_33.176,0,30.8,0,0.761,0,0,0,0, ,0,0,0,0,0, ,-210.8,-95.7,974.9,-3,-7.8,-0.2,25,-227.555,-90.7039,972.225,-1.50456,-2.2071,-2.15953,
2026_06_26_18_26_33.182,0,30.8,0,0.762,0,0,0,0, ,0,0,0,0,0, ,-223.6,-95.3,970,-2.7,-7.7,-0.8,25,-226.924,-90.9961,972.239,-1.58655,-2.54487,-2.0584,
2026_06_26_18_26_33.214,0,30.9,0,0.759,0,0,0,0, ,0,0,0,0,0, ,-225.5,-96.4,977.9,-3.3,-7.3,-2,25,-226.779,-91.2919,972.343,-1.67268,-2.84682,-2.01828,
2026_06_26_18_26_33.222,0,30.9,0,0.761,0,0,0,0, ,0,0,0,0,0, ,-213.2,-93.5,968,-2.4,-3.4,-2.9,25,-226.326,-91.5148,972.38,-1.74443,-2.99936,-2.04459,
2026_06_26_18_26_33.255,0,30.8,0,0.759,0,0,0,0, ,0,0,0,0,0, ,-202.3,-100.2,976.3,-2,-1.2,-1.8,25,-225.194,-91.8399,972.366,-1.77219,-2.95674,-2.0632,
2026_06_26_18_26_33.262,0,30.9,0,0.761,0,0,0,0, ,0,0,0,0,0, ,-207.2,-97.5,966.7,-1.9,-1.9,-1.1,25,-223.949,-92.2671,972.313,-1.78302,-2.87102,-2.02583,
2026_06_26_18_26_33.294,0,30.8,0,0.761,0,0,0,0, ,0,0,0,0,0, ,-216.1,-97.1,973.5,-1.5,-2.4,-1.1,25,-223.199,-92.5738,972.178,-1.77796,-2.82708,-1.96941,
2026_06_26_18_26_33.301,0,30.9,0,0.761,0,0,0,0, ,0,0,0,0,0, ,-215.8,-97.5,978,-1.4,-1.8,-1.8,25,-222.757,-92.8618,972.396,-1.75798,-2.78278,-1.93776,
2026_06_26_18_26_33.333,0,30.8,0,0.761,0,0,0,0, ,0,0,0,0,0, ,-210.8,-96.9,976.1,-1.1,-1.1,-2.4,25,-222.181,-93.1262,972.68,-1.72702,-2.70156,-1.94765,
2026_06_26_18_26_33.340,0,30.8,0,0.759,0,0,0,0, ,0,0,0,0,0, ,-200.3,-99.1,976.1,-1,-1,-1.9,25,-221.168,-93.4232,972.888,-1.68577,-2.60092,-1.95998,
2026_06_26_18_26_33.372,0,30.8,0,0.761,0,0,0,0, ,0,0,0,0,0, ,-203.7,-99.8,975.2,-0.9,-0.4,-1.2,25,-220,-93.7904,973.056,-1.64093,-2.48508,-1.935,
2026_06_26_18_26_33.380,0,30.9,0,0.761,0,0,0,0, ,0,0,0,0,0, ,-209.1,-99.1,971.3,-0.9,-0.9,-1.3,25,-219.171,-94.1353,973.068,-1.59578,-2.37326,-1.89325,
2026_06_26_18_26_33.413,0,30.8,0,0.761,0,0,0,0, ,0,0,0,0,0, ,-215.4,-100.5,976.8,-0.9,-1.4,-1.6,25,-218.749,-94.4805,973.128,-1.55338,-2.29871,-1.86624,
2026_06_26_18_26_33.420,0,30.9,0,0.759,0,0,0,0, ,0,0,0,0,0, ,-213.9,-99.7,976.6,-1,-0.6,-2.1,25,-218.499,-94.8229,973.346,-1.51661,-2.21957,-1.86525,
2026_06_26_18_26_33.452,0,30.9,0,0.76,0,0,0,0, ,0,0,0,0,0, ,-209.3,-99.1,973.1,-1,-0.1,-2.2,25,-218.079,-95.1019,973.437,-1.48513,-2.10565,-1.8826,
2026_06_26_18_26_33.460,0,30.8,0,0.758,0,0,0,0, ,0,0,0,0,0, ,-201,-98.3,973.1,-0.9,0.7,-1.8,25,-217.291,-95.3211,973.417,-1.45252,-1.95905,-1.88976,
2026_06_26_18_26_33.492,0,30.9,0,0.76,0,0,0,0, ,0,0,0,0,0, ,-206,-100.3,979.4,-0.6,0.3,-1.6,25,-216.451,-95.5636,973.589,-1.40971,-1.8092,-1.8782,
2026_06_26_18_26_33.503,0,30.8,0,0.761,0,0,0,0, ,0,0,0,0,0, ,-213.7,-97.4,970.7,-0.7,-0.8,-1.5,25,-216.048,-95.7638,973.678,-1.36342,-1.71419,-1.8582,
2026_06_26_18_26_33.536,0,30.9,0,0.761,0,0,0,0, ,0,0,0,0,0, ,-221.4,-97.4,976,-0.7,-1.1,-2,25,-216.14,-95.8635,973.658,-1.32299,-1.66762,-1.8516,
2026_06_26_18_26_33.542,0,30.9,0,0.758,0,0,0,0, ,0,0,0,0,0, ,-211,-100.4,978.7,-1.2,0.4,-2.9,25,-216.144,-96.0486,973.883,-1.30026,-1.58733,-1.88807,
2026_06_26_18_26_33.574,0,30.8,0,0.76,0,0,0,0, ,0,0,0,0,0, ,-200.3,-102.5,967.2,-0.5,0.4,-2.3,25,-215.504,-96.3777,973.827,-1.27282,-1.46623,-1.93145,
2026_06_26_18_26_33.579,0,30.8,0,0.76,0,0,0,0, ,0,0,0,0,0, ,-205.4,-101,979.9,-0.2,1,-1.2,25,-214.733,-96.7051,973.81,-1.21659,-1.33422,-1.92039,
2026_06_26_18_26_33.613,0,30.8,0,0.759,0,0,0,0, ,0,0,0,0,0, ,-217.1,-96.6,976,-0.7,-0.4,-1.4,25,-214.521,-96.8328,974.062,-1.16988,-1.23464,-1.88259,
2026_06_26_18_26_33.618,0,30.8,0,0.761,0,0,0,0, ,0,0,0,0,0, ,-216.1,-95.7,975.2,-1,-1.1,-1.8,25,-214.647,-96.7912,974.156,-1.15038,-1.2051,-1.86537,
2026_06_26_18_26_33.653,0,30.9,0,0.761,0,0,0,0, ,0,0,0,0,0, ,-213.1,-98.5,972.5,-0.8,0.5,-1.8,25,-214.645,-96.81,974.137,-1.13513,-1.14995,-1.86138,
2026_06_26_18_26_33.658,0,30.8,0,0.761,0,0,0,0, ,0,0,0,0,0, ,-209.9,-101,978.5,-1.1,-1.2,-2,25,-214.453,-96.9891,974.22,-1.12384,-1.1012,-1.86374,
