UTC_Time,Vin,TC1,TC2,Rh1,Vh1,Ah1,Acp1,Dty1,Err1,Rh2,Vh2,Ah2,Acp2,Dty2,Err2,Accel_x,Accel_y,Accel_z,gyro_x,gyro_y,gyro_z,Temp_c,Accel_x_h,Accel_y_h,Accel_z_h,gyro_x_h,gyro_y_h,gyro_z_h,
2026_06_15_19_51_02.367,3.857,24.8,0,0.755,0,0,0,0.041, ,0,0,0,0,0, ,-40,338.1,943.9,-0.6,-0.4,-1.5,25,-40,338.1,943.9,-0.6,-0.4,-1.5,
2026_06_15_19_51_02.395,3.857,24.8,0,0.754,0,0,0,0.043, ,0,0,0,0,0, ,-40.2,338.5,943.8,-0.5,-0.4,-1.6,25,-40.0061,338.112,943.897,-0.596953,-0.4,-1.50305,
2026_06_15_19_51_02.411,3.857,24.9,0,0.753,0,0,0,0.043, ,0,0,0,0,0, ,-39.9,337,944.8,-0.7,-0.4,-1.6,25,-40.0088,338.09,943.922,-0.597139,-0.4,-1.50895,
2026_06_15_19_51_02.428,3.857,24.8,0,0.753,0,0,0,0.042, ,0,0,0,0,0, ,-40.4,338.9,943.3,-0.6,-0.3,-1.5,25,-40.0174,338.082,943.929,-0.60036,-0.396953,-1.51146,
2026_06_15_19_51_02.444,3.857,24.9,0,0.755,0,0,0,0.044, ,0,0,0,0,0, ,-40.7,338.2,944.4,-0.5,-0.4,-1.6,25,-40.0498,338.11,943.925,-0.597291,-0.394092,-1.5138,
2026_06_15_19_51_02.468,3.857,24.9,0,0.754,0,0,0,0.043, ,0,0,0,0,0, ,-41.7,338.5,944.2,-0.5,-0.3,-1.5,25,-40.1199,338.125,943.947,-0.591363,-0.391405,-1.51601,
2026_06_15_19_51_02.494,3.857,24.8,0,0.755,0,0,0,0.044, ,0,0,0,0,0, ,-40.4,337.5,944.2,-0.7,-0.3,-1.6,25,-40.1766,338.117,943.963,-0.591889,-0.385835,-1.51808,
2026_06_15_19_51_02.511,3.857,24.9,0,0.755,0,0,0,0.045, ,0,0,0,0,0, ,-40.1,338.3,942.3,-0.5,-0.4,-1.6,25,-40.1811,338.104,943.919,-0.592383,-0.383651,-1.52307,
2026_06_15_19_51_02.528,3.857,24.9,0,0.756,0,0,0,0.045, ,0,0,0,0,0, ,-40.6,338.9,944.3,-0.6,-0.4,-1.6,25,-40.1914,338.134,943.882,-0.5898,-0.384648,-1.52776,
2026_06_15_19_51_02.545,3.857,25,0,0.753,0,0,0,0.045, ,0,0,0,0,0, ,-39.6,338,944.4,-0.6,-0.4,-1.6,25,-40.1858,338.153,943.91,-0.590422,-0.385583,-1.53216,
2026_06_15_19_51_02.568,3.857,25,0,0.755,0,0,0,0.045, ,0,0,0,0,0, ,-40.6,338.5,943.7,-0.6,-0.3,-1.5,25,-40.1806,338.159,943.919,-0.591006,-0.383415,-1.53325,
2026_06_15_19_51_02.593,3.857,24.9,0,0.754,0,0,0,0.046, ,0,0,0,0,0, ,-41.2,337.8,943.7,-0.7,-0.3,-1.7,25,-40.2244,338.159,943.905,-0.594601,-0.378332,-1.53732,
2026_06_15_19_51_02.611,3.857,25,0,0.755,0,0,0,0.047, ,0,0,0,0,0, ,-40.4,337.8,944.5,-0.6,-0.4,-1.6,25,-40.2595,338.137,943.917,-0.597977,-0.376605,-1.54418,
2026_06_15_19_51_02.627,3.857,25.1,0,0.755,0,0,0,0.047, ,0,0,0,0,0, ,-41.3,338,945.1,-0.5,-0.4,-1.5,25,-40.2955,338.122,943.971,-0.595053,-0.378031,-1.54454,
2026_06_15_19_51_02.644,3.857,25,0,0.753,0,0,0,0.046, ,0,0,0,0,0, ,-39.9,338.1,945.1,-0.8,-0.4,-1.6,25,-40.314,338.118,944.04,-0.598401,-0.37937,-1.54487,
2026_06_15_19_51_02.668,3.857,25,0,0.755,0,0,0,0.048, ,0,0,0,0,0, ,-40.5,337.8,942.5,-0.5,-0.4,-1.6,25,-40.3071,338.108,944.025,-0.601546,-0.380627,-1.54823,
2026_06_15_19_51_02.678,3.857,25,0,0.755,0,0,0,0.048, ,0,0,0,0,0, ,-42.2,337.5,944.4,-0.5,-0.4,-1.6,25,-40.3706,338.08,943.99,-0.595358,-0.381807,-1.55139,
2026_06_15_19_51_02.711,3.857,25.1,0,0.756,0,0,0,0.049, ,0,0,0,0,0, ,-40.8,339.2,943.8,-0.7,-0.3,-1.7,25,-40.4395,338.096,943.997,-0.595641,-0.379869,-1.5574,
2026_06_15_19_51_02.728,3.857,25,0,0.753,0,0,0,0.048, ,0,0,0,0,0, ,-40.8,337,943.8,-0.5,-0.4,-1.5,25,-40.4614,338.097,943.985,-0.595906,-0.378049,-1.55999,
2026_06_15_19_51_02.744,3.817,25.2,0,0.757,3.875,5.118,0.99,0.05, ,0,0,0,0,0, ,-40.2,337.1,945,-0.5,-0.3,-1.6,25,-40.4638,338.033,944.01,-0.590062,-0.37634,-1.55938,
2026_06_15_19_51_02.768,3.817,25.1,0,0.757,0,0,0,0.049, ,0,0,0,0,0, ,-40.5,337.6,944.8,-0.6,-0.4,-1.6,25,-40.4568,337.991,944.064,-0.587621,-0.374735,-1.56186,
2026_06_15_19_51_02.778,3.814,25.1,0,0.755,3.86,5.112,0.98,0.05, ,0,0,0,0,0, ,-41.1,336.5,943.6,-0.5,-0.4,-1.6,25,-40.4778,337.934,944.073,-0.585328,-0.376274,-1.56418,
2026_06_15_19_51_02.811,3.816,25.2,0,0.757,3.869,5.11,0.98,0.05, ,0,0,0,0,0, ,-41,337.5,943.7,-0.6,-0.4,-1.5,25,-40.5126,337.877,944.047,-0.583175,-0.37772,-1.56332,
2026_06_15_19_51_02.827,3.815,25.2,0,0.755,3.861,5.113,0.98,0.05, ,0,0,0,0,0, ,-40.2,337.7,945.3,-0.5,-0.4,-1.6,25,-40.5179,337.86,944.074,-0.581154,-0.379078,-1.56251,
2026_06_15_19_51_02.844,3.816,25.2,0,0.755,3.865,5.119,0.98,0.05, ,0,0,0,0,0, ,-40,338.2,944.2,-0.6,-0.4,-1.6,25,-40.4925,337.866,944.116,-0.579255,-0.380353,-1.56479,
2026_06_15_19_51_02.868,3.815,25.2,0,0.754,3.863,5.123,1,0.051, ,0,0,0,0,0, ,-41.5,336.6,944.2,-0.6,-0.4,-1.6,25,-40.5082,337.837,944.121,-0.580519,-0.38155,-1.56694,
2026_06_15_19_51_02.877,3.817,25.2,0,0.756,3.869,5.117,1,0.051, ,0,0,0,0,0, ,-40.7,338.2,943.6,-0.6,-0.4,-1.6,25,-40.5442,337.811,944.107,-0.581707,-0.382674,-1.56895,
2026_06_15_19_51_02.911,3.815,25.3,0,0.754,3.86,5.119,1.02,0.052, ,0,0,0,0,0, ,-41.2,337.1,943.4,-0.7,-0.4,-1.6,25,-40.569,337.801,944.07,-0.585868,-0.38373,-1.57084,
2026_06_15_19_51_02.928,3.814,25.3,0,0.757,3.871,5.113,1.02,0.052, ,0,0,0,0,0, ,-41.2,338.6,945.4,-0.5,-0.3,-1.7,25,-40.6074,337.804,944.09,-0.586729,-0.381675,-1.57567,
2026_06_15_19_51_02.944,3.816,25.4,0,0.754,3.855,5.112,1.02,0.052, ,0,0,0,0,0, ,-41.7,337.4,944.5,-0.6,-0.4,-1.6,25,-40.6588,337.816,944.143,-0.584491,-0.379744,-1.5802,
2026_06_15_19_51_02.968,3.814,25.5,0,0.756,3.87,5.119,1.03,0.052, ,0,0,0,0,0, ,-40,337.8,943.2,-0.5,-0.4,-1.6,25,-40.6704,337.803,944.125,-0.582389,-0.380979,-1.5814,
2026_06_15_19_51_02.978,3.816,25.4,0,0.755,3.861,5.113,1,0.051, ,0,0,0,0,0, ,-40.4,337.1,944.2,-0.6,-0.5,-1.6,25,-40.6417,337.781,944.099,-0.580416,-0.385185,-1.58254,
2026_06_15_19_51_02.994,3.814,25.4,0,0.756,3.866,5.113,1.04,0.053, ,0,0,0,0,0, ,-41.1,337,943.2,-0.7,-0.4,-1.6,25,-40.6483,337.737,944.075,-0.584656,-0.389134,-1.5836,
2026_06_15_19_51_03.027,3.816,25.4,0,0.754,3.856,5.114,1.04,0.053, ,0,0,0,0,0, ,-39.7,336.7,943.9,-0.6,-0.4,-1.6,25,-40.6332,337.682,944.043,-0.588638,-0.389797,-1.5846,
2026_06_15_19_51_03.044,3.814,25.5,0,0.756,3.868,5.116,1.06,0.054, ,0,0,0,0,0, ,-41.3,337.8,943.4,-0.6,-0.4,-1.6,25,-40.6251,337.656,944.019,-0.58933,-0.390418,-1.58554,
2026_06_15_19_51_03.069,3.816,25.5,0,0.755,3.859,5.111,1.04,0.053, ,0,0,0,0,0, ,-40.1,337.5,944.9,-0.5,-0.4,-1.6,25,-40.6297,337.656,944.027,-0.586933,-0.391002,-1.58642,
2026_06_15_19_51_03.078,3.814,25.5,0,0.756,3.865,5.112,1.06,0.054, ,0,0,0,0,0, ,-40.4,338.3,944.2,-0.7,-0.4,-1.7,25,-40.6065,337.671,944.059,-0.58773,-0.39155,-1.59029,
2026_06_15_19_51_03.094,3.816,25.5,0,0.755,3.858,5.109,1.06,0.054, ,0,0,0,0,0, ,-39.3,338.3,944,-0.5,-0.3,-1.6,25,-40.5604,337.709,944.061,-0.588477,-0.389019,-1.59393,
2026_06_15_19_51_03.128,3.814,25.6,0,0.755,3.862,5.115,1.08,0.055, ,0,0,0,0,0, ,-40.6,337.2,945.5,-0.6,-0.4,-1.6,25,-40.5232,337.712,944.103,-0.586133,-0.386641,-1.5943,
2026_06_15_19_51_03.144,3.816,25.6,0,0.755,3.861,5.113,1.06,0.054, ,0,0,0,0,0, ,-39.4,337,944.4,-0.5,-0.4,-1.7,25,-40.4913,337.674,944.155,-0.583931,-0.387455,-1.5977,
2026_06_15_19_51_03.161,3.815,25.7,0,0.755,3.862,5.115,1.08,0.055, ,0,0,0,0,0, ,-38.6,336.5,943.9,-0.6,-0.3,-1.6,25,-40.4005,337.618,944.155,-0.581863,-0.385172,-1.60088,
2026_06_15_19_51_03.178,3.817,25.7,0,0.756,3.864,5.111,1.06,0.054, ,0,0,0,0,0, ,-41.7,338.7,944.8,-0.6,-0.4,-1.6,25,-40.3852,337.617,944.166,-0.582968,-0.383029,-1.60083,
2026_06_15_19_51_03.203,3.814,25.9,0,0.755,3.86,5.112,1.08,0.055, ,0,0,0,0,0, ,-40.8,338.3,944.3,-0.5,-0.3,-1.6,25,-40.4379,337.671,944.19,-0.580959,-0.381016,-1.60078,
2026_06_15_19_51_03.227,3.814,25.9,0,0.757,3.867,5.108,1.04,0.053, ,0,0,0,0,0, ,-40.8,338.5,944.5,-0.6,-0.4,-1.6,25,-40.46,337.715,944.203,-0.579073,-0.379126,-1.60073,
2026_06_15_19_51_03.244,3.816,25.9,0,0.756,3.858,5.103,1.06,0.054, ,0,0,0,0,0, ,-40.1,338.7,944.7,-0.5,-0.3,-1.6,25,-40.4594,337.769,944.227,-0.577301,-0.377352,-1.60069,
2026_06_15_19_51_03.262,3.814,25.9,0,0.754,3.857,5.115,1.06,0.054, ,0,0,0,0,0, ,-40.8,336.7,944.9,-0.6,-0.4,-1.6,25,-40.4588,337.765,944.262,-0.575638,-0.375685,-1.60065,
2026_06_15_19_51_03.278,3.814,25.9,0,0.756,3.865,5.112,1.08,0.055, ,0,0,0,0,0, ,-41.3,337.6,943.9,-0.5,-0.4,-1.5,25,-40.4948,337.727,944.27,-0.574075,-0.377166,-1.59756,
2026_06_15_19_51_03.295,3.816,26,0,0.756,3.86,5.105,1.08,0.055, ,0,0,0,0,0, ,-41.1,337.7,944.8,-0.6,-0.4,-1.6,25,-40.5378,337.723,944.275,-0.572608,-0.378558,-1.59466,
2026_06_15_19_51_03.311,3.814,26,0,0.756,3.862,5.108,1.08,0.055, ,0,0,0,0,0, ,-41,336.6,944.4,-0.5,-0.4,-1.6,25,-40.569,337.688,944.295,-0.57123,-0.379865,-1.59499,
2026_06_15_19_51_03.344,3.813,26,0,0.759,3.867,5.094,1.08,0.055, ,0,0,0,0,0, ,-41.1,335.9,944.4,-0.7,-0.5,-1.5,25,-40.5983,337.6,944.301,-0.572984,-0.384138,-1.59224,
2026_06_15_19_51_03.361,3.816,26,0,0.755,3.848,5.096,1.09,0.056, ,0,0,0,0,0, ,-41.1,339.1,944.3,-0.6,-0.3,-1.7,25,-40.6289,337.594,944.304,-0.577677,-0.385105,-1.59272,
2026_06_15_19_51_03.377,3.814,26.1,0,0.756,3.864,5.111,1.1,0.056, ,0,0,0,0,0, ,-41.5,336.9,945.6,-0.6,-0.4,-1.6,25,-40.6698,337.619,944.344,-0.579037,-0.382966,-1.59621,
2026_06_15_19_51_03.393,3.816,26.1,0,0.756,3.859,5.104,1.1,0.056, ,0,0,0,0,0, ,-39.1,336.5,945.5,-0.6,-0.4,-1.6,25,-40.6472,337.563,944.417,-0.580315,-0.384004,-1.59644,
2026_06_15_19_51_03.411,3.815,26.2,0,0.755,3.858,5.109,1.1,0.056, ,0,0,0,0,0, ,-40.8,338,945.6,-0.6,-0.4,-1.6,25,-40.6048,337.544,944.486,-0.581514,-0.384979,-1.59666,
2026_06_15_19_51_03.445,3.813,26.3,0,0.757,3.866,5.107,1.08,0.055, ,0,0,0,0,0, ,-40.4,337.8,943.1,-0.5,-0.3,-1.7,25,-40.6045,337.565,944.478,-0.579594,-0.382847,-1.59991,
2026_06_15_19_51_03.461,3.816,26.1,0,0.757,3.859,5.097,1.08,0.055, ,0,0,0,0,0, ,-41,337.4,944.7,-0.6,-0.3,-1.6,25,-40.6103,337.568,944.443,-0.57779,-0.377799,-1.60296,
2026_06_15_19_51_03.478,3.814,26.4,0,0.757,3.86,5.099,1.12,0.057, ,0,0,0,0,0, ,-40.6,338.5,944.7,-0.7,-0.4,-1.6,25,-40.6218,337.591,944.458,-0.582191,-0.376105,-1.60278,
2026_06_15_19_51_03.494,3.816,26.3,0,0.755,3.855,5.105,1.08,0.055, ,0,0,0,0,0, ,-39.6,338.3,944,-0.5,-0.4,-1.6,25,-40.59,337.64,944.452,-0.583276,-0.377561,-1.60261,
2026_06_15_19_51_03.511,3.813,26.4,0,0.756,3.864,5.111,1.1,0.056, ,0,0,0,0,0, ,-41,337.5,945.6,-0.6,-0.4,-1.6,25,-40.5724,337.656,944.473,-0.581248,-0.378928,-1.60245,
2026_06_15_19_51_03.544,3.814,26.4,0,0.756,3.858,5.103,1.1,0.056, ,0,0,0,0,0, ,-40,337.6,945.6,-0.7,-0.4,-1.6,25,-40.568,337.65,944.542,-0.585438,-0.380212,-1.6023,
2026_06_15_19_51_03.561,3.813,26.4,0,0.756,3.859,5.104,1.1,0.056, ,0,0,0,0,0, ,-40.6,338.6,945.8,-0.5,-0.4,-1.6,25,-40.5516,337.677,944.612,-0.586325,-0.381418,-1.60216,
2026_06_15_19_51_03.577,3.815,26.5,0,0.756,3.858,5.103,1.1,0.056, ,0,0,0,0,0, ,-41.1,338.1,945.4,-0.6,-0.4,-1.6,25,-40.5698,337.718,944.672,-0.584112,-0.38255,-1.60203,
2026_06_15_19_51_03.594,3.813,26.5,0,0.755,3.857,5.108,1.1,0.056, ,0,0,0,0,0, ,-39.9,338.2,943.4,-0.6,-0.4,-1.6,25,-40.5656,337.744,944.656,-0.58508,-0.383614,-1.60191,
2026_06_15_19_51_03.611,3.816,26.5,0,0.756,3.861,5.107,1.1,0.056, ,0,0,0,0,0, ,-40.6,338.1,944,-0.6,-0.4,-1.6,25,-40.5463,337.769,944.598,-0.585989,-0.384612,-1.60179,
2026_06_15_19_51_03.643,3.814,26.5,0,0.756,3.86,5.105,1.12,0.057, ,0,0,0,0,0, ,-40.6,338.3,943.3,-0.6,-0.3,-1.6,25,-40.5496,337.795,944.54,-0.586843,-0.382503,-1.60168,
2026_06_15_19_51_03.661,3.813,26.6,0,0.756,3.858,5.103,1.12,0.057, ,0,0,0,0,0, ,-38.9,337.5,943.2,-0.5,-0.4,-1.6,25,-40.5009,337.802,944.461,-0.584598,-0.380522,-1.60158,
2026_06_15_19_51_03.678,3.815,26.6,0,0.755,3.855,5.105,1.12,0.057, ,0,0,0,0,0, ,-41.1,338.1,947.6,-0.6,-0.4,-1.6,25,-40.4704,337.802,944.518,-0.582489,-0.381709,-1.60148,
2026_06_15_19_51_03.694,3.813,26.7,0,0.756,3.862,5.108,1.12,0.057, ,0,0,0,0,0, ,-40,337.4,945.8,-0.5,-0.4,-1.6,25,-40.4752,337.798,944.651,-0.58051,-0.382824,-1.60139,
2026_06_15_19_51_03.711,3.816,26.7,0,0.756,3.858,5.103,1.1,0.056, ,0,0,0,0,0, ,-41.2,337.8,945.9,-0.6,-0.4,-1.7,25,-40.4828,337.786,944.724,-0.57865,-0.383871,-1.60435,
2026_06_15_19_51_03.743,3.814,26.7,0,0.757,3.863,5.103,1.12,0.057, ,0,0,0,0,0, ,-40,336.5,944.5,-0.5,-0.3,-1.6,25,-40.49,337.748,944.753,-0.576904,-0.381807,-1.60714,
2026_06_15_19_51_03.761,3.815,26.8,0,0.757,3.858,5.096,1.12,0.057, ,0,0,0,0,0, ,-41.2,337.2,944.7,-0.6,-0.4,-1.6,25,-40.4967,337.693,944.744,-0.575265,-0.379868,-1.6067,
2026_06_15_19_51_03.778,3.813,26.8,0,0.758,3.862,5.094,1.12,0.057, ,0,0,0,0,0, ,-39.6,338.7,944.7,-0.6,-0.4,-1.5,25,-40.4908,337.709,944.741,-0.576772,-0.381095,-1.60325,
2026_06_15_19_51_03.794,3.815,26.9,0,0.757,3.855,5.092,1.11,0.057, ,0,0,0,0,0, ,-39.5,338.1,943.8,-0.4,-0.4,-1.6,25,-40.4334,337.751,944.711,-0.572094,-0.382247,-1.6,
2026_06_15_19_51_03.815,3.814,26.8,0,0.756,3.857,5.101,1.1,0.056, ,0,0,0,0,0, ,-40.7,336.9,944.3,-0.7,-0.4,-1.6,25,-40.4131,337.735,944.671,-0.570748,-0.383329,-1.6,
2026_06_15_19_51_03.830,3.813,26.9,0,0.756,3.857,5.101,1.14,0.058, ,0,0,0,0,0, ,-40.6,337.8,943.9,-0.6,-0.4,-1.6,25,-40.4276,337.712,944.636,-0.575577,-0.384345,-1.6,
2026_06_15_19_51_03.862,3.816,26.9,0,0.756,3.857,5.101,1.12,0.057, ,0,0,0,0,0, ,-40.4,337.5,943.7,-0.5,-0.4,-1.6,25,-40.432,337.708,944.585,-0.574018,-0.385299,-1.6,
2026_06_15_19_51_03.878,3.814,27,0,0.757,3.863,5.103,1.12,0.057, ,0,0,0,0,0, ,-40.2,337,942.8,-0.6,-0.4,-1.6,25,-40.4239,337.68,944.504,-0.572555,-0.386195,-1.6,
2026_06_15_19_51_03.894,3.815,27,0,0.756,3.856,5.1,1.12,0.057, ,0,0,0,0,0, ,-41.7,336.9,944.7,-0.6,-0.4,-1.5,25,-40.456,337.636,944.458,-0.574227,-0.387036,-1.59695,
2026_06_15_19_51_03.910,3.814,27.1,0,0.757,3.862,5.101,1.12,0.057, ,0,0,0,0,0, ,-40.7,338.1,943.2,-0.6,-0.4,-1.5,25,-40.5013,337.627,944.427,-0.575798,-0.387826,-1.59105,
2026_06_15_19_51_03.928,3.813,27.2,0,0.757,3.858,5.096,1.12,0.057, ,0,0,0,0,0, ,-41.2,338.2,944.8,-0.6,-0.4,-1.5,25,-40.5287,337.659,944.401,-0.577273,-0.388568,-1.5855,
2026_06_15_19_51_03.960,3.815,27.1,0,0.757,3.858,5.096,1.1,0.056, ,0,0,0,0,0, ,-39.6,338.7,945.5,-0.5,-0.3,-1.6,25,-40.5208,337.707,944.447,-0.575611,-0.386218,-1.58333,
2026_06_15_19_51_03.978,3.814,27.2,0,0.757,3.859,5.097,1.12,0.057, ,0,0,0,0,0, ,-41.3,338.9,945.5,-0.7,-0.4,-1.6,25,-40.5165,337.774,944.511,-0.577097,-0.384011,-1.58435,
2026_06_15_19_51_03.995,3.815,27.3,0,0.756,3.856,5.1,1.12,0.057, ,0,0,0,0,0, ,-40.8,337.7,943.6,-0.5,-0.4,-1.6,25,-40.549,337.806,944.513,-0.578493,-0.384985,-1.5853,
2026_06_15_19_51_04.011,3.814,27.2,0,0.757,3.863,5.103,1.1,0.056, ,0,0,0,0,0, ,-40.8,338.8,946.4,-0.6,-0.4,-1.6,25,-40.5643,337.833,944.543,-0.576756,-0.3859,-1.5862,
2026_06_15_19_51_04.028,3.813,27.3,0,0.756,3.856,5.1,1.12,0.057, ,0,0,0,0,0, ,-40,339.4,943.7,-0.3,-0.4,-1.6,25,-40.5543,337.91,944.574,-0.569032,-0.386759,-1.58704,
2026_06_15_19_51_04.059,3.815,27.3,0,0.757,3.86,5.099,1.12,0.057, ,0,0,0,0,0, ,-39.4,337,946,-0.5,-0.4,-1.6,25,-40.5022,337.928,944.591,-0.558732,-0.387566,-1.58783,
2026_06_15_19_51_04.078,3.813,27.5,0,0.759,3.864,5.09,1.12,0.057, ,0,0,0,0,0, ,-40,336.9,944.9,-0.6,-0.4,-1.6,25,-40.4534,337.868,944.643,-0.5582,-0.388324,-1.58857,
2026_06_15_19_51_04.094,3.816,27.5,0,0.757,3.853,5.089,1.09,0.056, ,0,0,0,0,0, ,-40.7,337.7,944.2,-0.6,-0.4,-1.6,25,-40.4471,337.834,944.637,-0.560747,-0.389035,-1.58927,
2026_06_15_19_51_04.110,3.815,27.5,0,0.756,3.858,5.103,1.1,0.056, ,0,0,0,0,0, ,-41.8,337.8,944.4,-0.5,-0.4,-1.6,25,-40.496,337.829,944.617,-0.560092,-0.389703,-1.58992,
2026_06_15_19_51_04.128,3.814,27.5,0,0.757,3.863,5.103,1.1,0.056, ,0,0,0,0,0, ,-39.3,338.5,945.4,-0.7,-0.4,-1.6,25,-40.4993,337.848,944.634,-0.562524,-0.390331,-1.59054,
2026_06_15_19_51_04.144,3.816,27.5,0,0.759,3.864,5.09,1.1,0.056, ,0,0,0,0,0, ,-40.1,338.3,944.4,-0.5,-0.4,-1.6,25,-40.4506,337.882,944.65,-0.564808,-0.39092,-1.59111,
2026_06_15_19_51_04.177,3.814,27.6,0,0.757,3.855,5.092,1.11,0.057, ,0,0,0,0,0, ,-40.5,336.6,943.9,-0.6,-0.4,-1.6,25,-40.4414,337.856,944.62,-0.563905,-0.391473,-1.59165,
2026_06_15_19_51_04.194,3.816,27.6,0,0.757,3.859,5.097,1.1,0.056, ,0,0,0,0,0, ,-41.1,336.6,943.8,-0.7,-0.4,-1.6,25,-40.4632,337.779,944.573,-0.569152,-0.391993,-1.59216,
2026_06_15_19_51_04.211,3.815,27.7,0,0.757,3.861,5.1,1.1,0.056, ,0,0,0,0,0, ,-40.1,338.2,944.8,-0.7,-0.4,-1.6,25,-40.4716,337.756,944.556,-0.577125,-0.392481,-1.59264,
2026_06_15_19_51_04.228,3.814,27.8,0,0.758,3.862,5.094,1.1,0.056, ,0,0,0,0,0, ,-40.7,338.3,944.2,-0.5,-0.4,-1.5,25,-40.4672,337.786,944.553,-0.578519,-0.392939,-1.59004,
2026_06_15_19_51_04.244,3.816,27.7,0,0.759,3.862,5.088,1.08,0.055, ,0,0,0,0,0, ,-41.3,337.1,943.2,-0.8,-0.4,-1.6,25,-40.4997,337.781,944.501,-0.582875,-0.393369,-1.5876,
2026_06_15_19_51_04.277,3.814,27.8,0,0.758,3.859,5.091,1.1,0.056, ,0,0,0,0,0, ,-41.3,337.2,943.6,-0.6,-0.3,-1.6,25,-40.5485,337.742,944.434,-0.590012,-0.390727,-1.58836,
2026_06_15_19_51_04.294,3.816,27.8,0,0.757,3.857,5.095,1.1,0.056, ,0,0,0,0,0, ,-39.6,338.6,944.8,-0.6,-0.4,-1.6,25,-40.5425,337.752,944.42,-0.590621,-0.388245,-1.58907,
2026_06_15_19_51_04.311,3.815,27.8,0,0.757,3.861,5.1,1.1,0.056, ,0,0,0,0,0, ,-41,338.2,943.9,-0.6,-0.4,-1.6,25,-40.5277,337.791,944.415,-0.591192,-0.388961,-1.58973,
2026_06_15_19_51_04.328,3.814,27.9,0,0.757,3.86,5.099,1.1,0.056, ,0,0,0,0,0, ,-41.1,337.6,944.2,-0.5,-0.4,-1.6,25,-40.5595,337.798,944.393,-0.588682,-0.389634,-1.59036,
2026_06_15_19_51_04.344,3.816,28,0,0.757,3.859,5.097,1.1,0.056, ,0,0,0,0,0, ,-40.7,338.9,942.7,-0.6,-0.4,-1.6,25,-40.5803,337.826,944.336,-0.586325,-0.390265,-1.59095,
2026_06_15_19_51_04.371,3.814,27.9,0,0.758,3.864,5.097,1.08,0.055, ,0,0,0,0,0, ,-40.1,336.7,942.9,-0.7,-0.4,-1.6,25,-40.5693,337.824,944.242,-0.590205,-0.390859,-1.5915,
2026_06_15_19_51_04.394,3.816,28,0,0.756,3.854,5.097,1.1,0.056, ,0,0,0,0,0, ,-39.9,338.6,944.7,-0.5,-0.4,-1.6,25,-40.5346,337.813,944.215,-0.590802,-0.391416,-1.59202,
2026_06_15_19_51_04.411,3.815,28,0,0.756,3.862,5.108,1.08,0.055, ,0,0,0,0,0, ,-39,337.7,943.4,-0.6,-0.4,-1.5,25,-40.4685,337.834,944.205,-0.588316,-0.391939,-1.58946,
2026_06_15_19_51_04.427,3.814,28.1,0,0.756,3.86,5.105,1.1,0.056, ,0,0,0,0,0, ,-40.2,338.5,944.4,-0.7,-0.4,-1.6,25,-40.4156,337.85,944.186,-0.592075,-0.39243,-1.58705,
2026_06_15_19_51_04.443,3.816,28.1,0,0.757,3.862,5.101,1.08,0.055, ,0,0,0,0,0, ,-40.8,338.1,943.6,-0.6,-0.5,-1.6,25,-40.4207,337.878,944.175,-0.595604,-0.395938,-1.58784,
2026_06_15_19_51_04.471,3.814,28.1,0,0.757,3.862,5.101,1.08,0.055, ,0,0,0,0,0, ,-40,323.2,948.6,0.9,-0.4,-1.6,25,-40.4195,337.437,944.292,-0.550169,-0.399233,-1.58858,
2026_06_15_19_51_04.494,3.816,28.1,0,0.757,3.86,5.099,1.08,0.055, ,0,0,0,0,0, ,-41.9,363.5,939.3,24.3,-0.5,-2.3,25,-40.4518,337.797,944.271,0.251169,-0.402326,-1.61061,
2026_06_15_19_51_04.511,3.815,28.1,0,0.757,3.862,5.101,1.08,0.055, ,0,0,0,0,0, ,-35.4,339.7,941.2,2.8,-1,-3.4,25,-40.342,338.639,944.026,1.06157,-0.423513,-1.68613,
2026_06_15_19_51_04.528,3.814,28.1,0,0.759,3.865,5.092,1.1,0.056, ,0,0,0,0,0, ,-20.6,248,1002.1,-27.5,-1.9,-5.8,25,-39.5899,335.909,945.71,0.244299,-0.486064,-1.86369,
2026_06_15_19_51_04.553,3.816,28.2,0,0.759,3.859,5.084,1.09,0.056, ,0,0,0,0,0, ,241.9,321,962,-50.2,2.8,7.9,25,-30.4347,332.777,947.924,-2.13801,-0.429023,-1.68614,
2026_06_15_19_51_04.572,3.814,28.3,0,0.758,3.859,5.091,1.08,0.055, ,0,0,0,0,0, ,92.8,364.7,949,-46.5,14.8,43.3,25,-18.3822,333.39,948.386,-4.95405,0.133371,-0.0233925,
2026_06_15_19_51_04.593,3.817,28.3,0,0.757,3.857,5.095,1.08,0.055, ,0,0,0,0,0, ,-44.1,184,974.4,-36,20.9,65.6,25,-15.7782,329.793,949.197,-7.16584,1.21298,3.29608,
2026_06_15_19_51_04.611,3.815,28.5,0,0.757,3.863,5.103,1.08,0.055, ,0,0,0,0,0, ,-145.6,361.9,935.1,7.7,16.3,48.1,25,-20.5966,326.329,949.536,-7.59143,2.2725,6.55952,
2026_06_15_19_51_04.628,3.813,28.5,0,0.757,3.862,5.101,1.04,0.053, ,0,0,0,0,0, ,-144.5,379.5,930.2,10.8,7,19.5,25,-28.1805,329.033,948.507,-6.56516,2.84394,8.21949,
2026_06_15_19_51_04.644,3.816,28.4,0,0.759,3.866,5.093,1.04,0.053, ,0,0,0,0,0, ,-69.3,430,915.2,-0.3,1.6,5.3,25,-32.9775,333.647,946.934,-5.84517,2.93267,8.47424,
2026_06_15_19_51_04.672,3.814,28.5,0,0.758,3.86,5.092,1.06,0.054, ,0,0,0,0,0, ,-63.7,328.2,957.8,54.8,5.6,19.4,25,-35.0202,336.416,946.298,-3.82844,2.97333,8.71042,
2026_06_15_19_51_04.678,3.815,28.5,0,0.76,3.866,5.086,1.06,0.054, ,0,0,0,0,0, ,-105.3,411.6,1294.9,19.7,-27.5,26.1,25,-38.0354,338.457,957.27,-1.32522,2.12488,9.56595,
2026_06_15_19_51_04.718,3.815,28.5,0,0.757,3.854,5.091,1.05,0.054, ,0,0,0,0,0, ,6.5,509.1,1244.6,-24,-94.5,24.4,25,-38.7279,345.885,976.312,-1.37548,-1.72179,10.5217,
2026_06_15_19_51_04.728,3.815,28.5,0,0.759,3.867,5.094,1.06,0.054, ,0,0,0,0,0, ,53.3,458,1306.8,-33.8,-160.4,38.4,25,-34.5459,354.274,994.556,-3.05275,-9.38335,11.794,
2026_06_15_19_51_04.744,3.813,28.5,0,0.759,3.862,5.088,1.06,0.054, ,0,0,0,0,0, ,231.9,341.4,907.9,-52,-179.4,60.1,25,-23.7511,357.042,1001.43,-5.48095,-19.1648,14.0764,
2026_06_15_19_51_04.761,3.816,28.6,0,0.759,3.86,5.085,1.06,0.054, ,0,0,0,0,0, ,204.1,280,1311.7,-48.6,-121.1,25.5,25,-9.01939,354.218,1008.03,-8.21211,-27.1528,15.8268,
2026_06_15_19_51_04.778,3.815,28.7,0,0.759,3.863,5.089,1.06,0.054, ,0,0,0,0,0, ,347.9,436.5,1399.4,-47.7,-45,-0.7,25,8.34898,354.464,1029.21,-10.6458,-30.5591,15.618,
2026_06_15_19_51_04.811,3.813,28.8,0,0.759,3.863,5.089,1.04,0.053, ,0,0,0,0,0, ,318.9,382.8,1268.5,-94.9,43,-16.2,25,28.1568,357.827,1047.78,-14.3419,-28.7578,14.1513,
2026_06_15_19_51_04.828,3.814,28.7,0,0.76,3.864,5.084,1.02,0.052, ,0,0,0,0,0, ,308.3,407.8,1148.3,-116.4,102.5,-18.1,25,45.551,360.11,1057.57,-19.906,-22.5722,12.2439,
2026_06_15_19_51_04.847,3.814,28.9,0,0.759,3.859,5.084,1.03,0.053, ,0,0,0,0,0, ,139.1,360.2,1090.4,-111.9,111.7,-49.6,25,56.4069,361.566,1061.33,-25.649,-14.6703,9.43506,
2026_06_15_19_51_04.861,3.815,28.8,0,0.756,3.855,5.099,1.02,0.052, ,0,0,0,0,0, ,-3.9,166.6,1125,-99.2,86.5,-79,25,57.089,355.584,1064.16,-30.518,-7.73741,4.94183,
2026_06_15_19_51_04.878,3.813,28.9,0,0.761,3.875,5.091,1.04,0.053, ,0,0,0,0,0, ,-7.6,70.1,1091.4,-49.2,65.4,-28.3,25,53.2598,341.127,1066.84,-33.1799,-2.63771,1.37139,
2026_06_15_19_51_04.911,3.816,28.9,0,0.76,3.859,5.077,1.01,0.052, ,0,0,0,0,0, ,-49.3,101.3,1161.9,-38,52.7,4.2,25,48.2806,325.562,1070.49,-33.8148,1.12139,0.553522,
2026_06_15_19_51_04.927,3.815,29.1,0,0.759,3.862,5.088,1.02,0.052, ,0,0,0,0,0, ,16.1,125.9,1191.5,-39.1,77.3,9.6,25,44.3269,312.646,1076.96,-34.1034,5.01399,0.94026,
2026_06_15_19_51_04.944,3.814,28.9,0,0.757,3.86,5.099,1,0.051, ,0,0,0,0,0, ,-95.4,169.6,1138.1,-15.9,108,8.2,25,39.2096,302.598,1082.31,-33.701,10.3543,1.42531,
2026_06_15_19_51_04.961,3.815,29.1,0,0.759,3.868,5.096,1.02,0.052, ,0,0,0,0,0, ,-190.6,110.3,1149.7,-20.3,101.4,-21.6,25,28.1062,292.686,1086.06,-32.7503,16.1035,0.930171,
2026_06_15_19_51_04.977,3.813,28.9,0,0.759,3.865,5.092,1,0.051, ,0,0,0,0,0, ,-241.5,105.8,1194.7,-48.1,44.4,-30,25,13.2279,281.435,1091.31,-32.8386,19.5645,-0.698699,
2026_06_15_19_51_05.010,3.815,29.1,0,0.759,3.861,5.086,1.04,0.053, ,0,0,0,0,0, ,-245.1,122.1,1220.3,-71.2,-48.5,-22.8,25,-2.40426,271.229,1098.39,-34.4725,18.2474,-2.26487,
2026_06_15_19_51_05.028,3.813,29.1,0,0.759,3.865,5.092,1,0.051, ,0,0,0,0,0, ,-98.5,130.7,1198.6,-114.2,-153.5,14.7,25,-12.7268,262.403,1105.16,-38.0207,10.9808,-2.37365,
2026_06_15_19_51_05.048,3.816,29.2,0,0.76,3.865,5.085,1,0.051, ,0,0,0,0,0, ,-107.2,-62.3,979.8,-115,-200.7,47.9,25,-18.2187,248.497,1104.19,-42.6872,-0.480408,-0.321665,
2026_06_15_19_51_05.061,3.814,29.3,0,0.759,3.864,5.09,0.98,0.05, ,0,0,0,0,0, ,-48.9,14.6,994.6,-83.5,-180.6,16.3,25,-21.8647,231.901,1097.06,-46.134,-12.0689,1.65403,
2026_06_15_19_51_05.078,3.816,29.3,0,0.759,3.865,5.092,0.98,0.05, ,0,0,0,0,0, ,46.3,-64.4,955.5,-66.5,-128.6,-7.5,25,-20.6115,216.252,1089.62,-47.8931,-20.7544,1.82136,
2026_06_15_19_51_05.094,3.815,29.3,0,0.76,3.869,5.09,0.98,0.05, ,0,0,0,0,0, ,57,-49.8,967.8,-51.9,-65.5,-16.9,25,-16.2081,199.595,1081.83,-48.5821,-25.4036,0.966936,
2026_06_15_19_51_05.129,3.814,29.3,0,0.757,3.858,5.096,0.98,0.05, ,0,0,0,0,0, ,65.5,-64,947.6,-52.7,-40.3,-15.5,25,-11.488,183.965,1074.26,-48.8086,-27.0792,-0.0791739,
2026_06_15_19_51_05.148,3.816,29.4,0,0.76,3.872,5.094,0.98,0.05, ,0,0,0,0,0, ,108.7,-81,969.4,-40.1,-11.2,-13.3,25,-5.48027,168.336,1067.21,-48.6619,-26.9982,-0.951849,
2026_06_15_19_51_05.168,3.816,29.4,0,0.759,0,0,0,0.049, ,0,0,0,0,0, ,61.4,-75.6,961.7,-43.9,-27.9,-16.8,25,0.03642,153.307,1061.01,-48.2559,-26.5443,-1.81096,
2026_06_15_19_51_05.187,3.816,29.4,0,0.759,0,0,0,0.049, ,0,0,0,0,0, ,85.5,-84.4,863,-34.3,-44.9,-20.3,25,4.51006,139.09,1051.95,-47.698,-27.1449,-2.83099,
2026_06_15_19_51_05.208,3.816,29.5,0,0.76,0,0,0,0.049, ,0,0,0,0,0, ,139.4,-116.9,890.5,-25.5,-55.3,-13.5,25,11.0876,124.481,1041.28,-46.6134,-28.5437,-3.68832,
2026_06_15_19_51_05.227,3.816,29.6,0,0.761,0,0,0,0.049, ,0,0,0,0,0, ,111.5,-176,925.6,-26.6,-63.5,-15.1,25,18.0566,107.971,1033.16,-45.3603,-30.424,-4.33497,
2026_06_15_19_51_05.247,3.816,29.6,0,0.76,0,0,0,0.048, ,0,0,0,0,0, ,157.5,-166.6,925.9,-31.8,-55.4,-21.8,25,25.1524,90.9528,1026.61,-44.3756,-32.1928,-5.1951,
2026_06_15_19_51_05.273,3.816,29.6,0,0.759,0,0,0,0.048, ,0,0,0,0,0, ,241,-182.7,810.1,-34.9,-35.1,-2,25,35.7614,74.7676,1016.95,-43.7037,-32.9885,-5.60368,
2026_06_15_19_51_05.287,3.816,29.6,0,0.759,0,0,0,0.048, ,0,0,0,0,0, ,262.4,-126,863.4,-31.9,-12.5,-11.1,25,48.9202,60.8057,1005.97,-43.0758,-32.4285,-5.66135,
2026_06_15_19_51_05.307,3.816,29.7,0,0.759,0,0,0,0.048, ,0,0,0,0,0, ,285.8,-131.5,796.5,-41.4,8.7,-24.7,25,62.6421,49.2547,995.241,-42.6842,-30.5682,-6.40714,
2026_06_15_19_51_05.327,3.816,29.8,0,0.76,0,0,0,0.047, ,0,0,0,0,0, ,256.7,-173.4,696.5,-34,23.2,-9.5,25,75.3541,36.9633,980.084,-42.3805,-27.7335,-7.05874,
2026_06_15_19_51_05.347,3.816,29.7,0,0.759,0,0,0,0.046, ,0,0,0,0,0, ,244.6,-172.2,713.7,-21.1,35,-17.5,25,86.0362,24.1809,963.327,-41.4768,-24.2702,-7.45125,
2026_06_15_19_51_05.366,3.816,29.8,0,0.759,0,0,0,0.047, ,0,0,0,0,0, ,286.8,-183.8,855.1,-14,39.7,-24.5,25,96.9845,11.8605,952.423,-40.0187,-20.5152,-8.27688,
2026_06_15_19_51_05.385,3.816,29.8,0,0.759,0,0,0,0.046, ,0,0,0,0,0, ,259.6,-278.4,879.8,-15.9,31.8,-13.1,25,107.723,-2.94493,947.245,-38.4911,-17.0866,-8.91813,
2026_06_15_19_51_05.405,3.816,29.8,0,0.76,0,0,0,0.046, ,0,0,0,0,0, ,246.9,-225,861.5,-13.2,21,-10.4,25,116.591,-18.1034,942.578,-37.0322,-14.4366,-9.0907,
2026_06_15_19_51_05.425,3.816,29.9,0,0.759,0,0,0,0.046, ,0,0,0,0,0, ,210,-220.3,766.7,-8.9,25.4,-9.1,25,123.407,-30.568,934.749,-35.4489,-12.1431,-9.13088,
2026_06_15_19_51_05.445,3.816,29.8,0,0.76,0,0,0,0.046, ,0,0,0,0,0, ,187.6,-246,738.1,-8.9,8.1,0.9,25,128.001,-42.9128,923.637,-33.8311,-10.3825,-8.82431,
2026_06_15_19_51_05.465,3.816,29.9,0,0.759,0,0,0,0.046, ,0,0,0,0,0, ,186.8,-284.1,714.3,-5.1,-8.1,13.8,25,131.609,-56.4493,911.606,-32.1961,-9.74977,-7.83868,
2026_06_15_19_51_05.485,3.816,30,0,0.759,0,0,0,0.046, ,0,0,0,0,0, ,171.2,-291.7,725,-8.9,-10.9,15.4,25,134.497,-70.5533,899.908,-30.6607,-9.73455,-6.47133,
2026_06_15_19_51_05.505,3.816,29.9,0,0.76,0,0,0,0.045, ,0,0,0,0,0, ,194.7,-272.2,716.4,-7.7,-1.3,4,25,137.449,-83.4353,888.988,-29.2981,-9.51307,-5.48589,
2026_06_15_19_51_05.525,3.816,30,0,0.759,0,0,0,0, ,0,0,0,0,0, ,215.5,-267.3,814.8,20,-4.4,10.9,25,141.572,-94.7889,881.469,-27.138,-9.10704,-4.69761,
2026_06_15_19_51_05.545,3.816,30,0,0.759,0,0,0,0, ,0,0,0,0,0, ,357.6,-294.5,801.2,26,10.1,-16.8,25,150.406,-106.13,876.992,-24.0827,-8.37841,-4.59111,
2026_06_15_19_51_05.564,3.816,30,0,0.759,0,0,0,0, ,0,0,0,0,0, ,210.9,-314.2,836.5,20.4,23.8,-5,25,158.562,-118.209,873.449,-21.2014,-6.83496,-4.97556,
2026_06_15_19_51_05.584,3.816,30.1,0,0.76,0,0,0,0, ,0,0,0,0,0, ,279.6,-255.6,888.3,13.4,18.3,12.5,25,163.845,-128.367,872.776,-18.8796,-5.13572,-4.44385,
2026_06_15_19_51_05.603,3.816,30.2,0,0.759,0,0,0,0, ,0,0,0,0,0, ,149.2,-274.6,833.6,2.4,16.2,13,25,166.926,-136.699,872.055,-17.2477,-3.77159,-3.3961,
2026_06_15_19_51_05.623,3.816,30.1,0,0.76,0,0,0,0, ,0,0,0,0,0, ,167.6,-214.1,966.6,3.8,9.8,-10.4,25,166.406,-143.259,873.764,-16.0078,-2.74957,-3.10993,
2026_06_15_19_51_05.643,3.816,30.2,0,0.759,0,0,0,0, ,0,0,0,0,0, ,256.1,-284.5,930.1,0,2.9,-16.2,25,169.175,-149.721,878.309,-14.9165,-2.19507,-3.73089,
2026_06_15_19_51_05.663,3.816,30.2,0,0.759,0,0,0,0, ,0,0,0,0,0, ,153.8,-168.8,855.7,-1.7,3.9,-11.5,25,171.355,-154.409,879.198,-14.0593,-1.85412,-4.34752,
2026_06_15_19_51_05.687,3.816,30.2,0,0.759,0,0,0,0, ,0,0,0,0,0, ,205.9,-239.7,928.4,-7.7,9,-34.8,25,171.873,-157.446,879.981,-13.489,-1.34809,-5.49329,
2026_06_15_19_51_05.702,3.816,30.2,0,0.761,0,0,0,0, ,0,0,0,0,0, ,339.2,-204.8,972,-27.1,17.6,-28.9,25,178.008,-161.395,884.26,-13.7273,-0.455468,-7.09941,
2026_06_15_19_51_05.723,3.816,30.2,0,0.758,0,0,0,0, ,0,0,0,0,0, ,260.2,-203.9,856.9,-24.1,12.8,-15.6,25,185.424,-164.012,886.1,-14.4508,0.498537,-8.02265,
2026_06_15_19_51_05.742,3.816,30.2,0,0.758,0,0,0,0, ,0,0,0,0,0, ,223.7,-187.2,831.5,-7.3,-1.2,-5.6,25,188.868,-165.934,883.547,-14.5269,0.821595,-8.1797,
2026_06_15_19_51_05.762,3.816,30.2,0,0.759,0,0,0,0, ,0,0,0,0,0, ,192.1,-205.2,864,1.8,-0.7,-3.3,25,190.028,-167.779,881.365,-13.8093,0.713639,-7.95242,
2026_06_15_19_51_05.782,3.816,30.2,0,0.757,0,0,0,0, ,0,0,0,0,0, ,220.3,-199.8,911,-2.5,18.1,-4.7,25,191.013,-169.894,881.739,-12.9891,1.20031,-7.71157,
2026_06_15_19_51_05.802,3.816,30.2,0,0.76,0,0,0,0, ,0,0,0,0,0, ,191.8,-193.8,887.8,-12.9,35.3,-4.5,25,191.93,-171.534,882.815,-12.6668,2.75419,-7.52196,
2026_06_15_19_51_05.822,3.816,30.2,0,0.759,0,0,0,0, ,0,0,0,0,0, ,212.5,-184.2,854.6,-13.8,43.4,-9.3,25,192.553,-172.598,882.108,-12.7084,4.98425,-7.48406,
2026_06_15_19_51_05.841,3.816,30.3,0,0.76,0,0,0,0, ,0,0,0,0,0, ,223.7,-170.4,864,-11.8,41.8,-7.6,25,194.109,-172.885,880.718,-12.714,7.27646,-7.54292,
2026_06_15_19_51_05.861,3.816,30.3,0,0.759,0,0,0,0, ,0,0,0,0,0, ,195.8,-180.6,887.2,-4.5,25.2,0,25,195.062,-173.044,880.406,-12.4359,8.87446,-7.31484,
2026_06_15_19_51_05.881,3.816,30.3,0,0.758,0,0,0,0, ,0,0,0,0,0, ,155,-227.5,889.5,4.2,8.9,1.7,25,193.864,-174.934,880.89,-11.6872,9.37265,-6.81729,
2026_06_15_19_51_05.901,3.816,30.3,0,0.76,0,0,0,0, ,0,0,0,0,0, ,189.8,-256.4,954.2,3.7,3.6,1.9,25,192.556,-179.017,883.386,-10.7343,9.18237,-6.29218,
2026_06_15_19_51_05.920,3.816,30.2,0,0.76,0,0,0,0, ,0,0,0,0,0, ,136.2,-239.8,973,-1.1,0.7,-0.4,25,190.755,-183.227,888.274,-10.001,8.75383,-5.86304,
2026_06_15_19_51_05.940,3.816,30.4,0,0.759,0,0,0,0, ,0,0,0,0,0, ,137.3,-231.2,961.4,-9.4,-1.8,-2.9,25,187.464,-186.413,893.084,-9.71147,8.18688,-5.60631,
2026_06_15_19_51_05.960,3.816,30.4,0,0.76,0,0,0,0, ,0,0,0,0,0, ,158.4,-232,870.6,-11.1,2.5,0.7,25,185.05,-189.166,894.48,-9.74429,7.70932,-5.33171,
2026_06_15_19_51_05.980,3.816,30.3,0,0.759,0,0,0,0, ,0,0,0,0,0, ,162.4,-217.8,891.2,-7.6,1,-3.2,25,183.548,-191.344,893.652,-9.72026,7.34617,-5.08298,
2026_06_15_19_51_06.000,3.816,30.3,0,0.76,0,0,0,0, ,0,0,0,0,0, ,178.8,-239.7,901.8,-5.6,-5.9,-1,25,182.759,-193.623,893.826,-9.53012,6.74922,-4.9012,
2026_06_15_19_51_06.020,3.816,30.3,0,0.76,0,0,0,0, ,0,0,0,0,0, ,179.5,-230.8,889.4,-3.1,-1.2,-0.7,25,182.539,-196.16,893.934,-9.21446,6.12161,-4.65433,
2026_06_15_19_51_06.039,3.816,30.2,0,0.759,0,0,0,0, ,0,0,0,0,0, ,144,-250,908.3,0.3,1,-0.5,25,181.272,-198.856,894.234,-8.73827,5.74248,-4.40727,
2026_06_15_19_51_06.059,3.816,30.3,0,0.758,0,0,0,0, ,0,0,0,0,0, ,153.6,-272.7,933.2,-3.1,-4.1,-1.6,25,179.294,-202.664,895.85,-8.29109,5.2981,-4.20269,
2026_06_15_19_51_06.079,3.816,30.3,0,0.759,0,0,0,0, ,0,0,0,0,0, ,178.4,-246.8,901.7,-5.4,-1,-0.9,25,178.483,-206.143,897.166,-8.04484,4.81985,-4.02276,
2026_06_15_19_51_06.098,3.816,30.4,0,0.759,0,0,0,0, ,0,0,0,0,0, ,183.5,-230.8,883.5,-3.6,4.2,-0.8,25,178.634,-208.133,896.888,-7.82882,4.62364,-3.82942,
2026_06_15_19_51_06.118,3.816,30.2,0,0.757,0,0,0,0, ,0,0,0,0,0, ,168.3,-223,913.8,0.2,2.2,-2.5,25,178.467,-209.276,896.995,-7.45535,4.53689,-3.69661,
2026_06_15_19_51_06.142,3.816,30.3,0,0.76,0,0,0,0, ,0,0,0,0,0, ,148,-253.6,922.4,1.8,-1.7,-1.7,25,177.229,-211.045,898.281,-6.9401,4.27566,-3.59932,
2026_06_15_19_51_06.158,3.816,30.3,0,0.76,0,0,0,0, ,0,0,0,0,0, ,172.4,-260,893,-0.1,3.8,-0.1,25,176.191,-213.833,898.855,-6.46539,4.07909,-3.43483,
2026_06_15_19_51_06.178,3.816,30.3,0,0.759,0,0,0,0, ,0,0,0,0,0, ,191.8,-246.5,877.8,2.3,10.6,-5.8,25,176.551,-216.235,898.035,-6.00437,4.26927,-3.40528,
2026_06_15_19_51_06.198,3.816,30.4,0,0.759,0,0,0,0, ,0,0,0,0,0, ,193.2,-223.9,923.2,-0.2,1.4,2.5,25,177.523,-217.391,898.185,-5.5745,4.37474,-3.29832,
2026_06_15_19_51_06.218,3.816,30.4,0,0.76,0,0,0,0, ,0,0,0,0,0, ,185.1,-217.1,914.3,2.7,-9,3.2,25,178.232,-217.58,899.438,-5.15863,3.87659,-2.92366,
2026_06_15_19_51_06.237,3.816,30.4,0,0.759,0,0,0,0, ,0,0,0,0,0, ,152.4,-236.4,854.9,4.7,-10.3,7.3,25,177.654,-218.139,898.534,-4.61881,3.05232,-2.42558,
2026_06_15_19_51_06.257,3.816,30.3,0,0.757,0,0,0,0, ,0,0,0,0,0, ,145,-274.5,816.5,5.6,-3.4,5.2,25,175.89,-220.413,894.705,-4.02352,2.44889,-1.89691,
2026_06_15_19_51_06.277,3.816,30.3,0,0.758,0,0,0,0, ,0,0,0,0,0, ,118.6,-281.4,773.6,8.8,2.3,1,25,173.203,-223.919,888.633,-3.33959,2.26615,-1.59241,
2026_06_15_19_51_06.297,3.816,30.4,0,0.759,0,0,0,0, ,0,0,0,0,0, ,133.7,-239.5,791.9,7.2,-4.9,2.3,25,170.336,-226.145,882.18,-2.64858,2.04884,-1.39482,
2026_06_15_19_51_06.317,3.816,30.3,0,0.759,0,0,0,0, ,0,0,0,0,0, ,144.6,-203.9,818.9,6.7,-4.1,2.9,25,168.435,-225.874,877.502,-2.06367,1.64977,-1.15139,
2026_06_15_19_51_06.336,3.816,30.3,0,0.759,0,0,0,0, ,0,0,0,0,0, ,124.5,-236,782.4,11.2,1.5,6.5,25,166.37,-225.513,872.818,-1.39252,1.47002,-0.794821,
2026_06_15_19_51_06.361,3.816,30.3,0,0.759,0,0,0,0, ,0,0,0,0,0, ,125.7,-303.5,779.1,16.6,1.5,6.5,25,163.855,-228.209,867.208,-0.460635,1.47184,-0.350293,
2026_06_15_19_51_06.378,3.816,30.4,0,0.759,0,0,0,0, ,0,0,0,0,0, ,133,-294.1,803.4,16.6,1.8,-2.3,25,161.753,-232.51,862.579,0.578997,1.4827,-0.200978,
2026_06_15_19_51_06.396,3.816,30.3,0,0.76,0,0,0,0, ,0,0,0,0,0, ,138,-221.6,775.2,11.8,8,-6.2,25,160.153,-234.055,858.114,1.40903,1.69094,-0.447716,
2026_06_15_19_51_06.415,3.816,30.4,0,0.759,0,0,0,0, ,0,0,0,0,0, ,132.8,-179.6,749.2,18.5,-4.8,0,25,158.645,-232.016,852.269,2.24637,1.6854,-0.609339,
2026_06_15_19_51_06.435,3.816,30.3,0,0.76,0,0,0,0, ,0,0,0,0,0, ,110.1,-245.3,754.8,22.7,-4.2,-7.1,25,156.378,-230.824,846.159,3.36479,1.30848,-0.788536,
2026_06_15_19_51_06.455,3.816,30.3,0,0.757,0,0,0,0, ,0,0,0,0,0, ,125.3,-316.1,807.3,21.7,8,-11.9,25,154.021,-233.863,842.191,4.51256,1.34452,-1.31939,
2026_06_15_19_51_06.475,3.816,30.3,0,0.759,0,0,0,0, ,0,0,0,0,0, ,128.7,-242.5,855.7,15.8,9.2,-14.3,25,152.375,-236.632,841.54,5.38016,1.78665,-2.03727,
2026_06_15_19_51_06.494,3.816,30.3,0,0.759,0,0,0,0, ,0,0,0,0,0, ,210.6,-89.3,882.3,6.4,7.7,-10.6,25,153.427,-232.322,843.213,5.72871,2.1927,-2.6718,
2026_06_15_19_51_06.514,3.816,30.4,0,0.76,0,0,0,0, ,0,0,0,0,0, ,144.1,-104.6,779.9,11.6,21.3,-14.7,25,154.885,-224.072,842.475,5.92805,2.94268,-3.27984,
2026_06_15_19_51_06.534,3.816,30.4,0,0.757,0,0,0,0, ,0,0,0,0,0, ,126.7,-175.7,749.7,16.6,21.2,-16.1,25,153.698,-218.958,837.742,6.42603,4.05828,-4.01842,
2026_06_15_19_51_06.554,3.816,30.3,0,0.757,0,0,0,0, ,0,0,0,0,0, ,121.2,-185.5,759.5,27.6,11.7,-11.8,25,151.885,-216.621,832.675,7.38116,4.8134,-4.62362,
2026_06_15_19_51_06.574,3.816,30.3,0,0.756,0,0,0,0, ,0,0,0,0,0, ,170.7,-56.6,882.9,31.6,6.3,-4.2,25,151.523,-210.797,831.976,8.73512,5.06852,-4.82937,
2026_06_15_19_51_06.595,3.816,30.4,0,0.757,0,0,0,0, ,0,0,0,0,0, ,66.4,-27,943.3,35.3,-0.9,4.5,25,149.514,-200.499,836.92,10.2412,4.92419,-4.52594,
2026_06_15_19_51_06.613,3.816,30.4,0,0.759,0,0,0,0, ,0,0,0,0,0, ,-76.6,-176.1,896.9,27.4,-11.7,-5,25,140.092,-194.469,841.988,11.5275,4.24021,-4.26537,
2026_06_15_19_51_06.633,3.816,30.3,0,0.759,0,0,0,0, ,0,0,0,0,0, ,91.3,-255.4,875.4,15.3,-1.3,-18.2,25,132.003,-195.766,844.679,12.1261,3.58573,-4.71233,
2026_06_15_19_51_06.653,3.816,30.3,0,0.756,0,0,0,0, ,0,0,0,0,0, ,217.2,-42.8,909,13.2,12.9,-13.7,25,133.359,-192.922,847.575,12.2555,3.72066,-5.39712,
2026_06_15_19_51_06.673,3.816,30.4,0,0.757,0,0,0,0, ,0,0,0,0,0, ,163.6,58.3,953,24.6,5.2,3.4,25,136.835,-180.694,852.659,12.6604,4.04542,-5.38206,
2026_06_15_19_51_06.693,3.816,30.3,0,0.759,0,0,0,0, ,0,0,0,0,0, ,20.6,25.6,1015.3,23.5,-8.4,10.9,25,134.109,-167.126,860.672,13.3544,3.7014,-4.61839,
2026_06_15_19_51_06.713,3.816,30.4,0,0.759,0,0,0,0, ,0,0,0,0,0, ,-9,-156.1,930.1,14.9,-5.7,-2.7,25,126.29,-160.918,867.498,13.7107,3.04624,-4.08711,
2026_06_15_19_51_06.732,3.816,30.4,0,0.758,0,0,0,0, ,0,0,0,0,0, ,161.1,-196.2,935.6,11.2,17.5,-12.7,25,123.228,-161.846,871.481,13.6704,3.22014,-4.30728,
2026_06_15_19_51_06.753,3.816,30.3,0,0.757,0,0,0,0, ,0,0,0,0,0, ,225.3,-8.7,985.4,20.1,35.5,-12.3,25,127.492,-158.227,876.905,13.791,4.63876,-4.80652,
2026_06_15_19_51_06.772,3.816,30.3,0,0.759,0,0,0,0, ,0,0,0,0,0, ,190.3,109,1115.6,1.2,25.5,-9,25,132.386,-145.529,887.484,13.5996,6.21468,-5.16261,
2026_06_15_19_51_06.792,3.816,30.3,0,0.757,0,0,0,0, ,0,0,0,0,0, ,104,80.6,1110.3,18.3,20.4,17.5,25,133.286,-130.884,901.223,13.365,7.23449,-4.58903,
2026_06_15_19_51_06.811,3.816,30.4,0,0.756,0,0,0,0, ,0,0,0,0,0, ,10,-93.6,974.8,23,19.4,4,25,128.637,-123.304,909.835,13.809,8.00629,-3.6543,
2026_06_15_19_51_06.832,3.816,30.3,0,0.758,0,0,0,0, ,0,0,0,0,0, ,27.8,-97.2,1021.8,29.2,16.1,-6.2,25,121.95,-121.604,915.226,14.558,8.60005,-3.49865,
2026_06_15_19_51_06.851,3.816,30.5,0,0.757,0,0,0,0, ,0,0,0,0,0, ,56.3,-10,1185.6,21.2,23.2,-11.6,25,117.081,-117.46,926.711,15.2065,9.2734,-3.8278,
2026_06_15_19_51_06.871,3.816,30.3,0,0.757,0,0,0,0, ,0,0,0,0,0, ,41.6,18.7,1265.9,1.5,32,-1.9,25,112.929,-110.037,944.934,14.9714,10.3902,-4.00587,
2026_06_15_19_51_06.891,3.816,30.3,0,0.757,0,0,0,0, ,0,0,0,0,0, ,-13.4,-1.7,1139,-9.1,22.1,7.2,25,106.907,-102.814,960.626,13.8276,11.4054,-3.60028,
2026_06_15_19_51_06.911,3.816,30.3,0,0.757,0,0,0,0, ,0,0,0,0,0, ,-75,-62.5,949.3,3.8,4.6,6.1,25,97.6989,-98.5047,965.716,12.8235,11.5239,-2.97565,
2026_06_15_19_51_06.931,3.816,30.2,0,0.758,0,0,0,0, ,0,0,0,0,0, ,-38.8,-57,1045.2,21.1,0,-1.4,25,88.278,-96.143,967.638,12.8007,10.9618,-2.65112,
2026_06_15_19_51_06.951,3.816,30.4,0,0.756,0,0,0,0, ,0,0,0,0,0, ,38.9,-33,1209.4,5.2,13.9,-9.3,25,82.9016,-93.0265,977.367,12.822,10.7173,-2.81558,
2026_06_15_19_51_06.970,3.816,30.4,0,0.758,0,0,0,0, ,0,0,0,0,0, ,18.9,-19.4,1221.9,-17.2,27.9,5.7,25,79.6109,-88.9543,991.887,11.675,11.3378,-2.75369,
2026_06_15_19_51_06.990,3.816,30.3,0,0.756,0,0,0,0, ,0,0,0,0,0, ,17,-16.7,995.9,-33.8,17.9,12.6,25,75.8534,-84.6335,999.018,9.40967,12.0424,-2.02831,
2026_06_15_19_51_07.009,3.816,30.3,0,0.759,0,0,0,0, ,0,0,0,0,0, ,-57.6,10.4,757.5,-8,7.4,28.1,25,69.9941,-79.6681,991.564,7.56268,12.0794,-0.664634,
2026_06_15_19_51_07.029,3.816,30.3,0,0.757,0,0,0,0, ,0,0,0,0,0, ,-80.5,2.6,843.3,24.7,5.6,5.6,25,61.5211,-74.4173,979.915,7.61065,11.7394,0.402664,
2026_06_15_19_51_07.049,3.816,30.2,0,0.756,0,0,0,0, ,0,0,0,0,0, ,25.5,-32.7,1040.6,28.3,6.2,-5.7,25,56.0964,-70.7996,977.602,8.76172,11.3836,0.375079,
2026_06_15_19_51_07.072,3.816,30.4,0,0.757,0,0,0,0, ,0,0,0,0,0, ,23.5,-63.8,1044.5,15.9,14.8,2.9,25,54.171,-69.4255,981.559,9.57452,11.3298,0.266911,
2026_06_15_19_51_07.090,3.816,30.3,0,0.758,0,0,0,0, ,0,0,0,0,0, ,5.7,-40.5,1019.4,19.4,13.5,-1.9,25,51.7596,-68.3727,984.63,10.0666,11.5016,0.281114,
2026_06_15_19_51_07.109,3.816,30.3,0,0.758,0,0,0,0, ,0,0,0,0,0, ,-40.1,7.9,1043.7,30.7,-13.7,-4.3,25,47.5574,-65.1996,987.489,10.9797,10.7946,0.0750778,
2026_06_15_19_51_07.129,3.816,30.4,0,0.757,0,0,0,0, ,0,0,0,0,0, ,-15.7,4.7,1119.7,30.1,-16.2,0.4,25,42.9592,-60.8426,993.23,12.1631,9.22583,-0.0483254,
2026_06_15_19_51_07.149,3.816,30.3,0,0.759,0,0,0,0, ,0,0,0,0,0, ,1,-64,1182.7,16,9.6,0.7,25,39.8935,-58.9418,1002.86,12.8265,8.46253,-0.0118649,
2026_06_15_19_51_07.168,3.816,30.4,0,0.759,0,0,0,0, ,0,0,0,0,0, ,48.9,59.6,1165.4,-8.4,20.3,-2,25,38.9829,-55.4841,1013.29,12.2765,8.85786,-0.0507513,
2026_06_15_19_51_07.188,3.816,30.2,0,0.758,0,0,0,0, ,0,0,0,0,0, ,78.9,75.5,1188.3,31.3,18.8,5.2,25,40.5012,-47.9867,1023.26,12.2261,9.50942,0.0498414,
2026_06_15_19_51_07.208,3.816,30.3,0,0.757,0,0,0,0, ,0,0,0,0,0, ,-14.5,36.8,1181,40.7,-11.9,-8,25,39.9954,-41.6408,1033.09,13.6748,9.14017,-0.0385083,
2026_06_15_19_51_07.227,3.816,30.3,0,0.758,0,0,0,0, ,0,0,0,0,0, ,-17,33,1217.6,42,-20.2,-7.5,25,36.5984,-36.9766,1043.22,15.3613,7.60514,-0.508427,
2026_06_15_19_51_07.247,3.816,30.3,0,0.757,0,0,0,0, ,0,0,0,0,0, ,37.5,-29.4,1272.2,26.4,-3.2,-2,25,34.9928,-34.6137,1055.51,16.5093,6.42874,-0.766898,
2026_06_15_19_51_07.267,3.816,30.3,0,0.758,0,0,0,0, ,0,0,0,0,0, ,56.3,-3.2,1276.1,14.2,33.5,7.5,25,35.7184,-33.4977,1068.83,16.7403,6.96019,-0.552587,
2026_06_15_19_51_07.287,3.816,30.3,0,0.758,0,0,0,0, ,0,0,0,0,0, ,9.5,1.3,1216.7,28.9,38.1,9.7,25,35.5466,-31.5143,1079.65,17.0334,8.71761,0.00514856,
2026_06_15_19_51_07.307,3.816,30.3,0,0.759,0,0,0,0, ,0,0,0,0,0, ,-57.1,27.3,1157.7,43.1,8.6,10.2,25,31.9302,-28.7225,1086.21,18.1891,9.60928,0.611163,
2026_06_15_19_51_07.334,3.816,30.3,0,0.759,0,0,0,0, ,0,0,0,0,0, ,-127.9,88.7,1125.2,33.8,-8.7,-3.6,25,24.3477,-23.4379,1089.57,19.4238,9.02066,0.775014,
2026_06_15_19_51_07.347,3.816,30.3,0,0.757,0,0,0,0, ,0,0,0,0,0, ,0.2,33,1162.8,37.3,1.9,-9.9,25,18.9732,-18.3016,1092.89,20.4065,8.26378,0.316458,
2026_06_15_19_51_07.367,3.816,30.3,0,0.759,0,0,0,0, ,0,0,0,0,0, ,-65.5,30.8,1159.7,33.8,7.9,-33.7,25,15.8274,-15.2424,1097.06,21.3293,8.0588,-1.03126,
2026_06_15_19_51_07.386,3.816,30.3,0,0.758,0,0,0,0, ,0,0,0,0,0, ,-30.3,-4.6,1323.2,53.5,-3.8,-21.4,25,11.944,-13.5153,1105.85,22.6895,7.69264,-2.64725,
2026_06_15_19_51_07.406,3.816,30.3,0,0.759,0,0,0,0, ,0,0,0,0,0, ,-133.6,76.1,1331.4,11.9,-92.3,-10.1,25,6.22235,-10.5132,1119.35,23.2995,4.29582,-3.4457,
2026_06_15_19_51_07.426,3.816,30.2,0,0.756,0,0,0,0, ,0,0,0,0,0, ,35.4,121.8,1011.5,-2.1,-47.4,14.1,25,2.85115,-3.84278,1122.52,22.1783,-0.222439,-3.11385,
2026_06_15_19_51_07.446,3.816,30.3,0,0.759,0,0,0,0, ,0,0,0,0,0, ,30.1,98,982.4,-17.4,8.9,-9.6,25,4.67311,3.08842,1114.87,20.2326,-1.38193,-2.78699,
2026_06_15_19_51_07.465,3.816,30.3,0,0.759,0,0,0,0, ,0,0,0,0,0, ,-38.4,72.5,964.2,-1.1,-0.4,-5.2,25,4.13545,8.09514,1106.24,18.436,-1.03874,-3.0681,
2026_06_15_19_51_07.485,3.816,30.2,0,0.758,0,0,0,0, ,0,0,0,0,0, ,-14.5,97.7,964.2,4,-34.1,-5.9,25,2.27165,12.7876,1097.59,17.4009,-2.02661,-3.21934,
2026_06_15_19_51_07.505,3.816,30.3,0,0.759,0,0,0,0, ,0,0,0,0,0, ,107.4,138.7,1043.3,-7.1,-21.8,-3.2,25,4.96377,19.2112,1091.87,16.2461,-3.60632,-3.30042,
2026_06_15_19_51_07.525,3.816,30.3,0,0.758,0,0,0,0, ,0,0,0,0,0, ,42.1,124.6,952.1,-5.8,16.9,-8.1,25,9.21637,26.0629,1086.13,14.8631,-3.53585,-3.4436,
2026_06_15_19_51_07.545,3.816,30.3,0,0.756,0,0,0,0, ,0,0,0,0,0, ,82.5,142.5,1019.1,0,16,-13.4,25,12.4511,32.6129,1080.01,13.7806,-2.31796,-3.88884,
2026_06_15_19_51_07.564,3.816,30.3,0,0.757,0,0,0,0, ,0,0,0,0,0, ,54.8,112,1001.9,5.1,-0.9,-7,25,15.8758,38.3799,1075.77,13.0963,-1.71664,-4.27342,
2026_06_15_19_51_07.587,3.816,30.3,0,0.759,0,0,0,0, ,0,0,0,0,0, ,35.6,111,993.6,3.6,-6.4,-5.4,25,17.6627,42.8356,1071.02,12.5633,-1.83445,-4.39082,
2026_06_15_19_51_07.605,3.816,30.3,0,0.758,0,0,0,0, ,0,0,0,0,0, ,67.1,133.5,999.5,1.6,4.3,-4.9,25,19.7155,47.6749,1066.48,11.9562,-1.78665,-4.43708,
2026_06_15_19_51_07.624,3.816,30.2,0,0.758,0,0,0,0, ,0,0,0,0,0, ,58.7,129.8,990.1,1.9,10.2,-3.1,25,22.3471,52.7922,1062.11,11.3342,-1.23598,-4.41045,
2026_06_15_19_51_07.644,3.816,30.3,0,0.757,0,0,0,0, ,0,0,0,0,0, ,28.6,116,997.9,0.6,11,-1.1,25,23.6452,57.0644,1057.96,10.7197,-0.514722,-4.26966,
2026_06_15_19_51_07.664,3.816,30.2,0,0.758,0,0,0,0, ,0,0,0,0,0, ,0.3,107.1,999.1,-1.8,10.7,0.1,25,23.0849,60.3846,1054.34,10.0299,0.177815,-4.03994,
2026_06_15_19_51_07.683,3.816,30.2,0,0.758,0,0,0,0, ,0,0,0,0,0, ,12.4,121.4,991.6,-2.2,6.9,0,25,22.0651,63.667,1050.74,9.29684,0.70323,-3.79071,
2026_06_15_19_51_07.703,3.816,30.3,0,0.758,0,0,0,0, ,0,0,0,0,0, ,9.2,123.6,1001.7,-1.6,8.7,-1.8,25,21.3786,67.2521,1047.45,8.61454,1.13569,-3.61456,
2026_06_15_19_51_07.723,3.816,30.2,0,0.759,0,0,0,0, ,0,0,0,0,0, ,-0.6,117.9,996.4,-1.6,6.2,-2.5,25,20.3379,70.5122,1044.5,7.99209,1.52047,-3.52531,
2026_06_15_19_51_07.743,3.816,30.3,0,0.756,0,0,0,0, ,0,0,0,0,0, ,11.7,124.7,997.1,-0.4,5.3,-3.1,25,19.4368,73.6071,1041.59,7.44413,1.7782,-3.48111,
2026_06_15_19_51_07.762,3.816,30.3,0,0.759,0,0,0,0, ,0,0,0,0,0, ,3.6,123,993.7,0.7,9.4,-3.3,25,18.7185,76.6687,1038.77,6.99965,2.11774,-3.46398,
2026_06_15_19_51_07.782,3.816,30.3,0,0.759,0,0,0,0, ,0,0,0,0,0, ,-13.5,119.5,1000.6,0,8.2,-4.1,25,17.2762,79.3854,1036.24,6.59443,2.52494,-3.47837,
2026_06_15_19_51_07.802,3.816,30.2,0,0.758,0,0,0,0, ,0,0,0,0,0, ,-11.1,117,998.5,0,1.6,-3.8,25,15.4739,81.7537,1034,6.19258,2.66967,-3.50711,
2026_06_15_19_51_07.822,3.816,30.3,0,0.758,0,0,0,0, ,0,0,0,0,0, ,3.9,116.3,992.1,-0.6,5.3,-2.9,25,14.3116,83.8802,1031.64,5.79694,2.71722,-3.49753,
2026_06_15_19_51_07.842,3.816,30.2,0,0.758,0,0,0,0, ,0,0,0,0,0, ,-10.9,113.6,997,-0.9,4.9,-2.7,25,13.2262,85.7735,1029.38,5.39799,2.86242,-3.45503,
2026_06_15_19_51_07.861,3.816,30.2,0,0.758,0,0,0,0, ,0,0,0,0,0, ,-24.9,118.6,1003.1,-1.8,2.1,-2.5,25,11.3295,87.6215,1027.59,4.98678,2.90127,-3.40292,
2026_06_15_19_51_07.881,3.816,30.3,0,0.758,0,0,0,0, ,0,0,0,0,0, ,-8,127.8,994.9,-1.9,0.2,-4.6,25,9.63664,89.7896,1025.85,4.57017,2.79455,-3.41189,
2026_06_15_19_51_07.901,3.816,30.3,0,0.758,0,0,0,0, ,0,0,0,0,0, ,24.6,121.8,1006.5,0.3,6,-2.5,25,9.55519,91.923,1024.32,4.24292,2.81317,-3.4203,
2026_06_15_19_51_07.921,3.816,30.3,0,0.761,0,0,0,0, ,0,0,0,0,0, ,-6.1,130.2,1000.8,-0.2,6.9,-2.2,25,9.5366,93.9996,1023.06,3.98742,3.03479,-3.35508,
2026_06_15_19_51_07.941,3.816,30.2,0,0.758,0,0,0,0, ,0,0,0,0,0, ,-15.5,121.9,998,0.2,2.7,-1.2,25,8.29733,95.9527,1021.62,3.74443,3.14235,-3.25422,
2026_06_15_19_51_07.962,3.816,30.3,0,0.757,0,0,0,0, ,0,0,0,0,0, ,-22.2,120.2,995.4,0.7,2.7,-1.8,25,6.64304,97.4821,1020.1,3.54368,3.1154,-3.14733,
2026_06_15_19_51_07.981,3.816,30.2,0,0.757,0,0,0,0, ,0,0,0,0,0, ,-27.8,116.2,997.5,1.8,2.3,-2.9,25,4.7148,98.7446,1018.66,3.40391,3.0779,-3.09874,
2026_06_15_19_51_08.001,3.816,30.2,0,0.759,0,0,0,0, ,0,0,0,0,0, ,-6.8,111.2,1005.8,1.1,2.1,-2,25,3.37327,99.6559,1017.62,3.28484,3.0244,-3.05921,
2026_06_15_19_51_08.020,3.816,30.2,0,0.758,0,0,0,0, ,0,0,0,0,0, ,-19.6,115.8,994.9,-0.6,0.5,-2.5,25,2.36334,100.5,1016.57,3.09991,2.91932,-3.0099,
2026_06_15_19_51_08.040,3.816,30.1,0,0.758,0,0,0,0, ,0,0,0,0,0, ,-30.7,121.2,999.6,-0.3,0.3,-4,25,0.686742,101.596,1015.39,2.88358,2.7658,-3.02453,
2026_06_15_19_51_08.060,3.816,30.2,0,0.757,0,0,0,0, ,0,0,0,0,0, ,-20.7,114.6,987.5,3.7,2,-5.1,25,-0.9212,102.59,1014.06,2.81146,2.66734,-3.11749,
2026_06_15_19_51_08.080,3.816,30.3,0,0.759,0,0,0,0, ,0,0,0,0,0, ,-43.2,130.7,976.1,0.3,4.7,-6.1,25,-2.81202,103.812,1012.1,2.76201,2.70894,-3.26876,
2026_06_15_19_51_08.099,3.816,30.2,0,0.757,0,0,0,0, ,0,0,0,0,0, ,7.8,156,1001.3,-2.1,10,-6.7,25,-3.71925,106.222,1010.67,2.53886,2.99175,-3.45957,
2026_06_15_19_51_08.119,3.816,30.2,0,0.757,0,0,0,0, ,0,0,0,0,0, ,-6.4,140.1,1006.7,0.8,-1,-3.4,25,-3.44996,108.771,1010.26,2.34454,3.08366,-3.55649,
2026_06_15_19_51_08.138,3.816,30.2,0,0.758,0,0,0,0, ,0,0,0,0,0, ,-7.3,126.2,992.4,0.8,2.3,-3,25,-3.65715,110.256,1009.61,2.25042,2.93536,-3.53477,
2026_06_15_19_51_08.158,3.816,30,0,0.757,0,0,0,0, ,0,0,0,0,0, ,-32.1,118.2,994.5,0.5,5.1,-3,25,-4.63476,110.984,1008.63,2.15289,2.98195,-3.50218,
2026_06_15_19_51_08.179,3.816,30.3,0,0.757,0,0,0,0, ,0,0,0,0,0, ,-34.4,122.3,998.5,-1.5,3.2,-3.1,25,-6.3785,111.549,1007.89,1.99123,3.05313,-3.47462,
2026_06_15_19_51_08.199,3.816,30.2,0,0.759,0,0,0,0, ,0,0,0,0,0, ,-3,127.5,1009.8,0.4,6.6,-0.8,25,-7.12934,112.362,1007.66,1.83637,3.16568,-3.38172,
2026_06_15_19_51_08.218,3.816,30.2,0,0.757,0,0,0,0, ,0,0,0,0,0, ,-34.7,121.7,995.9,-0.6,2.9,-1.2,25,-7.84357,113.108,1007.37,1.71838,3.26222,-3.23658,
2026_06_15_19_51_08.238,3.816,30.1,0,0.759,0,0,0,0, ,0,0,0,0,0, ,-45.4,124,1000.4,-1.4,3.2,-2.5,25,-9.80615,113.702,1006.8,1.55272,3.24929,-3.15209,
2026_06_15_19_51_08.258,3.816,30.2,0,0.759,0,0,0,0, ,0,0,0,0,0, ,-47.8,123.6,1015.2,-5,1,-3.8,25,-12.0483,114.317,1006.87,1.26311,3.17925,-3.15196,
2026_06_15_19_51_08.279,3.816,30.1,0,0.759,0,0,0,0, ,0,0,0,0,0, ,-14.1,132.9,1020.1,-7.5,2.9,-1.6,25,-13.2001,115.166,1007.52,0.805276,3.10435,-3.12442,
2026_06_15_19_51_08.298,3.816,30.1,0,0.755,0,0,0,0, ,0,0,0,0,0, ,15.8,150.8,1056.7,-10.6,24,-1.6,25,-12.3439,116.792,1009.4,0.20472,3.73478,-3.03152,
2026_06_15_19_51_08.318,3.816,30.1,0,0.757,0,0,0,0, ,0,0,0,0,0, ,-29.7,130.7,1092,-20.1,55.1,-2.8,25,-12.0152,118.252,1013.36,-0.743146,5.91727,-2.98085,
2026_06_15_19_51_08.337,3.816,30.2,0,0.758,0,0,0,0, ,0,0,0,0,0, ,-82.2,156.2,1163.4,-22.8,69.4,-0.1,25,-14.6925,119.788,1020.33,-2.00497,9.35005,-2.88757,
2026_06_15_19_51_08.357,3.816,30,0,0.76,0,0,0,0, ,0,0,0,0,0, ,-135.8,99.7,1305.1,-21.8,28.3,-7.4,25,-20.4394,120.285,1033.36,-3.2417,11.7571,-2.94012,
2026_06_15_19_51_08.376,3.816,30.1,0,0.756,0,0,0,0, ,0,0,0,0,0, ,-114.8,93.9,1279.6,-31.8,-8.3,-0.8,25,-26.8293,118.854,1049.15,-4.67728,11.65,-3.0108,
2026_06_15_19_51_08.398,3.816,30.2,0,0.759,0,0,0,0, ,0,0,0,0,0, ,-110.9,94.7,1292.1,-44.3,1.8,2.9,25,-32.0712,117.358,1063.57,-6.71093,10.742,-2.76335,
2026_06_15_19_51_08.421,3.816,30.1,0,0.756,0,0,0,0, ,0,0,0,0,0, ,-27.5,70.3,1312,-48.5,25.1,5.3,25,-34.3337,115.233,1078.1,-9.12948,10.9071,-2.34511,
2026_06_15_19_51_08.442,3.816,30.1,0,0.759,0,0,0,0, ,0,0,0,0,0, ,-65.4,52.9,1256.9,-40.2,29.2,11.2,25,-35.0721,111.965,1090.68,-11.2757,11.8969,-1.69947,
2026_06_15_19_51_08.456,3.816,30,0,0.757,0,0,0,0, ,0,0,0,0,0, ,-130.8,38.3,1187.7,-24.1,15.6,4.6,25,-38.9128,107.921,1098.7,-12.5478,12.5369,-1.1145,
2026_06_15_19_51_08.478,3.816,30,0,0.759,0,0,0,0, ,0,0,0,0,0, ,-136.1,29.2,1166.5,-12.5,9.6,2,25,-44.6737,103.401,1103.48,-12.8983,12.5407,-0.845495,
2026_06_15_19_51_08.495,3.816,30,0,0.757,0,0,0,0, ,0,0,0,0,0, ,-116.9,37.2,1222.6,-7.5,16.3,3.4,25,-49.66,99.1234,1109.03,-12.7217,12.5657,-0.629442,
2026_06_15_19_51_08.516,3.816,30.1,0,0.756,0,0,0,0, ,0,0,0,0,0, ,-158.8,0.6,1282.5,-8.3,8.6,2.5,25,-55.0341,94.2347,1117.77,-12.4279,12.5586,-0.411319,
2026_06_15_19_51_08.535,3.816,30,0,0.758,0,0,0,0, ,0,0,0,0,0, ,-210.5,-4.7,1261.9,-11.1,-15.8,-3.1,25,-62.9325,88.3674,1127.18,-12.2616,11.574,-0.404536,
2026_06_15_19_51_08.555,3.816,30,0,0.756,0,0,0,0, ,0,0,0,0,0, ,-196.1,9.7,1222,-13.7,-26.8,-9,25,-71.4862,83.1348,1134.18,-12.2701,9.5707,-0.748556,
2026_06_15_19_51_08.575,3.816,30,0,0.759,0,0,0,0, ,0,0,0,0,0, ,-149.9,5.4,1236.2,-17.7,-13.1,-7.5,25,-77.6722,78.5289,1139.96,-12.4791,7.77179,-1.20568,
2026_06_15_19_51_08.596,3.816,30.1,0,0.757,0,0,0,0, ,0,0,0,0,0, ,-141.6,-1.7,1242.4,-21.8,-4.7,-8.1,25,-81.8207,73.8563,1146.01,-12.9221,6.75585,-1.60752,
2026_06_15_19_51_08.614,3.816,30,0,0.757,0,0,0,0, ,0,0,0,0,0, ,-187.7,0.8,1179.6,-20.5,-18.7,-7.2,25,-86.8681,69.3282,1149.97,-13.4235,5.6312,-1.97573,
2026_06_15_19_51_08.635,3.816,30.1,0,0.756,0,0,0,0, ,0,0,0,0,0, ,-172.1,7.6,1153.6,-17.2,-35.8,-12.1,25,-92.5372,65.3595,1150.99,-13.7542,3.6275,-2.44338,
2026_06_15_19_51_08.654,3.816,30.1,0,0.759,0,0,0,0, ,0,0,0,0,0, ,-167.8,-16.1,1132.4,-22.9,-31.6,-10.9,25,-97.2545,61.1177,1150.5,-14.1379,1.35285,-2.99527,
2026_06_15_19_51_08.674,3.816,30.1,0,0.758,0,0,0,0, ,0,0,0,0,0, ,-155,2.3,1099.7,-31.9,-4.8,-10.7,25,-101.163,56.9728,1148.4,-14.946,0.161353,-3.47087,
2026_06_15_19_51_08.694,3.816,30.1,0,0.757,0,0,0,0, ,0,0,0,0,0, ,-131.7,7,1100,-33.9,2.8,-8.7,25,-103.734,53.7844,1145.44,-16.0401,0.0905829,-3.85046,
2026_06_15_19_51_08.716,3.816,30.1,0,0.757,0,0,0,0, ,0,0,0,0,0, ,-123.5,-6.4,1084.3,-32,-3,-3.3,25,-105.188,50.5252,1142.19,-17.0705,0.0789693,-3.98145,
2026_06_15_19_51_08.737,3.816,30.1,0,0.76,0,0,0,0, ,0,0,0,0,0, ,-160,-16.4,1021.4,-23,-13,-5.7,25,-107.416,46.7516,1136.75,-17.7061,-0.413343,-4.01304,
2026_06_15_19_51_08.756,3.816,30,0,0.757,0,0,0,0, ,0,0,0,0,0, ,-177.1,-102.4,945,-32.3,-14.2,-12.6,25,-111.142,40.283,1127.39,-18.312,-1.2169,-4.32608,
2026_06_15_19_51_08.773,3.816,30,0,0.757,0,0,0,0, ,0,0,0,0,0, ,-155.2,-79.9,1013.3,-18.4,0.8,-11.2,25,-114.494,32.2738,1118.36,-18.7409,-1.55103,-4.78761,
2026_06_15_19_51_08.795,3.816,30,0,0.759,0,0,0,0, ,0,0,0,0,0, ,-140.1,-76.9,993.8,-21.8,5.6,-16.4,25,-116.514,25.5296,1111.36,-18.8237,-1.26151,-5.33681,
2026_06_15_19_51_08.813,3.816,30,0,0.759,0,0,0,0, ,0,0,0,0,0, ,-127.3,-65.5,992.9,-19.6,4.8,-15.7,25,-117.562,19.6352,1104.17,-18.9381,-0.867766,-5.98964,
2026_06_15_19_51_08.835,3.816,30.1,0,0.757,0,0,0,0, ,0,0,0,0,0, ,-151.1,-86.9,992.9,-24.4,-6.1,-12.6,25,-118.88,13.7952,1097.39,-19.1247,-0.854496,-6.48691,
2026_06_15_19_51_08.853,3.816,30,0,0.757,0,0,0,0, ,0,0,0,0,0, ,-150.8,-104.6,964.9,-34.5,-16.9,-15.2,25,-120.834,7.11981,1090.17,-19.7539,-1.50321,-6.93865,
2026_06_15_19_51_08.874,3.816,30,0,0.758,0,0,0,0, ,0,0,0,0,0, ,-98.5,-104.8,934.9,-43.9,-18.3,-15.1,25,-121.067,0.30579,1081.62,-20.9389,-2.4841,-7.43903,
2026_06_15_19_51_08.892,3.816,30,0,0.757,0,0,0,0, ,0,0,0,0,0, ,-60,-99.7,870.7,-46.2,-5,-21.8,25,-118.519,-5.9437,1070.73,-22.4081,-3.04265,-8.11001,
2026_06_15_19_51_08.914,3.816,30,0,0.757,0,0,0,0, ,0,0,0,0,0, ,-26.6,-62.8,804.5,-38.1,-6.4,-23.7,25,-113.935,-10.5327,1056.52,-23.6111,-3.20458,-9.00213,
2026_06_15_19_51_08.931,3.816,30,0,0.757,0,0,0,0, ,0,0,0,0,0, ,14.4,-76.9,755,-26.7,-20.9,-14.5,25,-107.364,-14.1473,1039.65,-24.1467,-3.8411,-9.61747,
2026_06_15_19_51_08.952,3.816,30.1,0,0.757,0,0,0,0, ,0,0,0,0,0, ,9.6,-106.2,729.7,-15.7,-19.2,-7.4,25,-100.09,-18.8641,1021.54,-23.9672,-4.82883,-9.69867,
2026_06_15_19_51_08.970,3.816,30,0,0.756,0,0,0,0, ,0,0,0,0,0, ,31.2,-133.3,739.2,-8,-7.5,-12.4,25,-92.7478,-25.0118,1004.04,-23.2288,-5.34809,-9.71094,
2026_06_15_19_51_08.991,3.816,30,0,0.759,0,0,0,0, ,0,0,0,0,0, ,70.6,-108.3,791.9,-9.2,-7.2,-9.4,25,-83.9942,-30.8489,989.51,-22.3373,-5.47008,-9.7834,
2026_06_15_19_51_09.011,3.816,30,0,0.757,0,0,0,0, ,0,0,0,0,0, ,59.8,-113.8,769,-5.1,-5.8,0,25,-74.9027,-35.7361,976.77,-21.4118,-5.53284,-9.47363,
2026_06_15_19_51_09.033,3.816,30,0,0.757,0,0,0,0, ,0,0,0,0,0, ,37.1,-135.9,760.2,2.1,-3.4,0.3,25,-67.3859,-41.1665,963.841,-20.1985,-5.476,-8.88719,
2026_06_15_19_51_09.052,3.816,30,0,0.759,0,0,0,0, ,0,0,0,0,0, ,2.1,-190.1,810,7.4,-8.3,-0.6,25,-62.0852,-48.5907,952.949,-18.6782,-5.49879,-8.35477,
2026_06_15_19_51_09.073,3.816,29.9,0,0.757,0,0,0,0, ,0,0,0,0,0, ,-9,-192.7,833.4,10,-15.4,-1.4,25,-58.5121,-57.2932,944.951,-17.0098,-5.88581,-7.90659,
2026_06_15_19_51_09.090,3.816,29.9,0,0.759,0,0,0,0, ,0,0,0,0,0, ,-18.7,-198.4,860.1,9.9,-11.9,-9.5,25,-55.7905,-65.7182,938.967,-15.3669,-6.35894,-7.75689,
2026_06_15_19_51_09.112,3.816,30,0,0.757,0,0,0,0, ,0,0,0,0,0, ,10.1,-124.1,903,6.1,-9.4,-9.8,25,-52.6528,-71.5397,935.468,-13.943,-6.62043,-7.87225,
2026_06_15_19_51_09.130,3.816,30,0,0.757,0,0,0,0, ,0,0,0,0,0, ,10.6,-135,860.8,3.4,-11,1.2,25,-48.8136,-75.0747,932.204,-12.8039,-6.83856,-7.65457,
2026_06_15_19_51_09.150,3.816,30,0,0.757,0,0,0,0, ,0,0,0,0,0, ,9.7,-103.8,839.9,9.4,-14.3,15,25,-45.2205,-77.7758,927.216,-11.6337,-7.1927,-6.69452,
2026_06_15_19_51_09.169,3.816,29.9,0,0.756,0,0,0,0, ,0,0,0,0,0, ,-28.8,-108.1,847.6,13,-19.4,16.3,25,-43.0468,-79.4926,922.13,-10.2423,-7.78119,-5.3329,
2026_06_15_19_51_09.190,3.816,30,0,0.759,0,0,0,0, ,0,0,0,0,0, ,-63.5,-166.9,887.4,16.3,-24.2,10.1,25,-43.2359,-83.0274,918.801,-8.72538,-8.63546,-4.20355,
2026_06_15_19_51_09.209,3.816,29.9,0,0.759,0,0,0,0, ,0,0,0,0,0, ,-44.6,-203.4,947.7,8.5,-16.8,2.1,25,-43.8949,-89.2505,918.724,-7.43805,-9.35845,-3.57568,
2026_06_15_19_51_09.231,3.816,29.9,0,0.759,0,0,0,0, ,0,0,0,0,0, ,7.2,-154.6,970,-7.5,-4.4,-3.4,25,-42.3596,-94.7196,921.17,-6.95433,-9.43411,-3.3974,
2026_06_15_19_51_09.249,3.816,29.9,0,0.758,0,0,0,0, ,0,0,0,0,0, ,-14.6,-95.3,945.9,-9.9,-5.4,-8.8,25,-40.0038,-96.5618,923.411,-7.06071,-9.15781,-3.56209,
2026_06_15_19_51_09.271,3.816,30,0,0.759,0,0,0,0, ,0,0,0,0,0, ,-3.7,-132.8,928.4,-7.4,-20.1,-6.8,25,-38.1236,-97.6275,924.248,-7.15755,-9.37671,-3.82034,
2026_06_15_19_51_09.288,3.816,30,0,0.757,0,0,0,0, ,0,0,0,0,0, ,54,-140.2,878.1,-12.2,-17.2,-4.2,25,-34.2679,-99.9963,922.969,-7.31858,-9.9418,-3.92269,
2026_06_15_19_51_09.309,3.816,29.9,0,0.758,0,0,0,0, ,0,0,0,0,0, ,73.2,-128.1,809.5,-11,-1.1,-11.5,25,-28.3041,-102.078,918.144,-7.57948,-9.89355,-4.16201,
2026_06_15_19_51_09.327,3.816,30,0,0.757,0,0,0,0, ,0,0,0,0,0, ,83,-72.5,884.3,-8.2,-1.8,-11.3,25,-21.8201,-101.969,913.803,-7.7026,-9.37902,-4.60308,
2026_06_15_19_51_09.350,3.816,29.9,0,0.758,0,0,0,0, ,0,0,0,0,0, ,108.3,-124.2,956.5,-6.8,-8.4,-8.5,25,-14.6617,-101.749,914.205,-7.69026,-9.11827,-4.92586,
2026_06_15_19_51_09.367,3.816,29.9,0,0.757,0,0,0,0, ,0,0,0,0,0, ,86.3,-150.7,897.3,-9.7,-11.7,-3.9,25,-7.83906,-103.924,914.978,-7.72437,-9.17505,-5.0035,
2026_06_15_19_51_09.388,3.816,29.9,0,0.758,0,0,0,0, ,0,0,0,0,0, ,40.2,-164.7,825.3,-3.4,-15,-4.8,25,-3.50707,-107.201,911.707,-7.6528,-9.42946,-4.96368,
2026_06_15_19_51_09.407,3.816,29.9,0,0.761,0,0,0,0, ,0,0,0,0,0, ,48.2,-130.6,852.6,-1.6,-14.4,-6.1,25,-0.599922,-109.666,907.274,-7.3388,-9.75063,-4.99331,
2026_06_15_19_51_09.429,3.816,29.9,0,0.757,0,0,0,0, ,0,0,0,0,0, ,86.6,-146.3,973.9,-7.4,-8.5,-2.7,25,3.54382,-111.42,907.638,-7.16581,-9.85419,-4.95716,
2026_06_15_19_51_09.447,3.816,30,0,0.758,0,0,0,0, ,0,0,0,0,0, ,108.3,-159.5,988.7,-18.2,-3.7,-1.9,25,9.26623,-113.948,912.127,-7.50915,-9.62542,-4.79524,
2026_06_15_19_51_09.468,3.816,29.9,0,0.759,0,0,0,0, ,0,0,0,0,0, ,76.1,-154.2,900,-14.6,-1.8,-1.4,25,14.32,-116.562,914.09,-8.05093,-9.20645,-4.60357,
2026_06_15_19_51_09.486,3.816,30,0,0.756,0,0,0,0, ,0,0,0,0,0, ,85.2,-156.8,892.3,-6.3,-5.6,2.3,25,18.362,-118.935,912.997,-8.19713,-8.8709,-4.29562,
2026_06_15_19_51_09.507,3.816,29.9,0,0.759,0,0,0,0, ,0,0,0,0,0, ,73.7,-193.8,923.2,2,-9.8,9.3,25,22.0845,-122.37,912.677,-7.82863,-8.79955,-3.68042,
2026_06_15_19_51_09.526,3.816,29.9,0,0.757,0,0,0,0, ,0,0,0,0,0, ,37.5,-202.7,928.7,4.1,-10.5,7.3,25,24.1269,-126.994,913.486,-7.16571,-8.88184,-2.95036,
2026_06_15_19_51_09.548,3.816,29.9,0,0.758,0,0,0,0, ,0,0,0,0,0, ,52.2,-197.9,949.7,3.1,-7.7,0.4,25,25.3897,-131.461,915.053,-6.50968,-8.89513,-2.53597,
2026_06_15_19_51_09.565,3.816,29.9,0,0.758,0,0,0,0, ,0,0,0,0,0, ,82.5,-191.2,984.9,-1,-2.3,-0.6,25,27.9467,-135.305,918.237,-6.04901,-8.65777,-2.38752,
2026_06_15_19_51_09.587,3.816,30,0,0.757,0,0,0,0, ,0,0,0,0,0, ,78.6,-189.5,973,-3.3,-2.2,3.4,25,31.1522,-138.659,921.937,-5.81141,-8.2673,-2.15672,
2026_06_15_19_51_09.604,3.816,29.9,0,0.758,0,0,0,0, ,0,0,0,0,0, ,35,-187.2,908.4,4.6,-10.3,11.1,25,32.7151,-141.688,923.08,-5.41767,-8.14437,-1.5835,
2026_06_15_19_51_09.626,3.816,29.8,0,0.757,0,0,0,0, ,0,0,0,0,0, ,-11.9,-211.1,918.5,14.7,-22.3,11.4,25,31.4253,-145.189,922.493,-4.49949,-8.64135,-0.801459,
2026_06_15_19_51_09.644,3.816,29.9,0,0.756,0,0,0,0, ,0,0,0,0,0, ,11.1,-232.9,995.7,14.3,-23.2,1.3,25,29.486,-149.87,924.602,-3.3417,-9.5011,-0.365667,
2026_06_15_19_51_09.668,3.816,29.9,0,0.757,0,0,0,0, ,0,0,0,0,0, ,40.5,-225.8,1021.1,3,-6.1,-5.3,25,29.2614,-154.713,929.708,-2.61096,-9.81486,-0.465259,
2026_06_15_19_51_09.684,3.816,29.9,0,0.758,0,0,0,0, ,0,0,0,0,0, ,68.3,-188.7,987.3,-7.5,5.1,-12.4,25,30.7933,-157.915,934.248,-2.58896,-9.24724,-0.976204,
2026_06_15_19_51_09.706,3.816,29.8,0,0.759,0,0,0,0, ,0,0,0,0,0, ,117.6,-126.4,977.2,-8.8,1.1,-11.5,25,34.5809,-157.892,937.173,-2.92784,-8.49483,-1.64492,
2026_06_15_19_51_09.727,3.816,29.9,0,0.758,0,0,0,0, ,0,0,0,0,0, ,155.7,-117.9,950.3,-4.9,-4.2,-4.6,25,40.8008,-155.714,938.792,-3.16685,-8.07163,-2.03523,
2026_06_15_19_51_09.750,3.816,29.9,0,0.757,0,0,0,0, ,0,0,0,0,0, ,143.6,-106.2,921.1,2.7,-3.5,-2.2,25,47.4338,-153.054,938.604,-3.0409,-7.81437,-2.11839,
2026_06_15_19_51_09.763,3.816,29.9,0,0.757,0,0,0,0, ,0,0,0,0,0, ,126.5,-123.1,920.2,8.3,0.3,2.5,25,52.7729,-150.713,937.51,-2.52044,-7.43568,-1.98016,
2026_06_15_19_51_09.785,3.816,29.8,0,0.757,0,0,0,0, ,0,0,0,0,0, ,111.6,-129.3,968.9,8.6,3.9,4.1,25,56.8116,-149.22,937.939,-1.85193,-6.8546,-1.6584,
2026_06_15_19_51_09.803,3.816,29.9,0,0.759,0,0,0,0, ,0,0,0,0,0, ,96,-147.2,1015.7,8.5,4.5,4.1,25,59.675,-148.551,941.252,-1.21806,-6.18096,-1.3075,
2026_06_15_19_51_09.825,3.816,29.9,0,0.757,0,0,0,0, ,0,0,0,0,0, ,83.8,-165.2,1053.4,6.3,-1.7,5,25,61.5168,-149.017,946.937,-0.692896,-5.719,-0.95056,
2026_06_15_19_51_09.843,3.816,29.9,0,0.757,0,0,0,0, ,0,0,0,0,0, ,57.6,-141.8,1051,2.8,-6.3,3.7,25,62.0764,-149.29,953.351,-0.373407,-5.61425,-0.627557,
2026_06_15_19_51_09.866,3.816,29.9,0,0.757,0,0,0,0, ,0,0,0,0,0, ,68.9,-143.5,1045.5,1.3,-4.2,0.5,25,62.1479,-148.886,959.134,-0.225731,-5.59205,-0.461347,
2026_06_15_19_51_09.882,3.816,29.8,0,0.759,0,0,0,0, ,0,0,0,0,0, ,75.6,-158.2,1035.6,-3.7,1.5,0.9,25,62.7635,-149.005,964.096,-0.2851,-5.33355,-0.390577,
2026_06_15_19_51_09.903,3.816,29.8,0,0.757,0,0,0,0, ,0,0,0,0,0, ,60.1,-169.7,986.4,-3,-1.7,1.6,25,63.0735,-149.916,966.954,-0.471867,-5.01463,-0.290605,
2026_06_15_19_51_09.921,3.816,29.9,0,0.757,0,0,0,0, ,0,0,0,0,0, ,59.9,-179.6,985.8,-0.6,-9.1,1.6,25,62.8862,-151.423,968.121,-0.552801,-5.03811,-0.175396,
2026_06_15_19_51_09.944,3.816,29.9,0,0.758,0,0,0,0, ,0,0,0,0,0, ,63.3,-172.3,1009.7,-0.1,-10.7,-1,25,62.8078,-152.918,969.926,-0.540442,-5.33439,-0.146427,
2026_06_15_19_51_09.961,3.816,29.8,0,0.758,0,0,0,0, ,0,0,0,0,0, ,63.7,-182.4,995.7,-2.1,-5.6,-3.9,25,62.85,-154.407,971.923,-0.57454,-5.50596,-0.286801,
2026_06_15_19_51_09.984,3.816,29.8,0,0.758,0,0,0,0, ,0,0,0,0,0, ,81.5,-170.5,964.1,-4.4,-2,-4.9,25,63.4441,-155.75,972.409,-0.737576,-5.402,-0.537449,
2026_06_15_19_51_10.001,3.816,29.8,0,0.759,0,0,0,0, ,0,0,0,0,0, ,109.9,-159.3,969.6,-4.8,2,-3.8,25,65.4097,-156.308,972.071,-0.972943,-5.07282,-0.769776,
2026_06_15_19_51_10.022,3.816,29.8,0,0.757,0,0,0,0, ,0,0,0,0,0, ,98.6,-157.5,960.2,-2.4,2.2,-0.7,25,67.7766,-156.435,971.634,-1.13303,-4.63573,-0.859977,
2026_06_15_19_51_10.040,3.816,29.9,0,0.757,0,0,0,0, ,0,0,0,0,0, ,91,-176.7,955,1.8,-3.6,0.6,25,69.4233,-157.085,970.778,-1.08227,-4.39589,-0.810619,
2026_06_15_19_51_10.064,3.816,29.9,0,0.757,0,0,0,0, ,0,0,0,0,0, ,88.5,-175.2,980.1,3.1,-4.3,-0.2,25,70.662,-158.235,970.582,-0.867019,-4.36872,-0.749035,
2026_06_15_19_51_10.085,3.816,29.8,0,0.758,0,0,0,0, ,0,0,0,0,0, ,97.5,-170.8,1001.5,0,1.2,0.7,25,72.0232,-159.134,971.814,-0.719732,-4.19696,-0.688156,
2026_06_15_19_51_10.107,3.816,29.8,0,0.756,0,0,0,0, ,0,0,0,0,0, ,100.5,-176.5,1000.7,-1.3,4.7,0,25,73.6671,-160.019,973.598,-0.715482,-3.76144,-0.624893,
2026_06_15_19_51_10.120,3.816,29.8,0,0.756,0,0,0,0, ,0,0,0,0,0, ,79.7,-182,989.2,-0.3,3.3,0,25,74.6685,-161.191,974.899,-0.720633,-3.28848,-0.586814,
2026_06_15_19_51_10.142,3.816,29.8,0,0.758,0,0,0,0, ,0,0,0,0,0, ,61.8,-194.5,969.4,2.1,-2.7,-2.6,25,74.4297,-162.84,975.168,-0.621875,-3.0698,-0.630274,
2026_06_15_19_51_10.159,3.816,29.8,0,0.758,0,0,0,0, ,0,0,0,0,0, ,80.5,-174.6,971,2.3,-3.3,-2.3,25,74.2298,-164.163,974.865,-0.449917,-3.06555,-0.741163,
2026_06_15_19_51_10.183,3.816,29.9,0,0.759,0,0,0,0, ,0,0,0,0,0, ,83.3,-169.3,995.7,2.3,-2.9,0,25,74.6972,-164.637,975.382,-0.282344,-3.06765,-0.766077,
2026_06_15_19_51_10.199,3.816,29.8,0,0.758,0,0,0,0, ,0,0,0,0,0, ,89.2,-183.8,1013.7,0.3,-4.5,-1.1,25,75.4012,-165.363,977.169,-0.18592,-3.10618,-0.752909,
2026_06_15_19_51_10.222,3.816,29.8,0,0.756,0,0,0,0, ,0,0,0,0,0, ,71.4,-161,987.9,-1.5,-7.7,-0.8,25,75.6997,-165.792,978.609,-0.211153,-3.28862,-0.76492,
2026_06_15_19_51_10.239,3.816,29.8,0,0.757,0,0,0,0, ,0,0,0,0,0, ,94.2,-172.6,944,2.5,-10.2,-3.5,25,76.1324,-165.853,977.837,-0.167817,-3.63361,-0.849323,
2026_06_15_19_51_10.262,3.816,29.8,0,0.757,0,0,0,0, ,0,0,0,0,0, ,87.7,-179.8,973.9,3.8,-7.3,-1.1,25,77.0354,-166.484,976.686,0.0343621,-3.94539,-0.937724,
2026_06_15_19_51_10.278,3.816,29.7,0,0.758,0,0,0,0, ,0,0,0,0,0, ,88.6,-179.9,986.9,2.4,-7.1,-4.3,25,77.7127,-167.298,976.913,0.221174,-4.14372,-1.04511,
2026_06_15_19_51_10.301,3.816,29.8,0,0.758,0,0,0,0, ,0,0,0,0,0, ,109.9,-154.7,1001.2,-1.3,-2.7,-5,25,79.0251,-167.298,977.957,0.241212,-4.1898,-1.26479,
2026_06_15_19_51_10.318,3.816,29.8,0,0.757,0,0,0,0, ,0,0,0,0,0, ,130.2,-153.5,992.3,-2.8,-1.7,-3.7,25,81.525,-166.494,979.102,0.101592,-4.06855,-1.45279,
2026_06_15_19_51_10.341,3.816,29.8,0,0.759,0,0,0,0, ,0,0,0,0,0, ,129.1,-152.9,970.4,-1.1,-5.6,-1.7,25,84.4577,-165.684,979.239,-0.0234273,-4.04304,-1.52879,
2026_06_15_19_51_10.358,3.816,29.8,0,0.757,0,0,0,0, ,0,0,0,0,0, ,108.6,-161.8,952.5,1.8,-7.6,-1.2,25,86.5534,-165.176,978.155,-0.000671615,-4.19886,-1.52399,
2026_06_15_19_51_10.382,3.816,29.8,0,0.757,0,0,0,0, ,0,0,0,0,0, ,103.2,-162.8,957.8,1.2,-3.5,-3.4,25,87.7324,-165.001,976.753,0.0907756,-4.28119,-1.57128,
2026_06_15_19_51_10.397,3.816,29.7,0,0.758,0,0,0,0, ,0,0,0,0,0, ,123.2,-149.2,989.9,-1.5,0.8,-3.9,25,89.2843,-164.452,976.576,0.0761033,-4.10257,-1.69795,
2026_06_15_19_51_10.422,3.816,29.8,0,0.757,0,0,0,0, ,0,0,0,0,0, ,109.4,-144.1,995.9,-2.5,-0.5,-3.1,25,90.9306,-163.368,977.571,-0.0504092,-3.84343,-1.80776,
2026_06_15_19_51_10.437,3.816,29.8,0,0.757,0,0,0,0, ,0,0,0,0,0, ,106.5,-165.8,992.4,-1.5,-3,-4.5,25,91.9677,-162.855,978.581,-0.169212,-3.71586,-1.92917,
2026_06_15_19_51_10.460,3.816,29.7,0,0.757,0,0,0,0, ,0,0,0,0,0, ,101.6,-159.1,976.5,-1.4,-0.8,-5.1,25,92.704,-162.83,978.939,-0.24726,-3.60521,-2.10411,
2026_06_15_19_51_10.477,3.816,29.8,0,0.758,0,0,0,0, ,0,0,0,0,0, ,89.9,-157.2,991.6,-2.8,0.3,-5.3,25,92.8896,-162.545,979.25,-0.360162,-3.40075,-2.29276,
2026_06_15_19_51_10.501,3.816,29.7,0,0.759,0,0,0,0, ,0,0,0,0,0, ,102.5,-177.8,993.7,-6.3,0,-5.9,25,93.0913,-162.847,980.067,-0.61548,-3.18438,-2.4943,
2026_06_15_19_51_10.515,3.816,29.8,0,0.757,0,0,0,0, ,0,0,0,0,0, ,105.3,-173.3,938.2,-8.6,2.9,-8.7,25,93.75,-163.621,979.207,-1.03196,-2.90197,-2.78714,
2026_06_15_19_51_10.538,3.816,29.8,0,0.757,0,0,0,0, ,0,0,0,0,0, ,105.8,-165,895.5,-7.9,5.8,-9.9,25,94.469,-163.958,975.407,-1.47181,-2.46005,-3.18402,
2026_06_15_19_51_10.555,3.816,29.7,0,0.757,0,0,0,0, ,0,0,0,0,0, ,118,-172.1,880.6,-6.7,4.2,-11.6,25,95.5312,-164.238,970.083,-1.82696,-2.00546,-3.64507,
2026_06_15_19_51_10.580,3.816,29.7,0,0.758,0,0,0,0, ,0,0,0,0,0, ,149.6,-152.7,867.1,-4.5,4.7,-11.4,25,97.8632,-164.126,964.219,-2.05688,-1.61208,-4.12373,
2026_06_15_19_51_10.595,3.816,29.8,0,0.758,0,0,0,0, ,0,0,0,0,0, ,155.1,-133.9,856,0.1,6.7,-7.2,25,101.184,-162.857,957.963,-2.0656,-1.1665,-4.43916,
2026_06_15_19_51_10.619,3.816,29.8,0,0.758,0,0,0,0, ,0,0,0,0,0, ,132,-132.4,861.3,5.5,2.2,-3.3,25,103.765,-161.046,951.911,-1.76911,-0.824242,-4.48857,
2026_06_15_19_51_10.634,3.816,29.8,0,0.756,0,0,0,0, ,0,0,0,0,0, ,126.7,-209.7,849.3,5.6,-2.7,-4.1,25,105.324,-161.656,946.024,-1.3231,-0.789249,-4.44052,
2026_06_15_19_51_10.658,3.816,29.7,0,0.757,0,0,0,0, ,0,0,0,0,0, ,142.8,-162.4,831.7,2.5,2.7,-9,25,107.117,-163.142,939.593,-0.995675,-0.741155,-4.56907,
2026_06_15_19_51_10.674,3.816,29.7,0,0.757,0,0,0,0, ,0,0,0,0,0, ,118.5,-97.1,819.7,1.8,10.2,-4.4,25,108.551,-161.108,932.653,-0.803986,-0.302944,-4.69892,
2026_06_15_19_51_10.700,3.816,29.7,0,0.758,0,0,0,0, ,0,0,0,0,0, ,64,-120.8,809.2,4.3,2.1,2,25,107.497,-157.929,925.45,-0.569133,0.0902826,-4.4857,
2026_06_15_19_51_10.714,3.816,29.7,0,0.758,0,0,0,0, ,0,0,0,0,0, ,88.2,-268.1,757.2,7,-12.3,8.3,25,105.584,-160.155,916.782,-0.190155,-0.226,-3.89853,
2026_06_15_19_51_10.738,3.816,29.7,0,0.758,0,0,0,0, ,0,0,0,0,0, ,87.5,-191.5,766.3,13,-14.3,3.6,25,104.503,-164.399,907.334,0.430808,-1.0227,-3.29838,
2026_06_15_19_51_10.753,3.816,29.7,0,0.757,0,0,0,0, ,0,0,0,0,0, ,57.8,-95.3,823.4,14.4,-2,-2.1,25,102.562,-163.119,900.48,1.2394,-1.45702,-3.05169,
2026_06_15_19_51_10.777,3.816,29.7,0,0.757,0,0,0,0, ,0,0,0,0,0, ,27.9,-92.8,884.8,5.3,5.6,-9.7,25,98.9235,-158.91,897.654,1.76411,-1.25854,-3.22525,
2026_06_15_19_51_10.793,3.816,29.8,0,0.757,0,0,0,0, ,0,0,0,0,0, ,158.6,-191.7,815.3,-2.8,5.8,-12.1,25,98.5777,-157.895,894.753,1.73278,-0.834506,-3.69293,
2026_06_15_19_51_10.818,3.816,29.7,0,0.758,0,0,0,0, ,0,0,0,0,0, ,202.6,-184.9,787.7,0.7,4.9,-12.4,25,103.576,-159.748,889.07,1.5632,-0.457638,-4.21438,
2026_06_15_19_51_10.833,3.816,29.8,0,0.758,0,0,0,0, ,0,0,0,0,0, ,252.3,-37.3,835.4,12.1,1.2,-7.1,25,111.125,-156.783,884.346,1.85795,-0.243891,-4.55171,
2026_06_15_19_51_10.856,3.816,29.6,0,0.759,0,0,0,0, ,0,0,0,0,0, ,165.5,55.1,885.6,21.6,1.3,1,25,117.083,-146.687,882.893,2.77152,-0.152857,-4.4602,
2026_06_15_19_51_10.879,3.816,29.8,0,0.757,0,0,0,0, ,0,0,0,0,0, ,141.9,3.6,930.6,19.2,7.1,-1.4,25,119.314,-135.96,884.429,3.84576,0.112395,-4.20059,
2026_06_15_19_51_10.904,3.816,29.8,0,0.755,0,0,0,0, ,0,0,0,0,0, ,159.6,-118.4,833.9,7.6,20.6,0.9,25,121.23,-131.173,884.296,4.42797,0.94953,-3.95985,
2026_06_15_19_51_10.912,3.816,29.7,0,0.759,0,0,0,0, ,0,0,0,0,0, ,180.7,-140.8,784,16.1,26.6,-1.6,25,124.211,-131.077,879.705,4.88025,2.32979,-3.73988,
2026_06_15_19_51_10.938,3.816,29.7,0,0.758,0,0,0,0, ,0,0,0,0,0, ,119.7,-3,854.3,35,18.7,-1,25,125.795,-127.471,876.015,6.13981,3.56806,-3.5912,
2026_06_15_19_51_10.952,3.816,29.6,0,0.757,0,0,0,0, ,0,0,0,0,0, ,42.8,57.9,997.6,42.6,7.9,2.6,25,123.08,-118.03,879.058,8.13004,4.1611,-3.32361,
2026_06_15_19_51_10.976,3.816,29.6,0,0.757,0,0,0,0, ,0,0,0,0,0, ,37.1,-93.9,1058.2,30.7,5.2,8.1,25,118.014,-111.935,888.128,9.86798,4.30667,-2.79506,
2026_06_15_19_51_10.991,3.816,29.7,0,0.757,0,0,0,0, ,0,0,0,0,0, ,31.8,-183.7,878.9,16.5,14.7,4.7,25,112.922,-113.572,893.029,10.7048,4.65056,-2.23474,
2026_06_15_19_51_11.017,3.816,29.8,0,0.757,0,0,0,0, ,0,0,0,0,0, ,5.4,-115.7,787.7,29.1,20.4,-2.6,25,107.174,-115.773,889.389,11.4418,5.43662,-2.03457,
2026_06_15_19_51_11.031,3.816,29.6,0,0.758,0,0,0,0, ,0,0,0,0,0, ,-62.1,6.2,917.8,43.7,11.1,-6.4,25,98.9159,-112.055,887.156,12.9627,6.06509,-2.18481,
2026_06_15_19_51_11.056,3.816,29.6,0,0.758,0,0,0,0, ,0,0,0,0,0, ,-26.3,-2.4,1104.8,28.9,8.5,-7.8,25,90.1947,-105.111,894.721,14.3848,6.29269,-2.48433,
2026_06_15_19_51_11.071,3.816,29.7,0,0.759,0,0,0,0, ,0,0,0,0,0, ,95,-107.7,1069,-7.9,27.8,-7.9,25,86.7917,-102.06,906.432,14.1481,7.01524,-2.8113,
2026_06_15_19_51_11.095,3.816,29.6,0,0.757,0,0,0,0, ,0,0,0,0,0, ,111.8,-54.8,908.9,-15.4,48.3,-6.4,25,87.8038,-100.792,911.461,12.576,8.90642,-3.07569,
2026_06_15_19_51_11.110,3.816,29.7,0,0.757,0,0,0,0, ,0,0,0,0,0, ,34,38.5,835.3,2.4,38.6,1.5,25,86.8956,-95.1465,909.062,11.4136,11.0114,-3.03756,
2026_06_15_19_51_11.136,3.816,29.7,0,0.757,0,0,0,0, ,0,0,0,0,0, ,-103.6,65.7,873.2,25.8,14.5,0.2,25,79.4798,-86.1737,905.722,11.5773,11.9583,-2.80066,
2026_06_15_19_51_11.149,3.816,29.6,0,0.758,0,0,0,0, ,0,0,0,0,0, ,-44.3,-45.6,1000.3,27.1,-1,-6.2,25,70.1301,-80.31,907.613,12.4836,11.6409,-2.81281,
2026_06_15_19_51_11.174,3.816,29.6,0,0.757,0,0,0,0.001, ,0,0,0,0,0, ,42.4,-130.9,1071.7,12.4,6.7,-7.1,25,65.7987,-80.7939,915.436,12.9264,11.1052,-3.04664,
2026_06_15_19_51_11.189,3.816,29.8,0,0.757,0,0,0,0.001, ,0,0,0,0,0, ,-2.3,-66.6,995.9,2.5,21,-7.4,25,63.0109,-81.8881,922.649,12.5927,11.2725,-3.30278,
2026_06_15_19_51_11.216,3.816,29.6,0,0.756,0,0,0,0, ,0,0,0,0,0, ,-78.3,26.2,954.9,4,14.8,-5.7,25,56.7154,-78.129,925.864,12.0234,11.6763,-3.50066,
2026_06_15_19_51_11.229,3.816,29.6,0,0.756,0,0,0,0.001, ,0,0,0,0,0, ,-47.7,46.5,1019,5,-5.7,5.3,25,49.4202,-71.1529,929.586,11.5649,11.2421,-3.29952,
2026_06_15_19_51_11.254,3.816,29.6,0,0.758,0,0,0,0.001, ,0,0,0,0,0, ,33.3,-18.4,1110.3,6.8,-5,6.4,25,45.9699,-65.9608,937.817,11.2197,10.231,-2.74198,
2026_06_15_19_51_11.269,3.816,29.6,0,0.758,0,0,0,0.001, ,0,0,0,0,0, ,-8.4,-44.5,1135.7,8.1,4,7,25,43.9273,-63.8578,949.101,10.99,9.57709,-2.16661,
2026_06_15_19_51_11.294,3.816,29.7,0,0.758,0,0,0,0.001, ,0,0,0,0,0, ,-114,12.9,1129.5,5.4,4.8,-0.1,25,37.5211,-60.9293,960.283,10.7316,9.26161,-1.82434,
2026_06_15_19_51_11.308,3.816,29.7,0,0.757,0,0,0,0, ,0,0,0,0,0, ,-67.5,9.7,1118.4,4.8,8.6,-8.1,25,29.7046,-56.5278,970.257,10.3884,9.10551,-1.96302,
2026_06_15_19_51_11.334,3.816,29.6,0,0.756,0,0,0,0, ,0,0,0,0,0, ,8,-36.4,1101.9,6.5,32.2,-7.5,25,26.0816,-53.8967,978.781,10.0997,9.79377,-2.31871,
2026_06_15_19_51_11.353,3.816,29.6,0,0.757,0,0,0,0.001, ,0,0,0,0,0, ,-49.9,-16.4,1088.8,1,51.7,3.3,25,23.2156,-52.2211,985.885,9.71275,11.7533,-2.30538,
2026_06_15_19_51_11.378,3.816,29.6,0,0.757,0,0,0,0.001, ,0,0,0,0,0, ,-147.5,34.5,1072,-5.2,36.7,-2.9,25,15.7864,-48.4874,991.644,8.99291,13.7305,-2.15271,
2026_06_15_19_51_11.387,3.816,29.6,0,0.757,0,0,0,0.001, ,0,0,0,0,0, ,-77,15.6,1114,-7.6,25.1,-5.6,25,7.98414,-44.0062,997.821,8.0549,14.7768,-2.28051,
2026_06_15_19_51_11.412,3.816,29.6,0,0.756,0,0,0,0.001, ,0,0,0,0,0, ,-27.7,-49.1,1090.4,-14.2,37.2,-3.5,25,4.30753,-42.3453,1004.18,6.89984,15.7745,-2.41881,
2026_06_15_19_51_11.427,3.816,29.6,0,0.757,0,0,0,0.001, ,0,0,0,0,0, ,-97.6,-51.2,997.5,-9.3,46.3,-5.2,25,0.227305,-42.8209,1006.6,5.76336,17.3574,-2.53649,
2026_06_15_19_51_11.453,3.816,29.6,0,0.758,0,0,0,0.001, ,0,0,0,0,0, ,-181.3,23.3,981.6,3.3,36.6,-14.9,25,-8.28428,-41.0616,1005.57,5.22935,18.8255,-2.99435,
2026_06_15_19_51_11.467,3.816,29.6,0,0.756,0,0,0,0.001, ,0,0,0,0,0, ,-128.7,47.6,1103.7,5.1,13.5,-13.8,25,-17.2248,-36.3991,1007.83,5.16662,19.2048,-3.68633,
2026_06_15_19_51_11.492,3.816,29.6,0,0.757,0,0,0,0.001, ,0,0,0,0,0, ,-120.9,-19.5,1154.9,-9.7,-18.1,12.5,25,-23.7801,-33.3249,1015.23,4.71162,17.8944,-3.5013,
2026_06_15_19_51_11.506,3.816,29.5,0,0.757,0,0,0,0.001, ,0,0,0,0,0, ,-140.2,-84.7,1133.9,-22.6,-34.6,25.3,25,-30.2864,-34.469,1023.1,3.44037,15.1983,-2.13622,
2026_06_15_19_51_11.534,3.816,29.7,0,0.756,0,0,0,0.002, ,0,0,0,0,0, ,-178.8,-32.2,1120.3,-21.4,-30.6,16.1,25,-38.1604,-35.9304,1029.44,1.8901,12.2855,-0.744642,
2026_06_15_19_51_11.546,3.816,29.5,0,0.76,0,0,0,0.001, ,0,0,0,0,0, ,-163.9,-2.3,1148.4,-20.9,-26.4,8.8,25,-46.2766,-34.792,1035.83,0.48609,9.80018,0.0594061,
2026_06_15_19_51_11.572,3.816,29.5,0,0.758,0,0,0,0.002, ,0,0,0,0,0, ,-82.6,66.4,1161.2,-41.9,-10.5,-1.6,25,-50.9672,-30.7188,1043.08,-1.45697,8.07868,0.275161,
2026_06_15_19_51_11.586,3.816,29.6,0,0.757,0,0,0,0.002, ,0,0,0,0,0, ,-56.7,-10.8,1246.5,16.2,33.8,7,25,-52.1057,-27.1528,1052.88,-2.15123,8.29631,0.422925,
2026_06_15_19_51_11.610,3.816,29.5,0,0.757,0,0,0,0.001, ,0,0,0,0,0, ,-115.4,-80,1196.2,4.9,38.5,-11.9,25,-54.1741,-28.2648,1063.14,-1.37725,9.99364,0.247856,
2026_06_15_19_51_11.625,3.816,29.5,0,0.757,0,0,0,0.002, ,0,0,0,0,0, ,-159.1,-57.8,1142.4,22.6,23.8,-4.9,25,-59.2366,-30.741,1069.61,-0.455433,11.2829,-0.279123,
2026_06_15_19_51_11.652,3.816,29.6,0,0.756,0,0,0,0.002, ,0,0,0,0,0, ,-158.6,-36.3,1163,26.6,7.9,13.2,25,-65.3068,-31.7348,1074.67,1.07138,11.5612,-0.00922321,
2026_06_15_19_51_11.665,3.816,29.6,0,0.755,0,0,0,0.002, ,0,0,0,0,0, ,-138.5,24.7,1144.6,12.6,10.8,18.6,25,-70.3794,-30.1544,1079.5,2.20047,11.4264,0.960245,
2026_06_15_19_51_11.690,3.816,29.5,0,0.758,0,0,0,0.002, ,0,0,0,0,0, ,-117.7,-32.8,1132.9,17,24,18.7,25,-73.8968,-28.5637,1083.11,2.96825,11.7904,2.03821,
2026_06_15_19_51_11.704,3.816,29.5,0,0.757,0,0,0,0.002, ,0,0,0,0,0, ,-142.4,-10.9,1038.8,19.3,27.3,8.2,25,-77.3186,-28.1546,1083.27,3.89339,12.635,2.73362,
2026_06_15_19_51_11.732,3.816,29.6,0,0.758,0,0,0,0.003, ,0,0,0,0,0, ,-159.1,21.1,980.1,46,23.8,2.5,25,-81.7933,-26.1281,1078.78,5.64575,13.422,2.89306,
2026_06_15_19_51_11.744,3.816,29.7,0,0.756,0,0,0,0.002, ,0,0,0,0,0, ,-192.6,88.9,1038.9,58,15.9,-4.1,25,-87.5249,-21.1844,1074.55,8.47046,13.8137,2.66801,
2026_06_15_19_51_11.770,3.816,29.5,0,0.757,0,0,0,0.001, ,0,0,0,0,0, ,-215.5,67.6,1096.3,42.1,5.4,-5.3,25,-94.6256,-15.1251,1074.13,11.0042,13.6209,2.21902,
2026_06_15_19_51_11.783,3.816,29.5,0,0.755,0,0,0,0.003, ,0,0,0,0,0, ,-209.9,-159,1287.2,41.4,-10.2,-2.8,25,-101.821,-16.9882,1081.3,12.8778,12.6447,1.837,
2026_06_15_19_51_11.809,3.816,29.7,0,0.757,0,0,0,0.003, ,0,0,0,0,0, ,-182.4,273.4,1330.8,-0.3,-117,-9.3,25,-107.569,-12.4674,1095.17,13.3453,7.9985,1.35639,
2026_06_15_19_51_11.822,3.816,29.5,0,0.758,0,0,0,0.001, ,0,0,0,0,0, ,-56,102.9,986.6,-8.7,-77.3,16.7,25,-108.278,-0.242279,1099.04,12.2579,1.59101,1.4992,
2026_06_15_19_51_11.850,3.816,29.6,0,0.759,0,0,0,0.003, ,0,0,0,0,0, ,-4.3,125.9,1048.5,1,3.4,-4.6,25,-103.517,6.74373,1094.08,11.2763,-0.757582,1.77652,
2026_06_15_19_51_11.862,3.816,29.5,0,0.758,0,0,0,0.002, ,0,0,0,0,0, ,-86.4,71.5,1003.6,-7.8,31.1,-11.3,25,-99.9723,12.3473,1089.93,10.382,0.339755,1.18381,
2026_06_15_19_51_11.889,3.816,29.5,0,0.757,0,0,0,0.003, ,0,0,0,0,0, ,-112.5,52.2,932.9,12.6,20.2,-9,25,-99.9405,15.3639,1082.52,9.89555,1.8821,0.493154,
2026_06_15_19_51_11.905,3.816,29.6,0,0.756,0,0,0,0.003, ,0,0,0,0,0, ,-141.1,89.4,913,19.2,-8.8,-9.3,25,-101.577,18.742,1072.79,10.2614,2.11475,-0.0944758,
2026_06_15_19_51_11.934,3.816,29.5,0,0.757,0,0,0,0.002, ,0,0,0,0,0, ,-91.7,109.8,977.5,39.8,-41.4,0.7,25,-102.48,23.6693,1065.02,11.4338,0.456352,-0.35075,
2026_06_15_19_51_11.943,3.816,29.5,0,0.757,0,0,0,0.003, ,0,0,0,0,0, ,-25.5,104,1018.9,32.1,-53.3,-1.1,25,-99.8065,28.7412,1060.95,12.9278,-2.45685,-0.341564,
2026_06_15_19_51_11.970,3.816,29.6,0,0.757,0,0,0,0.003, ,0,0,0,0,0, ,-26.8,98.6,994,13.9,-49.4,11.2,25,-95.3181,33.1627,1057.63,13.5415,-5.43627,-0.0130152,
2026_06_15_19_51_11.981,3.816,29.5,0,0.755,0,0,0,0.002, ,0,0,0,0,0, ,-34.5,135.2,993.6,11,-44,22.3,25,-91.3774,38.2655,1053.74,13.475,-7.95078,1.00848,
2026_06_15_19_51_12.008,3.816,29.6,0,0.757,0,0,0,0.003, ,0,0,0,0,0, ,-18.3,145.2,1010.6,9.4,-43.6,17.9,25,-87.4178,44.4771,1050.59,13.2754,-10.1353,2.17187,
2026_06_15_19_51_12.021,3.816,29.5,0,0.758,0,0,0,0.002, ,0,0,0,0,0, ,15.3,132.3,987.3,11.7,-40,20.6,25,-82.1822,50.2219,1047.45,13.1094,-12.0649,3.21257,
2026_06_15_19_51_12.048,3.816,29.6,0,0.758,0,0,0,0.003, ,0,0,0,0,0, ,8.7,140.5,995.9,11.4,-36.4,21.9,25,-76.443,55.4733,1044.04,13.0143,-13.6575,4.31172,
2026_06_15_19_51_12.060,3.816,29.6,0,0.758,0,0,0,0.003, ,0,0,0,0,0, ,-87.7,62.3,856.9,10,-28.8,15.7,25,-74.1918,58.272,1036.87,12.8733,-14.8118,5.1946,
2026_06_15_19_51_12.089,3.816,29.6,0,0.758,0,0,0,0.003, ,0,0,0,0,0, ,-52.7,139.2,931.5,33.5,4.4,-6.7,25,-73.9485,60.8605,1028.18,13.4142,-14.6527,5.15228,
2026_06_15_19_51_12.100,3.816,29.4,0,0.756,0,0,0,0.003, ,0,0,0,0,0, ,36.7,146.4,959.5,26,28.2,-22.3,25,-69.9298,65.8537,1023.14,14.4097,-12.7665,3.95472,
2026_06_15_19_51_12.126,3.816,29.5,0,0.758,0,0,0,0.004, ,0,0,0,0,0, ,27.3,238,987.7,8.4,45.8,-14.2,25,-63.7184,73.5529,1020.12,14.5797,-9.73384,2.60162,
2026_06_15_19_51_12.140,3.816,29.4,0,0.757,0,0,0,0.004, ,0,0,0,0,0, ,-13.3,152.5,994.3,-0.2,42.4,-14.1,25,-59.409,80.9688,1018.35,13.9411,-6.45334,1.58081,
2026_06_15_19_51_12.168,3.816,29.6,0,0.758,0,0,0,0.004, ,0,0,0,0,0, ,-26.1,195.5,1020.3,11.4,26.5,-14,25,-56.9893,86.6379,1017.67,13.4328,-3.96079,0.628312,
2026_06_15_19_51_12.180,3.816,29.5,0,0.757,0,0,0,0.003, ,0,0,0,0,0, ,24.4,222.4,1054.3,20.2,15.3,-10.6,25,-53.5683,94.0913,1018.87,13.5771,-2.44584,-0.159507,
2026_06_15_19_51_12.207,3.816,29.5,0,0.756,0,0,0,0.004, ,0,0,0,0,0, ,-46,192.5,1028.6,12.1,9,0.3,25,-50.9621,100.999,1020.25,13.7339,-1.55641,-0.463615,
2026_06_15_19_51_12.220,3.816,29.5,0,0.756,0,0,0,0.004, ,0,0,0,0,0, ,-54.8,192.8,980.7,11.2,6.8,0.5,25,-50.9278,106.584,1019.3,13.6069,-0.980157,-0.410989,
2026_06_15_19_51_12.248,3.816,29.4,0,0.757,0,0,0,0.004, ,0,0,0,0,0, ,-45.7,245.7,1029.4,13.4,14.5,-5,25,-50.8865,113.45,1018.43,13.5272,-0.271444,-0.523053,
2026_06_15_19_51_12.259,3.816,29.6,0,0.757,0,0,0,0.005, ,0,0,0,0,0, ,-93.6,241.3,985.3,-2.8,15.7,-9.8,25,-52.0299,121.375,1017.75,13.0259,0.665253,-0.942117,
2026_06_15_19_51_12.286,3.816,29.6,0,0.757,0,0,0,0.003, ,0,0,0,0,0, ,-49.3,224.4,1058.4,16.8,22.6,-20.3,25,-53.2133,128.168,1018,12.6587,1.79167,-1.80182,
2026_06_15_19_51_12.298,3.816,29.5,0,0.757,0,0,0,0.003, ,0,0,0,0,0, ,-43.4,209.1,1002.9,6.9,14,-17.4,25,-52.7951,133.566,1018.77,12.6094,2.79764,-2.84069,
2026_06_15_19_51_12.325,3.816,29.4,0,0.758,0,0,0,0.004, ,0,0,0,0,0, ,-46.8,212.5,966.5,3.4,1.5,-13.4,25,-52.3262,138.272,1016.7,12.1549,3.09943,-3.60602,
2026_06_15_19_51_12.338,3.816,29.4,0,0.757,0,0,0,0.005, ,0,0,0,0,0, ,-60,226.1,978.7,19.6,0.6,-14.1,25,-52.3916,143.21,1014.01,12.115,2.97454,-4.22417,
2026_06_15_19_51_12.366,3.816,29.6,0,0.757,0,0,0,0.005, ,0,0,0,0,0, ,-66.4,219.8,974.2,5.4,-5.5,-11.8,25,-53.0502,148.069,1011.72,12.1384,2.64398,-4.7559,
2026_06_15_19_51_12.377,3.816,29.4,0,0.757,0,0,0,0.003, ,0,0,0,0,0, ,-64.6,219.1,971.3,4.6,-9.3,-3.8,25,-53.8089,152.419,1009.35,11.7034,2.03193,-4.9414,
2026_06_15_19_51_12.405,3.816,29.6,0,0.759,0,0,0,0.005, ,0,0,0,0,0, ,-48.9,213.9,975.9,5.9,-6.5,-3.7,25,-53.9881,156.324,1007.17,11.3102,1.4267,-4.8688,
2026_06_15_19_51_12.417,3.816,29.5,0,0.757,0,0,0,0.003, ,0,0,0,0,0, ,-69.8,214.4,972.2,8.4,-6.7,-2.9,25,-54.3149,159.847,1005.15,11.0567,0.937574,-4.7732,
2026_06_15_19_51_12.445,3.816,29.5,0,0.757,0,0,0,0.004, ,0,0,0,0,0, ,-46.5,207.2,952.5,3.4,-18,1.8,25,-54.5486,162.952,1002.54,10.7424,0.127863,-4.51585,
2026_06_15_19_51_12.457,3.816,29.4,0,0.756,0,0,0,0.004, ,0,0,0,0,0, ,-57.1,199.7,976.8,2,-13,11.6,25,-54.3811,165.42,1000.23,10.2523,-0.82446,-3.83238,
2026_06_15_19_51_12.485,3.816,29.4,0,0.757,0,0,0,0.005, ,0,0,0,0,0, ,-85.6,201,959.2,1.5,-4.7,3.6,25,-55.4151,167.549,998.268,9.73422,-1.31352,-3.13572,
2026_06_15_19_51_12.497,3.816,29.4,0,0.757,0,0,0,0.005, ,0,0,0,0,0, ,-32.9,234.2,971,18,-7,4.3,25,-55.6488,170.599,996.247,9.73518,-1.58996,-2.70394,
2026_06_15_19_51_12.522,3.816,29.5,0,0.755,0,0,0,0.005, ,0,0,0,0,0, ,-28.9,219.9,1000.2,6.1,-15.8,10.9,25,-54.1407,174.039,995.598,9.87624,-2.18776,-2.07604,
2026_06_15_19_51_12.541,3.816,29.5,0,0.758,0,0,0,0.005, ,0,0,0,0,0, ,-32.7,219.6,942.3,5.6,-15.5,13.7,25,-52.7184,176.824,994.115,9.63089,-3.00811,-1.2,
2026_06_15_19_51_12.570,3.816,29.5,0,0.758,0,0,0,0.005, ,0,0,0,0,0, ,-16.4,227.9,951.1,5.4,-11.4,9.7,25,-51.0018,179.684,991.225,9.37917,-3.64442,-0.413907,
2026_06_15_19_51_12.578,3.816,29.5,0,0.757,0,0,0,0.005, ,0,0,0,0,0, ,-4.3,231.9,943.1,7.8,-10.5,12.7,25,-48.5246,182.744,988.536,9.20981,-4.0896,0.293815,
2026_06_15_19_51_12.606,3.816,29.4,0,0.757,0,0,0,0.005, ,0,0,0,0,0, ,-7.6,229.6,976.1,9.9,-7.9,15.3,25,-45.9302,185.669,986.773,9.18789,-4.40101,1.12904,
2026_06_15_19_51_12.615,3.816,29.6,0,0.759,0,0,0,0.006, ,0,0,0,0,0, ,-47.8,261.2,1036.9,7.2,9,7.4,25,-44.8193,189.309,987.975,9.14902,-4.09931,1.75188,
2026_06_15_19_51_12.643,3.816,29.6,0,0.757,0,0,0,0.004, ,0,0,0,0,0, ,-58.7,274.5,1022.9,13.6,20.9,-3,25,-45.3331,194.095,990.53,9.22525,-2.93849,1.77918,
2026_06_15_19_51_12.655,3.816,29.5,0,0.757,0,0,0,0.004, ,0,0,0,0,0, ,-5.3,243.5,958,5.6,29.8,-8.7,25,-44.5206,198.05,990.525,9.24808,-1.21466,1.31428,
2026_06_15_19_51_12.682,3.816,29.6,0,0.756,0,0,0,0.005, ,0,0,0,0,0, ,-46.5,236.8,965.9,5.8,36.7,-8.3,25,-43.3859,200.616,988.784,9.03187,0.885526,0.716222,
2026_06_15_19_51_12.694,3.816,29.5,0,0.757,0,0,0,0.004, ,0,0,0,0,0, ,-81.5,238,738.6,-7.8,36.3,-7.2,25,-44.6421,202.857,980.464,8.42056,3.05578,0.200312,
2026_06_15_19_51_12.723,3.816,29.5,0,0.758,0,0,0,0.005, ,0,0,0,0,0, ,-52.2,200.1,1150.5,20.3,22.8,11.8,25,-45.9954,203.844,978.275,8.28829,4.67027,0.328262,
