UTC_Time,Vin,TC1,TC2,Rh1,Vh1,Ah1,Acp1,Dty1,Err1,Rh2,Vh2,Ah2,Acp2,Dty2,Err2,Accel_x,Accel_y,Accel_z,gyro_x,gyro_y,gyro_z,Temp_c,Accel_x_h,Accel_y_h,Accel_z_h,gyro_x_h,gyro_y_h,gyro_z_h,
2026_07_06_19_04_24.436,3.855,27.1,0,0.757,3.818,5.043,18.29,0.95, ,0,0,0,0,0, ,-38.9,352.2,938.9,-0.3,-0.3,-1.7,25,-38.9,352.2,938.9,-0.3,-0.3,-1.7,
2026_07_06_19_04_24.456,3.846,27,0,0.763,3.872,5.074,18.66,0.95, ,0,0,0,0,0, ,-38.5,351.9,938.4,-0.3,-0.4,-1.6,25,-38.8878,352.191,938.885,-0.3,-0.303047,-1.69695,
2026_07_06_19_04_24.475,3.846,27.1,0,0.762,0,0,0,0.024, ,0,0,0,0,0, ,-36.9,351.1,937.7,-0.2,-0.4,-1.6,25,-38.8154,352.149,938.834,-0.296953,-0.308955,-1.69105,
2026_07_06_19_04_24.495,3.846,27.3,0,0.76,0,0,0,0.024, ,0,0,0,0,0, ,-39.9,351.6,936.4,-0.3,-0.4,-1.6,25,-38.7901,352.1,938.725,-0.294092,-0.314503,-1.6855,
2026_07_06_19_04_24.515,3.846,27.6,0,0.759,0,0,0,0.022, ,0,0,0,0,0, ,-37.1,359.4,945.8,-0.7,-0.3,-1.6,25,-38.7724,352.307,938.87,-0.306639,-0.316666,-1.68029,
2026_07_06_19_04_24.535,3.846,27.6,0,0.758,0,0,0,0.02, ,0,0,0,0,0, ,-38.8,357.9,934.5,-0.2,-0.4,-1.6,25,-38.7223,352.694,938.948,-0.315375,-0.318697,-1.67539,
2026_07_06_19_04_24.554,3.846,27.7,0,0.759,0,0,0,0.02, ,0,0,0,0,0, ,-37.9,352.7,935.9,0.2,-0.4,-1.6,25,-38.6996,352.853,938.72,-0.296157,-0.323652,-1.6708,
2026_07_06_19_04_24.574,3.846,27.7,0,0.76,0,0,0,0.019, ,0,0,0,0,0, ,-38.4,356.2,936.8,0,-0.4,-1.7,25,-38.6661,352.95,938.575,-0.272016,-0.328304,-1.66953,
2026_07_06_19_04_24.594,3.846,27.8,0,0.759,0,0,0,0.02, ,0,0,0,0,0, ,-39.9,352.9,938.2,0,-0.4,-1.7,25,-38.6956,353.047,938.51,-0.25544,-0.332673,-1.67139,
2026_07_06_19_04_24.614,3.846,27.8,0,0.759,0,0,0,0.019, ,0,0,0,0,0, ,-39,352.5,937.5,-0.2,-0.4,-1.6,25,-38.7416,353.026,938.469,-0.245968,-0.336776,-1.67009,
2026_07_06_19_04_24.633,3.846,27.9,0,0.758,0,0,0,0.019, ,0,0,0,0,0, ,-38.8,349.8,936,-0.3,-0.4,-1.6,25,-38.7512,352.912,938.365,-0.246214,-0.340629,-1.66582,
2026_07_06_19_04_24.653,3.846,27.9,0,0.758,0,0,0,0.019, ,0,0,0,0,0, ,-38.8,350.9,936.4,-0.4,-0.4,-1.6,25,-38.7542,352.756,938.233,-0.252538,-0.344247,-1.6618,
2026_07_06_19_04_24.673,3.846,27.9,0,0.757,0,0,0,0.019, ,0,0,0,0,0, ,-37.5,352.7,937.7,-0.3,-0.4,-1.7,25,-38.7174,352.698,938.161,-0.258478,-0.347644,-1.66109,
2026_07_06_19_04_24.698,3.846,28,0,0.759,0,0,0,0.019, ,0,0,0,0,0, ,-39.1,353,937.7,-0.1,-0.4,-1.6,25,-38.692,352.707,938.133,-0.254914,-0.350835,-1.66041,
2026_07_06_19_04_24.713,3.846,28,0,0.759,0,0,0,0.019, ,0,0,0,0,0, ,-38,349.3,937.8,-0.2,-0.3,-1.6,25,-38.6833,352.612,938.109,-0.248521,-0.350784,-1.65673,
2026_07_06_19_04_24.732,3.846,28.1,0,0.758,0,0,0,0.019, ,0,0,0,0,0, ,-39.3,351.1,937.3,-0.3,-0.4,-1.6,25,-38.6813,352.465,938.075,-0.248611,-0.350736,-1.65327,
2026_07_06_19_04_24.752,3.846,28.1,0,0.758,0,0,0,0.018, ,0,0,0,0,0, ,-38.8,352.2,937.3,-0.3,-0.4,-1.6,25,-38.7038,352.415,938.028,-0.251742,-0.353738,-1.65003,
2026_07_06_19_04_24.771,3.846,28.1,0,0.758,0,0,0,0.018, ,0,0,0,0,0, ,-38.4,350.7,937.8,-0.3,-0.3,-1.6,25,-38.6974,352.357,937.999,-0.254683,-0.35351,-1.64698,
2026_07_06_19_04_24.792,3.846,28.1,0,0.759,0,0,0,0.019, ,0,0,0,0,0, ,-38.2,351.6,937.3,-0.4,-0.4,-1.6,25,-38.6732,352.283,937.971,-0.260492,-0.353296,-1.64411,
2026_07_06_19_04_24.812,3.846,28.2,0,0.759,0,0,0,0.019, ,0,0,0,0,0, ,-39.4,352.4,936.6,-0.5,-0.5,-1.6,25,-38.6809,352.266,937.909,-0.27204,-0.359189,-1.64143,
2026_07_06_19_04_24.831,3.846,28.2,0,0.76,0,0,0,0.018, ,0,0,0,0,0, ,-39.5,352.7,938.7,-0.4,-0.4,-1.6,25,-38.7278,352.283,937.893,-0.282884,-0.364723,-1.6389,
2026_07_06_19_04_24.851,3.846,28.2,0,0.758,0,0,0,0.018, ,0,0,0,0,0, ,-37.9,352.7,937.8,-0.3,-0.4,-1.6,25,-38.7261,352.308,937.915,-0.286974,-0.366873,-1.63653,
2026_07_06_19_04_24.877,3.846,28.2,0,0.758,0,0,0,0.018, ,0,0,0,0,0, ,-38.9,350.7,937.6,-0.3,-0.4,-1.6,25,-38.7062,352.271,937.902,-0.287768,-0.368891,-1.6343,
2026_07_06_19_04_24.891,3.846,28.3,0,0.759,0,0,0,0.019, ,0,0,0,0,0, ,-38,351.3,937.8,-0.4,-0.4,-1.6,25,-38.6906,352.194,937.89,-0.29156,-0.370787,-1.63221,
2026_07_06_19_04_24.910,3.846,28.3,0,0.758,0,0,0,0.018, ,0,0,0,0,0, ,-37.1,351.3,937.5,-0.4,-0.5,-1.6,25,-38.6211,352.139,937.875,-0.298168,-0.375614,-1.63025,
2026_07_06_19_04_24.930,3.846,28.3,0,0.759,0,0,0,0.018, ,0,0,0,0,0, ,-38.4,351.4,936.1,-0.4,-0.4,-1.6,25,-38.568,352.091,937.81,-0.304374,-0.380147,-1.62841,
2026_07_06_19_04_24.950,3.846,28.3,0,0.758,0,0,0,0.018, ,0,0,0,0,0, ,-39.4,351.1,937.5,-0.5,-0.4,-1.7,25,-38.5883,352.04,937.748,-0.313248,-0.381357,-1.62972,
2026_07_06_19_04_24.970,3.846,28.3,0,0.759,0,0,0,0.019, ,0,0,0,0,0, ,-37.5,351.4,938.2,-0.4,-0.4,-1.6,25,-38.5798,351.992,937.754,-0.321581,-0.382493,-1.63096,
2026_07_06_19_04_24.990,3.846,28.3,0,0.759,0,0,0,0.019, ,0,0,0,0,0, ,-39.4,352.6,937.3,-0.3,-0.4,-1.6,25,-38.5719,351.992,937.754,-0.323313,-0.38356,-1.62907,
2026_07_06_19_04_25.009,3.846,28.4,0,0.759,0,0,0,0.019, ,0,0,0,0,0, ,-38.2,352.5,937.7,-0.3,-0.3,-1.6,25,-38.5858,352.026,937.739,-0.321892,-0.381515,-1.6273,
2026_07_06_19_04_25.030,3.846,28.5,0,0.759,0,0,0,0.018, ,0,0,0,0,0, ,-38.5,352.7,937.6,-0.3,-0.4,-1.7,25,-38.5715,352.061,937.733,-0.320558,-0.379594,-1.62868,
2026_07_06_19_04_25.053,3.846,28.4,0,0.759,0,0,0,0.018, ,0,0,0,0,0, ,-38.2,351.3,938.1,-0.2,-0.3,-1.7,25,-38.558,352.058,937.74,-0.316258,-0.377791,-1.63303,
2026_07_06_19_04_25.068,3.846,28.4,0,0.758,0,0,0,0.019, ,0,0,0,0,0, ,-37.9,353,936.8,-0.3,-0.4,-1.6,25,-38.527,352.063,937.723,-0.312221,-0.376097,-1.63406,
2026_07_06_19_04_25.089,3.846,28.5,0,0.758,0,0,0,0.019, ,0,0,0,0,0, ,-38.2,352,938.2,-0.3,-0.5,-1.6,25,-38.4979,352.09,937.709,-0.311476,-0.380601,-1.63199,
2026_07_06_19_04_25.109,3.846,28.5,0,0.759,0,0,0,0.018, ,0,0,0,0,0, ,-38.9,352.4,937.6,-0.3,-0.4,-1.6,25,-38.5011,352.097,937.721,-0.310777,-0.38483,-1.63004,
2026_07_06_19_04_25.129,3.846,28.5,0,0.758,0,0,0,0.018, ,0,0,0,0,0, ,-38.9,352.9,937.1,-0.2,-0.4,-1.6,25,-38.5254,352.13,937.698,-0.307073,-0.385754,-1.62821,
2026_07_06_19_04_25.149,3.846,28.5,0,0.758,0,0,0,0.018, ,0,0,0,0,0, ,-39.7,352.1,936.2,-0.2,-0.4,-1.6,25,-38.5726,352.153,937.634,-0.300548,-0.386622,-1.62649,
2026_07_06_19_04_25.168,3.846,28.6,0,0.758,0,0,0,0.019, ,0,0,0,0,0, ,-38.5,352,937.5,-0.2,-0.4,-1.6,25,-38.6048,352.147,937.586,-0.294421,-0.387438,-1.62488,
2026_07_06_19_04_25.188,3.846,28.6,0,0.759,0,0,0,0.018, ,0,0,0,0,0, ,-38.5,351.8,938.3,-0.2,-0.5,-1.6,25,-38.5984,352.132,937.606,-0.288667,-0.39125,-1.62336,
2026_07_06_19_04_25.208,3.846,28.5,0,0.759,0,0,0,0.018, ,0,0,0,0,0, ,-38.6,351.5,937.7,-0.2,-0.4,-1.6,25,-38.5954,352.102,937.63,-0.283264,-0.39483,-1.62194,
2026_07_06_19_04_25.228,3.846,28.6,0,0.759,0,0,0,0.019, ,0,0,0,0,0, ,-39.1,351,938.5,-0.3,-0.4,-1.6,25,-38.6109,352.05,937.658,-0.281237,-0.395145,-1.6206,
2026_07_06_19_04_25.247,3.846,28.7,0,0.759,0,0,0,0.018, ,0,0,0,0,0, ,-37.8,352.7,936.2,-0.3,-0.4,-1.6,25,-38.6011,352.038,937.639,-0.282381,-0.395441,-1.61934,
2026_07_06_19_04_25.267,3.846,28.6,0,0.759,0,0,0,0.018, ,0,0,0,0,0, ,-38,351.6,937.2,-0.2,-0.4,-1.6,25,-38.5584,352.045,937.582,-0.280407,-0.395719,-1.61817,
2026_07_06_19_04_25.287,3.846,28.6,0,0.759,0,0,0,0.019, ,0,0,0,0,0, ,-39.5,353.2,937.7,-0.3,-0.5,-1.6,25,-38.5701,352.067,937.574,-0.278554,-0.399026,-1.61706,
2026_07_06_19_04_25.307,3.846,28.7,0,0.758,0,0,0,0.019, ,0,0,0,0,0, ,-38.3,352,937.1,-0.3,-0.4,-1.6,25,-38.5902,352.099,937.564,-0.279861,-0.402133,-1.61602,
2026_07_06_19_04_25.326,3.846,28.7,0,0.758,0,0,0,0.018, ,0,0,0,0,0, ,-38.6,351.6,939.4,-0.3,-0.3,-1.6,25,-38.5816,352.081,937.605,-0.281089,-0.398956,-1.61504,
2026_07_06_19_04_25.347,3.846,28.7,0,0.757,0,0,0,0.018, ,0,0,0,0,0, ,-39.9,351.9,937,-0.4,-0.4,-1.6,25,-38.6224,352.061,937.642,-0.285288,-0.395973,-1.61413,
2026_07_06_19_04_25.366,3.846,28.7,0,0.759,0,0,0,0.018, ,0,0,0,0,0, ,-38.4,352,937.1,-0.3,-0.4,-1.6,25,-38.6545,352.054,937.606,-0.289231,-0.396218,-1.61327,
2026_07_06_19_04_25.386,3.846,28.7,0,0.758,0,0,0,0.018, ,0,0,0,0,0, ,-37.4,351.4,937.5,-0.3,-0.4,-1.6,25,-38.6085,352.032,937.587,-0.289887,-0.396448,-1.61246,
2026_07_06_19_04_25.406,3.846,28.7,0,0.759,0,0,0,0.019, ,0,0,0,0,0, ,-39,351.4,936.4,-0.4,-0.4,-1.6,25,-38.5836,351.994,937.548,-0.293551,-0.396665,-1.6117,
2026_07_06_19_04_25.425,3.846,28.7,0,0.759,0,0,0,0.019, ,0,0,0,0,0, ,-38.6,352.5,936.1,-0.3,-0.4,-1.6,25,-38.5968,351.991,937.469,-0.29699,-0.396868,-1.61099,
2026_07_06_19_04_25.444,3.846,28.7,0,0.759,0,0,0,0.019, ,0,0,0,0,0, ,-37.3,351.9,936.1,-0.3,-0.4,-1.6,25,-38.5574,352.004,937.386,-0.297174,-0.397059,-1.61032,
2026_07_06_19_04_25.465,3.846,28.8,0,0.758,0,0,0,0.019, ,0,0,0,0,0, ,-39.3,351.1,937.8,-0.5,-0.5,-1.6,25,-38.5417,351.973,937.359,-0.30344,-0.400285,-1.60969,
2026_07_06_19_04_25.485,3.846,28.8,0,0.759,0,0,0,0.018, ,0,0,0,0,0, ,-38.6,351.1,937.6,-0.3,-0.5,-1.7,25,-38.5666,351.92,937.38,-0.309324,-0.406361,-1.61214,
2026_07_06_19_04_25.505,3.846,28.8,0,0.758,0,0,0,0.018, ,0,0,0,0,0, ,-38,352.6,937.7,-0.3,-0.5,-1.7,25,-38.5504,351.916,937.396,-0.308756,-0.412068,-1.6175,
2026_07_06_19_04_25.524,3.846,28.9,0,0.759,0,0,0,0.018, ,0,0,0,0,0, ,-38.6,353,937.8,-0.4,-0.4,-1.6,25,-38.5351,351.97,937.418,-0.311269,-0.414379,-1.61948,
2026_07_06_19_04_25.544,3.846,28.8,0,0.759,0,0,0,0.018, ,0,0,0,0,0, ,-39.1,351.3,937.3,-0.4,-0.4,-1.6,25,-38.5543,351.981,937.426,-0.316676,-0.413503,-1.61829,
2026_07_06_19_04_25.563,3.846,28.9,0,0.758,0,0,0,0.019, ,0,0,0,0,0, ,-38.8,352.5,937,-0.5,-0.4,-1.6,25,-38.5784,351.976,937.409,-0.324801,-0.41268,-1.61718,
2026_07_06_19_04_25.584,3.846,28.9,0,0.758,0,0,0,0.018, ,0,0,0,0,0, ,-37.9,352.1,938.2,-0.4,-0.4,-1.7,25,-38.5645,351.995,937.421,-0.33243,-0.411907,-1.61918,
2026_07_06_19_04_25.603,3.846,28.9,0,0.759,0,0,0,0.018, ,0,0,0,0,0, ,-38.4,353.2,937.7,-0.4,-0.4,-1.7,25,-38.5392,352.035,937.453,-0.336547,-0.411182,-1.6241,
2026_07_06_19_04_25.624,3.846,29.1,0,0.76,0,0,0,0.018, ,0,0,0,0,0, ,-39.1,352.2,937.8,-0.4,-0.5,-1.6,25,-38.5521,352.076,937.471,-0.340414,-0.413547,-1.62568,
2026_07_06_19_04_25.643,3.846,28.9,0,0.759,0,0,0,0.017, ,0,0,0,0,0, ,-38.3,352.7,937.9,-0.4,-0.4,-1.7,25,-38.5611,352.099,937.494,-0.344045,-0.415769,-1.62716,
2026_07_06_19_04_25.663,3.846,28.9,0,0.759,0,0,0,0.018, ,0,0,0,0,0, ,-37.9,352.9,936.6,-0.4,-0.4,-1.7,25,-38.533,352.141,937.479,-0.347455,-0.414808,-1.6316,
2026_07_06_19_04_25.682,3.846,28.9,0,0.76,0,0,0,0.019, ,0,0,0,0,0, ,-39.7,352.9,937.9,-0.3,-0.5,-1.6,25,-38.5493,352.188,937.465,-0.34761,-0.416952,-1.63272,
2026_07_06_19_04_25.703,3.846,28.8,0,0.759,0,0,0,0.019, ,0,0,0,0,0, ,-36.6,352.2,937.7,-0.3,-0.5,-1.6,25,-38.5249,352.21,937.486,-0.344709,-0.422013,-1.63073,
2026_07_06_19_04_25.722,3.846,29.1,0,0.757,0,0,0,0.02, ,0,0,0,0,0, ,-39.4,351,936.6,-0.2,-0.4,-1.6,25,-38.4929,352.173,937.465,-0.338937,-0.423718,-1.62886,
2026_07_06_19_04_25.742,3.846,29.2,0,0.759,0,0,0,0.017, ,0,0,0,0,0, ,-37.7,351.8,937.1,-0.3,-0.4,-1.6,25,-38.4964,352.125,937.428,-0.333518,-0.422273,-1.6271,
2026_07_06_19_04_25.762,3.846,29.1,0,0.761,0,0,0,0.017, ,0,0,0,0,0, ,-38.9,352.6,938.4,-0.3,-0.5,-1.7,25,-38.4845,352.13,937.447,-0.331475,-0.423963,-1.62849,
2026_07_06_19_04_25.781,3.846,29.2,0,0.759,0,0,0,0.017, ,0,0,0,0,0, ,-37.7,352.6,937.9,-0.1,-0.4,-1.6,25,-38.4732,352.159,937.49,-0.323464,-0.425549,-1.6298,
2026_07_06_19_04_25.801,3.846,29.2,0,0.759,0,0,0,0.017, ,0,0,0,0,0, ,-38.9,351.9,938.3,-0.3,-0.4,-1.6,25,-38.4627,352.164,937.527,-0.31594,-0.423992,-1.62799,
2026_07_06_19_04_25.822,3.846,29.1,0,0.759,0,0,0,0.017, ,0,0,0,0,0, ,-38.2,350.9,936.8,-0.2,-0.4,-1.6,25,-38.468,352.118,937.529,-0.311922,-0.42253,-1.62628,
2026_07_06_19_04_25.842,3.846,28.9,0,0.76,0,0,0,0.018, ,0,0,0,0,0, ,-39.3,353.5,936,-0.3,-0.3,-1.6,25,-38.4852,352.123,937.46,-0.308148,-0.418111,-1.62468,
2026_07_06_19_04_25.861,3.846,29.2,0,0.76,0,0,0,0.019, ,0,0,0,0,0, ,-38.3,350.9,937.1,-0.2,-0.4,-1.7,25,-38.5044,352.127,937.405,-0.304605,-0.41396,-1.62622,
2026_07_06_19_04_25.880,3.846,29.3,0,0.759,0,0,0,0.017, ,0,0,0,0,0, ,-39.6,352.5,938.2,-0.3,-0.4,-1.6,25,-38.5315,352.101,937.419,-0.301277,-0.413109,-1.62767,
2026_07_06_19_04_25.901,3.846,29.3,0,0.76,0,0,0,0.016, ,0,0,0,0,0, ,-38.3,351.4,937.8,-0.3,-0.4,-1.6,25,-38.557,352.092,937.455,-0.3012,-0.412311,-1.62599,
2026_07_06_19_04_25.920,3.846,29.1,0,0.758,0,0,0,0.016, ,0,0,0,0,0, ,-38.9,350.5,937.2,-0.2,-0.4,-1.6,25,-38.5596,352.023,937.458,-0.29808,-0.41156,-1.6244,
2026_07_06_19_04_25.940,3.846,29.2,0,0.758,0,0,0,0.018, ,0,0,0,0,0, ,-39.9,351.9,938.5,-0.3,-0.4,-1.6,25,-38.6108,351.972,937.482,-0.29515,-0.410856,-1.62292,
2026_07_06_19_04_25.960,3.846,29.1,0,0.759,0,0,0,0.017, ,0,0,0,0,0, ,-39.3,350.9,935.4,-0.3,-0.4,-1.6,25,-38.6711,351.938,937.449,-0.295445,-0.410194,-1.62152,
2026_07_06_19_04_25.980,3.846,29.2,0,0.758,0,0,0,0.018, ,0,0,0,0,0, ,-39.9,352.6,937.1,-0.3,-0.4,-1.6,25,-38.7277,351.926,937.376,-0.295723,-0.409573,-1.62021,
2026_07_06_19_04_25.999,3.846,29.1,0,0.759,0,0,0,0.018, ,0,0,0,0,0, ,-38,352.5,936.8,-0.4,-0.4,-1.7,25,-38.7413,351.964,937.35,-0.29903,-0.40899,-1.62202,
2026_07_06_19_04_26.019,3.846,29.2,0,0.758,0,0,0,0.018, ,0,0,0,0,0, ,-37.4,351.4,937.2,-0.4,-0.4,-1.6,25,-38.6778,351.963,937.329,-0.305183,-0.408442,-1.62373,
2026_07_06_19_04_26.039,3.846,29.3,0,0.76,0,0,0,0.018, ,0,0,0,0,0, ,-38.2,352.2,937.6,-0.3,-0.4,-1.7,25,-38.6243,351.953,937.333,-0.307914,-0.407928,-1.62533,
2026_07_06_19_04_26.059,3.846,29.1,0,0.759,0,0,0,0.017, ,0,0,0,0,0, ,-38.4,352.2,937.2,-0.4,-0.4,-1.6,25,-38.6046,351.968,937.337,-0.310479,-0.407444,-1.62683,
2026_07_06_19_04_26.078,3.846,29.2,0,0.759,0,0,0,0.019, ,0,0,0,0,0, ,-39.6,352,938.8,-0.3,-0.4,-1.7,25,-38.6287,351.976,937.378,-0.312887,-0.406991,-1.62824,
2026_07_06_19_04_26.099,3.846,29.3,0,0.759,0,0,0,0.018, ,0,0,0,0,0, ,-37.5,351.4,939,-0.5,-0.4,-1.6,25,-38.6239,351.96,937.47,-0.318196,-0.406565,-1.62957,
2026_07_06_19_04_26.119,3.846,29.3,0,0.758,0,0,0,0.017, ,0,0,0,0,0, ,-37.7,352.7,937.1,-0.3,-0.4,-1.6,25,-38.5615,351.965,937.506,-0.323181,-0.406165,-1.62777,
2026_07_06_19_04_26.138,3.846,29.3,0,0.758,0,0,0,0.017, ,0,0,0,0,0, ,-38.8,352.1,938.1,-0.5,-0.5,-1.7,25,-38.5425,351.992,937.511,-0.327862,-0.408836,-1.62912,
2026_07_06_19_04_26.157,3.846,29.3,0,0.759,0,0,0,0.017, ,0,0,0,0,0, ,-38.2,351.4,936.8,-0.5,-0.4,-1.6,25,-38.5399,351.977,937.508,-0.338351,-0.411344,-1.63039,
2026_07_06_19_04_26.177,3.846,29.3,0,0.758,0,0,0,0.017, ,0,0,0,0,0, ,-40,351.5,936.5,-0.5,-0.3,-1.6,25,-38.574,351.945,937.455,-0.348202,-0.407606,-1.62854,
2026_07_06_19_04_26.197,3.846,29.3,0,0.759,0,0,0,0.018, ,0,0,0,0,0, ,-38.8,353.2,936.7,-0.5,-0.4,-1.7,25,-38.6244,351.969,937.403,-0.357452,-0.404096,-1.62985,
2026_07_06_19_04_26.218,3.846,29.4,0,0.758,0,0,0,0.018, ,0,0,0,0,0, ,-38.6,353.6,937.3,-0.4,-0.4,-1.6,25,-38.629,352.057,937.379,-0.363092,-0.403846,-1.63108,
2026_07_06_19_04_26.238,3.846,29.4,0,0.759,0,0,0,0.017, ,0,0,0,0,0, ,-38,352.2,937.5,-0.5,-0.4,-1.6,25,-38.6089,352.108,937.38,-0.368388,-0.403612,-1.62918,
2026_07_06_19_04_26.258,3.846,29.4,0,0.759,0,0,0,0.017, ,0,0,0,0,0, ,-38.6,352.7,937.5,-0.4,-0.4,-1.7,25,-38.5901,352.129,937.387,-0.373361,-0.403392,-1.63045,
2026_07_06_19_04_26.277,3.846,29.4,0,0.759,0,0,0,0.017, ,0,0,0,0,0, ,-37.7,352.2,938.2,-0.4,-0.4,-1.6,25,-38.5633,352.148,937.416,-0.374984,-0.403185,-1.63164,
2026_07_06_19_04_26.297,3.846,29.4,0,0.759,0,0,0,0.017, ,0,0,0,0,0, ,-39.3,352.1,938.3,-0.4,-0.4,-1.7,25,-38.5594,352.148,937.466,-0.376509,-0.402991,-1.63276,
2026_07_06_19_04_26.317,3.846,29.5,0,0.758,0,0,0,0.017, ,0,0,0,0,0, ,-38.4,353,937.9,-0.4,-0.4,-1.6,25,-38.5771,352.173,937.505,-0.37794,-0.402809,-1.63381,
2026_07_06_19_04_26.337,3.846,29.4,0,0.759,0,0,0,0.016, ,0,0,0,0,0, ,-37.7,352.7,938.1,-0.4,-0.4,-1.7,25,-38.545,352.214,937.535,-0.379284,-0.402638,-1.6348,
2026_07_06_19_04_26.355,3.846,29.5,0,0.759,0,0,0,0.017, ,0,0,0,0,0, ,-38.2,352.5,935.9,-0.4,-0.4,-1.7,25,-38.5088,352.238,937.503,-0.380547,-0.402477,-1.63877,
2026_07_06_19_04_26.380,3.846,29.4,0,0.76,0,0,0,0.016, ,0,0,0,0,0, ,-36.7,353.5,937,-0.4,-0.4,-1.6,25,-38.4442,352.284,937.438,-0.381732,-0.402326,-1.63946,
2026_07_06_19_04_26.395,3.846,29.4,0,0.758,0,0,0,0.017, ,0,0,0,0,0, ,-38.6,351.6,936,-0.3,-0.4,-1.7,25,-38.3958,352.3,937.381,-0.379799,-0.402184,-1.6401,
2026_07_06_19_04_26.416,3.846,29.5,0,0.76,0,0,0,0.017, ,0,0,0,0,0, ,-39.6,351.4,937,-0.3,-0.3,-1.6,25,-38.4387,352.252,937.328,-0.374936,-0.399004,-1.6407,
2026_07_06_19_04_26.436,3.846,29.5,0,0.758,0,0,0,0.017, ,0,0,0,0,0, ,-38.6,352,937.7,-0.3,-0.3,-1.7,25,-38.479,352.218,937.329,-0.370369,-0.392971,-1.64127,
2026_07_06_19_04_26.456,3.846,29.5,0,0.76,0,0,0,0.017, ,0,0,0,0,0, ,-39.4,352.5,937.2,-0.3,-0.4,-1.6,25,-38.5108,352.22,937.336,-0.366081,-0.390353,-1.6418,
2026_07_06_19_04_26.475,3.846,29.5,0,0.759,0,0,0,0.017, ,0,0,0,0,0, ,-38.5,351.4,936.5,-0.4,-0.4,-1.6,25,-38.5376,352.203,937.307,-0.365101,-0.39094,-1.63925,
2026_07_06_19_04_26.494,3.846,29.6,0,0.758,0,0,0,0.017, ,0,0,0,0,0, ,-38.5,351,937.5,-0.3,-0.4,-1.6,25,-38.5353,352.142,937.288,-0.364181,-0.391493,-1.63686,
2026_07_06_19_04_26.515,3.846,29.5,0,0.758,0,0,0,0.016, ,0,0,0,0,0, ,-38.3,352.1,937.3,-0.4,-0.4,-1.7,25,-38.527,352.106,937.295,-0.363317,-0.392011,-1.63766,
2026_07_06_19_04_26.534,3.846,29.6,0,0.759,0,0,0,0.017, ,0,0,0,0,0, ,-37.9,353,938.2,-0.4,-0.3,-1.7,25,-38.501,352.133,937.323,-0.365552,-0.389451,-1.64146,
2026_07_06_19_04_26.553,3.846,29.5,0,0.76,0,0,0,0.016, ,0,0,0,0,0, ,-38.6,352.4,937,-0.3,-0.3,-1.6,25,-38.4857,352.168,937.339,-0.364605,-0.384,-1.64198,
2026_07_06_19_04_26.574,3.846,29.5,0,0.759,0,0,0,0.017, ,0,0,0,0,0, ,-39.4,352.7,937,-0.4,-0.4,-1.6,25,-38.517,352.191,937.319,-0.363715,-0.381928,-1.63942,
2026_07_06_19_04_26.595,3.846,29.5,0,0.76,0,0,0,0.017, ,0,0,0,0,0, ,-38.6,352.7,938.4,-0.5,-0.4,-1.7,25,-38.5465,352.222,937.342,-0.368973,-0.383029,-1.64007,
2026_07_06_19_04_26.614,3.846,29.7,0,0.758,0,0,0,0.017, ,0,0,0,0,0, ,-38.6,350.8,937.2,-0.5,-0.4,-1.7,25,-38.5497,352.193,937.37,-0.376957,-0.384064,-1.64372,
2026_07_06_19_04_26.633,3.846,29.7,0,0.759,0,0,0,0.015, ,0,0,0,0,0, ,-37.5,351.6,938.3,-0.5,-0.4,-1.6,25,-38.5193,352.133,937.393,-0.384455,-0.385035,-1.6441,
2026_07_06_19_04_26.652,3.846,29.7,0,0.76,0,0,0,0.015, ,0,0,0,0,0, ,-38.4,351.3,936.5,-0.4,-0.4,-1.6,25,-38.4846,352.091,937.393,-0.388449,-0.385947,-1.64142,
2026_07_06_19_04_26.673,3.846,29.7,0,0.76,0,0,0,0.016, ,0,0,0,0,0, ,-38.2,352.6,938.5,-0.4,-0.4,-1.6,25,-38.4733,352.083,937.4,-0.389153,-0.386803,-1.63889,
2026_07_06_19_04_26.693,3.846,29.7,0,0.759,0,0,0,0.016, ,0,0,0,0,0, ,-38.8,352.6,938.1,-0.4,-0.4,-1.6,25,-38.475,352.114,937.455,-0.389814,-0.387607,-1.63652,
2026_07_06_19_04_26.712,3.846,29.7,0,0.758,0,0,0,0.016, ,0,0,0,0,0, ,-38,352.9,936.8,-0.4,-0.4,-1.6,25,-38.4704,352.153,937.455,-0.390435,-0.388362,-1.6343,
2026_07_06_19_04_26.732,3.846,29.7,0,0.759,0,0,0,0.016, ,0,0,0,0,0, ,-38.4,353.8,936,-0.5,-0.4,-1.6,25,-38.4539,352.226,937.39,-0.394065,-0.389072,-1.63221,
2026_07_06_19_04_26.751,3.846,29.7,0,0.76,0,0,0,0.016, ,0,0,0,0,0, ,-38.9,351.3,936.8,-0.4,-0.3,-1.7,25,-38.4659,352.246,937.33,-0.397473,-0.386691,-1.63329,
2026_07_06_19_04_26.772,3.846,29.7,0,0.76,0,0,0,0.016, ,0,0,0,0,0, ,-37.9,352.5,938.5,-0.4,-0.4,-1.7,25,-38.4619,352.225,937.349,-0.397627,-0.384455,-1.63736,
2026_07_06_19_04_26.792,3.846,29.7,0,0.759,0,0,0,0.016, ,0,0,0,0,0, ,-38.6,351.6,936.8,-0.4,-0.4,-1.6,25,-38.4489,352.214,937.368,-0.397772,-0.385402,-1.63813,
2026_07_06_19_04_26.816,3.846,29.7,0,0.759,0,0,0,0.016, ,0,0,0,0,0, ,-38.4,352.4,938.1,-0.4,-0.4,-1.7,25,-38.4521,352.201,937.373,-0.397907,-0.386292,-1.63885,
2026_07_06_19_04_26.832,3.846,29.7,0,0.76,0,0,0,0.016, ,0,0,0,0,0, ,-38.5,352.4,936.8,-0.4,-0.3,-1.7,25,-38.4519,352.213,937.377,-0.398035,-0.38408,-1.64258,
2026_07_06_19_04_26.850,3.846,29.8,0,0.76,0,0,0,0.016, ,0,0,0,0,0, ,-38.5,354,936.5,-0.3,-0.4,-1.6,25,-38.4549,352.273,937.333,-0.395108,-0.382003,-1.64303,
2026_07_06_19_04_26.871,3.846,29.8,0,0.759,0,0,0,0.015, ,0,0,0,0,0, ,-37.2,352.1,936.5,-0.3,-0.5,-1.6,25,-38.418,352.32,937.282,-0.389312,-0.386147,-1.64041,
2026_07_06_19_04_26.891,3.846,29.8,0,0.76,0,0,0,0.015, ,0,0,0,0,0, ,-39,353.1,937.6,-0.3,-0.3,-1.7,25,-38.3986,352.338,937.268,-0.38387,-0.386991,-1.64099,
2026_07_06_19_04_26.911,3.846,29.7,0,0.759,0,0,0,0.015, ,0,0,0,0,0, ,-38.6,352.1,936.5,-0.4,-0.4,-1.6,25,-38.4231,352.354,937.255,-0.381806,-0.384737,-1.64154,
2026_07_06_19_04_26.930,3.846,29.8,0,0.76,0,0,0,0.016, ,0,0,0,0,0, ,-38.3,352.5,938.4,-0.3,-0.4,-1.6,25,-38.4247,352.35,937.267,-0.379868,-0.385667,-1.63901,
2026_07_06_19_04_26.950,3.846,29.7,0,0.759,0,0,0,0.015, ,0,0,0,0,0, ,-39.6,353.8,936.1,-0.3,-0.4,-1.7,25,-38.4567,352.399,937.266,-0.375001,-0.38654,-1.63968,
2026_07_06_19_04_26.970,3.846,29.8,0,0.759,0,0,0,0.016, ,0,0,0,0,0, ,-38.8,352.2,939.5,-0.3,-0.4,-1.6,25,-38.502,352.436,937.298,-0.37043,-0.387361,-1.64031,
2026_07_06_19_04_26.989,3.846,29.8,0,0.76,0,0,0,0.015, ,0,0,0,0,0, ,-39.4,350.8,937.6,-0.2,-0.4,-1.6,25,-38.5385,352.379,937.375,-0.363092,-0.388131,-1.63785,
2026_07_06_19_04_27.010,3.846,29.8,0,0.76,0,0,0,0.015, ,0,0,0,0,0, ,-38.2,351.4,936.4,-0.3,-0.4,-1.7,25,-38.5544,352.301,937.352,-0.3562,-0.388854,-1.63859,
2026_07_06_19_04_27.031,3.846,29.8,0,0.76,0,0,0,0.015, ,0,0,0,0,0, ,-37.9,353.2,937,-0.2,-0.4,-1.6,25,-38.5237,352.301,937.312,-0.349729,-0.389533,-1.63929,
2026_07_06_19_04_27.049,3.846,29.8,0,0.76,0,0,0,0.015, ,0,0,0,0,0, ,-38.8,352.5,936.7,-0.5,-0.4,-1.6,25,-38.5131,352.334,937.284,-0.349745,-0.390171,-1.63689,
2026_07_06_19_04_27.069,3.846,29.9,0,0.76,0,0,0,0.015, ,0,0,0,0,0, ,-38.2,351.6,936.7,-0.5,-0.4,-1.7,25,-38.5123,352.317,937.248,-0.358901,-0.39077,-1.63769,
2026_07_06_19_04_27.088,3.846,29.8,0,0.76,0,0,0,0.014, ,0,0,0,0,0, ,-37.9,352.9,937.2,-0.4,-0.4,-1.6,25,-38.4841,352.313,937.23,-0.364453,-0.391333,-1.63844,
2026_07_06_19_04_27.109,3.846,29.9,0,0.759,0,0,0,0.015, ,0,0,0,0,0, ,-38.6,353,937.7,-0.4,-0.4,-1.6,25,-38.4698,352.352,937.244,-0.366619,-0.391861,-1.6361,
2026_07_06_19_04_27.129,3.846,29.9,0,0.759,0,0,0,0.015, ,0,0,0,0,0, ,-37.7,352.1,937.7,-0.4,-0.4,-1.6,25,-38.4504,352.364,937.271,-0.368653,-0.392357,-1.6339,
2026_07_06_19_04_27.149,3.846,29.9,0,0.758,0,0,0,0.014, ,0,0,0,0,0, ,-38.5,352.5,937.8,-0.5,-0.4,-1.6,25,-38.429,352.36,937.301,-0.37361,-0.392822,-1.63183,
2026_07_06_19_04_27.168,3.846,29.9,0,0.758,0,0,0,0.015, ,0,0,0,0,0, ,-39.3,352.6,936.5,-0.4,-0.4,-1.6,25,-38.4577,352.371,937.291,-0.378265,-0.39326,-1.62989,
2026_07_06_19_04_27.188,3.846,30,0,0.759,0,0,0,0.015, ,0,0,0,0,0, ,-38.3,351.5,938.3,-0.4,-0.4,-1.6,25,-38.4786,352.352,937.298,-0.379589,-0.393671,-1.62807,
2026_07_06_19_04_27.207,3.846,30,0,0.76,0,0,0,0.014, ,0,0,0,0,0, ,-38.5,352.9,937.3,-0.4,-0.4,-1.7,25,-38.4738,352.343,937.329,-0.380833,-0.394056,-1.62941,
2026_07_06_19_04_27.227,3.846,29.9,0,0.759,0,0,0,0, ,0,0,0,0,0, ,-37.9,352,938.2,-0.4,-0.4,-1.6,25,-38.4571,352.349,937.354,-0.382001,-0.394418,-1.63066,
2026_07_06_19_04_27.247,3.846,30,0,0.76,0,0,0,0, ,0,0,0,0,0, ,-38.2,353.3,938.8,-0.3,-0.4,-1.7,25,-38.4323,352.367,937.424,-0.380051,-0.394759,-1.63184,
2026_07_06_19_04_27.267,3.846,30,0,0.76,0,0,0,0, ,0,0,0,0,0, ,-37.5,352.4,938.7,-0.3,-0.4,-1.6,25,-38.3968,352.397,937.505,-0.375173,-0.395078,-1.63295,
2026_07_06_19_04_27.286,3.846,29.9,0,0.759,0,0,0,0, ,0,0,0,0,0, ,-39,353.3,937.9,-0.4,-0.3,-1.7,25,-38.3879,352.424,937.553,-0.373639,-0.392331,-1.63399,
2026_07_06_19_04_27.306,3.846,30,0,0.76,0,0,0,0, ,0,0,0,0,0, ,-39.3,353.8,937.1,-0.4,-0.4,-1.7,25,-38.4343,352.493,937.55,-0.375245,-0.389752,-1.63801,
2026_07_06_19_04_27.326,3.846,30,0,0.76,0,0,0,0, ,0,0,0,0,0, ,-39.6,352.1,936.2,-0.4,-0.4,-1.6,25,-38.4962,352.521,937.495,-0.376754,-0.390376,-1.63874,
2026_07_06_19_04_27.346,3.846,29.9,0,0.759,0,0,0,0, ,0,0,0,0,0, ,-37.7,353.8,937.8,-0.3,-0.4,-1.6,25,-38.5056,352.547,937.465,-0.375124,-0.390962,-1.63638,
2026_07_06_19_04_27.365,3.846,30,0,0.759,0,0,0,0, ,0,0,0,0,0, ,-37.8,352.4,938.2,-0.3,-0.5,-1.6,25,-38.4595,352.581,937.498,-0.370546,-0.39456,-1.63416,
2026_07_06_19_04_27.385,3.846,30,0,0.758,0,0,0,0, ,0,0,0,0,0, ,-39,353.8,937,-0.2,-0.4,-1.7,25,-38.4559,352.612,937.504,-0.3632,-0.397938,-1.63513,
2026_07_06_19_04_27.405,3.846,29.9,0,0.76,0,0,0,0, ,0,0,0,0,0, ,-38.4,353,937.7,-0.3,-0.4,-1.6,25,-38.4708,352.66,937.495,-0.356302,-0.398064,-1.63603,
2026_07_06_19_04_27.425,3.846,30,0,0.759,0,0,0,0, ,0,0,0,0,0, ,-38.6,352.9,937.5,-0.2,-0.4,-1.6,25,-38.4726,352.678,937.501,-0.349824,-0.398182,-1.63384,
2026_07_06_19_04_27.444,3.846,29.9,0,0.759,0,0,0,0, ,0,0,0,0,0, ,-38.8,352.5,937.3,-0.2,-0.4,-1.6,25,-38.4864,352.679,937.495,-0.340694,-0.398293,-1.63178,
2026_07_06_19_04_27.465,3.846,29.8,0,0.76,0,0,0,0, ,0,0,0,0,0, ,-38.9,351.8,936.2,-0.2,-0.3,-1.6,25,-38.5086,352.647,937.449,-0.332121,-0.39535,-1.62984,
2026_07_06_19_04_27.485,3.846,30,0,0.759,0,0,0,0.001, ,0,0,0,0,0, ,-39.7,351.6,937.5,-0.3,-0.5,-1.6,25,-38.5568,352.589,937.413,-0.327116,-0.395633,-1.62802,
2026_07_06_19_04_27.504,3.846,30,0,0.758,0,0,0,0, ,0,0,0,0,0, ,-38.8,352,936.7,-0.4,-0.4,-1.6,25,-38.599,352.541,937.394,-0.328511,-0.398946,-1.62631,
2026_07_06_19_04_27.524,3.846,29.9,0,0.759,0,0,0,0, ,0,0,0,0,0, ,-39.7,351.9,937.8,-0.2,-0.4,-1.7,25,-38.6387,352.505,937.385,-0.326774,-0.399011,-1.62776,
2026_07_06_19_04_27.543,3.846,30,0,0.76,0,0,0,0, ,0,0,0,0,0, ,-38.6,350.3,937.1,-0.2,-0.5,-1.7,25,-38.6699,352.42,937.389,-0.319048,-0.402118,-1.63216,
2026_07_06_19_04_27.563,3.846,30.1,0,0.76,0,0,0,0, ,0,0,0,0,0, ,-37.2,351.9,937.5,-0.1,-0.4,-1.6,25,-38.623,352.339,937.384,-0.308747,-0.405036,-1.63325,
2026_07_06_19_04_27.583,3.846,30,0,0.76,0,0,0,0, ,0,0,0,0,0, ,-38.9,350.5,936.5,-0.3,-0.4,-1.7,25,-38.588,352.27,937.36,-0.30212,-0.404729,-1.63427,
2026_07_06_19_04_27.604,3.846,30,0,0.76,0,0,0,0, ,0,0,0,0,0, ,-39.7,352.9,937.7,-0.2,-0.4,-1.7,25,-38.6314,352.235,937.344,-0.298944,-0.404441,-1.63827,
2026_07_06_19_04_27.623,3.846,30,0,0.759,0,0,0,0, ,0,0,0,0,0, ,-38.6,352.1,938.4,-0.2,-0.4,-1.6,25,-38.663,352.251,937.387,-0.292915,-0.40417,-1.63899,
2026_07_06_19_04_27.643,3.846,30,0,0.76,0,0,0,0, ,0,0,0,0,0, ,-39.1,352.2,938.5,-0.3,-0.4,-1.6,25,-38.6744,352.245,937.452,-0.2903,-0.403916,-1.63661,
2026_07_06_19_04_27.662,3.846,30,0,0.759,0,0,0,0, ,0,0,0,0,0, ,-38.6,352.9,937.9,-0.4,-0.4,-1.6,25,-38.6851,352.264,937.498,-0.293938,-0.403677,-1.63438,
2026_07_06_19_04_27.683,3.846,29.9,0,0.76,0,0,0,0, ,0,0,0,0,0, ,-38.6,352.2,937.9,-0.3,-0.4,-1.7,25,-38.6799,352.281,937.522,-0.297354,-0.403453,-1.63533,
2026_07_06_19_04_27.703,3.846,29.9,0,0.76,0,0,0,0, ,0,0,0,0,0, ,-37.9,351.5,937.3,-0.3,-0.4,-1.7,25,-38.6537,352.255,937.527,-0.297515,-0.403243,-1.63927,
2026_07_06_19_04_27.722,3.846,30,0,0.758,0,0,0,0, ,0,0,0,0,0, ,-38.6,352.5,938.2,-0.3,-0.4,-1.7,25,-38.6291,352.239,937.541,-0.297667,-0.403045,-1.64297,
2026_07_06_19_04_27.742,3.846,30,0,0.758,0,0,0,0, ,0,0,0,0,0, ,-37.8,352.2,935.9,-0.3,-0.4,-1.7,25,-38.603,352.246,937.511,-0.297809,-0.40286,-1.64645,
2026_07_06_19_04_27.762,3.846,30,0,0.758,0,0,0,0, ,0,0,0,0,0, ,-37.5,352.5,937.8,-0.3,-0.4,-1.6,25,-38.5449,352.252,937.47,-0.297942,-0.402685,-1.64667,
2026_07_06_19_04_27.782,3.846,29.9,0,0.758,0,0,0,0, ,0,0,0,0,0, ,-39,353.7,937.6,-0.4,-0.4,-1.6,25,-38.5269,352.304,937.484,-0.301115,-0.402522,-1.64382,
2026_07_06_19_04_27.801,3.846,29.9,0,0.76,0,0,0,0, ,0,0,0,0,0, ,-37.4,353.1,938.7,-0.3,-0.4,-1.6,25,-38.507,352.371,937.525,-0.304093,-0.402368,-1.64115,
2026_07_06_19_04_27.821,3.846,30,0,0.759,0,0,0,0, ,0,0,0,0,0, ,-38.3,352.2,938.1,-0.3,-0.4,-1.6,25,-38.467,352.388,937.578,-0.303844,-0.402224,-1.63864,
2026_07_06_19_04_27.841,3.846,30,0,0.76,0,0,0,0, ,0,0,0,0,0, ,-37.4,352,937.5,-0.2,-0.4,-1.6,25,-38.4294,352.37,937.592,-0.300563,-0.402088,-1.63629,
2026_07_06_19_04_27.861,3.846,30,0,0.759,0,0,0,0, ,0,0,0,0,0, ,-39.1,352,937.8,-0.3,-0.3,-1.7,25,-38.4184,352.348,937.595,-0.297482,-0.398914,-1.63712,
2026_07_06_19_04_27.881,3.846,30,0,0.757,0,0,0,0, ,0,0,0,0,0, ,-38,351.5,938.3,-0.3,-0.4,-1.6,25,-38.4265,352.311,937.623,-0.297635,-0.395933,-1.63791,
2026_07_06_19_04_27.901,3.846,30,0,0.759,0,0,0,0, ,0,0,0,0,0, ,-39.4,351.4,936.6,-0.2,-0.4,-1.7,25,-38.4431,352.259,937.612,-0.294732,-0.396181,-1.63865,
2026_07_06_19_04_27.919,3.846,30,0,0.758,0,0,0,0, ,0,0,0,0,0, ,-38.5,352.1,937.2,-0.3,-0.4,-1.7,25,-38.474,352.228,937.569,-0.292007,-0.396414,-1.64238,
2026_07_06_19_04_27.939,3.846,30,0,0.759,0,0,0,0, ,0,0,0,0,0, ,-38.3,352.2,935.9,-0.2,-0.3,-1.7,25,-38.4695,352.223,937.507,-0.289447,-0.393586,-1.6459,
2026_07_06_19_04_27.959,3.846,30,0,0.76,0,0,0,0, ,0,0,0,0,0, ,-38.3,352.1,938.2,-0.3,-0.4,-1.6,25,-38.4592,352.219,937.479,-0.287043,-0.39093,-1.64615,
2026_07_06_19_04_27.978,3.846,30,0,0.759,0,0,0,0, ,0,0,0,0,0, ,-38.9,352.4,937,-0.3,-0.4,-1.6,25,-38.4678,352.221,937.486,-0.287833,-0.391482,-1.64333,
2026_07_06_19_04_27.999,3.846,30,0,0.758,0,0,0,0, ,0,0,0,0,0, ,-39.1,352.2,936.5,-0.3,-0.3,-1.7,25,-38.5002,352.225,937.442,-0.288574,-0.388954,-1.64374,
2026_07_06_19_04_28.019,3.846,30,0,0.758,0,0,0,0, ,0,0,0,0,0, ,-38.3,351.9,937.2,-0.4,-0.5,-1.7,25,-38.5124,352.215,937.406,-0.292317,-0.389628,-1.64717,
2026_07_06_19_04_28.038,3.846,30,0,0.76,0,0,0,0, ,0,0,0,0,0, ,-38.8,351.3,937,-0.3,-0.4,-1.6,25,-38.5147,352.177,937.387,-0.295832,-0.393306,-1.64734,
2026_07_06_19_04_28.058,3.846,30,0,0.758,0,0,0,0, ,0,0,0,0,0, ,-38.6,352.2,936.7,-0.4,-0.5,-1.6,25,-38.526,352.151,937.354,-0.299133,-0.396761,-1.64446,
2026_07_06_19_04_28.078,3.846,29.9,0,0.759,0,0,0,0, ,0,0,0,0,0, ,-38.8,350.9,937.7,-0.4,-0.4,-1.7,25,-38.5366,352.115,937.345,-0.30528,-0.400005,-1.64479,
2026_07_06_19_04_28.098,3.846,30,0,0.76,0,0,0,0, ,0,0,0,0,0, ,-38.4,351.8,936.1,-0.4,-0.4,-1.7,25,-38.5404,352.068,937.318,-0.311052,-0.400005,-1.64816,
2026_07_06_19_04_28.117,3.846,30,0,0.76,0,0,0,0, ,0,0,0,0,0, ,-38.6,351.9,937.9,-0.4,-0.5,-1.7,25,-38.538,352.055,937.298,-0.316472,-0.403052,-1.65132,
2026_07_06_19_04_28.144,3.846,30,0,0.76,0,0,0,0, ,0,0,0,0,0, ,-38.3,350.7,939.5,-0.3,-0.4,-1.6,25,-38.5326,352.009,937.384,-0.318515,-0.405913,-1.65124,
2026_07_06_19_04_28.158,3.846,30,0,0.758,0,0,0,0, ,0,0,0,0,0, ,-39,352.1,938.7,-0.5,-0.3,-1.6,25,-38.5398,351.972,937.488,-0.323481,-0.402505,-1.64811,
2026_07_06_19_04_28.178,3.846,30,0,0.761,0,0,0,0, ,0,0,0,0,0, ,-39.7,352.9,936.8,-0.5,-0.4,-1.6,25,-38.5891,352.004,937.504,-0.334237,-0.399306,-1.64518,
2026_07_06_19_04_28.197,3.846,30,0,0.76,0,0,0,0, ,0,0,0,0,0, ,-38.9,351.8,938.4,-0.4,-0.4,-1.6,25,-38.6325,352.025,937.51,-0.341291,-0.399348,-1.64243,
2026_07_06_19_04_28.217,3.846,30.1,0,0.759,0,0,0,0, ,0,0,0,0,0, ,-37.3,351.4,937.7,-0.5,-0.5,-1.6,25,-38.6,351.999,937.543,-0.347916,-0.402435,-1.63984,
2026_07_06_19_04_28.236,3.846,30,0,0.759,0,0,0,0, ,0,0,0,0,0, ,-37.5,351.6,937.9,-0.4,-0.4,-1.6,25,-38.5269,351.969,937.559,-0.354137,-0.405333,-1.63742,
2026_07_06_19_04_28.256,3.846,30,0,0.757,0,0,0,0, ,0,0,0,0,0, ,-37.4,352.4,937.6,-0.5,-0.5,-1.6,25,-38.4613,351.971,937.57,-0.359978,-0.408055,-1.63514,
2026_07_06_19_04_28.277,3.846,30,0,0.759,0,0,0,0, ,0,0,0,0,0, ,-38.5,352.4,938.3,-0.4,-0.4,-1.6,25,-38.4301,351.997,937.593,-0.365464,-0.410611,-1.63299,
2026_07_06_19_04_28.296,3.846,30,0,0.759,0,0,0,0, ,0,0,0,0,0, ,-39.3,352.5,937.3,-0.3,-0.4,-1.6,25,-38.4587,352.024,937.606,-0.364522,-0.409965,-1.63098,
2026_07_06_19_04_28.316,3.846,30.1,0,0.76,0,0,0,0, ,0,0,0,0,0, ,-38.4,351.3,937.3,-0.4,-0.4,-1.6,25,-38.4826,352.017,937.587,-0.363637,-0.409357,-1.6291,
2026_07_06_19_04_28.335,3.846,30,0,0.76,0,0,0,0, ,0,0,0,0,0, ,-38.9,353.1,937.2,-0.4,-0.4,-1.7,25,-38.4928,352.028,937.567,-0.365853,-0.408787,-1.63037,
2026_07_06_19_04_28.356,3.846,30,0,0.761,0,0,0,0, ,0,0,0,0,0, ,-38.3,352,937.1,-0.3,-0.3,-1.6,25,-38.4993,352.06,937.541,-0.364887,-0.405205,-1.63157,
2026_07_06_19_04_28.379,3.846,30,0,0.759,0,0,0,0, ,0,0,0,0,0, ,-38.5,351.8,938.2,-0.5,-0.4,-1.7,25,-38.4933,352.05,937.548,-0.367026,-0.401841,-1.63269,
2026_07_06_19_04_28.396,3.846,30,0,0.758,0,0,0,0, ,0,0,0,0,0, ,-38.3,351.8,935.5,-0.4,-0.4,-1.5,25,-38.4876,352.035,937.506,-0.372083,-0.401729,-1.6307,
2026_07_06_19_04_28.415,3.846,30,0,0.76,0,0,0,0, ,0,0,0,0,0, ,-39,352.6,939,-0.4,-0.4,-1.6,25,-38.4975,352.045,937.49,-0.373784,-0.401623,-1.62578,
2026_07_06_19_04_28.435,3.846,30,0,0.759,0,0,0,0, ,0,0,0,0,0, ,-39.4,350.7,936.5,-0.3,-0.4,-1.6,25,-38.5403,352.021,937.506,-0.372334,-0.401524,-1.62421,
2026_07_06_19_04_28.455,3.846,30.1,0,0.758,0,0,0,0, ,0,0,0,0,0, ,-38,351.9,937.3,-0.4,-0.4,-1.6,25,-38.55,351.977,937.469,-0.370973,-0.401431,-1.62273,
2026_07_06_19_04_28.474,3.846,30,0,0.758,0,0,0,0, ,0,0,0,0,0, ,-39.5,352.6,937.1,-0.4,-0.4,-1.6,25,-38.5622,351.993,937.452,-0.372742,-0.401344,-1.62135,
2026_07_06_19_04_28.494,3.846,30,0,0.758,0,0,0,0, ,0,0,0,0,0, ,-38.8,351.4,937.2,-0.4,-0.4,-1.6,25,-38.598,351.994,937.434,-0.374403,-0.401262,-1.62005,
2026_07_06_19_04_28.513,3.846,30,0,0.759,0,0,0,0, ,0,0,0,0,0, ,-38.9,351.4,936.2,-0.4,-0.4,-1.7,25,-38.6134,351.958,937.389,-0.375963,-0.401185,-1.62187,
2026_07_06_19_04_28.533,3.846,30,0,0.759,0,0,0,0, ,0,0,0,0,0, ,-39.7,352.7,937.8,-0.4,-0.4,-1.6,25,-38.6552,351.963,937.366,-0.377428,-0.401113,-1.62359,
2026_07_06_19_04_28.554,3.846,30.1,0,0.76,0,0,0,0, ,0,0,0,0,0, ,-38.2,352.5,937.2,-0.4,-0.3,-1.7,25,-38.6732,352.002,937.374,-0.378803,-0.397998,-1.6252,
2026_07_06_19_04_28.573,3.846,30,0,0.759,0,0,0,0, ,0,0,0,0,0, ,-39.9,352.9,939.3,-0.4,-0.5,-1.6,25,-38.6961,352.045,937.427,-0.380095,-0.39812,-1.62671,
2026_07_06_19_04_28.593,3.846,30.1,0,0.759,0,0,0,0, ,0,0,0,0,0, ,-38,351.9,937.3,-0.5,-0.4,-1.6,25,-38.7116,352.066,937.48,-0.384355,-0.401282,-1.62508,
2026_07_06_19_04_28.612,3.846,30,0,0.759,0,0,0,0, ,0,0,0,0,0, ,-38.4,352.1,937.5,-0.4,-0.4,-1.7,25,-38.6804,352.062,937.475,-0.388355,-0.401204,-1.6266,
2026_07_06_19_04_28.633,3.846,30,0,0.759,0,0,0,0, ,0,0,0,0,0, ,-37.5,351.6,936.8,-0.4,-0.4,-1.6,25,-38.6359,352.049,937.456,-0.389065,-0.40113,-1.62802,
2026_07_06_19_04_28.653,3.846,30,0,0.759,0,0,0,0, ,0,0,0,0,0, ,-37.9,352.7,937.2,-0.5,-0.4,-1.6,25,-38.5789,352.055,937.428,-0.392778,-0.401061,-1.62632,
2026_07_06_19_04_28.676,3.846,30.1,0,0.759,0,0,0,0, ,0,0,0,0,0, ,-38.5,353.2,937,-0.4,-0.5,-1.6,25,-38.5558,352.11,937.408,-0.396265,-0.404044,-1.62471,
2026_07_06_19_04_28.691,3.846,30,0,0.759,0,0,0,0, ,0,0,0,0,0, ,-38.5,353.5,937.1,-0.3,-0.4,-1.6,25,-38.5524,352.186,937.386,-0.393446,-0.406844,-1.62321,
2026_07_06_19_04_28.711,3.846,30,0,0.759,0,0,0,0, ,0,0,0,0,0, ,-37.1,352.2,937.3,-0.3,-0.4,-1.6,25,-38.5066,352.226,937.375,-0.387751,-0.406427,-1.62179,
2026_07_06_19_04_28.731,3.846,30,0,0.759,0,0,0,0, ,0,0,0,0,0, ,-38.6,352.5,936.6,-0.3,-0.3,-1.6,25,-38.4665,352.234,937.349,-0.382404,-0.402989,-1.62047,
2026_07_06_19_04_28.752,3.846,30.1,0,0.76,0,0,0,0, ,0,0,0,0,0, ,-38.6,351.5,938.1,-0.4,-0.4,-1.6,25,-38.4747,352.219,937.349,-0.380429,-0.39976,-1.61922,
2026_07_06_19_04_28.771,3.846,30,0,0.759,0,0,0,0, ,0,0,0,0,0, ,-37.7,353.2,938.4,-0.3,-0.4,-1.6,25,-38.4549,352.227,937.404,-0.378575,-0.399774,-1.61805,
2026_07_06_19_04_28.790,3.846,30.1,0,0.758,0,0,0,0, ,0,0,0,0,0, ,-38.6,353.2,937.6,-0.3,-0.4,-1.5,25,-38.4363,352.287,937.44,-0.373787,-0.399788,-1.6139,
2026_07_06_19_04_28.812,3.846,30,0,0.761,0,0,0,0, ,0,0,0,0,0, ,-40.2,352.6,936.8,-0.3,-0.4,-1.6,25,-38.495,352.324,937.426,-0.369291,-0.399801,-1.61001,
2026_07_06_19_04_28.830,3.846,30,0,0.759,0,0,0,0, ,0,0,0,0,0, ,-39,352.7,938.8,-0.3,-0.4,-1.7,25,-38.5624,352.344,937.448,-0.365068,-0.399813,-1.61244,
2026_07_06_19_04_28.850,3.846,30.1,0,0.759,0,0,0,0, ,0,0,0,0,0, ,-38.9,352.4,937.7,-0.3,-0.4,-1.6,25,-38.586,352.356,937.497,-0.361103,-0.399824,-1.61473,
2026_07_06_19_04_28.875,3.846,30,0,0.758,0,0,0,0, ,0,0,0,0,0, ,-37.9,352.1,937.5,-0.3,-0.4,-1.6,25,-38.5747,352.35,937.503,-0.35738,-0.399835,-1.61383,
2026_07_06_19_04_28.890,3.846,30.1,0,0.76,0,0,0,0, ,0,0,0,0,0, ,-38.5,352.7,935.9,-0.2,-0.4,-1.7,25,-38.5518,352.353,937.455,-0.350836,-0.399845,-1.61604,
2026_07_06_19_04_28.910,3.846,30,0,0.759,0,0,0,0, ,0,0,0,0,0, ,-38.8,351.8,936.4,-0.3,-0.4,-1.6,25,-38.5578,352.347,937.375,-0.344691,-0.399855,-1.61811,
2026_07_06_19_04_28.930,3.846,30,0,0.759,0,0,0,0, ,0,0,0,0,0, ,-39.5,352.5,938.8,-0.3,-0.4,-1.6,25,-38.5939,352.335,937.389,-0.341968,-0.399863,-1.617,
2026_07_06_19_04_28.950,3.846,30.1,0,0.759,0,0,0,0, ,0,0,0,0,0, ,-37.5,353.3,937.2,-0.2,-0.4,-1.6,25,-38.5882,352.369,937.426,-0.336364,-0.399872,-1.61597,
2026_07_06_19_04_28.969,3.846,30,0,0.758,0,0,0,0, ,0,0,0,0,0, ,-37.7,350.8,936.7,-0.3,-0.4,-1.7,25,-38.528,352.35,937.397,-0.331101,-0.39988,-1.61804,
2026_07_06_19_04_28.989,3.846,30,0,0.759,0,0,0,0, ,0,0,0,0,0, ,-38.5,351.3,938.1,-0.3,-0.5,-1.6,25,-38.5019,352.271,937.397,-0.329206,-0.402934,-1.61999,
2026_07_06_19_04_29.009,3.846,30,0,0.76,0,0,0,0, ,0,0,0,0,0, ,-38.5,351,936.4,-0.2,-0.3,-1.7,25,-38.5018,352.202,937.388,-0.324379,-0.402755,-1.62182,
2026_07_06_19_04_29.037,3.846,30,0,0.759,0,0,0,0, ,0,0,0,0,0, ,-40.1,351.5,937.7,-0.3,-0.4,-1.7,25,-38.5504,352.144,937.368,-0.319847,-0.39954,-1.62658,
2026_07_06_19_04_29.049,3.846,30,0,0.759,0,0,0,0, ,0,0,0,0,0, ,-40,351.4,936.6,-0.3,-0.4,-1.7,25,-38.6418,352.102,937.354,-0.318637,-0.399568,-1.63106,
2026_07_06_19_04_29.068,3.846,30,0,0.759,0,0,0,0, ,0,0,0,0,0, ,-39,350.9,936.7,-0.4,-0.4,-1.6,25,-38.6941,352.044,937.311,-0.320548,-0.399595,-1.63221,
2026_07_06_19_04_29.088,3.846,30,0,0.759,0,0,0,0, ,0,0,0,0,0, ,-38.3,351.1,937.9,-0.4,-0.4,-1.7,25,-38.6914,351.98,937.311,-0.32539,-0.399619,-1.63329,
2026_07_06_19_04_29.108,3.846,30,0,0.758,0,0,0,0, ,0,0,0,0,0, ,-38.6,352.2,938.4,-0.4,-0.4,-1.6,25,-38.6767,351.96,937.362,-0.329937,-0.399642,-1.63431,
2026_07_06_19_04_29.128,3.846,30.1,0,0.759,0,0,0,0, ,0,0,0,0,0, ,-37.8,351.8,938.8,-0.4,-0.5,-1.7,25,-38.6476,351.963,937.437,-0.334206,-0.402711,-1.63527,
2026_07_06_19_04_29.148,3.846,30,0,0.758,0,0,0,0, ,0,0,0,0,0, ,-39.5,352.6,937.5,-0.3,-0.4,-1.6,25,-38.6478,351.977,937.481,-0.335168,-0.405593,-1.63617,
2026_07_06_19_04_29.167,3.846,30,0,0.759,0,0,0,0, ,0,0,0,0,0, ,-38.3,351.6,938.7,-0.2,-0.4,-1.6,25,-38.6632,351.985,937.518,-0.329979,-0.405252,-1.63396,
2026_07_06_19_04_29.186,3.846,30,0,0.759,0,0,0,0, ,0,0,0,0,0, ,-37.8,351.9,937.3,-0.3,-0.4,-1.7,25,-38.6258,351.97,937.548,-0.325105,-0.404932,-1.63494,
2026_07_06_19_04_29.207,3.846,30,0,0.76,0,0,0,0, ,0,0,0,0,0, ,-38.4,352.5,935.9,-0.3,-0.4,-1.6,25,-38.5937,351.984,937.49,-0.323575,-0.404631,-1.63586,
2026_07_06_19_04_29.226,3.846,30,0,0.759,0,0,0,0, ,0,0,0,0,0, ,-37.3,352,935.6,-0.2,-0.4,-1.6,25,-38.5484,352,937.384,-0.319092,-0.404349,-1.63367,
2026_07_06_19_04_29.245,3.846,30,0,0.759,0,0,0,0, ,0,0,0,0,0, ,-37.7,351.3,936.5,-0.3,-0.4,-1.7,25,-38.4845,351.979,937.303,-0.314881,-0.404084,-1.63467,
2026_07_06_19_04_29.267,3.846,30,0,0.759,0,0,0,0, ,0,0,0,0,0, ,-37.9,353.2,936.2,-0.3,-0.4,-1.6,25,-38.4428,351.996,937.245,-0.313974,-0.403835,-1.6356,
2026_07_06_19_04_29.287,3.846,29.9,0,0.76,0,0,0,0, ,0,0,0,0,0, ,-38.4,352.5,937.1,-0.2,-0.4,-1.6,25,-38.425,352.048,937.208,-0.310076,-0.403602,-1.63343,
2026_07_06_19_04_29.306,3.846,29.9,0,0.759,0,0,0,0, ,0,0,0,0,0, ,-39.1,350.8,937.1,-0.2,-0.4,-1.7,25,-38.4448,352.023,937.202,-0.303368,-0.403382,-1.63444,
2026_07_06_19_04_29.326,3.846,30,0,0.759,0,0,0,0, ,0,0,0,0,0, ,-37.7,351.4,937.9,-0.3,-0.4,-1.6,25,-38.4421,351.967,937.22,-0.300116,-0.403176,-1.63539,
2026_07_06_19_04_29.344,3.846,30.1,0,0.759,0,0,0,0, ,0,0,0,0,0, ,-37.8,352.7,937,-0.4,-0.4,-1.6,25,-38.3999,351.972,937.234,-0.303156,-0.402982,-1.63323,
2026_07_06_19_04_29.366,3.846,30,0,0.759,0,0,0,0, ,0,0,0,0,0, ,-38.5,352.4,937,-0.3,-0.4,-1.6,25,-38.3847,352.007,937.22,-0.30601,-0.402801,-1.63121,
2026_07_06_19_04_29.390,3.846,29.9,0,0.76,0,0,0,0, ,0,0,0,0,0, ,-37.8,352.4,938.4,-0.3,-0.3,-1.6,25,-38.3704,352.031,937.249,-0.305644,-0.399583,-1.62931,
2026_07_06_19_04_29.404,3.846,29.9,0,0.758,0,0,0,0, ,0,0,0,0,0, ,-38.3,350.5,937.2,-0.4,-0.4,-1.6,25,-38.3508,351.996,937.283,-0.308347,-0.396562,-1.62752,
2026_07_06_19_04_29.424,3.846,30,0,0.759,0,0,0,0, ,0,0,0,0,0, ,-38.8,351.3,937.3,-0.4,-0.4,-1.7,25,-38.363,351.929,937.281,-0.313932,-0.396771,-1.62889,
2026_07_06_19_04_29.445,3.846,29.9,0,0.758,0,0,0,0, ,0,0,0,0,0, ,-39.3,350.8,939.2,-0.4,-0.4,-1.7,25,-38.4048,351.876,937.34,-0.319177,-0.396968,-1.63322,
2026_07_06_19_04_29.464,3.846,30,0,0.757,0,0,0,0, ,0,0,0,0,0, ,-38.3,351.9,937.5,-0.4,-0.4,-1.7,25,-38.4289,351.844,937.401,-0.324102,-0.397153,-1.63729,
2026_07_06_19_04_29.483,3.846,30,0,0.759,0,0,0,0, ,0,0,0,0,0, ,-39.7,352.2,937.2,-0.3,-0.4,-1.5,25,-38.4637,351.856,937.398,-0.32568,-0.397326,-1.63502,
2026_07_06_19_04_29.509,3.846,30,0,0.759,0,0,0,0, ,0,0,0,0,0, ,-38.4,351.9,937.7,-0.4,-0.5,-1.6,25,-38.4994,351.868,937.401,-0.327162,-0.400536,-1.62984,
2026_07_06_19_04_29.528,3.846,30,0,0.76,0,0,0,0, ,0,0,0,0,0, ,-38.4,351.9,936.8,-0.5,-0.4,-1.6,25,-38.4934,351.87,937.392,-0.334648,-0.40355,-1.62802,
2026_07_06_19_04_29.556,3.846,29.9,0,0.76,0,0,0,0, ,0,0,0,0,0, ,-38.4,352.4,937.9,-0.5,-0.4,-1.6,25,-38.4877,351.887,937.39,-0.344724,-0.403334,-1.62631,
2026_07_06_19_04_29.564,3.846,29.9,0,0.76,0,0,0,0, ,0,0,0,0,0, ,-39,352.2,937.2,-0.3,-0.4,-1.6,25,-38.5006,351.912,937.399,-0.348092,-0.403131,-1.62471,
2026_07_06_19_04_29.583,3.846,29.9,0,0.759,0,0,0,0, ,0,0,0,0,0, ,-38,351.9,937.5,-0.4,-0.4,-1.6,25,-38.5006,351.921,937.396,-0.348209,-0.40294,-1.6232,
2026_07_06_19_04_29.603,3.846,30,0,0.759,0,0,0,0, ,0,0,0,0,0, ,-38.5,354.3,937.1,-0.4,-0.4,-1.7,25,-38.4853,351.992,937.39,-0.351365,-0.402761,-1.62484,
2026_07_06_19_04_29.622,3.846,30,0,0.76,0,0,0,0, ,0,0,0,0,0, ,-38.8,354.4,938.5,-0.5,-0.4,-1.6,25,-38.4954,352.136,937.415,-0.357375,-0.402593,-1.62637,
2026_07_06_19_04_29.642,3.846,29.9,0,0.759,0,0,0,0, ,0,0,0,0,0, ,-38.4,352.5,937,-0.4,-0.4,-1.7,25,-38.5017,352.216,937.436,-0.363019,-0.402435,-1.62781,
2026_07_06_19_04_29.662,3.846,29.9,0,0.76,0,0,0,0, ,0,0,0,0,0, ,-38,352.7,937.9,-0.3,-0.5,-1.7,25,-38.4833,352.24,937.437,-0.362226,-0.405333,-1.63221,
2026_07_06_19_04_29.687,3.846,29.9,0,0.758,0,0,0,0, ,0,0,0,0,0, ,-38.8,353.3,937.5,-0.3,-0.4,-1.6,25,-38.4783,352.286,937.453,-0.358434,-0.408055,-1.63329,
2026_07_06_19_04_29.704,3.846,30,0,0.759,0,0,0,0, ,0,0,0,0,0, ,-39,353.6,938.2,-0.4,-0.3,-1.6,25,-38.504,352.357,937.477,-0.35792,-0.404517,-1.63126,
2026_07_06_19_04_29.722,3.846,30,0,0.759,0,0,0,0, ,0,0,0,0,0, ,-39.1,352.7,937.2,-0.3,-0.5,-1.7,25,-38.5372,352.405,937.49,-0.357438,-0.404242,-1.63241,
2026_07_06_19_04_29.742,3.846,29.9,0,0.759,0,0,0,0, ,0,0,0,0,0, ,-36.9,352.9,936.6,-0.4,-0.4,-1.6,25,-38.5045,352.429,937.455,-0.356984,-0.40703,-1.63348,
2026_07_06_19_04_29.762,3.846,29.9,0,0.759,0,0,0,0, ,0,0,0,0,0, ,-37.7,353.2,937.9,-0.3,-0.4,-1.5,25,-38.4311,352.467,937.442,-0.356559,-0.406602,-1.62839,
2026_07_06_19_04_29.781,3.846,29.9,0,0.759,0,0,0,0, ,0,0,0,0,0, ,-38.5,352.4,936.2,-0.3,-0.4,-1.6,25,-38.4109,352.487,937.418,-0.353112,-0.4062,-1.62361,
2026_07_06_19_04_29.802,3.846,29.9,0,0.759,0,0,0,0, ,0,0,0,0,0, ,-39,352,938.5,-0.2,-0.4,-1.6,25,-38.4316,352.47,937.414,-0.346829,-0.405822,-1.62218,
2026_07_06_19_04_29.821,3.846,29.9,0,0.759,0,0,0,0, ,0,0,0,0,0, ,-38.3,350.9,938.3,-0.4,-0.4,-1.6,25,-38.4449,352.408,937.474,-0.343975,-0.405467,-1.62082,
2026_07_06_19_04_29.840,3.846,29.9,0,0.759,0,0,0,0, ,0,0,0,0,0, ,-39.7,351.9,937.3,-0.3,-0.4,-1.6,25,-38.4787,352.346,937.494,-0.344342,-0.405134,-1.61956,
2026_07_06_19_04_29.861,3.846,29.9,0,0.758,0,0,0,0, ,0,0,0,0,0, ,-38.8,352.5,939.9,-0.5,-0.4,-1.6,25,-38.5257,352.337,937.561,-0.347734,-0.404821,-1.61836,
2026_07_06_19_04_29.879,3.846,30,0,0.759,0,0,0,0, ,0,0,0,0,0, ,-38.5,352.6,937.3,-0.4,-0.3,-1.7,25,-38.5333,352.35,937.625,-0.353966,-0.40148,-1.62029,
2026_07_06_19_04_29.900,3.846,29.8,0,0.759,0,0,0,0, ,0,0,0,0,0, ,-37.5,353,937.7,-0.4,-0.5,-1.7,25,-38.5008,352.378,937.617,-0.356771,-0.40139,-1.62515,
2026_07_06_19_04_29.920,3.846,29.9,0,0.759,0,0,0,0.001, ,0,0,0,0,0, ,-39.6,352.1,937,-0.4,-0.4,-1.6,25,-38.5038,352.388,937.601,-0.359405,-0.404352,-1.62666,
2026_07_06_19_04_29.939,3.846,30,0,0.76,0,0,0,0.001, ,0,0,0,0,0, ,-38.8,351.3,936.2,-0.5,-0.4,-1.7,25,-38.5462,352.346,937.54,-0.364926,-0.404087,-1.62809,
2026_07_06_19_04_29.967,3.846,29.9,0,0.759,0,0,0,0, ,0,0,0,0,0, ,-38.3,351.9,938.2,-0.4,-0.4,-1.6,25,-38.5465,352.301,937.519,-0.37011,-0.403838,-1.62942,
2026_07_06_19_04_29.984,3.846,29.9,0,0.759,0,0,0,0.001, ,0,0,0,0,0, ,-37.8,352.4,937.3,-0.4,-0.4,-1.6,25,-38.5162,352.292,937.533,-0.371932,-0.403604,-1.62763,
2026_07_06_19_04_29.999,3.846,29.9,0,0.759,0,0,0,0.001, ,0,0,0,0,0, ,-38.3,352.7,936.6,-0.4,-0.5,-1.6,25,-38.4878,352.307,937.498,-0.373642,-0.406431,-1.62594,
2026_07_06_19_04_30.018,3.846,29.9,0,0.759,0,0,0,0.001, ,0,0,0,0,0, ,-38.2,353,939.4,-0.4,-0.4,-1.7,25,-38.4733,352.34,937.528,-0.375248,-0.409086,-1.62741,
2026_07_06_19_04_30.038,3.846,29.9,0,0.759,0,0,0,0.001, ,0,0,0,0,0, ,-37.7,353.1,938.4,-0.5,-0.4,-1.6,25,-38.4414,352.384,937.612,-0.379803,-0.408533,-1.62879,
2026_07_06_19_04_30.058,3.846,29.9,0,0.759,0,0,0,0.001, ,0,0,0,0,0, ,-38.6,352.6,937.5,-0.3,-0.4,-1.7,25,-38.4237,352.412,937.632,-0.381034,-0.408013,-1.63008,
2026_07_06_19_04_30.078,3.846,29.9,0,0.759,0,0,0,0.001, ,0,0,0,0,0, ,-39,352.7,938.4,-0.3,-0.4,-1.7,25,-38.4466,352.427,937.652,-0.376096,-0.407524,-1.63434,
2026_07_06_19_04_30.098,3.846,29.9,0,0.76,0,0,0,0.001, ,0,0,0,0,0, ,-39.3,353,938.8,-0.4,-0.5,-1.6,25,-38.4895,352.452,937.71,-0.374506,-0.410113,-1.63529,
2026_07_06_19_04_30.118,3.846,29.9,0,0.759,0,0,0,0.001, ,0,0,0,0,0, ,-38.5,353.1,937.8,-0.3,-0.4,-1.6,25,-38.5145,352.489,937.746,-0.373012,-0.412543,-1.63314,
2026_07_06_19_04_30.137,3.846,29.9,0,0.759,0,0,0,0.001, ,0,0,0,0,0, ,-38.6,351.9,937.8,-0.3,-0.5,-1.6,25,-38.5166,352.489,937.749,-0.368563,-0.414826,-1.63112,
2026_07_06_19_04_30.157,3.846,29.8,0,0.759,0,0,0,0.001, ,0,0,0,0,0, ,-38.2,352.2,936.7,-0.4,-0.4,-1.6,25,-38.5095,352.463,937.718,-0.367432,-0.416969,-1.62923,
2026_07_06_19_04_30.178,3.846,29.9,0,0.759,0,0,0,0.001, ,0,0,0,0,0, ,-37.5,353,938.1,-0.3,-0.4,-1.6,25,-38.4693,352.471,937.699,-0.36637,-0.415935,-1.62745,
2026_07_06_19_04_30.197,3.846,29.9,0,0.758,0,0,0,0.001, ,0,0,0,0,0, ,-38.5,351.6,938.5,-0.3,-0.3,-1.6,25,-38.4407,352.461,937.736,-0.362325,-0.411917,-1.62577,
2026_07_06_19_04_30.216,3.846,29.9,0,0.759,0,0,0,0.001, ,0,0,0,0,0, ,-36.6,352.5,938.3,-0.2,-0.4,-1.6,25,-38.3865,352.436,937.776,-0.355481,-0.408144,-1.6242,
2026_07_06_19_04_30.238,3.846,29.9,0,0.759,0,0,0,0.001, ,0,0,0,0,0, ,-37.8,353.5,937.7,-0.3,-0.4,-1.5,25,-38.3142,352.47,937.79,-0.349053,-0.407648,-1.61968,
2026_07_06_19_04_30.257,3.846,29.9,0,0.759,0,0,0,0.001, ,0,0,0,0,0, ,-38.3,353.6,937.8,-0.3,-0.4,-1.6,25,-38.2981,352.536,937.787,-0.346064,-0.407182,-1.61544,
2026_07_06_19_04_30.276,3.846,29.9,0,0.759,0,0,0,0.001, ,0,0,0,0,0, ,-38.2,351.9,936.7,-0.3,-0.4,-1.6,25,-38.2951,352.549,937.755,-0.343257,-0.406744,-1.61449,
2026_07_06_19_04_30.295,3.846,29.9,0,0.759,0,0,0,0.001, ,0,0,0,0,0, ,-39.5,354.1,937.7,-0.2,-0.4,-1.6,25,-38.3289,352.576,937.721,-0.337574,-0.406333,-1.61361,
2026_07_06_19_04_30.315,3.846,29.9,0,0.759,0,0,0,0.001, ,0,0,0,0,0, ,-38.9,351.4,937.2,-0.2,-0.4,-1.6,25,-38.382,352.587,937.704,-0.32919,-0.405947,-1.61278,
2026_07_06_19_04_30.335,3.846,30,0,0.759,0,0,0,0.001, ,0,0,0,0,0, ,-38.4,352.7,937.7,-0.2,-0.4,-1.6,25,-38.3984,352.554,937.689,-0.321318,-0.405585,-1.612,
2026_07_06_19_04_30.354,3.846,29.9,0,0.758,0,0,0,0, ,0,0,0,0,0, ,-40.1,352.2,938.1,-0.2,-0.3,-1.7,25,-38.4503,352.548,937.702,-0.313925,-0.402198,-1.61432,
2026_07_06_19_04_30.376,3.846,29.9,0,0.758,0,0,0,0.001, ,0,0,0,0,0, ,-38.4,351.6,937.3,-0.3,-0.4,-1.7,25,-38.499,352.508,937.702,-0.31003,-0.399017,-1.61954,
2026_07_06_19_04_30.395,3.846,29.9,0,0.758,0,0,0,0.001, ,0,0,0,0,0, ,-39.1,351.3,935.6,-0.3,-0.4,-1.7,25,-38.5143,352.444,937.625,-0.309418,-0.399077,-1.62444,
2026_07_06_19_04_30.414,3.846,29.9,0,0.761,0,0,0,0.001, ,0,0,0,0,0, ,-39.9,352,936.6,-0.3,-0.4,-1.6,25,-38.5743,352.396,937.532,-0.308845,-0.399133,-1.626,
2026_07_06_19_04_30.435,3.846,29.9,0,0.758,0,0,0,0.001, ,0,0,0,0,0, ,-37.2,350,935.7,-0.2,-0.4,-1.6,25,-38.5729,352.31,937.448,-0.305259,-0.399186,-1.62442,
2026_07_06_19_04_30.453,3.846,29.9,0,0.759,0,0,0,0.001, ,0,0,0,0,0, ,-38.3,351.4,937.5,-0.3,-0.4,-1.6,25,-38.5227,352.212,937.396,-0.301891,-0.399236,-1.62293,
2026_07_06_19_04_30.474,3.846,29.9,0,0.759,0,0,0,0.001, ,0,0,0,0,0, ,-38.9,351.4,937,-0.4,-0.4,-1.7,25,-38.5274,352.163,937.388,-0.304823,-0.399282,-1.62458,
2026_07_06_19_04_30.494,3.846,29.9,0,0.759,0,0,0,0.001, ,0,0,0,0,0, ,-37.7,352.2,937.1,-0.3,-0.4,-1.6,25,-38.5136,352.141,937.367,-0.307576,-0.399326,-1.62613,
2026_07_06_19_04_30.513,3.846,29.9,0,0.758,0,0,0,0.001, ,0,0,0,0,0, ,-37.5,352.9,938.8,-0.4,-0.4,-1.6,25,-38.4579,352.166,937.402,-0.310161,-0.399367,-1.62453,
2026_07_06_19_04_30.541,3.846,29.9,0,0.758,0,0,0,0.001, ,0,0,0,0,0, ,-39.3,351.3,937.6,-0.3,-0.4,-1.6,25,-38.4544,352.162,937.451,-0.312589,-0.399406,-1.62304,
2026_07_06_19_04_30.556,3.846,29.9,0,0.758,0,0,0,0.001, ,0,0,0,0,0, ,-37.9,353.2,937.3,-0.4,-0.4,-1.6,25,-38.4632,352.167,937.451,-0.314869,-0.399442,-1.62164,
2026_07_06_19_04_30.574,3.846,29.9,0,0.759,0,0,0,0.001, ,0,0,0,0,0, ,-39,352.6,938.4,-0.4,-0.4,-1.7,25,-38.4624,352.212,937.475,-0.320056,-0.399476,-1.62336,
2026_07_06_19_04_30.593,3.846,30,0,0.759,0,0,0,0.001, ,0,0,0,0,0, ,-38,354,937.6,-0.3,-0.4,-1.6,25,-38.4647,352.278,937.507,-0.321881,-0.399508,-1.62499,
2026_07_06_19_04_30.612,3.846,29.8,0,0.758,0,0,0,0, ,0,0,0,0,0, ,-38.9,352.2,937.8,-0.3,-0.4,-1.7,25,-38.4638,352.328,937.519,-0.320548,-0.399538,-1.62651,
2026_07_06_19_04_30.633,3.846,29.9,0,0.758,0,0,0,0.002, ,0,0,0,0,0, ,-38.4,353,936.8,-0.3,-0.4,-1.6,25,-38.4752,352.345,937.506,-0.319296,-0.399566,-1.62794,
2026_07_06_19_04_30.652,3.846,29.9,0,0.76,0,0,0,0.001, ,0,0,0,0,0, ,-37.4,352.5,938.2,-0.3,-0.4,-1.6,25,-38.4401,352.369,937.505,-0.31812,-0.399592,-1.62624,
2026_07_06_19_04_30.672,3.846,29.9,0,0.759,0,0,0,0.001, ,0,0,0,0,0, ,-38.9,352.2,938.9,-0.3,-0.4,-1.6,25,-38.4224,352.368,937.569,-0.317016,-0.399617,-1.62464,
2026_07_06_19_04_30.692,3.846,29.9,0,0.758,0,0,0,0.001, ,0,0,0,0,0, ,-37.8,351.6,936.8,-0.2,-0.5,-1.6,25,-38.418,352.34,937.586,-0.312932,-0.402687,-1.62314,
2026_07_06_19_04_30.711,3.846,29.9,0,0.759,0,0,0,0.001, ,0,0,0,0,0, ,-38.6,352.2,937.5,-0.2,-0.4,-1.7,25,-38.4047,352.313,937.56,-0.30605,-0.405571,-1.62478,
2026_07_06_19_04_30.732,3.846,29.9,0,0.758,0,0,0,0.001, ,0,0,0,0,0, ,-38.9,351.4,937,-0.3,-0.4,-1.6,25,-38.4258,352.282,937.541,-0.302634,-0.405231,-1.62631,
2026_07_06_19_04_30.752,3.846,29.9,0,0.758,0,0,0,0.001, ,0,0,0,0,0, ,-39.5,350.8,938.3,-0.3,-0.4,-1.6,25,-38.473,352.21,937.547,-0.302474,-0.404912,-1.62471,
2026_07_06_19_04_30.771,3.846,29.9,0,0.76,0,0,0,0.001, ,0,0,0,0,0, ,-39.4,351.3,936.8,-0.2,-0.4,-1.6,25,-38.5325,352.139,937.548,-0.299276,-0.404613,-1.6232,
2026_07_06_19_04_30.791,3.846,29.9,0,0.759,0,0,0,0.001, ,0,0,0,0,0, ,-37.9,351.9,937,-0.3,-0.4,-1.6,25,-38.5397,352.106,937.508,-0.296274,-0.404332,-1.62179,
2026_07_06_19_04_30.811,3.846,29.9,0,0.759,0,0,0,0.001, ,0,0,0,0,0, ,-38.2,352.4,937,-0.3,-0.3,-1.7,25,-38.5098,352.109,937.477,-0.296501,-0.401021,-1.62351,
2026_07_06_19_04_30.836,3.846,29.9,0,0.758,0,0,0,0.001, ,0,0,0,0,0, ,-37.2,350.2,939.5,-0.3,-0.4,-1.6,25,-38.4605,352.06,937.524,-0.296714,-0.397912,-1.62512,
2026_07_06_19_04_30.854,3.846,29.9,0,0.759,0,0,0,0.001, ,0,0,0,0,0, ,-37.8,352.7,937.9,-0.3,-0.4,-1.6,25,-38.4019,352.022,937.596,-0.296914,-0.398039,-1.62359,
2026_07_06_19_04_30.870,3.846,29.9,0,0.759,0,0,0,0.001, ,0,0,0,0,0, ,-38.6,351.4,937.9,-0.3,-0.4,-1.7,25,-38.3896,352.024,937.614,-0.297102,-0.398159,-1.6252,
2026_07_06_19_04_30.890,3.846,29.9,0,0.758,0,0,0,0.001, ,0,0,0,0,0, ,-39,351.9,937.9,-0.3,-0.4,-1.6,25,-38.4146,352.001,937.632,-0.297279,-0.398271,-1.62671,
2026_07_06_19_04_30.909,3.846,29.8,0,0.758,0,0,0,0.001, ,0,0,0,0,0, ,-39.4,352.2,939.2,-0.3,-0.5,-1.5,25,-38.4625,352.004,937.688,-0.297445,-0.401423,-1.62204,
2026_07_06_19_04_30.930,3.846,29.9,0,0.759,0,0,0,0.002, ,0,0,0,0,0, ,-39.6,350.8,937.6,-0.3,-0.4,-1.7,25,-38.5257,351.973,937.731,-0.2976,-0.404383,-1.6207,
2026_07_06_19_04_30.950,3.846,29.9,0,0.757,0,0,0,0.001, ,0,0,0,0,0, ,-37.1,352.1,936.4,-0.2,-0.4,-1.7,25,-38.515,351.942,937.687,-0.2947,-0.404116,-1.62553,
2026_07_06_19_04_30.973,3.846,29.9,0,0.758,0,0,0,0.001, ,0,0,0,0,0, ,-38.3,350.9,937.7,-0.3,-0.4,-1.6,25,-38.4654,351.915,937.648,-0.291976,-0.403865,-1.62702,
2026_07_06_19_04_30.990,3.846,29.9,0,0.759,0,0,0,0.001, ,0,0,0,0,0, ,-38.8,351.6,937.2,-0.3,-0.4,-1.6,25,-38.4705,351.874,937.636,-0.292465,-0.40363,-1.62537,
2026_07_06_19_04_31.015,3.846,29.8,0,0.759,0,0,0,0.001, ,0,0,0,0,0, ,-39.3,352.1,938.1,-0.4,-0.5,-1.6,25,-38.5058,351.873,937.637,-0.295971,-0.406455,-1.62383,
2026_07_06_19_04_31.028,3.846,29.9,0,0.759,0,0,0,0.002, ,0,0,0,0,0, ,-36.6,352.7,936.2,-0.3,-0.4,-1.7,25,-38.472,351.905,937.607,-0.299263,-0.409109,-1.62542,
2026_07_06_19_04_31.050,3.846,29.9,0,0.759,0,0,0,0.001, ,0,0,0,0,0, ,-38.3,351.9,937.9,-0.4,-0.4,-1.6,25,-38.4097,351.929,937.573,-0.302355,-0.408554,-1.62692,
2026_07_06_19_04_31.067,3.846,29.9,0,0.759,0,0,0,0.001, ,0,0,0,0,0, ,-37.7,352.1,938.1,-0.3,-0.4,-1.5,25,-38.3847,351.933,937.599,-0.305258,-0.408033,-1.62223,
2026_07_06_19_04_31.088,3.846,29.8,0,0.758,0,0,0,0.001, ,0,0,0,0,0, ,-37.9,350.9,936.7,-0.4,-0.4,-1.6,25,-38.3491,351.907,937.587,-0.307985,-0.407543,-1.61783,
2026_07_06_19_04_31.108,3.846,29.9,0,0.758,0,0,0,0.002, ,0,0,0,0,0, ,-37.4,352.9,936.7,-0.4,-0.4,-1.6,25,-38.3065,351.906,937.533,-0.313592,-0.407083,-1.61674,
2026_07_06_19_04_31.127,3.846,29.9,0,0.759,0,0,0,0.001, ,0,0,0,0,0, ,-38.6,351.8,937.7,-0.3,-0.5,-1.7,25,-38.2878,351.933,937.513,-0.315811,-0.409699,-1.61877,
2026_07_06_19_04_31.147,3.846,29.9,0,0.759,0,0,0,0.001, ,0,0,0,0,0, ,-39.5,350.8,938.1,-0.3,-0.3,-1.6,25,-38.3343,351.895,937.536,-0.314847,-0.409108,-1.62067,
2026_07_06_19_04_31.167,3.846,29.9,0,0.759,0,0,0,0.001, ,0,0,0,0,0, ,-38.3,351.5,937.3,-0.4,-0.3,-1.7,25,-38.3687,351.849,937.546,-0.316989,-0.402459,-1.62246,
2026_07_06_19_04_31.186,3.846,29.9,0,0.758,0,0,0,0.001, ,0,0,0,0,0, ,-38.5,351.5,937.8,-0.4,-0.4,-1.6,25,-38.3706,351.828,937.546,-0.322048,-0.399262,-1.62414,
2026_07_06_19_04_31.206,3.846,29.9,0,0.759,0,0,0,0.001, ,0,0,0,0,0, ,-38.3,351.9,937.6,-0.2,-0.4,-1.6,25,-38.3724,351.82,937.556,-0.320704,-0.399307,-1.62267,
2026_07_06_19_04_31.225,3.846,29.9,0,0.759,0,0,0,0.001, ,0,0,0,0,0, ,-37.4,352.7,938.1,-0.2,-0.4,-1.6,25,-38.3406,351.85,937.574,-0.313349,-0.399349,-1.62129,
2026_07_06_19_04_31.246,3.846,29.9,0,0.759,0,0,0,0.001, ,0,0,0,0,0, ,-38.4,352,937.8,-0.3,-0.4,-1.6,25,-38.3137,351.88,937.597,-0.309488,-0.399389,-1.61999,
2026_07_06_19_04_31.266,3.846,29.9,0,0.76,0,0,0,0.001, ,0,0,0,0,0, ,-38,353,937.5,-0.3,-0.4,-1.6,25,-38.3068,351.918,937.6,-0.30891,-0.399426,-1.61877,
2026_07_06_19_04_31.287,3.846,29.8,0,0.76,0,0,0,0.001, ,0,0,0,0,0, ,-38.5,352.9,937.6,-0.2,-0.4,-1.6,25,-38.3033,351.981,937.597,-0.30532,-0.399461,-1.61763,
2026_07_06_19_04_31.306,3.846,29.9,0,0.759,0,0,0,0.002, ,0,0,0,0,0, ,-39,353.7,937.7,-0.3,-0.4,-1.6,25,-38.3306,352.061,937.6,-0.301949,-0.399494,-1.61655,
2026_07_06_19_04_31.326,3.846,29.9,0,0.758,0,0,0,0.001, ,0,0,0,0,0, ,-38.4,353,936.8,-0.2,-0.4,-1.6,25,-38.3531,352.14,937.579,-0.298784,-0.399525,-1.61554,
2026_07_06_19_04_31.345,3.846,29.8,0,0.758,0,0,0,0.001, ,0,0,0,0,0, ,-39.1,351.6,937.9,-0.2,-0.4,-1.6,25,-38.3773,352.149,937.565,-0.292764,-0.399554,-1.6146,
2026_07_06_19_04_31.364,3.846,29.8,0,0.758,0,0,0,0.002, ,0,0,0,0,0, ,-39,352,938.1,-0.3,-0.4,-1.6,25,-38.4183,352.128,937.591,-0.290158,-0.399581,-1.61371,
2026_07_06_19_04_31.384,3.846,29.8,0,0.759,0,0,0,0.002, ,0,0,0,0,0, ,-38.3,352.7,937.1,-0.3,-0.4,-1.6,25,-38.4324,352.142,937.592,-0.290758,-0.399607,-1.61287,
2026_07_06_19_04_31.405,3.846,29.8,0,0.759,0,0,0,0.002, ,0,0,0,0,0, ,-39.3,351.9,937.5,-0.2,-0.3,-1.7,25,-38.4548,352.151,937.574,-0.288274,-0.396584,-1.61513,
2026_07_06_19_04_31.424,3.846,29.9,0,0.759,0,0,0,0.002, ,0,0,0,0,0, ,-39.4,351.1,937.6,-0.3,-0.4,-1.7,25,-38.5093,352.112,937.573,-0.285942,-0.393745,-1.62031,
2026_07_06_19_04_31.444,3.846,29.9,0,0.759,0,0,0,0.001, ,0,0,0,0,0, ,-38.5,350.5,937.2,-0.3,-0.4,-1.7,25,-38.5362,352.032,937.562,-0.286799,-0.394126,-1.62516,
2026_07_06_19_04_31.464,3.846,29.9,0,0.759,0,0,0,0.001, ,0,0,0,0,0, ,-38.6,350.7,937.3,-0.3,-0.3,-1.6,25,-38.537,351.944,937.543,-0.287603,-0.391437,-1.62668,
2026_07_06_19_04_31.491,3.846,29.9,0,0.759,0,0,0,0.001, ,0,0,0,0,0, ,-38.3,350.3,936,-0.3,-0.4,-1.7,25,-38.5317,351.856,937.489,-0.288358,-0.388912,-1.6281,
2026_07_06_19_04_31.504,3.846,29.9,0,0.759,0,0,0,0.001, ,0,0,0,0,0, ,-38.3,352.5,938.9,-0.3,-0.4,-1.6,25,-38.5176,351.829,937.486,-0.289068,-0.389588,-1.62943,
2026_07_06_19_04_31.523,3.846,29.8,0,0.759,0,0,0,0.001, ,0,0,0,0,0, ,-38.6,352.9,938.3,-0.3,-0.5,-1.6,25,-38.5135,351.882,937.554,-0.289734,-0.393269,-1.62764,
2026_07_06_19_04_31.543,3.846,29.9,0,0.759,0,0,0,0.002, ,0,0,0,0,0, ,-38.9,352.2,937.3,-0.3,-0.4,-1.6,25,-38.5279,351.922,937.569,-0.29036,-0.396726,-1.62595,
2026_07_06_19_04_31.564,3.846,29.9,0,0.759,0,0,0,0.001, ,0,0,0,0,0, ,-38,352.1,936.8,-0.3,-0.3,-1.7,25,-38.5232,351.936,937.537,-0.290947,-0.393879,-1.62742,
2026_07_06_19_04_31.582,3.846,29.9,0,0.759,0,0,0,0.001, ,0,0,0,0,0, ,-38.4,351.4,936.8,-0.3,-0.4,-1.6,25,-38.5035,351.925,937.493,-0.291499,-0.391205,-1.6288,
2026_07_06_19_04_31.602,3.846,29.9,0,0.758,0,0,0,0.001, ,0,0,0,0,0, ,-38.4,352,937.9,-0.4,-0.4,-1.7,25,-38.4972,351.911,937.484,-0.295064,-0.391741,-1.63009,
2026_07_06_19_04_31.622,3.846,29.9,0,0.759,0,0,0,0.001, ,0,0,0,0,0, ,-38.5,352,939.4,-0.3,-0.4,-1.6,25,-38.4943,351.917,937.555,-0.298411,-0.392244,-1.6313,
2026_07_06_19_04_31.642,3.846,29.9,0,0.76,0,0,0,0.001, ,0,0,0,0,0, ,-37.7,352.1,937.6,-0.3,-0.4,-1.7,25,-38.4703,351.925,937.613,-0.298508,-0.392717,-1.63244,
2026_07_06_19_04_31.662,3.846,29.9,0,0.76,0,0,0,0.001, ,0,0,0,0,0, ,-38.6,351.3,937.5,-0.3,-0.4,-1.6,25,-38.4507,351.911,937.609,-0.298599,-0.393161,-1.63351,
2026_07_06_19_04_31.682,3.846,29.9,0,0.76,0,0,0,0.001, ,0,0,0,0,0, ,-37.9,351.4,938.1,-0.4,-0.4,-1.7,25,-38.4385,351.877,937.62,-0.301731,-0.393577,-1.63452,
2026_07_06_19_04_31.702,3.846,29.9,0,0.759,0,0,0,0.001, ,0,0,0,0,0, ,-38.6,352.5,936.8,-0.3,-0.4,-1.7,25,-38.427,351.881,937.61,-0.304673,-0.393969,-1.63851,
2026_07_06_19_04_31.721,3.846,29.8,0,0.759,0,0,0,0.001, ,0,0,0,0,0, ,-38,352.6,936.7,-0.4,-0.4,-1.6,25,-38.4193,351.922,937.558,-0.307435,-0.394336,-1.63921,
2026_07_06_19_04_31.741,3.846,29.9,0,0.759,0,0,0,0.002, ,0,0,0,0,0, ,-39.9,351.3,936.8,-0.4,-0.4,-1.6,25,-38.4516,351.924,937.508,-0.313075,-0.394681,-1.63682,
2026_07_06_19_04_31.760,3.846,29.9,0,0.758,0,0,0,0.002, ,0,0,0,0,0, ,-39.1,352.1,937.2,-0.4,-0.4,-1.6,25,-38.5155,351.91,937.477,-0.318372,-0.395006,-1.63457,
2026_07_06_19_04_31.780,3.846,29.9,0,0.758,0,0,0,0.002, ,0,0,0,0,0, ,-38.3,351.9,938.2,-0.4,-0.4,-1.7,25,-38.5267,351.916,937.491,-0.323347,-0.39531,-1.63551,
2026_07_06_19_04_31.801,3.846,29.8,0,0.759,0,0,0,0.002, ,0,0,0,0,0, ,-37.9,352.2,938.3,-0.4,-0.4,-1.7,25,-38.5007,351.924,937.537,-0.328018,-0.395596,-1.63944,
2026_07_06_19_04_31.820,3.846,29.9,0,0.759,0,0,0,0.002, ,0,0,0,0,0, ,-39.5,352.2,937.3,-0.4,-0.4,-1.6,25,-38.5129,351.941,937.553,-0.332404,-0.395864,-1.64009,
2026_07_06_19_04_31.841,3.846,29.9,0,0.758,0,0,0,0.002, ,0,0,0,0,0, ,-39.1,352.1,936.6,-0.4,-0.4,-1.6,25,-38.5609,351.953,937.516,-0.336523,-0.396116,-1.63764,
2026_07_06_19_04_31.860,3.846,29.9,0,0.757,0,0,0,0.002, ,0,0,0,0,0, ,-38.4,351.6,937.3,-0.4,-0.4,-1.6,25,-38.5724,351.947,937.482,-0.340391,-0.396353,-1.63535,
2026_07_06_19_04_31.881,3.846,29.8,0,0.759,0,0,0,0.002, ,0,0,0,0,0, ,-38.4,351.6,937.1,-0.3,-0.3,-1.6,25,-38.5619,351.926,937.465,-0.340977,-0.393528,-1.6332,
2026_07_06_19_04_31.899,3.846,29.9,0,0.76,0,0,0,0.002, ,0,0,0,0,0, ,-37.8,352.6,937.3,-0.2,-0.5,-1.6,25,-38.5337,351.937,937.449,-0.335433,-0.393923,-1.63117,
2026_07_06_19_04_31.920,3.846,29.9,0,0.76,0,0,0,0.002, ,0,0,0,0,0, ,-37.5,352.9,938.4,-0.2,-0.4,-1.7,25,-38.4799,351.986,937.473,-0.32718,-0.39734,-1.63232,
2026_07_06_19_04_31.940,3.846,29.9,0,0.76,0,0,0,0.002, ,0,0,0,0,0, ,-38.6,353.6,936.7,-0.3,-0.4,-1.7,25,-38.4537,352.063,937.478,-0.322477,-0.397502,-1.63644,
2026_07_06_19_04_31.960,3.846,29.8,0,0.759,0,0,0,0.002, ,0,0,0,0,0, ,-38.9,351.8,938.3,-0.3,-0.4,-1.6,25,-38.4717,352.102,937.479,-0.321107,-0.397654,-1.63727,
2026_07_06_19_04_31.978,3.846,29.8,0,0.759,0,0,0,0.002, ,0,0,0,0,0, ,-38.8,352.9,938.2,-0.2,-0.4,-1.7,25,-38.4948,352.117,937.526,-0.316774,-0.397797,-1.63805,
2026_07_06_19_04_31.999,3.846,29.8,0,0.758,0,0,0,0.002, ,0,0,0,0,0, ,-38,352.7,937.3,-0.2,-0.4,-1.7,25,-38.489,352.159,937.54,-0.309658,-0.397931,-1.64182,
2026_07_06_19_04_32.018,3.846,29.9,0,0.758,0,0,0,0.002, ,0,0,0,0,0, ,-39,352.6,936.8,-0.3,-0.4,-1.6,25,-38.4897,352.189,937.51,-0.306023,-0.398057,-1.64232,
2026_07_06_19_04_32.039,3.846,29.8,0,0.76,0,0,0,0.002, ,0,0,0,0,0, ,-37.5,352.5,938.1,-0.2,-0.4,-1.6,25,-38.4751,352.211,937.506,-0.302609,-0.398176,-1.63974,
2026_07_06_19_04_32.058,3.846,29.8,0,0.76,0,0,0,0.003, ,0,0,0,0,0, ,-38.3,352.6,939.5,-0.2,-0.4,-1.6,25,-38.44,352.231,937.585,-0.296356,-0.398287,-1.63732,
2026_07_06_19_04_32.078,3.846,29.9,0,0.759,0,0,0,0.003, ,0,0,0,0,0, ,-38.3,352.1,937.6,-0.2,-0.4,-1.6,25,-38.4315,352.239,937.644,-0.290484,-0.398391,-1.63505,
2026_07_06_19_04_32.097,3.846,29.8,0,0.759,0,0,0,0.002, ,0,0,0,0,0, ,-38.8,351.3,936.2,-0.3,-0.4,-1.6,25,-38.4387,352.206,937.599,-0.288017,-0.398489,-1.63291,
2026_07_06_19_04_32.117,3.846,29.8,0,0.76,0,0,0,0.003, ,0,0,0,0,0, ,-38.5,352.1,937,-0.2,-0.4,-1.7,25,-38.4516,352.175,937.538,-0.285701,-0.398581,-1.63395,
2026_07_06_19_04_32.139,3.846,29.9,0,0.758,0,0,0,0.003, ,0,0,0,0,0, ,-37.9,351.8,936.5,-0.2,-0.4,-1.6,25,-38.4363,352.161,937.49,-0.280478,-0.398668,-1.63493,
2026_07_06_19_04_32.160,3.846,29.9,0,0.759,0,0,0,0.002, ,0,0,0,0,0, ,-37.9,352.1,937.2,-0.3,-0.4,-1.6,25,-38.4036,352.148,937.451,-0.278621,-0.398749,-1.6328,
2026_07_06_19_04_32.182,3.846,29.9,0,0.76,0,0,0,0.002, ,0,0,0,0,0, ,-38.3,351.8,938.3,-0.3,-0.4,-1.5,25,-38.3851,352.136,937.469,-0.279924,-0.398825,-1.62775,
2026_07_06_19_04_32.209,3.846,29.9,0,0.758,0,0,0,0.002, ,0,0,0,0,0, ,-37.3,350.9,938.2,-0.3,-0.5,-1.7,25,-38.3494,352.088,937.517,-0.281147,-0.401944,-1.62606,
2026_07_06_19_04_32.217,3.846,29.9,0,0.758,0,0,0,0.002, ,0,0,0,0,0, ,-39.5,352.2,936.6,-0.3,-0.4,-1.6,25,-38.3525,352.056,937.509,-0.282296,-0.404872,-1.62752,
2026_07_06_19_04_32.236,3.846,29.9,0,0.758,0,0,0,0.002, ,0,0,0,0,0, ,-38.3,353,937.3,-0.2,-0.4,-1.6,25,-38.3859,352.089,937.475,-0.280328,-0.404575,-1.62585,
2026_07_06_19_04_32.256,3.846,29.9,0,0.759,0,0,0,0.002, ,0,0,0,0,0, ,-38.9,351.9,937.6,-0.3,-0.5,-1.6,25,-38.3989,352.111,937.474,-0.27848,-0.407343,-1.62427,
2026_07_06_19_04_32.277,3.846,29.8,0,0.759,0,0,0,0.002, ,0,0,0,0,0, ,-39.4,352.9,936.7,-0.3,-0.5,-1.6,25,-38.4447,352.128,937.454,-0.279791,-0.41299,-1.62279,
2026_07_06_19_04_32.294,3.846,29.8,0,0.759,0,0,0,0.003, ,0,0,0,0,0, ,-36.6,352.1,937.3,-0.3,-0.4,-1.6,25,-38.4176,352.151,937.426,-0.281023,-0.415245,-1.6214,
2026_07_06_19_04_32.319,3.846,29.8,0,0.759,0,0,0,0.003, ,0,0,0,0,0, ,-39.1,350.9,937.5,-0.3,-0.4,-1.7,25,-38.383,352.111,937.425,-0.282179,-0.414316,-1.62315,
2026_07_06_19_04_32.335,3.846,29.9,0,0.758,0,0,0,0.003, ,0,0,0,0,0, ,-38.9,352.1,936.8,-0.2,-0.4,-1.6,25,-38.4206,352.074,937.408,-0.280218,-0.413444,-1.62478,
2026_07_06_19_04_32.358,3.846,29.8,0,0.758,0,0,0,0.002, ,0,0,0,0,0, ,-39.1,352.1,938.4,-0.3,-0.4,-1.5,25,-38.4559,352.076,937.42,-0.278377,-0.412624,-1.62022,
2026_07_06_19_04_32.374,3.846,29.9,0,0.759,0,0,0,0.003, ,0,0,0,0,0, ,-38.8,352,937.5,-0.3,-0.4,-1.7,25,-38.486,352.074,937.452,-0.279695,-0.411855,-1.61899,
2026_07_06_19_04_32.394,3.846,29.8,0,0.758,0,0,0,0.002, ,0,0,0,0,0, ,-39.1,351.9,937.1,-0.3,-0.4,-1.5,25,-38.5143,352.067,937.443,-0.280932,-0.411133,-1.61783,
2026_07_06_19_04_32.414,3.846,29.8,0,0.758,0,0,0,0.003, ,0,0,0,0,0, ,-38.8,352.5,938.1,-0.3,-0.3,-1.6,25,-38.5408,352.075,937.452,-0.282094,-0.407407,-1.6137,
2026_07_06_19_04_32.437,3.846,29.9,0,0.759,0,0,0,0.003, ,0,0,0,0,0, ,-37.5,350.9,938.2,-0.2,-0.4,-1.7,25,-38.517,352.052,937.495,-0.280138,-0.403909,-1.61591,
2026_07_06_19_04_32.453,3.846,29.9,0,0.76,0,0,0,0.002, ,0,0,0,0,0, ,-37.8,352,937.8,-0.3,-0.4,-1.7,25,-38.4642,352.015,937.526,-0.278302,-0.403671,-1.62104,
2026_07_06_19_04_32.475,3.846,29.8,0,0.76,0,0,0,0.002, ,0,0,0,0,0, ,-37.9,351.8,937.3,-0.3,-0.4,-1.6,25,-38.4268,352.008,937.527,-0.279624,-0.403447,-1.6228,
2026_07_06_19_04_32.496,3.846,29.8,0,0.758,0,0,0,0.003, ,0,0,0,0,0, ,-38.8,353.1,936.2,-0.3,-0.4,-1.6,25,-38.4221,352.035,937.48,-0.280866,-0.403237,-1.62141,
2026_07_06_19_04_32.526,3.846,29.8,0,0.757,0,0,0,0.003, ,0,0,0,0,0, ,-39.3,350.3,936.5,-0.3,-0.4,-1.6,25,-38.4604,352.015,937.411,-0.282032,-0.40304,-1.62011,
2026_07_06_19_04_32.534,3.846,29.8,0,0.76,0,0,0,0.003, ,0,0,0,0,0, ,-38.8,351.5,938.1,-0.4,-0.4,-1.6,25,-38.4963,351.947,937.404,-0.286173,-0.402855,-1.61888,
2026_07_06_19_04_32.554,3.846,29.9,0,0.759,0,0,0,0.003, ,0,0,0,0,0, ,-38.8,352.1,936.4,-0.2,-0.4,-1.6,25,-38.5148,351.938,937.395,-0.287016,-0.402681,-1.61773,
2026_07_06_19_04_32.573,3.846,29.8,0,0.759,0,0,0,0.002, ,0,0,0,0,0, ,-38.3,351.6,937.7,-0.3,-0.4,-1.7,25,-38.5169,351.932,937.374,-0.28476,-0.402517,-1.6197,
2026_07_06_19_04_32.593,3.846,29.8,0,0.758,0,0,0,0.003, ,0,0,0,0,0, ,-38.6,353,938.2,-0.3,-0.4,-1.7,25,-38.5129,351.955,937.409,-0.285689,-0.402364,-1.62459,
2026_07_06_19_04_32.611,3.846,29.8,0,0.759,0,0,0,0.003, ,0,0,0,0,0, ,-37.9,353,937.7,-0.4,-0.4,-1.6,25,-38.4968,352.019,937.442,-0.289608,-0.40222,-1.62614,
2026_07_06_19_04_32.634,3.846,29.8,0,0.76,0,0,0,0.003, ,0,0,0,0,0, ,-38.4,352.4,938.4,-0.4,-0.3,-1.6,25,-38.4757,352.06,937.479,-0.296335,-0.399038,-1.62455,
2026_07_06_19_04_32.652,3.846,29.8,0,0.759,0,0,0,0.003, ,0,0,0,0,0, ,-38.6,352.6,938.5,-0.4,-0.4,-1.6,25,-38.4772,352.087,937.538,-0.302652,-0.396049,-1.62305,
2026_07_06_19_04_32.674,3.846,29.9,0,0.76,0,0,0,0.003, ,0,0,0,0,0, ,-37.4,353.5,937.3,-0.4,-0.4,-1.7,25,-38.4481,352.146,937.56,-0.308584,-0.39629,-1.62469,
2026_07_06_19_04_32.691,3.846,29.9,0,0.761,0,0,0,0.002, ,0,0,0,0,0, ,-39.1,353,938.1,-0.4,-0.5,-1.6,25,-38.436,352.213,937.569,-0.314155,-0.399563,-1.62624,
2026_07_06_19_04_32.713,3.846,29.9,0,0.758,0,0,0,0.002, ,0,0,0,0,0, ,-39.3,352.7,936.1,-0.4,-0.4,-1.8,25,-38.4826,352.252,937.54,-0.319386,-0.402637,-1.63073,
2026_07_06_19_04_32.731,3.846,29.8,0,0.758,0,0,0,0.002, ,0,0,0,0,0, ,-39,352.2,937.1,-0.4,-0.4,-1.6,25,-38.5233,352.264,937.483,-0.324298,-0.402476,-1.63495,
2026_07_06_19_04_32.754,3.846,29.8,0,0.759,0,0,0,0.003, ,0,0,0,0,0, ,-38.5,352.7,937.9,-0.4,-0.4,-1.6,25,-38.5371,352.275,937.484,-0.328911,-0.402325,-1.63282,
2026_07_06_19_04_32.771,3.846,29.8,0,0.758,0,0,0,0.003, ,0,0,0,0,0, ,-38.5,353.1,937.8,-0.4,-0.4,-1.6,25,-38.5348,352.313,937.506,-0.333243,-0.402183,-1.63082,
2026_07_06_19_04_32.794,3.846,29.8,0,0.759,0,0,0,0.003, ,0,0,0,0,0, ,-38.5,352,938.4,-0.5,-0.4,-1.7,25,-38.5327,352.328,937.542,-0.340358,-0.40205,-1.63199,
2026_07_06_19_04_32.810,3.846,29.8,0,0.759,0,0,0,0.003, ,0,0,0,0,0, ,-38.9,352.9,936.8,-0.4,-0.4,-1.6,25,-38.5429,352.335,937.546,-0.34704,-0.401925,-1.63309,
2026_07_06_19_04_32.832,3.846,29.9,0,0.758,0,0,0,0.003, ,0,0,0,0,0, ,-39,352.6,937.2,-0.3,-0.4,-1.6,25,-38.5677,352.36,937.513,-0.34722,-0.401808,-1.63107,
2026_07_06_19_04_32.850,3.846,29.8,0,0.759,0,0,0,0.002, ,0,0,0,0,0, ,-39,353.1,937.6,-0.5,-0.4,-1.6,25,-38.594,352.39,937.506,-0.350436,-0.401698,-1.62918,
2026_07_06_19_04_32.873,3.846,29.8,0,0.76,0,0,0,0.003, ,0,0,0,0,0, ,-38.9,353.3,936.2,-0.4,-0.5,-1.7,25,-38.6157,352.44,937.469,-0.356503,-0.404641,-1.63045,
2026_07_06_19_04_32.889,3.846,29.8,0,0.759,0,0,0,0.003, ,0,0,0,0,0, ,-39.3,352.9,935.4,-0.3,-0.3,-1.7,25,-38.6452,352.48,937.367,-0.356107,-0.404358,-1.63469,
2026_07_06_19_04_32.910,3.846,29.8,0,0.759,0,0,0,0.003, ,0,0,0,0,0, ,-38.2,352.5,937.7,-0.3,-0.5,-1.6,25,-38.6516,352.493,937.317,-0.352688,-0.404093,-1.63562,
2026_07_06_19_04_32.930,3.846,29.9,0,0.757,0,0,0,0.003, ,0,0,0,0,0, ,-38.9,353,938.1,-0.4,-0.4,-1.6,25,-38.6454,352.509,937.353,-0.352524,-0.40689,-1.63345,
2026_07_06_19_04_32.951,3.846,29.8,0,0.758,0,0,0,0.002, ,0,0,0,0,0, ,-38.5,352.9,937.8,-0.3,-0.3,-1.7,25,-38.6488,352.536,937.389,-0.35237,-0.403424,-1.63446,
2026_07_06_19_04_32.968,3.846,29.8,0,0.758,0,0,0,0.003, ,0,0,0,0,0, ,-38.8,353.3,937.6,-0.3,-0.4,-1.6,25,-38.6488,352.57,937.408,-0.349179,-0.400168,-1.6354,
2026_07_06_19_04_32.991,3.846,29.8,0,0.758,0,0,0,0.003, ,0,0,0,0,0, ,-39,353.3,938.7,-0.2,-0.4,-1.6,25,-38.6641,352.615,937.453,-0.343135,-0.400158,-1.63325,
2026_07_06_19_04_33.008,3.846,29.8,0,0.76,0,0,0,0.003, ,0,0,0,0,0, ,-38.5,352.7,938.3,-0.3,-0.4,-1.6,25,-38.6694,352.638,937.517,-0.33746,-0.400148,-1.63122,
2026_07_06_19_04_33.030,3.846,29.8,0,0.76,0,0,0,0.003, ,0,0,0,0,0, ,-38.6,353.8,938.2,-0.3,-0.4,-1.6,25,-38.6621,352.675,937.562,-0.335177,-0.400139,-1.62932,
2026_07_06_19_04_33.049,3.846,29.8,0,0.76,0,0,0,0.003, ,0,0,0,0,0, ,-38.4,353.1,937.1,-0.2,-0.4,-1.6,25,-38.6522,352.723,937.567,-0.329987,-0.400131,-1.62753,
2026_07_06_19_04_33.072,3.846,29.8,0,0.759,0,0,0,0.003, ,0,0,0,0,0, ,-38.4,353.1,937.9,-0.3,-0.4,-1.6,25,-38.6369,352.746,937.563,-0.325113,-0.400123,-1.62585,
2026_07_06_19_04_33.088,3.846,29.8,0,0.759,0,0,0,0.003, ,0,0,0,0,0, ,-38.4,353.1,938.7,-0.3,-0.4,-1.6,25,-38.6224,352.767,937.608,-0.323582,-0.400115,-1.62428,
2026_07_06_19_04_33.109,3.846,29.8,0,0.759,0,0,0,0.003, ,0,0,0,0,0, ,-38.2,352.6,938.5,-0.3,-0.4,-1.6,25,-38.6028,352.772,937.668,-0.322145,-0.400108,-1.6228,
2026_07_06_19_04_33.127,3.846,29.8,0,0.758,0,0,0,0.003, ,0,0,0,0,0, ,-39.4,352.7,938.3,-0.3,-0.4,-1.6,25,-38.6148,352.765,937.713,-0.320796,-0.400102,-1.62141,
2026_07_06_19_04_33.150,3.846,29.8,0,0.759,0,0,0,0.003, ,0,0,0,0,0, ,-37.9,352.9,936.8,-0.3,-0.5,-1.6,25,-38.6169,352.767,937.703,-0.319529,-0.403142,-1.6201,
2026_07_06_19_04_33.167,3.846,29.8,0,0.758,0,0,0,0.003, ,0,0,0,0,0, ,-39.4,353.7,938.5,-0.2,-0.4,-1.6,25,-38.6189,352.799,937.7,-0.315292,-0.405998,-1.61888,
2026_07_06_19_04_33.189,3.846,29.8,0,0.759,0,0,0,0.003, ,0,0,0,0,0, ,-37.9,352,938.2,-0.3,-0.4,-1.6,25,-38.6208,352.802,937.739,-0.311313,-0.405632,-1.61773,
2026_07_06_19_04_33.206,3.846,29.8,0,0.759,0,0,0,0.004, ,0,0,0,0,0, ,-39,352.1,937.8,-0.3,-0.4,-1.6,25,-38.6104,352.757,937.755,-0.310624,-0.405289,-1.61665,
2026_07_06_19_04_33.230,3.846,29.8,0,0.758,0,0,0,0.004, ,0,0,0,0,0, ,-38.8,353.1,937.2,-0.3,-0.5,-1.6,25,-38.6281,352.747,937.74,-0.309976,-0.408014,-1.61563,
2026_07_06_19_04_33.246,3.846,29.8,0,0.759,0,0,0,0.004, ,0,0,0,0,0, ,-39.5,352.6,937.1,-0.3,-0.4,-1.7,25,-38.6599,352.753,937.704,-0.309368,-0.410572,-1.61773,
2026_07_06_19_04_33.269,3.846,29.8,0,0.759,0,0,0,0.004, ,0,0,0,0,0, ,-38,352.1,937.2,-0.2,-0.4,-1.5,25,-38.6654,352.729,937.67,-0.30575,-0.409928,-1.61665,
2026_07_06_19_04_33.288,3.846,29.8,0,0.759,0,0,0,0.004, ,0,0,0,0,0, ,-38.8,352,938.9,-0.3,-0.4,-1.6,25,-38.6492,352.687,937.693,-0.302353,-0.409323,-1.61259,
2026_07_06_19_04_33.310,3.846,29.8,0,0.759,0,0,0,0.004, ,0,0,0,0,0, ,-39.3,351.8,937.7,-0.5,-0.4,-1.6,25,-38.6736,352.639,937.73,-0.308304,-0.408755,-1.61182,
2026_07_06_19_04_33.325,3.846,29.9,0,0.76,0,0,0,0.004, ,0,0,0,0,0, ,-37.8,353,939,-0.5,-0.4,-1.7,25,-38.6661,352.625,937.768,-0.319985,-0.408221,-1.61415,
2026_07_06_19_04_33.348,3.846,29.8,0,0.758,0,0,0,0.003, ,0,0,0,0,0, ,-39.9,352.7,937.5,-0.5,-0.4,-1.6,25,-38.6773,352.639,937.797,-0.330955,-0.40772,-1.61633,
2026_07_06_19_04_33.365,3.846,29.8,0,0.759,0,0,0,0.004, ,0,0,0,0,0, ,-38.6,353.8,939.2,-0.4,-0.3,-1.6,25,-38.7122,352.676,937.831,-0.338209,-0.404203,-1.61534,
2026_07_06_19_04_33.388,3.846,29.8,0,0.759,0,0,0,0.004, ,0,0,0,0,0, ,-37.7,352.7,937.6,-0.4,-0.4,-1.7,25,-38.6779,352.711,937.866,-0.341974,-0.4009,-1.61745,
2026_07_06_19_04_33.405,3.846,29.8,0,0.759,0,0,0,0.004, ,0,0,0,0,0, ,-38.9,351.6,937,-0.4,-0.4,-1.6,25,-38.6549,352.677,937.831,-0.34551,-0.400845,-1.61943,
2026_07_06_19_04_33.429,3.846,29.8,0,0.759,0,0,0,0.004, ,0,0,0,0,0, ,-38.3,351.9,936.7,-0.4,-0.4,-1.7,25,-38.6516,352.62,937.771,-0.348831,-0.400794,-1.62129,
2026_07_06_19_04_33.443,3.846,29.9,0,0.758,0,0,0,0.004, ,0,0,0,0,0, ,-37.9,352.2,937.6,-0.5,-0.4,-1.6,25,-38.618,352.585,937.734,-0.354996,-0.400745,-1.62304,
2026_07_06_19_04_33.467,3.846,29.8,0,0.758,0,0,0,0.003, ,0,0,0,0,0, ,-39.4,351.6,937.5,-0.4,-0.4,-1.6,25,-38.6199,352.544,937.722,-0.360785,-0.4007,-1.62164,
2026_07_06_19_04_33.484,3.846,29.8,0,0.759,0,0,0,0.004, ,0,0,0,0,0, ,-38.3,352.6,937,-0.4,-0.4,-1.7,25,-38.6339,352.517,937.694,-0.363175,-0.400657,-1.62337,
2026_07_06_19_04_33.506,3.846,29.9,0,0.759,0,0,0,0.004, ,0,0,0,0,0, ,-36.7,353.6,938.1,-0.4,-0.4,-1.6,25,-38.5648,352.552,937.685,-0.365419,-0.400617,-1.62499,
2026_07_06_19_04_33.524,3.846,29.8,0,0.759,0,0,0,0.003, ,0,0,0,0,0, ,-38.4,352.5,937.8,-0.5,-0.4,-1.7,25,-38.503,352.583,937.701,-0.370573,-0.40058,-1.62651,
2026_07_06_19_04_33.546,3.846,29.9,0,0.758,0,0,0,0.004, ,0,0,0,0,0, ,-37.5,353,937.5,-0.5,-0.4,-1.6,25,-38.4693,352.593,937.698,-0.37846,-0.400544,-1.62795,
2026_07_06_19_04_33.563,3.846,29.9,0,0.759,0,0,0,0.003, ,0,0,0,0,0, ,-38.3,351.9,937.1,-0.5,-0.4,-1.7,25,-38.4346,352.584,937.674,-0.385866,-0.400511,-1.62929,
2026_07_06_19_04_33.586,3.846,29.8,0,0.759,0,0,0,0.003, ,0,0,0,0,0, ,-39,351.5,937,-0.4,-0.5,-1.7,25,-38.4477,352.53,937.636,-0.389774,-0.403527,-1.6336,
2026_07_06_19_04_33.603,3.846,29.8,0,0.758,0,0,0,0.004, ,0,0,0,0,0, ,-38,350,938.9,-0.5,-0.4,-1.6,25,-38.4509,352.422,937.655,-0.393444,-0.406359,-1.6346,
2026_07_06_19_04_33.625,3.846,29.8,0,0.759,0,0,0,0.004, ,0,0,0,0,0, ,-39,352,938.8,-0.5,-0.4,-1.6,25,-38.4539,352.335,937.728,-0.399938,-0.405971,-1.63249,
2026_07_06_19_04_33.642,3.846,29.8,0,0.76,0,0,0,0.004, ,0,0,0,0,0, ,-38.4,352.6,937.9,-0.5,-0.4,-1.6,25,-38.4689,352.333,937.766,-0.406035,-0.405607,-1.63051,
2026_07_06_19_04_33.666,3.846,29.8,0,0.758,0,0,0,0.004, ,0,0,0,0,0, ,-37.8,352.7,936.7,-0.4,-0.5,-1.6,25,-38.4464,352.352,937.737,-0.408714,-0.408313,-1.62865,
2026_07_06_19_04_33.683,3.846,29.9,0,0.758,0,0,0,0.004, ,0,0,0,0,0, ,-38,352.1,936,-0.4,-0.4,-1.5,25,-38.4131,352.355,937.653,-0.408183,-0.410853,-1.62386,
2026_07_06_19_04_33.708,3.846,29.8,0,0.759,0,0,0,0.003, ,0,0,0,0,0, ,-39.1,352.1,938.4,-0.4,-0.4,-1.6,25,-38.4215,352.34,937.625,-0.407685,-0.410192,-1.61936,
2026_07_06_19_04_33.721,3.846,29.8,0,0.759,0,0,0,0.004, ,0,0,0,0,0, ,-38.9,353.3,937.2,-0.4,-0.4,-1.6,25,-38.4567,352.362,937.636,-0.407216,-0.409571,-1.61818,
2026_07_06_19_04_33.746,3.846,29.8,0,0.759,0,0,0,0.004, ,0,0,0,0,0, ,-39.4,350.8,937.9,-0.4,-0.4,-1.6,25,-38.499,352.343,937.631,-0.406777,-0.408987,-1.61707,
2026_07_06_19_04_33.760,3.846,29.9,0,0.758,0,0,0,0.004, ,0,0,0,0,0, ,-37.9,352,937.9,-0.5,-0.4,-1.6,25,-38.5082,352.285,937.647,-0.409411,-0.40844,-1.61603,
2026_07_06_19_04_33.786,3.846,29.8,0,0.758,0,0,0,0.003, ,0,0,0,0,0, ,-36.4,353.1,936.4,-0.4,-0.4,-1.6,25,-38.4254,352.301,937.617,-0.411884,-0.407925,-1.61505,
2026_07_06_19_04_33.801,3.846,29.8,0,0.759,0,0,0,0.004, ,0,0,0,0,0, ,-38.9,352.9,938.1,-0.4,-0.5,-1.7,25,-38.3782,352.344,937.594,-0.41116,-0.410489,-1.61718,
2026_07_06_19_04_33.825,3.846,29.9,0,0.758,0,0,0,0.004, ,0,0,0,0,0, ,-38.6,354.1,938.3,-0.4,-0.4,-1.6,25,-38.4008,352.414,937.631,-0.41048,-0.412897,-1.61918,
2026_07_06_19_04_33.840,3.846,29.8,0,0.76,0,0,0,0.003, ,0,0,0,0,0, ,-38.8,352.9,938.8,-0.4,-0.4,-1.7,25,-38.419,352.48,937.687,-0.409841,-0.412111,-1.62106,
2026_07_06_19_04_33.864,3.846,29.8,0,0.759,0,0,0,0.004, ,0,0,0,0,0, ,-38.2,351.8,936.2,-0.4,-0.4,-1.6,25,-38.424,352.473,937.676,-0.409241,-0.411373,-1.62282,
2026_07_06_19_04_33.880,3.846,29.9,0,0.76,0,0,0,0.004, ,0,0,0,0,0, ,-37.3,353.3,937.9,-0.4,-0.4,-1.7,25,-38.3829,352.477,937.638,-0.408678,-0.41068,-1.62448,
2026_07_06_19_04_33.904,3.846,29.8,0,0.759,0,0,0,0.003, ,0,0,0,0,0, ,-38.5,353.6,938.3,-0.4,-0.4,-1.6,25,-38.3535,352.537,937.666,-0.408149,-0.410029,-1.62604,
2026_07_06_19_04_33.919,3.846,29.9,0,0.759,0,0,0,0.004, ,0,0,0,0,0, ,-39.6,352.1,938.5,-0.4,-0.4,-1.6,25,-38.3959,352.556,937.711,-0.407653,-0.409418,-1.62445,
2026_07_06_19_04_33.943,3.846,29.9,0,0.759,0,0,0,0.003, ,0,0,0,0,0, ,-38.4,352.1,936.4,-0.5,-0.5,-1.7,25,-38.4327,352.528,937.695,-0.410233,-0.411891,-1.62601,
2026_07_06_19_04_33.960,3.846,29.9,0,0.758,0,0,0,0.003, ,0,0,0,0,0, ,-37.5,353.5,937.9,-0.4,-0.4,-1.5,25,-38.4033,352.544,937.662,-0.412657,-0.414213,-1.62442,
2026_07_06_19_04_33.983,3.846,29.8,0,0.761,0,0,0,0.003, ,0,0,0,0,0, ,-39.7,351.9,938.1,-0.4,-0.4,-1.6,25,-38.4153,352.554,937.682,-0.411885,-0.413347,-1.61989,
2026_07_06_19_04_33.999,3.846,29.8,0,0.759,0,0,0,0.004, ,0,0,0,0,0, ,-38.6,353.1,937.9,-0.4,-0.4,-1.6,25,-38.4601,352.551,937.702,-0.411161,-0.412534,-1.61867,
2026_07_06_19_04_34.023,3.846,29.8,0,0.759,0,0,0,0.004, ,0,0,0,0,0, ,-38.4,352.1,937.3,-0.3,-0.4,-1.6,25,-38.4625,352.554,937.695,-0.407434,-0.41177,-1.61754,
2026_07_06_19_04_34.039,3.846,29.9,0,0.759,0,0,0,0.004, ,0,0,0,0,0, ,-39,351.9,937.2,-0.2,-0.4,-1.6,25,-38.477,352.52,937.668,-0.39784,-0.411053,-1.61647,
2026_07_06_19_04_34.065,3.846,29.9,0,0.76,0,0,0,0.003, ,0,0,0,0,0, ,-39.4,351.8,937.8,-0.3,-0.4,-1.7,25,-38.521,352.479,937.658,-0.388831,-0.410379,-1.61851,
2026_07_06_19_04_34.078,3.846,29.8,0,0.759,0,0,0,0.003, ,0,0,0,0,0, ,-39,352.4,937.1,-0.3,-0.4,-1.6,25,-38.5624,352.456,937.645,-0.383418,-0.409747,-1.62043,
2026_07_06_19_04_34.109,3.846,29.8,0,0.759,0,0,0,0.004, ,0,0,0,0,0, ,-38.3,353,938.9,-0.3,-0.4,-1.6,25,-38.5677,352.471,937.667,-0.378335,-0.409153,-1.61918,
2026_07_06_19_04_34.118,3.846,29.8,0,0.758,0,0,0,0.004, ,0,0,0,0,0, ,-39.1,351.9,937,-0.4,-0.5,-1.6,25,-38.5758,352.47,937.684,-0.376608,-0.411642,-1.61802,
2026_07_06_19_04_34.141,3.846,29.9,0,0.758,0,0,0,0.004, ,0,0,0,0,0, ,-38.3,351.1,936,-0.4,-0.4,-1.7,25,-38.5834,352.41,937.612,-0.378034,-0.413979,-1.61996,
2026_07_06_19_04_34.157,3.846,29.8,0,0.759,0,0,0,0.004, ,0,0,0,0,0, ,-39.3,351.5,938.3,-0.3,-0.4,-1.6,25,-38.5966,352.343,937.584,-0.376325,-0.413128,-1.6218,
2026_07_06_19_04_34.181,3.846,29.9,0,0.758,0,0,0,0.004, ,0,0,0,0,0, ,-37.7,352.1,937.1,-0.3,-0.4,-1.8,25,-38.5907,352.31,937.591,-0.371674,-0.412328,-1.62656,
2026_07_06_19_04_34.196,3.846,29.9,0,0.759,0,0,0,0.004, ,0,0,0,0,0, ,-38.5,351.5,937.7,-0.3,-0.4,-1.6,25,-38.5608,352.279,937.579,-0.367307,-0.411576,-1.63104,
2026_07_06_19_04_34.220,3.846,29.9,0,0.759,0,0,0,0.004, ,0,0,0,0,0, ,-37.3,351.9,937.1,-0.3,-0.3,-1.7,25,-38.5205,352.243,937.568,-0.363205,-0.407824,-1.63219,
2026_07_06_19_04_34.236,3.846,29.8,0,0.759,0,0,0,0.004, ,0,0,0,0,0, ,-38.5,351.1,937.8,-0.3,-0.4,-1.6,25,-38.4827,352.198,937.561,-0.359354,-0.4043,-1.63328,
2026_07_06_19_04_34.260,3.846,29.9,0,0.76,0,0,0,0.004, ,0,0,0,0,0, ,-39.6,352.6,937.3,-0.4,-0.4,-1.7,25,-38.5173,352.177,937.56,-0.358784,-0.404038,-1.6343,
2026_07_06_19_04_34.275,3.846,29.9,0,0.76,0,0,0,0.004, ,0,0,0,0,0, ,-38.6,350.7,938.1,-0.4,-0.4,-1.7,25,-38.5528,352.145,937.569,-0.361295,-0.403792,-1.6383,
2026_07_06_19_04_34.299,3.846,29.8,0,0.758,0,0,0,0.004, ,0,0,0,0,0, ,-39.3,351.9,938.5,-0.4,-0.5,-1.6,25,-38.577,352.093,937.614,-0.363654,-0.406608,-1.63901,
2026_07_06_19_04_34.316,3.846,29.8,0,0.758,0,0,0,0.004, ,0,0,0,0,0, ,-37.9,350.9,937,-0.4,-0.4,-1.6,25,-38.5784,352.051,937.622,-0.365869,-0.409252,-1.63664,
2026_07_06_19_04_34.341,3.846,29.9,0,0.759,0,0,0,0.004, ,0,0,0,0,0, ,-37.9,351.6,936.5,-0.4,-0.4,-1.6,25,-38.5371,352.002,937.569,-0.367949,-0.408688,-1.6344,
2026_07_06_19_04_34.354,3.846,29.9,0,0.759,0,0,0,0.004, ,0,0,0,0,0, ,-38,352.4,937.5,-0.4,-0.4,-1.6,25,-38.5013,352.002,937.534,-0.369902,-0.408159,-1.63231,
2026_07_06_19_04_34.379,3.846,29.8,0,0.759,0,0,0,0.004, ,0,0,0,0,0, ,-37.8,351.5,938.1,-0.5,-0.4,-1.6,25,-38.4646,351.999,937.55,-0.374783,-0.407662,-1.63034,
2026_07_06_19_04_34.395,3.846,29.9,0,0.759,0,0,0,0.004, ,0,0,0,0,0, ,-38.6,351.4,938.3,-0.4,-0.4,-1.6,25,-38.4485,351.965,937.59,-0.379366,-0.407195,-1.62849,
2026_07_06_19_04_34.421,3.846,29.9,0,0.758,0,0,0,0.004, ,0,0,0,0,0, ,-38.8,351.3,937.6,-0.5,-0.4,-1.6,25,-38.4638,351.928,937.612,-0.38367,-0.406756,-1.62675,
2026_07_06_19_04_34.434,3.846,29.9,0,0.76,0,0,0,0.004, ,0,0,0,0,0, ,-37.4,353.2,937.3,-0.5,-0.4,-1.6,25,-38.4417,351.948,937.602,-0.390759,-0.406345,-1.62512,
2026_07_06_19_04_34.458,3.846,30,0,0.759,0,0,0,0.004, ,0,0,0,0,0, ,-38.5,352.1,937.1,-0.4,-0.4,-1.6,25,-38.4117,351.99,937.577,-0.394369,-0.405958,-1.62359,
2026_07_06_19_04_34.473,3.846,30,0,0.759,0,0,0,0.003, ,0,0,0,0,0, ,-37.9,351.5,939.8,-0.4,-0.3,-1.6,25,-38.3988,351.979,937.631,-0.394712,-0.402548,-1.62215,
2026_07_06_19_04_34.497,3.846,29.8,0,0.759,0,0,0,0.003, ,0,0,0,0,0, ,-39.4,353,937.9,-0.5,-0.4,-1.6,25,-38.4141,351.995,937.705,-0.398082,-0.399346,-1.6208,
2026_07_06_19_04_34.516,3.846,30,0,0.759,0,0,0,0.005, ,0,0,0,0,0, ,-38.3,352.1,937.7,-0.4,-0.4,-1.7,25,-38.4407,352.029,937.711,-0.401245,-0.399386,-1.62258,
2026_07_06_19_04_34.541,3.846,29.9,0,0.759,0,0,0,0.003, ,0,0,0,0,0, ,-39.4,351.5,937.8,-0.4,-0.3,-1.7,25,-38.4656,352.015,937.713,-0.401169,-0.396376,-1.6273,
2026_07_06_19_04_34.552,3.846,29.9,0,0.758,0,0,0,0.004, ,0,0,0,0,0, ,-38.4,352.7,937.7,-0.4,-0.4,-1.6,25,-38.4921,352.02,937.715,-0.401098,-0.39355,-1.62868,
2026_07_06_19_04_34.577,3.846,29.9,0,0.759,0,0,0,0.004, ,0,0,0,0,0, ,-36.7,353,937.9,-0.4,-0.4,-1.6,25,-38.4347,352.071,937.721,-0.401031,-0.393943,-1.62694,
2026_07_06_19_04_34.593,3.846,29.9,0,0.76,0,0,0,0.004, ,0,0,0,0,0, ,-38.8,351.6,937.7,-0.4,-0.4,-1.5,25,-38.393,352.085,937.725,-0.400968,-0.394312,-1.62225,
2026_07_06_19_04_34.619,3.846,29.9,0,0.759,0,0,0,0.004, ,0,0,0,0,0, ,-38.5,353.1,937.7,-0.4,-0.4,-1.7,25,-38.4086,352.101,937.724,-0.400909,-0.394659,-1.62089,
2026_07_06_19_04_34.633,3.846,29.9,0,0.76,0,0,0,0.004, ,0,0,0,0,0, ,-39,352.1,937.2,-0.4,-0.4,-1.7,25,-38.4294,352.131,937.707,-0.400854,-0.394985,-1.62571,
2026_07_06_19_04_34.656,3.846,30,0,0.758,0,0,0,0.004, ,0,0,0,0,0, ,-37.9,351.6,937.3,-0.4,-0.4,-1.7,25,-38.4307,352.114,937.679,-0.400802,-0.39529,-1.63024,
2026_07_06_19_04_34.671,3.846,29.9,0,0.759,0,0,0,0.003, ,0,0,0,0,0, ,-39,352.5,937.7,-0.4,-0.3,-1.6,25,-38.4319,352.11,937.668,-0.400753,-0.39253,-1.63144,
2026_07_06_19_04_34.697,3.846,29.9,0,0.759,0,0,0,0.004, ,0,0,0,0,0, ,-37.9,353,938.1,-0.5,-0.4,-1.7,25,-38.433,352.149,937.682,-0.403754,-0.389939,-1.63257,
2026_07_06_19_04_34.712,3.846,29.9,0,0.759,0,0,0,0.004, ,0,0,0,0,0, ,-38.5,351.4,938.9,-0.2,-0.4,-1.5,25,-38.4188,352.152,937.732,-0.400478,-0.390552,-1.63059,
2026_07_06_19_04_34.738,3.846,29.9,0,0.759,0,0,0,0.004, ,0,0,0,0,0, ,-37.5,351.1,938.3,-0.3,-0.4,-1.7,25,-38.3932,352.097,937.785,-0.391309,-0.391127,-1.62873,
2026_07_06_19_04_34.751,3.846,29.9,0,0.758,0,0,0,0.004, ,0,0,0,0,0, ,-38.4,351.8,937.2,-0.3,-0.4,-1.6,25,-38.3662,352.058,937.783,-0.385745,-0.391668,-1.63002,
2026_07_06_19_04_34.777,3.846,30,0,0.758,0,0,0,0.004, ,0,0,0,0,0, ,-38.2,351.5,937.2,-0.3,-0.3,-1.6,25,-38.3622,352.033,937.747,-0.380519,-0.389129,-1.62819,
2026_07_06_19_04_34.790,3.846,29.9,0,0.758,0,0,0,0.003, ,0,0,0,0,0, ,-38.4,352.4,937.3,-0.2,-0.4,-1.6,25,-38.3584,352.028,937.717,-0.372566,-0.386745,-1.62647,
2026_07_06_19_04_34.818,3.846,29.9,0,0.758,0,0,0,0.004, ,0,0,0,0,0, ,-38.2,351.1,937.3,-0.3,-0.3,-1.6,25,-38.3549,352.011,937.692,-0.365097,-0.384505,-1.62486,
2026_07_06_19_04_34.831,3.846,29.9,0,0.76,0,0,0,0.004, ,0,0,0,0,0, ,-39.1,351.3,935.1,-0.4,-0.4,-1.6,25,-38.3728,351.962,937.601,-0.364177,-0.382403,-1.62335,
2026_07_06_19_04_34.859,3.846,29.9,0,0.759,0,0,0,0.004, ,0,0,0,0,0, ,-37.9,352,937.8,-0.4,-0.5,-1.6,25,-38.3806,351.943,937.531,-0.36636,-0.386522,-1.62192,
2026_07_06_19_04_34.871,3.846,29.9,0,0.759,0,0,0,0.004, ,0,0,0,0,0, ,-37.2,351,937.8,-0.3,-0.5,-1.6,25,-38.33,351.916,937.547,-0.365363,-0.393437,-1.62059,
2026_07_06_19_04_34.897,3.846,30,0,0.76,0,0,0,0.004, ,0,0,0,0,0, ,-38.8,352.4,938.4,-0.3,-0.4,-1.7,25,-38.3099,351.903,937.581,-0.36138,-0.396884,-1.62238,
2026_07_06_19_04_34.910,3.846,29.9,0,0.76,0,0,0,0.003, ,0,0,0,0,0, ,-39.3,351.5,937.2,-0.4,-0.4,-1.6,25,-38.355,351.905,937.594,-0.360687,-0.397074,-1.62406,
2026_07_06_19_04_34.935,3.846,29.9,0,0.759,0,0,0,0.004, ,0,0,0,0,0, ,-38.3,352.6,937.1,-0.4,-0.4,-1.6,25,-38.3821,351.914,937.567,-0.363082,-0.397252,-1.6226,
2026_07_06_19_04_34.950,3.846,30,0,0.758,0,0,0,0.004, ,0,0,0,0,0, ,-38.8,351.5,938.3,-0.4,-0.5,-1.7,25,-38.3923,351.923,937.575,-0.365332,-0.400466,-1.62427,
2026_07_06_19_04_34.976,3.846,29.9,0,0.758,0,0,0,0.003, ,0,0,0,0,0, ,-38.2,351.6,938.3,-0.3,-0.4,-1.6,25,-38.3989,351.9,937.619,-0.364398,-0.403485,-1.62583,
2026_07_06_19_04_34.990,3.846,29.9,0,0.759,0,0,0,0.004, ,0,0,0,0,0, ,-38.9,351.1,937.2,-0.4,-0.4,-1.6,25,-38.4081,351.866,937.627,-0.36352,-0.403272,-1.62426,
2026_07_06_19_04_35.015,3.846,30,0,0.759,0,0,0,0.004, ,0,0,0,0,0, ,-39.3,352,937.9,-0.5,-0.3,-1.7,25,-38.4503,351.847,937.623,-0.36879,-0.400026,-1.62583,
2026_07_06_19_04_35.029,3.846,29.9,0,0.759,0,0,0,0.003, ,0,0,0,0,0, ,-38.5,351.9,937.5,-0.4,-0.4,-1.6,25,-38.4777,351.853,937.627,-0.373739,-0.396978,-1.6273,
2026_07_06_19_04_35.056,3.846,29.9,0,0.757,0,0,0,0.004, ,0,0,0,0,0, ,-38.3,351.9,938.3,-0.4,-0.4,-1.6,25,-38.4729,351.856,937.644,-0.375339,-0.397162,-1.62564,
2026_07_06_19_04_35.068,3.846,29.9,0,0.759,0,0,0,0.004, ,0,0,0,0,0, ,-39.7,352.1,938.5,-0.4,-0.4,-1.7,25,-38.505,351.865,937.69,-0.376842,-0.397335,-1.62712,
2026_07_06_19_04_35.092,3.846,29.9,0,0.76,0,0,0,0.004, ,0,0,0,0,0, ,-39.1,351.9,937.7,-0.4,-0.4,-1.6,25,-38.5596,351.873,937.715,-0.378253,-0.397497,-1.62852,
2026_07_06_19_04_35.108,3.846,30,0,0.759,0,0,0,0.004, ,0,0,0,0,0, ,-38,352.2,937.2,-0.4,-0.4,-1.6,25,-38.559,351.884,937.699,-0.379578,-0.39765,-1.62678,
2026_07_06_19_04_35.133,3.846,29.9,0,0.76,0,0,0,0.003, ,0,0,0,0,0, ,-39,352.6,937.7,-0.4,-0.4,-1.6,25,-38.5554,351.915,937.684,-0.380823,-0.397793,-1.62515,
2026_07_06_19_04_35.147,3.846,30,0,0.759,0,0,0,0.004, ,0,0,0,0,0, ,-38.6,351.4,937.2,-0.4,-0.4,-1.5,25,-38.5703,351.921,937.669,-0.381991,-0.397927,-1.62057,
2026_07_06_19_04_35.173,3.846,29.9,0,0.759,0,0,0,0.003, ,0,0,0,0,0, ,-38.9,351.3,938.9,-0.5,-0.4,-1.7,25,-38.5813,351.886,937.693,-0.386136,-0.398054,-1.61931,
2026_07_06_19_04_35.187,3.846,30.1,0,0.758,0,0,0,0.004, ,0,0,0,0,0, ,-36.8,353.1,937.8,-0.4,-0.4,-1.6,25,-38.5367,351.905,937.733,-0.390027,-0.398172,-1.62118,
2026_07_06_19_04_35.211,3.846,30,0,0.759,0,0,0,0.002, ,0,0,0,0,0, ,-38,350.4,938.3,-0.5,-0.4,-1.6,25,-38.4674,351.895,937.752,-0.393682,-0.398284,-1.61989,
2026_07_06_19_04_35.226,3.846,30,0,0.76,0,0,0,0.003, ,0,0,0,0,0, ,-39,353.3,938.2,-0.5,-0.4,-1.7,25,-38.4694,351.893,937.782,-0.400161,-0.398388,-1.62173,
2026_07_06_19_04_35.252,3.846,30,0,0.76,0,0,0,0.003, ,0,0,0,0,0, ,-38.9,353.8,936.4,-0.5,-0.4,-1.6,25,-38.4987,351.994,937.753,-0.406245,-0.398487,-1.62345,
2026_07_06_19_04_35.266,3.846,29.9,0,0.76,0,0,0,0.003, ,0,0,0,0,0, ,-38.3,352.2,937.7,-0.3,-0.4,-1.6,25,-38.5049,352.055,937.71,-0.405864,-0.398579,-1.62202,
2026_07_06_19_04_35.292,3.846,30,0,0.761,0,0,0,0.004, ,0,0,0,0,0, ,-38.9,352,938.3,-0.4,-0.4,-1.6,25,-38.5107,352.058,937.728,-0.40246,-0.398665,-1.62068,
2026_07_06_19_04_35.306,3.846,30,0,0.758,0,0,0,0.003, ,0,0,0,0,0, ,-38.2,351.1,937.5,-0.5,-0.5,-1.6,25,-38.5131,352.027,937.738,-0.405357,-0.401794,-1.61942,
2026_07_06_19_04_35.332,3.846,29.9,0,0.759,0,0,0,0.003, ,0,0,0,0,0, ,-38.2,352.7,936.4,-0.5,-0.4,-1.6,25,-38.494,352.019,937.69,-0.411124,-0.404731,-1.61824,
2026_07_06_19_04_35.344,3.846,29.9,0,0.758,0,0,0,0.004, ,0,0,0,0,0, ,-38.5,351.3,938.3,-0.4,-0.3,-1.6,25,-38.4852,352.018,937.67,-0.413493,-0.401396,-1.61713,
2026_07_06_19_04_35.371,3.846,29.9,0,0.759,0,0,0,0.004, ,0,0,0,0,0, ,-38.8,353.1,937.8,-0.4,-0.4,-1.7,25,-38.4953,352.029,937.693,-0.412671,-0.398264,-1.61913,
2026_07_06_19_04_35.385,3.846,30,0,0.76,0,0,0,0.004, ,0,0,0,0,0, ,-38.6,352.6,936.7,-0.4,-0.4,-1.6,25,-38.5077,352.079,937.666,-0.411899,-0.39837,-1.62101,
2026_07_06_19_04_35.411,3.846,30,0,0.759,0,0,0,0.003, ,0,0,0,0,0, ,-38.8,353.8,936.1,-0.3,-0.4,-1.6,25,-38.5194,352.147,937.589,-0.408127,-0.398469,-1.61973,
2026_07_06_19_04_35.424,3.846,30,0,0.759,0,0,0,0.003, ,0,0,0,0,0, ,-39.6,350.3,939,-0.3,-0.4,-1.6,25,-38.5609,352.141,937.586,-0.401538,-0.398562,-1.61853,
2026_07_06_19_04_35.448,3.846,30,0,0.759,0,0,0,0.003, ,0,0,0,0,0, ,-38.4,351.6,937.5,-0.3,-0.4,-1.6,25,-38.5877,352.069,937.627,-0.39535,-0.39865,-1.6174,
2026_07_06_19_04_35.470,3.846,29.9,0,0.758,0,0,0,0.003, ,0,0,0,0,0, ,-38,351.5,937.1,-0.3,-0.3,-1.7,25,-38.5641,352.037,937.607,-0.38954,-0.395685,-1.61938,
2026_07_06_19_04_35.496,3.846,30,0,0.759,0,0,0,0.004, ,0,0,0,0,0, ,-38.9,351.5,938.4,-0.3,-0.3,-1.7,25,-38.5571,352.004,937.616,-0.384084,-0.389855,-1.6243,
2026_07_06_19_04_35.504,3.846,29.9,0,0.759,0,0,0,0.003, ,0,0,0,0,0, ,-40,351.4,937.1,-0.3,-0.4,-1.6,25,-38.6115,351.971,937.624,-0.37896,-0.387426,-1.62586,
2026_07_06_19_04_35.531,3.846,30,0,0.759,0,0,0,0.004, ,0,0,0,0,0, ,-38.3,351.9,937.7,-0.2,-0.4,-1.7,25,-38.6443,351.951,937.61,-0.371101,-0.388192,-1.62733,
2026_07_06_19_04_35.543,3.846,29.9,0,0.758,0,0,0,0.003, ,0,0,0,0,0, ,-39.3,352.2,938.4,-0.4,-0.4,-1.6,25,-38.6538,351.957,937.637,-0.366769,-0.388912,-1.62872,
2026_07_06_19_04_35.569,3.846,29.9,0,0.758,0,0,0,0.004, ,0,0,0,0,0, ,-38.6,352,936,-0.3,-0.4,-1.7,25,-38.6719,351.966,937.61,-0.365747,-0.389587,-1.63001,
2026_07_06_19_04_35.583,3.846,29.9,0,0.759,0,0,0,0.004, ,0,0,0,0,0, ,-38.8,350.4,937.7,-0.3,-0.3,-1.6,25,-38.6736,351.919,937.564,-0.36174,-0.387175,-1.63123,
2026_07_06_19_04_35.608,3.846,29.8,0,0.759,0,0,0,0.004, ,0,0,0,0,0, ,-39.3,352.1,937.6,-0.5,-0.4,-1.6,25,-38.6965,351.878,937.569,-0.364072,-0.38491,-1.62933,
2026_07_06_19_04_35.622,3.846,30,0,0.759,0,0,0,0.005, ,0,0,0,0,0, ,-38.6,351.1,937.8,-0.4,-0.4,-1.6,25,-38.712,351.861,937.577,-0.369308,-0.385829,-1.62754,
2026_07_06_19_04_35.648,3.846,29.9,0,0.759,0,0,0,0.003, ,0,0,0,0,0, ,-38.4,353,936.8,-0.2,-0.4,-1.6,25,-38.699,351.873,937.56,-0.365085,-0.386693,-1.62586,
2026_07_06_19_04_35.662,3.846,29.9,0,0.759,0,0,0,0.004, ,0,0,0,0,0, ,-38.2,352,937.1,-0.3,-0.4,-1.6,25,-38.6747,351.911,937.523,-0.358072,-0.387504,-1.62429,
2026_07_06_19_04_35.689,3.846,30,0,0.759,0,0,0,0.004, ,0,0,0,0,0, ,-39,351.1,937.6,-0.4,-0.4,-1.7,25,-38.6702,351.889,937.513,-0.35758,-0.388265,-1.62585,
2026_07_06_19_04_35.701,3.846,29.9,0,0.76,0,0,0,0.003, ,0,0,0,0,0, ,-38.5,351.6,938.2,-0.4,-0.3,-1.6,25,-38.675,351.856,937.536,-0.360165,-0.385933,-1.62732,
2026_07_06_19_04_35.727,3.846,29.9,0,0.759,0,0,0,0.004, ,0,0,0,0,0, ,-37.8,352.1,937,-0.3,-0.4,-1.7,25,-38.643,351.856,937.54,-0.359545,-0.383744,-1.62871,
2026_07_06_19_04_35.742,3.846,30,0,0.76,0,0,0,0.004, ,0,0,0,0,0, ,-38.5,351.8,938.1,-0.4,-0.4,-1.6,25,-38.613,351.862,937.541,-0.358964,-0.384734,-1.63,
2026_07_06_19_04_35.768,3.846,29.9,0,0.758,0,0,0,0.003, ,0,0,0,0,0, ,-38.6,352.2,937,-0.4,-0.4,-1.6,25,-38.6092,351.87,937.541,-0.361464,-0.385665,-1.62818,
2026_07_06_19_04_35.781,3.846,29.9,0,0.759,0,0,0,0.004, ,0,0,0,0,0, ,-39.5,352.2,937.9,-0.5,-0.4,-1.6,25,-38.636,351.89,937.536,-0.366859,-0.386538,-1.62646,
2026_07_06_19_04_35.807,3.846,29.9,0,0.76,0,0,0,0.004, ,0,0,0,0,0, ,-39.5,351.9,937,-0.3,-0.4,-1.5,25,-38.6887,351.9,937.53,-0.368879,-0.387358,-1.6218,
2026_07_06_19_04_35.821,3.846,29.9,0,0.759,0,0,0,0.004, ,0,0,0,0,0, ,-38.2,352.5,937.8,-0.4,-0.4,-1.6,25,-38.6985,351.918,937.522,-0.367729,-0.388129,-1.61742,
2026_07_06_19_04_35.849,3.846,30,0,0.759,0,0,0,0.004, ,0,0,0,0,0, ,-38.4,351,938.1,-0.4,-0.4,-1.5,25,-38.6742,351.908,937.549,-0.369695,-0.388852,-1.61332,
2026_07_06_19_04_35.860,3.846,30,0,0.759,0,0,0,0.003, ,0,0,0,0,0, ,-37.9,352.7,939,-0.5,-0.4,-1.6,25,-38.6423,351.904,937.61,-0.374589,-0.389532,-1.60946,
2026_07_06_19_04_35.887,3.846,29.9,0,0.759,0,0,0,0.003, ,0,0,0,0,0, ,-38.8,352.2,937,-0.4,-0.4,-1.6,25,-38.6245,351.938,937.633,-0.379184,-0.390169,-1.60888,
2026_07_06_19_04_35.900,3.846,29.9,0,0.758,0,0,0,0.004, ,0,0,0,0,0, ,-37.7,352.9,937.2,-0.4,-0.4,-1.6,25,-38.6016,351.975,937.601,-0.380452,-0.390769,-1.60834,
2026_07_06_19_04_35.925,3.846,29.9,0,0.759,0,0,0,0.004, ,0,0,0,0,0, ,-37.8,351.6,937.3,-0.4,-0.4,-1.6,25,-38.5497,351.992,937.579,-0.381644,-0.391331,-1.60783,
2026_07_06_19_04_35.939,3.846,29.9,0,0.759,0,0,0,0.004, ,0,0,0,0,0, ,-38.6,351.6,936.8,-0.5,-0.4,-1.6,25,-38.5284,351.968,937.547,-0.385809,-0.391859,-1.60735,
2026_07_06_19_04_35.967,3.846,29.9,0,0.759,0,0,0,0.004, ,0,0,0,0,0, ,-38.2,352.4,938.4,-0.4,-0.3,-1.6,25,-38.5206,351.97,937.55,-0.389721,-0.389309,-1.60691,
2026_07_06_19_04_35.986,3.846,29.9,0,0.758,0,0,0,0.004, ,0,0,0,0,0, ,-38.8,351.4,938.2,-0.4,-0.5,-1.7,25,-38.5194,351.966,937.596,-0.390347,-0.38996,-1.60953,
2026_07_06_19_04_36.013,3.846,29.9,0,0.759,0,0,0,0.004, ,0,0,0,0,0, ,-39,351.8,937.3,-0.4,-0.4,-1.7,25,-38.5425,351.943,937.605,-0.390935,-0.393619,-1.61505,
2026_07_06_19_04_36.020,3.846,29.9,0,0.759,0,0,0,0.004, ,0,0,0,0,0, ,-39.5,352.2,937.9,-0.4,-0.4,-1.6,25,-38.5857,351.947,937.605,-0.391488,-0.394008,-1.61718,
2026_07_06_19_04_36.047,3.846,29.9,0,0.759,0,0,0,0.004, ,0,0,0,0,0, ,-38.6,353,937.9,-0.4,-0.4,-1.6,25,-38.614,351.987,937.623,-0.392006,-0.394373,-1.61613,
2026_07_06_19_04_36.057,3.846,29.9,0,0.759,0,0,0,0.004, ,0,0,0,0,0, ,-38,352.6,937.2,-0.4,-0.5,-1.6,25,-38.5948,352.036,937.619,-0.392494,-0.397763,-1.61515,
2026_07_06_19_04_36.084,3.846,30.1,0,0.76,0,0,0,0.004, ,0,0,0,0,0, ,-38,352.4,937.7,-0.4,-0.4,-1.5,25,-38.5586,352.064,937.608,-0.392951,-0.400946,-1.61118,
2026_07_06_19_04_36.097,3.846,29.9,0,0.76,0,0,0,0.003, ,0,0,0,0,0, ,-37.2,351,937.9,-0.2,-0.4,-1.6,25,-38.5002,352.042,937.62,-0.387287,-0.400888,-1.60745,
2026_07_06_19_04_36.125,3.846,29.9,0,0.759,0,0,0,0.004, ,0,0,0,0,0, ,-39.1,353.3,937.1,-0.3,-0.4,-1.6,25,-38.4788,352.049,937.613,-0.378921,-0.400834,-1.60699,
2026_07_06_19_04_36.138,3.846,29.9,0,0.759,0,0,0,0.004, ,0,0,0,0,0, ,-37.7,352.9,937.6,-0.2,-0.4,-1.6,25,-38.474,352.113,937.597,-0.371065,-0.400783,-1.60657,
2026_07_06_19_04_36.165,3.846,30,0,0.759,0,0,0,0.004, ,0,0,0,0,0, ,-39.4,351.8,937.8,-0.3,-0.4,-1.7,25,-38.4787,352.127,937.603,-0.363687,-0.400735,-1.60921,
2026_07_06_19_04_36.177,3.846,29.9,0,0.76,0,0,0,0.003, ,0,0,0,0,0, ,-38.2,351.8,937.3,-0.2,-0.4,-1.6,25,-38.4982,352.107,937.6,-0.35676,-0.400691,-1.6117,
2026_07_06_19_04_36.205,3.846,30,0,0.759,0,0,0,0.004, ,0,0,0,0,0, ,-38.9,351.3,937.7,-0.2,-0.5,-1.6,25,-38.5014,352.073,937.594,-0.347207,-0.403695,-1.61099,
2026_07_06_19_04_36.217,3.846,30,0,0.76,0,0,0,0.004, ,0,0,0,0,0, ,-39.6,352,938.1,-0.3,-0.3,-1.7,25,-38.547,352.048,937.612,-0.341283,-0.40347,-1.61336,
2026_07_06_19_04_36.244,3.846,30,0,0.759,0,0,0,0.003, ,0,0,0,0,0, ,-38.8,353.1,937.3,-0.2,-0.4,-1.7,25,-38.5868,352.078,937.618,-0.335721,-0.400212,-1.61864,
2026_07_06_19_04_36.257,3.846,30,0,0.759,0,0,0,0.004, ,0,0,0,0,0, ,-38.4,351.5,937.7,-0.3,-0.4,-1.6,25,-38.5876,352.092,937.611,-0.330497,-0.400199,-1.62055,
2026_07_06_19_04_36.284,3.846,29.9,0,0.759,0,0,0,0.004, ,0,0,0,0,0, ,-38.2,352.1,937.6,-0.3,-0.5,-1.6,25,-38.5701,352.074,937.613,-0.328639,-0.403234,-1.6193,
2026_07_06_19_04_36.295,3.846,30,0,0.76,0,0,0,0.004, ,0,0,0,0,0, ,-39.1,352.5,935.9,-0.2,-0.4,-1.7,25,-38.5749,352.088,937.56,-0.323847,-0.406084,-1.62117,
2026_07_06_19_04_36.324,3.846,29.9,0,0.76,0,0,0,0.004, ,0,0,0,0,0, ,-39.5,351.9,937.2,-0.3,-0.4,-1.7,25,-38.6191,352.095,937.499,-0.319347,-0.405713,-1.62598,
2026_07_06_19_04_36.335,3.846,29.9,0,0.759,0,0,0,0.004, ,0,0,0,0,0, ,-38,353.6,937.6,-0.3,-0.4,-1.7,25,-38.6271,352.134,937.493,-0.318168,-0.405365,-1.63049,
2026_07_06_19_04_36.364,3.846,29.9,0,0.759,0,0,0,0.004, ,0,0,0,0,0, ,-39.3,351.8,938.4,-0.3,-0.3,-1.7,25,-38.6285,352.169,937.524,-0.317061,-0.401991,-1.63472,
2026_07_06_19_04_36.375,3.846,29.9,0,0.758,0,0,0,0.004, ,0,0,0,0,0, ,-39.4,351.8,939,-0.3,-0.4,-1.6,25,-38.6725,352.146,937.595,-0.316021,-0.398823,-1.63565,
2026_07_06_19_04_36.403,3.846,30,0,0.76,0,0,0,0.004, ,0,0,0,0,0, ,-38.6,350.3,938.2,-0.3,-0.4,-1.6,25,-38.6924,352.08,937.657,-0.315045,-0.398894,-1.63348,
2026_07_06_19_04_36.414,3.846,29.9,0,0.76,0,0,0,0.004, ,0,0,0,0,0, ,-39.9,351.5,937.5,-0.3,-0.5,-1.6,25,-38.7264,352.008,937.668,-0.314128,-0.402009,-1.63144,
2026_07_06_19_04_36.442,3.846,29.9,0,0.76,0,0,0,0.004, ,0,0,0,0,0, ,-39,351.1,937.9,-0.3,-0.3,-1.6,25,-38.7705,351.965,937.67,-0.313267,-0.401886,-1.62953,
2026_07_06_19_04_36.455,3.846,29.9,0,0.76,0,0,0,0.004, ,0,0,0,0,0, ,-38.6,352.4,937.3,-0.2,-0.4,-1.7,25,-38.7723,351.952,937.666,-0.309412,-0.398724,-1.63077,
2026_07_06_19_04_36.481,3.846,30,0,0.76,0,0,0,0.004, ,0,0,0,0,0, ,-38.2,352.4,937.7,-0.3,-0.3,-1.6,25,-38.7496,351.979,937.656,-0.305791,-0.395755,-1.63194,
2026_07_06_19_04_36.494,3.846,29.9,0,0.759,0,0,0,0.004, ,0,0,0,0,0, ,-38.9,351.9,938.2,-0.2,-0.4,-1.6,25,-38.7374,351.989,937.674,-0.302392,-0.392967,-1.63,
2026_07_06_19_04_36.525,3.846,30.1,0,0.758,0,0,0,0.004, ,0,0,0,0,0, ,-38.3,352.7,937.7,-0.3,-0.4,-1.6,25,-38.7291,352.008,937.691,-0.299199,-0.393396,-1.62817,
2026_07_06_19_04_36.534,3.846,30,0,0.759,0,0,0,0.003, ,0,0,0,0,0, ,-39.4,351.4,938.3,-0.2,-0.4,-1.6,25,-38.7364,352.011,937.71,-0.296201,-0.393798,-1.62645,
2026_07_06_19_04_36.564,3.846,29.9,0,0.758,0,0,0,0.004, ,0,0,0,0,0, ,-38.8,350.8,937.2,-0.3,-0.4,-1.6,25,-38.7586,351.955,937.712,-0.293386,-0.394176,-1.62484,
2026_07_06_19_04_36.579,3.846,30,0,0.758,0,0,0,0.004, ,0,0,0,0,0, ,-38.9,350.9,937.8,-0.3,-0.4,-1.6,25,-38.7642,351.888,937.699,-0.293789,-0.394531,-1.62333,
2026_07_06_19_04_36.619,3.846,30,0,0.758,0,0,0,0.004, ,0,0,0,0,0, ,-38.5,350.9,937.3,-0.3,-0.4,-1.6,25,-38.7603,351.828,937.69,-0.294167,-0.394864,-1.62191,
2026_07_06_19_04_36.620,3.846,30.1,0,0.758,0,0,0,0.004, ,0,0,0,0,0, ,-38.5,350.7,936.4,-0.3,-0.5,-1.6,25,-38.7444,351.765,937.639,-0.294523,-0.398224,-1.62057,
2026_07_06_19_04_36.649,3.846,29.9,0,0.758,0,0,0,0.003, ,0,0,0,0,0, ,-39.7,350,938.3,-0.3,-0.4,-1.7,25,-38.7661,351.679,937.621,-0.294856,-0.401379,-1.62236,
2026_07_06_19_04_36.655,3.846,30,0,0.758,0,0,0,0.004, ,0,0,0,0,0, ,-39.3,351.9,938.5,-0.2,-0.3,-1.6,25,-38.8108,351.634,937.669,-0.292123,-0.398248,-1.62405,
2026_07_06_19_04_36.683,3.846,30.1,0,0.758,0,0,0,0.004, ,0,0,0,0,0, ,-37.8,350.9,938.3,-0.3,-0.4,-1.6,25,-38.7949,351.62,937.713,-0.289556,-0.395308,-1.62258,
2026_07_06_19_04_36.691,3.846,30,0,0.759,0,0,0,0.003, ,0,0,0,0,0, ,-38.6,352.7,937.1,-0.3,-0.4,-1.6,25,-38.7586,351.631,937.712,-0.290192,-0.395594,-1.62121,
2026_07_06_19_04_36.721,3.846,30,0,0.759,0,0,0,0.004, ,0,0,0,0,0, ,-38.8,353.3,938.2,-0.3,-0.3,-1.7,25,-38.7551,351.715,937.709,-0.29079,-0.392816,-1.62296,
2026_07_06_19_04_36.732,3.846,30,0,0.761,0,0,0,0.004, ,0,0,0,0,0, ,-38.5,351.3,938.4,-0.3,-0.4,-1.6,25,-38.7487,351.75,937.745,-0.291351,-0.390207,-1.62461,
2026_07_06_19_04_36.759,3.846,29.9,0,0.76,0,0,0,0.004, ,0,0,0,0,0, ,-38.5,350.7,938.4,-0.3,-0.4,-1.6,25,-38.7335,351.704,937.785,-0.291878,-0.390803,-1.62311,
2026_07_06_19_04_36.771,3.846,29.9,0,0.759,0,0,0,0.004, ,0,0,0,0,0, ,-37.9,351,938.2,-0.3,-0.4,-1.6,25,-38.701,351.652,937.816,-0.292373,-0.391364,-1.6217,
2026_07_06_19_04_36.799,3.846,30.1,0,0.758,0,0,0,0.004, ,0,0,0,0,0, ,-39.5,350.5,938.9,-0.3,-0.3,-1.6,25,-38.7009,351.597,937.861,-0.292838,-0.388843,-1.62038,
2026_07_06_19_04_36.810,3.846,30.1,0,0.759,0,0,0,0.003, ,0,0,0,0,0, ,-39.6,353,937.8,-0.4,-0.4,-1.6,25,-38.7527,351.607,937.891,-0.296321,-0.386476,-1.61914,
2026_07_06_19_04_36.838,3.846,30,0,0.76,0,0,0,0.003, ,0,0,0,0,0, ,-38.9,352.5,938.4,-0.4,-0.4,-1.6,25,-38.783,351.676,937.903,-0.302639,-0.3873,-1.61797,
2026_07_06_19_04_36.850,3.846,29.9,0,0.76,0,0,0,0.004, ,0,0,0,0,0, ,-39.3,351.4,938.8,-0.4,-0.5,-1.6,25,-38.8023,351.693,937.946,-0.308572,-0.391121,-1.61688,
2026_07_06_19_04_36.878,3.846,30,0,0.759,0,0,0,0.004, ,0,0,0,0,0, ,-37.3,352.2,937.6,-0.4,-0.4,-1.7,25,-38.7717,351.7,937.961,-0.314144,-0.394709,-1.61889,
2026_07_06_19_04_36.889,3.846,29.9,0,0.758,0,0,0,0.004, ,0,0,0,0,0, ,-37.8,352.5,938.4,-0.4,-0.4,-1.7,25,-38.6972,351.739,937.964,-0.319375,-0.395031,-1.62384,
2026_07_06_19_04_36.919,3.846,30,0,0.759,0,0,0,0.004, ,0,0,0,0,0, ,-38.3,352.1,938.7,-0.3,-0.4,-1.7,25,-38.6578,351.773,937.999,-0.321242,-0.395334,-1.62848,
2026_07_06_19_04_36.930,3.846,30,0,0.758,0,0,0,0.004, ,0,0,0,0,0, ,-39.4,351.9,939,-0.4,-0.4,-1.6,25,-38.6695,351.787,938.051,-0.322994,-0.395618,-1.62979,
2026_07_06_19_04_36.958,3.846,30,0,0.759,0,0,0,0.004, ,0,0,0,0,0, ,-39.3,353,937.8,-0.5,-0.4,-1.6,25,-38.711,351.828,938.072,-0.330734,-0.395885,-1.62797,
2026_07_06_19_04_36.970,3.846,30,0,0.76,0,0,0,0.004, ,0,0,0,0,0, ,-37.9,353,938.5,-0.5,-0.3,-1.6,25,-38.7042,351.899,938.077,-0.341048,-0.393089,-1.62627,
2026_07_06_19_04_36.997,3.846,30,0,0.76,0,0,0,0.004, ,0,0,0,0,0, ,-39.7,352.5,938.3,-0.4,-0.4,-1.6,25,-38.7101,351.951,938.097,-0.347687,-0.390464,-1.62467,
2026_07_06_19_04_37.009,3.846,30,0,0.759,0,0,0,0.004, ,0,0,0,0,0, ,-38.5,353.8,938.9,-0.4,-0.4,-1.6,25,-38.7338,352.024,938.127,-0.350875,-0.391045,-1.62317,
2026_07_06_19_04_37.036,3.846,30.1,0,0.759,0,0,0,0.004, ,0,0,0,0,0, ,-39.6,353,937.7,-0.5,-0.3,-1.7,25,-38.7531,352.108,938.138,-0.356916,-0.388544,-1.6248,
2026_07_06_19_04_37.048,3.846,30,0,0.759,0,0,0,0.003, ,0,0,0,0,0, ,-38.8,352.1,938.3,-0.4,-0.5,-1.6,25,-38.7803,352.135,938.13,-0.362588,-0.389242,-1.62634,
2026_07_06_19_04_37.078,3.846,30,0,0.759,0,0,0,0.004, ,0,0,0,0,0, ,-38.8,353.1,937.3,-0.4,-0.5,-1.6,25,-38.7815,352.163,938.11,-0.364868,-0.395991,-1.62473,
2026_07_06_19_04_37.089,3.846,30,0,0.758,0,0,0,0.004, ,0,0,0,0,0, ,-39.4,353,938.1,-0.5,-0.5,-1.6,25,-38.8009,352.217,938.085,-0.370056,-0.402329,-1.62322,
2026_07_06_19_04_37.117,3.846,30.1,0,0.758,0,0,0,0.004, ,0,0,0,0,0, ,-37.3,353.5,939.3,-0.5,-0.4,-1.6,25,-38.7734,352.28,938.122,-0.377974,-0.405234,-1.62181,
2026_07_06_19_04_37.128,3.846,30,0,0.759,0,0,0,0.003, ,0,0,0,0,0, ,-38.4,350.9,937.9,-0.4,-0.4,-1.6,25,-38.7172,352.275,938.151,-0.382363,-0.404915,-1.62048,
2026_07_06_19_04_37.155,3.846,30,0,0.76,0,0,0,0.004, ,0,0,0,0,0, ,-39,353.5,937.3,-0.4,-0.4,-1.6,25,-38.7161,352.271,938.118,-0.383438,-0.404616,-1.61923,
2026_07_06_19_04_37.167,3.846,30.1,0,0.76,0,0,0,0.004, ,0,0,0,0,0, ,-38.9,351.1,936.6,-0.4,-0.4,-1.6,25,-38.7304,352.272,938.046,-0.384447,-0.404334,-1.61806,
2026_07_06_19_04_37.195,3.846,30,0,0.759,0,0,0,0.003, ,0,0,0,0,0, ,-39,353.6,937.3,-0.6,-0.3,-1.6,25,-38.7438,352.277,937.98,-0.391489,-0.401023,-1.61696,
2026_07_06_19_04_37.211,3.846,30,0,0.758,0,0,0,0.004, ,0,0,0,0,0, ,-38.8,353,937.1,-0.4,-0.4,-1.7,25,-38.7533,352.339,937.932,-0.398101,-0.397914,-1.61897,
2026_07_06_19_04_37.239,3.846,30,0,0.759,0,0,0,0.004, ,0,0,0,0,0, ,-38.3,351.9,938.7,-0.4,-0.4,-1.6,25,-38.7409,352.346,937.93,-0.398217,-0.398041,-1.62086,
2026_07_06_19_04_37.247,3.846,30,0,0.76,0,0,0,0.004, ,0,0,0,0,0, ,-39.6,350.9,938.1,-0.4,-0.5,-1.6,25,-38.7536,352.289,937.959,-0.398325,-0.401207,-1.61959,
2026_07_06_19_04_37.275,3.846,30,0,0.759,0,0,0,0.004, ,0,0,0,0,0, ,-38.6,351.8,938.1,-0.4,-0.4,-1.6,25,-38.7747,352.231,937.967,-0.398427,-0.404181,-1.6184,
2026_07_06_19_04_37.286,3.846,30,0,0.759,0,0,0,0.004, ,0,0,0,0,0, ,-38.5,351.9,937.9,-0.4,-0.4,-1.6,25,-38.7611,352.208,937.969,-0.398523,-0.403926,-1.61728,
2026_07_06_19_04_37.314,3.846,30,0,0.759,0,0,0,0.004, ,0,0,0,0,0, ,-38.5,352.5,938.2,-0.5,-0.3,-1.6,25,-38.7451,352.208,937.974,-0.40166,-0.40064,-1.61622,
2026_07_06_19_04_37.326,3.846,30.1,0,0.758,0,0,0,0.004, ,0,0,0,0,0, ,-39.3,351.9,937.2,-0.4,-0.4,-1.6,25,-38.7546,352.207,937.958,-0.404606,-0.397554,-1.61524,
2026_07_06_19_04_37.353,3.846,30,0,0.76,0,0,0,0.003, ,0,0,0,0,0, ,-38.4,352.4,938.5,-0.4,-0.4,-1.7,25,-38.7604,352.204,937.951,-0.404325,-0.397703,-1.61735,
2026_07_06_19_04_37.365,3.846,30.1,0,0.759,0,0,0,0.004, ,0,0,0,0,0, ,-38.5,351.6,938.1,-0.4,-0.3,-1.5,25,-38.7415,352.191,937.972,-0.404062,-0.394796,-1.6163,
2026_07_06_19_04_37.394,3.846,30,0,0.76,0,0,0,0.003, ,0,0,0,0,0, ,-37.3,353.2,937.5,-0.5,-0.4,-1.7,25,-38.6902,352.204,937.962,-0.406861,-0.392066,-1.6153,
2026_07_06_19_04_37.405,3.846,30.1,0,0.759,0,0,0,0.004, ,0,0,0,0,0, ,-38.5,352.2,937,-0.4,-0.4,-1.6,25,-38.642,352.234,937.918,-0.40949,-0.39255,-1.61742,
2026_07_06_19_04_37.433,3.846,30,0,0.759,0,0,0,0.003, ,0,0,0,0,0, ,-37.9,352.4,937.9,-0.5,-0.4,-1.6,25,-38.6151,352.238,937.89,-0.411958,-0.393004,-1.61636,
2026_07_06_19_04_37.445,3.846,30,0,0.758,0,0,0,0.004, ,0,0,0,0,0, ,-37.7,352,937.8,-0.4,-0.4,-1.6,25,-38.5654,352.236,937.887,-0.414277,-0.39343,-1.61536,
2026_07_06_19_04_37.473,3.846,30,0,0.758,0,0,0,0.004, ,0,0,0,0,0, ,-38,352.2,938.1,-0.4,-0.4,-1.5,25,-38.5218,352.228,937.891,-0.413407,-0.39383,-1.61138,
2026_07_06_19_04_37.484,3.846,30,0,0.759,0,0,0,0.004, ,0,0,0,0,0, ,-37.8,352.2,938.3,-0.5,-0.4,-1.6,25,-38.484,352.226,937.91,-0.415636,-0.394206,-1.60764,
2026_07_06_19_04_37.512,3.846,30.1,0,0.76,0,0,0,0.004, ,0,0,0,0,0, ,-38.5,352.2,938.4,-0.5,-0.4,-1.6,25,-38.4636,352.224,937.937,-0.420777,-0.394559,-1.60717,
2026_07_06_19_04_37.524,3.846,30,0,0.76,0,0,0,0.003, ,0,0,0,0,0, ,-39.5,352.7,939.5,-0.2,-0.4,-1.6,25,-38.4963,352.238,937.999,-0.416464,-0.394891,-1.60673,
2026_07_06_19_04_37.552,3.846,30,0,0.759,0,0,0,0.004, ,0,0,0,0,0, ,-38.6,353.1,937.9,-0.2,-0.4,-1.5,25,-38.53,352.278,938.041,-0.403274,-0.395202,-1.60328,
2026_07_06_19_04_37.563,3.846,30.1,0,0.759,0,0,0,0.004, ,0,0,0,0,0, ,-38.9,352.6,937.8,-0.3,-0.4,-1.6,25,-38.5434,352.313,938.03,-0.393933,-0.395495,-1.60003,
2026_07_06_19_04_37.592,3.846,30.1,0,0.759,0,0,0,0.003, ,0,0,0,0,0, ,-37.8,352.2,939.2,-0.2,-0.4,-1.6,25,-38.5316,352.319,938.058,-0.385163,-0.395769,-1.60003,
2026_07_06_19_04_37.604,3.846,30,0,0.758,0,0,0,0.003, ,0,0,0,0,0, ,-38.9,351.6,937.2,-0.4,-0.4,-1.6,25,-38.5206,352.293,938.067,-0.379973,-0.396027,-1.60003,
2026_07_06_19_04_37.630,3.846,30,0,0.758,0,0,0,0.004, ,0,0,0,0,0, ,-38.3,353.1,937.1,-0.3,-0.4,-1.6,25,-38.5254,352.297,938.011,-0.378146,-0.396269,-1.60003,
2026_07_06_19_04_37.643,3.846,30.1,0,0.759,0,0,0,0.004, ,0,0,0,0,0, ,-38.2,351.9,937.5,-0.3,-0.4,-1.6,25,-38.5086,352.309,937.968,-0.373384,-0.396497,-1.60002,
2026_07_06_19_04_37.670,3.846,30,0,0.759,0,0,0,0.003, ,0,0,0,0,0, ,-37.9,351.6,937.7,-0.2,-0.3,-1.7,25,-38.4807,352.275,937.945,-0.365866,-0.393663,-1.60307,
2026_07_06_19_04_37.682,3.846,30,0,0.76,0,0,0,0.003, ,0,0,0,0,0, ,-38.9,353.5,937.5,-0.3,-0.4,-1.6,25,-38.4758,352.292,937.924,-0.358805,-0.391002,-1.60593,
2026_07_06_19_04_37.709,3.846,30,0,0.758,0,0,0,0.004, ,0,0,0,0,0, ,-38.2,354.1,937.2,-0.3,-0.4,-1.7,25,-38.4803,352.384,937.889,-0.355222,-0.391551,-1.60861,
2026_07_06_19_04_37.722,3.846,30.1,0,0.759,0,0,0,0.004, ,0,0,0,0,0, ,-37.9,352.6,939.3,-0.2,-0.4,-1.6,25,-38.4541,352.442,937.911,-0.34881,-0.392066,-1.61114,
2026_07_06_19_04_37.750,3.846,30.1,0,0.758,0,0,0,0.003, ,0,0,0,0,0, ,-38,353,938.2,-0.3,-0.4,-1.5,25,-38.4234,352.464,937.962,-0.342789,-0.392549,-1.60741,
2026_07_06_19_04_37.761,3.846,30.1,0,0.759,0,0,0,0.003, ,0,0,0,0,0, ,-39.4,352.1,938.3,-0.4,-0.5,-1.7,25,-38.4402,352.469,937.98,-0.343228,-0.39605,-1.60696,
2026_07_06_19_04_37.789,3.846,30,0,0.759,0,0,0,0.003, ,0,0,0,0,0, ,-39,352.5,937.2,-0.3,-0.4,-1.6,25,-38.4865,352.459,937.966,-0.343641,-0.399338,-1.60958,
2026_07_06_19_04_37.802,3.846,30,0,0.76,0,0,0,0.003, ,0,0,0,0,0, ,-39,353.7,937.2,-0.3,-0.3,-1.6,25,-38.5178,352.498,937.919,-0.340981,-0.396331,-1.609,
2026_07_06_19_04_37.831,3.846,30,0,0.758,0,0,0,0.003, ,0,0,0,0,0, ,-37.7,352.2,938.2,-0.4,-0.4,-1.7,25,-38.5076,352.526,937.906,-0.341531,-0.393508,-1.6115,
2026_07_06_19_04_37.841,3.846,30.1,0,0.758,0,0,0,0.003, ,0,0,0,0,0, ,-38.9,352.6,938.4,-0.3,-0.4,-1.6,25,-38.4949,352.518,937.93,-0.342047,-0.393903,-1.61384,
2026_07_06_19_04_37.868,3.846,30.1,0,0.759,0,0,0,0.003, ,0,0,0,0,0, ,-38.9,352.7,939.4,-0.4,-0.4,-1.6,25,-38.5196,352.526,937.989,-0.342532,-0.394275,-1.613,
2026_07_06_19_04_37.880,3.846,30.1,0,0.759,0,0,0,0.003, ,0,0,0,0,0, ,-38.3,352.4,937.9,-0.3,-0.4,-1.6,25,-38.5245,352.528,938.029,-0.342987,-0.394624,-1.61221,
2026_07_06_19_04_37.909,3.846,30,0,0.758,0,0,0,0.003, ,0,0,0,0,0, ,-37.9,352.4,937.9,-0.4,-0.4,-1.7,25,-38.4986,352.52,938.021,-0.343414,-0.394951,-1.61451,
2026_07_06_19_04_37.919,3.846,30.1,0,0.76,0,0,0,0.003, ,0,0,0,0,0, ,-38,354.2,937.5,-0.4,-0.3,-1.7,25,-38.4652,352.567,938.002,-0.346862,-0.392212,-1.61972,
2026_07_06_19_04_37.948,3.846,30,0,0.759,0,0,0,0.003, ,0,0,0,0,0, ,-38.8,352.6,938.2,-0.4,-0.4,-1.7,25,-38.4612,352.618,937.993,-0.3501,-0.38964,-1.62461,
2026_07_06_19_04_37.959,3.846,30.1,0,0.759,0,0,0,0.003, ,0,0,0,0,0, ,-39.3,353.3,938.3,-0.4,-0.4,-1.6,25,-38.4971,352.638,938.008,-0.353141,-0.390271,-1.62616,
2026_07_06_19_04_37.988,3.846,30.1,0,0.76,0,0,0,0.003, ,0,0,0,0,0, ,-38,353.5,938.3,-0.4,-0.4,-1.7,25,-38.5064,352.685,938.026,-0.355997,-0.390864,-1.62761,
2026_07_06_19_04_37.999,3.846,30.1,0,0.759,0,0,0,0.003, ,0,0,0,0,0, ,-38.8,352.4,938.1,-0.4,-0.4,-1.6,25,-38.4999,352.701,938.037,-0.358678,-0.391421,-1.62898,
2026_07_06_19_04_38.028,3.846,30.1,0,0.759,0,0,0,0.003, ,0,0,0,0,0, ,-38,352.5,939.3,-0.4,-0.4,-1.5,25,-38.4939,352.686,938.077,-0.361196,-0.391944,-1.62416,
2026_07_06_19_04_38.040,3.846,30.1,0,0.759,0,0,0,0.003, ,0,0,0,0,0, ,-40.1,352.7,937.2,-0.4,-0.4,-1.6,25,-38.5277,352.68,938.088,-0.363561,-0.392434,-1.61964,
2026_07_06_19_04_38.069,3.846,30.1,0,0.759,0,0,0,0.003, ,0,0,0,0,0, ,-38.5,352.9,937.6,-0.3,-0.4,-1.7,25,-38.5748,352.688,938.046,-0.362734,-0.392896,-1.62149,
2026_07_06_19_04_38.078,3.846,30.1,0,0.759,0,0,0,0.003, ,0,0,0,0,0, ,-39.1,352.6,937.7,-0.5,-0.4,-1.7,25,-38.5885,352.691,938.022,-0.365005,-0.393328,-1.62628,
2026_07_06_19_04_38.108,3.846,30.1,0,0.759,0,0,0,0.003, ,0,0,0,0,0, ,-39.7,352.7,938.1,-0.4,-0.4,-1.7,25,-38.638,352.689,938.014,-0.370185,-0.393735,-1.63077,
2026_07_06_19_04_38.118,3.846,30,0,0.759,0,0,0,0.003, ,0,0,0,0,0, ,-38.5,352.1,937.9,-0.5,-0.4,-1.7,25,-38.6661,352.671,938.013,-0.375048,-0.394117,-1.63499,
2026_07_06_19_04_38.147,3.846,30.1,0,0.76,0,0,0,0.003, ,0,0,0,0,0, ,-38.6,354.2,938.8,-0.5,-0.4,-1.6,25,-38.6591,352.7,938.034,-0.382663,-0.394475,-1.6359,
2026_07_06_19_04_38.158,3.846,30.1,0,0.759,0,0,0,0.003, ,0,0,0,0,0, ,-38.8,351.8,937.8,-0.4,-0.4,-1.6,25,-38.6615,352.719,938.05,-0.386766,-0.394812,-1.63372,
2026_07_06_19_04_38.187,3.846,30.1,0,0.759,0,0,0,0.003, ,0,0,0,0,0, ,-38.9,352.4,938.3,-0.4,-0.3,-1.7,25,-38.673,352.681,938.05,-0.387572,-0.392081,-1.63471,
2026_07_06_19_04_38.198,3.846,30,0,0.759,0,0,0,0.003, ,0,0,0,0,0, ,-37.3,352.7,937.5,-0.5,-0.3,-1.6,25,-38.6381,352.673,938.041,-0.391377,-0.38647,-1.63564,
2026_07_06_19_04_38.225,3.846,30.1,0,0.759,0,0,0,0.003, ,0,0,0,0,0, ,-38.9,351.9,937.7,-0.4,-0.4,-1.7,25,-38.6053,352.65,938.014,-0.394949,-0.384248,-1.63652,
2026_07_06_19_04_38.237,3.846,30,0,0.759,0,0,0,0.003, ,0,0,0,0,0, ,-38.4,352.1,936.2,-0.3,-0.4,-1.6,25,-38.608,352.611,937.949,-0.39221,-0.385208,-1.63734,
2026_07_06_19_04_38.266,3.846,30.1,0,0.759,0,0,0,0.003, ,0,0,0,0,0, ,-38.4,351.9,938.5,-0.2,-0.4,-1.6,25,-38.5954,352.573,937.913,-0.383544,-0.386109,-1.63506,
2026_07_06_19_04_38.276,3.846,30,0,0.76,0,0,0,0.003, ,0,0,0,0,0, ,-39.4,352.9,937.6,-0.3,-0.4,-1.6,25,-38.6139,352.563,937.921,-0.375406,-0.386955,-1.63293,
2026_07_06_19_04_38.307,3.846,30.1,0,0.759,0,0,0,0.003, ,0,0,0,0,0, ,-38.6,353,937.8,-0.3,-0.5,-1.6,25,-38.6375,352.586,937.908,-0.370811,-0.390797,-1.63092,
2026_07_06_19_04_38.315,3.846,30.1,0,0.759,0,0,0,0.003, ,0,0,0,0,0, ,-38.4,353.6,937.8,-0.2,-0.4,-1.6,25,-38.6291,352.63,937.901,-0.363449,-0.394405,-1.62903,
2026_07_06_19_04_38.344,3.846,30,0,0.758,0,0,0,0.002, ,0,0,0,0,0, ,-37.9,353.5,937.3,-0.2,-0.4,-1.6,25,-38.5999,352.686,937.88,-0.353489,-0.394746,-1.62727,
2026_07_06_19_04_38.356,3.846,30.1,0,0.759,0,0,0,0.003, ,0,0,0,0,0, ,-38.2,354.1,937.9,-0.3,-0.4,-1.7,25,-38.5664,352.754,937.863,-0.347183,-0.395066,-1.62865,
2026_07_06_19_04_38.384,3.846,30.1,0,0.758,0,0,0,0.002, ,0,0,0,0,0, ,-38.9,352.9,937.1,-0.3,-0.4,-1.7,25,-38.5654,352.799,937.84,-0.344307,-0.395367,-1.633,
2026_07_06_19_04_38.396,3.846,30.1,0,0.759,0,0,0,0.002, ,0,0,0,0,0, ,-39,353.3,937.2,-0.3,-0.4,-1.7,25,-38.5888,352.818,937.798,-0.341607,-0.395649,-1.63708,
2026_07_06_19_04_38.432,3.846,30.1,0,0.76,0,0,0,0.002, ,0,0,0,0,0, ,-37.8,352.5,937.2,-0.3,-0.4,-1.6,25,-38.5773,352.823,937.762,-0.339072,-0.395914,-1.63787,
2026_07_06_19_04_38.437,3.846,30.1,0,0.759,0,0,0,0.002, ,0,0,0,0,0, ,-38.6,353.7,938.9,-0.3,-0.4,-1.6,25,-38.5543,352.84,937.78,-0.336691,-0.396163,-1.63556,
2026_07_06_19_04_38.467,3.846,30.1,0,0.759,0,0,0,0.002, ,0,0,0,0,0, ,-38.8,352.2,938.7,-0.3,-0.4,-1.6,25,-38.5632,352.846,937.842,-0.334455,-0.396397,-1.63339,
2026_07_06_19_04_38.475,3.846,30.2,0,0.759,0,0,0,0.002, ,0,0,0,0,0, ,-37.9,352.4,937.6,-0.3,-0.4,-1.7,25,-38.5502,352.813,937.86,-0.332356,-0.396617,-1.63441,
2026_07_06_19_04_38.504,3.846,30.1,0,0.759,0,0,0,0.002, ,0,0,0,0,0, ,-37.9,353.1,938.4,-0.4,-0.4,-1.7,25,-38.5106,352.809,937.869,-0.333431,-0.396823,-1.6384,
2026_07_06_19_04_38.514,3.846,30.1,0,0.758,0,0,0,0.002, ,0,0,0,0,0, ,-37.5,352.6,937.3,-0.4,-0.4,-1.6,25,-38.4612,352.812,937.868,-0.337487,-0.397016,-1.63911,
2026_07_06_19_04_38.543,3.846,30.2,0,0.758,0,0,0,0.002, ,0,0,0,0,0, ,-38.6,352.5,937.8,-0.3,-0.4,-1.7,25,-38.4361,352.796,937.848,-0.33825,-0.397198,-1.63977,
2026_07_06_19_04_38.553,3.846,30.1,0,0.759,0,0,0,0.002, ,0,0,0,0,0, ,-38.9,352.4,936.6,-0.4,-0.4,-1.6,25,-38.4553,352.775,937.809,-0.338966,-0.397369,-1.6404,
2026_07_06_19_04_38.583,3.846,30.1,0,0.759,0,0,0,0.002, ,0,0,0,0,0, ,-37.5,353,937.7,-0.4,-0.4,-1.6,25,-38.4397,352.77,937.769,-0.342685,-0.397529,-1.63793,
2026_07_06_19_04_38.593,3.846,30.1,0,0.759,0,0,0,0.002, ,0,0,0,0,0, ,-39.3,352.7,938.1,-0.4,-0.3,-1.6,25,-38.4373,352.775,937.777,-0.346178,-0.394633,-1.63562,
2026_07_06_19_04_38.623,3.846,30.1,0,0.759,0,0,0,0.002, ,0,0,0,0,0, ,-38,352.2,937.5,-0.4,-0.4,-1.6,25,-38.4502,352.755,937.778,-0.349458,-0.391913,-1.63345,
2026_07_06_19_04_38.633,3.846,30.1,0,0.759,0,0,0,0.002, ,0,0,0,0,0, ,-39.5,352.1,937,-0.5,-0.5,-1.7,25,-38.4685,352.718,937.746,-0.355584,-0.395453,-1.63446,
2026_07_06_19_04_38.664,3.846,30.1,0,0.76,0,0,0,0.002, ,0,0,0,0,0, ,-38.2,353.5,936,-0.4,-0.3,-1.6,25,-38.4918,352.723,937.67,-0.361338,-0.39573,-1.63541,
2026_07_06_19_04_38.673,3.846,30,0,0.759,0,0,0,0.002, ,0,0,0,0,0, ,-38.2,352.9,938.1,-0.4,-0.4,-1.6,25,-38.474,352.752,937.632,-0.363694,-0.392943,-1.63325,
2026_07_06_19_04_38.703,3.846,30.1,0,0.759,0,0,0,0.003, ,0,0,0,0,0, ,-37.5,352.5,936.7,-0.3,-0.4,-1.6,25,-38.436,352.749,937.618,-0.362859,-0.393373,-1.63122,
2026_07_06_19_04_38.712,3.846,30.2,0,0.76,0,0,0,0.002, ,0,0,0,0,0, ,-39.4,351.4,936.5,-0.5,-0.4,-1.6,25,-38.4368,352.7,937.556,-0.365123,-0.393777,-1.62932,
2026_07_06_19_04_38.743,3.846,30.1,0,0.759,0,0,0,0.001, ,0,0,0,0,0, ,-37.7,353.3,937.3,-0.4,-0.3,-1.6,25,-38.4437,352.679,937.516,-0.370295,-0.391109,-1.62753,
2026_07_06_19_04_38.752,3.846,30,0,0.759,0,0,0,0.002, ,0,0,0,0,0, ,-38.6,351.8,937.1,-0.5,-0.4,-1.6,25,-38.4258,352.671,937.497,-0.375152,-0.388604,-1.62586,
2026_07_06_19_04_38.781,3.846,30.1,0,0.759,0,0,0,0.003, ,0,0,0,0,0, ,-39,352.1,937.7,-0.5,-0.4,-1.7,25,-38.4486,352.627,937.491,-0.38276,-0.389299,-1.62733,
2026_07_06_19_04_38.791,3.846,30.1,0,0.76,0,0,0,0.002, ,0,0,0,0,0, ,-38.6,352.2,936.2,-0.5,-0.4,-1.6,25,-38.47,352.598,937.458,-0.389904,-0.389951,-1.62871,
2026_07_06_19_04_38.821,3.846,30.1,0,0.759,0,0,0,0.002, ,0,0,0,0,0, ,-39.1,352.6,937.8,-0.4,-0.4,-1.6,25,-38.4932,352.586,937.43,-0.393566,-0.390563,-1.62696,
2026_07_06_19_04_38.831,3.846,30.1,0,0.759,0,0,0,0.002, ,0,0,0,0,0, ,-38.2,352.2,935.9,-0.4,-0.4,-1.6,25,-38.5027,352.575,937.395,-0.393958,-0.391138,-1.62532,
2026_07_06_19_04_38.862,3.846,30,0,0.758,0,0,0,0.002, ,0,0,0,0,0, ,-38.5,351.8,936.2,-0.4,-0.4,-1.6,25,-38.4934,352.54,937.313,-0.394326,-0.391678,-1.62377,
2026_07_06_19_04_38.870,3.846,30,0,0.76,0,0,0,0.003, ,0,0,0,0,0, ,-38.3,351.9,937.2,-0.4,-0.4,-1.7,25,-38.4877,352.498,937.275,-0.394672,-0.392185,-1.62537,
2026_07_06_19_04_38.900,3.846,30.1,0,0.76,0,0,0,0.003, ,0,0,0,0,0, ,-38.9,352,937.9,-0.4,-0.4,-1.7,25,-38.4946,352.464,937.292,-0.394997,-0.392662,-1.62992,
2026_07_06_19_04_38.910,3.846,30.1,0,0.76,0,0,0,0.002, ,0,0,0,0,0, ,-38,351.4,938.9,-0.3,-0.4,-1.6,25,-38.4919,352.418,937.36,-0.392255,-0.393109,-1.63114,
2026_07_06_19_04_38.939,3.846,30.1,0,0.758,0,0,0,0.002, ,0,0,0,0,0, ,-39.1,351.3,938.8,-0.3,-0.4,-1.6,25,-38.4954,352.353,937.451,-0.386633,-0.393529,-1.62925,
2026_07_06_19_04_38.950,3.846,30.1,0,0.76,0,0,0,0.002, ,0,0,0,0,0, ,-38.8,352.9,938.3,-0.3,-0.4,-1.7,25,-38.5231,352.337,937.518,-0.381354,-0.393923,-1.63051,
2026_07_06_19_04_38.980,3.846,30.1,0,0.76,0,0,0,0.002, ,0,0,0,0,0, ,-39.1,353.7,939.4,-0.3,-0.4,-1.6,25,-38.5491,352.396,937.599,-0.376396,-0.394293,-1.6317,
2026_07_06_19_04_38.988,3.846,30,0,0.76,0,0,0,0.002, ,0,0,0,0,0, ,-38,353.1,936.5,-0.3,-0.4,-1.6,25,-38.5492,352.457,937.62,-0.371741,-0.394641,-1.62977,
2026_07_06_19_04_39.020,3.846,30,0,0.759,0,0,0,0.003, ,0,0,0,0,0, ,-37.9,353.1,939.3,-0.4,-0.4,-1.6,25,-38.5127,352.496,937.637,-0.370416,-0.394968,-1.62795,
2026_07_06_19_04_39.029,3.846,30.1,0,0.759,0,0,0,0.003, ,0,0,0,0,0, ,-37.4,352.1,938.1,-0.4,-0.4,-1.6,25,-38.4601,352.503,937.702,-0.372219,-0.395274,-1.62625,
2026_07_06_19_04_39.081,3.846,30.1,0,0.758,0,0,0,0.002, ,0,0,0,0,0, ,-39.5,353.5,937.1,-0.3,-0.4,-1.6,25,-38.4595,352.521,937.696,-0.370865,-0.395562,-1.62465,
2026_07_06_19_04_39.082,3.846,30.1,0,0.759,0,0,0,0.002, ,0,0,0,0,0, ,-38,353.6,938.2,-0.4,-0.4,-1.7,25,-38.4772,352.583,937.693,-0.369593,-0.395833,-1.62619,
2026_07_06_19_04_39.115,3.846,30.1,0,0.759,0,0,0,0.002, ,0,0,0,0,0, ,-38.6,353,937.3,-0.3,-0.4,-1.7,25,-38.4664,352.627,937.696,-0.368399,-0.396087,-1.63069,
2026_07_06_19_04_39.115,3.846,30.2,0,0.76,0,0,0,0.002, ,0,0,0,0,0, ,-38.4,351.5,939.3,-0.3,-0.4,-1.6,25,-38.4684,352.604,937.733,-0.364231,-0.396325,-1.63187,
2026_07_06_19_04_39.143,3.846,30,0,0.76,0,0,0,0.001, ,0,0,0,0,0, ,-39,352.5,938.9,-0.4,-0.4,-1.6,25,-38.4825,352.567,937.816,-0.363364,-0.396549,-1.62993,
2026_07_06_19_04_39.146,3.846,30.1,0,0.759,0,0,0,0.003, ,0,0,0,0,0, ,-38,352.9,937.8,-0.4,-0.4,-1.7,25,-38.4836,352.575,937.849,-0.365597,-0.396759,-1.63115,
2026_07_06_19_04_39.176,3.846,30.1,0,0.759,0,0,0,0.002, ,0,0,0,0,0, ,-39.3,352.6,937.8,-0.5,-0.4,-1.7,25,-38.4937,352.586,937.846,-0.37074,-0.396957,-1.63535,
2026_07_06_19_04_39.193,3.846,30.1,0,0.759,0,0,0,0.002, ,0,0,0,0,0, ,-38,352.9,936.5,-0.5,-0.4,-1.7,25,-38.5033,352.596,937.804,-0.378617,-0.397142,-1.63929,
2026_07_06_19_04_39.220,3.846,30.1,0,0.76,0,0,0,0.002, ,0,0,0,0,0, ,-38.5,352.5,938.1,-0.4,-0.4,-1.6,25,-38.4878,352.602,937.773,-0.382967,-0.397316,-1.63994,
2026_07_06_19_04_39.227,3.846,30.1,0,0.76,0,0,0,0.002, ,0,0,0,0,0, ,-38.6,352.4,937.5,-0.4,-0.4,-1.6,25,-38.4916,352.593,937.775,-0.384005,-0.39748,-1.6375,
2026_07_06_19_04_39.254,3.846,30.1,0,0.758,0,0,0,0.002, ,0,0,0,0,0, ,-39,350.7,936.7,-0.5,-0.4,-1.6,25,-38.5104,352.53,937.733,-0.388026,-0.397634,-1.63522,
2026_07_06_19_04_39.266,3.846,30.1,0,0.76,0,0,0,0.002, ,0,0,0,0,0, ,-38,352.9,937.3,-0.5,-0.4,-1.6,25,-38.5098,352.485,937.689,-0.39485,-0.397778,-1.63307,
2026_07_06_19_04_39.294,3.846,30.1,0,0.759,0,0,0,0.002, ,0,0,0,0,0, ,-38.4,351.5,937.9,-0.5,-0.4,-1.6,25,-38.4909,352.468,937.683,-0.401257,-0.397913,-1.63106,
2026_07_06_19_04_39.305,3.846,30.1,0,0.758,0,0,0,0.002, ,0,0,0,0,0, ,-38.2,352.1,937,-0.4,-0.3,-1.6,25,-38.4793,352.427,937.669,-0.404228,-0.394993,-1.62916,
2026_07_06_19_04_39.334,3.846,30.1,0,0.759,0,0,0,0.002, ,0,0,0,0,0, ,-37.8,351.1,937.6,-0.4,-0.4,-1.6,25,-38.4501,352.377,937.647,-0.40397,-0.392252,-1.62739,
2026_07_06_19_04_39.345,3.846,30.1,0,0.759,0,0,0,0.002, ,0,0,0,0,0, ,-37.7,350.8,937.6,-0.5,-0.5,-1.6,25,-38.4074,352.29,937.644,-0.406775,-0.395771,-1.62572,
2026_07_06_19_04_39.375,3.846,30,0,0.76,0,0,0,0.002, ,0,0,0,0,0, ,-37.9,351.3,937,-0.3,-0.4,-1.7,25,-38.3704,352.214,937.623,-0.406362,-0.399075,-1.6272,
2026_07_06_19_04_39.385,3.846,30.1,0,0.759,0,0,0,0.003, ,0,0,0,0,0, ,-38.2,351.8,937.3,-0.4,-0.4,-1.7,25,-38.3509,352.174,937.594,-0.402927,-0.399132,-1.63163,
2026_07_06_19_04_39.414,3.846,30,0,0.759,0,0,0,0.002, ,0,0,0,0,0, ,-38,352.4,937.1,-0.4,-0.4,-1.6,25,-38.3356,352.169,937.57,-0.402749,-0.399185,-1.63275,
2026_07_06_19_04_39.425,3.846,30.1,0,0.759,0,0,0,0.003, ,0,0,0,0,0, ,-38,352.9,936.6,-0.4,-0.4,-1.6,25,-38.3151,352.198,937.526,-0.402582,-0.399234,-1.63076,
2026_07_06_19_04_39.452,3.846,30.1,0,0.759,0,0,0,0.002, ,0,0,0,0,0, ,-38.9,351.1,937.2,-0.3,-0.5,-1.6,25,-38.3233,352.186,937.488,-0.399377,-0.402328,-1.62888,
2026_07_06_19_04_39.464,3.846,30.1,0,0.758,0,0,0,0.002, ,0,0,0,0,0, ,-38.2,350.8,937.6,-0.3,-0.4,-1.5,25,-38.3372,352.111,937.483,-0.393322,-0.405233,-1.62408,
2026_07_06_19_04_39.492,3.846,30.1,0,0.758,0,0,0,0.002, ,0,0,0,0,0, ,-39.1,352.5,938.3,-0.3,-0.4,-1.7,25,-38.3562,352.083,937.511,-0.387635,-0.404914,-1.62261,
