UTC_Time,Vin,TC1,TC2,Rh1,Vh1,Ah1,Acp1,Dty1,Err1,Rh2,Vh2,Ah2,Acp2,Dty2,Err2,Accel_x,Accel_y,Accel_z,gyro_x,gyro_y,gyro_z,Temp_c,Accel_x_h,Accel_y_h,Accel_z_h,gyro_x_h,gyro_y_h,gyro_z_h,
2026_07_06_20_34_04.712,3.866,44.2,0,0.767,0,0,0,0, ,0,0,0,0,0, ,-40.1,301,951.9,-0.8,-0.7,-1.8,25,-40.1,301,951.9,-0.8,-0.7,-1.8,
2026_07_06_20_34_04.731,3.866,44.1,0,0.768,0,0,0,0, ,0,0,0,0,0, ,-39.3,300.2,951.6,-0.8,-0.7,-1.9,25,-40.0756,300.976,951.891,-0.8,-0.7,-1.80305,
2026_07_06_20_34_04.751,3.866,44,0,0.771,0,0,0,0, ,0,0,0,0,0, ,-40.7,301.5,953.6,-0.8,-0.7,-1.9,25,-40.071,300.968,951.934,-0.8,-0.7,-1.80895,
2026_07_06_20_34_04.771,3.866,44.1,0,0.77,0,0,0,0, ,0,0,0,0,0, ,-39.9,299.4,953.4,-0.8,-0.7,-1.9,25,-40.085,300.936,952.03,-0.8,-0.7,-1.8145,
2026_07_06_20_34_04.791,3.866,44.1,0,0.77,0,0,0,0, ,0,0,0,0,0, ,-41,300.5,954.4,-0.8,-0.7,-1.9,25,-40.1072,300.876,952.143,-0.8,-0.7,-1.81971,
2026_07_06_20_34_04.811,3.866,44,0,0.771,0,0,0,0, ,0,0,0,0,0, ,-39.9,299.1,952.1,-0.7,-0.7,-2,25,-40.1281,300.811,952.211,-0.796953,-0.7,-1.82765,
2026_07_06_20_34_04.830,3.866,44,0,0.767,0,0,0,0, ,0,0,0,0,0, ,-40.5,301,951.6,-0.7,-0.7,-1.8,25,-40.1325,300.764,952.189,-0.791045,-0.7,-1.83206,
2026_07_06_20_34_04.850,3.866,44.1,0,0.77,0,0,0,0, ,0,0,0,0,0, ,-40.1,300.4,953.2,-0.8,-0.7,-1.8,25,-40.1427,300.76,952.202,-0.788544,-0.7,-1.83011,
2026_07_06_20_34_04.870,3.866,44,0,0.771,0,0,0,0, ,0,0,0,0,0, ,-40,300.2,952.5,-0.8,-0.7,-1.9,25,-40.137,300.732,952.241,-0.789242,-0.7,-1.83132,
2026_07_06_20_34_04.890,3.866,44,0,0.77,0,0,0,0, ,0,0,0,0,0, ,-39.4,300.9,953,-0.9,-0.7,-1.8,25,-40.1104,300.721,952.272,-0.792944,-0.7,-1.83246,
2026_07_06_20_34_04.910,3.866,44,0,0.771,0,0,0,0, ,0,0,0,0,0, ,-39.6,300.9,952.2,-0.9,-0.7,-1.8,25,-40.0732,300.732,952.292,-0.799468,-0.7,-1.83048,
2026_07_06_20_34_04.929,3.866,44,0,0.77,0,0,0,0, ,0,0,0,0,0, ,-39.6,300.4,953.1,-0.8,-0.8,-1.8,25,-40.0444,300.727,952.314,-0.802547,-0.703047,-1.82862,
2026_07_06_20_34_04.949,3.866,44.1,0,0.77,0,0,0,0, ,0,0,0,0,0, ,-40,300.5,953.8,-0.8,-0.7,-1.8,25,-40.0295,300.71,952.383,-0.802392,-0.705908,-1.82688,
2026_07_06_20_34_04.969,3.866,43.9,0,0.77,0,0,0,0, ,0,0,0,0,0, ,-39.3,299.8,953.3,-0.8,-0.7,-1.9,25,-40.0064,300.676,952.454,-0.802246,-0.705548,-1.82829,
2026_07_06_20_34_04.990,3.866,44,0,0.767,0,0,0,0, ,0,0,0,0,0, ,-39.9,300,953.6,-0.8,-0.7,-1.9,25,-39.9816,300.629,952.515,-0.80211,-0.70521,-1.83266,
2026_07_06_20_34_05.009,3.866,44,0,0.77,0,0,0,0, ,0,0,0,0,0, ,-40.2,300.6,953.7,-0.8,-0.7,-1.9,25,-39.9858,300.609,952.584,-0.801981,-0.704892,-1.83676,
2026_07_06_20_34_05.029,3.866,44,0,0.77,0,0,0,0, ,0,0,0,0,0, ,-39.7,300,951.7,-0.8,-0.7,-1.8,25,-39.9836,300.59,952.591,-0.80186,-0.704594,-1.83757,
2026_07_06_20_34_05.048,3.866,44,0,0.77,0,0,0,0, ,0,0,0,0,0, ,-40.7,301.5,953.1,-0.8,-0.7,-1.9,25,-39.9968,300.6,952.58,-0.801747,-0.704314,-1.83833,
2026_07_06_20_34_05.068,3.866,44,0,0.77,0,0,0,0, ,0,0,0,0,0, ,-39.6,300.4,951.9,-0.8,-0.7,-1.9,25,-40.0061,300.621,952.575,-0.80164,-0.704051,-1.84208,
2026_07_06_20_34_05.088,3.866,44,0,0.77,0,0,0,0, ,0,0,0,0,0, ,-39.5,299.9,952.6,-0.8,-0.6,-1.9,25,-39.9783,300.592,952.555,-0.80154,-0.700758,-1.84561,
2026_07_06_20_34_05.108,3.866,44,0,0.769,0,0,0,0, ,0,0,0,0,0, ,-39.9,300.1,954.1,-0.8,-0.7,-1.9,25,-39.9614,300.556,952.603,-0.801447,-0.697665,-1.84893,
2026_07_06_20_34_05.129,3.866,44,0,0.77,0,0,0,0, ,0,0,0,0,0, ,-40.1,301,953.9,-0.8,-0.7,-1.8,25,-39.9637,300.556,952.689,-0.801358,-0.697807,-1.84899,
2026_07_06_20_34_05.148,3.866,44,0,0.77,0,0,0,0, ,0,0,0,0,0, ,-39.5,300.1,953.4,-0.8,-0.7,-1.8,25,-39.9537,300.556,952.747,-0.801276,-0.697941,-1.84601,
2026_07_06_20_34_05.167,3.866,43.9,0,0.77,0,0,0,0, ,0,0,0,0,0, ,-39.7,300.1,953.6,-0.8,-0.7,-1.9,25,-39.9322,300.528,952.793,-0.801198,-0.698066,-1.84625,
2026_07_06_20_34_05.188,3.866,44,0,0.769,0,0,0,0, ,0,0,0,0,0, ,-39.5,299.9,953.9,-0.8,-0.7,-1.8,25,-39.9119,300.496,952.851,-0.801125,-0.698184,-1.84648,
2026_07_06_20_34_05.207,3.866,44,0,0.77,0,0,0,0, ,0,0,0,0,0, ,-39,301,953.8,-0.8,-0.7,-1.9,25,-39.8716,300.493,952.912,-0.801056,-0.698295,-1.84669,
2026_07_06_20_34_05.226,3.866,43.9,0,0.77,0,0,0,0, ,0,0,0,0,0, ,-38.8,300.9,952.6,-0.8,-0.7,-1.8,25,-39.8124,300.521,952.93,-0.800992,-0.698399,-1.84689,
2026_07_06_20_34_05.246,3.866,43.9,0,0.77,0,0,0,0, ,0,0,0,0,0, ,-39.4,300.5,951.7,-0.8,-0.7,-1.8,25,-39.769,300.532,952.882,-0.800932,-0.698496,-1.84404,
2026_07_06_20_34_05.267,3.866,44,0,0.771,0,0,0,0, ,0,0,0,0,0, ,-39.9,299.9,952.2,-0.8,-0.7,-1.8,25,-39.7617,300.511,952.825,-0.800875,-0.698588,-1.84135,
2026_07_06_20_34_05.286,3.866,43.9,0,0.77,0,0,0,0, ,0,0,0,0,0, ,-39.5,301.5,953.3,-0.8,-0.7,-1.8,25,-39.758,300.523,952.821,-0.800821,-0.698674,-1.83883,
2026_07_06_20_34_05.306,3.866,44,0,0.771,0,0,0,0, ,0,0,0,0,0, ,-39.4,300.7,953.2,-0.8,-0.7,-1.8,25,-39.7392,300.558,952.847,-0.800771,-0.698755,-1.83647,
2026_07_06_20_34_05.325,3.866,44,0,0.77,0,0,0,0, ,0,0,0,0,0, ,-40,299.4,953.7,-0.8,-0.7,-1.9,25,-39.7368,300.527,952.884,-0.800724,-0.698831,-1.83729,
2026_07_06_20_34_05.345,3.866,43.9,0,0.77,0,0,0,0, ,0,0,0,0,0, ,-40.1,300.9,953.2,-0.9,-0.7,-1.9,25,-39.7559,300.504,952.918,-0.803727,-0.698902,-1.84111,
2026_07_06_20_34_05.365,3.866,44,0,0.77,0,0,0,0, ,0,0,0,0,0, ,-39.6,300.9,953.1,-0.8,-0.7,-1.8,25,-39.7616,300.528,952.932,-0.806547,-0.698969,-1.84165,
2026_07_06_20_34_05.385,3.866,43.9,0,0.771,0,0,0,0, ,0,0,0,0,0, ,-39.6,299.3,953.2,-0.7,-0.7,-1.9,25,-39.7518,300.502,952.946,-0.803101,-0.699032,-1.84216,
2026_07_06_20_34_05.405,3.866,43.9,0,0.769,0,0,0,0, ,0,0,0,0,0, ,-40.4,300.6,953.1,-0.7,-0.7,-1.8,25,-39.7669,300.469,952.958,-0.796818,-0.699091,-1.84264,
2026_07_06_20_34_05.424,3.866,44,0,0.771,0,0,0,0, ,0,0,0,0,0, ,-41,301,953.6,-0.8,-0.7,-1.9,25,-39.8238,300.489,952.982,-0.793965,-0.699146,-1.84309,
2026_07_06_20_34_05.444,3.866,44,0,0.771,0,0,0,0, ,0,0,0,0,0, ,-38.6,300.4,952.8,-0.8,-0.7,-1.8,25,-39.8223,300.502,952.995,-0.794333,-0.699198,-1.84351,
2026_07_06_20_34_05.464,3.866,43.9,0,0.771,0,0,0,0, ,0,0,0,0,0, ,-39.5,300.6,953.4,-0.8,-0.7,-1.8,25,-39.7753,300.501,953.002,-0.794678,-0.699247,-1.84086,
2026_07_06_20_34_05.485,3.866,44,0,0.771,0,0,0,0, ,0,0,0,0,0, ,-39.1,300.9,954.3,-0.9,-0.7,-1.8,25,-39.7463,300.517,953.053,-0.79805,-0.699293,-1.83837,
2026_07_06_20_34_05.505,3.866,44,0,0.77,0,0,0,0, ,0,0,0,0,0, ,-39,299,953.4,-0.8,-0.7,-1.9,25,-39.7039,300.482,953.102,-0.801215,-0.699336,-1.83908,
2026_07_06_20_34_05.524,3.866,43.9,0,0.769,0,0,0,0, ,0,0,0,0,0, ,-39,301.2,953.6,-0.9,-0.8,-1.8,25,-39.661,300.459,953.126,-0.804188,-0.702423,-1.83974,
2026_07_06_20_34_05.545,3.866,43.9,0,0.768,0,0,0,0, ,0,0,0,0,0, ,-38.8,301.7,952.7,-0.8,-0.7,-1.9,25,-39.6146,300.519,953.128,-0.80698,-0.705322,-1.84037,
2026_07_06_20_34_05.563,3.866,43.9,0,0.771,0,0,0,0, ,0,0,0,0,0, ,-40.7,300.6,954.2,-0.7,-0.7,-1.9,25,-39.6229,300.558,953.147,-0.803508,-0.704998,-1.844,
2026_07_06_20_34_05.583,3.866,44,0,0.769,0,0,0,0, ,0,0,0,0,0, ,-39.7,301.2,952.7,-0.7,-0.7,-1.9,25,-39.658,300.579,953.166,-0.7972,-0.704694,-1.84741,
2026_07_06_20_34_05.604,3.866,43.7,0,0.769,0,0,0,0, ,0,0,0,0,0, ,-39.4,300.9,951.2,-0.6,-0.7,-1.9,25,-39.6514,300.607,953.092,-0.78823,-0.704408,-1.85062,
2026_07_06_20_34_05.623,3.866,43.7,0,0.769,0,0,0,0, ,0,0,0,0,0, ,-39.5,300.1,951.2,-0.7,-0.7,-1.8,25,-39.6392,300.601,952.976,-0.779807,-0.704139,-1.85058,
2026_07_06_20_34_05.643,3.866,44,0,0.77,0,0,0,0, ,0,0,0,0,0, ,-41.1,302.1,952.7,-0.7,-0.7,-1.8,25,-39.6794,300.631,952.914,-0.774943,-0.703887,-1.8475,
2026_07_06_20_34_05.664,3.866,43.9,0,0.77,0,0,0,0, ,0,0,0,0,0, ,-40.2,300.7,953.1,-0.8,-0.7,-1.9,25,-39.7386,300.678,952.913,-0.773423,-0.70365,-1.84765,
2026_07_06_20_34_05.683,3.866,43.9,0,0.771,0,0,0,0, ,0,0,0,0,0, ,-39.9,300.2,953,-0.8,-0.7,-1.8,25,-39.7576,300.664,952.921,-0.775043,-0.703427,-1.84779,
2026_07_06_20_34_05.703,3.866,43.9,0,0.77,0,0,0,0, ,0,0,0,0,0, ,-39,299.1,955,-0.7,-0.6,-1.9,25,-39.7388,300.602,952.987,-0.773517,-0.700172,-1.84793,
2026_07_06_20_34_05.722,3.866,43.9,0,0.769,0,0,0,0, ,0,0,0,0,0, ,-41,301,951.2,-0.6,-0.7,-1.9,25,-39.7547,300.569,952.994,-0.76599,-0.697114,-1.8511,
2026_07_06_20_34_05.742,3.866,43.9,0,0.77,0,0,0,0, ,0,0,0,0,0, ,-40.5,299.1,955,-0.9,-0.7,-1.8,25,-39.8154,300.537,953,-0.765016,-0.69729,-1.85103,
2026_07_06_20_34_05.761,3.866,43.9,0,0.769,0,0,0,0, ,0,0,0,0,0, ,-39.6,303.3,953.1,-0.9,-0.7,-1.8,25,-39.8297,300.577,953.064,-0.773241,-0.697455,-1.84792,
2026_07_06_20_34_05.781,3.866,43.9,0,0.771,0,0,0,0, ,0,0,0,0,0, ,-37.1,298.9,953.9,-0.8,-0.8,-1.9,25,-39.7395,300.609,953.091,-0.777919,-0.700657,-1.84805,
2026_07_06_20_34_05.801,3.866,43.9,0,0.77,0,0,0,0, ,0,0,0,0,0, ,-39.7,299.9,952.1,-1,-0.7,-1.9,25,-39.6579,300.536,953.085,-0.785358,-0.703664,-1.85122,
2026_07_06_20_34_05.821,3.866,43.9,0,0.77,0,0,0,0, ,0,0,0,0,0, ,-39.7,301.7,953.7,-0.9,-0.7,-1.8,25,-39.6604,300.552,953.074,-0.795391,-0.703441,-1.85114,
2026_07_06_20_34_05.846,3.866,43.9,0,0.769,0,0,0,0, ,0,0,0,0,0, ,-39.5,299.8,954.1,-0.9,-0.7,-1.9,25,-39.6568,300.564,953.124,-0.801766,-0.703231,-1.85107,
2026_07_06_20_34_05.861,3.866,43.9,0,0.772,0,0,0,0, ,0,0,0,0,0, ,-39.1,300.9,952.3,-0.8,-0.7,-1.9,25,-39.635,300.551,953.129,-0.804705,-0.703034,-1.85405,
2026_07_06_20_34_05.880,3.866,43.9,0,0.77,0,0,0,0, ,0,0,0,0,0, ,-39,301.6,952,-0.9,-0.7,-1.8,25,-39.5994,300.593,953.069,-0.807465,-0.702849,-1.85381,
2026_07_06_20_34_05.900,3.866,43.7,0,0.77,0,0,0,0, ,0,0,0,0,0, ,-40.7,300.9,953.8,-0.9,-0.7,-1.8,25,-39.6146,300.633,953.059,-0.813104,-0.702676,-1.85053,
2026_07_06_20_34_05.919,3.866,43.7,0,0.77,0,0,0,0, ,0,0,0,0,0, ,-39.5,300.5,954.1,-0.9,-0.7,-1.8,25,-39.6442,300.637,953.113,-0.818399,-0.702513,-1.84745,
2026_07_06_20_34_05.940,3.866,43.9,0,0.77,0,0,0,0, ,0,0,0,0,0, ,-39.4,300.9,951.5,-0.8,-0.7,-1.8,25,-39.6324,300.641,953.094,-0.820325,-0.70236,-1.84456,
2026_07_06_20_34_05.960,3.866,43.9,0,0.77,0,0,0,0, ,0,0,0,0,0, ,-38.4,300.6,951.9,-0.9,-0.6,-1.8,25,-39.5878,300.648,953.009,-0.822133,-0.699169,-1.84184,
2026_07_06_20_34_05.980,3.866,43.9,0,0.77,0,0,0,0, ,0,0,0,0,0, ,-41.1,301.2,952.1,-0.9,-0.7,-1.8,25,-39.5976,300.663,952.948,-0.826878,-0.696173,-1.83929,
2026_07_06_20_34_06.000,3.866,43.9,0,0.77,0,0,0,0, ,0,0,0,0,0, ,-41,300.4,952.1,-0.9,-0.7,-1.8,25,-39.6861,300.672,952.896,-0.831334,-0.696406,-1.8369,
2026_07_06_20_34_06.019,3.866,43.9,0,0.77,0,0,0,0, ,0,0,0,0,0, ,-39.7,301.5,953.3,-0.8,-0.7,-1.8,25,-39.7266,300.689,952.884,-0.832471,-0.696625,-1.83465,
2026_07_06_20_34_06.039,3.866,43.7,0,0.77,0,0,0,0, ,0,0,0,0,0, ,-40.8,301.1,953.1,-0.9,-0.7,-1.8,25,-39.7585,300.726,952.903,-0.83354,-0.696831,-1.83254,
2026_07_06_20_34_06.058,3.866,43.7,0,0.769,0,0,0,0, ,0,0,0,0,0, ,-40.6,299.8,953.1,-0.9,-0.8,-1.9,25,-39.8159,300.709,952.915,-0.83759,-0.700071,-1.8336,
2026_07_06_20_34_06.078,3.866,43.7,0,0.77,0,0,0,0, ,0,0,0,0,0, ,-40.5,299.6,953.1,-0.9,-0.7,-1.9,25,-39.8606,300.648,952.927,-0.841393,-0.703113,-1.83765,
2026_07_06_20_34_06.098,3.866,43.7,0,0.77,0,0,0,0, ,0,0,0,0,0, ,-38.9,300.4,952.6,-0.8,-0.7,-1.8,25,-39.8508,300.608,952.922,-0.841917,-0.702923,-1.8384,
2026_07_06_20_34_06.118,3.866,43.9,0,0.768,0,0,0,0, ,0,0,0,0,0, ,-38.4,301,953.4,-0.8,-0.7,-1.9,25,-39.7776,300.614,952.927,-0.839363,-0.702745,-1.83911,
2026_07_06_20_34_06.138,3.866,43.7,0,0.77,0,0,0,0, ,0,0,0,0,0, ,-42.3,300.9,952.2,-0.8,-0.7,-1.8,25,-39.8125,300.634,952.919,-0.836964,-0.702578,-1.83977,
2026_07_06_20_34_06.158,3.866,43.7,0,0.77,0,0,0,0, ,0,0,0,0,0, ,-40.7,300.2,953.2,-0.9,-0.7,-1.8,25,-39.9154,300.629,952.906,-0.837759,-0.702421,-1.83735,
2026_07_06_20_34_06.178,3.866,43.7,0,0.77,0,0,0,0, ,0,0,0,0,0, ,-38.5,300.1,952.5,-0.9,-0.7,-1.9,25,-39.8961,300.6,952.902,-0.841551,-0.702273,-1.83812,
2026_07_06_20_34_06.198,3.866,43.9,0,0.77,0,0,0,0, ,0,0,0,0,0, ,-38.2,300.6,951.4,-0.8,-0.7,-1.8,25,-39.8019,300.585,952.844,-0.842066,-0.702135,-1.83884,
2026_07_06_20_34_06.217,3.866,43.7,0,0.77,0,0,0,0, ,0,0,0,0,0, ,-39.9,299.9,951.6,-0.8,-0.7,-1.9,25,-39.7561,300.564,952.762,-0.839503,-0.702005,-1.83952,
2026_07_06_20_34_06.237,3.866,43.9,0,0.77,0,0,0,0, ,0,0,0,0,0, ,-40.1,299.3,953.1,-0.8,-0.7,-1.8,25,-39.771,300.505,952.737,-0.837096,-0.701883,-1.84016,
2026_07_06_20_34_06.258,3.866,43.7,0,0.769,0,0,0,0, ,0,0,0,0,0, ,-39.5,301.1,953,-0.8,-0.7,-1.8,25,-39.7727,300.487,952.756,-0.834835,-0.701768,-1.83771,
2026_07_06_20_34_06.277,3.866,43.7,0,0.77,0,0,0,0, ,0,0,0,0,0, ,-39.5,301.6,951.9,-0.9,-0.7,-1.9,25,-39.7561,300.539,952.738,-0.835759,-0.70166,-1.83846,
2026_07_06_20_34_06.300,3.866,43.7,0,0.77,0,0,0,0, ,0,0,0,0,0, ,-39.1,300.4,952.6,-0.8,-0.7,-2,25,-39.7283,300.568,952.708,-0.836627,-0.701559,-1.84526,
2026_07_06_20_34_06.317,3.866,43.7,0,0.769,0,0,0,0, ,0,0,0,0,0, ,-40.1,299.8,954.1,-0.8,-0.7,-1.9,25,-39.7205,300.539,952.747,-0.834395,-0.701464,-1.85164,
2026_07_06_20_34_06.336,3.866,43.9,0,0.77,0,0,0,0, ,0,0,0,0,0, ,-39,302,953.1,-0.8,-0.7,-1.9,25,-39.7101,300.561,952.799,-0.832299,-0.701375,-1.85459,
2026_07_06_20_34_06.356,3.866,43.9,0,0.769,0,0,0,0, ,0,0,0,0,0, ,-39,299.4,954.3,-0.8,-0.7,-1.8,25,-39.6668,300.569,952.854,-0.830331,-0.701291,-1.85431,
2026_07_06_20_34_06.375,3.866,43.9,0,0.769,0,0,0,0, ,0,0,0,0,0, ,-39.3,299.6,953,-0.9,-0.7,-1.9,25,-39.6353,300.504,952.902,-0.831529,-0.701212,-1.85405,
2026_07_06_20_34_06.395,3.866,43.7,0,0.77,0,0,0,0, ,0,0,0,0,0, ,-40.6,300.1,952.3,-0.9,-0.7,-1.9,25,-39.6545,300.464,952.887,-0.835702,-0.701138,-1.85685,
2026_07_06_20_34_06.415,3.866,43.7,0,0.771,0,0,0,0, ,0,0,0,0,0, ,-40.5,301.6,952.7,-0.9,-0.7,-1.9,25,-39.7091,300.488,952.863,-0.83962,-0.701069,-1.85948,
2026_07_06_20_34_06.440,3.866,43.7,0,0.769,0,0,0,0, ,0,0,0,0,0, ,-39.1,300.2,953.2,-0.9,-0.7,-1.8,25,-39.7146,300.513,952.869,-0.843299,-0.701004,-1.8589,
2026_07_06_20_34_06.455,3.866,43.6,0,0.769,0,0,0,0, ,0,0,0,0,0, ,-39.6,300.1,953.4,-0.7,-0.7,-1.8,25,-39.6924,300.491,952.895,-0.840661,-0.700943,-1.85531,
2026_07_06_20_34_06.474,3.866,43.6,0,0.77,0,0,0,0, ,0,0,0,0,0, ,-39.7,301.6,951.9,-0.7,-0.7,-1.8,25,-39.6898,300.513,952.88,-0.832089,-0.700885,-1.85194,
2026_07_06_20_34_06.494,3.866,43.6,0,0.77,0,0,0,0, ,0,0,0,0,0, ,-39.1,301.6,953.8,-0.8,-0.6,-1.8,25,-39.6722,300.579,952.878,-0.827087,-0.697784,-1.84877,
2026_07_06_20_34_06.515,3.866,43.7,0,0.77,0,0,0,0, ,0,0,0,0,0, ,-38.9,300.1,952.3,-0.7,-0.7,-1.8,25,-39.6312,300.596,952.889,-0.82239,-0.694873,-1.8458,
2026_07_06_20_34_06.535,3.866,43.5,0,0.77,0,0,0,0, ,0,0,0,0,0, ,-41.6,302.6,953,-0.8,-0.7,-1.8,25,-39.6689,300.642,952.874,-0.817978,-0.695185,-1.84301,
2026_07_06_20_34_06.556,3.866,43.7,0,0.77,0,0,0,0, ,0,0,0,0,0, ,-38.8,299.9,952,-0.9,-0.7,-1.8,25,-39.7013,300.679,952.851,-0.81993,-0.695478,-1.84039,
2026_07_06_20_34_06.574,3.866,43.6,0,0.77,0,0,0,0, ,0,0,0,0,0, ,-40.5,299.9,953.6,-0.8,-0.7,-1.8,25,-39.6981,300.631,952.848,-0.821762,-0.695754,-1.83793,
2026_07_06_20_34_06.594,3.866,43.9,0,0.77,0,0,0,0, ,0,0,0,0,0, ,-39.3,299.6,952.5,-0.8,-0.7,-1.8,25,-39.7104,300.577,952.861,-0.820436,-0.696013,-1.83562,
2026_07_06_20_34_06.614,3.866,43.7,0,0.769,0,0,0,0, ,0,0,0,0,0, ,-39.9,300.4,954.1,-0.8,-0.6,-1.9,25,-39.7037,300.542,952.887,-0.819191,-0.693209,-1.83649,
2026_07_06_20_34_06.633,3.866,43.6,0,0.77,0,0,0,0, ,0,0,0,0,0, ,-38.9,300.1,952.8,-0.8,-0.7,-1.8,25,-39.6852,300.524,952.922,-0.818021,-0.690576,-1.83732,
2026_07_06_20_34_06.653,3.866,43.9,0,0.77,0,0,0,0, ,0,0,0,0,0, ,-40,300.4,952.7,-0.8,-0.7,-1.9,25,-39.6709,300.508,952.911,-0.816923,-0.69115,-1.83809,
2026_07_06_20_34_06.673,3.866,43.6,0,0.77,0,0,0,0, ,0,0,0,0,0, ,-39.9,300,952.8,-0.8,-0.7,-1.8,25,-39.6879,300.489,952.901,-0.815892,-0.691689,-1.83882,
2026_07_06_20_34_06.692,3.866,43.7,0,0.77,0,0,0,0, ,0,0,0,0,0, ,-39.7,300.1,952.5,-0.7,-0.7,-1.9,25,-39.6947,300.462,952.886,-0.811876,-0.692196,-1.8395,
2026_07_06_20_34_06.712,3.866,43.6,0,0.77,0,0,0,0, ,0,0,0,0,0, ,-38.9,300.2,951.1,-0.7,-0.7,-1.8,25,-39.6707,300.443,952.82,-0.805059,-0.692671,-1.84014,
2026_07_06_20_34_06.738,3.866,43.6,0,0.77,0,0,0,0, ,0,0,0,0,0, ,-39.6,300.2,951.7,-0.8,-0.7,-1.8,25,-39.645,300.428,952.733,-0.801704,-0.693118,-1.83769,
2026_07_06_20_34_06.752,3.866,43.6,0,0.771,0,0,0,0, ,0,0,0,0,0, ,-39.7,301.5,954.1,-0.8,-0.8,-1.8,25,-39.6453,300.454,952.743,-0.8016,-0.696584,-1.83539,
2026_07_06_20_34_06.772,3.866,43.7,0,0.769,0,0,0,0, ,0,0,0,0,0, ,-40,300.7,954.5,-0.8,-0.7,-1.8,25,-39.6578,300.493,952.838,-0.801503,-0.699839,-1.83324,
2026_07_06_20_34_06.792,3.866,43.7,0,0.771,0,0,0,0, ,0,0,0,0,0, ,-39.3,301.5,953.2,-0.8,-0.7,-1.8,25,-39.6573,300.53,952.9,-0.801411,-0.699849,-1.83121,
2026_07_06_20_34_06.812,3.866,43.6,0,0.77,0,0,0,0, ,0,0,0,0,0, ,-39.9,299,951.9,-0.8,-0.7,-1.9,25,-39.6538,300.513,952.879,-0.801325,-0.699858,-1.83236,
2026_07_06_20_34_06.831,3.866,43.6,0,0.769,0,0,0,0, ,0,0,0,0,0, ,-38.9,300.2,952.2,-0.8,-0.7,-1.8,25,-39.6384,300.458,952.828,-0.801244,-0.699867,-1.83343,
2026_07_06_20_34_06.851,3.866,43.5,0,0.77,0,0,0,0, ,0,0,0,0,0, ,-38.6,301.6,952.2,-0.8,-0.7,-1.8,25,-39.5842,300.485,952.79,-0.801168,-0.699875,-1.83139,
2026_07_06_20_34_06.871,3.866,43.7,0,0.77,0,0,0,0, ,0,0,0,0,0, ,-39.4,301.6,952,-0.8,-0.7,-1.9,25,-39.5486,300.553,952.748,-0.801097,-0.699883,-1.83253,
2026_07_06_20_34_06.895,3.866,43.6,0,0.77,0,0,0,0, ,0,0,0,0,0, ,-40,300.2,952.1,-0.9,-0.7,-1.9,25,-39.5579,300.574,952.705,-0.804077,-0.69989,-1.83664,
2026_07_06_20_34_06.910,3.866,43.6,0,0.771,0,0,0,0, ,0,0,0,0,0, ,-39.5,300,953.1,-0.8,-0.7,-1.8,25,-39.5696,300.545,952.699,-0.806876,-0.699896,-1.83745,
2026_07_06_20_34_06.930,3.866,43.5,0,0.77,0,0,0,0, ,0,0,0,0,0, ,-39.1,301,952.2,-0.8,-0.7,-1.8,25,-39.5531,300.542,952.696,-0.806457,-0.699903,-1.83517,
2026_07_06_20_34_06.950,3.866,43.7,0,0.77,0,0,0,0, ,0,0,0,0,0, ,-39.6,300.5,954.4,-0.8,-0.7,-1.8,25,-39.5408,300.555,952.733,-0.806063,-0.699909,-1.83303,
2026_07_06_20_34_06.970,3.866,43.5,0,0.77,0,0,0,0, ,0,0,0,0,0, ,-38.9,301.5,953.6,-0.8,-0.7,-1.8,25,-39.523,300.582,952.81,-0.805694,-0.699914,-1.83102,
2026_07_06_20_34_06.990,3.866,43.6,0,0.769,0,0,0,0, ,0,0,0,0,0, ,-39.7,300.5,952,-0.8,-0.7,-1.8,25,-39.5094,300.607,952.809,-0.805347,-0.699919,-1.82913,
2026_07_06_20_34_07.010,3.866,43.5,0,0.771,0,0,0,0, ,0,0,0,0,0, ,-39.4,300.1,952.8,-0.8,-0.7,-1.8,25,-39.5119,300.589,952.784,-0.805021,-0.699924,-1.82735,
2026_07_06_20_34_07.029,3.866,43.7,0,0.77,0,0,0,0, ,0,0,0,0,0, ,-40.7,300.2,951.7,-0.8,-0.7,-1.8,25,-39.5447,300.562,952.752,-0.804715,-0.699929,-1.82568,
2026_07_06_20_34_07.049,3.866,43.5,0,0.769,0,0,0,0, ,0,0,0,0,0, ,-40.4,299.4,952.8,-0.8,-0.7,-1.8,25,-39.606,300.516,952.721,-0.804428,-0.699933,-1.82412,
2026_07_06_20_34_07.070,3.866,43.5,0,0.77,0,0,0,0, ,0,0,0,0,0, ,-39.5,300.4,952.7,-0.7,-0.7,-1.8,25,-39.6269,300.478,952.723,-0.801111,-0.699937,-1.82265,
2026_07_06_20_34_07.088,3.866,43.5,0,0.77,0,0,0,0, ,0,0,0,0,0, ,-39.5,299.8,952.6,-0.9,-0.7,-1.8,25,-39.6192,300.455,952.719,-0.801043,-0.699941,-1.82127,
2026_07_06_20_34_07.108,3.866,43.6,0,0.769,0,0,0,0, ,0,0,0,0,0, ,-39.7,300.5,952.5,-0.9,-0.7,-1.8,25,-39.618,300.436,952.708,-0.807073,-0.699945,-1.81997,
2026_07_06_20_34_07.128,3.866,43.6,0,0.771,0,0,0,0, ,0,0,0,0,0, ,-39.7,300.9,953,-0.8,-0.7,-1.8,25,-39.623,300.452,952.711,-0.809689,-0.699948,-1.81876,
2026_07_06_20_34_07.148,3.866,43.6,0,0.77,0,0,0,0, ,0,0,0,0,0, ,-40.8,301.7,952.7,-0.9,-0.8,-1.8,25,-39.6612,300.504,952.719,-0.812146,-0.702998,-1.81761,
2026_07_06_20_34_07.168,3.866,43.6,0,0.77,0,0,0,0, ,0,0,0,0,0, ,-39,300.4,952.5,-0.8,-0.7,-1.8,25,-39.6758,300.537,952.712,-0.814452,-0.705862,-1.81654,
2026_07_06_20_34_07.193,3.866,43.6,0,0.77,0,0,0,0, ,0,0,0,0,0, ,-38.9,300.6,951.7,-0.8,-0.7,-1.8,25,-39.6316,300.535,952.675,-0.813572,-0.705505,-1.81553,
2026_07_06_20_34_07.207,3.866,43.4,0,0.77,0,0,0,0, ,0,0,0,0,0, ,-40,300,951.5,-0.9,-0.7,-1.8,25,-39.6205,300.521,952.609,-0.815792,-0.70517,-1.81459,
2026_07_06_20_34_07.227,3.866,43.6,0,0.769,0,0,0,0, ,0,0,0,0,0, ,-38.9,301.3,951.5,-0.8,-0.7,-1.9,25,-39.6101,300.529,952.542,-0.817876,-0.704855,-1.81674,
2026_07_06_20_34_07.247,3.866,43.6,0,0.769,0,0,0,0, ,0,0,0,0,0, ,-39.7,300.6,952.6,-0.8,-0.7,-1.8,25,-39.5912,300.554,952.512,-0.816787,-0.704559,-1.81877,
2026_07_06_20_34_07.268,3.866,43.5,0,0.77,0,0,0,0, ,0,0,0,0,0, ,-39.5,300.6,952.8,-0.9,-0.7,-1.8,25,-39.5917,300.557,952.523,-0.818811,-0.704281,-1.81763,
2026_07_06_20_34_07.287,3.866,43.5,0,0.77,0,0,0,0, ,0,0,0,0,0, ,-39,299.9,953.9,-0.8,-0.7,-1.9,25,-39.5709,300.538,952.574,-0.820711,-0.70402,-1.8196,
2026_07_06_20_34_07.307,3.866,43.5,0,0.77,0,0,0,0, ,0,0,0,0,0, ,-39.1,301.6,953.9,-0.7,-0.7,-1.9,25,-39.5392,300.551,952.654,-0.816402,-0.703775,-1.8245,
2026_07_06_20_34_07.326,3.866,43.6,0,0.77,0,0,0,0, ,0,0,0,0,0, ,-38.6,302.1,953.9,-0.7,-0.7,-1.9,25,-39.4972,300.63,952.73,-0.809309,-0.703545,-1.8291,
2026_07_06_20_34_07.351,3.866,43.5,0,0.77,0,0,0,0, ,0,0,0,0,0, ,-40.7,301,953.6,-0.7,-0.7,-1.8,25,-39.5065,300.686,952.792,-0.802648,-0.703329,-1.83037,
2026_07_06_20_34_07.366,3.866,43.6,0,0.769,0,0,0,0, ,0,0,0,0,0, ,-41,300,953.7,-0.8,-0.7,-1.8,25,-39.5884,300.675,952.845,-0.79944,-0.703126,-1.82852,
2026_07_06_20_34_07.386,3.866,43.6,0,0.769,0,0,0,0, ,0,0,0,0,0, ,-39.5,300.2,953.7,-0.7,-0.8,-1.8,25,-39.6287,300.64,952.897,-0.796427,-0.705983,-1.82678,
2026_07_06_20_34_07.405,3.866,43.5,0,0.77,0,0,0,0, ,0,0,0,0,0, ,-38.9,300.1,952.1,-0.7,-0.7,-1.9,25,-39.6026,300.61,952.897,-0.790551,-0.708665,-1.8282,
2026_07_06_20_34_07.426,3.866,43.6,0,0.768,0,0,0,0, ,0,0,0,0,0, ,-39.5,300.7,951.7,-0.8,-0.7,-1.9,25,-39.578,300.597,952.836,-0.78808,-0.708137,-1.83257,
2026_07_06_20_34_07.446,3.866,43.6,0,0.77,0,0,0,0, ,0,0,0,0,0, ,-39.6,301.5,953.1,-0.8,-0.7,-1.9,25,-39.5763,300.628,952.81,-0.788806,-0.707641,-1.83668,
2026_07_06_20_34_07.466,3.866,43.6,0,0.77,0,0,0,0, ,0,0,0,0,0, ,-38.8,300,953.9,-0.8,-0.7,-1.9,25,-39.5534,300.635,952.852,-0.789489,-0.707175,-1.84054,
2026_07_06_20_34_07.485,3.866,43.6,0,0.769,0,0,0,0, ,0,0,0,0,0, ,-39.6,300.1,953.9,-0.8,-0.8,-1.9,25,-39.5319,300.6,952.916,-0.790129,-0.709785,-1.84416,
2026_07_06_20_34_07.508,3.866,43.6,0,0.77,0,0,0,0, ,0,0,0,0,0, ,-39.4,301.1,953.8,-0.8,-0.7,-1.8,25,-39.5299,300.6,952.973,-0.790731,-0.712236,-1.84452,
2026_07_06_20_34_07.525,3.866,43.4,0,0.771,0,0,0,0, ,0,0,0,0,0, ,-38.8,299.6,954.2,-0.9,-0.7,-1.9,25,-39.5037,300.585,953.035,-0.794342,-0.71149,-1.84485,
2026_07_06_20_34_07.544,3.866,43.5,0,0.77,0,0,0,0, ,0,0,0,0,0, ,-40.4,299.6,952.7,-0.9,-0.7,-1.9,25,-39.5096,300.525,953.06,-0.800781,-0.71079,-1.84821,
2026_07_06_20_34_07.564,3.866,43.5,0,0.771,0,0,0,0, ,0,0,0,0,0, ,-37.8,302.6,952.6,-0.7,-0.7,-2,25,-39.4846,300.56,953.035,-0.800733,-0.710132,-1.85442,
2026_07_06_20_34_07.584,3.866,43.5,0,0.769,0,0,0,0, ,0,0,0,0,0, ,-40.2,299.5,954.4,-0.8,-0.7,-1.8,25,-39.4551,300.59,953.064,-0.797642,-0.709515,-1.85719,
2026_07_06_20_34_07.604,3.866,43.5,0,0.77,0,0,0,0, ,0,0,0,0,0, ,-40.2,299.3,953.6,-0.9,-0.7,-1.9,25,-39.5005,300.517,953.121,-0.800832,-0.708935,-1.85676,
2026_07_06_20_34_07.623,3.866,43.5,0,0.769,0,0,0,0, ,0,0,0,0,0, ,-40.5,299,952.1,-1.1,-0.7,-1.9,25,-39.5522,300.434,953.104,-0.812969,-0.708391,-1.85939,
2026_07_06_20_34_07.643,3.866,43.5,0,0.769,0,0,0,0, ,0,0,0,0,0, ,-40.6,300.7,953.4,-0.7,-0.8,-1.8,25,-39.613,300.398,953.083,-0.818272,-0.710926,-1.85882,
2026_07_06_20_34_07.669,3.866,43.5,0,0.769,0,0,0,0, ,0,0,0,0,0, ,-39.6,300.2,953.8,-0.8,-0.8,-1.8,25,-39.6427,300.401,953.114,-0.814112,-0.716354,-1.85523,
2026_07_06_20_34_07.683,3.866,43.5,0,0.772,0,0,0,0, ,0,0,0,0,0, ,-38.8,300.4,953.1,-0.8,-0.7,-1.8,25,-39.6157,300.395,953.135,-0.813252,-0.718404,-1.85187,
2026_07_06_20_34_07.702,3.866,43.6,0,0.77,0,0,0,0, ,0,0,0,0,0, ,-39.3,299.8,953.3,-0.8,-0.7,-1.8,25,-39.5813,300.377,953.139,-0.812445,-0.717283,-1.84871,
2026_07_06_20_34_07.722,3.866,43.6,0,0.77,0,0,0,0, ,0,0,0,0,0, ,-39.3,301,953.8,-0.8,-0.7,-1.9,25,-39.5641,300.379,953.164,-0.811686,-0.71623,-1.84879,
2026_07_06_20_34_07.741,3.866,43.5,0,0.769,0,0,0,0, ,0,0,0,0,0, ,-39.3,301,953.4,-0.8,-0.7,-1.9,25,-39.548,300.416,953.19,-0.810974,-0.715241,-1.85191,
2026_07_06_20_34_07.762,3.866,43.5,0,0.768,0,0,0,0, ,0,0,0,0,0, ,-39,300.9,953.2,-0.8,-0.7,-1.8,25,-39.5238,300.449,953.197,-0.810305,-0.714312,-1.85179,
2026_07_06_20_34_07.782,3.866,43.6,0,0.768,0,0,0,0, ,0,0,0,0,0, ,-39.3,300.5,952.1,-0.8,-0.7,-1.8,25,-39.501,300.464,953.164,-0.809677,-0.71344,-1.84864,
2026_07_06_20_34_07.802,3.866,43.6,0,0.77,0,0,0,0, ,0,0,0,0,0, ,-39.4,299.5,952,-0.8,-0.6,-1.9,25,-39.4918,300.436,953.096,-0.809088,-0.709574,-1.84872,
2026_07_06_20_34_07.822,3.866,43.5,0,0.769,0,0,0,0, ,0,0,0,0,0, ,-39.3,300.2,954.1,-0.8,-0.7,-1.8,25,-39.4832,300.4,953.093,-0.808534,-0.705944,-1.8488,
2026_07_06_20_34_07.842,3.866,43.5,0,0.769,0,0,0,0, ,0,0,0,0,0, ,-39.5,299.5,953.1,-0.7,-0.7,-1.8,25,-39.4781,300.367,953.124,-0.804967,-0.705581,-1.84582,
2026_07_06_20_34_07.864,3.866,43.5,0,0.769,0,0,0,0, ,0,0,0,0,0, ,-40,300,953.3,-0.7,-0.7,-1.9,25,-39.4947,300.329,953.129,-0.798571,-0.705241,-1.84608,
2026_07_06_20_34_07.881,3.866,43.5,0,0.768,0,0,0,0, ,0,0,0,0,0, ,-39.4,301.3,953.6,-0.9,-0.7,-1.8,25,-39.5072,300.349,953.148,-0.798658,-0.704922,-1.84632,
2026_07_06_20_34_07.900,3.866,43.5,0,0.77,0,0,0,0, ,0,0,0,0,0, ,-39.1,303.9,952.6,-0.9,-0.7,-1.9,25,-39.4915,300.486,953.145,-0.804833,-0.704622,-1.84654,
2026_07_06_20_34_07.920,3.866,43.5,0,0.77,0,0,0,0, ,0,0,0,0,0, ,-33.8,300.5,961.6,2.7,0.2,-9,25,-39.3062,300.59,953.386,-0.700945,-0.676919,-2.06613,
2026_07_06_20_34_07.940,3.866,43.5,0,0.77,0,0,0,0, ,0,0,0,0,0, ,-32.4,292.6,961.6,-2.1,-2.1,-3.1,25,-38.928,300.344,953.887,-0.63995,-0.693559,-2.30889,
2026_07_06_20_34_07.960,3.866,43.5,0,0.77,0,0,0,0, ,0,0,0,0,0, ,-38.8,340.6,951,-2.3,-1.4,-7.1,25,-38.7252,301.335,954.034,-0.735015,-0.757936,-2.47898,
2026_07_06_20_34_07.980,3.866,43.5,0,0.769,0,0,0,0, ,0,0,0,0,0, ,-21.6,597.1,957.2,48,-3.8,-54.7,25,-38.2057,311.543,954.038,0.702196,-0.870187,-4.21088,
2026_07_06_20_34_07.999,3.866,43.5,0,0.77,0,0,0,0, ,0,0,0,0,0, ,100.4,10.4,938.9,-21.3,16.5,3.5,25,-33.4766,311.068,953.673,1.47292,-0.430207,-5.51428,
2026_07_06_20_34_08.020,3.866,43.6,0,0.768,0,0,0,0, ,0,0,0,0,0, ,-112.6,289,990.2,2.9,6.8,8.5,25,-31.8083,301.234,954.336,0.822541,0.305931,-4.81263,
2026_07_06_20_34_08.042,3.866,43.5,0,0.769,0,0,0,0, ,0,0,0,0,0, ,-143.1,304.3,951.7,-5.5,6.9,-8.3,25,-37.6609,300.955,955.348,0.693198,0.70471,-4.51327,
2026_07_06_20_34_08.059,3.866,43.5,0,0.77,0,0,0,0, ,0,0,0,0,0, ,25.6,321.1,930.6,-38,5,-8.8,25,-38.946,301.671,954.483,-0.674434,1.02434,-4.75926,
2026_07_06_20_34_08.082,3.866,43.5,0,0.769,0,0,0,0, ,0,0,0,0,0, ,-28.9,287.4,965.5,-24.5,2.7,-10.4,25,-36.6733,301.828,954.091,-2.53763,1.19653,-5.05424,
2026_07_06_20_34_08.099,3.866,43.5,0,0.769,0,0,0,0, ,0,0,0,0,0, ,-123.2,360.8,1079.3,11,18.7,-23.4,25,-39.0728,303.185,958.254,-2.79432,1.77565,-5.77609,
2026_07_06_20_34_08.119,3.866,43.4,0,0.77,0,0,0,0, ,0,0,0,0,0, ,-109.2,322.3,994.5,-9.2,27.8,-25.5,25,-43.7727,305.523,963.046,-2.5692,3.08424,-6.91403,
2026_07_06_20_34_08.138,3.866,43.4,0,0.77,0,0,0,0, ,0,0,0,0,0, ,-92.2,384.7,973.7,8.2,35.3,-41.5,25,-47.2417,308.447,964.329,-2.44311,4.81888,-8.53411,
2026_07_06_20_34_08.158,3.866,43.5,0,0.77,0,0,0,0, ,0,0,0,0,0, ,36.1,132,783.8,-25.5,21.5,-23.8,25,-46.0722,305.394,959.114,-2.82134,6.25585,-10.0037,
2026_07_06_20_34_08.178,3.866,43.5,0,0.771,0,0,0,0, ,0,0,0,0,0, ,0.7,209.9,954.5,32.8,8.4,-0.9,25,-42.1434,297.201,953.632,-2.42699,6.78565,-10.1467,
2026_07_06_20_34_08.197,3.866,43.5,0,0.77,0,0,0,0, ,0,0,0,0,0, ,-144.1,293.9,991.9,69.6,1.2,-8.3,25,-43.9446,294.441,954.824,0.840901,6.66465,-9.80865,
2026_07_06_20_34_08.220,3.866,43.4,0,0.769,0,0,0,0, ,0,0,0,0,0, ,-82.7,259.2,867.1,31.8,4.3,-2.1,25,-48.177,293.35,953.281,3.87919,6.4261,-9.52781,
2026_07_06_20_34_08.237,3.866,43.5,0,0.769,0,0,0,0, ,0,0,0,0,0, ,-181.7,381.1,1117.9,-32.9,29.8,22,25,-53.2971,294.984,955.671,3.60929,7.07349,-8.34089,
2026_07_06_20_34_08.256,3.866,43.5,0,0.769,0,0,0,0, ,0,0,0,0,0, ,-186.8,329.4,930.5,-6.9,15.5,14.5,25,-61.2771,298.656,959.847,2.17669,8.02269,-6.7205,
2026_07_06_20_34_08.276,3.866,43.5,0,0.77,0,0,0,0, ,0,0,0,0,0, ,-62.5,395.6,1037.8,-11.3,24.5,0.3,25,-65.1389,302.547,961.328,1.48952,8.75255,-5.86004,
2026_07_06_20_34_08.296,3.866,43.5,0,0.77,0,0,0,0, ,0,0,0,0,0, ,-117,313.7,936.1,-22.8,44.9,13.5,25,-66.6386,305.722,962.889,0.359764,10.3337,-5.08247,
2026_07_06_20_34_08.317,3.866,43.5,0,0.771,0,0,0,0, ,0,0,0,0,0, ,-193.2,331.1,983.8,-13.2,40.1,8.7,25,-72.0292,306.738,962.71,-0.759034,12.2939,-4.09635,
2026_07_06_20_34_08.336,3.866,43.4,0,0.769,0,0,0,0, ,0,0,0,0,0, ,-173,500.2,1005.1,-36.2,54.5,17.2,25,-78.7976,313.375,964.644,-2.21794,14.427,-3.05759,
2026_07_06_20_34_08.356,3.866,43.5,0,0.77,0,0,0,0, ,0,0,0,0,0, ,-246.8,466,1055.1,-125.5,97,70.5,25,-86.7867,323.717,968.633,-7.00958,18.1639,-0.199159,
2026_07_06_20_34_08.381,3.866,43.5,0,0.769,0,0,0,0, ,0,0,0,0,0, ,-125.8,105.1,595.9,-46.9,72.2,93.8,25,-92.8507,321.392,959.911,-11.8352,22.2124,4.81899,
2026_07_06_20_34_08.396,3.866,43.5,0,0.769,0,0,0,0, ,0,0,0,0,0, ,-159.5,108.7,1074.4,-3.7,10.8,41.3,25,-95.8854,308.321,952.308,-12.6558,23.3877,8.64166,
2026_07_06_20_34_08.415,3.866,43.5,0,0.769,0,0,0,0, ,0,0,0,0,0, ,-265.9,381.8,1073.6,72.4,-38.7,1.8,25,-103.004,304.478,959.724,-9.79134,21.1124,9.42826,
2026_07_06_20_34_08.436,3.866,43.5,0,0.769,0,0,0,0, ,0,0,0,0,0, ,-136.1,387,865.1,4.9,-46.3,19.4,25,-108.975,309.348,960.31,-6.83945,17.2361,9.49967,
2026_07_06_20_34_08.456,3.866,43.5,0,0.769,0,0,0,0, ,0,0,0,0,0, ,-188.4,162.5,831.7,13.3,-12.6,28.1,25,-112.222,307.24,953.491,-5.86814,14.3911,10.368,
2026_07_06_20_34_08.475,3.866,43.5,0,0.769,0,0,0,0, ,0,0,0,0,0, ,-145,232.2,938.1,28,11.2,-9.3,25,-115.542,300.543,949.311,-4.25219,13.4715,10.3091,
2026_07_06_20_34_08.495,3.866,43.4,0,0.77,0,0,0,0, ,0,0,0,0,0, ,-168,284.1,994.6,51,21.4,-13.6,25,-118.038,297.96,950.349,-1.58604,13.6439,8.98311,
2026_07_06_20_34_08.515,3.866,43.4,0,0.77,0,0,0,0, ,0,0,0,0,0, ,-263.6,364.2,925.9,58.5,20.4,-15.7,25,-123.995,299.556,950.953,1.84694,14.086,7.54297,
2026_07_06_20_34_08.534,3.866,43.5,0,0.77,0,0,0,0, ,0,0,0,0,0, ,-187.7,572.6,1116.8,26.2,16.8,15.8,25,-130.19,309.845,955.243,4.31509,14.3611,7.08637,
2026_07_06_20_34_08.561,3.866,43.5,0,0.771,0,0,0,0, ,0,0,0,0,0, ,-245.4,233.1,1153.4,-70.6,-35.3,32.3,25,-135.452,315.512,966.203,2.69933,12.9223,8.12009,
2026_07_06_20_34_08.574,3.866,43.5,0,0.768,0,0,0,0, ,0,0,0,0,0, ,-195,460.2,1004.3,-69.2,-58.1,16.3,25,-140.616,317.41,973.067,-1.72469,9.28907,9.10605,
2026_07_06_20_34_08.595,3.866,43.4,0,0.77,0,0,0,0, ,0,0,0,0,0, ,-98.2,484.4,915.2,-90,-11.4,66,25,-140.981,326.848,972.256,-6.47022,6.60544,11.0587,
2026_07_06_20_34_08.613,3.866,43.5,0,0.77,0,0,0,0, ,0,0,0,0,0, ,-106.2,111.6,1087.5,-91,-12,67.1,25,-138.618,325.09,974.029,-11.5908,5.48995,14.4402,
2026_07_06_20_34_08.634,3.866,43.4,0,0.769,0,0,0,0, ,0,0,0,0,0, ,-277.9,185.7,972.6,-118.8,-40.6,31.8,25,-141.874,314.339,977.442,-17.2768,3.55275,16.5736,
2026_07_06_20_34_08.653,3.866,43.4,0,0.77,0,0,0,0, ,0,0,0,0,0, ,-153,277.7,1032.8,-101.2,-43.2,44,25,-146.357,309.303,978.981,-22.9271,0.782977,17.8732,
2026_07_06_20_34_08.673,3.866,43.5,0,0.77,0,0,0,0, ,0,0,0,0,0, ,-78.8,-46.9,1081.1,-121.8,-46,38.8,25,-144.501,297.487,983.733,-28.3245,-1.98255,19.3069,
2026_07_06_20_34_08.693,3.866,43.4,0,0.769,0,0,0,0, ,0,0,0,0,0, ,-82.3,76.6,761.2,-93.4,-17.7,-31.8,25,-140.604,280.264,979.919,-33.1554,-3.8026,18.3436,
2026_07_06_20_34_08.713,3.866,43.4,0,0.769,0,0,0,0, ,0,0,0,0,0, ,-31.6,427.2,914.3,-62.5,45.9,9.5,25,-135.507,278.535,971.256,-35.8851,-2.71166,16.5464,
2026_07_06_20_34_08.733,3.866,43.4,0,0.768,0,0,0,0, ,0,0,0,0,0, ,-79.2,49.8,1063.9,-83.5,12.5,54.5,25,-130.625,276.096,972.343,-38.1467,-0.76704,17.4881,
2026_07_06_20_34_08.753,3.866,43.4,0,0.769,0,0,0,0, ,0,0,0,0,0, ,-138.5,-18.4,939.4,-104.5,-17.6,12.7,25,-129.298,260.228,974.129,-41.5503,-0.875689,18.4699,
2026_07_06_20_34_08.772,3.866,43.4,0,0.77,0,0,0,0, ,0,0,0,0,0, ,-89.2,156.2,905.8,-105.5,-1.6,16.4,25,-128.357,248.569,970.989,-45.4168,-1.40733,18.231,
2026_07_06_20_34_08.792,3.866,43.4,0,0.77,0,0,0,0, ,0,0,0,0,0, ,-49.4,206.1,1098.6,-131.7,25.8,53.7,25,-124.758,244.46,972.891,-49.8764,-0.584224,19.2559,
2026_07_06_20_34_08.812,3.866,43.4,0,0.769,0,0,0,0, ,0,0,0,0,0, ,-82.7,-167.4,1079.7,-139.4,9.6,68.9,25,-121.181,230.743,979.975,-55.0971,0.529971,21.818,
2026_07_06_20_34_08.832,3.866,43.3,0,0.769,0,0,0,0, ,0,0,0,0,0, ,-164.5,-172.4,998.6,-113,-43.1,25.7,25,-121.328,206.329,983.581,-59.4299,-0.523027,23.3708,
2026_07_06_20_34_08.852,3.866,43.4,0,0.769,0,0,0,0, ,0,0,0,0,0, ,-45.7,-196,766.6,-111,-55.9,34.3,25,-120.339,182.531,977.428,-62.6334,-3.50756,23.7748,
2026_07_06_20_34_08.871,3.866,43.4,0,0.77,0,0,0,0, ,0,0,0,0,0, ,-27.7,-263.5,898.3,-78.1,-24.1,43.5,25,-115.242,157.407,968.593,-64.5783,-5.73132,24.6965,
2026_07_06_20_34_08.890,3.866,43.4,0,0.77,0,0,0,0, ,0,0,0,0,0, ,-59.6,-125.1,997.6,-42.3,-27,71.8,25,-110.88,135.975,967.335,-64.3115,-6.93902,26.7046,
2026_07_06_20_34_08.911,3.866,43.4,0,0.77,0,0,0,0, ,0,0,0,0,0, ,-89.9,-234,861.8,12.9,-33.6,56.6,25,-108.678,116.748,965.042,-61.2883,-8.36258,28.9894,
2026_07_06_20_34_08.931,3.866,43.4,0,0.77,0,0,0,0, ,0,0,0,0,0, ,-37.2,-224.4,827.6,36.5,-17,26.1,25,-105.928,95.6667,957.708,-56.0484,-9.3947,29.7427,
2026_07_06_20_34_08.951,3.866,43.4,0,0.769,0,0,0,0, ,0,0,0,0,0, ,-64.9,-160.8,957.3,27.4,-18.3,16.9,25,-102.584,78.1004,953.732,-50.686,-9.89776,29.2404,
2026_07_06_20_34_08.971,3.866,43.3,0,0.769,0,0,0,0, ,0,0,0,0,0, ,-41.1,-158.9,1024.9,32.6,-31.7,6.4,25,-99.5624,63.6003,956.009,-45.7692,-10.8181,28.1685,
2026_07_06_20_34_08.990,3.866,43.5,0,0.77,0,0,0,0, ,0,0,0,0,0, ,-128.6,-140.7,1020.3,37.5,-28.1,-11.2,25,-98.6659,50.5962,960.067,-40.8443,-11.9809,26.3057,
2026_07_06_20_34_09.010,3.866,43.3,0,0.769,0,0,0,0, ,0,0,0,0,0, ,-101.8,-81.2,953,48.3,-17.2,-21.4,25,-99.6734,40.752,961.687,-35.7411,-12.631,23.7094,
2026_07_06_20_34_09.029,3.866,43.3,0,0.77,0,0,0,0, ,0,0,0,0,0, ,-77.5,-57.1,931.7,55.9,-24.8,-23.4,25,-99.0626,34.0549,960.508,-30.3883,-13.141,20.8996,
2026_07_06_20_34_09.049,3.866,43.4,0,0.769,0,0,0,0, ,0,0,0,0,0, ,-77.2,-86.9,956.7,47.9,-28.1,-17.8,25,-97.7395,27.5922,959.515,-25.3739,-13.952,18.3707,
2026_07_06_20_34_09.069,3.866,43.3,0,0.77,0,0,0,0, ,0,0,0,0,0, ,-57.2,-64.3,993.8,31.5,-32.3,-9.3,25,-95.8785,21.3039,960.473,-21.4084,-14.9421,16.4256,
2026_07_06_20_34_09.089,3.866,43.3,0,0.769,0,0,0,0, ,0,0,0,0,0, ,-64.8,-4.7,960,47.4,-35.4,-14.6,25,-93.7531,17.9033,961.474,-17.6999,-16.0943,14.6964,
2026_07_06_20_34_09.109,3.866,43.3,0,0.769,0,0,0,0, ,0,0,0,0,0, ,-57,-22.7,914.7,65.8,-22.4,-22.4,25,-91.7511,15.9775,960.004,-13.1722,-16.8747,12.6735,
2026_07_06_20_34_09.128,3.866,43.4,0,0.77,0,0,0,0, ,0,0,0,0,0, ,-77.7,-49.6,901.2,43.3,-8.5,-25.1,25,-90.2642,12.801,956.832,-9.0454,-16.7879,10.454,
2026_07_06_20_34_09.148,3.866,43.4,0,0.769,0,0,0,0, ,0,0,0,0,0, ,-40.7,-9.5,952,30.8,-3.6,-20.4,25,-88.3712,10.2202,954.99,-6.23646,-16.1335,8.4306,
2026_07_06_20_34_09.168,3.866,43.4,0,0.769,0,0,0,0, ,0,0,0,0,0, ,-27.9,-18,967.1,24.4,-5.5,-24.5,25,-85.0762,8.75954,955.268,-4.17455,-15.4276,6.54882,
2026_07_06_20_34_09.188,3.866,43.3,0,0.769,0,0,0,0, ,0,0,0,0,0, ,-92.6,-27.2,949,20.4,-19.6,-24.7,25,-83.5634,6.84857,955.437,-2.55516,-15.2523,4.65069,
2026_07_06_20_34_09.209,3.866,43.3,0,0.769,0,0,0,0, ,0,0,0,0,0, ,-30,12,941.4,21.7,-14.8,-27.1,25,-82.2067,5.96811,954.814,-1.11672,-15.371,2.789,
2026_07_06_20_34_09.227,3.866,43.3,0,0.769,0,0,0,0, ,0,0,0,0,0, ,-32.9,-2.5,970.3,20.8,-8.9,-23.4,25,-79.1137,5.89388,954.877,0.246248,-15.1564,1.08038,
2026_07_06_20_34_09.247,3.866,43.3,0,0.77,0,0,0,0, ,0,0,0,0,0, ,-30.8,-8.4,970.2,18.9,-7.4,-26,25,-76.2336,5.20261,955.814,1.44085,-14.7295,-0.490614,
2026_07_06_20_34_09.268,3.866,43.3,0,0.77,0,0,0,0, ,0,0,0,0,0, ,-9.8,-6.5,978.8,15.8,-13.4,-25.5,25,-72.8251,4.43159,956.952,2.41031,-14.4656,-2.02986,
2026_07_06_20_34_09.287,3.866,43.3,0,0.769,0,0,0,0, ,0,0,0,0,0, ,-4.3,6.2,1010.3,13.2,-14.3,-19.6,25,-68.817,4.1524,959.243,3.14703,-14.4281,-3.2803,
2026_07_06_20_34_09.307,3.866,43.3,0,0.77,0,0,0,0, ,0,0,0,0,0, ,4.1,10.4,1023,14.4,-20,-24.7,25,-64.6295,4.40515,962.742,3.7962,-14.594,-4.43018,
2026_07_06_20_34_09.326,3.866,43.3,0,0.769,0,0,0,0, ,0,0,0,0,0, ,-13,11.1,1002.4,13.5,-24.4,-29.7,25,-60.9623,4.79179,965.786,4.41494,-15.0575,-5.81771,
2026_07_06_20_34_09.347,3.866,43.2,0,0.769,0,0,0,0, ,0,0,0,0,0, ,-35.8,5.9,997.3,10.7,-20,-29.6,25,-58.7343,5.01775,967.862,4.88325,-15.4927,-7.26999,
2026_07_06_20_34_09.366,3.866,43.3,0,0.77,0,0,0,0, ,0,0,0,0,0, ,21.4,10,1041.7,7.1,-13.7,-38.3,25,-55.5939,5.19644,971.008,5.12802,-15.5754,-8.8958,
2026_07_06_20_34_09.386,3.866,43.4,0,0.769,0,0,0,0, ,0,0,0,0,0, ,94.1,-8.7,1074,5.4,-11.8,-45.3,25,-48.687,4.91939,976.3,5.19639,-15.4033,-10.9009,
2026_07_06_20_34_09.405,3.866,43.3,0,0.768,0,0,0,0, ,0,0,0,0,0, ,76.4,0.6,1029.6,1.8,-14.9,-35.2,25,-40.5253,4.37282,980.901,5.09911,-15.2781,-12.6894,
2026_07_06_20_34_09.425,3.866,43.2,0,0.768,0,0,0,0, ,0,0,0,0,0, ,53.3,49.4,989.6,7.5,-31.4,-31.7,25,-34.104,5.62979,982.65,5.07174,-15.7578,-13.9545,
2026_07_06_20_34_09.446,3.866,43.3,0,0.77,0,0,0,0, ,0,0,0,0,0, ,55.4,14.2,1039.5,8.6,-40.1,-23.9,25,-28.7138,7.22453,984.594,5.25323,-16.9761,-14.7982,
2026_07_06_20_34_09.465,3.866,43.3,0,0.77,0,0,0,0, ,0,0,0,0,0, ,63.4,-11.1,1089.3,4.2,-34,-20.9,25,-23.3444,6.87874,989.457,5.32311,-18.1994,-15.2614,
2026_07_06_20_34_09.485,3.866,43.3,0,0.769,0,0,0,0, ,0,0,0,0,0, ,101,-53.5,1163.4,-6.9,-5,-25.9,25,-16.9128,4.49129,997.799,4.91647,-18.2786,-15.7574,
2026_07_06_20_34_09.505,3.866,43.3,0,0.769,0,0,0,0, ,0,0,0,0,0, ,68.2,5.6,1116.5,-10.1,4.2,-29.6,25,-10.7268,2.75815,1006.46,4.0989,-17.1891,-16.4882,
2026_07_06_20_34_09.525,3.866,43.3,0,0.769,0,0,0,0, ,0,0,0,0,0, ,6.3,22.2,1036.8,-19.7,-14.5,-25.1,25,-7.80323,3.4371,1010.74,2.94116,-16.4555,-17.1501,
2026_07_06_20_34_09.544,3.866,43.3,0,0.767,0,0,0,0, ,0,0,0,0,0, ,31.7,10.4,1016.7,-23.3,-14.9,-21.2,25,-6.16991,4.22094,1011.71,1.45178,-16.3485,-17.5157,
2026_07_06_20_34_09.564,3.866,43.4,0,0.769,0,0,0,0, ,0,0,0,0,0, ,105.1,-58.3,1075.1,-23.7,5.7,-16.1,25,-1.62581,2.50427,1013.8,-0.0687233,-15.6326,-17.5848,
2026_07_06_20_34_09.584,3.866,43.3,0,0.771,0,0,0,0, ,0,0,0,0,0, ,108.8,-63.7,1104.4,-29.2,18.8,-12.9,25,4.99053,-1.36552,1018.43,-1.67633,-13.9335,-17.3968,
2026_07_06_20_34_09.603,3.866,43.3,0,0.77,0,0,0,0, ,0,0,0,0,0, ,138.6,-73.8,1057.3,-35.7,-10.4,-11.7,25,12.2244,-5.47176,1022.23,-3.5516,-12.8285,-17.0862,
2026_07_06_20_34_09.624,3.866,43.3,0,0.771,0,0,0,0, ,0,0,0,0,0, ,0.2,-49,1034,-36,-15.8,-23,25,15.7085,-8.87989,1023.66,-5.51979,-12.845,-17.1023,
2026_07_06_20_34_09.643,3.866,43.3,0,0.769,0,0,0,0, ,0,0,0,0,0, ,48.2,-43,1017.7,-33.7,5.1,-36.7,25,16.226,-11.1419,1023.79,-7.3071,-12.3883,-17.8791,
2026_07_06_20_34_09.664,3.866,43.3,0,0.77,0,0,0,0, ,0,0,0,0,0, ,83,-44.6,1047.9,-30.7,32.7,-38.8,25,19.2347,-13.132,1024.34,-8.82401,-10.4817,-19.09,
2026_07_06_20_34_09.683,3.866,43.3,0,0.77,0,0,0,0, ,0,0,0,0,0, ,126.4,-42.4,1049.4,-30.1,26.4,-32.2,25,24.4427,-14.9825,1025.82,-10.1388,-8.04225,-20.09,
2026_07_06_20_34_09.702,3.866,43.2,0,0.771,0,0,0,0, ,0,0,0,0,0, ,159.6,-44.4,988.5,-31.3,2.1,-14.5,25,31.6673,-16.7142,1025.4,-11.3917,-6.68381,-20.2886,
2026_07_06_20_34_09.723,3.866,43.3,0,0.77,0,0,0,0, ,0,0,0,0,0, ,130.4,-49,931.5,-37,-16.5,-9.4,25,38.5735,-18.5415,1021.42,-12.7786,-6.71527,-19.7805,
2026_07_06_20_34_09.743,3.866,43.3,0,0.77,0,0,0,0, ,0,0,0,0,0, ,98.9,-33.8,925.9,-35.1,-7.1,-28.7,25,43.2094,-19.9344,1015.77,-14.1967,-7.02512,-19.736,
2026_07_06_20_34_09.762,3.866,43.2,0,0.769,0,0,0,0, ,0,0,0,0,0, ,122.5,-13.6,946,-27.3,21.1,-38.8,25,47.3222,-20.1639,1010.9,-15.2328,-6.17046,-20.59,
2026_07_06_20_34_09.782,3.866,43.2,0,0.769,0,0,0,0, ,0,0,0,0,0, ,143.4,-70.8,928.5,-17.8,36.9,-37.4,25,52.5401,-21.5067,1006.41,-15.6787,-4.02726,-21.657,
2026_07_06_20_34_09.801,3.866,43.3,0,0.769,0,0,0,0, ,0,0,0,0,0, ,210.8,-47.4,919.1,-17.1,37.7,-29.6,25,60.1305,-23.7976,1001.38,-15.7866,-1.50888,-22.3787,
2026_07_06_20_34_09.822,3.866,43.2,0,0.769,0,0,0,0, ,0,0,0,0,0, ,234.4,-16.7,885.1,-10.7,29.2,-19.7,25,70.031,-24.3004,995.331,-15.6717,0.621422,-22.5171,
2026_07_06_20_34_09.840,3.866,43.2,0,0.77,0,0,0,0, ,0,0,0,0,0, ,155.5,-18.9,836.7,-28.5,20,-16,25,77.6432,-23.9043,987.139,-15.9111,2.08262,-22.2327,
2026_07_06_20_34_09.861,3.866,43.3,0,0.77,0,0,0,0, ,0,0,0,0,0, ,119.5,-88.3,884.6,0,18.7,-30.3,25,81.2907,-25.7139,979.431,-15.8098,3.13485,-22.2886,
2026_07_06_20_34_09.888,3.866,43.2,0,0.769,0,0,0,0, ,0,0,0,0,0, ,118.4,-70.1,874.6,4.9,27.9,-27.6,25,83.5856,-28.9732,973.347,-14.6971,4.36366,-22.6945,
2026_07_06_20_34_09.905,3.866,43.2,0,0.769,0,0,0,0, ,0,0,0,0,0, ,176.1,-41.9,861.4,-3.3,42,-26.1,25,87.4651,-30.6202,966.928,-13.7528,6.22752,-22.9477,
2026_07_06_20_34_09.921,3.866,43.2,0,0.769,0,0,0,0, ,0,0,0,0,0, ,165.5,-76.4,833,4.3,42.3,-23.1,25,92.5434,-32.3587,959.632,-12.8842,8.41654,-23.0484,
2026_07_06_20_34_09.940,3.866,43.3,0,0.769,0,0,0,0, ,0,0,0,0,0, ,137.8,-75.5,829.9,8.9,35.7,-24.5,25,96.1452,-35.015,951.821,-11.6969,10.2802,-23.0942,
2026_07_06_20_34_09.960,3.866,43.3,0,0.771,0,0,0,0, ,0,0,0,0,0, ,146.1,-79.3,867.3,5,31.7,-21.9,25,98.9364,-37.5979,945.531,-10.5606,11.7074,-23.1007,
2026_07_06_20_34_09.982,3.866,43.3,0,0.769,0,0,0,0, ,0,0,0,0,0, ,134.7,-117.1,903,0.7,23.6,-21.2,25,101.463,-41.2908,941.851,-9.74342,12.6789,-23.0062,
2026_07_06_20_34_10.000,3.866,43.2,0,0.769,0,0,0,0, ,0,0,0,0,0, ,37.4,-237.5,944.2,8,10,-14.3,25,100.524,-49.5789,940.739,-8.8846,12.93,-22.6859,
2026_07_06_20_34_10.020,3.866,43.2,0,0.772,0,0,0,0, ,0,0,0,0,0, ,-36.3,-237.6,1051.2,14,-26.9,-7.1,25,94.4317,-61.0334,944.21,-7.67288,11.6272,-21.9555,
2026_07_06_20_34_10.040,3.866,43.2,0,0.768,0,0,0,0, ,0,0,0,0,0, ,8.5,-66.5,1096.9,5,-58,-3.7,25,87.8302,-66.5797,952.122,-6.62641,8.33183,-20.9466,
2026_07_06_20_34_10.060,3.866,43.2,0,0.769,0,0,0,0, ,0,0,0,0,0, ,2.6,-13.9,1036,-0.6,-43.6,-6.1,25,82.8163,-64.9722,959.089,-6.08855,4.72848,-19.9688,
2026_07_06_20_34_10.082,3.866,43.3,0,0.769,0,0,0,0, ,0,0,0,0,0, ,30.5,21.6,978.1,4.8,-7.6,-17.9,25,78.7782,-60.7783,962.012,-5.58956,2.88034,-19.4832,
2026_07_06_20_34_10.099,3.866,43.3,0,0.769,0,0,0,0, ,0,0,0,0,0, ,91.7,-28.8,1029,20.2,25.1,-21.5,25,77.7009,-57.294,964.543,-4.48723,3.23803,-19.4964,
2026_07_06_20_34_10.119,3.866,43.3,0,0.77,0,0,0,0, ,0,0,0,0,0, ,102.1,-118.8,1094.3,24,38.9,-17.1,25,78.8709,-58.2999,970.46,-2.86707,4.99071,-19.4844,
2026_07_06_20_34_10.139,3.866,43.3,0,0.768,0,0,0,0, ,0,0,0,0,0, ,104.4,-108.3,1074.5,15.2,26,-12,25,80.3565,-61.6667,977.404,-1.49798,6.66401,-19.1837,
2026_07_06_20_34_10.159,3.866,43.3,0,0.768,0,0,0,0, ,0,0,0,0,0, ,110.8,-89.5,1062.6,8.8,11.4,-6.7,25,82.0166,-63.9356,982.958,-0.675449,7.39745,-18.5845,
2026_07_06_20_34_10.179,3.866,43.1,0,0.768,0,0,0,0, ,0,0,0,0,0, ,102.6,-41.7,1034.6,2,-14.8,8.6,25,83.5208,-64.037,986.958,-0.305226,6.84308,-17.3941,
2026_07_06_20_34_10.198,3.866,43.2,0,0.769,0,0,0,0, ,0,0,0,0,0, ,68.6,-19,1003.9,0.6,-24.5,18.2,25,83.6475,-61.9842,988.926,-0.207408,5.22865,-15.5176,
2026_07_06_20_34_10.218,3.866,43.2,0,0.769,0,0,0,0, ,0,0,0,0,0, ,39,-28.3,985.7,2.9,-17.2,18.2,25,81.8286,-59.6482,989.284,-0.0881283,3.63949,-13.4629,
2026_07_06_20_34_10.238,3.866,43.2,0,0.769,0,0,0,0, ,0,0,0,0,0, ,23.3,-37.8,991.8,7.2,-0.7,12.2,25,78.7404,-58.0274,989.251,0.224976,2.87231,-11.7163,
2026_07_06_20_34_10.257,3.866,43.3,0,0.77,0,0,0,0, ,0,0,0,0,0, ,-0.6,-13,1019.7,11.7,2.8,6.3,25,74.6338,-56.0391,990.257,0.787126,2.76127,-10.4387,
2026_07_06_20_34_10.277,3.866,43.2,0,0.768,0,0,0,0, ,0,0,0,0,0, ,-14.1,-3.1,997.8,10,-3.7,5.2,25,69.6379,-53.1148,991.384,1.40033,2.56558,-9.45216,
2026_07_06_20_34_10.297,3.866,43.2,0,0.768,0,0,0,0, ,0,0,0,0,0, ,-12.4,-1.2,1010.6,7.9,-6,6,25,64.5869,-50.0091,992.165,1.86039,2.11369,-8.53492,
2026_07_06_20_34_10.316,3.866,43.1,0,0.768,0,0,0,0, ,0,0,0,0,0, ,-8.3,-24.1,1052.6,6,-1.8,6,25,60.0205,-47.7326,994.568,2.17054,1.74723,-7.6492,
2026_07_06_20_34_10.337,3.866,43.1,0,0.771,0,0,0,0, ,0,0,0,0,0, ,21.4,-26.3,1072.6,-4.8,1.1,2.4,25,56.7621,-46.3595,998.713,2.07483,1.61943,-6.92714,
2026_07_06_20_34_10.357,3.866,43.2,0,0.769,0,0,0,0, ,0,0,0,0,0, ,6.8,-37.4,1075.5,0.1,4.6,-1.6,25,54.1624,-45.4753,1003.3,1.8052,1.69442,-6.48064,
2026_07_06_20_34_10.376,3.866,43.2,0,0.768,0,0,0,0, ,0,0,0,0,0, ,9.6,-45.5,1045.2,-1.7,9.6,-1.3,25,51.3616,-45.23,1006.78,1.64644,2.02382,-6.17408,
2026_07_06_20_34_10.396,3.866,43.2,0,0.768,0,0,0,0, ,0,0,0,0,0, ,19,-44.9,1033.6,-0.8,10.9,-0.4,25,49.1031,-45.2282,1008.77,1.46994,2.52511,-5.84965,
2026_07_06_20_34_10.416,3.866,43.2,0,0.769,0,0,0,0, ,0,0,0,0,0, ,19.5,-38.4,1042.1,-1.9,7.7,1.5,25,47.2839,-45.0101,1010.54,1.2981,2.93795,-5.45967,
2026_07_06_20_34_10.436,3.866,43.1,0,0.768,0,0,0,0, ,0,0,0,0,0, ,10.3,-44.5,1006.8,-3.3,5.4,3.6,25,45.3105,-44.7932,1011.39,1.06056,3.15806,-4.97158,
2026_07_06_20_34_10.458,3.866,43.2,0,0.769,0,0,0,0, ,0,0,0,0,0, ,4.5,-56.2,958.7,0.5,7.2,3,25,43.0004,-45.1318,1009.64,0.910619,3.34952,-4.46753,
2026_07_06_20_34_10.475,3.866,43.2,0,0.769,0,0,0,0, ,0,0,0,0,0, ,12.8,-49.6,977.1,1,9.6,7.3,25,40.9071,-45.6052,1007.1,0.900831,3.65729,-3.88146,
2026_07_06_20_34_10.495,3.866,43.2,0,0.769,0,0,0,0, ,0,0,0,0,0, ,21.2,-67.1,998.4,0.4,8.5,3.7,25,39.4503,-46.3818,1005.92,0.888593,3.9859,-3.30978,
2026_07_06_20_34_10.515,3.866,43.1,0,0.769,0,0,0,0, ,0,0,0,0,0, ,30.3,-66.4,998.5,-2.5,6.1,7.9,25,38.6154,-47.623,1005.46,0.77046,4.18786,-2.75465,
2026_07_06_20_34_10.535,3.866,43.2,0,0.769,0,0,0,0, ,0,0,0,0,0, ,26.3,-66.6,984.9,-4,2.6,10,25,37.9868,-48.7733,1004.63,0.525463,4.19774,-2.0414,
2026_07_06_20_34_10.555,3.866,43.2,0,0.769,0,0,0,0, ,0,0,0,0,0, ,0.3,-70.3,977.7,-5.4,-4.6,13.9,25,36.4825,-49.9724,1003.2,0.207036,3.881,-1.1888,
2026_07_06_20_34_10.575,3.866,43.3,0,0.77,0,0,0,0, ,0,0,0,0,0, ,-21.8,-67.7,981.8,-5.8,-6.2,14.9,25,33.6043,-51.1319,1001.78,-0.14683,3.31544,-0.238857,
2026_07_06_20_34_10.594,3.866,43.2,0,0.769,0,0,0,0, ,0,0,0,0,0, ,-36.2,-63.4,986.3,-6.1,-3.1,14.6,25,29.7893,-52.0105,1000.7,-0.50046,2.83005,0.674526,
2026_07_06_20_34_10.614,3.866,43.2,0,0.769,0,0,0,0, ,0,0,0,0,0, ,-46.3,-60,975.8,-6.5,-2.7,12.4,25,25.4604,-52.6009,999.498,-0.85387,2.48087,1.45608,
2026_07_06_20_34_10.636,3.866,43.1,0,0.769,0,0,0,0, ,0,0,0,0,0, ,-43.9,-54.3,956.7,-3.5,-3,12.6,25,21.1606,-52.8781,997.472,-1.10652,2.15602,2.12907,
2026_07_06_20_34_10.653,3.866,43.2,0,0.769,0,0,0,0, ,0,0,0,0,0, ,-37.3,-45.1,975.7,-4.7,-5.1,11.9,25,17.3971,-52.6845,995.566,-1.28894,1.77784,2.74581,
2026_07_06_20_34_10.673,3.866,43.1,0,0.769,0,0,0,0, ,0,0,0,0,0, ,-30.6,-43,999.1,-4.6,-8.3,8.8,25,14.2681,-52.1583,995.069,-1.49375,1.26122,3.20919,
2026_07_06_20_34_10.693,3.866,43.2,0,0.768,0,0,0,0, ,0,0,0,0,0, ,-32.2,-46,1006.8,-4.6,-8.2,6.7,25,11.4852,-51.6916,995.549,-1.68304,0.681633,3.4859,
2026_07_06_20_34_10.712,3.866,43.2,0,0.769,0,0,0,0, ,0,0,0,0,0, ,-28.4,-51.8,1005.9,-5.9,-5.3,4.8,25,8.93891,-51.5215,996.207,-1.9004,0.228768,3.62387,
2026_07_06_20_34_10.733,3.866,43.2,0,0.769,0,0,0,0, ,0,0,0,0,0, ,-7.9,-47.7,1001.7,-3.2,-2,2.1,25,7.28818,-51.4136,996.67,-2.06186,-0.00759421,3.61327,
2026_07_06_20_34_10.753,3.866,43.2,0,0.768,0,0,0,0, ,0,0,0,0,0, ,0.6,-58.9,1001.5,0.7,-1.1,0.6,25,6.62163,-51.5285,996.97,-2.01239,-0.101585,3.47535,
2026_07_06_20_34_10.773,3.866,43.2,0,0.768,0,0,0,0, ,0,0,0,0,0, ,-0.9,-69.7,1010.9,-2.1,-3.6,-1.5,25,6.20898,-52.3068,997.533,-1.93242,-0.238597,3.23615,
2026_07_06_20_34_10.792,3.866,43.2,0,0.768,0,0,0,0, ,0,0,0,0,0, ,3.2,-70.9,1000.8,-4.7,-4.5,-2,25,5.9007,-53.4032,998.04,-2.02185,-0.470855,2.93231,
2026_07_06_20_34_10.812,3.866,43.2,0,0.77,0,0,0,0, ,0,0,0,0,0, ,15.7,-67.2,993.2,-3.7,-3.2,-0.7,25,6.11699,-54.3567,997.976,-2.15458,-0.676771,2.67136,
2026_07_06_20_34_10.832,3.866,43.2,0,0.769,0,0,0,0, ,0,0,0,0,0, ,16.7,-66.5,991.8,0,-2.9,0.1,25,6.73142,-55.118,997.643,-2.13602,-0.82139,2.49029,
2026_07_06_20_34_10.853,3.866,43.3,0,0.77,0,0,0,0, ,0,0,0,0,0, ,7.3,-68.6,985.3,1.9,-4.1,0.5,25,7.05248,-55.8756,997.088,-1.94796,-0.984618,2.35682,
2026_07_06_20_34_10.872,3.866,43.2,0,0.768,0,0,0,0, ,0,0,0,0,0, ,4.1,-70,981.9,3,-4.7,-0.5,25,6.97006,-56.6936,996.266,-1.67996,-1.19274,2.2132,
2026_07_06_20_34_10.892,3.866,43.1,0,0.769,0,0,0,0, ,0,0,0,0,0, ,2.9,-71.8,992.5,3.6,-2.9,-2.6,25,6.7586,-57.5593,995.714,-1.3765,-1.35162,1.98388,
2026_07_06_20_34_10.911,3.866,43.2,0,0.77,0,0,0,0, ,0,0,0,0,0, ,6.3,-67.7,998.4,4.4,-0.9,-3.2,25,6.62706,-58.3022,995.698,-1.04887,-1.38504,1.68627,
2026_07_06_20_34_10.931,3.866,43.1,0,0.769,0,0,0,0, ,0,0,0,0,0, ,8.1,-62.1,1004.8,5.4,-1.8,-1.6,25,6.66198,-58.7043,996.058,-0.686357,-1.3829,1.43726,
2026_07_06_20_34_10.951,3.866,43.2,0,0.77,0,0,0,0, ,0,0,0,0,0, ,8.5,-59,1001.8,5.8,-3.5,0,25,6.76179,-58.8167,996.499,-0.303282,-1.46012,1.30093,
2026_07_06_20_34_10.971,3.866,43.1,0,0.77,0,0,0,0, ,0,0,0,0,0, ,4.6,-53.9,1004.2,4.9,-3.7,0.7,25,6.74889,-58.6725,996.895,0.0412148,-1.59052,1.24298,
2026_07_06_20_34_10.990,3.866,43.2,0,0.768,0,0,0,0, ,0,0,0,0,0, ,1.5,-51.6,1021.4,4.2,-3,-2.5,25,6.52349,-58.3116,997.864,0.315969,-1.69774,1.11239,
2026_07_06_20_34_11.010,3.866,43.2,0,0.768,0,0,0,0, ,0,0,0,0,0, ,10.1,-43.4,1024.6,3.4,0.4,-3,25,6.4794,-57.6528,999.396,0.528277,-1.6735,0.877028,
2026_07_06_20_34_11.029,3.866,43.1,0,0.768,0,0,0,0, ,0,0,0,0,0, ,22.3,-30.3,1017.7,3,1.8,-2.3,25,7.07175,-56.3851,1000.72,0.691085,-1.50449,0.6621,
2026_07_06_20_34_11.050,3.866,43.1,0,0.769,0,0,0,0, ,0,0,0,0,0, ,22,-26.4,1010,2.4,-0.2,-1.9,25,7.99058,-54.6767,1001.52,0.813503,-1.36406,0.493784,
2026_07_06_20_34_11.069,3.866,43,0,0.768,0,0,0,0, ,0,0,0,0,0, ,19.5,-27.7,1008.3,2.6,-1.5,-0.1,25,8.76811,-52.9932,1001.99,0.916274,-1.33273,0.402757,
2026_07_06_20_34_11.089,3.866,43,0,0.769,0,0,0,0, ,0,0,0,0,0, ,7.9,-29.6,1012.9,1,-1.6,-0.6,25,9.06864,-51.5098,1002.51,0.970126,-1.34597,0.356886,
2026_07_06_20_34_11.109,3.866,43.1,0,0.768,0,0,0,0, ,0,0,0,0,0, ,2,-31.7,1006.8,0.1,0.4,-2.1,25,8.81766,-50.2387,1002.96,0.944525,-1.30051,0.252873,
2026_07_06_20_34_11.130,3.866,43.2,0,0.768,0,0,0,0, ,0,0,0,0,0, ,9.8,-29.4,998,0.6,2,-2.6,25,8.63987,-49.0389,1002.92,0.908296,-1.14814,0.09426,
2026_07_06_20_34_11.149,3.866,43.1,0,0.771,0,0,0,0, ,0,0,0,0,0, ,19.4,-27.8,1001.4,1.8,1.2,-1.7,25,9.00306,-47.7934,1002.73,0.926072,-0.980675,-0.0424996,
2026_07_06_20_34_11.169,3.866,43.1,0,0.769,0,0,0,0, ,0,0,0,0,0, ,14.8,-31.6,1002.8,1.2,-0.3,-0.1,25,9.49647,-46.6908,1002.69,0.961045,-0.893493,-0.0947535,
2026_07_06_20_34_11.188,3.866,43.1,0,0.77,0,0,0,0, ,0,0,0,0,0, ,4.1,-31.6,1004.5,0.1,-1,-0.1,25,9.49364,-45.7712,1002.75,0.942091,-0.878655,-0.0950732,
2026_07_06_20_34_11.208,3.866,43.1,0,0.769,0,0,0,0, ,0,0,0,0,0, ,-3.1,-25.5,1003.2,-0.3,-0.6,-1.3,25,8.94559,-44.7218,1002.82,0.878589,-0.873862,-0.131936,
2026_07_06_20_34_11.228,3.866,43.1,0,0.769,0,0,0,0, ,0,0,0,0,0, ,1.4,-14.7,1004.3,0.5,0.1,-1.3,25,8.34867,-43.2214,1002.87,0.831143,-0.835846,-0.203115,
2026_07_06_20_34_11.248,3.866,43,0,0.769,0,0,0,0, ,0,0,0,0,0, ,2.5,-23,1011.3,0.8,0,-1.6,25,7.95875,-41.7363,1003.17,0.820105,-0.781865,-0.279097,
2026_07_06_20_34_11.267,3.866,43.1,0,0.769,0,0,0,0, ,0,0,0,0,0, ,4.5,-25.6,1011.7,0.6,0.4,-1.4,25,7.68705,-40.6738,1003.68,0.812786,-0.722032,-0.353496,
2026_07_06_20_34_11.287,3.866,43.1,0,0.77,0,0,0,0, ,0,0,0,0,0, ,5.7,-23.8,995.8,2.4,0.4,-0.8,25,7.5294,-39.7004,1003.68,0.854663,-0.653658,-0.398986,
2026_07_06_20_34_11.307,3.866,43.1,0,0.768,0,0,0,0, ,0,0,0,0,0, ,7.4,-27,1000.9,3,0.1,-2.9,25,7.46972,-38.8289,1003.36,0.967113,-0.598592,-0.487407,
2026_07_06_20_34_11.327,3.866,43.1,0,0.769,0,0,0,0, ,0,0,0,0,0, ,7.5,-35,1011.4,2,1.3,-3.3,25,7.46851,-38.3519,1003.53,1.06052,-0.519459,-0.646612,
2026_07_06_20_34_11.347,3.866,43.1,0,0.769,0,0,0,0, ,0,0,0,0,0, ,7.6,-32.4,999,2.1,1.1,-3.6,25,7.47348,-38.0684,1003.63,1.12082,-0.414679,-0.817443,
2026_07_06_20_34_11.368,3.866,43.1,0,0.769,0,0,0,0, ,0,0,0,0,0, ,8.1,-29.7,990.8,1.5,0.9,-3.1,25,7.49642,-37.6407,1003.1,1.16221,-0.328472,-0.971771,
2026_07_06_20_34_11.387,3.866,43.1,0,0.769,0,0,0,0, ,0,0,0,0,0, ,12.3,-26.1,992.5,0.2,-0.5,-2.5,25,7.66117,-37.0471,1002.4,1.14318,-0.296268,-1.08318,
2026_07_06_20_34_11.406,3.866,43.1,0,0.77,0,0,0,0, ,0,0,0,0,0, ,9.2,-29.1,992.6,-0.4,-1.5,-3.4,25,7.8494,-36.4714,1001.8,1.06743,-0.339152,-1.19694,
2026_07_06_20_34_11.426,3.866,43.1,0,0.77,0,0,0,0, ,0,0,0,0,0, ,7.9,-25.5,985.3,0.4,-0.8,-3.7,25,7.89209,-35.9126,1001.02,1.00238,-0.388563,-1.34033,
2026_07_06_20_34_11.447,3.866,43.1,0,0.769,0,0,0,0, ,0,0,0,0,0, ,9,-22.2,988.2,1,0.1,-3.8,25,7.92609,-35.1775,1000.15,0.983953,-0.386213,-1.48717,
2026_07_06_20_34_11.466,3.866,43.1,0,0.769,0,0,0,0, ,0,0,0,0,0, ,17.7,-16.1,996.4,1.3,-0.4,-2.5,25,8.25661,-34.2008,999.67,0.994072,-0.371819,-1.5885,
2026_07_06_20_34_11.486,3.866,43,0,0.77,0,0,0,0, ,0,0,0,0,0, ,11.7,-15.7,998.1,1.6,-2.6,-1.7,25,8.64925,-33.0856,999.523,1.02185,-0.440567,-1.61967,
2026_07_06_20_34_11.506,3.866,43.1,0,0.769,0,0,0,0, ,0,0,0,0,0, ,6.2,-13.9,995.6,2.7,-2.9,-1.7,25,8.66758,-31.9713,999.36,1.0906,-0.581299,-1.62456,
2026_07_06_20_34_11.525,3.866,43.1,0,0.769,0,0,0,0, ,0,0,0,0,0, ,4.3,-14.7,1002.8,2.3,-1.4,-2.4,25,8.45932,-30.8945,999.35,1.17649,-0.676891,-1.65049,
2026_07_06_20_34_11.545,3.866,43,0,0.769,0,0,0,0, ,0,0,0,0,0, ,10.8,-11.9,1012.9,1.5,-0.5,-3,25,8.40391,-29.8223,999.868,1.22058,-0.693534,-1.71444,
2026_07_06_20_34_11.565,3.866,43.1,0,0.769,0,0,0,0, ,0,0,0,0,0, ,18.3,-10.3,1008.5,2.4,-0.7,-2.4,25,8.77844,-28.6814,1000.53,1.26502,-0.687834,-1.7745,
2026_07_06_20_34_11.585,3.866,43,0,0.769,0,0,0,0, ,0,0,0,0,0, ,13.9,-12,1006.4,2.2,-1.3,-2.1,25,9.22459,-27.6131,1000.95,1.32809,-0.706857,-1.80347,
2026_07_06_20_34_11.604,3.866,43,0,0.769,0,0,0,0, ,0,0,0,0,0, ,14.1,-12.9,1006.7,0.7,-1.9,-1.9,25,9.5156,-26.6891,1001.29,1.33552,-0.761283,-1.81545,
2026_07_06_20_34_11.624,3.866,43.1,0,0.769,0,0,0,0, ,0,0,0,0,0, ,9.8,-15,1002.4,0.1,-1.6,-1.8,25,9.66394,-25.9128,1001.49,1.27851,-0.821533,-1.81756,
2026_07_06_20_34_11.644,3.866,43,0,0.77,0,0,0,0, ,0,0,0,0,0, ,11.1,-14.5,1001.8,0.5,-0.6,-1.9,25,9.71184,-25.2326,1001.53,1.21889,-0.838502,-1.81953,
2026_07_06_20_34_11.663,3.866,43.1,0,0.769,0,0,0,0, ,0,0,0,0,0, ,10.9,-15.3,996.8,1.4,-0.7,-2.3,25,9.79034,-24.6029,1001.39,1.2025,-0.827015,-1.83662,
2026_07_06_20_34_11.683,3.866,43.1,0,0.772,0,0,0,0, ,0,0,0,0,0, ,9.6,-17,996.8,1.4,-0.7,-2.2,25,9.81835,-24.0878,1001.11,1.21454,-0.819275,-1.86181,
2026_07_06_20_34_11.703,3.866,43.1,0,0.769,0,0,0,0, ,0,0,0,0,0, ,13.7,-12.2,996.8,1.1,-1.3,-2.6,25,9.92997,-23.5097,1000.85,1.2167,-0.830288,-1.89461,
2026_07_06_20_34_11.724,3.866,43,0,0.769,0,0,0,0, ,0,0,0,0,0, ,15.2,-9.1,1000.6,1.2,-1.7,-1.6,25,10.2054,-22.726,1000.72,1.21263,-0.871098,-1.90713,
2026_07_06_20_34_11.743,3.866,43.1,0,0.77,0,0,0,0, ,0,0,0,0,0, ,10.9,-11.8,997.4,1.6,-2.4,-2,25,10.3787,-21.978,1000.61,1.22405,-0.942938,-1.9006,
2026_07_06_20_34_11.763,3.866,43,0,0.769,0,0,0,0, ,0,0,0,0,0, ,12.2,-9.6,991.5,2.6,-1.3,-1.9,25,10.4501,-21.2907,1000.24,1.27743,-0.998212,-1.90361,
2026_07_06_20_34_11.783,3.866,43,0,0.768,0,0,0,0, ,0,0,0,0,0, ,13.6,-12.6,1001.2,2.4,-0.9,-1.6,25,10.5994,-20.6697,1000,1.35193,-1.00441,-1.89425,
2026_07_06_20_34_11.802,3.866,43.1,0,0.769,0,0,0,0, ,0,0,0,0,0, ,16.2,-11.5,1005.7,1.5,-1.6,-0.6,25,10.8615,-20.1445,1000.21,1.38837,-1.01938,-1.84585,
2026_07_06_20_34_11.825,3.866,43,0,0.77,0,0,0,0, ,0,0,0,0,0, ,12.6,-6.3,995.8,1.2,-2.4,-0.9,25,11.0771,-19.4592,1000.24,1.38604,-1.07914,-1.77907,
2026_07_06_20_34_11.844,3.866,43,0,0.768,0,0,0,0, ,0,0,0,0,0, ,10.7,-7.8,988.5,2.2,-2,-1.3,25,11.112,-18.7031,999.751,1.40517,-1.14744,-1.73769,
2026_07_06_20_34_11.862,3.866,43,0,0.769,0,0,0,0, ,0,0,0,0,0, ,14.6,-3.6,1000,1.4,-1,-1.5,25,11.2057,-17.9107,999.415,1.42923,-1.16892,-1.71711,
2026_07_06_20_34_11.881,3.866,43,0,0.769,0,0,0,0, ,0,0,0,0,0, ,20.1,-5.2,1005.9,1,-1.8,-1.2,25,11.5802,-17.0874,999.631,1.41526,-1.183,-1.69474,
2026_07_06_20_34_11.901,3.866,43,0,0.769,0,0,0,0, ,0,0,0,0,0, ,15.3,-12.3,1007.2,-0.4,-2.4,-1,25,11.9531,-16.5793,1000.05,1.3473,-1.23888,-1.6585,
2026_07_06_20_34_11.921,3.866,43,0,0.769,0,0,0,0, ,0,0,0,0,0, ,16.1,-6.7,1001.3,-0.5,-1.7,-2.3,25,12.1814,-16.1479,1000.31,1.23778,-1.28831,-1.65798,
2026_07_06_20_34_11.941,3.866,43,0,0.769,0,0,0,0, ,0,0,0,0,0, ,21.6,-1.7,1001.3,0.9,-0.1,-1.9,25,12.5878,-15.4198,1000.37,1.17454,-1.26465,-1.68492,
2026_07_06_20_34_11.961,3.866,42.9,0,0.772,0,0,0,0, ,0,0,0,0,0, ,24.7,-2.9,1006.4,1.4,-0.8,-1.2,25,13.2314,-14.6204,1000.58,1.17304,-1.21501,-1.67669,
2026_07_06_20_34_11.981,3.866,43,0,0.769,0,0,0,0, ,0,0,0,0,0, ,19.6,-3,1005.1,0.6,-1.7,0.1,25,13.7749,-13.9092,1000.9,1.1625,-1.21714,-1.60804,
2026_07_06_20_34_12.001,3.866,43,0,0.768,0,0,0,0, ,0,0,0,0,0, ,15.6,-0.1,1000.9,0.5,-1.4,0.2,25,14.008,-13.1561,1001.02,1.12517,-1.23742,-1.50091,
2026_07_06_20_34_12.020,3.866,43.1,0,0.769,0,0,0,0, ,0,0,0,0,0, ,14.1,4.1,1007.6,1.2,-0.1,-0.1,25,14.0593,-12.2325,1001.22,1.1084,-1.20772,-1.4064,
2026_07_06_20_34_12.040,3.866,43,0,0.769,0,0,0,0, ,0,0,0,0,0, ,16.4,2.8,1007,1.5,-0.6,-2.3,25,14.1319,-11.2768,1001.59,1.12313,-1.15545,-1.39382,
2026_07_06_20_34_12.060,3.866,43,0,0.769,0,0,0,0, ,0,0,0,0,0, ,16.7,-2.1,1006.1,0.7,0.5,-2,25,14.2792,-10.5683,1001.89,1.12172,-1.08809,-1.4399,
2026_07_06_20_34_12.080,3.866,43,0,0.77,0,0,0,0, ,0,0,0,0,0, ,18.5,-1.5,996.2,1,0,-1.8,25,14.4816,-10.034,1001.85,1.10516,-1.00655,-1.46794,
2026_07_06_20_34_12.099,3.866,42.9,0,0.768,0,0,0,0, ,0,0,0,0,0, ,20.8,-4.2,1001,0.7,-0.3,-0.6,25,14.7965,-9.59623,1001.65,1.08961,-0.954353,-1.45161,
2026_07_06_20_34_12.119,3.866,43,0,0.77,0,0,0,0, ,0,0,0,0,0, ,19.2,-1.5,1006.5,0,-1.5,-0.3,25,15.1136,-9.18513,1001.78,1.04454,-0.951041,-1.39057,
2026_07_06_20_34_12.139,3.866,43,0,0.769,0,0,0,0, ,0,0,0,0,0, ,15,0.6,1006.7,0,-1.8,-0.9,25,15.2347,-8.65283,1002.07,0.980889,-0.993634,-1.3424,
2026_07_06_20_34_12.159,3.866,43,0,0.769,0,0,0,0, ,0,0,0,0,0, ,13.3,-2,1004.1,-0.2,-0.1,-1.6,25,15.1686,-8.16821,1002.27,0.915022,-0.990975,-1.33677,
2026_07_06_20_34_12.179,3.866,43,0,0.769,0,0,0,0, ,0,0,0,0,0, ,14.4,0.3,993.1,0.2,0.1,-2.5,25,15.0882,-7.72225,1002.05,0.859263,-0.930587,-1.38023,
2026_07_06_20_34_12.198,3.866,43,0,0.769,0,0,0,0, ,0,0,0,0,0, ,15.2,-0.4,1000.9,-0.5,-1.2,-2.1,25,15.0706,-7.25473,1001.74,0.797761,-0.907395,-1.43628,
2026_07_06_20_34_12.219,3.866,42.9,0,0.768,0,0,0,0, ,0,0,0,0,0, ,15,-1.2,1005,-1.4,-2.1,-1.9,25,15.0724,-6.86139,1001.82,0.691257,-0.952648,-1.47063,
2026_07_06_20_34_12.238,3.866,42.9,0,0.77,0,0,0,0, ,0,0,0,0,0, ,15.2,-1.8,995.4,-0.8,-1,-2.4,25,15.0741,-6.53468,1001.72,0.582102,-0.989049,-1.51203,
2026_07_06_20_34_12.261,3.866,43,0,0.769,0,0,0,0, ,0,0,0,0,0, ,20,-0.2,994.1,0.6,-0.5,-2.6,25,15.228,-6.19741,1001.29,0.540536,-0.974482,-1.57223,
2026_07_06_20_34_12.279,3.866,43,0,0.769,0,0,0,0, ,0,0,0,0,0, ,16.1,0.4,995.9,-0.4,-1,-2.6,25,15.4,-5.81366,1000.91,0.513691,-0.960803,-1.63486,
2026_07_06_20_34_12.297,3.866,42.9,0,0.769,0,0,0,0, ,0,0,0,0,0, ,18.6,4.1,998.2,-0.4,-1.1,-2.3,25,15.5188,-5.32228,1000.67,0.458013,-0.966238,-1.68454,
2026_07_06_20_34_12.318,3.866,43,0,0.769,0,0,0,0, ,0,0,0,0,0, ,10.4,-1.4,1002.4,-1.1,-1.7,-2.5,25,15.4567,-4.91569,1000.65,0.3844,-0.99267,-1.72813,
2026_07_06_20_34_12.337,3.866,42.9,0,0.77,0,0,0,0, ,0,0,0,0,0, ,15,5.7,993.6,-0.3,-0.8,-2.4,25,15.2888,-4.48513,1000.49,0.318319,-1.00835,-1.77212,
2026_07_06_20_34_12.357,3.866,42.9,0,0.769,0,0,0,0, ,0,0,0,0,0, ,17,6.2,994.2,1.2,-0.3,-2.1,25,15.3321,-3.84924,1000.09,0.326344,-0.980421,-1.80124,
2026_07_06_20_34_12.377,3.866,42.9,0,0.769,0,0,0,0, ,0,0,0,0,0, ,16.9,-0.1,1008.5,0,-1.5,-2.6,25,15.4307,-3.42881,1000.17,0.343019,-0.97552,-1.83468,
2026_07_06_20_34_12.397,3.866,42.9,0,0.768,0,0,0,0, ,0,0,0,0,0, ,20.1,2.4,1003.6,-0.5,-1.3,-2.6,25,15.6177,-3.14979,1000.52,0.306882,-1.00139,-1.88132,
2026_07_06_20_34_12.417,3.866,43,0,0.769,0,0,0,0, ,0,0,0,0,0, ,17.4,-4.2,999,-0.1,-0.6,-3.2,25,15.8086,-3.0127,1000.57,0.2699,-0.998255,-1.9434,
2026_07_06_20_34_12.437,3.866,42.9,0,0.769,0,0,0,0, ,0,0,0,0,0, ,25.5,0.4,998.5,0.7,0.3,-3.3,25,16.1524,-2.94489,1000.46,0.271735,-0.946565,-2.02302,
2026_07_06_20_34_12.456,3.866,42.9,0,0.768,0,0,0,0, ,0,0,0,0,0, ,27.5,-0.6,1007.6,-0.2,-0.5,-1.1,25,16.7829,-2.77153,1000.62,0.27041,-0.894977,-2.0338,
2026_07_06_20_34_12.476,3.866,43,0,0.769,0,0,0,0, ,0,0,0,0,0, ,19.7,1.5,1003.2,-0.7,-2.5,-1,25,17.1983,-2.57522,1000.91,0.22651,-0.931846,-1.97385,
2026_07_06_20_34_12.496,3.866,42.9,0,0.769,0,0,0,0, ,0,0,0,0,0, ,12.9,5.3,991.5,0.3,-0.9,-1.5,25,17.1436,-2.2111,1000.69,0.20052,-0.978655,-1.92974,
2026_07_06_20_34_12.516,3.866,42.8,0,0.768,0,0,0,0, ,0,0,0,0,0, ,17.2,4.3,1000.2,0.8,0.4,-2.3,25,17.016,-1.78386,1000.4,0.221816,-0.934253,-1.92793,
2026_07_06_20_34_12.538,3.866,42.9,0,0.77,0,0,0,0, ,0,0,0,0,0, ,24,4.6,1006.2,0.6,0.5,-1.7,25,17.2344,-1.40399,1000.57,0.250956,-0.8499,-1.93232,
2026_07_06_20_34_12.558,3.866,42.9,0,0.769,0,0,0,0, ,0,0,0,0,0, ,22.8,4.8,1002.1,0,-1,-0.8,25,17.6101,-1.03203,1000.79,0.253944,-0.813344,-1.89074,
2026_07_06_20_34_12.576,3.866,42.9,0,0.769,0,0,0,0, ,0,0,0,0,0, ,15.8,3.2,999.2,-0.1,-1.3,-0.5,25,17.7131,-0.725387,1000.78,0.235423,-0.833859,-1.81513,
2026_07_06_20_34_12.595,3.866,42.9,0,0.769,0,0,0,0, ,0,0,0,0,0, ,15.2,5,999.3,-0.1,-0.8,-1.8,25,17.5782,-0.43134,1000.69,0.214983,-0.84703,-1.7746,
2026_07_06_20_34_12.615,3.866,42.9,0,0.769,0,0,0,0, ,0,0,0,0,0, ,17,3,1002.3,0.1,0.2,-1.8,25,17.4882,-0.161305,1000.69,0.201882,-0.813695,-1.77615,
2026_07_06_20_34_12.634,3.866,42.9,0,0.769,0,0,0,0, ,0,0,0,0,0, ,19.7,4.6,1001,-0.4,-0.6,-2.1,25,17.5407,0.0800866,1000.75,0.180439,-0.776298,-1.78674,
2026_07_06_20_34_12.654,3.866,42.9,0,0.768,0,0,0,0, ,0,0,0,0,0, ,20.7,6.1,995.6,0.1,-0.6,-1.2,25,17.7027,0.401222,1000.6,0.160303,-0.765555,-1.77841,
2026_07_06_20_34_12.674,3.866,42.9,0,0.769,0,0,0,0, ,0,0,0,0,0, ,20.8,3,999.5,0.5,-1,-1.1,25,17.8884,0.654038,1000.42,0.168816,-0.767654,-1.74012,
2026_07_06_20_34_12.694,3.866,43,0,0.769,0,0,0,0, ,0,0,0,0,0, ,18.4,5.4,1003.4,-0.4,-1,-1.6,25,17.9927,0.87012,1000.48,0.161576,-0.781812,-1.71635,
2026_07_06_20_34_12.721,3.866,42.9,0,0.769,0,0,0,0, ,0,0,0,0,0, ,20.7,7.4,1005.6,-1,-0.5,-1.6,25,18.0876,1.2071,1000.72,0.109073,-0.779874,-1.70926,
2026_07_06_20_34_12.734,3.866,42.9,0,0.768,0,0,0,0, ,0,0,0,0,0, ,18.6,9.2,991.4,0.4,-0.5,-1.9,25,18.1828,1.63932,1000.59,0.0841455,-0.762819,-1.71174,
2026_07_06_20_34_12.753,3.866,42.9,0,0.769,0,0,0,0, ,0,0,0,0,0, ,19.8,2.8,1000,0.7,0,-1.8,25,18.2448,1.90505,1000.29,0.112534,-0.731569,-1.72016,
2026_07_06_20_34_12.773,3.866,42.9,0,0.769,0,0,0,0, ,0,0,0,0,0, ,22.7,2.3,999.7,0.4,-0.3,-1.9,25,18.4279,1.94435,1000.26,0.139192,-0.69613,-1.72808,
2026_07_06_20_34_12.793,3.866,42.9,0,0.768,0,0,0,0, ,0,0,0,0,0, ,25.6,4.6,1001.4,0.9,-0.9,-0.6,25,18.7766,2.0361,1000.28,0.170319,-0.690272,-1.69894,
2026_07_06_20_34_12.813,3.866,42.9,0,0.771,0,0,0,0, ,0,0,0,0,0, ,19.6,3.4,1004.1,0.3,-1,-1.1,25,19.0096,2.15578,1000.43,0.196503,-0.706099,-1.64721,
2026_07_06_20_34_12.833,3.866,42.9,0,0.768,0,0,0,0, ,0,0,0,0,0, ,18.7,8.6,994.9,0.4,0.1,-1.4,25,19.0182,2.39003,1000.37,0.205856,-0.690493,-1.62301,
2026_07_06_20_34_12.853,3.866,42.9,0,0.769,0,0,0,0, ,0,0,0,0,0, ,16.1,10.7,995.7,1.1,-0.8,-1.5,25,18.9196,2.83244,1000.07,0.239015,-0.669744,-1.61246,
2026_07_06_20_34_12.872,3.866,42.9,0,0.769,0,0,0,0, ,0,0,0,0,0, ,19.4,9.3,1005,0.9,-0.6,-1,25,18.8483,3.26921,1000.08,0.285388,-0.671588,-1.59038,
2026_07_06_20_34_12.892,3.866,42.9,0,0.769,0,0,0,0, ,0,0,0,0,0, ,17.7,10.8,1006.5,0.4,-0.3,-1,25,18.8301,3.68242,1000.43,0.307606,-0.658085,-1.5544,
2026_07_06_20_34_12.912,3.866,42.9,0,0.769,0,0,0,0, ,0,0,0,0,0, ,16.9,10.3,997.6,-0.2,-0.6,-1.8,25,18.7369,4.10091,1000.53,0.294955,-0.645405,-1.54499,
2026_07_06_20_34_12.938,3.866,42.9,0,0.768,0,0,0,0, ,0,0,0,0,0, ,18.6,9.8,994.7,0.2,-0.2,-2.1,25,18.6767,4.46343,1000.26,0.276981,-0.63045,-1.56967,
2026_07_06_20_34_12.958,3.866,42.9,0,0.769,0,0,0,0, ,0,0,0,0,0, ,19.8,5.2,1003.1,0.2,0,-1.6,25,18.7086,4.64847,1000.18,0.27229,-0.598126,-1.58675,
2026_07_06_20_34_12.971,3.866,42.9,0,0.769,0,0,0,0, ,0,0,0,0,0, ,22.8,7.5,1003.5,0.6,-0.5,-1.2,25,18.8665,4.75216,1000.37,0.280073,-0.576912,-1.57537,
2026_07_06_20_34_12.991,3.866,42.9,0,0.769,0,0,0,0, ,0,0,0,0,0, ,21.4,9.6,1005.4,0.3,-1.1,-0.6,25,19.0636,4.98359,1000.62,0.290428,-0.590507,-1.53422,
2026_07_06_20_34_13.011,3.866,42.9,0,0.768,0,0,0,0, ,0,0,0,0,0, ,18.1,10.8,1000.7,0.6,-1.4,-0.5,25,19.1054,5.30147,1000.76,0.300152,-0.630694,-1.47424,
2026_07_06_20_34_13.030,3.866,42.9,0,0.768,0,0,0,0, ,0,0,0,0,0, ,15.2,9.8,1000.2,0.8,-0.8,-1.1,25,18.9558,5.60606,1000.75,0.324517,-0.659293,-1.43316,
2026_07_06_20_34_13.051,3.866,42.9,0,0.768,0,0,0,0, ,0,0,0,0,0, ,14.7,8.4,997.9,0.8,-0.1,-2,25,18.7117,5.81898,1000.64,0.353492,-0.646539,-1.44028,
2026_07_06_20_34_13.072,3.866,42.9,0,0.769,0,0,0,0, ,0,0,0,0,0, ,19.4,12.4,993.8,1.2,0,-2,25,18.6104,6.09813,1000.35,0.392889,-0.610187,-1.47438,
2026_07_06_20_34_13.090,3.866,42.9,0,0.769,0,0,0,0, ,0,0,0,0,0, ,22.3,13.6,998.9,1.2,-0.7,-1.1,25,18.7469,6.51871,1000.11,0.442072,-0.594332,-1.47899,
2026_07_06_20_34_13.111,3.866,42.9,0,0.769,0,0,0,0, ,0,0,0,0,0, ,18.1,12.3,1001.8,0.6,-1.7,-1.2,25,18.8354,6.91062,1000.12,0.469977,-0.63124,-1.45894,
2026_07_06_20_34_13.129,3.866,42.9,0,0.769,0,0,0,0, ,0,0,0,0,0, ,14.6,11.1,999.3,0,-1.3,-1.4,25,18.684,7.20247,1000.15,0.459619,-0.68418,-1.44926,
2026_07_06_20_34_13.149,3.866,42.9,0,0.77,0,0,0,0, ,0,0,0,0,0, ,15.8,12.5,995.4,0.3,-0.7,-1.3,25,18.4717,7.48264,999.977,0.440752,-0.703425,-1.44321,
2026_07_06_20_34_13.169,3.866,42.8,0,0.768,0,0,0,0, ,0,0,0,0,0, ,19.1,16.1,1004,0.6,-0.7,-1.5,25,18.4094,7.89807,999.96,0.441315,-0.703217,-1.44058,
2026_07_06_20_34_13.189,3.866,42.9,0,0.768,0,0,0,0, ,0,0,0,0,0, ,20,20,1004.7,0.4,-1.3,-1.8,25,18.4789,8.5167,1000.23,0.444891,-0.721302,-1.45334,
2026_07_06_20_34_13.209,3.866,42.9,0,0.768,0,0,0,0, ,0,0,0,0,0, ,15.8,15.1,1003,-0.1,-1.4,-2.2,25,18.4436,9.06717,1000.45,0.426921,-0.759613,-1.48665,
2026_07_06_20_34_13.229,3.866,42.9,0,0.768,0,0,0,0, ,0,0,0,0,0, ,17.5,10.4,1000.6,-0.4,-0.1,-2.6,25,18.3343,9.29159,1000.53,0.385671,-0.759027,-1.54231,
2026_07_06_20_34_13.248,3.866,42.9,0,0.767,0,0,0,0, ,0,0,0,0,0, ,26,15.5,996.9,0.7,0.2,-2.3,25,18.5425,9.51452,1000.42,0.37131,-0.709727,-1.59762,
2026_07_06_20_34_13.271,3.866,42.9,0,0.768,0,0,0,0, ,0,0,0,0,0, ,26.9,15.9,1001,1.4,-0.6,-1.4,25,19.0244,9.89145,1000.33,0.412668,-0.678666,-1.613,
2026_07_06_20_34_13.288,3.866,42.9,0,0.768,0,0,0,0, ,0,0,0,0,0, ,23.4,13,1002.9,1.1,-1.5,-1.5,25,19.3976,10.1692,1000.43,0.463693,-0.701294,-1.60307,
2026_07_06_20_34_13.310,3.866,42.9,0,0.768,0,0,0,0, ,0,0,0,0,0, ,20.6,13.3,1000.3,0.3,-1,-2,25,19.5562,10.3509,1000.5,0.478093,-0.734731,-1.61202,
2026_07_06_20_34_13.328,3.866,42.9,0,0.77,0,0,0,0, ,0,0,0,0,0, ,21.1,14.4,1000.1,-0.1,-0.3,-2,25,19.6351,10.5641,1000.48,0.455053,-0.729567,-1.63566,
2026_07_06_20_34_13.349,3.866,42.8,0,0.77,0,0,0,0, ,0,0,0,0,0, ,26.3,17.5,1000.6,0.4,-0.8,-1.3,25,19.8828,10.8923,1000.48,0.436464,-0.718625,-1.63654,
2026_07_06_20_34_13.367,3.866,42.9,0,0.769,0,0,0,0, ,0,0,0,0,0, ,23.8,16.1,1002.9,0.7,-1.2,-1.3,25,20.1976,11.2523,1000.55,0.443382,-0.735771,-1.61603,
2026_07_06_20_34_13.388,3.866,42.8,0,0.768,0,0,0,0, ,0,0,0,0,0, ,22,18.1,997.9,0.5,-0.8,-1.5,25,20.3623,11.6087,1000.54,0.452926,-0.751873,-1.60286,
2026_07_06_20_34_13.407,3.866,42.9,0,0.768,0,0,0,0, ,0,0,0,0,0, ,17.2,18.1,999.5,0.1,-0.9,-1.3,25,20.3159,12.0042,1000.43,0.443607,-0.757852,-1.5905,
2026_07_06_20_34_13.428,3.866,42.9,0,0.768,0,0,0,0, ,0,0,0,0,0, ,20.8,19.1,998.6,0.7,-1.2,-1,25,20.2357,12.4061,1000.35,0.44095,-0.775655,-1.56366,
2026_07_06_20_34_13.447,3.866,42.8,0,0.768,0,0,0,0, ,0,0,0,0,0, ,20.6,20.2,1004.1,0.5,-1.2,-1.3,25,20.264,12.8476,1000.41,0.450642,-0.801514,-1.53845,
2026_07_06_20_34_13.468,3.866,42.9,0,0.769,0,0,0,0, ,0,0,0,0,0, ,19.7,20.1,1000.9,0.6,-0.8,-1.9,25,20.257,13.2926,1000.54,0.456697,-0.813609,-1.5422,
2026_07_06_20_34_13.486,3.866,42.9,0,0.769,0,0,0,0, ,0,0,0,0,0, ,19,16.9,999.2,0.7,-0.1,-2.1,25,20.2018,13.6099,1000.51,0.468476,-0.791452,-1.5701,
2026_07_06_20_34_13.506,3.866,42.8,0,0.769,0,0,0,0, ,0,0,0,0,0, ,22.8,17.4,1003.1,-0.4,-0.8,-1.8,25,20.2443,13.8256,1000.55,0.449069,-0.770644,-1.59325,
2026_07_06_20_34_13.526,3.866,42.7,0,0.769,0,0,0,0, ,0,0,0,0,0, ,26.9,24.7,999.3,0,-1.4,-1.3,25,20.525,14.2659,1000.59,0.409516,-0.790714,-1.59061,
2026_07_06_20_34_13.546,3.866,42.9,0,0.769,0,0,0,0, ,0,0,0,0,0, ,23.3,19.5,1002.3,0.5,-1.4,-1.5,25,20.8038,14.7432,1000.6,0.399796,-0.827843,-1.579,
2026_07_06_20_34_13.565,3.866,42.8,0,0.768,0,0,0,0, ,0,0,0,0,0, ,18.9,18.7,1000.2,0,-0.7,-2.3,25,20.8218,15.0087,1000.64,0.390668,-0.84138,-1.59856,
2026_07_06_20_34_13.586,3.866,42.8,0,0.769,0,0,0,0, ,0,0,0,0,0, ,24.9,25.5,1002.9,-0.6,-0.2,-2.2,25,20.8875,15.4409,1000.69,0.34858,-0.817531,-1.63826,
2026_07_06_20_34_13.605,3.866,42.9,0,0.769,0,0,0,0, ,0,0,0,0,0, ,28,23.3,1000.2,0.7,-0.6,-1.4,25,21.2265,15.9868,1000.75,0.330385,-0.792087,-1.64811,
2026_07_06_20_34_13.625,3.866,42.8,0,0.769,0,0,0,0, ,0,0,0,0,0, ,23.8,18.6,1000.4,0.4,-1.2,-1,25,21.5113,16.2893,1000.72,0.343768,-0.798663,-1.62081,
2026_07_06_20_34_13.645,3.866,42.8,0,0.771,0,0,0,0, ,0,0,0,0,0, ,21.9,17.9,995.4,0.5,-1,-1.7,25,21.5928,16.4087,1000.55,0.350242,-0.817026,-1.6043,
2026_07_06_20_34_13.666,3.866,42.8,0,0.771,0,0,0,0, ,0,0,0,0,0, ,28.3,19.7,1000.7,0.8,-0.1,-1.9,25,21.8066,16.5545,1000.39,0.368508,-0.800754,-1.61623,
2026_07_06_20_34_13.684,3.866,42.7,0,0.769,0,0,0,0, ,0,0,0,0,0, ,29.1,18.3,1010.6,0.2,-0.4,-1.9,25,22.2266,16.7035,1000.72,0.376521,-0.767193,-1.63352,
2026_07_06_20_34_13.705,3.866,42.9,0,0.769,0,0,0,0, ,0,0,0,0,0, ,27.2,26.4,1010.7,0,-1.1,-1.4,25,22.5876,17.0476,1001.32,0.35967,-0.766145,-1.63453,
2026_07_06_20_34_13.724,3.866,42.8,0,0.769,0,0,0,0, ,0,0,0,0,0, ,24.1,12.5,995.9,-0.4,-2.2,-1.1,25,22.7742,17.194,1001.44,0.325565,-0.820005,-1.61109,
2026_07_06_20_34_13.745,3.866,42.8,0,0.768,0,0,0,0, ,0,0,0,0,0, ,24.2,29.4,995.2,0.1,-2.3,-1.3,25,22.858,17.4228,1001.08,0.296586,-0.907145,-1.58604,
2026_07_06_20_34_13.763,3.866,42.8,0,0.768,0,0,0,0, ,0,0,0,0,0, ,24.7,28.8,995.8,1.3,-2.1,-1.8,25,22.9551,18.1344,1000.74,0.321169,-0.985928,-1.58385,
2026_07_06_20_34_13.787,3.866,42.8,0,0.768,0,0,0,0, ,0,0,0,0,0, ,13.7,27.2,999.1,1,-2.1,-2.7,25,22.7262,18.7356,1000.54,0.371676,-1.05382,-1.62444,
2026_07_06_20_34_13.803,3.866,42.8,0,0.769,0,0,0,0, ,0,0,0,0,0, ,20.3,23.1,997.5,-0.3,-0.7,-2.6,25,22.3773,19.1265,1000.4,0.370355,-1.07491,-1.68694,
2026_07_06_20_34_13.825,3.866,42.8,0,0.767,0,0,0,0, ,0,0,0,0,0, ,25.7,23.3,995.9,-0.2,-0.3,-2.2,25,22.4152,19.3747,1000.18,0.332552,-1.03988,-1.73039,
2026_07_06_20_34_13.843,3.866,42.9,0,0.768,0,0,0,0, ,0,0,0,0,0, ,27.7,24,1004,-0.6,-0.9,-1.4,25,22.6763,19.6352,1000.17,0.287912,-1.01307,-1.73463,
2026_07_06_20_34_13.865,3.866,42.8,0,0.768,0,0,0,0, ,0,0,0,0,0, ,22.7,22.9,1005.3,-0.6,-1.4,-0.9,25,22.8301,19.8677,1000.44,0.233805,-1.02142,-1.699,
2026_07_06_20_34_13.883,3.866,42.8,0,0.767,0,0,0,0, ,0,0,0,0,0, ,21.3,21.8,1000.6,-0.3,-1,-1.6,25,22.7795,20.019,1000.59,0.192136,-1.0323,-1.67164,
2026_07_06_20_34_13.904,3.866,42.8,0,0.768,0,0,0,0, ,0,0,0,0,0, ,23.1,23.6,999.6,-0.5,0,-2.2,25,22.7442,20.1823,1000.56,0.156052,-0.999863,-1.68556,
2026_07_06_20_34_13.924,3.866,42.8,0,0.768,0,0,0,0, ,0,0,0,0,0, ,26.1,23.3,1002.8,-1.2,-0.3,-1.9,25,22.8573,20.3815,1000.6,0.094746,-0.948075,-1.70777,
2026_07_06_20_34_13.945,3.866,42.7,0,0.767,0,0,0,0, ,0,0,0,0,0, ,26.2,22.8,1002.8,-1.8,-1.3,-1.8,25,23.058,20.5441,1000.73,-0.00243383,-0.939051,-1.71643,
2026_07_06_20_34_13.962,3.866,42.8,0,0.768,0,0,0,0, ,0,0,0,0,0, ,24.6,26,991.5,-0.7,-1.1,-1.5,25,23.2007,20.779,1000.52,-0.0784574,-0.954953,-1.71239,
2026_07_06_20_34_13.983,3.866,42.8,0,0.768,0,0,0,0, ,0,0,0,0,0, ,23.5,23.1,994.1,-0.2,-1,-2.4,25,23.2524,21.0088,1000.05,-0.101098,-0.960745,-1.72686,
2026_07_06_20_34_14.002,3.866,42.7,0,0.768,0,0,0,0, ,0,0,0,0,0, ,30.6,24.7,1001.5,-0.2,-0.3,-2.5,25,23.4838,21.185,999.909,-0.107125,-0.941809,-1.77093,
2026_07_06_20_34_14.023,3.866,42.8,0,0.769,0,0,0,0, ,0,0,0,0,0, ,30.3,25.7,1007.3,-0.4,-0.7,-1.9,25,23.9083,21.4297,1000.18,-0.118878,-0.914886,-1.79708,
2026_07_06_20_34_14.040,3.866,42.8,0,0.768,0,0,0,0, ,0,0,0,0,0, ,30.2,26.3,1003.7,-0.2,-1.4,-1.2,25,24.2948,21.7082,1000.51,-0.129915,-0.92312,-1.78202,
2026_07_06_20_34_14.061,3.866,42.8,0,0.768,0,0,0,0, ,0,0,0,0,0, ,25.8,24.9,996.4,0.3,-0.9,-1.4,25,24.5206,21.9453,1000.48,-0.118952,-0.936945,-1.75265,
2026_07_06_20_34_14.080,3.866,42.6,0,0.769,0,0,0,0, ,0,0,0,0,0, ,25.2,22.7,1005.1,0.3,0,-2.3,25,24.5803,22.0584,1000.5,-0.093422,-0.907272,-1.75858,
2026_07_06_20_34_14.102,3.866,42.8,0,0.769,0,0,0,0, ,0,0,0,0,0, ,32.2,24.2,1002.6,0.1,0,-2.6,25,24.8313,22.1432,1000.7,-0.0755416,-0.851985,-1.80071,
2026_07_06_20_34_14.120,3.866,42.7,0,0.768,0,0,0,0, ,0,0,0,0,0, ,31.9,24.7,1001.4,0.8,-0.7,-1.7,25,25.2712,22.2837,1000.78,-0.0435164,-0.821395,-1.822,
2026_07_06_20_34_14.142,3.866,42.8,0,0.768,0,0,0,0, ,0,0,0,0,0, ,28.1,24.1,997.8,1.1,-1.1,-1.3,25,25.5594,22.4127,1000.71,0.017026,-0.826185,-1.80238,
2026_07_06_20_34_14.160,3.866,42.8,0,0.767,0,0,0,0, ,0,0,0,0,0, ,27.4,23.6,998.4,0.8,-0.9,-0.9,25,25.6928,22.5003,1000.55,0.0738791,-0.836777,-1.75958,
2026_07_06_20_34_14.181,3.866,42.8,0,0.767,0,0,0,0, ,0,0,0,0,0, ,30,25.2,1000,0.7,-0.7,-1,25,25.8761,22.616,1000.47,0.11508,-0.834536,-1.71024,
2026_07_06_20_34_14.199,3.866,42.8,0,0.77,0,0,0,0, ,0,0,0,0,0, ,27.7,26.7,1000.7,1.2,-0.4,-1,25,26.0573,22.8192,1000.46,0.165958,-0.817197,-1.66696,
2026_07_06_20_34_14.220,3.866,42.7,0,0.769,0,0,0,0, ,0,0,0,0,0, ,24.2,24,1001.7,0.2,-0.8,-1,25,26.0508,22.9734,1000.5,0.198501,-0.803962,-1.62632,
2026_07_06_20_34_14.239,3.866,42.7,0,0.768,0,0,0,0, ,0,0,0,0,0, ,25.8,28.1,1000.9,-0.6,-0.5,-1.2,25,25.9867,23.1609,1000.55,0.174218,-0.79458,-1.59425,
2026_07_06_20_34_14.260,3.866,42.7,0,0.767,0,0,0,0, ,0,0,0,0,0, ,29.5,28.6,1004.1,-0.4,-0.1,-0.9,25,26.0881,23.4771,1000.67,0.133132,-0.764441,-1.56108,
2026_07_06_20_34_14.278,3.866,42.7,0,0.768,0,0,0,0, ,0,0,0,0,0, ,28.1,30.1,1003.6,-0.5,-0.7,-0.5,25,26.2534,23.835,1000.87,0.0975979,-0.742233,-1.50861,
2026_07_06_20_34_14.300,3.866,42.7,0,0.769,0,0,0,0, ,0,0,0,0,0, ,22.3,30.1,993.2,0.4,-0.9,-0.7,25,26.1892,24.2168,1000.71,0.0886036,-0.745753,-1.45324,
2026_07_06_20_34_14.318,3.866,42.7,0,0.769,0,0,0,0, ,0,0,0,0,0, ,23.6,28.8,998.7,0.2,-0.3,-1,25,25.9918,24.5357,1000.42,0.101486,-0.736871,-1.41648,
2026_07_06_20_34_14.340,3.866,42.7,0,0.768,0,0,0,0, ,0,0,0,0,0, ,24.6,26.9,1003.5,-0.5,-0.8,-1.3,25,25.8765,24.7376,1000.47,0.0861607,-0.725484,-1.40024,
2026_07_06_20_34_14.358,3.866,42.7,0,0.769,0,0,0,0, ,0,0,0,0,0, ,25.8,30.6,999.2,-0.5,-1,-1.3,25,25.8353,24.9821,1000.52,0.0504415,-0.736118,-1.39413,
2026_07_06_20_34_14.380,3.866,42.8,0,0.768,0,0,0,0, ,0,0,0,0,0, ,26.9,32.3,997.4,0.7,-0.8,-1.1,25,25.8666,25.3763,1000.38,0.0534615,-0.746105,-1.3823,
2026_07_06_20_34_14.397,3.866,42.7,0,0.768,0,0,0,0, ,0,0,0,0,0, ,19.1,28.4,1007.6,-0.8,-1.9,-1.7,25,25.692,25.6794,1000.51,0.0471568,-0.782905,-1.38338,
2026_07_06_20_34_14.419,3.866,42.7,0,0.768,0,0,0,0, ,0,0,0,0,0, ,20,27.5,1009,-2,-2.1,-2.1,25,25.3177,25.8177,1000.99,-0.0410293,-0.857072,-1.41486,
2026_07_06_20_34_14.441,3.866,42.7,0,0.769,0,0,0,0, ,0,0,0,0,0, ,20,25.1,1011.8,-4.8,-1.1,-2.9,25,24.9936,25.8471,1001.56,-0.245717,-0.902344,-1.48099,
2026_07_06_20_34_14.463,3.866,42.7,0,0.771,0,0,0,0, ,0,0,0,0,0, ,26.8,24.1,1011.8,-7,-0.5,-3.5,25,24.8965,25.7711,1002.19,-0.590274,-0.896107,-1.58574,
2026_07_06_20_34_14.477,3.866,42.7,0,0.768,0,0,0,0, ,0,0,0,0,0, ,31.4,32.3,1002.1,-6.7,-0.5,-3.3,25,25.1527,25.9191,1002.48,-0.971726,-0.871969,-1.6963,
2026_07_06_20_34_14.500,3.866,42.6,0,0.769,0,0,0,0, ,0,0,0,0,0, ,30,24.1,991.9,-3.7,-0.8,-3.1,25,25.4907,26.0581,1002.14,-1.22939,-0.858443,-1.78793,
2026_07_06_20_34_14.516,3.866,42.7,0,0.768,0,0,0,0, ,0,0,0,0,0, ,30.6,18.9,992.9,-2.3,0.1,-3.3,25,25.7838,25.7804,1001.55,-1.33728,-0.82746,-1.87398,
2026_07_06_20_34_14.537,3.866,42.7,0,0.769,0,0,0,0, ,0,0,0,0,0, ,36.1,16.9,991.5,-1.4,-0.1,-2.7,25,26.2448,25.3002,1000.98,-1.36853,-0.777037,-1.94259,
2026_07_06_20_34_14.556,3.866,42.7,0,0.768,0,0,0,0, ,0,0,0,0,0, ,36.4,14,993.5,-1.1,-1.2,-1.8,25,26.8545,24.6999,1000.46,-1.3613,-0.769295,-1.96133,
2026_07_06_20_34_14.579,3.866,42.7,0,0.769,0,0,0,0, ,0,0,0,0,0, ,34.5,21.4,995.7,-1,-1.7,-0.9,25,27.3783,24.2734,1000.1,-1.34233,-0.810776,-1.92407,
2026_07_06_20_34_14.596,3.866,42.6,0,0.768,0,0,0,0, ,0,0,0,0,0, ,32.4,18.3,999.5,-1.1,-2.3,-1.3,25,27.7483,24.0038,999.952,-1.32452,-0.883244,-1.87386,
2026_07_06_20_34_14.618,3.866,42.7,0,0.768,0,0,0,0, ,0,0,0,0,0, ,31.2,18.4,1002.5,-0.5,-1,-1.3,25,27.9952,23.6593,1000.02,-1.29256,-0.929968,-1.83889,
2026_07_06_20_34_14.635,3.866,42.7,0,0.768,0,0,0,0, ,0,0,0,0,0, ,30.2,15.7,1003,-0.8,-0.1,-2.1,25,28.16,23.2565,1000.18,-1.2534,-0.906814,-1.83042,
2026_07_06_20_34_14.659,3.866,42.7,0,0.768,0,0,0,0, ,0,0,0,0,0, ,31.2,12.8,1006.4,-2.3,0.4,-2.1,25,28.3148,22.7077,1000.46,-1.27148,-0.842414,-1.84685,
2026_07_06_20_34_14.674,3.866,42.7,0,0.767,0,0,0,0, ,0,0,0,0,0, ,32.3,10.8,1009,-5.6,-0.3,-2,25,28.5241,22.043,1000.9,-1.4347,-0.788033,-1.85923,
2026_07_06_20_34_14.697,3.866,42.7,0,0.768,0,0,0,0, ,0,0,0,0,0, ,28.3,19.7,998.2,-8.1,-0.4,-1.5,25,28.6324,21.6291,1001.06,-1.76469,-0.76134,-1.85257,
2026_07_06_20_34_14.716,3.866,42.6,0,0.768,0,0,0,0, ,0,0,0,0,0, ,26.8,27.4,992.6,-5.4,-0.8,-0.6,25,28.5664,21.7461,1000.72,-2.06849,-0.751509,-1.80367,
2026_07_06_20_34_14.740,3.866,42.6,0,0.77,0,0,0,0, ,0,0,0,0,0, ,21.7,18.6,992.1,-1.8,-0.3,-1.6,25,28.3034,21.8225,1000.21,-2.16181,-0.739229,-1.76079,
2026_07_06_20_34_14.754,3.866,42.7,0,0.769,0,0,0,0, ,0,0,0,0,0, ,25.7,14.5,996.8,-0.1,0.2,-2.3,25,28.0229,21.5012,999.858,-2.08797,-0.697229,-1.77232,
2026_07_06_20_34_14.776,3.866,42.7,0,0.769,0,0,0,0, ,0,0,0,0,0, ,28.9,7.4,1001.9,0,0,-2.3,25,27.9788,20.8583,999.827,-1.96378,-0.648648,-1.80447,
2026_07_06_20_34_14.794,3.866,42.6,0,0.768,0,0,0,0, ,0,0,0,0,0, ,28,4.1,1007.2,-0.9,-0.8,-1.8,25,28.0075,19.9376,1000.11,-1.87153,-0.633496,-1.81944,
2026_07_06_20_34_14.817,3.866,42.6,0,0.769,0,0,0,0, ,0,0,0,0,0, ,32.9,13.3,1002.3,-1,-0.9,-1.2,25,28.1564,19.2528,1000.4,-1.81538,-0.646689,-1.79997,
2026_07_06_20_34_14.833,3.866,42.7,0,0.771,0,0,0,0, ,0,0,0,0,0, ,28.5,15.6,993.1,1,-1.2,-1.2,25,28.3114,18.9601,1000.23,-1.70475,-0.671266,-1.76341,
2026_07_06_20_34_14.856,3.866,42.7,0,0.769,0,0,0,0, ,0,0,0,0,0, ,26.7,10.2,995.3,0.9,-0.1,-1.9,25,28.268,18.5908,999.865,-1.54298,-0.66997,-1.7504,
2026_07_06_20_34_14.873,3.866,42.7,0,0.768,0,0,0,0, ,0,0,0,0,0, ,30.8,9,1004.2,-1.1,-0.4,-2.4,25,28.2974,18.043,999.858,-1.45505,-0.644378,-1.77475,
2026_07_06_20_34_14.896,3.866,42.7,0,0.769,0,0,0,0, ,0,0,0,0,0, ,32.8,13.6,999.1,-1.5,-1.3,-1.7,25,28.5108,17.6321,999.967,-1.4456,-0.656908,-1.79153,
2026_07_06_20_34_14.912,3.866,42.6,0,0.767,0,0,0,0, ,0,0,0,0,0, ,27.8,13.6,994.1,-0.3,-1.2,-1.6,25,28.6199,17.3864,999.762,-1.41235,-0.69305,-1.7829,
2026_07_06_20_34_14.935,3.866,42.6,0,0.769,0,0,0,0, ,0,0,0,0,0, ,28.5,13.5,994,1,-0.3,-1.6,25,28.5912,17.1526,999.414,-1.30496,-0.69652,-1.77176,
2026_07_06_20_34_14.952,3.866,42.6,0,0.768,0,0,0,0, ,0,0,0,0,0, ,28,10.9,999,1.8,-0.3,-1.7,25,28.5704,16.8508,999.236,-1.14012,-0.672357,-1.76434,
2026_07_06_20_34_14.975,3.866,42.6,0,0.768,0,0,0,0, ,0,0,0,0,0, ,30.5,9.5,1007.2,0.5,-0.6,-1.6,25,28.6118,16.4455,999.472,-1.00057,-0.658807,-1.75737,
2026_07_06_20_34_14.997,3.866,42.6,0,0.768,0,0,0,0, ,0,0,0,0,0, ,33,19.2,1003.2,0,-1.3,-1.7,25,28.8031,16.3178,999.821,-0.924363,-0.676552,-1.75083,
2026_07_06_20_34_15.021,3.866,42.6,0,0.767,0,0,0,0, ,0,0,0,0,0, ,33.4,21.4,993.8,1.8,-1.1,-0.9,25,29.071,16.5605,999.74,-0.813191,-0.70845,-1.72336,
2026_07_06_20_34_15.031,3.866,42.5,0,0.768,0,0,0,0, ,0,0,0,0,0, ,25.8,15.7,1002.6,1.6,-0.9,-1.4,25,29.1032,16.6817,999.647,-0.660044,-0.726216,-1.68842,
2026_07_06_20_34_15.054,3.866,42.6,0,0.769,0,0,0,0, ,0,0,0,0,0, ,28.8,12.6,1002.1,0,-0.5,-2.2,25,28.9934,16.5274,999.811,-0.571072,-0.724618,-1.69522,
2026_07_06_20_34_15.071,3.866,42.7,0,0.769,0,0,0,0, ,0,0,0,0,0, ,31.4,12.4,1006.4,-1.9,-0.3,-2.8,25,29.0608,16.282,1000.08,-0.594163,-0.704837,-1.74426,
2026_07_06_20_34_15.093,3.866,42.6,0,0.769,0,0,0,0, ,0,0,0,0,0, ,31.6,11.1,1002.3,-2.9,-0.4,-2.2,25,29.2094,16.0058,1000.34,-0.704206,-0.683214,-1.79031,
2026_07_06_20_34_15.110,3.866,42.5,0,0.769,0,0,0,0, ,0,0,0,0,0, ,36.8,16.7,998.9,-2.6,-0.3,-1.5,25,29.5135,15.8775,1000.36,-0.828872,-0.662909,-1.79395,
2026_07_06_20_34_15.134,3.866,42.7,0,0.769,0,0,0,0, ,0,0,0,0,0, ,37.7,17.8,996.2,-1.6,-0.5,-1,25,29.985,15.9612,1000.19,-0.906331,-0.646888,-1.7608,
2026_07_06_20_34_15.150,3.866,42.7,0,0.767,0,0,0,0, ,0,0,0,0,0, ,34.6,18.5,997.5,-0.8,-1.5,-0.8,25,30.3607,16.0945,999.983,-0.924227,-0.668406,-1.70835,
2026_07_06_20_34_15.173,3.866,42.6,0,0.768,0,0,0,0, ,0,0,0,0,0, ,30.8,16.7,996.8,-0.1,-1.7,-1,25,30.5032,16.1863,999.811,-0.895329,-0.725175,-1.65909,
2026_07_06_20_34_15.189,3.866,42.6,0,0.768,0,0,0,0, ,0,0,0,0,0, ,28.5,14.6,996.3,0.5,-0.7,-0.7,25,30.4512,16.1536,999.612,-0.828582,-0.754109,-1.60978,
2026_07_06_20_34_15.213,3.866,42.6,0,0.768,0,0,0,0, ,0,0,0,0,0, ,33.2,14.4,1002.3,0.1,-0.6,-1.3,25,30.4755,16.0528,999.593,-0.759809,-0.747765,-1.57263,
2026_07_06_20_34_15.230,3.866,42.6,0,0.768,0,0,0,0, ,0,0,0,0,0, ,35.6,15.5,1004.2,-0.3,-1,-1.2,25,30.7147,15.9856,999.816,-0.719602,-0.750948,-1.55297,
2026_07_06_20_34_15.254,3.866,42.6,0,0.768,0,0,0,0, ,0,0,0,0,0, ,30.7,17.9,997.4,1,-1.4,-0.6,25,30.8631,16.0292,999.876,-0.654423,-0.778312,-1.51318,
2026_07_06_20_34_15.269,3.866,42.7,0,0.768,0,0,0,0, ,0,0,0,0,0, ,25.8,13,1001.8,0.9,-0.7,-1.1,25,30.7038,15.9939,999.859,-0.556654,-0.794868,-1.47276,
2026_07_06_20_34_15.293,3.866,42.6,0,0.769,0,0,0,0, ,0,0,0,0,0, ,25.8,13.6,1003.1,-0.3,-0.2,-1.8,25,30.405,15.8297,1000.02,-0.504451,-0.773853,-1.47138,
2026_07_06_20_34_15.309,3.866,42.6,0,0.768,0,0,0,0, ,0,0,0,0,0, ,30.3,17.7,999.6,-1,-0.7,-1.8,25,30.2615,15.8188,1000.1,-0.513321,-0.754118,-1.4914,
2026_07_06_20_34_15.332,3.866,42.6,0,0.768,0,0,0,0, ,0,0,0,0,0, ,31,21.2,998,-0.3,-1,-1.5,25,30.2852,16.04,1000.02,-0.521649,-0.759961,-1.50107,
2026_07_06_20_34_15.348,3.866,42.6,0,0.769,0,0,0,0, ,0,0,0,0,0, ,28.4,17.3,995.8,0.3,-1.1,-1.6,25,30.2495,16.2356,999.829,-0.489861,-0.777635,-1.50405,
2026_07_06_20_34_15.374,3.866,42.5,0,0.768,0,0,0,0, ,0,0,0,0,0, ,27.3,13.3,996.2,1.2,-0.4,-1.7,25,30.1033,16.1786,999.596,-0.414307,-0.775951,-1.51294,
2026_07_06_20_34_15.388,3.866,42.6,0,0.768,0,0,0,0, ,0,0,0,0,0, ,32.9,15.7,1002.6,0.5,-0.5,-2.3,25,30.1031,16.0763,999.584,-0.337264,-0.756088,-1.54262,
2026_07_06_20_34_15.411,3.866,42.6,0,0.769,0,0,0,0, ,0,0,0,0,0, ,36.4,17.5,1004.2,0.6,-0.9,-2.1,25,30.3802,16.1082,999.816,-0.283196,-0.752671,-1.58268,
2026_07_06_20_34_15.427,3.866,42.5,0,0.769,0,0,0,0, ,0,0,0,0,0, ,34.9,17.7,1002.8,0.2,-1.2,-1.6,25,30.7013,16.1992,1000.04,-0.241564,-0.770789,-1.59897,
2026_07_06_20_34_15.450,3.866,42.5,0,0.768,0,0,0,0, ,0,0,0,0,0, ,35.6,20.6,999.3,0,-0.8,-1.4,25,30.9785,16.379,1000.1,-0.22075,-0.784757,-1.59294,
2026_07_06_20_34_15.467,3.866,42.6,0,0.768,0,0,0,0, ,0,0,0,0,0, ,33.3,19.1,997.8,0,-1,-1.5,25,31.19,16.5905,1000.01,-0.207298,-0.791779,-1.58423,
2026_07_06_20_34_15.490,3.866,42.6,0,0.769,0,0,0,0, ,0,0,0,0,0, ,31.3,18.3,997.3,0,-1.5,-2.2,25,31.2577,16.719,999.858,-0.194666,-0.819702,-1.60042,
2026_07_06_20_34_15.506,3.866,42.6,0,0.768,0,0,0,0, ,0,0,0,0,0, ,33.2,13.9,997.9,0.2,-0.3,-2.3,25,31.3181,16.6813,999.72,-0.176709,-0.824595,-1.64001,
2026_07_06_20_34_15.530,3.866,42.6,0,0.767,0,0,0,0, ,0,0,0,0,0, ,38.2,12.4,1006.4,0,-0.1,-2,25,31.5852,16.4661,999.868,-0.159847,-0.786534,-1.67109,
2026_07_06_20_34_15.546,3.866,42.6,0,0.769,0,0,0,0, ,0,0,0,0,0, ,40.6,16.1,997.4,-0.1,-1,-1.5,25,32.0614,16.3311,999.992,-0.153154,-0.77212,-1.67589,
2026_07_06_20_34_15.570,3.866,42.5,0,0.768,0,0,0,0, ,0,0,0,0,0, ,34.5,19.8,996.9,-0.4,-1.6,-0.9,25,32.3958,16.4297,999.819,-0.159055,-0.804288,-1.64689,
2026_07_06_20_34_15.585,3.866,42.6,0,0.768,0,0,0,0, ,0,0,0,0,0, ,28.8,20.5,1002.3,-0.4,-1.2,-1.2,25,32.3504,16.6564,999.806,-0.173738,-0.840589,-1.61052,
2026_07_06_20_34_15.617,3.866,42.6,0,0.769,0,0,0,0, ,0,0,0,0,0, ,28.9,24.1,1008.4,-1.3,-0.3,-2.2,25,32.1371,17.0003,1000.14,-0.214948,-0.835069,-1.61597,
2026_07_06_20_34_15.625,3.866,42.6,0,0.768,0,0,0,0, ,0,0,0,0,0, ,30.8,26.3,999.7,-1.3,-0.7,-2.3,25,31.9977,17.5,1000.38,-0.281068,-0.814651,-1.65461,
2026_07_06_20_34_15.650,3.866,42.6,0,0.769,0,0,0,0, ,0,0,0,0,0, ,33,23.8,999.7,-0.6,-0.6,-2,25,31.9918,17.9601,1000.34,-0.321831,-0.804617,-1.6848,
2026_07_06_20_34_15.665,3.866,42.5,0,0.768,0,0,0,0, ,0,0,0,0,0, ,35.6,20.9,1002.9,-0.1,-0.6,-1.5,25,32.1324,18.2276,1000.4,-0.323547,-0.792148,-1.68877,
2026_07_06_20_34_15.690,3.866,42.5,0,0.768,0,0,0,0, ,0,0,0,0,0, ,33.3,15.1,1001.4,-0.4,-1.3,-1.6,25,32.2736,18.2137,1000.51,-0.319066,-0.801767,-1.68031,
2026_07_06_20_34_15.704,3.866,42.5,0,0.768,0,0,0,0, ,0,0,0,0,0, ,32.9,18.1,996.5,-0.1,-0.8,-1.8,25,32.324,18.1154,1000.41,-0.314857,-0.816894,-1.68151,
2026_07_06_20_34_15.728,3.866,42.6,0,0.768,0,0,0,0, ,0,0,0,0,0, ,33.4,15.3,998.1,0.7,-0.9,-1.6,25,32.3743,18.0291,1000.22,-0.277389,-0.818911,-1.68264,
2026_07_06_20_34_15.743,3.866,42.5,0,0.768,0,0,0,0, ,0,0,0,0,0, ,34.1,16.2,1002.4,0.5,-1.3,-1.8,25,32.4582,17.8903,1000.22,-0.223923,-0.83604,-1.6837,
2026_07_06_20_34_15.768,3.866,42.5,0,0.769,0,0,0,0, ,0,0,0,0,0, ,33.6,17.8,998.6,0.2,-0.8,-1.9,25,32.543,17.836,1000.24,-0.18895,-0.849078,-1.69383,
2026_07_06_20_34_15.783,3.866,42.6,0,0.768,0,0,0,0, ,0,0,0,0,0, ,34.7,18.1,995.4,0.8,-0.4,-1.9,25,32.6409,17.843,1000.04,-0.146967,-0.8339,-1.7064,
2026_07_06_20_34_15.806,3.866,42.6,0,0.768,0,0,0,0, ,0,0,0,0,0, ,36.6,17.8,1000.2,0.8,-0.4,-1.9,25,32.8243,17.8495,999.906,-0.0892611,-0.807459,-1.71819,
2026_07_06_20_34_15.823,3.866,42.6,0,0.768,0,0,0,0, ,0,0,0,0,0, ,36,20.6,1000.9,0,-1,-1.6,25,33.0361,17.9318,999.945,-0.0594468,-0.800911,-1.72013,
2026_07_06_20_34_15.848,3.866,42.6,0,0.768,0,0,0,0, ,0,0,0,0,0, ,35.2,20.8,1002.6,-0.7,-1.2,-1.6,25,33.1923,18.1005,1000.05,-0.0771524,-0.819137,-1.71281,
2026_07_06_20_34_15.862,3.866,42.5,0,0.768,0,0,0,0, ,0,0,0,0,0, ,35.8,24,997.3,-0.1,-0.6,-1.6,25,33.3329,18.3625,1000.05,-0.0968259,-0.824064,-1.70594,
2026_07_06_20_34_15.887,3.866,42.7,0,0.768,0,0,0,0, ,0,0,0,0,0, ,33.2,21.2,994,0.5,-0.4,-1.6,25,33.4041,18.6207,999.78,-0.0787381,-0.804317,-1.69948,
2026_07_06_20_34_15.908,3.866,42.6,0,0.769,0,0,0,0, ,0,0,0,0,0, ,34.9,23.4,1003.4,-0.1,-0.7,-2,25,33.4434,18.8449,999.715,-0.0617525,-0.788819,-1.70561,
2026_07_06_20_34_15.933,3.866,42.6,0,0.767,0,0,0,0, ,0,0,0,0,0, ,33.4,24.2,1004.8,-0.3,-1.4,-2,25,33.4865,19.1468,999.982,-0.0701769,-0.804735,-1.72355,
2026_07_06_20_34_15.942,3.866,42.5,0,0.768,0,0,0,0, ,0,0,0,0,0, ,36.1,26.6,1011.8,-1.1,-1,-2,25,33.5635,19.5279,1000.49,-0.108557,-0.828822,-1.74039,
2026_07_06_20_34_15.966,3.866,42.5,0,0.768,0,0,0,0, ,0,0,0,0,0, ,34.4,23.3,999.1,0,-0.7,-1.8,25,33.6662,19.8583,1000.79,-0.135457,-0.830112,-1.75012,
2026_07_06_20_34_15.982,3.866,42.5,0,0.768,0,0,0,0, ,0,0,0,0,0, ,33.2,15,1008.6,-1,-0.1,-2.5,25,33.6744,19.8151,1000.98,-0.157672,-0.803902,-1.77449,
2026_07_06_20_34_16.005,3.866,42.5,0,0.769,0,0,0,0, ,0,0,0,0,0, ,42.8,24.9,999.8,-0.6,0,-2.4,25,33.938,19.8234,1001.17,-0.196813,-0.757961,-1.81565,
2026_07_06_20_34_16.021,3.866,42.5,0,0.769,0,0,0,0, ,0,0,0,0,0, ,40.6,25.1,992.4,1.3,-0.6,-1.6,25,34.411,20.1388,1000.86,-0.163492,-0.730054,-1.82688,
2026_07_06_20_34_16.046,3.866,42.5,0,0.769,0,0,0,0, ,0,0,0,0,0, ,32.7,16.3,1007.4,-0.3,-1.1,-1.8,25,34.5474,20.173,1000.81,-0.12306,-0.737363,-1.81915,
2026_07_06_20_34_16.061,3.866,42.5,0,0.769,0,0,0,0, ,0,0,0,0,0, ,36,24.5,989.9,0,-0.4,-1.6,25,34.5354,20.1868,1000.67,-0.124702,-0.738133,-1.81189,
2026_07_06_20_34_16.087,3.866,42.6,0,0.769,0,0,0,0, ,0,0,0,0,0, ,36.9,24.5,993.6,1.4,-0.2,-1.3,25,34.6521,20.4497,1000.13,-0.0744468,-0.711435,-1.78984,
2026_07_06_20_34_16.100,3.866,42.6,0,0.769,0,0,0,0, ,0,0,0,0,0, ,31.8,17,1003,0,-1,-1.7,25,34.6337,20.468,1000.02,-0.027254,-0.704644,-1.77218,
2026_07_06_20_34_16.126,3.866,42.5,0,0.768,0,0,0,0, ,0,0,0,0,0, ,34,22.2,1000.4,-1.3,-0.6,-2,25,34.528,20.4151,1000.12,-0.0652025,-0.710455,-1.77692,
2026_07_06_20_34_16.139,3.866,42.6,0,0.767,0,0,0,0, ,0,0,0,0,0, ,35.5,28.3,995.1,0,-0.7,-1.7,25,34.5415,20.7097,999.977,-0.100839,-0.706771,-1.78137,
2026_07_06_20_34_16.164,3.866,42.4,0,0.769,0,0,0,0, ,0,0,0,0,0, ,34.3,25.8,1004.3,-0.4,-0.7,-1.8,25,34.5634,21.0961,999.96,-0.106881,-0.706358,-1.77946,
2026_07_06_20_34_16.179,3.866,42.5,0,0.77,0,0,0,0, ,0,0,0,0,0, ,31.6,24.5,1005.3,-1.5,-1.2,-2.2,25,34.4651,21.3431,1000.26,-0.158259,-0.721205,-1.7929,
2026_07_06_20_34_16.204,3.866,42.5,0,0.769,0,0,0,0, ,0,0,0,0,0, ,33,29.7,995.9,-0.9,-0.8,-2.4,25,34.3331,21.6939,1000.28,-0.22174,-0.738194,-1.8238,
2026_07_06_20_34_16.224,3.866,42.6,0,0.769,0,0,0,0, ,0,0,0,0,0, ,35.1,28.1,994.6,1.1,-0.1,-2.1,25,34.3159,22.133,999.97,-0.202134,-0.720632,-1.84977,
2026_07_06_20_34_16.249,3.866,42.5,0,0.769,0,0,0,0, ,0,0,0,0,0, ,36.8,20.8,1006.2,1.3,0,-2.1,25,34.4155,22.2742,999.996,-0.116691,-0.679766,-1.86502,
2026_07_06_20_34_16.259,3.866,42.5,0,0.769,0,0,0,0, ,0,0,0,0,0, ,38.6,22.7,998.6,1.5,-0.3,-2.1,25,34.6156,22.2423,1000.14,-0.024268,-0.647483,-1.87934,
2026_07_06_20_34_16.284,3.866,42.5,0,0.769,0,0,0,0, ,0,0,0,0,0, ,36.7,21.4,1000.8,1.6,-0.7,-2,25,34.8005,22.2306,1000.12,0.071664,-0.638496,-1.88974,
2026_07_06_20_34_16.298,3.866,42.5,0,0.768,0,0,0,0, ,0,0,0,0,0, ,39.3,25.7,996.5,1.5,-0.6,-1.6,25,34.9955,22.311,1000.03,0.16175,-0.639197,-1.88427,
2026_07_06_20_34_16.324,3.866,42.5,0,0.768,0,0,0,0, ,0,0,0,0,0, ,41.6,25,1000.7,1.2,-0.9,-1.1,25,35.3279,22.4962,999.939,0.234159,-0.645949,-1.85171,
2026_07_06_20_34_16.338,3.866,42.5,0,0.769,0,0,0,0, ,0,0,0,0,0, ,36.7,24.5,1003.4,0.1,-1.5,-0.8,25,35.5608,22.6335,1000.07,0.259499,-0.679711,-1.79677,
2026_07_06_20_34_16.365,3.866,42.5,0,0.769,0,0,0,0, ,0,0,0,0,0, ,31.6,23.6,997.6,-0.8,-0.8,-1.2,25,35.4748,22.7198,1000.09,0.222358,-0.70837,-1.74821,
2026_07_06_20_34_16.378,3.866,42.5,0,0.769,0,0,0,0, ,0,0,0,0,0, ,36,31.4,999.7,-1,0.5,-1.6,25,35.3728,23.0111,1000.01,0.153964,-0.674344,-1.72699,
2026_07_06_20_34_16.403,3.866,42.4,0,0.768,0,0,0,0, ,0,0,0,0,0, ,37.8,32.3,1001.5,-0.5,-0.3,-1.4,25,35.4658,23.5497,1000.04,0.098879,-0.627157,-1.71316,
2026_07_06_20_34_16.417,3.866,42.5,0,0.769,0,0,0,0, ,0,0,0,0,0, ,31.7,26.9,1001.2,-0.6,-1.1,-1.7,25,35.4222,23.9184,1000.12,0.0593379,-0.631596,-1.70322,
2026_07_06_20_34_16.443,3.866,42.5,0,0.769,0,0,0,0, ,0,0,0,0,0, ,30.2,21.7,999,-1.3,0,-2.6,25,35.1497,23.9417,1000.12,-0.00216861,-0.626624,-1.73044,
2026_07_06_20_34_16.456,3.866,42.5,0,0.768,0,0,0,0, ,0,0,0,0,0, ,40.2,24.4,1002.1,-1.4,0.6,-3.2,25,35.1527,23.8873,1000.15,-0.0843021,-0.570158,-1.80171,
2026_07_06_20_34_16.481,3.866,42.5,0,0.769,0,0,0,0, ,0,0,0,0,0, ,44.3,29.5,997,-0.4,0.2,-2.8,25,35.5852,24.074,1000.11,-0.134009,-0.511039,-1.87473,
2026_07_06_20_34_16.497,3.866,42.5,0,0.768,0,0,0,0, ,0,0,0,0,0, ,43.5,27.7,998.9,0.1,-1.3,-1.2,25,36.0919,24.3498,999.979,-0.134983,-0.513413,-1.88237,
2026_07_06_20_34_16.522,3.866,42.5,0,0.768,0,0,0,0, ,0,0,0,0,0, ,36.9,27.5,1000.1,0.1,-1.4,-0.9,25,36.3423,24.5478,999.95,-0.120664,-0.564393,-1.83165,
2026_07_06_20_34_16.536,3.866,42.4,0,0.771,0,0,0,0, ,0,0,0,0,0, ,33.3,28.8,1000.4,-0.3,-0.5,-1.3,25,36.2666,24.7673,999.968,-0.119405,-0.587891,-1.78706,
2026_07_06_20_34_16.561,3.866,42.5,0,0.768,0,0,0,0, ,0,0,0,0,0, ,34.7,33.5,1004,-0.5,-0.7,-1.8,25,36.1284,25.1563,1000.1,-0.136503,-0.588628,-1.77262,
2026_07_06_20_34_16.576,3.866,42.4,0,0.771,0,0,0,0, ,0,0,0,0,0, ,34,33,1002.5,-0.6,-0.2,-1.6,25,36.0201,25.6495,1000.3,-0.161701,-0.580181,-1.76819,
2026_07_06_20_34_16.602,3.866,42.5,0,0.769,0,0,0,0, ,0,0,0,0,0, ,36.2,30.5,998.6,0,-0.5,-1.5,25,35.964,26.0212,1000.31,-0.170128,-0.566154,-1.75489,
2026_07_06_20_34_16.615,3.866,42.5,0,0.768,0,0,0,0, ,0,0,0,0,0, ,33.6,27.3,991.6,0.4,-0.8,-1.8,25,35.8992,26.1967,999.994,-0.147574,-0.571264,-1.7485,
2026_07_06_20_34_16.642,3.866,42.5,0,0.769,0,0,0,0, ,0,0,0,0,0, ,36.7,21.7,1004.2,-0.2,-0.1,-2.3,25,35.8535,26.0933,999.866,-0.132487,-0.563874,-1.76687,
2026_07_06_20_34_16.654,3.866,42.5,0,0.769,0,0,0,0, ,0,0,0,0,0, ,41.1,23.9,1004.5,-0.5,0,-2,25,36.0392,25.8926,1000.14,-0.145742,-0.53256,-1.79022,
2026_07_06_20_34_16.680,3.866,42.5,0,0.769,0,0,0,0, ,0,0,0,0,0, ,40,26.7,1000.7,-0.3,-0.9,-1.2,25,36.314,25.8565,1000.29,-0.161236,-0.527529,-1.77863,
2026_07_06_20_34_16.694,3.866,42.5,0,0.769,0,0,0,0, ,0,0,0,0,0, ,37.5,23.5,995.8,0.1,-0.7,-1.4,25,36.4625,25.8104,1000.16,-0.157504,-0.544133,-1.74946,
2026_07_06_20_34_16.720,3.866,42.4,0,0.768,0,0,0,0, ,0,0,0,0,0, ,37.9,28.4,998,0,0.1,-2,25,36.5379,25.8189,999.966,-0.144859,-0.529256,-1.74645,
2026_07_06_20_34_16.733,3.866,42.5,0,0.767,0,0,0,0, ,0,0,0,0,0, ,37.2,27,996.3,0.3,-0.2,-1,25,36.5996,25.9335,999.794,-0.126891,-0.500051,-1.73143,
2026_07_06_20_34_16.760,3.866,42.4,0,0.769,0,0,0,0, ,0,0,0,0,0, ,33.4,27.5,1002.3,-0.8,-1.4,-1.3,25,36.5204,26.0137,999.764,-0.134393,-0.518329,-1.696,
2026_07_06_20_34_16.773,3.866,42.4,0,0.768,0,0,0,0, ,0,0,0,0,0, ,33.2,29.7,991.8,-0.2,-0.9,-1.4,25,36.3241,26.1713,999.599,-0.156673,-0.556822,-1.67492,
2026_07_06_20_34_16.800,3.866,42.4,0,0.769,0,0,0,0, ,0,0,0,0,0, ,32.9,30.6,992.5,0.6,-0.5,-1.7,25,36.1246,26.4138,999.145,-0.134938,-0.565547,-1.6673,
2026_07_06_20_34_16.812,3.866,42.5,0,0.769,0,0,0,0, ,0,0,0,0,0, ,34.6,32.2,996.4,0.9,-1,-1.6,25,35.9799,26.7176,998.859,-0.0810119,-0.576787,-1.66625,
2026_07_06_20_34_16.838,3.866,42.5,0,0.769,0,0,0,0, ,0,0,0,0,0, ,34.4,34.1,1000.1,1.1,-1.8,-1.8,25,35.8897,27.1096,998.822,-0.0151377,-0.626951,-1.66831,
2026_07_06_20_34_16.852,3.866,42.4,0,0.768,0,0,0,0, ,0,0,0,0,0, ,33.5,32.5,1009.7,0.3,-1.3,-1.6,25,35.7715,27.4868,999.192,0.028441,-0.6832,-1.67024,
2026_07_06_20_34_16.879,3.866,42.5,0,0.769,0,0,0,0, ,0,0,0,0,0, ,35.5,30.8,1011.9,-1.1,-0.9,-2.6,25,35.694,27.7405,999.9,0.00233284,-0.708598,-1.69643,
2026_07_06_20_34_16.897,3.866,42.4,0,0.769,0,0,0,0, ,0,0,0,0,0, ,42.7,35.6,999.2,0,0.3,-2.2,25,35.9016,28.0732,1000.24,-0.0313249,-0.683699,-1.7393,
2026_07_06_20_34_16.924,3.866,42.4,0,0.767,0,0,0,0, ,0,0,0,0,0, ,41.6,26.8,1004.8,0,-0.2,-2.4,25,36.2824,28.2638,1000.35,-0.0294161,-0.63899,-1.77347,
2026_07_06_20_34_16.932,3.866,42.4,0,0.769,0,0,0,0, ,0,0,0,0,0, ,41.3,26.8,1005.7,-1.3,-0.2,-1.9,25,36.5973,28.1746,1000.65,-0.0672329,-0.612239,-1.79641,
2026_07_06_20_34_16.958,3.866,42.4,0,0.769,0,0,0,0, ,0,0,0,0,0, ,41,26.7,995.3,-1.2,-0.6,-1.5,25,36.8747,28.0878,1000.64,-0.139308,-0.599305,-1.79054,
2026_07_06_20_34_16.971,3.866,42.4,0,0.768,0,0,0,0, ,0,0,0,0,0, ,41.2,30.5,994.8,-0.6,-0.4,-1.1,25,37.1322,28.119,1000.3,-0.185662,-0.593254,-1.76065,
2026_07_06_20_34_16.997,3.866,42.4,0,0.769,0,0,0,0, ,0,0,0,0,0, ,38.5,30.2,992.3,0.2,-0.8,-0.7,25,37.2978,28.2549,999.888,-0.186536,-0.593665,-1.7082,
2026_07_06_20_34_17.011,3.866,42.4,0,0.769,0,0,0,0, ,0,0,0,0,0, ,32.9,35.5,992.6,0.7,-1.2,-0.8,25,37.2004,28.5349,999.435,-0.147747,-0.618426,-1.64981,
2026_07_06_20_34_17.037,3.866,42.4,0,0.769,0,0,0,0, ,0,0,0,0,0, ,32.7,27.3,999.2,0.6,-1,-1.9,25,36.9323,28.7095,999.22,-0.0991345,-0.647772,-1.63154,
2026_07_06_20_34_17.050,3.866,42.4,0,0.769,0,0,0,0, ,0,0,0,0,0, ,31.8,32.8,1004.8,-0.1,-0.4,-2.3,25,36.6469,28.7912,999.389,-0.0778591,-0.650955,-1.66009,
2026_07_06_20_34_17.076,3.866,42.4,0,0.769,0,0,0,0, ,0,0,0,0,0, ,33.3,31.8,1001.2,-0.3,-0.5,-2.1,25,36.3973,29.005,999.609,-0.0853021,-0.638709,-1.69299,
2026_07_06_20_34_17.090,3.866,42.5,0,0.769,0,0,0,0, ,0,0,0,0,0, ,33.8,32.1,998.9,-0.5,-0.9,-1.8,25,36.2238,29.1845,999.636,-0.104479,-0.642444,-1.70865,
2026_07_06_20_34_17.117,3.866,42.4,0,0.769,0,0,0,0, ,0,0,0,0,0, ,34.3,30.8,1003.6,-0.8,-0.6,-2.1,25,36.0913,29.3225,999.734,-0.137722,-0.648998,-1.72336,
2026_07_06_20_34_17.130,3.866,42.4,0,0.768,0,0,0,0, ,0,0,0,0,0, ,36.4,36,1001.9,-0.9,-0.7,-2.4,25,36.0461,29.571,999.918,-0.181126,-0.649059,-1.75545,
2026_07_06_20_34_17.158,3.866,42.4,0,0.768,0,0,0,0, ,0,0,0,0,0, ,37.4,34.1,996.8,-0.3,-0.9,-2.4,25,36.0982,29.9049,999.883,-0.206651,-0.658257,-1.79473,
2026_07_06_20_34_17.169,3.866,42.4,0,0.769,0,0,0,0, ,0,0,0,0,0, ,35.2,30.2,997.5,-0.2,-0.5,-2.3,25,36.1105,30.0417,999.717,-0.209293,-0.660801,-1.82856,
2026_07_06_20_34_17.196,3.866,42.4,0,0.769,0,0,0,0, ,0,0,0,0,0, ,37.9,31.1,999.5,-0.7,-0.3,-2.3,25,36.1373,30.0788,999.643,-0.223961,-0.644908,-1.85729,
2026_07_06_20_34_17.209,3.866,42.3,0,0.768,0,0,0,0, ,0,0,0,0,0, ,43,31.8,994.7,0.3,-0.8,-1.5,25,36.4001,30.1623,999.488,-0.222501,-0.639125,-1.85989,
2026_07_06_20_34_17.235,3.866,42.4,0,0.769,0,0,0,0, ,0,0,0,0,0, ,45.5,38.5,994.5,2.1,-1.2,-0.7,25,36.8784,30.4663,999.19,-0.135817,-0.661116,-1.81359,
2026_07_06_20_34_17.248,3.866,42.4,0,0.768,0,0,0,0, ,0,0,0,0,0, ,36.4,31.1,1001.2,2.3,-1.9,-0.8,25,37.1265,30.7303,999.108,0.00652168,-0.715282,-1.74878,
2026_07_06_20_34_17.276,3.866,42.4,0,0.769,0,0,0,0, ,0,0,0,0,0, ,30.3,33.6,1007.4,1,-1,-1.4,25,36.8964,30.829,999.425,0.106671,-0.760054,-1.70924,
2026_07_06_20_34_17.288,3.866,42.3,0,0.768,0,0,0,0, ,0,0,0,0,0, ,39.5,36.9,1000.9,0.2,-0.1,-2.7,25,36.7747,31.0984,999.713,0.136733,-0.747254,-1.73001,
2026_07_06_20_34_17.316,3.866,42.4,0,0.769,0,0,0,0, ,0,0,0,0,0, ,42.4,33.9,997.4,1.1,-0.1,-2.3,25,37.0292,31.3606,999.678,0.168011,-0.707812,-1.77693,
2026_07_06_20_34_17.328,3.866,42.3,0,0.768,0,0,0,0, ,0,0,0,0,0, ,42.9,32.9,1009.1,-0.6,-0.9,-1.5,25,37.3717,31.4849,999.896,0.173007,-0.695148,-1.78443,
2026_07_06_20_34_17.355,3.866,42.4,0,0.769,0,0,0,0, ,0,0,0,0,0, ,35.7,36.7,996.7,-1.2,-1.9,-1.2,25,37.4892,31.6869,1000.08,0.10762,-0.7381,-1.75795,
2026_07_06_20_34_17.367,3.866,42.3,0,0.769,0,0,0,0, ,0,0,0,0,0, ,34.3,32.4,994.8,-0.6,-0.1,-2.1,25,37.3375,31.8613,999.815,0.0462186,-0.75406,-1.75138,
2026_07_06_20_34_17.395,3.866,42.4,0,0.769,0,0,0,0, ,0,0,0,0,0, ,38.4,31.9,992.7,0.8,0.5,-2.9,25,37.2773,31.8789,999.446,0.0494959,-0.695922,-1.79699,
2026_07_06_20_34_17.407,3.866,42.4,0,0.772,0,0,0,0, ,0,0,0,0,0, ,43.3,23.6,1000.4,0.3,-0.1,-2.3,25,37.495,31.6273,999.269,0.0799953,-0.641326,-1.84593,
2026_07_06_20_34_17.433,3.866,42.4,0,0.769,0,0,0,0, ,0,0,0,0,0, ,44.9,32.9,993.2,1.2,-0.9,-1.3,25,37.8975,31.4215,999.119,0.120824,-0.632714,-1.84313,
2026_07_06_20_34_17.446,3.866,42.4,0,0.771,0,0,0,0, ,0,0,0,0,0, ,37.9,32.3,996,0,-1.6,-0.8,25,38.111,31.4933,998.843,0.150024,-0.67033,-1.7948,
2026_07_06_20_34_17.473,3.866,42.3,0,0.769,0,0,0,0, ,0,0,0,0,0, ,38.4,47.8,988.8,1.1,-1.5,-1.1,25,38.1133,32.0148,998.451,0.174397,-0.723935,-1.74332,
2026_07_06_20_34_17.486,3.866,42.4,0,0.768,0,0,0,0, ,0,0,0,0,0, ,32.2,42.4,998.7,1.6,-1.2,-1.6,25,37.9419,32.8121,998.164,0.246035,-0.762086,-1.71935,
2026_07_06_20_34_17.516,3.866,42.4,0,0.768,0,0,0,0, ,0,0,0,0,0, ,31.4,39.6,1012.8,-0.5,-0.7,-2.4,25,37.5676,33.3111,998.627,0.264558,-0.773537,-1.73645,
2026_07_06_20_34_17.526,3.866,42.4,0,0.769,0,0,0,0, ,0,0,0,0,0, ,42.3,50,989.8,0.9,-1.1,-2,25,37.5239,34.0112,998.789,0.260624,-0.781243,-1.7647,
2026_07_06_20_34_17.552,3.866,42.4,0,0.767,0,0,0,0, ,0,0,0,0,0, ,36.7,34.6,1008.1,0.9,-1.4,-1.8,25,37.6443,34.5163,998.799,0.299586,-0.809808,-1.77294,
2026_07_06_20_34_17.565,3.866,42.3,0,0.769,0,0,0,0, ,0,0,0,0,0, ,40.4,36.6,1002,0,-1,-2.3,25,37.6995,34.5823,999.18,0.308752,-0.833585,-1.78983,
2026_07_06_20_34_17.592,3.866,42.3,0,0.769,0,0,0,0, ,0,0,0,0,0, ,42.4,34.6,1001.2,0.1,-0.4,-2.4,25,37.925,34.6443,999.328,0.292984,-0.825445,-1.82396,
2026_07_06_20_34_17.605,3.866,42.4,0,0.771,0,0,0,0, ,0,0,0,0,0, ,44.4,36.3,999.2,0.3,-1.2,-1.8,25,38.2586,34.6934,999.381,0.287318,-0.823894,-1.84078,
2026_07_06_20_34_17.633,3.866,42.4,0,0.769,0,0,0,0, ,0,0,0,0,0, ,42.7,34.7,1001.5,-1,-1.3,-1.9,25,38.5811,34.7426,999.44,0.248482,-0.84986,-1.84135,
2026_07_06_20_34_17.644,3.866,42.3,0,0.769,0,0,0,0, ,0,0,0,0,0, ,45.6,44.4,991,0,-0.6,-1.8,25,38.9204,35.0355,999.245,0.202871,-0.855963,-1.84187,
2026_07_06_20_34_17.671,3.866,42.3,0,0.769,0,0,0,0, ,0,0,0,0,0, ,45,45.2,989,1.6,-1.2,-1.7,25,39.3092,35.6306,998.682,0.239258,-0.858646,-1.83627,
2026_07_06_20_34_17.686,3.866,42.4,0,0.769,0,0,0,0, ,0,0,0,0,0, ,39.7,35.5,1002.1,1,-1.6,-1.9,25,39.4945,35.9182,998.491,0.303897,-0.891635,-1.83406,
2026_07_06_20_34_17.714,3.866,42.4,0,0.771,0,0,0,0, ,0,0,0,0,0, ,40.8,38.6,999.7,0,-0.7,-2.2,25,39.5405,35.9871,998.638,0.315847,-0.907379,-1.84722,
2026_07_06_20_34_17.724,3.866,42.3,0,0.768,0,0,0,0, ,0,0,0,0,0, ,42.3,45.1,998.1,0.4,-0.6,-1.7,25,39.663,36.3444,998.654,0.308788,-0.891695,-1.85349,
2026_07_06_20_34_17.751,3.866,42.4,0,0.768,0,0,0,0, ,0,0,0,0,0, ,42.1,48,998.7,0.7,-1.9,-1.3,25,39.8176,36.9663,998.638,0.323487,-0.913529,-1.83195,
2026_07_06_20_34_17.763,3.866,42.3,0,0.768,0,0,0,0, ,0,0,0,0,0, ,40.8,50.5,1000.3,1.4,-1.9,-1.9,25,39.9171,37.7148,998.691,0.367759,-0.973642,-1.81781,
2026_07_06_20_34_17.790,3.866,42.4,0,0.767,0,0,0,0, ,0,0,0,0,0, ,39.7,48.9,1003.9,1.2,-0.4,-2.5,25,39.9373,38.4452,998.899,0.424567,-0.984389,-1.8411,
2026_07_06_20_34_17.803,3.866,42.3,0,0.767,0,0,0,0, ,0,0,0,0,0, ,41.8,40.8,1010.4,0.4,0,-2.4,25,39.9869,38.8355,999.402,0.447445,-0.93659,-1.87821,
2026_07_06_20_34_17.831,3.866,42.4,0,0.769,0,0,0,0, ,0,0,0,0,0, ,46.1,41.9,1005.3,-0.8,-0.3,-2.5,25,40.2284,38.9887,999.916,0.407991,-0.888657,-1.91305,
2026_07_06_20_34_17.843,3.866,42.3,0,0.768,0,0,0,0, ,0,0,0,0,0, ,48.3,45.8,995.1,-0.5,-0.4,-1.8,25,40.6532,39.2849,999.934,0.34352,-0.855833,-1.92749,
2026_07_06_20_34_17.872,3.866,42.3,0,0.768,0,0,0,0, ,0,0,0,0,0, ,44.9,42.8,999.7,-0.8,-0.6,-1.6,25,41.0156,39.5905,999.779,0.282977,-0.834149,-1.91363,
2026_07_06_20_34_17.883,3.866,42.3,0,0.769,0,0,0,0, ,0,0,0,0,0, ,44.5,45.8,995.4,0.3,-0.9,-1.9,25,41.2401,39.8775,999.643,0.250499,-0.829022,-1.90365,
2026_07_06_20_34_17.911,3.866,42.3,0,0.769,0,0,0,0, ,0,0,0,0,0, ,42.2,36.7,1002,0,0.1,-2.1,25,41.3687,39.9612,999.586,0.244375,-0.802878,-1.90953,
2026_07_06_20_34_17.922,3.866,42.3,0,0.769,0,0,0,0, ,0,0,0,0,0, ,49.3,43.7,996.2,-0.5,0.1,-2.1,25,41.6357,39.9757,999.556,0.214249,-0.747859,-1.92113,
2026_07_06_20_34_17.949,3.866,42.4,0,0.767,0,0,0,0, ,0,0,0,0,0, ,49,43.5,989.5,0.4,-0.6,-1.1,25,42.0936,40.1966,999.148,0.198146,-0.717521,-1.90156,
2026_07_06_20_34_17.961,3.866,42.3,0,0.769,0,0,0,0, ,0,0,0,0,0, ,44.5,44,1005,-0.4,-1.2,-0.5,25,42.3773,40.4131,999.032,0.186072,-0.728641,-1.83444,
2026_07_06_20_34_17.989,3.866,42.3,0,0.769,0,0,0,0, ,0,0,0,0,0, ,39.3,50.7,988.5,1.1,-1.9,-0.4,25,42.3482,40.8358,998.893,0.196061,-0.778692,-1.75007,
2026_07_06_20_34_18.000,3.866,42.3,0,0.768,0,0,0,0, ,0,0,0,0,0, ,32.5,43.4,1003,0.7,-0.7,-1.3,25,41.9553,41.2145,998.701,0.238957,-0.810459,-1.69522,
2026_07_06_20_34_18.029,3.866,42.3,0,0.768,0,0,0,0, ,0,0,0,0,0, ,39.3,48.4,1001.2,0.1,0.2,-2.3,25,41.5863,41.5,998.909,0.248771,-0.776306,-1.70161,
2026_07_06_20_34_18.040,3.866,42.3,0,0.768,0,0,0,0, ,0,0,0,0,0, ,41.5,49.1,998.7,0.2,-0.5,-2,25,41.514,41.9418,998.972,0.242752,-0.738141,-1.72893,
2026_07_06_20_34_18.068,3.866,42.2,0,0.768,0,0,0,0, ,0,0,0,0,0, ,41.7,49.4,1002.6,-0.4,-1.1,-1.6,25,41.5193,42.3872,999.074,0.221866,-0.74191,-1.73326,
2026_07_06_20_34_18.080,3.866,42.3,0,0.769,0,0,0,0, ,0,0,0,0,0, ,39.3,47.4,997.9,-0.3,-1.1,-1.6,25,41.4571,42.7536,999.146,0.187018,-0.763731,-1.72514,
2026_07_06_20_34_18.108,3.866,42.2,0,0.769,0,0,0,0, ,0,0,0,0,0, ,40,47.6,1003.9,-0.9,-0.6,-2.1,25,41.347,43.0428,999.253,0.139059,-0.768988,-1.73275,
2026_07_06_20_34_18.121,3.866,42.3,0,0.767,0,0,0,0, ,0,0,0,0,0, ,43.7,50.5,993.1,0,-0.3,-2.4,25,41.3777,43.4089,999.207,0.103163,-0.74955,-1.76427,
2026_07_06_20_34_18.149,3.866,42.3,0,0.771,0,0,0,0, ,0,0,0,0,0, ,45.6,44.4,1002.8,0,0.1,-2.8,25,41.5771,43.6551,999.13,0.0968765,-0.709968,-1.8152,
2026_07_06_20_34_18.159,3.866,42.3,0,0.769,0,0,0,0, ,0,0,0,0,0, ,49.5,46.8,996.8,0.1,-0.5,-1.8,25,41.9411,43.7736,999.171,0.0940199,-0.678892,-1.84474,
2026_07_06_20_34_18.186,3.866,42.3,0,0.767,0,0,0,0, ,0,0,0,0,0, ,45.2,44.5,997,0,-1.1,-1.3,25,42.2707,43.888,999.033,0.0913375,-0.686272,-1.82678,
2026_07_06_20_34_18.199,3.866,42.3,0,0.767,0,0,0,0, ,0,0,0,0,0, ,42.3,42.8,998.9,0,-0.8,-1.6,25,42.3608,43.8735,998.967,0.0857716,-0.702343,-1.80382,
2026_07_06_20_34_18.228,3.866,42.3,0,0.769,0,0,0,0, ,0,0,0,0,0, ,41.8,48,994.2,0.2,0.2,-2.1,25,42.3419,43.9665,998.819,0.0866386,-0.677825,-1.80663,
2026_07_06_20_34_18.239,3.866,42.2,0,0.768,0,0,0,0, ,0,0,0,0,0, ,46.5,46.6,997.9,0,-0.6,-1.5,25,42.452,44.1696,998.651,0.0874528,-0.648708,-1.80623,
2026_07_06_20_34_18.267,3.866,42.3,0,0.769,0,0,0,0, ,0,0,0,0,0, ,39.9,43.9,994.5,0,-1.5,-1,25,42.4976,44.2355,998.501,0.0821237,-0.673161,-1.77233,
2026_07_06_20_34_18.278,3.866,42.3,0,0.768,0,0,0,0, ,0,0,0,0,0, ,37.1,45.1,993,-0.1,-0.9,-1.6,25,42.254,44.2516,998.212,0.0740724,-0.705266,-1.74355,
2026_07_06_20_34_18.306,3.866,42.3,0,0.767,0,0,0,0, ,0,0,0,0,0, ,40.6,48,998.2,-0.4,-0.3,-2.2,25,42.0466,44.3916,998.053,0.0543242,-0.698851,-1.75309,
2026_07_06_20_34_18.317,3.866,42.3,0,0.767,0,0,0,0, ,0,0,0,0,0, ,45.4,50.1,1003.1,-0.9,-0.6,-1.9,25,42.1047,44.6755,998.211,0.0114045,-0.683687,-1.77118,
2026_07_06_20_34_18.345,3.866,42.3,0,0.769,0,0,0,0, ,0,0,0,0,0, ,45.5,53.7,1004.2,-1.1,-1.4,-1.2,25,42.3085,45.1158,998.542,-0.050228,-0.702962,-1.7577,
2026_07_06_20_34_18.358,3.866,42.3,0,0.769,0,0,0,0, ,0,0,0,0,0, ,46,58.4,1000.7,-0.3,-1.5,-1.1,25,42.5183,45.7821,998.781,-0.0898235,-0.748485,-1.72067,
2026_07_06_20_34_18.389,3.866,42.2,0,0.769,0,0,0,0, ,0,0,0,0,0, ,51.7,53.9,1014.1,0.7,0,-1.2,25,42.9041,46.4139,999.306,-0.0721623,-0.748577,-1.68589,
2026_07_06_20_34_18.397,3.866,42.3,0,0.768,0,0,0,0, ,0,0,0,0,0, ,51.2,50,1016.1,0.3,0,-1.4,25,43.4249,46.7512,1000.27,-0.0372962,-0.702961,-1.66238,
2026_07_06_20_34_18.425,3.866,42.2,0,0.769,0,0,0,0, ,0,0,0,0,0, ,50.5,49.3,1003.9,-0.4,0.1,-1.1,25,43.8773,46.9279,1000.86,-0.0380703,-0.657077,-1.63725,
2026_07_06_20_34_18.437,3.866,42.3,0,0.769,0,0,0,0, ,0,0,0,0,0, ,46,46.3,995.6,-1,0,-1.1,25,44.1438,46.981,1000.79,-0.0784067,-0.61399,-1.60451,
2026_07_06_20_34_18.467,3.866,42.3,0,0.767,0,0,0,0, ,0,0,0,0,0, ,46.9,49.1,989.7,-0.7,0.1,-0.7,25,44.2843,47.0248,1000.3,-0.125426,-0.573528,-1.56158,
2026_07_06_20_34_18.476,3.866,42.3,0,0.769,0,0,0,0, ,0,0,0,0,0, ,44,44.6,991.9,-0.1,-0.1,-0.6,25,44.3554,47.0142,999.719,-0.142158,-0.538578,-1.50603,
2026_07_06_20_34_18.504,3.866,42.2,0,0.769,0,0,0,0, ,0,0,0,0,0, ,41.8,44.6,991.8,0,-0.2,-0.6,25,44.2667,46.8671,999.239,-0.136542,-0.514899,-1.45082,
2026_07_06_20_34_18.515,3.866,42.2,0,0.767,0,0,0,0, ,0,0,0,0,0, ,38.2,46.9,985.9,0.2,-0.7,-0.9,25,44.0067,46.799,998.606,-0.122127,-0.510945,-1.40811,
2026_07_06_20_34_18.545,3.866,42.2,0,0.77,0,0,0,0, ,0,0,0,0,0, ,37.9,46.5,990.4,0,-0.5,-0.8,25,43.6437,46.793,997.969,-0.108592,-0.516371,-1.3741,
2026_07_06_20_34_18.561,3.866,42.2,0,0.769,0,0,0,0, ,0,0,0,0,0, ,34.9,50.2,992.7,0.4,-0.8,-0.4,25,43.2023,46.8878,997.578,-0.0897867,-0.524514,-1.32693,
2026_07_06_20_34_18.591,3.866,42.2,0,0.769,0,0,0,0, ,0,0,0,0,0, ,32.7,45.5,1001.5,-0.4,-1.1,-1,25,42.6293,46.9465,997.549,-0.0843153,-0.550442,-1.28873,
2026_07_06_20_34_18.596,3.866,42.3,0,0.77,0,0,0,0, ,0,0,0,0,0, ,37.3,54.3,989,0.5,-0.8,-1.2,25,42.1644,47.1264,997.408,-0.0761305,-0.57479,-1.27723,
2026_07_06_20_34_18.626,3.866,42.3,0,0.769,0,0,0,0, ,0,0,0,0,0, ,35.4,50.7,998.5,0.2,-1.3,-1.6,25,41.8101,47.4539,997.186,-0.0501632,-0.603748,-1.28471,
2026_07_06_20_34_18.634,3.866,42.3,0,0.769,0,0,0,0, ,0,0,0,0,0, ,36.3,55,1004.8,-0.4,-1.3,-2.1,25,41.4469,47.7827,997.458,-0.0532001,-0.646176,-1.31916,
2026_07_06_20_34_18.663,3.866,42.2,0,0.769,0,0,0,0, ,0,0,0,0,0, ,39.5,54.8,1003.7,-1.2,-0.9,-2.6,25,41.2308,48.2164,997.872,-0.0987082,-0.673831,-1.38197,
2026_07_06_20_34_18.674,3.866,42.2,0,0.769,0,0,0,0, ,0,0,0,0,0, ,45.4,55.9,1009.3,-2,-0.4,-3,25,41.3051,48.6511,998.397,-0.190193,-0.672379,-1.46838,
2026_07_06_20_34_18.704,3.866,42.2,0,0.769,0,0,0,0, ,0,0,0,0,0, ,47.4,55,987.7,0,-0.5,-2.8,25,41.6155,49.0654,998.404,-0.239541,-0.658828,-1.55562,
2026_07_06_20_34_18.713,3.866,42.2,0,0.769,0,0,0,0, ,0,0,0,0,0, ,46.3,40.4,1008.3,-0.8,0,-3.1,25,41.9345,48.9822,998.379,-0.249319,-0.633915,-1.64059,
2026_07_06_20_34_18.743,3.866,42.2,0,0.769,0,0,0,0, ,0,0,0,0,0, ,54.8,47.7,995.9,-1.2,-0.1,-2.7,25,42.4595,48.6817,998.606,-0.295063,-0.598333,-1.71734,
2026_07_06_20_34_18.753,3.866,42.3,0,0.769,0,0,0,0, ,0,0,0,0,0, ,53.2,48.2,991,-0.2,-1.1,-1.4,25,43.1628,48.6371,998.292,-0.319739,-0.598434,-1.73761,
2026_07_06_20_34_18.783,3.866,42.3,0,0.769,0,0,0,0, ,0,0,0,0,0, ,47.6,51,992.6,0.4,-1.8,-0.9,25,43.6038,48.6958,997.896,-0.294161,-0.650326,-1.7018,
2026_07_06_20_34_18.793,3.866,42.2,0,0.767,0,0,0,0, ,0,0,0,0,0, ,41.9,49.1,994.5,-0.1,-1.2,-1.4,25,43.6736,48.7783,997.631,-0.267095,-0.702103,-1.66818,
2026_07_06_20_34_18.822,3.866,42.2,0,0.769,0,0,0,0, ,0,0,0,0,0, ,45.5,53.3,997.1,0.3,-0.9,-1.5,25,43.6752,48.9259,997.52,-0.244725,-0.723303,-1.65488,
2026_07_06_20_34_18.832,3.866,42.3,0,0.769,0,0,0,0, ,0,0,0,0,0, ,41.9,48.8,1003.2,-0.3,-1,-1.4,25,43.6767,49.0553,997.68,-0.229812,-0.737118,-1.6424,
2026_07_06_20_34_18.861,3.866,42.3,0,0.769,0,0,0,0, ,0,0,0,0,0, ,41.9,53.9,1004.6,-1.1,-0.9,-2,25,43.5685,49.1951,998.059,-0.258465,-0.75009,-1.64591,
2026_07_06_20_34_18.872,3.866,42.2,0,0.769,0,0,0,0, ,0,0,0,0,0, ,41.7,53.7,998.9,-0.5,-0.8,-1.7,25,43.4607,49.4757,998.284,-0.291464,-0.756178,-1.65834,
2026_07_06_20_34_18.902,3.866,42.2,0,0.769,0,0,0,0, ,0,0,0,0,0, ,44.3,57.1,1004.2,-0.3,-0.6,-1.7,25,43.4326,49.8368,998.483,-0.298078,-0.752755,-1.66088,
2026_07_06_20_34_18.911,3.866,42.3,0,0.769,0,0,0,0, ,0,0,0,0,0, ,41.3,51.3,1003.4,-0.6,-0.2,-1.8,25,43.3941,50.1026,998.807,-0.307336,-0.731259,-1.66631,
2026_07_06_20_34_18.942,3.866,42.2,0,0.769,0,0,0,0, ,0,0,0,0,0, ,45.4,53.2,1001.5,-1.2,-0.1,-2.1,25,43.3914,50.2335,999.029,-0.343451,-0.695839,-1.6836,
2026_07_06_20_34_18.951,3.866,42.2,0,0.767,0,0,0,0, ,0,0,0,0,0, ,48.4,54.5,991.8,-0.1,-0.7,-2.2,25,43.6052,50.4539,998.884,-0.362132,-0.677811,-1.71202,
2026_07_06_20_34_18.981,3.866,42,0,0.767,0,0,0,0, ,0,0,0,0,0, ,48.2,49.1,1004.5,-0.6,-0.1,-2,25,43.8913,50.5359,998.839,-0.361392,-0.660882,-1.73566,
2026_07_06_20_34_18.990,3.866,42.2,0,0.769,0,0,0,0, ,0,0,0,0,0, ,46.9,52.8,993.8,-0.1,-0.7,-1.9,25,44.1142,50.5611,998.858,-0.360698,-0.644984,-1.74872,
2026_07_06_20_34_19.020,3.866,42.2,0,0.767,0,0,0,0, ,0,0,0,0,0, ,45.1,47.6,1001,-0.7,-0.9,-1.5,25,44.2292,50.5391,998.769,-0.363093,-0.654431,-1.74576,
2026_07_06_20_34_19.034,3.866,42.2,0,0.769,0,0,0,0, ,0,0,0,0,0, ,46.7,51.8,993,-0.6,-0.8,-1.4,25,44.331,50.488,998.661,-0.380577,-0.666348,-1.72773,
2026_07_06_20_34_19.064,3.866,42.2,0,0.769,0,0,0,0, ,0,0,0,0,0, ,47.4,51.6,996.5,-0.5,-0.3,-2,25,44.4967,50.5619,998.423,-0.390901,-0.659258,-1.72604,
2026_07_06_20_34_19.070,3.866,42.2,0,0.767,0,0,0,0, ,0,0,0,0,0, ,48.9,51.5,998,0.4,-0.1,-1.7,25,44.7193,50.6221,998.352,-0.370127,-0.631272,-1.7336,
2026_07_06_20_34_19.101,3.866,42.2,0,0.769,0,0,0,0, ,0,0,0,0,0, ,45.8,44.1,1001.7,-0.2,-1,-1.1,25,44.8796,50.4501,998.443,-0.341479,-0.62632,-1.71327,
2026_07_06_20_34_19.110,3.866,42.2,0,0.769,0,0,0,0, ,0,0,0,0,0, ,45.2,50,995.2,-0.5,-0.9,-1.2,25,44.9174,50.2429,998.443,-0.341998,-0.646044,-1.67894,
2026_07_06_20_34_19.139,3.866,42.2,0,0.767,0,0,0,0, ,0,0,0,0,0, ,44.9,50.9,997.1,-0.3,-0.5,-1.3,25,44.9255,50.2555,998.304,-0.345533,-0.649332,-1.65281,
2026_07_06_20_34_19.149,3.866,42.3,0,0.769,0,0,0,0, ,0,0,0,0,0, ,45.7,54.1,997.9,0.3,-0.6,-1.5,25,44.9483,50.3923,998.255,-0.324477,-0.643279,-1.6374,
2026_07_06_20_34_19.178,3.866,42,0,0.769,0,0,0,0, ,0,0,0,0,0, ,42.1,53.8,1002.9,-0.7,-0.4,-1.7,25,44.8844,50.6091,998.385,-0.316891,-0.634548,-1.63512,
2026_07_06_20_34_19.188,3.866,42.2,0,0.769,0,0,0,0, ,0,0,0,0,0, ,42.3,59.2,994.9,-0.2,-0.7,-1.7,25,44.7208,50.9681,998.417,-0.325003,-0.629396,-1.63907,
2026_07_06_20_34_19.218,3.866,42,0,0.769,0,0,0,0, ,0,0,0,0,0, ,39.9,51.7,1008,-0.7,-0.4,-1.8,25,44.5002,51.2412,998.602,-0.33262,-0.624557,-1.64583,
2026_07_06_20_34_19.228,3.866,42.2,0,0.769,0,0,0,0, ,0,0,0,0,0, ,43.3,57.4,1009.8,-0.6,-0.1,-1.9,25,44.3235,51.4428,999.229,-0.35196,-0.601733,-1.65828,
2026_07_06_20_34_19.258,3.866,42.2,0,0.767,0,0,0,0, ,0,0,0,0,0, ,44.7,53.1,1000.6,-0.8,-0.1,-2.1,25,44.3038,51.6748,999.593,-0.373169,-0.571159,-1.6791,
2026_07_06_20_34_19.268,3.866,42.2,0,0.77,0,0,0,0, ,0,0,0,0,0, ,45,52.4,1000.6,-1.4,0.2,-2.4,25,44.337,51.7403,999.654,-0.41746,-0.533307,-1.71389,
2026_07_06_20_34_19.300,3.866,42.2,0,0.769,0,0,0,0, ,0,0,0,0,0, ,47.8,52.6,984.2,0,0,-2,25,44.4628,51.7866,999.212,-0.434677,-0.494715,-1.74351,
2026_07_06_20_34_19.308,3.866,42,0,0.767,0,0,0,0, ,0,0,0,0,0, ,44.5,42.1,1003.4,-0.9,-0.4,-1.8,25,44.5656,51.5163,998.882,-0.435611,-0.476755,-1.75305,
2026_07_06_20_34_19.340,3.866,42.2,0,0.766,0,0,0,0, ,0,0,0,0,0, ,53.9,53.8,992.5,-1,-0.9,-1.9,25,44.848,51.299,998.826,-0.466957,-0.487312,-1.75895,
2026_07_06_20_34_19.347,3.866,42.2,0,0.769,0,0,0,0, ,0,0,0,0,0, ,47.2,48.8,987.7,1.5,-0.6,-0.8,25,45.1954,51.299,998.294,-0.423267,-0.50332,-1.73403,
2026_07_06_20_34_19.378,3.866,42,0,0.769,0,0,0,0, ,0,0,0,0,0, ,46.6,45.4,1006.1,0,-0.7,-1.2,25,45.2993,51.0431,998.209,-0.351771,-0.512258,-1.6893,
2026_07_06_20_34_19.387,3.866,41.9,0,0.769,0,0,0,0, ,0,0,0,0,0, ,47.1,54.3,991.8,0.3,-0.7,-0.9,25,45.3938,50.9704,998.254,-0.321194,-0.523699,-1.65035,
2026_07_06_20_34_19.417,3.866,42.2,0,0.77,0,0,0,0, ,0,0,0,0,0, ,41.9,52.1,999.5,0.3,-1.4,-1,25,45.3393,51.1063,998.095,-0.28334,-0.55577,-1.60767,
2026_07_06_20_34_19.426,3.866,42,0,0.771,0,0,0,0, ,0,0,0,0,0, ,38,49.3,1000.9,-0.3,-0.8,-1.8,25,45.0109,51.0815,998.224,-0.266074,-0.588934,-1.59501,
2026_07_06_20_34_19.458,3.866,42,0,0.767,0,0,0,0, ,0,0,0,0,0, ,43.7,54.8,998.2,-1,0,-2.2,25,44.7574,51.1406,998.305,-0.28947,-0.577421,-1.61969,
2026_07_06_20_34_19.466,3.866,42.2,0,0.769,0,0,0,0, ,0,0,0,0,0, ,49.3,59.3,992,0.4,-0.7,-1.4,25,44.8636,51.5007,998.109,-0.290111,-0.563563,-1.63068,
2026_07_06_20_34_19.496,3.866,42.2,0,0.769,0,0,0,0, ,0,0,0,0,0, ,43.2,54.8,1005.7,-0.3,-1.6,-1.2,25,44.9481,51.8388,998.154,-0.269386,-0.599299,-1.61053,
2026_07_06_20_34_19.506,3.866,42,0,0.767,0,0,0,0, ,0,0,0,0,0, ,39.9,52.4,1003,-1.2,-1.3,-2.2,25,44.741,51.9461,998.532,-0.298673,-0.651138,-1.61598,
2026_07_06_20_34_19.535,3.866,42,0,0.767,0,0,0,0, ,0,0,0,0,0, ,43.8,55.5,999.5,-1.2,0,-2.5,25,44.5648,52.0683,998.698,-0.353598,-0.651069,-1.66071,
2026_07_06_20_34_19.544,3.866,42,0,0.77,0,0,0,0, ,0,0,0,0,0, ,50.7,58.3,994.2,-0.1,-0.5,-2,25,44.7284,52.3627,998.585,-0.37166,-0.626629,-1.69662,
2026_07_06_20_34_19.576,3.866,42,0,0.769,0,0,0,0, ,0,0,0,0,0, ,51.6,53.8,995.9,1.1,-1,-1.6,25,45.1198,52.5874,998.37,-0.318543,-0.634147,-1.70292,
2026_07_06_20_34_19.586,3.866,42,0,0.768,0,0,0,0, ,0,0,0,0,0, ,44.1,56.2,1005.3,2.6,-1.6,-1.4,25,45.2861,52.7344,998.505,-0.186398,-0.674722,-1.69056,
2026_07_06_20_34_19.617,3.866,42,0,0.769,0,0,0,0, ,0,0,0,0,0, ,50.4,39.4,985.5,1.7,-1.6,-1,25,45.4058,52.4337,998.316,-0.0440234,-0.731106,-1.66066,
2026_07_06_20_34_19.624,3.866,42,0,0.769,0,0,0,0, ,0,0,0,0,0, ,51.7,54.6,993.2,1,-0.9,-1.3,25,45.7497,52.1026,997.77,0.0409249,-0.762726,-1.62954,
2026_07_06_20_34_19.656,3.866,42,0,0.769,0,0,0,0, ,0,0,0,0,0, ,51.8,52.9,1004.2,0.4,-0.9,-1.2,25,46.1154,52.203,997.827,0.0810873,-0.771091,-1.60641,
2026_07_06_20_34_19.664,3.866,42.2,0,0.769,0,0,0,0, ,0,0,0,0,0, ,49.5,60,996.2,0.5,-1.4,-0.7,25,46.3917,52.4618,997.971,0.103568,-0.794181,-1.56641,
2026_07_06_20_34_19.694,3.866,42,0,0.767,0,0,0,0, ,0,0,0,0,0, ,43.5,58.3,996,0.8,-1.3,-0.8,25,46.3983,52.8694,997.857,0.136866,-0.828051,-1.51666,
2026_07_06_20_34_19.703,3.866,42,0,0.767,0,0,0,0, ,0,0,0,0,0, ,44,58.7,1004,0.4,-0.6,-1.2,25,46.2369,53.2125,997.988,0.165088,-0.835483,-1.48518,
2026_07_06_20_34_19.734,3.866,42,0,0.767,0,0,0,0, ,0,0,0,0,0, ,45,61.7,1005.7,-0.4,-0.6,-1.7,25,46.1311,53.6383,998.406,0.155028,-0.821133,-1.48304,
2026_07_06_20_34_19.743,3.866,42,0,0.768,0,0,0,0, ,0,0,0,0,0, ,45.8,62.8,1000.8,-0.5,-0.4,-1.4,25,46.0865,54.163,998.701,0.118159,-0.801564,-1.48712,
2026_07_06_20_34_19.773,3.866,42,0,0.769,0,0,0,0, ,0,0,0,0,0, ,44.6,60.4,998.5,-0.8,-0.8,-1.7,25,46.0325,54.6162,998.759,0.0713497,-0.789281,-1.49095,
2026_07_06_20_34_19.782,3.866,42,0,0.769,0,0,0,0, ,0,0,0,0,0, ,43.8,58.8,999,-1.4,-0.4,-1.9,25,45.9208,54.9199,998.758,-2.94615e-05,-0.777747,-1.50978,
2026_07_06_20_34_19.814,3.866,42,0,0.769,0,0,0,0, ,0,0,0,0,0, ,47.2,57.3,997.9,-1.4,-0.2,-2.4,25,45.8952,55.1107,998.74,-0.0853402,-0.748634,-1.5488,
2026_07_06_20_34_19.822,3.866,42,0,0.769,0,0,0,0, ,0,0,0,0,0, ,51,55.9,998,-1.5,-0.2,-2.2,25,46.0905,55.2014,998.691,-0.168499,-0.715202,-1.59457,
2026_07_06_20_34_19.853,3.866,41.9,0,0.769,0,0,0,0, ,0,0,0,0,0, ,51.6,54.9,995.1,-1.4,-0.8,-1.8,25,46.4079,55.2135,998.561,-0.246591,-0.702088,-1.61928,
2026_07_06_20_34_19.862,3.866,42,0,0.769,0,0,0,0, ,0,0,0,0,0, ,49.6,57.2,998,-1.5,-1,-1.4,25,46.6634,55.2645,998.438,-0.319923,-0.714148,-1.6181,
2026_07_06_20_34_19.893,3.866,42,0,0.767,0,0,0,0, ,0,0,0,0,0, ,47.7,55,996.8,-1.6,-0.9,-1.9,25,46.7845,55.3154,998.375,-0.394881,-0.72852,-1.62005,
2026_07_06_20_34_19.901,3.866,42,0,0.77,0,0,0,0, ,0,0,0,0,0, ,50,60.3,993.8,-1.2,-0.5,-2.1,25,46.9103,55.4577,998.188,-0.456131,-0.726782,-1.6432,
2026_07_06_20_34_19.931,3.866,42,0,0.769,0,0,0,0, ,0,0,0,0,0, ,50,54.6,996.9,-0.6,-0.7,-2,25,47.0986,55.5791,998.015,-0.483179,-0.719057,-1.66799,
2026_07_06_20_34_19.941,3.866,42,0,0.769,0,0,0,0, ,0,0,0,0,0, ,50.7,53.5,996.3,0,-0.7,-1.7,25,47.2967,55.4859,997.929,-0.472016,-0.717895,-1.67908,
2026_07_06_20_34_19.973,3.866,42,0,0.769,0,0,0,0, ,0,0,0,0,0, ,49.8,51.1,1000.4,0,-0.3,-1.8,25,47.4767,55.2918,997.954,-0.443253,-0.704617,-1.6834,
2026_07_06_20_34_19.980,3.866,42.2,0,0.769,0,0,0,0, ,0,0,0,0,0, ,55.7,50.2,998.2,-0.3,-0.1,-2,25,47.798,55.0089,998.036,-0.425383,-0.673867,-1.6966,
2026_07_06_20_34_20.010,3.866,42,0,0.769,0,0,0,0, ,0,0,0,0,0, ,56.3,57,1000.2,-0.7,-0.7,-1.3,25,48.2978,54.9231,998.107,-0.42993,-0.657178,-1.69376,
2026_07_06_20_34_20.020,3.866,42,0,0.767,0,0,0,0, ,0,0,0,0,0, ,49,60.7,997.3,-0.3,-0.9,-0.9,25,48.5631,55.1624,998.146,-0.4342,-0.665882,-1.65758,
2026_07_06_20_34_20.051,3.866,42,0,0.767,0,0,0,0, ,0,0,0,0,0, ,44,61.1,1001,-0.6,-0.2,-1.6,25,48.4373,55.512,998.208,-0.435163,-0.65882,-1.63274,
2026_07_06_20_34_20.060,3.866,42.2,0,0.769,0,0,0,0, ,0,0,0,0,0, ,44.5,60.1,999,-0.2,0.4,-1.9,25,48.1822,55.822,998.317,-0.43302,-0.612579,-1.63989,
2026_07_06_20_34_20.090,3.866,42,0,0.769,0,0,0,0, ,0,0,0,0,0, ,46.3,60.6,1003.4,-1.2,0,-1.9,25,48.0126,56.098,998.492,-0.449289,-0.563063,-1.65574,
2026_07_06_20_34_20.099,3.866,42,0,0.767,0,0,0,0, ,0,0,0,0,0, ,45.4,62.2,989.2,-0.3,-0.8,-1.5,25,47.8809,56.4211,998.359,-0.467613,-0.553126,-1.65844,
2026_07_06_20_34_20.131,3.866,42,0,0.767,0,0,0,0, ,0,0,0,0,0, ,43.3,56.1,993.8,0.1,-0.2,-1.6,25,47.6657,56.5874,997.941,-0.445212,-0.549889,-1.65183,
2026_07_06_20_34_20.139,3.866,42,0,0.769,0,0,0,0, ,0,0,0,0,0, ,46.5,53.5,998.4,-0.3,-0.3,-2.3,25,47.4972,56.4784,997.829,-0.424176,-0.531614,-1.67,
2026_07_06_20_34_20.170,3.866,41.9,0,0.769,0,0,0,0, ,0,0,0,0,0, ,48.2,56,998,-0.4,-0.6,-1.9,25,47.4882,56.3731,997.851,-0.419656,-0.526641,-1.6962,
2026_07_06_20_34_20.178,3.866,42,0,0.767,0,0,0,0, ,0,0,0,0,0, ,48.4,54.3,991.4,0.2,-1.1,-1.7,25,47.5377,56.2986,997.659,-0.400177,-0.546346,-1.70253,
2026_07_06_20_34_20.209,3.866,42,0,0.769,0,0,0,0, ,0,0,0,0,0, ,50,50.9,1001.4,-0.4,-0.6,-2,25,47.639,56.0732,997.583,-0.381885,-0.56485,-1.71151,
2026_07_06_20_34_20.220,3.866,42,0,0.769,0,0,0,0, ,0,0,0,0,0, ,51.6,53.5,993.5,-0.3,-0.4,-1.9,25,47.8316,55.8372,997.574,-0.379942,-0.560898,-1.72605,
2026_07_06_20_34_20.251,3.866,41.9,0,0.769,0,0,0,0, ,0,0,0,0,0, ,50.1,56.5,999,-1,-1,-1.4,25,48.0155,55.7862,997.494,-0.396398,-0.569374,-1.72141,
2026_07_06_20_34_20.258,3.866,42,0,0.769,0,0,0,0, ,0,0,0,0,0, ,47.8,59.9,991.2,-0.8,-1.5,-1.2,25,48.0725,55.9332,997.348,-0.427087,-0.61085,-1.69573,
2026_07_06_20_34_20.288,3.866,41.9,0,0.769,0,0,0,0, ,0,0,0,0,0, ,48.7,56.5,994.5,0.3,-0.5,-1.6,25,48.0833,56.0714,997.074,-0.416295,-0.634564,-1.67771,
2026_07_06_20_34_20.297,3.866,42,0,0.769,0,0,0,0, ,0,0,0,0,0, ,50.9,53.8,1002.8,0,-0.1,-2.1,25,48.1879,56.0152,997.17,-0.381787,-0.614176,-1.68821,
2026_07_06_20_34_20.329,3.866,42,0,0.77,0,0,0,0, ,0,0,0,0,0, ,51.5,61.1,997.9,-0.6,-1,-1.5,25,48.3714,56.1027,997.364,-0.376803,-0.610266,-1.69502,
2026_07_06_20_34_20.337,3.866,42,0,0.77,0,0,0,0, ,0,0,0,0,0, ,48.3,64.6,1000.2,-0.1,-1.8,-0.9,25,48.4646,56.5138,997.466,-0.37517,-0.65839,-1.66486,
2026_07_06_20_34_20.370,3.866,41.9,0,0.767,0,0,0,0, ,0,0,0,0,0, ,41.2,57.7,1002.6,-0.1,-1.1,-1.4,25,48.2382,56.7963,997.706,-0.358401,-0.706629,-1.63348,
2026_07_06_20_34_20.376,3.866,42,0,0.769,0,0,0,0, ,0,0,0,0,0, ,46.9,60.9,1000.9,-0.3,0.1,-2.6,25,47.983,56.9489,997.953,-0.348749,-0.694037,-1.65582,
2026_07_06_20_34_20.408,3.866,41.9,0,0.767,0,0,0,0, ,0,0,0,0,0, ,51.1,57.4,1000.9,-0.2,0.2,-2.3,25,48.045,57.083,998.132,-0.342731,-0.642604,-1.70421,
