UTC_Time,Vin,TC1,TC2,Rh1,Vh1,Ah1,Acp1,Dty1,Err1,Rh2,Vh2,Ah2,Acp2,Dty2,Err2,Accel_x,Accel_y,Accel_z,gyro_x,gyro_y,gyro_z,Temp_c,Accel_x_h,Accel_y_h,Accel_z_h,gyro_x_h,gyro_y_h,gyro_z_h,
2026_06_26_17_09_30.517,3.87,35.7,0,0.763,0,0,0,0, ,0,0,0,0,0, ,-67.9,173.2,981.4,0.6,-0.3,-0.7,25,-67.9,173.2,981.4,0.6,-0.3,-0.7,
2026_06_26_17_09_30.537,3.87,35.8,0,0.764,0,0,0,0, ,0,0,0,0,0, ,-69.2,179.9,997.5,0,-0.8,-1,25,-67.9396,173.404,981.891,0.581719,-0.315234,-0.709141,
2026_06_26_17_09_30.557,3.87,35.8,0,0.763,0,0,0,0, ,0,0,0,0,0, ,-66.6,174.1,991.3,-1.3,-0.4,-1.8,25,-67.9372,173.623,982.653,0.506661,-0.332587,-0.75124,
2026_06_26_17_09_30.576,3.87,35.8,0,0.764,0,0,0,0, ,0,0,0,0,0, ,-66.5,167.9,975.5,-1.1,-0.5,-1,25,-67.8527,173.463,982.698,0.402661,-0.339742,-0.790774,
2026_06_26_17_09_30.596,3.87,35.8,0,0.762,0,0,0,0, ,0,0,0,0,0, ,-64.6,165.6,980.5,-0.4,-1,-0.3,25,-67.7123,173.054,982.412,0.332421,-0.364742,-0.782195,
2026_06_26_17_09_30.616,3.87,35.8,0,0.764,0,0,0,0, ,0,0,0,0,0, ,-68.4,170.5,986.9,-0.7,-0.7,-0.1,25,-67.6385,172.749,982.491,0.278648,-0.394313,-0.746718,
2026_06_26_17_09_30.637,3.87,35.8,0,0.763,0,0,0,0, ,0,0,0,0,0, ,-76.5,174.1,976.8,-1.1,-1.1,-0.5,25,-67.9317,172.722,982.452,0.206825,-0.425128,-0.719496,
2026_06_26_17_09_30.656,3.87,35.8,0,0.766,0,0,0,0, ,0,0,0,0,0, ,-71.5,169.3,965.3,-0.4,-1,-1.7,25,-68.3015,172.66,981.757,0.148518,-0.463206,-0.742683,
2026_06_26_17_09_30.676,3.87,35.8,0,0.762,0,0,0,0, ,0,0,0,0,0, ,-61.2,167.8,971.3,0.6,-1.6,-0.8,25,-68.1825,172.409,980.937,0.145562,-0.514198,-0.773597,
2026_06_26_17_09_30.695,3.87,35.7,0,0.763,0,0,0,0, ,0,0,0,0,0, ,-76.1,176.7,970.2,1.3,-2.1,0.4,25,-68.211,172.4,980.316,0.194582,-0.595599,-0.738644,
2026_06_26_17_09_30.715,3.87,35.7,0,0.763,0,0,0,0, ,0,0,0,0,0, ,-74,172.7,981.5,0.4,-2.9,0.8,25,-68.6278,172.54,980.044,0.234522,-0.711648,-0.65707,
2026_06_26_17_09_30.735,3.87,35.7,0,0.763,0,0,0,0, ,0,0,0,0,0, ,-77.6,175.4,982.1,1,-2,-0.6,25,-69.0648,172.632,980.151,0.262887,-0.817579,-0.610936,
2026_06_26_17_09_30.754,3.87,35.7,0,0.764,0,0,0,0, ,0,0,0,0,0, ,-75,175.7,980.1,2,-1.2,-3.3,25,-69.5057,172.81,980.209,0.338273,-0.865258,-0.692536,
2026_06_26_17_09_30.774,3.87,35.7,0,0.766,0,0,0,0, ,0,0,0,0,0, ,-60.9,171.3,983.7,1.6,-1.2,-2.5,25,-69.4109,172.852,980.312,0.427347,-0.885656,-0.827053,
2026_06_26_17_09_30.794,3.87,35.8,0,0.763,0,0,0,0, ,0,0,0,0,0, ,-61.1,175.4,989,1,-2.1,-1.6,25,-68.8984,172.882,980.68,0.480524,-0.932233,-0.901576,
2026_06_26_17_09_30.813,3.87,35.7,0,0.763,0,0,0,0, ,0,0,0,0,0, ,-63.2,182.7,994.5,0.6,-2,-0.7,25,-68.4872,173.258,981.354,0.499992,-1.00035,-0.916715,
2026_06_26_17_09_30.834,3.87,35.8,0,0.763,0,0,0,0, ,0,0,0,0,0, ,-65.1,190.4,987.5,0.9,-1.8,-1.7,25,-68.2229,174.068,981.942,0.515227,-1.05517,-0.933977,
2026_06_26_17_09_30.853,3.87,35.8,0,0.762,0,0,0,0, ,0,0,0,0,0, ,-51,184.8,988.4,-0.2,-1.5,-1.9,25,-67.603,174.892,982.308,0.505159,-1.09142,-0.98675,
2026_06_26_17_09_30.873,3.87,35.8,0,0.763,0,0,0,0, ,0,0,0,0,0, ,-57.8,185.9,993.5,0.8,-0.4,-2,25,-66.7984,175.53,982.835,0.492657,-1.0828,-1.04545,
2026_06_26_17_09_30.892,3.87,35.8,0,0.765,0,0,0,0, ,0,0,0,0,0, ,-67.2,177,990.4,-0.1,-0.3,-2.7,25,-66.5365,175.891,983.39,0.483964,-1.03814,-1.12494,
2026_06_26_17_09_30.914,3.87,35.9,0,0.762,0,0,0,0, ,0,0,0,0,0, ,-58.5,172.2,990.2,-0.4,-0.5,-2.1,25,-66.3118,175.812,983.811,0.439238,-0.999258,-1.20264,
2026_06_26_17_09_30.933,3.87,35.7,0,0.762,0,0,0,0, ,0,0,0,0,0, ,-53.8,170.2,989.9,-1.5,-0.9,-0.9,25,-65.6926,175.531,984.191,0.354581,-0.981022,-1.22076,
2026_06_26_17_09_30.952,3.87,35.9,0,0.762,0,0,0,0, ,0,0,0,0,0, ,-61.4,177.2,994.1,-0.5,0,-0.9,25,-65.1994,175.419,984.667,0.272036,-0.948663,-1.20122,
2026_06_26_17_09_30.973,3.87,35.7,0,0.763,0,0,0,0, ,0,0,0,0,0, ,-61.7,178.9,992.6,-0.9,0,-1.6,25,-64.9771,175.58,985.196,0.212803,-0.890853,-1.20419,
2026_06_26_17_09_30.992,3.87,35.7,0,0.764,0,0,0,0, ,0,0,0,0,0, ,-62.3,178.5,985.5,-1.5,-0.1,-1.3,25,-64.7956,175.77,985.431,0.12671,-0.839614,-1.21917,
2026_06_26_17_09_31.012,3.87,35.9,0,0.763,0,0,0,0, ,0,0,0,0,0, ,-63.1,180.7,980.2,-1.7,-0.3,-1.5,25,-64.6679,176.003,985.274,0.0214889,-0.800637,-1.23019,
2026_06_26_17_09_31.031,3.87,35.8,0,0.763,0,0,0,0, ,0,0,0,0,0, ,-60,170.6,975.7,-1.7,-0.1,-1.3,25,-64.4779,175.982,984.828,-0.0834144,-0.764036,-1.24054,
2026_06_26_17_09_31.051,3.87,35.7,0,0.763,0,0,0,0, ,0,0,0,0,0, ,-57.1,167.8,977.6,-0.7,0,-1.7,25,-64.1167,175.568,984.329,-0.151456,-0.720525,-1.25635,
2026_06_26_17_09_31.071,3.87,35.8,0,0.763,0,0,0,0, ,0,0,0,0,0, ,-59.3,169.7,973.5,-0.7,-0.1,-0.5,25,-63.7562,175.153,983.794,-0.184883,-0.679664,-1.24682,
2026_06_26_17_09_31.091,3.87,35.7,0,0.764,0,0,0,0, ,0,0,0,0,0, ,-69.7,172.1,971.5,0,-0.1,-1.4,25,-63.8015,174.894,983.106,-0.194945,-0.644341,-1.22873,
2026_06_26_17_09_31.111,3.87,35.6,0,0.763,0,0,0,0, ,0,0,0,0,0, ,-67.1,170.2,970.7,1.5,0.5,-2.1,25,-64.0817,174.666,982.374,-0.137362,-0.592889,-1.2605,
2026_06_26_17_09_31.130,3.87,35.7,0,0.763,0,0,0,0, ,0,0,0,0,0, ,-67.2,175.4,975.8,0.6,-0.4,-1.3,25,-64.2687,174.552,981.818,-0.0650075,-0.553713,-1.28728,
2026_06_26_17_09_31.150,3.87,35.8,0,0.763,0,0,0,0, ,0,0,0,0,0, ,-65.9,173.2,978.5,0.2,-1.1,-0.9,25,-64.4077,174.537,981.534,-0.0366711,-0.565674,-1.27587,
2026_06_26_17_09_31.170,3.87,35.8,0,0.763,0,0,0,0, ,0,0,0,0,0, ,-71.6,181.3,977.2,0.9,-0.9,-0.8,25,-64.6723,174.702,981.309,-0.000920845,-0.592141,-1.24992,
2026_06_26_17_09_31.190,3.87,35.7,0,0.762,0,0,0,0, ,0,0,0,0,0, ,-69.2,185.6,978.2,0.6,-0.9,-1.8,25,-65.0213,175.235,981.09,0.0448384,-0.610901,-1.25297,
2026_06_26_17_09_31.209,3.87,35.7,0,0.763,0,0,0,0, ,0,0,0,0,0, ,-66,181.3,980.8,1,-0.9,-2.8,25,-65.1785,175.736,980.993,0.090856,-0.628518,-1.31677,
2026_06_26_17_09_31.229,3.87,35.7,0,0.763,0,0,0,0, ,0,0,0,0,0, ,-56.8,178.2,983.6,0.6,-1.3,-1.3,25,-64.9482,175.98,981.066,0.13407,-0.657249,-1.36145,
2026_06_26_17_09_31.249,3.87,35.8,0,0.764,0,0,0,0, ,0,0,0,0,0, ,-65.6,181.5,992,0.3,-1.1,-0.7,25,-64.7198,176.216,981.477,0.153322,-0.690323,-1.33943,
2026_06_26_17_09_31.268,3.87,35.8,0,0.764,0,0,0,0, ,0,0,0,0,0, ,-64.3,184.4,989.9,-0.7,-0.9,-1.2,25,-64.7338,176.626,982.054,0.131791,-0.709194,-1.3157,
2026_06_26_17_09_31.288,3.87,35.8,0,0.763,0,0,0,0, ,0,0,0,0,0, ,-72,186.6,984.4,0.1,-0.8,-2.9,25,-64.942,177.167,982.364,0.105479,-0.717774,-1.36044,
2026_06_26_17_09_31.308,3.87,35.8,0,0.763,0,0,0,0, ,0,0,0,0,0, ,-58.9,177.7,983.7,-0.1,-1.4,-3,25,-64.973,177.471,982.467,0.0990511,-0.741066,-1.45731,
2026_06_26_17_09_31.327,3.87,35.7,0,0.764,0,0,0,0, ,0,0,0,0,0, ,-53.8,175.7,988.6,-0.4,-1,-1.4,25,-64.4475,177.424,982.692,0.0777808,-0.769032,-1.50256,
2026_06_26_17_09_31.347,3.87,35.7,0,0.763,0,0,0,0, ,0,0,0,0,0, ,-61,176.5,988.8,-0.8,-0.7,-1.8,25,-64.0181,177.343,983.058,0.0364786,-0.773966,-1.5085,
2026_06_26_17_09_31.367,3.87,35.7,0,0.764,0,0,0,0, ,0,0,0,0,0, ,-64.3,172.2,980.5,-0.5,-0.7,-1.8,25,-63.9347,177.161,983.155,-0.00535373,-0.769459,-1.52626,
2026_06_26_17_09_31.388,3.87,35.7,0,0.764,0,0,0,0, ,0,0,0,0,0, ,-61.5,174,979.1,-0.5,-0.9,-1.6,25,-63.8716,176.913,982.95,-0.0354962,-0.77132,-1.53685,
2026_06_26_17_09_31.407,3.87,35.8,0,0.763,0,0,0,0, ,0,0,0,0,0, ,-61,174.5,976.9,0.1,-0.4,-2,25,-63.7119,176.751,982.649,-0.0455207,-0.763927,-1.55289,
2026_06_26_17_09_31.427,3.87,35.8,0,0.764,0,0,0,0, ,0,0,0,0,0, ,-58.2,178.8,984,0.6,-1,-1.9,25,-63.4613,176.745,982.515,-0.0214186,-0.760032,-1.57709,
2026_06_26_17_09_31.446,3.87,35.8,0,0.765,0,0,0,0, ,0,0,0,0,0, ,-57.7,180.6,978.7,0,-1.2,-0.8,25,-63.1255,176.925,982.444,-0.00183219,-0.780748,-1.56325,
2026_06_26_17_09_31.466,3.87,35.6,0,0.763,0,0,0,0, ,0,0,0,0,0, ,-60.9,185,983.5,0.1,-0.3,-1.2,25,-62.8924,177.283,982.362,0.00132633,-0.778875,-1.52893,
2026_06_26_17_09_31.486,3.87,35.7,0,0.763,0,0,0,0, ,0,0,0,0,0, ,-66.8,188.5,981.2,0,-0.9,-2.3,25,-62.9507,177.86,982.361,0.00429238,-0.767975,-1.5424,
2026_06_26_17_09_31.506,3.87,35.8,0,0.764,0,0,0,0, ,0,0,0,0,0, ,-61.1,180.7,979.7,0.3,-1,-2.6,25,-63.0116,178.271,982.245,0.0131714,-0.779067,-1.5977,
2026_06_26_17_09_31.526,3.87,35.7,0,0.763,0,0,0,0, ,0,0,0,0,0, ,-53.9,180.9,991.3,-0.6,-1.5,-1.4,25,-62.6757,178.425,982.443,0.00322818,-0.807764,-1.62222,
2026_06_26_17_09_31.545,3.87,35.7,0,0.763,0,0,0,0, ,0,0,0,0,0, ,-58.8,178.1,984,-0.2,-1.1,-1.1,25,-62.2903,178.49,982.76,-0.0213435,-0.83776,-1.59954,
2026_06_26_17_09_31.565,3.87,35.7,0,0.762,0,0,0,0, ,0,0,0,0,0, ,-66.7,186.1,984,-0.2,-0.5,-1.6,25,-62.3183,178.71,982.836,-0.0322304,-0.835459,-1.58433,
2026_06_26_17_09_31.585,3.87,35.7,0,0.763,0,0,0,0, ,0,0,0,0,0, ,-63.8,185.3,985.4,-0.3,-1.5,-2.6,25,-62.4969,179.136,982.949,-0.0455007,-0.845486,-1.61575,
2026_06_26_17_09_31.605,3.87,35.8,0,0.764,0,0,0,0, ,0,0,0,0,0, ,-53.7,179.5,986.8,-0.2,-0.8,-2.9,25,-62.2686,179.335,983.141,-0.0579624,-0.864042,-1.68487,
2026_06_26_17_09_31.625,3.87,35.7,0,0.762,0,0,0,0, ,0,0,0,0,0, ,-56,176.6,976.9,-0.8,-0.6,-2.2,25,-61.8165,179.257,983.063,-0.0848991,-0.854046,-1.73759,
2026_06_26_17_09_31.645,3.87,35.8,0,0.763,0,0,0,0, ,0,0,0,0,0, ,-55.9,174.9,970.7,-0.5,-0.9,-1.9,25,-61.459,179.043,982.498,-0.119335,-0.847705,-1.75663,
2026_06_26_17_09_31.665,3.87,35.8,0,0.764,0,0,0,0, ,0,0,0,0,0, ,-57.6,173,977,0.4,-0.5,-2.3,25,-61.1721,178.733,981.971,-0.11511,-0.838705,-1.77755,
2026_06_26_17_09_31.684,3.87,35.7,0,0.764,0,0,0,0, ,0,0,0,0,0, ,-56.2,170.6,979.7,0.9,0,-2.7,25,-60.9118,178.31,981.751,-0.0684859,-0.80283,-1.82158,
2026_06_26_17_09_31.704,3.87,35.7,0,0.763,0,0,0,0, ,0,0,0,0,0, ,-50.6,174.5,986.2,0.5,-0.4,-1.6,25,-60.454,177.959,981.824,-0.0216563,-0.766095,-1.84159,
2026_06_26_17_09_31.724,3.87,35.6,0,0.763,0,0,0,0, ,0,0,0,0,0, ,-50.7,174.1,983.8,0,-1.2,-0.6,25,-59.8566,177.736,982.017,-0.00510228,-0.768161,-1.7964,
2026_06_26_17_09_31.743,3.87,35.6,0,0.763,0,0,0,0, ,0,0,0,0,0, ,-50.9,186.2,988.1,-0.1,-0.6,0,25,-59.3047,177.883,982.257,-0.00783824,-0.776195,-1.70521,
2026_06_26_17_09_31.763,3.87,35.7,0,0.765,0,0,0,0, ,0,0,0,0,0, ,-59.9,187.8,987.5,-0.2,0.3,-0.1,25,-59.0667,178.439,982.595,-0.0165012,-0.738037,-1.60435,
2026_06_26_17_09_31.783,3.87,35.7,0,0.763,0,0,0,0, ,0,0,0,0,0, ,-67.1,189.2,981.6,0.1,0,-0.5,25,-59.3369,179.052,982.714,-0.0185425,-0.683922,-1.52486,
2026_06_26_17_09_31.802,3.87,35.6,0,0.762,0,0,0,0, ,0,0,0,0,0, ,-63.3,189.6,991.8,0,-0.3,-1.2,25,-59.6942,179.683,982.957,-0.0143657,-0.651386,-1.48374,
2026_06_26_17_09_31.823,3.87,35.7,0,0.765,0,0,0,0, ,0,0,0,0,0, ,-59.2,186.4,994.6,-0.9,-0.7,-0.8,25,-59.789,180.189,983.581,-0.0409122,-0.642161,-1.45426,
2026_06_26_17_09_31.842,3.87,35.6,0,0.763,0,0,0,0, ,0,0,0,0,0, ,-60.1,177,982.4,-1.6,-0.2,-0.5,25,-59.7805,180.281,983.881,-0.114591,-0.630451,-1.40525,
2026_06_26_17_09_31.862,3.87,35.7,0,0.763,0,0,0,0, ,0,0,0,0,0, ,-68.3,173.2,975.4,-0.2,0.5,-0.4,25,-60.0498,179.966,983.577,-0.162452,-0.582892,-1.34704,
2026_06_26_17_09_31.881,3.87,35.7,0,0.765,0,0,0,0, ,0,0,0,0,0, ,-71.7,181.8,974.8,0.2,0.3,-0.4,25,-60.6562,179.815,983.061,-0.152552,-0.522997,-1.28933,
2026_06_26_17_09_31.905,3.87,35.7,0,0.762,0,0,0,0, ,0,0,0,0,0, ,-67.5,193.8,980.3,0.9,0.3,-1.3,25,-61.2012,180.302,982.725,-0.109741,-0.472846,-1.26256,
2026_06_26_17_09_31.922,3.87,35.7,0,0.763,0,0,0,0, ,0,0,0,0,0, ,-59.2,188.5,982.1,-0.1,-0.5,-1.1,25,-61.3321,180.963,982.632,-0.0786783,-0.450126,-1.25875,
2026_06_26_17_09_31.941,3.87,35.6,0,0.762,0,0,0,0, ,0,0,0,0,0, ,-61.4,175.1,977.9,0.3,0.1,-0.9,25,-61.2692,181.014,982.472,-0.0677901,-0.434884,-1.24298,
2026_06_26_17_09_31.960,3.87,35.8,0,0.762,0,0,0,0, ,0,0,0,0,0, ,-77.7,173.9,973.8,0.6,0.4,-1.6,25,-61.7738,180.617,982.068,-0.0362373,-0.393149,-1.24341,
2026_06_26_17_09_31.980,3.87,35.8,0,0.763,0,0,0,0, ,0,0,0,0,0, ,-63.4,171.9,986.6,0.4,-1.6,-1.7,25,-62.3086,180.147,981.954,-0.00356033,-0.405754,-1.26818,
2026_06_26_17_09_32.000,3.87,35.6,0,0.765,0,0,0,0, ,0,0,0,0,0, ,-46.1,170.8,993.2,0.2,-1.6,-1.8,25,-61.848,179.611,982.438,0.0149379,-0.478528,-1.29755,
2026_06_26_17_09_32.020,3.87,35.7,0,0.763,0,0,0,0, ,0,0,0,0,0, ,-35,171.1,999,-1.2,-0.9,0.4,25,-60.5502,179.083,983.271,-0.0164411,-0.52554,-1.26113,
2026_06_26_17_09_32.040,3.87,35.7,0,0.765,0,0,0,0, ,0,0,0,0,0, ,-44.6,178.1,979.2,-1.5,-0.3,0.9,25,-59.2857,178.81,983.626,-0.0977049,-0.530077,-1.14467,
2026_06_26_17_09_32.060,3.87,35.6,0,0.766,0,0,0,0, ,0,0,0,0,0, ,-47.8,189.5,974.8,-0.9,-0.4,1,25,-58.4883,179.114,983.222,-0.164876,-0.519104,-1.01703,
2026_06_26_17_09_32.080,3.87,35.8,0,0.765,0,0,0,0, ,0,0,0,0,0, ,-38.6,195.6,991.9,-0.5,0.1,0.7,25,-57.5567,179.933,983.23,-0.197485,-0.496611,-0.903256,
2026_06_26_17_09_32.100,3.87,35.7,0,0.763,0,0,0,0, ,0,0,0,0,0, ,-31.2,192.6,995.6,-2.3,-0.3,-0.3,25,-56.176,180.796,983.871,-0.270763,-0.472443,-0.836027,
2026_06_26_17_09_32.120,3.87,35.8,0,0.763,0,0,0,0, ,0,0,0,0,0, ,-10.6,176.1,980.9,-3.6,-1.6,1.6,25,-54.0264,181.013,984.138,-0.434029,-0.501544,-0.745472,
2026_06_26_17_09_32.139,3.87,35.8,0,0.765,0,0,0,0, ,0,0,0,0,0, ,-12.8,165.4,979.9,-4.1,-1.5,1.2,25,-51.4471,180.387,983.91,-0.64219,-0.565434,-0.614732,
2026_06_26_17_09_32.158,3.87,35.7,0,0.763,0,0,0,0, ,0,0,0,0,0, ,-3.6,142.2,975.7,-0.2,2.3,1.6,25,-48.8118,178.767,983.538,-0.734072,-0.506603,-0.49196,
2026_06_26_17_09_32.178,3.87,35.8,0,0.762,0,0,0,0, ,0,0,0,0,0, ,-14.4,148.1,983.7,0.3,2.4,4.6,25,-46.3857,176.719,983.304,-0.686293,-0.332529,-0.273075,
2026_06_26_17_09_32.199,3.87,35.8,0,0.767,0,0,0,0, ,0,0,0,0,0, ,-17,148.5,983.3,-0.9,1.8,5.2,25,-44.5158,174.987,983.316,-0.662753,-0.184297,0.0421597,
2026_06_26_17_09_32.218,3.87,35.7,0,0.763,0,0,0,0, ,0,0,0,0,0, ,-9.3,149,988.4,-1.5,0.9,6.2,25,-42.6045,173.388,983.47,-0.695492,-0.0908004,0.386934,
2026_06_26_17_09_32.238,3.87,35.7,0,0.765,0,0,0,0, ,0,0,0,0,0, ,-1.8,135.6,985.4,-3.5,-0.5,6.9,25,-40.3465,171.494,983.679,-0.805454,-0.0730798,0.762496,
2026_06_26_17_09_32.257,3.87,35.7,0,0.765,0,0,0,0, ,0,0,0,0,0, ,28,116.5,965.5,-3,0.4,9.9,25,-37.0896,168.724,983.178,-0.954418,-0.0716734,1.22791,
2026_06_26_17_09_32.277,3.87,35.7,0,0.762,0,0,0,0, ,0,0,0,0,0, ,15.6,120.8,939.9,1.5,3.8,15.2,25,-33.501,165.673,981.321,-0.941962,0.060663,1.91785,
2026_06_26_17_09_32.297,3.87,35.8,0,0.763,0,0,0,0, ,0,0,0,0,0, ,-28.5,157.5,955.4,5.7,6.8,16.5,25,-31.8526,164.057,979.269,-0.665186,0.379935,2.76684,
2026_06_26_17_09_32.317,3.87,35.7,0,0.762,0,0,0,0, ,0,0,0,0,0, ,-57.1,180.4,960.6,5.6,7.4,16.1,25,-32.5197,164.355,977.973,-0.280354,0.789439,3.59151,
2026_06_26_17_09_32.336,3.87,35.7,0,0.764,0,0,0,0, ,0,0,0,0,0, ,-74.7,194.4,956.4,5.4,6.4,14.4,25,-34.5538,165.759,976.786,0.0718861,1.1618,4.30195,
2026_06_26_17_09_32.356,3.87,35.8,0,0.763,0,0,0,0, ,0,0,0,0,0, ,-82.1,198.9,952.1,5.1,3.4,12.9,25,-37.2257,167.642,975.413,0.387427,1.3896,4.8716,
2026_06_26_17_09_32.376,3.87,35.8,0,0.762,0,0,0,0, ,0,0,0,0,0, ,-67.7,202,978.5,6.5,4.1,13.4,25,-39.5214,169.641,974.797,0.717256,1.53343,5.37606,
2026_06_26_17_09_32.396,3.87,35.7,0,0.763,0,0,0,0, ,0,0,0,0,0, ,-105.5,218.1,979.6,6,5.7,13,25,-42.3903,172.103,975.056,1.05441,1.73858,5.85284,
2026_06_26_17_09_32.416,3.87,35.7,0,0.764,0,0,0,0, ,0,0,0,0,0, ,-129.3,227.4,970.9,5,4.6,10.4,25,-46.9612,175.19,975.068,1.32531,1.94647,6.20915,
2026_06_26_17_09_32.435,3.87,35.7,0,0.766,0,0,0,0, ,0,0,0,0,0, ,-120.7,226.5,970.8,5.6,3.1,7.6,25,-51.7167,178.344,974.811,1.56752,2.06246,6.37921,
2026_06_26_17_09_32.455,3.87,35.8,0,0.763,0,0,0,0, ,0,0,0,0,0, ,-105.9,227.9,982.7,2.9,-0.5,9.3,25,-55.4694,181.321,974.929,1.73098,2.016,6.5054,
2026_06_26_17_09_32.475,3.87,35.7,0,0.763,0,0,0,0, ,0,0,0,0,0, ,-110.2,229.6,975.9,2.5,0.1,10.1,25,-58.6736,184.211,975.195,1.79003,1.88096,6.70007,
2026_06_26_17_09_32.500,3.87,35.7,0,0.762,0,0,0,0, ,0,0,0,0,0, ,-131.9,246.2,971,2.8,-0.1,8.5,25,-62.4746,187.483,975.089,1.84244,1.76634,6.85851,
2026_06_26_17_09_32.515,3.87,35.7,0,0.764,0,0,0,0, ,0,0,0,0,0, ,-129.8,256.8,966.3,2.2,-2.2,6.2,25,-66.6412,191.384,974.696,1.88251,1.58863,6.88846,
2026_06_26_17_09_32.535,3.87,35.7,0,0.764,0,0,0,0, ,0,0,0,0,0, ,-103.6,250.1,978.6,2.4,-3.4,3.4,25,-69.6917,195.166,974.56,1.90795,1.3212,6.76119,
2026_06_26_17_09_32.555,3.87,35.7,0,0.763,0,0,0,0, ,0,0,0,0,0, ,-93.1,238.5,988.2,0.7,-4.3,3.6,25,-71.4381,198.16,975.098,1.88613,1.00608,6.56246,
2026_06_26_17_09_32.575,3.87,35.7,0,0.762,0,0,0,0, ,0,0,0,0,0, ,-89.5,229.6,979.1,1.7,-2.2,2.6,25,-72.6484,200.347,975.619,1.84432,0.746722,6.35147,
2026_06_26_17_09_32.594,3.87,35.7,0,0.763,0,0,0,0, ,0,0,0,0,0, ,-97.9,240.8,976.1,3.3,-0.9,1.4,25,-73.9312,202.471,975.74,1.88428,0.606765,6.0863,
2026_06_26_17_09_32.614,3.87,35.7,0,0.763,0,0,0,0, ,0,0,0,0,0, ,-97.9,249.8,993.2,3.1,-1.7,-0.3,25,-75.3918,205.081,976.283,1.96446,0.490572,5.74893,
2026_06_26_17_09_32.634,3.87,35.6,0,0.763,0,0,0,0, ,0,0,0,0,0, ,-84.2,250.2,1006.3,0.5,-3.8,-1.7,25,-76.346,207.818,977.713,1.95443,0.2931,5.33767,
2026_06_26_17_09_32.658,3.87,35.8,0,0.766,0,0,0,0, ,0,0,0,0,0, ,-75.6,241.6,1007.4,-1,-3.7,-2.5,25,-76.5626,210.139,979.489,1.8201,0.0467232,4.88444,
2026_06_26_17_09_32.673,3.87,35.7,0,0.764,0,0,0,0, ,0,0,0,0,0, ,-63.5,227.9,982.6,-1.2,-2.7,-3,25,-76.1352,211.638,980.434,1.64216,-0.151124,4.41921,
2026_06_26_17_09_32.693,3.87,35.8,0,0.764,0,0,0,0, ,0,0,0,0,0, ,-70.6,224.9,974.2,-0.5,-1.6,-2.9,25,-75.5816,212.538,980.31,1.49029,-0.272931,3.97015,
2026_06_26_17_09_32.713,3.87,35.7,0,0.764,0,0,0,0, ,0,0,0,0,0, ,-70.8,222.9,984,0.6,-0.7,-5,25,-75.2841,213.23,980.236,1.40252,-0.326377,3.48752,
2026_06_26_17_09_32.733,3.87,35.7,0,0.763,0,0,0,0, ,0,0,0,0,0, ,-54.5,214.1,987.7,-0.1,-1.9,-4.6,25,-74.5142,213.552,980.578,1.33229,-0.385707,2.9825,
2026_06_26_17_09_32.752,3.87,35.8,0,0.764,0,0,0,0, ,0,0,0,0,0, ,-50.9,211,988.1,-0.1,-0.8,-4.2,25,-73.1849,213.49,981.024,1.24501,-0.444469,2.53263,
2026_06_26_17_09_32.772,3.87,35.7,0,0.763,0,0,0,0, ,0,0,0,0,0, ,-60.5,203.6,965.9,0.3,0.5,-4.5,25,-72.1194,213.113,980.779,1.17524,-0.426524,2.11322,
2026_06_26_17_09_32.792,3.87,35.7,0,0.762,0,0,0,0, ,0,0,0,0,0, ,-60.7,198.2,965.8,1.5,0,-4.1,25,-71.4175,212.369,979.869,1.15847,-0.385299,1.72241,
2026_06_26_17_09_32.812,3.87,35.7,0,0.763,0,0,0,0, ,0,0,0,0,0, ,-49.8,203.4,978.2,1.4,0,-3.2,25,-70.4323,211.664,979.39,1.17623,-0.36182,1.39503,
2026_06_26_17_09_32.832,3.87,35.7,0,0.763,0,0,0,0, ,0,0,0,0,0, ,-58.2,217.1,980.4,0.3,-0.7,-1.5,25,-69.4309,211.578,979.384,1.15635,-0.361099,1.16682,
2026_06_26_17_09_32.851,3.87,35.7,0,0.765,0,0,0,0, ,0,0,0,0,0, ,-63.8,222,973.3,0.3,-0.1,-3.6,25,-68.9172,212.064,979.23,1.10417,-0.36347,0.940324,
2026_06_26_17_09_32.871,3.87,35.7,0,0.762,0,0,0,0, ,0,0,0,0,0, ,-59.4,202.3,951.6,0.2,-0.3,-3.6,25,-68.4713,212.069,978.207,1.05212,-0.353508,0.663648,
2026_06_26_17_09_32.891,3.87,35.8,0,0.763,0,0,0,0, ,0,0,0,0,0, ,-52,195.3,960,2,-0.3,-1.4,25,-67.693,211.26,976.842,1.05503,-0.350248,0.470863,
2026_06_26_17_09_32.911,3.87,35.7,0,0.763,0,0,0,0, ,0,0,0,0,0, ,-75.8,229.3,984.1,1.4,-0.9,1.2,25,-67.4619,211.324,976.55,1.09434,-0.365467,0.436076,
2026_06_26_17_09_32.931,3.87,35.7,0,0.764,0,0,0,0, ,0,0,0,0,0, ,-105.7,251.2,988.4,-1.4,-2.3,-3.2,25,-68.881,213.086,977.141,1.02765,-0.440696,0.348565,
2026_06_26_17_09_32.950,3.87,35.8,0,0.763,0,0,0,0, ,0,0,0,0,0, ,-78.9,229.4,960.8,-3.3,-3.5,-9,25,-70.3081,214.745,976.986,0.821825,-0.59056,-0.0443943,
2026_06_26_17_09_32.970,3.87,35.7,0,0.763,0,0,0,0, ,0,0,0,0,0, ,-41,194.7,949.2,-3.1,-3.6,-10.4,25,-69.6769,214.581,975.646,0.576745,-0.770901,-0.632783,
2026_06_26_17_09_32.990,3.87,35.7,0,0.764,0,0,0,0, ,0,0,0,0,0, ,-20,165.1,937.1,-1.4,-3,-8.5,25,-67.2896,212.467,973.666,0.40449,-0.925018,-1.17008,
2026_06_26_17_09_33.009,3.87,35.7,0,0.763,0,0,0,0, ,0,0,0,0,0, ,-27.9,166.1,948.4,2,-2.1,-4.8,25,-64.6486,209.611,971.782,0.398123,-1.02404,-1.50401,
2026_06_26_17_09_33.029,3.87,35.6,0,0.763,0,0,0,0, ,0,0,0,0,0, ,-36.7,195.3,990.2,0.9,-2.2,-2.4,25,-62.6773,207.849,971.631,0.462222,-1.09265,-1.63174,
2026_06_26_17_09_33.049,3.87,35.6,0,0.765,0,0,0,0, ,0,0,0,0,0, ,-32.3,219.1,1000.3,0,0.3,-3.2,25,-60.9603,207.81,973.07,0.461477,-1.08396,-1.70293,
2026_06_26_17_09_33.069,3.87,35.7,0,0.763,0,0,0,0, ,0,0,0,0,0, ,-21.8,227.4,994.7,-1.1,-1.6,-1.5,25,-58.8939,208.751,974.559,0.39984,-1.05752,-1.74236,
2026_06_26_17_09_33.089,3.87,35.7,0,0.762,0,0,0,0, ,0,0,0,0,0, ,-18.4,237.9,1023.5,-1.2,-2,1.7,25,-56.5299,210.207,976.664,0.305397,-1.10276,-1.63009,
2026_06_26_17_09_33.108,3.87,35.8,0,0.763,0,0,0,0, ,0,0,0,0,0, ,-41.1,256.9,1032.3,-3.7,0.4,1.4,25,-54.898,212.474,979.786,0.13749,-1.08431,-1.4363,
2026_06_26_17_09_33.128,3.87,35.7,0,0.764,0,0,0,0, ,0,0,0,0,0, ,-62.8,251.5,1012,-4.5,3.3,-2.9,25,-54.7183,215.016,982.368,-0.120732,-0.905502,-1.39448,
2026_06_26_17_09_33.148,3.87,35.6,0,0.765,0,0,0,0, ,0,0,0,0,0, ,-75,233.2,991.6,-5.4,4.3,-4.2,25,-55.5825,216.682,983.552,-0.415016,-0.618761,-1.52583,
2026_06_26_17_09_33.168,3.87,35.7,0,0.763,0,0,0,0, ,0,0,0,0,0, ,-69.3,216.6,1013.1,-9,4,-3,25,-56.5921,217.183,984.697,-0.828476,-0.328164,-1.65223,
2026_06_26_17_09_33.188,3.87,35.7,0,0.764,0,0,0,0, ,0,0,0,0,0, ,-79.8,203.7,1017.5,-15,7.3,-2.4,25,-57.6864,216.754,986.562,-1.50924,0.0361301,-1.71608,
2026_06_26_17_09_33.208,3.87,35.7,0,0.762,0,0,0,0, ,0,0,0,0,0, ,-67.5,188.7,1027.9,-22.3,10.3,-0.7,25,-58.6592,215.502,988.764,-2.55376,0.570178,-1.70596,
2026_06_26_17_09_33.227,3.87,35.7,0,0.763,0,0,0,0, ,0,0,0,0,0, ,-77.7,173.8,1003.7,-27.4,15,0.4,25,-59.5087,213.414,990.412,-3.91243,1.30629,-1.61114,
2026_06_26_17_09_33.247,3.87,35.7,0,0.763,0,0,0,0, ,0,0,0,0,0, ,-98.2,186.4,963.9,-28.9,14.6,0.7,25,-61.2418,211.384,990.009,-5.38941,2.12857,-1.47945,
2026_06_26_17_09_33.267,3.87,35.7,0,0.763,0,0,0,0, ,0,0,0,0,0, ,-116.4,179.8,942,-26.1,11.4,-3.4,25,-64.0485,209.661,987.751,-6.73677,2.79104,-1.47156,
2026_06_26_17_09_33.287,3.87,35.7,0,0.762,0,0,0,0, ,0,0,0,0,0, ,-104.6,174,972.9,-28.1,10.2,-5.5,25,-66.8792,207.664,985.904,-7.97766,3.27909,-1.65306,
2026_06_26_17_09_33.306,3.87,35.7,0,0.765,0,0,0,0, ,0,0,0,0,0, ,-102.2,169,965.2,-27,10.8,-7.1,25,-69.1046,205.461,984.877,-9.17035,3.71911,-1.93623,
2026_06_26_17_09_33.326,3.87,35.7,0,0.763,0,0,0,0, ,0,0,0,0,0, ,-85.9,156,1024.6,-32.8,12.9,-7.2,25,-70.6248,202.843,985.488,-10.4336,4.21459,-2.25394,
2026_06_26_17_09_33.345,3.87,35.6,0,0.762,0,0,0,0, ,0,0,0,0,0, ,-95.3,134,1007,-39.6,16.2,-7.3,25,-71.842,199.318,987.335,-12.0037,4.8444,-2.55839,
2026_06_26_17_09_33.365,3.87,35.7,0,0.762,0,0,0,0, ,0,0,0,0,0, ,-109.8,113.8,945.3,-36.3,11.8,-9.3,25,-73.7133,194.722,986.653,-13.5848,5.40232,-2.90827,
2026_06_26_17_09_33.385,3.87,35.6,0,0.763,0,0,0,0, ,0,0,0,0,0, ,-89.9,99.6,953.3,-29.6,7.2,-9.5,25,-75.306,189.358,984.377,-14.7649,5.65202,-3.30386,
2026_06_26_17_09_33.405,3.87,35.7,0,0.763,0,0,0,0, ,0,0,0,0,0, ,-87.5,84.4,959.2,-20.6,6.9,-10.1,25,-76.1222,183.426,982.663,-15.3947,5.73721,-3.69972,
2026_06_26_17_09_33.424,3.87,35.7,0,0.763,0,0,0,0, ,0,0,0,0,0, ,-99.3,75.6,933.3,-13.7,7.5,-10.5,25,-77.175,177.123,980.444,-15.5016,5.82635,-4.10192,
2026_06_26_17_09_33.445,3.87,35.7,0,0.762,0,0,0,0, ,0,0,0,0,0, ,-84.1,59.6,914.6,-6.8,1.4,-6.8,25,-78.0602,170.449,977.002,-15.1816,5.74248,-4.37907,
2026_06_26_17_09_33.463,3.87,35.7,0,0.767,0,0,0,0, ,0,0,0,0,0, ,-79.8,60.6,951.4,-1.5,-5.8,0.8,25,-78.2972,163.725,974.32,-14.5094,5.25849,-4.29503,
2026_06_26_17_09_33.484,3.87,35.7,0,0.765,0,0,0,0, ,0,0,0,0,0, ,-103.6,104.6,970.5,1.5,-4,0.4,25,-79.1139,158.781,973.506,-13.6252,4.63945,-3.99674,
2026_06_26_17_09_33.504,3.87,35.7,0,0.762,0,0,0,0, ,0,0,0,0,0, ,-132.5,98.5,948.8,6.6,-0.8,-5.6,25,-81.4866,155.294,972.661,-12.5481,4.21049,-3.91163,
2026_06_26_17_09_33.524,3.87,35.6,0,0.763,0,0,0,0, ,0,0,0,0,0, ,-112.7,83.3,969.1,6.8,-4.7,-3.9,25,-83.9919,151.37,971.826,-11.3752,3.78633,-3.96272,
2026_06_26_17_09_33.543,3.87,35.4,0,0.763,0,0,0,0, ,0,0,0,0,0, ,-79.5,86.5,1012.5,2.8,-5.7,1,25,-84.7298,147.319,972.982,-10.3895,3.23873,-3.8096,
2026_06_26_17_09_33.563,3.87,35.7,0,0.765,0,0,0,0, ,0,0,0,0,0, ,-102.7,109.6,991.3,4,-2.3,1.4,25,-85.118,144.317,974.744,-9.54922,2.79762,-3.50433,
2026_06_26_17_09_33.584,3.87,35.7,0,0.763,0,0,0,0, ,0,0,0,0,0, ,-120.9,108,986.8,4.2,-1.8,-1.1,25,-86.7439,142.152,975.616,-8.71747,2.50222,-3.28164,
2026_06_26_17_09_33.604,3.87,35.7,0,0.763,0,0,0,0, ,0,0,0,0,0, ,-111,107,1005.3,4,-2.5,-2.3,25,-88.5236,140.041,976.861,-7.9364,2.21872,-3.18526,
2026_06_26_17_09_33.623,3.87,35.7,0,0.765,0,0,0,0, ,0,0,0,0,0, ,-86.3,101.8,1026.2,1.1,-1.9,-0.3,25,-89.1407,137.869,979.231,-7.29739,1.94946,-3.07038,
2026_06_26_17_09_33.643,3.87,35.6,0,0.765,0,0,0,0, ,0,0,0,0,0, ,-101.3,103.5,1010.6,0.1,-0.6,1.3,25,-89.4246,135.723,981.618,-6.81614,1.75449,-2.85281,
2026_06_26_17_09_33.662,3.87,35.7,0,0.766,0,0,0,0, ,0,0,0,0,0, ,-118.2,113,999.5,-0.4,-1.6,0.4,25,-90.6632,134.049,983.046,-6.40992,1.58054,-2.62717,
2026_06_26_17_09_33.683,3.87,35.7,0,0.763,0,0,0,0, ,0,0,0,0,0, ,-113.4,112.5,1005.2,0,-1.4,-2.4,25,-92.195,132.751,984.222,-6.03151,1.39282,-2.52801,
2026_06_26_17_09_33.702,3.87,35.7,0,0.763,0,0,0,0, ,0,0,0,0,0, ,-96.8,109.1,1010.2,-0.9,-1,-2.3,25,-92.9814,131.413,985.653,-5.69138,1.23482,-2.51716,
2026_06_26_17_09_33.722,3.87,35.7,0,0.763,0,0,0,0, ,0,0,0,0,0, ,-99.4,100.7,991.5,-1,-2,-1,25,-93.2933,129.798,986.579,-5.40246,1.06817,-2.46432,
2026_06_26_17_09_33.741,3.87,35.7,0,0.763,0,0,0,0, ,0,0,0,0,0, ,-106,103.7,990.1,0,-3,-0.7,25,-93.8665,128.116,986.836,-5.10371,0.850734,-2.36595,
2026_06_26_17_09_33.768,3.87,35.7,0,0.766,0,0,0,0, ,0,0,0,0,0, ,-99.7,104.3,999.7,0.1,-0.7,-1.7,25,-94.414,126.646,987.327,-4.78966,0.686158,-2.2949,
2026_06_26_17_09_33.781,3.87,35.7,0,0.762,0,0,0,0, ,0,0,0,0,0, ,-96.9,110.8,1007,-0.7,-0.2,-1.2,25,-94.6508,125.483,988.304,-4.51607,0.616924,-2.24341,
2026_06_26_17_09_33.801,3.87,35.7,0,0.763,0,0,0,0, ,0,0,0,0,0, ,-105.1,111,1003.2,-1.4,-0.5,-2.1,25,-95.0377,124.594,989.327,-4.30486,0.558002,-2.20725,
2026_06_26_17_09_33.821,3.87,35.6,0,0.763,0,0,0,0, ,0,0,0,0,0, ,-100.5,99.9,991.4,-2.3,-0.3,-3.1,25,-95.5107,123.427,989.813,-4.15526,0.499623,-2.23118,
2026_06_26_17_09_33.841,3.87,35.6,0,0.763,0,0,0,0, ,0,0,0,0,0, ,-97.5,92.8,979.1,-1.3,0.4,-2.7,25,-95.7233,121.777,989.535,-4.01174,0.472224,-2.27194,
2026_06_26_17_09_33.860,3.87,35.6,0,0.763,0,0,0,0, ,0,0,0,0,0, ,-102.9,90,975,-0.8,0.5,-1.8,25,-95.9961,119.926,988.774,-3.83126,0.47087,-2.2706,
2026_06_26_17_09_33.880,3.87,35.7,0,0.762,0,0,0,0, ,0,0,0,0,0, ,-105.1,100,983.8,0.9,1.5,-2.3,25,-96.4839,118.407,988.203,-3.59474,0.503114,-2.25716,
2026_06_26_17_09_33.899,3.87,35.7,0,0.762,0,0,0,0, ,0,0,0,0,0, ,-100.7,101.8,989.8,0.8,0.9,-2.1,25,-96.8748,117.34,988.118,-3.32389,0.545581,-2.25368,
2026_06_26_17_09_33.919,3.87,35.7,0,0.763,0,0,0,0, ,0,0,0,0,0, ,-111.3,110.5,986.6,1.1,-0.9,-2.1,25,-97.4309,116.658,988.123,-3.06345,0.512334,-2.24431,
2026_06_26_17_09_33.939,3.87,35.4,0,0.763,0,0,0,0, ,0,0,0,0,0, ,-101.5,115.4,993.7,0,-0.8,-2.9,25,-97.9775,116.433,988.246,-2.84326,0.429317,-2.25989,
2026_06_26_17_09_33.959,3.87,35.6,0,0.763,0,0,0,0, ,0,0,0,0,0, ,-99.7,110.3,991.6,-0.1,0,-2.8,25,-98.1373,116.214,988.514,-2.67304,0.37878,-2.29585,
2026_06_26_17_09_33.979,3.87,35.6,0,0.765,0,0,0,0, ,0,0,0,0,0, ,-100.3,108.7,992.3,0.7,0.4,-3.1,25,-98.2508,115.805,988.724,-2.49187,0.367886,-2.33572,
2026_06_26_17_09_33.998,3.87,35.7,0,0.764,0,0,0,0, ,0,0,0,0,0, ,-103,98.9,991,1,0.4,-2.6,25,-98.4579,115.073,988.902,-2.28823,0.369843,-2.36705,
2026_06_26_17_09_34.019,3.87,35.7,0,0.765,0,0,0,0, ,0,0,0,0,0, ,-106.6,101.8,1003.1,0.1,-0.3,-2.2,25,-98.8444,114.176,989.399,-2.11527,0.350353,-2.36906,
2026_06_26_17_09_34.038,3.87,35.7,0,0.765,0,0,0,0, ,0,0,0,0,0, ,-109.2,109,999.2,-0.6,-0.9,-2.9,25,-99.3962,113.641,990.115,-2.00161,0.29244,-2.38009,
2026_06_26_17_09_34.058,3.87,35.7,0,0.765,0,0,0,0, ,0,0,0,0,0, ,-102.5,97.5,988.1,-0.2,0.3,-4.1,25,-99.7895,113.008,990.33,-1.90401,0.256339,-2.44833,
2026_06_26_17_09_34.078,3.87,35.7,0,0.764,0,0,0,0, ,0,0,0,0,0, ,-102,95.5,977.1,0.3,0.6,-2.8,25,-99.9394,112.002,989.859,-1.78494,0.26814,-2.50937,
2026_06_26_17_09_34.102,3.87,35.7,0,0.765,0,0,0,0, ,0,0,0,0,0, ,-106.3,102,983,0.5,-0.2,-2.4,25,-100.196,111.195,989.261,-1.65179,0.263988,-2.51489,
2026_06_26_17_09_34.117,3.87,35.7,0,0.763,0,0,0,0, ,0,0,0,0,0, ,-105.3,106.4,990.7,-0.5,-0.8,-2.6,25,-100.538,110.768,989.114,-1.55114,0.217432,-2.51399,
2026_06_26_17_09_34.138,3.87,35.6,0,0.764,0,0,0,0, ,0,0,0,0,0, ,-104.4,104.8,979.9,-0.7,-1.2,-3.1,25,-100.8,110.454,988.882,-1.49318,0.143245,-2.53446,
2026_06_26_17_09_34.157,3.87,35.6,0,0.763,0,0,0,0, ,0,0,0,0,0, ,-98.3,102.1,989,-0.1,-0.5,-3.3,25,-100.834,110.027,988.612,-1.42656,0.082719,-2.57502,
2026_06_26_17_09_34.176,3.87,35.7,0,0.764,0,0,0,0, ,0,0,0,0,0, ,-99.4,98,989.1,0.2,0.4,-3.5,25,-100.713,109.419,988.639,-1.33658,0.0746314,-2.62529,
2026_06_26_17_09_34.196,3.87,35.6,0,0.763,0,0,0,0, ,0,0,0,0,0, ,-101.8,103.2,989.7,-0.3,-0.7,-2.5,25,-100.706,108.881,988.685,-1.25818,0.0609429,-2.64812,
2026_06_26_17_09_34.216,3.87,35.6,0,0.764,0,0,0,0, ,0,0,0,0,0, ,-102.4,103,987.1,-1.4,-1.5,-2.1,25,-100.791,108.529,988.668,-1.23331,-0.00980201,-2.62691,
2026_06_26_17_09_34.236,3.87,35.6,0,0.763,0,0,0,0, ,0,0,0,0,0, ,-100.8,100,989.3,-1.2,-2,-2.1,25,-100.84,108.101,988.639,-1.23737,-0.115845,-2.5948,
2026_06_26_17_09_34.256,3.87,35.7,0,0.763,0,0,0,0, ,0,0,0,0,0, ,-94.7,100.8,995.1,-1.7,-0.9,-1.9,25,-100.652,107.631,988.856,-1.25033,-0.197145,-2.55856,
2026_06_26_17_09_34.277,3.87,35.7,0,0.765,0,0,0,0, ,0,0,0,0,0, ,-101.3,101.3,992,-0.2,1.8,-2.4,25,-100.49,107.23,989.142,-1.23203,-0.15771,-2.53366,
2026_06_26_17_09_34.296,3.87,35.6,0,0.765,0,0,0,0, ,0,0,0,0,0, ,-115.9,109.9,989.5,0.5,0.4,-2.5,25,-100.985,107.131,989.24,-1.14781,-0.0810682,-2.52856,
2026_06_26_17_09_34.315,3.87,35.7,0,0.763,0,0,0,0, ,0,0,0,0,0, ,-109.1,107.5,1004.2,-1.8,-1.6,-3,25,-101.686,107.227,989.704,-1.11748,-0.112691,-2.54206,
2026_06_26_17_09_34.335,3.87,35.6,0,0.765,0,0,0,0, ,0,0,0,0,0, ,-105.7,101.6,993,-3.5,-2,-3.1,25,-102.034,107.064,990.246,-1.21086,-0.215511,-2.57301,
2026_06_26_17_09_34.355,3.87,35.6,0,0.765,0,0,0,0, ,0,0,0,0,0, ,-103.2,100.5,981.4,-0.6,-0.9,-5.1,25,-102.182,106.697,990.06,-1.262,-0.290738,-2.66606,
2026_06_26_17_09_34.375,3.87,35.6,0,0.766,0,0,0,0, ,0,0,0,0,0, ,-93.1,90.8,976,0.8,-1.8,-3,25,-101.936,106.024,989.368,-1.179,-0.355287,-2.75039,
2026_06_26_17_09_34.395,3.87,35.7,0,0.763,0,0,0,0, ,0,0,0,0,0, ,-99.6,94.2,980.7,1.5,-3.3,-0.7,25,-101.596,105.2,988.697,-1.03708,-0.489027,-2.69553,
2026_06_26_17_09_34.414,3.87,35.6,0,0.764,0,0,0,0, ,0,0,0,0,0, ,-100.3,99.4,997.3,0.1,-3.3,-0.6,25,-101.495,104.688,988.715,-0.925132,-0.66032,-2.57088,
2026_06_26_17_09_34.434,3.87,35.8,0,0.764,0,0,0,0, ,0,0,0,0,0, ,-101.9,104.1,986.5,0.8,-2.7,-1.3,25,-101.471,104.509,988.909,-0.841335,-0.802895,-2.4721,
2026_06_26_17_09_34.454,3.87,35.7,0,0.764,0,0,0,0, ,0,0,0,0,0, ,-93.2,103.1,999.3,-3,-4.4,0,25,-101.232,104.454,989.152,-0.857097,-0.970296,-2.36107,
2026_06_26_17_09_34.474,3.87,35.7,0,0.765,0,0,0,0, ,0,0,0,0,0, ,-98.6,101.8,970.3,-4.9,-4,1.1,25,-100.907,104.331,988.887,-1.04557,-1.16711,-2.18368,
2026_06_26_17_09_34.494,3.87,35.7,0,0.764,0,0,0,0, ,0,0,0,0,0, ,-101.6,108.1,981.6,-3.5,-4.2,0.1,25,-100.858,104.369,988.099,-1.23779,-1.34583,-2.01405,
2026_06_26_17_09_34.513,3.87,35.6,0,0.764,0,0,0,0, ,0,0,0,0,0, ,-83.1,104.9,1027.2,-6.9,-2.9,-0.6,25,-100.34,104.499,989.092,-1.47924,-1.48015,-1.90655,
2026_06_26_17_09_34.533,3.87,35.7,0,0.761,0,0,0,0, ,0,0,0,0,0, ,-62.2,115.1,1076.9,-17.3,3.4,0.5,25,-98.6523,104.834,992.929,-2.12644,-1.37472,-1.79342,
2026_06_26_17_09_34.552,3.87,35.7,0,0.763,0,0,0,0, ,0,0,0,0,0, ,-103.2,102.1,1027.5,-23.8,9,-1,25,-97.6802,105.064,996.541,-3.24913,-0.913131,-1.69936,
2026_06_26_17_09_34.573,3.87,35.7,0,0.763,0,0,0,0, ,0,0,0,0,0, ,-123.7,79.9,983.6,-29.1,3.8,-2.4,25,-98.6412,104.207,997.09,-4.66293,-0.467487,-1.6994,
2026_06_26_17_09_34.592,3.87,35.6,0,0.763,0,0,0,0, ,0,0,0,0,0, ,-104.1,61,975.5,-26.8,-2.1,-4.9,25,-99.571,102.15,996.021,-6.08199,-0.387203,-1.81827,
2026_06_26_17_09_34.612,3.87,35.6,0,0.763,0,0,0,0, ,0,0,0,0,0, ,-68.6,49.8,1010.1,-20.3,1.7,-6.2,25,-98.7654,99.3008,995.824,-7.14644,-0.375795,-2.04567,
2026_06_26_17_09_34.632,3.87,35.7,0,0.764,0,0,0,0, ,0,0,0,0,0, ,-57.3,56.3,1035.5,-20.8,6.9,-5.4,25,-96.5829,96.4824,997.468,-7.96322,-0.0908641,-2.27445,
2026_06_26_17_09_34.652,3.87,35.7,0,0.764,0,0,0,0, ,0,0,0,0,0, ,-88,49.5,1020.1,-22.9,18.5,-5.3,25,-95.1245,93.8266,999.317,-8.80945,0.688579,-2.46187,
2026_06_26_17_09_34.672,3.87,35.6,0,0.763,0,0,0,0, ,0,0,0,0,0, ,-145.1,38.4,931.5,-20.9,13.2,-7.1,25,-96.4301,90.7873,997.884,-9.60715,1.61248,-2.68966,
2026_06_26_17_09_34.691,3.87,35.6,0,0.764,0,0,0,0, ,0,0,0,0,0, ,-129.3,20.2,920.8,-16,1,-5.5,25,-98.9145,87.0404,993.512,-10.146,1.94687,-2.90966,
2026_06_26_17_09_34.711,3.87,35.7,0,0.763,0,0,0,0, ,0,0,0,0,0, ,-115.4,18.1,939.5,-9.7,-0.6,-3.4,25,-100.343,82.9033,989.651,-10.3108,1.84042,-3.00353,
2026_06_26_17_09_34.731,3.87,35.7,0,0.763,0,0,0,0, ,0,0,0,0,0, ,-122.5,24.7,949,-3.4,0,-3,25,-101.476,79.1555,986.885,-10.0816,1.70999,-3.0155,
2026_06_26_17_09_34.750,3.87,35.7,0,0.762,0,0,0,0, ,0,0,0,0,0, ,-134.8,25.3,941.6,1.7,-1.7,-3.5,25,-103.132,75.8554,984.35,-9.51906,1.55399,-3.02979,
2026_06_26_17_09_34.770,3.87,35.7,0,0.763,0,0,0,0, ,0,0,0,0,0, ,-136.8,20.6,940.7,7.3,-7.5,-2.7,25,-105.123,72.6314,981.718,-8.66478,1.17898,-3.03407,
2026_06_26_17_09_34.791,3.87,35.6,0,0.763,0,0,0,0, ,0,0,0,0,0, ,-135.9,37.8,971.9,11.4,-13.4,-2,25,-107.026,69.9848,980.169,-7.567,0.470342,-2.99238,
2026_06_26_17_09_34.810,3.87,35.6,0,0.763,0,0,0,0, ,0,0,0,0,0, ,-96,54.5,1046.1,10,-10.7,-2.1,25,-107.57,68.5324,981.926,-6.45386,-0.292616,-2.93496,
2026_06_26_17_09_34.830,3.87,35.6,0,0.763,0,0,0,0, ,0,0,0,0,0, ,-85.6,46.9,1071.1,3.5,-1.9,-0.1,25,-106.548,67.4457,986.598,-5.64925,-0.658691,-2.82314,
2026_06_26_17_09_34.849,3.87,35.6,0,0.763,0,0,0,0, ,0,0,0,0,0, ,-125.4,46.2,1007.3,1,-3.3,0,25,-106.484,66.1724,989.804,-5.16789,-0.776989,-2.65415,
2026_06_26_17_09_34.870,3.87,35.7,0,0.763,0,0,0,0, ,0,0,0,0,0, ,-113.7,50.2,1017,0.8,-5.3,-1.6,25,-107.28,65.0772,991.165,-4.79812,-0.991673,-2.54116,
2026_06_26_17_09_34.889,3.87,35.6,0,0.763,0,0,0,0, ,0,0,0,0,0, ,-103.3,52.3,1028.9,1.9,-2.4,-2.8,25,-107.355,64.2346,993.102,-4.42347,-1.16585,-2.52037,
2026_06_26_17_09_34.909,3.87,35.6,0,0.763,0,0,0,0, ,0,0,0,0,0, ,-98.3,60.4,1026.9,-0.8,-0.8,-3,25,-106.955,63.7541,995.223,-4.1204,-1.19231,-2.54351,
2026_06_26_17_09_34.929,3.87,35.6,0,0.761,0,0,0,0, ,0,0,0,0,0, ,-91.9,45,1007.4,-3.1,-0.2,-2.5,25,-106.233,63.0805,996.559,-3.98814,-1.15012,-2.55609,
2026_06_26_17_09_34.949,3.87,35.7,0,0.763,0,0,0,0, ,0,0,0,0,0, ,-102.2,35.2,992.6,-2,-1,-3,25,-105.673,61.6802,996.769,-3.90051,-1.1166,-2.56791,
2026_06_26_17_09_34.968,3.87,35.6,0,0.765,0,0,0,0, ,0,0,0,0,0, ,-96.1,37.2,993.6,-2.7,-2.8,-2.6,25,-105.276,60.1275,996.545,-3.80602,-1.16434,-2.58205,
2026_06_26_17_09_34.988,3.87,35.4,0,0.765,0,0,0,0, ,0,0,0,0,0, ,-80.2,35.6,990.2,-0.7,-1.3,-2.6,25,-104.232,58.6816,996.262,-3.67769,-1.21831,-2.58314,
2026_06_26_17_09_35.008,3.87,35.6,0,0.763,0,0,0,0, ,0,0,0,0,0, ,-76.9,36.6,1005.1,-1.3,0.5,-0.8,25,-102.667,57.3055,996.347,-3.51452,-1.16844,-2.52933,
2026_06_26_17_09_35.028,3.87,35.6,0,0.763,0,0,0,0, ,0,0,0,0,0, ,-97.5,36.4,993.8,-0.6,2.5,-0.8,25,-101.725,56.0377,996.536,-3.35824,-1.00583,-2.42395,
2026_06_26_17_09_35.047,3.87,35.7,0,0.765,0,0,0,0, ,0,0,0,0,0, ,-106.9,36.4,984.6,-1.2,0,-0.9,25,-101.753,54.841,996.089,-3.20844,-0.868368,-2.32803,
2026_06_26_17_09_35.068,3.87,35.7,0,0.762,0,0,0,0, ,0,0,0,0,0, ,-95,36,995.4,-2.5,-2.7,0.1,25,-101.705,53.7051,995.718,-3.12566,-0.897717,-2.21054,
2026_06_26_17_09_35.087,3.87,35.7,0,0.762,0,0,0,0, ,0,0,0,0,0, ,-96.3,44.4,1003.4,1.4,-0.6,-0.9,25,-101.336,52.8821,995.942,-2.96871,-0.94356,-2.10021,
2026_06_26_17_09_35.107,3.87,35.6,0,0.765,0,0,0,0, ,0,0,0,0,0, ,-106,42.9,992.6,0.8,0.5,-1.3,25,-101.324,52.3195,996.067,-2.72077,-0.889108,-2.03926,
2026_06_26_17_09_35.130,3.87,35.7,0,0.767,0,0,0,0, ,0,0,0,0,0, ,-109.9,32.1,984.2,-0.5,-1.1,-1.2,25,-101.728,51.4165,995.6,-2.54583,-0.853209,-1.99117,
2026_06_26_17_09_35.147,3.87,35.6,0,0.761,0,0,0,0, ,0,0,0,0,0, ,-102.5,32.8,981,0.9,-2.4,-0.7,25,-102.001,50.2607,994.808,-2.37851,-0.907858,-1.92772,
2026_06_26_17_09_35.166,3.87,35.6,0,0.765,0,0,0,0, ,0,0,0,0,0, ,-102,46.6,991.8,2.7,-1.2,-0.3,25,-102.016,49.6171,994.296,-2.12388,-0.962223,-1.84072,
2026_06_26_17_09_35.186,3.87,35.6,0,0.765,0,0,0,0, ,0,0,0,0,0, ,-108.6,49.8,1000.4,1.1,-0.9,-0.7,25,-102.216,49.5308,994.406,-1.87868,-0.967572,-1.75902,
2026_06_26_17_09_35.206,3.87,35.6,0,0.765,0,0,0,0, ,0,0,0,0,0, ,-107.6,47.1,992.6,-0.1,-1.8,-1.5,25,-102.574,49.4649,994.533,-1.73372,-0.990876,-1.71886,
2026_06_26_17_09_35.226,3.87,35.6,0,0.765,0,0,0,0, ,0,0,0,0,0, ,-100.5,37.7,986.4,1.2,-0.9,-2,25,-102.664,49.0344,994.227,-1.59456,-1.01276,-1.72076,
2026_06_26_17_09_35.246,3.87,35.6,0,0.762,0,0,0,0, ,0,0,0,0,0, ,-98.9,42.7,990.8,2.3,0,-1.7,25,-102.484,48.4961,993.884,-1.39075,-0.978467,-1.72863,
2026_06_26_17_09_35.265,3.87,35.6,0,0.763,0,0,0,0, ,0,0,0,0,0, ,-105.9,54,1000.9,1.4,0,-1.7,25,-102.479,48.4872,994.003,-1.19327,-0.918841,-1.72689,
2026_06_26_17_09_35.285,3.87,35.6,0,0.765,0,0,0,0, ,0,0,0,0,0, ,-110.9,54.9,994.6,2,0,-2.9,25,-102.839,48.8505,994.232,-1.01696,-0.862849,-1.76181,
2026_06_26_17_09_35.305,3.87,35.7,0,0.763,0,0,0,0, ,0,0,0,0,0, ,-106.4,44.9,993.1,1.7,-1.6,-4.4,25,-103.194,48.9145,994.209,-0.842254,-0.85902,-1.87687,
2026_06_26_17_09_35.325,3.87,35.6,0,0.765,0,0,0,0, ,0,0,0,0,0, ,-93,35.5,992.7,0,-1.9,-2.8,25,-102.981,48.3834,994.129,-0.739132,-0.913314,-1.98188,
2026_06_26_17_09_35.345,3.87,35.6,0,0.761,0,0,0,0, ,0,0,0,0,0, ,-92.1,37.2,993.2,1.1,0.4,-1.5,25,-102.345,47.6501,994.057,-0.660576,-0.903362,-1.99212,
2026_06_26_17_09_35.364,3.87,35.6,0,0.763,0,0,0,0, ,0,0,0,0,0, ,-105.2,55.9,1001,1,0,-0.9,25,-102.12,47.5831,994.242,-0.556338,-0.836126,-1.94385,
2026_06_26_17_09_35.384,3.87,35.7,0,0.765,0,0,0,0, ,0,0,0,0,0, ,-107.6,59.4,1005.6,-0.3,-1,-3.2,25,-102.381,48.1966,994.794,-0.501108,-0.815643,-1.95032,
2026_06_26_17_09_35.404,3.87,35.6,0,0.765,0,0,0,0, ,0,0,0,0,0, ,-89.4,44.9,1002.1,-1.8,-0.8,-3.6,25,-102.144,48.4375,995.346,-0.534556,-0.820784,-2.03866,
2026_06_26_17_09_35.423,3.87,35.6,0,0.765,0,0,0,0, ,0,0,0,0,0, ,-90,39.7,985.7,-0.8,0,-2.8,25,-101.386,48.0635,995.258,-0.5812,-0.795142,-2.10943,
2026_06_26_17_09_35.443,3.87,35.6,0,0.763,0,0,0,0, ,0,0,0,0,0, ,-92.6,46.6,995.7,-0.5,0.3,-1.7,25,-100.771,47.7641,994.98,-0.585393,-0.737547,-2.118,
2026_06_26_17_09_35.463,3.87,35.4,0,0.763,0,0,0,0, ,0,0,0,0,0, ,-101.4,48.2,992.7,-0.8,-0.1,-1.8,25,-100.541,47.7419,994.933,-0.58933,-0.686509,-2.09557,
2026_06_26_17_09_35.483,3.87,35.6,0,0.764,0,0,0,0, ,0,0,0,0,0, ,-101.3,43.5,992.3,-1.7,-1.2,-2.1,25,-100.591,47.6266,994.784,-0.629589,-0.684285,-2.0867,
2026_06_26_17_09_35.502,3.87,35.7,0,0.765,0,0,0,0, ,0,0,0,0,0, ,-95.7,40.2,990.3,-1,-0.3,-2.7,25,-100.463,47.2746,994.572,-0.673489,-0.688289,-2.10579,
2026_06_26_17_09_35.522,3.87,35.6,0,0.762,0,0,0,0, ,0,0,0,0,0, ,-95.5,36.6,988.4,0.5,0.6,-2.1,25,-100.167,46.7338,994.254,-0.647683,-0.637206,-2.12372,
2026_06_26_17_09_35.542,3.87,35.6,0,0.763,0,0,0,0, ,0,0,0,0,0, ,-100.2,43,989.6,0,-1,-0.4,25,-100.026,46.3113,993.934,-0.59298,-0.610564,-2.07048,
2026_06_26_17_09_35.561,3.87,35.6,0,0.763,0,0,0,0, ,0,0,0,0,0, ,-104.2,52.4,1002.4,0,-0.7,-0.7,25,-100.158,46.3959,994.06,-0.556846,-0.625154,-1.97782,
2026_06_26_17_09_35.581,3.87,35.6,0,0.762,0,0,0,0, ,0,0,0,0,0, ,-106.3,58.3,1007.4,-1.2,-0.1,-2.1,25,-100.469,46.9415,994.72,-0.559475,-0.611434,-1.94261,
2026_06_26_17_09_35.602,3.87,35.6,0,0.766,0,0,0,0, ,0,0,0,0,0, ,-105.7,52.1,999.3,-1.3,-1,-2.8,25,-100.806,47.4448,995.246,-0.601554,-0.60769,-1.97353,
2026_06_26_17_09_35.621,3.87,35.6,0,0.763,0,0,0,0, ,0,0,0,0,0, ,-100.9,49.9,1002.5,-0.6,-1.4,-2.4,25,-100.958,47.6614,995.591,-0.622788,-0.643784,-2.01171,
2026_06_26_17_09_35.641,3.87,35.6,0,0.765,0,0,0,0, ,0,0,0,0,0, ,-99.6,48.3,1010.6,-1.3,-0.7,-2.6,25,-100.915,47.7491,996.259,-0.642727,-0.668538,-2.04146,
2026_06_26_17_09_35.661,3.87,35.6,0,0.763,0,0,0,0, ,0,0,0,0,0, ,-100.4,41.5,1004.6,-1.3,-0.5,-2.8,25,-100.859,47.5755,996.95,-0.68278,-0.664361,-2.08159,
2026_06_26_17_09_35.680,3.87,35.7,0,0.763,0,0,0,0, ,0,0,0,0,0, ,-95.7,37.2,1012.9,-2,0.2,-3.2,25,-100.688,47.0742,997.669,-0.74172,-0.633018,-2.13756,
2026_06_26_17_09_35.702,3.87,35.4,0,0.763,0,0,0,0, ,0,0,0,0,0, ,-98.5,36,1000,-2,0.6,-3.1,25,-100.469,46.436,998.204,-0.818396,-0.570068,-2.19925,
2026_06_26_17_09_35.720,3.87,35.4,0,0.764,0,0,0,0, ,0,0,0,0,0, ,-97.9,40.4,986.9,-2.5,-0.7,-2.3,25,-100.331,45.9341,997.914,-0.905634,-0.538376,-2.22977,
2026_06_26_17_09_35.740,3.87,35.6,0,0.763,0,0,0,0, ,0,0,0,0,0, ,-92.8,43.2,984.7,-2,-0.9,-2.2,25,-100.027,45.6822,997.176,-0.987557,-0.554319,-2.231,
2026_06_26_17_09_35.759,3.87,35.6,0,0.763,0,0,0,0, ,0,0,0,0,0, ,-95,44.7,990.4,-0.8,1.1,-2.7,25,-99.6538,45.5766,996.589,-1.01269,-0.514447,-2.24435,
2026_06_26_17_09_35.779,3.87,35.6,0,0.765,0,0,0,0, ,0,0,0,0,0, ,-96.6,43.4,986.2,-1.8,1.3,-2.5,25,-99.419,45.4836,996.084,-1.0302,-0.409972,-2.26602,
2026_06_26_17_09_35.800,3.87,35.4,0,0.765,0,0,0,0, ,0,0,0,0,0, ,-102.7,44,985.3,-1.1,0.5,-2.4,25,-99.4331,45.3749,995.454,-1.05578,-0.330146,-2.27723,
2026_06_26_17_09_35.819,3.87,35.6,0,0.766,0,0,0,0, ,0,0,0,0,0, ,-95.3,35.1,988.2,-0.3,-0.2,-2.9,25,-99.4067,45.0199,994.924,-1.0341,-0.300887,-2.29995,
2026_06_26_17_09_35.839,3.87,35.4,0,0.763,0,0,0,0, ,0,0,0,0,0, ,-93.5,34.3,990.9,-1.8,-1.4,-1.2,25,-99.1016,44.3911,994.597,-1.03507,-0.331302,-2.28471,
2026_06_26_17_09_35.859,3.87,35.6,0,0.764,0,0,0,0, ,0,0,0,0,0, ,-92,31.3,996.5,-2.8,-0.5,-0.5,25,-98.7145,43.6847,994.542,-1.11215,-0.369004,-2.19729,
2026_06_26_17_09_35.878,3.87,35.6,0,0.765,0,0,0,0, ,0,0,0,0,0, ,-98.7,34,990.2,-2.2,1.7,-0.6,25,-98.5095,43.0123,994.469,-1.19672,-0.309955,-2.0969,
2026_06_26_17_09_35.898,3.87,35.6,0,0.764,0,0,0,0, ,0,0,0,0,0, ,-113.7,46.5,992.9,-0.8,1.1,-0.5,25,-98.9781,42.844,994.291,-1.2152,-0.205755,-2.00264,
2026_06_26_17_09_35.918,3.87,35.4,0,0.763,0,0,0,0, ,0,0,0,0,0, ,-110.9,51.8,1013.6,-4.2,0,-0.8,25,-99.7899,43.2282,994.837,-1.2935,-0.159701,-1.92021,
2026_06_26_17_09_35.938,3.87,35.6,0,0.763,0,0,0,0, ,0,0,0,0,0, ,-105.4,46.1,1007,-7.4,1.1,-1.4,25,-100.299,43.5769,995.78,-1.56811,-0.116453,-1.87023,
2026_06_26_17_09_35.958,3.87,35.7,0,0.765,0,0,0,0, ,0,0,0,0,0, ,-112.5,37.4,983.7,-7.2,0.9,-1.7,25,-100.827,43.4656,995.753,-1.9174,-0.0484196,-1.85072,
2026_06_26_17_09_35.977,3.87,35.4,0,0.766,0,0,0,0, ,0,0,0,0,0, ,-102.9,36.4,1002.4,-8.7,-1,-0.1,25,-101.245,43.0655,995.589,-2.28501,-0.0485159,-1.79278,
2026_06_26_17_09_35.997,3.87,35.7,0,0.764,0,0,0,0, ,0,0,0,0,0, ,-91.9,34.4,1035.7,-15.1,2.5,1.3,25,-101.011,42.5984,997.018,-2.87092,0.00014364,-1.64697,
2026_06_26_17_09_36.017,3.87,35.4,0,0.764,0,0,0,0, ,0,0,0,0,0, ,-120.9,34.5,996.9,-17.3,2.8,-0.3,25,-101.339,42.1018,998.193,-3.68316,0.161619,-1.51614,
2026_06_26_17_09_36.037,3.87,35.7,0,0.764,0,0,0,0, ,0,0,0,0,0, ,-130.1,26.7,980.9,-19,0.3,-2,25,-102.812,41.4009,997.627,-4.56474,0.246224,-1.49383,
2026_06_26_17_09_36.056,3.87,35.6,0,0.761,0,0,0,0, ,0,0,0,0,0, ,-114.2,16.2,982.1,-20,-3.1,-2.8,25,-103.99,40.1852,996.644,-5.47485,0.145907,-1.54905,
2026_06_26_17_09_36.077,3.87,35.6,0,0.763,0,0,0,0, ,0,0,0,0,0, ,-103.7,0.4,983.5,-17.2,-2.8,-3.3,25,-104.292,38.2422,995.801,-6.27467,-0.0427499,-1.64051,
2026_06_26_17_09_36.096,3.87,35.4,0,0.763,0,0,0,0, ,0,0,0,0,0, ,-105.2,-3,986.5,-16.3,-1.1,-3.2,25,-104.302,35.8326,995.142,-6.91301,-0.158973,-1.73859,
2026_06_26_17_09_36.116,3.87,35.4,0,0.764,0,0,0,0, ,0,0,0,0,0, ,-115.1,-7.6,972.9,-14.9,-2.8,-4.4,25,-104.658,33.3261,994.201,-7.44237,-0.268114,-1.86421,
2026_06_26_17_09_36.136,3.87,35.6,0,0.763,0,0,0,0, ,0,0,0,0,0, ,-101,-17.5,962.1,-10.8,-2.6,-5.4,25,-104.865,30.5305,992.574,-7.7719,-0.416307,-2.0492,
2026_06_26_17_09_36.155,3.87,35.6,0,0.764,0,0,0,0, ,0,0,0,0,0, ,-98.1,-24,967,-5,-0.2,-5.5,25,-104.541,27.4056,990.867,-7.7797,-0.47625,-2.25644,
2026_06_26_17_09_36.175,3.87,35.4,0,0.763,0,0,0,0, ,0,0,0,0,0, ,-107.2,-25.5,960.6,0,-3.5,-4.3,25,-104.426,24.2274,989.217,-7.45797,-0.559963,-2.41753,
2026_06_26_17_09_36.195,3.87,35.4,0,0.764,0,0,0,0, ,0,0,0,0,0, ,-98,-16.6,990.2,2.1,-6.9,-3.3,25,-104.315,21.4683,988.375,-6.93952,-0.842716,-2.50178,
2026_06_26_17_09_36.215,3.87,35.4,0,0.764,0,0,0,0, ,0,0,0,0,0, ,-96.4,-9.2,1006.2,3.7,-5.4,-4.5,25,-103.881,19.374,988.974,-6.33992,-1.16613,-2.58698,
2026_06_26_17_09_36.235,3.87,35.6,0,0.764,0,0,0,0, ,0,0,0,0,0, ,-87,-12,1014.7,3.3,-2.3,-4.2,25,-103.139,17.5474,990.283,-5.7403,-1.32968,-2.69441,
2026_06_26_17_09_36.254,3.87,35.6,0,0.763,0,0,0,0, ,0,0,0,0,0, ,-101.6,-13.9,1002,3,-1.8,-3.4,25,-102.6,15.689,991.384,-5.19855,-1.37357,-2.76179,
2026_06_26_17_09_36.274,3.87,35.7,0,0.763,0,0,0,0, ,0,0,0,0,0, ,-99.3,-6.7,1010.6,2.3,-3.3,-2.9,25,-102.469,14.1053,992.293,-4.72028,-1.44526,-2.78544,
2026_06_26_17_09_36.294,3.87,35.6,0,0.764,0,0,0,0, ,0,0,0,0,0, ,-91.4,-6.2,1026.1,0.5,-1.4,-3.2,25,-102.035,12.8527,993.88,-4.34732,-1.50039,-2.80156,
2026_06_26_17_09_36.314,3.87,35.4,0,0.761,0,0,0,0, ,0,0,0,0,0, ,-96.3,-5.3,1009.5,-0.8,0.4,-3.5,25,-101.537,11.7191,995.338,-4.09155,-1.43943,-2.83498,
2026_06_26_17_09_36.334,3.87,35.6,0,0.761,0,0,0,0, ,0,0,0,0,0, ,-98.1,-5,999.2,-0.2,-0.8,-3.6,25,-101.272,10.6911,995.887,-3.87269,-1.3639,-2.87856,
2026_06_26_17_09_36.354,3.87,35.6,0,0.763,0,0,0,0, ,0,0,0,0,0, ,-89.5,-4.7,1012.3,-1.3,-0.4,-3.6,25,-100.817,9.74409,996.488,-3.6824,-1.31735,-2.92252,
2026_06_26_17_09_36.373,3.87,35.6,0,0.763,0,0,0,0, ,0,0,0,0,0, ,-89.2,-6.7,1008.1,-2.1,0.9,-3.8,25,-100.118,8.80297,997.324,-3.5616,-1.22184,-2.9699,
2026_06_26_17_09_36.393,3.87,35.4,0,0.766,0,0,0,0, ,0,0,0,0,0, ,-92.4,-11.7,993.1,-2.5,0,-3.5,25,-99.5504,7.70591,997.523,-3.48472,-1.11996,-3.01134,
2026_06_26_17_09_36.413,3.87,35.6,0,0.763,0,0,0,0, ,0,0,0,0,0, ,-81.7,-12.5,1009.8,-3.4,-1.3,-3,25,-98.7886,6.49899,997.763,-3.45214,-1.09133,-3.02588,
2026_06_26_17_09_36.432,3.87,35.6,0,0.763,0,0,0,0, ,0,0,0,0,0, ,-79.8,-18.5,1014.7,-5.4,1.1,-2.5,25,-97.6894,5.15842,998.646,-3.5099,-1.03092,-3.00907,
2026_06_26_17_09_36.453,3.87,35.4,0,0.764,0,0,0,0, ,0,0,0,0,0, ,-90,-25.3,983,-4,2,-2.1,25,-96.91,3.50955,998.658,-3.58242,-0.873642,-2.96586,
2026_06_26_17_09_36.472,3.87,35.4,0,0.764,0,0,0,0, ,0,0,0,0,0, ,-101.4,-19.6,978.2,-1.4,0.7,-1.4,25,-96.8363,1.92764,997.558,-3.52865,-0.738139,-2.89177,
2026_06_26_17_09_36.491,3.87,35.6,0,0.764,0,0,0,0, ,0,0,0,0,0, ,-100.7,-12.9,993,-0.3,-1.4,-1.7,25,-97.0931,0.819942,996.829,-3.36542,-0.714487,-2.81001,
2026_06_26_17_09_36.512,3.87,35.6,0,0.764,0,0,0,0, ,0,0,0,0,0, ,-95.2,-12.2,1007.3,-0.8,-1.8,-1.9,25,-97.1453,0.0052115,997.031,-3.19385,-0.768448,-2.74846,
2026_06_26_17_09_36.531,3.87,35.4,0,0.764,0,0,0,0, ,0,0,0,0,0, ,-92.8,-13.6,1012.6,-3.3,0.2,-1.7,25,-96.9536,-0.7812,997.819,-3.12415,-0.770371,-2.69066,
2026_06_26_17_09_36.552,3.87,35.6,0,0.764,0,0,0,0, ,0,0,0,0,0, ,-95.4,-16.2,1006.2,-5.6,3.2,-1.8,25,-96.7797,-1.64156,998.524,-3.20494,-0.619832,-2.63334,
2026_06_26_17_09_36.571,3.87,35.6,0,0.763,0,0,0,0, ,0,0,0,0,0, ,-107.5,-20.2,980.1,-5,1.9,-2.1,25,-97.0643,-2.65059,998.197,-3.33261,-0.426671,-2.5917,
2026_06_26_17_09_36.591,3.87,35.6,0,0.764,0,0,0,0, ,0,0,0,0,0, ,-103.5,-18.7,993.8,-4,-0.1,-2,25,-97.5784,-3.67431,997.511,-3.40375,-0.345827,-2.55869,
2026_06_26_17_09_36.611,3.87,35.4,0,0.764,0,0,0,0, ,0,0,0,0,0, ,-100.8,-17,1005.2,-4.9,-0.5,-2,25,-97.857,-4.53814,997.633,-3.4675,-0.343034,-2.52464,
2026_06_26_17_09_36.631,3.87,35.4,0,0.764,0,0,0,0, ,0,0,0,0,0, ,-100.2,-20.5,1007.6,-6.7,0.8,-2.5,25,-98.018,-5.40417,998.167,-3.60964,-0.31299,-2.50791,
2026_06_26_17_09_36.650,3.87,35.4,0,0.764,0,0,0,0, ,0,0,0,0,0, ,-101.9,-20.8,1008.7,-8.3,3.4,-3.1,25,-98.2028,-6.33322,998.775,-3.84671,-0.165948,-2.52571,
2026_06_26_17_09_36.671,3.87,35.4,0,0.764,0,0,0,0, ,0,0,0,0,0, ,-103.6,-29.6,993.5,-9.9,2.6,-3,25,-98.4799,-7.48291,998.917,-4.16683,0.0269765,-2.55766,
2026_06_26_17_09_36.690,3.87,35.6,0,0.763,0,0,0,0, ,0,0,0,0,0, ,-105.2,-36.3,973.1,-8.8,-0.7,-3.2,25,-98.8406,-9.03481,997.965,-4.48268,0.0832233,-2.59071,
2026_06_26_17_09_36.710,3.87,35.6,0,0.764,0,0,0,0, ,0,0,0,0,0, ,-99.4,-34,996,-7.5,-2.2,-2.3,25,-99.0514,-10.6262,997.148,-4.70616,-0.0102075,-2.60041,
2026_06_26_17_09_36.730,3.87,35.6,0,0.763,0,0,0,0, ,0,0,0,0,0, ,-98.1,-28.6,1016.8,-10.7,0.5,-2.3,25,-99.0331,-11.886,997.712,-4.97391,-0.0613824,-2.58211,
2026_06_26_17_09_36.750,3.87,35.4,0,0.763,0,0,0,0, ,0,0,0,0,0, ,-104.9,-41.7,988.5,-11.6,1.8,-2.1,25,-99.1834,-13.3037,998.012,-5.35026,0.0124362,-2.55882,
2026_06_26_17_09_36.769,3.87,35.6,0,0.762,0,0,0,0, ,0,0,0,0,0, ,-107.5,-47.9,974.6,-8.7,1,-2.6,25,-99.611,-15.223,997.009,-5.64275,0.0969909,-2.5461,
2026_06_26_17_09_36.789,3.87,35.6,0,0.763,0,0,0,0, ,0,0,0,0,0, ,-109.2,-50.6,976.5,-5,-1.1,-2.8,25,-100.144,-17.2965,995.702,-5.71631,0.0880336,-2.55548,
2026_06_26_17_09_36.809,3.87,35.6,0,0.764,0,0,0,0, ,0,0,0,0,0, ,-107.9,-47.1,989.3,-3.6,-1.8,-3.4,25,-100.656,-19.2193,994.922,-5.63001,-0.00569027,-2.58866,
2026_06_26_17_09_36.828,3.87,35.6,0,0.764,0,0,0,0, ,0,0,0,0,0, ,-100.9,-50,994.7,-1.2,-1.3,-3.8,25,-100.884,-21.0066,994.743,-5.43318,-0.0997966,-2.65029,
2026_06_26_17_09_36.848,3.87,35.4,0,0.764,0,0,0,0, ,0,0,0,0,0, ,-93.9,-52.8,1007.3,-2.1,1,-2.6,25,-100.672,-22.8587,995.125,-5.20264,-0.102856,-2.68378,
2026_06_26_17_09_36.873,3.87,35.4,0,0.765,0,0,0,0, ,0,0,0,0,0, ,-106.8,-56,983.3,-0.8,0.9,-2.7,25,-100.652,-24.7808,995.135,-4.97396,-0.0386975,-2.68173,
2026_06_26_17_09_36.889,3.87,35.4,0,0.764,0,0,0,0, ,0,0,0,0,0, ,-112.4,-52.2,981.4,0.1,-2.6,-2.1,25,-101.197,-26.5674,994.356,-4.69219,-0.0881362,-2.66456,
2026_06_26_17_09_36.907,3.87,35.4,0,0.764,0,0,0,0, ,0,0,0,0,0, ,-112.6,-53.1,974.6,2.8,-3.3,-3.1,25,-101.886,-28.1568,993.36,-4.3179,-0.262531,-2.66062,
2026_06_26_17_09_36.927,3.87,35.6,0,0.765,0,0,0,0, ,0,0,0,0,0, ,-116.3,-52.4,953.4,8.6,-3.6,-4.6,25,-102.652,-29.6555,991.571,-3.70744,-0.456767,-2.7331,
2026_06_26_17_09_36.947,3.87,35.6,0,0.764,0,0,0,0, ,0,0,0,0,0, ,-97.4,-46.7,982.6,10.6,-5.8,-4.1,25,-102.908,-30.8678,990.134,-2.89651,-0.715339,-2.83163,
2026_06_26_17_09_36.967,3.87,35.4,0,0.764,0,0,0,0, ,0,0,0,0,0, ,-80.4,-36.4,1017.3,10.1,-2.6,-2.8,25,-102.054,-31.5187,990.732,-2.0893,-0.927686,-2.86931,
2026_06_26_17_09_36.986,3.87,35.4,0,0.764,0,0,0,0, ,0,0,0,0,0, ,-97.4,-35.5,989.3,12.2,2.3,-4,25,-101.252,-31.7888,991.498,-1.28253,-0.880296,-2.90165,
2026_06_26_17_09_37.006,3.87,35.6,0,0.765,0,0,0,0, ,0,0,0,0,0, ,-107,-44.6,963.9,15,-0.7,-3.4,25,-101.31,-32.2922,990.59,-0.375631,-0.777903,-2.9503,
2026_06_26_17_09_37.026,3.87,35.4,0,0.764,0,0,0,0, ,0,0,0,0,0, ,-107,-44.1,940.5,22.8,-8.3,-2.6,25,-101.657,-33.027,988.251,0.798978,-1.00472,-2.95333,
2026_06_26_17_09_37.046,3.87,35.6,0,0.765,0,0,0,0, ,0,0,0,0,0, ,-93.5,-15.8,971.9,27.6,-14.9,-2.9,25,-101.571,-32.8395,986.298,2.28592,-1.65037,-2.94094,
2026_06_26_17_09_37.065,3.87,35.4,0,0.765,0,0,0,0, ,0,0,0,0,0, ,-62.6,-2.3,1018.4,29.8,-13.4,-3.5,25,-100.138,-31.3898,986.837,3.89552,-2.41206,-2.95673,
2026_06_26_17_09_37.085,3.87,35.6,0,0.765,0,0,0,0, ,0,0,0,0,0, ,-32.7,-4.8,1051.3,23.6,-6.3,1.8,25,-96.9393,-29.6933,989.763,5.28517,-2.86531,-2.82835,
2026_06_26_17_09_37.106,3.87,35.4,0,0.763,0,0,0,0, ,0,0,0,0,0, ,-70.6,9.7,1008,23.4,-2,3.2,25,-94.1795,-27.7346,992.194,6.39514,-2.9436,-2.50365,
2026_06_26_17_09_37.125,3.87,35.6,0,0.765,0,0,0,0, ,0,0,0,0,0, ,-93.2,24.7,990.1,26.4,-2.2,0.5,25,-93.4312,-24.9964,992.611,7.52278,-2.89219,-2.23835,
2026_06_26_17_09_37.145,3.87,35.6,0,0.763,0,0,0,0, ,0,0,0,0,0, ,-88.6,27.7,977.9,29.1,-4.5,-1,25,-93.277,-21.8766,992.087,8.75537,-2.92009,-2.11719,
2026_06_26_17_09_37.165,3.87,35.6,0,0.762,0,0,0,0, ,0,0,0,0,0, ,-74.5,38.6,992.3,30,-6.3,0,25,-92.5624,-18.5234,991.661,10.0225,-3.07121,-2.01864,
2026_06_26_17_09_37.185,3.87,35.4,0,0.764,0,0,0,0, ,0,0,0,0,0, ,-50.9,50.6,998.4,31.5,-3.4,2.1,25,-90.7426,-14.6768,991.886,11.2856,-3.1796,-1.83164,
2026_06_26_17_09_37.205,3.87,35.6,0,0.764,0,0,0,0, ,0,0,0,0,0, ,-76.2,71.7,985.4,32.6,-2.7,3.8,25,-89.0856,-10.0561,991.887,12.551,-3.17171,-1.54026,
2026_06_26_17_09_37.225,3.87,35.4,0,0.765,0,0,0,0, ,0,0,0,0,0, ,-104,85.6,960.3,36,-7.8,1.8,25,-89.1474,-4.6506,990.727,13.8763,-3.29835,-1.27578,
2026_06_26_17_09_37.244,3.87,35.4,0,0.764,0,0,0,0, ,0,0,0,0,0, ,-84.8,105.1,1005.1,32.6,-10.5,0.9,25,-89.4675,1.44319,990.237,15.1209,-3.65494,-1.11577,
2026_06_26_17_09_37.265,3.87,35.6,0,0.764,0,0,0,0, ,0,0,0,0,0, ,-61.4,104.8,1035.7,28.5,-8,0.8,25,-88.4701,7.75063,992.075,16.0611,-3.99589,-0.99598,
2026_06_26_17_09_37.284,3.87,35.4,0,0.763,0,0,0,0, ,0,0,0,0,0, ,-44.1,109.9,1030.6,23.1,-0.7,2.7,25,-86.2934,13.82,994.578,16.6545,-4.01747,-0.828647,
2026_06_26_17_09_37.308,3.87,35.6,0,0.764,0,0,0,0, ,0,0,0,0,0, ,-78.2,112.4,984.8,22,0.6,3.4,25,-84.7612,19.751,995.378,17.0138,-3.7757,-0.592292,
2026_06_26_17_09_37.325,3.87,35.6,0,0.764,0,0,0,0, ,0,0,0,0,0, ,-94.9,118.7,983.3,22.1,-1.2,1.6,25,-84.8702,25.5888,994.688,17.3207,-3.5639,-0.403855,
2026_06_26_17_09_37.343,3.87,35.6,0,0.764,0,0,0,0, ,0,0,0,0,0, ,-83.2,138.6,1014.2,16.6,-2.9,2.2,25,-85.1249,31.8691,994.935,17.4443,-3.47164,-0.263464,
2026_06_26_17_09_37.362,3.87,35.4,0,0.764,0,0,0,0, ,0,0,0,0,0, ,-72.3,140.1,1030.3,10.4,-0.5,0.3,25,-84.6755,38.4187,996.6,17.204,-3.36368,-0.171237,
2026_06_26_17_09_37.382,3.87,35.6,0,0.764,0,0,0,0, ,0,0,0,0,0, ,-71.8,143,1008.6,6.4,0.7,-0.8,25,-83.9061,44.7032,997.992,16.6675,-3.15262,-0.176037,
2026_06_26_17_09_37.402,3.87,35.4,0,0.763,0,0,0,0, ,0,0,0,0,0, ,-72.6,137.5,995.1,1.8,-1,0,25,-83.1928,50.5256,998.227,15.9017,-2.96964,-0.189685,
2026_06_26_17_09_37.422,3.87,35.4,0,0.764,0,0,0,0, ,0,0,0,0,0, ,-68.2,132.5,982.1,0.6,-2.5,0.6,25,-82.4132,55.6733,997.641,15.0058,-2.89532,-0.159844,
2026_06_26_17_09_37.441,3.87,35.4,0,0.764,0,0,0,0, ,0,0,0,0,0, ,-63.8,136.5,979.2,1.7,-0.4,0.1,25,-81.4131,60.4768,996.605,14.1614,-2.80725,-0.128776,
2026_06_26_17_09_37.462,3.87,35.4,0,0.765,0,0,0,0, ,0,0,0,0,0, ,-68.9,143.6,992.1,1.5,0,-0.1,25,-80.4952,65.3258,995.938,13.396,-2.64837,-0.120929,
2026_06_26_17_09_37.481,3.87,35.4,0,0.763,0,0,0,0, ,0,0,0,0,0, ,-72,148,994.8,0.2,-0.6,-0.3,25,-79.883,70.2297,995.786,12.6315,-2.50527,-0.125747,
2026_06_26_17_09_37.501,3.87,35.4,0,0.763,0,0,0,0, ,0,0,0,0,0, ,-75.6,139.5,985.1,0.4,-0.1,-1.5,25,-79.5123,74.7098,995.43,11.88,-2.37393,-0.172928,
2026_06_26_17_09_37.525,3.87,35.4,0,0.763,0,0,0,0, ,0,0,0,0,0, ,-63.2,138.1,989.7,-2.5,-4,0.3,25,-78.8961,78.6153,994.941,11.0921,-2.35419,-0.198953,
2026_06_26_17_09_37.540,3.87,35.4,0,0.764,0,0,0,0, ,0,0,0,0,0, ,-59.9,137.2,1000.4,-1.8,-0.5,-0.1,25,-77.8391,82.2127,994.948,10.2851,-2.34784,-0.180735,
2026_06_26_17_09_37.560,3.87,35.4,0,0.761,0,0,0,0, ,0,0,0,0,0, ,-72,139.1,990.7,-1.5,2.6,-2.3,25,-77.1146,85.6214,994.984,9.55785,-2.14078,-0.242847,
2026_06_26_17_09_37.580,3.87,35.4,0,0.763,0,0,0,0, ,0,0,0,0,0, ,-66.8,139.2,1019.4,-6.3,-0.4,-0.4,25,-76.6445,88.8833,995.598,8.73776,-1.9433,-0.310314,
2026_06_26_17_09_37.600,3.87,35.4,0,0.763,0,0,0,0, ,0,0,0,0,0, ,-51.3,141.1,1033,-15.2,1.2,1.3,25,-75.5723,92.0074,997.463,7.55023,-1.8005,-0.263982,
2026_06_26_17_09_37.620,3.87,35.4,0,0.764,0,0,0,0, ,0,0,0,0,0, ,-74.2,136.1,983,-14.1,5.1,-0.3,25,-74.791,94.8466,998.105,6.1974,-1.49883,-0.217427,
2026_06_26_17_09_37.640,3.87,35.6,0,0.764,0,0,0,0, ,0,0,0,0,0, ,-73.6,127.1,986.9,-12.3,4.7,-2.2,25,-74.7367,97.0863,997.303,5.01537,-1.1089,-0.280349,
2026_06_26_17_09_37.660,3.87,35.6,0,0.764,0,0,0,0, ,0,0,0,0,0, ,-66.2,128,1025.5,-17.3,3,0,25,-74.4419,98.9427,997.845,3.80787,-0.806721,-0.330297,
2026_06_26_17_09_37.679,3.87,35.4,0,0.763,0,0,0,0, ,0,0,0,0,0, ,-81.9,131.3,1017,-25.6,3,1.2,25,-74.4181,100.814,999.272,2.26872,-0.574749,-0.273607,
2026_06_26_17_09_37.699,3.87,35.6,0,0.764,0,0,0,0, ,0,0,0,0,0, ,-84.9,110.8,990.8,-30,0.9,1.5,25,-74.9654,102.047,999.554,0.43641,-0.420897,-0.174668,
2026_06_26_17_09_37.718,3.87,35.4,0,0.765,0,0,0,0, ,0,0,0,0,0, ,-67.9,94.1,1004.6,-30.3,7,-0.2,25,-75.0528,102.072,999.441,-1.42745,-0.154546,-0.124415,
2026_06_26_17_09_37.739,3.87,35.4,0,0.764,0,0,0,0, ,0,0,0,0,0, ,-83.2,82.5,978.3,-25.8,12.3,-3,25,-75.0831,101.232,998.954,-3.04976,0.442919,-0.214334,
2026_06_26_17_09_37.758,3.87,35.4,0,0.763,0,0,0,0, ,0,0,0,0,0, ,-90.6,76.2,982.4,-21.5,7.8,-3.2,25,-75.8032,99.8989,997.82,-4.30509,1.02835,-0.390179,
2026_06_26_17_09_37.778,3.87,35.4,0,0.764,0,0,0,0, ,0,0,0,0,0, ,-84.1,74.9,1024.6,-26.6,5,-1.8,25,-76.5068,98.4152,998.166,-5.50829,1.35569,-0.518746,
2026_06_26_17_09_37.798,3.87,35.4,0,0.765,0,0,0,0, ,0,0,0,0,0, ,-92.2,65.1,1002.6,-30,5.8,-2.8,25,-77.2163,96.6836,999.107,-6.89716,1.60214,-0.627291,
2026_06_26_17_09_37.818,3.87,35.4,0,0.764,0,0,0,0, ,0,0,0,0,0, ,-98,41.3,943.7,-22.8,8.1,-5.4,25,-78.3061,94.0338,997.525,-8.08562,1.92802,-0.838909,
2026_06_26_17_09_37.838,3.87,35.3,0,0.763,0,0,0,0, ,0,0,0,0,0, ,-101.6,36.7,963.6,-14.1,6.3,-5.9,25,-79.6159,90.6802,994.851,-8.7172,2.24928,-1.13209,
2026_06_26_17_09_37.858,3.87,35.4,0,0.763,0,0,0,0, ,0,0,0,0,0, ,-87.2,33.8,991.5,-13.8,2.8,-4.1,25,-80.5168,87.3024,993.797,-9.03607,2.38948,-1.36779,
2026_06_26_17_09_37.878,3.87,35.4,0,0.765,0,0,0,0, ,0,0,0,0,0, ,-81.9,31.9,1009.1,-19.1,-1.2,0.1,25,-80.7626,83.9842,994.193,-9.48786,2.29262,-1.40631,
2026_06_26_17_09_37.897,3.87,35.4,0,0.763,0,0,0,0, ,0,0,0,0,0, ,-90.6,30,990.7,-20.7,-0.4,1.9,25,-81.097,80.7525,994.541,-10.1223,2.10417,-1.25968,
2026_06_26_17_09_37.917,3.87,35.4,0,0.763,0,0,0,0, ,0,0,0,0,0, ,-96.6,9.2,978.5,-11.3,7.6,-3.2,25,-81.8589,77.026,993.935,-10.4805,2.19532,-1.22252,
2026_06_26_17_09_37.936,3.87,35.4,0,0.764,0,0,0,0, ,0,0,0,0,0, ,-108.5,7,961.5,-8.6,6.8,-2.7,25,-83.1197,72.8258,992.477,-10.4482,2.50029,-1.32779,
2026_06_26_17_09_37.961,3.87,35.4,0,0.763,0,0,0,0, ,0,0,0,0,0, ,-118.2,6.8,958.6,-5.5,-0.2,-2.5,25,-84.9619,68.8084,990.501,-10.2411,2.54902,-1.40532,
2026_06_26_17_09_37.976,3.87,35.3,0,0.763,0,0,0,0, ,0,0,0,0,0, ,-105.5,9.5,977.2,-3.8,-6,-2.1,25,-86.6004,65.1121,989.123,-9.9004,2.20479,-1.45984,
2026_06_26_17_09_37.996,3.87,35.4,0,0.763,0,0,0,0, ,0,0,0,0,0, ,-86.4,17.2,1014.4,-5.4,-3.9,-1.5,25,-87.1701,61.9578,989.53,-9.57741,1.76879,-1.48057,
2026_06_26_17_09_38.016,3.87,35.4,0,0.763,0,0,0,0, ,0,0,0,0,0, ,-82,13.7,1012.6,-5.1,3.3,-2,25,-86.9891,59.1238,990.991,-9.31371,1.64272,-1.49699,
2026_06_26_17_09_38.035,3.87,35.3,0,0.763,0,0,0,0, ,0,0,0,0,0, ,-104.7,5.8,978.6,-3.3,5.2,-2.3,25,-87.3768,56.115,991.272,-9.00209,1.80161,-1.53678,
2026_06_26_17_09_38.055,3.87,35.4,0,0.763,0,0,0,0, ,0,0,0,0,0, ,-120.7,4.7,960.4,-1.9,-0.9,-1.6,25,-88.9199,53.0155,989.945,-8.61196,1.82284,-1.56196,
2026_06_26_17_09_38.075,3.87,35.4,0,0.763,0,0,0,0, ,0,0,0,0,0, ,-107.9,12.2,990.9,-0.1,-5.2,-2.1,25,-90.4665,50.2997,989.074,-8.14811,1.5259,-1.57951,
2026_06_26_17_09_38.095,3.87,35.4,0,0.764,0,0,0,0, ,0,0,0,0,0, ,-94.2,14.2,1011.4,0,-1.8,-3.3,25,-91.1114,48.039,989.81,-7.65463,1.21963,-1.64779,
2026_06_26_17_09_38.114,3.87,35.4,0,0.764,0,0,0,0, ,0,0,0,0,0, ,-96.5,10.8,999.8,-0.7,0.4,-3,25,-91.3697,45.8733,990.772,-7.20951,1.10265,-1.73933,
2026_06_26_17_09_38.134,3.87,35.4,0,0.763,0,0,0,0, ,0,0,0,0,0, ,-106.6,10.3,990.1,-1.8,-1.5,-2.5,25,-91.9901,43.7208,991.027,-6.84635,1.00195,-1.80092,
2026_06_26_17_09_38.154,3.87,35.4,0,0.763,0,0,0,0, ,0,0,0,0,0, ,-100.4,5.8,988.4,-1.3,-4,-2.9,25,-92.6915,41.5471,990.918,-6.5236,0.773311,-1.85571,
2026_06_26_17_09_38.178,3.87,35.4,0,0.763,0,0,0,0, ,0,0,0,0,0, ,-91.5,3.6,994.6,0.1,-2,-3.3,25,-92.89,39.3017,990.954,-6.16263,0.543375,-1.93153,
2026_06_26_17_09_38.197,3.87,35.4,0,0.763,0,0,0,0, ,0,0,0,0,0, ,-97,9.1,1001.7,1.2,-0.4,-2.9,25,-92.9729,37.2938,991.392,-5.74749,0.437138,-2.00273,
2026_06_26_17_09_38.213,3.87,35.4,0,0.763,0,0,0,0, ,0,0,0,0,0, ,-92.8,9.6,1009.7,-0.3,-0.6,-2.8,25,-93.0903,35.5909,992.264,-5.36983,0.380032,-2.05437,
2026_06_26_17_09_38.233,3.87,35.4,0,0.765,0,0,0,0, ,0,0,0,0,0, ,-99.1,8.9,1005.2,-0.9,-0.9,-2.8,25,-93.2646,33.9858,993.19,-5.07917,0.31117,-2.0998,
2026_06_26_17_09_38.253,3.87,35.4,0,0.763,0,0,0,0, ,0,0,0,0,0, ,-94.7,5.8,1005.3,-2.2,-2.6,-2.7,25,-93.4861,32.3627,993.925,-4.86411,0.185568,-2.13942,
2026_06_26_17_09_38.273,3.87,35.4,0,0.765,0,0,0,0, ,0,0,0,0,0, ,-90.2,5.1,1003.9,-3.9,-3,-2.3,25,-93.423,30.7227,994.575,-4.75356,0.00363469,-2.1614,
2026_06_26_17_09_38.293,3.87,35.6,0,0.766,0,0,0,0, ,0,0,0,0,0, ,-82.6,2.4,1003.4,-5.7,-1.4,-1.8,25,-92.995,29.079,995.128,-4.75639,-0.130649,-2.15461,
2026_06_26_17_09_38.312,3.87,35.6,0,0.764,0,0,0,0, ,0,0,0,0,0, ,-86.7,-2.8,989,-2.4,2.9,-2.3,25,-92.4865,27.2948,995.193,-4.71335,-0.0769847,-2.14823,
2026_06_26_17_09_38.332,3.87,35.4,0,0.764,0,0,0,0, ,0,0,0,0,0, ,-103.3,2.9,981.3,-0.8,0.9,-2,25,-92.6397,25.6346,994.581,-4.52363,0.0434878,-2.14834,
2026_06_26_17_09_38.352,3.87,35.4,0,0.764,0,0,0,0, ,0,0,0,0,0, ,-104.9,3.9,983.7,-0.7,-3.5,-1.9,25,-93.338,24.2797,993.845,-4.29367,-0.038381,-2.13625,
2026_06_26_17_09_38.372,3.87,35.4,0,0.763,0,0,0,0, ,0,0,0,0,0, ,-88.8,4.3,999.3,0.4,-2.5,-2.7,25,-93.552,23.05,993.702,-4.04117,-0.218855,-2.14623,
2026_06_26_17_09_38.391,3.87,35.4,0,0.763,0,0,0,0, ,0,0,0,0,0, ,-94.8,2.1,989.1,2.7,0.2,-3,25,-93.4453,21.8404,993.733,-3.70045,-0.275596,-2.18912,
2026_06_26_17_09_38.413,3.87,35.3,0,0.763,0,0,0,0, ,0,0,0,0,0, ,-97.5,7,999.8,1.8,-1.8,-1.7,25,-93.6101,20.7867,993.776,-3.33785,-0.307552,-2.19892,
2026_06_26_17_09_38.434,3.87,35.4,0,0.763,0,0,0,0, ,0,0,0,0,0, ,-93.1,6.3,1003.4,1.1,-1.8,-2.4,25,-93.7131,19.9253,994.253,-3.04609,-0.398498,-2.18985,
2026_06_26_17_09_38.450,3.87,35.3,0,0.763,0,0,0,0, ,0,0,0,0,0, ,-93.8,3.4,990.2,2.1,-1.1,-3.3,25,-93.697,19.0066,994.408,-2.76297,-0.462574,-2.23008,
2026_06_26_17_09_38.470,3.87,35.4,0,0.764,0,0,0,0, ,0,0,0,0,0, ,-92.5,6.2,1000.3,2.5,-1.7,-2.8,25,-93.6637,18.1409,994.46,-2.45444,-0.519698,-2.28004,
2026_06_26_17_09_38.491,3.87,35.3,0,0.764,0,0,0,0, ,0,0,0,0,0, ,-80,5.3,1012.9,0.1,0.7,-1.1,25,-93.2119,17.3858,995.199,-2.22566,-0.518498,-2.25993,
2026_06_26_17_09_38.511,3.87,35.4,0,0.764,0,0,0,0, ,0,0,0,0,0, ,-98.7,13.1,996.4,1.8,1.9,-1.9,25,-92.9766,16.887,995.775,-2.03214,-0.407683,-2.21362,
2026_06_26_17_09_38.530,3.87,35.4,0,0.764,0,0,0,0, ,0,0,0,0,0, ,-106.3,17.8,1000.3,0.7,-1,-2.7,25,-93.5569,16.7995,995.932,-1.83213,-0.355418,-2.21888,
2026_06_26_17_09_38.549,3.87,35.4,0,0.763,0,0,0,0, ,0,0,0,0,0, ,-85.3,10.8,1009.6,-3.1,-3.1,-2.2,25,-93.6936,16.6471,996.482,-1.79361,-0.458682,-2.23297,
2026_06_26_17_09_38.569,3.87,35.6,0,0.763,0,0,0,0, ,0,0,0,0,0, ,-83.4,2.1,991.6,-1.5,-0.2,-1.9,25,-93.1242,16.0258,996.733,-1.82447,-0.531278,-2.22182,
2026_06_26_17_09_38.589,3.87,35.4,0,0.764,0,0,0,0, ,0,0,0,0,0, ,-89.8,3.9,988.7,0.1,1.3,-2.2,25,-92.7267,15.232,996.332,-1.75595,-0.465387,-2.21135,
2026_06_26_17_09_38.609,3.87,35.4,0,0.764,0,0,0,0, ,0,0,0,0,0, ,-95.9,8.6,994.7,0.9,1.5,-2.7,25,-92.7342,14.6847,996.049,-1.61848,-0.351715,-2.22589,
2026_06_26_17_09_38.630,3.87,35.4,0,0.763,0,0,0,0, ,0,0,0,0,0, ,-93.8,5.7,993.1,1.4,2.6,-3.3,25,-92.8631,14.2255,995.918,-1.44977,-0.205361,-2.27306,
2026_06_26_17_09_38.652,3.87,35.3,0,0.764,0,0,0,0, ,0,0,0,0,0, ,-104.2,7.9,980.5,3.2,2.1,-3.5,25,-93.2371,13.773,995.363,-1.22127,-0.0496436,-2.34174,
2026_06_26_17_09_38.671,3.87,35.4,0,0.764,0,0,0,0, ,0,0,0,0,0, ,-96.6,11.1,1004.3,1,-1.6,-2,25,-93.6736,13.5126,995.182,-1.01888,-0.0313841,-2.36661,
2026_06_26_17_09_38.688,3.87,35.4,0,0.764,0,0,0,0, ,0,0,0,0,0, ,-96.9,11.2,999.1,2,1,-3.4,25,-93.861,13.3687,995.579,-0.865387,-0.0477529,-2.38693,
2026_06_26_17_09_38.708,3.87,35.3,0,0.764,0,0,0,0, ,0,0,0,0,0, ,-100.2,15.5,990.8,3.9,2.7,-4.3,25,-94.1468,13.3675,995.541,-0.632887,0.0678914,-2.47609,
2026_06_26_17_09_38.728,3.87,35.3,0,0.764,0,0,0,0, ,0,0,0,0,0, ,-100.9,14.2,980.2,6,2.8,-5,25,-94.537,13.4579,994.929,-0.29268,0.231332,-2.60856,
2026_06_26_17_09_38.747,3.87,35.4,0,0.765,0,0,0,0, ,0,0,0,0,0, ,-101.1,15.3,984.1,9.3,2.5,-5.5,25,-94.9308,13.5366,994.15,0.191327,0.37872,-2.76952,
2026_06_26_17_09_38.767,3.87,35.4,0,0.763,0,0,0,0, ,0,0,0,0,0, ,-106.4,21.3,987.3,10.3,0.3,-4.8,25,-95.4682,13.8269,993.635,0.776855,0.440954,-2.91458,
2026_06_26_17_09_38.787,3.87,35.3,0,0.763,0,0,0,0, ,0,0,0,0,0, ,-100.7,25.5,984.3,13,0.1,-5.6,25,-95.9607,14.4102,993.158,1.43944,0.426271,-3.05385,
2026_06_26_17_09_38.807,3.87,35.3,0,0.764,0,0,0,0, ,0,0,0,0,0, ,-101.8,29.1,1000,13.6,-0.2,-4.7,25,-96.283,15.1957,993.097,2.16219,0.397248,-3.18158,
2026_06_26_17_09_38.827,3.87,35.4,0,0.764,0,0,0,0, ,0,0,0,0,0, ,-92.5,37.9,1018.6,11.9,2,-4.2,25,-96.3359,16.3111,994.084,2.80739,0.427885,-3.25888,
2026_06_26_17_09_38.846,3.87,35.3,0,0.764,0,0,0,0, ,0,0,0,0,0, ,-101.5,36.7,999,10.3,2.8,-3.8,25,-96.3763,17.5901,994.981,3.31272,0.54806,-3.30404,
2026_06_26_17_09_38.867,3.87,35.4,0,0.764,0,0,0,0, ,0,0,0,0,0, ,-116.3,40.1,985.5,10.1,-1,-3.8,25,-97.1395,18.8582,994.814,3.73241,0.569507,-3.33426,
2026_06_26_17_09_38.889,3.87,35.4,0,0.764,0,0,0,0, ,0,0,0,0,0, ,-101,43.9,996.3,8.8,-3.5,-3.6,25,-97.8409,20.2684,994.576,4.08083,0.397693,-3.35655,
2026_06_26_17_09_38.909,3.87,35.3,0,0.763,0,0,0,0, ,0,0,0,0,0, ,-86,46.6,1005.8,6.6,-2.5,-2.3,25,-97.5764,21.7907,994.97,4.30137,0.190646,-3.33178,
2026_06_26_17_09_38.925,3.87,35.4,0,0.764,0,0,0,0, ,0,0,0,0,0, ,-80.5,47.9,1020.1,1,-1.7,0.7,25,-96.7034,23.3422,996.066,4.27082,0.05106,-3.1775,
2026_06_26_17_09_38.946,3.87,35.3,0,0.764,0,0,0,0, ,0,0,0,0,0, ,-97.1,51.8,998.9,-0.7,0.1,0.1,25,-96.2218,24.9575,996.885,4.0197,-0.000801491,-2.95949,
2026_06_26_17_09_38.965,3.87,35.3,0,0.763,0,0,0,0, ,0,0,0,0,0, ,-87.7,55.4,1008.4,-5.2,-2,0.9,25,-95.9889,26.7029,997.297,3.59499,-0.0586433,-2.74868,
2026_06_26_17_09_38.985,3.87,35.3,0,0.764,0,0,0,0, ,0,0,0,0,0, ,-81.9,42.8,981,-1.8,3.5,-1.4,25,-95.3071,28.0677,997.139,3.16264,-0.00936657,-2.59642,
2026_06_26_17_09_39.004,3.87,35.3,0,0.763,0,0,0,0, ,0,0,0,0,0, ,-102.7,50.1,976.3,5.1,8.2,-4.3,25,-95.1238,29.1879,996.012,3.07046,0.347689,-2.61187,
2026_06_26_17_09_39.025,3.87,35.3,0,0.764,0,0,0,0, ,0,0,0,0,0, ,-110.8,48.8,994.8,1,0.2,-1.6,25,-95.8323,30.4226,995.374,3.06921,0.582439,-2.63247,
2026_06_26_17_09_39.044,3.87,35.4,0,0.763,0,0,0,0, ,0,0,0,0,0, ,-95.9,49.5,1026.6,-5.5,-4,1,25,-96.2904,31.5638,996.308,2.74507,0.431165,-2.49034,
2026_06_26_17_09_39.065,3.87,35.3,0,0.765,0,0,0,0, ,0,0,0,0,0, ,-114.9,47.1,980.7,-1.5,-0.6,-1.2,25,-96.8455,32.5837,996.756,2.36452,0.264735,-2.34468,
2026_06_26_17_09_39.083,3.87,35.3,0,0.764,0,0,0,0, ,0,0,0,0,0, ,-105.7,41.8,983.2,0.7,-0.2,-1.8,25,-97.6654,33.3068,995.853,2.19605,0.224228,-2.2932,
2026_06_26_17_09_39.104,3.87,35.4,0,0.764,0,0,0,0, ,0,0,0,0,0, ,-104,46,991.8,-0.4,-3.1,0.7,25,-98.1032,33.9523,995.344,2.07137,0.110017,-2.18698,
2026_06_26_17_09_39.124,3.87,35.4,0,0.764,0,0,0,0, ,0,0,0,0,0, ,-109.1,55.9,992.9,1.4,-1.7,-0.4,25,-98.6179,34.9881,995.162,1.97562,-0.0429373,-2.04457,
2026_06_26_17_09_39.144,3.87,35.4,0,0.763,0,0,0,0, ,0,0,0,0,0, ,-112.5,56,987.9,1,-4,-0.2,25,-99.3603,36.2655,994.872,1.92835,-0.213993,-1.93826,
2026_06_26_17_09_39.163,3.87,35.3,0,0.764,0,0,0,0, ,0,0,0,0,0, ,-102.4,53.3,995.2,0.2,-5.4,-0.4,25,-99.8532,37.3858,994.669,1.84741,-0.487359,-1.83843,
2026_06_26_17_09_39.183,3.87,35.3,0,0.765,0,0,0,0, ,0,0,0,0,0, ,-98.7,52.8,998.4,0.7,-2.5,-1.5,25,-99.8957,38.3403,994.799,1.76225,-0.698363,-1.78429,
2026_06_26_17_09_39.202,3.87,35.4,0,0.764,0,0,0,0, ,0,0,0,0,0, ,-104.6,49.8,992.5,0.3,-2.5,-0.8,25,-100.003,39.13,994.839,1.68533,-0.808151,-1.74564,
2026_06_26_17_09_39.222,3.87,35.4,0,0.763,0,0,0,0, ,0,0,0,0,0, ,-103.5,56.2,991.3,0,-4.9,-0.7,25,-100.249,39.9752,994.66,1.59177,-0.984373,-1.68497,
2026_06_26_17_09_39.242,3.87,35.3,0,0.763,0,0,0,0, ,0,0,0,0,0, ,-98.5,57.4,991.6,0,-5,-1,25,-100.295,41.0005,994.464,1.49477,-1.22603,-1.63408,
2026_06_26_17_09_39.263,3.87,35.3,0,0.762,0,0,0,0, ,0,0,0,0,0, ,-89.2,54.6,1006.3,1.3,-0.9,-3.3,25,-99.9023,41.9145,994.738,1.4433,-1.33108,-1.66552,
2026_06_26_17_09_39.282,3.87,35.4,0,0.764,0,0,0,0, ,0,0,0,0,0, ,-94.1,49.9,997.5,0,-0.4,-2.4,25,-99.3994,42.5443,995.174,1.39495,-1.28958,-1.7377,
2026_06_26_17_09_39.302,3.87,35.3,0,0.764,0,0,0,0, ,0,0,0,0,0, ,-94.1,47.7,989.9,-0.8,-2.3,-1.6,25,-99.0764,42.9256,995.084,1.28557,-1.29326,-1.75369,
2026_06_26_17_09_39.321,3.87,35.3,0,0.763,0,0,0,0, ,0,0,0,0,0, ,-88.7,47.8,987.4,2.2,-0.2,-1.9,25,-98.6087,43.2195,994.692,1.24989,-1.29062,-1.75346,
2026_06_26_17_09_39.342,3.87,35.4,0,0.762,0,0,0,0, ,0,0,0,0,0, ,-102.1,57.7,988.4,4.1,-0.4,-2.9,25,-98.4131,43.8003,994.278,1.36568,-1.23026,-1.79286,
2026_06_26_17_09_39.361,3.87,35.3,0,0.763,0,0,0,0, ,0,0,0,0,0, ,-98.6,59.9,995.4,2.2,-4,-3,25,-98.5312,44.7143,994.133,1.47441,-1.28935,-1.86337,
2026_06_26_17_09_39.382,3.87,35.3,0,0.764,0,0,0,0, ,0,0,0,0,0, ,-88.6,59.8,992.3,3.5,-3.7,-4.5,25,-98.2307,45.6367,994.116,1.55824,-1.44539,-1.97834,
2026_06_26_17_09_39.401,3.87,35.3,0,0.763,0,0,0,0, ,0,0,0,0,0, ,-86,51.2,1002.1,3.9,-2.3,-3.5,25,-97.5646,46.2377,994.304,1.68875,-1.54013,-2.10153,
2026_06_26_17_09_39.422,3.87,35.4,0,0.762,0,0,0,0, ,0,0,0,0,0, ,-92.6,57.9,998.6,4.2,-1.4,-3.6,25,-97.061,46.7443,994.672,1.83264,-1.55901,-2.1898,
2026_06_26_17_09_39.440,3.87,35.3,0,0.763,0,0,0,0, ,0,0,0,0,0, ,-101.3,67.8,994.5,3.3,-4.1,-4,25,-97.0542,47.7257,994.787,1.94948,-1.63158,-2.28792,
2026_06_26_17_09_39.460,3.87,35.4,0,0.763,0,0,0,0, ,0,0,0,0,0, ,-96.5,68.1,994.1,3,-5.9,-5,25,-97.1667,48.9581,994.757,2.02263,-1.83685,-2.42272,
2026_06_26_17_09_39.480,3.87,35.4,0,0.763,0,0,0,0, ,0,0,0,0,0, ,-100.7,63.1,976.1,4.6,-7.8,-6.5,25,-97.254,49.9722,994.169,2.13094,-2.14234,-2.62548,
2026_06_26_17_09_39.501,3.87,35.4,0,0.764,0,0,0,0, ,0,0,0,0,0, ,-81.2,64.6,981,7.8,-9,-7.4,25,-96.8699,50.8179,993.217,2.3789,-2.52366,-2.889,
2026_06_26_17_09_39.519,3.87,35.4,0,0.763,0,0,0,0, ,0,0,0,0,0, ,-69.2,64.3,1007.2,9,-6.7,-6.3,25,-95.5494,51.6486,993.271,2.74581,-2.84824,-3.13038,
2026_06_26_17_09_39.539,3.87,35.3,0,0.764,0,0,0,0, ,0,0,0,0,0, ,-81.1,75.3,1011.8,4.5,-7.2,-4.6,25,-94.3063,52.7547,994.26,2.98982,-3.09819,-3.27173,
2026_06_26_17_09_39.558,3.87,35.4,0,0.762,0,0,0,0, ,0,0,0,0,0, ,-88.9,77,983.5,3.3,-9.9,-5.7,25,-93.7392,54.1804,994.466,3.04528,-3.43041,-3.38618,
2026_06_26_17_09_39.579,3.87,35.3,0,0.764,0,0,0,0, ,0,0,0,0,0, ,-81.7,64.6,965.4,8,-9,-7.6,25,-93.2249,55.1931,993.247,3.20401,-3.79723,-3.58507,
2026_06_26_17_09_39.598,3.87,35.3,0,0.764,0,0,0,0, ,0,0,0,0,0, ,-65,63.7,971.9,11.5,-11.7,-5.1,25,-92.0138,55.7389,991.748,3.6029,-4.19654,-3.75356,
2026_06_26_17_09_39.619,3.87,35.3,0,0.763,0,0,0,0, ,0,0,0,0,0, ,-62.3,82,992.5,9.1,-16.2,-2.5,25,-90.2854,56.7816,991.166,4.01101,-4.79089,-3.75639,
2026_06_26_17_09_39.644,3.87,35.3,0,0.764,0,0,0,0, ,0,0,0,0,0, ,-50.5,94.4,1016.7,7.1,-13.5,-3.5,25,-88.2205,58.6962,991.985,4.26018,-5.40386,-3.7103,
2026_06_26_17_09_39.664,3.87,35.3,0,0.764,0,0,0,0, ,0,0,0,0,0, ,-41.8,96.3,1036.9,1.4,-11.6,-2.1,25,-85.6568,60.9298,994.106,4.25956,-5.83933,-3.65483,
2026_06_26_17_09_39.678,3.87,35.3,0,0.763,0,0,0,0, ,0,0,0,0,0, ,-45.4,80.3,1015.1,-3.6,-9.2,0,25,-83.094,62.5977,996.05,3.93296,-6.11725,-3.4961,
2026_06_26_17_09_39.700,3.87,35.3,0,0.762,0,0,0,0, ,0,0,0,0,0, ,-44.7,75.1,989.6,-4.2,-10.4,1.7,25,-80.7757,63.518,996.434,3.45564,-6.34167,-3.23126,
2026_06_26_17_09_39.717,3.87,35.3,0,0.764,0,0,0,0, ,0,0,0,0,0, ,-49.9,79.5,990.1,-2.9,-12.4,2.6,25,-78.7357,64.3578,996.032,3.02873,-6.64991,-2.90334,
2026_06_26_17_09_39.737,3.87,35.3,0,0.764,0,0,0,0, ,0,0,0,0,0, ,-49.3,92.1,1004.2,-0.3,-7,-0.1,25,-76.9603,65.6644,996.1,2.74667,-6.83577,-2.65024,
2026_06_26_17_09_39.757,3.87,35.3,0,0.763,0,0,0,0, ,0,0,0,0,0, ,-43.8,85.5,1000.7,1.4,-1.9,-2.6,25,-75.1072,67.0743,996.487,2.61281,-6.69039,-2.57101,
2026_06_26_17_09_39.778,3.87,35.3,0,0.763,0,0,0,0, ,0,0,0,0,0, ,-40.4,81.5,995.3,0.7,-4.4,-0.9,25,-73.0958,68.0752,996.58,2.51758,-6.47465,-2.52098,
2026_06_26_17_09_39.795,3.87,35.4,0,0.764,0,0,0,0, ,0,0,0,0,0, ,-39.4,81.5,996.5,-1.7,-8.6,1.1,25,-71.0729,68.8933,996.538,2.33369,-6.47619,-2.36126,
2026_06_26_17_09_39.816,3.87,35.4,0,0.764,0,0,0,0, ,0,0,0,0,0, ,-34.6,82.5,991.3,0.1,-8.1,0.8,25,-68.9966,69.692,996.377,2.14273,-6.59038,-2.15948,
2026_06_26_17_09_39.836,3.87,35.3,0,0.764,0,0,0,0, ,0,0,0,0,0, ,-31.2,84.2,1001.8,3.9,-2.8,-1.2,25,-66.797,70.5243,996.388,2.13404,-6.52089,-2.04008,
2026_06_26_17_09_39.856,3.87,35.4,0,0.766,0,0,0,0, ,0,0,0,0,0, ,-29.1,95.3,1024.2,1.6,-0.3,-0.5,25,-64.5638,71.6958,997.4,2.17157,-6.21797,-1.96756,
2026_06_26_17_09_39.875,3.87,35.2,0,0.764,0,0,0,0, ,0,0,0,0,0, ,-33.4,97.2,1016.8,0,0.2,-0.7,25,-62.5337,73.1921,998.808,2.08799,-5.84211,-1.88422,
2026_06_26_17_09_39.897,3.87,35.3,0,0.763,0,0,0,0, ,0,0,0,0,0, ,-46.7,92.4,985.9,-2.5,-3.3,0.1,25,-61.1636,74.5088,998.963,1.88458,-5.58056,-1.78768,
2026_06_26_17_09_39.915,3.87,35.3,0,0.763,0,0,0,0, ,0,0,0,0,0, ,-38.8,90.2,995.8,-2.9,-7.6,0.9,25,-60.0415,75.532,998.468,1.60521,-5.5726,-1.64828,
2026_06_26_17_09_39.937,3.87,35.3,0,0.766,0,0,0,0, ,0,0,0,0,0, ,-31.8,89.5,1006.7,-0.8,-2.5,-0.9,25,-58.5339,76.4045,998.638,1.39466,-5.54076,-1.54783,
2026_06_26_17_09_39.954,3.87,35.2,0,0.763,0,0,0,0, ,0,0,0,0,0, ,-32.8,88.7,1008.6,-0.8,0,-2.2,25,-56.9352,77.1782,999.187,1.26092,-5.27929,-1.54797,
2026_06_26_17_09_39.975,3.87,35.2,0,0.763,0,0,0,0, ,0,0,0,0,0, ,-32.7,84.1,990.2,-2.3,-1.8,-1.2,25,-55.4614,77.7401,999.2,1.08963,-5.01243,-1.55723,
2026_06_26_17_09_39.993,3.87,35.3,0,0.764,0,0,0,0, ,0,0,0,0,0, ,-29.2,81.5,992.4,-2.5,-2.9,-0.7,25,-53.9678,78.0485,998.719,0.876981,-4.85019,-1.52023,
2026_06_26_17_09_40.015,3.87,35.3,0,0.765,0,0,0,0, ,0,0,0,0,0, ,-28.5,80,989.2,-1.5,-1.9,-0.1,25,-52.4372,78.2131,998.236,0.701665,-4.70088,-1.45196,
2026_06_26_17_09_40.034,3.87,35.3,0,0.763,0,0,0,0, ,0,0,0,0,0, ,-35.7,90,998.4,0.5,-0.1,-1.4,25,-51.1979,78.6267,997.966,0.628439,-4.47536,-1.40919,
2026_06_26_17_09_40.055,3.87,35.3,0,0.762,0,0,0,0, ,0,0,0,0,0, ,-36.7,86,991.3,0.8,1.3,-3.4,25,-50.2839,79.1978,997.776,0.629753,-4.16608,-1.46957,
2026_06_26_17_09_40.072,3.87,35.3,0,0.764,0,0,0,0, ,0,0,0,0,0, ,-30.8,82.3,989.9,-0.5,-0.1,-2.8,25,-49.2764,79.4996,997.339,0.600518,-3.87564,-1.56892,
2026_06_26_17_09_40.095,3.87,35.2,0,0.765,0,0,0,0, ,0,0,0,0,0, ,-21.3,76.5,993.1,-0.7,-0.6,-1.8,25,-47.861,79.4935,996.983,0.527361,-3.6608,-1.61347,
2026_06_26_17_09_40.112,3.87,35.2,0,0.764,0,0,0,0, ,0,0,0,0,0, ,-26.7,78.6,987.5,0.1,0,-0.7,25,-46.407,79.3751,996.576,0.476944,-3.456,-1.59132,
2026_06_26_17_09_40.134,3.87,35.3,0,0.765,0,0,0,0, ,0,0,0,0,0, ,-33.4,87.6,996.7,1.1,0.6,-1.3,25,-45.4103,79.6021,996.303,0.484443,-3.22712,-1.55529,
2026_06_26_17_09_40.152,3.87,35.3,0,0.764,0,0,0,0, ,0,0,0,0,0, ,-33.8,90.8,996.3,0.2,0,-2.1,25,-44.6906,80.187,996.315,0.494531,-3.01219,-1.56411,
2026_06_26_17_09_40.175,3.87,35.2,0,0.765,0,0,0,0, ,0,0,0,0,0, ,-27.2,83.1,994.5,-0.7,-1.3,-1.8,25,-43.8258,80.5991,996.259,0.449161,-2.86824,-1.58762,
2026_06_26_17_09_40.192,3.87,35.3,0,0.763,0,0,0,0, ,0,0,0,0,0, ,-29.5,86.1,991.8,-0.9,-1.2,-1.2,25,-42.8828,80.8429,996.07,0.373041,-2.76963,-1.58228,
2026_06_26_17_09_40.215,3.87,35.3,0,0.764,0,0,0,0, ,0,0,0,0,0, ,-32.9,83.2,988.2,1,-0.7,-1.2,25,-42.1709,81.0749,995.7,0.353355,-2.65874,-1.55899,
2026_06_26_17_09_40.232,3.87,35.3,0,0.763,0,0,0,0, ,0,0,0,0,0, ,-37.3,90,998.9,1.3,-0.2,-1.5,25,-41.74,81.4116,995.569,0.401901,-2.52415,-1.54625,
2026_06_26_17_09_40.254,3.87,35.3,0,0.764,0,0,0,0, ,0,0,0,0,0, ,-37.3,91.7,1002,0,-1.9,-2.7,25,-41.4694,81.9867,995.866,0.417019,-2.43432,-1.58,
2026_06_26_17_09_40.271,3.87,35.3,0,0.763,0,0,0,0, ,0,0,0,0,0, ,-17.5,79.9,1003.7,-1.1,-1.2,-2,25,-40.6121,82.2191,996.292,0.358092,-2.38043,-1.62692,
2026_06_26_17_09_40.292,3.87,35.3,0,0.762,0,0,0,0, ,0,0,0,0,0, ,-27.9,83,992.4,-0.7,0.3,-1.8,25,-39.5205,82.1722,996.399,0.281427,-2.26279,-1.64356,
2026_06_26_17_09_40.310,3.87,35.3,0,0.763,0,0,0,0, ,0,0,0,0,0, ,-34.5,83,982.6,1.3,-0.1,-1.2,25,-39.0135,82.2227,995.857,0.282558,-2.11881,-1.63481,
2026_06_26_17_09_40.333,3.87,35.2,0,0.763,0,0,0,0, ,0,0,0,0,0, ,-31.3,93.6,1010.3,0.6,-1,-0.9,25,-38.641,82.593,995.893,0.323231,-2.02321,-1.59917,
2026_06_26_17_09_40.350,3.87,35.3,0,0.764,0,0,0,0, ,0,0,0,0,0, ,-35.1,98,1008.5,-0.3,0.1,-2.3,25,-38.3094,83.3978,996.716,0.312674,-1.92734,-1.59922,
2026_06_26_17_09_40.372,3.87,35.4,0,0.765,0,0,0,0, ,0,0,0,0,0, ,-34,93.6,1001,0,0,-3.9,25,-38.0803,84.1536,997.205,0.28448,-1.80685,-1.69068,
2026_06_26_17_09_40.389,3.87,35.4,0,0.764,0,0,0,0, ,0,0,0,0,0, ,-22.4,80.5,996.9,-1.5,-0.6,-2.9,25,-37.4782,84.3301,997.312,0.221442,-1.71503,-1.79484,
2026_06_26_17_09_40.411,3.87,35.3,0,0.764,0,0,0,0, ,0,0,0,0,0, ,-23.3,80.8,995.7,-1.4,-0.5,-1.1,25,-36.5868,84.1058,997.25,0.119588,-1.64403,-1.80734,
2026_06_26_17_09_40.429,3.87,35.6,0,0.763,0,0,0,0, ,0,0,0,0,0, ,-30.8,84.5,993,-0.3,0.3,-1.2,25,-36.0057,84.0171,997.073,0.0605039,-1.54994,-1.76728,
2026_06_26_17_09_40.452,3.87,35.2,0,0.764,0,0,0,0, ,0,0,0,0,0, ,-32.7,90.6,998.9,0,-0.7,-1.7,25,-35.7463,84.2324,997.005,0.0476763,-1.46768,-1.74795,
2026_06_26_17_09_40.469,3.87,35.3,0,0.764,0,0,0,0, ,0,0,0,0,0, ,-25.1,84.8,998.7,-1.3,-0.3,-2.1,25,-35.3291,84.4437,997.114,0.00516164,-1.40871,-1.75722,
2026_06_26_17_09_40.491,3.87,35.2,0,0.764,0,0,0,0, ,0,0,0,0,0, ,-33.2,84.2,988.6,0.3,-0.7,-2.1,25,-34.9526,84.4471,996.903,-0.0256216,-1.35334,-1.7781,
2026_06_26_17_09_40.509,3.87,35.3,0,0.764,0,0,0,0, ,0,0,0,0,0, ,-28.4,86.3,999.8,-0.7,-0.4,-1.6,25,-34.6996,84.4961,996.739,-0.0362478,-1.30439,-1.78249,
2026_06_26_17_09_40.531,3.87,35.4,0,0.764,0,0,0,0, ,0,0,0,0,0, ,-31.6,87.5,995.1,0.4,0.5,-1.8,25,-34.4132,84.6425,996.782,-0.0431796,-1.22185,-1.77746,
2026_06_26_17_09_40.548,3.87,35.3,0,0.763,0,0,0,0, ,0,0,0,0,0, ,-26.8,91.7,999.3,-0.7,0.5,-1.7,25,-34.0955,84.9446,996.807,-0.049689,-1.11693,-1.77579,
2026_06_26_17_09_40.570,3.87,35.3,0,0.764,0,0,0,0, ,0,0,0,0,0, ,-27.8,87,990.6,-2.1,0,-1,25,-33.6814,85.2131,996.694,-0.131974,-1.03363,-1.74984,
2026_06_26_17_09_40.587,3.87,35.2,0,0.763,0,0,0,0, ,0,0,0,0,0, ,-43.3,87.7,980.8,0.5,-0.3,-2.3,25,-33.7953,85.3433,996.024,-0.172681,-0.979784,-1.74376,
2026_06_26_17_09_40.609,3.87,35.3,0,0.763,0,0,0,0, ,0,0,0,0,0, ,-34.4,95,1004,0.2,-0.6,-2.9,25,-34.1033,85.7093,995.803,-0.14083,-0.9475,-1.79593,
2026_06_26_17_09_40.628,3.87,35.3,0,0.764,0,0,0,0, ,0,0,0,0,0, ,-28.1,87,999.5,0.1,0.6,-2.6,25,-33.9294,86.0317,996.166,-0.123108,-0.889762,-1.85407,
2026_06_26_17_09_40.653,3.87,35.2,0,0.762,0,0,0,0, ,0,0,0,0,0, ,-31.4,87.2,1002.9,-0.8,0.6,-1.8,25,-33.6747,86.0968,996.473,-0.136934,-0.798979,-1.87515,
2026_06_26_17_09_40.667,3.87,35.4,0,0.764,0,0,0,0, ,0,0,0,0,0, ,-43.3,86.6,993.6,-1,-0.8,-1.9,25,-33.8987,86.1458,996.581,-0.183434,-0.756385,-1.87362,
2026_06_26_17_09_40.689,3.87,35.4,0,0.763,0,0,0,0, ,0,0,0,0,0, ,-33.8,82.5,997.5,-1.6,-1.2,-2.7,25,-34.1821,86.0485,996.518,-0.251474,-0.771231,-1.8996,
2026_06_26_17_09_40.706,3.87,35.4,0,0.765,0,0,0,0, ,0,0,0,0,0, ,-27.8,83.9,995.7,-0.9,0.1,-2.3,25,-33.976,85.875,996.523,-0.312322,-0.757749,-1.93619,
2026_06_26_17_09_40.728,3.87,35.3,0,0.764,0,0,0,0, ,0,0,0,0,0, ,-26.8,85.2,998.7,0,0.7,-2.3,25,-33.5692,85.7942,996.564,-0.320712,-0.687199,-1.95836,
2026_06_26_17_09_40.750,3.87,35.2,0,0.765,0,0,0,0, ,0,0,0,0,0, ,-34.1,86.1,994.1,0,0.9,-2.2,25,-33.3791,85.7854,996.554,-0.301168,-0.596573,-1.97613,
2026_06_26_17_09_40.773,3.87,35.2,0,0.764,0,0,0,0, ,0,0,0,0,0, ,-37.4,88.6,993.2,-1.6,-0.9,-1.9,25,-33.5236,85.8808,996.377,-0.331566,-0.560219,-1.98063,
2026_06_26_17_09_40.785,3.87,35.3,0,0.766,0,0,0,0, ,0,0,0,0,0, ,-28.8,87.4,995.8,-2.3,-1.3,-2.1,25,-33.4978,86.0099,996.263,-0.430189,-0.593112,-1.98181,
2026_06_26_17_09_40.808,3.87,35.3,0,0.764,0,0,0,0, ,0,0,0,0,0, ,-30,85.2,990.1,-1.3,-0.4,-1.5,25,-33.2481,86.0276,996.061,-0.513662,-0.608766,-1.97073,
2026_06_26_17_09_40.825,3.87,35.4,0,0.764,0,0,0,0, ,0,0,0,0,0, ,-20.5,83.4,1020.7,-2.8,1.7,-0.8,25,-32.7607,85.9223,996.63,-0.607283,-0.53206,-1.92072,
2026_06_26_17_09_40.848,3.87,35.4,0,0.763,0,0,0,0, ,0,0,0,0,0, ,-30.2,86.9,1005.2,-4.3,5.6,-1.5,25,-32.3091,85.8752,997.625,-0.786604,-0.277216,-1.87375,
2026_06_26_17_09_40.864,3.87,35.2,0,0.763,0,0,0,0, ,0,0,0,0,0, ,-52.7,83.4,976.6,-3.4,3.4,-2.3,25,-32.8661,85.8311,997.215,-0.97328,0.0138957,-1.87535,
2026_06_26_17_09_40.887,3.87,35.4,0,0.764,0,0,0,0, ,0,0,0,0,0, ,-47.2,82.8,988.5,-2.9,0,-2.6,25,-33.9072,85.6646,996.321,-1.10592,0.116643,-1.91037,
2026_06_26_17_09_40.904,3.87,35.3,0,0.765,0,0,0,0, ,0,0,0,0,0, ,-35.6,76.9,999.5,-2.6,0.3,-2.8,25,-34.3638,85.3103,996.18,-1.20611,0.118675,-1.95849,
2026_06_26_17_09_40.926,3.87,35.3,0,0.763,0,0,0,0, ,0,0,0,0,0, ,-37.3,77.2,999.3,-2.8,1.3,-2.5,25,-34.4909,84.8069,996.376,-1.29714,0.160194,-2.00063,
2026_06_26_17_09_40.943,3.87,35.3,0,0.764,0,0,0,0, ,0,0,0,0,0, ,-43.7,78.6,984.7,-2.2,0.3,-2.2,25,-34.8571,84.386,996.109,-1.37044,0.199182,-2.02192,
2026_06_26_17_09_40.967,3.87,35.3,0,0.763,0,0,0,0, ,0,0,0,0,0, ,-40.5,82.6,996,-2,-1.7,-1.5,25,-35.2985,84.1553,995.758,-1.4149,0.144388,-2.01144,
2026_06_26_17_09_40.983,3.87,35.2,0,0.763,0,0,0,0, ,0,0,0,0,0, ,-47.4,92.4,1004,-2.7,-1.6,-2.1,25,-35.8257,84.3592,996.017,-1.47188,0.0350424,-1.99856,
2026_06_26_17_09_41.006,3.87,35.3,0,0.763,0,0,0,0, ,0,0,0,0,0, ,-21.6,82.7,1034.3,-6.4,2.1,-0.7,25,-35.7449,84.5536,997.426,-1.65946,0.0481414,-1.96208,
2026_06_26_17_09_41.028,3.87,35.3,0,0.765,0,0,0,0, ,0,0,0,0,0, ,-49,78.8,989.6,-7.1,3.2,-1.1,25,-35.7178,84.3218,998.312,-1.96966,0.206692,-1.89736,
2026_06_26_17_09_41.052,3.87,35.2,0,0.762,0,0,0,0, ,0,0,0,0,0, ,-53.1,71.1,971.8,-3.4,1,-2.8,25,-36.6521,83.7507,997.238,-2.16956,0.322066,-1.90057,
2026_06_26_17_09_41.062,3.87,35.2,0,0.765,0,0,0,0, ,0,0,0,0,0, ,-48.2,70.5,980.3,-1.4,-2.8,-2.4,25,-37.5051,82.9615,995.947,-2.1836,0.247596,-1.94319,
2026_06_26_17_09_41.085,3.87,35.3,0,0.763,0,0,0,0, ,0,0,0,0,0, ,-40.2,75,998.2,-2.8,-7.6,-1.6,25,-37.913,82.3393,995.539,-2.1785,-0.0843669,-1.94665,
2026_06_26_17_09_41.101,3.87,35.2,0,0.763,0,0,0,0, ,0,0,0,0,0, ,-30.3,71,1001.7,-4.3,-8,-0.8,25,-37.7508,81.7702,995.808,-2.26208,-0.554538,-1.90115,
2026_06_26_17_09_41.125,3.87,35.2,0,0.762,0,0,0,0, ,0,0,0,0,0, ,-33.8,65.3,981.3,-2.9,-6.3,-0.9,25,-37.4034,80.9402,995.545,-2.34361,-0.956449,-1.8371,
2026_06_26_17_09_41.141,3.87,35.2,0,0.763,0,0,0,0, ,0,0,0,0,0, ,-27.3,71.8,987.7,-3,-8,0.1,25,-36.9857,80.1852,994.872,-2.38056,-1.33387,-1.74953,
2026_06_26_17_09_41.164,3.87,35.2,0,0.762,0,0,0,0, ,0,0,0,0,0, ,-31.7,64.8,991.5,-3.3,-9.5,0.9,25,-36.5296,79.4609,994.551,-2.42745,-1.78579,-1.61244,
2026_06_26_17_09_41.180,3.87,35.3,0,0.763,0,0,0,0, ,0,0,0,0,0, ,-21.3,71,1003.6,-2.8,-6.9,-0.4,25,-35.9184,78.7564,994.734,-2.46539,-2.17666,-1.49895,
2026_06_26_17_09_41.203,3.87,35.3,0,0.764,0,0,0,0, ,0,0,0,0,0, ,-20.5,65.6,996.4,-1.6,-3.8,-1.2,25,-35.0032,78.1192,995.055,-2.44921,-2.37003,-1.45636,
2026_06_26_17_09_41.221,3.87,35.3,0,0.764,0,0,0,0, ,0,0,0,0,0, ,-28,69,1001.2,0.5,-1.6,-1.6,25,-34.3479,77.4599,995.283,-2.33348,-2.39014,-1.45293,
2026_06_26_17_09_41.244,3.87,35.2,0,0.763,0,0,0,0, ,0,0,0,0,0, ,-23,69.4,1012.4,-1.9,-3.2,-1,25,-33.8088,76.9566,995.985,-2.23394,-2.39074,-1.44361,
2026_06_26_17_09_41.260,3.87,35.3,0,0.765,0,0,0,0, ,0,0,0,0,0, ,-16.2,68.9,1022.4,-3.3,-1.9,-1.3,25,-32.9429,76.4809,997.29,-2.25625,-2.40044,-1.42571,
2026_06_26_17_09_41.284,3.87,35.2,0,0.766,0,0,0,0, ,0,0,0,0,0, ,-19.2,61.6,1006.9,-1.8,0.6,-3.1,25,-32.0141,75.7965,998.348,-2.27415,-2.29378,-1.4729,
2026_06_26_17_09_41.300,3.87,35.2,0,0.764,0,0,0,0, ,0,0,0,0,0, ,-18.1,57.8,1005.6,-2,-0.4,-2.2,25,-31.1997,74.8156,998.829,-2.25135,-2.14791,-1.54463,
2026_06_26_17_09_41.324,3.87,35.2,0,0.764,0,0,0,0, ,0,0,0,0,0, ,-20,56.2,1001.7,-2.1,-0.5,-1.7,25,-30.4593,73.73,999.123,-2.23908,-2.04444,-1.56933,
2026_06_26_17_09_41.339,3.87,35.3,0,0.763,0,0,0,0, ,0,0,0,0,0, ,-21.8,60.4,1000.1,-2,-0.9,-1.3,25,-29.8768,72.7897,999.231,-2.22756,-1.96251,-1.56511,
2026_06_26_17_09_41.363,3.87,35.2,0,0.763,0,0,0,0, ,0,0,0,0,0, ,-17.3,61.2,999,-1.4,-0.9,-1.6,25,-29.2475,72.0591,999.251,-2.19541,-1.89777,-1.55809,
2026_06_26_17_09_41.379,3.87,35.2,0,0.765,0,0,0,0, ,0,0,0,0,0, ,-19.4,61.4,998.6,-0.1,1.8,-2.6,25,-28.5834,71.4035,999.223,-2.10733,-1.7547,-1.59111,
2026_06_26_17_09_41.403,3.87,35.3,0,0.765,0,0,0,0, ,0,0,0,0,0, ,-28.3,60.6,988.5,-0.3,0.4,-2.1,25,-28.295,70.7695,998.877,-1.9911,-1.58074,-1.63736,
2026_06_26_17_09_41.419,3.87,35.2,0,0.764,0,0,0,0, ,0,0,0,0,0, ,-20.5,62.8,994.3,-0.9,-1.7,-1.2,25,-28.0576,70.2168,998.422,-1.90633,-1.52402,-1.63813,
2026_06_26_17_09_41.443,3.87,35.2,0,0.763,0,0,0,0, ,0,0,0,0,0, ,-22.7,60.3,993.2,-1.9,-1.8,-0.6,25,-27.6641,69.6887,998.137,-1.87548,-1.53779,-1.59315,
2026_06_26_17_09_41.458,3.87,35.2,0,0.763,0,0,0,0, ,0,0,0,0,0, ,-24.4,60.6,985.5,-1.6,-2.1,-0.6,25,-27.4134,69.1257,997.602,-1.86783,-1.56291,-1.53263,
2026_06_26_17_09_41.482,3.87,35.3,0,0.764,0,0,0,0, ,0,0,0,0,0, ,-29.7,69,997,-0.5,-2.3,-0.6,25,-27.3913,68.8621,997.215,-1.81799,-1.60174,-1.4758,
2026_06_26_17_09_41.497,3.87,35.2,0,0.763,0,0,0,0, ,0,0,0,0,0, ,-29.6,67.2,1005.2,-1.2,-1,-2.2,25,-27.5289,68.8157,997.451,-1.75901,-1.60468,-1.47118,
2026_06_26_17_09_41.521,3.87,35.2,0,0.764,0,0,0,0, ,0,0,0,0,0, ,-25.7,60.5,995.9,-0.8,-0.7,-2.3,25,-27.5363,68.5131,997.64,-1.71275,-1.55869,-1.51864,
2026_06_26_17_09_41.537,3.87,35.3,0,0.764,0,0,0,0, ,0,0,0,0,0, ,-24.9,56.2,1000.7,-0.5,-1.2,-1.9,25,-27.4,67.8938,997.68,-1.64799,-1.5216,-1.55406,
2026_06_26_17_09_41.560,3.87,35.3,0,0.765,0,0,0,0, ,0,0,0,0,0, ,-23.5,59.4,1010.4,-1.5,-0.3,-1.8,25,-27.205,67.2787,998.16,-1.60851,-1.47458,-1.5721,
2026_06_26_17_09_41.577,3.87,35.3,0,0.764,0,0,0,0, ,0,0,0,0,0, ,-20.9,62.3,1012.2,-2.7,0.1,-1.8,25,-26.9,66.8869,998.961,-1.63846,-1.39081,-1.58599,
2026_06_26_17_09_41.601,3.87,35.2,0,0.763,0,0,0,0, ,0,0,0,0,0, ,-13.1,58.2,1009,-4.1,0.7,-1.8,25,-26.2967,66.4825,999.67,-1.7458,-1.28169,-1.59903,
2026_06_26_17_09_41.617,3.87,35.3,0,0.764,0,0,0,0, ,0,0,0,0,0, ,-12.6,56.7,1014.7,-5.2,2.5,-1.2,25,-25.4773,65.9321,1000.41,-1.92277,-1.10608,-1.59299,
2026_06_26_17_09_41.640,3.87,35.1,0,0.763,0,0,0,0, ,0,0,0,0,0, ,-28.4,55.1,987.5,-5.9,3.6,-1.4,25,-25.174,65.3207,1000.45,-2.14381,-0.852822,-1.57514,
2026_06_26_17_09_41.656,3.87,35.2,0,0.765,0,0,0,0, ,0,0,0,0,0, ,-28.4,54.1,984.8,-4.1,2.4,-2.5,25,-25.3706,64.6674,999.582,-2.31786,-0.618041,-1.59798,
2026_06_26_17_09_41.680,3.87,35.2,0,0.765,0,0,0,0, ,0,0,0,0,0, ,-20.6,50.4,1001.3,-4.6,0.7,-1.2,25,-25.3176,63.9108,999.184,-2.44169,-0.485926,-1.61334,
2026_06_26_17_09_41.696,3.87,35.2,0,0.764,0,0,0,0, ,0,0,0,0,0, ,-24.4,58.2,1005,-6.2,1.2,-0.9,25,-25.1459,63.3251,999.426,-2.62196,-0.398424,-1.57901,
2026_06_26_17_09_41.720,3.87,35.2,0,0.763,0,0,0,0, ,0,0,0,0,0, ,-33.4,52.8,985.3,-5.8,1.5,-2.6,25,-25.3746,62.8483,999.165,-2.82781,-0.29188,-1.58943,
2026_06_26_17_09_41.735,3.87,35.4,0,0.764,0,0,0,0, ,0,0,0,0,0, ,-36.7,41.5,970.7,-2.6,0.6,-3.3,25,-25.9642,61.8916,997.876,-2.91143,-0.210109,-1.67234,
2026_06_26_17_09_41.759,3.87,35.3,0,0.764,0,0,0,0, ,0,0,0,0,0, ,-37.1,43,977.5,0,-2.1,-2.5,25,-26.6306,60.6947,996.427,-2.81323,-0.243008,-1.74715,
2026_06_26_17_09_41.775,3.87,35.2,0,0.766,0,0,0,0, ,0,0,0,0,0, ,-28.8,45.7,997.1,0.3,-4,-1.7,25,-27.0157,59.6987,995.871,-2.63266,-0.414059,-1.76865,
2026_06_26_17_09_41.800,3.87,35.2,0,0.764,0,0,0,0, ,0,0,0,0,0, ,-26.1,55.6,1015,0.4,-2.1,-2.3,25,-27.0422,59.1473,996.491,-2.45091,-0.574687,-1.78275,
2026_06_26_17_09_41.814,3.87,35.2,0,0.765,0,0,0,0, ,0,0,0,0,0, ,-26.2,53.1,1018.4,-1.6,0.1,-2.8,25,-26.9878,58.855,997.722,-2.33812,-0.600605,-1.8295,
2026_06_26_17_09_41.839,3.87,35.3,0,0.764,0,0,0,0, ,0,0,0,0,0, ,-30.6,43.9,1005,-2.6,-0.3,-2.5,25,-27.0739,58.224,998.574,-2.32361,-0.570099,-1.8795,
2026_06_26_17_09_41.853,3.87,35.3,0,0.765,0,0,0,0, ,0,0,0,0,0, ,-27.4,45.4,1005.4,-3.3,-1.2,-2,25,-27.1912,57.3968,998.978,-2.36178,-0.581062,-1.90208,
2026_06_26_17_09_41.878,3.87,35.2,0,0.765,0,0,0,0, ,0,0,0,0,0, ,-24.9,43.3,1002.6,-3.7,-2.5,-2,25,-27.1278,56.6018,999.284,-2.43114,-0.658388,-1.90805,
2026_06_26_17_09_41.894,3.87,35.2,0,0.765,0,0,0,0, ,0,0,0,0,0, ,-21.8,44,1000,-2.6,-2,-2.2,25,-26.8976,55.8125,999.407,-2.47494,-0.755377,-1.91974,
2026_06_26_17_09_41.918,3.87,35.2,0,0.764,0,0,0,0, ,0,0,0,0,0, ,-17.4,49.1,1013.6,-3.2,-0.1,-2.5,25,-26.4529,55.2481,999.857,-2.50084,-0.77333,-1.94596,
2026_06_26_17_09_41.933,3.87,35.3,0,0.763,0,0,0,0, ,0,0,0,0,0, ,-20.6,42.6,1000.3,-4.9,0.7,-2.1,25,-25.9987,54.6754,1000.29,-2.59525,-0.707924,-1.96754,
2026_06_26_17_09_41.957,3.87,35.2,0,0.763,0,0,0,0, ,0,0,0,0,0, ,-29.2,35.5,984.6,-4.3,-1.1,-2.3,25,-25.9318,53.7232,999.812,-2.71741,-0.676972,-1.9817,
2026_06_26_17_09_41.972,3.87,35.2,0,0.764,0,0,0,0, ,0,0,0,0,0, ,-19.4,36.7,999.5,-4.4,-2.6,-2,25,-25.8323,52.6493,999.339,-2.8169,-0.748454,-1.99196,
2026_06_26_17_09_41.996,3.87,35.2,0,0.763,0,0,0,0, ,0,0,0,0,0, ,-17.7,34.1,998,-3.9,-1.2,-1.8,25,-25.3886,51.5982,999.303,-2.89813,-0.818626,-1.98635,
2026_06_26_17_09_42.011,3.87,35.2,0,0.763,0,0,0,0, ,0,0,0,0,0, ,-20,36.2,995.4,-3.2,0,-1.9,25,-24.9901,50.5959,999.144,-2.93786,-0.805304,-1.97805,
2026_06_26_17_09_42.036,3.87,35.3,0,0.764,0,0,0,0, ,0,0,0,0,0, ,-18.3,34.6,997.5,-2.7,0.2,-1.3,25,-24.6342,49.6699,998.98,-2.9386,-0.750137,-1.95501,
2026_06_26_17_09_42.051,3.87,35.2,0,0.764,0,0,0,0, ,0,0,0,0,0, ,-22.7,40,1012.6,-3.2,0.1,-1.3,25,-24.3823,48.9161,999.35,-2.93929,-0.695285,-1.91509,
2026_06_26_17_09_42.076,3.87,35.2,0,0.765,0,0,0,0, ,0,0,0,0,0, ,-28.8,32.4,992.7,-3.4,-0.2,-1.5,25,-24.4657,48.1412,999.551,-2.96127,-0.655963,-1.88371,
2026_06_26_17_09_42.091,3.87,35.2,0,0.762,0,0,0,0, ,0,0,0,0,0, ,-30.3,35.2,995.3,-2.2,-0.8,-1.4,25,-24.7755,47.2673,999.213,-2.95144,-0.646459,-1.85728,
2026_06_26_17_09_42.116,3.87,35.2,0,0.762,0,0,0,0, ,0,0,0,0,0, ,-24.7,37.7,1013.7,-2.5,-1.8,-1.7,25,-24.9415,46.6081,999.535,-2.91479,-0.686284,-1.83855,
2026_06_26_17_09_42.131,3.87,35.2,0,0.762,0,0,0,0, ,0,0,0,0,0, ,-18.6,35.6,1015.5,-3.4,-1.2,-1.5,25,-24.7409,46.0013,1000.45,-2.91694,-0.73587,-1.82402,
2026_06_26_17_09_42.157,3.87,35.2,0,0.762,0,0,0,0, ,0,0,0,0,0, ,-23.3,30,1002.1,-4.6,0.1,-1.2,25,-24.5099,45.1968,1000.96,-2.98294,-0.724543,-1.79513,
2026_06_26_17_09_42.170,3.87,35.2,0,0.763,0,0,0,0, ,0,0,0,0,0, ,-30.8,27,989.2,-3,1.3,-1.8,25,-24.6647,44.1794,1000.64,-3.03273,-0.637735,-1.77715,
2026_06_26_17_09_42.195,3.87,35.2,0,0.763,0,0,0,0, ,0,0,0,0,0, ,-31.4,29.4,995.6,-1,0.9,-2.7,25,-25.0569,43.2056,1000.14,-2.9698,-0.531842,-1.80596,
2026_06_26_17_09_42.210,3.87,35.2,0,0.763,0,0,0,0, ,0,0,0,0,0, ,-30.2,27.2,999.8,-1,-0.8,-3,25,-25.4068,42.2973,999.988,-2.84976,-0.496386,-1.86958,
2026_06_26_17_09_42.237,3.87,35.2,0,0.764,0,0,0,0, ,0,0,0,0,0, ,-22.4,26.9,1000.9,-1.6,-2.1,-2.5,25,-25.4613,41.3682,1000.01,-2.75532,-0.554497,-1.92323,
2026_06_26_17_09_42.249,3.87,35.2,0,0.764,0,0,0,0, ,0,0,0,0,0, ,-19.1,25.8,1003.4,-2.3,-0.6,-1.1,25,-25.1742,40.453,1000.14,-2.70625,-0.602973,-1.91572,
2026_06_26_17_09_42.274,3.87,35.2,0,0.765,0,0,0,0, ,0,0,0,0,0, ,-25.1,28.6,998.4,-1.5,2.1,-1.6,25,-24.9868,39.6454,1000.19,-2.65712,-0.520526,-1.88125,
2026_06_26_17_09_42.289,3.87,35.2,0,0.763,0,0,0,0, ,0,0,0,0,0, ,-33.4,26.1,986.6,-0.6,0.9,-2.2,25,-25.2466,38.8961,999.718,-2.55918,-0.3974,-1.88239,
2026_06_26_17_09_42.314,3.87,35.2,0,0.765,0,0,0,0, ,0,0,0,0,0, ,-23.6,26,998.5,-1.5,-1.4,-2.2,25,-25.4449,38.1133,999.281,-2.46722,-0.388418,-1.90175,
2026_06_26_17_09_42.329,3.87,35.2,0,0.763,0,0,0,0, ,0,0,0,0,0, ,-19.5,20,993.4,-1.4,-0.2,-1.6,25,-25.2075,37.1924,999.078,-2.40523,-0.413499,-1.90164,
2026_06_26_17_09_42.354,3.87,35.3,0,0.764,0,0,0,0, ,0,0,0,0,0, ,-22.3,24.7,1002.4,-0.2,0.2,-0.9,25,-24.945,36.2879,999.006,-2.30741,-0.388301,-1.86193,
2026_06_26_17_09_42.368,3.87,35.3,0,0.764,0,0,0,0, ,0,0,0,0,0, ,-26,27.7,1004.6,-1.5,0.3,-0.6,25,-24.8966,35.6732,999.28,-2.2186,-0.349405,-1.79417,
2026_06_26_17_09_42.394,3.87,35.2,0,0.763,0,0,0,0, ,0,0,0,0,0, ,-29.6,25,995.8,-1.2,-0.2,-1.3,25,-25.0735,35.105,999.336,-2.16567,-0.325066,-1.74273,
2026_06_26_17_09_42.407,3.87,35.3,0,0.764,0,0,0,0, ,0,0,0,0,0, ,-28.4,23.5,997.3,-1,-0.9,-1.9,25,-25.3128,34.4436,999.167,-2.10073,-0.338773,-1.73403,
2026_06_26_17_09_42.434,3.87,35.2,0,0.764,0,0,0,0, ,0,0,0,0,0, ,-19.2,20.7,1006.7,-1.2,-0.6,-1.3,25,-25.2206,33.6914,999.339,-2.03975,-0.363832,-1.72586,
2026_06_26_17_09_42.447,3.87,35.3,0,0.764,0,0,0,0, ,0,0,0,0,0, ,-30,26.8,998.2,-1.2,0,-0.1,25,-25.1828,33.0856,999.529,-1.98858,-0.359942,-1.66335,
2026_06_26_17_09_42.474,3.87,35.2,0,0.763,0,0,0,0, ,0,0,0,0,0, ,-30.3,29.6,1007.2,-1.8,0.4,-1,25,-25.4855,32.7879,999.722,-1.9588,-0.325821,-1.59551,
2026_06_26_17_09_42.487,3.87,35.2,0,0.763,0,0,0,0, ,0,0,0,0,0, ,-30.6,29.1,999.8,-1,0.6,-2.4,25,-25.788,32.5784,999.952,-1.92475,-0.275497,-1.60187,
2026_06_26_17_09_42.512,3.87,35.3,0,0.764,0,0,0,0, ,0,0,0,0,0, ,-33.6,25.8,999.5,-0.5,0.2,-3.1,25,-26.1726,32.2659,999.934,-1.85317,-0.234334,-1.67184,
2026_06_26_17_09_42.526,3.87,35.3,0,0.764,0,0,0,0, ,0,0,0,0,0, ,-21.1,25.6,1011.3,-2.1,0,-2.1,25,-26.2444,31.8658,1000.27,-1.81946,-0.213961,-1.7284,
2026_06_26_17_09_42.553,3.87,35.3,0,0.762,0,0,0,0, ,0,0,0,0,0, ,-24.6,24.2,1009.2,-2.8,2.2,-1,25,-26.0375,31.4413,1000.88,-1.85788,-0.133891,-1.71753,
2026_06_26_17_09_42.566,3.87,35.3,0,0.763,0,0,0,0, ,0,0,0,0,0, ,-33.5,29.2,1012.2,-3.5,4,-1.5,25,-26.2211,31.1524,1001.47,-1.93662,0.063174,-1.68904,
2026_06_26_17_09_42.592,3.87,35.3,0,0.764,0,0,0,0, ,0,0,0,0,0, ,-38.9,26.9,1006.9,-4.1,2.5,-2.3,25,-26.8292,30.9633,1001.97,-2.05017,0.257371,-1.70189,
2026_06_26_17_09_42.606,3.87,35.3,0,0.762,0,0,0,0, ,0,0,0,0,0, ,-35.8,19.4,998.7,-4.5,0.9,-3,25,-27.4703,30.4872,1002.02,-2.18727,0.345281,-1.75967,
2026_06_26_17_09_42.631,3.87,35.3,0,0.762,0,0,0,0, ,0,0,0,0,0, ,-37.7,13.6,978.5,-2.4,0.1,-3,25,-28.0358,29.6348,1001.2,-2.26422,0.35471,-1.83525,
2026_06_26_17_09_42.645,3.87,35.3,0,0.764,0,0,0,0, ,0,0,0,0,0, ,-31.7,16.7,998.9,-0.7,-0.7,-2.6,25,-28.4419,28.7522,1000.44,-2.22069,0.314813,-1.89404,
2026_06_26_17_09_42.671,3.87,35.3,0,0.762,0,0,0,0, ,0,0,0,0,0, ,-31.2,15.9,999,-1.3,0,-2.3,25,-28.6252,27.9934,1000.35,-2.14631,0.274301,-1.92792,
2026_06_26_17_09_42.684,3.87,35.3,0,0.764,0,0,0,0, ,0,0,0,0,0, ,-36.2,14.8,986.2,-0.5,-1,-2.3,25,-28.9344,27.2229,999.875,-2.07036,0.227117,-1.95059,
2026_06_26_17_09_42.711,3.87,35.3,0,0.765,0,0,0,0, ,0,0,0,0,0, ,-32.4,15.6,990.6,0.5,-2.6,-2.6,25,-29.2614,26.4903,999.176,-1.9442,0.10359,-1.98102,
2026_06_26_17_09_42.724,3.87,35.2,0,0.763,0,0,0,0, ,0,0,0,0,0, ,-20.3,15.7,1005.4,0.2,-1.1,-2.3,25,-29.084,25.8297,999.104,-1.8044,-0.0154572,-2.0096,
2026_06_26_17_09_42.749,3.87,35.3,0,0.763,0,0,0,0, ,0,0,0,0,0, ,-29.1,15.2,996.9,0.1,0.6,-1.9,25,-28.8168,25.1972,999.229,-1.6853,-0.0297496,-2.01511,
2026_06_26_17_09_42.764,3.87,35.3,0,0.762,0,0,0,0, ,0,0,0,0,0, ,-38.8,23,996.8,0.3,-0.9,-1.4,25,-29.1296,24.8256,999.084,-1.57041,-0.0370774,-1.99286,
2026_06_26_17_09_42.789,3.87,35.3,0,0.762,0,0,0,0, ,0,0,0,0,0, ,-29.9,18.3,998.4,0.8,-0.6,-2.6,25,-29.4478,24.5712,998.993,-1.4412,-0.0805211,-1.9933,
2026_06_26_17_09_42.804,3.87,35.2,0,0.764,0,0,0,0, ,0,0,0,0,0, ,-29.7,20.8,1006.7,0,-1.2,-2,25,-29.4692,24.2652,999.21,-1.329,-0.130458,-2.01199,
2026_06_26_17_09_42.830,3.87,35.2,0,0.764,0,0,0,0, ,0,0,0,0,0, ,-32.7,18.7,998.1,-0.9,-1.4,-2.2,25,-29.5747,23.9901,999.404,-1.27544,-0.201727,-2.01735,
2026_06_26_17_09_42.843,3.87,35.2,0,0.764,0,0,0,0, ,0,0,0,0,0, ,-28.8,17.2,999,0.3,-0.7,-2.1,25,-29.6463,23.622,999.352,-1.216,-0.253419,-2.02543,
2026_06_26_17_09_42.869,3.87,35.3,0,0.765,0,0,0,0, ,0,0,0,0,0, ,-23.3,16.4,1006.7,-0.9,-0.3,-1.3,25,-29.4272,23.2063,999.566,-1.16018,-0.268445,-2.0056,
2026_06_26_17_09_42.882,3.87,35.3,0,0.763,0,0,0,0, ,0,0,0,0,0, ,-28.3,19.4,999.3,-0.4,-0.3,-1.1,25,-29.2061,22.8829,999.775,-1.12909,-0.270368,-1.95651,
2026_06_26_17_09_42.908,3.87,35.3,0,0.763,0,0,0,0, ,0,0,0,0,0, ,-30.7,19.2,997,-0.2,0,-2,25,-29.224,22.6646,999.676,-1.07857,-0.263033,-1.93174,
2026_06_26_17_09_42.923,3.87,35.3,0,0.765,0,0,0,0, ,0,0,0,0,0, ,-30.3,17.2,998.2,0.1,-0.2,-1.3,25,-29.3018,22.3925,999.549,-1.01589,-0.253098,-1.91457,
2026_06_26_17_09_42.949,3.87,35.2,0,0.763,0,0,0,0, ,0,0,0,0,0, ,-35.5,20.8,1006.7,0,-0.2,-0.9,25,-29.5211,22.1858,999.726,-0.950937,-0.249862,-1.86493,
2026_06_26_17_09_42.962,3.87,35.3,0,0.762,0,0,0,0, ,0,0,0,0,0, ,-36.8,26,1006.2,-0.2,-1.2,-1.5,25,-29.925,22.2598,1000.14,-0.899083,-0.277293,-1.82441,
2026_06_26_17_09_42.988,3.87,35.2,0,0.763,0,0,0,0, ,0,0,0,0,0, ,-30.8,25.1,1007.2,-0.1,-0.8,-2.3,25,-30.1611,22.4603,1000.54,-0.853436,-0.321333,-1.82902,
2026_06_26_17_09_43.001,3.87,35.2,0,0.764,0,0,0,0, ,0,0,0,0,0, ,-32.1,20.5,994.8,-0.4,0.2,-2.7,25,-30.2397,22.481,1000.56,-0.816664,-0.320033,-1.86991,
2026_06_26_17_09_43.029,3.87,35.3,0,0.763,0,0,0,0, ,0,0,0,0,0, ,-36.1,18.1,990.1,-0.2,-1.8,-1.6,25,-30.4749,22.2871,1000.07,-0.78518,-0.349281,-1.88698,
2026_06_26_17_09_43.041,3.87,35.3,0,0.763,0,0,0,0, ,0,0,0,0,0, ,-30.3,21.7,1004.3,-0.4,-2.7,-1.7,25,-30.641,22.1417,999.895,-0.755614,-0.465106,-1.87254,
2026_06_26_17_09_43.067,3.87,35.3,0,0.764,0,0,0,0, ,0,0,0,0,0, ,-30.8,19.7,998.2,0.1,-2.1,-2.4,25,-30.6354,22.0538,999.977,-0.718709,-0.583013,-1.88335,
2026_06_26_17_09_43.082,3.87,35.2,0,0.764,0,0,0,0, ,0,0,0,0,0, ,-25.7,16.6,997.4,0.4,0.1,-2.5,25,-30.4901,21.8159,999.845,-0.659679,-0.608423,-1.91788,
2026_06_26_17_09_43.108,3.87,35.2,0,0.763,0,0,0,0, ,0,0,0,0,0, ,-27.9,19.5,1000.6,0,0.1,-1.8,25,-30.2652,21.5864,999.793,-0.607292,-0.565254,-1.93202,
2026_06_26_17_09_43.120,3.87,35.2,0,0.763,0,0,0,0, ,0,0,0,0,0, ,-28.5,23,1004.7,-0.6,-0.4,-1.4,25,-30.1394,21.5659,999.967,-0.588566,-0.539949,-1.91179,
2026_06_26_17_09_43.147,3.87,35.2,0,0.763,0,0,0,0, ,0,0,0,0,0, ,-29.5,20.7,999.1,-0.9,-0.8,-1.5,25,-30.0699,21.5833,1000.09,-0.598404,-0.543609,-1.88365,
2026_06_26_17_09_43.159,3.87,35.3,0,0.763,0,0,0,0, ,0,0,0,0,0, ,-31.1,22.8,998.5,0.5,-0.1,-2.6,25,-30.084,21.5934,1000.01,-0.574126,-0.537904,-1.89379,
2026_06_26_17_09_43.186,3.87,35.3,0,0.763,0,0,0,0, ,0,0,0,0,0, ,-29.4,19.6,996.9,0.2,0.1,-2.7,25,-30.0941,21.5694,999.866,-0.517812,-0.505126,-1.93987,
2026_06_26_17_09_43.199,3.87,35.2,0,0.764,0,0,0,0, ,0,0,0,0,0, ,-26.7,18.4,1002.1,0,0.1,-1.7,25,-29.9695,21.4129,999.844,-0.480164,-0.468251,-1.95572,
2026_06_26_17_09_43.225,3.87,35.2,0,0.763,0,0,0,0, ,0,0,0,0,0, ,-33.6,20,993.4,0.1,0,-1,25,-29.9805,21.278,999.716,-0.447857,-0.43667,-1.91881,
2026_06_26_17_09_43.239,3.87,35.3,0,0.763,0,0,0,0, ,0,0,0,0,0, ,-33.9,24.5,1004.3,-0.3,-1.4,-1,25,-30.2102,21.3373,999.663,-0.42666,-0.452717,-1.86282,
2026_06_26_17_09_43.266,3.87,35.2,0,0.764,0,0,0,0, ,0,0,0,0,0, ,-27.4,22.7,1007,-0.6,-0.8,-1.8,25,-30.237,21.4751,1000.03,-0.428082,-0.492161,-1.83462,
2026_06_26_17_09_43.278,3.87,35.2,0,0.765,0,0,0,0, ,0,0,0,0,0, ,-31.8,24.1,1005.6,0,0.8,-2.6,25,-30.1982,21.5924,1000.41,-0.420277,-0.46217,-1.85688,
2026_06_26_17_09_43.306,3.87,35.2,0,0.763,0,0,0,0, ,0,0,0,0,0, ,-29.6,20.2,1001,-0.8,-0.2,-1.7,25,-30.2288,21.6264,1000.59,-0.419041,-0.415725,-1.87474,
2026_06_26_17_09_43.317,3.87,35.2,0,0.764,0,0,0,0, ,0,0,0,0,0, ,-29.6,15.3,997.5,-0.6,-0.7,-1.2,25,-30.1905,21.3902,1000.51,-0.436162,-0.417813,-1.84886,
2026_06_26_17_09_43.345,3.87,35.2,0,0.763,0,0,0,0, ,0,0,0,0,0, ,-32.9,21.4,997.8,0.3,-0.3,-1.4,25,-30.255,21.2049,1000.33,-0.418724,-0.422822,-1.81542,
2026_06_26_17_09_43.357,3.87,35.2,0,0.764,0,0,0,0, ,0,0,0,0,0, ,-35.6,29.1,1001.3,0.1,-0.9,-2,25,-30.4985,21.4514,1000.28,-0.381021,-0.433619,-1.80838,
2026_06_26_17_09_43.384,3.87,35.2,0,0.763,0,0,0,0, ,0,0,0,0,0, ,-27.7,23.6,1004.2,-1.2,-0.1,-2.6,25,-30.5686,21.7499,1000.43,-0.391318,-0.437664,-1.83834,
2026_06_26_17_09_43.397,3.87,35.2,0,0.764,0,0,0,0, ,0,0,0,0,0, ,-30.2,19.6,993.6,-0.2,0.2,-1.9,25,-30.47,21.7408,1000.34,-0.410128,-0.407947,-1.86343,
2026_06_26_17_09_43.424,3.87,35.2,0,0.763,0,0,0,0, ,0,0,0,0,0, ,-34.3,20.7,994.8,0.5,0,-1.8,25,-30.5785,21.6439,999.966,-0.375995,-0.376994,-1.86261,
2026_06_26_17_09_43.436,3.87,35.1,0,0.763,0,0,0,0, ,0,0,0,0,0, ,-32.5,25.3,1001.7,-0.2,-0.9,-1.8,25,-30.7504,21.7265,999.862,-0.343943,-0.381442,-1.85879,
2026_06_26_17_09_43.463,3.87,35.3,0,0.764,0,0,0,0, ,0,0,0,0,0, ,-37.4,25.5,1003,-0.5,-1.3,-2.4,25,-31.0063,21.9504,1000.01,-0.344312,-0.42523,-1.87349,
2026_06_26_17_09_43.476,3.87,35.3,0,0.764,0,0,0,0, ,0,0,0,0,0, ,-24.6,17.3,1006.8,-1.3,-0.8,-2,25,-31.0059,21.9168,1000.31,-0.378174,-0.463301,-1.89339,
2026_06_26_17_09_43.503,3.87,35.3,0,0.766,0,0,0,0, ,0,0,0,0,0, ,-28.9,19.2,1003.4,0,0.6,-1.6,25,-30.7466,21.6934,1000.6,-0.394738,-0.441163,-1.8877,
2026_06_26_17_09_43.515,3.87,35.2,0,0.763,0,0,0,0, ,0,0,0,0,0, ,-32.8,22.9,1001,-0.5,0.1,-1.8,25,-30.7529,21.6542,1000.7,-0.385918,-0.392951,-1.87626,
2026_06_26_17_09_43.542,3.87,35.2,0,0.764,0,0,0,0, ,0,0,0,0,0, ,-33.5,21.2,996.7,-0.4,-1,-2.2,25,-30.899,21.6783,1000.59,-0.389823,-0.396428,-1.8838,
2026_06_26_17_09_43.555,3.87,35.2,0,0.762,0,0,0,0, ,0,0,0,0,0, ,-25.6,17.9,1000.9,-0.8,-1.3,-1.9,25,-30.8168,21.5486,1000.48,-0.402631,-0.442349,-1.89393,
2026_06_26_17_09_43.583,3.87,35.3,0,0.764,0,0,0,0, ,0,0,0,0,0, ,-27.8,20.7,1001.2,-0.1,-0.8,-2,25,-30.5659,21.4116,1000.51,-0.405518,-0.479377,-1.89734,
2026_06_26_17_09_43.595,3.87,35.2,0,0.764,0,0,0,0, ,0,0,0,0,0, ,-27.9,21.1,995.2,0.3,0.2,-2.4,25,-30.4004,21.3804,1000.37,-0.374713,-0.468446,-1.91579,
2026_06_26_17_09_43.622,3.87,35.2,0,0.763,0,0,0,0, ,0,0,0,0,0, ,-27,18.3,996.3,-0.3,-1.2,-1,25,-30.2206,21.278,1000.09,-0.351879,-0.470369,-1.90264,
2026_06_26_17_09_43.634,3.87,35.2,0,0.763,0,0,0,0, ,0,0,0,0,0, ,-32.1,22.9,996.8,-0.1,-1.3,-1,25,-30.1797,21.2367,999.875,-0.342623,-0.517878,-1.84763,
2026_06_26_17_09_43.662,3.87,35.2,0,0.763,0,0,0,0, ,0,0,0,0,0, ,-29.6,25.6,999.8,0.4,-0.1,-2.3,25,-30.2206,21.4203,999.779,-0.312604,-0.528976,-1.83559,
2026_06_26_17_09_43.674,3.87,35.3,0,0.763,0,0,0,0, ,0,0,0,0,0, ,-33.3,26.4,995.4,1.3,-0.8,-2.3,25,-30.2955,21.6994,999.646,-0.241758,-0.524163,-1.86389,
2026_06_26_17_09_43.701,3.87,35.2,0,0.763,0,0,0,0, ,0,0,0,0,0, ,-31.4,22.5,1001,0,-0.4,-2,25,-30.4207,21.867,999.558,-0.187417,-0.528785,-1.88132,
2026_06_26_17_09_43.713,3.87,35.2,0,0.762,0,0,0,0, ,0,0,0,0,0, ,-31.6,23.8,1004.1,0,-0.3,-1.9,25,-30.4865,21.9452,999.74,-0.175996,-0.51789,-1.88551,
2026_06_26_17_09_43.742,3.87,35.2,0,0.764,0,0,0,0, ,0,0,0,0,0, ,-33.2,22.8,1003.5,-0.9,-1.2,-1.9,25,-30.6031,22.0277,999.988,-0.192693,-0.532034,-1.88639,
2026_06_26_17_09_43.753,3.87,35.2,0,0.764,0,0,0,0, ,0,0,0,0,0, ,-25.3,19.6,999.1,-0.5,-0.4,-2.1,25,-30.5206,21.9773,1000.07,-0.223607,-0.548363,-1.89332,
2026_06_26_17_09_43.779,3.87,35.1,0,0.764,0,0,0,0, ,0,0,0,0,0, ,-27.8,19.5,996.5,0.1,0.1,-1.8,25,-30.2787,21.8294,999.93,-0.222168,-0.524088,-1.89677,
2026_06_26_17_09_43.793,3.87,35.3,0,0.764,0,0,0,0, ,0,0,0,0,0, ,-31.4,23.6,1001.9,0.2,-0.9,-1.1,25,-30.2373,21.8124,999.885,-0.199489,-0.516527,-1.86954,
2026_06_26_17_09_43.821,3.87,35.3,0,0.764,0,0,0,0, ,0,0,0,0,0, ,-30.5,27,1012.3,-0.1,-0.8,-1.1,25,-30.2807,22.0249,1000.32,-0.184286,-0.536848,-1.82265,
2026_06_26_17_09_43.832,3.87,35.3,0,0.763,0,0,0,0, ,0,0,0,0,0, ,-31,28.5,1011.8,-0.7,-0.2,-1.4,25,-30.3093,22.3738,1001.04,-0.197431,-0.534602,-1.78775,
2026_06_26_17_09_43.860,3.87,35.1,0,0.764,0,0,0,0, ,0,0,0,0,0, ,-33,24.2,997.6,-0.9,0.4,-2.6,25,-30.4124,22.6161,1001.26,-0.23415,-0.495931,-1.80069,
2026_06_26_17_09_43.872,3.87,35.2,0,0.763,0,0,0,0, ,0,0,0,0,0, ,-32.8,21.6,990.6,-0.3,-1.1,-1.5,25,-30.5639,22.6334,1000.83,-0.256444,-0.487038,-1.81588,
2026_06_26_17_09_43.899,3.87,35.2,0,0.763,0,0,0,0, ,0,0,0,0,0, ,-29.1,25,1006.2,-0.4,-1,-1.4,25,-30.5875,22.674,1000.68,-0.262145,-0.521344,-1.79359,
2026_06_26_17_09_43.912,3.87,35.1,0,0.764,0,0,0,0, ,0,0,0,0,0, ,-29,19.8,1000,-0.5,0.6,-1.7,25,-30.4938,22.6573,1000.83,-0.273593,-0.501762,-1.77874,
2026_06_26_17_09_43.939,3.87,35.2,0,0.763,0,0,0,0, ,0,0,0,0,0, ,-34.7,28,998.2,-0.3,-0.2,-1.6,25,-30.5764,22.733,1000.72,-0.281296,-0.458998,-1.7709,
2026_06_26_17_09_43.951,3.87,35.1,0,0.764,0,0,0,0, ,0,0,0,0,0, ,-31.4,22.2,1001.7,-0.9,-0.6,-2.2,25,-30.7272,22.8773,1000.67,-0.300717,-0.455403,-1.77876,
2026_06_26_17_09_43.979,3.87,35.2,0,0.763,0,0,0,0, ,0,0,0,0,0, ,-27.9,18.4,999,-0.5,0.9,-2.4,25,-30.6615,22.7202,1000.65,-0.325048,-0.418511,-1.81053,
2026_06_26_17_09_43.991,3.87,35.2,0,0.763,0,0,0,0, ,0,0,0,0,0, ,-36.4,23.5,992.3,0.9,-0.3,-2,25,-30.7522,22.6123,1000.35,-0.293053,-0.374727,-1.83426,
2026_06_26_17_09_44.019,3.87,35.1,0,0.763,0,0,0,0, ,0,0,0,0,0, ,-33.5,24,1002.8,-0.7,-1.6,-1.4,25,-31.008,22.6817,1000.18,-0.269101,-0.409783,-1.82608,
2026_06_26_17_09_44.030,3.87,35.2,0,0.764,0,0,0,0, ,0,0,0,0,0, ,-31.6,19.5,995.9,-1.3,-1.1,-1.6,25,-31.102,22.6249,1000.13,-0.31364,-0.467077,-1.80621,
2026_06_26_17_09_44.058,3.87,35.2,0,0.764,0,0,0,0, ,0,0,0,0,0, ,-26.2,23.1,1005.3,1.1,-0.5,-2.6,25,-30.9678,22.5442,1000.16,-0.300622,-0.487365,-1.82411,
2026_06_26_17_09_44.070,3.87,35.3,0,0.763,0,0,0,0, ,0,0,0,0,0, ,-26.2,25.5,1000.8,-0.4,-0.3,-2.1,25,-30.6773,22.6511,1000.33,-0.260974,-0.482041,-1.85616,
2026_06_26_17_09_44.097,3.87,35.2,0,0.763,0,0,0,0, ,0,0,0,0,0, ,-34.3,23.5,991.6,1.1,0,-1.7,25,-30.6512,22.7638,1000.08,-0.223743,-0.461807,-1.85883,
2026_06_26_17_09_44.109,3.87,35.2,0,0.763,0,0,0,0, ,0,0,0,0,0, ,-25.1,25.3,1008.3,-0.1,-1.2,-1.2,25,-30.5933,22.8635,1000.07,-0.17964,-0.470228,-1.83392,
2026_06_26_17_09_44.137,3.87,35.2,0,0.763,0,0,0,0, ,0,0,0,0,0, ,-30.7,28.4,1010.1,-0.6,-0.9,-1.6,25,-30.4291,23.1064,1000.63,-0.190021,-0.505558,-1.80747,
2026_06_26_17_09_44.149,3.87,35.3,0,0.762,0,0,0,0, ,0,0,0,0,0, ,-32.5,26.1,1005.1,-1.6,0.1,-2.4,25,-30.5005,23.3589,1001.05,-0.245473,-0.499126,-1.81921,
2026_06_26_17_09_44.177,3.87,35.2,0,0.763,0,0,0,0, ,0,0,0,0,0, ,-31,18.3,989.7,-0.2,0.3,-1.9,25,-30.5766,23.2883,1000.83,-0.285358,-0.456523,-1.83936,
2026_06_26_17_09_44.188,3.87,35.2,0,0.764,0,0,0,0, ,0,0,0,0,0, ,-29.9,19.6,1002.6,-0.5,-0.6,-1.4,25,-30.5689,23.024,1000.55,-0.289297,-0.437844,-1.82782,
2026_06_26_17_09_44.218,3.87,35.3,0,0.764,0,0,0,0, ,0,0,0,0,0, ,-29.1,23.6,996.4,-0.5,-0.3,-1.8,25,-30.5038,22.9372,1000.48,-0.302137,-0.438585,-1.81394,
2026_06_26_17_09_44.228,3.87,35.1,0,0.764,0,0,0,0, ,0,0,0,0,0, ,-31.3,22,992.6,0.1,0.3,-2,25,-30.4853,22.9288,1000.12,-0.295913,-0.411859,-1.81919,
2026_06_26_17_09_44.257,3.87,35.2,0,0.764,0,0,0,0, ,0,0,0,0,0, ,-35,28.9,998.7,0.2,-0.6,-1.6,25,-30.6477,23.0825,999.846,-0.26874,-0.395902,-1.81802,
2026_06_26_17_09_44.267,3.87,35.2,0,0.762,0,0,0,0, ,0,0,0,0,0, ,-30,24.9,999.1,-1.2,-0.7,-1.1,25,-30.7605,23.3151,999.788,-0.282833,-0.411386,-1.7895,
2026_06_26_17_09_44.296,3.87,35.1,0,0.764,0,0,0,0, ,0,0,0,0,0, ,-32.5,27.7,995.4,-0.7,-0.3,-1,25,-30.7904,23.497,999.633,-0.323488,-0.416786,-1.74443,
2026_06_26_17_09_44.308,3.87,35.2,0,0.763,0,0,0,0, ,0,0,0,0,0, ,-40.1,33.9,999.2,0.8,-0.2,-2.1,25,-31.1261,23.942,999.491,-0.300729,-0.406622,-1.73259,
2026_06_26_17_09_44.336,3.87,35.3,0,0.764,0,0,0,0, ,0,0,0,0,0, ,-34,26.2,1002,0.1,-0.6,-2.9,25,-31.4871,24.3142,999.559,-0.254981,-0.406219,-1.77935,
2026_06_26_17_09_44.348,3.87,35.2,0,0.763,0,0,0,0, ,0,0,0,0,0, ,-29.2,23.4,1001.5,-1,-1.3,-1.8,25,-31.494,24.3438,999.692,-0.266865,-0.439355,-1.81412,
2026_06_26_17_09_44.375,3.87,35.1,0,0.764,0,0,0,0, ,0,0,0,0,0, ,-27.7,23.8,1005.6,-1.3,-0.7,-1.5,25,-31.3085,24.2985,999.927,-0.320681,-0.47352,-1.80412,
2026_06_26_17_09_44.386,3.87,35.2,0,0.764,0,0,0,0, ,0,0,0,0,0, ,-31.4,27,1005.1,-0.7,0.4,-1.6,25,-31.2013,24.3656,1000.26,-0.362077,-0.453805,-1.78864,
2026_06_26_17_09_44.415,3.87,35.2,0,0.763,0,0,0,0, ,0,0,0,0,0, ,-34.4,25.6,1002.3,-0.5,0.2,-2.6,25,-31.3048,24.4835,1000.47,-0.376576,-0.40787,-1.80761,
2026_06_26_17_09_44.430,3.87,35.1,0,0.764,0,0,0,0, ,0,0,0,0,0, ,-31.8,24.5,998.7,0.2,-1.1,-2.1,25,-31.4142,24.518,1000.47,-0.362769,-0.410437,-1.84066,
2026_06_26_17_09_44.459,3.87,35.2,0,0.763,0,0,0,0, ,0,0,0,0,0, ,-24.7,20.1,1001.9,-0.9,-1.2,-1.7,25,-31.2214,24.3829,1000.46,-0.361991,-0.455504,-1.84428,
2026_06_26_17_09_44.465,3.87,35.2,0,0.762,0,0,0,0, ,0,0,0,0,0, ,-28,22.5,997,-0.3,-0.2,-1.4,25,-30.9246,24.195,1000.4,-0.376494,-0.470403,-1.82635,
2026_06_26_17_09_44.494,3.87,35.2,0,0.763,0,0,0,0, ,0,0,0,0,0, ,-30.8,24.5,1000.6,-0.3,0.1,-1.8,25,-30.8317,24.1526,1000.3,-0.371833,-0.444785,-1.81255,
2026_06_26_17_09_44.505,3.87,35.2,0,0.763,0,0,0,0, ,0,0,0,0,0, ,-30.7,21.7,1001.5,-0.9,0.2,-1.8,25,-30.8267,24.0885,1000.35,-0.385737,-0.40854,-1.81179,
2026_06_26_17_09_44.534,3.87,35.2,0,0.763,0,0,0,0, ,0,0,0,0,0, ,-36.3,26.4,992.7,-0.3,-0.1,-0.8,25,-30.9896,24.0861,1000.15,-0.398794,-0.380598,-1.7806,
2026_06_26_17_09_44.545,3.87,35.2,0,0.763,0,0,0,0, ,0,0,0,0,0, ,-37.8,29.1,994.7,0.3,-1,-2.2,25,-31.3589,24.3094,999.755,-0.374492,-0.390921,-1.7635,
2026_06_26_17_09_44.573,3.87,35.1,0,0.762,0,0,0,0, ,0,0,0,0,0, ,-25.5,25.3,1001.2,0,-0.3,-1.7,25,-31.3766,24.4856,999.645,-0.342531,-0.406709,-1.77487,
2026_06_26_17_09_44.584,3.87,35.2,0,0.765,0,0,0,0, ,0,0,0,0,0, ,-34.4,24.4,1003.7,-0.7,0,-1.4,25,-31.2897,24.5078,999.816,-0.342986,-0.391065,-1.76116,
2026_06_26_17_09_44.613,3.87,35.1,0,0.764,0,0,0,0, ,0,0,0,0,0, ,-37.7,23.5,993.2,0,-0.8,-1.3,25,-31.5798,24.4738,999.733,-0.343413,-0.39161,-1.73611,
2026_06_26_17_09_44.624,3.87,35.2,0,0.764,0,0,0,0, ,0,0,0,0,0, ,-31.7,29.2,1010.1,-1.1,-1.3,-1.4,25,-31.7699,24.5881,999.85,-0.356002,-0.431731,-1.71258,
2026_06_26_17_09_44.652,3.87,35.2,0,0.763,0,0,0,0, ,0,0,0,0,0, ,-28.1,23.9,1000.4,-0.5,0,-2,25,-31.656,24.7077,1000.18,-0.383058,-0.445031,-1.71181,
2026_06_26_17_09_44.664,3.87,35.2,0,0.762,0,0,0,0, ,0,0,0,0,0, ,-31.2,26.1,996.2,-0.5,0.1,-2,25,-31.5337,24.7255,1000.06,-0.390184,-0.414865,-1.72937,
2026_06_26_17_09_44.692,3.87,35.2,0,0.763,0,0,0,0, ,0,0,0,0,0, ,-33.5,25,993.5,-1,-0.8,-1.8,25,-31.5835,24.7757,999.747,-0.412111,-0.410913,-1.73977,
2026_06_26_17_09_44.703,3.87,35.2,0,0.763,0,0,0,0, ,0,0,0,0,0, ,-36,26.1,978.1,0.6,-1.1,-1.4,25,-31.7764,24.8229,998.897,-0.399185,-0.443763,-1.73125,
2026_06_26_17_09_44.731,3.87,35.1,0,0.763,0,0,0,0, ,0,0,0,0,0, ,-52,37.3,988.5,5,-4.8,-3.4,25,-32.5213,25.242,997.946,-0.204235,-0.596487,-1.77201,
2026_06_26_17_09_44.742,3.87,35.2,0,0.764,0,0,0,0, ,0,0,0,0,0, ,-8.7,25.7,1041.6,-0.7,-1.8,-2.1,25,-32.389,25.6233,998.989,-0.0607737,-0.761232,-1.8316,
2026_06_26_17_09_44.772,3.87,35.1,0,0.763,0,0,0,0, ,0,0,0,0,0, ,-36.2,25.3,994,0.1,0.6,-1.5,25,-31.7833,25.6158,1000.13,-0.0753516,-0.751407,-1.82968,
2026_06_26_17_09_44.782,3.87,35.2,0,0.763,0,0,0,0, ,0,0,0,0,0, ,-34.1,28.3,999.5,-1.1,-2.6,-1.3,25,-31.9885,25.688,999.929,-0.101229,-0.766556,-1.80349,
2026_06_26_17_09_44.811,3.87,35.2,0,0.763,0,0,0,0, ,0,0,0,0,0, ,-22.8,28.4,1011.1,-1.4,-1.8,-1.6,25,-31.7729,25.8502,1000.26,-0.171232,-0.853906,-1.78195,
2026_06_26_17_09_44.822,3.87,35.2,0,0.763,0,0,0,0, ,0,0,0,0,0, ,-29.2,26,1006.3,-0.2,1.4,-3.3,25,-31.4211,25.9324,1000.77,-0.209547,-0.814059,-1.82266,
2026_06_26_17_09_44.851,3.87,35.1,0,0.763,0,0,0,0, ,0,0,0,0,0, ,-32.7,20.7,991.5,-0.2,0.4,-2.5,25,-31.3924,25.7751,1000.66,-0.208966,-0.709608,-1.88831,
2026_06_26_17_09_44.861,3.87,35.2,0,0.763,0,0,0,0, ,0,0,0,0,0, ,-27.3,21.9,997.8,-0.7,-1.3,-1.2,25,-31.3075,25.5024,1000.29,-0.223654,-0.693789,-1.88598,
2026_06_26_17_09_44.890,3.87,35.1,0,0.764,0,0,0,0, ,0,0,0,0,0, ,-28.8,25.5,1000.3,-0.9,-1,-1,25,-31.109,25.3925,1000.21,-0.258775,-0.721589,-1.83808,
2026_06_26_17_09_44.901,3.87,35.2,0,0.763,0,0,0,0, ,0,0,0,0,0, ,-27.8,29.1,998.1,-0.2,-0.3,-1.7,25,-30.9378,25.5088,1000.15,-0.276521,-0.717227,-1.80834,
2026_06_26_17_09_44.930,3.87,35.1,0,0.763,0,0,0,0, ,0,0,0,0,0, ,-28.5,26,999.2,-0.2,0.3,-2.3,25,-30.768,25.6332,1000.06,-0.271858,-0.673521,-1.82002,
2026_06_26_17_09_44.942,3.87,35.1,0,0.764,0,0,0,0, ,0,0,0,0,0, ,-28.4,20,991.3,-1,0.1,-1.7,25,-30.6267,25.4727,999.768,-0.291854,-0.62029,-1.83099,
2026_06_26_17_09_44.971,3.87,35.2,0,0.763,0,0,0,0, ,0,0,0,0,0, ,-29.1,25.6,989,0,-0.5,-0.7,25,-30.5123,25.3098,999.182,-0.304538,-0.594679,-1.79254,
2026_06_26_17_09_44.980,3.87,35.2,0,0.763,0,0,0,0, ,0,0,0,0,0, ,-30.6,31.8,1002.6,0,-1,-0.3,25,-30.472,25.5164,998.976,-0.28598,-0.604144,-1.71377,
2026_06_26_17_09_45.008,3.87,35.2,0,0.762,0,0,0,0, ,0,0,0,0,0, ,-37.1,34.3,1007.9,0.8,-0.4,-1.9,25,-30.6778,25.9755,999.358,-0.244179,-0.609985,-1.67637,
2026_06_26_17_09_45.020,3.87,35.2,0,0.763,0,0,0,0, ,0,0,0,0,0, ,-31.3,29.2,1009,-0.6,0.1,-2.6,25,-30.8925,26.3274,999.912,-0.223205,-0.581955,-1.71133,
2026_06_26_17_09_45.050,3.87,35.2,0,0.764,0,0,0,0, ,0,0,0,0,0, ,-28.3,24.4,995.7,-1.2,-1.2,-1.3,25,-30.8259,26.3562,1000.06,-0.264447,-0.580007,-1.72587,
2026_06_26_17_09_45.059,3.87,35.2,0,0.763,0,0,0,0, ,0,0,0,0,0, ,-34.7,19.2,1003.9,-0.6,-1,-1.9,25,-30.867,26.0785,1000.05,-0.303176,-0.611695,-1.7182,
2026_06_26_17_09_45.089,3.87,35.2,0,0.764,0,0,0,0, ,0,0,0,0,0, ,-31.9,25.2,1004,0.3,0.5,-2.9,25,-31.0152,25.8422,1000.28,-0.293842,-0.589654,-1.75975,
2026_06_26_17_09_45.099,3.87,35.2,0,0.762,0,0,0,0, ,0,0,0,0,0, ,-32.9,28,992.1,-0.7,-0.9,-1.7,25,-31.0996,25.8884,1000.15,-0.288124,-0.565909,-1.79267,
2026_06_26_17_09_45.128,3.87,35.1,0,0.763,0,0,0,0, ,0,0,0,0,0, ,-26.2,26.7,998.1,-0.5,-1.3,-1.5,25,-31.0052,25.9774,999.839,-0.307129,-0.598455,-1.78093,
2026_06_26_17_09_45.138,3.87,35.2,0,0.763,0,0,0,0, ,0,0,0,0,0, ,-27.5,28.6,1000.9,0,-0.1,-1.4,25,-30.752,26.0794,999.819,-0.303647,-0.604643,-1.76076,
2026_06_26_17_09_45.169,3.87,35.1,0,0.765,0,0,0,0, ,0,0,0,0,0, ,-29.9,27,1002.6,0,0,-1.4,25,-30.6269,26.1842,999.936,-0.285144,-0.570845,-1.73878,
2026_06_26_17_09_45.178,3.87,35.1,0,0.764,0,0,0,0, ,0,0,0,0,0, ,-34.3,32.5,997.8,0.1,-0.7,-1.8,25,-30.7167,26.4015,999.952,-0.264721,-0.557387,-1.73032,
2026_06_26_17_09_45.208,3.87,35.2,0,0.764,0,0,0,0, ,0,0,0,0,0, ,-27.2,29.4,1005.6,0,-0.5,-2.7,25,-30.7187,26.6787,1000.06,-0.245543,-0.559984,-1.76199,
2026_06_26_17_09_45.218,3.87,35.2,0,0.764,0,0,0,0, ,0,0,0,0,0, ,-25.1,25.3,1003.7,-0.2,0.5,-2.4,25,-30.4403,26.7196,1000.34,-0.236674,-0.52586,-1.81001,
2026_06_26_17_09_45.247,3.87,35.2,0,0.764,0,0,0,0, ,0,0,0,0,0, ,-26.9,27.5,1004.8,-1,-0.7,-1.2,25,-30.1697,26.7001,1000.58,-0.258814,-0.499909,-1.8094,
2026_06_26_17_09_45.257,3.87,35.1,0,0.765,0,0,0,0, ,0,0,0,0,0, ,-27.4,19.8,996.9,-1.1,-0.8,-0.5,25,-29.9857,26.5142,1000.59,-0.307027,-0.515149,-1.75094,
2026_06_26_17_09_45.286,3.87,35.2,0,0.763,0,0,0,0, ,0,0,0,0,0, ,-25.7,26.9,1004.8,-0.5,1,-0.9,25,-29.7764,26.3214,1000.61,-0.337067,-0.477663,-1.68689,
2026_06_26_17_09_45.297,3.87,35.2,0,0.763,0,0,0,0, ,0,0,0,0,0, ,-37.3,30.1,1004.2,-0.1,1,-1.9,25,-29.8814,26.4542,1000.85,-0.334809,-0.387618,-1.66941,
2026_06_26_17_09_45.327,3.87,35.2,0,0.763,0,0,0,0, ,0,0,0,0,0, ,-30.5,28.4,997.4,-0.5,-1.1,-1.6,25,-30.1263,26.6246,1000.84,-0.332687,-0.367044,-1.67432,
2026_06_26_17_09_45.336,3.87,35.3,0,0.763,0,0,0,0, ,0,0,0,0,0, ,-25.7,22,998.7,-0.9,-0.7,-0.9,25,-30.0028,26.5377,1000.67,-0.355071,-0.399521,-1.64847,
2026_06_26_17_09_45.367,3.87,35.2,0,0.764,0,0,0,0, ,0,0,0,0,0, ,-37.9,25.1,991.8,0.1,1,-1.4,25,-30.1123,26.3557,1000.34,-0.357808,-0.366035,-1.61809,
2026_06_26_17_09_45.376,3.87,35.1,0,0.763,0,0,0,0, ,0,0,0,0,0, ,-38.3,30.5,993.6,-0.4,-1,-1.4,25,-30.5991,26.4437,999.877,-0.345145,-0.34373,-1.6048,
2026_06_26_17_09_45.406,3.87,35.1,0,0.763,0,0,0,0, ,0,0,0,0,0, ,-33,27.7,995.1,0,-0.6,-2.1,25,-30.9069,26.6056,999.54,-0.3363,-0.371534,-1.61365,
2026_06_26_17_09_45.416,3.87,35.2,0,0.763,0,0,0,0, ,0,0,0,0,0, ,-33.4,27.9,1000.6,0.5,0.4,-2.1,25,-31.0466,26.6783,999.437,-0.300573,-0.354987,-1.64329,
2026_06_26_17_09_45.446,3.87,35.2,0,0.763,0,0,0,0, ,0,0,0,0,0, ,-37.8,30.1,1001.7,-0.9,-0.5,-1.4,25,-31.3241,26.8198,999.542,-0.294444,-0.336402,-1.64979,
2026_06_26_17_09_45.455,3.87,35.2,0,0.764,0,0,0,0, ,0,0,0,0,0, ,-34.6,29.4,997.6,-1.6,-0.9,-1.9,25,-31.6212,26.9984,999.548,-0.352673,-0.358559,-1.6498,
2026_06_26_17_09_45.484,3.87,35.1,0,0.764,0,0,0,0, ,0,0,0,0,0, ,-31.7,22.7,990.3,-0.4,-1.4,-2,25,-31.7144,26.9406,999.207,-0.39212,-0.406787,-1.66809,
2026_06_26_17_09_45.499,3.87,35.2,0,0.766,0,0,0,0, ,0,0,0,0,0, ,-28.9,26.3,997.4,0.1,-2,-1.8,25,-31.6282,26.7919,998.881,-0.377365,-0.485592,-1.68223,
2026_06_26_17_09_45.529,3.87,35.1,0,0.764,0,0,0,0, ,0,0,0,0,0, ,-31.7,27.4,990.4,0.8,-1.6,-2.2,25,-31.5472,26.7954,998.577,-0.326948,-0.565689,-1.70159,
2026_06_26_17_09_45.534,3.87,35.2,0,0.763,0,0,0,0, ,0,0,0,0,0, ,-26.8,29.6,1010.7,0,-0.4,-2.4,25,-31.4072,26.8993,998.697,-0.28265,-0.592155,-1.73806,
2026_06_26_17_09_45.564,3.87,35.2,0,0.763,0,0,0,0, ,0,0,0,0,0, ,-26,26.2,998.2,0.7,-0.1,-2.6,25,-31.1021,26.9603,999.048,-0.244097,-0.571305,-1.78449,
2026_06_26_17_09_45.573,3.87,35.1,0,0.763,0,0,0,0, ,0,0,0,0,0, ,-24.2,26.1,1001.5,-0.2,-1.7,-1.3,25,-30.7364,26.9109,999.097,-0.213988,-0.591335,-1.79457,
2026_06_26_17_09_45.603,3.87,35.2,0,0.764,0,0,0,0, ,0,0,0,0,0, ,-24.5,23.9,1003.7,0.3,-1.5,-1,25,-30.3472,26.7944,999.31,-0.197902,-0.6528,-1.75529,
2026_06_26_17_09_45.613,3.87,35.1,0,0.764,0,0,0,0, ,0,0,0,0,0, ,-30.6,28.4,1007.8,0.1,0.6,-1.4,25,-30.1767,26.7552,999.703,-0.173654,-0.640442,-1.72146,
2026_06_26_17_09_45.643,3.87,35.1,0,0.764,0,0,0,0, ,0,0,0,0,0, ,-35.5,34.4,1010.7,0,0.8,-2,25,-30.3518,27.0382,1000.28,-0.160026,-0.558759,-1.72015,
2026_06_26_17_09_45.653,3.87,35.1,0,0.763,0,0,0,0, ,0,0,0,0,0, ,-32.8,34.3,1003.4,-1,-0.4,-1.8,25,-30.5833,27.4838,1000.7,-0.180743,-0.512522,-1.73111,
2026_06_26_17_09_45.684,3.87,35.1,0,0.764,0,0,0,0, ,0,0,0,0,0, ,-34.1,32.4,1001.9,-1,-0.8,-2.6,25,-30.758,27.8413,1000.82,-0.230666,-0.517853,-1.75968,
2026_06_26_17_09_45.693,3.87,35.1,0,0.763,0,0,0,0, ,0,0,0,0,0, ,-30.3,23.8,991.4,-0.4,-0.7,-2.6,25,-30.8458,27.857,1000.56,-0.259266,-0.531999,-1.81089,
2026_06_26_17_09_45.723,3.87,35.1,0,0.763,0,0,0,0, ,0,0,0,0,0, ,-27.2,24.9,999.1,-0.2,-0.7,-1.4,25,-30.7181,27.6433,1000.24,-0.261748,-0.542237,-1.82241,
2026_06_26_17_09_45.732,3.87,35.1,0,0.764,0,0,0,0, ,0,0,0,0,0, ,-29.2,32.3,1006.7,-0.1,0.4,-1.9,25,-30.5647,27.7016,1000.4,-0.254939,-0.518335,-1.81191,
2026_06_26_17_09_45.763,3.87,35.1,0,0.764,0,0,0,0, ,0,0,0,0,0, ,-34.4,27.7,996.8,0,1.4,-2.8,25,-30.64,27.8417,1000.48,-0.24245,-0.431905,-1.8447,
2026_06_26_17_09_45.771,3.87,35.1,0,0.764,0,0,0,0, ,0,0,0,0,0, ,-34.6,28.4,988.7,0,-0.7,-2,25,-30.8752,27.8544,1000.01,-0.227676,-0.384258,-1.87853,
2026_06_26_17_09_45.801,3.87,35.1,0,0.764,0,0,0,0, ,0,0,0,0,0, ,-28.5,29.1,995.1,-0.7,-1.2,-1,25,-30.9163,27.9089,999.517,-0.23513,-0.418733,-1.85547,
2026_06_26_17_09_45.811,3.87,35.1,0,0.765,0,0,0,0, ,0,0,0,0,0, ,-31.6,29.5,997,-0.5,-0.4,-1.1,25,-30.8635,27.9937,999.306,-0.257364,-0.441966,-1.80638,
2026_06_26_17_09_45.842,3.87,35.1,0,0.764,0,0,0,0, ,0,0,0,0,0, ,-41.3,36.6,995.7,-0.5,0.6,-2.4,25,-31.2039,28.3018,999.126,-0.27215,-0.40894,-1.80295,
2026_06_26_17_09_45.851,3.87,35.2,0,0.762,0,0,0,0, ,0,0,0,0,0, ,-26.6,29.9,999.6,-0.3,1.6,-3.1,25,-31.3713,28.6034,999.036,-0.279941,-0.316989,-1.86066,
2026_06_26_17_09_45.880,3.87,35.2,0,0.763,0,0,0,0, ,0,0,0,0,0, ,-28.9,23.5,996.8,1.3,2.1,-1.8,25,-31.1506,28.4874,998.985,-0.232413,-0.184938,-1.89657,
2026_06_26_17_09_45.890,3.87,35.2,0,0.765,0,0,0,0, ,0,0,0,0,0, ,-31.8,26.7,1003.9,1.2,0.3,-0.8,25,-31.1018,28.281,999.068,-0.142079,-0.100543,-1.86022,
2026_06_26_17_09_45.921,3.87,35.1,0,0.764,0,0,0,0, ,0,0,0,0,0, ,-39.9,35.7,1007.2,0,-1.6,-1.2,25,-31.3912,28.4588,999.463,-0.0968582,-0.134026,-1.8078,
2026_06_26_17_09_45.929,3.87,35.1,0,0.764,0,0,0,0, ,0,0,0,0,0, ,-29,31.6,1008,-0.5,-1.7,-1.9,25,-31.5776,28.7752,999.959,-0.10619,-0.226406,-1.79209,
2026_06_26_17_09_45.960,3.87,35.1,0,0.763,0,0,0,0, ,0,0,0,0,0, ,-22.8,30.1,1012.5,0.7,1,-2.6,25,-31.2316,28.9016,1000.59,-0.0936256,-0.233937,-1.81999,
2026_06_26_17_09_45.969,3.87,35.1,0,0.763,0,0,0,0, ,0,0,0,0,0, ,-26.6,30,1012.9,0.4,3.5,-2.5,25,-30.8336,28.9716,1001.32,-0.0544047,-0.0825723,-1.86448,
2026_06_26_17_09_45.999,3.87,35.1,0,0.764,0,0,0,0, ,0,0,0,0,0, ,-36.9,28.1,999.2,-0.1,2.1,-2.3,25,-30.8894,28.9764,1001.61,-0.0419488,0.0930845,-1.89711,
2026_06_26_17_09_46.009,3.87,35.2,0,0.764,0,0,0,0, ,0,0,0,0,0, ,-33.4,26.1,998.5,-1,-0.3,-1.7,25,-31.149,28.862,1001.44,-0.0729081,0.142256,-1.90338,
2026_06_26_17_09_46.039,3.87,35.2,0,0.764,0,0,0,0, ,0,0,0,0,0, ,-32.7,31.4,995.9,-0.5,-0.5,-1.3,25,-31.2649,28.8552,1001.19,-0.114168,0.109212,-1.8788,
2026_06_26_17_09_46.049,3.87,35.1,0,0.763,0,0,0,0, ,0,0,0,0,0, ,-37.7,37.4,996.5,0.7,1.6,-2.5,25,-31.5047,29.1931,1000.88,-0.101118,0.136073,-1.88009,
2026_06_26_17_09_46.080,3.87,35.1,0,0.763,0,0,0,0, ,0,0,0,0,0, ,-38.9,35.8,996.2,0.8,2,-2.9,25,-31.9188,29.6444,1000.61,-0.0492526,0.237468,-1.93006,
2026_06_26_17_09_46.088,3.87,35.1,0,0.762,0,0,0,0, ,0,0,0,0,0, ,-41,32.9,992.5,-0.5,1.4,-2.7,25,-32.4082,29.9312,1000.22,-0.0371106,0.326591,-1.98307,
2026_06_26_17_09_46.120,3.87,35.1,0,0.764,0,0,0,0, ,0,0,0,0,0, ,-45.2,32.1,990.4,-0.5,-0.5,-1.9,25,-33.0597,30.0877,999.689,-0.0653179,0.334111,-2.00238,
2026_06_26_17_09_46.128,3.87,35.1,0,0.765,0,0,0,0, ,0,0,0,0,0, ,-46.6,38.5,992.3,0.4,-2.5,-2.1,25,-33.8422,30.4053,999.181,-0.0643845,0.222345,-2.00224,
2026_06_26_17_09_46.160,3.87,35.1,0,0.763,0,0,0,0, ,0,0,0,0,0, ,-38,36.2,1002,0.3,-0.1,-3.7,25,-34.3576,30.8285,999.058,-0.0391329,0.129577,-2.05694,
2026_06_26_17_09_46.173,3.87,35.1,0,0.763,0,0,0,0, ,0,0,0,0,0, ,-38.4,29.4,996.3,1,1.6,-4,25,-34.5917,30.9487,999.063,0.0028611,0.167384,-2.16621,
2026_06_26_17_09_46.206,3.87,35,0,0.764,0,0,0,0, ,0,0,0,0,0, ,-51.7,38.5,987,0.7,-1.8,-2.4,25,-35.229,31.1316,998.611,0.0544836,0.151091,-2.2292,
