UTC_Time,Vin,TC1,TC2,Rh1,Vh1,Ah1,Acp1,Dty1,Err1,Rh2,Vh2,Ah2,Acp2,Dty2,Err2,Accel_x,Accel_y,Accel_z,gyro_x,gyro_y,gyro_z,Temp_c,Accel_x_h,Accel_y_h,Accel_z_h,gyro_x_h,gyro_y_h,gyro_z_h,
2026_07_06_19_52_58.426,3.869,33.8,0,0.762,0,0,0,0, ,0,0,0,0,0, ,-39.7,332.5,943.1,-0.2,-0.6,-1.7,25,-39.7,332.5,943.1,-0.2,-0.6,-1.7,
2026_07_06_19_52_58.445,3.869,34,0,0.761,0,0,0,0, ,0,0,0,0,0, ,-37.7,331.9,943.2,-0.2,-0.6,-1.7,25,-39.6391,332.482,943.103,-0.2,-0.6,-1.7,
2026_07_06_19_52_58.465,3.869,33.8,0,0.761,0,0,0,0, ,0,0,0,0,0, ,-37.7,331.6,942.9,-0.2,-0.6,-1.6,25,-39.5209,332.437,943.1,-0.2,-0.6,-1.69695,
2026_07_06_19_52_58.485,3.869,34,0,0.762,0,0,0,0, ,0,0,0,0,0, ,-38.6,331.2,944.4,-0.3,-0.6,-1.7,25,-39.4374,332.374,943.133,-0.203047,-0.6,-1.69409,
2026_07_06_19_52_58.505,3.869,33.8,0,0.762,0,0,0,0, ,0,0,0,0,0, ,-39.1,332.1,943.4,-0.2,-0.6,-1.7,25,-39.4016,332.33,943.18,-0.205908,-0.6,-1.69445,
2026_07_06_19_52_58.525,3.869,34,0,0.762,0,0,0,0, ,0,0,0,0,0, ,-39.4,331.6,943.4,-0.3,-0.6,-1.6,25,-39.3923,332.301,943.193,-0.208595,-0.6,-1.69174,
2026_07_06_19_52_58.550,3.869,33.8,0,0.761,0,0,0,0, ,0,0,0,0,0, ,-39.4,332.1,943.7,-0.3,-0.6,-1.6,25,-39.3928,332.273,943.215,-0.214165,-0.6,-1.68615,
2026_07_06_19_52_58.564,3.869,34,0,0.761,0,0,0,0, ,0,0,0,0,0, ,-38.8,331.9,942.1,-0.3,-0.5,-1.7,25,-39.375,332.256,943.196,-0.219396,-0.596953,-1.68395,
2026_07_06_19_52_58.584,3.869,34,0,0.761,0,0,0,0, ,0,0,0,0,0, ,-38.4,332.7,944,-0.3,-0.6,-1.6,25,-39.3277,332.259,943.187,-0.224307,-0.594092,-1.68188,
2026_07_06_19_52_58.604,3.869,33.8,0,0.762,0,0,0,0, ,0,0,0,0,0, ,-38.8,332,942,-0.5,-0.6,-1.7,25,-39.2834,332.265,943.176,-0.235014,-0.594452,-1.67994,
2026_07_06_19_52_58.624,3.869,34,0,0.761,0,0,0,0, ,0,0,0,0,0, ,-38.5,331.7,944.5,-0.4,-0.5,-1.6,25,-39.2448,332.239,943.18,-0.248114,-0.591743,-1.67811,
2026_07_06_19_52_58.643,3.869,33.8,0,0.761,0,0,0,0, ,0,0,0,0,0, ,-38.6,331,942.1,-0.2,-0.5,-1.7,25,-39.2025,332.185,943.188,-0.251276,-0.586153,-1.6764,
2026_07_06_19_52_58.663,3.869,33.8,0,0.762,0,0,0,0, ,0,0,0,0,0, ,-39.5,331.4,943.7,-0.3,-0.6,-1.7,25,-39.1932,332.125,943.17,-0.251198,-0.58395,-1.67784,
2026_07_06_19_52_58.683,3.869,33.8,0,0.762,0,0,0,0, ,0,0,0,0,0, ,-39,329.9,943.3,-0.3,-0.6,-1.7,25,-39.1966,332.035,943.19,-0.254172,-0.584928,-1.67919,
2026_07_06_19_52_58.703,3.869,34,0,0.762,0,0,0,0, ,0,0,0,0,0, ,-38.8,331.5,944.4,-0.4,-0.6,-1.6,25,-39.1785,331.954,943.23,-0.260012,-0.585846,-1.67741,
2026_07_06_19_52_58.722,3.869,34,0,0.762,0,0,0,0, ,0,0,0,0,0, ,-37.9,330.8,942.9,-0.5,-0.5,-1.6,25,-39.1281,331.905,943.256,-0.271589,-0.583662,-1.67269,
2026_07_06_19_52_58.742,3.869,33.8,0,0.762,0,0,0,0, ,0,0,0,0,0, ,-38.4,331.6,943.7,-0.5,-0.6,-1.7,25,-39.0685,331.862,943.259,-0.285508,-0.58161,-1.67131,
2026_07_06_19_52_58.762,3.869,34,0,0.762,0,0,0,0, ,0,0,0,0,0, ,-38.5,332.3,944.3,-0.5,-0.6,-1.7,25,-39.0308,331.867,943.304,-0.298579,-0.582731,-1.67306,
2026_07_06_19_52_58.782,3.869,33.8,0,0.762,0,0,0,0, ,0,0,0,0,0, ,-38,333.7,943.8,-0.3,-0.6,-1.7,25,-38.9832,331.936,943.349,-0.304759,-0.583783,-1.6747,
2026_07_06_19_52_58.802,3.869,33.8,0,0.762,0,0,0,0, ,0,0,0,0,0, ,-38.5,332.5,944.2,-0.4,-0.6,-1.7,25,-38.9385,332.007,943.389,-0.307516,-0.584772,-1.67624,
2026_07_06_19_52_58.821,3.869,33.8,0,0.761,0,0,0,0, ,0,0,0,0,0, ,-37.9,332.8,943.4,-0.3,-0.6,-1.7,25,-38.8935,332.046,943.414,-0.310105,-0.5857,-1.67769,
2026_07_06_19_52_58.841,3.869,34,0,0.762,0,0,0,0, ,0,0,0,0,0, ,-38.4,331.9,943.4,-0.3,-0.6,-1.6,25,-38.8482,332.065,943.413,-0.309489,-0.586571,-1.676,
2026_07_06_19_52_58.860,3.869,33.8,0,0.763,0,0,0,0, ,0,0,0,0,0, ,-39.1,332.7,941.7,-0.2,-0.7,-1.6,25,-38.8422,332.079,943.36,-0.305864,-0.590436,-1.67137,
2026_07_06_19_52_58.880,3.869,33.8,0,0.762,0,0,0,0, ,0,0,0,0,0, ,-38,332.6,942.3,-0.2,-0.5,-1.7,25,-38.8244,332.114,943.278,-0.299413,-0.591019,-1.67007,
2026_07_06_19_52_58.901,3.869,33.7,0,0.762,0,0,0,0, ,0,0,0,0,0, ,-39.3,331.9,943.1,-0.2,-0.6,-1.6,25,-38.8138,332.122,943.242,-0.293355,-0.588519,-1.66885,
2026_07_06_19_52_58.920,3.869,34,0,0.762,0,0,0,0, ,0,0,0,0,0, ,-39.4,332.3,941.8,-0.3,-0.6,-1.8,25,-38.8465,332.121,943.194,-0.290713,-0.589219,-1.67074,
2026_07_06_19_52_58.940,3.869,33.8,0,0.762,0,0,0,0, ,0,0,0,0,0, ,-38.2,331.4,942.6,-0.4,-0.5,-1.7,25,-38.8436,332.104,943.134,-0.294326,-0.586829,-1.67557,
2026_07_06_19_52_58.960,3.869,34,0,0.763,0,0,0,0, ,0,0,0,0,0, ,-38,332.3,944.4,-0.4,-0.6,-1.6,25,-38.7983,332.089,943.156,-0.300765,-0.584585,-1.67402,
2026_07_06_19_52_58.979,3.869,34,0,0.762,0,0,0,0, ,0,0,0,0,0, ,-38,332.2,943.4,-0.4,-0.6,-1.7,25,-38.7497,332.099,943.201,-0.306812,-0.585524,-1.67255,
2026_07_06_19_52_59.004,3.869,34,0,0.762,0,0,0,0, ,0,0,0,0,0, ,-38.6,331.7,942.9,-0.5,-0.5,-1.7,25,-38.7223,332.09,943.198,-0.315538,-0.583359,-1.67422,
2026_07_06_19_52_59.019,3.869,34,0,0.762,0,0,0,0, ,0,0,0,0,0, ,-38,333.3,944,-0.4,-0.6,-1.6,25,-38.6965,332.115,943.213,-0.323732,-0.581327,-1.67275,
2026_07_06_19_52_59.039,3.869,33.8,0,0.763,0,0,0,0, ,0,0,0,0,0, ,-37.9,333.7,941.1,-0.3,-0.6,-1.6,25,-38.651,332.199,943.173,-0.325332,-0.582465,-1.66832,
2026_07_06_19_52_59.058,3.869,33.8,0,0.762,0,0,0,0, ,0,0,0,0,0, ,-38,333.6,943.3,-0.3,-0.5,-1.6,25,-38.6083,332.288,943.114,-0.323789,-0.580486,-1.66415,
2026_07_06_19_52_59.078,3.869,33.8,0,0.762,0,0,0,0, ,0,0,0,0,0, ,-38.5,332.8,942.9,-0.3,-0.5,-1.7,25,-38.5865,332.343,943.113,-0.322339,-0.575582,-1.66329,
2026_07_06_19_52_59.098,3.869,33.8,0,0.762,0,0,0,0, ,0,0,0,0,0, ,-38.9,332.6,942.6,-0.2,-0.6,-1.7,25,-38.5934,332.365,943.091,-0.317931,-0.574023,-1.66553,
2026_07_06_19_52_59.118,3.869,33.8,0,0.761,0,0,0,0, ,0,0,0,0,0, ,-38,331,941.7,-0.2,-0.6,-1.7,25,-38.5847,332.33,943.033,-0.310744,-0.575606,-1.66763,
2026_07_06_19_52_59.137,3.869,34,0,0.762,0,0,0,0, ,0,0,0,0,0, ,-38.2,331.5,942.9,-0.3,-0.6,-1.6,25,-38.5551,332.265,942.989,-0.307043,-0.577092,-1.66655,
2026_07_06_19_52_59.163,3.869,34,0,0.761,0,0,0,0, ,0,0,0,0,0, ,-38.6,331.9,943.4,-0.2,-0.6,-1.7,25,-38.5457,332.23,942.999,-0.303567,-0.578488,-1.66554,
2026_07_06_19_52_59.177,3.869,33.8,0,0.762,0,0,0,0, ,0,0,0,0,0, ,-38.8,330.6,944,-0.3,-0.6,-1.6,25,-38.5551,332.17,943.041,-0.300303,-0.579799,-1.6646,
2026_07_06_19_52_59.197,3.869,34,0,0.762,0,0,0,0, ,0,0,0,0,0, ,-37.9,332.5,942.9,-0.4,-0.6,-1.7,25,-38.5426,332.133,943.066,-0.303331,-0.58103,-1.66371,
2026_07_06_19_52_59.217,3.869,33.8,0,0.763,0,0,0,0, ,0,0,0,0,0, ,-38.3,331.7,943.6,-0.4,-0.6,-1.6,25,-38.5156,332.131,943.077,-0.309222,-0.582186,-1.66287,
2026_07_06_19_52_59.236,3.869,33.8,0,0.762,0,0,0,0, ,0,0,0,0,0, ,-37.9,333.2,943.4,-0.4,-0.6,-1.7,25,-38.4903,332.15,943.103,-0.314754,-0.583272,-1.66209,
2026_07_06_19_52_59.257,3.869,33.8,0,0.761,0,0,0,0, ,0,0,0,0,0, ,-39.6,333.6,942.3,-0.4,-0.5,-1.7,25,-38.5061,332.226,943.088,-0.319948,-0.581244,-1.6644,
2026_07_06_19_52_59.276,3.869,33.8,0,0.76,0,0,0,0, ,0,0,0,0,0, ,-38.4,333.4,942.9,-0.3,-0.6,-1.6,25,-38.5362,332.304,943.058,-0.32178,-0.57934,-1.66352,
2026_07_06_19_52_59.295,3.869,34,0,0.762,0,0,0,0, ,0,0,0,0,0, ,-37.7,333.3,942.7,-0.2,-0.5,-1.7,25,-38.5066,332.368,943.042,-0.317405,-0.577552,-1.6627,
2026_07_06_19_52_59.320,3.869,34,0,0.762,0,0,0,0, ,0,0,0,0,0, ,-39.5,331.5,942.6,-0.4,-0.6,-1.7,25,-38.5123,332.37,943.018,-0.316345,-0.575873,-1.66497,
2026_07_06_19_52_59.335,3.869,33.8,0,0.761,0,0,0,0, ,0,0,0,0,0, ,-38.4,332.3,942.9,-0.5,-0.5,-1.7,25,-38.5389,332.341,943.002,-0.324489,-0.574297,-1.6671,
2026_07_06_19_52_59.355,3.869,34,0,0.762,0,0,0,0, ,0,0,0,0,0, ,-38.6,332.8,943.3,-0.5,-0.6,-1.6,25,-38.5366,332.354,943.008,-0.335185,-0.572816,-1.66606,
2026_07_06_19_52_59.378,3.869,34,0,0.763,0,0,0,0, ,0,0,0,0,0, ,-38.3,333.6,942.6,-0.5,-0.6,-1.6,25,-38.5313,332.405,943.004,-0.345228,-0.574473,-1.66204,
2026_07_06_19_52_59.395,3.869,34,0,0.762,0,0,0,0, ,0,0,0,0,0, ,-38.6,332.8,943.2,-0.5,-0.6,-1.6,25,-38.5263,332.454,942.998,-0.354659,-0.576028,-1.65826,
2026_07_06_19_52_59.415,3.869,34,0,0.761,0,0,0,0, ,0,0,0,0,0, ,-37.5,333.8,943.2,-0.3,-0.6,-1.7,25,-38.4973,332.505,943.01,-0.357422,-0.577489,-1.65775,
2026_07_06_19_52_59.434,3.869,33.8,0,0.76,0,0,0,0, ,0,0,0,0,0, ,-37.8,333,944,-0.3,-0.6,-1.6,25,-38.4457,332.56,943.046,-0.353923,-0.578861,-1.65728,
2026_07_06_19_52_59.456,3.869,33.7,0,0.763,0,0,0,0, ,0,0,0,0,0, ,-38.9,332.6,943.8,-0.3,-0.6,-1.7,25,-38.4399,332.574,943.098,-0.350637,-0.580149,-1.65684,
2026_07_06_19_52_59.474,3.869,33.8,0,0.76,0,0,0,0, ,0,0,0,0,0, ,-38.2,332.6,942.7,-0.1,-0.6,-1.7,25,-38.4466,332.576,943.108,-0.341458,-0.581359,-1.65947,
2026_07_06_19_52_59.494,3.869,34,0,0.762,0,0,0,0, ,0,0,0,0,0, ,-39.4,332.8,942.7,-0.2,-0.6,-1.7,25,-38.4681,332.584,943.083,-0.329791,-0.582495,-1.66194,
2026_07_06_19_52_59.513,3.869,33.7,0,0.762,0,0,0,0, ,0,0,0,0,0, ,-38.3,330.5,942,-0.2,-0.6,-1.7,25,-38.4914,332.527,943.038,-0.321882,-0.583561,-1.66426,
2026_07_06_19_52_59.533,3.869,34,0,0.763,0,0,0,0, ,0,0,0,0,0, ,-38.5,331.6,943.4,-0.2,-0.5,-1.7,25,-38.4858,332.437,943.018,-0.314455,-0.581516,-1.66643,
2026_07_06_19_52_59.554,3.869,33.8,0,0.763,0,0,0,0, ,0,0,0,0,0, ,-37.4,331.6,943.6,-0.3,-0.6,-1.7,25,-38.4532,332.386,943.047,-0.310527,-0.579596,-1.66848,
2026_07_06_19_52_59.573,3.869,33.8,0,0.761,0,0,0,0, ,0,0,0,0,0, ,-37.5,332.5,943.1,-0.4,-0.5,-1.6,25,-38.392,332.365,943.065,-0.312932,-0.577792,-1.66735,
2026_07_06_19_52_59.593,3.869,33.8,0,0.762,0,0,0,0, ,0,0,0,0,0, ,-37.1,333,942.7,-0.4,-0.6,-1.7,25,-38.3255,332.389,943.055,-0.318238,-0.576099,-1.6663,
2026_07_06_19_52_59.612,3.869,33.8,0,0.763,0,0,0,0, ,0,0,0,0,0, ,-39,332.1,944,-0.4,-0.6,-1.7,25,-38.3087,332.399,943.073,-0.32322,-0.577555,-1.66835,
2026_07_06_19_52_59.633,3.869,33.8,0,0.762,0,0,0,0, ,0,0,0,0,0, ,-39,332.1,943.1,-0.4,-0.6,-1.6,25,-38.3508,332.38,943.102,-0.327899,-0.578923,-1.66723,
2026_07_06_19_52_59.652,3.869,34,0,0.761,0,0,0,0, ,0,0,0,0,0, ,-37.7,332.5,942.8,-0.4,-0.6,-1.7,25,-38.3508,332.375,943.093,-0.332293,-0.580207,-1.66618,
2026_07_06_19_52_59.673,3.869,34,0,0.763,0,0,0,0, ,0,0,0,0,0, ,-38.9,333.1,942.3,-0.3,-0.5,-1.7,25,-38.3477,332.401,943.06,-0.333372,-0.578366,-1.66824,
2026_07_06_19_52_59.692,3.869,34,0,0.761,0,0,0,0, ,0,0,0,0,0, ,-37.7,333.1,943.2,-0.3,-0.6,-1.6,25,-38.3448,332.444,943.041,-0.331338,-0.576638,-1.66713,
2026_07_06_19_52_59.711,3.869,33.8,0,0.761,0,0,0,0, ,0,0,0,0,0, ,-38.9,332.5,942.6,-0.2,-0.6,-1.6,25,-38.342,332.466,943.032,-0.326382,-0.578061,-1.66304,
2026_07_06_19_52_59.732,3.869,33.8,0,0.762,0,0,0,0, ,0,0,0,0,0, ,-39,331.5,943.8,-0.3,-0.5,-1.7,25,-38.3791,332.437,943.043,-0.321727,-0.576351,-1.66225,
2026_07_06_19_52_59.751,3.869,33.7,0,0.76,0,0,0,0, ,0,0,0,0,0, ,-37.7,332.1,941.6,-0.2,-0.6,-1.7,25,-38.3773,332.398,943.022,-0.317356,-0.574746,-1.66455,
2026_07_06_19_52_59.771,3.869,34,0,0.761,0,0,0,0, ,0,0,0,0,0, ,-38.4,332,942.7,-0.4,-0.6,-1.7,25,-38.3574,332.377,942.969,-0.316299,-0.576285,-1.66671,
2026_07_06_19_52_59.791,3.869,33.8,0,0.764,0,0,0,0, ,0,0,0,0,0, ,-38.9,330,942.2,-0.3,-0.6,-1.6,25,-38.3752,332.293,942.937,-0.318352,-0.57773,-1.66569,
2026_07_06_19_52_59.811,3.869,33.8,0,0.763,0,0,0,0, ,0,0,0,0,0, ,-37.2,333.2,943.8,-0.3,-0.6,-1.7,25,-38.3554,332.251,942.941,-0.317234,-0.579087,-1.66473,
2026_07_06_19_52_59.834,3.869,33.8,0,0.762,0,0,0,0, ,0,0,0,0,0, ,-39,331.7,943.9,-0.4,-0.6,-1.7,25,-38.3398,332.263,942.996,-0.319231,-0.580361,-1.66688,
2026_07_06_19_52_59.850,3.869,33.8,0,0.761,0,0,0,0, ,0,0,0,0,0, ,-38,332.5,943.1,-0.4,-0.6,-1.7,25,-38.3496,332.253,943.027,-0.324153,-0.581558,-1.6689,
2026_07_06_19_52_59.870,3.869,34,0,0.761,0,0,0,0, ,0,0,0,0,0, ,-38,331.1,944.2,-0.4,-0.6,-1.6,25,-38.3283,332.226,943.065,-0.328774,-0.582682,-1.66775,
2026_07_06_19_52_59.889,3.869,33.7,0,0.761,0,0,0,0, ,0,0,0,0,0, ,-38.3,332.1,943.2,-0.3,-0.6,-1.6,25,-38.3174,332.187,943.104,-0.330068,-0.583737,-1.66362,
2026_07_06_19_52_59.909,3.869,34,0,0.762,0,0,0,0, ,0,0,0,0,0, ,-38.3,331.9,944.5,-0.4,-0.6,-1.7,25,-38.3164,332.176,943.149,-0.331283,-0.584728,-1.66279,
2026_07_06_19_52_59.929,3.869,34,0,0.76,0,0,0,0, ,0,0,0,0,0, ,-38.4,332.5,942.6,-0.3,-0.6,-1.7,25,-38.3184,332.177,943.174,-0.332423,-0.585659,-1.66506,
2026_07_06_19_52_59.950,3.869,34,0,0.763,0,0,0,0, ,0,0,0,0,0, ,-38.2,332.8,942.9,-0.2,-0.7,-1.6,25,-38.3173,332.206,943.148,-0.3274,-0.58958,-1.66414,
2026_07_06_19_52_59.969,3.869,33.8,0,0.763,0,0,0,0, ,0,0,0,0,0, ,-37.4,332.5,943.8,-0.2,-0.6,-1.6,25,-38.2858,332.233,943.16,-0.319637,-0.593261,-1.66023,
2026_07_06_19_52_59.989,3.869,33.8,0,0.763,0,0,0,0, ,0,0,0,0,0, ,-38.3,332.6,942.1,-0.4,-0.6,-1.7,25,-38.2592,332.253,943.147,-0.31844,-0.593672,-1.65961,
2026_07_06_19_53_00.009,3.869,34,0,0.763,0,0,0,0, ,0,0,0,0,0, ,-38.6,331.5,944.8,-0.4,-0.6,-1.6,25,-38.2708,332.24,943.166,-0.32341,-0.594058,-1.65902,
2026_07_06_19_53_00.028,3.869,34,0,0.762,0,0,0,0, ,0,0,0,0,0, ,-38,332.1,942.6,-0.3,-0.6,-1.7,25,-38.2726,332.213,943.198,-0.325031,-0.59442,-1.65847,
2026_07_06_19_53_00.048,3.869,33.7,0,0.761,0,0,0,0, ,0,0,0,0,0, ,-38.9,334.4,942.9,-0.3,-0.6,-1.6,25,-38.2834,332.277,943.171,-0.323505,-0.59476,-1.65796,
2026_07_06_19_53_00.067,3.869,33.7,0,0.763,0,0,0,0, ,0,0,0,0,0, ,-37.4,331.9,942.7,-0.2,-0.6,-1.6,25,-38.2753,332.33,943.148,-0.319026,-0.595079,-1.65442,
2026_07_06_19_53_00.087,3.869,34,0,0.763,0,0,0,0, ,0,0,0,0,0, ,-38.5,332.5,942.6,-0.2,-0.6,-1.6,25,-38.2555,332.322,943.118,-0.311773,-0.595379,-1.65111,
2026_07_06_19_53_00.108,3.869,33.8,0,0.761,0,0,0,0, ,0,0,0,0,0, ,-38.9,332.7,942.3,-0.2,-0.6,-1.6,25,-38.2826,332.339,943.077,-0.304962,-0.595661,-1.64799,
2026_07_06_19_53_00.127,3.869,33.8,0,0.763,0,0,0,0, ,0,0,0,0,0, ,-38,331.6,944.7,-0.3,-0.6,-1.7,25,-38.2928,332.327,943.103,-0.301613,-0.595925,-1.64812,
2026_07_06_19_53_00.147,3.869,34,0,0.763,0,0,0,0, ,0,0,0,0,0, ,-37.9,330.9,941.8,-0.3,-0.6,-1.7,25,-38.2719,332.262,943.112,-0.301514,-0.596173,-1.65128,
2026_07_06_19_53_00.167,3.869,33.8,0,0.762,0,0,0,0, ,0,0,0,0,0, ,-38.6,331.5,943.3,-0.4,-0.6,-1.7,25,-38.2705,332.197,943.078,-0.304469,-0.596407,-1.65425,
2026_07_06_19_53_00.186,3.869,34,0,0.761,0,0,0,0, ,0,0,0,0,0, ,-38.9,332.2,944,-0.4,-0.6,-1.7,25,-38.2998,332.176,943.113,-0.31029,-0.596626,-1.65703,
2026_07_06_19_53_00.206,3.869,34,0,0.76,0,0,0,0, ,0,0,0,0,0, ,-38.9,332,943.2,-0.5,-0.6,-1.6,25,-38.3363,332.171,943.142,-0.318804,-0.596831,-1.65661,
2026_07_06_19_53_00.226,3.869,33.8,0,0.761,0,0,0,0, ,0,0,0,0,0, ,-38.8,333,943.1,-0.4,-0.6,-1.7,25,-38.3676,332.191,943.143,-0.326799,-0.597024,-1.6562,
2026_07_06_19_53_00.246,3.869,33.8,0,0.763,0,0,0,0, ,0,0,0,0,0, ,-39,332.8,942.2,-0.4,-0.6,-1.7,25,-38.4001,332.234,943.113,-0.331259,-0.597206,-1.65887,
2026_07_06_19_53_00.266,3.869,33.7,0,0.763,0,0,0,0, ,0,0,0,0,0, ,-39.5,332.1,942.6,-0.3,-0.6,-1.7,25,-38.4519,332.248,943.069,-0.332401,-0.597376,-1.66138,
2026_07_06_19_53_00.286,3.869,34,0,0.763,0,0,0,0, ,0,0,0,0,0, ,-37.9,332,943.1,-0.2,-0.6,-1.7,25,-38.467,332.236,943.056,-0.32738,-0.597536,-1.66373,
2026_07_06_19_53_00.306,3.869,33.8,0,0.763,0,0,0,0, ,0,0,0,0,0, ,-38.2,331.6,942.2,-0.2,-0.6,-1.7,25,-38.4416,332.209,943.031,-0.319618,-0.597686,-1.66594,
2026_07_06_19_53_00.325,3.869,34,0,0.763,0,0,0,0, ,0,0,0,0,0, ,-38.5,332.6,942.8,-0.3,-0.6,-1.7,25,-38.436,332.202,942.999,-0.315375,-0.597827,-1.66802,
2026_07_06_19_53_00.345,3.869,33.8,0,0.763,0,0,0,0, ,0,0,0,0,0, ,-38.3,332.1,942.1,-0.2,-0.6,-1.7,25,-38.4338,332.211,942.965,-0.311392,-0.597959,-1.66997,
2026_07_06_19_53_00.365,3.869,34.1,0,0.763,0,0,0,0, ,0,0,0,0,0, ,-39.5,331.6,943.8,-0.4,-0.5,-1.7,25,-38.4622,332.189,942.964,-0.310697,-0.595037,-1.6718,
2026_07_06_19_53_00.385,3.869,33.8,0,0.76,0,0,0,0, ,0,0,0,0,0, ,-38.9,331.4,943.2,-0.4,-0.6,-1.8,25,-38.5072,332.147,942.997,-0.316139,-0.592292,-1.67656,
2026_07_06_19_53_00.404,3.869,33.8,0,0.763,0,0,0,0, ,0,0,0,0,0, ,-37.2,334.1,944.7,-0.4,-0.5,-1.7,25,-38.4793,332.184,943.055,-0.32125,-0.589715,-1.68104,
2026_07_06_19_53_00.424,3.869,33.8,0,0.763,0,0,0,0, ,0,0,0,0,0, ,-38.5,331.7,942,-0.4,-0.6,-1.7,25,-38.441,332.228,943.073,-0.326048,-0.587295,-1.68219,
2026_07_06_19_53_00.444,3.869,33.8,0,0.761,0,0,0,0, ,0,0,0,0,0, ,-39.4,331.2,942,-0.5,-0.6,-1.6,25,-38.472,332.18,943.008,-0.333602,-0.588069,-1.68023,
2026_07_06_19_53_00.464,3.869,34,0,0.763,0,0,0,0, ,0,0,0,0,0, ,-38.4,333,942,-0.4,-0.6,-1.7,25,-38.4981,332.175,942.946,-0.340695,-0.588796,-1.67839,
2026_07_06_19_53_00.483,3.869,33.8,0,0.761,0,0,0,0, ,0,0,0,0,0, ,-38,333,942.7,-0.3,-0.6,-1.7,25,-38.4799,332.226,942.91,-0.341262,-0.589479,-1.67971,
2026_07_06_19_53_00.506,3.869,33.8,0,0.761,0,0,0,0, ,0,0,0,0,0, ,-38.6,332.2,942.9,-0.3,-0.6,-1.6,25,-38.4689,332.248,942.903,-0.338747,-0.59012,-1.6779,
2026_07_06_19_53_00.523,3.869,33.8,0,0.763,0,0,0,0, ,0,0,0,0,0, ,-39.4,332.3,943.3,-0.2,-0.5,-1.7,25,-38.5013,332.249,942.915,-0.333339,-0.587675,-1.6762,
2026_07_06_19_53_00.543,3.869,33.8,0,0.763,0,0,0,0, ,0,0,0,0,0, ,-37.5,332.6,942.2,-0.2,-0.5,-1.7,25,-38.4982,332.261,942.905,-0.325214,-0.582333,-1.67765,
2026_07_06_19_53_00.562,3.869,33.8,0,0.761,0,0,0,0, ,0,0,0,0,0, ,-38.5,331.7,944.4,-0.2,-0.6,-1.7,25,-38.4678,332.254,942.929,-0.317584,-0.580362,-1.67901,
2026_07_06_19_53_00.582,3.869,34,0,0.763,0,0,0,0, ,0,0,0,0,0, ,-39.4,331.6,943.6,-0.2,-0.5,-1.6,25,-38.4972,332.217,942.995,-0.310419,-0.578512,-1.67724,
2026_07_06_19_53_00.602,3.869,34,0,0.763,0,0,0,0, ,0,0,0,0,0, ,-39,331.4,943.7,-0.3,-0.6,-1.6,25,-38.54,332.174,943.034,-0.306737,-0.576775,-1.67253,
2026_07_06_19_53_00.622,3.869,33.8,0,0.763,0,0,0,0, ,0,0,0,0,0, ,-37.8,332,943.4,-0.4,-0.5,-1.7,25,-38.5315,332.145,943.066,-0.309373,-0.575143,-1.67116,
2026_07_06_19_53_00.641,3.869,33.8,0,0.763,0,0,0,0, ,0,0,0,0,0, ,-39.7,332.5,943.1,-0.4,-0.6,-1.6,25,-38.5448,332.151,943.077,-0.314896,-0.573611,-1.66987,
2026_07_06_19_53_00.662,3.869,33.8,0,0.763,0,0,0,0, ,0,0,0,0,0, ,-38,332.1,942.7,-0.2,-0.5,-1.6,25,-38.5634,332.16,943.066,-0.313988,-0.572172,-1.66561,
2026_07_06_19_53_00.686,3.869,33.8,0,0.763,0,0,0,0, ,0,0,0,0,0, ,-39.9,332.7,942.7,-0.2,-0.6,-1.6,25,-38.587,332.175,943.044,-0.307042,-0.570821,-1.66162,
2026_07_06_19_53_00.697,3.869,33.8,0,0.763,0,0,0,0, ,0,0,0,0,0, ,-38.6,331.1,942.8,-0.2,-0.5,-1.7,25,-38.6274,332.158,943.026,-0.300519,-0.569552,-1.66091,
2026_07_06_19_53_00.721,3.869,33.8,0,0.763,0,0,0,0, ,0,0,0,0,0, ,-38.4,332.8,942,-0.3,-0.6,-1.7,25,-38.6196,332.145,942.988,-0.29744,-0.568361,-1.66329,
2026_07_06_19_53_00.741,3.869,34,0,0.761,0,0,0,0, ,0,0,0,0,0, ,-38.6,331.5,943.8,-0.4,-0.7,-1.6,25,-38.6123,332.146,942.983,-0.300643,-0.573336,-1.66248,
2026_07_06_19_53_00.760,3.869,33.8,0,0.763,0,0,0,0, ,0,0,0,0,0, ,-39.4,332.6,943.4,-0.4,-0.6,-1.6,25,-38.6359,332.14,943.02,-0.306698,-0.578007,-1.65867,
2026_07_06_19_53_00.780,3.869,34,0,0.763,0,0,0,0, ,0,0,0,0,0, ,-38.8,333.2,942.2,-0.5,-0.6,-1.7,25,-38.6642,332.186,943.007,-0.31543,-0.579348,-1.65814,
2026_07_06_19_53_00.808,3.869,34,0,0.763,0,0,0,0, ,0,0,0,0,0, ,-38.4,332.6,943.9,-0.4,-0.6,-1.6,25,-38.6603,332.23,943.009,-0.323631,-0.580606,-1.65765,
2026_07_06_19_53_00.821,3.869,34,0,0.763,0,0,0,0, ,0,0,0,0,0, ,-39.1,333.1,943.3,-0.3,-0.6,-1.7,25,-38.6658,332.267,943.045,-0.325238,-0.581788,-1.65718,
2026_07_06_19_53_00.839,3.869,33.8,0,0.765,0,0,0,0, ,0,0,0,0,0, ,-38.3,332.7,943.1,-0.3,-0.5,-1.7,25,-38.6679,332.306,943.055,-0.3237,-0.579851,-1.65979,
2026_07_06_19_53_00.859,3.869,33.7,0,0.764,0,0,0,0, ,0,0,0,0,0, ,-37.4,332.7,942.9,-0.3,-0.5,-1.6,25,-38.618,332.33,943.051,-0.322255,-0.574985,-1.65919,
2026_07_06_19_53_00.879,3.869,33.8,0,0.761,0,0,0,0, ,0,0,0,0,0, ,-37.9,332,942.5,-0.1,-0.6,-1.7,25,-38.559,332.331,943.03,-0.314806,-0.573462,-1.65863,
2026_07_06_19_53_00.903,3.869,33.8,0,0.761,0,0,0,0, ,0,0,0,0,0, ,-37.3,332,942.9,-0.2,-0.6,-1.7,25,-38.5006,332.311,943.01,-0.304763,-0.57508,-1.66115,
2026_07_06_19_53_00.919,3.869,33.8,0,0.762,0,0,0,0, ,0,0,0,0,0, ,-39.5,331,942.8,-0.3,-0.6,-1.7,25,-38.4945,332.262,943,-0.301426,-0.576598,-1.66352,
2026_07_06_19_53_00.938,3.869,34,0,0.761,0,0,0,0, ,0,0,0,0,0, ,-38.3,332.1,942,-0.2,-0.6,-1.7,25,-38.5192,332.218,942.964,-0.298292,-0.578024,-1.66574,
2026_07_06_19_53_00.959,3.869,33.8,0,0.761,0,0,0,0, ,0,0,0,0,0, ,-39.4,332.2,942.7,-0.4,-0.6,-1.7,25,-38.5393,332.214,942.926,-0.298396,-0.579363,-1.66783,
2026_07_06_19_53_00.978,3.869,33.8,0,0.763,0,0,0,0, ,0,0,0,0,0, ,-38.2,331.2,942.5,-0.5,-0.5,-1.7,25,-38.5552,332.183,942.906,-0.307634,-0.577574,-1.66979,
2026_07_06_19_53_00.998,3.869,33.8,0,0.761,0,0,0,0, ,0,0,0,0,0, ,-38.5,333.1,942.2,-0.5,-0.6,-1.6,25,-38.5427,332.181,942.872,-0.319357,-0.575894,-1.66859,
2026_07_06_19_53_01.018,3.869,33.8,0,0.763,0,0,0,0, ,0,0,0,0,0, ,-38.5,331.9,943.7,-0.4,-0.6,-1.6,25,-38.5401,332.2,942.877,-0.327318,-0.577363,-1.66441,
2026_07_06_19_53_01.038,3.869,33.8,0,0.763,0,0,0,0, ,0,0,0,0,0, ,-38.5,333.2,942.9,-0.3,-0.6,-1.7,25,-38.5377,332.222,942.903,-0.3287,-0.578742,-1.66353,
2026_07_06_19_53_01.057,3.869,33.8,0,0.761,0,0,0,0, ,0,0,0,0,0, ,-37.9,331.7,942.8,-0.3,-0.6,-1.7,25,-38.5171,332.235,942.9,-0.326951,-0.580038,-1.66575,
2026_07_06_19_53_01.077,3.869,33.8,0,0.763,0,0,0,0, ,0,0,0,0,0, ,-39.3,333.3,942.1,-0.2,-0.6,-1.7,25,-38.5221,332.252,942.872,-0.322262,-0.581254,-1.66784,
2026_07_06_19_53_01.097,3.869,33.8,0,0.763,0,0,0,0, ,0,0,0,0,0, ,-39.1,332.3,943.2,-0.2,-0.6,-1.6,25,-38.5634,332.285,942.859,-0.314811,-0.582396,-1.66675,
2026_07_06_19_53_01.117,3.869,33.8,0,0.763,0,0,0,0, ,0,0,0,0,0, ,-38.6,332.6,941.7,-0.1,-0.5,-1.6,25,-38.5809,332.295,942.834,-0.304768,-0.580422,-1.66268,
2026_07_06_19_53_01.136,3.869,34,0,0.763,0,0,0,0, ,0,0,0,0,0, ,-38.6,331.6,943.2,-0.3,-0.6,-1.7,25,-38.5821,332.283,942.81,-0.298384,-0.578568,-1.66191,
2026_07_06_19_53_01.156,3.869,33.8,0,0.763,0,0,0,0, ,0,0,0,0,0, ,-37.5,332,942,-0.3,-0.5,-1.8,25,-38.5497,332.254,942.798,-0.298482,-0.576827,-1.66728,
2026_07_06_19_53_01.176,3.869,34,0,0.761,0,0,0,0, ,0,0,0,0,0, ,-38.4,332.3,942.2,-0.3,-0.6,-1.7,25,-38.5131,332.247,942.755,-0.298575,-0.575193,-1.67232,
2026_07_06_19_53_01.195,3.869,33.8,0,0.763,0,0,0,0, ,0,0,0,0,0, ,-38.5,333.2,942.6,-0.4,-0.5,-1.7,25,-38.5093,332.278,942.733,-0.301709,-0.573657,-1.67401,
2026_07_06_19_53_01.215,3.869,33.8,0,0.763,0,0,0,0, ,0,0,0,0,0, ,-39,331.7,942.9,-0.5,-0.6,-1.7,25,-38.5239,332.289,942.734,-0.310745,-0.572216,-1.67559,
2026_07_06_19_53_01.235,3.869,33.8,0,0.763,0,0,0,0, ,0,0,0,0,0, ,-38.6,331.6,943.6,-0.4,-0.6,-1.6,25,-38.5408,332.25,942.766,-0.319231,-0.573909,-1.67403,
2026_07_06_19_53_01.262,3.869,33.8,0,0.763,0,0,0,0, ,0,0,0,0,0, ,-38.2,331.6,944.3,-0.3,-0.6,-1.7,25,-38.5322,332.21,942.838,-0.321106,-0.575499,-1.67257,
2026_07_06_19_53_01.275,3.869,34,0,0.764,0,0,0,0, ,0,0,0,0,0, ,-38.5,333,944.2,-0.3,-0.5,-1.7,25,-38.5211,332.216,942.924,-0.31982,-0.573945,-1.67424,
2026_07_06_19_53_01.295,3.869,34,0,0.761,0,0,0,0, ,0,0,0,0,0, ,-39.1,333.3,942.1,-0.2,-0.6,-1.7,25,-38.5381,332.272,942.938,-0.315565,-0.572486,-1.67581,
2026_07_06_19_53_01.315,3.869,34,0,0.763,0,0,0,0, ,0,0,0,0,0, ,-39.5,332.3,944.7,-0.4,-0.6,-1.7,25,-38.5845,332.305,942.966,-0.314617,-0.574163,-1.67728,
2026_07_06_19_53_01.334,3.869,33.8,0,0.765,0,0,0,0, ,0,0,0,0,0, ,-37.8,332.3,943.6,-0.4,-0.6,-1.7,25,-38.5885,332.304,943.038,-0.31982,-0.575737,-1.67867,
2026_07_06_19_53_01.354,3.869,33.8,0,0.764,0,0,0,0, ,0,0,0,0,0, ,-38.6,333.2,941.6,-0.4,-0.6,-1.6,25,-38.5648,332.331,943.011,-0.324706,-0.577216,-1.67692,
2026_07_06_19_53_01.373,3.869,34,0,0.761,0,0,0,0, ,0,0,0,0,0, ,-39.1,334.1,943.3,-0.4,-0.6,-1.7,25,-38.5822,332.412,942.977,-0.329294,-0.578604,-1.67528,
2026_07_06_19_53_01.393,3.869,33.8,0,0.761,0,0,0,0, ,0,0,0,0,0, ,-38.6,333.7,942.9,-0.3,-0.6,-1.7,25,-38.5985,332.503,942.985,-0.330556,-0.579908,-1.67679,
2026_07_06_19_53_01.414,3.869,33.8,0,0.761,0,0,0,0, ,0,0,0,0,0, ,-38.5,332.3,943.6,-0.2,-0.5,-1.7,25,-38.5956,332.533,943.001,-0.325647,-0.578085,-1.6782,
2026_07_06_19_53_01.433,3.869,33.7,0,0.763,0,0,0,0, ,0,0,0,0,0, ,-37.8,332.3,943.7,-0.2,-0.6,-1.7,25,-38.5684,332.519,943.04,-0.31799,-0.576374,-1.67953,
2026_07_06_19_53_01.453,3.869,33.8,0,0.761,0,0,0,0, ,0,0,0,0,0, ,-38.9,331.4,943.4,-0.2,-0.6,-1.6,25,-38.5551,332.478,943.072,-0.3108,-0.577814,-1.67773,
2026_07_06_19_53_01.473,3.869,33.8,0,0.761,0,0,0,0, ,0,0,0,0,0, ,-38.8,331.6,942.3,-0.2,-0.6,-1.7,25,-38.5731,332.418,943.058,-0.304048,-0.579166,-1.67604,
2026_07_06_19_53_01.493,3.869,34,0,0.763,0,0,0,0, ,0,0,0,0,0, ,-38.4,332,943.2,-0.3,-0.5,-1.7,25,-38.5747,332.381,943.039,-0.300755,-0.577388,-1.6775,
2026_07_06_19_53_01.514,3.869,33.7,0,0.763,0,0,0,0, ,0,0,0,0,0, ,-38.3,331.2,942.8,-0.3,-0.7,-1.6,25,-38.561,332.333,943.037,-0.300709,-0.578766,-1.67582,
2026_07_06_19_53_01.534,3.869,33.8,0,0.763,0,0,0,0, ,0,0,0,0,0, ,-38.4,331.1,943.8,-0.3,-0.6,-1.7,25,-38.5482,332.261,943.053,-0.300666,-0.583107,-1.67425,
2026_07_06_19_53_01.552,3.869,33.8,0,0.761,0,0,0,0, ,0,0,0,0,0, ,-38.3,331.6,942.6,-0.4,-0.6,-1.7,25,-38.5361,332.205,943.062,-0.303672,-0.584136,-1.67582,
2026_07_06_19_53_01.572,3.869,33.8,0,0.763,0,0,0,0, ,0,0,0,0,0, ,-38.9,331,944.2,-0.4,-0.6,-1.6,25,-38.54,332.15,943.082,-0.309542,-0.585103,-1.67425,
2026_07_06_19_53_01.592,3.869,33.8,0,0.763,0,0,0,0, ,0,0,0,0,0, ,-38.8,332,941.8,-0.4,-0.6,-1.7,25,-38.5589,332.111,943.077,-0.315054,-0.586011,-1.67277,
2026_07_06_19_53_01.611,3.869,33.7,0,0.761,0,0,0,0, ,0,0,0,0,0, ,-37.7,333,942.5,-0.3,-0.6,-1.7,25,-38.54,332.134,943.021,-0.317184,-0.586863,-1.67443,
2026_07_06_19_53_01.632,3.869,33.8,0,0.762,0,0,0,0, ,0,0,0,0,0, ,-38.2,333.6,942.9,-0.3,-0.5,-1.7,25,-38.5041,332.205,943.001,-0.316137,-0.584617,-1.67599,
2026_07_06_19_53_01.651,3.869,33.8,0,0.762,0,0,0,0, ,0,0,0,0,0, ,-38.4,333.4,942.9,-0.2,-0.6,-1.6,25,-38.4917,332.284,942.995,-0.312106,-0.582508,-1.6744,
2026_07_06_19_53_01.676,3.869,33.8,0,0.76,0,0,0,0, ,0,0,0,0,0, ,-37.9,332,942.8,-0.1,-0.6,-1.6,25,-38.4708,332.31,942.986,-0.302228,-0.583573,-1.66987,
2026_07_06_19_53_01.691,3.869,33.7,0,0.763,0,0,0,0, ,0,0,0,0,0, ,-38.3,331.2,943.1,-0.2,-0.6,-1.7,25,-38.4482,332.266,942.984,-0.292952,-0.584574,-1.66866,
2026_07_06_19_53_01.711,3.869,33.8,0,0.763,0,0,0,0, ,0,0,0,0,0, ,-38.6,331.6,942.3,-0.3,-0.6,-1.7,25,-38.4483,332.214,942.967,-0.290334,-0.585514,-1.67057,
2026_07_06_19_53_01.730,3.869,33.7,0,0.763,0,0,0,0, ,0,0,0,0,0, ,-38.2,331.4,942.2,-0.3,-0.5,-1.7,25,-38.4454,332.17,942.923,-0.290923,-0.58335,-1.67236,
2026_07_06_19_53_01.750,3.869,34,0,0.761,0,0,0,0, ,0,0,0,0,0, ,-38,332.5,943.3,-0.3,-0.6,-1.6,25,-38.4244,332.157,942.913,-0.291476,-0.581318,-1.671,
2026_07_06_19_53_01.770,3.869,33.8,0,0.763,0,0,0,0, ,0,0,0,0,0, ,-37.8,331.7,942.7,-0.4,-0.6,-1.6,25,-38.3924,332.153,942.918,-0.295043,-0.582456,-1.66667,
2026_07_06_19_53_01.790,3.869,33.8,0,0.763,0,0,0,0, ,0,0,0,0,0, ,-39.1,332.3,943.6,-0.4,-0.5,-1.7,25,-38.3959,332.144,942.932,-0.301438,-0.580479,-1.66566,
2026_07_06_19_53_01.810,3.869,34,0,0.763,0,0,0,0, ,0,0,0,0,0, ,-38.8,333,942.9,-0.5,-0.6,-1.7,25,-38.4297,332.175,942.951,-0.310491,-0.578621,-1.66775,
2026_07_06_19_53_01.829,3.869,34,0,0.763,0,0,0,0, ,0,0,0,0,0, ,-37.4,332.7,943.2,-0.3,-0.6,-1.7,25,-38.4096,332.216,942.957,-0.315946,-0.579924,-1.66971,
2026_07_06_19_53_01.849,3.869,33.7,0,0.763,0,0,0,0, ,0,0,0,0,0, ,-38.9,332.3,943.1,-0.3,-0.5,-1.7,25,-38.3938,332.233,942.969,-0.314974,-0.578101,-1.67156,
2026_07_06_19_53_01.869,3.869,34,0,0.761,0,0,0,0, ,0,0,0,0,0, ,-37.1,333,943.8,-0.3,-0.5,-1.7,25,-38.3698,332.259,942.998,-0.314062,-0.573341,-1.67329,
2026_07_06_19_53_01.888,3.869,34,0,0.761,0,0,0,0, ,0,0,0,0,0, ,-37.9,333.3,943.8,-0.2,-0.5,-1.7,25,-38.3168,332.313,943.047,-0.310158,-0.568872,-1.67492,
2026_07_06_19_53_01.913,3.869,33.8,0,0.764,0,0,0,0, ,0,0,0,0,0, ,-37.2,333,942.8,-0.2,-0.6,-1.7,25,-38.27,332.364,943.063,-0.303445,-0.567722,-1.67645,
2026_07_06_19_53_01.928,3.869,33.8,0,0.763,0,0,0,0, ,0,0,0,0,0, ,-38.4,331.5,942.3,-0.1,-0.5,-1.7,25,-38.2414,332.357,943.031,-0.294095,-0.566642,-1.67788,
2026_07_06_19_53_01.947,3.869,33.8,0,0.763,0,0,0,0, ,0,0,0,0,0, ,-38.9,331.9,943.1,-0.3,-0.6,-1.7,25,-38.2663,332.317,943.011,-0.288361,-0.565628,-1.67923,
2026_07_06_19_53_01.967,3.869,34,0,0.763,0,0,0,0, ,0,0,0,0,0, ,-38.6,332.2,943.6,-0.3,-0.6,-1.7,25,-38.2958,332.301,943.032,-0.28907,-0.567723,-1.6805,
2026_07_06_19_53_01.991,3.869,33.8,0,0.76,0,0,0,0, ,0,0,0,0,0, ,-37.9,332.8,943.9,-0.2,-0.6,-1.7,25,-38.293,332.313,943.076,-0.286689,-0.569689,-1.68169,
2026_07_06_19_53_02.008,3.869,33.8,0,0.76,0,0,0,0, ,0,0,0,0,0, ,-38.3,333.4,943.4,-0.2,-0.6,-1.7,25,-38.2812,332.361,943.111,-0.281407,-0.571537,-1.6828,
2026_07_06_19_53_02.029,3.869,33.8,0,0.76,0,0,0,0, ,0,0,0,0,0, ,-38.9,332,943.7,-0.1,-0.5,-1.8,25,-38.3007,332.381,943.137,-0.273399,-0.570224,-1.6869,
2026_07_06_19_53_02.046,3.869,34,0,0.763,0,0,0,0, ,0,0,0,0,0, ,-38.8,331.7,941.8,-0.2,-0.6,-1.7,25,-38.3341,332.349,943.114,-0.265879,-0.568992,-1.69074,
2026_07_06_19_53_02.066,3.869,33.8,0,0.763,0,0,0,0, ,0,0,0,0,0, ,-39.6,331.2,944.3,-0.3,-0.7,-1.7,25,-38.3869,332.294,943.11,-0.264912,-0.573928,-1.69131,
2026_07_06_19_53_02.086,3.869,33.8,0,0.763,0,0,0,0, ,0,0,0,0,0, ,-38.8,332.2,943.1,-0.3,-0.6,-1.7,25,-38.4364,332.258,943.146,-0.26705,-0.578564,-1.69184,
2026_07_06_19_53_02.110,3.869,33.7,0,0.761,0,0,0,0, ,0,0,0,0,0, ,-39.7,331,943.2,-0.4,-0.6,-1.7,25,-38.486,332.218,943.146,-0.272105,-0.57987,-1.69233,
2026_07_06_19_53_02.126,3.869,33.8,0,0.762,0,0,0,0, ,0,0,0,0,0, ,-38.5,332,942.9,-0.5,-0.6,-1.6,25,-38.5234,332.174,943.14,-0.282945,-0.581097,-1.68975,
2026_07_06_19_53_02.145,3.869,33.8,0,0.762,0,0,0,0, ,0,0,0,0,0, ,-39.4,332,942.2,-0.5,-0.6,-1.7,25,-38.5494,332.164,943.104,-0.296172,-0.582249,-1.68733,
2026_07_06_19_53_02.165,3.869,33.7,0,0.763,0,0,0,0, ,0,0,0,0,0, ,-38.8,332.6,942.6,-0.4,-0.6,-1.7,25,-38.583,332.172,943.061,-0.305546,-0.58333,-1.6881,
2026_07_06_19_53_02.184,3.869,33.7,0,0.763,0,0,0,0, ,0,0,0,0,0, ,-39.1,333.1,942.9,-0.4,-0.6,-1.6,25,-38.6053,332.213,943.042,-0.311302,-0.584346,-1.68578,
2026_07_06_19_53_02.205,3.869,34,0,0.763,0,0,0,0, ,0,0,0,0,0, ,-39,332.2,942.8,-0.2,-0.6,-1.7,25,-38.6324,332.24,943.031,-0.310613,-0.5853,-1.6836,
2026_07_06_19_53_02.225,3.869,33.8,0,0.763,0,0,0,0, ,0,0,0,0,0, ,-39.3,333,942.7,-0.3,-0.5,-1.6,25,-38.664,332.262,943.014,-0.306919,-0.583149,-1.68155,
2026_07_06_19_53_02.244,3.869,33.8,0,0.763,0,0,0,0, ,0,0,0,0,0, ,-39.5,331.7,943.8,-0.2,-0.6,-1.7,25,-38.7088,332.267,943.028,-0.303451,-0.581129,-1.67963,
2026_07_06_19_53_02.264,3.869,33.8,0,0.76,0,0,0,0, ,0,0,0,0,0, ,-39,332,945,-0.2,-0.5,-1.6,25,-38.7418,332.242,943.112,-0.297147,-0.579232,-1.67782,
2026_07_06_19_53_02.283,3.869,34,0,0.76,0,0,0,0, ,0,0,0,0,0, ,-39.5,332.3,944.5,-0.2,-0.5,-1.7,25,-38.7728,332.236,943.211,-0.291227,-0.574404,-1.67613,
2026_07_06_19_53_02.304,3.869,34,0,0.764,0,0,0,0, ,0,0,0,0,0, ,-37.9,331.9,943.3,-0.3,-0.6,-1.6,25,-38.7683,332.228,943.253,-0.288715,-0.572917,-1.67454,
2026_07_06_19_53_02.324,3.869,33.7,0,0.763,0,0,0,0, ,0,0,0,0,0, ,-38.9,331.1,943.2,-0.4,-0.5,-1.7,25,-38.7459,332.184,943.253,-0.292449,-0.57152,-1.67304,
2026_07_06_19_53_02.343,3.869,33.8,0,0.76,0,0,0,0, ,0,0,0,0,0, ,-39,333,943.2,-0.4,-0.6,-1.7,25,-38.7583,332.175,943.25,-0.299003,-0.570209,-1.67468,
2026_07_06_19_53_02.363,3.869,33.8,0,0.76,0,0,0,0, ,0,0,0,0,0, ,-38,332.8,943.3,-0.4,-0.6,-1.6,25,-38.7426,332.22,943.25,-0.305158,-0.572024,-1.67318,
2026_07_06_19_53_02.382,3.869,33.8,0,0.763,0,0,0,0, ,0,0,0,0,0, ,-38.3,333,944.5,-0.4,-0.6,-1.6,25,-38.7065,332.261,943.29,-0.310937,-0.573729,-1.66872,
2026_07_06_19_53_02.403,3.869,33.8,0,0.763,0,0,0,0, ,0,0,0,0,0, ,-38.6,332,942.5,-0.4,-0.6,-1.6,25,-38.6908,332.276,943.302,-0.316364,-0.57533,-1.66453,
2026_07_06_19_53_02.423,3.869,33.8,0,0.763,0,0,0,0, ,0,0,0,0,0, ,-38.2,333.2,943.7,-0.4,-0.5,-1.7,25,-38.6731,332.295,943.29,-0.321461,-0.573786,-1.66365,
2026_07_06_19_53_02.443,3.869,33.8,0,0.762,0,0,0,0, ,0,0,0,0,0, ,-38.5,334.1,943.4,-0.3,-0.6,-1.6,25,-38.6534,332.378,943.306,-0.3232,-0.572337,-1.66282,
2026_07_06_19_53_02.462,3.869,34,0,0.763,0,0,0,0, ,0,0,0,0,0, ,-38.5,333,942.2,-0.3,-0.5,-1.7,25,-38.6441,332.449,943.275,-0.321786,-0.570976,-1.66204,
2026_07_06_19_53_02.482,3.869,33.8,0,0.762,0,0,0,0, ,0,0,0,0,0, ,-38.8,332.2,942.5,-0.2,-0.6,-1.6,25,-38.6444,332.458,943.219,-0.317412,-0.569698,-1.6613,
2026_07_06_19_53_02.502,3.869,33.8,0,0.76,0,0,0,0, ,0,0,0,0,0, ,-38.4,332.6,943.3,-0.2,-0.5,-1.7,25,-38.6417,332.455,943.199,-0.310257,-0.568497,-1.66061,
2026_07_06_19_53_02.521,3.869,34,0,0.763,0,0,0,0, ,0,0,0,0,0, ,-40,332,942.3,-0.1,-0.5,-1.7,25,-38.6758,332.445,943.175,-0.300491,-0.564323,-1.66301,
2026_07_06_19_53_02.541,3.869,33.8,0,0.763,0,0,0,0, ,0,0,0,0,0, ,-40.4,331.5,943.9,-0.2,-0.5,-1.7,25,-38.7686,332.403,943.17,-0.291321,-0.560403,-1.66527,
2026_07_06_19_53_02.561,3.869,33.8,0,0.762,0,0,0,0, ,0,0,0,0,0, ,-40.8,331,943.1,-0.2,-0.5,-1.6,25,-38.8802,332.333,943.19,-0.285756,-0.556723,-1.66434,
2026_07_06_19_53_02.581,3.869,33.8,0,0.762,0,0,0,0, ,0,0,0,0,0, ,-37.8,332.8,942.6,-0.3,-0.6,-1.7,25,-38.9058,332.306,943.17,-0.283577,-0.556313,-1.66346,
2026_07_06_19_53_02.601,3.869,33.8,0,0.764,0,0,0,0, ,0,0,0,0,0, ,-38.3,332,942.7,-0.4,-0.5,-1.6,25,-38.8537,332.312,943.138,-0.287625,-0.555928,-1.66264,
2026_07_06_19_53_02.621,3.869,33.8,0,0.764,0,0,0,0, ,0,0,0,0,0, ,-38.5,332.6,942.7,-0.4,-0.6,-1.7,25,-38.826,332.311,943.111,-0.294473,-0.555567,-1.66187,
2026_07_06_19_53_02.641,3.869,33.8,0,0.763,0,0,0,0, ,0,0,0,0,0, ,-38,331.6,944.8,-0.3,-0.6,-1.6,25,-38.7909,332.299,943.15,-0.297856,-0.558275,-1.66115,
2026_07_06_19_53_02.660,3.869,33.8,0,0.763,0,0,0,0, ,0,0,0,0,0, ,-38.3,330.3,943.6,-0.2,-0.5,-1.7,25,-38.7519,332.216,943.214,-0.29494,-0.55777,-1.66047,
2026_07_06_19_53_02.680,3.869,33.7,0,0.762,0,0,0,0, ,0,0,0,0,0, ,-38.5,331.4,942.1,-0.2,-0.6,-1.7,25,-38.7304,332.133,943.192,-0.289155,-0.557297,-1.66288,
2026_07_06_19_53_02.706,3.869,34,0,0.763,0,0,0,0, ,0,0,0,0,0, ,-38.5,330.8,942.5,-0.2,-0.6,-1.7,25,-38.7164,332.07,943.138,-0.283722,-0.559899,-1.66514,
2026_07_06_19_53_02.720,3.869,34,0,0.763,0,0,0,0, ,0,0,0,0,0, ,-38.2,331.5,941.7,-0.4,-0.6,-1.7,25,-38.6941,332.014,943.074,-0.284714,-0.562343,-1.66726,
2026_07_06_19_53_02.739,3.869,34,0,0.764,0,0,0,0, ,0,0,0,0,0, ,-38.2,332.5,942.5,-0.5,-0.6,-1.6,25,-38.6639,332.013,943.015,-0.294786,-0.564638,-1.66621,
2026_07_06_19_53_02.759,3.869,33.8,0,0.763,0,0,0,0, ,0,0,0,0,0, ,-37.9,332.3,942.9,-0.5,-0.5,-1.7,25,-38.6265,332.037,942.996,-0.307291,-0.563746,-1.66522,
2026_07_06_19_53_02.779,3.869,33.8,0,0.763,0,0,0,0, ,0,0,0,0,0, ,-39.5,332.7,943.4,-0.5,-0.6,-1.6,25,-38.631,332.065,943.005,-0.319034,-0.562908,-1.6643,
2026_07_06_19_53_02.799,3.869,34,0,0.762,0,0,0,0, ,0,0,0,0,0, ,-39,333.7,943.6,-0.4,-0.6,-1.6,25,-38.6687,332.134,943.035,-0.327015,-0.565168,-1.66038,
2026_07_06_19_53_02.819,3.869,34,0,0.762,0,0,0,0, ,0,0,0,0,0, ,-39.6,333.2,943.3,-0.2,-0.6,-1.6,25,-38.7072,332.214,943.061,-0.325369,-0.567291,-1.6567,
2026_07_06_19_53_02.839,3.869,33.8,0,0.76,0,0,0,0, ,0,0,0,0,0, ,-38.6,333,942.6,-0.3,-0.6,-1.6,25,-38.7311,332.268,943.054,-0.320776,-0.569284,-1.65324,
2026_07_06_19_53_02.858,3.869,34,0,0.763,0,0,0,0, ,0,0,0,0,0, ,-39.4,332,944.2,-0.2,-0.6,-1.7,25,-38.7475,332.282,943.075,-0.316463,-0.571156,-1.65305,
2026_07_06_19_53_02.878,3.869,34,0,0.762,0,0,0,0, ,0,0,0,0,0, ,-39.1,332.3,942.5,-0.1,-0.6,-1.7,25,-38.7781,332.274,943.092,-0.306319,-0.572913,-1.65591,
2026_07_06_19_53_02.897,3.869,33.8,0,0.763,0,0,0,0, ,0,0,0,0,0, ,-38.6,331.7,943.6,-0.2,-0.5,-1.7,25,-38.7825,332.258,943.089,-0.296794,-0.571517,-1.65859,
2026_07_06_19_53_02.917,3.869,34,0,0.763,0,0,0,0, ,0,0,0,0,0, ,-38.4,331.5,943.9,-0.3,-0.6,-1.6,25,-38.7653,332.218,943.129,-0.293942,-0.570206,-1.65807,
2026_07_06_19_53_02.937,3.869,34,0,0.763,0,0,0,0, ,0,0,0,0,0, ,-38.9,331.7,944.4,-0.3,-0.6,-1.7,25,-38.7583,332.18,943.192,-0.294311,-0.572022,-1.65758,
2026_07_06_19_53_02.958,3.869,34,0,0.763,0,0,0,0, ,0,0,0,0,0, ,-38.6,330.8,943.4,-0.4,-0.6,-1.6,25,-38.7578,332.123,943.235,-0.297705,-0.573726,-1.65712,
2026_07_06_19_53_02.976,3.869,34,0,0.763,0,0,0,0, ,0,0,0,0,0, ,-37.9,332,943.6,-0.4,-0.6,-1.6,25,-38.7268,332.079,943.251,-0.303938,-0.575328,-1.65364,
2026_07_06_19_53_02.996,3.869,34,0,0.765,0,0,0,0, ,0,0,0,0,0, ,-38.9,333.7,944.3,-0.4,-0.6,-1.6,25,-38.7069,332.126,943.294,-0.309792,-0.576831,-1.65037,
2026_07_06_19_53_03.017,3.869,33.8,0,0.763,0,0,0,0, ,0,0,0,0,0, ,-38.8,334.3,942.7,-0.4,-0.6,-1.7,25,-38.7156,332.24,943.306,-0.315289,-0.578243,-1.65035,
2026_07_06_19_53_03.036,3.869,34,0,0.763,0,0,0,0, ,0,0,0,0,0, ,-38.2,333,942.6,-0.4,-0.6,-1.7,25,-38.7025,332.326,943.266,-0.320451,-0.579569,-1.65337,
2026_07_06_19_53_03.056,3.869,33.8,0,0.763,0,0,0,0, ,0,0,0,0,0, ,-39.6,332.3,942.8,-0.4,-0.5,-1.7,25,-38.7145,332.346,943.232,-0.325299,-0.577767,-1.65621,
2026_07_06_19_53_03.075,3.869,34,0,0.76,0,0,0,0, ,0,0,0,0,0, ,-38.4,333.3,942.5,-0.2,-0.6,-1.7,25,-38.7319,332.374,943.196,-0.323757,-0.576075,-1.65888,
2026_07_06_19_53_03.095,3.869,33.8,0,0.762,0,0,0,0, ,0,0,0,0,0, ,-39.4,332.8,943.7,-0.2,-0.6,-1.6,25,-38.7422,332.415,943.19,-0.316216,-0.577533,-1.65834,
2026_07_06_19_53_03.115,3.869,33.8,0,0.763,0,0,0,0, ,0,0,0,0,0, ,-38,333.4,943.7,-0.2,-0.5,-1.6,25,-38.7396,332.457,943.221,-0.309134,-0.575855,-1.65479,
2026_07_06_19_53_03.135,3.869,34,0,0.764,0,0,0,0, ,0,0,0,0,0, ,-38.3,330.2,943.6,-0.3,-0.6,-1.6,25,-38.7037,332.417,943.248,-0.30553,-0.574279,-1.65145,
2026_07_06_19_53_03.155,3.869,33.8,0,0.762,0,0,0,0, ,0,0,0,0,0, ,-38.5,331.5,943.1,-0.3,-0.5,-1.7,25,-38.6852,332.321,943.254,-0.305193,-0.5728,-1.65136,
2026_07_06_19_53_03.174,3.869,34,0,0.764,0,0,0,0, ,0,0,0,0,0, ,-37.7,330.6,944,-0.3,-0.6,-1.6,25,-38.6495,332.244,943.272,-0.304877,-0.571411,-1.65128,
2026_07_06_19_53_03.195,3.869,33.7,0,0.763,0,0,0,0, ,0,0,0,0,0, ,-38.5,331.7,943.7,-0.4,-0.6,-1.8,25,-38.616,332.177,943.307,-0.307627,-0.573153,-1.65424,
2026_07_06_19_53_03.214,3.869,33.8,0,0.763,0,0,0,0, ,0,0,0,0,0, ,-39.5,331.2,942.6,-0.3,-0.6,-1.6,25,-38.6394,332.133,943.297,-0.310209,-0.574789,-1.65703,
2026_07_06_19_53_03.233,3.869,33.8,0,0.763,0,0,0,0, ,0,0,0,0,0, ,-38.9,332.8,945.5,-0.5,-0.5,-1.7,25,-38.6736,332.125,943.343,-0.31568,-0.573278,-1.6566,
2026_07_06_19_53_03.254,3.869,33.8,0,0.763,0,0,0,0, ,0,0,0,0,0, ,-38.3,331.9,943.3,-0.4,-0.6,-1.7,25,-38.6691,332.138,943.408,-0.323865,-0.57186,-1.65925,
2026_07_06_19_53_03.274,3.869,33.8,0,0.763,0,0,0,0, ,0,0,0,0,0, ,-38,333.4,943.2,-0.4,-0.6,-1.7,25,-38.6375,332.17,943.398,-0.328505,-0.573574,-1.66173,
2026_07_06_19_53_03.294,3.869,33.8,0,0.763,0,0,0,0, ,0,0,0,0,0, ,-37.7,333.6,944,-0.3,-0.6,-1.7,25,-38.5895,332.251,943.41,-0.329815,-0.575185,-1.66406,
2026_07_06_19_53_03.314,3.869,33.8,0,0.763,0,0,0,0, ,0,0,0,0,0, ,-37.4,333.4,943.6,-0.3,-0.6,-1.7,25,-38.5261,332.327,943.434,-0.327998,-0.576697,-1.66625,
2026_07_06_19_53_03.333,3.869,33.8,0,0.763,0,0,0,0, ,0,0,0,0,0, ,-38.3,330.8,944,-0.4,-0.6,-1.6,25,-38.4849,332.313,943.456,-0.329339,-0.578117,-1.66526,
2026_07_06_19_53_03.353,3.869,33.8,0,0.762,0,0,0,0, ,0,0,0,0,0, ,-38.2,332.5,942.9,-0.4,-0.6,-1.7,25,-38.4706,332.273,943.456,-0.333645,-0.57945,-1.66433,
2026_07_06_19_53_03.372,3.869,33.8,0,0.761,0,0,0,0, ,0,0,0,0,0, ,-38.6,332.3,944.9,-0.5,-0.6,-1.7,25,-38.4663,332.28,943.483,-0.340735,-0.580703,-1.66651,
2026_07_06_19_53_03.392,3.869,34,0,0.763,0,0,0,0, ,0,0,0,0,0, ,-38.9,333,943.3,-0.4,-0.6,-1.8,25,-38.4836,332.303,943.521,-0.347393,-0.581879,-1.67159,
2026_07_06_19_53_03.412,3.869,33.8,0,0.763,0,0,0,0, ,0,0,0,0,0, ,-37.3,331.7,943.6,-0.3,-0.5,-1.7,25,-38.4602,332.306,943.516,-0.347552,-0.579936,-1.67637,
2026_07_06_19_53_03.432,3.869,33.8,0,0.763,0,0,0,0, ,0,0,0,0,0, ,-38,332.7,943.8,-0.3,-0.6,-1.7,25,-38.4109,332.299,943.528,-0.344654,-0.578112,-1.67781,
2026_07_06_19_53_03.451,3.869,34,0,0.763,0,0,0,0, ,0,0,0,0,0, ,-38.8,333,942.2,-0.3,-0.6,-1.7,25,-38.4102,332.333,943.495,-0.341933,-0.579446,-1.67916,
2026_07_06_19_53_03.471,3.869,33.7,0,0.761,0,0,0,0, ,0,0,0,0,0, ,-39.5,333.3,944,-0.1,-0.6,-1.7,25,-38.4553,332.383,943.471,-0.333284,-0.580698,-1.68043,
2026_07_06_19_53_03.491,3.869,34,0,0.763,0,0,0,0, ,0,0,0,0,0, ,-39.1,332.6,942.5,-0.2,-0.5,-1.7,25,-38.5067,332.417,943.458,-0.322115,-0.578827,-1.68163,
2026_07_06_19_53_03.518,3.869,33.8,0,0.761,0,0,0,0, ,0,0,0,0,0, ,-39.1,332,943.9,-0.3,-0.6,-1.6,25,-38.5429,332.41,943.442,-0.317721,-0.577071,-1.6797,
2026_07_06_19_53_03.533,3.869,34,0,0.763,0,0,0,0, ,0,0,0,0,0, ,-38.5,331.2,943.8,-0.3,-0.6,-1.7,25,-38.5586,332.361,943.467,-0.316641,-0.578468,-1.67789,
2026_07_06_19_53_03.551,3.869,34,0,0.761,0,0,0,0, ,0,0,0,0,0, ,-37.9,331.9,943.7,-0.3,-0.6,-1.6,25,-38.5367,332.311,943.484,-0.315627,-0.57978,-1.67619,
2026_07_06_19_53_03.570,3.869,33.7,0,0.764,0,0,0,0, ,0,0,0,0,0, ,-37.2,331.5,943.3,-0.4,-0.6,-1.7,25,-38.4766,332.274,943.485,-0.317722,-0.581012,-1.67459,
2026_07_06_19_53_03.590,3.869,33.8,0,0.763,0,0,0,0, ,0,0,0,0,0, ,-39,332,943.7,-0.4,-0.6,-1.7,25,-38.4536,332.242,943.486,-0.322735,-0.582169,-1.67614,
2026_07_06_19_53_03.611,3.869,33.8,0,0.762,0,0,0,0, ,0,0,0,0,0, ,-38.9,332.2,943.3,-0.4,-0.6,-1.6,25,-38.4839,332.233,943.487,-0.327444,-0.583256,-1.67455,
2026_07_06_19_53_03.630,3.869,34,0,0.762,0,0,0,0, ,0,0,0,0,0, ,-38.5,330.5,943.6,-0.5,-0.6,-1.6,25,-38.4971,332.18,943.485,-0.334912,-0.584276,-1.67001,
2026_07_06_19_53_03.650,3.869,34,0,0.76,0,0,0,0, ,0,0,0,0,0, ,-38.8,332.6,944.3,-0.4,-0.5,-1.7,25,-38.5064,332.141,943.513,-0.341925,-0.582188,-1.66879,
2026_07_06_19_53_03.669,3.869,34,0,0.762,0,0,0,0, ,0,0,0,0,0, ,-38.5,332.2,942.8,-0.3,-0.6,-1.7,25,-38.5151,332.157,943.515,-0.342417,-0.580226,-1.67069,
2026_07_06_19_53_03.689,3.869,34,0,0.763,0,0,0,0, ,0,0,0,0,0, ,-36.9,332.3,942.5,-0.3,-0.5,-1.6,25,-38.4655,332.163,943.463,-0.339832,-0.578384,-1.66943,
2026_07_06_19_53_03.709,3.869,33.8,0,0.76,0,0,0,0, ,0,0,0,0,0, ,-37.5,332.7,943.1,-0.3,-0.5,-1.7,25,-38.3883,332.183,943.422,-0.337405,-0.573608,-1.66824,
2026_07_06_19_53_03.729,3.869,33.7,0,0.762,0,0,0,0, ,0,0,0,0,0, ,-38,332.8,943.4,-0.2,-0.6,-1.6,25,-38.3494,332.218,943.412,-0.332079,-0.572169,-1.66713,
2026_07_06_19_53_03.749,3.869,33.7,0,0.762,0,0,0,0, ,0,0,0,0,0, ,-38.4,331.4,943.4,-0.2,-0.5,-1.6,25,-38.3403,332.211,943.411,-0.32403,-0.570818,-1.66304,
2026_07_06_19_53_03.768,3.869,34,0,0.763,0,0,0,0, ,0,0,0,0,0, ,-38.5,331.2,942.9,-0.2,-0.6,-1.7,25,-38.347,332.155,943.395,-0.316472,-0.56955,-1.66225,
2026_07_06_19_53_03.788,3.869,34,0,0.762,0,0,0,0, ,0,0,0,0,0, ,-38.5,331.4,943.6,-0.3,-0.6,-1.7,25,-38.3563,332.103,943.386,-0.312422,-0.571405,-1.66455,
2026_07_06_19_53_03.808,3.869,33.8,0,0.763,0,0,0,0, ,0,0,0,0,0, ,-38.6,333.1,942.5,-0.3,-0.6,-1.6,25,-38.3681,332.112,943.366,-0.311665,-0.573148,-1.66366,
2026_07_06_19_53_03.828,3.869,34,0,0.764,0,0,0,0, ,0,0,0,0,0, ,-38.3,332.1,942.7,-0.4,-0.6,-1.6,25,-38.3731,332.142,943.319,-0.314001,-0.574784,-1.65978,
2026_07_06_19_53_03.848,3.869,33.8,0,0.763,0,0,0,0, ,0,0,0,0,0, ,-37.9,332.3,943.2,-0.4,-0.6,-1.7,25,-38.3565,332.145,943.297,-0.319241,-0.576321,-1.65919,
2026_07_06_19_53_03.868,3.869,34,0,0.764,0,0,0,0, ,0,0,0,0,0, ,-39.3,331.4,943.3,-0.5,-0.5,-1.7,25,-38.3713,332.127,943.294,-0.327209,-0.574717,-1.66167,
2026_07_06_19_53_03.887,3.869,34,0,0.763,0,0,0,0, ,0,0,0,0,0, ,-38.3,334.5,943.4,-0.4,-0.5,-1.7,25,-38.3974,332.177,943.297,-0.334692,-0.570164,-1.66401,
2026_07_06_19_53_03.907,3.869,34,0,0.763,0,0,0,0, ,0,0,0,0,0, ,-39.4,332.8,944.3,-0.4,-0.5,-1.6,25,-38.425,332.267,943.331,-0.338672,-0.565888,-1.66315,
2026_07_06_19_53_03.927,3.869,33.8,0,0.763,0,0,0,0, ,0,0,0,0,0, ,-38.9,332.8,942.5,-0.3,-0.6,-1.6,25,-38.4692,332.3,943.335,-0.339362,-0.56492,-1.65931,
2026_07_06_19_53_03.952,3.869,34,0,0.762,0,0,0,0, ,0,0,0,0,0, ,-39.6,332.5,943.7,-0.2,-0.6,-1.6,25,-38.5168,332.321,943.321,-0.333916,-0.567058,-1.65569,
2026_07_06_19_53_03.969,3.869,34,0,0.761,0,0,0,0, ,0,0,0,0,0, ,-38.2,331.2,944.2,-0.4,-0.6,-1.7,25,-38.5401,332.292,943.359,-0.33185,-0.569065,-1.65535,
2026_07_06_19_53_03.986,3.869,33.8,0,0.763,0,0,0,0, ,0,0,0,0,0, ,-38.4,332.1,942.2,-0.4,-0.5,-1.6,25,-38.5255,332.253,943.349,-0.336003,-0.567903,-1.65502,
2026_07_06_19_53_04.006,3.869,33.8,0,0.763,0,0,0,0, ,0,0,0,0,0, ,-38.9,331.9,942.8,-0.4,-0.6,-1.6,25,-38.5331,332.238,943.298,-0.339902,-0.566812,-1.65167,
2026_07_06_19_53_04.025,3.869,34,0,0.763,0,0,0,0, ,0,0,0,0,0, ,-39.1,332.1,943.3,-0.5,-0.6,-1.6,25,-38.5615,332.223,943.283,-0.346612,-0.568835,-1.64852,
2026_07_06_19_53_04.045,3.869,34,0,0.762,0,0,0,0, ,0,0,0,0,0, ,-38.3,333.8,944,-0.4,-0.5,-1.6,25,-38.57,332.267,943.305,-0.352912,-0.567687,-1.64556,
2026_07_06_19_53_04.065,3.869,33.7,0,0.762,0,0,0,0, ,0,0,0,0,0, ,-37.3,332.1,943.6,-0.3,-0.5,-1.7,25,-38.5231,332.309,943.335,-0.352734,-0.563562,-1.64583,
2026_07_06_19_53_04.084,3.869,33.8,0,0.763,0,0,0,0, ,0,0,0,0,0, ,-38.5,332,942.9,-0.2,-0.6,-1.7,25,-38.4851,332.293,943.33,-0.346474,-0.562736,-1.64913,
2026_07_06_19_53_04.104,3.869,34,0,0.763,0,0,0,0, ,0,0,0,0,0, ,-38,333.3,943.7,-0.2,-0.6,-1.6,25,-38.4708,332.315,943.328,-0.337548,-0.565007,-1.64919,
2026_07_06_19_53_04.125,3.869,33.8,0,0.762,0,0,0,0, ,0,0,0,0,0, ,-38.4,331.9,942.6,-0.2,-0.6,-1.6,25,-38.4543,332.332,943.317,-0.329166,-0.567139,-1.64619,
2026_07_06_19_53_04.144,3.869,33.8,0,0.763,0,0,0,0, ,0,0,0,0,0, ,-38.9,331.1,943.6,-0.1,-0.5,-1.6,25,-38.4662,332.282,943.304,-0.318248,-0.566095,-1.64337,
2026_07_06_19_53_04.164,3.869,34,0,0.763,0,0,0,0, ,0,0,0,0,0, ,-37.1,332,942.9,-0.3,-0.6,-1.7,25,-38.4378,332.237,943.301,-0.311043,-0.565114,-1.64378,
2026_07_06_19_53_04.184,3.869,33.8,0,0.763,0,0,0,0, ,0,0,0,0,0, ,-38.6,331,943.3,-0.3,-0.5,-1.7,25,-38.402,332.192,943.288,-0.31037,-0.564193,-1.6472,
2026_07_06_19_53_04.203,3.869,33.8,0,0.762,0,0,0,0, ,0,0,0,0,0, ,-37.9,331.2,942.8,-0.3,-0.6,-1.6,25,-38.3927,332.126,943.274,-0.309738,-0.563328,-1.64737,
2026_07_06_19_53_04.223,3.869,33.8,0,0.763,0,0,0,0, ,0,0,0,0,0, ,-38.4,331.2,943.2,-0.4,-0.7,-1.6,25,-38.3779,332.069,943.257,-0.312191,-0.56861,-1.64449,
2026_07_06_19_53_04.243,3.869,34,0,0.763,0,0,0,0, ,0,0,0,0,0, ,-38.2,331.7,942.8,-0.5,-0.6,-1.7,25,-38.3732,332.031,943.242,-0.320589,-0.573569,-1.64482,
2026_07_06_19_53_04.263,3.869,34,0,0.763,0,0,0,0, ,0,0,0,0,0, ,-39.3,331.9,944,-0.5,-0.5,-1.7,25,-38.3961,332.017,943.251,-0.331522,-0.572133,-1.64819,
2026_07_06_19_53_04.282,3.869,33.8,0,0.763,0,0,0,0, ,0,0,0,0,0, ,-37.7,333.3,944.9,-0.4,-0.6,-1.6,25,-38.4025,332.053,943.324,-0.338742,-0.570784,-1.6483,
2026_07_06_19_53_04.302,3.869,33.7,0,0.763,0,0,0,0, ,0,0,0,0,0, ,-39.1,332.7,943.8,-0.4,-0.6,-1.6,25,-38.4023,332.111,943.387,-0.342475,-0.572565,-1.64535,
2026_07_06_19_53_04.322,3.869,33.7,0,0.763,0,0,0,0, ,0,0,0,0,0, ,-39,333.3,944,-0.3,-0.6,-1.6,25,-38.4418,332.165,943.418,-0.342933,-0.574236,-1.64259,
2026_07_06_19_53_04.342,3.869,34,0,0.763,0,0,0,0, ,0,0,0,0,0, ,-38,333.3,944.9,-0.2,-0.6,-1.7,25,-38.4453,332.234,943.481,-0.33727,-0.575806,-1.64304,
2026_07_06_19_53_04.362,3.869,33.7,0,0.762,0,0,0,0, ,0,0,0,0,0, ,-38.9,331.1,942.9,-0.2,-0.6,-1.7,25,-38.4456,332.232,943.506,-0.328905,-0.577281,-1.64651,
2026_07_06_19_53_04.382,3.869,33.7,0,0.762,0,0,0,0, ,0,0,0,0,0, ,-38.4,333.1,942.1,-0.3,-0.6,-1.7,25,-38.4581,332.224,943.445,-0.324097,-0.578665,-1.64977,
2026_07_06_19_53_04.406,3.869,34,0,0.762,0,0,0,0, ,0,0,0,0,0, ,-38,332.7,943.1,-0.2,-0.6,-1.7,25,-38.4423,332.265,943.394,-0.319582,-0.579965,-1.65283,
2026_07_06_19_53_04.421,3.869,34,0,0.763,0,0,0,0, ,0,0,0,0,0, ,-38.3,333,943.3,-0.1,-0.6,-1.8,25,-38.4245,332.301,943.382,-0.309248,-0.581186,-1.65875,
2026_07_06_19_53_04.441,3.869,33.8,0,0.763,0,0,0,0, ,0,0,0,0,0, ,-38.8,331.5,942.8,-0.3,-0.5,-1.7,25,-38.4322,332.298,943.362,-0.30259,-0.579286,-1.66431,
2026_07_06_19_53_04.461,3.869,33.8,0,0.763,0,0,0,0, ,0,0,0,0,0, ,-39.4,331.6,945.1,-0.3,-0.5,-1.7,25,-38.4729,332.252,943.397,-0.302433,-0.574454,-1.66649,
2026_07_06_19_53_04.481,3.869,34,0,0.762,0,0,0,0, ,0,0,0,0,0, ,-38.5,332.1,943.4,-0.4,-0.6,-1.7,25,-38.5019,332.228,943.449,-0.305331,-0.572964,-1.66853,
2026_07_06_19_53_04.500,3.869,33.8,0,0.762,0,0,0,0, ,0,0,0,0,0, ,-38.3,333.3,944.2,-0.4,-0.6,-1.6,25,-38.4957,332.256,943.471,-0.3111,-0.574612,-1.6674,
2026_07_06_19_53_04.520,3.869,33.7,0,0.762,0,0,0,0, ,0,0,0,0,0, ,-39.5,331.5,943.3,-0.4,-0.6,-1.7,25,-38.5204,332.265,943.488,-0.316517,-0.576159,-1.66634,
2026_07_06_19_53_04.541,3.869,34,0,0.762,0,0,0,0, ,0,0,0,0,0, ,-38.5,332,943.3,-0.3,-0.6,-1.7,25,-38.5496,332.234,943.476,-0.318558,-0.577612,-1.66839,
2026_07_06_19_53_04.560,3.869,33.8,0,0.763,0,0,0,0, ,0,0,0,0,0, ,-37.9,330.8,941.8,-0.4,-0.6,-1.7,25,-38.5283,332.183,943.42,-0.320474,-0.578976,-1.67032,
2026_07_06_19_53_04.580,3.869,33.7,0,0.763,0,0,0,0, ,0,0,0,0,0, ,-37.8,332.8,944,-0.3,-0.6,-1.7,25,-38.487,332.16,943.388,-0.322273,-0.580257,-1.67213,
2026_07_06_19_53_04.599,3.869,33.7,0,0.762,0,0,0,0, ,0,0,0,0,0, ,-38.4,334.3,944.2,-0.3,-0.6,-1.7,25,-38.4634,332.244,943.432,-0.320916,-0.58146,-1.67383,
2026_07_06_19_53_04.624,3.869,33.7,0,0.762,0,0,0,0, ,0,0,0,0,0, ,-38.3,333.6,942.2,-0.3,-0.6,-1.6,25,-38.4565,332.348,943.417,-0.319641,-0.58259,-1.67237,
2026_07_06_19_53_04.642,3.869,33.7,0,0.762,0,0,0,0, ,0,0,0,0,0, ,-37.8,332.1,942.9,-0.4,-0.5,-1.7,25,-38.4317,332.379,943.365,-0.321491,-0.580604,-1.67101,
2026_07_06_19_53_04.658,3.869,34,0,0.762,0,0,0,0, ,0,0,0,0,0, ,-38.4,332.6,943.9,-0.5,-0.6,-1.6,25,-38.4115,332.377,943.367,-0.329322,-0.578739,-1.66973,
2026_07_06_19_53_04.678,3.869,34,0,0.76,0,0,0,0, ,0,0,0,0,0, ,-39.3,332.2,943.8,-0.4,-0.6,-1.7,25,-38.4382,332.378,943.396,-0.336676,-0.580035,-1.66853,
2026_07_06_19_53_04.699,3.869,33.8,0,0.762,0,0,0,0, ,0,0,0,0,0, ,-38.4,331.4,943.2,-0.3,-0.5,-1.7,25,-38.4633,332.343,943.403,-0.337488,-0.578204,-1.67045,
2026_07_06_19_53_04.718,3.869,33.8,0,0.762,0,0,0,0, ,0,0,0,0,0, ,-38.9,333,943.9,-0.3,-0.6,-1.7,25,-38.4747,332.334,943.412,-0.335204,-0.576486,-1.67225,
2026_07_06_19_53_04.738,3.869,34,0,0.765,0,0,0,0, ,0,0,0,0,0, ,-38.3,332.8,944.4,-0.2,-0.6,-1.7,25,-38.4823,332.369,943.457,-0.330011,-0.577919,-1.67394,
2026_07_06_19_53_04.758,3.869,33.7,0,0.762,0,0,0,0, ,0,0,0,0,0, ,-39.1,332.2,944.2,-0.3,-0.6,-1.7,25,-38.4956,332.377,943.508,-0.325136,-0.579264,-1.67553,
2026_07_06_19_53_04.777,3.869,34,0,0.762,0,0,0,0, ,0,0,0,0,0, ,-39,333.8,943.8,-0.2,-0.5,-1.6,25,-38.5294,332.415,943.538,-0.320557,-0.577481,-1.67397,
2026_07_06_19_53_04.797,3.869,33.8,0,0.763,0,0,0,0, ,0,0,0,0,0, ,-38.2,331.5,942.9,-0.2,-0.5,-1.6,25,-38.5337,332.429,943.526,-0.313211,-0.572759,-1.66946,
2026_07_06_19_53_04.817,3.869,33.8,0,0.763,0,0,0,0, ,0,0,0,0,0, ,-38.3,333,942.6,-0.1,-0.6,-1.7,25,-38.5164,332.418,943.479,-0.303265,-0.571372,-1.66828,
2026_07_06_19_53_04.837,3.869,33.7,0,0.76,0,0,0,0, ,0,0,0,0,0, ,-38.4,332.5,942.2,-0.2,-0.6,-1.7,25,-38.5062,332.439,943.413,-0.293925,-0.573117,-1.67021,
2026_07_06_19_53_04.857,3.869,33.8,0,0.763,0,0,0,0, ,0,0,0,0,0, ,-38,331.4,942.8,-0.3,-0.6,-1.7,25,-38.4876,332.409,943.358,-0.291249,-0.574755,-1.67203,
2026_07_06_19_53_04.883,3.869,33.8,0,0.763,0,0,0,0, ,0,0,0,0,0, ,-38.5,332.2,943.7,-0.2,-0.5,-1.6,25,-38.4731,332.372,943.351,-0.288735,-0.573247,-1.67068,
2026_07_06_19_53_04.896,3.869,33.8,0,0.762,0,0,0,0, ,0,0,0,0,0, ,-37.7,329.9,944.4,-0.3,-0.6,-1.8,25,-38.4504,332.291,943.394,-0.286375,-0.57183,-1.67247,
2026_07_06_19_53_04.920,3.869,33.8,0,0.762,0,0,0,0, ,0,0,0,0,0, ,-39.5,332.7,943.1,-0.4,-0.6,-1.7,25,-38.4595,332.231,943.415,-0.290252,-0.573547,-1.67719,
2026_07_06_19_53_04.936,3.869,33.7,0,0.762,0,0,0,0, ,0,0,0,0,0, ,-39,333,942.8,-0.4,-0.6,-1.7,25,-38.5077,332.268,943.387,-0.29694,-0.575159,-1.67858,
2026_07_06_19_53_04.955,3.869,33.7,0,0.763,0,0,0,0, ,0,0,0,0,0, ,-38.9,332.7,942.6,-0.3,-0.6,-1.7,25,-38.5346,332.304,943.345,-0.300173,-0.576672,-1.67989,
2026_07_06_19_53_04.976,3.869,33.8,0,0.765,0,0,0,0, ,0,0,0,0,0, ,-37.2,332.3,942.8,-0.3,-0.6,-1.7,25,-38.5051,332.316,943.306,-0.300162,-0.578094,-1.68111,
2026_07_06_19_53_04.995,3.869,33.8,0,0.763,0,0,0,0, ,0,0,0,0,0, ,-38.3,332.2,942.7,-0.3,-0.6,-1.7,25,-38.4591,332.312,943.272,-0.300153,-0.579429,-1.68227,
2026_07_06_19_53_05.015,3.869,34,0,0.763,0,0,0,0, ,0,0,0,0,0, ,-37.7,332.2,943.7,-0.3,-0.5,-1.7,25,-38.4311,332.305,943.268,-0.300143,-0.577636,-1.68335,
2026_07_06_19_53_05.036,3.869,33.8,0,0.763,0,0,0,0, ,0,0,0,0,0, ,-39,331.7,942.3,-0.3,-0.6,-1.7,25,-38.4262,332.283,943.251,-0.300135,-0.575951,-1.68436,
2026_07_06_19_53_05.055,3.869,33.7,0,0.763,0,0,0,0, ,0,0,0,0,0, ,-38.5,332.3,942.3,-0.2,-0.6,-1.6,25,-38.4459,332.266,943.193,-0.297079,-0.577417,-1.68227,
2026_07_06_19_53_05.074,3.869,34,0,0.76,0,0,0,0, ,0,0,0,0,0, ,-38.5,332.3,943.8,-0.2,-0.6,-1.7,25,-38.4492,332.268,943.185,-0.291164,-0.578793,-1.6803,
2026_07_06_19_53_05.094,3.869,34,0,0.764,0,0,0,0, ,0,0,0,0,0, ,-39.7,332,942.5,-0.2,-0.5,-1.6,25,-38.4888,332.261,943.183,-0.285608,-0.577039,-1.67845,
2026_07_06_19_53_05.114,3.869,34,0,0.762,0,0,0,0, ,0,0,0,0,0, ,-38.4,331.4,942.1,-0.2,-0.5,-1.6,25,-38.523,332.227,943.129,-0.280392,-0.572344,-1.67367,
2026_07_06_19_53_05.135,3.869,34,0,0.763,0,0,0,0, ,0,0,0,0,0, ,-38.6,331.6,942.8,-0.3,-0.6,-1.7,25,-38.5216,332.183,943.087,-0.27854,-0.570982,-1.67223,
2026_07_06_19_53_05.155,3.869,33.8,0,0.763,0,0,0,0, ,0,0,0,0,0, ,-39.1,332.6,943.6,-0.4,-0.6,-1.6,25,-38.5416,332.177,943.094,-0.282894,-0.572751,-1.67088,
2026_07_06_19_53_05.173,3.869,33.8,0,0.763,0,0,0,0, ,0,0,0,0,0, ,-39.1,332.8,943.3,-0.3,-0.6,-1.7,25,-38.5757,332.209,943.116,-0.286984,-0.574411,-1.6696,
2026_07_06_19_53_05.193,3.869,33.7,0,0.763,0,0,0,0, ,0,0,0,0,0, ,-39.1,332.2,942.3,-0.4,-0.6,-1.6,25,-38.6076,332.227,943.097,-0.290824,-0.57597,-1.66841,
2026_07_06_19_53_05.212,3.869,33.8,0,0.763,0,0,0,0, ,0,0,0,0,0, ,-38,331.7,944.2,-0.4,-0.6,-1.7,25,-38.6041,332.21,943.106,-0.297477,-0.577435,-1.66729,
2026_07_06_19_53_05.233,3.869,34,0,0.764,0,0,0,0, ,0,0,0,0,0, ,-38.5,333,944.8,-0.4,-0.6,-1.7,25,-38.5825,332.219,943.191,-0.303724,-0.57881,-1.66928,
2026_07_06_19_53_05.253,3.869,34,0,0.764,0,0,0,0, ,0,0,0,0,0, ,-39.6,331.7,942.5,-0.3,-0.6,-1.6,25,-38.611,332.227,943.219,-0.306544,-0.580101,-1.66811,
2026_07_06_19_53_05.272,3.869,33.8,0,0.762,0,0,0,0, ,0,0,0,0,0, ,-38,332.3,943.8,-0.3,-0.5,-1.7,25,-38.6225,332.213,943.215,-0.306145,-0.578267,-1.667,
2026_07_06_19_53_05.292,3.869,34,0,0.762,0,0,0,0, ,0,0,0,0,0, ,-37.5,332.8,942.1,-0.3,-0.6,-1.7,25,-38.5694,332.233,943.199,-0.305771,-0.576544,-1.66901,
2026_07_06_19_53_05.316,3.869,34,0,0.763,0,0,0,0, ,0,0,0,0,0, ,-39.4,330.4,943.1,-0.4,-0.5,-1.7,25,-38.5621,332.195,943.162,-0.308466,-0.574927,-1.6709,
2026_07_06_19_53_05.343,3.869,34,0,0.764,0,0,0,0, ,0,0,0,0,0, ,-38.5,332.3,944.2,-0.5,-0.6,-1.6,25,-38.5857,332.143,943.192,-0.317091,-0.573408,-1.66963,
2026_07_06_19_53_05.368,3.869,33.7,0,0.763,0,0,0,0, ,0,0,0,0,0, ,-39.1,332.5,944.4,-0.4,-0.6,-1.7,25,-38.5988,332.159,943.259,-0.32519,-0.575028,-1.66843,
2026_07_06_19_53_05.374,3.869,34,0,0.763,0,0,0,0, ,0,0,0,0,0, ,-38.3,331.5,942.9,-0.5,-0.5,-1.7,25,-38.605,332.149,943.283,-0.332795,-0.573503,-1.67036,
2026_07_06_19_53_05.394,3.869,34,0,0.763,0,0,0,0, ,0,0,0,0,0, ,-38.8,332.6,944.2,-0.5,-0.6,-1.7,25,-38.6016,332.143,943.299,-0.342985,-0.572071,-1.67216,
2026_07_06_19_53_05.411,3.869,34,0,0.763,0,0,0,0, ,0,0,0,0,0, ,-38.2,332.3,943.3,-0.3,-0.6,-1.6,25,-38.5954,332.162,943.327,-0.346459,-0.573773,-1.67081,
2026_07_06_19_53_05.433,3.869,34,0,0.763,0,0,0,0, ,0,0,0,0,0, ,-38.2,332.2,944.3,-0.3,-0.6,-1.6,25,-38.5713,332.167,943.356,-0.343628,-0.575371,-1.6665,
2026_07_06_19_53_05.457,3.869,33.7,0,0.763,0,0,0,0, ,0,0,0,0,0, ,-39.5,333.6,941.8,-0.3,-0.6,-1.7,25,-38.5883,332.212,943.337,-0.340969,-0.576872,-1.66549,
2026_07_06_19_53_05.477,3.869,33.8,0,0.761,0,0,0,0, ,0,0,0,0,0, ,-39,332.8,944,-0.3,-0.6,-1.6,25,-38.6286,332.272,943.31,-0.338473,-0.578281,-1.66455,
2026_07_06_19_53_05.490,3.869,34,0,0.76,0,0,0,0, ,0,0,0,0,0, ,-38.9,333.2,943.6,-0.2,-0.6,-1.6,25,-38.6482,332.317,943.34,-0.333081,-0.579605,-1.66061,
2026_07_06_19_53_05.513,3.869,34,0,0.763,0,0,0,0, ,0,0,0,0,0, ,-38,330.4,943.3,-0.2,-0.6,-1.7,25,-38.6361,332.285,943.347,-0.324972,-0.580848,-1.65997,
2026_07_06_19_53_05.529,3.869,33.8,0,0.764,0,0,0,0, ,0,0,0,0,0, ,-38.9,331.5,943.7,-0.3,-0.6,-1.6,25,-38.6248,332.204,943.356,-0.320403,-0.582015,-1.65936,
2026_07_06_19_53_05.552,3.869,34,0,0.763,0,0,0,0, ,0,0,0,0,0, ,-37.8,333.3,943.2,-0.4,-0.6,-1.7,25,-38.608,332.216,943.362,-0.322207,-0.583111,-1.65879,
2026_07_06_19_53_05.569,3.869,33.7,0,0.764,0,0,0,0, ,0,0,0,0,0, ,-38,332.7,942.8,-0.3,-0.6,-1.7,25,-38.5649,332.263,943.34,-0.3239,-0.58414,-1.6613,
2026_07_06_19_53_05.590,3.869,33.8,0,0.762,0,0,0,0, ,0,0,0,0,0, ,-37.8,332.6,942,-0.3,-0.6,-1.7,25,-38.5244,332.287,943.283,-0.322444,-0.585106,-1.66366,
2026_07_06_19_53_05.608,3.869,33.7,0,0.763,0,0,0,0, ,0,0,0,0,0, ,-39.1,332.2,943.4,-0.5,-0.6,-1.7,25,-38.5198,332.294,943.247,-0.32717,-0.586014,-1.66587,
2026_07_06_19_53_05.630,3.869,33.8,0,0.762,0,0,0,0, ,0,0,0,0,0, ,-38.3,332.2,943.2,-0.4,-0.6,-1.7,25,-38.5308,332.288,943.25,-0.334655,-0.586866,-1.66795,
2026_07_06_19_53_05.649,3.869,34,0,0.762,0,0,0,0, ,0,0,0,0,0, ,-38.2,332.3,943.1,-0.4,-0.6,-1.6,25,-38.5137,332.286,943.244,-0.338637,-0.587667,-1.66686,
2026_07_06_19_53_05.669,3.869,34,0,0.763,0,0,0,0, ,0,0,0,0,0, ,-37.7,332.5,943.9,-0.4,-0.6,-1.7,25,-38.4794,332.293,943.26,-0.342376,-0.588418,-1.66583,
2026_07_06_19_53_05.687,3.869,33.8,0,0.762,0,0,0,0, ,0,0,0,0,0, ,-38.3,331.9,943.3,-0.4,-0.5,-1.6,25,-38.4501,332.287,943.281,-0.345888,-0.586077,-1.66487,
2026_07_06_19_53_05.709,3.869,34,0,0.763,0,0,0,0, ,0,0,0,0,0, ,-38.3,331.9,943.2,-0.3,-0.6,-1.7,25,-38.441,332.264,943.279,-0.346138,-0.583879,-1.66396,
2026_07_06_19_53_05.728,3.869,33.8,0,0.763,0,0,0,0, ,0,0,0,0,0, ,-38.2,332.8,942.6,-0.2,-0.5,-1.7,25,-38.4294,332.269,943.256,-0.34028,-0.581814,-1.66616,
2026_07_06_19_53_05.756,3.869,34,0,0.762,0,0,0,0, ,0,0,0,0,0, ,-37.9,331.4,944,-0.2,-0.6,-1.8,25,-38.4062,332.259,943.258,-0.331732,-0.579875,-1.67127,
2026_07_06_19_53_05.767,3.869,34,0,0.762,0,0,0,0, ,0,0,0,0,0, ,-38.5,331.9,942.1,-0.2,-0.6,-1.6,25,-38.3937,332.221,943.246,-0.323704,-0.581102,-1.67302,
2026_07_06_19_53_05.788,3.869,33.8,0,0.762,0,0,0,0, ,0,0,0,0,0, ,-39,332.7,942.7,-0.2,-0.6,-1.6,25,-38.4154,332.226,943.194,-0.316166,-0.582253,-1.66857,
2026_07_06_19_53_05.806,3.869,34,0,0.764,0,0,0,0, ,0,0,0,0,0, ,-37.9,332.6,942.5,-0.2,-0.6,-1.8,25,-38.4175,332.252,943.158,-0.309087,-0.583335,-1.67048,
2026_07_06_19_53_05.828,3.869,33.8,0,0.763,0,0,0,0, ,0,0,0,0,0, ,-38.6,331.4,942.3,-0.2,-0.5,-1.7,25,-38.4073,332.237,943.112,-0.30244,-0.581303,-1.67533,
2026_07_06_19_53_05.847,3.869,34,0,0.762,0,0,0,0, ,0,0,0,0,0, ,-38.3,330.5,943.9,-0.3,-0.6,-1.7,25,-38.4099,332.158,943.111,-0.299244,-0.579396,-1.67683,
2026_07_06_19_53_05.868,3.869,33.8,0,0.763,0,0,0,0, ,0,0,0,0,0, ,-38.3,331.6,942.8,-0.4,-0.6,-1.7,25,-38.4032,332.091,943.126,-0.302337,-0.580651,-1.67824,
2026_07_06_19_53_05.886,3.869,34,0,0.762,0,0,0,0, ,0,0,0,0,0, ,-38.4,333.1,942.7,-0.4,-0.6,-1.6,25,-38.4,332.107,943.103,-0.308288,-0.581831,-1.67652,
2026_07_06_19_53_05.907,3.869,33.8,0,0.762,0,0,0,0, ,0,0,0,0,0, ,-38.9,333.3,943.8,-0.5,-0.7,-1.7,25,-38.4152,332.173,943.112,-0.316924,-0.585985,-1.67491,
2026_07_06_19_53_05.925,3.869,34,0,0.762,0,0,0,0, ,0,0,0,0,0, ,-38.6,333.3,943.1,-0.3,-0.5,-1.6,25,-38.4356,332.242,943.132,-0.321986,-0.586839,-1.67339,
2026_07_06_19_53_05.948,3.869,33.7,0,0.762,0,0,0,0, ,0,0,0,0,0, ,-38.3,332.6,943.9,-0.4,-0.5,-1.7,25,-38.4365,332.285,943.155,-0.323693,-0.581547,-1.67196,
2026_07_06_19_53_05.965,3.869,33.8,0,0.762,0,0,0,0, ,0,0,0,0,0, ,-38.8,331.5,943.9,-0.3,-0.6,-1.7,25,-38.4434,332.271,943.2,-0.325296,-0.579625,-1.67367,
2026_07_06_19_53_05.985,3.869,34,0,0.762,0,0,0,0, ,0,0,0,0,0, ,-37.8,331.5,943.9,-0.3,-0.5,-1.7,25,-38.4347,332.224,943.243,-0.323755,-0.577819,-1.67528,
2026_07_06_19_53_06.009,3.869,33.8,0,0.763,0,0,0,0, ,0,0,0,0,0, ,-37.8,332.7,942,-0.4,-0.6,-1.6,25,-38.396,332.216,943.225,-0.325354,-0.576124,-1.67374,
2026_07_06_19_53_06.030,3.869,33.7,0,0.762,0,0,0,0, ,0,0,0,0,0, ,-38.4,331.6,943.2,-0.4,-0.5,-1.6,25,-38.3779,332.212,943.187,-0.329903,-0.574532,-1.66924,
2026_07_06_19_53_06.044,3.869,33.8,0,0.762,0,0,0,0, ,0,0,0,0,0, ,-38.3,332.2,942,-0.4,-0.7,-1.7,25,-38.3762,332.193,943.151,-0.334175,-0.576084,-1.66807,
2026_07_06_19_53_06.066,3.869,34,0,0.762,0,0,0,0, ,0,0,0,0,0, ,-38.2,332.1,943.4,-0.4,-0.6,-1.7,25,-38.3685,332.19,943.124,-0.338186,-0.580588,-1.67002,
2026_07_06_19_53_06.083,3.869,34,0,0.762,0,0,0,0, ,0,0,0,0,0, ,-38.8,333.1,943.4,-0.5,-0.6,-1.7,25,-38.3766,332.215,943.14,-0.344999,-0.581771,-1.67184,
2026_07_06_19_53_06.105,3.869,34,0,0.763,0,0,0,0, ,0,0,0,0,0, ,-39.4,332.1,945.1,-0.4,-0.6,-1.7,25,-38.4206,332.239,943.208,-0.351398,-0.582882,-1.67356,
2026_07_06_19_53_06.123,3.869,34,0,0.762,0,0,0,0, ,0,0,0,0,0, ,-38.8,332.8,943.4,-0.4,-0.6,-1.6,25,-38.462,332.252,943.272,-0.35436,-0.583925,-1.67212,
2026_07_06_19_53_06.144,3.869,34,0,0.762,0,0,0,0, ,0,0,0,0,0, ,-39.1,333.4,944,-0.5,-0.6,-1.6,25,-38.4918,332.303,943.298,-0.360188,-0.584905,-1.66773,
2026_07_06_19_53_06.162,3.869,34,0,0.762,0,0,0,0, ,0,0,0,0,0, ,-37.5,333.8,942,-0.3,-0.6,-1.7,25,-38.4801,332.382,943.28,-0.362614,-0.585825,-1.66665,
2026_07_06_19_53_06.184,3.869,34,0,0.763,0,0,0,0, ,0,0,0,0,0, ,-38.5,332.5,943.1,-0.2,-0.6,-1.7,25,-38.4508,332.429,943.235,-0.355751,-0.586688,-1.66868,
2026_07_06_19_53_06.202,3.869,33.7,0,0.762,0,0,0,0, ,0,0,0,0,0, ,-37.8,333,941.6,-0.1,-0.6,-1.7,25,-38.4325,332.449,943.181,-0.343213,-0.5875,-1.67059,
2026_07_06_19_53_06.223,3.869,34,0,0.763,0,0,0,0, ,0,0,0,0,0, ,-39.7,331.5,943.1,-0.3,-0.5,-1.7,25,-38.4518,332.437,943.13,-0.334486,-0.585214,-1.67238,
2026_07_06_19_53_06.242,3.869,34,0,0.762,0,0,0,0, ,0,0,0,0,0, ,-39.1,331.2,942.1,-0.2,-0.5,-1.7,25,-38.5096,332.37,943.098,-0.329338,-0.580022,-1.67406,
2026_07_06_19_53_06.263,3.869,34,0,0.763,0,0,0,0, ,0,0,0,0,0, ,-38.9,332.2,943.9,-0.2,-0.6,-1.7,25,-38.5395,332.33,943.092,-0.321456,-0.578192,-1.67564,
2026_07_06_19_53_06.286,3.869,33.8,0,0.764,0,0,0,0, ,0,0,0,0,0, ,-39,331.7,941.7,-0.3,-0.6,-1.7,25,-38.5645,332.306,943.074,-0.317102,-0.579521,-1.67713,
2026_07_06_19_53_06.307,3.869,33.8,0,0.763,0,0,0,0, ,0,0,0,0,0, ,-38.6,331.5,943.8,-0.3,-0.5,-1.7,25,-38.5789,332.263,943.055,-0.31606,-0.577722,-1.67852,
2026_07_06_19_53_06.321,3.869,33.8,0,0.763,0,0,0,0, ,0,0,0,0,0, ,-37.2,332,942.9,-0.4,-0.6,-1.7,25,-38.5375,332.232,943.073,-0.318128,-0.576033,-1.67983,
2026_07_06_19_53_06.342,3.869,33.8,0,0.762,0,0,0,0, ,0,0,0,0,0, ,-37.9,332.7,943.2,-0.4,-0.6,-1.7,25,-38.4773,332.239,943.071,-0.323117,-0.577493,-1.68106,
2026_07_06_19_53_06.361,3.869,33.8,0,0.762,0,0,0,0, ,0,0,0,0,0, ,-37.9,332.2,942.7,-0.5,-0.6,-1.7,25,-38.4421,332.252,943.064,-0.330849,-0.578865,-1.68221,
2026_07_06_19_53_06.383,3.869,34,0,0.763,0,0,0,0, ,0,0,0,0,0, ,-38.6,332.6,944.7,-0.4,-0.5,-1.7,25,-38.4304,332.261,943.103,-0.33811,-0.577106,-1.6833,
2026_07_06_19_53_06.402,3.869,33.8,0,0.762,0,0,0,0, ,0,0,0,0,0, ,-38.2,332.2,943.8,-0.4,-0.5,-1.7,25,-38.4286,332.27,943.173,-0.341881,-0.572407,-1.68432,
2026_07_06_19_53_06.424,3.869,33.8,0,0.763,0,0,0,0, ,0,0,0,0,0, ,-38.4,334.4,942.8,-0.4,-0.6,-1.7,25,-38.4207,332.332,943.18,-0.345423,-0.571042,-1.68527,
2026_07_06_19_53_06.440,3.869,33.8,0,0.763,0,0,0,0, ,0,0,0,0,0, ,-38.6,333.1,944,-0.4,-0.6,-1.6,25,-38.4256,332.419,943.194,-0.348749,-0.572806,-1.68312,
2026_07_06_19_53_06.463,3.869,33.8,0,0.763,0,0,0,0, ,0,0,0,0,0, ,-39.9,332.2,941.8,-0.2,-0.6,-1.7,25,-38.4758,332.433,943.176,-0.345778,-0.574464,-1.6811,
2026_07_06_19_53_06.479,3.869,33.8,0,0.762,0,0,0,0, ,0,0,0,0,0, ,-39.4,333.9,943.1,-0.2,-0.5,-1.7,25,-38.5474,332.47,943.132,-0.336895,-0.572973,-1.68226,
2026_07_06_19_53_06.501,3.869,33.7,0,0.762,0,0,0,0, ,0,0,0,0,0, ,-39.9,331.5,942.8,-0.2,-0.6,-1.7,25,-38.6146,332.484,943.12,-0.328553,-0.571573,-1.68334,
2026_07_06_19_53_06.519,3.869,34,0,0.763,0,0,0,0, ,0,0,0,0,0, ,-38.4,332.6,943.2,-0.2,-0.5,-1.6,25,-38.6472,332.458,943.113,-0.320719,-0.570258,-1.68131,
2026_07_06_19_53_06.542,3.869,34,0,0.764,0,0,0,0, ,0,0,0,0,0, ,-39.4,332,943.9,-0.2,-0.6,-1.7,25,-38.6626,332.448,943.14,-0.313363,-0.569024,-1.6794,
2026_07_06_19_53_06.558,3.869,33.8,0,0.763,0,0,0,0, ,0,0,0,0,0, ,-38.5,330.8,943.6,-0.3,-0.6,-1.6,25,-38.6801,332.384,943.177,-0.309502,-0.570911,-1.67761,
2026_07_06_19_53_06.581,3.869,33.7,0,0.763,0,0,0,0, ,0,0,0,0,0, ,-37.8,331.5,942.3,-0.4,-0.6,-1.7,25,-38.6478,332.309,943.163,-0.311969,-0.572684,-1.67592,
2026_07_06_19_53_06.599,3.869,33.7,0,0.763,0,0,0,0, ,0,0,0,0,0, ,-37.3,334.3,943.7,-0.2,-0.5,-1.7,25,-38.5809,332.345,943.153,-0.31124,-0.571302,-1.67739,
2026_07_06_19_53_06.623,3.869,34,0,0.763,0,0,0,0, ,0,0,0,0,0, ,-38.4,330.4,942.3,-0.3,-0.6,-1.6,25,-38.5364,332.346,943.144,-0.307508,-0.570004,-1.67572,
2026_07_06_19_53_06.638,3.869,33.7,0,0.765,0,0,0,0, ,0,0,0,0,0, ,-37.7,333.1,942.6,-0.3,-0.6,-1.6,25,-38.5067,332.309,943.102,-0.307051,-0.571832,-1.67111,
2026_07_06_19_53_06.660,3.869,34,0,0.764,0,0,0,0, ,0,0,0,0,0, ,-38.6,331.9,943.2,-0.2,-0.5,-1.6,25,-38.485,332.321,943.089,-0.303574,-0.570501,-1.66677,
2026_07_06_19_53_06.678,3.869,33.8,0,0.764,0,0,0,0, ,0,0,0,0,0, ,-39,331.2,942.5,-0.2,-0.6,-1.7,25,-38.5042,332.274,943.075,-0.297263,-0.569252,-1.66575,
2026_07_06_19_53_06.702,3.869,33.8,0,0.763,0,0,0,0, ,0,0,0,0,0, ,-38.2,330.9,942.5,-0.2,-0.6,-1.6,25,-38.51,332.199,943.04,-0.291336,-0.571126,-1.66479,
2026_07_06_19_53_06.717,3.869,33.8,0,0.761,0,0,0,0, ,0,0,0,0,0, ,-39.5,331.2,942.7,-0.1,-0.5,-1.7,25,-38.5307,332.129,943.013,-0.282723,-0.569838,-1.66389,
2026_07_06_19_53_06.740,3.869,33.8,0,0.761,0,0,0,0, ,0,0,0,0,0, ,-38.4,330.5,942.1,-0.3,-0.6,-1.6,25,-38.5563,332.051,942.976,-0.277682,-0.568629,-1.66304,
2026_07_06_19_53_06.758,3.869,33.7,0,0.763,0,0,0,0, ,0,0,0,0,0, ,-38.5,331,942.7,-0.4,-0.6,-1.7,25,-38.5498,331.972,942.94,-0.282089,-0.570541,-1.66225,
2026_07_06_19_53_06.783,3.869,33.8,0,0.763,0,0,0,0, ,0,0,0,0,0, ,-39.1,331.2,942.7,-0.4,-0.6,-1.7,25,-38.5651,331.919,942.926,-0.289274,-0.572336,-1.66455,
2026_07_06_19_53_06.796,3.869,33.7,0,0.763,0,0,0,0, ,0,0,0,0,0, ,-38.9,331.5,942.3,-0.4,-0.6,-1.7,25,-38.5916,331.884,942.9,-0.296022,-0.574022,-1.66671,
2026_07_06_19_53_06.819,3.869,33.8,0,0.763,0,0,0,0, ,0,0,0,0,0, ,-38.4,330.5,942.7,-0.4,-0.6,-1.7,25,-38.5951,331.83,942.876,-0.302358,-0.575605,-1.66874,
2026_07_06_19_53_06.835,3.869,33.8,0,0.762,0,0,0,0, ,0,0,0,0,0, ,-38.3,332.2,944.4,-0.5,-0.6,-1.6,25,-38.5802,331.801,942.917,-0.311355,-0.577092,-1.6676,
2026_07_06_19_53_06.858,3.869,33.8,0,0.761,0,0,0,0, ,0,0,0,0,0, ,-36.9,332.8,942.5,-0.5,-0.5,-1.7,25,-38.5205,331.844,942.949,-0.32285,-0.575441,-1.66652,
2026_07_06_19_53_06.876,3.869,33.8,0,0.763,0,0,0,0, ,0,0,0,0,0, ,-38,333.2,944.8,-0.4,-0.6,-1.7,25,-38.4552,331.914,942.992,-0.330598,-0.57389,-1.66856,
2026_07_06_19_53_06.900,3.869,33.7,0,0.762,0,0,0,0, ,0,0,0,0,0, ,-39.4,334.1,942.6,-0.4,-0.6,-1.7,25,-38.4701,332.02,943.035,-0.334828,-0.575481,-1.67048,
2026_07_06_19_53_06.918,3.869,33.7,0,0.763,0,0,0,0, ,0,0,0,0,0, ,-37.9,333,943.8,-0.4,-0.6,-1.7,25,-38.4811,332.113,943.045,-0.338799,-0.576976,-1.67228,
2026_07_06_19_53_06.941,3.869,33.8,0,0.762,0,0,0,0, ,0,0,0,0,0, ,-38.3,333.3,942.1,-0.3,-0.6,-1.7,25,-38.4579,332.176,943.039,-0.339482,-0.578379,-1.67397,
2026_07_06_19_53_06.954,3.869,33.7,0,0.761,0,0,0,0, ,0,0,0,0,0, ,-39,333.2,944,-0.2,-0.5,-1.6,25,-38.4696,332.242,943.04,-0.334029,-0.576649,-1.67251,
2026_07_06_19_53_06.977,3.869,33.8,0,0.761,0,0,0,0, ,0,0,0,0,0, ,-37.8,331.7,942.6,-0.2,-0.6,-1.6,25,-38.4653,332.254,943.056,-0.325861,-0.575025,-1.66809,
2026_07_06_19_53_06.994,3.869,33.7,0,0.762,0,0,0,0, ,0,0,0,0,0, ,-37.5,331.5,942.8,-0.2,-0.6,-1.6,25,-38.4157,332.215,943.034,-0.318192,-0.576547,-1.66394,
2026_07_06_19_53_07.018,3.869,34,0,0.763,0,0,0,0, ,0,0,0,0,0, ,-38.4,331.7,943.1,-0.2,-0.6,-1.8,25,-38.3873,332.177,943.029,-0.310989,-0.577976,-1.66614,
2026_07_06_19_53_07.034,3.869,33.7,0,0.762,0,0,0,0, ,0,0,0,0,0, ,-38.5,331.4,942.8,-0.2,-0.5,-1.6,25,-38.3911,332.139,943.024,-0.304226,-0.576272,-1.6682,
2026_07_06_19_53_07.057,3.869,33.8,0,0.764,0,0,0,0, ,0,0,0,0,0, ,-39.3,332,942,-0.3,-0.6,-1.6,25,-38.4221,332.112,942.986,-0.300922,-0.574671,-1.66405,
2026_07_06_19_53_07.073,3.869,33.8,0,0.763,0,0,0,0, ,0,0,0,0,0, ,-39,332.3,942.7,-0.3,-0.6,-1.7,25,-38.4665,332.114,942.947,-0.300865,-0.576214,-1.66319,
2026_07_06_19_53_07.097,3.869,33.8,0,0.761,0,0,0,0, ,0,0,0,0,0, ,-38.5,332,943.6,-0.3,-0.6,-1.7,25,-38.4837,332.117,942.96,-0.300813,-0.577664,-1.66543,
2026_07_06_19_53_07.113,3.869,33.8,0,0.761,0,0,0,0, ,0,0,0,0,0, ,-37.2,331.5,942.6,-0.4,-0.6,-1.7,25,-38.4451,332.094,942.968,-0.30381,-0.579025,-1.66754,
2026_07_06_19_53_07.138,3.869,33.8,0,0.763,0,0,0,0, ,0,0,0,0,0, ,-39.1,331.4,943.2,-0.5,-0.6,-1.7,25,-38.4271,332.055,942.964,-0.312719,-0.580303,-1.66952,
2026_07_06_19_53_07.152,3.869,33.7,0,0.763,0,0,0,0, ,0,0,0,0,0, ,-38,332.2,941.8,-0.4,-0.5,-1.6,25,-38.4346,332.039,942.936,-0.321084,-0.578456,-1.66833,
2026_07_06_19_53_07.175,3.869,33.8,0,0.763,0,0,0,0, ,0,0,0,0,0, ,-38.4,331.7,942.7,-0.4,-0.5,-1.7,25,-38.4203,332.034,942.894,-0.325893,-0.573675,-1.66721,
2026_07_06_19_53_07.192,3.869,33.8,0,0.764,0,0,0,0, ,0,0,0,0,0, ,-37.9,332.6,943.2,-0.4,-0.6,-1.6,25,-38.4039,332.041,942.897,-0.330409,-0.572233,-1.66616,
2026_07_06_19_53_07.217,3.869,33.8,0,0.762,0,0,0,0, ,0,0,0,0,0, ,-38,332.1,942.9,-0.4,-0.6,-1.7,25,-38.3762,332.06,942.907,-0.33465,-0.573925,-1.66518,
2026_07_06_19_53_07.232,3.869,33.7,0,0.761,0,0,0,0, ,0,0,0,0,0, ,-38.9,333.9,943.7,-0.3,-0.6,-1.7,25,-38.3807,332.117,942.931,-0.335585,-0.575514,-1.6673,
2026_07_06_19_53_07.262,3.869,33.8,0,0.762,0,0,0,0, ,0,0,0,0,0, ,-39.1,333,942.3,-0.2,-0.6,-1.7,25,-38.4184,332.198,942.935,-0.33037,-0.577006,-1.66929,
2026_07_06_19_53_07.271,3.869,33.8,0,0.763,0,0,0,0, ,0,0,0,0,0, ,-39.3,333.3,941.7,-0.2,-0.6,-1.7,25,-38.4661,332.256,942.878,-0.322425,-0.578407,-1.67116,
2026_07_06_19_53_07.294,3.869,33.7,0,0.762,0,0,0,0, ,0,0,0,0,0, ,-38,332.7,942.7,-0.2,-0.6,-1.6,25,-38.4773,332.302,942.837,-0.314965,-0.579723,-1.66987,
2026_07_06_19_53_07.310,3.869,33.8,0,0.762,0,0,0,0, ,0,0,0,0,0, ,-38.4,332,943.1,-0.4,-0.6,-1.6,25,-38.4604,332.305,942.84,-0.314053,-0.580959,-1.66562,
2026_07_06_19_53_07.335,3.869,34,0,0.764,0,0,0,0, ,0,0,0,0,0, ,-38,331,943.6,-0.4,-0.5,-1.6,25,-38.4445,332.256,942.872,-0.31929,-0.579072,-1.66162,
2026_07_06_19_53_07.351,3.869,33.8,0,0.764,0,0,0,0, ,0,0,0,0,0, ,-38.4,332.2,942.9,-0.4,-0.5,-1.6,25,-38.4296,332.216,942.895,-0.324209,-0.574254,-1.65786,
2026_07_06_19_53_07.376,3.869,33.8,0,0.763,0,0,0,0, ,0,0,0,0,0, ,-39.3,332.2,944.4,-0.3,-0.6,-1.6,25,-38.4552,332.215,942.941,-0.32578,-0.572776,-1.65434,
2026_07_06_19_53_07.390,3.869,33.7,0,0.762,0,0,0,0, ,0,0,0,0,0, ,-39,332.7,942.8,-0.3,-0.5,-1.7,25,-38.4976,332.229,942.981,-0.324209,-0.571388,-1.65407,
2026_07_06_19_53_07.414,3.869,33.8,0,0.763,0,0,0,0, ,0,0,0,0,0, ,-39.3,333.2,942.7,-0.3,-0.6,-1.7,25,-38.5373,332.273,942.967,-0.322734,-0.570084,-1.65687,
2026_07_06_19_53_07.430,3.869,34,0,0.762,0,0,0,0, ,0,0,0,0,0, ,-38.6,332.6,942.3,-0.3,-0.5,-1.7,25,-38.5625,332.311,942.938,-0.321349,-0.56886,-1.6595,
2026_07_06_19_53_07.453,3.869,33.8,0,0.764,0,0,0,0, ,0,0,0,0,0, ,-37.8,333.4,942.8,-0.2,-0.5,-1.7,25,-38.5404,332.353,942.915,-0.317001,-0.564664,-1.66197,
2026_07_06_19_53_07.469,3.869,33.8,0,0.763,0,0,0,0, ,0,0,0,0,0, ,-39,331.7,943.3,-0.2,-0.6,-1.6,25,-38.5318,332.365,942.923,-0.309871,-0.563771,-1.66124,
2026_07_06_19_53_07.493,3.869,33.8,0,0.762,0,0,0,0, ,0,0,0,0,0, ,-38.6,332.3,944.2,-0.3,-0.5,-1.6,25,-38.5482,332.343,942.973,-0.306223,-0.562932,-1.65751,
2026_07_06_19_53_07.509,3.869,33.8,0,0.762,0,0,0,0, ,0,0,0,0,0, ,-38.9,332.5,942.3,-0.3,-0.5,-1.7,25,-38.5605,332.346,942.99,-0.305844,-0.559097,-1.65705,
2026_07_06_19_53_07.534,3.869,33.8,0,0.762,0,0,0,0, ,0,0,0,0,0, ,-37.9,331.6,943.8,-0.2,-0.6,-1.7,25,-38.5507,332.328,942.994,-0.302441,-0.558542,-1.65967,
2026_07_06_19_53_07.548,3.869,33.8,0,0.762,0,0,0,0, ,0,0,0,0,0, ,-37.9,330.9,942.9,-0.4,-0.6,-1.6,25,-38.511,332.263,943.016,-0.302292,-0.561069,-1.65908,
2026_07_06_19_53_07.576,3.869,33.7,0,0.763,0,0,0,0, ,0,0,0,0,0, ,-37.8,332.6,944.5,-0.4,-0.6,-1.7,25,-38.4708,332.231,943.057,-0.308246,-0.563441,-1.65852,
2026_07_06_19_53_07.596,3.869,33.8,0,0.763,0,0,0,0, ,0,0,0,0,0, ,-38.4,331.9,942.9,-0.4,-0.6,-1.7,25,-38.4482,332.233,943.096,-0.313837,-0.565669,-1.66105,
2026_07_06_19_53_07.621,3.869,33.8,0,0.762,0,0,0,0, ,0,0,0,0,0, ,-38.2,332,944.2,-0.3,-0.5,-1.7,25,-38.4391,332.215,943.124,-0.316041,-0.564714,-1.66342,
2026_07_06_19_53_07.628,3.869,33.8,0,0.762,0,0,0,0, ,0,0,0,0,0, ,-38.4,332.7,943.6,-0.4,-0.6,-1.7,25,-38.4307,332.224,943.171,-0.31811,-0.563817,-1.66565,
2026_07_06_19_53_07.654,3.869,33.8,0,0.763,0,0,0,0, ,0,0,0,0,0, ,-38.8,333.2,943.8,-0.5,-0.5,-1.7,25,-38.441,332.268,943.204,-0.326147,-0.562975,-1.66775,
2026_07_06_19_53_07.667,3.869,33.7,0,0.764,0,0,0,0, ,0,0,0,0,0, ,-39,332.8,943.7,-0.3,-0.6,-1.6,25,-38.4689,332.312,943.237,-0.330648,-0.562185,-1.66667,
2026_07_06_19_53_07.692,3.869,33.8,0,0.762,0,0,0,0, ,0,0,0,0,0, ,-38.3,332.5,944.2,-0.3,-0.6,-1.6,25,-38.48,332.333,943.28,-0.32878,-0.564489,-1.6626,
2026_07_06_19_53_07.707,3.869,34,0,0.762,0,0,0,0, ,0,0,0,0,0, ,-38.3,333.1,942.5,-0.3,-0.5,-1.7,25,-38.469,332.361,943.285,-0.327026,-0.563606,-1.66183,
2026_07_06_19_53_07.731,3.869,33.8,0,0.761,0,0,0,0, ,0,0,0,0,0, ,-37.9,333.7,943.3,-0.2,-0.5,-1.7,25,-38.4465,332.425,943.261,-0.322333,-0.55973,-1.66416,
2026_07_06_19_53_07.746,3.869,33.8,0,0.762,0,0,0,0, ,0,0,0,0,0, ,-37.5,331.2,944,-0.1,-0.5,-1.7,25,-38.401,332.426,943.285,-0.311831,-0.55609,-1.66634,
2026_07_06_19_53_07.774,3.869,33.8,0,0.762,0,0,0,0, ,0,0,0,0,0, ,-38.9,333.6,943.2,-0.2,-0.5,-1.6,25,-38.3888,332.425,943.304,-0.301969,-0.552672,-1.66535,
2026_07_06_19_53_07.786,3.869,33.7,0,0.763,0,0,0,0, ,0,0,0,0,0, ,-38.5,332.7,942.7,-0.3,-0.6,-1.6,25,-38.4077,332.469,943.282,-0.298803,-0.55251,-1.66137,
2026_07_06_19_53_07.810,3.869,34,0,0.763,0,0,0,0, ,0,0,0,0,0, ,-40.1,332.2,941.6,-0.1,-0.6,-1.7,25,-38.4621,332.468,943.213,-0.292782,-0.555403,-1.66067,
2026_07_06_19_53_07.825,3.869,33.7,0,0.762,0,0,0,0, ,0,0,0,0,0, ,-38.5,331.7,942.7,-0.2,-0.5,-1.7,25,-38.5132,332.436,943.149,-0.284081,-0.555074,-1.66307,
2026_07_06_19_53_07.852,3.869,33.8,0,0.763,0,0,0,0, ,0,0,0,0,0, ,-38.4,331.2,944.2,-0.3,-0.6,-1.6,25,-38.5093,332.376,943.167,-0.282004,-0.554765,-1.66227,
2026_07_06_19_53_07.864,3.869,34,0,0.762,0,0,0,0, ,0,0,0,0,0, ,-38.9,331.6,942.8,-0.4,-0.6,-1.7,25,-38.5179,332.317,943.187,-0.286148,-0.557521,-1.66153,
2026_07_06_19_53_07.889,3.869,33.7,0,0.762,0,0,0,0, ,0,0,0,0,0, ,-38.6,332.5,944.7,-0.4,-0.6,-1.6,25,-38.532,332.3,943.222,-0.293086,-0.56011,-1.66082,
2026_07_06_19_53_07.904,3.869,33.8,0,0.762,0,0,0,0, ,0,0,0,0,0, ,-37.8,331.7,943.6,-0.3,-0.6,-1.6,25,-38.5118,332.288,943.278,-0.296554,-0.562541,-1.65712,
2026_07_06_19_53_07.928,3.869,33.8,0,0.763,0,0,0,0, ,0,0,0,0,0, ,-38.9,331.5,942.5,-0.4,-0.6,-1.7,25,-38.502,332.246,943.264,-0.299811,-0.564823,-1.65668,
2026_07_06_19_53_07.944,3.869,33.7,0,0.762,0,0,0,0, ,0,0,0,0,0, ,-39.4,333,943.4,-0.4,-0.6,-1.7,25,-38.5414,332.246,943.245,-0.305916,-0.566967,-1.65932,
2026_07_06_19_53_07.971,3.869,34,0,0.762,0,0,0,0, ,0,0,0,0,0, ,-37.8,332,943.6,-0.2,-0.6,-1.7,25,-38.545,332.262,943.261,-0.305555,-0.56898,-1.6618,
2026_07_06_19_53_07.987,3.869,33.8,0,0.762,0,0,0,0, ,0,0,0,0,0, ,-39.6,332.2,943.7,-0.3,-0.6,-1.6,25,-38.5545,332.252,943.284,-0.30217,-0.57087,-1.66108,
2026_07_06_19_53_08.011,3.869,34,0,0.762,0,0,0,0, ,0,0,0,0,0, ,-37.7,332.2,944.3,-0.3,-0.6,-1.7,25,-38.5603,332.249,943.328,-0.302038,-0.572645,-1.66041,
2026_07_06_19_53_08.023,3.869,33.8,0,0.762,0,0,0,0, ,0,0,0,0,0, ,-38.5,332,943.6,-0.3,-0.6,-1.6,25,-38.5322,332.24,943.366,-0.301914,-0.574312,-1.65977,
2026_07_06_19_53_08.048,3.869,33.8,0,0.762,0,0,0,0, ,0,0,0,0,0, ,-38.4,331.5,942.7,-0.3,-0.5,-1.7,25,-38.5272,332.21,943.353,-0.301797,-0.572831,-1.65918,
2026_07_06_19_53_08.063,3.869,33.8,0,0.762,0,0,0,0, ,0,0,0,0,0, ,-37.7,331.9,943.6,-0.5,-0.6,-1.7,25,-38.4981,332.179,943.34,-0.307781,-0.57144,-1.66167,
2026_07_06_19_53_08.088,3.869,34,0,0.761,0,0,0,0, ,0,0,0,0,0, ,-38.2,332.1,944,-0.4,-0.6,-1.6,25,-38.4647,332.168,943.368,-0.316448,-0.57318,-1.66095,
2026_07_06_19_53_08.103,3.869,34,0,0.762,0,0,0,0, ,0,0,0,0,0, ,-39.3,332.8,942.8,-0.3,-0.5,-1.7,25,-38.4821,332.185,943.37,-0.318492,-0.571767,-1.66029,
2026_07_06_19_53_08.127,3.869,33.8,0,0.762,0,0,0,0, ,0,0,0,0,0, ,-38.4,332.6,944.2,-0.4,-0.6,-1.6,25,-38.5045,332.217,943.378,-0.320412,-0.570441,-1.65966,
2026_07_06_19_53_08.142,3.869,33.8,0,0.762,0,0,0,0, ,0,0,0,0,0, ,-38.8,332.3,942.9,-0.4,-0.5,-1.6,25,-38.5104,332.231,943.389,-0.325262,-0.569195,-1.65602,
2026_07_06_19_53_08.166,3.869,33.7,0,0.762,0,0,0,0, ,0,0,0,0,0, ,-38.4,332.7,942.7,-0.4,-0.6,-1.7,25,-38.5158,332.247,943.353,-0.329817,-0.568026,-1.65566,
2026_07_06_19_53_08.181,3.869,33.8,0,0.761,0,0,0,0, ,0,0,0,0,0, ,-38.8,333.9,943.3,-0.3,-0.6,-1.6,25,-38.5209,332.311,943.331,-0.331046,-0.569974,-1.65531,
2026_07_06_19_53_08.207,3.869,34,0,0.763,0,0,0,0, ,0,0,0,0,0, ,-39.4,333.9,943.2,-0.3,-0.6,-1.7,25,-38.5562,332.408,943.326,-0.329155,-0.571804,-1.65499,
2026_07_06_19_53_08.220,3.869,34,0,0.762,0,0,0,0, ,0,0,0,0,0, ,-37.5,333,942.8,-0.3,-0.6,-1.7,25,-38.5498,332.472,943.306,-0.327378,-0.573522,-1.65773,
2026_07_06_19_53_08.246,3.869,34,0,0.762,0,0,0,0, ,0,0,0,0,0, ,-39,332.8,942.2,-0.2,-0.6,-1.7,25,-38.5315,332.498,943.257,-0.322663,-0.575135,-1.66031,
2026_07_06_19_53_08.260,3.869,34,0,0.762,0,0,0,0, ,0,0,0,0,0, ,-39.5,331.5,942.9,-0.2,-0.6,-1.7,25,-38.5753,332.477,943.214,-0.315188,-0.576651,-1.66273,
2026_07_06_19_53_08.285,3.869,33.8,0,0.764,0,0,0,0, ,0,0,0,0,0, ,-39,331,942.5,-0.3,-0.6,-1.6,25,-38.6164,332.402,943.183,-0.311216,-0.578074,-1.66195,
2026_07_06_19_53_08.301,3.869,33.7,0,0.762,0,0,0,0, ,0,0,0,0,0, ,-38.3,332.3,941.8,-0.3,-0.5,-1.6,25,-38.6184,332.356,943.12,-0.310532,-0.576363,-1.65818,
2026_07_06_19_53_08.326,3.869,34,0,0.762,0,0,0,0, ,0,0,0,0,0, ,-37.7,332.6,941.8,-0.2,-0.6,-1.7,25,-38.5808,332.362,943.04,-0.306843,-0.574756,-1.65768,
2026_07_06_19_53_08.345,3.869,33.7,0,0.763,0,0,0,0, ,0,0,0,0,0, ,-37.7,331.7,944.3,-0.2,-0.6,-1.6,25,-38.5271,332.349,943.04,-0.300333,-0.576295,-1.65721,
2026_07_06_19_53_08.370,3.869,34,0,0.762,0,0,0,0, ,0,0,0,0,0, ,-38.9,331.2,943.2,-0.3,-0.6,-1.6,25,-38.5132,332.294,943.083,-0.297266,-0.577739,-1.65372,
2026_07_06_19_53_08.379,3.869,33.8,0,0.762,0,0,0,0, ,0,0,0,0,0, ,-38.5,332.1,943.6,-0.4,-0.5,-1.7,25,-38.5246,332.255,943.103,-0.300479,-0.576049,-1.6535,
2026_07_06_19_53_08.404,3.869,34,0,0.763,0,0,0,0, ,0,0,0,0,0, ,-38.4,332.5,942.1,-0.4,-0.6,-1.6,25,-38.5201,332.258,943.087,-0.306544,-0.574461,-1.65328,
2026_07_06_19_53_08.419,3.869,33.8,0,0.763,0,0,0,0, ,0,0,0,0,0, ,-37.8,331.7,942.1,-0.3,-0.6,-1.6,25,-38.4945,332.248,943.027,-0.309192,-0.576018,-1.65004,
2026_07_06_19_53_08.444,3.869,34,0,0.763,0,0,0,0, ,0,0,0,0,0, ,-38.8,332,945,-0.4,-0.6,-1.7,25,-38.4826,332.224,943.059,-0.311678,-0.577479,-1.65003,
2026_07_06_19_53_08.459,3.869,33.8,0,0.763,0,0,0,0, ,0,0,0,0,0, ,-37.2,333,943.6,-0.4,-0.7,-1.6,25,-38.4532,332.241,943.135,-0.317061,-0.581898,-1.65003,
2026_07_06_19_53_08.485,3.869,34,0,0.763,0,0,0,0, ,0,0,0,0,0, ,-38.5,333.6,943.1,-0.4,-0.6,-1.7,25,-38.4165,332.305,943.148,-0.322115,-0.586048,-1.65003,
2026_07_06_19_53_08.498,3.869,33.7,0,0.763,0,0,0,0, ,0,0,0,0,0, ,-38.9,331.4,943.3,-0.4,-0.6,-1.7,25,-38.4337,332.317,943.151,-0.326861,-0.586898,-1.65308,
2026_07_06_19_53_08.525,3.869,34,0,0.76,0,0,0,0, ,0,0,0,0,0, ,-38.2,331.6,942.9,-0.4,-0.6,-1.7,25,-38.4408,332.267,943.148,-0.331318,-0.587697,-1.65593,
2026_07_06_19_53_08.538,3.869,33.8,0,0.762,0,0,0,0, ,0,0,0,0,0, ,-38.2,332.2,943.1,-0.3,-0.6,-1.7,25,-38.4261,332.245,943.139,-0.332456,-0.588447,-1.65862,
2026_07_06_19_53_08.564,3.869,33.7,0,0.763,0,0,0,0, ,0,0,0,0,0, ,-36.8,333.4,943.6,-0.2,-0.6,-1.7,25,-38.3697,332.279,943.152,-0.327432,-0.589151,-1.66114,
2026_07_06_19_53_08.577,3.869,33.7,0,0.763,0,0,0,0, ,0,0,0,0,0, ,-38.3,332.2,943.2,-0.2,-0.5,-1.7,25,-38.3198,332.31,943.167,-0.319666,-0.586765,-1.66351,
2026_07_06_19_53_08.602,3.869,34,0,0.763,0,0,0,0, ,0,0,0,0,0, ,-37.2,331.6,945.4,-0.3,-0.6,-1.6,25,-38.285,332.285,943.236,-0.315421,-0.584525,-1.66269,
2026_07_06_19_53_08.617,3.869,33.8,0,0.763,0,0,0,0, ,0,0,0,0,0, ,-36.9,330.3,943.7,-0.2,-0.5,-1.7,25,-38.2098,332.204,943.316,-0.311434,-0.582421,-1.66191,
2026_07_06_19_53_08.642,3.869,34,0,0.763,0,0,0,0, ,0,0,0,0,0, ,-38.8,332.7,942.6,-0.4,-0.5,-1.6,25,-38.1879,332.161,943.306,-0.310738,-0.577398,-1.66119,
2026_07_06_19_53_08.657,3.869,33.8,0,0.763,0,0,0,0, ,0,0,0,0,0, ,-38.9,332.8,942.9,-0.5,-0.5,-1.6,25,-38.2282,332.197,943.272,-0.319224,-0.572682,-1.65746,
2026_07_06_19_53_08.682,3.869,33.8,0,0.763,0,0,0,0, ,0,0,0,0,0, ,-39.5,332.8,943.3,-0.4,-0.6,-1.7,25,-38.2874,332.234,943.261,-0.327193,-0.5713,-1.657,
2026_07_06_19_53_08.696,3.869,33.7,0,0.761,0,0,0,0, ,0,0,0,0,0, ,-37.5,332.3,943.8,-0.4,-0.6,-1.6,25,-38.3004,332.253,943.279,-0.33163,-0.573048,-1.65658,
2026_07_06_19_53_08.722,3.869,33.8,0,0.762,0,0,0,0, ,0,0,0,0,0, ,-37.8,332.8,942.9,-0.4,-0.6,-1.7,25,-38.2607,332.271,943.283,-0.335796,-0.574691,-1.65618,
2026_07_06_19_53_08.736,3.869,33.7,0,0.762,0,0,0,0, ,0,0,0,0,0, ,-38.5,332.3,943.9,-0.4,-0.6,-1.7,25,-38.254,332.288,943.29,-0.339708,-0.576233,-1.65885,
2026_07_06_19_53_08.761,3.869,34,0,0.763,0,0,0,0, ,0,0,0,0,0, ,-38.9,334.2,943.4,-0.2,-0.5,-1.6,25,-38.2812,332.347,943.312,-0.337289,-0.574635,-1.65831,
2026_07_06_19_53_08.777,3.869,34,0,0.763,0,0,0,0, ,0,0,0,0,0, ,-37.7,333.6,943.3,-0.3,-0.6,-1.7,25,-38.2823,332.441,943.315,-0.33197,-0.573133,-1.6578,
2026_07_06_19_53_08.803,3.869,33.7,0,0.763,0,0,0,0, ,0,0,0,0,0, ,-37.8,333.6,942.9,-0.1,-0.6,-1.7,25,-38.2499,332.512,943.302,-0.323928,-0.574771,-1.66037,
2026_07_06_19_53_08.815,3.869,33.8,0,0.761,0,0,0,0, ,0,0,0,0,0, ,-38.2,330.9,943.4,-0.2,-0.5,-1.7,25,-38.2347,332.496,943.292,-0.313329,-0.573261,-1.66279,
2026_07_06_19_53_08.839,3.869,33.8,0,0.762,0,0,0,0, ,0,0,0,0,0, ,-38,331.9,944.5,-0.2,-0.5,-1.7,25,-38.2265,332.429,943.332,-0.306423,-0.568797,-1.66506,
2026_07_06_19_53_08.854,3.869,33.8,0,0.763,0,0,0,0, ,0,0,0,0,0, ,-38.4,332.1,942.2,-0.1,-0.5,-1.7,25,-38.2248,332.403,943.334,-0.296891,-0.564604,-1.66718,
2026_07_06_19_53_08.881,3.869,33.8,0,0.763,0,0,0,0, ,0,0,0,0,0, ,-39,331.9,944,-0.2,-0.5,-1.6,25,-38.2538,332.379,943.319,-0.28794,-0.560668,-1.66614,
2026_07_06_19_53_08.894,3.869,33.8,0,0.763,0,0,0,0, ,0,0,0,0,0, ,-38.3,332.8,943.1,-0.3,-0.5,-1.7,25,-38.2779,332.377,943.333,-0.285628,-0.556971,-1.66515,
2026_07_06_19_53_08.920,3.869,33.7,0,0.764,0,0,0,0, ,0,0,0,0,0, ,-37.5,332.1,943.6,-0.2,-0.6,-1.6,25,-38.2549,332.381,943.334,-0.283457,-0.556546,-1.66423,
2026_07_06_19_53_08.934,3.869,34,0,0.762,0,0,0,0, ,0,0,0,0,0, ,-37.5,330.4,944.2,-0.2,-0.6,-1.7,25,-38.2089,332.312,943.369,-0.278371,-0.559194,-1.66336,
2026_07_06_19_53_08.959,3.869,33.8,0,0.761,0,0,0,0, ,0,0,0,0,0, ,-38.8,331.2,943.1,-0.4,-0.5,-1.7,25,-38.2053,332.22,943.386,-0.279689,-0.558634,-1.6656,
2026_07_06_19_53_08.973,3.869,33.8,0,0.761,0,0,0,0, ,0,0,0,0,0, ,-38.5,332,943.1,-0.4,-0.5,-1.7,25,-38.2324,332.182,943.369,-0.287021,-0.555061,-1.66769,
2026_07_06_19_53_09.001,3.869,33.7,0,0.762,0,0,0,0, ,0,0,0,0,0, ,-38,332.5,944.3,-0.3,-0.6,-1.7,25,-38.2335,332.186,943.389,-0.290858,-0.554752,-1.66966,
2026_07_06_19_53_09.013,3.869,33.8,0,0.763,0,0,0,0, ,0,0,0,0,0, ,-38.3,333.6,944.8,-0.4,-0.5,-1.6,25,-38.2284,332.239,943.459,-0.294462,-0.554463,-1.66846,
2026_07_06_19_53_09.039,3.869,33.8,0,0.762,0,0,0,0, ,0,0,0,0,0, ,-39,332.6,941.5,-0.2,-0.5,-1.6,25,-38.2541,332.292,943.441,-0.2948,-0.551144,-1.66429,
2026_07_06_19_53_09.051,3.869,33.8,0,0.762,0,0,0,0, ,0,0,0,0,0, ,-39,332.7,940.9,-0.3,-0.5,-1.7,25,-38.2995,332.313,943.304,-0.29207,-0.548027,-1.66342,
2026_07_06_19_53_09.078,3.869,33.7,0,0.762,0,0,0,0, ,0,0,0,0,0, ,-38.2,332.7,941.6,-0.3,-0.5,-1.7,25,-38.3179,332.337,943.179,-0.292553,-0.545101,-1.66565,
2026_07_06_19_53_09.092,3.869,34,0,0.762,0,0,0,0, ,0,0,0,0,0, ,-36.8,331,941.4,-0.3,-0.5,-1.6,25,-38.268,332.307,943.077,-0.293007,-0.542352,-1.6647,
2026_07_06_19_53_09.118,3.869,33.8,0,0.762,0,0,0,0, ,0,0,0,0,0, ,-41.3,337.1,948.4,-0.5,-0.6,-1.6,25,-38.3157,332.413,943.188,-0.299527,-0.542818,-1.66075,
2026_07_06_19_53_09.132,3.869,33.7,0,0.762,0,0,0,0, ,0,0,0,0,0, ,-37.1,333.2,940.1,0,-0.5,-1.7,25,-38.3696,332.58,943.252,-0.296509,-0.543256,-1.6601,
2026_07_06_19_53_09.158,3.869,33.8,0,0.763,0,0,0,0, ,0,0,0,0,0, ,-37.9,333.1,943.2,-0.1,-0.5,-1.6,25,-38.3166,332.615,943.155,-0.281487,-0.54062,-1.65948,
2026_07_06_19_53_09.171,3.869,33.8,0,0.763,0,0,0,0, ,0,0,0,0,0, ,-39.6,332.1,942,0.2,-0.5,-1.7,25,-38.343,332.614,943.121,-0.261287,-0.538145,-1.6589,
2026_07_06_19_53_09.198,3.869,33.8,0,0.762,0,0,0,0, ,0,0,0,0,0, ,-38.3,330.3,944.8,0,-0.6,-1.6,25,-38.38,332.528,943.138,-0.239271,-0.538867,-1.65836,
2026_07_06_19_53_09.211,3.869,33.8,0,0.762,0,0,0,0, ,0,0,0,0,0, ,-37.8,331.4,941.1,-0.3,-0.6,-1.6,25,-38.3599,332.426,943.127,-0.233831,-0.542592,-1.65481,
2026_07_06_19_53_09.238,3.869,33.8,0,0.762,0,0,0,0, ,0,0,0,0,0, ,-39,332.5,943.8,-0.5,-0.7,-1.6,25,-38.3623,332.397,943.085,-0.243957,-0.549138,-1.65147,
2026_07_06_19_53_09.250,3.869,33.7,0,0.762,0,0,0,0, ,0,0,0,0,0, ,-39.7,332.8,940.1,-0.2,-0.6,-1.7,25,-38.4225,332.412,943.016,-0.250419,-0.555284,-1.65138,
2026_07_06_19_53_09.277,3.869,33.7,0,0.762,0,0,0,0, ,0,0,0,0,0, ,-38,331.6,943.9,-0.3,-0.5,-1.7,25,-38.4485,332.399,942.954,-0.250394,-0.554962,-1.65434,
2026_07_06_19_53_09.290,3.869,33.7,0,0.762,0,0,0,0, ,0,0,0,0,0, ,-39,331.6,940.9,-0.2,-0.5,-1.6,25,-38.4517,332.35,942.92,-0.25037,-0.551613,-1.65408,
2026_07_06_19_53_09.319,3.869,33.8,0,0.762,0,0,0,0, ,0,0,0,0,0, ,-37.5,333.7,943.8,-0.2,-0.5,-1.6,25,-38.4394,332.369,942.886,-0.2473,-0.548468,-1.65078,
2026_07_06_19_53_09.329,3.869,33.8,0,0.762,0,0,0,0, ,0,0,0,0,0, ,-39.3,333.2,942.7,-0.2,-0.6,-1.7,25,-38.437,332.435,942.908,-0.244418,-0.548561,-1.65073,
2026_07_06_19_53_09.355,3.869,33.8,0,0.763,0,0,0,0, ,0,0,0,0,0, ,-39.3,331.9,944,-0.3,-0.5,-1.7,25,-38.4896,332.442,942.935,-0.244758,-0.548649,-1.65373,
2026_07_06_19_53_09.369,3.869,33.7,0,0.763,0,0,0,0, ,0,0,0,0,0, ,-40.2,331.6,942,-0.1,-0.6,-1.7,25,-38.5664,332.399,942.939,-0.242031,-0.548731,-1.65655,
2026_07_06_19_53_09.395,3.869,33.7,0,0.762,0,0,0,0, ,0,0,0,0,0, ,-39,332.7,943.3,-0.2,-0.6,-1.7,25,-38.6294,332.384,942.921,-0.236422,-0.551855,-1.6592,
2026_07_06_19_53_09.408,3.869,33.8,0,0.763,0,0,0,0, ,0,0,0,0,0, ,-38,331.5,941.5,-0.3,-0.6,-1.6,25,-38.6215,332.367,942.889,-0.23725,-0.554789,-1.65864,
2026_07_06_19_53_09.436,3.869,33.8,0,0.762,0,0,0,0, ,0,0,0,0,0, ,-39.7,330.8,942.6,-0.3,-0.6,-1.8,25,-38.6354,332.293,942.838,-0.241074,-0.557544,-1.66116,
2026_07_06_19_53_09.448,3.869,33.8,0,0.762,0,0,0,0, ,0,0,0,0,0, ,-38.5,331.9,942.1,-0.3,-0.6,-1.7,25,-38.6637,332.235,942.809,-0.244664,-0.560131,-1.66657,
2026_07_06_19_53_09.473,3.869,33.8,0,0.762,0,0,0,0, ,0,0,0,0,0, ,-38.8,331.9,942.7,-0.3,-0.5,-1.7,25,-38.6629,332.215,942.784,-0.248036,-0.559514,-1.66861,
2026_07_06_19_53_09.487,3.869,33.7,0,0.762,0,0,0,0, ,0,0,0,0,0, ,-38.5,333.1,943.2,-0.5,-0.6,-1.7,25,-38.6621,332.232,942.794,-0.257297,-0.558934,-1.67052,
2026_07_06_19_53_09.516,3.869,33.8,0,0.762,0,0,0,0, ,0,0,0,0,0, ,-39.4,331.6,943.6,-0.4,-0.5,-1.6,25,-38.6796,332.239,942.831,-0.26904,-0.55839,-1.66927,
2026_07_06_19_53_09.527,3.869,33.8,0,0.762,0,0,0,0, ,0,0,0,0,0, ,-38.8,332.5,944.2,-0.4,-0.5,-1.7,25,-38.7053,332.228,942.896,-0.27702,-0.554832,-1.6681,
2026_07_06_19_53_09.554,3.869,33.7,0,0.761,0,0,0,0, ,0,0,0,0,0, ,-37.5,331.9,942.6,-0.4,-0.5,-1.7,25,-38.6714,332.226,942.927,-0.284514,-0.55149,-1.67004,
2026_07_06_19_53_09.566,3.869,33.8,0,0.763,0,0,0,0, ,0,0,0,0,0, ,-37.9,333.3,944.5,-0.4,-0.6,-1.7,25,-38.6122,332.249,942.965,-0.291552,-0.551399,-1.67187,
2026_07_06_19_53_09.593,3.869,33.8,0,0.763,0,0,0,0, ,0,0,0,0,0, ,-37.2,332.7,943.7,-0.3,-0.6,-1.7,25,-38.5475,332.295,943.034,-0.295113,-0.554361,-1.67358,
2026_07_06_19_53_09.606,3.869,33.7,0,0.763,0,0,0,0, ,0,0,0,0,0, ,-39.4,331.2,945.1,-0.3,-0.6,-1.6,25,-38.5324,332.274,943.117,-0.295411,-0.557142,-1.67215,
2026_07_06_19_53_09.634,3.869,33.7,0,0.763,0,0,0,0, ,0,0,0,0,0, ,-38.6,332.5,942.3,-0.3,-0.5,-1.6,25,-38.5609,332.248,943.153,-0.295691,-0.556707,-1.66775,
2026_07_06_19_53_09.646,3.869,33.7,0,0.762,0,0,0,0, ,0,0,0,0,0, ,-38.9,334.1,942.6,-0.4,-0.6,-1.6,25,-38.5724,332.312,943.11,-0.299,-0.556298,-1.66362,
2026_07_06_19_53_09.672,3.869,33.7,0,0.763,0,0,0,0, ,0,0,0,0,0, ,-37.5,332.6,943.3,-0.2,-0.5,-1.7,25,-38.5497,332.375,943.1,-0.299061,-0.555914,-1.66279,
2026_07_06_19_53_09.685,3.869,33.8,0,0.762,0,0,0,0, ,0,0,0,0,0, ,-38.2,332.5,943.9,-0.2,-0.6,-1.7,25,-38.5071,332.386,943.13,-0.293025,-0.555554,-1.66506,
2026_07_06_19_53_09.712,3.869,33.8,0,0.762,0,0,0,0, ,0,0,0,0,0, ,-39.4,333,943.4,-0.2,-0.6,-1.6,25,-38.5249,332.408,943.162,-0.287356,-0.558262,-1.66414,
2026_07_06_19_53_09.725,3.869,33.8,0,0.763,0,0,0,0, ,0,0,0,0,0, ,-38.4,331.6,942.9,-0.3,-0.6,-1.6,25,-38.5478,332.402,943.161,-0.285079,-0.560806,-1.66023,
2026_07_06_19_53_09.752,3.869,33.8,0,0.762,0,0,0,0, ,0,0,0,0,0, ,-38.8,332.6,943.9,-0.1,-0.6,-1.7,25,-38.551,332.383,943.176,-0.279895,-0.563194,-1.65961,
2026_07_06_19_53_09.765,3.869,34,0,0.762,0,0,0,0, ,0,0,0,0,0, ,-39.5,331.7,942.5,-0.2,-0.6,-1.7,25,-38.5875,332.369,943.177,-0.271979,-0.565437,-1.66207,
2026_07_06_19_53_09.792,3.869,34,0,0.761,0,0,0,0, ,0,0,0,0,0, ,-38.8,332,942.7,-0.3,-0.5,-1.7,25,-38.6218,332.337,943.142,-0.27064,-0.564496,-1.66438,
2026_07_06_19_53_09.804,3.869,33.8,0,0.764,0,0,0,0, ,0,0,0,0,0, ,-37.9,332.6,942.7,-0.3,-0.7,-1.6,25,-38.6052,332.335,943.115,-0.272429,-0.56666,-1.66351,
2026_07_06_19_53_09.831,3.869,33.8,0,0.762,0,0,0,0, ,0,0,0,0,0, ,-39.4,331.7,944.5,-0.2,-0.6,-1.6,25,-38.6079,332.324,943.145,-0.271062,-0.571738,-1.65964,
2026_07_06_19_53_09.844,3.869,33.7,0,0.762,0,0,0,0, ,0,0,0,0,0, ,-38.2,332.5,942.6,-0.4,-0.5,-1.7,25,-38.6196,332.31,943.169,-0.272826,-0.570414,-1.65905,
2026_07_06_19_53_09.871,3.869,33.8,0,0.762,0,0,0,0, ,0,0,0,0,0, ,-38.5,331.5,943.2,-0.5,-0.6,-1.7,25,-38.6032,332.291,943.153,-0.283622,-0.56917,-1.66154,
2026_07_06_19_53_09.883,3.869,33.8,0,0.763,0,0,0,0, ,0,0,0,0,0, ,-39.5,331.1,942.9,-0.3,-0.6,-1.6,25,-38.6274,332.231,943.147,-0.290714,-0.571049,-1.66084,
2026_07_06_19_53_09.911,3.869,33.8,0,0.763,0,0,0,0, ,0,0,0,0,0, ,-38,332.2,942.6,-0.4,-0.6,-1.6,25,-38.6349,332.195,943.123,-0.294327,-0.572813,-1.65713,
2026_07_06_19_53_09.923,3.869,33.7,0,0.762,0,0,0,0, ,0,0,0,0,0, ,-38.2,332.6,942.9,-0.4,-0.6,-1.7,25,-38.6023,332.208,943.1,-0.300766,-0.574469,-1.6567,
2026_07_06_19_53_09.950,3.869,33.7,0,0.761,0,0,0,0, ,0,0,0,0,0, ,-37.8,333.8,942.3,-0.4,-0.6,-1.7,25,-38.5656,332.268,943.069,-0.306813,-0.576025,-1.65934,
2026_07_06_19_53_09.963,3.869,33.8,0,0.762,0,0,0,0, ,0,0,0,0,0, ,-38.8,331.9,942.6,-0.3,-0.6,-1.6,25,-38.5494,332.304,943.032,-0.309445,-0.577486,-1.65877,
2026_07_06_19_53_09.990,3.869,33.8,0,0.761,0,0,0,0, ,0,0,0,0,0, ,-39.3,331.2,943.1,-0.3,-0.6,-1.7,25,-38.5799,332.258,943.021,-0.30887,-0.578858,-1.65823,
2026_07_06_19_53_10.002,3.869,33.8,0,0.762,0,0,0,0, ,0,0,0,0,0, ,-38.8,332.7,942.1,-0.4,-0.6,-1.7,25,-38.6085,332.239,942.995,-0.311376,-0.580146,-1.66078,
2026_07_06_19_53_10.031,3.869,33.8,0,0.763,0,0,0,0, ,0,0,0,0,0, ,-38,332.2,942.7,-0.4,-0.5,-1.7,25,-38.5958,332.252,942.959,-0.316776,-0.578309,-1.66317,
2026_07_06_19_53_10.041,3.869,33.8,0,0.762,0,0,0,0, ,0,0,0,0,0, ,-38.8,331.6,943.1,-0.4,-0.5,-1.6,25,-38.5839,332.231,942.955,-0.321848,-0.573537,-1.66237,
2026_07_06_19_53_10.075,3.869,33.8,0,0.763,0,0,0,0, ,0,0,0,0,0, ,-38,332.5,943.3,-0.4,-0.6,-1.7,25,-38.5727,332.22,942.97,-0.32661,-0.572103,-1.66161,
2026_07_06_19_53_10.081,3.869,33.8,0,0.763,0,0,0,0, ,0,0,0,0,0, ,-39.3,332.7,943.6,-0.4,-0.6,-1.7,25,-38.5774,332.243,942.999,-0.331082,-0.573803,-1.66395,
2026_07_06_19_53_10.108,3.869,33.8,0,0.762,0,0,0,0, ,0,0,0,0,0, ,-38.9,334.3,943.9,-0.4,-0.6,-1.7,25,-38.6092,332.319,943.045,-0.335282,-0.575399,-1.66615,
2026_07_06_19_53_10.121,3.869,33.7,0,0.762,0,0,0,0, ,0,0,0,0,0, ,-38.4,332.3,943.3,-0.3,-0.6,-1.7,25,-38.6117,332.379,943.079,-0.336179,-0.576899,-1.66821,
2026_07_06_19_53_10.148,3.869,33.7,0,0.763,0,0,0,0, ,0,0,0,0,0, ,-37.4,334.1,942.6,-0.3,-0.6,-1.6,25,-38.5684,332.429,943.071,-0.333974,-0.578306,-1.6671,
2026_07_06_19_53_10.160,3.869,33.8,0,0.763,0,0,0,0, ,0,0,0,0,0, ,-40,332.5,943.1,-0.3,-0.6,-1.7,25,-38.5764,332.482,943.058,-0.331904,-0.579628,-1.66606,
2026_07_06_19_53_10.189,3.869,33.8,0,0.763,0,0,0,0, ,0,0,0,0,0, ,-38.5,333,943.7,-0.3,-0.5,-1.7,25,-38.6174,332.498,943.078,-0.32996,-0.577823,-1.66813,
2026_07_06_19_53_10.200,3.869,34,0,0.763,0,0,0,0, ,0,0,0,0,0, ,-38.4,333.8,943.3,-0.2,-0.6,-1.6,25,-38.6072,332.553,943.104,-0.325087,-0.576127,-1.66702,
2026_07_06_19_53_10.228,3.869,33.8,0,0.763,0,0,0,0, ,0,0,0,0,0, ,-37.5,332.5,943.7,-0.3,-0.6,-1.7,25,-38.5672,332.59,943.128,-0.320512,-0.577582,-1.66599,
2026_07_06_19_53_10.239,3.869,33.8,0,0.763,0,0,0,0, ,0,0,0,0,0, ,-38.2,332.6,942.7,-0.3,-0.6,-1.6,25,-38.5235,332.587,943.133,-0.319262,-0.578948,-1.66501,
2026_07_06_19_53_10.268,3.869,33.8,0,0.762,0,0,0,0, ,0,0,0,0,0, ,-37.7,332.2,943.4,-0.2,-0.6,-1.7,25,-38.4885,332.576,943.128,-0.315041,-0.580231,-1.6641,
2026_07_06_19_53_10.278,3.869,33.8,0,0.762,0,0,0,0, ,0,0,0,0,0, ,-39.4,332.2,943.2,-0.2,-0.6,-1.7,25,-38.4923,332.553,943.138,-0.308031,-0.581436,-1.66628,
2026_07_06_19_53_10.307,3.869,33.8,0,0.763,0,0,0,0, ,0,0,0,0,0, ,-39.4,332.8,944.3,-0.3,-0.6,-1.7,25,-38.5476,332.55,943.175,-0.304495,-0.582567,-1.66834,
2026_07_06_19_53_10.319,3.869,33.7,0,0.762,0,0,0,0, ,0,0,0,0,0, ,-38,330.9,943.4,-0.3,-0.6,-1.7,25,-38.5569,332.507,943.216,-0.304221,-0.583629,-1.67027,
2026_07_06_19_53_10.346,3.869,33.7,0,0.762,0,0,0,0, ,0,0,0,0,0, ,-39.4,331.6,944.4,-0.3,-0.6,-1.7,25,-38.5656,332.431,943.258,-0.303963,-0.584627,-1.67208,
2026_07_06_19_53_10.358,3.869,33.8,0,0.763,0,0,0,0, ,0,0,0,0,0, ,-39.5,332.3,943.6,-0.4,-0.5,-1.7,25,-38.6195,332.401,943.303,-0.306769,-0.582517,-1.67378,
2026_07_06_19_53_10.387,3.869,33.8,0,0.762,0,0,0,0, ,0,0,0,0,0, ,-38.4,332.7,941.8,-0.4,-0.5,-1.6,25,-38.6396,332.407,943.267,-0.31245,-0.577488,-1.67233,
2026_07_06_19_53_10.397,3.869,33.8,0,0.762,0,0,0,0, ,0,0,0,0,0, ,-39,324.7,945.4,-0.5,-0.6,-1.7,25,-38.6433,332.181,943.287,-0.320832,-0.575813,-1.67097,
2026_07_06_19_53_10.426,3.869,34,0,0.763,0,0,0,0, ,0,0,0,0,0, ,-38,328.9,943.4,-1.3,-0.6,-1.7,25,-38.6346,331.853,943.355,-0.356125,-0.577287,-1.67274,
2026_07_06_19_53_10.437,3.869,33.7,0,0.764,0,0,0,0, ,0,0,0,0,0, ,-39.1,324.7,945.4,-2.5,-0.6,-1.8,25,-38.6294,331.545,943.418,-0.450205,-0.578671,-1.67745,
2026_07_06_19_53_10.466,3.869,33.8,0,0.762,0,0,0,0, ,0,0,0,0,0, ,48.8,415.7,954.1,-29.9,7.3,23,25,-35.9799,333.901,943.804,-1.40996,-0.339268,-0.929292,
2026_07_06_19_53_10.476,3.869,33.7,0,0.763,0,0,0,0, ,0,0,0,0,0, ,69.4,435,911.2,-108.4,8.8,24.6,25,-30.186,339.474,943.125,-5.53787,0.171953,0.577649,
2026_07_06_19_53_10.505,3.869,33.8,0,0.763,0,0,0,0, ,0,0,0,0,0, ,69.3,385,942.6,-16.6,5,17.4,25,-24.1205,343.771,942.136,-9.009,0.581943,1.82214,
2026_07_06_19_53_10.516,3.869,33.7,0,0.761,0,0,0,0, ,0,0,0,0,0, ,-142.4,282.4,959.7,-14.9,1.8,6.5,25,-24.8779,343.158,942.685,-9.41978,0.753669,2.4393,
2026_07_06_19_53_10.545,3.869,33.8,0,0.763,0,0,0,0, ,0,0,0,0,0, ,-106.5,267.4,959.4,-11,1.2,4.8,25,-30.9456,338.998,943.713,-9.6349,0.799148,2.63495,
2026_07_06_19_53_10.562,3.869,33.8,0,0.763,0,0,0,0, ,0,0,0,0,0, ,73.6,526,938.4,-29.7,10.2,-5.1,25,-30.0623,342.514,944.029,-10.2879,1.09779,2.46525,
2026_07_06_19_53_10.590,3.869,33.7,0,0.762,0,0,0,0, ,0,0,0,0,0, ,67,281.3,997.4,-34.2,36.1,26.5,25,-23.9464,346.24,945.484,-11.6079,2.4416,2.96705,
2026_07_06_19_53_10.597,3.869,33.7,0,0.762,0,0,0,0, ,0,0,0,0,0, ,-30.3,181.6,941.4,-39.9,17.7,27.2,25,-21.369,339.245,946.941,-13.1583,3.93203,4.42242,
2026_07_06_19_53_10.627,3.869,33.6,0,0.762,0,0,0,0, ,0,0,0,0,0, ,-152.8,234.4,977.5,-20,14,29.1,25,-25.6457,331.247,947.703,-14.1815,4.65828,5.86832,
2026_07_06_19_53_10.635,3.869,33.8,0,0.762,0,0,0,0, ,0,0,0,0,0, ,-202.7,267.9,1044.6,-11.1,-3.8,25.8,25,-34.9145,326.366,951.563,-14.2649,4.6852,7.18345,
2026_07_06_19_53_10.662,3.869,34,0,0.762,0,0,0,0, ,0,0,0,0,0, ,40.8,136.2,937,-31.7,-27.1,30.2,25,-37.7198,318.791,953.954,-14.6997,3.45821,8.45196,
2026_07_06_19_53_10.675,3.869,33.8,0,0.763,0,0,0,0, ,0,0,0,0,0, ,-23.9,276.7,1056.7,-5.7,-39.6,35.9,25,-34.9063,311.945,956.568,-14.9435,1.21521,9.9509,
2026_07_06_19_53_10.705,3.869,33.7,0,0.763,0,0,0,0, ,0,0,0,0,0, ,-70.6,267.9,985.2,-6.3,-30.2,32.4,25,-35.6585,309.529,960.492,-14.3985,-0.985558,11.4255,
2026_07_06_19_53_10.715,3.869,33.8,0,0.763,0,0,0,0, ,0,0,0,0,0, ,-121.8,271.2,1062.1,1,-36.5,17.4,25,-39.3478,307.093,964.34,-13.6826,-2.95777,12.2466,
2026_07_06_19_53_10.744,3.869,34,0,0.761,0,0,0,0, ,0,0,0,0,0, ,-93.7,155,1009,11.2,-35.2,6.6,25,-43.516,301.365,968.68,-12.4771,-4.96214,12.2316,
2026_07_06_19_53_10.753,3.869,33.8,0,0.762,0,0,0,0, ,0,0,0,0,0, ,-408.4,321.4,1103.3,139.5,-26.1,-0.9,25,-56.1626,297.516,974.01,-7.12509,-6.52749,11.6599,
2026_07_06_19_53_10.783,3.869,33.7,0,0.764,0,0,0,0, ,0,0,0,0,0, ,97.1,152.2,979.8,-50.8,-25.9,-2.9,25,-62.2251,293.816,978.126,-3.98833,-7.7141,10.8336,
2026_07_06_19_53_10.794,3.869,33.8,0,0.762,0,0,0,0, ,0,0,0,0,0, ,59.8,241.6,989.1,-48.9,-36.5,-11.6,25,-53.6527,287.91,978.511,-6.78303,-9.14527,9.73164,
2026_07_06_19_53_10.824,3.869,33.8,0,0.762,0,0,0,0, ,0,0,0,0,0, ,-61.8,316.5,976.9,-63.7,-22.9,6.2,25,-50.4442,287.37,978.785,-9.80047,-10.3978,8.97408,
2026_07_06_19_53_10.833,3.869,33.8,0,0.763,0,0,0,0, ,0,0,0,0,0, ,35.1,219.7,1033.4,-53.9,2.3,35.1,25,-48.1838,286.196,980.391,-12.7864,-10.3919,9.68559,
2026_07_06_19_53_10.861,3.869,34,0,0.763,0,0,0,0, ,0,0,0,0,0, ,10.2,277.9,1091.5,-22.2,6,44.4,25,-43.8674,283.917,985.392,-14.3259,-9.50572,11.5176,
2026_07_06_19_53_10.872,3.869,33.8,0,0.762,0,0,0,0, ,0,0,0,0,0, ,50.2,289.3,914.7,-31.2,-1,17,25,-39.3539,283.898,986.471,-15.0799,-8.77412,12.6866,
2026_07_06_19_53_10.903,3.869,33.7,0,0.762,0,0,0,0, ,0,0,0,0,0, ,157.4,-26.8,844.1,-51.2,16.5,-20.9,25,-30.6304,274.596,979.946,-16.6716,-7.76718,11.7946,
2026_07_06_19_53_10.911,3.869,33.8,0,0.764,0,0,0,0, ,0,0,0,0,0, ,188.8,154.7,885.9,-40.2,47.9,-22.3,25,-18.2156,261.76,972.942,-18.4405,-5.33168,9.75966,
2026_07_06_19_53_10.942,3.869,33.8,0,0.762,0,0,0,0, ,0,0,0,0,0, ,71.1,140.7,929.9,-29.4,71.7,16.8,25,-9.18678,254.809,968.978,-19.4374,-1.36272,8.99735,
2026_07_06_19_53_10.952,3.869,33.8,0,0.761,0,0,0,0, ,0,0,0,0,0, ,-176.6,133.3,1273.3,-41.7,105.7,75.7,25,-11.8414,247.63,977.06,-20.4193,4.12548,11.2674,
2026_07_06_19_53_10.982,3.869,33.8,0,0.763,0,0,0,0, ,0,0,0,0,0, ,76.6,244.3,846.6,-19.2,181.2,96.5,25,-14.1667,244.045,982.111,-21.0305,12.6156,15.8275,
2026_07_06_19_53_10.991,3.869,33.8,0,0.762,0,0,0,0, ,0,0,0,0,0, ,-29.4,27.4,739.3,-14.9,166.3,53.6,25,-11.8653,237.452,970.584,-20.788,22.4347,19.4364,
2026_07_06_19_53_11.022,3.869,34,0,0.763,0,0,0,0, ,0,0,0,0,0, ,-165.6,125.2,1092.4,-15.5,40.9,23.6,25,-17.0837,227.632,967.249,-20.4475,27.3807,20.6042,
2026_07_06_19_53_11.031,3.869,33.8,0,0.762,0,0,0,0, ,0,0,0,0,0, ,-175.6,28.1,1162.4,-60.9,-103.4,22.2,25,-26.4386,218.431,977.008,-21.5293,23.8079,20.7441,
2026_07_06_19_53_11.060,3.869,33.7,0,0.763,0,0,0,0, ,0,0,0,0,0, ,-137.8,153.5,843.1,-37.3,-106.2,24.7,25,-34.3764,210.654,978.576,-23.2093,15.9709,20.909,
2026_07_06_19_53_11.070,3.869,33.8,0,0.762,0,0,0,0, ,0,0,0,0,0, ,-66.8,150.8,877.3,-6.4,-25.2,27.3,25,-38.5155,207.089,971.363,-23.1265,10.994,21.2192,
2026_07_06_19_53_11.100,3.869,33.7,0,0.762,0,0,0,0, ,0,0,0,0,0, ,-85.9,142.7,950.3,-13.2,45,58.1,25,-40.821,203.412,967.855,-22.3144,10.9274,22.5282,
2026_07_06_19_53_11.110,3.869,33.8,0,0.764,0,0,0,0, ,0,0,0,0,0, ,-187.8,-66.4,1094.8,-12.1,51.6,57.8,25,-46.6728,193.341,971.188,-21.7255,13.2048,24.6867,
2026_07_06_19_53_11.140,3.869,33.8,0,0.763,0,0,0,0, ,0,0,0,0,0, ,-120.9,213.7,1103.7,-27.1,16.8,25.4,25,-53.2344,186.048,978.992,-21.596,14.4842,25.7174,
2026_07_06_19_53_11.155,3.869,33.8,0,0.764,0,0,0,0, ,0,0,0,0,0, ,-266.6,218.1,1115.4,-70.7,-60.7,64.3,25,-61.797,187.867,986.948,-23.2598,12.264,26.8833,
2026_07_06_19_53_11.186,3.869,33.8,0,0.763,0,0,0,0, ,0,0,0,0,0, ,6.8,-167.1,901.8,-89.6,-102.1,92.9,25,-65.947,177.972,988.267,-26.7266,6.55631,30.0348,
2026_07_06_19_53_11.193,3.869,33.7,0,0.763,0,0,0,0, ,0,0,0,0,0, ,-59,-147.7,822.6,-50.3,-16.3,46.8,25,-63.5189,157.536,980.585,-29.3605,2.54928,32.461,
2026_07_06_19_53_11.224,3.869,33.7,0,0.763,0,0,0,0, ,0,0,0,0,0, ,-58.8,223.9,1084.5,-44.9,64.7,8.6,25,-63.2374,150.258,978.938,-30.472,3.86862,32.1709,
2026_07_06_19_53_11.230,3.869,33.8,0,0.762,0,0,0,0, ,0,0,0,0,0, ,-202.2,161.6,1078.1,-76.6,-20,35.8,25,-67.3362,152.847,985.175,-32.317,4.99483,31.5633,
2026_07_06_19_53_11.259,3.869,33.7,0,0.764,0,0,0,0, ,0,0,0,0,0, ,142.3,-235.3,1015.5,-87,-38.7,1.8,25,-65.058,141.287,988.931,-35.3324,2.90194,30.7855,
2026_07_06_19_53_11.268,3.869,33.8,0,0.763,0,0,0,0, ,0,0,0,0,0, ,188.3,-448.4,907.3,-64.1,16.9,-38.7,25,-51.0206,111.846,987.253,-37.7832,2.06089,27.7852,
2026_07_06_19_53_11.299,3.869,33.7,0,0.763,0,0,0,0, ,0,0,0,0,0, ,-127.5,-119.1,867.9,-48.1,46.2,-51.3,25,-46.059,87.7395,981.18,-38.8993,3.85788,23.3499,
2026_07_06_19_53_11.307,3.869,33.8,0,0.763,0,0,0,0, ,0,0,0,0,0, ,46.9,36.4,1098.2,-43.2,11.4,-24.5,25,-45.7081,79.8731,981.294,-39.3107,5.37779,19.6175,
2026_07_06_19_53_11.338,3.869,33.8,0,0.763,0,0,0,0, ,0,0,0,0,0, ,-73.6,-51.6,806.7,-14.9,-23.5,18.9,25,-43.7362,74.5427,979.537,-38.6854,4.68141,18.2514,
2026_07_06_19_53_11.347,3.869,33.7,0,0.763,0,0,0,0, ,0,0,0,0,0, ,-78.2,-17.7,961.6,51,28.7,-29.9,25,-45.6962,67.8888,973.724,-35.2281,4.55457,16.804,
2026_07_06_19_53_11.378,3.869,33.8,0,0.764,0,0,0,0, ,0,0,0,0,0, ,-74,-63.5,932.3,32.4,82.4,-61.5,25,-47.5489,61.2778,972.092,-30.5403,7.66211,12.9952,
2026_07_06_19_53_11.386,3.869,33.7,0,0.762,0,0,0,0, ,0,0,0,0,0, ,-112,-157.8,901.4,27.2,75.8,-40.2,25,-50.3186,50.8009,968.726,-26.8633,12.0154,9.10464,
2026_07_06_19_53_11.415,3.869,33.8,0,0.763,0,0,0,0, ,0,0,0,0,0, ,-161.2,-125.3,925.1,44.7,49.1,-22.5,25,-55.5764,39.0795,965.345,-23.0356,15.0887,6.63943,
2026_07_06_19_53_11.426,3.869,33.8,0,0.762,0,0,0,0, ,0,0,0,0,0, ,-165.6,-117.3,942.9,62.1,34.9,-13.2,25,-62.1469,29.3064,963.435,-18.3779,16.7286,5.14711,
2026_07_06_19_53_11.456,3.869,34,0,0.763,0,0,0,0, ,0,0,0,0,0, ,-140.2,-65.5,964.9,65.4,28,-17.6,25,-67.6772,21.9509,962.854,-13.3732,17.6257,3.89502,
2026_07_06_19_53_11.466,3.869,34,0,0.763,0,0,0,0, ,0,0,0,0,0, ,-164.3,-14.6,999.5,49.7,26.6,-17.2,25,-72.8308,18.1727,964.033,-9.0513,18.2152,2.59735,
2026_07_06_19_53_11.496,3.869,33.7,0,0.763,0,0,0,0, ,0,0,0,0,0, ,-164.7,-77.1,956.4,29.7,28.6,-22.2,25,-78.4169,14.2713,964.881,-6.08052,18.7871,1.23861,
2026_07_06_19_53_11.505,3.869,33.8,0,0.764,0,0,0,0, ,0,0,0,0,0, ,-140.7,-54.4,973,21.6,20.6,-17.2,25,-82.9435,9.39501,964.87,-4.14694,19.1413,-0.0373366,
2026_07_06_19_53_11.535,3.869,33.7,0,0.762,0,0,0,0, ,0,0,0,0,0, ,-133.1,-26.2,970,14.8,21.8,-5.4,25,-86.2315,6.36672,965.274,-2.78518,19.2668,-0.723655,
2026_07_06_19_53_11.545,3.869,33.8,0,0.762,0,0,0,0, ,0,0,0,0,0, ,-152,53.4,962.1,1.3,14,-4.3,25,-89.6634,6.8075,965.321,-2.12491,19.1835,-0.975104,
2026_07_06_19_53_11.576,3.869,33.8,0,0.764,0,0,0,0, ,0,0,0,0,0, ,-142.4,51,957.7,-27.9,16.7,-16.7,25,-93.1695,9.5736,964.991,-2.80589,18.9499,-1.55553,
2026_07_06_19_53_11.585,3.869,33.7,0,0.762,0,0,0,0, ,0,0,0,0,0, ,-162.5,-18.7,947.3,-41.4,16.1,-12.3,25,-96.7819,9.97435,964.23,-4.74639,18.7945,-2.34433,
2026_07_06_19_53_11.616,3.869,33.8,0,0.762,0,0,0,0, ,0,0,0,0,0, ,-192.8,-152.7,966.7,-46.4,3.7,0.3,25,-101.71,4.1442,963.789,-7.13231,18.2525,-2.5671,
2026_07_06_19_53_11.624,3.869,33.8,0,0.762,0,0,0,0, ,0,0,0,0,0, ,-187.3,-124.6,990.4,-33.1,-5.9,11.7,25,-107.093,-4.55732,964.689,-9.11995,17.0732,-2.04504,
2026_07_06_19_53_11.655,3.869,33.7,0,0.763,0,0,0,0, ,0,0,0,0,0, ,-215.2,-71,1021.4,-31.7,-6.8,5.8,25,-112.831,-10.2393,967.2,-10.5386,15.6459,-1.38722,
2026_07_06_19_53_11.663,3.869,34,0,0.762,0,0,0,0, ,0,0,0,0,0, ,-222.4,-62,1018.1,-30.3,-5.3,0,25,-119.288,-13.6677,970.402,-11.7854,14.3238,-1.12597,
2026_07_06_19_53_11.694,3.869,33.8,0,0.762,0,0,0,0, ,0,0,0,0,0, ,-219.1,-89.3,1055.9,-24,16.6,2.1,25,-125.471,-17.4447,974.461,-12.7217,13.7952,-0.993368,
2026_07_06_19_53_11.702,3.869,33.8,0,0.763,0,0,0,0, ,0,0,0,0,0, ,-280.8,-128.6,1029.1,-24.7,35.6,9.2,25,-133.057,-23.0208,978.607,-13.4303,14.545,-0.588538,
2026_07_06_19_53_11.733,3.869,33.8,0,0.762,0,0,0,0, ,0,0,0,0,0, ,-236.6,-99.1,1005.6,-18.2,18.4,8.2,25,-140.713,-28.5557,980.968,-13.919,15.304,-0.0225177,
2026_07_06_19_53_11.742,3.869,33.8,0,0.762,0,0,0,0, ,0,0,0,0,0, ,-264.5,-54.5,963.9,-12.5,11,4.3,25,-147.406,-31.4956,981.198,-14.0062,15.2672,0.359714,
2026_07_06_19_53_11.773,3.869,33.7,0,0.763,0,0,0,0, ,0,0,0,0,0, ,-259.1,-85.4,918.2,-23.1,9.1,6.9,25,-154.377,-33.8389,978.752,-14.2374,14.9493,0.679044,
2026_07_06_19_53_11.782,3.869,33.7,0,0.763,0,0,0,0, ,0,0,0,0,0, ,-237.1,-89.4,933.7,-21.9,18.4,2.1,25,-160.088,-37.1028,975.534,-14.7409,14.8762,0.911883,
2026_07_06_19_53_11.812,3.869,33.7,0,0.762,0,0,0,0, ,0,0,0,0,0, ,-226.8,-107.2,816.7,-51.7,23.4,5.2,25,-164.467,-40.832,969.42,-16.0851,15.2433,1.07874,
2026_07_06_19_53_11.825,3.869,33.8,0,0.763,0,0,0,0, ,0,0,0,0,0, ,-317.7,-70.5,895.8,-58.4,25.9,4.7,25,-171.035,-43.7581,962.524,-18.4596,15.8165,1.31464,
2026_07_06_19_53_11.855,3.869,33.7,0,0.763,0,0,0,0, ,0,0,0,0,0, ,-287.2,-179.9,944.4,-57.4,29.4,5,25,-179.043,-48.721,959.938,-20.863,16.5376,1.53008,
2026_07_06_19_53_11.861,3.869,33.7,0,0.763,0,0,0,0, ,0,0,0,0,0, ,-297.6,-305,1076.2,-18,3.3,18.1,25,-185.951,-60.5263,963.007,-21.889,16.5262,2.14067,
2026_07_06_19_53_11.892,3.869,33.8,0,0.763,0,0,0,0, ,0,0,0,0,0, ,-229.7,-187.6,1005.4,33.4,-28.9,7,25,-190.686,-71.8469,967.748,-20.0859,14.7391,2.77499,
2026_07_06_19_53_11.900,3.869,33.7,0,0.762,0,0,0,0, ,0,0,0,0,0, ,-253.9,-76.7,951.9,37,-22.3,8.5,25,-193.801,-75.5216,968.412,-16.7169,12.2809,3.07815,
2026_07_06_19_53_11.932,3.869,33.8,0,0.761,0,0,0,0, ,0,0,0,0,0, ,-262.3,-117.7,937.2,36.4,-23.9,6.8,25,-197.719,-76.8427,966.958,-13.4618,10.1249,3.35675,
2026_07_06_19_53_11.940,3.869,33.7,0,0.763,0,0,0,0, ,0,0,0,0,0, ,-280.5,-79.5,961.5,38.2,-20.7,1.6,25,-202.209,-78.1685,965.885,-10.3685,8.14902,3.40813,
2026_07_06_19_53_11.971,3.869,33.7,0,0.763,0,0,0,0, ,0,0,0,0,0, ,-267.4,-116.6,970.4,36.4,-17.2,-4.9,25,-206.581,-79.38,965.889,-7.46371,6.49767,3.0999,
2026_07_06_19_53_11.981,3.869,33.8,0,0.761,0,0,0,0, ,0,0,0,0,0, ,-267.5,-83.4,963.7,40,-16.9,-4.8,25,-210.29,-80.6366,965.96,-4.68108,5.06274,2.61546,
2026_07_06_19_53_12.011,3.869,33.8,0,0.763,0,0,0,0, ,0,0,0,0,0, ,-214.3,-86.9,979.6,43.8,-7.9,-2.9,25,-212.155,-80.9116,966.307,-1.84255,3.9986,2.22147,
2026_07_06_19_53_12.020,3.869,33.8,0,0.763,0,0,0,0, ,0,0,0,0,0, ,-226.1,-67.7,962.6,46.7,-7.3,1.3,25,-212.645,-80.6915,966.599,1.02715,3.29181,2.03735,
2026_07_06_19_53_12.050,3.869,33.8,0,0.762,0,0,0,0, ,0,0,0,0,0, ,-235.4,-49,984.2,41.6,-9.1,2.3,25,-213.749,-79.3301,967.013,3.65495,2.59153,2.02288,
2026_07_06_19_53_12.059,3.869,33.8,0,0.762,0,0,0,0, ,0,0,0,0,0, ,-236.3,-25.5,971,38,-8.3,2.2,25,-215.095,-76.7658,967.658,5.85754,1.90345,2.03672,
2026_07_06_19_53_12.091,3.869,33.7,0,0.764,0,0,0,0, ,0,0,0,0,0, ,-220.8,-18.4,979.3,36.5,-7.5,2.7,25,-215.915,-73.4255,968.115,7.77052,1.30605,2.06191,
2026_07_06_19_53_12.099,3.869,33.7,0,0.763,0,0,0,0, ,0,0,0,0,0, ,-240.8,3.6,989.5,20.2,-2.6,5.5,25,-216.822,-69.4021,969.107,9.02458,0.918733,2.1861,
2026_07_06_19_53_12.130,3.869,33.8,0,0.763,0,0,0,0, ,0,0,0,0,0, ,-196.6,13.4,968.5,6.2,-2.5,6.7,25,-216.937,-64.6549,969.71,9.27902,0.707357,2.42461,
2026_07_06_19_53_12.138,3.869,33.8,0,0.763,0,0,0,0, ,0,0,0,0,0, ,-228.7,5.3,987.6,3.1,-4.1,3.5,25,-216.676,-60.1452,970.218,8.99694,0.463159,2.58764,
2026_07_06_19_53_12.170,3.869,33.7,0,0.763,0,0,0,0, ,0,0,0,0,0, ,-234.9,16.1,972,0.6,-8.2,1.3,25,-217.597,-55.8281,970.802,8.56142,0.0601694,2.5762,
2026_07_06_19_53_12.178,3.869,33.8,0,0.762,0,0,0,0, ,0,0,0,0,0, ,-197.1,-11.8,986,-1.6,-2.8,5.9,25,-217.5,-52.2951,971.302,8.00924,-0.278653,2.63859,
2026_07_06_19_53_12.211,3.869,33.7,0,0.761,0,0,0,0, ,0,0,0,0,0, ,-167.9,8.3,992.7,3.5,-0.8,13.7,25,-215.367,-49.215,972.401,7.57907,-0.37136,3.07499,
2026_07_06_19_53_12.218,3.869,33.7,0,0.764,0,0,0,0, ,0,0,0,0,0, ,-229.4,29.6,982.6,7.3,-0.1,8.7,25,-214.348,-45.0612,973.331,7.44628,-0.376153,3.57011,
2026_07_06_19_53_12.250,3.869,33.8,0,0.763,0,0,0,0, ,0,0,0,0,0, ,-243.1,20.2,973,4.7,1.2,5.3,25,-215.683,-40.7979,973.603,7.35815,-0.319715,3.77912,
2026_07_06_19_53_12.258,3.869,33.8,0,0.763,0,0,0,0, ,0,0,0,0,0, ,-245.4,29.2,977.4,3.5,1.5,3.4,25,-217.424,-36.8066,973.7,7.15961,-0.217967,3.81391,
2026_07_06_19_53_12.290,3.869,33.7,0,0.763,0,0,0,0, ,0,0,0,0,0, ,-228.1,11.2,981.3,5,3.4,4,25,-218.601,-33.3328,974.045,6.9823,-0.0553877,3.80696,
2026_07_06_19_53_12.297,3.869,33.7,0,0.763,0,0,0,0, ,0,0,0,0,0, ,-220.3,19.4,984.1,7.4,3.1,5,25,-218.943,-30.3692,974.572,6.93463,0.146034,3.8492,
2026_07_06_19_53_12.328,3.869,33.8,0,0.762,0,0,0,0, ,0,0,0,0,0, ,-225.3,18.6,975.5,4.9,2.3,3.1,25,-219.178,-27.3608,974.891,6.88682,0.301667,3.86143,
2026_07_06_19_53_12.336,3.869,33.7,0,0.762,0,0,0,0, ,0,0,0,0,0, ,-225.8,25.6,973.8,1,0.8,0.8,25,-219.566,-24.3468,974.876,6.64692,0.377737,3.74495,
2026_07_06_19_53_12.368,3.869,33.8,0,0.762,0,0,0,0, ,0,0,0,0,0, ,-229,19.7,980.3,0.3,0,-0.9,25,-220.043,-21.4829,975.008,6.28148,0.379094,3.5137,
2026_07_06_19_53_12.376,3.869,33.7,0,0.763,0,0,0,0, ,0,0,0,0,0, ,-220.2,17,983.6,0,0.3,-0.1,25,-220.321,-19.0556,975.431,5.90784,0.365133,3.26911,
2026_07_06_19_53_12.407,3.869,33.8,0,0.763,0,0,0,0, ,0,0,0,0,0, ,-230.4,20.9,978.5,0,0.5,-0.1,25,-220.624,-16.7396,975.774,5.54783,0.367258,3.06381,
2026_07_06_19_53_12.415,3.869,33.7,0,0.761,0,0,0,0, ,0,0,0,0,0, ,-238.5,21.3,973,-0.6,0.5,0,25,-221.467,-14.4338,975.772,5.19148,0.375347,2.87406,
2026_07_06_19_53_12.446,3.869,33.8,0,0.762,0,0,0,0, ,0,0,0,0,0, ,-231.8,25.3,976.8,-0.6,-0.3,-1.6,25,-222.301,-12.1344,975.719,4.83856,0.358568,2.65017,
2026_07_06_19_53_12.455,3.869,33.8,0,0.763,0,0,0,0, ,0,0,0,0,0, ,-226.1,23,978,-0.4,-0.3,-1.5,25,-222.706,-9.92329,975.822,4.51324,0.318436,2.39423,
2026_07_06_19_53_12.485,3.869,33.8,0,0.762,0,0,0,0, ,0,0,0,0,0, ,-231.8,27.9,974.7,-0.7,0,-1,25,-223.086,-7.76773,975.854,4.2047,0.289891,2.17216,
2026_07_06_19_53_12.495,3.869,33.8,0,0.761,0,0,0,0, ,0,0,0,0,0, ,-229.8,23.3,977.4,-0.7,0,-1.8,25,-223.556,-5.73439,975.866,3.90582,0.272226,1.95448,
2026_07_06_19_53_12.528,3.869,33.8,0,0.761,0,0,0,0, ,0,0,0,0,0, ,-231.2,25.1,975.3,-1,-0.2,-2.1,25,-223.98,-3.91026,975.895,3.61602,0.249543,1.71655,
2026_07_06_19_53_12.534,3.869,33.7,0,0.762,0,0,0,0, ,0,0,0,0,0, ,-230.2,22.2,973.7,-1.8,-0.9,-2.7,25,-224.389,-2.23081,975.81,3.31035,0.200821,1.4657,
2026_07_06_19_53_12.565,3.869,33.8,0,0.763,0,0,0,0, ,0,0,0,0,0, ,-229.9,20.7,977.6,-2,-0.5,-1.6,25,-224.734,-0.787758,975.801,2.99285,0.145927,1.24536,
2026_07_06_19_53_12.574,3.869,33.8,0,0.763,0,0,0,0, ,0,0,0,0,0, ,-230.8,22.2,976.6,-2.3,-0.3,-1,25,-225.076,0.567355,975.88,2.67945,0.11266,1.09026,
2026_07_06_19_53_12.613,3.869,33.7,0,0.761,0,0,0,0, ,0,0,0,0,0, ,-231.6,25.5,976,-2.4,0,-1.2,25,-225.449,1.98614,975.905,2.37297,0.0966541,0.956788,
2026_07_06_19_53_12.613,3.869,33.8,0,0.763,0,0,0,0, ,0,0,0,0,0, ,-229.3,23,977.6,-2.1,-0.2,-1.1,25,-225.754,3.34284,975.96,2.09126,0.0846705,0.828405,
2026_07_06_19_53_12.645,3.869,33.7,0,0.761,0,0,0,0, ,0,0,0,0,0, ,-231.6,23.6,974.7,-2,-0.5,-1.3,25,-226.04,4.55898,975.971,1.8389,0.0581828,0.704799,
2026_07_06_19_53_12.653,3.869,33.8,0,0.762,0,0,0,0, ,0,0,0,0,0, ,-229.6,22.8,973.3,-1.7,-0.2,-1.5,25,-226.318,5.69492,975.851,1.61411,0.0333091,0.576538,
2026_07_06_19_53_12.685,3.869,33.8,0,0.761,0,0,0,0, ,0,0,0,0,0, ,-234.3,19.7,976.1,-1.1,-0.1,-1,25,-226.661,6.64281,975.781,1.43044,0.0221387,0.465234,
2026_07_06_19_53_12.692,3.869,33.8,0,0.763,0,0,0,0, ,0,0,0,0,0, ,-231.9,19,976.1,-0.3,0,-1.2,25,-227.054,7.41715,975.801,1.30061,0.0177428,0.369852,
2026_07_06_19_53_12.723,3.869,33.8,0,0.763,0,0,0,0, ,0,0,0,0,0, ,-229,21.1,975.8,-0.2,-0.6,-1.7,25,-227.261,8.18697,975.81,1.20612,-0.00161966,0.258955,
2026_07_06_19_53_12.732,3.869,33.7,0,0.763,0,0,0,0, ,0,0,0,0,0, ,-234.3,22.7,977.4,-0.4,-1,-2.1,25,-227.528,9.0226,975.858,1.11434,-0.050271,0.127394,
2026_07_06_19_53_12.765,3.869,33.7,0,0.763,0,0,0,0, ,0,0,0,0,0, ,-231.3,23.3,977.1,0,-0.8,-1.5,25,-227.849,9.87435,975.943,1.03425,-0.102051,0.00994305,
2026_07_06_19_53_12.772,3.869,33.8,0,0.763,0,0,0,0, ,0,0,0,0,0, ,-229.8,20.5,977.1,0.4,-0.5,-1.4,25,-228.014,10.6072,976.013,0.983413,-0.135442,-0.0790222,
2026_07_06_19_53_12.805,3.869,33.7,0,0.761,0,0,0,0, ,0,0,0,0,0, ,-231.2,21.6,975.5,0.2,-0.7,-1.8,25,-228.165,11.2435,976.031,0.941768,-0.163751,-0.171707,
2026_07_06_19_53_12.811,3.869,33.8,0,0.761,0,0,0,0, ,0,0,0,0,0, ,-234.2,22.7,974.1,-0.1,-1,-1.8,25,-228.442,11.9081,975.956,0.887426,-0.205569,-0.270931,
2026_07_06_19_53_12.844,3.869,33.8,0,0.762,0,0,0,0, ,0,0,0,0,0, ,-230.7,23.3,977,0.1,-0.7,-1.8,25,-228.686,12.584,975.931,0.833348,-0.244839,-0.364109,
2026_07_06_19_53_12.851,3.869,33.8,0,0.763,0,0,0,0, ,0,0,0,0,0, ,-227.4,22.3,976.5,0.6,-0.3,-1.2,25,-228.708,13.2066,975.981,0.803894,-0.260388,-0.433327,
2026_07_06_19_53_12.882,3.869,33.7,0,0.763,0,0,0,0, ,0,0,0,0,0, ,-228.1,26,974.8,0.4,0,-1.2,25,-228.65,13.8734,975.961,0.785376,-0.253661,-0.480046,
2026_07_06_19_53_12.890,3.869,33.8,0,0.763,0,0,0,0, ,0,0,0,0,0, ,-233.1,24.7,973.2,0.2,-0.5,-1.7,25,-228.769,14.5728,975.841,0.755798,-0.253438,-0.539153,
2026_07_06_19_53_12.924,3.869,33.8,0,0.763,0,0,0,0, ,0,0,0,0,0, ,-232.5,22.7,975.2,0,-0.6,-1.3,25,-229.014,15.129,975.741,0.715835,-0.27151,-0.597704,
2026_07_06_19_53_12.930,3.869,34,0,0.762,0,0,0,0, ,0,0,0,0,0, ,-229.7,25.7,975.8,0.3,-0.6,-0.7,25,-229.141,15.6818,975.727,0.681355,-0.291527,-0.622219,
2026_07_06_19_53_12.963,3.869,33.7,0,0.761,0,0,0,0, ,0,0,0,0,0, ,-230.8,25.2,973.8,0.7,-0.5,-0.8,25,-229.209,16.277,975.67,0.670304,-0.307278,-0.630006,
2026_07_06_19_53_12.970,3.869,33.7,0,0.762,0,0,0,0, ,0,0,0,0,0, ,-229.4,25.2,976.6,0.5,-0.8,-1.3,25,-229.263,16.8208,975.641,0.666019,-0.328163,-0.655599,
2026_07_06_19_53_13.002,3.869,33.8,0,0.763,0,0,0,0, ,0,0,0,0,0, ,-229.4,25.5,975.4,0.5,-0.8,-1.1,25,-229.272,17.3405,975.663,0.655903,-0.356915,-0.688774,
2026_07_06_19_53_13.009,3.869,34,0,0.763,0,0,0,0, ,0,0,0,0,0, ,-231.6,27.9,976,0.7,-0.7,-1.2,25,-229.346,17.9108,975.665,0.652496,-0.380869,-0.71688,
2026_07_06_19_53_13.041,3.869,33.8,0,0.763,0,0,0,0, ,0,0,0,0,0, ,-234.4,30.1,973.7,0.2,-0.7,-1.4,25,-229.569,18.5866,975.616,0.640156,-0.400316,-0.752413,
2026_07_06_19_53_13.049,3.869,33.8,0,0.764,0,0,0,0, ,0,0,0,0,0, ,-228.8,31.4,975.5,-0.4,-0.5,-1.2,25,-229.693,19.3278,975.554,0.595053,-0.412484,-0.785782,
2026_07_06_19_53_13.080,3.869,33.8,0,0.763,0,0,0,0, ,0,0,0,0,0, ,-229.2,28.1,976,-0.6,-0.4,-1.3,25,-229.651,19.9629,975.566,0.528323,-0.41477,-0.81407,
2026_07_06_19_53_13.088,3.869,33.7,0,0.763,0,0,0,0, ,0,0,0,0,0, ,-227.7,25.1,977.1,-0.2,-0.5,-0.9,25,-229.577,20.3674,975.626,0.471754,-0.416917,-0.831494,
2026_07_06_19_53_13.120,3.869,33.7,0,0.763,0,0,0,0, ,0,0,0,0,0, ,-232.5,30.3,975.9,-0.6,-0.7,-1.1,25,-229.609,20.8142,975.679,0.418631,-0.428074,-0.841762,
2026_07_06_19_53_13.127,3.869,33.7,0,0.761,0,0,0,0, ,0,0,0,0,0, ,-230.4,26.4,976.3,-0.9,-0.6,-1,25,-229.721,21.2734,975.705,0.347418,-0.441597,-0.854452,
2026_07_06_19_53_13.160,3.869,33.7,0,0.763,0,0,0,0, ,0,0,0,0,0, ,-230.1,27.9,975,-1.1,-0.4,-0.9,25,-229.754,21.6315,975.701,0.265309,-0.445156,-0.860274,
2026_07_06_19_53_13.168,3.869,33.7,0,0.762,0,0,0,0, ,0,0,0,0,0, ,-229.7,29.6,975.2,-1,-0.3,-0.8,25,-229.763,22.0653,975.665,0.185158,-0.439358,-0.859648,
2026_07_06_19_53_13.199,3.869,33.8,0,0.762,0,0,0,0, ,0,0,0,0,0, ,-230.4,29.6,975,-0.9,-0.4,-1.4,25,-229.78,22.5244,975.63,0.115984,-0.433912,-0.874295,
2026_07_06_19_53_13.207,3.869,33.7,0,0.763,0,0,0,0, ,0,0,0,0,0, ,-231.2,28,975.4,-0.7,-0.3,-1.4,25,-229.842,22.9068,975.604,0.0601664,-0.428799,-0.90633,
2026_07_06_19_53_13.241,3.869,33.7,0,0.761,0,0,0,0, ,0,0,0,0,0, ,-232.4,31.3,975.5,-0.8,-0.5,-1.4,25,-229.962,23.3178,975.595,0.0107968,-0.427044,-0.936413,
2026_07_06_19_53_13.247,3.869,33.8,0,0.762,0,0,0,0, ,0,0,0,0,0, ,-232.1,31.1,974.2,-1.1,-0.3,-1.2,25,-230.101,23.7981,975.549,-0.0477517,-0.425396,-0.958569,
2026_07_06_19_53_13.278,3.869,33.8,0,0.763,0,0,0,0, ,0,0,0,0,0, ,-232.6,28.4,975.5,-1.1,-0.4,-1.1,25,-230.238,24.1608,975.507,-0.111873,-0.420802,-0.970234,
2026_07_06_19_53_13.285,3.869,33.8,0,0.762,0,0,0,0, ,0,0,0,0,0, ,-229.9,25.5,974.9,-0.5,-0.5,-1.1,25,-230.3,24.3307,975.488,-0.153806,-0.422581,-0.978142,
2026_07_06_19_53_13.318,3.869,33.7,0,0.762,0,0,0,0, ,0,0,0,0,0, ,-231.3,28.1,975.5,0,-0.5,-1.2,25,-230.318,24.4812,975.47,-0.159668,-0.427299,-0.988615,
2026_07_06_19_53_13.325,3.869,33.7,0,0.761,0,0,0,0, ,0,0,0,0,0, ,-232.2,27.7,974.3,-0.1,-0.7,-1.8,25,-230.405,24.6895,975.436,-0.152985,-0.437823,-1.01978,
2026_07_06_19_53_13.358,3.869,33.7,0,0.762,0,0,0,0, ,0,0,0,0,0, ,-231.3,27.4,974.7,-0.5,-0.6,-1.9,25,-230.487,24.8639,975.379,-0.161944,-0.450752,-1.07037,
2026_07_06_19_53_13.365,3.869,33.8,0,0.762,0,0,0,0, ,0,0,0,0,0, ,-230.9,30.5,977.2,-0.7,-0.6,-2,25,-230.525,25.1129,975.414,-0.188638,-0.459847,-1.12397,
2026_07_06_19_53_13.399,3.869,33.7,0,0.763,0,0,0,0, ,0,0,0,0,0, ,-231.5,31.2,975.9,-0.6,-0.5,-1.4,25,-230.566,25.4625,975.483,-0.216752,-0.465341,-1.15907,
2026_07_06_19_53_13.404,3.869,33.8,0,0.763,0,0,0,0, ,0,0,0,0,0, ,-230.8,28.4,975.3,-0.4,-0.6,-1.7,25,-230.601,25.7268,975.49,-0.234012,-0.4705,-1.1829,
2026_07_06_19_53_13.439,3.869,33.7,0,0.763,0,0,0,0, ,0,0,0,0,0, ,-231.9,30.7,976.1,-0.5,-0.7,-2,25,-230.647,25.9598,975.503,-0.247174,-0.481438,-1.22355,
2026_07_06_19_53_13.446,3.869,33.7,0,0.762,0,0,0,0, ,0,0,0,0,0, ,-229.8,32.1,974.2,-1.3,-0.6,-2,25,-230.659,26.2913,975.481,-0.286956,-0.49171,-1.27086,
2026_07_06_19_53_13.480,3.869,33.7,0,0.764,0,0,0,0, ,0,0,0,0,0, ,-230.1,30.1,976.4,-1.8,-0.5,-2,25,-230.616,26.5843,975.47,-0.363922,-0.495262,-1.31529,
2026_07_06_19_53_13.486,3.869,33.7,0,0.762,0,0,0,0, ,0,0,0,0,0, ,-230.5,29.2,975.4,-1,-0.6,-2.3,25,-230.597,26.7711,975.496,-0.427058,-0.498597,-1.36616,
2026_07_06_19_53_13.518,3.869,33.8,0,0.763,0,0,0,0, ,0,0,0,0,0, ,-228.7,29.6,975.3,-0.4,-0.7,-2.1,25,-230.536,26.9313,975.487,-0.443691,-0.507823,-1.41697,
2026_07_06_19_53_13.525,3.869,33.8,0,0.762,0,0,0,0, ,0,0,0,0,0, ,-233.3,29,975.3,-0.8,-0.9,-2.2,25,-230.564,27.0757,975.476,-0.453216,-0.525628,-1.46164,
2026_07_06_19_53_13.560,3.869,33.7,0,0.762,0,0,0,0, ,0,0,0,0,0, ,-229.3,28,975.9,-1.2,-0.9,-1.9,25,-230.609,27.1625,975.484,-0.486535,-0.548441,-1.49749,
2026_07_06_19_53_13.566,3.869,33.7,0,0.762,0,0,0,0, ,0,0,0,0,0, ,-232,30.3,978.3,-1.3,-0.5,-1.4,25,-230.612,27.2836,975.582,-0.533059,-0.557677,-1.50679,
2026_07_06_19_53_13.599,3.869,34,0,0.762,0,0,0,0, ,0,0,0,0,0, ,-231,27.2,974.1,-0.9,-0.5,-1.5,25,-230.666,27.3729,975.62,-0.567607,-0.554162,-1.50333,
2026_07_06_19_53_13.605,3.869,33.7,0,0.762,0,0,0,0, ,0,0,0,0,0, ,-232.4,27.7,975.4,-0.5,-0.6,-1.5,25,-230.729,27.3776,975.567,-0.575675,-0.553909,-1.50312,
2026_07_06_19_53_13.638,3.869,33.8,0,0.763,0,0,0,0, ,0,0,0,0,0, ,-229.8,28.1,976,-0.4,-0.8,-1.7,25,-230.751,27.4095,975.575,-0.568016,-0.562811,-1.50903,
2026_07_06_19_53_13.644,3.869,33.7,0,0.762,0,0,0,0, ,0,0,0,0,0, ,-230.7,29.5,974.8,0,-0.5,-1.7,25,-230.721,27.4942,975.564,-0.54559,-0.568124,-1.52066,
2026_07_06_19_53_13.683,3.869,33.7,0,0.763,0,0,0,0, ,0,0,0,0,0, ,-229,30.3,977.4,0.2,-0.6,-1.6,25,-230.668,27.6408,975.597,-0.50625,-0.56702,-1.52855,
2026_07_06_19_53_13.683,3.869,33.7,0,0.763,0,0,0,0, ,0,0,0,0,0, ,-231.9,29,976.1,0.1,-0.9,-1.5,25,-230.655,27.7632,975.667,-0.46626,-0.57817,-1.52985,
2026_07_06_19_53_13.716,3.869,33.7,0,0.762,0,0,0,0, ,0,0,0,0,0, ,-229.8,29.7,975.8,0.3,-0.9,-1.5,25,-230.666,27.8599,975.684,-0.425659,-0.597782,-1.52803,
2026_07_06_19_53_13.723,3.869,33.8,0,0.761,0,0,0,0, ,0,0,0,0,0, ,-229.8,30.1,977,0.1,-0.9,-1.2,25,-230.614,27.9842,975.728,-0.387533,-0.616198,-1.51718,
2026_07_06_19_53_13.758,3.869,33.8,0,0.763,0,0,0,0, ,0,0,0,0,0, ,-232.2,34.1,974.3,0,-0.9,-1,25,-230.637,28.2351,975.723,-0.360871,-0.633492,-1.49176,
2026_07_06_19_53_13.764,3.869,33.8,0,0.762,0,0,0,0, ,0,0,0,0,0, ,-229.3,35.4,973.7,-0.8,-0.6,-1.2,25,-230.644,28.6321,975.618,-0.363255,-0.640592,-1.46789,
2026_07_06_19_53_13.798,3.869,33.8,0,0.763,0,0,0,0, ,0,0,0,0,0, ,-230.5,29.7,974.8,-0.7,-0.4,-1.4,25,-230.599,28.8708,975.535,-0.386823,-0.632025,-1.45766,
2026_07_06_19_53_13.804,3.869,33.8,0,0.763,0,0,0,0, ,0,0,0,0,0, ,-230.7,29.7,975.8,-0.6,-0.5,-1.3,25,-230.599,28.9213,975.521,-0.40286,-0.620932,-1.4511,
2026_07_06_19_53_13.837,3.869,33.7,0,0.762,0,0,0,0, ,0,0,0,0,0, ,-231.3,31.4,974.9,-0.3,-0.4,-1.5,25,-230.623,29.0206,975.51,-0.405733,-0.610516,-1.44798,
