UTC_Time,Vin,TC1,TC2,Rh1,Vh1,Ah1,Acp1,Dty1,Err1,Rh2,Vh2,Ah2,Acp2,Dty2,Err2,Accel_x,Accel_y,Accel_z,gyro_x,gyro_y,gyro_z,Temp_c,Accel_x_h,Accel_y_h,Accel_z_h,gyro_x_h,gyro_y_h,gyro_z_h,
2026_07_06_21_03_33.481,3.858,36.4,0,0.764,0,0,0,0, ,0,0,0,0,0, ,-40.7,420.5,906,-0.3,-0.5,-1.7,25,-40.7,420.5,906,-0.3,-0.5,-1.7,
2026_07_06_21_03_33.493,3.858,36.3,0,0.763,0,0,0,0, ,0,0,0,0,0, ,-41.1,419.3,905.7,-0.4,-0.5,-1.7,25,-40.7122,420.463,905.991,-0.303047,-0.5,-1.7,
2026_07_06_21_03_33.514,3.858,36.4,0,0.763,0,0,0,0, ,0,0,0,0,0, ,-41.5,419.9,906.9,-0.5,-0.6,-1.7,25,-40.748,420.411,906.01,-0.312002,-0.503047,-1.7,
2026_07_06_21_03_33.534,3.858,36.3,0,0.764,0,0,0,0, ,0,0,0,0,0, ,-40,420.5,905.2,-0.5,-0.5,-1.7,25,-40.7481,420.398,906.012,-0.323458,-0.505908,-1.7,
2026_07_06_21_03_33.553,3.858,36.3,0,0.764,0,0,0,0, ,0,0,0,0,0, ,-40,420.7,906.4,-0.5,-0.5,-1.7,25,-40.7025,420.41,905.999,-0.334216,-0.505548,-1.7,
2026_07_06_21_03_33.573,3.858,36.4,0,0.764,0,0,0,0, ,0,0,0,0,0, ,-39,421.8,906.4,-0.5,-0.6,-1.7,25,-40.6293,420.461,906.024,-0.344318,-0.508257,-1.7,
2026_07_06_21_03_33.593,3.858,36.3,0,0.764,0,0,0,0, ,0,0,0,0,0, ,-40.1,421.7,906.9,-0.5,-0.5,-1.6,25,-40.5635,420.54,906.062,-0.353805,-0.510801,-1.69695,
2026_07_06_21_03_33.613,3.858,36.3,0,0.764,0,0,0,0, ,0,0,0,0,0, ,-41.5,421.5,904.4,-0.5,-0.6,-1.6,25,-40.5779,420.605,906.037,-0.362714,-0.513189,-1.69105,
2026_07_06_21_03_33.632,3.858,36.3,0,0.763,0,0,0,0, ,0,0,0,0,0, ,-40,420.6,907.5,-0.4,-0.5,-1.7,25,-40.5884,420.632,906.031,-0.368033,-0.515432,-1.68854,
2026_07_06_21_03_33.652,3.858,36.3,0,0.764,0,0,0,0, ,0,0,0,0,0, ,-41.1,421.1,906,-0.4,-0.5,-1.7,25,-40.5861,420.645,906.075,-0.369981,-0.514492,-1.68924,
2026_07_06_21_03_33.672,3.858,36.4,0,0.763,0,0,0,0, ,0,0,0,0,0, ,-40.8,421.1,906.6,-0.4,-0.6,-1.7,25,-40.6082,420.673,906.089,-0.37181,-0.516656,-1.6899,
2026_07_06_21_03_33.692,3.858,36.3,0,0.764,0,0,0,0, ,0,0,0,0,0, ,-39.1,421.9,905.7,-0.3,-0.5,-1.7,25,-40.5681,420.723,906.093,-0.370481,-0.518688,-1.69051,
2026_07_06_21_03_33.712,3.858,36.3,0,0.763,0,0,0,0, ,0,0,0,0,0, ,-41.1,420.7,904.5,-0.3,-0.5,-1.7,25,-40.5396,420.758,906.032,-0.366186,-0.517549,-1.69109,
2026_07_06_21_03_33.732,3.858,36.3,0,0.764,0,0,0,0, ,0,0,0,0,0, ,-40.4,419.4,905.7,-0.3,-0.5,-1.6,25,-40.5524,420.715,905.975,-0.362153,-0.51648,-1.68859,
2026_07_06_21_03_33.751,3.858,36.4,0,0.765,0,0,0,0, ,0,0,0,0,0, ,-41,418.9,905.6,-0.4,-0.6,-1.7,25,-40.5614,420.62,905.956,-0.361412,-0.518522,-1.68624,
2026_07_06_21_03_33.771,3.858,36.4,0,0.764,0,0,0,0, ,0,0,0,0,0, ,-40.7,420,906.8,-0.5,-0.5,-1.7,25,-40.579,420.548,905.97,-0.366811,-0.52044,-1.68707,
2026_07_06_21_03_33.791,3.858,36.3,0,0.764,0,0,0,0, ,0,0,0,0,0, ,-40.7,419.9,906.3,-0.5,-0.5,-1.7,25,-40.5864,420.512,906.006,-0.374927,-0.519195,-1.68786,
2026_07_06_21_03_33.810,3.858,36.3,0,0.764,0,0,0,0, ,0,0,0,0,0, ,-41.6,421,905.5,-0.3,-0.6,-1.6,25,-40.6207,420.508,905.999,-0.376455,-0.521072,-1.68556,
2026_07_06_21_03_33.830,3.858,36.3,0,0.764,0,0,0,0, ,0,0,0,0,0, ,-41.5,421.7,905.5,-0.4,-0.5,-1.7,25,-40.6773,420.56,905.969,-0.374843,-0.522835,-1.68339,
2026_07_06_21_03_33.850,3.858,36.4,0,0.765,0,0,0,0, ,0,0,0,0,0, ,-39.7,421.6,905.7,-0.3,-0.5,-1.6,25,-40.6726,420.626,905.946,-0.373329,-0.521443,-1.68135,
2026_07_06_21_03_33.870,3.858,36.3,0,0.765,0,0,0,0, ,0,0,0,0,0, ,-39.4,421.2,905.2,-0.5,-0.5,-1.8,25,-40.6042,420.673,905.916,-0.374954,-0.520137,-1.68249,
2026_07_06_21_03_33.889,3.858,36.3,0,0.764,0,0,0,0, ,0,0,0,0,0, ,-40.8,421.2,904.7,-0.3,-0.5,-1.7,25,-40.5735,420.705,905.857,-0.37648,-0.51891,-1.6866,
2026_07_06_21_03_33.909,3.858,36.4,0,0.763,0,0,0,0, ,0,0,0,0,0, ,-40.6,420.5,905.7,-0.5,-0.6,-1.7,25,-40.5812,420.714,905.817,-0.377914,-0.520804,-1.68742,
2026_07_06_21_03_33.930,3.858,36.3,0,0.763,0,0,0,0, ,0,0,0,0,0, ,-40.7,420,906,-0.6,-0.5,-1.6,25,-40.5854,420.686,905.819,-0.3884,-0.522583,-1.68514,
2026_07_06_21_03_33.950,3.858,36.3,0,0.763,0,0,0,0, ,0,0,0,0,0, ,-40.6,421.6,905.5,-0.5,-0.5,-1.7,25,-40.5893,420.693,905.815,-0.398248,-0.521207,-1.683,
2026_07_06_21_03_33.970,3.858,36.3,0,0.763,0,0,0,0, ,0,0,0,0,0, ,-40.8,421.1,906.1,-0.5,-0.6,-1.6,25,-40.5961,420.733,905.814,-0.404448,-0.522962,-1.68099,
2026_07_06_21_03_33.989,3.858,36.3,0,0.763,0,0,0,0, ,0,0,0,0,0, ,-39.7,419.9,905.6,-0.6,-0.5,-1.6,25,-40.575,420.719,905.816,-0.413318,-0.524609,-1.67605,
2026_07_06_21_03_34.008,3.858,36.3,0,0.764,0,0,0,0, ,0,0,0,0,0, ,-41.3,420.6,906.2,-0.5,-0.5,-1.7,25,-40.5704,420.69,905.821,-0.421647,-0.52311,-1.67447,
2026_07_06_21_03_34.028,3.858,36.4,0,0.764,0,0,0,0, ,0,0,0,0,0, ,-41.1,421.2,906.1,-0.5,-0.5,-1.6,25,-40.6088,420.703,905.841,-0.426421,-0.521701,-1.67297,
2026_07_06_21_03_34.048,3.858,36.3,0,0.764,0,0,0,0, ,0,0,0,0,0, ,-40.4,420.6,905.5,-0.3,-0.5,-1.7,25,-40.6174,420.715,905.839,-0.424811,-0.520379,-1.67157,
2026_07_06_21_03_34.068,3.858,36.4,0,0.763,0,0,0,0, ,0,0,0,0,0, ,-40.4,422.6,907.2,-0.2,-0.5,-1.6,25,-40.6041,420.769,905.87,-0.414159,-0.519137,-1.67026,
2026_07_06_21_03_34.088,3.858,36.3,0,0.765,0,0,0,0, ,0,0,0,0,0, ,-40.8,421.6,907.1,-0.3,-0.5,-1.7,25,-40.6039,420.85,905.948,-0.404155,-0.517971,-1.66902,
2026_07_06_21_03_34.108,3.858,36.4,0,0.764,0,0,0,0, ,0,0,0,0,0, ,-39.9,420.5,906.4,-0.3,-0.5,-1.7,25,-40.5884,420.862,905.997,-0.397808,-0.516876,-1.67091,
2026_07_06_21_03_34.127,3.858,36.3,0,0.765,0,0,0,0, ,0,0,0,0,0, ,-40.4,421,906.4,-0.4,-0.6,-1.8,25,-40.5617,420.855,906.021,-0.394895,-0.518894,-1.67573,
2026_07_06_21_03_34.147,3.858,36.3,0,0.766,0,0,0,0, ,0,0,0,0,0, ,-40.4,420.4,906,-0.5,-0.5,-1.7,25,-40.5518,420.846,906.032,-0.398253,-0.52079,-1.68026,
2026_07_06_21_03_34.167,3.858,36.3,0,0.764,0,0,0,0, ,0,0,0,0,0, ,-41.6,420.4,904.2,-0.6,-0.5,-1.7,25,-40.5792,420.819,905.976,-0.4075,-0.519523,-1.68146,
2026_07_06_21_03_34.187,3.858,36.4,0,0.765,0,0,0,0, ,0,0,0,0,0, ,-40.7,421.6,907.1,-0.5,-0.5,-1.7,25,-40.6139,420.83,905.956,-0.416184,-0.518333,-1.68259,
2026_07_06_21_03_34.206,3.858,36.2,0,0.764,0,0,0,0, ,0,0,0,0,0, ,-41.3,420.5,906,-0.5,-0.5,-1.6,25,-40.6375,420.843,905.992,-0.421291,-0.517216,-1.6806,
2026_07_06_21_03_34.227,3.858,36.4,0,0.764,0,0,0,0, ,0,0,0,0,0, ,-39.6,421.9,905.5,-0.3,-0.5,-1.7,25,-40.626,420.865,905.977,-0.419994,-0.516167,-1.67874,
2026_07_06_21_03_34.247,3.858,36.3,0,0.764,0,0,0,0, ,0,0,0,0,0, ,-40.1,421.7,905.5,-0.4,-0.5,-1.7,25,-40.5788,420.922,905.948,-0.415729,-0.515182,-1.68004,
2026_07_06_21_03_34.266,3.858,36.3,0,0.763,0,0,0,0, ,0,0,0,0,0, ,-40.4,421.6,906.4,-0.4,-0.6,-1.6,25,-40.5587,420.966,905.948,-0.41477,-0.517304,-1.6782,
2026_07_06_21_03_34.286,3.858,36.3,0,0.763,0,0,0,0, ,0,0,0,0,0, ,-40.6,420,904.4,-0.4,-0.5,-1.7,25,-40.5551,420.956,905.915,-0.41387,-0.519296,-1.67649,
2026_07_06_21_03_34.306,3.858,36.3,0,0.763,0,0,0,0, ,0,0,0,0,0, ,-40.7,420.1,907.3,-0.4,-0.6,-1.7,25,-40.5609,420.901,905.911,-0.413025,-0.521167,-1.67792,
2026_07_06_21_03_34.325,3.858,36.3,0,0.762,0,0,0,0, ,0,0,0,0,0, ,-40.6,420.1,905.6,-0.5,-0.6,-1.7,25,-40.5664,420.852,905.944,-0.415278,-0.525971,-1.67926,
2026_07_06_21_03_34.345,3.858,36.4,0,0.764,0,0,0,0, ,0,0,0,0,0, ,-40.7,419.9,906.6,-0.5,-0.6,-1.7,25,-40.5714,420.8,905.953,-0.420441,-0.530482,-1.68053,
2026_07_06_21_03_34.364,3.858,36.4,0,0.763,0,0,0,0, ,0,0,0,0,0, ,-40.7,419.3,906.7,-0.5,-0.5,-1.7,25,-40.5793,420.727,905.996,-0.425289,-0.531671,-1.68171,
2026_07_06_21_03_34.385,3.858,36.3,0,0.763,0,0,0,0, ,0,0,0,0,0, ,-40.1,421.3,905.6,-0.5,-0.5,-1.7,25,-40.5684,420.701,906.005,-0.429842,-0.529741,-1.68283,
2026_07_06_21_03_34.404,3.858,36.4,0,0.762,0,0,0,0, ,0,0,0,0,0, ,-39.7,420.5,907.5,-0.5,-0.5,-1.7,25,-40.5276,420.713,906.038,-0.434117,-0.527929,-1.68388,
2026_07_06_21_03_34.424,3.858,36.3,0,0.765,0,0,0,0, ,0,0,0,0,0, ,-39.9,420.7,906.1,-0.5,-0.6,-1.7,25,-40.4833,420.706,906.085,-0.438132,-0.529274,-1.68486,
2026_07_06_21_03_34.444,3.858,36.3,0,0.765,0,0,0,0, ,0,0,0,0,0, ,-42.3,420.5,905.8,-0.5,-0.5,-1.6,25,-40.5209,420.7,906.076,-0.441902,-0.530537,-1.68273,
2026_07_06_21_03_34.467,3.858,36.3,0,0.764,0,0,0,0, ,0,0,0,0,0, ,-40.2,421.3,907.2,-0.5,-0.6,-1.8,25,-40.5653,420.712,906.102,-0.445442,-0.531723,-1.68379,
2026_07_06_21_03_34.484,3.858,36.3,0,0.763,0,0,0,0, ,0,0,0,0,0, ,-41,421.8,906.8,-0.3,-0.5,-1.7,25,-40.5674,420.763,906.157,-0.442673,-0.532837,-1.68782,
2026_07_06_21_03_34.504,3.858,36.3,0,0.764,0,0,0,0, ,0,0,0,0,0, ,-40.4,421,904.7,-0.5,-0.6,-1.6,25,-40.5755,420.802,906.132,-0.440073,-0.533883,-1.68552,
2026_07_06_21_03_34.523,3.858,36.3,0,0.765,0,0,0,0, ,0,0,0,0,0, ,-39.6,420.8,906.9,-0.5,-0.5,-1.7,25,-40.5404,420.808,906.112,-0.443724,-0.534865,-1.68335,
2026_07_06_21_03_34.543,3.858,36.4,0,0.764,0,0,0,0, ,0,0,0,0,0, ,-39.3,421.2,905.8,-0.5,-0.6,-1.7,25,-40.474,420.82,906.126,-0.447154,-0.535787,-1.68437,
2026_07_06_21_03_34.563,3.858,36.3,0,0.764,0,0,0,0, ,0,0,0,0,0, ,-39.9,421.3,907.5,-0.5,-0.5,-1.7,25,-40.4207,420.846,906.158,-0.450374,-0.536653,-1.68532,
2026_07_06_21_03_34.583,3.858,36.4,0,0.765,0,0,0,0, ,0,0,0,0,0, ,-39.9,422.3,906.7,-0.4,-0.5,-1.6,25,-40.389,420.904,906.216,-0.450351,-0.53442,-1.68317,
2026_07_06_21_03_34.609,3.858,36.3,0,0.763,0,0,0,0, ,0,0,0,0,0, ,-40.5,421.1,906.2,-0.3,-0.5,-1.7,25,-40.3775,420.952,906.23,-0.444236,-0.532322,-1.68115,
2026_07_06_21_03_34.623,3.858,36.4,0,0.765,0,0,0,0, ,0,0,0,0,0, ,-40,421.3,905.8,-0.3,-0.5,-1.7,25,-40.3697,420.968,906.216,-0.435447,-0.530353,-1.68229,
2026_07_06_21_03_34.643,3.858,36.3,0,0.766,0,0,0,0, ,0,0,0,0,0, ,-40.7,420.5,905.7,-0.3,-0.6,-1.7,25,-40.3685,420.963,906.188,-0.427193,-0.53155,-1.68337,
2026_07_06_21_03_34.662,3.858,36.3,0,0.765,0,0,0,0, ,0,0,0,0,0, ,-40.6,420.6,905.3,-0.4,-0.5,-1.7,25,-40.3857,420.938,906.146,-0.422489,-0.532674,-1.68439,
2026_07_06_21_03_34.682,3.858,36.3,0,0.765,0,0,0,0, ,0,0,0,0,0, ,-39.9,420.8,905.6,-0.4,-0.6,-1.6,25,-40.3774,420.924,906.103,-0.421119,-0.53373,-1.68229,
2026_07_06_21_03_34.702,3.858,36.4,0,0.763,0,0,0,0, ,0,0,0,0,0, ,-39.9,419.3,905.8,-0.5,-0.5,-1.7,25,-40.3483,420.87,906.079,-0.422879,-0.534721,-1.68032,
2026_07_06_21_03_34.722,3.858,36.3,0,0.764,0,0,0,0, ,0,0,0,0,0, ,-41.6,420.5,905.8,-0.5,-0.6,-1.6,25,-40.3728,420.811,906.062,-0.427578,-0.535652,-1.67848,
2026_07_06_21_03_34.742,3.858,36.3,0,0.764,0,0,0,0, ,0,0,0,0,0, ,-41.2,422.1,906.6,-0.5,-0.6,-1.7,25,-40.4354,420.841,906.07,-0.431991,-0.539574,-1.67674,
2026_07_06_21_03_34.762,3.858,36.4,0,0.766,0,0,0,0, ,0,0,0,0,0, ,-40.1,420.8,905.2,-0.5,-0.5,-1.7,25,-40.4485,420.878,906.06,-0.436136,-0.540209,-1.67816,
2026_07_06_21_03_34.781,3.858,36.3,0,0.765,0,0,0,0, ,0,0,0,0,0, ,-39.7,421.1,905.5,-0.5,-0.5,-1.7,25,-40.415,420.883,906.017,-0.440027,-0.537759,-1.67949,
2026_07_06_21_03_34.801,3.858,36.4,0,0.763,0,0,0,0, ,0,0,0,0,0, ,-40.1,421.7,906,-0.4,-0.5,-1.7,25,-40.3836,420.914,906,-0.440635,-0.535458,-1.68074,
2026_07_06_21_03_34.821,3.858,36.3,0,0.766,0,0,0,0, ,0,0,0,0,0, ,-41.1,422.1,905.3,-0.4,-0.5,-1.7,25,-40.3968,420.974,905.979,-0.438159,-0.533297,-1.68191,
2026_07_06_21_03_34.840,3.858,36.3,0,0.764,0,0,0,0, ,0,0,0,0,0, ,-40.8,422.1,906.4,-0.3,-0.5,-1.7,25,-40.4305,421.043,905.971,-0.432787,-0.531268,-1.68301,
2026_07_06_21_03_34.860,3.858,36.4,0,0.764,0,0,0,0, ,0,0,0,0,0, ,-40.8,421,905.7,-0.3,-0.5,-1.7,25,-40.4531,421.074,905.976,-0.424695,-0.529363,-1.68405,
2026_07_06_21_03_34.880,3.858,36.4,0,0.765,0,0,0,0, ,0,0,0,0,0, ,-40.2,421.1,906.6,-0.4,-0.5,-1.6,25,-40.4559,421.072,905.987,-0.420143,-0.527573,-1.68197,
2026_07_06_21_03_34.900,3.858,36.3,0,0.762,0,0,0,0, ,0,0,0,0,0, ,-40.7,418.4,904.9,-0.4,-0.5,-1.6,25,-40.4556,420.992,905.972,-0.418916,-0.525893,-1.67698,
2026_07_06_21_03_34.919,3.858,36.3,0,0.763,0,0,0,0, ,0,0,0,0,0, ,-40,420.1,906.2,-0.5,-0.5,-1.7,25,-40.4491,420.886,905.946,-0.42081,-0.524315,-1.67534,
2026_07_06_21_03_34.939,3.858,36.3,0,0.763,0,0,0,0, ,0,0,0,0,0, ,-41.6,420.2,905,-0.6,-0.6,-1.7,25,-40.4705,420.841,905.925,-0.428682,-0.52588,-1.67684,
2026_07_06_21_03_34.958,3.858,36.3,0,0.764,0,0,0,0, ,0,0,0,0,0, ,-39.5,421.9,905.8,-0.5,-0.6,-1.7,25,-40.4753,420.853,905.893,-0.436075,-0.530397,-1.67825,
2026_07_06_21_03_34.979,3.858,36.2,0,0.764,0,0,0,0, ,0,0,0,0,0, ,-40.2,421.1,906.1,-0.5,-0.5,-1.7,25,-40.4372,420.893,905.897,-0.439971,-0.531592,-1.67958,
2026_07_06_21_03_34.998,3.858,36.3,0,0.764,0,0,0,0, ,0,0,0,0,0, ,-39.5,423,905.7,-0.5,-0.5,-1.7,25,-40.4015,420.963,905.897,-0.443629,-0.529667,-1.68082,
2026_07_06_21_03_35.019,3.858,36.3,0,0.764,0,0,0,0, ,0,0,0,0,0, ,-39.7,421.6,907.4,-0.4,-0.5,-1.6,25,-40.3526,421.045,905.937,-0.444017,-0.527859,-1.67894,
2026_07_06_21_03_35.038,3.858,36.3,0,0.764,0,0,0,0, ,0,0,0,0,0, ,-39.7,422.6,907.3,-0.3,-0.5,-1.6,25,-40.3128,421.109,906.023,-0.438288,-0.526161,-1.67413,
2026_07_06_21_03_35.058,3.858,36.3,0,0.766,0,0,0,0, ,0,0,0,0,0, ,-39.4,421.2,906.4,-0.3,-0.5,-1.7,25,-40.2664,421.157,906.073,-0.429861,-0.524567,-1.67266,
2026_07_06_21_03_35.078,3.858,36.3,0,0.764,0,0,0,0, ,0,0,0,0,0, ,-40.7,419.9,906.8,-0.3,-0.5,-1.6,25,-40.2532,421.12,906.105,-0.421948,-0.52307,-1.67128,
2026_07_06_21_03_35.097,3.858,36.3,0,0.764,0,0,0,0, ,0,0,0,0,0, ,-41.8,420.1,906.9,-0.3,-0.5,-1.7,25,-40.3139,421.052,906.151,-0.414516,-0.521664,-1.66998,
2026_07_06_21_03_35.117,3.858,36.3,0,0.764,0,0,0,0, ,0,0,0,0,0, ,-41.3,421.6,905.3,-0.3,-0.5,-1.7,25,-40.3892,421.04,906.148,-0.407538,-0.520344,-1.67181,
2026_07_06_21_03_35.137,3.858,36.3,0,0.764,0,0,0,0, ,0,0,0,0,0, ,-39.5,420.7,905.5,-0.4,-0.6,-1.7,25,-40.3899,421.046,906.102,-0.404032,-0.522151,-1.67353,
2026_07_06_21_03_35.157,3.858,36.3,0,0.764,0,0,0,0, ,0,0,0,0,0, ,-41.2,420.5,905.8,-0.5,-0.6,-1.7,25,-40.3875,421.019,906.075,-0.406833,-0.526895,-1.67514,
2026_07_06_21_03_35.177,3.858,36.3,0,0.764,0,0,0,0, ,0,0,0,0,0, ,-41.1,422.2,905.3,-0.4,-0.5,-1.7,25,-40.4339,421.039,906.043,-0.409463,-0.528303,-1.67666,
2026_07_06_21_03_35.200,3.858,36.2,0,0.764,0,0,0,0, ,0,0,0,0,0, ,-40.5,420.7,906.6,-0.4,-0.6,-1.6,25,-40.4562,421.064,906.037,-0.408887,-0.529625,-1.67503,
2026_07_06_21_03_35.216,3.858,36.3,0,0.764,0,0,0,0, ,0,0,0,0,0, ,-41.6,421.8,906,-0.3,-0.6,-1.7,25,-40.4924,421.076,906.053,-0.405298,-0.533914,-1.67351,
2026_07_06_21_03_35.236,3.858,36.3,0,0.764,0,0,0,0, ,0,0,0,0,0, ,-41,420.2,905.8,-0.3,-0.6,-1.7,25,-40.5416,421.071,906.044,-0.398882,-0.537941,-1.67512,
2026_07_06_21_03_35.259,3.858,36.3,0,0.766,0,0,0,0, ,0,0,0,0,0, ,-40.4,420.7,905.5,-0.4,-0.5,-1.7,25,-40.5513,421.033,906.02,-0.395903,-0.538676,-1.67664,
2026_07_06_21_03_35.276,3.858,36.3,0,0.764,0,0,0,0, ,0,0,0,0,0, ,-40,420.2,906.3,-0.5,-0.5,-1.6,25,-40.5299,420.998,906.012,-0.3992,-0.536319,-1.67501,
2026_07_06_21_03_35.295,3.858,36.3,0,0.763,0,0,0,0, ,0,0,0,0,0, ,-40.2,420.2,906.8,-0.6,-0.5,-1.7,25,-40.5037,420.949,906.045,-0.408389,-0.534106,-1.67349,
2026_07_06_21_03_35.315,3.858,36.3,0,0.764,0,0,0,0, ,0,0,0,0,0, ,-40,420.8,906.8,-0.5,-0.5,-1.7,25,-40.4791,420.922,906.091,-0.417018,-0.532027,-1.67511,
2026_07_06_21_03_35.336,3.858,36.3,0,0.764,0,0,0,0, ,0,0,0,0,0, ,-40.8,421.1,906.2,-0.4,-0.5,-1.7,25,-40.4743,420.923,906.116,-0.419028,-0.530076,-1.67662,
2026_07_06_21_03_35.354,3.858,36.2,0,0.766,0,0,0,0, ,0,0,0,0,0, ,-40.7,421.5,905.7,-0.5,-0.6,-1.6,25,-40.4911,420.946,906.106,-0.420916,-0.53129,-1.675,
2026_07_06_21_03_35.375,3.858,36.3,0,0.763,0,0,0,0, ,0,0,0,0,0, ,-40.5,421.7,905.8,-0.4,-0.5,-1.7,25,-40.4977,420.986,906.084,-0.422688,-0.53243,-1.67348,
2026_07_06_21_03_35.393,3.858,36.3,0,0.764,0,0,0,0, ,0,0,0,0,0, ,-40.1,421.8,906.4,-0.4,-0.5,-1.7,25,-40.4857,421.033,906.085,-0.421305,-0.530454,-1.67509,
2026_07_06_21_03_35.415,3.858,36.3,0,0.763,0,0,0,0, ,0,0,0,0,0, ,-40.4,421.5,905.2,-0.3,-0.5,-1.8,25,-40.4713,421.07,906.068,-0.41696,-0.528598,-1.67966,
2026_07_06_21_03_35.437,3.858,36.3,0,0.764,0,0,0,0, ,0,0,0,0,0, ,-39.9,421.6,906.9,-0.2,-0.5,-1.7,25,-40.4517,421.1,906.067,-0.406786,-0.526855,-1.68394,
2026_07_06_21_03_35.456,3.858,36.3,0,0.764,0,0,0,0, ,0,0,0,0,0, ,-40.5,421.2,907.1,-0.4,-0.5,-1.7,25,-40.4364,421.118,906.124,-0.400279,-0.525219,-1.68492,
2026_07_06_21_03_35.474,3.858,36.3,0,0.764,0,0,0,0, ,0,0,0,0,0, ,-41.3,419.3,905.8,-0.3,-0.6,-1.6,25,-40.4646,421.065,906.143,-0.397215,-0.526729,-1.68279,
2026_07_06_21_03_35.494,3.858,36.3,0,0.764,0,0,0,0, ,0,0,0,0,0, ,-41.7,420.1,905.8,-0.4,-0.5,-1.7,25,-40.5277,420.982,906.123,-0.394338,-0.528147,-1.6808,
2026_07_06_21_03_35.514,3.858,36.3,0,0.763,0,0,0,0, ,0,0,0,0,0, ,-40.7,421.3,906.2,-0.6,-0.6,-1.7,25,-40.5687,420.965,906.115,-0.400777,-0.529479,-1.68197,
2026_07_06_21_03_35.534,3.858,36.3,0,0.764,0,0,0,0, ,0,0,0,0,0, ,-40.1,420.8,906.9,-0.5,-0.6,-1.7,25,-40.5584,420.97,906.142,-0.40987,-0.533776,-1.68307,
2026_07_06_21_03_35.553,3.858,36.3,0,0.767,0,0,0,0, ,0,0,0,0,0, ,-40.8,421.2,905.3,-0.5,-0.5,-1.7,25,-40.5518,420.972,906.139,-0.415362,-0.534765,-1.6841,
2026_07_06_21_03_35.573,3.858,36.3,0,0.764,0,0,0,0, ,0,0,0,0,0, ,-41.7,421.9,906.3,-0.5,-0.5,-1.7,25,-40.5944,421.007,906.118,-0.42052,-0.532646,-1.68507,
2026_07_06_21_03_35.593,3.858,36.3,0,0.764,0,0,0,0, ,0,0,0,0,0, ,-40,422.1,907.4,-0.4,-0.6,-1.6,25,-40.6099,421.067,906.163,-0.422316,-0.533704,-1.68293,
2026_07_06_21_03_35.613,3.858,36.3,0,0.763,0,0,0,0, ,0,0,0,0,0, ,-41.1,421.6,906.2,-0.4,-0.5,-1.7,25,-40.6063,421.115,906.202,-0.420956,-0.534697,-1.68092,
2026_07_06_21_03_35.633,3.858,36.2,0,0.764,0,0,0,0, ,0,0,0,0,0, ,-40.5,420.8,906.4,-0.4,-0.6,-1.6,25,-40.6181,421.12,906.208,-0.419679,-0.535629,-1.67904,
2026_07_06_21_03_35.652,3.858,36.3,0,0.763,0,0,0,0, ,0,0,0,0,0, ,-41.1,420.7,904.2,-0.3,-0.5,-1.7,25,-40.6292,421.098,906.152,-0.415433,-0.536505,-1.67727,
2026_07_06_21_03_35.671,3.858,36.3,0,0.763,0,0,0,0, ,0,0,0,0,0, ,-40,421,906.3,-0.3,-0.5,-1.6,25,-40.6243,421.083,906.097,-0.408399,-0.53428,-1.67561,
2026_07_06_21_03_35.691,3.858,36.3,0,0.764,0,0,0,0, ,0,0,0,0,0, ,-41.1,419.7,905.8,-0.5,-0.6,-1.6,25,-40.6198,421.038,906.095,-0.407887,-0.535238,-1.671,
2026_07_06_21_03_35.711,3.858,36.3,0,0.766,0,0,0,0, ,0,0,0,0,0, ,-41.3,420.4,905.7,-0.5,-0.5,-1.7,25,-40.6552,420.978,906.074,-0.4135,-0.536138,-1.66972,
2026_07_06_21_03_35.732,3.858,36.3,0,0.764,0,0,0,0, ,0,0,0,0,0, ,-42.6,420.8,906.9,-0.5,-0.6,-1.7,25,-40.7341,420.955,906.087,-0.418771,-0.536983,-1.67157,
2026_07_06_21_03_35.751,3.858,36.3,0,0.763,0,0,0,0, ,0,0,0,0,0, ,-41.5,421.5,906.8,-0.5,-0.6,-1.7,25,-40.8143,420.967,906.134,-0.423721,-0.540823,-1.6733,
2026_07_06_21_03_35.771,3.858,36.2,0,0.765,0,0,0,0, ,0,0,0,0,0, ,-40.6,421.5,905.5,-0.5,-0.5,-1.6,25,-40.8286,420.999,906.135,-0.428369,-0.541382,-1.67188,
2026_07_06_21_03_35.791,3.858,36.3,0,0.764,0,0,0,0, ,0,0,0,0,0, ,-40.7,423.2,908.4,-0.4,-0.5,-1.6,25,-40.8177,421.081,906.185,-0.429688,-0.53886,-1.6675,
2026_07_06_21_03_35.810,3.858,36.3,0,0.764,0,0,0,0, ,0,0,0,0,0, ,-39.5,422.2,906.9,-0.5,-0.5,-1.6,25,-40.774,421.18,906.274,-0.430925,-0.536492,-1.66339,
2026_07_06_21_03_35.831,3.858,36.3,0,0.764,0,0,0,0, ,0,0,0,0,0, ,-41.3,421,906.6,-0.4,-0.5,-1.7,25,-40.7512,421.206,906.303,-0.432088,-0.534269,-1.66257,
2026_07_06_21_03_35.856,3.858,36.3,0,0.764,0,0,0,0, ,0,0,0,0,0, ,-39.9,420.6,906.3,-0.3,-0.5,-1.7,25,-40.742,421.181,906.312,-0.427086,-0.53218,-1.66485,
2026_07_06_21_03_35.869,3.858,36.3,0,0.764,0,0,0,0, ,0,0,0,0,0, ,-41.5,419.9,906,-0.5,-0.6,-1.7,25,-40.7394,421.124,906.302,-0.425435,-0.533266,-1.66699,
2026_07_06_21_03_35.890,3.858,36.3,0,0.764,0,0,0,0, ,0,0,0,0,0, ,-41.5,421.3,905.3,-0.5,-0.6,-1.7,25,-40.7858,421.092,906.262,-0.429979,-0.537333,-1.669,
2026_07_06_21_03_35.909,3.858,36.3,0,0.764,0,0,0,0, ,0,0,0,0,0, ,-41.2,421.9,905.3,-0.5,-0.5,-1.8,25,-40.8202,421.123,906.204,-0.434246,-0.538105,-1.67394,
2026_07_06_21_03_35.928,3.858,36.2,0,0.766,0,0,0,0, ,0,0,0,0,0, ,-40,420.7,904.5,-0.5,-0.5,-1.7,25,-40.8068,421.134,906.124,-0.438253,-0.535783,-1.67857,
2026_07_06_21_03_35.948,3.858,36.3,0,0.764,0,0,0,0, ,0,0,0,0,0, ,-40.4,421.3,905.3,-0.4,-0.6,-1.6,25,-40.7698,421.126,906.05,-0.438968,-0.536649,-1.67683,
2026_07_06_21_03_35.968,3.858,36.3,0,0.763,0,0,0,0, ,0,0,0,0,0, ,-40.6,422.2,905.3,-0.3,-0.5,-1.7,25,-40.7533,421.164,906.004,-0.433547,-0.537463,-1.6752,
2026_07_06_21_03_35.988,3.858,36.3,0,0.763,0,0,0,0, ,0,0,0,0,0, ,-40.5,421.3,906.2,-0.3,-0.5,-1.7,25,-40.7409,421.2,905.988,-0.425409,-0.53518,-1.67671,
2026_07_06_21_03_36.008,3.858,36.2,0,0.763,0,0,0,0, ,0,0,0,0,0, ,-40.8,420.7,906.6,-0.3,-0.5,-1.6,25,-40.7354,421.187,906.013,-0.417767,-0.533036,-1.67508,
2026_07_06_21_03_36.039,3.858,36.3,0,0.764,0,0,0,0, ,0,0,0,0,0, ,-40.8,419.5,905,-0.4,-0.6,-1.7,25,-40.7393,421.121,906,-0.413637,-0.53407,-1.67355,
2026_07_06_21_03_36.052,3.858,36.3,0,0.766,0,0,0,0, ,0,0,0,0,0, ,-40.5,419.1,906.6,-0.5,-0.6,-1.7,25,-40.7339,421.01,905.988,-0.415853,-0.538087,-1.67517,
2026_07_06_21_03_36.068,3.858,36.3,0,0.763,0,0,0,0, ,0,0,0,0,0, ,-39.7,420,905.8,-0.5,-0.5,-1.7,25,-40.6953,420.921,906.001,-0.420981,-0.538813,-1.67668,
2026_07_06_21_03_36.088,3.858,36.3,0,0.762,0,0,0,0, ,0,0,0,0,0, ,-40.8,420,906.1,-0.5,-0.6,-1.7,25,-40.6681,420.865,905.998,-0.425796,-0.539495,-1.6781,
2026_07_06_21_03_36.108,3.858,36.3,0,0.763,0,0,0,0, ,0,0,0,0,0, ,-39.9,420.7,906.4,-0.6,-0.5,-1.7,25,-40.6487,420.834,906.013,-0.433365,-0.540135,-1.67943,
2026_07_06_21_03_36.127,3.858,36.2,0,0.764,0,0,0,0, ,0,0,0,0,0, ,-39.7,420,906,-0.5,-0.5,-1.7,25,-40.597,420.804,906.025,-0.440472,-0.537689,-1.68069,
2026_07_06_21_03_36.147,3.858,36.3,0,0.763,0,0,0,0, ,0,0,0,0,0, ,-40.6,421.5,907.1,-0.5,-0.5,-1.7,25,-40.5698,420.801,906.057,-0.4441,-0.535393,-1.68186,
2026_07_06_21_03_36.166,3.858,36.3,0,0.763,0,0,0,0, ,0,0,0,0,0, ,-41.6,421.7,906,-0.4,-0.5,-1.7,25,-40.6021,420.85,906.087,-0.444459,-0.533236,-1.68297,
2026_07_06_21_03_36.186,3.858,36.2,0,0.764,0,0,0,0, ,0,0,0,0,0, ,-40.2,421.9,906.2,-0.4,-0.5,-1.7,25,-40.6203,420.908,906.088,-0.44175,-0.531211,-1.68401,
2026_07_06_21_03_36.206,3.858,36.3,0,0.764,0,0,0,0, ,0,0,0,0,0, ,-40.5,421,905.7,-0.3,-0.6,-1.6,25,-40.6038,420.941,906.079,-0.436159,-0.532356,-1.68193,
2026_07_06_21_03_36.226,3.858,36.3,0,0.765,0,0,0,0, ,0,0,0,0,0, ,-41.5,420.5,905.8,-0.3,-0.6,-1.7,25,-40.6279,420.929,906.059,-0.427862,-0.536478,-1.67999,
2026_07_06_21_03_36.246,3.858,36.3,0,0.766,0,0,0,0, ,0,0,0,0,0, ,-40.4,420.4,906.2,-0.3,-0.6,-1.6,25,-40.6476,420.9,906.056,-0.42007,-0.540349,-1.67816,
2026_07_06_21_03_36.266,3.858,36.2,0,0.765,0,0,0,0, ,0,0,0,0,0, ,-40.8,419.4,904.9,-0.4,-0.6,-1.7,25,-40.6447,420.839,906.025,-0.4158,-0.543984,-1.67645,
2026_07_06_21_03_36.286,3.858,36.3,0,0.765,0,0,0,0, ,0,0,0,0,0, ,-40.2,419.9,906.2,-0.5,-0.5,-1.7,25,-40.6358,420.766,905.996,-0.417884,-0.54435,-1.67788,
2026_07_06_21_03_36.305,3.858,36.3,0,0.763,0,0,0,0, ,0,0,0,0,0, ,-40.2,421.3,906.9,-0.5,-0.6,-1.6,25,-40.6093,420.756,906.03,-0.422888,-0.544694,-1.67618,
2026_07_06_21_03_36.325,3.858,36.3,0,0.763,0,0,0,0, ,0,0,0,0,0, ,-41.1,420.4,906.7,-0.5,-0.5,-1.7,25,-40.6118,420.762,906.077,-0.427587,-0.545018,-1.67459,
2026_07_06_21_03_36.345,3.858,36.3,0,0.765,0,0,0,0, ,0,0,0,0,0, ,-40,420.6,906.7,-0.5,-0.5,-1.6,25,-40.608,420.746,906.115,-0.432,-0.542275,-1.67309,
2026_07_06_21_03_36.364,3.858,36.3,0,0.765,0,0,0,0, ,0,0,0,0,0, ,-40.4,421,905.6,-0.5,-0.5,-1.7,25,-40.5831,420.749,906.117,-0.436144,-0.539698,-1.67168,
2026_07_06_21_03_36.384,3.858,36.2,0,0.762,0,0,0,0, ,0,0,0,0,0, ,-40.2,422.2,906.9,-0.5,-0.6,-1.7,25,-40.5659,420.801,906.125,-0.440035,-0.540326,-1.67341,
2026_07_06_21_03_36.404,3.858,36.3,0,0.765,0,0,0,0, ,0,0,0,0,0, ,-39.6,421,904.6,-0.5,-0.6,-1.6,25,-40.5253,420.85,906.102,-0.443689,-0.543963,-1.67198,
2026_07_06_21_03_36.425,3.858,36.2,0,0.762,0,0,0,0, ,0,0,0,0,0, ,-40.2,421.3,906.8,-0.4,-0.6,-1.7,25,-40.4872,420.868,906.077,-0.444074,-0.547377,-1.67064,
2026_07_06_21_03_36.444,3.858,36.2,0,0.763,0,0,0,0, ,0,0,0,0,0, ,-41.1,421.9,904.6,-0.4,-0.5,-1.7,25,-40.4971,420.913,906.054,-0.441388,-0.547537,-1.67243,
2026_07_06_21_03_36.464,3.858,36.3,0,0.763,0,0,0,0, ,0,0,0,0,0, ,-39.6,419.9,907.2,-0.3,-0.6,-1.7,25,-40.4882,420.912,906.045,-0.435819,-0.547687,-1.67411,
2026_07_06_21_03_36.484,3.858,36.3,0,0.767,0,0,0,0, ,0,0,0,0,0, ,-41.2,420.4,905.6,-0.3,-0.6,-1.6,25,-40.4828,420.866,906.067,-0.427542,-0.550875,-1.67264,
2026_07_06_21_03_36.503,3.858,36.2,0,0.765,0,0,0,0, ,0,0,0,0,0, ,-40.7,420.6,905.6,-0.3,-0.5,-1.7,25,-40.5113,420.843,906.038,-0.41977,-0.550822,-1.67126,
2026_07_06_21_03_36.523,3.858,36.3,0,0.763,0,0,0,0, ,0,0,0,0,0, ,-40.5,421.7,906,-0.5,-0.6,-1.7,25,-40.5167,420.862,906.024,-0.418566,-0.550772,-1.67301,
2026_07_06_21_03_36.542,3.858,36.3,0,0.763,0,0,0,0, ,0,0,0,0,0, ,-40.4,422.4,907.2,-0.5,-0.5,-1.7,25,-40.5126,420.934,906.059,-0.423528,-0.550725,-1.67466,
2026_07_06_21_03_36.562,3.858,36.2,0,0.763,0,0,0,0, ,0,0,0,0,0, ,-40.2,421.7,906.6,-0.3,-0.5,-1.7,25,-40.4996,421.002,906.11,-0.422094,-0.547634,-1.6762,
2026_07_06_21_03_36.582,3.858,36.3,0,0.764,0,0,0,0, ,0,0,0,0,0, ,-40,420.5,906.1,-0.3,-0.5,-1.6,25,-40.4753,421.008,906.125,-0.414654,-0.544731,-1.6746,
2026_07_06_21_03_36.601,3.858,36.3,0,0.765,0,0,0,0, ,0,0,0,0,0, ,-40.4,420.7,905.2,-0.3,-0.5,-1.6,25,-40.4585,420.983,906.096,-0.407667,-0.542005,-1.67006,
2026_07_06_21_03_36.622,3.858,36.3,0,0.765,0,0,0,0, ,0,0,0,0,0, ,-41.5,420.4,906.3,-0.3,-0.5,-1.7,25,-40.4885,420.957,906.075,-0.401106,-0.539445,-1.66884,
2026_07_06_21_03_36.642,3.858,36.3,0,0.766,0,0,0,0, ,0,0,0,0,0, ,-40.5,420.5,904.7,-0.4,-0.6,-1.7,25,-40.5196,420.926,906.04,-0.397992,-0.540089,-1.67074,
2026_07_06_21_03_36.661,3.858,36.3,0,0.763,0,0,0,0, ,0,0,0,0,0, ,-39.7,420.2,905.7,-0.4,-0.5,-1.7,25,-40.4941,420.891,905.989,-0.398114,-0.540693,-1.67252,
2026_07_06_21_03_36.681,3.858,36.2,0,0.765,0,0,0,0, ,0,0,0,0,0, ,-40,419.7,907.4,-0.5,-0.4,-1.7,25,-40.4548,420.834,906.023,-0.401276,-0.535166,-1.67419,
2026_07_06_21_03_36.701,3.858,36.3,0,0.763,0,0,0,0, ,0,0,0,0,0, ,-40.5,420.5,905,-0.5,-0.5,-1.8,25,-40.4423,420.789,906.034,-0.407292,-0.529976,-1.67881,
2026_07_06_21_03_36.721,3.858,36.2,0,0.766,0,0,0,0, ,0,0,0,0,0, ,-41.5,421.5,906,-0.5,-0.5,-1.7,25,-40.4763,420.802,906.001,-0.412942,-0.52815,-1.68315,
2026_07_06_21_03_36.741,3.858,36.3,0,0.765,0,0,0,0, ,0,0,0,0,0, ,-41.9,422.2,905,-0.5,-0.5,-1.6,25,-40.5509,420.866,905.971,-0.418247,-0.526434,-1.68113,
2026_07_06_21_03_36.760,3.858,36.3,0,0.763,0,0,0,0, ,0,0,0,0,0, ,-41.7,421.3,906.2,-0.4,-0.5,-1.7,25,-40.627,420.92,905.948,-0.420182,-0.524823,-1.67923,
2026_07_06_21_03_36.780,3.858,36.2,0,0.763,0,0,0,0, ,0,0,0,0,0, ,-40.2,422.6,906.7,-0.4,-0.6,-1.6,25,-40.6467,420.982,905.979,-0.418952,-0.526358,-1.67745,
2026_07_06_21_03_36.800,3.858,36.3,0,0.763,0,0,0,0, ,0,0,0,0,0, ,-39.9,421.2,903.5,-0.4,-0.5,-1.6,25,-40.6103,421.038,905.925,-0.417797,-0.527798,-1.67273,
2026_07_06_21_03_36.820,3.858,36.2,0,0.763,0,0,0,0, ,0,0,0,0,0, ,-40.6,420.5,906.2,-0.4,-0.6,-1.7,25,-40.5884,421.027,905.859,-0.416712,-0.529151,-1.67135,
2026_07_06_21_03_36.840,3.858,36.3,0,0.764,0,0,0,0, ,0,0,0,0,0, ,-39.9,420.4,905.8,-0.1,-0.5,-1.7,25,-40.5678,420.992,905.868,-0.406553,-0.530422,-1.67309,
2026_07_06_21_03_36.860,3.858,36.3,0,0.765,0,0,0,0, ,0,0,0,0,0, ,-41.3,420.7,906.9,-0.2,-0.5,-1.7,25,-40.5697,420.965,905.897,-0.39092,-0.528568,-1.67473,
2026_07_06_21_03_36.879,3.858,36.3,0,0.763,0,0,0,0, ,0,0,0,0,0, ,-40.6,419.1,906.4,-0.3,-0.5,-1.7,25,-40.5929,420.9,905.943,-0.382332,-0.526827,-1.67627,
2026_07_06_21_03_36.899,3.858,36.3,0,0.765,0,0,0,0, ,0,0,0,0,0, ,-40.6,418.7,906.4,-0.6,-0.5,-1.7,25,-40.5933,420.778,905.971,-0.386456,-0.525192,-1.67772,
2026_07_06_21_03_36.918,3.858,36.3,0,0.765,0,0,0,0, ,0,0,0,0,0, ,-40.2,421.2,906.2,-0.5,-0.5,-1.6,25,-40.5815,420.728,905.991,-0.396422,-0.523657,-1.67603,
2026_07_06_21_03_36.938,3.858,36.3,0,0.765,0,0,0,0, ,0,0,0,0,0, ,-41.7,421.6,904.5,-0.4,-0.5,-1.6,25,-40.604,420.769,905.952,-0.399687,-0.522215,-1.6714,
2026_07_06_21_03_36.958,3.858,36.2,0,0.763,0,0,0,0, ,0,0,0,0,0, ,-40.4,421.1,906.4,-0.5,-0.5,-1.7,25,-40.6312,420.804,905.921,-0.402753,-0.520862,-1.67009,
2026_07_06_21_03_36.978,3.858,36.3,0,0.765,0,0,0,0, ,0,0,0,0,0, ,-41.1,420.4,905.8,-0.4,-0.5,-1.6,25,-40.6384,420.801,905.932,-0.405632,-0.51959,-1.66887,
2026_07_06_21_03_36.998,3.858,36.3,0,0.765,0,0,0,0, ,0,0,0,0,0, ,-41.3,420.7,906.4,-0.5,-0.5,-1.8,25,-40.6726,420.785,905.943,-0.408336,-0.518397,-1.67077,
2026_07_06_21_03_37.018,3.858,36.3,0,0.766,0,0,0,0, ,0,0,0,0,0, ,-41.3,422.3,906.2,-0.6,-0.5,-1.7,25,-40.7109,420.829,905.964,-0.416968,-0.517276,-1.67559,
2026_07_06_21_03_37.038,3.858,36.3,0,0.766,0,0,0,0, ,0,0,0,0,0, ,-40.4,422.1,906.9,-0.4,-0.5,-1.7,25,-40.7193,420.912,906,-0.422028,-0.516223,-1.67708,
2026_07_06_21_03_37.057,3.858,36.3,0,0.766,0,0,0,0, ,0,0,0,0,0, ,-41.1,420,906.2,-0.3,-0.5,-1.6,25,-40.7212,420.921,906.034,-0.417639,-0.515234,-1.67543,
2026_07_06_21_03_37.077,3.858,36.3,0,0.763,0,0,0,0, ,0,0,0,0,0, ,-40.6,420.7,906,-0.2,-0.5,-1.8,25,-40.7291,420.886,906.038,-0.407423,-0.514306,-1.67693,
2026_07_06_21_03_37.097,3.858,36.3,0,0.763,0,0,0,0, ,0,0,0,0,0, ,-40.7,420.6,905.3,-0.3,-0.5,-1.6,25,-40.7242,420.872,906.014,-0.39783,-0.513434,-1.67833,
2026_07_06_21_03_37.117,3.858,36.2,0,0.766,0,0,0,0, ,0,0,0,0,0, ,-41,420,906,-0.5,-0.5,-1.7,25,-40.7319,420.837,905.992,-0.397963,-0.512616,-1.67661,
2026_07_06_21_03_37.137,3.858,36.2,0,0.765,0,0,0,0, ,0,0,0,0,0, ,-41.1,420.1,906.7,-0.4,-0.5,-1.7,25,-40.7513,420.789,906.014,-0.401134,-0.511847,-1.67803,
2026_07_06_21_03_37.156,3.858,36.3,0,0.765,0,0,0,0, ,0,0,0,0,0, ,-39.9,419,906.8,-0.5,-0.5,-1.7,25,-40.736,420.713,906.059,-0.404111,-0.511125,-1.67937,
2026_07_06_21_03_37.176,3.858,36.2,0,0.766,0,0,0,0, ,0,0,0,0,0, ,-40.5,420.8,906,-0.5,-0.5,-1.7,25,-40.7033,420.664,906.079,-0.409955,-0.510447,-1.68063,
2026_07_06_21_03_37.200,3.858,36.3,0,0.765,0,0,0,0, ,0,0,0,0,0, ,-40.6,420.4,905.5,-0.4,-0.5,-1.6,25,-40.694,420.66,906.059,-0.412395,-0.50981,-1.67876,
2026_07_06_21_03_37.215,3.858,36.3,0,0.764,0,0,0,0, ,0,0,0,0,0, ,-40.6,421.7,906.9,-0.4,-0.5,-1.7,25,-40.6882,420.684,906.068,-0.41164,-0.509213,-1.67701,
2026_07_06_21_03_37.236,3.858,36.2,0,0.763,0,0,0,0, ,0,0,0,0,0, ,-40,421.6,906.4,-0.4,-0.6,-1.7,25,-40.6646,420.743,906.103,-0.41093,-0.511698,-1.67841,
2026_07_06_21_03_37.255,3.858,36.3,0,0.763,0,0,0,0, ,0,0,0,0,0, ,-40.7,421,906.1,-0.3,-0.5,-1.7,25,-40.6454,420.777,906.112,-0.407217,-0.514032,-1.67973,
2026_07_06_21_03_37.275,3.858,36.3,0,0.766,0,0,0,0, ,0,0,0,0,0, ,-39.6,420.4,906.1,-0.3,-0.5,-1.6,25,-40.6152,420.772,906.111,-0.400684,-0.513177,-1.67791,
2026_07_06_21_03_37.295,3.858,36.3,0,0.764,0,0,0,0, ,0,0,0,0,0, ,-40.5,418.4,905.2,-0.4,-0.6,-1.7,25,-40.5808,420.688,906.083,-0.397595,-0.515421,-1.67621,
2026_07_06_21_03_37.315,3.858,36.3,0,0.764,0,0,0,0, ,0,0,0,0,0, ,-40.1,420.1,906,-0.5,-0.5,-1.6,25,-40.5637,420.601,906.054,-0.400789,-0.517528,-1.67462,
2026_07_06_21_03_37.334,3.858,36.2,0,0.764,0,0,0,0, ,0,0,0,0,0, ,-40.8,420.7,905.8,-0.6,-0.6,-1.7,25,-40.5567,420.588,906.045,-0.409881,-0.519507,-1.67312,
2026_07_06_21_03_37.354,3.858,36.2,0,0.764,0,0,0,0, ,0,0,0,0,0, ,-40.1,421.5,906.3,-0.5,-0.5,-1.7,25,-40.5502,420.62,906.045,-0.41842,-0.521365,-1.67475,
2026_07_06_21_03_37.374,3.858,36.3,0,0.763,0,0,0,0, ,0,0,0,0,0, ,-40.6,421.3,907.2,-0.4,-0.5,-1.7,25,-40.538,420.667,906.088,-0.420344,-0.520063,-1.67629,
2026_07_06_21_03_37.394,3.858,36.2,0,0.765,0,0,0,0, ,0,0,0,0,0, ,-40.7,421.7,904.7,-0.5,-0.5,-1.6,25,-40.5449,420.718,906.079,-0.422151,-0.51884,-1.67469,
2026_07_06_21_03_37.414,3.858,36.3,0,0.765,0,0,0,0, ,0,0,0,0,0, ,-39.9,420.1,906.6,-0.5,-0.4,-1.7,25,-40.5299,420.729,906.053,-0.426895,-0.514645,-1.67319,
2026_07_06_21_03_37.433,3.858,36.3,0,0.764,0,0,0,0, ,0,0,0,0,0, ,-40.6,421,906.8,-0.5,-0.5,-1.7,25,-40.5129,420.718,906.093,-0.43135,-0.510706,-1.67482,
2026_07_06_21_03_37.453,3.858,36.3,0,0.764,0,0,0,0, ,0,0,0,0,0, ,-41.8,420.8,905.7,-0.4,-0.5,-1.6,25,-40.5548,420.729,906.102,-0.432486,-0.510054,-1.67331,
2026_07_06_21_03_37.473,3.858,36.3,0,0.765,0,0,0,0, ,0,0,0,0,0, ,-40.7,421.1,905,-0.3,-0.5,-1.7,25,-40.5971,420.743,906.056,-0.42746,-0.509441,-1.67189,
2026_07_06_21_03_37.493,3.858,36.3,0,0.765,0,0,0,0, ,0,0,0,0,0, ,-39.3,422.4,907.9,-0.3,-0.5,-1.6,25,-40.5607,420.804,906.08,-0.419693,-0.508866,-1.67055,
2026_07_06_21_03_37.512,3.858,36.2,0,0.765,0,0,0,0, ,0,0,0,0,0, ,-39.7,420.8,905.2,-0.3,-0.5,-1.7,25,-40.4961,420.853,906.109,-0.412399,-0.508326,-1.6693,
2026_07_06_21_03_37.532,3.858,36.3,0,0.765,0,0,0,0, ,0,0,0,0,0, ,-40.8,419.1,907.7,2,-0.4,-1.7,25,-40.4811,420.798,906.13,-0.335472,-0.504771,-1.67117,
2026_07_06_21_03_37.552,3.858,36.3,0,0.763,0,0,0,0, ,0,0,0,0,0, ,-40.2,419.6,906,-4.2,-0.3,-1.3,25,-40.4822,420.709,906.174,-0.38206,-0.49534,-1.66074,
2026_07_06_21_03_37.572,3.858,36.3,0,0.766,0,0,0,0, ,0,0,0,0,0, ,-40.7,409.6,908,1.5,-0.5,-1.5,25,-40.4803,420.337,906.224,-0.441044,-0.48953,-1.64485,
2026_07_06_21_03_37.591,3.858,36.2,0,0.765,0,0,0,0, ,0,0,0,0,0, ,-40.1,415.6,906.8,-7.5,-0.8,-2,25,-40.4754,419.866,906.296,-0.59698,-0.499309,-1.65126,
2026_07_06_21_03_37.611,3.858,36.2,0,0.765,0,0,0,0, ,0,0,0,0,0, ,-42.2,408.9,909.1,-6.3,-0.7,-2,25,-40.5165,419.401,906.397,-0.981071,-0.514585,-1.67251,
2026_07_06_21_03_37.632,3.858,36.3,0,0.765,0,0,0,0, ,0,0,0,0,0, ,-40.2,418.5,906.7,-3.3,-0.6,-1.8,25,-40.5582,419.054,906.488,-1.21379,-0.522837,-1.68637,
2026_07_06_21_03_37.652,3.858,36.3,0,0.765,0,0,0,0, ,0,0,0,0,0, ,-40.2,418.5,907.7,-7.6,-0.6,-1.9,25,-40.5363,419.02,906.532,-1.47193,-0.527539,-1.69634,
2026_07_06_21_03_37.672,3.858,36.2,0,0.763,0,0,0,0, ,0,0,0,0,0, ,-40,412.8,910.4,-3.6,-0.5,-1.4,25,-40.5097,418.815,906.685,-1.72348,-0.528908,-1.69352,
2026_07_06_21_03_37.691,3.858,36.3,0,0.763,0,0,0,0, ,0,0,0,0,0, ,8.6,434.6,897.5,4.7,1.4,2.5,25,-38.9979,419.113,906.518,-1.58494,-0.469256,-1.55681,
2026_07_06_21_03_37.711,3.858,36.3,0,0.763,0,0,0,0, ,0,0,0,0,0, ,1.9,604.1,769.2,-45.9,12.4,31.4,25,-36.3015,425.221,902.06,-2.74367,-0.0201918,-0.429047,
2026_07_06_21_03_37.730,3.858,36.3,0,0.765,0,0,0,0, ,0,0,0,0,0, ,-68.6,340.4,936.6,-15.1,18.7,41.6,25,-36.1217,428.087,899.064,-4.43508,0.928617,1.82132,
2026_07_06_21_03_37.750,3.858,36.3,0,0.763,0,0,0,0, ,0,0,0,0,0, ,-64.9,217.5,1011.5,-3.1,10.5,24.2,25,-37.9881,418.999,903.633,-4.71934,1.76172,3.71517,
2026_07_06_21_03_37.770,3.858,36.3,0,0.765,0,0,0,0, ,0,0,0,0,0, ,-50.6,477.1,1007.2,-2.3,0.5,17.7,25,-39.1923,414.63,910.076,-4.59629,1.98952,4.76542,
2026_07_06_21_03_37.790,3.858,36.3,0,0.765,0,0,0,0, ,0,0,0,0,0, ,45.8,375.7,932.3,-16.9,6,28.6,25,-36.9503,415.347,913.712,-4.9012,2.06633,5.88573,
2026_07_06_21_03_37.810,3.858,36.2,0,0.763,0,0,0,0, ,0,0,0,0,0, ,-13.4,509.8,1039.1,-16.9,33.5,-3.7,25,-33.7115,417.017,918.099,-5.63238,3.14393,6.28574,
2026_07_06_21_03_37.829,3.858,36.3,0,0.765,0,0,0,0, ,0,0,0,0,0, ,-80.3,414.6,1058.9,-38.4,65.7,-30.7,25,-34.5121,419.77,926.076,-6.97408,5.97484,4.85458,
2026_07_06_21_03_37.849,3.858,36.3,0,0.766,0,0,0,0, ,0,0,0,0,0, ,-67.7,337.5,1004.2,-33.4,87.2,-34.3,25,-36.9184,417.106,932.503,-8.73675,10.2694,2.57828,
2026_07_06_21_03_37.868,3.858,36.2,0,0.765,0,0,0,0, ,0,0,0,0,0, ,-155.5,420.4,949.3,-47.6,83.7,-27.6,25,-41.4693,414.781,935.199,-10.6723,14.8507,0.535155,
2026_07_06_21_03_37.888,3.858,36.2,0,0.765,0,0,0,0, ,0,0,0,0,0, ,-150.6,388.3,903.9,-53.7,69.7,-27.5,25,-48.2687,414.145,934.675,-13.1085,18.6197,-1.17628,
2026_07_06_21_03_37.908,3.858,36.3,0,0.763,0,0,0,0, ,0,0,0,0,0, ,-186,363.4,918.9,-48.6,68.9,-30.8,25,-55.5831,411.811,933.257,-15.4266,21.708,-2.88093,
2026_07_06_21_03_37.928,3.858,36.2,0,0.765,0,0,0,0, ,0,0,0,0,0, ,-167.1,312.7,954.9,-30.6,65.8,-46.3,25,-62.9546,407.317,933.479,-16.8997,24.4893,-5.05452,
2026_07_06_21_03_37.948,3.858,36.3,0,0.765,0,0,0,0, ,0,0,0,0,0, ,-213.1,146.9,713.7,-6.5,50.1,-47.3,25,-70.7025,396.499,927.435,-17.0003,26.5283,-7.59838,
2026_07_06_21_03_37.968,3.858,36.3,0,0.765,0,0,0,0, ,0,0,0,0,0, ,-163.5,319.4,885.7,6.7,-41.8,6.5,25,-77.8686,386.545,919.651,-15.9582,25.1646,-8.37848,
2026_07_06_21_03_37.988,3.858,36.2,0,0.763,0,0,0,0, ,0,0,0,0,0, ,-195.9,351.4,902.7,13.6,-27.6,-8,25,-84.0739,383.428,918.1,-14.3672,21.5166,-7.91362,
2026_07_06_21_03_38.008,3.858,36.3,0,0.765,0,0,0,0, ,0,0,0,0,0, ,-197.1,304.3,937.6,18.2,-29.9,-4.8,25,-90.9249,380.042,918.225,-12.5228,18.4535,-7.82138,
2026_07_06_21_03_38.027,3.858,36.3,0,0.765,0,0,0,0, ,0,0,0,0,0, ,-208.1,302.8,935.7,13.1,-28.8,-6.9,25,-97.7301,375.38,919.348,-10.806,15.5405,-7.70125,
2026_07_06_21_03_38.047,3.858,36.3,0,0.765,0,0,0,0, ,0,0,0,0,0, ,-204.5,329.2,943.7,22.1,-25.1,-5.2,25,-104.346,371.762,920.588,-9.07505,12.9512,-7.60063,
2026_07_06_21_03_38.067,3.858,36.3,0,0.765,0,0,0,0, ,0,0,0,0,0, ,-180.9,344.3,922.1,9.4,-20.3,-4.5,25,-109.73,369.628,921.338,-7.56228,10.7787,-7.43301,
2026_07_06_21_03_38.087,3.858,36.2,0,0.766,0,0,0,0, ,0,0,0,0,0, ,-156.2,345.4,891.9,-3,-14.7,-1.8,25,-113.314,368.118,920.465,-6.90645,9.0555,-7.17202,
2026_07_06_21_03_38.106,3.858,36.2,0,0.765,0,0,0,0, ,0,0,0,0,0, ,-152.9,367.5,913.6,-3.9,-10.8,2.6,25,-115.827,367.407,919.385,-6.69582,7.72673,-6.7106,
2026_07_06_21_03_38.127,3.858,36.3,0,0.765,0,0,0,0, ,0,0,0,0,0, ,-165,329.9,935.1,-6.8,-2.3,3.2,25,-118.455,366.267,919.688,-6.61381,6.85674,-6.12495,
2026_07_06_21_03_38.146,3.858,36.3,0,0.765,0,0,0,0, ,0,0,0,0,0, ,-189.9,331.4,938.1,-14.7,7.8,-0.5,25,-122.05,364.097,920.718,-6.86586,6.60649,-5.66945,
2026_07_06_21_03_38.167,3.858,36.2,0,0.763,0,0,0,0, ,0,0,0,0,0, ,-181.2,327.6,922.2,-16.1,10.8,1.4,25,-125.92,361.989,921.293,-7.38591,6.77062,-5.29654,
2026_07_06_21_03_38.186,3.858,36.3,0,0.765,0,0,0,0, ,0,0,0,0,0, ,-179.6,318.7,922.9,-10.8,4.1,0,25,-129.239,359.622,921.37,-7.75544,6.81202,-4.93113,
2026_07_06_21_03_38.206,3.858,36.2,0,0.763,0,0,0,0, ,0,0,0,0,0, ,-178.2,311.6,954.5,-7.5,-3.6,-4.1,25,-132.266,356.912,922.426,-7.84042,6.41215,-4.75556,
2026_07_06_21_03_38.225,3.858,36.2,0,0.765,0,0,0,0, ,0,0,0,0,0, ,-173.3,307.6,973.2,-8.6,-1,-4.5,25,-134.916,354.029,924.95,-7.85319,5.88125,-4.7278,
2026_07_06_21_03_38.245,3.858,36.2,0,0.765,0,0,0,0, ,0,0,0,0,0, ,-168.9,326.7,962.5,-15.8,-2.8,-6.6,25,-137.12,351.782,927.564,-8.11808,5.40708,-4.7779,
2026_07_06_21_03_38.264,3.858,36.2,0,0.766,0,0,0,0, ,0,0,0,0,0, ,-182.4,308.2,947,-13.7,-6,-8.2,25,-139.468,349.69,929.221,-8.52221,4.80946,-4.93769,
2026_07_06_21_03_38.285,3.858,36.2,0,0.765,0,0,0,0, ,0,0,0,0,0, ,-181.8,296.5,945.5,-9.1,-5.7,-8.2,25,-142.066,346.805,930.259,-8.69757,4.1599,-5.13648,
2026_07_06_21_03_38.304,3.858,36.3,0,0.765,0,0,0,0, ,0,0,0,0,0, ,-162.1,294.7,973.1,-6.7,-8.5,-7.9,25,-143.887,343.684,932.028,-8.64897,3.47375,-5.31403,
2026_07_06_21_03_38.324,3.858,36.3,0,0.765,0,0,0,0, ,0,0,0,0,0, ,-163.5,311.7,983.1,-10.2,-10.6,-7.7,25,-145.04,341.217,934.836,-8.63685,2.68012,-5.46551,
2026_07_06_21_03_38.344,3.858,36.2,0,0.765,0,0,0,0, ,0,0,0,0,0, ,-172.1,297.9,975.5,-10.2,-4.6,-5.6,25,-146.427,338.998,937.545,-8.7321,2.05367,-5.53769,
2026_07_06_21_03_38.363,3.858,36.3,0,0.765,0,0,0,0, ,0,0,0,0,0, ,-163,291.1,954.9,-19.7,-22.7,-1.4,25,-147.714,336.287,939.231,-9.111,1.09673,-5.41352,
2026_07_06_21_03_38.383,3.858,36.3,0,0.765,0,0,0,0, ,0,0,0,0,0, ,-176.8,301.2,934.3,-17.2,-6.4,-7.2,25,-149.066,333.841,939.558,-9.6801,0.143257,-5.34567,
2026_07_06_21_03_38.404,3.858,36.3,0,0.765,0,0,0,0, ,0,0,0,0,0, ,-146.2,299.6,957.3,-15.7,-12,-2.4,25,-149.824,331.803,939.938,-10.0926,-0.426098,-5.31242,
2026_07_06_21_03_38.426,3.858,36.3,0,0.764,0,0,0,0, ,0,0,0,0,0, ,-127.5,280.2,941,-17.1,-21.5,-1.3,25,-149.033,329.25,940.499,-10.477,-1.42084,-5.10142,
2026_07_06_21_03_38.443,3.858,36.3,0,0.765,0,0,0,0, ,0,0,0,0,0, ,-170,266.7,969.3,-13.4,-13.6,-4.7,25,-149.016,325.849,941.392,-10.7679,-2.40371,-4.97337,
2026_07_06_21_03_38.462,3.858,36.3,0,0.766,0,0,0,0, ,0,0,0,0,0, ,-157.1,264.7,959.3,-15,-8.1,-7.9,25,-149.901,322.184,942.788,-10.977,-2.9184,-5.05421,
2026_07_06_21_03_38.482,3.858,36.2,0,0.765,0,0,0,0, ,0,0,0,0,0, ,-134,262.3,954.9,-17.8,-8.1,-9.6,25,-149.636,318.608,943.66,-11.3075,-3.23416,-5.27942,
2026_07_06_21_03_38.502,3.858,36.2,0,0.763,0,0,0,0, ,0,0,0,0,0, ,-132.2,269.1,945.8,-17,-10,-8,25,-148.629,315.384,944.068,-11.6787,-3.58856,-5.49396,
2026_07_06_21_03_38.522,3.858,36.2,0,0.763,0,0,0,0, ,0,0,0,0,0, ,-122.9,229.1,963.7,-13.6,-7.9,0.4,25,-147.344,311.345,944.719,-11.8994,-3.91527,-5.39073,
2026_07_06_21_03_38.542,3.858,36.2,0,0.766,0,0,0,0, ,0,0,0,0,0, ,-128,266.2,967.7,-10.2,-7,0.1,25,-146.01,307.463,945.997,-11.8994,-4.13067,-5.047,
2026_07_06_21_03_38.562,3.858,36.2,0,0.765,0,0,0,0, ,0,0,0,0,0, ,-129.1,251,961.6,-4.7,-4.4,-2.5,25,-144.946,304.486,947.134,-11.6283,-4.2263,-4.81257,
2026_07_06_21_03_38.582,3.858,36.2,0,0.766,0,0,0,0, ,0,0,0,0,0, ,-129.1,235.8,950,-3.5,-0.1,-1.1,25,-143.98,300.763,947.662,-11.1695,-4.10587,-4.62899,
2026_07_06_21_03_38.602,3.858,36.3,0,0.765,0,0,0,0, ,0,0,0,0,0, ,-130.8,238.6,952.1,-4.7,-1.3,-1.8,25,-143.125,296.89,947.869,-10.7387,-3.89832,-4.43527,
2026_07_06_21_03_38.621,3.858,36.3,0,0.765,0,0,0,0, ,0,0,0,0,0, ,-122.3,240.3,957.1,-1.9,-8.5,-4.8,25,-142.115,293.39,948.279,-10.2854,-3.95936,-4.36609,
2026_07_06_21_03_38.641,3.858,36.3,0,0.765,0,0,0,0, ,0,0,0,0,0, ,-118.2,233.7,965.9,3.4,-8.6,-3,25,-140.783,289.953,949.084,-9.61297,-4.23911,-4.33769,
2026_07_06_21_03_38.661,3.858,36.3,0,0.766,0,0,0,0, ,0,0,0,0,0, ,-126.7,224.1,965.5,1.6,-9,-2.5,25,-139.666,286.233,950.097,-8.87484,-4.51704,-4.24094,
2026_07_06_21_03_38.681,3.858,36.2,0,0.765,0,0,0,0, ,0,0,0,0,0, ,-128.7,231.8,965.4,1.5,-12,-6.4,25,-138.937,282.681,951.033,-8.23957,-4.88162,-4.25368,
2026_07_06_21_03_38.701,3.858,36.3,0,0.765,0,0,0,0, ,0,0,0,0,0, ,-107.2,234.7,965.6,-0.8,-11.6,-6.7,25,-137.658,279.669,951.914,-7.71615,-5.30321,-4.39361,
2026_07_06_21_03_38.721,3.858,36.2,0,0.764,0,0,0,0, ,0,0,0,0,0, ,-99.8,224.6,953.8,-1.5,-10.6,-3.6,25,-135.576,276.621,952.389,-7.31602,-5.65645,-4.43971,
2026_07_06_21_03_38.740,3.858,36.2,0,0.763,0,0,0,0, ,0,0,0,0,0, ,-101.1,241.5,955.4,0.5,-12.7,-2.5,25,-133.436,273.966,952.523,-6.90067,-6.02168,-4.35502,
2026_07_06_21_03_38.760,3.858,36.2,0,0.765,0,0,0,0, ,0,0,0,0,0, ,-104.2,230.2,952.5,2.8,-10.5,-1.9,25,-131.56,271.643,952.61,-6.37961,-6.36161,-4.2237,
2026_07_06_21_03_38.780,3.858,36.2,0,0.765,0,0,0,0, ,0,0,0,0,0, ,-141.8,252.6,964.9,0.4,-12.1,-5,25,-131.038,269.8,952.981,-5.89336,-6.66255,-4.17655,
2026_07_06_21_03_38.799,3.858,36.2,0,0.765,0,0,0,0, ,0,0,0,0,0, ,-134.3,186.7,901,15.2,-69.8,3.8,25,-131.465,266.744,951.761,-5.05892,-8.75194,-3.95861,
2026_07_06_21_03_38.818,3.858,36.2,0,0.766,0,0,0,0, ,0,0,0,0,0, ,31.8,195.4,891.3,-29.2,-123,12.7,25,-126.577,262.132,948.372,-5.1772,-14.093,-3.21464,
2026_07_06_21_03_38.839,3.858,36.3,0,0.765,0,0,0,0, ,0,0,0,0,0, ,12,219.4,957.7,0,-64.2,14,25,-117.529,258.796,946.917,-5.7514,-18.9379,-2.20524,
2026_07_06_21_03_38.858,3.858,36.3,0,0.765,0,0,0,0, ,0,0,0,0,0, ,-34.9,237.6,1009.7,2.6,0.4,-9.7,25,-111.065,256.95,949.159,-5.32171,-19.7278,-1.93984,
2026_07_06_21_03_38.878,3.858,36.2,0,0.764,0,0,0,0, ,0,0,0,0,0, ,-21.1,213.5,978,-8.7,1.3,-16.9,25,-106.003,255.037,951.882,-5.18328,-18.4739,-2.6321,
2026_07_06_21_03_38.898,3.858,36.2,0,0.764,0,0,0,0, ,0,0,0,0,0, ,-9.5,222.1,958.6,-11,-5.7,-12.4,25,-100.476,252.768,952.883,-5.46765,-17.4822,-3.36444,
2026_07_06_21_03_38.918,3.858,36.2,0,0.764,0,0,0,0, ,0,0,0,0,0, ,-0.1,243.7,962.7,-8.5,-1.7,-13.1,25,-94.6459,251.557,953.356,-5.72861,-16.6423,-3.93637,
2026_07_06_21_03_38.938,3.858,36.3,0,0.763,0,0,0,0, ,0,0,0,0,0, ,7.2,250.6,961.7,-7.3,-4.4,-9.8,25,-88.6621,251.288,953.895,-5.86093,-15.814,-4.39423,
2026_07_06_21_03_38.958,3.858,36.2,0,0.764,0,0,0,0, ,0,0,0,0,0, ,6.7,234.8,964.5,-5.1,-7.9,-9.5,25,-82.8358,250.765,954.456,-5.88159,-15.2251,-4.71451,
2026_07_06_21_03_38.981,3.858,36.3,0,0.765,0,0,0,0, ,0,0,0,0,0, ,-4,223.3,972.5,-4.1,-10.3,-9.4,25,-77.7057,249.442,955.312,-5.80349,-14.8519,-5.00308,
2026_07_06_21_03_38.998,3.858,36.2,0,0.763,0,0,0,0, ,0,0,0,0,0, ,-8.1,220.7,980.8,-5.6,-8.6,-9.9,25,-73.3392,247.77,956.612,-5.74539,-14.5227,-5.28625,
2026_07_06_21_03_39.017,3.858,36.2,0,0.765,0,0,0,0, ,0,0,0,0,0, ,2.3,220.7,974.9,-7.6,-5.2,-12.7,25,-69.0468,246.12,957.906,-5.79747,-14.0582,-5.65271,
2026_07_06_21_03_39.037,3.858,36.2,0,0.765,0,0,0,0, ,0,0,0,0,0, ,24.4,221.8,958.2,-7.7,-6.9,-11,25,-64.0257,244.605,958.433,-5.91036,-13.5702,-6.03036,
2026_07_06_21_03_39.056,3.858,36.3,0,0.764,0,0,0,0, ,0,0,0,0,0, ,27.4,217.8,954.7,-3.9,-9.5,-6.5,25,-58.5459,243.093,958.312,-5.90363,-13.243,-6.19609,
2026_07_06_21_03_39.076,3.858,36.2,0,0.763,0,0,0,0, ,0,0,0,0,0, ,18.5,205.5,966.9,-2.7,-12.3,-4,25,-53.5797,241.177,958.464,-5.74497,-13.1002,-6.13843,
2026_07_06_21_03_39.096,3.858,36.2,0,0.764,0,0,0,0, ,0,0,0,0,0, ,8.1,193.2,979.3,-4.1,-11.3,-5.7,25,-49.5042,238.628,959.356,-5.60208,-13.021,-6.05992,
2026_07_06_21_03_39.116,3.858,36.2,0,0.765,0,0,0,0, ,0,0,0,0,0, ,13.3,191.7,967.8,-7.7,-6.2,-7.7,25,-45.8355,235.814,960.22,-5.62023,-12.7607,-6.09892,
2026_07_06_21_03_39.136,3.858,36.2,0,0.764,0,0,0,0, ,0,0,0,0,0, ,20.8,197.2,942.2,-7.9,-5.2,-6.8,25,-42.0035,233.294,959.902,-5.75306,-12.3304,-6.16907,
2026_07_06_21_03_39.156,3.858,36.3,0,0.764,0,0,0,0, ,0,0,0,0,0, ,21.6,194.3,947.8,-2.4,-8.8,-6.3,25,-38.152,231.006,958.994,-5.71631,-12.0056,-6.19228,
2026_07_06_21_03_39.178,3.858,36.1,0,0.765,0,0,0,0, ,0,0,0,0,0, ,28,193.6,970.8,-0.3,-8.6,-6.5,25,-34.3159,228.748,959.013,-5.45024,-11.8042,-6.20494,
2026_07_06_21_03_39.196,3.858,36.2,0,0.764,0,0,0,0, ,0,0,0,0,0, ,41.1,190.1,981.5,-3.5,-5.1,-6.9,25,-30.1193,226.499,960.057,-5.2339,-11.5023,-6.23511,
2026_07_06_21_03_39.215,3.858,36.3,0,0.764,0,0,0,0, ,0,0,0,0,0, ,43.7,193.3,964.4,-5.6,-4.1,-6.8,25,-25.7002,224.379,960.843,-5.19222,-11.0817,-6.27258,
2026_07_06_21_03_39.235,3.858,36.3,0,0.764,0,0,0,0, ,0,0,0,0,0, ,45,195.3,943.9,-3.8,-5.3,-4.5,25,-21.4315,222.546,960.435,-5.16223,-10.6928,-6.23464,
2026_07_06_21_03_39.255,3.858,36.2,0,0.764,0,0,0,0, ,0,0,0,0,0, ,43,191.6,953.1,0.3,-6.9,-2.9,25,-17.4443,220.773,959.708,-4.95429,-10.4129,-6.08018,
2026_07_06_21_03_39.274,3.858,36.2,0,0.766,0,0,0,0, ,0,0,0,0,0, ,42.7,190.5,962.6,1.1,-7.2,-2.8,25,-13.7701,218.961,959.594,-4.60974,-10.208,-5.88334,
2026_07_06_21_03_39.294,3.858,36.1,0,0.765,0,0,0,0, ,0,0,0,0,0, ,38.8,177.2,964.2,-0.5,-4.4,-4,25,-10.4478,216.822,959.826,-4.31055,-9.93937,-5.73202,
2026_07_06_21_03_39.314,3.858,36.3,0,0.764,0,0,0,0, ,0,0,0,0,0, ,37.2,175.6,951.1,-3.6,-2.3,-5.2,25,-7.4955,214.359,959.694,-4.1728,-9.53783,-5.66303,
2026_07_06_21_03_39.334,3.858,36.2,0,0.765,0,0,0,0, ,0,0,0,0,0, ,47.7,186.2,941,-2.2,-0.2,-6.6,25,-4.45194,212.32,958.862,-4.09524,-9.03279,-5.67747,
2026_07_06_21_03_39.359,3.858,36.2,0,0.765,0,0,0,0, ,0,0,0,0,0, ,63.3,198.8,937.3,0,-1,-3.8,25,-0.798623,211.112,957.661,-3.91271,-8.51892,-5.64838,
2026_07_06_21_03_39.375,3.858,36.3,0,0.763,0,0,0,0, ,0,0,0,0,0, ,50.4,208.9,948.6,3.6,-1.8,-0.6,25,2.71434,210.669,956.765,-3.5646,-8.08511,-5.43824,
2026_07_06_21_03_39.393,3.858,36.2,0,0.764,0,0,0,0, ,0,0,0,0,0, ,25.6,188.8,955.9,4.9,2.4,-0.5,25,4.86456,209.949,956.49,-3.08839,-7.57414,-5.14037,
2026_07_06_21_03_39.413,3.858,36.2,0,0.765,0,0,0,0, ,0,0,0,0,0, ,10.8,187.8,974.8,3.9,4.7,-4.2,25,5.67719,208.63,957.029,-2.63207,-6.89627,-4.97033,
2026_07_06_21_03_39.433,3.858,36.2,0,0.764,0,0,0,0, ,0,0,0,0,0, ,25.7,187.8,982.1,2.4,6.6,-6.2,25,6.44334,207.361,958.335,-2.27972,-6.13173,-4.98432,
2026_07_06_21_03_39.453,3.858,36.2,0,0.765,0,0,0,0, ,0,0,0,0,0, ,46.2,203.8,987.1,2.4,4.1,-4.8,25,8.24141,206.656,959.935,-1.99455,-5.43206,-5.01575,
2026_07_06_21_03_39.473,3.858,36.2,0,0.764,0,0,0,0, ,0,0,0,0,0, ,51.7,206.2,988.6,3.9,-0.1,-0.6,25,10.7221,206.555,961.636,-1.68106,-4.97917,-4.87463,
2026_07_06_21_03_39.493,3.858,36.2,0,0.765,0,0,0,0, ,0,0,0,0,0, ,28.4,214.8,997.6,3.6,-4.3,2.2,25,12.5093,206.796,963.554,-1.3501,-4.80981,-4.52883,
2026_07_06_21_03_39.513,3.858,36.3,0,0.765,0,0,0,0, ,0,0,0,0,0, ,-3.6,208.4,992.6,1.3,-1.4,0.2,25,12.5026,207.088,965.476,-1.11853,-4.69039,-4.17973,
2026_07_06_21_03_39.532,3.858,36.2,0,0.765,0,0,0,0, ,0,0,0,0,0, ,0.7,213.2,988.4,-0.9,2.9,-3.5,25,11.6524,207.315,967.001,-1.03819,-4.35886,-4.02558,
2026_07_06_21_03_39.556,3.858,36.3,0,0.764,0,0,0,0, ,0,0,0,0,0, ,19.8,215.3,982,-1.6,3.8,-3.8,25,11.5669,207.737,968.11,-1.05109,-3.88911,-4.00269,
2026_07_06_21_03_39.573,3.858,36.3,0,0.765,0,0,0,0, ,0,0,0,0,0, ,36.2,220.9,979.2,1.4,-1,-0.8,25,12.5683,208.369,968.871,-0.993136,-3.5668,-3.89893,
2026_07_06_21_03_39.591,3.858,36.2,0,0.767,0,0,0,0, ,0,0,0,0,0, ,34.3,217.7,994.9,2.8,-5.9,1,25,13.9505,209.035,969.979,-0.804648,-3.55968,-3.65525,
2026_07_06_21_03_39.611,3.858,36.2,0,0.763,0,0,0,0, ,0,0,0,0,0, ,18.5,207.7,989.9,-0.1,-2.9,0.4,25,14.7091,209.258,971.345,-0.673349,-3.61089,-3.38985,
2026_07_06_21_03_39.631,3.858,36.2,0,0.765,0,0,0,0, ,0,0,0,0,0, ,12.2,205,969.3,-2.9,0.3,-1.7,25,14.7482,209.081,971.848,-0.723723,-3.47007,-3.22289,
2026_07_06_21_03_39.651,3.858,36.3,0,0.765,0,0,0,0, ,0,0,0,0,0, ,7.4,204.9,951.7,-1.5,1.4,-2.3,25,14.4466,208.829,971.157,-0.813684,-3.20682,-3.14837,
2026_07_06_21_03_39.670,3.858,36.2,0,0.763,0,0,0,0, ,0,0,0,0,0, ,10.3,211.4,963.2,0.9,0.5,-3.5,25,14.1056,208.788,970.321,-0.782381,-2.95351,-3.13324,
2026_07_06_21_03_39.690,3.858,36.1,0,0.764,0,0,0,0, ,0,0,0,0,0, ,20.3,205.2,973.9,1.3,1.1,-4,25,14.1784,208.758,970.213,-0.667674,-2.72478,-3.17082,
2026_07_06_21_03_39.710,3.858,36.2,0,0.765,0,0,0,0, ,0,0,0,0,0, ,27.9,203.9,979.7,0.5,1.6,-3.8,25,14.783,208.502,970.615,-0.572144,-2.47647,-3.21525,
2026_07_06_21_03_39.730,3.858,36.2,0,0.764,0,0,0,0, ,0,0,0,0,0, ,25,196.8,971.3,-1.3,3.9,-2.8,25,15.4939,208.005,970.913,-0.561654,-2.15799,-3.22042,
2026_07_06_21_03_39.756,3.858,36.2,0,0.765,0,0,0,0, ,0,0,0,0,0, ,25.1,210.2,975.4,-1.5,3.2,-4.1,25,16.0763,207.73,971.061,-0.61274,-1.81015,-3.23441,
2026_07_06_21_03_39.774,3.858,36.2,0,0.766,0,0,0,0, ,0,0,0,0,0, ,42.8,219.7,987,-1.1,0,-4.6,25,17.1654,208.17,971.679,-0.65462,-1.60235,-3.30239,
2026_07_06_21_03_39.789,3.858,36.2,0,0.763,0,0,0,0, ,0,0,0,0,0, ,42.8,223.9,984.7,-1.3,-1.4,-1.2,25,18.7275,209.001,972.542,-0.687854,-1.54736,-3.27787,
2026_07_06_21_03_39.809,3.858,36.2,0,0.763,0,0,0,0, ,0,0,0,0,0, ,19.5,217.7,970,-0.8,-0.4,0.4,25,19.4845,209.72,972.835,-0.709922,-1.50791,-3.1025,
2026_07_06_21_03_39.829,3.858,36.3,0,0.764,0,0,0,0, ,0,0,0,0,0, ,10,212.5,979.4,0.6,-1.6,-1.6,25,19.196,210.048,972.949,-0.672755,-1.47696,-2.95,
2026_07_06_21_03_39.849,3.858,36.2,0,0.767,0,0,0,0, ,0,0,0,0,0, ,18.6,209.9,1000.2,-1.1,-0.4,-2.8,25,18.8977,210.118,973.976,-0.646994,-1.4479,-2.9043,
2026_07_06_21_03_39.869,3.858,36.2,0,0.765,0,0,0,0, ,0,0,0,0,0, ,18,205.3,982.6,-3.2,0,-1.2,25,18.8613,209.965,975.038,-0.738583,-1.37185,-2.84919,
2026_07_06_21_03_39.889,3.858,36.2,0,0.764,0,0,0,0, ,0,0,0,0,0, ,10.4,206,970.2,-1.4,-1.6,-0.9,25,18.5772,209.702,975.121,-0.833732,-1.33701,-2.73956,
2026_07_06_21_03_39.908,3.858,36.2,0,0.764,0,0,0,0, ,0,0,0,0,0, ,11.7,200.1,975.2,-0.4,-0.6,-1.3,25,18.1185,209.296,974.973,-0.83777,-1.32256,-2.63965,
2026_07_06_21_03_39.928,3.858,36.2,0,0.764,0,0,0,0, ,0,0,0,0,0, ,18,202.3,977.1,-1.9,0.4,-1.3,25,17.9193,208.803,975.045,-0.856797,-1.24806,-2.55801,
2026_07_06_21_03_39.948,3.858,36.2,0,0.765,0,0,0,0, ,0,0,0,0,0, ,11.5,200.6,968.9,-1.5,-0.1,-1.6,25,17.7262,208.355,974.92,-0.908179,-1.16287,-2.49049,
2026_07_06_21_03_39.974,3.858,36.2,0,0.766,0,0,0,0, ,0,0,0,0,0, ,7.6,203.2,968.3,-0.7,-0.8,-1.7,25,17.228,207.962,974.535,-0.919868,-1.11943,-2.43927,
2026_07_06_21_03_39.988,3.858,36.3,0,0.765,0,0,0,0, ,0,0,0,0,0, ,3.4,194.4,972.5,0.9,-1.1,-1.7,25,16.5133,207.403,974.283,-0.85772,-1.1091,-2.39422,
2026_07_06_21_03_40.007,3.858,36.2,0,0.765,0,0,0,0, ,0,0,0,0,0, ,0.9,201,987.5,0,0.6,-3.1,25,15.638,206.812,974.632,-0.778031,-1.05675,-2.39458,
2026_07_06_21_03_40.027,3.858,36.2,0,0.765,0,0,0,0, ,0,0,0,0,0, ,15.5,206,981,-1.1,2.5,-2.9,25,15.1848,206.61,975.218,-0.764135,-0.897904,-2.43147,
2026_07_06_21_03_40.047,3.858,36.2,0,0.763,0,0,0,0, ,0,0,0,0,0, ,20.6,217.7,975,0.9,-0.1,-1.9,25,15.3594,206.929,975.387,-0.723665,-0.770063,-2.42955,
2026_07_06_21_03_40.067,3.858,36.2,0,0.765,0,0,0,0, ,0,0,0,0,0, ,7.9,214.3,974.4,3,-1,-0.5,25,15.2918,207.482,975.345,-0.560738,-0.756653,-2.35463,
2026_07_06_21_03_40.086,3.858,36.2,0,0.765,0,0,0,0, ,0,0,0,0,0, ,12,207.3,996.4,2.7,-2.1,-2.6,25,14.9663,207.684,975.958,-0.352896,-0.804997,-2.30559,
2026_07_06_21_03_40.106,3.858,36.3,0,0.766,0,0,0,0, ,0,0,0,0,0, ,18.3,208.4,999,-0.7,-0.6,-2.6,25,14.9775,207.694,977.283,-0.270454,-0.838208,-2.32353,
2026_07_06_21_03_40.126,3.858,36.2,0,0.765,0,0,0,0, ,0,0,0,0,0, ,16.3,220.8,978,-2.1,1,-3,25,15.119,208.115,977.966,-0.339286,-0.774942,-2.35257,
2026_07_06_21_03_40.146,3.858,36.2,0,0.764,0,0,0,0, ,0,0,0,0,0, ,21.3,220,962.7,0.6,0.9,-1.9,25,15.3433,208.864,977.502,-0.364314,-0.669829,-2.35851,
2026_07_06_21_03_40.166,3.858,36.3,0,0.764,0,0,0,0, ,0,0,0,0,0, ,26.6,217.6,970.8,1.9,-0.9,-0.2,25,15.8678,209.469,976.847,-0.265942,-0.629011,-2.27877,
2026_07_06_21_03_40.186,3.858,36.2,0,0.764,0,0,0,0, ,0,0,0,0,0, ,18.7,213.3,983.6,1.8,-0.9,-0.2,25,16.2811,209.834,976.869,-0.137001,-0.645524,-2.15209,
2026_07_06_21_03_40.205,3.858,36.2,0,0.765,0,0,0,0, ,0,0,0,0,0, ,9.5,206.5,978.8,-0.3,0.6,-1.5,25,16.1482,209.838,977.133,-0.0829498,-0.615328,-2.07275,
2026_07_06_21_03_40.225,3.858,36.2,0,0.764,0,0,0,0, ,0,0,0,0,0, ,9.8,206,975.4,-0.6,1,-3.3,25,15.7522,209.619,977.131,-0.105317,-0.529082,-2.09269,
2026_07_06_21_03_40.245,3.858,36.3,0,0.764,0,0,0,0, ,0,0,0,0,0, ,16.2,213.3,972.1,-1,0.9,-3.2,25,15.5845,209.621,976.925,-0.147649,-0.43895,-2.16321,
2026_07_06_21_03_40.265,3.858,36.3,0,0.764,0,0,0,0, ,0,0,0,0,0, ,17.5,218.7,963.6,0.3,1.2,-1.3,25,15.6616,210.01,976.372,-0.15998,-0.348217,-2.1685,
2026_07_06_21_03_40.285,3.858,36.3,0,0.765,0,0,0,0, ,0,0,0,0,0, ,21.4,216.1,977.4,1.7,0.3,-1.8,25,15.8924,210.46,976.014,-0.0892936,-0.281295,-2.13081,
2026_07_06_21_03_40.304,3.858,36.2,0,0.765,0,0,0,0, ,0,0,0,0,0, ,21.7,208.1,989.6,0,0,-1.3,25,16.2372,210.56,976.47,-0.0320554,-0.255013,-2.09542,
2026_07_06_21_03_40.324,3.858,36.2,0,0.765,0,0,0,0, ,0,0,0,0,0, ,6.4,211.6,972.6,-1.9,0.3,-1.9,25,16.1039,210.517,976.752,-0.0879927,-0.230332,-2.06523,
2026_07_06_21_03_40.344,3.858,36.1,0,0.764,0,0,0,0, ,0,0,0,0,0, ,0.8,214.5,958.3,-0.6,2.1,-2.6,25,15.342,210.671,976.063,-0.158802,-0.143171,-2.07649,
2026_07_06_21_03_40.364,3.858,36.1,0,0.765,0,0,0,0, ,0,0,0,0,0, ,17.8,217.2,973.1,1,2,-2.1,25,14.9738,210.987,975.432,-0.136938,-0.00952508,-2.09316,
2026_07_06_21_03_40.384,3.858,36.2,0,0.763,0,0,0,0, ,0,0,0,0,0, ,10.6,215,981,1.8,-0.7,-0.8,25,14.9266,211.298,975.53,-0.0432808,0.0306647,-2.05396,
2026_07_06_21_03_40.404,3.858,36.1,0,0.764,0,0,0,0, ,0,0,0,0,0, ,-3.7,210.3,984,1.1,-1.5,-1.5,25,14.2273,211.381,975.955,0.047716,-0.0382352,-1.99888,
2026_07_06_21_03_40.423,3.858,36.2,0,0.765,0,0,0,0, ,0,0,0,0,0, ,-8.3,211.3,986,-0.3,0.5,-3.1,25,12.9947,211.345,976.506,0.0691833,-0.0663739,-2.01723,
2026_07_06_21_03_40.442,3.858,36.2,0,0.765,0,0,0,0, ,0,0,0,0,0, ,9.5,223.5,982.4,-1,2,-3.8,25,12.2394,211.714,976.975,0.0253581,0.0138426,-2.10454,
2026_07_06_21_03_40.462,3.858,36.2,0,0.764,0,0,0,0, ,0,0,0,0,0, ,14.7,227.1,980.1,0.3,-0.5,-2.3,25,12.2309,212.542,977.236,0.00248468,0.0587022,-2.16215,
2026_07_06_21_03_40.482,3.858,36.2,0,0.764,0,0,0,0, ,0,0,0,0,0, ,14.2,221.4,984.7,2.1,-2.6,-0.7,25,12.3661,213.256,977.55,0.0754583,-0.0393281,-2.1218,
2026_07_06_21_03_40.502,3.858,36.3,0,0.765,0,0,0,0, ,0,0,0,0,0, ,3,214.8,989.9,0.9,-2,-1.2,25,12.1366,213.551,978.145,0.162266,-0.177088,-2.05039,
2026_07_06_21_03_40.522,3.858,36.2,0,0.764,0,0,0,0, ,0,0,0,0,0, ,9.5,214.5,995.8,-2.1,-0.1,-4,25,11.7779,213.618,979.041,0.115816,-0.230281,-2.08389,
2026_07_06_21_03_40.542,3.858,36.2,0,0.763,0,0,0,0, ,0,0,0,0,0, ,15.5,223.1,972.9,-4,1.2,-3.5,25,11.8219,213.934,979.364,-0.0771012,-0.182733,-2.18542,
2026_07_06_21_03_40.561,3.858,36.1,0,0.766,0,0,0,0, ,0,0,0,0,0, ,20.6,221.5,951.5,-0.8,0,-1,25,12.2014,214.443,978.318,-0.218653,-0.135035,-2.18935,
2026_07_06_21_03_40.581,3.858,36.2,0,0.764,0,0,0,0, ,0,0,0,0,0, ,20.6,215.4,964.4,2.6,-2.8,-0.1,25,12.7132,214.688,977.077,-0.150485,-0.212119,-2.08945,
2026_07_06_21_03_40.602,3.858,36.2,0,0.764,0,0,0,0, ,0,0,0,0,0, ,9.8,208.6,984.6,1.7,-2.4,-0.4,25,12.8647,214.524,976.92,-0.0102992,-0.35763,-1.97736,
2026_07_06_21_03_40.620,3.858,36.2,0,0.764,0,0,0,0, ,0,0,0,0,0, ,2.6,207.5,986.3,-0.9,0.4,-1.7,25,12.4586,214.129,977.44,0.0147035,-0.396774,-1.92085,
2026_07_06_21_03_40.644,3.858,36.1,0,0.765,0,0,0,0, ,0,0,0,0,0, ,-1.8,216.4,966,-2.2,1.6,-2.7,25,11.7238,213.996,977.361,-0.0806457,-0.311659,-1.93786,
2026_07_06_21_03_40.661,3.858,36.2,0,0.765,0,0,0,0, ,0,0,0,0,0, ,1.3,217.1,956.9,-1.4,1.2,-2.7,25,10.9941,214.164,976.392,-0.185419,-0.207354,-1.9843,
2026_07_06_21_03_40.680,3.858,36.1,0,0.763,0,0,0,0, ,0,0,0,0,0, ,14,220.2,970.9,2,-1.5,-2.8,25,10.7904,214.438,975.63,-0.155839,-0.203859,-2.03096,
2026_07_06_21_03_40.700,3.858,36.2,0,0.764,0,0,0,0, ,0,0,0,0,0, ,16.4,217.4,988.4,1.1,-1.5,-1.9,25,11.0591,214.703,975.875,-0.0518891,-0.282843,-2.0504,
2026_07_06_21_03_40.721,3.858,36.2,0,0.765,0,0,0,0, ,0,0,0,0,0, ,7.5,218.7,987.7,-0.9,-0.3,-1.8,25,11.1134,214.907,976.617,-0.0426333,-0.320451,-2.03819,
2026_07_06_21_03_40.740,3.858,36.2,0,0.764,0,0,0,0, ,0,0,0,0,0, ,7.8,220.4,982.1,-1.8,-0.9,-3.5,25,10.9023,215.19,977.122,-0.122301,-0.337486,-2.07547,
2026_07_06_21_03_40.760,3.858,36.2,0,0.765,0,0,0,0, ,0,0,0,0,0, ,6.9,219.6,965.5,-1.4,0,-2,25,10.6858,215.483,976.92,-0.212348,-0.344342,-2.11658,
2026_07_06_21_03_40.780,3.858,36.1,0,0.763,0,0,0,0, ,0,0,0,0,0, ,8.3,224.4,966.7,1.3,-1,-2.2,25,10.4978,215.88,976.26,-0.202455,-0.353828,-2.11557,
2026_07_06_21_03_40.800,3.858,36.1,0,0.765,0,0,0,0, ,0,0,0,0,0, ,18.6,218.2,987.9,1.5,-1.1,-1.9,25,10.6777,216.211,976.324,-0.104806,-0.396251,-2.11157,
2026_07_06_21_03_40.819,3.858,36.2,0,0.764,0,0,0,0, ,0,0,0,0,0, ,9.5,215.4,986.5,-0.8,-0.8,-1,25,10.8832,216.247,976.986,-0.0770908,-0.429995,-2.07126,
2026_07_06_21_03_40.839,3.858,36.2,0,0.764,0,0,0,0, ,0,0,0,0,0, ,-4.1,215.9,972.4,-0.9,-0.4,-1.8,25,10.3845,216.21,977.136,-0.12419,-0.440354,-2.03035,
2026_07_06_21_03_40.858,3.858,36.1,0,0.765,0,0,0,0, ,0,0,0,0,0, ,1.9,225.2,974.6,-0.7,0.4,-3.8,25,9.6847,216.475,976.915,-0.165372,-0.41352,-2.07725,
2026_07_06_21_03_40.879,3.858,36.1,0,0.764,0,0,0,0, ,0,0,0,0,0, ,20.3,227.1,976.1,-0.7,0.9,-3.4,25,9.77094,217.064,976.82,-0.197951,-0.348712,-2.17005,
2026_07_06_21_03_40.898,3.858,36.2,0,0.764,0,0,0,0, ,0,0,0,0,0, ,30,233.7,974.9,0.5,-0.7,-1.4,25,10.7081,217.877,976.739,-0.191982,-0.321369,-2.18406,
2026_07_06_21_03_40.918,3.858,36.3,0,0.765,0,0,0,0, ,0,0,0,0,0, ,16.1,225.7,982.6,1,-2.7,0.6,25,11.4602,218.597,976.862,-0.13458,-0.405379,-2.07534,
2026_07_06_21_03_40.938,3.858,36.1,0,0.765,0,0,0,0, ,0,0,0,0,0, ,-5,221.9,984.2,-0.7,-1.8,0,25,11.1,218.914,977.26,-0.117239,-0.517786,-1.9306,
2026_07_06_21_03_40.958,3.858,36.2,0,0.765,0,0,0,0, ,0,0,0,0,0, ,-9.8,215.8,978.1,-1.6,0.6,-2,25,9.97269,218.911,977.497,-0.180172,-0.522796,-1.87389,
2026_07_06_21_03_40.978,3.858,36.1,0,0.763,0,0,0,0, ,0,0,0,0,0, ,3.4,217.6,977.6,-1.1,0.3,-2.7,25,9.16998,218.776,977.519,-0.251459,-0.463516,-1.9029,
2026_07_06_21_03_40.997,3.858,36.1,0,0.764,0,0,0,0, ,0,0,0,0,0, ,17.2,213.7,978.2,-0.2,-1.8,-1.7,25,9.23884,218.585,977.542,-0.275745,-0.480973,-1.921,
2026_07_06_21_03_41.017,3.858,36.2,0,0.764,0,0,0,0, ,0,0,0,0,0, ,12.9,214.4,982.9,-0.7,-3.2,-0.8,25,9.59296,218.309,977.725,-0.286364,-0.604008,-1.88012,
2026_07_06_21_03_41.037,3.858,36.2,0,0.763,0,0,0,0, ,0,0,0,0,0, ,6.8,210.6,976.1,-1.3,-1,-0.6,25,9.60862,217.955,977.833,-0.329851,-0.69517,-1.8082,
2026_07_06_21_03_41.056,3.858,36.2,0,0.764,0,0,0,0, ,0,0,0,0,0, ,4.3,213.6,971.4,-1.2,-0.3,-1.8,25,9.3613,217.598,977.585,-0.385922,-0.692417,-1.77114,
2026_07_06_21_03_41.076,3.858,36.2,0,0.764,0,0,0,0, ,0,0,0,0,0, ,8,210.8,968.1,0.3,-0.3,-2.5,25,9.16561,217.269,977.107,-0.389827,-0.668504,-1.79423,
2026_07_06_21_03_41.096,3.858,36.2,0,0.764,0,0,0,0, ,0,0,0,0,0, ,12.3,210,975.9,1.1,-1.7,-2.3,25,9.2256,216.851,976.796,-0.323416,-0.688705,-1.83114,
2026_07_06_21_03_41.116,3.858,36.2,0,0.765,0,0,0,0, ,0,0,0,0,0, ,14.5,209.7,984,0.1,-2.6,-1.7,25,9.47997,216.424,976.988,-0.267145,-0.777753,-1.84143,
2026_07_06_21_03_41.137,3.858,36.2,0,0.764,0,0,0,0, ,0,0,0,0,0, ,4.8,216.4,977.4,-0.8,-2.1,-2,25,9.49033,216.218,977.214,-0.272194,-0.873561,-1.84195,
2026_07_06_21_03_41.156,3.858,36.2,0,0.765,0,0,0,0, ,0,0,0,0,0, ,0,219.1,967.4,-0.4,-0.9,-3.5,25,9.05827,216.312,976.921,-0.29217,-0.911735,-1.89729,
2026_07_06_21_03_41.176,3.858,36.2,0,0.765,0,0,0,0, ,0,0,0,0,0, ,11.1,224.2,973.8,-0.4,0.4,-4.3,25,8.84448,216.637,976.536,-0.298741,-0.871411,-2.01933,
2026_07_06_21_03_41.196,3.858,36.2,0,0.766,0,0,0,0, ,0,0,0,0,0, ,16.6,226.9,967.2,0,0.3,-2.2,25,9.14951,217.18,976.168,-0.292724,-0.796981,-2.09432,
2026_07_06_21_03_41.216,3.858,36.3,0,0.765,0,0,0,0, ,0,0,0,0,0, ,17,228.2,977,2.5,-2.9,-2.6,25,9.61571,217.812,975.92,-0.198714,-0.827634,-2.11295,
2026_07_06_21_03_41.236,3.858,36.2,0,0.763,0,0,0,0, ,0,0,0,0,0, ,20.5,225.3,992.5,1.7,-2.6,-2.7,25,10.1723,218.357,976.458,-0.0586361,-0.944778,-2.14568,
2026_07_06_21_03_41.254,3.858,36.2,0,0.763,0,0,0,0, ,0,0,0,0,0, ,14.7,227.2,983.2,-1.4,-0.5,-2.4,25,10.625,218.838,977.152,-0.0459223,-0.981658,-2.17031,
2026_07_06_21_03_41.274,3.858,36.1,0,0.764,0,0,0,0, ,0,0,0,0,0, ,10.3,229.6,960.8,-1,1.2,-3,25,10.7392,219.42,976.838,-0.116249,-0.900511,-2.20259,
2026_07_06_21_03_41.294,3.858,36.2,0,0.765,0,0,0,0, ,0,0,0,0,0, ,14.7,226.1,958.9,1,0.2,-2.4,25,10.8465,219.934,975.803,-0.109165,-0.802979,-2.2329,
2026_07_06_21_03_41.314,3.858,36.1,0,0.765,0,0,0,0, ,0,0,0,0,0, ,13.3,223.1,972.6,1.6,-1.5,-1.5,25,11.0387,220.218,975.191,-0.023294,-0.793657,-2.21566,
2026_07_06_21_03_41.334,3.858,36.1,0,0.764,0,0,0,0, ,0,0,0,0,0, ,6.1,215.8,985.2,0.5,-1.3,-2.2,25,10.9571,220.172,975.417,0.0421098,-0.830606,-2.19338,
2026_07_06_21_03_41.355,3.858,36.2,0,0.764,0,0,0,0, ,0,0,0,0,0, ,8.9,218.2,981.8,-1.7,0.9,-3.3,25,10.7464,219.978,975.909,0.00298128,-0.792179,-2.2273,
2026_07_06_21_03_41.374,3.858,36.1,0,0.765,0,0,0,0, ,0,0,0,0,0, ,6.5,218.2,970.2,-2.1,2,-3,25,10.5608,219.87,975.915,-0.112982,-0.655546,-2.28353,
2026_07_06_21_03_41.393,3.858,36.2,0,0.765,0,0,0,0, ,0,0,0,0,0, ,11.2,226.5,959.8,-0.1,1.5,-3.7,25,10.4565,220.021,975.25,-0.173128,-0.508958,-2.34851,
2026_07_06_21_03_41.413,3.858,36.2,0,0.765,0,0,0,0, ,0,0,0,0,0, ,11.4,228.6,967.1,2.3,-0.6,-3,25,10.5079,220.48,974.531,-0.0955468,-0.450522,-2.40954,
2026_07_06_21_03_41.433,3.858,36.1,0,0.765,0,0,0,0, ,0,0,0,0,0, ,7.6,216.9,984.9,3.2,0,-2.7,25,10.4465,220.618,974.62,0.0778537,-0.441349,-2.43638,
2026_07_06_21_03_41.453,3.858,36.1,0,0.764,0,0,0,0, ,0,0,0,0,0, ,6.5,216.9,995.8,0.8,0,-4.1,25,10.2395,220.392,975.579,0.194984,-0.414454,-2.4951,
2026_07_06_21_03_41.474,3.858,36.2,0,0.764,0,0,0,0, ,0,0,0,0,0, ,8.7,224.6,984.6,-1.9,1.2,-3.4,25,10.0787,220.413,976.47,0.149587,-0.352636,-2.57157,
2026_07_06_21_03_41.493,3.858,36.1,0,0.763,0,0,0,0, ,0,0,0,0,0, ,14.4,233.8,968.1,-1,0.1,-2.6,25,10.1684,220.949,976.462,0.0521121,-0.291538,-2.59768,
2026_07_06_21_03_41.513,3.858,36.2,0,0.764,0,0,0,0, ,0,0,0,0,0, ,13.5,234.2,971.6,1.2,-1.2,-0.6,25,10.3988,221.744,976.059,0.0550303,-0.307288,-2.53688,
2026_07_06_21_03_41.532,3.858,36.1,0,0.766,0,0,0,0, ,0,0,0,0,0, ,6.7,224.4,980.4,0.5,-1.2,-0.3,25,10.3806,222.205,976.056,0.103474,-0.361688,-2.40972,
2026_07_06_21_03_41.553,3.858,36.1,0,0.764,0,0,0,0, ,0,0,0,0,0, ,-6.7,218.5,976.4,-0.8,-0.5,-2.3,25,9.74802,222.159,976.199,0.0880277,-0.391444,-2.34209,
2026_07_06_21_03_41.572,3.858,36.2,0,0.764,0,0,0,0, ,0,0,0,0,0, ,-4.5,223.9,970.4,-1.4,1.2,-4,25,8.81275,222.1,976.028,0.0156323,-0.346262,-2.39132,
2026_07_06_21_03_41.591,3.858,36.2,0,0.764,0,0,0,0, ,0,0,0,0,0, ,14.6,234.3,965.4,-1,2,-3.7,25,8.58346,222.527,975.533,-0.0584453,-0.227662,-2.48021,
2026_07_06_21_03_41.611,3.858,36.2,0,0.765,0,0,0,0, ,0,0,0,0,0, ,26.7,240.6,966.3,1.4,-0.7,-1.8,25,9.31876,223.436,974.943,-0.0426963,-0.17418,-2.49665,
2026_07_06_21_03_41.632,3.858,36.2,0,0.765,0,0,0,0, ,0,0,0,0,0, ,14.1,232,971.6,2.5,-1.9,-0.6,25,9.99403,224.22,974.578,0.0787336,-0.242784,-2.41764,
2026_07_06_21_03_41.651,3.858,36.2,0,0.765,0,0,0,0, ,0,0,0,0,0, ,-6.9,223.9,979,1.4,0.1,-1.7,25,9.60439,224.447,974.622,0.192764,-0.282833,-2.34039,
2026_07_06_21_03_41.672,3.858,36.1,0,0.765,0,0,0,0, ,0,0,0,0,0, ,4.6,228.7,987,-1.1,2,-3.8,25,8.94905,224.56,975.132,0.190158,-0.201614,-2.36535,
2026_07_06_21_03_41.691,3.858,36.1,0,0.764,0,0,0,0, ,0,0,0,0,0, ,18.3,238.7,975.7,-2.1,1.6,-2.2,25,9.10145,225.117,975.511,0.0810702,-0.0796404,-2.40403,
2026_07_06_21_03_41.712,3.858,36.2,0,0.763,0,0,0,0, ,0,0,0,0,0, ,12.4,234.6,958.8,0.3,-0.1,0,25,9.48222,225.82,975.008,0.0212863,-0.0290842,-2.32456,
2026_07_06_21_03_41.730,3.858,36.2,0,0.764,0,0,0,0, ,0,0,0,0,0, ,2.9,230.3,973.3,2.5,-1.6,-0.7,25,9.37057,226.224,974.462,0.105302,-0.0791088,-2.20424,
2026_07_06_21_03_41.757,3.858,36.1,0,0.764,0,0,0,0, ,0,0,0,0,0, ,-1.9,224.7,983.6,0.8,0.5,-1.7,25,8.83002,226.302,974.705,0.199432,-0.107804,-2.14304,
2026_07_06_21_03_41.771,3.858,36.1,0,0.764,0,0,0,0, ,0,0,0,0,0, ,-0.3,225.4,982.5,-0.8,1.3,-2.6,25,8.22491,226.225,975.213,0.187279,-0.0463907,-2.14346,
2026_07_06_21_03_41.791,3.858,36.2,0,0.764,0,0,0,0, ,0,0,0,0,0, ,2.3,227.4,971.5,-1.4,1.5,-2.5,25,7.78464,226.236,975.322,0.108835,0.0417487,-2.16824,
2026_07_06_21_03_41.809,3.858,36.1,0,0.765,0,0,0,0, ,0,0,0,0,0, ,7.9,226.8,965.4,-0.1,-0.1,-1.7,25,7.62104,226.289,974.903,0.0565,0.0818609,-2.16408,
2026_07_06_21_03_41.830,3.858,36.1,0,0.765,0,0,0,0, ,0,0,0,0,0, ,4.1,227.1,971.8,1.4,-1.5,-0.6,25,7.52226,226.329,974.519,0.0926664,0.0281225,-2.10228,
2026_07_06_21_03_41.849,3.858,36.2,0,0.764,0,0,0,0, ,0,0,0,0,0, ,-7.2,220.4,982.1,1.2,0,-1,25,6.96942,226.172,974.667,0.166238,-0.0192943,-2.02293,
2026_07_06_21_03_41.871,3.858,36.1,0,0.764,0,0,0,0, ,0,0,0,0,0, ,-6.4,223.7,983.3,-0.7,0.8,-2.6,25,6.13035,225.921,975.157,0.171343,0.00625644,-2.00934,
2026_07_06_21_03_41.889,3.858,36.2,0,0.765,0,0,0,0, ,0,0,0,0,0, ,0.4,227.7,976.8,-1.8,1.7,-2.5,25,5.57397,225.907,975.455,0.0847295,0.0820471,-2.04229,
2026_07_06_21_03_41.910,3.858,36.3,0,0.764,0,0,0,0, ,0,0,0,0,0, ,6.2,234.1,967.8,-0.2,-0.1,-2,25,5.4354,226.212,975.263,0.0186288,0.125797,-2.05495,
2026_07_06_21_03_41.928,3.858,36.2,0,0.765,0,0,0,0, ,0,0,0,0,0, ,4,232.6,972.7,1.3,-1.9,-1.8,25,5.41496,226.647,974.957,0.0510092,0.057194,-2.0455,
2026_07_06_21_03_41.949,3.858,36.2,0,0.764,0,0,0,0, ,0,0,0,0,0, ,-2,229.2,979,1.1,-1,-2.1,25,5.14592,226.906,975.012,0.121026,-0.0346506,-2.03968,
2026_07_06_21_03_41.968,3.858,36.1,0,0.765,0,0,0,0, ,0,0,0,0,0, ,2.6,231.5,983.6,-0.7,-0.3,-2.6,25,4.85062,227.116,975.395,0.125838,-0.0721484,-2.05859,
2026_07_06_21_03_41.989,3.858,36.3,0,0.763,0,0,0,0, ,0,0,0,0,0, ,-1.4,234.1,968.7,-1.4,-0.4,-2.4,25,4.5916,227.462,975.441,0.0541857,-0.08908,-2.08549,
2026_07_06_21_03_42.007,3.858,36.2,0,0.765,0,0,0,0, ,0,0,0,0,0, ,1.2,234.2,962.6,0.6,-1.6,-1.8,25,4.30571,227.87,974.844,0.0265087,-0.144589,-2.08638,
2026_07_06_21_03_42.028,3.858,36.2,0,0.765,0,0,0,0, ,0,0,0,0,0, ,6.4,235.2,974.4,1.6,-2.5,-2.1,25,4.27489,228.286,974.458,0.0919246,-0.2607,-2.07807,
2026_07_06_21_03_42.047,3.858,36.1,0,0.765,0,0,0,0, ,0,0,0,0,0, ,10.7,233.3,987.6,0,-2.4,-2,25,4.5354,228.649,974.856,0.135073,-0.394111,-2.07636,
2026_07_06_21_03_42.068,3.858,36.1,0,0.764,0,0,0,0, ,0,0,0,0,0, ,7.9,233.1,984.6,-1.2,-2.4,-1.5,25,4.82575,228.927,975.542,0.0902794,-0.516344,-2.05647,
2026_07_06_21_03_42.087,3.858,36.2,0,0.765,0,0,0,0, ,0,0,0,0,0, ,-1.8,232.9,967,-1.5,-1.1,-0.9,25,4.71754,229.175,975.557,0.00251242,-0.59152,-2.00428,
2026_07_06_21_03_42.108,3.858,36.2,0,0.765,0,0,0,0, ,0,0,0,0,0, ,-8.5,230.5,957.7,0,-0.1,-1.7,25,4.11623,229.329,974.752,-0.0433438,-0.592037,-1.96136,
2026_07_06_21_03_42.126,3.858,36.2,0,0.765,0,0,0,0, ,0,0,0,0,0, ,1.7,229.1,975.2,0.9,0.2,-3.3,25,3.65821,229.357,974.247,-0.0132807,-0.552913,-1.99418,
2026_07_06_21_03_42.146,3.858,36.2,0,0.764,0,0,0,0, ,0,0,0,0,0, ,9.8,227.7,979.3,-0.7,0.3,-2.6,25,3.78568,229.299,974.43,-0.00637762,-0.503985,-2.05243,
2026_07_06_21_03_42.165,3.858,36.1,0,0.763,0,0,0,0, ,0,0,0,0,0, ,4.8,232,971,-0.3,-1.2,-1.6,25,3.99984,229.333,974.473,-0.0364577,-0.500696,-2.05533,
2026_07_06_21_03_42.187,3.858,36.1,0,0.764,0,0,0,0, ,0,0,0,0,0, ,-1.3,233.7,966.4,0.7,-2.1,-1,25,3.86274,229.547,974.122,-0.0220486,-0.570731,-2.0093,
2026_07_06_21_03_42.205,3.858,36.2,0,0.763,0,0,0,0, ,0,0,0,0,0, ,-5.9,232.4,978.3,1.4,-1,-2.2,25,3.40798,229.76,974.014,0.0432794,-0.630406,-1.98436,
2026_07_06_21_03_42.227,3.858,36.1,0,0.765,0,0,0,0, ,0,0,0,0,0, ,8.5,228.6,992.9,-1,0.7,-4.2,25,3.27952,229.805,974.72,0.0528295,-0.601131,-2.05844,
2026_07_06_21_03_42.246,3.858,36.2,0,0.764,0,0,0,0, ,0,0,0,0,0, ,14.7,236.3,979.8,-3,-0.4,-3.5,25,3.78655,229.967,975.428,-0.0722648,-0.555359,-2.16761,
2026_07_06_21_03_42.268,3.858,36.2,0,0.765,0,0,0,0, ,0,0,0,0,0, ,11.5,244.8,960.5,-0.5,-3,-0.4,25,4.35409,230.612,975.107,-0.174502,-0.62511,-2.15435,
2026_07_06_21_03_42.285,3.858,36.1,0,0.764,0,0,0,0, ,0,0,0,0,0, ,-8.1,235.4,961.7,1.9,-2.1,0.2,25,4.19236,231.19,974.253,-0.121212,-0.742408,-2.02916,
2026_07_06_21_03_42.306,3.858,36.2,0,0.763,0,0,0,0, ,0,0,0,0,0, ,-15.7,228.3,976.1,1.6,-0.5,-1.9,25,3.21173,231.23,973.927,-0.00718484,-0.776387,-1.95731,
2026_07_06_21_03_42.324,3.858,36.1,0,0.764,0,0,0,0, ,0,0,0,0,0, ,-3.6,227.7,987.6,-1.1,1.1,-4.9,25,2.42797,231.033,974.41,0.00848736,-0.710794,-2.04522,
2026_07_06_21_03_42.346,3.858,36.2,0,0.765,0,0,0,0, ,0,0,0,0,0, ,8.1,238.5,972.1,-2.6,1.7,-4.2,25,2.41712,231.159,974.741,-0.104764,-0.582168,-2.19786,
2026_07_06_21_03_42.364,3.858,36.2,0,0.765,0,0,0,0, ,0,0,0,0,0, ,20,241.8,964.8,0,-1.4,-2.2,25,3.126,231.707,974.358,-0.177599,-0.537551,-2.25892,
2026_07_06_21_03_42.386,3.858,36.1,0,0.765,0,0,0,0, ,0,0,0,0,0, ,11.7,238.2,973,1.2,-2.7,-0.7,25,3.90137,232.212,974.025,-0.130214,-0.629716,-2.20963,
2026_07_06_21_03_42.403,3.858,36.1,0,0.765,0,0,0,0, ,0,0,0,0,0, ,-1,237.9,977.4,-0.5,-0.6,-1.6,25,3.98964,232.568,974.097,-0.100951,-0.69189,-2.14506,
2026_07_06_21_03_42.426,3.858,36.2,0,0.763,0,0,0,0, ,0,0,0,0,0, ,0,237.5,977,-2,1.2,-3.9,25,3.71606,232.881,974.286,-0.170971,-0.631446,-2.18192,
2026_07_06_21_03_42.443,3.858,36.2,0,0.764,0,0,0,0, ,0,0,0,0,0, ,18.5,241.9,968.7,-1.7,0.1,-2.1,25,4.05328,233.296,974.199,-0.273287,-0.553358,-2.23177,
2026_07_06_21_03_42.465,3.858,36.2,0,0.764,0,0,0,0, ,0,0,0,0,0, ,16.4,243.5,970.5,0.6,-3.7,-0.1,25,4.86964,233.869,973.918,-0.290149,-0.629326,-2.16281,
2026_07_06_21_03_42.483,3.858,36.2,0,0.764,0,0,0,0, ,0,0,0,0,0, ,2.5,232.6,971.5,0.8,-1.7,0,25,5.14876,234.124,973.74,-0.229812,-0.755507,-2.03406,
2026_07_06_21_03_42.504,3.858,36.2,0,0.764,0,0,0,0, ,0,0,0,0,0, ,-4.6,230.8,973.6,-0.6,0,-1.9,25,4.77102,233.976,973.668,-0.209714,-0.761265,-1.968,
2026_07_06_21_03_42.522,3.858,36.2,0,0.764,0,0,0,0, ,0,0,0,0,0, ,-2.8,233,970,-1.6,0.8,-2.3,25,4.25482,233.85,973.554,-0.263966,-0.690501,-1.97604,
2026_07_06_21_03_42.542,3.858,36.1,0,0.762,0,0,0,0, ,0,0,0,0,0, ,2.8,235.9,968.8,-1.2,0.5,-2.7,25,3.99554,233.886,973.301,-0.333193,-0.608814,-2.00797,
2026_07_06_21_03_42.561,3.858,36.1,0,0.765,0,0,0,0, ,0,0,0,0,0, ,13.7,235.1,976.1,-1.1,-0.7,-1.7,25,4.2548,233.985,973.249,-0.382967,-0.577808,-2.01967,
2026_07_06_21_03_42.583,3.858,36.2,0,0.765,0,0,0,0, ,0,0,0,0,0, ,0.3,236.4,965.9,-0.6,-0.2,-0.5,25,4.42208,234.092,973.112,-0.411427,-0.57002,-1.96363,
2026_07_06_21_03_42.601,3.858,36.2,0,0.765,0,0,0,0, ,0,0,0,0,0, ,-6.8,236.5,968.2,0.2,0.5,-1.8,25,3.95457,234.236,972.743,-0.398543,-0.526144,-1.91405,
2026_07_06_21_03_42.622,3.858,36.1,0,0.765,0,0,0,0, ,0,0,0,0,0, ,4.8,231.6,984.1,-0.1,0.1,-2.1,25,3.65265,234.225,972.95,-0.37121,-0.475801,-1.91624,
2026_07_06_21_03_42.641,3.858,36.1,0,0.765,0,0,0,0, ,0,0,0,0,0, ,7.5,233.1,985.1,-1.3,-2,-1.6,25,3.80483,234.11,973.66,-0.391246,-0.504697,-1.9122,
2026_07_06_21_03_42.663,3.858,36.1,0,0.764,0,0,0,0, ,0,0,0,0,0, ,-3.7,230.2,975.2,-1,-2.4,-1.1,25,3.68875,233.961,974.056,-0.437482,-0.608005,-1.87794,
2026_07_06_21_03_42.681,3.858,36.2,0,0.764,0,0,0,0, ,0,0,0,0,0, ,-2.3,235.4,973.7,-1,-0.7,-2.2,25,3.28116,233.89,974.08,-0.471761,-0.665407,-1.86405,
2026_07_06_21_03_42.704,3.858,36.2,0,0.763,0,0,0,0, ,0,0,0,0,0, ,7.6,238.1,975.4,-1.2,0,-2.3,25,3.2427,234.064,974.108,-0.510044,-0.646187,-1.88757,
2026_07_06_21_03_42.720,3.858,36.1,0,0.764,0,0,0,0, ,0,0,0,0,0, ,7.8,234.8,969.6,-0.7,-1,-1.4,25,3.51431,234.209,974.01,-0.536854,-0.637279,-1.88528,
2026_07_06_21_03_42.742,3.858,36.2,0,0.765,0,0,0,0, ,0,0,0,0,0, ,1,233.7,969.7,-0.2,-1.8,-1,25,3.56829,234.212,973.745,-0.531561,-0.683757,-1.84352,
2026_07_06_21_03_42.759,3.858,36.1,0,0.765,0,0,0,0, ,0,0,0,0,0, ,0.6,226.5,982.5,0,-1.9,-1.8,25,3.39959,233.961,973.888,-0.505263,-0.754825,-1.8165,
2026_07_06_21_03_42.781,3.858,36.2,0,0.764,0,0,0,0, ,0,0,0,0,0, ,4.3,229.7,977.1,-2.3,-0.9,-2,25,3.34173,233.604,974.248,-0.544552,-0.794141,-1.82158,
2026_07_06_21_03_42.799,3.858,36.1,0,0.764,0,0,0,0, ,0,0,0,0,0, ,2.8,235.4,957.7,-1.6,1,-2.4,25,3.35442,233.54,973.831,-0.630196,-0.742701,-1.84464,
2026_07_06_21_03_42.822,3.858,36.2,0,0.764,0,0,0,0, ,0,0,0,0,0, ,13,238.2,964.3,0.6,-0.9,-1.9,25,3.63141,233.739,973.049,-0.622262,-0.694396,-1.86325,
2026_07_06_21_03_42.839,3.858,36.1,0,0.764,0,0,0,0, ,0,0,0,0,0, ,12.5,231.8,975.9,1.2,-3.6,-0.8,25,4.18708,233.815,972.869,-0.529499,-0.78919,-1.83198,
2026_07_06_21_03_42.860,3.858,36.1,0,0.765,0,0,0,0, ,0,0,0,0,0, ,1.8,229.7,985.4,-0.1,-4.2,-0.8,25,4.36763,233.629,973.344,-0.463717,-0.978755,-1.76909,
2026_07_06_21_03_42.878,3.858,36.1,0,0.764,0,0,0,0, ,0,0,0,0,0, ,-2.4,237.1,978,-2.3,-1.3,-2.2,25,4.0832,233.615,973.853,-0.508585,-1.08669,-1.75269,
2026_07_06_21_03_42.904,3.858,36.1,0,0.765,0,0,0,0, ,0,0,0,0,0, ,-8.5,243.6,954.8,-1.5,2.2,-3.1,25,3.50227,234.025,973.399,-0.593374,-0.993048,-1.80737,
2026_07_06_21_03_42.918,3.858,36.1,0,0.764,0,0,0,0, ,0,0,0,0,0, ,9.5,239,968.2,2,0.5,-3.2,25,3.31932,234.468,972.674,-0.541981,-0.850269,-1.88919,
2026_07_06_21_03_42.941,3.858,36.2,0,0.764,0,0,0,0, ,0,0,0,0,0, ,20.2,232.2,989.2,1.1,-1.6,-1.6,25,4.02197,234.537,973.041,-0.414501,-0.831971,-1.92032,
2026_07_06_21_03_42.958,3.858,36.2,0,0.763,0,0,0,0, ,0,0,0,0,0, ,15.5,234.1,989.3,-2,-1.9,-1.1,25,4.86461,234.453,974.029,-0.416664,-0.887914,-1.88556,
2026_07_06_21_03_42.980,3.858,36.1,0,0.764,0,0,0,0, ,0,0,0,0,0, ,2,238.4,961.5,-3.3,0.2,-1.1,25,5.10138,234.562,974.112,-0.552758,-0.885603,-1.83769,
2026_07_06_21_03_42.997,3.858,36.2,0,0.765,0,0,0,0, ,0,0,0,0,0, ,-4,244.1,948.3,-0.6,1.2,-1.6,25,4.72958,234.97,972.941,-0.637902,-0.78898,-1.80797,
2026_07_06_21_03_43.021,3.858,36.1,0,0.765,0,0,0,0, ,0,0,0,0,0, ,1,231,963.9,2.2,0.9,-2.3,25,4.34996,235.127,971.915,-0.55028,-0.676918,-1.81663,
2026_07_06_21_03_43.037,3.858,36.1,0,0.764,0,0,0,0, ,0,0,0,0,0, ,15.9,227,998.5,0.5,-1.1,-2.4,25,4.59981,234.754,972.481,-0.434482,-0.641762,-1.84913,
2026_07_06_21_03_43.058,3.858,36.1,0,0.767,0,0,0,0, ,0,0,0,0,0, ,2.9,232.6,988.8,-1.9,-2,-2.3,25,4.89232,234.452,973.771,-0.450662,-0.697107,-1.87965,
2026_07_06_21_03_43.076,3.858,36.1,0,0.764,0,0,0,0, ,0,0,0,0,0, ,2.1,239.2,980.1,-3.2,-1.5,-2.1,25,4.74654,234.54,974.422,-0.57859,-0.761268,-1.89917,
2026_07_06_21_03_43.098,3.858,36.2,0,0.764,0,0,0,0, ,0,0,0,0,0, ,-2.6,242.9,963.9,-0.9,0.2,-0.8,25,4.44206,234.937,974.274,-0.668254,-0.754488,-1.8718,
2026_07_06_21_03_43.115,3.858,36.1,0,0.766,0,0,0,0, ,0,0,0,0,0, ,-4.8,232.9,969.3,1.5,0.1,-2,25,3.9459,235.117,973.806,-0.609251,-0.69937,-1.84305,
2026_07_06_21_03_43.140,3.858,36.1,0,0.765,0,0,0,0, ,0,0,0,0,0, ,-3.1,223.8,988,0.4,-0.3,-3.1,25,3.46475,234.705,974.102,-0.514234,-0.662846,-1.88613,
2026_07_06_21_03_43.156,3.858,36.1,0,0.764,0,0,0,0, ,0,0,0,0,0, ,1.3,231.9,985.5,-2.4,1.4,-3.3,25,3.19877,234.287,974.872,-0.543836,-0.588939,-1.96619,
2026_07_06_21_03_43.178,3.858,36.1,0,0.764,0,0,0,0, ,0,0,0,0,0, ,10.3,245.7,968.5,-2.4,1.5,-2.3,25,3.35728,234.562,975.002,-0.656946,-0.464691,-2.017,
2026_07_06_21_03_43.195,3.858,36.1,0,0.765,0,0,0,0, ,0,0,0,0,0, ,10.2,243,968,1,0.3,-1,25,3.77731,235.159,974.591,-0.659569,-0.38153,-1.99464,
2026_07_06_21_03_43.217,3.858,36.1,0,0.765,0,0,0,0, ,0,0,0,0,0, ,-17.2,240.3,1005.8,2.5,-1.4,-1.3,25,3.33385,235.554,975.341,-0.512736,-0.391796,-1.94317,
2026_07_06_21_03_43.235,3.858,36.1,0,0.764,0,0,0,0, ,0,0,0,0,0, ,-35,244.8,1033.5,-1.4,-0.5,-3.4,25,1.54022,235.981,978.041,-0.447976,-0.425812,-1.96796,
2026_07_06_21_03_43.258,3.858,36.2,0,0.763,0,0,0,0, ,0,0,0,0,0, ,-22.4,252.9,1017,-4.5,2.9,-5.2,25,-0.302541,236.765,980.918,-0.600443,-0.326739,-2.11007,
2026_07_06_21_03_43.274,3.858,36.1,0,0.766,0,0,0,0, ,0,0,0,0,0, ,22.5,256.4,1010.7,1.2,1.4,-4.7,25,-0.281058,237.855,982.924,-0.6644,-0.175812,-2.28313,
2026_07_06_21_03_43.298,3.858,36.1,0,0.765,0,0,0,0, ,0,0,0,0,0, ,26,246.5,1041.2,10.2,-6.5,-2.1,25,1.2138,238.683,985.546,-0.27657,-0.320489,-2.35119,
2026_07_06_21_03_43.314,3.858,36.2,0,0.764,0,0,0,0, ,0,0,0,0,0, ,-1.2,233.5,1072,8.5,-11.8,0,25,1.89546,238.763,989.876,0.310049,-0.858538,-2.2719,
2026_07_06_21_03_43.337,3.858,36.1,0,0.764,0,0,0,0, ,0,0,0,0,0, ,-35.7,226.4,1024.1,0.5,-11.2,0,25,0.655661,238.226,993.421,0.565374,-1.507,-2.13345,
2026_07_06_21_03_43.353,3.858,36.1,0,0.766,0,0,0,0, ,0,0,0,0,0, ,-59.3,215.3,970.5,8.5,-8.4,-6.5,25,-2.27882,237.167,993.657,0.805141,-2.01236,-2.20149,
2026_07_06_21_03_43.377,3.858,36.2,0,0.765,0,0,0,0, ,0,0,0,0,0, ,-31.9,242,1021.7,20.4,-7.4,-16,25,-4.91871,236.648,993.806,1.63662,-2.37113,-2.75289,
2026_07_06_21_03_43.393,3.858,36.1,0,0.764,0,0,0,0, ,0,0,0,0,0, ,-11.8,300.5,1096.4,19.5,-6.5,-24.1,25,-5.95046,238.757,997.782,2.7526,-2.65016,-3.80693,
2026_07_06_21_03_43.417,3.858,36.1,0,0.763,0,0,0,0, ,0,0,0,0,0, ,44.1,338.5,1120.3,4.6,2,-27.7,25,-4.60371,243.677,1004.52,3.31916,-2.62577,-5.15323,
2026_07_06_21_03_43.433,3.858,36.2,0,0.764,0,0,0,0, ,0,0,0,0,0, ,64.2,331.2,1082.1,-1.7,1.6,-24.3,25,-1.02341,249.233,1010.41,3.20525,-2.35608,-6.42358,
2026_07_06_21_03_43.456,3.858,36.3,0,0.764,0,0,0,0, ,0,0,0,0,0, ,72.7,327.6,1018.5,1.6,-2.3,-18.3,25,3.21013,254.118,1012.84,3.00689,-2.23383,-7.33011,
2026_07_06_21_03_43.472,3.858,36.1,0,0.764,0,0,0,0, ,0,0,0,0,0, ,38,344.7,1023.4,16,-5.3,-20.8,25,6.3874,259.117,1013.34,3.35991,-2.32927,-8.07476,
2026_07_06_21_03_43.496,3.858,36.1,0,0.764,0,0,0,0, ,0,0,0,0,0, ,26.1,357.6,1108.8,18.3,-3.3,-20.1,25,7.95121,264.725,1016.55,4.20024,-2.44936,-8.82887,
2026_07_06_21_03_43.512,3.858,36.1,0,0.764,0,0,0,0, ,0,0,0,0,0, ,25.1,357.5,1141.8,6.2,5.3,-24.7,25,9.02669,270.382,1023.18,4.69077,-2.23917,-9.65586,
2026_07_06_21_03_43.535,3.858,36.2,0,0.764,0,0,0,0, ,0,0,0,0,0, ,59.8,358.6,1098.6,-2.8,8.5,-24.4,25,11.0634,275.724,1029.09,4.50852,-1.68225,-10.5635,
2026_07_06_21_03_43.552,3.858,36.1,0,0.764,0,0,0,0, ,0,0,0,0,0, ,139.5,367.5,1033,4.8,-3.9,-12.4,25,16.4617,281.046,1031.33,4.29472,-1.43958,-11.041,
2026_07_06_21_03_43.575,3.858,36.1,0,0.765,0,0,0,0, ,0,0,0,0,0, ,117.1,386.7,1004.2,15.3,-16.8,5.2,25,23.2768,286.899,1030.55,4.64543,-1.98256,-10.5876,
2026_07_06_21_03_43.591,3.858,36.1,0,0.764,0,0,0,0, ,0,0,0,0,0, ,54.4,383,1002.3,19.8,-22.9,13.6,25,27.0838,292.868,1028.89,5.4318,-3.07136,-9.36958,
2026_07_06_21_03_43.614,3.858,36.1,0,0.764,0,0,0,0, ,0,0,0,0,0, ,-5.1,322.6,1019.2,20.6,-22.2,12,25,26.9355,296.52,1027.78,6.33174,-4.25834,-8.01862,
2026_07_06_21_03_43.632,3.858,36.2,0,0.765,0,0,0,0, ,0,0,0,0,0, ,-53.8,273.9,1062.8,8.9,-16.7,1.3,25,23.4995,296.625,1028.59,6.84473,-5.18408,-7.12476,
2026_07_06_21_03_43.657,3.858,36.2,0,0.765,0,0,0,0, ,0,0,0,0,0, ,-51.2,268,1036.4,-12.4,-5.1,-12.9,25,18.8683,295.061,1029.87,6.32099,-5.53239,-7.04403,
2026_07_06_21_03_43.671,3.858,36.1,0,0.763,0,0,0,0, ,0,0,0,0,0, ,23.9,261.9,933.7,-22.1,2.4,-17.4,25,16.8867,293.226,1027.14,4.88463,-5.27753,-7.53799,
2026_07_06_21_03_43.695,3.858,36.2,0,0.764,0,0,0,0, ,0,0,0,0,0, ,51.1,282.8,871.5,-18.7,-1.5,-12,25,18.1428,291.954,1019.55,3.34385,-4.92851,-7.97442,
2026_07_06_21_03_43.710,3.858,36.2,0,0.764,0,0,0,0, ,0,0,0,0,0, ,12,296.1,854.7,-4.5,-7,-5.6,25,18.9598,291.801,1010.01,2.43321,-4.88716,-8.02473,
2026_07_06_21_03_43.735,3.858,36.1,0,0.764,0,0,0,0, ,0,0,0,0,0, ,-29.7,302,901.9,4.5,-8.2,-2.8,25,17.2651,292.243,1001.99,2.28493,-5.05247,-7.79166,
2026_07_06_21_03_43.750,3.858,36.1,0,0.765,0,0,0,0, ,0,0,0,0,0, ,-40,274.5,949.7,6,-3,-8.5,25,14.0894,292,997.346,2.46562,-5.08584,-7.66115,
2026_07_06_21_03_43.773,3.858,36.1,0,0.765,0,0,0,0, ,0,0,0,0,0, ,-33,265.6,998.2,1.1,4.7,-16.9,25,11.0066,290.662,995.92,2.5317,-4.72412,-7.96821,
2026_07_06_21_03_43.789,3.858,36.1,0,0.765,0,0,0,0, ,0,0,0,0,0, ,-6.5,275.1,1013.7,-12.9,15.4,-23.8,25,9.13236,289.424,996.531,2.01789,-3.82383,-8.72272,
2026_07_06_21_03_43.813,3.858,36.1,0,0.765,0,0,0,0, ,0,0,0,0,0, ,35.6,296.8,971.4,-18.1,20.3,-24.2,25,9.46249,289.213,996.289,0.950395,-2.50308,-9.65368,
2026_07_06_21_03_43.829,3.858,36.1,0,0.763,0,0,0,0, ,0,0,0,0,0, ,70.6,326.2,940,-10.7,12.1,-12.5,25,12.1217,290.571,993.815,0.0149802,-1.36336,-10.1836,
2026_07_06_21_03_43.853,3.858,36.1,0,0.764,0,0,0,0, ,0,0,0,0,0, ,62.3,319,956,2,-1.9,-0.1,25,15.4323,292.522,991.024,-0.251011,-0.969497,-9.94696,
2026_07_06_21_03_43.868,3.858,36.1,0,0.766,0,0,0,0, ,0,0,0,0,0, ,8.5,299,1000.1,10.7,-7.5,5.9,25,16.6491,293.527,990.233,0.151238,-1.19682,-9.16409,
2026_07_06_21_03_43.893,3.858,36.2,0,0.764,0,0,0,0, ,0,0,0,0,0, ,-17.3,264.7,1027.2,7.7,-3.1,5.7,25,15.3664,292.815,991.66,0.702647,-1.44686,-8.25222,
2026_07_06_21_03_43.908,3.858,36.1,0,0.764,0,0,0,0, ,0,0,0,0,0, ,-44.1,255.6,1036.9,0.3,2.8,-1.1,25,12.5592,290.824,994.121,0.90358,-1.36783,-7.60919,
2026_07_06_21_03_43.932,3.858,36.3,0,0.764,0,0,0,0, ,0,0,0,0,0, ,-58.5,277,1035.1,-9.8,9.1,-6.6,25,8.6678,289.33,996.673,0.559065,-0.921904,-7.38012,
2026_07_06_21_03_43.948,3.858,36.2,0,0.763,0,0,0,0, ,0,0,0,0,0, ,-48.4,295.4,1027.2,-14.3,13,-11.7,25,4.8825,289.139,998.774,-0.2093,-0.192366,-7.48797,
2026_07_06_21_03_43.973,3.858,36,0,0.764,0,0,0,0, ,0,0,0,0,0, ,-23.1,300.6,1024.7,-17.1,10.9,-8.7,25,2.40646,289.679,1000.43,-1.15326,0.547559,-7.65323,
2026_07_06_21_03_43.987,3.858,36.1,0,0.765,0,0,0,0, ,0,0,0,0,0, ,-6.2,293.4,1009.3,-14.9,5.1,-2.5,25,1.36708,290.125,1001.44,-2.05799,1.00169,-7.52812,
2026_07_06_21_03_44.012,3.858,36.2,0,0.764,0,0,0,0, ,0,0,0,0,0, ,-25,289.3,986.5,-10.3,-3.4,6,25,0.333146,290.2,1001.22,-2.70039,0.992448,-6.96273,
2026_07_06_21_03_44.026,3.858,36.2,0,0.764,0,0,0,0, ,0,0,0,0,0, ,-42.9,274.7,972.2,-5.3,-10.2,12.4,25,-1.75598,289.7,999.891,-3.01115,0.517596,-5.97781,
2026_07_06_21_03_44.051,3.858,36.1,0,0.763,0,0,0,0, ,0,0,0,0,0, ,-60.5,248.4,965.3,2,-14.8,13.6,25,-4.79945,287.985,997.994,-2.9282,-0.275664,-4.82135,
2026_07_06_21_03_44.066,3.858,36.1,0,0.764,0,0,0,0, ,0,0,0,0,0, ,-64.3,247.3,984.9,4.1,-11.4,17.2,25,-8.30948,285.539,996.598,-2.56391,-1.05715,-3.58912,
2026_07_06_21_03_44.090,3.858,36.1,0,0.764,0,0,0,0, ,0,0,0,0,0, ,-56.2,265.2,1000.3,-0.6,-12.5,18.9,25,-11.4746,283.754,996.355,-2.30103,-1.72093,-2.27048,
2026_07_06_21_03_44.106,3.858,36.1,0,0.765,0,0,0,0, ,0,0,0,0,0, ,-49.3,218.1,992.9,-9.6,-14.4,16,25,-13.9898,281.189,996.37,-2.47159,-2.43567,-1.06877,
2026_07_06_21_03_44.130,3.858,36.2,0,0.764,0,0,0,0, ,0,0,0,0,0, ,-41.2,214.2,965,-1.2,-11.9,14.7,25,-15.8947,277.225,995.308,-2.65004,-3.08857,-0.0682468,
2026_07_06_21_03_44.146,3.858,36.1,0,0.763,0,0,0,0, ,0,0,0,0,0, ,-47.3,230.5,940.6,0.6,-17.8,8.8,25,-17.6226,273.881,992.718,-2.50683,-3.80529,0.651928,
2026_07_06_21_03_44.170,3.858,36.2,0,0.765,0,0,0,0, ,0,0,0,0,0, ,-41.1,248.2,957.6,0,-15,7.3,25,-19.2422,271.777,990.06,-2.33579,-4.57278,1.10275,
2026_07_06_21_03_44.185,3.858,36.1,0,0.764,0,0,0,0, ,0,0,0,0,0, ,-16.8,222.6,958.7,-4.3,-13.7,5.7,25,-19.8338,269.56,988.115,-2.32447,-5.16858,1.43164,
2026_07_06_21_03_44.210,3.858,36.1,0,0.764,0,0,0,0, ,0,0,0,0,0, ,23.5,203.1,953.6,-9.9,-13.9,2.3,25,-18.421,266.105,986.168,-2.61548,-5.69455,1.58815,
2026_07_06_21_03_44.230,3.858,36.1,0,0.764,0,0,0,0, ,0,0,0,0,0, ,39.1,219.3,922.4,-17,-13.8,3.4,25,-15.3911,262.759,983.232,-3.27571,-6.19153,1.66505,
2026_07_06_21_03_44.254,3.858,36.1,0,0.764,0,0,0,0, ,0,0,0,0,0, ,39.7,230.7,886.7,-16.7,-14.1,5.2,25,-12.0523,260.458,978.438,-4.10289,-6.66431,1.82561,
2026_07_06_21_03_44.264,3.858,36.1,0,0.765,0,0,0,0, ,0,0,0,0,0, ,42.8,223.6,861.5,-8.3,-14.7,4.7,25,-8.80419,258.428,972.08,-4.61459,-7.1357,2.01601,
2026_07_06_21_03_44.288,3.858,36.1,0,0.765,0,0,0,0, ,0,0,0,0,0, ,67.3,201.6,862.3,1.5,-14.1,4.3,25,-4.91307,255.636,965.365,-4.54058,-7.57837,2.16737,
2026_07_06_21_03_44.304,3.858,36.1,0,0.765,0,0,0,0, ,0,0,0,0,0, ,68.2,220,894.4,5.2,-14.4,6.4,25,-0.485169,252.903,960.063,-4.05974,-7.98492,2.36132,
2026_07_06_21_03_44.328,3.858,36.1,0,0.766,0,0,0,0, ,0,0,0,0,0, ,67.6,226.5,926.8,6.1,-12.6,8.2,25,3.68205,251.096,957.049,-3.46806,-8.321,2.66227,
2026_07_06_21_03_44.344,3.858,36.1,0,0.764,0,0,0,0, ,0,0,0,0,0, ,67.7,204.4,948.1,4.7,-13.2,5.5,25,7.5801,248.924,955.855,-2.92766,-8.60003,2.91746,
2026_07_06_21_03_44.370,3.858,36.2,0,0.764,0,0,0,0, ,0,0,0,0,0, ,65,238.4,954.5,-1.9,-10.1,3.4,25,11.1614,247.247,955.577,-2.66394,-8.78589,3.01085,
2026_07_06_21_03_44.383,3.858,36.1,0,0.764,0,0,0,0, ,0,0,0,0,0, ,61.8,260.4,931.7,-5,-5.8,3.5,25,14.3447,247.378,954.817,-2.71184,-8.73495,3.03761,
2026_07_06_21_03_44.408,3.858,36.1,0,0.763,0,0,0,0, ,0,0,0,0,0, ,67.2,266.7,946.8,-2.4,-6.3,1.2,25,17.401,248.364,953.868,-2.77206,-8.57134,2.99571,
2026_07_06_21_03_44.423,3.858,36,0,0.763,0,0,0,0, ,0,0,0,0,0, ,80.4,230.9,962.1,-3,-7.3,1.4,25,20.8378,248.39,953.904,-2.76767,-8.4634,2.89237,
2026_07_06_21_03_44.446,3.858,36.1,0,0.765,0,0,0,0, ,0,0,0,0,0, ,94.2,215.2,977.4,-9.4,-5.9,-0.1,25,24.8879,246.846,954.869,-2.97683,-8.34985,2.75573,
2026_07_06_21_03_44.462,3.858,36.1,0,0.764,0,0,0,0, ,0,0,0,0,0, ,95.8,213.9,964.7,-16.5,-6.1,0.6,25,29.1603,244.878,955.855,-3.58457,-8.20665,2.60304,
2026_07_06_21_03_44.487,3.858,36.1,0,0.763,0,0,0,0, ,0,0,0,0,0, ,96,203.7,947.2,-18.7,-9.4,3,25,33.2273,242.679,955.861,-4.43863,-8.17882,2.5541,
2026_07_06_21_03_44.502,3.858,36.2,0,0.764,0,0,0,0, ,0,0,0,0,0, ,84.3,193.3,924.6,-17.9,-12,2,25,36.696,239.987,954.645,-5.28331,-8.33246,2.5508,
2026_07_06_21_03_44.527,3.858,36.1,0,0.764,0,0,0,0, ,0,0,0,0,0, ,82.6,168.5,901.9,-17.9,-6.8,0.7,25,39.5451,236.387,952.122,-6.05214,-8.39751,2.47763,
2026_07_06_21_03_44.542,3.858,36.1,0,0.764,0,0,0,0, ,0,0,0,0,0, ,72.8,174.5,906.8,-15.9,-5.4,0,25,41.8701,232.433,949.211,-6.71318,-8.25751,2.34798,
2026_07_06_21_03_44.573,3.858,36.1,0,0.764,0,0,0,0, ,0,0,0,0,0, ,84.8,173,923.2,-13.6,-5.2,-5.4,25,44.1206,228.857,947.126,-7.20292,-8.07728,2.04037,
2026_07_06_21_03_44.581,3.858,36.1,0,0.763,0,0,0,0, ,0,0,0,0,0, ,117.4,150.8,929,-15.5,-4.9,-5.8,25,47.5927,224.776,945.845,-7.65064,-7.89281,1.57478,
2026_07_06_21_03_44.606,3.858,36.1,0,0.764,0,0,0,0, ,0,0,0,0,0, ,119.6,140.7,918.2,-17.2,-9.2,-4.9,25,51.9136,219.961,944.489,-8.18075,-7.84145,1.1528,
2026_07_06_21_03_44.621,3.858,36.1,0,0.765,0,0,0,0, ,0,0,0,0,0, ,109.7,165.8,909.7,-18.4,-9.3,-6.9,25,55.7366,215.896,942.628,-8.76693,-7.92728,0.723023,
2026_07_06_21_03_44.646,3.858,36.1,0,0.764,0,0,0,0, ,0,0,0,0,0, ,121,158,899.5,-18,-9.3,-8.5,25,59.3693,212.605,940.311,-9.34175,-8.01093,0.209745,
2026_07_06_21_03_44.660,3.858,36.1,0,0.764,0,0,0,0, ,0,0,0,0,0, ,156.6,132,905.6,-15.1,-9.9,-9.6,25,64.2096,208.486,938.01,-9.78101,-8.10777,-0.354521,
2026_07_06_21_03_44.685,3.858,36.1,0,0.764,0,0,0,0, ,0,0,0,0,0, ,148,157.1,893.6,-15.7,-9,-8.8,25,69.5776,204.59,935.669,-10.1234,-8.18956,-0.893542,
2026_07_06_21_03_44.699,3.858,36.2,0,0.764,0,0,0,0, ,0,0,0,0,0, ,145.7,187.2,886.8,-12.3,-6.7,-9.6,25,74.2864,202.613,932.899,-10.3596,-8.16887,-1.39972,
2026_07_06_21_03_44.726,3.858,36.1,0,0.765,0,0,0,0, ,0,0,0,0,0, ,172.1,184.6,910.7,-8.8,-8,-10.7,25,79.4426,201.594,930.818,-10.3712,-8.11897,-1.93294,
2026_07_06_21_03_44.739,3.858,36,0,0.764,0,0,0,0, ,0,0,0,0,0, ,200.8,163.9,919,-9.3,-10.5,-9.1,25,85.9633,199.928,929.845,-10.2907,-8.18789,-2.41843,
2026_07_06_21_03_44.764,3.858,36,0,0.765,0,0,0,0, ,0,0,0,0,0, ,172.7,176.6,912.8,-8.4,-15.1,-4.5,25,92.105,198.119,928.995,-10.2029,-8.46894,-2.68543,
2026_07_06_21_03_44.779,3.858,36.2,0,0.764,0,0,0,0, ,0,0,0,0,0, ,179.3,169.5,910.6,-2.6,-9.8,-4.8,25,97.2174,196.592,927.941,-9.91635,-8.71154,-2.80515,
2026_07_06_21_03_44.809,3.858,36,0,0.764,0,0,0,0, ,0,0,0,0,0, ,180.9,166,914.1,-1.7,-10.2,-3.4,25,102.268,194.834,926.991,-9.44309,-8.79005,-2.88405,
2026_07_06_21_03_44.819,3.858,36.1,0,0.762,0,0,0,0, ,0,0,0,0,0, ,161.9,162.9,920.6,0,-12,-2.5,25,106.481,192.983,926.403,-8.91945,-8.93081,-2.88807,
2026_07_06_21_03_44.843,3.858,36.1,0,0.763,0,0,0,0, ,0,0,0,0,0, ,158.6,165.6,934.2,-0.7,-13.3,-4.7,25,109.757,191.232,926.464,-8.39725,-9.15745,-2.93145,
2026_07_06_21_03_44.858,3.858,36.1,0,0.763,0,0,0,0, ,0,0,0,0,0, ,165.5,167.7,936.2,-0.4,-12.5,-6.8,25,112.944,189.734,926.996,-7.91905,-9.38551,-3.10321,
2026_07_06_21_03_44.884,3.858,36,0,0.765,0,0,0,0, ,0,0,0,0,0, ,221.9,147.8,925.7,1,-8.1,-7.1,25,117.865,187.785,927.237,-7.41821,-9.44124,-3.33762,
2026_07_06_21_03_44.900,3.858,36,0,0.765,0,0,0,0, ,0,0,0,0,0, ,230.3,140.1,902.3,-1.4,-10.6,-7.7,25,124.461,185.114,926.431,-6.97835,-9.43568,-3.58517,
2026_07_06_21_03_44.926,3.858,36,0,0.763,0,0,0,0, ,0,0,0,0,0, ,212,159.3,879,0.5,-10.6,-4.9,25,130.353,182.956,924.25,-6.58053,-9.50663,-3.75061,
2026_07_06_21_03_44.938,3.858,36.1,0,0.763,0,0,0,0, ,0,0,0,0,0, ,216.3,154.2,876.2,5.2,-8.1,-3.3,25,135.459,181.359,921.408,-6.00585,-9.49709,-3.7719,
2026_07_06_21_03_44.963,3.858,36.2,0,0.764,0,0,0,0, ,0,0,0,0,0, ,190.1,152.7,913.9,7.7,-7.3,-3,25,139.587,179.658,919.801,-5.24682,-9.38758,-3.734,
2026_07_06_21_03_44.977,3.858,36.1,0,0.765,0,0,0,0, ,0,0,0,0,0, ,195.3,151.6,955.8,4.5,-5.2,-5.1,25,142.824,177.982,920.718,-4.55538,-9.19638,-3.75326,
2026_07_06_21_03_45.002,3.858,36.1,0,0.764,0,0,0,0, ,0,0,0,0,0, ,225.8,134.6,959.1,0.3,-3,-5.7,25,146.951,175.856,922.957,-4.13153,-8.88582,-3.85361,
2026_07_06_21_03_45.016,3.858,36.1,0,0.764,0,0,0,0, ,0,0,0,0,0, ,186.4,164.3,941.4,0,1.2,-0.5,25,150.555,174.247,924.62,-3.87063,-8.39918,-3.80768,
2026_07_06_21_03_45.043,3.858,36.1,0,0.765,0,0,0,0, ,0,0,0,0,0, ,165.6,179.1,944.2,1.7,3.3,-1.4,25,152.106,174.092,925.728,-3.58297,-7.75025,-3.63354,
2026_07_06_21_03_45.057,3.858,36.1,0,0.764,0,0,0,0, ,0,0,0,0,0, ,190.9,161,978.5,1.2,1.7,-4.1,25,153.699,173.846,927.899,-3.27627,-7.12562,-3.5797,
2026_07_06_21_03_45.083,3.858,36.2,0,0.765,0,0,0,0, ,0,0,0,0,0, ,178.8,171.7,984.7,-5,-0.7,-3.1,25,155.597,173.389,931.171,-3.1924,-6.66094,-3.58094,
2026_07_06_21_03_45.096,3.858,36.2,0,0.765,0,0,0,0, ,0,0,0,0,0, ,169.5,151.3,958.6,-1.2,1.1,-0.1,25,156.728,172.664,933.638,-3.18677,-6.24285,-3.46023,
2026_07_06_21_03_45.122,3.858,36.2,0,0.765,0,0,0,0, ,0,0,0,0,0, ,150,185.7,976.1,-0.8,3.1,0.4,25,156.912,172.411,935.692,-3.05352,-5.73446,-3.24023,
2026_07_06_21_03_45.135,3.858,36.1,0,0.764,0,0,0,0, ,0,0,0,0,0, ,175,166.8,993.7,-2.8,2.9,-1.1,25,157.252,172.645,938.691,-2.97713,-5.2022,-3.06411,
2026_07_06_21_03_45.161,3.858,36.1,0,0.765,0,0,0,0, ,0,0,0,0,0, ,183.7,143.7,978.3,-5.3,1.7,0,25,158.599,171.585,941.574,-3.04251,-4.74504,-2.9109,
2026_07_06_21_03_45.174,3.858,36,0,0.764,0,0,0,0, ,0,0,0,0,0, ,157.7,166.2,951.4,-4.4,-1.8,1.4,25,159.336,170.571,942.992,-3.15265,-4.45893,-2.69086,
2026_07_06_21_03_45.200,3.858,36.1,0,0.764,0,0,0,0, ,0,0,0,0,0, ,118.6,186.4,967.6,0.5,-1.4,0,25,158.045,170.92,943.998,-3.07936,-4.28472,-2.48423,
2026_07_06_21_03_45.218,3.858,36.1,0,0.764,0,0,0,0, ,0,0,0,0,0, ,147.9,164,992.6,-2.9,-0.9,-4.1,25,156.534,171.181,946.198,-2.96484,-4.09369,-2.45777,
2026_07_06_21_03_45.245,3.858,36.1,0,0.764,0,0,0,0, ,0,0,0,0,0, ,160.8,154.4,983.8,-8.4,-3.2,-3.9,25,156.401,170.451,948.757,-3.12847,-3.96916,-2.55175,
2026_07_06_21_03_45.260,3.858,36.1,0,0.764,0,0,0,0, ,0,0,0,0,0, ,151.1,177.9,979.7,-10.7,-5.6,-4.7,25,156.374,170.189,950.768,-3.51978,-3.99541,-2.65828,
2026_07_06_21_03_45.286,3.858,36.1,0,0.765,0,0,0,0, ,0,0,0,0,0, ,170.5,166.2,1004.8,-12.7,-6.9,-2.2,25,156.643,170.302,953.296,-4.01826,-4.1328,-2.70653,
2026_07_06_21_03_45.294,3.858,36.2,0,0.765,0,0,0,0, ,0,0,0,0,0, ,176.8,123.7,993.7,-15.3,-2.3,-0.5,25,157.68,168.757,956.096,-4.62652,-4.16127,-2.62387,
2026_07_06_21_03_45.320,3.858,36.2,0,0.763,0,0,0,0, ,0,0,0,0,0, ,163,117.3,938.1,-13.5,2.8,-2.9,25,158.424,165.817,956.693,-5.2221,-3.89246,-2.56757,
2026_07_06_21_03_45.333,3.858,36.1,0,0.764,0,0,0,0, ,0,0,0,0,0, ,155.1,140,928.4,-7.5,1.3,-2.9,25,158.463,163.552,955.265,-5.54372,-3.53034,-2.58783,
2026_07_06_21_03_45.360,3.858,36.2,0,0.765,0,0,0,0, ,0,0,0,0,0, ,146.1,157.5,957.5,-7.4,-3.2,-4.9,25,157.983,162.65,954.514,-5.65988,-3.3731,-2.66779,
2026_07_06_21_03_45.373,3.858,36,0,0.764,0,0,0,0, ,0,0,0,0,0, ,184.6,114.8,991,-4.7,-3.7,-5.7,25,158.432,161.035,955.717,-5.68365,-3.37779,-2.82819,
2026_07_06_21_03_45.399,3.858,36.1,0,0.765,0,0,0,0, ,0,0,0,0,0, ,178.7,132.9,984.1,-3.7,-0.1,-1.9,25,159.847,158.769,957.657,-5.59324,-3.28773,-2.88741,
2026_07_06_21_03_45.412,3.858,36,0,0.765,0,0,0,0, ,0,0,0,0,0, ,159.1,145,969.2,-1.2,1,0,25,160.399,157.561,958.814,-5.4017,-3.05997,-2.76935,
2026_07_06_21_03_45.440,3.858,36.2,0,0.764,0,0,0,0, ,0,0,0,0,0, ,143.7,139.1,978.8,1.6,-3.7,0.1,25,159.85,156.616,959.74,-5.06035,-2.95576,-2.59754,
2026_07_06_21_03_45.452,3.858,36.2,0,0.765,0,0,0,0, ,0,0,0,0,0, ,129,140.3,991.6,1.6,-4.9,-2.5,25,158.418,155.585,961.291,-4.65448,-3.03768,-2.51238,
2026_07_06_21_03_45.478,3.858,36.2,0,0.764,0,0,0,0, ,0,0,0,0,0, ,28.1,148,994.6,-24.2,-7.8,-26.9,25,153.551,154.888,963.229,-5.05945,-3.23952,-3.25506,
2026_07_06_21_03_45.491,3.858,36.1,0,0.764,0,0,0,0, ,0,0,0,0,0, ,151.7,79.8,977,1.4,-5.6,-23.1,25,149.673,152.391,964.605,-5.44582,-3.4504,-4.58014,
2026_07_06_21_03_45.519,3.858,36.1,0,0.764,0,0,0,0, ,0,0,0,0,0, ,184.6,142.4,1017.8,0.3,-1.6,-6.9,25,150.799,149.874,966.603,-5.06217,-3.45951,-5.2151,
2026_07_06_21_03_45.532,3.858,36.1,0,0.765,0,0,0,0, ,0,0,0,0,0, ,165.7,144.8,1009,0,-0.1,-6,25,152.283,149.492,969.455,-4.74455,-3.3005,-5.29036,
2026_07_06_21_03_45.558,3.858,36.1,0,0.764,0,0,0,0, ,0,0,0,0,0, ,167.1,150.6,998.5,0.2,1,-6.8,25,153.143,149.383,971.545,-4.44934,-3.07195,-5.35797,
2026_07_06_21_03_45.571,3.858,36.1,0,0.765,0,0,0,0, ,0,0,0,0,0, ,161,145.3,994.2,-1.4,0.7,-3.8,25,153.807,149.296,973.056,-4.21477,-2.83296,-5.35444,
2026_07_06_21_03_45.598,3.858,36.2,0,0.764,0,0,0,0, ,0,0,0,0,0, ,184.6,134.2,992.6,-2.2,-0.3,-4.9,25,154.965,148.714,974.296,-4.06762,-2.64814,-5.29323,
2026_07_06_21_03_45.617,3.858,36.1,0,0.764,0,0,0,0, ,0,0,0,0,0, ,180.5,125.2,978.2,-2.2,-0.8,-3.2,25,156.646,147.555,974.973,-3.95381,-2.52028,-5.21747,
2026_07_06_21_03_45.644,3.858,36.1,0,0.764,0,0,0,0, ,0,0,0,0,0, ,173.4,141.8,967.4,-2.5,-1.4,-1.5,25,157.883,146.699,974.84,-3.85608,-2.43373,-5.04274,
2026_07_06_21_03_45.650,3.858,36.1,0,0.764,0,0,0,0, ,0,0,0,0,0, ,176.5,146.6,974.4,-0.7,-1.1,0.1,25,158.923,146.546,974.6,-3.7186,-2.3616,-4.7781,
2026_07_06_21_03_45.677,3.858,36.2,0,0.764,0,0,0,0, ,0,0,0,0,0, ,166.9,136.8,977,-2,-2.2,0.6,25,159.702,146.251,974.667,-3.57426,-2.31824,-4.46561,
2026_07_06_21_03_45.690,3.858,36.1,0,0.765,0,0,0,0, ,0,0,0,0,0, ,172.3,127.3,975.9,-2.5,0.9,-1.2,25,160.305,145.386,974.776,-3.49357,-2.21658,-4.21177,
2026_07_06_21_03_45.716,3.858,36.1,0,0.763,0,0,0,0, ,0,0,0,0,0, ,164.7,141.8,955.8,-4,2.5,-2.7,25,160.804,144.725,974.232,-3.47872,-1.97791,-4.07394,
2026_07_06_21_03_45.730,3.858,36.1,0,0.764,0,0,0,0, ,0,0,0,0,0, ,165,151.3,965.5,-1.1,-0.7,-2.5,25,161.051,144.837,973.404,-3.42213,-1.80254,-3.98412,
2026_07_06_21_03_45.756,3.858,36.1,0,0.764,0,0,0,0, ,0,0,0,0,0, ,169.7,146.8,990.2,-1.6,-1.8,-2.9,25,161.435,145.093,973.675,-3.29586,-1.76887,-3.90587,
2026_07_06_21_03_45.769,3.858,36.1,0,0.766,0,0,0,0, ,0,0,0,0,0, ,192.7,134.8,982,-4.1,0,-3.6,25,162.639,144.832,974.432,-3.26869,-1.71592,-3.8659,
2026_07_06_21_03_45.797,3.858,36.1,0,0.764,0,0,0,0, ,0,0,0,0,0, ,186.6,149.4,964.9,-3.9,-0.6,0.1,25,164.285,144.665,974.373,-3.31325,-1.62964,-3.73697,
2026_07_06_21_03_45.809,3.858,36.2,0,0.764,0,0,0,0, ,0,0,0,0,0, ,163.9,159,973.5,-1.4,-4.3,2,25,164.953,145.246,974.057,-3.27284,-1.67963,-3.44526,
2026_07_06_21_03_45.835,3.858,36.1,0,0.764,0,0,0,0, ,0,0,0,0,0, ,167.2,134.3,988.5,-1.9,-4.8,-0.6,25,164.99,145.332,974.48,-3.17395,-1.85454,-3.19266,
2026_07_06_21_03_45.848,3.858,36.1,0,0.765,0,0,0,0, ,0,0,0,0,0, ,178.2,126.8,961.3,-6.6,1.2,-1.5,25,165.459,144.431,974.506,-3.23952,-1.85122,-3.06209,
2026_07_06_21_03_45.877,3.858,36.1,0,0.764,0,0,0,0, ,0,0,0,0,0, ,163,151.4,944.3,-2.5,1.3,0.5,25,165.773,144.106,973.183,-3.31937,-1.66224,-2.90596,
2026_07_06_21_03_45.888,3.858,36.1,0,0.765,0,0,0,0, ,0,0,0,0,0, ,162.8,146.1,970,2.4,0,-1.1,25,165.598,144.389,972.206,-3.12015,-1.52134,-2.74716,
2026_07_06_21_03_45.915,3.858,36.2,0,0.764,0,0,0,0, ,0,0,0,0,0, ,183.7,121,973.6,-0.8,-0.1,-0.5,25,166.064,143.729,972.181,-2.88126,-1.43168,-2.62851,
2026_07_06_21_03_45.927,3.858,36.1,0,0.764,0,0,0,0, ,0,0,0,0,0, ,168.7,139.8,969.4,1.2,0.7,-1.4,25,166.682,142.916,972.14,-2.6935,-1.32615,-2.52622,
2026_07_06_21_03_45.955,3.858,36.1,0,0.763,0,0,0,0, ,0,0,0,0,0, ,163.4,144.5,978,1.1,0.7,-3.4,25,166.643,142.87,972.235,-2.45929,-1.20268,-2.51853,
2026_07_06_21_03_45.967,3.858,36.1,0,0.764,0,0,0,0, ,0,0,0,0,0, ,160.7,142.5,1006.4,-0.5,-1.9,-5.1,25,166.363,142.908,973.452,-2.29114,-1.16596,-2.62404,
2026_07_06_21_03_45.995,3.858,36.1,0,0.765,0,0,0,0, ,0,0,0,0,0, ,191.2,136.8,987.5,-6.6,-1.6,-7.6,25,166.947,142.71,974.884,-2.36785,-1.20155,-2.85109,
2026_07_06_21_03_46.011,3.858,36.2,0,0.765,0,0,0,0, ,0,0,0,0,0, ,187.6,157.5,947.1,-8.3,0.9,-4.9,25,168.316,142.98,974.421,-2.67755,-1.14966,-3.05821,
2026_07_06_21_03_46.038,3.858,36.1,0,0.763,0,0,0,0, ,0,0,0,0,0, ,196.6,162.2,946.4,-4.3,1,-2.8,25,169.765,144.008,972.735,-2.89829,-1.02171,-3.10646,
2026_07_06_21_03_46.046,3.858,36.1,0,0.765,0,0,0,0, ,0,0,0,0,0, ,199.9,146.6,947.7,-2.7,2.6,1.6,25,171.501,144.641,971.17,-2.93496,-0.849761,-2.95373,
2026_07_06_21_03_46.073,3.858,36.2,0,0.764,0,0,0,0, ,0,0,0,0,0, ,177.2,138.6,956.9,-0.4,3,4,25,172.54,144.517,970.02,-2.85056,-0.627354,-2.60311,
2026_07_06_21_03_46.086,3.858,36.2,0,0.764,0,0,0,0, ,0,0,0,0,0, ,166,119.2,991.6,1.3,2.9,4,25,172.482,143.565,970.278,-2.64943,-0.409359,-2.20073,
2026_07_06_21_03_46.114,3.858,36.2,0,0.765,0,0,0,0, ,0,0,0,0,0, ,147.9,106.9,1002.9,-3,2.9,3.5,25,171.536,141.706,971.921,-2.53978,-0.207695,-1.83811,
2026_07_06_21_03_46.125,3.858,36.2,0,0.764,0,0,0,0, ,0,0,0,0,0, ,150.1,102,984.1,-5.4,2.7,0.9,25,170.163,139.436,973.236,-2.64095,-0.0244134,-1.59204,
2026_07_06_21_03_46.155,3.858,36.1,0,0.763,0,0,0,0, ,0,0,0,0,0, ,143.5,104.9,968.6,-2.8,2.8,0.6,25,168.739,137.243,973.426,-2.72986,0.144652,-1.44932,
2026_07_06_21_03_46.165,3.858,36.2,0,0.764,0,0,0,0, ,0,0,0,0,0, ,149.5,110.1,981.8,0.3,3.6,0.3,25,167.384,135.43,973.534,-2.63968,0.330838,-1.33358,
2026_07_06_21_03_46.193,3.858,36,0,0.764,0,0,0,0, ,0,0,0,0,0, ,147.5,108,992.9,0.5,2.7,0.4,25,166.233,133.823,974.376,-2.45445,0.50263,-1.23099,
2026_07_06_21_03_46.205,3.858,36.1,0,0.764,0,0,0,0, ,0,0,0,0,0, ,152.9,98.9,1007.2,-1.8,0.6,-0.1,25,165.256,131.972,975.941,-2.34449,0.572548,-1.14683,
2026_07_06_21_03_46.231,3.858,36.1,0,0.764,0,0,0,0, ,0,0,0,0,0, ,140.8,92,987.4,-4.8,0.3,-0.9,25,164.134,129.746,977.242,-2.40272,0.56508,-1.10742,
2026_07_06_21_03_46.244,3.858,36.1,0,0.764,0,0,0,0, ,0,0,0,0,0, ,153.5,95,980.3,-3.5,1.2,-2.8,25,163.099,127.538,977.645,-2.50919,0.576349,-1.15267,
2026_07_06_21_03_46.273,3.858,36.1,0,0.764,0,0,0,0, ,0,0,0,0,0, ,159.6,106.9,986.4,-3.7,1.6,-1.8,25,162.7,125.917,977.993,-2.57566,0.62654,-1.22258,
2026_07_06_21_03_46.284,3.858,36.1,0,0.763,0,0,0,0, ,0,0,0,0,0, ,154.4,97.1,972.1,-3.1,0.8,0.3,25,162.353,124.46,978.069,-2.6259,0.661485,-1.19378,
2026_07_06_21_03_46.312,3.858,36.2,0,0.765,0,0,0,0, ,0,0,0,0,0, ,146.1,91.5,977.9,-0.2,-1.8,-0.6,25,161.615,122.622,977.882,-2.56643,0.590707,-1.13018,
2026_07_06_21_03_46.324,3.858,36.1,0,0.764,0,0,0,0, ,0,0,0,0,0, ,153.1,94.8,984.6,-1.4,-0.3,-2.2,25,160.883,120.826,978.087,-2.45879,0.490727,-1.14662,
2026_07_06_21_03_46.353,3.858,36.1,0,0.764,0,0,0,0, ,0,0,0,0,0, ,138.9,111.6,971.5,-1.4,0.2,-0.9,25,159.976,119.752,978.085,-2.39427,0.457776,-1.1712,
2026_07_06_21_03_46.363,3.858,36.2,0,0.766,0,0,0,0, ,0,0,0,0,0, ,143.3,114.3,985.1,1.2,0,-2.1,25,158.826,119.338,978.098,-2.25446,0.435974,-1.19124,
2026_07_06_21_03_46.390,3.858,36.1,0,0.765,0,0,0,0, ,0,0,0,0,0, ,156.4,103.7,992.7,1.4,0.7,-3.2,25,158.279,118.708,978.756,-2.03786,0.430735,-1.28013,
2026_07_06_21_03_46.403,3.858,36.1,0,0.764,0,0,0,0, ,0,0,0,0,0, ,164.6,116,999.7,0.2,-0.1,-2.8,25,158.414,118.168,979.819,-1.86493,0.422768,-1.38494,
2026_07_06_21_03_46.431,3.858,36.1,0,0.765,0,0,0,0, ,0,0,0,0,0, ,152.4,130.9,995.3,-1.7,0.3,-1,25,158.42,118.49,980.897,-1.79699,0.4031,-1.41632,
2026_07_06_21_03_46.446,3.858,36.1,0,0.764,0,0,0,0, ,0,0,0,0,0, ,148.3,117.6,968.6,-1.3,-0.6,-1.1,25,157.928,118.841,980.961,-1.77889,0.369395,-1.394,
2026_07_06_21_03_46.474,3.858,36.1,0,0.764,0,0,0,0, ,0,0,0,0,0, ,141.6,109.7,985.4,1,-1.1,-3.4,25,157.137,118.524,980.72,-1.67963,0.295088,-1.44616,
2026_07_06_21_03_46.482,3.858,36.1,0,0.763,0,0,0,0, ,0,0,0,0,0, ,157.4,114.7,1004.7,-1.9,-0.2,-4.8,25,156.672,118.139,981.593,-1.6047,0.237497,-1.60788,
2026_07_06_21_03_46.510,3.858,36.1,0,0.765,0,0,0,0, ,0,0,0,0,0, ,141.4,129,995.3,-3.8,-0.7,-3.8,25,156.229,118.365,982.715,-1.68058,0.195603,-1.77193,
2026_07_06_21_03_46.521,3.858,36.1,0,0.765,0,0,0,0, ,0,0,0,0,0, ,144.2,119.7,987.4,-3.6,-0.2,-5.4,25,155.41,118.73,983.241,-1.80364,0.156261,-1.94427,
2026_07_06_21_03_46.549,3.858,36.1,0,0.765,0,0,0,0, ,0,0,0,0,0, ,170.5,111.3,971.8,-5.1,-0.4,-5.5,25,155.528,118.533,983.019,-1.95881,0.128458,-2.1579,
2026_07_06_21_03_46.562,3.858,36.1,0,0.764,0,0,0,0, ,0,0,0,0,0, ,159.1,129.6,962,-2.4,-0.9,-2.6,25,156.093,118.65,982.037,-2.06796,0.0810206,-2.2732,
2026_07_06_21_03_46.590,3.858,36.1,0,0.765,0,0,0,0, ,0,0,0,0,0, ,171.8,125.7,979.8,0.8,-2.1,-2.2,25,156.664,119.198,981.358,-1.9907,-0.0153228,-2.28092,
2026_07_06_21_03_46.601,3.858,36.1,0,0.764,0,0,0,0, ,0,0,0,0,0, ,162.3,113.8,995.7,-1,-2.6,-0.2,25,157.297,119.232,981.748,-1.87548,-0.157592,-2.21506,
2026_07_06_21_03_46.629,3.858,36.1,0,0.765,0,0,0,0, ,0,0,0,0,0, ,139.2,108.2,978.8,-3.2,-1.4,-0.7,25,156.898,118.73,982.083,-1.88916,-0.269864,-2.1075,
2026_07_06_21_03_46.640,3.858,36.1,0,0.763,0,0,0,0, ,0,0,0,0,0, ,139.7,108.3,960.5,-2,1.2,-3.2,25,155.834,118.092,981.325,-1.93248,-0.259513,-2.0979,
2026_07_06_21_03_46.669,3.858,36.1,0,0.764,0,0,0,0, ,0,0,0,0,0, ,159.5,115.8,988.8,0.9,-0.2,-3.9,25,155.454,117.723,980.918,-1.84823,-0.21323,-2.18639,
2026_07_06_21_03_46.680,3.858,36.2,0,0.765,0,0,0,0, ,0,0,0,0,0, ,165.8,118,1012.8,-2.1,-1.4,-2.2,25,155.893,117.673,982.13,-1.77217,-0.248986,-2.23901,
2026_07_06_21_03_46.708,3.858,36.1,0,0.764,0,0,0,0, ,0,0,0,0,0, ,170.1,108.7,977.5,-4.6,-0.4,-1.5,25,156.628,117.41,982.923,-1.86832,-0.288657,-2.21531,
2026_07_06_21_03_46.719,3.858,36.1,0,0.764,0,0,0,0, ,0,0,0,0,0, ,146.1,113.4,952.7,-1.1,-1.1,-1,25,156.717,117.022,981.837,-1.92814,-0.316771,-2.15648,
2026_07_06_21_03_46.748,3.858,36.2,0,0.764,0,0,0,0, ,0,0,0,0,0, ,160.8,108.6,981.5,2.5,-0.5,-1.9,25,156.518,116.655,980.939,-1.76799,-0.346217,-2.11343,
2026_07_06_21_03_46.759,3.858,36.1,0,0.763,0,0,0,0, ,0,0,0,0,0, ,152.8,111.4,994.6,-0.3,-1.3,-0.2,25,156.535,116.25,981.373,-1.59322,-0.379963,-2.04863,
2026_07_06_21_03_46.787,3.858,36.1,0,0.764,0,0,0,0, ,0,0,0,0,0, ,151.6,115.3,1001.8,-1.6,-3,-2.6,25,156.271,116.073,982.398,-1.55402,-0.487825,-2.0091,
2026_07_06_21_03_46.799,3.858,36.1,0,0.763,0,0,0,0, ,0,0,0,0,0, ,170.5,104.8,963.9,-5.2,-0.4,-2,25,156.562,115.706,982.426,-1.66651,-0.561692,-2.02683,
2026_07_06_21_03_46.826,3.858,36.1,0,0.765,0,0,0,0, ,0,0,0,0,0, ,153.6,115.6,933.5,0,0,-1.1,25,156.897,115.37,980.37,-1.7234,-0.539651,-1.99777,
2026_07_06_21_03_46.838,3.858,36.1,0,0.765,0,0,0,0, ,0,0,0,0,0, ,168.5,110.4,976,3.7,-0.7,-1.8,25,157.15,115.226,978.809,-1.50564,-0.528094,-1.96439,
2026_07_06_21_03_46.867,3.858,36.2,0,0.764,0,0,0,0, ,0,0,0,0,0, ,174.4,97.9,989,-1,-0.5,-1.4,25,158.021,114.551,979.034,-1.33163,-0.532476,-1.94219,
2026_07_06_21_03_46.878,3.858,36.1,0,0.764,0,0,0,0, ,0,0,0,0,0, ,167.1,105.8,976.3,-2.3,0,-1.4,25,158.797,113.777,979.254,-1.35103,-0.515263,-1.90915,
2026_07_06_21_03_46.907,3.858,36.1,0,0.763,0,0,0,0, ,0,0,0,0,0, ,161.6,115.7,946.8,-1,1.6,-1.3,25,159.135,113.593,978.176,-1.36925,-0.435114,-1.87508,
2026_07_06_21_03_46.917,3.858,36.2,0,0.765,0,0,0,0, ,0,0,0,0,0, ,161.1,110.9,972.6,3.6,1.9,-1.2,25,159.27,113.575,977.05,-1.20659,-0.301959,-1.83699,
2026_07_06_21_03_46.947,3.858,36.1,0,0.765,0,0,0,0, ,0,0,0,0,0, ,164.5,104.4,1003,0.9,0.2,-1.6,25,159.485,113.214,977.705,-0.995954,-0.219574,-1.81036,
2026_07_06_21_03_46.957,3.858,36,0,0.765,0,0,0,0, ,0,0,0,0,0, ,144.1,116,988.6,-4.1,0,-1.5,25,159.169,113.03,978.807,-1.03276,-0.2001,-1.79449,
2026_07_06_21_03_46.985,3.858,36.1,0,0.764,0,0,0,0, ,0,0,0,0,0, ,148.4,119.2,962.2,-3.2,1.2,-2.7,25,158.382,113.309,978.6,-1.19225,-0.151344,-1.81311,
2026_07_06_21_03_46.997,3.858,36.1,0,0.763,0,0,0,0, ,0,0,0,0,0, ,165.2,109.6,966.9,1,2.2,-3.1,25,158.286,113.375,977.744,-1.18663,-0.0385273,-1.87934,
2026_07_06_21_03_47.028,3.858,36.1,0,0.765,0,0,0,0, ,0,0,0,0,0, ,154.1,114.7,982.6,1.5,1.7,-1.2,25,158.369,113.3,977.561,-1.03815,0.0826486,-1.89583,
2026_07_06_21_03_47.036,3.858,36.1,0,0.762,0,0,0,0, ,0,0,0,0,0, ,142.2,114.1,985.2,0,1.9,-1.5,25,157.746,113.367,977.947,-0.929182,0.1873,-1.86257,
2026_07_06_21_03_47.064,3.858,36.1,0,0.764,0,0,0,0, ,0,0,0,0,0, ,164.9,101.3,985.4,-0.1,1.5,-2.3,25,157.49,113.022,978.396,-0.875607,0.27948,-1.86485,
2026_07_06_21_03_47.077,3.858,36.1,0,0.765,0,0,0,0, ,0,0,0,0,0, ,154.2,104.3,985.9,-0.2,0,-1.5,25,157.616,112.399,978.838,-0.83139,0.308152,-1.86699,
2026_07_06_21_03_47.107,3.858,36.1,0,0.765,0,0,0,0, ,0,0,0,0,0, ,146.7,107.2,981.9,0.1,0.3,-2.6,25,157.179,111.994,979.146,-0.783774,0.298515,-1.87815,
2026_07_06_21_03_47.116,3.858,36.1,0,0.764,0,0,0,0, ,0,0,0,0,0, ,149.7,109.6,975.9,-0.3,0.6,-2,25,156.632,111.775,979.131,-0.742107,0.307746,-1.90385,
2026_07_06_21_03_47.144,3.858,36.1,0,0.765,0,0,0,0, ,0,0,0,0,0, ,151.2,116.3,984.8,0.9,0.6,-1.6,25,156.255,111.847,979.205,-0.678603,0.325555,-1.89752,
2026_07_06_21_03_47.155,3.858,36.1,0,0.763,0,0,0,0, ,0,0,0,0,0, ,158.8,105.7,989.1,-0.1,0,-1.5,25,156.179,111.795,979.677,-0.612876,0.323998,-1.87635,
2026_07_06_21_03_47.185,3.858,36,0,0.764,0,0,0,0, ,0,0,0,0,0, ,140.1,115.6,987.5,-1.6,-0.3,-0.7,25,155.769,111.725,980.203,-0.627326,0.295114,-1.82904,
2026_07_06_21_03_47.195,3.858,36.1,0,0.765,0,0,0,0, ,0,0,0,0,0, ,133.4,112.6,977.4,-0.3,1,-2,25,154.61,111.87,980.34,-0.646989,0.298458,-1.79985,
2026_07_06_21_03_47.224,3.858,36.2,0,0.765,0,0,0,0, ,0,0,0,0,0, ,147.5,107.4,984.3,0,1.4,-2.4,25,153.747,111.756,980.371,-0.616703,0.353396,-1.82423,
2026_07_06_21_03_47.235,3.858,36.1,0,0.764,0,0,0,0, ,0,0,0,0,0, ,146.8,114.2,1011.4,1.1,-0.2,-2.9,25,153.345,111.698,981.436,-0.545607,0.368423,-1.87455,
2026_07_06_21_03_47.264,3.858,36.1,0,0.764,0,0,0,0, ,0,0,0,0,0, ,153.8,119.5,1014.4,-3.7,-1.6,-2.3,25,153.159,112.012,983.353,-0.591578,0.291129,-1.91876,
2026_07_06_21_03_47.274,3.858,36,0,0.763,0,0,0,0, ,0,0,0,0,0, ,126.5,127.6,971.9,-4.7,-1.9,-0.6,25,152.367,112.715,983.95,-0.811466,0.166748,-1.89019,
2026_07_06_21_03_47.303,3.858,36.1,0,0.763,0,0,0,0, ,0,0,0,0,0, ,140.7,100.8,965.3,0.8,-0.9,-2,25,151.223,112.805,983.015,-0.880846,0.0712739,-1.85423,
2026_07_06_21_03_47.314,3.858,36.1,0,0.764,0,0,0,0, ,0,0,0,0,0, ,168.7,93.6,981.9,-0.1,-2.4,-0.7,25,151.435,111.854,982.441,-0.805841,-0.0336162,-1.8235,
2026_07_06_21_03_47.343,3.858,36.1,0,0.764,0,0,0,0, ,0,0,0,0,0, ,140.5,128.9,990.1,-1,-3.4,1.4,25,151.628,111.818,982.658,-0.790251,-0.208286,-1.69105,
2026_07_06_21_03_47.355,3.858,36.1,0,0.764,0,0,0,0, ,0,0,0,0,0, ,127.4,124.7,996.9,-0.8,-0.6,0.7,25,150.551,112.731,983.319,-0.796939,-0.317469,-1.52402,
2026_07_06_21_03_47.386,3.858,36.1,0,0.764,0,0,0,0, ,0,0,0,0,0, ,129.7,98.7,994.6,-3.4,0,-0.4,25,149.21,112.668,984.076,-0.876344,-0.316405,-1.42201,
2026_07_06_21_03_47.393,3.858,36.1,0,0.765,0,0,0,0, ,0,0,0,0,0, ,130.4,99.6,988.5,-3.3,0.6,-2.6,25,148.042,111.844,984.532,-1.02708,-0.278842,-1.42676,
2026_07_06_21_03_47.422,3.858,36.1,0,0.764,0,0,0,0, ,0,0,0,0,0, ,139.7,105.4,1003.6,-1.6,-0.6,-5.5,25,147.251,111.275,985.234,-1.11379,-0.26185,-1.58662,
2026_07_06_21_03_47.433,3.858,36.1,0,0.764,0,0,0,0, ,0,0,0,0,0, ,169.4,113.7,1026.1,-3.5,-2.2,-7,25,147.695,111.17,987.038,-1.20131,-0.331206,-1.87079,
2026_07_06_21_03_47.462,3.858,36.1,0,0.765,0,0,0,0, ,0,0,0,0,0, ,146.3,124.2,991.4,-7.6,-4.5,-3.2,25,148.314,111.644,988.361,-1.46631,-0.515164,-2.06757,
2026_07_06_21_03_47.472,3.858,36.1,0,0.764,0,0,0,0, ,0,0,0,0,0, ,157.5,104,962.5,-5.6,-3.7,-5.6,25,148.533,111.793,987.666,-1.77914,-0.733615,-2.2097,
2026_07_06_21_03_47.503,3.858,36.1,0,0.763,0,0,0,0, ,0,0,0,0,0, ,149.7,102.6,946.5,-4.5,-2.1,-3.3,25,148.842,111.276,985.645,-1.97846,-0.865629,-2.34622,
2026_07_06_21_03_47.512,3.858,36.1,0,0.764,0,0,0,0, ,0,0,0,0,0, ,151.2,103.5,960.8,0.8,-0.6,-4.6,25,148.94,110.774,983.695,-1.97063,-0.895145,-2.44395,
2026_07_06_21_03_47.541,3.858,36.1,0,0.764,0,0,0,0, ,0,0,0,0,0, ,163.2,109.9,999.6,0.1,-1.5,-3.7,25,149.443,110.526,983.482,-1.82313,-0.904582,-2.54791,
2026_07_06_21_03_47.551,3.858,36.1,0,0.765,0,0,0,0, ,0,0,0,0,0, ,151.4,117,999.8,-3,-2.6,-2,25,149.922,110.704,984.471,-1.80039,-0.974381,-2.56632,
2026_07_06_21_03_47.581,3.858,36.1,0,0.764,0,0,0,0, ,0,0,0,0,0, ,163.5,97.1,990.3,-3.3,-3.4,-3.3,25,150.38,110.482,985.115,-1.88263,-1.09782,-2.57142,
2026_07_06_21_03_47.591,3.858,36.1,0,0.764,0,0,0,0, ,0,0,0,0,0, ,165.1,94.7,986.5,-3.6,-4.3,-2.5,25,151.229,109.593,985.315,-1.97814,-1.26553,-2.59144,
2026_07_06_21_03_47.621,3.858,36.1,0,0.763,0,0,0,0, ,0,0,0,0,0, ,141.2,97.5,968.9,-4.8,-4.5,-2,25,151.346,108.771,984.851,-2.11354,-1.45653,-2.57064,
2026_07_06_21_03_47.631,3.858,36.1,0,0.763,0,0,0,0, ,0,0,0,0,0, ,136.4,99.7,963.1,-1.6,-2.9,-3.5,25,150.581,108.151,983.703,-2.17974,-1.59325,-2.58157,
2026_07_06_21_03_47.661,3.858,36.1,0,0.765,0,0,0,0, ,0,0,0,0,0, ,143.6,100.5,974.7,0.1,-0.7,-4.6,25,149.936,107.66,982.801,-2.09262,-1.60585,-2.67105,
2026_07_06_21_03_47.670,3.858,36.1,0,0.764,0,0,0,0, ,0,0,0,0,0, ,173.9,93.6,1000,0.8,0.2,-6.3,25,150.474,107.014,983.078,-1.93768,-1.52322,-2.84039,
2026_07_06_21_03_47.700,3.858,36.1,0,0.765,0,0,0,0, ,0,0,0,0,0, ,167.7,109.8,1006.1,-3.5,-1.9,-4.6,25,151.712,106.69,984.295,-1.90187,-1.4822,-2.99942,
2026_07_06_21_03_47.710,3.858,36.1,0,0.764,0,0,0,0, ,0,0,0,0,0, ,158.2,111.9,975.4,-5.3,-1.3,-3.9,25,152.397,106.944,984.688,-2.0541,-1.48938,-3.07562,
2026_07_06_21_03_47.740,3.858,36.1,0,0.762,0,0,0,0, ,0,0,0,0,0, ,164.4,98.2,951.5,-1.9,0,-4.2,25,152.94,106.828,983.394,-2.1483,-1.43823,-3.135,
2026_07_06_21_03_47.749,3.858,36.1,0,0.764,0,0,0,0, ,0,0,0,0,0, ,171.7,100.9,973.9,0.2,-0.2,-3.5,25,153.86,106.385,982.133,-2.06918,-1.35668,-3.17857,
2026_07_06_21_03_47.779,3.858,36.1,0,0.764,0,0,0,0, ,0,0,0,0,0, ,166.5,108.3,999.2,-0.4,-2.3,-2.6,25,154.789,106.276,982.402,-1.94919,-1.35018,-3.17073,
2026_07_06_21_03_47.789,3.858,36.1,0,0.765,0,0,0,0, ,0,0,0,0,0, ,155.2,103.6,999.7,-2.6,-0.6,-2.8,25,155.158,106.256,983.441,-1.92181,-1.35626,-3.14205,
2026_07_06_21_03_47.818,3.858,36.1,0,0.763,0,0,0,0, ,0,0,0,0,0, ,170.1,95.7,975.7,-4.7,-1.5,-3.2,25,155.615,105.854,983.7,-2.02713,-1.3376,-3.13339,
2026_07_06_21_03_47.829,3.858,36.1,0,0.764,0,0,0,0, ,0,0,0,0,0, ,155,98.2,944.4,-1.7,-0.2,-0.7,25,156.037,105.311,982.259,-2.0986,-1.30789,-3.06128,
2026_07_06_21_03_47.860,3.858,36.2,0,0.764,0,0,0,0, ,0,0,0,0,0, ,143,96.5,955.4,4.8,0.9,-2.5,25,155.609,104.826,980.287,-1.87626,-1.20686,-2.97223,
2026_07_06_21_03_47.869,3.858,36.1,0,0.763,0,0,0,0, ,0,0,0,0,0, ,182,89.9,1004.1,1.8,0.1,-3.7,25,156.029,104.117,980.255,-1.56083,-1.10285,-2.98002,
2026_07_06_21_03_47.905,3.858,36.1,0,0.764,0,0,0,0, ,0,0,0,0,0, ,162.2,102,979.3,-2,-0.8,-0.1,25,157.008,103.62,980.952,-1.47181,-1.05697,-2.91421,
2026_07_06_21_03_47.909,3.858,36.1,0,0.763,0,0,0,0, ,0,0,0,0,0, ,165.7,93.3,955.3,1,-2,-0.7,25,157.431,103.256,980.12,-1.41259,-1.07787,-2.761,
2026_07_06_21_03_47.940,3.858,36.1,0,0.762,0,0,0,0, ,0,0,0,0,0, ,151.3,74.2,953.9,3.6,-1.5,2,25,157.496,102.067,978.565,-1.18636,-1.11883,-2.55314,
2026_07_06_21_03_47.947,3.858,36.1,0,0.764,0,0,0,0, ,0,0,0,0,0, ,148.8,72.7,975,4.1,-1.3,-1.5,25,157.042,100.323,977.705,-0.879454,-1.13596,-2.38232,
2026_07_06_21_03_47.976,3.858,36.1,0,0.764,0,0,0,0, ,0,0,0,0,0, ,158,73.2,979.6,1.6,-0.2,-3.7,25,156.82,98.6553,977.68,-0.652191,-1.11245,-2.39559,
2026_07_06_21_03_47.987,3.858,36.1,0,0.765,0,0,0,0, ,0,0,0,0,0, ,140.2,107.1,1009.7,0,-0.5,-6.6,25,156.35,98.137,978.714,-0.563698,-1.06598,-2.56343,
2026_07_06_21_03_48.017,3.858,36.1,0,0.765,0,0,0,0, ,0,0,0,0,0, ,154.9,110.7,1004.3,-4.7,-0.3,-7.4,25,155.814,98.7929,980.438,-0.672551,-1.0254,-2.83379,
2026_07_06_21_03_48.026,3.858,36.2,0,0.765,0,0,0,0, ,0,0,0,0,0, ,154.9,111.6,959.9,-5,1.9,-7.4,25,155.758,99.5459,980.539,-0.927114,-0.914165,-3.11204,
2026_07_06_21_03_48.056,3.858,36.1,0,0.763,0,0,0,0, ,0,0,0,0,0, ,170.1,114.1,977,-0.2,0.8,-8.2,25,156.169,100.357,979.803,-1.02906,-0.776192,-3.39771,
2026_07_06_21_03_48.066,3.858,36.1,0,0.764,0,0,0,0, ,0,0,0,0,0, ,175.2,112.5,982.6,-2,2.3,-4.7,25,157.173,101.145,979.802,-1.03338,-0.63444,-3.58371,
2026_07_06_21_03_48.097,3.858,36.1,0,0.765,0,0,0,0, ,0,0,0,0,0, ,149.9,125,991,-0.5,0,-3.6,25,157.501,102.218,980.229,-1.04658,-0.525701,-3.61822,
2026_07_06_21_03_48.106,3.858,36.1,0,0.764,0,0,0,0, ,0,0,0,0,0, ,168.5,108,999.2,-1.5,0.4,-3.5,25,157.604,103.088,981.135,-1.04374,-0.481478,-3.61406,
2026_07_06_21_03_48.136,3.858,36.1,0,0.764,0,0,0,0, ,0,0,0,0,0, ,157.7,106.8,973.9,-2.2,0.2,-1.1,25,157.939,103.351,981.465,-1.09287,-0.433857,-3.53399,
2026_07_06_21_03_48.145,3.858,36.1,0,0.764,0,0,0,0, ,0,0,0,0,0, ,150.2,112,976.9,1.8,-0.4,-1.7,25,157.696,103.72,981.095,-1.03846,-0.413513,-3.40395,
2026_07_06_21_03_48.176,3.858,36.1,0,0.763,0,0,0,0, ,0,0,0,0,0, ,138.9,109.6,989.3,1.4,-0.1,-1.1,25,156.895,104.151,981.218,-0.877681,-0.403549,-3.28183,
2026_07_06_21_03_48.185,3.858,36.1,0,0.763,0,0,0,0, ,0,0,0,0,0, ,146.7,110.4,991.8,0.1,0.6,-2.1,25,156.036,104.508,981.786,-0.778495,-0.363723,-3.17935,
2026_07_06_21_03_48.216,3.858,36.1,0,0.763,0,0,0,0, ,0,0,0,0,0, ,142.8,109.4,995.9,0.2,0.5,-2.1,25,155.348,104.836,982.521,-0.721914,-0.308043,-3.11357,
2026_07_06_21_03_48.225,3.858,36.1,0,0.764,0,0,0,0, ,0,0,0,0,0, ,156.4,114.1,1001.9,-1.7,0.1,-3.2,25,154.998,105.258,983.519,-0.723626,-0.27099,-3.08532,
2026_07_06_21_03_48.256,3.858,36.1,0,0.764,0,0,0,0, ,0,0,0,0,0, ,164.4,113.8,984.6,-3,-1,-2.2,25,155.327,105.787,984.112,-0.822733,-0.281899,-3.06184,
2026_07_06_21_03_48.264,3.858,36.1,0,0.765,0,0,0,0, ,0,0,0,0,0, ,155,103.3,969.3,-1.1,-2.1,0.1,25,155.594,105.956,983.676,-0.89752,-0.359174,-2.93925,
2026_07_06_21_03_48.295,3.858,36.1,0,0.765,0,0,0,0, ,0,0,0,0,0, ,142,99.4,968.3,-0.2,-2,0.2,25,155.161,105.675,982.769,-0.882436,-0.462208,-2.751,
2026_07_06_21_03_48.304,3.858,36.1,0,0.766,0,0,0,0, ,0,0,0,0,0, ,143.1,101.3,990.3,-0.6,-0.9,-3.3,25,154.393,105.35,982.558,-0.853038,-0.522402,-2.67781,
2026_07_06_21_03_48.336,3.858,36.1,0,0.764,0,0,0,0, ,0,0,0,0,0, ,156.4,109.6,971.9,-3.8,0.7,-3.1,25,154.11,105.357,982.469,-0.935118,-0.496662,-2.70963,
2026_07_06_21_03_48.343,3.858,36.1,0,0.764,0,0,0,0, ,0,0,0,0,0, ,166.9,106.4,968.1,0.7,0.2,-2.2,25,154.569,105.518,981.709,-0.972588,-0.438975,-2.706,
2026_07_06_21_03_48.373,3.858,36.1,0,0.763,0,0,0,0, ,0,0,0,0,0, ,167.2,98.2,984.2,0.3,-1.8,-0.8,25,155.33,105.322,981.371,-0.882852,-0.460975,-2.63251,
2026_07_06_21_03_48.383,3.858,36.1,0,0.765,0,0,0,0, ,0,0,0,0,0, ,154.9,100,955,-1.1,-0.5,0,25,155.679,104.942,980.653,-0.853428,-0.502962,-2.49646,
2026_07_06_21_03_48.413,3.858,36.1,0,0.763,0,0,0,0, ,0,0,0,0,0, ,163.3,101.5,948.1,3.5,1.2,0,25,155.887,104.687,978.88,-0.728297,-0.450985,-2.34434,
2026_07_06_21_03_48.423,3.858,36.1,0,0.763,0,0,0,0, ,0,0,0,0,0, ,155,99.2,984.6,6.9,0.6,0.8,25,156.086,104.423,978.116,-0.367042,-0.368659,-2.1771,
2026_07_06_21_03_48.455,3.858,36.1,0,0.763,0,0,0,0, ,0,0,0,0,0, ,156.4,85.9,1021.3,3.2,0.6,-2,25,156.062,103.699,979.63,-0.0369408,-0.309631,-2.081,
2026_07_06_21_03_48.466,3.858,36.1,0,0.762,0,0,0,0, ,0,0,0,0,0, ,163.6,88.2,990.2,-4.4,0.5,-2.3,25,156.302,102.685,981.221,-0.0712523,-0.257248,-2.0852,
2026_07_06_21_03_48.498,3.858,36.1,0,0.764,0,0,0,0, ,0,0,0,0,0, ,138.5,115.1,951.1,-1.9,-0.4,-1.1,25,155.982,102.622,980.577,-0.258863,-0.238525,-2.06173,
2026_07_06_21_03_48.503,3.858,36.1,0,0.765,0,0,0,0, ,0,0,0,0,0, ,141.2,109.2,984.6,3.3,0,-3.8,25,154.999,103.202,979.802,-0.200433,-0.236177,-2.08539,
2026_07_06_21_03_48.534,3.858,36.1,0,0.763,0,0,0,0, ,0,0,0,0,0, ,165.7,92.4,1009.2,-1,2.2,-3.8,25,154.905,103.056,980.843,-0.118141,-0.154754,-2.18987,
2026_07_06_21_03_48.541,3.858,36.1,0,0.763,0,0,0,0, ,0,0,0,0,0, ,138.6,115.6,987.9,-3.3,0.6,-2.5,25,154.737,103.113,981.922,-0.241957,-0.060011,-2.24838,
2026_07_06_21_03_48.572,3.858,36.1,0,0.765,0,0,0,0, ,0,0,0,0,0, ,150.1,112.5,969.8,-1.7,1.6,-3.5,25,154.104,103.78,981.735,-0.379557,0.0106771,-2.29418,
2026_07_06_21_03_48.582,3.858,36.1,0,0.764,0,0,0,0, ,0,0,0,0,0, ,146.8,106.6,975.5,0.9,1.3,-2.3,25,153.759,104.131,981.182,-0.380802,0.0983858,-2.3311,
2026_07_06_21_03_48.614,3.858,36.1,0,0.764,0,0,0,0, ,0,0,0,0,0, ,149.7,105.4,1004.8,1.6,0,-3,25,153.424,104.245,981.728,-0.281425,0.132,-2.35053,
2026_07_06_21_03_48.621,3.858,36.1,0,0.764,0,0,0,0, ,0,0,0,0,0, ,137.3,112.6,994.2,-2.2,0.9,-1.8,25,152.819,104.535,982.811,-0.282557,0.151378,-2.35355,
2026_07_06_21_03_48.653,3.858,36.1,0,0.763,0,0,0,0, ,0,0,0,0,0, ,131.4,122.8,990.8,-2,-0.7,-3.7,25,151.694,105.337,983.402,-0.393308,0.148247,-2.37771,
2026_07_06_21_03_48.661,3.858,36.1,0,0.762,0,0,0,0, ,0,0,0,0,0, ,142.4,111,983.6,-3,0.3,-4.5,25,150.792,106.042,983.633,-0.521684,0.127026,-2.48266,
2026_07_06_21_03_48.693,3.858,36.1,0,0.765,0,0,0,0, ,0,0,0,0,0, ,147.2,116.8,993.4,-2.3,0.1,-6.5,25,150.427,106.521,983.93,-0.651378,0.131473,-2.66653,
2026_07_06_21_03_48.699,3.858,36.1,0,0.764,0,0,0,0, ,0,0,0,0,0, ,150,119.3,999.8,-2.5,1.9,-4.9,25,150.316,107.223,984.702,-0.757935,0.184399,-2.85138,
2026_07_06_21_03_48.732,3.858,36.1,0,0.764,0,0,0,0, ,0,0,0,0,0, ,145.7,121.2,982.7,-3.6,1.8,-1.3,25,150.165,108.017,985.101,-0.897608,0.285896,-2.86653,
2026_07_06_21_03_48.739,3.858,36.1,0,0.765,0,0,0,0, ,0,0,0,0,0, ,147.2,102.5,994.7,0.4,-1.5,-1.5,25,149.939,108.251,985.32,-0.94041,0.277615,-2.77716,
2026_07_06_21_03_48.771,3.858,36.1,0,0.764,0,0,0,0, ,0,0,0,0,0, ,145.7,87.6,1001.3,-1.8,-1.5,-1.3,25,149.726,107.446,986.093,-0.92576,0.169292,-2.69324,
2026_07_06_21_03_48.779,3.858,36.1,0,0.763,0,0,0,0, ,0,0,0,0,0, ,129.2,104,981.4,-3.7,-0.7,-0.1,25,148.978,106.737,986.413,-1.03692,0.0919441,-2.57178,
2026_07_06_21_03_48.812,3.858,36.1,0,0.763,0,0,0,0, ,0,0,0,0,0, ,155.7,89.5,953.4,-1.7,-1.2,-0.1,25,148.58,106.128,985.254,-1.13827,0.0284506,-2.42116,
2026_07_06_21_03_48.818,3.858,36.1,0,0.765,0,0,0,0, ,0,0,0,0,0, ,165.6,67.9,944.9,2.3,-4.2,2,25,149.316,104.457,983.054,-1.05062,-0.137814,-2.21573,
2026_07_06_21_03_48.853,3.858,36.1,0,0.765,0,0,0,0, ,0,0,0,0,0, ,152.5,77.8,973.8,5.5,-6.1,0.8,25,149.909,102.531,981.61,-0.748945,-0.443244,-1.99539,
2026_07_06_21_03_48.858,3.858,36.1,0,0.763,0,0,0,0, ,0,0,0,0,0, ,166.9,88.3,982.2,1.2,-2.9,0.1,25,150.506,101.343,981.39,-0.499166,-0.690453,-1.84638,
2026_07_06_21_03_48.889,3.858,36.1,0,0.763,0,0,0,0, ,0,0,0,0,0, ,166.8,91.4,938.5,-1,-3,1.4,25,151.502,100.643,980.108,-0.462654,-0.828144,-1.68816,
2026_07_06_21_03_48.898,3.858,36.1,0,0.766,0,0,0,0, ,0,0,0,0,0, ,175.5,84.7,924.3,3,-4.5,0,25,152.699,99.8757,977.14,-0.373523,-1.00619,-1.54263,
2026_07_06_21_03_48.931,3.858,36.1,0,0.763,0,0,0,0, ,0,0,0,0,0, ,171.6,83.3,921.3,4,-2.8,1.3,25,153.97,98.9083,973.828,-0.137481,-1.1673,-1.40902,
2026_07_06_21_03_48.938,3.858,36.1,0,0.763,0,0,0,0, ,0,0,0,0,0, ,184,94.6,901.4,3.3,-0.9,-0.5,25,155.422,98.3015,970.021,0.0933189,-1.2089,-1.29878,
2026_07_06_21_03_48.970,3.858,36.1,0,0.764,0,0,0,0, ,0,0,0,0,0, ,188.5,114.7,871.8,5.3,-0.3,0.1,25,157.3,98.6883,964.938,0.349664,-1.1718,-1.23182,
2026_07_06_21_03_48.977,3.858,36.1,0,0.763,0,0,0,0, ,0,0,0,0,0, ,186.5,119.1,863.2,7.7,0.4,-0.5,25,159.141,99.7981,959,0.72445,-1.09735,-1.16895,
2026_07_06_21_03_49.011,3.858,36.1,0,0.764,0,0,0,0, ,0,0,0,0,0, ,191.4,103.1,862.5,11.7,-1.5,-1.5,25,160.957,100.487,953.141,1.2714,-1.06399,-1.15865,
2026_07_06_21_03_49.017,3.858,36.1,0,0.764,0,0,0,0, ,0,0,0,0,0, ,196.7,94.2,880,10.4,-2.2,-4.2,25,162.974,100.375,948.151,1.86728,-1.11189,-1.26172,
2026_07_06_21_03_49.049,3.858,36.1,0,0.764,0,0,0,0, ,0,0,0,0,0, ,184.6,119.1,844.3,3.6,1.8,-5.8,25,164.66,100.757,942.91,2.18006,-1.05632,-1.48952,
2026_07_06_21_03_49.056,3.858,36.1,0,0.764,0,0,0,0, ,0,0,0,0,0, ,162.9,117.6,811.4,8.4,1.7,-10.8,25,165.214,101.829,935.899,2.41283,-0.88531,-1.90453,
2026_07_06_21_03_49.089,3.858,36.1,0,0.763,0,0,0,0, ,0,0,0,0,0, ,132.8,84.8,843.8,12.2,-5.2,-17.3,25,164.156,101.791,929.299,2.89346,-0.938002,-2.64465,
