UTC_Time,Vin,TC1,TC2,Rh1,Vh1,Ah1,Acp1,Dty1,Err1,Rh2,Vh2,Ah2,Acp2,Dty2,Err2,Accel_x,Accel_y,Accel_z,gyro_x,gyro_y,gyro_z,Temp_c,Accel_x_h,Accel_y_h,Accel_z_h,gyro_x_h,gyro_y_h,gyro_z_h,
2026_07_06_17_10_00.244,3.871,41.4,0,0.766,0,0,0,0, ,0,0,0,0,0, ,376.4,601.6,697.9,-0.4,-0.7,-1.5,25,376.4,601.6,697.9,-0.4,-0.7,-1.5,
2026_07_06_17_10_00.264,3.871,41.3,0,0.767,0,0,0,0, ,0,0,0,0,0, ,374.6,601.5,696.6,-0.5,-0.8,-1.6,25,376.345,601.597,697.86,-0.403047,-0.703047,-1.50305,
2026_07_06_17_10_00.283,3.871,41.3,0,0.767,0,0,0,0, ,0,0,0,0,0, ,375.8,603.2,697.6,-0.6,-0.3,-1.9,25,376.275,601.643,697.814,-0.412002,-0.693721,-1.5181,
2026_07_06_17_10_00.303,3.871,41.3,0,0.766,0,0,0,0, ,0,0,0,0,0, ,378.1,602.1,697.6,-0.4,-0.6,-1.8,25,376.316,601.704,697.801,-0.417364,-0.678869,-1.53832,
2026_07_06_17_10_00.329,3.871,41.3,0,0.768,0,0,0,0, ,0,0,0,0,0, ,378,602.4,697.1,-0.6,-0.5,-2,25,376.422,601.737,697.774,-0.4224,-0.671016,-1.56036,
2026_07_06_17_10_00.343,3.871,41.4,0,0.766,0,0,0,0, ,0,0,0,0,0, ,377.5,602.7,697.9,-0.4,-0.6,-1.8,25,376.503,601.787,697.757,-0.427129,-0.663642,-1.58106,
2026_07_06_17_10_00.363,3.871,41.3,0,0.768,0,0,0,0, ,0,0,0,0,0, ,377.8,600.5,697.3,-0.4,-0.7,-1.6,25,376.573,601.776,697.747,-0.425475,-0.66281,-1.58831,
2026_07_06_17_10_00.383,3.871,41.2,0,0.767,0,0,0,0, ,0,0,0,0,0, ,377.5,603.7,696.1,-0.4,-0.5,-1.6,25,376.639,601.795,697.683,-0.423923,-0.658983,-1.58902,
2026_07_06_17_10_00.402,3.871,41.2,0,0.768,0,0,0,0, ,0,0,0,0,0, ,374.7,604.8,696.2,-0.4,-0.5,-1.7,25,376.606,601.945,697.59,-0.422465,-0.649295,-1.59273,
2026_07_06_17_10_00.423,3.871,41.3,0,0.767,0,0,0,0, ,0,0,0,0,0, ,378.1,601.4,698.3,-0.5,-0.6,-1.9,25,376.593,602.015,697.569,-0.424143,-0.643244,-1.60536,
2026_07_06_17_10_00.443,3.871,41.3,0,0.767,0,0,0,0, ,0,0,0,0,0, ,378.2,599.8,696.1,-0.7,-0.6,-2.2,25,376.688,601.929,697.547,-0.434859,-0.640609,-1.63246,
2026_07_06_17_10_00.462,3.871,41.3,0,0.766,0,0,0,0, ,0,0,0,0,0, ,380.6,603.3,696.6,-0.6,-0.4,-2,25,376.853,601.906,697.474,-0.44797,-0.63204,-1.66095,
2026_07_06_17_10_00.483,3.871,41.4,0,0.767,0,0,0,0, ,0,0,0,0,0, ,375.8,603.8,695.6,-0.5,-0.2,-1.7,25,376.935,602.006,697.39,-0.454187,-0.611807,-1.67247,
2026_07_06_17_10_00.501,3.871,41.2,0,0.767,0,0,0,0, ,0,0,0,0,0, ,375,604.2,698.8,-0.5,-0.3,-1.9,25,376.842,602.128,697.379,-0.456979,-0.589759,-1.68024,
2026_07_06_17_10_00.521,3.871,41.3,0,0.768,0,0,0,0, ,0,0,0,0,0, ,377.1,602.1,697.7,-0.4,-0.6,-1.7,25,376.794,602.19,697.432,-0.456553,-0.581243,-1.68754,
2026_07_06_17_10_00.541,3.871,41.2,0,0.768,0,0,0,0, ,0,0,0,0,0, ,376.8,600.5,695.9,-0.5,-0.7,-1.8,25,376.803,602.136,697.393,-0.456154,-0.585432,-1.69135,
2026_07_06_17_10_00.561,3.871,41.3,0,0.768,0,0,0,0, ,0,0,0,0,0, ,378,604.9,697.2,-0.5,-0.5,-1.9,25,376.839,602.17,697.342,-0.458826,-0.58632,-1.70101,
2026_07_06_17_10_00.581,3.871,41.3,0,0.768,0,0,0,0, ,0,0,0,0,0, ,377.4,601.5,696.8,-0.5,-0.9,-1.8,25,376.892,602.233,697.321,-0.461335,-0.593248,-1.71009,
2026_07_06_17_10_00.600,3.871,41.2,0,0.768,0,0,0,0, ,0,0,0,0,0, ,377.1,605.3,697.6,-0.5,-0.8,-1.9,25,376.914,602.304,697.314,-0.463691,-0.608893,-1.71862,
2026_07_06_17_10_00.620,3.871,41.3,0,0.767,0,0,0,0, ,0,0,0,0,0, ,376.3,603.2,696.5,-0.3,-0.9,-1.5,25,376.901,602.423,697.298,-0.45981,-0.623586,-1.71748,
2026_07_06_17_10_00.640,3.871,41.3,0,0.768,0,0,0,0, ,0,0,0,0,0, ,375,600.8,695.3,-0.5,-0.4,-1.8,25,376.824,602.397,697.212,-0.456165,-0.625195,-1.71337,
2026_07_06_17_10_00.659,3.871,41.3,0,0.766,0,0,0,0, ,0,0,0,0,0, ,377.5,604.2,698.7,-0.4,-0.4,-2,25,376.789,602.403,697.199,-0.45579,-0.611473,-1.72474,
2026_07_06_17_10_00.679,3.871,41.2,0,0.767,0,0,0,0, ,0,0,0,0,0, ,376.9,603.5,697.1,-0.3,-0.7,-1.8,25,376.815,602.491,697.242,-0.449343,-0.607727,-1.73542,
2026_07_06_17_10_00.699,3.871,41.3,0,0.766,0,0,0,0, ,0,0,0,0,0, ,377.8,603,695.8,-0.6,-0.5,-1.8,25,376.847,602.538,697.194,-0.449383,-0.607256,-1.73936,
2026_07_06_17_10_00.719,3.871,41.3,0,0.766,0,0,0,0, ,0,0,0,0,0, ,378.7,602.1,697,-0.7,-0.3,-1.7,25,376.933,602.538,697.145,-0.461608,-0.594626,-1.74001,
2026_07_06_17_10_00.740,3.871,41.2,0,0.767,0,0,0,0, ,0,0,0,0,0, ,377.4,598,696.8,-0.6,-0.3,-1.8,25,377.001,602.387,697.131,-0.473088,-0.576672,-1.74062,
2026_07_06_17_10_00.759,3.871,41.3,0,0.766,0,0,0,0, ,0,0,0,0,0, ,375.9,601.1,698.7,-0.4,-0.7,-1.8,25,376.979,602.214,697.168,-0.474728,-0.572,-1.74423,
2026_07_06_17_10_00.779,3.871,41.3,0,0.768,0,0,0,0, ,0,0,0,0,0, ,376.9,603.1,697.1,-0.5,-1,-1.9,25,376.944,602.207,697.213,-0.473221,-0.588941,-1.75068,
2026_07_06_17_10_00.799,3.871,41.2,0,0.766,0,0,0,0, ,0,0,0,0,0, ,378.9,605.4,695.6,-0.5,-0.8,-1.8,25,377.002,602.331,697.16,-0.474853,-0.607896,-1.75673,
2026_07_06_17_10_00.818,3.871,41.1,0,0.767,0,0,0,0, ,0,0,0,0,0, ,378.6,603.1,694.3,-0.6,-0.5,-1.5,25,377.109,602.448,697.026,-0.479432,-0.610462,-1.75023,
2026_07_06_17_10_00.838,3.871,41.3,0,0.768,0,0,0,0, ,0,0,0,0,0, ,376.9,601.1,698.3,-0.6,-0.5,-1.7,25,377.148,602.427,696.981,-0.48678,-0.60373,-1.74107,
2026_07_06_17_10_00.861,3.871,41.3,0,0.767,0,0,0,0, ,0,0,0,0,0, ,377,602.2,697.6,-0.5,-0.3,-2,25,377.136,602.38,697.04,-0.490632,-0.591316,-1.74771,
2026_07_06_17_10_00.877,3.871,41.2,0,0.767,0,0,0,0, ,0,0,0,0,0, ,376.9,602.1,698.4,-0.4,-0.7,-1.9,25,377.124,602.366,697.099,-0.488156,-0.585751,-1.76004,
2026_07_06_17_10_00.898,3.871,41.2,0,0.768,0,0,0,0, ,0,0,0,0,0, ,378.5,605.4,695.8,-0.5,-0.8,-1.6,25,377.16,602.45,697.099,-0.485831,-0.59576,-1.75943,
2026_07_06_17_10_00.918,3.871,41.3,0,0.77,0,0,0,0, ,0,0,0,0,0, ,375.3,605.4,696.1,-0.5,-0.7,-1.5,25,377.144,602.63,697.029,-0.486694,-0.605159,-1.74666,
2026_07_06_17_10_00.938,3.871,41.2,0,0.767,0,0,0,0, ,0,0,0,0,0, ,376.2,604.6,694.9,-0.5,-0.7,-1.6,25,377.059,602.774,696.936,-0.487505,-0.610938,-1.73468,
2026_07_06_17_10_00.957,3.871,41.1,0,0.768,0,0,0,0, ,0,0,0,0,0, ,375.8,600.9,696.1,-0.6,-0.4,-1.8,25,376.994,602.773,696.848,-0.491313,-0.607225,-1.73257,
2026_07_06_17_10_00.977,3.871,41.2,0,0.767,0,0,0,0, ,0,0,0,0,0, ,379.5,602.7,697.5,-0.6,-0.5,-1.9,25,377.034,602.713,696.845,-0.497937,-0.597644,-1.73972,
2026_07_06_17_10_00.999,3.871,41.2,0,0.767,0,0,0,0, ,0,0,0,0,0, ,377.4,603.6,696.5,-0.6,-0.4,-2,25,377.121,602.74,696.855,-0.504156,-0.588647,-1.75254,
2026_07_06_17_10_01.016,3.871,41.3,0,0.768,0,0,0,0, ,0,0,0,0,0, ,376.9,604.3,696.8,-0.5,-0.5,-1.7,25,377.122,602.814,696.842,-0.50695,-0.580198,-1.75848,
2026_07_06_17_10_01.036,3.871,41.2,0,0.769,0,0,0,0, ,0,0,0,0,0, ,375.8,602.2,696.6,-0.5,-0.6,-1.8,25,377.075,602.84,696.834,-0.506526,-0.578358,-1.75796,
2026_07_06_17_10_01.056,3.871,41.2,0,0.767,0,0,0,0, ,0,0,0,0,0, ,377.4,603.7,696.1,-0.4,-0.4,-2.1,25,377.046,602.847,696.804,-0.503082,-0.573583,-1.76966,
2026_07_06_17_10_01.075,3.871,41.2,0,0.767,0,0,0,0, ,0,0,0,0,0, ,377.8,603.7,698.2,-0.3,-0.8,-1.7,25,377.08,602.899,696.825,-0.493753,-0.575193,-1.7776,
2026_07_06_17_10_01.095,3.871,41.2,0,0.768,0,0,0,0, ,0,0,0,0,0, ,376.8,600.8,696.7,-0.4,-0.7,-1.8,25,377.093,602.86,696.863,-0.484993,-0.585845,-1.77592,
2026_07_06_17_10_01.115,3.871,41.2,0,0.767,0,0,0,0, ,0,0,0,0,0, ,379.5,604.4,696.5,-0.6,-0.5,-1.7,25,377.158,602.844,696.847,-0.485908,-0.586708,-1.77434,
2026_07_06_17_10_01.136,3.871,41.3,0,0.768,0,0,0,0, ,0,0,0,0,0, ,377.6,601.8,696.5,-0.5,-0.4,-1.7,25,377.243,602.859,696.826,-0.489813,-0.578377,-1.76981,
2026_07_06_17_10_01.155,3.871,41.2,0,0.767,0,0,0,0, ,0,0,0,0,0, ,377.6,601.4,698.3,-0.4,-0.6,-1.7,25,377.264,602.783,696.861,-0.487387,-0.573601,-1.76556,
2026_07_06_17_10_01.175,3.871,41.2,0,0.767,0,0,0,0, ,0,0,0,0,0, ,375.4,600.2,698.4,-0.1,-0.9,-1.7,25,377.218,602.662,696.952,-0.472921,-0.58435,-1.76156,
2026_07_06_17_10_01.195,3.871,41.1,0,0.769,0,0,0,0, ,0,0,0,0,0, ,377.5,604,696.4,-0.4,-0.8,-1.9,25,377.171,602.628,696.979,-0.459337,-0.600538,-1.76391,
2026_07_06_17_10_01.214,3.871,41.2,0,0.768,0,0,0,0, ,0,0,0,0,0, ,380.1,605.5,695.6,-0.4,-0.5,-1.7,25,377.27,602.757,696.919,-0.455721,-0.603552,-1.76611,
2026_07_06_17_10_01.234,3.871,41.2,0,0.767,0,0,0,0, ,0,0,0,0,0, ,378.7,602.1,694.8,-0.6,-0.3,-1.7,25,377.4,602.82,696.815,-0.45842,-0.591148,-1.76208,
2026_07_06_17_10_01.254,3.871,41.1,0,0.767,0,0,0,0, ,0,0,0,0,0, ,377.1,603,697.2,-0.7,-0.3,-2,25,377.431,602.804,696.765,-0.470094,-0.573407,-1.76743,
2026_07_06_17_10_01.274,3.871,41.2,0,0.767,0,0,0,0, ,0,0,0,0,0, ,378.6,602.4,696.1,-0.8,-0.6,-1.9,25,377.456,602.798,696.758,-0.487151,-0.565886,-1.77856,
2026_07_06_17_10_01.292,3.871,41.2,0,0.768,0,0,0,0, ,0,0,0,0,0, ,378.6,603.1,696,-0.5,-0.5,-1.8,25,377.526,602.795,696.715,-0.497074,-0.564918,-1.78291,
2026_07_06_17_10_01.313,3.871,41.2,0,0.767,0,0,0,0, ,0,0,0,0,0, ,376.9,602.7,697.2,-0.5,-0.7,-1.7,25,377.539,602.801,696.708,-0.497253,-0.567056,-1.78091,
2026_07_06_17_10_01.333,3.871,41.1,0,0.767,0,0,0,0, ,0,0,0,0,0, ,377,604.6,696.8,-0.4,-0.7,-1.7,25,377.504,602.853,696.726,-0.494373,-0.575157,-1.77598,
2026_07_06_17_10_01.353,3.871,41.2,0,0.767,0,0,0,0, ,0,0,0,0,0, ,377.4,605.3,693.4,-0.5,-0.2,-1.9,25,377.485,602.981,696.627,-0.491669,-0.567531,-1.77744,
2026_07_06_17_10_01.373,3.871,41.2,0,0.766,0,0,0,0, ,0,0,0,0,0, ,378.5,603.1,695.6,-0.6,-0.2,-2,25,377.513,603.055,696.497,-0.495224,-0.545134,-1.78796,
2026_07_06_17_10_01.393,3.871,41.2,0,0.767,0,0,0,0, ,0,0,0,0,0, ,377.9,600.3,697.6,-0.9,-0.3,-2,25,377.555,602.972,696.503,-0.510749,-0.52715,-1.80088,
2026_07_06_17_10_01.411,3.871,41.2,0,0.767,0,0,0,0, ,0,0,0,0,0, ,379.6,602.4,697.8,-0.7,-0.3,-1.9,25,377.628,602.874,696.576,-0.528375,-0.513308,-1.80996,
2026_07_06_17_10_01.432,3.871,41.1,0,0.767,0,0,0,0, ,0,0,0,0,0, ,376.3,601.6,699.3,-0.4,-0.5,-1.7,25,377.648,602.82,696.696,-0.529693,-0.506403,-1.80936,
2026_07_06_17_10_01.452,3.871,41.2,0,0.768,0,0,0,0, ,0,0,0,0,0, ,376.3,603.2,697.5,-0.6,-0.4,-1.8,25,377.566,602.795,696.8,-0.527884,-0.502966,-1.80574,
2026_07_06_17_10_01.471,3.871,41.1,0,0.767,0,0,0,0, ,0,0,0,0,0, ,376.8,603.7,697.8,-0.3,-0.7,-1.8,25,377.504,602.835,696.852,-0.523138,-0.505832,-1.80539,
2026_07_06_17_10_01.492,3.871,41.2,0,0.766,0,0,0,0, ,0,0,0,0,0, ,378.2,603,694.9,-0.5,-0.6,-1.8,25,377.503,602.866,696.821,-0.515634,-0.514617,-1.80506,
2026_07_06_17_10_01.511,3.871,41.1,0,0.767,0,0,0,0, ,0,0,0,0,0, ,377.1,603.8,697.9,-0.5,-0.4,-1.9,25,377.512,602.899,696.796,-0.514681,-0.513726,-1.8078,
2026_07_06_17_10_01.530,3.871,41.1,0,0.767,0,0,0,0, ,0,0,0,0,0, ,376.9,602.6,697.8,-0.5,-0.7,-1.9,25,377.481,602.917,696.86,-0.513787,-0.515937,-1.81342,
2026_07_06_17_10_01.551,3.871,41.1,0,0.767,0,0,0,0, ,0,0,0,0,0, ,377.5,601.8,696.6,-0.4,-0.9,-1.8,25,377.464,602.873,696.881,-0.5099,-0.533247,-1.81565,
2026_07_06_17_10_01.571,3.871,41.2,0,0.767,0,0,0,0, ,0,0,0,0,0, ,377.6,604.2,696,-0.5,-0.6,-1.8,25,377.469,602.881,696.845,-0.506249,-0.546455,-1.81469,
2026_07_06_17_10_01.590,3.871,41.2,0,0.768,0,0,0,0, ,0,0,0,0,0, ,378.2,603,694.7,-0.4,-0.7,-1.7,25,377.495,602.925,696.754,-0.502822,-0.552765,-1.81075,
2026_07_06_17_10_01.611,3.871,41.2,0,0.766,0,0,0,0, ,0,0,0,0,0, ,377.5,601.1,695.8,-0.3,-0.6,-1.7,25,377.517,602.871,696.663,-0.493509,-0.55869,-1.804,
2026_07_06_17_10_01.630,3.871,41.1,0,0.769,0,0,0,0, ,0,0,0,0,0, ,378,604.8,696.5,-0.3,-0.5,-2,25,377.531,602.876,696.631,-0.481717,-0.558161,-1.80681,
2026_07_06_17_10_01.650,3.871,41.1,0,0.767,0,0,0,0, ,0,0,0,0,0, ,378.2,603,696,-0.4,-0.7,-1.8,25,377.566,602.939,696.608,-0.473691,-0.56071,-1.81249,
2026_07_06_17_10_01.669,3.871,41.1,0,0.768,0,0,0,0, ,0,0,0,0,0, ,378.7,603.3,696.6,-0.7,-0.5,-2,25,377.62,602.952,696.589,-0.478341,-0.563105,-1.81782,
2026_07_06_17_10_01.689,3.871,41.1,0,0.767,0,0,0,0, ,0,0,0,0,0, ,377.4,603.1,697,-0.8,-0.4,-2,25,377.646,602.967,696.602,-0.494895,-0.556212,-1.82892,
2026_07_06_17_10_01.711,3.871,41.2,0,0.766,0,0,0,0, ,0,0,0,0,0, ,377.3,601.5,697.3,-0.6,-0.4,-1.9,25,377.628,602.926,696.636,-0.507394,-0.546693,-1.8363,
2026_07_06_17_10_01.728,3.871,41.1,0,0.767,0,0,0,0, ,0,0,0,0,0, ,378.6,602.2,697,-0.3,-0.9,-1.8,25,377.648,602.86,696.667,-0.503896,-0.552988,-1.83713,
2026_07_06_17_10_01.749,3.871,41.1,0,0.767,0,0,0,0, ,0,0,0,0,0, ,377.9,602.4,694.7,-0.6,-0.9,-1.7,25,377.684,602.826,696.617,-0.500612,-0.574134,-1.83182,
2026_07_06_17_10_01.768,3.871,41.2,0,0.767,0,0,0,0, ,0,0,0,0,0, ,377.3,605.3,694.2,-0.8,-0.2,-1.8,25,377.679,602.889,696.485,-0.512762,-0.572664,-1.82684,
2026_07_06_17_10_01.788,3.871,41.1,0,0.767,0,0,0,0, ,0,0,0,0,0, ,376,605.3,697.3,-0.6,-0.3,-1.6,25,377.616,603.036,696.44,-0.524172,-0.553001,-1.81911,
2026_07_06_17_10_01.808,3.871,41.1,0,0.768,0,0,0,0, ,0,0,0,0,0, ,374.2,601.4,697.6,-0.3,-0.5,-1.9,25,377.463,603.055,696.502,-0.519652,-0.543678,-1.8149,
2026_07_06_17_10_01.828,3.871,41,0,0.769,0,0,0,0, ,0,0,0,0,0, ,377.4,603,697.5,-0.3,-0.8,-1.8,25,377.362,603.003,696.566,-0.506267,-0.550157,-1.81704,
2026_07_06_17_10_01.848,3.871,41.1,0,0.767,0,0,0,0, ,0,0,0,0,0, ,379.2,602.1,696.1,-0.3,-0.9,-1.8,25,377.419,602.975,696.58,-0.493698,-0.568429,-1.816,
2026_07_06_17_10_01.867,3.871,41.1,0,0.769,0,0,0,0, ,0,0,0,0,0, ,378.4,602.1,694.8,-0.5,-0.6,-1.8,25,377.503,602.922,696.511,-0.487988,-0.579493,-1.81502,
2026_07_06_17_10_01.887,3.871,41.1,0,0.767,0,0,0,0, ,0,0,0,0,0, ,378.2,604.2,695.3,-0.6,-0.4,-1.8,25,377.552,602.936,696.422,-0.491767,-0.574649,-1.81411,
2026_07_06_17_10_01.907,3.871,41.1,0,0.768,0,0,0,0, ,0,0,0,0,0, ,377.6,603.5,695.8,-0.7,-0.4,-1.7,25,377.573,602.991,696.369,-0.501409,-0.564006,-1.8102,
2026_07_06_17_10_01.927,3.871,41.1,0,0.768,0,0,0,0, ,0,0,0,0,0, ,377.5,602.9,697.6,-0.5,-0.5,-1.7,25,377.572,603.004,696.389,-0.507417,-0.557059,-1.80349,
2026_07_06_17_10_01.947,3.871,41.1,0,0.768,0,0,0,0, ,0,0,0,0,0, ,378.1,602.6,697.9,-0.4,-0.6,-1.8,25,377.585,602.989,696.472,-0.503918,-0.556629,-1.80023,
2026_07_06_17_10_01.967,3.871,41.1,0,0.768,0,0,0,0, ,0,0,0,0,0, ,376.7,604.1,696.2,-0.3,-0.6,-1.7,25,377.574,603.011,696.507,-0.494539,-0.559272,-1.79717,
2026_07_06_17_10_01.988,3.871,41.1,0,0.768,0,0,0,0, ,0,0,0,0,0, ,378,604.3,695.1,-0.4,-0.4,-1.9,25,377.56,603.083,696.455,-0.485731,-0.55566,-1.79734,
2026_07_06_17_10_02.008,3.871,41.1,0,0.767,0,0,0,0, ,0,0,0,0,0, ,377.5,603.6,695.9,-0.5,-0.4,-1.8,25,377.572,603.136,696.397,-0.483554,-0.546174,-1.80055,
2026_07_06_17_10_02.026,3.871,41.1,0,0.767,0,0,0,0, ,0,0,0,0,0, ,379,603.1,698.1,-0.6,-0.7,-1.7,25,377.613,603.149,696.434,-0.487603,-0.546408,-1.79747,
2026_07_06_17_10_02.045,3.871,41.1,0,0.769,0,0,0,0, ,0,0,0,0,0, ,375.8,600.8,695.8,-0.4,-0.5,-1.8,25,377.6,603.076,696.465,-0.488358,-0.549673,-1.79457,
2026_07_06_17_10_02.066,3.871,41.1,0,0.768,0,0,0,0, ,0,0,0,0,0, ,377.1,603.8,697.8,-0.4,-0.6,-1.7,25,377.53,603.029,696.485,-0.482974,-0.549693,-1.79186,
2026_07_06_17_10_02.085,3.871,41,0,0.767,0,0,0,0, ,0,0,0,0,0, ,375.2,602.2,695.6,-0.3,-0.5,-1.9,25,377.446,603.027,696.499,-0.474871,-0.549712,-1.79235,
2026_07_06_17_10_02.105,3.871,41.1,0,0.767,0,0,0,0, ,0,0,0,0,0, ,378.9,604.1,695.5,-0.5,-0.5,-1.8,25,377.422,603.034,696.441,-0.470308,-0.546683,-1.79587,
2026_07_06_17_10_02.124,3.871,41.1,0,0.768,0,0,0,0, ,0,0,0,0,0, ,377.9,601.3,694.3,-0.6,-0.5,-2,25,377.482,603.014,696.347,-0.475165,-0.543838,-1.80221,
2026_07_06_17_10_02.144,3.871,41.1,0,0.768,0,0,0,0, ,0,0,0,0,0, ,379,602.5,696.7,-0.6,-0.5,-1.9,25,377.541,602.946,696.295,-0.482772,-0.541167,-1.81122,
2026_07_06_17_10_02.165,3.871,41.1,0,0.767,0,0,0,0, ,0,0,0,0,0, ,377.9,602.5,696,-0.7,-0.6,-1.7,25,377.596,602.919,696.299,-0.492962,-0.541705,-1.81054,
2026_07_06_17_10_02.184,3.871,41.1,0,0.767,0,0,0,0, ,0,0,0,0,0, ,377.1,604.6,696.5,-0.6,-0.6,-1.5,25,377.59,602.957,696.296,-0.502532,-0.545257,-1.79771,
2026_07_06_17_10_02.204,3.871,41.1,0,0.766,0,0,0,0, ,0,0,0,0,0, ,373.9,601.4,695,-0.6,-0.5,-1.7,25,377.463,602.96,696.262,-0.508471,-0.545546,-1.78566,
2026_07_06_17_10_02.225,3.871,41.1,0,0.768,0,0,0,0, ,0,0,0,0,0, ,378,604.7,696.1,-0.6,-0.5,-1.9,25,377.371,602.965,696.219,-0.514049,-0.542771,-1.78653,
2026_07_06_17_10_02.244,3.871,41,0,0.768,0,0,0,0, ,0,0,0,0,0, ,379.2,603.2,696.4,-0.5,-0.6,-1.9,25,377.446,603.025,696.221,-0.516239,-0.543211,-1.79345,
2026_07_06_17_10_02.264,3.871,41.1,0,0.768,0,0,0,0, ,0,0,0,0,0, ,378.6,602.1,694.9,-0.6,-0.5,-1.9,25,377.534,603.003,696.186,-0.518297,-0.543625,-1.79994,
2026_07_06_17_10_02.284,3.871,41.1,0,0.771,0,0,0,0, ,0,0,0,0,0, ,380,603.2,695.9,-0.7,-0.4,-1.7,25,377.642,602.981,696.138,-0.526322,-0.53792,-1.79994,
2026_07_06_17_10_02.303,3.871,41.1,0,0.768,0,0,0,0, ,0,0,0,0,0, ,378,601.4,696.5,-0.6,-0.5,-1.6,25,377.725,602.94,696.142,-0.533859,-0.532562,-1.79081,
2026_07_06_17_10_02.323,3.871,41,0,0.768,0,0,0,0, ,0,0,0,0,0, ,376,603.8,695.9,-0.5,-0.6,-1.8,25,377.68,602.919,696.145,-0.534843,-0.533625,-1.78527,
2026_07_06_17_10_02.343,3.871,41,0,0.766,0,0,0,0, ,0,0,0,0,0, ,376.3,605.5,693.9,-0.4,-0.7,-1.8,25,377.587,603.024,696.07,-0.529672,-0.540716,-1.78617,
2026_07_06_17_10_02.363,3.871,41,0,0.767,0,0,0,0, ,0,0,0,0,0, ,376.2,604.9,695.4,-0.3,-0.2,-1.8,25,377.506,603.157,695.983,-0.518724,-0.535188,-1.78701,
2026_07_06_17_10_02.382,3.871,41,0,0.767,0,0,0,0, ,0,0,0,0,0, ,378.9,604.2,695.8,-0.6,-0.4,-1.8,25,377.508,603.242,695.96,-0.514536,-0.520856,-1.7878,
2026_07_06_17_10_02.402,3.871,41,0,0.768,0,0,0,0, ,0,0,0,0,0, ,378.1,599.4,694.8,-0.7,-0.4,-1.9,25,377.569,603.154,695.92,-0.522791,-0.513492,-1.79159,
2026_07_06_17_10_02.421,3.871,41.1,0,0.768,0,0,0,0, ,0,0,0,0,0, ,379,601.4,697.6,-0.6,-0.3,-2,25,377.629,602.986,695.937,-0.530543,-0.503529,-1.80125,
2026_07_06_17_10_02.442,3.871,41.1,0,0.768,0,0,0,0, ,0,0,0,0,0, ,376.7,603.7,697.1,-0.4,-0.5,-1.7,25,377.642,602.96,696.023,-0.528681,-0.49722,-1.80422,
2026_07_06_17_10_02.462,3.871,41,0,0.767,0,0,0,0, ,0,0,0,0,0, ,376.2,601.3,697.5,-0.6,-0.5,-2,25,377.569,602.932,696.101,-0.526934,-0.49739,-1.80701,
2026_07_06_17_10_02.482,3.871,41,0,0.768,0,0,0,0, ,0,0,0,0,0, ,377.5,603,696.7,-0.5,-0.4,-2,25,377.526,602.884,696.161,-0.528339,-0.494502,-1.81877,
2026_07_06_17_10_02.501,3.871,41,0,0.767,0,0,0,0, ,0,0,0,0,0, ,379.1,603.3,697.1,-0.4,-0.6,-1.7,25,377.573,602.9,696.206,-0.523565,-0.494837,-1.82067,
2026_07_06_17_10_02.521,3.871,41,0,0.768,0,0,0,0, ,0,0,0,0,0, ,377.4,602.4,696.8,-0.4,-0.6,-1.7,25,377.614,602.897,696.252,-0.516036,-0.501245,-1.81332,
2026_07_06_17_10_02.543,3.871,41,0,0.768,0,0,0,0, ,0,0,0,0,0, ,375.7,604.3,697.5,-0.5,-0.8,-1.8,25,377.549,602.925,696.307,-0.512012,-0.513357,-1.80946,
2026_07_06_17_10_02.561,3.871,41,0,0.766,0,0,0,0, ,0,0,0,0,0, ,374.5,601,694.4,-0.6,-0.6,-2,25,377.4,602.908,696.285,-0.514326,-0.52473,-1.81498,
2026_07_06_17_10_02.581,3.871,41,0,0.766,0,0,0,0, ,0,0,0,0,0, ,378,604.3,697,-0.6,-0.3,-2.1,25,377.33,602.892,696.249,-0.519547,-0.520177,-1.8293,
2026_07_06_17_10_02.601,3.871,41,0,0.767,0,0,0,0, ,0,0,0,0,0, ,378.5,603.6,697,-0.4,-0.6,-1.6,25,377.386,602.957,696.295,-0.518356,-0.5159,-1.83056,
2026_07_06_17_10_02.621,3.871,41,0,0.768,0,0,0,0, ,0,0,0,0,0, ,375.6,600.9,694.2,-0.5,-0.6,-1.7,25,377.365,602.914,696.253,-0.514191,-0.521025,-1.81956,
2026_07_06_17_10_02.640,3.871,41.1,0,0.768,0,0,0,0, ,0,0,0,0,0, ,377,603.2,694,-0.6,-0.4,-2.1,25,377.301,602.861,696.121,-0.516373,-0.519744,-1.82446,
2026_07_06_17_10_02.660,3.871,41.1,0,0.768,0,0,0,0, ,0,0,0,0,0, ,378.7,605.9,695.6,-0.6,-0.3,-2,25,377.334,602.964,696.041,-0.521469,-0.5094,-1.8382,
2026_07_06_17_10_02.679,3.871,41,0,0.768,0,0,0,0, ,0,0,0,0,0, ,378.2,603.6,698.1,-0.7,-0.4,-1.7,25,377.402,603.073,696.09,-0.529301,-0.499687,-1.83892,
2026_07_06_17_10_02.701,3.871,41,0,0.767,0,0,0,0, ,0,0,0,0,0, ,377.5,603.3,697.7,-0.7,-0.4,-2,25,377.429,603.096,696.2,-0.539703,-0.493612,-1.8396,
2026_07_06_17_10_02.720,3.871,41,0,0.767,0,0,0,0, ,0,0,0,0,0, ,377.3,600,696.6,-0.5,-0.5,-1.8,25,377.428,603.008,696.258,-0.543377,-0.490954,-1.84328,
2026_07_06_17_10_02.738,3.871,41,0,0.769,0,0,0,0, ,0,0,0,0,0, ,378.7,602.2,698.1,-0.7,-0.7,-1.7,25,377.462,602.891,696.325,-0.546828,-0.497599,-1.83759,
2026_07_06_17_10_02.758,3.871,41.1,0,0.766,0,0,0,0, ,0,0,0,0,0, ,377.5,603.2,696.4,-0.4,-0.5,-1.8,25,377.501,602.88,696.381,-0.547021,-0.503839,-1.83226,
2026_07_06_17_10_02.778,3.871,41,0,0.767,0,0,0,0, ,0,0,0,0,0, ,376.8,604.1,696.4,-0.5,-0.6,-1.7,25,377.48,602.927,696.382,-0.541109,-0.506652,-1.82724,
2026_07_06_17_10_02.798,3.871,41,0,0.77,0,0,0,0, ,0,0,0,0,0, ,376.4,603.5,696,-0.6,-0.5,-1.8,25,377.426,602.98,696.371,-0.541651,-0.509294,-1.82254,
2026_07_06_17_10_02.818,3.871,41,0,0.767,0,0,0,0, ,0,0,0,0,0, ,377.5,602.1,696.8,-0.6,-0.4,-1.8,25,377.397,602.969,696.373,-0.545206,-0.505681,-1.82116,
2026_07_06_17_10_02.838,3.871,41,0,0.766,0,0,0,0, ,0,0,0,0,0, ,377.9,603.1,697,-0.5,-0.5,-1.7,25,377.416,602.946,696.405,-0.545499,-0.502288,-1.81683,
2026_07_06_17_10_02.858,3.871,41,0,0.766,0,0,0,0, ,0,0,0,0,0, ,375.4,601.4,696.2,-0.5,-0.5,-1.7,25,377.369,602.904,696.417,-0.542726,-0.502148,-1.80971,
2026_07_06_17_10_02.880,3.871,41.1,0,0.769,0,0,0,0, ,0,0,0,0,0, ,376,605.7,695,-0.5,-0.4,-1.8,25,377.267,602.943,696.367,-0.540122,-0.49897,-1.80607,
2026_07_06_17_10_02.898,3.871,41,0,0.768,0,0,0,0, ,0,0,0,0,0, ,375.9,602.2,696.6,-0.5,-0.6,-1.7,25,377.187,603.005,696.333,-0.537677,-0.499033,-1.80265,
2026_07_06_17_10_02.921,3.871,40.9,0,0.766,0,0,0,0, ,0,0,0,0,0, ,375.3,602.7,697.2,-0.7,-0.6,-1.9,25,377.09,602.971,696.367,-0.541475,-0.505186,-1.80249,
2026_07_06_17_10_02.938,3.871,41,0,0.766,0,0,0,0, ,0,0,0,0,0, ,377.6,604,695.9,-0.7,-0.5,-2,25,377.051,602.994,696.378,-0.551135,-0.507917,-1.81148,
2026_07_06_17_10_02.956,3.871,41,0,0.767,0,0,0,0, ,0,0,0,0,0, ,379.2,602.1,694.9,-0.5,-0.5,-1.8,25,377.133,602.997,696.319,-0.554113,-0.507434,-1.81687,
2026_07_06_17_10_02.977,3.871,40.9,0,0.766,0,0,0,0, ,0,0,0,0,0, ,376.8,604,698.2,-0.5,-0.3,-1.7,25,377.186,603.001,696.333,-0.550815,-0.500887,-1.8128,
2026_07_06_17_10_02.996,3.871,41,0,0.768,0,0,0,0, ,0,0,0,0,0, ,375.1,603.1,697.8,-0.5,-0.5,-1.8,25,377.111,603.034,696.434,-0.547719,-0.49474,-1.80897,
2026_07_06_17_10_03.016,3.871,41,0,0.767,0,0,0,0, ,0,0,0,0,0, ,376.4,603.6,697,-0.5,-0.6,-1.8,25,377.028,603.053,696.493,-0.544811,-0.498107,-1.80843,
2026_07_06_17_10_03.036,3.871,40.9,0,0.767,0,0,0,0, ,0,0,0,0,0, ,378.5,603.5,696.5,-0.6,-0.5,-1.8,25,377.054,603.084,696.509,-0.545127,-0.501269,-1.80791,
2026_07_06_17_10_03.056,3.871,41,0,0.767,0,0,0,0, ,0,0,0,0,0, ,376,602.9,694.4,-0.5,-0.5,-1.7,25,377.066,603.091,696.444,-0.545424,-0.501192,-1.80438,
2026_07_06_17_10_03.075,3.871,40.9,0,0.767,0,0,0,0, ,0,0,0,0,0, ,378.4,602.9,696.5,-0.5,-0.4,-1.8,25,377.074,603.079,696.384,-0.542656,-0.498072,-1.80107,
2026_07_06_17_10_03.096,3.871,41,0,0.766,0,0,0,0, ,0,0,0,0,0, ,375.9,601.8,697.5,-0.5,-0.5,-1.8,25,377.079,603.035,696.421,-0.540057,-0.495143,-1.801,
2026_07_06_17_10_03.116,3.871,41,0,0.768,0,0,0,0, ,0,0,0,0,0, ,376.7,603.5,697.1,-0.5,-0.6,-1.9,25,377.031,603.011,696.475,-0.537616,-0.498486,-1.80399,
2026_07_06_17_10_03.135,3.871,41,0,0.767,0,0,0,0, ,0,0,0,0,0, ,377.4,603.3,695.8,-0.5,-0.5,-1.7,25,377.032,603.035,696.473,-0.535324,-0.501625,-1.80375,
2026_07_06_17_10_03.155,3.871,41,0,0.767,0,0,0,0, ,0,0,0,0,0, ,377.6,604.8,696.5,-0.5,-0.5,-1.7,25,377.061,603.097,696.454,-0.533171,-0.501526,-1.79742,
2026_07_06_17_10_03.175,3.871,40.9,0,0.767,0,0,0,0, ,0,0,0,0,0, ,376.7,601.8,695.1,-0.5,-0.4,-1.6,25,377.066,603.109,696.414,-0.53115,-0.498386,-1.78844,
2026_07_06_17_10_03.194,3.871,40.9,0,0.767,0,0,0,0, ,0,0,0,0,0, ,376.8,602.5,697.8,-0.6,-0.4,-1.9,25,377.047,603.051,696.416,-0.532298,-0.492391,-1.7861,
2026_07_06_17_10_03.214,3.871,40.9,0,0.768,0,0,0,0, ,0,0,0,0,0, ,375.9,602.9,697.6,-0.5,-0.4,-1.8,25,377.004,603.029,696.494,-0.533377,-0.486761,-1.78999,
2026_07_06_17_10_03.234,3.871,41,0,0.769,0,0,0,0, ,0,0,0,0,0, ,377.1,603.7,697.9,-0.4,-0.6,-1.7,25,376.974,603.046,696.571,-0.528296,-0.487567,-1.78756,
2026_07_06_17_10_03.254,3.871,41,0,0.766,0,0,0,0, ,0,0,0,0,0, ,375.2,601.6,694,-0.7,-0.4,-1.8,25,376.924,603.022,696.533,-0.529619,-0.488325,-1.78527,
2026_07_06_17_10_03.280,3.871,40.8,0,0.767,0,0,0,0, ,0,0,0,0,0, ,378.1,606.3,695.6,-0.7,-0.2,-1.9,25,376.907,603.078,696.427,-0.540001,-0.476849,-1.78921,
2026_07_06_17_10_03.294,3.871,40.9,0,0.767,0,0,0,0, ,0,0,0,0,0, ,377.8,602.1,694,-0.7,-0.4,-1.6,25,376.97,603.147,696.328,-0.549751,-0.466072,-1.78682,
2026_07_06_17_10_03.313,3.871,41,0,0.767,0,0,0,0, ,0,0,0,0,0, ,378.9,602.4,698.2,-0.8,-0.2,-1.6,25,377.054,603.092,696.314,-0.561954,-0.455952,-1.77544,
2026_07_06_17_10_03.333,3.871,40.9,0,0.767,0,0,0,0, ,0,0,0,0,0, ,376.5,601.4,697.5,-0.6,-0.5,-1.6,25,377.094,603.019,696.408,-0.570366,-0.449496,-1.76475,
2026_07_06_17_10_03.353,3.871,41,0,0.767,0,0,0,0, ,0,0,0,0,0, ,379.1,604.3,694.3,-0.5,-0.4,-1.4,25,377.137,603.009,696.377,-0.569125,-0.449526,-1.74861,
2026_07_06_17_10_03.372,3.871,41,0,0.765,0,0,0,0, ,0,0,0,0,0, ,381.4,606.9,692,-0.3,-0.3,-0.8,25,377.327,603.167,696.18,-0.558819,-0.443462,-1.70909,
2026_07_06_17_10_03.393,3.871,41,0,0.765,0,0,0,0, ,0,0,0,0,0, ,378,599.4,694.9,0.3,0,-0.4,25,377.471,603.166,696.014,-0.524766,-0.425579,-1.6415,
2026_07_06_17_10_03.412,3.871,40.9,0,0.768,0,0,0,0, ,0,0,0,0,0, ,386.1,609.3,690.6,0.2,0,0,25,377.75,603.238,695.815,-0.477554,-0.399645,-1.55366,
2026_07_06_17_10_03.432,3.871,40.9,0,0.768,0,0,0,0, ,0,0,0,0,0, ,371.2,600.7,702,1.2,0.4,0.1,25,377.805,603.345,695.845,-0.405797,-0.363104,-1.45594,
2026_07_06_17_10_03.452,3.871,40.9,0,0.769,0,0,0,0, ,0,0,0,0,0, ,381.4,602,698.3,2.5,-1,0.2,25,377.713,603.224,696.107,-0.268334,-0.359259,-1.35808,
2026_07_06_17_10_03.472,3.871,40.9,0,0.767,0,0,0,0, ,0,0,0,0,0, ,384.2,614,684.4,6,-0.1,-1.8,25,378.023,603.515,695.817,0.00700198,-0.370882,-1.32407,
2026_07_06_17_10_03.491,3.871,41,0,0.769,0,0,0,0, ,0,0,0,0,0, ,390.2,619.1,685.7,2.9,0,2.8,25,378.583,604.309,695.161,0.277747,-0.351328,-1.21292,
2026_07_06_17_10_03.511,3.871,40.9,0,0.767,0,0,0,0, ,0,0,0,0,0, ,366.5,603.2,698.4,3.5,-1,1.4,25,378.568,604.726,694.971,0.455822,-0.360388,-1.01103,
2026_07_06_17_10_03.530,3.871,40.9,0,0.767,0,0,0,0, ,0,0,0,0,0, ,371.3,609.3,730.3,6.9,-4.9,4.5,25,377.979,604.819,696.152,0.74492,-0.518192,-0.769659,
2026_07_06_17_10_03.550,3.871,40.9,0,0.766,0,0,0,0, ,0,0,0,0,0, ,431.2,625.7,700.4,14.2,-12.8,7.3,25,379.397,605.592,697.322,1.34242,-1.02591,-0.363226,
2026_07_06_17_10_03.571,3.871,41,0,0.769,0,0,0,0, ,0,0,0,0,0, ,442.7,636.3,679.3,18.3,-21.1,10.7,25,382.904,607.14,696.867,2.25085,-1.99629,0.207345,
2026_07_06_17_10_03.589,3.871,41,0,0.767,0,0,0,0, ,0,0,0,0,0, ,367.3,687.3,754.2,23.6,-24.3,19.9,25,384.251,610.471,698.078,3.39033,-3.25792,1.12705,
2026_07_06_17_10_03.610,3.871,41,0,0.769,0,0,0,0, ,0,0,0,0,0, ,353.8,650.3,805.7,40.2,-39.7,31.4,25,382.807,614.025,703.067,5.12764,-5.00939,2.62142,
2026_07_06_17_10_03.630,3.871,40.9,0,0.767,0,0,0,0, ,0,0,0,0,0, ,464.3,797.4,859.2,38.8,-45.1,30.8,25,384.406,620.718,710.952,7.2222,-7.28788,4.35683,
2026_07_06_17_10_03.654,3.871,41,0,0.766,0,0,0,0, ,0,0,0,0,0, ,580.9,843.7,795.4,22.2,-46.7,42.2,25,392.827,632.895,718.042,8.64069,-9.6408,6.31556,
2026_07_06_17_10_03.670,3.871,40.9,0,0.767,0,0,0,0, ,0,0,0,0,0, ,589.1,757.2,730.7,19.2,-46.7,50.2,25,404.538,643.105,720.784,9.37556,-11.8991,8.74602,
2026_07_06_17_10_03.689,3.871,41,0,0.767,0,0,0,0, ,0,0,0,0,0, ,614,742.1,705.3,21.1,-45.8,52,25,416.543,649.598,720.615,10.0321,-13.9924,11.327,
2026_07_06_17_10_03.709,3.871,41,0,0.767,0,0,0,0, ,0,0,0,0,0, ,611.5,796.6,752,23.6,-41.6,75.4,25,428.499,656.895,721.104,10.7827,-15.8027,14.5184,
2026_07_06_17_10_03.729,3.871,40.9,0,0.766,0,0,0,0, ,0,0,0,0,0, ,578.7,807.3,728.3,15.3,-56.2,87.7,25,438.652,665.735,722.265,11.3109,-17.8195,18.6032,
2026_07_06_17_10_03.749,3.871,40.9,0,0.769,0,0,0,0, ,0,0,0,0,0, ,579.4,699.2,673.9,12.1,-68.9,93.6,25,447.207,671.068,720.975,11.4565,-20.5453,22.9935,
2026_07_06_17_10_03.768,3.871,40.9,0,0.769,0,0,0,0, ,0,0,0,0,0, ,560.1,603.6,586.7,21.9,-79.1,90.6,25,454.675,669.869,715.45,11.7943,-23.8027,27.2047,
2026_07_06_17_10_03.789,3.871,41,0,0.769,0,0,0,0, ,0,0,0,0,0, ,581.1,568.2,511.1,32.1,-91.6,95.5,25,461.739,664.752,705.301,12.7209,-27.5532,31.2172,
2026_07_06_17_10_03.808,3.871,40.9,0,0.767,0,0,0,0, ,0,0,0,0,0, ,561.2,591.5,556.6,52.5,-112.2,113.7,25,468.406,659.578,694.853,14.5234,-32.0837,35.6889,
2026_07_06_17_10_03.827,3.871,40.8,0,0.769,0,0,0,0, ,0,0,0,0,0, ,507.4,588,506.3,66.7,-114.4,134.7,25,472.421,655.323,684.895,17.2702,-37.0329,41.0826,
2026_07_06_17_10_03.848,3.871,40.9,0,0.766,0,0,0,0, ,0,0,0,0,0, ,668.7,408.5,439.9,61,-127.7,121.7,25,479.468,645.752,671.989,20.1087,-42.1526,46.3913,
2026_07_06_17_10_03.868,3.871,40.9,0,0.768,0,0,0,0, ,0,0,0,0,0, ,673.4,466.5,364.6,60.9,-117.4,112.1,25,491.142,633.061,655.552,22.5975,-47.0519,50.6879,
2026_07_06_17_10_03.888,3.871,40.9,0,0.767,0,0,0,0, ,0,0,0,0,0, ,722.2,375.1,293.4,55.4,-121.2,109.6,25,503.735,620.127,635.653,24.7639,-51.4545,54.354,
2026_07_06_17_10_03.907,3.871,40.9,0,0.769,0,0,0,0, ,0,0,0,0,0, ,731.5,355.4,182.6,72.4,-118.2,114.9,25,517.331,604.595,611.421,27.1488,-55.6132,57.8821,
2026_07_06_17_10_03.928,3.871,41,0,0.769,0,0,0,0, ,0,0,0,0,0, ,776.8,343.1,154.6,92.3,-111.7,129.1,25,531.762,589.035,584.436,30.5126,-59.229,61.7893,
2026_07_06_17_10_03.946,3.871,40.9,0,0.769,0,0,0,0, ,0,0,0,0,0, ,798.8,318.7,151.7,80.2,-88.7,127.8,25,547.365,573.305,558.155,33.9091,-61.7257,65.8514,
2026_07_06_17_10_03.967,3.871,40.9,0,0.767,0,0,0,0, ,0,0,0,0,0, ,818.6,213.8,-15.5,81,-64.3,118.6,25,563.29,554.594,528.292,36.7543,-62.626,69.3461,
2026_07_06_17_10_03.987,3.871,40.9,0,0.768,0,0,0,0, ,0,0,0,0,0, ,978,291.2,277.2,83.9,-2.8,110.3,25,583.705,536.185,504.073,39.5389,-60.8542,72.0946,
2026_07_06_17_10_04.006,3.871,40.9,0,0.766,0,0,0,0, ,0,0,0,0,0, ,960.2,160.7,183.5,63.2,-87,113.8,25,607.19,517.28,487.393,41.6115,-59.882,74.5294,
2026_07_06_17_10_04.026,3.871,40.9,0,0.768,0,0,0,0, ,0,0,0,0,0, ,833.3,188.8,159.9,49.2,-93.4,90,25,624.835,496.407,468.155,42.5005,-61.7295,76.1973,
2026_07_06_17_10_04.046,3.871,40.8,0,0.768,0,0,0,0, ,0,0,0,0,0, ,920.8,254.8,71.6,26.3,-97.2,87.1,25,640.204,479.673,446.681,42.211,-63.7752,76.95,
2026_07_06_17_10_04.066,3.871,40.9,0,0.768,0,0,0,0, ,0,0,0,0,0, ,1042.4,186.5,-27.9,74.7,-76.5,95.6,25,661.008,463.889,420.793,42.7161,-65.1813,77.8275,
2026_07_06_17_10_04.086,3.871,40.9,0,0.766,0,0,0,0, ,0,0,0,0,0, ,969.9,150.7,15.5,78.5,-81.2,101.2,25,682.04,445.895,394.773,44.7809,-66.0142,79.0812,
2026_07_06_17_10_04.106,3.871,41,0,0.766,0,0,0,0, ,0,0,0,0,0, ,1006.1,120.2,22,80.4,-75,112.3,25,700.684,426.977,371.859,46.8935,-66.7507,80.7672,
2026_07_06_17_10_04.126,3.871,40.9,0,0.769,0,0,0,0, ,0,0,0,0,0, ,1091.5,75.1,7.3,54.9,-92.2,106,25,721.898,406.909,350.091,48.1584,-67.7775,82.4968,
2026_07_06_17_10_04.145,3.871,40.9,0,0.769,0,0,0,0, ,0,0,0,0,0, ,937.3,66.4,-135.1,36.5,-100.8,90,25,739.722,386.424,324.864,48.0086,-69.5278,83.4415,
2026_07_06_17_10_04.165,3.871,40.9,0,0.769,0,0,0,0, ,0,0,0,0,0, ,1005.9,-17,-92.7,26.8,-92.4,82.4,25,753.852,364.381,298.127,47.0117,-71.1775,83.6096,
2026_07_06_17_10_04.184,3.871,40.9,0,0.769,0,0,0,0, ,0,0,0,0,0, ,948.4,-46.9,-130,31.7,-79.9,82.2,25,767.459,340.23,273.174,45.9294,-72.0899,83.5298,
2026_07_06_17_10_04.203,3.871,40.9,0,0.766,0,0,0,0, ,0,0,0,0,0, ,918.2,-98.5,-275.3,44.1,-55.9,87.4,25,777.565,315.067,244.179,45.4401,-71.8345,83.6072,
2026_07_06_17_10_04.224,3.871,40.9,0,0.769,0,0,0,0, ,0,0,0,0,0, ,856.5,-137.3,-164.4,33,-40.2,94.5,25,784.255,288.683,215.902,45.0202,-70.3852,84.0547,
2026_07_06_17_10_04.245,3.871,40.9,0,0.767,0,0,0,0, ,0,0,0,0,0, ,873.7,-219.1,-193.6,4.5,-33.1,68.3,25,789.182,260.232,191.838,43.4194,-68.3294,83.8929,
2026_07_06_17_10_04.264,3.871,40.9,0,0.767,0,0,0,0, ,0,0,0,0,0, ,905.2,-170.5,-210.3,24.1,-37.8,37.6,25,795.292,232.504,167.841,41.6449,-66.3258,82.0073,
2026_07_06_17_10_04.283,3.871,40.8,0,0.767,0,0,0,0, ,0,0,0,0,0, ,916.3,-171.8,-205.3,37.7,-38.4,37.6,25,802.328,207.906,144.951,40.9901,-64.6058,79.3012,
2026_07_06_17_10_04.303,3.871,40.9,0,0.767,0,0,0,0, ,0,0,0,0,0, ,893.4,-196.1,-198.9,20.5,-24.7,45.7,25,808.575,184.028,123.802,40.2656,-62.5915,77.0069,
2026_07_06_17_10_04.323,3.871,40.9,0,0.767,0,0,0,0, ,0,0,0,0,0, ,910.1,-335.2,-165.2,-0.8,6.5,49.7,25,814.253,156.625,105.164,38.4121,-59.3319,75.221,
2026_07_06_17_10_04.343,3.871,40.9,0,0.767,0,0,0,0, ,0,0,0,0,0, ,814,-343.5,-226,-7.6,3.1,30.6,25,817.166,126.402,86.8365,35.8155,-55.4238,73.0838,
2026_07_06_17_10_04.363,3.871,40.9,0,0.767,0,0,0,0, ,0,0,0,0,0, ,750,-314,-249.6,-21.3,2.5,27.2,25,815.023,98.666,67.0539,32.7524,-51.8758,70.3914,
2026_07_06_17_10_04.383,3.871,40.9,0,0.769,0,0,0,0, ,0,0,0,0,0, ,861.6,-291.8,-226.4,-25.4,-2.2,18.3,25,814.461,74.1956,48.4647,29.3337,-48.7055,67.4882,
2026_07_06_17_10_04.402,3.871,40.9,0,0.767,0,0,0,0, ,0,0,0,0,0, ,835.9,-275.5,-263.7,-14.9,-6.6,13.7,25,816.55,52.3894,30.5787,26.3183,-46.0056,64.3507,
2026_07_06_17_10_04.422,3.871,40.8,0,0.766,0,0,0,0, ,0,0,0,0,0, ,945,-293.8,-233.5,-3,-12.1,11.1,25,821.053,31.851,13.5662,24.1691,-43.7719,61.1849,
2026_07_06_17_10_04.441,3.871,40.8,0,0.769,0,0,0,0, ,0,0,0,0,0, ,827.2,-331.7,-273.8,-17.7,-16.5,19.9,25,825.017,10.8519,-2.71728,22.0656,-41.976,58.401,
2026_07_06_17_10_04.461,3.871,40.8,0,0.767,0,0,0,0, ,0,0,0,0,0, ,802.4,-373.1,-308.4,-19.6,-19.7,18.2,25,824.395,-11.2837,-20.2906,19.5845,-40.521,56.0031,
2026_07_06_17_10_04.481,3.871,40.9,0,0.767,0,0,0,0, ,0,0,0,0,0, ,815,-373.4,-334.7,-20.7,-22.4,15.6,25,823.438,-33.3411,-38.6486,17.1632,-39.3345,53.6202,
2026_07_06_17_10_04.502,3.871,40.8,0,0.767,0,0,0,0, ,0,0,0,0,0, ,819,-352.5,-363.1,-19.6,-23.2,8,25,823.046,-53.4266,-57.5545,14.8894,-38.3269,51.0718,
2026_07_06_17_10_04.521,3.871,40.8,0,0.767,0,0,0,0, ,0,0,0,0,0, ,874.2,-334.9,-365.4,-16.6,-19.4,-7.9,25,824.481,-71.1151,-76.2438,12.8791,-37.2894,47.9627,
2026_07_06_17_10_04.541,3.871,40.7,0,0.767,0,0,0,0, ,0,0,0,0,0, ,887.9,-332.6,-355.5,-13,-7.1,-15.9,25,827.928,-87.1194,-93.5626,11.1924,-35.8245,44.3148,
2026_07_06_17_10_04.560,3.871,40.9,0,0.766,0,0,0,0, ,0,0,0,0,0, ,891.4,-306,-362.1,-10,1.2,-18.2,25,831.69,-101.268,-109.726,9.80959,-33.8212,40.5754,
2026_07_06_17_10_04.580,3.871,40.9,0,0.767,0,0,0,0, ,0,0,0,0,0, ,914,-285.2,-357.4,-8.3,2.3,-19.2,25,836.017,-113.11,-124.961,8.65424,-31.6536,36.9633,
2026_07_06_17_10_04.601,3.871,40.8,0,0.767,0,0,0,0, ,0,0,0,0,0, ,945.1,-249.2,-356.9,-8.7,6.4,-18.8,25,841.716,-122.5,-139.11,7.6089,-29.4596,33.553,
2026_07_06_17_10_04.620,3.871,40.8,0,0.767,0,0,0,0, ,0,0,0,0,0, ,955.9,-239,-333.4,-11.5,11.6,-18.3,25,848.345,-129.91,-151.666,6.52977,-27.116,30.378,
2026_07_06_17_10_04.639,3.871,40.9,0,0.767,0,0,0,0, ,0,0,0,0,0, ,936.1,-245.2,-328.2,-14,14.1,-18.6,25,854.296,-136.746,-162.582,5.35491,-24.6805,27.4025,
2026_07_06_17_10_04.659,3.871,40.8,0,0.769,0,0,0,0, ,0,0,0,0,0, ,937.7,-241.2,-328.9,-10.9,13.2,-17.7,25,859.33,-143.234,-172.696,4.26992,-22.3448,24.6267,
2026_07_06_17_10_04.679,3.871,40.8,0,0.767,0,0,0,0, ,0,0,0,0,0, ,941.5,-217,-306,-8.6,13.5,-18.2,25,864.221,-148.466,-181.517,3.41558,-20.1696,22.0322,
2026_07_06_17_10_04.699,3.871,40.8,0,0.767,0,0,0,0, ,0,0,0,0,0, ,936.1,-207.6,-290.7,-7.5,10.6,-15.4,25,868.766,-152.356,-188.636,2.7169,-18.2062,19.6658,
2026_07_06_17_10_04.719,3.871,40.9,0,0.767,0,0,0,0, ,0,0,0,0,0, ,950.4,-198.9,-301,-4.8,5.7,-10.4,25,873.305,-155.457,-195.169,2.17657,-16.6002,17.6813,
2026_07_06_17_10_04.739,3.871,40.8,0,0.767,0,0,0,0, ,0,0,0,0,0, ,955.4,-193.3,-289.4,-2.1,3.5,-5.6,25,878.155,-157.934,-201.265,1.8337,-15.3083,16.1164,
2026_07_06_17_10_04.759,3.871,40.8,0,0.767,0,0,0,0, ,0,0,0,0,0, ,942.3,-197.7,-273,-3.8,3.6,-4.7,25,882.463,-160.223,-206.136,1.5422,-14.1591,14.8205,
2026_07_06_17_10_04.779,3.871,40.9,0,0.767,0,0,0,0, ,0,0,0,0,0, ,924.4,-210.2,-283.4,-6.2,4.6,-7.7,25,885.564,-162.888,-210.527,1.14353,-13.0464,13.5395,
2026_07_06_17_10_04.797,3.871,40.8,0,0.769,0,0,0,0, ,0,0,0,0,0, ,934.2,-211.1,-290.5,-3.7,2.8,-6.8,25,888.229,-165.798,-215.184,0.772206,-12.0259,12.2727,
2026_07_06_17_10_04.818,3.871,40.9,0,0.767,0,0,0,0, ,0,0,0,0,0, ,935,-210.3,-281.3,-1.6,1.2,-5.5,25,891.055,-168.534,-219.494,0.563665,-11.1712,11.15,
2026_07_06_17_10_04.838,3.871,40.8,0,0.769,0,0,0,0, ,0,0,0,0,0, ,925.2,-208.9,-277,-2.4,2.4,-5.5,25,893.434,-171.037,-223.129,0.407442,-10.3808,10.1354,
2026_07_06_17_10_04.857,3.871,40.7,0,0.769,0,0,0,0, ,0,0,0,0,0, ,917.7,-203.1,-279,-5.4,5.9,-9.2,25,895.141,-173.167,-226.473,0.144957,-9.49533,9.06991,
2026_07_06_17_10_04.877,3.871,40.8,0,0.766,0,0,0,0, ,0,0,0,0,0, ,923,-203.8,-283.3,-5.2,5.8,-8.3,25,896.678,-175.013,-229.805,-0.186845,-8.56023,7.98401,
2026_07_06_17_10_04.898,3.871,40.8,0,0.769,0,0,0,0, ,0,0,0,0,0, ,924,-203.2,-277.8,-3.1,3.5,-5.4,25,898.312,-176.749,-232.897,-0.42835,-7.75523,7.08006,
2026_07_06_17_10_04.917,3.871,40.8,0,0.769,0,0,0,0, ,0,0,0,0,0, ,921.8,-198.9,-272.7,-1.5,1.7,-4.9,25,899.81,-178.23,-235.478,-0.542403,-7.12421,6.33479,
2026_07_06_17_10_04.937,3.871,40.8,0,0.768,0,0,0,0, ,0,0,0,0,0, ,929,-194.2,-277.4,0,-1.1,-3.5,25,901.37,-179.346,-237.889,-0.555054,-6.67179,5.69283,
2026_07_06_17_10_04.956,3.871,40.7,0,0.767,0,0,0,0, ,0,0,0,0,0, ,942.8,-190.9,-278.3,0.9,-3.6,-1,25,903.474,-180.151,-240.324,-0.493808,-6.40843,5.20881,
2026_07_06_17_10_04.977,3.871,40.7,0,0.766,0,0,0,0, ,0,0,0,0,0, ,946.6,-188.1,-276.1,-0.8,-1.6,-1.7,25,905.986,-180.72,-242.571,-0.46067,-6.17636,4.80913,
2026_07_06_17_10_04.997,3.871,40.8,0,0.766,0,0,0,0, ,0,0,0,0,0, ,940.6,-194.5,-277.2,-2.9,1.9,-3.1,25,908.278,-181.365,-244.648,-0.545332,-5.79085,4.36983,
2026_07_06_17_10_05.021,3.871,40.8,0,0.767,0,0,0,0, ,0,0,0,0,0, ,936.6,-197.3,-275.6,-2.9,2.2,-3.7,25,910.126,-182.251,-246.583,-0.68882,-5.31304,3.89635,
2026_07_06_17_10_05.037,3.871,40.8,0,0.769,0,0,0,0, ,0,0,0,0,0, ,932.7,-203.3,-281.7,-0.4,0.6,-2.4,25,911.62,-183.351,-248.537,-0.747392,-4.90397,3.47306,
2026_07_06_17_10_05.055,3.871,40.8,0,0.767,0,0,0,0, ,0,0,0,0,0, ,933.7,-197.5,-280.5,0.7,0.6,-0.9,25,912.935,-184.39,-250.521,-0.692707,-4.56857,3.16087,
2026_07_06_17_10_05.075,3.871,40.8,0,0.767,0,0,0,0, ,0,0,0,0,0, ,930.2,-197.8,-274,0.1,1.9,-1.2,25,914.094,-185.198,-252.15,-0.62612,-4.214,2.90427,
2026_07_06_17_10_05.095,3.871,40.7,0,0.767,0,0,0,0, ,0,0,0,0,0, ,918.3,-200.3,-266.6,-1.2,2.6,-3.6,25,914.713,-186.042,-253.256,-0.621481,-3.8201,2.58104,
2026_07_06_17_10_05.115,3.871,40.8,0,0.767,0,0,0,0, ,0,0,0,0,0, ,921.5,-199.8,-273.1,-2.7,4.3,-6.5,25,915.029,-186.895,-254.267,-0.702438,-3.37708,2.11603,
2026_07_06_17_10_05.135,3.871,40.8,0,0.769,0,0,0,0, ,0,0,0,0,0, ,925.6,-201.7,-264.8,-2.5,5.1,-7.2,25,915.548,-187.74,-255.162,-0.818071,-2.88488,1.56966,
2026_07_06_17_10_05.155,3.871,40.8,0,0.769,0,0,0,0, ,0,0,0,0,0, ,929.6,-186,-258.6,-3,6.1,-7.9,25,916.283,-188.112,-255.56,-0.935798,-2.36783,1.01393,
2026_07_06_17_10_05.174,3.871,40.7,0,0.769,0,0,0,0, ,0,0,0,0,0, ,931,-191,-269.4,-2.5,3.2,-6.4,25,917.137,-188.136,-256.075,-1.04635,-1.94019,0.516441,
2026_07_06_17_10_05.194,3.871,40.7,0,0.766,0,0,0,0, ,0,0,0,0,0, ,938.8,-197.8,-275.1,1.1,-1.7,-3.7,25,918.219,-188.517,-257.06,-1.02524,-1.77625,0.177236,
2026_07_06_17_10_05.214,3.871,40.8,0,0.767,0,0,0,0, ,0,0,0,0,0, ,944.5,-192.2,-268.6,4.9,-3.4,-3.1,25,919.647,-188.912,-257.962,-0.779957,-1.8234,-0.0407516,
2026_07_06_17_10_05.239,3.871,40.7,0,0.767,0,0,0,0, ,0,0,0,0,0, ,936.6,-187.6,-261.3,4.2,-3.3,-5.3,25,920.921,-188.973,-258.388,-0.455162,-1.91643,-0.294206,
2026_07_06_17_10_05.254,3.871,40.8,0,0.77,0,0,0,0, ,0,0,0,0,0, ,932.1,-179.9,-255.6,2.1,-5.1,-7.4,25,921.739,-188.654,-258.391,-0.235473,-2.05558,-0.663231,
2026_07_06_17_10_05.274,3.871,40.7,0,0.767,0,0,0,0, ,0,0,0,0,0, ,938.7,-182.6,-268.5,3.1,-8.4,-3.7,25,922.572,-188.203,-258.614,-0.0626862,-2.34165,-0.961018,
2026_07_06_17_10_05.294,3.871,40.8,0,0.767,0,0,0,0, ,0,0,0,0,0, ,915.7,-193.9,-263,4.3,-10.5,-3,25,922.854,-188.206,-259.049,0.166602,-2.77482,-1.1066,
2026_07_06_17_10_05.313,3.871,40.7,0,0.767,0,0,0,0, ,0,0,0,0,0, ,900.5,-217.4,-251.7,5.5,-13.5,-7.7,25,921.955,-189.269,-258.946,0.455044,-3.33698,-1.36518,
2026_07_06_17_10_05.332,3.871,40.8,0,0.767,0,0,0,0, ,0,0,0,0,0, ,849.7,-256.7,-264,10,-20.3,-17.6,25,919.099,-192.181,-258.879,0.89958,-4.16347,-2.05285,
2026_07_06_17_10_05.352,3.871,40.7,0,0.766,0,0,0,0, ,0,0,0,0,0, ,787.9,-308.2,-244.7,23.5,-42.1,-34.8,25,912.987,-197.681,-258.603,1.86547,-5.81101,-3.52431,
2026_07_06_17_10_05.372,3.871,40.7,0,0.767,0,0,0,0, ,0,0,0,0,0, ,747.4,-245.1,-222.9,45.9,-69.6,-51.3,25,904.131,-202.494,-257.091,3.86632,-8.86026,-5.93291,
2026_07_06_17_10_05.392,3.871,40.7,0,0.769,0,0,0,0, ,0,0,0,0,0, ,635.4,-257.4,-248.4,36.8,-108.4,-73,25,891.168,-205.465,-255.785,6.15048,-13.7438,-9.35864,
2026_07_06_17_10_05.412,3.871,40.7,0,0.769,0,0,0,0, ,0,0,0,0,0, ,601.3,-196.4,-257.8,17.5,-134.9,-99.4,25,874.543,-206.771,-255.621,7.43014,-20.3193,-14.0412,
2026_07_06_17_10_05.438,3.871,40.7,0,0.769,0,0,0,0, ,0,0,0,0,0, ,619.9,-71.7,-345.8,9.6,-169.8,-122.8,25,858.459,-202.339,-258.435,7.80307,-28.3649,-19.9557,
2026_07_06_17_10_05.452,3.871,40.8,0,0.767,0,0,0,0, ,0,0,0,0,0, ,564,10.2,-409.7,6.5,-211.2,-141,25,842.218,-191.883,-265.706,7.81812,-38.245,-26.7773,
2026_07_06_17_10_05.472,3.871,40.7,0,0.766,0,0,0,0, ,0,0,0,0,0, ,478.3,-24.1,-488.6,18.8,-249.4,-140,25,822.653,-180.614,-276.885,8.11256,-49.9484,-33.7073,
2026_07_06_17_10_05.492,3.871,40.7,0,0.766,0,0,0,0, ,0,0,0,0,0, ,517.3,142.3,-681.2,34.9,-250.1,-124,25,802.858,-166.006,-295.654,9.25437,-62.1238,-39.697,
2026_07_06_17_10_05.512,3.871,40.9,0,0.766,0,0,0,0, ,0,0,0,0,0, ,670.1,171.1,-968.1,65.2,-250.1,-88.8,25,790.112,-146.341,-327.89,11.7404,-73.5786,-43.7617,
2026_07_06_17_10_05.530,3.871,40.7,0,0.767,0,0,0,0, ,0,0,0,0,0, ,1078.7,150.3,-1055.5,122,-233.2,-46.1,25,795.248,-127.631,-369.566,16.7287,-83.8204,-45.2052,
2026_07_06_17_10_05.550,3.871,40.8,0,0.766,0,0,0,0, ,0,0,0,0,0, ,768.7,0.3,-959.3,107.1,-187.6,-20,25,803.076,-115.265,-408.434,22.6897,-91.5339,-44.4645,
2026_07_06_17_10_05.570,3.871,40.7,0,0.767,0,0,0,0, ,0,0,0,0,0, ,602.7,23.5,-903.1,63,-153,-33.5,25,795.923,-107.516,-440.29,26.4897,-96.3337,-43.385,
2026_07_06_17_10_05.591,3.871,40.7,0,0.767,0,0,0,0, ,0,0,0,0,0, ,459.1,-28,-778.1,26.5,-154.1,-47.8,25,779.773,-101.101,-464.684,27.6025,-99.8203,-43.2184,
2026_07_06_17_10_05.610,3.871,40.7,0,0.767,0,0,0,0, ,0,0,0,0,0, ,414,28.9,-784.9,17.8,-159.2,-39.8,25,758.858,-94.9129,-483.99,27.2702,-103.283,-43.2538,
2026_07_06_17_10_05.630,3.871,40.7,0,0.767,0,0,0,0, ,0,0,0,0,0, ,357,101.5,-847.1,12.4,-164.5,-29.4,25,736.107,-85.156,-504.222,26.5286,-106.852,-42.7265,
2026_07_06_17_10_05.650,3.871,40.7,0,0.767,0,0,0,0, ,0,0,0,0,0, ,367.4,46.7,-919.3,17.8,-169.3,-12.6,25,713.322,-75.4514,-527.316,25.8322,-110.511,-41.4025,
2026_07_06_17_10_05.671,3.871,40.7,0,0.767,0,0,0,0, ,0,0,0,0,0, ,293.8,-19.6,-958.7,22.5,-164.9,1.7,25,690,-70.0279,-552.403,25.4859,-113.96,-39.2116,
2026_07_06_17_10_05.689,3.871,40.7,0,0.767,0,0,0,0, ,0,0,0,0,0, ,215.4,-38.6,-992.3,33.2,-152.8,-3.7,25,663.468,-67.5338,-578.185,25.63,-116.695,-36.8831,
2026_07_06_17_10_05.709,3.871,40.8,0,0.767,0,0,0,0, ,0,0,0,0,0, ,164.4,-27.7,-1026.9,30.1,-136.2,-11.8,25,634.61,-65.4385,-604.474,25.9968,-118.39,-35.1078,
2026_07_06_17_10_05.729,3.871,40.7,0,0.767,0,0,0,0, ,0,0,0,0,0, ,227,-32.7,-1120.1,31.2,-117.2,-13.3,25,607.863,-63.2912,-633.056,26.2804,-118.896,-33.7332,
2026_07_06_17_10_05.749,3.871,40.7,0,0.769,0,0,0,0, ,0,0,0,0,0, ,255.8,-59.4,-1189.9,30.7,-107.2,-7.9,25,585.532,-62.2406,-664.862,26.5649,-118.488,-32.3235,
2026_07_06_17_10_05.769,3.871,40.8,0,0.768,0,0,0,0, ,0,0,0,0,0, ,255.1,-87.6,-1221,30.9,-78.2,-0.2,25,565.418,-62.9267,-697.804,26.823,-116.917,-30.6006,
2026_07_06_17_10_05.788,3.871,40.7,0,0.766,0,0,0,0, ,0,0,0,0,0, ,177,-110.1,-1226.1,34.1,-50.2,1.4,25,544.128,-65.1158,-729.841,27.1689,-113.704,-28.6993,
2026_07_06_17_10_05.809,3.871,40.7,0,0.765,0,0,0,0, ,0,0,0,0,0, ,95.9,-106.4,-1183.7,29.7,-31.7,-1.1,25,519.285,-67.7443,-758.79,27.4572,-109.271,-26.9413,
2026_07_06_17_10_05.828,3.871,40.7,0,0.766,0,0,0,0, ,0,0,0,0,0, ,72.2,-111.5,-1145,25,-22.2,-1.8,25,492.763,-70.2552,-783.504,27.4507,-104.254,-25.3879,
2026_07_06_17_10_05.848,3.871,40.7,0,0.767,0,0,0,0, ,0,0,0,0,0, ,73.1,-104.7,-1105.1,10.7,-16,-2.7,25,467.162,-72.5614,-804.317,26.8657,-99.0652,-23.978,
2026_07_06_17_10_05.867,3.871,40.6,0,0.767,0,0,0,0, ,0,0,0,0,0, ,104.2,-111.8,-1088.8,-2.9,-4.2,-0.9,25,444.097,-74.7362,-822.149,25.4662,-93.6439,-22.6265,
2026_07_06_17_10_05.887,3.871,40.7,0,0.766,0,0,0,0, ,0,0,0,0,0, ,91.9,-123.1,-1065.1,-12.1,12.1,-2.7,25,423.01,-77.339,-837.676,23.4573,-87.6967,-21.3574,
2026_07_06_17_10_05.907,3.871,40.6,0,0.768,0,0,0,0, ,0,0,0,0,0, ,41.3,-127,-1028.9,-16,18.6,-4.9,25,401.291,-80.2464,-850.432,21.1717,-81.4173,-20.2875,
2026_07_06_17_10_05.927,3.871,40.8,0,0.767,0,0,0,0, ,0,0,0,0,0, ,1.5,-105.5,-985.9,-16.4,12.4,-4.2,25,378.141,-82.4404,-859.997,18.8944,-75.5114,-19.3285,
2026_07_06_17_10_05.947,3.871,40.7,0,0.766,0,0,0,0, ,0,0,0,0,0, ,-3.2,-93,-960.4,-12.6,3.3,-0.8,25,355.047,-83.4647,-866.892,16.8594,-70.4316,-18.303,
2026_07_06_17_10_05.966,3.871,40.7,0,0.769,0,0,0,0, ,0,0,0,0,0, ,19.6,-94.4,-953.4,-8,-1.8,-0.8,25,333.911,-84.0884,-872.377,15.2044,-66.094,-17.2364,
2026_07_06_17_10_05.986,3.871,40.7,0,0.769,0,0,0,0, ,0,0,0,0,0, ,58.1,-93.8,-969.8,-2.6,-2.3,-0.3,25,315.93,-84.6985,-877.814,13.9549,-62.1913,-16.2196,
2026_07_06_17_10_06.006,3.871,40.7,0,0.767,0,0,0,0, ,0,0,0,0,0, ,66.2,-110.4,-989.2,2,-0.5,0.9,25,300.466,-85.7589,-884.011,13.0862,-58.4868,-15.2129,
2026_07_06_17_10_06.025,3.871,40.6,0,0.768,0,0,0,0, ,0,0,0,0,0, ,42.7,-108.8,-980.2,2.7,-1.4,-1.4,25,285.474,-87.2117,-890.146,12.432,-54.9807,-14.3011,
2026_07_06_17_10_06.045,3.871,40.7,0,0.764,0,0,0,0, ,0,0,0,0,0, ,36.1,-98.6,-969.9,-0.3,-4.7,-2.7,25,270.479,-88.2165,-895.32,11.7475,-51.8161,-13.5546,
2026_07_06_17_10_06.071,3.871,40.7,0,0.768,0,0,0,0, ,0,0,0,0,0, ,46.5,-101.4,-975.7,-2.6,-6.4,-3.9,25,256.513,-88.9346,-900.042,10.9433,-48.9968,-12.9297,
2026_07_06_17_10_06.085,3.871,40.7,0,0.767,0,0,0,0, ,0,0,0,0,0, ,62,-92.4,-986,-4.4,-5.6,-6,25,244.188,-89.4199,-904.966,10.0632,-46.3767,-12.4434,
2026_07_06_17_10_06.104,3.871,40.7,0,0.766,0,0,0,0, ,0,0,0,0,0, ,69.8,-88.3,-1016.1,-2.9,-4.2,-2.2,25,233.323,-89.4766,-910.821,9.22754,-43.8492,-11.935,
2026_07_06_17_10_06.125,3.871,40.6,0,0.766,0,0,0,0, ,0,0,0,0,0, ,65.9,-86.5,-1027.9,-0.7,-1.3,0.3,25,223.24,-89.3501,-917.596,8.55554,-41.3447,-11.2656,
2026_07_06_17_10_06.144,3.871,40.6,0,0.766,0,0,0,0, ,0,0,0,0,0, ,54.6,-79.1,-1017.8,-2.2,1.8,-0.1,25,213.308,-88.9509,-924.01,7.94583,-38.81,-10.573,
2026_07_06_17_10_06.165,3.871,40.7,0,0.766,0,0,0,0, ,0,0,0,0,0, ,48.5,-77.8,-999.6,-7.6,2.3,-1.8,25,203.451,-88.311,-929.171,7.16304,-36.3201,-9.9866,
2026_07_06_17_10_06.184,3.871,40.7,0,0.769,0,0,0,0, ,0,0,0,0,0, ,46.6,-85.8,-1002.6,-11,2.4,-1.4,25,193.95,-87.9143,-933.554,6.15982,-33.9637,-9.47554,
2026_07_06_17_10_06.204,3.871,40.7,0,0.769,0,0,0,0, ,0,0,0,0,0, ,45.4,-92.1,-1002.3,-11.6,3,-2.5,25,184.935,-87.9774,-937.752,5.09587,-31.7295,-9.01695,
2026_07_06_17_10_06.224,3.871,40.7,0,0.767,0,0,0,0, ,0,0,0,0,0, ,43.8,-92.5,-999.5,-10,1.8,-2.7,25,176.383,-88.2408,-941.6,4.12721,-29.6497,-8.62592,
2026_07_06_17_10_06.244,3.871,40.6,0,0.767,0,0,0,0, ,0,0,0,0,0, ,43.3,-92.4,-992.4,-7.2,-0.6,-0.8,25,168.289,-88.4973,-944.912,3.35165,-27.8064,-8.20692,
2026_07_06_17_10_06.263,3.871,40.6,0,0.769,0,0,0,0, ,0,0,0,0,0, ,43.4,-94.9,-1000.8,-3.4,0.1,-0.8,25,160.675,-88.8113,-948.062,2.82444,-26.1272,-7.75556,
2026_07_06_17_10_06.287,3.871,40.6,0,0.767,0,0,0,0, ,0,0,0,0,0, ,46.7,-90.4,-993.8,-3.2,2.3,-3.4,25,153.629,-89.0452,-951.062,2.45123,-24.4619,-7.41092,
2026_07_06_17_10_06.304,3.871,40.6,0,0.766,0,0,0,0, ,0,0,0,0,0, ,55.1,-85.3,-985.2,-5.4,3.5,-5.1,25,147.369,-88.9724,-953.405,2.03983,-22.7945,-7.2183,
2026_07_06_17_10_06.322,3.871,40.7,0,0.767,0,0,0,0, ,0,0,0,0,0, ,45.1,-67.3,-981.5,-7.3,1.6,-5.4,25,141.442,-88.2001,-955.23,1.52857,-21.2501,-7.09836,
2026_07_06_17_10_06.342,3.871,40.7,0,0.767,0,0,0,0, ,0,0,0,0,0, ,62.5,-66.8,-1003.5,-5,0.9,-3.6,25,136.101,-86.9113,-957.501,1.06066,-19.879,-6.94002,
2026_07_06_17_10_06.362,3.871,40.6,0,0.768,0,0,0,0, ,0,0,0,0,0, ,73.1,-57.6,-1010,-2.3,2.1,-1,25,131.939,-85.4055,-960.502,0.773602,-18.5762,-6.65727,
2026_07_06_17_10_06.382,3.871,40.7,0,0.768,0,0,0,0, ,0,0,0,0,0, ,68.3,-44,-1000.6,-3.2,4.2,-1.1,25,128.207,-83.2967,-963.232,0.558883,-17.2523,-6.31558,
2026_07_06_17_10_06.402,3.871,40.6,0,0.766,0,0,0,0, ,0,0,0,0,0, ,63.8,-46.3,-987.1,-6.2,4,-1.3,25,124.42,-80.9721,-965.098,0.23842,-15.9511,-6.00385,
2026_07_06_17_10_06.421,3.871,40.5,0,0.768,0,0,0,0, ,0,0,0,0,0, ,65.9,-58.8,-995.2,-7.6,2.5,0.8,25,120.79,-79.2402,-966.685,-0.196578,-14.7811,-5.65322,
2026_07_06_17_10_06.441,3.871,40.5,0,0.769,0,0,0,0, ,0,0,0,0,0, ,67.8,-69.2,-1002.1,-6.5,2.8,0.1,25,117.503,-78.3115,-968.633,-0.614208,-13.7189,-5.28131,
2026_07_06_17_10_06.461,3.871,40.6,0,0.768,0,0,0,0, ,0,0,0,0,0, ,70,-68.2,-999.2,-5.3,2.7,0.3,25,114.541,-77.7258,-970.584,-0.936311,-12.7153,-4.94729,
2026_07_06_17_10_06.481,3.871,40.7,0,0.768,0,0,0,0, ,0,0,0,0,0, ,56.2,-59.6,-992.1,-3.6,1.4,0.9,25,111.406,-76.8833,-972.111,-1.15043,-11.8155,-4.60925,
2026_07_06_17_10_06.501,3.871,40.6,0,0.768,0,0,0,0, ,0,0,0,0,0, ,45.8,-53.9,-980.7,-4.6,-0.7,-1.1,25,107.725,-75.6564,-972.982,-1.33017,-11.0742,-4.33447,
2026_07_06_17_10_06.521,3.871,40.7,0,0.769,0,0,0,0, ,0,0,0,0,0, ,50,-61.2,-995.7,-6,-3.8,-1.5,25,104.08,-74.553,-973.909,-1.57208,-10.5365,-4.14956,
2026_07_06_17_10_06.541,3.871,40.7,0,0.768,0,0,0,0, ,0,0,0,0,0, ,71.2,-65.3,-999.1,-4.8,-1.7,-1.3,25,101.43,-73.8642,-975.341,-1.80534,-10.062,-3.98201,
2026_07_06_17_10_06.561,3.871,40.6,0,0.766,0,0,0,0, ,0,0,0,0,0, ,80.3,-63.7,-1002.6,-3.6,0.6,-0.8,25,99.8652,-73.2936,-976.895,-1.95127,-9.48234,-3.80334,
2026_07_06_17_10_06.581,3.871,40.6,0,0.767,0,0,0,0, ,0,0,0,0,0, ,58.2,-60.1,-998.7,-4.4,2,-1.7,25,97.9996,-72.5993,-978.343,-2.07611,-8.82529,-3.64774,
2026_07_06_17_10_06.600,3.871,40.6,0,0.768,0,0,0,0, ,0,0,0,0,0, ,57.3,-62.5,-996.8,-5,1.6,-1.3,25,95.5469,-71.9108,-979.526,-2.236,-8.17781,-3.51686,
2026_07_06_17_10_06.620,3.871,40.6,0,0.768,0,0,0,0, ,0,0,0,0,0, ,74.4,-64,-1015.2,-1.4,2.9,-1.2,25,93.7372,-71.383,-981.139,-2.29475,-7.54237,-3.37873,
2026_07_06_17_10_06.640,3.871,40.6,0,0.766,0,0,0,0, ,0,0,0,0,0, ,86.6,-71.6,-1031.3,1.9,7.7,-0.9,25,92.9306,-71.1647,-983.705,-2.13968,-6.75979,-3.23682,
2026_07_06_17_10_06.659,3.871,40.6,0,0.768,0,0,0,0, ,0,0,0,0,0, ,96.9,-83.3,-1049.1,2.1,15.2,-1,25,92.8586,-71.5477,-987.148,-1.88742,-5.65013,-3.09747,
2026_07_06_17_10_06.679,3.871,40.5,0,0.768,0,0,0,0, ,0,0,0,0,0, ,136.7,-87.6,-1074.9,2.1,24.6,0.9,25,94.3176,-72.3948,-991.709,-1.64443,-4.09317,-2.91176,
2026_07_06_17_10_06.698,3.871,40.6,0,0.768,0,0,0,0, ,0,0,0,0,0, ,245.9,-72,-1155.8,5.1,45,10.1,25,100.227,-72.8461,-999.243,-1.32485,-1.72311,-2.39917,
2026_07_06_17_10_06.719,3.871,40.6,0,0.769,0,0,0,0, ,0,0,0,0,0, ,298.4,-122.8,-1156.8,4.7,89.7,12.1,25,110.704,-74.3424,-1008.81,-0.945523,2.48603,-1.57657,
2026_07_06_17_10_06.742,3.871,40.6,0,0.769,0,0,0,0, ,0,0,0,0,0, ,284.9,-140.9,-1160.5,3,143.2,1.1,25,121.73,-77.8467,-1017.94,-0.653296,9.43071,-1.07831,
2026_07_06_17_10_06.758,3.871,40.7,0,0.768,0,0,0,0, ,0,0,0,0,0, ,283.3,-98.7,-1072.5,29.7,178.3,5.6,25,131.625,-80.4033,-1023.95,0.382842,18.6517,-0.808456,
2026_07_06_17_10_06.778,3.871,40.6,0,0.769,0,0,0,0, ,0,0,0,0,0, ,371.9,-93.5,-1116.4,-26.8,208.5,5.8,25,143.567,-81.3598,-1028.25,0.447872,29.3004,-0.411847,
2026_07_06_17_10_06.797,3.871,40.5,0,0.768,0,0,0,0, ,0,0,0,0,0, ,398,-152.5,-1110.5,-32.7,250.1,-25.5,25,158.276,-83.8972,-1033.44,-1.39231,41.4879,-0.986984,
2026_07_06_17_10_06.818,3.871,40.6,0,0.768,0,0,0,0, ,0,0,0,0,0, ,343.5,-50,-1062.6,-65.4,250.1,-49.8,25,171.224,-84.9547,-1036.67,-4.29645,54.2002,-3.22114,
2026_07_06_17_10_06.837,3.871,40.6,0,0.769,0,0,0,0, ,0,0,0,0,0, ,432.2,-39.1,-913.5,-107.1,250.1,-57.7,25,184.425,-82.4925,-1033.71,-9.29049,66.1379,-6.30024,
2026_07_06_17_10_06.857,3.871,40.7,0,0.766,0,0,0,0, ,0,0,0,0,0, ,418.3,-42.6,-713.7,-38.1,250.1,-35.9,25,199.1,-79.9549,-1020.3,-13.1484,77.3481,-8.76819,
2026_07_06_17_10_06.877,3.871,40.7,0,0.768,0,0,0,0, ,0,0,0,0,0, ,458.1,22,-599.3,-2.8,250.1,-25.3,25,213.67,-75.7103,-998.13,-13.5934,87.8751,-10.0986,
2026_07_06_17_10_06.898,3.871,40.6,0,0.766,0,0,0,0, ,0,0,0,0,0, ,519.1,137,-606.2,-37,239.8,-24.4,25,230.424,-66.2522,-974.036,-13.9777,97.4469,-10.9975,
2026_07_06_17_10_06.917,3.871,40.6,0,0.766,0,0,0,0, ,0,0,0,0,0, ,640.2,119.3,-552.3,-112.1,231.1,-59.4,25,251.705,-54.4058,-949.979,-17.6688,105.856,-12.8806,
2026_07_06_17_10_06.936,3.871,40.6,0,0.766,0,0,0,0, ,0,0,0,0,0, ,650.5,44.7,-448.9,-140.9,221.6,-79,25,275.692,-46.0936,-922.595,-24.3007,113.199,-16.3126,
2026_07_06_17_10_06.956,3.871,40.7,0,0.769,0,0,0,0, ,0,0,0,0,0, ,646.1,65.3,-340.8,-117.5,195.3,-81.7,25,298.398,-39.9332,-890.436,-30.693,119.003,-20.2148,
2026_07_06_17_10_06.981,3.871,40.6,0,0.768,0,0,0,0, ,0,0,0,0,0, ,733.1,169.3,-272.4,-90,170.8,-77.3,25,322.237,-30.3518,-854.858,-35.1449,122.906,-23.8275,
2026_07_06_17_10_06.992,3.871,40.6,0,0.766,0,0,0,0, ,0,0,0,0,0, ,826.4,256.4,-277.4,-89.6,166,-70.6,25,350.117,-15.5317,-819.517,-38.4755,125.678,-26.8819,
2026_07_06_17_10_07.015,3.871,40.6,0,0.766,0,0,0,0, ,0,0,0,0,0, ,758,243.8,-174.8,-80,145.4,-79,25,377.056,0.655247,-783.356,-41.2984,127.508,-29.8019,
2026_07_06_17_10_07.035,3.871,40.5,0,0.769,0,0,0,0, ,0,0,0,0,0, ,773,244.8,-114.3,-56.6,119.4,-85.4,25,400.727,15.5023,-744.428,-42.9438,127.806,-32.9949,
2026_07_06_17_10_07.056,3.871,40.7,0,0.767,0,0,0,0, ,0,0,0,0,0, ,869.1,359.1,-118,-30.7,85.3,-71.7,25,426.34,32.9578,-706.143,-42.9868,126.255,-35.7709,
2026_07_06_17_10_07.076,3.871,40.5,0,0.766,0,0,0,0, ,0,0,0,0,0, ,946.1,447.2,-95.4,-28.2,74.1,-54.9,25,455.667,55.5163,-669.614,-42.1619,123.418,-37.4485,
2026_07_06_17_10_07.094,3.871,40.8,0,0.768,0,0,0,0, ,0,0,0,0,0, ,910.8,451.5,-102.5,-42.4,76.7,-56.3,25,484.477,79.5156,-634.839,-41.7438,120.492,-38.5546,
2026_07_06_17_10_07.115,3.871,40.6,0,0.766,0,0,0,0, ,0,0,0,0,0, ,898.5,425.4,-51.1,-49.2,72.4,-68,25,510.082,101.388,-600.834,-41.9909,117.692,-39.9924,
2026_07_06_17_10_07.134,3.871,40.6,0,0.766,0,0,0,0, ,0,0,0,0,0, ,903.6,420.7,-52.8,-48.5,69.5,-68.2,25,533.906,120.989,-567.386,-42.4089,114.844,-41.7052,
2026_07_06_17_10_07.154,3.871,40.6,0,0.767,0,0,0,0, ,0,0,0,0,0, ,913.5,452.6,-36.9,-40.7,61.1,-63.3,25,556.736,140.225,-535.544,-42.5424,111.825,-43.1705,
2026_07_06_17_10_07.174,3.871,40.6,0,0.766,0,0,0,0, ,0,0,0,0,0, ,894,485.4,-5.8,-37.7,51.7,-55.5,25,577.882,160.26,-504.21,-42.3387,108.447,-44.1594,
2026_07_06_17_10_07.194,3.871,40.6,0,0.768,0,0,0,0, ,0,0,0,0,0, ,905.1,526.1,9.7,-36.5,42.4,-49.6,25,597.484,181.313,-473.366,-42.0195,104.706,-44.6707,
2026_07_06_17_10_07.214,3.871,40.6,0,0.768,0,0,0,0, ,0,0,0,0,0, ,922.4,551.1,30.7,-31.5,32.2,-41.9,25,616.756,203.085,-443.29,-41.5308,100.598,-44.7365,
2026_07_06_17_10_07.233,3.871,40.5,0,0.766,0,0,0,0, ,0,0,0,0,0, ,914,569,54.5,-28.6,24.6,-32.9,25,635.126,224.838,-413.681,-40.8312,96.1988,-44.2894,
2026_07_06_17_10_07.253,3.871,40.6,0,0.766,0,0,0,0, ,0,0,0,0,0, ,909.7,576.7,72.6,-30.2,16,-23.8,25,651.988,246.045,-384.599,-40.1346,91.5737,-43.3181,
2026_07_06_17_10_07.272,3.871,40.7,0,0.766,0,0,0,0, ,0,0,0,0,0, ,907.2,534.1,54,-30.5,12,-15.5,25,667.617,264.896,-357.306,-39.5384,86.8466,-41.8759,
2026_07_06_17_10_07.292,3.871,40.7,0,0.768,0,0,0,0, ,0,0,0,0,0, ,913.3,526.6,44.7,-25.4,16.4,-10.2,25,682.402,281.072,-332.525,-38.8322,82.4197,-40.1071,
2026_07_06_17_10_07.313,3.871,40.7,0,0.768,0,0,0,0, ,0,0,0,0,0, ,873.6,521.6,69.4,-18.5,16.1,-5.6,25,695.263,295.882,-308.785,-37.8034,78.3875,-38.1445,
2026_07_06_17_10_07.332,3.871,40.7,0,0.766,0,0,0,0, ,0,0,0,0,0, ,843.9,521.9,98.3,-15.2,8.5,-2.8,25,705.225,309.646,-284.859,-36.5266,74.3602,-36.076,
2026_07_06_17_10_07.352,3.871,40.6,0,0.765,0,0,0,0, ,0,0,0,0,0, ,833.9,521.2,104.1,-14.2,-1,-0.3,25,713.371,322.558,-261.334,-35.1965,70.0574,-33.9721,
2026_07_06_17_10_07.372,3.871,40.7,0,0.766,0,0,0,0, ,0,0,0,0,0, ,845.2,518.4,97.7,-13.4,-9.3,0.6,25,721.06,334.578,-239.26,-33.8927,65.4745,-31.8927,
2026_07_06_17_10_07.392,3.871,40.6,0,0.766,0,0,0,0, ,0,0,0,0,0, ,870.8,524.2,90.3,-11.1,-8.9,3.3,25,729.405,345.956,-218.952,-32.5738,60.9301,-29.8304,
2026_07_06_17_10_07.412,3.871,40.7,0,0.768,0,0,0,0, ,0,0,0,0,0, ,896.9,546.5,90.9,-12.4,-3.1,6.9,25,738.816,357.497,-200.089,-31.3049,56.8515,-27.7019,
2026_07_06_17_10_07.431,3.871,40.7,0,0.767,0,0,0,0, ,0,0,0,0,0, ,870.1,516.7,105.1,-15.9,-1.2,8.9,25,747.633,368.107,-181.924,-30.2595,53.2561,-25.5324,
2026_07_06_17_10_07.451,3.871,40.7,0,0.766,0,0,0,0, ,0,0,0,0,0, ,867.6,495.9,113.6,-13.1,-5,10.4,25,755.02,376.528,-164.174,-29.2992,49.8219,-23.3885,
2026_07_06_17_10_07.471,3.871,40.6,0,0.768,0,0,0,0, ,0,0,0,0,0, ,884.5,533.4,104.4,-16.9,-8.3,11.7,25,762.395,384.945,-147.528,-28.4278,46.3807,-21.2899,
2026_07_06_17_10_07.490,3.871,40.6,0,0.768,0,0,0,0, ,0,0,0,0,0, ,902.4,517.7,113.6,-22,-6.7,17.6,25,770.381,393.513,-131.896,-27.8807,43.0973,-19.0998,
2026_07_06_17_10_07.510,3.871,40.6,0,0.769,0,0,0,0, ,0,0,0,0,0, ,880.4,480.5,94.9,-19.3,-5.9,19,25,777.756,399.947,-117.506,-27.4401,40.0872,-16.8207,
2026_07_06_17_10_07.531,3.871,40.6,0,0.766,0,0,0,0, ,0,0,0,0,0, ,880.3,474.3,96.6,-16.4,-3.2,16.5,25,784.008,404.667,-104.51,-26.8557,37.3671,-14.7141,
2026_07_06_17_10_07.549,3.871,40.6,0,0.768,0,0,0,0, ,0,0,0,0,0, ,894.6,498.1,100.4,-17.3,1.5,20.2,25,790.311,409.635,-92.1393,-26.246,35.0382,-12.6992,
2026_07_06_17_10_07.570,3.871,40.6,0,0.768,0,0,0,0, ,0,0,0,0,0, ,876.5,473.9,104,-19.2,-0.3,18.8,25,796.115,414.289,-80.2968,-25.7587,32.9397,-10.7371,
2026_07_06_17_10_07.589,3.871,40.6,0,0.765,0,0,0,0, ,0,0,0,0,0, ,886.2,462.2,117.7,-19.5,-2.6,19.2,25,801.309,417.565,-68.6488,-25.3682,30.844,-8.92499,
2026_07_06_17_10_07.609,3.871,40.6,0,0.768,0,0,0,0, ,0,0,0,0,0, ,883.3,449.4,118.4,-18.4,-4.4,18.1,25,806.393,419.895,-57.2718,-24.9771,28.7512,-7.24464,
2026_07_06_17_10_07.629,3.871,40.6,0,0.766,0,0,0,0, ,0,0,0,0,0, ,896.1,439.2,115.2,-20.7,-3,17,25,811.47,421.382,-46.6643,-24.6464,26.7737,-5.73372,
2026_07_06_17_10_07.648,3.871,40.6,0,0.768,0,0,0,0, ,0,0,0,0,0, ,895.1,430,115.8,-19.3,-1.3,14.1,25,816.597,422.187,-36.7824,-24.3632,25.0112,-4.43674,
2026_07_06_17_10_07.669,3.871,40.6,0,0.768,0,0,0,0, ,0,0,0,0,0, ,901.2,414.1,112,-18.9,0.5,12,25,821.566,422.179,-27.6002,-24.0425,23.4627,-3.37114,
2026_07_06_17_10_07.690,3.871,40.5,0,0.768,0,0,0,0, ,0,0,0,0,0, ,883.3,385.9,116.5,-24.1,2.7,10.1,25,825.874,420.828,-18.9562,-23.8876,22.1304,-2.49235,
2026_07_06_17_10_07.708,3.871,40.6,0,0.765,0,0,0,0, ,0,0,0,0,0, ,860.2,368.4,113.6,-26.9,3.7,3.3,25,828.669,418.166,-10.7902,-23.9858,20.9768,-1.9322,
2026_07_06_17_10_07.728,3.871,40.6,0,0.767,0,0,0,0, ,0,0,0,0,0, ,846.5,348.9,117.7,-36.1,9.9,-8.1,25,830.173,414.539,-3.08527,-24.4437,20.1129,-1.9607,
2026_07_06_17_10_07.748,3.871,40.6,0,0.768,0,0,0,0, ,0,0,0,0,0, ,826.5,319,125.2,-43.7,18.3,-29.1,25,830.559,409.628,4.5036,-25.3856,19.7465,-2.97466,
2026_07_06_17_10_07.768,3.871,40.6,0,0.768,0,0,0,0, ,0,0,0,0,0, ,803.2,291.7,124,-47.7,27.2,-56.5,25,829.601,403.274,11.822,-26.6235,19.9296,-5.40152,
2026_07_06_17_10_07.787,3.871,40.6,0,0.768,0,0,0,0, ,0,0,0,0,0, ,776.1,246.9,113.1,-41.5,37.7,-88.3,25,827.167,395.11,18.3257,-27.7189,20.6925,-9.48424,
2026_07_06_17_10_07.808,3.871,40.6,0,0.766,0,0,0,0, ,0,0,0,0,0, ,764.8,255.9,118.7,-30.6,42.4,-103.7,25,823.711,386.352,24.2716,-28.2266,21.8721,-14.7563,
2026_07_06_17_10_07.827,3.871,40.5,0,0.766,0,0,0,0, ,0,0,0,0,0, ,776.8,324.3,109.4,-11.3,44.5,-118.2,25,820.486,380.487,29.7425,-27.7832,23.187,-20.6181,
2026_07_06_17_10_07.847,3.871,40.6,0,0.768,0,0,0,0, ,0,0,0,0,0, ,721.8,360.4,128.7,10.1,35.6,-128.6,25,816.149,378.163,35.1847,-26.1267,24.2146,-26.8814,
2026_07_06_17_10_07.867,3.871,40.5,0,0.77,0,0,0,0, ,0,0,0,0,0, ,664.4,404.1,135.7,30.1,23.1,-150,25,808.65,378.412,41.0966,-23.3098,24.5275,-33.7319,
2026_07_06_17_10_07.886,3.871,40.6,0,0.768,0,0,0,0, ,0,0,0,0,0, ,606,465.9,132.4,39.7,32.1,-180.2,25,798.081,381.86,46.7609,-19.7626,24.7148,-41.7371,
2026_07_06_17_10_07.907,3.871,40.6,0,0.768,0,0,0,0, ,0,0,0,0,0, ,509.8,569.7,173.8,32.7,26.2,-208.5,25,783.445,390.144,53.2409,-16.3524,24.985,-51.037,
2026_07_06_17_10_07.927,3.871,40.6,0,0.768,0,0,0,0, ,0,0,0,0,0, ,479.3,704.1,215.8,20.5,12.3,-219.2,25,765.84,405.181,61.8672,-13.735,24.6356,-60.9584,
2026_07_06_17_10_07.947,3.871,40.6,0,0.768,0,0,0,0, ,0,0,0,0,0, ,586.1,846.3,239.5,4.7,16.3,-214.9,25,751.633,427.729,71.9696,-12.1302,24.0057,-70.4702,
2026_07_06_17_10_07.965,3.871,40.6,0,0.768,0,0,0,0, ,0,0,0,0,0, ,628.2,800,239.7,-20.5,10.3,-206.3,25,742.829,451.825,82.1846,-11.8724,23.3534,-79.0094,
2026_07_06_17_10_07.985,3.871,40.5,0,0.768,0,0,0,0, ,0,0,0,0,0, ,410,954.5,204.1,-13.8,-36,-194.4,25,729.195,477.749,90.6985,-12.194,21.1472,-86.4036,
2026_07_06_17_10_08.006,3.871,40.6,0,0.769,0,0,0,0, ,0,0,0,0,0, ,384.1,852.7,119.2,0.7,-25,-156.7,25,708.955,503.7,95.0221,-11.8501,18,-91.8359,
2026_07_06_17_10_08.025,3.871,40.5,0,0.768,0,0,0,0, ,0,0,0,0,0, ,458.2,929.1,273.9,10.1,-21.6,-151.2,25,691.417,527.295,101.209,-10.7989,15.4833,-95.621,
2026_07_06_17_10_08.045,3.871,40.5,0,0.768,0,0,0,0, ,0,0,0,0,0, ,492.6,1118.1,237.7,18,-15.8,-110.5,25,678.253,557.538,110.629,-9.28468,13.4002,-97.7678,
2026_07_06_17_10_08.064,3.871,40.6,0,0.766,0,0,0,0, ,0,0,0,0,0, ,344.3,1042.4,203.6,-1.7,-10.9,-87.5,25,662.422,589.391,117.334,-8.22226,11.7701,-97.8429,
2026_07_06_17_10_08.085,3.871,40.5,0,0.766,0,0,0,0, ,0,0,0,0,0, ,261.4,1026.3,207.7,-21.6,5.4,-87.3,25,640.51,616.506,122.715,-8.43114,10.8853,-97.2065,
2026_07_06_17_10_08.105,3.871,40.5,0,0.766,0,0,0,0, ,0,0,0,0,0, ,215.4,974.7,419.7,-43.3,5,-91.5,25,616.007,639.905,134.354,-9.89479,10.5389,-96.7308,
2026_07_06_17_10_08.125,3.871,40.6,0,0.768,0,0,0,0, ,0,0,0,0,0, ,294.3,946.7,259.1,-38.8,-19.1,-93.2,25,593.999,659.454,146.849,-11.7933,9.46703,-96.4638,
2026_07_06_17_10_08.144,3.871,40.5,0,0.768,0,0,0,0, ,0,0,0,0,0, ,225.2,1076.2,137.8,-18.3,0.1,-79.1,25,573.63,680.903,149.993,-12.8144,8.31123,-95.8353,
2026_07_06_17_10_08.166,3.871,40.5,0,0.768,0,0,0,0, ,0,0,0,0,0, ,162.3,1083.1,336,-36.3,30.3,-79.4,25,550.481,705.202,155.289,-13.6971,8.73101,-94.8247,
2026_07_06_17_10_08.184,3.871,40.6,0,0.766,0,0,0,0, ,0,0,0,0,0, ,102.2,985.3,288,-66.8,33.8,-72.9,25,524.996,725.25,164.839,-16.0038,10.152,-93.6867,
2026_07_06_17_10_08.209,3.871,40.6,0,0.766,0,0,0,0, ,0,0,0,0,0, ,97.4,927.2,244.2,-58.4,27.4,-71.6,25,499.085,739.327,171.009,-18.8432,11.3981,-92.3804,
2026_07_06_17_10_08.222,3.871,40.5,0,0.768,0,0,0,0, ,0,0,0,0,0, ,116.2,987.6,285.1,-53.7,29.8,-74.1,25,475.18,752.616,176.715,-21.1105,12.4463,-91.1902,
2026_07_06_17_10_08.243,3.871,40.5,0,0.768,0,0,0,0, ,0,0,0,0,0, ,100.4,962.2,296.9,-45.2,33.4,-51.9,25,452.824,766.161,183.68,-22.8375,13.6135,-89.4724,
2026_07_06_17_10_08.263,3.871,40.5,0,0.766,0,0,0,0, ,0,0,0,0,0, ,64.3,953.6,308.1,-34.4,38.2,-45.3,25,430.248,777.845,190.92,-23.8711,14.9655,-86.9817,
2026_07_06_17_10_08.283,3.871,40.6,0,0.768,0,0,0,0, ,0,0,0,0,0, ,15,908,320.3,-24.5,36.3,-38.1,25,406.446,787.166,198.433,-24.2111,16.3234,-84.2224,
2026_07_06_17_10_08.303,3.871,40.5,0,0.766,0,0,0,0, ,0,0,0,0,0, ,-4.6,948.2,358.5,-15,28.9,-36.1,25,381.995,795.754,207.023,-23.9392,17.3153,-81.3509,
2026_07_06_17_10_08.323,3.871,40.6,0,0.768,0,0,0,0, ,0,0,0,0,0, ,-36,999.3,408.8,-14.9,22.2,-34.2,25,357.48,806.601,217.786,-23.3915,17.8171,-78.5355,
2026_07_06_17_10_08.342,3.871,40.3,0,0.766,0,0,0,0, ,0,0,0,0,0, ,-28.4,975.4,426.8,-18.5,18.1,-27.9,25,333.734,817.615,229.974,-22.9837,17.9593,-75.6419,
2026_07_06_17_10_08.363,3.871,40.5,0,0.765,0,0,0,0, ,0,0,0,0,0, ,-57.9,948.7,424.3,-25.5,16.7,-25.6,25,310.768,826.417,241.892,-22.9238,17.9252,-72.6625,
2026_07_06_17_10_08.381,3.871,40.6,0,0.765,0,0,0,0, ,0,0,0,0,0, ,-61.2,904.6,409.1,-14.5,3.2,-19,25,288.201,832.525,252.545,-22.7456,17.4392,-69.5935,
2026_07_06_17_10_08.403,3.871,40.3,0,0.766,0,0,0,0, ,0,0,0,0,0, ,-7.4,952.6,416.1,-6.4,-0.3,-13.3,25,268.549,838.379,262.298,-21.9963,16.4648,-66.3368,
2026_07_06_17_10_08.421,3.871,40.5,0,0.766,0,0,0,0, ,0,0,0,0,0, ,-45.2,910.2,406.9,-4.4,-1.2,-4.2,25,250.582,844.048,271.39,-20.985,15.4158,-62.8276,
2026_07_06_17_10_08.441,3.871,40.5,0,0.768,0,0,0,0, ,0,0,0,0,0, ,-57.2,928.8,407.4,3.3,0.7,1.2,25,232.192,848.646,279.663,-19.7397,14.4612,-59.0905,
2026_07_06_17_10_08.461,3.871,40.5,0,0.768,0,0,0,0, ,0,0,0,0,0, ,-50.4,940.9,420.2,1.2,-2.2,2,25,214.764,853.899,287.837,-18.3997,13.5342,-55.3922,
2026_07_06_17_10_08.481,3.871,40.3,0,0.768,0,0,0,0, ,0,0,0,0,0, ,-45.6,914.7,387.5,-2.8,-2,-1.9,25,198.752,858.402,294.906,-17.3272,12.5815,-52.0136,
2026_07_06_17_10_08.500,3.871,40.3,0,0.766,0,0,0,0, ,0,0,0,0,0, ,-35.5,899.7,378.6,-2,-1.7,-2.1,25,184.169,861.376,300.278,-16.4176,11.7021,-48.9659,
2026_07_06_17_10_08.521,3.871,40.3,0,0.768,0,0,0,0, ,0,0,0,0,0, ,-19.6,909.6,381.7,1.4,0.3,-0.1,25,171.268,864.013,305.145,-15.4355,10.9464,-46.0491,
2026_07_06_17_10_08.540,3.871,40.3,0,0.769,0,0,0,0, ,0,0,0,0,0, ,-44.4,915.6,384.6,3.8,-2.8,4.2,25,158.881,866.973,309.898,-14.3364,10.2031,-43.1181,
2026_07_06_17_10_08.562,3.871,40.5,0,0.766,0,0,0,0, ,0,0,0,0,0, ,-35.6,927.6,391.3,2,-6.1,4.1,25,146.762,870.302,314.655,-13.2861,9.31022,-40.2377,
2026_07_06_17_10_08.580,3.871,40.5,0,0.768,0,0,0,0, ,0,0,0,0,0, ,-18,929.4,387.2,-2.7,-2.6,4.7,25,136.185,873.849,319.2,-12.4978,8.4778,-37.5176,
2026_07_06_17_10_08.600,3.871,40.5,0,0.768,0,0,0,0, ,0,0,0,0,0, ,-40.5,925.7,364.1,-3.5,1.4,1.1,25,126.104,877.121,322.64,-11.9251,7.92462,-35.0546,
2026_07_06_17_10_08.619,3.871,40.5,0,0.768,0,0,0,0, ,0,0,0,0,0, ,-30.6,929.5,397.4,-0.4,-2,-1.6,25,116.253,880.197,326.181,-11.3172,7.42343,-32.9337,
2026_07_06_17_10_08.639,3.871,40.6,0,0.769,0,0,0,0, ,0,0,0,0,0, ,-21.1,934.9,390.3,0,-4.4,2,25,107.594,883.366,330.305,-10.6398,6.77607,-30.9146,
2026_07_06_17_10_08.658,3.871,40.2,0,0.766,0,0,0,0, ,0,0,0,0,0, ,-13,929.8,390.3,-0.3,-5.7,4.9,25,99.9985,886.351,333.961,-10.0006,6.05542,-28.8205,
2026_07_06_17_10_08.680,3.871,40.5,0,0.768,0,0,0,0, ,0,0,0,0,0, ,-7.2,922.9,393,-0.4,-3.2,8.4,25,93.2894,888.788,337.476,-9.41249,5.41524,-26.659,
2026_07_06_17_10_08.698,3.871,40.3,0,0.768,0,0,0,0, ,0,0,0,0,0, ,1.3,916.1,398.5,-0.8,-1.3,12.9,25,87.4248,890.66,341.027,-8.87547,4.94814,-24.3855,
2026_07_06_17_10_08.724,3.871,40.5,0,0.766,0,0,0,0, ,0,0,0,0,0, ,-25.7,925.2,382.9,0.6,0.4,15.3,25,81.3539,892.487,344.054,-8.34072,4.61919,-22.0403,
2026_07_06_17_10_08.737,3.871,40.3,0,0.768,0,0,0,0, ,0,0,0,0,0, ,-22,953.2,394.6,-0.6,-3.4,7,25,74.943,895.334,346.778,-7.83246,4.24631,-20.0178,
2026_07_06_17_10_08.758,3.871,40.3,0,0.766,0,0,0,0, ,0,0,0,0,0, ,3.1,972.7,413.2,-3.9,-6.1,10.2,25,69.8003,899.454,350.259,-7.49228,3.69809,-18.2739,
2026_07_06_17_10_08.777,3.871,40.3,0,0.766,0,0,0,0, ,0,0,0,0,0, ,19.2,983.3,426.1,-4.8,-8.4,20,25,66.2263,904.241,354.487,-7.30079,3.03094,-16.2402,
2026_07_06_17_10_08.799,3.871,40.5,0,0.768,0,0,0,0, ,0,0,0,0,0, ,41.3,1018.1,453.9,-0.8,-14.8,38.4,25,64.034,910.119,359.698,-7.02653,2.13937,-13.4712,
2026_07_06_17_10_08.817,3.871,40.3,0,0.768,0,0,0,0, ,0,0,0,0,0, ,61.5,1035.4,443.1,4.1,-27.1,65.4,25,63.2641,917.226,365.11,-6.4978,0.732362,-9.4876,
2026_07_06_17_10_08.840,3.871,40.5,0,0.768,0,0,0,0, ,0,0,0,0,0, ,66.7,985.3,388,2.9,-31.5,79,25,63.3151,922.901,368.183,-5.88856,-1.09773,-4.50976,
2026_07_06_17_10_08.857,3.871,40.3,0,0.768,0,0,0,0, ,0,0,0,0,0, ,95.7,974.2,402.7,6.4,-31.4,74.6,25,64.4049,926.365,369.839,-5.24637,-2.94733,0.44505,
2026_07_06_17_10_08.877,3.871,40.3,0,0.768,0,0,0,0, ,0,0,0,0,0, ,148.4,1078.1,422.2,16.1,-35.1,92.1,25,67.9177,932.446,372.435,-4.24112,-4.79389,5.49707,
2026_07_06_17_10_08.896,3.871,40.5,0,0.767,0,0,0,0, ,0,0,0,0,0, ,170,1081.4,501.4,13.2,-54,131.6,25,73.4802,941.422,377.881,-3.08994,-7.21653,11.978,
2026_07_06_17_10_08.917,3.871,40.3,0,0.767,0,0,0,0, ,0,0,0,0,0, ,184.9,1001.8,439.3,12.1,-71.8,149.9,25,79.8158,947.527,383.516,-2.13079,-10.6097,19.825,
2026_07_06_17_10_08.936,3.871,40.3,0,0.766,0,0,0,0, ,0,0,0,0,0, ,193.6,878.7,342.5,30,-71.7,145.4,25,86.4845,947.083,383.966,-0.71821,-14.3355,27.6143,
2026_07_06_17_10_08.957,3.871,40.3,0,0.769,0,0,0,0, ,0,0,0,0,0, ,292.2,862.3,318.7,4.5,-60,130.4,25,96.0161,942.416,380.714,0.376728,-17.4746,34.3349,
2026_07_06_17_10_08.981,3.871,40.3,0,0.768,0,0,0,0, ,0,0,0,0,0, ,360.2,915,332.3,-19.4,-44.8,116.1,25,110.043,939.14,377.349,-0.100213,-19.6029,39.7531,
2026_07_06_17_10_09.003,3.871,40.5,0,0.766,0,0,0,0, ,0,0,0,0,0, ,376.4,881.8,304.5,-27.1,-40.5,114.9,25,125.78,936.657,373.757,-1.5109,-21.0073,44.369,
2026_07_06_17_10_09.015,3.871,40.3,0,0.768,0,0,0,0, ,0,0,0,0,0, ,398.6,774.6,279.4,-18,-40.1,110.7,25,141.729,930.048,368.772,-2.79297,-22.183,48.539,
2026_07_06_17_10_09.036,3.871,40.5,0,0.768,0,0,0,0, ,0,0,0,0,0, ,424.8,694.3,275,-0.4,-46.7,110.1,25,158.18,918.129,363.192,-3.1834,-23.4759,52.3086,
2026_07_06_17_10_09.056,3.871,40.2,0,0.767,0,0,0,0, ,0,0,0,0,0, ,527.5,762.9,318.9,10,-45.1,117,25,177.557,906.58,359.155,-2.69691,-24.8424,56.0405,
2026_07_06_17_10_09.077,3.871,40.5,0,0.767,0,0,0,0, ,0,0,0,0,0, ,555.5,798.2,328.8,5.7,-42.3,137.6,25,199.734,898.9,357.004,-2.05421,-25.9915,60.3829,
2026_07_06_17_10_09.094,3.871,40.3,0,0.767,0,0,0,0, ,0,0,0,0,0, ,589.5,715.6,269.7,-13.1,-30.1,127.1,25,222.45,890.247,353.484,-2.1545,-26.6136,64.7684,
2026_07_06_17_10_09.117,3.871,40.5,0,0.767,0,0,0,0, ,0,0,0,0,0, ,602.1,694.8,239.9,-21.7,-19.6,98.6,25,245.201,878.97,347.471,-3.08352,-26.5061,67.6984,
2026_07_06_17_10_09.134,3.871,40.3,0,0.767,0,0,0,0, ,0,0,0,0,0, ,666.6,746.7,316.1,-16.2,-22.5,98.6,25,268.915,869.329,343.237,-4.05039,-26.1736,69.5814,
2026_07_06_17_10_09.155,3.871,40.3,0,0.768,0,0,0,0, ,0,0,0,0,0, ,661.9,679.5,288.2,-12.7,-37.9,130.1,25,293.005,859.809,340.734,-4.68411,-26.419,72.3095,
2026_07_06_17_10_09.174,3.871,40.2,0,0.766,0,0,0,0, ,0,0,0,0,0, ,663.3,637.3,314.2,-12.7,-44.5,137.8,25,315.528,847.535,338.325,-5.17258,-27.3197,76.0657,
2026_07_06_17_10_09.196,3.871,40.3,0,0.768,0,0,0,0, ,0,0,0,0,0, ,733.2,572.1,248,-10.1,-28.4,109.1,25,338.85,832.737,334.837,-5.55206,-27.8761,78.9532,
2026_07_06_17_10_09.213,3.871,40.3,0,0.766,0,0,0,0, ,0,0,0,0,0, ,756.9,580,280.1,-28.7,-22.1,92.6,25,363.603,817.096,330.524,-6.39592,-27.7161,80.2875,
2026_07_06_17_10_09.235,3.871,40.3,0,0.768,0,0,0,0, ,0,0,0,0,0, ,758.3,542.6,308.3,-31.4,-21.5,96.5,25,387.612,801.508,328.31,-7.83734,-27.3555,81.1567,
2026_07_06_17_10_09.256,3.871,40.3,0,0.767,0,0,0,0, ,0,0,0,0,0, ,750.3,533.9,285.1,-21.9,-34.6,97.4,25,409.957,785.466,326.384,-8.98374,-27.3979,82.1191,
2026_07_06_17_10_09.280,3.871,40.5,0,0.767,0,0,0,0, ,0,0,0,0,0, ,781.2,462.5,287.9,-7.9,-52.8,105.6,25,431.638,767.96,323.954,-9.34426,-28.3913,83.3001,
2026_07_06_17_10_09.292,3.871,40.5,0,0.768,0,0,0,0, ,0,0,0,0,0, ,840.6,371.3,207.1,0.3,-44,88.7,25,454.749,746.568,319.295,-9.00641,-29.6106,84.1441,
2026_07_06_17_10_09.314,3.871,40.3,0,0.768,0,0,0,0, ,0,0,0,0,0, ,826.7,438.7,294,4,-33.8,74.5,25,477.838,725.753,315.106,-8.32656,-30.1766,83.989,
2026_07_06_17_10_09.332,3.871,40.3,0,0.768,0,0,0,0, ,0,0,0,0,0, ,842.6,427.6,284.4,-7.2,-37.4,77.6,25,499.582,707.923,313.527,-7.91666,-30.5071,83.5053,
2026_07_06_17_10_09.354,3.871,40.3,0,0.765,0,0,0,0, ,0,0,0,0,0, ,862.9,381.5,211,-15.1,-42.1,66.2,25,521.103,689.436,309.516,-8.1137,-31.0704,82.7981,
2026_07_06_17_10_09.371,3.871,40.2,0,0.768,0,0,0,0, ,0,0,0,0,0, ,869.5,346.1,215.5,-2.2,-47.4,62.9,25,542.132,669.593,303.649,-8.14638,-31.904,81.6861,
2026_07_06_17_10_09.392,3.871,40.3,0,0.768,0,0,0,0, ,0,0,0,0,0, ,875.3,278.3,208.7,-3.3,-39.7,57.6,25,562.258,647.814,298.071,-7.81754,-32.6136,80.3798,
2026_07_06_17_10_09.411,3.871,40.5,0,0.768,0,0,0,0, ,0,0,0,0,0, ,881.1,308.3,225,-2.2,-37.6,52.7,25,581.511,626.211,293.121,-7.50873,-32.9815,78.8424,
2026_07_06_17_10_09.433,3.871,40.3,0,0.768,0,0,0,0, ,0,0,0,0,0, ,926.2,310.6,195.9,-4.5,-40.4,60,25,601.141,606.908,288.084,-7.25531,-33.3482,77.4717,
2026_07_06_17_10_09.450,3.871,40.3,0,0.766,0,0,0,0, ,0,0,0,0,0, ,931.1,244.5,177.8,-5,-40.3,49,25,621.099,586.838,281.915,-7.10264,-33.7749,76.0719,
2026_07_06_17_10_09.472,3.871,40.2,0,0.768,0,0,0,0, ,0,0,0,0,0, ,914.3,251.9,177.4,-6.8,-35.4,39.3,25,639.477,566.202,275.558,-7.02936,-34.0232,74.1267,
2026_07_06_17_10_09.490,3.871,40.3,0,0.766,0,0,0,0, ,0,0,0,0,0, ,930.7,242.3,169.3,3.1,-22.3,38.6,25,656.724,546.757,269.33,-6.71374,-33.708,71.9831,
2026_07_06_17_10_09.511,3.871,40.2,0,0.768,0,0,0,0, ,0,0,0,0,0, ,876.8,197.3,124.2,-8.5,-47.2,40.5,25,671.777,526.833,261.86,-6.46915,-33.7715,70.0067,
2026_07_06_17_10_09.530,3.871,40.5,0,0.768,0,0,0,0, ,0,0,0,0,0, ,964.1,215,105.8,-2.9,-43,43.1,25,686.931,507.291,252.911,-6.42228,-34.4618,68.2878,
2026_07_06_17_10_09.555,3.871,40.3,0,0.768,0,0,0,0, ,0,0,0,0,0, ,924.1,197,99.1,20,-37.6,45.7,25,702.602,488.931,243.742,-5.50991,-34.8176,66.8322,
2026_07_06_17_10_09.573,3.871,40.3,0,0.766,0,0,0,0, ,0,0,0,0,0, ,925.9,152.2,56.7,12.5,-52.4,40.1,25,716.154,469.777,233.636,-4.18391,-35.4381,65.3738,
2026_07_06_17_10_09.594,3.871,40.3,0,0.767,0,0,0,0, ,0,0,0,0,0, ,982.5,126.3,33.5,2.5,-46.2,36.5,25,730.66,449.635,222.147,-3.47193,-36.2828,63.724,
2026_07_06_17_10_09.609,3.871,40.3,0,0.766,0,0,0,0, ,0,0,0,0,0, ,904.2,130,85,9.3,-38.9,33.7,25,743.621,430.045,212.221,-2.90082,-36.6647,61.9797,
2026_07_06_17_10_09.632,3.871,40.3,0,0.768,0,0,0,0, ,0,0,0,0,0, ,989.2,154,-5.7,21.2,-40.6,37.7,25,755.996,412.492,201.705,-1.79476,-36.8527,60.3783,
2026_07_06_17_10_09.648,3.871,40.3,0,0.768,0,0,0,0, ,0,0,0,0,0, ,999.3,88.1,-51.8,17.2,-32.3,35.8,25,770.515,394.732,187.661,-0.51539,-36.8282,58.9385,
2026_07_06_17_10_09.671,3.871,40.2,0,0.768,0,0,0,0, ,0,0,0,0,0, ,912.2,59.4,10.8,1.6,-34.3,26.4,25,781.803,375.173,174.976,0.0888288,-36.6132,57.2421,
2026_07_06_17_10_09.688,3.871,40.5,0,0.766,0,0,0,0, ,0,0,0,0,0, ,960.3,78.4,-25.8,-1.3,-33.7,17.4,25,791.214,356.509,163.857,0.0925564,-36.4539,55.0884,
2026_07_06_17_10_09.710,3.871,40.3,0,0.766,0,0,0,0, ,0,0,0,0,0, ,963.7,90.9,-47.2,8.8,-32.5,23.5,25,801.621,339.943,151.647,0.315432,-36.2495,52.9776,
2026_07_06_17_10_09.728,3.871,40.2,0,0.766,0,0,0,0, ,0,0,0,0,0, ,922.1,94.1,12.8,24.7,-31.1,27.3,25,810.231,324.864,141.358,1.31691,-35.9784,51.2971,
2026_07_06_17_10_09.750,3.871,40.3,0,0.766,0,0,0,0, ,0,0,0,0,0, ,944.2,43.8,-45.6,24.6,-37.8,22.3,25,817.721,309.269,131.745,2.73877,-35.8853,49.6824,
2026_07_06_17_10_09.767,3.871,40.3,0,0.769,0,0,0,0, ,0,0,0,0,0, ,957.2,52.3,-64.9,8.3,-37.6,14.5,25,825.824,293.351,120.35,3.5743,-35.9959,47.7762,
2026_07_06_17_10_09.789,3.871,40.3,0,0.769,0,0,0,0, ,0,0,0,0,0, ,966,44,-101.9,5.1,-35.3,12.1,25,834.098,278.409,107.934,3.76477,-36.0235,45.6753,
2026_07_06_17_10_09.808,3.871,40.3,0,0.768,0,0,0,0, ,0,0,0,0,0, ,963.6,56,-110.4,8,-30.3,12.3,25,842.063,264.491,94.8882,3.9345,-35.8271,43.6354,
2026_07_06_17_10_09.831,3.871,40.3,0,0.768,0,0,0,0, ,0,0,0,0,0, ,991.8,41,-110.3,5.5,-22.7,12,25,850.328,251.329,82.3815,4.10607,-35.2587,41.7167,
2026_07_06_17_10_09.847,3.871,40.3,0,0.768,0,0,0,0, ,0,0,0,0,0, ,991.6,25.3,-114,2.8,-22.2,7,25,858.943,238.033,70.5272,4.10874,-34.4782,39.7535,
2026_07_06_17_10_09.869,3.871,40.3,0,0.766,0,0,0,0, ,0,0,0,0,0, ,982,29.6,-131.4,5.4,-22.3,0.1,25,866.734,225.201,58.7524,4.10821,-33.733,37.5474,
2026_07_06_17_10_09.886,3.871,40.3,0,0.766,0,0,0,0, ,0,0,0,0,0, ,1000.6,54.4,-142.9,11.6,-14.6,1.4,25,874.325,214.037,46.8146,4.37584,-32.8017,35.305,
2026_07_06_17_10_09.909,3.871,40.3,0,0.768,0,0,0,0, ,0,0,0,0,0, ,983.1,51.2,-153.3,9,-7.1,1.7,25,881.487,204.212,34.937,4.73684,-31.464,33.2481,
2026_07_06_17_10_09.925,3.871,40.3,0,0.766,0,0,0,0, ,0,0,0,0,0, ,996.3,36.8,-164.7,-2.1,-1.5,0.7,25,888.081,194.449,23.119,4.65842,-29.8087,31.2952,
2026_07_06_17_10_09.949,3.871,40.2,0,0.768,0,0,0,0, ,0,0,0,0,0, ,1006.5,13.3,-178.1,-5.1,6.3,-5.2,25,894.986,184.126,11.2655,4.15518,-27.846,29.251,
2026_07_06_17_10_09.965,3.871,40.3,0,0.766,0,0,0,0, ,0,0,0,0,0, ,982,4.8,-177,-4.1,19.1,-14.5,25,901.035,173.457,-0.240451,3.62166,-25.3752,26.8683,
2026_07_06_17_10_09.988,3.871,40.2,0,0.767,0,0,0,0, ,0,0,0,0,0, ,992.4,42.4,-174.9,-9.3,32.9,-19,25,906.286,164.326,-10.9478,2.99268,-22.2446,24.2103,
2026_07_06_17_10_10.005,3.871,40.3,0,0.766,0,0,0,0, ,0,0,0,0,0, ,1000.3,33.6,-196.6,-13.5,48.1,-22,25,911.774,156.628,-21.5998,2.11563,-18.4211,21.4858,
2026_07_06_17_10_10.026,3.871,40.2,0,0.768,0,0,0,0, ,0,0,0,0,0, ,1016.3,43.4,-190.1,-23,67.4,-24.6,25,917.656,149.429,-32.0658,0.874597,-13.7794,18.7566,
2026_07_06_17_10_10.045,3.871,40.3,0,0.766,0,0,0,0, ,0,0,0,0,0, ,1024.1,55.7,-152.7,-32.7,85.7,-26.9,25,923.905,143.343,-40.5565,-0.875808,-8.27495,16.0445,
2026_07_06_17_10_10.069,3.871,40.3,0,0.769,0,0,0,0, ,0,0,0,0,0, ,1023.1,65.5,-81.5,-47,97.4,-41.9,25,929.98,138.301,-45.2208,-3.2508,-2.19186,12.9705,
2026_07_06_17_10_10.084,3.871,40.3,0,0.768,0,0,0,0, ,0,0,0,0,0, ,1013.3,91.5,-63.1,-56.7,105.1,-49.3,25,935.356,134.657,-46.871,-6.21231,4.11162,9.4014,
2026_07_06_17_10_10.108,3.871,40.3,0,0.768,0,0,0,0, ,0,0,0,0,0, ,1040,126,-42.4,-55.6,119.3,-47,25,940.919,133.078,-47.2292,-9.25539,10.6983,5.89436,
2026_07_06_17_10_10.124,3.871,40.3,0,0.768,0,0,0,0, ,0,0,0,0,0, ,1027,139.7,-12.9,-60.1,137.6,-48.8,25,946.561,133.064,-46.0361,-12.2166,17.8738,2.61627,
2026_07_06_17_10_10.146,3.871,40.2,0,0.768,0,0,0,0, ,0,0,0,0,0, ,1007.4,146.4,17.9,-79.8,159,-55.4,25,950.865,133.673,-43.0784,-15.7347,25.8216,-0.718001,
2026_07_06_17_10_10.169,3.871,40.2,0,0.767,0,0,0,0, ,0,0,0,0,0, ,995.7,127.5,56.1,-90.9,177.6,-54.1,25,953.954,133.872,-38.1987,-19.9769,34.5039,-4.01058,
2026_07_06_17_10_10.193,3.871,40.2,0,0.766,0,0,0,0, ,0,0,0,0,0, ,960,112.1,168.8,-20.8,195.7,-45,25,955.41,133.015,-29.0185,-22.1629,43.7753,-6.78563,
2026_07_06_17_10_10.203,3.871,40.3,0,0.769,0,0,0,0, ,0,0,0,0,0, ,917.9,193.9,242.5,-31.1,203.3,-47.5,25,954.407,134.233,-14.7184,-22.3937,53.2648,-9.19049,
2026_07_06_17_10_10.226,3.871,40.3,0,0.766,0,0,0,0, ,0,0,0,0,0, ,854.7,180.7,335.6,-47.6,210.6,-47.9,25,950.257,137.466,3.79248,-23.427,62.63,-11.5372,
2026_07_06_17_10_10.242,3.871,40.3,0,0.768,0,0,0,0, ,0,0,0,0,0, ,804.5,206.6,423.8,-32.6,209.2,-47.2,25,942.904,140.89,26.6993,-24.443,71.6042,-13.7317,
2026_07_06_17_10_10.266,3.871,40.3,0,0.766,0,0,0,0, ,0,0,0,0,0, ,745.1,198.1,494.8,-24.9,197.2,-42.9,25,932.661,144.635,53.0609,-24.7055,79.6233,-15.6402,
2026_07_06_17_10_10.281,3.871,40.2,0,0.765,0,0,0,0, ,0,0,0,0,0, ,699.4,211.5,535.7,-11.3,179.8,-32.1,25,919.839,148.302,81.2256,-24.3029,86.258,-16.9722,
2026_07_06_17_10_10.304,3.871,40.2,0,0.768,0,0,0,0, ,0,0,0,0,0, ,635.8,219.9,611,6.1,159.1,-19.9,25,904.468,152.409,111.214,-22.9804,91.3275,-17.5224,
2026_07_06_17_10_10.322,3.871,40.2,0,0.768,0,0,0,0, ,0,0,0,0,0, ,625.3,218.6,667.4,12.5,142.9,-9.8,25,887.776,156.482,143.389,-21.0133,94.9638,-17.3595,
2026_07_06_17_10_10.351,3.871,40.2,0,0.767,0,0,0,0, ,0,0,0,0,0, ,575.1,236.6,736.6,13,131.3,-4,25,870.252,160.816,177.429,-18.9559,97.5315,-16.7221,
2026_07_06_17_10_10.360,3.871,40.3,0,0.766,0,0,0,0, ,0,0,0,0,0, ,550.9,241.9,738.8,16.4,116,-0.6,25,851.529,165.595,211.57,-16.905,99.1231,-15.8433,
2026_07_06_17_10_10.384,3.871,40.2,0,0.766,0,0,0,0, ,0,0,0,0,0, ,529.5,211.4,701,15.1,114.3,1.9,25,832.557,169.316,242.547,-14.9151,100.1,-14.8382,
2026_07_06_17_10_10.400,3.871,40.2,0,0.766,0,0,0,0, ,0,0,0,0,0, ,515.6,217.1,684.2,18.4,120.8,0.9,25,813.666,172.054,269.972,-12.9855,101.163,-13.8487,
2026_07_06_17_10_10.424,3.871,40.2,0,0.768,0,0,0,0, ,0,0,0,0,0, ,493.5,209.2,683.3,23.9,138,-3.7,25,794.829,174.558,295.186,-10.9053,102.884,-13.0901,
2026_07_06_17_10_10.440,3.871,40.2,0,0.768,0,0,0,0, ,0,0,0,0,0, ,438.4,192.2,694.3,26.4,158.7,-8.9,25,774.788,176.151,319.172,-8.70822,105.654,-12.6764,
2026_07_06_17_10_10.463,3.871,40.2,0,0.768,0,0,0,0, ,0,0,0,0,0, ,327.1,206.6,711.1,36.1,160.9,-13.7,25,750.898,177.568,342.544,-6.27326,108.954,-12.5925,
2026_07_06_17_10_10.480,3.871,40.2,0,0.769,0,0,0,0, ,0,0,0,0,0, ,314.8,269,764,37.5,163.2,-14.5,25,724.698,181.238,366.614,-3.64849,112.189,-12.6843,
2026_07_06_17_10_10.503,3.871,40.3,0,0.766,0,0,0,0, ,0,0,0,0,0, ,255.4,279.1,787.1,41.3,159.5,-6.1,25,697.91,186.894,391.534,-1.02522,115.185,-12.539,
2026_07_06_17_10_10.518,3.871,40.2,0,0.767,0,0,0,0, ,0,0,0,0,0, ,149.4,300.1,799.3,48.1,164.1,-7.3,25,667.715,193.153,416.01,1.76116,118.026,-12.1832,
2026_07_06_17_10_10.542,3.871,40.5,0,0.766,0,0,0,0, ,0,0,0,0,0, ,9.3,277.7,825.8,49,160.1,-8.5,25,631.862,198.987,440.174,4.61235,120.712,-11.9222,
2026_07_06_17_10_10.559,3.871,40.1,0,0.768,0,0,0,0, ,0,0,0,0,0, ,114.7,359,918.2,59.4,140.4,-3,25,597.136,206.261,466.489,7.6341,122.512,-11.5461,
2026_07_06_17_10_10.583,3.871,40.3,0,0.766,0,0,0,0, ,0,0,0,0,0, ,-7.9,377.6,948.4,55.6,127.3,3.3,25,564.002,216.135,494.935,10.6728,123.202,-10.8334,
2026_07_06_17_10_10.598,3.871,40.2,0,0.766,0,0,0,0, ,0,0,0,0,0, ,-33.5,366.2,1013.5,55.2,99.2,9.4,25,528.372,225.627,524.552,13.3984,122.596,-9.78626,
2026_07_06_17_10_10.621,3.871,40.2,0,0.767,0,0,0,0, ,0,0,0,0,0, ,-67.8,427,989.7,53.9,72.9,15.1,25,493.087,236.046,553.622,15.906,120.369,-8.44343,
2026_07_06_17_10_10.639,3.871,40.2,0,0.768,0,0,0,0, ,0,0,0,0,0, ,-118.8,448.1,993.2,42.4,60.6,15.2,25,457.354,248.325,580.302,17.8709,117.102,-7.0057,
2026_07_06_17_10_10.662,3.871,40.2,0,0.769,0,0,0,0, ,0,0,0,0,0, ,-143.5,460.8,1015.6,39.9,58.8,11.4,25,421.492,260.886,606.145,19.2895,113.604,-5.76832,
2026_07_06_17_10_10.678,3.871,40.2,0,0.768,0,0,0,0, ,0,0,0,0,0, ,-162.8,476.3,1061.1,40.4,43.2,11.3,25,386.475,273.54,632.483,20.5607,109.789,-4.72517,
2026_07_06_17_10_10.702,3.871,40.2,0,0.767,0,0,0,0, ,0,0,0,0,0, ,-135.8,522.3,1075.5,32,29,9.6,25,353.826,287.297,659.04,21.5137,105.298,-3.80044,
2026_07_06_17_10_10.717,3.871,40.2,0,0.765,0,0,0,0, ,0,0,0,0,0, ,-110.1,527.9,1051.2,22.1,27.1,8.8,25,324.773,301.789,683.678,21.8511,100.591,-3.00822,
2026_07_06_17_10_10.742,3.871,40.2,0,0.767,0,0,0,0, ,0,0,0,0,0, ,-124.8,501.2,1019,16.5,21.9,10.4,25,297.825,314.754,705.093,21.6956,95.9542,-2.23991,
2026_07_06_17_10_10.756,3.871,40.2,0,0.767,0,0,0,0, ,0,0,0,0,0, ,-116.6,501.2,1004.1,15.9,14.1,5.9,25,272.321,326.115,723.768,21.3607,91.2039,-1.60678,
2026_07_06_17_10_10.782,3.871,40.2,0,0.767,0,0,0,0, ,0,0,0,0,0, ,-99.8,533.6,1009.8,8.7,10.5,-1.4,25,249.133,337.772,741.024,20.8086,86.3957,-1.37175,
2026_07_06_17_10_10.796,3.871,40.2,0,0.767,0,0,0,0, ,0,0,0,0,0, ,-91.7,545.7,997.8,1.9,4.1,-2,25,228.117,350.074,757.037,19.8635,81.5758,-1.39176,
2026_07_06_17_10_10.821,3.871,40.1,0,0.766,0,0,0,0, ,0,0,0,0,0, ,-76,519.4,963.1,-0.8,-3.4,1.1,25,209.106,361.193,770.651,18.6866,76.6261,-1.33437,
2026_07_06_17_10_10.836,3.871,40.2,0,0.766,0,0,0,0, ,0,0,0,0,0, ,-40.1,518,933.7,-1.2,-8,2.5,25,192.826,370.791,781.483,17.487,71.6093,-1.14337,
2026_07_06_17_10_10.860,3.871,40.2,0,0.768,0,0,0,0, ,0,0,0,0,0, ,-46.8,499.3,919.5,-2.7,-4.7,0,25,178.428,379.192,790.326,16.3025,66.8587,-0.997521,
2026_07_06_17_10_10.875,3.871,40.2,0,0.768,0,0,0,0, ,0,0,0,0,0, ,-60.9,494.3,957.5,-2,-16.6,-1,25,164.274,386.359,799.355,15.1659,62.1355,-0.967203,
2026_07_06_17_10_10.900,3.871,40.1,0,0.767,0,0,0,0, ,0,0,0,0,0, ,-67.9,499.7,992.4,-3.6,-31.7,-3.7,25,150.339,393.101,810.055,14.0711,56.8775,-1.05147,
2026_07_06_17_10_10.916,3.871,40.1,0,0.766,0,0,0,0, ,0,0,0,0,0, ,-75.9,503.4,1017.4,-9.7,-54.3,0,25,136.796,399.71,821.929,12.8084,50.7912,-1.10013,
2026_07_06_17_10_10.941,3.871,40.1,0,0.768,0,0,0,0, ,0,0,0,0,0, ,-91,466.9,995.9,-6.4,-89.2,9.2,25,123.375,404.916,833.185,11.5373,43.3238,-0.752776,
2026_07_06_17_10_10.955,3.871,40.2,0,0.768,0,0,0,0, ,0,0,0,0,0, ,-75.5,435.5,993.2,5.2,-118,3.9,25,110.784,407.737,843.018,10.7977,34.3707,-0.307764,
2026_07_06_17_10_10.978,3.871,40.2,0,0.768,0,0,0,0, ,0,0,0,0,0, ,12.4,512.4,982.2,6,-125.7,-0.8,25,102.11,411.771,851.835,10.481,24.851,-0.194556,
2026_07_06_17_10_10.994,3.871,40.1,0,0.768,0,0,0,0, ,0,0,0,0,0, ,155.3,606.3,919.4,-7.7,-116.5,13.4,25,100.998,420.765,857.866,9.7905,15.9571,0.201206,
2026_07_06_17_10_11.018,3.871,40.1,0,0.768,0,0,0,0, ,0,0,0,0,0, ,142.8,530.3,867.5,-19.7,-102,25.6,25,103.926,429.755,860.034,8.35904,8.32729,1.37723,
2026_07_06_17_10_11.034,3.871,40.2,0,0.768,0,0,0,0, ,0,0,0,0,0, ,132.2,424.5,910.7,-6.9,-114.8,27.7,25,105.972,432.658,861.805,7.0392,1.21422,2.91729,
2026_07_06_17_10_11.059,3.871,40.1,0,0.767,0,0,0,0, ,0,0,0,0,0, ,118.6,301.1,858.2,8.2,-140.3,18.1,25,107.156,428.401,863.185,6.64986,-6.63235,4.13498,
2026_07_06_17_10_11.074,3.871,40.2,0,0.768,0,0,0,0, ,0,0,0,0,0, ,285.8,516.2,881.4,47.9,-161.5,7.8,25,112.947,427.198,863.588,7.95393,-15.4237,4.67215,
2026_07_06_17_10_11.099,3.871,40.2,0,0.768,0,0,0,0, ,0,0,0,0,0, ,454.9,666.2,756.1,-17.7,-121.6,34.9,25,128.633,437.192,860.856,8.38939,-23.1095,5.68845,
2026_07_06_17_10_11.114,3.871,40.1,0,0.766,0,0,0,0, ,0,0,0,0,0, ,342.7,442.5,724.6,-26.6,-99.8,30.4,25,145.096,444.331,853.513,6.5284,-28.447,7.33142,
2026_07_06_17_10_11.138,3.871,40.1,0,0.768,0,0,0,0, ,0,0,0,0,0, ,363.6,350.9,726.4,-3,-119.2,34.6,25,157.775,441.428,845.712,5.2287,-33.3862,8.86513,
2026_07_06_17_10_11.153,3.871,40.1,0,0.768,0,0,0,0, ,0,0,0,0,0, ,347.1,274.6,683.9,19,-135.4,27.3,25,169.814,433.587,837.146,5.39757,-39.1091,10.2109,
2026_07_06_17_10_11.177,3.871,40.1,0,0.768,0,0,0,0, ,0,0,0,0,0, ,500.2,481.2,713.1,45.2,-152.1,32.8,25,185.282,430.194,828.698,7.02475,-45.4856,11.4199,
2026_07_06_17_10_11.198,3.871,40.1,0,0.768,0,0,0,0, ,0,0,0,0,0, ,616.8,552.8,629,13.6,-134.1,52.4,25,208.025,435.483,819.091,8.38824,-51.434,13.3199,
2026_07_06_17_10_11.222,3.871,40.2,0,0.767,0,0,0,0, ,0,0,0,0,0, ,605.2,484.1,618.1,3.6,-120.8,51,25,232.582,440.539,807.175,8.40115,-56.0662,15.6587,
2026_07_06_17_10_11.232,3.871,40.1,0,0.766,0,0,0,0, ,0,0,0,0,0, ,588.1,345.8,571.4,9,-111,44.3,25,254.767,438.98,794.231,8.27311,-59.7123,17.6082,
2026_07_06_17_10_11.257,3.871,40.2,0,0.768,0,0,0,0, ,0,0,0,0,0, ,568.1,265.5,546.5,31.3,-123.2,42.1,25,274.47,430.855,779.893,8.99686,-63.2094,19.1677,
2026_07_06_17_10_11.272,3.871,40.2,0,0.766,0,0,0,0, ,0,0,0,0,0, ,574.7,318.1,533.8,62.8,-145.6,38.1,25,292.564,422.381,765.284,11.3157,-67.5476,20.4432,
2026_07_06_17_10_11.296,3.871,40.1,0,0.767,0,0,0,0, ,0,0,0,0,0, ,789,551,535.1,57.3,-148.3,59,25,316.286,423.123,751.217,14.2855,-72.3862,22.156,
2026_07_06_17_10_11.311,3.871,40.1,0,0.768,0,0,0,0, ,0,0,0,0,0, ,786.9,480.1,471.4,22.4,-114.7,60.7,25,345.028,428.755,736.107,15.8433,-75.9884,24.453,
2026_07_06_17_10_11.335,3.871,40.2,0,0.767,0,0,0,0, ,0,0,0,0,0, ,731,340.2,426.8,13.4,-97.6,45.1,25,370.252,427.621,718.617,15.9686,-77.8264,26.1865,
2026_07_06_17_10_11.351,3.871,40.2,0,0.767,0,0,0,0, ,0,0,0,0,0, ,731.9,273.6,404.5,30.9,-106.1,42.9,25,392.262,420.265,700.155,16.3453,-79.2903,27.272,
2026_07_06_17_10_11.375,3.871,40.1,0,0.766,0,0,0,0, ,0,0,0,0,0, ,769.2,339.4,375.8,57.2,-125.9,51.8,25,414.095,413.332,681.264,18.0336,-81.5273,28.4955,
2026_07_06_17_10_11.391,3.871,40.1,0,0.767,0,0,0,0, ,0,0,0,0,0, ,873.7,430.2,325,46.1,-122.6,65.6,25,438.919,411.594,661.102,20.0821,-84.1307,30.3361,
2026_07_06_17_10_11.415,3.871,40.1,0,0.767,0,0,0,0, ,0,0,0,0,0, ,849.2,369.6,287.2,29.3,-102.4,56.1,25,464.667,410.881,639.469,21.1557,-85.8595,32.1955,
2026_07_06_17_10_11.431,3.871,40.1,0,0.768,0,0,0,0, ,0,0,0,0,0, ,834.9,290.6,265.5,27.3,-102.1,48.3,25,487.663,405.959,617.342,21.591,-86.8583,33.4145,
2026_07_06_17_10_11.457,3.871,40.1,0,0.767,0,0,0,0, ,0,0,0,0,0, ,848.6,265,207.8,33.4,-103.3,44.1,25,509.241,398.149,594.143,22.1248,-87.8236,34.1936,
2026_07_06_17_10_11.469,3.871,40.1,0,0.767,0,0,0,0, ,0,0,0,0,0, ,898.9,304.6,176.6,32.1,-95.7,43.8,25,531.453,391.242,569.65,22.7722,-88.5352,34.7882,
2026_07_06_17_10_11.494,3.871,40.1,0,0.767,0,0,0,0, ,0,0,0,0,0, ,910.2,285.5,145,19.6,-80,39.6,25,554.188,385.38,544.736,22.9598,-88.4934,35.2094,
2026_07_06_17_10_11.509,3.871,40.2,0,0.767,0,0,0,0, ,0,0,0,0,0, ,896.1,245.9,108.6,17,-71.2,37.1,25,575.453,378.087,519.268,22.6758,-87.7077,35.4007,
2026_07_06_17_10_11.537,3.871,40.2,0,0.768,0,0,0,0, ,0,0,0,0,0, ,885.2,220.4,102.9,32,-81.4,38.9,25,594.661,369.255,494.069,22.787,-87.0126,35.5591,
2026_07_06_17_10_11.549,3.871,40.2,0,0.767,0,0,0,0, ,0,0,0,0,0, ,902.8,243.1,100.9,39.9,-88.9,41.2,25,612.902,360.876,470.171,23.5891,-86.8991,35.8328,
2026_07_06_17_10_11.574,3.871,40.1,0,0.767,0,0,0,0, ,0,0,0,0,0, ,910.6,260.8,61.8,26.8,-85.6,37.7,25,630.805,354.238,446.477,24.1839,-86.9204,36.0532,
2026_07_06_17_10_11.588,3.871,40.2,0,0.766,0,0,0,0, ,0,0,0,0,0, ,921.5,218.2,20.9,8,-71.3,21.9,25,648.187,347.246,421.79,23.7705,-86.4043,35.6722,
2026_07_06_17_10_11.613,3.871,40.1,0,0.769,0,0,0,0, ,0,0,0,0,0, ,912.4,175,-4.6,2.5,-58.4,10.9,25,664.565,338.066,396.584,22.6419,-85.0908,34.4978,
2026_07_06_17_10_11.628,3.871,40.1,0,0.768,0,0,0,0, ,0,0,0,0,0, ,902.8,149.2,-29.1,10.1,-53.3,7,25,679.375,327.343,371.39,21.6461,-83.309,32.941,
2026_07_06_17_10_11.654,3.871,40.2,0,0.767,0,0,0,0, ,0,0,0,0,0, ,908.4,192.5,-49.8,14.2,-53.1,2.3,25,693.16,317.807,346.355,21.0674,-81.4742,31.217,
2026_07_06_17_10_11.668,3.871,40.1,0,0.767,0,0,0,0, ,0,0,0,0,0, ,909.3,216,-53.5,8.7,-47.5,5.7,25,706.304,310.887,322.101,20.4814,-79.5745,29.5584,
2026_07_06_17_10_11.692,3.871,40.1,0,0.766,0,0,0,0, ,0,0,0,0,0, ,883.9,190.7,-57.1,-0.7,-41.4,1.9,25,717.9,304.334,299.103,19.477,-77.4341,27.9888,
2026_07_06_17_10_11.706,3.871,40.1,0,0.768,0,0,0,0, ,0,0,0,0,0, ,868.2,166.3,-64.2,2.3,-39.8,-9.8,25,727.537,296.666,277.181,18.3389,-75.1895,26.0425,
2026_07_06_17_10_11.733,3.871,40.1,0,0.768,0,0,0,0, ,0,0,0,0,0, ,895.1,184.3,-79.4,7.8,-41.8,-15,25,736.929,289.27,255.915,17.5291,-73.0939,23.6999,
2026_07_06_17_10_11.747,3.871,40.1,0,0.768,0,0,0,0, ,0,0,0,0,0, ,935.9,252.3,-99.7,10,-40.9,-10.4,25,747.81,284.946,234.863,17.0033,-71.1595,21.4818,
2026_07_06_17_10_11.773,3.871,40.1,0,0.768,0,0,0,0, ,0,0,0,0,0, ,973.2,286.6,-104.3,2.9,-33.4,-9.5,25,760.408,284.001,214.335,16.3602,-69.0871,19.5664,
2026_07_06_17_10_11.787,3.871,40,0,0.767,0,0,0,0, ,0,0,0,0,0, ,981.8,281.2,-118,-5.9,-26.2,-15.9,25,773.637,283.995,194.501,15.2718,-66.693,17.6002,
2026_07_06_17_10_11.812,3.871,40.1,0,0.767,0,0,0,0, ,0,0,0,0,0, ,985.2,261.2,-141.3,-7.8,-24.8,-20.9,25,786.426,283.215,174.748,13.9238,-64.1828,15.4064,
2026_07_06_17_10_11.826,3.871,40.1,0,0.767,0,0,0,0, ,0,0,0,0,0, ,1006.9,286.8,-172.2,-7,-22.5,-20.9,25,799.2,282.654,154.548,12.6244,-61.7128,13.194,
2026_07_06_17_10_11.852,3.871,40.1,0,0.766,0,0,0,0, ,0,0,0,0,0, ,1029.1,317.1,-183.3,-11.2,-11.2,-18.1,25,812.533,283.83,134.298,11.3005,-58.979,11.2017,
2026_07_06_17_10_11.866,3.871,40,0,0.767,0,0,0,0, ,0,0,0,0,0, ,1008.6,316.6,-185.6,-11.5,-3.9,-18,25,825.106,285.842,114.874,9.92027,-55.8451,9.41919,
2026_07_06_17_10_11.893,3.871,40.1,0,0.766,0,0,0,0, ,0,0,0,0,0, ,979,296.3,-167.9,-7.7,-3.8,-16.6,25,835.385,287.098,97.1036,8.73075,-52.6766,7.79099,
2026_07_06_17_10_11.906,3.871,40,0,0.767,0,0,0,0, ,0,0,0,0,0, ,958.3,283.4,-163.3,-6.1,-5.8,-16,25,843.506,287.265,81.0951,7.77825,-49.7591,6.32295,
2026_07_06_17_10_11.932,3.871,40.1,0,0.768,0,0,0,0, ,0,0,0,0,0, ,928.3,271.3,-159.7,-2.9,-8.5,-19.7,25,849.587,286.661,66.312,7.03005,-47.1626,4.84991,
2026_07_06_17_10_11.944,3.871,40.1,0,0.767,0,0,0,0, ,0,0,0,0,0, ,944.7,322.6,-167.3,-1.8,-8.9,-22,25,854.884,287.288,52.3078,6.45845,-44.8188,3.28382,
2026_07_06_17_10_11.978,3.871,40.1,0,0.767,0,0,0,0, ,0,0,0,0,0, ,995.2,364.7,-180.5,-4.6,-6.9,-14.5,25,861.895,290.723,38.5233,5.86989,-42.5691,1.9716,
2026_07_06_17_10_11.984,3.871,40.1,0,0.767,0,0,0,0, ,0,0,0,0,0, ,981,333.4,-185.1,-7.6,-2.3,-12.1,25,869.586,294.277,25.0364,5.14047,-40.2553,1.04099,
2026_07_06_17_10_12.010,3.871,40,0,0.767,0,0,0,0, ,0,0,0,0,0, ,975.5,324,-162.9,-5,-0.4,-14.4,25,876.208,296.375,12.9076,4.44332,-37.8845,0.170132,
2026_07_06_17_10_12.024,3.871,40,0,0.768,0,0,0,0, ,0,0,0,0,0, ,983.7,336.3,-168.7,-4.5,-1.8,-17.4,25,882.508,298.433,2.0176,3.8831,-35.643,-0.809142,
2026_07_06_17_10_12.050,3.871,40.1,0,0.767,0,0,0,0, ,0,0,0,0,0, ,1040.5,377.3,-190.5,-1.8,-1,-10.1,25,890.405,301.99,-9.04972,3.45452,-33.5563,-1.59773,
2026_07_06_17_10_12.064,3.871,40.1,0,0.768,0,0,0,0, ,0,0,0,0,0, ,1029.2,384.2,-181.2,-6.3,5.3,-4.9,25,899.207,306.789,-19.8235,2.99721,-31.3805,-1.9574,
2026_07_06_17_10_12.090,3.871,40.1,0,0.768,0,0,0,0, ,0,0,0,0,0, ,1019.8,376.5,-169.5,-6.4,6,-1.9,25,906.842,311.272,-29.3009,2.42762,-29.1239,-2.0453,
2026_07_06_17_10_12.103,3.871,40.1,0,0.768,0,0,0,0, ,0,0,0,0,0, ,1011.3,349.7,-168,-2.4,0.3,3.5,25,913.467,314.43,-37.7986,2.01156,-27.1572,-1.87192,
2026_07_06_17_10_12.129,3.871,40,0,0.767,0,0,0,0, ,0,0,0,0,0, ,1000.6,353.3,-173.2,8.4,-8,3.7,25,919.102,316.689,-45.8911,2.07179,-25.7369,-1.53847,
2026_07_06_17_10_12.143,3.871,40,0,0.768,0,0,0,0, ,0,0,0,0,0, ,997,355.3,-177.2,13.9,-14.7,7.4,25,923.959,318.981,-53.7709,2.625,-24.8602,-1.10652,
2026_07_06_17_10_12.170,3.871,40,0,0.767,0,0,0,0, ,0,0,0,0,0, ,983.7,374.1,-167.9,21.2,-30,18.8,25,928.005,321.767,-61.009,3.53449,-24.7073,-0.24081,
2026_07_06_17_10_12.183,3.871,40,0,0.767,0,0,0,0, ,0,0,0,0,0, ,965.2,345.4,-176.7,34.1,-52.3,33.9,25,930.835,324.081,-67.7908,5.00403,-25.7092,1.37957,
2026_07_06_17_10_12.208,3.871,40,0,0.767,0,0,0,0, ,0,0,0,0,0, ,926.6,320.1,-197,44.6,-75.1,47.8,25,931.753,324.61,-75.046,7.09699,-28.0243,3.7848,
2026_07_06_17_10_12.222,3.871,40.1,0,0.766,0,0,0,0, ,0,0,0,0,0, ,905.6,288.4,-202.2,69.8,-113.3,57.4,25,930.799,323.369,-82.636,10.1501,-32.0569,6.75947,
2026_07_06_17_10_12.248,3.871,40.1,0,0.766,0,0,0,0, ,0,0,0,0,0, ,886.9,237.6,-252,100.1,-147.7,60.7,25,928.694,319.69,-91.4393,14.7083,-38.0558,9.94593,
2026_07_06_17_10_12.261,3.871,40,0,0.767,0,0,0,0, ,0,0,0,0,0, ,884.7,241.3,-331.4,107.6,-158.7,58.3,25,926.08,314.801,-103.643,20.1403,-45.0724,12.9656,
2026_07_06_17_10_12.289,3.871,40,0,0.766,0,0,0,0, ,0,0,0,0,0, ,951.6,271.1,-370.7,89.7,-155.6,68.1,25,925.597,311.23,-118.719,24.9245,-51.9021,16.0268,
2026_07_06_17_10_12.302,3.871,40,0,0.767,0,0,0,0, ,0,0,0,0,0, ,888.5,198.7,-401.6,87.5,-147.6,82.6,25,925.259,306.578,-135.016,28.8047,-57.9774,19.6418,
2026_07_06_17_10_12.328,3.871,40,0,0.767,0,0,0,0, ,0,0,0,0,0, ,811.7,135.4,-456,75.6,-148.5,82.1,25,920.679,298.076,-152.918,32.0189,-63.4662,23.4631,
2026_07_06_17_10_12.341,3.871,40.1,0,0.767,0,0,0,0, ,0,0,0,0,0, ,774.4,62.7,-465,70.6,-154.6,77.3,25,912.901,285.948,-171.661,34.5223,-68.8338,26.89,
2026_07_06_17_10_12.367,3.871,40.1,0,0.767,0,0,0,0, ,0,0,0,0,0, ,729.4,20.8,-500.6,59,-153.4,72.1,25,903.09,271.067,-190.621,36.3673,-74.0236,29.8034,
2026_07_06_17_10_12.380,3.871,40,0,0.767,0,0,0,0, ,0,0,0,0,0, ,694.4,-23.3,-538.8,65.6,-151.5,68.1,25,891.44,254.473,-210.675,37.9476,-78.8028,32.259,
2026_07_06_17_10_12.407,3.871,40,0,0.768,0,0,0,0, ,0,0,0,0,0, ,679.6,-61.1,-591,65.8,-155.2,68.5,25,878.982,236.394,-232.26,39.6388,-83.3455,34.4553,
2026_07_06_17_10_12.420,3.871,40,0,0.767,0,0,0,0, ,0,0,0,0,0, ,646.9,-68.7,-627.6,68.9,-159.8,70.2,25,865.835,218.034,-255.236,41.3274,-87.8643,36.5817,
2026_07_06_17_10_12.446,3.871,40,0,0.767,0,0,0,0, ,0,0,0,0,0, ,598.5,-61.1,-652.3,61.3,-164.1,62.1,25,851.019,200.793,-278.68,42.7761,-92.3789,38.3835,
2026_07_06_17_10_12.459,3.871,40.1,0,0.767,0,0,0,0, ,0,0,0,0,0, ,564.2,-119.9,-674.9,49.8,-162.1,54.2,25,834.586,183.042,-302.136,43.5545,-96.6884,39.588,
2026_07_06_17_10_12.486,3.871,40,0,0.769,0,0,0,0, ,0,0,0,0,0, ,544.9,-157.7,-714.9,41,-148.1,50.4,25,817.522,163.43,-326.07,43.6669,-100.248,40.3626,
2026_07_06_17_10_12.500,3.871,40,0,0.766,0,0,0,0, ,0,0,0,0,0, ,507.9,-170.7,-764.7,27.5,-133.5,45.5,25,799.781,143.465,-351.281,43.0931,-102.719,40.825,
2026_07_06_17_10_12.525,3.871,40,0,0.767,0,0,0,0, ,0,0,0,0,0, ,451.4,-192.5,-799.3,15,-124.4,41.5,25,780.273,123.656,-377.528,41.762,-104.317,40.988,
2026_07_06_17_10_12.540,3.871,40,0,0.767,0,0,0,0, ,0,0,0,0,0, ,382.8,-222.4,-823.9,4.1,-129,36.8,25,758.143,103.479,-403.98,39.7991,-105.681,40.876,
2026_07_06_17_10_12.567,3.871,40,0,0.767,0,0,0,0, ,0,0,0,0,0, ,359.7,-219.4,-823.7,-8.7,-131.7,36,25,734.566,83.7126,-429.562,37.2337,-107.185,40.6032,
2026_07_06_17_10_12.579,3.871,40,0,0.769,0,0,0,0, ,0,0,0,0,0, ,338.9,-178.2,-824.4,-15.7,-127.3,40.7,25,711.089,66.497,-453.601,34.2213,-108.545,40.4659,
2026_07_06_17_10_12.604,3.871,39.9,0,0.768,0,0,0,0, ,0,0,0,0,0, ,305.7,-189.9,-856.8,-12.2,-125,42.8,25,687.397,51.2293,-477.184,31.2859,-109.617,40.5442,
2026_07_06_17_10_12.618,3.871,40,0,0.768,0,0,0,0, ,0,0,0,0,0, ,217.5,-237.5,-936.4,-9.9,-133.1,39.5,25,661.45,35.0851,-502.742,28.706,-110.802,40.5811,
2026_07_06_17_10_12.645,3.871,40.1,0,0.767,0,0,0,0, ,0,0,0,0,0, ,206.7,-270.3,-953.8,-10.2,-132.3,32.6,25,634.068,17.4751,-529.699,26.3443,-112.136,40.305,
2026_07_06_17_10_12.657,3.871,40,0,0.768,0,0,0,0, ,0,0,0,0,0, ,183.1,-227.1,-976.9,-11.3,-114.5,28.5,25,607.306,1.25507,-556.246,24.0839,-112.822,39.7105,
2026_07_06_17_10_12.684,3.871,40,0,0.767,0,0,0,0, ,0,0,0,0,0, ,126.2,-231.2,-981.5,-21.4,-96.8,22.7,25,579.722,-12.7852,-582.02,21.62,-112.385,38.8507,
2026_07_06_17_10_12.697,3.871,40,0,0.768,0,0,0,0, ,0,0,0,0,0, ,78,-253.2,-994.9,-22.3,-88.8,22.9,25,550.617,-26.7652,-606.771,18.971,-111.192,37.8726,
2026_07_06_17_10_12.725,3.871,40,0,0.768,0,0,0,0, ,0,0,0,0,0, ,54.5,-243.6,-990.6,-18.8,-80.9,20,25,521.101,-40.2711,-630.292,16.5627,-109.587,36.8718,
2026_07_06_17_10_12.743,3.871,40,0,0.767,0,0,0,0, ,0,0,0,0,0, ,24.2,-238.5,-974.9,-22,-72.3,10.1,25,491.745,-52.506,-651.77,14.3103,-107.576,35.5421,
2026_07_06_17_10_12.771,3.871,40,0,0.767,0,0,0,0, ,0,0,0,0,0, ,-12,-200.4,-978.2,-18.2,-72.1,9.4,25,462.151,-62.6792,-671.561,12.2134,-105.421,33.9704,
2026_07_06_17_10_12.775,3.871,40,0,0.767,0,0,0,0, ,0,0,0,0,0, ,10.7,-189.4,-1054.1,-14.9,-68.3,15.6,25,433.949,-70.7364,-692.56,10.4606,-103.274,32.662,
2026_07_06_17_10_12.805,3.871,39.9,0,0.768,0,0,0,0, ,0,0,0,0,0, ,33,-213.5,-1079.4,-16.7,-45.9,11.8,25,408.836,-78.7017,-715.362,8.86039,-100.461,31.5065,
2026_07_06_17_10_12.816,3.871,40,0,0.766,0,0,0,0, ,0,0,0,0,0, ,-2.3,-203.4,-1060.7,-24.4,-22.4,6.7,25,384.858,-86.6083,-736.976,7.06819,-96.4199,30.1503,
2026_07_06_17_10_12.847,3.871,40,0,0.767,0,0,0,0, ,0,0,0,0,0, ,-63.8,-210.5,-1036.9,-18.7,-18.5,6.7,25,359.392,-93.9416,-755.977,5.32427,-91.7905,28.7213,
2026_07_06_17_10_12.855,3.871,40,0,0.766,0,0,0,0, ,0,0,0,0,0, ,-79.5,-186.5,-1050.7,-11.3,-22.6,8.1,25,333.125,-100.313,-773.517,4.08576,-87.4493,27.422,
2026_07_06_17_10_12.884,3.871,39.9,0,0.768,0,0,0,0, ,0,0,0,0,0, ,-54.4,-164,-1069.8,-7.2,-18.3,9.7,25,308.746,-104.88,-790.989,3.27311,-83.3665,26.2933,
2026_07_06_17_10_12.896,3.871,40,0,0.764,0,0,0,0, ,0,0,0,0,0, ,-36.3,-158,-1074,-7.6,-5.2,9.3,25,287.168,-108.299,-808.107,2.62272,-79.0024,25.27,
2026_07_06_17_10_12.923,3.871,39.9,0,0.767,0,0,0,0, ,0,0,0,0,0, ,-52.9,-198.6,-1079.7,-3.3,6.2,8.2,25,266.951,-112.565,-824.484,2.13079,-74.1577,24.2633,
2026_07_06_17_10_12.935,3.871,40,0,0.766,0,0,0,0, ,0,0,0,0,0, ,-98.9,-203.7,-1057.4,0.9,9.2,3.2,25,246.059,-117.963,-839.357,1.92782,-69.1695,23.1321,
2026_07_06_17_10_12.963,3.871,40.1,0,0.767,0,0,0,0, ,0,0,0,0,0, ,-92.8,-166.6,-1013.9,7.9,0,1.1,25,225.223,-122.057,-851.318,2.07847,-64.6742,21.8535,
2026_07_06_17_10_12.975,3.871,40,0,0.768,0,0,0,0, ,0,0,0,0,0, ,-55.9,-145.2,-1021.3,7.7,1.4,0.9,25,206.968,-124.12,-861.451,2.42712,-60.6904,20.5827,
2026_07_06_17_10_13.002,3.871,40.1,0,0.767,0,0,0,0, ,0,0,0,0,0, ,-16.7,-148,-1028.5,7.6,13.6,2.9,25,192.144,-125.49,-871.411,2.74539,-56.5351,19.4443,
2026_07_06_17_10_13.014,3.871,39.9,0,0.767,0,0,0,0, ,0,0,0,0,0, ,5.1,-179.8,-1058.9,6.5,28.9,4.7,25,180.082,-127.83,-881.91,3.0077,-51.795,18.4909,
2026_07_06_17_10_13.042,3.871,39.9,0,0.768,0,0,0,0, ,0,0,0,0,0, ,0.8,-213.5,-1078.7,3.7,47,-0.1,25,169.288,-132.024,-893.299,3.1352,-46.3262,17.5043,
2026_07_06_17_10_13.053,3.871,39.9,0,0.768,0,0,0,0, ,0,0,0,0,0, ,1.7,-204.3,-1050.7,4.4,61.1,-8,25,159.048,-136.709,-903.743,3.19095,-40.2095,16.1908,
2026_07_06_17_10_13.082,3.871,40,0,0.768,0,0,0,0, ,0,0,0,0,0, ,66.4,-189.5,-1070.1,2.8,74.4,-16,25,151.431,-140.376,-913.29,3.21587,-33.6308,14.473,
2026_07_06_17_10_13.093,3.871,39.9,0,0.768,0,0,0,0, ,0,0,0,0,0, ,155.5,-201.6,-1133.3,17.8,92.4,-11.4,25,148.964,-143.739,-924.771,3.64756,-26.4992,12.7562,
2026_07_06_17_10_13.121,3.871,39.9,0,0.767,0,0,0,0, ,0,0,0,0,0, ,193.2,-226.4,-1116.6,36,120.6,-4.7,25,150.511,-148.02,-936.969,5.06451,-18.3946,11.4883,
2026_07_06_17_10_13.132,3.871,39.9,0,0.767,0,0,0,0, ,0,0,0,0,0, ,183.7,-263.9,-1045.5,50.3,153.4,-11.1,25,152.823,-153.939,-945.749,7.38534,-8.9252,10.3068,
2026_07_06_17_10_13.160,3.871,39.9,0,0.767,0,0,0,0, ,0,0,0,0,0, ,119.9,-210.2,-998.9,43.9,169.5,-31.9,25,152.761,-159.004,-950.408,9.80546,1.45704,8.36859,
2026_07_06_17_10_13.173,3.871,40,0,0.767,0,0,0,0, ,0,0,0,0,0, ,191.8,-189.9,-952.1,-9.7,173.8,-68.2,25,152.949,-161.505,-951.937,10.25,11.8282,4.8087,
2026_07_06_17_10_13.201,3.871,39.9,0,0.768,0,0,0,0, ,0,0,0,0,0, ,339.4,-182.1,-961.3,-25.2,194.6,-64.2,25,159.814,-162.998,-952.227,8.562,22.3321,0.481611,
2026_07_06_17_10_13.217,3.871,39.9,0,0.766,0,0,0,0, ,0,0,0,0,0, ,347.5,-185.9,-941.8,-19.2,209.7,-50.7,25,171.004,-164.277,-952.186,6.68744,33.2897,-3.0486,
2026_07_06_17_10_13.245,3.871,40,0,0.769,0,0,0,0, ,0,0,0,0,0, ,364.2,-238.6,-868.6,-14.1,205.8,-52.7,25,182.268,-167.201,-949.323,5.26532,43.9209,-6.01329,
2026_07_06_17_10_13.251,3.871,39.9,0,0.767,0,0,0,0, ,0,0,0,0,0, ,383.4,-205.3,-840.2,-10,195.7,-60.6,25,193.939,-170.537,-943.538,4.21016,53.4777,-9.09896,
2026_07_06_17_10_13.279,3.871,39.9,0,0.768,0,0,0,0, ,0,0,0,0,0, ,397.4,-149.2,-826.2,-14.8,190.4,-69.9,25,205.911,-170.946,-936.815,3.19798,61.9829,-12.5207,
2026_07_06_17_10_13.292,3.871,39.9,0,0.767,0,0,0,0, ,0,0,0,0,0, ,598.5,-135.2,-804.1,43,188.7,-66.1,25,223.707,-169.194,-929.401,3.86232,69.7565,-15.9014,
2026_07_06_17_10_13.321,3.871,39.9,0,0.767,0,0,0,0, ,0,0,0,0,0, ,643,-164.1,-763.3,24.5,187.3,-57.2,25,247.902,-168.003,-920.522,5.6836,76.9619,-18.6892,
2026_07_06_17_10_13.331,3.871,39.9,0,0.767,0,0,0,0, ,0,0,0,0,0, ,663.2,-175.2,-681.2,-11.2,185.5,-62.1,25,272.594,-168.104,-908.44,5.74249,83.6308,-21.1853,
2026_07_06_17_10_13.359,3.871,39.9,0,0.766,0,0,0,0, ,0,0,0,0,0, ,712.7,-101.9,-607.1,-27.6,188.6,-74.3,25,297.905,-166.303,-892.335,4.21037,89.9329,-24.0502,
2026_07_06_17_10_13.370,3.871,39.8,0,0.766,0,0,0,0, ,0,0,0,0,0, ,738.6,-35.5,-617.3,-69.2,183.6,-85.3,25,323.97,-160.355,-875.264,1.00443,95.7931,-27.4475,
2026_07_06_17_10_13.400,3.871,39.8,0,0.768,0,0,0,0, ,0,0,0,0,0, ,810.3,-35.8,-563.9,-95.1,173.7,-84.7,25,351.422,-152.756,-857.917,-4.06279,100.842,-30.9546,
2026_07_06_17_10_13.410,3.871,39.9,0,0.767,0,0,0,0, ,0,0,0,0,0, ,834.3,-68.7,-513.9,-93.8,172.8,-74.8,25,380.116,-146.631,-838.477,-9.57076,105.255,-33.9281,
2026_07_06_17_10_13.438,3.871,39.9,0,0.767,0,0,0,0, ,0,0,0,0,0, ,823.9,8,-425.5,-66.5,164.3,-64.5,25,407.476,-139.545,-816.005,-13.8717,109.112,-36.1049,
2026_07_06_17_10_13.449,3.871,39.9,0,0.767,0,0,0,0, ,0,0,0,0,0, ,819.3,60.9,-352.5,-55.2,155.6,-62.2,25,432.711,-128.943,-789.984,-16.7344,112.21,-37.7651,
2026_07_06_17_10_13.478,3.871,39.9,0,0.767,0,0,0,0, ,0,0,0,0,0, ,826,97.7,-319.9,-61.2,149.6,-64.3,25,456.473,-116.253,-762.332,-19.2612,114.671,-39.3181,
2026_07_06_17_10_13.488,3.871,40,0,0.767,0,0,0,0, ,0,0,0,0,0, ,806,83.7,-262.3,-71.5,142.1,-68.7,25,478.382,-103.642,-733.616,-22.1307,116.571,-40.9745,
2026_07_06_17_10_13.519,3.871,39.9,0,0.768,0,0,0,0, ,0,0,0,0,0, ,809.3,82.5,-204.3,-69.2,124.9,-62.1,25,498.447,-92.262,-703.128,-25.0691,117.602,-42.4629,
2026_07_06_17_10_13.528,3.871,39.8,0,0.767,0,0,0,0, ,0,0,0,0,0, ,826.2,140.3,-155.3,-55.3,106.9,-51,25,517.904,-79.8514,-671.238,-27.3348,117.499,-43.3214,
2026_07_06_17_10_13.558,3.871,39.9,0,0.766,0,0,0,0, ,0,0,0,0,0, ,841,220.4,-86.3,-51.7,98.8,-47.4,25,537.142,-63.9954,-637.695,-28.9292,116.606,-43.6796,
2026_07_06_17_10_13.568,3.871,39.9,0,0.766,0,0,0,0, ,0,0,0,0,0, ,789.3,192.6,-32.9,-59.7,87.4,-58.2,25,554.083,-47.5121,-602.468,-30.5606,115.174,-44.2354,
2026_07_06_17_10_13.597,3.871,39.9,0,0.768,0,0,0,0, ,0,0,0,0,0, ,821,174.9,12.5,-56.1,58.8,-60.9,25,569.382,-33.4195,-566.376,-32.2266,112.61,-45.1686,
2026_07_06_17_10_13.608,3.871,39.8,0,0.768,0,0,0,0, ,0,0,0,0,0, ,849.2,205,1.3,-26.1,28.6,-55.9,25,585.575,-19.808,-531.442,-32.7673,108.411,-45.9749,
2026_07_06_17_10_13.637,3.871,39.9,0,0.769,0,0,0,0, ,0,0,0,0,0, ,919.6,289.5,-34.5,-3.4,8.4,-44.1,25,603.784,-3.53411,-500.069,-31.6694,102.932,-46.2202,
2026_07_06_17_10_13.647,3.871,39.9,0,0.766,0,0,0,0, ,0,0,0,0,0, ,953.3,340.8,-36,-23,5.9,-30.9,25,624.056,15.8857,-471.744,-30.5439,97.095,-45.6888,
2026_07_06_17_10_13.675,3.871,39.9,0,0.767,0,0,0,0, ,0,0,0,0,0, ,953.9,307.7,-28.8,-40.2,12.9,-33.4,25,644.138,34.6766,-444.972,-30.6082,91.7511,-44.8638,
2026_07_06_17_10_13.688,3.871,39.9,0,0.768,0,0,0,0, ,0,0,0,0,0, ,951.6,298.3,-47.9,-17.5,15.2,-36.7,25,662.944,51.0276,-420.193,-30.5011,87.0162,-44.2657,
2026_07_06_17_10_13.717,3.871,39.9,0,0.767,0,0,0,0, ,0,0,0,0,0, ,954.9,306.6,-51.2,-9,16.8,-41.6,25,680.634,66.3487,-397.607,-29.4499,82.6886,-43.954,
2026_07_06_17_10_13.732,3.871,40,0,0.767,0,0,0,0, ,0,0,0,0,0, ,973.2,358.8,-36.2,-6.4,17.7,-38.8,25,697.905,82.5794,-376.041,-28.1245,78.701,-43.7252,
2026_07_06_17_10_13.761,3.871,39.9,0,0.767,0,0,0,0, ,0,0,0,0,0, ,1005.3,420.7,-13.6,-9.5,21.5,-34.8,25,715.659,101.298,-354.643,-26.8951,75.0995,-43.3032,
2026_07_06_17_10_13.767,3.871,39.8,0,0.767,0,0,0,0, ,0,0,0,0,0, ,1008.3,418.3,-11.9,-20.6,30.4,-34.3,25,733.4,120.688,-333.809,-26.1733,72.1044,-42.7698,
2026_07_06_17_10_13.795,3.871,39.9,0,0.767,0,0,0,0, ,0,0,0,0,0, ,976.3,399.9,-4.7,-21.5,32,-33.4,25,749.177,138.263,-313.973,-25.8611,69.6118,-42.2263,
2026_07_06_17_10_13.806,3.871,39.9,0,0.768,0,0,0,0, ,0,0,0,0,0, ,979.1,417.4,13.6,-9.6,22,-27.2,25,763.102,154.74,-294.57,-25.2328,67.0152,-41.4995,
2026_07_06_17_10_13.835,3.871,39.9,0,0.766,0,0,0,0, ,0,0,0,0,0, ,1000.2,463.2,36.7,0.8,7.9,-19,25,776.908,172.141,-275.087,-23.9633,63.8425,-40.3783,
2026_07_06_17_10_13.846,3.871,39.9,0,0.768,0,0,0,0, ,0,0,0,0,0, ,1030.8,498.7,47.4,-1.4,6,-9.9,25,791.447,190.959,-255.761,-22.5213,60.3756,-38.7983,
2026_07_06_17_10_13.875,3.871,39.9,0,0.767,0,0,0,0, ,0,0,0,0,0, ,1009.7,500.6,64.4,-12.5,9.8,-7,25,805.39,209.77,-236.769,-21.5724,57.1778,-36.9489,
2026_07_06_17_10_13.886,3.871,39.9,0,0.767,0,0,0,0, ,0,0,0,0,0, ,1001.5,480.1,73.3,-17.5,9.5,-5.2,25,817.59,226.868,-218.146,-21.1719,54.2816,-35.0691,
2026_07_06_17_10_13.916,3.871,39.9,0,0.767,0,0,0,0, ,0,0,0,0,0, ,1000.7,468.2,57.8,-18.8,3,-5,25,828.773,241.937,-200.858,-20.9878,51.3547,-33.2428,
2026_07_06_17_10_13.925,3.871,39.9,0,0.768,0,0,0,0, ,0,0,0,0,0, ,1017.5,451.5,40.7,-16.1,-1.4,-1.5,25,839.761,255.216,-185.617,-20.7722,48.274,-31.4152,
2026_07_06_17_10_13.953,3.871,39.9,0,0.767,0,0,0,0, ,0,0,0,0,0, ,1019.8,452.3,39.1,-12.8,5,-5.7,25,850.662,267.201,-171.875,-20.3869,45.442,-29.7202,
2026_07_06_17_10_13.964,3.871,39.8,0,0.768,0,0,0,0, ,0,0,0,0,0, ,1006.7,456.7,42.2,-16.3,10.8,-10.9,25,860.57,278.615,-158.924,-20.0312,43.1543,-28.4149,
2026_07_06_17_10_13.993,3.871,39.9,0,0.77,0,0,0,0, ,0,0,0,0,0, ,967.7,437.6,53.5,-27.8,20.1,-27.2,25,868.287,288.885,-146.324,-20.1542,41.4661,-27.8442,
2026_07_06_17_10_14.003,3.871,39.9,0,0.768,0,0,0,0, ,0,0,0,0,0, ,926.1,361.4,26.4,-34.6,27.4,-46.9,25,873.077,295.625,-134.972,-20.8273,40.3865,-28.4052,
2026_07_06_17_10_14.033,3.871,39.9,0,0.768,0,0,0,0, ,0,0,0,0,0, ,857.1,318.7,15.9,-28.5,28.8,-70.3,25,874.206,298.333,-125.459,-21.4808,39.6378,-30.2452,
2026_07_06_17_10_14.045,3.871,39.8,0,0.767,0,0,0,0, ,0,0,0,0,0, ,792.9,344.4,33.5,-2.1,22.5,-88.4,25,871.207,300.357,-116.308,-21.1041,38.7854,-33.2375,
2026_07_06_17_10_14.074,3.871,39.9,0,0.765,0,0,0,0, ,0,0,0,0,0, ,799.8,423.5,69,1,11.9,-102.1,25,866.646,305.451,-106.098,-19.8516,37.47,-37.0164,
2026_07_06_17_10_14.083,3.871,39.9,0,0.766,0,0,0,0, ,0,0,0,0,0, ,738.1,437.3,102.2,2.9,8.3,-110.6,25,860.692,313.065,-94.4163,-18.5231,35.8022,-41.2414,
2026_07_06_17_10_14.112,3.871,39.9,0,0.768,0,0,0,0, ,0,0,0,0,0, ,676.8,427.8,83.2,-4.4,-0.8,-132.8,25,851.354,320.346,-83.0139,-17.44,33.849,-46.1444,
2026_07_06_17_10_14.123,3.871,39.8,0,0.767,0,0,0,0, ,0,0,0,0,0, ,645.3,406.6,69.8,3.4,-9.6,-150.9,25,839.757,326.248,-73.2935,-16.4077,31.4694,-51.9764,
2026_07_06_17_10_14.152,3.871,39.9,0,0.767,0,0,0,0, ,0,0,0,0,0, ,654.4,522.5,7.9,-5.7,2,-164.3,25,828.185,334.676,-66.4598,-15.478,29.3202,-58.4129,
2026_07_06_17_10_14.162,3.871,39.9,0,0.768,0,0,0,0, ,0,0,0,0,0, ,719.3,620.7,-16.7,0.7,30,-165.3,25,819.572,349.113,-62.678,-14.6871,28.5085,-64.8958,
2026_07_06_17_10_14.192,3.871,39.9,0,0.767,0,0,0,0, ,0,0,0,0,0, ,713.8,669,67.6,-33.4,54.1,-162.7,25,813.294,367.135,-57.3077,-14.7885,29.3337,-70.935,
2026_07_06_17_10_14.201,3.871,39.8,0,0.767,0,0,0,0, ,0,0,0,0,0, ,601.1,669.9,92.1,-39.1,54.1,-143.2,25,803.798,385.557,-48.9497,-16.0963,30.8429,-75.9328,
2026_07_06_17_10_14.232,3.871,39.8,0,0.767,0,0,0,0, ,0,0,0,0,0, ,533.2,608.1,116.6,-34.3,39.4,-142.1,25,789.377,401.001,-39.608,-17.3518,31.8122,-79.9984,
2026_07_06_17_10_14.241,3.871,39.9,0,0.766,0,0,0,0, ,0,0,0,0,0, ,535.7,684.4,114.3,-27,32.7,-152.6,25,773.842,415.946,-30.1591,-18.1622,32.0705,-84.1026,
2026_07_06_17_10_14.270,3.871,39.9,0,0.768,0,0,0,0, ,0,0,0,0,0, ,521.7,714.2,175.9,-36.2,36.3,-142.5,25,758.904,433.213,-19.4793,-18.981,32.2185,-87.9689,
2026_07_06_17_10_14.283,3.871,39.8,0,0.767,0,0,0,0, ,0,0,0,0,0, ,482.2,767,183.9,-42.3,49.2,-127.9,25,743.246,451.944,-7.3296,-20.2162,32.8603,-90.8471,
2026_07_06_17_10_14.312,3.871,39.9,0,0.767,0,0,0,0, ,0,0,0,0,0, ,398.9,782.5,185.9,-33.2,59.2,-125,25,724.8,471.615,4.38439,-21.2846,34.1607,-93.0166,
2026_07_06_17_10_14.320,3.871,39.9,0,0.763,0,0,0,0, ,0,0,0,0,0, ,363.2,872.4,255.1,-2.8,48.7,-108.4,25,703.853,493.299,17.5539,-21.0845,35.3666,-94.4598,
2026_07_06_17_10_14.349,3.871,39.9,0,0.768,0,0,0,0, ,0,0,0,0,0, ,345,869.2,332.3,8.6,35.7,-79.8,25,682.54,516.303,34.3816,-19.6229,35.783,-94.4379,
2026_07_06_17_10_14.360,3.871,39.8,0,0.766,0,0,0,0, ,0,0,0,0,0, ,321.6,896.4,291.3,14,39.7,-68.1,25,661.258,538.636,51.2868,-17.7386,35.8998,-93.1894,
2026_07_06_17_10_14.391,3.871,39.8,0,0.767,0,0,0,0, ,0,0,0,0,0, ,246.4,917.9,260.4,12.9,36.7,-85.5,25,638.269,561.093,64.9711,-15.838,36.04,-92.1907,
2026_07_06_17_10_14.400,3.871,39.8,0,0.767,0,0,0,0, ,0,0,0,0,0, ,266.3,927.4,292.2,-7.5,50.1,-105.1,25,614.996,583.125,77.8489,-14.7084,36.4885,-92.3802,
2026_07_06_17_10_14.429,3.871,39.8,0,0.768,0,0,0,0, ,0,0,0,0,0, ,136.1,954.3,307.9,-7.7,60.1,-104.7,25,589.78,604.924,91.3893,-14.2752,37.6226,-93.1431,
2026_07_06_17_10_14.440,3.871,39.9,0,0.767,0,0,0,0, ,0,0,0,0,0, ,206,1095.8,400,-28.9,43.4,-107.1,25,564.264,630.525,107.389,-14.5204,38.4835,-93.9205,
2026_07_06_17_10_14.469,3.871,39.8,0,0.767,0,0,0,0, ,0,0,0,0,0, ,93.8,887,282.7,-44.1,36,-119.2,25,539.013,652.516,121.646,-15.8598,38.5576,-95.0923,
2026_07_06_17_10_14.478,3.871,39.8,0,0.766,0,0,0,0, ,0,0,0,0,0, ,137.4,937.2,294,-41.4,51.4,-112.9,25,513.212,668.335,131.805,-17.4984,38.871,-96.3694,
2026_07_06_17_10_14.510,3.871,39.9,0,0.767,0,0,0,0, ,0,0,0,0,0, ,100.9,1010.9,282.7,-26.6,50.2,-94.1,25,489.199,686.964,141.344,-18.504,39.5979,-96.8039,
2026_07_06_17_10_14.519,3.871,39.8,0,0.766,0,0,0,0, ,0,0,0,0,0, ,25.3,1000,313.2,-15.9,42,-78.1,25,463.233,706.372,150.887,-18.6713,39.9941,-96.1516,
2026_07_06_17_10_14.548,3.871,39.8,0,0.767,0,0,0,0, ,0,0,0,0,0, ,-33.6,968.7,403.6,-11.8,40.1,-56.5,25,434.752,723.311,163.533,-18.3775,40.0585,-94.3935,
2026_07_06_17_10_14.558,3.871,39.7,0,0.767,0,0,0,0, ,0,0,0,0,0, ,19.2,960.3,364,2.1,33.9,-40.9,25,407.821,738.009,176.955,-17.5532,39.8721,-91.609,
2026_07_06_17_10_14.590,3.871,39.8,0,0.766,0,0,0,0, ,0,0,0,0,0, ,-55.5,995.8,387.5,-7.7,36,-37.5,25,381.863,752.636,189.069,-16.6542,39.5722,-88.4154,
2026_07_06_17_10_14.597,3.871,39.8,0,0.768,0,0,0,0, ,0,0,0,0,0, ,-69,974.7,336.5,-9.3,24.8,-42.1,25,354.8,766.811,199.607,-16.1573,39.0132,-85.4529,
2026_07_06_17_10_14.628,3.871,39.8,0,0.767,0,0,0,0, ,0,0,0,0,0, ,-52.8,981.8,355.3,-9,25.9,-38.6,25,329.468,779.696,208.522,-15.7303,38.1806,-82.7044,
2026_07_06_17_10_14.637,3.871,39.8,0,0.767,0,0,0,0, ,0,0,0,0,0, ,-70.8,979.2,342.7,-7.5,26.1,-35.8,25,305.625,791.932,217.082,-15.2745,37.4384,-79.9315,
2026_07_06_17_10_14.668,3.871,39.9,0,0.767,0,0,0,0, ,0,0,0,0,0, ,-106.3,985.2,344.4,-4.3,20.4,-32.6,25,281.605,803.527,224.789,-14.7032,36.5738,-77.1447,
2026_07_06_17_10_14.678,3.871,39.8,0,0.768,0,0,0,0, ,0,0,0,0,0, ,-101.1,964.1,360.5,-4.9,13.1,-29.6,25,258.126,813.954,232.568,-14.0875,35.3658,-74.3389,
2026_07_06_17_10_14.707,3.871,39.8,0,0.766,0,0,0,0, ,0,0,0,0,0, ,-99.3,948.2,320.3,4.3,11,-22,25,236.29,822.619,239.139,-13.2474,33.945,-71.381,
2026_07_06_17_10_14.717,3.871,39.8,0,0.768,0,0,0,0, ,0,0,0,0,0, ,-93.8,973.2,352,15.4,7.9,-10.1,25,216.008,831.034,245.051,-11.8399,32.4523,-68.0093,
2026_07_06_17_10_14.746,3.871,39.8,0,0.767,0,0,0,0, ,0,0,0,0,0, ,-115.4,976.8,361.9,18.5,3.2,-0.7,25,196.471,839.807,251.87,-10.0855,30.8129,-64.194,
2026_07_06_17_10_14.756,3.871,39.8,0,0.766,0,0,0,0, ,0,0,0,0,0, ,-118.8,984.3,360.7,11.1,3.6,-1.2,25,177.363,848.383,258.538,-8.56902,29.1425,-60.3401,
2026_07_06_17_10_14.787,3.871,39.8,0,0.768,0,0,0,0, ,0,0,0,0,0, ,-115.8,983.2,311.7,22.8,-1.4,-5.7,25,159.407,856.632,263.271,-7.01396,27.4336,-56.8734,
2026_07_06_17_10_14.796,3.871,39.8,0,0.767,0,0,0,0, ,0,0,0,0,0, ,-108.3,964.2,321.5,8.9,-5.4,-1,25,142.865,863.766,266.52,-5.62068,25.5547,-53.6118,
2026_07_06_17_10_14.826,3.871,39.8,0,0.767,0,0,0,0, ,0,0,0,0,0, ,-94.7,982.5,333.6,7,-1.6,1.9,25,127.974,870.444,270.239,-4.79372,23.7842,-50.3174,
2026_07_06_17_10_14.841,3.871,39.8,0,0.767,0,0,0,0, ,0,0,0,0,0, ,-121.4,979.2,318.9,3.7,-3.3,5.4,25,113.591,877.172,273.653,-4.17559,22.1855,-47.0288,
2026_07_06_17_10_14.874,3.871,39.8,0,0.767,0,0,0,0, ,0,0,0,0,0, ,-119.1,958.6,303.3,2.4,-5.9,-0.5,25,99.3413,882.761,275.934,-3.73528,20.5533,-44.0136,
2026_07_06_17_10_14.880,3.871,39.7,0,0.767,0,0,0,0, ,0,0,0,0,0, ,-88.9,968.7,325.3,-1.5,-4.1,-4,25,86.9502,887.69,278.272,-3.48024,18.9961,-41.4687,
2026_07_06_17_10_14.910,3.871,39.7,0,0.767,0,0,0,0, ,0,0,0,0,0, ,-95.2,926.8,293.2,-1,-3.2,1.1,25,76.0424,891.35,280.16,-3.34433,17.6161,-39.03,
2026_07_06_17_10_14.916,3.871,39.8,0,0.767,0,0,0,0, ,0,0,0,0,0, ,-87.8,937,300.6,5.1,-4.5,6.7,25,65.8328,893.821,281.18,-3.01562,16.308,-36.414,
2026_07_06_17_10_14.947,3.871,39.7,0,0.767,0,0,0,0, ,0,0,0,0,0, ,-93.7,947,293,0.3,0.1,4.4,25,56.291,896.757,282.132,-2.66732,15.1802,-33.8568,
2026_07_06_17_10_14.954,3.871,39.8,0,0.767,0,0,0,0, ,0,0,0,0,0, ,-91.6,939.9,294,-1.7,2.6,0.4,25,47.2149,899.603,282.825,-2.54744,14.3374,-31.6474,
2026_07_06_17_10_14.984,3.871,39.8,0,0.767,0,0,0,0, ,0,0,0,0,0, ,-89.5,932.6,302,1.4,1.2,4.2,25,38.8199,901.836,283.749,-2.40134,13.5795,-29.5787,
2026_07_06_17_10_14.993,3.871,39.9,0,0.767,0,0,0,0, ,0,0,0,0,0, ,-98.9,955.9,296.7,7.4,-4.1,4.1,25,30.714,904.42,284.7,-1.98689,12.6637,-27.5234,
2026_07_06_17_10_15.024,3.871,39.8,0,0.767,0,0,0,0, ,0,0,0,0,0, ,-93.5,957.8,308.4,2.9,-2.6,2.2,25,22.9801,907.615,285.788,-1.55198,11.6878,-25.6542,
2026_07_06_17_10_15.033,3.871,39.8,0,0.767,0,0,0,0, ,0,0,0,0,0, ,-86.6,967.4,310,-0.7,-1.7,0.6,25,16.0924,910.966,287.215,-1.39038,10.8446,-24.0056,
2026_07_06_17_10_15.065,3.871,39.7,0,0.768,0,0,0,0, ,0,0,0,0,0, ,-85.3,975.2,321.4,-5.2,0,1.8,25,9.87416,914.643,288.95,-1.48542,10.132,-22.4697,
2026_07_06_17_10_15.073,3.871,39.8,0,0.767,0,0,0,0, ,0,0,0,0,0, ,-98.7,963.8,322.1,-2.9,-1.4,2.9,25,3.6662,917.985,290.949,-1.6417,9.47188,-20.9572,
2026_07_06_17_10_15.104,3.871,39.8,0,0.768,0,0,0,0, ,0,0,0,0,0, ,-80,989.2,331.2,-1.8,-6.3,10.9,25,-2.00197,921.551,293.125,-1.68486,8.66008,-19.2597,
2026_07_06_17_10_15.113,3.871,39.7,0,0.768,0,0,0,0, ,0,0,0,0,0, ,-40.1,1050.1,344.1,-2.1,-9.9,23,25,-5.53927,927.529,295.838,-1.70101,7.63876,-17.0531,
2026_07_06_17_10_15.143,3.871,39.8,0,0.766,0,0,0,0, ,0,0,0,0,0, ,19.2,1098.1,374.7,-15.3,-6.2,44.9,25,-5.83852,936.461,299.711,-2.12752,6.68273,-13.9451,
2026_07_06_17_10_15.152,3.871,39.7,0,0.767,0,0,0,0, ,0,0,0,0,0, ,-12.8,1000.4,357.7,-22.1,0,76.3,25,-5.28773,943.334,303.763,-3.1374,6.08659,-9.40253,
2026_07_06_17_10_15.182,3.871,39.8,0,0.767,0,0,0,0, ,0,0,0,0,0, ,-26.7,997.5,307.9,-10.3,-1,90.9,25,-6.16903,946.723,305.532,-3.9334,5.68522,-3.73519,
2026_07_06_17_10_15.191,3.871,39.7,0,0.768,0,0,0,0, ,0,0,0,0,0, ,24.5,1109,401.1,2.5,-14.1,114.4,25,-5.86013,953.214,308.516,-3.93137,4.8787,2.74765,
2026_07_06_17_10_15.222,3.871,39.7,0,0.766,0,0,0,0, ,0,0,0,0,0, ,104.3,1146.9,454.2,8.4,-38.9,167.5,25,-1.57866,963.862,315.776,-3.35969,2.96656,11.1694,
2026_07_06_17_10_15.231,3.871,39.7,0,0.766,0,0,0,0, ,0,0,0,0,0, ,130.7,1046.1,440.6,-8.3,-62.2,201,25,5.6777,971.945,323.797,-3.15191,-0.294604,21.7165,
2026_07_06_17_10_15.263,3.871,39.8,0,0.768,0,0,0,0, ,0,0,0,0,0, ,168.3,963.3,254.8,-15,-52.7,189.7,25,14.4419,973.941,325.253,-3.66976,-3.77751,32.2973,
2026_07_06_17_10_15.271,3.871,39.7,0,0.768,0,0,0,0, ,0,0,0,0,0, ,302.2,1047.3,309.9,-6.9,-44.8,183.4,25,27.8974,975.852,322.639,-4.1134,-6.51802,41.697,
2026_07_06_17_10_15.303,3.871,39.7,0,0.767,0,0,0,0, ,0,0,0,0,0, ,310.4,1016.1,379.8,-11.5,-45.9,200,25,44.8625,979.255,323.992,-4.42337,-8.88435,50.8378,
2026_07_06_17_10_15.310,3.871,39.8,0,0.767,0,0,0,0, ,0,0,0,0,0, ,309.4,892.5,285.4,-12.4,-53.6,202.5,25,61.0132,977.734,324.517,-4.88202,-11.3746,60.0036,
2026_07_06_17_10_15.343,3.871,39.7,0,0.767,0,0,0,0, ,0,0,0,0,0, ,300.4,853.3,253.7,-9.3,-58.9,192.9,25,75.8751,971.346,321.167,-5.2457,-14.1092,68.3944,
2026_07_06_17_10_15.351,3.871,39.7,0,0.767,0,0,0,0, ,0,0,0,0,0, ,442,869.3,276.9,-7.4,-62.3,168.1,25,93.8714,964.64,317.763,-5.43486,-16.9422,75.2259,
2026_07_06_17_10_15.382,3.871,39.7,0,0.767,0,0,0,0, ,0,0,0,0,0, ,510.8,841.9,284.7,-37.2,-54.1,154.3,25,117.182,957.996,315.511,-6.46258,-19.4564,80.4649,
2026_07_06_17_10_15.389,3.871,39.7,0,0.766,0,0,0,0, ,0,0,0,0,0, ,549.9,787.3,238.4,-56.1,-44.5,140.2,25,142.359,949.257,312.222,-8.9115,-21.275,84.5346,
2026_07_06_17_10_15.421,3.871,39.7,0,0.767,0,0,0,0, ,0,0,0,0,0, ,611.5,702.1,236.5,-67,-30.7,126,25,169.071,936.792,307.666,-12.1192,-22.2698,87.4941,
2026_07_06_17_10_15.429,3.871,39.7,0,0.764,0,0,0,0, ,0,0,0,0,0, ,596.8,625.6,277.4,-65.4,-22,111.1,25,195.583,920.16,304.575,-15.4147,-22.5184,89.3866,
2026_07_06_17_10_15.462,3.871,39.6,0,0.767,0,0,0,0, ,0,0,0,0,0, ,625.9,605.7,334.7,-47.3,-31.8,109.9,25,220.919,901.604,304.665,-17.9092,-22.7854,90.6732,
2026_07_06_17_10_15.468,3.871,39.8,0,0.767,0,0,0,0, ,0,0,0,0,0, ,661.1,608,328.6,-26.7,-54.5,121,25,246.67,883.642,306.31,-19.0726,-24.0264,92.183,
2026_07_06_17_10_15.499,3.871,39.7,0,0.767,0,0,0,0, ,0,0,0,0,0, ,719.2,555.7,284.4,-8.9,-64.2,119.7,25,273.695,865.252,306.321,-18.995,-26.1789,93.8994,
2026_07_06_17_10_15.509,3.871,39.7,0,0.767,0,0,0,0, ,0,0,0,0,0, ,746.9,510.2,252.1,-10,-61,110.4,25,301.687,845.002,304.001,-18.4134,-28.3983,95.1883,
2026_07_06_17_10_15.539,3.871,39.7,0,0.767,0,0,0,0, ,0,0,0,0,0, ,781.1,521.7,282.8,-15.5,-64.7,114.8,25,329.859,824.95,301.774,-18.0682,-30.4977,96.2493,
2026_07_06_17_10_15.553,3.871,39.7,0,0.767,0,0,0,0, ,0,0,0,0,0, ,769.2,505.6,362,-23,-67.8,112,25,356.994,805.981,303.031,-18.1403,-32.6764,97.2944,
2026_07_06_17_10_15.586,3.871,39.8,0,0.766,0,0,0,0, ,0,0,0,0,0, ,858.7,439.9,229.1,-25.1,-54,101.4,25,384.84,785.674,302.575,-18.5004,-34.3963,97.8676,
2026_07_06_17_10_15.591,3.871,39.7,0,0.767,0,0,0,0, ,0,0,0,0,0, ,889.1,413.9,227.9,-24.8,-39.4,101.3,25,414.642,763.812,298.061,-18.8934,-35.146,98.0798,
2026_07_06_17_10_15.623,3.871,39.8,0,0.768,0,0,0,0, ,0,0,0,0,0, ,918,396.9,256.4,-38.1,-35,97.8,25,444.434,741.971,294.654,-19.6586,-35.2712,98.1694,
2026_07_06_17_10_15.628,3.871,39.6,0,0.768,0,0,0,0, ,0,0,0,0,0, ,890.5,364.9,234,-38.5,-40.2,85.2,25,472.454,719.968,291.64,-20.7945,-35.4131,97.763,
2026_07_06_17_10_15.660,3.871,39.8,0,0.767,0,0,0,0, ,0,0,0,0,0, ,922.4,348.8,216.5,-14.6,-42.6,82,25,498.901,697.841,287.595,-21.1453,-35.7779,96.8999,
2026_07_06_17_10_15.666,3.871,39.7,0,0.768,0,0,0,0, ,0,0,0,0,0, ,963.5,292.7,201.1,-12.3,-41,85.6,25,525.96,674.862,282.793,-20.6763,-36.1449,96.1016,
2026_07_06_17_10_15.698,3.871,39.7,0,0.768,0,0,0,0, ,0,0,0,0,0, ,959.7,234.7,201,-8.9,-32.6,85.1,25,552.507,649.806,277.812,-20.0623,-36.1848,95.4465,
2026_07_06_17_10_15.706,3.871,39.7,0,0.767,0,0,0,0, ,0,0,0,0,0, ,950.9,230.9,223.2,-11,-26.4,76.9,25,577.052,624.395,273.808,-19.4461,-35.7775,94.5661,
2026_07_06_17_10_15.737,3.871,39.7,0,0.767,0,0,0,0, ,0,0,0,0,0, ,932.1,209.7,197.5,-13.2,-30.4,67.9,25,599.261,599.771,269.941,-18.9984,-35.3279,93.2154,
2026_07_06_17_10_15.746,3.871,39.7,0,0.767,0,0,0,0, ,0,0,0,0,0, ,941.7,174.1,150.3,-15.4,-32,68.9,25,619.836,574.916,264.088,-18.7121,-35.0763,91.7032,
2026_07_06_17_10_15.778,3.871,39.7,0,0.768,0,0,0,0, ,0,0,0,0,0, ,896.1,103.2,99.8,-15.6,-36.3,66.7,25,638.06,548.331,255.616,-18.5164,-35.0199,90.2466,
2026_07_06_17_10_15.786,3.871,39.6,0,0.767,0,0,0,0, ,0,0,0,0,0, ,888.1,31.6,112.9,-11.9,-35.5,57.6,25,653.541,519.024,246.52,-18.2259,-35.0735,88.5345,
2026_07_06_17_10_15.818,3.871,39.7,0,0.767,0,0,0,0, ,0,0,0,0,0, ,861.6,12.5,118.5,-11.1,-27.1,49.5,25,667.027,488.74,238.548,-17.8161,-34.8436,86.4026,
