UTC_Time,Vin,TC1,TC2,Rh1,Vh1,Ah1,Acp1,Dty1,Err1,Rh2,Vh2,Ah2,Acp2,Dty2,Err2,Accel_x,Accel_y,Accel_z,gyro_x,gyro_y,gyro_z,Temp_c,Accel_x_h,Accel_y_h,Accel_z_h,gyro_x_h,gyro_y_h,gyro_z_h,
2026_06_10_19_34_40.052,3.841,25.6,0,0.757,0,0,0,0.035, ,0,0,0,0,0, ,-37.9,106.5,997.1,-0.5,-0.4,-1.7,25,-37.8999,106.5,997.097,-0.499998,-0.399999,-1.69999,
2026_06_10_19_34_40.072,3.841,25.7,0,0.755,0,0,0,0.036, ,0,0,0,0,0, ,-37.7,105.3,999,-0.7,-0.4,-1.7,25,-37.8938,106.463,997.155,-0.506092,-0.399999,-1.69999,
2026_06_10_19_34_40.092,3.841,25.6,0,0.756,0,0,0,0.035, ,0,0,0,0,0, ,-38.2,104.8,996.8,-0.6,-0.4,-1.6,25,-37.8972,106.377,997.2,-0.514862,-0.399999,-1.69695,
2026_06_10_19_34_40.110,3.841,25.6,0,0.756,0,0,0,0.036, ,0,0,0,0,0, ,-38.5,106,996.5,-0.7,-0.5,-1.7,25,-37.9248,106.317,997.167,-0.523097,-0.403046,-1.69409,
2026_06_10_19_34_40.132,3.841,25.6,0,0.756,0,0,0,0.037, ,0,0,0,0,0, ,-38.2,104.4,998.9,-0.8,-0.5,-1.6,25,-37.9507,106.249,997.199,-0.536923,-0.408954,-1.6914,
2026_06_10_19_34_40.151,3.841,25.7,0,0.755,0,0,0,0.037, ,0,0,0,0,0, ,-37.7,105.4,997.6,-0.7,-0.3,-1.7,25,-37.9507,106.167,997.263,-0.549908,-0.408408,-1.68888,
2026_06_10_19_34_40.171,3.841,25.6,0,0.753,0,0,0,0.037, ,0,0,0,0,0, ,-38.3,105.8,997.1,-0.7,-0.4,-1.7,25,-37.9537,106.133,997.268,-0.559054,-0.404849,-1.68956,
2026_06_10_19_34_40.191,3.841,25.6,0,0.755,0,0,0,0.038, ,0,0,0,0,0, ,-38,105.8,997.8,-0.6,-0.4,-1.6,25,-37.9656,106.112,997.28,-0.564596,-0.404554,-1.68715,
2026_06_10_19_34_40.211,3.841,25.6,0,0.755,0,0,0,0.039, ,0,0,0,0,0, ,-38.8,105.1,997.4,-0.7,-0.4,-1.6,25,-37.9921,106.072,997.299,-0.5698,-0.404276,-1.68183,
2026_06_10_19_34_40.231,3.841,25.7,0,0.755,0,0,0,0.039, ,0,0,0,0,0, ,-37.8,104.7,998,-0.6,-0.4,-1.7,25,-38.0109,106.001,997.323,-0.574688,-0.404015,-1.67989,
2026_06_10_19_34_40.251,3.841,25.6,0,0.755,0,0,0,0.039, ,0,0,0,0,0, ,-37.4,104.4,999,-0.8,-0.4,-1.6,25,-37.9858,105.912,997.395,-0.582324,-0.403771,-1.67807,
2026_06_10_19_34_40.270,3.841,25.6,0,0.755,0,0,0,0.04, ,0,0,0,0,0, ,-37.9,106.2,997,-0.6,-0.4,-1.6,25,-37.9654,105.875,997.432,-0.589495,-0.403541,-1.67332,
2026_06_10_19_34_40.291,3.841,25.7,0,0.755,0,0,0,0.04, ,0,0,0,0,0, ,-38.5,104.8,998.9,-0.7,-0.4,-1.7,25,-37.9797,105.852,997.464,-0.593182,-0.403325,-1.67189,
2026_06_10_19_34_40.310,3.841,25.6,0,0.755,0,0,0,0.04, ,0,0,0,0,0, ,-37.1,104.1,998.9,-0.6,-0.4,-1.7,25,-37.9687,105.767,997.551,-0.596644,-0.403123,-1.67361,
2026_06_10_19_34_40.329,3.841,25.7,0,0.755,0,0,0,0.041, ,0,0,0,0,0, ,-36.9,105.8,997.9,-0.7,-0.4,-1.7,25,-37.9097,105.717,997.603,-0.599895,-0.402932,-1.67522,
2026_06_10_19_34_40.349,3.841,25.9,0,0.755,0,0,0,0.041, ,0,0,0,0,0, ,-38.9,107,998,-0.7,-0.4,-1.6,25,-37.9091,105.758,997.624,-0.605996,-0.402754,-1.67368,
2026_06_10_19_34_40.369,3.841,25.7,0,0.757,0,0,0,0.04, ,0,0,0,0,0, ,-37.8,105.3,998.2,-0.7,-0.4,-1.6,25,-37.936,105.782,997.653,-0.611724,-0.402586,-1.66919,
2026_06_10_19_34_40.389,3.841,25.9,0,0.757,0,0,0,0.042, ,0,0,0,0,0, ,-39.1,105.9,997.1,-0.6,-0.4,-1.7,25,-37.9673,105.771,997.653,-0.614056,-0.402428,-1.66802,
2026_06_10_19_34_40.409,3.841,25.9,0,0.755,0,0,0,0.041, ,0,0,0,0,0, ,-38.3,104,998.4,-0.8,-0.4,-1.6,25,-38.0119,105.721,997.659,-0.619294,-0.40228,-1.66692,
2026_06_10_19_34_40.429,3.841,26,0,0.757,0,0,0,0.041, ,0,0,0,0,0, ,-37.5,105.4,998.5,-0.7,-0.5,-1.6,25,-38.0051,105.659,997.707,-0.627259,-0.405188,-1.66284,
2026_06_10_19_34_40.449,3.841,25.9,0,0.757,0,0,0,0.041, ,0,0,0,0,0, ,-38.4,104.6,997.8,-0.7,-0.4,-1.7,25,-38.0018,105.619,997.734,-0.631691,-0.407919,-1.66206,
2026_06_10_19_34_40.468,3.841,26,0,0.757,0,0,0,0.042, ,0,0,0,0,0, ,-37.5,104.8,996.7,-0.7,-0.4,-1.7,25,-37.9986,105.563,997.704,-0.635854,-0.407436,-1.66437,
2026_06_10_19_34_40.488,3.841,25.9,0,0.755,0,0,0,0.041, ,0,0,0,0,0, ,-38,104,997,-0.7,-0.4,-1.6,25,-37.9835,105.492,997.652,-0.639763,-0.406983,-1.6635,
2026_06_10_19_34_40.508,3.841,26,0,0.758,0,0,0,0.043, ,0,0,0,0,0, ,-36.9,106.9,997,-0.7,-0.4,-1.6,25,-37.9509,105.489,997.613,-0.643433,-0.406558,-1.65963,
2026_06_10_19_34_40.527,3.841,26,0,0.757,0,0,0,0.042, ,0,0,0,0,0, ,-38.6,106,996.8,-0.7,-0.4,-1.7,25,-37.9387,105.548,997.569,-0.64688,-0.406158,-1.65904,
2026_06_10_19_34_40.547,3.841,26,0,0.757,0,0,0,0.043, ,0,0,0,0,0, ,-38.6,106.8,998.1,-0.8,-0.4,-1.7,25,-37.979,105.6,997.562,-0.653164,-0.405783,-1.66154,
2026_06_10_19_34_40.567,3.841,26.1,0,0.757,0,0,0,0.043, ,0,0,0,0,0, ,-37.3,105.5,999,-0.6,-0.5,-1.8,25,-37.9772,105.633,997.622,-0.656018,-0.408477,-1.66693,
2026_06_10_19_34_40.587,3.841,26,0,0.756,0,0,0,0.043, ,0,0,0,0,0, ,-38,104.3,998.6,-0.7,-0.4,-1.6,25,-37.9573,105.589,997.694,-0.655652,-0.411008,-1.66894,
2026_06_10_19_34_40.606,3.841,26.1,0,0.757,0,0,0,0.044, ,0,0,0,0,0, ,-38,104,996.9,-0.7,-0.3,-1.7,25,-37.9599,105.501,997.697,-0.658354,-0.40729,-1.66779,
2026_06_10_19_34_40.627,3.841,26.2,0,0.757,0,0,0,0.043, ,0,0,0,0,0, ,-38.3,104.9,997.4,-0.7,-0.4,-1.7,25,-37.9715,105.437,997.664,-0.660892,-0.403799,-1.66975,
2026_06_10_19_34_40.647,3.841,26.1,0,0.756,0,0,0,0.043, ,0,0,0,0,0, ,-38.4,105.5,995.9,-0.6,-0.4,-1.7,25,-37.9945,105.423,997.602,-0.660228,-0.403567,-1.67159,
2026_06_10_19_34_40.666,3.841,26.1,0,0.756,0,0,0,0.044, ,0,0,0,0,0, ,-38.8,104.8,998.9,-0.8,-0.4,-1.6,25,-38.0314,105.406,997.59,-0.662652,-0.40335,-1.67028,
2026_06_10_19_34_40.686,3.841,26.2,0,0.758,0,0,0,0.045, ,0,0,0,0,0, ,-38.2,106,997.9,-0.7,-0.5,-1.6,25,-38.06,105.406,997.639,-0.667975,-0.406193,-1.666,
2026_06_10_19_34_40.706,3.841,26.3,0,0.757,0,0,0,0.044, ,0,0,0,0,0, ,-38.5,102.9,999,-0.5,-0.4,-1.7,25,-38.0777,105.347,997.689,-0.663832,-0.408862,-1.66502,
2026_06_10_19_34_40.725,3.841,26.3,0,0.756,0,0,0,0.044, ,0,0,0,0,0, ,-38.2,104.7,997.4,-0.9,-0.4,-1.6,25,-38.0943,105.253,997.72,-0.666036,-0.408322,-1.66411,
2026_06_10_19_34_40.746,3.841,26.4,0,0.757,0,0,0,0.044, ,0,0,0,0,0, ,-39.6,105.3,996.9,-0.4,-0.4,-1.7,25,-38.1434,105.238,997.685,-0.665059,-0.407815,-1.66325,
2026_06_10_19_34_40.766,3.841,26.3,0,0.757,0,0,0,0.044, ,0,0,0,0,0, ,-37.7,105.3,998.5,-0.9,-0.5,-1.7,25,-38.1742,105.241,997.686,-0.664141,-0.410386,-1.66549,
2026_06_10_19_34_40.785,3.841,26.3,0,0.757,0,0,0,0.045, ,0,0,0,0,0, ,-38,105.9,997.1,-0.6,-0.4,-1.6,25,-38.1545,105.263,997.693,-0.669373,-0.4128,-1.66454,
2026_06_10_19_34_40.807,3.841,26.3,0,0.757,0,0,0,0.045, ,0,0,0,0,0, ,-37.2,104.6,997.9,-0.9,-0.4,-1.7,25,-38.1207,105.262,997.681,-0.674287,-0.41202,-1.66366,
2026_06_10_19_34_40.824,3.841,26.3,0,0.757,0,0,0,0.046, ,0,0,0,0,0, ,-36.8,104.2,999,-0.5,-0.4,-1.7,25,-38.0524,105.21,997.728,-0.675854,-0.411287,-1.66587,
2026_06_10_19_34_40.845,3.841,26.5,0,0.758,0,0,0,0.046, ,0,0,0,0,0, ,-38.2,104.7,999,-0.8,-0.4,-1.7,25,-38.0187,105.164,997.806,-0.674278,-0.410599,-1.66795,
2026_06_10_19_34_40.864,3.841,26.4,0,0.756,0,0,0,0.045, ,0,0,0,0,0, ,-38.3,105.4,997.9,-0.6,-0.4,-1.7,25,-38.0328,105.157,997.845,-0.675845,-0.409954,-1.6699,
2026_06_10_19_34_40.884,3.841,26.5,0,0.757,0,0,0,0.046, ,0,0,0,0,0, ,-37.9,103.8,997.8,-0.6,-0.4,-1.6,25,-38.0369,105.123,997.845,-0.671224,-0.409347,-1.66869,
2026_06_10_19_34_40.904,3.841,26.5,0,0.757,0,0,0,0.045, ,0,0,0,0,0, ,-38.2,104.2,997.5,-0.6,-0.4,-1.6,25,-38.0377,105.054,997.833,-0.666883,-0.408777,-1.66451,
2026_06_10_19_34_40.924,3.841,26.5,0,0.757,0,0,0,0.046, ,0,0,0,0,0, ,-37.4,105.7,995.9,-0.7,-0.4,-1.7,25,-38.0232,105.048,997.764,-0.665855,-0.408243,-1.66362,
2026_06_10_19_34_40.943,3.841,26.5,0,0.757,0,0,0,0.046, ,0,0,0,0,0, ,-38.9,105.1,999.1,-0.7,-0.4,-1.7,25,-38.031,105.069,997.748,-0.667935,-0.40774,-1.66584,
2026_06_10_19_34_40.963,3.841,26.5,0,0.757,0,0,0,0.046, ,0,0,0,0,0, ,-38.3,104.9,997.6,-0.7,-0.5,-1.8,25,-38.0656,105.065,997.785,-0.669889,-0.410315,-1.67097,
2026_06_10_19_34_40.983,3.841,26.7,0,0.757,0,0,0,0.047, ,0,0,0,0,0, ,-37.9,105.2,998.2,-0.7,-0.4,-1.6,25,-38.0677,105.064,997.792,-0.671724,-0.412734,-1.67274,
2026_06_10_19_34_41.003,3.841,26.7,0,0.757,0,0,0,0.045, ,0,0,0,0,0, ,-36.9,105.7,998.1,-0.7,-0.4,-1.7,25,-38.027,105.088,997.814,-0.673447,-0.411958,-1.67135,
2026_06_10_19_34_41.023,3.841,26.6,0,0.758,0,0,0,0.046, ,0,0,0,0,0, ,-39,104.7,998.6,-0.7,-0.4,-1.6,25,-38.0223,105.095,997.846,-0.675065,-0.411229,-1.67005,
2026_06_10_19_34_41.042,3.841,26.7,0,0.758,0,0,0,0.047, ,0,0,0,0,0, ,-38.2,105.7,997,-0.5,-0.4,-1.6,25,-38.0575,105.101,997.843,-0.670491,-0.410545,-1.66578,
2026_06_10_19_34_41.064,3.841,26.8,0,0.758,0,0,0,0.046, ,0,0,0,0,0, ,-36.8,106.3,998.5,-0.8,-0.5,-1.6,25,-38.0236,105.156,997.838,-0.669242,-0.412949,-1.66177,
2026_06_10_19_34_41.082,3.841,26.7,0,0.757,0,0,0,0.046, ,0,0,0,0,0, ,-38.3,105.3,996.4,-0.6,-0.4,-1.6,25,-37.9947,105.195,997.814,-0.671117,-0.415207,-1.65801,
2026_06_10_19_34_41.101,3.841,26.8,0,0.757,0,0,0,0.047, ,0,0,0,0,0, ,-37.3,105.1,998.1,-0.7,-0.5,-1.6,25,-37.9828,105.195,997.78,-0.66983,-0.417327,-1.65447,
2026_06_10_19_34_41.122,3.841,26.8,0,0.757,0,0,0,0.047, ,0,0,0,0,0, ,-38.4,106.5,997.6,-0.7,-0.4,-1.6,25,-37.9748,105.232,997.784,-0.671668,-0.419318,-1.65115,
2026_06_10_19_34_41.141,3.841,26.8,0,0.758,0,0,0,0.047, ,0,0,0,0,0, ,-37.5,105.5,997.5,-0.7,-0.4,-1.7,25,-37.9732,105.279,997.77,-0.673395,-0.418141,-1.65108,
2026_06_10_19_34_41.161,3.841,26.8,0,0.758,0,0,0,0.047, ,0,0,0,0,0, ,-38.4,104.6,998.2,-0.7,-0.5,-1.6,25,-37.9718,105.265,997.775,-0.675016,-0.420082,-1.65102,
2026_06_10_19_34_41.181,3.841,26.9,0,0.757,0,0,0,0.048, ,0,0,0,0,0, ,-38.4,105.3,998.6,-0.6,-0.4,-1.6,25,-37.9979,105.246,997.813,-0.673492,-0.421905,-1.64791,
2026_06_10_19_34_41.201,3.841,26.8,0,0.756,0,0,0,0.047, ,0,0,0,0,0, ,-38.2,105.3,997.5,-0.7,-0.4,-1.7,25,-38.0163,105.249,997.827,-0.67206,-0.420571,-1.64804,
2026_06_10_19_34_41.220,3.841,27,0,0.758,0,0,0,0.048, ,0,0,0,0,0, ,-39.1,105.8,998.6,-0.7,-0.4,-1.7,25,-38.0549,105.267,997.841,-0.673763,-0.419317,-1.6512,
2026_06_10_19_34_41.240,3.841,27.1,0,0.758,0,0,0,0.047, ,0,0,0,0,0, ,-38.3,103.7,998.6,-0.7,-0.4,-1.7,25,-38.0942,105.236,997.887,-0.675362,-0.41814,-1.65418,
2026_06_10_19_34_41.260,3.841,27.1,0,0.757,0,0,0,0.046, ,0,0,0,0,0, ,-38.4,104.2,998.5,-0.7,-0.4,-1.6,25,-38.1098,105.158,997.927,-0.676863,-0.417035,-1.65392,
2026_06_10_19_34_41.280,3.841,27,0,0.757,0,0,0,0.047, ,0,0,0,0,0, ,-38,104.7,996.2,-0.6,-0.4,-1.7,25,-38.1153,105.114,997.892,-0.675226,-0.415996,-1.65368,
2026_06_10_19_34_41.299,3.841,27.1,0,0.756,0,0,0,0.048, ,0,0,0,0,0, ,-39,106.4,999.5,-0.8,-0.5,-1.7,25,-38.1388,105.141,997.89,-0.676736,-0.418069,-1.65651,
2026_06_10_19_34_41.326,3.841,27.1,0,0.758,0,0,0,0.047, ,0,0,0,0,0, ,-38.4,106,997.8,-0.5,-0.4,-1.6,25,-38.173,105.206,997.936,-0.675106,-0.420014,-1.65611,
2026_06_10_19_34_41.340,3.841,27.1,0,0.758,0,0,0,0.048, ,0,0,0,0,0, ,-37.9,106.3,998,-0.7,-0.5,-1.7,25,-38.1716,105.263,997.934,-0.67053,-0.421842,-1.65574,
2026_06_10_19_34_41.360,3.841,27.2,0,0.757,0,0,0,0.048, ,0,0,0,0,0, ,-38.6,106.8,997.5,-0.6,-0.4,-1.7,25,-38.1763,105.342,997.923,-0.669279,-0.423558,-1.65843,
2026_06_10_19_34_41.379,3.841,27.2,0,0.758,0,0,0,0.047, ,0,0,0,0,0, ,-37.9,104.3,998.1,-0.6,-0.4,-1.8,25,-38.1808,105.354,997.915,-0.665057,-0.422122,-1.66401,
2026_06_10_19_34_41.399,3.841,27.1,0,0.758,0,0,0,0.048, ,0,0,0,0,0, ,-37.8,104.9,996.4,-0.7,-0.5,-1.6,25,-38.1607,105.308,997.875,-0.664139,-0.423821,-1.66621,
2026_06_10_19_34_41.418,3.841,27.2,0,0.759,0,0,0,0.049, ,0,0,0,0,0, ,-38.2,104.9,999.6,-0.6,-0.4,-1.6,25,-38.1509,105.283,997.882,-0.663278,-0.425416,-1.66217,
2026_06_10_19_34_41.439,3.841,27.3,0,0.758,0,0,0,0.048, ,0,0,0,0,0, ,-37.5,104,998.6,-0.7,-0.4,-1.7,25,-38.1326,105.233,997.956,-0.662469,-0.423867,-1.66143,
2026_06_10_19_34_41.459,3.841,27.2,0,0.758,0,0,0,0.048, ,0,0,0,0,0, ,-38.9,105.7,997.4,-0.7,-0.4,-1.7,25,-38.1367,105.209,997.959,-0.664756,-0.422413,-1.66378,
2026_06_10_19_34_41.478,3.841,27.3,0,0.759,0,0,0,0.049, ,0,0,0,0,0, ,-37.8,106,998.4,-0.7,-0.4,-1.7,25,-38.1497,105.248,997.956,-0.666903,-0.421047,-1.66599,
2026_06_10_19_34_41.498,3.841,27.3,0,0.758,0,0,0,0.048, ,0,0,0,0,0, ,-37.8,105.3,997.8,-0.7,-0.4,-1.6,25,-38.1284,105.273,997.964,-0.66892,-0.419765,-1.66501,
2026_06_10_19_34_41.518,3.841,27.3,0,0.758,0,0,0,0.048, ,0,0,0,0,0, ,-37.8,105.7,998.7,-0.7,-0.3,-1.6,25,-38.1083,105.287,997.982,-0.670814,-0.415513,-1.66105,
2026_06_10_19_34_41.539,3.841,27.5,0,0.759,0,0,0,0.049, ,0,0,0,0,0, ,-37.4,105.7,999.2,-0.6,-0.4,-1.7,25,-38.0774,105.312,998.041,-0.669546,-0.411521,-1.66038,
2026_06_10_19_34_41.557,3.841,27.6,0,0.758,0,0,0,0.047, ,0,0,0,0,0, ,-38.6,105.8,997.5,-0.8,-0.5,-1.6,25,-38.0727,105.339,998.06,-0.671402,-0.413866,-1.65975,
2026_06_10_19_34_41.577,3.841,27.6,0,0.758,0,0,0,0.047, ,0,0,0,0,0, ,-37.8,104.8,998.6,-0.6,-0.4,-1.6,25,-38.0804,105.336,998.059,-0.673144,-0.416068,-1.65611,
2026_06_10_19_34_41.597,3.841,27.6,0,0.758,0,0,0,0.047, ,0,0,0,0,0, ,-37.3,105.9,998.4,-0.8,-0.4,-1.7,25,-38.0481,105.337,998.086,-0.674781,-0.415089,-1.65573,
2026_06_10_19_34_41.618,3.841,27.6,0,0.758,0,0,0,0.047, ,0,0,0,0,0, ,-38.5,105.3,996.2,-0.6,-0.4,-1.7,25,-38.0391,105.353,998.038,-0.676318,-0.414169,-1.65843,
2026_06_10_19_34_41.636,3.841,27.6,0,0.759,0,0,0,0.048, ,0,0,0,0,0, ,-38.6,105.3,999.3,-0.8,-0.5,-1.6,25,-38.0702,105.35,998.02,-0.677761,-0.416353,-1.65792,
2026_06_10_19_34_41.656,3.841,27.7,0,0.758,0,0,0,0.048, ,0,0,0,0,0, ,-38.4,104.6,997.4,-0.7,-0.4,-1.7,25,-38.0964,105.325,998.041,-0.682163,-0.418403,-1.65743,
2026_06_10_19_34_41.676,3.841,27.8,0,0.758,0,0,0,0.047, ,0,0,0,0,0, ,-37.2,105.1,997.6,-0.7,-0.5,-1.7,25,-38.0783,105.296,998.008,-0.68325,-0.420328,-1.66003,
2026_06_10_19_34_41.696,3.841,27.7,0,0.759,0,0,0,0.047, ,0,0,0,0,0, ,-37.8,106,998.4,-0.8,-0.4,-1.7,25,-38.0431,105.312,998.007,-0.687317,-0.422137,-1.66246,
2026_06_10_19_34_41.716,3.841,27.7,0,0.758,0,0,0,0.048, ,0,0,0,0,0, ,-37.9,105.4,998,-0.6,-0.4,-1.6,25,-38.0313,105.336,998.019,-0.68809,-0.420788,-1.6617,
2026_06_10_19_34_41.737,3.841,27.9,0,0.757,0,0,0,0.048, ,0,0,0,0,0, ,-38.5,106,999,-0.7,-0.4,-1.7,25,-38.0416,105.358,998.048,-0.685769,-0.419521,-1.66099,
2026_06_10_19_34_41.756,3.841,27.9,0,0.759,0,0,0,0.047, ,0,0,0,0,0, ,-37.9,104.4,998.6,-0.5,-0.4,-1.6,25,-38.0513,105.348,998.094,-0.680543,-0.418331,-1.66032,
2026_06_10_19_34_41.775,3.841,27.9,0,0.761,0,0,0,0.047, ,0,0,0,0,0, ,-38.6,106.3,997.5,-0.7,-0.4,-1.6,25,-38.0634,105.348,998.091,-0.675635,-0.417214,-1.65665,
2026_06_10_19_34_41.795,3.841,27.8,0,0.759,0,0,0,0.047, ,0,0,0,0,0, ,-38.3,105.8,997.5,-0.6,-0.4,-1.6,25,-38.0869,105.391,998.055,-0.674072,-0.416165,-1.65319,
2026_06_10_19_34_41.814,3.841,27.9,0,0.758,0,0,0,0.048, ,0,0,0,0,0, ,-37.5,106.4,998.9,-0.8,-0.4,-1.6,25,-38.0755,105.434,998.064,-0.675652,-0.41518,-1.64995,
2026_06_10_19_34_41.834,3.841,27.9,0,0.758,0,0,0,0.047, ,0,0,0,0,0, ,-38.3,106,998.4,-0.7,-0.4,-1.6,25,-38.0648,105.481,998.1,-0.680183,-0.414255,-1.64691,
2026_06_10_19_34_41.854,3.841,27.9,0,0.759,0,0,0,0.048, ,0,0,0,0,0, ,-38.6,104.7,998.5,-0.7,-0.5,-1.7,25,-38.0883,105.473,998.121,-0.681391,-0.416433,-1.6471,
2026_06_10_19_34_41.874,3.841,28,0,0.758,0,0,0,0.048, ,0,0,0,0,0, ,-37.8,104.9,998.1,-0.7,-0.5,-1.6,25,-38.0951,105.432,998.132,-0.682525,-0.421526,-1.64727,
2026_06_10_19_34_41.894,3.841,27.9,0,0.758,0,0,0,0.047, ,0,0,0,0,0, ,-38.2,105.8,998.4,-0.6,-0.4,-1.6,25,-38.0893,105.427,998.139,-0.680543,-0.423261,-1.64439,
2026_06_10_19_34_41.914,3.841,28,0,0.759,0,0,0,0.048, ,0,0,0,0,0, ,-39.3,104.9,997.1,-0.7,-0.4,-1.7,25,-38.1296,105.422,998.116,-0.678681,-0.421843,-1.64473,
2026_06_10_19_34_41.933,3.841,28.1,0,0.758,0,0,0,0.048, ,0,0,0,0,0, ,-37.7,104.6,998.7,-0.6,-0.4,-1.7,25,-38.1522,105.381,998.102,-0.676934,-0.420512,-1.6481,
2026_06_10_19_34_41.953,3.841,28.1,0,0.758,0,0,0,0.047, ,0,0,0,0,0, ,-37.5,105.5,996.9,-0.7,-0.4,-1.7,25,-38.1185,105.361,998.084,-0.675292,-0.419262,-1.65126,
2026_06_10_19_34_41.973,3.841,28.1,0,0.757,0,0,0,0.047, ,0,0,0,0,0, ,-37.9,103.6,997.4,-0.5,-0.4,-1.7,25,-38.093,105.312,998.027,-0.670704,-0.418089,-1.65423,
2026_06_10_19_34_42.001,3.841,28.1,0,0.758,0,0,0,0.047, ,0,0,0,0,0, ,-37.7,105.8,998.4,-0.8,-0.4,-1.8,25,-38.0751,105.274,998.019,-0.669443,-0.416986,-1.66007,
2026_06_10_19_34_42.013,3.841,28.2,0,0.759,0,0,0,0.048, ,0,0,0,0,0, ,-39.1,106.3,997.6,-0.7,-0.5,-1.6,25,-38.0949,105.322,998.018,-0.674352,-0.418998,-1.6625,
2026_06_10_19_34_42.032,3.841,28.3,0,0.758,0,0,0,0.047, ,0,0,0,0,0, ,-37.7,104.7,998,-0.7,-0.4,-1.6,25,-38.1135,105.333,998.005,-0.675914,-0.420887,-1.65869,
2026_06_10_19_34_42.052,3.841,28.3,0,0.758,0,0,0,0.046, ,0,0,0,0,0, ,-36.9,104.8,998.9,-0.7,-0.3,-1.7,25,-38.064,105.297,998.032,-0.677382,-0.416568,-1.65816,
2026_06_10_19_34_42.073,3.841,28.3,0,0.757,0,0,0,0.046, ,0,0,0,0,0, ,-38.5,106.2,998.6,-0.8,-0.4,-1.7,25,-38.0418,105.309,998.076,-0.681807,-0.412511,-1.66071,
2026_06_10_19_34_42.092,3.841,28.3,0,0.76,0,0,0,0.047, ,0,0,0,0,0, ,-38.2,105.2,997.4,-0.6,-0.4,-1.8,25,-38.0606,105.333,998.071,-0.682916,-0.411749,-1.66616,
2026_06_10_19_34_42.112,3.841,28.3,0,0.759,0,0,0,0.047, ,0,0,0,0,0, ,-36.8,104.1,997.9,-0.5,-0.5,-1.7,25,-38.0264,105.292,998.045,-0.674816,-0.41408,-1.67126,
2026_06_10_19_34_42.132,3.841,28.4,0,0.759,0,0,0,0.047, ,0,0,0,0,0, ,-38.2,105.4,997.4,-0.7,-0.4,-1.6,25,-37.9943,105.259,998.021,-0.670257,-0.416269,-1.66997,
2026_06_10_19_34_42.152,3.841,28.4,0,0.758,0,0,0,0.046, ,0,0,0,0,0, ,-39.3,105.2,996.5,-0.6,-0.4,-1.7,25,-38.0404,105.261,997.956,-0.669023,-0.415277,-1.66875,
2026_06_10_19_34_42.172,3.841,28.5,0,0.757,0,0,0,0.047, ,0,0,0,0,0, ,-37.2,105.1,998.1,-0.8,-0.4,-1.7,25,-38.0531,105.254,997.916,-0.670911,-0.414346,-1.67066,
2026_06_10_19_34_42.192,3.841,28.5,0,0.759,0,0,0,0.046, ,0,0,0,0,0, ,-38.9,104.3,998.1,-0.6,-0.5,-1.7,25,-38.053,105.221,997.927,-0.672683,-0.416519,-1.67244,
2026_06_10_19_34_42.211,3.841,28.5,0,0.759,0,0,0,0.046, ,0,0,0,0,0, ,-38.2,106,999.2,-0.7,-0.4,-1.6,25,-38.0832,105.216,997.971,-0.671301,-0.418559,-1.67108,
2026_06_10_19_34_42.231,3.841,28.5,0,0.758,0,0,0,0.046, ,0,0,0,0,0, ,-37.1,105.1,997.6,-0.6,-0.4,-1.6,25,-38.0568,105.237,997.997,-0.670003,-0.417428,-1.66675,
2026_06_10_19_34_42.250,3.841,28.5,0,0.759,0,0,0,0.046, ,0,0,0,0,0, ,-38.2,104.9,997,-0.7,-0.4,-1.6,25,-38.0321,105.222,997.955,-0.668784,-0.416366,-1.66268,
2026_06_10_19_34_42.274,3.841,28.6,0,0.759,0,0,0,0.046, ,0,0,0,0,0, ,-38,105.8,997.3,-0.7,-0.4,-1.6,25,-38.0362,105.23,997.906,-0.670686,-0.415369,-1.65886,
2026_06_10_19_34_42.290,3.841,28.6,0,0.76,0,0,0,0.046, ,0,0,0,0,0, ,-37.3,104.6,997.8,-0.6,-0.4,-1.6,25,-38.0127,105.228,997.884,-0.669426,-0.414432,-1.65527,
2026_06_10_19_34_42.310,3.841,28.7,0,0.759,0,0,0,0.046, ,0,0,0,0,0, ,-38.9,104.3,997.8,-0.8,-0.4,-1.6,25,-38.018,105.181,997.879,-0.671289,-0.413553,-1.6519,
2026_06_10_19_34_42.330,3.841,28.7,0,0.759,0,0,0,0.045, ,0,0,0,0,0, ,-38.5,104.7,996.7,-0.6,-0.4,-1.6,25,-38.0595,105.139,997.841,-0.673038,-0.412727,-1.64874,
2026_06_10_19_34_42.349,3.841,28.8,0,0.758,0,0,0,0.045, ,0,0,0,0,0, ,-38.2,105.3,998.6,-0.7,-0.4,-1.7,25,-38.0772,105.131,997.829,-0.671634,-0.411951,-1.64882,
2026_06_10_19_34_42.369,3.841,28.7,0,0.758,0,0,0,0.045, ,0,0,0,0,0, ,-37.4,104.1,997.9,-0.5,-0.4,-1.6,25,-38.0603,105.104,997.855,-0.667269,-0.411223,-1.64889,
2026_06_10_19_34_42.389,3.841,28.7,0,0.758,0,0,0,0.046, ,0,0,0,0,0, ,-37.5,104.9,997.9,-0.7,-0.4,-1.5,25,-38.0232,105.068,997.858,-0.66317,-0.410539,-1.64286,
2026_06_10_19_34_42.409,3.841,28.8,0,0.76,0,0,0,0.046, ,0,0,0,0,0, ,-38.3,104.4,998.1,-0.6,-0.4,-1.6,25,-38.0156,105.042,997.866,-0.662367,-0.409897,-1.6372,
2026_06_10_19_34_42.429,3.841,28.9,0,0.758,0,0,0,0.045, ,0,0,0,0,0, ,-37.5,104.1,998.1,-0.7,-0.4,-1.6,25,-38.0086,104.994,997.88,-0.661614,-0.409294,-1.63494,
2026_06_10_19_34_42.448,3.841,28.9,0,0.759,0,0,0,0.044, ,0,0,0,0,0, ,-37.5,105.7,997.6,-0.9,-0.5,-1.7,25,-37.9776,104.988,997.879,-0.670047,-0.411774,-1.63586,
2026_06_10_19_34_42.468,3.841,28.9,0,0.759,0,0,0,0.045, ,0,0,0,0,0, ,-37.7,104.7,996.8,-0.6,-0.4,-1.7,25,-37.9546,105.001,997.837,-0.674919,-0.414104,-1.63976,
2026_06_10_19_34_42.488,3.841,29.1,0,0.759,0,0,0,0.045, ,0,0,0,0,0, ,-38.3,106.9,997.9,-0.9,-0.4,-1.6,25,-37.9574,105.05,997.808,-0.679494,-0.413244,-1.64039,
2026_06_10_19_34_42.507,3.841,29.1,0,0.759,0,0,0,0.043, ,0,0,0,0,0, ,-37.7,105.7,998.4,-0.4,-0.4,-1.7,25,-37.96,105.126,997.828,-0.677697,-0.412437,-1.64097,
2026_06_10_19_34_42.528,3.841,29.1,0,0.759,0,0,0,0.043, ,0,0,0,0,0, ,-38.3,104.8,998.2,-0.7,-0.4,-1.7,25,-37.9624,105.134,997.857,-0.669915,-0.411679,-1.64457,
2026_06_10_19_34_42.547,3.841,29.1,0,0.761,0,0,0,0.043, ,0,0,0,0,0, ,-38.5,106,997.6,-0.6,-0.4,-1.7,25,-37.9891,105.15,997.86,-0.668702,-0.410968,-1.64795,
2026_06_10_19_34_42.567,3.841,29.2,0,0.759,0,0,0,0.043, ,0,0,0,0,0, ,-37.8,103.7,997.1,-0.8,-0.3,-1.6,25,-37.9989,105.132,997.829,-0.670609,-0.407252,-1.64807,
2026_06_10_19_34_42.588,3.841,29.2,0,0.759,0,0,0,0.043, ,0,0,0,0,0, ,-37.9,105.4,996.7,-0.8,-0.4,-1.6,25,-37.9898,105.096,997.772,-0.678494,-0.403764,-1.64514,
2026_06_10_19_34_42.607,3.841,29.3,0,0.761,0,0,0,0.043, ,0,0,0,0,0, ,-38,105.8,997,-0.5,-0.4,-1.6,25,-37.9874,105.127,997.716,-0.676757,-0.403534,-1.64239,
2026_06_10_19_34_42.627,3.841,29.3,0,0.758,0,0,0,0.042, ,0,0,0,0,0, ,-38.2,104.8,998,-0.9,-0.4,-1.7,25,-37.9942,105.137,997.703,-0.678174,-0.403319,-1.64286,
2026_06_10_19_34_42.646,3.841,29.3,0,0.758,0,0,0,0.042, ,0,0,0,0,0, ,-39.4,104.2,998.2,-0.5,-0.4,-1.7,25,-38.0433,105.098,997.727,-0.679504,-0.403117,-1.64634,
2026_06_10_19_34_42.667,3.841,29.4,0,0.76,0,0,0,0.042, ,0,0,0,0,0, ,-38,105.1,996.7,-0.7,-0.4,-1.7,25,-38.0834,105.071,997.71,-0.674659,-0.402927,-1.64961,
2026_06_10_19_34_42.686,3.841,29.4,0,0.758,0,0,0,0.041, ,0,0,0,0,0, ,-38.5,106.2,997.8,-0.6,-0.4,-1.7,25,-38.0935,105.106,997.682,-0.673156,-0.402748,-1.65268,
2026_06_10_19_34_42.706,3.841,29.4,0,0.758,0,0,0,0.041, ,0,0,0,0,0, ,-39.4,105.7,996.3,-0.6,-0.4,-1.7,25,-38.1457,105.158,997.644,-0.668698,-0.402581,-1.65556,
2026_06_10_19_34_42.725,3.841,29.4,0,0.759,0,0,0,0.042, ,0,0,0,0,0, ,-37.2,105.1,997.9,-0.7,-0.5,-1.6,25,-38.1551,105.173,997.61,-0.667559,-0.405471,-1.65522,
2026_06_10_19_34_42.745,3.841,29.5,0,0.76,0,0,0,0.042, ,0,0,0,0,0, ,-37.3,105.9,997,-0.7,-0.5,-1.7,25,-38.1,105.193,997.601,-0.669536,-0.411231,-1.65491,
2026_06_10_19_34_42.766,3.841,29.5,0,0.758,0,0,0,0.041, ,0,0,0,0,0, ,-37.5,105.4,997.8,-0.7,-0.3,-1.7,25,-38.0573,105.22,997.588,-0.671392,-0.410547,-1.65765,
2026_06_10_19_34_42.786,3.841,29.6,0,0.759,0,0,0,0.041, ,0,0,0,0,0, ,-37.5,105.9,997.8,-0.8,-0.4,-1.6,25,-38.0233,105.247,997.601,-0.676182,-0.406857,-1.65719,
2026_06_10_19_34_42.805,3.841,29.6,0,0.759,0,0,0,0.04, ,0,0,0,0,0, ,-37.9,103.2,997.1,-0.7,-0.4,-1.7,25,-38.0036,105.204,997.592,-0.680681,-0.406439,-1.65675,
2026_06_10_19_34_42.825,3.841,29.5,0,0.758,0,0,0,0.04, ,0,0,0,0,0, ,-38.3,105.3,998.5,-0.7,-0.5,-1.6,25,-38.0095,105.146,997.605,-0.681858,-0.409094,-1.65634,
2026_06_10_19_34_42.844,3.841,29.6,0,0.759,0,0,0,0.041, ,0,0,0,0,0, ,-38.4,105.5,998.2,-0.6,-0.4,-1.6,25,-38.0303,105.161,997.65,-0.679917,-0.411586,-1.6529,
2026_06_10_19_34_42.865,3.841,29.6,0,0.759,0,0,0,0.04, ,0,0,0,0,0, ,-38.3,105.2,997.4,-0.7,-0.4,-1.6,25,-38.0497,105.173,997.659,-0.678094,-0.41088,-1.64968,
2026_06_10_19_34_42.885,3.841,29.6,0,0.759,0,0,0,0.04, ,0,0,0,0,0, ,-38.8,105.7,997,-0.7,-0.4,-1.6,25,-38.0802,105.19,997.631,-0.679428,-0.410217,-1.64665,
2026_06_10_19_34_42.904,3.841,29.6,0,0.758,0,0,0,0.04, ,0,0,0,0,0, ,-38.9,104.6,998.6,-0.7,-0.4,-1.7,25,-38.1271,105.187,997.642,-0.680682,-0.409595,-1.64686,
2026_06_10_19_34_42.924,3.841,29.7,0,0.759,0,0,0,0.04, ,0,0,0,0,0, ,-37.3,103.8,996.7,-0.6,-0.4,-1.7,25,-38.1255,105.127,997.642,-0.678812,-0.40901,-1.6501,
2026_06_10_19_34_42.944,3.841,29.7,0,0.759,0,0,0,0.04, ,0,0,0,0,0, ,-37.9,104.9,998.9,-0.7,-0.5,-1.7,25,-38.0935,105.08,997.652,-0.677057,-0.411508,-1.65314,
2026_06_10_19_34_42.963,3.841,29.8,0,0.758,0,0,0,0.04, ,0,0,0,0,0, ,-37.3,105.8,998.4,-0.6,-0.5,-1.7,25,-38.0634,105.096,997.713,-0.675408,-0.4169,-1.65599,
2026_06_10_19_34_42.983,3.841,29.8,0,0.759,0,0,0,0.039, ,0,0,0,0,0, ,-37.3,104.9,997.9,-0.7,-0.4,-1.6,25,-38.0169,105.112,997.739,-0.67386,-0.418917,-1.65563,
2026_06_10_19_34_43.003,3.841,29.8,0,0.759,0,0,0,0.039, ,0,0,0,0,0, ,-38.8,105.2,997.1,-0.6,-0.4,-1.6,25,-38.0189,105.108,997.725,-0.672406,-0.417765,-1.65224,
2026_06_10_19_34_43.023,3.841,29.8,0,0.762,0,0,0,0.039, ,0,0,0,0,0, ,-37.2,104.3,996.9,-0.7,-0.4,-1.6,25,-38.0177,105.086,997.68,-0.67104,-0.416682,-1.64905,
2026_06_10_19_34_43.043,3.841,29.8,0,0.759,0,0,0,0.039, ,0,0,0,0,0, ,-38,105.7,997.9,-0.7,-0.4,-1.6,25,-37.9923,105.081,997.663,-0.672805,-0.415665,-1.64607,
2026_06_10_19_34_43.062,3.841,29.8,0,0.762,0,0,0,0.039, ,0,0,0,0,0, ,-38.8,104.3,997.4,-0.7,-0.4,-1.7,25,-38.0171,105.076,997.663,-0.674462,-0.414711,-1.6463,
2026_06_10_19_34_43.082,3.841,29.8,0,0.759,0,0,0,0.039, ,0,0,0,0,0, ,-39,105.5,998.5,-0.8,-0.4,-1.7,25,-38.0709,105.065,997.68,-0.679065,-0.413814,-1.64958,
2026_06_10_19_34_43.102,3.841,29.9,0,0.759,0,0,0,0.039, ,0,0,0,0,0, ,-36.7,105.4,997.4,-0.7,-0.4,-1.7,25,-38.0575,105.089,997.697,-0.683388,-0.412973,-1.65265,
2026_06_10_19_34_43.122,3.841,30,0,0.761,0,0,0,0.038, ,0,0,0,0,0, ,-38.5,105.5,998,-0.7,-0.4,-1.6,25,-38.0296,105.111,997.697,-0.6844,-0.412182,-1.65249,
2026_06_10_19_34_43.141,3.841,30,0,0.761,0,0,0,0.037, ,0,0,0,0,0, ,-36.6,105.2,997.8,-0.6,-0.5,-1.6,25,-38.0004,105.125,997.709,-0.682304,-0.414487,-1.64929,
2026_06_10_19_34_43.161,3.841,29.9,0,0.758,0,0,0,0, ,0,0,0,0,0, ,-37.5,105.1,997.3,-0.7,-0.4,-1.6,25,-37.9424,105.127,997.699,-0.680335,-0.416651,-1.64629,
2026_06_10_19_34_43.181,3.841,29.9,0,0.758,0,0,0,0, ,0,0,0,0,0, ,-38.9,105.1,998,-0.7,-0.4,-1.6,25,-37.9581,105.125,997.696,-0.681534,-0.415636,-1.64347,
2026_06_10_19_34_43.201,3.841,30,0,0.76,0,0,0,0, ,0,0,0,0,0, ,-37.5,104.7,999,-0.7,-0.4,-1.7,25,-37.9729,105.111,997.745,-0.682659,-0.414683,-1.64386,
2026_06_10_19_34_43.225,3.841,30,0,0.758,0,0,0,0, ,0,0,0,0,0, ,-37.3,105.1,998.4,-0.7,-0.4,-1.6,25,-37.938,105.099,997.804,-0.683716,-0.413788,-1.64424,
2026_06_10_19_34_43.241,3.841,29.9,0,0.76,0,0,0,0, ,0,0,0,0,0, ,-37.2,104.2,997.8,-0.7,-0.4,-1.7,25,-37.896,105.071,997.822,-0.684708,-0.412948,-1.64459,
2026_06_10_19_34_43.261,3.841,30.1,0,0.76,0,0,0,0, ,0,0,0,0,0, ,-37.8,105.8,998.4,-0.7,-0.5,-1.6,25,-37.8719,105.067,997.839,-0.68564,-0.415206,-1.64492,
2026_06_10_19_34_43.281,3.841,30.2,0,0.76,0,0,0,0, ,0,0,0,0,0, ,-37.8,105.3,997.8,-0.6,-0.4,-1.8,25,-37.8675,105.096,997.855,-0.683468,-0.417326,-1.64828,
2026_06_10_19_34_43.300,3.841,30.1,0,0.758,0,0,0,0, ,0,0,0,0,0, ,-38.4,105.3,998.1,-0.7,-0.4,-1.6,25,-37.8817,105.109,997.86,-0.681429,-0.416271,-1.65143,
2026_06_10_19_34_43.320,3.841,30.1,0,0.758,0,0,0,0, ,0,0,0,0,0, ,-38.4,105.7,998.5,-0.6,-0.3,-1.6,25,-37.9133,105.133,997.887,-0.679513,-0.412232,-1.64829,
2026_06_10_19_34_43.340,3.841,30,0,0.761,0,0,0,0, ,0,0,0,0,0, ,-38,104.4,997.8,-0.7,-0.4,-1.6,25,-37.9308,105.128,997.903,-0.677715,-0.40844,-1.64535,
2026_06_10_19_34_43.363,3.841,30.2,0,0.759,0,0,0,0, ,0,0,0,0,0, ,-38,105.4,998.2,-0.7,-0.4,-1.6,25,-37.935,105.114,997.909,-0.679073,-0.407926,-1.64259,
2026_06_10_19_34_43.379,3.841,30.2,0,0.759,0,0,0,0, ,0,0,0,0,0, ,-38.5,104.4,997.4,-0.7,-0.4,-1.7,25,-37.9542,105.101,997.902,-0.680348,-0.407443,-1.64304,
2026_06_10_19_34_43.399,3.841,30.2,0,0.758,0,0,0,0, ,0,0,0,0,0, ,-37.8,106,999.2,-0.7,-0.4,-1.7,25,-37.9661,105.107,997.927,-0.681546,-0.406989,-1.64651,
2026_06_10_19_34_43.419,3.841,30.1,0,0.76,0,0,0,0, ,0,0,0,0,0, ,-38.4,105.3,998.9,-0.7,-0.4,-1.6,25,-37.9743,105.14,997.995,-0.68267,-0.406563,-1.64672,
2026_06_10_19_34_43.439,3.841,30.2,0,0.759,0,0,0,0, ,0,0,0,0,0, ,-37.7,105.8,997.3,-0.6,-0.5,-1.7,25,-37.9789,105.165,998.001,-0.680679,-0.40921,-1.64692,
2026_06_10_19_34_43.459,3.841,30.1,0,0.758,0,0,0,0, ,0,0,0,0,0, ,-37.9,105.4,997.4,-0.6,-0.4,-1.7,25,-37.968,105.191,997.962,-0.675763,-0.411696,-1.65016,
2026_06_10_19_34_43.479,3.841,30.2,0,0.759,0,0,0,0, ,0,0,0,0,0, ,-37.1,105.9,998.7,-0.6,-0.4,-1.7,25,-37.9395,105.219,997.967,-0.671146,-0.410983,-1.65319,
2026_06_10_19_34_43.501,3.841,30.2,0,0.762,0,0,0,0, ,0,0,0,0,0, ,-37.9,106.3,996.9,-0.6,-0.4,-1.7,25,-37.9127,105.273,997.957,-0.666811,-0.410314,-1.65605,
2026_06_10_19_34_43.518,3.841,30.1,0,0.758,0,0,0,0, ,0,0,0,0,0, ,-39.1,105.1,996.9,-0.7,-0.4,-1.7,25,-37.9485,105.299,997.893,-0.665786,-0.409685,-1.65872,
2026_06_10_19_34_43.538,3.841,30.2,0,0.759,0,0,0,0, ,0,0,0,0,0, ,-37.8,103.8,998.2,-0.8,-0.4,-1.7,25,-37.979,105.247,997.872,-0.670918,-0.409095,-1.66124,
2026_06_10_19_34_43.558,3.841,30.2,0,0.759,0,0,0,0, ,0,0,0,0,0, ,-38,104.7,997,-0.7,-0.4,-1.7,25,-37.9742,105.186,997.855,-0.675737,-0.408541,-1.6636,
2026_06_10_19_34_43.577,3.841,30.2,0,0.759,0,0,0,0, ,0,0,0,0,0, ,-37.8,106.5,997.3,-0.7,-0.4,-1.7,25,-37.9697,105.212,997.812,-0.677216,-0.40802,-1.66582,
2026_06_10_19_34_43.597,3.841,30.2,0,0.761,0,0,0,0, ,0,0,0,0,0, ,-37.4,105.5,998.5,-0.7,-0.4,-1.6,25,-37.9472,105.26,997.818,-0.678604,-0.407532,-1.66486,
2026_06_10_19_34_43.617,3.841,30.2,0,0.758,0,0,0,0, ,0,0,0,0,0, ,-37.3,105.5,998,-0.7,-0.4,-1.6,25,-37.9108,105.274,997.844,-0.679908,-0.407073,-1.6609,
2026_06_10_19_34_43.636,3.841,30.3,0,0.758,0,0,0,0, ,0,0,0,0,0, ,-38.5,105.4,998.9,-0.5,-0.4,-1.7,25,-37.9101,105.285,997.881,-0.675039,-0.406642,-1.66024,
2026_06_10_19_34_43.657,3.841,30.2,0,0.759,0,0,0,0, ,0,0,0,0,0, ,-37.5,104.4,998.2,-0.8,-0.4,-1.6,25,-37.9156,105.262,997.922,-0.673513,-0.406237,-1.65962,
2026_06_10_19_34_43.676,3.841,30.2,0,0.759,0,0,0,0, ,0,0,0,0,0, ,-37.9,104.7,998.1,-0.6,-0.4,-1.7,25,-37.9025,105.218,997.936,-0.675127,-0.405857,-1.65903,
2026_06_10_19_34_43.697,3.841,30.3,0,0.758,0,0,0,0, ,0,0,0,0,0, ,-37.2,106.5,997.8,-0.7,-0.5,-1.7,25,-37.881,105.242,997.936,-0.673596,-0.408547,-1.66153,
2026_06_10_19_34_43.716,3.841,30.2,0,0.758,0,0,0,0, ,0,0,0,0,0, ,-37.3,106,997.6,-0.7,-0.3,-1.6,25,-37.8425,105.303,997.922,-0.675205,-0.408026,-1.66082,
2026_06_10_19_34_43.736,3.841,30.3,0,0.758,0,0,0,0, ,0,0,0,0,0, ,-37.9,105.2,999.1,-0.6,-0.5,-1.6,25,-37.8278,105.321,997.948,-0.673669,-0.407537,-1.65712,
2026_06_10_19_34_43.756,3.841,30.3,0,0.759,0,0,0,0, ,0,0,0,0,0, ,-38.2,104.8,998.5,-0.7,-0.4,-1.6,25,-37.8413,105.301,998,-0.672226,-0.410125,-1.65364,
2026_06_10_19_34_43.775,3.841,30.3,0,0.759,0,0,0,0, ,0,0,0,0,0, ,-37.3,105.1,997.6,-0.6,-0.4,-1.6,25,-37.8357,105.28,998.003,-0.670872,-0.409508,-1.65037,
2026_06_10_19_34_43.796,3.841,30.3,0,0.761,0,0,0,0, ,0,0,0,0,0, ,-37.2,100.3,996.7,0,-0.4,-1.7,25,-37.8,105.123,997.951,-0.648272,-0.408928,-1.65035,
2026_06_10_19_34_43.815,3.841,30.3,0,0.757,0,0,0,0, ,0,0,0,0,0, ,-38.8,116.9,998.4,3.5,-0.4,-1.4,25,-37.8122,105.335,997.927,-0.502127,-0.408384,-1.64423,
2026_06_10_19_34_43.835,3.841,30.3,0,0.759,0,0,0,0, ,0,0,0,0,0, ,-37.7,81.1,999,-5.3,-0.5,-1.8,25,-37.8389,104.949,997.974,-0.526373,-0.41092,-1.64154,
2026_06_10_19_34_43.855,3.841,30.3,0,0.759,0,0,0,0, ,0,0,0,0,0, ,-36.9,117.9,996.8,-1.1,-0.4,-1.6,25,-37.8061,104.617,997.969,-0.689297,-0.413302,-1.6451,
2026_06_10_19_34_43.875,3.841,30.3,0,0.758,0,0,0,0, ,0,0,0,0,0, ,-37.1,99.1,999.2,0,-0.4,-1.7,25,-37.7569,104.853,997.971,-0.680808,-0.412491,-1.6454,
2026_06_10_19_34_43.895,3.841,30.3,0,0.759,0,0,0,0, ,0,0,0,0,0, ,-37.2,89.2,997.5,4.3,-0.3,-1.7,25,-37.72,104.201,997.994,-0.508306,-0.408683,-1.64872,
2026_06_10_19_34_43.914,3.841,30.3,0,0.759,0,0,0,0, ,0,0,0,0,0, ,-74.5,93.3,1000.7,4.8,-1.3,-11,25,-38.8248,103.412,998.062,-0.200066,-0.432529,-1.93521,
2026_06_10_19_34_43.934,3.841,30.3,0,0.759,0,0,0,0, ,0,0,0,0,0, ,-131.1,103.7,992.7,-22.3,-3,-23.1,25,-42.7232,103.113,997.979,-0.721077,-0.537187,-2.85627,
2026_06_10_19_34_43.954,3.841,30.3,0,0.759,0,0,0,0, ,0,0,0,0,0, ,-94.2,82.7,997.3,-21.7,-3.9,-29.4,25,-46.9844,102.509,997.797,-2.01776,-0.714687,-4.28182,
2026_06_10_19_34_43.974,3.841,30.3,0,0.759,0,0,0,0, ,0,0,0,0,0, ,-50,112.7,1003.2,-17.4,-4.4,-27.1,25,-48.5149,102.216,997.947,-3.08613,-0.924026,-5.74238,
2026_06_10_19_34_43.993,3.841,30.3,0,0.759,0,0,0,0, ,0,0,0,0,0, ,57.3,123.7,999.6,-5.3,-2.1,-14.1,25,-45.3361,103.19,998.157,-3.58971,-1.06577,-6.64777,
2026_06_10_19_34_44.013,3.841,30.3,0,0.761,0,0,0,0, ,0,0,0,0,0, ,3.5,83.9,1000.6,2.8,-1.2,-8.3,25,-40.7209,103.227,998.275,-3.44714,-1.10137,-6.92517,
2026_06_10_19_34_44.033,3.841,30.3,0,0.761,0,0,0,0, ,0,0,0,0,0, ,-52.9,78.3,1003.2,-3.3,-1.1,-11,25,-39.7446,101.878,998.496,-3.25231,-1.10433,-7.09121,
2026_06_10_19_34_44.053,3.841,30.3,0,0.759,0,0,0,0, ,0,0,0,0,0, ,-58.1,74,1006.7,-0.3,-3.8,-21.6,25,-40.7047,100.311,998.89,-3.16381,-1.18633,-7.65237,
2026_06_10_19_34_44.073,3.841,30.3,0,0.759,0,0,0,0, ,0,0,0,0,0, ,21.8,103.8,999.6,8.3,-3.2,-28,25,-39.3303,99.6152,999.149,-2.72727,-1.32732,-8.69731,
2026_06_10_19_34_44.093,3.841,30.3,0,0.759,0,0,0,0, ,0,0,0,0,0, ,0.1,134.7,993.1,0,-4.1,-16.7,25,-36.2664,100.812,998.979,-2.30818,-1.46886,-9.52927,
2026_06_10_19_34_44.112,3.841,30.3,0,0.761,0,0,0,0, ,0,0,0,0,0, ,-29.2,101.1,996.7,1.7,1,-2,25,-34.943,101.853,998.73,-2.11573,-1.4738,-9.51834,
2026_06_10_19_34_44.132,3.841,30.3,0,0.759,0,0,0,0, ,0,0,0,0,0, ,31.8,93.8,1001.9,-10.3,1.3,2.6,25,-32.7345,101.585,998.765,-2.24883,-1.31392,-8.92004,
2026_06_10_19_34_44.152,3.841,30.4,0,0.757,0,0,0,0, ,0,0,0,0,0, ,-28.1,78.4,984.1,-11.5,-0.2,3.4,25,-30.627,100.641,998.414,-2.77601,-1.20033,-8.19366,
2026_06_10_19_34_44.172,3.841,30.3,0,0.761,0,0,0,0, ,0,0,0,0,0, ,-38.4,115.9,1019.7,-18.2,-2.3,2,25,-30.7868,100.428,998.626,-3.51177,-1.20336,-7.52983,
2026_06_10_19_34_44.192,3.841,30.3,0,0.759,0,0,0,0, ,0,0,0,0,0, ,-16.2,101.1,984.4,-10,-5.1,-0.1,25,-30.5743,100.92,998.835,-4.15699,-1.3555,-7.01309,
2026_06_10_19_34_44.211,3.841,30.3,0,0.759,0,0,0,0, ,0,0,0,0,0, ,-20.1,105.7,1033.6,-12.3,-6.5,-6.6,25,-29.8172,101.071,999.454,-4.58313,-1.62634,-6.78987,
2026_06_10_19_34_44.231,3.841,30.3,0,0.759,0,0,0,0, ,0,0,0,0,0, ,-94.7,47.4,1015,5.2,-8.5,-9.5,25,-31.498,99.5771,1000.97,-4.52017,-1.98426,-6.86666,
2026_06_10_19_34_44.251,3.841,30.3,0,0.759,0,0,0,0, ,0,0,0,0,0, ,-84.5,61.2,1034.1,5.6,-13,-5,25,-35.0386,96.818,1002.41,-3.91566,-2.51842,-6.89002,
2026_06_10_19_34_44.271,3.841,30.3,0,0.759,0,0,0,0, ,0,0,0,0,0, ,10,74.2,1074.2,-14.4,-22.4,-1.4,25,-35.1734,95.0437,1005.56,-3.94518,-3.44355,-6.66516,
2026_06_10_19_34_44.291,3.841,30.3,0,0.759,0,0,0,0, ,0,0,0,0,0, ,102.5,87,1074.5,-22.9,-35.4,-3.7,25,-29.6023,94.1635,1009.75,-4.84125,-4.9948,-6.41439,
2026_06_10_19_34_44.311,3.841,30.3,0,0.759,0,0,0,0, ,0,0,0,0,0, ,-44.1,88.7,1020.2,-30.7,-44.8,-1.6,25,-26.019,93.7788,1012.04,-6.17936,-7.13403,-6.185,
2026_06_10_19_34_44.330,3.841,30.3,0,0.758,0,0,0,0, ,0,0,0,0,0, ,-49,66.1,984,-11.2,-44.5,6.8,25,-27.2701,92.7807,1011.44,-7.07945,-9.42016,-5.64966,
2026_06_10_19_34_44.351,3.841,30.3,0,0.757,0,0,0,0, ,0,0,0,0,0, ,-36.7,50.5,956.5,7.2,-41.4,8,25,-28.2195,90.6795,1008.93,-6.76992,-11.4634,-4.85445,
2026_06_10_19_34_44.370,3.841,30.3,0,0.759,0,0,0,0, ,0,0,0,0,0, ,19.8,64.9,987.4,17.4,-36.1,4.9,25,-27.0148,88.6698,1006.67,-5.60785,-13.1262,-4.16558,
2026_06_10_19_34_44.390,3.841,30.4,0,0.759,0,0,0,0, ,0,0,0,0,0, ,93.1,80.8,1016.6,-7.4,-37.5,2.3,25,-21.9287,87.7058,1006.39,-4.96143,-14.5688,-3.69237,
2026_06_10_19_34_44.410,3.841,30.3,0,0.758,0,0,0,0, ,0,0,0,0,0, ,149.6,102.9,1044.7,-17.5,-44.8,0,25,-13.1976,87.9583,1007.87,-5.41777,-16.1886,-3.39729,
2026_06_10_19_34_44.429,3.841,30.3,0,0.759,0,0,0,0, ,0,0,0,0,0, ,13.5,45.1,978.1,-30.3,-48.1,-11.3,25,-7.42395,87.1078,1008.08,-6.54403,-18.0326,-3.53456,
2026_06_10_19_34_44.449,3.841,30.4,0,0.759,0,0,0,0, ,0,0,0,0,0, ,-25.2,-9,995.2,-28.4,-44,-20.1,25,-7.32804,82.8995,1006.78,-7.93377,-19.7399,-4.27589,
2026_06_10_19_34_44.469,3.841,30.3,0,0.759,0,0,0,0, ,0,0,0,0,0, ,97.2,10.2,1025.3,-3.8,-45.2,-17.6,25,-4.68774,77.8844,1006.99,-8.4314,-21.2548,-5.164,
2026_06_10_19_34_44.489,3.841,30.3,0,0.759,0,0,0,0, ,0,0,0,0,0, ,183.7,52.4,1045.2,9.4,-52.7,7.8,25,4.15659,75.0457,1008.71,-7.74698,-22.9425,-5.14792,
2026_06_10_19_34_44.509,3.841,30.3,0,0.759,0,0,0,0, ,0,0,0,0,0, ,222.1,17.5,1001.5,-12,-59.6,22.9,25,16.2675,72.6024,1009.6,-7.35412,-24.9661,-3.89882,
2026_06_10_19_34_44.529,3.841,30.3,0,0.76,0,0,0,0, ,0,0,0,0,0, ,199.2,37.5,1009.2,-4.1,-64.6,27.9,25,28.1127,69.8539,1009.34,-7.39652,-27.2289,-2.11343,
2026_06_10_19_34_44.548,3.841,30.3,0,0.759,0,0,0,0, ,0,0,0,0,0, ,188.9,18.5,1015,-0.8,-69.9,20.9,25,38.2245,67.3035,1009.51,-7.0951,-29.6677,-0.497765,
2026_06_10_19_34_44.568,3.841,30.3,0,0.76,0,0,0,0, ,0,0,0,0,0, ,166.8,19.4,1025.7,0.8,-76.5,5.8,25,46.7329,64.3569,1010.17,-6.66274,-32.3205,0.346083,
2026_06_10_19_34_44.591,3.841,30.3,0,0.759,0,0,0,0, ,0,0,0,0,0, ,263.6,24.5,990.2,7.9,-86.2,2.5,25,56.9989,61.7727,1010.04,-5.99165,-35.3082,0.577884,
2026_06_10_19_34_44.607,3.841,30.3,0,0.76,0,0,0,0, ,0,0,0,0,0, ,289.5,39.6,954.1,10.3,-90,11.2,25,70.3778,59.9615,1007.73,-5.072,-38.5252,0.960091,
2026_06_10_19_34_44.628,3.841,30.3,0,0.758,0,0,0,0, ,0,0,0,0,0, ,302.8,40.5,962.7,3.7,-80.3,10.8,25,84.1358,58.7482,1004.72,-4.33636,-41.3664,1.5719,
2026_06_10_19_34_44.647,3.841,30.4,0,0.759,0,0,0,0, ,0,0,0,0,0, ,320.3,22.3,952.3,-7.7,-80.5,-3.6,25,97.9938,57.0816,1001.84,-4.19399,-43.745,1.69549,
2026_06_10_19_34_44.667,3.841,30.3,0,0.76,0,0,0,0, ,0,0,0,0,0, ,354,19.7,954.9,-10.7,-78.1,-5.6,25,112.567,54.8829,998.904,-4.49905,-45.9117,1.31185,
2026_06_10_19_34_44.687,3.841,30.4,0,0.759,0,0,0,0, ,0,0,0,0,0, ,371.9,41.8,899.4,-0.8,-62.2,4,25,127.825,53.4123,994.531,-4.57528,-47.3887,1.18316,
2026_06_10_19_34_44.707,3.841,30.3,0,0.758,0,0,0,0, ,0,0,0,0,0, ,330.4,82.2,923.5,1.7,-33.5,-4.7,25,141.434,53.9356,989.469,-4.26905,-47.4168,1.08974,
2026_06_10_19_34_44.730,3.841,30.3,0,0.759,0,0,0,0, ,0,0,0,0,0, ,399.4,19.2,922.8,-0.5,-16.3,-17,25,155.051,53.7384,985.427,-3.97234,-46.0447,0.362159,
2026_06_10_19_34_44.747,3.841,30.3,0,0.758,0,0,0,0, ,0,0,0,0,0, ,443.8,-4,912.9,-16.5,-29.5,-12.2,25,171.294,50.9269,981.309,-4.24824,-44.6343,-0.549598,
2026_06_10_19_34_44.766,3.841,30.3,0,0.759,0,0,0,0, ,0,0,0,0,0, ,459.8,8.3,897,-20.2,-44.9,0.2,25,188.388,47.9545,976.656,-5.10757,-44.1813,-0.881732,
2026_06_10_19_34_44.786,3.841,30.4,0,0.759,0,0,0,0, ,0,0,0,0,0, ,404.1,29.2,890.8,-15.5,-43.1,2.6,25,203.23,46.1749,971.613,-5.88406,-44.1702,-0.742689,
2026_06_10_19_34_44.806,3.841,30.3,0,0.757,0,0,0,0, ,0,0,0,0,0, ,416.5,-11.5,876.4,-22.8,-36.4,-9.5,25,215.848,43.9004,966.25,-6.69246,-43.9009,-0.907665,
2026_06_10_19_34_44.826,3.841,30.3,0,0.757,0,0,0,0, ,0,0,0,0,0, ,471.8,40.7,882.4,-20.6,-40.6,-23,25,229.76,42.1149,960.958,-7.60698,-43.5717,-1.84259,
2026_06_10_19_34_44.846,3.841,30.2,0,0.759,0,0,0,0, ,0,0,0,0,0, ,507.4,76.2,863.4,-7.8,-52.1,-26.7,25,245.594,43.1103,955.592,-8.00874,-43.741,-3.2446,
2026_06_10_19_34_44.866,3.841,30.3,0,0.759,0,0,0,0, ,0,0,0,0,0, ,544.1,14,846.4,-10.8,-61.4,-44,25,262.666,43.2316,949.456,-8.08743,-44.5338,-5.20103,
2026_06_10_19_34_44.886,3.841,30.3,0,0.759,0,0,0,0, ,0,0,0,0,0, ,550.6,-3.4,922.8,-3.9,-72.6,-43.4,25,280.014,40.9201,945.504,-8.04249,-45.9028,-7.54706,
2026_06_10_19_34_44.905,3.841,30.3,0,0.759,0,0,0,0, ,0,0,0,0,0, ,532.2,-9.5,902.3,-1.8,-53.7,-23.7,25,295.942,38.0335,943.495,-7.72607,-46.9538,-9.13161,
2026_06_10_19_34_44.924,3.841,30.3,0,0.758,0,0,0,0, ,0,0,0,0,0, ,501.5,14.8,829.3,-11.3,-32.9,-9.6,25,309.404,35.8773,938.761,-7.6544,-46.7312,-9.58976,
2026_06_10_19_34_44.944,3.841,30.3,0,0.759,0,0,0,0, ,0,0,0,0,0, ,485.4,27,766.6,-12.8,-39.8,-8.5,25,320.619,34.9646,930.18,-7.92226,-46.0986,-9.55687,
2026_06_10_19_34_44.964,3.841,30.3,0,0.759,0,0,0,0, ,0,0,0,0,0, ,565.7,5.8,812.5,-5.7,-55,-7.5,25,333.107,33.8334,921.611,-8.00317,-46.1779,-9.462,
2026_06_10_19_34_44.984,3.841,30.2,0,0.76,0,0,0,0, ,0,0,0,0,0, ,612.7,11.5,861.4,10.2,-51.9,6.1,25,348.713,32.2988,916.452,-7.37837,-46.621,-8.92806,
2026_06_10_19_34_45.004,3.841,30.3,0,0.759,0,0,0,0, ,0,0,0,0,0, ,595,36.6,837.2,4.2,-38.7,14.3,25,364.26,31.7961,912.36,-6.49,-46.5405,-7.76245,
2026_06_10_19_34_45.024,3.841,30.3,0,0.759,0,0,0,0, ,0,0,0,0,0, ,546.7,22.2,753.4,-9.7,-27.9,13.7,25,376.849,31.6501,905.226,-6.26209,-45.7337,-6.4363,
2026_06_10_19_34_45.044,3.841,30.3,0,0.759,0,0,0,0, ,0,0,0,0,0, ,546.3,18,736.9,-14,-29.2,14.7,25,387.187,30.9462,895.472,-6.60261,-44.6865,-5.17877,
2026_06_10_19_34_45.064,3.841,30.1,0,0.759,0,0,0,0, ,0,0,0,0,0, ,582.6,35.4,751.9,-9.5,-40.4,8.8,25,397.989,30.6875,886.266,-6.91628,-44.0841,-4.14718,
2026_06_10_19_34_45.084,3.841,30.2,0,0.759,0,0,0,0, ,0,0,0,0,0, ,623.6,16.8,722.6,-8,-44.1,3.1,25,410.488,30.4079,877.185,-7.02802,-43.9723,-3.53188,
2026_06_10_19_34_45.103,3.841,30.3,0,0.761,0,0,0,0, ,0,0,0,0,0, ,635.1,-5.7,723.7,-12.2,-46.2,1.4,25,423.825,28.8932,867.798,-7.21522,-44.0441,-3.17955,
2026_06_10_19_34_45.123,3.841,30.2,0,0.758,0,0,0,0, ,0,0,0,0,0, ,646.4,-46.9,715.2,-14.9,-52.4,4,25,437.044,25.5298,858.758,-7.60124,-44.3644,-2.82126,
2026_06_10_19_34_45.143,3.841,30.3,0,0.757,0,0,0,0, ,0,0,0,0,0, ,607.4,-32.7,692,-12.5,-60.6,11.1,25,448.613,21.5488,849.304,-7.97289,-45.1039,-2.18926,
2026_06_10_19_34_45.163,3.841,30.3,0,0.757,0,0,0,0, ,0,0,0,0,0, ,638.5,19.4,720.3,-27.2,-62.5,12.7,25,459.237,19.8304,840.58,-8.69665,-46.1061,-1.3307,
2026_06_10_19_34_45.182,3.841,30.2,0,0.759,0,0,0,0, ,0,0,0,0,0, ,726.8,92.6,802.7,-16.8,-53,1.4,25,472.851,22.0345,835.761,-9.50732,-46.8156,-0.820001,
2026_06_10_19_34_45.202,3.841,30.3,0,0.761,0,0,0,0, ,0,0,0,0,0, ,780.2,-21.8,773.5,2.4,-45.2,-23.6,25,489.953,22.849,832.857,-9.36672,-46.9548,-1.44644,
2026_06_10_19_34_45.222,3.841,30.2,0,0.759,0,0,0,0, ,0,0,0,0,0, ,727.2,-83.1,723.2,18.6,-38.9,-9.8,25,506.025,18.2604,827.707,-8.15609,-46.6559,-2.37595,
2026_06_10_19_34_45.242,3.841,30.3,0,0.759,0,0,0,0, ,0,0,0,0,0, ,717.7,-57.2,644.7,10.6,-30.5,9.1,25,519.214,12.8729,818.947,-6.76939,-45.9274,-2.2525,
2026_06_10_19_34_45.262,3.841,30.2,0,0.759,0,0,0,0, ,0,0,0,0,0, ,707.2,21.4,652.3,3.1,-20.5,7,25,530.989,10.9977,808.56,-5.93946,-44.6826,-1.62469,
2026_06_10_19_34_45.286,3.841,30.2,0,0.758,0,0,0,0, ,0,0,0,0,0, ,744.7,-22.8,661.2,-4.6,-22.6,0.5,25,542.869,10.2849,799.309,-5.62323,-43.2729,-1.29717,
2026_06_10_19_34_45.301,3.841,30.3,0,0.759,0,0,0,0, ,0,0,0,0,0, ,688.2,40.8,662.2,-10.1,-27.6,-6,25,553.447,10.2066,790.924,-5.72845,-42.1655,-1.3857,
2026_06_10_19_34_45.321,3.841,30.2,0,0.759,0,0,0,0, ,0,0,0,0,0, ,690.4,-21.6,630.1,-18.3,-19.4,-14.4,25,561.726,10.1696,782.102,-6.24469,-41.0281,-1.92282,
2026_06_10_19_34_45.341,3.841,30.2,0,0.759,0,0,0,0, ,0,0,0,0,0, ,786.1,-42.7,642,-4.2,-22.7,-17.5,25,572.483,7.59076,773.202,-6.5497,-39.8107,-2.7776,
2026_06_10_19_34_45.361,3.841,30.1,0,0.759,0,0,0,0, ,0,0,0,0,0, ,858.3,-7.6,610.3,13.9,-51.3,-17.8,25,587.7,5.59562,764.241,-5.85503,-39.6394,-3.68389,
2026_06_10_19_34_45.380,3.841,30.3,0,0.759,0,0,0,0, ,0,0,0,0,0, ,820,23.5,576.6,24.1,-78.8,-15.7,25,603.022,5.73909,753.833,-4.34043,-41.1879,-4.4801,
2026_06_10_19_34_45.400,3.841,30.2,0,0.759,0,0,0,0, ,0,0,0,0,0, ,817.8,29.2,553.4,39,-88.6,-10,25,616.177,6.99507,742.326,-2.15335,-43.7784,-4.99015,
2026_06_10_19_34_45.420,3.841,30.1,0,0.758,0,0,0,0, ,0,0,0,0,0, ,825.6,63.7,501.7,48.1,-91,-1.8,25,628.701,9.39935,729.238,0.631695,-46.5829,-5.04559,
2026_06_10_19_34_45.440,3.841,30.3,0,0.759,0,0,0,0, ,0,0,0,0,0, ,774.5,27.4,535.4,33.1,-94.4,-5.7,25,639.143,11.6023,716.399,3.06726,-49.3931,-4.96664,
2026_06_10_19_34_45.459,3.841,30.1,0,0.76,0,0,0,0, ,0,0,0,0,0, ,866.9,42.2,509.8,31.7,-95.3,0,25,650.207,13.0159,704.59,4.85473,-52.1632,-4.83766,
2026_06_10_19_34_45.481,3.841,30.2,0,0.759,0,0,0,0, ,0,0,0,0,0, ,893.3,28.8,479.8,17.2,-76.8,14.8,25,664.216,14.386,691.806,6.04881,-54.2281,-4.09192,
2026_06_10_19_34_45.500,3.841,30.1,0,0.757,0,0,0,0, ,0,0,0,0,0, ,860.5,36.1,479.6,17.8,-56.5,18.3,25,677.176,15.4868,678.881,6.74662,-54.9851,-2.83406,
2026_06_10_19_34_45.519,3.841,30.2,0,0.761,0,0,0,0, ,0,0,0,0,0, ,873.9,19,469.3,17.1,-46.9,13.9,25,688.756,16.2219,666.423,7.39886,-54.7849,-1.68026,
2026_06_10_19_34_45.539,3.841,30.1,0,0.759,0,0,0,0, ,0,0,0,0,0, ,874.3,6.2,432.9,12.1,-50.7,12,25,700.05,16.0012,653.302,7.83768,-54.4202,-0.788732,
2026_06_10_19_34_45.559,3.841,30.1,0,0.76,0,0,0,0, ,0,0,0,0,0, ,829.4,4.7,412.7,9.9,-52.9,8.1,25,709.301,15.3582,639.256,8.03038,-54.2605,-0.128247,
2026_06_10_19_34_45.578,3.841,30.1,0,0.759,0,0,0,0, ,0,0,0,0,0, ,875.6,3,410.8,19.1,-48.8,1.4,25,718.027,14.6569,625.392,8.42462,-54.0527,0.169022,
2026_06_10_19_34_45.599,3.841,30.1,0,0.761,0,0,0,0, ,0,0,0,0,0, ,885.2,38.3,444.4,24.9,-42.1,1,25,727.921,15.0221,613.339,9.25187,-53.5285,0.231847,
2026_06_10_19_34_45.618,3.841,30.1,0,0.758,0,0,0,0, ,0,0,0,0,0, ,796.1,238.4,393,54.5,-27.4,14.5,25,734.791,22.5374,601.478,11.1073,-52.3842,0.689984,
2026_06_10_19_34_45.638,3.841,30.1,0,0.759,0,0,0,0, ,0,0,0,0,0, ,982,-24.7,449.8,44.6,-14.1,-6.3,25,744.191,27.6752,590.505,13.4499,-50.4565,0.897782,
2026_06_10_19_34_45.658,3.841,30.1,0,0.759,0,0,0,0, ,0,0,0,0,0, ,942.7,-8.9,443.8,9,-5.4,-5.5,25,757.485,24.965,581.748,14.2634,-47.9759,0.483542,
2026_06_10_19_34_45.677,3.841,30.2,0,0.759,0,0,0,0, ,0,0,0,0,0, ,886.2,11.4,434.9,2.2,14.1,8.7,25,767.05,23.5199,573.07,13.7355,-44.7873,0.551576,
2026_06_10_19_34_45.697,3.841,30.2,0,0.758,0,0,0,0, ,0,0,0,0,0, ,890.2,20.2,391.2,0.1,19.3,0.6,25,774.433,23.0495,563.319,12.9686,-41.0404,0.801324,
2026_06_10_19_34_45.718,3.841,30.1,0,0.759,0,0,0,0, ,0,0,0,0,0, ,913,12.3,368.8,-2.4,1.9,-3.7,25,782.182,22.6351,552.148,12.1082,-37.8936,0.65804,
2026_06_10_19_34_45.738,3.841,30.1,0,0.759,0,0,0,0, ,0,0,0,0,0, ,787.4,66.6,359.1,-2.7,-12.1,-3.9,25,786.327,23.6598,540.68,11.215,-35.8952,0.386378,
2026_06_10_19_34_45.757,3.841,30.2,0,0.759,0,0,0,0, ,0,0,0,0,0, ,885.4,91.1,307.3,1,-27.7,-12.7,25,789.378,27.0229,528.036,10.4798,-34.9205,-0.142948,
2026_06_10_19_34_45.777,3.841,30.1,0,0.758,0,0,0,0, ,0,0,0,0,0, ,1095.2,-29.5,362.7,16.3,-57.9,-17.6,25,801.622,27.2531,516.273,10.3683,-35.4007,-1.05744,
2026_06_10_19_34_45.797,3.841,30,0,0.759,0,0,0,0, ,0,0,0,0,0, ,969.6,-5.9,440.1,8.2,-58.8,11.3,25,815.685,24.5138,509.273,10.4829,-36.7991,-1.18496,
2026_06_10_19_34_45.817,3.841,30.1,0,0.759,0,0,0,0, ,0,0,0,0,0, ,962.1,54.6,407.4,-2.8,-47.2,20,25,824.835,24.5038,504.062,10.0087,-37.7864,-0.159075,
2026_06_10_19_34_45.836,3.841,30.2,0,0.758,0,0,0,0, ,0,0,0,0,0, ,921.8,61.6,374.7,-8.3,-26,14.9,25,831.972,26.5511,497.175,9.06056,-37.7141,0.913978,
2026_06_10_19_34_45.857,3.841,30.2,0,0.758,0,0,0,0, ,0,0,0,0,0, ,972.5,15.8,357.4,-10.8,-10.2,11.8,25,838.991,27.2914,489.185,7.92648,-36.5189,1.6718,
2026_06_10_19_34_45.876,3.841,30.2,0,0.759,0,0,0,0, ,0,0,0,0,0, ,979.8,29.9,327.1,-13.3,-6.5,18.7,25,847.349,27.0207,480.231,6.70916,-34.8023,2.49922,
2026_06_10_19_34_45.896,3.841,30.2,0,0.759,0,0,0,0, ,0,0,0,0,0, ,932,43.2,307.1,-13.7,-3,25.3,25,853.964,27.6014,470.29,5.47767,-32.971,3.68755,
2026_06_10_19_34_45.915,3.841,30.2,0,0.759,0,0,0,0, ,0,0,0,0,0, ,960.4,10.2,315.1,-10.9,-3.1,19.3,25,859.584,27.5465,460.589,4.39434,-31.1477,4.82174,
2026_06_10_19_34_45.936,3.841,30.1,0,0.759,0,0,0,0, ,0,0,0,0,0, ,937,-15.3,294.1,-9.4,-10,14,25,865.015,25.7125,451.084,3.50805,-29.6488,5.54253,
2026_06_10_19_34_45.955,3.841,30.2,0,0.758,0,0,0,0, ,0,0,0,0,0, ,885.7,0.1,308.8,-7.5,-20.8,12.2,25,867.838,23.6825,441.965,2.77935,-28.7805,6.00306,
2026_06_10_19_34_45.975,3.841,30.2,0,0.759,0,0,0,0, ,0,0,0,0,0, ,899.5,-11.8,296.2,-5.4,-28.6,3.8,25,869.347,21.8829,433.467,2.21694,-28.5318,6.12475,
2026_06_10_19_34_45.995,3.841,30.1,0,0.759,0,0,0,0, ,0,0,0,0,0, ,963.1,6.9,307.4,-3.3,-29.9,-7,25,873.123,20.4001,425.443,1.81677,-28.5756,5.65402,
2026_06_10_19_34_46.015,3.841,30.1,0,0.758,0,0,0,0, ,0,0,0,0,0, ,1017.4,-12.9,322.6,-6.8,-25,1.9,25,880.26,18.9741,418.713,1.39832,-28.507,5.15409,
2026_06_10_19_34_46.035,3.841,30.1,0,0.758,0,0,0,0, ,0,0,0,0,0, ,994.7,0.1,279.4,-8.7,-17.1,7,25,887.925,17.4279,411.54,0.840847,-28.0526,5.11119,
2026_06_10_19_34_46.054,3.841,30.2,0,0.759,0,0,0,0, ,0,0,0,0,0, ,935,0.3,239.5,-3.5,-14.6,0.6,25,892.613,16.3781,402.272,0.417889,-27.309,5.03128,
2026_06_10_19_34_46.074,3.841,30.1,0,0.758,0,0,0,0, ,0,0,0,0,0, ,919.7,-22.8,227.6,0,-21.6,-3.2,25,894.73,14.6945,391.991,0.285783,-26.7478,4.64547,
2026_06_10_19_34_46.094,3.841,30.2,0,0.758,0,0,0,0, ,0,0,0,0,0, ,947.3,-26.2,251.8,10.5,-30.3,-3.5,25,897.092,12.3061,382.71,0.58829,-26.6992,4.15825,
2026_06_10_19_34_46.114,3.841,30.2,0,0.758,0,0,0,0, ,0,0,0,0,0, ,954.3,-19.5,282.2,23.3,-31.3,10.7,25,900.365,10.1638,375.659,1.58229,-26.9491,4.12423,
2026_06_10_19_34_46.133,3.841,30.1,0,0.759,0,0,0,0, ,0,0,0,0,0, ,1007.2,-20.3,262,21.6,-21.4,24.3,25,905.264,8.33175,369.349,2.85391,-26.9126,4.93932,
2026_06_10_19_34_46.153,3.841,30,0,0.761,0,0,0,0, ,0,0,0,0,0, ,951.6,2.8,226.4,10.1,-5.6,12.7,25,909.781,7.29083,361.722,3.64586,-26.0953,5.76567,
2026_06_10_19_34_46.173,3.841,30.2,0,0.761,0,0,0,0, ,0,0,0,0,0, ,926.2,-24.5,210.2,8,-12.4,4.5,25,911.556,6.18537,352.983,3.97518,-25.0535,5.93839,
2026_06_10_19_34_46.192,3.841,30.1,0,0.758,0,0,0,0, ,0,0,0,0,0, ,942.2,-44.1,234.8,6.7,-25.7,3.8,25,912.936,3.71829,345.031,4.18083,-24.6877,5.82941,
2026_06_10_19_34_46.213,3.841,30.1,0,0.759,0,0,0,0, ,0,0,0,0,0, ,952,-61.2,262.2,3.3,-33.3,0.4,25,915.017,0.283352,339.149,4.23075,-24.9809,5.60215,
2026_06_10_19_34_46.233,3.841,30,0,0.758,0,0,0,0, ,0,0,0,0,0, ,954.9,-42.8,224.9,8.5,-32.6,5.4,25,917.359,-2.90266,333.323,4.33247,-25.4665,5.43748,
2026_06_10_19_34_46.252,3.841,30.1,0,0.759,0,0,0,0, ,0,0,0,0,0, ,963.6,10.8,142.3,17.3,-38.3,8.3,25,919.912,-3.70078,324.2,4.85455,-26.0749,5.52356,
2026_06_10_19_34_46.272,3.841,30,0,0.758,0,0,0,0, ,0,0,0,0,0, ,911.8,-10,140.7,10.6,-45.3,-7.2,25,920.996,-3.45089,313.066,5.4088,-27.0332,5.22048,
2026_06_10_19_34_46.292,3.841,30.1,0,0.759,0,0,0,0, ,0,0,0,0,0, ,1051.5,-23.9,113.4,10.1,-61.6,-13.5,25,924.692,-4.27349,301.731,5.70991,-28.6429,4.27166,
2026_06_10_19_34_46.312,3.841,30.1,0,0.758,0,0,0,0, ,0,0,0,0,0, ,978.2,-39.9,172.8,-4.8,-77.3,-14.4,25,930.186,-5.95698,292.064,5.52345,-31.1296,3.16127,
2026_06_10_19_34_46.332,3.841,30.1,0,0.759,0,0,0,0, ,0,0,0,0,0, ,985.5,-24.1,169.6,-16.3,-67.3,-13,25,933.334,-7.54398,284.699,4.54397,-33.6384,2.13379,
2026_06_10_19_34_46.352,3.841,30.1,0,0.758,0,0,0,0, ,0,0,0,0,0, ,985.3,-2.6,101.3,-2.9,-47.1,-3.9,25,936.507,-7.89778,275.604,3.68207,-35.0742,1.48884,
2026_06_10_19_34_46.372,3.841,30.1,0,0.758,0,0,0,0, ,0,0,0,0,0, ,990.9,-25.6,68.7,0.4,-41.8,-0.1,25,939.651,-8.27573,263.989,3.38152,-35.6456,1.27624,
2026_06_10_19_34_46.391,3.841,30.1,0,0.759,0,0,0,0, ,0,0,0,0,0, ,990.7,-30.2,47.9,1.2,-43.7,3.5,25,942.768,-9.47159,251.455,3.22421,-36.0785,1.30206,
2026_06_10_19_34_46.411,3.841,30.1,0,0.759,0,0,0,0, ,0,0,0,0,0, ,978.1,-15.5,55.5,2.4,-49.6,-0.8,25,945.305,-10.2868,239.283,3.13742,-36.7227,1.30498,
2026_06_10_19_34_46.431,3.841,30.1,0,0.758,0,0,0,0, ,0,0,0,0,0, ,991.6,-36,17.4,7.6,-49.2,-4.7,25,947.715,-11.2291,226.922,3.25093,-37.4952,1.05788,
2026_06_10_19_34_46.451,3.841,30.1,0,0.758,0,0,0,0, ,0,0,0,0,0, ,1004.3,-2.3,-34.1,6.7,-39.5,-6.9,25,950.776,-11.7118,212.586,3.48852,-37.9129,0.639981,
2026_06_10_19_34_46.470,3.841,30.1,0,0.758,0,0,0,0, ,0,0,0,0,0, ,1001.7,7.5,-66.6,5.7,-30.4,-6.8,25,953.958,-10.8397,196.563,3.65376,-37.7324,0.183561,
2026_06_10_19_34_46.490,3.841,30,0,0.759,0,0,0,0, ,0,0,0,0,0, ,977.2,-11.8,-5.4,2.9,-39.2,-7.3,25,956.121,-10.3101,182.391,3.69314,-37.5537,-0.257234,
2026_06_10_19_34_46.516,3.841,30.1,0,0.759,0,0,0,0, ,0,0,0,0,0, ,935.7,-6.9,8.3,15.5,-48.1,-3.2,25,956.141,-10.2516,171.365,4.02871,-37.9252,-0.561481,
2026_06_10_19_34_46.529,3.841,30.1,0,0.758,0,0,0,0, ,0,0,0,0,0, ,964.4,-76.9,-43.2,42.2,-52.4,10.6,25,955.77,-12.1802,159.859,5.54126,-38.6762,-0.301797,
2026_06_10_19_34_46.549,3.841,30.1,0,0.758,0,0,0,0, ,0,0,0,0,0, ,986.5,-44.6,-105.3,48.9,-45.3,21.2,25,956.969,-15.1399,145.593,7.97929,-39.2962,0.6855,
2026_06_10_19_34_46.569,3.841,30,0,0.76,0,0,0,0, ,0,0,0,0,0, ,972.1,-27.4,-130.2,54.4,-41.4,22.7,25,958.33,-16.4111,129.546,10.6405,-39.5432,1.98131,
2026_06_10_19_34_46.589,3.841,30,0,0.759,0,0,0,0, ,0,0,0,0,0, ,975.2,-32.4,-113,41.5,-41.5,16.5,25,959.264,-17.2331,114.241,12.914,-39.6594,3.05494,
2026_06_10_19_34_46.609,3.841,30,0,0.758,0,0,0,0, ,0,0,0,0,0, ,958.1,-29.9,-109,22.8,-40.4,6.3,25,959.714,-18.0811,100.516,14.0862,-39.7381,3.56347,
2026_06_10_19_34_46.629,3.841,30.1,0,0.758,0,0,0,0, ,0,0,0,0,0, ,975.8,-20.1,-128.6,14.3,-28.3,-5.1,25,960.155,-18.5028,87.1512,14.3582,-39.4097,3.38288,
2026_06_10_19_34_46.652,3.841,30,0,0.758,0,0,0,0, ,0,0,0,0,0, ,946.4,-54.1,-151.4,4.9,-9.8,-14.3,25,960.212,-19.636,73.3092,14.0683,-38.169,2.58565,
2026_06_10_19_34_46.668,3.841,30,0,0.759,0,0,0,0, ,0,0,0,0,0, ,972.4,-42.2,-131.2,-1.7,-1.9,-13.5,25,960.163,-21.3736,60.2315,13.3085,-36.1996,1.58105,
2026_06_10_19_34_46.688,3.841,30,0,0.758,0,0,0,0, ,0,0,0,0,0, ,991.8,-26.3,-130.1,0.3,4.9,-11.3,25,961.5,-22.1582,48.5996,12.4548,-33.9023,0.729082,
2026_06_10_19_34_46.708,3.841,30,0,0.759,0,0,0,0, ,0,0,0,0,0, ,960.5,-34.9,-157.4,2.9,4.5,-11.9,25,962.392,-22.6727,36.8783,11.7934,-31.55,-0.0222212,
2026_06_10_19_34_46.728,3.841,30.1,0,0.759,0,0,0,0, ,0,0,0,0,0, ,972.5,-30.1,-152.8,0.2,2.5,-12.2,25,962.643,-23.2715,25.1796,11.1692,-29.4141,-0.755164,
2026_06_10_19_34_46.748,3.841,30,0,0.758,0,0,0,0, ,0,0,0,0,0, ,1005.2,-15.5,-141.3,-0.8,4,-12.4,25,964.24,-23.2428,14.6844,10.4703,-27.4236,-1.45868,
2026_06_10_19_34_46.768,3.841,30.1,0,0.758,0,0,0,0, ,0,0,0,0,0, ,1035.2,-24.6,-111.2,4.3,4.4,-8.5,25,967.65,-23.0482,6.09621,9.93888,-25.4966,-2.00659,
2026_06_10_19_34_46.787,3.841,30.1,0,0.757,0,0,0,0, ,0,0,0,0,0, ,1009.1,-20.2,-132,0.5,4.1,-4.9,25,970.971,-23.0087,-1.68527,9.47948,-23.6839,-2.29259,
2026_06_10_19_34_46.807,3.841,30,0,0.759,0,0,0,0, ,0,0,0,0,0, ,975.2,-18.7,-142,-0.9,1.8,-4.8,25,972.261,-22.7919,-9.93101,8.88963,-22.0609,-2.44843,
2026_06_10_19_34_46.827,3.841,30.1,0,0.759,0,0,0,0, ,0,0,0,0,0, ,976.6,-12.3,-104.8,-2.3,1.8,-5.9,25,972.483,-22.3475,-16.8455,8.25042,-20.6069,-2.62525,
2026_06_10_19_34_46.847,3.841,29.9,0,0.757,0,0,0,0, ,0,0,0,0,0, ,1014.1,-12.9,-77.3,1,4.6,-6.5,25,973.877,-21.7535,-21.3674,7.70805,-19.1561,-2.84308,
2026_06_10_19_34_46.867,3.841,30,0,0.757,0,0,0,0, ,0,0,0,0,0, ,1023.1,-15.9,-96.9,1,4.3,-5.9,25,976.602,-21.3054,-25.3729,7.29928,-17.7176,-3.04765,
2026_06_10_19_34_46.887,3.841,30,0,0.758,0,0,0,0, ,0,0,0,0,0, ,1004.1,-4.5,-105.2,0.4,7.8,-2.4,25,978.857,-20.6287,-29.9845,6.89714,-16.2693,-3.11482,
2026_06_10_19_34_46.906,3.841,30,0,0.759,0,0,0,0, ,0,0,0,0,0, ,976.9,5.8,-117.7,3.7,9,-1.9,25,979.566,-19.332,-34.9488,6.60177,-14.766,-3.05603,
2026_06_10_19_34_46.926,3.841,30,0,0.758,0,0,0,0, ,0,0,0,0,0, ,979.1,-17,-112.5,4.3,6.8,-3,25,979.471,-18.4952,-39.833,6.44322,-13.3848,-3.0191,
2026_06_10_19_34_46.946,3.841,30,0,0.758,0,0,0,0, ,0,0,0,0,0, ,1002.5,-26,-92.1,3,1.9,-5,25,980.161,-18.6783,-43.6396,6.27301,-12.3041,-3.07887,
2026_06_10_19_34_46.966,3.841,30,0,0.757,0,0,0,0, ,0,0,0,0,0, ,1022.3,-9.7,-87.8,-0.5,2.2,-1,25,982.126,-18.6278,-46.4617,5.96692,-11.4294,-3.07406,
2026_06_10_19_34_46.986,3.841,30,0,0.758,0,0,0,0, ,0,0,0,0,0, ,1004.1,-15.1,-80.2,1.6,2,-0.5,25,984.019,-18.2483,-48.7491,5.63683,-10.6049,-2.93244,
2026_06_10_19_34_47.006,3.841,30,0,0.759,0,0,0,0, ,0,0,0,0,0, ,985.2,-15,-84.7,-0.6,2.9,-1.5,25,984.667,-18.0534,-50.8028,5.3238,-9.8094,-2.81468,
2026_06_10_19_34_47.025,3.841,30,0,0.759,0,0,0,0, ,0,0,0,0,0, ,991.6,-10.1,-87.5,-1.6,2.9,-2.8,25,984.894,-17.7181,-52.9537,4.93235,-9.03492,-2.77418,
2026_06_10_19_34_47.044,3.841,30,0,0.759,0,0,0,0, ,0,0,0,0,0, ,1016.8,-9,-93.8,-1.7,2,-1.8,25,986.071,-17.2203,-55.2508,4.53124,-8.33506,-2.74528,
2026_06_10_19_34_47.065,3.841,29.9,0,0.759,0,0,0,0, ,0,0,0,0,0, ,996,-13.6,-106,-2.1,-1.4,0.7,25,987.31,-16.8596,-57.9716,4.13933,-7.80886,-2.61151,
2026_06_10_19_34_47.085,3.841,30,0,0.759,0,0,0,0, ,0,0,0,0,0, ,969.8,-27.4,-85.9,-0.9,-3.5,1,25,987.041,-17.0814,-60.2859,3.79569,-7.4823,-2.40057,
2026_06_10_19_34_47.104,3.841,30,0,0.758,0,0,0,0, ,0,0,0,0,0, ,975,-8.7,-82.6,-0.4,7.2,0,25,986.149,-17.1404,-61.7463,3.52478,-6.91362,-2.22382,
2026_06_10_19_34_47.124,3.841,30,0,0.759,0,0,0,0, ,0,0,0,0,0, ,996.4,-16.2,-84.4,2.3,6.4,-2.4,25,986.121,-16.8546,-63.0719,3.36788,-6.07794,-2.16143,
2026_06_10_19_34_47.144,3.841,29.9,0,0.759,0,0,0,0, ,0,0,0,0,0, ,1010.8,-7.5,-95,1.2,4.2,1.2,25,987.187,-16.5496,-64.6945,3.26929,-5.3846,-2.06628,
2026_06_10_19_34_47.164,3.841,30,0,0.759,0,0,0,0, ,0,0,0,0,0, ,989.2,-11.5,-96.1,2.3,-0.6,1,25,987.967,-16.12,-66.5748,3.17671,-4.94679,-1.87334,
2026_06_10_19_34_47.183,3.841,30,0,0.759,0,0,0,0, ,0,0,0,0,0, ,971.4,-14.4,-82.2,0.5,0,0.4,25,987.5,-15.9269,-67.9505,3.06844,-4.66363,-1.71652,
2026_06_10_19_34_47.203,3.841,30,0,0.757,0,0,0,0, ,0,0,0,0,0, ,985.7,-8.6,-74.4,-0.7,4.7,-2,25,986.955,-15.6571,-68.5811,2.87536,-4.23623,-1.66067,
2026_06_10_19_34_47.223,3.841,29.9,0,0.758,0,0,0,0, ,0,0,0,0,0, ,996,-15.9,-80.5,-0.8,6.5,-1.9,25,987.192,-15.4495,-69.1216,2.65444,-3.63684,-1.6783,
2026_06_10_19_34_47.244,3.841,30,0,0.759,0,0,0,0, ,0,0,0,0,0, ,982.1,-22.4,-83,-1.3,3.9,-0.5,25,987.305,-15.675,-69.8911,2.4287,-3.09834,-1.64916,
2026_06_10_19_34_47.263,3.841,29.9,0,0.759,0,0,0,0, ,0,0,0,0,0, ,983.6,-15.7,-81.5,0.2,4.1,-0.6,25,987.034,-15.8807,-70.6442,2.24719,-2.66579,-1.58218,
2026_06_10_19_34_47.283,3.841,30,0,0.759,0,0,0,0, ,0,0,0,0,0, ,973.6,-18.9,-77.5,-1.5,-0.7,-2.5,25,986.52,-15.9671,-71.1839,2.07064,-2.39975,-1.58022,
2026_06_10_19_34_47.302,3.841,30,0,0.759,0,0,0,0, ,0,0,0,0,0, ,974.1,-21.2,-72.5,-2.8,-0.5,-2.8,25,985.748,-16.2159,-71.4164,1.81344,-2.29008,-1.64541,
2026_06_10_19_34_47.322,3.841,30,0,0.758,0,0,0,0, ,0,0,0,0,0, ,967.2,-17,-67.6,-2.5,0.7,-4.9,25,984.828,-16.3917,-71.3332,1.54145,-2.14443,-1.77975,
2026_06_10_19_34_47.342,3.841,30.1,0,0.759,0,0,0,0, ,0,0,0,0,0, ,1003.5,-12.2,-79.5,-0.9,0.6,-6.6,25,984.86,-16.2825,-71.4683,1.34393,-1.97414,-2.02169,
2026_06_10_19_34_47.361,3.841,29.9,0,0.758,0,0,0,0, ,0,0,0,0,0, ,1010.6,-21.8,-89.9,-0.4,-2,-3.2,25,986.212,-16.3262,-72.2746,1.22242,-1.8965,-2.19708,
2026_06_10_19_34_47.382,3.841,30,0,0.759,0,0,0,0, ,0,0,0,0,0, ,996.7,-11.5,-82,-1.1,0.9,0,25,987.274,-16.346,-73.1079,1.10223,-1.81445,-2.1607,
2026_06_10_19_34_47.402,3.841,30,0,0.758,0,0,0,0, ,0,0,0,0,0, ,983.2,-14.1,-72.5,-0.6,3.4,-0.8,25,987.438,-16.1299,-73.3603,0.983264,-1.57287,-2.05341,
2026_06_10_19_34_47.421,3.841,29.9,0,0.758,0,0,0,0, ,0,0,0,0,0, ,982.9,-17,-71.5,-1,1.7,-1.1,25,987.17,-16.0945,-73.2774,0.874597,-1.32163,-1.98617,
2026_06_10_19_34_47.441,3.841,29.9,0,0.759,0,0,0,0, ,0,0,0,0,0, ,980.9,-13.1,-72.3,-1.6,-2.3,-2,25,986.849,-16.0309,-73.1935,0.742082,-1.25937,-1.95959,
2026_06_10_19_34_47.461,3.841,30,0,0.759,0,0,0,0, ,0,0,0,0,0, ,999.1,-17.9,-80,0,-1.4,-2,25,987.041,-15.9985,-73.3737,0.648112,-1.29536,-1.96205,
2026_06_10_19_34_47.481,3.841,29.8,0,0.759,0,0,0,0, ,0,0,0,0,0, ,991.6,-15,-76.7,0.7,1.4,0.4,25,987.547,-16.0261,-73.6769,0.629945,-1.21643,-1.89124,
2026_06_10_19_34_47.500,3.841,29.9,0,0.759,0,0,0,0, ,0,0,0,0,0, ,979.2,-12.2,-73.4,0,0.5,-0.5,25,987.416,-15.8782,-73.7606,0.612886,-1.08441,-1.77904,
2026_06_10_19_34_47.521,3.841,30,0,0.758,0,0,0,0, ,0,0,0,0,0, ,993.8,-15.9,-63.5,1.2,-1.3,-1.7,25,987.361,-15.7668,-73.437,0.612101,-1.0427,-1.73766,
2026_06_10_19_34_47.541,3.841,30,0,0.759,0,0,0,0, ,0,0,0,0,0, ,979.4,-16.9,-72.1,-0.5,-1.8,-0.9,25,987.314,-15.8054,-73.0935,0.596129,-1.07362,-1.71099,
2026_06_10_19_34_47.560,3.841,29.9,0,0.759,0,0,0,0, ,0,0,0,0,0, ,983.3,-13.4,-64.6,-0.6,0,-2.2,25,986.951,-15.7655,-72.8044,0.526287,-1.06304,-1.70118,
2026_06_10_19_34_47.580,3.841,29.9,0,0.759,0,0,0,0, ,0,0,0,0,0, ,973.1,-14.5,-72.9,-2,-0.3,-3.4,25,986.418,-15.6548,-72.5573,0.414998,-1.0074,-1.76814,
2026_06_10_19_34_47.600,3.841,30,0,0.759,0,0,0,0, ,0,0,0,0,0, ,993,-16.6,-70,-1.6,-3,-4.3,25,986.212,-15.6484,-72.4899,0.280021,-1.04656,-1.895,
2026_06_10_19_34_47.620,3.841,29.8,0,0.759,0,0,0,0, ,0,0,0,0,0, ,991.8,-15.3,-72.8,-2.8,-1.9,-3.3,25,986.589,-15.6668,-72.4234,0.128895,-1.13208,-2.01109,
2026_06_10_19_34_47.641,3.841,29.9,0,0.758,0,0,0,0, ,0,0,0,0,0, ,990.9,-10.7,-93.2,-1.9,0.8,-4,25,986.88,-15.5043,-73.068,-0.0221627,-1.09661,-2.11096,
2026_06_10_19_34_47.659,3.841,29.9,0,0.759,0,0,0,0, ,0,0,0,0,0, ,999.5,-16.3,-88.5,-1.2,-2.3,-2.6,25,987.387,-15.3822,-74.1515,-0.115265,-1.07549,-2.18342,
2026_06_10_19_34_47.679,3.841,30,0,0.76,0,0,0,0, ,0,0,0,0,0, ,987.3,-9.2,-74.2,-0.5,-3.3,-1.8,25,987.753,-15.2218,-74.5902,-0.160038,-1.18058,-2.18443,
2026_06_10_19_34_47.699,3.841,29.9,0,0.759,0,0,0,0, ,0,0,0,0,0, ,978.2,-8.7,-77.8,0,-1.1,-4.1,25,987.448,-14.8396,-74.6761,-0.16552,-1.2427,-2.23108,
2026_06_10_19_34_47.718,3.841,29.9,0,0.758,0,0,0,0, ,0,0,0,0,0, ,982.2,-12.6,-83.8,0.6,-1.9,-5.1,25,987.006,-14.5843,-75.0493,-0.137153,-1.25838,-2.37543,
2026_06_10_19_34_47.738,3.841,29.9,0,0.758,0,0,0,0, ,0,0,0,0,0, ,991.2,-6.9,-81.6,1.1,-1.6,-4.3,25,986.988,-14.2897,-75.5155,-0.076998,-1.28833,-2.51709,
2026_06_10_19_34_47.758,3.841,29.9,0,0.759,0,0,0,0, ,0,0,0,0,0, ,997.8,-7.9,-89.3,2,-2.4,-4,25,987.446,-13.8699,-76.1209,0.0221472,-1.3317,-2.61659,
2026_06_10_19_34_47.779,3.841,30,0,0.759,0,0,0,0, ,0,0,0,0,0, ,999.6,-8.7,-84.5,1.9,-5.1,-1.7,25,988.131,-13.5304,-76.7777,0.139626,-1.47907,-2.63082,
2026_06_10_19_34_47.797,3.841,29.8,0,0.759,0,0,0,0, ,0,0,0,0,0, ,987.5,-4.1,-65,1.4,-2,-0.9,25,988.462,-13.0959,-76.6542,0.231664,-1.60526,-2.54972,
2026_06_10_19_34_47.817,3.841,29.8,0,0.759,0,0,0,0, ,0,0,0,0,0, ,989.9,-4.1,-69.2,0.3,2.8,-2.2,25,988.476,-12.5477,-76.072,0.269344,-1.48307,-2.4888,
2026_06_10_19_34_47.837,3.841,29.8,0,0.759,0,0,0,0, ,0,0,0,0,0, ,989.6,-8.5,-76.6,-0.8,2.1,-2,25,988.554,-12.167,-75.8787,0.237696,-1.2434,-2.46511,
2026_06_10_19_34_47.857,3.841,29.9,0,0.758,0,0,0,0, ,0,0,0,0,0, ,986.8,-6.7,-86.5,-1,-0.3,-2.7,25,988.532,-11.8887,-76.2243,0.168368,-1.11278,-2.45809,
2026_06_10_19_34_47.877,3.841,29.9,0,0.759,0,0,0,0, ,0,0,0,0,0, ,996,-8,-74.8,-1.1,-3.6,-2.2,25,988.707,-11.6121,-76.494,0.0941238,-1.1638,-2.4576,
2026_06_10_19_34_47.896,3.841,29.9,0,0.759,0,0,0,0, ,0,0,0,0,0, ,986.5,-6.5,-72.6,-2.4,-3.3,-2,25,988.862,-11.3463,-76.3237,-0.0182525,-1.30312,-2.43581,
2026_06_10_19_34_47.916,3.841,29.8,0,0.759,0,0,0,0, ,0,0,0,0,0, ,1007.2,-5.8,-86.5,0,0.7,-2.7,25,989.349,-11.0297,-76.5203,-0.0902652,-1.30293,-2.43058,
2026_06_10_19_34_47.936,3.841,29.8,0,0.758,0,0,0,0, ,0,0,0,0,0, ,1006.7,-9.1,-93.2,0.2,2.3,0.7,25,990.421,-10.8115,-77.3326,-0.0786709,-1.13212,-2.3434,
2026_06_10_19_34_47.956,3.841,29.9,0,0.759,0,0,0,0, ,0,0,0,0,0, ,974.3,-0.6,-80.9,-1.7,1,1,25,990.426,-10.4483,-77.9247,-0.11958,-0.962588,-2.14881,
2026_06_10_19_34_47.976,3.841,30,0,0.76,0,0,0,0, ,0,0,0,0,0, ,972.9,-4.6,-82.8,0.4,0.3,-3.2,25,989.401,-9.97,-78.1639,-0.151903,-0.864321,-2.08489,
2026_06_10_19_34_47.996,3.841,29.9,0,0.759,0,0,0,0, ,0,0,0,0,0, ,979.6,-16.4,-81.9,0,-3.8,-3.4,25,988.599,-10.0023,-78.419,-0.130458,-0.918292,-2.15894,
2026_06_10_19_34_48.016,3.841,29.9,0,0.758,0,0,0,0, ,0,0,0,0,0, ,989.9,-4.7,-83.6,0.3,-1.5,-2,25,988.365,-10.0357,-78.6829,-0.113368,-1.02382,-2.19191,
2026_06_10_19_34_48.036,3.841,29.9,0,0.757,0,0,0,0, ,0,0,0,0,0, ,984.1,-5.4,-80,0.6,-1,-2.1,25,988.282,-9.73186,-78.8729,-0.0790378,-1.0376,-2.18326,
2026_06_10_19_34_48.056,3.841,29.9,0,0.758,0,0,0,0, ,0,0,0,0,0, ,980.4,-11.7,-79.5,0.3,0.2,-1.7,25,987.914,-9.65984,-78.9263,-0.0467996,-0.998747,-2.166,
2026_06_10_19_34_48.076,3.841,29.9,0,0.759,0,0,0,0, ,0,0,0,0,0, ,981.6,-8.4,-75.8,0,-0.9,-2.6,25,987.493,-9.68361,-78.8486,-0.0348071,-0.959214,-2.16503,
2026_06_10_19_34_48.095,3.841,29.9,0,0.758,0,0,0,0, ,0,0,0,0,0, ,992.3,-10,-74.5,-0.3,-3,-3.5,25,987.46,-9.65414,-78.6232,-0.0418266,-1.01959,-2.21895,
2026_06_10_19_34_48.115,3.841,29.9,0,0.758,0,0,0,0, ,0,0,0,0,0, ,990.9,-6.5,-76.4,-1,-1.9,-2.4,25,987.712,-9.56858,-78.4298,-0.0788872,-1.10676,-2.2635,
2026_06_10_19_34_48.135,3.841,29.8,0,0.759,0,0,0,0, ,0,0,0,0,0, ,992.1,-4.3,-75.6,-0.4,0,-3.1,25,987.943,-9.31456,-78.2817,-0.116736,-1.0972,-2.29315,
2026_06_10_19_34_48.154,3.841,29.9,0,0.758,0,0,0,0, ,0,0,0,0,0, ,1002.5,-10.2,-76.6,-0.7,0,-2,25,988.513,-9.18875,-78.1488,-0.143138,-1.03034,-2.3088,
2026_06_10_19_34_48.175,3.841,29.9,0,0.758,0,0,0,0, ,0,0,0,0,0, ,988.8,-7.4,-83.7,0,0.6,0,25,988.948,-9.16506,-78.2707,-0.155744,-0.949275,-2.22905,
2026_06_10_19_34_48.194,3.841,29.8,0,0.758,0,0,0,0, ,0,0,0,0,0, ,973.1,-4.6,-78.1,-0.3,1,-1,25,988.461,-8.97219,-78.431,-0.155394,-0.842678,-2.12368,
2026_06_10_19_34_48.214,3.841,29.8,0,0.758,0,0,0,0, ,0,0,0,0,0, ,984.1,-1.4,-74.9,-0.6,-1.2,-3.6,25,987.86,-8.60826,-78.3133,-0.173346,-0.797421,-2.13443,
2026_06_10_19_34_48.234,3.841,29.9,0,0.76,0,0,0,0, ,0,0,0,0,0, ,1000.9,-2.4,-73.8,-1.3,-2.5,-3.4,25,988.142,-8.19947,-78.0718,-0.220674,-0.861563,-2.21764,
2026_06_10_19_34_48.254,3.841,29.8,0,0.758,0,0,0,0, ,0,0,0,0,0, ,1000.2,-2.5,-76.1,-2.2,-0.6,-1.4,25,988.899,-7.84911,-77.8816,-0.313867,-0.903515,-2.22875,
2026_06_10_19_34_48.274,3.841,29.9,0,0.758,0,0,0,0, ,0,0,0,0,0, ,986.6,-0.4,-77.5,-1.5,3.5,-0.5,25,989.173,-7.45917,-77.8156,-0.407475,-0.760097,-2.15083,
2026_06_10_19_34_48.293,3.841,29.8,0,0.759,0,0,0,0, ,0,0,0,0,0, ,961.5,-2.1,-84.4,-1.9,1.7,-2.7,25,988.251,-7.0808,-78.0066,-0.486238,-0.555341,-2.11726,
2026_06_10_19_34_48.319,3.841,29.8,0,0.758,0,0,0,0, ,0,0,0,0,0, ,972.9,-4.7,-74.8,-3.8,-0.6,-4.6,25,986.968,-6.8565,-78.1037,-0.63028,-0.487985,-2.21066,
2026_06_10_19_34_48.333,3.841,29.8,0,0.757,0,0,0,0, ,0,0,0,0,0, ,1001.9,-3.6,-89.2,-1.3,0,-6.1,25,986.995,-6.69157,-78.3412,-0.747263,-0.476529,-2.40197,
2026_06_10_19_34_48.353,3.841,29.8,0,0.758,0,0,0,0, ,0,0,0,0,0, ,1006.3,-8.3,-101.6,-1.7,-1.6,-3,25,988.037,-6.64638,-79.3807,-0.793133,-0.496241,-2.53286,
2026_06_10_19_34_48.372,3.841,29.8,0,0.759,0,0,0,0, ,0,0,0,0,0, ,995.8,-2.6,-83.3,-1,-0.7,-1.1,25,988.83,-6.57348,-80.1771,-0.827067,-0.536079,-2.50344,
2026_06_10_19_34_48.392,3.841,29.8,0,0.759,0,0,0,0, ,0,0,0,0,0, ,987.5,-6.2,-69.8,-0.5,2.3,-1.5,25,989.002,-6.44103,-79.9561,-0.822371,-0.454662,-2.4301,
2026_06_10_19_34_48.412,3.841,29.7,0,0.757,0,0,0,0, ,0,0,0,0,0, ,984.4,-2.4,-67.8,-0.7,1.7,-1.9,25,988.816,-6.31056,-79.2763,-0.80882,-0.305081,-2.38561,
2026_06_10_19_34_48.432,3.841,29.8,0,0.759,0,0,0,0, ,0,0,0,0,0, ,991.8,-1.9,-71.4,-1.4,-0.7,-2.5,25,988.772,-6.05703,-78.6866,-0.823517,-0.256021,-2.3743,
2026_06_10_19_34_48.457,3.841,29.8,0,0.757,0,0,0,0, ,0,0,0,0,0, ,1001.2,1.5,-74.8,-1.5,-3.1,-2.4,25,989.243,-5.70011,-78.3462,-0.861693,-0.356201,-2.37892,
2026_06_10_19_34_48.472,3.841,29.8,0,0.757,0,0,0,0, ,0,0,0,0,0, ,993.7,0.9,-73.3,-2,-1.5,-0.9,25,989.743,-5.27964,-78.0844,-0.915824,-0.474652,-2.3345,
2026_06_10_19_34_48.491,3.841,29.8,0,0.758,0,0,0,0, ,0,0,0,0,0, ,973.3,4.5,-78,-2.5,0.7,-2,25,989.363,-4.79338,-77.936,-0.997126,-0.470102,-2.2806,
2026_06_10_19_34_48.512,3.841,29.8,0,0.759,0,0,0,0, ,0,0,0,0,0, ,976.9,5.3,-79.7,-3,0.8,-3.9,25,988.494,-4.20269,-77.9917,-1.10394,-0.395752,-2.32139,
2026_06_10_19_34_48.531,3.841,29.9,0,0.758,0,0,0,0, ,0,0,0,0,0, ,983.1,3.5,-71.8,-3.5,-0.5,-4.1,25,987.976,-3.67846,-77.8551,-1.23472,-0.362496,-2.42368,
2026_06_10_19_34_48.551,3.841,29.8,0,0.761,0,0,0,0, ,0,0,0,0,0, ,984.2,7.8,-74.9,-2.6,-1.8,-5.5,25,987.713,-3.11001,-77.5806,-1.34534,-0.410484,-2.56849,
2026_06_10_19_34_48.570,3.841,29.8,0,0.758,0,0,0,0, ,0,0,0,0,0, ,995.1,0.4,-81.4,-2.7,-3.2,-6.3,25,987.831,-2.67065,-77.6153,-1.42484,-0.537814,-2.7715,
2026_06_10_19_34_48.596,3.841,29.8,0,0.76,0,0,0,0, ,0,0,0,0,0, ,989.6,34,-89.3,-1.5,-1.2,-2.7,25,988.106,-1.45978,-78.0866,-1.46598,-0.639104,-2.87683,
2026_06_10_19_34_48.610,3.841,29.7,0,0.758,0,0,0,0, ,0,0,0,0,0, ,989,-1.2,-87.4,2.9,-0.9,-5,25,988.179,-0.371452,-78.712,-1.33399,-0.664143,-2.93613,
2026_06_10_19_34_48.630,3.841,29.8,0,0.758,0,0,0,0, ,0,0,0,0,0, ,996.3,-8.3,-96.3,-3.9,-3.2,-3.4,25,988.451,-0.63827,-79.5126,-1.28317,-0.748593,-3.01315,
2026_06_10_19_34_48.650,3.841,29.7,0,0.759,0,0,0,0, ,0,0,0,0,0, ,1006.8,4.8,-89.2,0.7,-1.6,-3,25,989.249,-0.706016,-80.3193,-1.30248,-0.849226,-3.02454,
2026_06_10_19_34_48.670,3.841,29.6,0,0.759,0,0,0,0, ,0,0,0,0,0, ,1013.5,2,-93.8,0.4,-0.2,-1,25,990.523,-0.455806,-81.0006,-1.18959,-0.85232,-2.9621,
2026_06_10_19_34_48.690,3.841,29.8,0,0.759,0,0,0,0, ,0,0,0,0,0, ,990.7,8.6,-89.4,0.6,-0.5,1.2,25,991.229,-0.105061,-81.6465,-1.08663,-0.82171,-2.77551,
2026_06_10_19_34_48.710,3.841,29.7,0,0.757,0,0,0,0, ,0,0,0,0,0, ,975.3,0.9,-57.2,2.4,0.1,0.4,25,990.727,0.190794,-81.1379,-0.92901,-0.783824,-2.55762,
2026_06_10_19_34_48.739,3.841,29.7,0,0.758,0,0,0,0, ,0,0,0,0,0, ,979.2,7.6,-63.8,0.6,1.6,-2.2,25,989.906,0.438152,-79.8803,-0.780992,-0.684263,-2.45661,
2026_06_10_19_34_48.749,3.841,29.7,0,0.76,0,0,0,0, ,0,0,0,0,0, ,993.4,7.3,-81.1,-0.2,-0.9,-3.3,25,989.686,0.865436,-79.4275,-0.721213,-0.621238,-2.47449,
2026_06_10_19_34_48.769,3.841,29.7,0,0.758,0,0,0,0, ,0,0,0,0,0, ,1003.2,6.2,-77.7,-0.5,-2.8,-2.8,25,990.211,1.22403,-79.4258,-0.698592,-0.696115,-2.50956,
2026_06_10_19_34_48.788,3.841,29.8,0,0.757,0,0,0,0, ,0,0,0,0,0, ,998.6,-1.7,-72.1,-0.3,-1.6,0.2,25,990.862,1.28655,-79.15,-0.680396,-0.787758,-2.43585,
2026_06_10_19_34_48.808,3.841,29.8,0,0.759,0,0,0,0, ,0,0,0,0,0, ,967.7,4.6,-66.1,-1.4,2.5,0.6,25,990.392,1.29651,-78.5376,-0.690732,-0.712333,-2.26304,
2026_06_10_19_34_48.829,3.841,29.7,0,0.758,0,0,0,0, ,0,0,0,0,0, ,959.4,4.3,-76.9,-1.7,2.1,-3.4,25,988.757,1.48867,-78.1088,-0.743093,-0.528769,-2.21045,
2026_06_10_19_34_48.848,3.841,29.8,0,0.758,0,0,0,0, ,0,0,0,0,0, ,987.1,3.1,-91.1,-2.6,-2.9,-6.1,25,987.812,1.62343,-78.4677,-0.828827,-0.520922,-2.36521,
2026_06_10_19_34_48.873,3.841,29.7,0,0.758,0,0,0,0, ,0,0,0,0,0, ,1010.8,3.7,-88.6,-2.6,-2.1,-3.6,25,988.49,1.73169,-79.1614,-0.936758,-0.641522,-2.51662,
2026_06_10_19_34_48.888,3.841,29.8,0,0.759,0,0,0,0, ,0,0,0,0,0, ,993.6,5.2,-95.3,-1.6,1.2,-0.3,25,989.326,1.89733,-79.9407,-1.00764,-0.629851,-2.48209,
2026_06_10_19_34_48.907,3.841,29.8,0,0.758,0,0,0,0, ,0,0,0,0,0, ,975.2,7,-91.6,-2,-1,-0.7,25,989.026,2.15343,-80.7639,-1.05593,-0.585376,-2.36131,
2026_06_10_19_34_48.927,3.841,29.8,0,0.758,0,0,0,0, ,0,0,0,0,0, ,983.6,7.2,-83.6,-1.1,-2.2,-2.6,25,988.439,2.45486,-81.1805,-1.08603,-0.647204,-2.31797,
2026_06_10_19_34_48.948,3.841,29.7,0,0.759,0,0,0,0, ,0,0,0,0,0, ,987.3,4.7,-83.2,-1.3,0.1,-3.2,25,988.257,2.66785,-81.3157,-1.09298,-0.67175,-2.35343,
2026_06_10_19_34_48.967,3.841,29.8,0,0.757,0,0,0,0, ,0,0,0,0,0, ,998.6,5.3,-86,-0.8,1.1,-2.2,25,988.543,2.80996,-81.5159,-1.09036,-0.594252,-2.37455,
2026_06_10_19_34_48.987,3.841,29.8,0,0.759,0,0,0,0, ,0,0,0,0,0, ,1002.5,4.6,-84.8,-0.7,-1.8,-0.9,25,989.275,2.94037,-81.7525,-1.06962,-0.579368,-2.32431,
2026_06_10_19_34_49.007,3.841,29.7,0,0.759,0,0,0,0, ,0,0,0,0,0, ,1005.9,8.6,-74,0.4,-1.2,0,25,990.184,3.16338,-81.6092,-1.01358,-0.635469,-2.21009,
2026_06_10_19_34_49.027,3.841,29.7,0,0.758,0,0,0,0, ,0,0,0,0,0, ,985.9,1.2,-81.7,1.5,1.8,0.4,25,990.532,3.26921,-81.3801,-0.893925,-0.578464,-2.06323,
2026_06_10_19_34_49.047,3.841,29.8,0,0.758,0,0,0,0, ,0,0,0,0,0, ,967.8,8.4,-82,0.3,1.3,0.1,25,989.699,3.36249,-81.4087,-0.784607,-0.448761,-1.92226,
2026_06_10_19_34_49.067,3.841,29.6,0,0.759,0,0,0,0, ,0,0,0,0,0, ,975.8,9.7,-78.2,-0.5,0.1,-2.4,25,988.608,3.70907,-81.329,-0.742889,-0.378758,-1.8752,
2026_06_10_19_34_49.087,3.841,29.8,0,0.758,0,0,0,0.001, ,0,0,0,0,0, ,981.8,-0.3,-74,-1.4,-0.7,-3.4,25,988.01,3.76946,-81.0103,-0.75551,-0.373959,-1.93765,
2026_06_10_19_34_49.106,3.841,29.7,0,0.758,0,0,0,0, ,0,0,0,0,0, ,994,4.8,-82.5,-0.9,0.2,-3.9,25,988.004,3.67687,-80.8421,-0.779549,-0.366405,-2.042,
2026_06_10_19_34_49.126,3.841,29.7,0,0.758,0,0,0,0, ,0,0,0,0,0, ,1007.2,3.5,-80.4,-0.9,0,-2.6,25,988.771,3.7057,-80.8792,-0.786889,-0.337984,-2.11561,
2026_06_10_19_34_49.146,3.841,29.8,0,0.758,0,0,0,0, ,0,0,0,0,0, ,993.2,7.9,-78.7,-1.1,1.2,-0.3,25,989.468,3.82722,-80.7982,-0.799875,-0.280825,-2.07505,
2026_06_10_19_34_49.165,3.841,29.8,0,0.758,0,0,0,0, ,0,0,0,0,0, ,971.6,5.6,-85.5,-0.3,3.6,-0.8,25,989.037,4.00533,-80.8775,-0.793789,-0.117462,-1.98212,
2026_06_10_19_34_49.185,3.841,29.7,0,0.758,0,0,0,0, ,0,0,0,0,0, ,968,6.2,-72.1,-2.5,3.3,-2.1,25,987.865,4.12079,-80.7509,-0.83073,0.0999298,-1.94969,
2026_06_10_19_34_49.204,3.841,29.6,0,0.758,0,0,0,0, ,0,0,0,0,0, ,980.4,10,-68.8,-2.6,1.2,-4.7,25,987.032,4.36327,-80.1232,-0.935498,0.23095,-2.03807,
2026_06_10_19_34_49.225,3.841,29.6,0,0.759,0,0,0,0.001, ,0,0,0,0,0, ,992.6,4.8,-78.4,-2.6,-0.2,-5.4,25,987,4.54832,-79.7257,-1.03693,0.247345,-2.22161,
2026_06_10_19_34_49.245,3.841,29.7,0,0.759,0,0,0,0.001, ,0,0,0,0,0, ,995.4,1.7,-77.7,-2.1,0.3,-3.9,25,987.426,4.4692,-79.6236,-1.11694,0.235319,-2.36959,
2026_06_10_19_34_49.264,3.841,29.7,0,0.759,0,0,0,0, ,0,0,0,0,0, ,993.2,7.4,-79.9,-2.1,1,-2.9,25,987.845,4.47413,-79.5734,-1.17685,0.260589,-2.43238,
2026_06_10_19_34_49.284,3.841,29.8,0,0.759,0,0,0,0, ,0,0,0,0,0, ,986.9,17.3,-74.8,-3.4,3,-4.3,25,987.979,4.95406,-79.4379,-1.27271,0.366584,-2.50353,
2026_06_10_19_34_49.304,3.841,29.8,0,0.758,0,0,0,0, ,0,0,0,0,0, ,981.9,6.2,-77.6,-2,6,-7.9,25,987.761,5.36819,-79.2406,-1.35969,0.618464,-2.72269,
2026_06_10_19_34_49.324,3.841,29.7,0,0.757,0,0,0,0, ,0,0,0,0,0, ,1020.5,-2.3,-115.2,-3.8,5.4,-2.5,25,988.58,5.1599,-80.2862,-1.45355,0.92812,-2.87365,
2026_06_10_19_34_49.343,3.841,29.7,0,0.758,0,0,0,0, ,0,0,0,0,0, ,1060.6,30.5,-102.4,-22.4,-3.9,9.3,25,991.747,5.70468,-82.0238,-2.16326,0.917266,-2.49135,
2026_06_10_19_34_49.363,3.841,29.6,0,0.759,0,0,0,0, ,0,0,0,0,0, ,1028,-24.6,48.8,-45,9.4,18.7,25,994.95,5.53682,-78.6586,-4.08503,1.02895,-1.48641,
2026_06_10_19_34_49.383,3.841,29.8,0,0.758,0,0,0,0.001, ,0,0,0,0,0, ,979.6,19.5,93.7,-24.1,50.8,16.3,25,995.489,5.04403,-69.5236,-5.94149,2.80047,-0.329426,
2026_06_10_19_34_49.403,3.841,29.7,0,0.757,0,0,0,0, ,0,0,0,0,0, ,958,-3.9,-43.7,-31.7,67.8,8.8,25,993.863,5.21197,-63.7635,-7.27958,6.24341,0.455414,
2026_06_10_19_34_49.423,3.841,29.6,0,0.757,0,0,0,0, ,0,0,0,0,0, ,992.9,0.1,-119.2,-30.1,57,8.7,25,992.741,4.77859,-64.8413,-8.71895,9.66545,0.960865,
2026_06_10_19_34_49.445,3.841,29.7,0,0.758,0,0,0,0.001, ,0,0,0,0,0, ,1025.1,-12.5,-54.3,-31.7,46.8,13.9,25,993.731,4.10958,-66.1764,-10.0706,12.2391,1.59091,
2026_06_10_19_34_49.462,3.841,29.7,0,0.759,0,0,0,0, ,0,0,0,0,0, ,925.5,35.7,-17.7,-35.4,55.4,19.2,25,992.608,4.56603,-64.3375,-11.5014,14.6072,2.50248,
2026_06_10_19_34_49.482,3.841,29.7,0,0.757,0,0,0,0, ,0,0,0,0,0, ,1049.8,280,27.2,-0.4,54,-39.1,25,992.306,13.9068,-60.1275,-11.8913,17.0504,1.74365,
2026_06_10_19_34_49.502,3.841,29.6,0,0.759,0,0,0,0, ,0,0,0,0,0, ,1127.1,23,52.4,23.6,27,-62.8,25,998.165,22.2914,-54.0381,-10.4598,18.4793,-1.46737,
2026_06_10_19_34_49.522,3.841,29.8,0,0.758,0,0,0,0.001, ,0,0,0,0,0, ,964.5,61.1,-70.1,74.3,14.6,-40.4,25,1001.07,23.4954,-51.2845,-6.83951,18.6207,-4.52232,
2026_06_10_19_34_49.542,3.841,29.7,0,0.759,0,0,0,0, ,0,0,0,0,0, ,1093.3,-107,66,87.6,13.3,-4.6,25,1002.76,20.6651,-48.2843,-1.48984,18.3361,-5.61784,
2026_06_10_19_34_49.561,3.841,29.7,0,0.759,0,0,0,0, ,0,0,0,0,0, ,1095.5,-11.5,31.9,58.6,20.8,3.2,25,1008.35,15.7953,-42.359,3.05548,18.2577,-5.31816,
2026_06_10_19_34_49.581,3.841,29.6,0,0.759,0,0,0,0.001, ,0,0,0,0,0, ,991,25.7,144.5,12.6,19.1,2.7,25,1010.47,15.2654,-34.4031,5.03866,18.3609,-4.81432,
2026_06_10_19_34_49.601,3.841,29.6,0,0.758,0,0,0,0.001, ,0,0,0,0,0, ,959.3,5,74.5,-4,27,-1.2,25,1008.32,15.2706,-25.634,4.99365,18.6466,-4.47524,
2026_06_10_19_34_49.621,3.841,29.6,0,0.758,0,0,0,0.001, ,0,0,0,0,0, ,917.4,-0.2,90.8,-9.7,24.1,-2.3,25,1004.06,14.4863,-19.0355,4.27192,19.0673,-4.30917,
2026_06_10_19_34_49.641,3.841,29.7,0,0.759,0,0,0,0.001, ,0,0,0,0,0, ,973.3,27.7,114,-21.8,28.6,-1.6,25,1000.48,14.4414,-11.6355,3.05184,19.5111,-4.16541,
2026_06_10_19_34_49.660,3.841,29.7,0,0.758,0,0,0,0.001, ,0,0,0,0,0, ,1035.7,19.7,45,1,32.1,-0.3,25,1000.73,15.0056,-6.08191,2.23212,20.1716,-3.96947,
2026_06_10_19_34_49.681,3.841,29.7,0,0.759,0,0,0,0.001, ,0,0,0,0,0, ,1029,15.5,90.4,25.2,9.2,-0.9,25,1002.65,15.1637,-1.58583,2.89438,20.2007,-3.76414,
2026_06_10_19_34_49.701,3.841,29.7,0,0.759,0,0,0,0.001, ,0,0,0,0,0, ,942.6,3.4,127.4,29.5,0.6,-5.4,25,1001.63,14.8155,5.1469,4.38464,19.2683,-3.72672,
2026_06_10_19_34_49.720,3.841,29.6,0,0.759,0,0,0,0.001, ,0,0,0,0,0, ,905.1,-143,140.2,25.9,-10.8,-1.7,25,996.886,9.65927,12.9867,5.80542,17.7834,-3.71595,
2026_06_10_19_34_49.740,3.841,29.7,0,0.759,0,0,0,0.002, ,0,0,0,0,0, ,976.6,72.7,160.8,0.9,-33.2,25.3,25,993.471,6.92871,21.3664,6.26822,15.3591,-2.77045,
2026_06_10_19_34_49.760,3.841,29.6,0,0.758,0,0,0,0.001, ,0,0,0,0,0, ,1029.6,-9.8,148,74.5,-47.6,53.8,25,994.058,8.42297,29.4731,8.18359,11.9613,-0.191545,
2026_06_10_19_34_49.780,3.841,29.6,0,0.759,0,0,0,0.002, ,0,0,0,0,0, ,1037.3,94.4,140.1,67.5,-75.5,44.6,25,996.459,10.4874,36.4552,12.0115,7.48168,2.81825,
2026_06_10_19_34_49.800,3.841,29.6,0,0.758,0,0,0,0.002, ,0,0,0,0,0, ,859.9,69.4,111.4,68.9,-104.9,47.5,25,993.542,14.8391,41.8966,15.4355,1.5292,5.45269,
2026_06_10_19_34_49.819,3.841,29.7,0,0.758,0,0,0,0.002, ,0,0,0,0,0, ,876.4,-132.8,9.2,-6.4,-95.7,74.9,25,985.901,12.0031,43.018,16.3992,-4.67601,8.84979,
2026_06_10_19_34_49.839,3.841,29.7,0,0.759,0,0,0,0.001, ,0,0,0,0,0, ,976.8,-175.7,-156.8,-37,-67.6,66.2,25,982.288,1.87204,35.8994,14.0775,-9.36662,12.6096,
2026_06_10_19_34_49.858,3.841,29.6,0,0.759,0,0,0,0.001, ,0,0,0,0,0, ,1059,-110.2,-63.5,25.3,-35.5,15.8,25,984.458,-6.95305,26.9996,12.8632,-11.9372,14.3397,
2026_06_10_19_34_49.878,3.841,29.6,0,0.759,0,0,0,0.002, ,0,0,0,0,0, ,956.5,-43,81.1,23.7,-9.8,7.6,25,985.877,-11.1972,25.8905,13.5723,-12.59,14.1788,
2026_06_10_19_34_49.898,3.841,29.6,0,0.759,0,0,0,0.002, ,0,0,0,0,0, ,953.7,-51.8,35.4,6.4,-9.5,-10.7,25,984.002,-13.4033,27.8624,13.6623,-12.4108,13.2204,
2026_06_10_19_34_49.918,3.841,29.7,0,0.758,0,0,0,0.002, ,0,0,0,0,0, ,898.6,-115.1,-155.8,6.2,-29.2,-19.9,25,980.476,-17.6717,22.4961,13.2137,-12.8337,11.4824,
2026_06_10_19_34_49.938,3.841,29.7,0,0.759,0,0,0,0.001, ,0,0,0,0,0, ,975.8,-121,-147.4,17.4,-75.6,-16.2,25,977.839,-23.7885,11.8871,13.1275,-15.2448,9.68276,
2026_06_10_19_34_49.958,3.841,29.7,0,0.757,0,0,0,0.001, ,0,0,0,0,0, ,1028.6,-109.6,-48.2,30.7,-92.8,-7.5,25,979.324,-29.365,5.20308,13.7931,-19.4467,8.37061,
2026_06_10_19_34_49.977,3.841,29.6,0,0.758,0,0,0,0.001, ,0,0,0,0,0, ,1112.6,49,-66.6,1.2,-73.4,6.7,25,984.886,-29.422,1.3882,13.9246,-23.3256,7.83615,
2026_06_10_19_34_49.997,3.841,29.6,0,0.759,0,0,0,0.002, ,0,0,0,0,0, ,869.8,-80.4,-148.4,-13.4,-46.3,8.4,25,985.27,-28.5858,-5.24717,12.7043,-25.5513,7.81871,
2026_06_10_19_34_50.017,3.841,29.7,0,0.759,0,0,0,0.002, ,0,0,0,0,0, ,981.6,-171.6,-150.1,10.2,-44.6,-4.6,25,981.64,-34.522,-14.0223,11.8326,-26.7639,7.45804,
2026_06_10_19_34_50.037,3.841,29.6,0,0.759,0,0,0,0.001, ,0,0,0,0,0, ,996.9,-88.9,-206.9,26.6,-64.1,-2.1,25,982.104,-40.3554,-24.0452,12.2328,-28.4449,6.79943,
2026_06_10_19_34_50.057,3.841,29.6,0,0.757,0,0,0,0.002, ,0,0,0,0,0, ,969.2,-109,-144,9.5,-92.7,4.2,25,982.162,-43.926,-33.2714,12.5873,-31.489,6.44907,
2026_06_10_19_34_50.077,3.841,29.7,0,0.758,0,0,0,0.002, ,0,0,0,0,0, ,982.5,-20,-127.6,2.3,-87.1,6.5,25,981.777,-45.1797,-39.5193,12.1798,-35.0485,6.3821,
2026_06_10_19_34_50.097,3.841,29.5,0,0.759,0,0,0,0.001, ,0,0,0,0,0, ,1002.8,-123.1,-329.1,-7,-53,14.1,25,982.44,-46.7867,-51.0261,11.2944,-37.1814,6.62084,
2026_06_10_19_34_50.117,3.841,29.6,0,0.759,0,0,0,0.003, ,0,0,0,0,0, ,892.5,-115.6,-339.2,-15.5,-40,8.3,25,980.32,-51.2085,-68.279,9.92061,-37.7492,6.89989,
2026_06_10_19_34_50.136,3.841,29.6,0,0.759,0,0,0,0.002, ,0,0,0,0,0, ,880.9,-90.4,-316.5,-7.2,-74.2,0.8,25,974.615,-54.3646,-84.0966,8.62443,-38.9284,6.75669,
2026_06_10_19_34_50.156,3.841,29.6,0,0.759,0,0,0,0.002, ,0,0,0,0,0, ,911.2,-94.7,-331,-9.5,-81.6,-7.7,25,969.827,-56.6915,-98.7005,7.59005,-41.3032,6.13472,
2026_06_10_19_34_50.176,3.841,29.6,0,0.759,0,0,0,0.002, ,0,0,0,0,0, ,990.9,-103.2,-324,2.9,-54,-5.1,25,968.683,-59.2666,-112.643,6.92644,-42.9179,5.37089,
2026_06_10_19_34_50.196,3.841,29.6,0,0.758,0,0,0,0.002, ,0,0,0,0,0, ,938.5,-101.1,-343.8,6.4,-24.3,-0.1,25,968.44,-61.8798,-126.126,6.78772,-42.6883,4.88516,
2026_06_10_19_34_50.216,3.841,29.7,0,0.758,0,0,0,0.002, ,0,0,0,0,0, ,890.7,-67.6,-340.8,7.1,-23.2,-4.3,25,965.159,-63.2491,-139.299,6.78542,-41.5342,4.45341,
2026_06_10_19_34_50.236,3.841,29.6,0,0.758,0,0,0,0.002, ,0,0,0,0,0, ,881.5,-99.8,-338,6.3,-34.7,-16.9,25,960.342,-64.4953,-151.493,6.78021,-40.7674,3.53609,
2026_06_10_19_34_50.262,3.841,29.7,0,0.759,0,0,0,0.003, ,0,0,0,0,0, ,892.7,-89.8,-373.5,4.7,-41.6,-18.2,25,955.879,-66.342,-163.94,6.7022,-40.6079,2.25116,
2026_06_10_19_34_50.275,3.841,29.6,0,0.757,0,0,0,0.002, ,0,0,0,0,0, ,941,-97,-448.4,3.5,-57.8,-12.9,25,953.5,-67.9909,-178.992,6.54363,-41.1619,1.1664,
2026_06_10_19_34_50.295,3.841,29.7,0,0.758,0,0,0,0.003, ,0,0,0,0,0, ,935.9,-84.1,-458.6,5.8,-64.4,-4.1,25,952.583,-69.3656,-195.72,6.42824,-42.3769,0.577353,
2026_06_10_19_34_50.315,3.841,29.6,0,0.758,0,0,0,0.002, ,0,0,0,0,0, ,883.1,-75.9,-437.2,7.5,-63.5,-3.6,25,949.958,-70.0136,-211.087,6.44175,-43.6915,0.307561,
2026_06_10_19_34_50.334,3.841,29.6,0,0.759,0,0,0,0.003, ,0,0,0,0,0, ,852.6,-78.9,-419.1,7.8,-58.8,-9.2,25,944.954,-70.4637,-224.314,6.51538,-44.7554,-0.101181,
2026_06_10_19_34_50.354,3.841,29.7,0,0.759,0,0,0,0.003, ,0,0,0,0,0, ,854.4,-112.5,-450.8,6.1,-51.4,-12,25,939.381,-72.0015,-237.15,6.54186,-45.3858,-0.740952,
2026_06_10_19_34_50.374,3.841,29.6,0,0.758,0,0,0,0.002, ,0,0,0,0,0, ,883.5,-87.8,-467.7,-3.3,-45,-3.2,25,935.089,-73.7168,-250.684,6.22853,-45.5573,-1.15893,
2026_06_10_19_34_50.394,3.841,29.6,0,0.758,0,0,0,0.003, ,0,0,0,0,0, ,852.6,-88.6,-473.8,-1.3,-40.9,-0.6,25,931.004,-74.5994,-264.094,5.70882,-45.3984,-1.20408,
2026_06_10_19_34_50.414,3.841,29.7,0,0.758,0,0,0,0.003, ,0,0,0,0,0, ,802.7,-71.7,-563.5,1.2,-45.2,-3.8,25,924.706,-74.9376,-279.606,5.35789,-45.2553,-1.26477,
2026_06_10_19_34_50.434,3.841,29.7,0,0.759,0,0,0,0.002, ,0,0,0,0,0, ,805.1,-71,-562.7,7.8,-55,-12.3,25,917.344,-74.719,-296.882,5.30562,-45.5505,-1.67825,
2026_06_10_19_34_50.454,3.841,29.6,0,0.758,0,0,0,0.002, ,0,0,0,0,0, ,809.6,-71.7,-562.6,12.1,-52.8,-12.2,25,910.642,-74.5137,-313.077,5.58863,-46.0593,-2.32246,
2026_06_10_19_34_50.474,3.841,29.6,0,0.759,0,0,0,0.003, ,0,0,0,0,0, ,835,-103,-570.5,13.9,-45.5,-5.9,25,905.258,-75.2959,-328.523,6.04026,-46.2476,-2.73242,
2026_06_10_19_34_50.493,3.841,29.5,0,0.758,0,0,0,0.003, ,0,0,0,0,0, ,818.9,-101.1,-576.9,2.9,-47.8,-2.7,25,900.486,-76.9263,-343.463,6.18406,-46.2722,-2.82795,
2026_06_10_19_34_50.513,3.841,29.6,0,0.759,0,0,0,0.004, ,0,0,0,0,0, ,793.4,-75.9,-567.3,-0.8,-47.4,-0.5,25,894.738,-77.6315,-357.396,5.8712,-46.3531,-2.75312,
2026_06_10_19_34_50.533,3.841,29.6,0,0.759,0,0,0,0.003, ,0,0,0,0,0, ,781.9,-82.2,-626.9,4,-42.2,-3.1,25,888.212,-77.718,-372.003,5.61093,-46.2584,-2.69504,
2026_06_10_19_34_50.554,3.841,29.6,0,0.759,0,0,0,0.003, ,0,0,0,0,0, ,752.8,-70.5,-631.8,8.5,-57.1,-2.9,25,880.847,-77.6346,-387.685,5.64987,-46.4651,-2.71362,
2026_06_10_19_34_50.573,3.841,29.6,0,0.758,0,0,0,0.003, ,0,0,0,0,0, ,764.6,-74.4,-562.1,7,-82.1,-2.3,25,873.404,-77.3187,-400.437,5.77785,-47.8749,-2.7067,
2026_06_10_19_34_50.592,3.841,29.6,0,0.759,0,0,0,0.003, ,0,0,0,0,0, ,775,-101.1,-573.3,3.1,-74.5,-1.4,25,867.09,-77.9543,-410.63,5.73349,-49.7289,-2.65449,
2026_06_10_19_34_50.612,3.841,29.5,0,0.757,0,0,0,0.003, ,0,0,0,0,0, ,750,-104.8,-668,0.7,-46.2,1.6,25,860.717,-79.4775,-423.428,5.49989,-50.3761,-2.48664,
2026_06_10_19_34_50.632,3.841,29.6,0,0.758,0,0,0,0.004, ,0,0,0,0,0, ,703,-41.9,-770.8,10.1,-35.3,-2.6,25,852.538,-79.1041,-441.464,5.4938,-49.7895,-2.36558,
2026_06_10_19_34_50.652,3.841,29.6,0,0.758,0,0,0,0.003, ,0,0,0,0,0, ,695.6,-116.3,-732.2,20,-65.8,-16.1,25,843.2,-79.1039,-460.356,6.07613,-49.8359,-2.79119,
2026_06_10_19_34_50.672,3.841,29.5,0,0.759,0,0,0,0.003, ,0,0,0,0,0, ,723.2,-94.6,-659.5,12,-96.3,-3.9,25,835.047,-80.7093,-474.707,6.68087,-51.738,-3.23048,
2026_06_10_19_34_50.694,3.841,29.6,0,0.759,0,0,0,0.004, ,0,0,0,0,0, ,684.6,-95.4,-706.1,-1.7,-114.7,5,25,827.055,-81.5802,-487.387,6.58758,-55.0141,-3.00011,
2026_06_10_19_34_50.711,3.841,29.7,0,0.757,0,0,0,0.003, ,0,0,0,0,0, ,646.6,-109.9,-733.2,-6.3,-89.5,7.1,25,817.216,-82.8641,-501.541,5.9424,-57.8834,-2.44862,
2026_06_10_19_34_50.731,3.841,29.6,0,0.758,0,0,0,0.003, ,0,0,0,0,0, ,640.1,-101.1,-751.7,3.4,-61,4.9,25,806.621,-84.2435,-516.221,5.49193,-58.9417,-1.93378,
2026_06_10_19_34_50.751,3.841,29.5,0,0.759,0,0,0,0.004, ,0,0,0,0,0, ,610.9,-101.1,-792.4,-1.7,-70.4,8.1,25,795.584,-85.2707,-531.811,5.20906,-59.3535,-1.41985,
2026_06_10_19_34_50.771,3.841,29.5,0,0.759,0,0,0,0.004, ,0,0,0,0,0, ,556.5,-101.6,-770,-18,-67.4,11,25,782.673,-86.2505,-547.008,4.2914,-59.9353,-0.751371,
2026_06_10_19_34_50.790,3.841,29.6,0,0.76,0,0,0,0.004, ,0,0,0,0,0, ,560.6,-117.5,-788.9,-23.8,-44,12.7,25,769.015,-87.6703,-561.172,2.7563,-59.6772,0.0165254,
2026_06_10_19_34_50.810,3.841,29.6,0,0.758,0,0,0,0.004, ,0,0,0,0,0, ,549.6,-108,-836.1,-19.1,-41.7,10.2,25,755.98,-89.1986,-576.488,1.28123,-58.6518,0.713253,
2026_06_10_19_34_50.833,3.841,29.5,0,0.758,0,0,0,0.004, ,0,0,0,0,0, ,551.5,-96.8,-860.9,-25.6,-48.3,15,25,743.461,-90.0031,-593.064,-0.158801,-57.8199,1.4376,
2026_06_10_19_34_50.849,3.841,29.6,0,0.757,0,0,0,0.005, ,0,0,0,0,0, ,533.2,-77,-860.4,-21.7,-54.2,13.9,25,731.206,-89.814,-609.37,-1.5903,-57.4195,2.23054,
2026_06_10_19_34_50.869,3.841,29.6,0,0.758,0,0,0,0.004, ,0,0,0,0,0, ,501.4,-74.4,-828.2,-14.4,-48.3,5.5,25,718.171,-88.9539,-623.686,-2.59331,-57.0436,2.68571,
2026_06_10_19_34_50.889,3.841,29.7,0,0.759,0,0,0,0.004, ,0,0,0,0,0, ,473.3,-75,-861,-8.9,-47,5,25,704.105,-88.0853,-637.148,-3.1452,-56.4711,2.84198,
2026_06_10_19_34_50.909,3.841,29.5,0,0.758,0,0,0,0.003, ,0,0,0,0,0, ,487.7,-82.3,-931.1,-11.6,-55.9,5.6,25,690.48,-87.5103,-652.924,-3.57815,-56.1652,2.99176,
2026_06_10_19_34_50.928,3.841,29.6,0,0.758,0,0,0,0.005, ,0,0,0,0,0, ,443.4,-34.5,-918,16.4,-94.4,-9.9,25,676.773,-85.7364,-669.477,-3.21386,-57.3221,2.67844,
2026_06_10_19_34_50.948,3.841,29.5,0,0.758,0,0,0,0.004, ,0,0,0,0,0, ,413.5,-47.1,-949.3,38.1,-134.1,-18.2,25,661.641,-82.9981,-685.575,-1.35747,-60.7911,1.65905,
2026_06_10_19_34_50.969,3.841,29.6,0,0.758,0,0,0,0.005, ,0,0,0,0,0, ,403.1,-64.4,-911.8,43.9,-138.1,-23.5,25,646.203,-81.3377,-700.503,1.22369,-65.3802,0.287401,
2026_06_10_19_34_50.988,3.841,29.6,0,0.758,0,0,0,0.004, ,0,0,0,0,0, ,378.5,-113.1,-894.1,44.2,-133,-30.2,25,630.639,-81.7894,-712.84,3.83342,-69.6562,-1.36628,
2026_06_10_19_34_51.007,3.841,29.5,0,0.758,0,0,0,0.004, ,0,0,0,0,0, ,330,-276.9,-566.7,-17.9,-67.3,5.4,25,613.797,-88.6881,-713.91,4.40115,-71.5144,-2.03865,
2026_06_10_19_34_51.028,3.841,29.5,0,0.758,0,0,0,0.005, ,0,0,0,0,0, ,407.4,-130.8,-882.5,-37.9,-12.3,26.3,25,598.861,-95.7058,-714.561,2.4328,-69.5818,-0.948561,
2026_06_10_19_34_51.047,3.841,29.6,0,0.758,0,0,0,0.005, ,0,0,0,0,0, ,278.1,-78.9,-985.1,-21,-1,7.1,25,583.254,-96.263,-727.921,0.48994,-65.7469,0.126898,
2026_06_10_19_34_51.067,3.841,29.6,0,0.759,0,0,0,0.004, ,0,0,0,0,0, ,251.4,-84.1,-931.7,-21.6,-7.8,1.8,25,563.845,-95.3634,-741.966,-0.837884,-62.0086,0.390337,
2026_06_10_19_34_51.088,3.841,29.5,0,0.759,0,0,0,0.004, ,0,0,0,0,0, ,302.3,-78,-934.8,-30,-15.6,1.5,25,546.357,-94.4912,-753.622,-2.35901,-58.9429,0.467097,
2026_06_10_19_34_51.114,3.841,29.7,0,0.759,0,0,0,0.005, ,0,0,0,0,0, ,343.9,-77.3,-940.1,-9.4,-23.1,0,25,532.752,-93.4649,-764.824,-3.41573,-56.5302,0.484337,
2026_06_10_19_34_51.127,3.841,29.6,0,0.758,0,0,0,0.004, ,0,0,0,0,0, ,311.2,-82,-888.7,-5.6,-21.6,-1.2,25,520.247,-92.6231,-773.939,-3.66461,-54.4474,0.41826,
2026_06_10_19_34_51.146,3.841,29.6,0,0.759,0,0,0,0.004, ,0,0,0,0,0, ,298.7,-74.4,-905.3,-10.6,-11.9,-1.3,25,507.128,-91.7442,-781.438,-3.9349,-52.1502,0.3166,
2026_06_10_19_34_51.166,3.841,29.6,0,0.759,0,0,0,0.004, ,0,0,0,0,0, ,283.5,-75,-964.7,-16.7,-21,4.8,25,493.964,-90.7056,-790.796,-4.52691,-49.9747,0.403948,
2026_06_10_19_34_51.186,3.841,29.7,0,0.758,0,0,0,0.004, ,0,0,0,0,0, ,287.7,-62.7,-976,-16.4,-38.5,7.8,25,481.266,-89.3737,-801.737,-5.25957,-48.7423,0.763239,
2026_06_10_19_34_51.206,3.841,29.6,0,0.757,0,0,0,0.004, ,0,0,0,0,0, ,266.4,-66.2,-926,-13.5,-44.1,6.7,25,468.822,-87.8549,-810.833,-5.85008,-48.2887,1.15853,
2026_06_10_19_34_51.226,3.841,29.6,0,0.758,0,0,0,0.005, ,0,0,0,0,0, ,240.4,-63.4,-952.2,-14,-35.9,7.3,25,455.695,-86.45,-818.649,-6.33148,-47.7836,1.51449,
2026_06_10_19_34_51.248,3.841,29.5,0,0.759,0,0,0,0.005, ,0,0,0,0,0, ,226.8,-45.8,-981.5,-11.8,-34.3,5.1,25,442.161,-84.5092,-827.68,-6.73175,-47.0107,1.80001,
2026_06_10_19_34_51.265,3.841,29.6,0,0.758,0,0,0,0.005, ,0,0,0,0,0, ,212.2,-48.2,-976,-12.1,-41.3,4.1,25,428.592,-82.2235,-836.886,-7.04974,-46.4495,1.97064,
2026_06_10_19_34_51.286,3.841,29.6,0,0.761,0,0,0,0.005, ,0,0,0,0,0, ,229.8,-61.2,-936.2,-14.6,-39.4,6,25,415.942,-80.5462,-844.151,-7.43366,-46.0778,2.15829,
2026_06_10_19_34_51.305,3.841,29.5,0,0.758,0,0,0,0.005, ,0,0,0,0,0, ,204.7,-60.7,-944.3,-13.6,-25.4,6.1,25,403.834,-79.3521,-850.007,-7.83989,-45.2443,2.39544,
2026_06_10_19_34_51.325,3.841,29.6,0,0.757,0,0,0,0.006, ,0,0,0,0,0, ,156.9,-42.8,-1014.4,-14.3,-21.6,8.5,25,390.243,-77.6701,-857.889,-8.21222,-43.9192,2.69431,
2026_06_10_19_34_51.344,3.841,29.5,0,0.759,0,0,0,0.005, ,0,0,0,0,0, ,108.3,-17,-1054.8,-21.8,-49,12.9,25,374.543,-74.7591,-868.657,-8.81171,-43.394,3.18216,
2026_06_10_19_34_51.364,3.841,29.5,0,0.758,0,0,0,0.006, ,0,0,0,0,0, ,156.6,-20.7,-1010.9,-15.4,-71.6,11.2,25,359.791,-71.3521,-878.662,-9.40819,-44.4242,3.72254,
2026_06_10_19_34_51.387,3.841,29.6,0,0.758,0,0,0,0.006, ,0,0,0,0,0, ,149.2,-30.2,-955.9,-16.5,-62.4,10.3,25,347.183,-68.555,-885.045,-9.80683,-45.7999,4.15078,
2026_06_10_19_34_51.404,3.841,29.6,0,0.758,0,0,0,0.005, ,0,0,0,0,0, ,106.9,-12.8,-948.7,-10.6,-35.4,7.4,25,333.83,-65.6876,-889.143,-10.0349,-45.9888,4.43714,
2026_06_10_19_34_51.424,3.841,29.6,0,0.759,0,0,0,0.005, ,0,0,0,0,0, ,75.6,3.9,-983.5,-11.9,-24.8,2.7,25,319.048,-61.9559,-893.833,-10.109,-45.0206,4.47448,
2026_06_10_19_34_51.443,3.841,29.6,0,0.758,0,0,0,0.005, ,0,0,0,0,0, ,90.8,-10.3,-1028.5,-10.2,-44.8,4.6,25,304.676,-58.3755,-900.668,-10.1663,-44.3978,4.42424,
2026_06_10_19_34_51.463,3.841,29.6,0,0.761,0,0,0,0.005, ,0,0,0,0,0, ,81,-6.5,-1014.6,-3.9,-51.8,8.9,25,291.344,-55.3301,-908.034,-9.97641,-44.6356,4.56597,
2026_06_10_19_34_51.483,3.841,29.6,0,0.758,0,0,0,0.005, ,0,0,0,0,0, ,50.6,1,-993.4,0.1,-40.4,5.3,25,277.6,-52.126,-913.882,-9.48426,-44.7248,4.72038,
2026_06_10_19_34_51.503,3.841,29.5,0,0.759,0,0,0,0.005, ,0,0,0,0,0, ,30.3,-16.1,-1008.1,-3.4,-32.7,3.2,25,263.149,-49.4096,-919.176,-9.00686,-44.2267,4.69172,
2026_06_10_19_34_51.526,3.841,29.5,0,0.758,0,0,0,0.006, ,0,0,0,0,0, ,31.3,-10.3,-1033.8,0.2,-34.3,2.6,25,248.99,-47.2031,-925.378,-8.5555,-43.573,4.58254,
2026_06_10_19_34_51.542,3.841,29.5,0,0.758,0,0,0,0.006, ,0,0,0,0,0, ,44.1,-22.4,-1037.3,4.1,-31.3,2.7,25,236.114,-45.323,-932.091,-7.90314,-42.9165,4.46477,
2026_06_10_19_34_51.562,3.841,29.5,0,0.758,0,0,0,0.006, ,0,0,0,0,0, ,-13.6,-8.4,-1035.6,1.5,-36.1,10.2,25,222.655,-43.4996,-938.451,-7.25091,-42.3549,4.58575,
2026_06_10_19_34_51.582,3.841,29.6,0,0.758,0,0,0,0.006, ,0,0,0,0,0, ,-24.1,-5,-985.9,3,-36.5,7,25,207.939,-41.2571,-942.856,-6.67195,-41.9859,4.83037,
2026_06_10_19_34_51.602,3.841,29.6,0,0.758,0,0,0,0.005, ,0,0,0,0,0, ,-35.8,-18,-975.5,7.3,-37.2,1,25,193.442,-39.4438,-945.162,-5.95155,-41.673,4.77977,
2026_06_10_19_34_51.621,3.841,29.6,0,0.758,0,0,0,0.005, ,0,0,0,0,0, ,-33.8,-17.9,-996.5,0.4,-40.2,4.2,25,179.534,-38.134,-947.651,-5.35427,-41.4918,4.64694,
2026_06_10_19_34_51.642,3.841,29.6,0,0.758,0,0,0,0.005, ,0,0,0,0,0, ,-43.2,-16.7,-949,1.6,-31.5,2.2,25,166.247,-36.8644,-949.18,-4.96706,-41.148,4.55876,
2026_06_10_19_34_51.667,3.841,29.5,0,0.758,0,0,0,0.005, ,0,0,0,0,0, ,-61.1,-15,-932.6,2.5,-22.7,-0.5,25,152.939,-35.5839,-948.67,-4.53945,-40.2919,4.33276,
2026_06_10_19_34_51.681,3.841,29.6,0,0.758,0,0,0,0.006, ,0,0,0,0,0, ,-91.9,-14.2,-987.4,4.6,-13.5,-5.2,25,138.957,-34.3052,-949.36,-4.0465,-38.9396,3.89506,
2026_06_10_19_34_51.700,3.841,29.7,0,0.758,0,0,0,0.006, ,0,0,0,0,0, ,-87.7,-23.9,-1064.8,-1.8,-25.1,-3.1,25,125.017,-33.3755,-954.036,-3.71461,-37.7428,3.40482,
2026_06_10_19_34_51.720,3.841,29.7,0,0.759,0,0,0,0.005, ,0,0,0,0,0, ,-44.3,-25.5,-1017.9,1.2,-25.5,-4.7,25,113.377,-32.8469,-959.357,-3.50653,-36.9846,2.95968,
2026_06_10_19_34_51.741,3.841,29.5,0,0.758,0,0,0,0.005, ,0,0,0,0,0, ,-29.1,-39.6,-977.4,1.7,-5.7,-3.7,25,104.232,-32.8288,-961.691,-3.20449,-35.6815,2.52339,
2026_06_10_19_34_51.761,3.841,29.6,0,0.759,0,0,0,0.006, ,0,0,0,0,0, ,-83.7,-15.3,-993.5,0.9,-0.7,-0.2,25,94.4435,-32.501,-963.138,-2.93,-33.7021,2.25079,
2026_06_10_19_34_51.780,3.841,29.7,0,0.758,0,0,0,0.006, ,0,0,0,0,0, ,-78.6,-17.5,-1016.6,-0.5,-6.4,-0.5,25,83.7433,-31.5199,-965.692,-2.73926,-31.8647,2.0923,
2026_06_10_19_34_51.800,3.841,29.6,0,0.758,0,0,0,0.005, ,0,0,0,0,0, ,-56.1,-28.6,-1014.8,-0.2,-9.4,-1,25,74.536,-31.0037,-968.74,-2.59367,-30.4044,1.9191,
2026_06_10_19_34_51.820,3.841,29.7,0,0.758,0,0,0,0.006, ,0,0,0,0,0, ,-65.9,-25.6,-986.9,2.8,-1.6,-1.9,25,66.2768,-30.7658,-970.696,-2.3564,-28.8868,1.7138,
2026_06_10_19_34_51.840,3.841,29.5,0,0.758,0,0,0,0.005, ,0,0,0,0,0, ,-90.5,-23.4,-985.1,1.2,0.9,1,25,57.4728,-30.384,-971.629,-2.09093,-27.1478,1.58194,
2026_06_10_19_34_51.859,3.841,29.6,0,0.759,0,0,0,0.007, ,0,0,0,0,0, ,-100.3,-18.4,-991.3,-0.9,3.7,-0.5,25,48.1571,-29.8061,-972.639,-1.95437,-25.3533,1.50077,
2026_06_10_19_34_51.879,3.841,29.6,0,0.759,0,0,0,0.006, ,0,0,0,0,0, ,-85.5,-24.2,-1030.5,1,-4,-2.7,25,39.5614,-29.2877,-974.97,-1.83223,-23.8175,1.31182,
2026_06_10_19_34_51.899,3.841,29.6,0,0.759,0,0,0,0.006, ,0,0,0,0,0, ,-55.9,-34,-1006.3,7.1,-14.7,1.6,25,32.8424,-29.2763,-977.617,-1.47378,-22.9359,1.19837,
2026_06_10_19_34_51.919,3.841,29.7,0,0.759,0,0,0,0.006, ,0,0,0,0,0, ,-66.6,-34.7,-978.5,8.5,-9.1,4.7,25,27.1086,-29.5855,-978.518,-0.908662,-22.2634,1.31729,
2026_06_10_19_34_51.938,3.841,29.6,0,0.758,0,0,0,0.005, ,0,0,0,0,0, ,-115.7,-18.4,-970,4.4,-1.3,2.5,25,19.9022,-29.4005,-978.258,-0.460244,-21.2236,1.4564,
2026_06_10_19_34_51.958,3.841,29.6,0,0.758,0,0,0,0.006, ,0,0,0,0,0, ,-117.7,-20.2,-965,-1.8,2.4,-2.4,25,11.578,-28.785,-977.602,-0.352979,-19.8968,1.37069,
2026_06_10_19_34_51.978,3.841,29.7,0,0.758,0,0,0,0.006, ,0,0,0,0,0, ,-92.5,-36.1,-1005.3,-1.3,5.8,-5.1,25,4.46796,-28.7463,-978.062,-0.425923,-18.4345,1.05865,
2026_06_10_19_34_51.998,3.841,29.7,0,0.758,0,0,0,0.005, ,0,0,0,0,0, ,-69.2,-40.6,-1017.9,4.2,-6.8,-0.7,25,-0.731105,-29.3315,-980.106,-0.311609,-17.3416,0.817421,
2026_06_10_19_34_52.018,3.841,29.6,0,0.758,0,0,0,0.005, ,0,0,0,0,0, ,-84.1,-39,-973.3,2.3,-9.8,1.8,25,-5.35741,-29.9695,-981.05,-0.0945731,-16.7906,0.801125,
2026_06_10_19_34_52.038,3.841,29.7,0,0.758,0,0,0,0.006, ,0,0,0,0,0, ,-95.2,-26.9,-954.2,-1.6,1.1,-0.6,25,-10.494,-30.1511,-979.996,-0.0674819,-16.0325,0.788869,
2026_06_10_19_34_52.058,3.841,29.6,0,0.758,0,0,0,0.005, ,0,0,0,0,0, ,-110.9,-17.5,-998.1,-5,9.9,-4.4,25,-16.1341,-29.6666,-979.761,-0.264463,-14.7204,0.588454,
2026_06_10_19_34_52.077,3.841,29.6,0,0.759,0,0,0,0.006, ,0,0,0,0,0, ,-65.9,-35.1,-1011.9,5.4,3.9,-4.9,25,-20.5378,-29.4614,-981.299,-0.23616,-13.4029,0.269236,
2026_06_10_19_34_52.097,3.841,29.6,0,0.758,0,0,0,0.006, ,0,0,0,0,0, ,-76.4,-35.4,-995.2,-0.1,0.1,-1.1,25,-23.622,-29.8142,-982.655,-0.0602848,-12.4643,0.0700165,
2026_06_10_19_34_52.117,3.841,29.6,0,0.757,0,0,0,0.006, ,0,0,0,0,0, ,-86.7,-28.6,-977.4,0.7,3.8,-1.1,25,-27.152,-29.9474,-982.877,-0.03833,-11.5859,-0.00128133,
2026_06_10_19_34_52.136,3.841,29.6,0,0.756,0,0,0,0.006, ,0,0,0,0,0, ,-89.1,-21.4,-962.1,0.1,10,-1.6,25,-30.8538,-29.6459,-982.077,-0.0116192,-10.4594,-0.0834689,
2026_06_10_19_34_52.157,3.841,29.5,0,0.759,0,0,0,0.006, ,0,0,0,0,0, ,-87.2,-28.5,-994.8,-4.3,16.5,-3.2,25,-34.3453,-29.3597,-981.856,-0.13888,-9.01463,-0.224632,
2026_06_10_19_34_52.176,3.841,29.6,0,0.759,0,0,0,0.007, ,0,0,0,0,0, ,-67.6,-34,-1016.8,0.8,22.2,-5.6,25,-36.969,-29.4749,-983.315,-0.237058,-7.28616,-0.479069,
2026_06_10_19_34_52.196,3.841,29.6,0,0.759,0,0,0,0.007, ,0,0,0,0,0, ,-74.8,-28.3,-1031.8,3.3,11.5,-5,25,-39.0549,-29.577,-985.813,-0.09769,-5.81536,-0.772844,
2026_06_10_19_34_52.216,3.841,29.7,0,0.759,0,0,0,0.007, ,0,0,0,0,0, ,-67.7,-33.4,-1019.2,2.3,-5.6,-3.1,25,-41.0168,-29.6546,-988.231,0.078888,-5.28122,-0.972546,
2026_06_10_19_34_52.236,3.841,29.7,0,0.759,0,0,0,0.006, ,0,0,0,0,0, ,-50.9,-42.3,-989.1,2.1,-2.4,-3,25,-42.1309,-30.154,-989.201,0.208143,-5.20315,-1.09914,
2026_06_10_19_34_52.255,3.841,29.7,0,0.758,0,0,0,0.006, ,0,0,0,0,0, ,-66.8,-41.6,-982.7,1.4,11.4,-4.7,25,-43.1497,-30.8728,-989,0.3021,-4.61186,-1.26677,
2026_06_10_19_34_52.275,3.841,29.7,0,0.759,0,0,0,0.006, ,0,0,0,0,0, ,-49.5,-40.6,-1006.8,3,15.2,-6.9,25,-44.0638,-31.496,-989.351,0.417753,-3.52036,-1.54301,
2026_06_10_19_34_52.295,3.841,29.6,0,0.76,0,0,0,0.006, ,0,0,0,0,0, ,-42.8,-51.7,-1001.2,4.3,2.3,-3.6,25,-44.191,-32.389,-990.243,0.614718,-2.77263,-1.76891,
2026_06_10_19_34_52.315,3.841,29.6,0,0.76,0,0,0,0.007, ,0,0,0,0,0, ,-36,-46.6,-978.8,4.2,-4.2,-1.7,25,-43.899,-33.4104,-990.228,0.836243,-2.66157,-1.8226,
2026_06_10_19_34_52.335,3.841,29.6,0,0.76,0,0,0,0.007, ,0,0,0,0,0, ,-37.7,-46.8,-968.3,2.1,1.7,-1.8,25,-43.4695,-34.2202,-989.212,0.977238,-2.57555,-1.81818,
2026_06_10_19_34_52.354,3.841,29.8,0,0.758,0,0,0,0.007, ,0,0,0,0,0, ,-45.7,-46.3,-981.8,0.1,6.6,-1.4,25,-43.3616,-34.9715,-988.349,0.984719,-2.16571,-1.80488,
2026_06_10_19_34_52.374,3.841,29.6,0,0.757,0,0,0,0.005, ,0,0,0,0,0, ,-69.5,-39,-1011.8,0.3,7.7,-2.6,25,-44.2293,-35.4395,-988.864,0.9369,-1.59803,-1.81677,
2026_06_10_19_34_52.394,3.841,29.7,0,0.76,0,0,0,0.007, ,0,0,0,0,0, ,-50.2,-49.8,-1016.3,2,0.4,-3.4,25,-45.1812,-35.9855,-990.399,0.949886,-1.25386,-1.88887,
2026_06_10_19_34_52.414,3.841,29.7,0,0.758,0,0,0,0.006, ,0,0,0,0,0, ,-30.6,-55.1,-989.6,4.9,-0.6,-1.4,25,-44.8898,-36.9888,-991.164,1.10224,-1.18354,-1.92002,
2026_06_10_19_34_52.434,3.841,29.6,0,0.759,0,0,0,0.006, ,0,0,0,0,0, ,-34.6,-52.9,-972.2,4.5,-1,1,25,-44.1409,-38.0254,-990.538,1.32148,-1.16017,-1.81521,
2026_06_10_19_34_52.454,3.841,29.6,0,0.759,0,0,0,0.007, ,0,0,0,0,0, ,-55.5,-46.3,-974.3,1.2,2,1.3,25,-44.1963,-38.7307,-989.485,1.41462,-1.059,-1.63452,
2026_06_10_19_34_52.473,3.841,29.7,0,0.758,0,0,0,0.007, ,0,0,0,0,0, ,-57.3,-44.4,-980.8,-2.2,5,0.6,25,-44.94,-39.1341,-988.757,1.29795,-0.781191,-1.47702,
2026_06_10_19_34_52.493,3.841,29.7,0,0.759,0,0,0,0.006, ,0,0,0,0,0, ,-53.2,-47.9,-983.7,-2.9,10.2,-2.5,25,-45.5682,-39.5616,-988.361,1.06346,-0.270462,-1.44491,
2026_06_10_19_34_52.514,3.841,29.7,0,0.759,0,0,0,0.006, ,0,0,0,0,0, ,-56.8,-44.6,-1010.8,-3.1,6,-2,25,-46.143,-39.9692,-988.903,0.815846,0.239613,-1.49397,
2026_06_10_19_34_52.533,3.841,29.7,0,0.759,0,0,0,0.006, ,0,0,0,0,0, ,-31.1,-55.5,-992.3,-1.9,-0.5,-3.1,25,-46.0093,-40.5835,-989.673,0.613787,0.39259,-1.55832,
2026_06_10_19_34_52.552,3.841,29.6,0,0.758,0,0,0,0.006, ,0,0,0,0,0, ,-32.7,-55.5,-981.9,-0.7,1.5,-2,25,-45.1496,-41.4925,-989.516,0.497165,0.399135,-1.61875,
2026_06_10_19_34_52.572,3.841,29.7,0,0.758,0,0,0,0.007, ,0,0,0,0,0, ,-28,-50.1,-987.7,0.3,7.2,-3.7,25,-44.2477,-42.1815,-989.229,0.454682,0.639891,-1.69378,
2026_06_10_19_34_52.592,3.841,29.7,0,0.759,0,0,0,0.006, ,0,0,0,0,0, ,-26.8,-44.5,-982.2,-0.5,9.3,-3.7,25,-43.2211,-42.4934,-988.968,0.420881,1.10363,-1.81603,
2026_06_10_19_34_52.612,3.841,29.7,0,0.759,0,0,0,0.006, ,0,0,0,0,0, ,-22.7,-48.4,-976.5,-3.1,10.3,-2.9,25,-42.0955,-42.7345,-988.382,0.285546,1.63357,-1.90646,
2026_06_10_19_34_52.632,3.841,29.7,0,0.759,0,0,0,0.006, ,0,0,0,0,0, ,-28.9,-48.8,-1007,-3.1,8.5,-1.5,25,-41.1025,-43.092,-988.587,0.0792392,2.10683,-1.92435,
2026_06_10_19_34_52.654,3.841,29.7,0,0.758,0,0,0,0.006, ,0,0,0,0,0, ,-13.4,-47.3,-1029.9,1.3,2.4,-0.6,25,-39.8866,-43.3941,-990.407,0.0195668,2.31056,-1.87107,
2026_06_10_19_34_52.671,3.841,29.7,0,0.759,0,0,0,0.007, ,0,0,0,0,0, ,-20.1,-46.6,-996.9,4.1,2.7,0.6,25,-38.4767,-43.6108,-991.808,0.182906,2.32515,-1.75705,
2026_06_10_19_34_52.691,3.841,29.8,0,0.759,0,0,0,0.007, ,0,0,0,0,0, ,-26.3,-46.5,-978.2,1.7,6.4,0,25,-37.5458,-43.7899,-991.549,0.348479,2.46073,-1.6317,
2026_06_10_19_34_52.711,3.841,29.7,0,0.759,0,0,0,0.006, ,0,0,0,0,0, ,-33.4,-44.4,-997.9,1.1,9.3,-1.8,25,-37.0768,-43.8911,-991.336,0.412556,2.78913,-1.58711,
2026_06_10_19_34_52.730,3.841,29.7,0,0.758,0,0,0,0.007, ,0,0,0,0,0, ,-24.9,-46.1,-1008.3,2.2,8.1,-3.2,25,-36.5938,-43.9739,-992.053,0.487962,3.14933,-1.64274,
2026_06_10_19_34_52.751,3.841,29.7,0,0.758,0,0,0,0.007, ,0,0,0,0,0, ,-18.5,-42.8,-1001.5,1.7,5.1,-3.1,25,-35.6862,-44.0029,-992.835,0.577055,3.3596,-1.73459,
2026_06_10_19_34_52.771,3.841,29.7,0,0.761,0,0,0,0.007, ,0,0,0,0,0, ,-8.4,-50.2,-1000.2,1.8,1,0.1,25,-34.3312,-44.155,-993.324,0.648532,3.34074,-1.72029,
2026_06_10_19_34_52.794,3.841,29.7,0,0.759,0,0,0,0.007, ,0,0,0,0,0, ,-22.8,-46.7,-998.4,2,2.7,-1.6,25,-33.1898,-44.4168,-993.688,0.724793,3.2499,-1.66117,
2026_06_10_19_34_52.810,3.841,29.7,0,0.757,0,0,0,0.007, ,0,0,0,0,0, ,-17.3,-49.1,-994.9,1.9,3.3,-2.7,25,-32.3891,-44.629,-993.868,0.799454,3.23467,-1.69095,
2026_06_10_19_34_52.830,3.841,29.7,0,0.758,0,0,0,0.007, ,0,0,0,0,0, ,-25.2,-47.9,-992,1.2,7.4,-4.7,25,-31.7103,-44.8649,-993.843,0.84519,3.36357,-1.81338,
2026_06_10_19_34_52.850,3.841,29.7,0,0.758,0,0,0,0.007, ,0,0,0,0,0, ,-4.1,-51.2,-983.5,-2.1,4,-2.4,25,-30.6707,-45.1504,-993.472,0.766265,3.50595,-1.91921,
2026_06_10_19_34_52.870,3.841,29.7,0,0.758,0,0,0,0.007, ,0,0,0,0,0, ,-1,-53.2,-973.7,-4.5,3.9,-1.9,25,-28.9571,-45.58,-992.565,0.518477,3.53301,-1.93327,
2026_06_10_19_34_52.889,3.841,29.7,0,0.759,0,0,0,0.007, ,0,0,0,0,0, ,-8.9,-53.8,-1021.9,-4,1.4,-2,25,-27.4941,-46.0626,-992.884,0.227898,3.4792,-1.93429,
2026_06_10_19_34_52.909,3.841,29.8,0,0.759,0,0,0,0.007, ,0,0,0,0,0, ,-0.2,-53.1,-1007.3,0.4,-2.9,-0.9,25,-26.096,-46.5128,-994.208,0.104323,3.22148,-1.90478,
2026_06_10_19_34_52.929,3.841,29.7,0,0.761,0,0,0,0.006, ,0,0,0,0,0, ,-4.7,-55.5,-991.9,2.6,3,-3.2,25,-24.655,-46.9873,-994.536,0.189372,3.02822,-1.91363,
2026_06_10_19_34_52.949,3.841,29.7,0,0.759,0,0,0,0.007, ,0,0,0,0,0, ,-9.5,-57,-989.3,2.5,2.7,-2,25,-23.5853,-47.5518,-994.296,0.333223,3.01736,-1.95545,
2026_06_10_19_34_52.968,3.841,29.7,0,0.759,0,0,0,0.007, ,0,0,0,0,0, ,-2.4,-57.2,-990.1,1.7,1.1,-2,25,-22.5106,-48.1336,-994.016,0.440886,2.94927,-1.95817,
2026_06_10_19_34_52.988,3.841,29.8,0,0.758,0,0,0,0.007, ,0,0,0,0,0, ,0.1,-52.4,-984.9,0.8,-0.1,-1.4,25,-21.209,-48.5398,-993.619,0.490191,2.80002,-1.94244,
2026_06_10_19_34_53.008,3.841,29.7,0,0.759,0,0,0,0.006, ,0,0,0,0,0, ,1.3,-54.6,-989,-0.2,-0.3,-1.6,25,-19.8739,-48.8421,-993.213,0.478601,2.6172,-1.91547,
2026_06_10_19_34_53.028,3.841,29.7,0,0.76,0,0,0,0.007, ,0,0,0,0,0, ,4.5,-57.9,-983.5,-0.5,0.5,-2.4,25,-18.4861,-49.2935,-992.789,0.428108,2.46381,-1.92063,
2026_06_10_19_34_53.048,3.841,29.8,0,0.757,0,0,0,0.007, ,0,0,0,0,0, ,-2.4,-55.6,-986.4,-0.9,3.1,-3.4,25,-17.2956,-49.7479,-992.311,0.359364,2.42336,-1.98031,
2026_06_10_19_34_53.071,3.841,29.7,0,0.758,0,0,0,0.006, ,0,0,0,0,0, ,-6.4,-57.2,-989.1,-1.3,3.5,-4,25,-16.5098,-50.1533,-992.033,0.270434,2.47678,-2.0851,
2026_06_10_19_34_53.087,3.841,29.7,0,0.759,0,0,0,0.007, ,0,0,0,0,0, ,-6.4,-55.9,-994.5,-1.8,2.7,-4.2,25,-15.8937,-50.5431,-992.019,0.159502,2.51476,-2.20788,
2026_06_10_19_34_53.107,3.841,29.8,0,0.758,0,0,0,0.007, ,0,0,0,0,0, ,3,-54.3,-998.2,-2.6,-1.4,-1.4,25,-15.0288,-50.8208,-992.283,0.0157194,2.40112,-2.24397,
2026_06_10_19_34_53.126,3.841,29.8,0,0.759,0,0,0,0.006, ,0,0,0,0,0, ,7.6,-53.1,-995.3,-2.1,-2.2,-0.4,25,-13.79,-50.9962,-992.555,-0.128442,2.14512,-2.16207,
2026_06_10_19_34_53.146,3.841,29.8,0,0.758,0,0,0,0.006, ,0,0,0,0,0, ,14.2,-58.3,-992,-0.9,-0.5,-0.7,25,-12.2855,-51.2828,-992.622,-0.212021,1.93213,-2.06383,
2026_06_10_19_34_53.166,3.841,29.7,0,0.757,0,0,0,0.006, ,0,0,0,0,0, ,3.4,-50.4,-992.5,-0.5,2.1,-1.3,25,-11.0006,-51.4698,-992.599,-0.241757,1.86315,-1.999,
2026_06_10_19_34_53.186,3.841,29.8,0,0.759,0,0,0,0.007, ,0,0,0,0,0, ,9.1,-53.1,-996,-0.9,2.2,-1.3,25,-9.94937,-51.4868,-992.7,-0.269681,1.88063,-1.95641,
2026_06_10_19_34_53.207,3.841,29.8,0,0.759,0,0,0,0.006, ,0,0,0,0,0, ,2.5,-53.2,-1001.3,-0.3,1.7,-0.6,25,-8.98964,-51.5882,-993.062,-0.28981,1.88485,-1.89508,
2026_06_10_19_34_53.226,3.841,29.8,0,0.758,0,0,0,0.006, ,0,0,0,0,0, ,-1.9,-52.4,-996.5,-0.2,-0.3,-0.6,25,-8.42355,-51.662,-993.418,-0.287384,1.81265,-1.81616,
2026_06_10_19_34_53.246,3.841,29.7,0,0.758,0,0,0,0.006, ,0,0,0,0,0, ,-2.5,-54.3,-1008.1,0.2,-1.5,-0.2,25,-8.0443,-51.7649,-993.959,-0.269872,1.64735,-1.72986,
2026_06_10_19_34_53.266,3.841,29.8,0,0.758,0,0,0,0.007, ,0,0,0,0,0, ,-10.1,-50.1,-995.6,1.3,-1.5,-0.5,25,-7.93801,-51.7914,-994.44,-0.207723,1.45556,-1.64578,
2026_06_10_19_34_53.285,3.841,29.7,0,0.759,0,0,0,0.007, ,0,0,0,0,0, ,-5.6,-51.6,-995.6,0.3,2.4,-2.8,25,-7.93265,-51.734,-994.511,-0.146315,1.39428,-1.64604,
2026_06_10_19_34_53.305,3.841,29.8,0,0.759,0,0,0,0.007, ,0,0,0,0,0, ,1.3,-53.3,-1002.4,0.7,2.6,-2.4,25,-7.58027,-51.7777,-994.784,-0.10693,1.46166,-1.70417,
2026_06_10_19_34_53.325,3.841,29.7,0,0.76,0,0,0,0.007, ,0,0,0,0,0, ,1.2,-52.2,-987.9,0.5,0.6,-3,25,-7.04217,-51.8369,-994.807,-0.0638517,1.47009,-1.76485,
2026_06_10_19_34_53.348,3.841,29.8,0,0.759,0,0,0,0.007, ,0,0,0,0,0, ,3.9,-53.7,-999.8,-0.9,-0.9,-2.5,25,-6.45765,-51.9047,-994.748,-0.0721483,1.37137,-1.82488,
2026_06_10_19_34_53.365,3.841,29.8,0,0.759,0,0,0,0.007, ,0,0,0,0,0, ,5.4,-54.6,-989.1,-1.4,-4.9,-0.6,25,-5.78078,-52.0416,-994.73,-0.13783,1.11108,-1.80813,
2026_06_10_19_34_53.385,3.841,29.8,0,0.759,0,0,0,0.007, ,0,0,0,0,0, ,4.7,-54.3,-994.8,-1.2,-2.1,-1.5,25,-5.12078,-52.1883,-994.561,-0.20865,0.830093,-1.76193,
2026_06_10_19_34_53.405,3.841,29.8,0,0.761,0,0,0,0.007, ,0,0,0,0,0, ,-8.3,-50.7,-998,-0.6,1.1,-2.6,25,-4.91842,-52.2073,-994.673,-0.250779,0.74904,-1.77949,
2026_06_10_19_34_53.424,3.841,29.8,0,0.759,0,0,0,0.007, ,0,0,0,0,0, ,16.1,-57.6,-999,-0.5,1.1,-3.5,25,-4.38104,-52.3257,-994.906,-0.269013,0.770427,-1.85691,
2026_06_10_19_34_53.444,3.841,29.8,0,0.757,0,0,0,0.007, ,0,0,0,0,0, ,15.3,-62,-1005,2,0.2,-1.8,25,-3.15736,-52.7812,-995.338,-0.206916,0.763088,-1.90524,
2026_06_10_19_34_53.463,3.841,29.8,0,0.758,0,0,0,0.007, ,0,0,0,0,0, ,2.6,-58.2,-996.8,3.2,-1.9,-0.8,25,-2.41956,-53.2272,-995.677,-0.03587,0.664791,-1.86836,
2026_06_10_19_34_53.487,3.841,29.8,0,0.758,0,0,0,0.007, ,0,0,0,0,0, ,-12.2,-55,-991.3,2.3,-3.8,-0.1,25,-2.56462,-53.4327,-995.578,0.133894,0.450608,-1.78193,
2026_06_10_19_34_53.503,3.841,29.8,0,0.759,0,0,0,0.007, ,0,0,0,0,0, ,-12.3,-51.7,-989.3,0.6,-4.3,-2,25,-3.15482,-53.4277,-995.256,0.214094,0.176352,-1.73732,
2026_06_10_19_34_53.523,3.841,29.8,0,0.758,0,0,0,0.007, ,0,0,0,0,0, ,-0.8,-59.3,-994,0,-1.9,-3,25,-3.36172,-53.5539,-995.037,0.219329,-0.0233004,-1.7838,
2026_06_10_19_34_53.543,3.841,29.8,0,0.758,0,0,0,0.007, ,0,0,0,0,0, ,1,-56.6,-994,0.9,0.8,-3.8,25,-3.15077,-53.8218,-994.973,0.233386,-0.0553961,-1.88229,
2026_06_10_19_34_53.563,3.841,29.8,0,0.758,0,0,0,0.007, ,0,0,0,0,0, ,12.4,-56.7,-992.9,0.8,2.1,-2.5,25,-2.55049,-53.9942,-994.881,0.27096,0.036339,-1.95954,
2026_06_10_19_34_53.582,3.841,29.8,0,0.758,0,0,0,0.007, ,0,0,0,0,0, ,9.5,-55.4,-976.5,-2.1,0.9,-1.9,25,-1.7278,-54.1194,-994.26,0.214839,0.125531,-1.97419,
2026_06_10_19_34_53.602,3.841,29.9,0,0.759,0,0,0,0.007, ,0,0,0,0,0, ,16.3,-64.4,-982.1,-4.5,-0.1,-1.3,25,-0.836421,-54.4717,-993.349,0.000653937,0.142256,-1.95139,
2026_06_10_19_34_53.625,3.841,29.8,0,0.758,0,0,0,0.006, ,0,0,0,0,0, ,14.1,-60.1,-996.7,-3.3,-1.4,-0.4,25,0.140798,-54.9457,-993.108,-0.237042,0.0878844,-1.88427,
2026_06_10_19_34_53.642,3.841,29.8,0,0.758,0,0,0,0.007, ,0,0,0,0,0, ,4.5,-56.7,-994.6,-2.8,-2.2,0,25,0.698937,-55.1562,-993.263,-0.408457,-0.0271586,-1.78164,
2026_06_10_19_34_53.662,3.841,29.9,0,0.758,0,0,0,0.007, ,0,0,0,0,0, ,8.1,-58.9,-988.8,-1.6,-0.1,-1.3,25,1.04025,-55.3173,-993.168,-0.517629,-0.0955817,-1.71268,
2026_06_10_19_34_53.682,3.841,29.8,0,0.758,0,0,0,0.006, ,0,0,0,0,0, ,-1.5,-57,-993.5,-0.9,1.7,-0.9,25,1.17796,-55.4777,-993.045,-0.562258,-0.0410072,-1.67534,
2026_06_10_19_34_53.700,3.841,29.8,0,0.758,0,0,0,0.007, ,0,0,0,0,0, ,-2.3,-55.5,-992.4,-1.3,-0.9,-1.6,25,0.990392,-55.5248,-993.039,-0.595026,-0.0141333,-1.64942,
2026_06_10_19_34_53.721,3.841,29.8,0,0.759,0,0,0,0.007, ,0,0,0,0,0, ,10.7,-65.1,-995.2,0.1,-1,-1,25,1.18598,-55.8158,-993.085,-0.595329,-0.0711627,-1.62813,
2026_06_10_19_34_53.740,3.841,29.7,0,0.759,0,0,0,0.007, ,0,0,0,0,0, ,3,-57.4,-998.6,2.4,0.4,-1.1,25,1.53113,-56.1469,-993.318,-0.48288,-0.0851075,-1.5929,
2026_06_10_19_34_53.763,3.841,29.7,0,0.759,0,0,0,0.008, ,0,0,0,0,0, ,-6.8,-51.6,-985.3,0.6,1,-1.2,25,1.32204,-56.0466,-993.234,-0.362048,-0.037265,-1.56591,
2026_06_10_19_34_53.780,3.841,29.8,0,0.759,0,0,0,0.008, ,0,0,0,0,0, ,-1.7,-54,-975.9,-0.6,-0.5,-0.7,25,0.982498,-55.8487,-992.465,-0.339986,-0.0197598,-1.52838,
2026_06_10_19_34_53.800,3.841,29.7,0,0.759,0,0,0,0.007, ,0,0,0,0,0, ,9.1,-55.4,-966,-4.4,0.8,-1.9,25,1.1481,-55.7787,-991.153,-0.471612,-0.00941503,-1.51446,
2026_06_10_19_34_53.819,3.841,29.8,0,0.759,0,0,0,0.008, ,0,0,0,0,0, ,21.4,-55,-987.5,-7.7,0.2,-0.5,25,2.00743,-55.7435,-990.276,-0.811545,0.0216274,-1.4953,
2026_06_10_19_34_53.840,3.841,29.9,0,0.759,0,0,0,0.007, ,0,0,0,0,0, ,18.4,-56.6,-1007.2,-5.9,0,0.7,25,3.09776,-55.7469,-990.707,-1.17647,0.0264033,-1.39809,
2026_06_10_19_34_53.860,3.841,29.9,0,0.759,0,0,0,0.006, ,0,0,0,0,0, ,7.8,-56.1,-1007.9,-2.7,-1.3,0.8,25,3.70727,-55.7837,-991.733,-1.36681,-0.014815,-1.26719,
2026_06_10_19_34_53.879,3.841,29.9,0,0.758,0,0,0,0.006, ,0,0,0,0,0, ,-7.9,-48.7,-999.6,-1.1,-0.9,0.1,25,3.47831,-55.5775,-992.466,-1.3993,-0.0809435,-1.16255,
2026_06_10_19_34_53.899,3.841,29.9,0,0.759,0,0,0,0.006, ,0,0,0,0,0, ,-2.9,-49.3,-993,-1.4,-1,0.1,25,2.93729,-55.1766,-992.699,-1.3902,-0.133902,-1.08561,
2026_06_10_19_34_53.918,3.841,29.8,0,0.757,0,0,0,0.006, ,0,0,0,0,0, ,-4.6,-49.9,-993.1,-0.8,0.8,-1.3,25,2.52978,-54.8368,-992.721,-1.37252,-0.131836,-1.05602,
2026_06_10_19_34_53.938,3.841,29.9,0,0.758,0,0,0,0.007, ,0,0,0,0,0, ,-8.1,-52,-1011.3,1,2,-1.5,25,1.98867,-54.6,-993.298,-1.28278,-0.0384895,-1.07698,
2026_06_10_19_34_53.958,3.841,29.9,0,0.757,0,0,0,0.006, ,0,0,0,0,0, ,-6.4,-47.2,-1002.6,1.8,-1.9,-1,25,1.42569,-54.2953,-994.13,-1.1193,-0.0330972,-1.08752,
2026_06_10_19_34_53.978,3.841,29.8,0,0.759,0,0,0,0.006, ,0,0,0,0,0, ,3.9,-50.4,-990.4,1.3,-0.1,-1.7,25,1.26264,-53.9604,-994.275,-0.956642,-0.0920178,-1.10352,
2026_06_10_19_34_53.997,3.841,29.8,0,0.761,0,0,0,0.007, ,0,0,0,0,0, ,0.7,-44.6,-991,0.3,3.6,-3.3,25,1.32585,-53.5667,-994.057,-0.849596,0.0202301,-1.18862,
2026_06_10_19_34_54.018,3.841,29.9,0,0.759,0,0,0,0.007, ,0,0,0,0,0, ,0.2,-49.5,-1002.9,-1,2.1,-2.7,25,1.27248,-53.1696,-994.233,-0.819152,0.192669,-1.299,
2026_06_10_19_34_54.042,3.841,29.8,0,0.759,0,0,0,0.006, ,0,0,0,0,0, ,5.3,-50.1,-1017.8,0.6,-3.7,-0.2,25,1.36252,-52.9643,-995.215,-0.781423,0.132178,-1.3082,
2026_06_10_19_34_54.057,3.841,29.8,0,0.759,0,0,0,0.007, ,0,0,0,0,0, ,7.4,-51.2,-999.2,2.2,-2.3,-1.4,25,1.66644,-52.8233,-996.025,-0.648492,-0.0586887,-1.27723,
2026_06_10_19_34_54.077,3.841,29.8,0,0.759,0,0,0,0.007, ,0,0,0,0,0, ,-3.9,-44.7,-994.1,1.2,0.7,-1.3,25,1.67153,-52.5263,-996.063,-0.505381,-0.103862,-1.28166,
2026_06_10_19_34_54.097,3.841,29.8,0,0.759,0,0,0,0.007, ,0,0,0,0,0, ,0.3,-52.2,-987.4,0.1,2.3,-3.2,25,1.45999,-52.2779,-995.739,-0.434975,-0.00612698,-1.34067,
2026_06_10_19_34_54.116,3.841,29.9,0,0.758,0,0,0,0.007, ,0,0,0,0,0, ,-2.3,-57.1,-995.2,0.5,2.3,-2.7,25,1.31008,-52.4224,-995.469,-0.390187,0.134403,-1.43874,
2026_06_10_19_34_54.137,3.841,29.9,0,0.758,0,0,0,0.007, ,0,0,0,0,0, ,-5.7,-52.7,-991.9,0.5,0.7,-3,25,0.986499,-52.5734,-995.352,-0.335942,0.217619,-1.52474,
2026_06_10_19_34_54.157,3.841,29.9,0,0.759,0,0,0,0.007, ,0,0,0,0,0, ,10.7,-56.5,-986.5,-1.5,-0.7,-2.3,25,1.07873,-52.6969,-994.977,-0.345939,0.204358,-1.59331,
2026_06_10_19_34_54.182,3.841,29.9,0,0.757,0,0,0,0.007, ,0,0,0,0,0, ,35.5,-64.5,-988.2,-1.3,3,-1.3,25,2.42065,-53.1724,-994.512,-0.410171,0.261983,-1.60591,
2026_06_10_19_34_54.196,3.841,29.8,0,0.763,0,0,0,0.007, ,0,0,0,0,0, ,10.6,-51.3,-989.5,-0.6,6.1,-2.4,25,3.67775,-53.4605,-994.167,-0.443067,0.523284,-1.62078,
2026_06_10_19_34_54.216,3.841,29.8,0,0.758,0,0,0,0.007, ,0,0,0,0,0, ,30.6,-63.9,-997.9,1,8.8,-2.8,25,4.70895,-53.7128,-994.139,-0.40388,0.94538,-1.68045,
2026_06_10_19_34_54.236,3.841,29.8,0,0.759,0,0,0,0.007, ,0,0,0,0,0, ,35.8,-63.9,-1001.2,2.9,14.7,-0.2,25,6.44512,-54.3335,-994.468,-0.26044,1.60379,-1.66945,
2026_06_10_19_34_54.256,3.841,29.9,0,0.761,0,0,0,0.007, ,0,0,0,0,0, ,46.2,-59.8,-976.5,1.5,22.2,2.5,25,8.55081,-54.7916,-994.126,-0.110507,2.63035,-1.49764,
2026_06_10_19_34_54.275,3.841,30,0,0.758,0,0,0,0.007, ,0,0,0,0,0, ,68.7,-54.6,-932.2,-4,40,5.2,25,11.5306,-54.9383,-991.702,-0.179945,4.36522,-1.17177,
2026_06_10_19_34_54.295,3.841,29.8,0,0.759,0,0,0,0.006, ,0,0,0,0,0, ,65,-42.3,-935.9,-13.6,67.8,2,25,14.9016,-54.543,-988.189,-0.70523,7.38375,-0.880993,
2026_06_10_19_34_54.321,3.841,29.9,0,0.758,0,0,0,0.007, ,0,0,0,0,0, ,59.6,-32.7,-968.7,-16.5,79.6,-6,25,17.79,-53.5044,-986.002,-1.57936,11.4249,-0.949182,
2026_06_10_19_34_54.334,3.841,29.9,0,0.761,0,0,0,0.007, ,0,0,0,0,0, ,76.7,-30.7,-1005.8,-16.8,77.3,-11.2,25,20.8588,-52.1757,-986.078,-2.49773,15.5092,-1.4154,
2026_06_10_19_34_54.354,3.841,29.9,0,0.758,0,0,0,0.007, ,0,0,0,0,0, ,129.2,-36.1,-1044.4,-8.3,80,-18.9,25,25.8612,-51.0315,-988.456,-3.11029,19.3569,-2.24626,
2026_06_10_19_34_54.374,3.841,29.8,0,0.758,0,0,0,0.007, ,0,0,0,0,0, ,161.8,-47.7,-1038.2,2.7,93.2,-20.7,25,33.1517,-50.4751,-991.676,-3.09138,23.4545,-3.31594,
2026_06_10_19_34_54.394,3.841,29.9,0,0.759,0,0,0,0.008, ,0,0,0,0,0, ,197.6,-47.7,-982.6,8.6,113.3,-19,25,42.082,-50.306,-992.817,-2.5587,28.317,-4.32349,
2026_06_10_19_34_54.413,3.841,29.9,0,0.759,0,0,0,0.007, ,0,0,0,0,0, ,262.8,-41.9,-968.7,16.7,143.2,-30,25,53.5454,-49.9705,-991.771,-1.63192,34.4067,-5.55299,
2026_06_10_19_34_54.434,3.841,29.8,0,0.759,0,0,0,0.007, ,0,0,0,0,0, ,304.9,-45.2,-994,31.6,150.4,-42.2,25,67.5796,-49.5792,-991.136,-0.0608382,41.2557,-7.41445,
2026_06_10_19_34_54.453,3.841,29.9,0,0.758,0,0,0,0.008, ,0,0,0,0,0, ,312.5,-42.3,-993,31.8,145,-40.4,25,82.2729,-49.224,-991.28,1.87459,47.7421,-9.47935,
2026_06_10_19_34_54.473,3.841,29.8,0,0.76,0,0,0,0.007, ,0,0,0,0,0, ,356.6,-71,-962.8,18.6,127.2,-25.6,25,97.646,-49.6765,-990.465,3.29598,53.1264,-10.9126,
2026_06_10_19_34_54.493,3.841,29.9,0,0.759,0,0,0,0.008, ,0,0,0,0,0, ,391.8,-45,-924.5,1.8,111.5,-19.1,25,114.499,-50.1837,-987.612,3.71669,57.1619,-11.6096,
2026_06_10_19_34_54.512,3.841,30,0,0.759,0,0,0,0.007, ,0,0,0,0,0, ,404.9,-55,-930.1,8.9,101,-16,25,131.796,-50.1725,-983.937,3.81622,60.1532,-11.9716,
2026_06_10_19_34_54.532,3.841,29.9,0,0.758,0,0,0,0.006, ,0,0,0,0,0, ,439.4,-53.4,-943.2,12.5,87.9,-13.7,25,149.489,-50.418,-981.055,4.2357,62.2432,-12.147,
2026_06_10_19_34_54.552,3.841,29.9,0,0.759,0,0,0,0.007, ,0,0,0,0,0, ,480.5,-59.2,-897.9,14.2,73.6,-13.5,25,168.408,-50.7764,-977.368,4.79111,63.3709,-12.2355,
2026_06_10_19_34_54.572,3.841,29.8,0,0.761,0,0,0,0.007, ,0,0,0,0,0, ,519,-59.9,-819.4,12.7,66,-12.8,25,188.599,-51.311,-970.134,5.31876,63.7627,-12.2913,
2026_06_10_19_34_54.592,3.841,29.9,0,0.759,0,0,0,0.008, ,0,0,0,0,0, ,549.9,-64,-779.2,7.3,70.1,-9.1,25,209.674,-51.9594,-959.724,5.60402,64.024,-12.2095,
2026_06_10_19_34_54.612,3.841,29.9,0,0.758,0,0,0,0.007, ,0,0,0,0,0, ,577.2,-65.5,-789.6,1.1,81.4,-7,25,231.239,-52.7388,-949.04,5.51846,64.7385,-11.9561,
2026_06_10_19_34_54.631,3.841,29.9,0,0.758,0,0,0,0.007, ,0,0,0,0,0, ,569.2,-58.3,-812.7,2.2,80.7,-10.8,25,252.077,-53.297,-940.028,5.28273,65.7325,-11.7698,
2026_06_10_19_34_54.651,3.841,29.9,0,0.758,0,0,0,0.007, ,0,0,0,0,0, ,567,-45,-773.9,6.9,66.8,-12.3,25,271.335,-53.1967,-931.086,5.23808,66.2211,-11.7564,
2026_06_10_19_34_54.671,3.841,29.9,0,0.758,0,0,0,0.007, ,0,0,0,0,0, ,622.3,-63.1,-726.1,1.8,61.8,-7.6,25,291.037,-53.2487,-920.052,5.18396,66.104,-11.6464,
2026_06_10_19_34_54.691,3.841,29.9,0,0.76,0,0,0,0.007, ,0,0,0,0,0, ,682.2,-75,-731.2,2.5,77.1,-4.4,25,313.048,-54.2116,-908.388,4.99908,66.3079,-11.3023,
2026_06_10_19_34_54.710,3.841,29.9,0,0.759,0,0,0,0.007, ,0,0,0,0,0, ,705.8,-64,-723.3,5.2,99,-5.4,25,336.262,-55.1432,-897.35,4.92906,67.6328,-10.9121,
2026_06_10_19_34_54.730,3.841,30,0,0.76,0,0,0,0.007, ,0,0,0,0,0, ,679,-62.6,-736.8,8.7,109,-8.2,25,357.964,-55.6403,-887.155,5.05221,69.8489,-10.6616,
2026_06_10_19_34_54.750,3.841,30,0,0.759,0,0,0,0.006, ,0,0,0,0,0, ,713.9,-60.6,-701.2,9.8,103.4,-9.2,25,378.591,-56.0034,-876.908,5.30801,72.0641,-10.542,
2026_06_10_19_34_54.770,3.841,29.9,0,0.76,0,0,0,0.006, ,0,0,0,0,0, ,765.6,-56.3,-652,13,102.6,-12.7,25,400.599,-56.1525,-864.702,5.67924,73.9492,-10.5669,
2026_06_10_19_34_54.789,3.841,30,0,0.76,0,0,0,0.007, ,0,0,0,0,0, ,811,-80.6,-610.3,15.4,120.1,-12.6,25,424.225,-56.9019,-850.47,6.19847,76.2283,-10.6938,
2026_06_10_19_34_54.809,3.841,29.9,0,0.758,0,0,0,0.006, ,0,0,0,0,0, ,824.7,-70.3,-584.7,20,138.9,-13.6,25,448.211,-58.0322,-835.054,6.89935,79.4746,-10.8405,
2026_06_10_19_34_54.830,3.841,29.9,0,0.759,0,0,0,0.007, ,0,0,0,0,0, ,805.2,-73.7,-587.6,20,134,-16.7,25,470.559,-58.8833,-819.887,7.69767,82.9465,-11.1031,
2026_06_10_19_34_54.850,3.841,29.9,0,0.759,0,0,0,0.007, ,0,0,0,0,0, ,803.1,-50.1,-572,20,116.3,-10.7,25,490.887,-59.0672,-805.257,8.44734,85.5183,-11.2613,
2026_06_10_19_34_54.869,3.841,29.9,0,0.758,0,0,0,0.007, ,0,0,0,0,0, ,833.2,-64.8,-512,8.1,94.5,-10,25,510.83,-58.9686,-789.214,8.78875,86.7298,-11.2058,
2026_06_10_19_34_54.889,3.841,29.8,0,0.758,0,0,0,0.007, ,0,0,0,0,0, ,841.4,-61.2,-454.5,-1.6,90.5,-9.7,25,530.724,-59.2143,-770.57,8.45124,87.0815,-11.1232,
2026_06_10_19_34_54.908,3.841,30,0,0.759,0,0,0,0.008, ,0,0,0,0,0, ,876.2,-55.7,-415.8,-2.9,99,-13.1,25,550.716,-59.1677,-750.13,7.79913,87.5488,-11.14,
2026_06_10_19_34_54.929,3.841,29.9,0,0.758,0,0,0,0.006, ,0,0,0,0,0, ,912.1,-67,-386.2,1.4,95,-12.1,25,571.644,-59.3007,-728.855,7.27817,88.1247,-11.229,
2026_06_10_19_34_54.948,3.841,30,0,0.758,0,0,0,0.007, ,0,0,0,0,0, ,897.3,-50.1,-369,-0.4,81.3,-7.7,25,591.94,-59.2549,-707.45,6.86512,88.1262,-11.148,
2026_06_10_19_34_54.969,3.841,29.8,0,0.759,0,0,0,0.006, ,0,0,0,0,0, ,916.3,-52.4,-350,-2.9,76,-6.8,25,611.127,-58.7671,-686.247,6.34623,87.5488,-10.9105,
2026_06_10_19_34_54.988,3.841,29.9,0,0.759,0,0,0,0.008, ,0,0,0,0,0, ,936.2,-51.7,-287.3,-12.9,82.1,-7.1,25,630.33,-58.3578,-663.847,5.4781,87.0309,-10.6691,
2026_06_10_19_34_55.008,3.841,30,0,0.758,0,0,0,0.007, ,0,0,0,0,0, ,970.9,-46.6,-261.9,-11.4,98.7,-10.8,25,650.026,-57.7967,-640.127,4.40389,87.2362,-10.5644,
2026_06_10_19_34_55.027,3.841,29.9,0,0.758,0,0,0,0.006, ,0,0,0,0,0, ,995.6,-58.2,-242.9,-2.4,99.3,-5.9,25,670.332,-57.4679,-616.5,3.71506,87.953,-10.4294,
2026_06_10_19_34_55.047,3.841,30,0,0.759,0,0,0,0.007, ,0,0,0,0,0, ,976.5,-45.2,-220.4,-6.4,91.9,-1.6,25,689.571,-57.1164,-593.048,3.22055,88.419,-10.0224,
2026_06_10_19_34_55.067,3.841,29.9,0,0.759,0,0,0,0.006, ,0,0,0,0,0, ,972.6,-31.9,-160,-9.9,93.1,-1.9,25,706.937,-55.985,-568.499,2.52766,88.6677,-9.51831,
2026_06_10_19_34_55.086,3.841,30,0,0.758,0,0,0,0.007, ,0,0,0,0,0, ,957.2,-35.6,-112.5,-11.7,100.9,-5.1,25,722.656,-54.63,-542.159,1.7155,89.1755,-9.15157,
2026_06_10_19_34_55.106,3.841,30,0,0.758,0,0,0,0.006, ,0,0,0,0,0, ,985.9,-38.2,-120.4,-3.7,97.3,-9.7,25,737.823,-53.5496,-516.218,1.14174,89.7802,-9.04483,
2026_06_10_19_34_55.126,3.841,29.9,0,0.759,0,0,0,0.006, ,0,0,0,0,0, ,996.8,-46.5,-106.2,-2.6,71,-4.4,25,753.273,-52.8671,-491.665,0.880217,89.4372,-8.92327,
2026_06_10_19_34_55.146,3.841,30,0,0.757,0,0,0,0.007, ,0,0,0,0,0, ,982.1,-32.4,-95.2,-6.9,60.3,-0.3,25,767.665,-52.0495,-467.84,0.537125,87.9876,-8.52272,
2026_06_10_19_34_55.173,3.841,29.9,0,0.757,0,0,0,0.006, ,0,0,0,0,0, ,951.6,-15.6,-48.4,-14.1,53.9,0.2,25,779.802,-50.3403,-443.707,-0.135449,86.1054,-8.00641,
2026_06_10_19_34_55.185,3.841,29.9,0,0.759,0,0,0,0.007, ,0,0,0,0,0, ,940.7,-24.2,-0.2,-14.9,56.2,-4.8,25,789.939,-48.4853,-418.149,-1.01079,84.213,-7.65868,
2026_06_10_19_34_55.205,3.841,30,0,0.759,0,0,0,0.007, ,0,0,0,0,0, ,971.4,-26.8,15.6,-10.8,61.2,-11.2,25,800.062,-47.0846,-392.199,-1.73224,82.6583,-7.67947,
2026_06_10_19_34_55.224,3.841,30,0,0.757,0,0,0,0.006, ,0,0,0,0,0, ,991.3,-32.3,3.6,-11,53.6,-7,25,811.109,-46.0161,-367.714,-2.2909,81.1191,-7.76604,
2026_06_10_19_34_55.245,3.841,29.9,0,0.758,0,0,0,0.006, ,0,0,0,0,0, ,983.1,-31.3,3.9,-18.1,41.2,-2.3,25,821.839,-45.1498,-345.078,-3.03794,79.0643,-7.57615,
2026_06_10_19_34_55.265,3.841,30,0,0.758,0,0,0,0.007, ,0,0,0,0,0, ,966,-15.8,29.4,-18.5,36.7,-5.8,25,831.145,-43.8336,-323.035,-3.96797,76.6199,-7.36128,
2026_06_10_19_34_55.285,3.841,29.9,0,0.758,0,0,0,0.006, ,0,0,0,0,0, ,977,-27.4,49.6,-15.5,41.1,-9.9,25,839.698,-42.4787,-300.943,-4.76211,74.3213,-7.39106,
2026_06_10_19_34_55.305,3.841,30,0,0.758,0,0,0,0.007, ,0,0,0,0,0, ,977.9,-19.6,69.2,-12.4,43.4,-12.2,25,848.092,-41.3222,-278.985,-5.322,72.367,-7.61403,
2026_06_10_19_34_55.325,3.841,30,0,0.758,0,0,0,0.006, ,0,0,0,0,0, ,996.3,-30,71.2,-9.5,39.5,-12,25,856.563,-40.3154,-257.707,-5.66495,70.483,-7.88739,
2026_06_10_19_34_55.344,3.841,30,0,0.759,0,0,0,0.006, ,0,0,0,0,0, ,1015.2,-25.5,62.2,-5.8,31.2,-6.8,25,865.654,-39.5497,-237.938,-5.78592,68.3421,-7.97957,
