UTC_Time,Vin,TC1,TC2,Rh1,Vh1,Ah1,Acp1,Dty1,Err1,Rh2,Vh2,Ah2,Acp2,Dty2,Err2,Accel_x,Accel_y,Accel_z,gyro_x,gyro_y,gyro_z,Temp_c,Accel_x_h,Accel_y_h,Accel_z_h,gyro_x_h,gyro_y_h,gyro_z_h,
2026_07_06_16_35_47.647,3.875,54.1,0,0.776,0,0,0,0, ,0,0,0,0,0, ,-36.2,272.4,963.5,-0.8,-0.5,-1.8,25,-36.2,272.4,963.5,-0.8,-0.5,-1.8,
2026_07_06_16_35_47.665,3.875,54,0,0.776,0,0,0,0, ,0,0,0,0,0, ,-40,267.4,962.8,-0.3,-0.5,-1.8,25,-36.3158,272.248,963.479,-0.784766,-0.5,-1.8,
2026_07_06_16_35_47.686,3.875,54,0,0.775,0,0,0,0, ,0,0,0,0,0, ,-38.4,269.5,962.2,-1,-0.5,-1.8,25,-36.4915,272.016,963.419,-0.776553,-0.5,-1.8,
2026_07_06_16_35_47.706,3.875,54,0,0.775,0,0,0,0, ,0,0,0,0,0, ,-39.1,272.8,963.6,-0.5,-0.5,-1.8,25,-36.6292,271.963,963.387,-0.774935,-0.5,-1.8,
2026_07_06_16_35_47.725,3.875,54,0,0.775,0,0,0,0, ,0,0,0,0,0, ,-37.9,269.4,962.1,-0.5,-0.5,-1.9,25,-36.7432,271.911,963.355,-0.758181,-0.5,-1.80305,
2026_07_06_16_35_47.745,3.875,54,0,0.775,0,0,0,0, ,0,0,0,0,0, ,-37.8,271.2,963.2,-0.9,-0.5,-1.8,25,-36.8106,271.813,963.312,-0.754636,-0.5,-1.80591,
2026_07_06_16_35_47.765,3.875,54,0,0.775,0,0,0,0, ,0,0,0,0,0, ,-36.6,269.7,964.2,-0.6,-0.5,-1.7,25,-36.8343,271.73,963.335,-0.754353,-0.5,-1.8025,
2026_07_06_16_35_47.784,3.875,54,0,0.774,0,0,0,0, ,0,0,0,0,0, ,-38.3,270.6,962.4,-0.9,-0.5,-1.8,25,-36.8719,271.633,963.333,-0.754088,-0.5,-1.7993,
2026_07_06_16_35_47.804,3.875,54,0,0.775,0,0,0,0, ,0,0,0,0,0, ,-38.4,270.6,963.5,-0.6,-0.4,-1.9,25,-36.9619,271.57,963.31,-0.753839,-0.496953,-1.80239,
2026_07_06_16_35_47.823,3.875,54,0,0.776,0,0,0,0, ,0,0,0,0,0, ,-38.3,269.7,962.2,-0.7,-0.5,-1.8,25,-37.0465,271.484,963.282,-0.747511,-0.494092,-1.80529,
2026_07_06_16_35_47.843,3.875,54,0,0.777,0,0,0,0, ,0,0,0,0,0, ,-37.4,270.5,961.5,-0.7,-0.5,-1.8,25,-37.0955,271.4,963.195,-0.744616,-0.494452,-1.80497,
2026_07_06_16_35_47.867,3.875,54,0,0.775,0,0,0,0, ,0,0,0,0,0, ,-37.7,269.6,962.5,-0.9,-0.6,-1.8,25,-37.1232,271.317,963.122,-0.747991,-0.497837,-1.80467,
2026_07_06_16_35_47.883,3.875,54,0,0.775,0,0,0,0, ,0,0,0,0,0, ,-38.2,270.5,960.9,-0.7,-0.5,-1.8,25,-37.1736,271.24,963.035,-0.75116,-0.501016,-1.80438,
2026_07_06_16_35_47.903,3.875,53.8,0,0.776,0,0,0,0, ,0,0,0,0,0, ,-39.3,269.7,962.8,-0.8,-0.6,-1.8,25,-37.2696,271.171,962.963,-0.75109,-0.504001,-1.80412,
2026_07_06_16_35_47.923,3.875,54,0,0.775,0,0,0,0, ,0,0,0,0,0, ,-37.7,270.8,962.4,-0.8,-0.5,-1.8,25,-37.3446,271.114,962.941,-0.75407,-0.506804,-1.80386,
2026_07_06_16_35_47.943,3.875,53.8,0,0.776,0,0,0,0, ,0,0,0,0,0, ,-38.9,269.7,962.5,-0.5,-0.5,-1.8,25,-37.4028,271.062,962.911,-0.747728,-0.506389,-1.80363,
2026_07_06_16_35_47.963,3.875,53.8,0,0.776,0,0,0,0, ,0,0,0,0,0, ,-36.8,270.6,962.2,-0.6,-0.5,-1.8,25,-37.4301,271.006,962.877,-0.735679,-0.506,-1.80341,
2026_07_06_16_35_47.982,3.875,53.8,0,0.776,0,0,0,0, ,0,0,0,0,0, ,-39.9,271.3,964.1,-0.6,-0.5,-1.9,25,-37.4861,271.003,962.893,-0.727411,-0.505634,-1.80625,
2026_07_06_16_35_48.003,3.875,53.8,0,0.775,0,0,0,0, ,0,0,0,0,0, ,-38,270.1,963.6,-0.7,-0.5,-1.8,25,-37.5753,270.984,962.952,-0.722694,-0.505291,-1.80891,
2026_07_06_16_35_48.022,3.875,53.8,0,0.776,0,0,0,0, ,0,0,0,0,0, ,-38.8,270.5,961.9,-0.7,-0.5,-1.8,25,-37.6256,270.943,962.939,-0.721311,-0.504968,-1.80837,
2026_07_06_16_35_48.041,3.875,53.8,0,0.775,0,0,0,0, ,0,0,0,0,0, ,-38.2,268.9,961.4,-0.9,-0.5,-1.8,25,-37.6789,270.867,962.861,-0.726106,-0.504666,-1.80786,
2026_07_06_16_35_48.061,3.875,53.8,0,0.775,0,0,0,0, ,0,0,0,0,0, ,-37.9,271.1,961,-0.8,-0.5,-1.8,25,-37.7015,270.814,962.76,-0.733656,-0.504381,-1.80738,
2026_07_06_16_35_48.081,3.875,53.8,0,0.775,0,0,0,0, ,0,0,0,0,0, ,-38.9,270.8,961.3,-0.5,-0.6,-1.8,25,-37.7441,270.822,962.662,-0.728558,-0.507161,-1.80693,
2026_07_06_16_35_48.100,3.875,53.7,0,0.776,0,0,0,0, ,0,0,0,0,0, ,-38.6,271.2,962.2,-0.5,-0.5,-1.8,25,-37.8054,270.833,962.606,-0.71463,-0.509772,-1.80651,
2026_07_06_16_35_48.121,3.875,53.8,0,0.775,0,0,0,0, ,0,0,0,0,0, ,-36.9,269.5,962.7,-0.6,-0.5,-1.9,25,-37.802,270.804,962.596,-0.704598,-0.509176,-1.80916,
2026_07_06_16_35_48.140,3.875,53.7,0,0.776,0,0,0,0, ,0,0,0,0,0, ,-38.3,270.7,962.7,-0.6,-0.5,-1.7,25,-37.7897,270.761,962.603,-0.698224,-0.508617,-1.8086,
2026_07_06_16_35_48.161,3.875,53.7,0,0.776,0,0,0,0, ,0,0,0,0,0, ,-37.8,270.2,961.4,-0.7,-0.6,-1.8,25,-37.8055,270.742,962.569,-0.695286,-0.511139,-1.80503,
2026_07_06_16_35_48.180,3.875,53.7,0,0.776,0,0,0,0, ,0,0,0,0,0, ,-38.9,271.2,962.7,-0.6,-0.5,-1.9,25,-37.8387,270.739,962.537,-0.692526,-0.513507,-1.80777,
2026_07_06_16_35_48.200,3.875,53.7,0,0.776,0,0,0,0, ,0,0,0,0,0, ,-38,270.8,962.8,-0.8,-0.5,-1.8,25,-37.876,270.755,962.55,-0.692982,-0.512684,-1.81034,
2026_07_06_16_35_48.219,3.875,53.7,0,0.776,0,0,0,0, ,0,0,0,0,0, ,-37.8,269.7,963.3,-0.7,-0.6,-1.9,25,-37.8774,270.724,962.581,-0.696456,-0.514958,-1.81276,
2026_07_06_16_35_48.239,3.875,53.8,0,0.778,0,0,0,0, ,0,0,0,0,0, ,-39.7,269.6,962.6,-1.1,-0.5,-1.9,25,-37.9306,270.659,962.603,-0.70886,-0.517093,-1.81808,
2026_07_06_16_35_48.259,3.875,53.6,0,0.776,0,0,0,0, ,0,0,0,0,0, ,-38.3,271.4,961.6,-0.5,-0.5,-1.7,25,-37.9958,270.649,962.573,-0.714413,-0.516052,-1.81698,
2026_07_06_16_35_48.279,3.875,53.6,0,0.778,0,0,0,0, ,0,0,0,0,0, ,-37.3,268.7,962.5,-0.8,-0.5,-1.8,25,-37.9838,270.613,962.541,-0.710488,-0.515073,-1.81289,
2026_07_06_16_35_48.298,3.875,53.5,0,0.776,0,0,0,0, ,0,0,0,0,0, ,-38.2,268.9,962.6,-0.7,-0.5,-1.8,25,-37.9696,270.502,962.541,-0.712896,-0.514155,-1.81211,
2026_07_06_16_35_48.318,3.875,53.7,0,0.776,0,0,0,0, ,0,0,0,0,0, ,-38.6,269.7,963.2,-0.5,-0.5,-1.7,25,-37.9958,270.429,962.563,-0.706016,-0.513292,-1.80832,
2026_07_06_16_35_48.339,3.875,53.7,0,0.778,0,0,0,0, ,0,0,0,0,0, ,-39.3,270.7,962.8,-0.5,-0.5,-1.8,25,-38.054,270.415,962.59,-0.693462,-0.512482,-1.80477,
2026_07_06_16_35_48.358,3.875,53.6,0,0.776,0,0,0,0, ,0,0,0,0,0, ,-38.2,269.6,962.2,-0.5,-0.4,-1.8,25,-38.0964,270.399,962.584,-0.681673,-0.508675,-1.80448,
2026_07_06_16_35_48.378,3.875,53.7,0,0.776,0,0,0,0, ,0,0,0,0,0, ,-38.8,271.4,962.8,-0.7,-0.5,-1.9,25,-38.121,270.405,962.579,-0.676696,-0.505099,-1.80725,
2026_07_06_16_35_48.398,3.875,53.6,0,0.775,0,0,0,0, ,0,0,0,0,0, ,-37.1,269.8,962,-0.7,-0.5,-1.9,25,-38.1106,270.417,962.568,-0.678116,-0.504789,-1.8129,
2026_07_06_16_35_48.418,3.875,53.6,0,0.775,0,0,0,0, ,0,0,0,0,0, ,-38.6,272.2,962,-1,-0.5,-1.8,25,-38.0947,270.453,962.534,-0.68859,-0.504497,-1.81516,
2026_07_06_16_35_48.438,3.875,53.5,0,0.775,0,0,0,0, ,0,0,0,0,0, ,-39.7,270.5,962.2,-0.5,-0.5,-1.8,25,-38.159,270.507,962.507,-0.692333,-0.504223,-1.81424,
2026_07_06_16_35_48.457,3.875,53.6,0,0.776,0,0,0,0, ,0,0,0,0,0, ,-38.9,270.7,961.6,-0.5,-0.4,-1.8,25,-38.2285,270.513,962.47,-0.680612,-0.500919,-1.81337,
2026_07_06_16_35_48.477,3.875,53.7,0,0.775,0,0,0,0, ,0,0,0,0,0, ,-37.8,268.5,962.2,-0.9,-0.5,-1.8,25,-38.2359,270.457,962.436,-0.681794,-0.497816,-1.81256,
2026_07_06_16_35_48.497,3.875,53.7,0,0.776,0,0,0,0, ,0,0,0,0,0, ,-37.1,270.5,964.4,-1.7,-0.5,-1.8,25,-38.188,270.399,962.488,-0.719466,-0.497949,-1.81179,
2026_07_06_16_35_48.517,3.875,53.7,0,0.776,0,0,0,0, ,0,0,0,0,0, ,-37.9,270.5,962.8,-0.7,-0.4,-1.8,25,-38.1461,270.405,962.556,-0.748748,-0.495027,-1.81107,
2026_07_06_16_35_48.537,3.875,53.6,0,0.778,0,0,0,0, ,0,0,0,0,0, ,-39.3,266.6,959.4,-0.1,-0.5,-1.8,25,-38.1738,270.292,962.467,-0.727496,-0.492283,-1.8104,
2026_07_06_16_35_48.556,3.875,53.6,0,0.776,0,0,0,0, ,0,0,0,0,0, ,-37.8,280.2,971.1,0.2,-0.4,-1.8,25,-38.1967,270.481,962.637,-0.680118,-0.489706,-1.80977,
2026_07_06_16_35_48.576,3.875,53.5,0,0.774,0,0,0,0, ,0,0,0,0,0, ,-35.2,267.4,959.8,-2.3,-0.5,-1.8,25,-38.0933,270.684,962.808,-0.702657,-0.487287,-1.80917,
2026_07_06_16_35_48.595,3.875,53.6,0,0.776,0,0,0,0, ,0,0,0,0,0, ,-38.4,277.7,962,-1.1,-0.6,-1.8,25,-38.0145,270.797,962.692,-0.763433,-0.491108,-1.80861,
2026_07_06_16_35_48.615,3.875,53.6,0,0.775,0,0,0,0, ,0,0,0,0,0, ,-38.3,269.4,960,-0.2,-0.5,-1.8,25,-38.0349,270.965,962.589,-0.756521,-0.494697,-1.80809,
2026_07_06_16_35_48.635,3.875,53.6,0,0.778,0,0,0,0, ,0,0,0,0,0, ,-39.6,269.4,963.3,-0.6,-0.5,-1.8,25,-38.0907,270.87,962.532,-0.734795,-0.49502,-1.80759,
2026_07_06_16_35_48.655,3.875,53.6,0,0.776,0,0,0,0, ,0,0,0,0,0, ,-37.8,275.1,962.8,-2.1,-0.5,-1.9,25,-38.1278,270.954,962.563,-0.772284,-0.495324,-1.81018,
2026_07_06_16_35_48.675,3.875,53.6,0,0.774,0,0,0,0, ,0,0,0,0,0, ,-38,282.9,963.1,-1.4,-0.5,-1.8,25,-38.1139,271.444,962.587,-0.831864,-0.495609,-1.8126,
2026_07_06_16_35_48.694,3.875,53.6,0,0.776,0,0,0,0, ,0,0,0,0,0, ,-39,277.2,960.8,0.7,-0.4,-1.7,25,-38.1375,271.969,962.548,-0.8025,-0.492829,-1.80879,
2026_07_06_16_35_48.715,3.875,53.5,0,0.776,0,0,0,0, ,0,0,0,0,0, ,-38.6,267.8,963.6,0.4,-0.5,-1.7,25,-38.1778,272.001,962.527,-0.720082,-0.49022,-1.80216,
2026_07_06_16_35_48.739,3.875,53.4,0,0.776,0,0,0,0, ,0,0,0,0,0, ,-38.9,258.4,963.6,-0.1,-0.5,-1.8,25,-38.2127,271.459,962.592,-0.667062,-0.490816,-1.79898,
2026_07_06_16_35_48.754,3.875,53.5,0,0.776,0,0,0,0, ,0,0,0,0,0, ,-35.8,265.3,962.7,-2.4,-0.6,-1.9,25,-38.1601,270.873,962.626,-0.702584,-0.494422,-1.80209,
2026_07_06_16_35_48.775,3.875,53.5,0,0.776,0,0,0,0, ,0,0,0,0,0, ,-37.8,276.8,961,-1.8,-0.5,-1.8,25,-38.0772,270.884,962.579,-0.787739,-0.497809,-1.80501,
2026_07_06_16_35_48.794,3.875,53.4,0,0.778,0,0,0,0, ,0,0,0,0,0, ,-39.6,275.2,963.7,0.2,-0.5,-1.8,25,-38.1152,271.196,962.565,-0.788487,-0.497942,-1.80471,
2026_07_06_16_35_48.816,3.875,53.6,0,0.776,0,0,0,0, ,0,0,0,0,0, ,-38.8,266.7,962.8,0.2,-0.5,-1.8,25,-38.1813,271.181,962.607,-0.728251,-0.498068,-1.80442,
2026_07_06_16_35_48.833,3.875,53.5,0,0.778,0,0,0,0, ,0,0,0,0,0, ,-38.5,267.2,963.9,-0.6,-0.5,-1.9,25,-38.2099,270.923,962.652,-0.69606,-0.498185,-1.8072,
2026_07_06_16_35_48.853,3.875,53.4,0,0.776,0,0,0,0, ,0,0,0,0,0, ,-37.2,270.1,962.6,-0.7,-0.5,-1.9,25,-38.1879,270.784,962.688,-0.693254,-0.498296,-1.81285,
2026_07_06_16_35_48.873,3.875,53.5,0,0.776,0,0,0,0, ,0,0,0,0,0, ,-39.7,265,962.8,-0.3,-0.4,-1.8,25,-38.2039,270.587,962.689,-0.681477,-0.495353,-1.81511,
2026_07_06_16_35_48.893,3.875,53.4,0,0.777,0,0,0,0, ,0,0,0,0,0, ,-37.8,278.9,961.3,-2.3,-0.5,-1.9,25,-38.2372,270.67,962.65,-0.719168,-0.492589,-1.81724,
2026_07_06_16_35_48.912,3.875,53.5,0,0.776,0,0,0,0, ,0,0,0,0,0, ,-36.8,277.7,961,-0.5,-0.5,-1.8,25,-38.1801,271.135,962.559,-0.760657,-0.493041,-1.81924,
2026_07_06_16_35_48.931,3.875,53.4,0,0.777,0,0,0,0, ,0,0,0,0,0, ,-38.5,272.4,961.4,0.1,-0.5,-1.8,25,-38.1478,271.374,962.476,-0.726492,-0.493465,-1.81806,
2026_07_06_16_35_48.952,3.875,53.5,0,0.776,0,0,0,0, ,0,0,0,0,0, ,-40,264.8,962,-0.9,-0.5,-1.8,25,-38.2149,271.205,962.429,-0.706596,-0.493863,-1.81696,
2026_07_06_16_35_48.972,3.875,53.3,0,0.776,0,0,0,0, ,0,0,0,0,0, ,-38.5,268.9,962,-1.6,-0.4,-1.8,25,-38.278,270.939,962.403,-0.73971,-0.49119,-1.81593,
2026_07_06_16_35_48.992,3.875,53.4,0,0.776,0,0,0,0, ,0,0,0,0,0, ,-36.9,272.8,962.6,-1.4,-0.6,-1.8,25,-38.2428,270.934,962.396,-0.78604,-0.491727,-1.81496,
2026_07_06_16_35_49.012,3.875,53.4,0,0.777,0,0,0,0, ,0,0,0,0,0, ,-39.6,273.6,963.2,-1.2,-0.5,-1.9,25,-38.2432,271.072,962.427,-0.817359,-0.495278,-1.81709,
2026_07_06_16_35_49.032,3.875,53.3,0,0.777,0,0,0,0, ,0,0,0,0,0, ,-38.6,270.5,962.7,-0.9,-0.5,-1.8,25,-38.2954,271.132,962.459,-0.831536,-0.495566,-1.8191,
2026_07_06_16_35_49.052,3.875,53.5,0,0.777,0,0,0,0, ,0,0,0,0,0, ,-39.6,268,963,-1.4,-0.5,-1.9,25,-38.3445,271.017,962.483,-0.850942,-0.495836,-1.82098,
2026_07_06_16_35_49.071,3.875,53.3,0,0.776,0,0,0,0, ,0,0,0,0,0, ,-38.9,270.6,967.5,-1.6,-0.5,-1.8,25,-38.3996,270.912,962.651,-0.890494,-0.49609,-1.82275,
2026_07_06_16_35_49.091,3.875,53.5,0,0.776,0,0,0,0, ,0,0,0,0,0, ,-40,251,960.8,8.1,0.5,1.6,25,-38.4637,270.296,962.743,-0.638183,-0.465859,-1.71777,
2026_07_06_16_35_49.112,3.875,53.3,0,0.774,0,0,0,0, ,0,0,0,0,0, ,-38.4,286.7,958.7,-8.2,-0.6,-2.1,25,-38.5085,270.208,962.56,-0.60234,-0.440518,-1.62833,
2026_07_06_16_35_49.131,3.875,53.4,0,0.776,0,0,0,0, ,0,0,0,0,0, ,-37.2,293.2,962.5,2.4,-0.4,-1.7,25,-38.4653,271.411,962.441,-0.742354,-0.444143,-1.64488,
2026_07_06_16_35_49.149,3.875,53.4,0,0.776,0,0,0,0, ,0,0,0,0,0, ,-35,257.8,956.9,0.8,-0.5,-1.5,25,-38.3212,271.66,962.274,-0.599617,-0.4445,-1.64215,
2026_07_06_16_35_49.170,3.875,53.3,0,0.776,0,0,0,0, ,0,0,0,0,0, ,-41.1,273.5,968.1,0.9,-0.4,-1.4,25,-38.3047,271.294,962.288,-0.511281,-0.444835,-1.63044,
2026_07_06_16_35_49.189,3.875,53.2,0,0.776,0,0,0,0, ,0,0,0,0,0, ,-38.9,258.4,961.4,0,-0.4,-1.7,25,-38.408,270.968,962.438,-0.452703,-0.442103,-1.62554,
2026_07_06_16_35_49.210,3.875,53.3,0,0.776,0,0,0,0, ,0,0,0,0,0, ,-38.5,284.3,962.6,-1.7,-0.5,-1.8,25,-38.4258,270.992,962.411,-0.476913,-0.442584,-1.63312,
2026_07_06_16_35_49.229,3.875,53.4,0,0.776,0,0,0,0, ,0,0,0,0,0, ,-37.1,288.8,958.2,3.1,-0.4,-1.7,25,-38.3877,271.94,962.288,-0.405195,-0.443036,-1.64024,
2026_07_06_16_35_49.249,3.875,53.3,0,0.776,0,0,0,0, ,0,0,0,0,0, ,-34.9,270.1,962,-1.2,-0.5,-1.7,25,-38.2422,272.397,962.155,-0.322613,-0.44346,-1.64389,
2026_07_06_16_35_49.269,3.875,53.3,0,0.776,0,0,0,0, ,0,0,0,0,0, ,-38,280.8,961.3,2.2,-0.5,-1.7,25,-38.1329,272.583,962.124,-0.272485,-0.446906,-1.64731,
2026_07_06_16_35_49.289,3.875,53.2,0,0.777,0,0,0,0, ,0,0,0,0,0, ,-37.8,273.9,963.1,3.4,-0.4,-1.7,25,-38.1188,272.874,962.129,-0.0852553,-0.447094,-1.65052,
2026_07_06_16_35_49.309,3.875,53.3,0,0.776,0,0,0,0, ,0,0,0,0,0, ,-40,275,959.8,2.2,-0.5,-1.7,25,-38.1664,272.97,962.088,0.0905649,-0.447271,-1.65353,
2026_07_06_16_35_49.328,3.875,53.2,0,0.776,0,0,0,0, ,0,0,0,0,0, ,-36.9,281.6,961,0.9,-0.4,-1.7,25,-38.1836,273.295,961.985,0.179499,-0.447437,-1.65636,
2026_07_06_16_35_49.349,3.875,53.3,0,0.777,0,0,0,0, ,0,0,0,0,0, ,-38.5,280,958.6,1.8,-0.4,-1.7,25,-38.1542,273.752,961.852,0.250827,-0.444547,-1.65902,
2026_07_06_16_35_49.367,3.875,53.3,0,0.776,0,0,0,0, ,0,0,0,0,0, ,-38.9,275.3,961.9,1.7,-0.4,-1.7,25,-38.1874,273.99,961.754,0.342183,-0.441832,-1.66152,
2026_07_06_16_35_49.387,3.875,53.3,0,0.776,0,0,0,0, ,0,0,0,0,0, ,-38.5,275.6,959.7,5.9,-0.2,-1.1,25,-38.2187,274.079,961.696,0.552893,-0.433189,-1.64558,
2026_07_06_16_35_49.407,3.875,53.3,0,0.776,0,0,0,0, ,0,0,0,0,0, ,-38.4,277.5,962.6,9.8,0.2,0.4,25,-38.2328,274.229,961.663,0.997561,-0.406792,-1.56663,
2026_07_06_16_35_49.428,3.875,53.3,0,0.776,0,0,0,0, ,0,0,0,0,0, ,-38.6,294.5,956.4,7.2,-0.1,-0.8,25,-38.249,274.946,961.531,1.45474,-0.378956,-1.48335,
2026_07_06_16_35_49.447,3.875,53.1,0,0.776,0,0,0,0, ,0,0,0,0,0, ,-38.3,285.1,956.6,4.5,-0.1,-0.7,25,-38.2613,275.852,961.224,1.72258,-0.361957,-1.43867,
2026_07_06_16_35_49.468,3.875,53.2,0,0.776,0,0,0,0, ,0,0,0,0,0, ,-39,298.8,954.3,3.4,-0.2,-0.9,25,-38.285,276.833,960.872,1.85831,-0.349041,-1.39975,
2026_07_06_16_35_49.487,3.875,53.3,0,0.778,0,0,0,0, ,0,0,0,0,0, ,-38.4,290.2,955.4,1.7,-0.2,-1,25,-38.3103,277.909,960.505,1.90046,-0.339959,-1.37234,
2026_07_06_16_35_49.506,3.875,53.3,0,0.776,0,0,0,0, ,0,0,0,0,0, ,-38.8,292.3,956.9,2,0,-0.4,25,-38.3279,278.722,960.24,1.89739,-0.325336,-1.33137,
2026_07_06_16_35_49.527,3.875,53.3,0,0.776,0,0,0,0, ,0,0,0,0,0, ,-39.3,293.2,955.6,0.4,-0.4,-1.4,25,-38.3719,279.577,959.997,1.85489,-0.317699,-1.30508,
2026_07_06_16_35_49.546,3.875,53.2,0,0.776,0,0,0,0, ,0,0,0,0,0, ,-38.9,296.7,955.4,0.1,-0.2,-0.9,25,-38.4163,280.514,959.723,1.75709,-0.31662,-1.29563,
2026_07_06_16_35_49.565,3.875,53.2,0,0.778,0,0,0,0, ,0,0,0,0,0, ,-42.2,339.9,938.7,-47.4,3.1,11.2,25,-38.5463,282.816,958.951,0.208846,-0.208967,-0.902852,
2026_07_06_16_35_49.585,3.875,53.2,0,0.777,0,0,0,0, ,0,0,0,0,0, ,-39.6,321.5,958.6,-17.5,2.9,10.8,25,-38.6897,285.734,958.323,-1.7813,-0.0134204,-0.177522,
2026_07_06_16_35_49.605,3.875,53.1,0,0.776,0,0,0,0, ,0,0,0,0,0, ,-42.8,285.8,955.3,-7.8,0.3,1.4,25,-38.8427,286.826,958.239,-2.44361,0.0848974,0.205014,
2026_07_06_16_35_49.625,3.875,53.2,0,0.776,0,0,0,0, ,0,0,0,0,0, ,-50.4,318.6,955.6,-19.7,-2.4,-6.6,25,-39.3154,287.763,958.069,-3.1326,0.0157396,0.0340838,
2026_07_06_16_35_49.644,3.875,53.2,0,0.777,0,0,0,0, ,0,0,0,0,0, ,-38.8,314.6,962.4,-8.3,-2.6,-9.6,25,-39.6375,289.52,958.126,-3.79483,-0.137563,-0.461587,
2026_07_06_16_35_49.665,3.875,53.2,0,0.777,0,0,0,0, ,0,0,0,0,0, ,-38,294.7,965.2,-5.1,-3,-10.2,25,-39.562,290.442,958.472,-3.97186,-0.299805,-1.03674,
2026_07_06_16_35_49.684,3.875,53.2,0,0.777,0,0,0,0, ,0,0,0,0,0, ,-36.1,268.1,976,-7.2,-2.3,-8.9,25,-39.409,289.891,959.211,-4.10459,-0.44302,-1.55552,
2026_07_06_16_35_49.704,3.875,53.2,0,0.776,0,0,0,0, ,0,0,0,0,0, ,-47.8,290.1,962.1,-9.1,-2.8,-9.7,25,-39.5638,289.234,959.81,-4.35111,-0.571414,-2.02745,
2026_07_06_16_35_49.724,3.875,53.2,0,0.776,0,0,0,0, ,0,0,0,0,0, ,-37.2,273.1,960.5,-6.3,-3.3,-10.5,25,-39.7427,288.768,959.901,-4.55518,-0.722453,-2.51937,
2026_07_06_16_35_49.744,3.875,53.2,0,0.776,0,0,0,0, ,0,0,0,0,0, ,-40.5,280.1,954.1,-20.4,-3.2,-10.9,25,-39.6883,288.027,959.743,-5.09112,-0.876476,-3.01787,
2026_07_06_16_35_49.763,3.875,53.1,0,0.776,0,0,0,0, ,0,0,0,0,0, ,-42.4,288.9,968.3,-20.9,-3.3,-12.3,25,-39.7957,287.812,959.831,-6.03924,-1.02111,-3.54085,
2026_07_06_16_35_49.782,3.875,53.1,0,0.777,0,0,0,0, ,0,0,0,0,0, ,-32.2,301.8,951,-8.7,-3.3,-13.3,25,-39.6436,288.271,959.82,-6.5731,-1.15998,-4.10508,
2026_07_06_16_35_49.803,3.875,53,0,0.777,0,0,0,0, ,0,0,0,0,0, ,-33.9,281.3,964.3,-5.4,-3.4,-13.3,25,-39.2418,288.471,959.688,-6.60216,-1.29344,-4.66539,
2026_07_06_16_35_49.822,3.875,53.1,0,0.777,0,0,0,0, ,0,0,0,0,0, ,-40.7,256.4,970.3,-6.2,-3.2,-12.2,25,-39.1235,287.275,960.152,-6.55328,-1.41571,-5.15805,
2026_07_06_16_35_49.847,3.875,53.2,0,0.773,0,0,0,0, ,0,0,0,0,0, ,-40.4,238.5,967.7,-11.5,-3.1,-11.7,25,-39.2104,284.849,960.691,-6.69323,-1.52139,-5.57193,
2026_07_06_16_35_49.862,3.875,53.2,0,0.776,0,0,0,0, ,0,0,0,0,0, ,-34.3,238.4,979.3,-7.7,-3.1,-11.4,25,-39.097,282.021,961.472,-6.87036,-1.61759,-5.93622,
2026_07_06_16_35_49.882,3.875,53.1,0,0.776,0,0,0,0, ,0,0,0,0,0, ,-38.3,222.2,980.2,-5.3,-1.8,-10.2,25,-38.9266,278.869,962.586,-6.84779,-1.66832,-6.23261,
2026_07_06_16_35_49.902,3.875,53.1,0,0.776,0,0,0,0, ,0,0,0,0,0, ,-34.3,206.6,994.6,-19.3,-3.6,-10.3,25,-38.7665,274.941,964.098,-7.18004,-1.73118,-6.47742,
2026_07_06_16_35_49.922,3.875,53.1,0,0.776,0,0,0,0, ,0,0,0,0,0, ,-28.9,192.1,984.1,-15.3,-2,-8.2,25,-38.3298,270.334,965.636,-7.79672,-1.79631,-6.64637,
2026_07_06_16_35_49.941,3.875,53,0,0.777,0,0,0,0, ,0,0,0,0,0, ,-27.4,210.9,967.5,-21.7,-2.5,-7.9,25,-37.7095,266.14,966.256,-8.44895,-1.82396,-6.73191,
2026_07_06_16_35_49.962,3.875,53.1,0,0.776,0,0,0,0, ,0,0,0,0,0, ,-41.7,208.6,990.9,-10.8,-1.5,-6.2,25,-37.517,262.704,967.045,-8.92433,-1.83469,-6.75129,
2026_07_06_16_35_49.982,3.875,53.1,0,0.777,0,0,0,0, ,0,0,0,0,0, ,-36.7,221,982.5,-8.6,-1.9,-5.9,25,-37.6195,259.784,968.242,-8.9716,-1.82648,-6.70855,
2026_07_06_16_35_50.002,3.875,53,0,0.776,0,0,0,0, ,0,0,0,0,0, ,-29.9,209.3,987.9,3.1,-0.8,-5.6,25,-37.3563,257.065,969.276,-8.59247,-1.79745,-6.65014,
2026_07_06_16_35_50.021,3.875,53.1,0,0.777,0,0,0,0, ,0,0,0,0,0, ,-34.6,180.4,987.9,1.1,-1.1,-5,25,-37.0451,253.273,970.411,-7.9409,-1.7458,-6.56787,
2026_07_06_16_35_50.042,3.875,53,0,0.776,0,0,0,0, ,0,0,0,0,0, ,-36.7,215.6,992.5,-4.9,-1.3,-4.7,25,-36.9601,249.905,971.617,-7.57278,-1.71254,-6.46319,
2026_07_06_16_35_50.060,3.875,53.1,0,0.776,0,0,0,0, ,0,0,0,0,0, ,-39.5,198.6,972.7,1.2,0,-4.4,25,-37.0296,247.297,972.286,-7.22405,-1.6478,-6.3466,
2026_07_06_16_35_50.080,3.875,53.1,0,0.778,0,0,0,0, ,0,0,0,0,0, ,-35.1,180.6,980.8,15.1,-1.2,-7.5,25,-37.0461,243.781,972.558,-6.28719,-1.58395,-6.32243,
2026_07_06_16_35_50.099,3.875,53,0,0.777,0,0,0,0, ,0,0,0,0,0, ,-33.9,144.1,978.1,15.9,0.5,2.4,25,-36.8909,238.819,972.978,-4.95953,-1.50875,-6.09255,
2026_07_06_16_35_50.121,3.875,53,0,0.777,0,0,0,0, ,0,0,0,0,0, ,-29.4,119.5,971.3,16.7,0.6,4.7,25,-36.5715,232.297,973.083,-3.66403,-1.3833,-5.50496,
2026_07_06_16_35_50.140,3.875,52.9,0,0.777,0,0,0,0, ,0,0,0,0,0, ,-46.6,143,997.8,2.7,0.1,0,25,-36.6586,226.14,973.782,-2.84966,-1.27767,-5.0263,
2026_07_06_16_35_50.158,3.875,53,0,0.776,0,0,0,0, ,0,0,0,0,0, ,-38.2,199.7,978.5,2.3,-0.3,-0.6,25,-37.0085,222.801,974.657,-2.52367,-1.20591,-4.73829,
2026_07_06_16_35_50.179,3.875,53,0,0.776,0,0,0,0, ,0,0,0,0,0, ,-37.4,219.8,978.1,-0.5,-0.3,-1.2,25,-37.0567,222.006,974.879,-2.31504,-1.15071,-4.50439,
2026_07_06_16_35_50.199,3.875,53,0,0.777,0,0,0,0, ,0,0,0,0,0, ,-37.5,219.9,976.1,0.1,-0.3,-1.1,25,-37.0807,221.874,975.014,-2.18615,-1.09887,-4.29998,
2026_07_06_16_35_50.223,3.875,53,0,0.776,0,0,0,0, ,0,0,0,0,0, ,-37.1,214.7,975.3,-0.3,-0.4,-1.3,25,-37.094,221.595,975.056,-2.05903,-1.05323,-4.11108,
2026_07_06_16_35_50.237,3.875,53,0,0.774,0,0,0,0, ,0,0,0,0,0, ,-38.2,220,975.7,-1.4,-0.5,-1.8,25,-37.1279,221.337,975.083,-1.98535,-1.01647,-3.95501,
2026_07_06_16_35_50.258,3.875,53,0,0.776,0,0,0,0, ,0,0,0,0,0, ,-38.2,222.2,975.9,-0.9,-0.4,-1.4,25,-37.1932,221.322,975.127,-1.93445,-0.981953,-3.8115,
2026_07_06_16_35_50.277,3.875,52.9,0,0.777,0,0,0,0, ,0,0,0,0,0, ,-37.8,220.8,974.8,-1.3,-0.4,-1.6,25,-37.2424,221.333,975.141,-1.8836,-0.94649,-3.67065,
2026_07_06_16_35_50.298,3.875,52.9,0,0.777,0,0,0,0, ,0,0,0,0,0, ,-36.8,225.7,972.4,5.4,-0.4,-2.4,25,-37.2459,221.45,975.047,-1.64389,-0.913188,-3.56884,
2026_07_06_16_35_50.317,3.875,52.9,0,0.777,0,0,0,0, ,0,0,0,0,0, ,-40.4,219.7,979.4,-0.7,-1.1,-3.5,25,-37.3284,221.526,975.099,-1.40052,-0.903244,-3.53113,
2026_07_06_16_35_50.337,3.875,53,0,0.776,0,0,0,0, ,0,0,0,0,0, ,-36.4,222.6,974.6,1.8,-0.2,-0.5,25,-37.3937,221.503,975.215,-1.28166,-0.887812,-3.43783,
2026_07_06_16_35_50.357,3.875,52.9,0,0.777,0,0,0,0, ,0,0,0,0,0, ,-36.4,217.4,974.9,-1.8,-0.5,-1.7,25,-37.3332,221.412,975.186,-1.20356,-0.855039,-3.29537,
2026_07_06_16_35_50.377,3.875,52.9,0,0.776,0,0,0,0, ,0,0,0,0,0, ,76.1,280.7,978,4.6,4.5,20.7,25,-33.8486,223.096,975.263,-1.0449,-0.68106,-2.51565,
2026_07_06_16_35_50.397,3.875,52.8,0,0.776,0,0,0,0, ,0,0,0,0,0, ,-71.8,181.1,985.8,1.5,6.9,24.6,25,-31.6549,223.571,975.668,-0.795369,-0.292214,-0.982117,
2026_07_06_16_35_50.421,3.875,52.9,0,0.776,0,0,0,0, ,0,0,0,0,0, ,-60.7,208.4,980.2,0.6,5.4,23,25,-33.763,221.815,976.114,-0.682917,0.100358,0.528043,
2026_07_06_16_35_50.437,3.875,52.9,0,0.776,0,0,0,0, ,0,0,0,0,0, ,-20.5,284.7,958.9,0.4,2.6,6.7,25,-34.1797,223.322,975.714,-0.610833,0.337992,1.40079,
2026_07_06_16_35_50.456,3.875,52.9,0,0.776,0,0,0,0, ,0,0,0,0,0, ,-76.1,277.3,953,1.8,-1.1,0.2,25,-35.0401,226.837,974.51,-0.506579,0.363099,1.52566,
2026_07_06_16_35_50.476,3.875,52.9,0,0.777,0,0,0,0, ,0,0,0,0,0, ,-71.1,244.6,971,5.3,0.3,2.2,25,-37.3899,228.916,973.748,-0.259381,0.316598,1.50582,
2026_07_06_16_35_50.495,3.875,52.9,0,0.777,0,0,0,0, ,0,0,0,0,0, ,-42.3,240.1,969.7,6.1,-1.2,-4.3,25,-38.5666,229.735,973.541,0.103769,0.269883,1.35007,
2026_07_06_16_35_50.515,3.875,52.9,0,0.776,0,0,0,0, ,0,0,0,0,0, ,-3.9,253.7,970.8,7.5,-0.4,-1.2,25,-37.6241,230.781,973.34,0.51182,0.204687,1.10022,
2026_07_06_16_35_50.535,3.875,52.9,0,0.776,0,0,0,0, ,0,0,0,0,0, ,36.4,263.9,969.8,20.3,0.2,1.6,25,-34.3411,232.488,973.155,1.32766,0.18612,1.04537,
2026_07_06_16_35_50.555,3.875,52.9,0,0.774,0,0,0,0, ,0,0,0,0,0, ,-28.1,260.8,1039.5,15.8,-7.2,1.6,25,-31.9956,234.308,975.074,2.34668,-0.0385026,1.07916,
2026_07_06_16_35_50.574,3.875,52.9,0,0.776,0,0,0,0, ,0,0,0,0,0, ,-52.4,274.7,1034.9,14.4,-11.5,6.2,25,-32.4986,236.346,978.86,3.12383,-0.605922,1.25106,
2026_07_06_16_35_50.594,3.875,52.8,0,0.776,0,0,0,0, ,0,0,0,0,0, ,-23.5,308.8,1125.9,0.1,-33.7,9.8,25,-32.8308,239.722,985.048,3.37527,-1.94619,1.66232,
2026_07_06_16_35_50.617,3.875,52.8,0,0.777,0,0,0,0, ,0,0,0,0,0, ,5.3,312.3,1123.6,-32.2,-64.9,15.6,25,-31.3847,244.038,993.561,2.19155,-4.83181,2.33493,
2026_07_06_16_35_50.635,3.875,52.9,0,0.776,0,0,0,0, ,0,0,0,0,0, ,-42.8,295.7,1094.4,-41,-87.5,26.5,25,-30.6148,247.692,1000.6,-0.172314,-9.18081,3.47538,
2026_07_06_16_35_50.654,3.875,52.9,0,0.774,0,0,0,0, ,0,0,0,0,0, ,32.1,228.8,1192.6,-42.5,-121.7,15.1,25,-29.0752,248.579,1009.3,-2.70595,-14.9954,4.5311,
2026_07_06_16_35_50.673,3.875,52.8,0,0.776,0,0,0,0, ,0,0,0,0,0, ,225.5,274.2,1216.1,-80.5,-158,-12.9,25,-19.4547,248.757,1021.19,-6.28872,-22.6037,4.32202,
2026_07_06_16_35_50.693,3.875,52.8,0,0.777,0,0,0,0, ,0,0,0,0,0, ,337,251.9,1071.6,-118.7,-163.6,-25.4,25,-1.13048,249.628,1028.66,-11.9749,-31.0251,2.89169,
2026_07_06_16_35_50.714,3.875,52.8,0,0.777,0,0,0,0, ,0,0,0,0,0, ,376.9,181.8,876.4,-109.3,-145.2,13.4,25,20.69,247.631,1025.33,-18.192,-38.5432,2.34985,
2026_07_06_16_35_50.733,3.875,52.8,0,0.776,0,0,0,0, ,0,0,0,0,0, ,296.2,106.9,844.9,-83.8,-126.9,66.8,25,39.9378,241.337,1015.3,-22.967,-44.4851,4.65025,
2026_07_06_16_35_50.753,3.875,52.8,0,0.778,0,0,0,0, ,0,0,0,0,0, ,284.9,44,1024,-70.3,-123.4,82.8,25,55.2094,231.228,1010.37,-26.2627,-49.4006,8.925,
2026_07_06_16_35_50.772,3.875,52.7,0,0.778,0,0,0,0, ,0,0,0,0,0, ,262.3,62.3,950.1,-99.3,-117.8,81.1,25,68.5176,220.377,1008.95,-29.8298,-53.7393,13.375,
2026_07_06_16_35_50.792,3.875,52.7,0,0.776,0,0,0,0, ,0,0,0,0,0, ,142.2,-45.6,823.2,-109.2,-97.1,72.7,25,76.6669,207.456,1001.5,-34.3648,-57.0123,17.246,
2026_07_06_16_35_50.816,3.875,52.8,0,0.776,0,0,0,0, ,0,0,0,0,0, ,227.7,-4.1,758.1,-65.6,-70.2,53.9,25,83.2654,193.3,988.648,-37.5966,-58.6355,20.0524,
2026_07_06_16_35_50.832,3.875,52.8,0,0.777,0,0,0,0, ,0,0,0,0,0, ,327,-27,606.6,-62.8,-39.1,35.8,25,95.0925,180.573,969.983,-39.2177,-58.3926,21.5635,
2026_07_06_16_35_50.852,3.875,52.8,0,0.777,0,0,0,0, ,0,0,0,0,0, ,540.2,38.5,447.2,-29.3,2.1,13.8,25,115.72,169.92,942.983,-39.6341,-55.9617,21.7608,
2026_07_06_16_35_50.872,3.875,52.8,0,0.777,0,0,0,0, ,0,0,0,0,0, ,78.8,-353,655.3,101,26.2,25.2,25,127.529,149.983,919.112,-35.0343,-51.6893,21.623,
2026_07_06_16_35_50.892,3.875,52.7,0,0.776,0,0,0,0, ,0,0,0,0,0, ,380.3,-20.2,1228,28.6,-12.8,69.2,25,133.746,129.472,920.485,-28.9506,-48.1312,23.1816,
2026_07_06_16_35_50.911,3.875,52.7,0,0.776,0,0,0,0, ,0,0,0,0,0, ,713.1,-180.7,786.7,0.2,-46.5,152.2,25,158.91,115.462,925.779,-26.3089,-47.005,28.5147,
2026_07_06_16_35_50.931,3.875,52.6,0,0.778,0,0,0,0, ,0,0,0,0,0, ,860.5,102.6,741,84.1,-30.4,181.3,25,197.172,106.046,915.911,-22.1372,-46.4837,36.9385,
2026_07_06_16_35_50.951,3.875,52.6,0,0.777,0,0,0,0, ,0,0,0,0,0, ,278.5,-241.6,468.2,250.1,-17.3,139.6,25,219.861,95.3487,896.941,-10.6056,-45.1044,44.4649,
2026_07_06_16_35_50.971,3.875,52.7,0,0.777,0,0,0,0, ,0,0,0,0,0, ,383.1,138.5,636.7,239.7,-20.8,103.5,25,226.621,86.3971,875.948,4.96429,-43.5167,49.1623,
2026_07_06_16_35_50.989,3.875,52.8,0,0.777,0,0,0,0, ,0,0,0,0,0, ,205.5,99.6,1412.9,242.2,-71,98.8,25,230.745,88.3868,885.019,19.3447,-43.662,52.3303,
2026_07_06_16_35_51.013,3.875,52.6,0,0.777,0,0,0,0, ,0,0,0,0,0, ,450.1,312.2,1562.6,-59.2,-151.5,33.7,25,236.66,95.5478,921.748,23.7416,-47.7806,53.1785,
2026_07_06_16_35_51.030,3.875,52.7,0,0.777,0,0,0,0, ,0,0,0,0,0, ,233.3,83.2,1270.2,-186.3,-63.1,13.3,25,243.061,101.773,951.891,14.8148,-51.4076,51.37,
2026_07_06_16_35_51.049,3.875,52.7,0,0.776,0,0,0,0, ,0,0,0,0,0, ,526.2,-321.4,853.3,-250.1,61.7,9.8,25,251.39,88.3133,958.585,0.615463,-48.3176,48.9435,
2026_07_06_16_35_51.069,3.875,52.7,0,0.777,0,0,0,0, ,0,0,0,0,0, ,749.1,-27.8,981.3,-212.6,138.6,2,25,274.928,72.292,956.069,-13.5199,-39.2703,46.3205,
2026_07_06_16_35_51.088,3.875,52.6,0,0.777,0,0,0,0, ,0,0,0,0,0, ,425.4,-117.7,943.4,-226.5,250.1,-112.5,25,293.96,63.4535,956.452,-26.0749,-25.0341,40.1311,
2026_07_06_16_35_51.109,3.875,52.8,0,0.776,0,0,0,0, ,0,0,0,0,0, ,313.9,-584.1,892.4,-89.3,250.1,-248.7,25,298.572,38.2038,954.103,-34.108,-8.26811,26.6803,
2026_07_06_16_35_51.129,3.875,52.5,0,0.776,0,0,0,0, ,0,0,0,0,0, ,30,-94.1,671.9,-81.6,250.1,-196.5,25,290.856,15.2119,943.624,-37.2366,7.4762,11.4897,
2026_07_06_16_35_51.149,3.875,52.7,0,0.776,0,0,0,0, ,0,0,0,0,0, ,381.1,-111,757.9,-70.1,209.4,-3.1,25,285.658,8.03577,929.687,-39.5896,21.021,4.70803,
2026_07_06_16_35_51.169,3.875,52.7,0,0.776,0,0,0,0, ,0,0,0,0,0, ,106,-222.5,927.2,-31.9,79.2,-5,25,283.092,-2.61524,924.377,-40.285,28.5333,4.17434,
2026_07_06_16_35_51.188,3.875,52.6,0,0.776,0,0,0,0, ,0,0,0,0,0, ,26.1,26.3,1075,-23.2,-1.2,49.8,25,269.866,-8.43384,929.052,-39.5089,29.1711,5.28496,
2026_07_06_16_35_51.214,3.875,52.6,0,0.777,0,0,0,0, ,0,0,0,0,0, ,41.5,-578.9,915.7,-30.1,-28.5,70.8,25,255.481,-24.7569,933.092,-38.7253,26.4886,8.63744,
2026_07_06_16_35_51.228,3.875,52.5,0,0.776,0,0,0,0, ,0,0,0,0,0, ,195.9,-270.2,956.1,-46.1,-40.1,78.5,25,247.146,-49.1193,933.263,-38.6872,22.7843,12.6601,
2026_07_06_16_35_51.249,3.875,52.5,0,0.776,0,0,0,0, ,0,0,0,0,0, ,246.2,-335.5,993.8,-81.6,-46.9,94.1,25,245.555,-64.581,935.803,-40.2206,18.7451,17.1475,
2026_07_06_16_35_51.267,3.875,52.5,0,0.776,0,0,0,0, ,0,0,0,0,0, ,185.1,-616.4,1029.4,-86.2,-56.1,160.8,25,243.733,-89.6488,940.422,-42.8823,14.4645,23.8691,
2026_07_06_16_35_51.287,3.875,52.6,0,0.775,0,0,0,0, ,0,0,0,0,0, ,141.3,-502.3,896.9,26.3,-49.2,208.1,25,238.826,-118.271,941.807,-42.0942,10.3747,33.6545,
2026_07_06_16_35_51.307,3.875,52.6,0,0.778,0,0,0,0, ,0,0,0,0,0, ,-214.9,21.8,897.7,250.1,69.6,172.7,25,222.03,-125.704,939.095,-31.1076,10.3641,43.2062,
2026_07_06_16_35_51.326,3.875,52.6,0,0.776,0,0,0,0, ,0,0,0,0,0, ,149.5,-73.6,435.5,-31.5,112.7,51.5,25,206.507,-119.622,922.49,-22.5515,15.287,47.4044,
2026_07_06_16_35_51.346,3.875,52.5,0,0.775,0,0,0,0, ,0,0,0,0,0, ,-298.5,-480.9,818.1,-10.6,197.7,52.9,25,189.383,-129.228,904.471,-22.46,23.8129,47.6966,
2026_07_06_16_35_51.365,3.875,52.6,0,0.775,0,0,0,0, ,0,0,0,0,0, ,-398.5,-535.5,1182,-34.6,69.5,-60.3,25,156.606,-152.322,910.296,-22.4685,30.5031,44.5646,
2026_07_06_16_35_51.385,3.875,52.5,0,0.776,0,0,0,0, ,0,0,0,0,0, ,-307.6,-223.2,1190.1,-43.3,31.8,-56.4,25,125.549,-166.156,927.099,-23.4728,31.7308,38.2933,
2026_07_06_16_35_51.406,3.875,52.5,0,0.776,0,0,0,0, ,0,0,0,0,0, ,-199.9,-216.4,985.5,-48,24.3,-47.5,25,102.435,-169.425,936.892,-24.8243,31.5065,32.7941,
2026_07_06_16_35_51.426,3.875,52.5,0,0.776,0,0,0,0, ,0,0,0,0,0, ,-329.7,-211.5,814.4,-53.1,56.6,-59.4,25,80.0568,-172.138,934.641,-26.3919,32.0515,27.5386,
2026_07_06_16_35_51.445,3.875,52.5,0,0.776,0,0,0,0, ,0,0,0,0,0, ,-756.5,-737,348.3,94.3,55.8,-82.5,25,42.0832,-190.548,913.112,-23.5284,33.523,21.5369,
2026_07_06_16_35_51.466,3.875,52.5,0,0.776,0,0,0,0, ,0,0,0,0,0, ,-57.4,-157.2,713.6,32.5,-22.6,-130.3,25,14.7203,-206.182,889.824,-18.2312,32.4918,13.7408,
2026_07_06_16_35_51.485,3.875,52.5,0,0.776,0,0,0,0, ,0,0,0,0,0, ,-225.2,-179.4,780,39.2,-19.8,-81.2,25,5.21278,-203.873,881.109,-14.9356,29.2199,6.4593,
2026_07_06_16_35_51.505,3.875,52.5,0,0.776,0,0,0,0, ,0,0,0,0,0, ,-257.6,-125.2,737.6,30.6,-63.7,-112,25,-9.81518,-200.731,873.656,-11.8987,24.8952,0.179122,
2026_07_06_16_35_51.524,3.875,52.5,0,0.776,0,0,0,0, ,0,0,0,0,0, ,-431.7,-74.7,787.2,-76.6,-89.4,-157.7,25,-30.2192,-194.589,866.876,-12.5752,18.7134,-8.04921,
2026_07_06_16_35_51.544,3.875,52.5,0,0.776,0,0,0,0, ,0,0,0,0,0, ,-17.5,-141.3,766.4,-16.5,-74.3,-129.6,25,-42.0643,-189.313,861.387,-14.6456,12.5853,-16.3124,
2026_07_06_16_35_51.564,3.875,52.5,0,0.777,0,0,0,0, ,0,0,0,0,0, ,319.5,-272.5,703.2,46.1,-51.6,-133.9,25,-30.2994,-190.384,853.673,-12.8512,7.98238,-23.3469,
2026_07_06_16_35_51.585,3.875,52.4,0,0.776,0,0,0,0, ,0,0,0,0,0, ,569,-291.6,814.4,25.9,-55.3,-94.4,25,-1.38155,-195.97,847.892,-9.87435,4.23884,-28.8802,
2026_07_06_16_35_51.604,3.875,52.5,0,0.775,0,0,0,0, ,0,0,0,0,0, ,307.3,-168.4,911.7,83.8,-114.1,-70.8,25,25.4024,-198.044,848.815,-5.93021,-1.18087,-32.1537,
2026_07_06_16_35_51.628,3.875,52.4,0,0.778,0,0,0,0, ,0,0,0,0,0, ,231.9,-507.8,1562.6,43.2,-110.9,-71.3,25,40.2832,-206.579,872.48,-1.6993,-7.96438,-34.524,
2026_07_06_16_35_51.644,3.875,52.4,0,0.775,0,0,0,0, ,0,0,0,0,0, ,512.5,-6.5,1109.3,32.7,39.8,7.7,25,60.5094,-209.66,900.722,0.716825,-9.64537,-34.358,
2026_07_06_16_35_51.662,3.875,52.5,0,0.775,0,0,0,0, ,0,0,0,0,0, ,313.3,-83.6,949.2,35.3,63.6,-33.3,25,81.9832,-199.629,908.554,2.74502,-5.90714,-33.0443,
2026_07_06_16_35_51.683,3.875,52.5,0,0.773,0,0,0,0, ,0,0,0,0,0, ,309.2,-126.4,960.6,38.9,49.4,-17.9,25,95.9541,-193.863,911.379,4.83852,-2.10421,-32.5907,
2026_07_06_16_35_51.702,3.875,52.4,0,0.776,0,0,0,0, ,0,0,0,0,0, ,222.9,-204.1,911.1,51.1,22.8,-21.7,25,106.319,-192.119,912.87,7.28586,0.223862,-31.8112,
2026_07_06_16_35_51.723,3.875,52.4,0,0.775,0,0,0,0, ,0,0,0,0,0, ,210.6,-195.1,1165.5,93,9.4,-8.3,25,113.049,-192.575,920.513,11.2324,1.19131,-30.7868,
2026_07_06_16_35_51.742,3.875,52.5,0,0.776,0,0,0,0, ,0,0,0,0,0, ,319.3,-60,1332.6,66.2,18.1,20.8,25,122.305,-188.613,940.533,15.3986,1.95661,-28.5299,
2026_07_06_16_35_51.761,3.875,52.5,0,0.776,0,0,0,0, ,0,0,0,0,0, ,265.6,1.7,1212.2,2.5,20.3,22.3,25,132.673,-178.895,960.757,16.5534,3.00738,-25.4781,
2026_07_06_16_35_51.781,3.875,52.4,0,0.776,0,0,0,0, ,0,0,0,0,0, ,79.4,-149.6,1015.1,-8.3,34,24.6,25,135.1,-172.5,970.073,15.368,4.47857,-22.4966,
2026_07_06_16_35_51.801,3.875,52.4,0,0.775,0,0,0,0, ,0,0,0,0,0, ,-5.9,-128.1,914.9,-2.7,45.1,18.5,25,129.107,-170.45,969.764,14.0963,6.61573,-19.8125,
2026_07_06_16_35_51.821,3.875,52.5,0,0.775,0,0,0,0, ,0,0,0,0,0, ,-137.8,-255.2,943.2,10,30.6,28.4,25,116.861,-171.742,967.283,13.4598,8.51907,-17.1762,
2026_07_06_16_35_51.841,3.875,52.4,0,0.776,0,0,0,0, ,0,0,0,0,0, ,-69.4,-95.4,1035.8,22.9,4.9,37.8,25,103.427,-171.959,968.637,13.642,9.08158,-14.1125,
2026_07_06_16_35_51.861,3.875,52.4,0,0.778,0,0,0,0, ,0,0,0,0,0, ,-41.5,-103,1068.3,6.4,-15.7,17.1,25,93.7454,-167.525,973.72,13.7034,8.19911,-11.5798,
2026_07_06_16_35_51.880,3.875,52.4,0,0.776,0,0,0,0, ,0,0,0,0,0, ,-59.3,-141.8,994.5,3.5,-11,9.3,25,84.9615,-164.775,977.235,13.17,6.88596,-10.0697,
2026_07_06_16_35_51.901,3.875,52.4,0,0.775,0,0,0,0, ,0,0,0,0,0, ,-47.1,-127.5,994.9,2.9,-15.8,-2.9,25,76.5423,-162.939,978.299,12.5625,5.64979,-9.26111,
2026_07_06_16_35_51.920,3.875,52.4,0,0.775,0,0,0,0, ,0,0,0,0,0, ,74.5,-192.1,1023.1,-5.3,-15,0.9,25,72.7128,-162.748,980.17,11.7238,4.36706,-8.7577,
2026_07_06_16_35_51.940,3.875,52.5,0,0.776,0,0,0,0, ,0,0,0,0,0, ,51.8,-159.1,966.9,-1.9,-11.9,1.9,25,72.1301,-163.531,981.074,10.79,3.28134,-8.13872,
2026_07_06_16_35_51.960,3.875,52.4,0,0.775,0,0,0,0, ,0,0,0,0,0, ,93.2,-165,998.9,-1.3,-12,4.4,25,72.1526,-163.441,981.185,10.035,2.35318,-7.45081,
2026_07_06_16_35_51.981,3.875,52.4,0,0.775,0,0,0,0, ,0,0,0,0,0, ,70.6,-131.7,990.8,-1.4,-13.7,1.5,25,72.7466,-162.521,982.018,9.34122,1.42673,-6.81701,
2026_07_06_16_35_52.000,3.875,52.4,0,0.776,0,0,0,0, ,0,0,0,0,0, ,81,-132.8,991.2,-1.5,-11.1,-1.5,25,72.9327,-160.677,982.565,8.68363,0.584168,-6.4016,
2026_07_06_16_35_52.019,3.875,52.4,0,0.776,0,0,0,0, ,0,0,0,0,0, ,87.6,-139.8,987,1.9,-0.5,-3.7,25,73.6254,-159.191,982.963,8.16666,0.195133,-6.16994,
2026_07_06_16_35_52.039,3.875,52.4,0,0.775,0,0,0,0, ,0,0,0,0,0, ,133.4,-110.7,1002.9,1.7,4,-2.7,25,75.8724,-157.123,983.694,7.77869,0.289882,-5.98896,
2026_07_06_16_35_52.066,3.875,52.4,0,0.777,0,0,0,0, ,0,0,0,0,0, ,116.9,-120.7,993,-0.6,9.2,-0.6,25,78.8753,-154.599,984.563,7.33819,0.674405,-5.72455,
2026_07_06_16_35_52.079,3.875,52.3,0,0.776,0,0,0,0, ,0,0,0,0,0, ,75.9,-121.5,992.9,-0.9,8.7,1.4,25,79.9432,-152.557,985.074,6.84532,1.1787,-5.35134,
2026_07_06_16_35_52.097,3.875,52.3,0,0.777,0,0,0,0, ,0,0,0,0,0, ,47.3,-124.1,999.7,-0.6,7,1.8,25,78.8254,-150.744,985.758,6.38248,1.58523,-4.92774,
2026_07_06_16_35_52.118,3.875,52.3,0,0.776,0,0,0,0, ,0,0,0,0,0, ,34.4,-125,997.3,-0.7,6.6,0.4,25,76.5113,-149.148,986.534,5.95394,1.90301,-4.56043,
2026_07_06_16_35_52.138,3.875,52.4,0,0.773,0,0,0,0, ,0,0,0,0,0, ,38.3,-127.5,984.7,-0.9,5.9,-0.1,25,74.0639,-147.752,986.806,5.54237,2.1679,-4.27338,
2026_07_06_16_35_52.157,3.875,52.3,0,0.775,0,0,0,0, ,0,0,0,0,0, ,35.6,-127.5,984.2,-0.1,1.8,-0.4,25,71.8023,-146.518,986.663,5.17416,2.2704,-4.02821,
2026_07_06_16_35_52.178,3.875,52.3,0,0.776,0,0,0,0, ,0,0,0,0,0, ,40.6,-125,996.2,-0.6,-2.6,-0.7,25,69.7486,-145.283,986.878,4.83753,2.10768,-3.81626,
2026_07_06_16_35_52.198,3.875,52.3,0,0.777,0,0,0,0, ,0,0,0,0,0, ,46.7,-127.6,985.4,-1,-2.4,-1.6,25,68.1582,-144.126,987.117,4.494,1.8269,-3.65378,
2026_07_06_16_35_52.217,3.875,52.3,0,0.775,0,0,0,0, ,0,0,0,0,0, ,52.6,-126.7,986.6,0,-0.5,-2.6,25,67.0304,-143.092,987.049,4.18968,1.62721,-3.5591,
2026_07_06_16_35_52.236,3.875,52.3,0,0.775,0,0,0,0, ,0,0,0,0,0, ,55.9,-124.1,995.3,0,0,-2.3,25,66.2516,-142.014,987.287,3.93437,1.51282,-3.49151,
2026_07_06_16_35_52.257,3.875,52.3,0,0.775,0,0,0,0, ,0,0,0,0,0, ,45.5,-123.1,989,-0.1,-0.1,-3.9,25,65.3039,-140.892,987.583,3.69157,1.41758,-3.46765,
2026_07_06_16_35_52.276,3.875,52.3,0,0.773,0,0,0,0, ,0,0,0,0,0, ,53.2,-126.2,982.7,0,0.4,-4.4,25,64.3317,-139.902,987.478,3.46357,1.34034,-3.50923,
2026_07_06_16_35_52.296,3.875,52.1,0,0.775,0,0,0,0, ,0,0,0,0,0, ,59.9,-127.1,989.8,0.5,0.7,-3.1,25,63.8575,-139.094,987.403,3.26774,1.29218,-3.52391,
2026_07_06_16_35_52.316,3.875,52.1,0,0.775,0,0,0,0, ,0,0,0,0,0, ,63.5,-126,994.1,0.4,0.8,-2.4,25,63.726,-138.33,987.68,3.09603,1.25914,-3.47675,
2026_07_06_16_35_52.336,3.875,52.3,0,0.775,0,0,0,0, ,0,0,0,0,0, ,43.2,-126.5,991.2,-0.3,0.3,-1.7,25,63.0937,-137.594,987.983,2.91042,1.21593,-3.3898,
2026_07_06_16_35_52.354,3.875,52.3,0,0.773,0,0,0,0, ,0,0,0,0,0, ,40.2,-124.1,997.4,-0.3,-0.7,-1.8,25,61.7901,-136.845,988.368,2.71478,1.12964,-3.28988,
2026_07_06_16_35_52.376,3.875,52.3,0,0.775,0,0,0,0, ,0,0,0,0,0, ,50.2,-124.1,993.4,-1,-1,-2.5,25,60.7791,-136.068,988.796,2.50974,1.00901,-3.22042,
2026_07_06_16_35_52.397,3.875,52.3,0,0.776,0,0,0,0, ,0,0,0,0,0, ,66.6,-124.2,982.6,-0.8,-0.8,-1.7,25,60.6341,-135.342,988.748,2.30196,0.892679,-3.15214,
2026_07_06_16_35_52.415,3.875,52.3,0,0.777,0,0,0,0, ,0,0,0,0,0, ,64.2,-122.9,988.6,-0.1,-0.6,-0.7,25,60.9245,-134.623,988.556,2.13426,0.795625,-3.03318,
2026_07_06_16_35_52.434,3.875,52.1,0,0.775,0,0,0,0, ,0,0,0,0,0, ,52.8,-122.9,993.4,-0.7,-1.3,-0.1,25,60.7768,-133.909,988.705,1.97983,0.689251,-2.87272,
2026_07_06_16_35_52.453,3.875,52,0,0.775,0,0,0,0, ,0,0,0,0,0, ,48.8,-124,990.8,-0.3,-0.3,-0.3,25,60.1688,-133.272,988.912,1.82872,0.5985,-2.70985,
2026_07_06_16_35_52.476,3.875,52.1,0,0.775,0,0,0,0, ,0,0,0,0,0, ,50.5,-122,999.8,-0.4,-0.7,-0.8,25,59.5278,-132.646,989.301,1.69595,0.53156,-2.57824,
2026_07_06_16_35_52.496,3.875,52.1,0,0.775,0,0,0,0, ,0,0,0,0,0, ,47.8,-121.7,1000.4,-1,-2.6,-0.9,25,58.8954,-131.988,989.959,1.54995,0.398621,-2.47292,
2026_07_06_16_35_52.513,3.875,52.1,0,0.776,0,0,0,0, ,0,0,0,0,0, ,48,-125.3,981.2,-0.6,-2.7,-0.8,25,58.2254,-131.471,990.01,1.40675,0.212846,-2.37403,
2026_07_06_16_35_52.533,3.875,52.1,0,0.773,0,0,0,0, ,0,0,0,0,0, ,57.2,-114.9,983.1,0,-1.1,-1.9,25,57.8826,-130.778,989.531,1.30274,0.0840943,-2.31163,
2026_07_06_16_35_52.553,3.875,52.1,0,0.777,0,0,0,0, ,0,0,0,0,0, ,51.7,-113.1,987.9,-1.6,-1.7,-0.3,25,57.6734,-129.755,989.286,1.17461,-0.00634268,-2.23779,
2026_07_06_16_35_52.573,3.875,52,0,0.773,0,0,0,0, ,0,0,0,0,0, ,61.5,-128.2,999,-0.5,-3,-1.5,25,57.608,-129.2,989.539,1.03904,-0.149159,-2.15627,
2026_07_06_16_35_52.593,3.875,52,0,0.775,0,0,0,0, ,0,0,0,0,0, ,52.3,-126.3,987.5,-0.9,-1.7,-0.9,25,57.5649,-129.082,989.766,0.933072,-0.283273,-2.098,
2026_07_06_16_35_52.613,3.875,52.1,0,0.775,0,0,0,0, ,0,0,0,0,0, ,44.6,-129,982,-0.4,-1.4,-0.6,25,57.0094,-128.994,989.46,0.836603,-0.360464,-2.01585,
2026_07_06_16_35_52.634,3.875,52,0,0.777,0,0,0,0, ,0,0,0,0,0, ,51.7,-124,994,-0.1,-1.8,-2.1,25,56.4696,-128.842,989.371,0.770388,-0.435998,-1.97528,
2026_07_06_16_35_52.653,3.875,52.1,0,0.778,0,0,0,0, ,0,0,0,0,0, ,59.2,-125.7,994.2,-1.2,-3.8,-2.2,25,56.4074,-128.599,989.659,0.683834,-0.580055,-1.98593,
2026_07_06_16_35_52.672,3.875,52.1,0,0.775,0,0,0,0, ,0,0,0,0,0, ,53.7,-124.7,992.4,-1.4,-4,-2.1,25,56.41,-128.392,989.881,0.562944,-0.782364,-1.99592,
2026_07_06_16_35_52.693,3.875,52.1,0,0.775,0,0,0,0, ,0,0,0,0,0, ,47.7,-125.4,995.4,-1.4,-3,-2.6,25,56.0621,-128.188,990.126,0.443327,-0.94797,-2.0175,
2026_07_06_16_35_52.717,3.875,51.9,0,0.776,0,0,0,0, ,0,0,0,0,0, ,47.2,-124.2,1008.4,-1.3,-4.3,-3.4,25,55.5373,-127.982,990.843,0.334046,-1.11262,-2.07737,
2026_07_06_16_35_52.731,3.875,52,0,0.776,0,0,0,0, ,0,0,0,0,0, ,72.7,-126.8,993.1,-2.1,-9.3,-4.3,25,55.8062,-127.831,991.447,0.210096,-1.4592,-2.18539,
2026_07_06_16_35_52.750,3.875,52.1,0,0.777,0,0,0,0, ,0,0,0,0,0, ,81.4,-133.5,972.9,-1.8,-8.7,-0.2,25,57.1007,-127.972,990.932,0.0784654,-1.91872,-2.18933,
2026_07_06_16_35_52.771,3.875,52,0,0.775,0,0,0,0, ,0,0,0,0,0, ,90.2,-208.7,989.3,7.2,-3.3,-2.4,25,58.8496,-130.6,990.333,0.238215,-2.16742,-2.13513,
2026_07_06_16_35_52.791,3.875,52,0,0.773,0,0,0,0, ,0,0,0,0,0, ,177.6,-68.1,979.4,-6.4,1.3,2.8,25,63.423,-131.075,989.969,0.248074,-2.09628,-1.99284,
2026_07_06_16_35_52.810,3.875,52,0,0.776,0,0,0,0, ,0,0,0,0,0, ,21.4,-146.3,984.6,6.4,4.8,1,25,65.6214,-129.62,989.483,0.232957,-1.78268,-1.75562,
2026_07_06_16_35_52.831,3.875,52,0,0.776,0,0,0,0, ,0,0,0,0,0, ,27.9,-94.7,1033.5,-1.2,-12.6,0.9,25,63.1247,-129.065,990.675,0.377199,-1.9117,-1.59074,
2026_07_06_16_35_52.850,3.875,52,0,0.775,0,0,0,0, ,0,0,0,0,0, ,126.5,-131.5,975.7,-3.9,-8.3,3,25,63.9824,-128.092,991.524,0.198822,-2.43201,-1.37498,
2026_07_06_16_35_52.870,3.875,52,0,0.776,0,0,0,0, ,0,0,0,0,0, ,97.2,-126.7,1010.8,0.7,-0.4,7.3,25,66.8994,-128.153,991.629,0.0892067,-2.54888,-0.977364,
2026_07_06_16_35_52.890,3.875,51.9,0,0.775,0,0,0,0, ,0,0,0,0,0, ,68.9,-96.3,1011.5,-4.6,-3.3,6.7,25,67.8835,-127.138,992.819,-0.0350574,-2.5063,-0.491243,
2026_07_06_16_35_52.910,3.875,51.9,0,0.776,0,0,0,0, ,0,0,0,0,0, ,73.9,-142.5,956.7,-4.5,-4.9,4.1,25,68.0978,-126.667,992.287,-0.310187,-2.60341,-0.132246,
2026_07_06_16_35_52.929,3.875,52,0,0.776,0,0,0,0, ,0,0,0,0,0, ,175.9,-176.7,963.6,3.6,-7.4,7.9,25,71.5592,-128.674,990.329,-0.318707,-2.81953,0.241438,
2026_07_06_16_35_52.949,3.875,52,0,0.775,0,0,0,0, ,0,0,0,0,0, ,216.3,-140.5,1013.7,9.3,-9.5,10.7,25,79.1484,-130.497,990.227,0.0937614,-3.16264,0.793444,
2026_07_06_16_35_52.968,3.875,52,0,0.777,0,0,0,0, ,0,0,0,0,0, ,117,-196.1,954.7,51.4,-17.4,-4,25,84.4805,-132.801,989.859,1.9375,-3.78952,0.949234,
2026_07_06_16_35_52.989,3.875,51.9,0,0.775,0,0,0,0, ,0,0,0,0,0, ,59.8,-39.3,1086.7,25.2,-64.1,9.2,25,84.7194,-131.881,991.739,4.15334,-6.0418,1.04983,
2026_07_06_16_35_53.009,3.875,51.9,0,0.776,0,0,0,0, ,0,0,0,0,0, ,168.5,-69.5,1185,3.5,-105.5,6.9,25,86.5128,-127.159,1000.52,4.7747,-10.8411,1.4764,
2026_07_06_16_35_53.028,3.875,51.9,0,0.776,0,0,0,0, ,0,0,0,0,0, ,292.3,-92.2,1178.1,5.5,-113.1,1.3,25,95.2809,-124.337,1011.55,4.75796,-16.841,1.63628,
2026_07_06_16_35_53.048,3.875,51.9,0,0.775,0,0,0,0, ,0,0,0,0,0, ,314.5,-52.7,1168,2.5,-141.5,8.3,25,107.963,-121.175,1021.39,4.71177,-23.5721,1.82907,
2026_07_06_16_35_53.067,3.875,51.9,0,0.775,0,0,0,0, ,0,0,0,0,0, ,282.8,-49.1,1137,-11.9,-194.6,12.9,25,119.583,-116.893,1029.38,4.13824,-32.3762,2.36354,
2026_07_06_16_35_53.088,3.875,51.9,0,0.775,0,0,0,0, ,0,0,0,0,0, ,310.5,-53.2,1098.7,-24.2,-250.1,-1.3,25,130.373,-112.887,1034.77,2.78615,-43.9527,2.57295,
2026_07_06_16_35_53.109,3.875,51.9,0,0.775,0,0,0,0, ,0,0,0,0,0, ,471.9,-74.8,1040.7,-40.7,-250.1,-1.7,25,146.267,-109.908,1036.9,0.638944,-56.5148,2.32476,
2026_07_06_16_35_53.127,3.875,52,0,0.775,0,0,0,0, ,0,0,0,0,0, ,617,-130.3,931.8,-46.4,-250.1,25,25,170.532,-109.459,1033.82,-2.05382,-68.3114,2.89301,
2026_07_06_16_35_53.152,3.875,51.9,0,0.776,0,0,0,0, ,0,0,0,0,0, ,551.8,-110.9,811.8,-41.1,-250.1,35,25,195.752,-110.138,1023.94,-4.59468,-79.3892,4.54485,
2026_07_06_16_35_53.167,3.875,51.9,0,0.775,0,0,0,0, ,0,0,0,0,0, ,505.8,-105.4,770.6,-32.9,-250.1,30.1,25,216.047,-110.017,1009.76,-6.56938,-89.7918,6.25141,
2026_07_06_16_35_53.186,3.875,51.9,0,0.775,0,0,0,0, ,0,0,0,0,0, ,479.2,-116.3,668.5,-24.5,-250.1,18.8,25,232.893,-110.068,992.075,-7.91796,-99.5606,7.36039,
2026_07_06_16_35_53.206,3.875,51.9,0,0.775,0,0,0,0, ,0,0,0,0,0, ,512.8,-122.6,556.7,-45.5,-250.1,16.5,25,248.926,-110.64,968.951,-9.56828,-108.734,7.98741,
2026_07_06_16_35_53.226,3.875,51.8,0,0.775,0,0,0,0, ,0,0,0,0,0, ,629.7,-168.7,451.2,-42.3,-250.1,9.8,25,268.568,-112.773,940.615,-11.6604,-117.349,8.30201,
2026_07_06_16_35_53.246,3.875,51.9,0,0.775,0,0,0,0, ,0,0,0,0,0, ,748.1,-224.7,411,-19.5,-232.4,4.5,25,294.182,-117.887,909.566,-12.8328,-124.899,8.2318,
2026_07_06_16_35_53.266,3.875,51.8,0,0.775,0,0,0,0, ,0,0,0,0,0, ,724.9,-223.6,336,-12.8,-201.4,-5.5,25,321.136,-124.363,876.9,-13.0349,-130.505,7.69971,
2026_07_06_16_35_53.286,3.875,51.9,0,0.777,0,0,0,0, ,0,0,0,0,0, ,706.6,-212.8,271.4,3.2,-208.2,-2.9,25,345.182,-130.081,841.97,-12.5331,-135.033,6.97457,
2026_07_06_16_35_53.305,3.875,51.8,0,0.773,0,0,0,0, ,0,0,0,0,0, ,717.1,-183.1,186.4,21.7,-211.9,1.1,25,367.526,-134.217,804.611,-11.0107,-139.604,6.49472,
2026_07_06_16_35_53.325,3.875,51.9,0,0.775,0,0,0,0, ,0,0,0,0,0, ,820,-192.3,72.1,13.9,-191.1,2.5,25,391.964,-137.476,763.457,-9.25505,-143.376,6.20863,
2026_07_06_16_35_53.345,3.875,51.8,0,0.775,0,0,0,0, ,0,0,0,0,0, ,888,-208.4,39.5,-18.5,-152.6,3.5,25,420.119,-141.307,720.334,-8.83122,-145.111,6.01311,
2026_07_06_16_35_53.370,3.875,51.8,0,0.775,0,0,0,0, ,0,0,0,0,0, ,910,-238.8,10.6,-20,-107,-4.6,25,449.301,-146.322,677.965,-9.46612,-144.178,5.61317,
2026_07_06_16_35_53.386,3.875,51.8,0,0.774,0,0,0,0, ,0,0,0,0,0, ,918.7,-254.3,25.7,-2.1,-68.6,-30.7,25,477.64,-152.43,637.757,-9.56264,-140.742,4.19557,
2026_07_06_16_35_53.403,3.875,51.8,0,0.775,0,0,0,0, ,0,0,0,0,0, ,895.6,-209.4,49.1,-1.8,-54.9,-45.6,25,503.813,-157.269,601.173,-9.09874,-135.929,1.61513,
2026_07_06_16_35_53.424,3.875,51.8,0,0.775,0,0,0,0, ,0,0,0,0,0, ,925.5,-182.7,-24.4,-4.2,-52.2,-44,25,528.598,-159.632,565.292,-8.7271,-130.909,-1.21329,
2026_07_06_16_35_53.444,3.875,51.8,0,0.775,0,0,0,0, ,0,0,0,0,0, ,971.3,-186.6,-49.8,1.3,-52.2,-50.4,25,554.18,-161.157,528.584,-8.28365,-126.112,-4.0156,
2026_07_06_16_35_53.464,3.875,51.8,0,0.775,0,0,0,0, ,0,0,0,0,0, ,1029.4,-196.6,-36.4,-7.1,-45.7,-37.5,25,581.369,-163.012,493.747,-7.95558,-121.41,-6.4491,
2026_07_06_16_35_53.482,3.875,51.8,0,0.775,0,0,0,0, ,0,0,0,0,0, ,1053.4,-183.9,-31.4,-16.3,-22.8,-18.9,25,609.402,-164.672,461.593,-8.18376,-116.099,-7.77455,
2026_07_06_16_35_53.503,3.875,51.8,0,0.775,0,0,0,0, ,0,0,0,0,0, ,1064.4,-167.8,-59.6,-12.9,-7.9,-11.8,25,636.793,-165.353,430.692,-8.57475,-109.96,-8.23618,
2026_07_06_16_35_53.523,3.875,51.8,0,0.775,0,0,0,0, ,0,0,0,0,0, ,1002.8,-139,-37.3,-11.6,-5,-8.6,25,660.973,-164.625,401.494,-8.79871,-103.652,-8.35585,
2026_07_06_16_35_53.542,3.875,51.8,0,0.773,0,0,0,0, ,0,0,0,0,0, ,979.8,-125.1,-61.4,-3.7,39.4,-25.5,25,681.103,-162.64,374.021,-8.72871,-96.2876,-8.88565,
2026_07_06_16_35_53.562,3.875,51.8,0,0.773,0,0,0,0, ,0,0,0,0,0, ,1019.5,-124.7,-43.4,-16.3,2.3,-14.6,25,700.514,-160.34,348.036,-8.80618,-89.1495,-9.56598,
2026_07_06_16_35_53.583,3.875,51.8,0,0.776,0,0,0,0, ,0,0,0,0,0, ,1041.7,-117.9,-97.5,-13.2,3.9,-15,25,720.629,-157.961,322.535,-9.16838,-83.5281,-9.88492,
2026_07_06_16_35_53.604,3.875,51.8,0,0.775,0,0,0,0, ,0,0,0,0,0, ,1052.3,-127.1,-85.5,-4.8,1.2,-13.7,25,740.517,-155.8,297.304,-9.15812,-78.2827,-10.157,
2026_07_06_16_35_53.623,3.875,51.6,0,0.775,0,0,0,0, ,0,0,0,0,0, ,1035.6,-123.6,-32.1,-5.4,1.5,-7.5,25,759.008,-153.944,275.604,-8.91083,-73.4301,-10.184,
2026_07_06_16_35_53.642,3.875,51.8,0,0.776,0,0,0,0, ,0,0,0,0,0, ,985.9,-99.8,-22.2,-8.2,1.4,-3.1,25,774.348,-151.37,257.155,-8.7822,-68.8671,-9.88639,
2026_07_06_16_35_53.661,3.875,51.7,0,0.773,0,0,0,0, ,0,0,0,0,0, ,958.7,-91.5,-25.7,-10.1,3.6,-4.2,25,786.411,-147.975,240.025,-8.80461,-64.5181,-9.50636,
2026_07_06_16_35_53.681,3.875,51.6,0,0.773,0,0,0,0, ,0,0,0,0,0, ,954.1,-87.8,-23.8,-11.7,7,-8.5,25,796.769,-144.421,223.891,-8.9323,-60.2636,-9.31402,
2026_07_06_16_35_53.701,3.875,51.8,0,0.776,0,0,0,0, ,0,0,0,0,0, ,975.9,-101.4,-25.8,-11.4,9.5,-12.1,25,807.021,-141.385,208.736,-9.09182,-56.0885,-9.3741,
2026_07_06_16_35_53.720,3.875,51.7,0,0.776,0,0,0,0, ,0,0,0,0,0, ,1011.2,-99.4,-47.8,-11.4,13.7,-11.4,25,818.388,-138.887,193.774,-9.23247,-51.9638,-9.51888,
2026_07_06_16_35_53.742,3.875,51.7,0,0.776,0,0,0,0, ,0,0,0,0,0, ,1010.2,-93.7,-49.3,-5.6,19.9,-6.9,25,830.107,-136.307,179.007,-9.18784,-47.7735,-9.49641,
2026_07_06_16_35_53.762,3.875,51.7,0,0.775,0,0,0,0, ,0,0,0,0,0, ,978.8,-80.2,-51.8,5.1,20.5,-7.7,25,840.124,-133.3,165.018,-8.64319,-43.6313,-9.36256,
2026_07_06_16_35_53.780,3.875,51.7,0,0.776,0,0,0,0, ,0,0,0,0,0, ,973.9,-70,-29.1,9.2,13.9,-10.4,25,848.426,-129.753,152.498,-7.68079,-39.9244,-9.34352,
2026_07_06_16_35_53.799,3.875,51.7,0,0.775,0,0,0,0, ,0,0,0,0,0, ,1001,-80,-28.9,14.4,4.2,-11.3,25,856.897,-126.416,141.438,-6.49368,-36.9401,-9.43532,
2026_07_06_16_35_53.820,3.875,51.7,0,0.774,0,0,0,0, ,0,0,0,0,0, ,1012.5,-86.4,-22.2,13.5,-0.1,-9,25,866.029,-123.783,131.262,-5.24789,-34.5641,-9.47887,
2026_07_06_16_35_53.839,3.875,51.7,0,0.775,0,0,0,0, ,0,0,0,0,0, ,1010.2,-80.9,-14.6,9.3,0.5,-7,25,874.885,-121.337,122.142,-4.23341,-32.4457,-9.38875,
2026_07_06_16_35_53.859,3.875,51.7,0,0.775,0,0,0,0, ,0,0,0,0,0, ,1007.6,-70.6,-13.9,6.5,0.2,-5.8,25,883.051,-118.559,113.83,-3.49403,-30.4472,-9.20662,
2026_07_06_16_35_53.879,3.875,51.7,0,0.776,0,0,0,0, ,0,0,0,0,0, ,1000.8,-71.2,-10.6,1.2,0,-5.7,25,890.434,-115.655,106.147,-3.04651,-28.5857,-8.99598,
2026_07_06_16_35_53.899,3.875,51.6,0,0.775,0,0,0,0, ,0,0,0,0,0, ,991.8,-77.6,-30.8,2.4,-0.3,-8.3,25,896.885,-113.141,98.4177,-2.75117,-26.8529,-8.87435,
2026_07_06_16_35_53.917,3.875,51.7,0,0.775,0,0,0,0, ,0,0,0,0,0, ,989.5,-85.5,-14.1,5.1,2.4,-9,25,902.599,-111.216,91.0523,-2.35501,-25.1526,-8.86068,
2026_07_06_16_35_53.939,3.875,51.6,0,0.775,0,0,0,0, ,0,0,0,0,0, ,993.5,-83.2,-4.8,2.6,2.5,-7.9,25,908.016,-109.579,84.9279,-1.97689,-23.4705,-8.83566,
2026_07_06_16_35_53.957,3.875,51.5,0,0.774,0,0,0,0, ,0,0,0,0,0, ,1000.9,-77.6,-16.4,1,2.9,-4.1,25,913.451,-107.801,79.1067,-1.74673,-21.8758,-8.66286,
2026_07_06_16_35_53.978,3.875,51.7,0,0.775,0,0,0,0, ,0,0,0,0,0, ,987.3,-79.9,-25.2,2,2.8,-3.4,25,918.365,-106.031,73.0186,-1.54889,-20.3691,-8.36348,
2026_07_06_16_35_53.999,3.875,51.6,0,0.776,0,0,0,0, ,0,0,0,0,0, ,977.6,-69,-22.7,-0.3,1.1,-3.5,25,922.27,-104.106,67.1096,-1.4027,-19.009,-8.06407,
2026_07_06_16_35_54.018,3.875,51.6,0,0.775,0,0,0,0, ,0,0,0,0,0, ,980.1,-75.5,-10.6,-2.3,-1.8,-2.2,25,925.718,-102.165,62.0055,-1.39645,-17.872,-7.74633,
2026_07_06_16_35_54.037,3.875,51.6,0,0.774,0,0,0,0, ,0,0,0,0,0, ,993.6,-67.6,-11.4,-0.5,-3.2,-2.4,25,929.443,-100.299,57.5567,-1.39666,-16.9352,-7.41445,
2026_07_06_16_35_54.057,3.875,51.6,0,0.773,0,0,0,0, ,0,0,0,0,0, ,994,-65.1,-6.3,0,-1.5,-1.2,25,933.365,-98.2305,53.5101,-1.32679,-16.0464,-7.07232,
2026_07_06_16_35_54.077,3.875,51.7,0,0.775,0,0,0,0, ,0,0,0,0,0, ,974.3,-61.4,-4.3,-0.5,-0.5,-2.8,25,936.46,-96.0989,49.9263,-1.26117,-15.1295,-6.76322,
2026_07_06_16_35_54.096,3.875,51.6,0,0.776,0,0,0,0, ,0,0,0,0,0, ,970,-64,11.5,-1.4,-1,-5.9,25,938.635,-94.0636,47.1033,-1.24221,-14.2533,-6.61617,
2026_07_06_16_35_54.117,3.875,51.6,0,0.775,0,0,0,0, ,0,0,0,0,0, ,984.4,-56.2,-1.5,-1.3,-2,-7.6,25,940.985,-91.994,44.5377,-1.24878,-13.4761,-6.62432,
2026_07_06_16_35_54.136,3.875,51.6,0,0.775,0,0,0,0, ,0,0,0,0,0, ,1009.3,-63.3,-16.6,-1.1,-2.4,-3.3,25,944.389,-90.0291,41.2722,-1.24581,-12.789,-6.55276,
2026_07_06_16_35_54.157,3.875,51.4,0,0.775,0,0,0,0, ,0,0,0,0,0, ,1017.8,-73.1,-33.5,-1.6,-1.2,-2.6,25,948.604,-88.6989,37.2307,-1.25215,-12.1194,-6.33322,
2026_07_06_16_35_54.176,3.875,51.6,0,0.775,0,0,0,0, ,0,0,0,0,0, ,982.4,-66.1,-14.5,0,-1,-1.3,25,951.742,-87.5351,33.4994,-1.2246,-11.4479,-6.06612,
2026_07_06_16_35_54.195,3.875,51.6,0,0.775,0,0,0,0, ,0,0,0,0,0, ,973.1,-59.2,-3.5,-0.3,-5.2,-3,25,953.327,-86.0186,30.9096,-1.15912,-10.9392,-5.82748,
2026_07_06_16_35_54.215,3.875,51.6,0,0.776,0,0,0,0, ,0,0,0,0,0, ,989.9,-57.4,-16.3,-1,-3.1,-4.6,25,955.043,-84.3295,28.4228,-1.12809,-10.5255,-5.70393,
2026_07_06_16_35_54.235,3.875,51.6,0,0.776,0,0,0,0, ,0,0,0,0,0, ,995.3,-66.8,-13.7,-3,-0.3,-2.2,25,957.332,-82.9749,25.7767,-1.18123,-9.98765,-5.56353,
2026_07_06_16_35_54.256,3.875,51.5,0,0.775,0,0,0,0, ,0,0,0,0,0, ,989.1,-68.8,-14.5,-3.4,0.9,-2.8,25,959.457,-82.0502,23.3467,-1.30424,-9.36075,-5.37685,
2026_07_06_16_35_54.274,3.875,51.4,0,0.776,0,0,0,0, ,0,0,0,0,0, ,978.8,-60.4,-25.5,-3.3,-0.6,-2.9,25,960.949,-80.9868,20.7053,-1.42891,-8.78119,-5.22287,
2026_07_06_16_35_54.295,3.875,51.5,0,0.775,0,0,0,0, ,0,0,0,0,0, ,986.8,-51.2,-34,-0.7,-2.8,-3.9,25,962.281,-79.452,17.6306,-1.46371,-8.34968,-5.11179,
2026_07_06_16_35_54.314,3.875,51.5,0,0.776,0,0,0,0, ,0,0,0,0,0, ,1003.5,-63.2,-25.1,0.3,-3.3,-3,25,964.284,-78.096,14.7556,-1.3867,-8.02673,-5.01052,
2026_07_06_16_35_54.334,3.875,51.6,0,0.775,0,0,0,0, ,0,0,0,0,0, ,994,-60,-14.7,0,-1.8,-2,25,966.384,-77.0908,12.6438,-1.29306,-7.69299,-4.85754,
2026_07_06_16_35_54.354,3.875,51.5,0,0.775,0,0,0,0, ,0,0,0,0,0, ,978,-52.8,-10,-0.6,-1.4,-1.6,25,967.579,-75.8299,11.1207,-1.23254,-7.3217,-4.67122,
2026_07_06_16_35_54.374,3.875,51.5,0,0.775,0,0,0,0, ,0,0,0,0,0, ,984.1,-63.9,-26.7,1.8,-1.6,-1.7,25,968.4,-74.7648,9.32483,-1.12087,-6.96694,-4.48711,
2026_07_06_16_35_54.393,3.875,51.6,0,0.776,0,0,0,0, ,0,0,0,0,0, ,992,-59.3,-31,3.2,-4.3,-0.7,25,969.598,-73.9625,6.99855,-0.900227,-6.72216,-4.28681,
2026_07_06_16_35_54.413,3.875,51.5,0,0.776,0,0,0,0, ,0,0,0,0,0, ,1005.4,-70.8,-35,3.1,-6.3,0.4,25,971.371,-73.4194,4.56114,-0.653416,-6.63549,-4.03472,
2026_07_06_16_35_54.432,3.875,51.5,0,0.775,0,0,0,0, ,0,0,0,0,0, ,982.6,-55,-43.5,5.4,-1.9,-2.1,25,972.75,-72.7784,1.8914,-0.354614,-6.48099,-3.84065,
2026_07_06_16_35_54.452,3.875,51.4,0,0.775,0,0,0,0, ,0,0,0,0,0, ,986.6,-50.4,-14.8,4.5,-2.3,-4.2,25,973.472,-71.5549,-0.000188344,-0.0313641,-6.21402,-3.79856,
2026_07_06_16_35_54.473,3.875,51.5,0,0.776,0,0,0,0, ,0,0,0,0,0, ,1013.7,-60.4,-16.3,2,-2.6,-3.4,25,975.098,-70.5704,-0.947755,0.168594,-5.98465,-3.79865,
2026_07_06_16_35_54.492,3.875,51.4,0,0.777,0,0,0,0, ,0,0,0,0,0, ,1008.1,-59,-19.6,1.4,0.7,-1.5,25,977.28,-69.908,-1.98383,0.261914,-5.67785,-3.71647,
2026_07_06_16_35_54.512,3.875,51.5,0,0.775,0,0,0,0, ,0,0,0,0,0, ,998,-61.8,-19.4,0.7,0.9,-0.7,25,978.85,-69.3286,-3.05122,0.309938,-5.28311,-3.55703,
2026_07_06_16_35_54.532,3.875,51.5,0,0.776,0,0,0,0, ,0,0,0,0,0, ,994,-67.8,-2.3,0.8,-0.9,-2.5,25,979.895,-69.0527,-3.52646,0.336754,-4.96117,-3.43777,
2026_07_06_16_35_54.552,3.875,51.4,0,0.775,0,0,0,0, ,0,0,0,0,0, ,994.3,-55.2,-18,0.8,-1.2,-1.3,25,980.764,-68.5924,-3.93008,0.364983,-4.72283,-3.34406,
2026_07_06_16_35_54.571,3.875,51.4,0,0.776,0,0,0,0, ,0,0,0,0,0, ,995.2,-57.7,-18.3,0.8,-1.5,-0.3,25,981.616,-67.8525,-4.79661,0.391492,-4.5173,-3.18903,
2026_07_06_16_35_54.591,3.875,51.4,0,0.774,0,0,0,0, ,0,0,0,0,0, ,981.4,-60.5,-27.5,1.3,-0.3,-1.4,25,982.023,-67.3191,-5.89978,0.43162,-4.29687,-3.0465,
2026_07_06_16_35_54.610,3.875,51.4,0,0.776,0,0,0,0, ,0,0,0,0,0, ,974.4,-59.6,-13.6,1.4,2.7,-2.8,25,981.772,-66.8762,-6.79253,0.487584,-3.9619,-2.98882,
2026_07_06_16_35_54.631,3.875,51.3,0,0.775,0,0,0,0, ,0,0,0,0,0, ,980.4,-59.4,3.5,1.3,2.5,-3.8,25,981.506,-66.4267,-6.68634,0.540137,-3.56204,-3.00778,
2026_07_06_16_35_54.651,3.875,51.4,0,0.775,0,0,0,0, ,0,0,0,0,0, ,982.7,-57,9.5,-0.5,-0.2,-2.5,25,981.508,-65.9254,-5.8828,0.531598,-3.2749,-3.01645,
2026_07_06_16_35_54.671,3.875,51.3,0,0.773,0,0,0,0, ,0,0,0,0,0, ,991.6,-64.5,3.4,0,-0.1,-4.5,25,981.852,-65.61,-5.13127,0.483969,-3.08448,-3.04592,
2026_07_06_16_35_54.690,3.875,51.4,0,0.775,0,0,0,0, ,0,0,0,0,0, ,1021.1,-50.6,17.2,1.4,-2,-3.2,25,983.345,-65.1188,-4.19093,0.497133,-2.9605,-3.09492,
2026_07_06_16_35_54.710,3.875,51.5,0,0.772,0,0,0,0, ,0,0,0,0,0, ,1097.2,-94.3,73.7,12.8,-26.3,11.4,25,987.964,-65.5656,-1.16593,0.899496,-3.64236,-2.65648,
2026_07_06_16_35_54.730,3.875,51.4,0,0.774,0,0,0,0, ,0,0,0,0,0, ,1068.2,-85.4,78.7,32.9,-107.9,33.8,25,993.737,-67.0454,3.54855,2.2371,-7.50931,-1.11741,
2026_07_06_16_35_54.750,3.875,51.4,0,0.776,0,0,0,0, ,0,0,0,0,0, ,987.7,-46.6,-8.1,-6.9,-200.3,62.6,25,995.822,-66.9817,5.4834,2.89297,-16.4422,1.88787,
2026_07_06_16_35_54.775,3.875,51.3,0,0.776,0,0,0,0, ,0,0,0,0,0, ,933.8,-117.1,-164.6,-23.6,-250.1,88.4,25,993.685,-67.8877,-0.112693,1.78738,-29.1634,6.37361,
2026_07_06_16_35_54.789,3.875,51.4,0,0.776,0,0,0,0, ,0,0,0,0,0, ,870.7,-142.4,-303.1,-37,-250.1,90,25,988.113,-71.6575,-14.3561,-0.167943,-42.6267,11.4208,
2026_07_06_16_35_54.808,3.875,51.4,0,0.776,0,0,0,0, ,0,0,0,0,0, ,811.5,-167.8,-412.1,-57.8,-250.1,90,25,979.154,-76.7423,-35.2725,-3.04615,-55.2696,16.2093,
2026_07_06_16_35_54.828,3.875,51.4,0,0.776,0,0,0,0, ,0,0,0,0,0, ,824.7,-183.3,-447.2,-41.3,-250.1,81.1,25,969.34,-82.7634,-59.3049,-5.87997,-67.1421,20.4347,
2026_07_06_16_35_54.849,3.875,51.4,0,0.775,0,0,0,0, ,0,0,0,0,0, ,813.2,-208.9,-598.2,-47,-250.1,82.9,25,960.176,-89.6698,-87.543,-8.21205,-78.2911,24.1863,
2026_07_06_16_35_54.868,3.875,51.4,0,0.776,0,0,0,0, ,0,0,0,0,0, ,616.9,-192.2,-614.2,-52.5,-250.1,80.4,25,945.238,-96.4266,-119.149,-10.7433,-88.7607,27.688,
2026_07_06_16_35_54.888,3.875,51.4,0,0.776,0,0,0,0, ,0,0,0,0,0, ,510.2,-184.3,-670.5,-54.4,-242.2,56.9,25,921.979,-102.022,-151.031,-13.3457,-98.3516,30.1842,
2026_07_06_16_35_54.907,3.875,51.2,0,0.776,0,0,0,0, ,0,0,0,0,0, ,519.1,-213,-646.9,-37.5,-175.6,37.8,25,897.158,-107.91,-181.967,-15.3325,-105.088,31.2302,
2026_07_06_16_35_54.928,3.875,51.4,0,0.775,0,0,0,0, ,0,0,0,0,0, ,325,-166.1,-723.6,-11.8,-151.8,-16.5,25,868.206,-112.885,-212.636,-15.9003,-108.66,29.9761,
2026_07_06_16_35_54.947,3.875,51.3,0,0.776,0,0,0,0, ,0,0,0,0,0, ,359.3,-210.9,-763.9,-27.9,-153.3,-10.7,25,836.149,-117.493,-245.001,-16.141,-111.334,27.3207,
2026_07_06_16_35_54.967,3.875,51.3,0,0.775,0,0,0,0, ,0,0,0,0,0, ,285.4,-187,-830.9,-29.2,-142,-3.5,25,804.84,-122.457,-278.663,-16.8972,-113.547,25.2232,
2026_07_06_16_35_54.987,3.875,51.4,0,0.776,0,0,0,0, ,0,0,0,0,0, ,258.4,-146.6,-813.2,-27.9,-154.6,-12.8,25,772.364,-125.159,-311.775,-17.6073,-115.665,23.1895,
2026_07_06_16_35_55.010,3.875,51.3,0,0.776,0,0,0,0, ,0,0,0,0,0, ,305,-145.2,-844.2,-39.5,-151.6,-8.6,25,742.464,-126.423,-343.275,-18.5879,-117.946,21.1243,
2026_07_06_16_35_55.027,3.875,51.3,0,0.775,0,0,0,0, ,0,0,0,0,0, ,282.3,-147.2,-958.8,-47.6,-117.9,6.5,25,715.114,-127.628,-377.292,-20.109,-118.97,19.7731,
2026_07_06_16_35_55.046,3.875,51.3,0,0.775,0,0,0,0, ,0,0,0,0,0, ,182.8,-121.2,-1028.4,-45.4,-84.9,9.2,25,685.708,-128.029,-414.848,-21.7172,-117.9,19.0465,
2026_07_06_16_35_55.066,3.875,51.3,0,0.776,0,0,0,0, ,0,0,0,0,0, ,156.3,-114.6,-1069.9,-35.2,-75.2,-0.3,25,654.255,-127.411,-453.501,-22.8496,-115.593,18.1571,
2026_07_06_16_35_55.085,3.875,51.3,0,0.775,0,0,0,0, ,0,0,0,0,0, ,209.8,-123.1,-1045.8,-24.8,-69.6,-4.4,25,625.541,-126.89,-490.329,-23.2854,-112.961,16.9074,
2026_07_06_16_35_55.106,3.875,51.2,0,0.776,0,0,0,0, ,0,0,0,0,0, ,227.5,-125.3,-994.9,-20.9,-44.8,2.7,25,600.746,-126.726,-522.627,-23.2588,-109.563,15.8253,
2026_07_06_16_35_55.127,3.875,51.2,0,0.775,0,0,0,0, ,0,0,0,0,0, ,206.1,-107.7,-966.9,-16.2,-33.5,11.3,25,577.349,-126.103,-550.553,-22.9719,-105.272,15.2875,
2026_07_06_16_35_55.146,3.875,51.3,0,0.773,0,0,0,0, ,0,0,0,0,0, ,183.9,-97.4,-1024.1,-16.7,-35.5,16.5,25,554.05,-124.667,-577.667,-22.5745,-100.96,15.203,
2026_07_06_16_35_55.166,3.875,51.2,0,0.774,0,0,0,0, ,0,0,0,0,0, ,174.8,-101.1,-1048.4,-14.3,-33.6,19.7,25,531.216,-123.118,-605.612,-22.1434,-96.9128,15.3795,
2026_07_06_16_35_55.184,3.875,51.2,0,0.775,0,0,0,0, ,0,0,0,0,0, ,87.7,-92,-1072.2,-10.6,-26,24.5,25,506.843,-121.499,-633.319,-21.5527,-92.8231,15.789,
2026_07_06_16_35_55.206,3.875,51.2,0,0.773,0,0,0,0, ,0,0,0,0,0, ,33.5,-83.7,-1028.3,-7.9,-13.1,14.5,25,479.65,-119.449,-658.726,-20.803,-88.358,16.0152,
2026_07_06_16_35_55.224,3.875,51.2,0,0.773,0,0,0,0, ,0,0,0,0,0, ,89.1,-74.3,-997.1,-13.7,-7,4.8,25,454.157,-116.984,-680.296,-20.1934,-83.5861,15.6273,
2026_07_06_16_35_55.244,3.875,51.2,0,0.775,0,0,0,0, ,0,0,0,0,0, ,126.4,-77.1,-1056.1,-19.2,5.2,2.9,25,433.048,-114.468,-701.399,-19.9653,-78.5474,14.9096,
2026_07_06_16_35_55.263,3.875,51.3,0,0.775,0,0,0,0, ,0,0,0,0,0, ,121,-83.9,-1082.3,-18.7,15.4,5.8,25,414.197,-112.398,-723.812,-19.9034,-73.1333,14.2661,
2026_07_06_16_35_55.283,3.875,51.1,0,0.775,0,0,0,0, ,0,0,0,0,0, ,72,-73.4,-1076.6,-16.9,15.2,3,25,394.837,-110.342,-745.484,-19.7753,-67.7444,13.6649,
2026_07_06_16_35_55.303,3.875,51.2,0,0.775,0,0,0,0, ,0,0,0,0,0, ,103.5,-74.5,-1067,-15.1,2.3,0.5,25,376.124,-108.124,-765.369,-19.5452,-63.083,12.9389,
2026_07_06_16_35_55.323,3.875,51.2,0,0.775,0,0,0,0, ,0,0,0,0,0, ,114,-64.4,-1060.1,-10.1,-10.7,4.1,25,359.831,-105.768,-783.539,-19.122,-59.4948,12.2906,
2026_07_06_16_35_55.343,3.875,51.2,0,0.776,0,0,0,0, ,0,0,0,0,0, ,110.4,-53.5,-1027.3,-7,-10.3,5.6,25,344.741,-102.915,-799.393,-18.4777,-56.5092,11.8371,
2026_07_06_16_35_55.364,3.875,51.2,0,0.774,0,0,0,0, ,0,0,0,0,0, ,90.8,-48.8,-1003.7,-7.8,0.4,4.4,25,329.864,-99.7602,-812.562,-17.8027,-53.3673,11.4205,
2026_07_06_16_35_55.382,3.875,51.2,0,0.775,0,0,0,0, ,0,0,0,0,0, ,102.4,-55.9,-1002.1,-7.6,7.3,3.4,25,315.649,-96.8711,-824.16,-17.1871,-49.8806,10.9622,
2026_07_06_16_35_55.402,3.875,51.1,0,0.774,0,0,0,0, ,0,0,0,0,0, ,118.8,-60.4,-1033.3,-3.5,6.2,4.8,25,303.154,-94.5115,-835.954,-16.4779,-46.4297,10.5441,
2026_07_06_16_35_55.422,3.875,51.2,0,0.775,0,0,0,0, ,0,0,0,0,0, ,79.8,-49.9,-1033.4,1.5,6.3,5.2,25,290.732,-92.1129,-847.983,-15.5347,-43.2195,10.2062,
2026_07_06_16_35_55.442,3.875,51.2,0,0.773,0,0,0,0, ,0,0,0,0,0, ,79.2,-47.1,-1002.1,2.1,5.1,1.1,25,277.86,-89.4553,-858.328,-14.4784,-40.2385,9.77623,
2026_07_06_16_35_55.461,3.875,51.1,0,0.775,0,0,0,0, ,0,0,0,0,0, ,82.3,-85.3,-970.8,1.7,5.9,-0.2,25,265.848,-88.0382,-866.136,-13.4803,-37.4513,9.20791,
2026_07_06_16_35_55.482,3.875,51.2,0,0.776,0,0,0,0, ,0,0,0,0,0, ,96.9,-21.6,-986.2,-1.3,7.9,-3.6,25,255.108,-85.9305,-872.983,-12.6467,-34.7487,8.53102,
2026_07_06_16_35_55.502,3.875,51.1,0,0.775,0,0,0,0, ,0,0,0,0,0, ,115.1,-41.9,-982.5,-4.9,0.3,-5.3,25,246.022,-82.6288,-879.769,-12.065,-32.3813,7.73999,
2026_07_06_16_35_55.527,3.875,51.1,0,0.776,0,0,0,0, ,0,0,0,0,0, ,105.9,-50.1,-1023.5,-2.8,0.4,-4.1,25,237.764,-80.3968,-887.279,-11.5644,-30.3868,6.98193,
2026_07_06_16_35_55.541,3.875,51.1,0,0.775,0,0,0,0, ,0,0,0,0,0, ,124.7,-52.6,-1014.8,1,6.4,-6.1,25,230.301,-78.6267,-895.315,-10.9145,-28.3279,6.24569,
2026_07_06_16_35_55.561,3.875,51.2,0,0.775,0,0,0,0, ,0,0,0,0,0, ,123.6,-52.4,-987.5,1.8,8.1,-6.6,25,223.832,-77.0346,-901.764,-10.1641,-26.1598,5.47814,
2026_07_06_16_35_55.580,3.875,51,0,0.775,0,0,0,0, ,0,0,0,0,0, ,146.6,-59.5,-974.4,0.8,9.6,-7.9,25,218.425,-75.7498,-906.589,-9.46549,-24.0264,4.70252,
2026_07_06_16_35_55.600,3.875,51.1,0,0.776,0,0,0,0, ,0,0,0,0,0, ,149.1,-55.9,-971.4,-2.3,10.5,-5.1,25,214.125,-74.6499,-910.63,-8.93439,-21.9499,4.01986,
2026_07_06_16_35_55.619,3.875,51.1,0,0.776,0,0,0,0, ,0,0,0,0,0, ,148,-52.6,-994.6,-2.8,4.8,-4.9,25,210.129,-73.4068,-915.04,-8.54534,-20.1462,3.47022,
2026_07_06_16_35_55.640,3.875,51,0,0.774,0,0,0,0, ,0,0,0,0,0, ,164.4,-60.9,-1003.5,-1.4,-0.7,-5.1,25,206.842,-72.3917,-920.159,-8.15258,-18.7936,2.95406,
2026_07_06_16_35_55.659,3.875,51.1,0,0.775,0,0,0,0, ,0,0,0,0,0, ,177.7,-66.4,-985.1,0.6,0.6,-2.8,25,204.661,-71.859,-924.677,-7.68015,-17.6514,2.53335,
2026_07_06_16_35_55.679,3.875,51,0,0.775,0,0,0,0, ,0,0,0,0,0, ,190,-58.4,-998.9,2.7,10.3,-1.1,25,203.393,-71.2826,-928.78,-7.1116,-16.2437,2.26014,
2026_07_06_16_35_55.699,3.875,51,0,0.776,0,0,0,0, ,0,0,0,0,0, ,168.3,-52.3,-996.2,5.7,25.8,0.6,25,201.916,-70.3117,-932.971,-6.4223,-14.1539,2.10718,
2026_07_06_16_35_55.718,3.875,51.1,0,0.773,0,0,0,0, ,0,0,0,0,0, ,154.9,-42.4,-958.4,2.1,27.3,-0.7,25,199.459,-68.9125,-935.672,-5.79328,-11.6735,1.97573,
2026_07_06_16_35_55.738,3.875,51,0,0.774,0,0,0,0, ,0,0,0,0,0, ,211.7,-44.4,-1037.5,-1.6,21.5,-0.1,25,198.474,-67.3578,-939.467,-5.42502,-9.47526,1.83096,
2026_07_06_16_35_55.759,3.875,51.1,0,0.774,0,0,0,0, ,0,0,0,0,0, ,279.4,-35,-1137.9,4.9,32.6,11.5,25,201.343,-65.6724,-948.5,-4.99389,-7.2495,2.06673,
2026_07_06_16_35_55.778,3.875,51,0,0.775,0,0,0,0, ,0,0,0,0,0, ,357,2.8,-1296.7,14.1,61.9,12.2,25,208.464,-62.6516,-964.88,-4.11066,-3.92844,2.66289,
2026_07_06_16_35_55.799,3.875,51.1,0,0.775,0,0,0,0, ,0,0,0,0,0, ,382.4,-99.9,-1279.2,29.5,109.6,15.3,25,218.289,-61.7923,-984.567,-2.53173,1.53634,3.33852,
2026_07_06_16_35_55.818,3.875,51.1,0,0.774,0,0,0,0, ,0,0,0,0,0, ,372.6,-102.1,-1305.6,43.1,137.7,8.2,25,227.991,-64.1815,-1003.33,-0.165425,8.97764,3.85109,
2026_07_06_16_35_55.837,3.875,51.1,0,0.775,0,0,0,0, ,0,0,0,0,0, ,413,-130.6,-1240.7,60.3,184,8.5,25,238.034,-67.3605,-1019.77,2.99512,18.2324,4.12524,
2026_07_06_16_35_55.857,3.875,51,0,0.775,0,0,0,0, ,0,0,0,0,0, ,461.3,-147.3,-1090.6,79.1,204.4,3.4,25,250.168,-71.723,-1028.66,7.05995,28.9554,4.23644,
2026_07_06_16_35_55.878,3.875,51,0,0.775,0,0,0,0, ,0,0,0,0,0, ,413.4,-128.4,-965.8,70.2,214.7,10.3,25,261.574,-75.7526,-1028.63,11.1787,39.9604,4.3957,
2026_07_06_16_35_55.896,3.875,51,0,0.775,0,0,0,0, ,0,0,0,0,0, ,460.3,-144.1,-906.1,71.8,237.6,-2.1,25,272.255,-79.4392,-1022.98,14.8241,51.3063,4.37768,
2026_07_06_16_35_55.917,3.875,51,0,0.775,0,0,0,0, ,0,0,0,0,0, ,547.1,-152.8,-810.6,73.2,250.1,-5.4,25,286.359,-83.6445,-1012.95,18.3387,63.0394,3.8824,
2026_07_06_16_35_55.935,3.875,51,0,0.774,0,0,0,0, ,0,0,0,0,0, ,532.1,-158.8,-698.9,66.7,250.1,-0.4,25,301.791,-88.0415,-997.216,21.4838,74.4384,3.4691,
2026_07_06_16_35_55.956,3.875,51,0,0.774,0,0,0,0, ,0,0,0,0,0, ,486.2,-150,-616,63.9,250.1,-20.7,25,314.427,-92.0852,-976.511,24.1538,85.1428,2.61481,
2026_07_06_16_35_55.975,3.875,51,0,0.773,0,0,0,0, ,0,0,0,0,0, ,537.9,-163.8,-501.7,45.5,250.1,-35.2,25,326.469,-96.0349,-951.06,26.0152,95.1949,0.752268,
2026_07_06_16_35_55.996,3.875,51,0,0.773,0,0,0,0, ,0,0,0,0,0, ,615.7,-182.1,-382,27.8,244.3,-37.7,25,341.724,-100.722,-920.03,26.6633,104.458,-1.51475,
2026_07_06_16_35_56.016,3.875,51,0,0.775,0,0,0,0, ,0,0,0,0,0, ,692.6,-203.8,-353.3,14.8,207.7,-34.1,25,360.762,-106.342,-886.369,26.3365,111.864,-3.6101,
2026_07_06_16_35_56.037,3.875,51,0,0.775,0,0,0,0, ,0,0,0,0,0, ,713.5,-210.4,-369,17.1,189.4,-34.2,25,381.62,-112.482,-854.364,25.7035,117.147,-5.47112,
2026_07_06_16_35_56.055,3.875,50.9,0,0.775,0,0,0,0, ,0,0,0,0,0, ,723.7,-206.6,-314.4,14.9,181.4,-36.6,25,402.155,-118.333,-823.123,25.1122,121.306,-7.29491,
2026_07_06_16_35_56.075,3.875,51,0,0.775,0,0,0,0, ,0,0,0,0,0, ,736.2,-193.1,-242.1,11.8,178.9,-41,25,422.13,-123.301,-789.92,24.3955,124.892,-9.21475,
2026_07_06_16_35_56.094,3.875,50.9,0,0.775,0,0,0,0, ,0,0,0,0,0, ,744.2,-186,-173.2,16.7,181.1,-53,25,441.513,-127.338,-754.438,23.7772,128.25,-11.5173,
2026_07_06_16_35_56.115,3.875,50.9,0,0.774,0,0,0,0, ,0,0,0,0,0, ,766.7,-153.5,-115.7,25.1,162.6,-67.6,25,460.643,-129.922,-717.267,23.6019,130.907,-14.49,
2026_07_06_16_35_56.135,3.875,50.9,0,0.775,0,0,0,0, ,0,0,0,0,0, ,845,-125.2,-80.8,16.4,123.4,-69.6,25,481.679,-130.497,-679.546,23.4281,131.644,-17.7873,
2026_07_06_16_35_56.155,3.875,50.9,0,0.774,0,0,0,0, ,0,0,0,0,0, ,927.1,-99.2,-33.6,5.2,82.9,-60.8,25,506.32,-129.382,-641.621,22.6586,129.907,-20.6765,
2026_07_06_16_35_56.174,3.875,50.9,0,0.775,0,0,0,0, ,0,0,0,0,0, ,971.3,-79.1,11.5,0.2,48,-49.9,25,533.308,-126.93,-603.196,21.4424,125.979,-22.7894,
2026_07_06_16_35_56.194,3.875,51,0,0.776,0,0,0,0, ,0,0,0,0,0, ,1006.7,-78.8,10.4,-2.9,23,-41.8,25,561.077,-124.006,-565.771,20.0534,120.466,-24.1947,
2026_07_06_16_35_56.213,3.875,51,0,0.774,0,0,0,0, ,0,0,0,0,0, ,1037.4,-93.2,17.7,-1.6,9.6,-31.6,25,589.168,-121.69,-530.439,18.6943,114.118,-24.9567,
2026_07_06_16_35_56.233,3.875,50.9,0,0.774,0,0,0,0, ,0,0,0,0,0, ,1048,-83.8,15.6,2.2,3.7,-20,25,616.805,-119.668,-497.1,17.5734,107.569,-25.0081,
2026_07_06_16_35_56.252,3.875,50.9,0,0.774,0,0,0,0, ,0,0,0,0,0, ,1040.8,-63.7,32.3,3.9,-2.7,-12.4,25,642.861,-116.87,-465.349,16.6884,101.045,-24.4714,
2026_07_06_16_35_56.274,3.875,50.9,0,0.775,0,0,0,0, ,0,0,0,0,0, ,1030.1,-61.5,45.5,2.5,-6.1,-6.8,25,666.785,-113.563,-434.621,15.8665,94.6193,-23.5652,
2026_07_06_16_35_56.292,3.875,50.9,0,0.775,0,0,0,0, ,0,0,0,0,0, ,991.2,-52.9,42.7,3.5,-5.2,-7.1,25,687.739,-110.128,-405.449,15.0824,88.5091,-22.5527,
2026_07_06_16_35_56.313,3.875,50.9,0,0.774,0,0,0,0, ,0,0,0,0,0, ,968.6,-37.2,37.2,5.7,-6.7,-12.2,25,705.543,-106.162,-378.308,14.4436,82.753,-21.7664,
2026_07_06_16_35_56.332,3.875,50.8,0,0.776,0,0,0,0, ,0,0,0,0,0, ,988.4,-32.9,34.5,4.3,-8.2,-12.1,25,722.176,-101.829,-353.07,13.8682,77.2563,-21.1804,
2026_07_06_16_35_56.353,3.875,50.8,0,0.775,0,0,0,0, ,0,0,0,0,0, ,1004.1,-31.3,51.6,0.7,-9.4,-9.7,25,738.877,-97.5798,-328.931,13.1754,72.0122,-20.5539,
2026_07_06_16_35_56.372,3.875,50.9,0,0.774,0,0,0,0, ,0,0,0,0,0, ,1001.5,-32.8,63.3,-2.2,-9.4,-7.9,25,754.96,-93.5866,-305.386,12.3268,67.0512,-19.8377,
2026_07_06_16_35_56.391,3.875,50.9,0,0.776,0,0,0,0, ,0,0,0,0,0, ,974.3,-25.7,43.5,-4.8,-10,-9.1,25,769.155,-89.666,-283.523,11.3624,62.3741,-19.1468,
2026_07_06_16_35_56.411,3.875,50.8,0,0.776,0,0,0,0, ,0,0,0,0,0, ,966.1,-28.1,26.9,-4.9,-10.7,-14.3,25,781.406,-85.8412,-264.101,10.3744,57.9425,-18.693,
2026_07_06_16_35_56.432,3.875,50.9,0,0.774,0,0,0,0, ,0,0,0,0,0, ,977.5,-18,2.1,-4.7,-9.2,-14.8,25,793.008,-82.0149,-247.123,9.44975,53.8053,-18.4405,
2026_07_06_16_35_56.451,3.875,50.9,0,0.774,0,0,0,0, ,0,0,0,0,0, ,994.5,-5.7,5.7,-9.7,-9,-14.9,25,804.769,-77.7392,-231.827,8.43516,49.972,-18.2217,
2026_07_06_16_35_56.471,3.875,50.9,0,0.774,0,0,0,0, ,0,0,0,0,0, ,1057.2,-21.4,14,-16.8,-6.6,-13.6,25,818.241,-73.8277,-217.099,7.11372,46.4515,-17.9797,
2026_07_06_16_35_56.490,3.875,50.8,0,0.775,0,0,0,0, ,0,0,0,0,0, ,1097.2,-18.4,-20.1,-16,0.3,1.3,25,834.021,-70.5415,-204.056,5.68085,43.4289,-17.2588,
2026_07_06_16_35_56.512,3.875,50.8,0,0.775,0,0,0,0, ,0,0,0,0,0, ,1100.4,-41.7,-34.3,1.8,0,-0.1,25,850.156,-68.074,-193.279,4.90202,40.7916,-16.1706,
2026_07_06_16_35_56.530,3.875,50.8,0,0.774,0,0,0,0, ,0,0,0,0,0, ,1022.8,0.2,-30.8,7.1,8.6,-2.4,25,863.041,-65.1902,-183.484,4.87447,38.5679,-15.2614,
2026_07_06_16_35_56.550,3.875,50.8,0,0.774,0,0,0,0, ,0,0,0,0,0, ,1008.3,-6.1,9,-0.6,11.1,-2.6,25,872.334,-61.3975,-172.967,4.77548,36.8179,-14.4837,
2026_07_06_16_35_56.570,3.875,50.8,0,0.774,0,0,0,0, ,0,0,0,0,0, ,991.3,-7.2,25,-8.4,9.8,-3.7,25,880.102,-58.0613,-161.391,4.21026,35.2111,-13.7931,
2026_07_06_16_35_56.597,3.875,50.8,0,0.774,0,0,0,0, ,0,0,0,0,0, ,974.4,-17.5,26.8,-12.7,5.6,-3.6,25,886.363,-55.2758,-149.978,3.31081,33.5347,-13.175,
2026_07_06_16_35_56.608,3.875,50.8,0,0.775,0,0,0,0, ,0,0,0,0,0, ,969.4,-19.6,23.3,-12.4,0.8,-3.3,25,891.575,-53.0378,-139.312,2.34429,31.6862,-12.5824,
2026_07_06_16_35_56.630,3.875,50.9,0,0.775,0,0,0,0, ,0,0,0,0,0, ,993,-12,7.9,-10.5,-1.9,-2.6,25,897.037,-50.7686,-129.872,1.5037,29.7218,-11.9954,
2026_07_06_16_35_56.648,3.875,50.8,0,0.776,0,0,0,0, ,0,0,0,0,0, ,1003.6,-18,6.7,-5.6,0.6,-0.6,25,903.208,-48.589,-121.514,0.92152,27.871,-11.3619,
2026_07_06_16_35_56.670,3.875,50.8,0,0.775,0,0,0,0, ,0,0,0,0,0, ,986.8,-21.6,14,-2.5,-0.4,-0.8,25,908.813,-46.8346,-113.478,0.618568,26.1787,-10.7122,
2026_07_06_16_35_56.689,3.875,50.8,0,0.775,0,0,0,0, ,0,0,0,0,0, ,989.3,-25.5,4.5,-1.9,-2.3,-2.1,25,913.642,-45.4157,-105.999,0.446811,24.5012,-10.1478,
2026_07_06_16_35_56.709,3.875,50.8,0,0.775,0,0,0,0, ,0,0,0,0,0, ,1000.3,-17,-8,-1.2,-1.9,-2.7,25,918.588,-43.9431,-99.6466,0.325131,22.8802,-9.67566,
2026_07_06_16_35_56.728,3.875,50.8,0,0.774,0,0,0,0, ,0,0,0,0,0, ,998.7,-13.4,-2.3,-1.8,-0.8,-2.8,25,923.518,-42.1916,-93.8882,0.213912,21.4036,-9.25362,
2026_07_06_16_35_56.749,3.875,50.8,0,0.774,0,0,0,0, ,0,0,0,0,0, ,994.7,-12.5,5.4,-3.9,0.5,-2.7,25,927.978,-40.4097,-88.0725,0.0272046,20.0902,-8.85731,
2026_07_06_16_35_56.768,3.875,50.8,0,0.773,0,0,0,0, ,0,0,0,0,0, ,985.9,-9.8,21.3,-5.5,0.7,-2.9,25,931.775,-38.6267,-81.892,-0.260859,18.9025,-8.48819,
2026_07_06_16_35_56.790,3.875,50.8,0,0.773,0,0,0,0, ,0,0,0,0,0, ,980.7,-5.8,22.8,-5.1,-2.9,-4.5,25,934.915,-36.7482,-75.5581,-0.567932,17.6836,-8.19641,
2026_07_06_16_35_56.806,3.875,50.8,0,0.773,0,0,0,0, ,0,0,0,0,0, ,1005.3,4.8,12.8,-1.6,-4.9,-5.7,25,938.455,-34.5393,-69.8691,-0.737464,16.3684,-8.00772,
2026_07_06_16_35_56.828,3.875,50.7,0,0.776,0,0,0,0, ,0,0,0,0,0, ,1024.7,13,41.8,-15.3,-5.8,-4.2,25,943.119,-31.8922,-63.9478,-1.20745,15.0449,-7.82139,
2026_07_06_16_35_56.846,3.875,50.7,0,0.775,0,0,0,0, ,0,0,0,0,0, ,1064.9,-15.3,-58.1,-16.4,5.5,-9.5,25,949.315,-30.0189,-60.5477,-2.09973,14.119,-7.7622,
2026_07_06_16_35_56.868,3.875,50.7,0,0.773,0,0,0,0, ,0,0,0,0,0, ,1025.5,-48,33.9,5,26.5,-20.3,25,955.158,-30.1183,-57.5954,-2.31912,14.2336,-8.19716,
2026_07_06_16_35_56.885,3.875,50.7,0,0.774,0,0,0,0, ,0,0,0,0,0, ,1145.2,-28.9,-5.3,37.4,54.5,-26.6,25,963.092,-30.626,-53.2143,-0.885923,15.8342,-9.12663,
2026_07_06_16_35_56.909,3.875,50.8,0,0.774,0,0,0,0, ,0,0,0,0,0, ,965.5,58.3,65.5,6.2,45.8,-40.7,25,968.714,-27.8639,-48.1373,0.496501,17.9253,-10.621,
2026_07_06_16_35_56.927,3.875,50.8,0,0.774,0,0,0,0, ,0,0,0,0,0, ,1129,25.2,113.5,1.4,43.1,-46.2,25,973.5,-23.6218,-39.75,0.697808,19.5417,-12.6215,
2026_07_06_16_35_56.949,3.875,50.7,0,0.773,0,0,0,0, ,0,0,0,0,0, ,1032.3,64.8,130.2,-7.4,32,-53.2,25,980.029,-19.4402,-29.9025,0.472472,20.639,-14.881,
2026_07_06_16_35_56.965,3.875,50.7,0,0.775,0,0,0,0, ,0,0,0,0,0, ,1021.1,70.3,72.9,-37.5,16.6,-72.6,25,982.873,-14.1392,-21.8921,-0.924366,20.8621,-17.8072,
2026_07_06_16_35_56.986,3.875,50.7,0,0.774,0,0,0,0, ,0,0,0,0,0, ,1046.7,87.4,62,-70,6.1,-78.5,25,985.983,-8.47269,-16.4478,-4.14343,20.2825,-21.3259,
2026_07_06_16_35_57.004,3.875,50.7,0,0.774,0,0,0,0, ,0,0,0,0,0, ,1078.7,23.8,-1.2,-63.9,12.4,-84.1,25,990.658,-4.56826,-13.5931,-7.9707,19.6102,-24.9805,
2026_07_06_16_35_57.027,3.875,50.7,0,0.774,0,0,0,0, ,0,0,0,0,0, ,968,18.3,71,-4.4,12.3,-84.3,25,992.65,-3.00715,-10.638,-9.566,19.1678,-28.5892,
2026_07_06_16_35_57.044,3.875,50.6,0,0.774,0,0,0,0, ,0,0,0,0,0, ,866.8,150.5,121,-7.8,-10.4,-78.9,25,988.064,2.31923,-4.13976,-9.35479,18.0576,-31.8196,
2026_07_06_16_35_57.067,3.875,50.7,0,0.774,0,0,0,0, ,0,0,0,0,0, ,803.2,166.9,99.7,-27,-18,-99.1,25,978.737,11.8487,2.83696,-9.84505,16.0919,-35.304,
2026_07_06_16_35_57.083,3.875,50.7,0,0.775,0,0,0,0, ,0,0,0,0,0, ,752,197,51.2,-29.7,-20.8,-125.8,25,966.48,22.2142,7.26182,-10.9727,13.9291,-40.0051,
2026_07_06_16_35_57.104,3.875,50.7,0,0.773,0,0,0,0, ,0,0,0,0,0, ,770.8,178.4,30.3,-25.6,-22,-139.2,25,953.983,32.2985,9.3025,-11.989,11.7763,-45.6415,
2026_07_06_16_35_57.123,3.875,50.6,0,0.773,0,0,0,0, ,0,0,0,0,0, ,823.8,180.9,15.5,-3.9,-24.1,-150.8,25,944.435,41.2777,10.1311,-12.1572,9.65405,-51.6962,
2026_07_06_16_35_57.146,3.875,50.7,0,0.774,0,0,0,0, ,0,0,0,0,0, ,769.6,313.9,-13,3.3,-35.5,-157.8,25,935.433,53.8383,9.58991,-11.4347,7.24982,-57.9486,
2026_07_06_16_35_57.163,3.875,50.6,0,0.774,0,0,0,0, ,0,0,0,0,0, ,813.2,373.7,-81.5,7,-28.9,-171.2,25,926.656,71.5079,6.12623,-10.424,4.84585,-64.4416,
2026_07_06_16_35_57.192,3.875,50.6,0,0.775,0,0,0,0, ,0,0,0,0,0, ,832.1,431,-21.3,1.9,-23.1,-173.1,25,920.318,91.6685,2.62072,-9.51765,2.96618,-71.005,
2026_07_06_16_35_57.201,3.875,50.6,0,0.773,0,0,0,0, ,0,0,0,0,0, ,791.3,534.1,-0.7,-5.5,-33.6,-164.2,25,913.699,115.488,1.79071,-9.04736,1.05785,-76.9553,
2026_07_06_16_35_57.224,3.875,50.6,0,0.774,0,0,0,0, ,0,0,0,0,0, ,734.2,625,-61.4,-6.5,-15.8,-174.8,25,904.5,143.767,-0.210519,-8.86166,-0.51177,-82.5947,
2026_07_06_16_35_57.241,3.875,50.6,0,0.774,0,0,0,0, ,0,0,0,0,0, ,675,667.4,-32.9,-1,10,-186.6,25,892.319,174.384,-3.07089,-8.55017,-0.657303,-88.573,
2026_07_06_16_35_57.264,3.875,50.6,0,0.774,0,0,0,0, ,0,0,0,0,0, ,629.2,724.3,45.7,-2,-6.8,-189.9,25,877.681,206.161,-2.49376,-8.12055,-0.519749,-94.6471,
2026_07_06_16_35_57.281,3.875,50.7,0,0.775,0,0,0,0, ,0,0,0,0,0, ,631.5,787.5,72.2,-7.4,-12.1,-193,25,862.609,239.66,1.25047,-7.91211,-1.06394,-100.546,
2026_07_06_16_35_57.305,3.875,50.6,0,0.774,0,0,0,0, ,0,0,0,0,0, ,550.7,837.1,56.2,-16.4,-4.5,-190,25,846.064,274.556,5.08645,-8.15512,-1.50488,-106.089,
2026_07_06_16_35_57.321,3.875,50.6,0,0.774,0,0,0,0, ,0,0,0,0,0, ,640.2,909.1,-42.9,-10.5,5.9,-187.5,25,830.792,311.029,5.18173,-8.47778,-1.37052,-111.126,
2026_07_06_16_35_57.342,3.875,50.6,0,0.774,0,0,0,0, ,0,0,0,0,0, ,552.2,902.8,2.1,-0.1,0.1,-167.8,25,816.497,347.282,3.62285,-8.28413,-1.10419,-115.18,
2026_07_06_16_35_57.360,3.875,50.7,0,0.774,0,0,0,0, ,0,0,0,0,0, ,527.8,823.3,-10.8,2.9,5.9,-148.4,25,799.648,378.712,3.137,-7.69401,-0.854095,-117.795,
2026_07_06_16_35_57.383,3.875,50.4,0,0.774,0,0,0,0, ,0,0,0,0,0, ,447.1,885.2,45,11.9,11.6,-132.6,25,780.623,407.69,3.98787,-6.77421,-0.268846,-119.179,
2026_07_06_16_35_57.400,3.875,50.7,0,0.775,0,0,0,0, ,0,0,0,0,0, ,288.2,873.9,86.7,10.2,-9.8,-120.4,25,755.458,436.444,7.75759,-5.68805,-0.197619,-119.625,
2026_07_06_16_35_57.423,3.875,50.6,0,0.774,0,0,0,0, ,0,0,0,0,0, ,332.8,909.4,104,2.2,-21.8,-107.2,25,728.343,464.183,13.0953,-4.96362,-1.14839,-119.27,
2026_07_06_16_35_57.439,3.875,50.6,0,0.774,0,0,0,0, ,0,0,0,0,0, ,242.3,901.9,204.7,-7.2,-7.1,-102.3,25,701.482,491.085,21.703,-4.8135,-1.95896,-118.385,
2026_07_06_16_35_57.461,3.875,50.4,0,0.774,0,0,0,0, ,0,0,0,0,0, ,162.7,908.5,271.6,-27.6,-4.5,-114.6,25,671.075,516.32,34.8927,-5.58049,-2.19302,-117.78,
2026_07_06_16_35_57.479,3.875,50.4,0,0.774,0,0,0,0, ,0,0,0,0,0, ,145.3,1000,167.1,-46.5,-9.6,-112,25,639.566,543.006,46.1331,-7.49816,-2.48899,-117.507,
2026_07_06_16_35_57.502,3.875,50.6,0,0.773,0,0,0,0, ,0,0,0,0,0, ,202,960.9,-26.1,-35.7,0.9,-131.6,25,611.174,569.663,47.6179,-9.54577,-2.6024,-117.768,
2026_07_06_16_35_57.519,3.875,50.6,0,0.776,0,0,0,0, ,0,0,0,0,0, ,299.3,918.7,21.4,-9.8,3.3,-122,25,589.205,592.218,44.573,-10.3504,-2.31584,-118.319,
2026_07_06_16_35_57.542,3.875,50.6,0,0.773,0,0,0,0, ,0,0,0,0,0, ,311.8,940.7,36.9,1.2,-17.4,-92.3,25,571.92,612.784,43.6332,-9.98171,-2.60433,-117.638,
2026_07_06_16_35_57.558,3.875,50.4,0,0.775,0,0,0,0, ,0,0,0,0,0, ,286.2,1003.9,-0.7,13.7,-20.9,-64.9,25,555.289,634.692,42.0772,-8.91946,-3.61258,-115.259,
2026_07_06_16_35_57.581,3.875,50.6,0,0.775,0,0,0,0, ,0,0,0,0,0, ,223.7,1038.3,81.6,23.9,-10.1,-48.4,25,536.987,658.238,41.9781,-7.23031,-4.33697,-111.688,
2026_07_06_16_35_57.598,3.875,50.4,0,0.774,0,0,0,0, ,0,0,0,0,0, ,200.8,1043.7,145.1,14.6,0.6,-47.3,25,517.198,681.563,46.3273,-5.61667,-4.36214,-107.798,
2026_07_06_16_35_57.619,3.875,50.4,0,0.775,0,0,0,0, ,0,0,0,0,0, ,191.5,1044.7,134.6,3.2,0.6,-33.8,25,497.634,703.661,52.0263,-4.73206,-4.05976,-103.7,
2026_07_06_16_35_57.637,3.875,50.4,0,0.774,0,0,0,0, ,0,0,0,0,0, ,123.4,1083.7,87.1,-1.6,-2,-27.2,25,476.904,725.631,55.6109,-4.39495,-3.85503,-99.239,
2026_07_06_16_35_57.660,3.875,50.4,0,0.775,0,0,0,0, ,0,0,0,0,0, ,68.4,1068.1,104.6,-4.1,11.7,-37.2,25,453.687,746.976,58.063,-4.3008,-3.32456,-95.1538,
2026_07_06_16_35_57.677,3.875,50.3,0,0.775,0,0,0,0, ,0,0,0,0,0, ,112.1,1046.6,139.7,-12.6,7.1,-29.3,25,431.54,765.889,61.9683,-4.54755,-2.54916,-91.3816,
2026_07_06_16_35_57.701,3.875,50.4,0,0.773,0,0,0,0, ,0,0,0,0,0, ,167.2,1024.1,88.9,-20.7,-8.2,-9.2,25,413.753,782.31,65.1572,-5.28504,-2.42734,-86.9861,
2026_07_06_16_35_57.716,3.875,50.4,0,0.774,0,0,0,0, ,0,0,0,0,0, ,126,1074.5,41,-16.4,-2.1,-10.9,25,397.473,798.579,65.1446,-6.09338,-2.59325,-82.2978,
2026_07_06_16_35_57.740,3.875,50.4,0,0.773,0,0,0,0, ,0,0,0,0,0, ,68.1,1029.1,40.1,-10.3,13.4,-8.9,25,379.166,814.01,63.6459,-6.53558,-2.09093,-77.886,
2026_07_06_16_35_57.756,3.875,50.4,0,0.774,0,0,0,0, ,0,0,0,0,0, ,12.4,1025.7,52.8,-7.2,14.4,-9.5,25,358.513,827.013,62.598,-6.67052,-1.11648,-73.7005,
2026_07_06_16_35_57.779,3.875,50.4,0,0.773,0,0,0,0, ,0,0,0,0,0, ,3,1028.5,50.5,-3.2,4.1,-11.3,25,337.136,839.206,61.9309,-6.58091,-0.484772,-69.8431,
2026_07_06_16_35_57.796,3.875,50.4,0,0.773,0,0,0,0, ,0,0,0,0,0, ,28.9,1021.8,88,-1,-9.3,-5,25,317.564,850.537,62.3769,-6.30785,-0.613669,-66.0837,
2026_07_06_16_35_57.820,3.875,50.4,0,0.772,0,0,0,0, ,0,0,0,0,0, ,56.8,1013.7,123.4,-3.6,-6.5,-4.3,25,300.823,860.727,65.0169,-6.06362,-1.05768,-62.3401,
2026_07_06_16_35_57.836,3.875,50.3,0,0.774,0,0,0,0, ,0,0,0,0,0, ,17.5,1008.3,94.3,-6.2,0,-2.3,25,284.756,869.884,67.688,-5.99272,-1.19127,-58.7423,
2026_07_06_16_35_57.859,3.875,50.3,0,0.774,0,0,0,0, ,0,0,0,0,0, ,-20,1010.6,80.5,-3.3,0.4,-3.3,25,267.327,878.389,68.8892,-5.91699,-1.10649,-55.3333,
2026_07_06_16_35_57.875,3.875,50.3,0,0.775,0,0,0,0, ,0,0,0,0,0, ,2.3,1021.1,105.9,-5.7,-8.9,-4,25,250.498,886.765,70.3706,-5.83064,-1.29805,-52.1839,
2026_07_06_16_35_57.899,3.875,50.3,0,0.775,0,0,0,0, ,0,0,0,0,0, ,84.9,1006.9,91.6,-9.4,-13.7,-0.2,25,237.89,894.519,72.1,-5.93541,-1.90754,-49.1319,
2026_07_06_16_35_57.914,3.875,50.3,0,0.775,0,0,0,0, ,0,0,0,0,0, ,109.1,991.8,54.3,-8.4,-8,5.7,25,229.304,900.907,72.1518,-6.11607,-2.45248,-45.9703,
2026_07_06_16_35_57.938,3.875,50.3,0,0.774,0,0,0,0, ,0,0,0,0,0, ,39.1,1001.9,70.6,-4.7,-0.8,8.2,25,219.847,906.753,71.5606,-6.14251,-2.57115,-42.7455,
2026_07_06_16_35_57.954,3.875,50.2,0,0.774,0,0,0,0, ,0,0,0,0,0, ,-23,989.8,80,-2.9,-1.3,5.6,25,206.94,912.183,71.7884,-5.99976,-2.47846,-39.7202,
2026_07_06_16_35_57.977,3.875,50.3,0,0.773,0,0,0,0, ,0,0,0,0,0, ,-8.4,979,47.8,-0.5,3.5,-2.4,25,193.373,916.583,71.3077,-5.73775,-2.26039,-37.2023,
2026_07_06_16_35_57.994,3.875,50.3,0,0.774,0,0,0,0, ,0,0,0,0,0, ,48.4,968.1,68.2,0.5,-2.1,0,25,182.808,920.055,70.4968,-5.3881,-2.08,-35.0084,
2026_07_06_16_35_58.020,3.875,50.4,0,0.775,0,0,0,0, ,0,0,0,0,0, ,69.5,981.6,73.7,-2.1,-5.4,3.2,25,175.261,923.394,70.5244,-5.10852,-2.18176,-32.7776,
2026_07_06_16_35_58.034,3.875,50.3,0,0.774,0,0,0,0, ,0,0,0,0,0, ,48.4,1021.3,82,-3.7,0.8,3.9,25,168.173,928.15,70.9708,-4.97393,-2.18897,-30.5639,
2026_07_06_16_35_58.057,3.875,50.3,0,0.774,0,0,0,0, ,0,0,0,0,0, ,54.9,1043.3,102.6,-4,-0.6,8.6,25,161.072,934.497,72.2706,-4.90544,-2.04948,-28.3205,
2026_07_06_16_35_58.073,3.875,50.3,0,0.773,0,0,0,0, ,0,0,0,0,0, ,104.4,1061.2,99.4,-7.9,-11.7,17.6,25,156.111,941.673,74.0213,-4.9691,-2.29936,-25.7965,
2026_07_06_16_35_58.096,3.875,50.3,0,0.773,0,0,0,0, ,0,0,0,0,0, ,192.6,1128.5,102.1,-11.2,-24.1,33.8,25,155.647,951.007,75.65,-5.24825,-3.25002,-22.6584,
2026_07_06_16_35_58.113,3.875,50.3,0,0.774,0,0,0,0, ,0,0,0,0,0, ,227.5,1165.8,139.7,-9.3,-30.3,62.1,25,158.962,962.959,78.4075,-5.55304,-4.70947,-18.3557,
2026_07_06_16_35_58.136,3.875,50.3,0,0.775,0,0,0,0, ,0,0,0,0,0, ,237.4,1156.2,160.5,-24.1,-32.2,81.3,25,163.44,975.027,82.7762,-6.23231,-6.32679,-12.8679,
2026_07_06_16_35_58.154,3.875,50.4,0,0.775,0,0,0,0, ,0,0,0,0,0, ,210.3,1168,157.3,-36.8,-20.6,104.9,25,167.121,986.427,87.415,-7.70807,-7.55,-6.4105,
2026_07_06_16_35_58.177,3.875,50.2,0,0.775,0,0,0,0, ,0,0,0,0,0, ,217.4,1153.3,197.3,-45.1,-9.8,112.7,25,169.969,997.044,92.8924,-9.73375,-8.01617,0.610139,
2026_07_06_16_35_58.191,3.875,50.3,0,0.775,0,0,0,0, ,0,0,0,0,0, ,324.2,1095.8,205.4,-51.6,-17,140.8,25,176.113,1004.81,99.5015,-12.0869,-8.34425,8.29679,
2026_07_06_16_35_58.215,3.875,50.2,0,0.775,0,0,0,0, ,0,0,0,0,0, ,396.7,1052.2,209.9,-55.9,-27.8,169.7,25,187.346,1009.03,106.092,-14.6258,-9.20077,17.2517,
2026_07_06_16_35_58.230,3.875,50.2,0,0.774,0,0,0,0, ,0,0,0,0,0, ,450.4,982.6,184,-63.8,-21.9,188.9,25,201.74,1009.54,111.628,-17.3816,-10.1544,27.1266,
2026_07_06_16_35_58.255,3.875,50.2,0,0.774,0,0,0,0, ,0,0,0,0,0, ,478.3,933.8,196.2,-71.5,-11.9,215.9,25,217.743,1006.41,116.41,-20.4449,-10.5655,37.8073,
2026_07_06_16_35_58.271,3.875,50.2,0,0.774,0,0,0,0, ,0,0,0,0,0, ,472.7,953,153.6,-72.9,-11.3,236.1,25,233.45,1002.57,119.975,-23.5987,-10.6285,49.2753,
2026_07_06_16_35_58.296,3.875,50.2,0,0.774,0,0,0,0, ,0,0,0,0,0, ,540.7,844.3,171.5,-78.3,-9.2,239.2,25,250.101,996.239,122.569,-26.7675,-10.6054,60.7544,
2026_07_06_16_35_58.310,3.875,50.2,0,0.774,0,0,0,0, ,0,0,0,0,0, ,619,750.8,188.5,-56.7,5,227.7,25,270.195,984.131,126.069,-29.2496,-10.0871,71.278,
2026_07_06_16_35_58.335,3.875,50.2,0,0.775,0,0,0,0, ,0,0,0,0,0, ,557.6,694.3,188.3,-10.5,27.4,223.2,25,289.58,968.191,129.867,-29.5147,-8.48526,80.6729,
2026_07_06_16_35_58.349,3.875,50.2,0,0.774,0,0,0,0, ,0,0,0,0,0, ,548.5,690.5,247.3,3.6,24.9,222.8,25,305.635,951.385,135.225,-27.9264,-6.37467,89.3459,
2026_07_06_16_35_58.374,3.875,50.3,0,0.773,0,0,0,0, ,0,0,0,0,0, ,588.8,650.6,318.1,-1.3,9,223.5,25,321.662,934.272,144.212,-26.1546,-4.95333,97.4996,
2026_07_06_16_35_58.389,3.875,50.3,0,0.774,0,0,0,0, ,0,0,0,0,0, ,562.2,544.4,326.2,-4.7,3.9,228.1,25,337.131,913.75,155.055,-24.7436,-4.25844,105.318,
2026_07_06_16_35_58.415,3.875,50.2,0,0.774,0,0,0,0, ,0,0,0,0,0, ,549.1,534.1,351.1,-6.1,5.7,217.9,25,350.447,890.929,166.243,-23.5648,-3.70644,112.489,
2026_07_06_16_35_58.429,3.875,50.1,0,0.775,0,0,0,0, ,0,0,0,0,0, ,543.9,461,312.2,-19.9,13.1,189.6,25,362.394,866.957,176.323,-22.9211,-2.90777,118.05,
2026_07_06_16_35_58.453,3.875,50.2,0,0.774,0,0,0,0, ,0,0,0,0,0, ,586.9,397.4,251.4,-18.9,4.9,161.4,25,374.764,840.281,182.75,-22.7065,-2.18214,121.551,
2026_07_06_16_35_58.468,3.875,50.3,0,0.775,0,0,0,0, ,0,0,0,0,0, ,587.7,328,228.7,-4.3,-16.8,139.4,25,387.716,811.179,186.242,-22.0297,-2.41174,123.309,
2026_07_06_16_35_58.499,3.875,50.3,0,0.774,0,0,0,0, ,0,0,0,0,0, ,734.8,304.3,273.8,-17.9,-2.3,126.4,25,404.384,781.013,190.203,-21.3637,-2.84673,123.894,
2026_07_06_16_35_58.508,3.875,50.2,0,0.774,0,0,0,0, ,0,0,0,0,0, ,815.1,242.4,354.6,-20.7,42.2,106.1,25,426.966,750.077,197.759,-21.2379,-1.45755,123.428,
2026_07_06_16_35_58.533,3.875,50.2,0,0.773,0,0,0,0, ,0,0,0,0,0, ,857.6,202.5,352.2,-14.2,66.9,88.8,25,451.912,717.925,207.244,-21.0071,1.95541,121.845,
2026_07_06_16_35_58.548,3.875,50.2,0,0.774,0,0,0,0, ,0,0,0,0,0, ,837.5,154,257,-16.5,56.5,86.2,25,476.022,685.038,213.176,-20.6624,5.59609,119.752,
2026_07_06_16_35_58.572,3.875,50.1,0,0.774,0,0,0,0, ,0,0,0,0,0, ,793.8,114.1,203.8,-10.9,36.8,81.6,25,496.718,651.463,214.226,-20.2381,8.09782,117.567,
2026_07_06_16_35_58.587,3.875,50.2,0,0.774,0,0,0,0, ,0,0,0,0,0, ,859.4,92.4,173.4,10.9,17.7,80.4,25,516.82,618.056,212.664,-19.0048,9.2649,115.339,
2026_07_06_16_35_58.612,3.875,50.2,0,0.774,0,0,0,0, ,0,0,0,0,0, ,931.7,76.2,224.1,27,-0.1,80.7,25,539.899,585.53,211.816,-16.692,9.23657,113.219,
2026_07_06_16_35_58.626,3.875,50.2,0,0.773,0,0,0,0, ,0,0,0,0,0, ,898.9,46.9,223.9,35.8,-12.7,80.6,25,562.775,553.6,212.559,-13.7614,8.28372,111.234,
2026_07_06_16_35_58.651,3.875,50.2,0,0.774,0,0,0,0, ,0,0,0,0,0, ,791.9,40.2,266.8,45.9,-24.6,69.5,25,579.997,522.519,214.557,-10.4335,6.64244,109.029,
2026_07_06_16_35_58.666,3.875,50.1,0,0.776,0,0,0,0, ,0,0,0,0,0, ,760,24.4,299.6,49.8,-45,46.9,25,591.938,492.646,218.74,-6.88182,4.11705,105.932,
2026_07_06_16_35_58.690,3.875,50.1,0,0.776,0,0,0,0, ,0,0,0,0,0, ,837.5,4.8,310.3,49,-65.4,28.8,25,604.541,463.515,223.993,-3.45215,0.502414,101.783,
2026_07_06_16_35_58.707,3.875,50.2,0,0.774,0,0,0,0, ,0,0,0,0,0, ,954.4,-12.3,290.8,45.2,-71.7,21.3,25,622.298,435.041,228.659,-0.371629,-3.70547,97.1072,
2026_07_06_16_35_58.730,3.875,50.1,0,0.773,0,0,0,0, ,0,0,0,0,0, ,1048,-30.5,261.4,43.8,-49.9,25.8,25,645.388,407.227,231.55,2.36274,-7.18466,92.6248,
2026_07_06_16_35_58.745,3.875,50.1,0,0.774,0,0,0,0, ,0,0,0,0,0, ,941.2,-5.9,305.6,41.3,-31.8,18.3,25,666.668,381.302,234.715,4.81165,-9.23615,88.3242,
2026_07_06_16_35_58.770,3.875,50.1,0,0.774,0,0,0,0, ,0,0,0,0,0, ,925.1,-12.8,310.1,32.1,-24.4,2,25,682.907,357.497,239.172,6.75484,-10.3857,83.5604,
2026_07_06_16_35_58.785,3.875,50.1,0,0.774,0,0,0,0, ,0,0,0,0,0, ,959.3,-12,300.5,21.7,-23.3,-13.2,25,698.707,334.956,243.202,7.98244,-11.2061,78.1272,
2026_07_06_16_35_58.810,3.875,50.1,0,0.774,0,0,0,0, ,0,0,0,0,0, ,1050.6,-13.4,267.8,16.1,-11.8,-17.2,25,717.369,313.771,245.697,8.64773,-11.5927,72.4401,
2026_07_06_16_35_58.825,3.875,50.1,0,0.774,0,0,0,0, ,0,0,0,0,0, ,1063.1,-8.5,271.3,14.6,2.1,-14.5,25,738.056,293.983,247.15,9.05615,-11.1818,67.0599,
2026_07_06_16_35_58.856,3.875,50.1,0,0.774,0,0,0,0, ,0,0,0,0,0, ,1022.4,3.7,270.7,11.9,6.2,-13.2,25,756.623,275.923,248.604,9.31171,-10.2476,62.1295,
2026_07_06_16_35_58.865,3.875,50.1,0,0.774,0,0,0,0, ,0,0,0,0,0, ,1025.1,21.1,288.8,8.7,2.9,-13.4,25,772.901,259.864,250.502,9.37193,-9.34583,57.533,
2026_07_06_16_35_58.887,3.875,50.1,0,0.775,0,0,0,0, ,0,0,0,0,0, ,1049.4,23.3,303.1,5.5,-5.1,-11.2,25,789.01,245.382,253.271,9.23349,-8.84335,53.2775,
2026_07_06_16_35_58.904,3.875,50.1,0,0.773,0,0,0,0, ,0,0,0,0,0, ,1049.8,24.9,293.4,1.3,-7.6,-5.3,25,804.89,231.897,256.012,8.87801,-8.69141,49.5282,
2026_07_06_16_35_58.929,3.875,50.1,0,0.775,0,0,0,0, ,0,0,0,0,0, ,1005.2,27.4,248.2,-0.8,-3.8,-2.8,25,818.455,219.359,256.913,8.35224,-8.50912,46.2633,
2026_07_06_16_35_58.943,3.875,50.1,0,0.774,0,0,0,0, ,0,0,0,0,0, ,964.7,29,252.8,-1.2,2.2,-6.6,25,828.601,207.711,256.522,7.78234,-8.03935,43.1577,
2026_07_06_16_35_58.969,3.875,50.1,0,0.773,0,0,0,0, ,0,0,0,0,0, ,971.1,31.6,252,-1.3,4.1,-8.9,25,837.089,196.9,256.271,7.23193,-7.3575,40.0555,
2026_07_06_16_35_58.983,3.875,50,0,0.774,0,0,0,0, ,0,0,0,0,0, ,996,33.2,258.4,-2.7,1.6,-7.5,25,846.014,186.876,256.206,6.66936,-6.73548,37.1149,
2026_07_06_16_35_59.010,3.875,50.1,0,0.774,0,0,0,0, ,0,0,0,0,0, ,975.8,32.4,249,-3,-2,-3.3,25,854.539,177.487,256.053,6.08927,-6.33722,34.5242,
2026_07_06_16_35_59.022,3.875,50,0,0.773,0,0,0,0, ,0,0,0,0,0, ,1019,30.1,239.5,-2.6,-0.2,-1.3,25,863.244,168.575,255.334,5.54758,-6.01808,32.2802,
2026_07_06_16_35_59.049,3.875,50,0,0.774,0,0,0,0, ,0,0,0,0,0, ,1000.9,37.7,230.3,-0.8,-1.9,1.7,25,872.184,160.369,254.089,5.10593,-5.71534,30.3253,
2026_07_06_16_35_59.062,3.875,50,0,0.774,0,0,0,0, ,0,0,0,0,0, ,990.1,43.4,231.8,0.2,-3.3,1.5,25,879.699,153.067,252.685,4.77651,-5.5255,28.5749,
2026_07_06_16_35_59.089,3.875,50,0,0.774,0,0,0,0, ,0,0,0,0,0, ,973.6,46.9,237.3,0.6,-1.1,-1.5,25,885.924,146.491,251.58,4.50982,-5.32285,26.8336,
2026_07_06_16_35_59.101,3.875,50,0,0.775,0,0,0,0, ,0,0,0,0,0, ,968.9,45.5,230.3,-0.2,1.8,-3.2,25,891.123,140.379,250.496,4.24719,-4.97716,25.0552,
2026_07_06_16_35_59.128,3.875,50,0,0.774,0,0,0,0, ,0,0,0,0,0, ,955.9,44,242,0,2.7,-4,25,895.467,134.552,249.622,3.98228,-4.53675,23.309,
2026_07_06_16_35_59.141,3.875,50,0,0.773,0,0,0,0, ,0,0,0,0,0, ,957.1,46.1,252.1,-0.2,1.2,-4.3,25,899.186,129.098,249.465,3.73352,-4.14147,21.6358,
2026_07_06_16_35_59.168,3.875,50,0,0.775,0,0,0,0, ,0,0,0,0,0, ,955.2,52.1,253,-0.3,2.2,-3.3,25,902.657,124.223,249.653,3.49077,-3.7855,20.0858,
2026_07_06_16_35_59.181,3.875,50,0,0.775,0,0,0,0, ,0,0,0,0,0, ,951.5,58.2,260.6,-1,2.1,-3,25,905.746,120.014,250.089,3.23844,-3.42381,18.6698,
2026_07_06_16_35_59.207,3.875,50.1,0,0.774,0,0,0,0, ,0,0,0,0,0, ,958.8,58.3,254,-1.4,2.1,-3.5,25,908.757,116.25,250.528,2.96798,-3.0872,17.3341,
2026_07_06_16_35_59.219,3.875,50,0,0.773,0,0,0,0, ,0,0,0,0,0, ,962.5,56.8,247,-1,-1.5,-3.2,25,911.919,112.673,250.527,2.71399,-2.88079,16.0737,
2026_07_06_16_35_59.246,3.875,50,0,0.774,0,0,0,0, ,0,0,0,0,0, ,958.4,56.6,248.7,-0.6,-2.3,-2.5,25,914.876,109.262,250.363,2.49986,-2.82103,14.9205,
2026_07_06_16_35_59.260,3.875,50,0,0.774,0,0,0,0, ,0,0,0,0,0, ,956,49.4,242.6,-1.2,-1.7,-2.2,25,917.455,105.834,250.076,2.29268,-2.771,13.8681,
2026_07_06_16_35_59.285,3.875,50,0,0.774,0,0,0,0, ,0,0,0,0,0, ,958.8,47.7,239.5,-1.6,-0.1,-2.6,25,919.89,102.343,249.526,2.06765,-2.65698,12.8767,
2026_07_06_16_35_59.300,3.875,50,0,0.775,0,0,0,0, ,0,0,0,0,0, ,958.4,47.8,238.1,-0.3,1.8,-2.7,25,922.248,99.0163,248.873,1.88377,-2.44327,11.9306,
2026_07_06_16_35_59.325,3.875,50,0,0.774,0,0,0,0, ,0,0,0,0,0, ,957.8,47.7,247.3,0.1,1.5,-3,25,924.433,95.8923,248.496,1.76288,-2.19384,11.0299,
2026_07_06_16_35_59.339,3.875,50,0,0.775,0,0,0,0, ,0,0,0,0,0, ,954.3,47.6,254.3,-0.7,0.1,-3.3,25,926.36,92.9525,248.637,1.63717,-2.0114,10.1658,
2026_07_06_16_35_59.364,3.875,50,0,0.774,0,0,0,0, ,0,0,0,0,0, ,964.4,50,246.3,-1.7,-0.9,-3.7,25,928.37,90.262,248.738,1.46428,-1.91321,9.33305,
2026_07_06_16_35_59.378,3.875,49.9,0,0.775,0,0,0,0, ,0,0,0,0,0, ,962.8,54.1,242.3,-1,0.1,-3.4,25,930.517,87.9334,248.468,1.29279,-1.821,8.54798,
2026_07_06_16_35_59.405,3.875,50,0,0.774,0,0,0,0, ,0,0,0,0,0, ,955.9,53.7,250.3,-0.8,-0.5,-3.4,25,932.274,85.8595,248.336,1.15916,-1.72222,7.8199,
2026_07_06_16_35_59.419,3.875,49.9,0,0.774,0,0,0,0, ,0,0,0,0,0, ,950.1,51.2,250.4,-1.5,-0.4,-3.6,25,933.537,83.8236,248.458,1.01845,-1.64469,7.1301,
2026_07_06_16_35_59.443,3.875,49.9,0,0.774,0,0,0,0, ,0,0,0,0,0, ,968,54.9,253.1,-0.9,-0.9,-4,25,935.092,81.9484,248.659,0.883263,-1.58408,6.46405,
2026_07_06_16_35_59.457,3.875,49.9,0,0.773,0,0,0,0, ,0,0,0,0,0, ,961.5,55.9,251.5,-1.5,-1.2,-4.6,25,936.899,80.3306,248.881,0.756315,-1.55153,5.80811,
2026_07_06_16_35_59.483,3.875,49.9,0,0.774,0,0,0,0, ,0,0,0,0,0, ,959.8,57.9,240.6,-1.5,-1.6,-4.2,25,938.346,78.9028,248.708,0.61882,-1.5423,5.18605,
2026_07_06_16_35_59.497,3.875,49.9,0,0.774,0,0,0,0, ,0,0,0,0,0, ,960.2,55.9,245.2,-1.3,-1.7,-3.6,25,939.666,77.562,248.354,0.495799,-1.54886,4.63237,
2026_07_06_16_35_59.524,3.875,49.9,0,0.773,0,0,0,0, ,0,0,0,0,0, ,955.6,62.1,247.6,-1.2,-1.1,-3.3,25,940.777,76.4308,248.235,0.389414,-1.53979,4.13985,
2026_07_06_16_35_59.536,3.875,49.9,0,0.774,0,0,0,0, ,0,0,0,0,0, ,958.1,62.9,255.2,-2,-0.9,-3.3,25,941.756,75.5819,248.428,0.268184,-1.5069,3.68649,
2026_07_06_16_35_59.564,3.875,49.9,0,0.775,0,0,0,0, ,0,0,0,0,0, ,958.8,60.7,246.7,-1.9,-1.7,-2.9,25,942.774,74.7421,248.582,0.133013,-1.49429,3.27294,
2026_07_06_16_35_59.576,3.875,49.9,0,0.773,0,0,0,0, ,0,0,0,0,0, ,958.9,56,241.9,-1.3,-1.8,-2.9,25,943.753,73.7432,248.321,0.027408,-1.50987,2.89677,
2026_07_06_16_35_59.602,3.875,49.8,0,0.773,0,0,0,0, ,0,0,0,0,0, ,959.4,56.7,235.9,-1,-1.1,-3,25,944.692,72.6833,247.747,-0.0443403,-1.50622,2.54049,
2026_07_06_16_35_59.616,3.875,49.9,0,0.773,0,0,0,0, ,0,0,0,0,0, ,959.9,59.8,248.1,-0.3,-1,-2.5,25,945.603,71.8038,247.397,-0.0812477,-1.47842,2.2181,
2026_07_06_16_35_59.642,3.875,49.9,0,0.773,0,0,0,0, ,0,0,0,0,0, ,955.6,54.8,252.9,-0.9,-1.6,-2.1,25,946.343,70.92,247.586,-0.112859,-1.46755,1.94277,
2026_07_06_16_35_59.656,3.875,49.9,0,0.773,0,0,0,0, ,0,0,0,0,0, ,961.3,56,251.5,-1.4,-2.5,-2.8,25,947.081,69.9742,247.867,-0.17606,-1.50304,1.67509,
2026_07_06_16_35_59.682,3.875,49.9,0,0.774,0,0,0,0, ,0,0,0,0,0, ,1000.1,59,257.9,-0.1,-4.3,-0.9,25,949.13,69.2141,248.283,-0.211034,-1.61864,1.46028,
2026_07_06_16_35_59.696,3.875,49.8,0,0.774,0,0,0,0, ,0,0,0,0,0, ,1127.6,35.2,280.7,-0.9,-0.2,10.2,25,956.12,67.8665,249.564,-0.228643,-1.65711,1.65465,
2026_07_06_16_35_59.722,3.875,49.8,0,0.774,0,0,0,0, ,0,0,0,0,0, ,1118.2,68.6,326.4,-4.2,9.8,22.8,25,966.284,66.8935,252.854,-0.370101,-1.26363,2.55929,
2026_07_06_16_35_59.735,3.875,49.8,0,0.774,0,0,0,0, ,0,0,0,0,0, ,1082.3,67.1,319.2,-6.6,17.7,23.8,25,974.447,66.9518,257.116,-0.67661,-0.348739,3.82318,
2026_07_06_16_35_59.762,3.875,49.9,0,0.775,0,0,0,0, ,0,0,0,0,0, ,1104.8,56.2,335.6,-9,23.4,25.5,25,981.705,66.6287,261.399,-1.11069,0.924778,5.09231,
2026_07_06_16_35_59.774,3.875,49.9,0,0.774,0,0,0,0, ,0,0,0,0,0, ,1173.4,28.9,345.8,-9.1,18.2,42.9,25,991.296,65.1614,266.231,-1.59449,2.13592,6.86606,
2026_07_06_16_35_59.801,3.875,49.7,0,0.774,0,0,0,0, ,0,0,0,0,0, ,1213.1,6.7,360.3,-7.6,4.8,71.1,25,1003.6,62.2753,271.522,-2.00616,2.70655,9.9211,
2026_07_06_16_35_59.815,3.875,49.9,0,0.773,0,0,0,0, ,0,0,0,0,0, ,1182.7,-22,342.7,-11.2,-4.5,102,25,1015.44,58.0143,276.396,-2.45672,2.55076,14.5907,
2026_07_06_16_35_59.841,3.875,49.8,0,0.776,0,0,0,0, ,0,0,0,0,0, ,1167.6,-20.5,376.9,-12.3,-6.9,126.8,25,1025.17,53.1841,281.478,-3.02303,2.04798,20.6728,
2026_07_06_16_35_59.853,3.875,49.8,0,0.774,0,0,0,0, ,0,0,0,0,0, ,1246.7,-40,431.3,-17,-3.3,146.8,25,1036.26,48.0998,288.95,-3.73155,1.6124,27.7493,
2026_07_06_16_35_59.879,3.875,49.7,0,0.774,0,0,0,0, ,0,0,0,0,0, ,1244.2,-94.2,387,-24,-0.4,173.9,25,1049.01,41.0799,296.275,-4.75337,1.40141,35.8297,
2026_07_06_16_35_59.893,3.875,49.7,0,0.774,0,0,0,0, ,0,0,0,0,0, ,1117.1,-141.1,290.6,-24,-6.4,203.2,25,1057.03,31.4073,298.866,-5.92622,1.10882,45.1361,
2026_07_06_16_35_59.920,3.875,49.8,0,0.774,0,0,0,0, ,0,0,0,0,0, ,938.2,-175.7,277.3,-18.4,-20.5,204.9,25,1055.24,19.8409,297.957,-6.85696,0.221644,54.8199,
2026_07_06_16_35_59.933,3.875,49.8,0,0.774,0,0,0,0, ,0,0,0,0,0, ,985.3,-239.3,282.4,-15.2,-29.8,197.9,25,1049.55,5.98729,296.854,-7.46287,-1.32444,63.7521,
2026_07_06_16_35_59.958,3.875,49.8,0,0.774,0,0,0,0, ,0,0,0,0,0, ,949.9,-275.7,298.7,-19.1,-28.7,205.1,25,1044.55,-10.069,296.47,-8.05318,-3.02615,72.1461,
2026_07_06_16_35_59.971,3.875,49.7,0,0.775,0,0,0,0, ,0,0,0,0,0, ,851.9,-355.4,257,-18.7,-10.1,196.7,25,1035.8,-28.6842,295.335,-8.71415,-4.02394,79.992,
2026_07_06_16_35_59.999,3.875,49.7,0,0.774,0,0,0,0, ,0,0,0,0,0, ,820.5,-439.8,186.1,-11.8,-2.9,192.5,25,1023.63,-51.165,290.839,-9.11243,-4.17482,86.976,
2026_07_06_16_36_00.016,3.875,49.7,0,0.774,0,0,0,0, ,0,0,0,0,0, ,707.1,-468.2,244.6,-12.5,-4.7,189.8,25,1007.8,-75.7128,286.239,-9.29753,-4.15198,93.3241,
2026_07_06_16_36_00.044,3.875,49.8,0,0.774,0,0,0,0, ,0,0,0,0,0, ,887.8,-466.1,256.8,-14.3,2.7,193.4,25,994.983,-99.566,284.073,-9.54753,-3.95991,99.3128,
2026_07_06_16_36_00.051,3.875,49.8,0,0.774,0,0,0,0, ,0,0,0,0,0, ,708.3,-538.2,296.5,-13.7,-20.8,195.1,25,982.982,-124.098,283.621,-9.81885,-4.27008,105.098,
2026_07_06_16_36_00.078,3.875,49.8,0,0.774,0,0,0,0, ,0,0,0,0,0, ,694.7,-601.4,275.1,-22.7,-14.6,199.7,25,965.83,-151.258,283.754,-10.3296,-5.08847,110.723,
2026_07_06_16_36_00.090,3.875,49.8,0,0.775,0,0,0,0, ,0,0,0,0,0, ,466.1,-647.7,259.3,-27.6,-10.1,184.8,25,942.342,-180.1,282.745,-11.2327,-5.53097,115.691,
2026_07_06_16_36_00.118,3.875,49.8,0,0.774,0,0,0,0, ,0,0,0,0,0, ,496,-676.2,233.6,-33.3,-16.7,164.1,25,914.232,-209.462,280.533,-12.4038,-6.01049,119.271,
2026_07_06_16_36_00.130,3.875,49.7,0,0.773,0,0,0,0, ,0,0,0,0,0, ,575,-703.6,205.4,-35.3,-8.3,167.4,25,891.153,-238.739,276.814,-13.7381,-6.40594,122.104,
2026_07_06_16_36_00.157,3.875,49.7,0,0.774,0,0,0,0, ,0,0,0,0,0, ,274.2,-764.7,237.4,-34.6,-4.8,158.2,25,862.723,-268.928,273.437,-15.0307,-6.41472,124.584,
2026_07_06_16_36_00.170,3.875,49.7,0,0.773,0,0,0,0, ,0,0,0,0,0, ,174.8,-805.7,201.9,-46,-11.4,128.7,25,823.831,-300.388,270.159,-16.5705,-6.51742,125.733,
2026_07_06_16_36_00.199,3.875,49.7,0,0.774,0,0,0,0, ,0,0,0,0,0, ,376.8,-805.6,87.5,-45.6,-9.7,116.8,25,790.436,-331.178,262.514,-18.3517,-6.76315,125.551,
2026_07_06_16_36_00.209,3.875,49.7,0,0.774,0,0,0,0, ,0,0,0,0,0, ,359,-809.6,86,-48.9,-2.7,127,25,764.687,-360.21,251.804,-20.1127,-6.72884,125.329,
2026_07_06_16_36_00.239,3.875,49.7,0,0.774,0,0,0,0, ,0,0,0,0,0, ,83.2,-858.3,132.9,-47.6,-15.9,123.4,25,731.562,-389.078,243.129,-21.8273,-6.88552,125.321,
2026_07_06_16_36_00.249,3.875,49.7,0,0.774,0,0,0,0, ,0,0,0,0,0, ,23.8,-853.1,95.2,-60,-20.7,100.3,25,690.243,-417.513,235.263,-23.7756,-7.58109,124.5,
2026_07_06_16_36_00.280,3.875,49.6,0,0.774,0,0,0,0, ,0,0,0,0,0, ,192.8,-845.3,-43.4,-53.1,-11.3,90.1,25,654.781,-443.819,222.505,-25.7728,-8.09411,122.715,
2026_07_06_16_36_00.289,3.875,49.7,0,0.774,0,0,0,0, ,0,0,0,0,0, ,187.6,-872.3,-100.3,-42.7,-3.8,100,25,626.47,-469.107,204.568,-27.1212,-8.06096,121.029,
2026_07_06_16_36_00.318,3.875,49.7,0,0.774,0,0,0,0, ,0,0,0,0,0, ,-24.2,-872.6,-51,-26.3,6.1,95.7,25,593.274,-493.686,187.492,-27.5708,-7.49966,119.616,
2026_07_06_16_36_00.328,3.875,49.7,0,0.774,0,0,0,0, ,0,0,0,0,0, ,-264.8,-873.7,23.9,-22.6,4,74.9,25,548.315,-516.809,175.241,-27.3807,-6.73492,117.525,
2026_07_06_16_36_00.354,3.875,49.6,0,0.774,0,0,0,0, ,0,0,0,0,0, ,-204.2,-919.3,41.3,-31.8,12.6,44.7,25,500.613,-539.947,166.549,-27.3696,-5.81873,114.008,
2026_07_06_16_36_00.367,3.875,49.6,0,0.774,0,0,0,0, ,0,0,0,0,0, ,31.4,-913.9,-40.7,-28.1,27.9,29.3,25,464.842,-562.899,156.418,-27.5269,-4.23017,109.315,
2026_07_06_16_36_00.394,3.875,49.6,0,0.774,0,0,0,0, ,0,0,0,0,0, ,65.5,-918.7,-77,-27.9,28.5,30.7,25,439.468,-584.434,143.3,-27.5557,-2.25395,104.482,
2026_07_06_16_36_00.408,3.875,49.7,0,0.774,0,0,0,0, ,0,0,0,0,0, ,-22.8,-943.6,-122.8,-25.3,7,42.7,25,413.989,-605.562,128.48,-27.4975,-1.03496,100.351,
2026_07_06_16_36_00.435,3.875,49.7,0,0.774,0,0,0,0, ,0,0,0,0,0, ,-117.3,-959.7,-124.7,-23.8,-8.8,42.8,25,384.493,-626.652,113.11,-27.3179,-1.02674,96.8412,
2026_07_06_16_36_00.447,3.875,49.6,0,0.774,0,0,0,0, ,0,0,0,0,0, ,-131.1,-974.1,-125.1,-17.3,-8.4,32.8,25,353.494,-647.386,98.6062,-26.9055,-1.48823,93.2434,
2026_07_06_16_36_00.474,3.875,49.6,0,0.774,0,0,0,0, ,0,0,0,0,0, ,-120.9,-963.9,-106.4,-9.1,11.3,23.7,25,324.275,-666.984,85.5439,-26.0703,-1.30918,89.2829,
2026_07_06_16_36_00.486,3.875,49.6,0,0.775,0,0,0,0, ,0,0,0,0,0, ,-150.1,-988.4,-109,-6.4,17.9,15,25,296.257,-685.824,73.7681,-24.9539,-0.339719,85.0213,
2026_07_06_16_36_00.513,3.875,49.6,0,0.774,0,0,0,0, ,0,0,0,0,0, ,-121.9,-1006.2,-115.6,-3,10.4,12.4,25,269.917,-704.805,62.4296,-23.7197,0.543248,80.6752,
2026_07_06_16_36_00.525,3.875,49.6,0,0.774,0,0,0,0, ,0,0,0,0,0, ,-112.4,-1012.2,-92.6,-2.9,9,10.1,25,246.33,-723.354,52.2817,-22.454,1.10124,76.4446,
2026_07_06_16_36_00.553,3.875,49.6,0,0.775,0,0,0,0, ,0,0,0,0,0, ,-132,-1007.5,-58.4,-9.5,5.3,7.3,25,223.873,-740.812,44.495,-21.4635,1.46983,72.3164,
2026_07_06_16_36_00.565,3.875,49.7,0,0.774,0,0,0,0, ,0,0,0,0,0, ,-67.5,-1002.4,-77.1,-16.3,2.8,8.7,25,204.152,-756.908,37.655,-20.9417,1.62706,68.3971,
2026_07_06_16_36_00.593,3.875,49.6,0,0.774,0,0,0,0, ,0,0,0,0,0, ,-151.3,-1000.2,-118,-20.9,20.1,13.8,25,185.045,-771.801,29.416,-20.799,2.22565,64.9147,
2026_07_06_16_36_00.605,3.875,49.6,0,0.774,0,0,0,0, ,0,0,0,0,0, ,-61.2,-989.5,-110.1,-12,13.7,-2.6,25,167.294,-785.393,20.6735,-20.534,3.11987,61.3002,
2026_07_06_16_36_00.633,3.875,49.6,0,0.774,0,0,0,0, ,0,0,0,0,0, ,-83.2,-1031.1,-81.6,-9.6,-20.4,10.8,25,152.7,-799.098,13.5729,-19.9408,2.72561,57.8146,
2026_07_06_16_36_00.645,3.875,49.6,0,0.773,0,0,0,0, ,0,0,0,0,0, ,-119.8,-987.4,-89.8,-8.7,-12.3,10.5,25,137.21,-811.904,7.52344,-19.2832,1.56319,54.9405,
2026_07_06_16_36_00.673,3.875,49.6,0,0.775,0,0,0,0, ,0,0,0,0,0, ,-92,-1007.5,-98,-7.9,6.9,4.3,25,122.395,-823.211,1.34295,-18.614,1.3034,52.0435,
2026_07_06_16_36_00.685,3.875,49.6,0,0.774,0,0,0,0, ,0,0,0,0,0, ,-127.8,-996,-138.5,-2.3,0.9,6.1,25,108.24,-834.091,-5.94474,-17.7905,1.46163,49.189,
2026_07_06_16_36_00.713,3.875,49.6,0,0.774,0,0,0,0, ,0,0,0,0,0, ,-109.2,-981.3,-108.2,4.6,-4.2,3,25,94.4226,-843.509,-13.0991,-16.6363,1.27202,46.4688,
2026_07_06_16_36_00.723,3.875,49.6,0,0.774,0,0,0,0, ,0,0,0,0,0, ,-94.6,-979.7,-62.9,5,0.5,2.4,25,82.4592,-851.857,-17.5141,-15.33,1.08177,43.8016,
2026_07_06_16_36_00.751,3.875,49.5,0,0.773,0,0,0,0, ,0,0,0,0,0, ,-78.9,-985.5,-53.5,1.4,-0.9,5.7,25,72.148,-859.824,-19.9934,-14.2008,1.00366,41.3793,
2026_07_06_16_36_00.763,3.875,49.6,0,0.774,0,0,0,0, ,0,0,0,0,0, ,-131.7,-981.9,-37.8,-1.3,-1.7,5.1,25,61.3348,-867.373,-21.5568,-13.3324,0.863281,39.1868,
2026_07_06_16_36_00.791,3.875,49.6,0,0.772,0,0,0,0, ,0,0,0,0,0, ,-130.4,-962.7,-60.6,-2.8,3.8,-3.6,25,49.6113,-873.767,-23.2414,-12.6449,0.87466,36.8445,
2026_07_06_16_36_00.803,3.875,49.6,0,0.774,0,0,0,0, ,0,0,0,0,0, ,-81.5,-965.4,-71.4,-2.7,5.7,-5.4,25,40.1318,-879.268,-25.847,-12.0419,1.11081,34.3251,
2026_07_06_16_36_00.831,3.875,49.6,0,0.774,0,0,0,0, ,0,0,0,0,0, ,-63.2,-968.5,-98.5,0.7,-0.4,-1.4,25,33.2775,-884.611,-29.4485,-11.3691,1.20461,32.0262,
2026_07_06_16_36_00.842,3.875,49.5,0,0.774,0,0,0,0, ,0,0,0,0,0, ,-99.3,-969.1,-97.5,3.8,-4.3,-0.9,25,26.2984,-889.742,-33.6259,-10.5391,0.987998,30.0046,
2026_07_06_16_36_00.872,3.875,49.5,0,0.774,0,0,0,0, ,0,0,0,0,0, ,-137.4,-966.9,-75.6,4,-0.6,-4.1,25,17.4839,-894.511,-36.851,-9.65926,0.778495,28.0238,
2026_07_06_16_36_00.882,3.875,49.6,0,0.773,0,0,0,0, ,0,0,0,0,0, ,-106.5,-964.9,-56.3,2.7,-4.3,-10.4,25,8.98717,-898.861,-38.6242,-8.86651,0.581759,25.8743,
2026_07_06_16_36_00.909,3.875,49.5,0,0.775,0,0,0,0, ,0,0,0,0,0, ,-95.4,-976.9,-64.3,1.3,-8.5,-9.6,25,2.28787,-903.251,-39.9451,-8.20433,0.156308,23.6882,
2026_07_06_16_36_00.921,3.875,49.5,0,0.774,0,0,0,0, ,0,0,0,0,0, ,-173.7,-996,-44.4,2.7,-2.7,-10.1,25,-6.05068,-908.321,-40.8229,-7.5825,-0.194467,21.6445,
2026_07_06_16_36_00.955,3.875,49.5,0,0.774,0,0,0,0, ,0,0,0,0,0, ,-98.6,-1006.3,-36.7,4.8,-1.6,-22.4,25,-13.9786,-913.977,-40.8062,-6.89193,-0.313632,19.3353,
2026_07_06_16_36_00.960,3.875,49.5,0,0.775,0,0,0,0, ,0,0,0,0,0, ,-138,-1007.5,-65.5,2.6,-3.7,-18.1,25,-20.3357,-919.64,-41.4335,-6.24648,-0.456005,16.9231,
2026_07_06_16_36_00.989,3.875,49.5,0,0.774,0,0,0,0, ,0,0,0,0,0, ,-136.3,-996.8,-94.3,5.3,1.4,-27.1,25,-27.4541,-924.668,-43.7776,-5.62514,-0.498295,14.5146,
2026_07_06_16_36_01.001,3.875,49.5,0,0.773,0,0,0,0, ,0,0,0,0,0, ,-63.9,-1017.7,-130.6,8.2,9.1,-26.6,25,-31.8809,-929.7,-47.9623,-4.87103,-0.148008,11.994,
2026_07_06_16_36_01.029,3.875,49.5,0,0.774,0,0,0,0, ,0,0,0,0,0, ,-109.4,-1017.3,-143.3,9.4,9.3,-23.9,25,-35.2184,-935.051,-53.385,-4.03795,0.421636,9.72441,
2026_07_06_16_36_01.040,3.875,49.4,0,0.774,0,0,0,0, ,0,0,0,0,0, ,-209.5,-1031.9,-156,11.4,1.5,-28.9,25,-42.7888,-940.507,-59.2511,-3.15814,0.725005,7.52308,
2026_07_06_16_36_01.067,3.875,49.5,0,0.774,0,0,0,0, ,0,0,0,0,0, ,-306.1,-1022.2,-172.3,11.7,-10.6,-42.1,25,-55.891,-945.781,-65.6434,-2.26186,0.403559,4.90136,
2026_07_06_16_36_01.080,3.875,49.5,0,0.774,0,0,0,0, ,0,0,0,0,0, ,-212.6,-984.3,-192.5,14.3,-12.7,-61.3,25,-68.2893,-949.283,-72.7583,-1.33184,-0.330954,1.45222,
2026_07_06_16_36_01.108,3.875,49.5,0,0.774,0,0,0,0, ,0,0,0,0,0, ,-226.9,-980.9,-212,17.4,-7.5,-75.3,25,-77.5189,-951.313,-80.6492,-0.284821,-0.926255,-2.79831,
2026_07_06_16_36_01.119,3.875,49.5,0,0.774,0,0,0,0, ,0,0,0,0,0, ,-88.7,-947.6,-246.2,29.8,-12.6,-99.4,25,-82.4111,-952.102,-89.6954,1.17066,-1.48223,-7.95068,
2026_07_06_16_36_01.149,3.875,49.4,0,0.774,0,0,0,0, ,0,0,0,0,0, ,-40.5,-956.1,-134.7,27.4,1.8,-97.8,25,-81.3257,-952.086,-95.8351,2.84214,-1.72097,-13.4746,
2026_07_06_16_36_01.159,3.875,49.4,0,0.774,0,0,0,0, ,0,0,0,0,0, ,-193.9,-966.1,-130.6,23.7,6.5,-119.1,25,-83.5118,-952.636,-98.0785,4.2259,-1.36321,-19.2622,
2026_07_06_16_36_01.188,3.875,49.5,0,0.774,0,0,0,0, ,0,0,0,0,0, ,-228.2,-949.5,-108.7,18.2,-11.9,-154.9,25,-91.2837,-952.95,-99.393,5.24502,-1.44467,-26.4368,
2026_07_06_16_36_01.200,3.875,49.4,0,0.774,0,0,0,0, ,0,0,0,0,0, ,-76.1,-892.2,-78.8,17.5,-9.5,-198.1,25,-94.9927,-950.994,-99.0492,6.01314,-2.00867,-35.5813,
2026_07_06_16_36_01.227,3.875,49.4,0,0.773,0,0,0,0, ,0,0,0,0,0, ,92.8,-806.3,-120.8,28,0,-224.2,25,-88.6952,-944.794,-99.0949,7.03304,-2.17572,-46.28,
2026_07_06_16_36_01.239,3.875,49.4,0,0.774,0,0,0,0, ,0,0,0,0,0, ,289.6,-788.8,-164.7,40.8,-19.2,-221.4,25,-71.6391,-935.822,-101.755,8.70071,-2.62813,-57.0367,
2026_07_06_16_36_01.267,3.875,49.4,0,0.773,0,0,0,0, ,0,0,0,0,0, ,329.2,-695.1,-156.7,66.2,-45.6,-216.3,25,-48.4196,-924.007,-105.347,11.4307,-4.44236,-66.8972,
2026_07_06_16_36_01.278,3.875,49.4,0,0.775,0,0,0,0, ,0,0,0,0,0, ,430.6,-704.1,4.1,77.2,-65,-219.2,25,-22.3188,-910.333,-103.577,15.1033,-7.54149,-76.0898,
2026_07_06_16_36_01.307,3.875,49.4,0,0.774,0,0,0,0, ,0,0,0,0,0, ,637.5,-595.5,147.4,60.1,-47.6,-233.7,25,11.5849,-894.456,-92.6493,18.3663,-10.5127,-85.2524,
2026_07_06_16_36_01.317,3.875,49.5,0,0.774,0,0,0,0, ,0,0,0,0,0, ,688.8,-477.9,243.1,48.1,4.9,-244,25,51.2896,-872.656,-75.1054,20.5439,-11.1731,-94.6122,
2026_07_06_16_36_01.345,3.875,49.4,0,0.775,0,0,0,0, ,0,0,0,0,0, ,799.6,-413.3,186.5,33.8,45.7,-250.1,25,93.5138,-846.632,-57.4393,21.7874,-8.95053,-103.901,
2026_07_06_16_36_01.356,3.875,49.4,0,0.774,0,0,0,0, ,0,0,0,0,0, ,706.2,-379.7,132.6,28.2,23.3,-249.4,25,133.695,-819.202,-44.2165,22.3487,-6.30277,-112.789,
2026_07_06_16_36_01.385,3.875,49.4,0,0.773,0,0,0,0, ,0,0,0,0,0, ,756.2,-317.6,120.4,25.9,-21.8,-229,25,170.106,-790.528,-33.8135,22.6352,-5.87299,-120.492,
2026_07_06_16_36_01.396,3.875,49.4,0,0.775,0,0,0,0, ,0,0,0,0,0, ,862.7,-196.7,245.8,45.6,-25.3,-201,25,209.066,-758.025,-20.5953,23.4344,-6.95018,-126.251,
2026_07_06_16_36_01.424,3.875,49.5,0,0.773,0,0,0,0, ,0,0,0,0,0, ,1182.4,-179.5,358,36.4,24,-181.3,25,258.637,-723.295,-0.943278,24.5048,-6.56626,-130.206,
2026_07_06_16_36_01.440,3.875,49.4,0,0.774,0,0,0,0, ,0,0,0,0,0, ,1126.5,-218.8,306.3,29.7,72.6,-161.8,25,313.226,-691.355,19.3546,25.0255,-3.22285,-132.725,
2026_07_06_16_36_01.470,3.875,49.4,0,0.773,0,0,0,0, ,0,0,0,0,0, ,923,-186.7,197.1,42.3,52,-138.1,25,356.584,-661.581,33.5131,25.6943,0.769947,-133.775,
2026_07_06_16_36_01.475,3.875,49.4,0,0.774,0,0,0,0, ,0,0,0,0,0, ,834.3,-128.6,163.5,24.9,-5.1,-114.8,25,388.398,-630.873,42.458,26.176,2.15201,-133.329,
2026_07_06_16_36_01.504,3.875,49.4,0,0.773,0,0,0,0, ,0,0,0,0,0, ,990.7,-73.1,267.2,35.6,-38.8,-100.6,25,420.335,-598.574,52.9936,26.4243,0.683297,-131.767,
2026_07_06_16_36_01.515,3.875,49.3,0,0.773,0,0,0,0, ,0,0,0,0,0, ,1202.8,-158.9,290.1,18.5,-30.6,-87.3,25,461.554,-569.167,66.7445,26.4624,-1.47287,-129.462,
2026_07_06_16_36_01.546,3.875,49.4,0,0.774,0,0,0,0, ,0,0,0,0,0, ,1325.1,-225.9,227.5,12.8,-2.3,-67.5,25,510.45,-546.208,78.4479,25.8035,-2.38554,-126.29,
2026_07_06_16_36_01.555,3.875,49.3,0,0.774,0,0,0,0, ,0,0,0,0,0, ,1216.7,-217.4,218.7,13,19.2,-42.9,25,556.79,-526.43,87.2626,25.0172,-1.72525,-121.958,
2026_07_06_16_36_01.584,3.875,49.3,0,0.774,0,0,0,0, ,0,0,0,0,0, ,1130.6,-107.4,253.2,9.8,16.1,-38.6,25,594.38,-504.247,96.3233,24.1874,-0.544571,-117.009,
2026_07_06_16_36_01.594,3.875,49.3,0,0.773,0,0,0,0, ,0,0,0,0,0, ,1065.6,-68.9,234.1,2.1,4.7,-45.3,25,625.076,-478.891,105.301,23.0761,0.122363,-112.435,
2026_07_06_16_36_01.623,3.875,49.4,0,0.773,0,0,0,0, ,0,0,0,0,0, ,1040,-50.2,173.2,-2.4,-21,-51.4,25,651.14,-453.338,111.294,21.6608,-0.381734,-108.53,
2026_07_06_16_36_01.633,3.875,49.4,0,0.773,0,0,0,0, ,0,0,0,0,0, ,1074.3,0,126.5,-4.6,-30.7,-48.8,25,675.881,-427.242,113.644,20.1275,-1.93371,-104.97,
2026_07_06_16_36_01.663,3.875,49.4,0,0.773,0,0,0,0, ,0,0,0,0,0, ,1151.4,9.2,134.1,-0.1,-23.6,-44.3,25,702.509,-400.927,114.659,18.7578,-3.47032,-101.41,
2026_07_06_16_36_01.674,3.875,49.2,0,0.774,0,0,0,0, ,0,0,0,0,0, ,1264.2,-2.1,205.9,17.5,13,-17.5,25,733.3,-376.279,118.031,18.1449,-3.58182,-97.1129,
2026_07_06_16_36_01.705,3.875,49.3,0,0.773,0,0,0,0, ,0,0,0,0,0, ,1037.2,24.1,266.6,20.6,31.9,9.3,25,758.735,-352.679,125.235,18.2001,-1.99551,-91.445,
2026_07_06_16_36_01.712,3.875,49.4,0,0.772,0,0,0,0, ,0,0,0,0,0, ,819.3,27.5,260.9,12.3,10.6,2.4,25,769.065,-329.615,133.676,18.0934,-0.578983,-85.5161,
2026_07_06_16_36_01.740,3.875,49.3,0,0.773,0,0,0,0, ,0,0,0,0,0, ,806.3,15.1,216.5,0.4,-14,-16.4,25,771.73,-308.232,140.076,17.3778,-0.647295,-80.7315,
2026_07_06_16_36_01.752,3.875,49.3,0,0.773,0,0,0,0, ,0,0,0,0,0, ,905.6,-12.4,186,-3.2,-13.4,-30.3,25,776.862,-289.366,143.803,16.2335,-1.44269,-77.2348,
2026_07_06_16_36_01.781,3.875,49.3,0,0.774,0,0,0,0, ,0,0,0,0,0, ,970.2,-29.6,155.1,-4.9,-0.9,-34.3,25,786.676,-273.013,145.433,14.9975,-1.79048,-74.4966,
2026_07_06_16_36_01.792,3.875,49.3,0,0.774,0,0,0,0, ,0,0,0,0,0, ,956,-46.5,145.6,-4.1,1.7,-29.9,25,797.427,-258.695,145.733,13.8094,-1.657,-71.913,
2026_07_06_16_36_01.821,3.875,49.3,0,0.773,0,0,0,0, ,0,0,0,0,0, ,910.8,-59.2,136.5,-2.6,-8.1,-29.8,25,805.712,-246.151,145.448,12.7637,-1.75103,-69.3498,
2026_07_06_16_36_01.831,3.875,49.4,0,0.774,0,0,0,0, ,0,0,0,0,0, ,916.8,-72,144.7,-2.9,-16,-37.5,25,812.299,-235.149,145.152,11.8184,-2.37862,-67.1744,
2026_07_06_16_36_01.861,3.875,49.3,0,0.774,0,0,0,0, ,0,0,0,0,0, ,957.7,-67,171.6,-1.3,-19.2,-44,25,819.913,-225.055,145.944,10.9702,-3.30617,-65.5641,
2026_07_06_16_36_01.871,3.875,49.3,0,0.773,0,0,0,0, ,0,0,0,0,0, ,1067.1,-42.2,200.3,-2.1,-19.7,-42.8,25,831.643,-214.668,148.382,10.1981,-4.28994,-64.2135,
2026_07_06_16_36_01.901,3.875,49.3,0,0.774,0,0,0,0, ,0,0,0,0,0, ,1156,-47.2,182.3,-5.5,-14.8,-31.8,25,848.7,-204.31,150.997,9.3451,-5.07969,-62.5735,
2026_07_06_16_36_01.910,3.875,49.3,0,0.775,0,0,0,0, ,0,0,0,0,0, ,1125.7,-32.2,160.7,0.2,-8.8,-19.4,25,866.503,-194.279,152.247,8.61415,-5.48921,-60.3204,
2026_07_06_16_36_01.939,3.875,49.2,0,0.774,0,0,0,0, ,0,0,0,0,0, ,1101.6,-13.5,160.8,2.3,-5.8,-12.5,25,881.563,-183.833,152.765,8.1654,-5.59956,-57.6166,
2026_07_06_16_36_01.949,3.875,49.3,0,0.774,0,0,0,0, ,0,0,0,0,0, ,1043.8,-4.2,175,2.3,-4.8,-13.5,25,893.211,-173.17,153.687,7.80798,-5.5813,-54.8978,
2026_07_06_16_36_01.980,3.875,49.3,0,0.773,0,0,0,0, ,0,0,0,0,0, ,1052.7,13.5,201.1,-1.1,-5.4,-13.6,25,902.658,-162.334,155.781,7.36874,-5.55197,-52.3781,
2026_07_06_16_36_01.989,3.875,49.3,0,0.774,0,0,0,0, ,0,0,0,0,0, ,1069.5,27.5,212.4,-7.4,-9.5,-10.6,25,912.313,-151.192,158.887,6.66072,-5.66763,-49.9237,
2026_07_06_16_36_02.018,3.875,49.2,0,0.774,0,0,0,0, ,0,0,0,0,0, ,1071.8,21.1,178.7,-14.8,-7.1,-2.9,25,921.962,-140.498,161.121,5.57843,-5.82804,-47.2928,
2026_07_06_16_36_02.030,3.875,49.3,0,0.774,0,0,0,0, ,0,0,0,0,0, ,1003,21.8,178.8,-15.8,0.5,3.2,25,928.996,-130.63,162.196,4.30615,-5.67399,-44.4017,
2026_07_06_16_36_02.059,3.875,49.2,0,0.776,0,0,0,0, ,0,0,0,0,0, ,960.5,23.6,174.9,-17.2,6.4,0.7,25,932.211,-121.286,163.089,3.03828,-5.118,-41.5772,
2026_07_06_16_36_02.069,3.875,49.3,0,0.774,0,0,0,0, ,0,0,0,0,0, ,953,21.3,141.8,-15.5,10.3,-4.8,25,933.706,-112.527,162.8,1.8568,-4.29729,-39.1685,
2026_07_06_16_36_02.098,3.875,49.2,0,0.774,0,0,0,0, ,0,0,0,0,0, ,937.9,3.4,138.4,-16.9,8.7,-7.8,25,934.422,-104.917,161.416,0.756466,-3.45652,-37.1656,
2026_07_06_16_36_02.107,3.875,49.3,0,0.774,0,0,0,0, ,0,0,0,0,0, ,938.5,3.1,137.4,-15.3,3.7,-7.1,25,934.652,-98.326,159.983,-0.270725,-2.86807,-35.3548,
2026_07_06_16_36_02.137,3.875,49.3,0,0.774,0,0,0,0, ,0,0,0,0,0, ,941,11.3,129.2,-17.3,-0.9,-7.9,25,934.963,-91.8955,158.357,-1.24751,-2.60799,-33.6574,
2026_07_06_16_36_02.147,3.875,49.2,0,0.773,0,0,0,0, ,0,0,0,0,0, ,981.4,15.5,137.8,-18,-1.4,-7.4,25,936.562,-85.4791,156.843,-2.24704,-2.51914,-32.0725,
2026_07_06_16_36_02.177,3.875,49.2,0,0.774,0,0,0,0, ,0,0,0,0,0, ,985.2,22.8,159.6,-20.4,3,-6.8,25,939.41,-79.1032,156.346,-3.28011,-2.31688,-30.5508,
2026_07_06_16_36_02.187,3.875,49.2,0,0.774,0,0,0,0, ,0,0,0,0,0, ,974.8,34.6,172.8,-23.3,8.8,-8,25,941.883,-72.534,156.947,-4.41171,-1.81617,-29.14,
2026_07_06_16_36_02.218,3.875,49.2,0,0.774,0,0,0,0, ,0,0,0,0,0, ,1016.7,36.8,168.4,-29.5,17.8,-11.1,25,945.166,-65.9385,157.779,-5.75162,-0.895025,-27.9463,
2026_07_06_16_36_02.226,3.875,49.2,0,0.775,0,0,0,0, ,0,0,0,0,0, ,1036.2,34.7,175.1,-33.6,25.8,-7.4,25,950.119,-59.7418,158.63,-7.32371,0.487953,-26.807,
2026_07_06_16_36_02.254,3.875,49.2,0,0.775,0,0,0,0, ,0,0,0,0,0, ,1053.1,59.8,207.6,-38.7,40.8,-5,25,955.88,-53.222,160.624,-9.08031,2.48744,-25.5512,
2026_07_06_16_36_02.266,3.875,49.2,0,0.773,0,0,0,0, ,0,0,0,0,0, ,1119.5,62.8,255.1,-40.4,85.2,-5.7,25,963.827,-46.2433,164.934,-10.9371,6.17492,-24.3202,
2026_07_06_16_36_02.298,3.875,49.2,0,0.774,0,0,0,0, ,0,0,0,0,0, ,1153.5,67.3,281.9,-43.9,119.5,-4.6,25,974.349,-39.4614,171.245,-12.8391,12.0356,-23.152,
2026_07_06_16_36_02.305,3.875,49.2,0,0.775,0,0,0,0, ,0,0,0,0,0, ,1164.1,66.2,341,-49.4,186.4,-3.4,25,985.589,-32.9891,179.789,-14.8994,20.6226,-21.985,
2026_07_06_16_36_02.335,3.875,49.1,0,0.773,0,0,0,0, ,0,0,0,0,0, ,1121.2,47.9,354.9,-57.2,226.8,-2.1,25,995.16,-27.5024,190.036,-17.2395,31.9556,-20.8128,
2026_07_06_16_36_02.345,3.875,49.2,0,0.774,0,0,0,0, ,0,0,0,0,0, ,1058.5,25,350.9,-58.9,238.5,3,25,1000.93,-23.6053,199.961,-19.7264,44.1854,-19.5171,
2026_07_06_16_36_02.376,3.875,49.2,0,0.774,0,0,0,0, ,0,0,0,0,0, ,988.2,0.6,365.8,-55.1,237,8.5,25,1002.3,-21.3868,209.612,-21.9977,55.9807,-17.9774,
2026_07_06_16_36_02.385,3.875,49.2,0,0.772,0,0,0,0, ,0,0,0,0,0, ,929.8,-27.5,404,-43.6,231.9,15.9,25,999.658,-20.9032,220.294,-23.6645,66.8562,-16.1385,
2026_07_06_16_36_02.415,3.875,49.2,0,0.774,0,0,0,0, ,0,0,0,0,0, ,856.9,-51.6,432.7,-32.5,226.6,23.8,25,993.18,-22.0395,232.363,-24.5411,76.7521,-13.9454,
2026_07_06_16_36_02.424,3.875,49.1,0,0.774,0,0,0,0, ,0,0,0,0,0, ,753.4,-75,455.2,-22.2,217.6,31.7,25,981.722,-24.5538,245.257,-24.7123,85.6092,-11.4046,
2026_07_06_16_36_02.454,3.875,49.1,0,0.774,0,0,0,0, ,0,0,0,0,0, ,672.2,-85.8,502.4,-10,206.8,38.1,25,965.334,-27.9569,259.488,-24.1875,93.3233,-8.58292,
2026_07_06_16_36_02.463,3.875,49.1,0,0.774,0,0,0,0, ,0,0,0,0,0, ,605.5,-85.9,536.1,1.2,203.1,41,25,945.439,-31.4848,275.317,-22.9817,100.126,-5.64982,
2026_07_06_16_36_02.494,3.875,49.1,0,0.774,0,0,0,0, ,0,0,0,0,0, ,522.9,-84.2,574.8,11.3,193.8,39.8,25,922.208,-34.7489,292.388,-21.2004,106.117,-2.84366,
2026_07_06_16_36_02.503,3.875,49.1,0,0.773,0,0,0,0, ,0,0,0,0,0, ,465.3,-81.9,626.9,19,178.4,38.8,25,896.12,-37.6923,311.185,-18.9853,110.991,-0.275532,
2026_07_06_16_36_02.533,3.875,49,0,0.776,0,0,0,0, ,0,0,0,0,0, ,412.3,-71.5,661.8,28.1,164.4,34.9,25,868.252,-40.0693,331.487,-16.3933,114.672,1.98681,
2026_07_06_16_36_02.543,3.875,49.1,0,0.774,0,0,0,0, ,0,0,0,0,0, ,371.2,-68.9,703.1,35.5,151.4,30.9,25,839.215,-41.9054,352.874,-13.4565,117.307,3.87058,
2026_07_06_16_36_02.572,3.875,49.1,0,0.773,0,0,0,0, ,0,0,0,0,0, ,346.3,-67.7,747.9,41.8,138,29.2,25,809.937,-43.5138,375.581,-10.2813,118.976,5.46589,
2026_07_06_16_36_02.582,3.875,49.1,0,0.773,0,0,0,0, ,0,0,0,0,0, ,348.9,-57.6,753,49.9,125.4,31.8,25,781.763,-44.6799,398.424,-6.86077,119.751,6.9914,
2026_07_06_16_36_02.614,3.875,49.1,0,0.773,0,0,0,0, ,0,0,0,0,0, ,327.7,-51.2,770.3,60,118.1,42.3,25,754.74,-45.2722,420.559,-3.09417,119.873,8.8231,
2026_07_06_16_36_02.627,3.875,49.1,0,0.774,0,0,0,0, ,0,0,0,0,0, ,272.7,-12.3,816,67.1,112,48.4,25,727.041,-44.4482,443.263,0.966956,119.579,11.049,
2026_07_06_16_36_02.657,3.875,49.1,0,0.773,0,0,0,0, ,0,0,0,0,0, ,217.4,16.6,868,77.6,107,57.5,25,697.67,-41.6086,467.561,5.31686,118.965,13.6023,
2026_07_06_16_36_02.662,3.875,49,0,0.774,0,0,0,0, ,0,0,0,0,0, ,138.7,50.9,919.1,82.4,103.9,62.2,25,666.005,-37.0165,493.52,9.86786,118.141,16.4205,
2026_07_06_16_36_02.693,3.875,49.1,0,0.773,0,0,0,0, ,0,0,0,0,0, ,49.8,89.8,975.7,75.8,96.3,56.2,25,631.164,-30.4738,521.178,14.0867,117.042,19.0274,
2026_07_06_16_36_02.701,3.875,49.1,0,0.774,0,0,0,0, ,0,0,0,0,0, ,1.5,76.7,996.9,73.6,83,50.1,25,594.266,-23.5438,549.522,17.7803,115.373,21.1067,
2026_07_06_16_36_02.731,3.875,49.1,0,0.774,0,0,0,0, ,0,0,0,0,0, ,16.2,148.3,1054,72.3,76.2,48.1,25,558.592,-15.2536,578.524,21.1422,113.193,22.8126,
2026_07_06_16_36_02.740,3.875,49.1,0,0.774,0,0,0,0, ,0,0,0,0,0, ,-63.9,192,1085.5,65.2,76.5,43.2,25,523.099,-3.95559,608.458,24.0433,110.948,24.2042,
2026_07_06_16_36_02.771,3.875,49,0,0.774,0,0,0,0, ,0,0,0,0,0, ,-92,204.3,1128,52.6,64.7,37.9,25,486.473,8.36022,638.822,26.1674,108.489,25.2003,
2026_07_06_16_36_02.780,3.875,49.1,0,0.774,0,0,0,0, ,0,0,0,0,0, ,-116.4,193.4,1118.4,45.2,53.8,35,25,450.479,19.9682,668.339,27.5527,105.489,25.8858,
2026_07_06_16_36_02.810,3.875,49.1,0,0.773,0,0,0,0, ,0,0,0,0,0, ,-131.9,211.7,1118.4,39.2,43.6,30.3,25,415.462,31.0943,695.765,28.4452,102.028,26.298,
2026_07_06_16_36_02.819,3.875,49,0,0.774,0,0,0,0, ,0,0,0,0,0, ,-141.3,233.6,1124.2,31.8,29.6,26.8,25,381.821,42.7672,721.696,28.8751,98.041,26.4353,
2026_07_06_16_36_02.852,3.875,49,0,0.773,0,0,0,0, ,0,0,0,0,0, ,-160,238.5,1114.7,23.7,16.2,21.4,25,349.374,54.5454,745.934,28.8066,93.4621,26.2929,
2026_07_06_16_36_02.859,3.875,49,0,0.774,0,0,0,0, ,0,0,0,0,0, ,-158.4,234.6,1085.6,16.7,1.7,15,25,318.382,65.6363,767.519,28.2821,88.3121,25.7998,
2026_07_06_16_36_02.891,3.875,48.9,0,0.774,0,0,0,0, ,0,0,0,0,0, ,-130.3,279.5,1025,6.1,-5.1,10.9,25,290.185,77.3005,785.056,27.2534,82.827,25.0168,
2026_07_06_16_36_02.899,3.875,49,0,0.774,0,0,0,0, ,0,0,0,0,0, ,-88.8,250.1,1015.9,16.5,3,4.2,25,265.826,88.7263,799.4,26.2812,77.7157,23.9524,
2026_07_06_16_36_02.930,3.875,49,0,0.774,0,0,0,0, ,0,0,0,0,0, ,-99.1,255.8,1018.9,14.8,8.3,4.5,25,243.902,98.7337,812.684,25.6334,73.3242,22.7579,
2026_07_06_16_36_02.939,3.875,48.9,0,0.774,0,0,0,0, ,0,0,0,0,0, ,-102.1,239.8,1063.1,8.7,3.4,0.7,25,222.909,107.817,826.597,24.7873,69.2125,21.5295,
2026_07_06_16_36_02.970,3.875,49,0,0.772,0,0,0,0, ,0,0,0,0,0, ,-90,239.5,1029.2,1,-5.5,0.9,25,203.472,115.851,839.976,23.5724,64.9309,20.2663,
2026_07_06_16_36_02.978,3.875,49,0,0.774,0,0,0,0, ,0,0,0,0,0, ,-80.3,224.8,980.8,-1.4,-5.1,-1.5,25,185.884,122.938,850.032,22.1238,60.6512,19.013,
2026_07_06_16_36_03.009,3.875,49.1,0,0.774,0,0,0,0, ,0,0,0,0,0, ,-61.7,203.9,954.2,0.4,-3,-2.1,25,170.23,128.508,857.191,20.7451,56.7085,17.7447,
2026_07_06_16_36_03.018,3.875,49,0,0.774,0,0,0,0, ,0,0,0,0,0, ,-61.8,211.4,970,4.2,0.5,-2.1,25,156.094,133.331,863.584,19.6211,53.1766,16.5354,
2026_07_06_16_36_03.048,3.875,49,0,0.773,0,0,0,0, ,0,0,0,0,0, ,-67.7,210.6,968,2.7,-1.7,-3.6,25,142.636,138.064,870.007,18.6357,49.8996,15.3541,
2026_07_06_16_36_03.056,3.875,49,0,0.774,0,0,0,0, ,0,0,0,0,0, ,-51,207.3,954.4,1.5,-7.8,-2.3,25,130.328,142.384,875.564,17.6281,46.5694,14.2387,
2026_07_06_16_36_03.090,3.875,49,0,0.773,0,0,0,0, ,0,0,0,0,0, ,-47.3,216.6,932.9,4.2,-5.6,-2.8,25,119.391,146.623,879.713,16.7275,43.3233,13.2157,
2026_07_06_16_36_03.097,3.875,49,0,0.774,0,0,0,0, ,0,0,0,0,0, ,-38.9,214.9,968,8.1,-2.7,-4.7,25,109.489,150.835,884.024,16.083,40.4304,12.1818,
2026_07_06_16_36_03.127,3.875,49,0,0.774,0,0,0,0, ,0,0,0,0,0, ,-10.2,224.9,980.5,8.3,-2,-4.4,25,101.321,155.044,889.522,15.6026,37.8235,11.1622,
2026_07_06_16_36_03.136,3.875,49,0,0.773,0,0,0,0, ,0,0,0,0,0, ,-1.4,237.1,993.4,6.1,-0.9,-3.2,25,94.7935,159.672,895.459,15.0906,35.4302,10.2505,
2026_07_06_16_36_03.167,3.875,49,0,0.774,0,0,0,0, ,0,0,0,0,0, ,-17.9,231.8,975,2,-3,-1.4,25,88.429,164.229,900.867,14.4178,33.1524,9.48567,
2026_07_06_16_36_03.176,3.875,49,0,0.773,0,0,0,0, ,0,0,0,0,0, ,-6.7,259.5,1031.2,-4.4,9,-3.4,25,82.2908,169.191,907.097,13.4661,31.315,8.76139,
2026_07_06_16_36_03.208,3.875,48.9,0,0.774,0,0,0,0, ,0,0,0,0,0, ,-41.5,243.1,1025.8,-2.4,21,-8.7,25,75.8076,174.194,914.495,12.4383,30.3208,7.85882,
