UTC_Time,Vin,TC1,TC2,Rh1,Vh1,Ah1,Acp1,Dty1,Err1,Rh2,Vh2,Ah2,Acp2,Dty2,Err2,Accel_x,Accel_y,Accel_z,gyro_x,gyro_y,gyro_z,Temp_c,Accel_x_h,Accel_y_h,Accel_z_h,gyro_x_h,gyro_y_h,gyro_z_h,
2026_07_06_17_06_47.557,3.869,29.1,0,0.757,0,0,0,0.007, ,0,0,0,0,0, ,586.3,44.1,795.8,-1.3,2.5,-2.1,25,586.3,44.1,795.8,-1.3,2.5,-2.1,
2026_07_06_17_06_47.576,3.869,28.9,0,0.756,0,0,0,0.007, ,0,0,0,0,0, ,582.3,47.8,814.4,-0.8,1.6,-1.8,25,586.178,44.2127,796.367,-1.28477,2.47258,-2.09086,
2026_07_06_17_06_47.596,3.869,28.8,0,0.757,0,0,0,0.009, ,0,0,0,0,0, ,583.1,55.1,814.8,-1.4,-0.5,-1.9,25,585.966,44.6538,797.478,-1.27351,2.35542,-2.07618,
2026_07_06_17_06_47.615,3.869,28.9,0,0.757,0,0,0,0.01, ,0,0,0,0,0, ,585.4,48.9,805.2,-1.9,-0.7,-2.1,25,585.862,45.1014,798.241,-1.29645,2.17533,-2.07154,
2026_07_06_17_06_47.635,3.869,28.8,0,0.758,0,0,0,0.009, ,0,0,0,0,0, ,589.4,46,796.5,-1.7,0.9,-2.5,25,585.955,45.2445,798.4,-1.32713,2.04886,-2.08546,
2026_07_06_17_06_47.658,3.869,28.9,0,0.757,0,0,0,0.01, ,0,0,0,0,0, ,590.4,48.2,804,-0.1,2.2,-1.8,25,586.196,45.3576,798.513,-1.30111,2.01846,-2.08939,
2026_07_06_17_06_47.674,3.869,28.9,0,0.758,0,0,0,0.009, ,0,0,0,0,0, ,583.8,48.8,798.3,0.7,2.7,-1.7,25,586.251,45.5491,798.673,-1.20354,2.04476,-2.06871,
2026_07_06_17_06_47.694,3.869,28.9,0,0.758,0,0,0,0.009, ,0,0,0,0,0, ,583,48.2,803.8,1,3.9,-2.2,25,586.077,45.7289,798.818,-1.0784,2.12125,-2.06148,
2026_07_06_17_06_47.714,3.869,28.9,0,0.757,0,0,0,0.009, ,0,0,0,0,0, ,592.2,40.6,805.6,1.8,4.5,-3.7,25,586.17,45.6479,799.177,-0.927373,2.24792,-2.11562,
2026_07_06_17_06_47.735,3.869,28.9,0,0.758,0,0,0,0.009, ,0,0,0,0,0, ,574.9,56.1,805,2.1,6,-2.7,25,586.01,45.8126,799.55,-0.752033,2.43086,-2.1817,
2026_07_06_17_06_47.754,3.869,28.8,0,0.757,0,0,0,0.009, ,0,0,0,0,0, ,576.5,50.6,820.1,1.6,5.2,-3.2,25,585.382,46.2719,800.342,-0.593472,2.62398,-2.22852,
2026_07_06_17_06_47.773,3.869,28.9,0,0.757,0,0,0,0.01, ,0,0,0,0,0, ,567,55.6,808.9,1.1,4.5,-2.9,25,584.551,46.688,801.205,-0.475042,2.75963,-2.27858,
2026_07_06_17_06_47.794,3.869,28.9,0,0.757,0,0,0,0.01, ,0,0,0,0,0, ,574,52.9,817.6,0,4.6,-3,25,583.695,47.1488,801.939,-0.412578,2.86873,-2.31949,
2026_07_06_17_06_47.814,3.869,29.1,0,0.756,0,0,0,0.01, ,0,0,0,0,0, ,575.1,54.8,822.1,0.7,2.9,-3,25,583.138,47.5572,803.03,-0.366109,2.92243,-2.36096,
2026_07_06_17_06_47.834,3.869,28.9,0,0.758,0,0,0,0.008, ,0,0,0,0,0, ,567.3,60.1,813.2,0.7,2.6,-2.7,25,582.41,48.16,803.921,-0.301143,2.91192,-2.39076,
2026_07_06_17_06_47.853,3.869,28.9,0,0.757,0,0,0,0.01, ,0,0,0,0,0, ,570.6,58.9,817.8,1.1,2.3,-2.2,25,581.59,48.851,804.627,-0.227948,2.88378,-2.39437,
2026_07_06_17_06_47.872,3.869,29.1,0,0.758,0,0,0,0.01, ,0,0,0,0,0, ,564.2,59.5,816,0,1.6,-1.9,25,580.725,49.4817,805.375,-0.180542,2.82687,-2.37339,
2026_07_06_17_06_47.893,3.869,29.1,0,0.758,0,0,0,0.009, ,0,0,0,0,0, ,568.9,59.5,817.6,-0.8,2.5,-2.3,25,579.862,50.0922,806.071,-0.193915,2.77953,-2.35673,
2026_07_06_17_06_47.918,3.869,28.9,0,0.759,0,0,0,0.009, ,0,0,0,0,0, ,567.1,55.6,823.3,0,2.1,-2,25,579.139,50.5466,806.947,-0.206473,2.75031,-2.34413,
2026_07_06_17_06_47.932,3.869,28.9,0,0.758,0,0,0,0.01, ,0,0,0,0,0, ,566.8,62.8,826.9,0.1,-0.5,-1.1,25,578.396,51.0739,808.053,-0.190844,2.63146,-2.29574,
2026_07_06_17_06_47.952,3.869,28.9,0,0.758,0,0,0,0.011, ,0,0,0,0,0, ,565.1,54.9,816.6,0.2,-0.7,-1.5,25,577.638,51.5478,808.888,-0.170074,2.43455,-2.23506,
2026_07_06_17_06_47.972,3.869,29.1,0,0.757,0,0,0,0.011, ,0,0,0,0,0, ,566.6,52.3,807.9,0,0.6,-1.7,25,576.919,51.6728,809.093,-0.153617,2.28315,-2.19636,
2026_07_06_17_06_47.991,3.869,29.1,0,0.757,0,0,0,0.009, ,0,0,0,0,0, ,569,57.7,822.1,-0.5,1.7,-1.9,25,576.364,51.8756,809.453,-0.15949,2.21409,-2.17221,
2026_07_06_17_06_48.012,3.869,28.9,0,0.758,0,0,0,0.009, ,0,0,0,0,0, ,566.2,59.5,823.1,-0.2,0.6,-1.7,25,575.83,52.2854,810.254,-0.171099,2.14925,-2.14953,
2026_07_06_17_06_48.032,3.869,28.9,0,0.758,0,0,0,0.011, ,0,0,0,0,0, ,563.5,57.7,821,-0.1,0.3,-2.1,25,575.16,52.6702,810.973,-0.169813,2.0457,-2.13432,
2026_07_06_17_06_48.056,3.869,29.1,0,0.756,0,0,0,0.011, ,0,0,0,0,0, ,567.6,60.6,819.7,-0.9,-0.4,-1.9,25,574.575,53.065,811.544,-0.189934,1.918,-2.12614,
2026_07_06_17_06_48.071,3.869,28.9,0,0.757,0,0,0,0.01, ,0,0,0,0,0, ,569.7,58.1,810.6,-0.9,0.1,-2,25,574.214,53.448,811.764,-0.233204,1.79198,-2.1154,
2026_07_06_17_06_48.091,3.869,28.9,0,0.758,0,0,0,0.011, ,0,0,0,0,0, ,562.9,57.1,816.8,-1.5,0.8,-1.9,25,573.732,53.701,811.882,-0.292118,1.7102,-2.10532,
2026_07_06_17_06_48.111,3.869,29.1,0,0.758,0,0,0,0.011, ,0,0,0,0,0, ,565.5,58.9,822.2,-1.6,0.6,-2,25,573.151,53.963,812.346,-0.36877,1.64864,-2.09586,
2026_07_06_17_06_48.130,3.869,29.1,0,0.757,0,0,0,0.01, ,0,0,0,0,0, ,564.3,58.5,817.3,-1.7,0.9,-2,25,572.648,54.2517,812.797,-0.446845,1.59388,-2.09002,
2026_07_06_17_06_48.150,3.869,29.1,0,0.76,0,0,0,0.01, ,0,0,0,0,0, ,562.9,56.8,826.4,-0.9,1.1,-2.1,25,572.097,54.4587,813.349,-0.498834,1.55769,-2.08758,
2026_07_06_17_06_48.170,3.869,29.1,0,0.758,0,0,0,0.01, ,0,0,0,0,0, ,564.3,61,830,-0.3,-1.6,-1.2,25,571.579,54.7294,814.254,-0.504999,1.44753,-2.06091,
2026_07_06_17_06_48.193,3.869,29.1,0,0.757,0,0,0,0.01, ,0,0,0,0,0, ,561.1,55,813.4,-1.5,-1.2,-1.8,25,571.038,54.9287,814.708,-0.529069,1.27401,-2.02673,
2026_07_06_17_06_48.209,3.869,29.1,0,0.757,0,0,0,0.01, ,0,0,0,0,0, ,563.3,55.4,820,-0.3,-0.4,-1.7,25,570.499,54.9452,814.829,-0.551673,1.14763,-2.00987,
2026_07_06_17_06_48.229,3.869,28.9,0,0.757,0,0,0,0.01, ,0,0,0,0,0, ,566,61.1,818.8,-0.2,-0.2,-2,25,570.143,55.1466,815.108,-0.53329,1.05941,-2.00013,
2026_07_06_17_06_48.248,3.869,29.1,0,0.758,0,0,0,0.012, ,0,0,0,0,0, ,570.3,59.3,822.1,-1.4,-0.5,-2.1,25,570.021,55.4545,815.433,-0.549542,0.973527,-2.00317,
2026_07_06_17_06_48.268,3.869,29.1,0,0.757,0,0,0,0.011, ,0,0,0,0,0, ,567.8,56.5,818.6,-0.6,-0.6,-1.8,25,569.962,55.6036,815.733,-0.576992,0.880687,-1.99993,
2026_07_06_17_06_48.288,3.869,28.9,0,0.757,0,0,0,0.011, ,0,0,0,0,0, ,565,53.4,811.2,-0.2,0.1,-1.8,25,569.745,55.5637,815.682,-0.566207,0.811786,-1.98774,
2026_07_06_17_06_48.308,3.869,29.1,0,0.76,0,0,0,0.012, ,0,0,0,0,0, ,559.2,55.9,817.1,-0.6,1.5,-2,25,569.279,55.5081,815.589,-0.556078,0.811068,-1.9824,
2026_07_06_17_06_48.328,3.869,29.2,0,0.757,0,0,0,0.011, ,0,0,0,0,0, ,560.9,56.7,822.1,-1.4,0.7,-2.1,25,568.717,55.5563,815.833,-0.58313,0.828675,-1.98652,
2026_07_06_17_06_48.348,3.869,29.1,0,0.757,0,0,0,0.01, ,0,0,0,0,0, ,564.2,61.7,826.9,-2.7,-0.3,-2.3,25,568.341,55.7784,816.361,-0.672517,0.790365,-1.99953,
2026_07_06_17_06_48.367,3.869,29.2,0,0.757,0,0,0,0.011, ,0,0,0,0,0, ,564.2,57.8,818.9,-3,-0.7,-2.1,25,568.089,56.0204,816.76,-0.805208,0.711733,-2.01174,
2026_07_06_17_06_48.386,3.869,29.2,0,0.758,0,0,0,0.01, ,0,0,0,0,0, ,565,52.3,811.4,-2.7,0.7,-2.5,25,567.876,55.9612,816.662,-0.929812,0.668362,-2.02931,
2026_07_06_17_06_48.414,3.869,29.2,0,0.758,0,0,0,0.01, ,0,0,0,0,0, ,566.5,58.4,827.8,-1.6,0.6,-2.2,25,567.747,55.924,816.841,-1.00417,0.667243,-2.04885,
2026_07_06_17_06_48.427,3.869,29.2,0,0.76,0,0,0,0.01, ,0,0,0,0,0, ,561.6,57.4,824.3,-0.3,0,-1.8,25,567.521,56.0444,817.402,-1.00087,0.644864,-2.04587,
2026_07_06_17_06_48.447,3.869,29.2,0,0.757,0,0,0,0.01, ,0,0,0,0,0, ,558.5,54.3,821.4,-1.3,0,-2,25,567.066,56.0326,817.734,-0.988626,0.605568,-2.03698,
2026_07_06_17_06_48.466,3.869,29.2,0,0.757,0,0,0,0.011, ,0,0,0,0,0, ,563.3,57.6,824.8,-1.6,-0.3,-2.1,25,566.69,56.0275,818.061,-1.01674,0.559525,-2.03778,
2026_07_06_17_06_48.486,3.869,29.2,0,0.758,0,0,0,0.011, ,0,0,0,0,0, ,562.1,55.9,818.8,-1.6,-0.1,-2.1,25,566.447,56.0716,818.289,-1.05228,0.513242,-2.04157,
2026_07_06_17_06_48.506,3.869,29.2,0,0.76,0,0,0,0.011, ,0,0,0,0,0, ,561.8,54.4,823.1,-1.2,0.1,-2.2,25,566.173,56.0154,818.451,-1.07347,0.481966,-2.04818,
2026_07_06_17_06_48.526,3.869,29.2,0,0.757,0,0,0,0.011, ,0,0,0,0,0, ,563.5,56.8,828.4,-0.5,-1,-1.7,25,565.958,55.9901,818.896,-1.05985,0.425174,-2.04219,
2026_07_06_17_06_48.545,3.869,29.2,0,0.758,0,0,0,0.011, ,0,0,0,0,0, ,562.5,54.3,816.7,-0.7,-0.5,-1.8,25,565.778,55.9633,819.118,-1.03183,0.353562,-2.02439,
2026_07_06_17_06_48.565,3.869,29.2,0,0.758,0,0,0,0.011, ,0,0,0,0,0, ,563.3,56.6,819.8,0,0.5,-1.9,25,565.603,55.932,819.065,-0.990283,0.332017,-2.01376,
2026_07_06_17_06_48.585,3.869,29.2,0,0.757,0,0,0,0.011, ,0,0,0,0,0, ,560.7,58.7,825.6,-0.4,0.3,-2,25,565.383,56.0367,819.287,-0.942125,0.33616,-2.00988,
2026_07_06_17_06_48.604,3.869,29.2,0,0.758,0,0,0,0.011, ,0,0,0,0,0, ,560,56.8,825.6,-1,-0.8,-1.8,25,565.076,56.1411,819.672,-0.927371,0.300441,-2.00318,
2026_07_06_17_06_48.625,3.869,29.2,0,0.758,0,0,0,0.011, ,0,0,0,0,0, ,561.6,56,819.9,-1.1,-0.8,-1.8,25,564.816,56.1569,819.859,-0.934843,0.233383,-1.9908,
2026_07_06_17_06_48.649,3.869,29.3,0,0.758,0,0,0,0.011, ,0,0,0,0,0, ,562.1,55.5,820.6,-0.6,-0.1,-2,25,564.635,56.1321,819.883,-0.929673,0.191739,-1.98527,
2026_07_06_17_06_48.664,3.869,29.3,0,0.758,0,0,0,0.011, ,0,0,0,0,0, ,560.9,56,819.7,-0.6,0.3,-1.9,25,564.444,56.1088,819.899,-0.909584,0.186149,-1.98312,
2026_07_06_17_06_48.684,3.869,29.2,0,0.758,0,0,0,0.011, ,0,0,0,0,0, ,560.4,58.5,827,-0.5,-0.8,-1.7,25,564.213,56.1783,820.11,-0.887672,0.159571,-1.97196,
2026_07_06_17_06_48.703,3.869,29.3,0,0.757,0,0,0,0.012, ,0,0,0,0,0, ,562.3,56.6,821.4,-0.8,-1.3,-1.9,25,564.038,56.2619,820.359,-0.873189,0.0858626,-1.96148,
2026_07_06_17_06_48.724,3.869,29.2,0,0.758,0,0,0,0.011, ,0,0,0,0,0, ,564.6,56.7,817.5,-0.5,-0.8,-1.6,25,564.003,56.2856,820.303,-0.859588,0.0166459,-1.94859,
2026_07_06_17_06_48.743,3.869,29.3,0,0.757,0,0,0,0.012, ,0,0,0,0,0, ,561.8,54.6,821.2,0,0.2,-1.9,25,563.954,56.2468,820.245,-0.822441,-0.00264967,-1.93649,
2026_07_06_17_06_48.763,3.869,29.3,0,0.757,0,0,0,0.011, ,0,0,0,0,0, ,559.8,55.5,824.7,0.1,0.9,-1.9,25,563.761,56.1739,820.41,-0.769277,0.0310274,-1.93427,
2026_07_06_17_06_48.783,3.869,29.3,0,0.758,0,0,0,0.011, ,0,0,0,0,0, ,559,58.3,823.7,-1.2,-0.6,-1.7,25,563.496,56.2182,820.641,-0.755915,0.0382773,-1.92609,
2026_07_06_17_06_48.803,3.869,29.4,0,0.758,0,0,0,0.011, ,0,0,0,0,0, ,561.8,55.6,820,-1.6,-1.2,-1.8,25,563.307,56.2627,820.715,-0.795164,-0.018899,-1.91536,
2026_07_06_17_06_48.825,3.869,29.3,0,0.757,0,0,0,0.01, ,0,0,0,0,0, ,562.5,56,816.5,-0.7,0.2,-2.1,25,563.237,56.2345,820.565,-0.816786,-0.0482161,-1.91747,
2026_07_06_17_06_48.843,3.869,29.3,0,0.758,0,0,0,0.011, ,0,0,0,0,0, ,557.1,57,823.9,-0.9,0.9,-2,25,563.027,56.2507,820.542,-0.815764,-0.0117623,-1.92554,
2026_07_06_17_06_48.863,3.869,29.4,0,0.757,0,0,0,0.011, ,0,0,0,0,0, ,561.2,59,830.3,-0.9,-0.3,-1.7,25,562.791,56.3573,820.942,-0.820897,0.00723574,-1.92094,
2026_07_06_17_06_48.883,3.869,29.3,0,0.758,0,0,0,0.011, ,0,0,0,0,0, ,561.7,57.2,822.8,0,-0.7,-1.8,25,562.709,56.4635,821.284,-0.798295,-0.0236739,-1.91052,
2026_07_06_17_06_48.901,3.869,29.4,0,0.758,0,0,0,0.011, ,0,0,0,0,0, ,556.3,54.3,822.8,-0.2,-0.5,-1.5,25,562.483,56.42,821.376,-0.755743,-0.0587938,-1.89465,
2026_07_06_17_06_48.922,3.869,29.4,0,0.758,0,0,0,0.011, ,0,0,0,0,0, ,562.8,54.9,822.3,0,-0.5,-1.6,25,562.304,56.3091,821.448,-0.715784,-0.0856798,-1.87364,
2026_07_06_17_06_48.942,3.869,29.3,0,0.756,0,0,0,0.011, ,0,0,0,0,0, ,568.3,52.1,821.1,0.6,0,-2.3,25,562.502,56.1379,821.463,-0.653884,-0.0956931,-1.8783,
2026_07_06_17_06_48.962,3.869,29.4,0,0.757,0,0,0,0.012, ,0,0,0,0,0, ,557.7,60.9,813.5,-0.1,0.4,-2.5,25,562.533,56.16,821.209,-0.598804,-0.0776743,-1.91009,
2026_07_06_17_06_48.981,3.869,29.4,0,0.758,0,0,0,0.011, ,0,0,0,0,0, ,554.9,58.3,829.8,-0.8,-0.1,-2.3,25,562.153,56.3696,821.236,-0.589736,-0.0638004,-1.93994,
2026_07_06_17_06_49.001,3.869,29.4,0,0.757,0,0,0,0.011, ,0,0,0,0,0, ,559.2,59.4,822.6,-1.3,-1.2,-2.1,25,561.842,56.5208,821.539,-0.617783,-0.0995219,-1.95579,
2026_07_06_17_06_49.021,3.869,29.4,0,0.76,0,0,0,0.011, ,0,0,0,0,0, ,562.6,55.7,815.5,-1,0.3,-2.2,25,561.784,56.5835,821.387,-0.650215,-0.120879,-1.96762,
2026_07_06_17_06_49.041,3.869,29.4,0,0.758,0,0,0,0.011, ,0,0,0,0,0, ,562.3,58.1,823.4,-0.7,0.8,-1.9,25,561.825,56.6028,821.269,-0.66239,-0.0799975,-1.97264,
2026_07_06_17_06_49.061,3.869,29.4,0,0.758,0,0,0,0.011, ,0,0,0,0,0, ,557.2,58.2,827.1,-0.7,0.5,-2.1,25,561.698,56.6971,821.512,-0.664682,-0.0355133,-1.97431,
2026_07_06_17_06_49.079,3.869,29.4,0,0.757,0,0,0,0.011, ,0,0,0,0,0, ,557.1,59.4,826.4,-0.8,-0.1,-2,25,561.421,56.8252,821.831,-0.669881,-0.0211617,-1.97892,
2026_07_06_17_06_49.100,3.869,29.4,0,0.758,0,0,0,0.011, ,0,0,0,0,0, ,557.3,57.3,828.1,-1.2,-0.8,-2.1,25,561.164,56.9181,822.161,-0.689997,-0.047294,-1.98326,
2026_07_06_17_06_49.120,3.869,29.4,0,0.757,0,0,0,0.011, ,0,0,0,0,0, ,559.8,59.2,821.7,-0.8,-1.2,-1.9,25,561.005,56.9993,822.328,-0.708888,-0.10535,-1.98428,
2026_07_06_17_06_49.139,3.869,29.4,0,0.758,0,0,0,0.011, ,0,0,0,0,0, ,562.3,57.9,822.2,-0.8,-0.7,-1.8,25,561.008,57.0938,822.305,-0.71444,-0.15682,-1.97609,
2026_07_06_17_06_49.160,3.869,29.5,0,0.758,0,0,0,0.011, ,0,0,0,0,0, ,559.2,58.2,824.4,-0.7,-0.1,-1.6,25,560.992,57.1521,822.366,-0.716607,-0.171639,-1.95927,
2026_07_06_17_06_49.179,3.869,29.4,0,0.761,0,0,0,0.011, ,0,0,0,0,0, ,557.6,58.3,825.9,-0.6,0,-1.8,25,560.834,57.219,822.535,-0.712548,-0.164227,-1.94347,
2026_07_06_17_06_49.198,3.869,29.4,0,0.758,0,0,0,0.011, ,0,0,0,0,0, ,559.2,58.7,822.5,-0.6,0,-2.1,25,560.686,57.297,822.637,-0.70569,-0.154219,-1.94387,
2026_07_06_17_06_49.219,3.869,29.4,0,0.758,0,0,0,0.012, ,0,0,0,0,0, ,558.2,57.7,823.1,-0.2,0,-2,25,560.565,57.3521,822.647,-0.687062,-0.144821,-1.95033,
2026_07_06_17_06_49.239,3.869,29.4,0,0.757,0,0,0,0.012, ,0,0,0,0,0, ,560.3,58.2,820.3,-0.3,-0.2,-1.9,25,560.484,57.3885,822.589,-0.660428,-0.14209,-1.95031,
2026_07_06_17_06_49.258,3.869,29.5,0,0.757,0,0,0,0.012, ,0,0,0,0,0, ,557.1,55.6,821.8,-0.9,0,-2.2,25,560.376,57.3587,822.495,-0.656746,-0.139525,-1.95639,
2026_07_06_17_06_49.278,3.869,29.4,0,0.759,0,0,0,0.011, ,0,0,0,0,0, ,556.2,62.9,825.1,-0.7,0,-2.3,25,560.149,57.474,822.553,-0.665476,-0.131023,-1.97428,
2026_07_06_17_06_49.298,3.869,29.4,0,0.756,0,0,0,0.012, ,0,0,0,0,0, ,558.7,60.3,825.9,-1,-0.1,-2.3,25,559.984,57.7254,822.733,-0.67672,-0.126086,-1.99413,
2026_07_06_17_06_49.317,3.869,29.5,0,0.757,0,0,0,0.012, ,0,0,0,0,0, ,558.8,58.2,823.6,-1.6,-0.5,-2.2,25,559.909,57.8183,822.856,-0.714701,-0.136684,-2.00972,
2026_07_06_17_06_49.337,3.869,29.4,0,0.76,0,0,0,0.011, ,0,0,0,0,0, ,561.5,57.4,823.1,-0.8,0.1,-2.3,25,559.924,57.8172,822.886,-0.744274,-0.140542,-2.02436,
2026_07_06_17_06_49.357,3.869,29.5,0,0.758,0,0,0,0.012, ,0,0,0,0,0, ,555.5,58.7,823.8,-0.5,0,-1.9,25,559.837,57.8314,822.92,-0.738529,-0.128931,-2.02897,
2026_07_06_17_06_49.377,3.869,29.5,0,0.758,0,0,0,0.011, ,0,0,0,0,0, ,556.5,59,826.2,-1.2,-0.2,-2.1,25,559.603,57.8935,823.047,-0.745322,-0.127168,-2.02721,
2026_07_06_17_06_49.397,3.869,29.5,0,0.76,0,0,0,0.011, ,0,0,0,0,0, ,558.3,59.2,825.5,-1.6,-0.3,-2.2,25,559.469,57.967,823.218,-0.785216,-0.134653,-2.03469,
2026_07_06_17_06_49.415,3.869,29.6,0,0.758,0,0,0,0.011, ,0,0,0,0,0, ,560.6,60,827.5,-1.1,-0.1,-2.1,25,559.468,58.0665,823.418,-0.819633,-0.138635,-2.04172,
2026_07_06_17_06_49.436,3.869,29.6,0,0.759,0,0,0,0.011, ,0,0,0,0,0, ,558.1,61.6,827.8,-0.9,-1.3,-1.6,25,559.461,58.2331,823.676,-0.830624,-0.172843,-2.03003,
2026_07_06_17_06_49.456,3.869,29.6,0,0.757,0,0,0,0.011, ,0,0,0,0,0, ,556.7,57.9,822.7,-1.3,-1.3,-1.8,25,559.335,58.3255,823.772,-0.847039,-0.241529,-2.00992,
2026_07_06_17_06_49.476,3.869,29.6,0,0.757,0,0,0,0.011, ,0,0,0,0,0, ,559,58.3,822.5,-1.4,-0.6,-1.9,25,559.245,58.3118,823.7,-0.877688,-0.284702,-2.00018,
2026_07_06_17_06_49.495,3.869,29.5,0,0.76,0,0,0,0.011, ,0,0,0,0,0, ,565,61.5,828.7,-1.5,-0.5,-1.6,25,559.412,58.4085,823.816,-0.912564,-0.300868,-1.98493,
2026_07_06_17_06_49.516,3.869,29.5,0,0.756,0,0,0,0.012, ,0,0,0,0,0, ,583.7,67.6,841.9,-0.4,-2.8,0,25,560.323,58.7828,824.516,-0.914845,-0.383081,-1.91273,
2026_07_06_17_06_49.535,3.869,29.6,0,0.756,0,0,0,0.012, ,0,0,0,0,0, ,612.9,54.1,857.5,-0.9,-10.7,-1.5,25,562.637,58.9088,826.051,-0.898706,-0.771065,-1.84187,
2026_07_06_17_06_49.554,3.869,29.6,0,0.758,0,0,0,0.011, ,0,0,0,0,0, ,616.5,55.4,894.6,4.3,-20.5,2.8,25,565.81,58.6553,829.097,-0.740347,-1.6747,-1.69002,
2026_07_06_17_06_49.575,3.869,29.6,0,0.76,0,0,0,0.011, ,0,0,0,0,0, ,606.8,61.1,878.9,1.6,-46.4,6.7,25,568.603,58.6306,832.611,-0.515467,-3.61101,-1.29758,
2026_07_06_17_06_49.594,3.869,29.5,0,0.758,0,0,0,0.011, ,0,0,0,0,0, ,609.8,71.4,840.6,-0.5,-63.6,11.5,25,571.022,59.0949,834.264,-0.45054,-6.74253,-0.663982,
2026_07_06_17_06_49.615,3.869,29.6,0,0.758,0,0,0,0.012, ,0,0,0,0,0, ,644.4,90.5,848,-1.7,-67.8,12.9,25,574.439,60.4267,834.876,-0.490116,-10.3352,0.119917,
2026_07_06_17_06_49.635,3.869,29.6,0,0.758,0,0,0,0.011, ,0,0,0,0,0, ,711.1,105.9,875.8,1.7,-81,11.2,25,580.735,62.7285,836.523,-0.46025,-14.2392,0.846907,
2026_07_06_17_06_49.653,3.869,29.6,0,0.758,0,0,0,0.011, ,0,0,0,0,0, ,786.7,41.7,827.1,-7,-113.3,24,25,590.982,63.4032,837.432,-0.593688,-19.2916,1.8678,
2026_07_06_17_06_49.674,3.869,29.6,0,0.758,0,0,0,0.011, ,0,0,0,0,0, ,749.3,36.1,713.8,4.2,-128,33,25,601.769,61.91,833.351,-0.642822,-25.4681,3.4907,
2026_07_06_17_06_49.693,3.869,29.6,0,0.758,0,0,0,0.011, ,0,0,0,0,0, ,943.4,24.7,780,6.2,-137.8,37.5,25,616.673,59.9899,828.083,-0.286775,-32.0147,5.42603,
2026_07_06_17_06_49.714,3.869,29.6,0,0.758,0,0,0,0.011, ,0,0,0,0,0, ,860.4,21.2,634.8,13.7,-143.1,44.7,25,634.054,57.7328,820.728,0.337028,-38.6225,7.59991,
2026_07_06_17_06_49.733,3.869,29.7,0,0.757,0,0,0,0.011, ,0,0,0,0,0, ,818.3,4.5,567.7,24.9,-152.2,53.5,25,646.565,54.9977,807.354,1.49258,-45.2664,10.1288,
2026_07_06_17_06_49.753,3.869,29.5,0,0.758,0,0,0,0.01, ,0,0,0,0,0, ,788.8,3.9,520.1,30.6,-164.2,59.4,25,656.131,51.9022,791.3,3.09265,-52.1483,12.9515,
2026_07_06_17_06_49.773,3.869,29.7,0,0.758,0,0,0,0.012, ,0,0,0,0,0, ,788.8,1.4,473.3,34,-187.2,61.8,25,664.215,48.9009,773.348,4.87247,-59.6772,15.8551,
2026_07_06_17_06_49.792,3.869,29.7,0,0.758,0,0,0,0.011, ,0,0,0,0,0, ,799.4,7,409.3,28.5,-214.4,67.7,25,672.13,46.177,753.113,6.47985,-68.2769,18.8346,
2026_07_06_17_06_49.812,3.869,29.7,0,0.757,0,0,0,0.01, ,0,0,0,0,0, ,854.8,-15.7,364.9,35.3,-237.5,67,25,681.574,43.098,730.809,8.02889,-77.8851,21.791,
2026_07_06_17_06_49.832,3.869,29.8,0,0.758,0,0,0,0.011, ,0,0,0,0,0, ,974.7,-73.2,307.1,26.2,-250.1,71.1,25,695.783,37.763,706.751,9.41346,-87.9955,24.6709,
2026_07_06_17_06_49.853,3.869,29.6,0,0.76,0,0,0,0.01, ,0,0,0,0,0, ,848,-50,243.4,36.7,-250.1,68.2,25,708.919,31.7081,680.456,10.7563,-97.8737,27.4118,
2026_07_06_17_06_49.872,3.869,29.8,0,0.758,0,0,0,0.011, ,0,0,0,0,0, ,837.6,-38.4,187.6,43.9,-250.1,50.2,25,717.077,27.0825,652.123,12.5566,-107.15,29.3489,
2026_07_06_17_06_49.891,3.869,29.7,0,0.758,0,0,0,0.01, ,0,0,0,0,0, ,891.8,-88.2,113.1,33.2,-250.1,32.9,25,726.073,21.5748,621.546,14.1406,-115.861,30.0924,
2026_07_06_17_06_49.911,3.869,29.7,0,0.758,0,0,0,0.011, ,0,0,0,0,0, ,925,-124.3,5.4,30,-238,31.2,25,737.184,13.7855,587.281,15.2045,-123.673,30.2117,
2026_07_06_17_06_49.932,3.869,29.7,0,0.757,0,0,0,0.011, ,0,0,0,0,0, ,885.2,-117.1,-63.3,19,-218.3,23.8,25,747.416,5.59024,549.73,15.771,-130.039,30.0464,
2026_07_06_17_06_49.951,3.869,29.7,0,0.761,0,0,0,0.011, ,0,0,0,0,0, ,882.3,-130.9,-109.4,17,-195.9,13,25,755.724,-2.30666,510.969,15.9068,-134.735,29.3367,
2026_07_06_17_06_49.971,3.869,29.7,0,0.757,0,0,0,0.011, ,0,0,0,0,0, ,874.8,-132.3,-171.5,8,-179.9,4,25,763.209,-10.1855,471.273,15.6992,-137.975,28.067,
2026_07_06_17_06_49.991,3.869,29.8,0,0.757,0,0,0,0.011, ,0,0,0,0,0, ,866.3,-153,-260.7,-1.3,-172,3.4,25,769.75,-18.2575,429.386,14.9467,-140.289,26.5821,
2026_07_06_17_06_50.010,3.869,29.8,0,0.758,0,0,0,0.01, ,0,0,0,0,0, ,899.2,-154.9,-317.7,1.2,-177.2,4.2,25,776.636,-26.5263,385.597,14.0328,-142.38,25.1938,
2026_07_06_17_06_50.030,3.869,29.8,0,0.758,0,0,0,0.01, ,0,0,0,0,0, ,929.3,-159.9,-343.7,5.4,-172.2,4.8,25,785.022,-34.5014,341.948,13.3788,-144.349,23.9328,
2026_07_06_17_06_50.049,3.869,29.8,0,0.758,0,0,0,0.01, ,0,0,0,0,0, ,852.5,-161.3,-431.7,7.4,-149.3,3.3,25,791.474,-42.1855,297.485,12.9535,-145.349,22.7212,
2026_07_06_17_06_50.069,3.869,29.8,0,0.76,0,0,0,0.01, ,0,0,0,0,0, ,793.5,-144,-464.8,0.3,-143.8,-2.5,25,793.395,-48.917,252.042,12.3988,-145.422,21.361,
2026_07_06_17_06_50.090,3.869,29.8,0,0.757,0,0,0,0.01, ,0,0,0,0,0, ,784.3,-135.8,-447.1,-9.5,-144.2,-2.6,25,793.121,-54.4612,208.898,11.3629,-145.335,19.9039,
2026_07_06_17_06_50.109,3.869,29.8,0,0.758,0,0,0,0.01, ,0,0,0,0,0, ,755.4,-123.6,-479.9,-21.4,-135.5,-5.1,25,791.703,-59.0461,167.924,9.72899,-145.001,18.4564,
2026_07_06_17_06_50.129,3.869,29.8,0,0.758,0,0,0,0.01, ,0,0,0,0,0, ,745.2,-122.8,-539.5,-34.2,-121.4,-6,25,789.18,-62.9555,126.631,7.44207,-143.992,16.9935,
2026_07_06_17_06_50.149,3.869,29.8,0,0.758,0,0,0,0.01, ,0,0,0,0,0, ,716.1,-119.9,-595.4,-38.9,-102.1,-10.6,25,785.613,-66.5139,84.3358,4.7613,-142.028,15.4522,
2026_07_06_17_06_50.168,3.869,29.8,0,0.757,0,0,0,0.01, ,0,0,0,0,0, ,660.1,-100.3,-638.6,-44.2,-98.7,-15.2,25,779.671,-69.1699,41.5982,1.93921,-139.491,13.7245,
2026_07_06_17_06_50.188,3.869,29.8,0,0.757,0,0,0,0.01, ,0,0,0,0,0, ,657.5,-70.8,-682.2,-51.8,-109.3,-14.7,25,772.305,-70.1681,-1.17982,-1.10396,-137.328,11.9771,
2026_07_06_17_06_50.208,3.869,29.8,0,0.758,0,0,0,0.01, ,0,0,0,0,0, ,698.7,-84.4,-742.6,-55.8,-105.1,-9.7,25,766.565,-70.621,-44.5198,-4.31513,-135.492,10.5039,
2026_07_06_17_06_50.228,3.869,29.8,0,0.76,0,0,0,0.01, ,0,0,0,0,0, ,691.2,-95.3,-810,-54.1,-92.9,-4,25,762.201,-71.7927,-89.1126,-7.40069,-133.269,9.44635,
2026_07_06_17_06_50.247,3.869,29.9,0,0.757,0,0,0,0.01, ,0,0,0,0,0, ,603.5,-75.8,-886.7,-44.4,-88.5,-1.2,25,755.202,-72.6311,-135.379,-9.95088,-130.675,8.71228,
2026_07_06_17_06_50.268,3.869,29.8,0,0.76,0,0,0,0.009, ,0,0,0,0,0, ,665.1,-92.1,-885.9,-37.7,-82.3,2.6,25,747.834,-73.3208,-181.138,-11.846,-127.916,8.22403,
2026_07_06_17_06_50.287,3.869,29.9,0,0.758,0,0,0,0.01, ,0,0,0,0,0, ,645,-85.4,-877.3,-34.5,-75.6,4.7,25,742.18,-74.261,-223.822,-13.324,-124.932,7.9453,
2026_07_06_17_06_50.306,3.869,29.9,0,0.758,0,0,0,0.009, ,0,0,0,0,0, ,597.6,-60.1,-857.7,-28.5,-54.1,5,25,734.814,-74.169,-263.046,-14.4316,-121.271,7.75668,
2026_07_06_17_06_50.327,3.869,29.9,0,0.76,0,0,0,0.009, ,0,0,0,0,0, ,567.8,-51.5,-862.7,-25.5,-36.9,3.9,25,725.545,-73.0496,-299.435,-15.1975,-116.653,7.55518,
2026_07_06_17_06_50.346,3.869,29.9,0,0.76,0,0,0,0.009, ,0,0,0,0,0, ,601,-48.3,-870.8,-24.3,-30.5,8.4,25,716.944,-71.6389,-334.006,-15.7887,-111.598,7.46955,
2026_07_06_17_06_50.366,3.869,29.9,0,0.758,0,0,0,0.01, ,0,0,0,0,0, ,562.2,-50.7,-911.7,-20.2,-20.3,13.9,25,708.696,-70.2898,-367.963,-16.1824,-106.346,7.69383,
2026_07_06_17_06_50.387,3.869,29.8,0,0.757,0,0,0,0.01, ,0,0,0,0,0, ,495.1,-43.2,-915.2,-10.8,-9.9,13.6,25,697.725,-68.8676,-401.204,-16.1409,-100.785,8.06288,
2026_07_06_17_06_50.406,3.869,29.9,0,0.758,0,0,0,0.01, ,0,0,0,0,0, ,470.4,-19.6,-848.9,-8.4,-10.1,11,25,684.625,-66.5844,-430.505,-15.7423,-95.2531,8.32108,
2026_07_06_17_06_50.426,3.869,29.9,0,0.758,0,0,0,0.01, ,0,0,0,0,0, ,491,-10.4,-830.9,-12.7,-10.9,7.9,25,672.198,-63.441,-455.453,-15.4259,-90.0884,8.38987,
2026_07_06_17_06_50.446,3.869,29.9,0,0.758,0,0,0,0.01, ,0,0,0,0,0, ,529.5,-18.4,-857.1,-13.8,-1,6,25,662.329,-60.4525,-479.13,-15.2933,-84.9613,8.30213,
2026_07_06_17_06_50.466,3.869,29.9,0,0.76,0,0,0,0.01, ,0,0,0,0,0, ,529,-13.7,-848.2,-14.5,8.9,6.9,25,654.22,-57.7467,-501.891,-15.2236,-79.5432,8.18926,
2026_07_06_17_06_50.486,3.869,29.9,0,0.758,0,0,0,0.01, ,0,0,0,0,0, ,534.6,-9,-828.7,-17.6,14.7,9.3,25,646.76,-54.9194,-522.4,-15.274,-73.977,8.18382,
2026_07_06_17_06_50.505,3.869,29.9,0,0.76,0,0,0,0.01, ,0,0,0,0,0, ,518,-3.1,-861.2,-19.7,21.1,9,25,639.419,-51.9415,-542.056,-15.4797,-68.3782,8.2427,
2026_07_06_17_06_50.525,3.869,29.9,0,0.758,0,0,0,0.01, ,0,0,0,0,0, ,526.4,-12.3,-874.8,-18.1,21.7,8.5,25,632.276,-49.2455,-561.918,-15.6881,-62.9074,8.27361,
2026_07_06_17_06_50.544,3.869,29.9,0,0.759,0,0,0,0.01, ,0,0,0,0,0, ,536.8,-16.4,-866.8,-12.1,21.5,7.6,25,626.141,-47.1191,-580.74,-15.6523,-57.7577,8.25999,
2026_07_06_17_06_50.565,3.869,29.9,0,0.759,0,0,0,0.01, ,0,0,0,0,0, ,567.8,-20.5,-863.2,-7.3,25.7,10.2,25,621.642,-45.372,-598.063,-15.2896,-52.8,8.29899,
2026_07_06_17_06_50.584,3.869,30,0,0.757,0,0,0,0.01, ,0,0,0,0,0, ,623.7,-18.9,-860.5,-2.8,38.8,15.6,25,620.064,-43.8076,-614.137,-14.6656,-47.6172,8.57936,
2026_07_06_17_06_50.604,3.869,30,0,0.759,0,0,0,0.009, ,0,0,0,0,0, ,718.6,-32.4,-881.2,-6,69.6,14,25,623.177,-42.7012,-629.781,-14.04,-41.4128,8.95843,
2026_07_06_17_06_50.624,3.869,29.9,0,0.76,0,0,0,0, ,0,0,0,0,0, ,735.3,-54.9,-880.6,6,121.4,20.9,25,629.501,-42.759,-645.083,-13.1845,-33.0696,9.47589,
2026_07_06_17_06_50.642,3.869,29.9,0,0.76,0,0,0,0, ,0,0,0,0,0, ,721,-69.7,-890.1,14.2,166.5,19.8,25,635.512,-43.9498,-659.724,-11.7656,-22.2825,10.1385,
2026_07_06_17_06_50.663,3.869,30,0,0.757,0,0,0,0, ,0,0,0,0,0, ,759,-55.5,-848.2,19.8,212,21.3,25,641.879,-45.0863,-672.486,-10.0127,-9.39224,10.773,
2026_07_06_17_06_50.682,3.869,30,0,0.759,0,0,0,0, ,0,0,0,0,0, ,818.9,-40.4,-780.7,23.4,250.1,20.3,25,650.841,-45.2608,-681.137,-8.08627,5.2597,11.384,
2026_07_06_17_06_50.700,3.869,30,0,0.757,0,0,0,0, ,0,0,0,0,0, ,857.9,-49.6,-735.3,18,250.1,16.3,25,662.271,-45.2449,-685.821,-6.33211,20.1797,11.8054,
2026_07_06_17_06_50.722,3.869,30,0,0.759,0,0,0,0, ,0,0,0,0,0, ,925.9,-75.1,-694.9,19.2,250.1,11.7,25,676.264,-46.2872,-687.605,-4.81281,34.1904,11.9392,
2026_07_06_17_06_50.743,3.869,30,0,0.759,0,0,0,0, ,0,0,0,0,0, ,910.5,-66.7,-563.9,19.7,250.1,15.7,25,691.007,-47.7871,-684.058,-3.33429,47.3474,12.0465,
2026_07_06_17_06_50.765,3.869,30,0,0.759,0,0,0,0, ,0,0,0,0,0, ,900.8,-52.8,-412.8,11.2,250.1,19.8,25,704.087,-48.5161,-672.132,-2.18962,59.7027,12.394,
2026_07_06_17_06_50.781,3.869,30,0,0.759,0,0,0,0, ,0,0,0,0,0, ,898.9,-57,-300.6,-3.7,250.1,13.3,25,716.016,-48.9051,-652.911,-1.82768,71.305,12.6473,
2026_07_06_17_06_50.802,3.869,30,0,0.76,0,0,0,0, ,0,0,0,0,0, ,890.2,-86.6,-177.2,21,250.1,9.2,25,726.895,-50.3002,-627.682,-1.18919,82.2003,12.5621,
2026_07_06_17_06_50.822,3.869,30,0,0.759,0,0,0,0, ,0,0,0,0,0, ,863.2,-90.8,-65.7,38.3,250.1,8.3,25,736.024,-52.6402,-596.833,0.690069,92.4317,12.3298,
2026_07_06_17_06_50.841,3.869,30,0,0.759,0,0,0,0, ,0,0,0,0,0, ,812.1,-85.9,64.3,39,250.1,6.2,25,742.217,-54.8163,-560.507,3.00325,102.04,12.0203,
2026_07_06_17_06_50.861,3.869,30,0,0.759,0,0,0,0, ,0,0,0,0,0, ,745.8,-89.8,169.4,38.6,250.1,-0.1,25,744.455,-56.8293,-519.23,5.18462,111.062,11.4737,
2026_07_06_17_06_50.880,3.869,30,0,0.759,0,0,0,0, ,0,0,0,0,0, ,682.8,-89.8,252,40.1,250.1,-7.7,25,742.618,-58.8384,-474.75,7.26657,119.535,10.5368,
2026_07_06_17_06_50.900,3.869,30.1,0,0.757,0,0,0,0, ,0,0,0,0,0, ,619.9,-85.9,321.4,45.4,250.1,-14.8,25,737.056,-60.6063,-428.349,9.42884,127.491,9.20919,
2026_07_06_17_06_50.921,3.869,30,0,0.759,0,0,0,0, ,0,0,0,0,0, ,548.5,-72.7,398.4,48.7,226,-24.2,25,727.741,-61.7455,-380.315,11.7214,134.228,7.45972,
2026_07_06_17_06_50.941,3.869,30,0,0.759,0,0,0,0, ,0,0,0,0,0, ,537.4,-47.6,507.5,47.1,187.2,-30.4,25,716.481,-61.6482,-329.538,13.926,138.638,5.34155,
2026_07_06_17_06_50.960,3.869,30.1,0,0.759,0,0,0,0, ,0,0,0,0,0, ,536.2,-32.7,562.3,45.4,169.2,-32.1,25,705.531,-60.3382,-276.861,15.8958,141.049,3.11176,
2026_07_06_17_06_50.980,3.869,30.1,0,0.757,0,0,0,0, ,0,0,0,0,0, ,550.9,-13.6,622.1,42.7,147.1,-37.8,25,695.661,-58.072,-223.903,17.6114,142.091,0.792369,
2026_07_06_17_06_51.000,3.869,30,0,0.76,0,0,0,0, ,0,0,0,0,0, ,572.7,4.8,645.8,43.5,139.6,-45.6,25,687.504,-54.8014,-171.628,19.1646,142.168,-1.79701,
2026_07_06_17_06_51.019,3.869,30,0,0.759,0,0,0,0, ,0,0,0,0,0, ,568.9,14.6,694.8,45.7,122.8,-51.1,25,680.392,-50.8708,-120.323,20.7146,141.5,-4.63383,
2026_07_06_17_06_51.039,3.869,30,0,0.757,0,0,0,0, ,0,0,0,0,0, ,570.9,38.5,747.8,45.4,96.7,-47.3,25,673.659,-46.153,-69.0363,22.228,139.565,-7.34958,
2026_07_06_17_06_51.059,3.869,30.1,0,0.757,0,0,0,0, ,0,0,0,0,0, ,570.6,80.9,782.4,43.9,76.1,-40.3,25,667.388,-39.7026,-18.2061,23.5943,136.325,-9.57078,
2026_07_06_17_06_51.079,3.869,30.1,0,0.759,0,0,0,0, ,0,0,0,0,0, ,598.6,114.3,834.5,41.9,60.3,-35.3,25,662.343,-31.3357,32.1683,24.7708,132.174,-11.291,
2026_07_06_17_06_51.098,3.869,30.1,0,0.759,0,0,0,0, ,0,0,0,0,0, ,617.1,136.5,875.9,36,48.5,-29.5,25,659.022,-21.7846,82.3218,25.6348,127.434,-12.5773,
2026_07_06_17_06_51.118,3.869,30.1,0,0.759,0,0,0,0, ,0,0,0,0,0, ,614.8,171.2,903.4,34,40.3,-23.6,25,656.398,-11.0819,131.518,26.2055,122.374,-13.4288,
2026_07_06_17_06_51.139,3.869,30.1,0,0.761,0,0,0,0, ,0,0,0,0,0, ,606.3,193.1,964.7,29.3,29.9,-19.8,25,653.604,0.693164,180.423,26.5373,117.056,-13.9328,
2026_07_06_17_06_51.158,3.869,30,0,0.76,0,0,0,0, ,0,0,0,0,0, ,1118.5,244.6,1271.3,34.7,82.3,-25.7,25,666.327,13.9871,237.556,26.8702,113.342,-14.4701,
2026_07_06_17_06_51.178,3.869,30,0,0.756,0,0,0,0, ,0,0,0,0,0, ,528.1,263.6,1047.8,12.7,99.4,-21.8,25,675.893,28.619,293.74,26.677,111.971,-15.0356,
2026_07_06_17_06_51.198,3.869,30,0,0.759,0,0,0,0, ,0,0,0,0,0, ,488.8,187,962,7.1,52.9,-17.7,25,665.689,40.6042,337.076,25.6546,109.788,-15.3229,
2026_07_06_17_06_51.217,3.869,30,0,0.757,0,0,0,0, ,0,0,0,0,0, ,537.3,184.3,936.4,2,32.1,-13.1,25,656.388,49.4429,374.378,24.3686,105.688,-15.3276,
2026_07_06_17_06_51.237,3.869,30,0,0.759,0,0,0,0, ,0,0,0,0,0, ,493.4,193.8,933.3,-1.7,11.5,-2.2,25,647.793,57.9503,408.532,22.8928,100.576,-14.8597,
2026_07_06_17_06_51.258,3.869,30.1,0,0.759,0,0,0,0, ,0,0,0,0,0, ,453.7,175.4,914.7,-3.4,-0.9,-1,25,637.175,65.668,439.943,21.3423,94.7701,-14.0517,
2026_07_06_17_06_51.276,3.869,30,0,0.759,0,0,0,0, ,0,0,0,0,0, ,440.7,186.6,885.7,-3,-5.4,-0.1,25,625.599,72.696,467.99,19.8468,88.8031,-13.229,
2026_07_06_17_06_51.296,3.869,30,0,0.757,0,0,0,0, ,0,0,0,0,0, ,451.1,172.8,872,-3.6,-6.5,-1.9,25,614.648,79.2166,493.027,18.4363,83.029,-12.4838,
2026_07_06_17_06_51.317,3.869,30,0,0.759,0,0,0,0, ,0,0,0,0,0, ,464.2,168.7,863.7,-2,-5.9,-2.6,25,605.081,84.7944,515.867,17.1422,77.5917,-11.8601,
2026_07_06_17_06_51.337,3.869,30.1,0,0.76,0,0,0,0, ,0,0,0,0,0, ,468.9,165.6,863.1,-1.7,-5.5,-3.2,25,596.639,89.8129,537.045,15.9849,72.5161,-11.3141,
2026_07_06_17_06_51.356,3.869,30.1,0,0.756,0,0,0,0, ,0,0,0,0,0, ,474.9,167.3,854.8,-1.8,-5.2,-4.3,25,589.038,94.483,556.661,14.9041,67.7711,-10.8532,
2026_07_06_17_06_51.376,3.869,30.1,0,0.759,0,0,0,0, ,0,0,0,0,0, ,479.8,157.3,861,-3.9,-5.9,-3.2,25,582.232,98.6156,575.018,13.8222,63.3031,-10.4203,
2026_07_06_17_06_51.396,3.869,30.1,0,0.759,0,0,0,0, ,0,0,0,0,0, ,493.5,151.7,856.3,-2.9,-7.1,-4.1,25,576.408,102.021,592.302,12.7728,59.0495,-10.0078,
2026_07_06_17_06_51.415,3.869,30,0,0.759,0,0,0,0, ,0,0,0,0,0, ,485.7,159.4,854.2,-1.3,-6.7,-2.5,25,571.118,105.283,608.325,11.8665,55.0307,-9.59902,
2026_07_06_17_06_51.435,3.869,30,0,0.759,0,0,0,0, ,0,0,0,0,0, ,483.1,160.1,850.4,-1.2,-5.6,-1.8,25,565.833,108.602,623.192,11.0672,51.3025,-9.14509,
2026_07_06_17_06_51.459,3.869,30.1,0,0.759,0,0,0,0, ,0,0,0,0,0, ,485.5,161.1,847.9,-1.3,-3.8,-2.8,25,560.865,111.771,636.962,10.3166,47.8898,-8.72797,
2026_07_06_17_06_51.474,3.869,30.1,0,0.759,0,0,0,0, ,0,0,0,0,0, ,487.6,164,851.1,-1,-2.7,-3.4,25,556.336,114.865,649.913,9.61785,44.7735,-8.38501,
2026_07_06_17_06_51.494,3.869,30,0,0.759,0,0,0,0, ,0,0,0,0,0, ,488.8,164.5,859.8,-1,-3,-2.7,25,552.184,117.874,662.438,8.97083,41.8714,-8.05991,
2026_07_06_17_06_51.516,3.869,30,0,0.759,0,0,0,0, ,0,0,0,0,0, ,484.3,165.4,853,-0.7,-3.2,-1.5,25,548.185,120.743,674.258,8.37237,39.131,-7.69673,
2026_07_06_17_06_51.534,3.869,30,0,0.76,0,0,0,0, ,0,0,0,0,0, ,488.4,163.5,844.9,-0.5,-2,-2.2,25,544.417,123.406,684.903,7.82562,36.588,-7.34045,
2026_07_06_17_06_51.554,3.869,30,0,0.759,0,0,0,0, ,0,0,0,0,0, ,487.9,162.4,844.1,-0.8,-0.4,-2.7,25,540.988,125.816,694.628,7.30913,34.2853,-7.04243,
2026_07_06_17_06_51.573,3.869,30.1,0,0.757,0,0,0,0, ,0,0,0,0,0, ,486.4,164,849.3,0,0.2,-3.2,25,537.707,128.094,703.895,6.83936,32.19,-6.79305,
2026_07_06_17_06_51.592,3.869,30,0,0.759,0,0,0,0, ,0,0,0,0,0, ,484.3,167.7,856.9,-0.5,0.1,-2.7,25,534.517,130.395,712.987,6.40735,30.2375,-6.55887,
2026_07_06_17_06_51.613,3.869,30.1,0,0.759,0,0,0,0, ,0,0,0,0,0, ,487,169.3,857.2,-0.6,-0.4,-3.1,25,531.539,132.717,721.766,5.98339,28.3858,-6.3359,
2026_07_06_17_06_51.633,3.869,30.1,0,0.76,0,0,0,0, ,0,0,0,0,0, ,487.7,167.9,862,-0.8,-1.1,-3,25,528.846,134.904,730.166,5.57612,26.6103,-6.13567,
2026_07_06_17_06_51.653,3.869,30,0,0.759,0,0,0,0, ,0,0,0,0,0, ,484.3,166.6,854.7,-0.5,-2,-2.9,25,526.235,136.875,737.977,5.19671,24.8943,-5.94154,
2026_07_06_17_06_51.673,3.869,30,0,0.76,0,0,0,0, ,0,0,0,0,0, ,480.8,163.3,847.6,0.1,-0.4,-2.8,25,523.573,138.586,744.873,4.86785,23.3042,-5.75315,
2026_07_06_17_06_51.692,3.869,30,0,0.759,0,0,0,0, ,0,0,0,0,0, ,482.7,167.9,855.5,0.5,0,-3.5,25,521.025,140.232,751.374,4.5895,21.8719,-5.59452,
2026_07_06_17_06_51.712,3.869,30,0,0.759,0,0,0,0, ,0,0,0,0,0, ,483.8,164.1,854.8,0.3,0,-3,25,518.723,141.802,757.698,4.3342,20.5391,-5.45165,
2026_07_06_17_06_51.732,3.869,30.1,0,0.759,0,0,0,0, ,0,0,0,0,0, ,485.7,165.5,862.3,-0.1,-0.2,-2.7,25,516.652,143.203,763.843,4.07618,19.2814,-5.29311,
2026_07_06_17_06_51.753,3.869,30,0,0.759,0,0,0,0, ,0,0,0,0,0, ,489.3,168.2,859.6,-1.3,-1.7,-1.5,25,514.876,144.644,769.761,3.78513,18.0485,-5.09853,
2026_07_06_17_06_51.772,3.869,30,0,0.759,0,0,0,0, ,0,0,0,0,0, ,485.5,165.8,853.2,-1.4,-2.1,-1.6,25,513.202,146.007,775.04,3.47221,16.8329,-4.88229,
2026_07_06_17_06_51.791,3.869,30,0,0.759,0,0,0,0, ,0,0,0,0,0, ,485.5,166.9,850.2,-0.8,-1.4,-2.4,25,511.514,147.246,779.712,3.19359,15.7005,-4.70666,
2026_07_06_17_06_51.811,3.869,30,0,0.759,0,0,0,0, ,0,0,0,0,0, ,486.6,165.5,856.2,-0.4,-1.4,-2.3,25,509.962,148.401,784.19,2.96242,14.6585,-4.56305,
2026_07_06_17_06_51.832,3.869,30,0,0.76,0,0,0,0, ,0,0,0,0,0, ,486.5,168.5,859,-0.7,-1.7,-2.2,25,508.535,149.535,788.663,2.74838,13.6708,-4.4221,
2026_07_06_17_06_51.851,3.869,30,0,0.759,0,0,0,0, ,0,0,0,0,0, ,487.7,167.2,858.2,-1.2,-2.6,-2.1,25,507.229,150.651,792.925,2.52301,12.7067,-4.28364,
2026_07_06_17_06_51.876,3.869,30,0,0.759,0,0,0,0, ,0,0,0,0,0, ,485.2,165,851.3,-1.4,-2.8,-1.9,25,505.963,151.592,796.693,2.29005,11.7678,-4.14448,
2026_07_06_17_06_51.890,3.869,30,0,0.759,0,0,0,0, ,0,0,0,0,0, ,486.2,163.5,849.3,-1.2,-2.2,-2.2,25,504.728,152.364,799.959,2.07128,10.8984,-4.01685,
2026_07_06_17_06_51.910,3.869,30,0,0.759,0,0,0,0, ,0,0,0,0,0, ,494.5,164,844.2,-0.6,-1.6,-2.5,25,503.852,153.057,802.811,1.89021,10.1185,-3.91527,
2026_07_06_17_06_51.929,3.869,30,0,0.759,0,0,0,0, ,0,0,0,0,0, ,492,166.5,844.7,0.1,0,-2,25,503.206,153.8,805.348,1.7598,9.45314,-3.8138,
2026_07_06_17_06_51.949,3.869,30,0,0.759,0,0,0,0, ,0,0,0,0,0, ,490.3,167.3,856,0.1,0.3,-2.2,25,502.471,154.599,808.09,1.65865,8.88623,-3.70936,
2026_07_06_17_06_51.969,3.869,30,0,0.757,0,0,0,0, ,0,0,0,0,0, ,490.3,167.9,854.3,0.1,-0.1,-1.8,25,501.729,155.391,810.958,1.56367,8.35082,-3.6052,
2026_07_06_17_06_51.989,3.869,30.1,0,0.759,0,0,0,0, ,0,0,0,0,0, ,485.9,166.2,853,0,-0.4,-1.7,25,500.899,156.101,813.56,1.47143,7.82671,-3.49215,
2026_07_06_17_06_52.009,3.869,30,0,0.759,0,0,0,0, ,0,0,0,0,0, ,491.9,169.6,853.7,0.2,-0.3,-1.7,25,500.168,156.82,815.984,1.38786,7.32844,-3.38294,
2026_07_06_17_06_52.028,3.869,30,0,0.759,0,0,0,0, ,0,0,0,0,0, ,487.5,169.4,862.9,-0.3,-1.8,-1.2,25,499.53,157.593,818.563,1.30024,6.81788,-3.26515,
2026_07_06_17_06_52.048,3.869,30.1,0,0.76,0,0,0,0, ,0,0,0,0,0, ,483.3,170.1,859.9,-0.5,-2.7,-1.2,25,498.669,158.334,821.173,1.19663,6.2653,-3.1393,
2026_07_06_17_06_52.067,3.869,30.1,0,0.76,0,0,0,0, ,0,0,0,0,0, ,493,179.8,881.4,-0.9,-5.2,-0.9,25,498.028,159.346,824.188,1.08106,5.64281,-3.01199,
2026_07_06_17_06_52.089,3.869,30.1,0,0.759,0,0,0,0, ,0,0,0,0,0, ,500.3,194.5,914,-2.8,-14.9,1.4,25,497.944,161.041,828.668,0.902445,4.68653,-2.81321,
2026_07_06_17_06_52.112,3.869,30.1,0,0.757,0,0,0,0, ,0,0,0,0,0, ,525.3,204.5,946.4,-6.6,-34.4,6.5,25,498.849,163.384,834.855,0.561046,2.89883,-2.40108,
2026_07_06_17_06_52.129,3.869,30,0,0.759,0,0,0,0, ,0,0,0,0,0, ,543,210,961,-11.1,-58.4,15.9,25,501,166.057,842.097,-0.0124395,-0.105314,-1.57226,
2026_07_06_17_06_52.148,3.869,30.1,0,0.759,0,0,0,0, ,0,0,0,0,0, ,593.3,163.2,951.9,-15.5,-86.6,22.8,25,505.092,167.309,849.066,-0.82215,-4.51686,-0.297311,
2026_07_06_17_06_52.167,3.869,30,0,0.759,0,0,0,0, ,0,0,0,0,0, ,618.2,178.7,894.2,-18.7,-114.9,31.6,25,511.226,167.531,853.574,-1.81408,-10.3811,1.37831,
2026_07_06_17_06_52.188,3.869,30,0,0.756,0,0,0,0, ,0,0,0,0,0, ,660.6,150.3,856,-20.3,-140.9,37.1,25,519.037,167.346,854.886,-2.89182,-17.5424,3.38752,
2026_07_06_17_06_52.207,3.869,30.1,0,0.757,0,0,0,0, ,0,0,0,0,0, ,682.9,145.2,806,-15.2,-151.6,36.9,25,528.343,166.152,853.43,-3.79724,-25.3855,5.43578,
2026_07_06_17_06_52.227,3.869,30.1,0,0.756,0,0,0,0, ,0,0,0,0,0, ,715.2,129.8,758.6,-15.4,-156.3,35.1,25,538.745,164.406,849.096,-4.49819,-33.2199,7.29829,
2026_07_06_17_06_52.247,3.869,30,0,0.758,0,0,0,0, ,0,0,0,0,0, ,756.8,118.5,694.5,-15.8,-171.3,39.9,25,550.765,161.953,841.628,-5.1747,-41.1771,9.1387,
2026_07_06_17_06_52.266,3.869,30,0,0.759,0,0,0,0, ,0,0,0,0,0, ,748.4,101.8,630.2,-16.5,-196,46.3,25,563.065,158.796,830.703,-5.84351,-49.8591,11.2082,
2026_07_06_17_06_52.286,3.869,30.1,0,0.759,0,0,0,0, ,0,0,0,0,0, ,743.2,78.9,549.3,-24.7,-239.9,51,25,574.2,154.625,816.02,-6.74273,-60.1021,13.4898,
2026_07_06_17_06_52.305,3.869,30.1,0,0.759,0,0,0,0, ,0,0,0,0,0, ,726.1,61.1,512.9,-22.5,-250.1,52.8,25,583.977,149.469,798.658,-7.76997,-71.3693,15.8304,
2026_07_06_17_06_52.326,3.869,30,0,0.759,0,0,0,0, ,0,0,0,0,0, ,794,31.3,432.7,-20.9,-250.1,58,25,594.707,143.176,778.801,-8.61883,-82.2607,18.2417,
2026_07_06_17_06_52.349,3.869,30,0,0.759,0,0,0,0, ,0,0,0,0,0, ,849.4,8.6,371.4,-19.1,-250.1,53.2,25,608.539,135.667,755.843,-9.31237,-92.4884,20.5182,
2026_07_06_17_06_52.365,3.869,30,0,0.759,0,0,0,0, ,0,0,0,0,0, ,847.4,-20.2,272.3,-16.7,-250.1,42.2,25,623.156,127.046,729.396,-9.83568,-102.093,22.1746,
2026_07_06_17_06_52.385,3.869,30,0,0.759,0,0,0,0, ,0,0,0,0,0, ,799,-27.4,166,-14.8,-250.1,35.9,25,635.346,117.854,698.303,-10.1961,-111.112,23.203,
2026_07_06_17_06_52.404,3.869,30,0,0.757,0,0,0,0, ,0,0,0,0,0, ,850,-53.1,73.9,-6.9,-250.1,34.2,25,646.873,108.219,663.06,-10.2359,-119.582,23.9249,
2026_07_06_17_06_52.425,3.869,30.1,0,0.759,0,0,0,0, ,0,0,0,0,0, ,816.5,-60.1,-65.1,-15.4,-250.1,25.8,25,658.23,98.1756,622.923,-10.2916,-127.535,24.2951,
2026_07_06_17_06_52.445,3.869,30,0,0.757,0,0,0,0, ,0,0,0,0,0, ,815.3,-75,-179.1,-17.8,-250.1,16.9,25,667.838,88.0767,577.523,-10.6761,-135.004,24.1156,
2026_07_06_17_06_52.464,3.869,30,0,0.757,0,0,0,0, ,0,0,0,0,0, ,843.9,-88.7,-278.3,-21.5,-250.1,9.7,25,677.695,77.7218,528.394,-11.2229,-142.018,23.4566,
2026_07_06_17_06_52.483,3.869,30.1,0,0.759,0,0,0,0, ,0,0,0,0,0, ,865.3,-95,-356.6,-20.1,-250.1,3.2,25,688.475,67.3885,476.85,-11.8065,-148.604,22.4202,
2026_07_06_17_06_52.503,3.869,30.1,0,0.757,0,0,0,0, ,0,0,0,0,0, ,878.6,-95,-464.9,-8.9,-199.6,-5,25,699.656,57.493,422.762,-11.9706,-153.25,20.9991,
2026_07_06_17_06_52.522,3.869,30,0,0.759,0,0,0,0, ,0,0,0,0,0, ,895.2,-79.5,-482.6,-5.2,-150.6,-8.8,25,711.066,48.6727,368.131,-11.6708,-154.582,19.299,
2026_07_06_17_06_52.543,3.869,30,0,0.757,0,0,0,0, ,0,0,0,0,0, ,889.8,-66.5,-491.3,-8,-113.9,-9.7,25,722.122,41.2583,316.024,-11.3618,-153.221,17.5593,
2026_07_06_17_06_52.563,3.869,30.1,0,0.757,0,0,0,0, ,0,0,0,0,0, ,868.6,-51.2,-478.7,-13.8,-94,-9.2,25,731.694,35.1579,267.212,-11.3336,-150.218,15.9134,
2026_07_06_17_06_52.583,3.869,30.1,0,0.759,0,0,0,0, ,0,0,0,0,0, ,869.1,-44.3,-472.6,-22.3,-80,-6,25,740.052,30.1057,221.944,-11.7429,-146.366,14.4806,
2026_07_06_17_06_52.603,3.869,30,0,0.757,0,0,0,0, ,0,0,0,0,0, ,825.4,-41.5,-526.1,-30.1,-61.7,-5.4,25,746.584,25.6569,177.99,-12.6239,-141.764,13.2508,
2026_07_06_17_06_52.623,3.869,30,0,0.757,0,0,0,0, ,0,0,0,0,0, ,763.5,-37.5,-585.5,-32.8,-52.9,-7.1,25,749.501,21.6864,133.275,-13.7711,-136.617,12.0625,
2026_07_06_17_06_52.643,3.869,30.1,0,0.759,0,0,0,0, ,0,0,0,0,0, ,732.4,-34.3,-609.8,-30,-59.5,-4.5,25,749.407,18.1773,88.7338,-14.8454,-131.717,10.974,
2026_07_06_17_06_52.662,3.869,30,0,0.757,0,0,0,0, ,0,0,0,0,0, ,743.4,-35.2,-644.2,-32.9,-71.4,-2.3,25,748.706,14.952,45.1188,-15.8572,-127.679,10.0981,
2026_07_06_17_06_52.682,3.869,30.1,0,0.758,0,0,0,0, ,0,0,0,0,0, ,724.2,-10.6,-736.2,-21,-75.8,3.5,25,747.797,12.6454,0.310333,-16.5332,-124.383,9.51931,
2026_07_06_17_06_52.701,3.869,30,0,0.758,0,0,0,0, ,0,0,0,0,0, ,732.2,-42.4,-702.6,-19.3,-72.4,5.4,25,746.603,10.26,-43.547,-16.7536,-121.319,9.2104,
2026_07_06_17_06_52.721,3.869,30,0,0.759,0,0,0,0, ,0,0,0,0,0, ,684.8,-0.9,-725.2,-20.8,-78.7,0.3,25,744.281,8.31547,-84.3966,-16.9545,-118.53,8.82281,
2026_07_06_17_06_52.741,3.869,30,0,0.759,0,0,0,0, ,0,0,0,0,0, ,732.1,7.8,-670.4,-23,-92.1,6.6,25,742.098,8.01898,-121.776,-17.2558,-116.511,8.4954,
2026_07_06_17_06_52.761,3.869,30,0,0.757,0,0,0,0, ,0,0,0,0,0, ,767.8,-3.2,-697.8,-28.7,-78.7,15.8,25,742.576,7.67048,-156.043,-17.7795,-114.615,8.66022,
2026_07_06_17_06_52.783,3.869,30,0,0.759,0,0,0,0, ,0,0,0,0,0, ,734.1,-9.1,-781.6,-32,-44.1,14.9,25,743.086,6.8283,-191.609,-18.5456,-111.373,9.06787,
2026_07_06_17_06_52.800,3.869,30,0,0.76,0,0,0,0, ,0,0,0,0,0, ,683.5,-1.8,-814.3,-28.6,-18.5,10.3,25,740.997,6.08009,-228.558,-19.2618,-106.493,9.28311,
2026_07_06_17_06_52.820,3.869,30.1,0,0.761,0,0,0,0, ,0,0,0,0,0, ,658.5,6.1,-832.3,-24.1,-7.5,6.8,25,736.732,5.8406,-264.8,-19.6938,-100.796,9.23844,
2026_07_06_17_06_52.841,3.869,30,0,0.759,0,0,0,0, ,0,0,0,0,0, ,653.3,3.7,-832.5,-17.4,-11.6,5.3,25,731.806,5.78328,-299.388,-19.7581,-95.2356,9.04414,
2026_07_06_17_06_52.860,3.869,30,0,0.759,0,0,0,0, ,0,0,0,0,0, ,659.3,8.9,-807.6,-13.2,-9.3,11.1,25,727.205,5.81477,-331.116,-19.4865,-90.0689,8.9927,
2026_07_06_17_06_52.879,3.869,30.1,0,0.76,0,0,0,0, ,0,0,0,0,0, ,629.6,22.7,-800.5,-9.4,-8.5,11.1,25,722.162,6.42324,-359.935,-18.9876,-85.1227,9.12112,
2026_07_06_17_06_52.899,3.869,30.1,0,0.759,0,0,0,0, ,0,0,0,0,0, ,629.1,22.2,-795.7,-7.5,-2.1,9.1,25,716.506,7.39987,-386.636,-18.3455,-80.2585,9.18077,
2026_07_06_17_06_52.919,3.869,30.1,0,0.759,0,0,0,0, ,0,0,0,0,0, ,635.8,9.3,-805.2,-4.8,5.4,7.6,25,711.384,7.90871,-411.853,-17.6023,-75.2672,9.13014,
2026_07_06_17_06_52.939,3.869,30,0,0.76,0,0,0,0, ,0,0,0,0,0, ,635,2.6,-785.2,-1.1,14.6,7.4,25,706.754,7.78935,-435.213,-16.7094,-70.0712,9.03081,
2026_07_06_17_06_52.959,3.869,30,0,0.757,0,0,0,0, ,0,0,0,0,0, ,622.3,7.3,-778.9,-0.8,17.4,6.9,25,701.994,7.61633,-456.348,-15.7491,-64.8263,8.91619,
2026_07_06_17_06_52.978,3.869,30,0,0.759,0,0,0,0, ,0,0,0,0,0, ,619,5.2,-767.2,-3.1,17.6,5.4,25,697.037,7.53307,-475.647,-14.9082,-59.8095,8.74763,
2026_07_06_17_06_53.000,3.869,30,0,0.76,0,0,0,0, ,0,0,0,0,0, ,645.9,8,-773.3,-5.6,19.6,2.8,25,693.102,7.47621,-493.6,-14.2648,-55.0314,8.46441,
2026_07_06_17_06_53.019,3.869,30,0,0.757,0,0,0,0, ,0,0,0,0,0, ,736.6,-15.6,-791.9,-3.8,31.8,-2,25,692.989,6.78906,-511.211,-13.682,-50.1119,7.97299,
2026_07_06_17_06_53.038,3.869,30,0,0.759,0,0,0,0, ,0,0,0,0,0, ,780,-19.4,-798.9,7.4,55.3,7.7,25,696.969,5.30895,-528.529,-12.7385,-44.4043,7.66081,
2026_07_06_17_06_53.058,3.869,30,0,0.758,0,0,0,0, ,0,0,0,0,0, ,857.7,-40,-776.4,13,91.9,13.6,25,704.396,3.17559,-544.319,-11.3407,-37.2135,7.84296,
2026_07_06_17_06_53.077,3.869,30,0,0.759,0,0,0,0, ,0,0,0,0,0, ,825,-23.4,-751,21.6,141.4,16.9,25,712.741,1.05036,-557.687,-9.59542,-27.8374,8.29433,
2026_07_06_17_06_53.097,3.869,30.1,0,0.756,0,0,0,0, ,0,0,0,0,0, ,767.2,-11.2,-691.1,24.6,166.9,13.6,25,717.821,-0.0678642,-567.642,-7.60304,-16.7475,8.71819,
2026_07_06_17_06_53.117,3.869,30,0,0.758,0,0,0,0, ,0,0,0,0,0, ,791.5,-37.3,-637.6,20.9,165.2,14.5,25,721.571,-1.54146,-573.535,-5.75341,-5.60832,9.0431,
2026_07_06_17_06_53.137,3.869,30.1,0,0.76,0,0,0,0, ,0,0,0,0,0, ,858.6,-59.9,-602.5,19,168.4,22.1,25,727.876,-4.40909,-576.37,-4.18711,4.89781,9.60719,
2026_07_06_17_06_53.157,3.869,30,0,0.758,0,0,0,0, ,0,0,0,0,0, ,868.6,-58.7,-560.4,19.8,188.5,26.1,25,736.147,-7.75401,-576.679,-2.74977,15.4736,10.4903,
2026_07_06_17_06_53.176,3.869,30,0,0.759,0,0,0,0, ,0,0,0,0,0, ,820.9,-53.2,-517.4,20.1,214,18.8,25,742.765,-10.6909,-574.377,-1.3665,26.7944,11.2191,
2026_07_06_17_06_53.196,3.869,30,0,0.759,0,0,0,0, ,0,0,0,0,0, ,840.6,-57.1,-449.3,19.2,231.3,5.5,25,748.127,-13.4002,-568.83,-0.0858065,38.7293,11.2759,
2026_07_06_17_06_53.217,3.869,30,0,0.759,0,0,0,0, ,0,0,0,0,0, ,900.5,-58.1,-349.7,14.8,235.1,-2.3,25,755.587,-16.0936,-558.512,0.95536,50.5799,10.6862,
2026_07_06_17_06_53.237,3.869,30,0,0.758,0,0,0,0, ,0,0,0,0,0, ,960.9,-50.4,-229.6,5,233.3,2.1,25,766.258,-18.4188,-542.128,1.50042,61.7692,10.029,
2026_07_06_17_06_53.255,3.869,30,0,0.759,0,0,0,0, ,0,0,0,0,0, ,999,-77.8,-159.7,6.5,250.1,7.3,25,779.28,-21.2025,-520.954,1.75938,72.7338,9.70422,
2026_07_06_17_06_53.274,3.869,30,0,0.759,0,0,0,0, ,0,0,0,0,0, ,958.6,-88.5,-131.3,29.9,250.1,-3.7,25,791.438,-24.9774,-498.074,2.76123,83.542,9.22256,
2026_07_06_17_06_53.294,3.869,30,0,0.758,0,0,0,0, ,0,0,0,0,0, ,895.9,-91.7,-43.2,34.8,250.1,-14.6,25,799.714,-28.9458,-473.04,4.5643,93.6917,8.10298,
2026_07_06_17_06_53.315,3.869,30,0,0.758,0,0,0,0, ,0,0,0,0,0, ,878.5,-72.3,101.4,35.7,250.1,-21.9,25,805.045,-32.1788,-442.441,6.43421,103.223,6.49709,
2026_07_06_17_06_53.335,3.869,30,0,0.758,0,0,0,0, ,0,0,0,0,0, ,880.6,-63.4,208.9,38,250.1,-26.6,25,809.585,-34.3525,-406.025,8.28767,112.173,4.62344,
2026_07_06_17_06_53.355,3.869,30,0,0.759,0,0,0,0, ,0,0,0,0,0, ,847,-69.5,307.7,38.4,250.1,-23.4,25,812.889,-36.3084,-365.543,10.1105,120.578,2.81826,
2026_07_06_17_06_53.374,3.869,30,0,0.76,0,0,0,0, ,0,0,0,0,0, ,751.3,-41.1,363.7,43.7,250.1,-21.2,25,812.052,-37.4657,-322.811,11.9958,128.471,1.28762,
2026_07_06_17_06_53.394,3.869,30,0,0.759,0,0,0,0, ,0,0,0,0,0, ,671.2,-10.6,465,52.1,250.1,-28.1,25,805.909,-36.7579,-277.89,14.1837,135.883,-0.292954,
2026_07_06_17_06_53.414,3.869,30,0,0.759,0,0,0,0, ,0,0,0,0,0, ,622.1,6.4,577.7,52.7,250.1,-32.6,25,796.204,-34.6459,-229.186,16.5125,142.843,-2.12455,
2026_07_06_17_06_53.435,3.869,30.1,0,0.758,0,0,0,0, ,0,0,0,0,0, ,590,16.9,666.1,51.6,237.9,-29.9,25,784.617,-31.8248,-177.323,18.6842,149.007,-3.89939,
2026_07_06_17_06_53.454,3.869,30,0,0.758,0,0,0,0, ,0,0,0,0,0, ,509.3,40.4,708.4,53,225.4,-31.3,25,770.298,-28.1396,-124.638,20.7327,154.043,-5.52645,
2026_07_06_17_06_53.472,3.869,29.9,0,0.758,0,0,0,0, ,0,0,0,0,0, ,441.7,72.8,743.7,52.7,210,-39.2,25,752.334,-22.9758,-72.7994,22.6898,157.922,-7.33773,
2026_07_06_17_06_53.493,3.869,30.1,0,0.758,0,0,0,0, ,0,0,0,0,0, ,454.3,77.1,755,55.4,189.7,-40.9,25,733.789,-17.0084,-22.6997,24.6008,160.477,-9.33114,
2026_07_06_17_06_53.513,3.869,30,0,0.757,0,0,0,0, ,0,0,0,0,0, ,425,114.3,804.4,60.7,174.6,-33.7,25,715.865,-10.1403,26.1965,26.6391,161.798,-11.0355,
2026_07_06_17_06_53.533,3.869,30,0,0.759,0,0,0,0, ,0,0,0,0,0, ,375.7,139.5,865.7,64.9,156,-25.1,25,696.638,-1.78937,75.486,28.8427,162.011,-12.1546,
2026_07_06_17_06_53.552,3.869,30,0,0.76,0,0,0,0, ,0,0,0,0,0, ,317.1,178.2,899.1,63.7,134.1,-18.7,25,675.295,7.99959,124.657,31.0034,160.978,-12.7484,
2026_07_06_17_06_53.572,3.869,30.1,0,0.761,0,0,0,0, ,0,0,0,0,0, ,286.6,216.5,944.2,60.9,106.7,-13.2,25,652.539,19.5381,173.224,32.9105,158.505,-12.9435,
2026_07_06_17_06_53.592,3.869,30,0,0.757,0,0,0,0, ,0,0,0,0,0, ,265.6,244.9,1000.7,56.7,83.6,-6.5,25,629.599,32.4058,221.927,34.4881,154.644,-12.755,
2026_07_06_17_06_53.611,3.869,30,0,0.757,0,0,0,0, ,0,0,0,0,0, ,239.7,258,1016.8,48.5,70.5,-3.3,25,606.629,45.7538,269.874,35.5918,149.916,-12.2764,
2026_07_06_17_06_53.631,3.869,30,0,0.758,0,0,0,0, ,0,0,0,0,0, ,226.4,259.6,1024.1,44.1,67.9,-2.5,25,583.864,58.7363,315.612,36.2444,144.997,-11.705,
2026_07_06_17_06_53.650,3.869,30,0,0.758,0,0,0,0, ,0,0,0,0,0, ,187.7,263.9,1007.3,31.6,61.6,-2.4,25,560.902,71.1075,358.274,36.3422,140.107,-11.141,
2026_07_06_17_06_53.670,3.869,30,0,0.76,0,0,0,0, ,0,0,0,0,0, ,188.2,290.8,996.2,30.6,54.8,-1.7,25,538.175,83.6754,397.486,36.0228,135.116,-10.587,
2026_07_06_17_06_53.691,3.869,30.1,0,0.759,0,0,0,0, ,0,0,0,0,0, ,173.4,302.3,1018.1,30,49.2,-0.6,25,516.398,96.6474,434.637,35.674,130.051,-10.012,
2026_07_06_17_06_53.710,3.869,30,0,0.759,0,0,0,0, ,0,0,0,0,0, ,136.4,307.2,1036.3,23.6,32.6,4.7,25,494.369,109.329,470.746,35.1333,124.618,-9.27693,
2026_07_06_17_06_53.731,3.869,30,0,0.759,0,0,0,0, ,0,0,0,0,0, ,117,309,1024.6,15.4,17.8,6.4,25,471.964,121.441,504.853,34.1806,118.56,-8.37342,
2026_07_06_17_06_53.749,3.869,30,0,0.757,0,0,0,0, ,0,0,0,0,0, ,118.8,313.7,995.8,12,12.9,4.1,25,450.388,133.014,535.648,32.9326,112.271,-7.54324,
2026_07_06_17_06_53.770,3.869,29.9,0,0.759,0,0,0,0, ,0,0,0,0,0, ,109.6,315.4,992.7,9.9,7.3,2.1,25,429.902,144.076,563.594,31.593,106.045,-6.89467,
2026_07_06_17_06_53.790,3.869,30,0,0.758,0,0,0,0, ,0,0,0,0,0, ,109.2,314,994.8,6.4,-7.7,2.6,25,410.371,154.474,589.807,30.1645,99.5704,-6.33132,
2026_07_06_17_06_53.810,3.869,30,0,0.759,0,0,0,0, ,0,0,0,0,0, ,131.7,315.3,992.5,2.2,-22.4,4.6,25,392.704,164.234,614.416,28.5883,92.5857,-5.72613,
2026_07_06_17_06_53.830,3.869,30,0,0.759,0,0,0,0, ,0,0,0,0,0, ,158.4,312.3,976.8,0,-27.6,6,25,377.613,173.348,636.977,26.9133,85.4204,-5.05423,
2026_07_06_17_06_53.859,3.869,30,0,0.758,0,0,0,0, ,0,0,0,0,0, ,183.5,305.5,957,1.8,-21.2,4.8,25,365.019,181.609,657.082,25.3281,78.7282,-4.41717,
2026_07_06_17_06_53.869,3.869,30,0,0.759,0,0,0,0, ,0,0,0,0,0, ,177.4,298.5,958.9,2.4,-16.1,3.8,25,353.772,188.945,675.416,23.9126,72.7942,-3.88597,
2026_07_06_17_06_53.888,3.869,30.1,0,0.758,0,0,0,0, ,0,0,0,0,0, ,182.4,301.1,954.2,0.5,-18.7,3.1,25,343.177,195.7,692.547,22.5438,67.298,-3.43893,
2026_07_06_17_06_53.909,3.869,30.1,0,0.759,0,0,0,0, ,0,0,0,0,0, ,207.7,299.3,952.1,-3.3,-21.7,3.3,25,334.15,202.068,708.428,21.0847,61.9661,-3.03437,
2026_07_06_17_06_53.928,3.869,30,0,0.758,0,0,0,0, ,0,0,0,0,0, ,236.2,302.4,944.3,-4,-18,4.5,25,327.313,208.088,723.039,19.5775,56.9804,-2.61181,
2026_07_06_17_06_53.949,3.869,30,0,0.759,0,0,0,0, ,0,0,0,0,0, ,237.1,312,974.7,-3.3,-7.9,3.8,25,321.788,214.127,737.448,18.162,52.719,-2.19976,
2026_07_06_17_06_53.968,3.869,30,0,0.757,0,0,0,0, ,0,0,0,0,0, ,201.1,304,977.9,-4.8,-12.6,5,25,315.531,219.848,752.003,16.8085,48.8819,-1.79759,
2026_07_06_17_06_53.988,3.869,30,0,0.759,0,0,0,0, ,0,0,0,0,0, ,210.5,291.3,946,-8,-25,6,25,308.844,224.589,764.797,15.3942,44.7575,-1.35289,
2026_07_06_17_06_54.008,3.869,30,0,0.757,0,0,0,0, ,0,0,0,0,0, ,232.6,277,917.9,-6.5,-33.2,7.5,25,303.525,228.218,774.983,14.0143,40.2568,-0.859122,
2026_07_06_17_06_54.027,3.869,30.1,0,0.759,0,0,0,0, ,0,0,0,0,0, ,196.7,292.9,912.8,19.7,-48,4.8,25,298.109,231.675,783.536,13.5625,35.3296,-0.432004,
2026_07_06_17_06_54.047,3.869,30,0,0.758,0,0,0,0, ,0,0,0,0,0, ,273.6,295,905.6,2.2,-55.9,11.2,25,294.272,235.47,791.194,13.4033,30.011,0.0818214,
2026_07_06_17_06_54.067,3.869,30,0,0.758,0,0,0,0, ,0,0,0,0,0, ,291.8,303.3,945.3,-0.9,-44,6.7,25,293.567,239.351,799.375,12.6262,25.1384,0.622226,
2026_07_06_17_06_54.086,3.869,30.1,0,0.758,0,0,0,0, ,0,0,0,0,0, ,317.6,281.2,964.3,-10.5,-48.2,10.7,25,294.245,242.574,808.846,11.5094,20.7973,1.11447,
2026_07_06_17_06_54.107,3.869,30,0,0.759,0,0,0,0, ,0,0,0,0,0, ,382.3,278.5,831.7,-5.5,-44.9,17.8,25,297.64,244.846,814.279,10.3206,16.6933,1.91491,
2026_07_06_17_06_54.127,3.869,30,0,0.758,0,0,0,0, ,0,0,0,0,0, ,310.4,263.9,925.5,-0.5,-47.6,25.4,25,300.608,246.452,818.199,9.50885,12.8577,3.11447,
2026_07_06_17_06_54.146,3.869,30,0,0.758,0,0,0,0, ,0,0,0,0,0, ,352.4,271.9,986.3,-7.5,-77.8,23,25,302.485,247.759,826.59,8.68565,8.25341,4.39937,
2026_07_06_17_06_54.166,3.869,30,0,0.758,0,0,0,0, ,0,0,0,0,0, ,434.6,356.2,958.3,-26.9,-40.6,9,25,308.031,251.798,835.469,7.10824,4.14296,5.10628,
2026_07_06_17_06_54.186,3.869,30,0,0.758,0,0,0,0, ,0,0,0,0,0, ,390.7,209.3,882.6,-25.7,-49.8,18.3,25,314.406,253.684,840.648,5.07243,1.13613,5.62692,
2026_07_06_17_06_54.204,3.869,30,0,0.759,0,0,0,0, ,0,0,0,0,0, ,334.7,160.2,881.4,-15.3,-42.9,33.7,25,317.349,249.484,843.168,3.51411,-1.75756,6.8684,
2026_07_06_17_06_54.226,3.869,30,0,0.759,0,0,0,0, ,0,0,0,0,0, ,436,256.2,916.6,-14.5,-37.3,35.1,25,321.493,246.968,846.57,2.392,-4.09405,8.54611,
2026_07_06_17_06_54.245,3.869,30,0,0.758,0,0,0,0, ,0,0,0,0,0, ,394,274.5,876.8,-32.1,-55.7,24.3,25,327.191,248.088,849.625,0.826394,-6.67816,9.83517,
2026_07_06_17_06_54.264,3.869,30,0,0.759,0,0,0,0, ,0,0,0,0,0, ,416.8,228.6,833.1,-25.2,-65.6,16.3,25,331.957,248.299,849.949,-0.969824,-9.96707,10.4729,
2026_07_06_17_06_54.285,3.869,30,0,0.758,0,0,0,0, ,0,0,0,0,0, ,449.2,229.7,813.1,-20.8,-64.4,15.3,25,338.114,247.132,848.313,-2.31229,-13.3206,10.7975,
2026_07_06_17_06_54.304,3.869,30,0,0.758,0,0,0,0, ,0,0,0,0,0, ,499.6,197.2,810.4,-10.7,-51.3,10.6,25,346.419,245.08,846.085,-3.13115,-16.0341,10.9287,
2026_07_06_17_06_54.323,3.869,30,0,0.759,0,0,0,0, ,0,0,0,0,0, ,501.5,203.7,839.1,-0.3,-33.5,4.3,25,355.811,242.36,844.785,-3.2755,-17.6408,10.7167,
2026_07_06_17_06_54.344,3.869,30,0,0.759,0,0,0,0, ,0,0,0,0,0, ,503.6,197.3,815.6,-1.7,-27.5,0.2,25,364.753,239.809,843.722,-3.13684,-18.4244,10.2007,
2026_07_06_17_06_54.363,3.869,30,0,0.758,0,0,0,0, ,0,0,0,0,0, ,489.2,183.8,806.5,11.6,-17.3,-1.9,25,372.775,236.808,841.731,-2.64405,-18.6667,9.52734,
2026_07_06_17_06_54.383,3.869,30,0,0.759,0,0,0,0, ,0,0,0,0,0, ,540.6,212.6,734.6,22.7,-2.4,-16.2,25,381.436,234.455,837.394,-1.43785,-18.1294,8.39528,
2026_07_06_17_06_54.403,3.869,30,0,0.757,0,0,0,0, ,0,0,0,0,0, ,514.7,198.8,728.2,14.2,-16,-17.2,25,390.346,232.703,830.935,-0.22593,-17.5853,6.86604,
2026_07_06_17_06_54.424,3.869,30.1,0,0.758,0,0,0,0, ,0,0,0,0,0, ,523.3,173,783,3.5,-29.9,0.8,25,398.186,229.851,826.344,0.327134,-17.9122,5.94795,
2026_07_06_17_06_54.442,3.869,29.9,0,0.758,0,0,0,0, ,0,0,0,0,0, ,540.8,223.8,792.8,4.6,-17.3,0.9,25,406.343,227.934,824.001,0.553996,-18.2588,5.6373,
2026_07_06_17_06_54.462,3.869,30,0,0.76,0,0,0,0, ,0,0,0,0,0, ,552.7,228.3,817.7,2.7,3.8,-5.7,25,414.899,227.819,822.859,0.742659,-17.5575,5.14752,
2026_07_06_17_06_54.483,3.869,30,0,0.759,0,0,0,0, ,0,0,0,0,0, ,522.2,229.8,825.1,-1.1,21.9,-6.2,25,422.367,227.894,822.77,0.746153,-15.7045,4.47127,
