UTC_Time,Vin,TC1,TC2,Rh1,Vh1,Ah1,Acp1,Dty1,Err1,Rh2,Vh2,Ah2,Acp2,Dty2,Err2,Accel_x,Accel_y,Accel_z,gyro_x,gyro_y,gyro_z,Temp_c,Accel_x_h,Accel_y_h,Accel_z_h,gyro_x_h,gyro_y_h,gyro_z_h,
2026_07_06_20_49_21.631,3.87,30,0,0.76,3.823,5.03,18.26,0.95, ,0,0,0,0,0, ,-38.4,339.7,942.8,-0.4,-0.7,-1.7,25,-38.4,339.7,942.8,-0.4,-0.7,-1.7,
2026_07_06_20_49_21.646,3.862,29.9,0,0.763,3.88,5.085,18.74,0.95, ,0,0,0,0,0, ,-40,339.3,941,-0.2,-0.5,-1.6,25,-38.4488,339.688,942.745,-0.393906,-0.693906,-1.69695,
2026_07_06_20_49_21.666,3.862,30.1,0,0.763,0,0,0,0, ,0,0,0,0,0, ,-40.6,338,942.2,-0.3,-0.6,-1.6,25,-38.5616,339.625,942.675,-0.385137,-0.685137,-1.69105,
2026_07_06_20_49_21.686,3.862,30.2,0,0.761,0,0,0,0, ,0,0,0,0,0, ,-39.3,338.2,940.4,-0.3,-0.5,-1.7,25,-38.6462,339.532,942.592,-0.379949,-0.676902,-1.68854,
2026_07_06_20_49_21.706,3.862,30.3,0,0.762,0,0,0,0, ,0,0,0,0,0, ,-37.9,338.7,941.6,-0.2,-0.6,-1.6,25,-38.6434,339.466,942.495,-0.37203,-0.669169,-1.6862,
2026_07_06_20_49_21.726,3.862,30.4,0,0.76,0,0,0,0, ,0,0,0,0,0, ,-40.4,337.1,942,-0.3,-0.6,-1.6,25,-38.6742,339.37,942.452,-0.364594,-0.664954,-1.68094,
2026_07_06_20_49_21.745,3.862,30.4,0,0.76,0,0,0,0, ,0,0,0,0,0, ,-40.4,337.6,940.9,-0.3,-0.6,-1.6,25,-38.7794,339.247,942.391,-0.360658,-0.660996,-1.67601,
2026_07_06_20_49_21.769,3.862,30.5,0,0.761,0,0,0,0, ,0,0,0,0,0, ,-39.3,338.9,942,-0.3,-0.5,-1.6,25,-38.8446,339.186,942.334,-0.356961,-0.654232,-1.67138,
2026_07_06_20_49_21.785,3.862,30.5,0,0.761,0,0,0,0, ,0,0,0,0,0, ,-40.6,338,941,-0.4,-0.6,-1.7,25,-38.912,339.142,942.283,-0.356537,-0.64788,-1.67008,
2026_07_06_20_49_21.805,3.862,30.7,0,0.761,0,0,0,0, ,0,0,0,0,0, ,-40.2,337.4,941,-0.4,-0.7,-1.6,25,-39.0027,339.054,942.205,-0.359186,-0.64801,-1.66885,
2026_07_06_20_49_21.825,3.862,30.7,0,0.761,0,0,0,0, ,0,0,0,0,0, ,-39.5,339.2,941.6,-0.5,-0.5,-1.7,25,-39.0543,339.008,942.15,-0.36472,-0.645084,-1.6677,
2026_07_06_20_49_21.844,3.862,30.8,0,0.761,0,0,0,0, ,0,0,0,0,0, ,-39.4,339.8,942.1,-0.4,-0.6,-1.6,25,-39.0784,339.038,942.131,-0.369916,-0.63929,-1.66662,
2026_07_06_20_49_21.864,3.862,30.8,0,0.762,0,0,0,0, ,0,0,0,0,0, ,-39.9,339.5,941.4,-0.5,-0.6,-1.6,25,-39.1132,339.075,942.108,-0.374797,-0.636896,-1.66256,
2026_07_06_20_49_21.884,3.862,30.8,0,0.76,0,0,0,0, ,0,0,0,0,0, ,-39.9,339.7,941.6,-0.3,-0.5,-1.7,25,-39.1612,339.107,942.071,-0.376332,-0.6316,-1.6618,
2026_07_06_20_49_21.909,3.862,30.8,0,0.76,0,0,0,0, ,0,0,0,0,0, ,-40.5,338.8,939.8,-0.3,-0.5,-1.6,25,-39.2245,339.116,941.988,-0.371681,-0.623581,-1.66108,
2026_07_06_20_49_21.923,3.862,30.9,0,0.76,0,0,0,0, ,0,0,0,0,0, ,-39.4,338.3,940.4,-0.4,-0.5,-1.7,25,-39.2687,339.081,941.873,-0.37036,-0.61605,-1.6604,
2026_07_06_20_49_21.943,3.862,31,0,0.761,0,0,0,0, ,0,0,0,0,0, ,-39.1,338.1,941.7,-0.6,-0.6,-1.6,25,-39.2676,339.028,941.822,-0.37826,-0.612025,-1.65977,
2026_07_06_20_49_21.962,3.862,30.9,0,0.761,0,0,0,0, ,0,0,0,0,0, ,-38.8,339.9,941,-0.4,-0.5,-1.6,25,-39.2482,339.026,941.794,-0.385678,-0.608246,-1.65613,
2026_07_06_20_49_21.982,3.862,31,0,0.761,0,0,0,0, ,0,0,0,0,0, ,-40.6,338.3,941.7,-0.4,-0.6,-1.6,25,-39.2757,339.03,941.767,-0.386551,-0.604696,-1.65271,
2026_07_06_20_49_22.002,3.862,30.9,0,0.76,0,0,0,0, ,0,0,0,0,0, ,-39.4,340.6,940.3,-0.5,-0.7,-1.6,25,-39.3199,339.056,941.72,-0.390417,-0.607457,-1.6495,
2026_07_06_20_49_22.023,3.862,30.9,0,0.761,0,0,0,0, ,0,0,0,0,0, ,-39.3,338.9,941,-0.3,-0.6,-1.7,25,-39.3217,339.098,941.655,-0.391001,-0.610049,-1.64953,
2026_07_06_20_49_22.042,3.862,30.9,0,0.761,0,0,0,0, ,0,0,0,0,0, ,-39.4,338.3,940.7,-0.3,-0.6,-1.6,25,-39.3234,339.068,941.606,-0.385456,-0.609437,-1.64956,
2026_07_06_20_49_22.062,3.862,31,0,0.761,0,0,0,0, ,0,0,0,0,0, ,-40.7,339.1,941,-0.4,-0.6,-1.6,25,-39.3677,339.046,941.56,-0.383295,-0.608862,-1.64654,
2026_07_06_20_49_22.082,3.862,31,0,0.76,0,0,0,0, ,0,0,0,0,0, ,-39,339.2,940.3,-0.3,-0.5,-1.6,25,-39.3971,339.052,941.504,-0.381266,-0.605275,-1.6437,
2026_07_06_20_49_22.102,3.862,31,0,0.761,0,0,0,0, ,0,0,0,0,0, ,-39.7,338.8,940.1,-0.2,-0.5,-1.6,25,-39.3942,339.049,941.425,-0.373267,-0.59886,-1.64104,
2026_07_06_20_49_22.121,3.862,31,0,0.76,0,0,0,0, ,0,0,0,0,0, ,-40.4,338.1,940.9,-0.2,-0.6,-1.7,25,-39.4342,339.012,941.368,-0.362709,-0.595883,-1.64158,
2026_07_06_20_49_22.141,3.862,31,0,0.761,0,0,0,0, ,0,0,0,0,0, ,-40.2,338.5,940.3,-0.2,-0.5,-1.7,25,-39.487,338.969,941.322,-0.352794,-0.593087,-1.64514,
2026_07_06_20_49_22.161,3.862,31,0,0.76,0,0,0,0, ,0,0,0,0,0, ,-39.9,338.3,941.8,-0.3,-0.5,-1.6,25,-39.5213,338.934,941.305,-0.34653,-0.587414,-1.64544,
2026_07_06_20_49_22.181,3.862,31,0,0.761,0,0,0,0, ,0,0,0,0,0, ,-40.5,337,941,-0.3,-0.6,-1.7,25,-39.5626,338.856,941.311,-0.343694,-0.585134,-1.64572,
2026_07_06_20_49_22.201,3.862,31.1,0,0.76,0,0,0,0, ,0,0,0,0,0, ,-40.1,338,940.7,-0.4,-0.6,-1.7,25,-39.6076,338.773,941.283,-0.344079,-0.58604,-1.64902,
2026_07_06_20_49_22.220,3.862,31.1,0,0.761,0,0,0,0, ,0,0,0,0,0, ,-39.9,338.1,940.6,-0.4,-0.6,-1.7,25,-39.6315,338.729,941.244,-0.347486,-0.586891,-1.65213,
2026_07_06_20_49_22.241,3.862,31.1,0,0.76,0,0,0,0, ,0,0,0,0,0, ,-39.6,338,941.4,-0.4,-0.5,-1.6,25,-39.6387,338.688,941.229,-0.350686,-0.584643,-1.652,
2026_07_06_20_49_22.260,3.862,31,0,0.762,0,0,0,0, ,0,0,0,0,0, ,-39.9,338.6,942.1,-0.5,-0.6,-1.6,25,-39.6455,338.664,941.261,-0.356738,-0.582532,-1.64883,
2026_07_06_20_49_22.281,3.862,31.1,0,0.761,0,0,0,0, ,0,0,0,0,0, ,-39.4,338.6,941.5,-0.5,-0.6,-1.6,25,-39.6458,338.66,941.294,-0.365468,-0.583596,-1.64586,
2026_07_06_20_49_22.299,3.862,31.1,0,0.758,0,0,0,0, ,0,0,0,0,0, ,-40.7,339.2,941.5,-0.4,-0.6,-1.6,25,-39.6704,338.675,941.306,-0.370619,-0.584596,-1.64306,
2026_07_06_20_49_22.320,3.862,31.1,0,0.758,0,0,0,0, ,0,0,0,0,0, ,-38.8,338.3,941.7,-0.4,-0.6,-1.7,25,-39.6752,338.679,941.324,-0.37241,-0.585534,-1.64349,
2026_07_06_20_49_22.339,3.862,31.2,0,0.761,0,0,0,0, ,0,0,0,0,0, ,-40.4,339.4,940.7,-0.4,-0.5,-1.6,25,-39.6707,338.69,941.317,-0.374091,-0.583369,-1.64388,
2026_07_06_20_49_22.359,3.862,31.1,0,0.761,0,0,0,0, ,0,0,0,0,0, ,-38.9,338.7,941.5,-0.3,-0.5,-1.5,25,-39.6694,338.712,941.304,-0.372623,-0.578289,-1.63816,
2026_07_06_20_49_22.379,3.862,31.1,0,0.761,0,0,0,0, ,0,0,0,0,0, ,-39.3,339.1,941.7,-0.3,-0.5,-1.6,25,-39.6347,338.723,941.322,-0.368198,-0.573518,-1.63279,
2026_07_06_20_49_22.399,3.862,31.1,0,0.76,0,0,0,0, ,0,0,0,0,0, ,-40,338.5,941.6,-0.3,-0.7,-1.6,25,-39.6356,338.728,941.342,-0.364042,-0.575132,-1.63079,
2026_07_06_20_49_22.418,3.862,31.2,0,0.761,0,0,0,0, ,0,0,0,0,0, ,-40.1,338.1,940.4,-0.2,-0.6,-1.7,25,-39.6609,338.702,941.321,-0.357092,-0.579694,-1.63196,
2026_07_06_20_49_22.442,3.862,31.2,0,0.761,0,0,0,0, ,0,0,0,0,0, ,-40.2,338.6,940.9,-0.3,-0.6,-1.7,25,-39.6907,338.68,941.28,-0.350566,-0.580931,-1.63611,
2026_07_06_20_49_22.458,3.862,31.1,0,0.76,0,0,0,0, ,0,0,0,0,0, ,-39.5,337.4,941.2,-0.3,-0.6,-1.7,25,-39.7004,338.639,941.266,-0.347485,-0.582093,-1.64,
2026_07_06_20_49_22.478,3.862,31.1,0,0.76,0,0,0,0, ,0,0,0,0,0, ,-40.2,338.2,940.1,-0.3,-0.6,-1.6,25,-39.7095,338.588,941.228,-0.344591,-0.583185,-1.64061,
2026_07_06_20_49_22.498,3.862,31.1,0,0.761,0,0,0,0, ,0,0,0,0,0, ,-38.9,337.6,940,-0.4,-0.6,-1.7,25,-39.6998,338.546,941.157,-0.344921,-0.584209,-1.64118,
2026_07_06_20_49_22.517,3.862,31.1,0,0.76,0,0,0,0, ,0,0,0,0,0, ,-40.7,337.1,941.7,-0.5,-0.5,-1.7,25,-39.7059,338.473,941.138,-0.351324,-0.582125,-1.64477,
2026_07_06_20_49_22.537,3.862,31.1,0,0.761,0,0,0,0, ,0,0,0,0,0, ,-39.7,338,941.5,-0.4,-0.5,-1.6,25,-39.736,338.417,941.166,-0.357337,-0.57712,-1.64509,
2026_07_06_20_49_22.557,3.862,31.2,0,0.76,0,0,0,0, ,0,0,0,0,0, ,-39.3,338.6,941.6,-0.5,-0.5,-1.7,25,-39.7216,338.41,941.189,-0.362984,-0.572421,-1.64539,
2026_07_06_20_49_22.577,3.862,31.3,0,0.76,0,0,0,0, ,0,0,0,0,0, ,-38.9,338.6,941.8,-0.5,-0.6,-1.6,25,-39.6837,338.421,941.221,-0.371333,-0.571054,-1.64567,
2026_07_06_20_49_22.597,3.862,31.3,0,0.762,0,0,0,0, ,0,0,0,0,0, ,-39.9,339.4,940.7,-0.5,-0.5,-1.7,25,-39.6665,338.457,941.222,-0.379174,-0.569771,-1.64593,
2026_07_06_20_49_22.616,3.862,31.2,0,0.761,0,0,0,0, ,0,0,0,0,0, ,-39.4,338.1,941,-0.3,-0.5,-1.7,25,-39.6655,338.474,941.2,-0.380443,-0.56552,-1.64923,
2026_07_06_20_49_22.636,3.862,31.1,0,0.761,0,0,0,0, ,0,0,0,0,0, ,-40.8,338.2,941,-0.3,-0.5,-1.7,25,-39.6919,338.455,941.187,-0.375541,-0.561527,-1.65232,
2026_07_06_20_49_22.656,3.862,31.2,0,0.76,0,0,0,0, ,0,0,0,0,0, ,-39.9,337.4,941.6,-0.3,-0.6,-1.7,25,-39.732,338.415,941.194,-0.370938,-0.560825,-1.65522,
2026_07_06_20_49_22.676,3.862,31.1,0,0.758,0,0,0,0, ,0,0,0,0,0, ,-39.3,337.5,940.3,-0.3,-0.6,-1.7,25,-39.724,338.356,941.179,-0.366615,-0.563212,-1.65795,
2026_07_06_20_49_22.696,3.862,31.1,0,0.759,0,0,0,0, ,0,0,0,0,0, ,-39.5,337.5,942.3,-0.4,-0.5,-1.7,25,-39.7042,338.304,941.187,-0.365603,-0.562407,-1.66052,
2026_07_06_20_49_22.716,3.862,31.2,0,0.761,0,0,0,0, ,0,0,0,0,0, ,-39.3,339.2,939.8,-0.4,-0.5,-1.6,25,-39.6857,338.307,941.178,-0.367699,-0.558604,-1.65987,
2026_07_06_20_49_22.738,3.862,31.2,0,0.76,0,0,0,0, ,0,0,0,0,0, ,-40.1,338.8,940.5,-0.4,-0.6,-1.7,25,-39.6866,338.349,941.116,-0.369667,-0.55808,-1.65927,
2026_07_06_20_49_22.756,3.862,31.2,0,0.76,0,0,0,0, ,0,0,0,0,0, ,-39.3,338.7,942.1,-0.5,-0.6,-1.6,25,-39.6874,338.373,941.127,-0.374562,-0.560634,-1.65871,
2026_07_06_20_49_22.775,3.862,31.2,0,0.761,0,0,0,0, ,0,0,0,0,0, ,-41,339.2,940.6,-0.4,-0.5,-1.6,25,-39.7156,338.408,941.141,-0.379159,-0.559986,-1.65513,
2026_07_06_20_49_22.795,3.862,31.2,0,0.76,0,0,0,0, ,0,0,0,0,0, ,-40,338.7,941.4,-0.3,-0.5,-1.6,25,-39.7634,338.441,941.132,-0.377382,-0.556331,-1.65177,
2026_07_06_20_49_22.815,3.862,31.2,0,0.76,0,0,0,0, ,0,0,0,0,0, ,-40.6,338,941.8,-0.4,-0.6,-1.7,25,-39.7961,338.436,941.161,-0.375714,-0.555945,-1.65166,
2026_07_06_20_49_22.834,3.862,31.2,0,0.76,0,0,0,0, ,0,0,0,0,0, ,-39.3,340.3,940.3,-0.3,-0.5,-1.7,25,-39.8055,338.479,941.154,-0.374147,-0.555583,-1.65461,
2026_07_06_20_49_22.854,3.862,31.2,0,0.761,0,0,0,0, ,0,0,0,0,0, ,-40.7,338.5,941.4,-0.3,-0.5,-1.7,25,-39.8173,338.536,941.135,-0.369629,-0.552196,-1.65737,
2026_07_06_20_49_22.874,3.862,31.2,0,0.76,0,0,0,0, ,0,0,0,0,0, ,-39.6,338.7,941.1,-0.2,-0.6,-1.6,25,-39.8376,338.539,941.142,-0.362339,-0.552062,-1.65693,
2026_07_06_20_49_22.893,3.862,31.3,0,0.761,0,0,0,0, ,0,0,0,0,0, ,-39.9,338.7,941.8,-0.2,-0.5,-1.7,25,-39.8323,338.549,941.161,-0.352446,-0.551936,-1.6565,
2026_07_06_20_49_22.912,3.862,31.2,0,0.761,0,0,0,0, ,0,0,0,0,0, ,-40,337.7,941.5,-0.3,-0.6,-1.7,25,-39.8394,338.528,941.191,-0.346203,-0.551818,-1.65915,
2026_07_06_20_49_22.933,3.862,31.2,0,0.76,0,0,0,0, ,0,0,0,0,0, ,-39.9,338.3,941.8,-0.3,-0.6,-1.6,25,-39.8462,338.496,941.219,-0.343388,-0.554754,-1.6586,
2026_07_06_20_49_22.953,3.862,31.2,0,0.761,0,0,0,0, ,0,0,0,0,0, ,-40,338.6,940.4,-0.3,-0.6,-1.6,25,-39.8525,338.493,941.212,-0.340744,-0.557511,-1.65503,
2026_07_06_20_49_22.973,3.862,31.2,0,0.761,0,0,0,0, ,0,0,0,0,0, ,-39.7,338.2,942,-0.4,-0.6,-1.6,25,-39.8523,338.487,941.211,-0.341308,-0.560101,-1.65167,
2026_07_06_20_49_22.993,3.862,31.1,0,0.76,0,0,0,0, ,0,0,0,0,0, ,-40,338.3,939.9,-0.4,-0.5,-1.7,25,-39.8522,338.473,941.195,-0.344884,-0.559485,-1.65157,
2026_07_06_20_49_23.012,3.862,31.2,0,0.76,0,0,0,0, ,0,0,0,0,0, ,-39.1,338.3,940.7,-0.4,-0.6,-1.7,25,-39.8338,338.462,941.14,-0.348243,-0.558907,-1.65452,
2026_07_06_20_49_23.033,3.862,31.3,0,0.761,0,0,0,0, ,0,0,0,0,0, ,-39.4,339.1,943.3,-0.5,-0.6,-1.6,25,-39.7982,338.477,941.193,-0.354444,-0.561411,-1.65425,
2026_07_06_20_49_23.052,3.862,31.2,0,0.761,0,0,0,0, ,0,0,0,0,0, ,-39.1,339.1,940.5,-0.3,-0.5,-1.6,25,-39.7648,338.515,941.236,-0.35722,-0.560716,-1.65094,
2026_07_06_20_49_23.072,3.862,31.3,0,0.76,0,0,0,0, ,0,0,0,0,0, ,-40.4,340,941.8,-0.4,-0.6,-1.7,25,-39.7639,338.578,941.231,-0.35678,-0.560063,-1.65088,
2026_07_06_20_49_23.093,3.862,31.2,0,0.76,0,0,0,0, ,0,0,0,0,0, ,-39.6,339.9,941,-0.3,-0.5,-1.7,25,-39.7783,338.661,941.241,-0.356367,-0.55945,-1.65388,
2026_07_06_20_49_23.112,3.862,31.2,0,0.761,0,0,0,0, ,0,0,0,0,0, ,-39.5,339.8,941.2,-0.4,-0.6,-1.6,25,-39.7644,338.734,941.232,-0.355979,-0.558874,-1.65364,
2026_07_06_20_49_23.132,3.862,31.3,0,0.761,0,0,0,0, ,0,0,0,0,0, ,-39.3,338.5,941.2,-0.3,-0.5,-1.6,25,-39.7422,338.759,941.23,-0.355615,-0.558333,-1.65037,
2026_07_06_20_49_23.151,3.862,31.3,0,0.762,0,0,0,0, ,0,0,0,0,0, ,-40.5,339.4,940.5,-0.3,-0.5,-1.6,25,-39.7518,338.771,941.207,-0.352226,-0.554778,-1.6473,
2026_07_06_20_49_23.171,3.862,31.2,0,0.76,0,0,0,0, ,0,0,0,0,0, ,-39.6,338.1,941.6,-0.3,-0.6,-1.6,25,-39.77,338.77,941.198,-0.349043,-0.554487,-1.64442,
2026_07_06_20_49_23.191,3.862,31.2,0,0.76,0,0,0,0, ,0,0,0,0,0, ,-40.7,339.4,941.5,-0.2,-0.6,-1.6,25,-39.7931,338.768,941.219,-0.343008,-0.557261,-1.64171,
2026_07_06_20_49_23.210,3.862,31.2,0,0.76,0,0,0,0, ,0,0,0,0,0, ,-38.9,339.3,941.6,-0.2,-0.5,-1.6,25,-39.7935,338.804,941.239,-0.334293,-0.556818,-1.63917,
2026_07_06_20_49_23.230,3.862,31.2,0,0.761,0,0,0,0, ,0,0,0,0,0, ,-39.4,337.7,941,-0.2,-0.5,-1.6,25,-39.7543,338.785,941.243,-0.32611,-0.553356,-1.63678,
2026_07_06_20_49_23.250,3.862,31.3,0,0.76,0,0,0,0, ,0,0,0,0,0, ,-40.5,338.6,941.4,-0.3,-0.6,-1.6,25,-39.7662,338.747,941.24,-0.321472,-0.553151,-1.63454,
2026_07_06_20_49_23.270,3.862,31.3,0,0.76,0,0,0,0, ,0,0,0,0,0, ,-40.8,338.6,940.1,-0.4,-0.5,-1.7,25,-39.8201,338.738,941.21,-0.32321,-0.552959,-1.63548,
2026_07_06_20_49_23.290,3.862,31.3,0,0.76,0,0,0,0, ,0,0,0,0,0, ,-39,337.5,941.5,-0.4,-0.5,-1.7,25,-39.825,338.696,941.185,-0.327889,-0.549732,-1.63942,
2026_07_06_20_49_23.309,3.862,31.3,0,0.761,0,0,0,0, ,0,0,0,0,0, ,-41.3,339.2,941.4,-0.3,-0.5,-1.6,25,-39.8448,338.675,941.202,-0.329237,-0.546702,-1.64006,
2026_07_06_20_49_23.329,3.862,31.2,0,0.761,0,0,0,0, ,0,0,0,0,0, ,-40,339.8,940.6,-0.3,-0.6,-1.6,25,-39.8938,338.725,941.189,-0.327455,-0.546903,-1.63762,
2026_07_06_20_49_23.349,3.862,31.2,0,0.761,0,0,0,0, ,0,0,0,0,0, ,-40.1,339.5,941.2,-0.3,-0.5,-1.6,25,-39.9034,338.781,941.172,-0.325782,-0.547091,-1.63533,
2026_07_06_20_49_23.369,3.862,31.3,0,0.761,0,0,0,0, ,0,0,0,0,0, ,-40,337.4,941.7,-0.3,-0.5,-1.7,25,-39.9123,338.761,941.189,-0.324211,-0.544222,-1.63622,
2026_07_06_20_49_23.389,3.862,31.3,0,0.76,0,0,0,0, ,0,0,0,0,0, ,-38.5,338.6,940.7,-0.2,-0.6,-1.6,25,-39.8719,338.715,941.189,-0.319689,-0.544574,-1.63706,
2026_07_06_20_49_23.415,3.862,31.3,0,0.76,0,0,0,0, ,0,0,0,0,0, ,-40,338,942,-0.3,-0.6,-1.7,25,-39.834,338.69,941.199,-0.315442,-0.547951,-1.63785,
2026_07_06_20_49_23.428,3.862,31.3,0,0.761,0,0,0,0, ,0,0,0,0,0, ,-40.2,337.4,942.1,-0.3,-0.5,-1.7,25,-39.8502,338.629,941.251,-0.314501,-0.548076,-1.64164,
2026_07_06_20_49_23.448,3.862,31.3,0,0.761,0,0,0,0, ,0,0,0,0,0, ,-38.9,338,941,-0.4,-0.5,-1.6,25,-39.8319,338.573,941.269,-0.316664,-0.545147,-1.64215,
2026_07_06_20_49_23.467,3.862,31.2,0,0.76,0,0,0,0, ,0,0,0,0,0, ,-40.8,338.1,940.3,-0.4,-0.5,-1.6,25,-39.833,338.541,941.231,-0.321743,-0.542395,-1.63958,
2026_07_06_20_49_23.488,3.862,31.3,0,0.76,0,0,0,0, ,0,0,0,0,0, ,-39.5,338.8,941.7,-0.5,-0.6,-1.6,25,-39.8524,338.535,941.217,-0.329558,-0.542859,-1.63717,
2026_07_06_20_49_23.507,3.862,31.3,0,0.76,0,0,0,0, ,0,0,0,0,0, ,-39.7,338.1,940.9,-0.5,-0.5,-1.7,25,-39.837,338.53,941.222,-0.339945,-0.543294,-1.63795,
2026_07_06_20_49_23.527,3.862,31.2,0,0.76,0,0,0,0, ,0,0,0,0,0, ,-39.5,338.7,942.1,-0.4,-0.6,-1.6,25,-39.8225,338.522,941.239,-0.346651,-0.543703,-1.63868,
2026_07_06_20_49_23.547,3.862,31.2,0,0.76,0,0,0,0, ,0,0,0,0,0, ,-40.8,338.6,940.9,-0.3,-0.6,-1.6,25,-39.8425,338.53,941.255,-0.346855,-0.547133,-1.63633,
2026_07_06_20_49_23.567,3.862,31.3,0,0.76,0,0,0,0, ,0,0,0,0,0, ,-38.9,338.8,941.6,-0.4,-0.5,-1.6,25,-39.843,338.54,941.255,-0.347047,-0.547308,-1.63411,
2026_07_06_20_49_23.587,3.862,31.3,0,0.762,0,0,0,0, ,0,0,0,0,0, ,-39.5,339.1,942,-0.4,-0.6,-1.6,25,-39.8038,338.565,941.288,-0.350274,-0.547472,-1.63203,
2026_07_06_20_49_23.607,3.862,31.3,0,0.761,0,0,0,0, ,0,0,0,0,0, ,-40.1,340,941.4,-0.3,-0.6,-1.6,25,-39.8035,338.625,941.313,-0.350257,-0.550673,-1.63008,
2026_07_06_20_49_23.626,3.862,31.2,0,0.758,0,0,0,0, ,0,0,0,0,0, ,-38.3,340.5,941.4,-0.3,-0.5,-1.6,25,-39.7668,338.724,941.318,-0.347194,-0.550632,-1.62825,
2026_07_06_20_49_23.646,3.862,31.3,0,0.762,0,0,0,0, ,0,0,0,0,0, ,-40.2,338.6,942,-0.3,-0.6,-1.6,25,-39.7353,338.775,941.342,-0.344319,-0.550593,-1.62653,
2026_07_06_20_49_23.666,3.862,31.3,0,0.761,0,0,0,0, ,0,0,0,0,0, ,-39.9,340.5,940,-0.3,-0.5,-1.6,25,-39.7545,338.822,941.321,-0.341618,-0.550557,-1.62491,
2026_07_06_20_49_23.685,3.862,31.4,0,0.76,0,0,0,0, ,0,0,0,0,0, ,-39.3,338.8,940.5,-0.2,-0.6,-1.6,25,-39.745,338.872,941.256,-0.336035,-0.550523,-1.62339,
2026_07_06_20_49_23.705,3.862,31.3,0,0.761,0,0,0,0, ,0,0,0,0,0, ,-40.4,337.1,940.3,-0.3,-0.6,-1.6,25,-39.7514,338.816,941.204,-0.330792,-0.553538,-1.62197,
2026_07_06_20_49_23.725,3.862,31.3,0,0.761,0,0,0,0, ,0,0,0,0,0, ,-40.1,338.1,941,-0.4,-0.6,-1.6,25,-39.7818,338.742,941.17,-0.331963,-0.55637,-1.62063,
2026_07_06_20_49_23.745,3.862,31.3,0,0.761,0,0,0,0, ,0,0,0,0,0, ,-39.6,337.5,941.7,-0.4,-0.6,-1.6,25,-39.786,338.685,941.181,-0.336109,-0.559028,-1.61937,
2026_07_06_20_49_23.764,3.862,31.2,0,0.761,0,0,0,0, ,0,0,0,0,0, ,-41.1,337.7,942.6,-0.4,-0.6,-1.6,25,-39.8203,338.618,941.24,-0.340002,-0.561525,-1.61819,
2026_07_06_20_49_23.785,3.862,31.3,0,0.76,0,0,0,0, ,0,0,0,0,0, ,-40,336.7,940.9,-0.4,-0.5,-1.7,25,-39.8648,338.532,941.271,-0.343658,-0.560823,-1.62013,
2026_07_06_20_49_23.805,3.862,31.2,0,0.76,0,0,0,0, ,0,0,0,0,0, ,-40,339.2,941.5,-0.5,-0.6,-1.6,25,-39.873,338.497,941.267,-0.350138,-0.560163,-1.62195,
2026_07_06_20_49_23.825,3.862,31.3,0,0.76,0,0,0,0, ,0,0,0,0,0, ,-39.7,339.8,942,-0.4,-0.5,-1.7,25,-39.8716,338.558,941.296,-0.356224,-0.559544,-1.62366,
2026_07_06_20_49_23.848,3.862,31.2,0,0.761,0,0,0,0, ,0,0,0,0,0, ,-39.5,338.1,942.3,-0.4,-0.6,-1.6,25,-39.8551,338.582,941.348,-0.358891,-0.558962,-1.62526,
2026_07_06_20_49_23.864,3.862,31.3,0,0.761,0,0,0,0, ,0,0,0,0,0, ,-40,339.4,940.7,-0.5,-0.6,-1.6,25,-39.8487,338.592,941.357,-0.364443,-0.561463,-1.62372,
2026_07_06_20_49_23.884,3.862,31.3,0,0.761,0,0,0,0, ,0,0,0,0,0, ,-39.9,338.2,941,-0.4,-0.5,-1.7,25,-39.8549,338.605,941.326,-0.369657,-0.560764,-1.62533,
2026_07_06_20_49_23.903,3.862,31.3,0,0.76,0,0,0,0, ,0,0,0,0,0, ,-39.3,339.4,941.6,-0.3,-0.5,-1.6,25,-39.8393,338.616,941.325,-0.368459,-0.557062,-1.62683,
2026_07_06_20_49_23.923,3.862,31.1,0,0.76,0,0,0,0, ,0,0,0,0,0, ,-40.6,338,940.9,-0.3,-0.5,-1.7,25,-39.8461,338.622,941.32,-0.364287,-0.553584,-1.62824,
2026_07_06_20_49_23.944,3.862,31.3,0,0.76,0,0,0,0, ,0,0,0,0,0, ,-39.6,338.6,941.1,-0.3,-0.6,-1.6,25,-39.8615,338.602,941.301,-0.36037,-0.553366,-1.62957,
2026_07_06_20_49_23.963,3.862,31.2,0,0.761,0,0,0,0, ,0,0,0,0,0, ,-40.8,339.3,940.4,-0.2,-0.5,-1.6,25,-39.8822,338.623,941.267,-0.353644,-0.553161,-1.62777,
2026_07_06_20_49_23.982,3.862,31.3,0,0.76,0,0,0,0, ,0,0,0,0,0, ,-41,339.2,941,-0.2,-0.5,-1.6,25,-39.9442,338.661,941.233,-0.344281,-0.549921,-1.62607,
2026_07_06_20_49_24.002,3.862,31.2,0,0.76,0,0,0,0, ,0,0,0,0,0, ,-41.2,339.4,942.2,-0.4,-0.6,-1.6,25,-40.0146,338.7,941.255,-0.341583,-0.549926,-1.62448,
2026_07_06_20_49_24.022,3.862,31.2,0,0.761,0,0,0,0, ,0,0,0,0,0, ,-40.4,339.5,941.4,-0.4,-0.6,-1.6,25,-40.0625,338.746,941.288,-0.345143,-0.552978,-1.62299,
2026_07_06_20_49_24.042,3.862,31.3,0,0.761,0,0,0,0, ,0,0,0,0,0, ,-38.9,338.2,941,-0.4,-0.6,-1.7,25,-40.0373,338.752,941.283,-0.348486,-0.555843,-1.62464,
2026_07_06_20_49_24.061,3.862,31.2,0,0.761,0,0,0,0, ,0,0,0,0,0, ,-39.7,339.3,942.2,-0.3,-0.5,-1.7,25,-39.9924,338.752,941.302,-0.348578,-0.555487,-1.62923,
2026_07_06_20_49_24.081,3.862,31.4,0,0.76,0,0,0,0, ,0,0,0,0,0, ,-40.8,338.7,940.6,-0.3,-0.6,-1.7,25,-40.0081,338.767,941.308,-0.345618,-0.555153,-1.63354,
2026_07_06_20_49_24.104,3.862,31.2,0,0.761,0,0,0,0, ,0,0,0,0,0, ,-39.7,338.2,941.6,-0.4,-0.6,-1.7,25,-40.0229,338.748,941.295,-0.345885,-0.557885,-1.63759,
2026_07_06_20_49_24.122,3.862,31.3,0,0.761,0,0,0,0, ,0,0,0,0,0, ,-39,338.8,940.6,-0.3,-0.5,-1.6,25,-39.9819,338.733,941.284,-0.346136,-0.557405,-1.63835,
2026_07_06_20_49_24.148,3.862,31.2,0,0.761,0,0,0,0, ,0,0,0,0,0, ,-40,338,940.6,-0.2,-0.5,-1.7,25,-39.9525,338.713,941.242,-0.340277,-0.553907,-1.63906,
2026_07_06_20_49_24.161,3.862,31.2,0,0.761,0,0,0,0, ,0,0,0,0,0, ,-40.2,337.4,940.7,-0.3,-0.5,-1.7,25,-39.9615,338.651,941.206,-0.334776,-0.550622,-1.64277,
2026_07_06_20_49_24.181,3.862,31.2,0,0.761,0,0,0,0, ,0,0,0,0,0, ,-39.9,338.6,941.6,-0.3,-0.5,-1.6,25,-39.9669,338.611,941.202,-0.332657,-0.547537,-1.64321,
2026_07_06_20_49_24.201,3.862,31.2,0,0.76,0,0,0,0, ,0,0,0,0,0, ,-39.6,336.5,941,-0.3,-0.6,-1.7,25,-39.9537,338.547,941.208,-0.330667,-0.547687,-1.64363,
2026_07_06_20_49_24.220,3.862,31.2,0,0.761,0,0,0,0, ,0,0,0,0,0, ,-40.7,337.8,941.5,-0.4,-0.6,-1.6,25,-39.9656,338.461,941.211,-0.331845,-0.550875,-1.64401,
2026_07_06_20_49_24.240,3.862,31.3,0,0.761,0,0,0,0, ,0,0,0,0,0, ,-40.6,339.4,941.4,-0.3,-0.6,-1.7,25,-40.0073,338.47,941.225,-0.332951,-0.553869,-1.64438,
2026_07_06_20_49_24.259,3.862,31.2,0,0.761,0,0,0,0, ,0,0,0,0,0, ,-40.2,338.3,940.7,-0.3,-0.5,-1.6,25,-40.0313,338.493,941.215,-0.330943,-0.553633,-1.64472,
2026_07_06_20_49_24.283,3.862,31.3,0,0.761,0,0,0,0, ,0,0,0,0,0, ,-40.2,337.2,942.2,-0.5,-0.6,-1.6,25,-40.0415,338.448,941.229,-0.335151,-0.553411,-1.642,
2026_07_06_20_49_24.299,3.862,31.2,0,0.76,0,0,0,0, ,0,0,0,0,0, ,-39.7,339.2,941,-0.4,-0.6,-1.7,25,-40.036,338.433,941.252,-0.34215,-0.55625,-1.64248,
2026_07_06_20_49_24.318,3.862,31.2,0,0.758,0,0,0,0, ,0,0,0,0,0, ,-39.5,338.3,941.2,-0.4,-0.6,-1.6,25,-40.0094,338.452,941.242,-0.345675,-0.558916,-1.64294,
2026_07_06_20_49_24.338,3.862,31.2,0,0.76,0,0,0,0, ,0,0,0,0,0, ,-40.1,338.9,940.1,-0.5,-0.5,-1.7,25,-39.9966,338.461,941.206,-0.352033,-0.558373,-1.64337,
2026_07_06_20_49_24.359,3.862,31.2,0,0.76,0,0,0,0, ,0,0,0,0,0, ,-38.9,340,941.8,-0.5,-0.6,-1.6,25,-39.9664,338.521,941.191,-0.361049,-0.557863,-1.64378,
2026_07_06_20_49_24.378,3.862,31.2,0,0.761,0,0,0,0, ,0,0,0,0,0, ,-39.1,339.3,941.5,-0.4,-0.6,-1.7,25,-39.9075,338.59,941.219,-0.36647,-0.560431,-1.64416,
2026_07_06_20_49_24.398,3.862,31.3,0,0.758,0,0,0,0, ,0,0,0,0,0, ,-38.5,338.1,942.2,-0.4,-0.5,-1.7,25,-39.84,338.597,941.257,-0.368513,-0.559795,-1.64756,
2026_07_06_20_49_24.418,3.862,31.2,0,0.761,0,0,0,0, ,0,0,0,0,0, ,-40.8,339.1,940.7,-0.4,-0.6,-1.6,25,-39.8284,338.597,941.269,-0.370432,-0.559198,-1.64771,
2026_07_06_20_49_24.444,3.862,31.3,0,0.76,0,0,0,0, ,0,0,0,0,0, ,-40.5,338.8,942.6,-0.3,-0.5,-1.6,25,-39.8785,338.618,941.292,-0.369187,-0.558638,-1.6448,
2026_07_06_20_49_24.457,3.862,31.3,0,0.761,0,0,0,0, ,0,0,0,0,0, ,-41,340.3,939.6,-0.3,-0.5,-1.6,25,-39.9316,338.675,941.28,-0.364971,-0.555064,-1.64207,
2026_07_06_20_49_24.477,3.862,31.3,0,0.758,0,0,0,0, ,0,0,0,0,0, ,-40,338.5,941.4,-0.3,-0.6,-1.6,25,-39.9662,338.719,941.233,-0.361011,-0.554756,-1.63951,
2026_07_06_20_49_24.498,3.862,31.2,0,0.761,0,0,0,0, ,0,0,0,0,0, ,-39.9,338.6,941.4,-0.3,-0.6,-1.6,25,-39.9652,338.709,941.243,-0.357294,-0.557513,-1.6371,
2026_07_06_20_49_24.517,3.862,31.2,0,0.76,0,0,0,0, ,0,0,0,0,0, ,-40.2,338.3,942.1,-0.2,-0.6,-1.7,25,-39.9704,338.693,941.274,-0.350755,-0.560102,-1.63789,
2026_07_06_20_49_24.537,3.862,31.2,0,0.761,0,0,0,0, ,0,0,0,0,0, ,-40.5,338.5,941.5,-0.2,-0.6,-1.7,25,-39.9935,338.675,941.306,-0.341569,-0.562533,-1.64167,
2026_07_06_20_49_24.557,3.862,31.2,0,0.76,0,0,0,0, ,0,0,0,0,0, ,-40.2,337.5,940.6,-0.3,-0.5,-1.7,25,-40.0153,338.634,941.29,-0.335989,-0.561769,-1.64522,
2026_07_06_20_49_24.580,3.862,31.2,0,0.761,0,0,0,0, ,0,0,0,0,0, ,-39.6,337.8,941,-0.3,-0.6,-1.6,25,-40.0082,338.574,941.261,-0.333796,-0.561052,-1.64552,
2026_07_06_20_49_24.595,3.862,31.2,0,0.76,0,0,0,0, ,0,0,0,0,0, ,-40.5,338.5,941.1,-0.4,-0.5,-1.6,25,-40.0108,338.548,941.248,-0.334783,-0.560379,-1.64274,
2026_07_06_20_49_24.616,3.862,31.3,0,0.761,0,0,0,0, ,0,0,0,0,0, ,-39.6,338.2,941.2,-0.4,-0.6,-1.7,25,-40.0132,338.536,941.242,-0.338757,-0.559746,-1.64318,
2026_07_06_20_49_24.636,3.862,31.2,0,0.761,0,0,0,0, ,0,0,0,0,0, ,-39.6,338.6,942.5,-0.4,-0.6,-1.7,25,-39.988,338.528,941.279,-0.342489,-0.562199,-1.64665,
2026_07_06_20_49_24.656,3.862,31.3,0,0.761,0,0,0,0, ,0,0,0,0,0, ,-39.7,337.8,943.1,-0.5,-0.5,-1.7,25,-39.9674,338.508,941.372,-0.349041,-0.561456,-1.6499,
2026_07_06_20_49_24.676,3.862,31.3,0,0.761,0,0,0,0, ,0,0,0,0,0, ,-38.2,338.5,941.7,-0.3,-0.6,-1.6,25,-39.9054,338.486,941.434,-0.352146,-0.560758,-1.6499,
2026_07_06_20_49_24.695,3.862,31.2,0,0.76,0,0,0,0, ,0,0,0,0,0, ,-39.4,338.5,941.4,-0.3,-0.6,-1.7,25,-39.838,338.487,941.441,-0.348968,-0.563149,-1.64991,
2026_07_06_20_49_24.716,3.862,31.2,0,0.76,0,0,0,0, ,0,0,0,0,0, ,-39.1,338.5,940.3,-0.3,-0.5,-1.6,25,-39.8022,338.488,941.405,-0.345984,-0.562348,-1.64992,
2026_07_06_20_49_24.735,3.862,31.2,0,0.76,0,0,0,0, ,0,0,0,0,0, ,-40.5,337.7,940.9,-0.3,-0.5,-1.6,25,-39.8021,338.464,941.356,-0.343182,-0.558549,-1.64687,
2026_07_06_20_49_24.755,3.862,31.2,0,0.761,0,0,0,0, ,0,0,0,0,0, ,-37.9,338.6,941.7,-0.4,-0.6,-1.7,25,-39.7654,338.445,941.353,-0.343598,-0.558028,-1.64706,
2026_07_06_20_49_24.774,3.862,31.2,0,0.76,0,0,0,0, ,0,0,0,0,0, ,-41.5,338.6,940.9,-0.4,-0.6,-1.6,25,-39.7614,338.455,941.35,-0.347035,-0.560585,-1.64724,
2026_07_06_20_49_24.794,3.862,31.2,0,0.761,0,0,0,0, ,0,0,0,0,0, ,-39.6,337.6,941.1,-0.4,-0.6,-1.7,25,-39.8095,338.433,941.328,-0.350262,-0.562987,-1.64741,
2026_07_06_20_49_24.815,3.862,31.3,0,0.761,0,0,0,0, ,0,0,0,0,0, ,-40,337.4,941.1,-0.4,-0.5,-1.6,25,-39.8089,338.376,941.314,-0.353293,-0.562196,-1.64757,
2026_07_06_20_49_24.833,3.862,31.4,0,0.761,0,0,0,0, ,0,0,0,0,0, ,-39.9,337.5,941.8,-0.5,-0.5,-1.6,25,-39.8175,338.32,941.323,-0.359186,-0.558406,-1.64467,
2026_07_06_20_49_24.860,3.862,31.3,0,0.76,0,0,0,0, ,0,0,0,0,0, ,-39.7,338.2,941.5,-0.5,-0.5,-1.6,25,-39.8164,338.291,941.343,-0.367767,-0.554847,-1.64195,
2026_07_06_20_49_24.874,3.862,31.3,0,0.761,0,0,0,0, ,0,0,0,0,0, ,-40,338.1,942.6,-0.5,-0.6,-1.7,25,-39.8185,338.282,941.386,-0.375825,-0.554551,-1.64244,
2026_07_06_20_49_24.893,3.862,31.3,0,0.762,0,0,0,0, ,0,0,0,0,0, ,-40.1,338.3,940.7,-0.5,-0.6,-1.6,25,-39.8326,338.277,941.402,-0.383392,-0.557321,-1.6429,
2026_07_06_20_49_24.913,3.862,31.3,0,0.76,0,0,0,0, ,0,0,0,0,0, ,-39.4,339.5,942.6,-0.3,-0.6,-1.6,25,-39.8275,338.315,941.417,-0.384404,-0.559922,-1.64029,
2026_07_06_20_49_24.933,3.862,31.3,0,0.761,0,0,0,0, ,0,0,0,0,0, ,-41.8,339.8,940.7,-0.3,-0.6,-1.7,25,-39.8746,338.397,941.431,-0.379261,-0.562364,-1.64088,
2026_07_06_20_49_24.953,3.862,31.2,0,0.761,0,0,0,0, ,0,0,0,0,0, ,-38.8,339.3,942,-0.3,-0.6,-1.7,25,-39.9005,338.467,941.426,-0.374431,-0.564657,-1.64448,
2026_07_06_20_49_24.973,3.862,31.3,0,0.761,0,0,0,0, ,0,0,0,0,0, ,-40.1,339.4,941.6,-0.3,-0.5,-1.7,25,-39.8731,338.521,941.449,-0.369895,-0.563764,-1.64786,
2026_07_06_20_49_25.000,3.862,31.3,0,0.76,0,0,0,0, ,0,0,0,0,0, ,-40.6,338.6,941.8,-0.3,-0.5,-1.7,25,-39.9021,338.55,941.464,-0.365636,-0.559878,-1.65104,
2026_07_06_20_49_25.012,3.862,31.3,0,0.76,0,0,0,0, ,0,0,0,0,0, ,-40.6,338.6,941.8,-0.2,-0.6,-1.6,25,-39.9447,338.553,941.485,-0.358589,-0.559277,-1.65098,
2026_07_06_20_49_25.032,3.862,31.2,0,0.76,0,0,0,0, ,0,0,0,0,0, ,-40.4,339.7,942.1,-0.3,-0.6,-1.6,25,-39.9785,338.589,941.513,-0.351972,-0.561758,-1.64787,
2026_07_06_20_49_25.052,3.862,31.3,0,0.758,0,0,0,0, ,0,0,0,0,0, ,-40.5,338.3,942.3,-0.3,-0.6,-1.7,25,-40.0072,338.614,941.555,-0.348805,-0.564088,-1.648,
2026_07_06_20_49_25.071,3.862,31.2,0,0.761,0,0,0,0, ,0,0,0,0,0, ,-39.9,337.2,941.6,-0.3,-0.6,-1.7,25,-40.019,338.562,941.579,-0.345831,-0.566277,-1.65117,
2026_07_06_20_49_25.091,3.862,31.3,0,0.761,0,0,0,0, ,0,0,0,0,0, ,-40.2,337.6,940.4,-0.3,-0.6,-1.6,25,-40.0209,338.491,941.544,-0.343038,-0.568332,-1.6511,
2026_07_06_20_49_25.111,3.862,31.1,0,0.76,0,0,0,0, ,0,0,0,0,0, ,-40.4,338.1,941.8,-0.5,-0.5,-1.6,25,-40.0379,338.452,941.517,-0.346509,-0.567215,-1.64798,
2026_07_06_20_49_25.135,3.862,31.2,0,0.76,0,0,0,0, ,0,0,0,0,0, ,-39.3,338.1,941,-0.5,-0.5,-1.6,25,-40.0264,338.43,941.51,-0.355863,-0.563119,-1.64506,
2026_07_06_20_49_25.152,3.862,31.2,0,0.76,0,0,0,0, ,0,0,0,0,0, ,-39.5,337.6,942,-0.5,-0.5,-1.6,25,-39.9883,338.395,941.509,-0.364646,-0.559273,-1.64231,
2026_07_06_20_49_25.170,3.862,31.3,0,0.762,0,0,0,0, ,0,0,0,0,0, ,-39.9,338.2,941.1,-0.5,-0.6,-1.7,25,-39.9707,338.365,941.511,-0.372894,-0.558707,-1.64278,
2026_07_06_20_49_25.191,3.862,31.4,0,0.76,0,0,0,0, ,0,0,0,0,0, ,-40,337.1,942,-0.4,-0.6,-1.7,25,-39.9694,338.321,941.514,-0.377593,-0.561224,-1.64627,
2026_07_06_20_49_25.210,3.862,31.2,0,0.76,0,0,0,0, ,0,0,0,0,0, ,-39.6,339.5,940.6,-0.3,-0.6,-1.7,25,-39.9591,338.32,941.501,-0.375911,-0.563587,-1.64954,
2026_07_06_20_49_25.230,3.862,31.3,0,0.76,0,0,0,0, ,0,0,0,0,0, ,-39.9,338,941.5,-0.4,-0.6,-1.7,25,-39.9464,338.346,941.473,-0.374332,-0.565806,-1.65262,
2026_07_06_20_49_25.250,3.862,31.2,0,0.759,0,0,0,0, ,0,0,0,0,0, ,-40.1,337.7,941.4,-0.5,-0.5,-1.7,25,-39.9496,338.316,941.472,-0.378943,-0.564842,-1.65551,
2026_07_06_20_49_25.270,3.862,31.2,0,0.76,0,0,0,0, ,0,0,0,0,0, ,-39.3,338.7,942.5,-0.4,-0.6,-1.7,25,-39.9344,338.309,941.501,-0.383273,-0.563938,-1.65822,
2026_07_06_20_49_25.289,3.862,31.3,0,0.761,0,0,0,0, ,0,0,0,0,0, ,-39.3,339.7,942.5,-0.4,-0.5,-1.7,25,-39.8958,338.363,941.562,-0.384293,-0.563089,-1.66076,
2026_07_06_20_49_25.309,3.862,31.2,0,0.76,0,0,0,0, ,0,0,0,0,0, ,-39.4,339.2,941.5,-0.3,-0.6,-1.6,25,-39.8625,338.429,941.589,-0.382203,-0.562291,-1.66011,
2026_07_06_20_49_25.329,3.862,31.2,0,0.76,0,0,0,0, ,0,0,0,0,0, ,-39.9,338.5,941.4,-0.2,-0.6,-1.7,25,-39.8496,338.455,941.58,-0.374147,-0.564589,-1.65949,
2026_07_06_20_49_25.349,3.862,31.2,0,0.76,0,0,0,0, ,0,0,0,0,0, ,-40,339.5,942.2,-0.2,-0.5,-1.6,25,-39.8557,338.488,941.594,-0.363535,-0.5637,-1.65891,
2026_07_06_20_49_25.368,3.862,31.2,0,0.761,0,0,0,0, ,0,0,0,0,0, ,-40.4,338.9,942.2,-0.5,-0.5,-1.6,25,-39.8767,338.532,941.631,-0.36271,-0.559818,-1.65532,
2026_07_06_20_49_25.388,3.862,31.2,0,0.759,0,0,0,0, ,0,0,0,0,0, ,-40,338.8,941.6,-0.5,-0.6,-1.8,25,-39.8964,338.551,941.647,-0.371076,-0.55922,-1.65805,
2026_07_06_20_49_25.409,3.862,31.2,0,0.76,0,0,0,0, ,0,0,0,0,0, ,-39.7,338.8,941.6,-0.5,-0.6,-1.6,25,-39.8935,338.566,941.644,-0.378932,-0.561705,-1.6606,
2026_07_06_20_49_25.428,3.862,31.3,0,0.761,0,0,0,0, ,0,0,0,0,0, ,-40.2,340.3,942.1,-0.4,-0.5,-1.6,25,-39.897,338.626,941.657,-0.383263,-0.560992,-1.65691,
2026_07_06_20_49_25.448,3.862,31.3,0,0.76,0,0,0,0, ,0,0,0,0,0, ,-39.9,338.9,939.8,-0.4,-0.6,-1.7,25,-39.9063,338.686,941.614,-0.384283,-0.560322,-1.65649,
2026_07_06_20_49_25.467,3.862,31.3,0,0.761,0,0,0,0, ,0,0,0,0,0, ,-40.1,340.2,941.7,-0.4,-0.6,-1.7,25,-39.912,338.738,941.561,-0.385241,-0.56274,-1.65914,
2026_07_06_20_49_25.487,3.862,31.2,0,0.76,0,0,0,0, ,0,0,0,0,0, ,-40.4,339.8,941,-0.4,-0.5,-1.7,25,-39.9326,338.815,941.548,-0.38614,-0.561963,-1.66163,
2026_07_06_20_49_25.507,3.862,31.2,0,0.759,0,0,0,0, ,0,0,0,0,0, ,-39.4,339.9,941,-0.4,-0.6,-1.6,25,-39.9306,338.878,941.515,-0.386985,-0.561234,-1.66092,
2026_07_06_20_49_25.527,3.862,31.2,0,0.76,0,0,0,0, ,0,0,0,0,0, ,-40.4,338.6,941.1,-0.2,-0.6,-1.6,25,-39.9288,338.901,941.486,-0.381684,-0.563597,-1.65721,
2026_07_06_20_49_25.547,3.862,31.2,0,0.761,0,0,0,0, ,0,0,0,0,0, ,-39.7,338.5,941.1,-0.3,-0.5,-1.6,25,-39.9361,338.879,941.463,-0.37366,-0.562768,-1.65372,
2026_07_06_20_49_25.566,3.862,31.2,0,0.76,0,0,0,0, ,0,0,0,0,0, ,-37.4,339.9,940.4,-0.2,-0.5,-1.6,25,-39.8517,338.899,941.419,-0.366124,-0.558943,-1.65045,
2026_07_06_20_49_25.586,3.862,31.2,0,0.759,0,0,0,0, ,0,0,0,0,0, ,-39,338.9,941.2,-0.3,-0.6,-1.6,25,-39.751,338.93,941.382,-0.359048,-0.558398,-1.64737,
2026_07_06_20_49_25.606,3.862,31.2,0,0.761,0,0,0,0, ,0,0,0,0,0, ,-39.6,337.6,940.9,-0.1,-0.6,-1.6,25,-39.7235,338.888,941.361,-0.349356,-0.560933,-1.64449,
2026_07_06_20_49_25.626,3.862,31.3,0,0.76,0,0,0,0, ,0,0,0,0,0, ,-39,339.4,939.6,1.2,-0.5,-1.4,25,-39.6977,338.864,941.294,-0.294551,-0.560267,-1.63568,
2026_07_06_20_49_25.645,3.862,31.2,0,0.76,0,0,0,0, ,0,0,0,0,0, ,-99.6,323.1,945.4,11.3,1.8,3.3,25,-41.5016,338.4,941.367,0.104257,-0.486516,-1.47812,
2026_07_06_20_49_25.666,3.862,31.2,0,0.76,0,0,0,0, ,0,0,0,0,0, ,-50.5,359.6,936.5,1,2.7,7.1,25,-43.546,338.58,941.342,0.47267,-0.31976,-1.07117,
2026_07_06_20_49_25.686,3.862,31.2,0,0.761,0,0,0,0, ,0,0,0,0,0, ,-68.8,342,938.1,1.3,-0.8,-2.3,25,-44.5273,339.325,941.095,0.513944,-0.242384,-0.859646,
2026_07_06_20_49_25.706,3.862,31.1,0,0.76,0,0,0,0, ,0,0,0,0,0, ,28.9,350,935.4,3.4,-0.8,-1.8,25,-43.0296,339.732,940.831,0.625829,-0.276364,-0.932183,
2026_07_06_20_49_25.725,3.862,31.2,0,0.759,0,0,0,0, ,0,0,0,0,0, ,-38.2,354.7,937.6,-0.4,-0.6,-1.6,25,-40.6909,340.501,940.567,0.679099,-0.302179,-0.978972,
2026_07_06_20_49_25.745,3.862,31.1,0,0.76,0,0,0,0, ,0,0,0,0,0, ,-40.8,364.6,935.9,-13.3,-0.9,-2,25,-40.6183,341.667,940.334,0.220294,-0.329468,-1.029,
2026_07_06_20_49_25.765,3.862,31.2,0,0.761,0,0,0,0, ,0,0,0,0,0, ,-51.7,317.5,943.2,-15.8,-0.8,-1.6,25,-40.9615,341.63,940.286,-0.67977,-0.361188,-1.07599,
2026_07_06_20_49_25.785,3.862,31.2,0,0.758,0,0,0,0, ,0,0,0,0,0, ,-38.4,343.3,940.7,4.1,-4.6,-13.3,25,-41.2106,340.946,940.388,-0.994831,-0.503709,-1.4644,
2026_07_06_20_49_25.806,3.862,31.2,0,0.761,0,0,0,0, ,0,0,0,0,0, ,-0.1,338.7,942,13.9,-4.8,-14.4,25,-39.8724,340.949,940.446,-0.385771,-0.759421,-2.21915,
2026_07_06_20_49_25.824,3.862,31.2,0,0.76,0,0,0,0, ,0,0,0,0,0, ,-0.4,359.7,940,22.5,-4.1,-10,25,-37.4579,341.452,940.48,0.746799,-0.984315,-2.82736,
2026_07_06_20_49_25.843,3.862,31.2,0,0.76,0,0,0,0, ,0,0,0,0,0, ,-32.2,342.6,946.8,31.6,-13.1,-12.4,25,-36.1686,342.043,940.658,2.34965,-1.4484,-3.33757,
2026_07_06_20_49_25.863,3.862,31.2,0,0.76,0,0,0,0, ,0,0,0,0,0, ,-54,358.8,953.9,20.5,-8.1,-10.3,25,-36.591,342.57,941.249,3.79389,-2.00607,-3.82582,
2026_07_06_20_49_25.883,3.862,31.2,0,0.76,0,0,0,0, ,0,0,0,0,0, ,-26,397.4,934.6,38.8,-9.7,-5.1,25,-36.7987,344.735,941.432,5.3695,-2.42617,-4.06191,
2026_07_06_20_49_25.903,3.862,31.2,0,0.761,0,0,0,0, ,0,0,0,0,0, ,-59.8,402,964.7,22.1,-9.8,6.8,25,-37.1705,348.085,941.932,6.89784,-2.87247,-3.76259,
2026_07_06_20_49_25.923,3.862,31.2,0,0.76,0,0,0,0, ,0,0,0,0,0, ,-24.7,341.6,934.5,4.4,-10,10.9,25,-37.4801,349.53,942.4,7.28492,-3.30071,-2.99401,
2026_07_06_20_49_25.943,3.862,31.2,0,0.758,0,0,0,0, ,0,0,0,0,0, ,-27,385.3,942.2,-15.4,-18.2,-0.1,25,-36.7713,350.378,942.153,6.50584,-3.95879,-2.4825,
2026_07_06_20_49_25.963,3.862,31.2,0,0.76,0,0,0,0, ,0,0,0,0,0, ,-10,364.9,907.3,-6.2,-15.7,3.2,25,-35.6579,351.885,941.092,5.45127,-4.75044,-2.23677,
2026_07_06_20_49_25.983,3.862,31.2,0,0.76,0,0,0,0, ,0,0,0,0,0, ,-6.3,380.6,902.9,-2.8,-11.4,2.4,25,-33.9817,353.156,938.899,4.84486,-5.28666,-1.92984,
2026_07_06_20_49_26.004,3.862,31.2,0,0.76,0,0,0,0, ,0,0,0,0,0, ,-4.7,373.5,913.9,2.9,-8.2,1.8,25,-32.2461,354.612,937.041,4.55268,-5.5617,-1.68427,
2026_07_06_20_49_26.022,3.862,31.2,0,0.76,0,0,0,0, ,0,0,0,0,0, ,-4.7,364.2,933.2,3.2,-6.5,1.1,25,-30.5675,355.48,936.218,4.46111,-5.67067,-1.49328,
2026_07_06_20_49_26.041,3.862,31.1,0,0.76,0,0,0,0, ,0,0,0,0,0, ,36.7,384.8,971.8,-4.7,-16.9,-10.4,25,-27.7298,356.639,937.211,4.14356,-6.03808,-1.68564,
2026_07_06_20_49_26.062,3.862,31.2,0,0.761,0,0,0,0, ,0,0,0,0,0, ,15,402.8,980.3,-2.7,-23.6,-15.2,25,-24.4648,358.903,939.577,3.66559,-6.90412,-2.36292,
2026_07_06_20_49_26.081,3.862,31.2,0,0.76,0,0,0,0, ,0,0,0,0,0, ,10.2,424.3,952.8,-11.1,-32.6,-8.3,25,-22.2061,362.233,941.221,3.02175,-8.19574,-2.93495,
2026_07_06_20_49_26.101,3.862,31.2,0,0.76,0,0,0,0, ,0,0,0,0,0, ,30,396.6,888.7,-19.4,-31,-1.7,25,-19.6281,365.172,939.974,1.90831,-9.63413,-3.06078,
2026_07_06_20_49_26.121,3.862,31.2,0,0.76,0,0,0,0, ,0,0,0,0,0, ,-15,374.6,918.9,-13,-27.8,-10.4,25,-17.975,366.416,937.769,0.804838,-10.8386,-3.24294,
2026_07_06_20_49_26.140,3.862,31.2,0,0.761,0,0,0,0, ,0,0,0,0,0, ,-9.6,336.7,952.2,-17.8,-33.3,-20,25,-17.6292,365.76,937.634,-0.182644,-12.0398,-3.97157,
2026_07_06_20_49_26.161,3.862,31.3,0,0.76,0,0,0,0, ,0,0,0,0,0, ,67.5,345.4,963.1,-34.4,-39,-24.4,25,-14.7907,364.255,938.854,-1.76198,-13.509,-5.08237,
2026_07_06_20_49_26.180,3.862,31.1,0,0.761,0,0,0,0, ,0,0,0,0,0, ,114.1,357.5,907.5,-14.4,-40.2,-26,25,-8.35631,363.474,938.637,-3.14149,-15.0989,-6.30829,
2026_07_06_20_49_26.200,3.862,31.2,0,0.76,0,0,0,0, ,0,0,0,0,0, ,84.5,372.1,875,-1.2,-28.9,-12.7,25,-1.796,363.555,935.75,-3.42536,-16.2842,-7.10302,
2026_07_06_20_49_26.219,3.862,31.2,0,0.76,0,0,0,0, ,0,0,0,0,0, ,40.2,364.9,898.9,3.8,-18,-4.3,25,2.1129,363.856,932.776,-3.13741,-16.7209,-7.18814,
2026_07_06_20_49_26.240,3.862,31.2,0,0.761,0,0,0,0, ,0,0,0,0,0, ,23.1,340.3,995.8,2.2,-20.4,-6.8,25,3.91281,363.17,933.664,-2.76341,-16.8719,-7.08832,
2026_07_06_20_49_26.260,3.862,31.2,0,0.76,0,0,0,0, ,0,0,0,0,0, ,34.5,324.4,1040,-17.5,-35.4,-6.1,25,5.42938,361.292,938.797,-3.06119,-17.544,-7.04942,
2026_07_06_20_49_26.280,3.862,31.2,0,0.76,0,0,0,0, ,0,0,0,0,0, ,137.8,307.2,953.8,-15.8,-45.4,-6,25,10.3483,358.52,942.338,-3.88926,-18.9368,-6.98852,
2026_07_06_20_49_26.299,3.862,31.2,0,0.76,0,0,0,0, ,0,0,0,0,0, ,184.4,337.2,849.6,-10.1,-38.6,-10.3,25,19.5347,356.307,939.861,-4.4414,-20.3422,-7.0593,
2026_07_06_20_49_26.318,3.862,31.2,0,0.761,0,0,0,0, ,0,0,0,0,0, ,101.5,352.1,856.3,-1.2,-22.4,-6.2,25,27.0553,355.597,934.565,-4.51505,-20.9612,-7.13186,
2026_07_06_20_49_26.340,3.862,31.3,0,0.761,0,0,0,0, ,0,0,0,0,0, ,130.4,341.5,923.5,-2.5,-13.5,-3.4,25,32.4724,355.06,931.843,-4.35265,-20.7777,-6.98976,
2026_07_06_20_49_26.363,3.862,31.2,0,0.761,0,0,0,0, ,0,0,0,0,0, ,102.5,335.9,973,-6.4,-17.2,-4.3,25,37.5897,354.064,932.843,-4.35858,-20.4469,-6.79843,
2026_07_06_20_49_26.379,3.862,31.2,0,0.76,0,0,0,0, ,0,0,0,0,0, ,137,348.7,971.9,-12.5,-25.1,-3.3,25,42.5964,353.347,935.257,-4.66884,-20.4898,-6.61571,
2026_07_06_20_49_26.398,3.862,31.2,0,0.76,0,0,0,0, ,0,0,0,0,0, ,170.5,360.2,917.8,-9.7,-25.9,5,25,49.3698,353.414,935.841,-5.06074,-20.7951,-6.16077,
2026_07_06_20_49_26.418,3.862,31.3,0,0.76,0,0,0,0, ,0,0,0,0,0, ,157.8,329.7,925.4,-10.2,-24.2,6.4,25,56.3642,352.898,934.973,-5.35868,-21.0544,-5.43801,
2026_07_06_20_49_26.437,3.862,31.2,0,0.761,0,0,0,0, ,0,0,0,0,0, ,159,332.5,933.9,-6.3,-25.2,3.8,25,62.582,351.57,934.649,-5.53487,-21.2765,-4.79585,
2026_07_06_20_49_26.457,3.862,31.2,0,0.761,0,0,0,0, ,0,0,0,0,0, ,136.7,320.8,972,-11.9,-29.6,2.6,25,67.778,350.051,935.764,-5.75212,-21.6497,-4.3086,
2026_07_06_20_49_26.477,3.862,31.3,0,0.76,0,0,0,0, ,0,0,0,0,0, ,145.5,326.9,992.4,-13.4,-37.5,4.7,25,72.2461,348.455,938.594,-6.17246,-22.3748,-3.82362,
2026_07_06_20_49_26.498,3.862,31.2,0,0.76,0,0,0,0, ,0,0,0,0,0, ,183.2,312,939.8,-12,-43.5,10.5,25,77.8587,346.687,940.27,-6.57023,-23.4793,-3.12749,
2026_07_06_20_49_26.516,3.862,31.2,0,0.76,0,0,0,0, ,0,0,0,0,0, ,262.2,230.7,938.1,-5.2,-44.6,11.6,25,86.6849,342.096,940.19,-6.69392,-24.7329,-2.26355,
2026_07_06_20_49_26.537,3.862,31.3,0,0.762,0,0,0,0, ,0,0,0,0,0, ,251.2,369.9,870.2,-10.9,-46.5,3,25,97.0452,339.549,937.994,-6.77655,-26.0014,-1.68077,
2026_07_06_20_49_26.556,3.862,31.2,0,0.76,0,0,0,0, ,0,0,0,0,0, ,181.7,317.5,940.6,-5.9,-40.9,12.7,25,104.321,339.802,936.007,-6.87548,-27.0799,-1.09999,
2026_07_06_20_49_26.576,3.862,31.1,0,0.76,0,0,0,0, ,0,0,0,0,0, ,239.6,302.1,952.7,-12.1,-47.6,11.7,25,110.801,337.974,936.656,-7.00494,-28.1262,-0.289525,
2026_07_06_20_49_26.596,3.862,31.3,0,0.761,0,0,0,0, ,0,0,0,0,0, ,275.5,233.8,935.4,-11.5,-51.8,10,25,119.743,333.707,937.106,-7.29714,-29.4409,0.38929,
2026_07_06_20_49_26.616,3.862,31.2,0,0.761,0,0,0,0, ,0,0,0,0,0, ,332.7,312.9,863,-17.6,-56.8,-3.4,25,130.978,330.029,934.797,-7.73911,-30.9557,0.566661,
2026_07_06_20_49_26.636,3.862,31.3,0,0.76,0,0,0,0, ,0,0,0,0,0, ,346.9,324.8,854.6,-4.7,-46.1,10.8,25,143.703,329.348,930.165,-7.94697,-32.2046,0.757599,
2026_07_06_20_49_26.656,3.862,31.2,0,0.761,0,0,0,0, ,0,0,0,0,0, ,365.8,271.3,914,-9.1,-41.3,30.3,25,156.661,327.441,927.371,-7.88317,-32.9051,1.9637,
2026_07_06_20_49_26.675,3.862,31.2,0,0.761,0,0,0,0, ,0,0,0,0,0, ,359.1,301.3,910.7,-13.9,-44.6,26.8,25,169.201,324.934,926.455,-8.10357,-33.5172,3.5838,
2026_07_06_20_49_26.695,3.862,31.3,0,0.761,0,0,0,0, ,0,0,0,0,0, ,355.4,317.7,921.8,-9.9,-46.2,19.9,25,180.66,323.993,925.833,-8.33491,-34.2413,4.7883,
2026_07_06_20_49_26.715,3.862,31.2,0,0.761,0,0,0,0, ,0,0,0,0,0, ,264.5,263.7,932.6,-18.7,-73.1,12.6,25,188.539,321.964,925.917,-8.69841,-35.7897,5.48675,
2026_07_06_20_49_26.734,3.862,31.3,0,0.76,0,0,0,0, ,0,0,0,0,0, ,374.6,230.9,864.2,-21.2,-79,4.1,25,196.522,317.414,924.24,-9.38405,-38.243,5.66123,
2026_07_06_20_49_26.760,3.862,31.2,0,0.761,0,0,0,0, ,0,0,0,0,0, ,379.5,234.4,788.2,-14.3,-60.7,1.3,25,207.523,312.249,918.266,-9.89385,-40.1691,5.48078,
2026_07_06_20_49_26.775,3.862,31.2,0,0.76,0,0,0,0, ,0,0,0,0,0, ,477.7,248,838.7,-6.7,-41.3,-5.9,25,220.995,307.919,911.878,-9.93079,-40.8291,5.00664,
2026_07_06_20_49_26.794,3.862,31.3,0,0.761,0,0,0,0, ,0,0,0,0,0, ,481.5,230.9,877.3,-18.3,-16.5,-1.9,25,236.754,303.747,908.595,-10.0874,-40.1022,4.46389,
2026_07_06_20_49_26.814,3.862,31.2,0,0.758,0,0,0,0, ,0,0,0,0,0, ,529.5,262.6,895.6,-17.9,6.2,7.2,25,253.131,300.274,907.246,-10.5756,-37.9723,4.35336,
2026_07_06_20_49_26.833,3.862,31.2,0,0.761,0,0,0,0, ,0,0,0,0,0, ,446,277.7,873.6,-26.5,3,9.2,25,267.428,298.438,905.866,-11.284,-35.378,4.58776,
2026_07_06_20_49_26.854,3.862,31.2,0,0.761,0,0,0,0, ,0,0,0,0,0, ,370.6,186,870.8,-26.9,-12.4,2.2,25,276.012,294.38,903.814,-12.2234,-33.5086,4.65554,
2026_07_06_20_49_26.873,3.862,31.2,0,0.761,0,0,0,0, ,0,0,0,0,0, ,413.8,158.4,839.4,-27.7,-8.3,8.4,25,283.092,286.935,900.846,-13.1421,-32.0973,4.69481,
2026_07_06_20_49_26.898,3.862,31.2,0,0.76,0,0,0,0, ,0,0,0,0,0, ,381.1,132.4,792.3,-25.2,18.5,5.3,25,290.061,278.31,895.666,-13.9531,-29.8306,4.82614,
2026_07_06_20_49_26.913,3.862,31.3,0,0.761,0,0,0,0, ,0,0,0,0,0, ,465.3,13.6,799.5,1.5,64.3,-10.9,25,298.174,265.799,889.587,-13.8249,-25.49,4.36142,
2026_07_06_20_49_26.933,3.862,31.2,0,0.76,0,0,0,0, ,0,0,0,0,0, ,425.7,319,895,13.6,85.2,-50.9,25,307.152,259.736,887.007,-12.5224,-19.3816,2.21268,
2026_07_06_20_49_26.952,3.862,31.1,0,0.76,0,0,0,0, ,0,0,0,0,0, ,346.8,242.5,969.2,22.7,61.8,-32.5,25,311.972,261.017,889.755,-10.6533,-13.7217,-0.463248,
2026_07_06_20_49_26.972,3.862,31.2,0,0.76,0,0,0,0, ,0,0,0,0,0, ,334.1,163.4,921.8,-4.3,13.6,-17.7,25,313.707,257.478,893.152,-9.44348,-10.5882,-1.96455,
2026_07_06_20_49_26.992,3.862,31.3,0,0.761,0,0,0,0, ,0,0,0,0,0, ,393.7,472.4,1029.2,-69.5,-19.3,-35,25,316.766,261.16,898.17,-11.1166,-10.1166,-3.45054,
2026_07_06_20_49_27.011,3.862,31.3,0,0.758,0,0,0,0, ,0,0,0,0,0, ,357,244.9,845.3,-63.2,15.8,-59.9,25,320.336,267.101,900.551,-14.4824,-9.60677,-6.13175,
2026_07_06_20_49_27.032,3.862,31.2,0,0.761,0,0,0,0, ,0,0,0,0,0, ,373,260.1,881.7,-36.1,88.3,-86.5,25,323.058,266.211,898.293,-16.6254,-5.84956,-10.2187,
2026_07_06_20_49_27.052,3.862,31.2,0,0.761,0,0,0,0, ,0,0,0,0,0, ,255.1,169.4,957.3,-33.3,125.5,-103.2,25,322.509,263.075,899.586,-17.7268,1.02111,-15.3759,
2026_07_06_20_49_27.071,3.862,31.3,0,0.76,0,0,0,0, ,0,0,0,0,0, ,200.8,27,1063.8,-21.2,114.1,-115.1,25,316.747,253.028,906.348,-18.3072,8.2592,-21.0903,
2026_07_06_20_49_27.092,3.862,31.2,0,0.76,0,0,0,0, ,0,0,0,0,0, ,161.2,266.8,900.3,-21.9,87.9,-98.1,25,308.474,246.561,910.961,-18.5048,13.9106,-26.301,
2026_07_06_20_49_27.111,3.862,31.2,0,0.762,0,0,0,0, ,0,0,0,0,0, ,136.3,251.8,923.4,-9.2,63.1,-76.3,25,298.741,247.337,911.015,-18.3247,17.6637,-30.0121,
2026_07_06_20_49_27.131,3.862,31.3,0,0.762,0,0,0,0, ,0,0,0,0,0, ,132.6,328.2,936,20.4,29.5,-50.9,25,288.73,249.937,912.154,-16.8668,19.4087,-32.0588,
2026_07_06_20_49_27.151,3.862,31.2,0,0.76,0,0,0,0, ,0,0,0,0,0, ,199.3,188.8,987.4,4.2,-7.4,-42.5,25,281.248,250.459,915.173,-15.0894,18.8994,-32.951,
2026_07_06_20_49_27.171,3.862,31.3,0,0.76,0,0,0,0, ,0,0,0,0,0, ,221.9,116.2,994.5,0,-32,-40.2,25,276.943,244.489,919.79,-14.042,16.5472,-33.4628,
2026_07_06_20_49_27.191,3.862,31.2,0,0.761,0,0,0,0, ,0,0,0,0,0, ,230.9,157.3,891.3,9.5,-37.2,-22,25,273.863,237.924,921.199,-12.8968,13.4304,-33.3189,
2026_07_06_20_49_27.210,3.862,31.2,0,0.76,0,0,0,0, ,0,0,0,0,0, ,228,256.7,895.8,5.7,-41.7,-2.2,25,271.156,236.04,919.514,-11.6478,10.208,-32.0258,
2026_07_06_20_49_27.230,3.862,31.3,0,0.761,0,0,0,0, ,0,0,0,0,0, ,181,220.5,985.9,18.2,-42.3,4.3,25,267.095,236.196,920.814,-10.2098,7.0266,-30.0103,
2026_07_06_20_49_27.250,3.862,31.2,0,0.758,0,0,0,0, ,0,0,0,0,0, ,167.7,230.1,956.2,9.4,-42.7,-1.7,25,261.443,235.532,923.875,-8.74672,4.00858,-28.1023,
2026_07_06_20_49_27.270,3.862,31.1,0,0.761,0,0,0,0, ,0,0,0,0,0, ,201,231.4,941.5,12.9,-41.4,-15.6,25,256.745,235.24,925.397,-7.53426,1.20188,-26.9169,
2026_07_06_20_49_27.290,3.862,31.2,0,0.761,0,0,0,0, ,0,0,0,0,0, ,201.6,222.1,995.9,15,-53.5,-28.2,25,253.366,234.723,928.036,-6.22506,-1.76284,-26.6112,
2026_07_06_20_49_27.309,3.862,31.2,0,0.761,0,0,0,0, ,0,0,0,0,0, ,278.4,245.1,986.3,4.2,-75,-28,25,252.552,234.655,931.879,-5.26072,-5.57065,-26.7019,
2026_07_06_20_49_27.328,3.862,31.1,0,0.76,0,0,0,0, ,0,0,0,0,0, ,341.3,274.1,949.4,-11.4,-87.7,-13.7,25,256.043,236.175,934.071,-5.15952,-10.1885,-26.3453,
2026_07_06_20_49_27.348,3.862,31.2,0,0.76,0,0,0,0, ,0,0,0,0,0, ,329.8,254.2,939,-17.9,-88.9,10.2,25,260.888,237.879,934.688,-5.73785,-14.9484,-24.8466,
2026_07_06_20_49_27.368,3.862,31.2,0,0.758,0,0,0,0, ,0,0,0,0,0, ,312.1,255.8,914.5,-19.9,-91,17.1,25,264.548,238.923,934.204,-6.53992,-19.5188,-22.5007,
2026_07_06_20_49_27.388,3.862,31.1,0,0.76,0,0,0,0, ,0,0,0,0,0, ,377,224.8,956.1,-25.4,-88.7,10.7,25,269.424,239.007,934.271,-7.52163,-23.8046,-20.2825,
2026_07_06_20_49_27.408,3.862,31.1,0,0.761,0,0,0,0, ,0,0,0,0,0, ,404.7,266.2,945.4,-58,-80.6,13.4,25,276.823,239.402,935.275,-9.60437,-27.5124,-18.3122,
2026_07_06_20_49_27.433,3.862,31.1,0,0.761,0,0,0,0, ,0,0,0,0,0, ,420.6,194.7,949.5,-67.6,-80.1,33,25,285.1,238.857,936.017,-12.846,-30.7322,-15.7826,
2026_07_06_20_49_27.448,3.862,31.2,0,0.758,0,0,0,0, ,0,0,0,0,0, ,448.8,162.2,951.7,-72.2,-83.9,41.1,25,294.216,235.176,936.906,-16.3227,-33.8563,-12.5631,
2026_07_06_20_49_27.468,3.862,31.1,0,0.76,0,0,0,0, ,0,0,0,0,0, ,453.2,121.7,955.2,-70.7,-90,40.3,25,303.77,229.495,937.914,-19.682,-37.0917,-9.31739,
2026_07_06_20_49_27.487,3.862,31.2,0,0.76,0,0,0,0, ,0,0,0,0,0, ,483.8,78.3,933.1,-57.2,-106.8,18.4,25,313.808,221.604,938.294,-22.3796,-40.8277,-6.96109,
2026_07_06_20_49_27.508,3.862,31.2,0,0.761,0,0,0,0, ,0,0,0,0,0, ,435.3,137.6,876,-43.9,-139.4,-5.2,25,322.69,214.678,936.238,-24.0962,-45.8411,-6.13471,
2026_07_06_20_49_27.527,3.862,31.2,0,0.761,0,0,0,0, ,0,0,0,0,0, ,523.4,109.7,779.7,-27.1,-144.8,27,25,332.236,209.131,929.633,-24.7912,-51.7069,-5.09666,
2026_07_06_20_49_27.547,3.862,31.2,0,0.761,0,0,0,0, ,0,0,0,0,0, ,610.5,59.3,727.2,-34.1,-110.4,47.4,25,346.539,201.536,918.897,-25.1451,-56.3316,-2.51921,
2026_07_06_20_49_27.568,3.862,31.2,0,0.76,0,0,0,0, ,0,0,0,0,0, ,696.2,19.2,719.2,-27,-72.7,20.3,25,365.235,191.647,906.971,-25.4745,-58.4778,-0.30296,
2026_07_06_20_49_27.586,3.862,31.2,0,0.76,0,0,0,0, ,0,0,0,0,0, ,661.8,64.4,770.6,-12,-72.7,-3.4,25,384.355,182.516,897.095,-25.1104,-59.3444,0.230423,
2026_07_06_20_49_27.606,3.862,31.2,0,0.761,0,0,0,0, ,0,0,0,0,0, ,625,54.8,780.8,-15.5,-105.1,4.1,25,400.141,175.025,889.698,-24.4181,-61.1455,0.23771,
2026_07_06_20_49_27.626,3.862,31.1,0,0.758,0,0,0,0, ,0,0,0,0,0, ,683.4,95.3,732.6,-16.2,-95.4,12.2,25,415.623,168.933,881.593,-23.896,-63.5284,0.719865,
2026_07_06_20_49_27.646,3.862,31.2,0,0.76,0,0,0,0, ,0,0,0,0,0, ,673.2,43.2,608,-4.8,-79.1,31.3,25,431.629,162.859,868.717,-23.0797,-64.9739,2.00139,
2026_07_06_20_49_27.666,3.862,31.1,0,0.76,0,0,0,0, ,0,0,0,0,0, ,676.6,16.8,616.5,-11.5,-62,16,25,446.454,154.763,853.089,-22.1699,-65.3137,3.3206,
2026_07_06_20_49_27.685,3.862,31.1,0,0.761,0,0,0,0, ,0,0,0,0,0, ,745.1,0.2,692.9,-18.8,-61.2,-6.4,25,462.565,145.85,841,-21.7421,-65.0874,3.41075,
2026_07_06_20_49_27.705,3.862,31.2,0,0.76,0,0,0,0, ,0,0,0,0,0, ,749.5,12.8,649.9,-22.6,-61.8,-6.5,25,479.916,137.358,830.665,-21.6786,-64.8688,2.80986,
2026_07_06_20_49_27.725,3.862,31.2,0,0.76,0,0,0,0, ,0,0,0,0,0, ,807.9,56.8,553.3,-24.9,-50.7,-2.3,25,498.124,131.109,816.706,-21.8049,-64.3436,2.37051,
2026_07_06_20_49_27.745,3.862,31.2,0,0.761,0,0,0,0, ,0,0,0,0,0, ,754.6,35.5,592,-10.8,-38.6,4.5,25,515.377,125.931,801.834,-21.5639,-63.1435,2.29309,
2026_07_06_20_49_27.765,3.862,31.2,0,0.76,0,0,0,0, ,0,0,0,0,0, ,713.2,3.5,557.1,-7.5,-46.1,8.9,25,528.693,119.446,787.984,-20.8074,-61.8764,2.56164,
2026_07_06_20_49_27.785,3.862,31.1,0,0.76,0,0,0,0, ,0,0,0,0,0, ,760.7,-10,577,-11,-58.5,-4.2,25,541.383,111.969,774.521,-20.1031,-61.2929,2.54874,
2026_07_06_20_49_27.804,3.862,31.1,0,0.76,0,0,0,0, ,0,0,0,0,0, ,810.9,16.4,573.8,-10.7,-66.3,-5.8,25,556.278,105.341,762.387,-19.5393,-61.3603,2.08874,
2026_07_06_20_49_27.824,3.862,31.2,0,0.76,0,0,0,0, ,0,0,0,0,0, ,820,11.8,533.5,-2.3,-60.8,12.6,25,572.071,99.7808,749.667,-18.7447,-61.4938,2.16864,
2026_07_06_20_49_27.843,3.862,31.1,0,0.761,0,0,0,0, ,0,0,0,0,0, ,842.2,-13.4,489.2,-6.8,-49.8,11.6,25,587.856,93.6517,735.144,-17.8797,-61.1163,2.77383,
2026_07_06_20_49_27.863,3.862,31.2,0,0.759,0,0,0,0, ,0,0,0,0,0, ,853.1,-32.7,517.8,-6.3,-41.8,-1,25,603.687,86.5402,721.029,-17.1893,-60.183,2.92777,
2026_07_06_20_49_27.883,3.862,31.2,0,0.759,0,0,0,0, ,0,0,0,0,0, ,796.7,-49,512.8,-12.9,-43,-8.5,25,617.167,78.7773,708.492,-16.7268,-59.0993,2.45991,
2026_07_06_20_49_27.903,3.862,31.2,0,0.76,0,0,0,0, ,0,0,0,0,0, ,794.5,0.1,467.1,-17.9,-51.2,-20.8,25,628.04,72.4869,695.175,-16.646,-58.3681,1.41727,
2026_07_06_20_49_27.923,3.862,31.2,0,0.761,0,0,0,0, ,0,0,0,0,0, ,793.4,26.9,489.1,-12.1,-40.4,-17.6,25,638.15,68.8924,681.947,-16.5457,-57.6023,0.160909,
2026_07_06_20_49_27.942,3.862,31.2,0,0.76,0,0,0,0, ,0,0,0,0,0, ,821.8,-15.1,404.1,-15.5,-28,-5.6,25,648.476,65.0538,667.605,-16.3783,-56.1762,-0.555772,
2026_07_06_20_49_27.962,3.862,31.2,0,0.759,0,0,0,0, ,0,0,0,0,0, ,864.5,-44.4,399.5,-14.5,-40.4,-21.7,25,660.339,59.2767,651.408,-16.2944,-54.837,-1.3537,
2026_07_06_20_49_27.983,3.862,31.2,0,0.759,0,0,0,0, ,0,0,0,0,0, ,916.9,8.9,426,-7.2,-78.5,-40.5,25,674.377,54.5829,636.864,-15.9626,-55.1181,-3.16637,
2026_07_06_20_49_28.002,3.862,31.1,0,0.761,0,0,0,0, ,0,0,0,0,0, ,894.4,0.1,451.5,-10.9,-69.3,-29.8,25,688.47,51.531,624.792,-15.5414,-56.2626,-5.11537,
2026_07_06_20_49_28.022,3.862,31.1,0,0.76,0,0,0,0, ,0,0,0,0,0, ,977.4,12.9,395.1,-8.6,-41.2,-20.3,25,703.548,48.7869,612.513,-15.1884,-56.2009,-6.33013,
2026_07_06_20_49_28.041,3.862,31.2,0,0.76,0,0,0,0, ,0,0,0,0,0, ,968.7,43.8,324.4,-8.7,-39,-10.9,25,719.97,47.5415,597.111,-14.79,-55.2198,-6.89502,
2026_07_06_20_49_28.062,3.862,31.2,0,0.759,0,0,0,0, ,0,0,0,0,0, ,901.7,44.9,354.1,-0.7,-41.2,-7.4,25,733.086,47.347,581.397,-14.1751,-54.2984,-7.03243,
2026_07_06_20_49_28.082,3.862,31.2,0,0.76,0,0,0,0, ,0,0,0,0,0, ,948.4,20.8,347.6,-3.9,-37.4,-6,25,744.784,46.4636,567.348,-13.4515,-53.3844,-7.01217,
2026_07_06_20_49_28.106,3.862,31.1,0,0.761,0,0,0,0, ,0,0,0,0,0, ,937,40.7,348.8,-13.3,-54.2,-4.7,25,756.844,45.5061,553.994,-13.1559,-52.9223,-6.91088,
2026_07_06_20_49_28.121,3.862,31.2,0,0.763,0,0,0,0, ,0,0,0,0,0, ,947.5,54,313.7,-12.5,-47,-5.3,25,768.143,45.6184,540.421,-13.1403,-52.7808,-6.79444,
2026_07_06_20_49_28.141,3.862,31.2,0,0.759,0,0,0,0, ,0,0,0,0,0, ,958.8,56,308.5,-14.3,-44.2,-4.6,25,779.416,46.1901,526.446,-13.1561,-52.3432,-6.68204,
2026_07_06_20_49_28.161,3.862,31.2,0,0.761,0,0,0,0, ,0,0,0,0,0, ,956.4,41.5,291.2,-24.5,-45,-1.1,25,790.274,46.3461,512.638,-13.5366,-51.8713,-6.44853,
2026_07_06_20_49_28.180,3.862,31.1,0,0.762,0,0,0,0, ,0,0,0,0,0, ,963.9,36.1,273.5,-34.4,-50.9,-0.3,25,800.626,45.8863,498.605,-14.5063,-51.6324,-6.09823,
2026_07_06_20_49_28.200,3.862,31.2,0,0.76,0,0,0,0, ,0,0,0,0,0, ,903.9,114.5,231.5,-17.4,-59.6,-4.3,25,808.748,47.6787,483.608,-15.2006,-51.8528,-5.86677,
2026_07_06_20_49_28.219,3.862,31.1,0,0.761,0,0,0,0, ,0,0,0,0,0, ,940.3,-58.8,218.3,0.3,-64.9,-20.8,25,815.655,46.4704,467.843,-14.7953,-52.4864,-6.27403,
2026_07_06_20_49_28.244,3.862,31.2,0,0.761,0,0,0,0, ,0,0,0,0,0, ,988.2,111.3,248,20.1,-49.9,-6.9,25,824.71,45.2382,453.541,-13.2722,-52.7858,-6.73569,
2026_07_06_20_49_28.260,3.862,31.2,0,0.76,0,0,0,0, ,0,0,0,0,0, ,974.3,28,226.3,5.5,-39.5,-6.5,25,834.249,46.7258,440.355,-11.6834,-52.2931,-6.73352,
2026_07_06_20_49_28.279,3.862,31.2,0,0.76,0,0,0,0, ,0,0,0,0,0, ,967.4,32.9,217.2,2.2,-42.1,-2.3,25,842.573,45.734,427.034,-10.7368,-51.5927,-6.59132,
2026_07_06_20_49_28.299,3.862,31.2,0,0.76,0,0,0,0, ,0,0,0,0,0, ,984.7,71,213,-4.7,-36.4,-3.9,25,850.707,46.1128,414.119,-10.1587,-50.8406,-6.37857,
2026_07_06_20_49_28.318,3.862,31.2,0,0.761,0,0,0,0, ,0,0,0,0,0, ,886.4,57.8,172.9,-9,-25.3,-13.8,25,855.877,47.2271,400.642,-9.95712,-49.6224,-6.52917,
2026_07_06_20_49_28.338,3.862,31.2,0,0.761,0,0,0,0, ,0,0,0,0,0, ,958.2,-48.7,129.3,1.8,-51.8,-19.5,25,859.925,44.6265,385.435,-9.56973,-48.9477,-7.14591,
2026_07_06_20_49_28.358,3.862,31.2,0,0.761,0,0,0,0, ,0,0,0,0,0, ,1025.8,79.1,157.7,14.9,-61.1,-0.2,25,867.973,42.8333,370.692,-8.47775,-49.4049,-7.31069,
2026_07_06_20_49_28.378,3.862,31.1,0,0.76,0,0,0,0, ,0,0,0,0,0, ,1006.1,87,202.7,-3.6,-27.4,-11.2,25,876.99,45.284,359.084,-7.61684,-49.0907,-7.21254,
2026_07_06_20_49_28.399,3.862,31.2,0,0.76,0,0,0,0, ,0,0,0,0,0, ,991.9,42.4,173.8,-5.5,-26.4,-9,25,884.425,46.4672,348.674,-7.42995,-47.7385,-7.38849,
2026_07_06_20_49_28.417,3.862,31.2,0,0.76,0,0,0,0, ,0,0,0,0,0, ,966.1,43.3,140.1,1,-20.1,-8.1,25,890.189,46.2468,336.991,-7.1143,-46.2462,-7.45927,
2026_07_06_20_49_28.438,3.862,31.1,0,0.762,0,0,0,0, ,0,0,0,0,0, ,978.8,85.5,118,5.8,-14.7,-14.5,25,895.201,47.353,324.319,-6.47358,-44.4884,-7.69332,
2026_07_06_20_49_28.458,3.862,31.1,0,0.758,0,0,0,0, ,0,0,0,0,0, ,1044.4,38.3,62.5,0,-29.9,-6.5,25,902.294,48.2394,310.056,-5.90238,-43.1363,-7.86435,
2026_07_06_20_49_28.477,3.862,31.2,0,0.76,0,0,0,0, ,0,0,0,0,0, ,982,69.9,65,-1.7,-18.5,-7,25,909.053,48.5966,295.046,-5.5945,-41.9824,-7.79644,
2026_07_06_20_49_28.497,3.862,31.2,0,0.76,0,0,0,0, ,0,0,0,0,0, ,1000,63.3,94.9,0,-14.5,-6.8,25,914.046,49.6937,281.939,-5.30538,-40.4295,-7.74182,
2026_07_06_20_49_28.517,3.862,31.2,0,0.761,0,0,0,0, ,0,0,0,0,0, ,1007.9,55.2,116.5,8.1,-11.4,-3.9,25,919.525,50.276,271.199,-4.73529,-38.755,-7.59606,
2026_07_06_20_49_28.537,3.862,31.2,0,0.76,0,0,0,0, ,0,0,0,0,0, ,966.5,68.7,92,16.1,-5.7,-4.3,25,923.649,50.9874,261.026,-3.70939,-36.9144,-7.38302,
2026_07_06_20_49_28.557,3.862,31.1,0,0.761,0,0,0,0, ,0,0,0,0,0, ,986.2,84.8,52.9,1.2,-7.9,-4.8,25,926.86,52.5573,249.535,-2.95624,-35.0793,-7.21039,
2026_07_06_20_49_28.576,3.862,31.1,0,0.763,0,0,0,0, ,0,0,0,0,0, ,942.8,97.7,62.1,7.8,-9.8,2.9,25,929.154,54.9151,237.833,-2.50187,-33.4809,-6.82889,
2026_07_06_20_49_28.596,3.862,31.1,0,0.76,0,0,0,0, ,0,0,0,0,0, ,993.2,69.7,54.9,8.5,-12.2,4.9,25,931.521,56.6692,226.904,-1.85278,-32.111,-6.1751,
2026_07_06_20_49_28.616,3.862,31.2,0,0.761,0,0,0,0, ,0,0,0,0,0, ,1066.4,59.3,29.6,12.6,-10.9,3.3,25,937.51,57.1464,215.652,-1.09698,-30.8581,-5.54896,
2026_07_06_20_49_28.641,3.862,31.2,0,0.76,0,0,0,0, ,0,0,0,0,0, ,1037.7,60.3,32.4,8.1,-7.6,0,25,944.49,57.3081,204.4,-0.399431,-29.5413,-5.11028,
2026_07_06_20_49_28.656,3.862,31.2,0,0.76,0,0,0,0, ,0,0,0,0,0, ,1002.9,61.1,46.2,6.7,-6.5,5.8,25,949.109,57.5148,194.339,0.0758463,-28.1708,-4.62215,
2026_07_06_20_49_28.676,3.862,31.2,0,0.761,0,0,0,0, ,0,0,0,0,0, ,954.1,71,62.3,4.7,-8.3,6.2,25,950.9,58.0349,185.802,0.418568,-26.9051,-3.97486,
2026_07_06_20_49_28.695,3.862,31.2,0,0.761,0,0,0,0, ,0,0,0,0,0, ,871.5,114.9,79.2,5.9,4,3.3,25,948.579,60.1625,178.791,0.71603,-25.3965,-3.44319,
2026_07_06_20_49_28.715,3.862,31.2,0,0.76,0,0,0,0, ,0,0,0,0,0, ,1016.9,22.5,39.7,23.9,-8.5,16.3,25,948.312,60.6828,171.519,1.58037,-23.986,-2.63618,
2026_07_06_20_49_28.734,3.862,31.2,0,0.761,0,0,0,0, ,0,0,0,0,0, ,1057.1,8,-4.5,8.9,-19,2.2,25,953.716,57.9142,162.14,2.48344,-23.3623,-1.91187,
2026_07_06_20_49_28.754,3.862,31.2,0,0.76,0,0,0,0, ,0,0,0,0,0, ,1013.6,52.8,37.5,7.3,-9.6,0.3,25,958.691,56.2376,153.265,2.8257,-22.8101,-1.71919,
2026_07_06_20_49_28.774,3.862,31.2,0,0.761,0,0,0,0, ,0,0,0,0,0, ,977.5,46.8,100.5,10.6,-5.8,1.8,25,960.937,55.8453,148.13,3.1989,-21.8893,-1.55045,
2026_07_06_20_49_28.794,3.862,31.2,0,0.76,0,0,0,0, ,0,0,0,0,0, ,906.4,72.9,70.4,6.9,7.8,5.3,25,959.78,56.0893,144.31,3.53717,-20.4945,-1.23964,
2026_07_06_20_49_28.814,3.862,31.2,0,0.76,0,0,0,0, ,0,0,0,0,0, ,936,22.7,48.2,15.6,10.7,12.8,25,957.429,55.5842,139.13,4.00717,-18.6819,-0.612613,
2026_07_06_20_49_28.833,3.862,31.2,0,0.76,0,0,0,0, ,0,0,0,0,0, ,986.9,14,33.8,5.7,5.5,2.4,25,957.674,53.3152,133.15,4.41196,-17.0499,-0.112157,
2026_07_06_20_49_28.853,3.862,31.2,0,0.761,0,0,0,0, ,0,0,0,0,0, ,1022.7,31.8,-5.8,-3,-11.1,-15.7,25,960.546,51.4618,125.889,4.22538,-16.1815,-0.510557,
2026_07_06_20_49_28.874,3.862,31.1,0,0.761,0,0,0,0, ,0,0,0,0,0, ,1023.6,39.9,-6.5,2.3,-13.7,-5.3,25,964.361,50.5105,117.843,3.94656,-15.9511,-1.11929,
2026_07_06_20_49_28.893,3.862,31.1,0,0.76,0,0,0,0, ,0,0,0,0,0, ,991.9,51.1,63.2,8.1,-12.4,-4.1,25,967.005,50.2051,112.39,4.02295,-15.7743,-1.33749,
2026_07_06_20_49_28.913,3.862,31.2,0,0.761,0,0,0,0, ,0,0,0,0,0, ,986.5,40.4,60.4,10,-6.8,-1.6,25,968.357,49.9337,109.307,4.32928,-15.3981,-1.42966,
2026_07_06_20_49_28.932,3.862,31.1,0,0.76,0,0,0,0, ,0,0,0,0,0, ,980.4,37.5,32.7,2.3,-9.6,-3.7,25,969.277,49.2643,105.483,4.44023,-14.9594,-1.50402,
2026_07_06_20_49_28.953,3.862,31.2,0,0.761,0,0,0,0, ,0,0,0,0,0, ,985.4,40.5,13.4,0.4,-12,-6.7,25,970.107,48.6389,100.459,4.25192,-14.706,-1.72924,
2026_07_06_20_49_28.972,3.862,31.2,0,0.762,0,0,0,0, ,0,0,0,0,0, ,1010.8,47.2,7.3,1.4,-9.2,-4.9,25,971.813,48.347,94.9684,4.04766,-14.4558,-1.97731,
2026_07_06_20_49_28.992,3.862,31.1,0,0.76,0,0,0,0, ,0,0,0,0,0, ,1010.4,60.4,7.9,3.2,-4.7,-2.4,25,974.177,48.6793,89.6444,3.94116,-13.9984,-2.07924,
2026_07_06_20_49_29.012,3.862,31.2,0,0.758,0,0,0,0, ,0,0,0,0,0, ,987.6,63.2,18.4,3.5,-7.9,-3,25,975.689,49.4789,84.983,3.90514,-13.5293,-2.11706,
2026_07_06_20_49_29.032,3.862,31.2,0,0.761,0,0,0,0, ,0,0,0,0,0, ,986.2,54.8,20.6,5,-10,-5.6,25,976.372,50.0591,80.9927,3.92616,-13.2502,-2.25009,
2026_07_06_20_49_29.051,3.862,31.1,0,0.761,0,0,0,0, ,0,0,0,0,0, ,993.6,49.4,13.7,4,-7.7,-6.2,25,977.197,50.1834,77.1022,3.96112,-12.9821,-2.4725,
2026_07_06_20_49_29.071,3.862,31.2,0,0.76,0,0,0,0, ,0,0,0,0,0, ,990.4,51.6,19,2.5,-7.6,-4,25,978.099,50.2027,73.4002,3.91779,-12.6572,-2.63262,
2026_07_06_20_49_29.091,3.862,31.2,0,0.761,0,0,0,0, ,0,0,0,0,0, ,976.9,48.4,18.7,2,-8,-4.3,25,978.437,50.1904,70.076,3.81616,-12.3612,-2.72508,
2026_07_06_20_49_29.111,3.862,31.2,0,0.76,0,0,0,0, ,0,0,0,0,0, ,985.7,45.4,-10.8,3.6,-8.6,-4.9,25,978.612,49.9899,66.0465,3.75424,-12.1137,-2.83933,
2026_07_06_20_49_29.131,3.862,31.2,0,0.761,0,0,0,0, ,0,0,0,0,0, ,978.1,53.4,-5.8,4.6,-6,-4.5,25,978.812,49.9539,61.516,3.77531,-11.8204,-2.95272,
2026_07_06_20_49_29.151,3.862,31.2,0,0.76,0,0,0,0, ,0,0,0,0,0, ,889.5,90.3,-32.4,7,-4.2,-10.5,25,976.069,51.2882,56.6034,3.89869,-11.4108,-3.22982,
2026_07_06_20_49_29.173,3.862,31.2,0,0.76,0,0,0,0, ,0,0,0,0,0, ,989.2,35.1,57.6,0.8,-12.9,-22.4,25,973.831,51.9836,53.922,3.89877,-11.2365,-4.03542,
2026_07_06_20_49_29.191,3.862,31.2,0,0.761,0,0,0,0, ,0,0,0,0,0, ,1026,61.8,-15.7,4,-15.2,-7.3,25,975.889,51.7683,51.9127,3.80744,-11.408,-4.69444,
2026_07_06_20_49_29.210,3.862,31.2,0,0.758,0,0,0,0, ,0,0,0,0,0, ,996.3,61.4,22.8,2.3,-3.3,-5.6,25,978.038,52.3674,48.9656,3.76737,-11.2765,-4.80142,
2026_07_06_20_49_29.230,3.862,31.2,0,0.761,0,0,0,0, ,0,0,0,0,0, ,985.1,70,9.8,-1.6,-6.2,-3.1,25,978.81,53.1799,46.9751,3.55913,-10.8787,-4.77391,
2026_07_06_20_49_29.250,3.862,31.2,0,0.76,0,0,0,0, ,0,0,0,0,0, ,991.5,82.7,-10.4,-0.9,-4.8,-3.4,25,979.388,54.5918,44.0943,3.26607,-10.551,-4.68105,
2026_07_06_20_49_29.270,3.862,31.2,0,0.76,0,0,0,0, ,0,0,0,0,0, ,976.5,80.9,18.6,-3.4,-2,-5,25,979.669,56.2498,41.6571,2.93603,-10.1152,-4.65173,
2026_07_06_20_49_29.290,3.862,31.2,0,0.761,0,0,0,0, ,0,0,0,0,0, ,968.9,83.6,-2.3,-3.9,-7.8,-8.2,25,979.244,57.8342,39.6153,2.53469,-9.79741,-4.77045,
2026_07_06_20_49_29.309,3.862,31.2,0,0.761,0,0,0,0, ,0,0,0,0,0, ,991.2,80.8,-25.5,2.5,-11,-0.2,25,979.293,59.319,36.3542,2.33758,-9.7732,-4.73569,
2026_07_06_20_49_29.328,3.862,31.1,0,0.76,0,0,0,0, ,0,0,0,0,0, ,1036.4,93.9,-32.4,-2.8,-13.6,-8.7,25,981.396,61.0271,32.3747,2.18599,-9.92717,-4.71828,
2026_07_06_20_49_29.348,3.862,31.2,0,0.76,0,0,0,0, ,0,0,0,0,0, ,1060.4,84.9,-66.2,2.1,-11.1,3.3,25,985.479,62.7561,27.3977,2.03146,-10.0748,-4.59529,
2026_07_06_20_49_29.368,3.862,31.2,0,0.761,0,0,0,0, ,0,0,0,0,0, ,984.3,74,-24,0,-10.3,6.5,25,987.726,63.7734,22.9798,1.97165,-10.1129,-4.01667,
2026_07_06_20_49_29.388,3.862,31.1,0,0.76,0,0,0,0, ,0,0,0,0,0, ,952.6,83.3,-42.7,-2.8,-8.6,2,25,986.551,64.6799,19.5472,1.76619,-10.0725,-3.51292,
2026_07_06_20_49_29.408,3.862,31.2,0,0.761,0,0,0,0, ,0,0,0,0,0, ,976.1,77.6,-44.6,-3.6,-8.4,-1.6,25,985.198,65.6409,15.6961,1.46356,-9.97669,-3.28667,
2026_07_06_20_49_29.428,3.862,31.2,0,0.761,0,0,0,0, ,0,0,0,0,0, ,1000.6,75.4,-44.4,-3,-3.7,-2.6,25,985.39,66.3026,12.0279,1.17328,-9.73741,-3.21435,
2026_07_06_20_49_29.448,3.862,31.2,0,0.761,0,0,0,0, ,0,0,0,0,0, ,955.5,94.4,-41.3,0.2,-5.2,1.8,25,984.943,67.4359,8.68382,1.01647,-9.41521,-3.04286,
2026_07_06_20_49_29.467,3.862,31.2,0,0.761,0,0,0,0, ,0,0,0,0,0, ,901.3,76.9,-53.7,1.6,-7.9,-2.4,25,981.498,68.5458,5.26012,1.00937,-9.24061,-2.87571,
2026_07_06_20_49_29.487,3.862,31.1,0,0.761,0,0,0,0, ,0,0,0,0,0, ,998.7,47.3,-46,3.7,-12.5,-6.9,25,979.578,68.153,1.90185,1.10935,-9.29907,-2.98383,
2026_07_06_20_49_29.507,3.862,31.2,0,0.76,0,0,0,0, ,0,0,0,0,0, ,1021.9,75.9,-53.5,0.4,-3.8,-4.9,25,981.45,67.7537,-1.24569,1.16667,-9.22905,-3.16154,
2026_07_06_20_49_29.527,3.862,31.3,0,0.759,0,0,0,0, ,0,0,0,0,0, ,1025.3,69.9,-46.1,0.1,-2.5,-3.1,25,984.019,68.0673,-4.20446,1.11081,-8.85861,-3.21263,
2026_07_06_20_49_29.546,3.862,31.2,0,0.761,0,0,0,0, ,0,0,0,0,0, ,1003.5,68.3,-53.9,-2.2,-1.8,2.7,25,985.87,68.1302,-6.99513,0.979137,-8.4498,-3.02905,
2026_07_06_20_49_29.566,3.862,31.1,0,0.76,0,0,0,0, ,0,0,0,0,0, ,978.7,78.2,-36.7,-1.7,-4,4.2,25,986.189,68.4422,-9.32933,0.800643,-8.11161,-2.63423,
2026_07_06_20_49_29.586,3.862,31.2,0,0.761,0,0,0,0, ,0,0,0,0,0, ,985.9,69.5,-53.1,1.2,-5.9,0,25,985.952,68.7718,-11.4969,0.736619,-7.91895,-2.34574,
2026_07_06_20_49_29.607,3.862,31.2,0,0.76,0,0,0,0, ,0,0,0,0,0, ,1006.4,69.8,-64.2,-0.9,-5.8,-4,25,986.573,68.8253,-14.3703,0.700872,-7.79287,-2.32467,
2026_07_06_20_49_29.626,3.862,31.2,0,0.762,0,0,0,0, ,0,0,0,0,0, ,998.1,80.4,-64.8,0.6,-2.4,-0.2,25,987.529,69.2076,-17.4251,0.649022,-7.56784,-2.31098,
2026_07_06_20_49_29.646,3.862,31.2,0,0.761,0,0,0,0, ,0,0,0,0,0, ,1001.8,59.5,-42.7,-2.7,1.4,0,25,988.286,69.2529,-19.6386,0.545488,-7.13714,-2.17625,
2026_07_06_20_49_29.665,3.862,31.1,0,0.761,0,0,0,0, ,0,0,0,0,0, ,992.5,72.8,-39.5,-3.4,2,-0.5,25,988.826,69.0638,-20.9464,0.326388,-6.59863,-2.05887,
2026_07_06_20_49_29.685,3.862,31.2,0,0.761,0,0,0,0, ,0,0,0,0,0, ,973.8,87.4,-45.7,-0.2,-4.9,4.2,25,988.48,69.7363,-22.266,0.196811,-6.28488,-1.82067,
2026_07_06_20_49_29.711,3.862,31.2,0,0.76,0,0,0,0, ,0,0,0,0,0, ,1001.9,52.7,-57.6,-2.7,-4.4,2.5,25,988.441,69.7554,-24.0565,0.0964586,-6.18526,-1.50558,
2026_07_06_20_49_29.724,3.862,31.2,0,0.76,0,0,0,0, ,0,0,0,0,0, ,989.5,66.8,-64.2,-2.6,-3.4,-0.9,25,988.884,69.1457,-26.3017,-0.0709037,-6.046,-1.36509,
2026_07_06_20_49_29.744,3.862,31.2,0,0.76,0,0,0,0, ,0,0,0,0,0, ,985.1,66.2,-53.7,-2.7,-8,-0.4,25,988.787,68.9845,-28.2912,-0.228067,-6.02492,-1.32151,
2026_07_06_20_49_29.764,3.862,31.2,0,0.76,0,0,0,0, ,0,0,0,0,0, ,987.6,76.9,-53.7,-2.4,-0.8,0.6,25,988.639,69.1408,-29.8395,-0.36956,-5.9259,-1.23489,
2026_07_06_20_49_29.784,3.862,31.2,0,0.758,0,0,0,0, ,0,0,0,0,0, ,981.5,57.9,-49.1,-3.5,2.3,6,25,988.39,69.0348,-31.1534,-0.526806,-5.51909,-0.958543,
2026_07_06_20_49_29.803,3.862,31.2,0,0.76,0,0,0,0, ,0,0,0,0,0, ,980.2,68.7,-60.3,-3.4,1.8,2.5,25,987.93,68.6853,-32.5883,-0.704938,-5.05784,-0.641148,
2026_07_06_20_49_29.823,3.862,31.2,0,0.761,0,0,0,0, ,0,0,0,0,0, ,978,60.3,-63.3,-1.3,-0.5,1.7,25,987.392,68.4303,-34.3683,-0.805184,-4.71002,-0.474109,
2026_07_06_20_49_29.845,3.862,31.2,0,0.761,0,0,0,0, ,0,0,0,0,0, ,1000.8,50.9,-66.2,-2.2,-3.5,-4.5,25,987.514,67.6484,-36.2197,-0.862759,-4.54488,-0.53053,
2026_07_06_20_49_29.863,3.862,31.1,0,0.76,0,0,0,0, ,0,0,0,0,0, ,990.8,66.6,-62.3,-0.7,-0.7,-0.5,25,988.019,67.1062,-37.9278,-0.898544,-4.3959,-0.650545,
2026_07_06_20_49_29.883,3.862,31.2,0,0.762,0,0,0,0, ,0,0,0,0,0, ,973.3,62.5,-54.9,-1.3,0.3,-0.4,25,987.656,66.9504,-39.1875,-0.904726,-4.14021,-0.638324,
2026_07_06_20_49_29.903,3.862,31.2,0,0.761,0,0,0,0, ,0,0,0,0,0, ,964.9,66.2,-54.5,-1.5,2.6,-1.6,25,986.525,66.7919,-40.1328,-0.934907,-3.79956,-0.660364,
2026_07_06_20_49_29.922,3.862,31.2,0,0.761,0,0,0,0, ,0,0,0,0,0, ,985.3,52.9,-50.5,-1.4,1.3,-2.1,25,985.829,66.3506,-40.8864,-0.966295,-3.44919,-0.732857,
2026_07_06_20_49_29.943,3.862,31.2,0,0.762,0,0,0,0, ,0,0,0,0,0, ,1008.3,56.1,-61.1,-1.1,-0.9,-2.2,25,986.497,65.6285,-41.7952,-0.983584,-3.22682,-0.819214,
2026_07_06_20_49_29.962,3.862,31.2,0,0.76,0,0,0,0, ,0,0,0,0,0, ,1001.4,57.4,-60.5,-1.3,-0.4,-0.9,25,987.616,65.0875,-42.9533,-0.996771,-3.06979,-0.863747,
2026_07_06_20_49_29.986,3.862,31.1,0,0.76,0,0,0,0, ,0,0,0,0,0, ,986,59.9,-55.1,-0.8,0.2,-1.3,25,987.986,64.6952,-43.8581,-1.00002,-2.88882,-0.878143,
2026_07_06_20_49_30.002,3.862,31.2,0,0.761,0,0,0,0, ,0,0,0,0,0, ,977.9,63.2,-55,-0.1,4,-3.5,25,987.619,64.5035,-44.5401,-0.966499,-2.58482,-0.970882,
2026_07_06_20_49_30.023,3.862,31.2,0,0.76,0,0,0,0, ,0,0,0,0,0, ,980.8,62.1,-35.4,-1.8,-0.1,-4.4,25,987.115,64.3906,-44.5803,-0.965493,-2.30848,-1.15242,
2026_07_06_20_49_30.041,3.862,31.2,0,0.761,0,0,0,0, ,0,0,0,0,0, ,1000.6,62.8,-57.7,-0.7,-2.9,-4.1,25,987.333,64.2723,-44.7003,-0.98283,-2.25921,-1.34118,
2026_07_06_20_49_30.061,3.862,31.2,0,0.76,0,0,0,0, ,0,0,0,0,0, ,998.4,63.4,-46.6,-0.5,-0.1,-4.4,25,988.075,64.2009,-45.1543,-0.959502,-2.21294,-1.51844,
2026_07_06_20_49_30.081,3.862,31.2,0,0.759,0,0,0,0, ,0,0,0,0,0, ,990.3,63.5,-45.4,-1.8,1.4,-3.5,25,988.457,64.1551,-45.2058,-0.97111,-2.03848,-1.66661,
2026_07_06_20_49_30.100,3.862,31.2,0,0.76,0,0,0,0, ,0,0,0,0,0, ,998.1,63.7,-53.9,-2.9,-0.8,-3.3,25,988.807,64.1213,-45.4766,-1.05514,-1.89598,-1.77224,
2026_07_06_20_49_30.123,3.862,31.2,0,0.76,0,0,0,0, ,0,0,0,0,0, ,992.1,74.5,-62.2,-1.2,-2.7,0.4,25,989.19,64.4247,-46.2428,-1.11576,-1.88709,-1.7526,
2026_07_06_20_49_30.141,3.862,31.1,0,0.76,0,0,0,0, ,0,0,0,0,0, ,995.1,63.7,-57.8,-1.4,-0.5,-0.5,25,989.459,64.7096,-47.0812,-1.12699,-1.86959,-1.64885,
2026_07_06_20_49_30.160,3.862,31.2,0,0.761,0,0,0,0, ,0,0,0,0,0, ,988.6,69.7,-45.6,-0.9,-0.4,-2.5,25,989.605,64.8309,-47.3626,-1.12839,-1.78309,-1.63978,
2026_07_06_20_49_30.180,3.862,31.1,0,0.76,0,0,0,0, ,0,0,0,0,0, ,997.6,50.4,-60.7,-1,0.9,-2.5,25,989.818,64.5395,-47.7153,-1.11752,-1.6592,-1.6922,
2026_07_06_20_49_30.200,3.862,31.2,0,0.76,0,0,0,0, ,0,0,0,0,0, ,1004.8,59.2,-65.1,-1.1,-1.1,-2.7,25,990.511,63.946,-48.6406,-1.1134,-1.56418,-1.74752,
2026_07_06_20_49_30.220,3.862,31.1,0,0.76,0,0,0,0, ,0,0,0,0,0, ,997,64.2,-63.2,-1.3,-2.3,-0.2,25,991.144,63.8092,-49.5857,-1.11868,-1.57246,-1.72939,
2026_07_06_20_49_30.239,3.862,31.1,0,0.76,0,0,0,0, ,0,0,0,0,0, ,974.1,69,-46.1,-0.8,-2.3,-0.3,25,990.804,63.9792,-49.8943,-1.1145,-1.61679,-1.63924,
2026_07_06_20_49_30.261,3.862,31.1,0,0.76,0,0,0,0, ,0,0,0,0,0, ,965.9,66.1,-37.2,-2.3,-1.6,-3.1,25,989.536,64.1968,-49.3919,-1.14104,-1.6371,-1.64294,
2026_07_06_20_49_30.279,3.862,31.1,0,0.76,0,0,0,0, ,0,0,0,0,0, ,981.8,38.4,-55.5,-1.4,-1.1,1.3,25,988.58,63.4688,-49.2066,-1.18424,-1.6196,-1.59767,
2026_07_06_20_49_30.299,3.862,31.2,0,0.76,0,0,0,0, ,0,0,0,0,0, ,981.4,72.2,-69.4,0.1,0.7,-6.4,25,988.155,62.971,-50.0136,-1.15168,-1.5331,-1.6557,
2026_07_06_20_49_30.319,3.862,31.1,0,0.76,0,0,0,0, ,0,0,0,0,0, ,988.1,66.7,-52,-1.1,0.1,-1.7,25,987.947,63.3658,-50.6648,-1.11197,-1.4153,-1.8016,
2026_07_06_20_49_30.338,3.862,31.2,0,0.76,0,0,0,0, ,0,0,0,0,0, ,982.2,71.5,-58.5,-0.8,-0.8,-3.1,25,987.777,63.7153,-50.9442,-1.1021,-1.35038,-1.83807,
2026_07_06_20_49_30.359,3.862,31.2,0,0.761,0,0,0,0, ,0,0,0,0,0, ,986.9,64.3,-70.8,-0.2,0.6,-2.1,25,987.58,63.9703,-51.7794,-1.06541,-1.27419,-1.8845,
2026_07_06_20_49_30.378,3.862,31.2,0,0.761,0,0,0,0, ,0,0,0,0,0, ,986.2,77.5,-52.4,1.4,-0.2,-1.4,25,987.517,64.3926,-52.3778,-0.963924,-1.18435,-1.8763,
2026_07_06_20_49_30.398,3.862,31.2,0,0.761,0,0,0,0, ,0,0,0,0,0, ,994,67.6,-60.9,2.5,2.7,3.9,25,987.675,64.8896,-52.6382,-0.786357,-1.03601,-1.68579,
2026_07_06_20_49_30.418,3.862,31.2,0,0.76,0,0,0,0, ,0,0,0,0,0, ,1012.9,43.8,-48.2,-0.5,3,2.8,25,988.636,64.3297,-52.7547,-0.677501,-0.799206,-1.37892,
2026_07_06_20_49_30.437,3.862,31.1,0,0.76,0,0,0,0, ,0,0,0,0,0, ,994.2,63.3,-45.8,0,1.6,-1.9,25,989.545,63.6728,-52.404,-0.65145,-0.610348,-1.26747,
2026_07_06_20_49_30.457,3.862,31.1,0,0.76,0,0,0,0, ,0,0,0,0,0, ,971.9,61.8,-35.1,0,-0.2,-1.2,25,989.149,63.6044,-51.6755,-0.611752,-0.530498,-1.28469,
2026_07_06_20_49_30.477,3.862,31.1,0,0.76,0,0,0,0, ,0,0,0,0,0, ,976.4,66.4,-46.1,-0.3,-0.5,-4.4,25,988.235,63.6346,-51.0006,-0.583614,-0.519499,-1.37703,
2026_07_06_20_49_30.497,3.862,31.1,0,0.759,0,0,0,0, ,0,0,0,0,0, ,992.9,60.3,-46.6,-1.3,2.4,-4,25,988.017,63.6172,-50.7172,-0.5968,-0.429952,-1.54905,
2026_07_06_20_49_30.517,3.862,31.1,0,0.76,0,0,0,0, ,0,0,0,0,0, ,996.2,53.2,-49,-1.8,3.3,-2.9,25,988.415,63.1987,-50.5395,-0.654886,-0.23008,-1.66489,
2026_07_06_20_49_30.537,3.862,31.2,0,0.76,0,0,0,0, ,0,0,0,0,0, ,997.1,59.9,-39.1,-2,0.3,-4.3,25,988.917,62.7936,-50.144,-0.73076,-0.106372,-1.78281,
2026_07_06_20_49_30.556,3.862,31.2,0,0.761,0,0,0,0, ,0,0,0,0,0, ,1001.3,71.2,-34.9,-1.6,-2.4,-2.3,25,989.543,62.9616,-49.3431,-0.795917,-0.163874,-1.87527,
2026_07_06_20_49_30.576,3.862,31.1,0,0.76,0,0,0,0, ,0,0,0,0,0, ,1002.3,56.2,-45,-1.9,1.1,-2.1,25,990.29,63.0066,-48.7707,-0.854056,-0.193497,-1.89506,
2026_07_06_20_49_30.596,3.862,31.2,0,0.76,0,0,0,0, ,0,0,0,0,0, ,989.7,62.7,-56.2,-2.3,1.9,-3.6,25,990.638,62.7898,-48.8821,-0.929981,-0.0902999,-1.95325,
2026_07_06_20_49_30.616,3.862,31.2,0,0.76,0,0,0,0, ,0,0,0,0,0, ,988.5,68.3,-44.1,-1.6,-3.8,-3.1,25,990.544,62.955,-48.9594,-0.992138,-0.142688,-2.03836,
2026_07_06_20_49_30.636,3.862,31.2,0,0.759,0,0,0,0, ,0,0,0,0,0, ,997,66.2,-44.3,-2.1,-2.6,-3.3,25,990.679,63.2167,-48.6694,-1.04441,-0.328993,-2.10915,
2026_07_06_20_49_30.655,3.862,31.2,0,0.759,0,0,0,0, ,0,0,0,0,0, ,984.9,67.6,-50.4,-2.3,2.9,-2.6,25,990.695,63.4412,-48.589,-1.11483,-0.299804,-2.16039,
2026_07_06_20_49_30.676,3.862,31.1,0,0.761,0,0,0,0, ,0,0,0,0,0, ,966.5,80,-51.1,-1.2,-0.2,-2.1,25,989.781,64.0724,-48.7207,-1.15354,-0.199269,-2.17194,
2026_07_06_20_49_30.695,3.862,31.1,0,0.761,0,0,0,0, ,0,0,0,0,0, ,980.7,54.4,-48.9,-1.2,-0.8,-3.4,25,988.795,64.263,-48.7986,-1.15637,-0.217595,-2.20717,
2026_07_06_20_49_30.715,3.862,31.1,0,0.76,0,0,0,0, ,0,0,0,0,0, ,981,87.2,-56,-0.9,3.2,0.1,25,988.311,64.6613,-49.0211,-1.14989,-0.13121,-2.17322,
2026_07_06_20_49_30.735,3.862,31.2,0,0.761,0,0,0,0, ,0,0,0,0,0, ,988.2,71.2,-44.1,-0.5,1.6,-1.2,25,988.085,65.5473,-49.0838,-1.12247,0.0230353,-2.0743,
2026_07_06_20_49_30.754,3.862,31.2,0,0.761,0,0,0,0, ,0,0,0,0,0, ,987.5,68.7,-36.2,-1.3,0.7,0.1,25,988.071,65.8156,-48.5394,-1.10892,0.0917097,-1.98141,
2026_07_06_20_49_30.774,3.862,31.2,0,0.759,0,0,0,0, ,0,0,0,0,0, ,992,35.7,-33.8,-0.8,-0.7,0,25,988.173,64.9859,-47.7144,-1.10533,0.0861211,-1.85763,
2026_07_06_20_49_30.793,3.862,31.2,0,0.76,0,0,0,0, ,0,0,0,0,0, ,989.2,59.3,-43.9,-1.2,-2.1,-1.1,25,988.321,63.9203,-47.1742,-1.09891,-0.00443935,-1.77794,
2026_07_06_20_49_30.813,3.862,31.1,0,0.76,0,0,0,0, ,0,0,0,0,0, ,988.2,63.7,-58.5,-0.1,-0.5,-1.6,25,988.344,63.7728,-47.4195,-1.07155,-0.0833876,-1.75186,
2026_07_06_20_49_30.833,3.862,31.1,0,0.761,0,0,0,0, ,0,0,0,0,0, ,989,65.4,-43.3,0.1,0.6,-1.8,25,988.36,63.8202,-47.6316,-1.00625,-0.0752593,-1.7487,
2026_07_06_20_49_30.853,3.862,31.2,0,0.761,0,0,0,0, ,0,0,0,0,0, ,988.2,64.4,-40,0,0.1,-1.6,25,988.374,63.886,-47.2671,-0.941889,-0.049345,-1.74574,
2026_07_06_20_49_30.873,3.862,31.2,0,0.76,0,0,0,0, ,0,0,0,0,0, ,988.1,66.8,-39.5,0,-0.6,-1.5,25,988.361,63.9904,-46.809,-0.884492,-0.0615724,-1.73381,
2026_07_06_20_49_30.893,3.862,31.2,0,0.76,0,0,0,0, ,0,0,0,0,0, ,985.9,89.1,-62.1,1,0.4,-0.4,25,988.278,64.8411,-47.0522,-0.800125,-0.0639141,-1.68604,
2026_07_06_20_49_30.913,3.862,31.1,0,0.76,0,0,0,0, ,0,0,0,0,0, ,989.9,57.8,-67.7,2.7,2.6,0.9,25,988.255,65.3657,-48.1398,-0.638633,0.0313869,-1.56807,
2026_07_06_20_49_30.939,3.862,31.2,0,0.761,0,0,0,0, ,0,0,0,0,0, ,986.6,81.2,-56.7,1.7,5.6,0.9,25,988.254,65.6176,-48.9966,-0.465654,0.279318,-1.41767,
2026_07_06_20_49_30.953,3.862,31.1,0,0.76,0,0,0,0, ,0,0,0,0,0, ,987.5,73.8,-65.3,5.8,9.4,1.4,25,988.181,66.3417,-49.7281,-0.208762,0.719328,-1.2612,
2026_07_06_20_49_30.972,3.862,31.2,0,0.759,0,0,0,0, ,0,0,0,0,0, ,988.2,68.8,-63.5,3,13.9,3.2,25,988.161,66.6439,-50.6221,0.0720841,1.38542,-1.04419,
2026_07_06_20_49_30.992,3.862,31.1,0,0.76,0,0,0,0, ,0,0,0,0,0, ,988.6,62.8,-21.6,1.8,15.7,2.8,25,988.175,66.5924,-50.1302,0.213941,2.20287,-0.797748,
2026_07_06_20_49_31.011,3.862,31.1,0,0.761,0,0,0,0, ,0,0,0,0,0, ,988.6,62.7,-12.6,0,13.8,3.5,25,988.201,66.3583,-48.1175,0.255748,2.96746,-0.557182,
2026_07_06_20_49_31.032,3.862,31.2,0,0.761,0,0,0,0, ,0,0,0,0,0, ,989.1,64.5,-9.3,1.5,12.5,4.3,25,988.241,66.1902,-45.8526,0.285867,3.58796,-0.285573,
2026_07_06_20_49_31.051,3.862,31.2,0,0.761,0,0,0,0, ,0,0,0,0,0, ,988.8,64.6,-13,4.3,11,6,25,988.284,66.0903,-43.7379,0.445165,4.08533,0.0456573,
2026_07_06_20_49_31.078,3.862,31.2,0,0.76,0,0,0,0, ,0,0,0,0,0, ,990.3,46,-20,4.3,11.2,7,25,988.361,65.4327,-42.0781,0.680069,4.51279,0.438969,
2026_07_06_20_49_31.091,3.862,31.1,0,0.759,0,0,0,0, ,0,0,0,0,0, ,989.2,47.9,-31,2.9,13.9,8,25,988.446,64.3064,-41.0679,0.858003,5.00255,0.86925,
2026_07_06_20_49_31.110,3.862,31.2,0,0.762,0,0,0,0, ,0,0,0,0,0, ,989.8,50.6,-10,2.3,18.2,9.2,25,988.51,63.3889,-39.8145,0.964156,5.67576,1.34034,
2026_07_06_20_49_31.131,3.862,31.2,0,0.758,0,0,0,0, ,0,0,0,0,0, ,990.6,33.6,24.9,2.4,16.3,9.2,25,988.613,62.0916,-36.9343,1.04861,6.38106,1.81929,
2026_07_06_20_49_31.150,3.862,31.2,0,0.76,0,0,0,0, ,0,0,0,0,0, ,988.6,57.9,18.6,4.9,13.7,11,25,988.673,61.0958,-33.3582,1.20713,6.90628,2.3239,
2026_07_06_20_49_31.170,3.862,31.2,0,0.761,0,0,0,0, ,0,0,0,0,0, ,989.2,42.7,3,7.9,14.3,13,25,988.687,60.438,-30.6673,1.52357,7.33855,2.91353,
2026_07_06_20_49_31.190,3.862,31.2,0,0.76,0,0,0,0, ,0,0,0,0,0, ,993.2,22.2,-5.4,3.8,13.1,11.1,25,988.84,58.7324,-28.8717,1.78721,7.7262,3.47029,
2026_07_06_20_49_31.210,3.862,31.2,0,0.761,0,0,0,0, ,0,0,0,0,0, ,992,8.9,75.5,0.3,16.6,13.8,25,989.069,56.101,-24.9765,1.80322,8.16031,4.01749,
2026_07_06_20_49_31.229,3.862,31.1,0,0.76,0,0,0,0, ,0,0,0,0,0, ,997.3,-17,47.2,2.6,8.5,8.4,25,989.409,52.4356,-19.7159,1.7817,8.42781,4.44908,
2026_07_06_20_49_31.249,3.862,31.2,0,0.761,0,0,0,0, ,0,0,0,0,0, ,991,4.8,53.5,-2,-3,0,25,989.698,48.8685,-15.4463,1.69141,8.08182,4.4339,
2026_07_06_20_49_31.269,3.862,31.2,0,0.761,0,0,0,0, ,0,0,0,0,0, ,989.5,7,45.2,-0.9,-1.4,-1.7,25,989.732,46.2502,-11.4978,1.49998,7.45527,4.11191,
2026_07_06_20_49_31.289,3.862,31.1,0,0.76,0,0,0,0, ,0,0,0,0,0, ,989,10.8,45.1,-0.1,0.9,-2.7,25,989.702,43.9741,-8.0458,1.37811,6.98573,3.72728,
2026_07_06_20_49_31.308,3.862,31.2,0,0.761,0,0,0,0, ,0,0,0,0,0, ,990.4,23.6,31.9,0,-0.6,-2.5,25,989.702,42.3426,-5.20941,1.29108,6.56918,3.34171,
2026_07_06_20_49_31.329,3.862,31.1,0,0.758,0,0,0,0, ,0,0,0,0,0, ,988,16.2,45.7,4.1,1,-2,25,989.672,40.975,-2.52759,1.33733,6.18105,3.00097,
2026_07_06_20_49_31.348,3.862,31.1,0,0.76,0,0,0,0, ,0,0,0,0,0, ,991.5,11.1,31.1,1.5,0.5,-2.1,25,989.676,39.3099,-0.0335659,1.42646,5.8501,2.69317,
2026_07_06_20_49_31.368,3.862,31.1,0,0.758,0,0,0,0, ,0,0,0,0,0, ,993,18.7,33.6,1.3,-0.4,-2.7,25,989.833,37.8224,1.93981,1.42485,5.49666,2.38281,
2026_07_06_20_49_31.387,3.862,31.2,0,0.761,0,0,0,0, ,0,0,0,0,0, ,991.6,21.4,28.8,4.9,3.3,-2.2,25,989.984,36.7394,3.72285,1.52693,5.25006,2.08831,
2026_07_06_20_49_31.408,3.862,31.1,0,0.76,0,0,0,0, ,0,0,0,0,0, ,987.7,17,55.6,1.5,1.7,-1.7,25,989.963,35.6706,6.06755,1.62888,5.08248,1.84223,
2026_07_06_20_49_31.428,3.862,31.2,0,0.759,0,0,0,0, ,0,0,0,0,0, ,994.8,18.3,22.4,-0.9,1.4,-1.6,25,990.042,34.5725,8.07437,1.5479,4.86722,1.62942,
2026_07_06_20_49_31.447,3.862,31.1,0,0.76,0,0,0,0, ,0,0,0,0,0, ,993.5,15.9,27.4,-2.2,4.8,-1,25,990.292,33.5077,9.09968,1.35912,4.75953,1.45091,
2026_07_06_20_49_31.467,3.862,31.2,0,0.76,0,0,0,0, ,0,0,0,0,0, ,987.7,7.8,53.5,-2.9,3.9,-1.1,25,990.311,32.188,11.0101,1.12091,4.73457,1.29851,
2026_07_06_20_49_31.487,3.862,31.2,0,0.758,0,0,0,0, ,0,0,0,0,0, ,992.7,8.6,37.2,-0.7,2.8,-1.6,25,990.304,30.7262,13.1027,0.942917,4.6502,1.13711,
2026_07_06_20_49_31.506,3.862,31.2,0,0.76,0,0,0,0, ,0,0,0,0,0, ,992.5,8.1,33.9,1.4,4.1,-1.7,25,990.444,29.3626,14.4706,0.906786,4.57706,0.967274,
2026_07_06_20_49_31.526,3.862,31.2,0,0.761,0,0,0,0, ,0,0,0,0,0, ,985.1,10,66.1,2.3,3,-1.7,25,990.344,28.1248,16.6356,0.964263,4.51448,0.804737,
2026_07_06_20_49_31.546,3.862,31.1,0,0.76,0,0,0,0, ,0,0,0,0,0, ,984.7,11.8,76.1,0.7,-2.3,-2.1,25,990.012,27.0752,19.9546,0.99691,4.26071,0.639917,
2026_07_06_20_49_31.566,3.862,31.2,0,0.761,0,0,0,0, ,0,0,0,0,0, ,989.5,15.5,50.7,-0.1,-4,-2.2,25,989.835,26.2571,22.602,0.954442,3.80912,0.469907,
2026_07_06_20_49_31.586,3.862,31.1,0,0.762,0,0,0,0, ,0,0,0,0,0, ,993.1,15,34,-0.7,-3.2,-2,25,989.924,25.5864,23.8054,0.871905,3.35762,0.313303,
2026_07_06_20_49_31.605,3.862,31.2,0,0.761,0,0,0,0, ,0,0,0,0,0, ,992.7,11.7,31.4,-0.9,-1,-1.7,25,990.105,24.8407,24.3474,0.770024,3.02505,0.181477,
2026_07_06_20_49_31.628,3.862,31.1,0,0.762,0,0,0,0, ,0,0,0,0,0, ,991.5,11.4,37.2,-0.3,0,-1.9,25,990.227,24.0308,24.9539,0.686538,2.81024,0.0607305,
2026_07_06_20_49_31.645,3.862,31.2,0,0.762,0,0,0,0, ,0,0,0,0,0, ,989.3,10.8,49.8,-0.1,0,-1.9,25,990.237,23.2428,26.0841,0.632514,2.63899,-0.0587515,
2026_07_06_20_49_31.664,3.862,31.2,0,0.76,0,0,0,0, ,0,0,0,0,0, ,990.2,11.1,46.5,-0.1,-1,-2,25,990.208,22.4937,27.4287,0.587877,2.44771,-0.173999,
2026_07_06_20_49_31.683,3.862,31.1,0,0.761,0,0,0,0, ,0,0,0,0,0, ,989,16.3,50.4,-0.7,-1.5,-1.9,25,990.171,21.9579,28.7097,0.527678,2.22238,-0.282224,
2026_07_06_20_49_31.704,3.862,31.2,0,0.761,0,0,0,0, ,0,0,0,0,0, ,991.8,12.6,38.6,-1.2,-2.5,-1.8,25,990.185,21.5004,29.6719,0.437632,1.96508,-0.377761,
2026_07_06_20_49_31.724,3.862,31.1,0,0.76,0,0,0,0, ,0,0,0,0,0, ,994,10.8,24,-0.1,-0.7,-2,25,990.35,20.9031,29.7711,0.371355,1.74783,-0.470522,
2026_07_06_20_49_31.744,3.862,31.2,0,0.76,0,0,0,0, ,0,0,0,0,0, ,990.1,10.8,50,0.9,0.6,-1.9,25,990.454,20.2875,30.2116,0.3731,1.63828,-0.560678,
2026_07_06_20_49_31.764,3.862,31.1,0,0.761,0,0,0,0, ,0,0,0,0,0, ,985.9,14.6,64.4,-0.2,-2.1,-2.1,25,990.304,19.8251,31.8562,0.371692,1.49274,-0.648387,
2026_07_06_20_49_31.784,3.862,31,0,0.761,0,0,0,0, ,0,0,0,0,0, ,990.1,17.3,37.3,-1.2,-3.8,-1.9,25,990.164,19.589,33.0137,0.306386,1.22201,-0.730751,
2026_07_06_20_49_31.804,3.862,31.2,0,0.762,0,0,0,0, ,0,0,0,0,0, ,989.8,14.8,44.4,-2.8,-3.5,-1.8,25,990.151,19.3733,33.4912,0.165841,0.925124,-0.798955,
2026_07_06_20_49_31.824,3.862,31.1,0,0.759,0,0,0,0, ,0,0,0,0,0, ,988.5,7.5,53.2,-3.6,-5,-2.5,25,990.09,18.8722,34.4241,-0.0392651,0.609764,-0.881284,
2026_07_06_20_49_31.843,3.862,31.1,0,0.76,0,0,0,0, ,0,0,0,0,0, ,992.3,18.9,29.7,-2.5,-7,-2.4,25,990.109,18.5266,34.8522,-0.222732,0.206982,-0.976878,
2026_07_06_20_49_31.863,3.862,31.2,0,0.76,0,0,0,0, ,0,0,0,0,0, ,995.3,9.2,21.1,-0.7,-0.7,-1.5,25,990.334,18.2538,34.2762,-0.306659,-0.0402403,-1.03618,
2026_07_06_20_49_31.882,3.862,31.1,0,0.761,0,0,0,0, ,0,0,0,0,0, ,974.9,19.5,127.4,-1.9,-4.7,-0.4,25,990.015,18.0159,36.7121,-0.367191,-0.202319,-1.03093,
2026_07_06_20_49_31.902,3.862,31.1,0,0.76,0,0,0,0, ,0,0,0,0,0, ,997.3,4.7,9.6,-0.8,-1.1,-1.3,25,989.776,17.6554,38.6492,-0.427081,-0.366709,-1.0199,
2026_07_06_20_49_31.922,3.862,31.2,0,0.76,0,0,0,0, ,0,0,0,0,0, ,987.4,14.2,46.9,-1.2,-2.3,-1.1,25,989.933,17.1554,38.0155,-0.461993,-0.447957,-1.03088,
2026_07_06_20_49_31.942,3.862,31.2,0,0.759,0,0,0,0, ,0,0,0,0,0, ,993.1,9.6,28.3,-4.1,-2.9,-1.6,25,989.952,16.8351,37.9902,-0.595325,-0.579097,-1.05032,
2026_07_06_20_49_31.962,3.862,31.2,0,0.761,0,0,0,0, ,0,0,0,0,0, ,989.9,10.3,32.7,-2.3,-3.4,-1.1,25,990.047,16.4156,37.5337,-0.754047,-0.735761,-1.06858,
2026_07_06_20_49_31.981,3.862,31.2,0,0.761,0,0,0,0, ,0,0,0,0,0, ,995.1,14.7,17.3,-1.6,-1.7,-1.3,25,990.196,16.177,36.77,-0.826925,-0.846316,-1.07659,
2026_07_06_20_49_32.001,3.862,31,0,0.76,0,0,0,0, ,0,0,0,0,0, ,988.6,6.8,28.4,-0.5,-1.6,-1.5,25,990.297,15.8463,35.9217,-0.840519,-0.895291,-1.0963,
2026_07_06_20_49_32.021,3.862,31.1,0,0.759,0,0,0,0, ,0,0,0,0,0, ,992.5,11.7,15.8,-0.2,0.4,-2.1,25,990.312,15.4443,35.0795,-0.810628,-0.877297,-1.13918,
2026_07_06_20_49_32.041,3.862,31.1,0,0.762,0,0,0,0, ,0,0,0,0,0, ,991.8,11.9,24.7,0.7,1.6,-2.1,25,990.424,15.2222,34.1758,-0.745996,-0.762899,-1.19773,
2026_07_06_20_49_32.061,3.862,31.1,0,0.762,0,0,0,0, ,0,0,0,0,0, ,994.9,14,24.9,1.9,2.5,-1.7,25,990.603,15.0838,33.6045,-0.621318,-0.591488,-1.24053,
2026_07_06_20_49_32.081,3.862,31.1,0,0.761,0,0,0,0, ,0,0,0,0,0, ,988.6,13.4,49.4,0.2,0.7,-2.4,25,990.672,14.9994,33.8205,-0.519472,-0.457944,-1.28985,
2026_07_06_20_49_32.101,3.862,31.1,0,0.76,0,0,0,0, ,0,0,0,0,0, ,992.7,4.2,25.8,1.7,1.7,-2.8,25,990.671,14.6217,34.0508,-0.429926,-0.356913,-1.36969,
2026_07_06_20_49_32.120,3.862,31.1,0,0.761,0,0,0,0, ,0,0,0,0,0, ,990.4,6.4,30.2,7.4,2.3,-2.6,25,990.725,14.0536,33.6821,-0.126462,-0.213289,-1.45076,
2026_07_06_20_49_32.140,3.862,31.2,0,0.761,0,0,0,0, ,0,0,0,0,0, ,988.7,16.6,37.3,14.2,2.7,-1.4,25,990.653,13.898,33.6862,0.539369,-0.0479477,-1.48423,
2026_07_06_20_49_32.159,3.862,31.1,0,0.762,0,0,0,0, ,0,0,0,0,0, ,995.2,3.7,26.3,12.1,2.6,-2.1,25,990.732,13.6696,33.5713,1.30783,0.116458,-1.50042,
2026_07_06_20_49_32.180,3.862,31.2,0,0.761,0,0,0,0, ,0,0,0,0,0, ,981.9,12.4,35.8,17.3,-1.3,0.2,25,990.599,13.3272,33.4177,2.12391,0.148971,-1.46688,
2026_07_06_20_49_32.199,3.862,31.1,0,0.761,0,0,0,0, ,0,0,0,0,0, ,989,33.3,55.2,6.1,0,-1.8,25,990.285,13.9075,34.1539,2.70746,0.100284,-1.42624,
2026_07_06_20_49_32.219,3.862,31,0,0.76,0,0,0,0, ,0,0,0,0,0, ,989.8,22.3,45.6,0.6,-1.5,-1,25,990.231,14.754,35.1439,2.74661,0.0484697,-1.42464,
2026_07_06_20_49_32.239,3.862,31.1,0,0.761,0,0,0,0, ,0,0,0,0,0, ,990.2,13.5,46.1,-0.4,-3.4,-0.6,25,990.217,14.9457,35.7963,2.58533,-0.103781,-1.38658,
2026_07_06_20_49_32.259,3.862,31.1,0,0.759,0,0,0,0, ,0,0,0,0,0, ,990.7,13.5,35,-0.7,-3.9,-0.6,25,990.232,14.8576,36.086,2.39427,-0.319879,-1.33865,
2026_07_06_20_49_32.278,3.862,31.1,0,0.76,0,0,0,0, ,0,0,0,0,0, ,993.5,11.2,27,-1.6,-3.1,-1,25,990.345,14.7048,35.7761,2.1783,-0.513667,-1.30582,
2026_07_06_20_49_32.298,3.862,31.1,0,0.761,0,0,0,0, ,0,0,0,0,0, ,990.7,11.1,28.5,-1.4,-1.7,-1.5,25,990.452,14.4882,35.287,1.95415,-0.628616,-1.30242,
2026_07_06_20_49_32.318,3.862,31.1,0,0.758,0,0,0,0, ,0,0,0,0,0, ,991.5,12.8,37.3,-0.7,-1,-1.6,25,990.492,14.3335,35.1415,1.77108,-0.672575,-1.31751,
2026_07_06_20_49_32.343,3.862,31,0,0.76,0,0,0,0, ,0,0,0,0,0, ,990.4,15.3,31.7,-2.6,-1.9,-1.4,25,990.52,14.3163,35.1024,1.56261,-0.719949,-1.32863,
2026_07_06_20_49_32.358,3.862,31.1,0,0.76,0,0,0,0, ,0,0,0,0,0, ,990.7,19.8,35.1,-3.1,-1.9,-1,25,990.522,14.5133,34.9987,1.29372,-0.791859,-1.32079,
2026_07_06_20_49_32.377,3.862,31.1,0,0.761,0,0,0,0, ,0,0,0,0,0, ,991.5,11.2,24.9,-3.6,-1.4,-0.6,25,990.557,14.5734,34.6941,1.01074,-0.844152,-1.28905,
2026_07_06_20_49_32.397,3.862,31.1,0,0.761,0,0,0,0, ,0,0,0,0,0, ,990.7,8.1,32.7,-1.5,-0.7,-1.1,25,990.59,14.2734,34.3349,0.793759,-0.856695,-1.2623,
2026_07_06_20_49_32.417,3.862,31.1,0,0.76,0,0,0,0, ,0,0,0,0,0, ,991.6,7.6,32.2,-0.9,-0.7,-1.5,25,990.624,13.882,34.22,0.672265,-0.847147,-1.2646,
2026_07_06_20_49_32.437,3.862,31.1,0,0.761,0,0,0,0, ,0,0,0,0,0, ,991.3,11.2,31.4,-0.7,-0.6,-1.6,25,990.674,13.6089,34.0726,0.582548,-0.835133,-1.28199,
2026_07_06_20_49_32.457,3.862,31.1,0,0.76,0,0,0,0, ,0,0,0,0,0, ,992.6,9.2,31,-0.6,-0.5,-1.7,25,990.752,13.4011,33.8975,0.50744,-0.817758,-1.30441,
2026_07_06_20_49_32.481,3.862,31,0,0.76,0,0,0,0, ,0,0,0,0,0, ,990.4,10.1,31.7,-0.5,-0.2,-2,25,990.798,13.1726,33.7423,0.443002,-0.789254,-1.33766,
2026_07_06_20_49_32.496,3.862,31.1,0,0.76,0,0,0,0, ,0,0,0,0,0, ,991.3,9.3,29.6,-0.5,-0.2,-2,25,990.801,12.961,33.5539,0.385538,-0.753346,-1.37802,
2026_07_06_20_49_32.516,3.862,31.1,0,0.76,0,0,0,0, ,0,0,0,0,0, ,989.8,13.1,32.5,-0.5,-0.1,-2.3,25,990.786,12.8536,33.4013,0.331576,-0.71658,-1.42506,
2026_07_06_20_49_32.536,3.862,31.1,0,0.76,0,0,0,0, ,0,0,0,0,0, ,992.1,10.7,28.8,-0.5,0.2,-2.3,25,990.796,12.7955,33.2336,0.280901,-0.669866,-1.47838,
2026_07_06_20_49_32.555,3.862,31.1,0,0.761,0,0,0,0, ,0,0,0,0,0, ,992.3,12.5,31.3,-0.1,0.8,-2.7,25,990.881,12.7227,33.0396,0.245503,-0.598578,-1.54064,
2026_07_06_20_49_32.575,3.862,31.1,0,0.76,0,0,0,0, ,0,0,0,0,0, ,991.2,12.9,34.4,0.5,1.2,-2.7,25,990.934,12.7213,33.0281,0.24273,-0.501164,-1.61128,
2026_07_06_20_49_32.595,3.862,31.1,0,0.761,0,0,0,0, ,0,0,0,0,0, ,989.9,17.5,38.2,1,1.2,-2.7,25,990.911,12.8723,33.2274,0.273642,-0.3975,-1.67763,
2026_07_06_20_49_32.615,3.862,31.1,0,0.76,0,0,0,0, ,0,0,0,0,0, ,990.8,17.9,39.1,1.4,0.2,-2,25,990.877,13.1665,33.5579,0.330092,-0.330621,-1.7186,
2026_07_06_20_49_32.635,3.862,31.1,0,0.761,0,0,0,0, ,0,0,0,0,0, ,989.6,15.9,41.8,0,0,-1.8,25,990.835,13.394,33.9779,0.352633,-0.30438,-1.72965,
2026_07_06_20_49_32.655,3.862,31.1,0,0.761,0,0,0,0, ,0,0,0,0,0, ,991.6,12.5,31.7,-0.4,-0.7,-1.6,25,990.821,13.4431,34.1468,0.318957,-0.30716,-1.72785,
2026_07_06_20_49_32.675,3.862,31.1,0,0.761,0,0,0,0, ,0,0,0,0,0, ,989.1,15,41,-0.5,-0.8,-1.5,25,990.792,13.4618,34.2811,0.272099,-0.334145,-1.71701,
2026_07_06_20_49_32.694,3.862,31.2,0,0.759,0,0,0,0, ,0,0,0,0,0, ,991.4,15.8,39.3,-0.3,-2,-1,25,990.759,13.58,34.6387,0.231143,-0.399096,-1.68855,
2026_07_06_20_49_32.714,3.862,31.2,0,0.76,0,0,0,0, ,0,0,0,0,0, ,991.8,11.8,31.2,-0.4,-2.1,-0.9,25,990.81,13.5934,34.6759,0.195729,-0.499698,-1.64355,
2026_07_06_20_49_32.733,3.862,31.1,0,0.761,0,0,0,0, ,0,0,0,0,0, ,990.7,11.9,32.1,-0.5,-1.5,-1.2,25,990.837,13.4871,34.4916,0.15638,-0.578935,-1.60738,
2026_07_06_20_49_32.754,3.862,31.1,0,0.761,0,0,0,0, ,0,0,0,0,0, ,992.3,10,30.6,-0.5,-1.1,-1.6,25,990.878,13.3325,34.3001,0.116382,-0.622875,-1.59474,
2026_07_06_20_49_32.773,3.862,31.1,0,0.76,0,0,0,0, ,0,0,0,0,0, ,991.3,12.4,31.7,-0.5,-0.6,-1.8,25,990.934,13.2026,34.1082,0.0788212,-0.636715,-1.60115,
2026_07_06_20_49_32.793,3.862,31.1,0,0.76,0,0,0,0, ,0,0,0,0,0, ,991.6,14.2,37.3,-0.5,-0.8,-1.5,25,990.965,13.2085,34.132,0.0435492,-0.640572,-1.60413,
2026_07_06_20_49_32.812,3.862,31.1,0,0.76,0,0,0,0, ,0,0,0,0,0, ,992.1,11.9,29.9,-0.7,-0.8,-1.4,25,991.019,13.1988,34.0996,0.00433297,-0.650287,-1.59474,
2026_07_06_20_49_32.833,3.862,31.2,0,0.76,0,0,0,0, ,0,0,0,0,0, ,992.5,13.3,34.6,-0.5,0,-1.7,25,991.097,13.1624,33.9869,-0.0324936,-0.635035,-1.59201,
2026_07_06_20_49_32.852,3.862,31.1,0,0.76,0,0,0,0, ,0,0,0,0,0, ,991.8,11.8,34.1,-0.5,-0.1,-1.8,25,991.161,13.125,34.009,-0.0609822,-0.599384,-1.60164,
2026_07_06_20_49_32.872,3.862,31.1,0,0.761,0,0,0,0, ,0,0,0,0,0, ,991.2,12.5,36.9,-0.5,-0.5,-1.7,25,991.182,13.0656,34.0999,-0.0877349,-0.581141,-1.61068,
2026_07_06_20_49_32.892,3.862,31.1,0,0.759,0,0,0,0, ,0,0,0,0,0, ,990.2,14.5,36,-0.6,-1,-1.4,25,991.153,13.0921,34.2431,-0.115904,-0.591431,-1.60698,
2026_07_06_20_49_32.912,3.862,31.1,0,0.762,0,0,0,0, ,0,0,0,0,0, ,989.7,13.7,37.5,-0.7,-1,-1.4,25,991.079,13.1535,34.3959,-0.148451,-0.616328,-1.59437,
2026_07_06_20_49_32.932,3.862,31.1,0,0.761,0,0,0,0, ,0,0,0,0,0, ,990.1,12.4,32.7,-0.8,-1.2,-1.2,25,991.008,13.1472,34.4388,-0.185108,-0.645802,-1.57643,
2026_07_06_20_49_32.952,3.862,31.1,0,0.76,0,0,0,0, ,0,0,0,0,0, ,990.6,14.5,36.8,-1.4,-1.7,-1.1,25,990.967,13.1657,34.4577,-0.240859,-0.694807,-1.55045,
2026_07_06_20_49_32.971,3.862,31.1,0,0.76,0,0,0,0, ,0,0,0,0,0, ,992.7,10,28,-2.9,-1.7,-1.1,25,991.009,13.1099,34.3323,-0.357197,-0.756061,-1.523,
2026_07_06_20_49_32.991,3.862,31.2,0,0.76,0,0,0,0, ,0,0,0,0,0, ,991.3,14.1,37.1,-1.7,-1.1,-1.3,25,991.069,13.0453,34.2237,-0.475587,-0.795301,-1.50331,
2026_07_06_20_49_33.011,3.862,31.1,0,0.761,0,0,0,0, ,0,0,0,0,0, ,991.4,9.3,30.7,-1.7,-0.9,-1.3,25,991.087,12.9633,34.204,-0.550199,-0.807775,-1.49092,
2026_07_06_20_49_33.031,3.862,31.1,0,0.76,0,0,0,0, ,0,0,0,0,0, ,990.8,11.5,34.4,-1.1,-0.8,-1.4,25,991.087,12.8071,34.1032,-0.601984,-0.810348,-1.48234,
2026_07_06_20_49_33.051,3.862,31.1,0,0.76,0,0,0,0, ,0,0,0,0,0, ,990.3,10.4,30.7,-1.5,-1.2,-1.4,25,991.055,12.6939,34.0086,-0.644519,-0.821905,-1.47732,
2026_07_06_20_49_33.071,3.862,31.1,0,0.761,0,0,0,0, ,0,0,0,0,0, ,989.6,10.6,30.3,-1,-0.5,-1.5,25,990.987,12.5602,33.7948,-0.681416,-0.823617,-1.47565,
2026_07_06_20_49_33.090,3.862,31.1,0,0.76,0,0,0,0, ,0,0,0,0,0, ,990.4,10.8,32.8,-0.9,-0.7,-1.6,25,990.927,12.4469,33.658,-0.697783,-0.80999,-1.48019,
2026_07_06_20_49_33.110,3.862,31.1,0,0.76,0,0,0,0, ,0,0,0,0,0, ,991.5,11.2,31.1,-0.7,-0.5,-1.7,25,990.929,12.3587,33.5539,-0.704012,-0.797194,-1.49053,
2026_07_06_20_49_33.129,3.862,31.1,0,0.76,0,0,0,0, ,0,0,0,0,0, ,990.9,11.1,29.9,-0.6,-0.4,-2,25,990.945,12.2851,33.3678,-0.70072,-0.776037,-1.51244,
2026_07_06_20_49_33.149,3.862,31.1,0,0.761,0,0,0,0, ,0,0,0,0,0, ,990.1,12.4,35.4,-0.6,-0.2,-2.1,25,990.918,12.2524,33.3241,-0.694583,-0.747029,-1.5452,
2026_07_06_20_49_33.169,3.862,31.1,0,0.76,0,0,0,0, ,0,0,0,0,0, ,990.8,12.3,32.4,-0.6,-0.5,-1.8,25,990.889,12.2584,33.3591,-0.688819,-0.722835,-1.56986,
2026_07_06_20_49_33.189,3.862,31.1,0,0.76,0,0,0,0, ,0,0,0,0,0, ,990.1,12.6,33.6,-0.6,-0.5,-1.6,25,990.863,12.2701,33.3373,-0.683407,-0.709256,-1.57779,
2026_07_06_20_49_33.208,3.862,31.1,0,0.76,0,0,0,0, ,0,0,0,0,0, ,991.6,11.2,33.3,-0.5,-0.5,-1.6,25,990.862,12.2475,33.3441,-0.675277,-0.696504,-1.57915,
2026_07_06_20_49_33.229,3.862,31.2,0,0.76,0,0,0,0, ,0,0,0,0,0, ,990.7,11.2,32.4,-0.5,-0.5,-1.8,25,990.879,12.1837,33.314,-0.664596,-0.68453,-1.58651,
2026_07_06_20_49_33.248,3.862,31.1,0,0.76,0,0,0,0, ,0,0,0,0,0, ,991.9,13.1,32.8,-0.5,-0.6,-1.7,25,990.905,12.1816,33.2705,-0.654566,-0.676332,-1.59647,
2026_07_06_20_49_33.268,3.862,31.1,0,0.762,0,0,0,0, ,0,0,0,0,0, ,991.9,11.4,31.2,-0.5,-0.5,-1.6,25,990.966,12.1858,33.1931,-0.645147,-0.668633,-1.59974,
2026_07_06_20_49_33.288,3.862,31.1,0,0.76,0,0,0,0, ,0,0,0,0,0, ,991.2,9.6,31.3,-0.5,-0.5,-1.7,25,991.001,12.0831,33.0747,-0.636302,-0.658357,-1.6028,
2026_07_06_20_49_33.308,3.862,31.1,0,0.761,0,0,0,0, ,0,0,0,0,0, ,990.8,12.8,35,-0.5,-0.6,-1.9,25,991.001,12.0293,33.0793,-0.627996,-0.651754,-1.61482,
2026_07_06_20_49_33.327,3.862,31.1,0,0.761,0,0,0,0, ,0,0,0,0,0, ,990.9,13.7,36.1,-0.5,-0.8,-1.6,25,990.992,12.1036,33.2298,-0.620197,-0.654694,-1.62305,
2026_07_06_20_49_33.348,3.862,31.2,0,0.76,0,0,0,0, ,0,0,0,0,0, ,991.5,10.9,30.3,-0.5,-0.7,-1.5,25,991.005,12.1156,33.228,-0.612872,-0.660502,-1.6186,
2026_07_06_20_49_33.367,3.862,31.1,0,0.761,0,0,0,0, ,0,0,0,0,0, ,990.7,11.4,31.7,-0.5,-0.7,-1.5,25,991.01,12.0568,33.0922,-0.605994,-0.662909,-1.61137,
2026_07_06_20_49_33.387,3.862,31.1,0,0.761,0,0,0,0, ,0,0,0,0,0, ,992.6,10.1,32.3,-0.5,-0.8,-1.5,25,991.049,11.9771,33.0257,-0.599535,-0.668216,-1.60459,
2026_07_06_20_49_33.407,3.862,31.2,0,0.76,0,0,0,0, ,0,0,0,0,0, ,990.6,11.1,34.5,-0.6,-0.7,-1.6,25,991.083,11.8932,33.0485,-0.596516,-0.6732,-1.60126,
2026_07_06_20_49_33.427,3.862,31.1,0,0.758,0,0,0,0, ,0,0,0,0,0, ,991.5,12.5,32.2,-0.8,-1.2,-1.5,25,991.081,11.8875,33.0669,-0.602822,-0.690067,-1.59814,
2026_07_06_20_49_33.447,3.862,31.2,0,0.76,0,0,0,0, ,0,0,0,0,0, ,991.4,11.5,28.9,-1,-0.6,-1.6,25,991.103,11.8944,32.9135,-0.620932,-0.70286,-1.5952,
2026_07_06_20_49_33.467,3.862,31.1,0,0.761,0,0,0,0, ,0,0,0,0,0, ,991.5,10.3,31.1,-0.5,0,-1.9,25,991.125,11.8338,32.736,-0.628797,-0.678311,-1.60464,
2026_07_06_20_49_33.486,3.862,31.1,0,0.76,0,0,0,0, ,0,0,0,0,0, ,990.2,13.4,37.8,-0.5,-0.3,-2,25,991.108,11.8348,32.8404,-0.620948,-0.646117,-1.62568,
2026_07_06_20_49_33.506,3.862,31.1,0,0.759,0,0,0,0, ,0,0,0,0,0, ,991.5,11.8,33.8,-0.6,-0.7,-1.6,25,991.092,11.8814,33.0208,-0.616625,-0.637213,-1.63631,
2026_07_06_20_49_33.526,3.862,31.1,0,0.76,0,0,0,0, ,0,0,0,0,0, ,991,10.8,30.3,-0.5,-0.3,-1.7,25,991.102,11.846,32.9616,-0.612565,-0.628851,-1.63714,
2026_07_06_20_49_33.546,3.862,31.1,0,0.76,0,0,0,0, ,0,0,0,0,0, ,991.8,9.5,32.2,-0.5,-0.4,-1.7,25,991.12,11.7426,32.8573,-0.605705,-0.611859,-1.64097,
2026_07_06_20_49_33.565,3.862,31.1,0,0.761,0,0,0,0, ,0,0,0,0,0, ,990.8,10.9,32.9,-0.5,-0.3,-2,25,991.131,11.6486,32.8386,-0.599264,-0.595902,-1.65371,
2026_07_06_20_49_33.585,3.862,31.1,0,0.761,0,0,0,0, ,0,0,0,0,0, ,990.6,10.9,34.6,-0.5,-0.3,-2,25,991.105,11.603,32.8941,-0.593215,-0.57787,-1.67481,
2026_07_06_20_49_33.605,3.862,31.1,0,0.761,0,0,0,0, ,0,0,0,0,0, ,990.9,11.9,32.9,-0.5,-0.3,-1.9,25,991.083,11.5906,32.9463,-0.587535,-0.560938,-1.69158,
2026_07_06_20_49_33.625,3.862,31.1,0,0.761,0,0,0,0, ,0,0,0,0,0, ,989.8,15.1,35.5,-0.6,-0.5,-1.7,25,991.038,11.707,33.0227,-0.585248,-0.55113,-1.69819,
2026_07_06_20_49_33.644,3.862,31.2,0,0.76,0,0,0,0, ,0,0,0,0,0, ,989.8,12,34.5,-0.6,-0.6,-1.4,25,990.963,11.8193,33.1432,-0.586147,-0.551062,-1.68916,
2026_07_06_20_49_33.664,3.862,31.1,0,0.762,0,0,0,0, ,0,0,0,0,0, ,991,11.3,34,-0.5,-0.8,-1.4,25,990.929,11.809,33.2106,-0.583944,-0.560138,-1.67154,
2026_07_06_20_49_33.684,3.862,31.1,0,0.761,0,0,0,0, ,0,0,0,0,0, ,991,9.2,33.9,-0.5,-1.1,-1.5,25,990.933,11.714,33.2557,-0.578829,-0.583895,-1.65804,
2026_07_06_20_49_33.704,3.862,31.1,0,0.761,0,0,0,0, ,0,0,0,0,0, ,991.4,9.8,30.1,-0.6,-0.8,-1.7,25,990.949,11.5791,33.1791,-0.577072,-0.606204,-1.6545,
2026_07_06_20_49_33.725,3.862,31.1,0,0.761,0,0,0,0, ,0,0,0,0,0, ,991.2,10.3,31,-0.5,-0.3,-1.9,25,990.971,11.4859,33.0189,-0.575422,-0.602779,-1.66337,
2026_07_06_20_49_33.743,3.862,31.1,0,0.76,0,0,0,0, ,0,0,0,0,0, ,990.8,12,31.7,-0.4,-0.3,-1.8,25,990.972,11.4654,32.9172,-0.567779,-0.584329,-1.67474,
2026_07_06_20_49_33.763,3.862,31.1,0,0.759,0,0,0,0, ,0,0,0,0,0, ,990.2,11.9,31.8,-0.5,-0.4,-1.7,25,990.944,11.495,32.8461,-0.560602,-0.570049,-1.67933,
2026_07_06_20_49_33.783,3.862,31.1,0,0.759,0,0,0,0, ,0,0,0,0,0, ,990.4,12.6,31.4,-0.4,-0.6,-1.7,25,990.904,11.541,32.7702,-0.553862,-0.565781,-1.68058,
2026_07_06_20_49_33.804,3.862,31.2,0,0.761,0,0,0,0, ,0,0,0,0,0, ,991.9,12.6,35.4,-0.5,-0.9,-1.5,25,990.919,11.6055,32.8086,-0.547533,-0.577007,-1.67567,
2026_07_06_20_49_33.823,3.862,31.1,0,0.761,0,0,0,0, ,0,0,0,0,0, ,989.6,10.6,29.2,-0.6,-1,-1.5,25,990.909,11.6052,32.7776,-0.547683,-0.599736,-1.66497,
2026_07_06_20_49_33.842,3.862,31.1,0,0.761,0,0,0,0, ,0,0,0,0,0, ,991.9,9.5,31.4,-0.5,-0.4,-1.6,25,990.899,11.5104,32.6266,-0.547825,-0.605846,-1.65796,
2026_07_06_20_49_33.862,3.862,31.1,0,0.761,0,0,0,0, ,0,0,0,0,0, ,990.2,10.7,33.4,-0.4,-0.4,-1.8,25,990.909,11.4244,32.6128,-0.541863,-0.593302,-1.66052,
2026_07_06_20_49_33.881,3.862,31.1,0,0.758,0,0,0,0, ,0,0,0,0,0, ,991.4,12,33.4,-0.4,-0.4,-1.8,25,990.902,11.4199,32.6607,-0.533219,-0.581523,-1.66902,
2026_07_06_20_49_33.902,3.862,31.1,0,0.761,0,0,0,0, ,0,0,0,0,0, ,990.6,12.5,35.1,-0.5,-0.4,-1.8,25,990.908,11.4705,32.7576,-0.528147,-0.570461,-1.67701,
2026_07_06_20_49_33.922,3.862,31.1,0,0.76,0,0,0,0, ,0,0,0,0,0, ,991.6,9.5,33.4,-0.5,-0.4,-1.8,25,990.92,11.4418,32.8485,-0.526432,-0.560074,-1.6845,
2026_07_06_20_49_33.941,3.862,31.1,0,0.76,0,0,0,0, ,0,0,0,0,0, ,990.1,10.7,33,-0.5,-0.4,-1.8,25,990.915,11.3601,32.87,-0.524822,-0.550319,-1.69154,
2026_07_06_20_49_33.961,3.862,31.1,0,0.76,0,0,0,0, ,0,0,0,0,0, ,991,9.5,33,-0.5,-0.6,-1.8,25,990.893,11.2833,32.8779,-0.523309,-0.547253,-1.69815,
2026_07_06_20_49_33.980,3.862,31.1,0,0.761,0,0,0,0, ,0,0,0,0,0, ,990.3,12.4,31,-0.5,-0.5,-1.8,25,990.878,11.263,32.8244,-0.521889,-0.54742,-1.70435,
2026_07_06_20_49_34.001,3.862,31.2,0,0.76,0,0,0,0, ,0,0,0,0,0, ,990.8,12.2,31.8,-0.6,-0.5,-1.6,25,990.858,11.3262,32.7376,-0.523602,-0.544531,-1.70409,
2026_07_06_20_49_34.021,3.862,31.1,0,0.76,0,0,0,0, ,0,0,0,0,0, ,992,11.3,32.2,-0.5,-0.4,-1.6,25,990.891,11.352,32.6926,-0.52521,-0.53877,-1.69775,
2026_07_06_20_49_34.040,3.862,31.1,0,0.76,0,0,0,0, ,0,0,0,0,0, ,991.3,11.2,32.2,-0.5,-0.5,-1.7,25,990.938,11.3458,32.6626,-0.523674,-0.533361,-1.69484,
2026_07_06_20_49_34.060,3.862,31.1,0,0.761,0,0,0,0, ,0,0,0,0,0, ,991.4,10.7,33.8,-0.4,-0.6,-1.6,25,990.963,11.3217,32.6832,-0.519185,-0.534375,-1.6921,
2026_07_06_20_49_34.079,3.862,31.1,0,0.763,0,0,0,0, ,0,0,0,0,0, ,990.8,10.8,31.9,-0.5,-0.5,-1.8,25,990.971,11.2868,32.6933,-0.514969,-0.535327,-1.69259,
2026_07_06_20_49_34.099,3.862,31.1,0,0.761,0,0,0,0, ,0,0,0,0,0, ,991.5,10.7,33.6,-0.5,-0.5,-1.7,25,990.982,11.2541,32.6968,-0.514056,-0.533174,-1.69608,
2026_07_06_20_49_34.119,3.862,31.1,0,0.761,0,0,0,0, ,0,0,0,0,0, ,990.4,11.7,32.9,-0.4,-0.4,-1.8,25,990.98,11.2508,32.7305,-0.510153,-0.528106,-1.69937,
2026_07_06_20_49_34.139,3.862,31.1,0,0.759,0,0,0,0, ,0,0,0,0,0, ,992.3,10.7,32.9,-0.4,-0.5,-1.8,25,991.003,11.2477,32.7408,-0.503441,-0.523346,-1.7055,
2026_07_06_20_49_34.158,3.862,31.1,0,0.761,0,0,0,0, ,0,0,0,0,0, ,990.4,11.9,34.6,-0.4,-0.5,-1.7,25,991.024,11.2509,32.8023,-0.497137,-0.521923,-1.70821,
2026_07_06_20_49_34.178,3.862,31.1,0,0.759,0,0,0,0, ,0,0,0,0,0, ,991.9,11.9,33,-0.5,-0.6,-1.7,25,991.031,11.2905,32.8631,-0.494265,-0.523634,-1.70771,
2026_07_06_20_49_34.198,3.862,31.1,0,0.76,0,0,0,0, ,0,0,0,0,0, ,991.2,13.4,34.4,-0.5,-0.7,-1.6,25,991.063,11.3733,32.9141,-0.494614,-0.531335,-1.7042,
2026_07_06_20_49_34.219,3.862,31.1,0,0.76,0,0,0,0, ,0,0,0,0,0, ,990.9,11.7,32.7,-0.5,-0.9,-1.4,25,991.062,11.445,32.9529,-0.494942,-0.547707,-1.69175,
2026_07_06_20_49_34.238,3.862,31,0,0.76,0,0,0,0, ,0,0,0,0,0, ,991.3,8.4,31.3,-0.5,-1.1,-1.3,25,991.065,11.36,32.8948,-0.495251,-0.575268,-1.67093,
2026_07_06_20_49_34.265,3.862,31.1,0,0.762,0,0,0,0, ,0,0,0,0,0, ,991.2,8.4,31.1,-0.4,-0.6,-1.8,25,991.076,11.1796,32.7915,-0.492493,-0.59201,-1.66356,
2026_07_06_20_49_34.278,3.862,31.2,0,0.761,0,0,0,0, ,0,0,0,0,0, ,990.9,11.3,32.5,-0.5,-0.7,-1.7,25,991.074,11.0986,32.7311,-0.489904,-0.595543,-1.66883,
2026_07_06_20_49_34.298,3.862,31.1,0,0.76,0,0,0,0, ,0,0,0,0,0, ,990.4,10.6,29.9,-0.6,-0.5,-1.6,25,991.048,11.0895,32.6378,-0.493566,-0.595815,-1.66768,
2026_07_06_20_49_34.318,3.862,31.1,0,0.761,0,0,0,0, ,0,0,0,0,0, ,990.9,10.9,33.3,-0.5,-0.3,-1.6,25,991.024,11.0689,32.5746,-0.497005,-0.583883,-1.66355,
2026_07_06_20_49_34.337,3.862,31.1,0,0.761,0,0,0,0, ,0,0,0,0,0, ,992.7,11.2,31.3,-0.5,-0.4,-1.8,25,991.071,11.0677,32.5578,-0.497187,-0.56963,-1.66578,
2026_07_06_20_49_34.356,3.862,31.1,0,0.761,0,0,0,0, ,0,0,0,0,0, ,989.7,10.2,34.7,-0.5,-0.7,-1.8,25,991.079,11.0453,32.5848,-0.497359,-0.568434,-1.67395,
2026_07_06_20_49_34.377,3.862,31.1,0,0.76,0,0,0,0, ,0,0,0,0,0, ,993.1,9.6,29.6,-0.5,-0.4,-1.9,25,991.099,10.9755,32.5583,-0.49752,-0.567311,-1.68468,
2026_07_06_20_49_34.399,3.862,31,0,0.758,0,0,0,0, ,0,0,0,0,0, ,992,12.4,35.5,-0.5,-0.4,-1.9,25,991.187,10.977,32.5578,-0.497671,-0.557115,-1.6978,
2026_07_06_20_49_34.417,3.862,31.1,0,0.761,0,0,0,0, ,0,0,0,0,0, ,991.9,12,30.1,-0.5,-0.7,-1.6,25,991.234,11.0515,32.5725,-0.497813,-0.556682,-1.70098,
2026_07_06_20_49_34.436,3.862,31.1,0,0.761,0,0,0,0, ,0,0,0,0,0, ,991.9,10.2,31.9,-0.5,-0.4,-1.6,25,991.274,11.0545,32.4767,-0.497946,-0.556275,-1.69483,
2026_07_06_20_49_34.456,3.862,31.1,0,0.761,0,0,0,0, ,0,0,0,0,0, ,990.4,10.8,35,-0.4,-0.5,-1.7,25,991.267,11.0207,32.536,-0.495024,-0.549798,-1.6921,
2026_07_06_20_49_34.476,3.862,31.2,0,0.761,0,0,0,0, ,0,0,0,0,0, ,990.6,10.3,31.1,-0.4,-0.6,-1.6,25,991.22,10.992,32.5673,-0.489234,-0.549811,-1.68953,
2026_07_06_20_49_34.496,3.862,31.1,0,0.76,0,0,0,0, ,0,0,0,0,0, ,990.8,11.9,28.3,-0.5,-0.6,-1.6,25,991.188,10.9986,32.3926,-0.486843,-0.552869,-1.68408,
2026_07_06_20_49_34.515,3.862,31.1,0,0.76,0,0,0,0, ,0,0,0,0,0, ,990.2,9.7,32.5,-0.4,-0.3,-1.9,25,991.146,10.9865,32.2712,-0.484598,-0.546601,-1.68809,
2026_07_06_20_49_34.538,3.862,31.1,0,0.761,0,0,0,0, ,0,0,0,0,0, ,990.3,12.6,34.9,-0.4,-0.5,-2,25,991.092,10.9965,32.3583,-0.479443,-0.537667,-1.70405,
2026_07_06_20_49_34.555,3.862,31.1,0,0.76,0,0,0,0, ,0,0,0,0,0, ,991.9,12.5,30.3,-0.5,-0.6,-1.9,25,991.092,11.0911,32.373,-0.477649,-0.538419,-1.71904,
2026_07_06_20_49_34.575,3.862,31.1,0,0.76,0,0,0,0, ,0,0,0,0,0, ,989.9,11.3,32.5,-0.5,-0.4,-1.8,25,991.081,11.1404,32.3137,-0.479011,-0.536077,-1.72702,
2026_07_06_20_49_34.595,3.862,31,0,0.76,0,0,0,0, ,0,0,0,0,0, ,990.7,11.7,32.9,-0.4,-0.5,-1.6,25,991.033,11.1623,32.3372,-0.477243,-0.530832,-1.72538,
2026_07_06_20_49_34.615,3.862,31.2,0,0.761,0,0,0,0, ,0,0,0,0,0, ,990.7,11.9,32.9,-0.5,-0.6,-1.5,25,991.013,11.2012,32.3715,-0.475583,-0.532,-1.71469,
2026_07_06_20_49_34.634,3.862,31.1,0,0.762,0,0,0,0, ,0,0,0,0,0, ,991.4,12.6,37.8,-0.5,-1,-1.4,25,991.015,11.2651,32.553,-0.477071,-0.548331,-1.69856,
2026_07_06_20_49_34.654,3.862,31.1,0,0.76,0,0,0,0, ,0,0,0,0,0, ,991.8,10.1,32.1,-0.5,-1.4,-1.3,25,991.051,11.2703,32.6991,-0.478468,-0.588042,-1.67732,
2026_07_06_20_49_34.676,3.862,31.1,0,0.76,0,0,0,0, ,0,0,0,0,0, ,990.8,10.1,31.2,-0.6,-0.7,-1.5,25,991.066,11.199,32.6352,-0.482827,-0.616193,-1.66042,
2026_07_06_20_49_34.694,3.862,31.1,0,0.761,0,0,0,0, ,0,0,0,0,0, ,991,11.5,30.8,-0.5,-0.6,-1.5,25,991.056,11.1746,32.5355,-0.48692,-0.618253,-1.65064,
2026_07_06_20_49_34.713,3.862,31,0,0.762,0,0,0,0, ,0,0,0,0,0, ,992.6,11.3,33.9,-0.5,-0.7,-1.4,25,991.101,11.1884,32.5242,-0.487717,-0.620188,-1.63842,
2026_07_06_20_49_34.733,3.862,31.1,0,0.76,0,0,0,0, ,0,0,0,0,0, ,991.3,10.2,33,-0.5,-0.6,-1.7,25,991.153,11.1617,32.5806,-0.488466,-0.622004,-1.63303,
2026_07_06_20_49_34.754,3.862,31.1,0,0.76,0,0,0,0, ,0,0,0,0,0, ,990.4,8.3,27.9,-0.4,-0.4,-1.8,25,991.134,11.0452,32.4508,-0.486122,-0.61457,-1.64016,
2026_07_06_20_49_34.773,3.862,31.1,0,0.76,0,0,0,0, ,0,0,0,0,0, ,992.1,9.3,31.6,-0.5,0,-2,25,991.141,10.9084,32.2862,-0.483921,-0.589307,-1.65599,
2026_07_06_20_49_34.793,3.862,31.2,0,0.761,0,0,0,0, ,0,0,0,0,0, ,992,11.2,30.2,-0.4,0.1,-2.2,25,991.197,10.8682,32.2017,-0.481854,-0.550349,-1.68305,
2026_07_06_20_49_34.813,3.862,31.1,0,0.76,0,0,0,0, ,0,0,0,0,0, ,991.5,13.4,36.6,-0.4,0,-2.3,25,991.23,10.9555,32.2748,-0.476866,-0.513765,-1.7176,
2026_07_06_20_49_34.832,3.862,31.1,0,0.76,0,0,0,0, ,0,0,0,0,0, ,989.7,12.8,34.6,-0.5,-0.3,-1.9,25,991.192,11.0862,32.4774,-0.475228,-0.491598,-1.7409,
2026_07_06_20_49_34.852,3.862,31.1,0,0.763,0,0,0,0, ,0,0,0,0,0, ,991.3,12.2,32.3,-0.5,-0.4,-1.7,25,991.15,11.1723,32.5367,-0.476738,-0.48297,-1.7445,
2026_07_06_20_49_34.872,3.862,31.1,0,0.76,0,0,0,0, ,0,0,0,0,0, ,990.8,11.4,30.3,-0.4,-0.4,-1.6,25,991.144,11.2106,32.4613,-0.475109,-0.477914,-1.73874,
2026_07_06_20_49_34.892,3.862,31.1,0,0.761,0,0,0,0, ,0,0,0,0,0, ,991.4,11.3,31.1,-0.5,-0.5,-1.7,25,991.141,11.2191,32.354,-0.473579,-0.476213,-1.73333,
2026_07_06_20_49_34.911,3.862,31.1,0,0.759,0,0,0,0, ,0,0,0,0,0, ,989.9,12.6,33.4,-0.5,-0.6,-1.7,25,991.111,11.2636,32.3476,-0.475189,-0.480709,-1.7313,
2026_07_06_20_49_34.932,3.862,31.1,0,0.758,0,0,0,0, ,0,0,0,0,0, ,990.8,11.7,32.4,-0.5,-0.6,-1.5,25,991.065,11.3176,32.3813,-0.476701,-0.487978,-1.7233,
2026_07_06_20_49_34.951,3.862,31.1,0,0.76,0,0,0,0, ,0,0,0,0,0, ,991,10.1,32.3,-0.5,-0.4,-1.6,25,991.055,11.2922,32.3794,-0.47812,-0.488711,-1.71274,
2026_07_06_20_49_34.971,3.862,31.1,0,0.759,0,0,0,0, ,0,0,0,0,0, ,991,11.9,34,-0.4,-0.5,-1.6,25,991.051,11.2744,32.4264,-0.476407,-0.486352,-1.70587,
2026_07_06_20_49_34.991,3.862,31.1,0,0.76,0,0,0,0, ,0,0,0,0,0, ,991.3,11.1,33.4,-0.4,-0.7,-1.6,25,991.057,11.2881,32.504,-0.471751,-0.493278,-1.69942,
2026_07_06_20_49_35.011,3.862,31.1,0,0.761,0,0,0,0, ,0,0,0,0,0, ,991.4,12,38.2,-0.5,-1.3,-1.6,25,991.075,11.3041,32.7048,-0.470425,-0.524156,-1.69336,
2026_07_06_20_49_35.030,3.862,31.1,0,0.76,0,0,0,0, ,0,0,0,0,0, ,991.6,11.4,25.3,-0.6,-1.6,-1.5,25,991.101,11.3282,32.6466,-0.475274,-0.580575,-1.68463,
2026_07_06_20_49_35.050,3.862,31,0,0.76,0,0,0,0, ,0,0,0,0,0, ,991.3,11.2,25,-0.6,-1.1,-1.5,25,991.122,11.3265,32.1898,-0.482875,-0.627461,-1.67337,
2026_07_06_20_49_35.070,3.862,31.1,0,0.761,0,0,0,0, ,0,0,0,0,0, ,990.4,11.8,33.2,-0.5,-0.6,-1.2,25,991.106,11.3371,32.0015,-0.486965,-0.641022,-1.65367,
2026_07_06_20_49_35.090,3.862,31.1,0,0.759,0,0,0,0, ,0,0,0,0,0, ,989.9,11.4,33.5,-0.5,-0.7,-1.2,25,991.048,11.3531,32.0837,-0.48776,-0.641569,-1.62602,
2026_07_06_20_49_35.109,3.862,31.1,0,0.761,0,0,0,0, ,0,0,0,0,0, ,992,7.9,30.6,-0.6,-1,-1.3,25,991.042,11.2493,32.0816,-0.491552,-0.654271,-1.60311,
2026_07_06_20_49_35.129,3.862,31.1,0,0.761,0,0,0,0, ,0,0,0,0,0, ,991.3,10.3,30.1,-0.6,-0.9,-1.4,25,991.079,11.1183,31.9761,-0.498161,-0.672292,-1.58769,
2026_07_06_20_49_35.149,3.862,31.1,0,0.762,0,0,0,0, ,0,0,0,0,0, ,992.1,9.3,28.9,-0.5,-0.4,-1.6,25,991.117,11.038,31.8252,-0.50132,-0.670933,-1.58234,
2026_07_06_20_49_35.169,3.862,31.1,0,0.76,0,0,0,0, ,0,0,0,0,0, ,990.7,11.4,35.5,-0.5,-0.8,-1.4,25,991.134,10.9961,31.8481,-0.501239,-0.666611,-1.57732,
2026_07_06_20_49_35.189,3.862,31.1,0,0.759,0,0,0,0, ,0,0,0,0,0, ,992.4,7.8,30,-0.5,-0.6,-1.5,25,991.159,10.911,31.903,-0.501164,-0.668645,-1.56957,
2026_07_06_20_49_35.209,3.862,31.2,0,0.759,0,0,0,0, ,0,0,0,0,0, ,990.1,9.5,28.9,-0.5,-0.3,-1.8,25,991.165,10.7732,31.7535,-0.501093,-0.655322,-1.57447,
2026_07_06_20_49_35.228,3.862,31.1,0,0.761,0,0,0,0, ,0,0,0,0,0, ,991.2,9.1,30.6,-0.5,0,-1.9,25,991.133,10.6834,31.6315,-0.501026,-0.624529,-1.59126,
2026_07_06_20_49_35.248,3.862,31.1,0,0.759,0,0,0,0, ,0,0,0,0,0, ,990.2,8.9,27,-0.5,0,-2,25,991.107,10.5809,31.4589,-0.500964,-0.586471,-1.61312,
2026_07_06_20_49_35.268,3.862,31.2,0,0.759,0,0,0,0, ,0,0,0,0,0, ,990.1,10.3,33.9,-0.4,0.3,-2.3,25,991.049,10.5211,31.3974,-0.497858,-0.541593,-1.64583,
2026_07_06_20_49_35.288,3.862,31.2,0,0.76,0,0,0,0, ,0,0,0,0,0, ,990.6,13.1,39.1,-0.4,-0.3,-2.1,25,991.006,10.5929,31.7084,-0.491895,-0.508589,-1.6796,
2026_07_06_20_49_35.307,3.862,31.1,0,0.76,0,0,0,0, ,0,0,0,0,0, ,990.8,13.7,36.2,-0.5,-1.6,-1.5,25,990.987,10.764,32.0704,-0.489342,-0.535488,-1.68694,
2026_07_06_20_49_35.328,3.862,31.1,0,0.76,0,0,0,0, ,0,0,0,0,0, ,990.7,13.6,31.1,-0.9,-1.6,-1.1,25,990.973,10.9398,32.1667,-0.502179,-0.600357,-1.66336,
2026_07_06_20_49_35.347,3.862,31.1,0,0.761,0,0,0,0, ,0,0,0,0,0, ,990.7,7.3,28.5,-0.7,-1,-1.1,25,990.956,10.91,32.0225,-0.520327,-0.642991,-1.62903,
2026_07_06_20_49_35.367,3.862,31.1,0,0.761,0,0,0,0, ,0,0,0,0,0, ,990.7,8.3,28.3,-0.5,-0.5,-1.6,25,990.941,10.7205,31.8017,-0.525182,-0.649512,-1.61203,
2026_07_06_20_49_35.386,3.862,31.1,0,0.761,0,0,0,0, ,0,0,0,0,0, ,990.6,11.2,33.6,-0.5,-0.4,-1.7,25,990.923,10.6613,31.7498,-0.523648,-0.637354,-1.61434,
2026_07_06_20_49_35.406,3.862,31.1,0,0.76,0,0,0,0, ,0,0,0,0,0, ,992,10.1,27.9,-0.5,-0.4,-1.7,25,990.946,10.6607,31.6889,-0.522207,-0.62289,-1.61956,
2026_07_06_20_49_35.426,3.862,31.1,0,0.76,0,0,0,0, ,0,0,0,0,0, ,991.8,10.2,31.3,-0.5,-0.2,-1.7,25,991.004,10.6295,31.5616,-0.520854,-0.603214,-1.62446,
2026_07_06_20_49_35.446,3.862,31.1,0,0.76,0,0,0,0, ,0,0,0,0,0, ,991.4,9.3,29.5,-0.5,-0.1,-1.8,25,991.04,10.5759,31.4908,-0.519583,-0.575597,-1.63211,
2026_07_06_20_49_35.466,3.862,31.1,0,0.759,0,0,0,0, ,0,0,0,0,0, ,991.8,7.4,30,-0.4,-0.1,-2.1,25,991.075,10.4403,31.3847,-0.515343,-0.546615,-1.65148,
2026_07_06_20_49_35.486,3.862,31.1,0,0.761,0,0,0,0, ,0,0,0,0,0, ,991.6,10.7,32.8,-0.4,0.2,-2.4,25,991.113,10.3556,31.3857,-0.508314,-0.510259,-1.68796,
2026_07_06_20_49_35.506,3.862,31.1,0,0.76,0,0,0,0, ,0,0,0,0,0, ,990.1,10.9,30.5,-0.4,-0.2,-2.1,25,991.097,10.3827,31.4018,-0.501714,-0.479165,-1.72221,
2026_07_06_20_49_35.525,3.862,31.2,0,0.759,0,0,0,0, ,0,0,0,0,0, ,990.7,11.7,34.3,-0.5,0,-2,25,991.054,10.4386,31.4626,-0.498562,-0.456059,-1.74218,
2026_07_06_20_49_35.545,3.862,31.1,0,0.76,0,0,0,0, ,0,0,0,0,0, ,990.7,10.9,35.8,-0.4,-0.2,-1.9,25,991.033,10.4911,31.6812,-0.495603,-0.434362,-1.75485,
2026_07_06_20_49_35.565,3.862,31.2,0,0.761,0,0,0,0, ,0,0,0,0,0, ,990.9,11.7,34.3,-0.5,-0.5,-1.9,25,991.018,10.5403,31.8865,-0.492824,-0.429221,-1.76369,
2026_07_06_20_49_35.586,3.862,31.1,0,0.76,0,0,0,0, ,0,0,0,0,0, ,991.3,13.7,34.4,-0.4,-0.7,-1.8,25,991.023,10.672,32.0366,-0.490215,-0.439628,-1.76895,
2026_07_06_20_49_35.605,3.862,31.2,0,0.76,0,0,0,0, ,0,0,0,0,0, ,990.4,11.1,29.4,-0.4,-0.7,-1.6,25,991.013,10.7773,32.0283,-0.484717,-0.455494,-1.76475,
2026_07_06_20_49_35.624,3.862,31,0,0.76,0,0,0,0, ,0,0,0,0,0, ,992.3,12,33.2,-0.4,-0.9,-1.6,25,991.033,10.8243,31.9839,-0.479555,-0.476488,-1.75471,
2026_07_06_20_49_35.645,3.862,31.1,0,0.761,0,0,0,0, ,0,0,0,0,0, ,992.1,12.3,30.6,-0.5,-1.2,-1.5,25,991.104,10.9051,31.9788,-0.477754,-0.511436,-1.74223,
2026_07_06_20_49_35.664,3.862,31.2,0,0.76,0,0,0,0, ,0,0,0,0,0, ,991.5,11.4,32.2,-0.4,-1,-1.4,25,991.147,10.9627,31.9435,-0.476062,-0.547302,-1.72443,
2026_07_06_20_49_35.683,3.862,31.1,0,0.76,0,0,0,0, ,0,0,0,0,0, ,990.1,9.6,31.3,-0.5,-1,-1.4,25,991.126,10.9345,31.9317,-0.474474,-0.574888,-1.70466,
2026_07_06_20_49_35.703,3.862,31.1,0,0.76,0,0,0,0, ,0,0,0,0,0, ,991.6,11.2,31.3,-0.5,-0.8,-1.4,25,991.109,10.9019,31.8932,-0.47603,-0.5947,-1.68609,
2026_07_06_20_49_35.723,3.862,31.2,0,0.761,0,0,0,0, ,0,0,0,0,0, ,990.2,11.2,29.5,-0.5,-0.7,-1.4,25,991.096,10.9201,31.8022,-0.47749,-0.604163,-1.66866,
2026_07_06_20_49_35.743,3.862,31.1,0,0.76,0,0,0,0, ,0,0,0,0,0, ,990.2,9.3,30.2,-0.5,-0.6,-1.5,25,991.042,10.8793,31.6833,-0.478862,-0.606956,-1.65533,
2026_07_06_20_49_35.763,3.862,31.2,0,0.759,0,0,0,0, ,0,0,0,0,0, ,990.3,10.2,33.3,-0.4,-0.5,-1.8,25,990.993,10.8105,31.6873,-0.477103,-0.603486,-1.65501,
2026_07_06_20_49_35.783,3.862,31.1,0,0.76,0,0,0,0, ,0,0,0,0,0, ,991,12.5,30.2,-0.5,-1,-1.6,25,990.972,10.8433,31.6912,-0.475452,-0.612414,-1.65775,
2026_07_06_20_49_35.803,3.862,31.2,0,0.76,0,0,0,0, ,0,0,0,0,0, ,990.3,10.2,30.5,-0.5,-0.6,-1.5,25,990.953,10.8742,31.6094,-0.476948,-0.623845,-1.65118,
2026_07_06_20_49_35.823,3.862,31,0,0.759,0,0,0,0, ,0,0,0,0,0, ,991.2,10.9,32.8,-0.5,-0.7,-1.6,25,990.94,10.8544,31.6119,-0.478352,-0.625439,-1.64502,
2026_07_06_20_49_35.842,3.862,31.2,0,0.76,0,0,0,0, ,0,0,0,0,0, ,991.3,10.7,32.5,-0.4,-0.8,-1.4,25,990.959,10.8511,31.6752,-0.476625,-0.633029,-1.63618,
2026_07_06_20_49_35.862,3.862,31.1,0,0.76,0,0,0,0, ,0,0,0,0,0, ,990.8,10.1,31.3,-0.6,-1,-1.3,25,990.965,10.8236,31.6889,-0.478049,-0.649298,-1.61874,
2026_07_06_20_49_35.882,3.862,31.1,0,0.761,0,0,0,0, ,0,0,0,0,0, ,991.5,10.1,31.1,-0.7,-1.1,-1.1,25,990.976,10.7795,31.6591,-0.488527,-0.673715,-1.59322,
2026_07_06_20_49_35.901,3.862,31.1,0,0.761,0,0,0,0, ,0,0,0,0,0, ,991.5,8.5,31.6,-1.1,-1.3,-1,25,991.008,10.6894,31.6402,-0.513601,-0.705786,-1.56012,
2026_07_06_20_49_35.921,3.862,31.1,0,0.76,0,0,0,0, ,0,0,0,0,0, ,990.9,14.7,29.7,-1.4,-1.6,-1.1,25,991.02,10.7449,31.5799,-0.558476,-0.751136,-1.52904,
2026_07_06_20_49_35.941,3.862,31.1,0,0.76,0,0,0,0, ,0,0,0,0,0, ,993,5.8,20.7,-1.1,-2.5,0,25,991.076,10.7147,31.1911,-0.600615,-0.830286,-1.46938,
2026_07_06_20_49_35.961,3.862,31.2,0,0.761,0,0,0,0, ,0,0,0,0,0, ,990.8,0.9,33.8,-0.3,-2,0.2,25,991.127,10.2659,30.951,-0.606672,-0.9168,-1.37374,
2026_07_06_20_49_35.981,3.862,31.1,0,0.76,0,0,0,0, ,0,0,0,0,0, ,991.3,10.1,27.5,-0.5,-1.6,-0.7,25,991.122,9.97551,30.9326,-0.594078,-0.97062,-1.30526,
2026_07_06_20_49_36.001,3.862,31.1,0,0.761,0,0,0,0, ,0,0,0,0,0, ,992.1,7.2,29.2,-0.5,-1.3,-1.2,25,991.157,9.89473,30.7752,-0.588345,-0.999832,-1.28362,
2026_07_06_20_49_36.020,3.862,31.1,0,0.759,0,0,0,0, ,0,0,0,0,0, ,991.6,7.2,31.7,-0.6,-1.5,-1.2,25,991.199,9.73052,30.7554,-0.586008,-1.02422,-1.27852,
2026_07_06_20_49_36.041,3.862,31.2,0,0.76,0,0,0,0, ,0,0,0,0,0, ,992,14.2,24.5,-0.6,-1.8,-0.8,25,991.236,9.7896,30.5936,-0.586861,-1.06235,-1.26155,
2026_07_06_20_49_36.060,3.862,31.1,0,0.76,0,0,0,0, ,0,0,0,0,0, ,991.4,4.7,24,-0.6,-1.4,-1.2,25,991.264,9.76891,30.207,-0.587661,-1.09511,-1.24561,
2026_07_06_20_49_36.080,3.862,31.1,0,0.76,0,0,0,0, ,0,0,0,0,0, ,990.9,5.4,25,-0.5,-1.1,-1.5,25,991.257,9.48135,29.8593,-0.585366,-1.10455,-1.25197,
2026_07_06_20_49_36.100,3.862,31.1,0,0.76,0,0,0,0, ,0,0,0,0,0, ,990.4,6.7,22.9,-0.4,-0.2,-1.7,25,991.22,9.27225,29.4992,-0.577118,-1.07685,-1.27318,
2026_07_06_20_49_36.120,3.862,31.1,0,0.76,0,0,0,0, ,0,0,0,0,0, ,991.5,7.8,30.2,-0.3,-0.3,-1.8,25,991.204,9.14902,29.3195,-0.563278,-1.02647,-1.30224,
2026_07_06_20_49_36.139,3.862,31.1,0,0.761,0,0,0,0, ,0,0,0,0,0, ,990.1,6.7,32.2,-0.5,-0.8,-1.5,25,991.179,9.0333,29.4341,-0.553328,-0.997432,-1.32343,
2026_07_06_20_49_36.159,3.862,31,0,0.761,0,0,0,0, ,0,0,0,0,0, ,991.2,7.2,25.2,-0.5,-1.1,-1.6,25,991.147,8.90635,29.3893,-0.550078,-0.994542,-1.33723,
2026_07_06_20_49_36.183,3.862,31.1,0,0.761,0,0,0,0, ,0,0,0,0,0, ,990.4,3.9,23,-0.4,-0.6,-1.8,25,991.126,8.70182,29.067,-0.54398,-0.985734,-1.35934,
2026_07_06_20_49_36.198,3.862,31.1,0,0.761,0,0,0,0, ,0,0,0,0,0, ,991.6,5.4,24,-0.2,-0.1,-2.4,25,991.118,8.45491,28.7278,-0.529112,-0.946994,-1.40447,
2026_07_06_20_49_36.218,3.862,31.1,0,0.761,0,0,0,0, ,0,0,0,0,0, ,991.4,8.3,23.1,-0.1,0.7,-2.5,25,991.141,8.35711,28.4122,-0.50601,-0.871005,-1.46819,
2026_07_06_20_49_36.238,3.862,31.1,0,0.762,0,0,0,0, ,0,0,0,0,0, ,993,8.9,29.7,0,0.9,-2.1,25,991.206,8.37191,28.2896,-0.478222,-0.769178,-1.51887,
2026_07_06_20_49_36.258,3.862,31.1,0,0.761,0,0,0,0, ,0,0,0,0,0, ,991.6,7.9,36.2,0,0.1,-1.8,25,991.273,8.37362,28.5736,-0.44908,-0.691838,-1.54515,
2026_07_06_20_49_36.278,3.862,31.1,0,0.76,0,0,0,0, ,0,0,0,0,0, ,991.2,8.3,34.6,-0.4,-0.7,-1.6,25,991.28,8.35695,28.9896,-0.433902,-0.66796,-1.55458,
2026_07_06_20_49_36.297,3.862,31.1,0,0.759,0,0,0,0, ,0,0,0,0,0, ,990.1,6.3,29.7,-0.5,-1.2,-1.6,25,991.242,8.29254,29.1822,-0.434883,-0.685147,-1.55735,
2026_07_06_20_49_36.320,3.862,31.1,0,0.761,0,0,0,0, ,0,0,0,0,0, ,991.8,8.6,31.6,-0.5,-0.2,-1.7,25,991.224,8.2412,29.2716,-0.438851,-0.686052,-1.563,
2026_07_06_20_49_36.337,3.862,31.1,0,0.761,0,0,0,0, ,0,0,0,0,0, ,990.9,6.9,28.3,-0.3,0.1,-2,25,991.232,8.21127,29.313,-0.436484,-0.647292,-1.58049,
2026_07_06_20_49_36.357,3.862,31.1,0,0.76,0,0,0,0, ,0,0,0,0,0, ,989.5,8.9,28.3,-0.4,-0.3,-1.9,25,991.169,8.1923,29.2512,-0.431213,-0.613942,-1.603,
2026_07_06_20_49_36.376,3.862,31.1,0,0.759,0,0,0,0, ,0,0,0,0,0, ,991.9,9.3,29.4,-0.4,-0.4,-1.8,25,991.14,8.24761,29.2268,-0.429311,-0.597858,-1.61805,
2026_07_06_20_49_36.396,3.862,31,0,0.761,0,0,0,0, ,0,0,0,0,0, ,992,10.4,29.5,-0.5,-0.5,-1.7,25,991.19,8.34526,29.2404,-0.430572,-0.588848,-1.62609,
2026_07_06_20_49_36.416,3.862,31.1,0,0.761,0,0,0,0, ,0,0,0,0,0, ,991.5,8.7,28.9,-0.5,-0.3,-1.5,25,991.224,8.41867,29.2379,-0.434803,-0.57734,-1.6245,
2026_07_06_20_49_36.436,3.862,31.1,0,0.76,0,0,0,0, ,0,0,0,0,0, ,990.4,5.3,23.1,-0.5,-0.2,-1.6,25,991.207,8.33222,29.0406,-0.438776,-0.557393,-1.61996,
2026_07_06_20_49_36.458,3.862,31,0,0.761,0,0,0,0, ,0,0,0,0,0, ,990.9,4.7,27.8,-0.2,0.2,-2,25,991.173,8.12916,28.8218,-0.433366,-0.523426,-1.63094,
2026_07_06_20_49_36.476,3.862,31.1,0,0.758,0,0,0,0, ,0,0,0,0,0, ,991.5,9.2,33.5,0,0.6,-2.6,25,991.175,8.05731,28.9332,-0.413052,-0.467155,-1.67171,
2026_07_06_20_49_36.495,3.862,31.2,0,0.761,0,0,0,0, ,0,0,0,0,0, ,992,10.1,30,-0.3,0,-2.2,25,991.21,8.15436,29.1049,-0.397022,-0.420407,-1.71609,
2026_07_06_20_49_36.515,3.862,31,0,0.761,0,0,0,0, ,0,0,0,0,0, ,990.7,8.9,30.8,-0.3,-0.1,-1.9,25,991.218,8.23636,29.1838,-0.39111,-0.397835,-1.73643,
2026_07_06_20_49_36.534,3.862,31,0,0.76,0,0,0,0, ,0,0,0,0,0, ,991.4,6.2,30.1,-0.3,0,-1.9,25,991.208,8.19454,29.261,-0.385558,-0.376639,-1.7464,
2026_07_06_20_49_36.554,3.862,31.1,0,0.761,0,0,0,0, ,0,0,0,0,0, ,991.6,8.4,34,-0.4,-0.1,-2.2,25,991.226,8.14003,29.4309,-0.383391,-0.356734,-1.7649,
2026_07_06_20_49_36.574,3.862,31.1,0,0.76,0,0,0,0, ,0,0,0,0,0, ,992.4,16.2,22.7,-0.4,-0.2,-2.1,25,991.273,8.39353,29.365,-0.384403,-0.344136,-1.78837,
2026_07_06_20_49_36.596,3.862,31.1,0,0.76,0,0,0,0, ,0,0,0,0,0, ,992.1,7.2,26.8,-0.4,-0.3,-1.7,25,991.333,8.59501,29.0838,-0.385353,-0.3384,-1.79517,
2026_07_06_20_49_36.615,3.862,31.2,0,0.76,0,0,0,0, ,0,0,0,0,0, ,990.9,9.6,30.3,-0.4,0.1,-2.1,25,991.343,8.58313,29.0513,-0.386246,-0.323872,-1.80156,
2026_07_06_20_49_36.633,3.862,31.1,0,0.76,0,0,0,0, ,0,0,0,0,0, ,991,11.1,33.6,-0.4,-0.3,-2,25,991.319,8.6908,29.2279,-0.387084,-0.31023,-1.8167,
2026_07_06_20_49_36.654,3.862,31.1,0,0.76,0,0,0,0, ,0,0,0,0,0, ,989.8,11.9,33.4,-0.4,-0.5,-1.7,25,991.263,8.86198,29.4883,-0.387871,-0.315701,-1.81873,
2026_07_06_20_49_36.674,3.862,31.1,0,0.76,0,0,0,0, ,0,0,0,0,0, ,992.5,10.7,31.2,-0.3,-0.4,-1.8,25,991.256,9.01055,29.6596,-0.385563,-0.323884,-1.81454,
2026_07_06_20_49_36.694,3.862,31.2,0,0.761,0,0,0,0, ,0,0,0,0,0, ,992,9.2,29.1,-0.4,-0.4,-1.7,25,991.317,9.0678,29.6895,-0.383396,-0.328523,-1.81061,
2026_07_06_20_49_36.713,3.862,31.1,0,0.761,0,0,0,0, ,0,0,0,0,0, ,989.9,11.1,31.4,-0.4,-0.4,-1.8,25,991.294,9.13375,29.7236,-0.384408,-0.332878,-1.80691,
2026_07_06_20_49_36.733,3.862,31.1,0,0.762,0,0,0,0, ,0,0,0,0,0, ,990.8,10.2,33.4,-0.4,-0.7,-1.5,25,991.237,9.22614,29.8867,-0.385358,-0.346109,-1.79735,
2026_07_06_20_49_36.753,3.862,31.1,0,0.761,0,0,0,0, ,0,0,0,0,0, ,992.7,8,30,-0.4,-0.5,-1.4,25,991.268,9.21846,29.9972,-0.38625,-0.361581,-1.77619,
2026_07_06_20_49_36.773,3.862,31.1,0,0.761,0,0,0,0, ,0,0,0,0,0, ,990.9,8.7,32.2,-0.4,-0.5,-1.5,25,991.3,9.16553,30.0644,-0.387088,-0.370016,-1.75631,
2026_07_06_20_49_36.792,3.862,31.1,0,0.761,0,0,0,0, ,0,0,0,0,0, ,992.3,9.2,29.4,-0.5,-0.7,-1.8,25,991.319,9.1524,30.1092,-0.390922,-0.38403,-1.74983,
2026_07_06_20_49_36.812,3.862,31.1,0,0.761,0,0,0,0, ,0,0,0,0,0, ,989.6,9.1,41.3,-0.5,-1.2,-1.3,25,991.296,9.15225,30.4286,-0.397569,-0.418519,-1.73765,
2026_07_06_20_49_36.832,3.862,31.1,0,0.76,0,0,0,0, ,0,0,0,0,0, ,990.2,-26.6,4.7,16.5,-5,0.3,25,991.211,8.06134,29.9759,0.114158,-0.581922,-1.66223,
2026_07_06_20_49_36.852,3.862,31.1,0,0.76,0,0,0,0, ,0,0,0,0,0, ,988.8,7.8,61.1,0,-0.2,-1.5,25,991.107,6.99729,30.1541,0.609936,-0.704898,-1.5975,
2026_07_06_20_49_36.872,3.862,31.1,0,0.759,0,0,0,0, ,0,0,0,0,0, ,991,13.9,35.8,-0.4,-0.9,-0.4,25,991.033,7.23206,31.269,0.56058,-0.695459,-1.55805,
2026_07_06_20_49_36.891,3.862,31,0,0.76,0,0,0,0, ,0,0,0,0,0, ,991.8,2.8,22.7,-0.4,-1.3,-0.4,25,991.056,7.30018,31.146,0.502045,-0.720111,-1.48748,
2026_07_06_20_49_36.911,3.862,31.1,0,0.76,0,0,0,0, ,0,0,0,0,0, ,990.9,17.3,43.5,-5.9,-1.8,-0.6,25,991.074,7.46775,31.2651,0.279498,-0.770682,-1.4273,
2026_07_06_20_49_36.931,3.862,31.1,0,0.76,0,0,0,0, ,0,0,0,0,0, ,994,17.5,25.3,-8.2,-3.2,-0.3,25,991.157,8.073,31.4561,-0.167143,-0.876063,-1.36775,
2026_07_06_20_49_36.951,3.862,31,0,0.759,0,0,0,0, ,0,0,0,0,0, ,992.1,-17.9,37.1,28.5,-9,3,25,991.273,7.56886,31.4405,0.461558,-1.1944,-1.20214,
2026_07_06_20_49_36.971,3.862,31,0,0.76,0,0,0,0, ,0,0,0,0,0, ,993.1,20,39,-12.7,-5.7,0,25,991.354,7.17162,31.8433,0.914838,-1.5695,-1.03747,
2026_07_06_20_49_36.991,3.862,31.1,0,0.761,0,0,0,0, ,0,0,0,0,0, ,995.2,-8.5,-9,-5.5,-5.3,-1.6,25,991.524,7.08499,30.8169,0.304559,-1.80902,-1.023,
2026_07_06_20_49_37.011,3.862,31.1,0,0.76,0,0,0,0, ,0,0,0,0,0, ,992.1,1.9,-25.6,-3.5,0,-2.2,25,991.654,6.45215,27.8847,0.0117812,-1.86027,-1.07645,
2026_07_06_20_49_37.030,3.862,31.1,0,0.759,0,0,0,0, ,0,0,0,0,0, ,990.9,12,-3.9,-5.8,9.3,-2.6,25,991.644,6.48249,25.2867,-0.272296,-1.46355,-1.1571,
2026_07_06_20_49_37.050,3.862,31,0,0.761,0,0,0,0, ,0,0,0,0,0, ,989.2,3.6,67.5,-21.1,9.9,-12.3,25,991.547,6.56278,25.6836,-1.07531,-0.789361,-1.54057,
2026_07_06_20_49_37.070,3.862,31.1,0,0.761,0,0,0,0, ,0,0,0,0,0, ,991.3,75.8,62.8,11.7,1.4,-5,25,991.468,8.58208,28.0886,-1.29619,-0.396963,-1.9738,
2026_07_06_20_49_37.090,3.862,31.1,0,0.762,0,0,0,0, ,0,0,0,0,0, ,990.8,-43.5,57.4,15.9,-2.3,3.2,25,991.443,9.04325,30.0393,-0.376268,-0.400195,-1.90837,
2026_07_06_20_49_37.109,3.862,31.1,0,0.761,0,0,0,0, ,0,0,0,0,0, ,989.3,2.9,67.1,3.7,0.9,-3.4,25,991.358,7.25514,32.0021,0.243849,-0.418464,-1.79817,
2026_07_06_20_49_37.129,3.862,31.1,0,0.759,0,0,0,0, ,0,0,0,0,0, ,993.5,-24.4,-21.4,5.5,3.4,-4.4,25,991.36,6.15795,31.4444,0.509301,-0.261948,-1.92625,
2026_07_06_20_49_37.149,3.862,31.1,0,0.761,0,0,0,0, ,0,0,0,0,0, ,987,-4.2,-0.6,-20.3,-0.7,-1,25,991.293,4.9113,28.858,0.0273285,-0.16372,-1.9734,
2026_07_06_20_49_37.169,3.862,31.1,0,0.76,0,0,0,0, ,0,0,0,0,0, ,983.3,-23.4,88.2,-4,-3.3,2,25,990.918,3.77108,29.7685,-0.714727,-0.275619,-1.82268,
2026_07_06_20_49_37.189,3.862,31.1,0,0.76,0,0,0,0, ,0,0,0,0,0, ,1007.3,70.1,-58.1,2.4,4.9,1.3,25,991.185,4.96417,28.8716,-0.719924,-0.210073,-1.61106,
2026_07_06_20_49_37.208,3.862,31.1,0,0.759,0,0,0,0, ,0,0,0,0,0, ,989.1,-53.8,22.2,5.6,7.2,5.6,25,991.613,5.15831,26.0184,-0.432303,0.1714,-1.30265,
2026_07_06_20_49_37.228,3.862,31,0,0.759,0,0,0,0, ,0,0,0,0,0, ,976,-123.9,68.4,9.8,8.1,-14.3,25,991.061,-0.570325,27.1934,0.0632589,0.627127,-1.48835,
2026_07_06_20_49_37.248,3.862,31.1,0,0.759,0,0,0,0, ,0,0,0,0,0, ,991.9,127.5,71.8,-7.4,-0.6,-2.6,25,990.627,-0.425884,29.808,0.132529,0.817427,-1.91258,
2026_07_06_20_49_37.268,3.862,31.1,0,0.762,0,0,0,0, ,0,0,0,0,0, ,982.1,48.7,101.5,-36.7,-8.8,-0.5,25,990.406,4.96866,33.2718,-1.21922,0.481209,-1.89048,
2026_07_06_20_49_37.288,3.862,31.1,0,0.76,0,0,0,0, ,0,0,0,0,0, ,984.6,-10.6,-41.7,-4.5,-9.6,-12.3,25,989.976,5.82674,33.0663,-2.40024,-0.10874,-2.16528,
2026_07_06_20_49_37.307,3.862,31.1,0,0.759,0,0,0,0, ,0,0,0,0,0, ,996.3,2.9,43.4,-0.6,4.5,-9,25,990.005,5.23707,31.1031,-2.40936,-0.257504,-2.68232,
