UTC_Time,Vin,TC1,TC2,Rh1,Vh1,Ah1,Acp1,Dty1,Err1,Rh2,Vh2,Ah2,Acp2,Dty2,Err2,Accel_x,Accel_y,Accel_z,gyro_x,gyro_y,gyro_z,Temp_c,Accel_x_h,Accel_y_h,Accel_z_h,gyro_x_h,gyro_y_h,gyro_z_h,
2026_07_06_19_57_30.229,3.869,38.4,0,0.765,0,0,0,0, ,0,0,0,0,0, ,-38.3,381.4,922.8,-0.5,-0.6,-1.7,25,-38.3,381.4,922.8,-0.5,-0.6,-1.7,
2026_07_06_19_57_30.248,3.869,38.4,0,0.766,0,0,0,0, ,0,0,0,0,0, ,-38.8,379.7,922.9,-0.6,-0.5,-1.7,25,-38.3152,381.348,922.803,-0.503047,-0.596953,-1.7,
2026_07_06_19_57_30.268,3.869,38.3,0,0.765,0,0,0,0, ,0,0,0,0,0, ,-37.5,381.8,923.9,-0.6,-0.6,-1.8,25,-38.3052,381.312,922.839,-0.508955,-0.594092,-1.70305,
2026_07_06_19_57_30.288,3.869,38.3,0,0.767,0,0,0,0, ,0,0,0,0,0, ,-38.2,381.4,924.8,-0.6,-0.6,-1.7,25,-38.2774,381.329,922.931,-0.514503,-0.594452,-1.70591,
2026_07_06_19_57_30.308,3.869,38.3,0,0.765,0,0,0,0, ,0,0,0,0,0, ,-37.7,381.4,923.2,-0.7,-0.6,-1.8,25,-38.2575,381.334,922.997,-0.52276,-0.59479,-1.70859,
2026_07_06_19_57_30.327,3.869,38.3,0,0.765,0,0,0,0, ,0,0,0,0,0, ,-38.3,381.9,924.6,-0.6,-0.6,-1.8,25,-38.2418,381.353,923.052,-0.530514,-0.595108,-1.71416,
2026_07_06_19_57_30.347,3.869,38.3,0,0.765,0,0,0,0, ,0,0,0,0,0, ,-37.9,380.3,923.4,-0.6,-0.5,-1.8,25,-38.2331,381.337,923.109,-0.534748,-0.592359,-1.7194,
2026_07_06_19_57_30.367,3.869,38.2,0,0.766,0,0,0,0, ,0,0,0,0,0, ,-38,381.1,923.8,-0.6,-0.5,-1.7,25,-38.2159,381.299,923.139,-0.538724,-0.586731,-1.72126,
2026_07_06_19_57_30.393,3.869,38.3,0,0.765,0,0,0,0, ,0,0,0,0,0, ,-37.7,382.5,925.2,-0.6,-0.5,-1.7,25,-38.1936,381.329,923.222,-0.542458,-0.581446,-1.71996,
2026_07_06_19_57_30.406,3.869,38.3,0,0.765,0,0,0,0, ,0,0,0,0,0, ,-38.9,382.4,923.5,-0.6,-0.5,-1.8,25,-38.2001,381.397,923.291,-0.545965,-0.576482,-1.7218,
2026_07_06_19_57_30.426,3.869,38.3,0,0.765,0,0,0,0, ,0,0,0,0,0, ,-37.4,382,923.8,-0.6,-0.6,-1.8,25,-38.197,381.446,923.313,-0.549257,-0.574869,-1.72656,
2026_07_06_19_57_30.445,3.869,38.3,0,0.766,0,0,0,0, ,0,0,0,0,0, ,-36.8,381.3,923.8,-0.5,-0.5,-1.8,25,-38.1302,381.459,923.343,-0.549303,-0.573353,-1.73104,
2026_07_06_19_57_30.466,3.869,38.3,0,0.766,0,0,0,0, ,0,0,0,0,0, ,-39.1,382.8,924,-0.6,-0.5,-1.7,25,-38.1192,381.495,923.376,-0.549345,-0.568883,-1.73219,
2026_07_06_19_57_30.486,3.869,38.3,0,0.766,0,0,0,0, ,0,0,0,0,0, ,-38.3,382,923.8,-0.6,-0.7,-1.8,25,-38.1546,381.55,923.408,-0.552432,-0.570779,-1.73328,
2026_07_06_19_57_30.505,3.869,38.3,0,0.765,0,0,0,0, ,0,0,0,0,0, ,-38.6,382.4,923.7,-0.5,-0.6,-1.7,25,-38.1726,381.59,923.429,-0.552284,-0.575607,-1.7343,
2026_07_06_19_57_30.527,3.869,38.3,0,0.765,0,0,0,0, ,0,0,0,0,0, ,-38.6,382.4,923.8,-0.5,-0.6,-1.7,25,-38.1986,381.639,923.449,-0.549098,-0.577093,-1.73221,
2026_07_06_19_57_30.545,3.869,38.3,0,0.766,0,0,0,0, ,0,0,0,0,0, ,-37.9,381.7,923.9,-0.6,-0.6,-1.8,25,-38.2018,381.664,923.473,-0.549153,-0.578489,-1.73329,
2026_07_06_19_57_30.565,3.869,38.3,0,0.766,0,0,0,0, ,0,0,0,0,0, ,-39.3,383.3,924.5,-0.6,-0.6,-1.8,25,-38.226,381.715,923.517,-0.552251,-0.5798,-1.73736,
2026_07_06_19_57_30.585,3.869,38.3,0,0.766,0,0,0,0, ,0,0,0,0,0, ,-37.8,380.8,922.7,-0.6,-0.6,-1.8,25,-38.2458,381.735,923.523,-0.555161,-0.581031,-1.74117,
2026_07_06_19_57_30.604,3.869,38.3,0,0.764,0,0,0,0, ,0,0,0,0,0, ,-37.5,381.3,924,-0.6,-0.5,-1.7,25,-38.2095,381.694,923.512,-0.557893,-0.57914,-1.74171,
2026_07_06_19_57_30.624,3.869,38.3,0,0.765,0,0,0,0, ,0,0,0,0,0, ,-37.7,381.2,923.2,-0.6,-0.6,-1.7,25,-38.1723,381.667,923.517,-0.560459,-0.577364,-1.73917,
2026_07_06_19_57_30.644,3.869,38.3,0,0.765,0,0,0,0, ,0,0,0,0,0, ,-38.3,381.5,923.3,-0.5,-0.6,-1.8,25,-38.1618,381.647,923.501,-0.559822,-0.578744,-1.73983,
2026_07_06_19_57_30.664,3.869,38.2,0,0.765,0,0,0,0, ,0,0,0,0,0, ,-38,381.9,923.8,-0.5,-0.6,-1.8,25,-38.1611,381.651,923.504,-0.556176,-0.580039,-1.7435,
2026_07_06_19_57_30.684,3.869,38.2,0,0.766,0,0,0,0, ,0,0,0,0,0, ,-38.2,381.1,924,-0.6,-0.6,-1.8,25,-38.1574,381.641,923.528,-0.5558,-0.581255,-1.74694,
2026_07_06_19_57_30.704,3.869,38.3,0,0.765,0,0,0,0, ,0,0,0,0,0, ,-37.3,382.8,923.9,-0.5,-0.6,-1.7,25,-38.1326,381.66,923.554,-0.555447,-0.582398,-1.74713,
2026_07_06_19_57_30.723,3.869,38.3,0,0.766,0,0,0,0, ,0,0,0,0,0, ,-39.3,382.5,923.5,-0.6,-0.6,-1.8,25,-38.1428,381.72,923.563,-0.555115,-0.58347,-1.7473,
2026_07_06_19_57_30.743,3.869,38.3,0,0.765,0,0,0,0, ,0,0,0,0,0, ,-39.1,381.7,924.1,-0.5,-0.6,-1.8,25,-38.2072,381.744,923.577,-0.554803,-0.584478,-1.75051,
2026_07_06_19_57_30.763,3.869,38.3,0,0.766,0,0,0,0, ,0,0,0,0,0, ,-38.5,381.1,922.4,-0.6,-0.6,-1.8,25,-38.2433,381.723,923.557,-0.55451,-0.585423,-1.75353,
2026_07_06_19_57_30.783,3.869,38.3,0,0.765,0,0,0,0, ,0,0,0,0,0, ,-37.3,380.4,924.1,-0.6,-0.6,-1.8,25,-38.2224,381.663,923.539,-0.557282,-0.586312,-1.75636,
2026_07_06_19_57_30.804,3.869,38.4,0,0.766,0,0,0,0, ,0,0,0,0,0, ,-38.3,382,924.9,-0.6,-0.6,-1.8,25,-38.1967,381.635,923.597,-0.559885,-0.587146,-1.75902,
2026_07_06_19_57_30.823,3.869,38.4,0,0.765,0,0,0,0, ,0,0,0,0,0, ,-38.9,381.3,923.2,-0.5,-0.6,-1.8,25,-38.2212,381.636,923.625,-0.559283,-0.587929,-1.76152,
2026_07_06_19_57_30.842,3.869,38.3,0,0.766,0,0,0,0, ,0,0,0,0,0, ,-37.8,381.3,923.3,-0.6,-0.5,-1.8,25,-38.2291,381.616,923.602,-0.558717,-0.585618,-1.76386,
2026_07_06_19_57_30.862,3.869,38.2,0,0.765,0,0,0,0, ,0,0,0,0,0, ,-38.4,381.2,924.4,-0.6,-0.6,-1.7,25,-38.2212,381.593,923.617,-0.561233,-0.583447,-1.76302,
2026_07_06_19_57_30.881,3.869,38.3,0,0.765,0,0,0,0, ,0,0,0,0,0, ,-38.4,381.5,923.4,-0.5,-0.5,-1.7,25,-38.2321,381.578,923.634,-0.560549,-0.581409,-1.75918,
2026_07_06_19_57_30.902,3.869,38.3,0,0.766,0,0,0,0, ,0,0,0,0,0, ,-38.8,382.3,923.5,-0.6,-0.6,-1.7,25,-38.2545,381.598,923.623,-0.559906,-0.579495,-1.75557,
2026_07_06_19_57_30.921,3.869,38.3,0,0.767,0,0,0,0, ,0,0,0,0,0, ,-38.8,381.2,923.2,-0.6,-0.6,-1.7,25,-38.2878,381.607,923.606,-0.562349,-0.580745,-1.75218,
2026_07_06_19_57_30.943,3.869,38.3,0,0.765,0,0,0,0, ,0,0,0,0,0, ,-37.9,382.4,923.7,-0.6,-0.6,-1.7,25,-38.2916,381.619,923.597,-0.564643,-0.581918,-1.749,
2026_07_06_19_57_30.961,3.869,38.3,0,0.765,0,0,0,0, ,0,0,0,0,0, ,-38.3,382.5,923.8,-0.6,-0.5,-1.8,25,-38.2799,381.67,923.606,-0.566798,-0.579973,-1.74906,
2026_07_06_19_57_30.981,3.869,38.4,0,0.765,0,0,0,0, ,0,0,0,0,0, ,-38,381.1,922.1,-0.5,-0.6,-1.8,25,-38.272,381.678,923.566,-0.565774,-0.578147,-1.75217,
2026_07_06_19_57_31.002,3.869,38.3,0,0.767,0,0,0,0, ,0,0,0,0,0, ,-38.3,381.8,923.9,-0.5,-0.5,-1.7,25,-38.2645,381.664,923.532,-0.561766,-0.576431,-1.75204,
2026_07_06_19_57_31.021,3.869,38.3,0,0.766,0,0,0,0, ,0,0,0,0,0, ,-38.6,382.9,924,-0.5,-0.5,-1.7,25,-38.2758,381.706,923.557,-0.558002,-0.571774,-1.74887,
2026_07_06_19_57_31.039,3.869,38.3,0,0.765,0,0,0,0, ,0,0,0,0,0, ,-38.4,380.8,924.9,-0.6,-0.5,-1.8,25,-38.2895,381.714,923.612,-0.557515,-0.5674,-1.74893,
2026_07_06_19_57_31.060,3.869,38.3,0,0.764,0,0,0,0, ,0,0,0,0,0, ,-39.4,381.4,924.4,-0.6,-0.6,-1.7,25,-38.3267,381.677,923.675,-0.560104,-0.56634,-1.749,
2026_07_06_19_57_31.079,3.869,38.3,0,0.765,0,0,0,0, ,0,0,0,0,0, ,-36.8,382,923.4,-0.6,-0.6,-1.8,25,-38.3129,381.678,923.689,-0.562535,-0.568391,-1.74906,
2026_07_06_19_57_31.100,3.869,38.2,0,0.765,0,0,0,0, ,0,0,0,0,0, ,-38.3,381.2,923.5,-0.6,-0.6,-1.8,25,-38.2664,381.674,923.674,-0.564818,-0.570317,-1.75216,
2026_07_06_19_57_31.119,3.869,38.2,0,0.767,0,0,0,0, ,0,0,0,0,0, ,-37.8,382,923.4,-0.6,-0.5,-1.7,25,-38.2532,381.669,923.66,-0.566962,-0.569079,-1.75203,
2026_07_06_19_57_31.139,3.869,38.3,0,0.765,0,0,0,0, ,0,0,0,0,0, ,-38.2,382.2,923.4,-0.6,-0.5,-1.8,25,-38.2378,381.695,923.645,-0.568975,-0.56487,-1.75191,
2026_07_06_19_57_31.159,3.869,38.3,0,0.765,0,0,0,0, ,0,0,0,0,0, ,-37.9,381.7,923.7,-0.5,-0.5,-1.7,25,-38.2263,381.711,923.639,-0.567819,-0.560917,-1.75179,
2026_07_06_19_57_31.179,3.869,38.3,0,0.765,0,0,0,0, ,0,0,0,0,0, ,-38.8,381.7,924,-0.5,-0.5,-1.8,25,-38.2339,381.71,923.652,-0.563686,-0.557204,-1.75168,
2026_07_06_19_57_31.199,3.869,38.2,0,0.765,0,0,0,0, ,0,0,0,0,0, ,-38.3,381.1,924.1,-0.5,-0.6,-1.7,25,-38.2531,381.691,923.676,-0.559805,-0.556765,-1.75158,
2026_07_06_19_57_31.219,3.869,38.3,0,0.766,0,0,0,0, ,0,0,0,0,0, ,-38.9,381.1,922.4,-0.6,-0.5,-1.8,25,-38.2743,381.655,923.65,-0.559208,-0.556353,-1.75148,
2026_07_06_19_57_31.238,3.869,38.3,0,0.765,0,0,0,0, ,0,0,0,0,0, ,-39.1,381.8,924.1,-0.5,-0.6,-1.7,25,-38.3185,381.643,923.626,-0.558647,-0.555966,-1.75139,
2026_07_06_19_57_31.258,3.869,38.3,0,0.765,0,0,0,0, ,0,0,0,0,0, ,-38,381.2,923.8,-0.6,-0.6,-1.8,25,-38.3326,381.634,923.645,-0.55812,-0.558649,-1.75131,
2026_07_06_19_57_31.278,3.869,38.3,0,0.765,0,0,0,0, ,0,0,0,0,0, ,-39,382,923.7,-0.6,-0.5,-1.8,25,-38.3428,381.632,923.652,-0.560672,-0.558122,-1.75428,
2026_07_06_19_57_31.297,3.869,38.3,0,0.765,0,0,0,0, ,0,0,0,0,0, ,-39.5,381.4,923.2,-0.6,-0.6,-1.8,25,-38.3981,381.636,923.639,-0.563068,-0.557627,-1.75706,
2026_07_06_19_57_31.318,3.869,38.3,0,0.766,0,0,0,0, ,0,0,0,0,0, ,-38.3,383,924.4,-0.6,-0.5,-1.8,25,-38.4287,381.67,923.649,-0.565319,-0.557163,-1.75968,
2026_07_06_19_57_31.337,3.869,38.3,0,0.766,0,0,0,0, ,0,0,0,0,0, ,-38.9,381.4,924.4,-0.5,-0.5,-1.7,25,-38.4391,381.703,923.695,-0.564385,-0.553679,-1.75909,
2026_07_06_19_57_31.357,3.869,38.3,0,0.765,0,0,0,0, ,0,0,0,0,0, ,-38,382.3,924.3,-0.6,-0.5,-1.8,25,-38.4398,381.712,923.735,-0.563509,-0.550408,-1.75854,
2026_07_06_19_57_31.377,3.869,38.3,0,0.764,0,0,0,0, ,0,0,0,0,0, ,-38,381.3,922.9,-0.6,-0.6,-1.8,25,-38.413,381.717,923.727,-0.565732,-0.550383,-1.76106,
2026_07_06_19_57_31.396,3.869,38.3,0,0.766,0,0,0,0, ,0,0,0,0,0, ,-39.4,381.4,923.9,-0.5,-0.5,-1.7,25,-38.4305,381.695,923.707,-0.564774,-0.55036,-1.76039,
2026_07_06_19_57_31.416,3.869,38.3,0,0.765,0,0,0,0, ,0,0,0,0,0, ,-38.2,382.2,924.3,-0.5,-0.6,-1.8,25,-38.453,381.701,923.731,-0.560827,-0.550338,-1.75975,
2026_07_06_19_57_31.436,3.869,38.3,0,0.765,0,0,0,0, ,0,0,0,0,0, ,-38,381.1,923.8,-0.5,-0.6,-1.8,25,-38.4315,381.698,923.75,-0.55712,-0.553364,-1.76221,
2026_07_06_19_57_31.456,3.869,38.3,0,0.765,0,0,0,0, ,0,0,0,0,0, ,-39,382.2,923.7,-0.5,-0.5,-1.8,25,-38.4357,381.695,923.75,-0.553639,-0.553159,-1.76451,
2026_07_06_19_57_31.476,3.869,38.3,0,0.766,0,0,0,0, ,0,0,0,0,0, ,-38.9,381.9,924.3,-0.6,-0.6,-1.8,25,-38.467,381.717,923.765,-0.553417,-0.552967,-1.76667,
2026_07_06_19_57_31.496,3.869,38.3,0,0.766,0,0,0,0, ,0,0,0,0,0, ,-38.4,381.3,922.8,-0.5,-0.6,-1.8,25,-38.4781,381.71,923.752,-0.553209,-0.555833,-1.7687,
2026_07_06_19_57_31.517,3.869,38.3,0,0.764,0,0,0,0, ,0,0,0,0,0, ,-37.4,381.3,925,-0.6,-0.6,-1.8,25,-38.4429,381.685,923.761,-0.553014,-0.558524,-1.77061,
2026_07_06_19_57_31.536,3.869,38.3,0,0.765,0,0,0,0, ,0,0,0,0,0, ,-38.4,381.8,923.8,-0.6,-0.6,-1.7,25,-38.4098,381.676,923.8,-0.555877,-0.561052,-1.76935,
2026_07_06_19_57_31.555,3.869,38.3,0,0.765,0,0,0,0, ,0,0,0,0,0, ,-37.8,380.4,924.8,-0.6,-0.6,-1.8,25,-38.391,381.641,923.831,-0.558566,-0.563425,-1.76818,
2026_07_06_19_57_31.575,3.869,38.3,0,0.764,0,0,0,0, ,0,0,0,0,0, ,-38,381.1,924.5,-0.6,-0.5,-1.8,25,-38.361,381.587,923.881,-0.561091,-0.562607,-1.77011,
2026_07_06_19_57_31.595,3.869,38.3,0,0.766,0,0,0,0, ,0,0,0,0,0, ,-40,381.3,925,-0.5,-0.6,-1.7,25,-38.4,381.563,923.934,-0.560415,-0.561839,-1.76889,
2026_07_06_19_57_31.614,3.869,38.3,0,0.766,0,0,0,0, ,0,0,0,0,0, ,-38.6,381.7,924.1,-0.6,-0.6,-1.8,25,-38.4548,381.56,923.971,-0.55978,-0.564164,-1.76774,
2026_07_06_19_57_31.634,3.869,38.3,0,0.767,0,0,0,0, ,0,0,0,0,0, ,-38.2,381.1,924.9,-0.6,-0.6,-1.8,25,-38.4515,381.55,924.003,-0.562231,-0.566348,-1.7697,
2026_07_06_19_57_31.654,3.869,38.3,0,0.765,0,0,0,0, ,0,0,0,0,0, ,-37.5,380.6,923.8,-0.6,-0.6,-1.7,25,-38.4148,381.507,924.024,-0.564533,-0.568399,-1.7685,
2026_07_06_19_57_31.673,3.869,38.3,0,0.765,0,0,0,0, ,0,0,0,0,0, ,-38.5,382.5,923.2,-0.6,-0.6,-1.7,25,-38.3895,381.51,923.993,-0.566694,-0.570324,-1.76433,
2026_07_06_19_57_31.693,3.869,38.3,0,0.765,0,0,0,0, ,0,0,0,0,0, ,-37.7,380.9,923.3,-0.6,-0.6,-1.7,25,-38.3719,381.521,923.947,-0.568723,-0.572133,-1.76041,
2026_07_06_19_57_31.713,3.869,38.2,0,0.765,0,0,0,0, ,0,0,0,0,0, ,-38.9,380.8,923.2,-0.6,-0.6,-1.8,25,-38.3675,381.48,923.905,-0.570629,-0.573831,-1.75977,
2026_07_06_19_57_31.733,3.869,38.2,0,0.765,0,0,0,0, ,0,0,0,0,0, ,-38.6,381.3,922.9,-0.6,-0.6,-1.8,25,-38.3908,381.454,923.853,-0.572419,-0.575426,-1.76223,
2026_07_06_19_57_31.753,3.869,38.2,0,0.765,0,0,0,0, ,0,0,0,0,0, ,-38.2,382.2,924.1,-0.5,-0.6,-1.8,25,-38.3914,381.472,923.831,-0.571053,-0.576923,-1.76453,
2026_07_06_19_57_31.773,3.869,38.3,0,0.766,0,0,0,0, ,0,0,0,0,0, ,-38.5,380.9,923.3,-0.6,-0.6,-1.7,25,-38.3889,381.477,923.823,-0.56977,-0.578329,-1.76364,
2026_07_06_19_57_31.793,3.869,38.3,0,0.765,0,0,0,0, ,0,0,0,0,0, ,-38.3,382.5,923.9,-0.6,-0.5,-1.7,25,-38.3895,381.491,923.81,-0.571612,-0.576603,-1.75976,
2026_07_06_19_57_31.813,3.869,38.3,0,0.767,0,0,0,0, ,0,0,0,0,0, ,-38.4,381.7,923.3,-0.5,-0.6,-1.8,25,-38.3871,381.528,923.797,-0.570295,-0.574982,-1.75917,
2026_07_06_19_57_31.832,3.869,38.3,0,0.766,0,0,0,0, ,0,0,0,0,0, ,-38,382.8,924.3,-0.6,-0.7,-1.8,25,-38.3757,381.572,923.797,-0.569058,-0.579553,-1.76166,
2026_07_06_19_57_31.852,3.869,38.3,0,0.766,0,0,0,0, ,0,0,0,0,0, ,-37.9,380.9,924.5,-0.5,-0.6,-1.8,25,-38.3498,381.589,923.834,-0.567897,-0.583846,-1.76399,
2026_07_06_19_57_31.872,3.869,38.2,0,0.766,0,0,0,0, ,0,0,0,0,0, ,-38.8,382.3,923.8,-0.6,-0.6,-1.8,25,-38.3498,381.589,923.853,-0.566806,-0.584831,-1.76619,
2026_07_06_19_57_31.891,3.869,38.3,0,0.765,0,0,0,0, ,0,0,0,0,0, ,-39.7,381.2,924.3,-0.5,-0.5,-1.8,25,-38.4047,381.599,923.865,-0.565782,-0.582708,-1.76825,
2026_07_06_19_57_31.911,3.869,38.3,0,0.766,0,0,0,0, ,0,0,0,0,0, ,-37.2,380.9,924.1,-0.6,-0.6,-1.8,25,-38.4074,381.566,923.885,-0.564821,-0.580715,-1.77018,
2026_07_06_19_57_31.931,3.869,38.2,0,0.766,0,0,0,0, ,0,0,0,0,0, ,-38.6,380.9,923.7,-0.6,-0.5,-1.8,25,-38.3765,381.525,923.886,-0.566964,-0.578843,-1.772,
2026_07_06_19_57_31.951,3.869,38.2,0,0.765,0,0,0,0, ,0,0,0,0,0, ,-38.9,381.4,924.9,-0.6,-0.6,-1.8,25,-38.3993,381.502,923.912,-0.568977,-0.577086,-1.77371,
2026_07_06_19_57_31.972,3.869,38.3,0,0.766,0,0,0,0, ,0,0,0,0,0, ,-38,381.3,923.5,-0.6,-0.6,-1.8,25,-38.4024,381.493,923.929,-0.570868,-0.578482,-1.77531,
2026_07_06_19_57_31.990,3.869,38.3,0,0.765,0,0,0,0, ,0,0,0,0,0, ,-38.5,382,922.9,-0.5,-0.5,-1.9,25,-38.3931,381.503,923.885,-0.569596,-0.576746,-1.77986,
2026_07_06_19_57_32.010,3.869,38.3,0,0.764,0,0,0,0, ,0,0,0,0,0, ,-38.4,382.2,923.5,-0.5,-0.6,-1.8,25,-38.3965,381.539,923.843,-0.565355,-0.575116,-1.78413,
2026_07_06_19_57_32.030,3.869,38.3,0,0.765,0,0,0,0, ,0,0,0,0,0, ,-37.8,381.9,923.5,-0.6,-0.5,-1.8,25,-38.3785,381.57,923.822,-0.56442,-0.573586,-1.7851,
2026_07_06_19_57_32.050,3.869,38.3,0,0.765,0,0,0,0, ,0,0,0,0,0, ,-37.5,381.3,924.6,-0.5,-0.5,-1.8,25,-38.3341,381.572,923.836,-0.563541,-0.569102,-1.78601,
2026_07_06_19_57_32.070,3.869,38.2,0,0.765,0,0,0,0, ,0,0,0,0,0, ,-38.4,381.9,923.8,-0.6,-0.5,-1.7,25,-38.3107,381.574,923.858,-0.562716,-0.564891,-1.78381,
2026_07_06_19_57_32.090,3.869,38.2,0,0.766,0,0,0,0, ,0,0,0,0,0, ,-39.4,382.5,922.9,-0.5,-0.6,-1.7,25,-38.3466,381.612,923.827,-0.561941,-0.563983,-1.77871,
2026_07_06_19_57_32.110,3.869,38.3,0,0.765,0,0,0,0, ,0,0,0,0,0, ,-37.4,381.9,923.9,-0.7,-0.6,-1.8,25,-38.3498,381.648,923.801,-0.56426,-0.566178,-1.77696,
2026_07_06_19_57_32.130,3.869,38.3,0,0.766,0,0,0,0, ,0,0,0,0,0, ,-38,381.9,923.4,-0.6,-0.6,-1.8,25,-38.3102,381.663,923.792,-0.569485,-0.568239,-1.77836,
2026_07_06_19_57_32.150,3.869,38.3,0,0.765,0,0,0,0, ,0,0,0,0,0, ,-38.5,380.9,923.3,-0.6,-0.6,-1.7,25,-38.3066,381.647,923.765,-0.571344,-0.570175,-1.77663,
2026_07_06_19_57_32.170,3.869,38.3,0,0.765,0,0,0,0, ,0,0,0,0,0, ,-37.8,381.2,923.5,-0.6,-0.6,-1.8,25,-38.297,381.611,923.743,-0.573091,-0.571992,-1.77501,
2026_07_06_19_57_32.189,3.869,38.3,0,0.765,0,0,0,0, ,0,0,0,0,0, ,-37.5,381.9,923,-0.6,-0.7,-1.7,25,-38.2576,381.607,923.713,-0.57473,-0.576746,-1.77349,
2026_07_06_19_57_32.208,3.869,38.2,0,0.765,0,0,0,0, ,0,0,0,0,0, ,-38.5,382,925.2,-0.6,-0.6,-1.7,25,-38.2419,381.628,923.736,-0.57627,-0.58121,-1.76901,
2026_07_06_19_57_32.229,3.869,38.2,0,0.766,0,0,0,0, ,0,0,0,0,0, ,-38.4,381.9,923.4,-0.6,-0.5,-1.7,25,-38.2546,381.647,923.771,-0.577716,-0.579308,-1.7648,
2026_07_06_19_57_32.249,3.869,38.3,0,0.765,0,0,0,0, ,0,0,0,0,0, ,-38.5,381.8,923.7,-0.5,-0.5,-1.7,25,-38.2665,381.66,923.757,-0.576027,-0.574475,-1.76085,
2026_07_06_19_57_32.268,3.869,38.3,0,0.765,0,0,0,0, ,0,0,0,0,0, ,-38.4,381.2,922.9,-0.6,-0.5,-1.7,25,-38.2777,381.65,923.729,-0.574441,-0.569937,-1.75715,
2026_07_06_19_57_32.288,3.869,38.2,0,0.766,0,0,0,0, ,0,0,0,0,0, ,-38.8,381.2,923,-0.6,-0.6,-1.8,25,-38.2973,381.623,923.682,-0.575999,-0.568722,-1.75671,
2026_07_06_19_57_32.310,3.869,38.2,0,0.765,0,0,0,0, ,0,0,0,0,0, ,-39.7,382.9,924.6,-0.5,-0.6,-1.8,25,-38.3554,381.649,923.689,-0.574414,-0.570628,-1.75935,
2026_07_06_19_57_32.328,3.869,38.3,0,0.765,0,0,0,0, ,0,0,0,0,0, ,-38,382.3,924.3,-0.6,-0.5,-1.7,25,-38.3855,381.707,923.735,-0.572927,-0.569371,-1.75878,
2026_07_06_19_57_32.347,3.869,38.2,0,0.765,0,0,0,0, ,0,0,0,0,0, ,-37.7,381.7,922.4,-0.6,-0.7,-1.7,25,-38.3529,381.725,923.712,-0.574576,-0.571237,-1.7552,
2026_07_06_19_57_32.367,3.869,38.2,0,0.765,0,0,0,0, ,0,0,0,0,0, ,-37.3,381.3,924.6,-0.6,-0.6,-1.8,25,-38.3009,381.711,923.699,-0.576126,-0.576037,-1.75488,
2026_07_06_19_57_32.387,3.869,38.2,0,0.765,0,0,0,0, ,0,0,0,0,0, ,-37.4,381.3,923,-0.6,-0.6,-1.7,25,-38.243,381.686,923.705,-0.577581,-0.577497,-1.75458,
2026_07_06_19_57_32.407,3.869,38.2,0,0.766,0,0,0,0, ,0,0,0,0,0, ,-39,381.2,924.3,-0.6,-0.6,-1.7,25,-38.2403,381.659,923.702,-0.578947,-0.578868,-1.75126,
2026_07_06_19_57_32.426,3.869,38.3,0,0.765,0,0,0,0, ,0,0,0,0,0, ,-37.9,382.4,923.4,-0.6,-0.6,-1.8,25,-38.2531,381.668,923.711,-0.58023,-0.580156,-1.75118,
2026_07_06_19_57_32.446,3.869,38.3,0,0.765,0,0,0,0, ,0,0,0,0,0, ,-38.3,381.9,923.3,-0.6,-0.6,-1.8,25,-38.2438,381.697,923.689,-0.581434,-0.581365,-1.75416,
2026_07_06_19_57_32.466,3.869,38.3,0,0.766,0,0,0,0, ,0,0,0,0,0, ,-37.7,381.8,923,-0.5,-0.6,-1.7,25,-38.2289,381.707,923.656,-0.579519,-0.582501,-1.7539,
2026_07_06_19_57_32.486,3.869,38.3,0,0.766,0,0,0,0, ,0,0,0,0,0, ,-38.6,381.8,924.5,-0.5,-0.6,-1.8,25,-38.2241,381.712,923.662,-0.574673,-0.583567,-1.75366,
2026_07_06_19_57_32.506,3.869,38.3,0,0.766,0,0,0,0, ,0,0,0,0,0, ,-37.8,381.5,924.4,-0.5,-0.6,-1.8,25,-38.2227,381.708,923.71,-0.570123,-0.584569,-1.75649,
2026_07_06_19_57_32.526,3.869,38.3,0,0.766,0,0,0,0, ,0,0,0,0,0, ,-38.5,381.2,923.2,-0.5,-0.6,-1.8,25,-38.2182,381.687,923.715,-0.56585,-0.585509,-1.75914,
2026_07_06_19_57_32.545,3.869,38.2,0,0.766,0,0,0,0, ,0,0,0,0,0, ,-38.2,382.5,923.9,-0.5,-0.6,-1.8,25,-38.2263,381.697,923.705,-0.561837,-0.586392,-1.76163,
2026_07_06_19_57_32.565,3.869,38.3,0,0.766,0,0,0,0, ,0,0,0,0,0, ,-37.8,381.4,923.4,-0.6,-0.6,-1.8,25,-38.2125,381.712,923.702,-0.561116,-0.587221,-1.76397,
2026_07_06_19_57_32.585,3.869,38.2,0,0.766,0,0,0,0, ,0,0,0,0,0, ,-37.8,382.9,924,-0.6,-0.6,-1.7,25,-38.1873,381.739,923.702,-0.563485,-0.588,-1.76312,
2026_07_06_19_57_32.604,3.869,38.3,0,0.766,0,0,0,0, ,0,0,0,0,0, ,-38.3,381.2,924.3,-0.6,-0.6,-1.7,25,-38.179,381.758,923.729,-0.56571,-0.588731,-1.75927,
2026_07_06_19_57_32.624,3.869,38.2,0,0.765,0,0,0,0, ,0,0,0,0,0, ,-39.4,382.3,924,-0.6,-0.6,-1.8,25,-38.2199,381.757,923.755,-0.5678,-0.589418,-1.75871,
2026_07_06_19_57_32.644,3.869,38.2,0,0.765,0,0,0,0, ,0,0,0,0,0, ,-38.8,381.3,922.3,-0.6,-0.6,-1.8,25,-38.2735,381.76,923.718,-0.569762,-0.590063,-1.76122,
2026_07_06_19_57_32.664,3.869,38.2,0,0.765,0,0,0,0, ,0,0,0,0,0, ,-38.2,381.2,924,-0.6,-0.6,-1.8,25,-38.2873,381.729,923.683,-0.571605,-0.590668,-1.76358,
2026_07_06_19_57_32.684,3.869,38.3,0,0.766,0,0,0,0, ,0,0,0,0,0, ,-38.2,381.5,924.4,-0.6,-0.5,-1.8,25,-38.282,381.706,923.715,-0.573335,-0.58819,-1.7658,
2026_07_06_19_57_32.703,3.869,38.3,0,0.766,0,0,0,0, ,0,0,0,0,0, ,-38.3,381.2,922.3,-0.6,-0.6,-1.8,25,-38.28,381.684,923.693,-0.57496,-0.585863,-1.76789,
2026_07_06_19_57_32.724,3.869,38.3,0,0.765,0,0,0,0, ,0,0,0,0,0, ,-38.8,381.5,922.6,-0.5,-0.5,-1.7,25,-38.2965,381.664,923.617,-0.573439,-0.583677,-1.7668,
2026_07_06_19_57_32.743,3.869,38.3,0,0.766,0,0,0,0, ,0,0,0,0,0, ,-37.8,381.9,922.6,-0.6,-0.6,-1.7,25,-38.2967,381.666,923.555,-0.572011,-0.581625,-1.76273,
2026_07_06_19_57_32.763,3.869,38.2,0,0.765,0,0,0,0, ,0,0,0,0,0, ,-38.2,382.2,923,-0.6,-0.6,-1.7,25,-38.2786,381.689,923.509,-0.573716,-0.582745,-1.7589,
2026_07_06_19_57_32.783,3.869,38.2,0,0.765,0,0,0,0, ,0,0,0,0,0, ,-38.3,382.4,922.7,-0.6,-0.6,-1.7,25,-38.2769,381.726,923.469,-0.575318,-0.583796,-1.75532,
2026_07_06_19_57_32.803,3.869,38.2,0,0.766,0,0,0,0, ,0,0,0,0,0, ,-39.7,382.4,922.2,-0.6,-0.5,-1.8,25,-38.3209,381.768,923.407,-0.576822,-0.581737,-1.75499,
2026_07_06_19_57_32.822,3.869,38.2,0,0.766,0,0,0,0, ,0,0,0,0,0, ,-38.3,382,923.9,-0.5,-0.5,-1.8,25,-38.3623,381.794,923.385,-0.575187,-0.576756,-1.75773,
2026_07_06_19_57_32.842,3.869,38.3,0,0.766,0,0,0,0, ,0,0,0,0,0, ,-39.3,381.2,922.7,-0.5,-0.7,-1.7,25,-38.389,381.782,923.38,-0.570606,-0.578173,-1.75726,
2026_07_06_19_57_32.862,3.869,38.2,0,0.764,0,0,0,0, ,0,0,0,0,0, ,-37.4,382.5,924.6,-0.6,-0.6,-1.7,25,-38.3866,381.786,923.396,-0.56935,-0.58255,-1.75377,
2026_07_06_19_57_32.889,3.869,38.2,0,0.766,0,0,0,0, ,0,0,0,0,0, ,-37.5,381.5,924.6,-0.6,-0.5,-1.8,25,-38.3295,381.799,923.47,-0.571218,-0.580566,-1.75354,
2026_07_06_19_57_32.902,3.869,38.2,0,0.764,0,0,0,0, ,0,0,0,0,0, ,-38.5,381.2,924.9,-0.6,-0.6,-1.8,25,-38.3095,381.772,923.548,-0.572972,-0.578703,-1.75637,
2026_07_06_19_57_32.921,3.869,38.2,0,0.765,0,0,0,0, ,0,0,0,0,0, ,-38.4,381.3,924.5,-0.6,-0.6,-1.8,25,-38.318,381.74,923.618,-0.574619,-0.580001,-1.75903,
2026_07_06_19_57_32.942,3.869,38.2,0,0.765,0,0,0,0, ,0,0,0,0,0, ,-37.9,382,923.5,-0.5,-0.6,-1.7,25,-38.3078,381.735,923.641,-0.573119,-0.58122,-1.75848,
2026_07_06_19_57_32.961,3.869,38.3,0,0.766,0,0,0,0, ,0,0,0,0,0, ,-38.9,381.7,923.5,-0.6,-0.6,-1.8,25,-38.3134,381.742,923.632,-0.57171,-0.582364,-1.75797,
2026_07_06_19_57_32.981,3.869,38.2,0,0.766,0,0,0,0, ,0,0,0,0,0, ,-38.6,381.2,923.7,-0.5,-0.5,-1.7,25,-38.34,381.724,923.631,-0.570387,-0.580392,-1.75748,
2026_07_06_19_57_33.001,3.869,38.3,0,0.766,0,0,0,0, ,0,0,0,0,0, ,-39,383,924.3,-0.6,-0.6,-1.7,25,-38.368,381.747,923.653,-0.569145,-0.57854,-1.75398,
2026_07_06_19_57_33.021,3.869,38.2,0,0.766,0,0,0,0, ,0,0,0,0,0, ,-38.8,381.5,924.3,-0.6,-0.6,-1.8,25,-38.4005,381.777,923.692,-0.571025,-0.579848,-1.75373,
2026_07_06_19_57_33.041,3.869,38.2,0,0.766,0,0,0,0, ,0,0,0,0,0, ,-39.5,381.7,923.8,-0.5,-0.5,-1.8,25,-38.4461,381.767,923.714,-0.569744,-0.578029,-1.75655,
2026_07_06_19_57_33.061,3.869,38.2,0,0.765,0,0,0,0, ,0,0,0,0,0, ,-38.3,381.7,924.1,-0.6,-0.5,-1.7,25,-38.4738,381.763,923.729,-0.56854,-0.573274,-1.75615,
2026_07_06_19_57_33.081,3.869,38.2,0,0.765,0,0,0,0, ,0,0,0,0,0, ,-37.7,382.2,922.7,-0.5,-0.5,-1.7,25,-38.4449,381.774,923.709,-0.567411,-0.568809,-1.75273,
2026_07_06_19_57_33.100,3.869,38.2,0,0.765,0,0,0,0, ,0,0,0,0,0, ,-38,382,924.4,-0.6,-0.6,-1.8,25,-38.4087,381.794,923.699,-0.56635,-0.567663,-1.75257,
2026_07_06_19_57_33.120,3.869,38.2,0,0.765,0,0,0,0, ,0,0,0,0,0, ,-38.6,381.1,923.4,-0.6,-0.6,-1.8,25,-38.402,381.779,923.711,-0.5684,-0.569633,-1.75546,
2026_07_06_19_57_33.139,3.869,38.1,0,0.766,0,0,0,0, ,0,0,0,0,0, ,-38,382.9,924.5,-0.6,-0.5,-1.8,25,-38.3958,381.792,923.726,-0.570326,-0.568437,-1.75817,
2026_07_06_19_57_33.160,3.869,38.3,0,0.766,0,0,0,0, ,0,0,0,0,0, ,-37.9,382.4,922.7,-0.5,-0.6,-1.7,25,-38.3687,381.845,923.718,-0.569087,-0.567313,-1.75767,
2026_07_06_19_57_33.180,3.869,38.2,0,0.765,0,0,0,0, ,0,0,0,0,0, ,-38.2,381.5,922.9,-0.6,-0.5,-1.8,25,-38.3492,381.851,923.662,-0.567924,-0.566258,-1.75721,
2026_07_06_19_57_33.200,3.869,38.2,0,0.765,0,0,0,0, ,0,0,0,0,0, ,-38.4,381.5,923,-0.5,-0.6,-1.8,25,-38.3462,381.83,923.619,-0.566832,-0.565268,-1.75981,
2026_07_06_19_57_33.219,3.869,38.3,0,0.765,0,0,0,0, ,0,0,0,0,0, ,-38.6,381.1,922.9,-0.6,-0.6,-1.7,25,-38.3556,381.797,923.578,-0.565806,-0.567384,-1.75922,
2026_07_06_19_57_33.239,3.869,38.3,0,0.766,0,0,0,0, ,0,0,0,0,0, ,-39.4,382.3,925.7,-0.5,-0.6,-1.7,25,-38.3949,381.792,923.622,-0.564843,-0.569372,-1.75561,
2026_07_06_19_57_33.258,3.869,38.3,0,0.766,0,0,0,0, ,0,0,0,0,0, ,-38.5,382.2,922.6,-0.5,-0.6,-1.8,25,-38.4287,381.819,923.654,-0.560892,-0.571238,-1.75527,
2026_07_06_19_57_33.278,3.869,38.2,0,0.766,0,0,0,0, ,0,0,0,0,0, ,-38.6,381.4,923.7,-0.6,-0.6,-1.8,25,-38.4361,381.818,923.623,-0.560228,-0.572991,-1.75799,
2026_07_06_19_57_33.298,3.869,38.2,0,0.766,0,0,0,0, ,0,0,0,0,0, ,-37.7,381.9,923,-0.6,-0.6,-1.8,25,-38.4187,381.808,923.607,-0.562652,-0.574637,-1.76055,
2026_07_06_19_57_33.319,3.869,38.2,0,0.766,0,0,0,0, ,0,0,0,0,0, ,-37.9,381.5,923.4,-0.6,-0.6,-1.7,25,-38.381,381.801,923.582,-0.564927,-0.576182,-1.75991,
2026_07_06_19_57_33.338,3.869,38.2,0,0.767,0,0,0,0, ,0,0,0,0,0, ,-38.3,381.7,923.3,-0.6,-0.6,-1.8,25,-38.3638,381.789,923.568,-0.567065,-0.577634,-1.7593,
2026_07_06_19_57_33.361,3.869,38.2,0,0.765,0,0,0,0, ,0,0,0,0,0, ,-38.2,381.7,924.3,-0.6,-0.6,-1.7,25,-38.3569,381.784,923.582,-0.569072,-0.578997,-1.75874,
2026_07_06_19_57_33.377,3.869,38.2,0,0.765,0,0,0,0, ,0,0,0,0,0, ,-38.2,382.5,922.8,-0.6,-0.6,-1.7,25,-38.3473,381.803,923.58,-0.570956,-0.580276,-1.75516,
2026_07_06_19_57_33.397,3.869,38.2,0,0.766,0,0,0,0, ,0,0,0,0,0, ,-36.9,382,925,-0.5,-0.6,-1.8,25,-38.2988,381.83,923.6,-0.569679,-0.581478,-1.75484,
2026_07_06_19_57_33.417,3.869,38.2,0,0.764,0,0,0,0, ,0,0,0,0,0, ,-37.8,381.3,922.9,-0.6,-0.5,-1.7,25,-38.2409,381.819,923.621,-0.56848,-0.57956,-1.75455,
2026_07_06_19_57_33.437,3.869,38.2,0,0.765,0,0,0,0, ,0,0,0,0,0, ,-38.2,381.4,925.4,-0.5,-0.6,-1.8,25,-38.2263,381.791,923.653,-0.567354,-0.577759,-1.75427,
2026_07_06_19_57_33.457,3.869,38.2,0,0.765,0,0,0,0, ,0,0,0,0,0, ,-38.8,380.7,923.3,-0.6,-0.5,-1.7,25,-38.2429,381.746,923.696,-0.566297,-0.576067,-1.75401,
2026_07_06_19_57_33.477,3.869,38.2,0,0.765,0,0,0,0, ,0,0,0,0,0, ,-39.4,380.9,923.2,-0.6,-0.6,-1.8,25,-38.2952,381.688,923.668,-0.56835,-0.574479,-1.75377,
2026_07_06_19_57_33.496,3.869,38.2,0,0.766,0,0,0,0, ,0,0,0,0,0, ,-37.7,381.3,922.9,-0.6,-0.6,-1.8,25,-38.3107,381.652,923.631,-0.570279,-0.576034,-1.75658,
2026_07_06_19_57_33.522,3.869,38.3,0,0.764,0,0,0,0, ,0,0,0,0,0, ,-38.4,381.4,922.8,-0.6,-0.5,-1.7,25,-38.2948,381.634,923.583,-0.57209,-0.574448,-1.75618,
2026_07_06_19_57_33.536,3.869,38.2,0,0.765,0,0,0,0, ,0,0,0,0,0, ,-37.7,382.4,923.4,-0.6,-0.6,-1.8,25,-38.2799,381.65,923.554,-0.573791,-0.572958,-1.75581,
2026_07_06_19_57_33.556,3.869,38.2,0,0.765,0,0,0,0, ,0,0,0,0,0, ,-37.8,382.9,924,-0.6,-0.6,-1.8,25,-38.2476,381.711,923.563,-0.575388,-0.574606,-1.7585,
2026_07_06_19_57_33.575,3.869,38.2,0,0.763,0,0,0,0, ,0,0,0,0,0, ,-39.4,381.4,924.3,-0.6,-0.5,-1.8,25,-38.2691,381.738,923.598,-0.576888,-0.573106,-1.76103,
2026_07_06_19_57_33.595,3.869,38.3,0,0.765,0,0,0,0, ,0,0,0,0,0, ,-37.9,380.4,923.5,-0.6,-0.5,-1.8,25,-38.2923,381.687,923.617,-0.578296,-0.568651,-1.7634,
2026_07_06_19_57_33.615,3.869,38.3,0,0.765,0,0,0,0, ,0,0,0,0,0, ,-37.2,381.9,923.2,-0.6,-0.5,-1.7,25,-38.2471,381.654,923.601,-0.579619,-0.564468,-1.76259,
2026_07_06_19_57_33.635,3.869,38.2,0,0.766,0,0,0,0, ,0,0,0,0,0, ,-37.2,383,923.2,-0.6,-0.5,-1.7,25,-38.1832,381.702,923.576,-0.580861,-0.560539,-1.75877,
2026_07_06_19_57_33.655,3.869,38.2,0,0.766,0,0,0,0, ,0,0,0,0,0, ,-38.8,381.7,924.1,-0.5,-0.5,-1.8,25,-38.1721,381.742,923.581,-0.57898,-0.55685,-1.75824,
2026_07_06_19_57_33.679,3.869,38.3,0,0.765,0,0,0,0, ,0,0,0,0,0, ,-37.2,381.5,925.4,-0.6,-0.6,-1.8,25,-38.1616,381.733,923.652,-0.577214,-0.556433,-1.76078,
2026_07_06_19_57_33.695,3.869,38.2,0,0.766,0,0,0,0, ,0,0,0,0,0, ,-38.5,385.3,921.5,1.7,-0.5,-1.7,25,-38.1426,381.835,923.64,-0.508525,-0.556041,-1.76013,
2026_07_06_19_57_33.714,3.869,38.2,0,0.765,0,0,0,0, ,0,0,0,0,0, ,-39,386.2,923.5,0.8,-0.5,-1.7,25,-38.1796,382.073,923.57,-0.401364,-0.552626,-1.75646,
2026_07_06_19_57_33.734,3.869,38.2,0,0.766,0,0,0,0, ,0,0,0,0,0, ,-38.3,381.5,924,-0.9,-0.6,-1.8,25,-38.2083,382.182,923.581,-0.379953,-0.552466,-1.75607,
2026_07_06_19_57_33.754,3.869,38.1,0,0.765,0,0,0,0, ,0,0,0,0,0, ,-37.7,381.4,924,-0.6,-0.5,-1.8,25,-38.1956,382.137,923.607,-0.402503,-0.552316,-1.75875,
2026_07_06_19_57_33.774,3.869,38.2,0,0.766,0,0,0,0, ,0,0,0,0,0, ,-38,385.4,922.9,-2,-0.6,-1.8,25,-38.1745,382.214,923.597,-0.457194,-0.552174,-1.76126,
2026_07_06_19_57_33.794,3.869,38.3,0,0.765,0,0,0,0, ,0,0,0,0,0, ,-49.5,400.7,913.4,-6.3,-4,-10.1,25,-38.5143,382.874,923.265,-0.682225,-0.658683,-2.01651,
2026_07_06_19_57_33.813,3.869,38.2,0,0.765,0,0,0,0, ,0,0,0,0,0, ,-115.4,386.7,930.9,-2.3,-9.5,-26.5,25,-41.1916,383.534,923.197,-0.902683,-1.02987,-3.00879,
2026_07_06_19_57_33.839,3.869,38.3,0,0.765,0,0,0,0, ,0,0,0,0,0, ,-39.6,594.6,816.5,-120.2,-4.3,-42.4,25,-43.4042,390.061,920.181,-4.5801,-1.38758,-4.92473,
2026_07_06_19_57_33.852,3.869,38.2,0,0.764,0,0,0,0, ,0,0,0,0,0, ,-12.9,353.3,1044.3,-59.3,27.7,38.2,25,-42.3588,395.173,920.804,-9.77014,-0.590059,-4.7526,
2026_07_06_19_57_33.872,3.869,38.2,0,0.766,0,0,0,0, ,0,0,0,0,0, ,-80.2,274.1,887.2,-27.3,12.7,15.7,25,-42.6142,390.209,923.543,-11.8134,0.676836,-2.82073,
2026_07_06_19_57_33.892,3.869,38.3,0,0.765,0,0,0,0, ,0,0,0,0,0, ,106.4,276.7,937.7,-15.6,12,8.7,25,-39.2191,383.212,922.867,-12.4006,1.38817,-1.9054,
2026_07_06_19_57_33.912,3.869,38.2,0,0.765,0,0,0,0, ,0,0,0,0,0, ,-18.1,352.2,964.4,-4.1,13,6.9,25,-34.1388,379.022,924.584,-12.2452,2.0653,-1.31398,
2026_07_06_19_57_33.932,3.869,38.2,0,0.765,0,0,0,0, ,0,0,0,0,0, ,-106.5,387.6,1150.8,-13.6,26.9,14,25,-35.8549,378.466,932.69,-12.0383,3.15515,-0.59711,
2026_07_06_19_57_33.952,3.869,38.3,0,0.765,0,0,0,0, ,0,0,0,0,0, ,-201.1,388.7,1147.3,-42.1,70.7,28.4,25,-43.0422,379.056,945.874,-13.0018,5.93663,0.731152,
2026_07_06_19_57_33.972,3.869,38.3,0,0.766,0,0,0,0, ,0,0,0,0,0, ,-148.3,347.6,1017.7,-63.8,94.2,29.7,25,-51.0651,378.392,954.2,-15.4361,10.5992,2.45683,
2026_07_06_19_57_33.992,3.869,38.2,0,0.765,0,0,0,0, ,0,0,0,0,0, ,-74.8,268.7,988,-63.6,98.9,31.2,25,-54.7509,374.111,957.164,-18.3772,15.8368,4.16266,
2026_07_06_19_57_34.011,3.869,38.2,0,0.764,0,0,0,0, ,0,0,0,0,0, ,-135.3,166.6,1019,-38.9,100,24.5,25,-57.816,364.577,959.988,-20.3804,20.932,5.60611,
2026_07_06_19_57_34.031,3.869,38.1,0,0.764,0,0,0,0, ,0,0,0,0,0, ,-250.9,95.9,1026.9,-3.4,98.3,-14.8,25,-66.0599,350.359,963.825,-20.4273,25.6984,5.56004,
2026_07_06_19_57_34.051,3.869,38.2,0,0.765,0,0,0,0, ,0,0,0,0,0, ,-174.9,224.3,896.7,42.6,87,-43,25,-75.0079,338.765,963.701,-17.9881,29.7782,3.46013,
2026_07_06_19_57_34.070,3.869,38.2,0,0.766,0,0,0,0, ,0,0,0,0,0, ,-209.9,258.4,834.3,48.7,71,-63,25,-82.1615,332.829,957.717,-14.1102,32.7777,0.0195892,
2026_07_06_19_57_34.091,3.869,38.2,0,0.765,0,0,0,0, ,0,0,0,0,0, ,-208,265.3,879.3,47.5,50.7,-76.3,25,-89.8877,328.503,951.568,-10.3193,34.4884,-4.2259,
2026_07_06_19_57_34.111,3.869,38.1,0,0.768,0,0,0,0, ,0,0,0,0,0, ,-301.6,651.8,1018,21.3,32.1,-26.4,25,-99.937,336.428,951.39,-7.59418,34.9095,-7.09753,
2026_07_06_19_57_34.130,3.869,38.2,0,0.765,0,0,0,0, ,0,0,0,0,0, ,-253.4,418.7,1180.6,-8.7,-79,80.4,25,-110.757,348.544,960.403,-6.7475,31.3532,-5.01971,
2026_07_06_19_57_34.150,3.869,38.1,0,0.765,0,0,0,0, ,0,0,0,0,0, ,-276.1,213.3,952.5,-4.1,-124.5,82.1,25,-120.141,346.561,966.871,-6.72633,23.2423,0.237352,
2026_07_06_19_57_34.170,3.869,38.2,0,0.766,0,0,0,0, ,0,0,0,0,0, ,-160,162.9,731.6,-65.9,-94.2,31.1,25,-126.108,336.904,959.265,-8.44925,15.1624,3.67195,
2026_07_06_19_57_34.190,3.869,38.2,0,0.766,0,0,0,0, ,0,0,0,0,0, ,-37.8,336.4,725.8,-23.9,-16.5,43.1,25,-124.45,331.587,945.215,-10.6705,10.8656,5.70897,
2026_07_06_19_57_34.209,3.869,38.1,0,0.766,0,0,0,0, ,0,0,0,0,0, ,114.8,511.3,1227,-67.1,-47,84.5,25,-114.52,337.21,947.115,-12.7929,8.26869,9.24889,
2026_07_06_19_57_34.229,3.869,38.1,0,0.764,0,0,0,0, ,0,0,0,0,0, ,-85.5,118.4,639.5,-33.4,-51.1,99,25,-106.649,335.847,946.27,-15.0754,4.77583,14.2763,
2026_07_06_19_57_34.249,3.869,38.2,0,0.765,0,0,0,0, ,0,0,0,0,0, ,85.5,326.4,959.8,-33.8,25.7,124.5,25,-100.15,328.934,937.336,-16.2043,3.7109,20.2161,
2026_07_06_19_57_34.269,3.869,38.3,0,0.766,0,0,0,0, ,0,0,0,0,0, ,-530.8,181.1,944.8,-19.4,1.4,76.2,25,-107.615,324.352,938.248,-16.8378,4.31047,25.0993,
2026_07_06_19_57_34.288,3.869,38.2,0,0.765,0,0,0,0, ,0,0,0,0,0, ,-114.6,114.7,937.7,-23.2,-56.1,54.1,25,-120.721,313.6,938.431,-17.1097,2.38116,27.5399,
2026_07_06_19_57_34.308,3.869,38.3,0,0.765,0,0,0,0, ,0,0,0,0,0, ,34,359.7,814.6,-2,-16.6,14.2,25,-115.821,308.944,934.635,-16.8349,0.0209801,27.9427,
2026_07_06_19_57_34.332,3.869,38.2,0,0.765,0,0,0,0, ,0,0,0,0,0, ,-92.8,152.8,872.9,8.1,-12.1,8.1,25,-110.554,305.733,929.097,-15.6231,-0.854751,26.9194,
2026_07_06_19_57_34.348,3.869,38.2,0,0.765,0,0,0,0, ,0,0,0,0,0, ,-116.5,141.9,1121.9,22.2,0,-4.9,25,-110.195,296.082,933.259,-13.7479,-1.17134,25.3765,
2026_07_06_19_57_34.369,3.869,38.1,0,0.768,0,0,0,0, ,0,0,0,0,0, ,-288.8,305,1006.7,-36,10.7,-43.8,25,-115.829,291.656,941.245,-13.3306,-0.773943,22.3463,
2026_07_06_19_57_34.387,3.869,38.2,0,0.765,0,0,0,0, ,0,0,0,0,0, ,-52.8,210.9,864.5,-7.1,-1.4,-26.7,25,-119.178,289.602,940.901,-13.8315,-0.443421,18.8365,
2026_07_06_19_57_34.408,3.869,38.2,0,0.765,0,0,0,0, ,0,0,0,0,0, ,-113.5,254.7,933.3,25,-8.2,-10.8,25,-116.983,286.14,938.341,-12.4432,-0.7089,16.5461,
2026_07_06_19_57_34.428,3.869,38.2,0,0.764,0,0,0,0, ,0,0,0,0,0, ,-118,379.1,934.5,-3.7,-26.9,-41.7,25,-116.908,288.015,938.071,-11.036,-1.73515,13.9382,
2026_07_06_19_57_34.447,3.869,38.1,0,0.765,0,0,0,0, ,0,0,0,0,0, ,-153,37.2,1022.9,-35.3,34.2,-86.1,25,-118.041,283.148,940.546,-11.5518,-1.407,9.19491,
2026_07_06_19_57_34.468,3.869,38.2,0,0.766,0,0,0,0, ,0,0,0,0,0, ,-165.8,468.5,1094.7,-29.8,75.2,-95.2,25,-120.561,281.302,947.752,-12.8313,2.01202,3.11061,
2026_07_06_19_57_34.487,3.869,38.2,0,0.766,0,0,0,0, ,0,0,0,0,0, ,-201.1,50.6,629.2,-18.7,26.8,-93,25,-124.393,279.976,942.524,-13.5272,4.99723,-2.81316,
2026_07_06_19_57_34.513,3.869,38.2,0,0.766,0,0,0,0, ,0,0,0,0,0, ,-156.8,122,835,10.4,-60,-34.1,25,-127.718,268.174,929.701,-12.9557,3.68115,-6.51431,
2026_07_06_19_57_34.527,3.869,38.2,0,0.766,0,0,0,0, ,0,0,0,0,0, ,-32.4,206.9,1097.2,15.4,-41.3,-25.2,25,-125.7,261.853,931.919,-11.3802,0.370342,-7.92414,
2026_07_06_19_57_34.546,3.869,38.1,0,0.765,0,0,0,0, ,0,0,0,0,0, ,-148.5,141.3,891.3,-12.5,-36.2,-33.1,25,-123.552,256.506,935.718,-10.5983,-2.01355,-9.21759,
2026_07_06_19_57_34.567,3.869,38.1,0,0.765,0,0,0,0, ,0,0,0,0,0, ,-68.8,287.7,943.2,-46.5,-64.7,-41.4,25,-122.644,253.946,934.592,-11.7501,-4.96515,-10.9258,
2026_07_06_19_57_34.586,3.869,38.1,0,0.766,0,0,0,0, ,0,0,0,0,0, ,-46.3,320.3,1101.5,-32.4,-44.3,-57.6,25,-118.677,256.996,939.94,-13.4381,-7.98368,-13.2764,
2026_07_06_19_57_34.606,3.869,38.2,0,0.765,0,0,0,0, ,0,0,0,0,0, ,-51.8,229.8,1072.1,-34.3,-14.8,-82.5,25,-114.434,258.097,948.889,-14.6515,-9.29788,-16.7361,
2026_07_06_19_57_34.626,3.869,38.1,0,0.765,0,0,0,0, ,0,0,0,0,0, ,-42.1,172.8,1000.4,-22.7,-3.4,-85.4,25,-110.322,254.635,954.213,-15.4954,-9.28582,-20.8319,
2026_07_06_19_57_34.645,3.869,38.1,0,0.766,0,0,0,0, ,0,0,0,0,0, ,-17.9,175.9,1033.2,-11.8,20.2,-70.9,25,-105.427,249.743,958.027,-15.6023,-8.20809,-24.3247,
2026_07_06_19_57_34.665,3.869,38.1,0,0.765,0,0,0,0, ,0,0,0,0,0, ,-47.8,97.7,1013,-8.6,32.2,-63.4,25,-101.005,242.861,961.992,-15.2731,-6.11135,-26.9344,
2026_07_06_19_57_34.685,3.869,38.2,0,0.766,0,0,0,0, ,0,0,0,0,0, ,-135.6,74.9,873,22.2,5.9,-47.5,25,-100.438,233.32,960.835,-13.928,-4.57808,-28.6721,
2026_07_06_19_57_34.705,3.869,38.1,0,0.766,0,0,0,0, ,0,0,0,0,0, ,-87.1,136.3,914.5,36.5,-1.6,-38.5,25,-101.103,225.537,956.747,-11.2908,-4.16808,-29.5452,
2026_07_06_19_57_34.724,3.869,38.1,0,0.766,0,0,0,0, ,0,0,0,0,0, ,-91.9,184,925,54.9,12.6,-29.5,25,-100.395,221.553,954.492,-7.81789,-3.57894,-29.8166,
2026_07_06_19_57_34.745,3.869,38.1,0,0.765,0,0,0,0, ,0,0,0,0,0, ,-129.2,167.7,944.2,52.8,17.5,-26.1,25,-101.014,218.768,953.28,-4.06,-2.44373,-29.6938,
2026_07_06_19_57_34.765,3.869,38.1,0,0.766,0,0,0,0, ,0,0,0,0,0, ,-125.9,191.1,929.3,35.5,19.7,-19.6,25,-102.631,216.369,952.273,-1.12221,-1.16138,-29.2767,
2026_07_06_19_57_34.784,3.869,38.1,0,0.765,0,0,0,0, ,0,0,0,0,0, ,-116.3,226.1,901.7,28,12.3,-13.2,25,-103.757,215.895,950.032,0.880942,-0.115611,-28.492,
2026_07_06_19_57_34.804,3.869,38.1,0,0.765,0,0,0,0, ,0,0,0,0,0, ,-123.7,228.6,897.7,26,-0.1,-12.6,25,-104.747,216.593,946.965,2.47257,0.263153,-27.5419,
2026_07_06_19_57_34.824,3.869,38.2,0,0.764,0,0,0,0, ,0,0,0,0,0, ,-132.4,210,919.4,19.7,-6.3,-11.8,25,-106.167,216.758,944.624,3.71432,0.0521172,-26.607,
2026_07_06_19_57_34.848,3.869,38.1,0,0.766,0,0,0,0, ,0,0,0,0,0, ,-127.9,213.5,966.5,11.7,-8.9,-9.1,25,-107.628,216.453,944.522,4.4447,-0.414184,-25.6224,
2026_07_06_19_57_34.863,3.869,38.2,0,0.765,0,0,0,0, ,0,0,0,0,0, ,-113.6,215,983.7,7.8,-8.7,-8,25,-108.428,216.319,946.385,4.76799,-0.925194,-24.5821,
2026_07_06_19_57_34.883,3.869,38.2,0,0.765,0,0,0,0, ,0,0,0,0,0, ,-118.1,222,976.5,2.4,-10.2,-6.1,25,-108.88,216.452,948.44,4.78822,-1.44467,-23.5137,
2026_07_06_19_57_34.902,3.869,38.2,0,0.766,0,0,0,0, ,0,0,0,0,0, ,-117,243.8,961.1,3.8,-10.9,-7.4,25,-109.408,217.454,949.68,4.68535,-1.99953,-22.4922,
2026_07_06_19_57_34.922,3.869,38.2,0,0.765,0,0,0,0, ,0,0,0,0,0, ,-107.6,238.1,986.3,4.4,-5.3,-7.2,25,-109.585,218.886,951.144,4.64968,-2.37128,-21.5664,
2026_07_06_19_57_34.943,3.869,38.2,0,0.766,0,0,0,0, ,0,0,0,0,0, ,-97.4,219.1,991.3,2.7,-1.3,-5.3,25,-109.153,219.478,953.439,4.58267,-2.42787,-20.6331,
2026_07_06_19_57_34.962,3.869,38.2,0,0.765,0,0,0,0, ,0,0,0,0,0, ,-95.5,223.3,975.3,-1.1,0,-1.2,25,-108.379,219.583,955.258,4.35216,-2.31953,-19.5738,
2026_07_06_19_57_34.982,3.869,38.1,0,0.763,0,0,0,0, ,0,0,0,0,0, ,-93.2,239.1,953.8,0.7,-2.2,-1.4,25,-107.524,220.291,955.825,4.07476,-2.24522,-18.4602,
2026_07_06_19_57_35.002,3.869,38.1,0,0.765,0,0,0,0, ,0,0,0,0,0, ,-95.4,233.7,941.5,5.1,-1.2,2.6,25,-106.718,221.272,955.327,4.00317,-2.21199,-17.2987,
2026_07_06_19_57_35.022,3.869,38.1,0,0.767,0,0,0,0, ,0,0,0,0,0, ,-98.2,240.2,933.1,6.8,-1.8,3.6,25,-106.114,222.228,954.228,4.12181,-2.16861,-16.0557,
2026_07_06_19_57_35.041,3.869,38.2,0,0.766,0,0,0,0, ,0,0,0,0,0, ,-105.7,237.9,939.4,5.2,-3.9,-0.3,25,-105.86,223.253,953.133,4.23626,-2.21013,-14.9768,
2026_07_06_19_57_35.061,3.869,38.1,0,0.765,0,0,0,0, ,0,0,0,0,0, ,-90.3,218.6,942.8,2.8,-5,0.1,25,-105.381,223.557,952.399,4.22186,-2.34662,-14.0702,
2026_07_06_19_57_35.081,3.869,38.1,0,0.766,0,0,0,0, ,0,0,0,0,0, ,-88.8,228.6,942.3,0.1,-9.6,1.4,25,-104.416,223.56,951.799,4.05295,-2.64847,-13.1671,
2026_07_06_19_57_35.101,3.869,38.1,0,0.767,0,0,0,0, ,0,0,0,0,0, ,-87.6,243.1,944.2,1.9,-9.1,3.3,25,-103.428,224.309,951.278,3.86691,-3.05684,-12.2215,
2026_07_06_19_57_35.120,3.869,38.2,0,0.765,0,0,0,0, ,0,0,0,0,0, ,-83.9,252,941.1,4.4,-6.5,2.5,25,-102.351,225.725,950.752,3.82323,-3.34588,-11.3001,
2026_07_06_19_57_35.141,3.869,38.2,0,0.767,0,0,0,0, ,0,0,0,0,0, ,-84.8,243.1,936,5.4,-8.9,2.9,25,-101.254,227.055,950.009,3.88884,-3.61121,-10.4469,
2026_07_06_19_57_35.161,3.869,38.1,0,0.765,0,0,0,0, ,0,0,0,0,0, ,-86,230.8,962.1,4.3,-12.5,7.4,25,-100.288,227.658,949.95,3.94741,-4.04318,-9.49649,
2026_07_06_19_57_35.181,3.869,38.2,0,0.766,0,0,0,0, ,0,0,0,0,0, ,-94.3,267.5,1000.8,0.8,-8.1,8.5,25,-99.67,228.968,951.87,3.86226,-4.42446,-8.43335,
2026_07_06_19_57_35.201,3.869,38.2,0,0.764,0,0,0,0, ,0,0,0,0,0, ,-99.1,277.2,946.6,5.6,-5.2,6.1,25,-99.4891,231.611,953.2,3.8219,-4.56007,-7.47459,
2026_07_06_19_57_35.220,3.869,38.1,0,0.766,0,0,0,0, ,0,0,0,0,0, ,-122.5,271.1,985.2,5.9,-9.8,7.3,25,-100.178,234.204,953.974,3.9394,-4.73923,-6.61083,
2026_07_06_19_57_35.239,3.869,38.2,0,0.766,0,0,0,0, ,0,0,0,0,0, ,-113.4,278.8,1015.2,4.1,-8.6,7.8,25,-101.261,236.687,956.791,4.00403,-5.01105,-5.7479,
2026_07_06_19_57_35.259,3.869,38.1,0,0.765,0,0,0,0, ,0,0,0,0,0, ,-101.1,286.4,1012.6,1.6,-5.2,6.7,25,-101.626,239.484,960.271,3.9337,-5.12616,-4.95584,
2026_07_06_19_57_35.279,3.869,38.1,0,0.765,0,0,0,0, ,0,0,0,0,0, ,-98,289.9,978,3.4,-3.9,5.2,25,-101.5,242.45,962.406,3.84634,-5.09105,-4.29127,
2026_07_06_19_57_35.299,3.869,38.1,0,0.764,0,0,0,0, ,0,0,0,0,0, ,-99.4,290.7,962.4,5.4,-7.4,1.3,25,-101.329,245.366,962.881,3.88008,-5.12511,-3.83172,
2026_07_06_19_57_35.319,3.869,38.2,0,0.765,0,0,0,0, ,0,0,0,0,0, ,-87.4,258.6,985.2,3.7,-12.2,0.1,25,-100.846,247.15,963.546,3.9209,-5.40999,-3.55557,
2026_07_06_19_57_35.338,3.869,38.1,0,0.766,0,0,0,0, ,0,0,0,0,0, ,-79.8,274.2,1005.4,0.1,-11.6,2.4,25,-99.795,248.323,965.481,3.79775,-5.80547,-3.26273,
2026_07_06_19_57_35.358,3.869,38.1,0,0.764,0,0,0,0, ,0,0,0,0,0, ,-80.5,285.5,980.8,1.2,-10,1.1,25,-98.5979,250.244,967.164,3.60593,-6.10983,-2.95727,
2026_07_06_19_57_35.384,3.869,38.1,0,0.764,0,0,0,0, ,0,0,0,0,0, ,-67.6,264.1,982.5,0.2,-9.7,0.8,25,-97.102,251.741,968.047,3.42885,-6.33774,-2.71917,
2026_07_06_19_57_35.398,3.869,38.2,0,0.764,0,0,0,0, ,0,0,0,0,0, ,-60.7,276.1,975.2,1,-9.4,1.5,25,-95.094,252.86,968.705,3.25647,-6.53349,-2.48339,
2026_07_06_19_57_35.418,3.869,38.1,0,0.766,0,0,0,0, ,0,0,0,0,0, ,-62.6,275.2,966.7,0.4,-12.7,0.3,25,-93.056,254.248,968.842,3.10069,-6.80872,-2.27722,
2026_07_06_19_57_35.438,3.869,38.1,0,0.765,0,0,0,0, ,0,0,0,0,0, ,-56.3,277.8,977.4,0.2,-12,0.5,25,-91.0081,255.604,969.037,2.93002,-7.14639,-2.11407,
2026_07_06_19_57_35.458,3.869,38.2,0,0.766,0,0,0,0, ,0,0,0,0,0, ,-58.8,281.2,972.2,-0.9,-8.7,1.2,25,-88.9693,257.06,969.389,2.73014,-7.34161,-1.93345,
2026_07_06_19_57_35.478,3.869,38.1,0,0.765,0,0,0,0, ,0,0,0,0,0, ,-59.3,281.3,959.7,-1.3,-6,-0.4,25,-87.1461,258.535,969.179,2.49674,-7.34212,-1.79126,
2026_07_06_19_57_35.498,3.869,38.1,0,0.765,0,0,0,0, ,0,0,0,0,0, ,-48.5,283.9,957.5,-3.4,-2.1,-2.6,25,-85.1201,260.001,968.534,2.2014,-7.14151,-1.77351,
2026_07_06_19_57_35.517,3.869,38.2,0,0.764,0,0,0,0, ,0,0,0,0,0, ,-55.9,310.5,976,-7.3,4,-6.9,25,-83.1141,262.268,968.426,1.74123,-6.64843,-1.95489,
2026_07_06_19_57_35.537,3.869,38.1,0,0.766,0,0,0,0, ,0,0,0,0,0, ,-63.5,251.9,919.9,-1.1,1.3,-1.5,25,-81.6873,263.422,967.178,1.37919,-6.08181,-2.0917,
2026_07_06_19_57_35.556,3.869,38.1,0,0.766,0,0,0,0, ,0,0,0,0,0, ,-44.4,283.9,939.4,2,-4,0.6,25,-79.997,263.694,964.891,1.32257,-5.79346,-1.99166,
2026_07_06_19_57_35.576,3.869,38.1,0,0.765,0,0,0,0, ,0,0,0,0,0, ,-44.4,281.7,950.4,2.6,-4.8,1.7,25,-77.8278,264.859,963.673,1.38213,-5.70855,-1.80021,
2026_07_06_19_57_35.596,3.869,38.1,0,0.766,0,0,0,0, ,0,0,0,0,0, ,-47.1,274.6,956.1,2.8,-6.1,1.8,25,-75.8731,265.669,963.038,1.46244,-5.69279,-1.58387,
2026_07_06_19_57_35.616,3.869,38.1,0,0.765,0,0,0,0, ,0,0,0,0,0, ,-49.4,274.7,955.6,1.1,-4.8,1,25,-74.1898,266.216,962.6,1.49215,-5.678,-1.40204,
2026_07_06_19_57_35.636,3.869,38.1,0,0.765,0,0,0,0, ,0,0,0,0,0, ,-46.3,279.5,957.5,-0.7,-2.7,-0.6,25,-72.5847,266.879,962.231,1.41341,-5.56051,-1.30442,
2026_07_06_19_57_35.655,3.869,38.1,0,0.766,0,0,0,0, ,0,0,0,0,0, ,-35.8,289.4,953.7,-1.6,-3.7,-2.9,25,-70.6631,267.95,961.827,1.2572,-5.41667,-1.33157,
2026_07_06_19_57_35.675,3.869,38.1,0,0.765,0,0,0,0, ,0,0,0,0,0, ,-26.8,275.6,953.8,-0.1,-4.5,-1.7,25,-68.2644,268.837,961.335,1.12879,-5.33643,-1.39058,
2026_07_06_19_57_35.695,3.869,38.1,0,0.765,0,0,0,0, ,0,0,0,0,0, ,-29.7,281.7,965.2,-0.4,-4.4,-0.2,25,-65.826,269.435,961.223,1.04477,-5.28242,-1.36374,
2026_07_06_19_57_35.715,3.869,38.1,0,0.766,0,0,0,0, ,0,0,0,0,0, ,-31.8,281,972.9,-1,-4.4,-0.2,25,-63.6886,270.161,961.7,0.93845,-5.22864,-1.29282,
2026_07_06_19_57_35.740,3.869,38.1,0,0.765,0,0,0,0, ,0,0,0,0,0, ,-28.3,287.2,969.2,0,-1.8,0,25,-61.6387,271.01,962.27,0.850794,-5.09893,-1.22013,
2026_07_06_19_57_35.755,3.869,38,0,0.764,0,0,0,0, ,0,0,0,0,0, ,-29.4,283.8,973.1,0.9,-0.4,-0.3,25,-59.6407,271.893,962.811,0.826371,-4.85524,-1.15492,
2026_07_06_19_57_35.775,3.869,38.1,0,0.764,0,0,0,0, ,0,0,0,0,0, ,-29.5,278.1,974.1,0.3,0.3,-0.2,25,-57.8009,272.445,963.468,0.812576,-4.56242,-1.09978,
2026_07_06_19_57_35.794,3.869,38.2,0,0.766,0,0,0,0, ,0,0,0,0,0, ,-32.5,284.1,963.9,0,1.4,-0.4,25,-56.1677,272.972,963.805,0.772201,-4.23261,-1.05104,
2026_07_06_19_57_35.814,3.869,38.1,0,0.765,0,0,0,0, ,0,0,0,0,0, ,-31.1,280,945,0.7,2.2,0,25,-54.6828,273.526,963.235,0.746473,-3.86499,-0.999182,
2026_07_06_19_57_35.834,3.869,38.1,0,0.766,0,0,0,0, ,0,0,0,0,0, ,-29.4,282.1,948.9,0.6,0.3,0.8,25,-53.1939,273.984,962.243,0.740594,-3.5533,-0.913919,
2026_07_06_19_57_35.854,3.869,38.1,0,0.765,0,0,0,0, ,0,0,0,0,0, ,-31.7,286.2,957.1,0,-1.3,1,25,-51.8141,274.604,961.68,0.713745,-3.36724,-0.803383,
2026_07_06_19_57_35.874,3.869,38.1,0,0.765,0,0,0,0, ,0,0,0,0,0, ,-31,290,951.5,2.3,-0.2,1.2,25,-50.5671,275.426,961.23,0.74033,-3.20775,-0.687396,
2026_07_06_19_57_35.893,3.869,38.1,0,0.765,0,0,0,0, ,0,0,0,0,0, ,-34.7,282.7,959.5,2,-0.3,0.9,25,-49.4874,276.092,960.881,0.826231,-3.02751,-0.581523,
2026_07_06_19_57_35.913,3.869,38.1,0,0.766,0,0,0,0, ,0,0,0,0,0, ,-34.9,281.6,969.9,-0.5,-0.9,0.5,25,-48.5924,276.461,961.114,0.821586,-2.87959,-0.503431,
2026_07_06_19_57_35.939,3.869,38.2,0,0.766,0,0,0,0, ,0,0,0,0,0, ,-33.6,295.7,963.3,-0.2,0,-0.6,25,-47.7184,277.204,961.448,0.750192,-2.73153,-0.4758,
2026_07_06_19_57_35.953,3.869,38.1,0,0.765,0,0,0,0, ,0,0,0,0,0, ,-33.4,288.9,947.6,1.3,0.8,-1.7,25,-46.852,278.124,961.082,0.737993,-2.54071,-0.516884,
2026_07_06_19_57_35.973,3.869,38,0,0.766,0,0,0,0, ,0,0,0,0,0, ,-30.5,281.9,947,1,-1.3,-0.7,25,-45.9439,278.567,960.243,0.7631,-2.40112,-0.558511,
2026_07_06_19_57_35.992,3.869,38.1,0,0.766,0,0,0,0, ,0,0,0,0,0, ,-34.5,284.6,955.8,-0.4,-2.7,-0.1,25,-45.1247,278.852,959.704,0.73488,-2.37667,-0.548852,
2026_07_06_19_57_36.012,3.869,38,0,0.766,0,0,0,0, ,0,0,0,0,0, ,-37.8,284.5,953.4,-1.2,-2.5,-0.8,25,-44.5778,279.2,959.393,0.641348,-2.39028,-0.542828,
2026_07_06_19_57_36.032,3.869,38.1,0,0.765,0,0,0,0, ,0,0,0,0,0, ,-36.2,293.9,951.4,-0.6,-2,-0.8,25,-44.116,279.809,958.967,0.547422,-2.38173,-0.5585,
2026_07_06_19_57_36.052,3.869,38.2,0,0.766,0,0,0,0, ,0,0,0,0,0, ,-39.4,296.7,951.4,0.6,-1.2,-1.6,25,-43.7311,280.753,958.505,0.514064,-2.3341,-0.597591,
2026_07_06_19_57_36.072,3.869,38.2,0,0.766,0,0,0,0, ,0,0,0,0,0, ,-39.4,287.4,945.5,1,-1.2,-3.1,25,-43.4672,281.441,957.893,0.531488,-2.26499,-0.704378,
2026_07_06_19_57_36.091,3.869,38,0,0.764,0,0,0,0, ,0,0,0,0,0, ,-30.6,278.1,951.4,-0.2,-2.8,-2.4,25,-42.9512,281.521,957.317,0.523475,-2.24884,-0.829033,
2026_07_06_19_57_36.111,3.869,38.1,0,0.766,0,0,0,0, ,0,0,0,0,0, ,-30.5,289.3,950.5,-0.4,-4.3,-0.8,25,-42.1955,281.654,956.929,0.473295,-2.32813,-0.876014,
2026_07_06_19_57_36.135,3.869,38.2,0,0.765,0,0,0,0, ,0,0,0,0,0, ,-33.4,291.8,951.2,2.3,-3.9,-1.8,25,-41.5712,282.196,956.559,0.502344,-2.4361,-0.901851,
2026_07_06_19_57_36.151,3.869,38.1,0,0.764,0,0,0,0, ,0,0,0,0,0, ,-30.8,284.3,954.9,2.8,-2.8,-1.9,25,-40.994,282.553,956.345,0.627123,-2.49179,-0.959629,
2026_07_06_19_57_36.171,3.869,38.1,0,0.766,0,0,0,0, ,0,0,0,0,0, ,-25.8,277.4,964.2,1.5,-1.2,-1.2,25,-40.2205,282.449,956.54,0.719923,-2.46182,-0.995604,
2026_07_06_19_57_36.190,3.869,38.1,0,0.766,0,0,0,0, ,0,0,0,0,0, ,-24.4,283.5,965.9,-1.4,-4.1,-1.6,25,-39.2991,282.327,957.059,0.6791,-2.47329,-1.02025,
2026_07_06_19_57_36.210,3.869,38.1,0,0.766,0,0,0,0, ,0,0,0,0,0, ,-23.5,289.1,956.4,-1.4,-3.7,-0.8,25,-38.3637,282.569,957.308,0.552405,-2.56023,-1.0312,
2026_07_06_19_57_36.231,3.869,38.1,0,0.765,0,0,0,0, ,0,0,0,0,0, ,-25.6,300.4,953,0.9,-2.9,-0.7,25,-37.522,283.311,957.149,0.503508,-2.60531,-1.01407,
2026_07_06_19_57_36.250,3.869,38.1,0,0.766,0,0,0,0, ,0,0,0,0,0, ,-28.4,295,960.9,2.7,-1.6,-2.1,25,-36.8808,284.188,957.137,0.582513,-2.58366,-1.03758,
2026_07_06_19_57_36.270,3.869,38.1,0,0.766,0,0,0,0, ,0,0,0,0,0, ,-28.4,286.3,974.7,0.5,-0.5,-1.8,25,-36.364,284.582,957.787,0.644516,-2.4902,-1.09318,
2026_07_06_19_57_36.290,3.869,38.2,0,0.766,0,0,0,0, ,0,0,0,0,0, ,-31.3,294.4,955.6,-1.3,-0.5,-2.1,25,-35.967,284.934,958.236,0.580866,-2.36892,-1.1454,
2026_07_06_19_57_36.315,3.869,38.1,0,0.764,0,0,0,0, ,0,0,0,0,0, ,-20.8,295.2,945.3,0.4,-1.2,-1.9,25,-35.3627,285.535,957.761,0.518048,-2.27636,-1.19747,
2026_07_06_19_57_36.331,3.869,38.1,0,0.766,0,0,0,0, ,0,0,0,0,0, ,-21.6,292.7,953.6,1.9,-2.4,-1.2,25,-34.4997,286.048,957.255,0.556557,-2.24734,-1.21896,
2026_07_06_19_57_36.349,3.869,38.1,0,0.764,0,0,0,0, ,0,0,0,0,0, ,-22.2,292.3,966.1,1.7,-2,-1.6,25,-33.7319,286.441,957.413,0.63233,-2.24445,-1.22999,
2026_07_06_19_57_36.369,3.869,38.1,0,0.766,0,0,0,0, ,0,0,0,0,0, ,-28.3,293.2,955.5,0.8,-0.5,-1.9,25,-33.215,286.825,957.619,0.669969,-2.18385,-1.26168,
2026_07_06_19_57_36.389,3.869,38.2,0,0.766,0,0,0,0, ,0,0,0,0,0, ,-23,295.1,955.4,0.1,-1,-2.1,25,-32.754,287.272,957.487,0.656564,-2.09648,-1.30667,
2026_07_06_19_57_36.409,3.869,38.1,0,0.766,0,0,0,0, ,0,0,0,0,0, ,-22.3,303.9,951.1,0.9,-1.6,-1.8,25,-32.1383,288.017,957.229,0.647024,-2.04794,-1.34587,
2026_07_06_19_57_36.428,3.869,38.1,0,0.764,0,0,0,0, ,0,0,0,0,0, ,-27.4,299.1,954.1,2.1,-1.6,-2,25,-31.6942,288.838,956.947,0.699002,-2.02065,-1.37964,
2026_07_06_19_57_36.449,3.869,38.1,0,0.766,0,0,0,0, ,0,0,0,0,0, ,-26.3,291.6,962.2,0.7,-1.1,-2.3,25,-31.399,289.235,957.02,0.741719,-1.97978,-1.42658,
2026_07_06_19_57_36.468,3.869,38,0,0.766,0,0,0,0, ,0,0,0,0,0, ,-21.4,293.3,961.6,-1.3,-0.3,-2,25,-30.939,289.431,957.317,0.678239,-1.90179,-1.47067,
2026_07_06_19_57_36.488,3.869,38.1,0,0.766,0,0,0,0, ,0,0,0,0,0, ,-18.7,307.2,953.8,0.3,-0.4,-1.6,25,-30.2754,290.09,957.341,0.60644,-1.80723,-1.49073,
2026_07_06_19_57_36.511,3.869,38.2,0,0.766,0,0,0,0, ,0,0,0,0,0, ,-20.9,299.4,955.6,2.1,0.2,-1.5,25,-29.6371,290.895,957.18,0.64261,-1.70319,-1.49435,
2026_07_06_19_57_36.528,3.869,38,0,0.766,0,0,0,0, ,0,0,0,0,0, ,-28,296,957.2,0.9,-0.3,-1.9,25,-29.321,291.31,957.132,0.694858,-1.60245,-1.50688,
2026_07_06_19_57_36.548,3.869,38.1,0,0.766,0,0,0,0, ,0,0,0,0,0, ,-24.2,289.9,955,-1.8,-1.4,-2.9,25,-29.1247,291.41,957.069,0.625093,-1.5566,-1.5613,
2026_07_06_19_57_36.567,3.869,38.2,0,0.767,0,0,0,0, ,0,0,0,0,0, ,-20.9,292.8,958.8,-4,-1.7,-2.5,25,-28.7241,291.406,957.059,0.410283,-1.5562,-1.63069,
2026_07_06_19_57_36.587,3.869,38.1,0,0.764,0,0,0,0, ,0,0,0,0,0, ,-14.4,306.1,949.5,-2,-0.3,-1.6,25,-28.0492,291.896,956.882,0.202468,-1.52231,-1.65624,
2026_07_06_19_57_36.606,3.869,38.1,0,0.766,0,0,0,0, ,0,0,0,0,0, ,-19.4,304.4,942.1,0.4,0,-1.5,25,-27.3698,292.71,956.207,0.141381,-1.43868,-1.64977,
2026_07_06_19_57_36.626,3.869,38.1,0,0.765,0,0,0,0, ,0,0,0,0,0, ,-22.9,297.3,948.8,1.3,-2.1,-2.8,25,-26.9908,293.206,955.551,0.184562,-1.41499,-1.68025,
2026_07_06_19_57_36.646,3.869,38,0,0.767,0,0,0,0, ,0,0,0,0,0, ,-18.3,291,958.6,0.5,-2.9,-3.5,25,-26.6014,293.264,955.438,0.228159,-1.48111,-1.76981,
2026_07_06_19_57_36.666,3.869,38.1,0,0.764,0,0,0,0, ,0,0,0,0,0, ,-18.4,292.2,964.1,-0.9,-3.2,-2.4,25,-26.0986,293.162,955.798,0.202068,-1.57672,-1.84173,
2026_07_06_19_57_36.686,3.869,38.1,0,0.766,0,0,0,0, ,0,0,0,0,0, ,-18,297.9,952.1,-0.4,-1.9,-2.1,25,-25.6172,293.277,955.939,0.150145,-1.63603,-1.86661,
2026_07_06_19_57_36.709,3.869,38,0,0.766,0,0,0,0, ,0,0,0,0,0, ,-17,301.1,951.9,1,-1.7,-1.8,25,-25.1226,293.657,955.699,0.159277,-1.64602,-1.87169,
2026_07_06_19_57_36.726,3.869,38.2,0,0.766,0,0,0,0, ,0,0,0,0,0, ,-20.2,302,958.8,0.8,-2.4,-3.5,25,-24.7251,294.138,955.677,0.204415,-1.67064,-1.91912,
2026_07_06_19_57_36.745,3.869,38.1,0,0.766,0,0,0,0, ,0,0,0,0,0, ,-19.2,296.1,962.7,0.1,-2.4,-3.8,25,-24.4189,294.437,955.987,0.21938,-1.71508,-2.0246,
2026_07_06_19_57_36.765,3.869,38.2,0,0.766,0,0,0,0, ,0,0,0,0,0, ,-22.4,295,956.1,0,-1.2,-2.3,25,-24.1984,294.505,956.195,0.209059,-1.72026,-2.08708,
2026_07_06_19_57_36.785,3.869,38.1,0,0.764,0,0,0,0, ,0,0,0,0,0, ,-19.7,296.1,955.2,-0.8,-1.9,-1.9,25,-24.0065,294.568,956.161,0.171944,-1.70988,-2.08787,
2026_07_06_19_57_36.805,3.869,38,0,0.766,0,0,0,0, ,0,0,0,0,0, ,-21.2,302,946.6,-0.9,-2.2,-2.4,25,-23.7898,294.842,955.841,0.109669,-1.73061,-2.09165,
2026_07_06_19_57_36.825,3.869,38.1,0,0.766,0,0,0,0, ,0,0,0,0,0, ,-20.7,304.3,944,0.3,-2.1,-2.8,25,-23.6167,295.348,955.198,0.0847051,-1.75616,-2.12263,
2026_07_06_19_57_36.844,3.869,38,0,0.766,0,0,0,0, ,0,0,0,0,0, ,-17.2,297.1,948.1,1.3,-0.7,-2.5,25,-23.3324,295.674,954.641,0.128293,-1.73446,-2.15477,
2026_07_06_19_57_36.864,3.869,38.1,0,0.766,0,0,0,0, ,0,0,0,0,0, ,-16.6,293.5,953.9,0.7,-0.9,-2.1,25,-22.9404,295.651,954.419,0.181413,-1.67752,-2.16362,
2026_07_06_19_57_36.883,3.869,38.1,0,0.766,0,0,0,0, ,0,0,0,0,0, ,-10.9,297.6,958.8,-1.1,-2.3,-1.4,25,-22.3804,295.645,954.537,0.158171,-1.67279,-2.13841,
2026_07_06_19_57_36.907,3.869,38.1,0,0.764,0,0,0,0, ,0,0,0,0,0, ,-11.7,298.3,946.5,-1.2,-1.8,-0.9,25,-21.7051,295.785,954.422,0.078454,-1.69578,-2.07818,
2026_07_06_19_57_36.924,3.869,38.1,0,0.764,0,0,0,0, ,0,0,0,0,0, ,-14.5,301.5,942,0.7,-0.4,-1.4,25,-21.1808,296.036,953.802,0.0584388,-1.65947,-2.02162,
2026_07_06_19_57_36.944,3.869,38.1,0,0.766,0,0,0,0, ,0,0,0,0,0, ,-13,293.8,950.4,1.6,0,-1.3,25,-20.728,296.135,953.339,0.124956,-1.57054,-1.98069,
2026_07_06_19_57_36.964,3.869,38.1,0,0.766,0,0,0,0, ,0,0,0,0,0, ,-9.3,298.9,954.7,1.5,-0.3,-0.9,25,-20.1443,296.148,953.291,0.211794,-1.48397,-1.92703,
2026_07_06_19_57_36.983,3.869,38.1,0,0.764,0,0,0,0, ,0,0,0,0,0, ,-10.7,303.7,953,1.3,-1.1,-0.9,25,-19.5261,296.462,953.325,0.284201,-1.4362,-1.86444,
2026_07_06_19_57_37.003,3.869,38.1,0,0.766,0,0,0,0, ,0,0,0,0,0, ,-14,300.5,955.3,0.9,-1.9,-0.3,25,-19.0888,296.805,953.375,0.333913,-1.44009,-1.78739,
2026_07_06_19_57_37.023,3.869,38.1,0,0.766,0,0,0,0, ,0,0,0,0,0, ,-14.7,304.4,960,0.1,-1.8,0,25,-18.8001,297.149,953.636,0.344034,-1.46507,-1.68761,
2026_07_06_19_57_37.042,3.869,38,0,0.766,0,0,0,0, ,0,0,0,0,0, ,-20.9,316.4,950.3,1.7,-1.1,-0.7,25,-18.7391,297.957,953.728,0.377914,-1.46415,-1.6061,
2026_07_06_19_57_37.063,3.869,38.2,0,0.766,0,0,0,0, ,0,0,0,0,0, ,-18.6,310.3,958.6,1.8,-0.1,-1.6,25,-18.8007,298.895,953.772,0.461525,-1.41149,-1.57831,
2026_07_06_19_57_37.082,3.869,38.1,0,0.763,0,0,0,0, ,0,0,0,0,0, ,-19.4,303.5,962.7,0.4,-0.1,-1.6,25,-18.8129,299.383,954.191,0.500432,-1.33157,-1.57963,
2026_07_06_19_57_37.102,3.869,38.1,0,0.766,0,0,0,0, ,0,0,0,0,0, ,-13.6,310.9,960.6,-0.4,-0.8,-2,25,-18.6719,299.859,954.645,0.469937,-1.27785,-1.59306,
2026_07_06_19_57_37.122,3.869,38.1,0,0.766,0,0,0,0, ,0,0,0,0,0, ,-8,311.1,952.5,1.3,-0.7,-1.3,25,-18.1922,300.538,954.762,0.468722,-1.24568,-1.59653,
2026_07_06_19_57_37.142,3.869,38.1,0,0.766,0,0,0,0, ,0,0,0,0,0, ,-13.9,307.1,958.3,1.9,-0.7,-1.9,25,-17.7509,301.06,954.8,0.537659,-1.21243,-1.59674,
2026_07_06_19_57_37.162,3.869,38,0,0.766,0,0,0,0, ,0,0,0,0,0, ,-15.1,298.9,960.8,0.7,-0.2,-2.1,25,-17.5528,301.178,955.09,0.584114,-1.16597,-1.62131,
2026_07_06_19_57_37.181,3.869,38.2,0,0.764,0,0,0,0, ,0,0,0,0,0, ,-10.1,305.1,961.1,-1.1,-0.2,-2.1,25,-17.251,301.228,955.447,0.536333,-1.10711,-1.65048,
2026_07_06_19_57_37.201,3.869,38.1,0,0.764,0,0,0,0, ,0,0,0,0,0, ,-9.1,308.7,951,-0.8,0.4,-1.5,25,-16.7848,301.574,955.484,0.445759,-1.03355,-1.65959,
2026_07_06_19_57_37.221,3.869,38,0,0.765,0,0,0,0, ,0,0,0,0,0, ,-14.6,307.3,945.5,0.6,0,-1.4,25,-16.484,301.965,955.043,0.412502,-0.958379,-1.64682,
2026_07_06_19_57_37.240,3.869,38.1,0,0.765,0,0,0,0, ,0,0,0,0,0, ,-15.3,302.7,945.5,0.4,0.7,-1.7,25,-16.3906,302.15,954.461,0.417834,-0.87865,-1.64092,
2026_07_06_19_57_37.260,3.869,38.1,0,0.765,0,0,0,0, ,0,0,0,0,0, ,-18,306.7,944.2,-0.3,0.6,-1.9,25,-16.4064,302.305,953.876,0.395419,-0.785498,-1.65062,
2026_07_06_19_57_37.280,3.869,38,0,0.766,0,0,0,0, ,0,0,0,0,0, ,-16.4,308.5,943.9,0.8,0.8,-1.3,25,-16.4547,302.628,953.277,0.386558,-0.694975,-1.64753,
2026_07_06_19_57_37.300,3.869,38.1,0,0.764,0,0,0,0, ,0,0,0,0,0, ,-18.5,304.4,945.8,0.2,0,-1.3,25,-16.5154,302.861,952.763,0.39347,-0.62825,-1.62635,
2026_07_06_19_57_37.320,3.869,38.1,0,0.766,0,0,0,0, ,0,0,0,0,0, ,-11.4,315.9,941.7,1.5,-0.5,-0.5,25,-16.42,303.305,952.214,0.42129,-0.605201,-1.58209,
2026_07_06_19_57_37.339,3.869,38.1,0,0.765,0,0,0,0, ,0,0,0,0,0, ,-17,309.5,950.5,2.4,-1.1,-1,25,-16.2847,303.878,951.842,0.514446,-0.617071,-1.53139,
2026_07_06_19_57_37.359,3.869,38.1,0,0.766,0,0,0,0, ,0,0,0,0,0, ,-20.7,304.3,957,0.6,-0.1,-1.7,25,-16.441,304.062,951.958,0.574503,-0.616031,-1.52033,
2026_07_06_19_57_37.379,3.869,38.1,0,0.764,0,0,0,0, ,0,0,0,0,0, ,-13.5,311.4,951.7,0,0.6,-2.5,25,-16.4812,304.293,952.104,0.557776,-0.563257,-1.55566,
2026_07_06_19_57_37.400,3.869,38.1,0,0.765,0,0,0,0, ,0,0,0,0,0, ,-11.8,311.1,953.8,0,0,-1.3,25,-16.2477,304.717,952.143,0.523786,-0.510653,-1.57664,
2026_07_06_19_57_37.419,3.869,38,0,0.764,0,0,0,0, ,0,0,0,0,0, ,-16.2,314.4,952.5,-0.3,-0.7,-1.5,25,-16.1108,305.206,952.204,0.482727,-0.500863,-1.56588,
2026_07_06_19_57_37.438,3.869,38,0,0.765,0,0,0,0, ,0,0,0,0,0, ,-16.8,312.2,944.5,0.7,0.1,-1.3,25,-16.1345,305.699,951.979,0.465499,-0.488623,-1.55577,
2026_07_06_19_57_37.458,3.869,38.1,0,0.765,0,0,0,0, ,0,0,0,0,0, ,-19,307.8,952.7,0.1,-0.5,-1.4,25,-16.2421,305.961,951.773,0.461507,-0.471035,-1.54323,
2026_07_06_19_57_37.478,3.869,38,0,0.768,0,0,0,0, ,0,0,0,0,0, ,-18.9,313.7,951.7,0,-0.8,-1.6,25,-16.4071,306.253,951.799,0.436431,-0.48194,-1.54059,
2026_07_06_19_57_37.498,3.869,38.1,0,0.765,0,0,0,0, ,0,0,0,0,0, ,-16.2,314.2,958.7,0,-1.3,-1.8,25,-16.4767,306.722,952.006,0.409836,-0.516557,-1.55031,
2026_07_06_19_57_37.517,3.869,38,0,0.766,0,0,0,0, ,0,0,0,0,0, ,-13.7,315.7,955,1.4,0,-0.7,25,-16.3837,307.224,952.301,0.427518,-0.524688,-1.53201,
2026_07_06_19_57_37.540,3.869,38.1,0,0.764,0,0,0,0, ,0,0,0,0,0, ,-19.7,312.7,953,0.9,-0.5,-1.4,25,-16.403,307.649,952.405,0.471544,-0.507949,-1.50264,
2026_07_06_19_57_37.559,3.869,38,0,0.765,0,0,0,0, ,0,0,0,0,0, ,-18.4,312.6,948.6,0.4,-0.2,-1.5,25,-16.5643,307.954,952.307,0.482419,-0.498324,-1.49943,
2026_07_06_19_57_37.577,3.869,38.1,0,0.765,0,0,0,0, ,0,0,0,0,0, ,-20.5,312.1,945.1,0,-0.1,-2,25,-16.7401,308.221,951.974,0.465209,-0.477098,-1.5147,
2026_07_06_19_57_37.597,3.869,38.1,0,0.766,0,0,0,0, ,0,0,0,0,0, ,-15.8,313.3,949.7,-0.9,-1.3,-2.7,25,-16.826,308.494,951.696,0.409438,-0.490681,-1.5656,
2026_07_06_19_57_37.617,3.869,38.1,0,0.766,0,0,0,0, ,0,0,0,0,0, ,-4.2,317,948.9,1.2,-0.1,-1.3,25,-16.4101,308.9,951.55,0.393629,-0.503437,-1.59207,
2026_07_06_19_57_37.636,3.869,38,0,0.765,0,0,0,0, ,0,0,0,0,0, ,-13.5,311.4,956.4,0.7,-1.4,-0.9,25,-15.9494,309.223,951.617,0.427533,-0.518462,-1.56208,
2026_07_06_19_57_37.656,3.869,38,0,0.765,0,0,0,0, ,0,0,0,0,0, ,-16.4,314.5,947.2,-0.4,-1.1,-1.3,25,-15.8885,309.45,951.628,0.410621,-0.56304,-1.53393,
2026_07_06_19_57_37.676,3.869,38.1,0,0.765,0,0,0,0, ,0,0,0,0,0, ,-18.9,318.3,941,-0.4,-1.1,-1.9,25,-15.9958,309.874,951.169,0.361223,-0.595761,-1.53795,
2026_07_06_19_57_37.696,3.869,38.1,0,0.765,0,0,0,0, ,0,0,0,0,0, ,-14.2,313.5,952.1,0.1,-0.8,-1.8,25,-16.0296,310.241,950.888,0.330071,-0.617347,-1.55697,
2026_07_06_19_57_37.716,3.869,38,0,0.766,0,0,0,0, ,0,0,0,0,0, ,-12.9,321.7,954.8,-0.2,-0.3,-1.1,25,-15.8785,310.689,951.044,0.30691,-0.613243,-1.55045,
2026_07_06_19_57_37.735,3.869,38,0,0.765,0,0,0,0, ,0,0,0,0,0, ,-14.5,317.7,937.1,0.6,0.4,-1.5,25,-15.7457,311.238,950.733,0.300395,-0.572827,-1.53519,
2026_07_06_19_57_37.760,3.869,38,0,0.765,0,0,0,0, ,0,0,0,0,0, ,-9.7,317.8,943.4,2,0.6,-0.7,25,-15.5236,311.635,950.095,0.361309,-0.507452,-1.50867,
2026_07_06_19_57_37.775,3.869,38,0,0.765,0,0,0,0, ,0,0,0,0,0, ,-12.8,318.7,950,3.2,2.3,-0.4,25,-15.2632,312.038,949.888,0.497729,-0.388169,-1.45025,
2026_07_06_19_57_37.795,3.869,38.1,0,0.766,0,0,0,0, ,0,0,0,0,0, ,-27.7,316.6,958.3,2,8.8,-1.4,25,-15.567,312.38,950.147,0.625836,-0.0263122,-1.41672,
2026_07_06_19_57_37.814,3.869,37.9,0,0.766,0,0,0,0, ,0,0,0,0,0, ,-34.9,317,937.2,0.8,9.8,-3.6,25,-16.5258,312.65,950.001,0.673012,0.54201,-1.48273,
2026_07_06_19_57_37.835,3.869,38,0,0.765,0,0,0,0, ,0,0,0,0,0, ,-29.5,320.3,932,1.1,9.7,-3.8,25,-17.4809,313.015,949.063,0.689891,1.10312,-1.61785,
2026_07_06_19_57_37.855,3.869,38,0,0.766,0,0,0,0, ,0,0,0,0,0, ,-18.3,317.1,931,2.8,4.9,-2,25,-17.8721,313.362,947.993,0.766679,1.48074,-1.69598,
2026_07_06_19_57_37.874,3.869,38.1,0,0.766,0,0,0,0, ,0,0,0,0,0, ,-19.7,314.3,945.3,1.9,-0.1,-0.4,25,-17.9408,313.504,947.393,0.863162,1.53676,-1.66575,
2026_07_06_19_57_37.894,3.869,38,0,0.765,0,0,0,0, ,0,0,0,0,0, ,-30.7,318.2,942.8,0.7,-3.5,-0.6,25,-18.3832,313.671,947.189,0.889782,1.33343,-1.59472,
2026_07_06_19_57_37.914,3.869,38.1,0,0.766,0,0,0,0, ,0,0,0,0,0, ,-28.5,323.7,957,0,-4.6,-1.5,25,-19.0667,314.115,947.354,0.856889,1.00537,-1.56152,
2026_07_06_19_57_37.934,3.869,38.1,0,0.765,0,0,0,0, ,0,0,0,0,0, ,-24.1,328.9,963.1,0.1,-2.6,-2,25,-19.5075,314.857,948.128,0.807719,0.724735,-1.57301,
2026_07_06_19_57_37.953,3.869,38,0,0.764,0,0,0,0, ,0,0,0,0,0, ,-24.2,327.7,955.4,0.4,-0.2,-1.9,25,-19.7904,315.677,948.806,0.773733,0.595259,-1.59598,
2026_07_06_19_57_37.973,3.869,38,0,0.765,0,0,0,0, ,0,0,0,0,0, ,-27.3,327.8,954.8,0,-1.1,-1.9,25,-20.1535,316.412,949.189,0.738771,0.519376,-1.61451,
2026_07_06_19_57_37.993,3.869,38,0,0.766,0,0,0,0, ,0,0,0,0,0, ,-22.7,322.6,959.1,-0.7,-0.2,-1.8,25,-20.4489,316.948,949.662,0.672424,0.448117,-1.62886,
2026_07_06_19_57_38.012,3.869,37.9,0,0.765,0,0,0,0, ,0,0,0,0,0, ,-21.9,326.7,960.5,-0.8,2.2,-1.7,25,-20.5617,317.417,950.28,0.585745,0.481747,-1.63624,
2026_07_06_19_57_38.033,3.869,38.1,0,0.764,0,0,0,0, ,0,0,0,0,0, ,-31.1,313.2,950.6,-1.6,4.9,-2.6,25,-20.9235,317.572,950.601,0.476927,0.668719,-1.66755,
2026_07_06_19_57_38.052,3.869,38.1,0,0.765,0,0,0,0, ,0,0,0,0,0, ,-26.6,310.5,942.8,-3.1,4,-2.7,25,-21.4066,317.223,950.363,0.304661,0.899141,-1.72741,
2026_07_06_19_57_38.072,3.869,38.1,0,0.765,0,0,0,0, ,0,0,0,0,0, ,-25.2,323.4,927.1,-2.5,5.9,-2.6,25,-21.6804,317.206,949.424,0.11547,1.14599,-1.78363,
2026_07_06_19_57_38.092,3.869,38,0,0.766,0,0,0,0, ,0,0,0,0,0, ,-33.9,336.9,918.4,0.4,5.5,-1.5,25,-22.1599,317.995,947.799,0.0444496,1.4235,-1.79987,
2026_07_06_19_57_38.112,3.869,38,0,0.766,0,0,0,0, ,0,0,0,0,0, ,-38.2,318.7,938.9,1.2,2,-2,25,-23.0064,318.593,946.632,0.090491,1.56527,-1.79683,
2026_07_06_19_57_38.132,3.869,38.1,0,0.765,0,0,0,0, ,0,0,0,0,0, ,-40.8,320.1,951.9,-0.7,0.6,-1.8,25,-24.0114,318.642,946.557,0.100211,1.54911,-1.80311,
2026_07_06_19_57_38.152,3.869,37.9,0,0.764,0,0,0,0, ,0,0,0,0,0, ,-37.3,323.2,941.8,-0.4,-0.7,-1.7,25,-24.9279,318.825,946.575,0.0605888,1.45166,-1.79988,
2026_07_06_19_57_38.172,3.869,38,0,0.764,0,0,0,0, ,0,0,0,0,0, ,-32.3,327.5,945.6,0.7,-3.5,-0.8,25,-25.5294,319.223,946.399,0.0660373,1.23523,-1.76637,
2026_07_06_19_57_38.192,3.869,38,0,0.765,0,0,0,0, ,0,0,0,0,0, ,-29.6,322.2,954.7,0.4,-5.4,-0.9,25,-25.8598,319.566,946.628,0.0955288,0.888787,-1.71053,
2026_07_06_19_57_38.211,3.869,38,0,0.766,0,0,0,0, ,0,0,0,0,0, ,-33,327.7,954.7,0.1,-2.1,-1.6,25,-26.1913,319.894,947.12,0.104942,0.606111,-1.68247,
2026_07_06_19_57_38.231,3.869,38.1,0,0.764,0,0,0,0, ,0,0,0,0,0, ,-31.8,327,949.2,0.9,-0.7,-2,25,-26.5696,320.348,947.414,0.129016,0.483864,-1.68963,
2026_07_06_19_57_38.250,3.869,38,0,0.764,0,0,0,0, ,0,0,0,0,0, ,-27.4,323.6,959.3,-0.3,-1.5,-1.8,25,-26.7543,320.65,947.831,0.139435,0.387347,-1.70245,
2026_07_06_19_57_38.270,3.869,38,0,0.765,0,0,0,0, ,0,0,0,0,0, ,-27.2,328.9,951.7,-1,-2.9,-1,25,-26.7875,320.991,948.298,0.0913289,0.229681,-1.68402,
2026_07_06_19_57_38.290,3.869,38.1,0,0.765,0,0,0,0, ,0,0,0,0,0, ,-26.2,329.2,949.8,-0.3,-2.8,-0.9,25,-26.7822,321.482,948.448,0.0461542,0.0420128,-1.63929,
2026_07_06_19_57_38.311,3.869,38,0,0.765,0,0,0,0, ,0,0,0,0,0, ,-31,322,957.3,0.3,-0.4,-1.2,25,-26.893,321.733,948.758,0.0433416,-0.0580473,-1.60338,
2026_07_06_19_57_38.330,3.869,38,0,0.766,0,0,0,0, ,0,0,0,0,0, ,-29.9,323.6,959.1,-0.6,1.9,-2,25,-27.1097,321.798,949.334,0.0315599,-0.00880696,-1.60317,
2026_07_06_19_57_38.349,3.869,38,0,0.764,0,0,0,0, ,0,0,0,0,0, ,-26.4,326.5,948.4,-0.2,4.9,-2.3,25,-27.1731,321.996,949.603,0.00526171,0.198917,-1.63649,
2026_07_06_19_57_38.369,3.869,38.1,0,0.766,0,0,0,0, ,0,0,0,0,0, ,-33.2,325.9,936,0.1,4.7,-1.6,25,-27.3332,322.252,949.152,0.0018942,0.479296,-1.6556,
2026_07_06_19_57_38.389,3.869,38.1,0,0.765,0,0,0,0, ,0,0,0,0,0, ,-39.1,332.8,940.7,0,1.3,-2.2,25,-27.8705,322.685,948.494,0.00482565,0.632901,-1.67049,
2026_07_06_19_57_38.409,3.869,37.9,0,0.765,0,0,0,0, ,0,0,0,0,0, ,-35,324.4,942.2,1,1.1,-2.4,25,-28.4298,323.045,948.064,0.0350003,0.667459,-1.70885,
2026_07_06_19_57_38.428,3.869,37.9,0,0.765,0,0,0,0, ,0,0,0,0,0, ,-37.9,320.5,948.9,0.3,0.1,-1.5,25,-28.9186,323.009,947.911,0.0724769,0.663348,-1.72355,
2026_07_06_19_57_38.449,3.869,38,0,0.766,0,0,0,0, ,0,0,0,0,0, ,-36.3,325.5,944.8,-0.9,-0.6,-1.8,25,-29.4171,323.009,947.846,0.0497791,0.607691,-1.71907,
2026_07_06_19_57_38.469,3.869,38,0,0.766,0,0,0,0, ,0,0,0,0,0, ,-28.5,325.6,937.2,-0.2,-1.5,-1.1,25,-29.5989,323.163,947.429,0.01323,0.506675,-1.70267,
2026_07_06_19_57_38.488,3.869,38,0,0.765,0,0,0,0, ,0,0,0,0,0, ,-37.2,325.5,941.5,0,-2.4,-0.7,25,-29.797,323.309,946.937,0.00633008,0.356972,-1.65376,
2026_07_06_19_57_38.508,3.869,38.1,0,0.766,0,0,0,0, ,0,0,0,0,0, ,-37.5,325.4,937.3,-0.2,-1.8,-2,25,-30.2573,323.439,946.478,-0.00014941,0.20725,-1.63525,
2026_07_06_19_57_38.528,3.869,38,0,0.766,0,0,0,0, ,0,0,0,0,0, ,-32.9,325.8,938.2,0.8,0.2,-1.5,25,-30.5585,323.571,945.946,0.0181409,0.145871,-1.64224,
2026_07_06_19_57_38.548,3.869,38.1,0,0.766,0,0,0,0, ,0,0,0,0,0, ,-32.9,322.6,944.5,1.2,0,-0.8,25,-30.7012,323.609,945.666,0.077973,0.143075,-1.61224,
2026_07_06_19_57_38.568,3.869,38,0,0.766,0,0,0,0, ,0,0,0,0,0, ,-33.6,325.8,949.4,0.1,-0.7,-0.4,25,-30.8565,323.645,945.744,0.112831,0.113029,-1.55056,
2026_07_06_19_57_38.588,3.869,37.9,0,0.764,0,0,0,0, ,0,0,0,0,0, ,-36.7,333.9,941.8,0.3,-0.5,-0.1,25,-31.1181,324.023,945.735,0.118143,0.0695784,-1.47131,
2026_07_06_19_57_38.607,3.869,38,0,0.766,0,0,0,0, ,0,0,0,0,0, ,-38,330,945,1.2,0.2,-0.9,25,-31.4979,324.506,945.593,0.156647,0.0561979,-1.41212,
2026_07_06_19_57_38.628,3.869,38,0,0.764,0,0,0,0, ,0,0,0,0,0, ,-38.6,328.8,949.4,0.7,0.1,-1.1,25,-31.9124,324.805,945.691,0.204992,0.0619139,-1.387,
2026_07_06_19_57_38.650,3.869,38.1,0,0.764,0,0,0,0, ,0,0,0,0,0, ,-37.5,325.8,943.4,-0.5,0.1,-1.6,25,-32.2864,324.957,945.734,0.198594,0.0642348,-1.38475,
2026_07_06_19_57_38.670,3.869,38,0,0.766,0,0,0,0, ,0,0,0,0,0, ,-33.6,330.2,936.6,-0.8,-0.6,-2.1,25,-32.4853,325.142,945.385,0.146882,0.0450861,-1.4131,
2026_07_06_19_57_38.686,3.869,38,0,0.767,0,0,0,0, ,0,0,0,0,0, ,-27.7,334.9,936.7,1.2,-1.4,-1,25,-32.3734,325.594,944.852,0.150119,-0.0185988,-1.42144,
2026_07_06_19_57_38.707,3.869,38.1,0,0.767,0,0,0,0, ,0,0,0,0,0, ,-34.1,326,951.2,1.4,-2.4,-1.2,25,-32.2836,325.89,944.797,0.22019,-0.133247,-1.40186,
2026_07_06_19_57_38.727,3.869,38,0,0.764,0,0,0,0, ,0,0,0,0,0, ,-31.3,322.9,952.2,-0.5,-0.9,-1.4,25,-32.309,325.802,945.218,0.234194,-0.225674,-1.39565,
2026_07_06_19_57_38.746,3.869,38.1,0,0.766,0,0,0,0, ,0,0,0,0,0, ,-32.7,331.6,944,-0.8,-0.1,-1.5,25,-32.2902,325.89,945.394,0.180314,-0.242391,-1.39896,
2026_07_06_19_57_38.766,3.869,38,0,0.768,0,0,0,0, ,0,0,0,0,0, ,-28,332.1,951.7,-0.2,-0.8,-1,25,-32.172,326.253,945.543,0.138857,-0.255042,-1.38988,
2026_07_06_19_57_38.785,3.869,38,0,0.766,0,0,0,0, ,0,0,0,0,0, ,-34.4,333.1,950.6,-0.3,-0.1,-0.8,25,-32.1127,326.64,945.885,0.115161,-0.266922,-1.36003,
2026_07_06_19_57_38.805,3.869,38,0,0.766,0,0,0,0, ,0,0,0,0,0, ,-33.9,329.9,941.4,-0.4,0.2,-1,25,-32.2369,326.936,945.892,0.0868153,-0.24761,-1.332,
2026_07_06_19_57_38.825,3.869,38,0,0.767,0,0,0,0, ,0,0,0,0,0, ,-34.7,332.1,945.1,-1.5,-0.6,-1,25,-32.3626,327.184,945.731,0.0236343,-0.244708,-1.31177,
2026_07_06_19_57_38.845,3.869,38,0,0.764,0,0,0,0, ,0,0,0,0,0, ,-29.7,328.6,946.7,-2.1,-1.7,-0.6,25,-32.3527,327.377,945.741,-0.0874934,-0.299875,-1.28058,
2026_07_06_19_57_38.864,3.869,37.9,0,0.766,0,0,0,0, ,0,0,0,0,0, ,-28.6,330.4,947,-1.5,-0.3,0.2,25,-32.1575,327.506,945.809,-0.191849,-0.342538,-1.21473,
2026_07_06_19_57_38.884,3.869,37.9,0,0.766,0,0,0,0, ,0,0,0,0,0, ,-41.7,334.2,942.7,-0.9,0,-0.2,25,-32.3399,327.798,945.75,-0.253283,-0.330806,-1.14071,
2026_07_06_19_57_38.904,3.869,37.9,0,0.766,0,0,0,0, ,0,0,0,0,0, ,-43.2,332,937.7,0,0.8,-2,25,-32.956,328.121,945.412,-0.265271,-0.286272,-1.13823,
2026_07_06_19_57_38.924,3.869,37.8,0,0.766,0,0,0,0, ,0,0,0,0,0, ,-40.7,333.3,935.6,0.2,0.6,-2.1,25,-33.504,328.397,944.878,-0.243012,-0.226171,-1.19379,
2026_07_06_19_57_38.944,3.869,38,0,0.764,0,0,0,0, ,0,0,0,0,0, ,-40.5,329.7,944.3,0,0,-2.5,25,-33.9364,328.586,944.578,-0.22211,-0.194108,-1.2612,
2026_07_06_19_57_38.964,3.869,38,0,0.767,0,0,0,0, ,0,0,0,0,0, ,-37.9,328.6,944.4,0.1,-0.7,-2.1,25,-34.2572,328.621,944.564,-0.205528,-0.203607,-1.3245,
2026_07_06_19_57_38.985,3.869,38.1,0,0.767,0,0,0,0, ,0,0,0,0,0, ,-37.8,334.1,939.4,0.5,-1.6,-2.1,25,-34.4761,328.787,944.402,-0.174723,-0.261278,-1.37176,
2026_07_06_19_57_39.003,3.869,37.9,0,0.766,0,0,0,0, ,0,0,0,0,0, ,-35.4,331.9,943.2,0.8,-1,-2.1,25,-34.6056,329.044,944.213,-0.124466,-0.324575,-1.41614,
2026_07_06_19_57_39.024,3.869,37.9,0,0.766,0,0,0,0, ,0,0,0,0,0, ,-36,329.9,949.4,0.6,0.3,-2,25,-34.6722,329.157,944.34,-0.0742251,-0.326125,-1.45476,
2026_07_06_19_57_39.044,3.869,37.9,0,0.766,0,0,0,0, ,0,0,0,0,0, ,-33.5,332.1,945.6,1,0.2,-2.3,25,-34.677,329.269,944.532,-0.020952,-0.291017,-1.49713,
2026_07_06_19_57_39.065,3.869,38,0,0.764,0,0,0,0, ,0,0,0,0,0, ,-28.6,326.2,951.5,-0.3,-1,-2,25,-34.456,329.262,944.777,0.00165287,-0.297658,-1.53691,
2026_07_06_19_57_39.083,3.869,38.1,0,0.766,0,0,0,0, ,0,0,0,0,0, ,-29.1,329.3,947.1,-1.5,-1.8,-1.5,25,-34.1144,329.17,945.053,-0.0532916,-0.364832,-1.5499,
2026_07_06_19_57_39.102,3.869,38,0,0.766,0,0,0,0, ,0,0,0,0,0, ,-32.7,331.9,944.8,-1.6,-2.5,-0.7,25,-33.9185,329.257,945.108,-0.144497,-0.473616,-1.52248,
2026_07_06_19_57_39.122,3.869,37.9,0,0.766,0,0,0,0, ,0,0,0,0,0, ,-38.3,335.3,939.2,-0.8,-2.6,-1.3,25,-34.0149,329.522,944.918,-0.208817,-0.600145,-1.49064,
2026_07_06_19_57_39.144,3.869,38.1,0,0.767,0,0,0,0, ,0,0,0,0,0, ,-35.1,336.7,946.1,0.5,-1.5,-1.9,25,-34.1785,329.916,944.78,-0.205233,-0.688496,-1.49731,
2026_07_06_19_57_39.162,3.869,38,0,0.766,0,0,0,0, ,0,0,0,0,0, ,-32.3,334.1,958.8,0.1,-1.2,-2.3,25,-34.1493,330.251,945.247,-0.174445,-0.728806,-1.53403,
2026_07_06_19_57_39.183,3.869,38,0,0.766,0,0,0,0, ,0,0,0,0,0, ,-33.5,332,953.6,-1.2,-1.3,-2,25,-34.0732,330.421,945.915,-0.197331,-0.760567,-1.57157,
2026_07_06_19_57_39.202,3.869,38,0,0.766,0,0,0,0, ,0,0,0,0,0, ,-34.1,334.4,939.4,-1.8,-0.5,-2.4,25,-34.0565,330.59,945.95,-0.276712,-0.769063,-1.60986,
2026_07_06_19_57_39.222,3.869,38,0,0.766,0,0,0,0, ,0,0,0,0,0, ,-27,337,931.5,0.1,0,-2,25,-33.8429,330.902,945.311,-0.311647,-0.737433,-1.64583,
2026_07_06_19_57_39.241,3.869,37.9,0,0.766,0,0,0,0, ,0,0,0,0,0, ,-28.5,333.1,940.7,1,0.1,-1.5,25,-33.4716,331.155,944.749,-0.25914,-0.689449,-1.65217,
2026_07_06_19_57_39.261,3.869,38,0,0.768,0,0,0,0, ,0,0,0,0,0, ,-33.5,327.7,939.6,-0.1,-0.1,-2,25,-33.321,331.109,944.469,-0.215927,-0.647435,-1.65813,
2026_07_06_19_57_39.280,3.869,38,0,0.766,0,0,0,0, ,0,0,0,0,0, ,-29.7,327,942.2,-1.5,-0.7,-2.6,25,-33.2161,330.88,944.252,-0.251519,-0.632357,-1.69725,
2026_07_06_19_57_39.302,3.869,37.9,0,0.767,0,0,0,0, ,0,0,0,0,0, ,-21.3,335.9,942.3,-0.5,-0.1,-1.9,25,-32.7459,330.914,944.13,-0.297129,-0.618198,-1.73093,
2026_07_06_19_57_39.321,3.869,38,0,0.766,0,0,0,0, ,0,0,0,0,0, ,-24.5,330,939.2,0.7,0,-1.3,25,-32.1459,331.038,943.924,-0.272929,-0.583573,-1.72295,
2026_07_06_19_57_39.342,3.869,38,0,0.766,0,0,0,0, ,0,0,0,0,0, ,-27.3,328.1,943.8,0.3,-0.8,-0.9,25,-31.7653,330.917,943.776,-0.225829,-0.572387,-1.68499,
2026_07_06_19_57_39.363,3.869,37.9,0,0.766,0,0,0,0, ,0,0,0,0,0, ,-29.9,326,948.6,-0.9,-1.7,-1,25,-31.5724,330.682,943.924,-0.230349,-0.613679,-1.6402,
2026_07_06_19_57_39.386,3.869,38,0,0.766,0,0,0,0, ,0,0,0,0,0, ,-27.9,332.6,946.6,-1.5,-1,-0.9,25,-31.4096,330.597,944.148,-0.289437,-0.658549,-1.59814,
2026_07_06_19_57_39.400,3.869,38,0,0.766,0,0,0,0, ,0,0,0,0,0, ,-26.7,335.5,942.2,-1.1,-1.1,-0.5,25,-31.1591,330.808,944.163,-0.351018,-0.682403,-1.54341,
2026_07_06_19_57_39.421,3.869,37.9,0,0.766,0,0,0,0, ,0,0,0,0,0, ,-27.3,337,946.5,-0.5,-1,0,25,-30.9057,331.139,944.174,-0.378378,-0.704803,-1.4646,
2026_07_06_19_57_39.439,3.869,38.1,0,0.766,0,0,0,0, ,0,0,0,0,0, ,-35.4,332.7,939.6,0,0.4,-0.3,25,-30.9328,331.366,944.106,-0.370555,-0.680135,-1.38449,
2026_07_06_19_57_39.460,3.869,38,0,0.766,0,0,0,0, ,0,0,0,0,0, ,-35.6,331.9,940,-0.1,0,-1.5,25,-31.2111,331.422,943.844,-0.351021,-0.626502,-1.35496,
2026_07_06_19_57_39.479,3.869,37.9,0,0.766,0,0,0,0, ,0,0,0,0,0, ,-33.3,331.7,945.3,-1.2,-0.5,-1.1,25,-31.4085,331.445,943.771,-0.36924,-0.603559,-1.35162,
2026_07_06_19_57_39.501,3.869,37.8,0,0.766,0,0,0,0, ,0,0,0,0,0, ,-32.8,334.9,942.5,-1.1,-0.6,-1.6,25,-31.5085,331.558,943.779,-0.416818,-0.600295,-1.35152,
2026_07_06_19_57_39.519,3.869,38,0,0.767,0,0,0,0, ,0,0,0,0,0, ,-29.5,329.5,941,-0.2,0,-1.8,25,-31.4866,331.598,943.655,-0.431027,-0.581996,-1.37275,
2026_07_06_19_57_39.540,3.869,37.9,0,0.766,0,0,0,0, ,0,0,0,0,0, ,-27,332.3,936.5,0.1,-0.3,-1.4,25,-31.2894,331.555,943.356,-0.407808,-0.555671,-1.3866,
2026_07_06_19_57_39.559,3.869,38,0,0.764,0,0,0,0, ,0,0,0,0,0, ,-24.5,332.5,930.7,0.7,-1.9,-0.9,25,-30.9518,331.607,942.762,-0.358583,-0.588841,-1.37218,
2026_07_06_19_57_39.580,3.869,38.1,0,0.765,0,0,0,0, ,0,0,0,0,0, ,-26,329.7,943.3,0.5,-2.6,-0.1,25,-30.6044,331.576,942.411,-0.300169,-0.690068,-1.31903,
2026_07_06_19_57_39.598,3.869,38,0,0.767,0,0,0,0, ,0,0,0,0,0, ,-25.7,332.6,956.4,0.1,-2.3,-0.4,25,-30.3147,331.55,942.864,-0.263596,-0.797314,-1.25389,
2026_07_06_19_57_39.621,3.869,37.9,0,0.766,0,0,0,0, ,0,0,0,0,0, ,-30.3,331.7,955.3,-0.3,-1.1,-0.4,25,-30.1736,331.586,943.655,-0.253627,-0.852321,-1.20186,
2026_07_06_19_57_39.638,3.869,38,0,0.766,0,0,0,0, ,0,0,0,0,0, ,-33.2,330,948.9,-0.9,-0.4,-0.7,25,-30.2697,331.541,944.17,-0.274734,-0.846086,-1.16213,
2026_07_06_19_57_39.660,3.869,38,0,0.767,0,0,0,0, ,0,0,0,0,0, ,-38.6,337.4,940.5,-1.7,-0.5,-1,25,-30.6128,331.673,944.202,-0.337211,-0.82195,-1.14311,
2026_07_06_19_57_39.677,3.869,38,0,0.766,0,0,0,0, ,0,0,0,0,0, ,-36.9,340.9,937,-1,0,-1.3,25,-31.0477,332.129,943.87,-0.398928,-0.787097,-1.14353,
2026_07_06_19_57_39.698,3.869,38,0,0.767,0,0,0,0, ,0,0,0,0,0, ,-36.3,333.1,941.8,-0.2,-0.3,-1.3,25,-31.386,332.425,943.598,-0.411181,-0.748273,-1.15307,
2026_07_06_19_57_39.718,3.869,38,0,0.766,0,0,0,0, ,0,0,0,0,0, ,-33.5,332,942.6,-0.5,-0.1,-2,25,-31.6002,332.433,943.512,-0.407453,-0.714863,-1.18335,
2026_07_06_19_57_39.740,3.869,37.9,0,0.764,0,0,0,0, ,0,0,0,0,0, ,-32.7,330.3,937.1,-0.4,0,-2,25,-31.6916,332.355,943.289,-0.410045,-0.674348,-1.23311,
2026_07_06_19_57_39.757,3.869,38,0,0.764,0,0,0,0, ,0,0,0,0,0, ,-27.4,330.8,929.8,0.1,-0.3,-2.1,25,-31.5915,332.245,942.69,-0.394199,-0.642396,-1.28289,
2026_07_06_19_57_39.777,3.869,38,0,0.764,0,0,0,0, ,0,0,0,0,0, ,-26.9,330.3,936.7,0.7,-1.6,-1.9,25,-31.3209,332.142,942.114,-0.345802,-0.66114,-1.32659,
2026_07_06_19_57_39.796,3.869,37.9,0,0.766,0,0,0,0, ,0,0,0,0,0, ,-21.3,330.4,950.1,-0.1,-1.8,-1.7,25,-30.8809,332.032,942.193,-0.306449,-0.724446,-1.35544,
2026_07_06_19_57_39.819,3.869,37.9,0,0.766,0,0,0,0, ,0,0,0,0,0, ,-22.2,337.7,943.7,0,-1.3,-1.6,25,-30.3244,332.155,942.48,-0.290821,-0.774753,-1.37339,
2026_07_06_19_57_39.836,3.869,38,0,0.766,0,0,0,0, ,0,0,0,0,0, ,-25.1,333.3,938.7,0.3,-1.1,-1.2,25,-29.9177,332.359,942.402,-0.263959,-0.800666,-1.37501,
2026_07_06_19_57_39.857,3.869,38,0,0.766,0,0,0,0, ,0,0,0,0,0, ,-23.9,332.7,947.2,0.1,-0.9,-0.7,25,-29.5876,332.398,942.435,-0.235686,-0.812813,-1.34911,
2026_07_06_19_57_39.878,3.869,38,0,0.766,0,0,0,0, ,0,0,0,0,0, ,-28.1,334.2,953.6,-1.4,-1,-1.2,25,-29.369,332.462,942.92,-0.260934,-0.821173,-1.32479,
2026_07_06_19_57_39.901,3.869,38,0,0.766,0,0,0,0, ,0,0,0,0,0, ,-30.7,337.6,938.8,-0.8,0,-1,25,-29.3709,332.672,943.12,-0.312064,-0.801602,-1.31109,
2026_07_06_19_57_39.915,3.869,38,0,0.766,0,0,0,0, ,0,0,0,0,0, ,-32.2,338.6,933.7,-0.6,-0.2,-0.9,25,-29.4976,333.003,942.702,-0.335704,-0.758848,-1.28909,
2026_07_06_19_57_39.937,3.869,38,0,0.766,0,0,0,0, ,0,0,0,0,0, ,-32.5,336,937.9,0,-1.2,-1.4,25,-29.6714,333.264,942.281,-0.333528,-0.755262,-1.28061,
2026_07_06_19_57_39.955,3.869,38,0,0.766,0,0,0,0, ,0,0,0,0,0, ,-27.9,335.3,955.2,-0.6,-1.9,-1.4,25,-29.7036,333.41,942.541,-0.331485,-0.803691,-1.28789,
2026_07_06_19_57_39.976,3.869,38,0,0.766,0,0,0,0, ,0,0,0,0,0, ,-30.5,336,957.3,-1.6,-1.1,-2,25,-29.6729,333.546,943.377,-0.378317,-0.846122,-1.313,
2026_07_06_19_57_39.995,3.869,38,0,0.765,0,0,0,0, ,0,0,0,0,0, ,-34.5,335,953.9,-2.9,-0.2,-2.4,25,-29.8452,333.665,944.121,-0.492372,-0.834171,-1.36705,
2026_07_06_19_57_40.018,3.869,38,0,0.766,0,0,0,0, ,0,0,0,0,0, ,-26.4,340.2,943.2,-2.1,-0.2,-2.4,25,-29.882,333.905,944.391,-0.614712,-0.795526,-1.43,
2026_07_06_19_57_40.034,3.869,37.9,0,0.766,0,0,0,0, ,0,0,0,0,0, ,-25.3,339.2,943.7,-0.7,-0.3,-1.9,25,-29.6363,334.258,944.334,-0.662566,-0.762283,-1.47387,
2026_07_06_19_57_40.057,3.869,37.9,0,0.764,0,0,0,0, ,0,0,0,0,0, ,-30.6,333.4,938.9,0.6,0.3,-1.6,25,-29.5336,334.383,944.149,-0.625237,-0.715832,-1.4907,
2026_07_06_19_57_40.074,3.869,38,0,0.764,0,0,0,0, ,0,0,0,0,0, ,-26.9,334.8,939.2,0.5,-0.2,-1.8,25,-29.4858,334.365,943.838,-0.553621,-0.669164,-1.50345,
2026_07_06_19_57_40.096,3.869,38,0,0.766,0,0,0,0, ,0,0,0,0,0, ,-21.4,332.1,948.7,-0.2,-1.8,-1.8,25,-29.1607,334.31,943.845,-0.510744,-0.689324,-1.52152,
2026_07_06_19_57_40.113,3.869,38,0,0.766,0,0,0,0, ,0,0,0,0,0, ,-23.6,332.1,946.5,-0.5,-1.2,-1.6,25,-28.7548,334.175,944.074,-0.500949,-0.738725,-1.5324,
2026_07_06_19_57_40.135,3.869,38,0,0.765,0,0,0,0, ,0,0,0,0,0, ,-26.1,334.3,938.1,-0.1,0,-2,25,-28.5168,334.116,943.966,-0.488704,-0.730271,-1.54871,
2026_07_06_19_57_40.153,3.869,37.9,0,0.764,0,0,0,0, ,0,0,0,0,0, ,-22.2,335.2,936.2,0.1,-0.3,-2.2,25,-28.2507,334.154,943.55,-0.458923,-0.694911,-1.5823,
2026_07_06_19_57_40.176,3.869,38,0,0.764,0,0,0,0, ,0,0,0,0,0, ,-19.4,332.1,942.3,0.1,-0.3,-1.5,25,-27.7967,334.124,943.288,-0.424864,-0.670846,-1.59861,
2026_07_06_19_57_40.193,3.869,38,0,0.764,0,0,0,0, ,0,0,0,0,0, ,-25.6,329.3,936.5,-0.3,0.5,-1.5,25,-27.4739,333.915,943.051,-0.405068,-0.623873,-1.59261,
2026_07_06_19_57_40.214,3.869,37.9,0,0.766,0,0,0,0, ,0,0,0,0,0, ,-21.9,328.3,930.5,-0.8,0.3,-1.6,25,-27.247,333.603,942.469,-0.413899,-0.56148,-1.59001,
2026_07_06_19_57_40.232,3.869,37.9,0,0.766,0,0,0,0, ,0,0,0,0,0, ,-17.5,329.2,930.7,0.1,-0.1,-1.1,25,-26.7871,333.307,941.746,-0.410006,-0.521171,-1.57538,
2026_07_06_19_57_40.255,3.869,37.9,0,0.766,0,0,0,0, ,0,0,0,0,0, ,-22,338,933.3,0.7,-0.8,-0.3,25,-26.3583,333.325,941.152,-0.360646,-0.516834,-1.52204,
2026_07_06_19_57_40.272,3.869,38,0,0.766,0,0,0,0, ,0,0,0,0,0, ,-26.2,331.7,931.6,0.5,-0.9,-1.3,25,-26.2207,333.418,940.622,-0.302106,-0.537137,-1.47804,
2026_07_06_19_57_40.294,3.869,38,0,0.764,0,0,0,0, ,0,0,0,0,0, ,-23.3,334.5,939.9,-0.1,-1.5,-1.1,25,-26.1311,333.399,940.325,-0.271509,-0.57753,-1.4611,
2026_07_06_19_57_40.313,3.869,37.9,0,0.766,0,0,0,0, ,0,0,0,0,0, ,-29.1,337.6,938.4,-1,-1,-0.9,25,-26.1353,333.56,940.253,-0.28848,-0.618509,-1.433,
2026_07_06_19_57_40.337,3.869,38,0,0.765,0,0,0,0, ,0,0,0,0,0, ,-26,341.9,936.1,-0.1,-0.1,-1.5,25,-26.2215,333.938,940.07,-0.304416,-0.614334,-1.4188,
2026_07_06_19_57_40.351,3.869,38,0,0.766,0,0,0,0, ,0,0,0,0,0, ,-27.5,343.2,943.7,0.4,-0.1,-0.7,25,-26.2537,334.462,940.06,-0.276725,-0.582992,-1.39937,
2026_07_06_19_57_40.373,3.869,38,0,0.766,0,0,0,0, ,0,0,0,0,0, ,-31.1,342.4,940.5,1.1,0,-0.9,25,-26.4393,334.97,940.184,-0.214159,-0.550512,-1.36285,
2026_07_06_19_57_40.390,3.869,37.9,0,0.767,0,0,0,0, ,0,0,0,0,0, ,-24.7,337.8,940.3,0.9,-0.5,-0.5,25,-26.5283,335.283,940.197,-0.140171,-0.5322,-1.32246,
2026_07_06_19_57_40.413,3.869,38,0,0.766,0,0,0,0, ,0,0,0,0,0, ,-17.4,336.1,945.5,0.9,-0.9,0,25,-26.1945,335.385,940.362,-0.0767859,-0.542425,-1.2571,
2026_07_06_19_57_40.431,3.869,38,0,0.766,0,0,0,0, ,0,0,0,0,0, ,-26.7,334.5,949.3,0.9,-1.1,0,25,-25.9419,335.379,940.791,-0.0172631,-0.570309,-1.1805,
2026_07_06_19_57_40.453,3.869,38,0,0.766,0,0,0,0, ,0,0,0,0,0, ,-24.7,334.9,955.6,0.5,-0.8,-0.7,25,-25.9272,335.338,941.502,0.0264452,-0.593446,-1.12989,
2026_07_06_19_57_40.470,3.869,38,0,0.764,0,0,0,0, ,0,0,0,0,0, ,-23,335.5,944.2,0.7,0.9,-1.5,25,-25.8006,335.33,942.013,0.0613962,-0.554236,-1.12807,
2026_07_06_19_57_40.493,3.869,38,0,0.764,0,0,0,0, ,0,0,0,0,0, ,-25.7,339.3,933.2,1.1,0.4,-1.4,25,-25.7122,335.456,941.811,0.112499,-0.480853,-1.14769,
2026_07_06_19_57_40.510,3.869,38,0,0.766,0,0,0,0, ,0,0,0,0,0, ,-27,337.1,941.8,0.9,0,-0.7,25,-25.7511,335.623,941.549,0.166581,-0.439364,-1.14173,
2026_07_06_19_57_40.532,3.869,38,0,0.766,0,0,0,0, ,0,0,0,0,0, ,-35.4,339.2,943.7,-0.1,-0.1,-0.6,25,-26.0831,335.777,941.622,0.180805,-0.415637,-1.11177,
2026_07_06_19_57_40.549,3.869,37.9,0,0.766,0,0,0,0, ,0,0,0,0,0, ,-37.9,341.4,942.8,-1.1,0,-1.7,25,-26.727,336.053,941.721,0.133224,-0.393356,-1.1141,
2026_07_06_19_57_40.573,3.869,37.9,0,0.766,0,0,0,0, ,0,0,0,0,0, ,-34.7,347.7,938.9,0.1,-0.1,-2,25,-27.3104,336.57,941.668,0.0946373,-0.372433,-1.15894,
2026_07_06_19_57_40.589,3.869,37.9,0,0.766,0,0,0,0, ,0,0,0,0,0, ,-33,342.1,944.9,0.7,-0.5,-2.1,25,-27.7089,337.078,941.682,0.113245,-0.368019,-1.21324,
2026_07_06_19_57_40.613,3.869,38,0,0.764,0,0,0,0, ,0,0,0,0,0, ,-31.3,339.7,943.8,0.2,-0.4,-2.5,25,-27.9795,337.311,941.845,0.133766,-0.373014,-1.27947,
2026_07_06_19_57_40.628,3.869,37.9,0,0.766,0,0,0,0, ,0,0,0,0,0, ,-27.7,340.9,942.5,-0.1,-1,-2.9,25,-28.0722,337.493,941.924,0.128662,-0.39294,-1.36603,
2026_07_06_19_57_40.652,3.869,37.8,0,0.766,0,0,0,0, ,0,0,0,0,0, ,-25.2,337.8,944.8,-0.5,-1.2,-2.2,25,-27.9733,337.606,942.029,0.10254,-0.436027,-1.43818,
2026_07_06_19_57_40.668,3.869,38,0,0.766,0,0,0,0, ,0,0,0,0,0, ,-23.8,341.9,947,-0.6,-0.5,-2.3,25,-27.7617,337.743,942.265,0.0627761,-0.461253,-1.48765,
2026_07_06_19_57_40.691,3.869,37.9,0,0.764,0,0,0,0, ,0,0,0,0,0, ,-22.9,343.3,934.5,-0.1,0.4,-2.3,25,-27.4928,338.039,942.173,0.0376225,-0.436192,-1.53715,
2026_07_06_19_57_40.709,3.869,38,0,0.766,0,0,0,0, ,0,0,0,0,0, ,-19.5,340.3,936.6,0.6,0,-2.5,25,-27.1094,338.268,941.769,0.0505643,-0.397424,-1.58973,
2026_07_06_19_57_40.733,3.869,38,0,0.766,0,0,0,0, ,0,0,0,0,0, ,-16.2,337.1,950.4,-0.1,-1.8,-1.1,25,-26.5451,338.294,941.875,0.0627174,-0.42805,-1.60254,
2026_07_06_19_57_40.747,3.869,37.9,0,0.766,0,0,0,0, ,0,0,0,0,0, ,-23,346.1,950.4,-1.3,-2.1,-0.8,25,-26.1219,338.496,942.394,0.0162393,-0.520794,-1.56278,
2026_07_06_19_57_40.770,3.869,38,0,0.767,0,0,0,0, ,0,0,0,0,0, ,-26.9,345.8,934.8,-0.3,-0.4,-1,25,-26.0505,338.95,942.407,-0.0335003,-0.56523,-1.52239,
2026_07_06_19_57_40.787,3.869,37.9,0,0.767,0,0,0,0, ,0,0,0,0,0, ,-27.5,350.3,934.9,0.7,0,-1.4,25,-26.1205,339.505,941.946,-0.0192714,-0.542974,-1.50275,
2026_07_06_19_57_40.810,3.869,37.9,0,0.764,0,0,0,0, ,0,0,0,0,0, ,-27.8,344.4,936.7,0.5,-1.1,-1.9,25,-26.2137,339.983,941.572,0.0184655,-0.543402,-1.51172,
2026_07_06_19_57_40.826,3.869,38,0,0.766,0,0,0,0, ,0,0,0,0,0, ,-21.9,344.7,943.8,0,-1.2,-1.5,25,-26.1306,340.261,941.491,0.0325746,-0.580366,-1.52319,
2026_07_06_19_57_40.849,3.869,38,0,0.766,0,0,0,0, ,0,0,0,0,0, ,-20.7,341.7,947.9,-1,-0.7,-1.6,25,-25.8363,340.44,941.757,0.000120857,-0.602891,-1.52483,
2026_07_06_19_57_40.866,3.869,37.9,0,0.766,0,0,0,0, ,0,0,0,0,0, ,-16.2,348,935.3,-0.4,0.3,-1.1,25,-25.3862,340.709,941.747,-0.0425428,-0.57834,-1.51417,
2026_07_06_19_57_40.889,3.869,38,0,0.766,0,0,0,0, ,0,0,0,0,0, ,-20.9,342.7,933.7,1.1,0.6,-1.3,25,-24.9696,340.992,941.306,-0.0186222,-0.515675,-1.49503,
2026_07_06_19_57_40.905,3.869,37.9,0,0.764,0,0,0,0, ,0,0,0,0,0, ,-22.3,339.8,948.4,-0.2,-0.4,-0.7,25,-24.7643,341.007,941.29,0.00993448,-0.478158,-1.46486,
2026_07_06_19_57_40.929,3.869,37.9,0,0.766,0,0,0,0, ,0,0,0,0,0, ,-26.2,345.5,942.8,-1.4,-0.7,-0.8,25,-24.7329,341.108,941.553,-0.0394209,-0.482536,-1.4213,
2026_07_06_19_57_40.945,3.869,37.9,0,0.764,0,0,0,0, ,0,0,0,0,0, ,-28.3,343.3,936.5,-1.6,-0.7,-1.3,25,-24.8863,341.308,941.437,-0.128425,-0.495787,-1.39867,
2026_07_06_19_57_40.969,3.869,38,0,0.764,0,0,0,0, ,0,0,0,0,0, ,-26.9,350,936,-0.9,0.2,-1.4,25,-25.0517,341.634,941.121,-0.196771,-0.48081,-1.39571,
2026_07_06_19_57_40.985,3.869,37.9,0,0.764,0,0,0,0, ,0,0,0,0,0, ,-23.6,343.6,932,1.3,0.7,-1.4,25,-25.0638,341.948,940.687,-0.172593,-0.424088,-1.39597,
2026_07_06_19_57_41.008,3.869,38,0,0.766,0,0,0,0, ,0,0,0,0,0, ,-25.1,337.1,942.2,0.9,-0.9,-0.8,25,-25.0203,341.851,940.468,-0.0950441,-0.404339,-1.37793,
2026_07_06_19_57_41.025,3.869,38,0,0.766,0,0,0,0, ,0,0,0,0,0, ,-31.6,338.6,944.7,-1.5,-1.4,-0.9,25,-25.2232,341.607,940.65,-0.107534,-0.449778,-1.34576,
2026_07_06_19_57_41.049,3.869,38,0,0.768,0,0,0,0, ,0,0,0,0,0, ,-28.3,347.1,932.9,-1.3,-0.1,-1.7,25,-25.5112,341.683,940.537,-0.186293,-0.468073,-1.34297,
2026_07_06_19_57_41.064,3.869,37.9,0,0.767,0,0,0,0, ,0,0,0,0,0, ,-25.2,340,931.2,0,0,-1.8,25,-25.5867,341.797,940.02,-0.21455,-0.442596,-1.36778,
2026_07_06_19_57_41.088,3.869,38,0,0.766,0,0,0,0, ,0,0,0,0,0, ,-26.1,342.7,937.6,-0.2,-0.7,-1.4,25,-25.5906,341.77,939.678,-0.20757,-0.436954,-1.38193,
2026_07_06_19_57_41.104,3.869,37.9,0,0.766,0,0,0,0, ,0,0,0,0,0, ,-26.4,343.5,934.9,-0.5,-1,-1.8,25,-25.6307,341.851,939.469,-0.216249,-0.462124,-1.39522,
2026_07_06_19_57_41.129,3.869,37.9,0,0.766,0,0,0,0, ,0,0,0,0,0, ,-24.5,339.1,933.2,-0.3,-0.3,-1.6,25,-25.6197,341.817,939.138,-0.227447,-0.473573,-1.41379,
2026_07_06_19_57_41.143,3.869,37.8,0,0.766,0,0,0,0, ,0,0,0,0,0, ,-21.9,342.6,932.7,-0.1,-0.2,-1.3,25,-25.4723,341.758,938.761,-0.225774,-0.459949,-1.416,
2026_07_06_19_57_41.167,3.869,37.9,0,0.767,0,0,0,0, ,0,0,0,0,0, ,-22.9,341.1,935.6,-0.3,-1.1,-1.2,25,-25.2851,341.764,938.48,-0.224203,-0.47153,-1.40588,
2026_07_06_19_57_41.183,3.869,37.9,0,0.766,0,0,0,0, ,0,0,0,0,0, ,-24.9,342.2,936.5,-0.4,-1.4,-1.1,25,-25.2007,341.757,938.332,-0.231869,-0.518968,-1.39029,
2026_07_06_19_57_41.207,3.869,38,0,0.763,0,0,0,0, ,0,0,0,0,0, ,-28,351.3,934.3,-0.2,-0.9,-1,25,-25.2768,342.061,938.154,-0.236021,-0.557421,-1.36955,
2026_07_06_19_57_41.222,3.869,37.9,0,0.765,0,0,0,0, ,0,0,0,0,0, ,-28.5,345.7,942.7,0,-0.5,-2.3,25,-25.458,342.453,938.175,-0.227732,-0.56611,-1.38664,
2026_07_06_19_57_41.247,3.869,37.9,0,0.766,0,0,0,0, ,0,0,0,0,0, ,-20,348,942.7,0.1,0,-1.6,25,-25.3844,342.721,938.45,-0.210808,-0.546847,-1.42097,
2026_07_06_19_57_41.262,3.869,38,0,0.766,0,0,0,0, ,0,0,0,0,0, ,-21.2,345.2,941.2,0.1,-0.1,-1.3,25,-25.0928,342.958,938.664,-0.191868,-0.51657,-1.42274,
2026_07_06_19_57_41.286,3.869,37.9,0,0.767,0,0,0,0, ,0,0,0,0,0, ,-23.4,342.1,942,-0.5,-0.3,-1.4,25,-24.9226,343,938.843,-0.192364,-0.497279,-1.41831,
2026_07_06_19_57_41.307,3.869,38,0,0.766,0,0,0,0, ,0,0,0,0,0, ,-25.2,345.8,940.9,-0.5,0,-1.2,25,-24.8847,343.058,939.002,-0.21111,-0.476117,-1.4111,
2026_07_06_19_57_41.331,3.869,38,0,0.767,0,0,0,0, ,0,0,0,0,0, ,-27.9,350.8,943.3,0,-0.5,-1.4,25,-24.9862,343.377,939.19,-0.21348,-0.462338,-1.40433,
2026_07_06_19_57_41.342,3.869,37.9,0,0.766,0,0,0,0, ,0,0,0,0,0, ,-29.9,349.9,941.2,0.2,0.3,-1.7,25,-25.2247,343.802,939.377,-0.194377,-0.440258,-1.41321,
2026_07_06_19_57_41.366,3.869,38,0,0.766,0,0,0,0, ,0,0,0,0,0, ,-28,344.3,940.4,0.1,0.4,-1.8,25,-25.4517,344.003,939.464,-0.173392,-0.392102,-1.43373,
2026_07_06_19_57_41.381,3.869,37.9,0,0.765,0,0,0,0, ,0,0,0,0,0, ,-29.4,345.5,936.4,-0.5,0.4,-1.9,25,-25.6496,344.058,939.399,-0.175013,-0.343833,-1.4591,
2026_07_06_19_57_41.407,3.869,38,0,0.766,0,0,0,0, ,0,0,0,0,0, ,-24.7,345.4,936.4,-0.3,0.1,-2,25,-25.735,344.143,939.216,-0.188723,-0.307646,-1.48901,
2026_07_06_19_57_41.421,3.869,38,0,0.766,0,0,0,0, ,0,0,0,0,0, ,-23,346.8,939.8,0.2,0.4,-1.9,25,-25.6201,344.262,939.148,-0.18027,-0.273665,-1.5171,
2026_07_06_19_57_41.444,3.869,37.9,0,0.765,0,0,0,0, ,0,0,0,0,0, ,-25.5,338.1,951.7,-0.6,0.1,-2.2,25,-25.5366,344.151,939.55,-0.181472,-0.241754,-1.54957,
2026_07_06_19_57_41.461,3.869,37.9,0,0.765,0,0,0,0, ,0,0,0,0,0, ,-23.1,344.1,945.6,-1.1,1.2,-1.5,25,-25.4612,343.966,940.105,-0.222211,-0.187413,-1.56788,
2026_07_06_19_57_41.486,3.869,38,0,0.766,0,0,0,0, ,0,0,0,0,0, ,-27.7,348.5,927.6,0.1,1.7,-1.3,25,-25.4575,344.108,939.891,-0.239138,-0.0876328,-1.55765,
2026_07_06_19_57_41.500,3.869,38,0,0.766,0,0,0,0, ,0,0,0,0,0, ,-35.2,343.8,930.6,0.6,0.1,-1.4,25,-25.8227,344.232,939.234,-0.203238,-0.0274489,-1.545,
2026_07_06_19_57_41.524,3.869,37.9,0,0.765,0,0,0,0, ,0,0,0,0,0, ,-39.5,349.4,935.6,0,-1.1,-1.3,25,-26.5251,344.377,938.86,-0.172572,-0.056245,-1.53312,
2026_07_06_19_57_41.539,3.869,37.9,0,0.766,0,0,0,0, ,0,0,0,0,0, ,-39.7,351.6,936.8,0,-0.8,-2,25,-27.3219,344.75,938.698,-0.162056,-0.110708,-1.54024,
2026_07_06_19_57_41.564,3.869,37.9,0,0.766,0,0,0,0, ,0,0,0,0,0, ,-35.5,352.7,932.8,0.3,0.7,-2.7,25,-27.9482,345.201,938.46,-0.14304,-0.107009,-1.58958,
2026_07_06_19_57_41.579,3.869,37.8,0,0.767,0,0,0,0, ,0,0,0,0,0, ,-28,345.8,934.8,0.2,0.1,-2.3,25,-28.1799,345.447,938.176,-0.119089,-0.0761129,-1.64506,
2026_07_06_19_57_41.604,3.869,37.9,0,0.767,0,0,0,0, ,0,0,0,0,0, ,-24,348,941.1,-0.3,-1.3,-1.9,25,-28.047,345.536,938.162,-0.114879,-0.108037,-1.67278,
2026_07_06_19_57_41.619,3.869,37.9,0,0.765,0,0,0,0, ,0,0,0,0,0, ,-24.7,352.5,934,0.2,-1.2,-2.1,25,-27.8217,345.823,938.125,-0.110925,-0.177626,-1.69272,
2026_07_06_19_57_41.645,3.869,38,0,0.767,0,0,0,0, ,0,0,0,0,0, ,-26.2,348.3,937.3,0.8,-0.2,-2.1,25,-27.6772,346.102,937.974,-0.073697,-0.209458,-1.71754,
2026_07_06_19_57_41.658,3.869,38,0,0.765,0,0,0,0, ,0,0,0,0,0, ,-24.4,342.7,943.3,-0.4,-0.3,-2.3,25,-27.5324,346.065,938.116,-0.0570186,-0.211928,-1.74694,
2026_07_06_19_57_41.682,3.869,37.8,0,0.766,0,0,0,0, ,0,0,0,0,0, ,-23,348,944.4,-1.8,-0.2,-2,25,-27.2988,346.022,938.465,-0.120575,-0.214248,-1.7715,
2026_07_06_19_57_41.698,3.869,37.8,0,0.766,0,0,0,0, ,0,0,0,0,0, ,-22.3,354,928.5,-1.1,0.2,-1.9,25,-27.0155,346.325,938.343,-0.201587,-0.201193,-1.78238,
2026_07_06_19_57_41.724,3.869,37.9,0,0.766,0,0,0,0, ,0,0,0,0,0, ,-29.4,349.1,921.8,0.4,0.1,-1.2,25,-26.9445,346.644,937.539,-0.210631,-0.179792,-1.76822,
2026_07_06_19_57_41.738,3.869,38,0,0.765,0,0,0,0, ,0,0,0,0,0, ,-34.9,342,921.3,0,0.1,-1.9,25,-27.2617,346.577,936.564,-0.185608,-0.162742,-1.75492,
2026_07_06_19_57_41.763,3.869,37.9,0,0.766,0,0,0,0, ,0,0,0,0,0, ,-36.4,344.2,916.2,-0.3,0,-2.7,25,-27.7729,346.365,935.479,-0.183438,-0.149778,-1.78814,
2026_07_06_19_57_41.778,3.869,37.9,0,0.767,0,0,0,0, ,0,0,0,0,0, ,-29.2,345.4,927.9,0.4,-1.3,-2.2,25,-28.0792,346.27,934.661,-0.169213,-0.18026,-1.82847,
2026_07_06_19_57_41.803,3.869,37.9,0,0.766,0,0,0,0, ,0,0,0,0,0, ,-28.6,353.7,944.7,1,-2.5,-1.2,25,-28.1292,346.47,934.76,-0.116245,-0.285057,-1.82064,
2026_07_06_19_57_41.817,3.869,37.8,0,0.767,0,0,0,0, ,0,0,0,0,0, ,-36.1,354,950.9,0.3,-2.2,-1.4,25,-28.3864,346.919,935.555,-0.0695524,-0.410889,-1.78891,
2026_07_06_19_57_41.841,3.869,37.9,0,0.765,0,0,0,0, ,0,0,0,0,0, ,-36.4,356.4,944.8,0,-0.9,-2.2,25,-28.8656,347.424,936.304,-0.0561734,-0.480304,-1.78959,
2026_07_06_19_57_41.857,3.869,38,0,0.765,0,0,0,0, ,0,0,0,0,0, ,-30.8,354.8,944.7,0.7,0.3,-2.9,25,-29.1541,347.922,936.819,-0.0314222,-0.469317,-1.83593,
2026_07_06_19_57_41.882,3.869,38,0,0.765,0,0,0,0, ,0,0,0,0,0, ,-26.2,349.7,947.5,0.2,0,-2.8,25,-29.1143,348.186,937.384,-0.00208557,-0.431577,-1.89772,
2026_07_06_19_57_41.896,3.869,37.8,0,0.765,0,0,0,0, ,0,0,0,0,0, ,-18.1,354.8,939.8,0.5,-1,-2.5,25,-28.6899,348.434,937.766,0.0193696,-0.435747,-1.94356,
2026_07_06_19_57_41.922,3.869,37.9,0,0.767,0,0,0,0, ,0,0,0,0,0, ,-15.6,350.4,939.6,0.6,-1.9,-2,25,-27.9684,348.687,937.884,0.0517049,-0.497553,-1.96224,
2026_07_06_19_57_41.937,3.869,37.8,0,0.766,0,0,0,0, ,0,0,0,0,0, ,-18.7,355.3,947,0.6,-2.9,-0.7,25,-27.3091,348.941,938.214,0.0851167,-0.613483,-1.92493,
2026_07_06_19_57_41.962,3.869,37.9,0,0.766,0,0,0,0, ,0,0,0,0,0, ,-25.6,350.8,948.8,0.1,-2.4,-1.3,25,-26.9948,349.191,938.804,0.101258,-0.737583,-1.86857,
2026_07_06_19_57_41.976,3.869,37.9,0,0.763,0,0,0,0, ,0,0,0,0,0, ,-28.5,354.4,948.6,-1.2,-1.7,-1.6,25,-26.9981,349.399,939.407,0.061572,-0.817559,-1.84306,
2026_07_06_19_57_42.001,3.869,37.9,0,0.765,0,0,0,0, ,0,0,0,0,0, ,-33,353.3,938.9,-3.1,-2.2,-2.3,25,-27.2268,349.67,939.672,-0.0731957,-0.886567,-1.84958,
2026_07_06_19_57_42.015,3.869,38,0,0.766,0,0,0,0, ,0,0,0,0,0, ,-26.1,355.8,926.5,-3.2,-2.2,-2.1,25,-27.3683,349.968,939.247,-0.260688,-0.966604,-1.87093,
2026_07_06_19_57_42.041,3.869,37.9,0,0.766,0,0,0,0, ,0,0,0,0,0, ,-21.1,348.6,926.2,-1.4,-1.6,-1.9,25,-27.1387,350.104,938.461,-0.384959,-1.02348,-1.8788,
2026_07_06_19_57_42.055,3.869,37.9,0,0.766,0,0,0,0, ,0,0,0,0,0, ,-20.5,345.3,933.9,-0.1,-1.6,-0.9,25,-26.7524,349.912,937.949,-0.407204,-1.05861,-1.84962,
2026_07_06_19_57_42.080,3.869,37.9,0,0.767,0,0,0,0, ,0,0,0,0,0, ,-27.8,348.7,935.3,-0.6,-1.4,-0.9,25,-26.5938,349.734,937.745,-0.403718,-1.08551,-1.79175,
2026_07_06_19_57_42.095,3.869,37.9,0,0.765,0,0,0,0, ,0,0,0,0,0, ,-29.4,351.4,933.9,-0.8,-0.5,-2,25,-26.7161,349.753,937.553,-0.421773,-1.07725,-1.77093,
2026_07_06_19_57_42.121,3.869,37.9,0,0.763,0,0,0,0, ,0,0,0,0,0, ,-26.6,354.9,928.3,-0.4,0,-2.1,25,-26.7943,349.96,937.16,-0.432633,-1.02684,-1.78793,
2026_07_06_19_57_42.135,3.869,37.9,0,0.767,0,0,0,0, ,0,0,0,0,0, ,-20.2,352.5,927.2,0.6,-0.9,-1.9,25,-26.5875,350.188,936.586,-0.400176,-0.991692,-1.80086,
2026_07_06_19_57_42.159,3.869,37.9,0,0.765,0,0,0,0, ,0,0,0,0,0, ,-19.1,350.9,936.5,0.8,-2.2,-1,25,-26.1647,350.28,936.298,-0.333134,-1.02571,-1.77948,
2026_07_06_19_57_42.174,3.869,37.9,0,0.766,0,0,0,0, ,0,0,0,0,0, ,-18.3,348.6,945.6,0,-1.8,-1.7,25,-25.7099,350.248,936.587,-0.288459,-1.08508,-1.7533,
2026_07_06_19_57_42.199,3.869,37.8,0,0.766,0,0,0,0, ,0,0,0,0,0, ,-20.9,352.2,944,-0.4,-0.6,-1.4,25,-25.3375,350.257,937.088,-0.283068,-1.09209,-1.74092,
2026_07_06_19_57_42.213,3.869,37.9,0,0.765,0,0,0,0, ,0,0,0,0,0, ,-19.8,356.2,940.1,-0.3,-0.2,-1.3,25,-25.0336,350.498,937.39,-0.287147,-1.04991,-1.71709,
2026_07_06_19_57_42.239,3.869,37.9,0,0.765,0,0,0,0, ,0,0,0,0,0, ,-19.1,355.9,933.4,0,-0.5,-0.5,25,-24.6934,350.836,937.351,-0.278789,-1.00726,-1.6673,
2026_07_06_19_57_42.256,3.869,37.9,0,0.767,0,0,0,0, ,0,0,0,0,0, ,-20.1,349.4,941.1,-1.2,-1.7,-0.6,25,-24.383,350.946,937.345,-0.298363,-1.01291,-1.59922,
2026_07_06_19_57_42.281,3.869,37.9,0,0.766,0,0,0,0, ,0,0,0,0,0, ,-19.8,348.5,946.4,-3.2,-1.5,-1,25,-24.1128,350.825,937.735,-0.414244,-1.04869,-1.55051,
2026_07_06_19_57_42.293,3.869,37.9,0,0.764,0,0,0,0, ,0,0,0,0,0, ,-21.6,354.1,937.9,-3.5,-0.6,-1.3,25,-23.9049,350.854,938.004,-0.593142,-1.04877,-1.52611,
2026_07_06_19_57_42.318,3.869,37.9,0,0.766,0,0,0,0, ,0,0,0,0,0, ,-17,348.8,926.7,-2.1,0.7,-1.6,25,-23.6243,350.89,937.657,-0.727622,-0.981812,-1.52147,
2026_07_06_19_57_42.333,3.869,37.9,0,0.766,0,0,0,0, ,0,0,0,0,0, ,-15.1,346.4,930.2,-1.6,-0.3,-0.3,25,-23.1627,350.69,937.096,-0.796017,-0.909796,-1.48665,
2026_07_06_19_57_42.358,3.869,37.9,0,0.767,0,0,0,0, ,0,0,0,0,0, ,-23.9,347.5,925.1,-1.2,0.1,-0.7,25,-22.9395,350.462,936.52,-0.832822,-0.860449,-1.42652,
2026_07_06_19_57_42.372,3.869,37.9,0,0.767,0,0,0,0, ,0,0,0,0,0, ,-19.1,350.5,923.5,0,0,-0.6,25,-22.8518,350.373,935.775,-0.818635,-0.804968,-1.3792,
2026_07_06_19_57_42.397,3.869,37.8,0,0.766,0,0,0,0, ,0,0,0,0,0, ,-18.5,356.6,931.6,1.7,-1.8,0.1,25,-22.6049,350.566,935.274,-0.716952,-0.810759,-1.31039,
2026_07_06_19_57_42.411,3.869,37.9,0,0.764,0,0,0,0, ,0,0,0,0,0, ,-19,351.4,947.6,1.8,-2.8,0.8,25,-22.37,350.776,935.538,-0.566622,-0.90151,-1.20312,
2026_07_06_19_57_42.438,3.869,37.9,0,0.764,0,0,0,0, ,0,0,0,0,0, ,-24.5,349.9,947.8,1,-1.5,0.3,25,-22.3322,350.768,936.279,-0.446781,-0.97759,-1.09629,
2026_07_06_19_57_42.451,3.869,37.9,0,0.765,0,0,0,0, ,0,0,0,0,0, ,-22.5,354.8,941.2,0.3,-0.6,-0.2,25,-22.4034,350.864,936.78,-0.379946,-0.982002,-1.02644,
2026_07_06_19_57_42.477,3.869,37.8,0,0.764,0,0,0,0, ,0,0,0,0,0, ,-23.1,354.4,932.7,0.1,-1.2,-0.7,25,-22.4275,351.092,936.79,-0.344606,-0.977005,-0.991309,
2026_07_06_19_57_42.491,3.869,37.9,0,0.766,0,0,0,0, ,0,0,0,0,0, ,-20.3,352,933.4,0.1,-2.4,-0.5,25,-22.3832,351.22,936.562,-0.317513,-1.02716,-0.967464,
2026_07_06_19_57_42.517,3.869,37.9,0,0.766,0,0,0,0, ,0,0,0,0,0, ,-22.4,356.4,935.9,0.4,-1.4,-0.5,25,-22.3202,351.402,936.446,-0.28293,-1.08035,-0.938978,
2026_07_06_19_57_42.530,3.869,37.8,0,0.767,0,0,0,0, ,0,0,0,0,0, ,-20.5,353.6,934.9,0.8,-0.7,-1,25,-22.2672,351.621,936.382,-0.229126,-1.0785,-0.927462,
2026_07_06_19_57_42.557,3.869,37.9,0,0.766,0,0,0,0, ,0,0,0,0,0, ,-26.9,346.9,930,0,-0.4,-1.4,25,-22.3545,351.538,936.142,-0.190789,-1.04629,-0.94407,
2026_07_06_19_57_42.570,3.869,37.9,0,0.764,0,0,0,0, ,0,0,0,0,0, ,-26.7,344.4,917.9,-0.6,0.4,-1.7,25,-22.6254,351.179,935.399,-0.197444,-0.982533,-0.980994,
2026_07_06_19_57_42.596,3.869,37.8,0,0.766,0,0,0,0, ,0,0,0,0,0, ,-20.9,351.9,912.3,0.5,-0.6,-1.9,25,-22.697,350.994,934.162,-0.188459,-0.928753,-1.0309,
2026_07_06_19_57_42.610,3.869,37.9,0,0.766,0,0,0,0, ,0,0,0,0,0, ,-14.6,348.8,925.2,2,-1.8,-1.8,25,-22.3955,350.955,933.223,-0.100803,-0.945282,-1.08082,
2026_07_06_19_57_42.637,3.869,37.8,0,0.766,0,0,0,0, ,0,0,0,0,0, ,-11.9,351.3,939,2,-1.9,-1.1,25,-21.8382,350.9,933.155,0.0272147,-1.00041,-1.10331,
2026_07_06_19_57_42.649,3.869,37.9,0,0.766,0,0,0,0, ,0,0,0,0,0, ,-13.7,354.4,937.1,1.8,-1.7,-1.1,25,-21.2875,351.019,933.453,0.141338,-1.04914,-1.10311,
2026_07_06_19_57_42.675,3.869,37.8,0,0.767,0,0,0,0, ,0,0,0,0,0, ,-15.9,355.5,925.6,2.6,-1.4,-1.4,25,-20.8921,351.258,933.325,0.266787,-1.07966,-1.11206,
2026_07_06_19_57_42.689,3.869,37.9,0,0.767,0,0,0,0, ,0,0,0,0,0, ,-18.4,352.2,936.5,2.3,-1.4,-1.1,25,-20.6641,351.416,933.186,0.399827,-1.09918,-1.12047,
2026_07_06_19_57_42.716,3.869,37.9,0,0.766,0,0,0,0, ,0,0,0,0,0, ,-19.4,360.5,946.7,1.3,-1.3,-0.9,25,-20.5566,351.717,933.699,0.48515,-1.11446,-1.11313,
2026_07_06_19_57_42.729,3.869,37.9,0,0.767,0,0,0,0, ,0,0,0,0,0, ,-26.4,374.6,965.2,-0.1,1.4,-3.1,25,-20.6994,352.682,935.055,0.492148,-1.04351,-1.16717,
2026_07_06_19_57_42.754,3.869,37.9,0,0.764,0,0,0,0, ,0,0,0,0,0, ,-13,363.6,954.5,0.5,0.2,-3.9,25,-20.6385,353.682,936.566,0.474346,-0.931167,-1.30933,
2026_07_06_19_57_42.768,3.869,37.8,0,0.764,0,0,0,0, ,0,0,0,0,0, ,-11.4,355.4,967,-1.2,0.6,-2,25,-20.1243,354.037,938.04,0.424112,-0.850049,-1.40931,
2026_07_06_19_57_42.795,3.869,37.9,0,0.765,0,0,0,0, ,0,0,0,0,0, ,-13.3,359.6,938.8,-1.9,-2.3,-2,25,-19.6505,354.248,938.945,0.303815,-0.850046,-1.4453,
2026_07_06_19_57_42.808,3.869,37.9,0,0.766,0,0,0,0, ,0,0,0,0,0, ,-14.4,363,931,-1,-1.3,-2.3,25,-19.2971,354.678,938.699,0.196942,-0.907933,-1.48824,
2026_07_06_19_57_42.833,3.869,37.8,0,0.766,0,0,0,0, ,0,0,0,0,0, ,-15.9,360.7,934.5,0.3,-0.9,-1.2,25,-19.0443,355.115,938.336,0.163612,-0.919638,-1.50419,
2026_07_06_19_57_42.847,3.869,37.8,0,0.767,0,0,0,0, ,0,0,0,0,0, ,-15.9,358.1,936.5,0.4,-0.1,-0.8,25,-18.8527,355.376,938.163,0.17497,-0.894066,-1.47347,
2026_07_06_19_57_42.874,3.869,37.8,0,0.766,0,0,0,0, ,0,0,0,0,0, ,-17.8,356.6,933.1,0.1,-2.4,-1.6,25,-18.7307,355.496,937.958,0.179542,-0.915756,-1.45681,
2026_07_06_19_57_42.887,3.869,37.8,0,0.766,0,0,0,0, ,0,0,0,0,0, ,-16.8,359,934.6,-0.9,-2,-2.3,25,-18.6435,355.636,937.708,0.144227,-0.994014,-1.48686,
2026_07_06_19_57_42.913,3.869,37.9,0,0.764,0,0,0,0, ,0,0,0,0,0, ,-8.3,355.5,928.8,-0.2,-0.7,-1.2,25,-18.2722,355.735,937.342,0.101922,-1.01571,-1.50289,
2026_07_06_19_57_42.927,3.869,37.9,0,0.767,0,0,0,0, ,0,0,0,0,0, ,-16.7,361,918.3,0.1,0.2,-1.2,25,-17.9204,355.888,936.501,0.0926644,-0.969047,-1.48444,
2026_07_06_19_57_42.962,3.869,38,0,0.767,0,0,0,0, ,0,0,0,0,0, ,-17.8,363.5,923.4,0,0,-2.3,25,-17.8796,356.276,935.548,0.0900646,-0.903902,-1.50062,
2026_07_06_19_57_42.967,3.869,37.8,0,0.767,0,0,0,0, ,0,0,0,0,0, ,-12.6,351.5,931.2,-0.6,-1.8,-3.1,25,-17.7163,356.35,935.045,0.066295,-0.903664,-1.57371,
2026_07_06_19_57_42.992,3.869,37.8,0,0.763,0,0,0,0, ,0,0,0,0,0, ,-13,362.1,939.3,-1.4,0.4,-1.7,25,-17.4167,356.378,935.058,0.00131766,-0.891253,-1.62406,
2026_07_06_19_57_43.006,3.869,37.8,0,0.766,0,0,0,0, ,0,0,0,0,0, ,-15.2,364.2,927.4,0.1,0.8,-1.4,25,-17.2146,356.79,934.954,-0.038372,-0.80038,-1.61955,
2026_07_06_19_57_43.035,3.869,37.9,0,0.766,0,0,0,0, ,0,0,0,0,0, ,-18.4,355.1,935.5,0.1,0.5,-1.6,25,-17.1893,356.965,934.74,-0.02994,-0.711997,-1.61226,
2026_07_06_19_57_43.046,3.869,37.8,0,0.767,0,0,0,0, ,0,0,0,0,0, ,-23.3,360.9,931.8,-1.7,1.4,-1.8,25,-17.4124,357.028,934.674,-0.0768655,-0.61072,-1.61761,
2026_07_06_19_57_43.072,3.869,37.9,0,0.767,0,0,0,0, ,0,0,0,0,0, ,-15.3,368.1,913.3,-0.1,0.9,-2.9,25,-17.5274,357.483,933.935,-0.127025,-0.503426,-1.66224,
2026_07_06_19_57_43.085,3.869,37.9,0,0.766,0,0,0,0, ,0,0,0,0,0, ,-13.9,356.8,942.3,-0.8,1.2,-0.9,25,-17.349,357.786,933.561,-0.146707,-0.408764,-1.67673,
2026_07_06_19_57_43.114,3.869,37.9,0,0.764,0,0,0,0, ,0,0,0,0,0, ,-12.3,355.1,938.2,-0.6,-2.2,-2.4,25,-17.0901,357.674,933.969,-0.180423,-0.414324,-1.6751,
2026_07_06_19_57_43.125,3.869,37.9,0,0.766,0,0,0,0, ,0,0,0,0,0, ,-17,354.8,937.2,-1,0.2,-1,25,-16.9414,357.508,934.196,-0.218178,-0.450013,-1.67662,
2026_07_06_19_57_43.151,3.869,37.9,0,0.766,0,0,0,0, ,0,0,0,0,0, ,-18,361.3,936.6,-1.1,-0.3,-1.6,25,-16.9755,357.541,934.361,-0.268867,-0.425637,-1.65367,
2026_07_06_19_57_43.164,3.869,37.9,0,0.766,0,0,0,0, ,0,0,0,0,0, ,-15.2,359,934.2,-1.1,-0.3,-1.5,25,-16.9526,357.7,934.424,-0.319515,-0.417981,-1.64735,
2026_07_06_19_57_43.192,3.869,37.9,0,0.767,0,0,0,0, ,0,0,0,0,0, ,-17.7,358.7,930.5,-0.7,-0.1,-1.1,25,-16.922,357.77,934.298,-0.354888,-0.404698,-1.62618,
2026_07_06_19_57_43.204,3.869,37.8,0,0.764,0,0,0,0, ,0,0,0,0,0, ,-19,354.8,924.3,0.1,1.3,-0.9,25,-17.009,357.708,933.877,-0.351543,-0.343474,-1.58802,
2026_07_06_19_57_43.231,3.869,37.9,0,0.763,0,0,0,0, ,0,0,0,0,0, ,-16.7,354.7,916,0.3,1.3,-0.7,25,-17.0602,357.528,933.041,-0.317934,-0.243325,-1.54,
2026_07_06_19_57_43.243,3.869,37.9,0,0.763,0,0,0,0, ,0,0,0,0,0, ,-18.3,350,931.6,0.6,1.9,-0.8,25,-17.087,357.212,932.478,-0.271138,-0.130998,-1.49186,
2026_07_06_19_57_43.271,3.869,37.9,0,0.767,0,0,0,0, ,0,0,0,0,0, ,-17.5,356.6,931.3,0,1.6,-1.1,25,-17.1366,356.974,932.415,-0.236334,-0.0163742,-1.45884,
2026_07_06_19_57_43.283,3.869,37.9,0,0.767,0,0,0,0, ,0,0,0,0,0, ,-15.7,361.5,932.1,-0.6,2.6,-1.6,25,-17.1039,357.1,932.372,-0.240214,0.112592,-1.45221,
2026_07_06_19_57_43.310,3.869,37.8,0,0.766,0,0,0,0, ,0,0,0,0,0, ,-17.8,365.6,936.5,-0.9,2.1,-1.3,25,-17.0823,357.493,932.489,-0.271279,0.248934,-1.45208,
2026_07_06_19_57_43.328,3.869,37.9,0,0.768,0,0,0,0, ,0,0,0,0,0, ,-21.9,363.4,934.4,-0.7,3,-1.3,25,-17.251,357.92,932.669,-0.303498,0.389155,-1.44281,
2026_07_06_19_57_43.356,3.869,37.8,0,0.766,0,0,0,0, ,0,0,0,0,0, ,-23.5,363.6,937.2,-0.7,2.5,-1.1,25,-17.583,358.26,932.86,-0.327659,0.533019,-1.42801,
2026_07_06_19_57_43.362,3.869,37.8,0,0.767,0,0,0,0, ,0,0,0,0,0, ,-28.1,358.6,941,-0.1,0.4,-0.9,25,-18.0837,358.433,933.24,-0.332068,0.588898,-1.40193,
2026_07_06_19_57_43.389,3.869,37.8,0,0.767,0,0,0,0, ,0,0,0,0,0, ,-34.4,374.5,938.4,-1,2.4,-0.9,25,-18.8861,358.928,933.634,-0.345348,0.638324,-1.37134,
2026_07_06_19_57_43.402,3.869,37.9,0,0.766,0,0,0,0, ,0,0,0,0,0, ,-25.7,368.2,953.4,0,-0.1,-2.1,25,-19.5664,359.685,934.382,-0.354772,0.669505,-1.37918,
2026_07_06_19_57_43.431,3.869,37.9,0,0.767,0,0,0,0, ,0,0,0,0,0, ,-19.1,360.7,942.7,-0.6,-2,-1.4,25,-19.739,359.975,935.214,-0.351434,0.564722,-1.40178,
2026_07_06_19_57_43.442,3.869,37.9,0,0.766,0,0,0,0, ,0,0,0,0,0, ,-25.5,358.6,933.1,0.1,-4.5,-0.4,25,-19.8951,359.955,935.378,-0.345253,0.332263,-1.3712,
2026_07_06_19_57_43.469,3.869,37.8,0,0.765,0,0,0,0, ,0,0,0,0,0, ,-24.9,366,930.5,1.2,-1.6,0.1,25,-20.2184,360.098,935.16,-0.284605,0.126156,-1.29679,
2026_07_06_19_57_43.482,3.869,37.9,0,0.766,0,0,0,0, ,0,0,0,0,0, ,-20.9,359.8,949.9,1.8,-1.7,-0.1,25,-20.3818,360.269,935.467,-0.175856,0.0179216,-1.21776,
2026_07_06_19_57_43.510,3.869,37.7,0,0.766,0,0,0,0, ,0,0,0,0,0, ,-20.9,364.3,929.5,1.2,0,0.1,25,-20.4134,360.378,935.725,-0.0737332,-0.0349673,-1.14356,
2026_07_06_19_57_43.521,3.869,37.8,0,0.766,0,0,0,0, ,0,0,0,0,0, ,-24.9,363.2,922.7,0.4,-0.1,0.1,25,-20.5649,360.583,935.139,-0.0204901,-0.0358834,-1.06778,
2026_07_06_19_57_43.548,3.869,37.8,0,0.767,0,0,0,0, ,0,0,0,0,0, ,-27,363.8,927.8,-0.7,-0.4,-1.1,25,-20.893,360.761,934.536,-0.0283821,-0.0489311,-1.03318,
2026_07_06_19_57_43.560,3.869,37.7,0,0.766,0,0,0,0, ,0,0,0,0,0, ,-26,362.7,937.1,-2.5,1.3,-2.7,25,-21.2347,360.913,934.409,-0.124153,-0.0185275,-1.086,
2026_07_06_19_57_43.587,3.869,37.9,0,0.765,0,0,0,0, ,0,0,0,0,0, ,-3.5,361.9,922.3,-2.7,-0.5,-3.4,25,-20.8395,360.997,934.122,-0.275024,0.00697651,-1.20568,
2026_07_06_19_57_43.600,3.869,37.9,0,0.766,0,0,0,0, ,0,0,0,0,0, ,-19.6,353.7,929.4,-2.3,-1.6,-2,25,-20.2735,360.802,933.618,-0.410609,-0.057433,-1.29674,
2026_07_06_19_57_43.628,3.869,37.8,0,0.766,0,0,0,0, ,0,0,0,0,0, ,-15.2,355.2,922.8,-2.5,-1.2,-2.2,25,-20.0984,360.415,933.16,-0.531837,-0.139246,-1.34569,
2026_07_06_19_57_43.639,3.869,37.9,0,0.766,0,0,0,0, ,0,0,0,0,0, ,-35.5,361.2,952.8,-3.7,-0.4,-2.8,25,-20.4184,360.28,933.443,-0.688335,-0.17951,-1.41603,
2026_07_06_19_57_43.667,3.869,37.8,0,0.766,0,0,0,0, ,0,0,0,0,0, ,-25.5,361,928.2,-3.6,-1,-3.6,25,-21.0327,360.33,933.873,-0.868811,-0.211228,-1.52474,
2026_07_06_19_57_43.679,3.869,37.9,0,0.766,0,0,0,0, ,0,0,0,0,0, ,-26,360.1,930.6,-2.2,0.8,-3,25,-21.3202,360.344,933.6,-0.992587,-0.20445,-1.63292,
2026_07_06_19_57_43.708,3.869,37.8,0,0.765,0,0,0,0, ,0,0,0,0,0, ,-26.9,357.7,938.4,-2.7,0.4,-3.4,25,-21.6328,360.256,933.655,-1.0814,-0.155429,-1.72841,
2026_07_06_19_57_43.719,3.869,37.8,0,0.766,0,0,0,0, ,0,0,0,0,0, ,-20.8,350.9,929.6,-3.5,-1.4,-3,25,-21.7679,359.893,933.676,-1.20441,-0.176426,-1.81809,
2026_07_06_19_57_43.747,3.869,37.8,0,0.766,0,0,0,0, ,0,0,0,0,0, ,-30.8,360.7,929.4,-2.9,-2,-2.6,25,-22.0136,359.643,933.421,-1.32601,-0.269269,-1.87792,
2026_07_06_19_57_43.759,3.869,37.8,0,0.765,0,0,0,0, ,0,0,0,0,0, ,-29.7,360.8,935.7,-1.4,0.7,-2.9,25,-22.5155,359.711,933.368,-1.37622,-0.29247,-1.93107,
2026_07_06_19_57_43.787,3.869,37.8,0,0.766,0,0,0,0, ,0,0,0,0,0, ,-18.4,350.4,940.5,-2.3,-2.3,-2.2,25,-22.609,359.46,933.657,-1.4051,-0.323397,-1.96878,
2026_07_06_19_57_43.798,3.869,37.7,0,0.765,0,0,0,0, ,0,0,0,0,0, ,-19.7,359.6,916.2,-1.6,-2.1,-2.3,25,-22.3921,359.188,933.333,-1.4383,-0.437753,-1.98592,
2026_07_06_19_57_43.825,3.869,37.8,0,0.765,0,0,0,0, ,0,0,0,0,0, ,-18.3,338.8,948.2,-0.7,-1.9,-1.4,25,-22.1854,358.58,933.264,-1.42073,-0.532952,-1.97764,
2026_07_06_19_57_43.838,3.869,37.8,0,0.766,0,0,0,0, ,0,0,0,0,0, ,-19.5,352.5,935.6,-0.8,-0.9,-0.1,25,-21.9852,357.792,933.79,-1.37986,-0.585788,-1.90283,
2026_07_06_19_57_43.867,3.869,37.8,0,0.766,0,0,0,0, ,0,0,0,0,0, ,-20.8,364.1,943.1,1.8,4.1,1.1,25,-21.8734,357.823,934.129,-1.26531,-0.452591,-1.75641,
2026_07_06_19_57_43.878,3.869,37.8,0,0.766,0,0,0,0, ,0,0,0,0,0, ,-18.6,353.3,944.8,0.6,1.4,0,25,-21.741,357.876,934.728,-1.11508,-0.257433,-1.61586,
2026_07_06_19_57_43.905,3.869,37.8,0,0.766,0,0,0,0, ,0,0,0,0,0, ,-27.7,365.1,939.9,0.3,1,-0.3,25,-21.8268,357.957,935.192,-1.0197,-0.168621,-1.52653,
2026_07_06_19_57_43.917,3.869,37.8,0,0.766,0,0,0,0, ,0,0,0,0,0, ,-28.5,364.3,945.9,0.6,1.8,-0.3,25,-22.2091,358.368,935.662,-0.930144,-0.0730333,-1.45179,
2026_07_06_19_57_43.945,3.869,37.9,0,0.766,0,0,0,0, ,0,0,0,0,0, ,-22.5,359.3,935,-0.6,1.8,-1.1,25,-22.4096,358.577,935.954,-0.873463,0.0411047,-1.40598,
2026_07_06_19_57_43.956,3.869,37.9,0,0.765,0,0,0,0, ,0,0,0,0,0, ,-24.9,359,924.5,-1.9,3.1,-2,25,-22.4883,358.612,935.576,-0.896409,0.187897,-1.41476,
2026_07_06_19_57_43.985,3.869,37.8,0,0.765,0,0,0,0, ,0,0,0,0,0, ,-17,353.6,920.7,-1.5,-0.4,-1.9,25,-22.3945,358.471,934.785,-0.945377,0.258712,-1.44737,
2026_07_06_19_57_43.996,3.869,37.7,0,0.766,0,0,0,0, ,0,0,0,0,0, ,-27.5,355.2,942.1,-1.9,1.6,-2.1,25,-22.3857,358.223,934.579,-0.991362,0.27951,-1.48105,
2026_07_06_19_57_44.025,3.869,37.7,0,0.766,0,0,0,0, ,0,0,0,0,0, ,-18.1,357.9,933.5,-2.2,0.9,-2.5,25,-22.411,358.121,934.775,-1.05587,0.338649,-1.53095,
2026_07_06_19_57_44.036,3.869,37.7,0,0.766,0,0,0,0, ,0,0,0,0,0, ,-22.4,353.3,927.9,-1.5,1.7,-2,25,-22.2793,357.967,934.527,-1.10427,0.397231,-1.57477,
2026_07_06_19_57_44.064,3.869,37.7,0,0.765,0,0,0,0, ,0,0,0,0,0, ,-26.6,354.4,933.7,-1.4,2.4,-1.9,25,-22.4146,357.716,934.3,-1.12533,0.497947,-1.59764,
2026_07_06_19_57_44.076,3.869,37.8,0,0.767,0,0,0,0, ,0,0,0,0,0, ,-24.7,349.6,935.9,-1.5,2.8,-2.7,25,-22.6118,357.368,934.33,-1.14512,0.626041,-1.64044,
2026_07_06_19_57_44.105,3.869,37.7,0,0.767,0,0,0,0, ,0,0,0,0,0, ,-14.4,354.7,912.7,0,-0.1,-2,25,-22.4252,357.05,933.719,-1.12104,0.670157,-1.68367,
2026_07_06_19_57_44.115,3.869,37.8,0,0.766,0,0,0,0, ,0,0,0,0,0, ,-37.9,349.7,956.4,-0.1,4.1,-0.6,25,-22.6522,356.755,933.769,-1.05577,0.751194,-1.66029,
2026_07_06_19_57_44.143,3.869,37.7,0,0.765,0,0,0,0, ,0,0,0,0,0, ,-38.3,356.6,934.4,-0.2,1.6,-2.2,25,-23.5935,356.535,934.478,-1.00058,0.87909,-1.64443,
2026_07_06_19_57_44.158,3.869,37.8,0,0.766,0,0,0,0, ,0,0,0,0,0, ,-34.4,351.9,930,0.3,1.5,-1,25,-24.3709,356.396,934.339,-0.936559,0.919974,-1.64173,
2026_07_06_19_57_44.188,3.869,37.7,0,0.766,0,0,0,0, ,0,0,0,0,0, ,-27.8,352.4,925,0,-1.6,0.1,25,-24.7809,356.137,933.923,-0.870346,0.860866,-1.5691,
2026_07_06_19_57_44.194,3.869,37.9,0,0.766,0,0,0,0, ,0,0,0,0,0, ,-42.1,355.2,946.2,0.2,0.2,0.4,25,-25.4006,355.995,934.025,-0.811216,0.765751,-1.45825,
2026_07_06_19_57_44.223,3.869,37.8,0,0.766,0,0,0,0, ,0,0,0,0,0, ,-42.1,359.2,940.9,-0.1,1.8,-0.1,25,-26.4182,356.068,934.605,-0.758736,0.780025,-1.36025,
2026_07_06_19_57_44.234,3.869,37.9,0,0.766,0,0,0,0, ,0,0,0,0,0, ,-44.7,360.8,944.7,-1.8,0.1,-3.4,25,-27.453,356.308,935.105,-0.770391,0.790383,-1.384,
2026_07_06_19_57_44.263,3.869,37.8,0,0.766,0,0,0,0, ,0,0,0,0,0, ,-34.4,351.5,921.6,-1.2,-1.1,-2.6,25,-28.1902,356.298,934.986,-0.814851,0.71175,-1.48248,
2026_07_06_19_57_44.273,3.869,37.8,0,0.766,0,0,0,0, ,0,0,0,0,0, ,-31.8,349.9,931.7,-1,-0.4,-1.6,25,-28.4894,355.957,934.478,-0.832228,0.622675,-1.52011,
2026_07_06_19_57_44.301,3.869,37.8,0,0.766,0,0,0,0, ,0,0,0,0,0, ,-24.2,355.1,935.5,-1.2,-0.9,-2,25,-28.4596,355.746,934.424,-0.848545,0.545121,-1.53716,
2026_07_06_19_57_44.313,3.869,37.9,0,0.766,0,0,0,0, ,0,0,0,0,0, ,-25.2,352.6,940.1,-1.2,-1.1,-1.7,25,-28.2305,355.631,934.63,-0.869962,0.450966,-1.55623,
2026_07_06_19_57_44.342,3.869,37.7,0,0.766,0,0,0,0, ,0,0,0,0,0, ,-30.8,354.4,939.8,-1.2,-1.1,-1.9,25,-28.2164,355.501,934.954,-0.890073,0.356454,-1.57108,
2026_07_06_19_57_44.353,3.869,37.8,0,0.765,0,0,0,0, ,0,0,0,0,0, ,-31.7,355.7,930.7,-1.1,-1,-1.5,25,-28.4013,355.473,934.972,-0.905913,0.270748,-1.57894,
2026_07_06_19_57_44.381,3.869,37.8,0,0.766,0,0,0,0, ,0,0,0,0,0, ,-37.4,353.2,927.6,-0.5,-0.7,-1.5,25,-28.776,355.411,934.617,-0.899459,0.202452,-1.57413,
2026_07_06_19_57_44.392,3.869,37.8,0,0.765,0,0,0,0, ,0,0,0,0,0, ,-30.8,356.4,936.5,0,-2.8,-1.3,25,-29.1004,355.374,934.461,-0.859882,0.0834747,-1.56352,
2026_07_06_19_57_44.421,3.869,37.9,0,0.766,0,0,0,0, ,0,0,0,0,0, ,-34,364.8,938.8,-0.5,0.6,-2.2,25,-29.3015,355.692,934.655,-0.822718,0.0113567,-1.57488,
2026_07_06_19_57_44.432,3.869,37.8,0,0.766,0,0,0,0, ,0,0,0,0,0, ,-25.3,351.8,931.8,0,-1.5,-3,25,-29.3227,355.851,934.694,-0.787818,-0.0167572,-1.63735,
2026_07_06_19_57_44.461,3.869,37.9,0,0.766,0,0,0,0, ,0,0,0,0,0, ,-32.4,350.2,945.5,-1,-0.7,-1.8,25,-29.2939,355.556,934.936,-0.770279,-0.0827673,-1.68382,
2026_07_06_19_57_44.472,3.869,37.8,0,0.765,0,0,0,0, ,0,0,0,0,0, ,-33.9,355.7,937.2,-1.5,-0.3,-2.7,25,-29.5289,355.397,935.326,-0.799512,-0.108192,-1.71832,
2026_07_06_19_57_44.502,3.869,37.8,0,0.765,0,0,0,0, ,0,0,0,0,0, ,-30.2,355.1,930.4,-0.4,0.1,-1.6,25,-29.6825,355.397,935.233,-0.808682,-0.107693,-1.74463,
2026_07_06_19_57_44.511,3.869,37.7,0,0.765,0,0,0,0, ,0,0,0,0,0, ,-35.6,352.9,936.4,-0.7,-0.4,-1.4,25,-29.8786,355.312,935.122,-0.792919,-0.110271,-1.72972,
2026_07_06_19_57_44.542,3.869,37.8,0,0.766,0,0,0,0, ,0,0,0,0,0, ,-34,356,932.7,-0.8,0,-1.5,25,-30.1785,355.259,935.087,-0.790303,-0.115739,-1.71268,
2026_07_06_19_57_44.551,3.869,37.8,0,0.765,0,0,0,0, ,0,0,0,0,0, ,-28.9,354.6,936.8,-1.2,0.1,-1.1,25,-30.256,355.262,935.066,-0.803082,-0.105639,-1.68753,
2026_07_06_19_57_44.580,3.869,37.8,0,0.766,0,0,0,0, ,0,0,0,0,0, ,-29.5,358.7,940.7,-1,0,-0.8,25,-30.1916,355.346,935.291,-0.821175,-0.0961551,-1.64259,
2026_07_06_19_57_44.591,3.869,37.8,0,0.766,0,0,0,0, ,0,0,0,0,0, ,-31.9,352.1,938.5,-1.6,-0.2,-1.1,25,-30.2226,355.35,935.553,-0.850354,-0.0963894,-1.60038,
2026_07_06_19_57_44.621,3.869,37.8,0,0.766,0,0,0,0, ,0,0,0,0,0, ,-37.9,351.9,934.5,-1.3,-0.2,-1.8,25,-30.5076,355.146,935.611,-0.886894,-0.102703,-1.59122,
2026_07_06_19_57_44.633,3.869,37.8,0,0.765,0,0,0,0, ,0,0,0,0,0, ,-34,349.9,928.2,-0.4,1,-1.8,25,-30.8393,354.887,935.351,-0.884646,-0.0720697,-1.60394,
2026_07_06_19_57_44.663,3.869,37.8,0,0.766,0,0,0,0, ,0,0,0,0,0, ,-32.2,359.7,916.9,0.2,1.2,-2.1,25,-30.977,354.882,934.571,-0.836832,-0.000646711,-1.62503,
2026_07_06_19_57_44.670,3.869,37.8,0,0.766,0,0,0,0, ,0,0,0,0,0, ,-24.6,350.7,956.6,0,2.4,-0.5,25,-30.82,354.901,934.704,-0.779744,0.10908,-1.60522,
2026_07_06_19_57_44.700,3.869,37.8,0,0.766,0,0,0,0, ,0,0,0,0,0, ,-34.4,357.6,931.3,-0.5,0.5,-1.8,25,-30.7396,354.855,935.267,-0.747462,0.190792,-1.57748,
2026_07_06_19_57_44.709,3.869,37.8,0,0.765,0,0,0,0, ,0,0,0,0,0, ,-34,347.7,932.7,0.4,2.3,-1.5,25,-30.9504,354.721,935.068,-0.704961,0.264479,-1.5819,
2026_07_06_19_57_44.737,3.869,37.7,0,0.766,0,0,0,0, ,0,0,0,0,0, ,-39,350.4,942.9,-0.2,0.5,-1.6,25,-31.2886,354.375,935.235,-0.655909,0.333674,-1.57996,
2026_07_06_19_57_44.749,3.869,37.9,0,0.765,0,0,0,0, ,0,0,0,0,0, ,-39.3,356.2,934.8,0,0,-1.7,25,-31.7677,354.31,935.455,-0.622033,0.328575,-1.58422,
2026_07_06_19_57_44.779,3.869,37.8,0,0.766,0,0,0,0, ,0,0,0,0,0, ,-37.5,357,937.8,0,-0.5,-1.3,25,-32.1718,354.449,935.507,-0.584128,0.293319,-1.57909,
2026_07_06_19_57_44.788,3.869,37.8,0,0.767,0,0,0,0, ,0,0,0,0,0, ,-41.6,359,942.5,-0.7,-1.2,-1.5,25,-32.6214,354.666,935.79,-0.569861,0.223648,-1.56818,
2026_07_06_19_57_44.817,3.869,37.7,0,0.766,0,0,0,0, ,0,0,0,0,0, ,-42.8,357,935.3,-0.4,-1.9,-1.6,25,-33.2051,354.869,935.979,-0.56865,0.115566,-1.56707,
2026_07_06_19_57_44.828,3.869,37.7,0,0.765,0,0,0,0, ,0,0,0,0,0, ,-40.5,355.7,932.2,-0.8,-2.7,-2,25,-33.7197,354.959,935.843,-0.570561,-0.0316326,-1.58127,
2026_07_06_19_57_44.860,3.869,37.9,0,0.764,0,0,0,0, ,0,0,0,0,0, ,-31.4,355.9,925.9,0.3,-2.2,-1.6,25,-33.8556,355.01,935.429,-0.551027,-0.179002,-1.59459,
2026_07_06_19_57_44.868,3.869,37.8,0,0.765,0,0,0,0, ,0,0,0,0,0, ,-26.3,355.5,941.1,0.3,-0.8,-1.2,25,-33.5506,355.052,935.312,-0.499167,-0.2595,-1.58274,
2026_07_06_19_57_44.897,3.869,37.8,0,0.766,0,0,0,0, ,0,0,0,0,0, ,-23.4,353.3,939.5,-0.2,-0.5,-1.3,25,-33.0204,355.013,935.616,-0.465702,-0.283296,-1.56246,
2026_07_06_19_57_44.907,3.869,37.7,0,0.766,0,0,0,0, ,0,0,0,0,0, ,-29.4,350.7,927,-0.3,-0.6,-1.1,25,-32.617,354.829,935.472,-0.452558,-0.299549,-1.54037,
2026_07_06_19_57_44.939,3.869,37.8,0,0.766,0,0,0,0, ,0,0,0,0,0, ,-35.2,360.5,926.5,0.6,2,-1.3,25,-32.5977,354.876,934.94,-0.41584,-0.238639,-1.51963,
2026_07_06_19_57_44.946,3.869,37.7,0,0.765,0,0,0,0, ,0,0,0,0,0, ,-32.7,358.2,936.2,1.4,3.3,-1.8,25,-32.6801,355.149,934.721,-0.329562,-0.0626121,-1.52148,
2026_07_06_19_57_44.977,3.869,37.7,0,0.765,0,0,0,0, ,0,0,0,0,0, ,-32.8,354.2,936.8,0.5,1.5,-0.8,25,-32.6843,355.213,934.83,-0.251589,0.0874533,-1.50799,
2026_07_06_19_57_44.987,3.869,37.7,0,0.765,0,0,0,0, ,0,0,0,0,0, ,-42.7,350.2,927.8,1.4,-0.5,-1.1,25,-32.993,355.029,934.676,-0.178367,0.112593,-1.47398,
2026_07_06_19_57_45.017,3.869,37.8,0,0.766,0,0,0,0, ,0,0,0,0,0, ,-50.6,354.2,942.8,-0.7,0.8,-0.5,25,-33.8252,354.857,934.714,-0.146169,0.114872,-1.43291,
2026_07_06_19_57_45.027,3.869,37.7,0,0.767,0,0,0,0, ,0,0,0,0,0, ,-33.5,369.1,927.3,0.7,0.7,-2.1,25,-34.3264,355.271,934.734,-0.137262,0.153575,-1.42481,
2026_07_06_19_57_45.056,3.869,37.8,0,0.766,0,0,0,0, ,0,0,0,0,0, ,-31.7,363.6,929.6,2.1,-0.7,-0.3,25,-34.2212,355.946,934.351,-0.0435853,0.144217,-1.41111,
2026_07_06_19_57_45.066,3.869,37.8,0,0.766,0,0,0,0, ,0,0,0,0,0, ,-42.2,353.8,957.7,0,-1.5,-0.5,25,-34.3875,356.114,934.918,0.0230551,0.0683975,-1.3495,
2026_07_06_19_57_45.096,3.869,37.8,0,0.763,0,0,0,0, ,0,0,0,0,0, ,-45.4,360.8,923,-1,-2.2,-2.4,25,-34.9611,356.186,935.249,-0.0088186,-0.0485049,-1.35562,
2026_07_06_19_57_45.105,3.869,37.8,0,0.765,0,0,0,0, ,0,0,0,0,0, ,-34.3,350.7,933.4,-1,-1.4,-2.1,25,-35.259,356.159,934.819,-0.0692187,-0.155237,-1.41012,
2026_07_06_19_57_45.135,3.869,37.8,0,0.766,0,0,0,0, ,0,0,0,0,0, ,-27.3,360.5,930.9,0.1,-1.3,-1.8,25,-34.9873,356.125,934.657,-0.0924226,-0.228042,-1.44302,
2026_07_06_19_57_45.151,3.869,37.8,0,0.766,0,0,0,0, ,0,0,0,0,0, ,-32.9,358,940.1,-0.2,-1,-1.1,25,-34.6895,356.316,934.708,-0.0898374,-0.284224,-1.44345,
2026_07_06_19_57_45.181,3.869,37.7,0,0.766,0,0,0,0, ,0,0,0,0,0, ,-40.1,364,931.6,-0.4,-1.6,-1.5,25,-34.7998,356.601,934.778,-0.102644,-0.346123,-1.43471,
2026_07_06_19_57_45.186,3.869,37.7,0,0.765,0,0,0,0, ,0,0,0,0,0, ,-37.8,361.9,933.3,-0.6,-1.9,-1.1,25,-35.0527,356.988,934.636,-0.126858,-0.431672,-1.4265,
2026_07_06_19_57_45.215,3.869,37.7,0,0.767,0,0,0,0, ,0,0,0,0,0, ,-43.5,363.8,927.6,0.1,-1.2,-1.8,25,-35.3938,357.345,934.381,-0.134362,-0.49982,-1.42793,
2026_07_06_19_57_45.224,3.869,37.8,0,0.766,0,0,0,0, ,0,0,0,0,0, ,-32.4,359.7,930.1,-0.6,-0.7,-2.2,25,-35.5496,357.614,934.044,-0.141409,-0.527253,-1.46279,
2026_07_06_19_57_45.254,3.869,37.7,0,0.766,0,0,0,0, ,0,0,0,0,0, ,-25.1,362.4,934.9,-0.5,-0.5,-2.2,25,-35.1352,357.823,933.95,-0.166307,-0.531686,-1.50771,
2026_07_06_19_57_45.264,3.869,37.8,0,0.766,0,0,0,0, ,0,0,0,0,0, ,-23.5,354.7,933.1,-0.4,0.4,-2,25,-34.4749,357.867,933.953,-0.183595,-0.502333,-1.54381,
2026_07_06_19_57_45.294,3.869,37.8,0,0.765,0,0,0,0, ,0,0,0,0,0, ,-24.6,357.9,937.2,-0.7,0.3,-1.7,25,-33.8397,357.772,934.026,-0.205923,-0.450394,-1.56247,
2026_07_06_19_57_45.304,3.869,37.8,0,0.766,0,0,0,0, ,0,0,0,0,0, ,-29.1,360.3,927,-0.9,0.4,-1.2,25,-33.4137,357.853,933.908,-0.242124,-0.40162,-1.55561,
2026_07_06_19_57_45.334,3.869,37.8,0,0.765,0,0,0,0, ,0,0,0,0,0, ,-36.4,361,939.8,-0.9,-1.5,-0.5,25,-33.3733,358.023,933.877,-0.282213,-0.410662,-1.51261,
2026_07_06_19_57_45.343,3.869,37.8,0,0.766,0,0,0,0, ,0,0,0,0,0, ,-49.8,358.2,935.3,-0.9,0.9,-1.4,25,-33.966,358.119,934.101,-0.31986,-0.403918,-1.47833,
2026_07_06_19_57_45.374,3.869,37.7,0,0.766,0,0,0,0, ,0,0,0,0,0, ,-38.3,359.3,921.6,-0.5,0.4,-2.1,25,-34.5805,358.158,933.757,-0.343025,-0.339695,-1.49488,
2026_07_06_19_57_45.383,3.869,37.8,0,0.766,0,0,0,0, ,0,0,0,0,0, ,-34.9,357.7,933.7,0,-0.4,-1.3,25,-34.7036,358.179,933.385,-0.337356,-0.318995,-1.50738,
2026_07_06_19_57_45.413,3.869,37.8,0,0.767,0,0,0,0, ,0,0,0,0,0, ,-38.6,359,941.7,-1.1,0,-1.6,25,-34.8283,358.189,933.648,-0.350314,-0.311744,-1.50389,
2026_07_06_19_57_45.423,3.869,37.7,0,0.765,0,0,0,0, ,0,0,0,0,0, ,-35.4,359,935,-1.8,0.2,-2.3,25,-34.9606,358.238,933.934,-0.417326,-0.286653,-1.53107,
2026_07_06_19_57_45.453,3.869,37.7,0,0.765,0,0,0,0, ,0,0,0,0,0, ,-32.9,358.5,934.3,-2.2,-0.3,-2.2,25,-34.9112,358.27,933.978,-0.51377,-0.272232,-1.57488,
2026_07_06_19_57_45.461,3.869,37.7,0,0.767,0,0,0,0, ,0,0,0,0,0, ,-34.5,360.4,933.3,-2.1,-0.5,-2,25,-34.8374,358.342,933.967,-0.613478,-0.280018,-1.60688,
2026_07_06_19_57_45.493,3.869,37.7,0,0.764,0,0,0,0, ,0,0,0,0,0, ,-36.4,358.2,936,-2.2,-1.2,-2.1,25,-34.8747,358.4,934.009,-0.70711,-0.314751,-1.63388,
2026_07_06_19_57_45.502,3.869,37.7,0,0.766,0,0,0,0, ,0,0,0,0,0, ,-37.9,356.4,934.4,-3,-2.2,-1.7,25,-35.0134,358.333,934.081,-0.822458,-0.399165,-1.6501,
2026_07_06_19_57_45.532,3.869,37.7,0,0.766,0,0,0,0, ,0,0,0,0,0, ,-32.3,350.5,935.5,-3.4,-2.3,-1.5,25,-35.0187,358.035,934.134,-0.967339,-0.51195,-1.64705,
2026_07_06_19_57_45.541,3.869,37.7,0,0.765,0,0,0,0, ,0,0,0,0,0, ,-37.9,358.1,923.5,-1.8,0,-2,25,-35.0236,357.808,933.852,-1.06683,-0.550831,-1.65332,
2026_07_06_19_57_45.572,3.869,37.7,0,0.766,0,0,0,0, ,0,0,0,0,0, ,-36.6,356.2,927.3,-1,0.5,-1.3,25,-35.1593,357.768,933.337,-1.08713,-0.502031,-1.65312,
2026_07_06_19_57_45.581,3.869,37.8,0,0.766,0,0,0,0, ,0,0,0,0,0, ,-37.4,360.7,924.9,-0.8,1.2,-1.6,25,-35.2715,357.809,932.896,-1.07573,-0.419641,-1.64074,
2026_07_06_19_57_45.612,3.869,37.8,0,0.767,0,0,0,0, ,0,0,0,0,0, ,-33.2,362.9,931.5,-0.7,2.3,-1.7,25,-35.2732,358.052,932.61,-1.05588,-0.287429,-1.64131,
2026_07_06_19_57_45.620,3.869,37.7,0,0.767,0,0,0,0, ,0,0,0,0,0, ,-35,371.5,914,0.7,2.8,-2.3,25,-35.2017,358.61,932.009,-0.991537,-0.114523,-1.66316,
2026_07_06_19_57_45.650,3.869,37.8,0,0.766,0,0,0,0, ,0,0,0,0,0, ,-23,345,945.4,2.1,1.8,-1.5,25,-34.8238,358.588,931.868,-0.845803,0.032612,-1.6776,
2026_07_06_19_57_45.660,3.869,37.7,0,0.766,0,0,0,0, ,0,0,0,0,0, ,-38.9,361.4,959.9,0,0.4,-2.5,25,-34.5877,358.26,933.134,-0.730277,0.0976559,-1.69724,
2026_07_06_19_57_45.691,3.869,37.7,0,0.765,0,0,0,0, ,0,0,0,0,0, ,-69.7,385,961.4,-0.4,-3.2,-6.4,25,-35.7889,359.17,934.811,-0.697963,0.00639253,-1.86499,
2026_07_06_19_57_45.703,3.869,37.8,0,0.763,0,0,0,0, ,0,0,0,0,0, ,-58.2,411.4,945.8,2.3,4.6,-15.5,25,-37.505,361.548,935.956,-0.597541,0.0486592,-2.41861,
2026_07_06_19_57_45.734,3.869,37.8,0,0.766,0,0,0,0, ,0,0,0,0,0, ,-26.2,443.4,994,13.4,28.1,-11.6,25,-37.7911,365.561,938.025,-0.0827688,1.04202,-3.09693,
2026_07_06_19_57_45.739,3.869,37.7,0,0.763,0,0,0,0, ,0,0,0,0,0, ,-2.3,456,1152.7,13.1,35.2,-7.5,25,-36.3566,370.688,946.271,0.729697,2.9072,-3.49016,
2026_07_06_19_57_45.770,3.869,37.7,0,0.765,0,0,0,0, ,0,0,0,0,0, ,19.1,474.1,1201.1,5.5,33.2,-6.8,25,-33.6292,376.439,960.325,1.25195,4.8141,-3.71318,
