UTC_Time,Vin,TC1,TC2,Rh1,Vh1,Ah1,Acp1,Dty1,Err1,Rh2,Vh2,Ah2,Acp2,Dty2,Err2,Accel_x,Accel_y,Accel_z,gyro_x,gyro_y,gyro_z,Temp_c,Accel_x_h,Accel_y_h,Accel_z_h,gyro_x_h,gyro_y_h,gyro_z_h,
2026_07_06_17_04_25.427,3.869,29.5,0,0.756,0,0,0,0.004, ,0,0,0,0,0, ,-37.8,277,961.9,-0.6,-0.6,-1.8,25,-37.8,277,961.9,-0.6,-0.6,-1.8,
2026_07_06_17_04_25.447,3.869,29.4,0,0.759,0,0,0,0.004, ,0,0,0,0,0, ,-37.7,276.1,961.6,-0.6,-0.6,-1.8,25,-37.797,276.973,961.891,-0.6,-0.6,-1.8,
2026_07_06_17_04_25.466,3.869,29.4,0,0.76,0,0,0,0.004, ,0,0,0,0,0, ,-38.6,275.3,961.9,-0.6,-0.5,-1.8,25,-37.8185,276.895,961.882,-0.6,-0.596953,-1.8,
2026_07_06_17_04_25.487,3.869,29.4,0,0.759,0,0,0,0.005, ,0,0,0,0,0, ,-37.7,276.9,960.5,-0.6,-0.5,-1.8,25,-37.8387,276.847,961.841,-0.6,-0.591045,-1.8,
2026_07_06_17_04_25.506,3.869,29.4,0,0.758,0,0,0,0.005, ,0,0,0,0,0, ,-38.8,275.8,961.4,-0.6,-0.5,-1.8,25,-37.8637,276.816,961.786,-0.6,-0.585497,-1.8,
2026_07_06_17_04_25.526,3.869,29.4,0,0.758,0,0,0,0.005, ,0,0,0,0,0, ,-38.3,276.9,960.8,-0.6,-0.6,-1.8,25,-37.9056,276.788,961.745,-0.6,-0.583334,-1.8,
2026_07_06_17_04_25.546,3.869,29.3,0,0.756,0,0,0,0.005, ,0,0,0,0,0, ,-38,276.8,961.4,-0.6,-0.5,-1.8,25,-37.9204,276.792,961.705,-0.6,-0.581303,-1.8,
2026_07_06_17_04_25.566,3.869,29.4,0,0.759,0,0,0,0.006, ,0,0,0,0,0, ,-38.6,277,960.8,-0.6,-0.5,-1.8,25,-37.9436,276.798,961.668,-0.6,-0.576348,-1.8,
2026_07_06_17_04_25.592,3.869,29.4,0,0.758,0,0,0,0.005, ,0,0,0,0,0, ,-38.3,276.2,959.8,-0.6,-0.5,-1.7,25,-37.9744,276.786,961.585,-0.6,-0.571696,-1.79695,
2026_07_06_17_04_25.606,3.869,29.4,0,0.758,0,0,0,0.005, ,0,0,0,0,0, ,-37.5,276,961.1,-0.5,-0.5,-1.8,25,-37.9699,276.744,961.516,-0.596953,-0.567327,-1.79409,
2026_07_06_17_04_25.625,3.869,29.3,0,0.76,0,0,0,0.005, ,0,0,0,0,0, ,-37.8,276.7,961.4,-0.6,-0.5,-1.9,25,-37.9504,276.72,961.5,-0.594092,-0.563224,-1.7975,
2026_07_06_17_04_25.644,3.869,29.4,0,0.759,0,0,0,0.006, ,0,0,0,0,0, ,-37.9,276.9,960.4,-0.6,-0.6,-1.8,25,-37.9443,276.725,961.463,-0.594452,-0.562418,-1.8007,
2026_07_06_17_04_25.665,3.869,29.4,0,0.759,0,0,0,0.005, ,0,0,0,0,0, ,-36.9,276.1,960.2,-0.6,-0.5,-1.8,25,-37.9111,276.711,961.392,-0.59479,-0.561662,-1.80066,
2026_07_06_17_04_25.685,3.869,29.4,0,0.76,0,0,0,0.005, ,0,0,0,0,0, ,-38,276.7,960.2,-0.6,-0.6,-1.8,25,-37.883,276.693,961.32,-0.595108,-0.560951,-1.80062,
2026_07_06_17_04_25.705,3.869,29.4,0,0.757,0,0,0,0.005, ,0,0,0,0,0, ,-38.4,276.2,960.3,-0.6,-0.5,-1.9,25,-37.9023,276.678,961.254,-0.595406,-0.560284,-1.80362,
2026_07_06_17_04_25.728,3.869,29.3,0,0.758,0,0,0,0.005, ,0,0,0,0,0, ,-38.4,276.6,961.9,-0.6,-0.5,-1.8,25,-37.9327,276.661,961.245,-0.595686,-0.55661,-1.80645,
2026_07_06_17_04_25.744,3.869,29.3,0,0.758,0,0,0,0.006, ,0,0,0,0,0, ,-37.4,276.8,961.7,-0.6,-0.5,-1.8,25,-37.9307,276.663,961.279,-0.595949,-0.55316,-1.80606,
2026_07_06_17_04_25.764,3.869,29.3,0,0.76,0,0,0,0.006, ,0,0,0,0,0, ,-38.6,277,961.5,-0.6,-0.5,-1.7,25,-37.9349,276.678,961.298,-0.596195,-0.549921,-1.80264,
2026_07_06_17_04_25.783,3.869,29.4,0,0.758,0,0,0,0.006, ,0,0,0,0,0, ,-37.7,277,961.5,-0.6,-0.5,-1.8,25,-37.948,276.697,961.311,-0.596427,-0.546879,-1.79943,
2026_07_06_17_04_25.803,3.869,29.4,0,0.758,0,0,0,0.006, ,0,0,0,0,0, ,-36.7,277.4,960.2,-0.6,-0.5,-1.8,25,-37.9024,276.728,961.283,-0.596645,-0.544022,-1.79947,
2026_07_06_17_04_25.823,3.869,29.4,0,0.76,0,0,0,0.006, ,0,0,0,0,0, ,-38.3,277.4,960.8,-0.6,-0.6,-1.8,25,-37.8779,276.769,961.235,-0.596849,-0.544386,-1.7995,
2026_07_06_17_04_25.843,3.869,29.4,0,0.759,0,0,0,0.006, ,0,0,0,0,0, ,-37.9,276.4,960.6,-0.6,-0.6,-1.8,25,-37.8914,276.777,961.202,-0.597041,-0.547775,-1.79953,
2026_07_06_17_04_25.868,3.869,29.4,0,0.759,0,0,0,0.006, ,0,0,0,0,0, ,-38.4,277.3,961.6,-0.6,-0.5,-1.8,25,-37.9072,276.781,961.196,-0.597222,-0.547911,-1.79956,
2026_07_06_17_04_25.883,3.869,29.4,0,0.759,0,0,0,0.006, ,0,0,0,0,0, ,-37.7,276.7,960.6,-0.6,-0.5,-1.8,25,-37.9159,276.795,961.19,-0.597391,-0.544991,-1.79959,
2026_07_06_17_04_25.902,3.869,29.4,0,0.759,0,0,0,0.006, ,0,0,0,0,0, ,-37.5,276.7,960.8,-0.6,-0.5,-1.8,25,-37.8966,276.789,961.16,-0.59755,-0.54225,-1.79961,
2026_07_06_17_04_25.922,3.869,29.4,0,0.759,0,0,0,0.006, ,0,0,0,0,0, ,-38,276.6,960.9,-0.6,-0.6,-1.8,25,-37.8877,276.78,961.141,-0.597699,-0.542722,-1.79964,
2026_07_06_17_04_25.942,3.869,29.5,0,0.759,0,0,0,0.006, ,0,0,0,0,0, ,-38.3,276.3,961.3,-0.6,-0.6,-1.7,25,-37.9037,276.76,961.139,-0.59784,-0.546212,-1.79661,
2026_07_06_17_04_25.961,3.869,29.4,0,0.758,0,0,0,0.005, ,0,0,0,0,0, ,-38.5,277,961.4,-0.6,-0.6,-1.7,25,-37.9339,276.754,961.152,-0.597971,-0.54949,-1.79072,
2026_07_06_17_04_25.981,3.869,29.5,0,0.757,0,0,0,0.006, ,0,0,0,0,0, ,-38.9,276.1,961,-0.6,-0.5,-1.7,25,-37.9806,276.741,961.155,-0.598095,-0.549521,-1.7852,
2026_07_06_17_04_26.005,3.869,29.5,0,0.761,0,0,0,0.005, ,0,0,0,0,0, ,-37.5,277.2,961.9,-0.5,-0.5,-1.8,25,-37.994,276.736,961.173,-0.595164,-0.546503,-1.78305,
2026_07_06_17_04_26.021,3.869,29.5,0,0.758,0,0,0,0.005, ,0,0,0,0,0, ,-38.4,276.9,960.8,-0.6,-0.6,-1.7,25,-37.9913,276.755,961.184,-0.592412,-0.546717,-1.78104,
2026_07_06_17_04_26.041,3.869,29.4,0,0.759,0,0,0,0.005, ,0,0,0,0,0, ,-37.3,276.4,960.2,-0.7,-0.5,-1.8,25,-37.9827,276.748,961.142,-0.595921,-0.546917,-1.77915,
2026_07_06_17_04_26.060,3.869,29.4,0,0.758,0,0,0,0.006, ,0,0,0,0,0, ,-38.2,277.3,959.9,-0.6,-0.5,-1.8,25,-37.9685,276.755,961.075,-0.599217,-0.544058,-1.78042,
2026_07_06_17_04_26.081,3.869,29.3,0,0.759,0,0,0,0.006, ,0,0,0,0,0, ,-37.3,277.5,961.4,-0.6,-0.5,-1.8,25,-37.9552,276.794,961.049,-0.599264,-0.541373,-1.78161,
2026_07_06_17_04_26.101,3.869,29.5,0,0.759,0,0,0,0.007, ,0,0,0,0,0, ,-38,278.1,960.3,-0.6,-0.5,-1.8,25,-37.9366,276.855,961.037,-0.599309,-0.538852,-1.78273,
2026_07_06_17_04_26.121,3.869,29.4,0,0.76,0,0,0,0.006, ,0,0,0,0,0, ,-38.6,276.3,960.6,-0.6,-0.5,-1.8,25,-37.9587,276.876,961.001,-0.599351,-0.536484,-1.78378,
2026_07_06_17_04_26.146,3.869,29.4,0,0.759,0,0,0,0.007, ,0,0,0,0,0, ,-36.8,276.6,960.8,-0.7,-0.5,-1.8,25,-37.943,276.85,960.983,-0.602438,-0.534261,-1.78477,
2026_07_06_17_04_26.160,3.869,29.5,0,0.759,0,0,0,0.007, ,0,0,0,0,0, ,-37.5,275.5,961.1,-0.6,-0.6,-1.7,25,-37.8947,276.801,960.981,-0.605336,-0.53522,-1.78265,
2026_07_06_17_04_26.180,3.869,29.4,0,0.759,0,0,0,0.006, ,0,0,0,0,0, ,-38.9,275.7,961,-0.6,-0.6,-1.8,25,-37.9133,276.728,960.985,-0.605011,-0.539168,-1.78066,
2026_07_06_17_04_26.200,3.869,29.4,0,0.759,0,0,0,0.007, ,0,0,0,0,0, ,-37.7,277.3,963.2,-0.6,-0.5,-1.8,25,-37.9368,276.714,961.053,-0.604705,-0.539828,-1.78184,
2026_07_06_17_04_26.219,3.869,29.5,0,0.759,0,0,0,0.007, ,0,0,0,0,0, ,-37.7,276.1,960.4,-0.5,-0.6,-1.9,25,-37.9224,276.713,961.099,-0.601372,-0.540448,-1.78599,
2026_07_06_17_04_26.240,3.869,29.5,0,0.758,0,0,0,0.006, ,0,0,0,0,0, ,-38,276.6,961.1,-0.6,-0.5,-1.8,25,-37.918,276.691,961.077,-0.598241,-0.54103,-1.78989,
2026_07_06_17_04_26.259,3.869,29.5,0,0.758,0,0,0,0.006, ,0,0,0,0,0, ,-38.9,275.8,960.6,-0.5,-0.5,-1.8,25,-37.9504,276.661,961.064,-0.595302,-0.538529,-1.79051,
2026_07_06_17_04_26.284,3.869,29.4,0,0.758,0,0,0,0.006, ,0,0,0,0,0, ,-36.8,276.7,961.3,-0.6,-0.5,-1.7,25,-37.9443,276.636,961.057,-0.592541,-0.536182,-1.78804,
2026_07_06_17_04_26.298,3.869,29.4,0,0.758,0,0,0,0.007, ,0,0,0,0,0, ,-37.9,276,960,-0.6,-0.6,-1.8,25,-37.9081,276.619,961.032,-0.592996,-0.537024,-1.78572,
2026_07_06_17_04_26.318,3.869,29.5,0,0.759,0,0,0,0.007, ,0,0,0,0,0, ,-38.3,275,962.2,-0.6,-0.6,-1.8,25,-37.9198,276.551,961.036,-0.593422,-0.540861,-1.78659,
2026_07_06_17_04_26.338,3.869,29.4,0,0.757,0,0,0,0.006, ,0,0,0,0,0, ,-39.4,277.3,961.1,-0.7,-0.5,-1.8,25,-37.9765,276.526,961.073,-0.59687,-0.541418,-1.78741,
2026_07_06_17_04_26.358,3.869,29.5,0,0.759,0,0,0,0.007, ,0,0,0,0,0, ,-37.3,276.4,960.2,-0.6,-0.5,-1.7,25,-37.9992,276.546,961.048,-0.600108,-0.538894,-1.78513,
2026_07_06_17_04_26.377,3.869,29.5,0,0.759,0,0,0,0.006, ,0,0,0,0,0, ,-37.8,276.7,961.7,-0.5,-0.5,-1.7,25,-37.9718,276.546,961.042,-0.597054,-0.536524,-1.77994,
2026_07_06_17_04_26.398,3.869,29.5,0,0.759,0,0,0,0.006, ,0,0,0,0,0, ,-37.2,277.3,961.9,-0.6,-0.5,-1.7,25,-37.9431,276.574,961.088,-0.594187,-0.534298,-1.77507,
2026_07_06_17_04_26.418,3.869,29.4,0,0.759,0,0,0,0.006, ,0,0,0,0,0, ,-37.4,276,961.5,-0.6,-0.5,-1.8,25,-37.9039,276.579,961.125,-0.594541,-0.532208,-1.77354,
2026_07_06_17_04_26.437,3.869,29.4,0,0.759,0,0,0,0.007, ,0,0,0,0,0, ,-37.9,276.8,961.1,-0.6,-0.6,-1.8,25,-37.8884,276.568,961.136,-0.594874,-0.533293,-1.77516,
2026_07_06_17_04_26.457,3.869,29.4,0,0.759,0,0,0,0.007, ,0,0,0,0,0, ,-37.3,277.2,961.6,-0.6,-0.6,-1.7,25,-37.8709,276.594,961.149,-0.595186,-0.537357,-1.77362,
2026_07_06_17_04_26.477,3.869,29.5,0,0.759,0,0,0,0.007, ,0,0,0,0,0, ,-37.8,277.5,960.4,-0.6,-0.6,-1.7,25,-37.8513,276.64,961.14,-0.59548,-0.541175,-1.76914,
2026_07_06_17_04_26.496,3.869,29.5,0,0.759,0,0,0,0.007, ,0,0,0,0,0, ,-37.8,277.2,962.2,-0.6,-0.5,-1.8,25,-37.8482,276.683,961.15,-0.595755,-0.541713,-1.76797,
2026_07_06_17_04_26.517,3.869,29.5,0,0.758,0,0,0,0.007, ,0,0,0,0,0, ,-38.3,277.4,960.8,-0.6,-0.6,-1.7,25,-37.8605,276.721,961.171,-0.596014,-0.542218,-1.76688,
2026_07_06_17_04_26.536,3.869,29.5,0,0.757,0,0,0,0.007, ,0,0,0,0,0, ,-38.5,277.7,961.6,-0.6,-0.5,-1.8,25,-37.8934,276.771,961.173,-0.596257,-0.542692,-1.76585,
2026_07_06_17_04_26.556,3.869,29.5,0,0.757,0,0,0,0.007, ,0,0,0,0,0, ,-38.8,277.3,961.7,-0.5,-0.6,-1.8,25,-37.9395,276.816,961.202,-0.593438,-0.543137,-1.76793,
2026_07_06_17_04_26.576,3.869,29.5,0,0.76,0,0,0,0.007, ,0,0,0,0,0, ,-37.8,276.3,961.3,-0.6,-0.6,-1.7,25,-37.9614,276.815,961.22,-0.590791,-0.546602,-1.76684,
2026_07_06_17_04_26.596,3.869,29.4,0,0.759,0,0,0,0.007, ,0,0,0,0,0, ,-38.3,276.8,960.6,-0.6,-0.5,-1.8,25,-37.9668,276.799,961.204,-0.591352,-0.546809,-1.76581,
2026_07_06_17_04_26.616,3.869,29.4,0,0.759,0,0,0,0.008, ,0,0,0,0,0, ,-38.3,277,961.6,-0.6,-0.6,-1.8,25,-37.9871,276.805,961.197,-0.591879,-0.547004,-1.76789,
2026_07_06_17_04_26.635,3.869,29.5,0,0.758,0,0,0,0.008, ,0,0,0,0,0, ,-37.2,275.7,961.1,-0.5,-0.5,-1.7,25,-37.9727,276.777,961.207,-0.589327,-0.547186,-1.7668,
2026_07_06_17_04_26.655,3.869,29.5,0,0.758,0,0,0,0.007, ,0,0,0,0,0, ,-38.4,277,960.9,-0.6,-0.5,-1.8,25,-37.9622,276.751,961.194,-0.586931,-0.544311,-1.76578,
2026_07_06_17_04_26.674,3.869,29.4,0,0.759,0,0,0,0.007, ,0,0,0,0,0, ,-39.1,277.5,963,-0.5,-0.5,-1.7,25,-38.0102,276.782,961.24,-0.58468,-0.541611,-1.76482,
2026_07_06_17_04_26.695,3.869,29.5,0,0.759,0,0,0,0.008, ,0,0,0,0,0, ,-38.4,278.3,961.7,-0.6,-0.5,-1.8,25,-38.0553,276.85,961.308,-0.582567,-0.539075,-1.76391,
2026_07_06_17_04_26.716,3.869,29.6,0,0.759,0,0,0,0.007, ,0,0,0,0,0, ,-37.9,276.9,961.5,-0.6,-0.5,-1.8,25,-38.061,276.895,961.325,-0.583629,-0.536694,-1.76611,
2026_07_06_17_04_26.735,3.869,29.6,0,0.759,0,0,0,0.007, ,0,0,0,0,0, ,-37.3,275.8,960.6,-0.6,-0.6,-1.8,25,-38.0329,276.862,961.309,-0.584627,-0.537505,-1.76818,
2026_07_06_17_04_26.754,3.869,29.5,0,0.759,0,0,0,0.007, ,0,0,0,0,0, ,-38.3,276.6,962.4,-0.6,-0.5,-1.8,25,-38.0187,276.822,961.32,-0.585564,-0.538266,-1.77012,
2026_07_06_17_04_26.774,3.869,29.5,0,0.759,0,0,0,0.007, ,0,0,0,0,0, ,-37.5,276,962,-0.7,-0.5,-1.8,25,-38.0115,276.79,961.374,-0.58949,-0.535934,-1.77194,
2026_07_06_17_04_26.794,3.869,29.6,0,0.761,0,0,0,0.007, ,0,0,0,0,0, ,-37.4,277.8,961,-0.6,-0.6,-1.8,25,-37.9773,276.797,961.382,-0.593177,-0.536791,-1.77365,
2026_07_06_17_04_26.814,3.869,29.6,0,0.759,0,0,0,0.007, ,0,0,0,0,0, ,-37.4,278,960.9,-0.6,-0.6,-1.8,25,-37.9421,276.864,961.355,-0.593593,-0.540643,-1.77525,
2026_07_06_17_04_26.833,3.869,29.5,0,0.759,0,0,0,0.007, ,0,0,0,0,0, ,-38.5,277.4,960.9,-0.6,-0.6,-1.8,25,-37.9426,276.915,961.328,-0.593984,-0.54426,-1.77676,
2026_07_06_17_04_26.853,3.869,29.6,0,0.76,0,0,0,0.008, ,0,0,0,0,0, ,-37.7,276.8,960.4,-0.6,-0.5,-1.7,25,-37.9522,276.926,961.286,-0.59435,-0.54461,-1.77513,
2026_07_06_17_04_26.873,3.869,29.6,0,0.759,0,0,0,0.007, ,0,0,0,0,0, ,-37.1,276.6,962.6,-0.6,-0.5,-1.8,25,-37.9185,276.912,961.299,-0.594695,-0.541892,-1.7736,
2026_07_06_17_04_26.892,3.869,29.6,0,0.758,0,0,0,0.007, ,0,0,0,0,0, ,-37.2,276.6,961.7,-0.7,-0.6,-1.8,25,-37.8717,276.893,961.351,-0.598065,-0.542386,-1.77521,
2026_07_06_17_04_26.913,3.869,29.5,0,0.759,0,0,0,0.007, ,0,0,0,0,0, ,-36.8,276.9,961,-0.6,-0.6,-1.8,25,-37.8186,276.885,961.351,-0.60123,-0.545897,-1.77672,
2026_07_06_17_04_26.932,3.869,29.6,0,0.759,0,0,0,0.008, ,0,0,0,0,0, ,-37.1,276.6,960.6,-0.5,-0.4,-1.9,25,-37.7657,276.876,961.317,-0.598108,-0.5431,-1.78118,
2026_07_06_17_04_26.952,3.869,29.6,0,0.76,0,0,0,0.007, ,0,0,0,0,0, ,-38.4,276,962,-0.6,-0.5,-1.8,25,-37.7647,276.841,961.316,-0.595176,-0.537427,-1.78538,
2026_07_06_17_04_26.971,3.869,29.6,0,0.759,0,0,0,0.007, ,0,0,0,0,0, ,-37.5,275.7,961.7,-0.6,-0.6,-1.7,25,-37.776,276.781,961.349,-0.59547,-0.538193,-1.78322,
2026_07_06_17_04_26.992,3.869,29.6,0,0.759,0,0,0,0.007, ,0,0,0,0,0, ,-38.5,276.4,961.5,-0.6,-0.5,-1.7,25,-37.7896,276.736,961.364,-0.595746,-0.538912,-1.77815,
2026_07_06_17_04_27.011,3.869,29.6,0,0.759,0,0,0,0.007, ,0,0,0,0,0, ,-38.2,278.1,960,-0.6,-0.6,-1.8,25,-37.8238,276.768,961.327,-0.596005,-0.539588,-1.77644,
2026_07_06_17_04_27.031,3.869,29.6,0,0.759,0,0,0,0.007, ,0,0,0,0,0, ,-37.9,277.7,959.9,-0.5,-0.6,-1.7,25,-37.8376,276.837,961.243,-0.593202,-0.543269,-1.77482,
2026_07_06_17_04_27.051,3.869,29.6,0,0.76,0,0,0,0.007, ,0,0,0,0,0, ,-38,277.9,960.8,-0.6,-0.6,-1.8,25,-37.8444,276.895,961.189,-0.590569,-0.546726,-1.77331,
2026_07_06_17_04_27.071,3.869,29.6,0,0.76,0,0,0,0.007, ,0,0,0,0,0, ,-37.3,276.4,961.4,-0.6,-0.6,-1.7,25,-37.8326,276.911,961.183,-0.591144,-0.549973,-1.77189,
2026_07_06_17_04_27.090,3.869,29.6,0,0.759,0,0,0,0.007, ,0,0,0,0,0, ,-38,276.3,961.3,-0.6,-0.5,-1.8,25,-37.8214,276.877,961.193,-0.591684,-0.549974,-1.77056,
2026_07_06_17_04_27.110,3.869,29.6,0,0.758,0,0,0,0.007, ,0,0,0,0,0, ,-36.9,277.3,960.9,-0.6,-0.5,-1.8,25,-37.7988,276.872,961.188,-0.59219,-0.546929,-1.77235,
2026_07_06_17_04_27.130,3.869,29.6,0,0.758,0,0,0,0.007, ,0,0,0,0,0, ,-37.3,277.7,960.3,-0.6,-0.5,-1.8,25,-37.7562,276.91,961.152,-0.592666,-0.544069,-1.77404,
2026_07_06_17_04_27.150,3.869,29.7,0,0.76,0,0,0,0.007, ,0,0,0,0,0, ,-37.9,277.5,960.6,-0.6,-0.6,-1.8,25,-37.7467,276.952,961.109,-0.593113,-0.544431,-1.77562,
2026_07_06_17_04_27.169,3.869,29.7,0,0.758,0,0,0,0.007, ,0,0,0,0,0, ,-39.1,276.7,961.7,-0.6,-0.5,-1.8,25,-37.7926,276.961,961.112,-0.593533,-0.54477,-1.7771,
2026_07_06_17_04_27.189,3.869,29.7,0,0.759,0,0,0,0.007, ,0,0,0,0,0, ,-39,276,960.8,-0.6,-0.6,-1.8,25,-37.8692,276.924,961.12,-0.593927,-0.545089,-1.7785,
2026_07_06_17_04_27.210,3.869,29.7,0,0.758,0,0,0,0.007, ,0,0,0,0,0, ,-37.7,277,962.1,-0.6,-0.5,-1.7,25,-37.8985,276.898,961.14,-0.594297,-0.545388,-1.77676,
2026_07_06_17_04_27.230,3.869,29.6,0,0.759,0,0,0,0.007, ,0,0,0,0,0, ,-38,276.2,961.4,-0.6,-0.6,-1.8,25,-37.8956,276.88,961.177,-0.594645,-0.545669,-1.77513,
2026_07_06_17_04_27.249,3.869,29.6,0,0.76,0,0,0,0.008, ,0,0,0,0,0, ,-36.8,277.5,960.9,-0.5,-0.5,-1.8,25,-37.8654,276.878,961.176,-0.591924,-0.545933,-1.77665,
2026_07_06_17_04_27.269,3.869,29.7,0,0.76,0,0,0,0.008, ,0,0,0,0,0, ,-38.9,275.1,961.3,-0.6,-0.5,-1.8,25,-37.8644,276.843,961.171,-0.589369,-0.543134,-1.77807,
2026_07_06_17_04_27.289,3.869,29.6,0,0.758,0,0,0,0.007, ,0,0,0,0,0, ,-39.1,276.9,962.1,-0.6,-0.6,-1.8,25,-37.9336,276.792,961.203,-0.590017,-0.543552,-1.77941,
2026_07_06_17_04_27.308,3.869,29.7,0,0.758,0,0,0,0.008, ,0,0,0,0,0, ,-38.4,277.4,960.3,-0.6,-0.5,-1.7,25,-37.9834,276.813,961.203,-0.590625,-0.543945,-1.77761,
2026_07_06_17_04_27.333,3.869,29.7,0,0.759,0,0,0,0.007, ,0,0,0,0,0, ,-37.8,278,961,-0.5,-0.6,-1.8,25,-37.9905,276.867,961.169,-0.58815,-0.544314,-1.77593,
2026_07_06_17_04_27.348,3.869,29.7,0,0.76,0,0,0,0.007, ,0,0,0,0,0, ,-37.8,277.7,962.7,-0.6,-0.5,-1.8,25,-37.9789,276.927,961.211,-0.585825,-0.544661,-1.7774,
2026_07_06_17_04_27.368,3.869,29.6,0,0.758,0,0,0,0.007, ,0,0,0,0,0, ,-39,276.9,963.9,-0.6,-0.5,-1.8,25,-38.0045,276.95,961.338,-0.586689,-0.541939,-1.77878,
2026_07_06_17_04_27.388,3.869,29.7,0,0.76,0,0,0,0.008, ,0,0,0,0,0, ,-37.8,276,960.2,-0.6,-0.5,-1.8,25,-38.0286,276.92,961.381,-0.5875,-0.539384,-1.78007,
2026_07_06_17_04_27.407,3.869,29.7,0,0.761,0,0,0,0.007, ,0,0,0,0,0, ,-38.2,277,962.4,-0.6,-0.6,-1.7,25,-38.0269,276.894,961.377,-0.588262,-0.54003,-1.77824,
2026_07_06_17_04_27.428,3.869,29.7,0,0.76,0,0,0,0.007, ,0,0,0,0,0, ,-37.4,275.8,961,-0.5,-0.6,-1.8,25,-38.0131,276.864,961.396,-0.58593,-0.543685,-1.77652,
2026_07_06_17_04_27.447,3.869,29.7,0,0.759,0,0,0,0.007, ,0,0,0,0,0, ,-37.9,277.2,961.1,-0.6,-0.5,-1.7,25,-37.9909,276.842,961.375,-0.583741,-0.54407,-1.7749,
2026_07_06_17_04_27.467,3.869,29.8,0,0.759,0,0,0,0.007, ,0,0,0,0,0, ,-36.7,275.7,961,-0.6,-0.5,-1.8,25,-37.9488,276.818,961.355,-0.584731,-0.541384,-1.77338,
2026_07_06_17_04_27.491,3.869,29.8,0,0.758,0,0,0,0.006, ,0,0,0,0,0, ,-38.9,276.7,959.8,-0.6,-0.6,-1.8,25,-37.9398,276.78,961.297,-0.585662,-0.541909,-1.775,
2026_07_06_17_04_27.506,3.869,29.8,0,0.759,0,0,0,0.006, ,0,0,0,0,0, ,-39.1,276,961,-0.6,-0.5,-1.8,25,-38.0044,276.754,961.242,-0.586536,-0.542402,-1.77653,
2026_07_06_17_04_27.526,3.869,29.7,0,0.759,0,0,0,0.006, ,0,0,0,0,0, ,-38.2,276,962.4,-0.6,-0.5,-1.8,25,-38.0437,276.708,961.27,-0.587356,-0.539818,-1.77796,
2026_07_06_17_04_27.546,3.869,29.8,0,0.759,0,0,0,0.007, ,0,0,0,0,0, ,-39,276.1,960.3,-0.6,-0.5,-1.8,25,-38.0776,276.668,961.275,-0.588127,-0.537392,-1.7793,
2026_07_06_17_04_27.566,3.869,29.7,0,0.758,0,0,0,0.006, ,0,0,0,0,0, ,-37.8,276.9,960.4,-0.6,-0.5,-1.8,25,-38.0973,276.658,961.219,-0.58885,-0.535113,-1.78056,
2026_07_06_17_04_27.586,3.869,29.8,0,0.76,0,0,0,0.007, ,0,0,0,0,0, ,-37.8,277,960.9,-0.5,-0.5,-1.7,25,-38.0792,276.676,961.184,-0.586483,-0.532974,-1.7787,
2026_07_06_17_04_27.605,3.869,29.8,0,0.758,0,0,0,0.007, ,0,0,0,0,0, ,-38.5,277,960.9,-0.6,-0.6,-1.8,25,-38.0835,276.695,961.167,-0.58426,-0.534011,-1.77695,
2026_07_06_17_04_27.625,3.869,29.8,0,0.759,0,0,0,0.007, ,0,0,0,0,0, ,-37.5,276.2,961.7,-0.6,-0.5,-1.8,25,-38.0784,276.689,961.175,-0.585219,-0.534986,-1.77836,
2026_07_06_17_04_27.650,3.869,29.8,0,0.759,0,0,0,0.007, ,0,0,0,0,0, ,-38.2,276,959.9,-0.6,-0.6,-1.8,25,-38.0645,276.654,961.152,-0.586119,-0.5359,-1.77967,
2026_07_06_17_04_27.665,3.869,29.8,0,0.761,0,0,0,0.007, ,0,0,0,0,0, ,-39.1,276.1,960.4,-0.5,-0.5,-1.8,25,-38.1001,276.617,961.091,-0.583918,-0.53676,-1.78091,
2026_07_06_17_04_27.685,3.869,29.8,0,0.759,0,0,0,0.007, ,0,0,0,0,0, ,-36.7,276.9,961.1,-0.6,-0.6,-1.8,25,-38.0879,276.61,961.07,-0.581852,-0.537566,-1.78208,
2026_07_06_17_04_27.705,3.869,29.8,0,0.758,0,0,0,0.007, ,0,0,0,0,0, ,-38.2,276.3,961.4,-0.6,-0.5,-1.8,25,-38.0491,276.609,961.081,-0.582957,-0.538324,-1.78317,
2026_07_06_17_04_27.724,3.869,29.7,0,0.759,0,0,0,0.007, ,0,0,0,0,0, ,-37.4,276,961.4,-0.6,-0.5,-1.8,25,-38.0339,276.581,961.101,-0.583996,-0.535989,-1.78419,
2026_07_06_17_04_27.745,3.869,29.8,0,0.759,0,0,0,0.007, ,0,0,0,0,0, ,-37.5,278.1,960.8,-0.6,-0.5,-1.8,25,-37.9983,276.61,961.101,-0.584971,-0.533796,-1.78516,
2026_07_06_17_04_27.764,3.869,29.8,0,0.759,0,0,0,0.007, ,0,0,0,0,0, ,-37.9,276.8,962.7,-0.5,-0.6,-1.8,25,-37.9801,276.661,961.14,-0.58284,-0.534783,-1.78606,
2026_07_06_17_04_27.784,3.869,29.8,0,0.759,0,0,0,0.007, ,0,0,0,0,0, ,-37.3,277.5,960.6,-0.6,-0.6,-1.8,25,-37.957,276.691,961.171,-0.580839,-0.538757,-1.78691,
2026_07_06_17_04_27.808,3.869,29.8,0,0.759,0,0,0,0.007, ,0,0,0,0,0, ,-38,277,961.5,-0.6,-0.6,-1.8,25,-37.9383,276.725,961.164,-0.582007,-0.542489,-1.78771,
2026_07_06_17_04_27.824,3.869,29.8,0,0.758,0,0,0,0.007, ,0,0,0,0,0, ,-37.4,275.7,962.5,-0.6,-0.6,-1.8,25,-37.9237,276.702,961.215,-0.583103,-0.545994,-1.78846,
2026_07_06_17_04_27.843,3.869,29.7,0,0.76,0,0,0,0.007, ,0,0,0,0,0, ,-36.9,277.3,962.2,-0.5,-0.6,-1.7,25,-37.8766,276.69,961.284,-0.581086,-0.549285,-1.78611,
2026_07_06_17_04_27.862,3.869,29.8,0,0.759,0,0,0,0.008, ,0,0,0,0,0, ,-37.5,276.8,959.7,-0.6,-0.5,-1.7,25,-37.8354,276.712,961.264,-0.579192,-0.549328,-1.78087,
2026_07_06_17_04_27.883,3.869,29.8,0,0.758,0,0,0,0.007, ,0,0,0,0,0, ,-37.8,276.9,960,-0.6,-0.5,-1.8,25,-37.8241,276.72,961.177,-0.58046,-0.546322,-1.77899,
2026_07_06_17_04_27.903,3.869,29.9,0,0.759,0,0,0,0.007, ,0,0,0,0,0, ,-37.3,277.5,960.9,-0.6,-0.6,-1.8,25,-37.8074,276.749,961.133,-0.58165,-0.546547,-1.78027,
2026_07_06_17_04_27.922,3.869,29.8,0,0.759,0,0,0,0.006, ,0,0,0,0,0, ,-39,277.4,959.2,-0.6,-0.6,-1.9,25,-37.8282,276.792,961.067,-0.582769,-0.549804,-1.78452,
2026_07_06_17_04_27.943,3.869,29.8,0,0.758,0,0,0,0.007, ,0,0,0,0,0, ,-37.4,277.5,960.8,-0.6,-0.5,-1.8,25,-37.8509,276.832,961.002,-0.583819,-0.549816,-1.78851,
2026_07_06_17_04_27.962,3.869,29.8,0,0.759,0,0,0,0.007, ,0,0,0,0,0, ,-38.4,276.8,961.4,-0.6,-0.5,-1.7,25,-37.8539,276.851,961.008,-0.584805,-0.54678,-1.78616,
2026_07_06_17_04_27.982,3.869,29.9,0,0.759,0,0,0,0.007, ,0,0,0,0,0, ,-38.4,276.7,960.8,-0.6,-0.6,-1.8,25,-37.8872,276.845,961.014,-0.585731,-0.546976,-1.78396,
2026_07_06_17_04_28.002,3.869,29.8,0,0.76,0,0,0,0.006, ,0,0,0,0,0, ,-37.5,276.9,960.8,-0.5,-0.6,-1.8,25,-37.891,276.843,961.001,-0.583553,-0.550208,-1.78493,
2026_07_06_17_04_28.022,3.869,29.9,0,0.761,0,0,0,0.007, ,0,0,0,0,0, ,-38.5,276.9,963,-0.5,-0.5,-1.8,25,-37.8976,276.846,961.055,-0.578462,-0.550195,-1.78585,
2026_07_06_17_04_28.041,3.869,29.8,0,0.76,0,0,0,0.006, ,0,0,0,0,0, ,-38.8,278.1,961.4,-0.6,-0.6,-1.8,25,-37.9435,276.886,961.125,-0.576727,-0.550183,-1.78671,
2026_07_06_17_04_28.061,3.869,29.8,0,0.759,0,0,0,0.007, ,0,0,0,0,0, ,-38.5,277,960.6,-0.6,-0.5,-1.8,25,-37.9865,276.926,961.118,-0.578146,-0.550172,-1.78752,
2026_07_06_17_04_28.081,3.869,29.8,0,0.76,0,0,0,0.007, ,0,0,0,0,0, ,-37.7,277,961,-0.6,-0.5,-1.8,25,-37.9935,276.931,961.098,-0.579477,-0.547115,-1.78828,
2026_07_06_17_04_28.100,3.869,29.8,0,0.759,0,0,0,0.007, ,0,0,0,0,0, ,-37.5,275.6,961.5,-0.5,-0.5,-1.8,25,-37.9695,276.892,961.107,-0.577681,-0.544243,-1.789,
2026_07_06_17_04_28.121,3.869,29.9,0,0.758,0,0,0,0.007, ,0,0,0,0,0, ,-38.5,277.3,960.8,-0.7,-0.5,-1.8,25,-37.9713,276.865,961.11,-0.579041,-0.541547,-1.78967,
2026_07_06_17_04_28.140,3.869,29.9,0,0.759,0,0,0,0.006, ,0,0,0,0,0, ,-36.9,277.5,961.4,-0.6,-0.6,-1.8,25,-37.9548,276.898,961.109,-0.583365,-0.542062,-1.7903,
2026_07_06_17_04_28.160,3.869,29.9,0,0.759,0,0,0,0.006, ,0,0,0,0,0, ,-37.9,277.3,960.2,-0.6,-0.6,-1.8,25,-37.921,276.929,961.091,-0.584379,-0.545593,-1.79089,
2026_07_06_17_04_28.180,3.869,29.9,0,0.759,0,0,0,0.006, ,0,0,0,0,0, ,-38,277,961.5,-0.7,-0.6,-1.7,25,-37.9228,276.942,961.076,-0.588378,-0.548908,-1.7884,
2026_07_06_17_04_28.200,3.869,29.8,0,0.759,0,0,0,0.006, ,0,0,0,0,0, ,-37.7,275.7,958.9,-0.5,-0.6,-1.7,25,-37.9183,276.906,961.023,-0.589086,-0.552022,-1.78301,
2026_07_06_17_04_28.219,3.869,29.8,0,0.76,0,0,0,0.007, ,0,0,0,0,0, ,-37.7,276.7,961.3,-0.6,-0.5,-1.7,25,-37.905,276.863,960.966,-0.586704,-0.551899,-1.77795,
2026_07_06_17_04_28.239,3.869,29.9,0,0.759,0,0,0,0.007, ,0,0,0,0,0, ,-38.6,275.7,960.6,-0.6,-0.5,-1.8,25,-37.92,276.823,960.965,-0.587514,-0.548736,-1.77625,
2026_07_06_17_04_28.259,3.869,29.9,0,0.759,0,0,0,0.006, ,0,0,0,0,0, ,-37.8,276.7,960.2,-0.6,-0.5,-1.7,25,-37.937,276.785,960.931,-0.588275,-0.545766,-1.77465,
2026_07_06_17_04_28.279,3.869,29.9,0,0.76,0,0,0,0.006, ,0,0,0,0,0, ,-38.5,276.6,961.4,-0.6,-0.6,-1.8,25,-37.95,276.776,960.923,-0.58899,-0.546024,-1.77315,
2026_07_06_17_04_28.299,3.869,29.9,0,0.759,0,0,0,0.006, ,0,0,0,0,0, ,-37.9,276.9,960.6,-0.6,-0.6,-1.7,25,-37.9652,276.775,960.928,-0.589661,-0.549313,-1.77174,
2026_07_06_17_04_28.319,3.869,29.9,0,0.759,0,0,0,0.006, ,0,0,0,0,0, ,-38.2,276.4,960.4,-0.5,-0.6,-1.7,25,-37.9704,276.767,960.902,-0.587244,-0.552402,-1.76737,
2026_07_06_17_04_28.338,3.869,30,0,0.759,0,0,0,0.006, ,0,0,0,0,0, ,-37.8,277.2,960.5,-0.6,-0.5,-1.7,25,-37.9722,276.769,960.874,-0.584974,-0.552256,-1.76326,
2026_07_06_17_04_28.358,3.869,29.9,0,0.76,0,0,0,0.006, ,0,0,0,0,0, ,-38.6,276.8,959.7,-0.6,-0.6,-1.8,25,-37.9861,276.783,960.827,-0.58589,-0.552118,-1.76245,
2026_07_06_17_04_28.379,3.869,29.9,0,0.759,0,0,0,0, ,0,0,0,0,0, ,-37.9,277,960.2,-0.6,-0.5,-1.8,25,-38.0022,276.79,960.773,-0.58675,-0.551989,-1.76474,
2026_07_06_17_04_28.398,3.869,29.9,0,0.759,0,0,0,0, ,0,0,0,0,0, ,-37.5,276,960.5,-0.6,-0.5,-1.7,25,-37.9838,276.773,960.748,-0.587557,-0.548821,-1.76384,
2026_07_06_17_04_28.418,3.869,30,0,0.76,0,0,0,0, ,0,0,0,0,0, ,-37.5,276.4,960.3,-0.6,-0.5,-1.8,25,-37.9543,276.738,960.726,-0.588315,-0.545846,-1.763,
2026_07_06_17_04_28.437,3.869,30,0,0.76,0,0,0,0, ,0,0,0,0,0, ,-37.7,276.3,960.3,-0.6,-0.6,-1.8,25,-37.9327,276.714,960.7,-0.589027,-0.546099,-1.76525,
2026_07_06_17_04_28.463,3.869,30,0,0.759,0,0,0,0, ,0,0,0,0,0, ,-36.7,276.6,961.3,-0.6,-0.6,-1.8,25,-37.888,276.698,960.707,-0.589696,-0.549384,-1.76737,
2026_07_06_17_04_28.477,3.869,29.9,0,0.76,0,0,0,0, ,0,0,0,0,0, ,-37.9,276.7,960,-0.6,-0.6,-1.8,25,-37.8522,276.695,960.703,-0.590324,-0.552468,-1.76936,
2026_07_06_17_04_28.497,3.869,29.9,0,0.76,0,0,0,0, ,0,0,0,0,0, ,-37.8,276.7,962.1,-0.6,-0.5,-1.7,25,-37.8521,276.695,960.724,-0.590914,-0.552318,-1.76818,
2026_07_06_17_04_28.517,3.869,30,0,0.759,0,0,0,0, ,0,0,0,0,0, ,-37.5,276,962.4,-0.6,-0.5,-1.8,25,-37.8398,276.674,960.817,-0.591467,-0.54913,-1.76707,
2026_07_06_17_04_28.536,3.869,30,0,0.761,0,0,0,0, ,0,0,0,0,0, ,-37.8,276.8,960.8,-0.6,-0.6,-1.8,25,-37.8282,276.658,960.865,-0.591987,-0.549183,-1.76908,
2026_07_06_17_04_28.556,3.869,30,0,0.759,0,0,0,0, ,0,0,0,0,0, ,-37.3,276.4,961.5,-0.6,-0.6,-1.9,25,-37.8112,276.654,960.882,-0.592476,-0.552279,-1.77401,
2026_07_06_17_04_28.577,3.869,30,0,0.759,0,0,0,0, ,0,0,0,0,0, ,-36.6,276.4,960.4,-0.6,-0.6,-1.8,25,-37.7588,276.639,960.886,-0.592934,-0.555187,-1.77864,
2026_07_06_17_04_28.596,3.869,29.9,0,0.757,0,0,0,0, ,0,0,0,0,0, ,-37.5,277.2,960.4,-0.5,-0.6,-1.8,25,-37.7156,276.648,960.857,-0.590318,-0.557918,-1.77994,
2026_07_06_17_04_28.615,3.869,30,0,0.76,0,0,0,0, ,0,0,0,0,0, ,-37.8,276.9,960.4,-0.6,-0.5,-1.8,25,-37.7116,276.673,960.829,-0.587861,-0.557436,-1.78116,
2026_07_06_17_04_28.642,3.869,30,0,0.759,0,0,0,0, ,0,0,0,0,0, ,-37.9,276.1,960.3,-0.6,-0.5,-1.8,25,-37.72,276.662,960.8,-0.588601,-0.553936,-1.78231,
2026_07_06_17_04_28.655,3.869,30,0,0.759,0,0,0,0, ,0,0,0,0,0, ,-37.7,276.7,960.5,-0.5,-0.5,-1.8,25,-37.7249,276.646,960.775,-0.586248,-0.550649,-1.78339,
2026_07_06_17_04_28.675,3.869,30,0,0.759,0,0,0,0, ,0,0,0,0,0, ,-38.3,276,961,-0.6,-0.6,-1.8,25,-37.7416,276.628,960.774,-0.58404,-0.550609,-1.7844,
2026_07_06_17_04_28.695,3.869,30,0,0.758,0,0,0,0, ,0,0,0,0,0, ,-37.9,276.8,961.1,-0.5,-0.6,-1.8,25,-37.7635,276.614,960.791,-0.581965,-0.553619,-1.78535,
2026_07_06_17_04_28.715,3.869,30,0,0.758,0,0,0,0, ,0,0,0,0,0, ,-37.8,276.4,961,-0.6,-0.5,-1.8,25,-37.7688,276.614,960.806,-0.580017,-0.553399,-1.78624,
2026_07_06_17_04_28.735,3.869,30,0,0.759,0,0,0,0, ,0,0,0,0,0, ,-38.6,277.5,960.5,-0.6,-0.5,-1.8,25,-37.795,276.634,960.803,-0.581235,-0.550145,-1.78708,
2026_07_06_17_04_28.754,3.869,30.1,0,0.759,0,0,0,0, ,0,0,0,0,0, ,-38.4,276.1,961.4,-0.5,-0.5,-1.8,25,-37.838,276.644,960.812,-0.579332,-0.547089,-1.78787,
2026_07_06_17_04_28.774,3.869,30.1,0,0.76,0,0,0,0, ,0,0,0,0,0, ,-37.8,278.1,963.2,-0.6,-0.5,-1.8,25,-37.854,276.672,960.903,-0.577544,-0.544219,-1.78861,
2026_07_06_17_04_28.794,3.869,30,0,0.759,0,0,0,0, ,0,0,0,0,0, ,-37.8,277.2,961,-0.6,-0.5,-1.8,25,-37.8507,276.732,960.976,-0.578913,-0.541525,-1.7893,
2026_07_06_17_04_28.820,3.869,30,0,0.758,0,0,0,0, ,0,0,0,0,0, ,-37.8,277.4,961.1,-0.6,-0.5,-1.8,25,-37.8476,276.766,960.98,-0.580198,-0.538994,-1.78996,
2026_07_06_17_04_28.833,3.869,30.1,0,0.759,0,0,0,0, ,0,0,0,0,0, ,-37.2,276.2,961.7,-0.6,-0.6,-1.8,25,-37.8264,276.768,961.006,-0.581404,-0.539665,-1.79057,
2026_07_06_17_04_28.853,3.869,30,0,0.759,0,0,0,0, ,0,0,0,0,0, ,-38,277.8,960.8,-0.5,-0.5,-1.8,25,-37.8126,276.782,961.021,-0.579491,-0.540295,-1.79114,
2026_07_06_17_04_28.873,3.869,30,0,0.759,0,0,0,0, ,0,0,0,0,0, ,-37.5,275.7,961.1,-0.6,-0.6,-1.8,25,-37.8088,276.78,961.016,-0.577694,-0.540886,-1.79168,
2026_07_06_17_04_28.893,3.869,30.1,0,0.76,0,0,0,0, ,0,0,0,0,0, ,-37.7,275.3,960.4,-0.6,-0.6,-1.7,25,-37.7961,276.702,961,-0.579053,-0.544489,-1.78914,
2026_07_06_17_04_28.913,3.869,30,0,0.759,0,0,0,0, ,0,0,0,0,0, ,-38.9,277.4,961.4,-0.6,-0.5,-1.8,25,-37.8268,276.681,960.994,-0.580329,-0.544824,-1.78676,
2026_07_06_17_04_28.933,3.869,30.1,0,0.759,0,0,0,0, ,0,0,0,0,0, ,-38.4,276.7,961,-0.5,-0.5,-1.8,25,-37.8769,276.703,961.007,-0.578481,-0.542093,-1.78756,
2026_07_06_17_04_28.952,3.869,30.1,0,0.758,0,0,0,0, ,0,0,0,0,0, ,-37.3,276.7,960.6,-0.6,-0.5,-1.8,25,-37.8753,276.703,960.994,-0.576746,-0.539528,-1.78832,
2026_07_06_17_04_28.972,3.869,30,0,0.758,0,0,0,0, ,0,0,0,0,0, ,-37.9,276.9,961.1,-0.5,-0.6,-1.8,25,-37.8585,276.709,960.985,-0.575116,-0.540166,-1.78903,
2026_07_06_17_04_28.998,3.869,30.1,0,0.759,0,0,0,0, ,0,0,0,0,0, ,-38.3,276.9,961.1,-0.5,-0.5,-1.7,25,-37.8732,276.721,960.992,-0.570538,-0.540765,-1.78665,
2026_07_06_17_04_29.011,3.869,30,0,0.76,0,0,0,0, ,0,0,0,0,0, ,-39,275.2,961,-0.6,-0.6,-1.8,25,-37.9206,276.68,960.996,-0.569287,-0.541328,-1.78442,
2026_07_06_17_04_29.032,3.869,30,0,0.76,0,0,0,0, ,0,0,0,0,0, ,-38.6,277.3,961.9,-0.5,-0.5,-1.7,25,-37.9742,276.654,961.023,-0.568112,-0.541856,-1.78232,
2026_07_06_17_04_29.052,3.869,30,0,0.759,0,0,0,0, ,0,0,0,0,0, ,-37.8,277.2,961.4,-0.6,-0.5,-1.8,25,-37.9879,276.69,961.062,-0.567008,-0.539306,-1.78035,
2026_07_06_17_04_29.071,3.869,30,0,0.759,0,0,0,0, ,0,0,0,0,0, ,-38.8,277.3,960.5,-0.6,-0.5,-1.8,25,-38.0069,276.724,961.055,-0.569018,-0.536911,-1.78155,
2026_07_06_17_04_29.091,3.869,30,0,0.76,0,0,0,0, ,0,0,0,0,0, ,-38.4,276.8,961.4,-0.5,-0.6,-1.8,25,-38.0431,276.744,961.048,-0.567859,-0.537708,-1.78268,
2026_07_06_17_04_29.111,3.869,30,0,0.76,0,0,0,0, ,0,0,0,0,0, ,-36.7,277.3,961,-0.6,-0.6,-1.8,25,-38.013,276.763,961.058,-0.566771,-0.541504,-1.78373,
2026_07_06_17_04_29.131,3.869,30,0,0.759,0,0,0,0, ,0,0,0,0,0, ,-37.9,276.2,962,-0.5,-0.5,-1.8,25,-37.9696,276.762,961.085,-0.565749,-0.542022,-1.78472,
2026_07_06_17_04_29.150,3.869,30,0,0.758,0,0,0,0, ,0,0,0,0,0, ,-37.1,275.2,961.5,-0.5,-0.6,-1.8,25,-37.941,276.697,961.125,-0.561743,-0.542508,-1.78565,
2026_07_06_17_04_29.170,3.869,30,0,0.759,0,0,0,0, ,0,0,0,0,0, ,-38.3,278.3,963.3,-0.6,-0.6,-1.8,25,-37.9263,276.7,961.203,-0.561027,-0.546011,-1.78653,
2026_07_06_17_04_29.190,3.869,30,0,0.759,0,0,0,0, ,0,0,0,0,0, ,-37.5,278.1,959.3,-0.6,-0.6,-1.8,25,-37.9247,276.792,961.209,-0.563402,-0.549301,-1.78735,
2026_07_06_17_04_29.209,3.869,30.1,0,0.759,0,0,0,0, ,0,0,0,0,0, ,-38,277.2,960.9,-0.6,-0.5,-1.8,25,-37.914,276.844,961.141,-0.565632,-0.549344,-1.78812,
2026_07_06_17_04_29.229,3.869,30,0,0.759,0,0,0,0, ,0,0,0,0,0, ,-39,278.1,959.8,-0.6,-0.6,-1.8,25,-37.9497,276.893,961.093,-0.567726,-0.549384,-1.78884,
2026_07_06_17_04_29.252,3.869,30.1,0,0.76,0,0,0,0, ,0,0,0,0,0, ,-38.3,276.2,961.1,-0.5,-0.5,-1.7,25,-37.9924,276.909,961.054,-0.566646,-0.549421,-1.78648,
2026_07_06_17_04_29.269,3.869,30,0,0.759,0,0,0,0, ,0,0,0,0,0, ,-38.4,276.8,960.3,-0.6,-0.5,-1.7,25,-38.0142,276.884,961.032,-0.565632,-0.54641,-1.78121,
2026_07_06_17_04_29.289,3.869,30.1,0,0.761,0,0,0,0, ,0,0,0,0,0, ,-37.7,275.8,961.4,-0.6,-0.6,-1.8,25,-38.0164,276.848,961.021,-0.567726,-0.546629,-1.77931,
2026_07_06_17_04_29.309,3.869,30,0,0.76,0,0,0,0, ,0,0,0,0,0, ,-38,276.8,961,-0.5,-0.6,-1.8,25,-38.0062,276.815,961.032,-0.566646,-0.549881,-1.78057,
2026_07_06_17_04_29.328,3.869,30,0,0.76,0,0,0,0, ,0,0,0,0,0, ,-37.5,277.8,961,-0.6,-0.6,-1.8,25,-37.9906,276.844,961.03,-0.565632,-0.552935,-1.78175,
2026_07_06_17_04_29.350,3.869,30.1,0,0.759,0,0,0,0, ,0,0,0,0,0, ,-38.3,276,961.5,-0.6,-0.6,-1.7,25,-37.9851,276.848,961.043,-0.567726,-0.555803,-1.77982,
2026_07_06_17_04_29.368,3.869,29.9,0,0.759,0,0,0,0, ,0,0,0,0,0, ,-37.8,276.2,961.5,-0.5,-0.5,-1.8,25,-37.9891,276.802,961.071,-0.566646,-0.555449,-1.778,
2026_07_06_17_04_29.389,3.869,30,0,0.759,0,0,0,0, ,0,0,0,0,0, ,-37.5,276.4,960.6,-0.6,-0.6,-1.8,25,-37.9684,276.772,961.07,-0.565631,-0.555117,-1.77934,
2026_07_06_17_04_29.408,3.869,30.1,0,0.758,0,0,0,0, ,0,0,0,0,0, ,-37.7,277.4,960.2,-0.5,-0.5,-1.8,25,-37.946,276.779,961.029,-0.564679,-0.554806,-1.7806,
2026_07_06_17_04_29.428,3.869,30,0,0.758,0,0,0,0, ,0,0,0,0,0, ,-37.7,276.8,961.1,-0.5,-0.5,-1.8,25,-37.931,276.799,961.006,-0.560737,-0.551466,-1.78178,
2026_07_06_17_04_29.448,3.869,30,0,0.758,0,0,0,0, ,0,0,0,0,0, ,-38.8,276.6,961.9,-0.5,-0.6,-1.8,25,-37.9504,276.793,961.036,-0.557036,-0.551377,-1.78289,
2026_07_06_17_04_29.467,3.869,30,0,0.759,0,0,0,0, ,0,0,0,0,0, ,-37.7,278,961.3,-0.5,-0.5,-1.8,25,-37.9687,276.824,961.071,-0.553561,-0.551293,-1.78393,
2026_07_06_17_04_29.487,3.869,30.2,0,0.759,0,0,0,0, ,0,0,0,0,0, ,-38.5,276.6,960.4,-0.5,-0.5,-1.7,25,-37.9767,276.853,961.057,-0.550297,-0.548167,-1.78187,
2026_07_06_17_04_29.507,3.869,29.9,0,0.759,0,0,0,0, ,0,0,0,0,0, ,-37.4,276.8,960.3,-0.5,-0.6,-1.8,25,-37.975,276.844,961.014,-0.547232,-0.548279,-1.77992,
2026_07_06_17_04_29.527,3.869,30,0,0.759,0,0,0,0, ,0,0,0,0,0, ,-37.5,276.4,961.1,-0.6,-0.5,-1.7,25,-37.943,276.829,960.995,-0.547401,-0.548384,-1.7781,
2026_07_06_17_04_29.546,3.869,30,0,0.759,0,0,0,0, ,0,0,0,0,0, ,-39.4,277.4,960.9,-0.5,-0.6,-1.7,25,-37.9739,276.833,960.995,-0.547559,-0.548482,-1.77334,
2026_07_06_17_04_29.566,3.869,30.1,0,0.758,0,0,0,0, ,0,0,0,0,0, ,-36.9,277.3,960.5,-0.6,-0.5,-1.8,25,-37.9847,276.865,960.977,-0.547708,-0.548575,-1.77192,
2026_07_06_17_04_29.586,3.869,30,0,0.759,0,0,0,0, ,0,0,0,0,0, ,-36.2,276.6,961,-0.5,-0.5,-1.8,25,-37.8972,276.87,960.963,-0.547847,-0.545615,-1.77363,
2026_07_06_17_04_29.606,3.869,30.1,0,0.759,0,0,0,0, ,0,0,0,0,0, ,-38.3,277.5,960.6,-0.5,-0.6,-1.8,25,-37.8578,276.881,960.953,-0.544932,-0.545882,-1.77524,
2026_07_06_17_04_29.625,3.869,30,0,0.76,0,0,0,0, ,0,0,0,0,0, ,-37.7,276.4,960.8,-0.5,-0.6,-1.8,25,-37.8665,276.885,960.938,-0.542194,-0.54918,-1.77675,
2026_07_06_17_04_29.646,3.869,30,0,0.758,0,0,0,0, ,0,0,0,0,0, ,-38,277.3,961.3,-0.6,-0.6,-1.7,25,-37.8655,276.883,960.945,-0.542669,-0.552277,-1.77512,
2026_07_06_17_04_29.666,3.869,30.1,0,0.759,0,0,0,0, ,0,0,0,0,0, ,-37.9,276.9,960.6,-0.5,-0.5,-1.8,25,-37.8706,276.896,960.945,-0.543116,-0.552138,-1.77359,
2026_07_06_17_04_29.685,3.869,30,0,0.76,0,0,0,0, ,0,0,0,0,0, ,-38.3,276.9,961.6,-0.6,-0.6,-1.7,25,-37.8846,276.896,960.955,-0.543536,-0.552008,-1.77215,
2026_07_06_17_04_29.706,3.869,30.1,0,0.758,0,0,0,0, ,0,0,0,0,0, ,-38.8,277.2,961.5,-0.6,-0.6,-1.7,25,-37.9251,276.906,960.991,-0.546976,-0.554932,-1.76775,
2026_07_06_17_04_29.724,3.869,30,0,0.759,0,0,0,0, ,0,0,0,0,0, ,-37.1,277,961.6,-0.5,-0.6,-1.8,25,-37.9267,276.918,961.025,-0.547161,-0.557678,-1.76667,
2026_07_06_17_04_29.745,3.869,30.1,0,0.759,0,0,0,0, ,0,0,0,0,0, ,-36.9,278.6,960.9,-0.6,-0.6,-1.8,25,-37.8702,276.971,961.039,-0.547334,-0.560257,-1.7687,
2026_07_06_17_04_29.765,3.869,30,0,0.758,0,0,0,0, ,0,0,0,0,0, ,-37.9,277.5,960.3,-0.6,-0.5,-1.8,25,-37.8415,277.037,961.012,-0.550543,-0.559632,-1.77061,
2026_07_06_17_04_29.785,3.869,30.1,0,0.759,0,0,0,0, ,0,0,0,0,0, ,-36.9,276.1,961.5,-0.5,-0.6,-1.8,25,-37.8146,277.023,961.005,-0.55051,-0.559045,-1.7724,
2026_07_06_17_04_29.804,3.869,30.1,0,0.758,0,0,0,0, ,0,0,0,0,0, ,-37.3,276.3,961.4,-0.6,-0.5,-1.8,25,-37.7711,276.972,961.032,-0.550479,-0.558494,-1.77408,
2026_07_06_17_04_29.824,3.869,30.1,0,0.759,0,0,0,0, ,0,0,0,0,0, ,-38.4,277,959.8,-0.5,-0.5,-1.8,25,-37.7759,276.953,961.006,-0.55045,-0.55493,-1.77566,
2026_07_06_17_04_29.844,3.869,30.1,0,0.76,0,0,0,0, ,0,0,0,0,0, ,-37.4,277.2,962.4,-0.6,-0.5,-1.8,25,-37.7835,276.962,961.012,-0.550422,-0.551582,-1.77714,
2026_07_06_17_04_29.863,3.869,30,0,0.759,0,0,0,0, ,0,0,0,0,0, ,-37.4,276.1,961.1,-0.6,-0.6,-1.7,25,-37.7601,276.943,961.057,-0.553443,-0.551486,-1.77549,
2026_07_06_17_04_29.883,3.869,30.1,0,0.758,0,0,0,0, ,0,0,0,0,0, ,-38.4,277.7,961,-0.5,-0.5,-1.7,25,-37.7686,276.94,961.056,-0.553234,-0.551395,-1.77089,
2026_07_06_17_04_29.903,3.869,30,0,0.759,0,0,0,0, ,0,0,0,0,0, ,-37.5,277,960.5,-0.6,-0.6,-1.7,25,-37.7797,276.965,961.038,-0.553037,-0.55131,-1.76657,
2026_07_06_17_04_29.923,3.869,30,0,0.759,0,0,0,0, ,0,0,0,0,0, ,-38.4,276.7,961.9,-0.6,-0.5,-1.8,25,-37.79,276.958,961.047,-0.555898,-0.551231,-1.76556,
2026_07_06_17_04_29.942,3.869,30.1,0,0.758,0,0,0,0, ,0,0,0,0,0, ,-36.7,275.7,960.3,-0.6,-0.5,-1.8,25,-37.7754,276.912,961.051,-0.558586,-0.548109,-1.76766,
2026_07_06_17_04_29.962,3.869,30,0,0.758,0,0,0,0, ,0,0,0,0,0, ,-38,276.3,961.5,-0.6,-0.6,-1.8,25,-37.7495,276.856,961.041,-0.561109,-0.548224,-1.76963,
2026_07_06_17_04_29.982,3.869,30.1,0,0.76,0,0,0,0, ,0,0,0,0,0, ,-37.7,276.4,960.9,-0.6,-0.6,-1.8,25,-37.7556,276.826,961.051,-0.563479,-0.551379,-1.77148,
2026_07_06_17_04_30.002,3.869,30,0,0.759,0,0,0,0, ,0,0,0,0,0, ,-38.6,277.3,960.4,-0.5,-0.6,-1.8,25,-37.7797,276.827,961.027,-0.562658,-0.554342,-1.77322,
2026_07_06_17_04_30.022,3.869,30,0,0.759,0,0,0,0, ,0,0,0,0,0, ,-38,276.9,961.4,-0.5,-0.5,-1.8,25,-37.8114,276.844,961.019,-0.55884,-0.554077,-1.77485,
2026_07_06_17_04_30.042,3.869,30,0,0.759,0,0,0,0, ,0,0,0,0,0, ,-38.3,276.3,960.9,-0.5,-0.5,-1.7,25,-37.832,276.829,961.027,-0.555254,-0.550782,-1.77334,
2026_07_06_17_04_30.068,3.869,30,0,0.759,0,0,0,0, ,0,0,0,0,0, ,-36.8,275.8,962,-0.6,-0.6,-1.8,25,-37.8148,276.781,961.053,-0.554934,-0.550734,-1.77191,
2026_07_06_17_04_30.081,3.869,30,0,0.759,0,0,0,0, ,0,0,0,0,0, ,-37.7,276.6,962.4,-0.5,-0.5,-1.8,25,-37.7804,276.746,961.123,-0.554633,-0.55069,-1.77363,
2026_07_06_17_04_30.101,3.869,30.1,0,0.76,0,0,0,0, ,0,0,0,0,0, ,-39,277.2,961.6,-0.5,-0.6,-1.7,25,-37.8151,276.755,961.176,-0.551304,-0.550648,-1.77219,
2026_07_06_17_04_30.120,3.869,30,0,0.759,0,0,0,0, ,0,0,0,0,0, ,-38.2,276.9,961.5,-0.6,-0.6,-1.8,25,-37.8629,276.773,961.199,-0.551225,-0.553655,-1.77083,
2026_07_06_17_04_30.141,3.869,30,0,0.759,0,0,0,0, ,0,0,0,0,0, ,-38.4,276.2,960.6,-0.5,-0.6,-1.8,25,-37.8896,276.76,961.19,-0.55115,-0.556479,-1.77261,
2026_07_06_17_04_30.161,3.869,30,0,0.759,0,0,0,0, ,0,0,0,0,0, ,-38.6,277,961.1,-0.6,-0.5,-1.8,25,-37.9268,276.75,961.169,-0.55108,-0.556084,-1.77428,
2026_07_06_17_04_30.180,3.869,30,0,0.758,0,0,0,0, ,0,0,0,0,0, ,-38.6,276.6,961.4,-0.6,-0.5,-1.8,25,-37.9678,276.753,961.174,-0.554061,-0.552667,-1.77585,
2026_07_06_17_04_30.200,3.869,30,0,0.761,0,0,0,0, ,0,0,0,0,0, ,-38.5,277.5,959.7,-0.6,-0.5,-1.9,25,-38.0033,276.771,961.136,-0.55686,-0.549457,-1.78037,
2026_07_06_17_04_30.220,3.869,30,0,0.761,0,0,0,0, ,0,0,0,0,0, ,-36.2,276.6,962.6,-0.6,-0.5,-1.7,25,-37.9635,276.788,961.137,-0.559489,-0.546443,-1.78156,
2026_07_06_17_04_30.239,3.869,30,0,0.759,0,0,0,0, ,0,0,0,0,0, ,-37.1,276.6,961.3,-0.5,-0.6,-1.7,25,-37.8834,276.777,961.186,-0.558911,-0.54666,-1.77659,
2026_07_06_17_04_30.261,3.869,30,0,0.759,0,0,0,0, ,0,0,0,0,0, ,-37.3,276.9,960.8,-0.6,-0.6,-1.8,25,-37.8418,276.775,961.178,-0.558368,-0.549911,-1.77497,
2026_07_06_17_04_30.279,3.869,30,0,0.759,0,0,0,0, ,0,0,0,0,0, ,-38.2,275.6,960.6,-0.5,-0.5,-1.8,25,-37.8362,276.743,961.149,-0.557858,-0.549916,-1.7765,
2026_07_06_17_04_30.299,3.869,30,0,0.76,0,0,0,0, ,0,0,0,0,0, ,-38.6,276.2,961.1,-0.6,-0.5,-1.8,25,-37.8705,276.692,961.131,-0.557379,-0.546874,-1.77793,
2026_07_06_17_04_30.318,3.869,30,0,0.759,0,0,0,0, ,0,0,0,0,0, ,-37.5,276.7,961.9,-0.6,-0.6,-1.8,25,-37.8815,276.677,961.153,-0.559976,-0.547065,-1.77927,
2026_07_06_17_04_30.338,3.869,30,0,0.761,0,0,0,0, ,0,0,0,0,0, ,-38.8,276.8,960.2,-0.6,-0.6,-1.8,25,-37.8978,276.681,961.147,-0.562415,-0.550291,-1.78054,
2026_07_06_17_04_30.358,3.869,30,0,0.759,0,0,0,0, ,0,0,0,0,0, ,-37.5,276.4,961.5,-0.5,-0.5,-1.8,25,-37.9132,276.676,961.129,-0.561659,-0.550273,-1.78172,
2026_07_06_17_04_30.378,3.869,29.9,0,0.76,0,0,0,0, ,0,0,0,0,0, ,-39,276.7,960.2,-0.6,-0.6,-1.8,25,-37.9337,276.669,961.112,-0.560948,-0.550256,-1.78284,
2026_07_06_17_04_30.398,3.869,30,0,0.76,0,0,0,0, ,0,0,0,0,0, ,-38,276.1,960.9,-0.5,-0.6,-1.8,25,-37.9682,276.652,961.078,-0.560281,-0.553287,-1.78388,
2026_07_06_17_04_30.418,3.869,30,0,0.759,0,0,0,0, ,0,0,0,0,0, ,-37.9,276.4,961.1,-0.6,-0.5,-1.8,25,-37.9671,276.628,961.073,-0.559655,-0.553087,-1.78486,
2026_07_06_17_04_30.437,3.869,30,0,0.758,0,0,0,0, ,0,0,0,0,0, ,-37.4,276.8,961.9,-0.6,-0.6,-1.8,25,-37.9478,276.626,961.099,-0.562113,-0.552899,-1.78579,
2026_07_06_17_04_30.462,3.869,30,0,0.76,0,0,0,0, ,0,0,0,0,0, ,-38.8,276.7,960.3,-0.6,-0.6,-1.7,25,-37.9571,276.634,961.099,-0.564422,-0.555769,-1.78361,
2026_07_06_17_04_30.477,3.869,30.1,0,0.759,0,0,0,0, ,0,0,0,0,0, ,-37.1,277.3,962.1,-0.6,-0.5,-1.8,25,-37.9566,276.656,961.105,-0.56659,-0.555418,-1.78156,
2026_07_06_17_04_30.497,3.869,30,0,0.759,0,0,0,0, ,0,0,0,0,0, ,-38.3,276.3,960.2,-0.5,-0.5,-1.8,25,-37.941,276.665,961.108,-0.565579,-0.552041,-1.78268,
2026_07_06_17_04_30.516,3.869,30.1,0,0.759,0,0,0,0, ,0,0,0,0,0, ,-38.6,278.3,962,-0.5,-0.5,-1.7,25,-37.972,276.703,961.107,-0.561583,-0.548869,-1.78069,
2026_07_06_17_04_30.536,3.869,30,0,0.759,0,0,0,0, ,0,0,0,0,0, ,-37.7,277.8,961.9,-0.5,-0.5,-1.8,25,-37.9829,276.786,961.159,-0.55783,-0.545891,-1.77882,
2026_07_06_17_04_30.556,3.869,30.1,0,0.759,0,0,0,0, ,0,0,0,0,0, ,-37.9,277,962.8,-0.6,-0.5,-1.8,25,-37.9717,276.823,961.231,-0.557353,-0.543095,-1.78011,
2026_07_06_17_04_30.576,3.869,30,0,0.759,0,0,0,0, ,0,0,0,0,0, ,-36.9,277,961,-0.6,-0.6,-1.7,25,-37.9369,276.834,961.272,-0.559952,-0.543516,-1.77828,
2026_07_06_17_04_30.596,3.869,30.1,0,0.759,0,0,0,0, ,0,0,0,0,0, ,-38.2,277.9,960.8,-0.5,-0.5,-1.8,25,-37.9133,276.871,961.249,-0.559345,-0.543911,-1.77655,
2026_07_06_17_04_30.616,3.869,30,0,0.759,0,0,0,0, ,0,0,0,0,0, ,-38.4,277.7,960.5,-0.5,-0.5,-1.8,25,-37.9369,276.928,961.213,-0.555729,-0.541235,-1.77798,
2026_07_06_17_04_30.635,3.869,30.1,0,0.759,0,0,0,0, ,0,0,0,0,0, ,-38.3,276.9,961.4,-0.5,-0.5,-1.8,25,-37.962,276.951,961.197,-0.552333,-0.538722,-1.77932,
2026_07_06_17_04_30.661,3.869,30,0,0.759,0,0,0,0, ,0,0,0,0,0, ,-37.7,278.1,960,-0.5,-0.6,-1.8,25,-37.9644,276.984,961.167,-0.549144,-0.53941,-1.78058,
2026_07_06_17_04_30.675,3.869,30,0,0.759,0,0,0,0, ,0,0,0,0,0, ,-38,276.2,962.2,-0.5,-0.5,-1.7,25,-37.9574,276.994,961.163,-0.546149,-0.540055,-1.77872,
2026_07_06_17_04_30.695,3.869,30,0,0.759,0,0,0,0, ,0,0,0,0,0, ,-38,277.5,960.2,-0.6,-0.5,-1.8,25,-37.96,276.985,961.165,-0.546384,-0.537614,-1.77697,
2026_07_06_17_04_30.714,3.869,30,0,0.759,0,0,0,0, ,0,0,0,0,0, ,-38.9,277.5,962.2,-0.5,-0.6,-1.8,25,-37.9898,277.017,961.167,-0.546604,-0.538369,-1.77837,
2026_07_06_17_04_30.734,3.869,30,0,0.759,0,0,0,0, ,0,0,0,0,0, ,-36.7,276.3,960.6,-0.5,-0.5,-1.8,25,-37.9783,277.01,961.181,-0.543764,-0.539078,-1.77969,
2026_07_06_17_04_30.755,3.869,30.1,0,0.76,0,0,0,0, ,0,0,0,0,0, ,-39,276.8,962.1,-0.6,-0.5,-1.8,25,-37.9705,276.982,961.191,-0.544144,-0.536696,-1.78093,
2026_07_06_17_04_30.774,3.869,30,0,0.759,0,0,0,0, ,0,0,0,0,0, ,-38,277,960.3,-0.6,-0.6,-1.8,25,-38.0027,276.977,961.192,-0.547548,-0.537507,-1.78209,
2026_07_06_17_04_30.794,3.869,30.1,0,0.759,0,0,0,0, ,0,0,0,0,0, ,-39.6,276.2,962.2,-0.6,-0.5,-1.8,25,-38.0513,276.954,961.196,-0.550744,-0.538268,-1.78318,
2026_07_06_17_04_30.814,3.869,30.1,0,0.759,0,0,0,0, ,0,0,0,0,0, ,-38.2,276.1,960.2,-0.6,-0.6,-1.8,25,-38.103,276.905,961.196,-0.553746,-0.538983,-1.78421,
2026_07_06_17_04_30.838,3.869,30.1,0,0.759,0,0,0,0, ,0,0,0,0,0, ,-38.5,276.2,961.3,-0.5,-0.6,-1.7,25,-38.1181,276.859,961.169,-0.553518,-0.542701,-1.78212,
2026_07_06_17_04_30.856,3.869,30,0,0.76,0,0,0,0, ,0,0,0,0,0, ,-38.2,276.6,961.4,-0.6,-0.5,-1.7,25,-38.1322,276.831,961.18,-0.553303,-0.543146,-1.77712,
2026_07_06_17_04_30.873,3.869,30.1,0,0.759,0,0,0,0, ,0,0,0,0,0, ,-37.7,277.2,961.5,-0.5,-0.6,-1.7,25,-38.1211,276.835,961.196,-0.553102,-0.543564,-1.77242,
2026_07_06_17_04_30.893,3.869,30,0,0.758,0,0,0,0, ,0,0,0,0,0, ,-38.4,276.1,961.1,-0.6,-0.5,-1.7,25,-38.1168,276.824,961.202,-0.552913,-0.543956,-1.76801,
2026_07_06_17_04_30.913,3.869,29.9,0,0.759,0,0,0,0, ,0,0,0,0,0, ,-37.8,276.8,962.2,-0.5,-0.6,-1.7,25,-38.1158,276.801,961.23,-0.552735,-0.544324,-1.76386,
2026_07_06_17_04_30.932,3.869,30,0,0.758,0,0,0,0, ,0,0,0,0,0, ,-37.3,276,960.4,-0.6,-0.5,-1.8,25,-38.0813,276.777,961.234,-0.552569,-0.54467,-1.76302,
2026_07_06_17_04_30.952,3.869,30,0,0.759,0,0,0,0, ,0,0,0,0,0, ,-37.2,276.3,961.3,-0.6,-0.6,-1.7,25,-38.0306,276.738,961.211,-0.555459,-0.544995,-1.76222,
2026_07_06_17_04_30.972,3.869,30,0,0.759,0,0,0,0, ,0,0,0,0,0, ,-36.9,276.8,960.5,-0.5,-0.6,-1.8,25,-37.9709,276.727,961.192,-0.555126,-0.548347,-1.76148,
2026_07_06_17_04_30.992,3.869,30.1,0,0.758,0,0,0,0, ,0,0,0,0,0, ,-38.2,276.3,961,-0.5,-0.5,-1.7,25,-37.9452,276.716,961.165,-0.551767,-0.548448,-1.76078,
2026_07_06_17_04_31.011,3.869,30,0,0.758,0,0,0,0, ,0,0,0,0,0, ,-38,276,961.4,-0.5,-0.5,-1.8,25,-37.9547,276.682,961.167,-0.548613,-0.545495,-1.76012,
2026_07_06_17_04_31.038,3.869,30.1,0,0.759,0,0,0,0, ,0,0,0,0,0, ,-38.2,277.5,960.2,-0.5,-0.6,-1.8,25,-37.9635,276.686,961.145,-0.54565,-0.54577,-1.76255,
2026_07_06_17_04_31.055,3.869,30,0,0.759,0,0,0,0, ,0,0,0,0,0, ,-37.7,276.6,960.6,-0.5,-0.5,-1.8,25,-37.9627,276.708,961.099,-0.542868,-0.546028,-1.76483,
2026_07_06_17_04_31.071,3.869,30.1,0,0.759,0,0,0,0, ,0,0,0,0,0, ,-38,277.3,961.6,-0.6,-0.5,-1.8,25,-37.9558,276.723,961.099,-0.543303,-0.543223,-1.76698,
2026_07_06_17_04_31.091,3.869,30.1,0,0.761,0,0,0,0, ,0,0,0,0,0, ,-38.3,276.1,960.9,-0.5,-0.6,-1.7,25,-37.9677,276.721,961.108,-0.543711,-0.543636,-1.76594,
2026_07_06_17_04_31.111,3.869,30.1,0,0.759,0,0,0,0, ,0,0,0,0,0, ,-37.2,277.4,960.9,-0.5,-0.5,-1.9,25,-37.9544,276.723,961.096,-0.541047,-0.544024,-1.76802,
2026_07_06_17_04_31.130,3.869,30,0,0.759,0,0,0,0, ,0,0,0,0,0, ,-37.5,276.9,960.2,-0.6,-0.5,-1.8,25,-37.9176,276.749,961.062,-0.541593,-0.541341,-1.77301,
2026_07_06_17_04_31.151,3.869,29.9,0,0.76,0,0,0,0, ,0,0,0,0,0, ,-38.4,276.3,961.4,-0.5,-0.5,-1.7,25,-37.9195,276.74,961.046,-0.542105,-0.538822,-1.77161,
2026_07_06_17_04_31.170,3.869,30.1,0,0.759,0,0,0,0, ,0,0,0,0,0, ,-38.9,276.4,962.2,-0.5,-0.6,-1.8,25,-37.964,276.716,961.092,-0.53954,-0.539503,-1.77029,
2026_07_06_17_04_31.190,3.869,30,0,0.758,0,0,0,0, ,0,0,0,0,0, ,-37.5,277.4,962.1,-0.6,-0.5,-1.8,25,-37.9784,276.727,961.157,-0.540177,-0.540143,-1.7721,
2026_07_06_17_04_31.209,3.869,30,0,0.759,0,0,0,0, ,0,0,0,0,0, ,-37.7,275.6,959.1,-0.6,-0.5,-1.8,25,-37.9554,276.714,961.123,-0.543822,-0.537696,-1.7738,
2026_07_06_17_04_31.236,3.869,30,0,0.76,0,0,0,0, ,0,0,0,0,0, ,-38.5,277.2,961.3,-0.6,-0.5,-1.8,25,-37.9642,276.694,961.067,-0.547246,-0.535399,-1.7754,
2026_07_06_17_04_31.252,3.869,30,0,0.758,0,0,0,0, ,0,0,0,0,0, ,-36.6,276.2,961.1,-0.6,-0.5,-1.8,25,-37.9389,276.695,961.075,-0.55046,-0.533242,-1.7769,
2026_07_06_17_04_31.269,3.869,30.1,0,0.759,0,0,0,0, ,0,0,0,0,0, ,-37.5,277,960.4,-0.5,-0.5,-1.8,25,-37.8848,276.689,961.055,-0.550432,-0.531216,-1.77831,
2026_07_06_17_04_31.288,3.869,30.1,0,0.76,0,0,0,0, ,0,0,0,0,0, ,-37.8,276.9,960.4,-0.5,-0.5,-1.7,25,-37.8705,276.705,961.015,-0.547359,-0.529314,-1.77658,
2026_07_06_17_04_31.308,3.869,29.9,0,0.757,0,0,0,0, ,0,0,0,0,0, ,-37.7,277.4,962.2,-0.5,-0.6,-1.6,25,-37.8631,276.732,961.032,-0.544473,-0.530575,-1.76887,
2026_07_06_17_04_31.329,3.869,30.1,0,0.758,0,0,0,0, ,0,0,0,0,0, ,-36.9,277.4,961.1,-0.5,-0.5,-1.7,25,-37.8288,276.773,961.07,-0.541763,-0.531758,-1.76163,
2026_07_06_17_04_31.348,3.869,30.1,0,0.759,0,0,0,0, ,0,0,0,0,0, ,-36.8,276.6,960.3,-0.5,-0.6,-1.8,25,-37.7692,276.787,961.048,-0.539218,-0.53287,-1.76092,
2026_07_06_17_04_31.368,3.869,30,0,0.759,0,0,0,0, ,0,0,0,0,0, ,-38.5,276.9,961.3,-0.5,-0.6,-1.8,25,-37.7619,276.784,961.032,-0.536828,-0.536961,-1.7633,
2026_07_06_17_04_31.388,3.869,29.9,0,0.759,0,0,0,0, ,0,0,0,0,0, ,-38.2,276.8,961.9,-0.5,-0.5,-1.7,25,-37.7977,276.788,961.067,-0.534584,-0.537755,-1.76249,
2026_07_06_17_04_31.408,3.869,29.9,0,0.758,0,0,0,0, ,0,0,0,0,0, ,-38.6,277.9,959.7,-0.6,-0.6,-1.8,25,-37.8344,276.823,961.051,-0.535524,-0.538501,-1.76173,
2026_07_06_17_04_31.427,3.869,30.1,0,0.758,0,0,0,0, ,0,0,0,0,0, ,-38.3,276.6,961.1,-0.5,-0.5,-1.7,25,-37.8719,276.849,961.011,-0.536406,-0.539202,-1.76101,
2026_07_06_17_04_31.448,3.869,30,0,0.759,0,0,0,0, ,0,0,0,0,0, ,-38.6,276.9,960.8,-0.5,-0.6,-1.7,25,-37.9072,276.843,961.007,-0.534187,-0.53986,-1.75729,
2026_07_06_17_04_31.468,3.869,29.9,0,0.759,0,0,0,0, ,0,0,0,0,0, ,-37.4,277.2,961.7,-0.5,-0.5,-1.7,25,-37.9128,276.855,961.022,-0.532104,-0.540478,-1.7538,
2026_07_06_17_04_31.487,3.869,30,0,0.758,0,0,0,0, ,0,0,0,0,0, ,-38.3,277.3,960.5,-0.5,-0.5,-1.7,25,-37.909,276.879,961.027,-0.530148,-0.538011,-1.75052,
2026_07_06_17_04_31.507,3.869,30,0,0.756,0,0,0,0, ,0,0,0,0,0, ,-37.7,276.6,961.6,-0.5,-0.6,-1.8,25,-37.9145,276.884,961.028,-0.52831,-0.538742,-1.75049,
2026_07_06_17_04_31.526,3.869,30,0,0.759,0,0,0,0, ,0,0,0,0,0, ,-37.5,276.8,961.4,-0.4,-0.5,-1.8,25,-37.8954,276.872,961.057,-0.523538,-0.539428,-1.75351,
2026_07_06_17_04_31.547,3.869,30,0,0.758,0,0,0,0, ,0,0,0,0,0, ,-38,277.8,960.2,-0.5,-0.5,-1.7,25,-37.8865,276.898,961.041,-0.519057,-0.537025,-1.7533,
2026_07_06_17_04_31.567,3.869,30,0,0.758,0,0,0,0, ,0,0,0,0,0, ,-37.1,277,963,-0.5,-0.6,-1.8,25,-37.866,276.929,961.075,-0.517896,-0.537816,-1.75309,
2026_07_06_17_04_31.586,3.869,30,0,0.759,0,0,0,0, ,0,0,0,0,0, ,-38,276.4,959.9,-0.5,-0.6,-1.8,25,-37.8468,276.915,961.098,-0.516805,-0.541605,-1.75595,
2026_07_06_17_04_31.606,3.869,30,0,0.758,0,0,0,0, ,0,0,0,0,0, ,-38.8,277.7,960.6,-0.6,-0.6,-1.8,25,-37.8805,276.923,961.047,-0.518828,-0.545164,-1.75864,
2026_07_06_17_04_31.626,3.869,29.9,0,0.759,0,0,0,0, ,0,0,0,0,0, ,-38.4,276,961.5,-0.5,-0.6,-1.8,25,-37.9243,276.919,961.047,-0.520728,-0.548505,-1.76116,
2026_07_06_17_04_31.646,3.869,29.9,0,0.759,0,0,0,0, ,0,0,0,0,0, ,-37.4,277,961.6,-0.5,-0.5,-1.8,25,-37.9228,276.893,961.077,-0.519465,-0.548596,-1.76352,
2026_07_06_17_04_31.665,3.869,30,0,0.759,0,0,0,0, ,0,0,0,0,0, ,-38.2,276.6,960.6,-0.5,-0.6,-1.7,25,-37.9153,276.888,961.079,-0.518278,-0.548682,-1.7627,
2026_07_06_17_04_31.685,3.869,30,0,0.758,0,0,0,0, ,0,0,0,0,0, ,-39.3,275.8,960.8,-0.4,-0.6,-1.8,25,-37.9662,276.846,961.056,-0.514118,-0.551809,-1.76193,
2026_07_06_17_04_31.704,3.869,30,0,0.758,0,0,0,0, ,0,0,0,0,0, ,-38.2,277.3,962.2,-0.5,-0.5,-1.8,25,-38.014,276.828,961.083,-0.510211,-0.551699,-1.76425,
2026_07_06_17_04_31.724,3.869,30.1,0,0.759,0,0,0,0, ,0,0,0,0,0, ,-38,277.3,961.6,-0.6,-0.6,-1.7,25,-38.0192,276.856,961.133,-0.512635,-0.551595,-1.76338,
2026_07_06_17_04_31.744,3.869,30,0,0.76,0,0,0,0, ,0,0,0,0,0, ,-37.7,275.2,961.5,-0.5,-0.5,-1.8,25,-38.0089,276.82,961.158,-0.514912,-0.551498,-1.76256,
2026_07_06_17_04_31.764,3.869,30,0,0.759,0,0,0,0, ,0,0,0,0,0, ,-37.1,276.7,961.4,-0.5,-0.6,-1.8,25,-37.9718,276.767,961.176,-0.514003,-0.551407,-1.76484,
2026_07_06_17_04_31.784,3.869,30,0,0.759,0,0,0,0, ,0,0,0,0,0, ,-38.3,277.2,962.5,-0.5,-0.5,-1.8,25,-37.9552,276.778,961.223,-0.51315,-0.551321,-1.76699,
2026_07_06_17_04_31.804,3.869,30,0,0.759,0,0,0,0, ,0,0,0,0,0, ,-37.1,276.2,961.1,-0.5,-0.5,-1.8,25,-37.9397,276.773,961.258,-0.512349,-0.548194,-1.769,
2026_07_06_17_04_31.824,3.869,30,0,0.759,0,0,0,0, ,0,0,0,0,0, ,-37.8,278,961.1,-0.4,-0.5,-1.7,25,-37.9098,276.793,961.249,-0.508549,-0.545257,-1.76784,
2026_07_06_17_04_31.844,3.869,30,0,0.758,0,0,0,0, ,0,0,0,0,0, ,-37.4,275.7,962.6,-0.5,-0.6,-1.8,25,-37.891,276.796,961.285,-0.504982,-0.545546,-1.76675,
2026_07_06_17_04_31.869,3.869,30,0,0.76,0,0,0,0, ,0,0,0,0,0, ,-37.3,276.9,959.7,-0.5,-0.5,-1.8,25,-37.858,276.766,961.277,-0.504678,-0.545817,-1.76878,
2026_07_06_17_04_31.887,3.869,30,0,0.758,0,0,0,0, ,0,0,0,0,0, ,-37.5,277,962,-0.5,-0.6,-1.7,25,-37.8301,276.777,961.251,-0.504393,-0.546072,-1.76764,
2026_07_06_17_04_31.903,3.869,30.1,0,0.759,0,0,0,0, ,0,0,0,0,0, ,-37.7,277.8,961.4,-0.5,-0.5,-1.8,25,-37.8161,276.815,961.278,-0.504125,-0.546312,-1.76656,
2026_07_06_17_04_31.923,3.869,30.1,0,0.761,0,0,0,0, ,0,0,0,0,0, ,-38.4,277.4,960.4,-0.5,-0.5,-1.7,25,-37.8303,276.863,961.255,-0.503874,-0.54349,-1.76555,
2026_07_06_17_04_31.942,3.869,30,0,0.759,0,0,0,0, ,0,0,0,0,0, ,-38,278.5,959.2,-0.5,-0.5,-1.8,25,-37.8528,276.929,961.167,-0.503638,-0.540839,-1.7646,
2026_07_06_17_04_31.962,3.869,30,0,0.759,0,0,0,0, ,0,0,0,0,0, ,-38,276.9,960.2,-0.5,-0.5,-1.8,25,-37.8618,276.976,961.077,-0.503416,-0.538351,-1.76676,
2026_07_06_17_04_31.982,3.869,30.1,0,0.759,0,0,0,0, ,0,0,0,0,0, ,-37.4,276,963,-0.6,-0.5,-1.8,25,-37.852,276.944,961.109,-0.506255,-0.536014,-1.76879,
2026_07_06_17_04_32.002,3.869,30,0,0.758,0,0,0,0, ,0,0,0,0,0, ,-36.9,276.6,962.6,-0.5,-0.5,-1.8,25,-37.8092,276.905,961.212,-0.508921,-0.533819,-1.77069,
2026_07_06_17_04_32.022,3.869,30,0,0.759,0,0,0,0, ,0,0,0,0,0, ,-37.9,276.3,961.5,-0.5,-0.5,-1.8,25,-37.7842,276.877,961.263,-0.508377,-0.531758,-1.77247,
2026_07_06_17_04_32.041,3.869,29.9,0,0.759,0,0,0,0, ,0,0,0,0,0, ,-37.7,277.2,962,-0.5,-0.5,-1.8,25,-37.7852,276.869,961.293,-0.507866,-0.529823,-1.77415,
2026_07_06_17_04_32.061,3.869,30,0,0.76,0,0,0,0, ,0,0,0,0,0, ,-37.8,276.6,961.3,-0.4,-0.5,-1.8,25,-37.7831,276.871,961.315,-0.50434,-0.528006,-1.77573,
2026_07_06_17_04_32.086,3.869,30,0,0.759,0,0,0,0, ,0,0,0,0,0, ,-38.9,276.9,960.3,-0.5,-0.5,-1.7,25,-37.8176,276.864,961.283,-0.501029,-0.526299,-1.77416,
2026_07_06_17_04_32.100,3.869,30.1,0,0.759,0,0,0,0, ,0,0,0,0,0, ,-37.5,278.3,961.5,-0.5,-0.5,-1.7,25,-37.8409,276.909,961.26,-0.500966,-0.524696,-1.76964,
2026_07_06_17_04_32.120,3.869,30,0,0.76,0,0,0,0, ,0,0,0,0,0, ,-37.8,277.7,961.4,-0.5,-0.5,-1.7,25,-37.8293,276.975,961.271,-0.500907,-0.523192,-1.7654,
2026_07_06_17_04_32.140,3.869,30,0,0.758,0,0,0,0, ,0,0,0,0,0, ,-36.3,277.4,961.5,-0.5,-0.5,-1.7,25,-37.7818,277.01,961.282,-0.500852,-0.521778,-1.76141,
2026_07_06_17_04_32.160,3.869,30.1,0,0.759,0,0,0,0, ,0,0,0,0,0, ,-36.8,276.8,961.7,-0.5,-0.5,-1.7,25,-37.7067,277.016,961.302,-0.5008,-0.520451,-1.75767,
2026_07_06_17_04_32.180,3.869,30,0,0.759,0,0,0,0, ,0,0,0,0,0, ,-38.5,276.8,962.5,-0.5,-0.6,-1.8,25,-37.7033,277.003,961.35,-0.500751,-0.522252,-1.7572,
2026_07_06_17_04_32.199,3.869,30,0,0.759,0,0,0,0, ,0,0,0,0,0, ,-37.1,276.6,961.6,-0.5,-0.6,-1.7,25,-37.7092,276.984,961.393,-0.500706,-0.52699,-1.75676,
2026_07_06_17_04_32.219,3.869,30,0,0.76,0,0,0,0, ,0,0,0,0,0, ,-39.3,276.7,960.6,-0.5,-0.5,-1.8,25,-37.7391,276.964,961.375,-0.500663,-0.528392,-1.75635,
2026_07_06_17_04_32.240,3.869,30,0,0.759,0,0,0,0, ,0,0,0,0,0, ,-38.4,276.1,961.3,-0.5,-0.6,-1.8,25,-37.8068,276.929,961.349,-0.500622,-0.529709,-1.75901,
2026_07_06_17_04_32.259,3.869,30,0,0.76,0,0,0,0, ,0,0,0,0,0, ,-37.2,277.5,961.7,-0.5,-0.5,-1.8,25,-37.8064,276.922,961.358,-0.500584,-0.530945,-1.76151,
2026_07_06_17_04_32.279,3.869,30.1,0,0.759,0,0,0,0, ,0,0,0,0,0, ,-37.1,276.6,960.6,-0.5,-0.6,-1.8,25,-37.7664,276.929,961.346,-0.500549,-0.532106,-1.76385,
2026_07_06_17_04_32.298,3.869,30,0,0.758,0,0,0,0, ,0,0,0,0,0, ,-37.3,277,961.4,-0.6,-0.5,-1.7,25,-37.7318,276.922,961.325,-0.503562,-0.533197,-1.76301,
2026_07_06_17_04_32.318,3.869,30,0,0.76,0,0,0,0, ,0,0,0,0,0, ,-38.4,278.1,960.5,-0.5,-0.5,-1.7,25,-37.739,276.96,961.302,-0.506392,-0.531174,-1.75917,
2026_07_06_17_04_32.338,3.869,30.1,0,0.758,0,0,0,0, ,0,0,0,0,0, ,-38.5,276.7,961.1,-0.5,-0.5,-1.8,25,-37.7824,276.987,961.271,-0.506002,-0.529274,-1.75861,
2026_07_06_17_04_32.359,3.869,30.1,0,0.758,0,0,0,0, ,0,0,0,0,0, ,-38.9,277.5,962,-0.5,-0.6,-1.6,25,-37.8383,276.994,961.288,-0.505637,-0.530537,-1.75504,
2026_07_06_17_04_32.378,3.869,30.1,0,0.758,0,0,0,0, ,0,0,0,0,0, ,-38,277.8,961.7,-0.5,-0.5,-1.7,25,-37.8756,277.034,961.322,-0.505293,-0.531723,-1.74864,
2026_07_06_17_04_32.397,3.869,30.1,0,0.76,0,0,0,0, ,0,0,0,0,0, ,-38,277,961.7,-0.5,-0.5,-1.8,25,-37.8831,277.056,961.345,-0.504971,-0.52979,-1.74872,
2026_07_06_17_04_32.418,3.869,30.1,0,0.758,0,0,0,0, ,0,0,0,0,0, ,-37.8,276.7,962.2,-0.5,-0.6,-1.7,25,-37.8842,277.043,961.382,-0.504668,-0.531021,-1.7488,
2026_07_06_17_04_32.437,3.869,30.1,0,0.759,0,0,0,0, ,0,0,0,0,0, ,-38.3,277.3,960.5,-0.5,-0.5,-1.8,25,-37.8943,277.041,961.38,-0.504383,-0.532178,-1.74887,
2026_07_06_17_04_32.457,3.869,30,0,0.76,0,0,0,0, ,0,0,0,0,0, ,-36.8,276.8,961.4,-0.5,-0.6,-1.7,25,-37.8733,277.041,961.354,-0.504116,-0.533264,-1.74894,
2026_07_06_17_04_32.476,3.869,30,0,0.758,0,0,0,0, ,0,0,0,0,0, ,-37.4,276.4,961,-0.5,-0.6,-1.8,25,-37.8262,277.014,961.345,-0.503865,-0.537331,-1.74901,
2026_07_06_17_04_32.496,3.869,29.9,0,0.759,0,0,0,0, ,0,0,0,0,0, ,-38.6,276.4,960.6,-0.5,-0.6,-1.7,25,-37.8368,276.977,961.312,-0.50363,-0.54115,-1.74907,
2026_07_06_17_04_32.517,3.869,29.9,0,0.758,0,0,0,0, ,0,0,0,0,0, ,-36.1,276.9,961.4,-0.5,-0.5,-1.8,25,-37.8071,276.957,961.293,-0.503409,-0.541689,-1.74912,
2026_07_06_17_04_32.536,3.869,30,0,0.759,0,0,0,0, ,0,0,0,0,0, ,-37.9,277.9,961.3,-0.5,-0.6,-1.8,25,-37.7579,276.984,961.296,-0.503201,-0.542195,-1.75222,
2026_07_06_17_04_32.556,3.869,30.1,0,0.759,0,0,0,0, ,0,0,0,0,0, ,-38.5,277.8,961,-0.5,-0.5,-1.7,25,-37.7849,277.037,961.287,-0.503006,-0.542671,-1.75209,
2026_07_06_17_04_32.576,3.869,30.1,0,0.759,0,0,0,0, ,0,0,0,0,0, ,-38.3,276,961.3,-0.5,-0.6,-1.8,25,-37.8223,277.028,961.279,-0.502823,-0.543118,-1.75196,
2026_07_06_17_04_32.596,3.869,30,0,0.759,0,0,0,0, ,0,0,0,0,0, ,-38.2,277.7,962.2,-0.6,-0.5,-1.8,25,-37.8484,277.018,961.307,-0.505698,-0.543537,-1.75489,
2026_07_06_17_04_32.616,3.869,30,0,0.759,0,0,0,0, ,0,0,0,0,0, ,-38.2,277,960,-0.5,-0.5,-1.8,25,-37.8698,277.038,961.295,-0.508397,-0.540884,-1.75764,
2026_07_06_17_04_32.640,3.869,30,0,0.759,0,0,0,0, ,0,0,0,0,0, ,-37.8,276.6,962.2,-0.5,-0.5,-1.8,25,-37.8778,277.023,961.283,-0.507886,-0.538393,-1.76022,
2026_07_06_17_04_32.655,3.869,30.1,0,0.758,0,0,0,0, ,0,0,0,0,0, ,-37.3,276.9,961.9,-0.5,-0.5,-1.7,25,-37.8578,277.007,961.33,-0.507405,-0.536053,-1.7596,
2026_07_06_17_04_32.675,3.869,30,0,0.758,0,0,0,0, ,0,0,0,0,0, ,-38.2,276.6,960.9,-0.5,-0.6,-1.7,25,-37.8512,276.991,961.334,-0.506954,-0.536903,-1.75596,
2026_07_06_17_04_32.695,3.869,30,0,0.76,0,0,0,0, ,0,0,0,0,0, ,-37.9,276.2,961,-0.5,-0.5,-1.8,25,-37.8633,276.955,961.311,-0.50653,-0.537701,-1.7556,
2026_07_06_17_04_32.716,3.869,30,0,0.759,0,0,0,0, ,0,0,0,0,0, ,-38.3,277.8,962.7,-0.5,-0.5,-1.8,25,-37.8778,276.958,961.343,-0.506132,-0.535404,-1.75831,
2026_07_06_17_04_32.734,3.869,30,0,0.758,0,0,0,0, ,0,0,0,0,0, ,-38.3,277.5,960.8,-0.5,-0.5,-1.7,25,-37.9035,277,961.368,-0.505758,-0.533246,-1.7578,
2026_07_06_17_04_32.755,3.869,30.1,0,0.76,0,0,0,0, ,0,0,0,0,0, ,-38,277.4,962.1,-0.5,-0.5,-1.7,25,-37.9185,277.027,961.373,-0.505408,-0.53122,-1.75428,
2026_07_06_17_04_32.774,3.869,30,0,0.758,0,0,0,0, ,0,0,0,0,0, ,-37.4,276.1,960.2,-0.5,-0.6,-1.8,25,-37.9052,277.01,961.36,-0.505078,-0.532365,-1.75402,
2026_07_06_17_04_32.794,3.869,30,0,0.76,0,0,0,0, ,0,0,0,0,0, ,-38.3,275.6,962.1,-0.5,-0.5,-1.8,25,-37.9018,276.94,961.347,-0.504769,-0.533439,-1.75682,
2026_07_06_17_04_32.818,3.869,30,0,0.759,0,0,0,0, ,0,0,0,0,0, ,-37.3,276.8,959.5,-0.4,-0.6,-1.7,25,-37.8956,276.895,961.314,-0.501431,-0.534449,-1.7564,
2026_07_06_17_04_32.838,3.869,30,0,0.76,0,0,0,0, ,0,0,0,0,0, ,-37.3,276.4,961.4,-0.5,-0.5,-1.8,25,-37.8593,276.877,961.261,-0.498297,-0.535396,-1.75601,
2026_07_06_17_04_32.853,3.869,30,0,0.76,0,0,0,0, ,0,0,0,0,0, ,-38.4,276.7,961.1,-0.4,-0.5,-1.7,25,-37.8588,276.857,961.26,-0.495354,-0.533239,-1.75565,
2026_07_06_17_04_32.873,3.869,30.1,0,0.759,0,0,0,0, ,0,0,0,0,0, ,-38.3,276.3,961,-0.5,-0.5,-1.7,25,-37.8887,276.835,961.247,-0.49259,-0.531214,-1.75226,
2026_07_06_17_04_32.893,3.869,30,0,0.759,0,0,0,0, ,0,0,0,0,0, ,-38.2,275.5,960.4,-0.5,-0.5,-1.8,25,-37.9107,276.778,961.214,-0.493042,-0.529312,-1.75212,
2026_07_06_17_04_32.913,3.869,30.1,0,0.759,0,0,0,0, ,0,0,0,0,0, ,-38.2,277,963.1,-0.5,-0.6,-1.8,25,-37.9283,276.746,961.247,-0.493466,-0.530572,-1.75504,
2026_07_06_17_04_32.932,3.869,30,0,0.759,0,0,0,0, ,0,0,0,0,0, ,-37.1,277.9,959.7,-0.5,-0.6,-1.7,25,-37.9114,276.789,961.256,-0.493864,-0.534803,-1.75473,
2026_07_06_17_04_32.952,3.869,30,0,0.759,0,0,0,0, ,0,0,0,0,0, ,-37.1,277.3,961.6,-0.4,-0.5,-1.6,25,-37.8619,276.838,961.219,-0.491191,-0.535729,-1.74835,
2026_07_06_17_04_32.971,3.869,30.1,0,0.759,0,0,0,0, ,0,0,0,0,0, ,-37.5,277,960.8,-0.5,-0.6,-1.8,25,-37.8277,276.857,961.218,-0.488681,-0.536599,-1.7454,
2026_07_06_17_04_32.991,3.869,29.9,0,0.759,0,0,0,0, ,0,0,0,0,0, ,-37.3,277.3,961.3,-0.5,-0.5,-1.7,25,-37.8016,276.875,961.208,-0.489371,-0.537415,-1.74568,
2026_07_06_17_04_33.011,3.869,30,0,0.759,0,0,0,0, ,0,0,0,0,0, ,-36.8,277,960.4,-0.5,-0.6,-1.8,25,-37.7558,276.892,961.186,-0.490018,-0.538182,-1.74594,
2026_07_06_17_04_33.033,3.869,30,0,0.759,0,0,0,0, ,0,0,0,0,0, ,-38.8,277.4,960.9,-0.5,-0.5,-1.7,25,-37.7585,276.911,961.153,-0.490627,-0.538902,-1.74619,
2026_07_06_17_04_33.051,3.869,30.1,0,0.759,0,0,0,0, ,0,0,0,0,0, ,-38.4,277.4,960.8,-0.4,-0.5,-1.8,25,-37.8098,276.94,961.135,-0.488151,-0.536532,-1.74642,
2026_07_06_17_04_33.072,3.869,30,0,0.759,0,0,0,0, ,0,0,0,0,0, ,-38.2,276.7,961.4,-0.4,-0.5,-1.7,25,-37.8397,276.947,961.133,-0.482779,-0.534306,-1.74664,
2026_07_06_17_04_33.091,3.869,30,0,0.759,0,0,0,0, ,0,0,0,0,0, ,-37.1,276.4,961.6,-0.4,-0.5,-1.7,25,-37.8281,276.923,961.155,-0.477735,-0.532215,-1.7438,
2026_07_06_17_04_33.110,3.869,30,0,0.759,0,0,0,0, ,0,0,0,0,0, ,-37.9,276.3,961.1,-0.5,-0.5,-1.6,25,-37.8081,276.888,961.167,-0.476045,-0.530252,-1.73808,
2026_07_06_17_04_33.131,3.869,30.1,0,0.759,0,0,0,0, ,0,0,0,0,0, ,-37.8,277.3,960.2,-0.5,-0.5,-1.8,25,-37.8107,276.883,961.135,-0.477505,-0.528409,-1.73576,
2026_07_06_17_04_33.151,3.869,30,0,0.76,0,0,0,0, ,0,0,0,0,0, ,-38.5,276.3,960.2,-0.5,-0.4,-1.7,25,-37.8313,276.878,961.078,-0.478875,-0.523631,-1.73663,
2026_07_06_17_04_33.169,3.869,30.1,0,0.759,0,0,0,0, ,0,0,0,0,0, ,-37.4,277.3,960.6,-0.5,-0.5,-1.8,25,-37.8386,276.873,961.037,-0.480163,-0.519144,-1.73745,
2026_07_06_17_04_33.190,3.869,30,0,0.759,0,0,0,0, ,0,0,0,0,0, ,-38,276.4,962.7,-0.5,-0.6,-1.7,25,-37.8301,276.871,961.074,-0.481371,-0.521024,-1.73821,
2026_07_06_17_04_33.210,3.869,30,0,0.759,0,0,0,0, ,0,0,0,0,0, ,-37.4,276.4,960.5,-0.5,-0.6,-1.7,25,-37.8222,276.843,961.106,-0.482507,-0.525837,-1.73588,
2026_07_06_17_04_33.229,3.869,30.1,0,0.759,0,0,0,0, ,0,0,0,0,0, ,-37.7,276.7,960.4,-0.5,-0.5,-1.8,25,-37.8056,276.825,961.066,-0.483573,-0.527309,-1.73674,
2026_07_06_17_04_33.248,3.869,30.1,0,0.759,0,0,0,0, ,0,0,0,0,0, ,-37.5,276.3,960.8,-0.5,-0.5,-1.8,25,-37.7931,276.805,961.038,-0.484574,-0.525645,-1.7406,
2026_07_06_17_04_33.269,3.869,30.1,0,0.759,0,0,0,0, ,0,0,0,0,0, ,-38.9,278.3,961.6,-0.5,-0.6,-1.8,25,-37.8179,276.835,961.048,-0.485514,-0.527129,-1.74422,
2026_07_06_17_04_33.289,3.869,30.1,0,0.759,0,0,0,0, ,0,0,0,0,0, ,-38,277,960.5,-0.5,-0.5,-1.7,25,-37.8564,276.885,961.048,-0.486396,-0.528523,-1.74457,
2026_07_06_17_04_33.309,3.869,30.1,0,0.76,0,0,0,0, ,0,0,0,0,0, ,-37.9,278,960.8,-0.5,-0.5,-1.8,25,-37.8621,276.922,961.024,-0.487225,-0.526785,-1.7449,
2026_07_06_17_04_33.328,3.869,30.1,0,0.759,0,0,0,0, ,0,0,0,0,0, ,-37.9,277.5,960.8,-0.5,-0.6,-1.8,25,-37.8644,276.973,961.01,-0.488004,-0.528199,-1.74826,
2026_07_06_17_04_33.349,3.869,30.1,0,0.759,0,0,0,0, ,0,0,0,0,0, ,-37.9,277,961.5,-0.5,-0.5,-1.8,25,-37.8666,276.99,961.019,-0.488735,-0.529528,-1.75141,
2026_07_06_17_04_33.368,3.869,30.1,0,0.758,0,0,0,0, ,0,0,0,0,0, ,-38,276.3,961.3,-0.5,-0.5,-1.7,25,-37.8717,276.969,961.042,-0.489421,-0.527728,-1.75132,
2026_07_06_17_04_33.387,3.869,30.1,0,0.76,0,0,0,0, ,0,0,0,0,0, ,-38.2,276.9,962.1,-0.5,-0.5,-1.7,25,-37.8856,276.947,961.082,-0.490066,-0.526039,-1.7482,
2026_07_06_17_04_33.407,3.869,30.1,0,0.76,0,0,0,0, ,0,0,0,0,0, ,-36.7,276.3,961.1,-0.5,-0.5,-1.8,25,-37.859,276.925,961.114,-0.490671,-0.524452,-1.74831,
2026_07_06_17_04_33.434,3.869,30.1,0,0.759,0,0,0,0, ,0,0,0,0,0, ,-37.1,277,961.9,-0.5,-0.6,-1.7,25,-37.8006,276.909,961.137,-0.49124,-0.526009,-1.74841,
2026_07_06_17_04_33.446,3.869,30.1,0,0.758,0,0,0,0, ,0,0,0,0,0, ,-38,277.3,961,-0.5,-0.5,-1.8,25,-37.7853,276.923,961.156,-0.491774,-0.527471,-1.74851,
2026_07_06_17_04_33.468,3.869,30.1,0,0.758,0,0,0,0, ,0,0,0,0,0, ,-38.6,275.7,962,-0.5,-0.5,-1.8,25,-37.8167,276.898,961.177,-0.492275,-0.525797,-1.75165,
2026_07_06_17_04_33.486,3.869,30,0,0.76,0,0,0,0, ,0,0,0,0,0, ,-37.5,276.6,960.6,-0.5,-0.5,-1.8,25,-37.8309,276.852,961.185,-0.492746,-0.524225,-1.75459,
2026_07_06_17_04_33.508,3.869,30.1,0,0.758,0,0,0,0, ,0,0,0,0,0, ,-37.5,277.2,960.8,-0.4,-0.5,-1.7,25,-37.8107,276.855,961.155,-0.490141,-0.522749,-1.75431,
2026_07_06_17_04_33.527,3.869,30.1,0,0.759,0,0,0,0, ,0,0,0,0,0, ,-37.1,276.3,959.7,-0.5,-0.6,-1.7,25,-37.7796,276.849,961.1,-0.487695,-0.524409,-1.751,
2026_07_06_17_04_33.548,3.869,30,0,0.76,0,0,0,0, ,0,0,0,0,0, ,-37.4,277.4,960,-0.5,-0.5,-1.7,25,-37.7473,276.849,961.024,-0.488445,-0.525969,-1.74789,
2026_07_06_17_04_33.566,3.869,30.1,0,0.759,0,0,0,0, ,0,0,0,0,0, ,-37.2,276.4,961,-0.5,-0.5,-1.7,25,-37.7201,276.852,960.992,-0.489149,-0.524386,-1.74498,
2026_07_06_17_04_33.585,3.869,30.1,0,0.758,0,0,0,0, ,0,0,0,0,0, ,-38.2,276.7,960,-0.5,-0.6,-1.8,25,-37.7189,276.833,960.962,-0.48981,-0.525947,-1.74528,
2026_07_06_17_04_33.604,3.869,30,0,0.76,0,0,0,0, ,0,0,0,0,0, ,-37.2,276.8,961.6,-0.5,-0.5,-1.7,25,-37.7177,276.828,960.952,-0.490431,-0.527413,-1.74557,
2026_07_06_17_04_33.625,3.869,30.1,0,0.759,0,0,0,0, ,0,0,0,0,0, ,-38.5,276.6,961.6,-0.4,-0.5,-1.7,25,-37.7258,276.82,960.991,-0.487967,-0.525742,-1.74279,
2026_07_06_17_04_33.645,3.869,30,0,0.759,0,0,0,0, ,0,0,0,0,0, ,-38.3,277.3,960.5,-0.5,-0.5,-1.7,25,-37.7669,276.828,960.995,-0.485654,-0.524174,-1.74018,
2026_07_06_17_04_33.666,3.869,29.9,0,0.759,0,0,0,0, ,0,0,0,0,0, ,-38.4,277.7,960.6,-0.4,-0.6,-1.7,25,-37.8024,276.869,960.968,-0.483481,-0.525747,-1.73774,
2026_07_06_17_04_33.684,3.869,30.1,0,0.759,0,0,0,0, ,0,0,0,0,0, ,-37.5,277.3,961.3,-0.5,-0.6,-1.7,25,-37.8114,276.908,960.967,-0.481441,-0.530272,-1.73544,
2026_07_06_17_04_33.705,3.869,30.1,0,0.759,0,0,0,0, ,0,0,0,0,0, ,-38.5,276.6,963.1,-0.4,-0.5,-1.8,25,-37.8229,276.91,961.042,-0.479525,-0.531474,-1.73632,
2026_07_06_17_04_33.729,3.869,29.9,0,0.76,0,0,0,0, ,0,0,0,0,0, ,-38,276.3,960.5,-0.5,-0.5,-1.7,25,-37.8489,276.882,961.088,-0.477726,-0.529556,-1.73716,
2026_07_06_17_04_33.752,3.869,30,0,0.759,0,0,0,0, ,0,0,0,0,0, ,-38.3,277.3,961.5,-0.5,-0.5,-1.7,25,-37.8673,276.877,961.083,-0.479083,-0.527755,-1.73489,
2026_07_06_17_04_33.764,3.869,30.1,0,0.759,0,0,0,0, ,0,0,0,0,0, ,-37.8,276.4,960.5,-0.4,-0.5,-1.7,25,-37.8784,276.876,961.078,-0.477311,-0.526064,-1.73277,
2026_07_06_17_04_33.786,3.869,30,0,0.757,0,0,0,0, ,0,0,0,0,0, ,-37.9,276.8,962.4,-0.5,-0.6,-1.6,25,-37.8767,276.859,961.1,-0.475646,-0.527523,-1.72772,
2026_07_06_17_04_33.804,3.869,30,0,0.76,0,0,0,0, ,0,0,0,0,0, ,-38.9,276.3,960.5,-0.5,-0.5,-1.7,25,-37.9086,276.84,961.122,-0.477131,-0.528892,-1.72299,
2026_07_06_17_04_33.824,3.869,30,0,0.757,0,0,0,0, ,0,0,0,0,0, ,-37.4,276.9,961.7,-0.4,-0.5,-1.7,25,-37.9233,276.825,961.12,-0.475477,-0.527132,-1.72159,
2026_07_06_17_04_33.842,3.869,30,0,0.759,0,0,0,0, ,0,0,0,0,0, ,-36.6,277.4,960.6,-0.4,-0.5,-1.8,25,-37.867,276.845,961.122,-0.470878,-0.525478,-1.72332,
2026_07_06_17_04_33.868,3.869,30.1,0,0.76,0,0,0,0, ,0,0,0,0,0, ,-38.3,276.2,961.7,-0.5,-0.6,-1.8,25,-37.8416,276.842,961.124,-0.469606,-0.526973,-1.72799,
2026_07_06_17_04_33.882,3.869,30,0,0.759,0,0,0,0, ,0,0,0,0,0, ,-36.6,277.3,961.5,-0.5,-0.5,-1.7,25,-37.8177,276.837,961.153,-0.471458,-0.528376,-1.72933,
2026_07_06_17_04_33.904,3.869,30,0,0.759,0,0,0,0, ,0,0,0,0,0, ,-37.7,276.4,961.5,-0.5,-0.5,-1.7,25,-37.777,276.838,961.174,-0.473197,-0.526647,-1.72754,
2026_07_06_17_04_33.922,3.869,30,0,0.759,0,0,0,0, ,0,0,0,0,0, ,-38.3,276.9,962.6,-0.4,-0.5,-1.7,25,-37.7906,276.826,961.227,-0.471783,-0.525023,-1.72587,
2026_07_06_17_04_33.944,3.869,30,0,0.759,0,0,0,0, ,0,0,0,0,0, ,-37.4,275.8,961.6,-0.5,-0.5,-1.7,25,-37.7942,276.797,961.281,-0.470456,-0.523498,-1.72429,
2026_07_06_17_04_33.961,3.869,30,0,0.758,0,0,0,0, ,0,0,0,0,0, ,-37.3,277.4,961.1,-0.4,-0.5,-1.8,25,-37.7672,276.785,961.285,-0.46921,-0.522066,-1.72586,
2026_07_06_17_04_33.983,3.869,30,0,0.758,0,0,0,0, ,0,0,0,0,0, ,-38.6,277,961.5,-0.4,-0.5,-1.8,25,-37.7783,276.81,961.286,-0.464992,-0.520722,-1.73037,
2026_07_06_17_04_34.001,3.869,30,0,0.759,0,0,0,0, ,0,0,0,0,0, ,-38.5,275.8,962.6,-0.3,-0.4,-1.8,25,-37.8253,276.785,961.332,-0.457985,-0.516412,-1.73462,
2026_07_06_17_04_34.023,3.869,30,0,0.76,0,0,0,0, ,0,0,0,0,0, ,-38.3,277.4,958.6,-0.3,-0.5,-1.8,25,-37.8604,276.774,961.288,-0.448358,-0.512365,-1.7386,
2026_07_06_17_04_34.042,3.869,30,0,0.76,0,0,0,0, ,0,0,0,0,0, ,-39,277,959.5,-0.4,-0.5,-1.7,25,-37.9085,276.8,961.151,-0.442364,-0.511611,-1.7393,
2026_07_06_17_04_34.065,3.869,30.1,0,0.759,0,0,0,0, ,0,0,0,0,0, ,-37.4,275.2,959.2,-0.4,-0.6,-1.7,25,-37.9262,276.757,961.042,-0.439782,-0.513951,-1.7369,
2026_07_06_17_04_34.081,3.869,30,0,0.76,0,0,0,0, ,0,0,0,0,0, ,-38.5,277.8,961.7,-0.4,-0.5,-1.8,25,-37.9277,276.742,961.006,-0.437358,-0.516148,-1.7377,
2026_07_06_17_04_34.102,3.869,30.1,0,0.759,0,0,0,0, ,0,0,0,0,0, ,-37.7,276.2,960.8,-0.4,-0.5,-1.7,25,-37.9382,276.757,961.02,-0.435082,-0.515164,-1.73845,
2026_07_06_17_04_34.120,3.869,30,0,0.76,0,0,0,0, ,0,0,0,0,0, ,-38.3,276,961.4,-0.5,-0.5,-1.7,25,-37.942,276.717,961.025,-0.435991,-0.514239,-1.73611,
2026_07_06_17_04_34.141,3.869,30,0,0.76,0,0,0,0, ,0,0,0,0,0, ,-37.7,277.8,961.4,-0.4,-0.5,-1.7,25,-37.9455,276.728,961.048,-0.436844,-0.513372,-1.73391,
2026_07_06_17_04_34.159,3.869,30,0,0.759,0,0,0,0, ,0,0,0,0,0, ,-38.4,276.7,960.9,-0.4,-0.6,-1.7,25,-37.9519,276.76,961.054,-0.434599,-0.515604,-1.73184,
2026_07_06_17_04_34.181,3.869,30,0,0.758,0,0,0,0, ,0,0,0,0,0, ,-36.6,276.7,960.9,-0.5,-0.5,-1.8,25,-37.9243,276.757,961.045,-0.435538,-0.5177,-1.73295,
2026_07_06_17_04_34.199,3.869,30,0,0.758,0,0,0,0, ,0,0,0,0,0, ,-37.1,276.8,961.9,-0.5,-0.6,-1.7,25,-37.8589,276.756,961.067,-0.439466,-0.519668,-1.73399,
2026_07_06_17_04_34.221,3.869,30,0,0.758,0,0,0,0, ,0,0,0,0,0, ,-36.9,278.3,961.6,-0.4,-0.5,-1.8,25,-37.8065,276.805,961.108,-0.440108,-0.521516,-1.73496,
2026_07_06_17_04_34.238,3.869,30,0,0.759,0,0,0,0, ,0,0,0,0,0, ,-39,276.7,962.8,-0.5,-0.6,-1.7,25,-37.8153,276.847,961.175,-0.440711,-0.523252,-1.73588,
2026_07_06_17_04_34.260,3.869,30,0,0.759,0,0,0,0, ,0,0,0,0,0, ,-37.7,278.9,960.3,-0.5,-0.5,-1.8,25,-37.8479,276.905,961.198,-0.444324,-0.524882,-1.73674,
2026_07_06_17_04_34.277,3.869,30,0,0.758,0,0,0,0, ,0,0,0,0,0, ,-38,278.4,961.9,-0.5,-0.5,-1.8,25,-37.848,277.011,961.192,-0.447716,-0.523366,-1.74059,
2026_07_06_17_04_34.301,3.869,30,0,0.758,0,0,0,0, ,0,0,0,0,0, ,-37.9,277.7,961.4,-0.5,-0.5,-1.7,25,-37.8542,277.075,961.22,-0.450902,-0.521942,-1.74117,
2026_07_06_17_04_34.318,3.869,30.1,0,0.759,0,0,0,0, ,0,0,0,0,0, ,-38.3,277.4,961.4,-0.5,-0.5,-1.7,25,-37.8692,277.104,961.231,-0.453894,-0.520605,-1.73866,
2026_07_06_17_04_34.341,3.869,30,0,0.759,0,0,0,0, ,0,0,0,0,0, ,-39.5,277.5,960.3,-0.5,-0.5,-1.7,25,-37.932,277.125,961.207,-0.456704,-0.519349,-1.7363,
2026_07_06_17_04_34.357,3.869,30,0,0.757,0,0,0,0, ,0,0,0,0,0, ,-37.3,275.8,961.7,-0.5,-0.5,-1.8,25,-37.9605,277.096,961.195,-0.459342,-0.51817,-1.73714,
2026_07_06_17_04_34.379,3.869,30,0,0.758,0,0,0,0, ,0,0,0,0,0, ,-38.6,277,960,-0.5,-0.5,-1.7,25,-37.9599,277.053,961.174,-0.46182,-0.517063,-1.73792,
2026_07_06_17_04_34.397,3.869,30,0,0.759,0,0,0,0, ,0,0,0,0,0, ,-37.7,276.7,961.7,-0.5,-0.5,-1.8,25,-37.9715,277.041,961.154,-0.464146,-0.516023,-1.73866,
2026_07_06_17_04_34.420,3.869,30.1,0,0.759,0,0,0,0, ,0,0,0,0,0, ,-38.6,276.8,961.5,-0.5,-0.5,-1.8,25,-37.9823,277.023,961.181,-0.466331,-0.515047,-1.7424,
2026_07_06_17_04_34.436,3.869,30,0,0.759,0,0,0,0, ,0,0,0,0,0, ,-36.9,278,961,-0.5,-0.6,-1.7,25,-37.9682,277.046,961.185,-0.468383,-0.517177,-1.74286,
2026_07_06_17_04_34.458,3.869,30,0,0.759,0,0,0,0, ,0,0,0,0,0, ,-37.7,276.9,961.6,-0.5,-0.6,-1.8,25,-37.9275,277.071,961.192,-0.47031,-0.522224,-1.74329,
2026_07_06_17_04_34.476,3.869,30.1,0,0.759,0,0,0,0, ,0,0,0,0,0, ,-38.8,276.8,961.1,-0.5,-0.5,-1.8,25,-37.9471,277.057,961.202,-0.472119,-0.523916,-1.74675,
2026_07_06_17_04_34.498,3.869,30.1,0,0.759,0,0,0,0, ,0,0,0,0,0, ,-39.5,277.4,960.9,-0.4,-0.5,-1.8,25,-38.0204,277.06,961.19,-0.470771,-0.522459,-1.74999,
2026_07_06_17_04_34.516,3.869,30,0,0.76,0,0,0,0, ,0,0,0,0,0, ,-38.2,276.6,961.6,-0.4,-0.5,-1.8,25,-38.071,277.056,961.193,-0.466458,-0.52109,-1.75304,
2026_07_06_17_04_34.538,3.869,30,0,0.76,0,0,0,0, ,0,0,0,0,0, ,-38.9,277.2,960.9,-0.5,-0.6,-1.7,25,-38.1002,277.047,961.197,-0.465455,-0.522852,-1.75286,
2026_07_06_17_04_34.556,3.869,30.1,0,0.759,0,0,0,0, ,0,0,0,0,0, ,-37.4,276,961.5,-0.5,-0.5,-1.8,25,-38.1032,277.02,961.197,-0.46756,-0.524506,-1.75268,
2026_07_06_17_04_34.578,3.869,30,0,0.761,0,0,0,0, ,0,0,0,0,0, ,-37.9,276.3,962.4,-0.5,-0.5,-1.8,25,-38.0756,276.967,961.243,-0.469537,-0.523013,-1.75557,
2026_07_06_17_04_34.595,3.869,30,0,0.759,0,0,0,0, ,0,0,0,0,0, ,-38.8,276.4,961,-0.5,-0.5,-1.7,25,-38.0923,276.929,961.271,-0.471394,-0.521611,-1.75523,
2026_07_06_17_04_34.617,3.869,30,0,0.758,0,0,0,0, ,0,0,0,0,0, ,-38.2,276.3,961,-0.5,-0.5,-1.8,25,-38.1171,276.894,961.254,-0.473137,-0.520294,-1.75491,
2026_07_06_17_04_34.636,3.869,29.9,0,0.758,0,0,0,0, ,0,0,0,0,0, ,-37.8,277.3,960.9,-0.4,-0.5,-1.7,25,-38.11,276.888,961.236,-0.471727,-0.519057,-1.75461,
2026_07_06_17_04_34.657,3.869,30,0,0.76,0,0,0,0, ,0,0,0,0,0, ,-38.3,277.7,961,-0.4,-0.5,-1.7,25,-38.1064,276.925,961.218,-0.467356,-0.517896,-1.75128,
2026_07_06_17_04_34.674,3.869,30.1,0,0.759,0,0,0,0, ,0,0,0,0,0, ,-38.2,276.6,960.5,-0.5,-0.5,-1.7,25,-38.1151,276.939,961.19,-0.466298,-0.516805,-1.74816,
2026_07_06_17_04_34.696,3.869,30,0,0.758,0,0,0,0, ,0,0,0,0,0, ,-37.5,277.5,961.4,-0.5,-0.5,-1.7,25,-38.099,276.946,961.175,-0.468352,-0.515781,-1.74522,
2026_07_06_17_04_34.714,3.869,30,0,0.76,0,0,0,0, ,0,0,0,0,0, ,-37.9,275.5,960,-0.5,-0.5,-1.8,25,-38.0746,276.919,961.146,-0.470281,-0.51482,-1.74551,
2026_07_06_17_04_34.736,3.869,30,0,0.758,0,0,0,0, ,0,0,0,0,0, ,-37.2,278.1,960.2,-0.5,-0.5,-1.7,25,-38.0427,276.911,961.082,-0.472092,-0.513917,-1.74579,
2026_07_06_17_04_34.753,3.869,30,0,0.758,0,0,0,0, ,0,0,0,0,0, ,-36.8,278,961.6,-0.5,-0.5,-1.6,25,-37.9791,276.981,961.071,-0.473792,-0.513068,-1.73995,
2026_07_06_17_04_34.776,3.869,30,0,0.759,0,0,0,0, ,0,0,0,0,0, ,-37.4,277.3,961.1,-0.4,-0.5,-1.8,25,-37.9256,277.022,961.088,-0.472342,-0.512272,-1.73751,
2026_07_06_17_04_34.793,3.869,30,0,0.758,0,0,0,0, ,0,0,0,0,0, ,-38.3,278,960.5,-0.5,-0.6,-1.8,25,-37.921,277.06,961.071,-0.470981,-0.514571,-1.74132,
2026_07_06_17_04_34.817,3.869,30,0,0.759,0,0,0,0, ,0,0,0,0,0, ,-37.7,278.1,961.4,-0.4,-0.6,-1.7,25,-37.9258,277.12,961.063,-0.469702,-0.519777,-1.74185,
2026_07_06_17_04_34.833,3.869,30,0,0.76,0,0,0,0, ,0,0,0,0,0, ,-39.3,275.7,961.6,-0.4,-0.6,-1.8,25,-37.9608,277.107,961.09,-0.465455,-0.524666,-1.74235,
2026_07_06_17_04_34.857,3.869,30,0,0.759,0,0,0,0, ,0,0,0,0,0, ,-37.7,276.9,960.2,-0.5,-0.5,-1.7,25,-37.9936,277.058,961.078,-0.464513,-0.526209,-1.74281,
2026_07_06_17_04_34.872,3.869,30,0,0.759,0,0,0,0, ,0,0,0,0,0, ,-36.4,277.5,960.8,-0.5,-0.6,-1.8,25,-37.9361,277.066,961.043,-0.466676,-0.527659,-1.74325,
2026_07_06_17_04_34.894,3.869,30,0,0.759,0,0,0,0, ,0,0,0,0,0, ,-37.5,278.3,960.2,-0.5,-0.5,-1.7,25,-37.876,277.117,961.01,-0.468706,-0.529021,-1.74366,
2026_07_06_17_04_34.912,3.869,29.9,0,0.76,0,0,0,0, ,0,0,0,0,0, ,-36.9,277.3,960.5,-0.5,-0.5,-1.7,25,-37.8348,277.159,960.97,-0.470613,-0.527252,-1.741,
2026_07_06_17_04_34.935,3.869,30,0,0.759,0,0,0,0, ,0,0,0,0,0, ,-38.4,276.6,962.6,-0.5,-0.5,-1.8,25,-37.8236,277.146,961.005,-0.472404,-0.525591,-1.74155,
2026_07_06_17_04_34.952,3.869,30,0,0.759,0,0,0,0, ,0,0,0,0,0, ,-37.8,276.7,962,-0.4,-0.5,-1.7,25,-37.8404,277.116,961.084,-0.471039,-0.524032,-1.74207,
2026_07_06_17_04_34.975,3.869,30.1,0,0.759,0,0,0,0, ,0,0,0,0,0, ,-39.1,276.7,962,-0.4,-0.6,-1.8,25,-37.8776,277.09,961.14,-0.46671,-0.525614,-1.74255,
2026_07_06_17_04_34.991,3.869,30.1,0,0.759,0,0,0,0, ,0,0,0,0,0, ,-37.8,276,960.6,-0.5,-0.5,-1.7,25,-37.9124,277.045,961.15,-0.465692,-0.5271,-1.743,
2026_07_06_17_04_35.013,3.869,29.9,0,0.759,0,0,0,0, ,0,0,0,0,0, ,-38.4,276.9,959.3,-0.4,-0.5,-1.8,25,-37.9239,277.009,961.077,-0.464735,-0.525449,-1.74343,
2026_07_06_17_04_35.030,3.869,30,0,0.76,0,0,0,0, ,0,0,0,0,0, ,-36.8,278.4,960.9,-0.4,-0.5,-1.8,25,-37.9041,277.048,961.017,-0.460791,-0.523898,-1.74688,
2026_07_06_17_04_35.053,3.869,30.1,0,0.759,0,0,0,0, ,0,0,0,0,0, ,-38.6,276.9,961.7,-0.6,-0.5,-1.8,25,-37.8917,277.085,961.034,-0.46318,-0.522442,-1.75011,
2026_07_06_17_04_35.069,3.869,29.9,0,0.757,0,0,0,0, ,0,0,0,0,0, ,-38.8,276.6,960.3,-0.9,-0.6,-1.9,25,-37.941,277.064,961.032,-0.480658,-0.524121,-1.7562,
2026_07_06_17_04_35.092,3.869,30,0,0.759,0,0,0,0, ,0,0,0,0,0, ,-20,267,968.3,-10.4,-2.5,-7.9,25,-37.4205,276.744,961.231,-0.795665,-0.586636,-1.94778,
2026_07_06_17_04_35.110,3.869,30,0,0.759,0,0,0,0, ,0,0,0,0,0, ,-22.3,260.6,965.9,-20.8,-2.4,-7.5,25,-36.429,275.955,961.589,-1.6978,-0.700184,-2.2983,
2026_07_06_17_04_35.134,3.869,30,0,0.758,0,0,0,0, ,0,0,0,0,0, ,-44.7,257,964.9,-1.1,1.6,6.3,25,-36.2505,274.909,961.821,-2.26161,-0.681892,-2.19481,
2026_07_06_17_04_35.149,3.869,29.9,0,0.759,0,0,0,0, ,0,0,0,0,0, ,-53.5,267.8,961.1,7.9,2.1,8.1,25,-37.0335,274.147,961.893,-1.91661,-0.527605,-1.62232,
2026_07_06_17_04_35.172,3.869,30,0,0.759,0,0,0,0, ,0,0,0,0,0, ,-114.1,269.7,950.8,28.9,4.1,13.6,25,-39.8834,273.818,961.531,-0.678562,-0.306548,-0.862284,
2026_07_06_17_04_35.189,3.869,30.1,0,0.759,0,0,0,0, ,0,0,0,0,0, ,-57.3,329.7,1050.5,31.9,-6.7,8.9,25,-42.6753,275.395,963.915,1.21529,-0.367086,-0.124192,
2026_07_06_17_04_35.211,3.869,30,0,0.759,0,0,0,0, ,0,0,0,0,0, ,-71.6,379.3,1256.2,15.5,-44.5,8.9,25,-44.0022,280.216,975.458,2.58545,-1.90472,0.42572,
2026_07_06_17_04_35.228,3.869,30.1,0,0.759,0,0,0,0, ,0,0,0,0,0, ,-35,309.9,1314.3,-31.1,-107.7,12.9,25,-44.5688,284.139,994.336,1.95259,-6.42599,1.064,
2026_07_06_17_04_35.251,3.869,30,0,0.759,0,0,0,0, ,0,0,0,0,0, ,-4.1,334.7,1316.1,-3.1,-169.5,0.8,25,-43.0442,286.465,1013.89,0.791569,-14.4803,1.41658,
2026_07_06_17_04_35.269,3.869,30,0,0.758,0,0,0,0, ,0,0,0,0,0, ,47.9,449.9,1188.8,-35,-232.7,5.8,25,-39.0867,292.914,1028.43,-0.417526,-25.8525,1.53135,
2026_07_06_17_04_35.292,3.869,30.1,0,0.759,0,0,0,0, ,0,0,0,0,0, ,200.5,396.1,1035.7,-74.5,-250.1,19,25,-29.1364,300.841,1033.53,-3.72841,-38.9874,2.19366,
2026_07_06_17_04_35.308,3.869,30,0,0.759,0,0,0,0, ,0,0,0,0,0, ,293,265.8,927.3,-80.4,-250.1,32.9,25,-12.3246,302.676,1030.36,-8.22082,-51.8521,3.64131,
2026_07_06_17_04_35.331,3.869,30,0,0.759,0,0,0,0, ,0,0,0,0,0, ,485.9,234.9,896.4,-69.8,-250.1,50.2,25,12.1586,299.487,1023.14,-12.2963,-63.9328,5.95137,
2026_07_06_17_04_35.347,3.869,30,0,0.759,0,0,0,0, ,0,0,0,0,0, ,619.8,193.4,812.5,-87.6,-250.1,61.6,25,45.1069,294.287,1012.86,-16.3427,-75.2774,8.99512,
2026_07_06_17_04_35.369,3.869,30,0,0.759,0,0,0,0, ,0,0,0,0,0, ,648.9,201.1,684.9,-88.6,-250.1,72.4,25,81.0139,288.374,996.765,-20.7155,-85.9306,12.5298,
2026_07_06_17_04_35.393,3.869,30,0,0.759,0,0,0,0, ,0,0,0,0,0, ,621.2,134,573.4,-60.5,-250.1,83.8,25,114.776,281.011,974.363,-23.996,-95.9347,16.5255,
2026_07_06_17_04_35.418,3.869,30,0,0.759,0,0,0,0, ,0,0,0,0,0, ,548.3,115.8,329.9,-45.7,-218,95.5,25,143.415,271.498,942.51,-25.7695,-104.351,20.9815,
2026_07_06_17_04_35.427,3.869,30,0,0.758,0,0,0,0, ,0,0,0,0,0, ,574.7,55.7,481.4,23.6,-133.4,91.3,25,168.892,260.179,909.795,-24.8726,-108.699,25.3945,
2026_07_06_17_04_35.451,3.869,30,0,0.759,0,0,0,0, ,0,0,0,0,0, ,803.8,52.8,696.6,-2.3,-83.1,40.1,25,200.601,247.63,890.247,-22.7079,-108.672,27.8506,
2026_07_06_17_04_35.465,3.869,30.1,0,0.758,0,0,0,0, ,0,0,0,0,0, ,920,-343.3,809.3,-80.7,-60.8,6.7,25,240.899,223.689,881.88,-23.853,-106.434,27.5794,
2026_07_06_17_04_35.489,3.869,30,0,0.758,0,0,0,0, ,0,0,0,0,0, ,791,128.7,463,-79.4,-9.8,-0.4,25,278.351,203.52,866.906,-27.2775,-102.099,26.0907,
2026_07_06_17_04_35.505,3.869,30,0,0.758,0,0,0,0, ,0,0,0,0,0, ,664.3,-91.5,451,-54.5,37.7,-8.5,25,305.73,192.251,841.927,-29.6951,-95.0274,24.2297,
2026_07_06_17_04_35.530,3.869,30,0,0.76,0,0,0,0, ,0,0,0,0,0, ,711.6,388.4,433.2,-34,55.1,-20.9,25,329.022,189.582,817.563,-30.582,-86.4092,21.8574,
2026_07_06_17_04_35.545,3.869,30,0,0.761,0,0,0,0, ,0,0,0,0,0, ,750.1,100.5,399.5,37.5,64.1,-11.2,25,353.508,192.925,793.114,-28.6118,-77.5117,19.5474,
2026_07_06_17_04_35.570,3.869,30,0,0.76,0,0,0,0, ,0,0,0,0,0, ,760.4,-63.4,608.6,-7.7,41.9,-14.4,25,377.989,182.299,775.499,-25.9603,-69.5587,17.5762,
2026_07_06_17_04_35.585,3.869,30.1,0,0.76,0,0,0,0, ,0,0,0,0,0, ,797.2,-179.3,744.3,20.4,-2,-9,25,402.414,163.796,769.463,-23.9914,-64.1042,15.7922,
2026_07_06_17_04_35.608,3.869,30.1,0,0.76,0,0,0,0, ,0,0,0,0,0, ,833.2,-38.4,576,-48.7,-39.8,11.7,25,427.568,147.181,762.802,-23.3917,-61.4715,14.9121,
2026_07_06_17_04_35.625,3.869,30.1,0,0.759,0,0,0,0, ,0,0,0,0,0, ,729.7,-173,366.4,-34.2,-46.5,28.8,25,449.133,131.771,745.033,-24.4921,-60.355,15.2374,
2026_07_06_17_04_35.648,3.869,30.1,0,0.76,0,0,0,0, ,0,0,0,0,0, ,714.8,-72.5,501.8,39.7,-41.5,30.7,25,465.776,116.262,726.085,-22.832,-59.3584,16.1218,
2026_07_06_17_04_35.664,3.869,30,0,0.758,0,0,0,0, ,0,0,0,0,0, ,792.8,34.1,621,14.8,-59.7,13.5,25,483.327,108.007,716.05,-19.7802,-58.8247,16.4861,
2026_07_06_17_04_35.689,3.869,30,0,0.76,0,0,0,0, ,0,0,0,0,0, ,812.7,-28,538.4,-12.1,-74.4,-1.1,25,502.792,101.611,707.741,-18.4925,-59.3259,15.8593,
2026_07_06_17_04_35.704,3.869,30,0,0.759,0,0,0,0, ,0,0,0,0,0, ,784.4,-104.1,487.9,-10.1,-72.9,-4.3,25,520.815,91.3942,695.883,-18.0421,-60.1988,14.7283,
2026_07_06_17_04_35.729,3.869,30,0,0.759,0,0,0,0, ,0,0,0,0,0, ,703.4,-183.7,538.5,-9.6,-56.3,-3.2,25,534.409,77.056,684.751,-17.5429,-60.467,13.6023,
2026_07_06_17_04_35.743,3.869,30.1,0,0.76,0,0,0,0, ,0,0,0,0,0, ,815.3,15,559,-68.6,-61.1,-35.3,25,548.116,67.2203,676.463,-18.8565,-60.3593,11.6004,
2026_07_06_17_04_35.768,3.869,30.1,0,0.759,0,0,0,0, ,0,0,0,0,0, ,768.7,62.9,635.9,-98.2,-52.7,-58.7,25,562.978,65.4976,671.648,-22.7896,-60.1485,8.0294,
2026_07_06_17_04_35.783,3.869,30,0,0.759,0,0,0,0, ,0,0,0,0,0, ,830,-485.9,-5.6,-63.8,-57.9,-54.9,25,577.382,48.618,649.924,-26.3368,-59.853,4.07886,
2026_07_06_17_04_35.807,3.869,30,0,0.759,0,0,0,0, ,0,0,0,0,0, ,1028.6,2.6,239.8,-67.4,-123.6,18.6,25,598.827,30.9298,617.455,-28.7294,-61.7358,2.72429,
2026_07_06_17_04_35.823,3.869,30,0,0.759,0,0,0,0, ,0,0,0,0,0, ,755.4,129.5,315.9,37,-184.3,50.6,25,616.692,33.07,596.761,-27.905,-67.3551,4.66671,
2026_07_06_17_04_35.848,3.869,30.1,0,0.759,0,0,0,0, ,0,0,0,0,0, ,901.6,-62.2,228,18.1,-225.4,83,25,629.599,33.1053,576.967,-24.5257,-75.7337,8.45296,
2026_07_06_17_04_35.862,3.869,30,0,0.758,0,0,0,0, ,0,0,0,0,0, ,1030.2,-12.6,192.5,65,-234.9,76.1,25,650.093,28.8089,554.621,-20.4992,-85.1435,12.7854,
2026_07_06_17_04_35.887,3.869,30,0,0.758,0,0,0,0, ,0,0,0,0,0, ,1022.2,-149.7,102.9,59.6,-193,54.5,25,673.012,22.1083,529.824,-15.4536,-92.9926,15.9855,
2026_07_06_17_04_35.902,3.869,30,0,0.759,0,0,0,0, ,0,0,0,0,0, ,1020.6,-176.3,91.4,39.5,-139.5,20.6,25,694.241,10.8282,503.458,-11.4925,-97.4567,17.2996,
2026_07_06_17_04_35.926,3.869,30,0,0.76,0,0,0,0, ,0,0,0,0,0, ,1089.9,-135.1,-55.1,21.5,-114.1,-23,25,716.24,0.680424,473.884,-8.93354,-99.2448,16.1723,
2026_07_06_17_04_35.941,3.869,30,0,0.76,0,0,0,0, ,0,0,0,0,0, ,1110.4,-53.9,-177.2,32.3,-125.1,-28.9,25,739.635,-5.11963,437.929,-6.74994,-100.485,13.6055,
2026_07_06_17_04_35.966,3.869,30,0,0.761,0,0,0,0, ,0,0,0,0,0, ,992.3,-137.8,57.8,20.1,-147.3,-5.6,25,758.63,-10.6485,407.605,-4.74205,-102.662,11.7252,
2026_07_06_17_04_35.981,3.869,30,0,0.76,0,0,0,0, ,0,0,0,0,0, ,870.7,-135.1,186.6,-8.9,-147.6,-7.1,25,769.164,-18.3145,390.213,-4.11183,-105.391,10.6238,
2026_07_06_17_04_36.006,3.869,30.1,0,0.759,0,0,0,0, ,0,0,0,0,0, ,933.5,-108.3,11.1,-46.6,-127.6,-15.6,25,777.265,-24.6146,372.458,-5.55228,-107.354,9.28474,
2026_07_06_17_04_36.021,3.869,30,0,0.76,0,0,0,0, ,0,0,0,0,0, ,1027.5,-110.7,-300.7,-49.2,-103.4,-9.1,25,789.65,-29.7873,340.938,-8.13284,-107.85,7.96637,
2026_07_06_17_04_36.048,3.869,30,0,0.759,0,0,0,0, ,0,0,0,0,0, ,811,19,-345.4,4.4,-147.7,-34,25,797.547,-30.7661,300.476,-9.00225,-108.929,6.16772,
2026_07_06_17_04_36.060,3.869,30,0,0.759,0,0,0,0, ,0,0,0,0,0, ,753.5,-31.1,-382.3,56.8,-250.1,-83.1,25,796.615,-29.26,259.994,-6.58899,-114.411,2.22398,
2026_07_06_17_04_36.085,3.869,30,0,0.758,0,0,0,0, ,0,0,0,0,0, ,843.7,20.9,-448.8,140.3,-250.1,-74.1,25,796.736,-27.7877,218.828,-0.182081,-122.68,-2.70123,
2026_07_06_17_04_36.100,3.869,30,0,0.76,0,0,0,0, ,0,0,0,0,0, ,863.4,-98.5,-523.8,52.3,-250.1,-9.8,25,800.198,-28.4588,175.859,5.6973,-130.444,-5.09295,
2026_07_06_17_04_36.125,3.869,30,0,0.759,0,0,0,0, ,0,0,0,0,0, ,974.1,-216.3,-378.7,-36.7,-250.1,14.5,25,807.422,-36.3161,137.644,5.82543,-137.736,-4.6394,
2026_07_06_17_04_36.145,3.869,30.1,0,0.759,0,0,0,0, ,0,0,0,0,0, ,834.2,-143.7,-579.5,-46.3,-114.9,9.1,25,813.317,-45.0719,100.062,2.94154,-140.464,-3.63762,
2026_07_06_17_04_36.170,3.869,30.1,0,0.759,0,0,0,0, ,0,0,0,0,0, ,779.5,-64.3,-755,-51.3,-60.9,11.6,25,812.923,-48.6628,53.3036,-0.211464,-137.261,-2.78525,
2026_07_06_17_04_36.179,3.869,30,0,0.76,0,0,0,0, ,0,0,0,0,0, ,683.7,-40.1,-759.1,-31.3,-57.3,-1.5,25,807.967,-48.8784,3.92265,-2.7153,-132.498,-2.30779,
2026_07_06_17_04_36.204,3.869,30,0,0.76,0,0,0,0, ,0,0,0,0,0, ,652.7,-67.6,-846.3,-32.7,-106,3.5,25,799.45,-49.1813,-45.2309,-4.49983,-129.399,-2.10622,
2026_07_06_17_04_36.218,3.869,30,0,0.759,0,0,0,0, ,0,0,0,0,0, ,630.1,-20.2,-828.4,-13.4,-149.4,-1.4,25,789.819,-48.8595,-93.5007,-5.63023,-129.296,-1.91389,
2026_07_06_17_04_36.245,3.869,30,0,0.76,0,0,0,0, ,0,0,0,0,0, ,654.7,-3.6,-813.2,17,-141.3,-23.1,25,780.835,-46.6073,-137.82,-5.17745,-130.274,-2.54375,
2026_07_06_17_04_36.257,3.869,30,0,0.76,0,0,0,0, ,0,0,0,0,0, ,750.4,-54.4,-722.6,9.8,-118.4,-13.3,25,776.065,-45.5343,-176.216,-4.04539,-130.248,-3.4978,
2026_07_06_17_04_36.284,3.869,30.1,0,0.759,0,0,0,0, ,0,0,0,0,0, ,704.4,-72.7,-818.8,-10.9,-58.9,27.8,25,773.099,-46.6322,-212.442,-3.83239,-127.713,-2.84286,
2026_07_06_17_04_36.299,3.869,30.1,0,0.759,0,0,0,0, ,0,0,0,0,0, ,509.6,-22.7,-860.5,-10.9,-77.7,12.7,25,762.978,-46.6972,-250.663,-4.26307,-124.093,-1.43563,
2026_07_06_17_04_36.322,3.869,30.1,0,0.759,0,0,0,0, ,0,0,0,0,0, ,506.4,-33,-787.2,-15.9,-99.9,13.8,25,747.44,-45.5487,-285.591,-4.81985,-121.942,-0.540729,
2026_07_06_17_04_36.338,3.869,30,0,0.759,0,0,0,0, ,0,0,0,0,0, ,459.8,-22.4,-840.2,-15.4,-106.6,8.2,25,731.332,-44.4611,-317.773,-5.47982,-120.803,0.162534,
2026_07_06_17_04_36.363,3.869,30.2,0,0.759,0,0,0,0, ,0,0,0,0,0, ,453,-37.5,-918.3,-15.6,-115.3,5.6,25,714.578,-43.5768,-351.988,-6.09042,-120.203,0.573098,
2026_07_06_17_04_36.377,3.869,30,0,0.759,0,0,0,0, ,0,0,0,0,0, ,462.6,-49.9,-943.6,0.1,-108.5,7.4,25,698.931,-43.5843,-387.268,-6.19155,-119.697,0.934269,
2026_07_06_17_04_36.402,3.869,30.1,0,0.757,0,0,0,0, ,0,0,0,0,0, ,444.9,-20.5,-984.3,10,-96.9,14,25,683.99,-43.0734,-422.41,-5.50652,-118.661,1.52937,
2026_07_06_17_04_36.416,3.869,30,0,0.758,0,0,0,0, ,0,0,0,0,0, ,432.6,-51.2,-880.7,-1.9,-83.3,20.6,25,669.046,-42.6332,-453.494,-4.92417,-116.921,2.49039,
2026_07_06_17_04_36.441,3.869,30,0,0.759,0,0,0,0, ,0,0,0,0,0, ,306.8,-32.8,-916.5,-10.2,-81.2,25.4,25,650.804,-42.5946,-480.617,-4.99277,-114.808,3.7402,
2026_07_06_17_04_36.456,3.869,29.9,0,0.759,0,0,0,0, ,0,0,0,0,0, ,261.7,-24.7,-979.3,-11.7,-101.6,21.5,25,628.467,-41.751,-509.092,-5.35579,-113.381,4.94126,
2026_07_06_17_04_36.482,3.869,29.9,0,0.759,0,0,0,0, ,0,0,0,0,0, ,301.5,-50.4,-984.1,-5.9,-115.5,18.1,25,607.33,-41.495,-537.892,-5.56567,-113.087,5.84672,
2026_07_06_17_04_36.496,3.869,30,0,0.759,0,0,0,0, ,0,0,0,0,0, ,287.1,-56,-945.6,0.3,-98,18.4,25,588.255,-42.2082,-563.91,-5.39714,-112.701,6.60254,
2026_07_06_17_04_36.521,3.869,30,0,0.758,0,0,0,0, ,0,0,0,0,0, ,203.8,-41.2,-932.3,-0.5,-74.4,22.7,25,567.365,-42.5977,-586.764,-5.07435,-111.086,7.45246,
2026_07_06_17_04_36.535,3.869,30.1,0,0.758,0,0,0,0, ,0,0,0,0,0, ,160.7,-32.8,-976.6,-6.9,-75.3,22.7,25,543.897,-42.2566,-609.17,-4.9906,-108.878,8.38161,
2026_07_06_17_04_36.561,3.869,30,0,0.76,0,0,0,0, ,0,0,0,0,0, ,170.1,-43.2,-958.7,-5.3,-80,21.3,25,520.833,-41.9972,-631.014,-5.0582,-106.975,9.21148,
2026_07_06_17_04_36.576,3.869,30,0,0.759,0,0,0,0, ,0,0,0,0,0, ,167.4,-48.3,-974.1,-5.9,-72.4,24.5,25,499.378,-42.2259,-651.452,-5.09122,-105.1,10.0456,
2026_07_06_17_04_36.602,3.869,30,0,0.758,0,0,0,0, ,0,0,0,0,0, ,132.3,-41.9,-984.1,-5.7,-68.4,26.2,25,478.078,-42.4011,-671.418,-5.13441,-102.985,10.9782,
2026_07_06_17_04_36.615,3.869,30.1,0,0.759,0,0,0,0, ,0,0,0,0,0, ,120.8,-41.9,-979.1,-9.4,-69.1,24.9,25,456.657,-42.3705,-690.32,-5.28161,-100.899,11.8662,
2026_07_06_17_04_36.640,3.869,30,0,0.759,0,0,0,0, ,0,0,0,0,0, ,141.9,-50.1,-978.1,-7.8,-58.2,27.4,25,436.834,-42.5917,-707.887,-5.48382,-98.629,12.7366,
2026_07_06_17_04_36.654,3.869,29.9,0,0.76,0,0,0,0, ,0,0,0,0,0, ,76.2,15.5,-1096.1,7.6,-29.6,33.1,25,416.859,-41.0505,-727.948,-5.15575,-95.2939,13.8038,
2026_07_06_17_04_36.680,3.869,29.9,0,0.758,0,0,0,0, ,0,0,0,0,0, ,41.6,-48.3,-961.6,-9.5,-17.5,24.1,25,395.046,-39.5484,-746.284,-4.89946,-90.922,14.7055,
2026_07_06_17_04_36.693,3.869,30,0,0.759,0,0,0,0, ,0,0,0,0,0, ,-4.1,-38.8,-1016.6,-7.5,-19.8,14.3,25,372.116,-39.7922,-761.081,-5.11887,-86.5179,14.9794,
2026_07_06_17_04_36.720,3.869,30.1,0,0.757,0,0,0,0, ,0,0,0,0,0, ,30.3,-45.7,-1025,-4.3,-15.2,9.3,25,350.238,-39.942,-776.908,-5.16647,-82.3122,14.7856,
2026_07_06_17_04_36.733,3.869,30,0,0.757,0,0,0,0, ,0,0,0,0,0, ,9.7,-32.5,-994.3,-3.2,-8.8,12.7,25,330.114,-39.8907,-791.09,-5.08015,-78.0275,14.5549,
2026_07_06_17_04_36.760,3.869,30,0,0.758,0,0,0,0, ,0,0,0,0,0, ,-9.6,-31.3,-1002.3,-4.5,-8.8,10.3,25,310.001,-39.4037,-803.717,-5.00519,-73.809,14.3688,
2026_07_06_17_04_36.773,3.869,30.1,0,0.76,0,0,0,0, ,0,0,0,0,0, ,0,-31.7,-987.5,-3.7,-1.8,4.7,25,290.818,-38.9221,-815.367,-4.95003,-69.6342,13.9502,
2026_07_06_17_04_36.799,3.869,30,0,0.757,0,0,0,0, ,0,0,0,0,0, ,5.7,-32.9,-997.5,-3.5,13.8,-0.7,25,273.27,-38.5186,-826.161,-4.86776,-65.0252,13.222,
2026_07_06_17_04_36.813,3.869,30,0,0.759,0,0,0,0, ,0,0,0,0,0, ,38.4,-33,-1004.5,-2.3,17.6,-0.8,25,257.961,-38.1792,-836.816,-4.74785,-60.106,12.3706,
2026_07_06_17_04_36.840,3.869,30,0,0.759,0,0,0,0, ,0,0,0,0,0, ,41.2,-29.4,-1022.4,-0.5,16.1,2.3,25,244.667,-37.7539,-847.579,-4.54384,-55.4165,11.6624,
2026_07_06_17_04_36.853,3.869,30,0,0.759,0,0,0,0, ,0,0,0,0,0, ,43.7,-32.9,-1013.9,2.2,22.2,1.1,25,232.344,-37.3515,-857.973,-4.21515,-50.8726,11.0554,
2026_07_06_17_04_36.878,3.869,30.1,0,0.758,0,0,0,0, ,0,0,0,0,0, ,38.8,-37.4,-1036.2,8.3,45.2,-5.9,25,220.699,-37.2174,-868.155,-3.63837,-45.719,10.2354,
2026_07_06_17_04_36.892,3.869,30.1,0,0.757,0,0,0,0, ,0,0,0,0,0, ,82.3,-54.8,-1072.2,20.5,96.9,-14.5,25,210.94,-37.7586,-879.492,-2.53916,-38.6034,8.99014,
2026_07_06_17_04_36.918,3.869,29.9,0,0.758,0,0,0,0, ,0,0,0,0,0, ,161.7,-18.9,-1090,40.9,163.1,-24.5,25,205.521,-37.7033,-891.777,-0.513647,-28.3291,7.25402,
2026_07_06_17_04_36.931,3.869,30,0,0.759,0,0,0,0, ,0,0,0,0,0, ,233.7,-73.8,-968.2,34.9,198.7,-34.3,25,205.044,-38.2302,-900.145,1.82718,-15.5792,5.02042,
2026_07_06_17_04_36.958,3.869,30,0,0.76,0,0,0,0, ,0,0,0,0,0, ,272.5,-69.3,-983.7,31.3,206.1,-36.1,25,207.972,-40.2606,-904.765,3.73287,-2.29611,2.56949,
2026_07_06_17_04_36.974,3.869,30,0,0.759,0,0,0,0, ,0,0,0,0,0, ,333.6,-77.3,-995.7,31.3,206.3,-33.2,25,213.766,-42.2739,-909.94,5.41274,10.4091,0.301426,
2026_07_06_17_04_37.000,3.869,30,0,0.759,0,0,0,0, ,0,0,0,0,0, ,433.8,-99.7,-1016.8,41.6,243,-42.3,25,224.122,-45.0908,-915.809,7.30408,23.4644,-2.01733,
2026_07_06_17_04_37.011,3.869,29.9,0,0.759,0,0,0,0, ,0,0,0,0,0, ,593,-117.6,-941.5,55.6,250.1,-53.3,25,241.749,-48.964,-919.669,9.82055,37.0587,-4.80721,
2026_07_06_17_04_37.037,3.869,30,0,0.76,0,0,0,0, ,0,0,0,0,0, ,617.9,-105.9,-833.2,57.6,250.1,-46.4,25,263.912,-52.79,-917.7,12.6712,50.0409,-7.55201,
2026_07_06_17_04_37.051,3.869,30,0,0.759,0,0,0,0, ,0,0,0,0,0, ,624.1,-107.4,-721.8,42.7,250.1,-29.9,25,285.672,-56.0721,-909.156,14.955,62.232,-9.41657,
2026_07_06_17_04_37.076,3.869,30,0,0.758,0,0,0,0, ,0,0,0,0,0, ,633.6,-89.9,-659.9,25.8,225.3,-22.3,25,306.585,-58.6667,-895.853,16.1308,72.9246,-10.4332,
2026_07_06_17_04_37.089,3.869,30,0,0.759,0,0,0,0, ,0,0,0,0,0, ,709.8,-98.1,-637.6,14.8,171.2,-19.9,25,328.834,-60.8198,-880.795,16.3849,80.5616,-11.0832,
2026_07_06_17_04_37.117,3.869,29.9,0,0.76,0,0,0,0, ,0,0,0,0,0, ,757.4,-109.6,-618.7,12.7,152.9,-18.3,25,353.499,-63.442,-865.4,16.2243,85.5273,-11.5717,
2026_07_06_17_04_37.129,3.869,30.1,0,0.759,0,0,0,0, ,0,0,0,0,0, ,803.5,-110.5,-565.7,14.6,141.4,-18.7,25,379.517,-66.2821,-848.752,16.0674,89.2824,-11.9939,
2026_07_06_17_04_37.157,3.869,29.9,0,0.758,0,0,0,0, ,0,0,0,0,0, ,824.8,-102.9,-496.7,12,139.8,-20.5,25,406.002,-68.7451,-829.401,15.8988,92.4096,-12.4574,
2026_07_06_17_04_37.168,3.869,30,0,0.757,0,0,0,0, ,0,0,0,0,0, ,842.6,-93.1,-441,4.6,136.7,-21.6,25,432.065,-70.5278,-807.43,15.4358,95.203,-12.981,
2026_07_06_17_04_37.195,3.869,30,0,0.759,0,0,0,0, ,0,0,0,0,0, ,899.7,-92.8,-410.5,0.8,140.8,-22.8,25,458.822,-71.8942,-784.171,14.6597,97.8566,-13.5428,
2026_07_06_17_04_37.209,3.869,30,0,0.759,0,0,0,0, ,0,0,0,0,0, ,934.8,-100,-407.1,6.1,159.2,-24.2,25,486.757,-73.3875,-761.297,13.9766,101.034,-14.1496,
2026_07_06_17_04_37.234,3.869,29.9,0,0.76,0,0,0,0, ,0,0,0,0,0, ,912.5,-84.9,-364.6,8,161.9,-22.5,25,513.38,-74.5491,-738.418,13.5545,104.661,-14.7102,
2026_07_06_17_04_37.249,3.869,30,0,0.76,0,0,0,0, ,0,0,0,0,0, ,880.9,-73.3,-311.8,9,159.1,-24.2,25,536.739,-74.8264,-714.03,13.2465,108.064,-15.2367,
2026_07_06_17_04_37.275,3.869,30,0,0.759,0,0,0,0, ,0,0,0,0,0, ,913.2,-63.9,-222.6,14.9,174.2,-36.6,25,558.695,-74.447,-686.801,13.1675,111.634,-16.1607,
2026_07_06_17_04_37.289,3.869,30,0,0.758,0,0,0,0, ,0,0,0,0,0, ,949.7,-59.2,-144.5,11.8,182.6,-40,25,581.41,-73.6611,-656.134,13.1786,115.702,-17.5098,
2026_07_06_17_04_37.316,3.869,30,0,0.759,0,0,0,0, ,0,0,0,0,0, ,902.2,-39.9,-109,7.7,179.5,-39.7,25,602.406,-72.1918,-623.875,12.9697,119.684,-18.8712,
2026_07_06_17_04_37.327,3.869,30.1,0,0.76,0,0,0,0, ,0,0,0,0,0, ,924.8,-37.3,-66,7.7,180.4,-42.3,25,621.363,-70.1448,-591.19,12.6485,123.357,-20.2197,
2026_07_06_17_04_37.354,3.869,30,0,0.76,0,0,0,0, ,0,0,0,0,0, ,948.8,-20.9,-1.3,11.2,161,-37,25,640.585,-67.6437,-557.215,12.4536,126.242,-21.4037,
2026_07_06_17_04_37.367,3.869,30,0,0.76,0,0,0,0, ,0,0,0,0,0, ,925.6,-6.5,36.3,17.3,127.6,-27.9,25,658.66,-64.3565,-522.193,12.5631,127.342,-22.0768,
2026_07_06_17_04_37.394,3.869,30.1,0,0.758,0,0,0,0, ,0,0,0,0,0, ,924.4,6.5,96.4,24.6,104.5,-28.3,25,674.89,-60.4347,-486.329,13.0742,126.654,-22.4439,
2026_07_06_17_04_37.411,3.869,30,0,0.759,0,0,0,0, ,0,0,0,0,0, ,937.5,17,161.9,26.5,81.8,-33.2,25,690.494,-56.036,-448.823,13.8344,124.612,-22.95,
2026_07_06_17_04_37.438,3.869,30.1,0,0.76,0,0,0,0, ,0,0,0,0,0, ,941.7,31.9,197.1,22.1,57.7,-27.6,25,705.673,-51.1314,-410.534,14.4722,121.269,-23.404,
2026_07_06_17_04_37.446,3.869,30,0,0.759,0,0,0,0, ,0,0,0,0,0, ,947.8,45,224.1,15.9,36.1,-21.2,25,720.242,-45.6725,-372.684,14.7481,116.737,-23.4647,
2026_07_06_17_04_37.473,3.869,30.1,0,0.76,0,0,0,0, ,0,0,0,0,0, ,996.7,37.9,237.7,12.2,21.3,-13.6,25,735.599,-40.3635,-335.903,14.7055,111.373,-23.0951,
2026_07_06_17_04_37.486,3.869,30,0,0.759,0,0,0,0, ,0,0,0,0,0, ,984,48.5,247.9,10.1,9.3,-4.5,25,751.123,-35.2713,-300.638,14.4889,105.518,-22.2393,
2026_07_06_17_04_37.515,3.869,30,0,0.759,0,0,0,0, ,0,0,0,0,0, ,946.4,60.5,245.4,10.7,0.2,-4,25,764.168,-29.8009,-267.288,14.2397,99.3776,-21.143,
2026_07_06_17_04_37.525,3.869,30,0,0.759,0,0,0,0, ,0,0,0,0,0, ,920.6,68.6,266.2,10.3,0.5,-13.3,25,774.487,-24.0514,-235.412,14.0118,93.3431,-20.3817,
2026_07_06_17_04_37.552,3.869,29.9,0,0.76,0,0,0,0, ,0,0,0,0,0, ,947.2,64.6,262.3,10.3,13.1,-21.3,25,784.201,-18.5273,-204.964,13.7856,88.0694,-20.194,
2026_07_06_17_04_37.565,3.869,30,0,0.759,0,0,0,0, ,0,0,0,0,0, ,1019.2,50.6,247.3,11.2,19.4,-19.6,25,796.328,-13.8883,-176.947,13.6007,83.6929,-20.2096,
2026_07_06_17_04_37.590,3.869,30.1,0,0.759,0,0,0,0, ,0,0,0,0,0, ,1033.5,56.5,255.9,7,12.7,-9.1,25,810.345,-9.77879,-150.833,13.3264,79.5709,-19.8525,
2026_07_06_17_04_37.605,3.869,30,0,0.76,0,0,0,0, ,0,0,0,0,0, ,993.4,75.4,252.1,3.6,1.4,-3.5,25,822.721,-5.16407,-126.163,12.8373,75.1517,-19.0266,
2026_07_06_17_04_37.631,3.869,29.9,0,0.76,0,0,0,0, ,0,0,0,0,0, ,990.8,74.8,258,2.6,-2.1,-3.6,25,833.043,-0.272975,-102.933,12.2439,70.5508,-18.0835,
2026_07_06_17_04_37.645,3.869,30,0,0.759,0,0,0,0, ,0,0,0,0,0, ,1000.9,67.8,255.2,2.9,8.6,-2.7,25,842.964,4.0885,-81.024,11.6654,66.4497,-17.1735,
2026_07_06_17_04_37.672,3.869,30,0,0.759,0,0,0,0, ,0,0,0,0,0, ,974.1,64.4,243,1.6,11.6,-1.4,25,851.772,7.86733,-60.9071,11.0916,63.0158,-16.2519,
2026_07_06_17_04_37.685,3.869,29.9,0,0.759,0,0,0,0, ,0,0,0,0,0, ,951.1,62.6,234.9,1.2,5.1,-1.7,25,858.525,11.2574,-42.6346,10.501,59.6846,-15.356,
2026_07_06_17_04_37.711,3.869,29.9,0,0.759,0,0,0,0, ,0,0,0,0,0, ,942.7,67.6,252.1,0,-0.1,-3.5,25,863.91,14.5385,-25.1982,9.8977,56.2,-14.5787,
2026_07_06_17_04_37.724,3.869,30,0,0.759,0,0,0,0, ,0,0,0,0,0, ,949.9,72.7,275.2,-3.3,-3.2,-4.2,25,868.931,17.9273,-7.59654,9.19402,52.6747,-13.9249,
2026_07_06_17_04_37.752,3.869,30,0,0.759,0,0,0,0, ,0,0,0,0,0, ,974.4,73.2,256.1,-2,-3.9,-2.6,25,874.612,21.2802,9.05442,8.47227,49.2485,-13.2836,
2026_07_06_17_04_37.764,3.869,30,0,0.758,0,0,0,0, ,0,0,0,0,0, ,965.8,74.5,241.6,-1.5,-2,-1.4,25,880.43,24.4837,23.667,7.84935,46.0677,-12.596,
2026_07_06_17_04_37.792,3.869,30.1,0,0.759,0,0,0,0, ,0,0,0,0,0, ,952.6,74.8,227.2,-1.2,-2.7,-1.6,25,885.23,27.5407,36.5085,7.28877,43.1172,-11.9198,
2026_07_06_17_04_37.803,3.869,30,0,0.759,0,0,0,0, ,0,0,0,0,0, ,953.7,73.9,229.8,-0.7,-2.7,-1.9,25,889.369,30.3932,48.208,6.78672,40.3252,-11.3001,
2026_07_06_17_04_37.831,3.869,30,0,0.759,0,0,0,0, ,0,0,0,0,0, ,959.5,80.4,235.4,-1,-0.9,-2.7,25,893.466,33.2424,59.4444,6.32135,37.7582,-10.7516,
2026_07_06_17_04_37.843,3.869,30,0,0.759,0,0,0,0, ,0,0,0,0,0, ,967,81.9,238.6,-2.4,-0.4,-1.8,25,897.719,36.1618,70.2642,5.83255,35.4177,-10.2336,
2026_07_06_17_04_37.872,3.869,30,0,0.759,0,0,0,0, ,0,0,0,0,0, ,972.7,70.5,224.8,-2.6,-0.4,-0.1,25,902.114,38.6016,80.1017,5.32479,33.2351,-9.66786,
2026_07_06_17_04_37.882,3.869,30,0,0.759,0,0,0,0, ,0,0,0,0,0, ,946.6,76.6,233,0.9,1.5,-0.3,25,905.62,40.7313,89.1691,4.94851,31.2433,-9.09091,
2026_07_06_17_04_37.908,3.869,29.9,0,0.76,0,0,0,0, ,0,0,0,0,0, ,946.4,75.5,250.9,0.6,1.5,-1.5,25,908.111,42.8835,98.4791,4.69267,29.4309,-8.59178,
2026_07_06_17_04_37.921,3.869,30,0,0.76,0,0,0,0, ,0,0,0,0,0, ,963,75.6,258,-0.5,0.2,-2.3,25,910.95,44.8741,107.984,4.40975,27.6892,-8.184,
2026_07_06_17_04_37.950,3.869,30,0,0.761,0,0,0,0, ,0,0,0,0,0, ,972.5,69.7,249.5,-2.2,0,-1.3,25,914.412,46.5667,116.866,4.05877,26.008,-7.79497,
2026_07_06_17_04_37.962,3.869,30,0,0.759,0,0,0,0, ,0,0,0,0,0, ,966.6,64.8,237,-2,2.6,-0.3,25,917.772,47.8271,124.568,3.68347,24.5024,-7.36872,
2026_07_06_17_04_37.989,3.869,30,0,0.759,0,0,0,0, ,0,0,0,0,0, ,954.7,66.7,237.5,-0.9,2,-0.6,25,920.384,48.9193,131.434,3.37065,23.1494,-6.94711,
2026_07_06_17_04_38.002,3.869,30.1,0,0.759,0,0,0,0, ,0,0,0,0,0, ,953.1,69.4,244.8,-1,0.6,-1.3,25,922.427,50.0851,138.12,3.10736,21.8179,-6.58166,
2026_07_06_17_04_38.028,3.869,30.1,0,0.759,0,0,0,0, ,0,0,0,0,0, ,954.7,70.5,255.6,-1.2,1.7,-1.8,25,924.345,51.2956,144.95,2.85097,20.5585,-6.27504,
2026_07_06_17_04_38.041,3.869,29.9,0,0.759,0,0,0,0, ,0,0,0,0,0, ,971.4,71.1,246.3,-0.7,3.6,-1.3,25,926.703,52.4841,151.409,2.61935,19.4672,-5.98711,
2026_07_06_17_04_38.071,3.869,30.1,0,0.758,0,0,0,0, ,0,0,0,0,0, ,962.7,68.6,238.4,0.5,3.2,0.1,25,929.162,53.5424,156.951,2.45364,18.4881,-5.65883,
2026_07_06_17_04_38.080,3.869,30,0,0.76,0,0,0,0, ,0,0,0,0,0, ,946.6,68.8,246.5,1.6,1.6,-0.6,25,930.715,54.466,162.161,2.36811,17.5077,-5.32923,
2026_07_06_17_04_38.109,3.869,29.9,0,0.759,0,0,0,0, ,0,0,0,0,0, ,947.2,74.3,264.7,0.6,2.9,-1.8,25,931.701,55.5071,167.855,2.29083,16.578,-5.07761,
2026_07_06_17_04_38.119,3.869,30,0,0.759,0,0,0,0, ,0,0,0,0,0, ,963.3,75.6,263.1,0.3,5.9,-2.6,25,933.136,56.6919,173.708,2.17865,15.8359,-4.90225,
2026_07_06_17_04_38.146,3.869,30,0,0.759,0,0,0,0, ,0,0,0,0,0, ,980.2,69.2,259.5,1.9,10.5,-2.5,25,935.489,57.6491,179.045,2.11292,15.3706,-4.75891,
2026_07_06_17_04_38.160,3.869,30,0,0.759,0,0,0,0, ,0,0,0,0,0, ,945.9,79.1,288.2,1.1,24.9,-5.6,25,937.169,58.6546,184.823,2.07557,15.5125,-4.71571,
2026_07_06_17_04_38.187,3.869,30,0,0.759,0,0,0,0, ,0,0,0,0,0, ,928.7,79.2,298.8,-0.1,21.4,-7.3,25,937.177,59.9036,191.445,1.97956,15.9779,-4.8214,
2026_07_06_17_04_38.200,3.869,30,0,0.76,0,0,0,0, ,0,0,0,0,0, ,946.6,75.8,289.6,-3.1,15.5,-7.5,25,937.206,60.9758,197.707,1.76143,16.1286,-4.97853,
2026_07_06_17_04_38.227,3.869,30,0,0.759,0,0,0,0, ,0,0,0,0,0, ,956.4,64.9,269.1,-3.6,9,-5.2,25,938.077,61.5471,202.682,1.44996,15.8922,-5.0621,
2026_07_06_17_04_38.239,3.869,30,0,0.76,0,0,0,0, ,0,0,0,0,0, ,935.4,67,265.6,-3.5,1,-1.5,25,938.553,61.8154,206.623,1.14527,15.2285,-4.95777,
2026_07_06_17_04_38.267,3.869,29.9,0,0.758,0,0,0,0, ,0,0,0,0,0, ,930.5,71.5,265.8,-2.3,-7,-1.8,25,938.212,62.2684,210.223,0.898762,14.1177,-4.75621,
2026_07_06_17_04_38.278,3.869,30,0,0.759,0,0,0,0, ,0,0,0,0,0, ,948.8,72.2,273.1,-1.6,-6.1,-2,25,938.3,62.8523,213.832,0.725165,12.8582,-4.58216,
2026_07_06_17_04_38.307,3.869,30,0,0.76,0,0,0,0, ,0,0,0,0,0, ,950,72.2,271.4,-1.4,-1.7,-1.9,25,938.976,63.4219,217.392,0.589569,11.837,-4.42176,
2026_07_06_17_04_38.317,3.869,29.9,0,0.759,0,0,0,0, ,0,0,0,0,0, ,949,71.8,259.5,-1.6,0,-2.7,25,939.617,63.9447,220.32,0.462236,11.0639,-4.29246,
2026_07_06_17_04_38.346,3.869,30,0,0.759,0,0,0,0, ,0,0,0,0,0, ,958.9,68.7,257.3,0.1,0.1,-2.8,25,940.491,64.3289,222.641,0.388366,10.3928,-4.19847,
2026_07_06_17_04_38.357,3.869,30,0,0.759,0,0,0,0, ,0,0,0,0,0, ,956.7,77.2,271.7,2.5,0,-2.1,25,941.546,64.8542,225.192,0.443918,9.76249,-4.09192,
2026_07_06_17_04_38.386,3.869,30,0,0.759,0,0,0,0, ,0,0,0,0,0, ,949.2,81.2,286.1,2.3,-1.3,-1.8,25,942.241,65.7284,228.464,0.563117,9.12798,-3.9614,
2026_07_06_17_04_38.396,3.869,30,0,0.76,0,0,0,0, ,0,0,0,0,0, ,951.2,82.1,293.3,0.9,-2.1,-2,25,942.726,66.6987,232.196,0.626302,8.46815,-3.83578,
2026_07_06_17_04_38.425,3.869,30,0,0.759,0,0,0,0, ,0,0,0,0,0, ,950.4,75.9,287.9,-0.6,-1.1,-1.9,25,943.218,67.4483,235.755,0.597278,7.85462,-3.72087,
2026_07_06_17_04_38.439,3.869,30,0,0.758,0,0,0,0, ,0,0,0,0,0, ,945.5,74.7,274.5,-1.2,-0.1,-2.1,25,943.506,67.9267,238.524,0.506037,7.33942,-3.616,
2026_07_06_17_04_38.466,3.869,30,0,0.759,0,0,0,0, ,0,0,0,0,0, ,947.3,75.5,268.5,0,0,-2.2,25,943.682,68.3639,240.534,0.438638,6.88913,-3.52667,
2026_07_06_17_04_38.477,3.869,30.1,0,0.759,0,0,0,0, ,0,0,0,0,0, ,944.3,80.3,276,0.1,0.2,-2.5,25,943.811,68.945,242.466,0.414955,6.47541,-3.45496,
2026_07_06_17_04_38.509,3.869,30,0,0.76,0,0,0,0, ,0,0,0,0,0, ,943.7,83.6,273,0,0.2,-2.5,25,943.823,69.7375,244.418,0.392716,6.09301,-3.39677,
2026_07_06_17_04_38.530,3.869,30.1,0,0.758,0,0,0,0, ,0,0,0,0,0, ,948.1,75.1,284,-0.1,0.1,-2.8,25,943.949,70.3232,246.495,0.365738,5.73085,-3.35127,
2026_07_06_17_04_38.560,3.869,30,0,0.76,0,0,0,0, ,0,0,0,0,0, ,952.7,78.1,284,-0.3,1,-3.3,25,944.343,70.7057,248.781,0.331263,5.41515,-3.33291,
2026_07_06_17_04_38.560,3.869,30,0,0.758,0,0,0,0, ,0,0,0,0,0, ,952.2,76.7,276.8,0.2,1.4,-2.5,25,944.837,71.1136,250.708,0.30803,5.15829,-3.30653,
2026_07_06_17_04_38.589,3.869,30.1,0,0.76,0,0,0,0, ,0,0,0,0,0, ,944.2,76.9,279,0.9,1.2,-2.2,25,945.042,71.4602,252.365,0.322775,4.92317,-3.24824,
2026_07_06_17_04_38.595,3.869,29.9,0,0.759,0,0,0,0, ,0,0,0,0,0, ,949.2,81.9,283.5,1,1.4,-2.8,25,945.143,71.944,254.125,0.360997,4.70238,-3.20264,
2026_07_06_17_04_38.623,3.869,30,0,0.76,0,0,0,0, ,0,0,0,0,0, ,949.7,79.9,288.6,0.3,0.6,-2.6,25,945.405,72.4897,256.07,0.378608,4.47677,-3.17201,
2026_07_06_17_04_38.635,3.869,30,0,0.759,0,0,0,0, ,0,0,0,0,0, ,947.7,78.7,282.9,-0.7,0,-2.6,25,945.606,72.9047,257.879,0.343349,4.22225,-3.13716,
2026_07_06_17_04_38.666,3.869,30.1,0,0.759,0,0,0,0, ,0,0,0,0,0, ,947.6,78.8,274.7,-0.5,0.4,-2.1,25,945.73,73.2609,259.154,0.285864,3.97714,-3.08919,
2026_07_06_17_04_38.674,3.869,30,0,0.758,0,0,0,0, ,0,0,0,0,0, ,945.6,81.2,285.7,0,0.4,-2.4,25,945.783,73.6716,260.436,0.253209,3.75916,-3.03805,
2026_07_06_17_04_38.702,3.869,30,0,0.758,0,0,0,0, ,0,0,0,0,0, ,939.8,81.5,296.1,-0.2,0.3,-2.4,25,945.596,74.1395,262.293,0.231686,3.55142,-2.99917,
2026_07_06_17_04_38.713,3.869,30,0,0.758,0,0,0,0, ,0,0,0,0,0, ,940.6,78.2,288.6,-0.9,-0.2,-2.3,25,945.267,74.4875,264.124,0.184052,3.33805,-2.95961,
2026_07_06_17_04_38.742,3.869,30.1,0,0.759,0,0,0,0, ,0,0,0,0,0, ,956.2,79.2,277.2,-0.9,0,-2.2,25,945.458,74.7442,265.268,0.117992,3.12854,-2.91637,
2026_07_06_17_04_38.754,3.869,30,0,0.759,0,0,0,0, ,0,0,0,0,0, ,957.5,82.8,281,-0.1,0.7,-1.5,25,946.152,75.1254,266.111,0.0803334,2.95922,-2.85139,
2026_07_06_17_04_38.782,3.869,30,0,0.759,0,0,0,0, ,0,0,0,0,0, ,945.6,82.2,286.2,-0.2,0.6,-1.8,25,946.481,75.5748,267.177,0.0662975,2.81851,-2.77818,
2026_07_06_17_04_38.793,3.869,30.1,0,0.76,0,0,0,0, ,0,0,0,0,0, ,944.2,79.7,283,-0.3,0.3,-2,25,946.384,75.9023,268.239,0.0470231,2.67418,-2.72466,
2026_07_06_17_04_38.824,3.869,30,0,0.759,0,0,0,0, ,0,0,0,0,0, ,947.5,80.6,288,0,0.6,-2.4,25,946.352,76.1612,269.291,0.035017,2.53864,-2.69269,
2026_07_06_17_04_38.832,3.869,30,0,0.759,0,0,0,0, ,0,0,0,0,0, ,945.1,82.2,294.1,-0.4,0.4,-2.2,25,946.349,76.4804,270.617,0.0206956,2.41441,-2.66876,
2026_07_06_17_04_38.861,3.869,30,0,0.758,0,0,0,0, ,0,0,0,0,0, ,946,82.2,294,-0.6,-0.6,-1.9,25,946.3,76.829,272.044,-0.0110342,2.26119,-2.63106,
2026_07_06_17_04_38.874,3.869,30.1,0,0.758,0,0,0,0, ,0,0,0,0,0, ,947.7,81.7,286.8,-1.4,-1,-2.1,25,946.334,77.141,273.163,-0.0712993,2.07465,-2.5926,
2026_07_06_17_04_38.903,3.869,30,0,0.76,0,0,0,0, ,0,0,0,0,0, ,955,80.5,281.4,-1.3,-0.5,-1.7,25,946.639,77.3823,273.83,-0.14922,1.90252,-2.5504,
2026_07_06_17_04_38.912,3.869,30,0,0.759,0,0,0,0, ,0,0,0,0,0, ,954.7,75.4,288.5,-1,-0.8,-1.4,25,947.14,77.4169,274.507,-0.210205,1.74698,-2.48943,
2026_07_06_17_04_38.940,3.869,30.1,0,0.759,0,0,0,0, ,0,0,0,0,0, ,942.5,80.9,284.4,-1.1,-1.4,-1.4,25,947.229,77.4615,275.235,-0.26138,1.57349,-2.42305,
2026_07_06_17_04_38.950,3.869,30,0,0.759,0,0,0,0, ,0,0,0,0,0, ,938.7,79.5,285.8,-1.4,-0.8,-2,25,946.825,77.6284,275.836,-0.321624,1.41057,-2.37899,
2026_07_06_17_04_38.981,3.869,30,0,0.763,0,0,0,0, ,0,0,0,0,0, ,944.9,78,287.8,-2,-2.1,-2.6,25,946.518,77.6968,276.504,-0.405619,1.23626,-2.37417,
2026_07_06_17_04_38.991,3.869,30.1,0,0.76,0,0,0,0, ,0,0,0,0,0, ,950,80.2,283.2,-1.9,-1.9,-2.5,25,946.575,77.7823,277.052,-0.49973,1.03905,-2.38489,
2026_07_06_17_04_39.018,3.869,30,0,0.759,0,0,0,0, ,0,0,0,0,0, ,948.1,79.8,280.1,-1.5,-0.9,-2,25,946.726,77.9174,277.333,-0.572871,0.890418,-2.37667,
2026_07_06_17_04_39.031,3.869,30,0,0.759,0,0,0,0, ,0,0,0,0,0, ,947.2,78.7,277.4,-1,-1.1,-1.5,25,946.782,77.9986,277.419,-0.614134,0.77522,-2.33848,
2026_07_06_17_04_39.059,3.869,30,0,0.759,0,0,0,0, ,0,0,0,0,0, ,949.7,79.2,271.1,-0.3,-1.3,-1.9,25,946.884,78.0566,277.226,-0.616319,0.654855,-2.29957,
2026_07_06_17_04_39.070,3.869,30.1,0,0.759,0,0,0,0, ,0,0,0,0,0, ,951.5,79.9,273.6,0.5,-3.5,-1.2,25,947.11,78.1476,276.929,-0.572669,0.4687,-2.2539,
2026_07_06_17_04_39.099,3.869,30.1,0,0.758,0,0,0,0, ,0,0,0,0,0, ,951.7,78.4,275.2,0.9,-4.5,-0.8,25,947.384,78.2087,276.775,-0.495115,0.196389,-2.17749,
2026_07_06_17_04_39.110,3.869,30,0,0.759,0,0,0,0, ,0,0,0,0,0, ,950.8,81.5,275,0.6,-4.7,-0.7,25,947.62,78.3148,276.673,-0.419241,-0.0958911,-2.0905,
2026_07_06_17_04_39.139,3.869,30,0,0.76,0,0,0,0, ,0,0,0,0,0, ,952.6,80,274.1,1.3,-3.3,-0.8,25,947.868,78.4632,276.543,-0.335803,-0.333798,-2.00881,
2026_07_06_17_04_39.150,3.869,30,0,0.758,0,0,0,0, ,0,0,0,0,0, ,942.3,81.7,276.2,1.8,-5.8,-0.7,25,947.843,78.6086,276.458,-0.220887,-0.590723,-1.9321,
2026_07_06_17_04_39.179,3.869,30.2,0,0.76,0,0,0,0, ,0,0,0,0,0, ,950.1,79.9,271.8,1.2,-7.5,-0.9,25,947.743,78.7422,276.309,-0.11602,-0.95996,-1.86312,
2026_07_06_17_04_39.191,3.869,30.1,0,0.758,0,0,0,0, ,0,0,0,0,0, ,950.6,79.3,270.2,2.2,-5.7,-0.7,25,947.902,78.7944,275.985,-0.00535663,-1.30365,-1.79833,
2026_07_06_17_04_39.220,3.869,30,0,0.759,0,0,0,0, ,0,0,0,0,0, ,949.9,79.3,268.7,3,-4.5,-0.8,25,948.045,78.8253,275.587,0.153407,-1.53499,-1.73445,
2026_07_06_17_04_39.229,3.869,30,0,0.758,0,0,0,0, ,0,0,0,0,0, ,941.5,83.3,279.7,3,-3.3,-1.3,25,947.902,78.9761,275.502,0.326872,-1.67911,-1.69274,
2026_07_06_17_04_39.257,3.869,30,0,0.759,0,0,0,0, ,0,0,0,0,0, ,943.9,80.4,278.8,3,-3.1,-1.8,25,947.585,79.1512,275.731,0.489765,-1.77179,-1.68404,
2026_07_06_17_04_39.269,3.869,30.1,0,0.759,0,0,0,0, ,0,0,0,0,0, ,951.7,78.6,265.9,2.2,-2.9,-1.6,25,947.598,79.1724,275.525,0.618358,-1.84663,-1.68502,
2026_07_06_17_04_39.301,3.869,30,0,0.76,0,0,0,0, ,0,0,0,0,0, ,953.9,78.2,257.6,3.2,-5.3,-0.4,25,947.915,79.1254,274.685,0.745208,-1.98395,-1.64327,
