UTC_Time,Vin,TC1,TC2,Rh1,Vh1,Ah1,Acp1,Dty1,Err1,Rh2,Vh2,Ah2,Acp2,Dty2,Err2,Accel_x,Accel_y,Accel_z,gyro_x,gyro_y,gyro_z,Temp_c,Accel_x_h,Accel_y_h,Accel_z_h,gyro_x_h,gyro_y_h,gyro_z_h,
2026_07_06_16_22_18.271,3.869,49.2,0,0.771,0,0,0,0, ,0,0,0,0,0, ,-37.1,286.3,957.1,-1,-0.5,-1.9,25,-37.1,286.3,957.1,-1,-0.5,-1.9,
2026_07_06_16_22_18.291,3.869,49.1,0,0.772,0,0,0,0, ,0,0,0,0,0, ,-37.9,286.1,957.5,-1,-0.5,-2,25,-37.1244,286.294,957.112,-1,-0.5,-1.90305,
2026_07_06_16_22_18.312,3.869,49.1,0,0.772,0,0,0,0, ,0,0,0,0,0, ,-38,287.4,957.1,-1,-0.5,-2,25,-37.1747,286.322,957.124,-1,-0.5,-1.90895,
2026_07_06_16_22_18.330,3.869,49.1,0,0.772,0,0,0,0, ,0,0,0,0,0, ,-38.2,287.2,956.5,-1,-0.5,-1.9,25,-37.2311,286.381,957.104,-1,-0.5,-1.91146,
2026_07_06_16_22_18.351,3.869,49.1,0,0.772,0,0,0,0, ,0,0,0,0,0, ,-39,287.3,958.8,-1,-0.5,-1.9,25,-37.3145,286.434,957.137,-1,-0.5,-1.91076,
2026_07_06_16_22_18.371,3.869,49,0,0.773,0,0,0,0, ,0,0,0,0,0, ,-38.2,287.1,957.2,-1,-0.5,-2,25,-37.3928,286.481,957.19,-1,-0.5,-1.91315,
2026_07_06_16_22_18.390,3.869,49.1,0,0.773,0,0,0,0, ,0,0,0,0,0, ,-37.7,287.1,957.7,-1,-0.5,-2,25,-37.4268,286.519,957.206,-1,-0.5,-1.91844,
2026_07_06_16_22_18.411,3.869,49,0,0.772,0,0,0,0, ,0,0,0,0,0, ,-38.2,287.3,957.2,-1,-0.4,-1.9,25,-37.4587,286.56,957.22,-1,-0.496953,-1.92036,
2026_07_06_16_22_18.431,3.869,49,0,0.77,0,0,0,0, ,0,0,0,0,0, ,-36.4,287.7,956.6,-1,-0.5,-2,25,-37.449,286.617,957.201,-1,-0.494092,-1.92217,
2026_07_06_16_22_18.450,3.869,49,0,0.772,0,0,0,0, ,0,0,0,0,0, ,-38.3,288.5,956.4,-1,-0.5,-2,25,-37.443,286.708,957.158,-1,-0.494452,-1.92691,
2026_07_06_16_22_18.469,3.869,49,0,0.774,0,0,0,0, ,0,0,0,0,0, ,-37.3,287.5,956.6,-1,-0.5,-2,25,-37.4647,286.787,957.118,-1,-0.49479,-1.93137,
2026_07_06_16_22_18.489,3.869,48.9,0,0.772,0,0,0,0, ,0,0,0,0,0, ,-37.4,287.7,958.6,-1,-0.5,-1.9,25,-37.4577,286.836,957.148,-1,-0.495108,-1.9325,
2026_07_06_16_22_18.509,3.869,48.9,0,0.772,0,0,0,0, ,0,0,0,0,0, ,-37.5,288.5,956.4,-1,-0.4,-2,25,-37.4573,286.913,957.169,-1,-0.492359,-1.93357,
2026_07_06_16_22_18.530,3.869,49,0,0.773,0,0,0,0, ,0,0,0,0,0, ,-37.4,288.3,957.6,-1,-0.5,-2,25,-37.4568,287.004,957.159,-1,-0.489778,-1.93762,
2026_07_06_16_22_18.549,3.869,48.9,0,0.773,0,0,0,0, ,0,0,0,0,0, ,-38.5,288.6,957.7,-0.9,-0.5,-1.9,25,-37.4869,287.092,957.189,-0.996953,-0.4904,-1.93837,
2026_07_06_16_22_18.568,3.869,48.9,0,0.772,0,0,0,0, ,0,0,0,0,0, ,-38.4,287.9,957.6,-1,-0.5,-2,25,-37.5456,287.162,957.217,-0.994092,-0.490985,-1.93908,
2026_07_06_16_22_18.588,3.869,48.9,0,0.772,0,0,0,0, ,0,0,0,0,0, ,-38.6,287.3,957.7,-1,-0.5,-2,25,-37.6037,287.189,957.243,-0.994452,-0.491535,-1.94279,
2026_07_06_16_22_18.608,3.869,48.9,0,0.773,0,0,0,0, ,0,0,0,0,0, ,-37.8,286.2,957.2,-1,-0.5,-1.9,25,-37.6401,287.162,957.256,-0.99479,-0.492051,-1.94323,
2026_07_06_16_22_18.628,3.869,48.9,0,0.773,0,0,0,0, ,0,0,0,0,0, ,-37.9,287.2,956.7,-1,-0.5,-1.9,25,-37.6528,287.134,957.237,-0.995108,-0.492535,-1.9406,
2026_07_06_16_22_18.648,3.869,48.9,0,0.772,0,0,0,0, ,0,0,0,0,0, ,-37.5,288.3,956.9,-1,-0.5,-2,25,-37.6557,287.172,957.21,-0.995406,-0.49299,-1.94117,
2026_07_06_16_22_18.667,3.869,49,0,0.772,0,0,0,0, ,0,0,0,0,0, ,-36.1,287.4,958.9,-1.1,-0.4,-2,25,-37.6036,287.213,957.252,-0.998732,-0.49037,-1.94476,
2026_07_06_16_22_18.688,3.869,49,0,0.772,0,0,0,0, ,0,0,0,0,0, ,-38.3,287.5,957.6,-1,-0.4,-1.9,25,-37.579,287.227,957.313,-1.00186,-0.484863,-1.94507,
2026_07_06_16_22_18.707,3.869,48.9,0,0.773,0,0,0,0, ,0,0,0,0,0, ,-37.8,287.2,958.2,-1,-0.5,-2,25,-37.6077,287.235,957.349,-1.00174,-0.482739,-1.94537,
2026_07_06_16_22_18.728,3.869,48.9,0,0.772,0,0,0,0, ,0,0,0,0,0, ,-37.4,286.4,958.6,-0.9,-0.5,-2,25,-37.6072,287.208,957.413,-0.99859,-0.483791,-1.9487,
2026_07_06_16_22_18.747,3.869,48.7,0,0.774,0,0,0,0, ,0,0,0,0,0, ,-37.5,287.2,957.6,-1,-0.5,-2,25,-37.5976,287.184,957.455,-0.995629,-0.484778,-1.95183,
2026_07_06_16_22_18.766,3.869,48.9,0,0.773,0,0,0,0, ,0,0,0,0,0, ,-37.5,287.1,958.6,-1,-0.5,-2,25,-37.5917,287.181,957.494,-0.995896,-0.485706,-1.95476,
2026_07_06_16_22_18.786,3.869,48.7,0,0.773,0,0,0,0, ,0,0,0,0,0, ,-38.3,287.7,957.3,-1,-0.4,-2,25,-37.6105,287.195,957.522,-0.996146,-0.48353,-1.95752,
2026_07_06_16_22_18.806,3.869,48.7,0,0.773,0,0,0,0, ,0,0,0,0,0, ,-37.7,287.5,957.1,-1,-0.4,-1.9,25,-37.6342,287.22,957.502,-0.996381,-0.47844,-1.95706,
2026_07_06_16_22_18.827,3.869,48.7,0,0.772,0,0,0,0, ,0,0,0,0,0, ,-37.2,287.7,958.1,-1,-0.5,-2,25,-37.623,287.243,957.508,-0.996601,-0.476707,-1.95663,
2026_07_06_16_22_18.846,3.869,48.7,0,0.772,0,0,0,0, ,0,0,0,0,0, ,-36.9,288.3,957.3,-1,-0.5,-2,25,-37.5881,287.289,957.52,-0.996808,-0.478126,-1.95928,
2026_07_06_16_22_18.865,3.869,48.7,0,0.773,0,0,0,0, ,0,0,0,0,0, ,-37.9,286.6,958.6,-1,-0.5,-1.9,25,-37.5766,287.299,957.546,-0.997003,-0.479459,-1.95871,
2026_07_06_16_22_18.885,3.869,48.6,0,0.773,0,0,0,0, ,0,0,0,0,0, ,-37.8,287.9,957,-0.9,-0.5,-1.9,25,-37.5933,287.296,957.562,-0.994139,-0.480711,-1.95513,
2026_07_06_16_22_18.907,3.869,48.6,0,0.77,0,0,0,0, ,0,0,0,0,0, ,-38,287.8,957.2,-0.9,-0.5,-1.9,25,-37.612,287.329,957.534,-0.988402,-0.481886,-1.95177,
2026_07_06_16_22_18.925,3.869,48.7,0,0.772,0,0,0,0, ,0,0,0,0,0, ,-35.7,287.9,959.1,-1,-0.4,-2,25,-37.5655,287.361,957.571,-0.986062,-0.479943,-1.95166,
2026_07_06_16_22_18.944,3.869,48.6,0,0.774,0,0,0,0, ,0,0,0,0,0, ,-38.8,288,956.7,-1,-0.5,-2,25,-37.5463,287.397,957.591,-0.986911,-0.478119,-1.95461,
2026_07_06_16_22_18.964,3.869,48.9,0,0.772,0,0,0,0, ,0,0,0,0,0, ,-36.6,287.3,957.8,-1,-0.5,-1.9,25,-37.5557,287.412,957.57,-0.987709,-0.479452,-1.95433,
2026_07_06_16_22_18.983,3.869,48.7,0,0.773,0,0,0,0, ,0,0,0,0,0, ,-38,288.3,958.1,-1,-0.4,-1.9,25,-37.5401,287.436,957.593,-0.988458,-0.477657,-1.95102,
2026_07_06_16_22_19.003,3.869,48.6,0,0.773,0,0,0,0, ,0,0,0,0,0, ,-38.5,288.5,956.9,-0.9,-0.4,-2,25,-37.5833,287.495,957.588,-0.986114,-0.472925,-1.95096,
2026_07_06_16_22_19.023,3.869,48.6,0,0.773,0,0,0,0, ,0,0,0,0,0, ,-37.9,288.8,957.5,-1,-0.5,-2,25,-37.6209,287.565,957.564,-0.983914,-0.471528,-1.95395,
2026_07_06_16_22_19.044,3.869,48.6,0,0.773,0,0,0,0, ,0,0,0,0,0, ,-37.4,287.5,958.9,-1,-0.5,-2,25,-37.6227,287.601,957.603,-0.984894,-0.473263,-1.95675,
2026_07_06_16_22_19.063,3.869,48.6,0,0.772,0,0,0,0, ,0,0,0,0,0, ,-36.6,287.3,959.1,-1,-0.5,-2,25,-37.5848,287.589,957.688,-0.985814,-0.474892,-1.95939,
2026_07_06_16_22_19.084,3.869,48.7,0,0.773,0,0,0,0, ,0,0,0,0,0, ,-37.5,287.1,959.2,-1,-0.5,-1.9,25,-37.5522,287.565,957.777,-0.986679,-0.476422,-1.95882,
2026_07_06_16_22_19.103,3.869,48.6,0,0.772,0,0,0,0, ,0,0,0,0,0, ,-38.4,287.2,957.7,-1,-0.4,-1.9,25,-37.5764,287.54,957.818,-0.987491,-0.474812,-1.95523,
2026_07_06_16_22_19.122,3.869,48.6,0,0.773,0,0,0,0, ,0,0,0,0,0, ,-38.8,288.4,958.3,-1,-0.5,-2,25,-37.6388,287.556,957.829,-0.988253,-0.4733,-1.95491,
2026_07_06_16_22_19.143,3.869,48.7,0,0.774,0,0,0,0, ,0,0,0,0,0, ,-38.5,286.9,957.2,-1,-0.5,-2,25,-37.7004,287.561,957.824,-0.988969,-0.474927,-1.95766,
2026_07_06_16_22_19.162,3.869,48.5,0,0.773,0,0,0,0, ,0,0,0,0,0, ,-37.2,287.3,957.8,-1,-0.5,-1.9,25,-37.7095,287.533,957.805,-0.989641,-0.476455,-1.95719,
2026_07_06_16_22_19.182,3.869,48.6,0,0.77,0,0,0,0, ,0,0,0,0,0, ,-37.4,287.1,959.2,-1,-0.5,-2.1,25,-37.6846,287.513,957.847,-0.990272,-0.47789,-1.9598,
2026_07_06_16_22_19.201,3.869,48.6,0,0.773,0,0,0,0, ,0,0,0,0,0, ,-37.3,287.2,957.1,-1,-0.5,-2,25,-37.6642,287.491,957.865,-0.990865,-0.479237,-1.9653,
2026_07_06_16_22_19.221,3.869,48.5,0,0.773,0,0,0,0, ,0,0,0,0,0, ,-37.8,288.5,957.3,-1,-0.5,-2,25,-37.6572,287.513,957.825,-0.991422,-0.480502,-1.96741,
2026_07_06_16_22_19.242,3.869,48.5,0,0.773,0,0,0,0, ,0,0,0,0,0, ,-37.7,287.2,957.5,-1.1,-0.5,-1.9,25,-37.6629,287.533,957.799,-0.994991,-0.481691,-1.96635,
2026_07_06_16_22_19.260,3.869,48.5,0,0.773,0,0,0,0, ,0,0,0,0,0, ,-37.1,289.6,956,-1,-0.4,-2,25,-37.6469,287.586,957.735,-0.998343,-0.479759,-1.96536,
2026_07_06_16_22_19.281,3.869,48.6,0,0.77,0,0,0,0, ,0,0,0,0,0, ,-37.1,286.9,956.7,-1,-0.5,-1.9,25,-37.6135,287.626,957.651,-0.998444,-0.477946,-1.96442,
2026_07_06_16_22_19.301,3.869,48.5,0,0.773,0,0,0,0, ,0,0,0,0,0, ,-38.2,286.8,958.7,-0.9,-0.5,-1.9,25,-37.6158,287.579,957.654,-0.995492,-0.47929,-1.96049,
2026_07_06_16_22_19.321,3.869,48.5,0,0.774,0,0,0,0, ,0,0,0,0,0, ,-36.9,287.3,957.7,-1,-0.5,-2,25,-37.6117,287.547,957.687,-0.99272,-0.480552,-1.95985,
2026_07_06_16_22_19.340,3.869,48.5,0,0.773,0,0,0,0, ,0,0,0,0,0, ,-38.5,288,957.7,-1,-0.5,-1.9,25,-37.6171,287.553,957.688,-0.993164,-0.481737,-1.95925,
2026_07_06_16_22_19.359,3.869,48.5,0,0.774,0,0,0,0, ,0,0,0,0,0, ,-37.9,287.8,957.3,-1,-0.5,-2,25,-37.6526,287.574,957.676,-0.99358,-0.48285,-1.95869,
2026_07_06_16_22_19.380,3.869,48.5,0,0.774,0,0,0,0, ,0,0,0,0,0, ,-38,288.2,958.2,-1,-0.5,-1.9,25,-37.6708,287.6,957.681,-0.993971,-0.483895,-1.95816,
2026_07_06_16_22_19.399,3.869,48.4,0,0.773,0,0,0,0, ,0,0,0,0,0, ,-38.5,287.5,956.7,-1,-0.5,-1.9,25,-37.7061,287.615,957.667,-0.994339,-0.484876,-1.95462,
2026_07_06_16_22_19.419,3.869,48.5,0,0.772,0,0,0,0, ,0,0,0,0,0, ,-37.1,289,958,-1,-0.4,-1.9,25,-37.7118,287.654,957.647,-0.994684,-0.482751,-1.95129,
2026_07_06_16_22_19.439,3.869,48.5,0,0.771,0,0,0,0, ,0,0,0,0,0, ,-38,287.4,957.7,-1,-0.5,-1.9,25,-37.7019,287.687,957.66,-0.995008,-0.480755,-1.94816,
2026_07_06_16_22_19.459,3.869,48.4,0,0.774,0,0,0,0, ,0,0,0,0,0, ,-38.6,287.1,957.1,-1,-0.5,-2,25,-37.7384,287.661,957.644,-0.995312,-0.481928,-1.94827,
2026_07_06_16_22_19.479,3.869,48.5,0,0.774,0,0,0,0, ,0,0,0,0,0, ,-38.3,287.2,957.1,-1,-0.4,-2,25,-37.7817,287.63,957.611,-0.995598,-0.479982,-1.95143,
2026_07_06_16_22_19.499,3.869,48.4,0,0.773,0,0,0,0, ,0,0,0,0,0, ,-38.9,286.9,958.1,-1,-0.4,-1.9,25,-37.8316,287.594,957.61,-0.995866,-0.475109,-1.95134,
2026_07_06_16_22_19.517,3.869,48.5,0,0.772,0,0,0,0, ,0,0,0,0,0, ,-38.2,286.3,958.1,-1,-0.5,-2,25,-37.8754,287.534,957.64,-0.996118,-0.473578,-1.95126,
2026_07_06_16_22_19.538,3.869,48.4,0,0.772,0,0,0,0, ,0,0,0,0,0, ,-38.2,287.7,957.6,-1,-0.5,-1.9,25,-37.8952,287.501,957.653,-0.996354,-0.475189,-1.95118,
2026_07_06_16_22_19.557,3.869,48.4,0,0.774,0,0,0,0, ,0,0,0,0,0, ,-37.3,287.3,957.8,-1,-0.5,-1.9,25,-37.8863,287.501,957.656,-0.996577,-0.4767,-1.94806,
2026_07_06_16_22_19.577,3.869,48.4,0,0.772,0,0,0,0, ,0,0,0,0,0, ,-38,286.4,957.1,-1,-0.5,-2,25,-37.8719,287.461,957.643,-0.996785,-0.47812,-1.94818,
2026_07_06_16_22_19.597,3.869,48.4,0,0.772,0,0,0,0, ,0,0,0,0,0, ,-38.8,287.5,955.6,-0.9,-0.4,-2,25,-37.9041,287.43,957.564,-0.993934,-0.476407,-1.95134,
2026_07_06_16_22_19.617,3.869,48.5,0,0.775,0,0,0,0, ,0,0,0,0,0, ,-38.9,286.8,957.6,-1,-0.5,-2,25,-37.9617,287.413,957.506,-0.991257,-0.474798,-1.9543,
2026_07_06_16_22_19.637,3.869,48.3,0,0.771,0,0,0,0, ,0,0,0,0,0, ,-38,287.8,956.9,-1,-0.5,-2,25,-37.9915,287.406,957.49,-0.99179,-0.476333,-1.95709,
2026_07_06_16_22_19.656,3.869,48.4,0,0.771,0,0,0,0, ,0,0,0,0,0, ,-36.2,288.2,957.3,-1,-0.5,-2,25,-37.9372,287.442,957.466,-0.99229,-0.477776,-1.9597,
2026_07_06_16_22_19.677,3.869,48.4,0,0.772,0,0,0,0, ,0,0,0,0,0, ,-38.3,286.7,958.4,-1.1,-0.5,-2,25,-37.8953,287.443,957.49,-0.995807,-0.47913,-1.96216,
2026_07_06_16_22_19.696,3.869,48.4,0,0.773,0,0,0,0, ,0,0,0,0,0, ,-37.7,287.1,956.5,-1,-0.5,-2,25,-37.9017,287.41,957.487,-0.999109,-0.480402,-1.96446,
2026_07_06_16_22_19.715,3.869,48.4,0,0.773,0,0,0,0, ,0,0,0,0,0, ,-37.9,286.1,958.3,-1,-0.5,-2,25,-37.8955,287.361,957.482,-0.999163,-0.481596,-1.96663,
2026_07_06_16_22_19.735,3.869,48.4,0,0.773,0,0,0,0, ,0,0,0,0,0, ,-39.1,287.9,956.9,-1,-0.4,-2,25,-37.9323,287.339,957.489,-0.999214,-0.479671,-1.96866,
2026_07_06_16_22_19.756,3.869,48.3,0,0.773,0,0,0,0, ,0,0,0,0,0, ,-38.8,286.9,956.9,-1,-0.5,-1.9,25,-37.9943,287.342,957.453,-0.999262,-0.477862,-1.96753,
2026_07_06_16_22_19.775,3.869,48.4,0,0.773,0,0,0,0, ,0,0,0,0,0, ,-38,289.1,956.9,-1,-0.4,-1.9,25,-38.019,287.382,957.419,-0.999307,-0.476165,-1.96341,
2026_07_06_16_22_19.795,3.869,48.3,0,0.772,0,0,0,0, ,0,0,0,0,0, ,-37.1,286.4,956.9,-1,-0.5,-2,25,-37.9905,287.405,957.388,-0.999349,-0.47457,-1.96259,
2026_07_06_16_22_19.815,3.869,48.3,0,0.771,0,0,0,0, ,0,0,0,0,0, ,-38.2,287.9,957.5,-1,-0.5,-2,25,-37.9697,287.389,957.376,-0.999389,-0.47612,-1.96487,
2026_07_06_16_22_19.836,3.869,48.4,0,0.772,0,0,0,0, ,0,0,0,0,0, ,-37.9,287.4,957.8,-1,-0.5,-1.9,25,-37.9746,287.405,957.393,-0.999426,-0.477575,-1.96397,
2026_07_06_16_22_19.855,3.869,48.4,0,0.775,0,0,0,0, ,0,0,0,0,0, ,-38.3,286.7,957.5,-1,-0.5,-2,25,-37.9823,287.383,957.409,-0.999461,-0.478942,-1.96312,
2026_07_06_16_22_19.874,3.869,48.3,0,0.773,0,0,0,0, ,0,0,0,0,0, ,-37.7,286.8,957,-1,-0.6,-1.9,25,-37.9833,287.345,957.399,-0.999494,-0.483272,-1.96232,
2026_07_06_16_22_19.894,3.869,48.4,0,0.774,0,0,0,0, ,0,0,0,0,0, ,-38.5,287.2,958.3,-1,-0.5,-1.9,25,-37.9904,287.324,957.414,-0.999525,-0.487338,-1.95852,
2026_07_06_16_22_19.914,3.869,48.3,0,0.772,0,0,0,0, ,0,0,0,0,0, ,-37.7,287.2,958.9,-1,-0.5,-1.9,25,-37.9971,287.316,957.487,-0.999554,-0.48811,-1.95495,
2026_07_06_16_22_19.934,3.869,48.2,0,0.772,0,0,0,0, ,0,0,0,0,0, ,-37.1,286.4,959.2,-1,-0.5,-2,25,-37.9607,287.285,957.582,-0.999581,-0.488834,-1.95465,
2026_07_06_16_22_19.953,3.869,48.3,0,0.773,0,0,0,0, ,0,0,0,0,0, ,-36.6,287.4,956.5,-0.9,-0.5,-1.9,25,-37.893,287.261,957.598,-0.99656,-0.489515,-1.95437,
2026_07_06_16_22_19.973,3.869,48.3,0,0.773,0,0,0,0, ,0,0,0,0,0, ,-37.7,288.2,958.1,-1,-0.4,-2,25,-37.8478,287.294,957.58,-0.993722,-0.487107,-1.9541,
2026_07_06_16_22_19.992,3.869,48.3,0,0.772,0,0,0,0, ,0,0,0,0,0, ,-38.2,286,956.7,-1,-0.5,-2,25,-37.854,287.282,957.569,-0.994105,-0.484845,-1.9569,
2026_07_06_16_22_20.012,3.869,48.3,0,0.773,0,0,0,0, ,0,0,0,0,0, ,-37.5,288.4,957.5,-1,-0.5,-2,25,-37.8538,287.277,957.54,-0.994464,-0.485769,-1.95953,
2026_07_06_16_22_20.032,3.869,48.2,0,0.772,0,0,0,0, ,0,0,0,0,0, ,-37.9,285.7,958.3,-0.9,-0.5,-1.9,25,-37.8444,287.264,957.562,-0.991755,-0.486636,-1.95894,
2026_07_06_16_22_20.052,3.869,48.3,0,0.772,0,0,0,0, ,0,0,0,0,0, ,-38.8,287.8,957.8,-1,-0.4,-2,25,-37.8752,287.232,957.592,-0.98921,-0.484404,-1.9584,
2026_07_06_16_22_20.073,3.869,48.3,0,0.773,0,0,0,0, ,0,0,0,0,0, ,-38.2,286.7,958.4,-1,-0.5,-2,25,-37.9133,287.233,957.623,-0.989868,-0.482307,-1.96093,
2026_07_06_16_22_20.092,3.869,48.3,0,0.773,0,0,0,0, ,0,0,0,0,0, ,-38.6,287.4,958.7,-1,-0.4,-1.9,25,-37.9429,287.222,957.68,-0.990485,-0.480338,-1.96027,
2026_07_06_16_22_20.112,3.869,48.3,0,0.773,0,0,0,0, ,0,0,0,0,0, ,-37.9,287.2,956.7,-1,-0.5,-2,25,-37.9616,287.227,957.681,-0.991065,-0.47849,-1.95964,
2026_07_06_16_22_20.131,3.869,48.1,0,0.771,0,0,0,0, ,0,0,0,0,0, ,-39,285.6,956.9,-1,-0.4,-2,25,-37.9914,287.176,957.627,-0.991609,-0.476754,-1.9621,
2026_07_06_16_22_20.151,3.869,48.1,0,0.773,0,0,0,0, ,0,0,0,0,0, ,-37.8,285.8,958.3,-1,-0.4,-1.9,25,-38.0163,287.087,957.625,-0.992121,-0.472076,-1.96136,
2026_07_06_16_22_20.171,3.869,48.3,0,0.772,0,0,0,0, ,0,0,0,0,0, ,-37.7,287.3,959.3,-1,-0.5,-2,25,-38.0001,287.054,957.697,-0.992601,-0.470731,-1.96067,
2026_07_06_16_22_20.190,3.869,48.3,0,0.772,0,0,0,0, ,0,0,0,0,0, ,-37.9,288.5,958,-1,-0.5,-1.9,25,-37.9879,287.105,957.755,-0.993052,-0.472515,-1.96002,
2026_07_06_16_22_20.210,3.869,48.3,0,0.773,0,0,0,0, ,0,0,0,0,0, ,-38,287.4,955.4,-1,-0.5,-1.9,25,-37.9856,287.157,957.691,-0.993475,-0.47419,-1.95636,
2026_07_06_16_22_20.231,3.869,48.3,0,0.773,0,0,0,0, ,0,0,0,0,0, ,-38.6,286.8,956.9,-1,-0.5,-1.9,25,-38.0047,287.153,957.597,-0.993873,-0.475762,-1.95293,
2026_07_06_16_22_20.251,3.869,48.2,0,0.773,0,0,0,0, ,0,0,0,0,0, ,-37.3,287.1,957.5,-1,-0.5,-2,25,-38.0014,287.141,957.573,-0.994246,-0.477239,-1.95275,
2026_07_06_16_22_20.270,3.869,48.3,0,0.773,0,0,0,0, ,0,0,0,0,0, ,-38.4,288,956.5,-1,-0.4,-2,25,-37.9922,287.166,957.538,-0.994597,-0.475579,-1.95563,
2026_07_06_16_22_20.289,3.869,48.2,0,0.772,0,0,0,0, ,0,0,0,0,0, ,-37.4,286.7,955.9,-1,-0.5,-1.9,25,-37.9866,287.177,957.456,-0.994926,-0.474021,-1.95529,
2026_07_06_16_22_20.309,3.869,48.2,0,0.772,0,0,0,0, ,0,0,0,0,0, ,-39.1,287.8,957.1,-1,-0.4,-1.9,25,-38.0026,287.182,957.398,-0.995235,-0.472557,-1.95192,
2026_07_06_16_22_20.329,3.869,48.2,0,0.772,0,0,0,0, ,0,0,0,0,0, ,-37.8,287.2,955.6,-1,-0.5,-1.9,25,-38.0299,287.201,957.334,-0.995526,-0.471182,-1.94875,
2026_07_06_16_22_20.349,3.869,48.2,0,0.773,0,0,0,0, ,0,0,0,0,0, ,-36.9,286.4,957.7,-0.9,-0.4,-2,25,-37.9884,287.177,957.292,-0.992751,-0.469892,-1.94883,
2026_07_06_16_22_20.369,3.869,48.3,0,0.772,0,0,0,0, ,0,0,0,0,0, ,-37.4,287.5,956.1,-1,-0.5,-1.9,25,-37.9373,287.163,957.269,-0.990146,-0.468679,-1.9489,
2026_07_06_16_22_20.387,3.869,48.2,0,0.773,0,0,0,0, ,0,0,0,0,0, ,-38.3,287.8,958.7,-1,-0.5,-1.9,25,-37.932,287.192,957.277,-0.990747,-0.470588,-1.94592,
2026_07_06_16_22_20.408,3.869,48.2,0,0.772,0,0,0,0, ,0,0,0,0,0, ,-37.4,288,957,-1,-0.5,-2,25,-37.927,287.236,957.312,-0.991311,-0.47238,-1.94617,
2026_07_06_16_22_20.427,3.869,48.2,0,0.772,0,0,0,0, ,0,0,0,0,0, ,-36.2,286.8,956.9,-0.9,-0.5,-1.9,25,-37.8583,287.246,957.289,-0.988793,-0.474063,-1.9464,
2026_07_06_16_22_20.447,3.869,48.1,0,0.773,0,0,0,0, ,0,0,0,0,0, ,-37.9,286.8,957.5,-1,-0.5,-1.9,25,-37.8091,287.218,957.284,-0.986429,-0.475644,-1.94358,
2026_07_06_16_22_20.467,3.869,48.1,0,0.772,0,0,0,0, ,0,0,0,0,0, ,-38,287.3,958.3,-1,-0.4,-2,25,-37.8177,287.208,957.322,-0.987256,-0.474081,-1.94397,
2026_07_06_16_22_20.488,3.869,48.2,0,0.772,0,0,0,0, ,0,0,0,0,0, ,-36.8,287.1,958.8,-1,-0.5,-2,25,-37.7922,287.208,957.396,-0.988033,-0.472614,-1.94738,
2026_07_06_16_22_20.507,3.869,48.2,0,0.772,0,0,0,0, ,0,0,0,0,0, ,-37.1,286.6,956,-1,-0.5,-1.9,25,-37.7409,287.186,957.397,-0.988762,-0.474283,-1.94754,
2026_07_06_16_22_20.528,3.869,48.2,0,0.773,0,0,0,0, ,0,0,0,0,0, ,-38.4,286.4,957.7,-1,-0.5,-2,25,-37.7415,287.144,957.363,-0.989447,-0.47585,-1.94769,
2026_07_06_16_22_20.547,3.869,48.1,0,0.772,0,0,0,0, ,0,0,0,0,0, ,-37.8,286.9,957.7,-1,-0.4,-2,25,-37.7633,287.114,957.384,-0.99009,-0.474275,-1.95088,
2026_07_06_16_22_20.566,3.869,48.1,0,0.773,0,0,0,0, ,0,0,0,0,0, ,-37.3,286.9,959.2,-1,-0.5,-2,25,-37.7503,287.101,957.449,-0.990694,-0.472795,-1.95387,
2026_07_06_16_22_20.587,3.869,48.1,0,0.772,0,0,0,0, ,0,0,0,0,0, ,-37.5,286.3,957,-1,-0.5,-2,25,-37.729,287.07,957.488,-0.991261,-0.474453,-1.95668,
2026_07_06_16_22_20.607,3.869,48,0,0.772,0,0,0,0, ,0,0,0,0,0, ,-39,288.9,959.5,-0.9,-0.5,-1.9,25,-37.7607,287.103,957.535,-0.988747,-0.47601,-1.95628,
2026_07_06_16_22_20.627,3.869,48.1,0,0.773,0,0,0,0, ,0,0,0,0,0, ,-38.2,288.6,957.6,-1,-0.5,-2,25,-37.8119,287.203,957.597,-0.986385,-0.477472,-1.95589,
2026_07_06_16_22_20.645,3.869,48,0,0.773,0,0,0,0, ,0,0,0,0,0, ,-37.4,287.4,957.1,-1,-0.5,-2,25,-37.8111,287.252,957.582,-0.987215,-0.478845,-1.95858,
2026_07_06_16_22_20.665,3.869,48.1,0,0.773,0,0,0,0, ,0,0,0,0,0, ,-37.9,287.4,956.5,-1,-0.4,-1.9,25,-37.8013,287.261,957.534,-0.987994,-0.477087,-1.95806,
2026_07_06_16_22_20.686,3.869,48.1,0,0.774,0,0,0,0, ,0,0,0,0,0, ,-38.3,288.2,957.8,-1,-0.5,-1.9,25,-37.8195,287.294,957.511,-0.988726,-0.475436,-1.95452,
2026_07_06_16_22_20.704,3.869,48.1,0,0.772,0,0,0,0, ,0,0,0,0,0, ,-37.4,286,957,-1,-0.5,-2,25,-37.8214,287.282,957.504,-0.989413,-0.476933,-1.95424,
2026_07_06_16_22_20.725,3.869,48.1,0,0.772,0,0,0,0, ,0,0,0,0,0, ,-39.1,286.9,957.2,-1,-0.5,-2,25,-37.8475,287.231,957.479,-0.990058,-0.478339,-1.95703,
2026_07_06_16_22_20.746,3.869,48,0,0.772,0,0,0,0, ,0,0,0,0,0, ,-38.4,287.9,956.2,-1,-0.5,-1.9,25,-37.9025,287.241,957.432,-0.990664,-0.479659,-1.9566,
2026_07_06_16_22_20.764,3.869,48,0,0.773,0,0,0,0, ,0,0,0,0,0, ,-36.9,287.1,958.1,-1,-0.5,-1.9,25,-37.8871,287.257,957.415,-0.991233,-0.480898,-1.95316,
2026_07_06_16_22_20.784,3.869,48.1,0,0.773,0,0,0,0, ,0,0,0,0,0, ,-38.3,288.3,958.2,-1,-0.4,-1.9,25,-37.8696,287.284,957.459,-0.991767,-0.479015,-1.94992,
2026_07_06_16_22_20.803,3.869,48.1,0,0.772,0,0,0,0, ,0,0,0,0,0, ,-36.9,287.4,958.3,-1,-0.5,-2,25,-37.8532,287.319,957.508,-0.992269,-0.477247,-1.94992,
2026_07_06_16_22_20.824,3.869,48,0,0.773,0,0,0,0, ,0,0,0,0,0, ,-36.9,286.1,956.9,-1,-0.5,-2,25,-37.7951,287.284,957.513,-0.99274,-0.478634,-1.95297,
2026_07_06_16_22_20.843,3.869,48,0,0.772,0,0,0,0, ,0,0,0,0,0, ,-38.3,286.8,957.2,-1,-0.5,-2,25,-37.7832,287.233,957.485,-0.993182,-0.479936,-1.95584,
2026_07_06_16_22_20.864,3.869,47.9,0,0.772,0,0,0,0, ,0,0,0,0,0, ,-37.9,287.2,958.6,-1,-0.5,-2,25,-37.8025,287.219,957.51,-0.993598,-0.481158,-1.95853,
2026_07_06_16_22_20.883,3.869,48.1,0,0.773,0,0,0,0, ,0,0,0,0,0, ,-37.8,287.4,956.4,-1,-0.5,-2,25,-37.8054,287.224,957.51,-0.993988,-0.482307,-1.96106,
2026_07_06_16_22_20.903,3.869,47.9,0,0.772,0,0,0,0, ,0,0,0,0,0, ,-37.7,288.2,956.1,-0.9,-0.5,-2,25,-37.802,287.259,957.433,-0.991307,-0.483385,-1.96343,
2026_07_06_16_22_20.923,3.869,48,0,0.772,0,0,0,0, ,0,0,0,0,0, ,-38.3,288.8,958.7,-0.9,-0.5,-2,25,-37.8141,287.335,957.431,-0.985743,-0.484397,-1.96566,
2026_07_06_16_22_20.942,3.869,47.8,0,0.773,0,0,0,0, ,0,0,0,0,0, ,-37.2,286.6,957.3,-1,-0.5,-1.9,25,-37.8102,287.357,957.466,-0.983565,-0.485348,-1.9647,
2026_07_06_16_22_20.963,3.869,48,0,0.773,0,0,0,0, ,0,0,0,0,0, ,-38.4,287.3,958.1,-1,-0.5,-1.9,25,-37.8096,287.332,957.48,-0.984567,-0.486241,-1.96076,
2026_07_06_16_22_20.982,3.869,48.1,0,0.772,0,0,0,0, ,0,0,0,0,0, ,-38.2,286.8,957.2,-0.9,-0.5,-1.9,25,-37.8395,287.315,957.49,-0.98246,-0.487079,-1.95706,
2026_07_06_16_22_21.002,3.869,47.9,0,0.772,0,0,0,0, ,0,0,0,0,0, ,-37.4,287.1,959.3,-1,-0.4,-2,25,-37.837,287.293,957.537,-0.980482,-0.48482,-1.95663,
2026_07_06_16_22_21.021,3.869,48,0,0.773,0,0,0,0, ,0,0,0,0,0, ,-36.3,286.6,957.2,-1,-0.5,-2,25,-37.7769,287.266,957.58,-0.981672,-0.482698,-1.95927,
2026_07_06_16_22_21.041,3.869,47.8,0,0.772,0,0,0,0, ,0,0,0,0,0, ,-37.2,287.4,957.6,-1,-0.5,-1.9,25,-37.7143,287.249,957.569,-0.982788,-0.483752,-1.95871,
2026_07_06_16_22_21.061,3.869,47.8,0,0.772,0,0,0,0, ,0,0,0,0,0, ,-38.3,287.2,956.7,-1,-0.4,-2,25,-37.7165,287.253,957.544,-0.983837,-0.481696,-1.95818,
2026_07_06_16_22_21.080,3.869,47.9,0,0.773,0,0,0,0, ,0,0,0,0,0, ,-38,287.3,956.2,-1,-0.5,-2,25,-37.7429,287.252,957.477,-0.984822,-0.479764,-1.96072,
2026_07_06_16_22_21.100,3.869,47.9,0,0.772,0,0,0,0, ,0,0,0,0,0, ,-38.4,287.8,957.6,-1,-0.5,-1.9,25,-37.7708,287.271,957.442,-0.985747,-0.480997,-1.96007,
2026_07_06_16_22_21.121,3.869,47.8,0,0.772,0,0,0,0, ,0,0,0,0,0, ,-38,287.2,957.8,-1,-0.5,-2,25,-37.7969,287.285,957.457,-0.986616,-0.482155,-1.95946,
2026_07_06_16_22_21.140,3.869,48,0,0.772,0,0,0,0, ,0,0,0,0,0, ,-37.4,287.8,957.1,-0.9,-0.4,-2,25,-37.791,287.298,957.457,-0.984384,-0.480196,-1.96193,
2026_07_06_16_22_21.160,3.869,47.8,0,0.772,0,0,0,0, ,0,0,0,0,0, ,-37.1,286.4,957.8,-1,-0.6,-2,25,-37.758,287.286,957.457,-0.982289,-0.481403,-1.96425,
2026_07_06_16_22_21.179,3.869,47.9,0,0.772,0,0,0,0, ,0,0,0,0,0, ,-37.9,287.3,956.4,-1,-0.6,-1.9,25,-37.7423,287.259,957.435,-0.983368,-0.48863,-1.96338,
2026_07_06_16_22_21.199,3.869,47.8,0,0.772,0,0,0,0, ,0,0,0,0,0, ,-37.8,286.3,957,-1,-0.5,-2,25,-37.7489,287.231,957.39,-0.984382,-0.492369,-1.96256,
2026_07_06_16_22_21.220,3.869,47.9,0,0.772,0,0,0,0, ,0,0,0,0,0, ,-38.9,287.7,957.5,-1,-0.4,-2,25,-37.7855,287.217,957.382,-0.985334,-0.489787,-1.96485,
2026_07_06_16_22_21.240,3.869,47.7,0,0.772,0,0,0,0, ,0,0,0,0,0, ,-36.9,287.9,958,-1,-0.5,-1.9,25,-37.7925,287.253,957.404,-0.986227,-0.487363,-1.96394,
2026_07_06_16_22_21.260,3.869,47.8,0,0.772,0,0,0,0, ,0,0,0,0,0, ,-38.6,288,957.2,-1,-0.5,-1.9,25,-37.7899,287.295,957.416,-0.987067,-0.488133,-1.96004,
2026_07_06_16_22_21.284,3.869,47.8,0,0.772,0,0,0,0, ,0,0,0,0,0, ,-37.9,286.9,957.2,-1,-0.5,-2,25,-37.8179,287.304,957.403,-0.987855,-0.488856,-1.95943,
2026_07_06_16_22_21.298,3.869,47.8,0,0.773,0,0,0,0, ,0,0,0,0,0, ,-37.9,287.5,958.8,-1,-0.5,-2,25,-37.8229,287.298,957.439,-0.988595,-0.489535,-1.9619,
2026_07_06_16_22_21.317,3.869,47.7,0,0.773,0,0,0,0, ,0,0,0,0,0, ,-37.5,286.6,957.6,-1,-0.5,-2,25,-37.8154,287.283,957.486,-0.98929,-0.490173,-1.96423,
2026_07_06_16_22_21.337,3.869,47.9,0,0.772,0,0,0,0, ,0,0,0,0,0, ,-39,285.8,958.3,-1,-0.5,-1.9,25,-37.8419,287.217,957.514,-0.989942,-0.490772,-1.96336,
2026_07_06_16_22_21.358,3.869,47.9,0,0.771,0,0,0,0, ,0,0,0,0,0, ,-38.5,287.1,957,-1,-0.5,-2,25,-37.8973,287.17,957.522,-0.990555,-0.491334,-1.96254,
2026_07_06_16_22_21.377,3.869,47.8,0,0.772,0,0,0,0, ,0,0,0,0,0, ,-37.8,287.7,958.3,-1,-0.5,-1.9,25,-37.9127,287.184,957.53,-0.991131,-0.491862,-1.96178,
2026_07_06_16_22_21.397,3.869,47.7,0,0.772,0,0,0,0, ,0,0,0,0,0, ,-37.4,287.3,958.3,-1,-0.5,-2,25,-37.8936,287.203,957.577,-0.991671,-0.492358,-1.96106,
2026_07_06_16_22_21.417,3.869,47.7,0,0.773,0,0,0,0, ,0,0,0,0,0, ,-39.4,287.7,956.6,-1,-0.4,-2,25,-37.9245,287.222,957.569,-0.992179,-0.489777,-1.96344,
2026_07_06_16_22_21.436,3.869,47.8,0,0.772,0,0,0,0, ,0,0,0,0,0, ,-39,288,958,-1,-0.5,-2,25,-38.0022,287.26,957.553,-0.992655,-0.487353,-1.96566,
2026_07_06_16_22_21.458,3.869,47.7,0,0.772,0,0,0,0, ,0,0,0,0,0, ,-38.4,287.7,956.1,-1,-0.5,-2,25,-38.0447,287.296,957.522,-0.993103,-0.488124,-1.96776,
2026_07_06_16_22_21.477,3.869,47.8,0,0.772,0,0,0,0, ,0,0,0,0,0, ,-37.2,288.6,958,-1,-0.4,-2,25,-38.0298,287.348,957.493,-0.993523,-0.485801,-1.96972,
2026_07_06_16_22_21.496,3.869,47.8,0,0.772,0,0,0,0, ,0,0,0,0,0, ,-37.8,286.2,958,-1,-0.5,-1.9,25,-37.9975,287.351,957.524,-0.993918,-0.483619,-1.96852,
2026_07_06_16_22_21.519,3.869,47.7,0,0.771,0,0,0,0, ,0,0,0,0,0, ,-37.7,286.4,958.7,-1,-0.5,-2,25,-37.9824,287.287,957.575,-0.994289,-0.484617,-1.96739,
2026_07_06_16_22_21.535,3.869,47.7,0,0.772,0,0,0,0, ,0,0,0,0,0, ,-36.6,287.5,958.1,-0.9,-0.5,-1.9,25,-37.9317,287.266,957.625,-0.99159,-0.485555,-1.96633,
2026_07_06_16_22_21.555,3.869,47.6,0,0.772,0,0,0,0, ,0,0,0,0,0, ,-37.9,287.1,956.5,-1,-0.5,-1.9,25,-37.8902,287.269,957.605,-0.989055,-0.486435,-1.96229,
2026_07_06_16_22_21.575,3.869,47.7,0,0.772,0,0,0,0, ,0,0,0,0,0, ,-38,287.4,956.2,-1,-0.5,-2,25,-37.8938,287.267,957.529,-0.989722,-0.487261,-1.96154,
2026_07_06_16_22_21.595,3.869,47.6,0,0.772,0,0,0,0, ,0,0,0,0,0, ,-39.4,286.8,958.8,-1,-0.5,-2,25,-37.9429,287.257,957.527,-0.990349,-0.488038,-1.96388,
2026_07_06_16_22_21.616,3.869,47.7,0,0.772,0,0,0,0, ,0,0,0,0,0, ,-39.3,287.2,957.3,-1,-0.5,-1.9,25,-38.0287,287.242,957.559,-0.990937,-0.488767,-1.96304,
2026_07_06_16_22_21.635,3.869,47.8,0,0.772,0,0,0,0, ,0,0,0,0,0, ,-38.3,287.9,957.2,-1,-0.5,-1.9,25,-38.0757,287.26,957.54,-0.991489,-0.489451,-1.9592,
2026_07_06_16_22_21.654,3.869,47.8,0,0.772,0,0,0,0, ,0,0,0,0,0, ,-37.5,288.5,957,-1,-0.5,-2,25,-38.065,287.318,957.513,-0.992008,-0.490094,-1.95864,
2026_07_06_16_22_21.675,3.869,47.7,0,0.772,0,0,0,0, ,0,0,0,0,0, ,-37.3,288,957.3,-1,-0.4,-2,25,-38.0245,287.374,957.491,-0.992495,-0.487651,-1.96116,
2026_07_06_16_22_21.694,3.869,47.6,0,0.773,0,0,0,0, ,0,0,0,0,0, ,-37.2,286,958.7,-1,-0.5,-2,25,-37.9773,287.352,957.522,-0.992952,-0.485356,-1.96352,
2026_07_06_16_22_21.715,3.869,47.8,0,0.772,0,0,0,0, ,0,0,0,0,0, ,-37.9,285.7,959.2,-1,-0.4,-2,25,-37.9512,287.26,957.609,-0.993382,-0.483202,-1.96575,
2026_07_06_16_22_21.734,3.869,47.6,0,0.773,0,0,0,0, ,0,0,0,0,0, ,-38.2,287.9,958.2,-0.9,-0.5,-1.9,25,-37.9572,287.232,957.675,-0.990738,-0.481179,-1.96479,
2026_07_06_16_22_21.754,3.869,47.7,0,0.773,0,0,0,0, ,0,0,0,0,0, ,-38.3,287.7,956.7,-0.9,-0.5,-2,25,-37.9751,287.267,957.662,-0.985209,-0.482326,-1.96389,
2026_07_06_16_22_21.772,3.869,47.7,0,0.773,0,0,0,0, ,0,0,0,0,0, ,-36.9,289.3,957.1,-1,-0.5,-1.9,25,-37.9522,287.342,957.615,-0.983063,-0.483403,-1.96304,
2026_07_06_16_22_21.793,3.869,47.6,0,0.773,0,0,0,0, ,0,0,0,0,0, ,-36.8,288.9,957.3,-1,-0.5,-1.9,25,-37.8851,287.449,957.59,-0.984095,-0.484414,-1.9592,
2026_07_06_16_22_21.813,3.869,47.7,0,0.771,0,0,0,0, ,0,0,0,0,0, ,-39,287.5,957.1,-1,-0.5,-1.9,25,-37.886,287.495,957.566,-0.985064,-0.485364,-1.95559,
2026_07_06_16_22_21.832,3.869,47.7,0,0.771,0,0,0,0, ,0,0,0,0,0, ,-38.8,287.2,957.7,-1,-0.5,-1.9,25,-37.9478,287.486,957.556,-0.985975,-0.486256,-1.9522,
2026_07_06_16_22_21.853,3.869,47.6,0,0.772,0,0,0,0, ,0,0,0,0,0, ,-38.4,286.6,958.4,-1.1,-0.5,-2,25,-37.9875,287.45,957.586,-0.989876,-0.487093,-1.95207,
2026_07_06_16_22_21.873,3.869,47.6,0,0.773,0,0,0,0, ,0,0,0,0,0, ,-39.3,287.4,956.6,-1,-0.5,-1.9,25,-38.0401,287.423,957.581,-0.99354,-0.48788,-1.95194,
2026_07_06_16_22_21.892,3.869,47.6,0,0.772,0,0,0,0, ,0,0,0,0,0, ,-37.9,287.2,958.6,-1,-0.5,-2,25,-38.0742,287.415,957.582,-0.993934,-0.488618,-1.95182,
2026_07_06_16_22_21.912,3.869,47.5,0,0.772,0,0,0,0, ,0,0,0,0,0, ,-37.7,287.4,956.6,-1,-0.4,-2,25,-38.0575,287.408,957.583,-0.994303,-0.486265,-1.95476,
2026_07_06_16_22_21.931,3.869,47.6,0,0.772,0,0,0,0, ,0,0,0,0,0, ,-38.6,287.5,957.2,-1,-0.5,-2,25,-38.0631,287.411,957.542,-0.99465,-0.484055,-1.95752,
2026_07_06_16_22_21.952,3.869,47.6,0,0.773,0,0,0,0, ,0,0,0,0,0, ,-38.3,287.2,957.6,-1,-0.4,-2,25,-38.0867,287.407,957.533,-0.994976,-0.48198,-1.96011,
2026_07_06_16_22_21.972,3.869,47.6,0,0.773,0,0,0,0, ,0,0,0,0,0, ,-37.4,287.9,958.1,-0.9,-0.4,-2,25,-38.0723,287.416,957.552,-0.992236,-0.476984,-1.96254,
2026_07_06_16_22_21.992,3.869,47.7,0,0.773,0,0,0,0, ,0,0,0,0,0, ,-37.2,289,957.7,-0.9,-0.5,-2,25,-38.0252,287.479,957.573,-0.986615,-0.47534,-1.96482,
2026_07_06_16_22_22.010,3.869,47.5,0,0.773,0,0,0,0, ,0,0,0,0,0, ,-37.3,286.7,957.8,-1,-0.5,-2,25,-37.978,287.501,957.584,-0.984384,-0.476843,-1.96696,
2026_07_06_16_22_22.030,3.869,47.7,0,0.772,0,0,0,0, ,0,0,0,0,0, ,-38.3,286.6,957.3,-1,-0.5,-2,25,-37.9671,287.45,957.582,-0.985335,-0.478254,-1.96898,
2026_07_06_16_22_22.051,3.869,47.7,0,0.771,0,0,0,0, ,0,0,0,0,0, ,-38,285.7,959.1,-1,-0.5,-2,25,-37.9783,287.37,957.62,-0.986229,-0.479579,-1.97087,
2026_07_06_16_22_22.070,3.869,47.5,0,0.773,0,0,0,0, ,0,0,0,0,0, ,-38.2,287.1,958.4,-1,-0.4,-1.9,25,-37.9857,287.311,957.689,-0.987068,-0.477776,-1.9696,
2026_07_06_16_22_22.089,3.869,47.5,0,0.773,0,0,0,0, ,0,0,0,0,0, ,-38.2,287.9,957.2,-1,-0.5,-1.9,25,-37.9987,287.323,957.695,-0.987856,-0.476084,-1.96535,
2026_07_06_16_22_22.110,3.869,47.6,0,0.771,0,0,0,0, ,0,0,0,0,0, ,-39.1,286.2,957,-1,-0.5,-2,25,-38.0384,287.306,957.659,-0.988596,-0.477541,-1.96442,
2026_07_06_16_22_22.129,3.869,47.5,0,0.772,0,0,0,0, ,0,0,0,0,0, ,-37.5,286.3,959.2,-0.9,-0.5,-1.9,25,-38.0544,287.242,957.686,-0.986244,-0.47891,-1.96354,
2026_07_06_16_22_22.150,3.869,47.5,0,0.774,0,0,0,0, ,0,0,0,0,0, ,-38.6,286.7,957.7,-1,-0.5,-1.9,25,-38.0541,287.197,957.733,-0.984036,-0.480195,-1.95967,
2026_07_06_16_22_22.169,3.869,47.5,0,0.773,0,0,0,0, ,0,0,0,0,0, ,-38.3,287.7,958.6,-1,-0.4,-2,25,-38.0782,287.197,957.758,-0.985008,-0.478355,-1.95908,
2026_07_06_16_22_22.188,3.869,47.4,0,0.772,0,0,0,0, ,0,0,0,0,0, ,-37.9,287.5,957.3,-1,-0.5,-1.9,25,-38.0796,287.221,957.77,-0.985922,-0.476627,-1.95853,
2026_07_06_16_22_22.208,3.869,47.4,0,0.772,0,0,0,0, ,0,0,0,0,0, ,-38.2,288.6,958.4,-1,-0.5,-1.9,25,-38.0778,287.272,957.775,-0.98678,-0.478051,-1.95496,
2026_07_06_16_22_22.229,3.869,47.5,0,0.772,0,0,0,0, ,0,0,0,0,0, ,-38.4,287.7,958.8,-1,-0.5,-1.9,25,-38.0913,287.325,957.825,-0.987585,-0.479389,-1.95161,
2026_07_06_16_22_22.251,3.869,47.4,0,0.771,0,0,0,0, ,0,0,0,0,0, ,-37.5,286.2,957.8,-1,-0.5,-2,25,-38.0827,287.302,957.854,-0.988342,-0.480645,-1.95151,
2026_07_06_16_22_22.267,3.869,47.4,0,0.772,0,0,0,0, ,0,0,0,0,0, ,-37.9,286.6,958.7,-1,-0.5,-1.9,25,-38.0594,287.247,957.878,-0.989052,-0.481824,-1.95142,
2026_07_06_16_22_22.288,3.869,47.4,0,0.772,0,0,0,0, ,0,0,0,0,0, ,-37.2,287.5,958.3,-0.9,-0.5,-1.9,25,-38.0283,287.235,957.916,-0.986673,-0.482932,-1.94829,
2026_07_06_16_22_22.307,3.869,47.5,0,0.772,0,0,0,0, ,0,0,0,0,0, ,-37.7,287.2,958.3,-0.9,-0.5,-2,25,-37.9931,287.242,957.939,-0.981391,-0.483972,-1.94839,
2026_07_06_16_22_22.327,3.869,47.5,0,0.772,0,0,0,0, ,0,0,0,0,0, ,-38.5,285.7,957.5,-0.9,-0.5,-2,25,-37.9996,287.194,957.937,-0.976431,-0.484949,-1.95154,
2026_07_06_16_22_22.347,3.869,47.4,0,0.773,0,0,0,0, ,0,0,0,0,0, ,-38.3,287.8,958,-1,-0.5,-2,25,-38.024,287.167,957.926,-0.974821,-0.485866,-1.95449,
2026_07_06_16_22_22.367,3.869,47.5,0,0.772,0,0,0,0, ,0,0,0,0,0, ,-36.8,287.4,957.1,-1,-0.5,-1.9,25,-37.9951,287.193,957.903,-0.976355,-0.486727,-1.95422,
2026_07_06_16_22_22.387,3.869,47.3,0,0.772,0,0,0,0, ,0,0,0,0,0, ,-37.7,288.3,958.4,-1,-0.5,-1.9,25,-37.9497,287.233,957.893,-0.977796,-0.487536,-1.95091,
2026_07_06_16_22_22.407,3.869,47.4,0,0.772,0,0,0,0, ,0,0,0,0,0, ,-36.8,287.1,958.4,-1,-0.5,-2,25,-37.9071,287.262,957.924,-0.979149,-0.488296,-1.95086,
2026_07_06_16_22_22.427,3.869,47.4,0,0.771,0,0,0,0, ,0,0,0,0,0, ,-37.1,287.7,956.7,-1,-0.5,-1.9,25,-37.8488,287.27,957.901,-0.98042,-0.489009,-1.9508,
2026_07_06_16_22_22.446,3.869,47.5,0,0.772,0,0,0,0, ,0,0,0,0,0, ,-39.3,286.8,957.5,-1,-0.4,-2,25,-37.8702,287.269,957.853,-0.981613,-0.486632,-1.95076,
2026_07_06_16_22_22.466,3.869,47.5,0,0.772,0,0,0,0, ,0,0,0,0,0, ,-37.1,286.4,958.7,-1,-0.5,-1.9,25,-37.8903,287.228,957.868,-0.982733,-0.484399,-1.95071,
2026_07_06_16_22_22.485,3.869,47.4,0,0.772,0,0,0,0, ,0,0,0,0,0, ,-37.3,287.1,956.5,-1,-0.5,-1.9,25,-37.8482,287.199,957.851,-0.983785,-0.48535,-1.94762,
2026_07_06_16_22_22.506,3.869,47.4,0,0.772,0,0,0,0, ,0,0,0,0,0, ,-36.3,285.7,957.8,-0.9,-0.5,-2,25,-37.7843,287.15,957.809,-0.981727,-0.486243,-1.94776,
2026_07_06_16_22_22.525,3.869,47.5,0,0.772,0,0,0,0, ,0,0,0,0,0, ,-37.2,287.4,957.8,-1,-0.5,-2,25,-37.7213,287.114,957.808,-0.979793,-0.487081,-1.95095,
2026_07_06_16_22_22.545,3.869,47.4,0,0.772,0,0,0,0, ,0,0,0,0,0, ,-38.8,288.3,957.7,-1,-0.5,-2,25,-37.7383,287.159,957.805,-0.981025,-0.487868,-1.95394,
2026_07_06_16_22_22.565,3.869,47.5,0,0.772,0,0,0,0, ,0,0,0,0,0, ,-38.4,287.8,958.4,-1,-0.5,-1.9,25,-37.7908,287.213,957.819,-0.982181,-0.488608,-1.9537,
2026_07_06_16_22_22.584,3.869,47.3,0,0.772,0,0,0,0, ,0,0,0,0,0, ,-38.6,286.3,958,-0.9,-0.5,-1.9,25,-37.834,287.203,957.843,-0.98022,-0.489302,-1.95042,
2026_07_06_16_22_22.603,3.869,47.4,0,0.771,0,0,0,0, ,0,0,0,0,0, ,-37.9,285.2,958.3,-1,-0.4,-1.9,25,-37.8594,287.115,957.861,-0.978378,-0.486907,-1.94735,
2026_07_06_16_22_22.623,3.869,47.4,0,0.772,0,0,0,0, ,0,0,0,0,0, ,-37.7,287.5,958.3,-1,-0.5,-1.9,25,-37.8557,287.068,957.888,-0.979696,-0.484658,-1.94447,
2026_07_06_16_22_22.643,3.869,47.5,0,0.771,0,0,0,0, ,0,0,0,0,0, ,-38.8,286.7,957.3,-1,-0.5,-1.9,25,-37.8798,287.07,957.883,-0.980933,-0.485593,-1.94176,
2026_07_06_16_22_22.663,3.869,47.4,0,0.771,0,0,0,0, ,0,0,0,0,0, ,-38.4,287.9,958.8,-1,-0.5,-1.9,25,-37.9237,287.084,957.893,-0.982095,-0.486471,-1.93921,
2026_07_06_16_22_22.683,3.869,47.3,0,0.772,0,0,0,0, ,0,0,0,0,0, ,-38.9,287.8,956.7,-0.9,-0.5,-2,25,-37.9679,287.131,957.884,-0.980139,-0.487295,-1.93987,
2026_07_06_16_22_22.704,3.869,47.4,0,0.773,0,0,0,0, ,0,0,0,0,0, ,-37.5,287.3,957.1,-0.9,-0.5,-2,25,-37.9821,287.156,957.824,-0.975256,-0.488069,-1.94353,
2026_07_06_16_22_22.723,3.869,47.4,0,0.772,0,0,0,0, ,0,0,0,0,0, ,-38.2,288.4,957.8,-1,-0.5,-2,25,-37.974,287.198,957.801,-0.973717,-0.488796,-1.94697,
2026_07_06_16_22_22.743,3.869,47.3,0,0.769,0,0,0,0, ,0,0,0,0,0, ,-38.9,286.9,958.3,-1,-0.5,-2,25,-38.0091,287.226,957.817,-0.975318,-0.489479,-1.95021,
2026_07_06_16_22_22.763,3.869,47.3,0,0.772,0,0,0,0, ,0,0,0,0,0, ,-37.8,287.1,957.3,-1,-0.5,-1.9,25,-38.0299,287.212,957.816,-0.976822,-0.49012,-1.95019,
2026_07_06_16_22_22.783,3.869,47.4,0,0.772,0,0,0,0, ,0,0,0,0,0, ,-38,287.5,957.5,-0.9,-0.4,-2,25,-38.022,287.218,957.79,-0.975188,-0.487675,-1.95018,
2026_07_06_16_22_22.802,3.869,47.3,0,0.772,0,0,0,0, ,0,0,0,0,0, ,-37.9,286.9,958,-0.9,-0.5,-2,25,-38.0176,287.216,957.788,-0.970606,-0.48538,-1.95322,
2026_07_06_16_22_22.823,3.869,47.4,0,0.771,0,0,0,0, ,0,0,0,0,0, ,-38.4,287.3,956.9,-1,-0.4,-2,25,-38.0257,287.209,957.767,-0.96935,-0.483224,-1.95607,
2026_07_06_16_22_22.842,3.869,47.3,0,0.772,0,0,0,0, ,0,0,0,0,0, ,-38.4,286.8,957,-1,-0.5,-2,25,-38.0485,287.2,957.717,-0.971218,-0.481199,-1.95875,
2026_07_06_16_22_22.862,3.869,47.4,0,0.773,0,0,0,0, ,0,0,0,0,0, ,-37.1,287.8,958.9,-1,-0.5,-2,25,-38.0303,287.206,957.732,-0.972972,-0.482345,-1.96126,
2026_07_06_16_22_22.882,3.869,47.3,0,0.771,0,0,0,0, ,0,0,0,0,0, ,-37.8,286.9,956.7,-1,-0.5,-1.9,25,-37.9949,287.215,957.736,-0.974619,-0.483421,-1.96057,
2026_07_06_16_22_22.902,3.869,47.3,0,0.772,0,0,0,0, ,0,0,0,0,0, ,-37.1,287.7,957.2,-1,-0.5,-2,25,-37.9617,287.22,957.688,-0.976166,-0.484431,-1.95993,
2026_07_06_16_22_22.921,3.869,47.3,0,0.77,0,0,0,0, ,0,0,0,0,0, ,-37.7,287.8,957.6,-0.9,-0.4,-2,25,-37.9275,287.252,957.67,-0.974571,-0.482333,-1.96237,
2026_07_06_16_22_22.941,3.869,47.3,0,0.771,0,0,0,0, ,0,0,0,0,0, ,-37.5,287.8,956.9,-1,-0.5,-2,25,-37.9075,287.285,957.645,-0.973074,-0.480363,-1.96466,
2026_07_06_16_22_22.961,3.869,47.3,0,0.773,0,0,0,0, ,0,0,0,0,0, ,-38,286.6,957,-1,-0.5,-2,25,-37.8979,287.28,957.602,-0.974715,-0.481559,-1.96682,
2026_07_06_16_22_22.980,3.869,47.2,0,0.772,0,0,0,0, ,0,0,0,0,0, ,-38.3,287.2,958.7,-1,-0.5,-2,25,-37.9133,287.257,957.617,-0.976256,-0.482683,-1.96884,
2026_07_06_16_22_23.000,3.869,47.3,0,0.771,0,0,0,0, ,0,0,0,0,0, ,-37.7,286,958.6,-0.9,-0.4,-1.9,25,-37.9186,287.217,957.68,-0.974656,-0.480691,-1.96769,
2026_07_06_16_22_23.020,3.869,47.2,0,0.772,0,0,0,0, ,0,0,0,0,0, ,-37.3,287.8,956.6,-1,-0.4,-2,25,-37.8931,287.198,957.676,-0.973153,-0.475774,-1.96661,
2026_07_06_16_22_23.039,3.869,47.3,0,0.772,0,0,0,0, ,0,0,0,0,0, ,-36.6,287.8,958.3,-0.9,-0.5,-2,25,-37.8356,287.234,957.662,-0.971742,-0.474204,-1.96865,
2026_07_06_16_22_23.060,3.869,47.2,0,0.773,0,0,0,0, ,0,0,0,0,0, ,-37.4,287.2,957,-0.9,-0.5,-2,25,-37.7847,287.251,957.661,-0.96737,-0.475776,-1.97056,
2026_07_06_16_22_23.079,3.869,47.2,0,0.772,0,0,0,0, ,0,0,0,0,0, ,-37.9,287.2,958.4,-0.9,-0.5,-2,25,-37.7765,287.248,957.663,-0.963265,-0.477252,-1.97235,
2026_07_06_16_22_23.099,3.869,47.3,0,0.771,0,0,0,0, ,0,0,0,0,0, ,-39,288,957.1,-1,-0.5,-1.9,25,-37.8175,287.269,957.669,-0.962457,-0.478638,-1.97099,
2026_07_06_16_22_23.118,3.869,47.3,0,0.771,0,0,0,0, ,0,0,0,0,0, ,-38.6,287.1,958.1,-1,-0.5,-1.9,25,-37.8774,287.286,957.665,-0.964745,-0.47994,-1.96666,
2026_07_06_16_22_23.138,3.869,47.2,0,0.771,0,0,0,0, ,0,0,0,0,0, ,-37.4,287.9,957,-1,-0.5,-2,25,-37.8849,287.299,957.658,-0.966893,-0.481162,-1.96565,
2026_07_06_16_22_23.158,3.869,47.2,0,0.772,0,0,0,0, ,0,0,0,0,0, ,-38.3,286.4,958.8,-1,-0.5,-1.9,25,-37.8827,287.29,957.672,-0.96891,-0.48231,-1.9647,
2026_07_06_16_22_23.179,3.869,47.2,0,0.773,0,0,0,0, ,0,0,0,0,0, ,-38.4,286.8,959.1,-0.9,-0.5,-2,25,-37.9112,287.248,957.75,-0.967758,-0.483388,-1.9638,
2026_07_06_16_22_23.197,3.869,47.2,0,0.771,0,0,0,0, ,0,0,0,0,0, ,-39.1,287.5,957.6,-0.9,-0.5,-2,25,-37.9623,287.242,957.787,-0.963629,-0.4844,-1.96601,
2026_07_06_16_22_23.217,3.869,47.3,0,0.772,0,0,0,0, ,0,0,0,0,0, ,-37.9,285.8,956.4,-0.9,-0.5,-2,25,-37.9951,287.206,957.739,-0.959752,-0.485351,-1.96808,
2026_07_06_16_22_23.237,3.869,47.2,0,0.77,0,0,0,0, ,0,0,0,0,0, ,-37.2,288.2,956.7,-1,-0.5,-2,25,-37.968,287.193,957.666,-0.959157,-0.486244,-1.97002,
2026_07_06_16_22_23.256,3.869,47.2,0,0.772,0,0,0,0, ,0,0,0,0,0, ,-37.7,289.6,957,-0.9,-0.5,-2,25,-37.9364,287.297,957.617,-0.958599,-0.487082,-1.97185,
2026_07_06_16_22_23.276,3.869,47.2,0,0.772,0,0,0,0, ,0,0,0,0,0, ,-37.1,286.8,958.7,-1,-0.5,-1.9,25,-37.9037,287.352,957.631,-0.958075,-0.487869,-1.97052,
2026_07_06_16_22_23.296,3.869,47,0,0.773,0,0,0,0, ,0,0,0,0,0, ,-37.1,287.8,957.6,-1,-0.5,-1.9,25,-37.8547,287.349,957.662,-0.96063,-0.488608,-1.96622,
2026_07_06_16_22_23.317,3.869,47.3,0,0.771,0,0,0,0, ,0,0,0,0,0, ,-37.8,286.8,958.6,-1,-0.5,-2,25,-37.8301,287.346,957.689,-0.963029,-0.489302,-1.96523,
2026_07_06_16_22_23.337,3.869,47,0,0.772,0,0,0,0, ,0,0,0,0,0, ,-37.8,286.1,958.6,-1,-0.5,-2,25,-37.8282,287.292,957.745,-0.965282,-0.489954,-1.96735,
2026_07_06_16_22_23.356,3.869,47.2,0,0.772,0,0,0,0, ,0,0,0,0,0, ,-38,286.9,957,-1,-0.5,-1.9,25,-37.8326,287.243,957.748,-0.967398,-0.490567,-1.96629,
2026_07_06_16_22_23.376,3.869,47,0,0.771,0,0,0,0, ,0,0,0,0,0, ,-38.2,288.4,956.9,-1,-0.4,-1.9,25,-37.8489,287.268,957.699,-0.969384,-0.488094,-1.96225,
2026_07_06_16_22_23.396,3.869,47.2,0,0.771,0,0,0,0, ,0,0,0,0,0, ,-37.9,287.2,956.5,-1,-0.5,-1.9,25,-37.8612,287.301,957.638,-0.97125,-0.485773,-1.95846,
2026_07_06_16_22_23.415,3.869,47,0,0.772,0,0,0,0, ,0,0,0,0,0, ,-38.6,286.3,957,-1,-0.4,-2,25,-37.8849,287.267,957.584,-0.973002,-0.483593,-1.95794,
2026_07_06_16_22_23.434,3.869,47.2,0,0.77,0,0,0,0, ,0,0,0,0,0, ,-38.5,286.6,956,-1,-0.4,-2,25,-37.9254,287.217,957.518,-0.974647,-0.478499,-1.96051,
2026_07_06_16_22_23.455,3.869,47.2,0,0.772,0,0,0,0, ,0,0,0,0,0, ,-39,287.3,958,-1,-0.5,-2,25,-37.9756,287.201,957.487,-0.976192,-0.476763,-1.96291,
2026_07_06_16_22_23.474,3.869,47,0,0.772,0,0,0,0, ,0,0,0,0,0, ,-39.1,287.2,957.7,-1,-0.5,-2,25,-38.0411,287.204,957.509,-0.977643,-0.478179,-1.96517,
2026_07_06_16_22_23.494,3.869,47,0,0.772,0,0,0,0, ,0,0,0,0,0, ,-37.2,288,956.7,-1,-0.5,-2,25,-38.0477,287.228,957.49,-0.979005,-0.479508,-1.9673,
2026_07_06_16_22_23.514,3.869,47,0,0.771,0,0,0,0, ,0,0,0,0,0, ,-38.3,286.8,958.9,-1,-0.5,-1.9,25,-38.0296,287.239,957.509,-0.980285,-0.480757,-1.96624,
2026_07_06_16_22_23.534,3.869,47,0,0.771,0,0,0,0, ,0,0,0,0,0, ,-38.4,285.2,957.7,-1,-0.5,-2,25,-38.0491,287.163,957.557,-0.981486,-0.48193,-1.96525,
2026_07_06_16_22_23.554,3.869,47,0,0.771,0,0,0,0, ,0,0,0,0,0, ,-37.9,287.7,958,-1,-0.4,-1.9,25,-38.0553,287.12,957.575,-0.982614,-0.479984,-1.96432,
2026_07_06_16_22_23.573,3.869,47,0,0.771,0,0,0,0, ,0,0,0,0,0, ,-39.5,288.2,957.5,-1,-0.5,-2,25,-38.0946,287.17,957.586,-0.983674,-0.478157,-1.96345,
2026_07_06_16_22_23.593,3.869,46.9,0,0.772,0,0,0,0, ,0,0,0,0,0, ,-38.4,288,958.2,-0.9,-0.5,-1.9,25,-38.1467,287.227,957.602,-0.981622,-0.479488,-1.96263,
2026_07_06_16_22_23.616,3.869,47,0,0.772,0,0,0,0, ,0,0,0,0,0, ,-38.3,286.6,957.3,-1,-0.5,-2,25,-38.1591,287.231,957.611,-0.979695,-0.480738,-1.96186,
2026_07_06_16_22_23.632,3.869,47,0,0.771,0,0,0,0, ,0,0,0,0,0, ,-38.2,287.7,957.3,-1,-0.5,-2,25,-38.1646,287.226,957.592,-0.980932,-0.481912,-1.96418,
2026_07_06_16_22_23.652,3.869,47,0,0.771,0,0,0,0, ,0,0,0,0,0, ,-37.2,286.9,957.6,-1,-0.5,-1.9,25,-38.1363,287.231,957.583,-0.982094,-0.483014,-1.96332,
2026_07_06_16_22_23.673,3.869,46.9,0,0.772,0,0,0,0, ,0,0,0,0,0, ,-37.3,286.9,957.6,-1.1,-0.5,-1.9,25,-38.0823,287.211,957.584,-0.986232,-0.484049,-1.95946,
2026_07_06_16_22_23.692,3.869,46.9,0,0.771,0,0,0,0, ,0,0,0,0,0, ,-36.8,286.3,957.5,-1,-0.5,-1.9,25,-38.0194,287.173,957.582,-0.990118,-0.485021,-1.95584,
2026_07_06_16_22_23.712,3.869,46.9,0,0.771,0,0,0,0, ,0,0,0,0,0, ,-38,287.2,955.8,-1,-0.5,-2,25,-37.9816,287.148,957.525,-0.99072,-0.485934,-1.95548,
2026_07_06_16_22_23.732,3.869,46.9,0,0.772,0,0,0,0, ,0,0,0,0,0, ,-38.3,287.2,957.5,-0.9,-0.5,-1.9,25,-37.9919,287.151,957.472,-0.988239,-0.486791,-1.95515,
2026_07_06_16_22_23.752,3.869,46.9,0,0.771,0,0,0,0, ,0,0,0,0,0, ,-37.9,288,957.7,-0.9,-0.5,-2,25,-37.9985,287.178,957.48,-0.982862,-0.487596,-1.95483,
2026_07_06_16_22_23.772,3.869,47,0,0.772,0,0,0,0, ,0,0,0,0,0, ,-38.2,286.7,956.7,-0.9,-0.5,-2,25,-38.0016,287.189,957.463,-0.977812,-0.488352,-1.95759,
2026_07_06_16_22_23.791,3.869,47,0,0.772,0,0,0,0, ,0,0,0,0,0, ,-38.3,287.7,957.3,-0.9,-0.4,-2,25,-38.0168,287.189,957.435,-0.973071,-0.486015,-1.96017,
2026_07_06_16_22_23.811,3.869,46.8,0,0.771,0,0,0,0, ,0,0,0,0,0, ,-37.4,287.7,956.7,-1,-0.4,-2,25,-38.0066,287.221,957.408,-0.971665,-0.480773,-1.9626,
2026_07_06_16_22_23.831,3.869,46.9,0,0.771,0,0,0,0, ,0,0,0,0,0, ,-37.5,287.5,958,-0.9,-0.5,-2,25,-37.9727,287.244,957.405,-0.970345,-0.478898,-1.96488,
2026_07_06_16_22_23.851,3.869,46.9,0,0.771,0,0,0,0, ,0,0,0,0,0, ,-38,287.2,958,-1,-0.5,-2,25,-37.9591,287.25,957.441,-0.969105,-0.480184,-1.96702,
2026_07_06_16_22_23.877,3.869,46.9,0,0.772,0,0,0,0, ,0,0,0,0,0, ,-37.5,286.8,957.5,-1,-0.5,-1.9,25,-37.9464,287.235,957.46,-0.970987,-0.481391,-1.96598,
2026_07_06_16_22_23.891,3.869,46.9,0,0.771,0,0,0,0, ,0,0,0,0,0, ,-37.3,286,958,-0.9,-0.4,-2,25,-37.9131,287.184,957.477,-0.969709,-0.479478,-1.96501,
2026_07_06_16_22_23.910,3.869,46.8,0,0.771,0,0,0,0, ,0,0,0,0,0, ,-37.3,287.2,958.7,-1,-0.5,-2,25,-37.8757,287.148,957.531,-0.968508,-0.477682,-1.96714,
2026_07_06_16_22_23.929,3.869,46.8,0,0.77,0,0,0,0, ,0,0,0,0,0, ,-38.3,287.1,956.4,-0.9,-0.5,-1.9,25,-37.8711,287.149,957.532,-0.96738,-0.479042,-1.9661,
2026_07_06_16_22_23.948,3.869,46.8,0,0.771,0,0,0,0, ,0,0,0,0,0, ,-37.1,288.2,957.8,-0.9,-0.5,-2,25,-37.8607,287.179,957.505,-0.963274,-0.480319,-1.96511,
2026_07_06_16_22_23.970,3.869,46.9,0,0.771,0,0,0,0, ,0,0,0,0,0, ,-38.9,286.2,957,-1,-0.5,-2,25,-37.8692,287.18,957.499,-0.962465,-0.481519,-1.96724,
2026_07_06_16_22_23.990,3.869,46.7,0,0.772,0,0,0,0, ,0,0,0,0,0, ,-37.8,288.4,958.7,-0.9,-0.5,-1.9,25,-37.8985,287.188,957.52,-0.961705,-0.482645,-1.96619,
2026_07_06_16_22_24.009,3.869,46.9,0,0.772,0,0,0,0, ,0,0,0,0,0, ,-36.7,287.5,957.8,-1,-0.5,-2,25,-37.859,287.234,957.565,-0.960992,-0.483702,-1.9652,
2026_07_06_16_22_24.029,3.869,46.8,0,0.771,0,0,0,0, ,0,0,0,0,0, ,-37.9,288.2,958.1,-1,-0.5,-1.9,25,-37.8249,287.272,957.588,-0.963369,-0.484695,-1.96428,
2026_07_06_16_22_24.049,3.869,46.8,0,0.771,0,0,0,0, ,0,0,0,0,0, ,-37.9,287.5,958.3,-0.9,-0.5,-1.9,25,-37.8295,287.307,957.626,-0.962554,-0.485628,-1.96036,
2026_07_06_16_22_24.067,3.869,46.9,0,0.771,0,0,0,0, ,0,0,0,0,0, ,-38.9,285.8,958.7,-0.9,-0.5,-2,25,-37.8642,287.267,957.679,-0.958743,-0.486504,-1.95973,
2026_07_06_16_22_24.088,3.869,46.8,0,0.772,0,0,0,0, ,0,0,0,0,0, ,-37.4,286.6,959.1,-1,-0.5,-2,25,-37.8816,287.202,957.753,-0.95821,-0.487326,-1.96218,
2026_07_06_16_22_24.107,3.869,46.8,0,0.772,0,0,0,0, ,0,0,0,0,0, ,-38.2,287.5,958,-1,-0.5,-2,25,-37.8767,287.193,957.802,-0.960756,-0.488099,-1.96449,
2026_07_06_16_22_24.127,3.869,46.9,0,0.771,0,0,0,0, ,0,0,0,0,0, ,-38.3,287.2,957.3,-1,-0.5,-1.9,25,-37.8994,287.202,957.793,-0.963148,-0.488824,-1.9636,
2026_07_06_16_22_24.153,3.869,46.8,0,0.771,0,0,0,0, ,0,0,0,0,0, ,-37.7,287.4,957.7,-0.9,-0.6,-2,25,-37.9056,287.208,957.775,-0.962347,-0.492552,-1.96278,
2026_07_06_16_22_24.170,3.869,46.8,0,0.771,0,0,0,0, ,0,0,0,0,0, ,-38.5,286.9,957.6,-1,-0.5,-1.9,25,-37.9174,287.205,957.767,-0.961594,-0.496053,-1.962,
2026_07_06_16_22_24.186,3.869,46.7,0,0.771,0,0,0,0, ,0,0,0,0,0, ,-38.3,286.6,958.1,-1,-0.5,-1.9,25,-37.9468,287.177,957.772,-0.963935,-0.496293,-1.95822,
2026_07_06_16_22_24.206,3.869,46.8,0,0.771,0,0,0,0, ,0,0,0,0,0, ,-38.2,286.7,958.9,-1,-0.4,-2,25,-37.9653,287.145,957.817,-0.966132,-0.493472,-1.95772,
2026_07_06_16_22_24.226,3.869,46.9,0,0.772,0,0,0,0, ,0,0,0,0,0, ,-39.5,286,957.1,-1,-0.5,-1.9,25,-38.0192,287.096,957.828,-0.968196,-0.490823,-1.95725,
2026_07_06_16_22_24.246,3.869,46.8,0,0.77,0,0,0,0, ,0,0,0,0,0, ,-39.3,286,957.8,-1,-0.5,-1.9,25,-38.1033,287.03,957.805,-0.970134,-0.491382,-1.95376,
2026_07_06_16_22_24.265,3.869,46.8,0,0.772,0,0,0,0, ,0,0,0,0,0, ,-38.3,286.9,957.1,-1,-0.5,-1.9,25,-38.1458,286.994,957.783,-0.971954,-0.491907,-1.95048,
2026_07_06_16_22_24.286,3.869,46.7,0,0.772,0,0,0,0, ,0,0,0,0,0, ,-37.9,287.3,957,-1,-0.4,-2,25,-38.143,287.001,957.738,-0.973663,-0.489354,-1.95045,
2026_07_06_16_22_24.305,3.869,46.7,0,0.771,0,0,0,0, ,0,0,0,0,0, ,-37.8,287.4,957.1,-0.9,-0.5,-2,25,-38.1251,287.022,957.696,-0.972221,-0.486956,-1.95347,
2026_07_06_16_22_24.325,3.869,46.6,0,0.77,0,0,0,0, ,0,0,0,0,0, ,-37.7,286.4,957.2,-1,-0.5,-1.9,25,-38.1023,287.015,957.663,-0.970867,-0.48775,-1.95326,
2026_07_06_16_22_24.345,3.869,46.7,0,0.771,0,0,0,0, ,0,0,0,0,0, ,-38.4,288.8,956.7,-0.9,-0.5,-2,25,-38.0991,287.05,957.62,-0.969595,-0.488497,-1.95306,
2026_07_06_16_22_24.365,3.869,46.7,0,0.772,0,0,0,0, ,0,0,0,0,0, ,-37.8,287.1,957.2,-1,-0.5,-1.9,25,-38.0992,287.105,957.579,-0.968401,-0.489198,-1.95288,
2026_07_06_16_22_24.385,3.869,46.7,0,0.771,0,0,0,0, ,0,0,0,0,0, ,-38.8,287.9,957.3,-1,-0.5,-2,25,-38.1114,287.129,957.559,-0.970327,-0.489856,-1.9527,
2026_07_06_16_22_24.403,3.869,46.6,0,0.772,0,0,0,0, ,0,0,0,0,0, ,-37.8,287.9,957.5,-1,-0.5,-1.9,25,-38.1229,287.176,957.549,-0.972135,-0.490474,-1.95254,
2026_07_06_16_22_24.424,3.869,46.8,0,0.771,0,0,0,0, ,0,0,0,0,0, ,-38.4,287.3,957.2,-1,-0.5,-2,25,-38.1215,287.202,957.537,-0.973833,-0.491055,-1.95238,
2026_07_06_16_22_24.444,3.869,46.6,0,0.771,0,0,0,0, ,0,0,0,0,0, ,-38.5,287.2,958.6,-1,-0.5,-1.9,25,-38.1415,287.205,957.559,-0.975428,-0.4916,-1.95224,
2026_07_06_16_22_24.464,3.869,46.7,0,0.771,0,0,0,0, ,0,0,0,0,0, ,-38.3,286.6,959.5,-1,-0.5,-2,25,-38.1573,287.186,957.65,-0.976925,-0.492112,-1.9521,
2026_07_06_16_22_24.484,3.869,46.8,0,0.772,0,0,0,0, ,0,0,0,0,0, ,-37.8,286.6,957.2,-1,-0.5,-1.9,25,-38.1507,287.151,957.693,-0.978331,-0.492592,-1.95197,
2026_07_06_16_22_24.505,3.869,46.6,0,0.77,0,0,0,0, ,0,0,0,0,0, ,-36.9,287.1,957,-1,-0.5,-1.9,25,-38.1019,287.132,957.657,-0.979652,-0.493044,-1.94881,
2026_07_06_16_22_24.523,3.869,46.7,0,0.771,0,0,0,0, ,0,0,0,0,0, ,-37.9,286.3,956.9,-1,-0.5,-1.8,25,-38.0592,287.106,957.613,-0.980892,-0.493468,-1.94278,
2026_07_06_16_22_24.542,3.869,46.7,0,0.773,0,0,0,0, ,0,0,0,0,0, ,-38.5,285.8,956.7,-1,-0.4,-1.9,25,-38.0677,287.042,957.564,-0.982056,-0.490819,-1.93713,
2026_07_06_16_22_24.561,3.869,46.6,0,0.772,0,0,0,0, ,0,0,0,0,0, ,-37.8,287.7,957.1,-1,-0.5,-2,25,-38.0728,287.024,957.523,-0.983149,-0.488331,-1.93791,
2026_07_06_16_22_24.582,3.869,46.7,0,0.773,0,0,0,0, ,0,0,0,0,0, ,-37.4,286.1,955.9,-0.9,-0.6,-1.9,25,-38.0439,287.016,957.461,-0.981129,-0.492089,-1.93865,
2026_07_06_16_22_24.601,3.869,46.6,0,0.772,0,0,0,0, ,0,0,0,0,0, ,-37.4,286.1,958.2,-0.9,-0.5,-2,25,-38.0047,286.96,957.436,-0.976186,-0.495618,-1.93934,
2026_07_06_16_22_24.622,3.869,46.5,0,0.771,0,0,0,0, ,0,0,0,0,0, ,-37.3,285.7,956.9,-1,-0.5,-1.9,25,-37.9648,286.896,957.443,-0.97459,-0.495885,-1.93999,
2026_07_06_16_22_24.642,3.869,46.6,0,0.771,0,0,0,0, ,0,0,0,0,0, ,-39,287.2,958.8,-0.9,-0.5,-1.9,25,-37.9761,286.869,957.468,-0.973091,-0.496136,-1.93755,
2026_07_06_16_22_24.661,3.869,46.7,0,0.771,0,0,0,0, ,0,0,0,0,0, ,-37.1,287.3,957.2,-1,-0.5,-2,25,-37.9806,286.892,957.5,-0.971684,-0.496372,-1.93831,
2026_07_06_16_22_24.682,3.869,46.7,0,0.772,0,0,0,0, ,0,0,0,0,0, ,-38.8,286.4,957.6,-0.9,-0.4,-2,25,-37.9787,286.889,957.494,-0.970363,-0.493546,-1.94207,
2026_07_06_16_22_24.702,3.869,46.6,0,0.771,0,0,0,0, ,0,0,0,0,0, ,-37.4,287.5,956.7,-1,-0.5,-1.9,25,-37.9861,286.893,957.473,-0.969122,-0.490892,-1.94256,
2026_07_06_16_22_24.720,3.869,46.7,0,0.771,0,0,0,0, ,0,0,0,0,0, ,-38.2,287.7,956.5,-1,-0.5,-1.9,25,-37.9748,286.936,957.42,-0.971004,-0.491447,-1.93996,
2026_07_06_16_22_24.744,3.869,46.6,0,0.771,0,0,0,0, ,0,0,0,0,0, ,-38.3,286.6,955.8,-1,-0.5,-1.9,25,-37.9916,286.949,957.343,-0.972771,-0.491968,-1.93753,
2026_07_06_16_22_24.762,3.869,46.6,0,0.773,0,0,0,0, ,0,0,0,0,0, ,-38.4,286.4,958.2,-1,-0.5,-1.9,25,-38.0134,286.922,957.322,-0.97443,-0.492458,-1.93524,
2026_07_06_16_22_24.780,3.869,46.7,0,0.77,0,0,0,0, ,0,0,0,0,0, ,-38.2,286.6,956.7,-1,-0.5,-2,25,-38.0309,286.896,957.329,-0.975988,-0.492917,-1.93614,
2026_07_06_16_22_24.800,3.869,46.6,0,0.771,0,0,0,0, ,0,0,0,0,0, ,-38.4,286.7,957.7,-1,-0.4,-1.9,25,-38.0473,286.881,957.322,-0.977451,-0.490302,-1.93698,
2026_07_06_16_22_24.820,3.869,46.6,0,0.771,0,0,0,0, ,0,0,0,0,0, ,-39,287.2,957,-0.9,-0.5,-1.9,25,-38.087,286.885,957.323,-0.975779,-0.487846,-1.93473,
2026_07_06_16_22_24.840,3.869,46.6,0,0.771,0,0,0,0, ,0,0,0,0,0, ,-38.2,287.5,958.7,-1,-0.5,-2,25,-38.1183,286.914,957.355,-0.974208,-0.488587,-1.93566,
2026_07_06_16_22_24.859,3.869,46.6,0,0.771,0,0,0,0, ,0,0,0,0,0, ,-37.9,286.1,957.5,-1,-0.5,-2,25,-38.1141,286.907,957.401,-0.975779,-0.489282,-1.93958,
2026_07_06_16_22_24.878,3.869,46.5,0,0.772,0,0,0,0, ,0,0,0,0,0, ,-37.3,287.3,955.4,-1,-0.5,-2,25,-38.0828,286.894,957.343,-0.977255,-0.489935,-1.94326,
2026_07_06_16_22_24.900,3.869,46.5,0,0.771,0,0,0,0, ,0,0,0,0,0, ,-38.4,286.6,957.5,-0.9,-0.5,-1.9,25,-38.0686,286.897,957.288,-0.975594,-0.490549,-1.94367,
2026_07_06_16_22_24.919,3.869,46.5,0,0.771,0,0,0,0, ,0,0,0,0,0, ,-37.2,286.8,956.4,-1,-0.5,-2,25,-38.0522,286.885,957.268,-0.974035,-0.491125,-1.94406,
2026_07_06_16_22_24.939,3.869,46.6,0,0.772,0,0,0,0, ,0,0,0,0,0, ,-38.5,287.7,958.6,-1,-0.5,-2,25,-38.0399,286.908,957.282,-0.975617,-0.491666,-1.94747,
2026_07_06_16_22_24.958,3.869,46.5,0,0.772,0,0,0,0, ,0,0,0,0,0, ,-37.9,287.7,957.2,-0.9,-0.5,-1.9,25,-38.0497,286.956,957.32,-0.974056,-0.492173,-1.94762,
2026_07_06_16_22_24.977,3.869,46.6,0,0.771,0,0,0,0, ,0,0,0,0,0, ,-38,286.8,958,-1,-0.5,-2,25,-38.0436,286.974,957.337,-0.97259,-0.49265,-1.94777,
2026_07_06_16_22_24.998,3.869,46.6,0,0.772,0,0,0,0, ,0,0,0,0,0, ,-39.3,286.2,958.2,-1,-0.5,-1.9,25,-38.0806,286.945,957.383,-0.97426,-0.493098,-1.9479,
2026_07_06_16_22_25.018,3.869,46.5,0,0.77,0,0,0,0, ,0,0,0,0,0, ,-37.9,287.3,958.2,-1,-0.5,-1.9,25,-38.1122,286.933,957.433,-0.975829,-0.493519,-1.94498,
2026_07_06_16_22_25.037,3.869,46.6,0,0.773,0,0,0,0, ,0,0,0,0,0, ,-37.9,286.6,957.8,-0.9,-0.5,-1.9,25,-38.0993,286.934,957.468,-0.974255,-0.493914,-1.94224,
2026_07_06_16_22_25.057,3.869,46.6,0,0.771,0,0,0,0, ,0,0,0,0,0, ,-36.8,288.2,957.1,-1,-0.5,-1.9,25,-38.0536,286.963,957.466,-0.972777,-0.494285,-1.93967,
2026_07_06_16_22_25.077,3.869,46.6,0,0.771,0,0,0,0, ,0,0,0,0,0, ,-39.4,287.5,957.1,-1,-0.5,-1.9,25,-38.0564,287.017,957.444,-0.974436,-0.494633,-1.93725,
2026_07_06_16_22_25.096,3.869,46.5,0,0.771,0,0,0,0, ,0,0,0,0,0, ,-38.5,287.7,958.1,-0.9,-0.5,-1.9,25,-38.1109,287.052,957.454,-0.972947,-0.49496,-1.93498,
2026_07_06_16_22_25.117,3.869,46.6,0,0.771,0,0,0,0, ,0,0,0,0,0, ,-37.9,286.7,955.5,-1,-0.4,-2,25,-38.1163,287.061,957.414,-0.971548,-0.49222,-1.9359,
2026_07_06_16_22_25.136,3.869,46.6,0,0.771,0,0,0,0, ,0,0,0,0,0, ,-38.4,286.8,956.6,-1,-0.5,-1.9,25,-38.1184,287.042,957.331,-0.973282,-0.489647,-1.93676,
2026_07_06_16_22_25.156,3.869,46.4,0,0.773,0,0,0,0, ,0,0,0,0,0, ,-37.7,287.5,957.5,-1,-0.5,-1.9,25,-38.1142,287.049,957.314,-0.97491,-0.490278,-1.93452,
2026_07_06_16_22_25.176,3.869,46.5,0,0.771,0,0,0,0, ,0,0,0,0,0, ,-37.3,287.2,957.2,-1,-0.5,-1.9,25,-38.0768,287.067,957.316,-0.976439,-0.490871,-1.93241,
2026_07_06_16_22_25.196,3.869,46.5,0,0.771,0,0,0,0, ,0,0,0,0,0, ,-37.7,287.7,956.6,-1,-0.5,-1.9,25,-38.0416,287.09,957.29,-0.977875,-0.491427,-1.93044,
2026_07_06_16_22_25.216,3.869,46.5,0,0.77,0,0,0,0, ,0,0,0,0,0, ,-37.8,286.2,957.2,-0.9,-0.4,-2,25,-38.0239,287.082,957.267,-0.976176,-0.488903,-1.93163,
2026_07_06_16_22_25.235,3.869,46.5,0,0.771,0,0,0,0, ,0,0,0,0,0, ,-39.3,285.2,957.5,-0.9,-0.5,-2,25,-38.0559,286.998,957.272,-0.971534,-0.486532,-1.9358,
2026_07_06_16_22_25.254,3.869,46.5,0,0.772,0,0,0,0, ,0,0,0,0,0, ,-37.2,288.4,956.6,-0.9,-0.5,-2,25,-38.0678,286.986,957.258,-0.967175,-0.487353,-1.93971,
2026_07_06_16_22_25.274,3.869,46.5,0,0.771,0,0,0,0, ,0,0,0,0,0, ,-37.7,287.5,955.8,-1,-0.5,-1.9,25,-38.0301,287.044,957.194,-0.966129,-0.488123,-1.94034,
2026_07_06_16_22_25.295,3.869,46.5,0,0.771,0,0,0,0, ,0,0,0,0,0, ,-38.6,286.7,956.9,-1.1,-0.5,-1.9,25,-38.0374,287.048,957.142,-0.97124,-0.488847,-1.93788,
2026_07_06_16_22_25.315,3.869,46.5,0,0.771,0,0,0,0, ,0,0,0,0,0, ,-38.6,288,956.4,-1,-0.6,-2,25,-38.0717,287.066,957.112,-0.976039,-0.492574,-1.93862,
2026_07_06_16_22_25.333,3.869,46.5,0,0.771,0,0,0,0, ,0,0,0,0,0, ,-37.8,286.9,957.5,-1,-0.5,-2,25,-38.0795,287.09,957.102,-0.977499,-0.496073,-1.94236,
2026_07_06_16_22_25.354,3.869,46.4,0,0.772,0,0,0,0, ,0,0,0,0,0, ,-38.8,286.8,957.2,-0.9,-0.5,-2,25,-38.093,287.075,957.118,-0.975823,-0.496312,-1.94587,
2026_07_06_16_22_25.374,3.869,46.4,0,0.771,0,0,0,0, ,0,0,0,0,0, ,-38,287.3,957.5,-1,-0.4,-2,25,-38.1117,287.073,957.132,-0.97425,-0.49349,-1.94917,
2026_07_06_16_22_25.393,3.869,46.5,0,0.771,0,0,0,0, ,0,0,0,0,0, ,-37.3,288.4,957.7,-1,-0.5,-1.9,25,-38.0835,287.121,957.16,-0.975819,-0.49084,-1.94922,
2026_07_06_16_22_25.414,3.869,46.5,0,0.771,0,0,0,0, ,0,0,0,0,0, ,-38,288.4,957,-1,-0.4,-1.9,25,-38.0571,287.199,957.172,-0.977292,-0.488351,-1.94622,
2026_07_06_16_22_25.433,3.869,46.4,0,0.771,0,0,0,0, ,0,0,0,0,0, ,-38.8,286.4,957.5,-1,-0.4,-2,25,-38.078,287.211,957.177,-0.978676,-0.482967,-1.94645,
2026_07_06_16_22_25.452,3.869,46.4,0,0.771,0,0,0,0, ,0,0,0,0,0, ,-39.1,287.3,956.5,-1,-0.5,-2,25,-38.1311,287.189,957.166,-0.979976,-0.480958,-1.94971,
2026_07_06_16_22_25.471,3.869,46.4,0,0.771,0,0,0,0, ,0,0,0,0,0, ,-37.7,287.2,957.3,-1,-0.5,-2,25,-38.1475,287.193,957.15,-0.981196,-0.482119,-1.95278,
2026_07_06_16_22_25.492,3.869,46.4,0,0.771,0,0,0,0, ,0,0,0,0,0, ,-37.4,287.4,957.7,-0.9,-0.5,-1.9,25,-38.1111,287.199,957.171,-0.979295,-0.483208,-1.95261,
2026_07_06_16_22_25.511,3.869,46.4,0,0.772,0,0,0,0, ,0,0,0,0,0, ,-36.9,286.1,959.2,-1,-0.4,-1.9,25,-38.0525,287.172,957.249,-0.97751,-0.481185,-1.9494,
2026_07_06_16_22_25.532,3.869,46.4,0,0.771,0,0,0,0, ,0,0,0,0,0, ,-38.2,287.1,957.6,-1,-0.5,-1.9,25,-38.0219,287.137,957.319,-0.97888,-0.479284,-1.94639,
2026_07_06_16_22_25.552,3.869,46.5,0,0.772,0,0,0,0, ,0,0,0,0,0, ,-38,287.9,958,-1,-0.5,-2,25,-38.0267,287.159,957.348,-0.980167,-0.480547,-1.94661,
2026_07_06_16_22_25.571,3.869,46.4,0,0.771,0,0,0,0, ,0,0,0,0,0, ,-38.2,286.9,957.3,-1,-0.5,-2,25,-38.0311,287.174,957.367,-0.981376,-0.481732,-1.94987,
2026_07_06_16_22_25.591,3.869,46.3,0,0.772,0,0,0,0, ,0,0,0,0,0, ,-38,286.7,958.7,-1,-0.4,-2,25,-38.0353,287.151,957.405,-0.982511,-0.479799,-1.95292,
2026_07_06_16_22_25.611,3.869,46.3,0,0.772,0,0,0,0, ,0,0,0,0,0, ,-37.5,287.7,958,-0.9,-0.4,-2,25,-38.018,287.154,957.463,-0.98053,-0.474936,-1.95579,
2026_07_06_16_22_25.631,3.869,46.4,0,0.771,0,0,0,0, ,0,0,0,0,0, ,-37.8,287.3,957.3,-1,-0.4,-1.9,25,-37.9955,287.175,957.474,-0.978669,-0.470369,-1.95544,
2026_07_06_16_22_25.650,3.869,46.4,0,0.771,0,0,0,0, ,0,0,0,0,0, ,-38.6,288.2,957.6,-1,-0.5,-1.9,25,-38.008,287.21,957.473,-0.979969,-0.469128,-1.95206,
2026_07_06_16_22_25.671,3.869,46.4,0,0.772,0,0,0,0, ,0,0,0,0,0, ,-38.5,287.9,957.1,-1,-0.5,-2,25,-38.041,287.261,957.465,-0.98119,-0.471009,-1.95193,
2026_07_06_16_22_25.690,3.869,46.4,0,0.77,0,0,0,0, ,0,0,0,0,0, ,-38.9,287.3,957.6,-1,-0.5,-1.9,25,-38.0812,287.282,957.458,-0.982336,-0.472776,-1.95182,
2026_07_06_16_22_25.710,3.869,46.3,0,0.771,0,0,0,0, ,0,0,0,0,0, ,-38.4,288,958.7,-1,-0.5,-1.9,25,-38.1158,287.304,957.5,-0.983412,-0.474435,-1.94866,
2026_07_06_16_22_25.729,3.869,46.4,0,0.771,0,0,0,0, ,0,0,0,0,0, ,-38.2,287.4,957.8,-1,-0.5,-2,25,-38.1271,287.328,957.546,-0.984423,-0.475993,-1.94874,
2026_07_06_16_22_25.749,3.869,46.3,0,0.771,0,0,0,0, ,0,0,0,0,0, ,-37.3,287.2,957.2,-0.9,-0.5,-2,25,-38.1041,287.327,957.543,-0.982325,-0.477456,-1.95186,
2026_07_06_16_22_25.770,3.869,46.3,0,0.77,0,0,0,0, ,0,0,0,0,0, ,-37.8,287.2,956.4,-1,-0.5,-1.9,25,-38.0703,287.319,957.498,-0.980356,-0.47883,-1.95175,
2026_07_06_16_22_25.789,3.869,46.3,0,0.772,0,0,0,0, ,0,0,0,0,0, ,-39.4,287.9,957.3,-0.9,-0.5,-2,25,-38.1026,287.333,957.459,-0.978506,-0.48012,-1.95164,
2026_07_06_16_22_25.808,3.869,46.3,0,0.771,0,0,0,0, ,0,0,0,0,0, ,-38.8,288.5,957,-1,-0.5,-1.9,25,-38.1634,287.386,957.44,-0.976769,-0.481331,-1.95154,
2026_07_06_16_22_25.828,3.869,46.4,0,0.771,0,0,0,0, ,0,0,0,0,0, ,-37.8,286.9,958.3,-1,-0.5,-2,25,-38.1717,287.405,957.453,-0.978184,-0.482469,-1.95145,
2026_07_06_16_22_25.849,3.869,46.3,0,0.77,0,0,0,0, ,0,0,0,0,0, ,-37.1,286.1,957.1,-1,-0.5,-1.9,25,-38.1277,287.35,957.468,-0.979514,-0.483537,-1.95136,
2026_07_06_16_22_25.868,3.869,46.2,0,0.771,0,0,0,0, ,0,0,0,0,0, ,-36.7,287.1,957.6,-0.9,-0.4,-2,25,-38.0529,287.304,957.46,-0.977715,-0.481493,-1.95128,
2026_07_06_16_22_25.889,3.869,46.3,0,0.771,0,0,0,0, ,0,0,0,0,0, ,-36.3,287.4,956.6,-1,-0.5,-2,25,-37.9583,287.301,957.438,-0.976026,-0.479574,-1.95425,
2026_07_06_16_22_25.908,3.869,46.2,0,0.772,0,0,0,0, ,0,0,0,0,0, ,-37.9,287.1,957.5,-1,-0.5,-1.9,25,-37.906,287.298,957.415,-0.977487,-0.480819,-1.95399,
2026_07_06_16_22_25.928,3.869,46.3,0,0.771,0,0,0,0, ,0,0,0,0,0, ,-36.9,286.9,957.3,-1,-0.5,-1.9,25,-37.8751,287.28,957.414,-0.978859,-0.481988,-1.9507,
2026_07_06_16_22_25.947,3.869,46.2,0,0.771,0,0,0,0, ,0,0,0,0,0, ,-38.6,287.7,958,-0.9,-0.5,-1.9,25,-37.8675,287.281,957.428,-0.977101,-0.483085,-1.94761,
2026_07_06_16_22_25.968,3.869,46.3,0,0.772,0,0,0,0, ,0,0,0,0,0, ,-38.9,286.7,957.8,-1,-0.5,-1.9,25,-37.9213,287.276,957.457,-0.975449,-0.484116,-1.94471,
2026_07_06_16_22_25.987,3.869,46.2,0,0.771,0,0,0,0, ,0,0,0,0,0, ,-37.3,287.2,956.1,-0.9,-0.5,-1.9,25,-37.9322,287.256,957.426,-0.973898,-0.485084,-1.94198,
2026_07_06_16_22_26.010,3.869,46.3,0,0.771,0,0,0,0, ,0,0,0,0,0, ,-37.5,287.1,957.8,-0.9,-0.4,-2,25,-37.8998,287.25,957.397,-0.969395,-0.482946,-1.94247,
2026_07_06_16_22_26.029,3.869,46.3,0,0.773,0,0,0,0, ,0,0,0,0,0, ,-36.8,287.2,957.7,-1,-0.5,-2,25,-37.8541,287.244,957.419,-0.968213,-0.480938,-1.94598,
2026_07_06_16_22_26.047,3.869,46.3,0,0.77,0,0,0,0, ,0,0,0,0,0, ,-38.3,286.6,957.3,-1,-0.5,-1.9,25,-37.8355,287.223,957.424,-0.97015,-0.4821,-1.94622,
2026_07_06_16_22_26.066,3.869,46.2,0,0.771,0,0,0,0, ,0,0,0,0,0, ,-39.3,286.8,958.2,-1,-0.5,-1.9,25,-37.8943,287.191,957.443,-0.971969,-0.483191,-1.94341,
2026_07_06_16_22_26.086,3.869,46.3,0,0.771,0,0,0,0, ,0,0,0,0,0, ,-39,286.3,957.8,-1,-0.5,-1.9,25,-37.9708,287.152,957.477,-0.973677,-0.484215,-1.94076,
2026_07_06_16_22_26.105,3.869,46.2,0,0.77,0,0,0,0, ,0,0,0,0,0, ,-38.2,286.4,958.2,-1,-0.5,-1.9,25,-38.0092,287.103,957.509,-0.975281,-0.485177,-1.93828,
2026_07_06_16_22_26.124,3.869,46.2,0,0.77,0,0,0,0, ,0,0,0,0,0, ,-37.8,287.5,957.2,-0.9,-0.5,-1.9,25,-38.0086,287.094,957.521,-0.973741,-0.48608,-1.93594,
2026_07_06_16_22_26.146,3.869,46.3,0,0.771,0,0,0,0, ,0,0,0,0,0, ,-38,286.9,956.2,-0.9,-0.5,-1.9,25,-38.002,287.1,957.471,-0.969247,-0.486929,-1.93375,
2026_07_06_16_22_26.165,3.869,46.2,0,0.771,0,0,0,0, ,0,0,0,0,0, ,-37.8,287.1,955.9,-1,-0.6,-1.9,25,-37.9958,287.094,957.384,-0.968074,-0.490772,-1.9317,
2026_07_06_16_22_26.185,3.869,46.2,0,0.771,0,0,0,0, ,0,0,0,0,0, ,-37.2,286.8,956.6,-1,-0.5,-2,25,-37.9656,287.085,957.315,-0.97002,-0.494381,-1.93281,
2026_07_06_16_22_26.204,3.869,46.2,0,0.771,0,0,0,0, ,0,0,0,0,0, ,-37.2,286.9,957.1,-1,-0.5,-2,25,-37.9189,287.071,957.287,-0.971847,-0.494724,-1.93691,
2026_07_06_16_22_26.225,3.869,46.2,0,0.771,0,0,0,0, ,0,0,0,0,0, ,-38.8,288.2,956.5,-1,-0.5,-1.9,25,-37.9239,287.1,957.257,-0.973562,-0.495045,-1.9377,
2026_07_06_16_22_26.244,3.869,46.2,0,0.771,0,0,0,0, ,0,0,0,0,0, ,-36.3,287.4,958.6,-1,-0.5,-2,25,-37.9011,287.143,957.275,-0.975173,-0.495347,-1.93845,
2026_07_06_16_22_26.263,3.869,46.2,0,0.771,0,0,0,0, ,0,0,0,0,0, ,-37.7,287.4,958.8,-1,-0.5,-1.9,25,-37.8462,287.158,957.362,-0.976686,-0.495631,-1.93916,
2026_07_06_16_22_26.284,3.869,46.2,0,0.77,0,0,0,0, ,0,0,0,0,0, ,-36.3,287.4,957.7,-0.9,-0.5,-1.9,25,-37.7946,287.173,957.416,-0.97506,-0.495897,-1.93677,
2026_07_06_16_22_26.304,3.869,46.1,0,0.772,0,0,0,0, ,0,0,0,0,0, ,-38.2,286.3,957.5,-1,-0.5,-1.9,25,-37.7614,287.153,957.427,-0.973533,-0.496147,-1.93453,
2026_07_06_16_22_26.323,3.869,46.2,0,0.771,0,0,0,0, ,0,0,0,0,0, ,-38.6,286.3,957.6,-1,-0.5,-2,25,-37.8003,287.101,957.435,-0.975146,-0.496382,-1.93547,
2026_07_06_16_22_26.343,3.869,46.1,0,0.77,0,0,0,0, ,0,0,0,0,0, ,-37.8,286.7,958.2,-1,-0.4,-1.9,25,-37.8247,287.065,957.463,-0.97666,-0.493555,-1.93636,
2026_07_06_16_22_26.362,3.869,46.2,0,0.772,0,0,0,0, ,0,0,0,0,0, ,-38.3,286.6,958.1,-1,-0.5,-1.9,25,-37.8384,287.039,957.505,-0.978083,-0.490901,-1.93414,
2026_07_06_16_22_26.383,3.869,46.2,0,0.771,0,0,0,0, ,0,0,0,0,0, ,-37.7,287.2,959.1,-0.9,-0.4,-1.9,25,-37.8483,287.031,957.572,-0.976371,-0.488409,-1.93206,
2026_07_06_16_22_26.402,3.869,46.1,0,0.772,0,0,0,0, ,0,0,0,0,0, ,-37.3,286.4,958.1,-1,-0.5,-1.9,25,-37.827,287.017,957.634,-0.974764,-0.486068,-1.93011,
2026_07_06_16_22_26.421,3.869,46.1,0,0.771,0,0,0,0, ,0,0,0,0,0, ,-39.4,286.9,956.9,-1,-0.5,-2,25,-37.8589,286.995,957.626,-0.976302,-0.486917,-1.93132,
2026_07_06_16_22_26.442,3.869,46.2,0,0.771,0,0,0,0, ,0,0,0,0,0, ,-38.5,286.9,958.3,-0.9,-0.5,-1.9,25,-37.9254,286.989,957.624,-0.974699,-0.487714,-1.93246,
2026_07_06_16_22_26.461,3.869,46.2,0,0.772,0,0,0,0, ,0,0,0,0,0, ,-37.5,285.4,957.5,-0.9,-0.4,-1.9,25,-37.9299,286.938,957.641,-0.970147,-0.485416,-1.93048,
2026_07_06_16_22_26.481,3.869,46.1,0,0.771,0,0,0,0, ,0,0,0,0,0, ,-38,286.9,955.8,-1,-0.4,-2,25,-37.919,286.89,957.581,-0.96892,-0.480211,-1.93167,
2026_07_06_16_22_26.500,3.869,46.1,0,0.771,0,0,0,0, ,0,0,0,0,0, ,-36.9,288,956.1,-0.9,-0.5,-1.9,25,-37.8904,286.924,957.481,-0.967767,-0.47837,-1.93279,
2026_07_06_16_22_26.521,3.869,46,0,0.771,0,0,0,0, ,0,0,0,0,0, ,-37.9,286.9,958.7,-0.9,-0.4,-2,25,-37.8605,286.956,957.477,-0.963637,-0.476641,-1.93384,
2026_07_06_16_22_26.540,3.869,46.1,0,0.769,0,0,0,0, ,0,0,0,0,0, ,-38,286.3,956.7,-1,-0.5,-2,25,-37.866,286.934,957.49,-0.962806,-0.475018,-1.93787,
2026_07_06_16_22_26.561,3.869,46.1,0,0.77,0,0,0,0, ,0,0,0,0,0, ,-38,287.2,956.9,-1,-0.5,-2,25,-37.8741,286.923,957.448,-0.965073,-0.47654,-1.94165,
2026_07_06_16_22_26.580,3.869,46.1,0,0.771,0,0,0,0, ,0,0,0,0,0, ,-37.4,286.2,956.7,-1,-0.5,-2,25,-37.8635,286.909,957.409,-0.967201,-0.47797,-1.94521,
2026_07_06_16_22_26.601,3.869,46.1,0,0.77,0,0,0,0, ,0,0,0,0,0, ,-37.3,286.6,958.8,-0.9,-0.5,-1.9,25,-37.8322,286.878,957.429,-0.966153,-0.479312,-1.9455,
2026_07_06_16_22_26.620,3.869,46,0,0.771,0,0,0,0, ,0,0,0,0,0, ,-37.2,287.3,957.6,-1,-0.5,-1.9,25,-37.7968,286.883,957.476,-0.965169,-0.480573,-1.94273,
2026_07_06_16_22_26.640,3.869,46.1,0,0.771,0,0,0,0, ,0,0,0,0,0, ,-38.9,289.1,956.7,-0.9,-0.5,-2,25,-37.8122,286.963,957.456,-0.964244,-0.481757,-1.94317,
2026_07_06_16_22_26.660,3.869,46,0,0.771,0,0,0,0, ,0,0,0,0,0, ,-38.9,287.8,957,-1,-0.4,-1.9,25,-37.8785,287.054,957.42,-0.963376,-0.479822,-1.94359,
2026_07_06_16_22_26.685,3.869,46,0,0.772,0,0,0,0, ,0,0,0,0,0, ,-38.2,287.1,955.6,-1,-0.5,-1.9,25,-37.9194,287.078,957.351,-0.965608,-0.478004,-1.94093,
2026_07_06_16_22_26.704,3.869,46,0,0.77,0,0,0,0, ,0,0,0,0,0, ,-39,287.7,958.3,-1,-0.5,-2,25,-37.9609,287.097,957.327,-0.967704,-0.479345,-1.94148,
2026_07_06_16_22_26.719,3.869,46.1,0,0.771,0,0,0,0, ,0,0,0,0,0, ,-37.7,287.1,957.2,-0.9,-0.5,-1.9,25,-37.9846,287.116,957.353,-0.966625,-0.480603,-1.942,
2026_07_06_16_22_26.738,3.869,46,0,0.771,0,0,0,0, ,0,0,0,0,0, ,-37.2,288.2,957.2,-1,-0.5,-2,25,-37.952,287.148,957.343,-0.965612,-0.481785,-1.94249,
2026_07_06_16_22_26.758,3.869,46.1,0,0.771,0,0,0,0, ,0,0,0,0,0, ,-36.9,286.8,957.7,-1,-0.5,-1.9,25,-37.897,287.17,957.35,-0.967707,-0.482895,-1.94295,
2026_07_06_16_22_26.778,3.869,46,0,0.772,0,0,0,0, ,0,0,0,0,0, ,-37.9,286.7,956.7,-1,-0.4,-2,25,-37.8668,287.144,957.341,-0.969675,-0.480891,-1.94338,
2026_07_06_16_22_26.797,3.869,46.1,0,0.771,0,0,0,0, ,0,0,0,0,0, ,-38.4,287.1,959.1,-0.9,-0.4,-1.9,25,-37.884,287.129,957.375,-0.968476,-0.475961,-1.94378,
2026_07_06_16_22_26.817,3.869,46.1,0,0.771,0,0,0,0, ,0,0,0,0,0, ,-39,287.9,957.8,-1,-0.4,-2,25,-37.9337,287.152,957.44,-0.96735,-0.471333,-1.94416,
2026_07_06_16_22_26.837,3.869,45.9,0,0.77,0,0,0,0, ,0,0,0,0,0, ,-38.4,288.8,958.3,-1,-0.5,-2,25,-37.9804,287.225,957.477,-0.96934,-0.470033,-1.94756,
2026_07_06_16_22_26.857,3.869,46,0,0.771,0,0,0,0, ,0,0,0,0,0, ,-37.7,286.3,958,-1,-0.4,-1.9,25,-37.9847,287.245,957.518,-0.971208,-0.468812,-1.94771,
2026_07_06_16_22_26.876,3.869,46,0,0.771,0,0,0,0, ,0,0,0,0,0, ,-38.8,287.8,958.4,-1,-0.5,-2,25,-38.0008,287.233,957.56,-0.972963,-0.467666,-1.94785,
2026_07_06_16_22_26.897,3.869,45.9,0,0.771,0,0,0,0, ,0,0,0,0,0, ,-37.3,287.3,957.2,-1,-0.5,-1.9,25,-38.0038,287.252,957.575,-0.97461,-0.469636,-1.94798,
2026_07_06_16_22_26.916,3.869,46,0,0.771,0,0,0,0, ,0,0,0,0,0, ,-38.9,286.1,956.5,-1,-0.5,-2,25,-38.0097,287.219,957.53,-0.976158,-0.471486,-1.94811,
2026_07_06_16_22_26.936,3.869,46,0,0.771,0,0,0,0, ,0,0,0,0,0, ,-37.8,287.1,957.8,-0.9,-0.5,-1.9,25,-38.0304,287.181,957.507,-0.974564,-0.473224,-1.94822,
2026_07_06_16_22_26.956,3.869,46,0,0.77,0,0,0,0, ,0,0,0,0,0, ,-37.8,287.5,957.3,-0.9,-0.5,-1.9,25,-38.0164,287.188,957.51,-0.97002,-0.474855,-1.94528,
2026_07_06_16_22_26.977,3.869,45.9,0,0.771,0,0,0,0, ,0,0,0,0,0, ,-37.3,286,957.1,-1,-0.5,-1.9,25,-37.988,287.161,957.491,-0.9688,-0.476388,-1.94252,
2026_07_06_16_22_26.995,3.869,45.9,0,0.773,0,0,0,0, ,0,0,0,0,0, ,-37.9,286.1,956.7,-0.9,-0.5,-2,25,-37.9643,287.094,957.455,-0.967654,-0.477827,-1.94298,
2026_07_06_16_22_27.017,3.869,46,0,0.771,0,0,0,0, ,0,0,0,0,0, ,-38.4,287.3,956.4,-0.9,-0.5,-1.9,25,-37.9756,287.07,957.4,-0.963532,-0.479178,-1.94341,
2026_07_06_16_22_27.040,3.869,45.9,0,0.771,0,0,0,0, ,0,0,0,0,0, ,-37.5,286.2,957.8,-1,-0.4,-2,25,-37.9741,287.05,957.382,-0.962707,-0.4774,-1.94381,
2026_07_06_16_22_27.059,3.869,45.9,0,0.771,0,0,0,0, ,0,0,0,0,0, ,-38.3,286.7,957,-1,-0.4,-2,25,-37.9696,287.014,957.383,-0.96498,-0.472683,-1.94723,
2026_07_06_16_22_27.074,3.869,45.9,0,0.77,0,0,0,0, ,0,0,0,0,0, ,-38,287.1,957,-0.9,-0.5,-2,25,-37.9806,287.007,957.359,-0.964067,-0.471301,-1.95045,
2026_07_06_16_22_27.096,3.869,45.9,0,0.771,0,0,0,0, ,0,0,0,0,0, ,-38,287.1,956.6,-1,-0.4,-1.9,25,-37.9817,287.012,957.325,-0.96321,-0.470003,-1.95042,
2026_07_06_16_22_27.114,3.869,45.9,0,0.77,0,0,0,0, ,0,0,0,0,0, ,-38.5,287.1,958.1,-1,-0.5,-2,25,-37.9981,287.018,957.327,-0.965451,-0.468784,-1.95039,
2026_07_06_16_22_27.134,3.869,46,0,0.77,0,0,0,0, ,0,0,0,0,0, ,-37.7,286.2,957,-1,-0.4,-2,25,-38.0043,286.995,957.34,-0.967557,-0.467639,-1.95342,
2026_07_06_16_22_27.153,3.869,46,0,0.771,0,0,0,0, ,0,0,0,0,0, ,-36.8,287.2,958.8,-0.9,-0.4,-2,25,-37.9583,286.977,957.374,-0.966487,-0.463518,-1.95626,
2026_07_06_16_22_27.174,3.869,45.9,0,0.771,0,0,0,0, ,0,0,0,0,0, ,-38.8,287.8,957.6,-1,-0.4,-2,25,-37.9487,287.009,957.425,-0.965482,-0.459647,-1.95892,
2026_07_06_16_22_27.193,3.869,45.9,0,0.771,0,0,0,0, ,0,0,0,0,0, ,-37.2,287.8,957.3,-1,-0.5,-1.9,25,-37.9518,287.057,957.426,-0.967586,-0.459059,-1.95838,
2026_07_06_16_22_27.214,3.869,46,0,0.771,0,0,0,0, ,0,0,0,0,0, ,-38,287.3,957,-1,-0.4,-2,25,-37.9304,287.087,957.409,-0.969561,-0.458507,-1.95787,
2026_07_06_16_22_27.233,3.869,46,0,0.771,0,0,0,0, ,0,0,0,0,0, ,-38.9,285.6,957.6,-1,-0.4,-1.9,25,-37.962,287.049,957.403,-0.971416,-0.454942,-1.95739,
2026_07_06_16_22_27.255,3.869,45.8,0,0.771,0,0,0,0, ,0,0,0,0,0, ,-37.8,286.6,957.6,-1,-0.5,-2,25,-37.9857,286.991,957.415,-0.973158,-0.454641,-1.95694,
2026_07_06_16_22_27.272,3.869,46,0,0.769,0,0,0,0, ,0,0,0,0,0, ,-38.5,285.2,956.9,-1,-0.5,-1.9,25,-37.9957,286.924,957.405,-0.974793,-0.457405,-1.95652,
2026_07_06_16_22_27.293,3.869,45.9,0,0.77,0,0,0,0, ,0,0,0,0,0, ,-38.3,287.7,957.8,-1,-0.4,-2,25,-38.0203,286.895,957.401,-0.976329,-0.456954,-1.95612,
2026_07_06_16_22_27.312,3.869,45.9,0,0.771,0,0,0,0, ,0,0,0,0,0, ,-38.5,285.4,957.8,-1,-0.5,-2,25,-38.0435,286.874,957.426,-0.977772,-0.45653,-1.95879,
2026_07_06_16_22_27.333,3.869,45.8,0,0.772,0,0,0,0, ,0,0,0,0,0, ,-37.9,286.8,957,-1,-0.5,-2,25,-38.053,286.827,957.424,-0.979126,-0.459179,-1.9613,
2026_07_06_16_22_27.352,3.869,45.9,0,0.771,0,0,0,0, ,0,0,0,0,0, ,-37.7,286.4,957,-0.9,-0.4,-1.9,25,-38.0376,286.813,957.398,-0.977351,-0.458619,-1.96061,
2026_07_06_16_22_27.372,3.869,45.8,0,0.77,0,0,0,0, ,0,0,0,0,0, ,-38.4,286.7,957.1,-1,-0.5,-2,25,-38.0383,286.797,957.377,-0.975685,-0.458094,-1.95997,
2026_07_06_16_22_27.390,3.869,45.8,0,0.771,0,0,0,0, ,0,0,0,0,0, ,-37.8,287.7,957.2,-1,-0.5,-1.9,25,-38.0421,286.822,957.363,-0.977166,-0.460648,-1.95936,
2026_07_06_16_22_27.413,3.869,45.9,0,0.772,0,0,0,0, ,0,0,0,0,0, ,-38.2,288.4,957.5,-0.9,-0.5,-2,25,-38.0395,286.897,957.362,-0.975511,-0.463046,-1.95879,
2026_07_06_16_22_27.431,3.869,45.8,0,0.772,0,0,0,0, ,0,0,0,0,0, ,-37.4,288.3,955.6,-1,-0.5,-1.9,25,-38.0249,286.985,957.313,-0.973956,-0.465298,-1.95825,
2026_07_06_16_22_27.453,3.869,45.9,0,0.771,0,0,0,0, ,0,0,0,0,0, ,-38.3,287.2,957.5,-0.9,-0.5,-2,25,-38.0143,287.032,957.266,-0.972497,-0.467412,-1.95775,
2026_07_06_16_22_27.471,3.869,45.9,0,0.77,0,0,0,0, ,0,0,0,0,0, ,-37.9,285.5,958.8,-1,-0.5,-1.9,25,-38.0195,286.99,957.32,-0.971126,-0.469398,-1.95728,
2026_07_06_16_22_27.490,3.869,45.8,0,0.771,0,0,0,0, ,0,0,0,0,0, ,-37.3,286.6,956,-0.9,-0.5,-2,25,-37.9939,286.933,957.325,-0.969838,-0.471263,-1.95684,
2026_07_06_16_22_27.511,3.869,45.8,0,0.772,0,0,0,0, ,0,0,0,0,0, ,-36.8,287.1,957.5,-0.9,-0.5,-1.9,25,-37.9364,286.928,957.29,-0.965583,-0.473014,-1.95642,
2026_07_06_16_22_27.532,3.869,45.8,0,0.77,0,0,0,0, ,0,0,0,0,0, ,-37.4,286.3,958.7,-1,-0.5,-1.9,25,-37.8854,286.914,957.339,-0.964633,-0.474659,-1.95298,
2026_07_06_16_22_27.549,3.869,45.8,0,0.77,0,0,0,0, ,0,0,0,0,0, ,-38,287.4,958.3,-1,-0.5,-2,25,-37.8741,286.91,957.41,-0.966788,-0.476203,-1.9528,
2026_07_06_16_22_27.570,3.869,45.8,0,0.772,0,0,0,0, ,0,0,0,0,0, ,-38.4,287.5,957.6,-1,-0.5,-2,25,-37.894,286.943,957.443,-0.968812,-0.477653,-1.95568,
2026_07_06_16_22_27.588,3.869,45.8,0,0.771,0,0,0,0, ,0,0,0,0,0, ,-38.4,286.4,958.3,-0.9,-0.5,-1.9,25,-37.9248,286.943,957.474,-0.967666,-0.479015,-1.95533,
2026_07_06_16_22_27.611,3.869,45.8,0,0.771,0,0,0,0, ,0,0,0,0,0, ,-37.7,287.1,956.5,-1,-0.5,-2,25,-37.9325,286.932,957.469,-0.966589,-0.480294,-1.955,
2026_07_06_16_22_27.628,3.869,45.8,0,0.771,0,0,0,0, ,0,0,0,0,0, ,-38.4,285.1,957.8,-1,-0.5,-1.9,25,-37.9396,286.881,957.45,-0.968625,-0.481494,-1.9547,
2026_07_06_16_22_27.650,3.869,45.7,0,0.77,0,0,0,0, ,0,0,0,0,0, ,-37.8,287.9,957.6,-1,-0.5,-1.9,25,-37.9494,286.858,957.465,-0.970537,-0.482622,-1.95137,
2026_07_06_16_22_27.668,3.869,45.7,0,0.771,0,0,0,0, ,0,0,0,0,0, ,-37.5,286.6,958,-1,-0.4,-2,25,-37.9312,286.882,957.486,-0.972332,-0.480634,-1.95128,
2026_07_06_16_22_27.690,3.869,45.8,0,0.771,0,0,0,0, ,0,0,0,0,0, ,-38.5,288,959.1,-1,-0.5,-2,25,-37.9354,286.907,957.55,-0.974018,-0.478767,-1.95425,
2026_07_06_16_22_27.708,3.869,45.8,0,0.771,0,0,0,0, ,0,0,0,0,0, ,-37.5,286.7,957.2,-1,-0.5,-1.9,25,-37.9393,286.934,957.587,-0.975602,-0.480061,-1.95399,
2026_07_06_16_22_27.730,3.869,45.7,0,0.772,0,0,0,0, ,0,0,0,0,0, ,-38.4,285.8,957.3,-0.9,-0.5,-1.9,25,-37.9399,286.892,957.566,-0.974042,-0.481276,-1.9507,
2026_07_06_16_22_27.748,3.869,45.7,0,0.771,0,0,0,0, ,0,0,0,0,0, ,-37.8,287.8,956.6,-1,-0.4,-1.9,25,-37.9497,286.887,957.529,-0.972577,-0.47937,-1.94761,
2026_07_06_16_22_27.769,3.869,45.8,0,0.769,0,0,0,0, ,0,0,0,0,0, ,-37.4,286.9,958.2,-1,-0.5,-2,25,-37.9284,286.915,957.521,-0.974248,-0.477581,-1.94776,
2026_07_06_16_22_27.790,3.869,45.7,0,0.771,0,0,0,0, ,0,0,0,0,0, ,-38,288.6,956.7,-1,-0.4,-1.9,25,-37.9145,286.966,957.517,-0.975817,-0.4759,-1.9479,
2026_07_06_16_22_27.812,3.869,45.8,0,0.772,0,0,0,0, ,0,0,0,0,0, ,-38.2,287.4,956.2,-0.9,-0.5,-2,25,-37.9258,287.029,957.452,-0.974244,-0.474322,-1.94802,
2026_07_06_16_22_27.827,3.869,45.8,0,0.769,0,0,0,0, ,0,0,0,0,0, ,-38.4,285.7,957.3,-1.1,-0.5,-2,25,-37.9486,287,957.409,-0.975813,-0.475886,-1.95119,
2026_07_06_16_22_27.848,3.869,45.7,0,0.769,0,0,0,0, ,0,0,0,0,0, ,-39.1,286.8,957.7,-1,-0.5,-2,25,-37.9974,286.954,957.415,-0.980334,-0.477356,-1.95416,
2026_07_06_16_22_27.867,3.869,45.8,0,0.772,0,0,0,0, ,0,0,0,0,0, ,-38,287.4,958.2,-1,-0.5,-2,25,-38.0311,286.963,957.447,-0.981532,-0.478736,-1.95696,
2026_07_06_16_22_27.888,3.869,45.7,0,0.771,0,0,0,0, ,0,0,0,0,0, ,-37.8,286.7,957.8,-1,-0.5,-2,25,-38.0231,286.968,957.481,-0.982658,-0.480032,-1.95958,
2026_07_06_16_22_27.905,3.869,45.8,0,0.771,0,0,0,0, ,0,0,0,0,0, ,-37.7,287.3,957.5,-0.9,-0.5,-1.9,25,-38.0065,286.97,957.491,-0.980668,-0.481248,-1.959,
2026_07_06_16_22_27.926,3.869,45.7,0,0.769,0,0,0,0, ,0,0,0,0,0, ,-38.6,288.8,956,-1,-0.5,-1.9,25,-38.0152,287.036,957.446,-0.978799,-0.482391,-1.9554,
2026_07_06_16_22_27.944,3.869,45.7,0,0.77,0,0,0,0, ,0,0,0,0,0, ,-38.8,287.3,958.2,-1,-0.5,-2,25,-38.0569,287.098,957.425,-0.980091,-0.483464,-1.95507,
2026_07_06_16_22_27.967,3.869,45.7,0,0.771,0,0,0,0, ,0,0,0,0,0, ,-38,288.2,957.1,-0.9,-0.5,-2,25,-38.0778,287.138,957.439,-0.978257,-0.484472,-1.95781,
2026_07_06_16_22_27.984,3.869,45.8,0,0.771,0,0,0,0, ,0,0,0,0,0, ,-37.8,287.5,957,-1,-0.5,-1.9,25,-38.067,287.181,957.415,-0.976535,-0.485418,-1.95733,
2026_07_06_16_22_28.006,3.869,45.6,0,0.773,0,0,0,0, ,0,0,0,0,0, ,-37.4,287.3,957.7,-0.9,-0.5,-2.1,25,-38.0385,287.194,957.411,-0.974918,-0.486307,-1.95993,
2026_07_06_16_22_28.024,3.869,45.7,0,0.771,0,0,0,0, ,0,0,0,0,0, ,-37.3,287.3,958.4,-0.9,-0.5,-2,25,-37.9966,287.201,957.45,-0.970353,-0.487141,-1.96542,
2026_07_06_16_22_28.048,3.869,45.6,0,0.77,0,0,0,0, ,0,0,0,0,0, ,-37.4,286.6,958.4,-1,-0.5,-1.9,25,-37.9572,287.185,957.508,-0.969113,-0.487925,-1.96448,
2026_07_06_16_22_28.063,3.869,45.7,0,0.771,0,0,0,0, ,0,0,0,0,0, ,-37.9,286.8,958.2,-1,-0.5,-2,25,-37.9385,287.156,957.556,-0.970995,-0.48866,-1.9636,
2026_07_06_16_22_28.085,3.869,45.6,0,0.771,0,0,0,0, ,0,0,0,0,0, ,-37.2,287.1,958.3,-1,-0.5,-2,25,-37.9148,287.143,957.598,-0.972762,-0.489351,-1.96582,
2026_07_06_16_22_28.104,3.869,45.6,0,0.771,0,0,0,0, ,0,0,0,0,0, ,-37.9,287.1,958,-0.9,-0.5,-2,25,-37.8926,287.141,957.632,-0.971375,-0.49,-1.9679,
2026_07_06_16_22_28.126,3.869,45.7,0,0.771,0,0,0,0, ,0,0,0,0,0, ,-39,285.7,956.9,-0.9,-0.5,-2,25,-37.9265,287.096,957.621,-0.967026,-0.49061,-1.96986,
2026_07_06_16_22_28.143,3.869,45.7,0,0.771,0,0,0,0, ,0,0,0,0,0, ,-37.4,287.7,958.4,-1,-0.5,-1.9,25,-37.9432,287.071,957.623,-0.965988,-0.491182,-1.96865,
2026_07_06_16_22_28.166,3.869,45.7,0,0.771,0,0,0,0, ,0,0,0,0,0, ,-39.7,287.3,956.6,-1,-0.5,-1.9,25,-37.9802,287.098,957.615,-0.968061,-0.491719,-1.96446,
2026_07_06_16_22_28.183,3.869,45.6,0,0.769,0,0,0,0, ,0,0,0,0,0, ,-37.5,288,957.7,-1,-0.4,-2,25,-38.0179,287.131,957.587,-0.970007,-0.489177,-1.96358,
2026_07_06_16_22_28.212,3.869,45.6,0,0.772,0,0,0,0, ,0,0,0,0,0, ,-38.6,286.4,957.1,-1.1,-0.5,-2,25,-38.0199,287.135,957.575,-0.974882,-0.48679,-1.9658,
2026_07_06_16_22_28.222,3.869,45.6,0,0.771,0,0,0,0, ,0,0,0,0,0, ,-37.7,286.9,956.1,-1,-0.5,-2,25,-38.0278,287.106,957.516,-0.979459,-0.487595,-1.96789,
2026_07_06_16_22_28.244,3.869,45.6,0,0.77,0,0,0,0, ,0,0,0,0,0, ,-37.8,286.4,957.5,-1,-0.5,-1.9,25,-38.0109,287.078,957.472,-0.980711,-0.488351,-1.9668,
2026_07_06_16_22_28.261,3.869,45.6,0,0.771,0,0,0,0, ,0,0,0,0,0, ,-37.9,287.7,956.7,-1,-0.5,-2,25,-38.0011,287.076,957.45,-0.981886,-0.489061,-1.96577,
2026_07_06_16_22_28.285,3.869,45.6,0,0.771,0,0,0,0, ,0,0,0,0,0, ,-38.6,286.6,958.2,-0.9,-0.5,-1.9,25,-38.0163,287.081,957.45,-0.979943,-0.489727,-1.96481,
2026_07_06_16_22_28.300,3.869,45.6,0,0.771,0,0,0,0, ,0,0,0,0,0, ,-37.7,287.8,957,-1,-0.5,-2.1,25,-38.0244,287.088,957.459,-0.978119,-0.490353,-1.96696,
2026_07_06_16_22_28.323,3.869,45.6,0,0.771,0,0,0,0, ,0,0,0,0,0, ,-36.8,288.2,957,-1,-0.5,-2,25,-37.9772,287.144,957.431,-0.979452,-0.490941,-1.97202,
2026_07_06_16_22_28.341,3.869,45.6,0,0.77,0,0,0,0, ,0,0,0,0,0, ,-37.2,286.4,957.7,-1,-0.5,-1.9,25,-37.9177,287.153,957.426,-0.980704,-0.491493,-1.97067,
2026_07_06_16_22_28.364,3.869,45.6,0,0.769,0,0,0,0, ,0,0,0,0,0, ,-38.6,287.5,959.5,-1,-0.5,-1.9,25,-37.9166,287.141,957.498,-0.98188,-0.492011,-1.96637,
2026_07_06_16_22_28.380,3.869,45.6,0,0.773,0,0,0,0, ,0,0,0,0,0, ,-38,286.9,957.6,-1,-0.5,-2,25,-37.94,287.144,957.562,-0.982984,-0.492498,-1.96537,
2026_07_06_16_22_28.402,3.869,45.6,0,0.772,0,0,0,0, ,0,0,0,0,0, ,-38.5,286.9,957.3,-0.9,-0.5,-1.9,25,-37.9589,287.13,957.555,-0.980974,-0.492955,-1.96443,
2026_07_06_16_22_28.420,3.869,45.6,0,0.771,0,0,0,0, ,0,0,0,0,0, ,-37.5,286.2,959.4,-0.9,-0.4,-2.1,25,-37.9614,287.094,957.603,-0.97604,-0.490338,-1.9666,
2026_07_06_16_22_28.443,3.869,45.5,0,0.772,0,0,0,0, ,0,0,0,0,0, ,-38.4,286.2,958.4,-1,-0.4,-2,25,-37.9607,287.04,957.682,-0.974453,-0.484833,-1.97168,
2026_07_06_16_22_28.459,3.869,45.6,0,0.771,0,0,0,0, ,0,0,0,0,0, ,-36.9,286.8,958.2,-0.9,-0.5,-2,25,-37.9417,287.007,957.72,-0.972963,-0.48271,-1.97341,
2026_07_06_16_22_28.482,3.869,45.6,0,0.771,0,0,0,0, ,0,0,0,0,0, ,-38.5,287.5,957.7,-0.9,-0.5,-2,25,-37.927,287.016,957.734,-0.968517,-0.483764,-1.97503,
2026_07_06_16_22_28.499,3.869,45.5,0,0.771,0,0,0,0, ,0,0,0,0,0, ,-38.4,286.4,956.2,-0.9,-0.5,-2,25,-37.9589,287.012,957.686,-0.964342,-0.484753,-1.97655,
2026_07_06_16_22_28.522,3.869,45.5,0,0.771,0,0,0,0, ,0,0,0,0,0, ,-39.1,287.7,956.4,-0.9,-0.5,-1.9,25,-38.0071,287.014,957.602,-0.960421,-0.485682,-1.97493,
2026_07_06_16_22_28.538,3.869,45.5,0,0.771,0,0,0,0, ,0,0,0,0,0, ,-37.8,286.8,957.8,-0.9,-0.5,-1.9,25,-38.0341,287.028,957.571,-0.956739,-0.486555,-1.97037,
2026_07_06_16_22_28.560,3.869,45.5,0,0.77,0,0,0,0, ,0,0,0,0,0, ,-37.9,289,957.3,-0.9,-0.5,-1.9,25,-38.0229,287.081,957.57,-0.953281,-0.487374,-1.96608,
2026_07_06_16_22_28.579,3.869,45.5,0,0.77,0,0,0,0, ,0,0,0,0,0, ,-37.2,285.4,959.1,-1,-0.6,-1.9,25,-37.994,287.089,957.608,-0.953081,-0.49119,-1.96205,
2026_07_06_16_22_28.601,3.869,45.5,0,0.771,0,0,0,0, ,0,0,0,0,0, ,-38.4,286.7,957,-1,-0.4,-2,25,-37.9822,287.025,957.635,-0.95594,-0.491727,-1.96132,
2026_07_06_16_22_28.621,3.869,45.5,0,0.77,0,0,0,0, ,0,0,0,0,0, ,-37.3,285.8,957.2,-0.9,-0.5,-2,25,-37.9742,286.978,957.603,-0.955578,-0.489184,-1.96367,
2026_07_06_16_22_28.643,3.869,45.5,0,0.77,0,0,0,0, ,0,0,0,0,0, ,-37.2,286.7,958.4,-1,-0.5,-1.9,25,-37.93,286.934,957.615,-0.955239,-0.489844,-1.96284,
2026_07_06_16_22_28.657,3.869,45.5,0,0.769,0,0,0,0, ,0,0,0,0,0, ,-38.3,287.7,957.6,-1,-0.5,-2,25,-37.9191,286.95,957.638,-0.957966,-0.490462,-1.96206,
2026_07_06_16_22_28.682,3.869,45.5,0,0.77,0,0,0,0, ,0,0,0,0,0, ,-37.2,287.4,958,-1,-0.4,-1.9,25,-37.9088,286.987,957.648,-0.960528,-0.487997,-1.96132,
2026_07_06_16_22_28.697,3.869,45.3,0,0.771,0,0,0,0, ,0,0,0,0,0, ,-39,287.4,958.4,-1,-0.4,-1.9,25,-37.9204,287.012,957.682,-0.962933,-0.482634,-1.95759,
2026_07_06_16_22_28.719,3.869,45.3,0,0.771,0,0,0,0, ,0,0,0,0,0, ,-37.4,287.3,958.8,-1,-0.5,-1.9,25,-37.9375,287.032,957.738,-0.965192,-0.480646,-1.95408,
2026_07_06_16_22_28.737,3.869,45.5,0,0.771,0,0,0,0, ,0,0,0,0,0, ,-38.9,287.7,958.2,-0.9,-0.4,-1.9,25,-37.9504,287.061,957.784,-0.964266,-0.478778,-1.95078,
2026_07_06_16_22_28.758,3.869,45.3,0,0.77,0,0,0,0, ,0,0,0,0,0, ,-38.3,286.8,956.1,-0.9,-0.4,-1.9,25,-37.99,287.072,957.745,-0.96035,-0.473978,-1.94769,
2026_07_06_16_22_28.776,3.869,45.5,0,0.77,0,0,0,0, ,0,0,0,0,0, ,-37.4,286.7,958.6,-0.9,-0.5,-1.9,25,-37.9815,287.053,957.721,-0.956672,-0.472517,-1.94478,
2026_07_06_16_22_28.801,3.869,45.5,0,0.77,0,0,0,0, ,0,0,0,0,0, ,-38.2,286.7,957.5,-0.9,-0.5,-2,25,-37.9704,287.031,957.741,-0.953219,-0.474191,-1.9451,
2026_07_06_16_22_28.816,3.869,45.5,0,0.771,0,0,0,0, ,0,0,0,0,0, ,-37.8,287.9,956.7,-1,-0.5,-1.9,25,-37.9722,287.048,957.702,-0.953023,-0.475764,-1.9454,
2026_07_06_16_22_28.839,3.869,45.3,0,0.771,0,0,0,0, ,0,0,0,0,0, ,-37.5,287.5,957.7,-0.9,-0.5,-2,25,-37.9526,287.087,957.672,-0.952838,-0.477241,-1.94568,
2026_07_06_16_22_28.856,3.869,45.3,0,0.771,0,0,0,0, ,0,0,0,0,0, ,-38.3,285.6,956.4,-0.9,-0.5,-1.9,25,-37.9494,287.055,957.634,-0.949619,-0.478628,-1.94594,
2026_07_06_16_22_28.878,3.869,45.5,0,0.77,0,0,0,0, ,0,0,0,0,0, ,-38.4,286.8,957.8,-1,-0.5,-1.9,25,-37.9738,287.003,957.601,-0.949642,-0.47993,-1.94314,
2026_07_06_16_22_28.894,3.869,45.3,0,0.77,0,0,0,0, ,0,0,0,0,0, ,-37.9,286.8,957.2,-1,-0.5,-1.9,25,-37.9845,286.99,957.595,-0.952711,-0.481153,-1.94051,
2026_07_06_16_22_28.918,3.869,45.5,0,0.771,0,0,0,0, ,0,0,0,0,0, ,-38.5,287.9,958.2,-0.9,-0.5,-2,25,-37.9976,287.012,957.601,-0.952545,-0.482302,-1.94109,
2026_07_06_16_22_28.935,3.869,45.3,0,0.772,0,0,0,0, ,0,0,0,0,0, ,-38.3,287.8,958.2,-1,-0.5,-1.9,25,-38.0222,287.063,957.638,-0.95239,-0.48338,-1.94163,
2026_07_06_16_22_28.958,3.869,45.5,0,0.77,0,0,0,0, ,0,0,0,0,0, ,-37.8,286.2,958.3,-0.9,-0.4,-2,25,-38.0239,287.059,957.675,-0.952245,-0.481346,-1.94214,
2026_07_06_16_22_28.975,3.869,45.3,0,0.771,0,0,0,0, ,0,0,0,0,0, ,-37.1,286.1,958.6,-0.9,-0.5,-1.9,25,-37.9889,287.004,957.722,-0.949061,-0.479436,-1.94262,
2026_07_06_16_22_28.997,3.869,45.3,0,0.769,0,0,0,0, ,0,0,0,0,0, ,-37.9,287.7,958.9,-0.9,-0.5,-1.9,25,-37.9591,286.998,957.785,-0.946071,-0.480689,-1.94003,
2026_07_06_16_22_29.013,3.869,45.3,0,0.77,0,0,0,0, ,0,0,0,0,0, ,-37.3,286.8,958.6,-1,-0.4,-1.9,25,-37.9372,287.013,957.844,-0.946311,-0.478819,-1.93759,
2026_07_06_16_22_29.036,3.869,45.3,0,0.772,0,0,0,0, ,0,0,0,0,0, ,-38.8,287.2,958.9,-1,-0.5,-2,25,-37.9441,287.012,957.899,-0.949582,-0.477063,-1.93834,
2026_07_06_16_22_29.057,3.869,45.2,0,0.771,0,0,0,0, ,0,0,0,0,0, ,-37.8,286.9,958.4,-0.9,-0.4,-1.9,25,-37.9658,287.014,957.945,-0.949608,-0.475414,-1.93905,
2026_07_06_16_22_29.080,3.869,45.3,0,0.77,0,0,0,0, ,0,0,0,0,0, ,-37.1,286.8,956.5,-1,-0.5,-1.9,25,-37.9343,287.004,957.915,-0.949632,-0.473865,-1.93667,
2026_07_06_16_22_29.093,3.869,45.3,0,0.77,0,0,0,0, ,0,0,0,0,0, ,-39.4,286.2,957.2,-1,-0.5,-1.9,25,-37.9536,286.974,957.85,-0.952701,-0.475458,-1.93444,
2026_07_06_16_22_29.117,3.869,45.3,0,0.771,0,0,0,0, ,0,0,0,0,0, ,-37.3,286.2,958.2,-1,-0.5,-1.9,25,-37.9777,286.927,957.841,-0.955583,-0.476953,-1.93234,
2026_07_06_16_22_29.132,3.869,45.3,0,0.77,0,0,0,0, ,0,0,0,0,0, ,-37.9,286.3,958.3,-1,-0.5,-1.9,25,-37.9547,286.885,957.866,-0.95829,-0.478358,-1.93037,
2026_07_06_16_22_29.156,3.869,45.3,0,0.77,0,0,0,0, ,0,0,0,0,0, ,-38.4,286.7,957.3,-0.9,-0.5,-1.9,25,-37.9666,286.862,957.862,-0.957785,-0.479676,-1.92852,
2026_07_06_16_22_29.171,3.869,45.2,0,0.768,0,0,0,0, ,0,0,0,0,0, ,-37.4,286.8,957.5,-1,-0.5,-1.9,25,-37.9626,286.855,957.833,-0.95731,-0.480915,-1.92678,
2026_07_06_16_22_29.196,3.869,45.3,0,0.769,0,0,0,0, ,0,0,0,0,0, ,-38.2,286.3,959.2,-1,-0.5,-2.1,25,-37.9527,286.836,957.865,-0.959912,-0.482078,-1.93124,
2026_07_06_16_22_29.211,3.869,45.2,0,0.772,0,0,0,0, ,0,0,0,0,0, ,-38.3,286.9,956.9,-1,-0.5,-1.9,25,-37.9708,286.822,957.876,-0.962355,-0.48317,-1.93543,
2026_07_06_16_22_29.235,3.869,45.2,0,0.77,0,0,0,0, ,0,0,0,0,0, ,-38.2,286.8,957.5,-1,-0.5,-2.1,25,-37.9878,286.824,957.835,-0.964649,-0.484196,-1.93937,
2026_07_06_16_22_29.252,3.869,45.3,0,0.772,0,0,0,0, ,0,0,0,0,0, ,-37.3,287.3,958.2,-1,-0.5,-2,25,-37.9733,286.838,957.836,-0.966803,-0.485159,-1.94611,
2026_07_06_16_22_29.276,3.869,45.2,0,0.772,0,0,0,0, ,0,0,0,0,0, ,-37.7,286.9,957.5,-0.9,-0.4,-2,25,-37.9445,286.854,957.837,-0.965779,-0.483016,-1.94939,
2026_07_06_16_22_29.291,3.869,45.2,0,0.771,0,0,0,0, ,0,0,0,0,0, ,-38,286.9,958,-0.9,-0.5,-1.9,25,-37.9387,286.856,957.832,-0.961771,-0.481004,-1.94943,
2026_07_06_16_22_29.315,3.869,45.3,0,0.769,0,0,0,0, ,0,0,0,0,0, ,-38.3,287.8,956.9,-1,-0.4,-2,25,-37.9516,286.886,957.808,-0.961053,-0.479115,-1.94946,
2026_07_06_16_22_29.330,3.869,45.2,0,0.77,0,0,0,0, ,0,0,0,0,0, ,-37.9,287.2,957.8,-1,-0.4,-1.9,25,-37.9606,286.924,957.78,-0.963427,-0.474294,-1.9495,
2026_07_06_16_22_29.353,3.869,45.2,0,0.771,0,0,0,0, ,0,0,0,0,0, ,-38.9,286.4,957.1,-0.9,-0.5,-1.9,25,-37.9874,286.916,957.76,-0.962608,-0.472813,-1.94648,
2026_07_06_16_22_29.370,3.869,45.3,0,0.77,0,0,0,0, ,0,0,0,0,0, ,-36.9,287.8,957.3,-1,-0.4,-2,25,-37.9821,286.927,957.726,-0.96184,-0.471423,-1.9467,
2026_07_06_16_22_29.394,3.869,45.2,0,0.771,0,0,0,0, ,0,0,0,0,0, ,-38.2,286.8,957.8,-0.9,-0.4,-2,25,-37.9557,286.95,957.715,-0.961119,-0.467071,-1.94994,
2026_07_06_16_22_29.410,3.869,45.2,0,0.769,0,0,0,0, ,0,0,0,0,0, ,-37.3,286.3,956.4,-1,-0.5,-1.9,25,-37.9432,286.926,957.678,-0.960441,-0.466031,-1.94995,
2026_07_06_16_22_29.434,3.869,45.3,0,0.77,0,0,0,0, ,0,0,0,0,0, ,-38.2,288.2,958,-0.9,-0.5,-1.9,25,-37.9314,286.946,957.649,-0.959805,-0.468101,-1.9469,
2026_07_06_16_22_29.448,3.869,45.2,0,0.771,0,0,0,0, ,0,0,0,0,0, ,-38.3,286.3,956.6,-0.9,-0.5,-1.9,25,-37.9508,286.964,957.627,-0.95616,-0.470045,-1.94405,
2026_07_06_16_22_29.473,3.869,45.2,0,0.771,0,0,0,0, ,0,0,0,0,0, ,-38.6,286.3,958,-1,-0.5,-1.9,25,-37.9813,286.924,957.608,-0.955785,-0.47187,-1.94136,
2026_07_06_16_22_29.487,3.869,45.2,0,0.771,0,0,0,0, ,0,0,0,0,0, ,-38.4,285.8,958,-0.9,-0.5,-2,25,-38.0129,286.87,957.631,-0.955433,-0.473584,-1.94189,
2026_07_06_16_22_29.519,3.869,45.1,0,0.77,0,0,0,0, ,0,0,0,0,0, ,-37.4,288,958.4,-0.9,-0.4,-2,25,-38.006,286.872,957.666,-0.952055,-0.472147,-1.94543,
2026_07_06_16_22_29.527,3.869,45.2,0,0.771,0,0,0,0, ,0,0,0,0,0, ,-38,286.6,957.3,-0.9,-0.4,-2,25,-37.9873,286.898,957.677,-0.948883,-0.467751,-1.94875,
2026_07_06_16_22_29.552,3.869,45.1,0,0.77,0,0,0,0, ,0,0,0,0,0, ,-39,286.6,957.3,-1,-0.5,-1.9,25,-38.0186,286.88,957.654,-0.948951,-0.466669,-1.94883,
2026_07_06_16_22_29.568,3.869,45.2,0,0.77,0,0,0,0, ,0,0,0,0,0, ,-38,287.3,956.6,-0.9,-0.5,-1.9,25,-38.0479,286.884,957.611,-0.949015,-0.4687,-1.94585,
2026_07_06_16_22_29.592,3.869,45.2,0,0.77,0,0,0,0, ,0,0,0,0,0, ,-39.1,286.9,959.7,-1,-0.4,-2,25,-38.0785,286.897,957.644,-0.949075,-0.46756,-1.94611,
2026_07_06_16_22_29.606,3.869,45.2,0,0.77,0,0,0,0, ,0,0,0,0,0, ,-37.5,287.1,956.4,-0.9,-0.5,-2,25,-38.092,286.904,957.669,-0.949131,-0.46649,-1.94939,
2026_07_06_16_22_29.632,3.869,45.2,0,0.771,0,0,0,0, ,0,0,0,0,0, ,-38,286,956.9,-0.9,-0.5,-2,25,-38.0712,286.882,957.607,-0.946137,-0.468532,-1.95248,
2026_07_06_16_22_29.646,3.869,45.2,0,0.77,0,0,0,0, ,0,0,0,0,0, ,-39.9,287.3,958.2,-0.9,-0.5,-2,25,-38.1247,286.868,957.603,-0.943326,-0.47045,-1.95537,
2026_07_06_16_22_29.671,3.869,45.1,0,0.772,0,0,0,0, ,0,0,0,0,0, ,-39.4,286.4,958,-1,-0.5,-2,25,-38.2177,286.867,957.634,-0.943732,-0.472251,-1.95809,
2026_07_06_16_22_29.687,3.869,45.2,0,0.771,0,0,0,0, ,0,0,0,0,0, ,-38,287.5,957.8,-0.9,-0.4,-2,25,-38.2471,286.872,957.65,-0.944114,-0.470895,-1.96064,
2026_07_06_16_22_29.710,3.869,45.1,0,0.77,0,0,0,0, ,0,0,0,0,0, ,-38.4,287.5,958.3,-0.9,-0.5,-2,25,-38.2442,286.91,957.674,-0.941426,-0.469621,-1.96304,
2026_07_06_16_22_29.726,3.869,45.2,0,0.769,0,0,0,0, ,0,0,0,0,0, ,-37.8,286.8,958.1,-1,-0.5,-1.9,25,-38.2354,286.925,957.706,-0.941949,-0.471473,-1.96225,
2026_07_06_16_22_29.751,3.869,45.2,0,0.771,0,0,0,0, ,0,0,0,0,0, ,-38,287.7,958.6,-1,-0.5,-2,25,-38.215,286.945,957.746,-0.945486,-0.473211,-1.9615,
2026_07_06_16_22_29.768,3.869,45.1,0,0.771,0,0,0,0, ,0,0,0,0,0, ,-38.8,285.7,957.8,-0.9,-0.5,-2,25,-38.2262,286.93,957.773,-0.945761,-0.474843,-1.96385,
2026_07_06_16_22_29.793,3.869,45.1,0,0.769,0,0,0,0, ,0,0,0,0,0, ,-38.9,287.1,956.7,-1,-0.4,-1.9,25,-38.2643,286.897,957.741,-0.946019,-0.47333,-1.963,
2026_07_06_16_22_29.805,3.869,45.1,0,0.772,0,0,0,0, ,0,0,0,0,0, ,-37.1,286.8,957.2,-0.9,-0.5,-1.9,25,-38.2482,286.901,957.693,-0.946262,-0.471908,-1.95916,
2026_07_06_16_22_29.829,3.869,45.1,0,0.771,0,0,0,0, ,0,0,0,0,0, ,-38,286.6,958.1,-1,-0.4,-2.1,25,-38.2056,286.888,957.69,-0.94649,-0.470573,-1.96165,
2026_07_06_16_22_29.844,3.869,45.1,0,0.77,0,0,0,0, ,0,0,0,0,0, ,-38.2,286.9,956.2,-1,-0.5,-1.9,25,-38.1992,286.88,957.658,-0.949751,-0.469319,-1.96399,
2026_07_06_16_22_29.869,3.869,45.1,0,0.769,0,0,0,0, ,0,0,0,0,0, ,-38.6,287.8,958.2,-1,-0.5,-1.9,25,-38.2114,286.909,957.63,-0.952813,-0.471189,-1.96009,
2026_07_06_16_22_29.883,3.869,45.1,0,0.771,0,0,0,0, ,0,0,0,0,0, ,-37.4,288.6,957.8,-1,-0.4,-1.9,25,-38.1985,286.987,957.652,-0.955688,-0.469898,-1.95643,
2026_07_06_16_22_29.910,3.869,45,0,0.771,0,0,0,0, ,0,0,0,0,0, ,-38,286.9,957.2,-1,-0.5,-1.9,25,-38.1681,287.034,957.643,-0.958388,-0.468685,-1.95299,
2026_07_06_16_22_29.923,3.869,45,0,0.77,0,0,0,0, ,0,0,0,0,0, ,-39.1,287.2,956.2,-1,-0.5,-1.9,25,-38.1914,287.035,957.585,-0.960924,-0.470593,-1.94976,
2026_07_06_16_22_29.947,3.869,45,0,0.771,0,0,0,0, ,0,0,0,0,0, ,-38.4,286.7,958.6,-1,-0.4,-2,25,-38.2255,287.03,957.574,-0.963305,-0.469338,-1.94978,
2026_07_06_16_22_29.963,3.869,45,0,0.771,0,0,0,0, ,0,0,0,0,0, ,-38.4,285.2,958.1,-0.9,-0.5,-2,25,-38.2361,286.964,957.621,-0.962494,-0.46816,-1.95284,
2026_07_06_16_22_29.987,3.869,45,0,0.769,0,0,0,0, ,0,0,0,0,0, ,-38.2,285.8,957.8,-1,-0.5,-2,25,-38.24,286.875,957.641,-0.961733,-0.4701,-1.95571,
2026_07_06_16_22_30.002,3.869,45.1,0,0.77,0,0,0,0, ,0,0,0,0,0, ,-37.8,286.7,958.1,-1,-0.4,-1.9,25,-38.2254,286.837,957.66,-0.964065,-0.468875,-1.95536,
2026_07_06_16_22_30.028,3.869,45,0,0.77,0,0,0,0, ,0,0,0,0,0, ,-38,286.9,957.7,-0.9,-0.4,-1.9,25,-38.2055,286.834,957.675,-0.963208,-0.464678,-1.95199,
2026_07_06_16_22_30.042,3.869,45.1,0,0.771,0,0,0,0, ,0,0,0,0,0, ,-36.8,286.4,958.2,-1,-0.5,-2,25,-38.1564,286.823,957.692,-0.962403,-0.463784,-1.95187,
2026_07_06_16_22_30.068,3.869,45,0,0.769,0,0,0,0, ,0,0,0,0,0, ,-37.7,284,958.6,-0.9,-0.5,-2,25,-38.1012,286.724,957.735,-0.961647,-0.465991,-1.9548,
2026_07_06_16_22_30.082,3.869,45.1,0,0.769,0,0,0,0, ,0,0,0,0,0, ,-38.5,286.6,958.2,-1,-0.5,-2,25,-38.1011,286.637,957.775,-0.960937,-0.468063,-1.95755,
2026_07_06_16_22_30.107,3.869,45.1,0,0.769,0,0,0,0, ,0,0,0,0,0, ,-38,287.1,958.1,-0.9,-0.5,-2,25,-38.1102,286.65,957.798,-0.960271,-0.470009,-1.96014,
2026_07_06_16_22_30.121,3.869,45,0,0.771,0,0,0,0, ,0,0,0,0,0, ,-37.8,288.2,957.6,-1,-0.5,-2,25,-38.0974,286.711,957.801,-0.959645,-0.471837,-1.96257,
2026_07_06_16_22_30.146,3.869,45.1,0,0.77,0,0,0,0, ,0,0,0,0,0, ,-37.9,286,956.7,-0.9,-0.4,-2,25,-38.0823,286.735,957.762,-0.959057,-0.470506,-1.96485,
2026_07_06_16_22_30.161,3.869,45,0,0.771,0,0,0,0, ,0,0,0,0,0, ,-39.1,287.1,957.5,-1,-0.5,-2,25,-38.1078,286.724,957.721,-0.958505,-0.469257,-1.96699,
2026_07_06_16_22_30.186,3.869,45,0,0.77,0,0,0,0, ,0,0,0,0,0, ,-38.4,286.7,957.8,-0.9,-0.5,-2,25,-38.1469,286.734,957.717,-0.957987,-0.47113,-1.969,
2026_07_06_16_22_30.200,3.869,45.1,0,0.77,0,0,0,0, ,0,0,0,0,0, ,-37.2,287.9,958,-0.9,-0.4,-1.8,25,-38.1258,286.769,957.728,-0.954454,-0.469842,-1.9648,
2026_07_06_16_22_30.227,3.869,45,0,0.769,0,0,0,0, ,0,0,0,0,0, ,-36.7,287.4,958.2,-0.9,-0.4,-1.9,25,-38.0541,286.823,957.751,-0.951135,-0.465586,-1.9578,
2026_07_06_16_22_30.240,3.869,45,0,0.771,0,0,0,0, ,0,0,0,0,0, ,-38.5,287.1,957.7,-0.9,-0.5,-1.9,25,-38.0265,286.849,957.763,-0.948019,-0.464637,-1.95428,
2026_07_06_16_22_30.265,3.869,44.9,0,0.771,0,0,0,0, ,0,0,0,0,0, ,-37.4,285.8,957.8,-1,-0.5,-2,25,-38.0218,286.824,957.762,-0.94814,-0.466792,-1.95402,
2026_07_06_16_22_30.279,3.869,45,0,0.77,0,0,0,0, ,0,0,0,0,0, ,-38.2,286.4,958,-0.9,-0.5,-2,25,-38.0083,286.78,957.771,-0.948253,-0.468815,-1.95682,
2026_07_06_16_22_30.304,3.869,45,0,0.77,0,0,0,0, ,0,0,0,0,0, ,-37.7,286.1,958.6,-0.9,-0.5,-2,25,-38.0047,286.748,957.803,-0.945313,-0.470716,-1.95945,
2026_07_06_16_22_30.319,3.869,45,0,0.769,0,0,0,0, ,0,0,0,0,0, ,-38.3,287.8,956,-1,-0.5,-1.9,25,-38.0044,286.76,957.772,-0.945598,-0.4725,-1.95888,
2026_07_06_16_22_30.345,3.869,44.9,0,0.77,0,0,0,0, ,0,0,0,0,0, ,-37.7,286.9,958.8,-0.9,-0.4,-1.9,25,-38.0042,286.796,957.749,-0.945867,-0.471129,-1.95529,
2026_07_06_16_22_30.358,3.869,45,0,0.771,0,0,0,0, ,0,0,0,0,0, ,-38.3,286.9,957.7,-1,-0.5,-1.8,25,-38.0039,286.802,957.78,-0.946119,-0.469841,-1.94887,
2026_07_06_16_22_30.385,3.869,44.9,0,0.771,0,0,0,0, ,0,0,0,0,0, ,-37.8,286.8,957.5,-1,-0.4,-1.9,25,-38.0067,286.805,957.769,-0.949402,-0.468632,-1.94285,
2026_07_06_16_22_30.399,3.869,45,0,0.77,0,0,0,0, ,0,0,0,0,0, ,-38,285.7,957.3,-0.9,-0.5,-1.9,25,-38.0002,286.772,957.747,-0.949438,-0.467497,-1.94024,
2026_07_06_16_22_30.425,3.869,45,0,0.77,0,0,0,0, ,0,0,0,0,0, ,-36.9,288.9,957,-1,-0.4,-1.9,25,-37.9667,286.804,957.71,-0.949473,-0.466431,-1.93779,
2026_07_06_16_22_30.437,3.869,45,0,0.77,0,0,0,0, ,0,0,0,0,0, ,-37.3,286.9,957.3,-0.9,-0.5,-1.9,25,-37.9139,286.871,957.676,-0.949505,-0.465429,-1.93548,
2026_07_06_16_22_30.464,3.869,45,0,0.77,0,0,0,0, ,0,0,0,0,0, ,-37.8,288,958,-1,-0.5,-2,25,-37.8917,286.906,957.674,-0.949535,-0.467536,-1.93637,
2026_07_06_16_22_30.477,3.869,44.9,0,0.77,0,0,0,0, ,0,0,0,0,0, ,-38.4,287.5,957.3,-0.9,-0.4,-2,25,-37.9044,286.957,957.673,-0.949563,-0.466468,-1.94025,
2026_07_06_16_22_30.503,3.869,44.9,0,0.77,0,0,0,0, ,0,0,0,0,0, ,-37.1,286.7,958.7,-1,-0.5,-1.9,25,-37.895,286.966,957.693,-0.94959,-0.465464,-1.94084,
2026_07_06_16_22_30.517,3.869,44.9,0,0.771,0,0,0,0, ,0,0,0,0,0, ,-37.8,286.6,957.8,-1,-0.5,-2,25,-37.8679,286.947,957.727,-0.952662,-0.467569,-1.9414,
2026_07_06_16_22_30.542,3.869,44.8,0,0.77,0,0,0,0, ,0,0,0,0,0, ,-36.7,287.5,958,-1,-0.5,-1.9,25,-37.8302,286.953,957.737,-0.955546,-0.469545,-1.94192,
2026_07_06_16_22_30.557,3.869,44.9,0,0.77,0,0,0,0, ,0,0,0,0,0, ,-37.5,287.3,957.3,-1,-0.5,-1.9,25,-37.7857,286.98,957.732,-0.958255,-0.471401,-1.93937,
2026_07_06_16_22_30.583,3.869,44.9,0,0.772,0,0,0,0, ,0,0,0,0,0, ,-38.4,286.6,957.1,-1,-0.4,-2,25,-37.7957,286.978,957.7,-0.960799,-0.470097,-1.94002,
2026_07_06_16_22_30.597,3.869,44.9,0,0.77,0,0,0,0, ,0,0,0,0,0, ,-38.9,286.4,957.2,-1,-0.5,-1.9,25,-37.8478,286.949,957.666,-0.963188,-0.468872,-1.94062,
2026_07_06_16_22_30.624,3.869,44.9,0,0.77,0,0,0,0, ,0,0,0,0,0, ,-37.8,287.2,957.1,-1,-0.4,-2,25,-37.8784,286.94,957.635,-0.965431,-0.467722,-1.9412,
2026_07_06_16_22_30.636,3.869,44.9,0,0.77,0,0,0,0, ,0,0,0,0,0, ,-38.2,287.5,956.1,-1,-0.4,-1.9,25,-37.8858,286.965,957.572,-0.967538,-0.463595,-1.94173,
2026_07_06_16_22_30.662,3.869,44.9,0,0.769,0,0,0,0, ,0,0,0,0,0, ,-37.4,287.3,956.1,-0.9,-0.5,-1.9,25,-37.8806,286.992,957.482,-0.966469,-0.462767,-1.93919,
2026_07_06_16_22_30.675,3.869,44.8,0,0.77,0,0,0,0, ,0,0,0,0,0, ,-37.4,287.8,958.3,-1,-0.5,-2,25,-37.8513,287.026,957.465,-0.965465,-0.465036,-1.93985,
2026_07_06_16_22_30.702,3.869,44.8,0,0.77,0,0,0,0, ,0,0,0,0,0, ,-38,287.8,957.3,-1,-0.5,-1.9,25,-37.8421,287.073,957.485,-0.96757,-0.467166,-1.94047,
2026_07_06_16_22_30.715,3.869,44.9,0,0.77,0,0,0,0, ,0,0,0,0,0, ,-37.1,286.7,956.7,-0.9,-0.4,-2,25,-37.8243,287.084,957.456,-0.966499,-0.46612,-1.94105,
2026_07_06_16_22_30.742,3.869,44.9,0,0.77,0,0,0,0, ,0,0,0,0,0, ,-38.5,286.4,957.2,-0.9,-0.5,-2,25,-37.8228,287.051,957.425,-0.962447,-0.465138,-1.94464,
2026_07_06_16_22_30.754,3.869,44.8,0,0.77,0,0,0,0, ,0,0,0,0,0, ,-38.3,286.9,957.7,-0.9,-0.5,-1.9,25,-37.858,287.027,957.426,-0.958642,-0.467262,-1.94497,
2026_07_06_16_22_30.781,3.869,44.8,0,0.769,0,0,0,0, ,0,0,0,0,0, ,-37.3,286.9,956.1,-0.9,-0.5,-1.9,25,-37.8544,287.019,957.394,-0.955068,-0.469257,-1.94223,
2026_07_06_16_22_30.794,3.869,44.9,0,0.769,0,0,0,0, ,0,0,0,0,0, ,-37.5,286.3,958.8,-1,-0.5,-1.9,25,-37.8267,286.993,957.398,-0.954759,-0.471131,-1.93965,
2026_07_06_16_22_30.822,3.869,44.8,0,0.772,0,0,0,0, ,0,0,0,0,0, ,-38.2,285.2,958.1,-0.9,-0.4,-2,25,-37.8282,286.918,957.462,-0.954469,-0.469843,-1.94028,
2026_07_06_16_22_30.833,3.869,44.8,0,0.77,0,0,0,0, ,0,0,0,0,0, ,-39.4,287.5,957.2,-1,-0.5,-1.9,25,-37.8874,286.883,957.473,-0.954197,-0.468634,-1.94088,
2026_07_06_16_22_30.859,3.869,44.8,0,0.768,0,0,0,0, ,0,0,0,0,0, ,-37.2,286.4,957.5,-1,-0.5,-2,25,-37.9125,286.887,957.466,-0.956988,-0.470545,-1.94143,
2026_07_06_16_22_30.872,3.869,44.8,0,0.769,0,0,0,0, ,0,0,0,0,0, ,-39.1,286.6,957.1,-1,-0.5,-1.9,25,-37.927,286.864,957.456,-0.959609,-0.47234,-1.94195,
2026_07_06_16_22_30.899,3.869,44.8,0,0.77,0,0,0,0, ,0,0,0,0,0, ,-37.4,287.5,956.5,-1,-0.5,-2,25,-37.9467,286.875,957.416,-0.96207,-0.474026,-1.94244,
2026_07_06_16_22_30.912,3.869,44.8,0,0.77,0,0,0,0, ,0,0,0,0,0, ,-38.4,286.8,956.9,-1,-0.4,-1.9,25,-37.9438,286.892,957.372,-0.964382,-0.472562,-1.9429,
2026_07_06_16_22_30.939,3.869,44.7,0,0.771,0,0,0,0, ,0,0,0,0,0, ,-38.8,286.4,957.5,-1,-0.5,-1.8,25,-37.9838,286.874,957.362,-0.966552,-0.471187,-1.93724,
2026_07_06_16_22_30.952,3.869,44.8,0,0.77,0,0,0,0, ,0,0,0,0,0, ,-38.5,285.8,958.1,-0.9,-0.4,-1.9,25,-38.0244,286.827,957.388,-0.965544,-0.469896,-1.93193,
2026_07_06_16_22_30.980,3.869,44.8,0,0.771,0,0,0,0, ,0,0,0,0,0, ,-38.5,287.1,958,-0.9,-0.5,-2,25,-38.0534,286.804,957.429,-0.961549,-0.468683,-1.93303,
2026_07_06_16_22_30.997,3.869,44.8,0,0.77,0,0,0,0, ,0,0,0,0,0, ,-36.9,288.4,956,-0.9,-0.5,-2,25,-38.0319,286.861,957.403,-0.957799,-0.470592,-1.93711,
2026_07_06_16_22_31.025,3.869,44.8,0,0.77,0,0,0,0, ,0,0,0,0,0, ,-37.9,286.8,956.6,-1,-0.5,-2,25,-37.9934,286.906,957.335,-0.957324,-0.472384,-1.94094,
2026_07_06_16_22_31.031,3.869,44.8,0,0.771,0,0,0,0, ,0,0,0,0,0, ,-38.4,286.8,957.8,-1,-0.5,-1.9,25,-38.0029,286.9,957.327,-0.959924,-0.474067,-1.94149,
2026_07_06_16_22_31.056,3.869,44.8,0,0.772,0,0,0,0, ,0,0,0,0,0, ,-38,286.6,958,-1,-0.5,-2,25,-38.0149,286.888,957.362,-0.962366,-0.475647,-1.94201,
2026_07_06_16_22_31.071,3.869,44.7,0,0.77,0,0,0,0, ,0,0,0,0,0, ,-37.8,285.8,958.3,-0.9,-0.5,-2,25,-38.0079,286.846,957.41,-0.961613,-0.477131,-1.94555,
2026_07_06_16_22_31.098,3.869,44.8,0,0.77,0,0,0,0, ,0,0,0,0,0, ,-38.8,287.9,957.7,-0.9,-0.4,-1.9,25,-38.0257,286.846,957.446,-0.957858,-0.475478,-1.94582,
2026_07_06_16_22_31.111,3.869,44.8,0,0.77,0,0,0,0, ,0,0,0,0,0, ,-38,287.5,956,-1,-0.5,-1.9,25,-38.0485,286.898,957.41,-0.957379,-0.473925,-1.94303,
2026_07_06_16_22_31.137,3.869,44.7,0,0.771,0,0,0,0, ,0,0,0,0,0, ,-38.3,286.7,956.4,-0.9,-0.5,-1.9,25,-38.0547,286.91,957.336,-0.95693,-0.475514,-1.9404,
2026_07_06_16_22_31.149,3.869,44.8,0,0.769,0,0,0,0, ,0,0,0,0,0, ,-37.5,287.7,957,-1,-0.4,-1.9,25,-38.0453,286.928,957.297,-0.956507,-0.473959,-1.93794,
2026_07_06_16_22_31.176,3.869,44.8,0,0.771,0,0,0,0, ,0,0,0,0,0, ,-38.4,287.4,959.2,-1,-0.4,-2,25,-38.0395,286.966,957.346,-0.959158,-0.469452,-1.93868,
2026_07_06_16_22_31.189,3.869,44.8,0,0.771,0,0,0,0, ,0,0,0,0,0, ,-36.8,286.8,957.8,-0.9,-0.5,-1.9,25,-38.0127,286.974,957.416,-0.9586,-0.468267,-1.93937,
2026_07_06_16_22_31.216,3.869,44.8,0,0.77,0,0,0,0, ,0,0,0,0,0, ,-37.5,286.3,957.6,-1,-0.5,-1.8,25,-37.9601,286.948,957.434,-0.958076,-0.470201,-1.93392,
2026_07_06_16_22_31.229,3.869,44.7,0,0.77,0,0,0,0, ,0,0,0,0,0, ,-38,287.1,958.2,-0.9,-0.5,-1.9,25,-37.9473,286.933,957.462,-0.957584,-0.472017,-1.92881,
2026_07_06_16_22_31.255,3.869,44.7,0,0.769,0,0,0,0, ,0,0,0,0,0, ,-37.8,286.8,958,-0.9,-0.4,-2,25,-37.9444,286.934,957.501,-0.954075,-0.470675,-1.9301,
2026_07_06_16_22_31.269,3.869,44.7,0,0.769,0,0,0,0, ,0,0,0,0,0, ,-37.9,285.1,958.3,-1,-0.5,-2,25,-37.9387,286.874,957.541,-0.953826,-0.469415,-1.93436,
2026_07_06_16_22_31.297,3.869,44.8,0,0.769,0,0,0,0, ,0,0,0,0,0, ,-38.6,286.2,958,-1,-0.5,-1.9,25,-37.9576,286.8,957.578,-0.95664,-0.471279,-1.93531,
2026_07_06_16_22_31.308,3.869,44.8,0,0.771,0,0,0,0, ,0,0,0,0,0, ,-37.7,287.3,957.1,-0.9,-0.5,-1.9,25,-37.9694,286.797,957.576,-0.956235,-0.473029,-1.93316,
2026_07_06_16_22_31.335,3.869,44.7,0,0.771,0,0,0,0, ,0,0,0,0,0, ,-37.3,288,958.3,-0.9,-0.5,-1.9,25,-37.9408,286.849,957.584,-0.952808,-0.474673,-1.93114,
2026_07_06_16_22_31.348,3.869,44.7,0,0.769,0,0,0,0, ,0,0,0,0,0, ,-37.5,286.8,957.6,-1,-0.5,-1.9,25,-37.9078,286.882,957.606,-0.952637,-0.476216,-1.92924,
2026_07_06_16_22_31.375,3.869,44.7,0,0.769,0,0,0,0, ,0,0,0,0,0, ,-37.5,286.3,958.1,-1,-0.5,-1.9,25,-37.883,286.862,957.621,-0.955523,-0.477665,-1.92746,
2026_07_06_16_22_31.387,3.869,44.7,0,0.77,0,0,0,0, ,0,0,0,0,0, ,-37.8,286.7,957.2,-1,-0.5,-2,25,-37.8688,286.84,957.623,-0.958234,-0.479026,-1.92883,
2026_07_06_16_22_31.415,3.869,44.7,0,0.769,0,0,0,0, ,0,0,0,0,0, ,-36.3,286.3,957.6,-0.9,-0.5,-1.9,25,-37.8189,286.819,957.609,-0.957732,-0.480304,-1.93012,
2026_07_06_16_22_31.428,3.869,44.7,0,0.771,0,0,0,0, ,0,0,0,0,0, ,-37.2,287.5,958.1,-1,-0.5,-1.9,25,-37.7537,286.824,957.624,-0.957261,-0.481505,-1.92829,
2026_07_06_16_22_31.456,3.869,44.7,0,0.771,0,0,0,0, ,0,0,0,0,0, ,-38,286,957,-1,-0.5,-2,25,-37.7444,286.82,957.619,-0.959865,-0.482632,-1.92961,
2026_07_06_16_22_31.468,3.869,44.6,0,0.77,0,0,0,0, ,0,0,0,0,0, ,-39,286.3,957.7,-1,-0.5,-1.9,25,-37.7904,286.779,957.603,-0.962311,-0.48369,-1.93085,
2026_07_06_16_22_31.494,3.869,44.7,0,0.771,0,0,0,0, ,0,0,0,0,0, ,-39.6,287.3,958.7,-1,-0.5,-2,25,-37.8824,286.78,957.639,-0.964608,-0.484684,-1.93202,
2026_07_06_16_22_31.505,3.869,44.7,0,0.771,0,0,0,0, ,0,0,0,0,0, ,-38.3,286.1,957.5,-0.9,-0.4,-1.9,25,-37.9475,286.775,957.667,-0.963718,-0.48257,-1.93312,
2026_07_06_16_22_31.534,3.869,44.7,0,0.769,0,0,0,0, ,0,0,0,0,0, ,-38.2,286.8,958.3,-1,-0.4,-2,25,-37.9659,286.755,957.681,-0.962882,-0.477539,-1.93414,
2026_07_06_16_22_31.546,3.869,44.6,0,0.77,0,0,0,0, ,0,0,0,0,0, ,-37.7,287.1,957.6,-1,-0.5,-2,25,-37.9649,286.767,957.698,-0.965143,-0.475861,-1.93816,
2026_07_06_16_22_31.574,3.869,44.6,0,0.77,0,0,0,0, ,0,0,0,0,0, ,-37.8,285.8,958.9,-0.9,-0.5,-1.9,25,-37.9518,286.748,957.731,-0.964221,-0.477332,-1.93888,
2026_07_06_16_22_31.589,3.869,44.7,0,0.77,0,0,0,0, ,0,0,0,0,0, ,-37.4,286.1,958.3,-0.9,-0.4,-2,25,-37.9304,286.699,957.784,-0.960307,-0.475666,-1.93956,
2026_07_06_16_22_31.616,3.869,44.6,0,0.77,0,0,0,0, ,0,0,0,0,0, ,-38.3,286.8,959.8,-0.9,-0.4,-2,25,-37.9255,286.684,957.861,-0.956632,-0.471055,-1.94324,
2026_07_06_16_22_31.625,3.869,44.7,0,0.771,0,0,0,0, ,0,0,0,0,0, ,-38.3,287.8,959.2,-0.9,-0.5,-1.9,25,-37.9483,286.722,957.961,-0.953181,-0.469772,-1.94365,
2026_07_06_16_22_31.653,3.869,44.7,0,0.771,0,0,0,0, ,0,0,0,0,0, ,-37.1,286.8,958.8,-1,-0.4,-2,25,-37.9332,286.757,958.025,-0.952987,-0.468567,-1.94404,
2026_07_06_16_22_31.665,3.869,44.6,0,0.771,0,0,0,0, ,0,0,0,0,0, ,-37.1,286.9,958.2,-0.9,-0.5,-2,25,-37.8824,286.763,958.054,-0.952805,-0.467436,-1.94745,
2026_07_06_16_22_31.692,3.869,44.6,0,0.77,0,0,0,0, ,0,0,0,0,0, ,-37.9,286.7,958.4,-1,-0.5,-1.8,25,-37.8591,286.765,958.069,-0.952634,-0.46942,-1.94456,
2026_07_06_16_22_31.704,3.869,44.6,0,0.769,0,0,0,0, ,0,0,0,0,0, ,-38.2,285.6,957.2,-1,-0.4,-1.9,25,-37.8707,286.727,958.052,-0.955521,-0.468237,-1.9388,
2026_07_06_16_22_31.730,3.869,44.7,0,0.771,0,0,0,0, ,0,0,0,0,0, ,-38.4,288,957.3,-1,-0.5,-2,25,-37.8969,286.732,958.003,-0.958231,-0.467125,-1.93948,
2026_07_06_16_22_31.743,3.869,44.6,0,0.77,0,0,0,0, ,0,0,0,0,0, ,-37.9,287.3,957.3,-1,-0.5,-1.9,25,-37.9123,286.788,957.961,-0.960776,-0.469129,-1.94012,
2026_07_06_16_22_31.770,3.869,44.7,0,0.769,0,0,0,0, ,0,0,0,0,0, ,-38.3,287.4,959.3,-1,-0.5,-1.9,25,-37.9238,286.822,957.981,-0.963167,-0.47101,-1.93767,
2026_07_06_16_22_31.783,3.869,44.6,0,0.769,0,0,0,0, ,0,0,0,0,0, ,-37.5,286.9,959.3,-1,-0.5,-2,25,-37.9223,286.842,958.062,-0.965411,-0.472777,-1.93843,
2026_07_06_16_22_31.811,3.869,44.6,0,0.769,0,0,0,0, ,0,0,0,0,0, ,-39.1,286.7,957.7,-0.9,-0.5,-1.9,25,-37.9453,286.839,958.088,-0.964472,-0.474435,-1.93913,
2026_07_06_16_22_31.823,3.869,44.5,0,0.771,0,0,0,0, ,0,0,0,0,0, ,-38.6,287.2,957.7,-0.9,-0.5,-1.9,25,-38.0005,286.846,958.065,-0.960543,-0.475993,-1.93675,
2026_07_06_16_22_31.851,3.869,44.6,0,0.77,0,0,0,0, ,0,0,0,0,0, ,-37.5,286.6,959.9,-1,-0.4,-1.9,25,-38.0035,286.849,958.109,-0.959901,-0.474409,-1.93451,
2026_07_06_16_22_31.862,3.869,44.6,0,0.77,0,0,0,0, ,0,0,0,0,0, ,-38.9,285,957.5,-1,-0.5,-1.9,25,-38.0154,286.786,958.145,-0.962344,-0.472922,-1.9324,
2026_07_06_16_22_31.889,3.869,44.6,0,0.77,0,0,0,0, ,0,0,0,0,0, ,-38.2,287.2,957.5,-1,-0.5,-1.9,25,-38.048,286.744,958.106,-0.964639,-0.474572,-1.93043,
2026_07_06_16_22_31.901,3.869,44.6,0,0.77,0,0,0,0, ,0,0,0,0,0, ,-38.6,287.8,958,-1,-0.5,-1.9,25,-38.0695,286.79,958.084,-0.966794,-0.476122,-1.92858,
2026_07_06_16_22_31.930,3.869,44.6,0,0.769,0,0,0,0, ,0,0,0,0,0, ,-37.5,286.4,957.2,-0.9,-0.5,-2,25,-38.0683,286.809,958.055,-0.96577,-0.477577,-1.92988,
2026_07_06_16_22_31.942,3.869,44.5,0,0.769,0,0,0,0, ,0,0,0,0,0, ,-39.1,287.5,957.1,-0.9,-0.5,-2,25,-38.0824,286.817,958,-0.961763,-0.478943,-1.93415,
2026_07_06_16_22_31.970,3.869,44.6,0,0.77,0,0,0,0, ,0,0,0,0,0, ,-38,287.4,957.7,-0.9,-0.4,-2,25,-38.1109,286.856,957.963,-0.957999,-0.477179,-1.93817,
2026_07_06_16_22_31.982,3.869,44.6,0,0.768,0,0,0,0, ,0,0,0,0,0, ,-38.8,287.3,957.8,-0.9,-0.5,-1.9,25,-38.1285,286.886,957.95,-0.954465,-0.475523,-1.93889,
2026_07_06_16_22_32.009,3.869,44.5,0,0.77,0,0,0,0, ,0,0,0,0,0, ,-38.3,286.4,956.9,-0.9,-0.5,-2,25,-38.1542,286.884,957.914,-0.951146,-0.477015,-1.93956,
2026_07_06_16_22_32.021,3.869,44.6,0,0.77,0,0,0,0, ,0,0,0,0,0, ,-37.4,288.4,957.8,-0.9,-0.5,-2,25,-38.1357,286.915,957.879,-0.948029,-0.478415,-1.94325,
2026_07_06_16_22_32.049,3.869,44.6,0,0.77,0,0,0,0, ,0,0,0,0,0, ,-37.7,288.2,957.7,-1,-0.5,-2,25,-38.1,287,957.871,-0.948149,-0.479731,-1.94671,
2026_07_06_16_22_32.061,3.869,44.6,0,0.77,0,0,0,0, ,0,0,0,0,0, ,-38.3,286,958.4,-1,-0.4,-1.9,25,-38.0939,287.006,957.882,-0.951309,-0.477919,-1.94691,
2026_07_06_16_22_32.089,3.869,44.5,0,0.77,0,0,0,0, ,0,0,0,0,0, ,-38.4,286.3,957.7,-0.9,-0.5,-1.9,25,-38.1095,286.954,957.893,-0.951229,-0.476218,-1.94405,
2026_07_06_16_22_32.099,3.869,44.5,0,0.769,0,0,0,0, ,0,0,0,0,0, ,-39.1,286.1,957.6,-0.9,-0.5,-1.9,25,-38.1485,286.908,957.878,-0.948107,-0.477667,-1.94136,
2026_07_06_16_22_32.130,3.869,44.5,0,0.77,0,0,0,0, ,0,0,0,0,0, ,-37.1,287.1,957.5,-0.9,-0.5,-1.9,25,-38.1456,286.889,957.858,-0.945176,-0.479028,-1.93884,
2026_07_06_16_22_32.140,3.869,44.5,0,0.77,0,0,0,0, ,0,0,0,0,0, ,-36.6,287.7,958.3,-1,-0.5,-1.9,25,-38.0666,286.92,957.86,-0.94547,-0.480306,-1.93648,
2026_07_06_16_22_32.167,3.869,44.5,0,0.77,0,0,0,0, ,0,0,0,0,0, ,-37.8,287.2,958.6,-0.9,-0.5,-1.9,25,-38.0138,286.952,957.896,-0.945746,-0.481506,-1.93425,
2026_07_06_16_22_32.179,3.869,44.5,0,0.77,0,0,0,0, ,0,0,0,0,0, ,-39,286.8,957.7,-0.9,-0.5,-1.9,25,-38.0373,286.955,957.912,-0.942958,-0.482633,-1.93217,
2026_07_06_16_22_32.207,3.869,44.5,0,0.769,0,0,0,0, ,0,0,0,0,0, ,-38.3,286,958.6,-1,-0.5,-1.9,25,-38.0747,286.921,957.926,-0.943387,-0.483691,-1.93021,
2026_07_06_16_22_32.219,3.869,44.5,0,0.77,0,0,0,0, ,0,0,0,0,0, ,-37.2,287.7,958.4,-1,-0.5,-1.9,25,-38.0549,286.917,957.961,-0.946837,-0.484685,-1.92837,
2026_07_06_16_22_32.252,3.869,44.5,0,0.77,0,0,0,0, ,0,0,0,0,0, ,-39.4,288.6,958,-0.9,-0.5,-2,25,-38.0698,286.992,957.976,-0.94703,-0.485618,-1.92968,
2026_07_06_16_22_32.258,3.869,44.5,0,0.769,0,0,0,0, ,0,0,0,0,0, ,-38.4,287.8,957.8,-1,-0.5,-1.9,25,-38.1204,287.066,957.971,-0.947211,-0.486495,-1.93092,
2026_07_06_16_22_32.286,3.869,44.5,0,0.77,0,0,0,0, ,0,0,0,0,0, ,-37.1,287.5,958,-0.9,-0.5,-2,25,-38.0978,287.101,957.967,-0.947381,-0.487318,-1.93208,
2026_07_06_16_22_32.297,3.869,44.5,0,0.77,0,0,0,0, ,0,0,0,0,0, ,-36.9,287.8,958.2,-1,-0.5,-2,25,-38.0309,287.135,957.975,-0.94754,-0.48809,-1.93622,
2026_07_06_16_22_32.327,3.869,44.5,0,0.771,0,0,0,0, ,0,0,0,0,0, ,-37.3,287.3,958.6,-0.9,-0.5,-1.9,25,-37.9742,287.16,958.001,-0.94769,-0.488816,-1.93706,
2026_07_06_16_22_32.337,3.869,44.4,0,0.77,0,0,0,0, ,0,0,0,0,0, ,-39,288.3,957.7,-1,-0.5,-1.9,25,-37.9849,287.199,958.01,-0.947831,-0.489498,-1.9348,
2026_07_06_16_22_32.366,3.869,44.5,0,0.769,0,0,0,0, ,0,0,0,0,0, ,-38,286.4,956.4,-0.9,-0.5,-2,25,-38.0163,287.208,957.951,-0.947963,-0.490138,-1.93573,
2026_07_06_16_22_32.376,3.869,44.6,0,0.769,0,0,0,0, ,0,0,0,0,0, ,-39,286.9,960,-1,-0.5,-2,25,-38.0458,287.174,957.967,-0.948087,-0.490739,-1.93965,
2026_07_06_16_22_32.406,3.869,44.4,0,0.77,0,0,0,0, ,0,0,0,0,0, ,-38,286,958.1,-0.9,-0.5,-2,25,-38.0735,287.13,958.033,-0.948204,-0.491303,-1.94332,
2026_07_06_16_22_32.417,3.869,44.4,0,0.77,0,0,0,0, ,0,0,0,0,0, ,-36.6,286.1,958.3,-0.9,-0.5,-1.9,25,-38.0263,287.064,958.043,-0.945266,-0.491833,-1.94373,
2026_07_06_16_22_32.445,3.869,44.4,0,0.772,0,0,0,0, ,0,0,0,0,0, ,-38.6,286.9,958.6,-1,-0.5,-1.9,25,-38.0004,287.03,958.068,-0.945555,-0.492331,-1.94107,
2026_07_06_16_22_32.456,3.869,44.4,0,0.769,0,0,0,0, ,0,0,0,0,0, ,-38,286.7,957.1,-0.9,-0.5,-1.9,25,-38.0186,287.016,958.054,-0.945826,-0.492798,-1.93856,
2026_07_06_16_22_32.484,3.869,44.4,0,0.769,0,0,0,0, ,0,0,0,0,0, ,-37.5,287.5,956.9,-0.9,-0.4,-1.9,25,-38.0022,287.021,957.99,-0.943033,-0.49019,-1.93621,
2026_07_06_16_22_32.495,3.869,44.4,0,0.77,0,0,0,0, ,0,0,0,0,0, ,-37.7,286.2,956.7,-1,-0.5,-1.9,25,-37.9777,287.011,957.918,-0.943458,-0.487741,-1.93401,
2026_07_06_16_22_32.525,3.869,44.4,0,0.77,0,0,0,0, ,0,0,0,0,0, ,-37.9,287.5,956.9,-1,-0.4,-2,25,-37.9669,287.001,957.849,-0.946903,-0.485441,-1.93498,
2026_07_06_16_22_32.535,3.869,44.4,0,0.771,0,0,0,0, ,0,0,0,0,0, ,-37.9,288,956.6,-1,-0.4,-1.9,25,-37.9628,287.047,957.782,-0.950139,-0.480235,-1.9359,
2026_07_06_16_22_32.564,3.869,44.4,0,0.77,0,0,0,0, ,0,0,0,0,0, ,-38.5,286.3,959.1,-0.9,-0.5,-2,25,-37.9773,287.053,957.787,-0.95013,-0.478392,-1.93676,
2026_07_06_16_22_32.575,3.869,44.4,0,0.77,0,0,0,0, ,0,0,0,0,0, ,-38.6,288.2,956.5,-0.9,-0.4,-2,25,-38.0122,287.065,957.787,-0.947076,-0.476662,-1.94061,
2026_07_06_16_22_32.604,3.869,44.4,0,0.77,0,0,0,0, ,0,0,0,0,0, ,-37.9,287.2,958.3,-0.9,-0.5,-1.9,25,-38.0267,287.104,957.764,-0.944207,-0.475037,-1.94118,
2026_07_06_16_22_32.614,3.869,44.3,0,0.77,0,0,0,0, ,0,0,0,0,0, ,-37.8,286.9,959.2,-0.9,-0.5,-1.9,25,-38.0159,287.1,957.824,-0.941513,-0.476558,-1.93867,
2026_07_06_16_22_32.644,3.869,44.4,0,0.77,0,0,0,0, ,0,0,0,0,0, ,-38.4,286,958.2,-1,-0.4,-2,25,-38.021,287.061,957.877,-0.94203,-0.47494,-1.93936,
2026_07_06_16_22_32.653,3.869,44.4,0,0.769,0,0,0,0, ,0,0,0,0,0, ,-36,286.8,959.2,-1,-0.5,-2,25,-37.971,287.02,957.927,-0.945563,-0.47342,-1.94306,
2026_07_06_16_22_32.683,3.869,44.5,0,0.77,0,0,0,0, ,0,0,0,0,0, ,-36.8,286.1,957.2,-0.9,-0.4,-2,25,-37.8753,286.986,957.944,-0.945833,-0.471993,-1.94653,
2026_07_06_16_22_32.692,3.869,44.3,0,0.77,0,0,0,0, ,0,0,0,0,0, ,-37.9,287.3,958.2,-0.9,-0.5,-1.9,25,-37.8433,286.968,957.929,-0.94304,-0.470653,-1.94674,
2026_07_06_16_22_32.723,3.869,44.4,0,0.77,0,0,0,0, ,0,0,0,0,0, ,-38.9,286.8,958.6,-1,-0.5,-1.9,25,-37.8772,286.973,957.958,-0.943464,-0.472441,-1.94389,
2026_07_06_16_22_32.733,3.869,44.4,0,0.769,0,0,0,0, ,0,0,0,0,0, ,-38.9,286.9,956.7,-0.9,-0.5,-1.9,25,-37.9395,286.966,957.939,-0.943863,-0.474121,-1.94122,
2026_07_06_16_22_32.762,3.869,44.4,0,0.768,0,0,0,0, ,0,0,0,0,0, ,-37.1,286.3,957.5,-0.9,-0.5,-2,25,-37.9432,286.943,957.888,-0.94119,-0.475698,-1.94175,
2026_07_06_16_22_32.773,3.869,44.4,0,0.77,0,0,0,0, ,0,0,0,0,0, ,-38.8,287.5,958.3,-1,-0.5,-1.9,25,-37.9436,286.941,957.889,-0.941727,-0.477179,-1.94225,
2026_07_06_16_22_32.802,3.869,44.5,0,0.77,0,0,0,0, ,0,0,0,0,0, ,-37.8,286.2,957.5,-0.9,-0.5,-2,25,-37.9653,286.935,957.889,-0.942231,-0.478569,-1.94273,
2026_07_06_16_22_32.812,3.869,44.3,0,0.77,0,0,0,0, ,0,0,0,0,0, ,-38.4,287.2,959.1,-0.9,-0.5,-2,25,-37.9735,286.921,957.914,-0.939657,-0.479875,-1.94622,
2026_07_06_16_22_32.842,3.869,44.3,0,0.769,0,0,0,0, ,0,0,0,0,0, ,-37.4,286.4,957.1,-1,-0.5,-1.9,25,-37.9691,286.914,957.926,-0.940288,-0.481102,-1.94645,
2026_07_06_16_22_32.852,3.869,44.3,0,0.769,0,0,0,0, ,0,0,0,0,0, ,-38,285.4,958.4,-0.9,-0.5,-1.9,25,-37.9527,286.852,957.915,-0.940879,-0.482253,-1.94362,
2026_07_06_16_22_32.881,3.869,44.4,0,0.77,0,0,0,0, ,0,0,0,0,0, ,-36.8,286.4,957.1,-0.9,-0.5,-2,25,-37.919,286.794,957.905,-0.938388,-0.483335,-1.94401,
2026_07_06_16_22_32.892,3.869,44.3,0,0.77,0,0,0,0, ,0,0,0,0,0, ,-37.3,286.3,957.3,-0.9,-0.5,-1.9,25,-37.866,286.767,957.862,-0.936049,-0.48435,-1.94437,
2026_07_06_16_22_32.922,3.869,44.4,0,0.77,0,0,0,0, ,0,0,0,0,0, ,-38.2,287.3,956.4,-1,-0.5,-2,25,-37.859,286.769,957.8,-0.936899,-0.485304,-1.94471,
2026_07_06_16_22_32.930,3.869,44.3,0,0.77,0,0,0,0, ,0,0,0,0,0, ,-37.3,287.2,957,-0.9,-0.5,-2,25,-37.8523,286.798,957.733,-0.937698,-0.486199,-1.94808,
2026_07_06_16_22_32.967,3.869,44.4,0,0.77,0,0,0,0, ,0,0,0,0,0, ,-38.5,287.3,957.5,-1,-0.4,-2,25,-37.8552,286.826,957.704,-0.938447,-0.483993,-1.95125,
2026_07_06_16_22_32.971,3.869,44.3,0,0.77,0,0,0,0, ,0,0,0,0,0, ,-38.3,286.4,957.8,-0.9,-0.5,-2,25,-37.8884,286.827,957.701,-0.939151,-0.481922,-1.95422,
2026_07_06_16_22_33.003,3.869,44.3,0,0.77,0,0,0,0, ,0,0,0,0,0, ,-37.2,287.4,956.4,-1,-0.5,-1.9,25,-37.88,286.832,957.664,-0.939812,-0.483024,-1.95396,
2026_07_06_16_22_33.009,3.869,44.4,0,0.77,0,0,0,0, ,0,0,0,0,0, ,-38.8,287.1,959.3,-0.9,-0.5,-1.9,25,-37.8873,286.857,957.675,-0.940433,-0.484058,-1.95067,
2026_07_06_16_22_33.040,3.869,44.3,0,0.771,0,0,0,0, ,0,0,0,0,0, ,-37.9,285.8,957,-1,-0.5,-2,25,-37.9155,286.832,957.704,-0.941016,-0.48503,-1.95063,
2026_07_06_16_22_33.049,3.869,44.3,0,0.77,0,0,0,0, ,0,0,0,0,0, ,-38.4,285.6,959.3,-1,-0.5,-1.9,25,-37.9298,286.763,957.731,-0.94461,-0.485942,-1.95059,
2026_07_06_16_22_33.081,3.869,44.3,0,0.769,0,0,0,0, ,0,0,0,0,0, ,-38.3,286.9,958,-0.9,-0.5,-1.9,25,-37.9554,286.732,957.787,-0.944939,-0.486798,-1.94751,
2026_07_06_16_22_33.089,3.869,44.3,0,0.77,0,0,0,0, ,0,0,0,0,0, ,-37.8,287.1,958.2,-1,-0.4,-2,25,-37.9612,286.748,957.806,-0.945247,-0.484556,-1.94766,
2026_07_06_16_22_33.118,3.869,44.3,0,0.768,0,0,0,0, ,0,0,0,0,0, ,-38.9,286.3,957.7,-0.9,-0.5,-1.9,25,-37.9849,286.745,957.815,-0.945537,-0.48245,-1.9478,
2026_07_06_16_22_33.128,3.869,44.3,0,0.77,0,0,0,0, ,0,0,0,0,0, ,-39.5,286.9,957.6,-0.9,-0.5,-2,25,-38.0589,286.737,957.805,-0.942762,-0.48352,-1.94794,
2026_07_06_16_22_33.160,3.869,44.3,0,0.769,0,0,0,0, ,0,0,0,0,0, ,-38.2,286.9,958.1,-0.9,-0.4,-2,25,-38.1071,286.746,957.808,-0.940156,-0.481477,-1.95111,
2026_07_06_16_22_33.169,3.869,44.2,0,0.769,0,0,0,0, ,0,0,0,0,0, ,-36.4,286,957.8,-0.9,-0.5,-1.9,25,-38.0579,286.728,957.816,-0.937709,-0.479559,-1.95104,
2026_07_06_16_22_33.199,3.869,44.2,0,0.769,0,0,0,0, ,0,0,0,0,0, ,-38,286.6,956.6,-0.9,-0.5,-1.9,25,-38.0056,286.702,957.779,-0.935411,-0.480805,-1.94793,
2026_07_06_16_22_33.208,3.869,44.2,0,0.77,0,0,0,0, ,0,0,0,0,0, ,-38.2,286.7,958.7,-0.9,-0.5,-1.9,25,-38.0114,286.699,957.771,-0.933253,-0.481974,-1.94501,
2026_07_06_16_22_33.237,3.869,44.2,0,0.77,0,0,0,0, ,0,0,0,0,0, ,-38.6,286.1,958.3,-1,-0.5,-1.9,25,-38.0351,286.681,957.815,-0.934274,-0.483073,-1.94227,
2026_07_06_16_22_33.247,3.869,44.2,0,0.77,0,0,0,0, ,0,0,0,0,0, ,-38.2,287.4,956.7,-1,-0.5,-2.1,25,-38.0573,286.685,957.796,-0.938279,-0.484104,-1.94579,
2026_07_06_16_22_33.280,3.869,44.3,0,0.769,0,0,0,0, ,0,0,0,0,0, ,-39.6,287.3,959.5,-1,-0.5,-2,25,-38.1087,286.726,957.815,-0.94204,-0.485073,-1.95214,
2026_07_06_16_22_33.286,3.869,44.2,0,0.77,0,0,0,0, ,0,0,0,0,0, ,-36.1,286.1,956,-0.9,-0.5,-1.9,25,-38.0929,286.724,957.811,-0.942525,-0.485983,-1.95201,
2026_07_06_16_22_33.318,3.869,44.3,0,0.769,0,0,0,0, ,0,0,0,0,0, ,-37.5,285.8,957.5,-1,-0.5,-2,25,-38.0141,286.677,957.746,-0.942981,-0.486837,-1.95188,
2026_07_06_16_22_33.326,3.869,44.3,0,0.77,0,0,0,0, ,0,0,0,0,0, ,-37.4,286.8,957.3,-1,-0.4,-1.8,25,-37.9797,286.654,957.725,-0.946455,-0.484592,-1.94872,
2026_07_06_16_22_33.357,3.869,44.3,0,0.77,0,0,0,0, ,0,0,0,0,0, ,-37.1,286.8,957.7,-1,-0.5,-2,25,-37.9353,286.663,957.711,-0.949718,-0.482484,-1.94575,
2026_07_06_16_22_33.366,3.869,44.3,0,0.77,0,0,0,0, ,0,0,0,0,0, ,-38.2,286.7,957,-1,-0.5,-1.9,25,-37.9179,286.668,957.689,-0.952782,-0.483551,-1.94601,
2026_07_06_16_22_33.396,3.869,44.2,0,0.769,0,0,0,0, ,0,0,0,0,0, ,-37.7,287.5,957.5,-1,-0.4,-1.9,25,-37.9198,286.694,957.663,-0.95566,-0.481507,-1.94321,
2026_07_06_16_22_33.406,3.869,44.2,0,0.769,0,0,0,0, ,0,0,0,0,0, ,-39.7,286.3,958.2,-1,-0.4,-1.9,25,-37.9674,286.707,957.674,-0.958362,-0.47654,-1.94058,
2026_07_06_16_22_33.437,3.869,44.2,0,0.769,0,0,0,0, ,0,0,0,0,0, ,-38,285.7,957.5,-0.9,-0.4,-1.9,25,-38.0212,286.664,957.685,-0.957852,-0.471876,-1.9381,
2026_07_06_16_22_33.445,3.869,44.3,0,0.769,0,0,0,0, ,0,0,0,0,0, ,-37.8,286.7,957.6,-1,-0.5,-1.9,25,-38.0138,286.636,957.677,-0.957374,-0.470543,-1.93578,
2026_07_06_16_22_33.476,3.869,44.2,0,0.77,0,0,0,0, ,0,0,0,0,0, ,-37.7,287.9,958.2,-1,-0.5,-1.9,25,-37.9977,286.676,957.69,-0.959971,-0.472338,-1.9336,
2026_07_06_16_22_33.484,3.869,44.2,0,0.769,0,0,0,0, ,0,0,0,0,0, ,-38.5,286.1,957,-0.9,-0.6,-1.9,25,-38.0039,286.696,957.685,-0.959363,-0.47707,-1.93155,
2026_07_06_16_22_33.516,3.869,44.1,0,0.77,0,0,0,0, ,0,0,0,0,0, ,-38.6,286.2,956.9,-1,-0.5,-2,25,-38.0372,286.663,957.64,-0.958793,-0.481515,-1.93268,
2026_07_06_16_22_33.525,3.869,44.2,0,0.769,0,0,0,0, ,0,0,0,0,0, ,-38.5,285.8,957.5,-1,-0.5,-2,25,-38.0685,286.622,957.613,-0.961304,-0.482641,-1.93678,
2026_07_06_16_22_33.557,3.869,44.2,0,0.769,0,0,0,0, ,0,0,0,0,0, ,-37.4,286.7,959.8,-1,-0.5,-1.9,25,-38.0612,286.6,957.676,-0.963662,-0.483699,-1.93759,
2026_07_06_16_22_33.563,3.869,44.1,0,0.769,0,0,0,0, ,0,0,0,0,0, ,-37.5,286.2,958.6,-1,-0.5,-1.9,25,-38.024,286.59,957.769,-0.965876,-0.484692,-1.9353,
2026_07_06_16_22_33.596,3.869,44.2,0,0.77,0,0,0,0, ,0,0,0,0,0, ,-37.8,286.3,958,-1,-0.5,-2,25,-38.0012,286.57,957.801,-0.967956,-0.485625,-1.93619,
2026_07_06_16_22_33.603,3.869,44.2,0,0.77,0,0,0,0, ,0,0,0,0,0, ,-37.9,287.1,957.3,-1,-0.5,-1.9,25,-37.992,286.578,957.792,-0.969908,-0.486501,-1.93703,
2026_07_06_16_22_33.635,3.869,44.2,0,0.77,0,0,0,0, ,0,0,0,0,0, ,-38.9,286.3,958.2,-1,-0.6,-2.1,25,-38.0169,286.585,957.79,-0.971742,-0.49037,-1.94087,
2026_07_06_16_22_33.643,3.869,44.2,0,0.77,0,0,0,0, ,0,0,0,0,0, ,-37.7,287.1,957.7,-1,-0.4,-2,25,-38.0341,286.592,957.799,-0.973464,-0.490957,-1.94752,
2026_07_06_16_22_33.673,3.869,44.2,0,0.77,0,0,0,0, ,0,0,0,0,0, ,-37.8,287.2,957.1,-1,-0.5,-1.9,25,-38.0168,286.626,957.775,-0.975081,-0.488461,-1.94767,
2026_07_06_16_22_33.682,3.869,44.1,0,0.77,0,0,0,0, ,0,0,0,0,0, ,-36.8,285.7,956.2,-1,-0.5,-1.9,25,-37.9731,286.615,957.707,-0.9766,-0.489165,-1.94477,
2026_07_06_16_22_33.714,3.869,44.2,0,0.769,0,0,0,0, ,0,0,0,0,0, ,-37.9,288.2,957.3,-0.9,-0.4,-2,25,-37.9351,286.636,957.648,-0.974979,-0.486778,-1.94508,
2026_07_06_16_22_33.722,3.869,44.2,0,0.769,0,0,0,0, ,0,0,0,0,0, ,-38.4,287.4,957.3,-1,-0.5,-1.8,25,-37.9482,286.707,957.627,-0.973457,-0.484537,-1.94234,
2026_07_06_16_22_33.754,3.869,44.2,0,0.77,0,0,0,0, ,0,0,0,0,0, ,-38.2,286.6,957.6,-1,-0.5,-1.9,25,-37.9697,286.725,957.616,-0.975074,-0.485479,-1.93671,
2026_07_06_16_22_33.762,3.869,44.1,0,0.77,0,0,0,0, ,0,0,0,0,0, ,-39,287.4,955.5,-1,-0.4,-1.9,25,-38.0081,286.741,957.551,-0.976593,-0.483317,-1.93447,
2026_07_06_16_22_33.792,3.869,44.1,0,0.771,0,0,0,0, ,0,0,0,0,0, ,-36,287.2,958.3,-1,-0.4,-2,25,-37.9771,286.775,957.512,-0.978019,-0.47824,-1.93542,
2026_07_06_16_22_33.803,3.869,44.1,0,0.768,0,0,0,0, ,0,0,0,0,0, ,-38.4,286.3,956.7,-0.9,-0.5,-1.9,25,-37.9298,286.774,957.511,-0.976312,-0.476519,-1.93631,
2026_07_06_16_22_33.835,3.869,44.1,0,0.769,0,0,0,0, ,0,0,0,0,0, ,-38,287.3,957.3,-0.9,-0.5,-1.9,25,-37.9462,286.775,957.48,-0.971662,-0.47795,-1.9341,
2026_07_06_16_22_33.841,3.869,44.2,0,0.77,0,0,0,0, ,0,0,0,0,0, ,-38.6,287.3,958.4,-1,-0.5,-2,25,-37.9678,286.807,957.502,-0.970342,-0.479294,-1.93506,
2026_07_06_16_22_33.871,3.869,44,0,0.771,0,0,0,0, ,0,0,0,0,0, ,-37.2,286.6,957.6,-0.9,-0.5,-1.9,25,-37.9637,286.816,957.533,-0.969102,-0.480555,-1.93598,
