UTC_Time,Vin,TC1,TC2,Rh1,Vh1,Ah1,Acp1,Dty1,Err1,Rh2,Vh2,Ah2,Acp2,Dty2,Err2,Accel_x,Accel_y,Accel_z,gyro_x,gyro_y,gyro_z,Temp_c,Accel_x_h,Accel_y_h,Accel_z_h,gyro_x_h,gyro_y_h,gyro_z_h,
2026_07_06_14_21_37.912,0,30.2,0,0.758,0,0,0,0, ,0,0,0,0,0, ,-37.1,366,929,-0.9,-0.5,-2,25,-37.1,366,929,-0.9,-0.5,-2,
2026_07_06_14_21_37.932,0,30.1,0,0.757,0,0,0,0, ,0,0,0,0,0, ,-37.2,363.8,928.3,-0.9,-0.5,-2,25,-37.103,365.933,928.979,-0.9,-0.5,-2,
2026_07_06_14_21_37.952,0,30.1,0,0.758,0,0,0,0, ,0,0,0,0,0, ,-37.3,366.9,929.6,-0.9,-0.6,-2.1,25,-37.112,365.897,928.977,-0.9,-0.503047,-2.00305,
2026_07_06_14_21_37.972,0,30.1,0,0.757,0,0,0,0, ,0,0,0,0,0, ,-38.9,367.4,929.1,-0.9,-0.5,-2,25,-37.1722,365.974,929,-0.9,-0.505908,-2.00591,
2026_07_06_14_21_37.992,0,30.1,0,0.756,0,0,0,0, ,0,0,0,0,0, ,-36.9,366.3,929.5,-0.9,-0.5,-2,25,-37.2166,366.027,929.018,-0.9,-0.505548,-2.00555,
2026_07_06_14_21_38.011,0,30.1,0,0.757,0,0,0,0, ,0,0,0,0,0, ,-37.8,366.3,928.1,-0.8,-0.6,-2,25,-37.2247,366.044,929.005,-0.896953,-0.508257,-2.00521,
2026_07_06_14_21_38.031,0,30.1,0,0.76,0,0,0,0, ,0,0,0,0,0, ,-37.8,364.2,929.6,-0.9,-0.5,-2,25,-37.2597,365.995,928.995,-0.894092,-0.510801,-2.00489,
2026_07_06_14_21_38.051,0,30.1,0,0.759,0,0,0,0, ,0,0,0,0,0, ,-37.5,367,929.9,-0.9,-0.4,-2,25,-37.2835,365.971,929.041,-0.894452,-0.507096,-2.00459,
2026_07_06_14_21_38.071,0,30,0,0.76,0,0,0,0, ,0,0,0,0,0, ,-37.5,365.7,929.5,-0.8,-0.5,-1.9,25,-37.2967,365.994,929.081,-0.891743,-0.503616,-2.00127,
2026_07_06_14_21_38.096,0,30.1,0,0.76,0,0,0,0, ,0,0,0,0,0, ,-36.7,365.8,929.3,-0.9,-0.5,-1.9,25,-37.2847,365.98,929.101,-0.889199,-0.503396,-1.9951,
2026_07_06_14_21_38.110,0,30.1,0,0.76,0,0,0,0, ,0,0,0,0,0, ,-37.2,365.6,929.4,-0.8,-0.5,-2,25,-37.2643,365.962,929.116,-0.886811,-0.503189,-1.99235,
2026_07_06_14_21_38.130,0,30,0,0.757,0,0,0,0, ,0,0,0,0,0, ,-37.4,366.5,928.8,-0.9,-0.4,-2,25,-37.2665,365.968,929.115,-0.884568,-0.499948,-1.99281,
2026_07_06_14_21_38.151,0,30.1,0,0.761,0,0,0,0, ,0,0,0,0,0, ,-37.8,366.5,929.9,-0.8,-0.5,-2,25,-37.2868,366,929.129,-0.882461,-0.496904,-1.99325,
2026_07_06_14_21_38.170,0,30.1,0,0.759,0,0,0,0, ,0,0,0,0,0, ,-36.4,363.7,929.1,-0.9,-0.6,-2,25,-37.2754,365.945,929.152,-0.880483,-0.50014,-1.99366,
2026_07_06_14_21_38.190,0,30,0,0.759,0,0,0,0, ,0,0,0,0,0, ,-36.4,364.6,929.6,-0.9,-0.5,-2.1,25,-37.2221,365.836,929.164,-0.881672,-0.503178,-1.9971,
2026_07_06_14_21_38.209,0,30,0,0.758,0,0,0,0, ,0,0,0,0,0, ,-36.9,366.5,928.5,-0.9,-0.5,-2.1,25,-37.1872,365.819,929.157,-0.882789,-0.502984,-2.00337,
2026_07_06_14_21_38.234,0,30.1,0,0.758,0,0,0,0, ,0,0,0,0,0, ,-37.3,365.9,929,-0.9,-0.5,-2,25,-37.1819,365.842,929.132,-0.883838,-0.502802,-2.00621,
2026_07_06_14_21_38.249,0,30,0,0.757,0,0,0,0, ,0,0,0,0,0, ,-36.4,363.5,929.1,-0.8,-0.5,-2,25,-37.1617,365.772,929.127,-0.881776,-0.502632,-2.00583,
2026_07_06_14_21_38.269,0,30,0,0.758,0,0,0,0, ,0,0,0,0,0, ,-37.9,365.6,930.7,-0.9,-0.6,-2,25,-37.161,365.698,929.174,-0.87984,-0.505518,-2.00548,
2026_07_06_14_21_38.288,0,30,0,0.759,0,0,0,0, ,0,0,0,0,0, ,-38,366,929,-0.9,-0.5,-2,25,-37.2091,365.704,929.215,-0.881068,-0.508229,-2.00514,
2026_07_06_14_21_38.309,0,30.1,0,0.758,0,0,0,0, ,0,0,0,0,0, ,-36.6,365.1,927.2,-0.9,-0.5,-2,25,-37.2146,365.695,929.148,-0.882222,-0.507727,-2.00483,
2026_07_06_14_21_38.328,0,30,0,0.758,0,0,0,0, ,0,0,0,0,0, ,-36.7,366.6,929.3,-0.9,-0.6,-2,25,-37.1802,365.704,929.093,-0.883305,-0.510303,-2.00453,
2026_07_06_14_21_38.348,0,30,0,0.758,0,0,0,0, ,0,0,0,0,0, ,-36.8,365.9,928.7,-0.9,-0.4,-2.1,25,-37.154,365.737,929.087,-0.884322,-0.509675,-2.0073,
2026_07_06_14_21_38.373,0,29.9,0,0.759,0,0,0,0, ,0,0,0,0,0, ,-37.4,364.8,930.2,-0.9,-0.5,-2,25,-37.1507,365.714,929.109,-0.885278,-0.506039,-2.00991,
2026_07_06_14_21_38.387,0,30,0,0.759,0,0,0,0, ,0,0,0,0,0, ,-38.2,364.9,927.2,-0.9,-0.5,-2,25,-37.1903,365.661,929.084,-0.886175,-0.505671,-2.0093,
2026_07_06_14_21_38.407,0,29.9,0,0.759,0,0,0,0, ,0,0,0,0,0, ,-37.4,366.4,928.2,-0.8,-0.4,-2,25,-37.2274,365.66,929,-0.883971,-0.502279,-2.00874,
2026_07_06_14_21_38.427,0,30,0,0.759,0,0,0,0, ,0,0,0,0,0, ,-37.2,366.3,929.3,-0.8,-0.4,-2,25,-37.2318,365.702,928.985,-0.878854,-0.496046,-2.0082,
2026_07_06_14_21_38.447,0,30,0,0.759,0,0,0,0, ,0,0,0,0,0, ,-37.8,366.6,929.6,-0.8,-0.5,-2,25,-37.2482,365.748,929.013,-0.874048,-0.49324,-2.0077,
2026_07_06_14_21_38.467,0,30,0,0.759,0,0,0,0, ,0,0,0,0,0, ,-37.1,365.7,930.5,-0.9,-0.5,-2,25,-37.2605,365.772,929.076,-0.872583,-0.493652,-2.00723,
2026_07_06_14_21_38.486,0,29.9,0,0.759,0,0,0,0, ,0,0,0,0,0, ,-36.7,365.6,927.9,-0.8,-0.5,-2.1,25,-37.2385,365.765,929.084,-0.871207,-0.494039,-2.00984,
2026_07_06_14_21_38.512,0,30.1,0,0.758,0,0,0,0, ,0,0,0,0,0, ,-36.7,365.7,929.3,-0.8,-0.5,-2.1,25,-37.2057,365.758,929.054,-0.866868,-0.494402,-2.01533,
2026_07_06_14_21_38.526,0,30.1,0,0.757,0,0,0,0, ,0,0,0,0,0, ,-37.3,365.3,929,-0.8,-0.5,-2,25,-37.1932,365.742,929.06,-0.862793,-0.494743,-2.01745,
2026_07_06_14_21_38.546,0,30.1,0,0.759,0,0,0,0, ,0,0,0,0,0, ,-36.4,365.4,929.6,-0.9,-0.6,-2,25,-37.1723,365.718,929.075,-0.862013,-0.49811,-2.01638,
2026_07_06_14_21_38.566,0,30,0,0.758,0,0,0,0, ,0,0,0,0,0, ,-37.4,365.3,930.1,-0.9,-0.5,-2.1,25,-37.1557,365.696,929.122,-0.864328,-0.501272,-2.01843,
2026_07_06_14_21_38.585,0,30,0,0.758,0,0,0,0, ,0,0,0,0,0, ,-37.3,365.2,927.9,-0.9,-0.5,-2.1,25,-37.1675,365.669,929.115,-0.866502,-0.501195,-2.0234,
2026_07_06_14_21_38.605,0,30.1,0,0.757,0,0,0,0, ,0,0,0,0,0, ,-38.2,365.3,930,-1,-0.5,-2.1,25,-37.203,365.643,929.105,-0.87159,-0.501122,-2.02807,
2026_07_06_14_21_38.625,0,30,0,0.758,0,0,0,0, ,0,0,0,0,0, ,-37.9,364.7,928.1,-1,-0.5,-2,25,-37.2546,365.604,929.101,-0.879415,-0.501054,-2.02941,
2026_07_06_14_21_38.652,0,29.9,0,0.76,0,0,0,0, ,0,0,0,0,0, ,-38,364.9,930.6,-0.9,-0.5,-2,25,-37.297,365.555,929.116,-0.883716,-0.500989,-2.02761,
2026_07_06_14_21_38.664,0,30.1,0,0.759,0,0,0,0, ,0,0,0,0,0, ,-37.9,366.2,928.9,-0.8,-0.6,-2,25,-37.3368,365.555,929.155,-0.881662,-0.503976,-2.02593,
2026_07_06_14_21_38.684,0,29.9,0,0.758,0,0,0,0, ,0,0,0,0,0, ,-37.7,365.8,929.5,-0.8,-0.5,-2.1,25,-37.365,365.582,929.158,-0.876685,-0.506781,-2.0274,
2026_07_06_14_21_38.704,0,30,0,0.758,0,0,0,0, ,0,0,0,0,0, ,-37.4,366.3,929.3,-0.9,-0.5,-2,25,-37.3763,365.61,929.173,-0.875059,-0.506367,-2.02878,
2026_07_06_14_21_38.723,0,30,0,0.758,0,0,0,0, ,0,0,0,0,0, ,-37.8,365.9,928.4,-0.9,-0.5,-2,25,-37.3899,365.64,929.153,-0.876579,-0.505979,-2.02702,
2026_07_06_14_21_38.744,0,30.1,0,0.758,0,0,0,0, ,0,0,0,0,0, ,-37.3,365.7,929.5,-0.9,-0.5,-2,25,-37.3997,365.65,929.14,-0.878006,-0.505615,-2.02538,
2026_07_06_14_21_38.764,0,30,0,0.757,0,0,0,0, ,0,0,0,0,0, ,-37.3,365.6,930.1,-0.9,-0.6,-1.9,25,-37.3936,365.65,929.181,-0.879347,-0.50832,-2.02078,
2026_07_06_14_21_38.789,0,30.1,0,0.758,0,0,0,0, ,0,0,0,0,0, ,-38,365.8,928.1,-0.9,-0.5,-2,25,-37.4092,365.653,929.176,-0.880605,-0.51086,-2.01647,
2026_07_06_14_21_38.803,0,30,0,0.759,0,0,0,0, ,0,0,0,0,0, ,-35.6,365.3,928.3,-0.9,-0.5,-2,25,-37.3721,365.647,929.116,-0.881787,-0.510198,-2.01547,
2026_07_06_14_21_38.823,0,30.1,0,0.758,0,0,0,0, ,0,0,0,0,0, ,-38.2,366.5,929.6,-0.9,-0.5,-2,25,-37.3433,365.662,929.106,-0.882897,-0.509576,-2.01452,
2026_07_06_14_21_38.843,0,30,0,0.76,0,0,0,0, ,0,0,0,0,0, ,-37.1,365.7,930,-0.9,-0.6,-2,25,-37.362,365.689,929.148,-0.883939,-0.51204,-2.01364,
2026_07_06_14_21_38.863,0,30,0,0.758,0,0,0,0, ,0,0,0,0,0, ,-37.1,366,930,-0.9,-0.5,-2,25,-37.346,365.699,929.2,-0.884918,-0.514353,-2.01281,
2026_07_06_14_21_38.882,0,30,0,0.758,0,0,0,0, ,0,0,0,0,0, ,-36.3,366.2,930.2,-0.9,-0.6,-2,25,-37.3067,365.723,929.255,-0.885837,-0.516525,-2.01203,
2026_07_06_14_21_38.902,0,30,0,0.757,0,0,0,0, ,0,0,0,0,0, ,-37.4,366,929,-0.8,-0.5,-1.9,25,-37.2789,365.746,929.276,-0.883653,-0.518565,-2.00825,
2026_07_06_14_21_38.922,0,30,0,0.758,0,0,0,0, ,0,0,0,0,0, ,-37.8,366.6,930.4,-0.9,-0.5,-2,25,-37.2984,365.78,929.302,-0.881602,-0.517434,-2.0047,
2026_07_06_14_21_38.944,0,30,0,0.758,0,0,0,0, ,0,0,0,0,0, ,-37.1,365.2,928.9,-0.8,-0.5,-2,25,-37.3077,365.787,929.323,-0.879677,-0.516371,-2.00441,
2026_07_06_14_21_38.961,0,30,0,0.758,0,0,0,0, ,0,0,0,0,0, ,-37.7,366.4,929,-0.8,-0.6,-2,25,-37.3133,365.788,929.3,-0.874821,-0.518421,-2.00414,
2026_07_06_14_21_38.982,0,30,0,0.759,0,0,0,0, ,0,0,0,0,0, ,-37.4,365.3,929.5,-0.9,-0.5,-2,25,-37.3277,365.792,929.297,-0.873309,-0.520345,-2.00389,
2026_07_06_14_21_39.001,0,30,0,0.758,0,0,0,0, ,0,0,0,0,0, ,-37.1,366.4,928.9,-0.9,-0.5,-2,25,-37.323,365.795,929.291,-0.874935,-0.519105,-2.00365,
2026_07_06_14_21_39.021,0,30,0,0.759,0,0,0,0, ,0,0,0,0,0, ,-37.3,365.3,929.5,-0.9,-0.5,-2,25,-37.3155,365.799,929.286,-0.876463,-0.517941,-2.00343,
2026_07_06_14_21_39.041,0,30,0,0.759,0,0,0,0, ,0,0,0,0,0, ,-37.4,366.3,928.9,-0.9,-0.5,-2.1,25,-37.3176,365.799,929.281,-0.877897,-0.516848,-2.00627,
2026_07_06_14_21_39.061,0,29.8,0,0.758,0,0,0,0, ,0,0,0,0,0, ,-36.8,364.6,928.9,-0.9,-0.5,-2,25,-37.3043,365.777,929.257,-0.879244,-0.515821,-2.00893,
2026_07_06_14_21_39.082,0,30,0,0.759,0,0,0,0.001, ,0,0,0,0,0, ,-36.4,365.3,929,-0.8,-0.5,-2,25,-37.2614,365.727,929.239,-0.877462,-0.514857,-2.00839,
2026_07_06_14_21_39.100,0,30.1,0,0.759,0,0,0,0, ,0,0,0,0,0, ,-37.4,365.8,928.3,-0.9,-0.5,-2,25,-37.2394,365.716,929.203,-0.875788,-0.513952,-2.00788,
2026_07_06_14_21_39.120,0,29.9,0,0.758,0,0,0,0, ,0,0,0,0,0, ,-37.3,365.9,929.9,-0.8,-0.5,-2,25,-37.2461,365.724,929.197,-0.874217,-0.513101,-2.0074,
2026_07_06_14_21_39.139,0,30,0,0.759,0,0,0,0, ,0,0,0,0,0, ,-36.8,364.2,929.5,-0.9,-0.5,-2,25,-37.2342,365.683,929.227,-0.872741,-0.512303,-2.00695,
2026_07_06_14_21_39.159,0,29.9,0,0.759,0,0,0,0, ,0,0,0,0,0, ,-36.4,364.5,929.5,-0.9,-0.6,-2,25,-37.1955,365.602,929.244,-0.874402,-0.5146,-2.00652,
2026_07_06_14_21_39.179,0,30,0,0.76,0,0,0,0, ,0,0,0,0,0, ,-36.8,364.1,929.5,-0.9,-0.5,-2,25,-37.1592,365.523,929.259,-0.875962,-0.516757,-2.00613,
2026_07_06_14_21_39.199,0,30.1,0,0.759,0,0,0,0, ,0,0,0,0,0, ,-37.2,365.1,929.4,-1,-0.5,-2,25,-37.1495,365.466,929.271,-0.880474,-0.515736,-2.00575,
2026_07_06_14_21_39.221,0,29.9,0,0.759,0,0,0,0, ,0,0,0,0,0, ,-35.8,367,929,-0.9,-0.5,-2,25,-37.11,365.502,929.267,-0.884711,-0.514777,-2.0054,
2026_07_06_14_21_39.239,0,30,0,0.758,0,0,0,0, ,0,0,0,0,0, ,-38.4,364.7,929.9,-0.9,-0.5,-2.1,25,-37.1093,365.523,929.278,-0.885642,-0.513877,-2.00812,
2026_07_06_14_21_39.259,0,30,0,0.758,0,0,0,0, ,0,0,0,0,0, ,-38,366.2,929.3,-0.8,-0.5,-2,25,-37.1758,365.519,929.298,-0.88347,-0.513031,-2.01067,
2026_07_06_14_21_39.278,0,30,0,0.759,0,0,0,0, ,0,0,0,0,0, ,-36.8,366.2,929.1,-0.9,-0.5,-2,25,-37.1895,365.56,929.292,-0.881431,-0.512237,-2.01002,
2026_07_06_14_21_39.298,0,29.9,0,0.759,0,0,0,0, ,0,0,0,0,0, ,-37.2,365.6,929.1,-0.9,-0.5,-2,25,-37.1779,365.581,929.28,-0.882562,-0.511491,-2.00941,
2026_07_06_14_21_39.317,0,29.9,0,0.759,0,0,0,0, ,0,0,0,0,0, ,-37.8,364.9,928.3,-0.8,-0.5,-2,25,-37.1976,365.561,929.245,-0.880578,-0.510791,-2.00884,
2026_07_06_14_21_39.338,0,30,0,0.759,0,0,0,0, ,0,0,0,0,0, ,-37.5,365.7,929.8,-1,-0.5,-2,25,-37.2251,365.545,929.233,-0.881762,-0.510134,-2.0083,
2026_07_06_14_21_39.363,0,30,0,0.759,0,0,0,0, ,0,0,0,0,0, ,-36.6,365.2,930.2,-0.9,-0.5,-2.1,25,-37.2144,365.539,929.279,-0.88592,-0.509516,-2.01084,
2026_07_06_14_21_39.377,0,29.9,0,0.758,0,0,0,0, ,0,0,0,0,0, ,-36.8,364.8,929,-0.9,-0.5,-2,25,-37.1831,365.506,929.299,-0.886778,-0.508936,-2.01323,
2026_07_06_14_21_39.397,0,30,0,0.758,0,0,0,0, ,0,0,0,0,0, ,-36.3,366.8,929.9,-0.9,-0.5,-2.1,25,-37.1445,365.524,929.308,-0.887584,-0.508392,-2.01547,
2026_07_06_14_21_39.417,0,29.9,0,0.757,0,0,0,0, ,0,0,0,0,0, ,-36.4,365.4,927.1,-0.9,-0.5,-2,25,-37.0961,365.559,929.259,-0.88834,-0.50788,-2.01757,
2026_07_06_14_21_39.436,0,30,0,0.758,0,0,0,0, ,0,0,0,0,0, ,-37.2,366.2,928.7,-0.9,-0.5,-2,25,-37.0781,365.574,929.176,-0.889051,-0.5074,-2.0165,
2026_07_06_14_21_39.456,0,29.9,0,0.759,0,0,0,0, ,0,0,0,0,0, ,-38.3,365.1,929.5,-0.8,-0.5,-2,25,-37.119,365.579,929.172,-0.886671,-0.506949,-2.0155,
2026_07_06_14_21_39.476,0,30,0,0.76,0,0,0,0, ,0,0,0,0,0, ,-37.2,366.3,930.4,-0.8,-0.5,-2,25,-37.1575,365.586,929.219,-0.88139,-0.506526,-2.01455,
2026_07_06_14_21_39.496,0,30.1,0,0.759,0,0,0,0, ,0,0,0,0,0, ,-37.8,366,929.3,-0.8,-0.5,-1.9,25,-37.1783,365.62,929.257,-0.87643,-0.506128,-2.01062,
2026_07_06_14_21_39.516,0,30,0,0.758,0,0,0,0, ,0,0,0,0,0, ,-36.9,364.6,929.3,-0.8,-0.6,-2,25,-37.1888,365.601,929.26,-0.871772,-0.508801,-2.00692,
2026_07_06_14_21_39.535,0,30,0,0.759,0,0,0,0, ,0,0,0,0,0, ,-37.2,364.5,929.8,-0.8,-0.5,-2,25,-37.1803,365.537,929.278,-0.867399,-0.511312,-2.0065,
2026_07_06_14_21_39.555,0,29.9,0,0.76,0,0,0,0, ,0,0,0,0,0, ,-36.6,366.3,929.3,-0.9,-0.6,-2,25,-37.1633,365.528,929.294,-0.866339,-0.51367,-2.00611,
2026_07_06_14_21_39.575,0,30.1,0,0.757,0,0,0,0, ,0,0,0,0,0, ,-37.9,364.8,930,-0.9,-0.6,-2,25,-37.1685,365.53,929.316,-0.86839,-0.51893,-2.00573,
2026_07_06_14_21_39.595,0,30.1,0,0.759,0,0,0,0, ,0,0,0,0,0, ,-36.3,366,928.2,-0.9,-0.6,-2,25,-37.1644,365.522,929.303,-0.870316,-0.52387,-2.00538,
2026_07_06_14_21_39.614,0,30,0,0.759,0,0,0,0, ,0,0,0,0,0, ,-38,365.6,929.5,-0.9,-0.5,-2,25,-37.1635,365.539,929.275,-0.872125,-0.525463,-2.00506,
2026_07_06_14_21_39.635,0,30,0,0.758,0,0,0,0, ,0,0,0,0,0, ,-37.3,365.3,929.5,-0.9,-0.5,-2,25,-37.1931,365.533,929.289,-0.873824,-0.523911,-2.00475,
2026_07_06_14_21_39.653,0,29.9,0,0.758,0,0,0,0, ,0,0,0,0,0, ,-36.4,365.7,929.3,-0.9,-0.6,-2,25,-37.1722,365.531,929.296,-0.875419,-0.525501,-2.00446,
2026_07_06_14_21_39.674,0,29.9,0,0.759,0,0,0,0, ,0,0,0,0,0, ,-36.8,366.8,929.4,-0.9,-0.5,-2.1,25,-37.1374,365.575,929.299,-0.876917,-0.526994,-2.00723,
2026_07_06_14_21_39.694,0,30,0,0.76,0,0,0,0, ,0,0,0,0,0, ,-37.9,365.8,931.2,-0.9,-0.5,-2,25,-37.1503,365.619,929.36,-0.878323,-0.525349,-2.00984,
2026_07_06_14_21_39.714,0,30,0,0.759,0,0,0,0, ,0,0,0,0,0, ,-37.5,365.4,927.4,-0.9,-0.5,-2,25,-37.1838,365.618,929.356,-0.879644,-0.523804,-2.00924,
2026_07_06_14_21_39.733,0,30,0,0.758,0,0,0,0, ,0,0,0,0,0, ,-37.2,365.8,930.1,-0.9,-0.5,-2,25,-37.1939,365.617,929.319,-0.880885,-0.522354,-2.00868,
2026_07_06_14_21_39.753,0,30.1,0,0.76,0,0,0,0, ,0,0,0,0,0, ,-38.3,367.1,929.6,-0.9,-0.5,-2,25,-37.2278,365.668,929.352,-0.882049,-0.520991,-2.00815,
2026_07_06_14_21_39.773,0,30.1,0,0.758,0,0,0,0, ,0,0,0,0,0, ,-37.8,365.8,929.1,-0.9,-0.5,-2,25,-37.2779,365.715,929.352,-0.883143,-0.519712,-2.00765,
2026_07_06_14_21_39.793,0,30,0,0.759,0,0,0,0, ,0,0,0,0,0, ,-36.9,366,928.8,-0.8,-0.6,-2,25,-37.2823,365.727,929.327,-0.881124,-0.521558,-2.00719,
2026_07_06_14_21_39.812,0,29.9,0,0.76,0,0,0,0, ,0,0,0,0,0, ,-36.4,366.8,928.9,-0.9,-0.5,-2,25,-37.2438,365.768,929.298,-0.879227,-0.523291,-2.00675,
2026_07_06_14_21_39.832,0,30.1,0,0.758,0,0,0,0, ,0,0,0,0,0, ,-37.1,366.3,928.4,-0.8,-0.6,-2,25,-37.2137,365.815,929.259,-0.877446,-0.524919,-2.00634,
2026_07_06_14_21_39.852,0,29.9,0,0.759,0,0,0,0, ,0,0,0,0,0, ,-37.5,364.7,930.2,-0.9,-0.5,-2,25,-37.219,365.796,929.261,-0.875774,-0.526447,-2.00595,
2026_07_06_14_21_39.872,0,29.9,0,0.76,0,0,0,0, ,0,0,0,0,0, ,-38,365.9,928.8,-0.9,-0.6,-2.1,25,-37.2513,365.766,929.276,-0.87725,-0.527882,-2.00863,
2026_07_06_14_21_39.892,0,30.1,0,0.759,0,0,0,0, ,0,0,0,0,0, ,-37.2,365.7,930,-0.9,-0.5,-2,25,-37.2726,365.768,929.283,-0.878636,-0.52923,-2.01116,
2026_07_06_14_21_39.912,0,30,0,0.761,0,0,0,0, ,0,0,0,0,0, ,-36.7,365.7,929.4,-0.9,-0.5,-2,25,-37.2529,365.764,929.309,-0.879938,-0.527449,-2.01048,
2026_07_06_14_21_39.932,0,29.9,0,0.759,0,0,0,0, ,0,0,0,0,0, ,-38.4,366.3,929.1,-0.9,-0.5,-2,25,-37.271,365.778,929.305,-0.881161,-0.525776,-2.00984,
2026_07_06_14_21_39.951,0,30,0,0.759,0,0,0,0, ,0,0,0,0,0, ,-37.1,365.7,929,-0.9,-0.5,-2,25,-37.3002,365.792,929.29,-0.882309,-0.524206,-2.00924,
2026_07_06_14_21_39.971,0,30.1,0,0.76,0,0,0,0, ,0,0,0,0,0, ,-37.4,365.8,929.5,-0.9,-0.5,-2,25,-37.2971,365.789,929.287,-0.883387,-0.522731,-2.00867,
2026_07_06_14_21_39.990,0,30.1,0,0.758,0,0,0,0, ,0,0,0,0,0, ,-38.4,367.1,929.4,-0.8,-0.5,-2,25,-37.3339,365.829,929.297,-0.881352,-0.521345,-2.00815,
2026_07_06_14_21_40.011,0,30,0,0.76,0,0,0,0, ,0,0,0,0,0, ,-37.5,366.6,928.5,-0.8,-0.5,-2,25,-37.3714,365.892,929.276,-0.876395,-0.520045,-2.00765,
2026_07_06_14_21_40.030,0,30,0,0.758,0,0,0,0, ,0,0,0,0,0, ,-37.5,364.9,929.4,-0.9,-0.5,-2,25,-37.3793,365.883,929.256,-0.874786,-0.518823,-2.00718,
2026_07_06_14_21_40.050,0,30.1,0,0.758,0,0,0,0, ,0,0,0,0,0, ,-36.7,366.2,929.1,-0.9,-0.5,-2.1,25,-37.3622,365.863,929.256,-0.876323,-0.517676,-2.00979,
2026_07_06_14_21_40.070,0,30,0,0.759,0,0,0,0, ,0,0,0,0,0, ,-38,365.7,928.5,-0.9,-0.6,-2,25,-37.3615,365.868,929.228,-0.877766,-0.519646,-2.01224,
2026_07_06_14_21_40.090,0,30.1,0,0.759,0,0,0,0, ,0,0,0,0,0, ,-37.2,365.8,929.1,-0.9,-0.6,-2,25,-37.376,365.861,929.202,-0.879121,-0.524542,-2.0115,
2026_07_06_14_21_40.110,0,30,0,0.758,0,0,0,0, ,0,0,0,0,0, ,-37.2,365.4,929.1,-0.9,-0.6,-2.1,25,-37.3653,365.845,929.196,-0.880393,-0.529141,-2.01384,
2026_07_06_14_21_40.129,0,30.1,0,0.758,0,0,0,0, ,0,0,0,0,0, ,-36.9,365.3,931.8,-0.9,-0.6,-2,25,-37.3461,365.815,929.272,-0.881588,-0.533459,-2.01605,
2026_07_06_14_21_40.148,0,29.9,0,0.758,0,0,0,0, ,0,0,0,0,0, ,-37.5,364.7,928.8,-0.9,-0.5,-2,25,-37.3372,365.765,929.335,-0.88271,-0.534467,-2.01507,
2026_07_06_14_21_40.169,0,30,0,0.758,0,0,0,0, ,0,0,0,0,0, ,-37.3,365.2,929.3,-0.9,-0.5,-2,25,-37.341,365.715,929.317,-0.883763,-0.532366,-2.01415,
2026_07_06_14_21_40.188,0,29.8,0,0.759,0,0,0,0, ,0,0,0,0,0, ,-37.1,365.3,928.3,-0.9,-0.5,-2,25,-37.3324,365.687,929.286,-0.884753,-0.530394,-2.01329,
2026_07_06_14_21_40.208,0,30,0,0.759,0,0,0,0.001, ,0,0,0,0,0, ,-38,366,928.9,-1,-0.5,-2,25,-37.3457,365.685,929.244,-0.888729,-0.528542,-2.01248,
2026_07_06_14_21_40.234,0,30,0,0.759,0,0,0,0, ,0,0,0,0,0, ,-37.7,366.6,929.1,-0.9,-0.5,-2,25,-37.3764,365.722,929.229,-0.892462,-0.526803,-2.01172,
2026_07_06_14_21_40.248,0,29.9,0,0.757,0,0,0,0, ,0,0,0,0,0, ,-38,365.6,929.4,-0.9,-0.5,-2,25,-37.4053,365.745,929.23,-0.892922,-0.525169,-2.011,
2026_07_06_14_21_40.267,0,30,0,0.758,0,0,0,0, ,0,0,0,0,0, ,-37.5,366,929.1,-0.9,-0.6,-2,25,-37.4263,365.749,929.232,-0.893353,-0.526682,-2.01033,
2026_07_06_14_21_40.287,0,29.9,0,0.758,0,0,0,0, ,0,0,0,0,0, ,-38.2,366.3,929.4,-0.9,-0.5,-2,25,-37.4521,365.773,929.233,-0.893758,-0.528103,-2.0097,
2026_07_06_14_21_40.307,0,30,0,0.758,0,0,0,0, ,0,0,0,0,0, ,-39,366.4,929.5,-0.9,-0.5,-2.1,25,-37.522,365.808,929.246,-0.894138,-0.526391,-2.01216,
2026_07_06_14_21_40.326,0,30.1,0,0.758,0,0,0,0, ,0,0,0,0,0, ,-38,365.8,929.6,-0.9,-0.6,-2.1,25,-37.5816,365.826,929.265,-0.894496,-0.527829,-2.01751,
2026_07_06_14_21_40.347,0,29.9,0,0.759,0,0,0,0, ,0,0,0,0,0, ,-37.8,367.4,930,-0.8,-0.6,-2,25,-37.601,365.873,929.297,-0.891784,-0.532227,-2.01949,
2026_07_06_14_21_40.367,0,30,0,0.759,0,0,0,0, ,0,0,0,0,0, ,-37.7,365.7,929.8,-0.9,-0.6,-2,25,-37.6101,365.914,929.334,-0.889238,-0.536357,-2.0183,
2026_07_06_14_21_40.386,0,30,0,0.758,0,0,0,0, ,0,0,0,0,0, ,-37.8,365.7,929,-0.8,-0.5,-2,25,-37.6186,365.901,929.338,-0.886847,-0.537189,-2.01719,
2026_07_06_14_21_40.406,0,30,0,0.759,0,0,0,0, ,0,0,0,0,0, ,-36.1,364.9,929.8,-0.9,-0.5,-2,25,-37.5779,365.865,929.342,-0.884602,-0.534922,-2.01614,
2026_07_06_14_21_40.425,0,29.9,0,0.759,0,0,0,0, ,0,0,0,0,0, ,-37.1,366.3,927.8,-0.8,-0.5,-2.1,25,-37.5183,365.849,929.309,-0.882493,-0.532794,-2.0182,
2026_07_06_14_21_40.446,0,30,0,0.757,0,0,0,0, ,0,0,0,0,0, ,-37.7,366.2,929,-1,-0.5,-2,25,-37.5111,365.873,929.253,-0.88356,-0.530796,-2.02014,
2026_07_06_14_21_40.465,0,30,0,0.758,0,0,0,0, ,0,0,0,0,0, ,-38,365.2,929.6,-0.9,-0.6,-2.1,25,-37.5317,365.863,929.256,-0.887609,-0.531966,-2.02196,
2026_07_06_14_21_40.486,0,30,0,0.759,0,0,0,0, ,0,0,0,0,0, ,-36.8,365.2,929.3,-0.9,-0.6,-2.1,25,-37.5237,365.822,929.268,-0.888364,-0.536112,-2.02672,
2026_07_06_14_21_40.505,0,30,0,0.758,0,0,0,0, ,0,0,0,0,0, ,-39.1,366.6,929.6,-0.9,-0.6,-2,25,-37.5497,365.827,929.279,-0.889073,-0.540005,-2.02814,
2026_07_06_14_21_40.525,0,29.9,0,0.759,0,0,0,0, ,0,0,0,0,0, ,-36.7,365.7,927.9,-0.8,-0.5,-2,25,-37.571,365.847,929.247,-0.886692,-0.540614,-2.02642,
2026_07_06_14_21_40.547,0,30,0,0.759,0,0,0,0, ,0,0,0,0,0, ,-36.7,366.5,929,-0.9,-0.5,-1.9,25,-37.518,365.862,929.198,-0.884456,-0.538139,-2.02176,
2026_07_06_14_21_40.564,0,30,0,0.759,0,0,0,0, ,0,0,0,0,0, ,-36.2,365.1,929,-0.9,-0.5,-2,25,-37.4529,365.858,929.186,-0.885403,-0.535815,-2.01739,
2026_07_06_14_21_40.585,0,30.1,0,0.759,0,0,0,0, ,0,0,0,0,0, ,-36.8,365.4,929.4,-0.9,-0.4,-2,25,-37.3948,365.821,929.187,-0.886293,-0.530586,-2.01633,
2026_07_06_14_21_40.604,0,29.9,0,0.758,0,0,0,0, ,0,0,0,0,0, ,-36.6,366,929.1,-0.8,-0.5,-2,25,-37.3525,365.814,929.191,-0.884081,-0.525675,-2.01534,
2026_07_06_14_21_40.623,0,30,0,0.758,0,0,0,0, ,0,0,0,0,0, ,-37.7,365.2,928.8,-0.9,-0.5,-2,25,-37.3401,365.801,929.176,-0.882004,-0.524111,-2.0144,
2026_07_06_14_21_40.644,0,30,0,0.758,0,0,0,0, ,0,0,0,0,0, ,-38.2,365.1,930.4,-0.9,-0.6,-2,25,-37.3773,365.761,929.202,-0.883101,-0.525688,-2.01352,
2026_07_06_14_21_40.663,0,30.1,0,0.76,0,0,0,0, ,0,0,0,0,0, ,-37.3,365.2,928.2,-0.8,-0.6,-2,25,-37.4,365.724,929.208,-0.881084,-0.530217,-2.0127,
2026_07_06_14_21_40.683,0,30,0,0.758,0,0,0,0, ,0,0,0,0,0, ,-37.7,366.3,929.4,-0.9,-0.5,-2,25,-37.4061,365.725,929.183,-0.87919,-0.531422,-2.01193,
2026_07_06_14_21_40.707,0,30,0,0.759,0,0,0,0, ,0,0,0,0,0, ,-37.3,365.9,931.1,-0.9,-0.6,-2,25,-37.4118,365.748,929.248,-0.880458,-0.532554,-2.0112,
2026_07_06_14_21_40.723,0,29.8,0,0.758,0,0,0,0, ,0,0,0,0,0, ,-37.4,366.3,929.3,-0.9,-0.5,-2,25,-37.4081,365.77,929.306,-0.881649,-0.533617,-2.01052,
2026_07_06_14_21_40.743,0,30.1,0,0.759,0,0,0,0.001, ,0,0,0,0,0, ,-36.2,365.9,930,-0.9,-0.5,-2,25,-37.371,365.79,929.327,-0.882767,-0.531569,-2.00988,
2026_07_06_14_21_40.763,0,30,0,0.759,0,0,0,0, ,0,0,0,0,0, ,-38.6,366.6,929.1,-0.9,-0.5,-2,25,-37.3728,365.818,929.341,-0.883817,-0.529645,-2.00927,
2026_07_06_14_21_40.782,0,30.1,0,0.759,0,0,0,0, ,0,0,0,0,0, ,-37.3,366,927.8,-0.9,-0.6,-2,25,-37.4079,365.847,929.286,-0.884803,-0.530885,-2.00871,
2026_07_06_14_21_40.802,0,29.9,0,0.76,0,0,0,0, ,0,0,0,0,0, ,-36.9,366,928.9,-0.9,-0.5,-2,25,-37.3892,365.857,929.229,-0.885729,-0.53205,-2.00818,
2026_07_06_14_21_40.822,0,30,0,0.759,0,0,0,0, ,0,0,0,0,0, ,-37.4,364.2,929.9,-0.8,-0.5,-2.1,25,-37.3746,365.81,929.24,-0.883552,-0.530097,-2.01073,
2026_07_06_14_21_40.841,0,29.9,0,0.758,0,0,0,0, ,0,0,0,0,0, ,-36.7,366.5,927.6,-0.8,-0.5,-2,25,-37.3548,365.782,929.21,-0.87846,-0.528263,-2.01312,
2026_07_06_14_21_40.865,0,30,0,0.759,0,0,0,0, ,0,0,0,0,0, ,-38.2,365.4,929.3,-0.9,-0.4,-2.1,25,-37.3606,365.793,929.164,-0.876726,-0.523494,-2.01537,
2026_07_06_14_21_40.881,0,30.1,0,0.758,0,0,0,0, ,0,0,0,0,0, ,-37.5,365.7,930.1,-0.9,-0.6,-1.9,25,-37.3904,365.778,929.196,-0.878144,-0.522062,-2.01443,
2026_07_06_14_21_40.901,0,30,0,0.759,0,0,0,0, ,0,0,0,0,0, ,-37.7,366.3,930.1,-0.9,-0.5,-2,25,-37.4032,365.791,929.251,-0.879476,-0.523765,-2.0105,
2026_07_06_14_21_40.921,0,29.9,0,0.757,0,0,0,0, ,0,0,0,0,0, ,-37.5,365.2,928.4,-1,-0.5,-2,25,-37.4152,365.789,929.251,-0.883774,-0.522317,-2.00986,
2026_07_06_14_21_40.941,0,30,0,0.758,0,0,0,0, ,0,0,0,0,0, ,-37.4,365.6,929.5,-1,-0.5,-2,25,-37.4173,365.765,929.233,-0.890856,-0.520957,-2.00926,
2026_07_06_14_21_40.960,0,29.9,0,0.757,0,0,0,0, ,0,0,0,0,0, ,-36.8,365.8,928.4,-0.9,-0.5,-2,25,-37.398,365.761,929.216,-0.89446,-0.51968,-2.0087,
2026_07_06_14_21_40.980,0,30,0,0.759,0,0,0,0, ,0,0,0,0,0, ,-36,366.5,931,-0.9,-0.5,-1.9,25,-37.3372,365.785,929.245,-0.894798,-0.51848,-2.00512,
2026_07_06_14_21_41.000,0,30,0,0.759,0,0,0,0, ,0,0,0,0,0, ,-37.5,366.3,928.5,-0.9,-0.5,-2.1,25,-37.3014,365.822,929.276,-0.895115,-0.517354,-2.00481,
2026_07_06_14_21_41.025,0,30.1,0,0.759,0,0,0,0, ,0,0,0,0,0, ,-36.7,367,928.1,-0.9,-0.5,-2.1,25,-37.2891,365.873,929.216,-0.895413,-0.516297,-2.01061,
2026_07_06_14_21_41.040,0,30,0,0.759,0,0,0,0, ,0,0,0,0,0, ,-37.2,366.9,930,-0.8,-0.5,-2.1,25,-37.2685,365.938,929.206,-0.892645,-0.515304,-2.01606,
2026_07_06_14_21_41.060,0,29.9,0,0.758,0,0,0,0, ,0,0,0,0,0, ,-36.8,366.2,929.3,-0.9,-0.5,-2.1,25,-37.2521,365.976,929.233,-0.890047,-0.514371,-2.02117,
2026_07_06_14_21_41.079,0,29.9,0,0.758,0,0,0,0, ,0,0,0,0,0, ,-37.3,365.7,929.3,-0.8,-0.5,-2,25,-37.2398,365.974,929.237,-0.887606,-0.513495,-2.02293,
2026_07_06_14_21_41.099,0,29.8,0,0.757,0,0,0,0, ,0,0,0,0,0, ,-38.2,365.7,929.3,-0.8,-0.6,-2,25,-37.2709,365.957,929.241,-0.882268,-0.51572,-2.02153,
2026_07_06_14_21_41.119,0,30.1,0,0.757,0,0,0,0.001, ,0,0,0,0,0, ,-37.1,364.5,930,-0.9,-0.5,-2,25,-37.294,365.905,929.266,-0.880301,-0.517809,-2.02022,
2026_07_06_14_21_41.138,0,30.1,0,0.758,0,0,0,0, ,0,0,0,0,0, ,-37.3,365.4,930.1,-0.9,-0.5,-2,25,-37.2883,365.847,929.314,-0.881502,-0.516724,-2.01899,
2026_07_06_14_21_41.158,0,29.9,0,0.758,0,0,0,0, ,0,0,0,0,0, ,-36.9,364.9,929.9,-0.9,-0.5,-2.1,25,-37.2768,365.805,929.356,-0.882629,-0.515704,-2.02088,
2026_07_06_14_21_41.183,0,30,0,0.759,0,0,0,0, ,0,0,0,0,0, ,-38,365.2,929.1,-1,-0.5,-2,25,-37.2873,365.759,929.365,-0.886734,-0.514747,-2.02265,
2026_07_06_14_21_41.198,0,30,0,0.76,0,0,0,0, ,0,0,0,0,0, ,-37.3,365.2,929.3,-0.9,-0.6,-2,25,-37.3094,365.724,929.354,-0.89059,-0.516896,-2.02127,
2026_07_06_14_21_41.218,0,30,0,0.757,0,0,0,0, ,0,0,0,0,0, ,-37.3,366.2,930.6,-1,-0.5,-2,25,-37.3089,365.723,929.391,-0.89421,-0.518913,-2.01998,
2026_07_06_14_21_41.237,0,30,0,0.758,0,0,0,0, ,0,0,0,0,0, ,-37.3,366.4,927.9,-0.9,-0.5,-2,25,-37.3083,365.758,929.382,-0.89761,-0.51776,-2.01876,
2026_07_06_14_21_41.257,0,29.9,0,0.758,0,0,0,0, ,0,0,0,0,0, ,-37.1,366.5,929,-0.9,-0.5,-2,25,-37.3017,365.8,929.325,-0.897755,-0.516678,-2.01762,
2026_07_06_14_21_41.277,0,30,0,0.758,0,0,0,0, ,0,0,0,0,0, ,-37.2,365.4,929,-0.8,-0.5,-2,25,-37.2925,365.809,929.306,-0.894845,-0.515662,-2.01654,
2026_07_06_14_21_41.297,0,30,0,0.758,0,0,0,0, ,0,0,0,0,0, ,-36.2,366.4,929.6,-0.9,-0.5,-2,25,-37.2564,365.815,929.305,-0.892113,-0.514707,-2.01553,
2026_07_06_14_21_41.317,0,30,0,0.758,0,0,0,0, ,0,0,0,0,0, ,-37.1,366.3,927.8,-0.9,-0.5,-2,25,-37.2194,365.848,929.268,-0.892593,-0.513811,-2.01459,
2026_07_06_14_21_41.341,0,30,0,0.757,0,0,0,0, ,0,0,0,0,0, ,-38,365.1,927.8,-0.8,-0.5,-2,25,-37.2396,365.839,929.179,-0.889998,-0.51297,-2.0137,
2026_07_06_14_21_41.356,0,29.9,0,0.758,0,0,0,0, ,0,0,0,0,0, ,-36.7,365.7,927.9,-0.9,-0.5,-2.1,25,-37.2463,365.812,929.098,-0.88756,-0.512179,-2.01591,
2026_07_06_14_21_41.376,0,30.1,0,0.759,0,0,0,0, ,0,0,0,0,0, ,-37.4,365.9,929.3,-0.9,-0.5,-2,25,-37.2343,365.811,929.068,-0.888318,-0.511437,-2.01799,
2026_07_06_14_21_41.396,0,29.9,0,0.759,0,0,0,0, ,0,0,0,0,0, ,-36.9,366.8,928.2,-0.9,-0.5,-2,25,-37.2292,365.844,929.048,-0.88903,-0.51074,-2.01689,
2026_07_06_14_21_41.415,0,29.9,0,0.759,0,0,0,0, ,0,0,0,0,0, ,-37.2,365.2,929.9,-0.9,-0.5,-2,25,-37.2183,365.853,929.048,-0.889699,-0.510086,-2.01586,
2026_07_06_14_21_41.435,0,29.9,0,0.76,0,0,0,0, ,0,0,0,0,0, ,-36.6,365.7,929.9,-0.9,-0.5,-2.1,25,-37.1989,365.829,929.1,-0.890326,-0.509471,-2.01794,
2026_07_06_14_21_41.455,0,29.8,0,0.759,0,0,0,0, ,0,0,0,0,0, ,-37.3,364.7,928.8,-0.9,-0.5,-2,25,-37.1837,365.791,929.115,-0.890916,-0.508894,-2.0199,
2026_07_06_14_21_41.475,0,29.8,0,0.758,0,0,0,0.001, ,0,0,0,0,0, ,-36.8,365.9,927.8,-0.9,-0.5,-2,25,-37.1756,365.761,929.066,-0.891469,-0.508352,-2.01868,
2026_07_06_14_21_41.500,0,29.9,0,0.76,0,0,0,0.001, ,0,0,0,0,0, ,-36.4,365.8,929.8,-0.9,-0.5,-2,25,-37.1405,365.766,929.05,-0.891989,-0.507843,-2.01755,
2026_07_06_14_21_41.526,0,29.9,0,0.758,0,0,0,0, ,0,0,0,0,0, ,-37.4,365.3,929.3,-0.9,-0.5,-2,25,-37.1258,365.753,929.08,-0.892477,-0.507365,-2.01648,
2026_07_06_14_21_41.534,0,29.9,0,0.758,0,0,0,0, ,0,0,0,0,0, ,-38,366.5,929.8,-0.9,-0.6,-2,25,-37.1608,365.762,929.109,-0.892936,-0.509963,-2.01547,
2026_07_06_14_21_41.555,0,29.9,0,0.758,0,0,0,0, ,0,0,0,0,0, ,-36.9,365.8,928.9,-0.8,-0.5,-2,25,-37.1784,365.786,929.123,-0.890319,-0.512403,-2.01453,
2026_07_06_14_21_41.574,0,29.9,0,0.758,0,0,0,0, ,0,0,0,0,0, ,-36.8,365.8,928.3,-0.8,-0.5,-2,25,-37.1584,365.786,929.091,-0.884816,-0.511647,-2.01364,
2026_07_06_14_21_41.594,0,29.9,0,0.759,0,0,0,0, ,0,0,0,0,0, ,-37.9,365.8,930.1,-0.9,-0.5,-2.1,25,-37.1701,365.787,929.098,-0.882694,-0.510937,-2.01586,
2026_07_06_14_21_41.614,0,29.8,0,0.758,0,0,0,0, ,0,0,0,0,0, ,-37.5,365.4,928.1,-0.9,-0.5,-2,25,-37.2024,365.776,929.098,-0.883749,-0.510271,-2.01794,
2026_07_06_14_21_41.634,0,29.9,0,0.758,0,0,0,0.001, ,0,0,0,0,0, ,-37.2,366.9,930,-0.9,-0.6,-2,25,-37.2114,365.799,929.095,-0.884739,-0.512692,-2.01685,
2026_07_06_14_21_41.654,0,29.9,0,0.758,0,0,0,0, ,0,0,0,0,0, ,-35.2,364.7,928.5,-0.8,-0.5,-2,25,-37.1498,365.799,929.105,-0.882622,-0.514965,-2.01582,
2026_07_06_14_21_41.673,0,29.9,0,0.76,0,0,0,0, ,0,0,0,0,0, ,-36.7,365.1,928.8,-0.9,-0.6,-2,25,-37.0766,365.744,929.077,-0.880634,-0.5171,-2.01486,
2026_07_06_14_21_41.694,0,29.9,0,0.759,0,0,0,0, ,0,0,0,0,0, ,-37.7,365.9,929.3,-0.9,-0.6,-2.1,25,-37.0842,365.729,929.075,-0.881814,-0.522152,-2.017,
2026_07_06_14_21_41.712,0,30,0,0.758,0,0,0,0, ,0,0,0,0,0, ,-37.8,366.5,929.4,-0.9,-0.5,-2,25,-37.1247,365.758,929.092,-0.882922,-0.523849,-2.01901,
2026_07_06_14_21_41.733,0,29.9,0,0.76,0,0,0,0, ,0,0,0,0,0, ,-36.9,364.8,930.2,-0.9,-0.5,-2,25,-37.1385,365.751,929.135,-0.883963,-0.522396,-2.01785,
2026_07_06_14_21_41.752,0,30.1,0,0.76,0,0,0,0, ,0,0,0,0,0, ,-37.3,365.6,928.9,-0.9,-0.5,-2,25,-37.1361,365.718,929.161,-0.88494,-0.521031,-2.01676,
2026_07_06_14_21_41.771,0,29.8,0,0.758,0,0,0,0, ,0,0,0,0,0, ,-36.7,365.9,929.5,-0.9,-0.5,-2,25,-37.1278,365.72,929.163,-0.885858,-0.519749,-2.01574,
2026_07_06_14_21_41.791,0,29.9,0,0.759,0,0,0,0.001, ,0,0,0,0,0, ,-36.9,365.3,930.2,-0.9,-0.6,-2,25,-37.1079,365.712,929.205,-0.88672,-0.521593,-2.01478,
2026_07_06_14_21_41.812,0,29.9,0,0.758,0,0,0,0.001, ,0,0,0,0,0, ,-37.5,367.3,930.9,-0.9,-0.5,-2.1,25,-37.1135,365.748,929.287,-0.887529,-0.523324,-2.01693,
2026_07_06_14_21_41.832,0,29.9,0,0.757,0,0,0,0.001, ,0,0,0,0,0, ,-36.9,366.5,929.1,-0.9,-0.5,-2,25,-37.1187,365.818,929.33,-0.888289,-0.521903,-2.01894,
2026_07_06_14_21_41.854,0,30,0,0.759,0,0,0,0.001, ,0,0,0,0,0, ,-37.5,366,929.8,-0.9,-0.5,-2,25,-37.1237,365.845,929.338,-0.889003,-0.520568,-2.01779,
2026_07_06_14_21_41.871,0,29.9,0,0.759,0,0,0,0, ,0,0,0,0,0, ,-36.9,365.6,927.2,-0.8,-0.5,-2,25,-37.1283,365.842,929.286,-0.886626,-0.519314,-2.0167,
2026_07_06_14_21_41.891,0,30,0,0.759,0,0,0,0.001, ,0,0,0,0,0, ,-36.7,366.3,930,-0.9,-0.5,-2,25,-37.1083,365.848,929.245,-0.884394,-0.518137,-2.01569,
2026_07_06_14_21_41.910,0,29.9,0,0.758,0,0,0,0, ,0,0,0,0,0, ,-36.7,366.5,929.5,-0.9,-0.5,-2,25,-37.0835,365.882,929.275,-0.885345,-0.517032,-2.01473,
2026_07_06_14_21_41.930,0,29.9,0,0.759,0,0,0,0.001, ,0,0,0,0,0, ,-36.7,365.7,929.1,-0.9,-0.5,-2,25,-37.0601,365.895,929.277,-0.886238,-0.515994,-2.01383,
2026_07_06_14_21_41.950,0,29.9,0,0.759,0,0,0,0.001, ,0,0,0,0,0, ,-38,364.7,929.8,-0.8,-0.5,-2,25,-37.0778,365.853,929.287,-0.88403,-0.51502,-2.01299,
2026_07_06_14_21_41.971,0,30,0,0.758,0,0,0,0.001, ,0,0,0,0,0, ,-36.8,366.2,929.9,-0.8,-0.5,-2,25,-37.0974,365.828,929.322,-0.878909,-0.514104,-2.0122,
2026_07_06_14_21_41.990,0,29.9,0,0.759,0,0,0,0, ,0,0,0,0,0, ,-36.7,365.1,929.1,-0.9,-0.6,-2,25,-37.0762,365.818,929.333,-0.877148,-0.516292,-2.01146,
2026_07_06_14_21_42.010,0,30,0,0.758,0,0,0,0.001, ,0,0,0,0,0, ,-38.4,366.8,927.9,-0.9,-0.5,-2,25,-37.1051,365.826,929.282,-0.87854,-0.518346,-2.01076,
2026_07_06_14_21_42.029,0,29.9,0,0.758,0,0,0,0, ,0,0,0,0,0, ,-37.5,365.6,929.8,-0.9,-0.6,-2,25,-37.1566,365.848,929.256,-0.879848,-0.520275,-2.0101,
2026_07_06_14_21_42.050,0,30,0,0.758,0,0,0,0.001, ,0,0,0,0,0, ,-38.4,365.4,928.9,-0.9,-0.5,-2.1,25,-37.2049,365.827,929.261,-0.881076,-0.522086,-2.01253,
2026_07_06_14_21_42.069,0,29.9,0,0.758,0,0,0,0, ,0,0,0,0,0, ,-36.7,365.6,928.1,-0.9,-0.6,-2.1,25,-37.226,365.807,929.215,-0.882229,-0.523787,-2.01786,
2026_07_06_14_21_42.088,0,29.9,0,0.758,0,0,0,0.001, ,0,0,0,0,0, ,-37.7,366.2,928.5,-0.9,-0.6,-2,25,-37.2244,365.813,929.159,-0.883312,-0.528431,-2.01982,
2026_07_06_14_21_42.108,0,30,0,0.758,0,0,0,0.001, ,0,0,0,0,0, ,-36.8,366.8,928.9,-0.9,-0.5,-2,25,-37.2259,365.855,929.131,-0.884329,-0.529746,-2.01861,
2026_07_06_14_21_42.128,0,30,0,0.758,0,0,0,0, ,0,0,0,0,0, ,-37.1,364.9,929.6,-0.9,-0.5,-2,25,-37.2091,365.855,929.138,-0.885284,-0.527933,-2.01748,
2026_07_06_14_21_42.148,0,29.9,0,0.758,0,0,0,0, ,0,0,0,0,0, ,-37.9,364.7,927.8,-0.8,-0.6,-2,25,-37.2268,365.79,929.112,-0.883134,-0.529278,-2.01641,
2026_07_06_14_21_42.168,0,30,0,0.758,0,0,0,0.001, ,0,0,0,0,0, ,-37.2,365.9,929.9,-1,-0.5,-2,25,-37.2465,365.76,929.096,-0.884162,-0.530541,-2.01541,
2026_07_06_14_21_42.188,0,29.9,0,0.758,0,0,0,0, ,0,0,0,0,0, ,-38.3,366.3,930.4,-0.9,-0.5,-2,25,-37.2772,365.781,929.16,-0.888174,-0.52868,-2.01447,
2026_07_06_14_21_42.211,0,29.9,0,0.758,0,0,0,0.001, ,0,0,0,0,0, ,-37.9,366.4,929,-0.9,-0.5,-2,25,-37.3274,365.816,929.193,-0.888894,-0.526932,-2.01359,
2026_07_06_14_21_42.227,0,29.9,0,0.758,0,0,0,0.001, ,0,0,0,0,0, ,-37.5,365.2,929.4,-0.9,-0.5,-2,25,-37.3501,365.815,929.193,-0.889571,-0.525291,-2.01276,
2026_07_06_14_21_42.247,0,29.8,0,0.758,0,0,0,0.001, ,0,0,0,0,0, ,-37.4,364.9,928.9,-0.9,-0.5,-2,25,-37.3562,365.768,929.191,-0.890207,-0.52375,-2.01199,
2026_07_06_14_21_42.267,0,30,0,0.759,0,0,0,0.001, ,0,0,0,0,0, ,-36.4,365.3,929.8,-1,-0.5,-2,25,-37.3284,365.727,929.2,-0.89385,-0.522302,-2.01126,
2026_07_06_14_21_42.287,0,29.8,0,0.758,0,0,0,0, ,0,0,0,0,0, ,-38.5,365.9,928.5,-0.9,-0.5,-2.1,25,-37.3358,365.72,929.197,-0.897272,-0.520943,-2.01362,
2026_07_06_14_21_42.307,0,30,0,0.758,0,0,0,0.001, ,0,0,0,0,0, ,-37.2,366.5,929.4,-0.9,-0.6,-2,25,-37.3671,365.749,929.182,-0.897438,-0.522714,-2.01583,
2026_07_06_14_21_42.326,0,30,0,0.758,0,0,0,0, ,0,0,0,0,0, ,-36.4,365.9,929.4,-0.8,-0.6,-2,25,-37.3325,365.776,929.196,-0.894547,-0.527424,-2.01487,
2026_07_06_14_21_42.347,0,29.9,0,0.758,0,0,0,0, ,0,0,0,0,0, ,-37.7,365.7,929.4,-0.9,-0.5,-2.1,25,-37.3153,365.778,929.208,-0.891833,-0.528799,-2.01701,
2026_07_06_14_21_42.366,0,30,0,0.76,0,0,0,0.001, ,0,0,0,0,0, ,-37.4,365.9,928.7,-0.8,-0.5,-2.1,25,-37.3296,365.779,929.198,-0.889284,-0.527044,-2.02207,
2026_07_06_14_21_42.387,0,30,0,0.758,0,0,0,0, ,0,0,0,0,0, ,-37.8,367.7,929.5,-0.9,-0.5,-2,25,-37.3461,365.841,929.192,-0.88689,-0.525396,-2.02377,
2026_07_06_14_21_42.406,0,30,0,0.759,0,0,0,0, ,0,0,0,0,0, ,-36.2,366,928.9,-0.8,-0.5,-2,25,-37.325,365.903,929.193,-0.884642,-0.523849,-2.02232,
2026_07_06_14_21_42.425,0,29.9,0,0.759,0,0,0,0, ,0,0,0,0,0, ,-38,365.7,929.3,-0.9,-0.5,-2,25,-37.3113,365.9,929.187,-0.882531,-0.522395,-2.02096,
2026_07_06_14_21_42.445,0,30,0,0.759,0,0,0,0.001, ,0,0,0,0,0, ,-36.8,366.8,928.3,-0.9,-0.5,-2.1,25,-37.3167,365.921,929.164,-0.883595,-0.521031,-2.02273,
2026_07_06_14_21_42.465,0,30,0,0.758,0,0,0,0, ,0,0,0,0,0, ,-37.1,365.6,929.5,-0.9,-0.5,-2.1,25,-37.2944,365.938,929.148,-0.884595,-0.519749,-2.02744,
2026_07_06_14_21_42.485,0,30,0,0.758,0,0,0,0, ,0,0,0,0,0, ,-38.5,366,929.6,-0.9,-0.5,-2,25,-37.3252,365.93,929.172,-0.885534,-0.518546,-2.02881,
2026_07_06_14_21_42.504,0,30.1,0,0.758,0,0,0,0, ,0,0,0,0,0, ,-36.6,366.2,929,-0.9,-0.6,-2,25,-37.3389,365.94,929.18,-0.886415,-0.520462,-2.02706,
2026_07_06_14_21_42.524,0,29.9,0,0.759,0,0,0,0, ,0,0,0,0,0, ,-37.8,364.7,929.3,-0.9,-0.6,-2,25,-37.3304,365.91,929.178,-0.887243,-0.525309,-2.02541,
2026_07_06_14_21_42.544,0,29.9,0,0.758,0,0,0,0.001, ,0,0,0,0,0, ,-37.2,365.9,929,-0.8,-0.4,-2,25,-37.3407,365.873,929.176,-0.884974,-0.523767,-2.02386,
2026_07_06_14_21_42.564,0,30,0,0.758,0,0,0,0.001, ,0,0,0,0,0, ,-37.1,366.2,929.8,-0.9,-0.5,-2,25,-37.3291,365.884,929.19,-0.882842,-0.519272,-2.02241,
2026_07_06_14_21_42.583,0,29.9,0,0.759,0,0,0,0, ,0,0,0,0,0, ,-37.3,365.8,930.1,-0.9,-0.5,-2,25,-37.3213,365.891,929.236,-0.883888,-0.518097,-2.02104,
2026_07_06_14_21_42.603,0,30.1,0,0.758,0,0,0,0.001, ,0,0,0,0,0, ,-37.4,365.6,929.9,-0.9,-0.5,-2.1,25,-37.323,365.879,929.283,-0.88487,-0.516995,-2.02281,
2026_07_06_14_21_42.623,0,29.9,0,0.759,0,0,0,0, ,0,0,0,0,0, ,-37.8,366.3,928.7,-0.9,-0.6,-2,25,-37.3399,365.884,929.284,-0.885792,-0.519006,-2.02446,
2026_07_06_14_21_42.643,0,30,0,0.758,0,0,0,0.001, ,0,0,0,0,0, ,-37.2,366.8,930,-0.9,-0.5,-2,25,-37.3496,365.924,929.288,-0.886658,-0.520895,-2.02297,
2026_07_06_14_21_42.663,0,30,0,0.758,0,0,0,0, ,0,0,0,0,0, ,-36.9,365.6,928.5,-0.9,-0.5,-2,25,-37.3314,365.941,929.286,-0.887471,-0.519621,-2.02157,
2026_07_06_14_21_42.682,0,29.9,0,0.759,0,0,0,0, ,0,0,0,0,0, ,-37.9,367.4,929.6,-0.9,-0.5,-2.1,25,-37.3356,365.975,929.271,-0.888234,-0.518426,-2.0233,
2026_07_06_14_21_42.702,0,30,0,0.759,0,0,0,0.001, ,0,0,0,0,0, ,-37.2,366.4,928.5,-0.9,-0.5,-2.1,25,-37.3486,366.031,929.258,-0.888951,-0.517303,-2.02798,
2026_07_06_14_21_42.724,0,29.9,0,0.759,0,0,0,0, ,0,0,0,0,0, ,-36.7,365.7,929.5,-0.9,-0.5,-2,25,-37.3243,366.033,929.242,-0.889624,-0.516248,-2.02932,
2026_07_06_14_21_42.742,0,29.9,0,0.757,0,0,0,0.001, ,0,0,0,0,0, ,-36.9,365.2,928.5,-0.9,-0.5,-2,25,-37.2924,365.997,929.227,-0.890257,-0.515258,-2.02753,
2026_07_06_14_21_42.762,0,29.9,0,0.76,0,0,0,0.001, ,0,0,0,0,0, ,-37.1,365.8,929.3,-0.9,-0.5,-2.1,25,-37.2746,365.967,929.207,-0.89085,-0.514329,-2.0289,
2026_07_06_14_21_42.782,0,30,0,0.759,0,0,0,0.001, ,0,0,0,0,0, ,-38.5,366.5,928.5,-1,-0.5,-2,25,-37.3066,365.978,929.189,-0.894455,-0.513455,-2.03019,
2026_07_06_14_21_42.803,0,29.9,0,0.76,0,0,0,0, ,0,0,0,0,0, ,-37.3,365.4,928.7,-1,-0.5,-2,25,-37.3427,365.976,929.153,-0.900886,-0.512635,-2.02835,
2026_07_06_14_21_42.821,0,29.9,0,0.761,0,0,0,0.001, ,0,0,0,0,0, ,-36.6,366.4,929.6,-0.9,-0.5,-2,25,-37.3188,365.972,929.153,-0.903879,-0.511865,-2.02662,
2026_07_06_14_21_42.841,0,29.9,0,0.759,0,0,0,0.001, ,0,0,0,0,0, ,-39,365.9,930.2,-0.9,-0.5,-2,25,-37.3481,365.982,929.198,-0.903643,-0.511142,-2.025,
2026_07_06_14_21_42.861,0,30,0,0.76,0,0,0,0.001, ,0,0,0,0,0, ,-36.7,365.7,930.2,-0.9,-0.5,-2.1,25,-37.3787,365.971,929.259,-0.903421,-0.510463,-2.02652,
