UTC_Time,Vin,TC1,TC2,Rh1,Vh1,Ah1,Acp1,Dty1,Err1,Rh2,Vh2,Ah2,Acp2,Dty2,Err2,Accel_x,Accel_y,Accel_z,gyro_x,gyro_y,gyro_z,Temp_c,Accel_x_h,Accel_y_h,Accel_z_h,gyro_x_h,gyro_y_h,gyro_z_h,
2026_07_06_18_18_18.712,3.845,26.9,0,0.758,3.819,5.038,18.27,0.95, ,0,0,0,0,0, ,-37.9,282.1,959.4,-0.1,-0.5,-1.5,25,-37.9,282.1,959.4,-0.1,-0.5,-1.5,
2026_07_06_18_18_18.731,3.832,26.8,0,0.756,3.842,5.082,18.54,0.95, ,0,0,0,0,0, ,-39.9,282.9,962,-0.1,-0.5,-1.6,25,-37.9609,282.124,959.479,-0.1,-0.5,-1.50305,
2026_07_06_18_18_18.751,3.832,27,0,0.76,0,0,0,0.025, ,0,0,0,0,0, ,-38.4,283.9,960.6,-0.2,-0.5,-1.6,25,-38.0334,282.202,959.59,-0.103047,-0.5,-1.50895,
2026_07_06_18_18_18.771,3.832,27.1,0,0.759,0,0,0,0.024, ,0,0,0,0,0, ,-39.3,284.5,962.2,-0.2,-0.5,-1.6,25,-38.0832,282.324,959.7,-0.108955,-0.5,-1.5145,
2026_07_06_18_18_18.791,3.832,27.3,0,0.758,0,0,0,0.024, ,0,0,0,0,0, ,-39.6,284.7,960.4,-0.1,-0.5,-1.5,25,-38.1665,282.463,959.798,-0.111456,-0.5,-1.51667,
2026_07_06_18_18_18.811,3.832,27.2,0,0.759,0,0,0,0.022, ,0,0,0,0,0, ,-40,283.8,960,0,-0.5,-1.5,25,-38.266,282.571,959.822,-0.107711,-0.5,-1.51565,
2026_07_06_18_18_18.830,3.832,27.5,0,0.759,0,0,0,0.023, ,0,0,0,0,0, ,-39.7,283.4,961,0,-0.6,-1.6,25,-38.3625,282.634,959.864,-0.101148,-0.503047,-1.51774,
2026_07_06_18_18_18.854,3.832,27.5,0,0.759,0,0,0,0.021, ,0,0,0,0,0, ,-39.1,282.3,961,0,-0.5,-1.6,25,-38.4257,282.647,959.933,-0.0949838,-0.505908,-1.52276,
2026_07_06_18_18_18.870,3.832,27.6,0,0.757,0,0,0,0.021, ,0,0,0,0,0, ,-39.5,283.2,960.6,0,-0.5,-1.5,25,-38.479,282.654,959.986,-0.0891958,-0.505548,-1.52442,
2026_07_06_18_18_18.889,3.832,27.6,0,0.758,0,0,0,0.021, ,0,0,0,0,0, ,-39.7,283,961.3,0,-0.4,-1.6,25,-38.5473,282.681,960.045,-0.0837604,-0.502163,-1.52598,
2026_07_06_18_18_18.910,3.832,27.8,0,0.759,0,0,0,0.021, ,0,0,0,0,0, ,-39.4,282.7,961.6,0,-0.5,-1.5,25,-38.6084,282.691,960.13,-0.0786562,-0.498984,-1.52744,
2026_07_06_18_18_18.929,3.832,27.7,0,0.758,0,0,0,0.02, ,0,0,0,0,0, ,-38.8,282.1,961.9,-0.1,-0.5,-1.6,25,-38.6384,282.673,960.229,-0.07691,-0.499046,-1.52881,
2026_07_06_18_18_18.949,3.832,27.8,0,0.758,0,0,0,0.021, ,0,0,0,0,0, ,-39.7,283,960.6,-0.1,-0.5,-1.6,25,-38.6757,282.666,960.291,-0.078317,-0.499104,-1.53315,
2026_07_06_18_18_18.968,3.832,27.7,0,0.758,0,0,0,0.02, ,0,0,0,0,0, ,-39.1,281.9,960.8,-0.1,-0.4,-1.5,25,-38.7198,282.653,960.316,-0.0796384,-0.496112,-1.53418,
2026_07_06_18_18_18.988,3.832,27.8,0,0.758,0,0,0,0.021, ,0,0,0,0,0, ,-39.7,282.8,959.7,-0.2,-0.4,-1.5,25,-38.7612,282.634,960.312,-0.083926,-0.490255,-1.5321,
2026_07_06_18_18_19.009,3.832,27.9,0,0.758,0,0,0,0.021, ,0,0,0,0,0, ,-38.8,283.8,962.5,0,-0.5,-1.6,25,-38.791,282.675,960.36,-0.0849055,-0.487802,-1.53319,
2026_07_06_18_18_19.028,3.832,27.9,0,0.758,0,0,0,0.02, ,0,0,0,0,0, ,-38.4,284.7,960.4,-0.1,-0.6,-1.5,25,-38.7794,282.771,960.426,-0.0827785,-0.491592,-1.53421,
2026_07_06_18_18_19.048,3.832,27.8,0,0.758,0,0,0,0.02, ,0,0,0,0,0, ,-38.9,283.6,961,-0.1,-0.5,-1.6,25,-38.7715,282.855,960.443,-0.0838279,-0.495152,-1.53517,
2026_07_06_18_18_19.068,3.832,28,0,0.758,0,0,0,0.021, ,0,0,0,0,0, ,-38.5,284.3,961.4,0,-0.5,-1.5,25,-38.7671,282.922,960.489,-0.0817665,-0.495447,-1.53608,
2026_07_06_18_18_19.087,3.832,27.9,0,0.758,0,0,0,0.02, ,0,0,0,0,0, ,-39.1,283.9,959.7,0,-0.6,-1.5,25,-38.7691,282.993,960.493,-0.0767839,-0.498771,-1.53388,
2026_07_06_18_18_19.107,3.832,28,0,0.758,0,0,0,0.021, ,0,0,0,0,0, ,-39.6,283.9,960.9,0,-0.5,-1.6,25,-38.8045,283.049,960.481,-0.0721049,-0.501893,-1.53486,
2026_07_06_18_18_19.127,3.832,28,0,0.76,0,0,0,0.02, ,0,0,0,0,0, ,-39.6,283.3,961.4,0,-0.5,-1.5,25,-38.853,283.082,960.522,-0.067711,-0.501778,-1.53578,
2026_07_06_18_18_19.147,3.832,28.1,0,0.758,0,0,0,0.021, ,0,0,0,0,0, ,-39.1,283.2,960.8,-0.1,-0.6,-1.5,25,-38.8833,283.092,960.557,-0.0666317,-0.504716,-1.5336,
2026_07_06_18_18_19.166,3.832,28.1,0,0.758,0,0,0,0.02, ,0,0,0,0,0, ,-39.1,283,960.8,0,-0.5,-1.5,25,-38.8965,283.093,960.572,-0.0656182,-0.507476,-1.53156,
2026_07_06_18_18_19.186,3.832,28,0,0.758,0,0,0,0.02, ,0,0,0,0,0, ,-38.6,282.3,961.4,0,-0.5,-1.6,25,-38.8937,283.066,960.604,-0.0616196,-0.50702,-1.53268,
2026_07_06_18_18_19.206,3.832,28,0,0.758,0,0,0,0.021, ,0,0,0,0,0, ,-39.7,285.2,960.5,0,-0.6,-1.6,25,-38.9093,283.108,960.625,-0.0578647,-0.509639,-1.53678,
2026_07_06_18_18_19.225,3.832,28.1,0,0.758,0,0,0,0.021, ,0,0,0,0,0, ,-38.6,282.8,960.3,0,-0.5,-1.6,25,-38.924,283.162,960.612,-0.0543385,-0.512099,-1.54063,
2026_07_06_18_18_19.245,3.832,28.2,0,0.758,0,0,0,0.021, ,0,0,0,0,0, ,-39,282.7,961.3,0,-0.5,-1.5,25,-38.9164,283.137,960.623,-0.0510273,-0.511362,-1.5412,
2026_07_06_18_18_19.266,3.832,28.1,0,0.756,0,0,0,0.02, ,0,0,0,0,0, ,-40,283.3,960.8,0,-0.5,-1.5,25,-38.952,283.129,960.649,-0.0479178,-0.510669,-1.53869,
2026_07_06_18_18_19.286,3.832,28.2,0,0.758,0,0,0,0.021, ,0,0,0,0,0, ,-39.9,282.1,960.8,0,-0.5,-1.6,25,-39.0128,283.102,960.658,-0.0449978,-0.510019,-1.53938,
2026_07_06_18_18_19.306,3.832,28.2,0,0.758,0,0,0,0.02, ,0,0,0,0,0, ,-39,282.3,959.9,0,-0.5,-1.5,25,-39.0394,283.047,960.639,-0.0422558,-0.509408,-1.54003,
2026_07_06_18_18_19.326,3.832,28.2,0,0.758,0,0,0,0.021, ,0,0,0,0,0, ,-40.6,284,960.6,-0.1,-0.5,-1.6,25,-39.0858,283.054,960.616,-0.0427277,-0.508835,-1.54064,
2026_07_06_18_18_19.345,3.832,28.3,0,0.759,0,0,0,0.021, ,0,0,0,0,0, ,-37.9,282.8,961.3,-0.1,-0.5,-1.5,25,-39.0958,283.075,960.636,-0.0462177,-0.508297,-1.54121,
2026_07_06_18_18_19.364,3.832,28.2,0,0.756,0,0,0,0.02, ,0,0,0,0,0, ,-39.4,282.4,960.5,-0.1,-0.5,-1.5,25,-39.0686,283.046,960.652,-0.0494951,-0.507791,-1.5387,
2026_07_06_18_18_19.384,3.832,28.2,0,0.758,0,0,0,0.021, ,0,0,0,0,0, ,-39.6,283.8,960.2,-0.2,-0.5,-1.6,25,-39.0949,283.049,960.634,-0.0556196,-0.507316,-1.53939,
2026_07_06_18_18_19.405,3.832,28.2,0,0.76,0,0,0,0.021, ,0,0,0,0,0, ,-38.8,283.2,962.4,-0.1,-0.5,-1.5,25,-39.1013,283.077,960.674,-0.0613709,-0.506871,-1.54003,
2026_07_06_18_18_19.424,3.832,28.3,0,0.76,0,0,0,0.022, ,0,0,0,0,0, ,-39.5,283.6,962,-0.1,-0.6,-1.5,25,-39.1043,283.096,960.767,-0.0637248,-0.509499,-1.53759,
2026_07_06_18_18_19.443,3.832,28.2,0,0.76,0,0,0,0.021, ,0,0,0,0,0, ,-38.8,283.9,960,0,-0.5,-1.6,25,-39.1071,283.136,960.781,-0.0628885,-0.511967,-1.53835,
2026_07_06_18_18_19.467,3.832,28.3,0,0.759,0,0,0,0.022, ,0,0,0,0,0, ,-40.2,283.2,960.5,0,-0.5,-1.6,25,-39.131,283.161,960.749,-0.0590562,-0.511238,-1.54211,
2026_07_06_18_18_19.483,3.832,28.4,0,0.76,0,0,0,0.021, ,0,0,0,0,0, ,-37.5,283,959.5,0,-0.5,-1.5,25,-39.1139,283.158,960.703,-0.0554575,-0.510553,-1.54259,
2026_07_06_18_18_19.503,3.832,28.3,0,0.76,0,0,0,0.021, ,0,0,0,0,0, ,-40.4,283.2,961.4,0,-0.5,-1.6,25,-39.1039,283.154,960.688,-0.052078,-0.50991,-1.54304,
2026_07_06_18_18_19.523,3.832,28.4,0,0.758,0,0,0,0.022, ,0,0,0,0,0, ,-38.9,282.3,959.2,0,-0.5,-1.5,25,-39.1372,283.13,960.664,-0.0489045,-0.509306,-1.54346,
2026_07_06_18_18_19.542,3.832,28.4,0,0.758,0,0,0,0.021, ,0,0,0,0,0, ,-39.1,282.2,960.5,-0.1,-0.5,-1.6,25,-39.1288,283.076,960.615,-0.0489713,-0.508739,-1.54386,
2026_07_06_18_18_19.563,3.832,28.4,0,0.759,0,0,0,0.021, ,0,0,0,0,0, ,-37.2,280.3,961.7,0,-0.5,-1.5,25,-39.0692,282.965,960.644,-0.049034,-0.508206,-1.54424,
2026_07_06_18_18_19.582,3.832,28.4,0,0.758,0,0,0,0.021, ,0,0,0,0,0, ,-38.5,284.5,962,-0.1,-0.5,-1.6,25,-38.9949,282.93,960.718,-0.0490928,-0.507706,-1.54459,
2026_07_06_18_18_19.602,3.832,28.4,0,0.756,0,0,0,0.021, ,0,0,0,0,0, ,-38.6,282.7,960.8,-0.1,-0.5,-1.5,25,-38.9678,282.971,960.759,-0.052195,-0.507237,-1.54492,
2026_07_06_18_18_19.628,3.832,28.5,0,0.759,0,0,0,0.022, ,0,0,0,0,0, ,-40.1,284.1,961.4,-0.2,-0.5,-1.6,25,-38.9911,282.997,960.78,-0.058155,-0.506796,-1.54523,
2026_07_06_18_18_19.642,3.832,28.4,0,0.758,0,0,0,0.021, ,0,0,0,0,0, ,-40,283.9,961.1,-0.1,-0.5,-1.5,25,-39.0556,283.058,960.809,-0.0637518,-0.506382,-1.54552,
2026_07_06_18_18_19.662,3.832,28.5,0,0.758,0,0,0,0.022, ,0,0,0,0,0, ,-38,284.6,961.4,-0.1,-0.4,-1.5,25,-39.0522,283.131,960.836,-0.0659607,-0.502946,-1.54274,
2026_07_06_18_18_19.681,3.832,28.5,0,0.758,0,0,0,0.021, ,0,0,0,0,0, ,-38.5,284,961.5,-0.1,-0.5,-1.6,25,-39.0033,283.202,960.873,-0.0680349,-0.499719,-1.54319,
2026_07_06_18_18_19.701,3.832,28.5,0,0.759,0,0,0,0.021, ,0,0,0,0,0, ,-39.1,284.1,961.3,0,-0.4,-1.5,25,-38.9909,283.254,960.905,-0.0669359,-0.49669,-1.5436,
2026_07_06_18_18_19.721,3.832,28.5,0,0.758,0,0,0,0.022, ,0,0,0,0,0, ,-39.4,282.8,961.5,0,-0.4,-1.6,25,-39.0067,283.266,960.935,-0.062857,-0.490798,-1.54399,
2026_07_06_18_18_19.740,3.832,28.6,0,0.758,0,0,0,0.022, ,0,0,0,0,0, ,-38.2,282.9,960.3,0,-0.5,-1.6,25,-38.9941,283.24,960.933,-0.0590267,-0.488311,-1.5474,
2026_07_06_18_18_19.760,3.832,28.5,0,0.758,0,0,0,0.021, ,0,0,0,0,0, ,-40.1,283.4,960.6,0,-0.5,-1.6,25,-39.0036,283.235,960.904,-0.0554297,-0.489024,-1.55061,
2026_07_06_18_18_19.780,3.832,28.6,0,0.759,0,0,0,0.022, ,0,0,0,0,0, ,-39.6,282.2,961.7,0,-0.5,-1.5,25,-39.0552,283.208,960.919,-0.052052,-0.489693,-1.55057,
2026_07_06_18_18_19.800,3.832,28.6,0,0.759,0,0,0,0.021, ,0,0,0,0,0, ,-39.1,282.3,961.6,0,-0.4,-1.6,25,-39.0732,283.15,960.963,-0.0488801,-0.487274,-1.55054,
2026_07_06_18_18_19.820,3.832,28.6,0,0.759,0,0,0,0.021, ,0,0,0,0,0, ,-38.6,282.3,960.8,-0.1,-0.5,-1.5,25,-39.0596,283.098,960.978,-0.0489483,-0.485002,-1.5505,
2026_07_06_18_18_19.839,3.832,28.6,0,0.76,0,0,0,0.022, ,0,0,0,0,0, ,-38,283.9,960,-0.2,-0.5,-1.6,25,-39.0133,283.098,960.943,-0.0551062,-0.485916,-1.55047,
2026_07_06_18_18_19.859,3.832,28.7,0,0.759,0,0,0,0.022, ,0,0,0,0,0, ,-40.6,283.3,961.9,-0.2,-0.5,-1.6,25,-39.0307,283.129,960.943,-0.0639356,-0.486775,-1.55349,
2026_07_06_18_18_19.879,3.832,28.7,0,0.759,0,0,0,0.021, ,0,0,0,0,0, ,-38.6,281.9,961.5,0,-0.5,-1.6,25,-39.0654,283.097,960.989,-0.0661333,-0.487581,-1.55633,
2026_07_06_18_18_19.899,3.832,28.7,0,0.758,0,0,0,0.021, ,0,0,0,0,0, ,-40.6,282.3,960.2,0,-0.5,-1.5,25,-39.098,283.036,960.981,-0.0621033,-0.488337,-1.55594,
2026_07_06_18_18_19.918,3.832,28.8,0,0.759,0,0,0,0.021, ,0,0,0,0,0, ,-39.6,282.4,961.5,-0.1,-0.5,-1.6,25,-39.1591,282.994,960.973,-0.0613658,-0.489048,-1.55558,
2026_07_06_18_18_19.938,3.832,28.7,0,0.759,0,0,0,0.021, ,0,0,0,0,0, ,-37.5,282.9,960.2,-0.1,-0.5,-1.6,25,-39.122,282.973,960.965,-0.06372,-0.489715,-1.55829,
2026_07_06_18_18_19.958,3.832,28.7,0,0.76,0,0,0,0.022, ,0,0,0,0,0, ,-39.3,283.4,960.3,-0.1,-0.4,-1.6,25,-39.078,282.984,960.922,-0.0659308,-0.487295,-1.56083,
2026_07_06_18_18_19.978,3.832,28.8,0,0.759,0,0,0,0.022, ,0,0,0,0,0, ,-38,283.2,961.3,-0.2,-0.5,-1.6,25,-39.0519,283.003,960.914,-0.0710538,-0.485023,-1.56321,
2026_07_06_18_18_19.997,3.832,28.8,0,0.758,0,0,0,0.021, ,0,0,0,0,0, ,-39.1,283.2,961.4,-0.2,-0.4,-1.6,25,-39.0213,283.015,960.941,-0.0789115,-0.482888,-1.56546,
2026_07_06_18_18_20.017,3.832,28.8,0,0.76,0,0,0,0.021, ,0,0,0,0,0, ,-39.1,283.5,961.7,-0.1,-0.6,-1.5,25,-39.0261,283.036,960.978,-0.0832434,-0.483931,-1.56451,
2026_07_06_18_18_20.037,3.832,28.8,0,0.758,0,0,0,0.021, ,0,0,0,0,0, ,-38.5,283.8,960.2,-0.1,-0.5,-1.6,25,-39.0123,283.073,960.976,-0.0842645,-0.487957,-1.56363,
2026_07_06_18_18_20.057,3.832,28.9,0,0.758,0,0,0,0.021, ,0,0,0,0,0, ,-39.4,283.5,960.3,0,-0.5,-1.5,25,-39.0085,283.108,960.932,-0.0821765,-0.488691,-1.5628,
2026_07_06_18_18_20.077,3.832,28.8,0,0.758,0,0,0,0.021, ,0,0,0,0,0, ,-38.5,283.4,960,0,-0.5,-1.6,25,-39.005,283.129,960.884,-0.0771689,-0.48938,-1.56202,
2026_07_06_18_18_20.097,3.832,28.9,0,0.759,0,0,0,0.022, ,0,0,0,0,0, ,-38.8,282.3,959.8,0,-0.5,-1.6,25,-38.9833,283.112,960.824,-0.0724664,-0.490027,-1.56433,
2026_07_06_18_18_20.119,3.832,28.9,0,0.76,0,0,0,0.021, ,0,0,0,0,0, ,-39.5,283.4,960.6,0,-0.5,-1.5,25,-38.9935,283.096,960.786,-0.0680505,-0.490635,-1.56346,
2026_07_06_18_18_20.136,3.832,28.9,0,0.758,0,0,0,0.021, ,0,0,0,0,0, ,-39.5,283.3,961.5,0,-0.5,-1.6,25,-39.0243,283.112,960.802,-0.0639037,-0.491206,-1.56264,
2026_07_06_18_18_20.156,3.832,28.9,0,0.758,0,0,0,0.021, ,0,0,0,0,0, ,-39.1,282.1,961.3,-0.1,-0.5,-1.5,25,-39.0411,283.086,960.839,-0.0630564,-0.491742,-1.56187,
2026_07_06_18_18_20.176,3.832,29.1,0,0.759,0,0,0,0.021, ,0,0,0,0,0, ,-40.1,284.3,959.9,-0.1,-0.5,-1.6,25,-39.0752,283.093,960.824,-0.0653077,-0.492245,-1.56115,
2026_07_06_18_18_20.195,3.832,28.9,0,0.759,0,0,0,0.02, ,0,0,0,0,0, ,-39.1,283.2,961.1,-0.1,-0.5,-1.6,25,-39.1072,283.133,960.804,-0.0674217,-0.492717,-1.56351,
2026_07_06_18_18_20.215,3.832,29.1,0,0.759,0,0,0,0.021, ,0,0,0,0,0, ,-37.8,285.1,960.5,-0.1,-0.5,-1.6,25,-39.0671,283.195,960.804,-0.069407,-0.493161,-1.56574,
2026_07_06_18_18_20.235,3.832,29.1,0,0.759,0,0,0,0.02, ,0,0,0,0,0, ,-39,283.2,960.8,-0.1,-0.5,-1.5,25,-39.0265,283.254,960.795,-0.0712712,-0.493578,-1.56478,
2026_07_06_18_18_20.255,3.832,29.1,0,0.758,0,0,0,0.02, ,0,0,0,0,0, ,-37.9,283.9,962.4,-0.1,-0.5,-1.6,25,-38.9913,283.272,960.844,-0.0730219,-0.493969,-1.56388,
2026_07_06_18_18_20.280,3.832,29.1,0,0.76,0,0,0,0.02, ,0,0,0,0,0, ,-37.7,284.3,960.9,0,-0.5,-1.5,25,-38.9188,283.322,960.893,-0.071619,-0.494337,-1.56303,
2026_07_06_18_18_20.295,3.832,29.1,0,0.761,0,0,0,0.02, ,0,0,0,0,0, ,-38.3,282.2,962.4,0,-0.5,-1.5,25,-38.8628,283.318,960.939,-0.0672547,-0.494682,-1.55919,
2026_07_06_18_18_20.314,3.832,29.1,0,0.759,0,0,0,0.02, ,0,0,0,0,0, ,-38.9,284.1,960.9,0,-0.6,-1.5,25,-38.8468,283.307,960.982,-0.0631564,-0.498053,-1.55558,
2026_07_06_18_18_20.333,3.832,29.2,0,0.759,0,0,0,0.02, ,0,0,0,0,0, ,-38.4,283.3,961.1,0,-0.5,-1.5,25,-38.8348,283.331,960.984,-0.0593078,-0.501218,-1.5522,
2026_07_06_18_18_20.358,3.832,29.1,0,0.759,0,0,0,0.02, ,0,0,0,0,0, ,-39,282.3,960.6,0,-0.5,-1.5,25,-38.8266,283.299,960.975,-0.0556937,-0.501144,-1.54902,
2026_07_06_18_18_20.373,3.832,29.2,0,0.759,0,0,0,0.021, ,0,0,0,0,0, ,-39.6,280.8,959.4,0,-0.5,-1.6,25,-38.8554,283.192,960.916,-0.0522999,-0.501074,-1.54908,
2026_07_06_18_18_20.393,3.832,28.9,0,0.759,0,0,0,0.02, ,0,0,0,0,0, ,-38.8,283.5,961.4,-0.1,-0.5,-1.6,25,-38.8764,283.129,960.884,-0.0521597,-0.501009,-1.55218,
2026_07_06_18_18_20.413,3.832,29.2,0,0.76,0,0,0,0.022, ,0,0,0,0,0, ,-38.6,284.1,961.3,-0.2,-0.5,-1.5,25,-38.8657,283.17,960.913,-0.0581219,-0.500947,-1.55205,
2026_07_06_18_18_20.432,3.832,29.3,0,0.759,0,0,0,0.02, ,0,0,0,0,0, ,-39.7,282.9,960.3,-0.1,-0.5,-1.6,25,-38.883,283.19,960.906,-0.0637207,-0.50089,-1.55192,
2026_07_06_18_18_20.456,3.832,29.2,0,0.759,0,0,0,0.019, ,0,0,0,0,0, ,-38.9,285,960.5,-0.1,-0.6,-1.6,25,-38.9084,283.236,960.875,-0.0659315,-0.503882,-1.55485,
2026_07_06_18_18_20.472,3.832,29.2,0,0.76,0,0,0,0.02, ,0,0,0,0,0, ,-38.9,284.3,962.2,-0.1,-0.5,-1.6,25,-38.9079,283.322,960.904,-0.0680075,-0.506693,-1.5576,
2026_07_06_18_18_20.494,3.832,29.3,0,0.76,0,0,0,0.02, ,0,0,0,0,0, ,-38,283.6,960.8,-0.1,-0.5,-1.5,25,-38.88,283.361,960.94,-0.0699571,-0.506285,-1.55714,
2026_07_06_18_18_20.512,3.832,29.3,0,0.759,0,0,0,0.02, ,0,0,0,0,0, ,-39.6,284.9,961.4,0,-0.5,-1.5,25,-38.8751,283.415,960.95,-0.0687409,-0.505902,-1.55366,
2026_07_06_18_18_20.531,3.832,29.3,0,0.759,0,0,0,0.02, ,0,0,0,0,0, ,-39.3,284,959.8,-0.1,-0.5,-1.6,25,-38.9101,283.478,960.929,-0.0675989,-0.505542,-1.55343,
2026_07_06_18_18_20.551,3.832,29.3,0,0.76,0,0,0,0.02, ,0,0,0,0,0, ,-38.8,284.7,960.3,-0.1,-0.5,-1.6,25,-38.9187,283.531,960.875,-0.0695733,-0.505204,-1.55627,
2026_07_06_18_18_20.571,3.832,29.3,0,0.758,0,0,0,0.02, ,0,0,0,0,0, ,-38.5,282.4,959.3,0,-0.5,-1.6,25,-38.9023,283.532,960.81,-0.0683806,-0.504887,-1.55894,
2026_07_06_18_18_20.591,3.832,29.4,0,0.759,0,0,0,0.02, ,0,0,0,0,0, ,-39.9,284.1,960.9,-0.1,-0.5,-1.5,25,-38.9204,283.515,960.766,-0.0672605,-0.50459,-1.55839,
2026_07_06_18_18_20.610,3.832,29.4,0,0.761,0,0,0,0.019, ,0,0,0,0,0, ,-38,284.3,960,-0.1,-0.5,-1.5,25,-38.9222,283.557,960.747,-0.0692556,-0.50431,-1.55483,
2026_07_06_18_18_20.631,3.832,29.3,0,0.759,0,0,0,0.019, ,0,0,0,0,0, ,-37.8,283.8,961.9,0,-0.5,-1.5,25,-38.8599,283.587,960.76,-0.0680822,-0.504047,-1.55149,
2026_07_06_18_18_20.650,3.832,29.5,0,0.759,0,0,0,0.02, ,0,0,0,0,0, ,-39.6,282.8,960.8,0,-0.5,-1.5,25,-38.8502,283.569,960.796,-0.0639334,-0.503801,-1.54835,
2026_07_06_18_18_20.670,3.832,29.3,0,0.76,0,0,0,0.018, ,0,0,0,0,0, ,-39.5,282.1,960.6,0,-0.4,-1.5,25,-38.8928,283.501,960.79,-0.0600375,-0.500522,-1.54541,
2026_07_06_18_18_20.690,3.832,29.4,0,0.759,0,0,0,0.02, ,0,0,0,0,0, ,-39.6,282.5,960.4,0,-0.5,-1.5,25,-38.9329,283.428,960.772,-0.056379,-0.497443,-1.54264,
2026_07_06_18_18_20.709,3.832,29.4,0,0.758,0,0,0,0.019, ,0,0,0,0,0, ,-40.4,282.8,960.6,-0.1,-0.5,-1.6,25,-38.9979,283.381,960.755,-0.0559902,-0.497599,-1.54309,
2026_07_06_18_18_20.729,3.832,29.5,0,0.759,0,0,0,0.019, ,0,0,0,0,0, ,-39.1,282.5,960.6,0,-0.5,-1.6,25,-39.0437,283.336,960.746,-0.0556252,-0.497746,-1.54656,
2026_07_06_18_18_20.749,3.832,29.4,0,0.76,0,0,0,0.019, ,0,0,0,0,0, ,-38.2,282.2,962.2,0,-0.5,-1.5,25,-39.0197,283.276,960.786,-0.0522356,-0.497883,-1.54677,
2026_07_06_18_18_20.769,3.832,29.4,0,0.759,0,0,0,0.02, ,0,0,0,0,0, ,-38.2,282.7,960.4,-0.1,-0.5,-1.6,25,-38.9698,283.226,960.817,-0.0520993,-0.498012,-1.54696,
2026_07_06_18_18_20.790,3.832,29.4,0,0.758,0,0,0,0.02, ,0,0,0,0,0, ,-39,282.9,960,-0.2,-0.5,-1.6,25,-38.9473,283.2,960.78,-0.0580651,-0.498133,-1.5502,
2026_07_06_18_18_20.809,3.832,29.5,0,0.759,0,0,0,0.02, ,0,0,0,0,0, ,-39.1,283.5,960.6,-0.1,-0.5,-1.5,25,-38.9535,283.2,960.75,-0.0636674,-0.498247,-1.55018,
2026_07_06_18_18_20.829,3.832,29.5,0,0.759,0,0,0,0.019, ,0,0,0,0,0, ,-39.4,282.9,961.9,0,-0.5,-1.6,25,-38.9716,283.2,960.781,-0.0628346,-0.498354,-1.55017,
2026_07_06_18_18_20.848,3.832,29.5,0,0.759,0,0,0,0.019, ,0,0,0,0,0, ,-39.7,284.4,960.4,0,-0.4,-1.6,25,-39.0068,283.227,960.803,-0.0590056,-0.495407,-1.55321,
2026_07_06_18_18_20.868,3.832,29.6,0,0.76,0,0,0,0.019, ,0,0,0,0,0, ,-39.6,284,960.4,-0.1,-0.6,-1.6,25,-39.046,283.286,960.779,-0.0584568,-0.495687,-1.55606,
2026_07_06_18_18_20.889,3.832,29.6,0,0.759,0,0,0,0.018, ,0,0,0,0,0, ,-38.6,283.2,960.8,0,-0.5,-1.6,25,-39.0493,283.306,960.768,-0.0579415,-0.498997,-1.55874,
2026_07_06_18_18_20.908,3.832,29.5,0,0.759,0,0,0,0.018, ,0,0,0,0,0, ,-39.1,281.7,960.8,0,-0.5,-1.5,25,-39.0372,283.253,960.77,-0.0544107,-0.499058,-1.55821,
2026_07_06_18_18_20.927,3.832,29.5,0,0.76,0,0,0,0.019, ,0,0,0,0,0, ,-38,281.7,961.7,-0.1,-0.6,-1.6,25,-39.0075,283.159,960.799,-0.0541419,-0.502162,-1.55771,
2026_07_06_18_18_20.952,3.832,29.5,0,0.759,0,0,0,0.019, ,0,0,0,0,0, ,-38.5,283,960.2,0,-0.4,-1.6,25,-38.9613,283.109,960.808,-0.0538895,-0.50203,-1.56028,
2026_07_06_18_18_20.966,3.832,29.5,0,0.759,0,0,0,0.019, ,0,0,0,0,0, ,-38.9,283,961.3,-0.1,-0.5,-1.5,25,-38.9454,283.103,960.805,-0.0536525,-0.49886,-1.55966,
2026_07_06_18_18_20.987,3.832,29.5,0,0.759,0,0,0,0.019, ,0,0,0,0,0, ,-39.6,283.9,960.9,-0.3,-0.5,-1.5,25,-38.964,283.124,960.823,-0.0625705,-0.498929,-1.55602,
2026_07_06_18_18_21.007,3.832,29.6,0,0.76,0,0,0,0.019, ,0,0,0,0,0, ,-38.8,283,961.9,-0.1,-0.5,-1.6,25,-38.9783,283.144,960.858,-0.0709451,-0.498994,-1.55565,
2026_07_06_18_18_21.026,3.832,29.6,0,0.759,0,0,0,0.019, ,0,0,0,0,0, ,-39.3,283.5,960.5,-0.1,-0.5,-1.5,25,-38.9827,283.15,960.879,-0.0727157,-0.499056,-1.55531,
2026_07_06_18_18_21.046,3.832,29.5,0,0.76,0,0,0,0.019, ,0,0,0,0,0, ,-39.4,284.4,961.6,0,-0.5,-1.6,25,-39.0051,283.199,960.889,-0.0713314,-0.499113,-1.55499,
2026_07_06_18_18_21.066,3.832,29.5,0,0.76,0,0,0,0.019, ,0,0,0,0,0, ,-39.5,283.9,960.9,0,-0.5,-1.5,25,-39.0322,283.257,960.911,-0.0669847,-0.499167,-1.55468,
2026_07_06_18_18_21.086,3.832,29.6,0,0.76,0,0,0,0.02, ,0,0,0,0,0, ,-39.3,283.4,960.8,0,-0.5,-1.6,25,-39.0546,283.281,960.907,-0.0629028,-0.499218,-1.5544,
2026_07_06_18_18_21.105,3.832,29.7,0,0.759,0,0,0,0.019, ,0,0,0,0,0, ,-39.1,284.1,960.3,0,-0.5,-1.6,25,-39.0635,283.309,960.886,-0.0590697,-0.499266,-1.55718,
2026_07_06_18_18_21.126,3.832,29.6,0,0.758,0,0,0,0.018, ,0,0,0,0,0, ,-38.9,283.8,961.1,0,-0.5,-1.5,25,-39.0596,283.349,960.874,-0.0554701,-0.49931,-1.55674,
2026_07_06_18_18_21.145,3.832,29.7,0,0.76,0,0,0,0.019, ,0,0,0,0,0, ,-38.3,282.8,961.6,0,-0.5,-1.6,25,-39.0316,283.346,960.903,-0.0520899,-0.499352,-1.55633,
2026_07_06_18_18_21.165,3.832,29.7,0,0.759,0,0,0,0.018, ,0,0,0,0,0, ,-39.7,282.8,960.6,-0.1,-0.6,-1.6,25,-39.0297,283.312,960.915,-0.0519625,-0.502439,-1.55899,
2026_07_06_18_18_21.185,3.832,29.7,0,0.759,0,0,0,0.018, ,0,0,0,0,0, ,-38.6,285.1,961.5,-0.1,-0.5,-1.5,25,-39.037,283.351,960.924,-0.0548898,-0.505337,-1.55844,
2026_07_06_18_18_21.205,3.832,29.7,0,0.759,0,0,0,0.018, ,0,0,0,0,0, ,-40.7,283.6,960.4,0,-0.5,-1.5,25,-39.0744,283.412,960.925,-0.0545918,-0.505012,-1.55488,
2026_07_06_18_18_21.224,3.832,29.6,0,0.76,0,0,0,0.018, ,0,0,0,0,0, ,-39.4,282.8,961.6,0,-0.5,-1.5,25,-39.1338,283.399,960.93,-0.0512652,-0.504706,-1.55154,
2026_07_06_18_18_21.244,3.832,29.7,0,0.759,0,0,0,0.019, ,0,0,0,0,0, ,-37.7,283.5,960.4,0,-0.5,-1.6,25,-39.0982,283.384,960.934,-0.0481412,-0.50442,-1.55144,
2026_07_06_18_18_21.264,3.832,29.7,0,0.758,0,0,0,0.018, ,0,0,0,0,0, ,-38.9,282.8,960.3,0,-0.5,-1.6,25,-39.0496,283.37,960.898,-0.0452076,-0.50415,-1.5544,
2026_07_06_18_18_21.283,3.832,29.7,0,0.759,0,0,0,0.018, ,0,0,0,0,0, ,-39.1,283.6,960.6,0,-0.5,-1.4,25,-39.0466,283.359,960.871,-0.0424527,-0.503897,-1.55109,
2026_07_06_18_18_21.303,3.832,29.8,0,0.759,0,0,0,0.018, ,0,0,0,0,0, ,-38.8,281.4,960.9,-0.1,-0.5,-1.6,25,-39.0407,283.307,960.864,-0.0429127,-0.50366,-1.54797,
2026_07_06_18_18_21.323,3.832,29.8,0,0.76,0,0,0,0.017, ,0,0,0,0,0, ,-38.5,280.8,959.9,-0.1,-0.5,-1.6,25,-39.0169,283.172,960.835,-0.0463914,-0.503437,-1.55114,
2026_07_06_18_18_21.343,3.832,29.8,0,0.76,0,0,0,0.018, ,0,0,0,0,0, ,-38,282.8,961.4,-0.2,-0.4,-1.5,25,-38.9701,283.089,960.824,-0.0527051,-0.500181,-1.55107,
2026_07_06_18_18_21.362,3.832,29.7,0,0.76,0,0,0,0.018, ,0,0,0,0,0, ,-38.3,282.7,960.3,-0.2,-0.5,-1.5,25,-38.9202,283.068,960.826,-0.0616808,-0.497123,-1.54796,
2026_07_06_18_18_21.382,3.832,29.8,0,0.76,0,0,0,0.018, ,0,0,0,0,0, ,-38.8,284.4,962,-0.1,-0.5,-1.6,25,-38.8976,283.098,960.845,-0.0670628,-0.497298,-1.54809,
2026_07_06_18_18_21.403,3.832,29.8,0,0.76,0,0,0,0.018, ,0,0,0,0,0, ,-38.6,283.4,961.3,0,-0.5,-1.6,25,-38.8856,283.146,960.894,-0.066023,-0.497463,-1.55125,
2026_07_06_18_18_21.422,3.832,29.8,0,0.759,0,0,0,0.018, ,0,0,0,0,0, ,-38.3,283.2,961,0,-0.5,-1.5,25,-38.859,283.156,960.91,-0.0619998,-0.497617,-1.55117,
2026_07_06_18_18_21.442,3.832,29.8,0,0.759,0,0,0,0.018, ,0,0,0,0,0, ,-39,282.8,960.2,0,-0.5,-1.5,25,-38.8463,283.146,960.891,-0.0582216,-0.497762,-1.54805,
2026_07_06_18_18_21.462,3.832,29.8,0,0.76,0,0,0,0.018, ,0,0,0,0,0, ,-37.9,281.6,960.6,0,-0.5,-1.6,25,-38.8221,283.089,960.861,-0.0546738,-0.497899,-1.54817,
2026_07_06_18_18_21.482,3.832,29.9,0,0.759,0,0,0,0.018, ,0,0,0,0,0, ,-39.3,282.7,959.7,0,-0.5,-1.6,25,-38.8086,283.031,960.818,-0.0513421,-0.498027,-1.55133,
2026_07_06_18_18_21.502,3.832,29.9,0,0.759,0,0,0,0.017, ,0,0,0,0,0, ,-38.3,281.8,959.9,-0.1,-0.5,-1.6,25,-38.8081,282.984,960.756,-0.0512603,-0.498147,-1.5543,
2026_07_06_18_18_21.521,3.832,29.9,0,0.761,0,0,0,0.017, ,0,0,0,0,0, ,-38.8,281.8,960.2,-0.1,-0.5,-1.5,25,-38.7924,282.912,960.713,-0.0542304,-0.49826,-1.55404,
2026_07_06_18_18_21.541,3.832,29.9,0,0.76,0,0,0,0.017, ,0,0,0,0,0, ,-38.6,282.3,960.9,-0.1,-0.5,-1.6,25,-38.7867,282.859,960.703,-0.0570195,-0.498366,-1.55379,
2026_07_06_18_18_21.560,3.832,29.9,0,0.76,0,0,0,0.017, ,0,0,0,0,0, ,-38,283.4,959.9,-0.2,-0.5,-1.6,25,-38.7571,282.859,960.684,-0.0626855,-0.498466,-1.55661,
2026_07_06_18_18_21.580,3.832,29.9,0,0.759,0,0,0,0.017, ,0,0,0,0,0, ,-40,283.6,961,-0.1,-0.5,-1.7,25,-38.7719,282.898,960.67,-0.0680062,-0.498559,-1.5623,
2026_07_06_18_18_21.600,3.832,29.9,0,0.76,0,0,0,0.017, ,0,0,0,0,0, ,-38.4,283.8,960.8,-0.1,-0.5,-1.6,25,-38.798,282.947,960.684,-0.0699558,-0.498647,-1.56764,
2026_07_06_18_18_21.620,3.832,29.9,0,0.762,0,0,0,0.017, ,0,0,0,0,0, ,-39.5,282.9,960.5,-0.1,-0.6,-1.6,25,-38.8072,282.971,960.682,-0.0717866,-0.501776,-1.56961,
2026_07_06_18_18_21.640,3.832,30,0,0.759,0,0,0,0.017, ,0,0,0,0,0, ,-38.4,283.6,961.5,0,-0.6,-1.5,25,-38.8159,282.988,960.701,-0.070459,-0.507762,-1.56842,
2026_07_06_18_18_21.660,3.832,30,0,0.76,0,0,0,0.016, ,0,0,0,0,0, ,-39.4,282.5,959.2,0,-0.5,-1.6,25,-38.821,282.992,960.68,-0.0661654,-0.510336,-1.5673,
2026_07_06_18_18_21.680,3.832,30,0,0.759,0,0,0,0, ,0,0,0,0,0, ,-38.9,283,960.4,0,-0.5,-1.5,25,-38.8411,282.977,960.626,-0.0621335,-0.509706,-1.56624,
2026_07_06_18_18_21.699,3.832,30,0,0.759,0,0,0,0, ,0,0,0,0,0, ,-39,283,959.5,0,-0.4,-1.6,25,-38.8477,282.979,960.585,-0.0583472,-0.506068,-1.56525,
2026_07_06_18_18_21.719,3.832,30,0,0.76,0,0,0,0, ,0,0,0,0,0, ,-39.1,282.3,961.6,0,-0.5,-1.6,25,-38.8601,282.959,960.583,-0.0547917,-0.502651,-1.56737,
2026_07_06_18_18_21.739,3.832,30,0,0.76,0,0,0,0, ,0,0,0,0,0, ,-38.4,282.1,961.3,-0.1,-0.5,-1.5,25,-38.8533,282.912,960.636,-0.0544997,-0.502489,-1.56631,
2026_07_06_18_18_21.758,3.832,30.1,0,0.759,0,0,0,0, ,0,0,0,0,0, ,-37.9,282.2,962,-0.1,-0.5,-1.5,25,-38.8105,282.866,960.698,-0.0572724,-0.502338,-1.56227,
2026_07_06_18_18_21.778,3.832,30,0,0.76,0,0,0,0, ,0,0,0,0,0, ,-38.8,282.8,960.9,-0.1,-0.5,-1.6,25,-38.7824,282.844,960.744,-0.0598761,-0.502195,-1.56152,
2026_07_06_18_18_21.798,3.832,30,0,0.76,0,0,0,0, ,0,0,0,0,0, ,-38.9,283.5,960.4,-0.1,-0.5,-1.5,25,-38.7865,282.862,960.738,-0.0623211,-0.502061,-1.56082,
2026_07_06_18_18_21.818,3.832,30,0,0.759,0,0,0,0, ,0,0,0,0,0, ,-37.5,282.5,961.7,0,-0.5,-1.6,25,-38.7508,282.871,960.757,-0.0615703,-0.501936,-1.56016,
2026_07_06_18_18_21.837,3.832,30,0,0.76,0,0,0,0, ,0,0,0,0,0, ,-39.4,283.9,960.3,0,-0.5,-1.6,25,-38.7325,282.891,960.772,-0.0578184,-0.501818,-1.56259,
2026_07_06_18_18_21.857,3.832,30,0,0.759,0,0,0,0, ,0,0,0,0,0, ,-38.8,282.1,961.1,0,-0.5,-1.5,25,-38.7549,282.897,960.767,-0.0542951,-0.501707,-1.56182,
2026_07_06_18_18_21.880,3.832,30.1,0,0.759,0,0,0,0, ,0,0,0,0,0, ,-39.5,282.4,961.1,-0.1,-0.5,-1.6,25,-38.7789,282.858,960.788,-0.0540333,-0.501603,-1.5611,
2026_07_06_18_18_21.897,3.832,30,0,0.76,0,0,0,0, ,0,0,0,0,0, ,-38.6,283.2,960.9,-0.1,-0.5,-1.6,25,-38.7955,282.854,960.801,-0.0568344,-0.501505,-1.56347,
2026_07_06_18_18_21.916,3.832,30.1,0,0.759,0,0,0,0, ,0,0,0,0,0, ,-39.6,282.7,961.1,-0.2,-0.5,-1.5,25,-38.814,282.86,960.813,-0.0625117,-0.501414,-1.56265,
2026_07_06_18_18_21.936,3.832,30,0,0.76,0,0,0,0, ,0,0,0,0,0, ,-39.4,282.8,960.8,-0.1,-0.5,-1.5,25,-38.8558,282.854,960.821,-0.067843,-0.501327,-1.55883,
2026_07_06_18_18_21.956,3.832,30.2,0,0.76,0,0,0,0, ,0,0,0,0,0, ,-38.3,284.3,959.7,-0.1,-0.5,-1.5,25,-38.8555,282.896,960.786,-0.0698026,-0.501247,-1.55525,
2026_07_06_18_18_21.976,3.832,30.1,0,0.758,0,0,0,0, ,0,0,0,0,0, ,-38.5,283.5,960.5,-0.1,-0.5,-1.5,25,-38.8277,282.957,960.744,-0.0716427,-0.501171,-1.55188,
2026_07_06_18_18_21.996,3.832,30.1,0,0.76,0,0,0,0, ,0,0,0,0,0, ,-38.3,284.4,960.5,0,-0.5,-1.5,25,-38.8017,283.018,960.73,-0.0703239,-0.501099,-1.54872,
2026_07_06_18_18_22.016,3.832,30,0,0.759,0,0,0,0, ,0,0,0,0,0, ,-39.6,283.5,960.3,0,-0.5,-1.5,25,-38.8107,283.074,960.709,-0.0660385,-0.501032,-1.54575,
2026_07_06_18_18_22.035,3.832,30.1,0,0.759,0,0,0,0, ,0,0,0,0,0, ,-40.4,280.8,960.3,0,-0.5,-1.5,25,-38.8832,283.018,960.685,-0.0620143,-0.500969,-1.54296,
2026_07_06_18_18_22.055,3.832,30.1,0,0.76,0,0,0,0, ,0,0,0,0,0, ,-39.5,282.9,961.6,-0.1,-0.5,-1.6,25,-38.9482,282.947,960.701,-0.0612822,-0.50091,-1.54339,
2026_07_06_18_18_22.076,3.832,30,0,0.759,0,0,0,0, ,0,0,0,0,0, ,-39.4,282.9,961.3,0,-0.5,-1.5,25,-38.9788,282.944,960.746,-0.0605947,-0.500855,-1.54379,
2026_07_06_18_18_22.094,3.832,30.2,0,0.76,0,0,0,0, ,0,0,0,0,0, ,-37.7,283.5,960.8,-0.1,-0.6,-1.6,25,-38.9526,282.96,960.765,-0.0599491,-0.50385,-1.54417,
2026_07_06_18_18_22.114,3.832,30,0,0.759,0,0,0,0, ,0,0,0,0,0, ,-39.7,282.4,960.6,-0.1,-0.5,-1.6,25,-38.9372,282.959,960.761,-0.0623897,-0.506662,-1.54757,
2026_07_06_18_18_22.134,3.832,30.1,0,0.76,0,0,0,0, ,0,0,0,0,0, ,-39.6,283,961,-0.1,-0.5,-1.6,25,-38.9807,282.943,960.763,-0.0646815,-0.506256,-1.55077,
2026_07_06_18_18_22.154,3.832,30,0,0.759,0,0,0,0, ,0,0,0,0,0, ,-38.4,282.7,961,-0.1,-0.5,-1.6,25,-38.9818,282.938,960.778,-0.0668338,-0.505875,-1.55377,
2026_07_06_18_18_22.174,3.832,30.1,0,0.759,0,0,0,0, ,0,0,0,0,0, ,-38.5,283.8,960.9,-0.1,-0.5,-1.6,25,-38.9494,282.957,960.788,-0.0688548,-0.505517,-1.55659,
2026_07_06_18_18_22.194,3.832,30,0,0.76,0,0,0,0, ,0,0,0,0,0, ,-38.9,285,960.5,-0.1,-0.5,-1.6,25,-38.9342,283.045,960.783,-0.0707527,-0.505181,-1.55923,
2026_07_06_18_18_22.214,3.832,30,0,0.758,0,0,0,0, ,0,0,0,0,0, ,-39.6,283.2,960.8,0,-0.5,-1.5,25,-38.9535,283.109,960.775,-0.0694881,-0.504865,-1.55867,
2026_07_06_18_18_22.233,3.832,30,0,0.758,0,0,0,0, ,0,0,0,0,0, ,-38.3,283.6,961.6,0,-0.5,-1.5,25,-38.9533,283.127,960.801,-0.0652537,-0.504568,-1.55509,
2026_07_06_18_18_22.257,3.832,30,0,0.76,0,0,0,0, ,0,0,0,0,0, ,-39.9,283.6,960.6,0,-0.5,-1.6,25,-38.9622,283.155,960.819,-0.0612773,-0.50429,-1.55478,
2026_07_06_18_18_22.274,3.832,30.1,0,0.759,0,0,0,0, ,0,0,0,0,0, ,-38.6,284.5,961.3,0,-0.5,-1.6,25,-38.9797,283.21,960.827,-0.0575432,-0.504029,-1.55754,
2026_07_06_18_18_22.292,3.832,30.1,0,0.759,0,0,0,0, ,0,0,0,0,0, ,-39.4,282.5,959.8,0,-0.5,-1.6,25,-38.981,283.228,960.81,-0.0540367,-0.503783,-1.56013,
2026_07_06_18_18_22.312,3.832,30.1,0,0.761,0,0,0,0, ,0,0,0,0,0, ,-38.2,282.7,961,0,-0.5,-1.5,25,-38.97,283.189,960.785,-0.0507438,-0.503553,-1.55951,
2026_07_06_18_18_22.332,3.832,30.1,0,0.76,0,0,0,0, ,0,0,0,0,0, ,-38.4,282.1,960.9,0,-0.5,-1.6,25,-38.9291,283.141,960.795,-0.0476516,-0.503336,-1.55893,
2026_07_06_18_18_22.352,3.832,30,0,0.759,0,0,0,0, ,0,0,0,0,0, ,-39.5,282.4,960.4,-0.1,-0.5,-1.6,25,-38.9304,283.087,960.786,-0.0477947,-0.503133,-1.56143,
2026_07_06_18_18_22.372,3.832,30,0,0.759,0,0,0,0, ,0,0,0,0,0, ,-38.4,282.2,962.2,-0.1,-0.5,-1.6,25,-38.9316,283.039,960.818,-0.050976,-0.502942,-1.56378,
2026_07_06_18_18_22.391,3.832,30.1,0,0.759,0,0,0,0, ,0,0,0,0,0, ,-38.4,283.5,960,-0.1,-0.6,-1.5,25,-38.8992,283.028,960.835,-0.0539634,-0.50581,-1.56294,
2026_07_06_18_18_22.411,3.832,30,0,0.759,0,0,0,0, ,0,0,0,0,0, ,-39.1,283.4,960.8,-0.2,-0.6,-1.6,25,-38.8901,283.053,960.808,-0.0598156,-0.511549,-1.56215,
2026_07_06_18_18_22.431,3.832,30.1,0,0.758,0,0,0,0, ,0,0,0,0,0, ,-40,284.3,958.8,-0.1,-0.5,-1.5,25,-38.9303,283.102,960.747,-0.0653112,-0.513892,-1.56141,
2026_07_06_18_18_22.451,3.832,30.1,0,0.76,0,0,0,0, ,0,0,0,0,0, ,-39.7,283.9,960.9,-0.1,-0.5,-1.5,25,-38.9864,283.163,960.692,-0.0674251,-0.513046,-1.55767,
2026_07_06_18_18_22.470,3.832,30.1,0,0.759,0,0,0,0, ,0,0,0,0,0, ,-38.6,282.7,961.4,0,-0.5,-1.5,25,-38.9963,283.171,960.72,-0.0663632,-0.512251,-1.55416,
2026_07_06_18_18_22.490,3.832,30,0,0.759,0,0,0,0, ,0,0,0,0,0, ,-39.5,283.2,960.9,-0.1,-0.5,-1.6,25,-38.9996,283.158,960.746,-0.0653661,-0.511504,-1.5539,
2026_07_06_18_18_22.509,3.832,30.1,0,0.759,0,0,0,0, ,0,0,0,0,0, ,-39.4,282.3,961.1,-0.2,-0.5,-1.6,25,-39.027,283.133,960.762,-0.0705235,-0.510803,-1.55671,
2026_07_06_18_18_22.529,3.832,30.1,0,0.759,0,0,0,0, ,0,0,0,0,0, ,-39.6,282.4,961.4,-0.1,-0.5,-1.5,25,-39.0559,283.085,960.791,-0.0753666,-0.510145,-1.5563,
2026_07_06_18_18_22.549,3.832,30.1,0,0.76,0,0,0,0, ,0,0,0,0,0, ,-38.6,285.4,961,-0.2,-0.5,-1.5,25,-39.0586,283.135,960.816,-0.0799145,-0.509527,-1.55287,
2026_07_06_18_18_22.569,3.832,30.1,0,0.759,0,0,0,0, ,0,0,0,0,0, ,-38.6,283,960.3,-0.1,-0.5,-1.5,25,-39.0306,283.2,960.806,-0.0841854,-0.508946,-1.54965,
2026_07_06_18_18_22.589,3.832,30.1,0,0.76,0,0,0,0, ,0,0,0,0,0, ,-39.6,282.7,960.3,-0.1,-0.5,-1.5,25,-39.0348,283.178,960.775,-0.0851491,-0.508401,-1.54663,
2026_07_06_18_18_22.608,3.832,30.1,0,0.76,0,0,0,0, ,0,0,0,0,0, ,-39.1,283.6,960.9,-0.1,-0.5,-1.5,25,-39.054,283.177,960.765,-0.0860541,-0.507889,-1.54378,
2026_07_06_18_18_22.629,3.832,30.1,0,0.759,0,0,0,0, ,0,0,0,0,0, ,-39.3,284.3,960.6,0,-0.5,-1.5,25,-39.0629,283.224,960.764,-0.083857,-0.507408,-1.54112,
2026_07_06_18_18_22.649,3.832,30.1,0,0.759,0,0,0,0, ,0,0,0,0,0, ,-38.6,282.8,960.2,0,-0.5,-1.5,25,-39.0561,283.244,960.742,-0.078747,-0.506957,-1.53861,
2026_07_06_18_18_22.668,3.832,30.1,0,0.76,0,0,0,0, ,0,0,0,0,0, ,-38.9,284.3,960.6,0,-0.5,-1.6,25,-39.0374,283.262,960.721,-0.0739483,-0.506533,-1.5393,
2026_07_06_18_18_22.688,3.832,30,0,0.759,0,0,0,0, ,0,0,0,0,0, ,-38.3,281.1,959.7,0,-0.5,-1.6,25,-39.0108,283.228,960.686,-0.0694421,-0.506135,-1.543,
2026_07_06_18_18_22.707,3.832,30.1,0,0.759,0,0,0,0, ,0,0,0,0,0, ,-39.3,282.2,960.8,0,-0.5,-1.5,25,-38.9979,283.132,960.659,-0.0652105,-0.505761,-1.54343,
2026_07_06_18_18_22.727,3.832,30.1,0,0.759,0,0,0,0, ,0,0,0,0,0, ,-38,283.2,961.4,0,-0.5,-1.5,25,-38.9767,283.106,960.686,-0.0612367,-0.50541,-1.54078,
2026_07_06_18_18_22.747,3.832,30,0,0.759,0,0,0,0, ,0,0,0,0,0, ,-39.3,282.1,960.9,-0.1,-0.5,-1.6,25,-38.9568,283.078,960.715,-0.060552,-0.50508,-1.54134,
2026_07_06_18_18_22.767,3.832,30.1,0,0.76,0,0,0,0, ,0,0,0,0,0, ,-38.4,281.9,961.4,-0.1,-0.5,-1.6,25,-38.9503,283.012,960.741,-0.0629558,-0.504771,-1.54492,
2026_07_06_18_18_22.786,3.832,30,0,0.76,0,0,0,0, ,0,0,0,0,0, ,-37.8,283,960.9,-0.2,-0.5,-1.5,25,-38.8985,282.978,960.766,-0.0682601,-0.50448,-1.54523,
2026_07_06_18_18_22.807,3.832,30.1,0,0.759,0,0,0,0, ,0,0,0,0,0, ,-39.1,284,961.9,-0.1,-0.5,-1.6,25,-38.8711,283.01,960.805,-0.0732411,-0.504207,-1.54552,
2026_07_06_18_18_22.827,3.832,30.1,0,0.758,0,0,0,0, ,0,0,0,0,0, ,-38.6,283.8,960.5,-0.2,-0.5,-1.6,25,-38.8699,283.064,960.829,-0.0779186,-0.503951,-1.54884,
2026_07_06_18_18_22.846,3.832,30,0,0.759,0,0,0,0, ,0,0,0,0,0, ,-39.7,283.2,961.1,-0.1,-0.6,-1.5,25,-38.8869,283.09,960.827,-0.0823111,-0.506757,-1.54891,
2026_07_06_18_18_22.866,3.832,30,0,0.759,0,0,0,0, ,0,0,0,0,0, ,-39,283.6,961.3,-0.1,-0.5,-1.6,25,-38.9152,283.109,960.85,-0.083389,-0.509392,-1.54898,
2026_07_06_18_18_22.886,3.832,30.1,0,0.759,0,0,0,0, ,0,0,0,0,0, ,-39.4,283.9,960.5,0,-0.5,-1.6,25,-38.9325,283.148,960.853,-0.0813544,-0.50882,-1.55209,
2026_07_06_18_18_22.905,3.832,30.1,0,0.759,0,0,0,0, ,0,0,0,0,0, ,-39.3,281.8,959.9,0,-0.5,-1.5,25,-38.9579,283.13,960.813,-0.0763968,-0.508282,-1.55196,
2026_07_06_18_18_22.925,3.832,30,0,0.759,0,0,0,0, ,0,0,0,0,0, ,-39.4,281.9,959.8,0,-0.5,-1.6,25,-38.9818,283.052,960.754,-0.0717414,-0.507777,-1.55184,
2026_07_06_18_18_22.945,3.832,30.1,0,0.76,0,0,0,0, ,0,0,0,0,0, ,-38.4,282.9,960,0,-0.5,-1.6,25,-38.9769,283.012,960.702,-0.0673696,-0.507303,-1.55477,
2026_07_06_18_18_22.965,3.832,30,0,0.759,0,0,0,0, ,0,0,0,0,0, ,-39,282.5,961.5,0,-0.5,-1.6,25,-38.96,282.993,960.705,-0.0632643,-0.506858,-1.55753,
2026_07_06_18_18_22.984,3.832,30,0,0.76,0,0,0,0, ,0,0,0,0,0, ,-37.8,282.5,959.9,-0.2,-0.5,-1.5,25,-38.9259,282.963,960.705,-0.0655029,-0.506441,-1.55707,
2026_07_06_18_18_23.005,3.832,30.1,0,0.759,0,0,0,0, ,0,0,0,0,0, ,-38.6,282.4,962,-0.1,-0.5,-1.6,25,-38.8816,282.932,960.72,-0.0706519,-0.506048,-1.55664,
2026_07_06_18_18_23.024,3.832,30,0,0.759,0,0,0,0, ,0,0,0,0,0, ,-39.5,282.5,961.1,-0.1,-0.5,-1.6,25,-38.8919,282.903,960.77,-0.0724403,-0.505679,-1.55928,
2026_07_06_18_18_23.047,3.832,30.1,0,0.759,0,0,0,0, ,0,0,0,0,0, ,-38.4,283.4,961.1,-0.1,-0.5,-1.5,25,-38.8954,282.906,960.79,-0.0741197,-0.505333,-1.55872,
2026_07_06_18_18_23.064,3.832,30.1,0,0.76,0,0,0,0, ,0,0,0,0,0, ,-37.9,282.2,960.8,-0.1,-0.5,-1.6,25,-38.85,282.899,960.8,-0.0756968,-0.505008,-1.55819,
2026_07_06_18_18_23.083,3.832,30,0,0.76,0,0,0,0, ,0,0,0,0,0, ,-39.6,284.4,960.2,-0.1,-0.5,-1.5,25,-38.8439,282.924,960.782,-0.0771778,-0.504703,-1.55769,
2026_07_06_18_18_23.103,3.832,30.1,0,0.759,0,0,0,0, ,0,0,0,0,0, ,-39.4,283.6,961.6,0,-0.6,-1.6,25,-38.8839,282.989,960.789,-0.0755217,-0.507463,-1.55722,
2026_07_06_18_18_23.124,3.832,30.1,0,0.759,0,0,0,0, ,0,0,0,0,0, ,-38,284.9,961,-0.1,-0.5,-1.6,25,-38.8727,283.066,960.82,-0.0739664,-0.510056,-1.55983,
2026_07_06_18_18_23.143,3.832,30.1,0,0.758,0,0,0,0, ,0,0,0,0,0, ,-38.5,280.6,960.9,-0.1,-0.5,-1.6,25,-38.8347,283.047,960.828,-0.0755528,-0.509443,-1.56227,
2026_07_06_18_18_23.163,3.832,30.1,0,0.759,0,0,0,0, ,0,0,0,0,0, ,-39,285,961.3,-0.1,-0.5,-1.6,25,-38.8296,283.032,960.845,-0.0770426,-0.508867,-1.56457,
2026_07_06_18_18_23.182,3.832,30.1,0,0.759,0,0,0,0, ,0,0,0,0,0, ,-39.6,284.3,960.3,-0.2,-0.5,-1.6,25,-38.8582,283.13,960.842,-0.0814884,-0.508327,-1.56673,
2026_07_06_18_18_23.202,3.832,30.1,0,0.761,0,0,0,0, ,0,0,0,0,0, ,-40.2,283.4,961,0,-0.5,-1.5,25,-38.9217,283.174,960.83,-0.0826165,-0.50782,-1.56571,
2026_07_06_18_18_23.221,3.832,30,0,0.76,0,0,0,0, ,0,0,0,0,0, ,-39.3,283.8,960.5,0,-0.5,-1.5,25,-38.9722,283.2,960.825,-0.077582,-0.507343,-1.56171,
2026_07_06_18_18_23.247,3.832,30,0,0.76,0,0,0,0, ,0,0,0,0,0, ,-38.8,283.4,961.9,-0.1,-0.5,-1.6,25,-38.9769,283.224,960.848,-0.0759013,-0.506896,-1.56099,
2026_07_06_18_18_23.263,3.832,30,0,0.76,0,0,0,0, ,0,0,0,0,0, ,-39.1,283.2,959.4,0,-0.5,-1.6,25,-38.9753,283.229,960.836,-0.0743229,-0.506475,-1.56337,
2026_07_06_18_18_23.281,3.832,30.1,0,0.76,0,0,0,0, ,0,0,0,0,0, ,-38.5,283,960.5,0,-0.5,-1.5,25,-38.9646,283.221,960.782,-0.0697939,-0.506081,-1.56256,
2026_07_06_18_18_23.301,3.832,30,0,0.76,0,0,0,0, ,0,0,0,0,0, ,-39.7,282.7,960.6,0,-0.5,-1.6,25,-38.9729,283.199,960.768,-0.0655408,-0.50571,-1.56179,
2026_07_06_18_18_23.321,3.832,30,0,0.758,0,0,0,0, ,0,0,0,0,0, ,-39.7,282.7,960.6,0,-0.5,-1.5,25,-39.0172,283.168,960.758,-0.0615469,-0.505362,-1.56107,
2026_07_06_18_18_23.341,3.832,30.1,0,0.76,0,0,0,0, ,0,0,0,0,0, ,-39.1,283.2,960,-0.1,-0.5,-1.5,25,-39.0405,283.155,960.73,-0.0608433,-0.505036,-1.55735,
2026_07_06_18_18_23.361,3.832,30.1,0,0.759,0,0,0,0, ,0,0,0,0,0, ,-39.7,283.9,960.2,-0.1,-0.5,-1.6,25,-39.0624,283.179,960.691,-0.0632294,-0.504729,-1.5569,
2026_07_06_18_18_23.380,3.832,30.1,0,0.758,0,0,0,0, ,0,0,0,0,0, ,-38.5,283.2,961.1,-0.1,-0.5,-1.5,25,-39.0647,283.202,960.689,-0.0654701,-0.504441,-1.55648,
2026_07_06_18_18_23.400,3.832,30,0,0.759,0,0,0,0, ,0,0,0,0,0, ,-38.9,282.1,961,-0.2,-0.6,-1.6,25,-39.0425,283.168,960.711,-0.0706211,-0.507217,-1.55609,
2026_07_06_18_18_23.420,3.832,30.1,0,0.76,0,0,0,0, ,0,0,0,0,0, ,-38.5,283.6,962.2,-0.1,-0.5,-1.5,25,-39.0216,283.149,960.765,-0.0754583,-0.509824,-1.55572,
2026_07_06_18_18_23.440,3.832,30.1,0,0.758,0,0,0,0, ,0,0,0,0,0, ,-39.6,283.4,961.5,-0.1,-0.6,-1.5,25,-39.0233,283.17,960.831,-0.0769538,-0.512272,-1.55232,
2026_07_06_18_18_23.464,3.832,30,0,0.76,0,0,0,0, ,0,0,0,0,0, ,-38.2,284.5,960.6,0,-0.5,-1.6,25,-39.0158,283.218,960.845,-0.0753113,-0.514571,-1.55218,
2026_07_06_18_18_23.479,3.832,30.1,0,0.758,0,0,0,0, ,0,0,0,0,0, ,-39.4,283.4,961,0,-0.5,-1.5,25,-39.0027,283.262,960.842,-0.070722,-0.513683,-1.55205,
2026_07_06_18_18_23.499,3.832,30,0,0.759,0,0,0,0, ,0,0,0,0,0, ,-40,281.8,960.4,0,-0.5,-1.6,25,-39.0452,283.222,960.833,-0.0664124,-0.512849,-1.55192,
2026_07_06_18_18_23.518,3.832,30,0,0.76,0,0,0,0, ,0,0,0,0,0, ,-38.6,284,961.5,0,-0.5,-1.5,25,-39.0607,283.202,960.84,-0.0623654,-0.512066,-1.55181,
2026_07_06_18_18_23.539,3.832,30.1,0,0.758,0,0,0,0, ,0,0,0,0,0, ,-39.1,282.3,960.8,0,-0.6,-1.6,25,-39.0479,283.199,960.859,-0.058565,-0.514378,-1.5517,
2026_07_06_18_18_23.560,3.832,30.1,0,0.761,0,0,0,0, ,0,0,0,0,0, ,-39.1,282.1,959.7,0,-0.5,-1.6,25,-39.051,283.138,960.822,-0.0549962,-0.516549,-1.55464,
2026_07_06_18_18_23.578,3.832,30.1,0,0.758,0,0,0,0, ,0,0,0,0,0, ,-39.6,282.7,959.4,0,-0.6,-1.6,25,-39.0692,283.093,960.745,-0.0516449,-0.518587,-1.5574,
2026_07_06_18_18_23.598,3.832,30.1,0,0.759,0,0,0,0, ,0,0,0,0,0, ,-39.1,282.7,962.1,-0.1,-0.5,-1.6,25,-39.0864,283.069,960.745,-0.0515446,-0.520501,-1.56,
2026_07_06_18_18_23.617,3.832,30,0,0.759,0,0,0,0, ,0,0,0,0,0, ,-39.3,284.1,961.1,0,-0.5,-1.6,25,-39.0933,283.089,960.797,-0.0514505,-0.519252,-1.56244,
2026_07_06_18_18_23.637,3.832,30,0,0.759,0,0,0,0, ,0,0,0,0,0, ,-38.2,283,961.1,-0.1,-0.4,-1.6,25,-39.0724,283.117,960.815,-0.0513621,-0.515032,-1.56473,
2026_07_06_18_18_23.658,3.832,30,0,0.76,0,0,0,0, ,0,0,0,0,0, ,-39,283.6,961.6,-0.1,-0.5,-1.5,25,-39.0436,283.129,960.848,-0.054326,-0.511069,-1.56383,
2026_07_06_18_18_23.678,3.832,30,0,0.759,0,0,0,0, ,0,0,0,0,0, ,-38.8,283.4,959.8,-0.1,-0.5,-1.5,25,-39.0348,283.151,960.839,-0.0571092,-0.510395,-1.55994,
2026_07_06_18_18_23.697,3.832,30,0,0.759,0,0,0,0, ,0,0,0,0,0, ,-38.6,284.3,960.8,-0.1,-0.5,-1.5,25,-39.0144,283.194,960.806,-0.0597229,-0.509761,-1.55629,
2026_07_06_18_18_23.717,3.832,30,0,0.759,0,0,0,0, ,0,0,0,0,0, ,-38.4,283.4,961.4,0,-0.5,-1.6,25,-38.9831,283.234,960.824,-0.0591304,-0.509166,-1.5559,
2026_07_06_18_18_23.736,3.832,30.1,0,0.759,0,0,0,0, ,0,0,0,0,0, ,-37.9,283.2,961.4,-0.1,-0.5,-1.5,25,-38.9323,283.238,960.859,-0.058574,-0.508608,-1.55554,
2026_07_06_18_18_23.756,3.832,30.1,0,0.759,0,0,0,0, ,0,0,0,0,0, ,-38,283.6,961.1,0,-0.5,-1.6,25,-38.8725,283.248,960.883,-0.0580515,-0.508083,-1.55521,
2026_07_06_18_18_23.776,3.832,30,0,0.76,0,0,0,0, ,0,0,0,0,0, ,-38.3,282.3,959.2,0,-0.6,-1.6,25,-38.8284,283.23,960.838,-0.054514,-0.510638,-1.55794,
2026_07_06_18_18_23.795,3.832,30.1,0,0.761,0,0,0,0, ,0,0,0,0,0, ,-38,283,961.6,-0.1,-0.5,-1.6,25,-38.7871,283.194,960.812,-0.054239,-0.513036,-1.5605,
2026_07_06_18_18_23.815,3.832,30,0,0.76,0,0,0,0, ,0,0,0,0,0, ,-38.9,284.4,961,-0.1,-0.5,-1.6,25,-38.7665,283.225,960.841,-0.0570275,-0.512242,-1.56291,
2026_07_06_18_18_23.835,3.832,30.1,0,0.759,0,0,0,0, ,0,0,0,0,0, ,-39.1,283.8,959.7,-0.1,-0.5,-1.5,25,-38.7808,283.278,960.811,-0.0596462,-0.511496,-1.56212,
2026_07_06_18_18_23.855,3.832,30,0,0.759,0,0,0,0, ,0,0,0,0,0, ,-38,283.4,961.6,-0.1,-0.5,-1.5,25,-38.7667,283.298,960.802,-0.0621052,-0.510795,-1.55833,
2026_07_06_18_18_23.875,3.832,30.1,0,0.759,0,0,0,0, ,0,0,0,0,0, ,-37.8,282.8,961.1,0,-0.5,-1.6,25,-38.7139,283.286,960.835,-0.0613676,-0.510137,-1.55783,
2026_07_06_18_18_23.895,3.832,30.1,0,0.759,0,0,0,0, ,0,0,0,0,0, ,-38.5,283.8,960.9,-0.1,-0.5,-1.5,25,-38.6795,283.287,960.845,-0.0606748,-0.50952,-1.55735,
2026_07_06_18_18_23.916,3.832,30,0,0.759,0,0,0,0, ,0,0,0,0,0, ,-40.5,282.5,960.2,0,-0.5,-1.6,25,-38.7295,283.278,960.827,-0.0600243,-0.50894,-1.5569,
2026_07_06_18_18_23.935,3.832,30,0,0.758,0,0,0,0, ,0,0,0,0,0, ,-39,282.7,960.9,0,-0.5,-1.6,25,-38.7917,283.237,960.81,-0.0563666,-0.508395,-1.55953,
2026_07_06_18_18_23.954,3.832,30,0,0.761,0,0,0,0, ,0,0,0,0,0, ,-38,282.3,960.2,0,-0.5,-1.5,25,-38.7739,283.192,960.794,-0.0529318,-0.507883,-1.55895,
2026_07_06_18_18_23.975,3.832,30.1,0,0.76,0,0,0,0, ,0,0,0,0,0, ,-39,282.4,962.4,-0.1,-0.5,-1.5,25,-38.7572,283.141,960.825,-0.0527531,-0.507403,-1.55535,
2026_07_06_18_18_23.994,3.832,29.9,0,0.758,0,0,0,0, ,0,0,0,0,0, ,-39.5,282.8,960.4,-0.1,-0.5,-1.5,25,-38.7873,283.108,960.86,-0.0556322,-0.506952,-1.55198,
2026_07_06_18_18_24.014,3.832,30,0,0.759,0,0,0,0, ,0,0,0,0,0, ,-38.2,283.3,962.5,-0.1,-0.5,-1.5,25,-38.7911,283.104,960.896,-0.0583359,-0.506528,-1.54881,
2026_07_06_18_18_24.033,3.832,30,0,0.759,0,0,0,0, ,0,0,0,0,0, ,-38.3,283.3,959.9,0,-0.5,-1.5,25,-38.7581,283.116,960.915,-0.0578279,-0.50613,-1.54584,
2026_07_06_18_18_24.054,3.832,30,0,0.76,0,0,0,0, ,0,0,0,0,0, ,-39.6,283.5,961.7,-0.2,-0.5,-1.5,25,-38.7698,283.134,960.908,-0.0603978,-0.505757,-1.54305,
2026_07_06_18_18_24.073,3.832,30.1,0,0.76,0,0,0,0, ,0,0,0,0,0, ,-38.3,283.8,961,-0.1,-0.5,-1.5,25,-38.7808,283.165,960.935,-0.0658579,-0.505406,-1.54042,
2026_07_06_18_18_24.092,3.832,30,0,0.759,0,0,0,0, ,0,0,0,0,0, ,-38.9,282.5,960.8,0,-0.5,-1.6,25,-38.7698,283.164,960.933,-0.0648916,-0.505077,-1.54101,
2026_07_06_18_18_24.112,3.832,30,0,0.761,0,0,0,0, ,0,0,0,0,0, ,-37.8,285.2,961.7,-0.1,-0.5,-1.6,25,-38.7442,283.206,960.952,-0.0639841,-0.504767,-1.5446,
2026_07_06_18_18_24.133,3.832,30.1,0,0.759,0,0,0,0, ,0,0,0,0,0, ,-38.5,284.7,962.8,-0.1,-0.5,-1.5,25,-38.708,283.312,961.031,-0.0661788,-0.504477,-1.54493,
2026_07_06_18_18_24.152,3.832,30,0,0.759,0,0,0,0, ,0,0,0,0,0, ,-39,284.1,961,0,-0.5,-1.6,25,-38.7105,283.378,961.084,-0.0651929,-0.504204,-1.54524,
2026_07_06_18_18_24.172,3.832,30,0,0.758,0,0,0,0, ,0,0,0,0,0, ,-40,282.2,960.2,0,-0.5,-1.5,25,-38.7587,283.365,961.054,-0.0612202,-0.503948,-1.54553,
2026_07_06_18_18_24.192,3.832,30,0,0.761,0,0,0,0, ,0,0,0,0,0, ,-38.4,282.8,961.4,0,-0.6,-1.6,25,-38.7855,283.312,961.039,-0.0574896,-0.506754,-1.5458,
2026_07_06_18_18_24.212,3.832,29.9,0,0.76,0,0,0,0, ,0,0,0,0,0, ,-38.8,283.3,959.5,0,-0.5,-1.6,25,-38.7742,283.296,961.003,-0.0539864,-0.509389,-1.5491,
2026_07_06_18_18_24.231,3.832,30.1,0,0.761,0,0,0,0, ,0,0,0,0,0, ,-38.9,283,960.6,-0.1,-0.5,-1.6,25,-38.7789,283.287,960.945,-0.0537434,-0.508817,-1.55221,
2026_07_06_18_18_24.251,3.832,30.1,0,0.759,0,0,0,0, ,0,0,0,0,0, ,-38,283.5,961.9,-0.1,-0.5,-1.5,25,-38.7588,283.285,960.964,-0.0565622,-0.50828,-1.55207,
2026_07_06_18_18_24.271,3.832,30,0,0.76,0,0,0,0, ,0,0,0,0,0, ,-38.5,282.1,960.5,0,-0.5,-1.4,25,-38.7278,283.255,960.978,-0.0561623,-0.507775,-1.54585,
2026_07_06_18_18_24.291,3.832,30.1,0,0.758,0,0,0,0, ,0,0,0,0,0, ,-37.4,283,961.6,-0.2,-0.5,-1.5,25,-38.6804,283.212,960.982,-0.0588337,-0.507302,-1.54001,
2026_07_06_18_18_24.310,3.832,29.9,0,0.759,0,0,0,0, ,0,0,0,0,0, ,-37.9,284.1,960.5,-0.2,-0.5,-1.5,25,-38.6176,283.233,960.986,-0.067436,-0.506857,-1.53757,
2026_07_06_18_18_24.330,3.832,30,0,0.76,0,0,0,0, ,0,0,0,0,0, ,-39.5,284.4,960.5,-0.1,-0.5,-1.6,25,-38.6226,283.295,960.957,-0.0724672,-0.506439,-1.53833,
2026_07_06_18_18_24.350,3.832,30,0,0.761,0,0,0,0, ,0,0,0,0,0, ,-37.1,282.9,961.9,-0.1,-0.4,-1.6,25,-38.603,283.316,960.972,-0.074145,-0.503,-1.54209,
2026_07_06_18_18_24.370,3.832,30,0,0.759,0,0,0,0, ,0,0,0,0,0, ,-38.8,283.2,962.2,-0.2,-0.5,-1.6,25,-38.5632,283.3,961.037,-0.0787674,-0.49977,-1.54562,
2026_07_06_18_18_24.389,3.832,30,0,0.76,0,0,0,0, ,0,0,0,0,0, ,-38.5,284.9,960.6,-0.1,-0.5,-1.5,25,-38.5685,283.346,961.059,-0.0831082,-0.499784,-1.54588,
2026_07_06_18_18_24.409,3.832,30,0,0.76,0,0,0,0, ,0,0,0,0,0, ,-39.1,284.1,960.9,0,-0.5,-1.6,25,-38.5826,283.416,961.041,-0.0810906,-0.499797,-1.54613,
2026_07_06_18_18_24.429,3.832,30,0,0.76,0,0,0,0, ,0,0,0,0,0, ,-39.1,284.4,959.8,-0.1,-0.5,-1.6,25,-38.6141,283.467,960.999,-0.0791961,-0.499809,-1.54942,
2026_07_06_18_18_24.448,3.832,30,0,0.76,0,0,0,0, ,0,0,0,0,0, ,-39.3,282.9,961.3,-0.2,-0.5,-1.5,25,-38.6498,283.478,960.971,-0.0835107,-0.499821,-1.54945,
2026_07_06_18_18_24.469,3.832,30,0,0.76,0,0,0,0, ,0,0,0,0,0, ,-39.7,282.2,961.7,-0.1,-0.5,-1.6,25,-38.7016,283.422,961.003,-0.0875624,-0.499832,-1.54949,
2026_07_06_18_18_24.489,3.832,30,0,0.759,0,0,0,0, ,0,0,0,0,0, ,-38.9,285.1,960.3,-0.2,-0.5,-1.6,25,-38.7381,283.436,961.003,-0.0913672,-0.499842,-1.55256,
2026_07_06_18_18_24.508,3.832,30,0,0.759,0,0,0,0, ,0,0,0,0,0, ,-38.5,284.4,960.2,-0.2,-0.5,-1.5,25,-38.7358,283.516,960.957,-0.097987,-0.499852,-1.55241,
2026_07_06_18_18_24.528,3.832,29.9,0,0.759,0,0,0,0, ,0,0,0,0,0, ,-39.6,283,960.8,0,-0.6,-1.5,25,-38.7549,283.527,960.929,-0.0981096,-0.502908,-1.54921,
2026_07_06_18_18_24.547,3.832,30,0,0.759,0,0,0,0, ,0,0,0,0,0, ,-38.5,283.4,961.1,0,-0.5,-1.4,25,-38.7729,283.507,960.931,-0.0921311,-0.505777,-1.54317,
2026_07_06_18_18_24.568,3.832,29.9,0,0.758,0,0,0,0, ,0,0,0,0,0, ,-37.8,283.2,961.1,0,-0.5,-1.5,25,-38.7349,283.494,960.941,-0.0865168,-0.505425,-1.53749,
2026_07_06_18_18_24.588,3.832,29.9,0,0.76,0,0,0,0, ,0,0,0,0,0, ,-37.3,283.5,961.1,0,-0.5,-1.5,25,-38.6627,283.486,960.951,-0.0812447,-0.505095,-1.53521,
2026_07_06_18_18_24.609,3.832,30,0,0.76,0,0,0,0, ,0,0,0,0,0, ,-39.3,282.8,962.1,0,-0.5,-1.6,25,-38.6406,283.465,960.99,-0.0762939,-0.504784,-1.53611,
2026_07_06_18_18_24.630,3.832,30,0,0.76,0,0,0,0, ,0,0,0,0,0, ,-38.6,282.5,961.4,0,-0.5,-1.5,25,-38.6595,283.415,961.037,-0.0716447,-0.504493,-1.53695,
2026_07_06_18_18_24.654,3.832,30,0,0.759,0,0,0,0, ,0,0,0,0,0, ,-39.3,282.8,962.1,0,-0.5,-1.5,25,-38.6772,283.369,961.08,-0.0672789,-0.504219,-1.5347,
2026_07_06_18_18_24.666,3.832,29.9,0,0.758,0,0,0,0, ,0,0,0,0,0, ,-38.6,282.9,959.3,0,-0.5,-1.5,25,-38.6938,283.337,961.057,-0.0631791,-0.503962,-1.53259,
2026_07_06_18_18_24.686,3.832,29.9,0,0.759,0,0,0,0, ,0,0,0,0,0, ,-38.6,283.4,961.5,0,-0.5,-1.5,25,-38.6881,283.326,961.017,-0.0593291,-0.50372,-1.5306,
2026_07_06_18_18_24.706,3.832,29.9,0,0.759,0,0,0,0, ,0,0,0,0,0, ,-38,283.8,961.1,-0.2,-0.5,-1.6,25,-38.6644,283.342,961.034,-0.0618075,-0.503494,-1.53178,
2026_07_06_18_18_24.726,3.832,30,0,0.759,0,0,0,0, ,0,0,0,0,0, ,-39.1,283.4,962,-0.1,-0.5,-1.5,25,-38.6575,283.358,961.066,-0.0671817,-0.503281,-1.53289,
2026_07_06_18_18_24.745,3.832,30,0,0.758,0,0,0,0, ,0,0,0,0,0, ,-38.9,284.5,961.3,-0.2,-0.5,-1.6,25,-38.6783,283.394,961.101,-0.0722284,-0.503081,-1.53394,
2026_07_06_18_18_24.766,3.832,29.9,0,0.759,0,0,0,0, ,0,0,0,0,0, ,-38.6,283.5,962.2,-0.1,-0.4,-1.5,25,-38.6827,283.431,961.141,-0.0769676,-0.499846,-1.53492,
2026_07_06_18_18_24.785,3.832,29.9,0,0.759,0,0,0,0, ,0,0,0,0,0, ,-39.5,284.3,961,0,-0.5,-1.5,25,-38.7051,283.46,961.169,-0.0753243,-0.496809,-1.53279,
2026_07_06_18_18_24.807,3.832,29.9,0,0.758,0,0,0,0, ,0,0,0,0,0, ,-39,283.2,960.9,-0.1,-0.5,-1.6,25,-38.7383,283.477,961.155,-0.0737811,-0.497003,-1.53384,
2026_07_06_18_18_24.825,3.832,30,0,0.759,0,0,0,0, ,0,0,0,0,0, ,-39.4,283.8,961.1,-0.1,-0.5,-1.5,25,-38.7664,283.479,961.146,-0.0753788,-0.497186,-1.53482,
2026_07_06_18_18_24.845,3.832,29.9,0,0.758,0,0,0,0, ,0,0,0,0,0, ,-40.1,283.2,960.5,0,-0.5,-1.6,25,-38.8264,283.48,961.125,-0.0738323,-0.497357,-1.53575,
2026_07_06_18_18_24.864,3.832,29.8,0,0.759,0,0,0,0, ,0,0,0,0,0, ,-40,283.3,961,0,-0.5,-1.5,25,-38.9009,283.466,961.102,-0.0693331,-0.497518,-1.53662,
2026_07_06_18_18_24.884,3.832,29.9,0,0.76,0,0,0,0.001, ,0,0,0,0,0, ,-39.5,282.5,960.3,0,-0.5,-1.6,25,-38.9527,283.432,961.074,-0.0651082,-0.49767,-1.53743,
2026_07_06_18_18_24.903,3.832,30.1,0,0.759,0,0,0,0, ,0,0,0,0,0, ,-37.7,282.9,960,0,-0.5,-1.4,25,-38.9312,283.387,961.018,-0.0611406,-0.497812,-1.53515,
2026_07_06_18_18_24.924,3.832,29.9,0,0.757,0,0,0,0, ,0,0,0,0,0, ,-38.3,283.3,960.6,0,-0.5,-1.6,25,-38.8744,283.369,960.974,-0.0574149,-0.497945,-1.53301,
2026_07_06_18_18_24.943,3.832,30,0,0.758,0,0,0,0, ,0,0,0,0,0, ,-38.9,283.5,960.9,0,-0.5,-1.6,25,-38.8577,283.371,960.961,-0.0539162,-0.49807,-1.53709,
2026_07_06_18_18_24.963,3.832,30,0,0.759,0,0,0,0, ,0,0,0,0,0, ,-39.9,282.7,961,-0.1,-0.4,-1.5,25,-38.8908,283.355,960.96,-0.0536775,-0.495141,-1.53788,
2026_07_06_18_18_24.983,3.832,29.9,0,0.758,0,0,0,0, ,0,0,0,0,0, ,-38.9,281.9,959.8,-0.1,-0.5,-1.5,25,-38.9218,283.291,960.926,-0.0565003,-0.49239,-1.53557,
2026_07_06_18_18_25.003,3.832,29.9,0,0.758,0,0,0,0, ,0,0,0,0,0, ,-37.7,282.1,961.3,-0.1,-0.5,-1.6,25,-38.8839,283.212,960.903,-0.0591511,-0.492854,-1.53645,
2026_07_06_18_18_25.022,3.832,29.9,0,0.759,0,0,0,0, ,0,0,0,0,0, ,-40,281.9,960,-0.1,-0.5,-1.5,25,-38.8818,283.138,960.888,-0.0616403,-0.493289,-1.53727,
2026_07_06_18_18_25.052,3.832,29.9,0,0.76,0,0,0,0, ,0,0,0,0,0, ,-39,283.2,962.1,-0.2,-0.5,-1.5,25,-38.9195,283.102,960.897,-0.0670247,-0.493698,-1.535,
2026_07_06_18_18_25.068,3.832,29.9,0,0.759,0,0,0,0, ,0,0,0,0,0, ,-39.1,283.2,960.9,-0.2,-0.5,-1.6,25,-38.9275,283.108,960.934,-0.0751279,-0.494082,-1.53592,
2026_07_06_18_18_25.096,3.832,30,0,0.761,0,0,0,0, ,0,0,0,0,0, ,-39.4,283.4,960.6,-0.2,-0.4,-1.6,25,-38.9471,283.12,960.923,-0.0827373,-0.491396,-1.53982,
2026_07_06_18_18_25.102,3.832,29.9,0,0.76,0,0,0,0, ,0,0,0,0,0, ,-40,283.4,960,-0.1,-0.5,-1.6,25,-38.993,283.137,960.885,-0.0868361,-0.488873,-1.54349,
2026_07_06_18_18_25.125,3.832,29.9,0,0.758,0,0,0,0, ,0,0,0,0,0, ,-39.4,282.5,960,0,-0.5,-1.6,25,-39.0361,283.126,960.831,-0.0845914,-0.489551,-1.54693,
2026_07_06_18_18_25.142,3.832,30,0,0.758,0,0,0,0, ,0,0,0,0,0, ,-39.9,281.8,960.8,-0.1,-0.6,-1.5,25,-39.0735,283.066,960.805,-0.0824835,-0.493235,-1.54712,
2026_07_06_18_18_25.162,3.832,29.9,0,0.757,0,0,0,0, ,0,0,0,0,0, ,-38.3,280.7,960,-0.2,-0.5,-1.5,25,-39.0751,282.955,960.78,-0.0865978,-0.496694,-1.54425,
2026_07_06_18_18_25.181,3.832,29.8,0,0.758,0,0,0,0, ,0,0,0,0,0, ,-38.9,282.7,960.9,-0.2,-0.6,-1.6,25,-39.0462,282.879,960.76,-0.0935082,-0.499942,-1.5446,
2026_07_06_18_18_25.201,3.832,30,0,0.759,0,0,0,0.001, ,0,0,0,0,0, ,-38.6,282.7,960.8,-0.1,-0.5,-1.6,25,-39.0281,282.868,960.765,-0.0969507,-0.502993,-1.54797,
2026_07_06_18_18_25.226,3.832,29.8,0,0.759,0,0,0,0, ,0,0,0,0,0, ,-38.9,283.4,960.5,-0.1,-0.5,-1.6,25,-39.0112,282.879,960.758,-0.0971365,-0.50281,-1.55114,
2026_07_06_18_18_25.248,3.832,29.9,0,0.759,0,0,0,0.001, ,0,0,0,0,0, ,-38.9,283.3,960.4,-0.2,-0.5,-1.5,25,-39.0044,282.908,960.74,-0.100358,-0.502639,-1.55108,
2026_07_06_18_18_25.260,3.832,29.9,0,0.759,0,0,0,0, ,0,0,0,0,0, ,-39.9,284,959.4,-0.1,-0.4,-1.5,25,-39.0285,282.953,960.688,-0.103383,-0.499432,-1.54796,
2026_07_06_18_18_25.280,3.832,29.9,0,0.758,0,0,0,0, ,0,0,0,0,0, ,-39.6,284.7,960.4,0,-0.6,-1.6,25,-39.0725,283.038,960.64,-0.10013,-0.499466,-1.54809,
2026_07_06_18_18_25.299,3.832,29.8,0,0.758,0,0,0,0, ,0,0,0,0,0, ,-38.2,284.9,960.4,-0.1,-0.5,-1.5,25,-39.0619,283.146,960.626,-0.0970751,-0.502546,-1.5482,
2026_07_06_18_18_25.319,3.832,29.9,0,0.759,0,0,0,0.001, ,0,0,0,0,0, ,-39.6,283.4,960.9,0,-0.5,-1.6,25,-39.0521,283.207,960.627,-0.0942065,-0.50239,-1.54831,
2026_07_06_18_18_25.339,3.832,29.9,0,0.758,0,0,0,0, ,0,0,0,0,0, ,-38.5,283,961.1,0,-0.5,-1.5,25,-39.052,283.206,960.65,-0.0884658,-0.502245,-1.54842,
2026_07_06_18_18_25.361,3.832,29.8,0,0.759,0,0,0,0, ,0,0,0,0,0, ,-38.6,283,960.9,0,-0.5,-1.5,25,-39.0214,283.194,960.671,-0.0830749,-0.502108,-1.54547,
2026_07_06_18_18_25.378,3.832,29.8,0,0.76,0,0,0,0.001, ,0,0,0,0,0, ,-39,282.7,960.5,0,-0.5,-1.6,25,-39.0079,283.173,960.673,-0.0780125,-0.50198,-1.54574,
2026_07_06_18_18_25.401,3.832,29.9,0,0.759,0,0,0,0.001, ,0,0,0,0,0, ,-39.4,283.8,960.5,0,-0.5,-1.5,25,-39.0196,283.178,960.663,-0.0732586,-0.501859,-1.546,
2026_07_06_18_18_25.419,3.832,29.9,0,0.759,0,0,0,0, ,0,0,0,0,0, ,-37.8,282.8,961.4,0,-0.5,-1.5,25,-38.994,283.185,960.68,-0.0687944,-0.501746,-1.5432,
2026_07_06_18_18_25.444,3.832,29.9,0,0.758,0,0,0,0, ,0,0,0,0,0, ,-39.6,282.9,961.1,0,-0.4,-1.5,25,-38.9761,283.165,960.715,-0.0646023,-0.498592,-1.54057,
2026_07_06_18_18_25.458,3.832,29.8,0,0.758,0,0,0,0, ,0,0,0,0,0, ,-38.8,281.4,960,0,-0.5,-1.6,25,-38.9897,283.103,960.705,-0.0606656,-0.495631,-1.54114,
2026_07_06_18_18_25.479,3.832,29.8,0,0.759,0,0,0,0.001, ,0,0,0,0,0, ,-38.6,281.9,960.5,-0.1,-0.5,-1.6,25,-38.9721,283.014,960.677,-0.0600156,-0.495898,-1.54473,
2026_07_06_18_18_25.498,3.832,29.8,0,0.76,0,0,0,0.001, ,0,0,0,0,0, ,-38.9,282.5,961.3,-0.1,-0.5,-1.5,25,-38.9586,282.965,960.691,-0.0624522,-0.496147,-1.54505,
2026_07_06_18_18_25.519,3.832,29.8,0,0.759,0,0,0,0.001, ,0,0,0,0,0, ,-38.5,283.3,959.7,-0.1,-0.5,-1.6,25,-38.9428,282.961,960.679,-0.0647403,-0.496382,-1.54535,
2026_07_06_18_18_25.537,3.832,29.8,0,0.759,0,0,0,0.001, ,0,0,0,0,0, ,-39.5,284.6,959.9,-0.1,-0.5,-1.6,25,-38.9463,283.021,960.625,-0.0668889,-0.496603,-1.54868,
2026_07_06_18_18_25.558,3.832,29.8,0,0.758,0,0,0,0.001, ,0,0,0,0,0, ,-38,283.2,960.9,-0.2,-0.5,-1.5,25,-38.9343,283.075,960.612,-0.0719535,-0.49681,-1.54876,
2026_07_06_18_18_25.577,3.832,29.8,0,0.76,0,0,0,0.001, ,0,0,0,0,0, ,-39.3,282.5,959.9,-0.1,-0.5,-1.6,25,-38.917,283.061,960.599,-0.0767094,-0.497004,-1.54884,
2026_07_06_18_18_25.597,3.832,29.9,0,0.759,0,0,0,0.001, ,0,0,0,0,0, ,-38.9,284.6,961.7,-0.1,-0.6,-1.5,25,-38.9281,283.091,960.611,-0.0781287,-0.500234,-1.54891,
2026_07_06_18_18_25.616,3.832,29.8,0,0.76,0,0,0,0, ,0,0,0,0,0, ,-39.7,283.5,959.8,-0.1,-0.5,-1.5,25,-38.9508,283.149,960.62,-0.0794615,-0.503266,-1.54593,
2026_07_06_18_18_25.637,3.832,29.9,0,0.759,0,0,0,0.001, ,0,0,0,0,0, ,-39.3,285,961.9,0,-0.5,-1.6,25,-38.9843,283.216,960.634,-0.0776662,-0.503067,-1.54618,
2026_07_06_18_18_25.655,3.832,29.8,0,0.759,0,0,0,0, ,0,0,0,0,0, ,-39.4,283.5,960,0,-0.5,-1.6,25,-39.0066,283.279,960.653,-0.0729334,-0.50288,-1.54946,
2026_07_06_18_18_25.677,3.832,29.9,0,0.756,0,0,0,0.001, ,0,0,0,0,0, ,-38.5,283,961,0,-0.5,-1.6,25,-39.0031,283.277,960.644,-0.068489,-0.502705,-1.55254,
2026_07_06_18_18_25.695,3.832,29.9,0,0.759,0,0,0,0, ,0,0,0,0,0, ,-39,282.4,961.5,0,-0.5,-1.5,25,-38.9877,283.242,960.68,-0.0643155,-0.50254,-1.55238,
2026_07_06_18_18_25.715,3.832,29.9,0,0.759,0,0,0,0, ,0,0,0,0,0, ,-39.4,282.4,960.6,0,-0.5,-1.5,25,-39.0006,283.191,960.703,-0.0603962,-0.502385,-1.54919,
2026_07_06_18_18_25.735,3.832,29.8,0,0.758,0,0,0,0, ,0,0,0,0,0, ,-38.3,281.4,958.8,-0.1,-0.4,-1.6,25,-38.9914,283.112,960.642,-0.0597627,-0.499193,-1.54924,
2026_07_06_18_18_25.757,3.832,29.8,0,0.76,0,0,0,0.001, ,0,0,0,0,0, ,-39.6,281.6,960.5,-0.1,-0.5,-1.5,25,-38.9889,283.014,960.581,-0.0622147,-0.496195,-1.54928,
2026_07_06_18_18_25.775,3.832,29.8,0,0.76,0,0,0,0.001, ,0,0,0,0,0, ,-39.3,283.6,960.5,0,-0.5,-1.5,25,-39.017,282.989,960.576,-0.0614704,-0.496427,-1.54628,
2026_07_06_18_18_25.796,3.832,29.9,0,0.759,0,0,0,0.001, ,0,0,0,0,0, ,-39,283.4,962.2,-0.1,-0.5,-1.6,25,-39.0251,283.02,960.624,-0.0607714,-0.496645,-1.54651,
2026_07_06_18_18_25.814,3.832,29.8,0,0.759,0,0,0,0, ,0,0,0,0,0, ,-39.9,283,959.4,0,-0.5,-1.6,25,-39.051,283.031,960.634,-0.060115,-0.496849,-1.54977,
2026_07_06_18_18_25.837,3.832,29.9,0,0.76,0,0,0,0.001, ,0,0,0,0,0, ,-39.4,283.9,960.5,0,-0.5,-1.5,25,-39.0875,283.056,960.593,-0.0564517,-0.497041,-1.54978,
2026_07_06_18_18_25.854,3.832,29.7,0,0.76,0,0,0,0, ,0,0,0,0,0, ,-40.2,283.4,960.5,0,-0.4,-1.6,25,-39.1309,283.093,960.587,-0.0530117,-0.494175,-1.5498,
2026_07_06_18_18_25.879,3.832,29.8,0,0.758,0,0,0,0.002, ,0,0,0,0,0, ,-39.1,283,961,0,-0.5,-1.5,25,-39.1626,283.099,960.597,-0.0497813,-0.491483,-1.54981,
2026_07_06_18_18_25.893,3.832,29.8,0,0.758,0,0,0,0.001, ,0,0,0,0,0, ,-38.4,281.7,960.5,0,-0.5,-1.6,25,-39.1374,283.053,960.606,-0.0467478,-0.492002,-1.54982,
2026_07_06_18_18_25.917,3.832,29.8,0,0.759,0,0,0,0.001, ,0,0,0,0,0, ,-38.9,283.8,960.5,-0.1,-0.5,-1.6,25,-39.1077,283.035,960.6,-0.0469459,-0.492489,-1.55288,
2026_07_06_18_18_25.933,3.832,29.8,0,0.759,0,0,0,0.001, ,0,0,0,0,0, ,-38.6,282.1,960.2,-0.1,-0.6,-1.7,25,-39.0859,283.03,960.585,-0.0501789,-0.495994,-1.5588,
2026_07_06_18_18_25.956,3.832,29.8,0,0.76,0,0,0,0.001, ,0,0,0,0,0, ,-38.4,282.8,962.1,-0.1,-0.5,-1.5,25,-39.0502,282.994,960.619,-0.0532149,-0.499285,-1.56131,
2026_07_06_18_18_25.972,3.832,29.8,0,0.758,0,0,0,0.001, ,0,0,0,0,0, ,-38.6,283.2,959.4,-0.2,-0.5,-1.6,25,-39.0167,282.995,960.627,-0.0591127,-0.499328,-1.56062,
2026_07_06_18_18_25.995,3.832,29.8,0,0.76,0,0,0,0.001, ,0,0,0,0,0, ,-39.5,283.4,961.7,-0.1,-0.5,-1.5,25,-39.0187,283.013,960.622,-0.0646512,-0.499369,-1.55997,
2026_07_06_18_18_26.012,3.832,29.9,0,0.759,0,0,0,0.001, ,0,0,0,0,0, ,-38.4,283.2,961.7,-0.1,-0.5,-1.6,25,-39.0145,283.031,960.688,-0.0668053,-0.499408,-1.55936,
2026_07_06_18_18_26.033,3.832,29.9,0,0.758,0,0,0,0.001, ,0,0,0,0,0, ,-39.1,283.3,960.8,-0.2,-0.5,-1.6,25,-38.9984,283.044,960.722,-0.0718749,-0.499444,-1.56184,
2026_07_06_18_18_26.051,3.832,29.8,0,0.758,0,0,0,0.001, ,0,0,0,0,0, ,-39.3,283.2,962.8,-0.1,-0.5,-1.5,25,-39.0107,283.057,960.788,-0.0766357,-0.499478,-1.56112,
2026_07_06_18_18_26.072,3.832,29.9,0,0.759,0,0,0,0.001, ,0,0,0,0,0, ,-39.6,283.9,961.1,-0.2,-0.5,-1.6,25,-39.0375,283.087,960.859,-0.0811063,-0.49951,-1.56044,
2026_07_06_18_18_26.091,3.832,29.8,0,0.758,0,0,0,0.001, ,0,0,0,0,0, ,-39.5,282.8,961.3,-0.2,-0.5,-1.5,25,-39.0687,283.103,960.88,-0.0883514,-0.499539,-1.5598,
2026_07_06_18_18_26.112,3.832,29.9,0,0.761,0,0,0,0.001, ,0,0,0,0,0, ,-39.5,284.4,960.6,0,-0.6,-1.5,25,-39.095,283.133,960.884,-0.0890612,-0.502614,-1.55616,
2026_07_06_18_18_26.131,3.832,29.9,0,0.76,0,0,0,0.001, ,0,0,0,0,0, ,-39,283.4,960.9,0,-0.5,-1.6,25,-39.1044,283.18,960.876,-0.0836341,-0.505502,-1.55578,
2026_07_06_18_18_26.151,3.832,29.8,0,0.758,0,0,0,0.001, ,0,0,0,0,0, ,-38.9,282.8,961.3,-0.1,-0.6,-1.5,25,-39.095,283.175,960.889,-0.0815845,-0.508214,-1.55543,
2026_07_06_18_18_26.170,3.832,29.8,0,0.759,0,0,0,0.001, ,0,0,0,0,0, ,-39.6,283.5,960.6,0,-0.5,-1.5,25,-39.1045,283.173,960.893,-0.0796598,-0.51076,-1.55205,
2026_07_06_18_18_26.193,3.832,29.8,0,0.761,0,0,0,0.001, ,0,0,0,0,0, ,-39.7,282.5,959.5,0,-0.5,-1.5,25,-39.1377,283.163,960.842,-0.0748055,-0.510104,-1.54888,
2026_07_06_18_18_26.210,3.832,29.9,0,0.758,0,0,0,0.001, ,0,0,0,0,0, ,-39.7,283.2,960.4,0,-0.5,-1.5,25,-39.172,283.144,960.787,-0.0702471,-0.509488,-1.5459,
2026_07_06_18_18_26.230,3.832,29.8,0,0.759,0,0,0,0.001, ,0,0,0,0,0, ,-38.3,283.2,960.6,-0.1,-0.5,-1.6,25,-39.1615,283.147,960.77,-0.0690133,-0.50891,-1.54615,
2026_07_06_18_18_26.249,3.832,29.8,0,0.759,0,0,0,0.001, ,0,0,0,0,0, ,-39,282.4,959.2,0,-0.5,-1.5,25,-39.1303,283.126,960.717,-0.0678547,-0.508367,-1.54639,
2026_07_06_18_18_26.271,3.832,29.8,0,0.759,0,0,0,0.002, ,0,0,0,0,0, ,-39.3,283.2,962.2,0,-0.5,-1.5,25,-39.1315,283.106,960.716,-0.0637198,-0.507857,-1.54356,
2026_07_06_18_18_26.290,3.832,29.8,0,0.759,0,0,0,0.002, ,0,0,0,0,0, ,-39.1,282.9,960.6,-0.3,-0.4,-1.6,25,-39.1357,283.103,960.757,-0.0689775,-0.504332,-1.54395,
2026_07_06_18_18_26.320,3.832,29.8,0,0.759,0,0,0,0.002, ,0,0,0,0,0, ,-38.6,282.1,960.6,-0.1,-0.5,-1.6,25,-39.1183,283.066,960.748,-0.0769616,-0.501021,-1.54737,
2026_07_06_18_18_26.331,3.832,29.8,0,0.759,0,0,0,0.002, ,0,0,0,0,0, ,-40.1,283.4,959.8,-0.1,-0.5,-1.5,25,-39.1324,283.047,960.714,-0.0783655,-0.500959,-1.54753,
2026_07_06_18_18_26.356,3.832,29.8,0,0.759,0,0,0,0.002, ,0,0,0,0,0, ,-38.4,282.8,960.8,-0.1,-0.5,-1.5,25,-39.1396,283.05,960.689,-0.0796839,-0.5009,-1.54463,
2026_07_06_18_18_26.369,3.832,29.8,0,0.76,0,0,0,0.002, ,0,0,0,0,0, ,-38.3,283.4,960.4,-0.1,-0.6,-1.5,25,-39.0915,283.053,960.684,-0.0809219,-0.503892,-1.54191,
2026_07_06_18_18_26.396,3.832,29.9,0,0.76,0,0,0,0.002, ,0,0,0,0,0, ,-39.6,283,960.2,-0.1,-0.5,-1.5,25,-39.0828,283.062,960.66,-0.0820845,-0.506702,-1.53936,
2026_07_06_18_18_26.407,3.832,29.8,0,0.76,0,0,0,0.001, ,0,0,0,0,0, ,-39,283.8,961.3,-0.2,-0.6,-1.6,25,-39.0961,283.083,960.666,-0.0862231,-0.50934,-1.54001,
2026_07_06_18_18_26.431,3.832,29.8,0,0.758,0,0,0,0.002, ,0,0,0,0,0, ,-39.4,282.7,961.4,0,-0.5,-1.6,25,-39.1024,283.093,960.708,-0.0870626,-0.511818,-1.54366,
2026_07_06_18_18_26.448,3.832,29.8,0,0.758,0,0,0,0.002, ,0,0,0,0,0, ,-38.4,282.5,962.2,-0.1,-0.5,-1.6,25,-39.0901,283.063,960.774,-0.0848041,-0.511098,-1.5471,
2026_07_06_18_18_26.471,3.832,29.8,0,0.759,0,0,0,0.002, ,0,0,0,0,0, ,-38.9,282.7,962.5,-0.1,-0.5,-1.5,25,-39.0633,283.035,960.87,-0.0857301,-0.510422,-1.54727,
2026_07_06_18_18_26.487,3.832,29.8,0,0.758,0,0,0,0.002, ,0,0,0,0,0, ,-40.4,282.1,959.3,-0.1,-0.4,-1.6,25,-39.099,282.996,960.872,-0.0865997,-0.50674,-1.54744,
2026_07_06_18_18_26.509,3.832,29.8,0,0.759,0,0,0,0.002, ,0,0,0,0,0, ,-38.2,282.9,962.7,-0.1,-0.5,-1.5,25,-39.1113,282.966,960.88,-0.0874163,-0.503282,-1.5476,
2026_07_06_18_18_26.526,3.832,29.7,0,0.759,0,0,0,0.002, ,0,0,0,0,0, ,-39.7,283.3,959.3,-0.1,-0.5,-1.6,25,-39.1014,282.974,960.887,-0.0881831,-0.503082,-1.54774,
2026_07_06_18_18_26.549,3.832,29.8,0,0.76,0,0,0,0.003, ,0,0,0,0,0, ,-37.4,282.8,960.9,0,-0.5,-1.5,25,-39.0678,282.979,960.839,-0.0858563,-0.502894,-1.54788,
2026_07_06_18_18_26.566,3.832,29.9,0,0.759,0,0,0,0.002, ,0,0,0,0,0, ,-39.4,283.6,961.1,-0.2,-0.5,-1.5,25,-39.0271,282.992,960.849,-0.0867182,-0.502718,-1.54496,
2026_07_06_18_18_26.588,3.832,29.8,0,0.76,0,0,0,0.001, ,0,0,0,0,0, ,-38.8,283.8,958.8,-0.1,-0.5,-1.6,25,-39.0316,283.035,960.794,-0.0905744,-0.502552,-1.54527,
2026_07_06_18_18_26.605,3.832,29.9,0,0.759,0,0,0,0.002, ,0,0,0,0,0, ,-39.4,282.7,960.5,-0.1,-0.5,-1.5,25,-39.0357,283.048,960.724,-0.0911488,-0.502397,-1.54556,
2026_07_06_18_18_26.628,3.832,29.8,0,0.758,0,0,0,0.001, ,0,0,0,0,0, ,-38.4,283,959.9,-0.2,-0.5,-1.6,25,-39.0275,283.036,960.692,-0.094735,-0.502251,-1.54583,
2026_07_06_18_18_26.644,3.832,29.9,0,0.759,0,0,0,0.002, ,0,0,0,0,0, ,-37.7,283.6,960.9,0,-0.5,-1.5,25,-38.9679,283.052,960.675,-0.0950559,-0.502114,-1.54608,
2026_07_06_18_18_26.665,3.832,29.8,0,0.758,0,0,0,0.001, ,0,0,0,0,0, ,-39.5,281.8,961.1,0,-0.5,-1.6,25,-38.9455,283.031,960.694,-0.0892634,-0.501985,-1.54632,
2026_07_06_18_18_26.684,3.832,29.9,0,0.758,0,0,0,0.002, ,0,0,0,0,0, ,-38.4,282.5,961.4,-0.1,-0.5,-1.6,25,-38.9458,282.977,960.728,-0.0868708,-0.501864,-1.54959,
2026_07_06_18_18_26.707,3.832,29.8,0,0.76,0,0,0,0.001, ,0,0,0,0,0, ,-39,282.3,960,0,-0.5,-1.5,25,-38.9308,282.942,960.727,-0.084624,-0.50175,-1.54962,
2026_07_06_18_18_26.724,3.832,29.8,0,0.759,0,0,0,0.002, ,0,0,0,0,0, ,-38.4,283.2,960.4,0,-0.5,-1.6,25,-38.9167,282.93,960.695,-0.0794672,-0.501644,-1.54964,
2026_07_06_18_18_26.750,3.832,29.8,0,0.758,0,0,0,0.002, ,0,0,0,0,0, ,-38.2,282.8,958.9,0,-0.6,-1.6,25,-38.8791,282.935,960.631,-0.0746247,-0.50459,-1.55271,
2026_07_06_18_18_26.763,3.832,29.8,0,0.758,0,0,0,0.002, ,0,0,0,0,0, ,-40.4,283.6,960.6,-0.1,-0.5,-1.6,25,-38.9048,282.951,960.577,-0.0731241,-0.507357,-1.55559,
2026_07_06_18_18_26.785,3.832,29.8,0,0.758,0,0,0,0.002, ,0,0,0,0,0, ,-39.3,282.8,960.6,0,-0.5,-1.5,25,-38.9624,282.966,960.579,-0.071715,-0.506909,-1.55525,
2026_07_06_18_18_26.803,3.832,29.8,0,0.76,0,0,0,0.002, ,0,0,0,0,0, ,-38.5,282.5,961,0,-0.5,-1.4,25,-38.9586,282.947,960.592,-0.0673448,-0.506488,-1.54884,
2026_07_06_18_18_26.826,3.832,29.8,0,0.759,0,0,0,0.002, ,0,0,0,0,0, ,-39,282.5,960.8,-0.1,-0.5,-1.6,25,-38.9459,282.919,960.611,-0.0662879,-0.506093,-1.54586,
2026_07_06_18_18_26.843,3.832,29.8,0,0.76,0,0,0,0.002, ,0,0,0,0,0, ,-39.3,282.9,960.2,-0.1,-0.4,-1.5,25,-38.9583,282.906,960.604,-0.0683422,-0.502675,-1.54611,
2026_07_06_18_18_26.864,3.832,29.9,0,0.758,0,0,0,0.002, ,0,0,0,0,0, ,-39,282.3,960.5,-0.1,-0.5,-1.5,25,-38.97,282.887,960.589,-0.0702714,-0.499465,-1.5433,
2026_07_06_18_18_26.882,3.832,29.8,0,0.758,0,0,0,0.001, ,0,0,0,0,0, ,-39.1,283.2,959.8,-0.1,-0.4,-1.6,25,-38.9749,282.879,960.562,-0.072083,-0.49645,-1.54371,
2026_07_06_18_18_26.904,3.832,29.8,0,0.76,0,0,0,0.002, ,0,0,0,0,0, ,-38.8,283.9,961,-0.1,-0.5,-1.6,25,-38.9734,282.92,960.552,-0.0737842,-0.49362,-1.54714,
2026_07_06_18_18_26.922,3.832,29.7,0,0.76,0,0,0,0.002, ,0,0,0,0,0, ,-39.1,283.2,961.5,-0.2,-0.5,-1.6,25,-38.9719,282.958,960.595,-0.0784286,-0.494009,-1.55036,
2026_07_06_18_18_26.945,3.832,29.8,0,0.759,0,0,0,0.003, ,0,0,0,0,0, ,-39.1,282.9,961.7,-0.1,-0.5,-1.5,25,-38.9797,282.964,960.656,-0.0827899,-0.494374,-1.55034,
2026_07_06_18_18_26.961,3.832,29.9,0,0.758,0,0,0,0.002, ,0,0,0,0,0, ,-39.5,284,961,-0.1,-0.5,-1.6,25,-38.9993,282.994,960.698,-0.0838387,-0.494717,-1.55032,
2026_07_06_18_18_26.983,3.832,29.8,0,0.758,0,0,0,0.001, ,0,0,0,0,0, ,-40,284.1,961.4,-0.1,-0.6,-1.6,25,-39.045,283.058,960.729,-0.0848235,-0.498085,-1.55335,
2026_07_06_18_18_27.000,3.832,29.8,0,0.758,0,0,0,0.002, ,0,0,0,0,0, ,-39,283.5,959.9,-0.1,-0.5,-1.6,25,-39.0727,283.103,960.724,-0.0857483,-0.501249,-1.55619,
2026_07_06_18_18_27.024,3.832,29.8,0,0.76,0,0,0,0.002, ,0,0,0,0,0, ,-39.1,282.9,960.6,0,-0.6,-1.5,25,-39.0713,283.109,960.695,-0.0835699,-0.50422,-1.55581,
2026_07_06_18_18_27.041,3.832,29.8,0,0.759,0,0,0,0.002, ,0,0,0,0,0, ,-40,282.9,962.6,-0.1,-0.5,-1.5,25,-39.1005,283.096,960.75,-0.0815242,-0.50701,-1.55241,
2026_07_06_18_18_27.063,3.832,29.8,0,0.76,0,0,0,0.002, ,0,0,0,0,0, ,-39,283.4,961,0,-0.5,-1.5,25,-39.1249,283.1,960.814,-0.0796032,-0.506582,-1.54922,
2026_07_06_18_18_27.080,3.832,29.7,0,0.759,0,0,0,0.002, ,0,0,0,0,0, ,-38.5,282.9,960.3,-0.1,-0.5,-1.5,25,-39.102,283.103,960.804,-0.0777993,-0.506181,-1.54622,
2026_07_06_18_18_27.110,3.832,29.7,0,0.758,0,0,0,0.003, ,0,0,0,0,0, ,-39.4,284,961.9,-0.1,-0.5,-1.6,25,-39.0927,283.124,960.822,-0.0791521,-0.505805,-1.54645,
2026_07_06_18_18_27.119,3.832,29.8,0,0.759,0,0,0,0.003, ,0,0,0,0,0, ,-38.8,284.4,960,-0.2,-0.5,-1.5,25,-39.0932,283.189,960.83,-0.0834694,-0.505451,-1.54667,
2026_07_06_18_18_27.143,3.832,29.8,0,0.76,0,0,0,0.002, ,0,0,0,0,0, ,-38.5,282.9,962,-0.2,-0.4,-1.5,25,-39.0662,283.217,960.84,-0.0905705,-0.502072,-1.54382,
2026_07_06_18_18_27.158,3.832,29.9,0,0.759,0,0,0,0.002, ,0,0,0,0,0, ,-38.3,284.4,962.4,-0.1,-0.5,-1.6,25,-39.0256,283.244,960.923,-0.094192,-0.498899,-1.5442,
2026_07_06_18_18_27.181,3.832,29.8,0,0.758,0,0,0,0.002, ,0,0,0,0,0, ,-37.4,282.9,961.3,-0.1,-0.5,-1.6,25,-38.9539,283.269,960.98,-0.0945459,-0.498966,-1.5476,
2026_07_06_18_18_27.199,3.832,29.7,0,0.759,0,0,0,0.002, ,0,0,0,0,0, ,-39.7,283.2,960.6,-0.2,-0.5,-1.6,25,-38.9293,283.255,960.978,-0.0979252,-0.499029,-1.55079,
2026_07_06_18_18_27.221,3.832,29.8,0,0.76,0,0,0,0.003, ,0,0,0,0,0, ,-39.7,282.9,961.3,0,-0.5,-1.5,25,-38.9763,283.243,960.976,-0.0980516,-0.499088,-1.55074,
2026_07_06_18_18_27.238,3.832,29.8,0,0.759,0,0,0,0.002, ,0,0,0,0,0, ,-40,282.9,962.2,0,-0.5,-1.6,25,-39.0295,283.222,961.023,-0.0920766,-0.499144,-1.5507,
2026_07_06_18_18_27.261,3.832,29.8,0,0.759,0,0,0,0.002, ,0,0,0,0,0, ,-39.6,282.9,960.8,-0.1,-0.5,-1.5,25,-39.0765,283.202,961.052,-0.0895125,-0.499196,-1.55066,
2026_07_06_18_18_27.278,3.832,29.7,0,0.758,0,0,0,0.003, ,0,0,0,0,0, ,-38.8,283.6,961.6,-0.1,-0.5,-1.6,25,-39.084,283.205,961.061,-0.0901516,-0.499245,-1.55062,
2026_07_06_18_18_27.301,3.832,29.7,0,0.759,0,0,0,0.003, ,0,0,0,0,0, ,-39.7,285,960.3,0,-0.5,-1.6,25,-39.0941,283.272,961.055,-0.0877049,-0.499291,-1.55363,
2026_07_06_18_18_27.317,3.832,29.7,0,0.758,0,0,0,0.003, ,0,0,0,0,0, ,-38.8,282.2,962.1,0,-0.5,-1.5,25,-39.1036,283.292,961.063,-0.0823604,-0.499334,-1.5534,
2026_07_06_18_18_27.341,3.832,29.8,0,0.758,0,0,0,0.003, ,0,0,0,0,0, ,-39.3,284.1,961.6,0,-0.5,-1.6,25,-39.1004,283.283,961.111,-0.0773415,-0.499375,-1.5532,
2026_07_06_18_18_27.357,3.832,29.7,0,0.759,0,0,0,0.003, ,0,0,0,0,0, ,-38,283.2,962.2,0,-0.5,-1.6,25,-39.0729,283.306,961.159,-0.0726285,-0.499413,-1.55605,
2026_07_06_18_18_27.379,3.832,29.8,0,0.759,0,0,0,0.003, ,0,0,0,0,0, ,-39.4,282.7,959.8,0,-0.5,-1.5,25,-39.0502,283.284,961.15,-0.0682027,-0.499449,-1.55568,
2026_07_06_18_18_27.397,3.832,29.7,0,0.759,0,0,0,0.003, ,0,0,0,0,0, ,-39,281.8,962,-0.1,-0.5,-1.5,25,-39.0593,283.221,961.134,-0.0670935,-0.499482,-1.55229,
2026_07_06_18_18_27.419,3.832,29.7,0,0.761,0,0,0,0.003, ,0,0,0,0,0, ,-37.8,282.7,959.5,-0.1,-0.5,-1.5,25,-39.0191,283.162,961.111,-0.0690987,-0.499514,-1.5491,
2026_07_06_18_18_27.437,3.832,29.9,0,0.759,0,0,0,0.004, ,0,0,0,0,0, ,-39.6,282.9,961,-0.1,-0.5,-1.6,25,-38.9997,283.14,961.059,-0.0709818,-0.499543,-1.54916,
2026_07_06_18_18_27.461,3.832,29.7,0,0.758,0,0,0,0.002, ,0,0,0,0,0, ,-39.1,281.2,959.8,-0.1,-0.5,-1.6,25,-39.021,283.073,961.018,-0.0727501,-0.499571,-1.55225,
2026_07_06_18_18_27.476,3.832,29.8,0,0.759,0,0,0,0.004, ,0,0,0,0,0, ,-39.6,285.2,961.1,-0.2,-0.5,-1.6,25,-39.0411,283.081,960.984,-0.0774575,-0.499597,-1.55516,
2026_07_06_18_18_27.500,3.832,29.7,0,0.76,0,0,0,0.003, ,0,0,0,0,0, ,-38,284.3,960.9,-0.1,-0.5,-1.6,25,-39.0264,283.183,960.985,-0.0818781,-0.499622,-1.5579,
2026_07_06_18_18_27.515,3.832,29.9,0,0.759,0,0,0,0.004, ,0,0,0,0,0, ,-38.9,282.7,961.7,0,-0.5,-1.4,25,-38.9913,283.202,961.004,-0.0799355,-0.499645,-1.55437,
2026_07_06_18_18_27.538,3.832,29.9,0,0.758,0,0,0,0.002, ,0,0,0,0,0, ,-39.1,282.7,961.5,-0.1,-0.5,-1.6,25,-38.9918,283.171,961.04,-0.0781113,-0.499666,-1.55105,
2026_07_06_18_18_27.555,3.832,29.6,0,0.76,0,0,0,0.002, ,0,0,0,0,0, ,-39.1,282.9,960.8,-0.1,-0.5,-1.5,25,-38.9984,283.149,961.047,-0.0794451,-0.499687,-1.55099,
2026_07_06_18_18_27.578,3.832,29.7,0,0.757,0,0,0,0.004, ,0,0,0,0,0, ,-38.5,282.5,961.7,-0.1,-0.5,-1.5,25,-38.9863,283.121,961.059,-0.0806977,-0.499706,-1.54788,
2026_07_06_18_18_27.595,3.832,29.9,0,0.759,0,0,0,0.004, ,0,0,0,0,0, ,-39.4,284.4,961.3,0,-0.5,-1.5,25,-38.9841,283.141,961.086,-0.0788271,-0.499724,-1.54497,
2026_07_06_18_18_27.619,3.832,29.7,0,0.76,0,0,0,0.002, ,0,0,0,0,0, ,-38.9,282.9,960.6,0,-0.5,-1.5,25,-38.9942,283.172,961.078,-0.0740235,-0.499741,-1.54223,
2026_07_06_18_18_27.634,3.832,29.7,0,0.76,0,0,0,0.004, ,0,0,0,0,0, ,-38.8,284.7,961.3,0,-0.5,-1.6,25,-38.9854,283.211,961.07,-0.0695127,-0.499756,-1.5427,
2026_07_06_18_18_27.660,3.832,29.7,0,0.76,0,0,0,0.004, ,0,0,0,0,0, ,-38.9,283.8,959.3,0,-0.5,-1.6,25,-38.9772,283.274,961.023,-0.0652768,-0.499771,-1.54619,
2026_07_06_18_18_27.673,3.832,29.7,0,0.76,0,0,0,0.004, ,0,0,0,0,0, ,-39.7,284.4,961,0,-0.5,-1.5,25,-38.9968,283.324,960.97,-0.061299,-0.499785,-1.54642,
2026_07_06_18_18_27.696,3.832,29.7,0,0.76,0,0,0,0.004, ,0,0,0,0,0, ,-38.8,283,960.9,0,-0.4,-1.6,25,-39.0123,283.347,960.969,-0.0575636,-0.496751,-1.54664,
2026_07_06_18_18_27.713,3.832,29.8,0,0.758,0,0,0,0.004, ,0,0,0,0,0, ,-38.9,282.3,961.1,0,-0.5,-1.6,25,-39.0024,283.305,960.971,-0.0540558,-0.493903,-1.54989,
2026_07_06_18_18_27.736,3.832,29.7,0,0.758,0,0,0,0.003, ,0,0,0,0,0, ,-38.9,284.1,960.9,0,-0.5,-1.5,25,-38.9961,283.298,960.972,-0.0507618,-0.494274,-1.5499,
2026_07_06_18_18_27.753,3.832,29.8,0,0.76,0,0,0,0.004, ,0,0,0,0,0, ,-39.3,282.4,961.9,-0.1,-0.5,-1.5,25,-39.0025,283.295,960.999,-0.0507154,-0.494623,-1.54686,
2026_07_06_18_18_27.777,3.832,29.7,0,0.759,0,0,0,0.003, ,0,0,0,0,0, ,-39.3,283.5,959.7,0,-0.5,-1.5,25,-39.0206,283.274,960.986,-0.0506718,-0.494951,-1.544,
2026_07_06_18_18_27.792,3.832,29.7,0,0.759,0,0,0,0.004, ,0,0,0,0,0, ,-39.3,282.1,960.8,0,-0.5,-1.6,25,-39.0376,283.245,960.942,-0.047584,-0.495258,-1.54437,
2026_07_06_18_18_27.818,3.832,29.7,0,0.76,0,0,0,0.004, ,0,0,0,0,0, ,-39.6,282.7,961.9,0,-0.5,-1.6,25,-39.0628,283.194,960.966,-0.0446843,-0.495547,-1.54776,
2026_07_06_18_18_27.833,3.832,29.8,0,0.758,0,0,0,0.004, ,0,0,0,0,0, ,-37.5,282.5,959.4,-0.1,-0.5,-1.5,25,-39.0315,283.158,960.947,-0.0450082,-0.495819,-1.54789,
2026_07_06_18_18_27.859,3.832,29.8,0,0.759,0,0,0,0.003, ,0,0,0,0,0, ,-39.5,283.4,960.6,0,-0.5,-1.5,25,-38.9991,283.145,960.889,-0.0453124,-0.496073,-1.54498,
2026_07_06_18_18_27.873,3.832,29.8,0,0.76,0,0,0,0.003, ,0,0,0,0,0, ,-39.6,281.9,959.8,0,-0.4,-1.5,25,-39.0327,283.115,960.847,-0.0425512,-0.493266,-1.54224,
2026_07_06_18_18_27.898,3.832,29.8,0,0.759,0,0,0,0.003, ,0,0,0,0,0, ,-39.3,282.4,961.9,-0.1,-0.5,-1.6,25,-39.0581,283.056,960.848,-0.0430051,-0.490629,-1.54271,
2026_07_06_18_18_27.912,3.832,29.8,0,0.76,0,0,0,0.003, ,0,0,0,0,0, ,-39,281.7,960.3,0,-0.5,-1.5,25,-39.0637,282.995,960.863,-0.0434314,-0.4912,-1.54315,
2026_07_06_18_18_27.936,3.832,29.8,0,0.759,0,0,0,0.003, ,0,0,0,0,0, ,-39.3,283.4,959.8,0,-0.5,-1.6,25,-39.069,282.968,960.813,-0.0407848,-0.491737,-1.54357,
2026_07_06_18_18_27.951,3.832,29.7,0,0.758,0,0,0,0.003, ,0,0,0,0,0, ,-38.6,282.4,961.3,-0.1,-0.5,-1.5,25,-39.0617,282.964,960.797,-0.0413463,-0.49224,-1.54396,
2026_07_06_18_18_27.980,3.832,29.8,0,0.758,0,0,0,0.004, ,0,0,0,0,0, ,-38.4,283.3,960.6,-0.1,-0.5,-1.5,25,-39.0275,282.957,960.807,-0.0449205,-0.492713,-1.54128,
2026_07_06_18_18_27.990,3.832,29.9,0,0.759,0,0,0,0.003, ,0,0,0,0,0, ,-39.3,281.2,959.1,0,-0.5,-1.6,25,-39.0167,282.914,960.748,-0.0452301,-0.493157,-1.54181,
2026_07_06_18_18_28.015,3.832,29.8,0,0.759,0,0,0,0.003, ,0,0,0,0,0, ,-39.9,283,960.2,-0.3,-0.5,-1.6,25,-39.0522,282.864,960.681,-0.0516145,-0.493574,-1.54536,
2026_07_06_18_18_28.029,3.832,29.7,0,0.759,0,0,0,0.003, ,0,0,0,0,0, ,-38.6,283.8,961,-0.1,-0.6,-1.5,25,-39.0643,282.897,960.676,-0.0606567,-0.497013,-1.54564,
2026_07_06_18_18_28.053,3.832,29.7,0,0.756,0,0,0,0.004, ,0,0,0,0,0, ,-38.8,283,960.4,-0.1,-0.6,-1.6,25,-39.0421,282.927,960.678,-0.0630542,-0.503288,-1.54591,
2026_07_06_18_18_28.069,3.832,29.7,0,0.76,0,0,0,0.004, ,0,0,0,0,0, ,-39,284.1,963.1,-0.2,-0.5,-1.6,25,-39.0334,282.965,960.743,-0.0683525,-0.506135,-1.5492,
2026_07_06_18_18_28.096,3.832,29.8,0,0.758,0,0,0,0.004, ,0,0,0,0,0, ,-38.3,283.6,961.1,-0.1,-0.4,-1.4,25,-39.0101,283.019,960.826,-0.0733279,-0.502714,-1.54621,
2026_07_06_18_18_28.109,3.832,29.7,0,0.759,0,0,0,0.004, ,0,0,0,0,0, ,-38.8,283.6,959.4,0,-0.5,-1.5,25,-38.982,283.055,960.791,-0.0719063,-0.499502,-1.54034,
2026_07_06_18_18_28.133,3.832,29.7,0,0.758,0,0,0,0.004, ,0,0,0,0,0, ,-39,283.8,960.6,-0.1,-0.5,-1.6,25,-38.977,283.094,960.743,-0.0705714,-0.499532,-1.54093,
2026_07_06_18_18_28.149,3.832,29.7,0,0.758,0,0,0,0.004, ,0,0,0,0,0, ,-37.4,285.4,961.7,0,-0.5,-1.6,25,-38.9297,283.186,960.767,-0.0693178,-0.499561,-1.54453,
2026_07_06_18_18_28.175,3.832,29.8,0,0.758,0,0,0,0.004, ,0,0,0,0,0, ,-40.2,282.7,961.5,0.1,-0.5,-1.6,25,-38.9218,283.238,960.818,-0.0620469,-0.499587,-1.54791,
2026_07_06_18_18_28.188,3.832,29.8,0,0.759,0,0,0,0.004, ,0,0,0,0,0, ,-38.4,282.1,959.7,0,-0.5,-1.5,25,-38.9448,283.187,960.805,-0.055219,-0.499613,-1.54804,
2026_07_06_18_18_28.214,3.832,29.9,0,0.759,0,0,0,0.004, ,0,0,0,0,0, ,-40.1,282.1,959.1,0,-0.5,-1.6,25,-38.9634,283.121,960.719,-0.0518541,-0.499636,-1.54816,
2026_07_06_18_18_28.229,3.832,29.8,0,0.759,0,0,0,0.003, ,0,0,0,0,0, ,-39,282.9,960.8,0,-0.5,-1.5,25,-38.9992,283.083,960.672,-0.0486943,-0.499658,-1.54827,
2026_07_06_18_18_28.253,3.832,29.8,0,0.759,0,0,0,0.004, ,0,0,0,0,0, ,-38.2,282.4,960.3,0,-0.5,-1.6,25,-38.9748,283.057,960.665,-0.045727,-0.499679,-1.54838,
2026_07_06_18_18_28.267,3.832,29.8,0,0.76,0,0,0,0.004, ,0,0,0,0,0, ,-38.4,283.3,959.4,-0.1,-0.5,-1.6,25,-38.9337,283.044,960.615,-0.0459874,-0.499699,-1.55152,
2026_07_06_18_18_28.294,3.832,29.7,0,0.758,0,0,0,0.004, ,0,0,0,0,0, ,-39.6,282.4,961.3,-0.1,-0.5,-1.4,25,-38.9378,283.032,960.599,-0.0492787,-0.499717,-1.54838,
2026_07_06_18_18_28.308,3.832,29.8,0,0.759,0,0,0,0.005, ,0,0,0,0,0, ,-38.6,282.7,960.2,-0.2,-0.5,-1.6,25,-38.9476,283.003,960.608,-0.0554164,-0.499734,-1.54543,
2026_07_06_18_18_28.334,3.832,29.8,0,0.758,0,0,0,0.004, ,0,0,0,0,0, ,-39,283,961.4,0,-0.5,-1.6,25,-38.9386,282.994,960.62,-0.0581333,-0.499751,-1.54876,
2026_07_06_18_18_28.346,3.832,29.8,0,0.758,0,0,0,0.004, ,0,0,0,0,0, ,-37.7,282.3,961.3,-0.1,-0.5,-1.5,25,-38.9028,282.973,960.664,-0.0576376,-0.499766,-1.54883,
2026_07_06_18_18_28.370,3.832,29.8,0,0.76,0,0,0,0.004, ,0,0,0,0,0, ,-39.6,283.9,961.3,-0.1,-0.5,-1.6,25,-38.8874,282.98,960.703,-0.0602191,-0.49978,-1.54891,
2026_07_06_18_18_28.386,3.832,29.7,0,0.759,0,0,0,0.004, ,0,0,0,0,0, ,-39.6,282.8,960.3,0,-0.5,-1.6,25,-38.9308,283.003,960.709,-0.0595964,-0.499793,-1.55202,
2026_07_06_18_18_28.412,3.832,29.7,0,0.759,0,0,0,0.005, ,0,0,0,0,0, ,-38.8,282.8,959.5,-0.1,-0.5,-1.6,25,-38.9472,282.991,960.66,-0.0590116,-0.499806,-1.55494,
2026_07_06_18_18_28.426,3.832,29.8,0,0.758,0,0,0,0.005, ,0,0,0,0,0, ,-38.9,282.7,960.8,-0.1,-0.5,-1.6,25,-38.9413,282.976,960.629,-0.0615093,-0.499818,-1.55769,
2026_07_06_18_18_28.450,3.832,29.8,0,0.756,0,0,0,0.004, ,0,0,0,0,0, ,-38.2,281.2,961.5,-0.1,-0.5,-1.5,25,-38.9174,282.913,960.66,-0.0638548,-0.499829,-1.55722,
2026_07_06_18_18_28.465,3.832,29.7,0,0.758,0,0,0,0.004, ,0,0,0,0,0, ,-39.7,282.8,961,-0.1,-0.5,-1.5,25,-38.9194,282.858,960.696,-0.0660574,-0.499839,-1.55373,
2026_07_06_18_18_28.490,3.832,29.8,0,0.759,0,0,0,0.005, ,0,0,0,0,0, ,-38.5,282.8,962,-0.1,-0.5,-1.5,25,-38.9304,282.854,960.745,-0.0681258,-0.499849,-1.55046,
2026_07_06_18_18_28.505,3.832,29.8,0,0.76,0,0,0,0.004, ,0,0,0,0,0, ,-38.5,282.7,960.2,-0.1,-0.5,-1.6,25,-38.9042,282.848,960.767,-0.0700681,-0.499858,-1.55043,
2026_07_06_18_18_28.530,3.832,29.8,0,0.759,0,0,0,0.004, ,0,0,0,0,0, ,-38.8,284.5,961.3,-0.2,-0.5,-1.6,25,-38.8887,282.894,960.766,-0.074939,-0.499867,-1.55345,
2026_07_06_18_18_28.544,3.832,29.7,0,0.759,0,0,0,0.004, ,0,0,0,0,0, ,-39.7,283,962,-0.1,-0.5,-1.6,25,-38.9107,282.946,960.82,-0.079513,-0.499875,-1.55629,
2026_07_06_18_18_28.568,3.832,29.8,0,0.759,0,0,0,0.005, ,0,0,0,0,0, ,-39.3,283.6,961,-0.2,-0.5,-1.6,25,-38.9466,282.967,960.861,-0.0838083,-0.499883,-1.55895,
2026_07_06_18_18_28.583,3.832,29.8,0,0.76,0,0,0,0.004, ,0,0,0,0,0, ,-39.4,283.5,960.3,-0.1,-0.5,-1.6,25,-38.9712,283.003,960.848,-0.0878419,-0.49989,-1.56145,
2026_07_06_18_18_28.609,3.832,29.8,0,0.759,0,0,0,0.004, ,0,0,0,0,0, ,-38.2,284,960.4,0,-0.5,-1.5,25,-38.9608,283.048,960.818,-0.0855359,-0.499897,-1.56076,
2026_07_06_18_18_28.622,3.832,29.8,0,0.758,0,0,0,0.004, ,0,0,0,0,0, ,-37.7,283.8,960.9,0,-0.6,-1.6,25,-38.8992,283.1,960.808,-0.0803235,-0.50295,-1.5601,
2026_07_06_18_18_28.648,3.832,29.8,0,0.759,0,0,0,0.004, ,0,0,0,0,0, ,-39.1,282.7,961,0,-0.5,-1.5,25,-38.8688,283.11,960.816,-0.0754288,-0.505817,-1.55948,
2026_07_06_18_18_28.664,3.832,29.8,0,0.759,0,0,0,0.004, ,0,0,0,0,0, ,-39.1,282.9,960.8,0,-0.5,-1.5,25,-38.8829,283.091,960.822,-0.0708324,-0.505462,-1.55586,
2026_07_06_18_18_28.690,3.832,29.7,0,0.76,0,0,0,0.004, ,0,0,0,0,0, ,-39,282.5,960.2,0,-0.5,-1.5,25,-38.893,283.067,960.802,-0.066516,-0.50513,-1.55246,
2026_07_06_18_18_28.702,3.832,29.8,0,0.758,0,0,0,0.005, ,0,0,0,0,0, ,-39.1,283.2,959.4,0,-0.5,-1.6,25,-38.9026,283.054,960.741,-0.0624627,-0.504817,-1.55231,
2026_07_06_18_18_28.728,3.832,29.8,0,0.758,0,0,0,0.004, ,0,0,0,0,0, ,-39.4,282.1,961.6,-0.1,-0.5,-1.6,25,-38.9238,283.029,960.726,-0.0617033,-0.504523,-1.55521,
2026_07_06_18_18_28.741,3.832,29.8,0,0.758,0,0,0,0.004, ,0,0,0,0,0, ,-39.3,282.2,959.7,-0.1,-0.5,-1.6,25,-38.9497,282.975,960.722,-0.064037,-0.504248,-1.55794,
2026_07_06_18_18_28.767,3.832,29.8,0,0.759,0,0,0,0.004, ,0,0,0,0,0, ,-39.3,282.7,960.5,-0.1,-0.5,-1.5,25,-38.9711,282.943,960.684,-0.0662285,-0.503989,-1.55746,
2026_07_06_18_18_28.780,3.832,29.8,0,0.76,0,0,0,0.004, ,0,0,0,0,0, ,-38.5,283.4,961.6,-0.1,-0.4,-1.5,25,-38.9668,282.95,960.706,-0.0682864,-0.500699,-1.55396,
2026_07_06_18_18_28.807,3.832,29.8,0,0.759,0,0,0,0.004, ,0,0,0,0,0, ,-39.5,281.7,960.9,-0.1,-0.5,-1.6,25,-38.9688,282.926,960.739,-0.070219,-0.49761,-1.55372,
2026_07_06_18_18_28.821,3.832,29.8,0,0.759,0,0,0,0.004, ,0,0,0,0,0, ,-38.6,284.3,961.5,-0.2,-0.5,-1.6,25,-38.9737,282.93,960.767,-0.0750806,-0.497755,-1.55654,
2026_07_06_18_18_28.846,3.832,29.8,0,0.759,0,0,0,0.004, ,0,0,0,0,0, ,-40.8,282.9,960.2,-0.1,-0.5,-1.6,25,-39.018,282.971,960.772,-0.079646,-0.497892,-1.55918,
2026_07_06_18_18_28.860,3.832,29.8,0,0.759,0,0,0,0.004, ,0,0,0,0,0, ,-39.5,283.6,960.3,-0.1,-0.5,-1.6,25,-39.087,282.988,960.74,-0.0808863,-0.49802,-1.56167,
2026_07_06_18_18_28.885,3.832,29.8,0,0.759,0,0,0,0.004, ,0,0,0,0,0, ,-39,283.3,960.2,-0.1,-0.5,-1.5,25,-39.0969,283.016,960.711,-0.0820511,-0.498141,-1.56096,
2026_07_06_18_18_28.899,3.832,29.8,0,0.76,0,0,0,0.004, ,0,0,0,0,0, ,-39,284,959.9,-0.1,-0.5,-1.6,25,-39.091,283.055,960.67,-0.0831448,-0.498254,-1.56029,
2026_07_06_18_18_28.927,3.832,29.9,0,0.759,0,0,0,0.004, ,0,0,0,0,0, ,-39.6,283.5,960.3,0,-0.5,-1.6,25,-39.1037,283.097,960.636,-0.0811251,-0.498361,-1.56271,
2026_07_06_18_18_28.939,3.832,29.8,0,0.759,0,0,0,0.004, ,0,0,0,0,0, ,-40.1,282.9,962.6,0,-0.5,-1.6,25,-39.1492,283.103,960.685,-0.0761815,-0.498461,-1.56498,
2026_07_06_18_18_28.965,3.832,29.8,0,0.759,0,0,0,0.004, ,0,0,0,0,0, ,-38.6,283.5,962.1,0,-0.5,-1.5,25,-39.1614,283.109,960.787,-0.0715392,-0.498554,-1.56407,
2026_07_06_18_18_28.979,3.832,29.8,0,0.759,0,0,0,0.005, ,0,0,0,0,0, ,-38.6,283,961.1,0,-0.6,-1.6,25,-39.1272,283.118,960.836,-0.0671798,-0.501689,-1.56321,
2026_07_06_18_18_29.004,3.832,29.8,0,0.759,0,0,0,0.005, ,0,0,0,0,0, ,-40.5,282.5,962,0,-0.6,-1.5,25,-39.153,283.095,960.88,-0.063086,-0.50768,-1.56241,
2026_07_06_18_18_29.017,3.832,29.9,0,0.76,0,0,0,0.005, ,0,0,0,0,0, ,-39,282.4,960.8,0,-0.5,-1.5,25,-39.1894,283.056,960.911,-0.0592417,-0.510259,-1.55861,
2026_07_06_18_18_29.044,3.832,29.9,0,0.759,0,0,0,0.004, ,0,0,0,0,0, ,-38.5,284.4,959.8,-0.1,-0.5,-1.6,25,-39.1626,283.077,960.874,-0.0586786,-0.509634,-1.55808,
2026_07_06_18_18_29.058,3.832,29.7,0,0.76,0,0,0,0.004, ,0,0,0,0,0, ,-39.3,283.6,960,-0.1,-0.5,-1.5,25,-39.1466,283.133,960.815,-0.0611966,-0.509047,-1.55759,
2026_07_06_18_18_29.084,3.832,29.8,0,0.759,0,0,0,0.005, ,0,0,0,0,0, ,-39.3,283.4,960.4,-0.1,-0.6,-1.6,25,-39.1559,283.156,960.777,-0.0635612,-0.511542,-1.55713,
2026_07_06_18_18_29.103,3.832,29.9,0,0.76,0,0,0,0.005, ,0,0,0,0,0, ,-39.7,284.6,960.3,0,-0.5,-1.5,25,-39.1769,283.207,960.751,-0.0627348,-0.513886,-1.55669,
2026_07_06_18_18_29.129,3.832,29.9,0,0.758,0,0,0,0.004, ,0,0,0,0,0, ,-38,283.9,960,0,-0.5,-1.6,25,-39.157,283.271,960.715,-0.0589119,-0.51304,-1.55628,
2026_07_06_18_18_29.137,3.832,29.9,0,0.758,0,0,0,0.004, ,0,0,0,0,0, ,-38.2,283.8,960.3,0,-0.6,-1.5,25,-39.0926,283.306,960.68,-0.0553219,-0.515292,-1.5559,
2026_07_06_18_18_29.165,3.832,29.8,0,0.759,0,0,0,0.004, ,0,0,0,0,0, ,-39.4,282.9,961.1,0,-0.5,-1.5,25,-39.0748,283.309,960.681,-0.0519508,-0.517407,-1.55249,
2026_07_06_18_18_29.176,3.832,29.8,0,0.759,0,0,0,0.005, ,0,0,0,0,0, ,-39,281.6,960.5,0,-0.4,-1.5,25,-39.0824,283.244,960.689,-0.048785,-0.513299,-1.5493,
2026_07_06_18_18_29.203,3.832,29.8,0,0.758,0,0,0,0.005, ,0,0,0,0,0, ,-39.1,283.3,962.1,0,-0.4,-1.6,25,-39.0804,283.196,960.726,-0.0458122,-0.506395,-1.54934,
2026_07_06_18_18_29.216,3.832,29.9,0,0.759,0,0,0,0.005, ,0,0,0,0,0, ,-38.8,282.5,960.5,0,-0.5,-1.6,25,-39.0725,283.178,960.761,-0.0430205,-0.502959,-1.55243,
2026_07_06_18_18_29.243,3.832,29.8,0,0.759,0,0,0,0.004, ,0,0,0,0,0, ,-39,282.4,961,0,-0.4,-1.5,25,-39.062,283.133,960.76,-0.0403989,-0.499731,-1.55228,
2026_07_06_18_18_29.256,3.832,29.8,0,0.759,0,0,0,0.005, ,0,0,0,0,0, ,-39.1,282.3,960.2,-0.1,-0.6,-1.5,25,-39.0612,283.086,960.75,-0.040984,-0.499748,-1.54909,
2026_07_06_18_18_29.283,3.832,29.9,0,0.759,0,0,0,0.005, ,0,0,0,0,0, ,-38.2,282.4,960.6,-0.1,-0.5,-1.5,25,-39.0362,283.041,960.729,-0.0445803,-0.50281,-1.5461,
2026_07_06_18_18_29.296,3.832,29.9,0,0.759,0,0,0,0.004, ,0,0,0,0,0, ,-38.4,283.3,959.9,-0.2,-0.5,-1.5,25,-38.9913,283.029,960.7,-0.0510043,-0.502639,-1.54329,
2026_07_06_18_18_29.323,3.832,29.9,0,0.758,0,0,0,0.004, ,0,0,0,0,0, ,-39.4,283.4,960.3,-0.2,-0.6,-1.6,25,-38.9857,283.049,960.663,-0.0600837,-0.505525,-1.5437,
2026_07_06_18_18_29.335,3.832,29.8,0,0.758,0,0,0,0.004, ,0,0,0,0,0, ,-39.3,283.8,961.5,-0.1,-0.5,-1.5,25,-39.0079,283.082,960.678,-0.065563,-0.508235,-1.54408,
2026_07_06_18_18_29.361,3.832,29.9,0,0.761,0,0,0,0.005, ,0,0,0,0,0, ,-38.9,283.2,960.8,-0.1,-0.5,-1.6,25,-39.0135,283.108,960.707,-0.0676615,-0.507733,-1.54444,
2026_07_06_18_18_29.375,3.832,29.9,0,0.759,0,0,0,0.004, ,0,0,0,0,0, ,-38.9,283.3,961.5,0,-0.5,-1.6,25,-39.0066,283.116,960.734,-0.0665853,-0.507262,-1.54783,
2026_07_06_18_18_29.400,3.832,29.8,0,0.759,0,0,0,0.004, ,0,0,0,0,0, ,-38.3,284.3,961.4,0,-0.5,-1.5,25,-38.9819,283.158,960.777,-0.0625277,-0.50682,-1.54796,
2026_07_06_18_18_29.414,3.832,29.8,0,0.76,0,0,0,0.005, ,0,0,0,0,0, ,-39.1,284.1,961.3,0,-0.5,-1.5,25,-38.9647,283.222,960.812,-0.0587174,-0.506404,-1.54504,
2026_07_06_18_18_29.440,3.832,29.9,0,0.758,0,0,0,0.005, ,0,0,0,0,0, ,-39.4,284,961.3,-0.1,-0.5,-1.5,25,-38.9821,283.272,960.842,-0.0581862,-0.506014,-1.5423,
2026_07_06_18_18_29.453,3.832,29.8,0,0.758,0,0,0,0.004, ,0,0,0,0,0, ,-38.2,284.6,961.3,0,-0.5,-1.6,25,-38.971,283.335,960.87,-0.0576874,-0.505647,-1.54276,
2026_07_06_18_18_29.482,3.832,29.9,0,0.758,0,0,0,0.005, ,0,0,0,0,0, ,-37.7,283.4,959.8,0,-0.5,-1.6,25,-38.9088,283.375,960.85,-0.054172,-0.505303,-1.54625,
2026_07_06_18_18_29.493,3.832,29.9,0,0.761,0,0,0,0.004, ,0,0,0,0,0, ,-38.9,283.8,960.6,0,-0.5,-1.5,25,-38.8717,283.389,960.811,-0.0508709,-0.50498,-1.54648,
2026_07_06_18_18_29.518,3.832,29.9,0,0.759,0,0,0,0.004, ,0,0,0,0,0, ,-39.5,282.7,959.9,0,-0.5,-1.6,25,-38.8917,283.38,960.777,-0.047771,-0.504676,-1.5467,
2026_07_06_18_18_29.532,3.832,29.9,0,0.76,0,0,0,0.004, ,0,0,0,0,0, ,-38.6,283.9,959.7,0,-0.6,-1.5,25,-38.9013,283.376,960.717,-0.0448599,-0.507438,-1.5469,
2026_07_06_18_18_29.560,3.832,29.9,0,0.759,0,0,0,0.004, ,0,0,0,0,0, ,-39.7,283.2,960.8,-0.1,-0.5,-1.5,25,-38.9165,283.386,960.689,-0.0451732,-0.510032,-1.54404,
2026_07_06_18_18_29.574,3.832,29.9,0,0.759,0,0,0,0.004, ,0,0,0,0,0, ,-39.5,282.7,961.3,-0.1,-0.5,-1.6,25,-38.9581,283.36,960.711,-0.0485142,-0.509421,-1.5444,
2026_07_06_18_18_29.600,3.832,29.9,0,0.76,0,0,0,0.004, ,0,0,0,0,0, ,-38.8,284,960.9,-0.1,-0.5,-1.6,25,-38.9698,283.359,960.734,-0.0516516,-0.508847,-1.54779,
2026_07_06_18_18_29.612,3.832,29.9,0,0.759,0,0,0,0.004, ,0,0,0,0,0, ,-39,282.9,960.4,-0.1,-0.5,-1.5,25,-38.9656,283.365,960.729,-0.0545978,-0.508308,-1.54792,
2026_07_06_18_18_29.642,3.832,29.8,0,0.759,0,0,0,0.004, ,0,0,0,0,0, ,-38.9,284.4,960.5,-0.2,-0.5,-1.5,25,-38.9646,283.382,960.712,-0.0604114,-0.507801,-1.545,
2026_07_06_18_18_29.652,3.832,29.9,0,0.761,0,0,0,0.005, ,0,0,0,0,0, ,-39.4,283.3,960.5,-0.1,-0.5,-1.5,25,-38.9759,283.41,960.699,-0.0658707,-0.507326,-1.54226,
2026_07_06_18_18_29.682,3.832,30,0,0.758,0,0,0,0.004, ,0,0,0,0,0, ,-37.9,284.5,961.3,-0.1,-0.5,-1.5,25,-38.956,283.44,960.711,-0.0679505,-0.506879,-1.53969,
2026_07_06_18_18_29.692,3.832,29.9,0,0.759,0,0,0,0.003, ,0,0,0,0,0, ,-37.8,282.8,960.2,0,-0.5,-1.5,25,-38.8886,283.453,960.714,-0.0668566,-0.50646,-1.53727,
2026_07_06_18_18_29.719,3.832,30,0,0.759,0,0,0,0.004, ,0,0,0,0,0, ,-39.7,282.3,961.6,0,-0.6,-1.6,25,-38.8802,283.398,960.725,-0.0627825,-0.509113,-1.53804,
2026_07_06_18_18_29.731,3.832,29.9,0,0.758,0,0,0,0.003, ,0,0,0,0,0, ,-40,281.1,959.9,-0.1,-0.5,-1.5,25,-38.9393,283.295,960.727,-0.0620036,-0.511605,-1.53877,
2026_07_06_18_18_29.758,3.832,29.9,0,0.761,0,0,0,0.004, ,0,0,0,0,0, ,-39.6,283.5,962.5,-0.1,-0.5,-1.5,25,-38.9917,283.234,960.756,-0.064319,-0.510898,-1.53641,
2026_07_06_18_18_29.770,3.832,29.9,0,0.759,0,0,0,0.004, ,0,0,0,0,0, ,-39.5,283.8,959.9,-0.1,-0.5,-1.5,25,-39.0258,283.259,960.783,-0.0664933,-0.510234,-1.53419,
2026_07_06_18_18_29.798,3.832,29.9,0,0.759,0,0,0,0.004, ,0,0,0,0,0, ,-39.1,282.1,961.6,-0.2,-0.5,-1.5,25,-39.0425,283.24,960.781,-0.071582,-0.50961,-1.53211,
2026_07_06_18_18_29.810,3.832,29.8,0,0.758,0,0,0,0.004, ,0,0,0,0,0, ,-38.8,283,960,-0.2,-0.5,-1.5,25,-39.0368,283.198,960.782,-0.0794075,-0.509024,-1.53015,
2026_07_06_18_18_29.838,3.832,29.9,0,0.759,0,0,0,0.005, ,0,0,0,0,0, ,-40,283.2,961,-0.1,-0.5,-1.5,25,-39.059,283.192,960.765,-0.0837092,-0.508475,-1.52831,
2026_07_06_18_18_29.849,3.832,29.9,0,0.759,0,0,0,0.004, ,0,0,0,0,0, ,-38.5,284.1,960,-0.1,-0.5,-1.5,25,-39.0706,283.22,960.748,-0.0847019,-0.507958,-1.52659,
2026_07_06_18_18_29.877,3.832,29.9,0,0.759,0,0,0,0.004, ,0,0,0,0,0, ,-38,282.8,962.6,-0.1,-0.5,-1.5,25,-39.0206,283.234,960.782,-0.0856341,-0.507473,-1.52497,
2026_07_06_18_18_29.889,3.832,29.9,0,0.758,0,0,0,0.004, ,0,0,0,0,0, ,-38.4,284.3,961.6,-0.1,-0.5,-1.5,25,-38.9706,283.254,960.862,-0.0865096,-0.507018,-1.52345,
2026_07_06_18_18_29.916,3.832,29.9,0,0.759,0,0,0,0.004, ,0,0,0,0,0, ,-39.1,284,960,0,-0.5,-1.6,25,-38.9572,283.308,960.859,-0.0842848,-0.50659,-1.52506,
2026_07_06_18_18_29.928,3.832,29.9,0,0.759,0,0,0,0.004, ,0,0,0,0,0, ,-38.6,282.1,961.6,0,-0.5,-1.5,25,-38.9506,283.292,960.855,-0.0791487,-0.506189,-1.52658,
2026_07_06_18_18_29.955,3.832,29.8,0,0.759,0,0,0,0.004, ,0,0,0,0,0, ,-38.9,282.2,961.5,0,-0.5,-1.6,25,-38.9384,283.223,960.897,-0.0743255,-0.505811,-1.52801,
2026_07_06_18_18_29.968,3.832,29.9,0,0.76,0,0,0,0.005, ,0,0,0,0,0, ,-39,283.9,960.9,0.1,-0.6,-1.5,25,-38.9391,283.212,960.916,-0.0667495,-0.508504,-1.52935,
2026_07_06_18_18_29.998,3.832,29.9,0,0.76,0,0,0,0.004, ,0,0,0,0,0, ,-39.6,282.2,960.4,0,-0.5,-1.5,25,-38.9611,283.202,960.9,-0.059635,-0.511033,-1.52756,
2026_07_06_18_18_30.008,3.832,29.9,0,0.76,0,0,0,0.004, ,0,0,0,0,0, ,-39,283.6,961.7,0,-0.5,-1.6,25,-38.9818,283.184,960.909,-0.056001,-0.510361,-1.52893,
2026_07_06_18_18_30.035,3.832,29.9,0,0.759,0,0,0,0.004, ,0,0,0,0,0, ,-38.6,283.3,960.9,0,-0.5,-1.5,25,-38.9707,283.2,960.933,-0.0525885,-0.509729,-1.53021,
2026_07_06_18_18_30.049,3.832,29.9,0,0.759,0,0,0,0.004, ,0,0,0,0,0, ,-38.8,282.8,960.9,0,-0.5,-1.6,25,-38.9542,283.191,960.931,-0.0493839,-0.509136,-1.53142,
2026_07_06_18_18_30.076,3.832,29.9,0,0.76,0,0,0,0.004, ,0,0,0,0,0, ,-37.7,282.4,960.8,-0.1,-0.5,-1.5,25,-38.9113,283.155,960.926,-0.0494214,-0.50858,-1.53255,
2026_07_06_18_18_30.087,3.832,29.9,0,0.759,0,0,0,0.004, ,0,0,0,0,0, ,-39.3,282.4,961.3,-0.1,-0.5,-1.5,25,-38.8862,283.109,960.933,-0.0525035,-0.508057,-1.53057,
2026_07_06_18_18_30.116,3.832,30,0,0.758,0,0,0,0.004, ,0,0,0,0,0, ,-38.6,282.3,960.8,-0.1,-0.5,-1.5,25,-38.8901,283.063,960.94,-0.0553978,-0.507566,-1.52871,
2026_07_06_18_18_30.126,3.832,30,0,0.758,0,0,0,0.004, ,0,0,0,0,0, ,-39.1,283.5,960.9,-0.1,-0.5,-1.6,25,-38.8877,283.053,960.935,-0.0581158,-0.507105,-1.53,
2026_07_06_18_18_30.155,3.832,29.9,0,0.758,0,0,0,0.004, ,0,0,0,0,0, ,-38.2,282.8,961,-0.1,-0.6,-1.5,25,-38.8732,283.059,960.936,-0.0606681,-0.509719,-1.53122,
2026_07_06_18_18_30.166,3.832,29.9,0,0.759,0,0,0,0.004, ,0,0,0,0,0, ,-38.4,284.6,960.9,-0.1,-0.5,-1.6,25,-38.8382,283.098,960.937,-0.0630649,-0.512173,-1.53237,
2026_07_06_18_18_30.196,3.832,29.9,0,0.759,0,0,0,0.004, ,0,0,0,0,0, ,-38.6,282.2,962.4,-0.1,-0.5,-1.5,25,-38.8176,283.116,960.98,-0.0653156,-0.511432,-1.53344,
2026_07_06_18_18_30.206,3.832,29.9,0,0.76,0,0,0,0.004, ,0,0,0,0,0, ,-38.5,283.6,960.4,-0.1,-0.5,-1.5,25,-38.8013,283.103,961.006,-0.0674292,-0.510735,-1.5314,
2026_07_06_18_18_30.235,3.832,29.9,0,0.759,0,0,0,0.004, ,0,0,0,0,0, ,-39,283.2,960.6,-0.1,-0.5,-1.6,25,-38.7982,283.121,960.975,-0.069414,-0.510081,-1.53254,
2026_07_06_18_18_30.245,3.832,29.8,0,0.76,0,0,0,0.004, ,0,0,0,0,0, ,-39.6,284.7,961.9,0,-0.5,-1.6,25,-38.8288,283.172,960.992,-0.068231,-0.509466,-1.53665,
2026_07_06_18_18_30.273,3.832,29.9,0,0.76,0,0,0,0.005, ,0,0,0,0,0, ,-39.5,281.8,960.4,0,-0.5,-1.4,25,-38.8727,283.176,961.001,-0.0640731,-0.50889,-1.53441,
2026_07_06_18_18_30.285,3.832,29.9,0,0.76,0,0,0,0.005, ,0,0,0,0,0, ,-38.5,282.4,960.4,0,-0.5,-1.5,25,-38.8805,283.111,960.965,-0.0601687,-0.508348,-1.52927,
2026_07_06_18_18_30.313,3.832,30,0,0.759,0,0,0,0.004, ,0,0,0,0,0, ,-39.1,283.9,961.3,0,-0.5,-1.6,25,-38.8756,283.113,960.958,-0.0565021,-0.507839,-1.53053,
2026_07_06_18_18_30.324,3.832,29.9,0,0.758,0,0,0,0.004, ,0,0,0,0,0, ,-38.9,283.2,960.3,0,-0.5,-1.5,25,-38.8832,283.14,960.948,-0.053059,-0.507361,-1.53172,
2026_07_06_18_18_30.354,3.832,29.8,0,0.758,0,0,0,0.005, ,0,0,0,0,0, ,-38.9,282.9,961.5,-0.2,-0.5,-1.6,25,-38.8842,283.134,960.945,-0.0559195,-0.506913,-1.53283,
2026_07_06_18_18_30.364,3.832,30,0,0.76,0,0,0,0.005, ,0,0,0,0,0, ,-37.9,284.5,961,-0.2,-0.5,-1.5,25,-38.8547,283.169,960.964,-0.0646994,-0.506492,-1.53388,
2026_07_06_18_18_30.394,3.832,30,0,0.76,0,0,0,0.004, ,0,0,0,0,0, ,-39.9,283.9,960.4,-0.1,-0.5,-1.6,25,-38.8574,283.232,960.948,-0.0698974,-0.506096,-1.53486,
2026_07_06_18_18_30.403,3.832,29.9,0,0.76,0,0,0,0.004, ,0,0,0,0,0, ,-37.4,283.6,961,-0.1,-0.5,-1.6,25,-38.8448,283.263,960.933,-0.0717318,-0.505725,-1.53883,
2026_07_06_18_18_30.433,3.832,29.9,0,0.759,0,0,0,0.005, ,0,0,0,0,0, ,-37.8,284.3,960.6,-0.1,-0.5,-1.5,25,-38.7689,283.305,960.924,-0.0734544,-0.505376,-1.53951,
2026_07_06_18_18_30.443,3.832,29.9,0,0.76,0,0,0,0.005, ,0,0,0,0,0, ,-40,283.2,960.4,-0.1,-0.5,-1.6,25,-38.7769,283.332,960.899,-0.075072,-0.505048,-1.54015,
2026_07_06_18_18_30.470,3.832,30,0,0.759,0,0,0,0.005, ,0,0,0,0,0, ,-39.4,283.5,961.3,0,-0.5,-1.6,25,-38.8332,283.333,960.896,-0.0735442,-0.504741,-1.5438,
2026_07_06_18_18_30.482,3.832,30,0,0.76,0,0,0,0.004, ,0,0,0,0,0, ,-40.1,283.8,961.7,0,-0.5,-1.6,25,-38.889,283.353,960.932,-0.0690626,-0.504452,-1.54722,
2026_07_06_18_18_30.514,3.832,30,0,0.76,0,0,0,0.004, ,0,0,0,0,0, ,-39.5,283.5,961.4,0,-0.5,-1.6,25,-38.9446,283.371,960.97,-0.0648541,-0.50418,-1.55044,
2026_07_06_18_18_30.522,3.832,30,0,0.76,0,0,0,0.004, ,0,0,0,0,0, ,-39.7,282.1,961.4,0,-0.5,-1.6,25,-38.9845,283.336,960.996,-0.060902,-0.503926,-1.55346,
2026_07_06_18_18_30.551,3.832,30,0,0.76,0,0,0,0.004, ,0,0,0,0,0, ,-39.7,283.5,960.9,0,-0.5,-1.5,25,-39.0281,283.303,961.006,-0.0571908,-0.503686,-1.55325,
2026_07_06_18_18_30.561,3.832,29.9,0,0.759,0,0,0,0.004, ,0,0,0,0,0, ,-39.7,282.9,960.5,0,-0.5,-1.6,25,-39.069,283.297,960.987,-0.0537058,-0.503462,-1.55305,
2026_07_06_18_18_30.590,3.832,29.9,0,0.76,0,0,0,0.005, ,0,0,0,0,0, ,-39.5,283.5,961.5,0,-0.5,-1.6,25,-39.1014,283.291,960.988,-0.0504331,-0.503251,-1.55591,
2026_07_06_18_18_30.601,3.832,30,0,0.759,0,0,0,0.005, ,0,0,0,0,0, ,-39,283,959.3,0,-0.5,-1.5,25,-39.1105,283.289,960.952,-0.0473598,-0.503053,-1.55555,
2026_07_06_18_18_30.630,3.832,30,0,0.758,0,0,0,0.004, ,0,0,0,0,0, ,-39,282.7,960.8,0,-0.5,-1.5,25,-39.1037,283.262,960.897,-0.0444738,-0.502867,-1.55217,
2026_07_06_18_18_30.642,3.832,30,0,0.759,0,0,0,0.004, ,0,0,0,0,0, ,-40,282.9,959.9,-0.1,-0.6,-1.5,25,-39.1279,283.234,960.864,-0.0448106,-0.505739,-1.54899,
2026_07_06_18_18_30.670,3.832,30.1,0,0.76,0,0,0,0.004, ,0,0,0,0,0, ,-38.4,282.9,960.8,-0.1,-0.5,-1.6,25,-39.1323,283.213,960.832,-0.0481737,-0.508436,-1.54905,
2026_07_06_18_18_30.680,3.832,30.1,0,0.761,0,0,0,0.003, ,0,0,0,0,0, ,-38.5,281.9,960.4,-0.1,-0.5,-1.6,25,-39.0907,283.164,960.818,-0.0513318,-0.507922,-1.55215,
2026_07_06_18_18_30.710,3.832,29.9,0,0.759,0,0,0,0.003, ,0,0,0,0,0, ,-39.3,282.5,960.5,-0.2,-0.5,-1.5,25,-39.0791,283.105,960.796,-0.0573444,-0.507439,-1.55202,
2026_07_06_18_18_30.720,3.832,30,0,0.759,0,0,0,0.005, ,0,0,0,0,0, ,-38.6,284.1,962.4,-0.1,-0.5,-1.5,25,-39.0712,283.117,960.836,-0.0629906,-0.506986,-1.54885,
2026_07_06_18_18_30.749,3.832,30,0,0.759,0,0,0,0.004, ,0,0,0,0,0, ,-39.1,284.9,961.4,-0.1,-0.5,-1.6,25,-39.0577,283.201,960.901,-0.0652459,-0.50656,-1.54892,
2026_07_06_18_18_30.760,3.832,29.9,0,0.759,0,0,0,0.004, ,0,0,0,0,0, ,-38.9,282.5,961.7,-0.1,-0.5,-1.6,25,-39.0542,283.232,960.94,-0.0673637,-0.50616,-1.55203,
2026_07_06_18_18_30.788,3.832,29.9,0,0.759,0,0,0,0.005, ,0,0,0,0,0, ,-38.8,284.4,960.4,0,-0.5,-1.5,25,-39.0418,283.245,960.947,-0.0663056,-0.505785,-1.55191,
2026_07_06_18_18_30.798,3.832,29.9,0,0.759,0,0,0,0.005, ,0,0,0,0,0, ,-39.5,284,960.6,-0.1,-0.5,-1.6,25,-39.0484,283.303,960.92,-0.065312,-0.505433,-1.55179,
2026_07_06_18_18_30.829,3.832,30,0,0.759,0,0,0,0.005, ,0,0,0,0,0, ,-38.3,283,961.4,0,-0.5,-1.6,25,-39.0393,283.315,960.924,-0.0643789,-0.505101,-1.55473,
2026_07_06_18_18_30.838,3.832,30,0,0.759,0,0,0,0.004, ,0,0,0,0,0, ,-39.4,283.8,961.3,0,-0.5,-1.6,25,-39.0278,283.32,960.95,-0.0604558,-0.504791,-1.55749,
2026_07_06_18_18_30.868,3.832,29.9,0,0.759,0,0,0,0.004, ,0,0,0,0,0, ,-38.6,284.9,961.4,0,-0.5,-1.5,25,-39.0261,283.383,960.975,-0.0567718,-0.504499,-1.55703,
2026_07_06_18_18_30.878,3.832,30,0,0.759,0,0,0,0.005, ,0,0,0,0,0, ,-38.6,284.7,960,0,-0.4,-1.5,25,-39.0001,283.469,960.958,-0.0533123,-0.501178,-1.55356,
2026_07_06_18_18_30.907,3.832,29.9,0,0.759,0,0,0,0.004, ,0,0,0,0,0, ,-39,282.3,961,0,-0.6,-1.6,25,-38.9879,283.471,960.93,-0.0500636,-0.501106,-1.55334,
2026_07_06_18_18_30.918,3.832,30,0,0.759,0,0,0,0.005, ,0,0,0,0,0, ,-38.2,282.8,960.2,0,-0.5,-1.5,25,-38.9643,283.415,960.91,-0.0470128,-0.504085,-1.55314,
2026_07_06_18_18_30.946,3.832,30,0,0.76,0,0,0,0.004, ,0,0,0,0,0, ,-39.9,282.5,961,-0.1,-0.5,-1.6,25,-38.9695,283.368,960.891,-0.0471948,-0.503836,-1.55295,
2026_07_06_18_18_30.957,3.832,30,0,0.758,0,0,0,0.004, ,0,0,0,0,0, ,-39,283.2,961.7,-0.1,-0.5,-1.6,25,-38.9988,283.337,960.919,-0.0504127,-0.503603,-1.55581,
2026_07_06_18_18_30.987,3.832,30,0,0.759,0,0,0,0.004, ,0,0,0,0,0, ,-38.6,281.8,959.9,-0.1,-0.5,-1.6,25,-38.9867,283.286,960.912,-0.0534344,-0.503383,-1.55851,
2026_07_06_18_18_30.997,3.832,30,0,0.759,0,0,0,0.004, ,0,0,0,0,0, ,-38.9,283.6,960.6,0,-0.6,-1.5,25,-38.9723,283.25,960.871,-0.0532251,-0.506224,-1.55799,
2026_07_06_18_18_31.026,3.832,29.9,0,0.758,0,0,0,0.004, ,0,0,0,0,0, ,-38.8,284.6,961,0,-0.4,-1.6,25,-38.9648,283.302,960.867,-0.0499817,-0.505845,-1.5575,
2026_07_06_18_18_31.037,3.832,30,0,0.759,0,0,0,0.005, ,0,0,0,0,0, ,-39.4,283.3,961.7,0,-0.5,-1.6,25,-38.973,283.341,960.897,-0.0469359,-0.502442,-1.56009,
2026_07_06_18_18_31.066,3.832,29.9,0,0.758,0,0,0,0.004, ,0,0,0,0,0, ,-38.9,283.6,960.9,0,-0.5,-1.5,25,-38.9838,283.348,960.921,-0.0440758,-0.502293,-1.55948,
2026_07_06_18_18_31.076,3.832,30.1,0,0.759,0,0,0,0.005, ,0,0,0,0,0, ,-39.4,282.8,960.4,0,-0.5,-1.5,25,-38.994,283.339,960.905,-0.0413899,-0.502153,-1.55585,
2026_07_06_18_18_31.105,3.832,29.9,0,0.759,0,0,0,0.003, ,0,0,0,0,0, ,-38.8,281.9,961.1,0,-0.5,-1.5,25,-39.0004,283.279,960.895,-0.0388677,-0.502022,-1.55245,
2026_07_06_18_18_31.116,3.832,30,0,0.759,0,0,0,0.005, ,0,0,0,0,0, ,-39,282.8,960.8,-0.1,-0.5,-1.6,25,-38.9943,283.222,960.899,-0.0395461,-0.501899,-1.5523,
2026_07_06_18_18_31.144,3.832,30.1,0,0.759,0,0,0,0.004, ,0,0,0,0,0, ,-39.1,281.6,961.7,0,-0.5,-1.5,25,-38.9977,283.16,960.92,-0.0401831,-0.501783,-1.55216,
2026_07_06_18_18_31.155,3.832,29.9,0,0.759,0,0,0,0.003, ,0,0,0,0,0, ,-38.9,283.8,961.4,-0.1,-0.5,-1.5,25,-38.9978,283.132,960.958,-0.0407813,-0.501674,-1.54898,
2026_07_06_18_18_31.186,3.832,30,0,0.759,0,0,0,0.005, ,0,0,0,0,0, ,-39,282.8,961,-0.2,-0.5,-1.6,25,-38.9949,283.142,960.973,-0.0474368,-0.501572,-1.54904,
2026_07_06_18_18_31.200,3.832,30,0,0.759,0,0,0,0.004, ,0,0,0,0,0, ,-39.4,283.3,959.4,0,-0.5,-1.6,25,-39.0074,283.137,960.926,-0.0506399,-0.501476,-1.55215,
2026_07_06_18_18_31.229,3.832,29.9,0,0.759,0,0,0,0.004, ,0,0,0,0,0, ,-39.3,282.2,962.7,-0.1,-0.5,-1.5,25,-39.0283,283.113,960.934,-0.0506009,-0.501386,-1.55202,
2026_07_06_18_18_31.235,3.832,30,0,0.759,0,0,0,0.005, ,0,0,0,0,0, ,-38.6,283.2,960.8,-0.1,-0.5,-1.6,25,-39.0235,283.088,960.983,-0.0536112,-0.501302,-1.55189,
2026_07_06_18_18_31.264,3.832,30.1,0,0.76,0,0,0,0.004, ,0,0,0,0,0, ,-38.5,282.4,960.8,-0.1,-0.5,-1.6,25,-38.9947,283.07,960.972,-0.056438,-0.501223,-1.55483,
2026_07_06_18_18_31.274,3.832,30.1,0,0.76,0,0,0,0.003, ,0,0,0,0,0, ,-38.8,283.6,961.6,-0.2,-0.5,-1.6,25,-38.9737,283.066,960.986,-0.0621394,-0.501148,-1.55758,
2026_07_06_18_18_31.303,3.832,29.8,0,0.759,0,0,0,0.003, ,0,0,0,0,0, ,-38.6,282.8,961.1,-0.2,-0.5,-1.5,25,-38.957,283.074,961.008,-0.0705403,-0.501078,-1.55712,
2026_07_06_18_18_31.314,3.832,30,0,0.759,0,0,0,0.005, ,0,0,0,0,0, ,-39.6,284.4,960,-0.1,-0.5,-1.5,25,-38.9657,283.106,960.98,-0.0753824,-0.501012,-1.55364,
2026_07_06_18_18_31.342,3.832,29.9,0,0.76,0,0,0,0.004, ,0,0,0,0,0, ,-38.9,282.4,961.3,-0.1,-0.4,-1.6,25,-38.983,283.124,960.96,-0.0768825,-0.497904,-1.55341,
2026_07_06_18_18_31.353,3.832,30,0,0.759,0,0,0,0.005, ,0,0,0,0,0, ,-39.3,283.2,961.4,0,-0.5,-1.6,25,-38.9902,283.104,960.984,-0.0752444,-0.494985,-1.55625,
2026_07_06_18_18_31.383,3.832,30.1,0,0.759,0,0,0,0.004, ,0,0,0,0,0, ,-38.9,284,958.8,0,-0.5,-1.5,25,-38.9968,283.135,960.93,-0.0706592,-0.49529,-1.55587,
2026_07_06_18_18_31.392,3.832,30,0,0.759,0,0,0,0.003, ,0,0,0,0,0, ,-39.3,284.1,962.1,0,-0.5,-1.6,25,-39.0031,283.19,960.901,-0.0663534,-0.495577,-1.55551,
2026_07_06_18_18_31.421,3.832,30,0,0.759,0,0,0,0.004, ,0,0,0,0,0, ,-40.4,283.2,961.5,-0.1,-0.5,-1.6,25,-39.0547,283.218,960.956,-0.0653568,-0.495847,-1.55823,
2026_07_06_18_18_31.432,3.832,30,0,0.758,0,0,0,0.004, ,0,0,0,0,0, ,-39.5,284.5,961.9,0,-0.5,-1.6,25,-39.1093,283.257,961.001,-0.064421,-0.4961,-1.56077,
2026_07_06_18_18_31.461,3.832,30,0,0.759,0,0,0,0.004, ,0,0,0,0,0, ,-40.4,282.4,960,0,-0.5,-1.4,25,-39.1605,283.269,960.998,-0.0604954,-0.496338,-1.55707,
2026_07_06_18_18_31.472,3.832,30,0,0.759,0,0,0,0.004, ,0,0,0,0,0, ,-38.3,283.9,961.3,0,-0.5,-1.6,25,-39.1721,283.261,960.977,-0.0568089,-0.496561,-1.55359,
2026_07_06_18_18_31.502,3.832,30,0,0.758,0,0,0,0.004, ,0,0,0,0,0, ,-38.8,282.5,959.7,0,-0.5,-1.6,25,-39.1342,283.258,960.948,-0.0533471,-0.49677,-1.55642,
2026_07_06_18_18_31.512,3.832,29.9,0,0.759,0,0,0,0.004, ,0,0,0,0,0, ,-39.9,282.2,962.7,0,-0.5,-1.5,25,-39.1473,283.202,960.963,-0.0500963,-0.496967,-1.55603,
2026_07_06_18_18_31.542,3.832,29.9,0,0.759,0,0,0,0.005, ,0,0,0,0,0, ,-39,281.4,961.6,-0.1,-0.4,-1.6,25,-39.1658,283.117,961.035,-0.0500904,-0.494105,-1.55566,
2026_07_06_18_18_31.552,3.832,30.1,0,0.759,0,0,0,0.005, ,0,0,0,0,0, ,-38.2,283,962.1,-0.2,-0.5,-1.5,25,-39.1313,283.061,961.085,-0.0561787,-0.491417,-1.55531,
2026_07_06_18_18_31.582,3.832,29.9,0,0.76,0,0,0,0.003, ,0,0,0,0,0, ,-37.9,282.5,960.5,-0.2,-0.5,-1.6,25,-39.0654,283.042,961.098,-0.0649428,-0.49194,-1.55499,
2026_07_06_18_18_31.590,3.832,29.9,0,0.759,0,0,0,0.005, ,0,0,0,0,0, ,-38.6,283.2,962.5,-0.1,-0.5,-1.6,25,-39.0157,283.03,961.123,-0.070126,-0.492432,-1.55773,
2026_07_06_18_18_31.620,3.832,30,0,0.759,0,0,0,0.005, ,0,0,0,0,0, ,-38.6,282.8,961.6,-0.1,-0.5,-1.6,25,-38.9904,283.028,961.179,-0.0719464,-0.492893,-1.56031,
2026_07_06_18_18_31.630,3.832,29.9,0,0.761,0,0,0,0.004, ,0,0,0,0,0, ,-38,283.6,961.7,-0.2,-0.5,-1.6,25,-38.9483,283.039,961.208,-0.0767028,-0.493326,-1.56273,
2026_07_06_18_18_31.660,3.832,30,0,0.76,0,0,0,0.005, ,0,0,0,0,0, ,-37.8,284,960.3,-0.1,-0.5,-1.5,25,-38.8844,283.085,961.195,-0.0811693,-0.493733,-1.56195,
2026_07_06_18_18_31.670,3.832,30,0,0.759,0,0,0,0.004, ,0,0,0,0,0, ,-38.3,282.8,961.3,0,-0.5,-1.6,25,-38.8336,283.104,961.171,-0.07927,-0.494115,-1.56122,
2026_07_06_18_18_31.701,3.832,30,0,0.759,0,0,0,0.004, ,0,0,0,0,0, ,-38.9,282.5,961.4,-0.1,-0.5,-1.5,25,-38.8193,283.077,961.182,-0.0774863,-0.494473,-1.56054,
2026_07_06_18_18_31.710,3.832,30,0,0.76,0,0,0,0.004, ,0,0,0,0,0, ,-39.4,282.3,961.4,0,-0.5,-1.5,25,-38.8395,283.036,961.195,-0.0758114,-0.49481,-1.55685,
2026_07_06_18_18_31.740,3.832,30,0,0.759,0,0,0,0.004, ,0,0,0,0,0, ,-39.6,283.3,960.5,-0.1,-0.4,-1.5,25,-38.8797,283.021,961.18,-0.0742385,-0.492079,-1.55339,
2026_07_06_18_18_31.750,3.832,30,0,0.759,0,0,0,0.004, ,0,0,0,0,0, ,-39.4,282.4,961,-0.1,-0.5,-1.6,25,-38.9175,283.011,961.154,-0.0758083,-0.489515,-1.55318,
2026_07_06_18_18_31.781,3.832,30,0,0.759,0,0,0,0.004, ,0,0,0,0,0, ,-40,282.5,960.9,-0.1,-0.5,-1.7,25,-38.9652,282.977,961.142,-0.0772825,-0.490154,-1.55908,
2026_07_06_18_18_31.788,3.832,30,0,0.76,0,0,0,0.004, ,0,0,0,0,0, ,-38.6,283.9,961.6,-0.1,-0.5,-1.5,25,-38.9856,282.99,961.148,-0.0786669,-0.490754,-1.56157,
2026_07_06_18_18_31.818,3.832,30,0,0.758,0,0,0,0.004, ,0,0,0,0,0, ,-39,282.9,960.9,-0.1,-0.5,-1.5,25,-38.9743,283.015,961.154,-0.0799669,-0.491317,-1.55782,
2026_07_06_18_18_31.834,3.832,30,0,0.76,0,0,0,0.004, ,0,0,0,0,0, ,-38.2,282.8,960.5,-0.1,-0.5,-1.5,25,-38.9515,283.005,961.127,-0.0811876,-0.491847,-1.5543,
2026_07_06_18_18_31.864,3.832,30,0,0.758,0,0,0,0.004, ,0,0,0,0,0, ,-38.4,283.5,960.8,-0.2,-0.5,-1.6,25,-38.9118,283.014,961.098,-0.0853809,-0.492343,-1.55404,
2026_07_06_18_18_31.871,3.832,30,0,0.76,0,0,0,0.004, ,0,0,0,0,0, ,-39.3,283.9,961,-0.1,-0.5,-1.6,25,-38.908,283.056,961.086,-0.0893186,-0.49281,-1.55684,
2026_07_06_18_18_31.903,3.832,30,0,0.758,0,0,0,0.004, ,0,0,0,0,0, ,-38.8,283.5,961,0,-0.5,-1.6,25,-38.9167,283.095,961.08,-0.0869226,-0.493248,-1.55947,
2026_07_06_18_18_31.910,3.832,30,0,0.759,0,0,0,0.004, ,0,0,0,0,0, ,-40.7,282.8,961.3,0,-0.5,-1.5,25,-38.9675,283.098,961.085,-0.0816258,-0.49366,-1.55889,
2026_07_06_18_18_31.941,3.832,30,0,0.758,0,0,0,0.004, ,0,0,0,0,0, ,-38.5,282.9,961.3,0,-0.5,-1.6,25,-39.006,283.083,961.098,-0.0766517,-0.494046,-1.55835,
2026_07_06_18_18_31.947,3.832,30,0,0.759,0,0,0,0.004, ,0,0,0,0,0, ,-38.4,283,962.8,0,-0.4,-1.5,25,-38.9721,283.075,961.156,-0.0719807,-0.491362,-1.55784,
2026_07_06_18_18_31.977,3.832,29.9,0,0.76,0,0,0,0.004, ,0,0,0,0,0, ,-38.9,282.7,959.8,0,-0.5,-1.5,25,-38.9525,283.061,961.165,-0.0675944,-0.488841,-1.55432,
2026_07_06_18_18_31.986,3.832,30,0,0.759,0,0,0,0.005, ,0,0,0,0,0, ,-38.4,282.1,961.3,0,-0.5,-1.5,25,-38.9341,283.021,961.127,-0.0634754,-0.489521,-1.55101,
2026_07_06_18_18_32.018,3.832,30,0,0.759,0,0,0,0.004, ,0,0,0,0,0, ,-39.5,283.9,960.2,0,-0.5,-1.5,25,-38.935,283.02,961.104,-0.0596074,-0.49016,-1.5479,
2026_07_06_18_18_32.026,3.832,30,0,0.759,0,0,0,0.004, ,0,0,0,0,0, ,-39.1,282.3,960.2,0,-0.5,-1.5,25,-38.9573,283.025,961.049,-0.055975,-0.49076,-1.54498,
2026_07_06_18_18_32.057,3.832,30,0,0.759,0,0,0,0.004, ,0,0,0,0,0, ,-38.6,283.6,959.9,0,-0.5,-1.6,25,-38.9507,283.02,960.988,-0.0525641,-0.491323,-1.54528,
2026_07_06_18_18_32.067,3.832,30,0,0.759,0,0,0,0.004, ,0,0,0,0,0, ,-40.5,281.7,962.1,-0.1,-0.5,-1.6,25,-38.9873,282.998,960.989,-0.0524078,-0.491851,-1.54862,
2026_07_06_18_18_32.099,3.832,30,0,0.759,0,0,0,0.004, ,0,0,0,0,0, ,-39,283,960.6,-0.2,-0.6,-1.6,25,-39.0337,282.958,961.011,-0.0583548,-0.495395,-1.55175,
2026_07_06_18_18_32.105,3.832,30,0,0.76,0,0,0,0.004, ,0,0,0,0,0, ,-39.5,285,961.1,-0.1,-0.5,-1.6,25,-39.0469,283.022,961.001,-0.0639395,-0.498722,-1.55469,
2026_07_06_18_18_32.135,3.832,30,0,0.759,0,0,0,0.004, ,0,0,0,0,0, ,-39.5,282.8,960.8,-0.2,-0.5,-1.6,25,-39.0745,283.075,960.998,-0.0691838,-0.4988,-1.55745,
2026_07_06_18_18_32.145,3.832,30,0,0.76,0,0,0,0.004, ,0,0,0,0,0, ,-39.6,283.2,961,-0.1,-0.5,-1.6,25,-39.1035,283.071,960.992,-0.0741085,-0.498873,-1.56004,
2026_07_06_18_18_32.175,3.832,30,0,0.76,0,0,0,0.004, ,0,0,0,0,0, ,-38.3,283.5,962.1,-0.1,-0.5,-1.5,25,-39.0941,283.088,961.026,-0.0756863,-0.498942,-1.55943,
2026_07_06_18_18_32.184,3.832,29.9,0,0.759,0,0,0,0.004, ,0,0,0,0,0, ,-39.7,284.1,961,-0.1,-0.5,-1.6,25,-39.0884,283.131,961.058,-0.0771679,-0.499006,-1.55886,
2026_07_06_18_18_32.216,3.832,30,0,0.76,0,0,0,0.005, ,0,0,0,0,0, ,-38,283.8,960.3,-0.1,-0.6,-1.6,25,-39.0739,283.181,961.033,-0.0785592,-0.502114,-1.56136,
2026_07_06_18_18_32.224,3.832,30,0,0.759,0,0,0,0.004, ,0,0,0,0,0, ,-37.7,283.8,960.4,0,-0.6,-1.5,25,-38.9993,283.219,960.991,-0.0768189,-0.508079,-1.56067,
2026_07_06_18_18_32.256,3.832,30,0,0.759,0,0,0,0.004, ,0,0,0,0,0, ,-39.1,283.9,961,0,-0.5,-1.5,25,-38.9628,283.257,960.974,-0.0721377,-0.510633,-1.55697,
2026_07_06_18_18_32.264,3.832,30,0,0.76,0,0,0,0.004, ,0,0,0,0,0, ,-39.3,282.5,961.1,0,-0.5,-1.6,25,-38.9772,283.254,960.978,-0.0677419,-0.509985,-1.55655,
2026_07_06_18_18_32.293,3.832,30,0,0.759,0,0,0,0.004, ,0,0,0,0,0, ,-39.4,284.4,961.3,0,-0.5,-1.5,25,-39,283.266,960.992,-0.0636138,-0.509377,-1.55615,
2026_07_06_18_18_32.303,3.832,30,0,0.76,0,0,0,0.004, ,0,0,0,0,0, ,-38.4,284,960.5,0,-0.5,-1.6,25,-38.9939,283.323,960.986,-0.0597374,-0.508806,-1.55578,
2026_07_06_18_18_32.335,3.832,30,0,0.759,0,0,0,0.004, ,0,0,0,0,0, ,-37.9,283.5,960.2,0,-0.5,-1.5,25,-38.9424,283.349,960.947,-0.0560971,-0.508269,-1.55542,
2026_07_06_18_18_32.343,3.832,30,0,0.759,0,0,0,0.004, ,0,0,0,0,0, ,-39.3,284.1,961.6,-0.1,-0.5,-1.6,25,-38.9216,283.376,960.945,-0.0557256,-0.507765,-1.55509,
2026_07_06_18_18_32.373,3.832,30,0,0.76,0,0,0,0.004, ,0,0,0,0,0, ,-38.6,283.8,960.8,0,-0.5,-1.5,25,-38.9233,283.411,960.96,-0.0553767,-0.507292,-1.55478,
2026_07_06_18_18_32.382,3.832,30,0,0.759,0,0,0,0.004, ,0,0,0,0,0, ,-38.4,283.2,960,0,-0.5,-1.5,25,-38.8975,283.416,960.926,-0.0520022,-0.506848,-1.55144,
2026_07_06_18_18_32.412,3.832,30,0,0.76,0,0,0,0.004, ,0,0,0,0,0, ,-38.4,283.8,961.6,0,-0.5,-1.5,25,-38.8672,283.422,960.918,-0.0488333,-0.50643,-1.54831,
2026_07_06_18_18_32.421,3.832,30,0,0.76,0,0,0,0.004, ,0,0,0,0,0, ,-39.6,283.3,960.2,0,-0.5,-1.5,25,-38.8753,283.429,960.917,-0.0458575,-0.506038,-1.54537,
2026_07_06_18_18_32.453,3.832,30.1,0,0.758,0,0,0,0.004, ,0,0,0,0,0, ,-39.7,282.5,960.4,0,-0.5,-1.5,25,-38.9225,283.397,960.88,-0.0430631,-0.50567,-1.5426,
2026_07_06_18_18_32.461,3.832,30,0,0.758,0,0,0,0.003, ,0,0,0,0,0, ,-39.5,282.9,960.9,0,-0.5,-1.6,25,-38.9638,283.355,960.866,-0.0404389,-0.505325,-1.54305,
2026_07_06_18_18_32.493,3.832,30,0,0.759,0,0,0,0.004, ,0,0,0,0,0, ,-38.6,283.4,959.9,0,-0.5,-1.5,25,-38.969,283.342,960.837,-0.0379747,-0.505,-1.54348,
2026_07_06_18_18_32.501,3.832,30.1,0,0.757,0,0,0,0.004, ,0,0,0,0,0, ,-38.6,282.9,959.5,-0.1,-0.5,-1.6,25,-38.9465,283.33,960.768,-0.0387075,-0.504696,-1.54387,
2026_07_06_18_18_32.532,3.832,30,0,0.76,0,0,0,0.003, ,0,0,0,0,0, ,-39.5,281.8,960.9,-0.1,-0.5,-1.6,25,-38.9528,283.271,960.733,-0.0424425,-0.50441,-1.54729,
2026_07_06_18_18_32.540,3.832,30,0,0.759,0,0,0,0.004, ,0,0,0,0,0, ,-37.5,282.7,961.7,-0.1,-0.5,-1.6,25,-38.9253,283.209,960.768,-0.0459499,-0.504141,-1.55051,
2026_07_06_18_18_32.572,3.832,30,0,0.761,0,0,0,0.004, ,0,0,0,0,0, ,-39.1,283,961,-0.1,-0.5,-1.6,25,-38.8872,283.187,960.803,-0.0492436,-0.503889,-1.55352,
2026_07_06_18_18_32.579,3.832,30.1,0,0.759,0,0,0,0.004, ,0,0,0,0,0, ,-38.4,282.3,960.5,-0.1,-0.5,-1.6,25,-38.8788,283.154,960.8,-0.0523365,-0.503652,-1.55635,
2026_07_06_18_18_32.617,3.832,30,0,0.758,0,0,0,0.003, ,0,0,0,0,0, ,-38.6,283.3,961.4,-0.1,-0.5,-1.5,25,-38.8557,283.132,960.809,-0.055241,-0.503429,-1.55597,
2026_07_06_18_18_32.623,3.832,30,0,0.759,0,0,0,0.004, ,0,0,0,0,0, ,-39.5,283.8,961.6,-0.1,-0.5,-1.6,25,-38.8676,283.158,960.851,-0.0579685,-0.50322,-1.5556,
2026_07_06_18_18_32.653,3.832,30,0,0.759,0,0,0,0.004, ,0,0,0,0,0, ,-38.2,283.6,961.7,-0.1,-0.4,-1.6,25,-38.8665,283.191,960.9,-0.0605298,-0.499977,-1.55831,
2026_07_06_18_18_32.660,3.832,30.1,0,0.758,0,0,0,0.004, ,0,0,0,0,0, ,-39.9,284.6,962.1,-0.1,-0.5,-1.6,25,-38.8777,283.246,960.961,-0.062935,-0.496932,-1.56085,
2026_07_06_18_18_32.689,3.832,30,0,0.761,0,0,0,0.003, ,0,0,0,0,0, ,-39.4,283.3,961.3,-0.1,-0.5,-1.5,25,-38.9247,283.289,961.006,-0.0651937,-0.497118,-1.56019,
2026_07_06_18_18_32.700,3.832,30.1,0,0.759,0,0,0,0.004, ,0,0,0,0,0, ,-37.8,283.3,960.3,0,-0.5,-1.6,25,-38.9049,283.29,960.993,-0.0642678,-0.497294,-1.55957,
2026_07_06_18_18_32.733,3.832,30.1,0,0.758,0,0,0,0.003, ,0,0,0,0,0, ,-39.9,284.1,960.6,-0.1,-0.5,-1.6,25,-38.9016,283.315,960.96,-0.0633984,-0.497459,-1.56203,
2026_07_06_18_18_32.739,3.832,30,0,0.758,0,0,0,0.003, ,0,0,0,0,0, ,-38,283.4,960.5,0,-0.5,-1.5,25,-38.9045,283.341,960.935,-0.0625819,-0.497614,-1.5613,
2026_07_06_18_18_32.780,3.832,30.1,0,0.759,0,0,0,0.004, ,0,0,0,0,0, ,-39.5,282.7,961.1,0,-0.5,-1.6,25,-38.8951,283.324,960.927,-0.0587683,-0.497759,-1.56061,
2026_07_06_18_18_32.781,3.832,30,0,0.76,0,0,0,0.003, ,0,0,0,0,0, ,-38.6,283.5,959.8,0,-0.5,-1.5,25,-38.9046,283.31,960.898,-0.0551871,-0.497896,-1.55996,
2026_07_06_18_18_32.812,3.832,30,0,0.759,0,0,0,0.004, ,0,0,0,0,0, ,-39.6,283.3,961.7,0,-0.5,-1.6,25,-38.9165,283.315,960.889,-0.0518242,-0.498024,-1.55936,
2026_07_06_18_18_32.817,3.832,30.1,0,0.76,0,0,0,0.004, ,0,0,0,0,0, ,-38.3,282.7,960.2,-0.1,-0.5,-1.6,25,-38.9185,283.296,960.893,-0.051713,-0.498144,-1.56183,
2026_07_06_18_18_32.850,3.832,30,0,0.758,0,0,0,0.003, ,0,0,0,0,0, ,-38.4,282.8,959.5,-0.1,-0.6,-1.5,25,-38.8839,283.263,960.829,-0.0546555,-0.501304,-1.56111,
2026_07_06_18_18_32.857,3.832,30,0,0.758,0,0,0,0.004, ,0,0,0,0,0, ,-39,282.4,960.6,-0.1,-0.5,-1.5,25,-38.8727,283.223,960.782,-0.0574187,-0.504272,-1.55739,
2026_07_06_18_18_32.889,3.832,30,0,0.76,0,0,0,0.004, ,0,0,0,0,0, ,-39.6,283.4,961.4,-0.1,-0.5,-1.5,25,-38.8987,283.203,960.795,-0.0600135,-0.504011,-1.55389,
2026_07_06_18_18_32.896,3.832,30.1,0,0.76,0,0,0,0.004, ,0,0,0,0,0, ,-38.9,284.1,960.5,-0.1,-0.5,-1.6,25,-38.9201,283.236,960.804,-0.0624501,-0.503767,-1.55365,
2026_07_06_18_18_32.928,3.832,30.1,0,0.759,0,0,0,0.003, ,0,0,0,0,0, ,-39,283.5,959.3,-0.1,-0.5,-1.5,25,-38.9219,283.271,960.749,-0.0647383,-0.503537,-1.55343,
2026_07_06_18_18_32.936,3.832,30.1,0,0.759,0,0,0,0.003, ,0,0,0,0,0, ,-38.2,283,960.2,-0.2,-0.5,-1.6,25,-38.9023,283.269,960.688,-0.069934,-0.503322,-1.55322,
2026_07_06_18_18_32.969,3.832,30.1,0,0.759,0,0,0,0.003, ,0,0,0,0,0, ,-40.4,283.4,960.5,-0.1,-0.5,-1.5,25,-38.9266,283.265,960.668,-0.074813,-0.503119,-1.55303,
2026_07_06_18_18_32.975,3.832,30.1,0,0.759,0,0,0,0.003, ,0,0,0,0,0, ,-39.1,281.8,961.7,-0.1,-0.5,-1.6,25,-38.9767,283.225,960.694,-0.0763478,-0.502929,-1.55284,
2026_07_06_18_18_33.007,3.832,30,0,0.759,0,0,0,0.003, ,0,0,0,0,0, ,-38.3,281.4,961.7,0,-0.5,-1.5,25,-38.9599,283.126,960.755,-0.0747423,-0.502751,-1.55267,
2026_07_06_18_18_33.015,3.832,30,0,0.758,0,0,0,0.004, ,0,0,0,0,0, ,-38.4,282.5,961.3,-0.1,-0.5,-1.6,25,-38.9227,283.054,960.801,-0.0732345,-0.502583,-1.55251,
2026_07_06_18_18_33.048,3.832,30.1,0,0.759,0,0,0,0.004, ,0,0,0,0,0, ,-39.4,282.2,961.3,-0.1,-0.6,-1.6,25,-38.9213,283.011,960.831,-0.0748655,-0.505473,-1.5554,
2026_07_06_18_18_33.055,3.832,30.2,0,0.759,0,0,0,0.003, ,0,0,0,0,0, ,-39.1,282.8,961.6,-0.1,-0.5,-1.5,25,-38.9413,282.98,960.869,-0.0763972,-0.508186,-1.55507,
2026_07_06_18_18_33.089,3.832,30.1,0,0.759,0,0,0,0.002, ,0,0,0,0,0, ,-38.8,284.5,960.8,-0.1,-0.5,-1.5,25,-38.9419,283.021,960.889,-0.0778355,-0.507687,-1.55171,
2026_07_06_18_18_33.095,3.832,30,0,0.761,0,0,0,0.003, ,0,0,0,0,0, ,-38.6,284,959.8,-0.1,-0.5,-1.6,25,-38.9271,283.096,960.853,-0.0791861,-0.507219,-1.55161,
2026_07_06_18_18_33.126,3.832,30,0,0.76,0,0,0,0.004, ,0,0,0,0,0, ,-39.1,283.4,960.9,-0.1,-0.5,-1.6,25,-38.9224,283.132,960.823,-0.0804545,-0.506779,-1.55456,
2026_07_06_18_18_33.134,3.832,30.1,0,0.76,0,0,0,0.004, ,0,0,0,0,0, ,-39.1,284.3,960.2,-0.1,-0.5,-1.6,25,-38.9333,283.176,960.806,-0.0816455,-0.506366,-1.55733,
2026_07_06_18_18_33.166,3.832,30.1,0,0.759,0,0,0,0.003, ,0,0,0,0,0, ,-39.4,284.1,961.3,0,-0.5,-1.5,25,-38.9526,283.239,960.803,-0.0797171,-0.505978,-1.55688,
2026_07_06_18_18_33.174,3.832,30.1,0,0.76,0,0,0,0.003, ,0,0,0,0,0, ,-39.5,283.2,960.3,-0.1,-0.5,-1.6,25,-38.9829,283.264,960.802,-0.0779062,-0.505614,-1.55646,
2026_07_06_18_18_33.207,3.832,30.1,0,0.759,0,0,0,0.003, ,0,0,0,0,0, ,-38.9,283.8,960.3,0,-0.5,-1.5,25,-38.9961,283.278,960.772,-0.0762057,-0.505272,-1.55607,
2026_07_06_18_18_33.213,3.832,30,0,0.759,0,0,0,0.003, ,0,0,0,0,0, ,-39.3,283.3,961.5,0,-0.5,-1.6,25,-39.0024,283.295,960.78,-0.0715619,-0.50495,-1.5557,
2026_07_06_18_18_33.245,3.832,30.1,0,0.759,0,0,0,0.004, ,0,0,0,0,0, ,-38.3,282.4,960.8,0,-0.5,-1.6,25,-38.9901,283.268,960.802,-0.0672011,-0.504649,-1.5584,
2026_07_06_18_18_33.252,3.832,30.1,0,0.76,0,0,0,0.003, ,0,0,0,0,0, ,-39.3,281.4,961.1,0,-0.5,-1.6,25,-38.9785,283.184,960.811,-0.063106,-0.504365,-1.56093,
2026_07_06_18_18_33.285,3.832,30,0,0.759,0,0,0,0.003, ,0,0,0,0,0, ,-37.3,283.4,961.3,0,-0.5,-1.5,25,-38.9372,283.136,960.835,-0.0592605,-0.504099,-1.56027,
2026_07_06_18_18_33.292,3.832,30,0,0.76,0,0,0,0.004, ,0,0,0,0,0, ,-39,283.6,960.2,0,-0.5,-1.6,25,-38.8892,283.159,960.83,-0.0556493,-0.50385,-1.55964,
2026_07_06_18_18_33.324,3.832,30,0,0.759,0,0,0,0.004, ,0,0,0,0,0, ,-39.4,281.8,960.3,-0.1,-0.5,-1.5,25,-38.9081,283.131,960.794,-0.0553051,-0.503615,-1.55905,
2026_07_06_18_18_33.332,3.832,30.1,0,0.758,0,0,0,0.004, ,0,0,0,0,0, ,-39.4,282.2,959.5,-0.2,-0.5,-1.6,25,-38.9381,283.062,960.74,-0.0610756,-0.503395,-1.5585,
2026_07_06_18_18_33.364,3.832,30.1,0,0.759,0,0,0,0.003, ,0,0,0,0,0, ,-38.6,282.3,959.9,-0.1,-0.5,-1.5,25,-38.9419,283.012,960.676,-0.0664944,-0.503188,-1.55798,
2026_07_06_18_18_33.372,3.832,30,0,0.759,0,0,0,0.003, ,0,0,0,0,0, ,-38,282.4,961.1,-0.1,-0.5,-1.5,25,-38.9028,282.972,960.666,-0.0685361,-0.502994,-1.55445,
2026_07_06_18_18_33.408,3.832,30.1,0,0.76,0,0,0,0.004, ,0,0,0,0,0, ,-38.2,284,961.5,-0.1,-0.5,-1.5,25,-38.8538,282.986,960.704,-0.0704535,-0.502811,-1.55113,
2026_07_06_18_18_33.414,3.832,30,0,0.76,0,0,0,0.003, ,0,0,0,0,0, ,-37.7,282.3,959.9,-0.1,-0.4,-1.6,25,-38.7988,282.996,960.704,-0.072254,-0.499593,-1.55106,
2026_07_06_18_18_33.447,3.832,30.1,0,0.759,0,0,0,0.004, ,0,0,0,0,0, ,-39.4,284,960.3,-0.2,-0.5,-1.5,25,-38.7836,283.005,960.667,-0.0769916,-0.496571,-1.551,
2026_07_06_18_18_33.455,3.832,30.1,0,0.76,0,0,0,0.003, ,0,0,0,0,0, ,-38.9,283.8,960.3,-0.1,-0.5,-1.5,25,-38.8059,283.06,960.645,-0.0814406,-0.49678,-1.54789,
2026_07_06_18_18_33.487,3.832,30,0,0.759,0,0,0,0.003, ,0,0,0,0,0, ,-39.9,283.4,961.4,-0.1,-0.5,-1.5,25,-38.8421,283.093,960.657,-0.0825715,-0.496976,-1.54497,
2026_07_06_18_18_33.493,3.832,30.1,0,0.76,0,0,0,0.004, ,0,0,0,0,0, ,-39.3,284.5,960.6,0,-0.5,-1.5,25,-38.8883,283.145,960.678,-0.0805867,-0.49716,-1.54223,
2026_07_06_18_18_33.525,3.832,30.1,0,0.759,0,0,0,0.003, ,0,0,0,0,0, ,-39.7,283.5,960.3,0,-0.5,-1.6,25,-38.9256,283.197,960.664,-0.0756759,-0.497333,-1.54271,
2026_07_06_18_18_33.531,3.832,30,0,0.76,0,0,0,0.003, ,0,0,0,0,0, ,-40,283.2,961.3,0,-0.5,-1.6,25,-38.9819,283.206,960.673,-0.0710644,-0.497496,-1.5462,
2026_07_06_18_18_33.564,3.832,30.1,0,0.761,0,0,0,0.004, ,0,0,0,0,0, ,-38.3,282.9,961.3,0,-0.5,-1.5,25,-38.9922,283.197,960.711,-0.0667339,-0.497648,-1.54643,
2026_07_06_18_18_33.571,3.832,30,0,0.758,0,0,0,0.003, ,0,0,0,0,0, ,-38.4,283.3,961.6,0,-0.5,-1.6,25,-38.953,283.191,960.756,-0.0626674,-0.497792,-1.54665,
2026_07_06_18_18_33.607,3.832,30.1,0,0.759,0,0,0,0.004, ,0,0,0,0,0, ,-38.9,283.2,960.8,0,-0.5,-1.5,25,-38.9346,283.195,960.783,-0.0588486,-0.497926,-1.54685,
2026_07_06_18_18_33.615,3.832,30.2,0,0.76,0,0,0,0.003, ,0,0,0,0,0, ,-38.5,283.4,960.2,0,-0.5,-1.6,25,-38.9203,283.201,960.766,-0.0552625,-0.498053,-1.54704,
2026_07_06_18_18_33.648,3.832,30,0,0.759,0,0,0,0.002, ,0,0,0,0,0, ,-38.6,283.2,960.9,-0.1,-0.5,-1.5,25,-38.8977,283.207,960.753,-0.0549418,-0.498171,-1.54722,
2026_07_06_18_18_33.654,3.832,30,0,0.759,0,0,0,0.004, ,0,0,0,0,0, ,-39.6,283.5,960.3,-0.1,-0.5,-1.6,25,-38.91,283.216,960.743,-0.0576875,-0.498283,-1.54739,
2026_07_06_18_18_33.688,3.832,30.1,0,0.759,0,0,0,0.004, ,0,0,0,0,0, ,-38.8,283.9,961,0,-0.5,-1.5,25,-38.9277,283.245,960.738,-0.0572191,-0.498387,-1.54755,
2026_07_06_18_18_33.695,3.832,30.1,0,0.76,0,0,0,0.003, ,0,0,0,0,0, ,-39.5,283.6,960.6,-0.1,-0.5,-1.6,25,-38.9413,283.276,960.741,-0.0567792,-0.498486,-1.5477,
2026_07_06_18_18_33.729,3.832,30.1,0,0.758,0,0,0,0.003, ,0,0,0,0,0, ,-37.9,283,960.2,0,-0.4,-1.6,25,-38.9266,283.277,960.721,-0.0563661,-0.495531,-1.55089,
2026_07_06_18_18_33.730,3.832,30.1,0,0.76,0,0,0,0.003, ,0,0,0,0,0, ,-38,282.7,960.5,0,-0.5,-1.5,25,-38.867,283.251,960.698,-0.0529312,-0.492757,-1.55083,
2026_07_06_18_18_33.767,3.832,30.1,0,0.759,0,0,0,0.003, ,0,0,0,0,0, ,-39.5,284.1,960.4,0,-0.5,-1.5,25,-38.8599,283.26,960.683,-0.0497057,-0.493198,-1.54774,
2026_07_06_18_18_33.774,3.832,30,0,0.759,0,0,0,0.003, ,0,0,0,0,0, ,-38.9,284,961.9,0,-0.5,-1.5,25,-38.8806,283.309,960.711,-0.0466768,-0.493612,-1.54483,
2026_07_06_18_18_33.807,3.832,30,0,0.76,0,0,0,0.004, ,0,0,0,0,0, ,-39.1,282.5,961.3,0,-0.5,-1.6,25,-38.8879,283.305,960.766,-0.0438324,-0.494002,-1.54514,
2026_07_06_18_18_33.808,3.832,30,0,0.76,0,0,0,0.004, ,0,0,0,0,0, ,-39.6,282.2,962.2,-0.1,-0.5,-1.5,25,-38.9161,283.247,960.826,-0.0442083,-0.494367,-1.54544,
2026_07_06_18_18_33.843,3.832,30.1,0,0.76,0,0,0,0.004, ,0,0,0,0,0, ,-39,283.2,959.8,-0.1,-0.5,-1.6,25,-38.9395,283.213,960.836,-0.0476081,-0.49471,-1.54572,
2026_07_06_18_18_33.849,3.832,30.1,0,0.758,0,0,0,0.003, ,0,0,0,0,0, ,-39.7,282.7,960.3,-0.1,-0.4,-1.5,25,-38.9645,283.197,960.788,-0.0508007,-0.491986,-1.54598,
