UTC_Time,Vin,TC1,TC2,Rh1,Vh1,Ah1,Acp1,Dty1,Err1,Rh2,Vh2,Ah2,Acp2,Dty2,Err2,Accel_x,Accel_y,Accel_z,gyro_x,gyro_y,gyro_z,Temp_c,Accel_x_h,Accel_y_h,Accel_z_h,gyro_x_h,gyro_y_h,gyro_z_h,
2026_07_06_15_53_15.673,3.859,39.4,0,0.766,0,0,0,0, ,0,0,0,0,0, ,-41,180.6,982.7,-0.5,-0.4,-1.8,25,-41,180.6,982.7,-0.5,-0.4,-1.8,
2026_07_06_15_53_15.692,3.859,39.3,0,0.766,0,0,0,0, ,0,0,0,0,0, ,-39.3,179.9,982.1,-0.6,-0.4,-1.8,25,-40.9482,180.579,982.682,-0.503047,-0.4,-1.8,
2026_07_06_15_53_15.712,3.859,39.3,0,0.766,0,0,0,0, ,0,0,0,0,0, ,-40.1,180.4,982.4,-0.5,-0.5,-1.9,25,-40.8721,180.553,982.655,-0.505908,-0.403047,-1.80305,
2026_07_06_15_53_15.732,3.859,39.4,0,0.766,0,0,0,0, ,0,0,0,0,0, ,-41.2,180.2,982.6,-0.7,-0.5,-1.8,25,-40.8586,180.537,982.646,-0.511642,-0.408955,-1.80591,
2026_07_06_15_53_15.752,3.859,39.3,0,0.766,0,0,0,0, ,0,0,0,0,0, ,-39.5,179.4,983.1,-0.7,-0.5,-1.8,25,-40.8276,180.492,982.658,-0.52312,-0.414503,-1.80555,
2026_07_06_15_53_15.771,3.859,39.2,0,0.766,0,0,0,0, ,0,0,0,0,0, ,-39.5,179.8,984.1,-0.7,-0.5,-1.8,25,-40.7467,180.438,982.716,-0.533899,-0.419713,-1.80521,
2026_07_06_15_53_15.791,3.859,39.3,0,0.766,0,0,0,0, ,0,0,0,0,0, ,-40.4,179,983.3,-0.7,-0.4,-1.9,25,-40.6982,180.375,982.776,-0.54402,-0.421559,-1.80794,
2026_07_06_15_53_15.811,3.859,39.2,0,0.767,0,0,0,0, ,0,0,0,0,0, ,-38.9,179.9,982.2,-0.7,-0.5,-1.8,25,-40.6343,180.318,982.774,-0.553525,-0.423292,-1.8105,
2026_07_06_15_53_15.830,3.859,39.3,0,0.766,0,0,0,0, ,0,0,0,0,0, ,-40,178.7,982.7,-0.7,-0.5,-1.8,25,-40.5621,180.256,982.754,-0.562451,-0.427966,-1.80986,
2026_07_06_15_53_15.850,3.859,39.3,0,0.765,0,0,0,0, ,0,0,0,0,0, ,-39.1,179.8,983,-0.7,-0.5,-1.8,25,-40.5004,180.195,982.76,-0.570833,-0.432356,-1.80926,
2026_07_06_15_53_15.871,3.859,39.3,0,0.766,0,0,0,0, ,0,0,0,0,0, ,-40.4,178.9,984.3,-0.7,-0.4,-1.8,25,-40.4547,180.143,982.814,-0.578704,-0.433431,-1.8087,
2026_07_06_15_53_15.890,3.859,39.3,0,0.767,0,0,0,0, ,0,0,0,0,0, ,-40.4,181,984.3,-0.8,-0.5,-1.8,25,-40.4514,180.132,982.905,-0.589142,-0.434441,-1.80817,
2026_07_06_15_53_15.910,3.859,39.3,0,0.766,0,0,0,0, ,0,0,0,0,0, ,-40.1,181.1,983.7,-0.7,-0.4,-1.8,25,-40.4391,180.188,982.972,-0.598945,-0.435389,-1.80767,
2026_07_06_15_53_15.930,3.859,39.3,0,0.765,0,0,0,0, ,0,0,0,0,0, ,-40.4,180.7,982.6,-0.7,-0.5,-1.7,25,-40.4276,180.231,982.983,-0.605103,-0.436279,-1.80416,
2026_07_06_15_53_15.949,3.859,39.2,0,0.767,0,0,0,0, ,0,0,0,0,0, ,-39.7,180.4,982.9,-0.8,-0.5,-1.8,25,-40.4046,180.25,982.968,-0.613932,-0.440162,-1.80086,
2026_07_06_15_53_15.969,3.859,39.2,0,0.767,0,0,0,0, ,0,0,0,0,0, ,-40,181.6,982.6,-0.7,-0.5,-1.9,25,-40.3708,180.296,982.955,-0.622224,-0.443808,-1.80385,
2026_07_06_15_53_15.995,3.859,39.3,0,0.766,0,0,0,0, ,0,0,0,0,0, ,-40.2,180.2,982.5,-0.8,-0.5,-1.9,25,-40.3543,180.333,982.93,-0.63001,-0.447233,-1.80971,
2026_07_06_15_53_16.009,3.859,39.3,0,0.765,0,0,0,0, ,0,0,0,0,0, ,-40.2,181.6,984.8,-0.7,-0.5,-1.8,25,-40.3449,180.367,982.974,-0.637322,-0.450448,-1.81216,
2026_07_06_15_53_16.028,3.859,39.3,0,0.767,0,0,0,0, ,0,0,0,0,0, ,-39,181.6,984.4,-0.7,-0.5,-1.9,25,-40.2995,180.443,983.073,-0.641142,-0.453468,-1.81447,
2026_07_06_15_53_16.049,3.859,39.3,0,0.765,0,0,0,0, ,0,0,0,0,0, ,-38.5,182.7,983.1,-0.7,-0.5,-1.8,25,-40.2051,180.547,983.115,-0.644728,-0.456303,-1.81663,
2026_07_06_15_53_16.068,3.859,39.2,0,0.766,0,0,0,0, ,0,0,0,0,0, ,-40.2,181.1,983.7,-0.6,-0.5,-1.9,25,-40.153,180.629,983.132,-0.64505,-0.458966,-1.81867,
2026_07_06_15_53_16.088,3.859,39.3,0,0.766,0,0,0,0, ,0,0,0,0,0, ,-38.9,182.2,982.5,-0.6,-0.5,-1.9,25,-40.1162,180.691,983.13,-0.642304,-0.461467,-1.82362,
2026_07_06_15_53_16.108,3.859,39.3,0,0.766,0,0,0,0, ,0,0,0,0,0, ,-40.6,182.3,982.9,-0.6,-0.4,-1.8,25,-40.0939,180.786,983.104,-0.639726,-0.460768,-1.82523,
2026_07_06_15_53_16.131,3.859,39.3,0,0.766,0,0,0,0, ,0,0,0,0,0, ,-40.6,182.4,983.2,-0.6,-0.5,-1.8,25,-40.1247,180.882,983.101,-0.637306,-0.460112,-1.82369,
2026_07_06_15_53_16.148,3.859,39.3,0,0.766,0,0,0,0, ,0,0,0,0,0, ,-40.5,181.8,981.9,-0.5,-0.5,-1.9,25,-40.1507,180.956,983.067,-0.631985,-0.462542,-1.8253,
2026_07_06_15_53_16.167,3.859,39.2,0,0.766,0,0,0,0, ,0,0,0,0,0, ,-39.9,182,983.1,-0.5,-0.5,-1.8,25,-40.1537,181.013,983.032,-0.623943,-0.464825,-1.8268,
2026_07_06_15_53_16.187,3.859,39.2,0,0.765,0,0,0,0, ,0,0,0,0,0, ,-39.3,182.6,983.6,-0.5,-0.5,-1.8,25,-40.1199,181.092,983.052,-0.61639,-0.466968,-1.82517,
2026_07_06_15_53_16.206,3.859,39.3,0,0.766,0,0,0,0, ,0,0,0,0,0, ,-39,181.1,983.5,-0.4,-0.5,-1.8,25,-40.0608,181.138,983.082,-0.60625,-0.468981,-1.82364,
2026_07_06_15_53_16.226,3.859,39.3,0,0.766,0,0,0,0, ,0,0,0,0,0, ,-39.6,180.6,983.1,-0.5,-0.5,-1.8,25,-40.0145,181.12,983.095,-0.596729,-0.470871,-1.8222,
2026_07_06_15_53_16.246,3.859,39.3,0,0.767,0,0,0,0, ,0,0,0,0,0, ,-39.6,181,982.4,-0.5,-0.5,-1.8,25,-39.9892,181.101,983.074,-0.590835,-0.472646,-1.82084,
2026_07_06_15_53_16.267,3.859,39.2,0,0.767,0,0,0,0, ,0,0,0,0,0, ,-40.6,182.2,983,-0.5,-0.5,-1.8,25,-39.996,181.131,983.052,-0.585299,-0.474313,-1.81957,
2026_07_06_15_53_16.286,3.859,39.2,0,0.766,0,0,0,0, ,0,0,0,0,0, ,-40.1,181.1,983.7,-0.8,-0.5,-1.8,25,-40.0175,181.163,983.07,-0.589242,-0.475879,-1.81838,
2026_07_06_15_53_16.305,3.859,39.3,0,0.769,0,0,0,0, ,0,0,0,0,0, ,-40.2,181.7,983.8,-0.7,-0.5,-1.8,25,-40.0256,181.177,983.111,-0.599038,-0.477349,-1.81726,
2026_07_06_15_53_16.325,3.859,39.2,0,0.767,0,0,0,0, ,0,0,0,0,0, ,-40,180.9,982.1,-0.7,-0.5,-1.9,25,-40.0301,181.185,983.101,-0.605191,-0.478729,-1.81925,
2026_07_06_15_53_16.346,3.859,39.2,0,0.766,0,0,0,0, ,0,0,0,0,0, ,-39.6,182.8,983,-0.7,-0.5,-1.8,25,-40.0161,181.225,983.068,-0.610968,-0.480025,-1.82113,
2026_07_06_15_53_16.365,3.859,39.2,0,0.766,0,0,0,0, ,0,0,0,0,0, ,-40.4,182.1,983.7,-0.7,-0.5,-1.9,25,-40.0151,181.3,983.085,-0.616393,-0.481242,-1.82289,
2026_07_06_15_53_16.385,3.859,39.3,0,0.765,0,0,0,0, ,0,0,0,0,0, ,-39.6,182.2,982.9,-0.7,-0.5,-1.8,25,-40.0142,181.352,983.098,-0.621488,-0.482385,-1.82454,
2026_07_06_15_53_16.405,3.859,39.3,0,0.766,0,0,0,0, ,0,0,0,0,0, ,-39.5,182.4,982.6,-0.7,-0.5,-1.8,25,-39.9859,181.41,983.077,-0.626272,-0.483459,-1.82304,
2026_07_06_15_53_16.424,3.859,39.2,0,0.766,0,0,0,0, ,0,0,0,0,0, ,-40.4,182.3,982.4,-0.6,-0.5,-1.8,25,-39.9837,181.467,983.042,-0.627718,-0.484467,-1.82164,
2026_07_06_15_53_16.444,3.859,39.3,0,0.765,0,0,0,0, ,0,0,0,0,0, ,-40.1,181.3,981.9,-0.6,-0.5,-1.8,25,-40,181.487,982.987,-0.626029,-0.485413,-1.82032,
2026_07_06_15_53_16.463,3.859,39.3,0,0.766,0,0,0,0, ,0,0,0,0,0, ,-39.9,182,982.9,-0.5,-0.5,-1.8,25,-40,181.497,982.952,-0.621396,-0.486302,-1.81908,
2026_07_06_15_53_16.484,3.859,39.3,0,0.767,0,0,0,0, ,0,0,0,0,0, ,-40,182.1,983.6,-0.5,-0.5,-1.8,25,-39.9969,181.531,982.97,-0.613999,-0.487137,-1.81792,
2026_07_06_15_53_16.508,3.859,39.2,0,0.769,0,0,0,0, ,0,0,0,0,0, ,-39.6,179.5,983.2,-0.6,-0.5,-1.8,25,-39.9849,181.486,982.996,-0.610099,-0.487921,-1.81683,
2026_07_06_15_53_16.523,3.859,39.3,0,0.766,0,0,0,0, ,0,0,0,0,0, ,-39.7,181.5,983.2,-0.5,-0.5,-1.9,25,-39.9645,181.426,983.008,-0.606436,-0.488657,-1.81885,
2026_07_06_15_53_16.551,3.859,39.2,0,0.766,0,0,0,0, ,0,0,0,0,0, ,-40.2,180.9,982.1,-0.5,-0.4,-1.9,25,-39.9636,181.412,982.987,-0.599951,-0.486301,-1.82379,
2026_07_06_15_53_16.564,3.859,39.2,0,0.766,0,0,0,0, ,0,0,0,0,0, ,-39.6,180.6,983.1,-0.5,-0.4,-1.8,25,-39.9597,181.372,982.963,-0.59386,-0.481042,-1.82539,
2026_07_06_15_53_16.583,3.859,39.2,0,0.767,0,0,0,0, ,0,0,0,0,0, ,-40,180,982.9,-0.5,-0.4,-1.8,25,-39.95,181.307,982.965,-0.58814,-0.476104,-1.82384,
2026_07_06_15_53_16.603,3.859,39.2,0,0.766,0,0,0,0, ,0,0,0,0,0, ,-40.2,180.6,983,-0.5,-0.5,-1.9,25,-39.9592,181.245,982.964,-0.582769,-0.474513,-1.82544,
2026_07_06_15_53_16.623,3.859,39.1,0,0.764,0,0,0,0, ,0,0,0,0,0, ,-39.7,178.8,982.6,-0.4,-0.5,-1.7,25,-39.9586,181.151,982.954,-0.574679,-0.476066,-1.82389,
2026_07_06_15_53_16.642,3.859,39.2,0,0.764,0,0,0,0, ,0,0,0,0,0, ,-39.7,180,983.6,-0.5,-0.5,-1.8,25,-39.9428,181.044,982.963,-0.567081,-0.477525,-1.81939,
2026_07_06_15_53_16.662,3.859,39.2,0,0.765,0,0,0,0, ,0,0,0,0,0, ,-40.2,178.2,982.4,-0.5,-0.5,-1.8,25,-39.9433,180.926,982.965,-0.562993,-0.478894,-1.8182,
2026_07_06_15_53_16.682,3.859,39.2,0,0.766,0,0,0,0, ,0,0,0,0,0, ,-39.5,180.5,983.5,-0.5,-0.4,-1.9,25,-39.9376,180.83,982.965,-0.559155,-0.477133,-1.82014,
2026_07_06_15_53_16.702,3.859,39.2,0,0.766,0,0,0,0, ,0,0,0,0,0, ,-40.5,179.9,983.1,-0.6,-0.4,-1.9,25,-39.9414,180.792,982.985,-0.558597,-0.472433,-1.82501,
2026_07_06_15_53_16.721,3.859,39.2,0,0.764,0,0,0,0, ,0,0,0,0,0, ,-40.5,179,983.1,-0.5,-0.5,-1.9,25,-39.9754,180.71,982.992,-0.558073,-0.471066,-1.82958,
2026_07_06_15_53_16.741,3.859,39.2,0,0.765,0,0,0,0, ,0,0,0,0,0, ,-40.1,179.9,983.6,-0.5,-0.4,-1.9,25,-39.9952,180.633,983.014,-0.554534,-0.469782,-1.83387,
2026_07_06_15_53_16.760,3.859,39.2,0,0.766,0,0,0,0, ,0,0,0,0,0, ,-39.7,178.9,982.4,-0.6,-0.5,-1.8,25,-39.9894,180.558,983.013,-0.554258,-0.468577,-1.83485,
2026_07_06_15_53_16.780,3.859,39.2,0,0.766,0,0,0,0, ,0,0,0,0,0, ,-39.3,179.9,982.7,-0.6,-0.5,-1.8,25,-39.9596,180.487,982.985,-0.557045,-0.470492,-1.83273,
2026_07_06_15_53_16.800,3.859,39.2,0,0.766,0,0,0,0, ,0,0,0,0,0, ,-39.7,180.5,982.9,-0.7,-0.5,-1.8,25,-39.9316,180.47,982.973,-0.56271,-0.47229,-1.83073,
2026_07_06_15_53_16.820,3.859,39.2,0,0.768,0,0,0,0, ,0,0,0,0,0, ,-40.4,179.6,984.6,-0.7,-0.5,-1.8,25,-39.9388,180.444,983.021,-0.571076,-0.473978,-1.82886,
2026_07_06_15_53_16.839,3.859,39.2,0,0.766,0,0,0,0, ,0,0,0,0,0, ,-40.6,180.7,982.9,-0.7,-0.5,-1.8,25,-39.973,180.426,983.065,-0.578932,-0.475564,-1.8271,
2026_07_06_15_53_16.860,3.859,39.1,0,0.766,0,0,0,0, ,0,0,0,0,0, ,-40.5,179.9,984.3,-0.6,-0.5,-1.9,25,-40.0082,180.419,983.098,-0.583263,-0.477053,-1.8285,
2026_07_06_15_53_16.880,3.859,39.2,0,0.765,0,0,0,0, ,0,0,0,0,0, ,-39.7,180.5,983.1,-0.6,-0.5,-1.9,25,-40.0138,180.405,983.135,-0.584283,-0.478452,-1.83285,
2026_07_06_15_53_16.899,3.859,39.2,0,0.763,0,0,0,0, ,0,0,0,0,0, ,-40.7,180.5,984.3,-0.5,-0.5,-1.8,25,-40.0251,180.411,983.169,-0.582194,-0.479765,-1.8339,
2026_07_06_15_53_16.919,3.859,39.2,0,0.766,0,0,0,0, ,0,0,0,0,0, ,-40.5,179.9,982.6,-0.6,-0.5,-1.8,25,-40.0601,180.398,983.186,-0.580232,-0.480998,-1.83183,
2026_07_06_15_53_16.939,3.859,39.2,0,0.766,0,0,0,0, ,0,0,0,0,0, ,-39.9,181.1,983.6,-0.7,-0.4,-1.8,25,-40.0687,180.404,983.181,-0.584483,-0.479109,-1.82989,
2026_07_06_15_53_16.959,3.859,39.2,0,0.768,0,0,0,0, ,0,0,0,0,0, ,-40.6,181.5,981.5,-0.7,-0.5,-1.8,25,-40.0797,180.459,983.142,-0.591523,-0.477335,-1.82807,
2026_07_06_15_53_16.978,3.859,39.2,0,0.766,0,0,0,0, ,0,0,0,0,0, ,-39.4,180.2,983.2,-0.6,-0.4,-1.8,25,-40.0749,180.483,983.094,-0.595086,-0.475669,-1.82636,
2026_07_06_15_53_17.000,3.859,39.1,0,0.767,0,0,0,0, ,0,0,0,0,0, ,-39.9,179.5,983.7,-0.7,-0.4,-1.8,25,-40.049,180.444,983.116,-0.598432,-0.471058,-1.82476,
2026_07_06_15_53_17.017,3.859,39.2,0,0.765,0,0,0,0, ,0,0,0,0,0, ,-40.2,181.6,983.6,-0.7,-0.5,-1.9,25,-40.049,180.451,983.148,-0.604622,-0.469775,-1.82629,
2026_07_06_15_53_17.038,3.859,39.1,0,0.766,0,0,0,0, ,0,0,0,0,0, ,-39.7,181.2,982.9,-0.6,-0.4,-1.8,25,-40.043,180.509,983.155,-0.607387,-0.46857,-1.82774,
2026_07_06_15_53_17.057,3.859,39.1,0,0.766,0,0,0,0, ,0,0,0,0,0, ,-40.7,180.2,982.7,-0.7,-0.5,-1.9,25,-40.0526,180.52,983.133,-0.609984,-0.467438,-1.82909,
2026_07_06_15_53_17.077,3.859,39.2,0,0.766,0,0,0,0, ,0,0,0,0,0, ,-37.7,180.6,982.4,-0.8,-0.5,-1.8,25,-40.0006,180.513,983.097,-0.618516,-0.469423,-1.83037,
2026_07_06_15_53_17.097,3.859,39.2,0,0.766,0,0,0,0, ,0,0,0,0,0, ,-41.6,181.5,983.8,-0.7,-0.5,-1.8,25,-39.9792,180.546,983.098,-0.626528,-0.471286,-1.82852,
2026_07_06_15_53_17.118,3.859,39.2,0,0.764,0,0,0,0, ,0,0,0,0,0, ,-40.4,181.6,982.4,-0.7,-0.4,-1.9,25,-40.0414,180.607,983.098,-0.631005,-0.469989,-1.82983,
2026_07_06_15_53_17.136,3.859,39.2,0,0.766,0,0,0,0, ,0,0,0,0,0, ,-38.9,183.4,982.7,-0.8,-0.5,-1.8,25,-40.0176,180.722,983.064,-0.638257,-0.468771,-1.83106,
2026_07_06_15_53_17.156,3.859,39.2,0,0.768,0,0,0,0, ,0,0,0,0,0, ,-39.9,183.7,981,-0.7,-0.5,-1.8,25,-39.98,180.895,982.99,-0.645066,-0.470674,-1.82916,
2026_07_06_15_53_17.176,3.859,39.2,0,0.766,0,0,0,0, ,0,0,0,0,0, ,-41.1,181.8,983.2,-0.7,-0.4,-1.8,25,-40.0116,181.008,982.936,-0.648414,-0.469414,-1.82739,
2026_07_06_15_53_17.196,3.859,39.2,0,0.766,0,0,0,0, ,0,0,0,0,0, ,-39.4,182.2,983.2,-0.7,-0.5,-1.8,25,-40.0262,181.068,982.952,-0.651557,-0.468231,-1.82572,
2026_07_06_15_53_17.215,3.859,39.2,0,0.766,0,0,0,0, ,0,0,0,0,0, ,-40.2,180.9,983.5,-0.8,-0.5,-1.9,25,-40.0124,181.097,982.976,-0.657556,-0.470167,-1.8272,
2026_07_06_15_53_17.236,3.859,39.1,0,0.765,0,0,0,0, ,0,0,0,0,0, ,-41,180.7,986.6,-0.7,-0.4,-1.8,25,-40.0482,181.079,983.103,-0.663189,-0.468938,-1.82859,
2026_07_06_15_53_17.255,3.859,39.2,0,0.766,0,0,0,0, ,0,0,0,0,0, ,-39.4,182.4,982.2,-0.7,-0.5,-1.9,25,-40.0574,181.108,983.182,-0.665432,-0.467784,-1.82989,
2026_07_06_15_53_17.275,3.859,39.2,0,0.765,0,0,0,0, ,0,0,0,0,0, ,-38,181.7,982.2,-0.6,-0.5,-1.9,25,-39.9747,181.165,983.122,-0.664492,-0.469747,-1.83416,
2026_07_06_15_53_17.297,3.859,39.2,0,0.766,0,0,0,0, ,0,0,0,0,0, ,-39.6,181.6,981.6,-0.6,-0.5,-1.8,25,-39.9031,181.195,983.048,-0.660562,-0.471591,-1.83513,
2026_07_06_15_53_17.316,3.859,39.1,0,0.766,0,0,0,0, ,0,0,0,0,0, ,-40.6,181.3,982.2,-0.5,-0.5,-1.9,25,-39.9151,181.21,982.978,-0.653825,-0.473322,-1.83604,
2026_07_06_15_53_17.334,3.859,39.2,0,0.766,0,0,0,0, ,0,0,0,0,0, ,-40,181.2,982.5,-0.6,-0.5,-1.8,25,-39.9386,181.213,982.939,-0.647498,-0.474947,-1.83689,
2026_07_06_15_53_17.354,3.859,39.2,0,0.766,0,0,0,0, ,0,0,0,0,0, ,-40.2,180.4,983.1,-0.5,-0.5,-1.8,25,-39.9484,181.188,982.931,-0.641557,-0.476474,-1.83464,
2026_07_06_15_53_17.375,3.859,39.1,0,0.765,0,0,0,0, ,0,0,0,0,0, ,-40.4,182.7,981.3,-0.5,-0.6,-1.8,25,-39.9699,181.21,982.886,-0.63293,-0.480955,-1.83253,
2026_07_06_15_53_17.393,3.859,39.1,0,0.768,0,0,0,0, ,0,0,0,0,0, ,-40.6,180.7,983,-0.6,-0.4,-1.8,25,-40.0022,181.24,982.841,-0.627877,-0.482115,-1.83055,
2026_07_06_15_53_17.413,3.859,39.1,0,0.766,0,0,0,0, ,0,0,0,0,0, ,-40.4,180.6,982.6,-0.6,-0.5,-1.8,25,-40.0325,181.204,982.839,-0.626178,-0.480158,-1.82868,
2026_07_06_15_53_17.433,3.859,39.1,0,0.768,0,0,0,0, ,0,0,0,0,0, ,-39.9,181.3,982.6,-0.7,-0.5,-1.8,25,-40.0397,181.188,982.824,-0.62763,-0.481367,-1.82694,
2026_07_06_15_53_17.455,3.859,39.1,0,0.766,0,0,0,0, ,0,0,0,0,0, ,-40.5,180,983.3,-0.7,-0.5,-1.8,25,-40.0494,181.155,982.832,-0.63204,-0.482503,-1.82529,
2026_07_06_15_53_17.473,3.859,39.2,0,0.766,0,0,0,0, ,0,0,0,0,0, ,-39.5,181.1,984.3,-0.6,-0.4,-1.9,25,-40.0464,181.119,982.891,-0.633134,-0.480522,-1.8268,
2026_07_06_15_53_17.493,3.859,39.1,0,0.766,0,0,0,0, ,0,0,0,0,0, ,-40.1,180.4,983.3,-0.6,-0.5,-1.8,25,-40.0314,181.096,982.946,-0.631115,-0.478662,-1.82821,
2026_07_06_15_53_17.513,3.859,39.1,0,0.765,0,0,0,0, ,0,0,0,0,0, ,-39,181.2,983.5,-0.6,-0.5,-1.8,25,-40.0021,181.078,982.974,-0.629219,-0.479962,-1.82649,
2026_07_06_15_53_17.532,3.859,39.1,0,0.766,0,0,0,0, ,0,0,0,0,0, ,-39.5,180.9,984.2,-0.7,-0.4,-1.8,25,-39.9562,181.076,983.027,-0.630485,-0.478137,-1.82488,
2026_07_06_15_53_17.552,3.859,39.1,0,0.765,0,0,0,0, ,0,0,0,0,0, ,-39.6,180.6,982.6,-0.7,-0.4,-1.8,25,-39.9315,181.056,983.05,-0.634721,-0.473375,-1.82336,
2026_07_06_15_53_17.572,3.859,39.1,0,0.766,0,0,0,0, ,0,0,0,0,0, ,-40.1,181,983.1,-0.7,-0.4,-1.8,25,-39.9265,181.041,983.038,-0.638699,-0.468904,-1.82194,
2026_07_06_15_53_17.591,3.859,39.1,0,0.765,0,0,0,0, ,0,0,0,0,0, ,-40.2,180.9,983,-0.5,-0.5,-1.8,25,-39.9401,181.035,983.039,-0.636341,-0.467752,-1.8206,
2026_07_06_15_53_17.611,3.859,39.2,0,0.766,0,0,0,0, ,0,0,0,0,0, ,-40.6,180.2,982.9,-0.4,-0.5,-1.7,25,-39.9682,181.006,983.033,-0.624986,-0.469717,-1.8163,
2026_07_06_15_53_17.631,3.859,39.2,0,0.764,0,0,0,0, ,0,0,0,0,0, ,-40.6,180.1,983.8,-0.4,-0.4,-1.8,25,-40.0067,180.954,983.053,-0.611276,-0.468515,-1.81226,
2026_07_06_15_53_17.651,3.859,39.2,0,0.766,0,0,0,0, ,0,0,0,0,0, ,-39.4,180.2,981.8,-0.4,-0.5,-1.8,25,-40.0063,180.905,983.037,-0.598401,-0.467387,-1.81151,
2026_07_06_15_53_17.671,3.859,39,0,0.766,0,0,0,0, ,0,0,0,0,0, ,-39.6,179.8,982.2,-0.5,-0.5,-1.9,25,-39.9754,180.849,982.974,-0.589358,-0.469375,-1.81386,
2026_07_06_15_53_17.690,3.859,39.1,0,0.766,0,0,0,0, ,0,0,0,0,0, ,-40.6,179.5,983.6,-0.5,-0.5,-1.9,25,-39.983,180.776,982.969,-0.583913,-0.471241,-1.81911,
2026_07_06_15_53_17.710,3.859,39.1,0,0.766,0,0,0,0, ,0,0,0,0,0, ,-40,178.8,983.6,-0.6,-0.5,-1.8,25,-40.0023,180.677,983.008,-0.581846,-0.472993,-1.82099,
2026_07_06_15_53_17.730,3.859,39,0,0.765,0,0,0,0, ,0,0,0,0,0, ,-41.3,179.4,982.4,-0.6,-0.4,-1.9,25,-40.0418,180.581,983.007,-0.582952,-0.471592,-1.82276,
2026_07_06_15_53_17.753,3.859,39.1,0,0.767,0,0,0,0, ,0,0,0,0,0, ,-41.3,179.3,982.4,-0.6,-0.5,-1.8,25,-40.1185,180.506,982.97,-0.583991,-0.470276,-1.82442,
2026_07_06_15_53_17.769,3.859,39.1,0,0.766,0,0,0,0, ,0,0,0,0,0, ,-39.9,180.4,983.2,-0.7,-0.5,-1.8,25,-40.1478,180.466,982.96,-0.588014,-0.472088,-1.82293,
2026_07_06_15_53_17.789,3.859,39.1,0,0.768,0,0,0,0, ,0,0,0,0,0, ,-39,180,983.5,-0.7,-0.4,-1.8,25,-40.1053,180.45,982.984,-0.594838,-0.470742,-1.82153,
2026_07_06_15_53_17.809,3.859,39.1,0,0.766,0,0,0,0, ,0,0,0,0,0, ,-39.5,180.6,983.6,-0.7,-0.4,-1.9,25,-40.0532,180.441,983.018,-0.601246,-0.466431,-1.82327,
2026_07_06_15_53_17.828,3.859,39.2,0,0.767,0,0,0,0, ,0,0,0,0,0, ,-39.6,179.5,982.7,-0.7,-0.5,-1.9,25,-40.0225,180.417,983.026,-0.607264,-0.46543,-1.82794,
2026_07_06_15_53_17.848,3.859,39.2,0,0.764,0,0,0,0, ,0,0,0,0,0, ,-39.7,179.9,983.5,-0.7,-0.5,-1.9,25,-39.9998,180.373,983.031,-0.612915,-0.467536,-1.83233,
2026_07_06_15_53_17.868,3.859,39.1,0,0.765,0,0,0,0, ,0,0,0,0,0, ,-40.6,181.5,983.5,-0.7,-0.4,-1.8,25,-40.009,180.393,983.059,-0.618222,-0.466468,-1.83341,
2026_07_06_15_53_17.888,3.859,39,0,0.766,0,0,0,0, ,0,0,0,0,0, ,-39.4,180.7,981.6,-0.7,-0.4,-1.8,25,-40.0084,180.436,983.028,-0.623205,-0.462417,-1.83138,
2026_07_06_15_53_17.908,3.859,39.1,0,0.766,0,0,0,0, ,0,0,0,0,0, ,-40.1,181.6,983.7,-0.7,-0.5,-1.8,25,-39.9927,180.48,983.005,-0.627885,-0.461661,-1.82946,
2026_07_06_15_53_17.929,3.859,39.1,0,0.765,0,0,0,0, ,0,0,0,0,0, ,-39.5,180.7,981.8,-0.7,-0.5,-1.8,25,-39.9809,180.521,982.99,-0.632279,-0.463997,-1.82767,
2026_07_06_15_53_17.948,3.859,39.1,0,0.766,0,0,0,0, ,0,0,0,0,0, ,-40.2,181.5,982.2,-0.6,-0.5,-1.8,25,-39.9729,180.556,982.929,-0.633359,-0.466191,-1.82598,
2026_07_06_15_53_17.967,3.859,39.1,0,0.765,0,0,0,0, ,0,0,0,0,0, ,-40.1,182.2,983.1,-0.7,-0.4,-1.8,25,-39.9837,180.635,982.912,-0.634373,-0.465204,-1.8244,
2026_07_06_15_53_17.987,3.859,39,0,0.766,0,0,0,0, ,0,0,0,0,0, ,-40.2,181.8,982.1,-0.7,-0.4,-1.8,25,-39.9939,180.718,982.893,-0.638372,-0.461231,-1.82291,
2026_07_06_15_53_18.007,3.859,39.1,0,0.766,0,0,0,0, ,0,0,0,0,0, ,-39.4,181.6,982.1,-0.6,-0.5,-1.8,25,-39.982,180.778,982.845,-0.639081,-0.460546,-1.82152,
2026_07_06_15_53_18.027,3.859,39.1,0,0.764,0,0,0,0, ,0,0,0,0,0, ,-40.2,180.9,983.2,-0.5,-0.5,-1.8,25,-39.971,180.807,982.833,-0.633653,-0.462951,-1.8202,
2026_07_06_15_53_18.046,3.859,39.1,0,0.768,0,0,0,0, ,0,0,0,0,0, ,-40.1,181.8,983.3,-0.5,-0.5,-1.7,25,-39.9819,180.84,982.859,-0.625508,-0.465208,-1.81593,
2026_07_06_15_53_18.071,3.859,39.2,0,0.765,0,0,0,0, ,0,0,0,0,0, ,-40.4,181.1,982.2,-0.5,-0.5,-1.8,25,-39.9982,180.877,982.852,-0.61786,-0.467328,-1.81191,
2026_07_06_15_53_18.086,3.859,39,0,0.766,0,0,0,0, ,0,0,0,0,0, ,-39.1,180.9,982.2,-0.5,-0.4,-1.7,25,-39.9831,180.884,982.812,-0.610678,-0.466273,-1.80814,
2026_07_06_15_53_18.107,3.859,39.1,0,0.766,0,0,0,0, ,0,0,0,0,0, ,-38.8,180.6,984.1,-0.5,-0.4,-1.9,25,-39.9201,180.876,982.833,-0.603933,-0.462234,-1.80764,
2026_07_06_15_53_18.126,3.859,39.1,0,0.766,0,0,0,0, ,0,0,0,0,0, ,-40,180.2,983,-0.5,-0.5,-1.8,25,-39.8884,180.847,982.876,-0.5976,-0.461489,-1.81022,
2026_07_06_15_53_18.145,3.859,39,0,0.766,0,0,0,0, ,0,0,0,0,0, ,-39.5,181.6,982.6,-0.5,-0.5,-1.8,25,-39.88,180.85,982.872,-0.591653,-0.463835,-1.8096,
2026_07_06_15_53_18.165,3.859,39.1,0,0.768,0,0,0,0, ,0,0,0,0,0, ,-39.3,180.5,982.7,-0.5,-0.5,-1.9,25,-39.8507,180.863,982.858,-0.586067,-0.466039,-1.81206,
2026_07_06_15_53_18.185,3.859,39.1,0,0.766,0,0,0,0, ,0,0,0,0,0, ,-40.5,181.2,982.2,-0.6,-0.4,-1.8,25,-39.8537,180.862,982.833,-0.58387,-0.465062,-1.81437,
2026_07_06_15_53_18.204,3.859,39,0,0.764,0,0,0,0, ,0,0,0,0,0, ,-40.7,179.1,981.5,-0.6,-0.5,-1.8,25,-39.8992,180.818,982.773,-0.584853,-0.464144,-1.8135,
2026_07_06_15_53_18.226,3.859,39,0,0.766,0,0,0,0, ,0,0,0,0,0, ,-40,180.5,982.9,-0.6,-0.5,-1.8,25,-39.9267,180.756,982.739,-0.585776,-0.466329,-1.81267,
2026_07_06_15_53_18.244,3.859,39.1,0,0.768,0,0,0,0, ,0,0,0,0,0, ,-40.5,181.7,982.9,-0.5,-0.4,-1.8,25,-39.9464,180.777,982.748,-0.583596,-0.465334,-1.8119,
2026_07_06_15_53_18.264,3.859,39,0,0.766,0,0,0,0, ,0,0,0,0,0, ,-39.7,180.9,982.7,-0.5,-0.4,-1.7,25,-39.9558,180.809,982.752,-0.578501,-0.461353,-1.80813,
2026_07_06_15_53_18.283,3.859,39,0,0.766,0,0,0,0, ,0,0,0,0,0, ,-39.5,181.3,983.3,-0.6,-0.5,-1.9,25,-39.9341,180.827,982.767,-0.576765,-0.460661,-1.80763,
2026_07_06_15_53_18.304,3.859,39,0,0.764,0,0,0,0, ,0,0,0,0,0, ,-40.5,181.6,983.5,-0.5,-0.5,-1.9,25,-39.9381,180.865,982.805,-0.575134,-0.463058,-1.81326,
2026_07_06_15_53_18.323,3.859,39,0,0.766,0,0,0,0, ,0,0,0,0,0, ,-39.3,180.5,983.1,-0.5,-0.4,-1.8,25,-39.9358,180.876,982.835,-0.570555,-0.462262,-1.8155,
2026_07_06_15_53_18.343,3.859,39.1,0,0.766,0,0,0,0, ,0,0,0,0,0, ,-39.6,179.6,984.2,-0.5,-0.4,-1.8,25,-39.9062,180.826,982.885,-0.566256,-0.458468,-1.81456,
2026_07_06_15_53_18.363,3.859,39,0,0.766,0,0,0,0, ,0,0,0,0,0, ,-41,180.5,983,-0.5,-0.5,-1.8,25,-39.9302,180.779,982.929,-0.562218,-0.457952,-1.81367,
2026_07_06_15_53_18.384,3.859,39.1,0,0.766,0,0,0,0, ,0,0,0,0,0, ,-40.1,179.8,985.1,-0.5,-0.5,-1.8,25,-39.9679,180.74,982.997,-0.558427,-0.460514,-1.81284,
2026_07_06_15_53_18.402,3.859,39.1,0,0.766,0,0,0,0, ,0,0,0,0,0, ,-41,179.8,982.1,-0.5,-0.5,-1.9,25,-40.0034,180.683,983.034,-0.554866,-0.462921,-1.8151,
2026_07_06_15_53_18.422,3.859,39,0,0.765,0,0,0,0, ,0,0,0,0,0, ,-40.4,180.9,984.2,-0.5,-0.4,-1.8,25,-40.0459,180.663,983.041,-0.551523,-0.462133,-1.81723,
2026_07_06_15_53_18.442,3.859,39,0,0.766,0,0,0,0, ,0,0,0,0,0, ,-39.7,180.1,982.7,-0.6,-0.4,-1.8,25,-40.0461,180.653,983.066,-0.55143,-0.458347,-1.81618,
2026_07_06_15_53_18.461,3.859,39,0,0.766,0,0,0,0, ,0,0,0,0,0, ,-39.3,179.9,984.8,-0.7,-0.4,-1.8,25,-40.0128,180.613,983.107,-0.557437,-0.454791,-1.81519,
2026_07_06_15_53_18.482,3.859,39,0,0.766,0,0,0,0, ,0,0,0,0,0, ,-40.4,179.9,984.8,-0.6,-0.4,-1.9,25,-40.0029,180.57,983.211,-0.563077,-0.451453,-1.81731,
2026_07_06_15_53_18.501,3.859,39,0,0.766,0,0,0,0, ,0,0,0,0,0, ,-39.7,181.8,984.9,-0.6,-0.4,-1.9,25,-40.0058,180.587,983.31,-0.565327,-0.448317,-1.82235,
2026_07_06_15_53_18.521,3.859,39.1,0,0.766,0,0,0,0, ,0,0,0,0,0, ,-40.5,180.6,981.2,-0.6,-0.4,-1.9,25,-40.0115,180.624,983.295,-0.56744,-0.445373,-1.82708,
2026_07_06_15_53_18.542,3.859,39.1,0,0.766,0,0,0,0, ,0,0,0,0,0, ,-39.5,182.1,984.9,-0.7,-0.4,-1.8,25,-40.0108,180.668,983.28,-0.572471,-0.442608,-1.82848,
2026_07_06_15_53_18.561,3.859,39,0,0.766,0,0,0,0, ,0,0,0,0,0, ,-40.4,179.5,983,-0.6,-0.4,-1.8,25,-40.0071,180.676,983.321,-0.577196,-0.440012,-1.82674,
2026_07_06_15_53_18.578,3.859,39,0,0.766,0,0,0,0, ,0,0,0,0,0, ,-40.1,180.5,984.2,-0.6,-0.4,-1.9,25,-40.0219,180.635,983.338,-0.578585,-0.437573,-1.82816,
2026_07_06_15_53_18.601,3.859,39,0,0.764,0,0,0,0, ,0,0,0,0,0, ,-40.5,181.1,980.4,-0.5,-0.4,-1.8,25,-40.0389,180.645,983.274,-0.576843,-0.435284,-1.82949,
2026_07_06_15_53_18.620,3.859,39,0,0.768,0,0,0,0, ,0,0,0,0,0, ,-40.5,180.2,983,-0.5,-0.4,-1.9,25,-40.067,180.645,983.178,-0.572161,-0.433134,-1.83074,
2026_07_06_15_53_18.640,3.859,39.1,0,0.767,0,0,0,0, ,0,0,0,0,0, ,-39.5,179.8,981.5,-0.5,-0.4,-1.9,25,-40.0629,180.606,983.122,-0.567763,-0.431115,-1.83496,
2026_07_06_15_53_18.660,3.859,39,0,0.767,0,0,0,0, ,0,0,0,0,0, ,-39.6,179.3,985.9,-0.5,-0.3,-1.8,25,-40.0316,180.542,983.157,-0.563634,-0.426172,-1.83588,
2026_07_06_15_53_18.680,3.859,39,0,0.767,0,0,0,0, ,0,0,0,0,0, ,-41.6,179.9,976.4,-0.2,-0.5,-1.8,25,-40.0663,180.484,983.035,-0.550616,-0.424577,-1.83369,
2026_07_06_15_53_18.699,3.859,39,0,0.766,0,0,0,0, ,0,0,0,0,0, ,-40,180,984.8,-0.5,-0.4,-1.8,25,-40.111,180.452,982.886,-0.538391,-0.426126,-1.83164,
2026_07_06_15_53_18.722,3.859,39,0,0.766,0,0,0,0, ,0,0,0,0,0, ,-42.7,182.4,982.7,-0.4,-0.4,-1.8,25,-40.1865,180.497,982.939,-0.533004,-0.424534,-1.82971,
2026_07_06_15_53_18.739,3.859,39,0,0.766,0,0,0,0, ,0,0,0,0,0, ,-39.7,180.1,981.8,-0.5,-0.5,-1.8,25,-40.2482,180.543,982.897,-0.527946,-0.426086,-1.8279,
2026_07_06_15_53_18.759,3.859,39,0,0.767,0,0,0,0, ,0,0,0,0,0, ,-41,182.7,982.7,-0.6,-0.5,-1.8,25,-40.2544,180.595,982.858,-0.52929,-0.43059,-1.8262,
2026_07_06_15_53_18.779,3.859,39,0,0.766,0,0,0,0, ,0,0,0,0,0, ,-40,182.3,984.4,-0.6,-0.4,-1.7,25,-40.2694,180.711,982.9,-0.533599,-0.431773,-1.82156,
2026_07_06_15_53_18.798,3.859,39,0,0.764,0,0,0,0, ,0,0,0,0,0, ,-39.1,180.2,984,-0.5,-0.5,-1.8,25,-40.2256,180.744,982.979,-0.534599,-0.432883,-1.8172,
2026_07_06_15_53_18.818,3.859,39.1,0,0.766,0,0,0,0, ,0,0,0,0,0, ,-39.3,179.6,984.2,-0.5,-0.4,-1.8,25,-40.1631,180.693,983.047,-0.53249,-0.433927,-1.81615,
2026_07_06_15_53_18.838,3.859,39,0,0.768,0,0,0,0, ,0,0,0,0,0, ,-40.8,181.1,983.1,-0.7,-0.5,-1.9,25,-40.1562,180.672,983.084,-0.536604,-0.434906,-1.81821,
2026_07_06_15_53_18.857,3.859,39.1,0,0.767,0,0,0,0, ,0,0,0,0,0, ,-40.1,181.2,982.9,-0.6,-0.5,-1.9,25,-40.1741,180.701,983.079,-0.543514,-0.438873,-1.8232,
2026_07_06_15_53_18.881,3.859,39,0,0.766,0,0,0,0, ,0,0,0,0,0, ,-40.1,181.6,984,-0.7,-0.4,-1.9,25,-40.1696,180.744,983.102,-0.550003,-0.439551,-1.82788,
2026_07_06_15_53_18.897,3.859,39,0,0.765,0,0,0,0, ,0,0,0,0,0, ,-40.5,181.1,982.2,-0.6,-0.5,-1.9,25,-40.1775,180.781,983.101,-0.556097,-0.440187,-1.83227,
2026_07_06_15_53_18.917,3.859,39,0,0.767,0,0,0,0, ,0,0,0,0,0, ,-40.8,183.3,981.6,-0.5,-0.5,-1.8,25,-40.2063,180.867,983.028,-0.555725,-0.443832,-1.83335,
2026_07_06_15_53_18.937,3.859,39,0,0.766,0,0,0,0, ,0,0,0,0,0, ,-40.4,182.1,983.2,-0.5,-0.5,-1.8,25,-40.2303,180.979,982.99,-0.552329,-0.447255,-1.83132,
2026_07_06_15_53_18.956,3.859,39,0,0.767,0,0,0,0, ,0,0,0,0,0, ,-40.4,181.2,983,-0.5,-0.4,-1.8,25,-40.2406,181.02,982.997,-0.549141,-0.447422,-1.82941,
2026_07_06_15_53_18.977,3.859,39,0,0.767,0,0,0,0, ,0,0,0,0,0, ,-40.1,181.1,981.2,-0.5,-0.5,-1.9,25,-40.2412,181.028,982.942,-0.546146,-0.447579,-1.83067,
2026_07_06_15_53_18.997,3.859,39,0,0.766,0,0,0,0, ,0,0,0,0,0, ,-41.2,181.3,984.2,-0.5,-0.4,-1.9,25,-40.2661,181.038,982.927,-0.543334,-0.447727,-1.83489,
2026_07_06_15_53_19.016,3.859,39.1,0,0.766,0,0,0,0, ,0,0,0,0,0, ,-41.5,181.1,982.2,-0.5,-0.5,-1.8,25,-40.3322,181.048,982.944,-0.540693,-0.447865,-1.83581,
2026_07_06_15_53_19.036,3.859,39,0,0.766,0,0,0,0, ,0,0,0,0,0, ,-40.5,180.2,982.7,-0.5,-0.5,-1.9,25,-40.3729,181.024,982.914,-0.538214,-0.451042,-1.83668,
2026_07_06_15_53_19.055,3.859,39.1,0,0.766,0,0,0,0, ,0,0,0,0,0, ,-40.1,181.2,981.4,-0.6,-0.5,-1.8,25,-40.3684,181.004,982.861,-0.538932,-0.454026,-1.83749,
2026_07_06_15_53_19.075,3.859,39,0,0.767,0,0,0,0, ,0,0,0,0,0, ,-41.8,180.2,983.2,-0.5,-0.4,-1.9,25,-40.4039,180.986,982.827,-0.539606,-0.45378,-1.83825,
2026_07_06_15_53_19.095,3.859,39,0,0.766,0,0,0,0, ,0,0,0,0,0, ,-39.1,180.5,984.4,-0.5,-0.5,-1.7,25,-40.4067,180.947,982.886,-0.537193,-0.45355,-1.83592,
2026_07_06_15_53_19.114,3.859,39.1,0,0.768,0,0,0,0, ,0,0,0,0,0, ,-40.7,180,982.4,-0.6,-0.5,-1.9,25,-40.3758,180.904,982.918,-0.537973,-0.456381,-1.83373,
2026_07_06_15_53_19.134,3.859,39,0,0.767,0,0,0,0, ,0,0,0,0,0, ,-41.5,179.8,984.7,-0.6,-0.5,-1.8,25,-40.4199,180.843,982.956,-0.541753,-0.459039,-1.83472,
2026_07_06_15_53_19.155,3.859,39,0,0.767,0,0,0,0, ,0,0,0,0,0, ,-40.5,181,982.4,-0.7,-0.5,-1.9,25,-40.4553,180.816,982.992,-0.548349,-0.461535,-1.83565,
2026_07_06_15_53_19.174,3.859,39,0,0.765,0,0,0,0, ,0,0,0,0,0, ,-39.7,180,983.1,-0.6,-0.5,-1.8,25,-40.4336,180.797,982.978,-0.554544,-0.463879,-1.83653,
2026_07_06_15_53_19.194,3.859,38.9,0,0.767,0,0,0,0, ,0,0,0,0,0, ,-40.1,181.7,982.1,-0.7,-0.4,-1.9,25,-40.4011,180.8,982.955,-0.560361,-0.463033,-1.83735,
2026_07_06_15_53_19.214,3.859,39.1,0,0.766,0,0,0,0, ,0,0,0,0,0, ,-40.2,181.2,984,-0.7,-0.4,-1.8,25,-40.3858,180.84,982.96,-0.56887,-0.459192,-1.83812,
2026_07_06_15_53_19.234,3.859,39,0,0.767,0,0,0,0, ,0,0,0,0,0, ,-39.4,181.7,982.4,-0.7,-0.5,-1.8,25,-40.3501,180.877,982.975,-0.576861,-0.458632,-1.8358,
2026_07_06_15_53_19.254,3.859,39,0,0.766,0,0,0,0, ,0,0,0,0,0, ,-40.2,182.3,984.2,-0.7,-0.4,-1.8,25,-40.3166,180.945,982.995,-0.584364,-0.458106,-1.83361,
2026_07_06_15_53_19.273,3.859,39,0,0.765,0,0,0,0, ,0,0,0,0,0, ,-39.5,181.1,982.7,-0.6,-0.4,-1.8,25,-40.2882,180.991,983.023,-0.588364,-0.454565,-1.83157,
2026_07_06_15_53_19.293,3.859,39,0,0.766,0,0,0,0, ,0,0,0,0,0, ,-39.3,182.2,982.7,-0.6,-0.5,-1.8,25,-40.234,181.031,983.003,-0.589073,-0.454287,-1.82964,
2026_07_06_15_53_19.313,3.859,39,0,0.767,0,0,0,0, ,0,0,0,0,0, ,-39.6,182.4,982.6,-0.6,-0.4,-1.8,25,-40.1863,181.109,982.981,-0.589739,-0.454026,-1.82784,
2026_07_06_15_53_19.332,3.859,38.9,0,0.766,0,0,0,0, ,0,0,0,0,0, ,-40.8,182.3,983,-0.6,-0.4,-1.8,25,-40.1871,181.184,982.97,-0.590364,-0.450733,-1.82614,
2026_07_06_15_53_19.352,3.859,39,0,0.766,0,0,0,0, ,0,0,0,0,0, ,-40.4,183.2,981.3,-0.5,-0.5,-1.8,25,-40.2123,181.28,982.92,-0.587905,-0.450689,-1.82455,
2026_07_06_15_53_19.372,3.859,39,0,0.763,0,0,0,0, ,0,0,0,0,0, ,-40.6,183.1,983,-0.5,-0.5,-1.8,25,-40.2298,181.394,982.873,-0.582548,-0.453694,-1.82305,
2026_07_06_15_53_19.392,3.859,39,0,0.766,0,0,0,0, ,0,0,0,0,0, ,-41.3,180.9,984,-0.5,-0.6,-1.9,25,-40.2737,181.431,982.912,-0.577518,-0.459562,-1.82469,
2026_07_06_15_53_19.412,3.859,39,0,0.766,0,0,0,0, ,0,0,0,0,0, ,-39.4,182.4,982.7,-0.5,-0.5,-1.8,25,-40.2783,181.444,982.938,-0.572794,-0.465073,-1.82624,
2026_07_06_15_53_19.432,3.859,38.9,0,0.766,0,0,0,0, ,0,0,0,0,0, ,-40.2,181.1,983.2,-0.5,-0.5,-1.7,25,-40.2492,181.463,982.939,-0.568358,-0.467202,-1.82159,
2026_07_06_15_53_19.451,3.859,39,0,0.766,0,0,0,0, ,0,0,0,0,0, ,-38.8,181.8,982.9,-0.6,-0.5,-1.8,25,-40.2035,181.462,982.946,-0.567239,-0.4692,-1.81723,
2026_07_06_15_53_19.471,3.859,38.9,0,0.766,0,0,0,0, ,0,0,0,0,0, ,-40.5,180.9,983.3,-0.7,-0.5,-1.8,25,-40.1698,181.455,982.955,-0.572283,-0.471077,-1.81618,
2026_07_06_15_53_19.491,3.859,39,0,0.763,0,0,0,0, ,0,0,0,0,0, ,-41.2,180.7,983.3,-0.6,-0.5,-1.8,25,-40.2112,181.415,982.976,-0.577018,-0.47284,-1.81519,
2026_07_06_15_53_19.511,3.859,39,0,0.766,0,0,0,0, ,0,0,0,0,0, ,-40,181.1,983.1,-0.6,-0.5,-1.9,25,-40.2349,181.384,982.99,-0.578419,-0.474495,-1.81731,
2026_07_06_15_53_19.535,3.859,38.9,0,0.766,0,0,0,0, ,0,0,0,0,0, ,-41.3,181.3,983.5,-0.6,-0.5,-1.8,25,-40.2602,181.373,983.009,-0.579734,-0.476049,-1.8193,
2026_07_06_15_53_19.550,3.859,39,0,0.766,0,0,0,0, ,0,0,0,0,0, ,-40.7,180.7,985.1,-0.6,-0.4,-1.9,25,-40.3053,181.35,983.087,-0.580969,-0.474462,-1.82118,
2026_07_06_15_53_19.570,3.859,38.9,0,0.766,0,0,0,0, ,0,0,0,0,0, ,-40.4,182.9,983,-0.5,-0.5,-1.8,25,-40.3202,181.377,983.146,-0.579082,-0.472971,-1.82293,
2026_07_06_15_53_19.590,3.859,38.9,0,0.767,0,0,0,0, ,0,0,0,0,0, ,-40.2,181.8,982.6,-0.5,-0.5,-1.8,25,-40.319,181.437,983.125,-0.574263,-0.474618,-1.82153,
2026_07_06_15_53_19.610,3.859,38.9,0,0.766,0,0,0,0, ,0,0,0,0,0, ,-40.2,180.5,982.1,-0.6,-0.4,-1.8,25,-40.3117,181.419,983.078,-0.572784,-0.473118,-1.82022,
2026_07_06_15_53_19.629,3.859,38.9,0,0.766,0,0,0,0, ,0,0,0,0,0, ,-40.2,181,982,-0.5,-0.4,-1.8,25,-40.3049,181.378,983.015,-0.571396,-0.468662,-1.81899,
2026_07_06_15_53_19.649,3.859,38.9,0,0.766,0,0,0,0, ,0,0,0,0,0, ,-40,181.3,982.4,-0.6,-0.5,-1.8,25,-40.2924,181.364,982.965,-0.570092,-0.467525,-1.81783,
2026_07_06_15_53_19.669,3.859,39,0,0.766,0,0,0,0, ,0,0,0,0,0, ,-38.9,181.5,982.5,-0.6,-0.5,-1.8,25,-40.2411,181.367,982.934,-0.571915,-0.469504,-1.81675,
2026_07_06_15_53_19.689,3.859,39,0,0.766,0,0,0,0, ,0,0,0,0,0, ,-39.7,181,982.7,-0.6,-0.5,-1.8,25,-40.1838,181.36,982.914,-0.573626,-0.471362,-1.81573,
2026_07_06_15_53_19.711,3.859,39,0,0.765,0,0,0,0, ,0,0,0,0,0, ,-40.5,180.9,984.8,-0.7,-0.4,-1.9,25,-40.1787,181.335,982.965,-0.57828,-0.470061,-1.81781,
2026_07_06_15_53_19.728,3.859,39,0,0.766,0,0,0,0, ,0,0,0,0,0, ,-41.1,181.7,983.6,-0.6,-0.5,-1.8,25,-40.2165,181.332,983.04,-0.58265,-0.468838,-1.81978,
2026_07_06_15_53_19.748,3.859,38.9,0,0.766,0,0,0,0, ,0,0,0,0,0, ,-40.6,180.7,983.3,-0.7,-0.4,-1.8,25,-40.2551,181.324,983.065,-0.586755,-0.46769,-1.81857,
2026_07_06_15_53_19.768,3.859,38.9,0,0.765,0,0,0,0, ,0,0,0,0,0, ,-41,182.3,983,-0.7,-0.5,-1.8,25,-40.2883,181.335,983.07,-0.593655,-0.466612,-1.81744,
2026_07_06_15_53_19.788,3.859,39,0,0.766,0,0,0,0, ,0,0,0,0,0, ,-39.7,181.6,982.6,-0.7,-0.4,-1.8,25,-40.2921,181.373,983.054,-0.600136,-0.4656,-1.81638,
2026_07_06_15_53_19.807,3.859,39,0,0.766,0,0,0,0, ,0,0,0,0,0, ,-40.5,180.4,983.5,-0.7,-0.5,-1.8,25,-40.2804,181.35,983.053,-0.606221,-0.464649,-1.81538,
2026_07_06_15_53_19.827,3.859,39,0,0.766,0,0,0,0, ,0,0,0,0,0, ,-40.1,182.7,984.9,-0.8,-0.5,-1.8,25,-40.2816,181.362,983.123,-0.614983,-0.466803,-1.81444,
2026_07_06_15_53_19.847,3.859,38.9,0,0.766,0,0,0,0, ,0,0,0,0,0, ,-39.9,181.7,983.5,-0.6,-0.5,-1.8,25,-40.2644,181.413,983.189,-0.620164,-0.468826,-1.81356,
2026_07_06_15_53_19.867,3.859,38.9,0,0.766,0,0,0,0, ,0,0,0,0,0, ,-40.1,183.7,982.2,-0.6,-0.5,-1.9,25,-40.2483,181.492,983.168,-0.618935,-0.470726,-1.81578,
2026_07_06_15_53_19.887,3.859,38.7,0,0.765,0,0,0,0, ,0,0,0,0,0, ,-41.1,182.3,981.8,-0.6,-0.5,-1.8,25,-40.2697,181.583,983.097,-0.617781,-0.47251,-1.81787,
2026_07_06_15_53_19.907,3.859,38.9,0,0.767,0,0,0,0, ,0,0,0,0,0, ,-41.5,183.5,981.9,-0.6,-0.5,-1.9,25,-40.3325,181.664,983.021,-0.616697,-0.474185,-1.81982,
2026_07_06_15_53_19.926,3.859,39,0,0.767,0,0,0,0, ,0,0,0,0,0, ,-39.9,181.5,984.2,-0.5,-0.5,-1.8,25,-40.3549,181.715,983.023,-0.612633,-0.475758,-1.82166,
2026_07_06_15_53_19.946,3.859,39,0,0.765,0,0,0,0, ,0,0,0,0,0, ,-40.5,181.8,981.6,-0.5,-0.5,-1.8,25,-40.3455,181.711,983.015,-0.60577,-0.477235,-1.82034,
2026_07_06_15_53_19.966,3.859,39,0,0.767,0,0,0,0, ,0,0,0,0,0, ,-40.6,181.7,983,-0.5,-0.5,-1.8,25,-40.3579,181.713,982.972,-0.599324,-0.478623,-1.8191,
2026_07_06_15_53_19.986,3.859,39,0,0.767,0,0,0,0, ,0,0,0,0,0, ,-40.8,180.2,982.2,-0.5,-0.4,-1.8,25,-40.3788,181.667,982.949,-0.593272,-0.476878,-1.81794,
2026_07_06_15_53_20.005,3.859,39,0,0.766,0,0,0,0, ,0,0,0,0,0, ,-41.5,180.4,981.6,-0.6,-0.5,-1.8,25,-40.4258,181.583,982.885,-0.590635,-0.475241,-1.81685,
2026_07_06_15_53_20.026,3.859,39,0,0.767,0,0,0,0, ,0,0,0,0,0, ,-39.4,181.5,982.7,-0.6,-0.5,-1.9,25,-40.4272,181.545,982.84,-0.591205,-0.476749,-1.81887,
2026_07_06_15_53_20.049,3.859,39,0,0.766,0,0,0,0, ,0,0,0,0,0, ,-41.6,181.6,981.4,-0.6,-0.5,-1.8,25,-40.4317,181.545,982.792,-0.591741,-0.478166,-1.82076,
2026_07_06_15_53_20.065,3.859,38.9,0,0.767,0,0,0,0, ,0,0,0,0,0, ,-39.1,181,984.6,-0.4,-0.5,-1.8,25,-40.4267,181.53,982.805,-0.586151,-0.479497,-1.8195,
2026_07_06_15_53_20.085,3.859,39,0,0.766,0,0,0,0, ,0,0,0,0,0, ,-39.9,176.7,983,2,-0.3,0.6,25,-40.3702,181.367,982.866,-0.501682,-0.474652,-1.74519,
2026_07_06_15_53_20.104,3.859,39,0,0.766,0,0,0,0, ,0,0,0,0,0, ,-40,180.4,985.1,0.7,0.5,2.5,25,-40.3446,181.195,982.938,-0.388845,-0.439634,-1.54439,
2026_07_06_15_53_20.124,3.859,38.9,0,0.766,0,0,0,0, ,0,0,0,0,0, ,-33.6,189.2,981.2,-1.7,-0.3,-0.2,25,-40.1286,181.415,982.951,-0.395619,-0.40675,-1.3802,
2026_07_06_15_53_20.144,3.859,38.9,0,0.767,0,0,0,0, ,0,0,0,0,0, ,-41,189,982.2,-2.5,-0.7,-2.8,25,-39.9563,181.883,982.874,-0.49948,-0.412433,-1.3875,
2026_07_06_15_53_20.164,3.859,38.9,0,0.767,0,0,0,0, ,0,0,0,0,0, ,-39.9,181,983.1,-1.5,-0.5,-0.7,25,-39.9863,182.073,982.861,-0.590918,-0.423863,-1.40959,
2026_07_06_15_53_20.183,3.859,38.9,0,0.767,0,0,0,0, ,0,0,0,0,0, ,-44.9,177,982,2.9,-1.8,3.2,25,-40.1334,181.886,982.842,-0.512252,-0.468112,-1.24752,
2026_07_06_15_53_20.203,3.859,38.9,0,0.767,0,0,0,0, ,0,0,0,0,0, ,-49.8,185.4,980.4,5.6,0.1,1,25,-40.5732,181.844,982.742,-0.222053,-0.491383,-1.04353,
2026_07_06_15_53_20.223,3.859,38.9,0,0.766,0,0,0,0, ,0,0,0,0,0, ,-92,176.6,975.3,18.7,-0.2,-0.1,25,-42.4212,181.793,982.444,0.531869,-0.464486,-0.952517,
2026_07_06_15_53_20.242,3.859,39,0,0.765,0,0,0,0, ,0,0,0,0,0, ,-78.3,173.5,987.4,31.9,0,-0.4,25,-45.025,181.382,982.377,2.04118,-0.442275,-0.909707,
2026_07_06_15_53_20.262,3.859,38.9,0,0.766,0,0,0,0, ,0,0,0,0,0, ,-94.8,360.1,1001.9,5.7,-7.4,7.8,25,-47.5554,186.587,983.125,3.06242,-0.640793,-0.628803,
2026_07_06_15_53_20.282,3.859,38.9,0,0.766,0,0,0,0, ,0,0,0,0,0, ,-50.4,133.7,1072.3,27.4,-14.8,0,25,-49.0816,190.262,986.414,3.88432,-1.27815,-0.352829,
2026_07_06_15_53_20.302,3.859,38.9,0,0.766,0,0,0,0, ,0,0,0,0,0, ,20.5,230.9,1048,-18.9,-33.5,-2.5,25,-47.0017,189.777,990.907,3.9066,-2.6719,-0.407501,
2026_07_06_15_53_20.322,3.859,38.9,0,0.766,0,0,0,0, ,0,0,0,0,0, ,18.6,193.3,972.9,-10.6,-35.6,4.4,25,-42.9462,191.137,992.098,2.76971,-4.61448,-0.324778,
2026_07_06_15_53_20.342,3.859,39,0,0.765,0,0,0,0, ,0,0,0,0,0, ,23.5,228.3,984.7,-11.6,-34.5,4.8,25,-39.0464,192.336,991.288,1.92453,-6.46914,-0.0246743,
2026_07_06_15_53_20.361,3.859,39,0,0.767,0,0,0,0, ,0,0,0,0,0, ,26.8,194.5,986,-29.5,-24.5,1.4,25,-35.1345,193.497,990.926,0.554987,-7.87258,0.165736,
2026_07_06_15_53_20.382,3.859,38.9,0,0.767,0,0,0,0, ,0,0,0,0,0, ,41,225.2,980.3,-15.2,0.4,8.5,25,-30.9277,194.494,990.452,-0.840785,-8.12714,0.457277,
2026_07_06_15_53_20.404,3.859,38.9,0,0.767,0,0,0,0, ,0,0,0,0,0, ,-6.5,146.7,1077.5,-7.3,8.6,8.6,25,-27.9919,193.973,992.795,-1.4751,-7.35768,0.950427,
2026_07_06_15_53_20.421,3.859,38.9,0,0.766,0,0,0,0, ,0,0,0,0,0, ,30.7,220.7,1177,-6.6,-19.3,9.8,25,-25.5488,193.347,1000.99,-1.80872,-7.23533,1.45314,
2026_07_06_15_53_20.441,3.859,38.9,0,0.767,0,0,0,0, ,0,0,0,0,0, ,74.8,108,1040.7,-35.7,-64.4,25,25,-20.7774,191.58,1007.56,-2.98733,-9.34467,2.4249,
2026_07_06_15_53_20.461,3.859,38.9,0,0.764,0,0,0,0, ,0,0,0,0,0, ,92.6,252,1003.2,-25.1,-95.2,31.9,25,-14.4108,190.874,1008.44,-4.65779,-13.638,4.0108,
2026_07_06_15_53_20.480,3.859,38.7,0,0.766,0,0,0,0, ,0,0,0,0,0, ,-8.3,173.2,878.1,-59.7,-88.9,36.7,25,-10.9642,192.198,1004.31,-6.95771,-18.4163,5.85655,
2026_07_06_15_53_20.500,3.859,38.9,0,0.768,0,0,0,0, ,0,0,0,0,0, ,27.7,165.1,958,1.1,-49.7,17.8,25,-9.70494,190.794,999.051,-8.31919,-21.517,7.16021,
2026_07_06_15_53_20.519,3.859,38.7,0,0.766,0,0,0,0, ,0,0,0,0,0, ,143.5,137.6,1079.4,-36.9,-20.7,-9,25,-3.89729,188.39,1000.25,-8.90302,-22.3508,6.99201,
2026_07_06_15_53_20.539,3.859,38.9,0,0.763,0,0,0,0, ,0,0,0,0,0, ,164.4,108.5,1045.2,-36.5,-3.7,-0.1,25,5.72153,184.409,1004.03,-10.5969,-21.7322,6.28867,
2026_07_06_15_53_20.559,3.859,38.9,0,0.766,0,0,0,0, ,0,0,0,0,0, ,76.1,107,979.9,-36.2,-2.3,7,25,12.7006,179.737,1004.55,-12.1662,-20.5907,6.11569,
2026_07_06_15_53_20.579,3.859,38.7,0,0.767,0,0,0,0, ,0,0,0,0,0, ,53.7,139.4,968.6,-40.3,-9.6,-4,25,15.8815,176.292,1002.7,-13.7557,-19.6986,5.83442,
2026_07_06_15_53_20.599,3.859,38.9,0,0.767,0,0,0,0, ,0,0,0,0,0, ,41.9,42.1,998.6,-45.4,-20.3,-13.4,25,17.8265,171.079,1001.54,-15.5286,-19.4092,4.94873,
2026_07_06_15_53_20.619,3.859,38.9,0,0.766,0,0,0,0, ,0,0,0,0,0, ,105.7,40.7,1014,-38.3,-25.1,-10.2,25,21.2374,163.177,1001.83,-17.1326,-19.6097,3.9281,
2026_07_06_15_53_20.639,3.859,38.7,0,0.767,0,0,0,0, ,0,0,0,0,0, ,88.7,55.2,1041.2,-47,-24.6,-11.6,25,25.8664,156.155,1003.4,-18.6876,-19.9291,3.02452,
2026_07_06_15_53_20.659,3.859,38.9,0,0.765,0,0,0,0, ,0,0,0,0,0, ,171.1,-26.3,1058.2,-23.2,-17.4,-13.7,25,32.2059,147.52,1006.22,-19.6877,-19.9943,2.06935,
2026_07_06_15_53_20.678,3.859,38.9,0,0.766,0,0,0,0, ,0,0,0,0,0, ,228.7,63.7,873.7,-80.7,-2.1,-18.5,25,42.4248,139.67,1003.77,-21.6537,-19.3701,0.962156,
2026_07_06_15_53_20.698,3.859,38.9,0,0.766,0,0,0,0, ,0,0,0,0,0, ,65.4,-236.5,1018.9,103.5,51.5,-16,25,48.8004,125.894,1000.26,-19.6395,-16.6845,-0.147647,
2026_07_06_15_53_20.718,3.859,38.9,0,0.766,0,0,0,0, ,0,0,0,0,0, ,249.1,55.4,1088.3,-95.5,-3.9,-33.7,25,55.409,112.704,1003.51,-18.1989,-14.2175,-1.65295,
2026_07_06_15_53_20.738,3.859,38.9,0,0.766,0,0,0,0, ,0,0,0,0,0, ,161.6,235.5,949,5.1,-12.3,-8.2,25,64.5461,114.7,1004.44,-19.8443,-13.8447,-2.82886,
2026_07_06_15_53_20.761,3.859,38.9,0,0.768,0,0,0,0, ,0,0,0,0,0, ,66,108.7,1039.9,-45.6,-20.6,6,25,67.5475,118.198,1003.83,-19.869,-14.0035,-2.72351,
2026_07_06_15_53_20.777,3.859,38.9,0,0.765,0,0,0,0, ,0,0,0,0,0, ,90.9,-32.7,1085.8,-44.5,-20,-11.8,25,68.2118,113.311,1007.43,-21.4035,-14.3872,-2.73426,
2026_07_06_15_53_20.796,3.859,38.9,0,0.765,0,0,0,0, ,0,0,0,0,0, ,148.8,-46.2,969.2,-62.8,-9.8,-22.8,25,71.3585,104.002,1008.65,-23.3685,-14.4184,-3.62186,
2026_07_06_15_53_20.816,3.859,38.9,0,0.765,0,0,0,0, ,0,0,0,0,0, ,213.1,-95.5,887.5,-56.4,18.1,-23.5,25,78.0368,93.3467,1003.76,-25.5764,-13.2869,-4.81186,
2026_07_06_15_53_20.836,3.859,38.9,0,0.767,0,0,0,0, ,0,0,0,0,0, ,284.9,-47.4,1027.3,-50.7,33.3,-32.7,25,88.4548,83.3044,1000.93,-27.281,-10.9112,-6.23098,
2026_07_06_15_53_20.856,3.859,38.9,0,0.767,0,0,0,0, ,0,0,0,0,0, ,281.9,13.1,1098,-64.1,30.4,-29.2,25,100.334,77.183,1004.69,-29.1164,-8.3054,-7.73729,
2026_07_06_15_53_20.876,3.859,38.6,0,0.766,0,0,0,0, ,0,0,0,0,0, ,231.3,-40.1,1075.5,-71.8,31.4,-26.8,25,109.857,71.657,1009.69,-31.4828,-5.91632,-8.97205,
2026_07_06_15_53_20.896,3.859,38.9,0,0.766,0,0,0,0, ,0,0,0,0,0, ,67,-201.9,911.4,-99,44,-25.7,25,112.251,59.917,1008.7,-34.7684,-3.25845,-10.0249,
2026_07_06_15_53_20.916,3.859,38.7,0,0.765,0,0,0,0, ,0,0,0,0,0, ,22.5,-257.2,810.3,-91.6,59.1,-26.7,25,108.138,42.2776,999.692,-38.457,0.0814408,-11.0106,
2026_07_06_15_53_20.935,3.859,38.9,0,0.766,0,0,0,0, ,0,0,0,0,0, ,197.8,-342.2,630.6,-24.2,81.6,-42.2,25,108.26,21.4383,982.676,-39.6418,4.36343,-12.4389,
2026_07_06_15_53_20.955,3.859,38.7,0,0.767,0,0,0,0, ,0,0,0,0,0, ,161.3,52,1070.8,111.2,-101.3,-1.3,25,112.605,11.2899,974.634,-34.5754,3.4973,-13.0063,
2026_07_06_15_53_20.975,3.859,38.7,0,0.765,0,0,0,0, ,0,0,0,0,0, ,107,-51,1008.1,-1.2,-250.1,-12,25,113.918,10.6324,978.584,-29.1169,-7.42254,-12.619,
2026_07_06_15_53_20.995,3.859,38.9,0,0.766,0,0,0,0, ,0,0,0,0,0, ,208.7,-259.6,1050.1,8.5,-250.1,10,25,116.595,0.520883,981.662,-27.1202,-22.2107,-11.911,
2026_07_06_15_53_21.015,3.859,38.7,0,0.766,0,0,0,0, ,0,0,0,0,0, ,435.5,-256.4,968.5,26.6,-246.4,0,25,129.118,-15.2327,983.346,-24.3981,-35.985,-10.8804,
2026_07_06_15_53_21.034,3.859,38.9,0,0.766,0,0,0,0, ,0,0,0,0,0, ,491.6,-121.8,878.6,12.5,-180.8,-4.3,25,149.497,-25.8278,979.702,-21.72,-46.8084,-10.3484,
2026_07_06_15_53_21.054,3.859,38.7,0,0.766,0,0,0,0, ,0,0,0,0,0, ,425.7,-58.8,790.7,9.1,-197.7,28.8,25,168.336,-29.7565,970.863,-19.7383,-55.4884,-8.97134,
2026_07_06_15_53_21.074,3.859,38.9,0,0.768,0,0,0,0, ,0,0,0,0,0, ,524.9,-158.3,743,17.8,-203.2,37.6,25,187.042,-34.558,958.431,-17.7159,-64.322,-6.40153,
2026_07_06_15_53_21.094,3.859,38.9,0,0.765,0,0,0,0, ,0,0,0,0,0, ,593.5,-163,698.3,10.9,-173.1,27,25,209.72,-42.2417,943.941,-15.7619,-71.8678,-4.04315,
2026_07_06_15_53_21.114,3.859,38.9,0,0.767,0,0,0,0, ,0,0,0,0,0, ,567.8,-60,732.2,17.8,-136.5,27.6,25,232.324,-46.4622,930.005,-13.9269,-76.9215,-2.13318,
2026_07_06_15_53_21.133,3.859,38.7,0,0.767,0,0,0,0, ,0,0,0,0,0, ,668.8,-138,752.8,33.7,-154.1,43.1,25,255.844,-49.6637,918.579,-11.5091,-81.0883,0.150952,
2026_07_06_15_53_21.153,3.859,38.7,0,0.766,0,0,0,0, ,0,0,0,0,0, ,757.3,-130.6,696.5,51.1,-198.9,49.2,25,283.705,-54.8212,906.762,-8.22403,-86.9024,2.95402,
2026_07_06_15_53_21.173,3.859,38.7,0,0.765,0,0,0,0, ,0,0,0,0,0, ,759.6,-67,592,67.6,-218,52.4,25,312.635,-57.5012,890.765,-4.10624,-94.3092,5.86963,
2026_07_06_15_53_21.192,3.859,38.7,0,0.766,0,0,0,0, ,0,0,0,0,0, ,774.5,-119.7,524.9,60.7,-198.5,54.9,25,340.326,-59.6857,870.515,0.053124,-101.252,8.78125,
2026_07_06_15_53_21.212,3.859,38.7,0,0.767,0,0,0,0, ,0,0,0,0,0, ,760,-162.2,565,43.1,-162,42.5,25,366.341,-64.6378,850.675,3.21254,-106.066,11.2138,
2026_07_06_15_53_21.232,3.859,38.7,0,0.765,0,0,0,0, ,0,0,0,0,0, ,831.7,-169.7,557,34.2,-140,32.4,25,392.515,-70.8115,833.023,5.37201,-108.805,12.8126,
2026_07_06_15_53_21.251,3.859,38.7,0,0.765,0,0,0,0, ,0,0,0,0,0, ,899.9,-222.2,501.2,29.4,-139.4,34.6,25,421.355,-78.4371,814.503,6.98247,-110.687,14.0732,
2026_07_06_15_53_21.272,3.859,38.9,0,0.766,0,0,0,0, ,0,0,0,0,0, ,886.8,-191.1,435.5,46.2,-138.6,8.5,25,450.118,-86.2501,793.409,8.86041,-112.413,14.5288,
2026_07_06_15_53_21.292,3.859,38.7,0,0.766,0,0,0,0, ,0,0,0,0,0, ,680,-113.1,397.3,21.7,-118.6,7.6,25,470.427,-90.2628,770.435,10.3893,-113.399,14.134,
2026_07_06_15_53_21.317,3.859,38.7,0,0.766,0,0,0,0, ,0,0,0,0,0, ,905.3,-92.8,194.7,-8.3,-58.1,-24.1,25,490.062,-91.0359,741.524,10.1645,-111.873,12.77,
2026_07_06_15_53_21.333,3.859,38.7,0,0.764,0,0,0,0, ,0,0,0,0,0, ,875.7,-121.7,326.7,2.6,-74.1,-37.5,25,514.464,-92.024,712.224,9.37142,-109.083,10.1149,
2026_07_06_15_53_21.351,3.859,38.7,0,0.766,0,0,0,0, ,0,0,0,0,0, ,1004.7,-79.8,236.4,7.6,-79.5,-38.7,25,540.407,-92.5557,685.98,9.11113,-107.116,7.17685,
2026_07_06_15_53_21.371,3.859,38.7,0,0.765,0,0,0,0, ,0,0,0,0,0, ,960.2,-113.1,304,12,-80.1,-37.9,25,567.344,-92.793,660.643,9.15311,-105.451,4.4056,
2026_07_06_15_53_21.390,3.859,38.7,0,0.766,0,0,0,0, ,0,0,0,0,0, ,979.7,-98.2,302.3,7.3,-87.5,-31.1,25,591.878,-93.5765,638.859,9.18339,-104.132,2.03479,
2026_07_06_15_53_21.410,3.859,38.7,0,0.767,0,0,0,0, ,0,0,0,0,0, ,1001.5,-99.9,241.4,6.9,-85.4,-23.5,25,616.175,-93.91,616.494,9.05643,-103.055,0.247205,
2026_07_06_15_53_21.430,3.859,38.7,0,0.766,0,0,0,0, ,0,0,0,0,0, ,1000.9,-74.7,167.3,-8.8,-71.5,-29.6,25,639.638,-93.5072,591.379,8.44666,-101.555,-1.38575,
2026_07_06_15_53_21.450,3.859,38.7,0,0.766,0,0,0,0, ,0,0,0,0,0, ,982.1,-43.5,131.2,19.6,-61.1,-25.7,25,661.079,-91.4105,564.437,8.26101,-99.4069,-2.98623,
2026_07_06_15_53_21.469,3.859,38.7,0,0.766,0,0,0,0, ,0,0,0,0,0, ,1012.9,-43.7,106.9,19.3,-72.8,-20.8,25,681.58,-88.4971,537.296,8.94284,-97.429,-4.22105,
2026_07_06_15_53_21.490,3.859,38.9,0,0.766,0,0,0,0, ,0,0,0,0,0, ,982.1,-73.6,119.3,16.2,-72.2,-16.4,25,700.831,-86.6783,511.447,9.47952,-95.9099,-5.09727,
2026_07_06_15_53_21.511,3.859,38.7,0,0.766,0,0,0,0, ,0,0,0,0,0, ,974.2,-40.8,96.3,8.6,-55.7,-16,25,717.73,-84.882,486.849,9.65749,-93.9624,-5.77384,
2026_07_06_15_53_21.529,3.859,38.7,0,0.766,0,0,0,0, ,0,0,0,0,0, ,1025.8,-48,93.2,0.4,-41.2,-14.7,25,734.931,-82.4151,462.956,9.34321,-91.1889,-6.35739,
2026_07_06_15_53_21.549,3.859,38.9,0,0.766,0,0,0,0, ,0,0,0,0,0, ,1071.7,-36.9,28.4,1.5,-26.1,-3.5,25,754.055,-79.9797,438.449,8.83175,-87.6827,-6.52452,
2026_07_06_15_53_21.569,3.859,38.9,0,0.766,0,0,0,0, ,0,0,0,0,0, ,1043.5,-32.5,14.2,3.3,-21.6,1.1,25,772.552,-77.2205,413.029,8.43981,-83.7929,-6.20005,
2026_07_06_15_53_21.589,3.859,38.7,0,0.766,0,0,0,0, ,0,0,0,0,0, ,959.5,-18.7,14,5.5,-23.9,-0.1,25,786.503,-74.0749,388.72,8.19363,-80.0731,-5.79177,
2026_07_06_15_53_21.608,3.859,38.7,0,0.766,0,0,0,0, ,0,0,0,0,0, ,947.5,-19.8,1.5,9.4,-38.2,-12.5,25,796.68,-70.734,365.504,8.14832,-77.0857,-5.82274,
2026_07_06_15_53_21.628,3.859,38.7,0,0.766,0,0,0,0, ,0,0,0,0,0, ,966.3,-20,1.9,8.1,-44.8,-17.9,25,806.443,-67.6363,343.335,8.18498,-74.9172,-6.39417,
2026_07_06_15_53_21.648,3.859,38.7,0,0.767,0,0,0,0, ,0,0,0,0,0, ,1016.6,-26.2,57.3,0.1,-33.3,-17.7,25,817.717,-64.9223,324.217,7.93606,-72.7316,-7.08921,
2026_07_06_15_53_21.668,3.859,38.7,0,0.767,0,0,0,0, ,0,0,0,0,0, ,1043.2,-38.9,46.8,-5.1,-12.1,-10.4,25,830.647,-62.9497,307.632,7.30011,-69.6828,-7.51338,
2026_07_06_15_53_21.687,3.859,38.7,0,0.766,0,0,0,0, ,0,0,0,0,0, ,1010.4,-19.1,-26.6,-1.6,-3,-4.5,25,842.6,-60.8808,289.501,6.65112,-65.8965,-7.50952,
2026_07_06_15_53_21.707,3.859,38.7,0,0.766,0,0,0,0, ,0,0,0,0,0, ,1002.3,-10.8,-52.7,-4.9,1.2,-2.4,25,852.579,-58.0819,269.443,6.04777,-61.9358,-7.26214,
2026_07_06_15_53_21.727,3.859,38.9,0,0.765,0,0,0,0, ,0,0,0,0,0, ,973.7,-16.7,-24.5,-0.5,-6.1,-5.2,25,860.831,-55.3805,250.672,5.5147,-58.3109,-7.05117,
2026_07_06_15_53_21.746,3.859,38.7,0,0.764,0,0,0,0, ,0,0,0,0,0, ,1006.9,-19.4,10.2,0.3,-6.9,-5.9,25,868.72,-53.1056,234.961,5.17256,-55.1537,-6.95969,
2026_07_06_15_53_21.766,3.859,38.7,0,0.765,0,0,0,0, ,0,0,0,0,0, ,1007,-27.3,23,-0.6,-5,-0.9,25,877.144,-51.2924,221.654,4.84821,-52.1553,-6.74277,
2026_07_06_15_53_21.786,3.859,38.7,0,0.765,0,0,0,0, ,0,0,0,0,0, ,973.2,-22.7,28.3,-4.9,3.7,-0.5,25,884.027,-49.6902,209.71,4.3852,-49.0167,-6.37454,
2026_07_06_15_53_21.806,3.859,38.7,0,0.768,0,0,0,0, ,0,0,0,0,0, ,956.2,-17.7,7.2,-8.7,6.9,-5.2,25,888.943,-47.8931,198.013,3.7036,-45.7068,-6.15976,
2026_07_06_15_53_21.826,3.859,38.7,0,0.768,0,0,0,0, ,0,0,0,0,0, ,978.2,-17.9,6.8,-9.6,6.3,-7.8,25,893.712,-46.0593,186.373,2.92033,-42.5194,-6.1805,
2026_07_06_15_53_21.846,3.859,38.7,0,0.766,0,0,0,0, ,0,0,0,0,0, ,997.3,-15.5,3.5,-6.6,2.3,-7,25,899.442,-44.2703,175.33,2.24878,-39.6663,-6.25481,
2026_07_06_15_53_21.865,3.859,38.9,0,0.766,0,0,0,0, ,0,0,0,0,0, ,982.5,-10.8,3.2,-5.3,2.2,-8.3,25,904.954,-42.3739,164.85,1.74917,-37.112,-6.33983,
2026_07_06_15_53_21.885,3.859,38.7,0,0.765,0,0,0,0, ,0,0,0,0,0, ,987.9,-7.5,4.6,-6.6,0.3,-9.5,25,909.844,-40.3493,155.042,1.28,-34.7743,-6.49584,
2026_07_06_15_53_21.905,3.859,38.7,0,0.767,0,0,0,0, ,0,0,0,0,0, ,965.3,31.2,-14.4,2.5,-0.8,-4.8,25,913.912,-37.1684,145.295,1.07708,-32.6705,-6.5357,
2026_07_06_15_53_21.925,3.859,38.7,0,0.766,0,0,0,0, ,0,0,0,0,0, ,1003.5,-24,-10.7,8.1,0.4,-8.3,25,918.208,-34.6841,135.677,1.33441,-30.6918,-6.53657,
2026_07_06_15_53_21.945,3.859,38.7,0,0.765,0,0,0,0, ,0,0,0,0,0, ,1028,-18.7,-26.6,-3.3,-3.4,-5.9,25,924.152,-33.8715,126.272,1.39935,-28.913,-6.57091,
2026_07_06_15_53_21.965,3.859,38.7,0,0.766,0,0,0,0, ,0,0,0,0,0, ,998.7,-1.8,-12.8,1.7,-4.3,-1.2,25,929.587,-32.4321,117.377,1.26532,-27.3857,-6.38682,
2026_07_06_15_53_21.984,3.859,38.7,0,0.768,0,0,0,0, ,0,0,0,0,0, ,956.4,8.9,4.8,1.7,-2.3,-3.8,25,932.51,-30.2394,109.981,1.29181,-25.918,-6.14997,
2026_07_06_15_53_22.003,3.859,38.7,0,0.767,0,0,0,0, ,0,0,0,0,0, ,948.1,-8.9,7.6,6.6,0.7,-2.7,25,933.713,-28.3967,103.657,1.46598,-24.3873,-5.97325,
2026_07_06_15_53_22.023,3.859,38.7,0,0.766,0,0,0,0, ,0,0,0,0,0, ,974.9,6.9,3.4,1.5,2.3,-8.8,25,935.406,-26.7272,97.6752,1.62345,-22.8098,-5.95965,
2026_07_06_15_53_22.043,3.859,38.7,0,0.765,0,0,0,0, ,0,0,0,0,0, ,1002.5,-7.8,-2,3.9,-1.7,-6.4,25,938.654,-25.126,91.7658,1.68905,-21.4016,-6.05961,
2026_07_06_15_53_22.063,3.859,38.7,0,0.764,0,0,0,0, ,0,0,0,0,0, ,982.9,6.3,10,3.3,-5.6,-6.9,25,941.947,-23.6406,86.4176,1.8055,-20.3198,-6.09558,
2026_07_06_15_53_22.083,3.859,38.7,0,0.765,0,0,0,0, ,0,0,0,0,0, ,991.5,11.2,-1.2,3.8,-6.1,-8.5,25,944.705,-21.6668,81.4196,1.9118,-19.4381,-6.19335,
2026_07_06_15_53_22.103,3.859,38.7,0,0.767,0,0,0,0, ,0,0,0,0,0, ,1018,1.3,5.8,2.8,-4.5,-6.6,25,948.364,-19.9656,76.5983,1.9964,-18.5765,-6.27602,
2026_07_06_15_53_22.122,3.859,38.6,0,0.765,0,0,0,0, ,0,0,0,0,0, ,1020.5,-4.3,13,-0.6,-3.1,-3.3,25,952.683,-18.8403,72.5034,1.94177,-17.6761,-6.19522,
2026_07_06_15_53_22.142,3.859,38.6,0,0.767,0,0,0,0, ,0,0,0,0,0, ,1002.8,13.4,-1.2,-2.8,-3.2,-3.2,25,956.277,-17.415,68.4447,1.71985,-16.7909,-6.01574,
2026_07_06_15_53_22.162,3.859,38.7,0,0.766,0,0,0,0, ,0,0,0,0,0, ,1008.9,13.1,-15,-1.3,-6.3,-3.9,25,959.298,-15.5463,63.7803,1.49013,-16.0572,-5.86549,
2026_07_06_15_53_22.182,3.859,38.7,0,0.766,0,0,0,0, ,0,0,0,0,0, ,1003.4,12.4,-12.9,-0.6,-7,-2.7,25,962.153,-13.822,59.0436,1.34143,-15.4839,-5.70915,
2026_07_06_15_53_22.202,3.859,38.7,0,0.766,0,0,0,0, ,0,0,0,0,0, ,989.7,8.3,5.9,-1,-6,-2.4,25,964.249,-12.349,55.2323,1.21094,-14.9365,-5.51664,
2026_07_06_15_53_22.221,3.859,38.6,0,0.766,0,0,0,0, ,0,0,0,0,0, ,990.8,6.4,8,-1.8,-5.8,-2,25,965.833,-11.1486,52.2901,1.05183,-14.3858,-5.31453,
2026_07_06_15_53_22.241,3.859,38.7,0,0.768,0,0,0,0, ,0,0,0,0,0, ,1018.9,2.9,5.4,-1.9,-6.3,0.8,25,968.211,-10.1859,49.512,0.875003,-13.8778,-5.02724,
2026_07_06_15_53_22.261,3.859,38.7,0,0.765,0,0,0,0, ,0,0,0,0,0, ,988.2,13.6,-43.5,-1.1,-5.1,3.8,25,970.364,-9.06247,45.334,0.730276,-13.3795,-4.58074,
2026_07_06_15_53_22.281,3.859,38.6,0,0.767,0,0,0,0, ,0,0,0,0,0, ,964.4,15.7,-48.8,-2.3,-0.8,-1.3,25,970.726,-7.61749,39.7592,0.582181,-12.744,-4.22543,
2026_07_06_15_53_22.301,3.859,38.7,0,0.766,0,0,0,0, ,0,0,0,0,0, ,994,13,-37.4,-2.9,-1,-4.3,25,971.242,-6.27885,34.71,0.388267,-12.0222,-4.13857,
2026_07_06_15_53_22.320,3.859,38.6,0,0.767,0,0,0,0, ,0,0,0,0,0, ,1008.4,13.7,-32.2,-0.5,-2.4,-3.3,25,973.068,-5.08271,30.4742,0.261014,-11.3932,-4.11794,
2026_07_06_15_53_22.340,3.859,38.6,0,0.766,0,0,0,0, ,0,0,0,0,0, ,1015.8,6.3,-33.9,2.1,-1.1,-0.8,25,975.446,-4.16361,26.6032,0.293858,-10.8056,-3.99192,
2026_07_06_15_53_22.360,3.859,38.6,0,0.765,0,0,0,0, ,0,0,0,0,0, ,1000.6,15.9,-41.5,5.7,0.5,1.2,25,977.442,-3.23348,22.6847,0.513607,-10.1654,-3.73648,
2026_07_06_15_53_22.380,3.859,38.7,0,0.765,0,0,0,0, ,0,0,0,0,0, ,982.7,6.7,-15,3.1,4.5,3.2,25,978.308,-2.34785,19.5809,0.750434,-9.39359,-3.37472,
2026_07_06_15_53_22.400,3.859,38.7,0,0.763,0,0,0,0, ,0,0,0,0,0, ,977.2,5.3,-7.9,2.1,4.7,0.1,25,978.408,-1.83915,17.6899,0.863142,-8.54086,-3.06853,
2026_07_06_15_53_22.419,3.859,38.6,0,0.766,0,0,0,0, ,0,0,0,0,0, ,971.6,-1.8,-1.7,1.9,1.7,-2.2,25,978.164,-1.62044,16.3195,0.932419,-7.8254,-2.94552,
2026_07_06_15_53_22.439,3.859,38.6,0,0.767,0,0,0,0, ,0,0,0,0,0, ,961.7,-0.3,10.7,-0.1,1.4,-4.7,25,977.462,-1.58568,15.5992,0.930444,-7.25409,-2.97626,
2026_07_06_15_53_22.459,3.859,38.5,0,0.766,0,0,0,0, ,0,0,0,0,0, ,987.3,-1.5,-0.8,-0.8,-0.2,-6.4,25,977.282,-1.54389,14.9503,0.846323,-6.77548,-3.1331,
2026_07_06_15_53_22.479,3.859,38.6,0,0.766,0,0,0,0, ,0,0,0,0,0, ,992.3,6.7,-21.7,-0.1,-1.4,-4.5,25,978.045,-1.29138,13.3537,0.767328,-6.41135,-3.27429,
2026_07_06_15_53_22.499,3.859,38.6,0,0.766,0,0,0,0, ,0,0,0,0,0, ,978.5,3.1,-13.9,0,-0.3,-5.2,25,978.493,-0.914089,11.4553,0.717522,-6.07245,-3.37031,
2026_07_06_15_53_22.518,3.859,38.6,0,0.766,0,0,0,0, ,0,0,0,0,0, ,982.1,0.3,8.5,-1,0.5,-5.7,25,978.603,-0.754793,10.5927,0.64333,-5.69632,-3.49704,
2026_07_06_15_53_22.538,3.859,38.5,0,0.766,0,0,0,0, ,0,0,0,0,0, ,980.7,5.8,9.5,-2.8,0.1,-6.1,25,978.773,-0.522938,10.4956,0.488346,-5.33092,-3.64347,
2026_07_06_15_53_22.557,3.859,38.7,0,0.766,0,0,0,0, ,0,0,0,0,0, ,985.1,8.1,2.8,-3.2,-0.4,-6.2,25,979.025,-0.0675559,10.2308,0.275775,-5.01521,-3.79621,
2026_07_06_15_53_22.578,3.859,38.7,0,0.766,0,0,0,0, ,0,0,0,0,0, ,970.3,10.6,-3.1,-3.8,-1.1,-6.9,25,978.944,0.506326,9.59823,0.0456883,-4.75529,-3.96402,
2026_07_06_15_53_22.597,3.859,38.6,0,0.766,0,0,0,0, ,0,0,0,0,0, ,960.3,14.6,-7.2,-4.2,-1.4,-10.4,25,978.113,1.24328,8.69951,-0.200846,-4.54169,-4.24957,
2026_07_06_15_53_22.617,3.859,38.7,0,0.766,0,0,0,0, ,0,0,0,0,0, ,999.6,19.7,-17.3,-1.2,-3.6,-12.5,25,978.225,2.2126,7.4229,-0.353138,-4.41728,-4.68835,
2026_07_06_15_53_22.637,3.859,38.7,0,0.766,0,0,0,0, ,0,0,0,0,0, ,987.3,50.7,-28.1,-0.6,-7.1,-7.7,25,979.152,4.22277,5.58729,-0.386462,-4.47411,-5.01812,
2026_07_06_15_53_22.657,3.859,38.6,0,0.766,0,0,0,0, ,0,0,0,0,0, ,980.4,-7,-17.7,-2,-6,-7.8,25,979.439,5.29693,3.85134,-0.442131,-4.60061,-5.18459,
2026_07_06_15_53_22.677,3.859,38.7,0,0.766,0,0,0,0, ,0,0,0,0,0, ,963.3,71.6,-17,-1.8,-2.7,-10.6,25,978.976,6.94243,2.55939,-0.53097,-4.58534,-5.42928,
2026_07_06_15_53_22.697,3.859,38.6,0,0.765,0,0,0,0, ,0,0,0,0,0, ,1014.8,19.8,-11.5,-1.1,-1.6,-9.5,25,979.59,9.30422,1.53506,-0.586973,-4.43694,-5.71086,
2026_07_06_15_53_22.717,3.859,38.7,0,0.767,0,0,0,0, ,0,0,0,0,0, ,1027.8,7,-78.2,2,2.1,0,25,982.132,9.5538,-1.29153,-0.523783,-4.15133,-5.65231,
2026_07_06_15_53_22.737,3.859,38.6,0,0.766,0,0,0,0, ,0,0,0,0,0, ,981.5,23.8,-9.3,7.2,3.3,2.9,25,983.504,9.91006,-3.87884,-0.211552,-3.73382,-5.21951,
2026_07_06_15_53_22.756,3.859,38.6,0,0.766,0,0,0,0, ,0,0,0,0,0, ,991.6,33.2,-38.9,-0.1,0.4,-1,25,983.69,11.0429,-5.11107,0.0176672,-3.39356,-4.84355,
2026_07_06_15_53_22.775,3.859,38.6,0,0.766,0,0,0,0, ,0,0,0,0,0, ,989.7,30.7,-18,0.2,1.3,-1.1,25,984.114,12.3169,-6.53328,0.0196375,-3.13497,-4.61238,
2026_07_06_15_53_22.796,3.859,38.6,0,0.766,0,0,0,0, ,0,0,0,0,0, ,987.7,50.5,-34.6,2.3,4.2,0.4,25,984.393,14.0404,-7.73782,0.0946127,-2.77635,-4.35265,
2026_07_06_15_53_22.814,3.859,38.6,0,0.766,0,0,0,0, ,0,0,0,0,0, ,992.3,15.1,-9.3,1.8,4.7,-1.3,25,984.735,15.1836,-8.60387,0.213769,-2.336,-4.11483,
2026_07_06_15_53_22.835,3.859,38.6,0,0.766,0,0,0,0, ,0,0,0,0,0, ,991.9,31.6,-21.3,1.9,4.7,-1.4,25,985.184,15.6812,-9.01192,0.313477,-1.90724,-3.94635,
2026_07_06_15_53_22.855,3.859,38.7,0,0.767,0,0,0,0, ,0,0,0,0,0, ,989.6,39.1,-9,5.5,6.1,0,25,985.523,16.8798,-9.38596,0.519843,-1.46196,-3.74852,
2026_07_06_15_53_22.875,3.859,38.6,0,0.765,0,0,0,0, ,0,0,0,0,0, ,991.2,25.2,-15.6,0.2,5.9,-0.5,25,985.82,17.8103,-9.56353,0.661837,-1.00724,-3.53533,
2026_07_06_15_53_22.894,3.859,38.6,0,0.767,0,0,0,0, ,0,0,0,0,0, ,989.8,39.5,-20.9,0,7.1,-0.1,25,986.105,18.6963,-10.0929,0.6276,-0.549771,-3.33818,
2026_07_06_15_53_22.914,3.859,38.7,0,0.766,0,0,0,0, ,0,0,0,0,0, ,987.9,33.9,-25.2,2.4,11.1,2.3,25,986.273,19.7934,-10.8824,0.662481,0.0382621,-3.06773,
2026_07_06_15_53_22.933,3.859,38.5,0,0.766,0,0,0,0, ,0,0,0,0,0, ,989.9,29.6,-7.8,4.3,14.4,2.4,25,986.433,20.522,-11.2248,0.826251,0.812884,-2.73758,
2026_07_06_15_53_22.953,3.859,38.5,0,0.767,0,0,0,0, ,0,0,0,0,0, ,993.7,1,43,6.7,11.3,2,25,986.76,20.2038,-9.46825,1.11106,1.5464,-2.4367,
2026_07_06_15_53_22.973,3.859,38.6,0,0.766,0,0,0,0, ,0,0,0,0,0, ,990.9,15.3,35.1,1.9,4.7,-0.9,25,987.097,19.4693,-6.51167,1.30538,1.93966,-2.2547,
2026_07_06_15_53_22.993,3.859,38.7,0,0.765,0,0,0,0, ,0,0,0,0,0, ,991.3,19.7,-7.2,-0.6,4.1,-1.4,25,987.341,19.3493,-5.26479,1.26545,2.08959,-2.18738,
2026_07_06_15_53_23.012,3.859,38.5,0,0.767,0,0,0,0, ,0,0,0,0,0, ,990.3,22,-3.5,-1.7,7.3,-1.7,25,987.552,19.4407,-5.26998,1.11826,2.3096,-2.14854,
2026_07_06_15_53_23.032,3.859,38.7,0,0.767,0,0,0,0, ,0,0,0,0,0, ,992.6,15.5,-7.5,-2.6,10.2,-2.2,25,987.79,19.3986,-5.284,0.919096,2.70206,-2.13644,
2026_07_06_15_53_23.052,3.859,38.6,0,0.766,0,0,0,0, ,0,0,0,0,0, ,994.2,41.7,11.1,-2,15.6,-2.1,25,988.131,19.9593,-4.85231,0.722932,3.3235,-2.13727,
2026_07_06_15_53_23.072,3.859,38.6,0,0.765,0,0,0,0, ,0,0,0,0,0, ,993.7,27.7,36.4,1.1,17,-1.6,25,988.486,20.8576,-3.10936,0.651457,4.11425,-2.11976,
2026_07_06_15_53_23.092,3.859,38.5,0,0.766,0,0,0,0, ,0,0,0,0,0, ,991.3,21.2,48.2,6.6,16.5,-1.2,25,988.731,21.0765,-0.342228,0.846368,4.88424,-2.0759,
2026_07_06_15_53_23.111,3.859,38.6,0,0.766,0,0,0,0, ,0,0,0,0,0, ,983.7,15.6,86.9,-0.4,11.2,-1.9,25,988.656,20.9134,3.79495,0.983699,5.43059,-2.04385,
2026_07_06_15_53_23.132,3.859,38.6,0,0.766,0,0,0,0, ,0,0,0,0,0, ,984.4,23.8,72.9,-2.8,1.4,-2.2,25,988.375,20.8395,8.4326,0.826255,5.48357,-2.04423,
2026_07_06_15_53_23.154,3.859,38.6,0,0.765,0,0,0,0, ,0,0,0,0,0, ,986.3,29.7,59.6,-6.4,-3,-2.1,25,988.191,21.1996,11.9559,0.495592,5.10067,-2.05067,
2026_07_06_15_53_23.171,3.859,38.6,0,0.763,0,0,0,0, ,0,0,0,0,0, ,989.5,23.1,43.5,-6.4,-5.1,-1.6,25,988.173,21.5165,14.3686,0.0753921,4.54305,-2.03845,
2026_07_06_15_53_23.196,3.859,38.6,0,0.765,0,0,0,0, ,0,0,0,0,0, ,991.8,18.9,30.1,-4.9,-4.9,-1.3,25,988.324,21.4851,15.7355,-0.273499,3.96152,-2.00259,
2026_07_06_15_53_23.211,3.859,38.6,0,0.766,0,0,0,0, ,0,0,0,0,0, ,989.1,32.3,35.8,-4.7,-3.4,-0.4,25,988.453,21.7358,16.7845,-0.549333,3.46722,-1.93235,
2026_07_06_15_53_23.231,3.859,38.5,0,0.765,0,0,0,0, ,0,0,0,0,0, ,982,96.8,37.5,-1.4,-1.8,7.3,25,988.277,24.3448,17.9951,-0.701717,3.0975,-1.60436,
2026_07_06_15_53_23.250,3.859,38.5,0,0.765,0,0,0,0, ,0,0,0,0,0, ,988,46.8,30.5,-7.9,-6,2.1,25,988.077,27.2366,18.9704,-0.942315,2.67109,-1.22019,
2026_07_06_15_53_23.270,3.859,38.5,0,0.767,0,0,0,0, ,0,0,0,0,0, ,994,15.2,16.1,-9.6,-8.9,2.4,25,988.255,27.4659,19.2342,-1.4181,2.05434,-1.00873,
2026_07_06_15_53_23.290,3.859,38.5,0,0.766,0,0,0,0, ,0,0,0,0,0, ,996.8,-4.5,-4.2,-1.7,-3.2,0,25,988.69,26.1182,18.4247,-1.67598,1.56048,-0.874133,
2026_07_06_15_53_23.310,3.859,38.6,0,0.765,0,0,0,0, ,0,0,0,0,0, ,991.3,10.9,24,-0.8,-0.9,-1.4,25,989.017,24.7217,17.9052,-1.65002,1.34047,-0.863522,
2026_07_06_15_53_23.329,3.859,38.5,0,0.765,0,0,0,0, ,0,0,0,0,0, ,990.2,13.7,31,-0.5,-0.4,-1.7,25,989.123,23.9647,18.4899,-1.58908,1.21917,-0.905354,
2026_07_06_15_53_23.350,3.859,38.5,0,0.765,0,0,0,0, ,0,0,0,0,0, ,992.6,10.7,27.5,-0.5,-0.4,-1.9,25,989.261,23.2478,19.1456,-1.52272,1.1205,-0.959872,
2026_07_06_15_53_23.369,3.859,38.6,0,0.765,0,0,0,0, ,0,0,0,0,0, ,989.7,12,30.2,-0.4,-0.2,-2.2,25,989.376,22.5228,19.737,-1.45735,1.03394,-1.0263,
2026_07_06_15_53_23.389,3.859,38.5,0,0.766,0,0,0,0, ,0,0,0,0,0, ,989.8,14.4,30.5,-0.3,-0.4,-2.1,25,989.399,21.9547,20.3837,-1.38987,0.952655,-1.09478,
2026_07_06_15_53_23.411,3.859,38.6,0,0.766,0,0,0,0, ,0,0,0,0,0, ,990.2,16.4,31.1,-0.1,-0.6,-1.7,25,989.436,21.5553,21.0185,-1.31736,0.864134,-1.14385,
2026_07_06_15_53_23.433,3.859,38.5,0,0.765,0,0,0,0, ,0,0,0,0,0, ,990.4,15.2,29.5,-0.4,-1,-1.3,25,989.488,21.2045,21.584,-1.25232,0.762726,-1.16555,
2026_07_06_15_53_23.448,3.859,38.6,0,0.766,0,0,0,0, ,0,0,0,0,0, ,989.1,16.3,33.6,-0.3,-1.3,-0.8,25,989.504,20.8722,22.1913,-1.19733,0.646169,-1.15851,
2026_07_06_15_53_23.469,3.859,38.5,0,0.765,0,0,0,0, ,0,0,0,0,0, ,991.8,12,29.9,-0.4,-0.9,-1.4,25,989.562,20.4625,22.7738,-1.1457,0.539762,-1.15494,
2026_07_06_15_53_23.488,3.859,38.6,0,0.766,0,0,0,0, ,0,0,0,0,0, ,990.8,11.1,27.8,-0.4,-1,-1.4,25,989.668,19.9194,23.1441,-1.10026,0.44898,-1.16988,
2026_07_06_15_53_23.508,3.859,38.6,0,0.766,0,0,0,0, ,0,0,0,0,0, ,990.7,11.2,28.1,-0.5,-0.6,-1.8,25,989.734,19.385,23.437,-1.06063,0.37287,-1.19609,
2026_07_06_15_53_23.527,3.859,38.6,0,0.766,0,0,0,0, ,0,0,0,0,0, ,990.3,13.9,28,-0.4,-0.4,-2.1,25,989.781,18.9685,23.7181,-1.02342,0.319679,-1.24203,
2026_07_06_15_53_23.547,3.859,38.5,0,0.765,0,0,0,0, ,0,0,0,0,0, ,991.9,15.1,29.1,-0.4,-0.3,-2,25,989.861,18.6962,24.0125,-0.985432,0.278871,-1.29126,
2026_07_06_15_53_23.567,3.859,38.5,0,0.766,0,0,0,0, ,0,0,0,0,0, ,990.4,15.5,31.4,-0.6,-0.5,-1.8,25,989.94,18.4893,24.3926,-0.955851,0.237502,-1.32836,
2026_07_06_15_53_23.587,3.859,38.5,0,0.767,0,0,0,0, ,0,0,0,0,0, ,990.6,15.1,30.6,-0.5,-0.8,-1.5,25,989.974,18.2949,24.7952,-0.93112,0.18342,-1.34796,
2026_07_06_15_53_23.606,3.859,38.5,0,0.767,0,0,0,0, ,0,0,0,0,0, ,991.4,12,28.5,-0.3,-0.8,-1.2,25,990.036,18.0058,25.085,-0.898755,0.123493,-1.34808,
2026_07_06_15_53_23.626,3.859,38.5,0,0.766,0,0,0,0, ,0,0,0,0,0, ,989.9,12.3,27.4,-0.3,-0.7,-1.3,25,990.074,17.6489,25.2596,-0.862268,0.0702644,-1.34211,
2026_07_06_15_53_23.649,3.859,38.6,0,0.765,0,0,0,0, ,0,0,0,0,0, ,990.4,11.3,29.4,-0.4,-0.6,-1.5,25,990.078,17.2925,25.4509,-0.831052,0.0263733,-1.34563,
2026_07_06_15_53_23.669,3.859,38.5,0,0.766,0,0,0,0, ,0,0,0,0,0, ,990.3,12.3,28.8,-0.5,-0.5,-1.7,25,990.095,16.9578,25.6733,-0.807831,-0.00874943,-1.36113,
2026_07_06_15_53_23.685,3.859,38.6,0,0.767,0,0,0,0, ,0,0,0,0,0, ,990.3,12,29.7,-0.5,-0.5,-1.8,25,990.107,16.6648,25.8913,-0.789073,-0.038685,-1.38483,
2026_07_06_15_53_23.705,3.859,38.5,0,0.765,0,0,0,0, ,0,0,0,0,0, ,991.9,13.5,28.3,-0.5,-0.3,-1.9,25,990.168,16.4263,26.0807,-0.771457,-0.0607026,-1.41318,
2026_07_06_15_53_23.725,3.859,38.5,0,0.765,0,0,0,0, ,0,0,0,0,0, ,990.1,11.2,29.1,-0.6,-0.3,-2.1,25,990.219,16.1779,26.2403,-0.757962,-0.0752848,-1.44894,
2026_07_06_15_53_23.744,3.859,38.5,0,0.765,0,0,0,0, ,0,0,0,0,0, ,990.4,13.9,30.1,-0.6,-0.5,-1.9,25,990.22,15.9568,26.445,-0.748337,-0.0950721,-1.48252,
2026_07_06_15_53_23.764,3.859,38.5,0,0.766,0,0,0,0, ,0,0,0,0,0, ,990.2,12.2,30.7,-0.5,-0.7,-1.7,25,990.225,15.7797,26.686,-0.73625,-0.125841,-1.50186,
2026_07_06_15_53_23.785,3.859,38.5,0,0.765,0,0,0,0, ,0,0,0,0,0, ,991.8,12.4,28.1,-0.5,-0.9,-1.6,25,990.273,15.5676,26.8514,-0.721854,-0.166923,-1.51089,
2026_07_06_15_53_23.804,3.859,38.5,0,0.765,0,0,0,0, ,0,0,0,0,0, ,990.8,11.9,27.5,-0.5,-0.6,-1.6,25,990.335,15.3594,26.9092,-0.708335,-0.202454,-1.51632,
2026_07_06_15_53_23.824,3.859,38.6,0,0.767,0,0,0,0, ,0,0,0,0,0, ,990.4,11.7,29.5,-0.6,-0.2,-1.9,25,990.351,15.1425,27.0062,-0.698686,-0.214492,-1.53056,
2026_07_06_15_53_23.844,3.859,38.5,0,0.765,0,0,0,0, ,0,0,0,0,0, ,991.5,11.5,30.6,-0.5,-0.4,-1.9,25,990.388,14.9266,27.1917,-0.689626,-0.219703,-1.55307,
2026_07_06_15_53_23.864,3.859,38.5,0,0.766,0,0,0,0, ,0,0,0,0,0, ,991.8,10.9,26.9,-0.5,-0.5,-1.9,25,990.465,14.6995,27.2866,-0.67807,-0.233736,-1.57421,
2026_07_06_15_53_23.884,3.859,38.6,0,0.767,0,0,0,0, ,0,0,0,0,0, ,990.6,10.4,27,-0.5,-0.2,-2.3,25,990.509,14.4527,27.2661,-0.667219,-0.240821,-1.60625,
2026_07_06_15_53_23.904,3.859,38.5,0,0.766,0,0,0,0, ,0,0,0,0,0, ,991.2,13.9,28.5,-0.4,-0.1,-2.3,25,990.533,14.3124,27.2956,-0.653982,-0.235287,-1.64853,
2026_07_06_15_53_23.922,3.859,38.5,0,0.765,0,0,0,0, ,0,0,0,0,0, ,991.5,12.4,31,-0.5,-0.3,-2.1,25,990.583,14.2416,27.4452,-0.641552,-0.233136,-1.68213,
2026_07_06_15_53_23.943,3.859,38.5,0,0.765,0,0,0,0, ,0,0,0,0,0, ,991.6,13.5,31.6,-0.4,-0.5,-1.9,25,990.642,14.1629,27.6801,-0.629879,-0.243305,-1.7015,
2026_07_06_15_53_23.962,3.859,38.6,0,0.766,0,0,0,0, ,0,0,0,0,0, ,990.6,12.9,28.8,-0.3,-0.7,-1.7,25,990.67,14.1042,27.8336,-0.612824,-0.265041,-1.70751,
2026_07_06_15_53_23.984,3.859,38.5,0,0.766,0,0,0,0, ,0,0,0,0,0, ,989.9,14.5,28.5,0,-0.7,-1.5,25,990.644,14.0796,27.8834,-0.584621,-0.291546,-1.70096,
2026_07_06_15_53_24.002,3.859,38.4,0,0.767,0,0,0,0, ,0,0,0,0,0, ,990.8,13.7,30.8,-0.2,-0.7,-1.5,25,990.626,14.0808,27.991,-0.555089,-0.316436,-1.68871,
2026_07_06_15_53_24.022,3.859,38.5,0,0.767,0,0,0,0, ,0,0,0,0,0, ,989.7,10.2,29.1,-0.1,-0.5,-1.7,25,990.603,13.951,28.1104,-0.530404,-0.333716,-1.6833,
2026_07_06_15_53_24.042,3.859,38.5,0,0.765,0,0,0,0, ,0,0,0,0,0, ,989.6,12.3,28.5,0,-0.5,-1.9,25,990.545,13.7864,28.1524,-0.50113,-0.343849,-1.69042,
2026_07_06_15_53_24.062,3.859,38.5,0,0.764,0,0,0,0, ,0,0,0,0,0, ,991.2,12.9,29.6,-0.2,-0.5,-1.8,25,990.536,13.7141,28.2071,-0.476686,-0.353364,-1.70014,
2026_07_06_15_53_24.080,3.859,38.5,0,0.768,0,0,0,0, ,0,0,0,0,0, ,989.8,13.1,30.5,-0.5,-0.6,-1.6,25,990.534,13.6706,28.3194,-0.468966,-0.365347,-1.70013,
2026_07_06_15_53_24.102,3.859,38.5,0,0.766,0,0,0,0, ,0,0,0,0,0, ,989,12.8,30.2,-0.6,-0.6,-1.7,25,990.465,13.6267,28.4432,-0.473904,-0.379646,-1.69708,
2026_07_06_15_53_24.121,3.859,38.5,0,0.765,0,0,0,0, ,0,0,0,0,0, ,990.3,11.8,29.2,-0.6,-0.7,-1.8,25,990.415,13.5458,28.5197,-0.481588,-0.396121,-1.7003,
2026_07_06_15_53_24.141,3.859,38.5,0,0.766,0,0,0,0, ,0,0,0,0,0, ,990.3,13.4,30,-0.5,-0.7,-1.8,25,990.408,13.4882,28.5856,-0.485757,-0.414638,-1.70638,
2026_07_06_15_53_24.160,3.859,38.6,0,0.766,0,0,0,0, ,0,0,0,0,0, ,989.7,13.1,28.4,-0.5,-0.5,-1.7,25,990.384,13.4737,28.623,-0.486625,-0.425934,-1.70904,
2026_07_06_15_53_24.180,3.859,38.5,0,0.765,0,0,0,0, ,0,0,0,0,0, ,989.7,11.9,27.5,-0.6,-0.4,-1.8,25,990.342,13.4143,28.582,-0.490487,-0.4274,-1.71153,
2026_07_06_15_53_24.199,3.859,38.4,0,0.766,0,0,0,0, ,0,0,0,0,0, ,990.3,11.4,27.9,-0.5,-0.3,-1.8,25,990.321,13.3068,28.5283,-0.494113,-0.422684,-1.71692,
2026_07_06_15_53_24.221,3.859,38.5,0,0.765,0,0,0,0, ,0,0,0,0,0, ,990.2,13.9,31.4,-0.5,-0.3,-2,25,990.317,13.2668,28.5966,-0.494472,-0.415208,-1.72808,
2026_07_06_15_53_24.239,3.859,38.5,0,0.765,0,0,0,0, ,0,0,0,0,0, ,990.8,13.6,30.2,-0.4,-0.4,-2.1,25,990.328,13.2962,28.7309,-0.491762,-0.411234,-1.7477,
2026_07_06_15_53_24.261,3.859,38.5,0,0.767,0,0,0,0, ,0,0,0,0,0, ,990.8,15,28.4,-0.5,-0.6,-1.9,25,990.357,13.3574,28.7656,-0.489217,-0.416643,-1.76307,
2026_07_06_15_53_24.280,3.859,38.5,0,0.766,0,0,0,0, ,0,0,0,0,0, ,990.1,13.5,28.6,-0.5,-0.4,-1.6,25,990.362,13.4118,28.7494,-0.489874,-0.421723,-1.76227,
2026_07_06_15_53_24.301,3.859,38.5,0,0.766,0,0,0,0, ,0,0,0,0,0, ,990.2,12.3,29.5,-0.5,-0.4,-1.7,25,990.349,13.3806,28.7677,-0.490491,-0.420399,-1.75543,
2026_07_06_15_53_24.319,3.859,38.6,0,0.766,0,0,0,0, ,0,0,0,0,0, ,990.2,11.7,28.3,-0.6,-0.4,-1.8,25,990.34,13.2965,28.7758,-0.494118,-0.419156,-1.7551,
2026_07_06_15_53_24.340,3.859,38.5,0,0.765,0,0,0,0, ,0,0,0,0,0, ,990.3,12.9,30.3,-0.5,-0.6,-1.9,25,990.335,13.2358,28.8077,-0.497523,-0.424082,-1.76088,
2026_07_06_15_53_24.358,3.859,38.5,0,0.765,0,0,0,0, ,0,0,0,0,0, ,990.1,11.3,29.1,-0.5,-0.5,-1.9,25,990.327,13.1665,28.8621,-0.497674,-0.431756,-1.76936,
2026_07_06_15_53_24.379,3.859,38.5,0,0.766,0,0,0,0, ,0,0,0,0,0, ,990.3,12.4,29.7,-0.5,-0.4,-1.9,25,990.319,13.0863,28.8949,-0.497816,-0.432867,-1.77732,
2026_07_06_15_53_24.397,3.859,38.6,0,0.765,0,0,0,0, ,0,0,0,0,0, ,991.4,12.2,29.5,-0.5,-0.6,-1.8,25,990.351,13.0384,28.9378,-0.497949,-0.436958,-1.78175,
2026_07_06_15_53_24.418,3.859,38.5,0,0.766,0,0,0,0, ,0,0,0,0,0, ,990.6,12.6,31,0.1,-0.7,-1.9,25,990.391,12.9995,29.0178,-0.479792,-0.44994,-1.78591,
2026_07_06_15_53_24.437,3.859,38.5,0,0.767,0,0,0,0, ,0,0,0,0,0, ,990.9,13.5,26.6,1.1,-0.6,-1.7,25,990.413,13.0026,29.0045,-0.413993,-0.462132,-1.78677,
2026_07_06_15_53_24.458,3.859,38.5,0,0.766,0,0,0,0, ,0,0,0,0,0, ,991.2,12.3,26.4,0.2,-0.5,-1.8,25,990.451,12.9963,28.8519,-0.349156,-0.467486,-1.78453,
2026_07_06_15_53_24.476,3.859,38.5,0,0.766,0,0,0,0, ,0,0,0,0,0, ,990.1,11.3,28.3,-0.3,-0.5,-2,25,990.464,12.9234,28.7604,-0.330926,-0.469467,-1.79156,
2026_07_06_15_53_24.497,3.859,38.5,0,0.766,0,0,0,0, ,0,0,0,0,0, ,992,11.4,30,-0.4,-0.5,-1.9,25,990.499,12.8275,28.7841,-0.332088,-0.471328,-1.80122,
2026_07_06_15_53_24.517,3.859,38.5,0,0.766,0,0,0,0, ,0,0,0,0,0, ,991.2,11.9,29.1,-0.3,-0.5,-2,25,990.566,12.7558,28.8308,-0.33318,-0.473075,-1.81029,
2026_07_06_15_53_24.538,3.859,38.5,0,0.765,0,0,0,0, ,0,0,0,0,0, ,990.3,15,29.2,0.1,-0.8,-2,25,990.578,12.7981,28.8502,-0.31897,-0.483857,-1.82185,
2026_07_06_15_53_24.556,3.859,38.5,0,0.765,0,0,0,0, ,0,0,0,0,0, ,990.9,13.1,27.9,0,-0.5,-1.7,25,990.579,12.8744,28.8319,-0.296486,-0.493981,-1.82356,
2026_07_06_15_53_24.579,3.859,38.6,0,0.766,0,0,0,0, ,0,0,0,0,0, ,990.1,11.8,29,0.3,-0.4,-1.7,25,990.574,12.8485,28.8087,-0.269278,-0.491301,-1.81603,
2026_07_06_15_53_24.595,3.859,38.5,0,0.766,0,0,0,0, ,0,0,0,0,0, ,989.8,12.5,29.1,0.9,-0.4,-1.8,25,990.536,12.806,28.8234,-0.216307,-0.485737,-1.81201,
2026_07_06_15_53_24.618,3.859,38.4,0,0.767,0,0,0,0, ,0,0,0,0,0, ,990.8,13.3,29.9,0.5,-0.5,-1.8,25,990.522,12.8117,28.8646,-0.160469,-0.483559,-1.81128,
2026_07_06_15_53_24.635,3.859,38.4,0,0.767,0,0,0,0, ,0,0,0,0,0, ,990.8,14.1,31.2,0,-0.8,-1.6,25,990.539,12.8658,28.9673,-0.135456,-0.493702,-1.8045,
2026_07_06_15_53_24.658,3.859,38.4,0,0.766,0,0,0,0, ,0,0,0,0,0, ,990.1,11.4,31.1,2.4,-1.6,-1.3,25,990.533,12.8588,29.1003,-0.0540769,-0.536742,-1.78289,
2026_07_06_15_53_24.674,3.859,38.5,0,0.765,0,0,0,0, ,0,0,0,0,0, ,989.5,15,26.6,1.6,-1.7,-1.2,25,990.489,12.8796,29.0851,0.0710934,-0.604581,-1.75042,
2026_07_06_15_53_24.697,3.859,38.4,0,0.766,0,0,0,0, ,0,0,0,0,0, ,990.8,-11.8,24.6,5.6,-1,-0.1,25,990.468,12.1922,28.8727,0.286136,-0.650005,-1.68336,
2026_07_06_15_53_24.714,3.859,38.5,0,0.766,0,0,0,0, ,0,0,0,0,0, ,991,19.6,28.4,0.9,-2.1,-0.4,25,990.494,11.6869,28.7281,0.466747,-0.704849,-1.59602,
2026_07_06_15_53_24.737,3.859,38.4,0,0.764,0,0,0,0, ,0,0,0,0,0, ,991.6,15.6,28.3,0.1,-2.3,-0.3,25,990.543,12.0472,28.7051,0.468773,-0.795959,-1.52009,
2026_07_06_15_53_24.754,3.859,38.4,0,0.765,0,0,0,0, ,0,0,0,0,0, ,991,3.9,22.3,0,-1.6,-0.7,25,990.589,11.9072,28.4976,0.443254,-0.866284,-1.45793,
2026_07_06_15_53_24.776,3.859,38.4,0,0.766,0,0,0,0, ,0,0,0,0,0, ,992.1,5,19.8,-0.4,-0.7,-1.6,25,990.648,11.4528,28.0437,0.404056,-0.883573,-1.43916,
2026_07_06_15_53_24.793,3.859,38.4,0,0.766,0,0,0,0, ,0,0,0,0,0, ,989.2,8.3,25.7,-0.5,-0.4,-2.1,25,990.648,11.1601,27.7211,0.352012,-0.863246,-1.4642,
2026_07_06_15_53_24.814,3.859,38.5,0,0.766,0,0,0,0, ,0,0,0,0,0, ,990.6,9.6,24.4,-0.4,-0.3,-2.4,25,990.603,11.0255,27.5584,0.303139,-0.83197,-1.51208,
2026_07_06_15_53_24.835,3.859,38.4,0,0.765,0,0,0,0, ,0,0,0,0,0, ,991.4,10.2,23.4,-0.1,0.2,-2.3,25,990.627,10.9569,27.3354,0.269432,-0.784318,-1.56314,
2026_07_06_15_53_24.857,3.859,38.4,0,0.765,0,0,0,0, ,0,0,0,0,0, ,990.2,10.8,23.9,-0.1,0.4,-2.3,25,990.637,10.929,27.1109,0.24692,-0.718243,-1.60805,
2026_07_06_15_53_24.873,3.859,38.4,0,0.767,0,0,0,0, ,0,0,0,0,0, ,991.4,14.8,32.1,-0.3,0,-2.1,25,990.647,11.0431,27.165,0.219686,-0.662287,-1.64412,
2026_07_06_15_53_24.896,3.859,38.5,0,0.766,0,0,0,0, ,0,0,0,0,0, ,989.3,13.6,26.3,-0.5,-0.6,-1.6,25,990.629,11.2354,27.289,0.181924,-0.64021,-1.65666,
2026_07_06_15_53_24.912,3.859,38.5,0,0.766,0,0,0,0, ,0,0,0,0,0, ,991.2,11.1,25.1,-0.6,-0.7,-1.6,25,990.606,11.3033,27.1922,0.137322,-0.640807,-1.65321,
2026_07_06_15_53_24.936,3.859,38.5,0,0.766,0,0,0,0, ,0,0,0,0,0, ,989.3,9.5,26.2,-0.6,-0.1,-1.7,25,990.584,11.2422,27.0982,0.0923915,-0.626133,-1.65302,
2026_07_06_15_53_24.951,3.859,38.5,0,0.765,0,0,0,0, ,0,0,0,0,0, ,991.2,9.7,26,-0.5,-0.3,-1.9,25,990.564,11.1421,27.0374,0.0532457,-0.600165,-1.66197,
2026_07_06_15_53_24.976,3.859,38.4,0,0.766,0,0,0,0, ,0,0,0,0,0, ,991.3,11.1,27.2,-0.6,-0.6,-2,25,990.606,11.0969,27.0108,0.0164855,-0.591015,-1.67952,
2026_07_06_15_53_24.992,3.859,38.5,0,0.765,0,0,0,0, ,0,0,0,0,0, ,990.3,10.9,24.2,-0.5,-0.4,-2,25,990.618,11.091,26.9309,-0.0180348,-0.585468,-1.69905,
2026_07_06_15_53_25.014,3.859,38.5,0,0.766,0,0,0,0, ,0,0,0,0,0, ,989.2,9.6,27.8,-0.4,-0.3,-1.8,25,990.565,11.0398,26.8742,-0.0443576,-0.57112,-1.7113,
2026_07_06_15_53_25.031,3.859,38.5,0,0.765,0,0,0,0, ,0,0,0,0,0, ,992.1,9.7,24,-0.3,-0.2,-1.9,25,990.57,10.9551,26.8148,-0.0629827,-0.551551,-1.71975,
2026_07_06_15_53_25.054,3.859,38.4,0,0.766,0,0,0,0, ,0,0,0,0,0, ,990.9,10.6,27.5,0,0,-2.1,25,990.627,10.906,26.7499,-0.0682853,-0.524035,-1.73683,
2026_07_06_15_53_25.071,3.859,38.4,0,0.766,0,0,0,0, ,0,0,0,0,0, ,990.4,11.8,29.7,-0.1,-0.6,-1.9,25,990.628,10.9239,26.8626,-0.0671711,-0.510383,-1.75287,
2026_07_06_15_53_25.094,3.859,38.5,0,0.766,0,0,0,0, ,0,0,0,0,0, ,990.8,11.1,26.1,-0.3,-0.6,-1.7,25,990.626,10.956,26.9259,-0.0752653,-0.515844,-1.75574,
2026_07_06_15_53_25.110,3.859,38.4,0,0.764,0,0,0,0, ,0,0,0,0,0, ,989.8,9.8,24.5,-0.6,-0.5,-1.7,25,990.606,10.9251,26.8268,-0.0981007,-0.517925,-1.75234,
2026_07_06_15_53_25.132,3.859,38.4,0,0.766,0,0,0,0, ,0,0,0,0,0, ,991.6,8.4,25,-0.6,-0.2,-2,25,990.612,10.8139,26.7002,-0.128685,-0.507692,-1.75829,
2026_07_06_15_53_25.150,3.859,38.4,0,0.765,0,0,0,0, ,0,0,0,0,0, ,989.9,8.3,24.1,-0.3,0.2,-2.3,25,990.621,10.6638,26.5692,-0.148265,-0.476755,-1.78216,
2026_07_06_15_53_25.172,3.859,38.4,0,0.765,0,0,0,0, ,0,0,0,0,0, ,990.1,12.9,31.3,0,0,-2.1,25,990.583,10.6599,26.6381,-0.148371,-0.441609,-1.80762,
2026_07_06_15_53_25.189,3.859,38.4,0,0.766,0,0,0,0, ,0,0,0,0,0, ,989.7,13.5,27.9,-0.3,-0.3,-1.9,25,990.541,10.8147,26.8186,-0.14847,-0.423839,-1.81935,
2026_07_06_15_53_25.218,3.859,38.4,0,0.765,0,0,0,0, ,0,0,0,0,0, ,990.6,9.6,28.9,-0.5,-0.4,-1.7,25,990.517,10.8595,26.915,-0.163798,-0.419339,-1.81817,
2026_07_06_15_53_25.228,3.859,38.4,0,0.766,0,0,0,0, ,0,0,0,0,0, ,989.8,11.9,29.1,-0.6,-0.8,-1.7,25,990.498,10.8528,27.042,-0.187332,-0.430348,-1.81097,
2026_07_06_15_53_25.251,3.859,38.4,0,0.765,0,0,0,0, ,0,0,0,0,0, ,991,12,27.8,-0.5,-1,-1.7,25,990.492,10.9197,27.1278,-0.209432,-0.458968,-1.8042,
2026_07_06_15_53_25.269,3.859,38.4,0,0.765,0,0,0,0, ,0,0,0,0,0, ,990.1,11.2,27.3,-0.6,-0.6,-1.7,25,990.496,10.9611,27.1535,-0.230186,-0.479749,-1.79785,
2026_07_06_15_53_25.291,3.859,38.4,0,0.765,0,0,0,0, ,0,0,0,0,0, ,990.2,9.8,26.8,-0.5,-0.3,-1.9,25,990.474,10.933,27.1472,-0.249674,-0.477937,-1.79799,
2026_07_06_15_53_25.307,3.859,38.4,0,0.765,0,0,0,0, ,0,0,0,0,0, ,990.9,11.4,26.6,-0.4,-0.6,-1.9,25,990.479,10.9127,27.12,-0.261882,-0.476234,-1.8042,
2026_07_06_15_53_25.331,3.859,38.4,0,0.766,0,0,0,0, ,0,0,0,0,0, ,990.3,11.5,28.4,-0.1,-0.8,-1.8,25,990.486,10.9455,27.1431,-0.261158,-0.48987,-1.80699,
2026_07_06_15_53_25.348,3.859,38.3,0,0.765,0,0,0,0, ,0,0,0,0,0, ,991.5,11.2,23,-0.5,-0.8,-1.6,25,990.512,10.9701,27.0552,-0.263524,-0.508768,-1.80047,
2026_07_06_15_53_25.372,3.859,38.4,0,0.766,0,0,0,0, ,0,0,0,0,0, ,990.6,9,24.5,-0.6,-0.1,-1.7,25,990.544,10.9171,26.8538,-0.280982,-0.505187,-1.7913,
2026_07_06_15_53_25.387,3.859,38.4,0,0.764,0,0,0,0, ,0,0,0,0,0, ,991.3,10,30.6,-0.6,-0.5,-1.8,25,990.569,10.8308,26.8962,-0.300422,-0.492684,-1.78879,
2026_07_06_15_53_25.410,3.859,38.4,0,0.765,0,0,0,0, ,0,0,0,0,0, ,989.9,9,31.2,-0.5,-1.3,-1.8,25,990.571,10.7497,27.1402,-0.31563,-0.517504,-1.78947,
2026_07_06_15_53_25.426,3.859,38.4,0,0.764,0,0,0,0, ,0,0,0,0,0, ,990.3,13.5,23.8,-0.4,-1.5,-1.8,25,990.542,10.7801,27.1621,-0.323819,-0.571282,-1.79011,
2026_07_06_15_53_25.450,3.859,38.4,0,0.765,0,0,0,0, ,0,0,0,0,0, ,990.1,11.3,20.7,-0.3,-1,-1.4,25,990.521,10.8789,26.8628,-0.325414,-0.612641,-1.77853,
2026_07_06_15_53_25.467,3.859,38.3,0,0.766,0,0,0,0, ,0,0,0,0,0, ,991,6.9,20.2,-0.3,0,-1.8,25,990.523,10.7705,26.472,-0.323865,-0.605777,-1.76765,
2026_07_06_15_53_25.496,3.859,38.4,0,0.766,0,0,0,0, ,0,0,0,0,0, ,989.6,9.6,27.2,0,0.7,-2.1,25,990.51,10.6169,26.3031,-0.31327,-0.547534,-1.77876,
2026_07_06_15_53_25.506,3.859,38.4,0,0.765,0,0,0,0, ,0,0,0,0,0, ,990.8,10.6,32.8,-0.1,0.2,-2.2,25,990.491,10.5854,26.5284,-0.297227,-0.486747,-1.80138,
2026_07_06_15_53_25.528,3.859,38.3,0,0.765,0,0,0,0, ,0,0,0,0,0, ,990.3,12.4,32.4,0.2,-0.4,-2,25,990.494,10.6411,26.8984,-0.276068,-0.46318,-1.81958,
2026_07_06_15_53_25.545,3.859,38.3,0,0.765,0,0,0,0, ,0,0,0,0,0, ,991.8,13.4,22.3,-0.1,-0.9,-1.8,25,990.528,10.7788,26.9259,-0.256198,-0.474564,-1.82448,
2026_07_06_15_53_25.570,3.859,38.3,0,0.766,0,0,0,0, ,0,0,0,0,0, ,990.7,8.4,24.9,-0.5,-0.5,-1.4,25,990.572,10.7861,26.7232,-0.258868,-0.488301,-1.8108,
2026_07_06_15_53_25.584,3.859,38.4,0,0.765,0,0,0,0, ,0,0,0,0,0, ,990.8,6.9,23.5,-0.6,-0.1,-1.8,25,990.583,10.595,26.5695,-0.276608,-0.476827,-1.79795,
2026_07_06_15_53_25.608,3.859,38.4,0,0.765,0,0,0,0, ,0,0,0,0,0, ,992.1,9.8,29.1,-0.6,-0.2,-2,25,990.636,10.4582,26.553,-0.296315,-0.456911,-1.80417,
2026_07_06_15_53_25.624,3.859,38.3,0,0.765,0,0,0,0, ,0,0,0,0,0, ,989.9,10.7,28.3,-0.5,-0.3,-2,25,990.658,10.4455,26.6839,-0.311774,-0.444302,-1.81611,
2026_07_06_15_53_25.647,3.859,38.3,0,0.766,0,0,0,0, ,0,0,0,0,0, ,990.4,10.8,29.4,-0.3,-0.7,-1.7,25,990.627,10.4641,26.8159,-0.31715,-0.447696,-1.81817,
2026_07_06_15_53_25.664,3.859,38.3,0,0.765,0,0,0,0, ,0,0,0,0,0, ,989.9,9.6,19.2,-0.5,-0.7,-1.8,25,990.598,10.448,26.6626,-0.322199,-0.463071,-1.81402,
2026_07_06_15_53_25.688,3.859,38.4,0,0.766,0,0,0,0, ,0,0,0,0,0, ,990.6,10,25.6,-0.5,-0.2,-1.8,25,990.577,10.4085,26.4028,-0.333034,-0.462275,-1.81316,
2026_07_06_15_53_25.703,3.859,38.4,0,0.765,0,0,0,0, ,0,0,0,0,0, ,989.8,10.8,28,-0.3,-0.4,-1.9,25,990.554,10.408,26.427,-0.337114,-0.452386,-1.81541,
2026_07_06_15_53_25.727,3.859,38.3,0,0.764,0,0,0,0, ,0,0,0,0,0, ,990.9,8.9,28.4,0,-0.3,-1.9,25,990.541,10.374,26.535,-0.325712,-0.446147,-1.82056,
2026_07_06_15_53_25.743,3.859,38.3,0,0.767,0,0,0,0, ,0,0,0,0,0, ,989,11.9,29.1,0.2,-0.7,-1.8,25,990.505,10.3756,26.67,-0.29977,-0.449428,-1.82236,
2026_07_06_15_53_25.766,3.859,38.3,0,0.766,0,0,0,0, ,0,0,0,0,0, ,990.4,11.2,24.4,-0.1,-0.7,-1.6,25,990.456,10.4471,26.6749,-0.278456,-0.464698,-1.8149,
2026_07_06_15_53_25.783,3.859,38.4,0,0.766,0,0,0,0, ,0,0,0,0,0, ,990.1,11.1,25.8,-0.5,-0.3,-1.8,25,990.444,10.49,26.5789,-0.279769,-0.466849,-1.8079,
2026_07_06_15_53_25.807,3.859,38.3,0,0.767,0,0,0,0, ,0,0,0,0,0, ,991.8,11.7,29,-0.4,-0.5,-1.7,25,990.475,10.5454,26.629,-0.290143,-0.462775,-1.80437,
2026_07_06_15_53_25.822,3.859,38.4,0,0.764,0,0,0,0, ,0,0,0,0,0, ,992.1,12.4,28.6,-0.3,-1,-1.6,25,990.564,10.6371,26.7613,-0.29379,-0.480278,-1.79496,
2026_07_06_15_53_25.845,3.859,38.4,0,0.766,0,0,0,0, ,0,0,0,0,0, ,990.4,10.9,26.1,-0.1,-1.4,-1.7,25,990.606,10.6988,26.7971,-0.288075,-0.524136,-1.78613,
2026_07_06_15_53_25.863,3.859,38.3,0,0.766,0,0,0,0, ,0,0,0,0,0, ,991.5,9.7,18.4,0,-0.7,-2,25,990.627,10.6745,26.52,-0.273567,-0.556181,-1.79002,
2026_07_06_15_53_25.886,3.859,38.3,0,0.766,0,0,0,0, ,0,0,0,0,0, ,991.4,10.9,20.3,-0.1,0.6,-2.1,25,990.677,10.6517,26.0831,-0.259943,-0.525336,-1.80586,
2026_07_06_15_53_25.901,3.859,38.4,0,0.765,0,0,0,0, ,0,0,0,0,0, ,991.3,11.1,28.6,-0.2,0.3,-2,25,990.718,10.6729,25.9836,-0.253244,-0.465901,-1.82074,
2026_07_06_15_53_25.925,3.859,38.4,0,0.766,0,0,0,0, ,0,0,0,0,0, ,991.2,12.4,28.9,-0.2,-0.1,-1.8,25,990.751,10.7386,26.1522,-0.249999,-0.431416,-1.82557,
2026_07_06_15_53_25.941,3.859,38.3,0,0.765,0,0,0,0, ,0,0,0,0,0, ,991.5,10.7,28.4,-0.3,-0.4,-1.7,25,990.787,10.788,26.3044,-0.249999,-0.420361,-1.82097,
2026_07_06_15_53_25.964,3.859,38.3,0,0.764,0,0,0,0, ,0,0,0,0,0, ,989.6,10.1,31,-0.3,-1,-1.8,25,990.773,10.7644,26.5113,-0.253046,-0.437402,-1.81664,
2026_07_06_15_53_25.980,3.859,38.4,0,0.766,0,0,0,0, ,0,0,0,0,0, ,991,9.1,21.7,-0.5,-0.8,-1.8,25,990.744,10.6934,26.5015,-0.262001,-0.465591,-1.81563,
2026_07_06_15_53_26.005,3.859,38.4,0,0.766,0,0,0,0, ,0,0,0,0,0, ,990.1,9,23.9,-0.5,-0.1,-2,25,990.732,10.5933,26.2759,-0.276504,-0.464641,-1.82077,
2026_07_06_15_53_26.020,3.859,38.3,0,0.765,0,0,0,0, ,0,0,0,0,0, ,990.9,11.1,27.7,-0.3,0.1,-2,25,990.718,10.5602,26.2469,-0.28403,-0.436327,-1.83169,
2026_07_06_15_53_26.043,3.859,38.3,0,0.766,0,0,0,0, ,0,0,0,0,0, ,990.9,13.1,31.9,-0.2,0,-1.9,25,990.729,10.654,26.4634,-0.281956,-0.406692,-1.8389,
2026_07_06_15_53_26.059,3.859,38.3,0,0.766,0,0,0,0, ,0,0,0,0,0, ,990.2,12.5,28.8,-0.5,-0.7,-1.5,25,990.718,10.7848,26.7003,-0.286103,-0.403237,-1.83044,
2026_07_06_15_53_26.084,3.859,38.3,0,0.766,0,0,0,0, ,0,0,0,0,0, ,991.4,9.7,25.2,-0.5,-0.9,-1.8,25,990.723,10.804,26.7185,-0.299137,-0.427415,-1.81944,
2026_07_06_15_53_26.100,3.859,38.3,0,0.765,0,0,0,0, ,0,0,0,0,0, ,989.9,10.8,27.7,-0.5,-1,-1.9,25,990.719,10.7702,26.7022,-0.311377,-0.45926,-1.8213,
2026_07_06_15_53_26.124,3.859,38.3,0,0.768,0,0,0,0, ,0,0,0,0,0, ,990.8,11.3,25.2,-0.4,-1,-1.9,25,990.696,10.7873,26.6868,-0.319824,-0.492211,-1.8261,
2026_07_06_15_53_26.139,3.859,38.3,0,0.766,0,0,0,0, ,0,0,0,0,0, ,989.1,11.5,26.3,-0.5,-0.1,-1.6,25,990.651,10.8246,26.6297,-0.327757,-0.495733,-1.82146,
2026_07_06_15_53_26.163,3.859,38.4,0,0.765,0,0,0,0, ,0,0,0,0,0, ,991.4,11.7,29.5,-0.5,-0.3,-1.6,25,990.626,10.8719,26.7071,-0.338253,-0.477711,-1.80797,
2026_07_06_15_53_26.179,3.859,38.4,0,0.764,0,0,0,0, ,0,0,0,0,0, ,989.6,10.8,24.4,-0.4,-0.6,-1.6,25,990.619,10.8949,26.7219,-0.345063,-0.476023,-1.79529,
2026_07_06_15_53_26.203,3.859,38.3,0,0.766,0,0,0,0, ,0,0,0,0,0, ,990.3,8.7,24,-0.3,-0.5,-1.8,25,990.578,10.8251,26.5682,-0.345363,-0.480531,-1.78949,
2026_07_06_15_53_26.218,3.859,38.3,0,0.766,0,0,0,0, ,0,0,0,0,0, ,989.7,11.2,26.9,0.1,0.1,-2,25,990.543,10.7718,26.5001,-0.330412,-0.463436,-1.79622,
2026_07_06_15_53_26.251,3.859,38.3,0,0.767,0,0,0,0, ,0,0,0,0,0, ,989.8,9.7,30.5,-0.3,0,-1.9,25,990.494,10.7522,26.6342,-0.316371,-0.432148,-1.80559,
2026_07_06_15_53_26.265,3.859,38.3,0,0.766,0,0,0,0, ,0,0,0,0,0, ,988.5,11.1,31.8,-0.5,-0.7,-1.9,25,990.412,10.7307,26.9093,-0.321467,-0.427143,-1.81134,
2026_07_06_15_53_26.303,3.859,38.3,0,0.768,0,0,0,0, ,0,0,0,0,0, ,989.9,13.6,30,-0.5,-1.3,-1.9,25,990.339,10.8294,27.1525,-0.332346,-0.462051,-1.81675,
2026_07_06_15_53_26.304,3.859,38.3,0,0.766,0,0,0,0, ,0,0,0,0,0, ,991.3,12.8,20.1,-0.5,-1.3,-1.5,25,990.355,10.9739,27.0244,-0.342563,-0.513114,-1.80963,
2026_07_06_15_53_26.330,3.859,38.3,0,0.765,0,0,0,0, ,0,0,0,0,0, ,991.4,9,21.4,-0.5,-0.2,-1.4,25,990.415,10.9694,26.6421,-0.352157,-0.527549,-1.78772,
2026_07_06_15_53_26.336,3.859,38.3,0,0.766,0,0,0,0, ,0,0,0,0,0, ,990.8,7.5,26.3,-0.4,0.2,-1.9,25,990.457,10.8037,26.4719,-0.358119,-0.495401,-1.77933,
2026_07_06_15_53_26.362,3.859,38.3,0,0.767,0,0,0,0, ,0,0,0,0,0, ,991.2,8.5,29.9,-0.5,-0.2,-2.1,25,990.49,10.6328,26.5711,-0.363718,-0.465213,-1.79277,
2026_07_06_15_53_26.376,3.859,38.2,0,0.766,0,0,0,0, ,0,0,0,0,0, ,989.8,11.5,31.7,-0.5,-0.9,-1.9,25,990.491,10.5942,26.8288,-0.372023,-0.470379,-1.8054,
2026_07_06_15_53_26.402,3.859,38.3,0,0.766,0,0,0,0, ,0,0,0,0,0, ,991.3,9.6,25.6,-0.5,-1.2,-1.8,25,990.494,10.5915,26.9398,-0.379821,-0.5057,-1.80812,
2026_07_06_15_53_26.415,3.859,38.3,0,0.766,0,0,0,0, ,0,0,0,0,0, ,990.1,9.3,19,-0.5,-0.9,-2,25,990.507,10.522,26.6571,-0.387145,-0.538868,-1.81372,
2026_07_06_15_53_26.443,3.859,38.3,0,0.765,0,0,0,0, ,0,0,0,0,0, ,991.2,11.3,22.9,-0.5,0,-1.8,25,990.515,10.5085,26.3093,-0.394022,-0.533453,-1.81898,
2026_07_06_15_53_26.455,3.859,38.3,0,0.765,0,0,0,0, ,0,0,0,0,0, ,990.1,10.7,25,-0.5,0,-1.8,25,990.524,10.5384,26.1655,-0.40048,-0.500946,-1.81782,
2026_07_06_15_53_26.487,3.859,38.4,0,0.766,0,0,0,0, ,0,0,0,0,0, ,991,10.6,31,-0.6,-0.4,-1.6,25,990.525,10.5452,26.2773,-0.409591,-0.482607,-1.81064,
2026_07_06_15_53_26.494,3.859,38.3,0,0.766,0,0,0,0, ,0,0,0,0,0, ,989.7,9.8,27.7,-0.6,-0.8,-1.7,25,990.515,10.5242,26.4646,-0.421194,-0.48976,-1.80085,
2026_07_06_15_53_26.519,3.859,38.3,0,0.767,0,0,0,0, ,0,0,0,0,0, ,991,9.8,22.4,-0.5,-0.5,-2,25,990.505,10.48,26.3784,-0.429043,-0.499525,-1.80385,
2026_07_06_15_53_26.535,3.859,38.3,0,0.765,0,0,0,0, ,0,0,0,0,0, ,990.3,11.3,26.7,-0.3,-0.3,-2.1,25,990.513,10.4843,26.2669,-0.427274,-0.49346,-1.81885,
2026_07_06_15_53_26.561,3.859,38.3,0,0.764,0,0,0,0, ,0,0,0,0,0, ,990.9,13.1,31.1,-0.5,-0.8,-1.9,25,990.519,10.5889,26.4274,-0.425612,-0.496906,-1.82988,
2026_07_06_15_53_26.574,3.859,38.3,0,0.766,0,0,0,0, ,0,0,0,0,0, ,989.8,11.5,26.6,-0.5,-0.9,-1.7,25,990.508,10.6931,26.575,-0.430145,-0.518422,-1.82806,
2026_07_06_15_53_26.600,3.859,38.2,0,0.766,0,0,0,0, ,0,0,0,0,0, ,991.4,8.3,17,-0.5,-0.3,-1.8,25,990.514,10.6448,26.284,-0.434401,-0.523393,-1.82331,
2026_07_06_15_53_26.613,3.859,38.3,0,0.766,0,0,0,0, ,0,0,0,0,0, ,989.9,9.3,29.2,-0.5,0.1,-2.1,25,990.522,10.5324,26.09,-0.438399,-0.497593,-1.83103,
2026_07_06_15_53_26.638,3.859,38.3,0,0.766,0,0,0,0, ,0,0,0,0,0, ,990.3,13.9,32.9,-0.5,-0.1,-2.1,25,990.497,10.5974,26.3923,-0.442153,-0.467271,-1.84742,
2026_07_06_15_53_26.653,3.859,38.3,0,0.765,0,0,0,0, ,0,0,0,0,0, ,989.5,13.9,31.7,-0.5,-1.1,-1.6,25,990.46,10.7987,26.7523,-0.445678,-0.475359,-1.84757,
2026_07_06_15_53_26.677,3.859,38.3,0,0.765,0,0,0,0, ,0,0,0,0,0, ,989.9,10.4,23.3,-0.5,-1.3,-1.5,25,990.414,10.881,26.7978,-0.448988,-0.519517,-1.82944,
2026_07_06_15_53_26.693,3.859,38.3,0,0.765,0,0,0,0, ,0,0,0,0,0, ,992.3,7.5,21.4,-0.4,-0.5,-1.8,25,990.456,10.7634,26.5268,-0.44905,-0.542703,-1.81851,
2026_07_06_15_53_26.717,3.859,38.2,0,0.766,0,0,0,0, ,0,0,0,0,0, ,990.9,9.2,28.8,-0.4,-0.2,-1.9,25,990.525,10.6163,26.4398,-0.446061,-0.53096,-1.82043,
2026_07_06_15_53_26.732,3.859,38.3,0,0.765,0,0,0,0, ,0,0,0,0,0, ,989.8,11.8,29.9,-0.5,-0.4,-1.7,25,990.515,10.6092,26.6172,-0.446301,-0.516886,-1.81918,
2026_07_06_15_53_26.762,3.859,38.3,0,0.767,0,0,0,0, ,0,0,0,0,0, ,990.9,11.1,25.2,-0.6,-0.7,-1.6,25,990.505,10.6604,26.674,-0.45262,-0.518904,-1.80887,
2026_07_06_15_53_26.771,3.859,38.3,0,0.765,0,0,0,0, ,0,0,0,0,0, ,990.8,10.4,28,-0.6,-0.4,-1.8,25,990.526,10.6659,26.6695,-0.461601,-0.520798,-1.80224,
2026_07_06_15_53_26.796,3.859,38.3,0,0.765,0,0,0,0, ,0,0,0,0,0, ,991,8.6,28.1,-0.6,-0.8,-1.8,25,990.549,10.5949,26.7536,-0.470035,-0.525625,-1.8021,
2026_07_06_15_53_26.817,3.859,38.3,0,0.765,0,0,0,0, ,0,0,0,0,0, ,990.9,10.8,26.4,-0.5,-1.1,-1.8,25,990.573,10.5403,26.7839,-0.474907,-0.551485,-1.80197,
2026_07_06_15_53_26.842,3.859,38.3,0,0.765,0,0,0,0, ,0,0,0,0,0, ,991.2,10.8,22.8,-0.5,-0.7,-1.8,25,990.602,10.5562,26.6508,-0.476437,-0.572723,-1.80185,
2026_07_06_15_53_26.851,3.859,38.2,0,0.765,0,0,0,0, ,0,0,0,0,0, ,990.8,11.7,25.7,-0.5,-0.4,-1.9,25,990.626,10.5984,26.5045,-0.477872,-0.571338,-1.80479,
2026_07_06_15_53_26.875,3.859,38.3,0,0.764,0,0,0,0, ,0,0,0,0,0, ,990.6,13.1,26,-0.3,-0.3,-1.9,25,990.631,10.7082,26.4646,-0.473127,-0.55785,-1.81059,
2026_07_06_15_53_26.890,3.859,38.3,0,0.766,0,0,0,0, ,0,0,0,0,0, ,989.6,10.1,26.7,-0.1,-0.4,-1.8,25,990.598,10.7626,26.4576,-0.456483,-0.545184,-1.81299,
2026_07_06_15_53_26.917,3.859,38.3,0,0.765,0,0,0,0, ,0,0,0,0,0, ,991.6,12,23.3,0,-0.5,-1.9,25,990.599,10.7801,26.3688,-0.431713,-0.539384,-1.81525,
2026_07_06_15_53_26.931,3.859,38.3,0,0.764,0,0,0,0, ,0,0,0,0,0, ,989.8,11.9,21.8,-0.3,0.2,-1.8,25,990.605,10.8514,26.1361,-0.414546,-0.515656,-1.81736,
2026_07_06_15_53_26.956,3.859,38.3,0,0.766,0,0,0,0, ,0,0,0,0,0, ,991.3,10.6,21.4,-0.5,0.8,-1.8,25,990.601,10.8757,25.8597,-0.41366,-0.453765,-1.81631,
2026_07_06_15_53_26.969,3.859,38.3,0,0.766,0,0,0,0, ,0,0,0,0,0, ,990.9,8.7,29,-0.3,0.9,-2.3,25,990.632,10.801,25.8195,-0.412828,-0.374316,-1.83055,
2026_07_06_15_53_26.995,3.859,38.3,0,0.766,0,0,0,0, ,0,0,0,0,0, ,990.2,8.1,25,0.8,1.3,-2.9,25,990.627,10.6547,25.8914,-0.372437,-0.284475,-1.87743,
2026_07_06_15_53_27.009,3.859,38.2,0,0.766,0,0,0,0, ,0,0,0,0,0, ,989.9,9.8,27.7,0.6,1.7,-3.5,25,990.592,10.5508,25.9194,-0.307085,-0.175734,-1.95803,
2026_07_06_15_53_27.035,3.859,38.3,0,0.766,0,0,0,0, ,0,0,0,0,0, ,989.2,10,32.7,-0.5,1.4,-3.6,25,990.528,10.5111,26.1802,-0.285325,-0.0705719,-2.05504,
2026_07_06_15_53_27.049,3.859,38.2,0,0.764,0,0,0,0, ,0,0,0,0,0, ,990.9,26.9,42.7,-0.5,0.2,-2.1,25,990.499,10.9949,26.8822,-0.298407,-0.0175214,-2.10348,
2026_07_06_15_53_27.074,3.859,38.2,0,0.766,0,0,0,0, ,0,0,0,0,0, ,990.3,14.6,34.7,-0.5,-0.9,-1.1,25,990.505,11.5894,27.6024,-0.310691,-0.0377818,-2.0728,
2026_07_06_15_53_27.088,3.859,38.3,0,0.765,0,0,0,0, ,0,0,0,0,0, ,994.5,43.3,24,-9.3,0.1,-1.5,25,990.621,12.6473,27.7088,-0.590352,-0.0598545,-2.02571,
2026_07_06_15_53_27.113,3.859,38.3,0,0.765,0,0,0,0, ,0,0,0,0,0, ,1094.2,22.9,-34.6,13.2,44,-5,25,993.895,13.8936,25.6974,-0.43555,1.28746,-2.10031,
2026_07_06_15_53_27.128,3.859,38.2,0,0.766,0,0,0,0, ,0,0,0,0,0, ,1088,102.5,-84.3,18.7,161.4,16.7,25,999.818,16.8677,20.5087,0.562945,7.46729,-1.61584,
2026_07_06_15_53_27.154,3.859,38.3,0,0.766,0,0,0,0, ,0,0,0,0,0, ,885,0.2,216,40.3,227.2,36,25,999.007,18.969,23.2717,2.3263,18.8524,0.0883267,
2026_07_06_15_53_27.167,3.859,38.3,0,0.765,0,0,0,0, ,0,0,0,0,0, ,1119.2,-22.9,218.7,10,166.9,27.2,25,999.195,17.1214,35.0983,3.71712,29.7113,2.00857,
2026_07_06_15_53_27.193,3.859,38.3,0,0.766,0,0,0,0, ,0,0,0,0,0, ,1151.7,-27.2,265.9,9.9,163.2,44,25,1007.5,14.5516,47.7247,4.09693,37.9585,4.05555,
2026_07_06_15_53_27.207,3.859,38.3,0,0.766,0,0,0,0, ,0,0,0,0,0, ,994.9,4.2,309.4,11.6,176.7,59.5,25,1011.51,12.9641,62.3451,4.50235,46.0018,6.96193,
2026_07_06_15_53_27.232,3.859,38.2,0,0.765,0,0,0,0, ,0,0,0,0,0, ,911,-19.1,364.3,23.8,209.5,63.3,25,1007.94,11.7201,79.0728,5.30658,54.9655,10.2792,
2026_07_06_15_53_27.247,3.859,38.3,0,0.765,0,0,0,0, ,0,0,0,0,0, ,839.7,-32.5,408.5,26.5,225.3,64,25,999.86,9.43373,97.8005,6.51579,64.8639,13.5315,
2026_07_06_15_53_27.277,3.859,38.3,0,0.766,0,0,0,0, ,0,0,0,0,0, ,666.2,-38,467.8,22,235.3,54.9,25,984.814,6.71082,118.541,7.59647,74.9452,16.3297,
2026_07_06_15_53_27.285,3.859,38.3,0,0.765,0,0,0,0, ,0,0,0,0,0, ,543.8,-43.2,519,26,245.7,35,25,961.669,3.82782,141.384,8.59606,85.0337,18.0737,
2026_07_06_15_53_27.311,3.859,38.2,0,0.765,0,0,0,0, ,0,0,0,0,0, ,558.1,-67.1,591.6,21.3,244.7,22,25,936.641,0.233856,166.607,9.51341,94.7938,18.7091,
2026_07_06_15_53_27.325,3.859,38.2,0,0.766,0,0,0,0, ,0,0,0,0,0, ,534,-86,680.2,23.6,235.4,13.5,25,912.839,-4.44516,195.204,10.3017,103.645,18.6506,
2026_07_06_15_53_27.352,3.859,38.3,0,0.766,0,0,0,0, ,0,0,0,0,0, ,505.8,-93.3,735.2,21.1,213.4,6.5,25,888.894,-9.63733,226.434,11.0359,111.004,18.1235,
2026_07_06_15_53_27.365,3.859,38.3,0,0.767,0,0,0,0, ,0,0,0,0,0, ,579.3,-125.6,768.5,19.9,185.4,3.4,25,867.789,-15.7197,258.452,11.6126,116.39,17.3207,
2026_07_06_15_53_27.392,3.859,38.2,0,0.765,0,0,0,0, ,0,0,0,0,0, ,513.4,-94.6,813.8,7.9,164.6,7.6,25,848.201,-21.471,290.913,11.752,119.962,16.6004,
2026_07_06_15_53_27.404,3.859,38.2,0,0.765,0,0,0,0, ,0,0,0,0,0, ,445.1,-127.1,903.9,-7.1,163,10.7,25,825.718,-26.9175,325.522,11.0603,122.633,16.1464,
2026_07_06_15_53_27.432,3.859,38.3,0,0.765,0,0,0,0, ,0,0,0,0,0, ,363,-75.9,907.3,-1.7,167.2,-1.3,25,800.023,-31.4624,360.87,10.1182,125.221,15.4489,
2026_07_06_15_53_27.444,3.859,38.2,0,0.766,0,0,0,0, ,0,0,0,0,0, ,387.5,-82.8,891.6,15.6,151.7,-8.5,25,774.138,-34.3805,393.69,9.92509,127.307,14.2089,
2026_07_06_15_53_27.471,3.859,38.2,0,0.767,0,0,0,0, ,0,0,0,0,0, ,409.1,-92.5,896.6,19.8,135.3,-10.3,25,751.236,-37.6266,424.184,10.3989,128.294,12.7702,
2026_07_06_15_53_27.484,3.859,38.2,0,0.765,0,0,0,0, ,0,0,0,0,0, ,408,-144.4,944.4,21.3,121.4,-0.3,25,730.353,-42.5518,454.428,11.0175,128.297,11.6691,
2026_07_06_15_53_27.510,3.859,38.3,0,0.766,0,0,0,0, ,0,0,0,0,0, ,390.5,-82.3,972.9,43.7,153.8,6.4,25,710.177,-46.8661,485.154,12.3266,128.864,11.1438,
2026_07_06_15_53_27.526,3.859,38.3,0,0.765,0,0,0,0, ,0,0,0,0,0, ,148.9,-3.2,944,27.2,106.5,17.7,25,683.335,-46.6152,513.996,13.7356,128.942,11.1991,
2026_07_06_15_53_27.553,3.859,38.2,0,0.766,0,0,0,0, ,0,0,0,0,0, ,130.9,-55,936,24.2,99.9,7.7,25,650.22,-45.5479,539.955,14.4647,127.374,11.2905,
2026_07_06_15_53_27.564,3.859,38.2,0,0.765,0,0,0,0, ,0,0,0,0,0, ,145.2,-62.2,1132.5,26.4,125.3,-16.3,25,619.009,-46.3433,570.076,15.125,126.473,10.3405,
2026_07_06_15_53_27.591,3.859,38.2,0,0.766,0,0,0,0, ,0,0,0,0,0, ,119.3,-84.2,1230.3,5.1,117.3,-19.1,25,589.347,-47.9799,607.329,15.1631,126.158,8.63175,
2026_07_06_15_53_27.602,3.859,38.2,0,0.765,0,0,0,0, ,0,0,0,0,0, ,60.5,-57.7,1257.6,-8.2,90.7,-0.7,25,558.912,-49.3796,646.123,14.1446,124.808,7.50247,
2026_07_06_15_53_27.629,3.859,38.2,0,0.767,0,0,0,0, ,0,0,0,0,0, ,19.2,-15.7,1104.2,-21.2,59.2,13.8,25,527.282,-48.6069,678.711,12.3869,121.77,7.44443,
2026_07_06_15_53_27.642,3.859,38.2,0,0.766,0,0,0,0, ,0,0,0,0,0, ,-27.4,-42.2,1049.9,-28,57,16,25,494.901,-47.4091,702.985,10.133,117.89,7.89876,
2026_07_06_15_53_27.669,3.859,38.3,0,0.767,0,0,0,0, ,0,0,0,0,0, ,-38.5,-67,948.4,-32.3,54.9,19.2,25,462.735,-47.8473,721.032,7.67827,114.115,8.48993,
2026_07_06_15_53_27.682,3.859,38.2,0,0.767,0,0,0,0, ,0,0,0,0,0, ,-50.5,-75.3,889.5,-25,55.3,8.7,25,431.825,-49.2673,733.093,5.46452,110.519,8.82265,
2026_07_06_15_53_27.708,3.859,38.2,0,0.764,0,0,0,0, ,0,0,0,0,0, ,-17.4,-66.2,913.6,-23.1,57.5,4,25,403.442,-50.5764,743.358,3.66598,107.221,8.67197,
2026_07_06_15_53_27.721,3.859,38.2,0,0.766,0,0,0,0, ,0,0,0,0,0, ,-120.3,-46,936.7,-16.4,34.9,16.2,25,374.662,-50.913,754.436,2.23907,103.503,8.75899,
2026_07_06_15_53_27.747,3.859,38.2,0,0.766,0,0,0,0, ,0,0,0,0,0, ,-155.8,-103.8,938.7,-13.1,21.4,14.9,25,343.418,-52.3747,765.604,1.20379,98.911,9.17282,
2026_07_06_15_53_27.761,3.859,38.2,0,0.766,0,0,0,0, ,0,0,0,0,0, ,-188.4,-68.1,953.6,1.7,16.8,8.8,25,312.004,-54.4207,776.606,0.783094,94.0475,9.33596,
2026_07_06_15_53_27.788,3.859,38.2,0,0.768,0,0,0,0, ,0,0,0,0,0, ,-200.1,-50,982.2,-10.5,1.8,-5.5,25,281.154,-54.7028,788.263,0.467249,88.8832,8.8676,
2026_07_06_15_53_27.800,3.859,38.3,0,0.765,0,0,0,0, ,0,0,0,0,0, ,-136.8,-110.7,1014.2,-18.5,1.8,-13.2,25,253.756,-56.2657,801.056,-0.444817,83.5766,7.75746,
2026_07_06_15_53_27.828,3.859,38.1,0,0.764,0,0,0,0, ,0,0,0,0,0, ,-95.9,-131.1,1008.5,-5.6,13.7,-7.9,25,231.203,-60.2043,813.871,-1.15201,78.9559,6.64185,
2026_07_06_15_53_27.839,3.859,38.2,0,0.764,0,0,0,0, ,0,0,0,0,0, ,-138.5,-115.2,957.1,3.8,19.4,-2.3,25,209.972,-64.0401,824.165,-1.13665,75.153,5.92633,
2026_07_06_15_53_27.866,3.859,38.3,0,0.767,0,0,0,0, ,0,0,0,0,0, ,-122.5,-85.4,946.6,14.6,12.6,-2.9,25,189.225,-66.2497,831.946,-0.506762,71.5484,5.40676,
2026_07_06_15_53_27.879,3.859,38.2,0,0.765,0,0,0,0, ,0,0,0,0,0, ,-119.8,-92.6,996.5,6.4,-4.1,-7.4,25,170.311,-67.636,840.453,0.163963,67.4474,4.76346,
2026_07_06_15_53_27.906,3.859,38.1,0,0.765,0,0,0,0, ,0,0,0,0,0, ,-79.4,-101.3,1028.6,2.3,-6.1,-6.5,25,153.864,-69.4223,850.94,0.419049,63.0265,4.04967,
2026_07_06_15_53_27.919,3.859,38.1,0,0.765,0,0,0,0, ,0,0,0,0,0, ,-83.7,-93.6,1035.2,4.4,0.2,-4,25,139.518,-71.1303,861.967,0.597654,59.0061,3.48297,
2026_07_06_15_53_27.945,3.859,38.2,0,0.766,0,0,0,0, ,0,0,0,0,0, ,-120.4,-86.3,1008.9,9.6,3.3,-1.9,25,124.798,-72.2771,871.722,0.987797,55.517,3.09096,
2026_07_06_15_53_27.958,3.859,38.1,0,0.766,0,0,0,0, ,0,0,0,0,0, ,-137.8,-70,1005,6.5,-2.7,-1.8,25,109.326,-72.635,879.963,1.41815,52.1523,2.78987,
2026_07_06_15_53_27.985,3.859,38.2,0,0.765,0,0,0,0, ,0,0,0,0,0, ,-132.4,-88.6,1009.8,3.3,-2,-1.4,25,94.4309,-73.0411,887.728,1.63033,48.831,2.52236,
2026_07_06_15_53_27.998,3.859,38.2,0,0.764,0,0,0,0, ,0,0,0,0,0, ,-129,-79.3,1000.3,1.9,1.9,-1.1,25,80.712,-73.7059,894.878,1.68941,45.8523,2.29248,
2026_07_06_15_53_28.025,3.859,38.2,0,0.765,0,0,0,0, ,0,0,0,0,0, ,-113.5,-51.2,984.9,0.4,1.1,-2.9,25,68.405,-73.1906,900.833,1.65654,43.1496,2.03091,
2026_07_06_15_53_28.038,3.859,38.2,0,0.767,0,0,0,0, ,0,0,0,0,0, ,-98.8,-67.7,966.6,6.6,-1.4,-6.3,25,57.768,-72.3533,905.398,1.76888,40.511,1.62684,
2026_07_06_15_53_28.066,3.859,38.2,0,0.767,0,0,0,0, ,0,0,0,0,0, ,-95.5,-95.3,997.6,4.5,-3.2,-3.5,25,48.3277,-72.9107,910.072,1.99929,37.9023,1.22911,
2026_07_06_15_53_28.077,3.859,38.2,0,0.766,0,0,0,0, ,0,0,0,0,0, ,-102.2,-102,1031.3,1.1,-0.1,1,25,39.3591,-74.4792,916.432,2.04808,35.492,1.07804,
2026_07_06_15_53_28.104,3.859,38.3,0,0.765,0,0,0,0, ,0,0,0,0,0, ,-123,-73.7,1021.9,0.5,4.2,1.7,25,30.0991,-75.2939,923.146,1.97203,33.4542,1.09461,
2026_07_06_15_53_28.117,3.859,38.2,0,0.765,0,0,0,0, ,0,0,0,0,0, ,-126.7,-64.4,1000.2,0.5,3.3,0.7,25,20.6569,-74.9135,928.502,1.88233,31.6441,1.10103,
2026_07_06_15_53_28.143,3.859,38.2,0,0.765,0,0,0,0, ,0,0,0,0,0, ,-114.1,-65.9,963.5,2.6,-4.9,-5.4,25,12.0612,-74.3185,931.753,1.86208,29.667,0.890737,
2026_07_06_15_53_28.156,3.859,38.1,0,0.766,0,0,0,0, ,0,0,0,0,0, ,-112.6,-66.2,965.3,-0.2,-15.2,-6.6,25,4.41896,-73.8146,933.743,1.82173,27.2468,0.470833,
2026_07_06_15_53_28.184,3.859,38.2,0,0.766,0,0,0,0, ,0,0,0,0,0, ,-136.4,-70.4,1000.9,1,-6.3,-3.4,25,-3.43704,-73.4786,936.75,1.73509,24.9313,0.137454,
2026_07_06_15_53_28.196,3.859,38.3,0,0.766,0,0,0,0, ,0,0,0,0,0, ,-135.3,-81.2,1016.7,6.1,10.6,1.2,25,-11.5059,-73.62,941.141,1.84569,23.5431,0.0620467,
2026_07_06_15_53_28.223,3.859,38.3,0,0.765,0,0,0,0, ,0,0,0,0,0, ,-128.1,-64,1003.5,5.7,12.5,-0.7,25,-18.8303,-73.5579,945.343,2.09275,22.8123,0.0735001,
2026_07_06_15_53_28.236,3.859,38.2,0,0.764,0,0,0,0, ,0,0,0,0,0, ,-121.8,-53.9,983.8,6.2,5.7,-3,25,-25.2969,-72.6677,948.287,2.3278,21.9767,-0.0437132,
2026_07_06_15_53_28.262,3.859,38.2,0,0.765,0,0,0,0, ,0,0,0,0,0, ,-136.4,-57.6,997,2.6,-0.7,-3.6,25,-31.6224,-71.6368,950.853,2.45408,20.7898,-0.242143,
2026_07_06_15_53_28.280,3.859,38.2,0,0.765,0,0,0,0, ,0,0,0,0,0, ,-119.7,-63.4,1006.5,1.9,-0.2,-4,25,-37.4985,-70.9581,953.955,2.44164,19.4955,-0.45895,
2026_07_06_15_53_28.307,3.859,38.2,0,0.765,0,0,0,0, ,0,0,0,0,0, ,-116.4,-59.5,1002.4,3.8,1.3,-3.1,25,-42.4071,-70.3787,957.032,2.46652,18.341,-0.647311,
2026_07_06_15_53_28.314,3.859,38.2,0,0.765,0,0,0,0, ,0,0,0,0,0, ,-129.3,-55,982.1,2.9,2.4,-0.4,25,-47.3091,-69.5787,959.178,2.52036,17.3361,-0.714506,
2026_07_06_15_53_28.343,3.859,38.1,0,0.764,0,0,0,0, ,0,0,0,0,0, ,-137.9,-55,987.5,4.8,-0.1,-5,25,-52.5674,-68.6903,960.739,2.60139,16.3498,-0.835497,
2026_07_06_15_53_28.354,3.859,38.1,0,0.766,0,0,0,0, ,0,0,0,0,0, ,-128.5,-53.4,1005.7,2.6,-0.1,-5.4,25,-57.481,-67.8073,962.924,2.66833,15.3473,-1.10146,
2026_07_06_15_53_28.382,3.859,38.3,0,0.767,0,0,0,0, ,0,0,0,0,0, ,-125.2,-51.2,1001.2,0.4,1.3,-3.5,25,-61.7082,-66.8623,965.394,2.59714,14.4487,-1.30551,
2026_07_06_15_53_28.394,3.859,38.2,0,0.766,0,0,0,0, ,0,0,0,0,0, ,-122.3,-51.2,987.6,-0.1,-1.5,-3.9,25,-65.4888,-65.9079,967.162,2.44802,13.5621,-1.45142,
2026_07_06_15_53_28.422,3.859,38.1,0,0.766,0,0,0,0, ,0,0,0,0,0, ,-115.6,-52,990.1,-0.8,-4.7,-3.8,25,-68.7466,-65.036,968.483,2.27142,12.5468,-1.59759,
2026_07_06_15_53_28.434,3.859,38.2,0,0.765,0,0,0,0, ,0,0,0,0,0, ,-124.2,-50,996.2,-1.7,-6,-3.4,25,-71.8638,-64.1807,969.986,2.05683,11.4562,-1.71961,
2026_07_06_15_53_28.462,3.859,38.1,0,0.764,0,0,0,0, ,0,0,0,0,0, ,-129.2,-52.9,1002.9,-4.4,-6.1,-5.2,25,-75.2054,-63.4049,971.788,1.74563,10.3894,-1.87685,
2026_07_06_15_53_28.473,3.859,38.2,0,0.765,0,0,0,0, ,0,0,0,0,0, ,-124.1,-52.2,1000.7,-4.1,-6.5,-6.3,25,-78.3403,-62.7435,973.617,1.38027,9.37239,-2.11287,
2026_07_06_15_53_28.502,3.859,38.2,0,0.765,0,0,0,0, ,0,0,0,0,0, ,-112.6,-56.3,983.1,-4.8,-10.4,-8.7,25,-80.7784,-62.2259,974.731,1.02499,8.28634,-2.44115,
2026_07_06_15_53_28.513,3.859,38.3,0,0.765,0,0,0,0, ,0,0,0,0,0, ,-97.9,-58.4,978,-2.9,-9.2,-7.4,25,-82.2696,-61.9288,975.085,0.727922,7.18421,-2.78294,
2026_07_06_15_53_28.542,3.859,38.2,0,0.766,0,0,0,0, ,0,0,0,0,0, ,-111.2,-54.9,1001.8,-1.2,-2.9,-3.6,25,-83.6273,-61.6071,975.988,0.558643,6.37775,-2.94851,
2026_07_06_15_53_28.552,3.859,38.2,0,0.766,0,0,0,0, ,0,0,0,0,0, ,-113.4,-63.3,996.3,-4.2,-3.7,-5.7,25,-85.3746,-61.4543,977.394,0.360069,5.78801,-3.05219,
2026_07_06_15_53_28.580,3.859,38.3,0,0.765,0,0,0,0, ,0,0,0,0,0, ,-110.1,-68.1,990.3,-5.3,-4.7,-5.9,25,-86.9818,-61.713,978.363,0.0486744,5.17937,-3.21964,
2026_07_06_15_53_28.591,3.859,38.2,0,0.766,0,0,0,0, ,0,0,0,0,0, ,-89.3,-58.7,993.1,-2.9,-5,-6.6,25,-87.7568,-61.8158,979.176,-0.204135,4.5682,-3.4043,
2026_07_06_15_53_28.620,3.859,38.2,0,0.766,0,0,0,0, ,0,0,0,0,0, ,-85,-64.3,983.8,-4.4,-9.2,-4.1,25,-87.7198,-61.7966,979.741,-0.414118,3.85717,-3.52287,
2026_07_06_15_53_28.631,3.859,38.1,0,0.765,0,0,0,0, ,0,0,0,0,0, ,-96.4,-64.2,1002.6,-2.8,-7.8,-2,25,-87.9015,-61.9461,980.561,-0.608257,3.10415,-3.49405,
2026_07_06_15_53_28.659,3.859,38.2,0,0.765,0,0,0,0, ,0,0,0,0,0, ,-99.3,-65.3,1008.1,-1.2,0.2,-0.4,25,-88.5077,-62.117,982.071,-0.693067,2.68343,-3.35426,
2026_07_06_15_53_28.671,3.859,38.1,0,0.765,0,0,0,0, ,0,0,0,0,0, ,-100.3,-60.4,991.8,-1.7,0.7,-2.2,25,-89.1958,-62.1616,983.161,-0.739192,2.54733,-3.22908,
2026_07_06_15_53_28.698,3.859,38.2,0,0.765,0,0,0,0, ,0,0,0,0,0, ,-93.6,-59.6,982.9,-2.3,-3,-2.4,25,-89.6683,-62.0299,983.416,-0.816023,2.32203,-3.17246,
2026_07_06_15_53_28.710,3.859,38.2,0,0.765,0,0,0,0, ,0,0,0,0,0, ,-101,-65.5,991.8,-0.9,-3.2,-2.2,25,-90.1334,-62.0616,983.656,-0.863796,1.99162,-3.1193,
2026_07_06_15_53_28.738,3.859,38.3,0,0.765,0,0,0,0, ,0,0,0,0,0, ,-98.3,-65.9,996.8,-0.6,-0.3,-2.1,25,-90.7133,-62.2833,984.305,-0.856862,1.76362,-3.06023,
2026_07_06_15_53_28.749,3.859,38.1,0,0.764,0,0,0,0, ,0,0,0,0,0, ,-99.4,-63.2,986.5,0,-0.5,-2.3,25,-91.2091,-62.4214,984.752,-0.822928,1.63177,-3.00781,
2026_07_06_15_53_28.777,3.859,38.1,0,0.767,0,0,0,0, ,0,0,0,0,0, ,-98.2,-61.4,980.9,0.9,-1.5,-3,25,-91.6717,-62.414,984.688,-0.745359,1.4714,-2.98601,
2026_07_06_15_53_28.791,3.859,38.1,0,0.766,0,0,0,0, ,0,0,0,0,0, ,-95.3,-69.4,993.4,1.3,-3.7,-3,25,-91.9812,-62.596,984.838,-0.632908,1.2233,-2.98686,
2026_07_06_15_53_28.819,3.859,38.2,0,0.765,0,0,0,0, ,0,0,0,0,0, ,-90.2,-72.1,1009,1.1,-1.7,-2.1,25,-92.028,-63.0929,985.835,-0.521215,0.984221,-2.96024,
2026_07_06_15_53_28.829,3.859,38.1,0,0.766,0,0,0,0, ,0,0,0,0,0, ,-93.9,-68.1,1015.3,-0.7,0.6,-0.9,25,-92.0294,-63.5199,987.439,-0.477266,0.89073,-2.87125,
2026_07_06_15_53_28.857,3.859,38.1,0,0.765,0,0,0,0, ,0,0,0,0,0, ,-103.8,-62.3,1000,-1.8,0.1,-2,25,-92.445,-63.6223,988.67,-0.524354,0.857779,-2.78465,
2026_07_06_15_53_28.869,3.859,38.1,0,0.764,0,0,0,0, ,0,0,0,0,0, ,-98.2,-65.9,995.8,-2,-0.6,-3.5,25,-92.9663,-63.6514,989.233,-0.608183,0.790274,-2.78253,
2026_07_06_15_53_28.897,3.859,38.1,0,0.765,0,0,0,0, ,0,0,0,0,0, ,-89.8,-65.3,985.3,-1.2,-0.4,-3.4,25,-93.0293,-63.7701,989.313,-0.668622,0.711648,-2.82321,
2026_07_06_15_53_28.908,3.859,38.2,0,0.766,0,0,0,0, ,0,0,0,0,0, ,-87.5,-66.6,989,-0.5,-2,-2.4,25,-92.7624,-63.903,989.181,-0.679674,0.595157,-2.82789,
2026_07_06_15_53_28.937,3.859,38.1,0,0.764,0,0,0,0, ,0,0,0,0,0, ,-95,-67.6,998.6,-0.8,-0.8,-0.9,25,-92.6703,-64.0978,989.463,-0.677866,0.473577,-2.75611,
2026_07_06_15_53_28.947,3.859,38.2,0,0.765,0,0,0,0, ,0,0,0,0,0, ,-101.1,-65.9,997,-0.8,2.6,-1.8,25,-92.9981,-64.2594,989.971,-0.685309,0.499562,-2.67043,
2026_07_06_15_53_28.977,3.859,38.2,0,0.765,0,0,0,0, ,0,0,0,0,0, ,-88.1,-64.5,993.4,-1.2,2.2,-1.8,25,-93.0957,-64.3167,990.289,-0.704485,0.61537,-2.61738,
2026_07_06_15_53_28.986,3.859,38.1,0,0.765,0,0,0,0, ,0,0,0,0,0, ,-93,-63.9,988.8,-1,0.2,-1.1,25,-92.9406,-64.3096,990.339,-0.728587,0.650996,-2.54625,
2026_07_06_15_53_29.015,3.859,38.1,0,0.765,0,0,0,0, ,0,0,0,0,0, ,-96.8,-65.5,983.6,0,-0.7,-1.5,25,-93.06,-64.3334,990.087,-0.714657,0.596091,-2.4703,
2026_07_06_15_53_29.026,3.859,38.2,0,0.766,0,0,0,0, ,0,0,0,0,0, ,-104.8,-66.1,1001.7,0,-1.6,-2.7,25,-93.5316,-64.4228,990.243,-0.671108,0.489689,-2.44774,
2026_07_06_15_53_29.055,3.859,38.1,0,0.765,0,0,0,0, ,0,0,0,0,0, ,-106.6,-64.2,1013.3,-1.4,-0.4,-2.4,25,-94.2732,-64.4671,991.294,-0.672868,0.398911,-2.45397,
2026_07_06_15_53_29.066,3.859,38.1,0,0.765,0,0,0,0, ,0,0,0,0,0, ,-105.8,-66.2,1002.4,-1.8,0.6,-3.6,25,-94.9999,-64.5117,992.303,-0.729365,0.380696,-2.48724,
2026_07_06_15_53_29.095,3.859,38,0,0.767,0,0,0,0, ,0,0,0,0,0, ,-84.4,-68.7,978.6,1,2.3,-3,25,-95.006,-64.6908,992.193,-0.709295,0.445857,-2.53677,
2026_07_06_15_53_29.112,3.859,38.1,0,0.765,0,0,0,0, ,0,0,0,0,0, ,-96.4,-64.6,986.2,1.3,0.6,-2,25,-94.7254,-64.8102,991.597,-0.595994,0.507047,-2.53453,
2026_07_06_15_53_29.141,3.859,38.1,0,0.764,0,0,0,0, ,0,0,0,0,0, ,-103.5,-64.6,998.5,-0.7,-1.6,-2.4,25,-95.0437,-64.7974,991.642,-0.541394,0.44568,-2.51414,
2026_07_06_15_53_29.146,3.859,38.2,0,0.765,0,0,0,0, ,0,0,0,0,0, ,-101.3,-62.8,1003.4,-1.2,-0.2,-3.6,25,-95.492,-64.7305,992.21,-0.566294,0.363678,-2.54375,
2026_07_06_15_53_29.174,3.859,38.1,0,0.765,0,0,0,0, ,0,0,0,0,0, ,-86.5,-65.9,994.7,-1.3,-1,-3.3,25,-95.395,-64.7073,992.627,-0.607957,0.304953,-2.59898,
2026_07_06_15_53_29.185,3.859,38.1,0,0.765,0,0,0,0, ,0,0,0,0,0, ,-90.8,-66.1,985.2,-1.2,-3.4,-1.4,25,-94.984,-64.7861,992.463,-0.647082,0.152308,-2.5838,
2026_07_06_15_53_29.216,3.859,38.1,0,0.766,0,0,0,0, ,0,0,0,0,0, ,-104.3,-66.2,996,-1,-4.4,-2.1,25,-95.1403,-64.8692,992.35,-0.674681,-0.0946296,-2.53299,
2026_07_06_15_53_29.225,3.859,38.2,0,0.765,0,0,0,0, ,0,0,0,0,0, ,-94.9,-67,1002.5,-1.6,-1.7,-2.5,25,-95.4121,-64.9747,992.77,-0.712787,-0.274722,-2.5188,
2026_07_06_15_53_29.255,3.859,38.1,0,0.766,0,0,0,0, ,0,0,0,0,0, ,-85.9,-66.7,985.9,-1.9,-1.8,-2.2,25,-95.1067,-65.0889,992.857,-0.775992,-0.364622,-2.50851,
2026_07_06_15_53_29.264,3.859,38.1,0,0.766,0,0,0,0, ,0,0,0,0,0, ,-83,-68.3,966.5,0.4,-3.6,-1.2,25,-94.4573,-65.2359,991.842,-0.774408,-0.506934,-2.45924,
2026_07_06_15_53_29.293,3.859,38.1,0,0.765,0,0,0,0, ,0,0,0,0,0, ,-89.8,-66.5,1000,2.3,-2.5,-1,25,-93.9663,-65.3677,991.319,-0.644952,-0.661902,-2.37641,
2026_07_06_15_53_29.303,3.859,38.2,0,0.765,0,0,0,0, ,0,0,0,0,0, ,-102.5,-64.2,1020.6,0,0.4,-0.6,25,-94.0994,-65.3667,992.475,-0.535572,-0.685552,-2.28035,
2026_07_06_15_53_29.333,3.859,38.1,0,0.765,0,0,0,0, ,0,0,0,0,0, ,-99.2,-62.9,1007.9,-1.7,3.1,-1.7,25,-94.5107,-65.256,993.802,-0.554732,-0.537136,-2.21147,
2026_07_06_15_53_29.343,3.859,38.1,0,0.765,0,0,0,0, ,0,0,0,0,0, ,-93.6,-64.8,984.3,-2.9,0,-2.9,25,-94.6259,-65.1703,993.942,-0.661085,-0.409951,-2.21686,
2026_07_06_15_53_29.372,3.859,38.1,0,0.766,0,0,0,0, ,0,0,0,0,0, ,-95.8,-71.8,972.7,-1.7,-0.8,-2,25,-94.6304,-65.361,993.001,-0.760956,-0.409344,-2.23107,
2026_07_06_15_53_29.382,3.859,38.1,0,0.766,0,0,0,0, ,0,0,0,0,0, ,-81.5,-67.9,981.3,0.6,-2.5,-2.4,25,-94.2659,-65.6346,992.026,-0.748101,-0.484947,-2.22918,
2026_07_06_15_53_29.413,3.859,38.1,0,0.765,0,0,0,0, ,0,0,0,0,0, ,-84.3,-67.8,985.4,0.3,-4.5,-0.8,25,-93.5733,-65.7696,991.498,-0.675092,-0.668677,-2.19084,
2026_07_06_15_53_29.423,3.859,38.1,0,0.764,0,0,0,0, ,0,0,0,0,0, ,-95.2,-62.3,1018.1,0.3,-3.7,-1.2,25,-93.3404,-65.7257,992.122,-0.615672,-0.877773,-2.11827,
2026_07_06_15_53_29.452,3.859,38.2,0,0.765,0,0,0,0, ,0,0,0,0,0, ,-89.7,-61.1,1013.7,-1.6,0.7,-1.2,25,-93.2861,-65.4804,993.571,-0.617764,-0.91569,-2.06231,
2026_07_06_15_53_29.462,3.859,38.1,0,0.765,0,0,0,0, ,0,0,0,0,0, ,-96.8,-63.4,992.9,-1.9,1.6,-2.5,25,-93.2839,-65.2835,994.164,-0.68676,-0.789812,-2.04938,
2026_07_06_15_53_29.491,3.859,38.1,0,0.766,0,0,0,0, ,0,0,0,0,0, ,-83,-68.8,986.9,-1.2,-0.1,-2.2,25,-93.0777,-65.3333,993.904,-0.739363,-0.69598,-2.06769,
2026_07_06_15_53_29.501,3.859,38.1,0,0.766,0,0,0,0, ,0,0,0,0,0, ,-96.1,-67.9,985.8,0,-1,-0.5,25,-92.8627,-65.5171,993.444,-0.730871,-0.687084,-2.02396,
2026_07_06_15_53_29.532,3.859,38.2,0,0.765,0,0,0,0, ,0,0,0,0,0, ,-119.1,-67.3,1003,0.5,-0.1,-2.2,25,-93.7608,-65.644,993.502,-0.671099,-0.67873,-1.98289,
2026_07_06_15_53_29.541,3.859,38.2,0,0.764,0,0,0,0, ,0,0,0,0,0, ,-109.4,-63.7,1008.9,-0.6,1.3,-4.8,25,-95.0093,-65.6353,994.261,-0.633251,-0.600808,-2.07534,
2026_07_06_15_53_29.571,3.859,38.1,0,0.765,0,0,0,0, ,0,0,0,0,0, ,-90.2,-63.4,992.4,-0.8,1.5,-5.6,25,-95.3013,-65.5082,994.65,-0.637318,-0.478884,-2.26575,
2026_07_06_15_53_29.581,3.859,38.1,0,0.766,0,0,0,0, ,0,0,0,0,0, ,-88.8,-62.1,981.8,-1,-1.9,-3.8,25,-94.9478,-65.3401,994.19,-0.653325,-0.461889,-2.41409,
2026_07_06_15_53_29.609,3.859,38.2,0,0.766,0,0,0,0, ,0,0,0,0,0, ,-88.7,-55.6,986.3,0.6,-1.6,-4.5,25,-94.5701,-64.9446,993.572,-0.625701,-0.540383,-2.51987,
2026_07_06_15_53_29.620,3.859,38.1,0,0.764,0,0,0,0, ,0,0,0,0,0, ,-70.6,-71.7,995.9,-0.1,-3.7,-3,25,-93.6609,-64.8657,993.421,-0.572338,-0.668938,-2.59483,
2026_07_06_15_53_29.650,3.859,38.2,0,0.766,0,0,0,0, ,0,0,0,0,0, ,-84.1,-67.8,1001.8,0.2,-0.5,-1.8,25,-92.6669,-65.1634,993.752,-0.534414,-0.756143,-2.58296,
2026_07_06_15_53_29.660,3.859,38.1,0,0.766,0,0,0,0, ,0,0,0,0,0, ,-91.7,-62.5,1001.5,-0.2,0.4,-2.2,25,-92.3765,-65.1626,994.234,-0.501848,-0.713113,-2.54743,
2026_07_06_15_53_29.688,3.859,38.1,0,0.765,0,0,0,0, ,0,0,0,0,0, ,-88.6,-64.2,1001.2,-1.4,0.1,-2,25,-92.2408,-65.0521,994.667,-0.520017,-0.654423,-2.52017,
2026_07_06_15_53_29.699,3.859,38.1,0,0.764,0,0,0,0, ,0,0,0,0,0, ,-92.1,-65.4,987.9,-1.3,1.2,-1.4,25,-92.1256,-65.0367,994.66,-0.570594,-0.574935,-2.47019,
2026_07_06_15_53_29.731,3.859,38.1,0,0.766,0,0,0,0, ,0,0,0,0,0, ,-98.5,-66.1,986.5,-0.6,-0.1,-2.2,25,-92.319,-65.0802,994.205,-0.593714,-0.506384,-2.42935,
2026_07_06_15_53_29.739,3.859,38.1,0,0.766,0,0,0,0, ,0,0,0,0,0, ,-95.5,-69.9,995.3,-0.2,-1.2,-2,25,-92.6043,-65.2581,994.004,-0.58191,-0.515136,-2.40928,
2026_07_06_15_53_29.768,3.859,38,0,0.766,0,0,0,0, ,0,0,0,0,0, ,-95.7,-66.6,997.3,0.2,-0.7,-2.3,25,-92.7868,-65.4404,994.144,-0.54645,-0.541635,-2.39348,
2026_07_06_15_53_29.779,3.859,38.1,0,0.764,0,0,0,0, ,0,0,0,0,0, ,-95.9,-65.1,997.1,-0.5,-2,-3.3,25,-92.9704,-65.4654,994.33,-0.522291,-0.590895,-2.41825,
2026_07_06_15_53_29.808,3.859,38,0,0.765,0,0,0,0, ,0,0,0,0,0, ,-88.1,-65.7,996.3,-0.7,-0.1,-3.1,25,-92.9113,-65.4614,994.475,-0.527026,-0.618872,-2.46589,
2026_07_06_15_53_29.818,3.859,38.2,0,0.765,0,0,0,0, ,0,0,0,0,0, ,-92.5,-62.9,1000.2,-1.4,0,-2.9,25,-92.7522,-65.3906,994.705,-0.558895,-0.584206,-2.49844,
2026_07_06_15_53_29.847,3.859,38.1,0,0.764,0,0,0,0, ,0,0,0,0,0, ,-95.3,-67,989.9,-1.3,-0.7,-3.1,25,-92.8221,-65.3638,994.726,-0.607103,-0.569934,-2.529,
2026_07_06_15_53_29.857,3.859,38.2,0,0.766,0,0,0,0, ,0,0,0,0,0, ,-92.1,-65.4,993,-0.4,1.1,-3.2,25,-92.8756,-65.4148,994.526,-0.621904,-0.523016,-2.56684,
2026_07_06_15_53_29.887,3.859,38,0,0.767,0,0,0,0, ,0,0,0,0,0, ,-84.7,-64.8,985.9,-0.7,-0.1,-2.6,25,-92.6029,-65.3956,994.217,-0.617523,-0.460676,-2.58714,
2026_07_06_15_53_29.897,3.859,38.1,0,0.765,0,0,0,0, ,0,0,0,0,0, ,-83.3,-64.5,993.6,0,-0.6,-1.8,25,-92.0786,-65.3501,993.945,-0.601221,-0.453932,-2.56355,
2026_07_06_15_53_29.927,3.859,38.1,0,0.765,0,0,0,0, ,0,0,0,0,0, ,-94.7,-63.9,995.4,-0.1,0.7,-1.2,25,-91.891,-65.2801,993.978,-0.567631,-0.423224,-2.49874,
2026_07_06_15_53_29.937,3.859,38.2,0,0.765,0,0,0,0, ,0,0,0,0,0, ,-98.6,-63.2,996.2,0,0,-2.6,25,-92.181,-65.1746,994.089,-0.536088,-0.376105,-2.46226,
2026_07_06_15_53_29.967,3.859,38.1,0,0.765,0,0,0,0, ,0,0,0,0,0, ,-85.6,-65.4,994.8,0.1,-1.1,-1.7,25,-92.1761,-65.1213,994.175,-0.500373,-0.386702,-2.44323,
2026_07_06_15_53_29.977,3.859,38,0,0.765,0,0,0,0, ,0,0,0,0,0, ,-92.1,-65.4,996.3,-0.3,-2.8,-0.5,25,-91.9734,-65.1383,994.259,-0.475975,-0.481965,-2.36138,
2026_07_06_15_53_30.006,3.859,38.1,0,0.766,0,0,0,0, ,0,0,0,0,0, ,-98.6,-64.6,997.5,-0.5,-2.5,-1,25,-92.1792,-65.1299,994.42,-0.471345,-0.61408,-2.26318,
2026_07_06_15_53_30.015,3.859,38.1,0,0.765,0,0,0,0, ,0,0,0,0,0, ,-109.8,-65.6,995.8,-0.1,-0.6,-3.3,25,-92.9117,-65.1281,994.556,-0.460904,-0.671113,-2.25629,
2026_07_06_15_53_30.046,3.859,38,0,0.765,0,0,0,0, ,0,0,0,0,0, ,-86.7,-63.8,1002,-0.2,0,-3.7,25,-93.237,-65.102,994.821,-0.441958,-0.648498,-2.33207,
2026_07_06_15_53_30.056,3.859,38.1,0,0.765,0,0,0,0, ,0,0,0,0,0, ,-84.1,-63.3,1000.3,-0.2,0.4,-3,25,-92.7594,-65.0074,995.206,-0.427214,-0.596793,-2.3941,
2026_07_06_15_53_30.087,3.859,38.1,0,0.765,0,0,0,0, ,0,0,0,0,0, ,-89.9,-63.3,996.4,-1.5,-1.9,-2.1,25,-92.4085,-64.9034,995.398,-0.452977,-0.606129,-2.4036,
2026_07_06_15_53_30.101,3.859,38.1,0,0.766,0,0,0,0, ,0,0,0,0,0, ,-90.2,-67.2,990.7,-1.2,-1.1,-1.6,25,-92.2647,-64.9245,995.285,-0.50764,-0.660599,-2.36987,
2026_07_06_15_53_30.132,3.859,38.1,0,0.764,0,0,0,0, ,0,0,0,0,0, ,-92,-62.8,996.8,-0.3,1.1,-2.1,25,-92.1938,-64.9291,995.192,-0.522409,-0.620344,-2.33819,
2026_07_06_15_53_30.138,3.859,38.1,0,0.764,0,0,0,0, ,0,0,0,0,0, ,-80.3,-60.5,1002.1,-0.4,1,-2.7,25,-91.8255,-64.7293,995.451,-0.511902,-0.518557,-2.34196,
2026_07_06_15_53_30.168,3.859,38.1,0,0.765,0,0,0,0, ,0,0,0,0,0, ,-93.2,-65.1,984.8,-0.9,0.6,-1.6,25,-91.5162,-64.6117,995.329,-0.520318,-0.438208,-2.33026,
2026_07_06_15_53_30.174,3.859,38.1,0,0.765,0,0,0,0, ,0,0,0,0,0, ,-104.4,-73.3,989.2,1.4,2.8,-3.2,25,-91.96,-64.8913,994.822,-0.473377,-0.307911,-2.33451,
2026_07_06_15_53_30.204,3.859,38.1,0,0.765,0,0,0,0, ,0,0,0,0,0, ,-86.7,-59.8,969.3,3.2,3.9,-2.9,25,-92.1788,-64.9924,993.873,-0.304374,-0.0850067,-2.37811,
2026_07_06_15_53_30.213,3.859,38.1,0,0.765,0,0,0,0, ,0,0,0,0,0, ,-97,-59,986,1.7,-1.3,-1.2,25,-92.1588,-64.6516,992.884,-0.136529,-0.000607843,-2.35811,
2026_07_06_15_53_30.244,3.859,38.1,0,0.766,0,0,0,0, ,0,0,0,0,0, ,-92.7,-64.3,1015.3,0.7,-3.8,-2.9,25,-92.3228,-64.4687,993.357,-0.0550845,-0.155961,-2.33934,
2026_07_06_15_53_30.253,3.859,38.1,0,0.766,0,0,0,0, ,0,0,0,0,0, ,-95.9,-63.7,1008,0,-1.3,-2.8,25,-92.4433,-64.4401,994.472,-0.0303997,-0.301848,-2.37046,
2026_07_06_15_53_30.283,3.859,38.1,0,0.765,0,0,0,0, ,0,0,0,0,0, ,-92.8,-61.6,1000.1,-1.2,-1.4,-2.9,25,-92.5594,-64.331,995.056,-0.0651097,-0.36572,-2.39968,
2026_07_06_15_53_30.293,3.859,38.1,0,0.765,0,0,0,0, ,0,0,0,0,0, ,-83.7,-61.4,996.7,-0.1,-0.3,-1.8,25,-92.2968,-64.1585,995.26,-0.100751,-0.395231,-2.39665,
2026_07_06_15_53_30.324,3.859,38.1,0,0.766,0,0,0,0, ,0,0,0,0,0, ,-101.4,-65.4,985.4,1.2,0.5,-1.2,25,-92.3123,-64.1123,995.003,-0.0610963,-0.365053,-2.34201,
2026_07_06_15_53_30.332,3.859,38.1,0,0.765,0,0,0,0, ,0,0,0,0,0, ,-97.1,-60.6,989.3,3,0.4,-3.4,25,-92.735,-64.0445,994.537,0.0705955,-0.315385,-2.33945,
2026_07_06_15_53_30.363,3.859,38,0,0.766,0,0,0,0, ,0,0,0,0,0, ,-93.8,-57.2,993.5,1.3,-2.1,-2.6,25,-92.9005,-63.731,994.346,0.197309,-0.347963,-2.3797,
2026_07_06_15_53_30.372,3.859,38.1,0,0.766,0,0,0,0, ,0,0,0,0,0, ,-93.5,-57.2,1012.8,-0.8,-1.7,-2.8,25,-92.9462,-63.333,994.882,0.20052,-0.442541,-2.39922,
2026_07_06_15_53_30.402,3.859,38.1,0,0.765,0,0,0,0, ,0,0,0,0,0, ,-79.8,-54.8,994.3,-1.3,0.2,-2.3,25,-92.5625,-62.8862,995.41,0.124316,-0.461276,-2.40841,
2026_07_06_15_53_30.412,3.859,38,0,0.765,0,0,0,0, ,0,0,0,0,0, ,-80.2,-57.3,979.7,-2.1,-3.1,-1.1,25,-91.797,-62.4696,994.898,0.0131472,-0.521527,-2.36524,
2026_07_06_15_53_30.442,3.859,38.2,0,0.765,0,0,0,0, ,0,0,0,0,0, ,-104.4,-60.5,979.9,0.8,-4.1,-0.4,25,-91.8276,-62.2521,993.978,-0.0272633,-0.709121,-2.26681,
2026_07_06_15_53_30.451,3.859,38.1,0,0.767,0,0,0,0, ,0,0,0,0,0, ,-110.1,-58.9,1012.3,1.1,-3.9,-3.3,25,-92.7674,-62.0966,994.107,0.0322887,-0.909659,-2.24141,
2026_07_06_15_53_30.483,3.859,38.1,0,0.765,0,0,0,0, ,0,0,0,0,0, ,-90.4,-57.8,1008.1,-0.2,-1,-3.4,25,-93.2234,-61.8683,995.088,0.0577429,-1.00352,-2.30897,
2026_07_06_15_53_30.490,3.859,38,0,0.764,0,0,0,0, ,0,0,0,0,0, ,-88.1,-60,985.8,-1.5,-0.2,-2.7,25,-92.9813,-61.6874,995.201,0.00242736,-0.978934,-2.35412,
2026_07_06_15_53_30.522,3.859,38.1,0,0.765,0,0,0,0, ,0,0,0,0,0, ,-79.7,-58.4,988.4,0,-2.4,-3.3,25,-92.4279,-61.5358,994.708,-0.0434237,-0.998499,-2.39348,
2026_07_06_15_53_30.530,3.859,38.1,0,0.765,0,0,0,0, ,0,0,0,0,0, ,-87.4,-58.1,993.8,-0.9,-3.8,-1.7,25,-91.8869,-61.3356,994.488,-0.0681994,-1.12656,-2.39997,
2026_07_06_15_53_30.562,3.859,38.1,0,0.765,0,0,0,0, ,0,0,0,0,0, ,-86.1,-58.7,993.1,0.1,-1.9,-2.3,25,-91.5738,-61.1567,994.424,-0.0884185,-1.23158,-2.3756,
2026_07_06_15_53_30.570,3.859,38,0,0.765,0,0,0,0, ,0,0,0,0,0, ,-84.3,-58.4,989.6,0.8,-0.7,-1.5,25,-91.1854,-60.9978,994.237,-0.0556086,-1.23575,-2.34662,
2026_07_06_15_53_30.603,3.859,38,0,0.765,0,0,0,0, ,0,0,0,0,0, ,-90.6,-56.8,1001.3,0.8,-1.9,-2.3,25,-90.9578,-60.7908,994.311,-0.00346999,-1.23967,-2.3194,
2026_07_06_15_53_30.609,3.859,38.1,0,0.765,0,0,0,0, ,0,0,0,0,0, ,-87.5,-53.8,1007.9,-0.9,-1,-2.4,25,-90.8416,-60.4562,994.938,-0.00630541,-1.25248,-2.32127,
2026_07_06_15_53_30.640,3.859,38,0,0.765,0,0,0,0, ,0,0,0,0,0, ,-80.9,-56.2,1000.7,-1.3,0.1,-2.2,25,-90.4368,-60.1237,995.509,-0.0729524,-1.20358,-2.31997,
2026_07_06_15_53_30.649,3.859,38.1,0,0.765,0,0,0,0, ,0,0,0,0,0, ,-78.1,-57.6,983.3,-0.6,-1.2,-1.5,25,-89.7704,-59.9273,995.295,-0.126397,-1.16375,-2.29133,
2026_07_06_15_53_30.680,3.859,38,0,0.767,0,0,0,0, ,0,0,0,0,0, ,-86.5,-57.4,992.1,1,-1.4,-1.3,25,-89.3151,-59.7793,994.832,-0.106508,-1.17206,-2.23702,
2026_07_06_15_53_30.689,3.859,38,0,0.765,0,0,0,0, ,0,0,0,0,0, ,-100.9,-58.4,1009.3,0.7,0.9,-1.8,25,-89.5823,-59.6648,995.19,-0.0482205,-1.11587,-2.19515,
2026_07_06_15_53_30.720,3.859,38.1,0,0.766,0,0,0,0, ,0,0,0,0,0, ,-92.4,-54.6,1003.2,4.8,3.1,-4.9,25,-90.013,-59.472,995.864,0.122296,-0.925995,-2.26553,
2026_07_06_15_53_30.730,3.859,38,0,0.764,0,0,0,0, ,0,0,0,0,0, ,-85.2,-51.6,1003.5,5.8,3.7,-5.6,25,-89.9391,-59.0837,996.32,0.437812,-0.66238,-2.44739,
2026_07_06_15_53_30.763,3.859,38.1,0,0.765,0,0,0,0, ,0,0,0,0,0, ,-73.1,-51,991.6,2.9,3,-3.5,25,-89.2816,-58.6094,996.395,0.676211,-0.417876,-2.57552,
2026_07_06_15_53_30.768,3.859,38,0,0.765,0,0,0,0, ,0,0,0,0,0, ,-91.5,-53.9,981.6,0.8,1.9,-1.5,25,-88.8562,-58.234,995.798,0.747739,-0.243115,-2.57092,
2026_07_06_15_53_30.799,3.859,38.1,0,0.765,0,0,0,0, ,0,0,0,0,0, ,-94.1,-49.4,993.1,1,-0.5,-1.3,25,-89.0965,-57.8328,995.283,0.757017,-0.185644,-2.49956,
2026_07_06_15_53_30.807,3.859,38.1,0,0.766,0,0,0,0, ,0,0,0,0,0, ,-105.4,-50.9,1003.5,0.4,-1.4,-2.3,25,-89.7457,-57.3646,995.467,0.753543,-0.232222,-2.45693,
2026_07_06_15_53_30.839,3.859,38,0,0.765,0,0,0,0, ,0,0,0,0,0, ,-101.6,-50.5,1000.3,-0.5,-0.5,-3.1,25,-90.5839,-56.9585,995.859,0.704577,-0.275961,-2.47175,
2026_07_06_15_53_30.846,3.859,38,0,0.765,0,0,0,0, ,0,0,0,0,0, ,-81.7,-49.9,990.1,0.1,0,-4,25,-90.6488,-56.5467,995.819,0.649454,-0.274379,-2.53745,
2026_07_06_15_53_30.878,3.859,38,0,0.765,0,0,0,0, ,0,0,0,0,0, ,-78,-48.4,990.7,0.4,-0.6,-2.2,25,-89.9908,-56.0959,995.489,0.625113,-0.27594,-2.57173,
2026_07_06_15_53_30.886,3.859,38.1,0,0.765,0,0,0,0, ,0,0,0,0,0, ,-90,-49,995.1,1,-0.4,-1.1,25,-89.6257,-55.6452,995.331,0.629676,-0.289594,-2.51556,
2026_07_06_15_53_30.919,3.859,38.1,0,0.765,0,0,0,0, ,0,0,0,0,0, ,-93,-46,994.9,0.8,-0.5,-2,25,-89.7399,-55.1489,995.311,0.646149,-0.299369,-2.45673,
2026_07_06_15_53_30.926,3.859,38,0,0.765,0,0,0,0, ,0,0,0,0,0, ,-85.5,-47.3,1004.5,0,-0.8,-1.9,25,-89.7101,-54.631,995.578,0.631149,-0.320735,-2.42585,
2026_07_06_15_53_30.957,3.859,38,0,0.765,0,0,0,0, ,0,0,0,0,0, ,-83.4,-44.4,1002.4,1.5,0.5,-1.4,25,-89.3895,-54.0959,996.058,0.638392,-0.310331,-2.37857,
2026_07_06_15_53_30.965,3.859,38,0,0.765,0,0,0,0, ,0,0,0,0,0, ,-87,-46.3,999,0.8,0.6,-1.5,25,-89.1342,-53.5629,996.341,0.669568,-0.257905,-2.32198,
2026_07_06_15_53_30.998,3.859,38.1,0,0.765,0,0,0,0, ,0,0,0,0,0, ,-91,-47.6,1000.3,-2.3,-0.2,-0.8,25,-89.1261,-53.16,996.542,0.583063,-0.230001,-2.25057,
2026_07_06_15_53_31.004,3.859,38,0,0.766,0,0,0,0, ,0,0,0,0,0, ,-95.9,-48.3,988.6,-1.6,1.1,-1.3,25,-89.3896,-52.8425,996.415,0.428704,-0.188564,-2.17741,
2026_07_06_15_53_31.037,3.859,38,0,0.764,0,0,0,0, ,0,0,0,0,0, ,-87.7,-47.1,993.1,-1.4,0,-0.8,25,-89.5364,-52.5291,996.076,0.311174,-0.143557,-2.10871,
2026_07_06_15_53_31.044,3.859,38,0,0.767,0,0,0,0, ,0,0,0,0,0, ,-104.4,-48,989.6,-0.3,-0.9,-0.9,25,-89.9334,-52.2257,995.788,0.240415,-0.162231,-2.032,
2026_07_06_15_53_31.078,3.859,37.9,0,0.765,0,0,0,0, ,0,0,0,0,0, ,-106,-49.6,1006.7,-1.4,-1.9,-2.6,25,-90.8637,-52.0169,995.932,0.173968,-0.237658,-2.01482,
2026_07_06_15_53_31.084,3.859,38,0,0.765,0,0,0,0, ,0,0,0,0,0, ,-90.5,-48.9,999.3,0.4,0.8,-3,25,-91.3138,-51.8483,996.362,0.132898,-0.256691,-2.06267,
2026_07_06_15_53_31.116,3.859,38,0,0.764,0,0,0,0, ,0,0,0,0,0, ,-84.8,-46.7,989.5,-1.1,0,-2.9,25,-91.0905,-51.6016,996.243,0.103471,-0.216674,-2.11674,
2026_07_06_15_53_31.124,3.859,38,0,0.765,0,0,0,0, ,0,0,0,0,0, ,-85.8,-48.8,988.5,-2.6,-2.2,-1.7,25,-90.7377,-51.3669,995.801,-0.0155683,-0.270502,-2.12791,
2026_07_06_15_53_31.156,3.859,38,0,0.765,0,0,0,0, ,0,0,0,0,0, ,-95.2,-49.3,998.2,-0.9,-1.2,-2.5,25,-90.7232,-51.2257,995.652,-0.12126,-0.357612,-2.1262,
2026_07_06_15_53_31.163,3.859,38,0,0.765,0,0,0,0, ,0,0,0,0,0, ,-93,-48.2,1003.1,-1.5,-1.2,-2.1,25,-90.9289,-51.0749,995.957,-0.186996,-0.408945,-2.1368,
2026_07_06_15_53_31.196,3.859,38,0,0.765,0,0,0,0, ,0,0,0,0,0, ,-94.1,-48.5,996.3,0.3,0.1,-2.1,25,-91.0887,-50.9088,996.185,-0.212163,-0.41754,-2.13455,
2026_07_06_15_53_31.203,3.859,38,0,0.765,0,0,0,0, ,0,0,0,0,0, ,-94.2,-50,1000,-0.7,-1.4,-2,25,-91.2752,-50.8077,996.305,-0.211422,-0.431706,-2.1294,
2026_07_06_15_53_31.235,3.859,38,0,0.765,0,0,0,0, ,0,0,0,0,0, ,-93.1,-43.9,1000,-0.1,-0.8,-2.2,25,-91.4199,-50.5727,996.53,-0.222914,-0.47243,-2.12761,
