UTC_Time,Vin,TC1,TC2,Rh1,Vh1,Ah1,Acp1,Dty1,Err1,Rh2,Vh2,Ah2,Acp2,Dty2,Err2,Accel_x,Accel_y,Accel_z,gyro_x,gyro_y,gyro_z,Temp_c,Accel_x_h,Accel_y_h,Accel_z_h,gyro_x_h,gyro_y_h,gyro_z_h,
2026_07_06_21_53_50.520,3.872,46.8,0,0.771,0,0,0,0, ,0,0,0,0,0, ,-79.1,391.6,916.1,-0.8,-0.5,-1.9,25,-79.1,391.6,916.1,-0.8,-0.5,-1.9,
2026_07_06_21_53_50.540,3.872,46.7,0,0.771,0,0,0,0, ,0,0,0,0,0, ,-77.7,390.8,917.4,-0.9,-0.6,-1.8,25,-79.0573,391.576,916.14,-0.803047,-0.503047,-1.89695,
2026_07_06_21_53_50.560,3.872,46.8,0,0.771,0,0,0,0, ,0,0,0,0,0, ,-77.8,391.4,916.1,-0.9,-0.6,-1.9,25,-78.9777,391.547,916.177,-0.808955,-0.508955,-1.89409,
2026_07_06_21_53_50.580,3.872,46.8,0,0.771,0,0,0,0, ,0,0,0,0,0, ,-77.1,391.3,917.8,-0.8,-0.6,-1.8,25,-78.8846,391.535,916.224,-0.811456,-0.514503,-1.89141,
2026_07_06_21_53_50.600,3.872,46.8,0,0.771,0,0,0,0, ,0,0,0,0,0, ,-78.2,391.7,917.3,-1,-0.5,-1.9,25,-78.8094,391.533,916.305,-0.816852,-0.516666,-1.88888,
2026_07_06_21_53_50.619,3.872,46.8,0,0.771,0,0,0,0, ,0,0,0,0,0, ,-77.3,394,917.9,-1,-0.5,-1.8,25,-78.7448,391.613,916.384,-0.828012,-0.515651,-1.88651,
2026_07_06_21_53_50.639,3.872,46.8,0,0.77,0,0,0,0, ,0,0,0,0,0, ,-77.8,392.3,916.7,-0.9,-0.5,-1.8,25,-78.672,391.707,916.439,-0.835446,-0.514697,-1.88124,
2026_07_06_21_53_50.658,3.872,46.7,0,0.771,0,0,0,0, ,0,0,0,0,0, ,-78.2,392.4,917.1,-1.1,-0.5,-1.8,25,-78.631,391.746,916.468,-0.845474,-0.513801,-1.87629,
2026_07_06_21_53_50.678,3.872,46.8,0,0.771,0,0,0,0, ,0,0,0,0,0, ,-77.2,393,918.5,-1,-0.5,-1.8,25,-78.5743,391.804,916.549,-0.857937,-0.51296,-1.87164,
2026_07_06_21_53_50.697,3.872,46.7,0,0.771,0,0,0,0, ,0,0,0,0,0, ,-78.2,393.1,916.7,-0.9,-0.5,-1.8,25,-78.521,391.88,916.613,-0.863547,-0.51217,-1.86728,
2026_07_06_21_53_50.717,3.872,46.7,0,0.771,0,0,0,0, ,0,0,0,0,0, ,-77.7,391.2,917.3,-0.9,-0.5,-1.8,25,-78.4862,391.896,916.636,-0.865768,-0.511429,-1.86318,
2026_07_06_21_53_50.738,3.872,46.8,0,0.771,0,0,0,0, ,0,0,0,0,0, ,-78.4,392.3,917.2,-1,-0.6,-1.8,25,-78.4596,391.887,916.674,-0.870901,-0.513779,-1.85933,
2026_07_06_21_53_50.757,3.872,46.7,0,0.771,0,0,0,0, ,0,0,0,0,0, ,-78.4,392.4,917.4,-0.8,-0.5,-1.8,25,-78.456,391.916,916.712,-0.872674,-0.515986,-1.85571,
2026_07_06_21_53_50.777,3.872,46.7,0,0.771,0,0,0,0, ,0,0,0,0,0, ,-79.8,392,917.3,-0.9,-0.6,-1.8,25,-78.4953,391.933,916.751,-0.871293,-0.518059,-1.85232,
2026_07_06_21_53_50.797,3.872,46.7,0,0.771,0,0,0,0, ,0,0,0,0,0, ,-77.6,392.7,918,-0.8,-0.5,-1.8,25,-78.5077,391.958,916.806,-0.869995,-0.520006,-1.84913,
2026_07_06_21_53_50.817,3.872,46.7,0,0.771,0,0,0,0, ,0,0,0,0,0, ,-77.7,392,917.1,-0.8,-0.5,-1.8,25,-78.4555,391.982,916.851,-0.86573,-0.518786,-1.84613,
2026_07_06_21_53_50.837,3.872,46.7,0,0.772,0,0,0,0, ,0,0,0,0,0, ,-77.1,392,918.2,-0.9,-0.5,-1.8,25,-78.3911,391.983,916.9,-0.864771,-0.517642,-1.84332,
2026_07_06_21_53_50.856,3.872,46.8,0,0.772,0,0,0,0, ,0,0,0,0,0, ,-78.2,392.3,917.3,-0.8,-0.5,-1.8,25,-78.346,391.993,916.951,-0.863871,-0.516567,-1.84068,
2026_07_06_21_53_50.876,3.872,46.7,0,0.772,0,0,0,0, ,0,0,0,0,0, ,-77.8,392,915.1,-0.9,-0.5,-1.8,25,-78.3249,392.003,916.906,-0.863026,-0.515557,-1.8382,
2026_07_06_21_53_50.896,3.872,46.7,0,0.771,0,0,0,0, ,0,0,0,0,0, ,-78,393,916.3,-1,-0.4,-1.8,25,-78.299,392.033,916.832,-0.868326,-0.511562,-1.83588,
2026_07_06_21_53_50.915,3.872,46.7,0,0.771,0,0,0,0, ,0,0,0,0,0, ,-79.3,391.3,916.7,-0.9,-0.6,-1.8,25,-78.3204,392.04,916.812,-0.873303,-0.510858,-1.83369,
2026_07_06_21_53_50.935,3.872,46.7,0,0.773,0,0,0,0, ,0,0,0,0,0, ,-78.3,391.1,918,-0.9,-0.6,-1.8,25,-78.3496,391.989,916.845,-0.87493,-0.51629,-1.83164,
2026_07_06_21_53_50.955,3.872,46.7,0,0.771,0,0,0,0, ,0,0,0,0,0, ,-78.6,391.8,917.7,-1,-0.5,-1.8,25,-78.3557,391.956,916.906,-0.879504,-0.518344,-1.82971,
2026_07_06_21_53_50.975,3.872,46.7,0,0.771,0,0,0,0, ,0,0,0,0,0, ,-79.2,391.8,917.6,-0.8,-0.5,-1.8,25,-78.3889,391.947,916.951,-0.880753,-0.517226,-1.8279,
2026_07_06_21_53_50.995,3.872,46.7,0,0.77,0,0,0,0, ,0,0,0,0,0, ,-77.7,391.8,916.5,-0.9,-0.5,-1.8,25,-78.3926,391.938,916.957,-0.878879,-0.516176,-1.8262,
2026_07_06_21_53_51.014,3.872,46.7,0,0.771,0,0,0,0, ,0,0,0,0,0, ,-78.4,391.1,917.7,-0.8,-0.5,-1.8,25,-78.3717,391.908,916.966,-0.877119,-0.515191,-1.8246,
2026_07_06_21_53_51.034,3.872,46.7,0,0.771,0,0,0,0, ,0,0,0,0,0, ,-77.8,391.6,916.9,-0.9,-0.5,-1.8,25,-78.3552,391.874,916.986,-0.875467,-0.514265,-1.8231,
2026_07_06_21_53_51.054,3.872,46.6,0,0.771,0,0,0,0, ,0,0,0,0,0, ,-77.8,393.7,916,-0.9,-0.5,-1.8,25,-78.3214,391.921,916.954,-0.876962,-0.513396,-1.82169,
2026_07_06_21_53_51.074,3.872,46.6,0,0.771,0,0,0,0, ,0,0,0,0,0, ,-77.1,390.9,916,-0.9,-0.5,-1.8,25,-78.2683,391.944,916.896,-0.878366,-0.512579,-1.82037,
2026_07_06_21_53_51.094,3.872,46.6,0,0.773,0,0,0,0, ,0,0,0,0,0, ,-78.2,392.4,915.6,-1,-0.6,-1.8,25,-78.2306,391.927,916.829,-0.882731,-0.51486,-1.81913,
2026_07_06_21_53_51.113,3.872,46.7,0,0.771,0,0,0,0, ,0,0,0,0,0, ,-77.7,392.2,916.2,-1,-0.5,-1.8,25,-78.2135,391.949,916.772,-0.889877,-0.517001,-1.81797,
2026_07_06_21_53_51.133,3.872,46.6,0,0.772,0,0,0,0, ,0,0,0,0,0, ,-78,391.7,917.3,-1,-0.5,-1.8,25,-78.1913,391.949,916.771,-0.896588,-0.515965,-1.81687,
2026_07_06_21_53_51.156,3.872,46.6,0,0.771,0,0,0,0, ,0,0,0,0,0, ,-78.3,392.5,916.9,-1,-0.5,-1.8,25,-78.1888,391.958,916.791,-0.902889,-0.514992,-1.81584,
2026_07_06_21_53_51.173,3.872,46.6,0,0.772,0,0,0,0, ,0,0,0,0,0, ,-77.6,392.2,917.3,-1,-0.5,-1.9,25,-78.1743,391.982,916.81,-0.908807,-0.514079,-1.81792,
2026_07_06_21_53_51.192,3.872,46.6,0,0.77,0,0,0,0, ,0,0,0,0,0, ,-78.8,392.9,919.9,-0.9,-0.5,-1.8,25,-78.1758,392.017,916.919,-0.911317,-0.513221,-1.81988,
2026_07_06_21_53_51.213,3.872,46.6,0,0.77,0,0,0,0, ,0,0,0,0,0, ,-78.3,393.6,916.7,-0.9,-0.5,-1.8,25,-78.1986,392.092,917.003,-0.910628,-0.512415,-1.81867,
2026_07_06_21_53_51.232,3.872,46.6,0,0.771,0,0,0,0, ,0,0,0,0,0, ,-78.4,392.4,917.2,-0.8,-0.5,-1.8,25,-78.2079,392.147,917,-0.906933,-0.511659,-1.81753,
2026_07_06_21_53_51.252,3.872,46.6,0,0.771,0,0,0,0, ,0,0,0,0,0, ,-77.6,392.3,915.8,-0.8,-0.5,-1.8,25,-78.1952,392.16,916.969,-0.900417,-0.510948,-1.81646,
2026_07_06_21_53_51.272,3.872,46.6,0,0.771,0,0,0,0, ,0,0,0,0,0, ,-78.7,393,917.8,-0.8,-0.6,-1.8,25,-78.1924,392.19,916.959,-0.894298,-0.513328,-1.81546,
2026_07_06_21_53_51.295,3.872,46.6,0,0.771,0,0,0,0, ,0,0,0,0,0, ,-77.3,392,917.6,-0.9,-0.5,-1.8,25,-78.1807,392.209,917.004,-0.891598,-0.515563,-1.81452,
2026_07_06_21_53_51.311,3.872,46.6,0,0.771,0,0,0,0, ,0,0,0,0,0, ,-76.9,391.3,916.1,-0.8,-0.5,-1.8,25,-78.1149,392.175,916.995,-0.889063,-0.514614,-1.81363,
2026_07_06_21_53_51.332,3.872,46.6,0,0.771,0,0,0,0, ,0,0,0,0,0, ,-77.7,391.9,917.6,-0.9,-0.5,-1.8,25,-78.0652,392.139,916.986,-0.886683,-0.513724,-1.8128,
2026_07_06_21_53_51.352,3.872,46.6,0,0.771,0,0,0,0, ,0,0,0,0,0, ,-78.1,391.1,917.4,-0.9,-0.5,-1.8,25,-78.0551,392.101,917.017,-0.887494,-0.512887,-1.81202,
2026_07_06_21_53_51.371,3.872,46.5,0,0.771,0,0,0,0, ,0,0,0,0,0, ,-77.7,391.8,917.1,-0.8,-0.5,-1.9,25,-78.0457,392.061,917.031,-0.88521,-0.512102,-1.81434,
2026_07_06_21_53_51.391,3.872,46.6,0,0.772,0,0,0,0, ,0,0,0,0,0, ,-77.7,391.9,916.9,-0.9,-0.5,-1.8,25,-78.0246,392.048,917.03,-0.883064,-0.511365,-1.81651,
2026_07_06_21_53_51.411,3.872,46.5,0,0.77,0,0,0,0, ,0,0,0,0,0, ,-77.3,392.7,917.6,-1,-0.5,-1.9,25,-77.9926,392.063,917.043,-0.887143,-0.510672,-1.81855,
2026_07_06_21_53_51.433,3.872,46.5,0,0.772,0,0,0,0, ,0,0,0,0,0, ,-77.7,391.4,918.3,-1,-0.5,-1.9,25,-77.9626,392.063,917.098,-0.89402,-0.510022,-1.82351,
2026_07_06_21_53_51.450,3.872,46.5,0,0.771,0,0,0,0, ,0,0,0,0,0, ,-78.1,391.8,918,-1,-0.5,-1.8,25,-77.9588,392.034,917.162,-0.900478,-0.509411,-1.82513,
2026_07_06_21_53_51.470,3.872,46.5,0,0.77,0,0,0,0, ,0,0,0,0,0, ,-78,392.5,916.8,-1,-0.6,-1.8,25,-77.9644,392.041,917.177,-0.906543,-0.511884,-1.8236,
2026_07_06_21_53_51.490,3.872,46.6,0,0.771,0,0,0,0, ,0,0,0,0,0, ,-78.3,392,917.6,-0.9,-0.5,-1.8,25,-77.9757,392.054,917.178,-0.909191,-0.514207,-1.82216,
2026_07_06_21_53_51.510,3.872,46.6,0,0.771,0,0,0,0, ,0,0,0,0,0, ,-77.6,392.5,918.7,-1.1,-0.5,-1.8,25,-77.9741,392.066,917.237,-0.914725,-0.513341,-1.82081,
2026_07_06_21_53_51.529,3.872,46.5,0,0.771,0,0,0,0, ,0,0,0,0,0, ,-79.7,391.3,918.2,-0.9,-0.5,-1.8,25,-78.0153,392.056,917.311,-0.919921,-0.512528,-1.81954,
2026_07_06_21_53_51.550,3.872,46.5,0,0.771,0,0,0,0, ,0,0,0,0,0, ,-77.6,392.2,917.1,-0.9,-0.5,-1.8,25,-78.054,392.037,917.332,-0.918707,-0.511765,-1.81835,
2026_07_06_21_53_51.569,3.872,46.5,0,0.771,0,0,0,0, ,0,0,0,0,0, ,-77.3,392.4,916.8,-0.9,-0.6,-1.8,25,-78.0172,392.053,917.309,-0.917567,-0.514095,-1.81723,
2026_07_06_21_53_51.593,3.872,46.6,0,0.772,0,0,0,0, ,0,0,0,0,0, ,-77.8,392.4,917.1,-0.8,-0.5,-1.8,25,-77.9887,392.074,917.287,-0.91345,-0.516283,-1.81618,
2026_07_06_21_53_51.609,3.872,46.6,0,0.771,0,0,0,0, ,0,0,0,0,0, ,-78.6,392.9,917.3,-0.8,-0.5,-1.7,25,-78.0016,392.11,917.282,-0.906537,-0.515291,-1.81215,
2026_07_06_21_53_51.629,3.872,46.5,0,0.771,0,0,0,0, ,0,0,0,0,0, ,-78.7,391.3,916.3,-0.9,-0.5,-1.9,25,-78.0411,392.109,917.252,-0.903091,-0.514359,-1.81141,
2026_07_06_21_53_51.648,3.872,46.6,0,0.771,0,0,0,0, ,0,0,0,0,0, ,-78.6,392.4,916,-0.9,-0.5,-1.8,25,-78.0782,392.093,917.185,-0.902903,-0.513484,-1.81376,
2026_07_06_21_53_51.668,3.872,46.5,0,0.77,0,0,0,0, ,0,0,0,0,0, ,-78.8,391.8,916.9,-0.9,-0.5,-1.8,25,-78.1161,392.094,917.14,-0.902726,-0.512662,-1.81292,
2026_07_06_21_53_51.688,3.872,46.5,0,0.772,0,0,0,0, ,0,0,0,0,0, ,-77.5,392.3,916.8,-1,-0.5,-1.9,25,-78.1182,392.091,917.123,-0.905607,-0.511891,-1.81518,
2026_07_06_21_53_51.707,3.872,46.5,0,0.772,0,0,0,0, ,0,0,0,0,0, ,-77.8,393.3,917.9,-0.9,-0.5,-1.9,25,-78.0896,392.134,917.136,-0.908312,-0.511166,-1.82035,
2026_07_06_21_53_51.728,3.872,46.5,0,0.77,0,0,0,0, ,0,0,0,0,0, ,-79.5,394.6,916,-0.9,-0.5,-1.8,25,-78.1238,392.245,917.125,-0.907806,-0.510486,-1.82216,
2026_07_06_21_53_51.747,3.872,46.5,0,0.771,0,0,0,0, ,0,0,0,0,0, ,-79.2,391.7,917.1,-0.9,-0.6,-1.8,25,-78.1985,392.3,917.09,-0.90733,-0.512893,-1.82081,
2026_07_06_21_53_51.767,3.872,46.5,0,0.771,0,0,0,0, ,0,0,0,0,0, ,-78.8,391.9,918.9,-0.9,-0.5,-1.8,25,-78.2473,392.269,917.145,-0.906883,-0.515155,-1.81954,
2026_07_06_21_53_51.787,3.872,46.5,0,0.771,0,0,0,0, ,0,0,0,0,0, ,-76.5,394.2,917.3,-0.8,-0.5,-1.8,25,-78.2109,392.317,917.204,-0.903417,-0.514231,-1.81835,
2026_07_06_21_53_51.806,3.872,46.5,0,0.771,0,0,0,0, ,0,0,0,0,0, ,-77.7,391.4,916.2,-0.7,-0.4,-1.8,25,-78.1432,392.346,917.176,-0.894068,-0.510317,-1.81723,
2026_07_06_21_53_51.827,3.872,46.5,0,0.771,0,0,0,0, ,0,0,0,0,0, ,-78.2,390.8,916.2,-1,-0.6,-1.8,25,-78.1315,392.271,917.117,-0.891383,-0.509688,-1.81618,
2026_07_06_21_53_51.847,3.872,46.5,0,0.771,0,0,0,0, ,0,0,0,0,0, ,-78.9,392.8,916.3,-1,-0.5,-1.9,25,-78.157,392.242,917.064,-0.898002,-0.512145,-1.81824,
2026_07_06_21_53_51.866,3.872,46.5,0,0.771,0,0,0,0, ,0,0,0,0,0, ,-77.1,390.7,916.6,-0.9,-0.5,-1.8,25,-78.1474,392.212,917.026,-0.90117,-0.511405,-1.82018,
2026_07_06_21_53_51.885,3.872,46.5,0,0.77,0,0,0,0, ,0,0,0,0,0, ,-78.7,391.4,916.8,-1,-0.5,-1.7,25,-78.1323,392.141,917.006,-0.904146,-0.51071,-1.8159,
2026_07_06_21_53_51.906,3.872,46.4,0,0.772,0,0,0,0, ,0,0,0,0,0, ,-77.8,392,916.9,-1.1,-0.5,-1.8,25,-78.1395,392.114,916.997,-0.913034,-0.510057,-1.81188,
2026_07_06_21_53_51.926,3.872,46.5,0,0.772,0,0,0,0, ,0,0,0,0,0, ,-77.2,392.3,916.8,-1,-0.5,-1.8,25,-78.1005,392.116,916.988,-0.92138,-0.509444,-1.81116,
2026_07_06_21_53_51.946,3.872,46.5,0,0.771,0,0,0,0, ,0,0,0,0,0, ,-76.9,392.5,917.4,-0.9,-0.6,-1.8,25,-78.0365,392.134,916.995,-0.923124,-0.511916,-1.81048,
2026_07_06_21_53_51.965,3.872,46.5,0,0.77,0,0,0,0, ,0,0,0,0,0, ,-79.1,391.6,916.6,-1,-0.5,-1.8,25,-78.0343,392.129,916.995,-0.924762,-0.514236,-1.80984,
2026_07_06_21_53_51.984,3.872,46.4,0,0.771,0,0,0,0, ,0,0,0,0,0, ,-77.6,390.8,917.6,-1,-0.5,-1.8,25,-78.0535,392.072,917.001,-0.929347,-0.513369,-1.80924,
2026_07_06_21_53_52.005,3.872,46.5,0,0.772,0,0,0,0, ,0,0,0,0,0, ,-78,392.5,917.3,-0.9,-0.5,-1.8,25,-78.0381,392.046,917.029,-0.930605,-0.512554,-1.80868,
2026_07_06_21_53_52.024,3.872,46.5,0,0.772,0,0,0,0, ,0,0,0,0,0, ,-77.3,393.5,917.3,-0.9,-0.5,-1.8,25,-78.0144,392.104,917.045,-0.92874,-0.511789,-1.80815,
2026_07_06_21_53_52.046,3.872,46.4,0,0.772,0,0,0,0, ,0,0,0,0,0, ,-78.1,393.6,916.6,-0.8,-0.5,-1.8,25,-77.9953,392.192,917.04,-0.923942,-0.511071,-1.80765,
2026_07_06_21_53_52.064,3.872,46.4,0,0.772,0,0,0,0, ,0,0,0,0,0, ,-78,391.3,916.8,-0.8,-0.5,-1.8,25,-77.9986,392.208,917.019,-0.916389,-0.510396,-1.80719,
2026_07_06_21_53_52.083,3.872,46.3,0,0.772,0,0,0,0, ,0,0,0,0,0, ,-79.3,391.9,917.8,-0.9,-0.5,-1.8,25,-78.0383,392.171,917.036,-0.912344,-0.509763,-1.80675,
2026_07_06_21_53_52.104,3.872,46.5,0,0.771,0,0,0,0, ,0,0,0,0,0, ,-76.6,392,916,-0.8,-0.6,-1.8,25,-78.0329,392.158,917.028,-0.908545,-0.512215,-1.80634,
2026_07_06_21_53_52.123,3.872,46.4,0,0.77,0,0,0,0, ,0,0,0,0,0, ,-78.1,390.9,917.7,-0.7,-0.5,-1.8,25,-77.9913,392.115,917.017,-0.898883,-0.514517,-1.80595,
2026_07_06_21_53_52.143,3.872,46.3,0,0.77,0,0,0,0, ,0,0,0,0,0, ,-78.4,393.4,916.8,-1,-0.6,-1.8,25,-78.0071,392.117,917.031,-0.895905,-0.516679,-1.80559,
2026_07_06_21_53_52.166,3.872,46.4,0,0.77,0,0,0,0, ,0,0,0,0,0, ,-78.2,392.9,917.6,-0.9,-0.4,-1.9,25,-78.0249,392.18,917.041,-0.899201,-0.515663,-1.80829,
2026_07_06_21_53_52.182,3.872,46.3,0,0.771,0,0,0,0, ,0,0,0,0,0, ,-78.4,392.4,916.2,-0.9,-0.5,-1.8,25,-78.0417,392.208,917.033,-0.89925,-0.511662,-1.81084,
2026_07_06_21_53_52.202,3.872,46.4,0,0.771,0,0,0,0, ,0,0,0,0,0, ,-77.5,391.1,916.7,-1,-0.5,-1.8,25,-78.0361,392.18,916.997,-0.902342,-0.510951,-1.81018,
2026_07_06_21_53_52.223,3.872,46.4,0,0.77,0,0,0,0, ,0,0,0,0,0, ,-77.3,391.9,917.6,-1,-0.5,-1.8,25,-77.9973,392.139,917.007,-0.908293,-0.510284,-1.80956,
2026_07_06_21_53_52.242,3.872,46.4,0,0.771,0,0,0,0, ,0,0,0,0,0, ,-78.9,391.9,917.1,-1,-0.4,-1.8,25,-78.0036,392.124,917.027,-0.913882,-0.50661,-1.80897,
2026_07_06_21_53_52.262,3.872,46.4,0,0.771,0,0,0,0, ,0,0,0,0,0, ,-77,392.3,917.3,-1,-0.6,-1.8,25,-78.0003,392.123,917.038,-0.919129,-0.506207,-1.80843,
2026_07_06_21_53_52.282,3.872,46.3,0,0.772,0,0,0,0, ,0,0,0,0,0, ,-78.4,393.3,917.3,-0.9,-0.6,-1.8,25,-77.982,392.164,917.054,-0.921011,-0.511923,-1.80791,
2026_07_06_21_53_52.302,3.872,46.3,0,0.772,0,0,0,0, ,0,0,0,0,0, ,-78.1,392.9,917.2,-1,-0.5,-1.9,25,-77.9984,392.221,917.066,-0.922777,-0.514243,-1.81048,
2026_07_06_21_53_52.321,3.872,46.3,0,0.77,0,0,0,0, ,0,0,0,0,0, ,-78.8,392.4,916.7,-0.8,-0.5,-1.8,25,-78.0259,392.247,917.059,-0.921389,-0.513375,-1.81289,
2026_07_06_21_53_52.341,3.872,46.3,0,0.77,0,0,0,0, ,0,0,0,0,0, ,-78,390.2,916.8,-0.9,-0.5,-1.8,25,-78.0487,392.19,917.04,-0.917039,-0.51256,-1.8121,
2026_07_06_21_53_52.361,3.872,46.3,0,0.771,0,0,0,0, ,0,0,0,0,0, ,-78.1,391.4,918.8,-1,-0.5,-1.8,25,-78.0488,392.105,917.086,-0.919047,-0.511795,-1.81136,
2026_07_06_21_53_52.381,3.872,46.4,0,0.771,0,0,0,0, ,0,0,0,0,0, ,-77.6,392,918.3,-0.9,-0.5,-1.8,25,-78.0366,392.08,917.176,-0.920934,-0.511076,-1.81067,
2026_07_06_21_53_52.401,3.872,46.3,0,0.771,0,0,0,0, ,0,0,0,0,0, ,-78.6,391.6,916.1,-0.9,-0.5,-1.8,25,-78.0405,392.063,917.177,-0.919658,-0.510401,-1.81002,
2026_07_06_21_53_52.421,3.872,46.3,0,0.771,0,0,0,0, ,0,0,0,0,0, ,-78.4,391.4,917.7,-1.1,-0.6,-1.8,25,-78.0685,392.029,917.16,-0.924554,-0.512814,-1.80941,
2026_07_06_21_53_52.440,3.872,46.2,0,0.77,0,0,0,0, ,0,0,0,0,0, ,-77.5,392.5,917.2,-0.9,-0.5,-1.8,25,-78.0613,392.024,917.178,-0.929151,-0.51508,-1.80884,
2026_07_06_21_53_52.460,3.872,46.3,0,0.772,0,0,0,0, ,0,0,0,0,0, ,-78.7,392.4,917.3,-0.9,-0.5,-1.8,25,-78.0636,392.05,917.182,-0.927375,-0.514161,-1.8083,
2026_07_06_21_53_52.479,3.872,46.3,0,0.771,0,0,0,0, ,0,0,0,0,0, ,-78.3,391.1,917.3,-1.1,-0.5,-1.9,25,-78.0902,392.032,917.189,-0.931801,-0.513298,-1.81084,
2026_07_06_21_53_52.501,3.872,46.3,0,0.771,0,0,0,0, ,0,0,0,0,0, ,-79.1,392.5,916.2,-1,-0.5,-1.8,25,-78.1274,392.018,917.163,-0.939003,-0.512488,-1.81323,
2026_07_06_21_53_52.519,3.872,46.4,0,0.771,0,0,0,0, ,0,0,0,0,0, ,-77.5,392.2,917.7,-0.9,-0.5,-1.8,25,-78.1379,392.038,917.15,-0.939673,-0.511727,-1.81242,
2026_07_06_21_53_52.539,3.872,46.3,0,0.771,0,0,0,0, ,0,0,0,0,0, ,-78.2,392.3,916.9,-0.9,-0.6,-1.9,25,-78.1204,392.051,917.159,-0.937256,-0.514059,-1.81471,
2026_07_06_21_53_52.559,3.872,46.3,0,0.771,0,0,0,0, ,0,0,0,0,0, ,-78.4,391.9,918.2,-0.8,-0.5,-1.8,25,-78.1313,392.054,917.183,-0.931939,-0.516249,-1.81686,
2026_07_06_21_53_52.578,3.872,46.3,0,0.772,0,0,0,0, ,0,0,0,0,0, ,-78.4,391.7,917.2,-0.9,-0.5,-1.9,25,-78.1477,392.038,917.214,-0.926946,-0.515259,-1.81888,
2026_07_06_21_53_52.598,3.872,46.3,0,0.77,0,0,0,0, ,0,0,0,0,0, ,-78.4,393.6,918.3,-0.8,-0.6,-1.9,25,-78.1631,392.076,917.247,-0.922257,-0.517376,-1.82382,
2026_07_06_21_53_52.618,3.872,46.4,0,0.772,0,0,0,0, ,0,0,0,0,0, ,-78.3,391.4,917.1,-0.6,-0.5,-1.8,25,-78.1745,392.101,917.274,-0.908713,-0.519364,-1.82542,
2026_07_06_21_53_52.638,3.872,46.2,0,0.772,0,0,0,0, ,0,0,0,0,0, ,-78.4,391.8,916.6,-0.8,-0.5,-1.8,25,-78.1851,392.071,917.249,-0.895994,-0.518184,-1.82387,
2026_07_06_21_53_52.658,3.872,46.3,0,0.771,0,0,0,0, ,0,0,0,0,0, ,-77.1,392,916.1,-0.9,-0.5,-1.8,25,-78.1586,392.06,917.194,-0.893192,-0.517076,-1.82241,
2026_07_06_21_53_52.678,3.872,46.3,0,0.77,0,0,0,0, ,0,0,0,0,0, ,-78.2,391.7,916.1,-0.7,-0.5,-1.8,25,-78.1276,392.048,917.127,-0.887513,-0.516036,-1.82105,
2026_07_06_21_53_52.698,3.872,46.3,0,0.771,0,0,0,0, ,0,0,0,0,0, ,-78,391.9,917.7,-0.8,-0.5,-1.8,25,-78.126,392.033,917.113,-0.879133,-0.515058,-1.81977,
2026_07_06_21_53_52.717,3.872,46.3,0,0.772,0,0,0,0, ,0,0,0,0,0, ,-78.2,391.4,916.8,-1,-0.5,-1.9,25,-78.1244,392.009,917.122,-0.880405,-0.514141,-1.82161,
2026_07_06_21_53_52.737,3.872,46.3,0,0.771,0,0,0,0, ,0,0,0,0,0, ,-77.2,392.8,916.8,-1,-0.5,-1.9,25,-78.0985,392.015,917.102,-0.887693,-0.513279,-1.82639,
2026_07_06_21_53_52.757,3.872,46.3,0,0.771,0,0,0,0, ,0,0,0,0,0, ,-78.7,392.2,917.3,-0.8,-0.5,-1.9,25,-78.0895,392.044,917.099,-0.888443,-0.51247,-1.83087,
2026_07_06_21_53_52.777,3.872,46.2,0,0.772,0,0,0,0, ,0,0,0,0,0, ,-77.7,391.4,918.3,-0.9,-0.5,-1.8,25,-78.0962,392.029,917.142,-0.8861,-0.51171,-1.83204,
2026_07_06_21_53_52.797,3.872,46.2,0,0.77,0,0,0,0, ,0,0,0,0,0, ,-78.8,393.3,917.6,-1,-0.5,-1.8,25,-78.1056,392.049,917.191,-0.889994,-0.510996,-1.83008,
2026_07_06_21_53_52.817,3.872,46.2,0,0.77,0,0,0,0, ,0,0,0,0,0, ,-77.8,393.5,917.7,-0.9,-0.6,-1.8,25,-78.1174,392.131,917.219,-0.89365,-0.513373,-1.82825,
2026_07_06_21_53_52.836,3.872,46.3,0,0.771,0,0,0,0, ,0,0,0,0,0, ,-78.1,393.6,918.4,-0.9,-0.5,-1.8,25,-78.1072,392.218,917.269,-0.894037,-0.515605,-1.82653,
2026_07_06_21_53_52.856,3.872,46.2,0,0.772,0,0,0,0, ,0,0,0,0,0, ,-77.7,392.3,916.8,-0.9,-0.6,-1.8,25,-78.0946,392.262,917.29,-0.894401,-0.517701,-1.82491,
2026_07_06_21_53_52.876,3.872,46.3,0,0.771,0,0,0,0, ,0,0,0,0,0, ,-78.4,392.7,917.7,-0.9,-0.5,-1.9,25,-78.0919,392.277,917.287,-0.894742,-0.519669,-1.82644,
2026_07_06_21_53_52.896,3.872,46.2,0,0.774,0,0,0,0, ,0,0,0,0,0, ,-77.5,392.3,917.1,-1,-0.5,-1.8,25,-78.0832,392.29,917.294,-0.898109,-0.518471,-1.82788,
2026_07_06_21_53_52.915,3.872,46.2,0,0.771,0,0,0,0, ,0,0,0,0,0, ,-78.1,393.1,918,-0.9,-0.6,-1.9,25,-78.066,392.315,917.31,-0.901271,-0.520392,-1.82923,
2026_07_06_21_53_52.935,3.872,46.2,0,0.771,0,0,0,0, ,0,0,0,0,0, ,-78.2,392,917.4,-0.8,-0.5,-1.8,25,-78.0711,392.33,917.333,-0.898147,-0.522196,-1.83049,
2026_07_06_21_53_52.961,3.872,46.2,0,0.77,0,0,0,0, ,0,0,0,0,0, ,-78.2,391.2,918.5,-0.9,-0.6,-1.9,25,-78.0789,392.285,917.371,-0.895213,-0.523891,-1.83168,
2026_07_06_21_53_52.975,3.872,46.1,0,0.77,0,0,0,0, ,0,0,0,0,0, ,-78.2,392.4,916,-0.7,-0.5,-1.8,25,-78.0863,392.256,917.364,-0.889411,-0.525482,-1.8328,
2026_07_06_21_53_52.995,3.872,46.2,0,0.771,0,0,0,0, ,0,0,0,0,0, ,-77.5,391.8,917.1,-0.7,-0.5,-1.8,25,-78.0719,392.246,917.314,-0.877869,-0.523929,-1.8308,
2026_07_06_21_53_53.014,3.872,46.1,0,0.771,0,0,0,0, ,0,0,0,0,0, ,-77.5,392.7,917.1,-0.9,-0.5,-1.8,25,-78.0371,392.246,917.301,-0.873124,-0.522471,-1.82892,
2026_07_06_21_53_53.033,3.872,46.2,0,0.77,0,0,0,0, ,0,0,0,0,0, ,-78.4,392,916.7,-0.8,-0.5,-1.8,25,-78.0318,392.253,917.277,-0.871715,-0.521101,-1.82716,
2026_07_06_21_53_53.053,3.872,46.2,0,0.771,0,0,0,0, ,0,0,0,0,0, ,-78,392.2,917.2,-0.8,-0.5,-1.9,25,-78.042,392.243,917.257,-0.867344,-0.519815,-1.82855,
2026_07_06_21_53_53.074,3.872,46.1,0,0.772,0,0,0,0, ,0,0,0,0,0, ,-78.1,392.8,917.2,-0.9,-0.6,-1.8,25,-78.0425,392.259,917.253,-0.866287,-0.521655,-1.82986,
2026_07_06_21_53_53.094,3.872,46.2,0,0.771,0,0,0,0, ,0,0,0,0,0, ,-76.9,393.5,917.6,-1,-0.5,-1.8,25,-78.0094,392.313,917.262,-0.871389,-0.523382,-1.82804,
2026_07_06_21_53_53.113,3.872,46.1,0,0.771,0,0,0,0, ,0,0,0,0,0, ,-77.5,392.2,916.2,-0.8,-0.6,-1.8,25,-77.9601,392.346,917.24,-0.873132,-0.525004,-1.82633,
2026_07_06_21_53_53.134,3.872,46.2,0,0.771,0,0,0,0, ,0,0,0,0,0, ,-78.1,393,917.8,-0.9,-0.5,-1.8,25,-77.9504,392.362,917.225,-0.871723,-0.526527,-1.82473,
2026_07_06_21_53_53.153,3.872,46.1,0,0.771,0,0,0,0, ,0,0,0,0,0, ,-77.7,390.2,916.6,-0.8,-0.5,-1.8,25,-77.9473,392.315,917.224,-0.870399,-0.524911,-1.82322,
2026_07_06_21_53_53.174,3.872,46.2,0,0.77,0,0,0,0, ,0,0,0,0,0, ,-78.3,392.7,917.8,-0.9,-0.6,-1.9,25,-77.9505,392.262,917.222,-0.869156,-0.52644,-1.82485,
2026_07_06_21_53_53.193,3.872,46.1,0,0.772,0,0,0,0, ,0,0,0,0,0, ,-79.1,391.9,915.5,-0.7,-0.5,-1.8,25,-77.9962,392.265,917.188,-0.864942,-0.527875,-1.82638,
2026_07_06_21_53_53.212,3.872,46.1,0,0.771,0,0,0,0, ,0,0,0,0,0, ,-78,390.9,917.9,-0.7,-0.5,-1.8,25,-78.0299,392.212,917.158,-0.854891,-0.526177,-1.82478,
2026_07_06_21_53_53.231,3.872,46.1,0,0.771,0,0,0,0, ,0,0,0,0,0, ,-77.3,391.1,916.2,-1.1,-0.5,-1.8,25,-78.0068,392.138,917.151,-0.857639,-0.524582,-1.82327,
2026_07_06_21_53_53.251,3.872,46.2,0,0.77,0,0,0,0, ,0,0,0,0,0, ,-79.4,391.9,917.3,-0.8,-0.5,-1.9,25,-78.0277,392.099,917.127,-0.863268,-0.523084,-1.82489,
2026_07_06_21_53_53.273,3.872,46.1,0,0.77,0,0,0,0, ,0,0,0,0,0, ,-77.8,392.3,916.3,-1,-0.6,-1.8,25,-78.0626,392.099,917.107,-0.865506,-0.524724,-1.82642,
2026_07_06_21_53_53.291,3.872,46.1,0,0.771,0,0,0,0, ,0,0,0,0,0, ,-77.1,391.4,917.4,-1,-0.5,-1.8,25,-78.0252,392.084,917.091,-0.873702,-0.526264,-1.82481,
2026_07_06_21_53_53.311,3.872,46.1,0,0.771,0,0,0,0, ,0,0,0,0,0, ,-78,391.8,915.5,-1,-0.5,-1.9,25,-77.9963,392.055,917.052,-0.881398,-0.524664,-1.82635,
2026_07_06_21_53_53.330,3.872,46.2,0,0.77,0,0,0,0, ,0,0,0,0,0, ,-78.1,391.8,916.7,-1,-0.5,-1.8,25,-77.9995,392.039,916.994,-0.888625,-0.523161,-1.82779,
2026_07_06_21_53_53.351,3.872,46.1,0,0.771,0,0,0,0, ,0,0,0,0,0, ,-78.9,393.4,917.3,-0.9,-0.6,-1.8,25,-78.03,392.073,916.995,-0.892365,-0.524796,-1.8261,
2026_07_06_21_53_53.371,3.872,46.1,0,0.771,0,0,0,0, ,0,0,0,0,0, ,-77.7,392.8,916.7,-1,-0.6,-1.8,25,-78.0465,392.136,916.995,-0.895877,-0.529379,-1.82451,
2026_07_06_21_53_53.391,3.872,46.2,0,0.771,0,0,0,0, ,0,0,0,0,0, ,-78.4,392.8,916.7,-1,-0.5,-1.8,25,-78.0467,392.176,916.977,-0.902222,-0.530636,-1.82301,
2026_07_06_21_53_53.411,3.872,46.1,0,0.771,0,0,0,0, ,0,0,0,0,0, ,-78.2,392.5,917.7,-0.9,-0.5,-1.8,25,-78.0621,392.205,916.99,-0.905134,-0.528769,-1.82161,
2026_07_06_21_53_53.430,3.872,46.1,0,0.77,0,0,0,0, ,0,0,0,0,0, ,-78.4,392.9,917.7,-0.9,-0.6,-1.9,25,-78.0766,392.235,917.034,-0.904821,-0.530062,-1.82334,
2026_07_06_21_53_53.450,3.872,46.1,0,0.773,0,0,0,0, ,0,0,0,0,0, ,-78.6,393.5,915.6,-0.9,-0.5,-1.8,25,-78.1024,392.294,917.01,-0.904527,-0.531277,-1.82497,
2026_07_06_21_53_53.470,3.872,46.2,0,0.771,0,0,0,0, ,0,0,0,0,0, ,-78.9,393.5,917.1,-1,-0.5,-1.8,25,-78.1419,392.368,916.97,-0.907298,-0.529371,-1.82344,
2026_07_06_21_53_53.489,3.872,46.1,0,0.771,0,0,0,0, ,0,0,0,0,0, ,-76.9,393.3,917.1,-0.8,-0.5,-1.9,25,-78.1272,392.431,916.978,-0.906853,-0.527582,-1.82506,
2026_07_06_21_53_53.509,3.872,46,0,0.769,0,0,0,0, ,0,0,0,0,0, ,-78.9,392.4,916.5,-0.8,-0.5,-1.8,25,-78.1133,392.456,916.967,-0.900342,-0.525901,-1.82658,
2026_07_06_21_53_53.529,3.872,46.1,0,0.772,0,0,0,0, ,0,0,0,0,0, ,-78.2,392.2,916.3,-0.9,-0.5,-1.8,25,-78.1399,392.447,916.933,-0.897274,-0.524323,-1.82496,
2026_07_06_21_53_53.549,3.872,46,0,0.77,0,0,0,0, ,0,0,0,0,0, ,-78.3,392.4,916.7,-0.9,-0.5,-1.9,25,-78.1466,392.438,916.906,-0.89744,-0.52284,-1.82649,
2026_07_06_21_53_53.569,3.872,46.1,0,0.771,0,0,0,0, ,0,0,0,0,0, ,-78.8,391.7,917.6,-0.8,-0.6,-1.8,25,-78.1712,392.414,916.921,-0.89455,-0.524495,-1.82792,
2026_07_06_21_53_53.589,3.872,46.1,0,0.771,0,0,0,0, ,0,0,0,0,0, ,-77.3,392.5,918.2,-0.8,-0.5,-1.8,25,-78.1638,392.395,916.981,-0.888788,-0.52605,-1.82622,
2026_07_06_21_53_53.609,3.872,46.1,0,0.77,0,0,0,0, ,0,0,0,0,0, ,-78.2,392.4,917.4,-1,-0.5,-1.8,25,-78.1386,392.398,917.031,-0.889471,-0.524462,-1.82462,
2026_07_06_21_53_53.629,3.872,46.1,0,0.77,0,0,0,0, ,0,0,0,0,0, ,-78.3,393.1,916.6,-0.9,-0.5,-1.8,25,-78.1454,392.42,917.029,-0.89316,-0.522972,-1.82312,
2026_07_06_21_53_53.647,3.872,46.1,0,0.771,0,0,0,0, ,0,0,0,0,0, ,-78.3,392.3,917.9,-0.9,-0.5,-1.8,25,-78.1548,392.437,917.042,-0.893576,-0.521572,-1.82171,
2026_07_06_21_53_53.668,3.872,46.1,0,0.771,0,0,0,0, ,0,0,0,0,0, ,-78.7,392.9,916.8,-1,-0.5,-1.8,25,-78.1759,392.447,917.061,-0.897015,-0.520257,-1.82039,
2026_07_06_21_53_53.687,3.872,46.1,0,0.77,0,0,0,0, ,0,0,0,0,0, ,-77.5,391.7,916.8,-1,-0.5,-1.8,25,-78.1712,392.438,917.045,-0.90329,-0.519023,-1.81915,
2026_07_06_21_53_53.707,3.872,46,0,0.769,0,0,0,0, ,0,0,0,0,0, ,-79.3,391.8,916.1,-0.8,-0.5,-1.8,25,-78.1852,392.396,917.009,-0.90309,-0.517864,-1.81798,
2026_07_06_21_53_53.727,3.872,46.1,0,0.771,0,0,0,0, ,0,0,0,0,0, ,-78.1,391.8,916.6,-0.9,-0.5,-1.8,25,-78.2165,392.36,916.969,-0.899855,-0.516775,-1.81688,
2026_07_06_21_53_53.747,3.872,46.1,0,0.771,0,0,0,0, ,0,0,0,0,0, ,-95.4,304.5,881.4,-3.9,-1.6,0.8,25,-78.7366,389.666,915.874,-0.99127,-0.549268,-1.73664,
2026_07_06_21_53_53.767,3.872,45.9,0,0.77,0,0,0,0, ,0,0,0,0,0, ,-83.4,150.7,911.7,-75.8,-1.1,-3.8,25,-79.3864,379.79,914.696,-3.35922,-0.598063,-1.72222,
2026_07_06_21_53_53.787,3.872,46.1,0,0.77,0,0,0,0, ,0,0,0,0,0, ,-95,429.4,847.5,-61.7,-2.4,-3,25,-79.9844,374.321,912.558,-7.34397,-0.668259,-1.82446,
2026_07_06_21_53_53.806,3.872,46,0,0.77,0,0,0,0, ,0,0,0,0,0, ,-69.4,322.3,911,-213,-0.7,0.9,25,-80.1194,374.414,910.528,-15.2662,-0.72199,-1.77726,
2026_07_06_21_53_53.825,3.872,46,0,0.77,0,0,0,0, ,0,0,0,0,0, ,-72.5,255.7,953.7,-28.6,9,29.7,25,-79.5606,369.209,911.858,-21.6972,-0.425103,-0.736617,
2026_07_06_21_53_53.845,3.872,46,0,0.77,0,0,0,0, ,0,0,0,0,0, ,-79.7,175.5,981.5,-17.6,6.3,22.1,25,-79.3497,359.849,915.254,-21.7827,0.0669732,0.886551,
2026_07_06_21_53_53.866,3.872,46,0,0.77,0,0,0,0, ,0,0,0,0,0, ,-98.7,134.1,1032.4,30.7,4,12.8,25,-79.95,347.354,920.842,-20.0561,0.37672,1.89589,
2026_07_06_21_53_53.886,3.872,46,0,0.773,0,0,0,0, ,0,0,0,0,0, ,-87.4,299,966.7,-8.4,-0.4,-1.4,25,-80.7483,339.383,925.638,-18.1545,0.463451,2.1277,
2026_07_06_21_53_53.905,3.872,46.1,0,0.773,0,0,0,0, ,0,0,0,0,0, ,-76,290.8,959.1,3.4,-0.4,-1.6,25,-80.8063,336.672,927.909,-17.2006,0.410835,1.90664,
2026_07_06_21_53_53.925,3.872,46,0,0.772,0,0,0,0, ,0,0,0,0,0, ,-77.8,265.1,958,-1.3,-0.5,-1.9,25,-80.5682,333.094,929.776,-16.0884,0.358378,1.68381,
2026_07_06_21_53_53.946,3.872,46.1,0,0.773,0,0,0,0, ,0,0,0,0,0, ,-77.8,287.5,957.2,-2.9,-0.6,-1.9,25,-80.3995,329.633,931.472,-15.236,0.303023,1.46542,
2026_07_06_21_53_53.964,3.872,46,0,0.772,0,0,0,0, ,0,0,0,0,0, ,-77.5,294.6,956.6,0.6,-0.5,-1.6,25,-80.232,327.282,933.021,-14.3776,0.251042,1.26948,
2026_07_06_21_53_53.984,3.872,46,0,0.77,0,0,0,0, ,0,0,0,0,0, ,-78,282.1,957.2,1.2,-0.5,-1.4,25,-80.0807,324.909,934.476,-13.4467,0.205276,1.10072,
2026_07_06_21_53_54.004,3.872,46,0,0.772,0,0,0,0, ,0,0,0,0,0, ,-77.3,284.3,955.5,-2.3,-0.5,-1.7,25,-79.9326,322.368,935.809,-12.6608,0.162298,0.939189,
2026_07_06_21_53_54.021,3.872,45.9,0,0.772,0,0,0,0, ,0,0,0,0,0, ,-77.1,288.6,956,-2,-0.5,-1.8,25,-79.7661,320.179,937.024,-12.0203,0.121939,0.775316,
2026_07_06_21_53_54.044,3.872,46,0,0.769,0,0,0,0, ,0,0,0,0,0, ,-77.5,281.9,956.9,-0.1,-0.4,-1.3,25,-79.6158,318.05,938.208,-11.3518,0.0870866,0.633617,
2026_07_06_21_53_54.064,3.872,46,0,0.77,0,0,0,0, ,0,0,0,0,0, ,-85.3,278.8,969.4,22.4,1.3,4.8,25,-79.7246,315.753,939.728,-9.98057,0.109202,0.701647,
2026_07_06_21_53_54.083,3.872,46.1,0,0.772,0,0,0,0, ,0,0,0,0,0, ,-76.9,270.5,955.8,-3.3,-0.5,-1.8,25,-79.8084,313.248,941.122,-8.79042,0.126922,0.750297,
2026_07_06_21_53_54.103,3.872,46,0,0.772,0,0,0,0, ,0,0,0,0,0, ,-76.9,296,953.9,0.8,-0.1,-0.8,25,-79.6311,311.42,941.958,-8.33093,0.100907,0.625357,
2026_07_06_21_53_54.123,3.872,46,0,0.77,0,0,0,0, ,0,0,0,0,0, ,-77.5,295.2,954.7,0.2,-0.5,-1.8,25,-79.483,310.456,942.71,-7.79279,0.0764763,0.50803,
2026_07_06_21_53_54.142,3.872,46,0,0.77,0,0,0,0, ,0,0,0,0,0, ,-76.1,291.5,954.1,-0.3,-0.6,-1.9,25,-79.3195,309.414,943.423,-7.32097,0.0383004,0.364338,
2026_07_06_21_53_54.162,3.872,45.9,0,0.772,0,0,0,0, ,0,0,0,0,0, ,-78,293.7,954.1,-2.2,-0.5,-2,25,-79.1812,308.389,944.073,-6.95102,0.00245086,0.223308,
2026_07_06_21_53_54.182,3.872,46,0,0.772,0,0,0,0, ,0,0,0,0,0, ,-77.6,293.3,953.7,-2.2,-0.5,-1.9,25,-79.097,307.482,944.672,-6.6615,-0.0281672,0.090872,
2026_07_06_21_53_54.202,3.872,45.9,0,0.772,0,0,0,0, ,0,0,0,0,0, ,-77.8,290.2,955.9,-1.6,-0.5,-1.8,25,-79.0119,306.523,945.289,-6.37135,-0.0569195,-0.0273999,
2026_07_06_21_53_54.222,3.872,45.9,0,0.773,0,0,0,0, ,0,0,0,0,0, ,-77.8,289.9,956.2,0.3,-0.3,-1.3,25,-78.9381,305.519,945.945,-6.0227,-0.077826,-0.120183,
2026_07_06_21_53_54.242,3.872,45.9,0,0.772,0,0,0,0, ,0,0,0,0,0, ,-78,288.6,954.5,-0.9,-0.5,-1.8,25,-78.8748,304.528,946.518,-5.67398,-0.0974585,-0.207313,
2026_07_06_21_53_54.262,3.872,45.9,0,0.773,0,0,0,0, ,0,0,0,0,0, ,-77,292.2,953.2,-0.6,-0.4,-1.9,25,-78.791,303.667,946.965,-5.37392,-0.118941,-0.307414,
2026_07_06_21_53_54.284,3.872,45.9,0,0.772,0,0,0,0, ,0,0,0,0,0, ,-78.2,291.6,955.4,-0.4,-0.5,-1.8,25,-78.7184,302.95,947.412,-5.07692,-0.139115,-0.401415,
2026_07_06_21_53_54.301,3.872,46,0,0.77,0,0,0,0, ,0,0,0,0,0, ,-77.5,292.9,953.7,-0.9,-0.5,-1.8,25,-78.6655,302.298,947.847,-4.80715,-0.161107,-0.486642,
2026_07_06_21_53_54.321,3.872,45.9,0,0.771,0,0,0,0, ,0,0,0,0,0, ,-83.2,257.9,960.9,29.9,0.6,1.1,25,-78.7682,300.659,948.423,-3.63062,-0.148242,-0.478315,
2026_07_06_21_53_54.340,3.872,46,0,0.772,0,0,0,0, ,0,0,0,0,0, ,-80.8,306.3,953.8,26.5,0.6,1.9,25,-78.9651,299.528,948.967,-1.69094,-0.102646,-0.357761,
2026_07_06_21_53_54.360,3.872,46,0,0.772,0,0,0,0, ,0,0,0,0,0, ,-72.9,329.3,948.7,17.1,1.9,4.9,25,-78.8362,300.641,949.106,-0.259465,-0.0202195,-0.128773,
2026_07_06_21_53_54.380,3.872,45.9,0,0.772,0,0,0,0, ,0,0,0,0,0, ,-89.5,335,939.8,25.7,3.6,10.9,25,-78.9803,302.561,948.81,1.06041,0.148591,0.36048,
2026_07_06_21_53_54.400,3.872,46,0,0.772,0,0,0,0, ,0,0,0,0,0, ,-141.8,301.7,942.5,22,1.9,8.1,25,-81.2148,303.524,948.343,2.44915,0.307114,0.91742,
2026_07_06_21_53_54.419,3.872,46,0,0.77,0,0,0,0, ,0,0,0,0,0, ,-102.2,310,943.8,22.8,0.8,3.6,25,-83.7002,303.665,948.027,3.6649,0.370665,1.218,
2026_07_06_21_53_54.440,3.872,45.9,0,0.769,0,0,0,0, ,0,0,0,0,0, ,-252.5,258.1,941.6,70.4,1.3,5.3,25,-89.407,302.47,947.702,6.28126,0.412062,1.41495,
2026_07_06_21_53_54.460,3.872,45.9,0,0.772,0,0,0,0, ,0,0,0,0,0, ,-62.6,421.5,1043.2,22.5,-14.5,1.2,25,-93.5594,304.745,950.426,8.72904,-0.0152356,1.52677,
2026_07_06_21_53_54.479,3.872,45.9,0,0.77,0,0,0,0, ,0,0,0,0,0, ,150.8,334.5,1016.4,6.9,-41.1,-9.2,25,-85.1708,309.209,955.263,9.0929,-1.70837,1.18998,
2026_07_06_21_53_54.499,3.872,45.9,0,0.772,0,0,0,0, ,0,0,0,0,0, ,-113,445.9,1012.9,16.5,-52.4,2.9,25,-78.829,314.144,958.882,9.25177,-4.45309,0.925517,
2026_07_06_21_53_54.519,3.872,45.9,0,0.771,0,0,0,0, ,0,0,0,0,0, ,16.8,522,1011.4,17.4,-75,28.2,25,-76.9564,324.492,962.128,9.72088,-8.06345,1.8167,
2026_07_06_21_53_54.539,3.872,45.8,0,0.772,0,0,0,0, ,0,0,0,0,0, ,-39.9,366.4,968.1,-4.5,-84.9,45.8,25,-72.9707,331.786,963.811,9.52156,-12.444,3.96068,
2026_07_06_21_53_54.559,3.872,45.8,0,0.772,0,0,0,0, ,0,0,0,0,0, ,-62.6,302.2,942.3,-24.6,-89.1,34.8,25,-71.6471,331.94,963.286,8.0547,-16.9873,6.17511,
2026_07_06_21_53_54.579,3.872,45.9,0,0.773,0,0,0,0, ,0,0,0,0,0, ,65.6,380.4,934.4,-1.4,-98.3,16.2,25,-67.1897,332.51,961.767,6.77168,-21.662,7.35272,
2026_07_06_21_53_54.598,3.872,45.9,0,0.772,0,0,0,0, ,0,0,0,0,0, ,177.6,419.5,935.7,-7,-103.4,6.8,25,-55.6854,336.62,960.139,6.10309,-26.4875,7.60544,
2026_07_06_21_53_54.618,3.872,45.9,0,0.77,0,0,0,0, ,0,0,0,0,0, ,71.4,554.3,862.6,-2.3,-82.7,13.8,25,-44.7053,345.777,956.422,5.44783,-30.5436,7.76964,
2026_07_06_21_53_54.638,3.872,45.9,0,0.772,0,0,0,0, ,0,0,0,0,0, ,164.1,441.8,875,3.7,-51.9,16.1,25,-34.8057,355.056,951.083,5.15851,-32.7835,8.20719,
2026_07_06_21_53_54.657,3.872,45.9,0,0.77,0,0,0,0, ,0,0,0,0,0, ,112.3,265.1,940.4,-17.5,-37,-4.3,25,-24.2632,354.959,948.439,4.42369,-33.4944,8.0666,
2026_07_06_21_53_54.677,3.872,45.9,0,0.769,0,0,0,0, ,0,0,0,0,0, ,117,257.4,907.7,-18.4,-25.5,-21.7,25,-15.7981,349.248,946.953,3.06029,-33.3576,6.78285,
2026_07_06_21_53_54.697,3.872,45.8,0,0.771,0,0,0,0, ,0,0,0,0,0, ,203.7,331,865.7,-0.3,-15.8,-37.1,25,-5.06411,345.894,943.281,2.30404,-32.5833,4.57796,
2026_07_06_21_53_54.718,3.872,45.9,0,0.772,0,0,0,0, ,0,0,0,0,0, ,201.1,368.8,878.7,-5.5,-12.5,-40.7,25,7.57823,346.138,938.95,1.98692,-31.46,1.92852,
2026_07_06_21_53_54.736,3.872,45.8,0,0.77,0,0,0,0, ,0,0,0,0,0, ,192.5,342.7,907.2,-4.5,-15.7,-30.9,25,19.1089,346.724,936.147,1.56115,-30.4021,-0.370558,
2026_07_06_21_53_54.756,3.872,45.8,0,0.772,0,0,0,0, ,0,0,0,0,0, ,198.4,320.1,949.5,-0.7,-27.9,-22.7,25,29.8547,345.79,935.672,1.30758,-29.8779,-1.9811,
2026_07_06_21_53_54.780,3.872,45.9,0,0.772,0,0,0,0, ,0,0,0,0,0, ,225.8,397.8,981.5,4.7,-48,-24.5,25,40.9603,346.592,937.489,1.34978,-30.3698,-3.2985,
2026_07_06_21_53_54.796,3.872,45.9,0,0.772,0,0,0,0, ,0,0,0,0,0, ,220.4,504,969.1,-24.2,-63.2,-22.7,25,52.0594,352.948,939.793,0.673386,-31.9073,-4.53563,
2026_07_06_21_53_54.816,3.872,45.8,0,0.773,0,0,0,0, ,0,0,0,0,0, ,166.7,363.7,994.9,-48.8,-73.5,-24.3,25,60.6815,357.878,942.365,-1.59187,-34.128,-5.69127,
2026_07_06_21_53_54.836,3.872,45.8,0,0.772,0,0,0,0, ,0,0,0,0,0, ,197.2,325.3,905,-54.2,-69.4,-31.2,25,68.0713,357.063,942.827,-4.63314,-36.4023,-7.03547,
2026_07_06_21_53_54.856,3.872,45.8,0,0.769,0,0,0,0, ,0,0,0,0,0, ,213.1,365.7,822.1,-23.7,-81.5,-39.1,25,76.4245,356.358,937.996,-6.72433,-38.7818,-8.7487,
2026_07_06_21_53_54.875,3.872,45.8,0,0.77,0,0,0,0, ,0,0,0,0,0, ,210.6,409.6,1010.6,-42.5,-144.3,-47.8,25,84.677,358.265,936.677,-8.33159,-43.2984,-10.8633,
2026_07_06_21_53_54.895,3.872,45.7,0,0.769,0,0,0,0, ,0,0,0,0,0, ,357.7,327.3,1000.6,-52.4,-172,-34.8,25,96.8324,358.886,940.877,-10.7154,-50.2971,-12.718,
2026_07_06_21_53_54.915,3.872,45.8,0,0.772,0,0,0,0, ,0,0,0,0,0, ,404.6,277.8,907.7,-89.4,-150.9,-6,25,114.158,355.453,941.686,-14.3829,-57.0705,-13.1862,
2026_07_06_21_53_54.935,3.872,45.8,0,0.77,0,0,0,0, ,0,0,0,0,0, ,444.5,298.3,882.6,-123.7,-103,29.3,25,133.073,351.345,938.85,-19.9993,-61.3288,-11.6727,
2026_07_06_21_53_54.958,3.872,45.8,0,0.769,0,0,0,0, ,0,0,0,0,0, ,468.2,355.4,840,-155.7,-67.1,16.5,25,152.772,349.853,934.125,-27.2936,-62.7743,-9.56594,
2026_07_06_21_53_54.974,3.872,45.8,0,0.771,0,0,0,0, ,0,0,0,0,0, ,398.6,192.1,783,-153.9,-105,4.9,25,169.873,345.215,926.652,-35.0635,-64.1927,-8.33098,
2026_07_06_21_53_54.994,3.872,45.8,0,0.77,0,0,0,0, ,0,0,0,0,0, ,592,111.2,779.7,-94,-109.2,-7.9,25,189.704,333.42,917.798,-40.48,-66.8073,-7.91472,
2026_07_06_21_53_55.014,3.872,45.8,0,0.77,0,0,0,0, ,0,0,0,0,0, ,540.2,149.1,847.2,-81.4,-92.5,-20.1,25,212.64,321.033,911.439,-43.3575,-68.8818,-8.28554,
2026_07_06_21_53_55.034,3.872,45.8,0,0.77,0,0,0,0, ,0,0,0,0,0, ,522.7,124,850.9,-76.3,-82.5,-8.8,25,232.068,309.791,907.637,-45.5203,-70.0164,-8.66119,
2026_07_06_21_53_55.054,3.872,45.8,0,0.77,0,0,0,0, ,0,0,0,0,0, ,557.9,100.9,719.8,-79.7,-75.7,0.7,25,250.851,297.766,900.185,-47.4995,-70.5699,-8.38019,
2026_07_06_21_53_55.074,3.872,45.7,0,0.773,0,0,0,0, ,0,0,0,0,0, ,603.2,135.8,720.7,-84.3,-78.6,2.2,25,270.942,286.832,889.221,-49.6019,-70.9709,-7.78117,
2026_07_06_21_53_55.093,3.872,45.7,0,0.772,0,0,0,0, ,0,0,0,0,0, ,601.9,55.7,708.2,-87.3,-78.8,7,25,291.149,275.188,878.571,-51.8077,-71.4419,-7.02669,
2026_07_06_21_53_55.113,3.872,45.7,0,0.772,0,0,0,0, ,0,0,0,0,0, ,617.3,-4.5,708.2,-67,-61.6,17.1,25,310.555,259.979,868.189,-53.352,-71.3662,-5.8642,
2026_07_06_21_53_55.132,3.872,45.8,0,0.772,0,0,0,0, ,0,0,0,0,0, ,646.6,-31,707.1,-51.9,-111.6,11.2,25,330.14,243.055,858.406,-53.7236,-72.2945,-4.64459,
2026_07_06_21_53_55.153,3.872,45.7,0,0.772,0,0,0,0, ,0,0,0,0,0, ,621.4,9.2,654.7,-28.7,-155.5,13.6,25,348.656,227.58,847.589,-52.9056,-76.0272,-3.60593,
2026_07_06_21_53_55.173,3.872,45.7,0,0.77,0,0,0,0, ,0,0,0,0,0, ,630.7,-17.7,651,-17.6,-144.9,10.7,25,365.56,213.453,835.722,-51.0924,-80.5472,-2.64581,
2026_07_06_21_53_55.192,3.872,45.7,0,0.773,0,0,0,0, ,0,0,0,0,0, ,757.9,-30.2,605.5,-9,-94,16.1,25,385.593,198.986,823.079,-48.7894,-82.9178,-1.66801,
2026_07_06_21_53_55.212,3.872,45.7,0,0.772,0,0,0,0, ,0,0,0,0,0, ,799.6,-51.2,603.3,-1.1,-66.2,18.3,25,409.551,184.38,809.754,-46.124,-82.7461,-0.518245,
2026_07_06_21_53_55.231,3.872,45.7,0,0.772,0,0,0,0, ,0,0,0,0,0, ,741.6,-54.8,573.2,-9,-96.2,26.1,25,431.552,169.915,796.256,-43.6211,-82.6519,0.866148,
2026_07_06_21_53_55.252,3.872,45.7,0,0.77,0,0,0,0, ,0,0,0,0,0, ,700.6,-49.3,477.9,-6,-115.1,20.1,25,449.196,156.389,779.76,-41.42,-84.0533,2.22102,
2026_07_06_21_53_55.271,3.872,45.7,0,0.77,0,0,0,0, ,0,0,0,0,0, ,601.9,31.3,419.7,25.9,-118.9,-8.5,25,461.509,146.31,759.592,-38.2896,-86.061,2.43912,
2026_07_06_21_53_55.291,3.872,45.7,0,0.77,0,0,0,0, ,0,0,0,0,0, ,677.1,49.6,448.2,53.3,-172.1,-28.5,25,472.355,139.859,739.748,-33.5432,-89.6831,1.16314,
2026_07_06_21_53_55.311,3.872,45.7,0,0.772,0,0,0,0, ,0,0,0,0,0, ,846.4,-36.6,350,72.7,-200.2,-12.2,25,489.99,131.733,718.99,-27.6601,-95.5615,-0.147817,
2026_07_06_21_53_55.331,3.872,45.7,0,0.77,0,0,0,0, ,0,0,0,0,0, ,885.3,-174.4,636.5,54.6,-174.4,-9,25,512.894,117.276,705.234,-22.0959,-101.152,-0.784747,
2026_07_06_21_53_55.351,3.872,45.6,0,0.772,0,0,0,0, ,0,0,0,0,0, ,979.1,-22.4,267.5,-5.3,-70.5,-18.1,25,538.446,104.134,689.802,-19.2473,-102.45,-1.56263,
2026_07_06_21_53_55.370,3.872,45.7,0,0.77,0,0,0,0, ,0,0,0,0,0, ,975.7,-5.1,302.6,-11.1,-80.3,-15.7,25,565.194,96.9501,665.138,-18.5741,-100.801,-2.49725,
2026_07_06_21_53_55.390,3.872,45.7,0,0.77,0,0,0,0, ,0,0,0,0,0, ,898.8,12.9,284.9,-14.2,-76,-14.1,25,587.867,91.2799,642.506,-18.2131,-99.421,-3.25304,
2026_07_06_21_53_55.410,3.872,45.6,0,0.77,0,0,0,0, ,0,0,0,0,0, ,936.4,13.7,260.3,-17.8,-71.4,-26.1,25,607.96,86.528,619.965,-18.0783,-97.8537,-4.27965,
2026_07_06_21_53_55.430,3.872,45.7,0,0.77,0,0,0,0, ,0,0,0,0,0, ,1006.4,9.1,249.2,-22,-67.1,-32.2,25,630.107,81.9499,597.71,-18.1893,-96.1106,-5.79519,
2026_07_06_21_53_55.449,3.872,45.6,0,0.77,0,0,0,0, ,0,0,0,0,0, ,1032.4,25.3,208.2,-24.4,-73.8,-29.9,25,653.829,78.0042,575.223,-18.4946,-94.5469,-7.33416,
2026_07_06_21_53_55.469,3.872,45.7,0,0.77,0,0,0,0, ,0,0,0,0,0, ,1037.8,44.7,139.5,-5.7,-65.5,-26.7,25,677.063,75.3836,550.765,-18.2847,-93.0298,-8.61176,
2026_07_06_21_53_55.489,3.872,45.7,0,0.77,0,0,0,0, ,0,0,0,0,0, ,1009.5,37.2,110.2,-3.1,-55.8,-24.5,25,698.183,73.2853,524.81,-17.4386,-91.0566,-9.64698,
2026_07_06_21_53_55.509,3.872,45.6,0,0.77,0,0,0,0, ,0,0,0,0,0, ,993.5,39,107.1,-17.7,-50.4,-19.5,25,716.667,71.1412,499.451,-17.0097,-88.7436,-10.3997,
2026_07_06_21_53_55.529,3.872,45.7,0,0.77,0,0,0,0, ,0,0,0,0,0, ,1087,53.3,55.9,-12.5,-44.5,-10.8,25,736.385,69.6183,473.982,-16.8933,-86.2273,-10.6892,
2026_07_06_21_53_55.548,3.872,45.6,0,0.772,0,0,0,0, ,0,0,0,0,0, ,1024.9,52,41.5,-5.1,-44.1,-1.8,25,755.858,68.5843,448.066,-16.4001,-83.6724,-10.4217,
2026_07_06_21_53_55.568,3.872,45.6,0,0.77,0,0,0,0, ,0,0,0,0,0, ,996.7,45.5,26.3,0.2,-39.5,3.3,25,771.394,67.3756,422.828,-15.55,-81.1208,-9.74097,
2026_07_06_21_53_55.588,3.872,45.6,0,0.772,0,0,0,0, ,0,0,0,0,0, ,939.4,30.6,58.1,2.2,-35.5,-0.5,25,783.378,65.5886,399.633,-14.5293,-78.4626,-9.06206,
2026_07_06_21_53_55.608,3.872,45.6,0,0.772,0,0,0,0, ,0,0,0,0,0, ,951.5,35.5,56.5,1,-29,-9.5,25,793.254,63.6058,378.772,-13.5465,-75.6466,-8.81453,
2026_07_06_21_53_55.628,3.872,45.6,0,0.772,0,0,0,0, ,0,0,0,0,0, ,981.9,49.8,79.9,-0.4,-27.3,-13,25,803.823,62.3288,359.847,-12.7027,-72.7522,-8.96294,
2026_07_06_21_53_55.648,3.872,45.6,0,0.77,0,0,0,0, ,0,0,0,0,0, ,1036.6,51.6,67.7,-2.8,-32.7,-5.5,25,816.342,61.6202,342.416,-12.0261,-70.147,-8.98044,
2026_07_06_21_53_55.669,3.872,45.6,0,0.772,0,0,0,0, ,0,0,0,0,0, ,1015.5,60.6,29.4,-2.2,-25.9,1,25,829.121,61.2838,324.509,-11.4456,-67.6579,-8.5703,
2026_07_06_21_53_55.686,3.872,45.6,0,0.769,0,0,0,0, ,0,0,0,0,0, ,994.7,57.9,3.2,0.1,-17.8,0,25,839.844,61.1599,305.727,-10.8121,-64.8665,-8.01758,
2026_07_06_21_53_55.706,3.872,45.7,0,0.77,0,0,0,0, ,0,0,0,0,0, ,972.5,58.8,39.4,2.3,-14,-3,25,848.604,60.9886,288.395,-10.0802,-61.8826,-7.62041,
2026_07_06_21_53_55.726,3.872,45.6,0,0.772,0,0,0,0, ,0,0,0,0,0, ,991.4,58.8,48.7,2,-10.1,-5.5,25,856.73,60.8553,273.505,-9.33488,-58.8459,-7.41503,
2026_07_06_21_53_55.746,3.872,45.6,0,0.769,0,0,0,0, ,0,0,0,0,0, ,1012.4,63.7,29.2,2,-8.7,-5.1,25,865.576,60.8793,259.212,-8.64416,-55.8328,-7.28614,
2026_07_06_21_53_55.766,3.872,45.6,0,0.77,0,0,0,0, ,0,0,0,0,0, ,1015.7,71.6,-10.7,6.7,-3.5,-2.3,25,874.624,61.2919,243.98,-7.85233,-52.8022,-7.06761,
2026_07_06_21_53_55.786,3.872,45.6,0,0.77,0,0,0,0, ,0,0,0,0,0, ,969.9,57.2,2,1.2,-6.5,-1.6,25,881.825,61.4813,228.847,-7.13312,-49.8893,-6.75576,
2026_07_06_21_53_55.806,3.872,45.6,0,0.77,0,0,0,0, ,0,0,0,0,0, ,956.9,67.2,40.1,1.4,-2.9,-7.6,25,886.796,61.5251,216.185,-6.61923,-47.1355,-6.62439,
2026_07_06_21_53_55.825,3.872,45.6,0,0.77,0,0,0,0, ,0,0,0,0,0, ,958.2,43.9,31.9,15.5,-6,2.2,25,891.108,61.161,205.205,-5.70095,-44.5344,-6.38525,
2026_07_06_21_53_55.845,3.872,45.7,0,0.77,0,0,0,0, ,0,0,0,0,0, ,971.5,56.7,3.2,13.2,-8.2,-6.5,25,895.602,60.4991,193.769,-4.47909,-42.2532,-6.12716,
2026_07_06_21_53_55.865,3.872,45.6,0,0.77,0,0,0,0, ,0,0,0,0,0, ,989.2,63.9,-1.8,11.4,-1.6,-8.6,25,900.766,60.487,182.004,-3.45662,-39.977,-6.21387,
2026_07_06_21_53_55.885,3.872,45.6,0,0.77,0,0,0,0, ,0,0,0,0,0, ,995.4,72.3,19.1,13.7,-4.5,-5,25,906.344,60.9509,171.44,-2.48121,-37.7268,-6.24959,
2026_07_06_21_53_55.904,3.872,45.5,0,0.772,0,0,0,0, ,0,0,0,0,0, ,1023.6,63.4,15.5,12.9,-4.3,-5.2,25,912.63,61.3713,162.047,-1.51955,-35.6959,-6.17953,
2026_07_06_21_53_55.924,3.872,45.5,0,0.77,0,0,0,0, ,0,0,0,0,0, ,996.5,71.4,-4.3,6.7,-0.2,-6,25,918.566,61.7387,152.514,-0.829762,-33.6578,-6.14422,
2026_07_06_21_53_55.944,3.872,45.6,0,0.772,0,0,0,0, ,0,0,0,0,0, ,981,67,12.8,7.1,5.6,-6.3,25,922.843,62.1934,143.479,-0.358729,-31.4423,-6.14457,
2026_07_06_21_53_55.964,3.872,45.6,0,0.772,0,0,0,0, ,0,0,0,0,0, ,982.6,64.4,34.3,4.7,0.9,-2.7,25,926.436,62.4071,136.171,0.022662,-29.3282,-6.04435,
2026_07_06_21_53_55.984,3.872,45.6,0,0.77,0,0,0,0, ,0,0,0,0,0, ,971.9,64.4,29.2,1.8,-6,-4.2,25,929.532,62.5285,129.808,0.219328,-27.6964,-5.88626,
2026_07_06_21_53_56.004,3.872,45.5,0,0.772,0,0,0,0, ,0,0,0,0,0, ,978.7,71.4,26.1,3.8,-3,-5.4,25,932.321,62.8558,123.583,0.376588,-26.2829,-5.82007,
2026_07_06_21_53_56.023,3.872,45.5,0,0.772,0,0,0,0, ,0,0,0,0,0, ,983.1,63.9,-13.3,3.2,3.3,2.3,25,935.282,63.148,116.442,0.56692,-24.6721,-5.55986,
2026_07_06_21_53_56.044,3.872,45.6,0,0.77,0,0,0,0, ,0,0,0,0,0, ,986,116.9,7.4,6,3.5,4.6,25,938.284,64.8087,109.166,0.812686,-22.9615,-5.01082,
2026_07_06_21_53_56.063,3.872,45.6,0,0.772,0,0,0,0, ,0,0,0,0,0, ,989.7,73.6,24.4,5.5,-1,0,25,941.304,66.6637,103.483,1.11355,-21.4861,-4.56532,
2026_07_06_21_53_56.083,3.872,45.5,0,0.77,0,0,0,0, ,0,0,0,0,0, ,989.7,57.2,21.2,2.9,-1.6,2.8,25,944.253,66.5867,98.5663,1.30163,-20.256,-4.20181,
2026_07_06_21_53_56.103,3.872,45.5,0,0.77,0,0,0,0, ,0,0,0,0,0, ,992.6,63.4,9.6,0.8,-1,1.7,25,947.111,66.2036,93.4983,1.33505,-19.1009,-3.80865,
2026_07_06_21_53_56.123,3.872,45.5,0,0.77,0,0,0,0, ,0,0,0,0,0, ,987.5,71,25.2,0,1.4,2.8,25,949.728,66.2643,88.8611,1.27807,-17.9247,-3.43945,
2026_07_06_21_53_56.142,3.872,45.5,0,0.769,0,0,0,0, ,0,0,0,0,0, ,994.8,69.7,-0.3,0.5,1,5.9,25,952.252,66.5133,84.2048,1.21542,-16.7593,-2.96478,
2026_07_06_21_53_56.162,3.872,45.5,0,0.77,0,0,0,0, ,0,0,0,0,0, ,991.3,58.8,-0.3,-0.1,0.4,0.3,25,954.738,66.3753,79.0553,1.15355,-15.6954,-2.59521,
2026_07_06_21_53_56.182,3.872,45.5,0,0.772,0,0,0,0, ,0,0,0,0,0, ,989.3,74.4,-16.3,4,7,2.6,25,956.905,66.389,73.7321,1.20208,-14.5135,-2.3487,
2026_07_06_21_53_56.201,3.872,45.5,0,0.772,0,0,0,0, ,0,0,0,0,0, ,988.7,80.8,3.7,11,12.3,7,25,958.861,67.0722,68.8551,1.58586,-13.041,-1.91308,
2026_07_06_21_53_56.227,3.872,45.5,0,0.77,0,0,0,0, ,0,0,0,0,0, ,989.5,53.8,28.1,15.2,14,8.8,25,960.704,67.0861,65.6282,2.2875,-11.445,-1.3151,
2026_07_06_21_53_56.241,3.872,45.5,0,0.769,0,0,0,0, ,0,0,0,0,0, ,987.3,60,50.1,12.8,12.8,9.3,25,962.391,66.4654,64.0116,3.00123,-9.93101,-0.683472,
2026_07_06_21_53_56.261,3.872,45.5,0,0.769,0,0,0,0, ,0,0,0,0,0, ,982.6,67.9,67.2,18.6,8.8,13.9,25,963.766,66.3121,63.6849,3.77506,-8.66771,0.0650517,
2026_07_06_21_53_56.281,3.872,45.5,0,0.77,0,0,0,0, ,0,0,0,0,0, ,993.2,29.6,23.9,29.8,8.1,18.2,25,965.237,65.2419,62.5798,5.01971,-7.6246,1.03913,
2026_07_06_21_53_56.300,3.872,45.5,0,0.771,0,0,0,0, ,0,0,0,0,0, ,1003.4,-32.1,23.4,12.5,9.1,10.4,25,967.251,61.1901,60.2075,6.00265,-6.63592,1.84722,
2026_07_06_21_53_56.320,3.872,45.5,0,0.772,0,0,0,0, ,0,0,0,0,0, ,996.8,17,13.9,-12.5,11.6,-3.3,25,969.253,57.0012,57.6751,5.63686,-5.60084,1.95098,
2026_07_06_21_53_56.341,3.872,45.3,0,0.771,0,0,0,0, ,0,0,0,0,0, ,980.4,91.4,59.6,5,16.5,4.7,25,970.432,56.8305,56.4,5.06485,-4.40337,1.87475,
2026_07_06_21_53_56.360,3.872,45.5,0,0.769,0,0,0,0, ,0,0,0,0,0, ,980.8,7.2,119.1,13.1,1.3,6.6,25,971.052,56.3716,58.4079,5.30769,-3.59269,2.1048,
2026_07_06_21_53_56.380,3.872,45.6,0,0.772,0,0,0,0, ,0,0,0,0,0, ,971.5,14.2,142.8,4.2,-14.6,1.8,25,971.362,53.5885,62.8284,5.51137,-3.779,2.23248,
2026_07_06_21_53_56.400,3.872,45.5,0,0.772,0,0,0,0, ,0,0,0,0,0, ,998.4,20.7,11.8,1.5,-18.7,2.2,25,972.19,51.3863,63.7103,5.34919,-4.56332,2.21831,
2026_07_06_21_53_56.420,3.872,45.5,0,0.769,0,0,0,0, ,0,0,0,0,0, ,1000.4,15.5,-15,-2.9,-10.3,-0.2,25,973.849,49.3579,59.7304,4.98057,-5.16884,2.14407,
2026_07_06_21_53_56.439,3.872,45.5,0,0.771,0,0,0,0, ,0,0,0,0,0, ,997.9,21.1,-7.3,-5.2,-5.8,-0.9,25,975.39,47.4653,55.4111,4.43027,-5.34441,1.9799,
2026_07_06_21_53_56.459,3.872,45.5,0,0.772,0,0,0,0, ,0,0,0,0,0, ,983.7,47.2,58.7,-2.3,-4.9,0.7,25,976.329,46.6539,53.6006,3.93178,-5.34475,1.85316,
2026_07_06_21_53_56.479,3.872,45.3,0,0.77,0,0,0,0, ,0,0,0,0,0, ,985.7,95.9,19.4,9.1,-2.9,17.8,25,976.839,48.171,52.7139,3.89938,-5.25671,2.3039,
2026_07_06_21_53_56.498,3.872,45.5,0,0.771,0,0,0,0, ,0,0,0,0,0, ,987.7,-23.5,78.1,-2.8,-16.6,5.2,25,977.44,47.4416,52.4724,3.85371,-5.53052,2.86429,
2026_07_06_21_53_56.518,3.872,45.5,0,0.771,0,0,0,0, ,0,0,0,0,0, ,998.7,-75.3,-7.9,-4.8,-1.1,0.5,25,978.401,41.5403,51.4138,3.38731,-5.7328,2.86342,
2026_07_06_21_53_56.539,3.872,45.3,0,0.771,0,0,0,0, ,0,0,0,0,0, ,990.7,7.2,28.3,-1.6,-1,-1.5,25,979.394,36.934,48.9023,2.9859,-5.44744,2.65846,
2026_07_06_21_53_56.559,3.872,45.5,0,0.769,0,0,0,0, ,0,0,0,0,0, ,991.5,7.3,27,-1,-1,-2.1,25,980.107,35.1251,47.6072,2.72473,-5.17643,2.38677,
2026_07_06_21_53_56.578,3.872,45.3,0,0.771,0,0,0,0, ,0,0,0,0,0, ,990.7,10.9,29.9,-7,-1.5,-1.6,25,980.777,33.5392,46.4398,2.31494,-4.93716,2.1286,
2026_07_06_21_53_56.598,3.872,45.3,0,0.771,0,0,0,0, ,0,0,0,0,0, ,992.4,1.5,23,-5.5,-1.1,-1.2,25,981.434,31.8732,45.2217,1.79301,-4.71552,1.91357,
2026_07_06_21_53_56.618,3.872,45.5,0,0.772,0,0,0,0, ,0,0,0,0,0, ,990.1,6.7,31.1,-0.9,-0.2,-2.5,25,982.032,30.1808,44.1144,1.48875,-4.46778,1.68423,
2026_07_06_21_53_56.637,3.872,45.5,0,0.771,0,0,0,0, ,0,0,0,0,0, ,990.8,10.2,38.5,-0.8,-0.2,-3,25,982.545,28.8566,43.5468,1.34623,-4.20771,1.41402,
2026_07_06_21_53_56.657,3.872,45.3,0,0.771,0,0,0,0, ,0,0,0,0,0, ,990.6,17,22.9,-0.9,-2,-2.6,25,983.042,27.9269,42.7639,1.2124,-4.01833,1.15723,
2026_07_06_21_53_56.677,3.872,45.3,0,0.769,0,0,0,0, ,0,0,0,0,0, ,990.8,17.2,31.4,-0.7,0.1,-1.5,25,983.508,27.2671,41.8125,1.08977,-3.83136,0.961786,
2026_07_06_21_53_56.697,3.872,45.3,0,0.772,0,0,0,0, ,0,0,0,0,0, ,990.2,12.6,34,-0.7,-1.2,-0.9,25,983.934,26.5135,41.2572,0.980706,-3.6314,0.830052,
2026_07_06_21_53_56.717,3.872,45.2,0,0.771,0,0,0,0, ,0,0,0,0,0, ,991.9,9.8,27.9,-0.3,-1.1,-0.9,25,984.368,25.5803,40.6291,0.890475,-3.48019,0.724627,
2026_07_06_21_53_56.736,3.872,45.3,0,0.771,0,0,0,0, ,0,0,0,0,0, ,991,10.6,33.5,0.5,-2,-0.9,25,984.8,24.6431,40.024,0.842306,-3.36257,0.625627,
2026_07_06_21_53_56.756,3.872,45.3,0,0.769,0,0,0,0, ,0,0,0,0,0, ,991.5,12.4,19.2,1.6,-1.1,-0.9,25,985.193,23.8422,39.1908,0.854962,-3.25212,0.532659,
2026_07_06_21_53_56.776,3.872,45.3,0,0.771,0,0,0,0, ,0,0,0,0,0, ,991.5,16.4,10.8,5.7,1.6,-0.3,25,985.577,23.2668,37.7166,1.02528,-3.03871,0.463637,
2026_07_06_21_53_56.796,3.872,45.3,0,0.772,0,0,0,0, ,0,0,0,0,0, ,993.4,1,26.3,0,-2.1,-0.8,25,985.996,22.3791,36.5487,1.13648,-2.86877,0.401869,
2026_07_06_21_53_56.815,3.872,45.2,0,0.771,0,0,0,0, ,0,0,0,0,0, ,990.3,3.7,28.1,-0.6,-0.3,-2,25,986.353,21.1586,35.979,1.04894,-2.76708,0.292067,
2026_07_06_21_53_56.836,3.872,45.3,0,0.771,0,0,0,0, ,0,0,0,0,0, ,990.1,10.2,31.3,-0.5,0,-2.5,25,986.587,20.2928,35.5964,0.951507,-2.6076,0.13716,
2026_07_06_21_53_56.855,3.872,45.2,0,0.769,0,0,0,0, ,0,0,0,0,0, ,989.8,11.8,32.3,0,-0.6,-2.1,25,986.792,19.7265,35.365,0.87829,-2.46698,-0.0113542,
2026_07_06_21_53_56.875,3.872,45.2,0,0.772,0,0,0,0, ,0,0,0,0,0, ,991.6,12,30.3,0.5,-0.7,-1.8,25,987.03,19.2496,35.1173,0.840004,-2.35626,-0.12949,
2026_07_06_21_53_56.895,3.872,45.3,0,0.769,0,0,0,0, ,0,0,0,0,0, ,991,10.7,29.1,0.9,-0.8,-1.5,25,987.29,18.7682,34.7872,0.831473,-2.25838,-0.222146,
2026_07_06_21_53_56.915,3.872,45.3,0,0.771,0,0,0,0, ,0,0,0,0,0, ,989.7,11.4,32.3,-0.1,-0.7,-1.5,25,987.477,18.2979,34.5381,0.80518,-2.16646,-0.300016,
2026_07_06_21_53_56.934,3.872,45.2,0,0.769,0,0,0,0, ,0,0,0,0,0, ,991.9,10.8,30.1,-0.6,-0.8,-1.3,25,987.679,17.8592,34.3347,0.734786,-2.08014,-0.367046,
2026_07_06_21_53_56.954,3.872,45.2,0,0.772,0,0,0,0, ,0,0,0,0,0, ,991.4,7.5,27.3,-0.7,-0.7,-1.5,25,987.921,17.3285,33.9913,0.650401,-1.99909,-0.429992,
2026_07_06_21_53_56.974,3.872,45.3,0,0.771,0,0,0,0, ,0,0,0,0,0, ,991.4,6.1,26.1,-0.7,-0.6,-1.6,25,988.133,16.6869,33.547,0.56811,-1.91688,-0.498242,
2026_07_06_21_53_56.993,3.872,45.2,0,0.772,0,0,0,0, ,0,0,0,0,0, ,990.3,8.3,29.2,-0.7,-0.6,-1.8,25,988.299,16.1088,33.1877,0.490835,-1.83663,-0.571474,
2026_07_06_21_53_57.013,3.872,45.2,0,0.771,0,0,0,0, ,0,0,0,0,0, ,991,10.9,30.6,-0.7,-0.6,-1.6,25,988.442,15.7122,32.9873,0.418269,-1.76127,-0.640244,
2026_07_06_21_53_57.033,3.872,45.3,0,0.771,0,0,0,0, ,0,0,0,0,0, ,992.4,10.8,29.7,-0.7,-0.6,-1.3,25,988.641,15.4159,32.8144,0.350124,-1.69051,-0.689588,
2026_07_06_21_53_57.053,3.872,45.3,0,0.771,0,0,0,0, ,0,0,0,0,0, ,990.6,10.4,33.3,-0.8,-0.9,-1.2,25,988.815,15.1224,32.7343,0.283085,-1.6332,-0.723738,
2026_07_06_21_53_57.073,3.872,45.3,0,0.771,0,0,0,0, ,0,0,0,0,0, ,990.6,6.5,26.6,-0.9,-1.3,-1.2,25,988.924,14.7158,32.5647,0.214038,-1.60071,-0.752761,
2026_07_06_21_53_57.093,3.872,45.3,0,0.771,0,0,0,0, ,0,0,0,0,0, ,991.8,7.2,27.5,-1.2,-1,-1.5,25,989.062,14.2365,32.2286,0.137011,-1.57324,-0.789155,
2026_07_06_21_53_57.112,3.872,45.2,0,0.771,0,0,0,0, ,0,0,0,0,0, ,989.8,7.6,25.6,-1.4,-0.9,-1.6,25,989.168,13.8199,31.8826,0.0494427,-1.53526,-0.835519,
2026_07_06_21_53_57.132,3.872,45.2,0,0.771,0,0,0,0, ,0,0,0,0,0, ,992.5,9.6,30,-1,-0.7,-1.5,25,989.289,13.5018,31.6338,-0.0266952,-1.49046,-0.879058,
2026_07_06_21_53_57.151,3.872,45.2,0,0.769,0,0,0,0, ,0,0,0,0,0, ,989.2,5.4,25.1,-0.9,-0.5,-1.6,25,989.384,13.1361,31.3849,-0.0829591,-1.43619,-0.919943,
2026_07_06_21_53_57.171,3.872,45.2,0,0.771,0,0,0,0, ,0,0,0,0,0, ,990.6,8,28.6,-1.3,-0.4,-1.9,25,989.416,12.7439,31.1086,-0.144935,-1.3761,-0.970525,
2026_07_06_21_53_57.191,3.872,45.2,0,0.772,0,0,0,0, ,0,0,0,0,0, ,990.7,7.8,28,-1.1,-0.3,-2,25,989.491,12.4487,30.9374,-0.209228,-1.31357,-1.03021,
2026_07_06_21_53_57.211,3.872,45.2,0,0.771,0,0,0,0, ,0,0,0,0,0, ,991.3,8.3,26,-0.9,-0.1,-2,25,989.583,12.1807,30.6975,-0.257416,-1.24571,-1.08931,
2026_07_06_21_53_57.231,3.872,45.2,0,0.769,0,0,0,0, ,0,0,0,0,0, ,991.5,9.6,29.6,-0.8,-0.4,-1.9,25,989.693,11.9838,30.5209,-0.293526,-1.18504,-1.14176,
2026_07_06_21_53_57.251,3.872,45.2,0,0.771,0,0,0,0, ,0,0,0,0,0, ,991,10.7,31.7,-0.7,-0.6,-1.8,25,989.788,11.8721,30.5288,-0.321343,-1.14329,-1.18491,
2026_07_06_21_53_57.271,3.872,45.2,0,0.771,0,0,0,0, ,0,0,0,0,0, ,991.2,7.4,26.7,-0.8,-0.3,-1.8,25,989.868,11.7001,30.4478,-0.347464,-1.10104,-1.2224,
2026_07_06_21_53_57.291,3.872,45.2,0,0.769,0,0,0,0, ,0,0,0,0,0, ,990.6,8.9,28.9,-0.8,-0.2,-1.8,25,989.931,11.4838,30.2865,-0.37504,-1.04918,-1.25759,
2026_07_06_21_53_57.310,3.872,45.1,0,0.772,0,0,0,0, ,0,0,0,0,0, ,991.3,7.2,25.1,-0.7,-0.9,-1.7,25,989.993,11.2745,30.0862,-0.397889,-1.01876,-1.2876,
2026_07_06_21_53_57.330,3.872,45.1,0,0.771,0,0,0,0, ,0,0,0,0,0, ,992.5,8.7,31.8,-0.7,-0.5,-1.9,25,990.109,11.0719,29.9865,-0.416299,-0.99934,-1.31882,
2026_07_06_21_53_57.350,3.872,45.2,0,0.771,0,0,0,0, ,0,0,0,0,0, ,990.8,9,27.9,-0.9,-1.3,-1.7,25,990.203,10.9365,29.9782,-0.439681,-0.993286,-1.34815,
2026_07_06_21_53_57.370,3.872,45.2,0,0.771,0,0,0,0, ,0,0,0,0,0, ,991.9,6.9,20.2,-0.6,-0.3,-1.8,25,990.273,10.7545,29.6169,-0.458591,-0.981508,-1.37263,
2026_07_06_21_53_57.389,3.872,45.2,0,0.771,0,0,0,0, ,0,0,0,0,0, ,992.4,8.4,30.1,-0.7,0.4,-2.1,25,990.388,10.5653,29.3447,-0.470255,-0.918651,-1.40782,
2026_07_06_21_53_57.409,3.872,45.1,0,0.769,0,0,0,0, ,0,0,0,0,0, ,990.1,13.5,42.3,-0.7,-0.9,-1.8,25,990.44,10.5888,29.7625,-0.484255,-0.877905,-1.44086,
2026_07_06_21_53_57.429,3.872,45.1,0,0.771,0,0,0,0, ,0,0,0,0,0, ,990.3,5,27.2,-0.7,-1.9,-1.6,25,990.425,10.5072,30.0664,-0.497402,-0.90972,-1.45665,
2026_07_06_21_53_57.449,3.872,45.1,0,0.772,0,0,0,0, ,0,0,0,0,0, ,991.6,5.6,18.1,-0.6,-1,-1.9,25,990.457,10.1899,29.6145,-0.506701,-0.942643,-1.47452,
2026_07_06_21_53_57.469,3.872,45.2,0,0.771,0,0,0,0, ,0,0,0,0,0, ,990.8,7.8,36,-0.5,-1,-2.1,25,990.503,9.97723,29.4582,-0.50934,-0.946138,-1.50655,
2026_07_06_21_53_57.488,3.872,45.2,0,0.77,0,0,0,0, ,0,0,0,0,0, ,990.6,9.2,23.1,-0.4,-0.8,-2,25,990.515,9.88721,29.4638,-0.505724,-0.943327,-1.53966,
2026_07_06_21_53_57.508,3.872,45.1,0,0.771,0,0,0,0, ,0,0,0,0,0, ,989.9,11.1,30.8,0,-0.9,-1.7,25,990.499,9.90322,29.3106,-0.487094,-0.93764,-1.55857,
2026_07_06_21_53_57.528,3.872,45.1,0,0.77,0,0,0,0, ,0,0,0,0,0, ,991.9,8.3,26.6,0.1,-1.6,-1.8,25,990.523,9.89084,29.2734,-0.454364,-0.956674,-1.57024,
2026_07_06_21_53_57.549,3.872,45.1,0,0.772,0,0,0,0, ,0,0,0,0,0, ,991.3,10.4,27.9,-0.2,-1.2,-2,25,990.589,9.85788,29.1501,-0.429723,-0.983689,-1.59033,
2026_07_06_21_53_57.568,3.872,45.1,0,0.773,0,0,0,0, ,0,0,0,0,0, ,991.6,8.6,21.1,-0.5,-0.2,-1.9,25,990.641,9.83607,28.8667,-0.424865,-0.966402,-1.61225,
2026_07_06_21_53_57.588,3.872,45.1,0,0.772,0,0,0,0, ,0,0,0,0,0, ,991.2,10,31.8,-0.6,-0.5,-1.7,25,990.687,9.80341,28.7195,-0.432491,-0.92884,-1.62369,
2026_07_06_21_53_57.607,3.872,45.2,0,0.769,0,0,0,0, ,0,0,0,0,0, ,992,8.3,21.8,-0.7,0.1,-1.9,25,990.743,9.76359,28.6025,-0.445745,-0.884426,-1.63444,
2026_07_06_21_53_57.630,3.872,45.1,0,0.771,0,0,0,0, ,0,0,0,0,0, ,990.3,9.2,32.3,-0.5,0.5,-2.3,25,990.768,9.70182,28.5079,-0.455145,-0.81225,-1.66281,
2026_07_06_21_53_57.648,3.872,45.1,0,0.77,0,0,0,0, ,0,0,0,0,0, ,991.5,10.8,29,-0.5,0,-2,25,990.776,9.71999,28.6384,-0.457878,-0.747519,-1.69249,
2026_07_06_21_53_57.666,3.872,45.1,0,0.771,0,0,0,0, ,0,0,0,0,0, ,989.5,10.7,36.4,-0.7,-1.1,-1.8,25,990.759,9.78276,28.8859,-0.466539,-0.735483,-1.70514,
2026_07_06_21_53_57.686,3.872,45.1,0,0.771,0,0,0,0, ,0,0,0,0,0, ,990.3,-5,23,-0.5,-0.8,-2.5,25,990.707,9.36029,28.9355,-0.474672,-0.748555,-1.73225,
2026_07_06_21_53_57.706,3.872,45.1,0,0.77,0,0,0,0, ,0,0,0,0,0, ,991,30,18.3,-0.2,-1.9,-4.3,25,990.703,9.55162,28.4306,-0.467075,-0.785206,-1.83388,
2026_07_06_21_53_57.726,3.872,45.1,0,0.771,0,0,0,0, ,0,0,0,0,0, ,990.2,22.2,30.8,0.4,-0.7,-3.2,25,990.697,10.56,28.1942,-0.432518,-0.816576,-1.95064,
2026_07_06_21_53_57.746,3.872,45.2,0,0.769,0,0,0,0, ,0,0,0,0,0, ,990.2,11.4,24.5,-0.2,0,-1.4,25,990.667,10.9403,28.161,-0.400068,-0.788144,-1.97193,
2026_07_06_21_53_57.765,3.872,45.1,0,0.77,0,0,0,0, ,0,0,0,0,0, ,991.5,13.7,12.5,-0.7,0.6,-1.3,25,990.678,11.0384,27.5723,-0.403111,-0.721835,-1.93403,
2026_07_06_21_53_57.785,3.872,45.1,0,0.77,0,0,0,0, ,0,0,0,0,0, ,991.8,12.5,27.7,-0.4,1.3,-1.1,25,990.737,11.164,27.1169,-0.412062,-0.619958,-1.8893,
2026_07_06_21_53_57.805,3.872,45.1,0,0.772,0,0,0,0, ,0,0,0,0,0, ,990.3,6.4,43.3,-0.3,-0.3,-1.4,25,990.756,11.0596,27.6278,-0.40828,-0.55171,-1.85034,
2026_07_06_21_53_57.825,3.872,45.1,0,0.77,0,0,0,0, ,0,0,0,0,0, ,990.6,11.2,33.2,-0.9,-1.9,-2,25,990.737,10.9219,28.2751,-0.419963,-0.585122,-1.84118,
2026_07_06_21_53_57.850,3.872,45,0,0.769,0,0,0,0, ,0,0,0,0,0, ,990.1,16.9,17.5,-0.7,-0.6,-1.3,25,990.714,11.1125,28.0968,-0.443121,-0.625638,-1.82953,
2026_07_06_21_53_57.865,3.872,45,0,0.77,0,0,0,0, ,0,0,0,0,0, ,990.6,11.1,28.9,-0.9,-1,-0.8,25,990.692,11.2884,27.7984,-0.464869,-0.636263,-1.78203,
2026_07_06_21_53_57.885,3.872,45.1,0,0.77,0,0,0,0, ,0,0,0,0,0, ,992.3,31.6,4.2,-0.7,1.8,1.8,25,990.738,11.9016,27.113,-0.485291,-0.573116,-1.64297,
2026_07_06_21_53_57.904,3.872,45.1,0,0.771,0,0,0,0, ,0,0,0,0,0, ,987.9,1.8,44.5,-1.2,-1.5,-1.2,25,990.699,12.194,26.9446,-0.513609,-0.529051,-1.52457,
2026_07_06_21_53_57.924,3.872,45,0,0.771,0,0,0,0, ,0,0,0,0,0, ,991.3,5.7,23.8,-1.4,-0.7,-2.3,25,990.632,11.6794,27.3837,-0.56153,-0.563843,-1.53831,
2026_07_06_21_53_57.943,3.872,45.1,0,0.771,0,0,0,0, ,0,0,0,0,0, ,990.2,12.3,25.5,-1.5,-0.4,-2.3,25,990.639,11.5161,27.2171,-0.615671,-0.563,-1.58472,
2026_07_06_21_53_57.963,3.872,45.1,0,0.771,0,0,0,0, ,0,0,0,0,0, ,990.4,12.4,26.1,-1,0.3,-1.6,25,990.619,11.567,27.1307,-0.654325,-0.531739,-1.60698,
2026_07_06_21_53_57.983,3.872,45,0,0.77,0,0,0,0, ,0,0,0,0,0, ,989.7,7,38.2,-0.7,-0.2,-1.6,25,990.584,11.4532,27.4366,-0.666249,-0.496289,-1.60655,
2026_07_06_21_53_58.003,3.872,45,0,0.773,0,0,0,0, ,0,0,0,0,0, ,991.6,8.9,25.5,-0.7,-0.2,-1.8,25,990.588,11.2397,27.7055,-0.668306,-0.478234,-1.61225,
2026_07_06_21_53_58.023,3.872,45,0,0.772,0,0,0,0, ,0,0,0,0,0, ,990.3,10.7,30.7,-0.6,-0.9,-1.4,25,990.61,11.152,27.7296,-0.66719,-0.482607,-1.6115,
2026_07_06_21_53_58.043,3.872,45.1,0,0.771,0,0,0,0, ,0,0,0,0,0, ,990.9,9.5,26.6,-0.4,-1.2,-1.3,25,990.609,11.0879,27.7857,-0.657002,-0.517183,-1.59557,
2026_07_06_21_53_58.063,3.872,45,0,0.769,0,0,0,0, ,0,0,0,0,0, ,989.9,9.3,25.8,-0.5,-0.4,-1.3,25,990.597,10.985,27.689,-0.644388,-0.534417,-1.57756,
2026_07_06_21_53_58.082,3.872,45,0,0.769,0,0,0,0, ,0,0,0,0,0, ,989.8,9.5,31.6,0,-0.5,-1.4,25,990.551,10.8884,27.7507,-0.620355,-0.529273,-1.56369,
2026_07_06_21_53_58.102,3.872,45,0,0.769,0,0,0,0, ,0,0,0,0,0, ,990.9,7.6,24.1,0.2,-0.6,-1.4,25,990.539,10.7459,27.7567,-0.576458,-0.530536,-1.55371,
2026_07_06_21_53_58.122,3.872,45,0,0.771,0,0,0,0, ,0,0,0,0,0, ,989.8,10.6,29.7,0.5,0.1,-1.6,25,990.527,10.6456,27.7045,-0.520002,-0.513441,-1.55044,
2026_07_06_21_53_58.142,3.872,45,0,0.769,0,0,0,0, ,0,0,0,0,0, ,990.3,13,33.2,-0.5,-0.2,-1,25,990.498,10.716,27.9327,-0.488315,-0.4852,-1.53518,
2026_07_06_21_53_58.162,3.872,45,0,0.771,0,0,0,0, ,0,0,0,0,0, ,990.8,4.6,28.6,-0.6,0,-1.5,25,990.501,10.5992,28.1136,-0.492074,-0.461727,-1.5178,
2026_07_06_21_53_58.181,3.872,45.1,0,0.771,0,0,0,0, ,0,0,0,0,0, ,990.9,3.9,24.6,-0.7,-0.4,-1.9,25,990.523,10.2123,28.0213,-0.501697,-0.445778,-1.5289,
2026_07_06_21_53_58.201,3.872,45,0,0.77,0,0,0,0, ,0,0,0,0,0, ,991.8,10.4,29.9,-0.6,0,-2.2,25,990.573,10.0257,27.9743,-0.510734,-0.430801,-1.56066,
2026_07_06_21_53_58.220,3.872,45,0,0.771,0,0,0,0, ,0,0,0,0,0, ,990.9,9.1,27,-0.8,-0.4,-1.8,25,990.62,10.0089,28.0033,-0.522268,-0.416736,-1.58743,
2026_07_06_21_53_58.241,3.872,45,0,0.769,0,0,0,0, ,0,0,0,0,0, ,990.9,10,31.9,-0.6,0,-2,25,990.637,9.98094,28.0915,-0.533098,-0.403529,-1.60648,
2026_07_06_21_53_58.267,3.872,45,0,0.769,0,0,0,0, ,0,0,0,0,0, ,991,7.5,30.2,-0.6,0,-2.1,25,990.657,9.90593,28.2718,-0.537175,-0.378939,-1.63351,
2026_07_06_21_53_58.286,3.872,45,0,0.769,0,0,0,0, ,0,0,0,0,0, ,989.9,8.3,30.2,-0.5,-0.1,-2.4,25,990.644,9.7837,28.3893,-0.537957,-0.358894,-1.67107,
2026_07_06_21_53_58.300,3.872,45,0,0.769,0,0,0,0, ,0,0,0,0,0, ,991.8,8,26.2,-0.1,-0.2,-2.4,25,990.656,9.68414,28.3777,-0.523456,-0.346165,-1.71549,
2026_07_06_21_53_58.320,3.872,45,0,0.77,0,0,0,0, ,0,0,0,0,0, ,991.8,9.3,26.6,-0.1,0,-2.2,25,990.726,9.62113,28.2572,-0.497652,-0.331164,-1.75111,
2026_07_06_21_53_58.341,3.872,45.1,0,0.771,0,0,0,0, ,0,0,0,0,0, ,990.2,9.5,30.7,-0.1,-0.1,-2.2,25,990.743,9.60765,28.2811,-0.47342,-0.31403,-1.77846,
2026_07_06_21_53_58.362,3.872,44.9,0,0.769,0,0,0,0, ,0,0,0,0,0, ,990.2,9.8,29.6,0.3,-0.3,-2.5,25,990.71,9.61023,28.395,-0.438477,-0.307082,-1.81329,
2026_07_06_21_53_58.380,3.872,44.9,0,0.772,0,0,0,0, ,0,0,0,0,0, ,991,10.1,30.6,-0.3,-0.2,-2.6,25,990.703,9.63094,28.4989,-0.411757,-0.303603,-1.85819,
2026_07_06_21_53_58.399,3.872,45,0,0.772,0,0,0,0, ,0,0,0,0,0, ,990.3,13.3,30.8,-0.6,-0.4,-2.4,25,990.7,9.75702,28.6331,-0.414088,-0.303384,-1.8973,
2026_07_06_21_53_58.420,3.872,44.9,0,0.77,0,0,0,0, ,0,0,0,0,0, ,990.3,12.5,30.6,-0.7,-0.4,-2,25,990.675,9.94854,28.759,-0.428464,-0.309271,-1.91574,
2026_07_06_21_53_58.438,3.872,45,0,0.772,0,0,0,0, ,0,0,0,0,0, ,990.6,11.2,30.7,-0.6,-0.3,-1.7,25,990.662,10.0644,28.8742,-0.441964,-0.311753,-1.91174,
2026_07_06_21_53_58.458,3.872,44.9,0,0.771,0,0,0,0, ,0,0,0,0,0, ,990.1,11.5,32.9,-0.7,-0.6,-1.7,25,990.643,10.1428,29.0525,-0.454641,-0.320178,-1.89883,
2026_07_06_21_53_58.478,3.872,45,0,0.769,0,0,0,0, ,0,0,0,0,0, ,990.9,12.2,30,-0.6,-0.6,-1.7,25,990.634,10.2468,29.1986,-0.466546,-0.337229,-1.88672,
2026_07_06_21_53_58.498,3.872,44.9,0,0.769,0,0,0,0, ,0,0,0,0,0, ,991.5,13,27.7,-0.7,-0.5,-1.5,25,990.669,10.3902,29.1774,-0.477725,-0.350195,-1.86925,
2026_07_06_21_53_58.518,3.872,44.9,0,0.772,0,0,0,0, ,0,0,0,0,0, ,991.5,7.5,26.9,-0.7,-0.4,-1.5,25,990.719,10.3816,29.063,-0.49127,-0.356277,-1.84674,
2026_07_06_21_53_58.538,3.872,44.9,0,0.771,0,0,0,0, ,0,0,0,0,0, ,991.2,8.7,31.6,-0.8,-0.3,-1.9,25,990.758,10.2426,29.0744,-0.507036,-0.355894,-1.8378,
2026_07_06_21_53_58.558,3.872,44.9,0,0.769,0,0,0,0, ,0,0,0,0,0, ,990.8,10.9,31,-0.7,-0.5,-2,25,990.772,10.2156,29.21,-0.521842,-0.358582,-1.84464,
2026_07_06_21_53_58.577,3.872,44.9,0,0.769,0,0,0,0, ,0,0,0,0,0, ,991.3,11.4,31.2,-0.7,-0.8,-2,25,990.789,10.2726,29.3252,-0.532698,-0.37634,-1.85411,
2026_07_06_21_53_58.597,3.872,44.9,0,0.77,0,0,0,0, ,0,0,0,0,0, ,991.5,11.5,26,-0.7,-0.4,-1.9,25,990.827,10.3443,29.281,-0.542893,-0.38997,-1.85995,
2026_07_06_21_53_58.617,3.872,44.9,0,0.769,0,0,0,0, ,0,0,0,0,0, ,990.8,11.3,32.3,-0.8,-0.3,-1.7,25,990.846,10.4087,29.273,-0.555514,-0.387534,-1.8563,
2026_07_06_21_53_58.637,3.872,44.9,0,0.769,0,0,0,0, ,0,0,0,0,0, ,990.1,10.2,31.9,-0.7,-0.5,-1.6,25,990.822,10.4295,29.4453,-0.567365,-0.388294,-1.84373,
2026_07_06_21_53_58.657,3.872,44.8,0,0.771,0,0,0,0, ,0,0,0,0,0, ,991.4,10.8,30.7,-0.7,-0.4,-1.8,25,990.818,10.4338,29.5583,-0.575448,-0.392054,-1.83497,
2026_07_06_21_53_58.676,3.872,44.9,0,0.769,0,0,0,0, ,0,0,0,0,0, ,991.6,9,30.2,-0.7,-0.7,-1.8,25,990.859,10.4012,29.6126,-0.583038,-0.401679,-1.83284,
2026_07_06_21_53_58.696,3.872,44.8,0,0.769,0,0,0,0, ,0,0,0,0,0, ,990.8,10.8,28.8,-0.8,-0.5,-1.8,25,990.88,10.3707,29.6058,-0.593212,-0.413764,-1.83084,
2026_07_06_21_53_58.716,3.872,44.9,0,0.771,0,0,0,0, ,0,0,0,0,0, ,989.8,11.4,28.3,-0.8,-0.5,-1.8,25,990.845,10.4151,29.5414,-0.605813,-0.419019,-1.82896,
2026_07_06_21_53_58.736,3.872,44.9,0,0.772,0,0,0,0, ,0,0,0,0,0, ,991,10.2,33.8,-0.7,-0.5,-2,25,990.818,10.4386,29.6334,-0.614599,-0.423954,-1.83329,
2026_07_06_21_53_58.756,3.872,44.9,0,0.771,0,0,0,0, ,0,0,0,0,0, ,990.4,11.4,27.3,-0.6,-0.7,-2,25,990.81,10.4606,29.6892,-0.616757,-0.434682,-1.84344,
2026_07_06_21_53_58.775,3.872,44.9,0,0.769,0,0,0,0, ,0,0,0,0,0, ,989.6,14.5,31.7,-0.7,-0.9,-2.7,25,990.761,10.6123,29.6777,-0.618782,-0.456943,-1.87431,
2026_07_06_21_53_58.796,3.872,44.9,0,0.771,0,0,0,0, ,0,0,0,0,0, ,990.6,11.4,31.1,-0.8,-0.4,-2.1,25,990.721,10.7548,29.7826,-0.626778,-0.468708,-1.90635,
2026_07_06_21_53_58.815,3.872,44.9,0,0.773,0,0,0,0, ,0,0,0,0,0, ,991.2,13.4,33.2,-0.8,-0.6,-1.9,25,990.732,10.855,29.9269,-0.637334,-0.470614,-1.91205,
2026_07_06_21_53_58.835,3.872,44.8,0,0.771,0,0,0,0, ,0,0,0,0,0, ,991.2,11.7,26.9,-0.8,-0.3,-1.7,25,990.76,10.9583,29.9344,-0.647247,-0.469358,-1.90523,
2026_07_06_21_53_58.855,3.872,44.8,0,0.771,0,0,0,0, ,0,0,0,0,0, ,990.8,12.6,30.5,-0.8,0.1,-1.5,25,990.775,11.0309,29.8592,-0.656555,-0.44685,-1.88663,
2026_07_06_21_53_58.874,3.872,44.9,0,0.771,0,0,0,0, ,0,0,0,0,0, ,990.9,10.7,28.6,-0.8,-0.6,-1.5,25,990.779,11.0686,29.8403,-0.665296,-0.434855,-1.86307,
2026_07_06_21_53_58.894,3.872,44.9,0,0.769,0,0,0,0, ,0,0,0,0,0, ,991.4,9.8,30.3,-0.7,-1,-1.7,25,990.802,11.0188,29.8166,-0.670458,-0.457106,-1.84704,
2026_07_06_21_53_58.915,3.872,44.9,0,0.771,0,0,0,0, ,0,0,0,0,0, ,991.2,11.3,29.4,-0.7,-0.5,-1.8,25,990.832,10.9902,29.8186,-0.672258,-0.474954,-1.84112,
2026_07_06_21_53_58.933,3.872,44.8,0,0.771,0,0,0,0, ,0,0,0,0,0, ,990.8,10,34.1,-0.8,-0.8,-1.7,25,990.843,10.9695,29.9363,-0.676995,-0.485621,-1.83557,
2026_07_06_21_53_58.953,3.872,44.9,0,0.771,0,0,0,0, ,0,0,0,0,0, ,990.7,10,30.3,-0.7,-1.6,-1.8,25,990.837,10.9104,30.0742,-0.681444,-0.529153,-1.83036,
2026_07_06_21_53_58.973,3.872,44.9,0,0.771,0,0,0,0, ,0,0,0,0,0, ,991.6,10.3,25.7,-0.8,-0.9,-1.7,25,990.856,10.8641,29.9478,-0.685622,-0.57308,-1.82546,
2026_07_06_21_53_58.993,3.872,44.9,0,0.769,0,0,0,0, ,0,0,0,0,0, ,991,11.3,27.8,-0.7,0,-1.9,25,990.883,10.8601,29.753,-0.689545,-0.56558,-1.82391,
2026_07_06_21_53_59.013,3.872,44.9,0,0.771,0,0,0,0, ,0,0,0,0,0, ,990.7,12.3,35.2,-0.6,-0.4,-1.7,25,990.881,10.9174,29.8594,-0.687135,-0.543302,-1.82245,
2026_07_06_21_53_59.033,3.872,44.8,0,0.771,0,0,0,0, ,0,0,0,0,0, ,990.4,8.6,29.9,-0.7,-0.8,-1.8,25,990.861,10.8889,30.0234,-0.684872,-0.546757,-1.81804,
2026_07_06_21_53_59.053,3.872,44.9,0,0.769,0,0,0,0, ,0,0,0,0,0, ,991.4,23.4,26.9,0.4,-2.1,-2.7,25,990.863,11.2004,29.9245,-0.652278,-0.601799,-1.84436,
2026_07_06_21_53_59.073,3.872,44.9,0,0.771,0,0,0,0, ,0,0,0,0,0, ,989.8,30.5,24.7,-3.5,-0.9,-3.4,25,990.847,12.1601,29.6731,-0.706983,-0.656533,-1.91783,
2026_07_06_21_53_59.092,3.872,44.9,0,0.77,0,0,0,0, ,0,0,0,0,0, ,994.9,-13.1,38.4,0.4,-3.4,-6.9,25,990.939,11.9493,29.7875,-0.758355,-0.747541,-2.11479,
2026_07_06_21_53_59.113,3.872,44.8,0,0.769,0,0,0,0, ,0,0,0,0,0, ,989.5,54.9,-15.9,0.9,1.2,-1.8,25,991.016,12.4947,28.6579,-0.672533,-0.769019,-2.251,
2026_07_06_21_53_59.132,3.872,44.9,0,0.771,0,0,0,0, ,0,0,0,0,0, ,1004.1,75.3,18,-5,15.8,-13.5,25,991.368,15.7004,26.9755,-0.756472,-0.204188,-2.58,
2026_07_06_21_53_59.152,3.872,44.8,0,0.769,0,0,0,0, ,0,0,0,0,0, ,1008.1,84.2,6.9,-5.1,19.4,-21.3,25,992.266,19.6034,26.0904,-1.01811,0.880754,-3.48309,
2026_07_06_21_53_59.171,3.872,44.8,0,0.771,0,0,0,0, ,0,0,0,0,0, ,1246.2,107.4,21.6,-12.4,16.9,-17.4,25,1000.49,24.2466,25.3688,-1.48927,1.9331,-4.44998,
2026_07_06_21_53_59.192,3.872,44.8,0,0.771,0,0,0,0, ,0,0,0,0,0, ,1291.5,121.7,-66.8,-1.6,19.5,31.7,25,1016.84,29.7495,22.4457,-1.82508,2.92436,-3.74311,
2026_07_06_21_53_59.211,3.872,44.8,0,0.769,0,0,0,0, ,0,0,0,0,0, ,1212.7,-33.9,45,8.8,32.2,39,25,1031.18,30.6118,20.4137,-1.49449,4.32139,-1.36087,
2026_07_06_21_53_59.232,3.872,44.8,0,0.771,0,0,0,0, ,0,0,0,0,0, ,1105.5,27.2,142.2,3.1,24.3,23.3,25,1038.97,28.5422,24.8735,-1.04084,5.77954,0.62026,
2026_07_06_21_53_59.250,3.872,44.8,0,0.772,0,0,0,0, ,0,0,0,0,0, ,1141.6,49.1,89.9,-5.2,5.5,29.4,25,1044.12,29.1277,30.4296,-1.0414,6.33532,2.18817,
2026_07_06_21_53_59.270,3.872,44.8,0,0.771,0,0,0,0, ,0,0,0,0,0, ,1132.3,14.2,70.4,7.9,-1.4,22.7,25,1049.78,29.2814,33.4594,-0.895674,6.07418,3.64225,
2026_07_06_21_53_59.290,3.872,44.8,0,0.769,0,0,0,0, ,0,0,0,0,0, ,1020.3,-93.3,129.1,16,-14.1,16.1,25,1051.4,25.087,37.499,-0.112891,5.23177,4.60248,
2026_07_06_21_53_59.311,3.872,44.7,0,0.768,0,0,0,0, ,0,0,0,0,0, ,1238.2,-29.4,87.6,4.1,5.8,9.1,25,1056.14,19.8197,41.8165,0.50641,4.66007,5.08983,
2026_07_06_21_53_59.329,3.872,44.8,0,0.769,0,0,0,0, ,0,0,0,0,0, ,1120.3,-17.3,77.8,0,0.7,12.4,25,1063.64,17.1891,44.3078,0.600473,4.57415,5.43475,
2026_07_06_21_53_59.349,3.872,44.8,0,0.77,0,0,0,0, ,0,0,0,0,0, ,1169.1,-27.9,105.8,8.9,4.8,1.4,25,1068.58,14.7644,47.2019,0.835053,4.46299,5.52404,
2026_07_06_21_53_59.369,3.872,44.8,0,0.771,0,0,0,0, ,0,0,0,0,0, ,1123.1,-3.1,127.1,-1.9,11.6,-8.9,25,1073.31,12.9202,51.4217,0.997449,4.69071,4.9589,
2026_07_06_21_53_59.390,3.872,44.8,0,0.769,0,0,0,0, ,0,0,0,0,0, ,1164.4,-40.6,112.3,4.6,17.8,-18.2,25,1077.6,10.8014,55.5824,1.01893,5.30065,3.83102,
2026_07_06_21_53_59.409,3.872,44.8,0,0.772,0,0,0,0, ,0,0,0,0,0, ,1176.5,-13.7,136.1,-0.5,13.9,-15.6,25,1083.26,8.48872,59.7638,1.08176,5.9435,2.56772,
2026_07_06_21_53_59.433,3.872,44.8,0,0.772,0,0,0,0, ,0,0,0,0,0, ,1193.6,-33.6,144.7,-2.9,20,-11.7,25,1089.46,6.53027,64.6776,0.912249,6.61421,1.57945,
2026_07_06_21_53_59.453,3.872,44.8,0,0.771,0,0,0,0, ,0,0,0,0,0, ,1198.1,-37.4,152.7,-8.9,22,-2.9,25,1095.94,3.96905,69.7977,0.497128,7.49084,1.03836,
2026_07_06_21_53_59.474,3.872,44.8,0,0.771,0,0,0,0, ,0,0,0,0,0, ,1173.5,-31,93.9,-11,16.3,5.6,25,1101.42,1.64312,73.058,-0.139494,8.20132,1.05735,
2026_07_06_21_53_59.488,3.872,44.8,0,0.769,0,0,0,0, ,0,0,0,0,0, ,1099.9,-0.6,129,-3.4,27.6,5.2,25,1103.57,0.580183,75.3975,-0.569744,9.03913,1.32198,
2026_07_06_21_53_59.510,3.872,44.8,0,0.771,0,0,0,0, ,0,0,0,0,0, ,1068.2,-16.7,144,-7.1,21.8,5,25,1102.38,0.0177184,79.1209,-0.854947,9.99347,1.5522,
2026_07_06_21_53_59.528,3.872,44.8,0,0.769,0,0,0,0, ,0,0,0,0,0, ,1062.5,-28.6,145,-8.2,18.3,1.5,25,1100.12,-1.3636,83.105,-1.26902,10.6063,1.65566,
2026_07_06_21_53_59.547,3.872,44.8,0,0.77,0,0,0,0, ,0,0,0,0,0, ,1033.9,-33,145.1,-8.1,18.7,3.7,25,1096.96,-3.15738,86.8797,-1.68833,11.0873,1.71321,
2026_07_06_21_53_59.567,3.872,44.8,0,0.771,0,0,0,0, ,0,0,0,0,0, ,999,-31.3,186.1,-7.3,19.3,1.7,25,1092.05,-4.92411,91.6767,-2.05467,11.5695,1.77334,
2026_07_06_21_53_59.589,3.872,44.8,0,0.77,0,0,0,0, ,0,0,0,0,0, ,951.7,-32.9,200.9,-14.7,11.6,2.2,25,1084.94,-6.58014,97.8816,-2.59977,11.806,1.78411,
2026_07_06_21_53_59.607,3.872,44.8,0,0.77,0,0,0,0, ,0,0,0,0,0, ,907.1,-33.8,198.3,-17.4,3.3,-5.9,25,1075.46,-8.21143,104.08,-3.4194,11.5405,1.56265,
2026_07_06_21_53_59.628,3.872,44.7,0,0.771,0,0,0,0, ,0,0,0,0,0, ,912.8,-43.3,185.6,-24.2,-6.5,-8.6,25,1065.38,-10.0602,109.435,-4.47853,10.7398,1.02563,
2026_07_06_21_53_59.647,3.872,44.7,0,0.771,0,0,0,0, ,0,0,0,0,0, ,957.8,-62.2,160.5,-23.2,-6.1,-5.7,25,1057.45,-12.6616,113.311,-5.64983,9.70141,0.52743,
2026_07_06_21_53_59.669,3.872,44.8,0,0.772,0,0,0,0, ,0,0,0,0,0, ,947.8,-58.3,170.5,-23.1,-4.8,4.6,25,1051.07,-15.5615,116.491,-6.71625,8.77812,0.461774,
2026_07_06_21_53_59.686,3.872,44.7,0,0.772,0,0,0,0, ,0,0,0,0,0, ,921,-55.9,162.9,-20.7,-8.2,7.4,25,1043.96,-18.0928,119.551,-7.64151,7.84711,0.799259,
2026_07_06_21_53_59.706,3.872,44.7,0,0.77,0,0,0,0, ,0,0,0,0,0, ,897.9,-58.1,150.7,-16.8,-6.2,10.3,25,1035.77,-20.4637,121.821,-8.31843,6.93017,1.28985,
2026_07_06_21_53_59.726,3.872,44.8,0,0.77,0,0,0,0, ,0,0,0,0,0, ,856,-51.5,176.7,-18.3,-6.2,10.7,25,1026.09,-22.556,124.373,-8.88098,6.13005,1.85109,
2026_07_06_21_53_59.747,3.872,44.8,0,0.771,0,0,0,0, ,0,0,0,0,0, ,864.9,-70.1,152.9,-22.1,-12.1,9.1,25,1016,-24.8865,126.836,-9.57073,5.19893,2.34157,
2026_07_06_21_53_59.765,3.872,44.8,0,0.771,0,0,0,0, ,0,0,0,0,0, ,889.8,-73.9,92.5,-20.3,-13.1,12.2,25,1007.55,-27.7575,126.584,-10.2794,4.1143,2.84787,
2026_07_06_21_53_59.786,3.872,44.7,0,0.769,0,0,0,0, ,0,0,0,0,0, ,855.4,-83.2,92.1,-9.4,0.4,8,25,999.323,-30.8527,124.495,-10.5579,3.47664,3.2898,
2026_07_06_21_53_59.804,3.872,44.7,0,0.769,0,0,0,0, ,0,0,0,0,0, ,819.4,-68.2,174.5,-8.2,9.3,2.3,25,989.456,-33.5856,125.032,-10.4508,3.56033,3.40315,
2026_07_06_21_53_59.826,3.872,44.7,0,0.771,0,0,0,0, ,0,0,0,0,0, ,800.4,-43.4,189.2,-19.6,-2.6,5,25,978.514,-34.9393,128.494,-10.661,3.54751,3.41819,
2026_07_06_21_53_59.845,3.872,44.7,0,0.772,0,0,0,0, ,0,0,0,0,0, ,846.4,-120.9,164.1,-16.7,-5.5,5.7,25,969.062,-37.8162,131.429,-11.1173,3.08454,3.53591,
2026_07_06_21_53_59.866,3.872,44.7,0,0.771,0,0,0,0, ,0,0,0,0,0, ,884,-115.2,141.9,-24.5,-16.3,9.1,25,962.733,-42.7054,132.743,-11.6952,2.23235,3.77138,
2026_07_06_21_53_59.884,3.872,44.7,0,0.769,0,0,0,0, ,0,0,0,0,0, ,886.4,-108.3,109,-21.9,-11.1,10.5,25,958.008,-46.9128,132.299,-12.3963,1.26148,4.13875,
2026_07_06_21_53_59.906,3.872,44.6,0,0.769,0,0,0,0, ,0,0,0,0,0, ,863.4,-114.9,104.7,-21.6,-9.1,11,25,952.944,-50.8547,130.748,-12.9663,0.569136,4.54162,
2026_07_06_21_53_59.923,3.872,44.8,0,0.77,0,0,0,0, ,0,0,0,0,0, ,848.8,-132.2,88.2,-17.5,-3.8,5.2,25,947.042,-55.2846,128.658,-13.3675,0.141407,4.75846,
2026_07_06_21_53_59.945,3.872,44.7,0,0.771,0,0,0,0, ,0,0,0,0,0, ,850.2,-128.9,86.1,-14,-4.4,0.4,25,941.098,-59.871,126.128,-13.5126,-0.117054,4.63912,
2026_07_06_21_53_59.963,3.872,44.7,0,0.772,0,0,0,0, ,0,0,0,0,0, ,891.6,-124.6,89.5,-9.4,-6.2,-4.7,25,936.821,-63.9465,123.793,-13.4022,-0.432889,4.22541,
2026_07_06_21_53_59.986,3.872,44.7,0,0.769,0,0,0,0, ,0,0,0,0,0, ,941.7,-117.9,75.5,-7,-3.5,-2.8,25,935.592,-67.4384,121.277,-13.0852,-0.702057,3.73941,
2026_07_06_21_54_00.003,3.872,44.6,0,0.769,0,0,0,0, ,0,0,0,0,0, ,958.2,-134,68.1,-3.5,2.3,-0.4,25,936.467,-71.004,118.262,-12.6077,-0.695838,3.41404,
2026_07_06_21_54_00.025,3.872,44.6,0,0.771,0,0,0,0, ,0,0,0,0,0, ,899.9,-90.6,64.2,-4.1,-1.2,7.9,25,936.015,-73.5204,115.086,-12.071,-0.61992,3.43451,
2026_07_06_21_54_00.042,3.872,44.7,0,0.772,0,0,0,0, ,0,0,0,0,0, ,860.2,-74.5,106.3,-3.9,-6.6,2,25,932.604,-74.0707,113.268,-11.5792,-0.8198,3.52686,
2026_07_06_21_54_00.064,3.872,44.6,0,0.771,0,0,0,0, ,0,0,0,0,0, ,913.3,-88.7,116.9,-3.3,-15.1,-2.6,25,929.81,-74.5295,113.166,-11.0929,-1.43101,3.29366,
2026_07_06_21_54_00.082,3.872,44.7,0,0.768,0,0,0,0, ,0,0,0,0,0, ,960.8,-102.7,125.8,-3.5,-11.7,3,25,930.251,-75.8196,113.665,-10.6242,-2.16037,3.10514,
2026_07_06_21_54_00.104,3.872,44.6,0,0.769,0,0,0,0, ,0,0,0,0,0, ,925.7,-99.4,125.8,-7.8,-7.9,11,25,931.043,-77.3571,114.404,-10.321,-2.62591,3.34248,
2026_07_06_21_54_00.121,3.872,44.6,0,0.77,0,0,0,0, ,0,0,0,0,0, ,874.1,-96.9,105.1,-8,-8.5,7.4,25,929.146,-78.6241,114.468,-10.1735,-2.96559,3.69942,
2026_07_06_21_54_00.144,3.872,44.6,0,0.771,0,0,0,0, ,0,0,0,0,0, ,885.2,-105.1,114.5,-8.1,-10.8,4.5,25,926.129,-79.9877,114.184,-10.0441,-3.37292,3.83657,
2026_07_06_21_54_00.161,3.872,44.6,0,0.771,0,0,0,0, ,0,0,0,0,0, ,879.6,-118.7,85.6,-6.9,-9.9,5.1,25,923.465,-81.9323,113.322,-9.88908,-3.79808,3.89528,
2026_07_06_21_54_00.184,3.872,44.6,0,0.771,0,0,0,0, ,0,0,0,0,0, ,858.6,-121.4,48.5,-2.4,-3.8,5,25,920.152,-84.2551,110.503,-9.56982,-3.98406,3.96564,
2026_07_06_21_54_00.200,3.872,44.7,0,0.771,0,0,0,0, ,0,0,0,0,0, ,852.7,-121.4,33.9,0.8,-5.2,2.9,25,916.221,-86.5186,106.28,-9.03541,-4.0155,3.96469,
2026_07_06_21_54_00.223,3.872,44.6,0,0.771,0,0,0,0, ,0,0,0,0,0, ,866.5,-123.4,61.5,2.4,-6.3,-2.1,25,912.771,-88.7051,102.71,-8.38731,-4.1212,3.74747,
2026_07_06_21_54_00.240,3.872,44.6,0,0.769,0,0,0,0, ,0,0,0,0,0, ,886.3,-121.3,86.9,-0.6,-0.1,-3.7,25,910.554,-90.7554,100.973,-7.82137,-4.06506,3.34239,
2026_07_06_21_54_00.262,3.872,44.6,0,0.771,0,0,0,0, ,0,0,0,0,0, ,903.4,-129.7,69.7,-5.1,2.9,-3,25,909.597,-92.8726,99.5909,-7.51843,-3.73203,2.93457,
2026_07_06_21_54_00.280,3.872,44.6,0,0.771,0,0,0,0, ,0,0,0,0,0, ,914.4,-136.1,41.6,-6.4,1.8,-2.8,25,909.555,-95.3118,96.9133,-7.41066,-3.36141,2.57903,
2026_07_06_21_54_00.302,3.872,44.6,0,0.769,0,0,0,0, ,0,0,0,0,0, ,919.3,-124.6,19.7,-5.2,-2.8,-2.8,25,910,-97.4469,92.8754,-7.31251,-3.18704,2.25124,
2026_07_06_21_54_00.320,3.872,44.6,0,0.772,0,0,0,0, ,0,0,0,0,0, ,912.5,-110.4,31,-2,-6.3,-6.1,25,910.359,-98.6689,88.7605,-7.08628,-3.2701,1.84288,
2026_07_06_21_54_00.342,3.872,44.6,0,0.771,0,0,0,0, ,0,0,0,0,0, ,938.4,-123.6,42.9,1,-5.6,-9.7,25,911.279,-99.786,85.6033,-6.68493,-3.4334,1.24918,
2026_07_06_21_54_00.359,3.872,44.6,0,0.771,0,0,0,0, ,0,0,0,0,0, ,953.1,-135.3,38,2.8,-2.8,-7,25,913.379,-101.594,82.8518,-6.16179,-3.48012,0.664228,
2026_07_06_21_54_00.382,3.872,44.6,0,0.771,0,0,0,0, ,0,0,0,0,0, ,929.3,-119.9,61.8,5,-0.4,-4.6,25,915.075,-103.178,80.8438,-5.54865,-3.36555,0.270314,
2026_07_06_21_54_00.399,3.872,44.5,0,0.771,0,0,0,0, ,0,0,0,0,0, ,933.5,-104.8,72.7,3.5,-4.9,-8.1,25,916.069,-103.737,80.0154,-4.95154,-3.32194,-0.133111,
2026_07_06_21_54_00.421,3.872,44.6,0,0.769,0,0,0,0, ,0,0,0,0,0, ,976.6,-116.8,68.7,4.5,-6.3,-10.2,25,918.445,-104.168,79.4478,-4.40606,-3.46076,-0.682578,
2026_07_06_21_54_00.438,3.872,44.6,0,0.769,0,0,0,0, ,0,0,0,0,0, ,981.2,-113.6,92.5,3.1,-1.9,-6.6,25,922.129,-104.84,79.518,-3.906,-3.49972,-1.15286,
2026_07_06_21_54_00.460,3.872,44.6,0,0.769,0,0,0,0, ,0,0,0,0,0, ,951.7,-100.3,103.7,-0.9,1.7,-5,25,924.83,-104.969,80.6503,-3.60095,-3.29255,-1.43604,
2026_07_06_21_54_00.477,3.872,44.6,0,0.769,0,0,0,0, ,0,0,0,0,0, ,949.9,-90.4,78,-2.8,0.1,-7.8,25,926.412,-104.382,81.2719,-3.49425,-3.03706,-1.73853,
2026_07_06_21_54_00.500,3.872,44.6,0,0.771,0,0,0,0, ,0,0,0,0,0, ,1008.3,-126.5,71.7,-1.8,-4.1,-14.1,25,929.623,-104.63,80.8805,-3.42147,-2.97387,-2.29986,
2026_07_06_21_54_00.517,3.872,44.6,0,0.771,0,0,0,0, ,0,0,0,0,0, ,1002.9,-118.8,88.7,-5.6,-7,-5.2,25,934.253,-105.728,80.8391,-3.43845,-3.13085,-2.74776,
2026_07_06_21_54_00.540,3.872,44.6,0,0.769,0,0,0,0, ,0,0,0,0,0, ,995.9,-68.3,63.3,-3.1,-7.3,-8.5,25,938.223,-104.986,80.5442,-3.49399,-3.37577,-2.99774,
2026_07_06_21_54_00.557,3.872,44.5,0,0.769,0,0,0,0, ,0,0,0,0,0, ,1001,-86.9,65.9,-0.1,-2.9,-7.3,25,941.893,-103.317,79.5726,-3.37858,-3.48084,-3.29647,
2026_07_06_21_54_00.580,3.872,44.6,0,0.771,0,0,0,0, ,0,0,0,0,0, ,997.4,-89.4,84.9,0.3,1.5,-5.8,25,945.385,-102.393,79.3183,-3.1666,-3.31138,-3.49473,
2026_07_06_21_54_00.596,3.872,44.5,0,0.768,0,0,0,0, ,0,0,0,0,0, ,977.1,-79.8,78,-2.6,3.5,-3.6,25,947.936,-101.309,79.4482,-3.04372,-2.95725,-3.56818,
2026_07_06_21_54_00.619,3.872,44.6,0,0.769,0,0,0,0, ,0,0,0,0,0, ,964.7,-62.9,71.4,-1.8,2.7,-5.1,25,949.335,-99.4832,79.1589,-2.9923,-2.58814,-3.61582,
2026_07_06_21_54_00.637,3.872,44.5,0,0.769,0,0,0,0, ,0,0,0,0,0, ,966.4,-71.6,70.3,-3.6,-0.6,-5.9,25,950.323,-97.519,78.6526,-2.97449,-2.36644,-3.73064,
2026_07_06_21_54_00.659,3.872,44.5,0,0.771,0,0,0,0, ,0,0,0,0,0, ,968,-76.9,57.9,-3.9,1.7,-4.6,25,951.352,-96.1011,77.7658,-3.02175,-2.18872,-3.82322,
2026_07_06_21_54_00.676,3.872,44.5,0,0.769,0,0,0,0, ,0,0,0,0,0, ,946.7,-76.5,47.6,-3.4,4.2,-2.9,25,951.717,-94.9188,76.2414,-3.06003,-1.87558,-3.81876,
2026_07_06_21_54_00.700,3.872,44.5,0,0.771,0,0,0,0, ,0,0,0,0,0, ,918.8,-70.1,31.7,-2.4,3.9,-2.4,25,950.562,-93.6014,74.0116,-3.05028,-1.51449,-3.74754,
2026_07_06_21_54_00.716,3.872,44.5,0,0.771,0,0,0,0, ,0,0,0,0,0, ,889.7,-75.5,25.1,0.2,3.9,-4.2,25,947.739,-92.3338,71.2321,-2.93143,-1.18454,-3.72027,
2026_07_06_21_54_00.738,3.872,44.5,0,0.769,0,0,0,0, ,0,0,0,0,0, ,862.5,-84.7,23.9,2.7,3.8,-7.3,25,943.374,-91.5883,68.3844,-2.66444,-0.877749,-3.84395,
2026_07_06_21_54_00.755,3.872,44.5,0,0.769,0,0,0,0, ,0,0,0,0,0, ,834.3,-97,27.8,4.3,5.6,-8.4,25,937.586,-91.5433,65.7924,-2.2888,-0.537855,-4.08807,
2026_07_06_21_54_00.785,3.872,44.6,0,0.769,0,0,0,0, ,0,0,0,0,0, ,782.9,-101.6,29.4,5.2,7.2,-7.2,25,929.726,-92.016,63.526,-1.85987,-0.115079,-4.31427,
2026_07_06_21_54_00.795,3.872,44.4,0,0.769,0,0,0,0, ,0,0,0,0,0, ,728.1,-94.2,38.2,4.6,7.8,-8.9,25,919.109,-92.3746,61.7146,-1.44794,0.348964,-4.54191,
2026_07_06_21_54_00.818,3.872,44.5,0,0.771,0,0,0,0, ,0,0,0,0,0, ,702.1,-77.2,54,4.7,6.7,-14.2,25,906.678,-91.9678,60.7631,-1.07635,0.769496,-4.96897,
2026_07_06_21_54_00.834,3.872,44.5,0,0.769,0,0,0,0, ,0,0,0,0,0, ,704.4,-88.5,79.9,5,8.5,-19.9,25,894.281,-91.4122,61.1401,-0.71521,1.18573,-5.70516,
2026_07_06_21_54_00.858,3.872,44.5,0,0.769,0,0,0,0, ,0,0,0,0,0, ,702.8,-93,86.7,4.9,11.1,-22.9,25,882.662,-91.3719,62.4905,-0.369986,1.71066,-6.66156,
2026_07_06_21_54_00.874,3.872,44.4,0,0.771,0,0,0,0, ,0,0,0,0,0, ,689,-76,96.9,5.6,12.8,-27,25,871.281,-90.9531,64.2765,-0.0275181,2.33462,-7.77601,
2026_07_06_21_54_00.898,3.872,44.5,0,0.771,0,0,0,0, ,0,0,0,0,0, ,715,-80,116.2,6.1,6.5,-37.2,25,860.965,-90.1638,66.8526,0.330643,2.7804,-9.25826,
2026_07_06_21_54_00.913,3.872,44.4,0,0.771,0,0,0,0, ,0,0,0,0,0, ,764.1,-39.5,133.3,1.2,2.5,-40.1,25,853.567,-88.3104,70.3807,0.532916,2.88519,-11.0493,
2026_07_06_21_54_00.936,3.872,44.4,0,0.771,0,0,0,0, ,0,0,0,0,0, ,800.9,-62,127.5,-2.5,15.9,-36.3,25,849.236,-86.0216,74.0381,0.460832,3.27,-12.7038,
2026_07_06_21_54_00.953,3.872,44.4,0,0.769,0,0,0,0, ,0,0,0,0,0, ,738.5,-60.1,89.5,-5.5,36.8,-25.7,25,844.389,-84.4999,76.1381,0.189001,4.67644,-13.8187,
2026_07_06_21_54_00.976,3.872,44.5,0,0.769,0,0,0,0, ,0,0,0,0,0, ,683.8,26.8,106.2,-7.4,37.6,-33.8,25,836.27,-80.3653,77.4612,-0.215564,6.65834,-14.7895,
2026_07_06_21_54_00.992,3.872,44.5,0,0.769,0,0,0,0, ,0,0,0,0,0, ,762,50.6,90.8,-8.3,21.4,-45.3,25,829.361,-73.1098,78.7432,-0.680787,8.05025,-16.2984,
2026_07_06_21_54_01.015,3.872,44.5,0,0.771,0,0,0,0, ,0,0,0,0,0, ,876,0.9,48.4,-4.6,19.7,-40.8,25,828.73,-67.0855,78.1861,-1.03235,8.81196,-17.9286,
2026_07_06_21_54_01.032,3.872,44.4,0,0.772,0,0,0,0, ,0,0,0,0,0, ,857.9,-11.9,53.8,9.3,28.3,-34.3,25,831.059,-63.3326,76.5355,-0.826237,9.73748,-19.1242,
2026_07_06_21_54_01.055,3.872,44.4,0,0.771,0,0,0,0, ,0,0,0,0,0, ,792.9,32.7,99.8,21.2,21.5,-35.8,25,830.714,-58.8395,76.5516,0.153409,10.6614,-20.0947,
2026_07_06_21_54_01.072,3.872,44.5,0,0.771,0,0,0,0, ,0,0,0,0,0, ,757.5,71,121.7,27,12.5,-35.4,25,827.331,-52.0944,78.6356,1.61265,11.0477,-21.0396,
2026_07_06_21_54_01.095,3.872,44.5,0,0.771,0,0,0,0, ,0,0,0,0,0, ,727.5,137,219.2,25,0.8,-48.8,25,822.162,-42.5824,84.2305,3.09876,10.7797,-22.3229,
2026_07_06_21_54_01.111,3.872,44.4,0,0.769,0,0,0,0, ,0,0,0,0,0, ,907.7,159,283.5,13,-12.8,-71.5,25,821.884,-30.9688,94.4144,4.06774,9.7572,-24.628,
2026_07_06_21_54_01.134,3.872,44.4,0,0.771,0,0,0,0, ,0,0,0,0,0, ,1112.6,97.9,257.3,5.9,17.3,-55,25,833.356,-21.2542,105.139,4.39572,9.29973,-26.9816,
2026_07_06_21_54_01.151,3.872,44.4,0,0.769,0,0,0,0, ,0,0,0,0,0, ,1069.4,119.6,259.2,5.8,66.9,-18.7,25,849.057,-13.3321,114.469,4.48434,11.2985,-27.5829,
2026_07_06_21_54_01.175,3.872,44.4,0,0.769,0,0,0,0, ,0,0,0,0,0, ,970,195.5,275.6,3.2,67.5,-18.3,25,859.455,-2.91894,123.788,4.4853,14.705,-27.0294,
2026_07_06_21_54_01.191,3.872,44.4,0,0.769,0,0,0,0, ,0,0,0,0,0, ,1032.8,232.5,247.3,4.5,31.7,-35.4,25,868.105,10.2996,132.177,4.44658,16.8314,-27.0185,
2026_07_06_21_54_01.216,3.872,44.5,0,0.769,0,0,0,0, ,0,0,0,0,0, ,1107.9,213.2,273.8,8.9,19.7,-37.8,25,880.429,23.2518,140,4.5839,17.3718,-27.6024,
2026_07_06_21_54_01.230,3.872,44.5,0,0.769,0,0,0,0, ,0,0,0,0,0, ,1244,182.7,338,5.3,6.7,-21.6,25,898.438,33.8975,150.109,4.73722,17.1176,-27.7302,
2026_07_06_21_54_01.254,3.872,44.4,0,0.771,0,0,0,0, ,0,0,0,0,0, ,1271.6,209.8,285.2,5.7,6.9,1,25,920.336,43.7909,159.95,4.78371,16.4889,-26.668,
2026_07_06_21_54_01.270,3.872,44.5,0,0.771,0,0,0,0, ,0,0,0,0,0, ,1206,241.2,289.6,12.5,12,9.6,25,939.743,54.8638,167.716,5.04673,16.06,-24.72,
2026_07_06_21_54_01.293,3.872,44.4,0,0.771,0,0,0,0, ,0,0,0,0,0, ,1177.4,197.2,332.6,13,13.3,9.1,25,955.096,64.878,176.454,5.51615,15.8522,-22.6438,
2026_07_06_21_54_01.309,3.872,44.4,0,0.769,0,0,0,0, ,0,0,0,0,0, ,1162.4,206.1,331.2,10.5,21.4,17,25,968.186,73.2125,185.926,5.89602,15.9434,-20.4688,
2026_07_06_21_54_01.333,3.872,44.4,0,0.769,0,0,0,0, ,0,0,0,0,0, ,1116.3,217.8,372.6,9,29.1,18.8,25,978.616,81.6669,196.04,6.13088,16.5106,-18.1307,
2026_07_06_21_54_01.348,3.872,44.4,0,0.771,0,0,0,0, ,0,0,0,0,0, ,1076.7,206.7,379.3,6.5,19.2,21.2,25,985.8,89.6243,207.004,6.22954,16.9761,-15.8071,
2026_07_06_21_54_01.372,3.872,44.5,0,0.769,0,0,0,0, ,0,0,0,0,0, ,1061.5,200.6,333.2,0,-2.3,22.1,25,990.876,96.5727,216.098,6.04798,16.4565,-13.5245,
2026_07_06_21_54_01.388,3.872,44.4,0,0.77,0,0,0,0, ,0,0,0,0,0, ,1050.4,220.4,293.4,-1,-23.4,16,25,994.841,103.515,222.022,5.64896,14.6707,-11.5395,
2026_07_06_21_54_01.413,3.872,44.3,0,0.771,0,0,0,0, ,0,0,0,0,0, ,1096.6,217.2,309.8,2.4,-39.2,0.5,25,999.635,110.54,226.871,5.34738,11.8693,-10.3336,
2026_07_06_21_54_01.428,3.872,44.4,0,0.77,0,0,0,0, ,0,0,0,0,0, ,1166.7,199.5,289.1,2.7,-42.8,-7.4,25,1007.68,116.501,231.294,5.17692,8.6476,-9.91413,
2026_07_06_21_54_01.451,3.872,44.4,0,0.769,0,0,0,0, ,0,0,0,0,0, ,1185,189.9,231.8,2.8,-35.9,-8.8,25,1017.93,121.266,233.07,5.02903,5.72275,-9.80358,
2026_07_06_21_54_01.467,3.872,44.5,0,0.771,0,0,0,0, ,0,0,0,0,0, ,1176.2,208.9,225.2,5,-32.5,-7.9,25,1027.84,126.027,232.792,4.96023,3.28995,-9.715,
2026_07_06_21_54_01.491,3.872,44.4,0,0.77,0,0,0,0, ,0,0,0,0,0, ,1171.3,196.4,227.7,5.6,-35.6,-4.5,25,1036.73,130.696,232.405,4.98093,1.01455,-9.5008,
2026_07_06_21_54_01.507,3.872,44.4,0,0.771,0,0,0,0, ,0,0,0,0,0, ,1161.4,187.9,245.3,3.1,-41.2,-2.7,25,1044.63,134.441,232.655,4.94248,-1.38727,-9.14122,
2026_07_06_21_54_01.532,3.872,44.4,0,0.77,0,0,0,0, ,0,0,0,0,0, ,1160.8,178.4,213.1,-3.1,-44.1,-1.1,25,1051.73,137.409,232.444,4.6413,-3.90172,-8.69996,
2026_07_06_21_54_01.546,3.872,44.4,0,0.77,0,0,0,0, ,0,0,0,0,0, ,1166,160.5,154.6,-2,-36.3,4.9,25,1058.53,139.362,229.483,4.20308,-6.11365,-8.05403,
2026_07_06_21_54_01.572,3.872,44.4,0,0.77,0,0,0,0, ,0,0,0,0,0, ,1113.8,145.5,140.8,4.1,-18.7,11.3,25,1063.49,140.193,224.499,4.01094,-7.41688,-7.06964,
2026_07_06_21_54_01.587,3.872,44.4,0,0.771,0,0,0,0, ,0,0,0,0,0, ,1024.2,141.6,184.3,5,-13.7,11.9,25,1063.83,140.398,220.724,4.04379,-7.9521,-5.93196,
2026_07_06_21_54_01.611,3.872,44.4,0,0.77,0,0,0,0, ,0,0,0,0,0, ,982.2,141.3,186.4,0.2,-19.7,3.7,25,1060.13,140.462,218.569,3.95581,-8.48517,-5.09517,
2026_07_06_21_54_01.626,3.872,44.3,0,0.771,0,0,0,0, ,0,0,0,0,0, ,985.5,130.1,155.8,-4.8,-20.7,-0.9,25,1055.48,140.171,215.676,3.57459,-9.19905,-4.69937,
2026_07_06_21_54_01.662,3.872,44.3,0,0.77,0,0,0,0, ,0,0,0,0,0, ,998.9,114.8,154.9,-7.4,-11.1,0.3,25,1051.63,139.092,212,2.98505,-9.60739,-4.43128,
2026_07_06_21_54_01.667,3.872,44.4,0,0.77,0,0,0,0, ,0,0,0,0,0, ,997.9,114.7,154.4,-11.9,-1.7,2.7,25,1048.38,137.608,208.505,2.2151,-9.41194,-4.06985,
2026_07_06_21_54_01.692,3.872,44.4,0,0.771,0,0,0,0, ,0,0,0,0,0, ,993.7,120.6,114.2,-11.8,1.3,2.4,25,1045.18,136.392,203.983,1.35801,-8.85058,-3.66645,
2026_07_06_21_54_01.705,3.872,44.4,0,0.77,0,0,0,0, ,0,0,0,0,0, ,980.5,124.6,91.4,-3.6,10.9,-1.9,25,1041.64,135.552,197.818,0.806036,-7.93953,-3.42779,
2026_07_06_21_54_01.730,3.872,44.4,0,0.771,0,0,0,0, ,0,0,0,0,0, ,946.6,127.4,148.3,0,15.7,-3.6,25,1036.88,134.97,193.066,0.647231,-6.64525,-3.38649,
2026_07_06_21_54_01.744,3.872,44.4,0,0.77,0,0,0,0, ,0,0,0,0,0, ,953.6,128.6,163.5,-1.1,8.6,-7.7,25,1031.59,134.545,190.802,0.574275,-5.49991,-3.52442,
2026_07_06_21_54_01.768,3.872,44.4,0,0.77,0,0,0,0, ,0,0,0,0,0, ,969.2,130.7,141.9,-0.6,1.4,-7.8,25,1027.32,134.247,188.48,0.487483,-4.86007,-3.78192,
2026_07_06_21_54_01.784,3.872,44.3,0,0.771,0,0,0,0, ,0,0,0,0,0, ,1016.2,141.2,132.8,-0.2,-0.7,-8.3,25,1025.21,134.35,185.364,0.433402,-4.54259,-4.042,
2026_07_06_21_54_01.809,3.872,44.4,0,0.771,0,0,0,0, ,0,0,0,0,0, ,1068.8,144.1,148.4,-1.6,-7.6,-4,25,1026.26,134.856,182.636,0.352148,-4.51866,-4.17046,
2026_07_06_21_54_01.823,3.872,44.4,0,0.77,0,0,0,0, ,0,0,0,0,0, ,1026,156.3,158.5,0.3,-3.3,-0.4,25,1027.55,135.791,180.858,0.29108,-4.57542,-4.05038,
2026_07_06_21_54_01.848,3.872,44.3,0,0.77,0,0,0,0, ,0,0,0,0,0, ,968,136.2,153.1,0.1,0.7,0.6,25,1025.69,136.428,179.331,0.285529,-4.37582,-3.79747,
2026_07_06_21_54_01.863,3.872,44.3,0,0.769,0,0,0,0, ,0,0,0,0,0, ,957.8,134.6,138.3,0.9,4.3,-1.3,25,1021.86,136.366,177.281,0.298599,-3.95683,-3.58739,
2026_07_06_21_54_01.889,3.872,44.2,0,0.77,0,0,0,0, ,0,0,0,0,0, ,936.4,138.1,150,0.8,5.3,-2.1,25,1017.31,136.365,175.262,0.3322,-3.42321,-3.47238,
2026_07_06_21_54_01.904,3.872,44.3,0,0.771,0,0,0,0, ,0,0,0,0,0, ,944.8,132.5,146.7,-1.2,0.5,-3.5,25,1012.63,136.3,173.622,0.299769,-3.03789,-3.4314,
2026_07_06_21_54_01.929,3.872,44.2,0,0.77,0,0,0,0, ,0,0,0,0,0, ,982.5,134.6,139.2,0.4,0.2,-5.5,25,1009.65,136.132,171.753,0.257127,-2.83144,-3.49652,
2026_07_06_21_54_01.942,3.872,44.3,0,0.77,0,0,0,0, ,0,0,0,0,0, ,985.2,134.8,138.7,0,0.8,-2.8,25,1008.07,136.045,169.754,0.253645,-2.62843,-3.53634,
2026_07_06_21_54_01.970,3.872,44.3,0,0.769,0,0,0,0, ,0,0,0,0,0, ,963.5,134.8,154.5,-0.1,1.8,-2.6,25,1006.02,135.969,168.343,0.235142,-2.38904,-3.48538,
2026_07_06_21_54_01.986,3.872,44.3,0,0.771,0,0,0,0, ,0,0,0,0,0, ,977.9,140.1,157.3,-1,-0.8,-3.7,25,1003.87,136.059,167.585,0.187298,-2.21299,-3.46494,
2026_07_06_21_54_02.011,3.872,44.4,0,0.77,0,0,0,0, ,0,0,0,0,0, ,981.4,136.2,150.8,0.1,0.8,-2.2,25,1002.39,136.187,166.76,0.148462,-2.07813,-3.43356,
2026_07_06_21_54_02.022,3.872,44.3,0,0.772,0,0,0,0, ,0,0,0,0,0, ,957.7,136.8,160.5,0.9,1.1,-1.9,25,1000.39,136.206,166.083,0.169884,-1.89361,-3.34925,
2026_07_06_21_54_02.046,3.872,44.2,0,0.77,0,0,0,0, ,0,0,0,0,0, ,958.1,135,164.5,-1.2,-1.8,-2,25,997.801,136.187,165.865,0.150391,-1.79954,-3.26398,
2026_07_06_21_54_02.061,3.872,44.2,0,0.771,0,0,0,0, ,0,0,0,0,0, ,979.4,128.7,147.7,-1.3,-4,-2.8,25,996.03,135.923,165.27,0.0650548,-1.8666,-3.21134,
2026_07_06_21_54_02.085,3.872,44.3,0,0.767,0,0,0,0, ,0,0,0,0,0, ,992.5,132.6,151.6,-0.1,-2.8,-0.8,25,995.416,135.602,164.318,0.0184342,-1.96004,-3.12533,
2026_07_06_21_54_02.101,3.872,44.4,0,0.771,0,0,0,0, ,0,0,0,0,0, ,965.9,130,140,0.6,-3.4,0.6,25,994.428,135.34,163.19,0.0325453,-2.02951,-2.94098,
2026_07_06_21_54_02.125,3.872,44.3,0,0.769,0,0,0,0, ,0,0,0,0,0, ,956.4,135.1,143.7,2,-1.7,-0.9,25,992.4,135.17,161.889,0.109781,-2.06123,-2.7709,
2026_07_06_21_54_02.140,3.872,44.3,0,0.771,0,0,0,0, ,0,0,0,0,0, ,984.1,137.2,145.6,0.4,-1.5,-1.3,25,991.05,135.229,160.839,0.176216,-2.03312,-2.66908,
2026_07_06_21_54_02.166,3.872,44.2,0,0.77,0,0,0,0, ,0,0,0,0,0, ,979.4,136.1,146.3,-0.3,-1,-0.5,25,990.484,135.316,159.931,0.168525,-1.9854,-2.56128,
2026_07_06_21_54_02.180,3.872,44.2,0,0.769,0,0,0,0, ,0,0,0,0,0, ,984.4,140.1,151.9,-1.1,-0.9,-0.1,25,989.961,135.486,159.271,0.115599,-1.92231,-2.42348,
2026_07_06_21_54_02.205,3.872,44.3,0,0.77,0,0,0,0, ,0,0,0,0,0, ,1017.2,146.4,146.9,-1.5,0.7,-1.7,25,990.621,135.959,158.67,0.029336,-1.81126,-2.33064,
2026_07_06_21_54_02.220,3.872,44.2,0,0.769,0,0,0,0, ,0,0,0,0,0, ,1057.6,169.9,140.5,0.3,2.3,-5.7,25,993.472,137.311,157.758,-0.0090142,-1.60948,-2.41409,
2026_07_06_21_54_02.245,3.872,44.3,0,0.77,0,0,0,0, ,0,0,0,0,0, ,1152.2,183.8,143.6,-1,3.2,-8.2,25,1000.26,139.72,156.8,-0.029793,-1.34382,-2.6905,
2026_07_06_21_54_02.259,3.872,44.2,0,0.771,0,0,0,0, ,0,0,0,0,0, ,1263.6,179.6,144.5,-4.2,15.2,-5.5,25,1012.91,142.279,156.023,-0.186415,-0.701309,-2.94397,
2026_07_06_21_54_02.284,3.872,44.3,0,0.77,0,0,0,0, ,0,0,0,0,0, ,1352.9,191.5,117.7,-4.9,24.2,1.1,25,1030.91,144.915,154.505,-0.452321,0.541896,-2.89863,
2026_07_06_21_54_02.299,3.872,44.3,0,0.771,0,0,0,0, ,0,0,0,0,0, ,1388.3,203,110.7,0.1,23.5,8.7,25,1051.61,148.104,152.049,-0.571008,1.96223,-2.4234,
2026_07_06_21_54_02.331,3.872,44.2,0,0.77,0,0,0,0, ,0,0,0,0,0, ,1355.5,219.3,175.9,4,15.8,8.2,25,1071.13,151.946,151.516,-0.41129,3.04008,-1.7608,
2026_07_06_21_54_02.338,3.872,44.2,0,0.769,0,0,0,0, ,0,0,0,0,0, ,1311.1,228.8,196.1,1.2,12,4.7,25,1087.11,156.34,153.617,-0.22779,3.70186,-1.26046,
2026_07_06_21_54_02.363,3.872,44.2,0,0.771,0,0,0,0, ,0,0,0,0,0, ,1226.9,237.5,213.6,-0.1,30.8,-2.5,25,1098.19,161.021,156.739,-0.180393,4.78034,-1.11662,
2026_07_06_21_54_02.378,3.872,44.2,0,0.77,0,0,0,0, ,0,0,0,0,0, ,1187,250.6,250.1,0.8,38.3,-16.9,25,1104.82,166.08,161.316,-0.148072,6.59443,-1.63967,
2026_07_06_21_54_02.403,3.872,44.2,0,0.77,0,0,0,0, ,0,0,0,0,0, ,1305.1,236.5,279.4,-3.9,21.9,-24.6,25,1113.42,170.801,167.619,-0.233502,8.0268,-2.8042,
2026_07_06_21_54_02.417,3.872,44.2,0,0.771,0,0,0,0, ,0,0,0,0,0, ,1352.5,229.3,203,-8.1,9,-14.3,25,1126.55,174.585,172.103,-0.584898,8.47915,-3.81856,
2026_07_06_21_54_02.443,3.872,44.2,0,0.769,0,0,0,0, ,0,0,0,0,0, ,1298.9,246.7,209.5,-4.3,14.5,-1.5,25,1138.68,178.45,174.184,-0.927068,8.67847,-4.06727,
2026_07_06_21_54_02.457,3.872,44.2,0,0.769,0,0,0,0, ,0,0,0,0,0, ,1176,263.1,226.3,1.7,26.2,4.8,25,1144.7,183.108,176.848,-0.949794,9.3897,-3.71887,
2026_07_06_21_54_02.484,3.872,44.2,0,0.77,0,0,0,0, ,0,0,0,0,0, ,1042.8,268.1,226.8,5.2,24.9,-6.2,25,1142.55,188.135,179.876,-0.681681,10.3745,-3.53491,
2026_07_06_21_54_02.497,3.872,44.2,0,0.771,0,0,0,0, ,0,0,0,0,0, ,1072.5,232.6,290.2,4.1,8.1,-22.1,25,1137.38,191.926,184.668,-0.356782,10.7477,-4.18177,
2026_07_06_21_54_02.523,3.872,44.1,0,0.771,0,0,0,0, ,0,0,0,0,0, ,1123.6,211.1,316.1,-1.3,-5.4,-18.3,25,1134.98,193.75,191.888,-0.249728,10.1751,-5.15788,
2026_07_06_21_54_02.536,3.872,44.1,0,0.771,0,0,0,0, ,0,0,0,0,0, ,1122.9,203.8,298.4,-1.7,-6.5,-5.1,25,1134.27,194.585,198.917,-0.325917,9.19245,-5.55654,
2026_07_06_21_54_02.562,3.872,44.1,0,0.769,0,0,0,0, ,0,0,0,0,0, ,1069.2,200.4,306.7,-0.1,-4.7,1.1,25,1131.94,195.043,205.233,-0.3609,8.29103,-5.33981,
2026_07_06_21_54_02.576,3.872,44.2,0,0.767,0,0,0,0, ,0,0,0,0,0, ,946.2,206.5,329.1,3.3,2.3,1.9,25,1124.37,195.555,212.098,-0.241408,7.71267,-4.92301,
2026_07_06_21_54_02.601,3.872,44.2,0,0.769,0,0,0,0, ,0,0,0,0,0, ,873.1,212.8,334.9,4.7,5.5,-8.5,25,1111.28,196.414,219.405,0.0170532,7.48034,-4.82411,
2026_07_06_21_54_02.616,3.872,44.2,0,0.771,0,0,0,0, ,0,0,0,0,0, ,918.3,190.4,345.4,-1.7,-3.2,-17,25,1098.15,196.73,226.763,0.10742,7.09458,-5.30709,
2026_07_06_21_54_02.642,3.872,44.1,0,0.771,0,0,0,0, ,0,0,0,0,0, ,977.4,150.3,294.5,-9.2,-16.1,-5.3,25,1088.99,195.122,232.441,-0.231235,6.07421,-5.66314,
2026_07_06_21_54_02.655,3.872,44.2,0,0.771,0,0,0,0, ,0,0,0,0,0, ,982.6,143.5,271.1,-7.7,-12.1,11.7,25,1082.35,192.184,235.51,-0.732066,4.84484,-5.12305,
2026_07_06_21_54_02.681,3.872,44.2,0,0.769,0,0,0,0, ,0,0,0,0,0, ,918.3,140,269.8,-4.2,-0.7,26.6,25,1074.31,189.111,237.639,-1.05003,4.15961,-3.64391,
2026_07_06_21_54_02.695,3.872,44.2,0,0.771,0,0,0,0, ,0,0,0,0,0, ,796.8,172.4,282.8,-1.3,-1.9,32.7,25,1061.1,187.105,239.995,-1.15363,3.82692,-1.61506,
2026_07_06_21_54_02.722,3.872,44.2,0,0.769,0,0,0,0, ,0,0,0,0,0, ,728.7,114.6,320.1,-0.4,-8.5,31.6,25,1042.92,184.448,243.74,-1.13512,3.27684,0.442497,
2026_07_06_21_54_02.734,3.872,44.1,0,0.772,0,0,0,0, ,0,0,0,0,0, ,778,48,236.4,-12.1,-29.9,37,25,1025.27,178.162,245.843,-1.44681,1.90716,2.50569,
2026_07_06_21_54_02.760,3.872,44.2,0,0.771,0,0,0,0, ,0,0,0,0,0, ,760.6,56.3,196.4,-11.4,-31.4,44.8,25,1009.67,170.483,244.049,-2.07466,-0.076795,4.84534,
2026_07_06_21_54_02.774,3.872,44.1,0,0.769,0,0,0,0, ,0,0,0,0,0, ,658.3,100.3,188.1,-12.7,-37.7,67.4,25,991.38,164.866,240.892,-2.68253,-2.17751,7.96867,
2026_07_06_21_54_02.801,3.872,44.2,0,0.77,0,0,0,0, ,0,0,0,0,0, ,668.8,-67.1,169,-3.2,-39.3,52.6,25,971.403,155.831,237.093,-3.00352,-4.39091,11.1393,
2026_07_06_21_54_02.814,3.872,44.1,0,0.769,0,0,0,0, ,0,0,0,0,0, ,735.4,-39,203.3,11.8,-21.3,18.9,25,954.992,143.102,233.989,-2.55846,-5.96974,12.639,
2026_07_06_21_54_02.840,3.872,44.2,0,0.769,0,0,0,0, ,0,0,0,0,0, ,863.2,40,270.1,11.3,-32.3,0.2,25,945.504,134.413,234.154,-1.69873,-7.23909,12.4508,
2026_07_06_21_54_02.853,3.872,44.2,0,0.769,0,0,0,0, ,0,0,0,0,0, ,961.9,1.9,281.4,7.7,-39.6,18.8,25,943.496,127.498,236.689,-1.0163,-8.98866,12.271,
2026_07_06_21_54_02.880,3.872,44.2,0,0.771,0,0,0,0, ,0,0,0,0,0, ,936.7,-0.7,238.7,-5.7,-34.4,27.2,25,943.85,119.766,238.112,-0.893436,-10.6956,12.9248,
2026_07_06_21_54_02.893,3.872,44.1,0,0.771,0,0,0,0, ,0,0,0,0,0, ,889.7,7.8,177.3,-4.5,-38,30.2,25,941.982,112.684,236.277,-1.14977,-12.2498,13.8861,
2026_07_06_21_54_02.919,3.872,44.1,0,0.771,0,0,0,0, ,0,0,0,0,0, ,844.3,11.7,232.1,-5.9,-49.7,23.7,25,937.413,106.411,234.353,-1.39658,-14.1754,14.6822,
2026_07_06_21_54_02.932,3.872,44.1,0,0.769,0,0,0,0, ,0,0,0,0,0, ,859.3,-18.3,216.4,-18.3,-53,14.5,25,932.196,99.7256,233.738,-2.04882,-16.4407,14.9514,
2026_07_06_21_54_02.959,3.872,44.1,0,0.77,0,0,0,0, ,0,0,0,0,0, ,877.8,-29.1,133.1,-22,-45.8,13.5,25,928.318,92.2044,230.143,-3.15186,-18.4492,14.8934,
2026_07_06_21_54_02.971,3.872,44.1,0,0.771,0,0,0,0, ,0,0,0,0,0, ,859,-37.5,36.1,-14.7,-32.7,12.4,25,924.666,84.5564,221.274,-4.078,-19.7167,14.775,
2026_07_06_21_54_02.998,3.872,44.1,0,0.769,0,0,0,0, ,0,0,0,0,0, ,801.5,-29.7,59.9,-4.2,-34.3,8.2,25,918.913,77.3563,210.715,-4.40536,-20.5567,14.5023,
2026_07_06_21_54_03.013,3.872,44.2,0,0.771,0,0,0,0, ,0,0,0,0,0, ,800.2,-46.2,51.3,-9.6,-42.3,3.4,25,911.718,70.3298,201.263,-4.55737,-21.6379,13.972,
2026_07_06_21_54_03.039,3.872,44.2,0,0.769,0,0,0,0, ,0,0,0,0,0, ,808.9,-47.6,-16.8,-12,-28.7,3.2,25,905.188,63.1861,190.049,-4.93778,-22.4826,13.3217,
2026_07_06_21_54_03.051,3.872,44.2,0,0.771,0,0,0,0, ,0,0,0,0,0, ,795.4,-41.9,-12.5,-14.4,-18.5,-0.6,25,898.909,56.6088,177.576,-5.44126,-22.5507,12.5891,
2026_07_06_21_54_03.078,3.872,44.1,0,0.771,0,0,0,0, ,0,0,0,0,0, ,822,-45,-67.9,-9,-23.2,-6.4,25,893.412,50.5114,164.305,-5.82265,-22.4471,11.6087,
2026_07_06_21_54_03.090,3.872,44,0,0.771,0,0,0,0, ,0,0,0,0,0, ,859.6,-45.7,-51.6,-4.4,-29,-6.2,25,890.206,44.6699,150.652,-5.87612,-22.6697,10.5174,
2026_07_06_21_54_03.118,3.872,44.2,0,0.771,0,0,0,0, ,0,0,0,0,0, ,850.2,-25.6,-18.4,-5,-29.1,0.5,25,888.054,39.7754,139.338,-5.80445,-23.0585,9.70279,
2026_07_06_21_54_03.130,3.872,44.1,0,0.769,0,0,0,0, ,0,0,0,0,0, ,814.8,-27.5,-26.9,-1.2,-11.5,1.1,25,884.669,35.7337,129.467,-5.63965,-22.8904,9.16027,
2026_07_06_21_54_03.157,3.872,44.1,0,0.769,0,0,0,0, ,0,0,0,0,0, ,794.6,-19.8,-7.4,0.1,1,-8.8,25,879.796,32.115,120.533,-5.3295,-21.8154,8.36746,
2026_07_06_21_54_03.170,3.872,44.1,0,0.768,0,0,0,0, ,0,0,0,0,0, ,867.3,-34.3,-12.3,-5.2,-2.3,-8.6,25,876.819,28.5096,112.588,-5.16012,-20.5256,7.32741,
2026_07_06_21_54_03.197,3.872,44.1,0,0.771,0,0,0,0, ,0,0,0,0,0, ,917.2,-59.4,-59.4,-15,-1.3,2,25,877.76,23.9174,103.542,-5.46114,-19.3846,6.6798,
2026_07_06_21_54_03.210,3.872,44,0,0.771,0,0,0,0, ,0,0,0,0,0, ,876.5,-33.4,-89.5,-13.7,2.9,9,25,878.923,19.6324,92.6958,-6.00281,-18.1546,6.60791,
2026_07_06_21_54_03.236,3.872,44.1,0,0.771,0,0,0,0, ,0,0,0,0,0, ,828.2,-17.8,-91.4,-11,4.2,6.7,25,877.304,16.8761,81.5353,-6.38959,-16.8319,6.6836,
2026_07_06_21_54_03.248,3.872,44,0,0.771,0,0,0,0, ,0,0,0,0,0, ,837.5,-16.6,-70.9,-3.1,2,-3.7,25,874.595,14.7996,71.6217,-6.42983,-15.6173,6.36772,
2026_07_06_21_54_03.276,3.872,44,0,0.769,0,0,0,0, ,0,0,0,0,0, ,927,-14.5,-44.7,-4.9,-5.2,-5.5,25,875.061,12.9501,63.735,-6.28177,-14.7632,5.69938,
2026_07_06_21_54_03.288,3.872,44,0,0.769,0,0,0,0, ,0,0,0,0,0, ,978.3,-46.8,-67.1,-8.1,-6.4,2.8,25,879.789,10.2933,56.4448,-6.29506,-14.217,5.26981,
2026_07_06_21_54_03.314,3.872,44.1,0,0.769,0,0,0,0, ,0,0,0,0,0, ,942,-48.7,-69.9,-8.6,-4.7,9.6,25,884.686,6.75625,48.831,-6.42029,-13.6888,5.32649,
2026_07_06_21_54_03.328,3.872,44.1,0,0.769,0,0,0,0, ,0,0,0,0,0, ,918.3,-35.7,-44.7,-5,-0.4,-0.5,25,887.457,3.77297,42.3636,-6.44343,-13.01,5.27917,
2026_07_06_21_54_03.356,3.872,44.1,0,0.77,0,0,0,0, ,0,0,0,0,0, ,910.8,-46.7,-12.6,-8.5,3.3,-1.8,25,889.108,1.03243,38.0362,-6.46211,-12.1289,4.88739,
2026_07_06_21_54_03.368,3.872,44.1,0,0.769,0,0,0,0, ,0,0,0,0,0, ,911.3,-49.6,-14,-6,12.1,-2.3,25,890.445,-1.96462,34.9079,-6.51012,-10.9206,4.46465,
2026_07_06_21_54_03.402,3.872,44.1,0,0.769,0,0,0,0, ,0,0,0,0,0, ,948.9,-39.5,-28,-6.3,10.3,-2.1,25,892.861,-4.55967,31.501,-6.48818,-9.57259,4.05852,
2026_07_06_21_54_03.407,3.872,44,0,0.771,0,0,0,0, ,0,0,0,0,0, ,973.8,-22.3,-49.9,-8,5.6,-5.5,25,897.035,-6.16478,27.2079,-6.52851,-8.50481,3.57964,
2026_07_06_21_54_03.434,3.872,44.1,0,0.769,0,0,0,0, ,0,0,0,0,0, ,969.1,-25.3,-42.1,-7.1,6.4,-7.4,25,901.57,-7.23943,22.7468,-6.59075,-7.62092,2.96846,
2026_07_06_21_54_03.446,3.872,44.1,0,0.769,0,0,0,0, ,0,0,0,0,0, ,933.1,-10.3,-0.2,-7.1,5.7,-6.5,25,904.588,-7.88296,20.0719,-6.62178,-6.78785,2.36405,
2026_07_06_21_54_03.473,3.872,44,0,0.771,0,0,0,0, ,0,0,0,0,0, ,960.8,-1.8,-4.7,-10.7,-1,-8.9,25,907.169,-7.77126,18.6994,-6.76061,-6.23101,1.75078,
2026_07_06_21_54_03.486,3.872,44,0,0.771,0,0,0,0, ,0,0,0,0,0, ,1041.9,-8,-47.7,-6.8,3.1,-6.9,25,912.908,-7.5963,15.9634,-6.88184,-5.78733,1.16268,
2026_07_06_21_54_03.513,3.872,44.1,0,0.771,0,0,0,0, ,0,0,0,0,0, ,1047.1,-12.8,-40.2,-1.8,6.9,-4.6,25,920.927,-7.76715,12.3124,-6.72451,-5.12997,0.741441,
2026_07_06_21_54_03.525,3.872,44,0,0.769,0,0,0,0, ,0,0,0,0,0, ,1032.7,-12.4,-29.4,1.1,1.7,-2.4,25,928.177,-8.06165,9.44149,-6.33606,-4.55534,0.482978,
2026_07_06_21_54_03.553,3.872,43.9,0,0.77,0,0,0,0, ,0,0,0,0,0, ,993.6,-3.9,5.6,4.6,-3.2,-0.9,25,933.355,-8.06703,8.14099,-5.77629,-4.32345,0.353,
2026_07_06_21_54_03.566,3.872,44,0,0.77,0,0,0,0, ,0,0,0,0,0, ,983.7,-7.8,36.2,4.1,-3.4,-2.7,25,936.725,-7.93193,8.91849,-5.15922,-4.26108,0.221801,
2026_07_06_21_54_03.594,3.872,44,0,0.769,0,0,0,0, ,0,0,0,0,0, ,989.2,-10.6,49.4,1.4,0.3,-2.1,25,939.755,-8.00921,10.9831,-4.67725,-4.09588,0.0620352,
2026_07_06_21_54_03.605,3.872,44,0,0.767,0,0,0,0, ,0,0,0,0,0, ,970.2,-13.7,23.9,-2.4,4.8,-0.1,25,942.189,-8.26154,12.5472,-4.4227,-3.69089,-0.00877632,
2026_07_06_21_54_03.633,3.872,44,0,0.77,0,0,0,0, ,0,0,0,0,0, ,943.2,-5.8,-3,-2,4.6,-3.7,25,943.073,-8.35224,12.4194,-4.28725,-3.17957,-0.124023,
2026_07_06_21_54_03.644,3.872,44,0,0.769,0,0,0,0, ,0,0,0,0,0, ,984.3,-19,-18.7,2.4,0.2,-7.6,25,944.333,-8.5989,11.0014,-4.01381,-2.83957,-0.460762,
2026_07_06_21_54_03.671,3.872,44,0,0.771,0,0,0,0, ,0,0,0,0,0, ,989.2,-36.8,6.9,5,-1.9,-2.7,25,946.918,-9.77506,9.97151,-3.54375,-2.71833,-0.746512,
2026_07_06_21_54_03.684,3.872,44,0,0.769,0,0,0,0, ,0,0,0,0,0, ,928.2,-30,37.2,3.2,-0.9,3.2,25,947.636,-11.2147,10.7075,-3.07796,-2.63799,-0.685787,
2026_07_06_21_54_03.711,3.872,44,0,0.77,0,0,0,0, ,0,0,0,0,0, ,859.6,-16.2,38.5,0.1,1.3,-0.9,25,944.361,-11.939,12.3615,-2.78985,-2.46505,-0.573919,
2026_07_06_21_54_03.724,3.872,44,0,0.769,0,0,0,0, ,0,0,0,0,0, ,838,-21.3,26.3,-2.3,3.6,-10.6,25,938.538,-12.354,13.5826,-2.68687,-2.16554,-0.889337,
2026_07_06_21_54_03.751,3.872,44,0,0.769,0,0,0,0, ,0,0,0,0,0, ,858,-28.6,-11.9,-5.1,4.4,-13.7,25,933.021,-13.1216,13.1937,-2.74861,-1.78983,-1.57553,
2026_07_06_21_54_03.768,3.872,44.1,0,0.769,0,0,0,0, ,0,0,0,0,0, ,845,-29.9,-31.4,-4.1,3.5,-12.6,25,928.053,-14.1044,11.0704,-2.86143,-1.44006,-2.28085,
2026_07_06_21_54_03.796,3.872,43.9,0,0.769,0,0,0,0, ,0,0,0,0,0, ,831.9,-20.9,-46.5,-0.6,-0.9,-14,25,922.593,-14.7927,8.02228,-2.83027,-1.27309,-2.95233,
2026_07_06_21_54_03.803,3.872,43.7,0,0.771,0,0,0,0, ,0,0,0,0,0, ,833.7,-29.6,-31.7,4,-2.9,-13.6,25,917.121,-15.43,5.15077,-2.5542,-1.31129,-3.61336,
2026_07_06_21_54_03.830,3.872,44,0,0.769,0,0,0,0, ,0,0,0,0,0, ,820.3,-37.3,-0.4,1.1,-0.3,-12.1,25,911.63,-16.5281,3.85885,-2.24317,-1.32888,-4.17622,
2026_07_06_21_54_03.843,3.872,44,0,0.769,0,0,0,0, ,0,0,0,0,0, ,802,-24.6,-0.4,-1.7,10.5,-10,25,905.507,-17.4069,3.59932,-2.12475,-0.937122,-4.59509,
2026_07_06_21_54_03.871,3.872,43.9,0,0.769,0,0,0,0, ,0,0,0,0,0, ,764.4,-24.2,-23.8,-6,18.1,-8.4,25,898.054,-17.833,2.64265,-2.22989,-0.00860951,-4.8757,
2026_07_06_21_54_03.883,3.872,43.9,0,0.769,0,0,0,0, ,0,0,0,0,0, ,731.9,-37.7,-44.5,-5.8,20.5,-8.5,25,888.919,-18.6324,0.400594,-2.45353,1.16801,-5.09351,
2026_07_06_21_54_03.911,3.872,43.9,0,0.77,0,0,0,0, ,0,0,0,0,0, ,681.5,-15.1,-8.5,-0.5,18.2,-11.8,25,877.815,-19.1057,-1.23866,-2.49597,2.27597,-5.40164,
2026_07_06_21_54_03.922,3.872,44,0,0.769,0,0,0,0, ,0,0,0,0,0, ,707.1,5.7,60.3,2.3,11.2,-19.4,25,866.632,-18.2279,0.415102,-2.28903,3.03306,-6.0231,
2026_07_06_21_54_03.951,3.872,43.9,0,0.771,0,0,0,0, ,0,0,0,0,0, ,773.4,10.3,132.4,2.4,14.1,-15.2,25,858.931,-16.6296,6.26113,-2.00634,3.61909,-6.71029,
2026_07_06_21_54_03.961,3.872,43.9,0,0.771,0,0,0,0, ,0,0,0,0,0, ,768.6,-3.1,141.2,-13.2,36.1,-8.2,25,853.572,-15.3969,14.2158,-2.21314,4.92809,-7.01435,
2026_07_06_21_54_03.989,3.872,44,0,0.77,0,0,0,0, ,0,0,0,0,0, ,736.4,-14.8,78.6,-34.7,55.2,-13.4,25,847.413,-15.004,20.0466,-3.53773,7.40958,-7.24504,
2026_07_06_21_54_04.001,3.872,43.9,0,0.77,0,0,0,0, ,0,0,0,0,0, ,726.1,2.1,17.7,-35.6,54.1,-18.1,25,840.334,-14.4766,21.7591,-5.4641,10.2883,-7.76331,
2026_07_06_21_54_04.029,3.872,44,0,0.769,0,0,0,0, ,0,0,0,0,0, ,751.4,44.9,57.3,-21.8,30,-10.6,25,834.144,-12.1624,22.7184,-6.88004,12.2238,-8.16468,
2026_07_06_21_54_04.041,3.872,43.9,0,0.769,0,0,0,0, ,0,0,0,0,0, ,786.4,5.2,97.1,-8.9,6.9,-0.4,25,830.168,-9.89481,26.0383,-7.39618,12.6032,-8.00231,
2026_07_06_21_54_04.069,3.872,44,0,0.771,0,0,0,0, ,0,0,0,0,0, ,775.2,-5.7,117.4,-3,6.5,-7.6,25,827.16,-9.30708,30.9872,-7.30805,12.2435,-7.75842,
2026_07_06_21_54_04.081,3.872,44,0,0.771,0,0,0,0, ,0,0,0,0,0, ,755.3,-16.2,122.9,-10.4,7.9,-22.6,25,823.387,-9.40719,36.4205,-7.271,11.9361,-8.20579,
2026_07_06_21_54_04.109,3.872,43.9,0,0.77,0,0,0,0, ,0,0,0,0,0, ,807.9,60.1,151.1,-21.2,9.2,-18.1,25,820.841,-7.49637,42.5496,-7.79074,11.7298,-8.94583,
2026_07_06_21_54_04.120,3.872,44,0,0.771,0,0,0,0, ,0,0,0,0,0, ,855.4,78.7,115.6,-16,20.2,-8.4,25,821.5,-2.81049,48.0827,-8.44943,11.9108,-9.20812,
2026_07_06_21_54_04.147,3.872,43.9,0,0.77,0,0,0,0, ,0,0,0,0,0, ,936.5,-61.8,105.2,2.2,32.3,-27.3,25,826.036,-2.12431,51.8802,-8.35501,12.7846,-9.73473,
2026_07_06_21_54_04.160,3.872,43.9,0,0.77,0,0,0,0, ,0,0,0,0,0, ,922.8,-11.4,119.7,11.1,21.6,-9.4,25,832.35,-4.22517,55.5712,-7.44064,13.6478,-10.2597,
2026_07_06_21_54_04.194,3.872,43.9,0,0.77,0,0,0,0, ,0,0,0,0,0, ,885.9,85,113.8,5,0.1,-0.6,25,836.738,-1.7252,59.2993,-6.49668,13.4773,-9.93921,
2026_07_06_21_54_04.199,3.872,43.7,0,0.77,0,0,0,0, ,0,0,0,0,0, ,899.5,129.2,72.1,13.3,-17.5,-14.6,25,840.148,4.90634,61.3498,-5.54321,12.1259,-9.79666,
2026_07_06_21_54_04.227,3.872,43.9,0,0.769,0,0,0,0, ,0,0,0,0,0, ,931.7,67,114.9,29.1,-13.5,-35.4,25,844.746,10.5853,63.309,-3.91355,10.4424,-10.7231,
2026_07_06_21_54_04.239,3.872,43.9,0,0.771,0,0,0,0, ,0,0,0,0,0, ,1048,24.5,229.8,20.3,-4.2,-36,25,853.588,12.7282,69.9537,-2.16991,9.26678,-12.2451,
2026_07_06_21_54_04.267,3.872,43.9,0,0.77,0,0,0,0, ,0,0,0,0,0, ,1113.1,82.3,140.6,11.8,0.1,-18.8,25,867.419,15.2066,76.9765,-1.05963,8.57716,-13.1686,
2026_07_06_21_54_04.278,3.872,43.9,0,0.77,0,0,0,0, ,0,0,0,0,0, ,1134.1,118.1,61.5,18.7,-1.7,-15.4,25,883.03,20.3859,78.4435,-0.0657638,8.00574,-13.4082,
2026_07_06_21_54_04.307,3.872,43.9,0,0.77,0,0,0,0, ,0,0,0,0,0, ,1104,190.3,83.1,26.6,-3.7,0.1,25,897.412,28.5402,78.0691,1.31848,7.35336,-13.0573,
2026_07_06_21_54_04.318,3.872,43.9,0,0.77,0,0,0,0, ,0,0,0,0,0, ,1100.4,150.7,222,19.2,7.1,10.3,25,909.891,37.1909,82.6078,2.6336,7.00886,-11.9448,
2026_07_06_21_54_04.347,3.872,43.9,0,0.77,0,0,0,0, ,0,0,0,0,0, ,1043.9,141.8,210.6,11.1,40.8,22.2,25,919.779,43.8367,90.7547,3.39632,8.04121,-10.2266,
2026_07_06_21_54_04.357,3.872,43.7,0,0.77,0,0,0,0, ,0,0,0,0,0, ,990.8,172.3,226.4,8.9,49.2,20.5,25,925.725,50.7356,98.5391,3.79873,10.2934,-8.30244,
2026_07_06_21_54_04.385,3.872,43.9,0,0.77,0,0,0,0, ,0,0,0,0,0, ,1045.6,171.3,200.1,8.1,35.3,7.9,25,931.36,58.113,105.529,4.08522,12.2407,-6.9312,
2026_07_06_21_54_04.397,3.872,43.9,0,0.77,0,0,0,0, ,0,0,0,0,0, ,1158.9,143.5,145.7,11.4,15.7,4.3,25,941.774,64.1633,109.635,4.43041,13.0487,-6.13711,
2026_07_06_21_54_04.425,3.872,43.9,0,0.769,0,0,0,0, ,0,0,0,0,0, ,1212.8,112.1,159.6,21.6,9.4,11.2,25,956.647,68.0411,112.256,5.1659,13.0183,-5.29087,
2026_07_06_21_54_04.436,3.872,43.9,0,0.77,0,0,0,0, ,0,0,0,0,0, ,1180,125,191.4,31.3,22.5,21.5,25,971.257,71.119,116.11,6.4629,13.197,-3.97213,
2026_07_06_21_54_04.465,3.872,43.7,0,0.771,0,0,0,0, ,0,0,0,0,0, ,1092,143,277,35.1,22.9,14,25,981.296,74.9508,123.306,8.09219,13.7761,-2.64844,
2026_07_06_21_54_04.476,3.872,43.9,0,0.769,0,0,0,0, ,0,0,0,0,0, ,1120.6,170.2,323.3,29.1,-21.2,-5.1,25,988.913,79.9263,134.082,9.55517,12.9884,-2.21587,
2026_07_06_21_54_04.504,3.872,43.7,0,0.771,0,0,0,0, ,0,0,0,0,0, ,1266.9,170.2,306.2,17.4,-55.9,-14.1,25,1001.4,85.4274,145.092,10.3897,9.84777,-2.66584,
2026_07_06_21_54_04.516,3.872,43.9,0,0.769,0,0,0,0, ,0,0,0,0,0, ,1375,136.1,262.2,10,-50.7,-4,25,1020.87,89.5542,153.569,10.5914,5.9997,-3.05488,
2026_07_06_21_54_04.544,3.872,44,0,0.77,0,0,0,0, ,0,0,0,0,0, ,1357.5,132.3,207,6.9,-26.9,12.4,25,1041.92,92.2748,158.507,10.4609,3.26972,-2.61278,
2026_07_06_21_54_04.555,3.872,43.9,0,0.77,0,0,0,0, ,0,0,0,0,0, ,1304.3,130.7,133.5,7.9,-7.8,18.7,25,1059.53,94.6651,159.222,10.2744,2.01321,-1.50599,
2026_07_06_21_54_04.585,3.872,43.7,0,0.77,0,0,0,0, ,0,0,0,0,0, ,1278,142.4,118.4,9.6,-3.2,21.4,25,1073.64,97.2175,157.195,10.1815,1.55537,-0.192422,
2026_07_06_21_54_04.595,3.872,43.6,0,0.77,0,0,0,0, ,0,0,0,0,0, ,1193.3,140.7,106.8,10.9,-5.4,21.4,25,1083.51,99.919,154.477,10.1857,1.19856,1.12337,
2026_07_06_21_54_04.623,3.872,43.7,0,0.77,0,0,0,0, ,0,0,0,0,0, ,1102.9,135,112.3,9.1,-23.3,12.7,25,1087.45,102.23,151.739,10.1744,0.25107,2.0939,
2026_07_06_21_54_04.637,3.872,43.9,0,0.771,0,0,0,0, ,0,0,0,0,0, ,1086.9,111.5,102.1,5.4,-35.7,0.8,25,1087.9,103.511,149.025,9.99616,-1.56189,2.37763,
2026_07_06_21_54_04.666,3.872,43.7,0,0.769,0,0,0,0, ,0,0,0,0,0, ,1104.2,99.3,89.2,4.6,-32.2,-4.3,25,1088.37,103.626,145.773,9.69171,-3.53554,2.1261,
2026_07_06_21_54_04.675,3.872,43.9,0,0.77,0,0,0,0, ,0,0,0,0,0, ,1100.9,90.5,105.7,6.2,-17.8,-4.2,25,1089.23,103.095,142.828,9.43018,-4.84353,1.73756,
2026_07_06_21_54_04.703,3.872,43.7,0,0.77,0,0,0,0, ,0,0,0,0,0, ,1051.2,96.1,126.7,9.6,-5.6,-7.1,25,1088.43,102.498,141.205,9.33694,-5.26134,1.28738,
2026_07_06_21_54_04.714,3.872,43.9,0,0.77,0,0,0,0, ,0,0,0,0,0, ,1062.2,101.8,97.7,4.7,-1.5,-16.5,25,1086.5,102.282,139.438,9.20367,-5.15706,0.489865,
2026_07_06_21_54_04.743,3.872,43.7,0,0.77,0,0,0,0, ,0,0,0,0,0, ,1130.3,93.1,72.8,4.6,-2,-16.2,25,1087.09,101.987,136.136,8.92618,-4.94944,-0.536315,
2026_07_06_21_54_04.753,3.872,43.7,0,0.767,0,0,0,0, ,0,0,0,0,0, ,1153.5,76.2,116.3,5,0.4,-6.6,25,1090.43,100.931,133.602,8.67474,-4.69658,-1.19832,
2026_07_06_21_54_04.782,3.872,43.7,0,0.77,0,0,0,0, ,0,0,0,0,0, ,1183.2,85.8,114.8,3.5,2.6,4.2,25,1095.18,99.7161,132.502,8.40511,-4.31898,-1.19842,
2026_07_06_21_54_04.793,3.872,43.7,0,0.769,0,0,0,0, ,0,0,0,0,0, ,1141.7,98.7,124.7,1.1,3,7.8,25,1099.28,99.2612,131.725,8.03308,-3.88517,-0.759769,
2026_07_06_21_54_04.821,3.872,43.7,0,0.77,0,0,0,0, ,0,0,0,0,0, ,995.8,101.4,136.7,-1.2,11.2,5.6,25,1097.42,99.3092,131.662,7.54052,-3.21576,-0.305189,
2026_07_06_21_54_04.833,3.872,43.7,0,0.77,0,0,0,0, ,0,0,0,0,0, ,948.6,60.7,126.8,1.3,8.3,3.6,25,1089.79,98.1966,131.668,7.08406,-2.42566,-0.00627929,
2026_07_06_21_54_04.863,3.872,43.7,0,0.77,0,0,0,0, ,0,0,0,0,0, ,965,68.7,104.3,5.4,9.6,-0.5,25,1081.68,96.1554,130.685,6.85652,-1.73245,0.0885565,
2026_07_06_21_54_04.872,3.872,43.7,0,0.77,0,0,0,0, ,0,0,0,0,0, ,969.1,65.5,151.3,4.1,3.3,-1.4,25,1074.7,94.3848,130.51,6.72815,-1.23384,0.0252694,
2026_07_06_21_54_04.902,3.872,43.7,0,0.77,0,0,0,0, ,0,0,0,0,0, ,973.6,86,161.1,-1.5,-0.5,-2.6,25,1068.4,93.2492,132.075,6.39738,-1.07334,-0.0981454,
2026_07_06_21_54_04.912,3.872,43.7,0,0.769,0,0,0,0, ,0,0,0,0,0, ,978.6,86,135.3,-3.9,-3.7,-3.3,25,1062.78,92.8075,133.058,5.843,-1.1359,-0.27193,
2026_07_06_21_54_04.940,3.872,43.7,0,0.77,0,0,0,0, ,0,0,0,0,0, ,987.7,90.6,105.8,-4.2,-3.5,-3.6,25,1057.92,92.5328,132.295,5.24015,-1.28605,-0.465594,
2026_07_06_21_54_04.951,3.872,43.7,0,0.77,0,0,0,0, ,0,0,0,0,0, ,987.6,73.3,90,-1.2,-1.6,-3.5,25,1053.64,91.8879,130.2,4.7563,-1.36308,-0.65355,
2026_07_06_21_54_04.981,3.872,43.7,0,0.769,0,0,0,0, ,0,0,0,0,0, ,985.8,71.1,99.7,-0.1,-0.4,-2.2,25,1049.56,90.6882,128.045,4.42685,-1.34095,-0.787396,
2026_07_06_21_54_04.991,3.872,43.7,0,0.77,0,0,0,0, ,0,0,0,0,0, ,989.5,71.1,111.8,-0.7,-1.6,-1.1,25,1045.79,89.4945,126.687,4.13271,-1.32017,-0.839961,
2026_07_06_21_54_05.020,3.872,43.7,0,0.769,0,0,0,0, ,0,0,0,0,0, ,995.4,72.8,107,-4.2,-3,0.3,25,1042.54,88.4254,125.633,3.73158,-1.37988,-0.813151,
2026_07_06_21_54_05.030,3.872,43.7,0,0.769,0,0,0,0, ,0,0,0,0,0, ,986.2,62.9,98.3,-3.4,-0.5,0.9,25,1039.39,87.1716,124.233,3.27262,-1.40244,-0.727037,
2026_07_06_21_54_05.060,3.872,43.7,0,0.771,0,0,0,0, ,0,0,0,0,0, ,956.9,61.1,120.8,-1.5,-2.9,0.6,25,1035.25,85.6377,123.338,2.9239,-1.42057,-0.63703,
2026_07_06_21_54_05.071,3.872,43.7,0,0.77,0,0,0,0, ,0,0,0,0,0, ,979.3,60.4,113.4,-1.2,-3.9,-1.6,25,1031.16,84.1211,122.958,2.66346,-1.54119,-0.62868,
2026_07_06_21_54_05.100,3.872,43.7,0,0.77,0,0,0,0, ,0,0,0,0,0, ,1003,60.7,89.8,-0.7,-3.2,-1.4,25,1028.72,82.6848,121.656,2.44327,-1.6636,-0.681776,
2026_07_06_21_54_05.112,3.872,43.7,0,0.769,0,0,0,0, ,0,0,0,0,0, ,984.1,65.7,103.7,-0.4,-1,-1.3,25,1026.58,81.4974,120.139,2.26086,-1.6902,-0.722496,
2026_07_06_21_54_05.142,3.872,43.6,0,0.77,0,0,0,0, ,0,0,0,0,0, ,972.5,64.5,112,-1.3,-2.5,-1.7,25,1023.64,80.4982,119.39,2.0713,-1.69384,-0.769875,
2026_07_06_21_54_05.149,3.872,43.7,0,0.769,0,0,0,0, ,0,0,0,0,0, ,982.2,62.3,109.9,0.4,-4.3,-2,25,1020.82,79.4563,118.876,1.91765,-1.79781,-0.835695,
2026_07_06_21_54_05.178,3.872,43.6,0,0.77,0,0,0,0, ,0,0,0,0,0, ,990.6,65.4,97.2,0.6,-5.1,-1.7,25,1018.72,78.5053,117.942,1.83127,-1.97466,-0.897504,
2026_07_06_21_54_05.189,3.872,43.7,0,0.769,0,0,0,0, ,0,0,0,0,0, ,985.2,73.2,86.6,0.6,-3.9,-1.5,25,1016.84,77.9443,116.355,1.75624,-2.12855,-0.940313,
2026_07_06_21_54_05.219,3.872,43.7,0,0.77,0,0,0,0, ,0,0,0,0,0, ,979.7,72.1,91.5,0.3,-1.7,-1.5,25,1014.75,77.6217,114.691,1.67664,-2.16947,-0.974419,
2026_07_06_21_54_05.228,3.872,43.6,0,0.769,0,0,0,0, ,0,0,0,0,0, ,984.8,72.3,101.5,0.4,-1.6,-1.3,25,1012.76,77.2913,113.582,1.5958,-2.13781,-1.00035,
2026_07_06_21_54_05.259,3.872,43.7,0,0.771,0,0,0,0, ,0,0,0,0,0, ,984.6,72.7,103.2,-0.5,-1.7,-1.5,25,1011.05,76.9993,112.898,1.4955,-2.10808,-1.02471,
2026_07_06_21_54_05.268,3.872,43.7,0,0.77,0,0,0,0, ,0,0,0,0,0, ,983.7,77.6,97.4,-1,-1.7,-2,25,1009.42,76.8866,112.13,1.35867,-2.08322,-1.0689,
2026_07_06_21_54_05.298,3.872,43.6,0,0.771,0,0,0,0, ,0,0,0,0,0, ,988.2,72.7,91,-0.2,-0.4,-2.4,25,1007.99,76.7808,111.038,1.23931,-2.02026,-1.13783,
2026_07_06_21_54_05.308,3.872,43.5,0,0.771,0,0,0,0, ,0,0,0,0,0, ,985.4,71.5,94.6,0.4,-0.5,-2.2,25,1006.69,76.4956,109.926,1.16989,-1.92457,-1.20865,
2026_07_06_21_54_05.337,3.872,43.6,0,0.769,0,0,0,0, ,0,0,0,0,0, ,981.5,70.3,102.2,-0.3,-0.4,-2.3,25,1005.28,76.1546,109.224,1.10164,-1.83471,-1.27211,
2026_07_06_21_54_05.348,3.872,43.6,0,0.77,0,0,0,0, ,0,0,0,0,0, ,986.8,70.4,103.8,-1.9,-1.1,-2.3,25,1003.99,75.8009,108.845,0.96748,-1.76861,-1.33474,
2026_07_06_21_54_05.379,3.872,43.6,0,0.769,0,0,0,0, ,0,0,0,0,0, ,986.9,67.3,90.3,-2.9,-0.5,-2.8,25,1002.95,75.3773,108.126,0.762274,-1.70959,-1.4088,
2026_07_06_21_54_05.387,3.872,43.6,0,0.77,0,0,0,0, ,0,0,0,0,0, ,983.7,67.6,88.1,-1.3,0.9,-3,25,1001.87,74.8942,106.973,0.587854,-1.59322,-1.49967,
2026_07_06_21_54_05.417,3.872,43.7,0,0.771,0,0,0,0, ,0,0,0,0,0, ,991.2,71.8,94.6,-0.6,1.6,-3,25,1000.99,74.5777,106.021,0.494141,-1.41996,-1.5911,
2026_07_06_21_54_05.427,3.872,43.7,0,0.768,0,0,0,0, ,0,0,0,0,0, ,985.7,68.1,90.8,1.5,1.8,-2.9,25,1000.23,74.2957,105.209,0.491452,-1.22984,-1.6739,
2026_07_06_21_54_05.457,3.872,43.6,0,0.771,0,0,0,0, ,0,0,0,0,0, ,981.5,63.9,101.3,1.9,2.2,-2.8,25,999.214,73.7902,104.651,0.565098,-1.03302,-1.74557,
2026_07_06_21_54_05.466,3.872,43.6,0,0.77,0,0,0,0, ,0,0,0,0,0, ,967.1,68.6,103.8,0.3,0.9,-2,25,997.696,73.3307,104.523,0.597693,-0.875619,-1.78545,
2026_07_06_21_54_05.496,3.872,43.5,0,0.77,0,0,0,0, ,0,0,0,0,0, ,976.5,72.6,101.1,-1.4,0.6,-2.7,25,996.118,73.1643,104.396,0.527756,-0.776558,-1.81985,
2026_07_06_21_54_05.506,3.872,43.6,0,0.769,0,0,0,0, ,0,0,0,0,0, ,987.7,74.3,105.1,-1.7,0,-3,25,995.264,73.1817,104.317,0.401142,-0.710955,-1.88263,
2026_07_06_21_54_05.536,3.872,43.6,0,0.769,0,0,0,0, ,0,0,0,0,0, ,989.9,71.1,109.8,0,-0.6,-2.9,25,994.87,73.1524,104.508,0.324901,-0.685912,-1.94767,
2026_07_06_21_54_05.546,3.872,43.6,0,0.769,0,0,0,0, ,0,0,0,0,0, ,987.6,74.9,104.9,-0.6,-1.6,-2.7,25,994.497,73.1431,104.681,0.286821,-0.711146,-1.99961,
2026_07_06_21_54_05.576,3.872,43.6,0,0.769,0,0,0,0, ,0,0,0,0,0, ,980.8,74.4,97.2,-0.8,-1,-3.2,25,993.87,73.2349,104.46,0.226687,-0.747029,-2.05752,
2026_07_06_21_54_05.585,3.872,43.6,0,0.769,0,0,0,0, ,0,0,0,0,0, ,981.4,74.8,93.2,-1.1,-0.2,-3,25,993.091,73.3181,103.896,0.154982,-0.73807,-2.12105,
2026_07_06_21_54_05.616,3.872,43.6,0,0.769,0,0,0,0, ,0,0,0,0,0, ,978.7,78.7,99.7,-0.1,0.9,-3,25,992.297,73.5272,103.442,0.108976,-0.671765,-2.17461,
2026_07_06_21_54_05.629,3.872,43.5,0,0.769,0,0,0,0, ,0,0,0,0,0, ,984.6,75.5,104.7,-0.5,0.9,-3,25,991.648,73.7449,103.366,0.0840536,-0.575986,-2.22491,
2026_07_06_21_54_05.659,3.872,43.6,0,0.771,0,0,0,0, ,0,0,0,0,0, ,994,75.9,103.1,1.1,1.1,-3.2,25,991.505,73.8641,103.399,0.0972128,-0.479949,-2.27823,
2026_07_06_21_54_05.664,3.872,43.6,0,0.77,0,0,0,0, ,0,0,0,0,0, ,989,75.9,108.6,1,0.3,-2.4,25,991.505,73.9881,103.548,0.155273,-0.408046,-2.31003,
2026_07_06_21_54_05.695,3.872,43.6,0,0.769,0,0,0,0, ,0,0,0,0,0, ,975,79.3,109.1,-0.8,0,-2.9,25,990.925,74.2082,103.871,0.151905,-0.37404,-2.33075,
2026_07_06_21_54_05.704,3.872,43.6,0,0.769,0,0,0,0, ,0,0,0,0,0, ,979.8,78,110.9,-2.4,-0.3,-3.1,25,990.101,74.4789,104.245,0.0451484,-0.360388,-2.37153,
2026_07_06_21_54_05.736,3.872,43.5,0,0.77,0,0,0,0, ,0,0,0,0,0, ,982.9,72.9,104.1,-2.1,-0.8,-3.1,25,989.568,74.5381,104.443,-0.0947122,-0.371942,-2.41592,
2026_07_06_21_54_05.744,3.872,43.6,0,0.77,0,0,0,0, ,0,0,0,0,0, ,979.9,78.6,103.8,-0.1,-0.9,-2.7,25,989.07,74.6119,104.413,-0.155972,-0.401074,-2.44542,
2026_07_06_21_54_05.774,3.872,43.5,0,0.77,0,0,0,0, ,0,0,0,0,0, ,979.9,82,100,-0.1,-1,-2.6,25,988.511,74.9586,104.26,-0.152561,-0.434524,-2.45789,
2026_07_06_21_54_05.783,3.872,43.5,0,0.77,0,0,0,0, ,0,0,0,0,0, ,990.3,80.9,93,0.9,0.5,-2.9,25,988.303,75.3541,103.787,-0.118889,-0.42328,-2.47569,
2026_07_06_21_54_05.814,3.872,43.5,0,0.77,0,0,0,0, ,0,0,0,0,0, ,1001.2,77.2,101.6,0.3,2,-2.9,25,988.757,75.5793,103.392,-0.0750821,-0.321314,-2.50154,
2026_07_06_21_54_05.823,3.872,43.5,0,0.769,0,0,0,0, ,0,0,0,0,0, ,998.4,74.2,104.2,0.6,1.7,-2.2,25,989.43,75.5867,103.362,-0.0430849,-0.189,-2.5045,
2026_07_06_21_54_05.853,3.872,43.5,0,0.771,0,0,0,0, ,0,0,0,0,0, ,996.5,78.7,115.1,1,1,-2.1,25,989.919,75.6393,103.745,0.00829054,-0.095217,-2.48289,
2026_07_06_21_54_05.862,3.872,43.6,0,0.77,0,0,0,0, ,0,0,0,0,0, ,1019.5,73.4,95.5,2.6,1.1,-1.8,25,991.021,75.6643,103.84,0.117473,-0.0254303,-2.45042,
2026_07_06_21_54_05.893,3.872,43.5,0,0.771,0,0,0,0, ,0,0,0,0,0, ,1023.4,69.9,70.8,5.5,-4.1,-1.1,25,992.875,75.4197,102.579,0.357111,-0.115287,-2.38946,
2026_07_06_21_54_05.902,3.872,43.6,0,0.77,0,0,0,0, ,0,0,0,0,0, ,974.6,103.8,42.2,13,-29.3,-6.5,25,993.248,76.1162,99.7711,0.899022,-1.12592,-2.47541,
2026_07_06_21_54_05.932,3.872,43.5,0,0.77,0,0,0,0, ,0,0,0,0,0, ,991.5,102.4,-77,38.3,-55,-17.1,25,992.627,77.7606,92.631,2.40728,-3.62582,-3.04363,
2026_07_06_21_54_05.942,3.872,43.6,0,0.769,0,0,0,0, ,0,0,0,0,0, ,1001.3,100.2,-85.4,62.6,-51.2,-26.7,25,992.857,79.195,82.0381,5.33489,-6.64065,-4.19269,
2026_07_06_21_54_05.972,3.872,43.5,0,0.769,0,0,0,0, ,0,0,0,0,0, ,1061.5,113,-39.6,110.1,-31.5,-36.2,25,995.205,80.865,73.2303,10.2717,-8.75576,-5.85368,
2026_07_06_21_54_05.981,3.872,43.5,0,0.77,0,0,0,0, ,0,0,0,0,0, ,1073.9,128.4,89.9,124.6,-25.5,-26.7,25,999.623,83.2924,70.3005,16.7968,-9.95892,-7.41346,
2026_07_06_21_54_06.012,3.872,43.6,0,0.769,0,0,0,0, ,0,0,0,0,0, ,999.8,126.7,118.7,94.3,-46.1,-19,25,1001.89,85.9894,72.3723,22.4429,-11.5336,-8.35412,
2026_07_06_21_54_06.021,3.872,43.5,0,0.77,0,0,0,0, ,0,0,0,0,0, ,934.4,140.9,69.9,74.7,-85.7,-23,25,999.771,88.9028,73.7085,26.2245,-14.8466,-9.12473,
2026_07_06_21_54_06.050,3.872,43.4,0,0.769,0,0,0,0, ,0,0,0,0,0, ,957.7,143.6,117.1,83.4,-88.3,-45.3,25,996.498,92.1537,74.9146,29.4435,-19.2434,-10.6497,
2026_07_06_21_54_06.060,3.872,43.5,0,0.769,0,0,0,0, ,0,0,0,0,0, ,984.9,209.7,110.9,59,-60.5,-44.2,25,994.962,97.3027,77.2963,31.9881,-22.6045,-12.7277,
2026_07_06_21_54_06.092,3.872,43.5,0,0.77,0,0,0,0, ,0,0,0,0,0, ,1014.5,157.8,54.4,40.9,-28.5,-29.8,25,995.251,102.571,77.6226,33.0826,-23.9388,-14.2068,
2026_07_06_21_54_06.099,3.872,43.6,0,0.769,0,0,0,0, ,0,0,0,0,0, ,970,176.2,-71.4,28.4,-18.2,-18.6,25,995.068,106.497,72.3745,33.1781,-23.9029,-14.8157,
2026_07_06_21_54_06.130,3.872,43.5,0,0.769,0,0,0,0, ,0,0,0,0,0, ,891.3,169.4,-93.8,27.4,-26.8,-19.6,25,991.143,110.537,62.9307,32.8565,-23.8174,-15.0768,
2026_07_06_21_54_06.139,3.872,43.5,0,0.769,0,0,0,0, ,0,0,0,0,0, ,845.5,185.9,-104,17.3,-49.6,-27.3,25,983.663,114.627,53.0692,32.2163,-24.6938,-15.5871,
2026_07_06_21_54_06.171,3.872,43.5,0,0.769,0,0,0,0, ,0,0,0,0,0, ,860.8,188.9,-166.7,10.8,-61.4,-34.9,25,975.71,119.061,41.5874,31.1093,-26.5711,-16.5324,
2026_07_06_21_54_06.179,3.872,43.5,0,0.769,0,0,0,0, ,0,0,0,0,0, ,905.8,200.5,-131.8,5.6,-47.9,-42.1,25,970.079,123.671,29.9582,29.7132,-28.2822,-17.871,
2026_07_06_21_54_06.216,3.872,43.5,0,0.77,0,0,0,0, ,0,0,0,0,0, ,1010.3,182.6,-160.5,-0.2,-28.6,-37,25,969.346,127.807,19.2266,28.0671,-28.8896,-19.1921,
2026_07_06_21_54_06.221,3.872,43.4,0,0.767,0,0,0,0, ,0,0,0,0,0, ,958.6,225,-242,9.5,-18.5,-35.6,25,970.266,132.438,5.79133,26.6401,-28.5642,-20.2346,
