UTC_Time,Vin,TC1,TC2,Rh1,Vh1,Ah1,Acp1,Dty1,Err1,Rh2,Vh2,Ah2,Acp2,Dty2,Err2,Accel_x,Accel_y,Accel_z,gyro_x,gyro_y,gyro_z,Temp_c,Accel_x_h,Accel_y_h,Accel_z_h,gyro_x_h,gyro_y_h,gyro_z_h,
2026_07_06_17_48_35.013,3.851,29.4,0,0.757,0,0,0,0.004, ,0,0,0,0,0, ,680.6,13.1,725.8,-0.7,-0.7,-1.8,25,680.6,13.1,725.8,-0.7,-0.7,-1.8,
2026_07_06_17_48_35.032,3.851,29.4,0,0.758,0,0,0,0.004, ,0,0,0,0,0, ,680.7,12.5,725.5,-0.8,-0.3,-1.8,25,680.603,13.0817,725.791,-0.703047,-0.687812,-1.8,
2026_07_06_17_48_35.052,3.851,29.5,0,0.757,0,0,0,0.004, ,0,0,0,0,0, ,681.6,12,722.7,0,0.6,-1.8,25,680.636,13.031,725.688,-0.68458,-0.636758,-1.8,
2026_07_06_17_48_35.074,3.851,29.4,0,0.757,0,0,0,0.004, ,0,0,0,0,0, ,678.8,12.6,731.5,-0.2,0.7,-1.9,25,680.61,12.9865,725.774,-0.648957,-0.558346,-1.80305,
2026_07_06_17_48_35.092,3.851,29.4,0,0.758,0,0,0,0.005, ,0,0,0,0,0, ,677.9,14,735.7,-0.9,-0.3,-1.9,25,680.472,13.0056,726.251,-0.642927,-0.512135,-1.80895,
2026_07_06_17_48_35.111,3.851,29.4,0,0.758,0,0,0,0.005, ,0,0,0,0,0, ,678.1,11.3,732.9,-1.1,-1.4,-1.9,25,680.321,12.9839,726.741,-0.664686,-0.532723,-1.8145,
2026_07_06_17_48_35.132,3.851,29.4,0,0.758,0,0,0,0.005, ,0,0,0,0,0, ,681.7,14.1,723.2,-0.9,-1.5,-1.8,25,680.296,12.9666,726.821,-0.685119,-0.58862,-1.81667,
2026_07_06_17_48_35.151,3.851,29.4,0,0.758,0,0,0,0.005, ,0,0,0,0,0, ,682.7,12.6,721.8,-0.9,-0.4,-1.9,25,680.412,12.99,726.558,-0.698214,-0.610642,-1.8187,
2026_07_06_17_48_35.170,3.851,29.4,0,0.758,0,0,0,0.005, ,0,0,0,0,0, ,680.1,13.4,724.1,-0.8,0.1,-1.9,25,680.472,12.9906,726.338,-0.707463,-0.582571,-1.82365,
2026_07_06_17_48_35.190,3.851,29.4,0,0.758,0,0,0,0.005, ,0,0,0,0,0, ,679.4,12.3,729.1,-0.4,0.5,-1.9,25,680.428,12.982,726.354,-0.700914,-0.52879,-1.8283,
2026_07_06_17_48_35.211,3.851,29.4,0,0.758,0,0,0,0.005, ,0,0,0,0,0, ,678.9,13.7,735.2,-0.5,0,-1.9,25,680.35,12.9831,726.707,-0.685624,-0.481332,-1.83267,
2026_07_06_17_48_35.231,3.851,29.4,0,0.759,0,0,0,0.005, ,0,0,0,0,0, ,678.2,14.1,732.5,-1.1,-1,-1.8,25,680.24,13.039,727.142,-0.692594,-0.48247,-1.83373,
2026_07_06_17_48_35.250,3.851,29.4,0,0.758,0,0,0,0.005, ,0,0,0,0,0, ,679.4,13.6,730.3,-1.4,-1.4,-1.8,25,680.153,13.0884,727.402,-0.726561,-0.526194,-1.83167,
2026_07_06_17_48_35.270,3.851,29.4,0,0.758,0,0,0,0.005, ,0,0,0,0,0, ,680,11.9,723.9,-1,-1.4,-1.8,25,680.125,13.0678,727.383,-0.755411,-0.579442,-1.82974,
2026_07_06_17_48_35.290,3.851,29.4,0,0.758,0,0,0,0.005, ,0,0,0,0,0, ,681.6,13.3,728,-0.5,-1,-1.8,25,680.166,13.0393,727.296,-0.755082,-0.617257,-1.82793,
2026_07_06_17_48_35.310,3.851,29.4,0,0.759,0,0,0,0.005, ,0,0,0,0,0, ,680.4,12.9,723.6,-0.9,-0.6,-1.8,25,680.217,13.043,727.205,-0.751725,-0.628393,-1.82623,
2026_07_06_17_48_35.329,3.851,29.4,0,0.758,0,0,0,0.005, ,0,0,0,0,0, ,681,12,724.9,-1.2,0,-1.8,25,680.246,13.0069,727.025,-0.769901,-0.608381,-1.82463,
2026_07_06_17_48_35.349,3.851,29.4,0,0.76,0,0,0,0.005, ,0,0,0,0,0, ,680.5,28.8,725.7,-0.7,0.2,-1,25,680.277,13.4574,726.92,-0.780876,-0.565214,-1.79875,
2026_07_06_17_48_35.368,3.851,29.4,0,0.758,0,0,0,0.005, ,0,0,0,0,0, ,676.2,6.3,738.2,-0.5,0.7,-1.8,25,680.16,13.7068,727.226,-0.769854,-0.50335,-1.77446,
2026_07_06_17_48_35.388,3.851,29.4,0,0.758,0,0,0,0.005, ,0,0,0,0,0, ,681.5,13,723.8,-0.7,0.1,-2.1,25,680.08,13.4596,727.456,-0.759503,-0.448302,-1.78515,
2026_07_06_17_48_35.408,3.851,29.4,0,0.758,0,0,0,0.006, ,0,0,0,0,0, ,678.3,12.9,732.7,-0.7,0.3,-2,25,680.069,13.4285,727.505,-0.755877,-0.408796,-1.80129,
2026_07_06_17_48_35.428,3.851,29.4,0,0.758,0,0,0,0.006, ,0,0,0,0,0, ,679.3,12.9,734.4,-1,0,-2,25,679.992,13.3963,727.873,-0.761613,-0.374744,-1.8134,
2026_07_06_17_48_35.448,3.851,29.4,0,0.758,0,0,0,0.006, ,0,0,0,0,0, ,680.4,11.7,728,-1,-0.4,-1.9,25,679.983,13.3295,728.076,-0.77614,-0.364096,-1.82172,
2026_07_06_17_48_35.473,3.851,29.4,0,0.758,0,0,0,0.006, ,0,0,0,0,0, ,678.7,11.7,726.6,-0.5,0,-1.9,25,679.957,13.2302,728.028,-0.774547,-0.354096,-1.82649,
2026_07_06_17_48_35.487,3.851,29.4,0,0.76,0,0,0,0.006, ,0,0,0,0,0, ,678.2,13.5,731,-0.7,0.1,-1.9,25,679.865,13.1918,728.075,-0.76391,-0.329472,-1.83097,
2026_07_06_17_48_35.507,3.851,29.3,0,0.757,0,0,0,0.006, ,0,0,0,0,0, ,678.7,12.4,734.1,-1.6,-0.5,-1.8,25,679.779,13.1771,728.348,-0.787438,-0.321582,-1.83213,
2026_07_06_17_48_35.527,3.851,29.4,0,0.758,0,0,0,0.007, ,0,0,0,0,0, ,677.3,11.3,730.1,-1.4,-1,-2,25,679.67,13.0962,728.577,-0.830859,-0.347689,-1.83627,
2026_07_06_17_48_35.546,3.851,29.5,0,0.759,0,0,0,0.006, ,0,0,0,0,0, ,680,11.2,730.1,-0.7,-0.8,-1.9,25,679.608,12.9837,728.67,-0.844213,-0.381345,-1.8432,
2026_07_06_17_48_35.566,3.851,29.5,0,0.759,0,0,0,0.005, ,0,0,0,0,0, ,679,13.6,729.6,-0.9,-0.9,-1.8,25,679.601,12.9481,728.742,-0.841519,-0.409904,-1.84361,
2026_07_06_17_48_35.586,3.851,29.4,0,0.758,0,0,0,0.005, ,0,0,0,0,0, ,678.4,12.5,730.5,-1.5,-1.2,-1.8,25,679.547,12.9543,728.821,-0.863364,-0.44891,-1.84096,
2026_07_06_17_48_35.610,3.851,29.4,0,0.759,0,0,0,0.006, ,0,0,0,0,0, ,679.6,11.5,723.3,-0.9,-1,-1.8,25,679.513,12.8962,728.704,-0.883878,-0.488586,-1.83846,
2026_07_06_17_48_35.625,3.851,29.5,0,0.758,0,0,0,0.006, ,0,0,0,0,0, ,680.2,12.3,728,-0.2,-0.1,-1.7,25,679.537,12.8355,728.518,-0.863532,-0.492328,-1.83307,
2026_07_06_17_48_35.646,3.851,29.4,0,0.758,0,0,0,0.005, ,0,0,0,0,0, ,677,13.5,739.8,-0.8,-1.3,-1.8,25,679.48,12.8394,728.846,-0.841379,-0.504983,-1.82801,
2026_07_06_17_48_35.665,3.851,29.5,0,0.758,0,0,0,0.006, ,0,0,0,0,0, ,678.8,13,733.7,-1.6,-2.7,-1.7,25,679.383,12.8644,729.328,-0.863233,-0.596086,-1.82325,
2026_07_06_17_48_35.685,3.851,29.5,0,0.758,0,0,0,0.006, ,0,0,0,0,0, ,682.1,9.6,719.6,-1.5,-2.7,-1.7,25,679.448,12.7691,729.164,-0.905083,-0.724293,-1.81574,
2026_07_06_17_48_35.705,3.851,29.5,0,0.757,0,0,0,0.006, ,0,0,0,0,0, ,684.9,8.9,715.5,-0.4,-0.9,-1.7,25,679.695,12.5546,728.457,-0.90782,-0.789844,-1.80869,
2026_07_06_17_48_35.724,3.851,29.5,0,0.758,0,0,0,0.006, ,0,0,0,0,0, ,682,12.2,723.6,-0.4,0.4,-1.8,25,679.924,12.4325,727.914,-0.876875,-0.756947,-1.80511,
2026_07_06_17_48_35.749,3.851,29.4,0,0.759,0,0,0,0.006, ,0,0,0,0,0, ,680.4,11.5,727.1,-0.5,1.1,-2,25,680.002,12.397,727.758,-0.850862,-0.665117,-1.8109,
2026_07_06_17_48_35.764,3.851,29.5,0,0.757,0,0,0,0.007, ,0,0,0,0,0, ,680.2,12.3,728,-0.3,1.3,-2,25,680.02,12.3667,727.745,-0.823387,-0.551462,-1.82242,
2026_07_06_17_48_35.784,3.851,29.4,0,0.759,0,0,0,0.006, ,0,0,0,0,0, ,678.9,13.4,733.2,-0.1,1.1,-2,25,679.991,12.3962,727.919,-0.7854,-0.444732,-1.83324,
2026_07_06_17_48_35.804,3.851,29.4,0,0.759,0,0,0,0.007, ,0,0,0,0,0, ,678.7,14.5,735.2,-0.8,0,-1.9,25,679.919,12.4908,728.302,-0.764961,-0.384116,-1.84036,
2026_07_06_17_48_35.823,3.851,29.5,0,0.76,0,0,0,0.007, ,0,0,0,0,0, ,677.7,14.8,728.8,-1,-0.6,-1.9,25,679.814,12.6224,728.527,-0.77319,-0.37899,-1.84399,
2026_07_06_17_48_35.847,3.851,29.6,0,0.759,0,0,0,0.006, ,0,0,0,0,0, ,676.6,11.9,733.8,-1.4,-1.5,-1.8,25,679.652,12.6668,728.696,-0.799199,-0.41988,-1.84436,
2026_07_06_17_48_35.863,3.851,29.5,0,0.759,0,0,0,0.005, ,0,0,0,0,0, ,680.7,11.5,722.9,-0.9,-1.4,-1.7,25,679.591,12.6078,728.675,-0.820576,-0.482653,-1.83861,
2026_07_06_17_48_35.883,3.851,29.5,0,0.76,0,0,0,0.006, ,0,0,0,0,0, ,681.7,9.5,723.2,-0.4,-0.3,-1.8,25,679.689,12.4794,728.332,-0.810181,-0.505038,-1.83321,
2026_07_06_17_48_35.902,3.851,29.4,0,0.759,0,0,0,0.006, ,0,0,0,0,0, ,678.8,13,731.6,-0.6,-0.2,-1.9,25,679.723,12.4045,728.275,-0.79128,-0.489496,-1.83423,
2026_07_06_17_48_35.923,3.851,29.6,0,0.758,0,0,0,0.007, ,0,0,0,0,0, ,680.4,11.4,729.4,-1.3,-0.7,-1.8,25,679.715,12.392,728.411,-0.800952,-0.48709,-1.83519,
2026_07_06_17_48_35.943,3.851,29.5,0,0.759,0,0,0,0.005, ,0,0,0,0,0, ,680,10.7,724.4,-1.1,-0.4,-1.9,25,679.745,12.3102,728.319,-0.825269,-0.490923,-1.83609,
2026_07_06_17_48_35.962,3.851,29.5,0,0.758,0,0,0,0.006, ,0,0,0,0,0, ,681.5,10.7,724.8,-0.1,0.5,-1.9,25,679.806,12.2121,728.092,-0.811541,-0.457961,-1.83999,
2026_07_06_17_48_35.981,3.851,29.5,0,0.76,0,0,0,0.006, ,0,0,0,0,0, ,678.2,14,733.7,-0.3,0,-1.9,25,679.809,12.2205,728.163,-0.774276,-0.414819,-1.84365,
2026_07_06_17_48_36.002,3.851,29.5,0,0.759,0,0,0,0.006, ,0,0,0,0,0, ,678.7,13.3,733.1,-0.7,-0.7,-1.8,25,679.726,12.3076,728.482,-0.757562,-0.410869,-1.84403,
2026_07_06_17_48_36.021,3.851,29.5,0,0.758,0,0,0,0.006, ,0,0,0,0,0, ,679.5,12.3,729.6,-1.2,-1.6,-1.8,25,679.688,12.3376,728.657,-0.769289,-0.45591,-1.84135,
2026_07_06_17_48_36.041,3.851,29.5,0,0.758,0,0,0,0.006, ,0,0,0,0,0, ,680.4,12.5,722.1,-1.2,-1,-1.7,25,679.704,12.3414,728.486,-0.795535,-0.507347,-1.83578,
2026_07_06_17_48_36.061,3.851,29.5,0,0.758,0,0,0,0.007, ,0,0,0,0,0, ,682,11.5,725.4,-1.2,-0.5,-1.9,25,679.795,12.3206,728.197,-0.820182,-0.522134,-1.8336,
2026_07_06_17_48_36.082,3.851,29.5,0,0.758,0,0,0,0.007, ,0,0,0,0,0, ,681.3,8.9,723.7,-1,-0.2,-1.9,25,679.908,12.1914,727.975,-0.837234,-0.511644,-1.83765,
2026_07_06_17_48_36.101,3.851,29.6,0,0.758,0,0,0,0.007, ,0,0,0,0,0, ,680.9,10.3,725.9,-0.1,0.6,-1.9,25,679.981,12.0335,727.781,-0.81973,-0.468278,-1.84145,
2026_07_06_17_48_36.121,3.851,29.5,0,0.76,0,0,0,0.006, ,0,0,0,0,0, ,677.9,12.2,732.2,-0.1,0.3,-1.8,25,679.945,11.9857,727.859,-0.775872,-0.412321,-1.84197,
2026_07_06_17_48_36.140,3.851,29.5,0,0.758,0,0,0,0.007, ,0,0,0,0,0, ,679.4,12.8,728.2,-0.7,-0.1,-1.8,25,679.866,12.0171,728.001,-0.752967,-0.381101,-1.83941,
2026_07_06_17_48_36.159,3.851,29.5,0,0.758,0,0,0,0.007, ,0,0,0,0,0, ,681.1,12.3,724.2,-0.6,0.4,-1.9,25,679.89,12.0496,727.892,-0.746693,-0.348737,-1.84006,
2026_07_06_17_48_36.179,3.851,29.6,0,0.761,0,0,0,0.007, ,0,0,0,0,0, ,678.5,13,731.8,-0.3,0.8,-1.9,25,679.884,12.0861,727.898,-0.728613,-0.290924,-1.84371,
2026_07_06_17_48_36.199,3.851,29.6,0,0.758,0,0,0,0.006, ,0,0,0,0,0, ,676.5,14.5,738.2,-0.5,-0.2,-1.8,25,679.739,12.1875,728.331,-0.708588,-0.254914,-1.84409,
2026_07_06_17_48_36.220,3.851,29.6,0,0.76,0,0,0,0.006, ,0,0,0,0,0, ,677.7,12.4,733,-0.9,-1.3,-1.8,25,679.578,12.2645,728.774,-0.708065,-0.285083,-1.84141,
2026_07_06_17_48_36.243,3.851,29.6,0,0.758,0,0,0,0.006, ,0,0,0,0,0, ,680.2,11.8,728.7,-1.3,-1.6,-1.7,25,679.54,12.2544,728.9,-0.731948,-0.356071,-1.83584,
2026_07_06_17_48_36.259,3.851,29.5,0,0.759,0,0,0,0.006, ,0,0,0,0,0, ,681,11.3,721.6,-1,-1,-1.8,25,679.605,12.2115,728.672,-0.757423,-0.413591,-1.83061,
2026_07_06_17_48_36.278,3.851,29.6,0,0.758,0,0,0,0.007, ,0,0,0,0,0, ,679.5,10.9,723.1,-0.3,0,-1.7,25,679.644,12.1438,728.287,-0.750877,-0.418857,-1.82569,
2026_07_06_17_48_36.298,3.851,29.6,0,0.76,0,0,0,0.006, ,0,0,0,0,0, ,678.3,13.1,733.6,0,0.3,-1.9,25,679.599,12.135,728.291,-0.714261,-0.384192,-1.82413,
2026_07_06_17_48_36.318,3.851,29.6,0,0.759,0,0,0,0.006, ,0,0,0,0,0, ,677.6,13.6,739.6,-1,-1.1,-1.8,25,679.498,12.2091,728.797,-0.701205,-0.385155,-1.8257,
2026_07_06_17_48_36.338,3.851,29.6,0,0.758,0,0,0,0.006, ,0,0,0,0,0, ,678.3,12.8,733.2,-1.7,-2.4,-1.8,25,679.404,12.2694,729.26,-0.740741,-0.468326,-1.82414,
2026_07_06_17_48_36.358,3.851,29.6,0,0.756,0,0,0,0.006, ,0,0,0,0,0, ,681.3,10.6,720.4,-1.5,-2.2,-1.8,25,679.428,12.2347,729.11,-0.793102,-0.579943,-1.82267,
2026_07_06_17_48_36.377,3.851,29.6,0,0.758,0,0,0,0.006, ,0,0,0,0,0, ,681.2,12,720.3,-0.8,-0.9,-1.8,25,679.539,12.1778,728.576,-0.81485,-0.639056,-1.82129,
2026_07_06_17_48_36.397,3.851,29.6,0,0.758,0,0,0,0.006, ,0,0,0,0,0, ,679.6,13.3,725.7,-0.5,0,-1.9,25,679.591,12.2066,728.237,-0.804805,-0.627535,-1.82304,
2026_07_06_17_48_36.416,3.851,29.5,0,0.758,0,0,0,0.007, ,0,0,0,0,0, ,679.1,11.8,730.8,-1.1,-0.1,-1.8,25,679.577,12.2275,728.237,-0.804512,-0.592342,-1.82468,
2026_07_06_17_48_36.437,3.851,29.6,0,0.758,0,0,0,0.007, ,0,0,0,0,0, ,678.2,12,732.6,-1.3,-0.7,-1.9,25,679.52,12.2075,728.448,-0.828612,-0.580621,-1.82622,
2026_07_06_17_48_36.457,3.851,29.6,0,0.757,0,0,0,0.007, ,0,0,0,0,0, ,679.1,12.3,727.5,-0.8,-1.2,-1.8,25,679.467,12.204,728.546,-0.842103,-0.60313,-1.82767,
2026_07_06_17_48_36.477,3.851,29.6,0,0.758,0,0,0,0.007, ,0,0,0,0,0, ,680.1,13.4,728.8,-0.9,-1.2,-1.7,25,679.475,12.2434,728.522,-0.842584,-0.639502,-1.82294,
2026_07_06_17_48_36.496,3.851,29.6,0,0.759,0,0,0,0.007, ,0,0,0,0,0, ,679.4,11.3,723.8,-1.4,-1,-1.9,25,679.492,12.2499,728.387,-0.861317,-0.667563,-1.82154,
2026_07_06_17_48_36.516,3.851,29.6,0,0.758,0,0,0,0.007, ,0,0,0,0,0, ,682.6,8.9,724.8,-0.7,-0.3,-1.8,25,679.584,12.1189,728.137,-0.872815,-0.666493,-1.82327,
2026_07_06_17_48_36.536,3.851,29.7,0,0.758,0,0,0,0.007, ,0,0,0,0,0, ,679.8,11.4,725.8,-0.3,0.3,-1.9,25,679.682,11.9989,727.965,-0.850097,-0.625879,-1.8249,
2026_07_06_17_48_36.555,3.851,29.6,0,0.757,0,0,0,0.006, ,0,0,0,0,0, ,681.3,13,731.2,-0.6,0,-1.9,25,679.735,12.0112,727.997,-0.825716,-0.578599,-1.82948,
2026_07_06_17_48_36.576,3.851,29.7,0,0.759,0,0,0,0.007, ,0,0,0,0,0, ,679.1,11.3,728.7,-1.1,-0.5,-1.8,25,679.764,12.0196,728.116,-0.827196,-0.558575,-1.83073,
2026_07_06_17_48_36.596,3.851,29.7,0,0.758,0,0,0,0.006, ,0,0,0,0,0, ,679.5,11.4,726.6,-0.7,-0.1,-1.9,25,679.735,11.9788,728.088,-0.831632,-0.542818,-1.8319,
2026_07_06_17_48_36.614,3.851,29.7,0,0.758,0,0,0,0.006, ,0,0,0,0,0, ,678.5,10.3,730.2,-0.2,-0.6,-1.8,25,679.691,11.91,728.107,-0.808376,-0.531068,-1.83301,
2026_07_06_17_48_36.635,3.851,29.7,0,0.758,0,0,0,0.006, ,0,0,0,0,0, ,679.6,12.6,729.8,-0.3,-0.7,-1.8,25,679.651,11.882,728.222,-0.77435,-0.538315,-1.831,
2026_07_06_17_48_36.654,3.851,29.7,0,0.759,0,0,0,0.006, ,0,0,0,0,0, ,680,12.2,728.1,-1,-1.1,-1.7,25,679.661,11.9136,728.267,-0.766773,-0.560356,-1.82606,
2026_07_06_17_48_36.675,3.851,29.6,0,0.758,0,0,0,0.006, ,0,0,0,0,0, ,682.4,10.4,723.7,-0.7,-0.2,-1.8,25,679.754,11.8762,728.122,-0.771844,-0.565818,-1.82142,
2026_07_06_17_48_36.694,3.851,29.6,0,0.758,0,0,0,0.007, ,0,0,0,0,0, ,680.2,10.6,728.6,-0.4,0,-1.8,25,679.849,11.7923,728.002,-0.758326,-0.537432,-1.82012,
2026_07_06_17_48_36.715,3.851,29.7,0,0.758,0,0,0,0.007, ,0,0,0,0,0, ,678.1,12.6,732.5,-0.6,-0.4,-1.7,25,679.806,11.7806,728.157,-0.742584,-0.51687,-1.81585,
2026_07_06_17_48_36.733,3.851,29.7,0,0.758,0,0,0,0.006, ,0,0,0,0,0, ,681,11.7,728.5,-1,-0.9,-1.9,25,679.79,11.8031,728.3,-0.746083,-0.524983,-1.81488,
2026_07_06_17_48_36.754,3.851,29.7,0,0.757,0,0,0,0.006, ,0,0,0,0,0, ,681.2,12.2,725.4,-0.8,-0.7,-1.8,25,679.87,11.8121,728.218,-0.755462,-0.541742,-1.81702,
2026_07_06_17_48_36.773,3.851,29.7,0,0.759,0,0,0,0.006, ,0,0,0,0,0, ,679.3,12,729,-0.5,-0.6,-1.8,25,679.893,11.8296,728.156,-0.749036,-0.548339,-1.81598,
2026_07_06_17_48_36.793,3.851,29.6,0,0.758,0,0,0,0.006, ,0,0,0,0,0, ,681,11.5,725.2,-0.5,-0.5,-1.8,25,679.909,11.8247,728.092,-0.73386,-0.54844,-1.81501,
2026_07_06_17_48_36.813,3.851,29.7,0,0.76,0,0,0,0.007, ,0,0,0,0,0, ,682,11.1,721.9,-0.4,0.2,-1.8,25,680.006,11.7928,727.815,-0.716562,-0.52416,-1.81409,
2026_07_06_17_48_36.832,3.851,29.6,0,0.759,0,0,0,0.006, ,0,0,0,0,0, ,677.6,12.5,732.7,-0.1,0.5,-1.8,25,679.993,11.7932,727.783,-0.688131,-0.470891,-1.81324,
2026_07_06_17_48_36.853,3.851,29.7,0,0.757,0,0,0,0.007, ,0,0,0,0,0, ,678.9,13.5,735.7,-0.9,-0.7,-1.8,25,679.887,11.8668,728.174,-0.676667,-0.44829,-1.81243,
2026_07_06_17_48_36.872,3.851,29.7,0,0.758,0,0,0,0.007, ,0,0,0,0,0, ,680.5,12.9,723.8,-0.9,-1,-1.8,25,679.876,11.948,728.27,-0.690276,-0.472769,-1.81167,
2026_07_06_17_48_36.892,3.851,29.7,0,0.76,0,0,0,0.007, ,0,0,0,0,0, ,681.6,10,720.8,-0.3,0.1,-1.7,25,679.947,11.9176,727.907,-0.684775,-0.471381,-1.80791,
2026_07_06_17_48_36.912,3.851,29.8,0,0.759,0,0,0,0.007, ,0,0,0,0,0, ,678.7,14.1,733.7,-0.9,-0.5,-1.8,25,679.96,11.9257,727.867,-0.679609,-0.454844,-1.80438,
2026_07_06_17_48_36.931,3.851,29.8,0,0.758,0,0,0,0.006, ,0,0,0,0,0, ,679.1,12.3,731.9,-0.8,-1.1,-1.8,25,679.895,12.0034,728.167,-0.689992,-0.475877,-1.80412,
2026_07_06_17_48_36.952,3.851,29.8,0,0.759,0,0,0,0.006, ,0,0,0,0,0, ,679.9,12.6,724.9,-0.5,-1.3,-1.8,25,679.871,12.0306,728.181,-0.687555,-0.520003,-1.80387,
2026_07_06_17_48_36.972,3.851,29.8,0,0.759,0,0,0,0.006, ,0,0,0,0,0, ,680.5,12.3,726.3,-0.8,-0.8,-2,25,679.891,12.0561,728.024,-0.685267,-0.5523,-1.80972,
2026_07_06_17_48_36.990,3.851,29.6,0,0.76,0,0,0,0.006, ,0,0,0,0,0, ,680.1,12.3,722.4,-0.7,-0.2,-1.8,25,679.916,12.071,727.8,-0.689211,-0.549113,-1.81523,
2026_07_06_17_48_37.011,3.851,29.7,0,0.759,0,0,0,0.008, ,0,0,0,0,0, ,679.9,12.2,728.7,-0.6,0.1,-1.8,25,679.921,12.0819,727.663,-0.686822,-0.518698,-1.8143,
2026_07_06_17_48_37.030,3.851,29.8,0,0.758,0,0,0,0.007, ,0,0,0,0,0, ,679.8,12.5,733.1,-0.3,-0.5,-1.8,25,679.917,12.0982,727.86,-0.672391,-0.499278,-1.81343,
2026_07_06_17_48_37.050,3.851,29.7,0,0.758,0,0,0,0.006, ,0,0,0,0,0, ,679.6,13.1,734.3,-1,-1.5,-1.7,25,679.904,12.141,728.216,-0.671026,-0.52979,-1.80956,
2026_07_06_17_48_37.070,3.851,29.7,0,0.759,0,0,0,0.007, ,0,0,0,0,0, ,680.5,11.7,726.6,-1.5,-2.2,-1.7,25,679.912,12.1568,728.352,-0.706307,-0.610241,-1.80289,
2026_07_06_17_48_37.089,3.851,29.7,0,0.758,0,0,0,0.007, ,0,0,0,0,0, ,683.2,11.7,723.2,-0.1,-1.9,-1.6,25,680.031,12.129,728.142,-0.712017,-0.697976,-1.79357,
2026_07_06_17_48_37.110,3.851,29.7,0,0.759,0,0,0,0.007, ,0,0,0,0,0, ,681.3,12.6,727.7,0.1,-1.4,-1.7,25,680.166,12.1302,727.978,-0.668628,-0.75599,-1.78482,
2026_07_06_17_48_37.129,3.851,29.7,0,0.758,0,0,0,0.007, ,0,0,0,0,0, ,678.1,14.5,730.4,-1.2,-2,-1.7,25,680.137,12.2168,728.043,-0.661399,-0.813515,-1.77965,
2026_07_06_17_48_37.149,3.851,29.8,0,0.76,0,0,0,0.007, ,0,0,0,0,0, ,680.9,11.8,733.5,-1.7,-3.1,-1.8,25,680.099,12.2736,728.281,-0.709455,-0.919333,-1.77784,
2026_07_06_17_48_37.170,3.851,29.8,0,0.757,0,0,0,0.006, ,0,0,0,0,0, ,678.9,11.7,744.2,-0.9,-6.1,-1.5,25,680.086,12.2417,728.925,-0.745441,-1.14362,-1.77005,
2026_07_06_17_48_37.190,3.851,29.7,0,0.757,0,0,0,0.006, ,0,0,0,0,0, ,679.3,15.2,750.2,0.7,-9.4,-0.8,25,680.026,12.3153,730.039,-0.706109,-1.5462,-1.73227,
2026_07_06_17_48_37.209,3.851,29.8,0,0.759,0,0,0,0.007, ,0,0,0,0,0, ,707.6,28.6,817.6,1.4,-25,1.6,25,680.844,12.8994,733.321,-0.599097,-2.5001,-1.60233,
2026_07_06_17_48_37.228,3.851,29.8,0,0.758,0,0,0,0.006, ,0,0,0,0,0, ,788.8,-139.4,789.1,-3.4,-58.7,5.6,25,684.949,8.73742,737.588,-0.623527,-4.89799,-1.28532,
2026_07_06_17_48_37.248,3.851,29.7,0,0.758,0,0,0,0.006, ,0,0,0,0,0, ,749.7,3.2,730.4,-5,-89.5,9,25,690.086,4.05514,738.939,-0.841468,-9.11498,-0.762149,
2026_07_06_17_48_37.268,3.851,29.8,0,0.76,0,0,0,0.007, ,0,0,0,0,0, ,791.1,29.9,644.1,0,-102.7,-3.5,25,694.98,4.81654,735.789,-0.942535,-14.4156,-0.548128,
2026_07_06_17_48_37.288,3.851,29.8,0,0.758,0,0,0,0.006, ,0,0,0,0,0, ,905.8,2.9,621.2,8.9,-102.5,-0.2,25,704.332,5.52241,729.504,-0.613927,-19.7894,-0.627461,
2026_07_06_17_48_37.307,3.851,29.8,0,0.758,0,0,0,0.006, ,0,0,0,0,0, ,950.5,-1.7,630,12,-101.4,11.3,25,717.971,5.22245,723.172,0.0602808,-24.796,-0.251022,
2026_07_06_17_48_37.329,3.851,29.7,0,0.76,0,0,0,0.006, ,0,0,0,0,0, ,943.1,-0.3,630.8,14.4,-120.8,21.2,25,731.915,4.84327,717.519,0.860982,-30.0552,0.754509,
2026_07_06_17_48_37.348,3.851,29.8,0,0.759,0,0,0,0.007, ,0,0,0,0,0, ,924,17,592.7,16.5,-142.7,26.5,25,744.202,5.05696,711.074,1.75,-36.2522,2.16189,
2026_07_06_17_48_37.366,3.851,29.8,0,0.757,0,0,0,0.006, ,0,0,0,0,0, ,858.2,13.3,553.9,21.9,-141,24.6,25,753.154,5.67201,702.678,2.81336,-42.6871,3.5871,
2026_07_06_17_48_37.387,3.851,29.8,0,0.759,0,0,0,0.006, ,0,0,0,0,0, ,822.2,23.9,483.8,17.4,-146.4,16.9,25,758.458,6.4598,691.476,3.83934,-48.8425,4.63297,
2026_07_06_17_48_37.407,3.851,29.8,0,0.757,0,0,0,0.006, ,0,0,0,0,0, ,853.7,11.8,451.5,9.9,-148,14.6,25,763.302,7.15389,677.837,4.43718,-54.8362,5.31041,
2026_07_06_17_48_37.426,3.851,29.8,0,0.757,0,0,0,0.006, ,0,0,0,0,0, ,900.7,1,395.2,10.7,-143.8,13.5,25,770.243,7.10795,662.329,4.79444,-60.3854,5.84298,
2026_07_06_17_48_37.447,3.851,29.8,0,0.757,0,0,0,0.006, ,0,0,0,0,0, ,933.3,14.1,365.7,12.9,-159.9,4.5,25,779.186,7.13489,645.152,5.22135,-65.959,6.03536,
2026_07_06_17_48_37.465,3.851,29.8,0,0.759,0,0,0,0.006, ,0,0,0,0,0, ,935.6,-3.1,283.5,12.4,-178.1,19.3,25,788.647,7.03527,625.618,5.67403,-72.2381,6.39274,
2026_07_06_17_48_37.486,3.851,29.8,0,0.759,0,0,0,0.006, ,0,0,0,0,0, ,904.7,-3.6,222.9,17,-165.8,19.6,25,796.661,6.40241,602.924,6.22405,-78.3143,7.18841,
2026_07_06_17_48_37.504,3.851,29.8,0,0.759,0,0,0,0.006, ,0,0,0,0,0, ,916,-18.1,197,26.8,-149.4,17.3,25,803.589,5.35109,578.977,7.1793,-83.1458,7.87467,
2026_07_06_17_48_37.526,3.851,29.9,0,0.758,0,0,0,0.007, ,0,0,0,0,0, ,1038.8,-40,121,36.7,-140.3,24.9,25,814.18,3.25478,553.385,8.67658,-86.9059,8.68059,
2026_07_06_17_48_37.547,3.851,29.8,0,0.757,0,0,0,0.006, ,0,0,0,0,0, ,1007.4,-57.7,66,42.3,-130.3,34.5,25,826.911,0.0796432,525.361,10.5549,-89.8549,9.96146,
2026_07_06_17_48_37.565,3.851,29.9,0,0.758,0,0,0,0.007, ,0,0,0,0,0, ,916.3,-30.5,17.4,41.6,-136,35.3,25,835.134,-2.61255,495.888,12.468,-92.4932,11.4811,
2026_07_06_17_48_37.584,3.851,29.8,0,0.758,0,0,0,0.006, ,0,0,0,0,0, ,891.7,-31.2,-29.7,41.1,-134.1,23.8,25,839.331,-4.33327,465.295,14.228,-95.0865,12.5822,
2026_07_06_17_48_37.604,3.851,29.9,0,0.758,0,0,0,0.007, ,0,0,0,0,0, ,937.8,-74.5,-56.3,30.5,-128.5,27.8,25,843.927,-7.28976,434.32,15.5426,-97.2932,13.3877,
2026_07_06_17_48_37.624,3.851,29.9,0,0.759,0,0,0,0.006, ,0,0,0,0,0, ,991.8,-83.7,-133.6,26.1,-122.2,32.1,25,851.292,-11.6657,402.068,16.32,-99.0029,14.3969,
2026_07_06_17_48_37.643,3.851,29.9,0,0.759,0,0,0,0.006, ,0,0,0,0,0, ,880.2,-105.3,-158.9,38.4,-116.7,40.6,25,856.454,-16.7134,368.655,17.2907,-100.249,15.7347,
2026_07_06_17_48_37.663,3.851,29.9,0,0.759,0,0,0,0.006, ,0,0,0,0,0, ,735.7,-103.2,-169.5,26.4,-134.5,26.2,25,853.498,-22.0477,336.184,18.2114,-101.794,16.8112,
2026_07_06_17_48_37.684,3.851,29.9,0,0.759,0,0,0,0.006, ,0,0,0,0,0, ,881.8,-123.4,-214.9,23.9,-140.6,5.4,25,850.772,-27.6084,303.986,18.6342,-103.973,16.7496,
2026_07_06_17_48_37.703,3.851,29.9,0,0.76,0,0,0,0.006, ,0,0,0,0,0, ,933.5,-181.2,-234,21.1,-137.3,6,25,854.238,-35.2068,271.784,18.8698,-106.104,16.0762,
2026_07_06_17_48_37.724,3.851,29.9,0,0.758,0,0,0,0.006, ,0,0,0,0,0, ,833,-136.2,-264.4,-4,-123.3,-7.6,25,856.006,-42.7321,240.037,18.2409,-107.579,15.0478,
2026_07_06_17_48_37.742,3.851,29.9,0,0.758,0,0,0,0.006, ,0,0,0,0,0, ,843.7,-127,-336.1,-11.6,-118.6,-9.3,25,854.93,-48.1475,207.113,16.6541,-108.393,13.6159,
2026_07_06_17_48_37.763,3.851,29.9,0,0.758,0,0,0,0.006, ,0,0,0,0,0, ,892.7,-130.7,-421.5,-33.2,-138.1,-6.5,25,855.738,-53.0653,171.409,14.2742,-109.609,12.3048,
2026_07_06_17_48_37.782,3.851,29.9,0,0.758,0,0,0,0.006, ,0,0,0,0,0, ,818.4,-135.1,-392.4,-33.3,-135.4,-12.3,25,855.727,-57.9302,136.165,11.3782,-111.263,10.9822,
2026_07_06_17_48_37.802,3.851,29.8,0,0.759,0,0,0,0.006, ,0,0,0,0,0, ,715.5,-66.7,-490.8,5.8,-140.2,-19.7,25,850.317,-60.5487,100.958,9.84696,-112.88,9.33795,
2026_07_06_17_48_37.822,3.851,29.9,0,0.757,0,0,0,0.007, ,0,0,0,0,0, ,799,-101.5,-520,25.9,-148.2,-41,25,844.646,-61.9839,64.0077,10.2128,-114.789,6.91946,
2026_07_06_17_48_37.842,3.851,29.9,0,0.757,0,0,0,0.006, ,0,0,0,0,0, ,789.1,-107.5,-491.5,-7.8,-147.4,-21.3,25,841.563,-64.5747,29.2881,10.1419,-116.801,4.59961,
2026_07_06_17_48_37.861,3.851,29.8,0,0.758,0,0,0,0.006, ,0,0,0,0,0, ,746.9,-69.5,-616.8,-17.7,-146.7,-12.3,25,837.08,-66.0326,-6.26518,8.74694,-118.644,3.29557,
2026_07_06_17_48_37.882,3.851,29.9,0,0.758,0,0,0,0.007, ,0,0,0,0,0, ,717.4,-76,-669.1,-0.1,-135.5,-13.9,25,830.686,-66.442,-45.0632,7.67158,-120.012,2.29646,
2026_07_06_17_48_37.901,3.851,29.9,0,0.76,0,0,0,0.006, ,0,0,0,0,0, ,704.3,-92.2,-675.4,1.1,-113.1,-17,25,823.383,-67.518,-83.2823,7.23456,-120.274,1.21504,
2026_07_06_17_48_37.920,3.851,29.9,0,0.758,0,0,0,0.006, ,0,0,0,0,0, ,656.7,-60.9,-700,-6.6,-107.2,-16.5,25,814.676,-68.0684,-120.114,6.62613,-119.657,0.120294,
2026_07_06_17_48_37.941,3.851,29.9,0,0.758,0,0,0,0.006, ,0,0,0,0,0, ,620.2,-66.4,-706.9,-10.7,-111.4,-18.8,25,803.937,-67.7992,-155.661,5.69524,-119.026,-0.962583,
2026_07_06_17_48_37.960,3.851,29.9,0,0.758,0,0,0,0.006, ,0,0,0,0,0, ,679.9,-58.7,-748.2,-21.7,-112.3,-19.9,25,794.56,-67.4793,-190.511,4.361,-118.588,-2.08307,
2026_07_06_17_48_37.981,3.851,30,0,0.758,0,0,0,0.006, ,0,0,0,0,0, ,666.5,-69.5,-756.8,-23,-95,-6.8,25,787.165,-67.2734,-224.757,2.7333,-117.678,-2.76964,
2026_07_06_17_48_38.000,3.851,29.9,0,0.759,0,0,0,0.005, ,0,0,0,0,0, ,599.7,-45.8,-779,-39.2,-75.1,-4.2,25,777.776,-66.6869,-257.855,0.671581,-115.69,-2.93603,
2026_07_06_17_48_38.020,3.851,30,0,0.758,0,0,0,0, ,0,0,0,0,0, ,546.6,-31.9,-825,-32.9,-62.8,-10.2,25,765.307,-64.9906,-291.013,-1.56614,-112.842,-3.19586,
2026_07_06_17_48_38.039,3.851,30,0,0.757,0,0,0,0, ,0,0,0,0,0, ,543.4,-31.1,-814.2,-28.5,-57.6,-11.9,25,751.882,-62.9498,-323.224,-3.34148,-109.634,-3.67447,
2026_07_06_17_48_38.059,3.851,29.9,0,0.759,0,0,0,0, ,0,0,0,0,0, ,537.5,-26.6,-827.5,-27.8,-50.9,-10.7,25,738.998,-60.8718,-353.548,-4.85325,-106.259,-4.13915,
2026_07_06_17_48_38.081,3.851,29.9,0,0.758,0,0,0,0, ,0,0,0,0,0, ,511.8,0.1,-899.6,-29.3,-40.3,-9.7,25,725.936,-57.9699,-384.626,-6.29727,-102.562,-4.50849,
2026_07_06_17_48_38.100,3.851,30,0,0.758,0,0,0,0, ,0,0,0,0,0, ,524.6,-11.4,-863.1,-30.1,-34.3,-5.1,25,713.277,-54.7816,-414.896,-7.72338,-98.5854,-4.68469,
2026_07_06_17_48_38.119,3.851,30,0,0.758,0,0,0,0, ,0,0,0,0,0, ,503.9,17.5,-919.9,-29.9,-29.2,-7.9,25,701.149,-51.2575,-443.939,-9.08086,-94.5126,-4.79531,
2026_07_06_17_48_38.139,3.851,30,0,0.758,0,0,0,0, ,0,0,0,0,0, ,503.9,23.8,-914.7,-21.3,-22,-8.7,25,689.129,-46.8757,-472.784,-10.0875,-90.3133,-5.00888,
2026_07_06_17_48_38.157,3.851,30,0,0.76,0,0,0,0, ,0,0,0,0,0, ,488.8,31.7,-907.5,-18.1,-21.5,-7.2,25,677.382,-42.3282,-499.494,-10.6733,-86.1352,-5.1881,
2026_07_06_17_48_38.178,3.851,30,0,0.759,0,0,0,0, ,0,0,0,0,0, ,512.4,31.1,-897.5,-15.2,-20.2,-8.5,25,666.609,-37.8353,-524.052,-11.0375,-82.1569,-5.35031,
2026_07_06_17_48_38.198,3.851,30,0,0.759,0,0,0,0, ,0,0,0,0,0, ,521.3,36.1,-912.4,-12.5,-3.1,-5,25,657.483,-33.4823,-547.263,-11.2089,-77.8604,-5.4356,
2026_07_06_17_48_38.217,3.851,29.9,0,0.758,0,0,0,0, ,0,0,0,0,0, ,500.8,41.2,-926,-7.6,15,-4.6,25,648.56,-29.0867,-569.928,-11.1382,-72.7532,-5.39687,
2026_07_06_17_48_38.238,3.851,30,0,0.758,0,0,0,0, ,0,0,0,0,0, ,480.1,52.4,-899.6,-5.7,16.6,-3.7,25,638.925,-24.4624,-590.822,-10.8647,-67.357,-5.32089,
2026_07_06_17_48_38.257,3.851,30,0,0.758,0,0,0,0, ,0,0,0,0,0, ,479.6,49.9,-880.2,-6.6,8.4,-5.5,25,629.231,-19.8547,-609.047,-10.5774,-62.4907,-5.27696,
2026_07_06_17_48_38.277,3.851,30,0,0.758,0,0,0,0, ,0,0,0,0,0, ,501.9,52.9,-895.5,-5.2,14.3,-6.5,25,620.793,-15.5126,-626.036,-10.2924,-57.991,-5.32102,
2026_07_06_17_48_38.296,3.851,30,0,0.758,0,0,0,0, ,0,0,0,0,0, ,525.3,48.9,-872.8,-1.9,32.3,-4.3,25,614.261,-11.4656,-641.765,-9.88153,-53.0374,-5.32583,
2026_07_06_17_48_38.317,3.851,30,0,0.758,0,0,0,0, ,0,0,0,0,0, ,517.9,52.7,-855.8,0.2,50.1,-3.6,25,608.614,-7.67131,-655.326,-9.33117,-47.2948,-5.24199,
2026_07_06_17_48_38.336,3.851,30,0,0.759,0,0,0,0, ,0,0,0,0,0, ,523,62.8,-843.9,1.1,69.9,-4.4,25,603.242,-3.6847,-667.18,-8.72295,-40.7565,-5.16631,
2026_07_06_17_48_38.356,3.851,30,0,0.759,0,0,0,0, ,0,0,0,0,0, ,541.1,-4.8,-790,6.8,90.9,1.7,25,598.903,-1.69298,-676.306,-7.95069,-33.3735,-4.93375,
2026_07_06_17_48_38.377,3.851,30,0,0.758,0,0,0,0, ,0,0,0,0,0, ,630.9,52,-845.5,6.1,117.8,-7.4,25,598.117,-0.151685,-684.926,-7.07315,-24.981,-4.80677,
2026_07_06_17_48_38.396,3.851,30,0,0.758,0,0,0,0, ,0,0,0,0,0, ,691.7,41.7,-820.9,12.2,155,-5,25,601.967,2.71248,-693.961,-6.08455,-15.1468,-4.89167,
2026_07_06_17_48_38.416,3.851,30,0,0.758,0,0,0,0, ,0,0,0,0,0, ,743.5,36.1,-770.7,18.9,195.2,-2.9,25,609.014,4.91766,-700.167,-4.76619,-3.55367,-4.83429,
2026_07_06_17_48_38.436,3.851,30,0,0.758,0,0,0,0, ,0,0,0,0,0, ,752.3,44.3,-676,17.8,212.9,-3.5,25,617.477,7.06767,-701.58,-3.35755,9.09717,-4.7347,
2026_07_06_17_48_38.456,3.851,30,0,0.758,0,0,0,0, ,0,0,0,0,0, ,769.8,32.8,-643.7,12.1,199.3,-1.1,25,626.226,8.98613,-699.037,-2.24193,21.102,-4.58634,
2026_07_06_17_48_38.475,3.851,30,0,0.759,0,0,0,0, ,0,0,0,0,0, ,822.7,17.2,-605.9,11.4,185.5,3,25,636.587,9.96197,-694.513,-1.3893,31.5405,-4.24897,
2026_07_06_17_48_38.494,3.851,30,0,0.757,0,0,0,0, ,0,0,0,0,0, ,879.2,18.5,-557.2,10.9,182.8,9.2,25,649.65,10.4427,-687.629,-0.625188,40.8401,-3.61833,
2026_07_06_17_48_38.515,3.851,30,0,0.756,0,0,0,0, ,0,0,0,0,0, ,931.1,7.4,-478.7,10.7,196.9,16.4,25,665.219,10.5954,-677.289,0.0710345,49.9204,-2.61783,
2026_07_06_17_48_38.534,3.851,30,0,0.758,0,0,0,0, ,0,0,0,0,0, ,909.9,-2.4,-405.1,13.7,220.3,18.4,25,680.775,10.1021,-662.945,0.810143,59.59,-1.398,
2026_07_06_17_48_38.554,3.851,30,0,0.758,0,0,0,0, ,0,0,0,0,0, ,861.2,-1.7,-335,8.2,222.3,16.9,25,693.254,9.36161,-645.097,1.42804,69.4442,-0.237261,
2026_07_06_17_48_38.574,3.851,30,0,0.758,0,0,0,0, ,0,0,0,0,0, ,880.8,6.9,-253.7,-0.6,193.4,14.3,25,704.085,8.94957,-623.723,1.57258,77.8783,0.727822,
2026_07_06_17_48_38.594,3.851,30,0,0.76,0,0,0,0, ,0,0,0,0,0, ,916.5,-2.1,-188.4,-1.8,161.4,7.6,25,715.941,8.55046,-599.185,1.40363,83.9429,1.35074,
2026_07_06_17_48_38.614,3.851,30,0,0.758,0,0,0,0, ,0,0,0,0,0, ,956.6,-10.9,-145.6,-5.3,154.5,6.2,25,729.385,7.63332,-572.849,1.10177,88.4527,1.68889,
2026_07_06_17_48_38.633,3.851,30,0,0.759,0,0,0,0, ,0,0,0,0,0, ,975.4,-14.8,-100.2,-9.4,160.5,6.5,25,743.804,6.38512,-545.43,0.586737,92.6603,1.97293,
2026_07_06_17_48_38.654,3.851,30,0,0.759,0,0,0,0, ,0,0,0,0,0, ,983.8,-18.9,-77.5,-7.4,160.3,6.5,25,758.172,4.96923,-517.608,0.0391074,96.7881,2.2488,
2026_07_06_17_48_38.672,3.851,30,0,0.758,0,0,0,0, ,0,0,0,0,0, ,947.6,-26.9,-20.9,-5.1,151.1,6.3,25,770.819,3.27095,-489.064,-0.344135,100.378,2.50176,
2026_07_06_17_48_38.694,3.851,30,0,0.758,0,0,0,0, ,0,0,0,0,0, ,960.2,-26,12.6,-2.4,150.1,4,25,781.975,1.45983,-459.515,-0.55168,103.438,2.66314,
2026_07_06_17_48_38.715,3.851,30,0,0.758,0,0,0,0, ,0,0,0,0,0, ,944,-30.6,60.4,0.5,156.4,-0.6,25,792.342,-0.353663,-429.289,-0.575953,106.474,2.60445,
2026_07_06_17_48_38.731,3.851,30,0,0.759,0,0,0,0, ,0,0,0,0,0, ,916.7,2.6,124.2,3.9,151.1,-1.8,25,800.752,-1.18524,-397.504,-0.406793,109.355,2.37261,
2026_07_06_17_48_38.752,3.851,30,0,0.759,0,0,0,0, ,0,0,0,0,0, ,948.6,-24.6,154.2,6.1,148.7,1.6,25,808.789,-1.78332,-364.799,-0.0773165,111.825,2.22194,
2026_07_06_17_48_38.772,3.851,30,0,0.76,0,0,0,0, ,0,0,0,0,0, ,948.6,-54.1,216.4,2.7,157.6,0.2,25,817.309,-4.07254,-331.277,0.19552,114.344,2.14138,
2026_07_06_17_48_38.792,3.851,30,0,0.759,0,0,0,0, ,0,0,0,0,0, ,958.9,16.6,232.4,2.2,167.2,6.5,25,825.624,-4.96695,-297.416,0.332902,117.272,2.21503,
2026_07_06_17_48_38.811,3.851,30,0,0.757,0,0,0,0, ,0,0,0,0,0, ,954.2,-40,314.2,11,149.9,7.4,25,833.602,-5.37725,-262.638,0.714804,119.788,2.50357,
2026_07_06_17_48_38.831,3.851,30,0,0.758,0,0,0,0, ,0,0,0,0,0, ,870.2,-20.6,364.8,15.6,133.6,1.3,25,838.391,-6.89598,-225.945,1.48171,121.126,2.61609,
2026_07_06_17_48_38.852,3.851,30.1,0,0.757,0,0,0,0, ,0,0,0,0,0, ,840.5,-34.1,432.6,19.1,126.6,0,25,839.425,-8.14239,-187.881,2.44869,121.673,2.49628,
2026_07_06_17_48_38.871,3.851,29.9,0,0.758,0,0,0,0, ,0,0,0,0,0, ,813.9,-40.5,458.6,23.3,117.3,-1.7,25,838.68,-9.91918,-149.278,3.59135,121.69,2.29237,
2026_07_06_17_48_38.891,3.851,30.1,0,0.758,0,0,0,0, ,0,0,0,0,0, ,755.7,-149.6,478.2,42.5,109.1,1.7,25,835.397,-15.1068,-111.638,5.37734,121.172,2.15267,
2026_07_06_17_48_38.910,3.851,30,0,0.758,0,0,0,0, ,0,0,0,0,0, ,786.4,36.6,572.1,46,96.1,7.6,25,831.475,-17.6292,-72.8339,7.74614,120.041,2.30486,
2026_07_06_17_48_38.933,3.851,30,0,0.76,0,0,0,0, ,0,0,0,0,0, ,741.4,9.3,591.1,35,90.5,-2,25,827.358,-15.1564,-32.9543,9.74208,118.411,2.33503,
2026_07_06_17_48_38.952,3.851,30,0,0.757,0,0,0,0, ,0,0,0,0,0, ,729.4,-7.8,643.7,34.4,74.5,-5.9,25,821.754,-14.1871,6.67662,11.263,116.223,1.95203,
2026_07_06_17_48_38.970,3.851,30,0,0.76,0,0,0,0, ,0,0,0,0,0, ,726.1,12.5,672.9,33.3,56,-6.3,25,816.026,-13.1794,46.3849,12.6394,113.117,1.46136,
2026_07_06_17_48_38.990,3.851,30,0,0.759,0,0,0,0, ,0,0,0,0,0, ,743.1,31.4,688.3,28.8,50,-7.7,25,811.064,-11.0387,85.0324,13.7613,109.453,0.945749,
2026_07_06_17_48_39.010,3.851,30.1,0,0.759,0,0,0,0, ,0,0,0,0,0, ,732.1,50.7,715.2,21.7,39.2,-10.3,25,806.587,-7.86456,122.614,14.4613,105.501,0.33968,
2026_07_06_17_48_39.029,3.851,30.1,0,0.758,0,0,0,0, ,0,0,0,0,0, ,736.2,36.8,729.8,14.7,19.4,-10.3,25,802.173,-4.71929,159.169,14.6892,100.858,-0.308675,
2026_07_06_17_48_39.049,3.851,30,0,0.76,0,0,0,0, ,0,0,0,0,0, ,737,32.1,733.3,10.7,10.6,-8.2,25,798.177,-2.33242,194.049,14.568,95.6257,-0.853537,
2026_07_06_17_48_39.068,3.851,30,0,0.759,0,0,0,0, ,0,0,0,0,0, ,750,41.1,717.8,10.7,15.2,-9,25,794.845,0.0400274,226.437,14.3323,90.5846,-1.32559,
2026_07_06_17_48_39.089,3.851,29.9,0,0.758,0,0,0,0, ,0,0,0,0,0, ,764.8,61.7,708.7,6,17.4,-9.1,25,792.563,3.16978,256.102,13.9677,86.0579,-1.79629,
2026_07_06_17_48_39.108,3.851,30,0,0.759,0,0,0,0, ,0,0,0,0,0, ,757.2,58.3,716.6,6.8,10.9,-6.8,25,790.64,6.63287,283.923,13.5066,81.676,-2.17129,
2026_07_06_17_48_39.128,3.851,30,0,0.757,0,0,0,0, ,0,0,0,0,0, ,743.5,61.2,742,5.4,1,-4.1,25,788.185,9.86969,311.063,13.0552,77.0615,-2.37108,
2026_07_06_17_48_39.147,3.851,30.1,0,0.759,0,0,0,0, ,0,0,0,0,0, ,745.4,67.3,735.2,0.9,3,-5,25,785.52,13.1835,337.116,12.4516,72.4874,-2.50386,
2026_07_06_17_48_39.167,3.851,30,0,0.758,0,0,0,0, ,0,0,0,0,0, ,749.6,73.3,716,-3.6,13.8,-5,25,783.203,16.664,360.789,11.6106,68.5821,-2.65597,
2026_07_06_17_48_39.187,3.851,30,0,0.76,0,0,0,0, ,0,0,0,0,0, ,726.5,62.9,697.2,-5,18.4,-4.5,25,780.451,19.7984,381.862,10.641,65.384,-2.78357,
2026_07_06_17_48_39.207,3.851,30,0,0.758,0,0,0,0, ,0,0,0,0,0, ,721.5,57.8,687.5,-3.6,15.8,-3,25,777.011,22.2695,400.783,9.73056,62.4417,-2.84246,
2026_07_06_17_48_39.227,3.851,30.1,0,0.758,0,0,0,0, ,0,0,0,0,0, ,711.9,60.5,676,-2,8.7,-3.7,25,773.336,24.5169,417.904,8.96698,59.3831,-2.87339,
2026_07_06_17_48_39.248,3.851,30.1,0,0.758,0,0,0,0, ,0,0,0,0,0, ,724.8,55.9,677.9,0.5,1.8,-3.5,25,769.985,26.5695,433.69,8.37485,56.0844,-2.91767,
2026_07_06_17_48_39.267,3.851,30,0,0.759,0,0,0,0, ,0,0,0,0,0, ,718.6,56.3,699.9,1.3,-0.8,-0.6,25,767.043,28.369,449.242,7.91935,52.6972,-2.8648,
2026_07_06_17_48_39.287,3.851,30,0,0.759,0,0,0,0, ,0,0,0,0,0, ,697.2,66.5,712.8,-0.3,-2.2,-2,25,763.439,30.3818,464.909,7.46724,49.3946,-2.76944,
2026_07_06_17_48_39.306,3.851,30,0,0.758,0,0,0,0, ,0,0,0,0,0, ,709.7,73.4,714.5,0.3,-5.9,-6.7,25,759.783,32.793,480.067,7.0122,46.1378,-2.86576,
2026_07_06_17_48_39.325,3.851,30,0,0.758,0,0,0,0, ,0,0,0,0,0, ,730.8,74.9,721.8,3.1,-10.4,-6.9,25,757.374,35.3132,494.575,6.68849,42.8296,-3.1055,
2026_07_06_17_48_39.348,3.851,30,0,0.758,0,0,0,0, ,0,0,0,0,0, ,736.5,79.2,734,3.7,-14.5,-5.1,25,755.929,37.8565,508.793,6.4881,39.461,-3.28188,
2026_07_06_17_48_39.370,3.851,30,0,0.757,0,0,0,0, ,0,0,0,0,0, ,758.9,99.9,741.4,4.2,-19.2,-6.9,25,755.427,41.0066,522.742,6.33343,36.0296,-3.44752,
2026_07_06_17_48_39.385,3.851,30.1,0,0.76,0,0,0,0, ,0,0,0,0,0, ,739.8,95,747.5,9.3,-21,-13,25,755.057,44.4461,536.253,6.35882,32.6092,-3.84376,
2026_07_06_17_48_39.405,3.851,30,0,0.758,0,0,0,0, ,0,0,0,0,0, ,701.7,121.4,719.6,19.4,-28.4,-27,25,752.966,48.3311,548.275,6.84578,29.1169,-4.82828,
2026_07_06_17_48_39.425,3.851,30,0,0.758,0,0,0,0, ,0,0,0,0,0, ,699.2,134.8,712.1,13.9,-38.7,-33.3,25,749.766,53.192,558.487,7.44322,25.2981,-6.37133,
2026_07_06_17_48_39.445,3.851,30,0,0.759,0,0,0,0, ,0,0,0,0,0, ,716.6,164.9,698.3,2,-67.6,-46.4,25,747.215,59.0821,567.427,7.47411,20.5177,-8.41143,
2026_07_06_17_48_39.464,3.851,30.1,0,0.759,0,0,0,0, ,0,0,0,0,0, ,719.3,218.9,671.5,-2.8,-104.9,-60.6,25,745.432,67.1757,574.586,6.99428,14.0115,-11.159,
2026_07_06_17_48_39.485,3.851,30,0,0.758,0,0,0,0, ,0,0,0,0,0, ,743,317.1,605.3,14.9,-147.8,-82.3,25,744.561,79.4135,578.474,6.93673,5.45826,-14.833,
2026_07_06_17_48_39.504,3.851,30.1,0,0.759,0,0,0,0, ,0,0,0,0,0, ,833.2,272.7,498.7,-9.4,-172.8,-95.1,25,747.214,92.5447,576.861,6.68161,-4.64263,-19.3343,
2026_07_06_17_48_39.524,3.851,30,0,0.759,0,0,0,0, ,0,0,0,0,0, ,877.9,254.8,440.9,-19.3,-176.3,-89.9,25,753.816,102.977,570.337,5.39999,-14.9964,-23.7928,
2026_07_06_17_48_39.545,3.851,30,0,0.758,0,0,0,0, ,0,0,0,0,0, ,880,274.5,373,-17.9,-152.9,-81.3,25,761.441,112.829,560.381,3.93749,-24.1128,-27.5592,
2026_07_06_17_48_39.564,3.851,30,0,0.757,0,0,0,0, ,0,0,0,0,0, ,861.8,246.5,366.3,-8.1,-106.2,-92.4,25,768.112,121.828,548.758,2.90536,-30.5379,-31.1722,
2026_07_06_17_48_39.585,3.851,29.9,0,0.758,0,0,0,0, ,0,0,0,0,0, ,941.1,262.3,342.7,-2,-78,-83.3,25,776.237,129.907,536.92,2.42058,-34.2893,-34.626,
2026_07_06_17_48_39.603,3.851,30,0,0.759,0,0,0,0, ,0,0,0,0,0, ,932.1,248.9,305.9,14.7,-72.6,-82,25,786.009,137.566,523.964,2.66003,-36.7884,-37.5525,
2026_07_06_17_48_39.624,3.851,30.1,0,0.758,0,0,0,0, ,0,0,0,0,0, ,870.7,264.7,260.9,37.6,-59.2,-83.6,25,793.041,144.832,509.305,4.09145,-38.5624,-40.3097,
2026_07_06_17_48_39.643,3.851,30,0,0.758,0,0,0,0, ,0,0,0,0,0, ,795.8,283.6,252.6,49.2,-58.8,-81.3,25,795.491,152.712,493.914,6.48682,-39.8078,-42.8777,
2026_07_06_17_48_39.663,3.851,30,0,0.759,0,0,0,0, ,0,0,0,0,0, ,750.6,343.3,224.6,53.9,-86.7,-75.6,25,794.133,162.507,478.356,9.23285,-41.8152,-45.0454,
2026_07_06_17_48_39.682,3.851,30,0,0.759,0,0,0,0, ,0,0,0,0,0, ,707.5,389.7,192.5,57.9,-109,-84.1,25,790.167,174.938,461.915,12.0766,-45.2299,-47.1663,
2026_07_06_17_48_39.702,3.851,30,0,0.759,0,0,0,0, ,0,0,0,0,0, ,629.8,416.8,160.6,69.4,-107.9,-114.8,25,782.762,188.851,444.526,15.2194,-49.0823,-50.3523,
2026_07_06_17_48_39.722,3.851,30,0,0.758,0,0,0,0, ,0,0,0,0,0, ,640.9,474.1,147.3,62,-115.9,-128.4,25,773.779,204.487,426.819,18.2955,-52.9103,-54.694,
2026_07_06_17_48_39.742,3.851,30,0,0.758,0,0,0,0, ,0,0,0,0,0, ,716,540.8,127.8,41.7,-133.6,-128.6,25,767.97,222.949,409.191,20.3403,-57.288,-59.1915,
2026_07_06_17_48_39.763,3.851,30,0,0.758,0,0,0,0, ,0,0,0,0,0, ,755.9,547.9,106.9,26.3,-142.4,-131.6,25,766.018,242.534,391.407,21.1727,-62.2064,-63.5125,
2026_07_06_17_48_39.782,3.851,30.1,0,0.759,0,0,0,0, ,0,0,0,0,0, ,774.4,609.4,73.8,11.2,-135.7,-128.3,25,765.966,263.016,373.062,21.025,-66.8891,-67.561,
2026_07_06_17_48_39.801,3.851,30,0,0.758,0,0,0,0, ,0,0,0,0,0, ,752.5,655.1,20.8,7,-114.4,-142.1,25,765.812,285.517,353.21,20.2983,-70.4332,-71.6828,
2026_07_06_17_48_39.821,3.851,30,0,0.759,0,0,0,0, ,0,0,0,0,0, ,793.5,646.8,0.8,9.9,-81.8,-148.7,25,766.25,307.785,332.345,19.5763,-72.1192,-76.1749,
2026_07_06_17_48_39.841,3.851,30,0,0.76,0,0,0,0, ,0,0,0,0,0, ,836.7,689.6,-5.6,-3.4,-61.5,-130.2,25,769.227,329.748,311.946,18.5815,-72.0906,-80.0308,
2026_07_06_17_48_39.861,3.851,30,0,0.757,0,0,0,0, ,0,0,0,0,0, ,885.4,710.9,-22.5,-20,-45.1,-108.2,25,774.823,352.325,292.081,16.7362,-70.9455,-82.4176,
2026_07_06_17_48_39.879,3.851,30,0,0.758,0,0,0,0, ,0,0,0,0,0, ,892.4,733,-66.1,-11.5,-25.5,-88.7,25,781.774,374.849,271.583,14.7566,-68.7734,-83.3946,
2026_07_06_17_48_39.900,3.851,29.9,0,0.759,0,0,0,0, ,0,0,0,0,0, ,801.3,803.7,-88.7,1,11.1,-82.9,25,785.74,398.828,250.317,13.5374,-65.0213,-83.5412,
2026_07_06_17_48_39.920,3.851,30.1,0,0.758,0,0,0,0, ,0,0,0,0,0, ,672.3,823.1,-106.2,1.2,35.7,-87.7,25,782.757,424.091,229.125,12.7795,-59.6331,-83.6484,
2026_07_06_17_48_39.939,3.851,30.1,0,0.757,0,0,0,0, ,0,0,0,0,0, ,603,785.1,-88.8,5.3,19.8,-80.1,25,773.915,447.248,209.221,12.1988,-54.3082,-83.6637,
2026_07_06_17_48_39.960,3.851,30,0,0.758,0,0,0,0, ,0,0,0,0,0, ,567.8,793.2,-71.7,3.8,5.1,-78.9,25,762.427,468.083,191.581,11.7327,-50.2401,-83.41,
2026_07_06_17_48_39.980,3.851,30,0,0.759,0,0,0,0, ,0,0,0,0,0, ,506.1,821.7,-81,1,16.8,-82.4,25,748.687,488.763,175.254,11.164,-46.5113,-83.2418,
2026_07_06_17_48_40.000,3.851,30,0,0.757,0,0,0,0, ,0,0,0,0,0, ,425.5,835.9,-53.3,-3.5,27.4,-94.2,25,731.449,509.484,160.483,10.4075,-42.3303,-83.55,
2026_07_06_17_48_40.019,3.851,30,0,0.758,0,0,0,0, ,0,0,0,0,0, ,421.8,820.9,-76,-3.4,27.1,-104.4,25,712.692,528.918,146.764,9.56307,-38.0903,-84.5098,
2026_07_06_17_48_40.044,3.851,30,0,0.758,0,0,0,0, ,0,0,0,0,0, ,437.6,831.4,-90.9,-4.7,15.3,-102.7,25,695.448,547.03,132.735,8.73352,-34.4773,-85.67,
2026_07_06_17_48_40.059,3.851,30.1,0,0.757,0,0,0,0, ,0,0,0,0,0, ,460.2,838.2,-70.4,-4.3,6.6,-98.5,25,680.424,564.566,119.732,7.9271,-31.7091,-86.5798,
2026_07_06_17_48_40.080,3.851,30,0,0.759,0,0,0,0, ,0,0,0,0,0, ,462,865.9,-76,-4.8,7,-94.1,25,667.058,582.085,107.975,7.16678,-29.3624,-87.1722,
2026_07_06_17_48_40.098,3.851,30,0,0.758,0,0,0,0, ,0,0,0,0,0, ,423.3,898.5,-66.7,-1.3,9.2,-86.3,25,653.384,600.373,97.0475,6.54419,-27.0795,-87.3567,
2026_07_06_17_48_40.118,3.851,30,0,0.759,0,0,0,0, ,0,0,0,0,0, ,429.9,907.5,-57.4,-1.5,11.9,-77.7,25,639.564,618.815,87.3525,6.0601,-24.7865,-87.0302,
2026_07_06_17_48_40.138,3.851,30,0,0.758,0,0,0,0, ,0,0,0,0,0, ,463.3,921.3,-74.5,0.3,10.5,-55.6,25,627.805,636.827,78.0106,5.65425,-22.5936,-85.7883,
2026_07_06_17_48_40.158,3.851,30,0,0.759,0,0,0,0, ,0,0,0,0,0, ,417.7,966.4,-49.1,3.2,14.4,-40.5,25,616.391,655.536,69.4909,5.41633,-20.4581,-83.4886,
2026_07_06_17_48_40.176,3.851,30,0,0.758,0,0,0,0, ,0,0,0,0,0, ,388.9,949.8,-29.6,4.9,7.2,-30.5,25,603.406,673.974,62.8584,5.33307,-18.5533,-80.5643,
2026_07_06_17_48_40.197,3.851,30,0,0.758,0,0,0,0, ,0,0,0,0,0, ,364,959.1,15.9,3.9,0.2,-21,25,589.576,691.065,58.6105,5.27621,-17.1973,-77.2241,
2026_07_06_17_48_40.217,3.851,30,0,0.76,0,0,0,0, ,0,0,0,0,0, ,363.6,986.8,16.9,3,3.1,-10.2,25,575.818,708.242,56.0383,5.16493,-16.0487,-73.4689,
2026_07_06_17_48_40.236,3.851,30,0,0.758,0,0,0,0, ,0,0,0,0,0, ,391.1,984.4,26.4,-2.1,0.4,4,25,563.724,725.144,53.9428,4.87761,-14.9641,-69.1808,
2026_07_06_17_48_40.256,3.851,30.1,0,0.759,0,0,0,0, ,0,0,0,0,0, ,435.7,979.9,4.3,-6.1,-9.3,21.2,25,554.563,740.805,51.591,4.33054,-14.3234,-64.1973,
2026_07_06_17_48_40.276,3.851,30,0,0.76,0,0,0,0, ,0,0,0,0,0, ,433.5,977.2,-10.8,-7.6,-9.5,35,25,547.253,755.293,48.2492,3.64922,-14.0234,-58.5729,
2026_07_06_17_48_40.297,3.851,30,0,0.76,0,0,0,0, ,0,0,0,0,0, ,398.8,991.3,-32.7,-12.9,-3,43.1,25,539.264,769.245,43.9836,2.80224,-13.5497,-52.624,
2026_07_06_17_48_40.315,3.851,30,0,0.76,0,0,0,0, ,0,0,0,0,0, ,403.9,981.6,-44.9,-16.2,-5.9,46.1,25,530.86,782.481,38.939,1.74484,-12.9952,-46.6994,
2026_07_06_17_48_40.335,3.851,30,0,0.759,0,0,0,0, ,0,0,0,0,0, ,499.8,1002.3,-46.8,-16.7,-17,58.8,25,526.045,795.245,33.7721,0.63609,-12.901,-40.6575,
2026_07_06_17_48_40.355,3.851,30.1,0,0.759,0,0,0,0, ,0,0,0,0,0, ,548.2,1009.8,-49.8,-20,-15.4,80,25,525.92,808.091,28.7709,-0.520875,-13.1021,-33.9509,
2026_07_06_17_48_40.375,3.851,30.1,0,0.758,0,0,0,0, ,0,0,0,0,0, ,550.5,996.7,-63.4,-23.9,1,97.7,25,527.348,819.984,23.5686,-1.82671,-12.7424,-26.4677,
2026_07_06_17_48_40.395,3.851,30,0,0.757,0,0,0,0, ,0,0,0,0,0, ,599.7,975.2,-54.3,-25.7,-13.5,122.3,25,530.258,830.097,18.5462,-3.22665,-12.3468,-18.1517,
2026_07_06_17_48_40.415,3.851,30,0,0.758,0,0,0,0, ,0,0,0,0,0, ,710.4,939.3,-58.3,-33.2,-44.7,159.5,25,537.863,837.846,13.9853,-4.82463,-13.3677,-8.45948,
2026_07_06_17_48_40.435,3.851,30.1,0,0.759,0,0,0,0, ,0,0,0,0,0, ,749.7,880.2,-46,-30.5,-48.2,192.1,25,549.574,842.227,9.95514,-6.47149,-15.3836,2.76883,
2026_07_06_17_48_40.454,3.851,30,0,0.759,0,0,0,0, ,0,0,0,0,0, ,757.3,829.1,-18.9,-24,-19.5,207.2,25,562.001,842.984,7.37108,-7.73768,-16.5089,14.7663,
2026_07_06_17_48_40.474,3.851,30,0,0.758,0,0,0,0, ,0,0,0,0,0, ,742.4,778.5,11.3,-21,11.4,207,25,573.448,840.597,6.69034,-8.63726,-15.7497,26.4866,
2026_07_06_17_48_40.494,3.851,30.1,0,0.757,0,0,0,0, ,0,0,0,0,0, ,711.4,740.7,2,-19.7,36.1,204.9,25,582.799,835.661,6.68788,-9.351,-13.3427,37.4227,
2026_07_06_17_48_40.515,3.851,30,0,0.76,0,0,0,0, ,0,0,0,0,0, ,699.9,682.4,-28.5,-18,50.7,206.3,25,590.285,828.098,5.47292,-9.92985,-9.88494,47.671,
2026_07_06_17_48_40.533,3.851,30,0,0.76,0,0,0,0, ,0,0,0,0,0, ,704.1,641.4,-46.1,-8.4,52.1,203,25,597.093,817.97,2.86645,-10.1291,-6.15039,57.2369,
2026_07_06_17_48_40.552,3.851,30,0,0.759,0,0,0,0, ,0,0,0,0,0, ,632.3,629.5,-78.2,-6.9,36,221.9,25,601.426,806.848,-1.09549,-9.97805,-3.09131,66.6952,
2026_07_06_17_48_40.572,3.851,30,0,0.758,0,0,0,0, ,0,0,0,0,0, ,700.5,526.4,45,43.9,24.9,169.8,25,605.385,792.899,-2.0403,-8.24267,-1.04738,74.5655,
2026_07_06_17_48_40.593,3.851,30,0,0.758,0,0,0,0, ,0,0,0,0,0, ,682.7,501.2,56.2,29.8,41,130.5,25,610.639,775.892,1.16747,-5.49484,1.02433,79.1715,
2026_07_06_17_48_40.613,3.851,30,0,0.759,0,0,0,0, ,0,0,0,0,0, ,745.6,435.9,154.7,20.3,47.5,105,25,616.947,757.163,7.52218,-3.63351,3.6584,81.5224,
2026_07_06_17_48_40.632,3.851,30.1,0,0.758,0,0,0,0, ,0,0,0,0,0, ,846.5,351.6,201.5,16,28.4,106.2,25,627.861,735.018,17.9168,-2.30608,5.74804,82.9896,
2026_07_06_17_48_40.652,3.851,30,0,0.76,0,0,0,0, ,0,0,0,0,0, ,848,354,141.4,2,21.2,108.9,25,641.23,711.726,27.2727,-1.61711,6.90902,84.4862,
2026_07_06_17_48_40.672,3.851,30,0,0.758,0,0,0,0, ,0,0,0,0,0, ,873.5,283.2,88.8,-15,37.2,110.5,25,654.607,687.77,32.6247,-1.91467,8.26738,86.0227,
2026_07_06_17_48_40.691,3.851,30,0,0.759,0,0,0,0, ,0,0,0,0,0, ,870.1,272.5,66.4,-12.2,47.9,104.4,25,667.842,662.791,35.3654,-2.62674,10.3565,87.3284,
2026_07_06_17_48_40.712,3.851,30,0,0.759,0,0,0,0, ,0,0,0,0,0, ,843.2,255.3,74.8,-12.8,36.9,92.3,25,679.347,638.483,37.5125,-3.22839,12.3091,88.0001,
2026_07_06_17_48_40.736,3.851,30,0,0.758,0,0,0,0, ,0,0,0,0,0, ,847.5,189.6,127.1,-9,16.3,82.3,25,689.463,613.131,41.3782,-3.69588,13.18,87.9574,
2026_07_06_17_48_40.750,3.851,30.1,0,0.758,0,0,0,0, ,0,0,0,0,0, ,880.7,142.2,174.5,-5,4.1,79.1,25,700.105,585.878,48.0461,-3.89723,12.9984,87.5151,
2026_07_06_17_48_40.771,3.851,30,0,0.758,0,0,0,0, ,0,0,0,0,0, ,915.6,121.2,209.9,-1.6,-5.9,75.9,25,712.174,558.202,56.8305,-3.86083,12.1515,86.9048,
2026_07_06_17_48_40.791,3.851,30,0,0.758,0,0,0,0, ,0,0,0,0,0, ,946.5,109.7,194.9,-4.9,0.5,70.7,25,725.511,531.221,65.7011,-3.82361,11.2464,86.0758,
2026_07_06_17_48_40.811,3.851,30.1,0,0.758,0,0,0,0, ,0,0,0,0,0, ,918.8,59.8,152.4,-12.1,13.2,70.5,25,738.134,504.015,72.2792,-4.10858,10.9785,85.1327,
2026_07_06_17_48_40.832,3.851,30.1,0,0.758,0,0,0,0, ,0,0,0,0,0, ,861.2,38.8,129.8,-16.1,26.5,62.1,25,747.388,476.305,76.473,-4.71743,11.5191,83.9851,
2026_07_06_17_48_40.849,3.851,30,0,0.759,0,0,0,0, ,0,0,0,0,0, ,861.5,19.7,148.9,-6.7,41.4,57.2,25,754.333,449.063,80.3046,-5.12465,12.886,82.5022,
2026_07_06_17_48_40.870,3.851,30.1,0,0.759,0,0,0,0, ,0,0,0,0,0, ,840.3,13.1,191.1,-2.2,26.2,50.7,25,760.217,422.698,85.7704,-5.08354,14.1605,80.7623,
2026_07_06_17_48_40.888,3.851,29.9,0,0.759,0,0,0,0, ,0,0,0,0,0, ,844.9,-7.2,150.5,-0.8,0.2,49.4,25,765.237,397.119,90.9519,-4.86517,14.1019,78.8908,
2026_07_06_17_48_40.909,3.851,30,0,0.758,0,0,0,0, ,0,0,0,0,0, ,843.5,-27.2,151.6,2.6,-9.7,41.9,25,770.049,371.872,94.6141,-4.51385,12.9531,76.8652,
2026_07_06_17_48_40.929,3.851,30,0,0.758,0,0,0,0, ,0,0,0,0,0, ,852.6,1.9,202.1,8.1,-8,27.5,25,774.802,348.44,99.6254,-3.91277,11.6245,74.2957,
2026_07_06_17_48_40.949,3.851,30,0,0.759,0,0,0,0, ,0,0,0,0,0, ,921.6,19.1,213.9,6.8,-8.3,-1.1,25,781.646,327.847,106.229,-3.22035,10.4195,70.5727,
2026_07_06_17_48_40.969,3.851,30,0,0.759,0,0,0,0, ,0,0,0,0,0, ,993,4,172.9,3.6,-19.6,-11,25,792.349,308.572,111.541,-2.70724,8.93449,65.9035,
2026_07_06_17_48_40.996,3.851,30,0,0.758,0,0,0,0, ,0,0,0,0,0, ,1057.9,12.6,190.6,4.5,-15.6,-8.6,25,806.554,290.274,115.82,-2.29547,7.31755,61.2903,
2026_07_06_17_48_41.008,3.851,30,0,0.758,0,0,0,0, ,0,0,0,0,0, ,1077.2,26.7,207.5,0.2,-7.7,-12.3,25,822.458,273.783,120.892,-2.01239,6.16171,56.9187,
2026_07_06_17_48_41.029,3.851,30,0,0.759,0,0,0,0, ,0,0,0,0,0, ,1128.1,16.6,188.5,-0.6,-8.1,-14.9,25,839.533,258.419,125.59,-1.90194,5.30482,52.6214,
2026_07_06_17_48_41.048,3.851,30,0,0.759,0,0,0,0, ,0,0,0,0,0, ,1201.7,-5.6,175.4,-3.6,0.6,-2.5,25,859.36,243.007,129.025,-1.91401,4.75305,48.8846,
2026_07_06_17_48_41.068,3.851,30.1,0,0.759,0,0,0,0, ,0,0,0,0,0, ,1179.4,-6.5,166,-8.7,27.9,11.3,25,879.542,227.83,131.564,-2.17214,5.33177,46.1739,
2026_07_06_17_48_41.089,3.851,30.1,0,0.76,0,0,0,0, ,0,0,0,0,0, ,1125.8,-0.4,131.7,-12.8,66.4,21.8,25,896.181,213.736,132.618,-2.69486,7.88007,44.3687,
2026_07_06_17_48_41.107,3.851,30.1,0,0.759,0,0,0,0, ,0,0,0,0,0, ,1105.5,-22.3,117.4,-7.1,99.7,18,25,909.555,200.02,132.126,-3.13697,12.4607,42.8776,
2026_07_06_17_48_41.126,3.851,30,0,0.759,0,0,0,0, ,0,0,0,0,0, ,1058.8,-19.1,173.7,0,121.7,19.6,25,920.073,186.57,132.944,-3.16214,18.4472,41.4104,
2026_07_06_17_48_41.147,3.851,30,0,0.758,0,0,0,0, ,0,0,0,0,0, ,1063.7,-33.2,278.4,1.7,146.6,26.5,25,928.676,173.607,138.618,-2.91765,25.4978,40.2915,
2026_07_06_17_48_41.167,3.851,30,0,0.76,0,0,0,0, ,0,0,0,0,0, ,1020.1,-43.3,299.4,-0.9,178.5,29.7,25,935.575,160.697,147.776,-2.71548,33.8494,39.5486,
2026_07_06_17_48_41.187,3.851,30,0,0.76,0,0,0,0, ,0,0,0,0,0, ,952.6,-66.2,296.2,0.2,200.9,29.9,25,938.669,147.568,156.918,-2.57133,43.3466,38.9546,
2026_07_06_17_48_41.205,3.851,30.1,0,0.76,0,0,0,0, ,0,0,0,0,0, ,890.2,-76.7,330.4,10.3,213.6,29.8,25,937.617,134.222,166.447,-2.09472,53.3344,38.3998,
2026_07_06_17_48_41.231,3.851,30.1,0,0.76,0,0,0,0, ,0,0,0,0,0, ,819,-74.7,414.5,22.5,221.8,29,25,932.558,121.43,179.001,-0.967697,63.3505,37.8513,
2026_07_06_17_48_41.246,3.851,30,0,0.76,0,0,0,0, ,0,0,0,0,0, ,760.4,-78.2,480.3,32.4,224.9,22.7,25,923.853,109.372,195.356,0.764007,73.1004,37.12,
2026_07_06_17_48_41.266,3.851,30,0,0.758,0,0,0,0, ,0,0,0,0,0, ,704.3,-85.4,563.3,38.9,210.6,20.7,25,912.183,97.722,215.249,2.88987,81.915,36.1803,
2026_07_06_17_48_41.285,3.851,30,0,0.758,0,0,0,0, ,0,0,0,0,0, ,646.8,-82.7,649.4,39.8,189.8,23.4,25,897.763,86.6453,239.082,5.11166,89.123,35.3193,
2026_07_06_17_48_41.304,3.851,30,0,0.757,0,0,0,0, ,0,0,0,0,0, ,576,-84.5,716.7,37.2,173,26.2,25,880.313,76.271,266.136,7.14626,94.7461,34.6783,
2026_07_06_17_48_41.325,3.851,30.1,0,0.76,0,0,0,0, ,0,0,0,0,0, ,516.8,-68.8,771.4,32.3,162.5,23.8,25,859.965,66.9523,295.259,8.82836,99.1948,34.0885,
2026_07_06_17_48_41.344,3.851,30,0,0.76,0,0,0,0, ,0,0,0,0,0, ,490.6,-71.2,792.4,31.4,161.8,19.3,25,838.255,58.6068,324.913,10.2312,103.031,33.3244,
2026_07_06_17_48_41.364,3.851,30,0,0.76,0,0,0,0, ,0,0,0,0,0, ,436.5,-74,812,32.7,163.7,17.8,25,815.422,50.6114,353.998,11.5608,106.67,32.4241,
2026_07_06_17_48_41.385,3.851,30.1,0,0.758,0,0,0,0, ,0,0,0,0,0, ,367.5,-77,838.3,33.8,157.3,19,25,790.229,42.9265,382.709,12.8825,109.951,31.5695,
2026_07_06_17_48_41.404,3.851,30.1,0,0.758,0,0,0,0, ,0,0,0,0,0, ,322.3,-58.5,864.7,33.3,147,18.4,25,763.091,36.1821,411.276,14.1419,112.522,30.7853,
2026_07_06_17_48_41.424,3.851,30.1,0,0.76,0,0,0,0, ,0,0,0,0,0, ,307.4,-54.5,883.9,33.6,143.5,16.1,25,735.777,30.5343,439.491,15.3185,114.516,29.9605,
2026_07_06_17_48_41.450,3.851,30,0,0.761,0,0,0,0, ,0,0,0,0,0, ,278.3,-43,926,32.6,141.2,12.5,25,708.786,25.7029,467.855,16.4021,116.213,29.0062,
2026_07_06_17_48_41.469,3.851,30,0,0.758,0,0,0,0, ,0,0,0,0,0, ,258.6,-39.7,937.7,30.1,140.9,12.3,25,681.953,21.6169,496.13,17.313,117.726,27.9942,
2026_07_06_17_48_41.484,3.851,30,0,0.76,0,0,0,0, ,0,0,0,0,0, ,231.5,-33.3,911.8,29.4,135.7,17.5,25,655.329,18.0754,522.249,18.0708,118.98,27.1963,
2026_07_06_17_48_41.502,3.851,30,0,0.759,0,0,0,0, ,0,0,0,0,0, ,174.4,-16.2,914.1,32.7,126.4,21.5,25,627.762,15.4657,546.057,18.8618,119.715,26.7273,
2026_07_06_17_48_41.522,3.851,30,0,0.759,0,0,0,0, ,0,0,0,0,0, ,125.3,-4.8,936.2,36.5,113.6,24.7,25,598.64,13.8834,569.158,19.8208,119.733,26.5063,
2026_07_06_17_48_41.542,3.851,30,0,0.76,0,0,0,0, ,0,0,0,0,0, ,65.9,13.6,959.1,38.3,96.9,28.1,25,567.986,13.3055,592.223,20.892,118.85,26.4998,
2026_07_06_17_48_41.562,3.851,30,0,0.758,0,0,0,0, ,0,0,0,0,0, ,21.8,25.5,971.6,40,82.5,30.6,25,536.046,13.6861,614.96,22.0046,117.074,26.6735,
2026_07_06_17_48_41.583,3.851,29.9,0,0.758,0,0,0,0, ,0,0,0,0,0, ,35.5,38.4,959.4,46.3,76.9,32.8,25,505.127,14.799,636.321,23.2932,114.796,26.9798,
2026_07_06_17_48_41.602,3.851,30,0,0.758,0,0,0,0, ,0,0,0,0,0, ,-2.1,67.8,1009.5,48.6,71.3,36.8,25,475.363,17.133,657.535,24.7652,112.316,27.4563,
2026_07_06_17_48_41.622,3.851,30,0,0.76,0,0,0,0, ,0,0,0,0,0, ,-72.2,46.7,1051.5,53.2,60,36,25,444.132,19.5776,680.263,26.3578,109.473,28.0013,
2026_07_06_17_48_41.642,3.851,30,0,0.759,0,0,0,0, ,0,0,0,0,0, ,-121.3,97.4,1041.8,40.9,44.5,29.8,25,411.172,22.7752,702.589,27.6188,105.986,28.2998,
2026_07_06_17_48_41.661,3.851,30,0,0.76,0,0,0,0, ,0,0,0,0,0, ,-79.5,128.2,1035.4,38.5,33.4,21.5,25,379.998,28.261,723.065,28.355,101.901,28.1384,
2026_07_06_17_48_41.683,3.851,30,0,0.76,0,0,0,0, ,0,0,0,0,0, ,-52,138.4,1062.7,31.5,32.5,19.8,25,352.835,34.6619,742.93,28.7599,97.699,27.682,
2026_07_06_17_48_41.701,3.851,30,0,0.758,0,0,0,0, ,0,0,0,0,0, ,-68.3,153.4,1051.5,28,37.9,18,25,327.669,41.4404,762.075,28.8202,93.8905,27.1469,
2026_07_06_17_48_41.722,3.851,30.1,0,0.759,0,0,0,0, ,0,0,0,0,0, ,-137.2,161.1,1065.1,21.5,33.3,14.2,25,301.44,48.4976,780.126,28.5722,90.3384,26.4737,
2026_07_06_17_48_41.740,3.851,30,0,0.76,0,0,0,0, ,0,0,0,0,0, ,-154.1,167.7,1063.8,12,18.7,6.7,25,274.196,55.5604,797.452,27.8518,86.4178,25.4973,
2026_07_06_17_48_41.760,3.851,30,0,0.76,0,0,0,0, ,0,0,0,0,0, ,-100,168.9,1046.6,7.4,9,2.6,25,249.745,62.4304,813.158,26.7457,81.9957,24.2269,
2026_07_06_17_48_41.780,3.851,30,0,0.759,0,0,0,0, ,0,0,0,0,0, ,-64.8,169.9,1042.8,4.4,12,4.7,25,229.505,68.9489,827.268,25.4754,77.6389,22.973,
2026_07_06_17_48_41.800,3.851,30.1,0,0.76,0,0,0,0, ,0,0,0,0,0, ,-95.2,175.2,1037.1,0.5,14.7,6.5,25,210.644,75.2621,840.228,24.0723,73.7213,21.9143,
2026_07_06_17_48_41.819,3.851,30,0,0.759,0,0,0,0, ,0,0,0,0,0, ,-133.3,160,1031.2,-3,5.7,4.9,25,190.846,80.8889,852.045,22.5292,69.8505,20.9263,
2026_07_06_17_48_41.839,3.851,30,0,0.76,0,0,0,0, ,0,0,0,0,0, ,-86.9,177.2,1044,-1.8,-3.8,5,25,172.507,86.2338,863.353,21.0101,65.6518,19.9527,
2026_07_06_17_48_41.859,3.851,30,0,0.76,0,0,0,0, ,0,0,0,0,0, ,-46.6,182.4,1046.2,-5.9,-2.6,11.3,25,157.927,91.9355,874.428,19.4952,61.4562,19.2335,
2026_07_06_17_48_41.878,3.851,30.1,0,0.759,0,0,0,0, ,0,0,0,0,0, ,-60.5,173.4,1053.1,-11.1,-9.8,23.6,25,145.041,97.174,885.105,17.7892,57.3334,19.1248,
2026_07_06_17_48_41.899,3.851,30,0,0.758,0,0,0,0, ,0,0,0,0,0, ,-67.3,158.6,1051.5,-16.8,-28.3,35.1,25,132.308,101.368,895.294,15.8551,52.6788,19.7479,
2026_07_06_17_48_41.918,3.851,30,0,0.757,0,0,0,0, ,0,0,0,0,0, ,35.7,173.4,1033,-20.2,-45.5,59.9,25,123.283,105.307,904.249,13.7616,47.2201,21.439,
2026_07_06_17_48_41.943,3.851,30,0,0.758,0,0,0,0, ,0,0,0,0,0, ,14.8,169.7,1040.6,-20.6,-51,83.7,25,117.309,109.343,912.326,11.6799,41.4024,24.5079,
2026_07_06_17_48_41.958,3.851,30,0,0.758,0,0,0,0, ,0,0,0,0,0, ,-98.9,160.7,1114.1,-26.3,-74.5,89.7,25,107.598,112.747,922.382,9.53914,35.0556,28.2977,
2026_07_06_17_48_41.978,3.851,30,0,0.759,0,0,0,0, ,0,0,0,0,0, ,-117.5,173.3,1168.8,-37.4,-105,79.7,25,94.4479,116.053,935.732,7.01698,27.4502,31.7348,
2026_07_06_17_48_41.997,3.851,30,0,0.759,0,0,0,0, ,0,0,0,0,0, ,-96.6,157.2,1177.3,-53.9,-122.4,65.8,25,82.1691,119.051,950.193,3.80759,18.8489,34.2341,
2026_07_06_17_48_42.017,3.851,30,0,0.759,0,0,0,0, ,0,0,0,0,0, ,-31.3,124.6,1129.5,-65.9,-134.1,52.1,25,73.2649,120.382,962.576,-0.0745903,9.88506,35.7402,
2026_07_06_17_48_42.038,3.851,30.1,0,0.759,0,0,0,0, ,0,0,0,0,0, ,36.3,83.8,1090.4,-79.1,-146,36.7,25,68.9527,119.396,971.557,-4.48801,0.748389,36.2679,
2026_07_06_17_48_42.057,3.851,30.1,0,0.759,0,0,0,0, ,0,0,0,0,0, ,142,20.2,1033.6,-93,-165.1,26.1,25,70.1835,115.289,977.068,-9.4582,-8.77604,35.9713,
2026_07_06_17_48_42.078,3.851,30,0,0.756,0,0,0,0, ,0,0,0,0,0, ,204.3,10.2,995.2,-102.3,-175.1,24.4,25,76.458,109.19,979.343,-14.8324,-18.6067,35.318,
2026_07_06_17_48_42.097,3.851,30.1,0,0.758,0,0,0,0, ,0,0,0,0,0, ,291.9,-20.5,949.4,-104.2,-193.5,28.7,25,86.9174,102.223,978.914,-20.2203,-28.7037,34.7837,
2026_07_06_17_48_42.116,3.851,30,0,0.759,0,0,0,0, ,0,0,0,0,0, ,360.5,-54.6,885.6,-102.5,-197.3,32.7,25,101.499,93.7052,975.172,-25.286,-38.8617,34.5348,
2026_07_06_17_48_42.136,3.851,30,0,0.76,0,0,0,0, ,0,0,0,0,0, ,369.3,-114.6,862.9,-90.9,-172.6,29.3,25,117.55,82.8397,969.022,-29.6378,-47.764,34.3194,
2026_07_06_17_48_42.157,3.851,30,0,0.758,0,0,0,0, ,0,0,0,0,0, ,379,-124.2,820.6,-79.4,-138.3,13.1,25,133.186,70.5157,961.266,-33.0206,-54.3261,33.52,
2026_07_06_17_48_42.176,3.851,30,0,0.76,0,0,0,0, ,0,0,0,0,0, ,401.9,-150.7,788.6,-75.5,-131.7,3.5,25,148.863,57.8428,951.719,-35.728,-59.2422,31.9831,
2026_07_06_17_48_42.196,3.851,30,0,0.758,0,0,0,0, ,0,0,0,0,0, ,503.9,-172.3,711,-74.4,-130.7,-2.9,25,167.391,44.4766,939.415,-38.1181,-63.6271,30.0524,
2026_07_06_17_48_42.215,3.851,30,0,0.758,0,0,0,0, ,0,0,0,0,0, ,586.1,-207.2,719.9,-66.8,-133.4,-0.9,25,190.401,30.2034,925.767,-40.0975,-67.7966,28.1053,
2026_07_06_17_48_42.235,3.851,30,0,0.758,0,0,0,0, ,0,0,0,0,0, ,593.9,-225.9,699,-63.7,-126.6,-1.6,25,214.752,15.1669,912.585,-41.6302,-71.5871,26.3165,
2026_07_06_17_48_42.254,3.851,30,0,0.759,0,0,0,0, ,0,0,0,0,0, ,635.1,-245.3,665.7,-58.8,-114.4,-2.7,25,239.111,-0.114212,898.555,-42.8258,-74.5677,24.5818,
2026_07_06_17_48_42.275,3.851,30.1,0,0.76,0,0,0,0, ,0,0,0,0,0, ,633.7,-260.6,629.8,-59.7,-113.6,-1.3,25,263.199,-15.5214,883.272,-43.8266,-76.9707,22.962,
2026_07_06_17_48_42.294,3.851,30,0,0.756,0,0,0,0, ,0,0,0,0,0, ,651.7,-268.7,589.7,-56,-120,-4.2,25,286.325,-30.7027,866.604,-44.6812,-79.3978,21.3952,
2026_07_06_17_48_42.315,3.851,30,0,0.757,0,0,0,0, ,0,0,0,0,0, ,674.4,-278,575.9,-57.6,-137.8,-7.8,25,309.282,-45.489,849.31,-45.4197,-82.4143,19.7258,
2026_07_06_17_48_42.334,3.851,30,0,0.757,0,0,0,0, ,0,0,0,0,0, ,743.8,-295.2,520.8,-59.7,-144.1,-6.2,25,333.646,-60.1817,830.97,-46.2259,-85.9813,18.0972,
2026_07_06_17_48_42.353,3.851,30,0,0.758,0,0,0,0, ,0,0,0,0,0, ,733.8,-300.6,483.6,-58.7,-115.9,-10.7,25,358.335,-74.6676,810.936,-47.0165,-88.6637,16.4794,
2026_07_06_17_48_42.374,3.851,30,0,0.759,0,0,0,0, ,0,0,0,0,0, ,785.2,-312.7,462.1,-50.6,-88.3,-15.7,25,382.781,-88.8041,790.333,-47.4817,-89.4825,14.6709,
2026_07_06_17_48_42.393,3.851,30,0,0.758,0,0,0,0, ,0,0,0,0,0, ,760.7,-309,425.9,-45.4,-80.4,-24.6,25,406.557,-102.335,769.229,-47.5133,-89.1697,12.549,
2026_07_06_17_48_42.414,3.851,30,0,0.76,0,0,0,0, ,0,0,0,0,0, ,793.4,-311.2,392.4,-38.6,-103.3,-29.3,25,429.134,-114.996,747.286,-47.1773,-89.333,10.142,
2026_07_06_17_48_42.433,3.851,30,0,0.759,0,0,0,0, ,0,0,0,0,0, ,803.3,-285.4,340.2,-36.9,-124.1,-23.1,25,451.633,-126.166,724.07,-46.6028,-90.8179,7.9274,
2026_07_06_17_48_42.452,3.851,30.1,0,0.758,0,0,0,0, ,0,0,0,0,0, ,815,-294.9,314.6,-36.6,-130.3,-28.5,25,473.419,-136.159,699.898,-46.0024,-93.0349,5.87214,
2026_07_06_17_48_42.473,3.851,30.1,0,0.758,0,0,0,0, ,0,0,0,0,0, ,824.3,-273.5,274.5,-26.7,-127,-37,25,494.517,-145.18,675.197,-45.1278,-95.2052,3.5186,
2026_07_06_17_48_42.492,3.851,30,0,0.758,0,0,0,0, ,0,0,0,0,0, ,904.2,-270.3,248,-21.1,-116.9,-42.6,25,517.048,-152.902,649.972,-43.8342,-96.835,0.878876,
2026_07_06_17_48_42.513,3.851,30,0,0.758,0,0,0,0, ,0,0,0,0,0, ,933.2,-279,217.7,-7.3,-97.6,-47.8,25,541.524,-160.321,624.554,-42.0284,-97.4697,-1.92905,
2026_07_06_17_48_42.532,3.851,30,0,0.758,0,0,0,0, ,0,0,0,0,0, ,924,-273.1,151,-2.2,-99.8,-40.1,25,565.111,-167.373,597.729,-39.7568,-97.5446,-4.48971,
2026_07_06_17_48_42.552,3.851,30,0,0.76,0,0,0,0, ,0,0,0,0,0, ,864.2,-243.7,110.8,0,-111.8,-38.9,25,585.159,-172.92,569.282,-37.4011,-98.0477,-6.62315,
2026_07_06_17_48_42.571,3.851,30,0,0.76,0,0,0,0, ,0,0,0,0,0, ,864.6,-236.4,106.6,-3.8,-117.7,-37.1,25,602.175,-177.011,541.215,-35.2378,-99.0655,-8.53517,
2026_07_06_17_48_42.591,3.851,30,0,0.76,0,0,0,0, ,0,0,0,0,0, ,916.2,-247.4,80.4,-11.2,-102.1,-26.8,25,619.739,-180.965,513.932,-33.5475,-99.7257,-9.96201,
2026_07_06_17_48_42.611,3.851,30,0,0.76,0,0,0,0, ,0,0,0,0,0, ,924.3,-208.7,-11.4,-8.8,-80.4,-29.5,25,638.051,-183.834,484.717,-32.1126,-99.2092,-11.0703,
2026_07_06_17_48_42.631,3.851,30,0,0.76,0,0,0,0, ,0,0,0,0,0, ,951.9,-206.9,-70.1,-9.7,-77,-40.7,25,656.335,-185.295,452.696,-30.7194,-97.9594,-12.5347,
2026_07_06_17_48_42.651,3.851,30,0,0.758,0,0,0,0, ,0,0,0,0,0, ,883,-190.4,-24,-9.8,-70.5,-49.2,25,672.247,-186.108,422.243,-29.4416,-96.4842,-14.51,
2026_07_06_17_48_42.670,3.851,30,0,0.758,0,0,0,0, ,0,0,0,0,0, ,926.7,-177.2,-23.8,-12.8,-50.2,-53.3,25,686.421,-185.968,395.056,-28.3361,-94.2823,-16.7488,
2026_07_06_17_48_42.691,3.851,30,0,0.758,0,0,0,0, ,0,0,0,0,0, ,973.6,-162.9,-108,-9.3,-32.5,-55.7,25,702.492,-184.998,366.967,-27.2827,-91.0567,-19.0493,
2026_07_06_17_48_42.710,3.851,30,0,0.759,0,0,0,0, ,0,0,0,0,0, ,985.8,-159.7,-121.8,-1.5,-21,-51.6,25,719.385,-183.554,337.603,-25.9492,-87.138,-21.1578,
2026_07_06_17_48_42.731,3.851,29.9,0,0.759,0,0,0,0, ,0,0,0,0,0, ,933.4,-156.2,-108.3,-0.1,-13.4,-49.9,25,734.023,-181.994,310.019,-24.4167,-82.8762,-22.961,
2026_07_06_17_48_42.750,3.851,30,0,0.759,0,0,0,0, ,0,0,0,0,0, ,899.7,-141.7,-94.1,-1.8,-10.8,-50.3,25,745.146,-179.98,284.961,-22.9867,-78.5632,-24.6148,
2026_07_06_17_48_42.770,3.851,30,0,0.76,0,0,0,0, ,0,0,0,0,0, ,872,-124.6,-94.3,-2.1,-9.7,-54.4,25,753.72,-177.126,261.856,-21.7048,-74.4004,-26.3049,
2026_07_06_17_48_42.789,3.851,30,0,0.761,0,0,0,0, ,0,0,0,0,0, ,949.8,-126.2,-131.2,-2.3,-10.5,-50.5,25,763.298,-173.974,239.028,-20.5162,-70.4821,-27.8981,
2026_07_06_17_48_42.810,3.851,29.9,0,0.76,0,0,0,0, ,0,0,0,0,0, ,1049.5,-76.7,-198.1,-0.3,-6.9,-44.9,25,777.701,-169.555,214.429,-19.3452,-66.7173,-29.1048,
2026_07_06_17_48_42.829,3.851,30,0,0.758,0,0,0,0, ,0,0,0,0,0, ,1110.5,-46,-217.1,11.3,1.3,-43.8,25,796.122,-162.961,188.712,-17.8312,-62.8223,-30.0338,
2026_07_06_17_48_42.851,3.851,30,0,0.757,0,0,0,0, ,0,0,0,0,0, ,1115.9,-23.6,-141.3,14.6,9.3,-38.9,25,815.444,-155.151,166.292,-15.9555,-58.6711,-30.7234,
2026_07_06_17_48_42.868,3.851,30,0,0.758,0,0,0,0, ,0,0,0,0,0, ,1111.3,8.5,-64.3,18.5,14.1,-36.7,25,833.613,-146.157,149.894,-13.9747,-54.3829,-31.1546,
2026_07_06_17_48_42.889,3.851,30,0,0.759,0,0,0,0, ,0,0,0,0,0, ,1156.4,3.4,-26.6,34.3,5.9,-22.8,25,851.908,-136.888,137.99,-11.5143,-50.4595,-31.069,
2026_07_06_17_48_42.909,3.851,30,0,0.76,0,0,0,0, ,0,0,0,0,0, ,1137.6,5.3,-5.9,37.5,-7.3,-8.1,25,869.891,-128.281,128.591,-8.62502,-47.4273,-30.1172,
2026_07_06_17_48_42.929,3.851,30,0,0.758,0,0,0,0, ,0,0,0,0,0, ,1114.7,23.1,-52.7,32.6,11.9,-5.4,25,885.506,-119.599,118.97,-5.96358,-44.397,-28.6933,
2026_07_06_17_48_42.947,3.851,30,0,0.759,0,0,0,0, ,0,0,0,0,0, ,1057.6,22.4,-27.2,13.4,7.2,9.3,25,897.733,-110.924,109.286,-4.19861,-41.1096,-26.826,
2026_07_06_17_48_42.968,3.851,30,0,0.762,0,0,0,0, ,0,0,0,0,0, ,986,-6.2,58.2,19.7,-14,10.2,25,905.293,-103.671,103.571,-2.93424,-38.8117,-24.5971,
2026_07_06_17_48_42.987,3.851,30,0,0.761,0,0,0,0, ,0,0,0,0,0, ,1081.7,1.9,43.5,12.6,-25.1,12.1,25,913.127,-97.4848,100.358,-1.7713,-37.638,-22.4188,
2026_07_06_17_48_43.007,3.851,30,0,0.758,0,0,0,0, ,0,0,0,0,0, ,1083,-13.9,-17.5,4.5,-55.3,28.5,25,923.439,-91.9099,95.0345,-1.14234,-37.7941,-19.8156,
2026_07_06_17_48_43.027,3.851,30,0,0.757,0,0,0,0, ,0,0,0,0,0, ,936.6,-29.1,-111,15.9,-98.4,28.1,25,928.702,-87.6193,85.3281,-0.451168,-40.1741,-16.8836,
2026_07_06_17_48_43.047,3.851,30,0,0.76,0,0,0,0, ,0,0,0,0,0, ,906.1,-39.6,-93.2,12.3,-140.2,33.2,25,928.254,-84.3732,73.9067,0.435544,-44.9958,-13.987,
2026_07_06_17_48_43.066,3.851,30.1,0,0.76,0,0,0,0, ,0,0,0,0,0, ,955.4,-57.1,-177.7,15.1,-188.7,31.2,25,928.406,-82.178,61.1491,1.24385,-52.275,-11.1725,
2026_07_06_17_48_43.085,3.851,30,0,0.76,0,0,0,0, ,0,0,0,0,0, ,1021.4,-91.1,-185.5,9.2,-193.3,38.9,25,932.062,-81.6858,46.3565,1.90844,-60.7286,-8.35579,
2026_07_06_17_48_43.106,3.851,30,0,0.76,0,0,0,0, ,0,0,0,0,0, ,931.5,-88.2,-270.5,1.1,-193.3,42.2,25,934.767,-82.1711,29.6379,2.10597,-68.8072,-5.3756,
2026_07_06_17_48_43.125,3.851,30.1,0,0.76,0,0,0,0, ,0,0,0,0,0, ,889.2,-99.8,-339.4,-0.5,-198.6,42.9,25,933.279,-82.8919,9.24899,1.99592,-76.5549,-2.45513,
2026_07_06_17_48_43.145,3.851,30,0,0.756,0,0,0,0, ,0,0,0,0,0, ,843.8,-115.2,-397.5,2.7,-178.8,33.2,25,929.21,-84.3915,-13.767,1.94133,-83.3888,0.0131513,
2026_07_06_17_48_43.165,3.851,30.1,0,0.757,0,0,0,0, ,0,0,0,0,0, ,815.5,-127.6,-438.7,-5.1,-157.6,27.8,25,923.143,-86.6467,-38.4061,1.7499,-88.5569,1.87094,
2026_07_06_17_48_43.186,3.851,30,0,0.758,0,0,0,0, ,0,0,0,0,0, ,844.9,-121,-479.4,-12.3,-162.1,29,25,917.479,-88.9412,-64.0391,1.11311,-92.9014,3.48756,
2026_07_06_17_48_43.206,3.851,30,0,0.758,0,0,0,0, ,0,0,0,0,0, ,840.6,-135.6,-498.4,-17.5,-161.1,32,25,912.925,-91.3396,-89.929,0.137312,-97.0877,5.13363,
2026_07_06_17_48_43.226,3.851,30,0,0.758,0,0,0,0, ,0,0,0,0,0, ,838.3,-146.3,-565.9,-33.2,-149.2,42.5,25,908.448,-94.3627,-116.877,-1.41582,-100.626,7.09072,
2026_07_06_17_48_43.247,3.851,30,0,0.76,0,0,0,0, ,0,0,0,0,0, ,779.1,-147.7,-637.6,-38.4,-140,50.6,25,902.369,-97.5703,-146.424,-3.51111,-103.306,9.49527,
2026_07_06_17_48_43.264,3.851,30.1,0,0.759,0,0,0,0, ,0,0,0,0,0, ,735.9,-154.7,-635.2,-41.1,-137.9,54.9,25,893.541,-100.838,-176.282,-5.71941,-105.478,12.1311,
2026_07_06_17_48_43.285,3.851,30,0,0.759,0,0,0,0, ,0,0,0,0,0, ,713.6,-154.2,-690.9,-46.3,-153.2,67.8,25,883.256,-104.105,-205.944,-8.03386,-107.92,15.1304,
2026_07_06_17_48_43.305,3.851,30,0,0.758,0,0,0,0, ,0,0,0,0,0, ,615.3,-143.9,-699.9,-52.9,-166.8,75.9,25,869.922,-106.844,-235.77,-10.5668,-111.093,18.5867,
2026_07_06_17_48_43.324,3.851,30.1,0,0.758,0,0,0,0, ,0,0,0,0,0, ,518,-143.6,-759.2,-60.4,-185.9,82,25,851.442,-109.093,-265.86,-13.375,-115.07,22.2651,
2026_07_06_17_48_43.344,3.851,30,0,0.758,0,0,0,0, ,0,0,0,0,0, ,456.4,-162.1,-808.5,-54.2,-181.2,75.5,25,829.246,-111.76,-297.425,-16.0517,-119.243,25.7072,
2026_07_06_17_48_43.368,3.851,30,0,0.76,0,0,0,0, ,0,0,0,0,0, ,401.1,-159.1,-850.2,-47.9,-153.7,63.4,25,804.84,-114.736,-329.839,-18.1844,-122.18,28.3727,
2026_07_06_17_48_43.383,3.851,30,0,0.758,0,0,0,0, ,0,0,0,0,0, ,353.2,-160.7,-876.3,-44.2,-129.8,60.4,25,778.778,-117.488,-362.344,-19.8824,-123.373,30.4158,
2026_07_06_17_48_43.402,3.851,30,0,0.758,0,0,0,0, ,0,0,0,0,0, ,311.4,-160.6,-877.3,-40.7,-119.3,57.6,25,751.571,-120.118,-393.694,-21.2577,-123.445,32.1577,
2026_07_06_17_48_43.423,3.851,30,0,0.762,0,0,0,0, ,0,0,0,0,0, ,213.7,-140.6,-900.8,-36.8,-104.2,46.7,25,721.771,-121.976,-423.879,-22.3236,-122.732,33.3759,
2026_07_06_17_48_43.443,3.851,30.1,0,0.76,0,0,0,0, ,0,0,0,0,0, ,177.7,-139.6,-907.1,-33.8,-94.9,36.5,25,689.714,-123.08,-453.134,-23.1143,-121.319,33.8771,
2026_07_06_17_48_43.463,3.851,30,0,0.758,0,0,0,0, ,0,0,0,0,0, ,209.8,-144.8,-939,-32.7,-82.4,28.9,25,659.491,-124.245,-481.769,-23.732,-119.329,33.8054,
2026_07_06_17_48_43.484,3.851,30,0,0.76,0,0,0,0, ,0,0,0,0,0, ,166.8,-139.2,-940,-27.5,-56.9,19.6,25,630.778,-125.327,-509.662,-24.12,-116.301,33.2231,
2026_07_06_17_48_43.502,3.851,30,0,0.76,0,0,0,0, ,0,0,0,0,0, ,113,-99.7,-947.7,-25,-30.5,12,25,600.865,-124.969,-536.121,-24.2498,-111.877,32.1614,
2026_07_06_17_48_43.522,3.851,30,0,0.76,0,0,0,0, ,0,0,0,0,0, ,147.5,-92.2,-941.1,-28.9,-26.1,5.1,25,572.187,-123.201,-561,-24.4144,-106.784,30.7226,
2026_07_06_17_48_43.541,3.851,30,0,0.757,0,0,0,0, ,0,0,0,0,0, ,130.6,-72.5,-955.9,-31,-28.5,3.2,25,545.792,-120.711,-584.613,-24.7517,-101.941,29.1033,
2026_07_06_17_48_43.562,3.851,30,0,0.758,0,0,0,0, ,0,0,0,0,0, ,143.5,-62,-1014.2,-34.1,-19.5,-0.3,25,520.885,-117.454,-609.015,-25.2269,-97.1911,27.4182,
2026_07_06_17_48_43.581,3.851,30.1,0,0.757,0,0,0,0, ,0,0,0,0,0, ,188.5,-74.5,-1045.8,-27,-4.7,-2.7,25,499.259,-114.455,-634.669,-25.5513,-92.0059,25.656,
2026_07_06_17_48_43.608,3.851,30.1,0,0.758,0,0,0,0, ,0,0,0,0,0, ,207.3,-61.4,-1023.8,-20.9,5.5,-2.9,25,480.895,-111.621,-659.052,-25.4537,-86.3749,23.9219,
2026_07_06_17_48_43.620,3.851,30,0,0.759,0,0,0,0, ,0,0,0,0,0, ,202.1,-57.6,-1030.3,-21.7,6.5,2.3,25,464.064,-108.445,-681.477,-25.2006,-80.7458,22.4459,
2026_07_06_17_48_43.641,3.851,30,0,0.757,0,0,0,0, ,0,0,0,0,0, ,165.6,-57.1,-1053.9,-21.7,3.6,4,25,446.989,-105.332,-703.452,-24.9873,-75.5176,21.2701,
2026_07_06_17_48_43.660,3.851,30,0,0.757,0,0,0,0, ,0,0,0,0,0, ,164.5,-54.4,-1047.8,-17.7,-2.2,0.4,25,429.808,-102.31,-724.622,-24.6651,-70.8731,20.108,
2026_07_06_17_48_43.680,3.851,30.1,0,0.758,0,0,0,0, ,0,0,0,0,0, ,212.4,-56.2,-1044.3,-13.9,-3.2,-0.9,25,415.1,-99.4455,-744.209,-24.1249,-66.7188,18.8674,
2026_07_06_17_48_43.699,3.851,30,0,0.761,0,0,0,0, ,0,0,0,0,0, ,227.1,-48.8,-1043.3,-8.5,5.1,2,25,403.196,-96.5847,-762.465,-23.3373,-62.5952,17.7512,
2026_07_06_17_48_43.721,3.851,30,0,0.759,0,0,0,0, ,0,0,0,0,0, ,237.4,-48.9,-1024.9,-4.4,13.5,5.7,25,392.779,-93.6759,-779.018,-22.3082,-58.2141,16.9041,
2026_07_06_17_48_43.739,3.851,30,0,0.759,0,0,0,0, ,0,0,0,0,0, ,191.2,-31.3,-1008.4,-1.4,22.6,6.5,25,381.903,-90.4111,-793.499,-21.1255,-53.5668,16.2457,
2026_07_06_17_48_43.759,3.851,29.9,0,0.76,0,0,0,0, ,0,0,0,0,0, ,185.6,-27.3,-967.2,-5.2,12.5,6.4,25,370.111,-86.6872,-805.339,-20.0393,-49.2331,15.6488,
2026_07_06_17_48_43.778,3.851,30,0,0.761,0,0,0,0, ,0,0,0,0,0, ,211.5,-35.4,-1016.1,-6.8,14.5,4.3,25,359.657,-83.315,-816.692,-19.1837,-45.4103,15.0212,
2026_07_06_17_48_43.800,3.851,30,0,0.761,0,0,0,0, ,0,0,0,0,0, ,261.5,-46.2,-1047.4,0,47,2.2,25,352.152,-80.7243,-829.797,-18.2219,-40.7693,14.3039,
2026_07_06_17_48_43.818,3.851,30,0,0.76,0,0,0,0, ,0,0,0,0,0, ,281.1,-48,-1050.1,6.4,98.5,-1.4,25,347.225,-78.6753,-843.14,-16.9165,-33.8517,13.4566,
2026_07_06_17_48_43.838,3.851,30,0,0.76,0,0,0,0, ,0,0,0,0,0, ,264.1,-59,-1093.2,15.1,137.5,-3.4,25,342.678,-77.1412,-857.064,-15.2306,-24.5982,12.4904,
2026_07_06_17_48_43.858,3.851,30,0,0.76,0,0,0,0, ,0,0,0,0,0, ,263.7,-47.3,-1100,28.4,156.1,-11.1,25,337.877,-75.6792,-871.661,-12.9771,-14.1537,11.2874,
2026_07_06_17_48_43.879,3.851,30.1,0,0.759,0,0,0,0, ,0,0,0,0,0, ,354.9,-40.6,-1080,41.8,167.4,-26.5,25,336.136,-73.7457,-884.966,-10.0474,-3.43453,9.45399,
2026_07_06_17_48_43.898,3.851,30,0,0.759,0,0,0,0, ,0,0,0,0,0, ,500.3,-69.9,-967.2,53.5,186.8,-32.8,25,341.709,-72.6186,-893.414,-6.53146,7.5668,7.07109,
2026_07_06_17_48_43.926,3.851,30,0,0.758,0,0,0,0, ,0,0,0,0,0, ,594.1,-67.5,-842,47.8,188.2,-22.3,25,354.231,-72.3798,-894.096,-3.04696,18.5315,4.96137,
2026_07_06_17_48_43.938,3.851,30.1,0,0.759,0,0,0,0, ,0,0,0,0,0, ,575.3,-89.4,-792.2,38.6,166.6,-6.3,25,368.276,-72.7497,-889.404,-0.228788,28.2125,3.78763,
2026_07_06_17_48_43.958,3.851,29.9,0,0.76,0,0,0,0, ,0,0,0,0,0, ,568.4,-103.5,-802.9,30.1,142.4,-1.2,25,380.681,-74.194,-883.807,1.87836,35.9082,3.3283,
2026_07_06_17_48_43.976,3.851,30.1,0,0.76,0,0,0,0, ,0,0,0,0,0, ,640.9,-125.6,-843,37.7,147.1,-5.9,25,394.329,-76.6532,-880.098,3.82968,42.5407,2.90916,
2026_07_06_17_48_43.997,3.851,30,0,0.759,0,0,0,0, ,0,0,0,0,0, ,678.2,-129.2,-802,55.2,191.5,-14.9,25,410.491,-79.7456,-876.588,6.42685,50.2651,2.09813,
2026_07_06_17_48_44.016,3.851,30,0,0.758,0,0,0,0, ,0,0,0,0,0, ,679.8,-114.1,-631.2,60,212.5,-20.1,25,426.853,-82.2991,-866.839,9.54521,59.5115,0.903869,
2026_07_06_17_48_44.036,3.851,30,0,0.76,0,0,0,0, ,0,0,0,0,0, ,689.5,-117.5,-536,45.4,189.6,-12.5,25,442.563,-84.3406,-849.579,12.175,68.1365,-0.144492,
2026_07_06_17_48_44.055,3.851,29.9,0,0.757,0,0,0,0, ,0,0,0,0,0, ,727.4,-126.3,-490.1,30.2,162.2,-8.1,25,458.765,-86.6294,-829.072,13.7365,74.7033,-0.763343,
2026_07_06_17_48_44.078,3.851,30,0,0.76,0,0,0,0, ,0,0,0,0,0, ,757.9,-135.2,-484.4,26.9,158.7,-10.2,25,476.064,-89.318,-808.242,14.6392,79.9285,-1.27441,
2026_07_06_17_48_44.095,3.851,30.1,0,0.758,0,0,0,0, ,0,0,0,0,0, ,774.2,-147.5,-485.1,27.4,166.2,-19.8,25,493.735,-92.4887,-788.529,15.4016,84.9571,-2.11081,
2026_07_06_17_48_44.117,3.851,30.1,0,0.76,0,0,0,0, ,0,0,0,0,0, ,776.3,-136.8,-445.3,31.6,185.3,-30.7,25,510.89,-95.5149,-768.826,16.2607,90.4898,-3.52085,
2026_07_06_17_48_44.134,3.851,30,0,0.76,0,0,0,0, ,0,0,0,0,0, ,838.9,-149.7,-389.8,34.9,207,-38.9,25,528.971,-98.4238,-747.42,17.296,96.9285,-5.42693,
2026_07_06_17_48_44.156,3.851,30,0,0.76,0,0,0,0, ,0,0,0,0,0, ,900,-123.6,-278.6,33.7,216.4,-42.9,25,549.719,-100.753,-722.24,18.3322,103.922,-7.58857,
2026_07_06_17_48_44.174,3.851,30,0,0.761,0,0,0,0, ,0,0,0,0,0, ,904.2,-120.2,-193.4,30.6,200,-39.7,25,571.192,-102.042,-692.61,19.1742,110.277,-9.64286,
2026_07_06_17_48_44.196,3.851,30,0,0.76,0,0,0,0, ,0,0,0,0,0, ,907.3,-103.7,-112.5,23.5,164,-33.2,25,591.579,-102.646,-659.724,19.6541,114.647,-11.2764,
2026_07_06_17_48_44.214,3.851,30,0,0.758,0,0,0,0, ,0,0,0,0,0, ,957,-93.7,-64.9,16.1,141.8,-32.8,25,612.333,-102.405,-624.927,19.663,116.978,-12.6002,
2026_07_06_17_48_44.236,3.851,30,0,0.76,0,0,0,0, ,0,0,0,0,0, ,977.6,-101.6,-44.9,14.8,145.1,-34.5,25,633.964,-102.115,-590.191,19.4063,118.592,-13.8829,
2026_07_06_17_48_44.254,3.851,30,0,0.76,0,0,0,0, ,0,0,0,0,0, ,965,-82.7,-8.9,13.5,143.9,-30.8,25,654.52,-101.508,-555.866,19.086,120.17,-15.0265,
2026_07_06_17_48_44.274,3.851,30,0,0.76,0,0,0,0, ,0,0,0,0,0, ,957.6,-72.1,28.3,13.2,117.2,-27.5,25,673.214,-100.039,-521.402,18.7364,120.803,-15.8872,
2026_07_06_17_48_44.294,3.851,30,0,0.76,0,0,0,0, ,0,0,0,0,0, ,986.5,-53.2,86.5,13.4,87.7,-24.3,25,691.425,-97.7606,-486.131,18.4051,119.684,-16.4973,
2026_07_06_17_48_44.316,3.851,29.9,0,0.758,0,0,0,0, ,0,0,0,0,0, ,1005.6,-52.1,109.1,12.6,72.7,-20.3,25,709.988,-95.0117,-450.548,18.0758,117.278,-16.8509,
2026_07_06_17_48_44.333,3.851,30.1,0,0.76,0,0,0,0, ,0,0,0,0,0, ,983.6,-55.7,120.2,11.8,67.7,-15.1,25,727.331,-92.5065,-416.106,17.7177,114.41,-16.9027,
2026_07_06_17_48_44.355,3.851,30,0,0.758,0,0,0,0, ,0,0,0,0,0, ,941.1,-45.2,143.5,12.3,59.2,-13.1,25,741.653,-89.9436,-382.715,17.3723,111.304,-16.7319,
2026_07_06_17_48_44.372,3.851,30,0,0.76,0,0,0,0, ,0,0,0,0,0, ,918.5,-49.5,150.6,14.8,46.1,-15.7,25,753.118,-87.3481,-350.432,17.1394,107.73,-16.5898,
2026_07_06_17_48_44.397,3.851,30.1,0,0.76,0,0,0,0, ,0,0,0,0,0, ,905.3,-35,177.8,15.1,20.4,-12.8,25,762.794,-84.5999,-319.072,17.006,103.191,-16.4472,
2026_07_06_17_48_44.411,3.851,30,0,0.758,0,0,0,0, ,0,0,0,0,0, ,884.8,-17.9,204.2,14.7,7,-17.2,25,770.853,-81.0564,-287.989,16.8777,97.738,-16.359,
2026_07_06_17_48_44.434,3.851,30,0,0.76,0,0,0,0, ,0,0,0,0,0, ,900.6,-14.8,193.3,19.4,31.6,-32.2,25,778.278,-77.1134,-258.329,16.8882,92.9582,-16.8673,
2026_07_06_17_48_44.451,3.851,30,0,0.76,0,0,0,0, ,0,0,0,0,0, ,950.6,-7.8,218.9,20.3,50.8,-37.6,25,787.256,-73.1029,-230.028,17.0687,89.8041,-17.9662,
2026_07_06_17_48_44.473,3.851,30,0,0.761,0,0,0,0, ,0,0,0,0,0, ,955.3,-0.9,260.6,14.8,40,-27.3,25,797.353,-68.9132,-201.4,17.098,87.0983,-18.8488,
2026_07_06_17_48_44.491,3.851,30,0,0.76,0,0,0,0, ,0,0,0,0,0, ,929.5,25.1,259.6,9.6,17.1,-23.4,25,806.191,-63.9765,-173.278,16.7995,83.5305,-19.2449,
2026_07_06_17_48_44.513,3.851,30,0,0.761,0,0,0,0, ,0,0,0,0,0, ,970.4,30.6,260,5,-3.5,-22.3,25,814.952,-58.3808,-146.887,16.2206,78.8547,-19.4646,
2026_07_06_17_48_44.531,3.851,30,0,0.761,0,0,0,0, ,0,0,0,0,0, ,1012.5,25.8,252.6,3.3,-16.4,-15,25,825.707,-53.1048,-122.318,15.4851,73.4432,-19.415,
2026_07_06_17_48_44.555,3.851,29.9,0,0.758,0,0,0,0, ,0,0,0,0,0, ,1006.8,32.4,242.9,3,-19.2,-10.2,25,836.916,-48.0954,-99.7669,14.7334,67.8831,-18.9997,
2026_07_06_17_48_44.570,3.851,29.9,0,0.76,0,0,0,0, ,0,0,0,0,0, ,967.4,32.9,224.3,4.9,-20.2,-10,25,846.068,-43.175,-79.4524,14.0763,62.546,-18.4574,
2026_07_06_17_48_44.592,3.851,30,0,0.76,0,0,0,0, ,0,0,0,0,0, ,946.5,39.1,235.9,6,-16,-14.3,25,852.825,-38.3503,-60.589,13.5506,57.6316,-18.073,
2026_07_06_17_48_44.609,3.851,30,0,0.76,0,0,0,0, ,0,0,0,0,0, ,938.7,48.3,250.9,3.8,-2.8,-20.3,25,858.295,-33.3504,-42.0647,13.0235,53.5469,-18.0259,
2026_07_06_17_48_44.633,3.851,30,0,0.76,0,0,0,0, ,0,0,0,0,0, ,976.5,55.6,246.3,0.4,8.7,-22.4,25,864.347,-28.1524,-24.3523,12.3578,50.4636,-18.2285,
2026_07_06_17_48_44.650,3.851,29.9,0,0.76,0,0,0,0, ,0,0,0,0,0, ,978.8,68.1,227.2,-0.8,16.9,-18.5,25,871.251,-22.6678,-8.44139,11.5926,48.1685,-18.3638,
2026_07_06_17_48_44.671,3.851,30,0,0.76,0,0,0,0, ,0,0,0,0,0, ,971.6,72.2,238.6,1.4,14.5,-15.7,25,877.586,-17.0118,6.26535,10.9045,46.1899,-18.2868,
2026_07_06_17_48_44.691,3.851,30,0,0.758,0,0,0,0, ,0,0,0,0,0, ,961.7,81,250.2,1.8,9.3,-16.1,25,883.013,-11.3073,20.7767,10.3375,44.1004,-18.1414,
2026_07_06_17_48_44.711,3.851,29.9,0,0.761,0,0,0,0, ,0,0,0,0,0, ,979.1,82.3,256.3,1.2,0.3,-15.9,25,888.338,-5.64271,34.943,9.79893,41.7055,-18.0109,
2026_07_06_17_48_44.729,3.851,30,0,0.757,0,0,0,0, ,0,0,0,0,0, ,1055.5,84.7,258.4,0,0.5,-10.6,25,896.197,-0.210576,48.4959,9.23837,39.1885,-17.7208,
2026_07_06_17_48_44.751,3.851,30.1,0,0.76,0,0,0,0, ,0,0,0,0,0, ,1086.6,88.8,253.4,0.4,6,-4.2,25,906.852,5.08858,61.1346,8.68759,36.9985,-17.0919,
2026_07_06_17_48_44.770,3.851,30,0,0.76,0,0,0,0, ,0,0,0,0,0, ,1038.3,103.5,249.2,0.5,9.9,4.5,25,916.334,10.6376,72.7228,8.18562,35.2283,-16.0412,
2026_07_06_17_48_44.792,3.851,30,0,0.76,0,0,0,0, ,0,0,0,0,0, ,994.2,101.8,281.6,-0.9,13.6,6.1,25,922.422,16.2446,84.4641,7.67462,33.7976,-14.7407,
2026_07_06_17_48_44.809,3.851,29.9,0,0.758,0,0,0,0, ,0,0,0,0,0, ,984.3,107.6,310.9,-4.8,37.5,-5.9,25,926.495,21.6349,97.3698,7.03327,33.295,-13.8363,
2026_07_06_17_48_44.830,3.851,30,0,0.76,0,0,0,0, ,0,0,0,0,0, ,994,98,312.2,-10.4,77.5,-12.1,25,930.313,26.5809,110.421,6.14156,34.77,-13.5416,
2026_07_06_17_48_44.848,3.851,29.9,0,0.76,0,0,0,0, ,0,0,0,0,0, ,963.5,99.7,321.1,-12.5,102.5,-17.3,25,933.264,30.9848,122.988,5.06957,38.1356,-13.6122,
2026_07_06_17_48_44.871,3.851,30,0,0.76,0,0,0,0, ,0,0,0,0,0, ,936,93.9,337,-14.9,110.4,-20.5,25,934.269,34.9954,135.545,3.9258,42.2985,-13.9344,
2026_07_06_17_48_44.888,3.851,30,0,0.761,0,0,0,0, ,0,0,0,0,0, ,929,101,361.6,-17.6,118.8,-24,25,934.161,38.8012,148.571,2.69634,46.7044,-14.4412,
2026_07_06_17_48_44.911,3.851,30.1,0,0.76,0,0,0,0, ,0,0,0,0,0, ,936.6,101.8,396.1,-17.9,132.2,-29.5,25,934.078,42.6158,162.604,1.45039,51.506,-15.1912,
2026_07_06_17_48_44.927,3.851,29.9,0,0.761,0,0,0,0, ,0,0,0,0,0, ,922.1,96.9,428.8,-15.6,156.1,-31,25,933.79,46.0731,177.829,0.341304,57.1515,-16.1089,
2026_07_06_17_48_44.951,3.851,30,0,0.76,0,0,0,0, ,0,0,0,0,0, ,893,95.7,456.9,-11.8,180.2,-31.5,25,932.191,49.1338,193.978,-0.514337,63.9155,-17.0315,
2026_07_06_17_48_44.967,3.851,30,0,0.758,0,0,0,0, ,0,0,0,0,0, ,848.8,98.9,500.6,-7.6,191.8,-28,25,928.456,52.0689,211.332,-1.07409,71.355,-17.8066,
2026_07_06_17_48_44.988,3.851,29.9,0,0.76,0,0,0,0, ,0,0,0,0,0, ,824.3,94.3,543.5,-3.5,191.7,-20.3,25,922.856,54.7825,230.266,-1.34684,78.6915,-18.1931,
2026_07_06_17_48_45.006,3.851,30,0,0.76,0,0,0,0, ,0,0,0,0,0, ,796.9,99.1,597.9,0.4,191.2,-7.7,25,916.015,57.3369,251.011,-1.35922,85.5628,-17.9376,
2026_07_06_17_48_45.028,3.851,30.1,0,0.76,0,0,0,0, ,0,0,0,0,0, ,721.9,105.1,660.8,2.3,194.5,2.5,25,906.471,60.0646,274.066,-1.19413,92.1006,-17.003,
2026_07_06_17_48_45.046,3.851,30,0,0.761,0,0,0,0, ,0,0,0,0,0, ,653,109.8,692.5,4.5,189.4,8.7,25,893.125,62.9522,298.599,-0.914172,98.1852,-15.6256,
2026_07_06_17_48_45.069,3.851,30,0,0.76,0,0,0,0, ,0,0,0,0,0, ,577.6,111.2,717,8.9,178.6,15.1,25,876.195,65.8496,323.349,-0.450183,103.414,-13.9483,
2026_07_06_17_48_45.085,3.851,30,0,0.761,0,0,0,0, ,0,0,0,0,0, ,534,107.1,747.3,13.1,162.3,20.3,25,856.671,68.4882,348.26,0.247562,107.499,-12.0197,
2026_07_06_17_48_45.109,3.851,30,0,0.758,0,0,0,0, ,0,0,0,0,0, ,532.8,105.9,819.9,14,163.6,28.1,25,836.971,70.8046,374.788,1.05818,110.878,-9.81256,
2026_07_06_17_48_45.124,3.851,30,0,0.76,0,0,0,0, ,0,0,0,0,0, ,428.3,118.2,840.6,9,178.8,29.8,25,815.252,73.318,402.543,1.69448,114.554,-7.45047,
2026_07_06_17_48_45.149,3.851,30,0,0.758,0,0,0,0, ,0,0,0,0,0, ,317.3,119.6,809.3,11.9,181.7,23.6,25,788.29,76.0956,428.284,2.22802,118.558,-5.36942,
2026_07_06_17_48_45.165,3.851,30,0,0.758,0,0,0,0, ,0,0,0,0,0, ,252.5,120.8,802.9,21.6,165.6,19.6,25,757.615,78.7832,451.307,3.11295,121.915,-3.72597,
2026_07_06_17_48_45.188,3.851,29.9,0,0.76,0,0,0,0, ,0,0,0,0,0, ,249.2,127.3,928.1,22.2,140.8,24.5,25,726.734,81.5417,476.547,4.25779,123.821,-2.15525,
2026_07_06_17_48_45.205,3.851,30,0,0.758,0,0,0,0, ,0,0,0,0,0, ,207,141.7,958.7,15.5,130.9,30.5,25,696.348,84.7688,504.995,5.147,124.554,-0.348135,
2026_07_06_17_48_45.227,3.851,30.1,0,0.76,0,0,0,0, ,0,0,0,0,0, ,135,137.9,922.9,13.6,134.6,26.6,25,664.335,88.1223,531.552,5.71999,125.054,1.41285,
2026_07_06_17_48_45.247,3.851,30.1,0,0.76,0,0,0,0, ,0,0,0,0,0, ,75.5,137,913.2,16.4,130.1,19.4,25,630.266,91.1282,555.105,6.28549,125.498,2.72831,
2026_07_06_17_48_45.271,3.851,30,0,0.76,0,0,0,0, ,0,0,0,0,0, ,42.8,138.9,929.1,20.2,115.5,16.3,25,595.463,93.9814,577.41,7.01763,125.334,3.64979,
2026_07_06_17_48_45.284,3.851,30,0,0.76,0,0,0,0, ,0,0,0,0,0, ,16.2,145.9,969.3,19.7,97.6,18.6,25,560.975,96.9319,600.066,7.8057,124.189,4.49074,
2026_07_06_17_48_45.307,3.851,30,0,0.758,0,0,0,0, ,0,0,0,0,0, ,-24.9,169.7,958.8,17.2,82.9,19.8,25,526.525,100.641,622.247,8.45433,122.121,5.38709,
2026_07_06_17_48_45.324,3.851,30,0,0.761,0,0,0,0, ,0,0,0,0,0, ,-60.6,185.9,972.1,17.4,67.2,17.7,25,491.835,105.343,643.161,8.99337,119.253,6.20139,
2026_07_06_17_48_45.346,3.851,30,0,0.758,0,0,0,0, ,0,0,0,0,0, ,-83,187,995.4,21.2,53.8,14.3,25,457.489,110.285,663.915,9.62143,115.672,6.79849,
2026_07_06_17_48_45.362,3.851,30,0,0.76,0,0,0,0, ,0,0,0,0,0, ,-92.4,189.2,1010.2,20.2,45.2,11.5,25,424.266,115.027,684.566,10.2965,111.64,7.1703,
2026_07_06_17_48_45.387,3.851,30,0,0.758,0,0,0,0, ,0,0,0,0,0, ,-117.7,193.6,1002.1,14.7,40.6,9.4,25,392.011,119.681,704.163,10.7324,107.451,7.37016,
2026_07_06_17_48_45.402,3.851,30,0,0.76,0,0,0,0, ,0,0,0,0,0, ,-113.7,198.8,998.7,14.6,34.5,5.2,25,361.072,124.344,722.214,10.9712,103.192,7.36588,
2026_07_06_17_48_45.426,3.851,30,0,0.76,0,0,0,0, ,0,0,0,0,0, ,-80.3,202.3,999,15.7,39.3,2.8,25,333.159,128.988,739.072,11.2258,99.152,7.16077,
2026_07_06_17_48_45.443,3.851,30,0,0.76,0,0,0,0, ,0,0,0,0,0, ,-97.5,214.5,983.6,15.8,36,5.7,25,307.439,133.827,754.442,11.5015,95.4042,6.9834,
2026_07_06_17_48_45.465,3.851,30,0,0.76,0,0,0,0, ,0,0,0,0,0, ,-119.5,218.6,981.3,15.2,28.6,7.5,25,282.093,138.868,768.336,11.7452,91.5588,6.96004,
2026_07_06_17_48_45.482,3.851,30,0,0.758,0,0,0,0, ,0,0,0,0,0, ,-147,222.9,985.4,13.4,10.2,11.4,25,256.783,143.858,781.439,11.9009,87.1616,7.11177,
2026_07_06_17_48_45.505,3.851,30,0,0.76,0,0,0,0, ,0,0,0,0,0, ,-148.6,245.8,998.2,13.9,8.3,7.8,25,232.129,149.372,794.258,12.0074,82.4139,7.26339,
2026_07_06_17_48_45.521,3.851,30.1,0,0.76,0,0,0,0, ,0,0,0,0,0, ,-123.1,257.4,1051.6,11.5,15.8,4.7,25,209.705,155.602,808.312,12.0496,78.1261,7.20164,
2026_07_06_17_48_45.545,3.851,30.1,0,0.758,0,0,0,0, ,0,0,0,0,0, ,-129.6,255.6,1044.4,5.1,23.1,4.2,25,189.227,161.75,822.918,11.8211,74.5505,7.03396,
2026_07_06_17_48_45.560,3.851,30,0,0.761,0,0,0,0, ,0,0,0,0,0, ,-149.9,250,1015.5,3,20.7,5.2,25,169.18,167.298,835.534,11.3476,71.3421,6.89174,
2026_07_06_17_48_45.586,3.851,29.9,0,0.76,0,0,0,0, ,0,0,0,0,0, ,-153.4,256.9,1057,0,13.9,4.5,25,149.629,172.548,847.765,10.7475,68.0489,6.76732,
2026_07_06_17_48_45.601,3.851,30,0,0.761,0,0,0,0, ,0,0,0,0,0, ,-104.4,268.4,1143.9,-15,18,5.6,25,132.656,178.039,863.163,9.63555,64.8741,6.66267,
2026_07_06_17_48_45.625,3.851,30,0,0.76,0,0,0,0, ,0,0,0,0,0, ,-87.7,247.5,1107.4,-27.7,38.8,8.4,25,118.72,182.908,879.159,7.74737,62.6515,6.68323,
2026_07_06_17_48_45.640,3.851,30,0,0.76,0,0,0,0, ,0,0,0,0,0, ,-144.5,237.3,1009,-33.8,44.8,10.7,25,104.41,186.534,890.069,5.40143,61.3809,6.85792,
2026_07_06_17_48_45.663,3.851,30,0,0.76,0,0,0,0, ,0,0,0,0,0, ,-189.9,231.3,973,-26.1,20.1,15.2,25,87.859,189.444,896.22,3.24721,59.6179,7.22916,
2026_07_06_17_48_45.679,3.851,30,0,0.758,0,0,0,0, ,0,0,0,0,0, ,-184.2,231.3,1043.9,-23.6,-11.8,21.3,25,71.1067,191.995,903.059,1.53503,56.2378,7.90074,
2026_07_06_17_48_45.702,3.851,30,0,0.76,0,0,0,0, ,0,0,0,0,0, ,-162.5,239.2,1058.3,-29.8,-25,26,25,56.2101,194.631,912.08,-0.185539,51.6896,8.86046,
2026_07_06_17_48_45.720,3.851,30,0,0.76,0,0,0,0, ,0,0,0,0,0, ,-207.6,241.6,1093.8,-37.9,-43.8,29.4,25,41.5084,197.42,922.072,-2.23697,46.4435,10.0085,
2026_07_06_17_48_45.749,3.851,30,0,0.76,0,0,0,0, ,0,0,0,0,0, ,-246.3,225.7,1129.5,-51.2,-96,33.5,25,25.1492,199.628,933.624,-4.81542,39.3538,11.3151,
2026_07_06_17_48_45.758,3.851,30,0,0.76,0,0,0,0, ,0,0,0,0,0, ,-209.5,198.1,1068.7,-65.5,-145,35.5,25,9.72899,200.376,943.708,-8.07768,29.6127,12.7279,
2026_07_06_17_48_45.782,3.851,30,0,0.761,0,0,0,0, ,0,0,0,0,0, ,-142.4,141.4,999.6,-56.5,-153.6,23.7,25,-1.58582,198.509,949.219,-11.3026,18.7102,13.7561,
2026_07_06_17_48_45.797,3.851,30,0,0.758,0,0,0,0, ,0,0,0,0,0, ,-128.9,112.5,970.9,-48.7,-152.2,9.2,25,-9.75536,194.149,951.415,-13.8192,8.25273,13.9202,
2026_07_06_17_48_45.823,3.851,30,0,0.758,0,0,0,0, ,0,0,0,0,0, ,-71,107.2,974.7,-48.9,-172.1,-0.2,25,-15.2516,189.012,952.718,-15.9508,-2.13119,13.3462,
2026_07_06_17_48_45.837,3.851,29.9,0,0.758,0,0,0,0, ,0,0,0,0,0, ,24.5,90.8,979.4,-54.8,-187.1,-5.5,25,-15.739,183.527,954.201,-18.1384,-12.9457,12.3592,
2026_07_06_17_48_45.863,3.851,30,0,0.76,0,0,0,0, ,0,0,0,0,0, ,146.3,77.2,955.8,-60.3,-173.8,-11.1,25,-9.57584,177.462,955.017,-20.5401,-23.153,11.1003,
2026_07_06_17_48_45.877,3.851,30,0,0.76,0,0,0,0, ,0,0,0,0,0, ,232.7,45.5,897.3,-61.2,-143.3,-17.7,25,2.55534,170.386,953.283,-22.9904,-31.4037,9.54638,
2026_07_06_17_48_45.901,3.851,30,0,0.758,0,0,0,0, ,0,0,0,0,0, ,244.8,21.9,835,-56.3,-134.3,-23.3,25,16.9485,162.057,947.973,-25.1695,-37.9482,7.71542,
2026_07_06_17_48_45.917,3.851,30.1,0,0.76,0,0,0,0, ,0,0,0,0,0, ,263,7,771.3,-46,-166,-23.8,25,31.3877,153.062,939.148,-26.7527,-44.7855,5.81019,
2026_07_06_17_48_45.942,3.851,30,0,0.76,0,0,0,0, ,0,0,0,0,0, ,307.8,-3.4,735.2,-30.6,-219.4,-23.3,25,46.8666,143.845,927.82,-27.4563,-53.799,4.02105,
2026_07_06_17_48_45.957,3.851,30,0,0.76,0,0,0,0, ,0,0,0,0,0, ,497.6,-7.9,737.7,-20.9,-248.4,-24.1,25,68.5502,134.735,916.158,-27.3523,-64.7739,2.3318,
2026_07_06_17_48_45.981,3.851,30,0,0.758,0,0,0,0, ,0,0,0,0,0, ,646.2,-19.7,752.6,-18.1,-224.9,-17.7,25,99.223,125.683,905.737,-26.8738,-75.2476,0.916113,
2026_07_06_17_48_45.998,3.851,30,0,0.76,0,0,0,0, ,0,0,0,0,0, ,673.7,-24,750.9,-18.5,-188.4,-15.3,25,133.392,116.693,896.354,-26.3514,-83.255,-0.145182,
2026_07_06_17_48_46.022,3.851,30.1,0,0.762,0,0,0,0, ,0,0,0,0,0, ,629.7,-18.3,721.1,-23.3,-193.2,-14.9,25,164.977,108.293,886.582,-26.0192,-89.8085,-1.05649,
2026_07_06_17_48_46.035,3.851,29.9,0,0.76,0,0,0,0, ,0,0,0,0,0, ,657.2,-27.8,637.8,-36,-223,-9.5,25,194.134,100.29,873.96,-26.2404,-97.0169,-1.73555,
2026_07_06_17_48_46.060,3.851,30,0,0.758,0,0,0,0, ,0,0,0,0,0, ,746.9,-35.2,546.2,-32.9,-199.3,-18.9,25,225.085,92.2586,856.778,-26.7407,-103.972,-2.4951,
2026_07_06_17_48_46.076,3.851,30,0,0.76,0,0,0,0, ,0,0,0,0,0, ,843,-19.5,484.3,-23.3,-135.7,-34.3,25,259.811,84.9699,835.966,-26.8235,-107.843,-3.96399,
2026_07_06_17_48_46.100,3.851,29.9,0,0.757,0,0,0,0, ,0,0,0,0,0, ,944.4,-31,458.7,-18.5,-101.6,-30,25,298.439,78.2534,813.757,-26.4626,-108.502,-5.68158,
2026_07_06_17_48_46.115,3.851,29.9,0,0.759,0,0,0,0, ,0,0,0,0,0, ,941.5,-32.2,454.9,-16.4,-122.8,-6.1,25,337.713,71.5592,792.004,-25.9134,-108.727,-6.43528,
2026_07_06_17_48_46.138,3.851,30,0,0.758,0,0,0,0, ,0,0,0,0,0, ,909.6,-32.1,412.2,-14.9,-143,7.8,25,373.535,65.2394,770.161,-25.2879,-110.2,-5.99133,
2026_07_06_17_48_46.154,3.851,30,0,0.759,0,0,0,0, ,0,0,0,0,0, ,897.7,-29.7,379,-14,-143.9,8.8,25,405.839,59.3809,747.336,-24.6275,-112.226,-5.12045,
2026_07_06_17_48_46.179,3.851,30,0,0.758,0,0,0,0, ,0,0,0,0,0, ,884,-25.1,353,-7.6,-134.8,3.5,25,435.394,54.0927,724.099,-23.7849,-113.879,-4.43366,
2026_07_06_17_48_46.195,3.851,30,0,0.76,0,0,0,0, ,0,0,0,0,0, ,912.2,-12.6,355.2,-6.1,-124.3,-3.7,25,463.59,49.6478,701.552,-22.7529,-114.834,-4.16958,
2026_07_06_17_48_46.219,3.851,30,0,0.76,0,0,0,0, ,0,0,0,0,0, ,946.8,-26.3,347.2,-9.9,-114.2,-7.3,25,491.982,45.4371,680.202,-21.8539,-115.103,-4.25065,
2026_07_06_17_48_46.233,3.851,29.9,0,0.76,0,0,0,0, ,0,0,0,0,0, ,967.2,-32.5,280.2,-12.5,-98.3,-6.3,25,520.319,40.8768,657.869,-21.2047,-114.564,-4.406,
2026_07_06_17_48_46.258,3.851,30,0,0.759,0,0,0,0, ,0,0,0,0,0, ,931.6,-43.2,201.2,-13.9,-89.3,-7,25,546.466,36.0793,632.447,-20.7169,-113.298,-4.54275,
2026_07_06_17_48_46.273,3.851,30,0,0.758,0,0,0,0, ,0,0,0,0,0, ,910.8,-25.2,149.2,-17,-106.8,-6.7,25,569.301,31.7967,604.584,-20.396,-112.369,-4.68334,
2026_07_06_17_48_46.298,3.851,30,0,0.76,0,0,0,0, ,0,0,0,0,0, ,953.3,-18.1,130.9,-14.9,-127.4,-5.3,25,591.406,28.5398,576.276,-20.125,-112.657,-4.76358,
2026_07_06_17_48_46.312,3.851,30,0,0.76,0,0,0,0, ,0,0,0,0,0, ,1027.3,-48,115.8,-13.4,-114.8,-1,25,615.714,24.7867,548.676,-19.7609,-113.172,-4.66525,
2026_07_06_17_48_46.338,3.851,29.9,0,0.759,0,0,0,0, ,0,0,0,0,0, ,1028.6,-61.5,72.7,-6.1,-80.4,-3.8,25,640.834,19.9399,520.985,-19.1509,-112.223,-4.52721,
2026_07_06_17_48_46.352,3.851,29.9,0,0.76,0,0,0,0, ,0,0,0,0,0, ,958.4,-57.6,61.6,2.1,-58.1,-3.7,25,662.325,15.096,493.329,-18.1058,-109.604,-4.47985,
2026_07_06_17_48_46.378,3.851,29.9,0,0.759,0,0,0,0, ,0,0,0,0,0, ,891.9,-38,34.7,-3.1,-60.3,-5.3,25,678.341,11.2633,466.201,-17.0329,-106.533,-4.48108,
2026_07_06_17_48_46.392,3.851,30,0,0.759,0,0,0,0, ,0,0,0,0,0, ,886.1,-38.6,20.7,-4.5,-62.6,-11.1,25,691.178,8.243,439.48,-16.2265,-103.786,-4.7077,
2026_07_06_17_48_46.418,3.851,30.1,0,0.759,0,0,0,0, ,0,0,0,0,0, ,884.3,-28.8,-1.9,-5,-54.1,-18.3,25,703.001,5.6871,413.272,-15.5272,-101.017,-5.31661,
2026_07_06_17_48_46.432,3.851,30,0,0.761,0,0,0,0, ,0,0,0,0,0, ,898.5,-14.4,-15.2,-4.6,-48.3,-26.7,25,714.482,4.02429,387.567,-14.8735,-97.9811,-6.36372,
2026_07_06_17_48_46.456,3.851,30,0,0.76,0,0,0,0, ,0,0,0,0,0, ,917.7,21.1,-17.3,-5.8,-41.9,-32.9,25,726.28,3.9832,362.959,-14.284,-94.7587,-7.79187,
2026_07_06_17_48_46.472,3.851,30,0,0.759,0,0,0,0, ,0,0,0,0,0, ,996.3,33.5,-11.1,-7.5,-35.9,-36.5,25,740.34,5.40407,339.976,-13.8188,-91.3548,-9.43158,
2026_07_06_17_48_46.496,3.851,30,0,0.76,0,0,0,0, ,0,0,0,0,0, ,1060.1,33.8,-29.6,-7.1,-29.9,-32,25,757.881,7.1253,318.019,-13.4216,-87.7927,-10.944,
2026_07_06_17_48_46.511,3.851,30,0,0.76,0,0,0,0, ,0,0,0,0,0, ,1066.7,43.9,-38.6,-5.7,-29.7,-27,25,776.499,9.05853,296.562,-12.9937,-84.2588,-12.0747,
2026_07_06_17_48_46.537,3.851,30,0,0.759,0,0,0,0, ,0,0,0,0,0, ,1069.2,54.8,-38.9,-4.7,-32,-23.5,25,794.259,11.5138,276.129,-12.5188,-81.0042,-12.8776,
2026_07_06_17_48_46.550,3.851,30.1,0,0.759,0,0,0,0, ,0,0,0,0,0, ,1092.4,49.1,-29.4,-6.9,-26.7,-18.5,25,811.72,13.9779,257.221,-12.1093,-77.8565,-13.3725,
2026_07_06_17_48_46.575,3.851,29.9,0,0.76,0,0,0,0, ,0,0,0,0,0, ,1090.6,52.7,-44.3,-9.2,-11.4,-13.6,25,828.769,16.2278,239.301,-11.862,-74.273,-13.5357,
2026_07_06_17_48_46.590,3.851,30,0,0.759,0,0,0,0, ,0,0,0,0,0, ,1050.9,50.5,-53.9,-9.4,2.6,-11.1,25,843.515,18.3833,221.727,-11.7059,-70.0151,-13.4634,
2026_07_06_17_48_46.614,3.851,30,0,0.759,0,0,0,0, ,0,0,0,0,0, ,989.1,57.6,-55.9,-8.5,4.5,-10.4,25,854.27,20.5567,204.87,-11.5379,-65.5322,-13.2981,
2026_07_06_17_48_46.630,3.851,30,0,0.761,0,0,0,0, ,0,0,0,0,0, ,951.2,63.1,-68.4,-10.1,-0.8,-10,25,861.331,22.9816,188.598,-11.4015,-61.4261,-13.1093,
2026_07_06_17_48_46.654,3.851,29.9,0,0.761,0,0,0,0, ,0,0,0,0,0, ,956.9,62.7,-90.9,-11.1,-4.7,-10.8,25,866.981,25.4142,172.252,-11.3527,-57.8506,-12.9442,
2026_07_06_17_48_46.668,3.851,29.9,0,0.76,0,0,0,0, ,0,0,0,0,0, ,964.4,74.7,-109.8,-8.8,-2.8,-11.9,25,872.689,28.0519,155.64,-11.2672,-54.5538,-12.8471,
2026_07_06_17_48_46.694,3.851,30,0,0.76,0,0,0,0, ,0,0,0,0,0, ,986,78.1,-114.2,-4.5,1.9,-12.4,25,878.936,30.9981,139.331,-10.9859,-51.2569,-12.8046,
2026_07_06_17_48_46.709,3.851,29.9,0,0.761,0,0,0,0, ,0,0,0,0,0, ,988.6,79.3,-109.6,-4.1,5.1,-10.6,25,885.539,33.9049,124.021,-10.5784,-47.9201,-12.7251,
2026_07_06_17_48_46.734,3.851,30,0,0.76,0,0,0,0, ,0,0,0,0,0, ,978,81,-103.7,-2.6,4.9,-10,25,891.497,36.723,109.965,-10.138,-44.6953,-12.5773,
2026_07_06_17_48_46.748,3.851,30,0,0.76,0,0,0,0, ,0,0,0,0,0, ,973.9,81.9,-90.4,-1.9,2.5,-9.8,25,896.643,39.4486,97.3499,-9.65729,-41.7462,-12.4142,
2026_07_06_17_48_46.775,3.851,30,0,0.758,0,0,0,0, ,0,0,0,0,0, ,1006.1,82.1,-81.6,-0.4,1.1,-9.2,25,902.332,42.0415,86.177,-9.13887,-39.0926,-12.2366,
2026_07_06_17_48_46.788,3.851,30,0,0.761,0,0,0,0, ,0,0,0,0,0, ,1301.6,90,-92,-1.2,7.3,-2,25,917.659,44.7233,75.6362,-8.63072,-36.4545,-11.8322,
2026_07_06_17_48_46.813,3.851,30,0,0.76,0,0,0,0, ,0,0,0,0,0, ,962.5,50.9,-78.9,6,17.6,11.3,25,930.723,46.291,65.8201,-7.95854,-33.4743,-10.8278,
2026_07_06_17_48_46.828,3.851,30,0,0.758,0,0,0,0, ,0,0,0,0,0, ,1010.8,110.1,-42.7,4.1,21.4,9.2,25,934.131,48.3756,58.1041,-7.16583,-30.2462,-9.54335,
2026_07_06_17_48_46.853,3.851,30,0,0.76,0,0,0,0, ,0,0,0,0,0, ,989.3,69.7,-34.4,-3.7,27.8,6.5,25,938.148,50.906,52.2143,-6.71698,-26.904,-8.48344,
2026_07_06_17_48_46.867,3.851,30,0,0.76,0,0,0,0, ,0,0,0,0,0, ,988.8,68.9,-48.5,-3.3,30.3,5.2,25,941.25,52.0269,46.5066,-6.52094,-23.4943,-7.61,
2026_07_06_17_48_46.892,3.851,29.9,0,0.758,0,0,0,0, ,0,0,0,0,0, ,1011.1,79.5,-44.9,17.6,38.1,7.7,25,944.827,53.3781,40.8268,-5.68787,-19.9786,-6.75322,
2026_07_06_17_48_46.907,3.851,30,0,0.762,0,0,0,0, ,0,0,0,0,0, ,953.7,74.9,-11.4,10.9,40.7,4.7,25,947.117,54.8297,36.6236,-4.47291,-16.3602,-5.96388,
2026_07_06_17_48_46.934,3.851,30,0,0.76,0,0,0,0, ,0,0,0,0,0, ,986.3,63.8,16.1,3.3,33.4,5.7,25,948.511,55.7146,34.535,-3.76768,-13.1055,-5.28358,
2026_07_06_17_48_46.946,3.851,30,0,0.76,0,0,0,0, ,0,0,0,0,0, ,983.2,26.4,1.2,3.5,30.5,15.3,25,950.719,55.0677,32.9577,-3.3309,-10.3599,-4.32177,
2026_07_06_17_48_46.972,3.851,30,0,0.76,0,0,0,0, ,0,0,0,0,0, ,995.6,66.5,-10,5.5,29.2,12.3,25,953.076,54.5426,30.6812,-2.85371,-7.90965,-3.21748,
2026_07_06_17_48_46.986,3.851,30,0,0.761,0,0,0,0, ,0,0,0,0,0, ,980.3,77.8,18.5,7.4,27.5,7.2,25,955.202,55.6155,29.0705,-2.28676,-5.70008,-2.42727,
2026_07_06_17_48_47.011,3.851,30.1,0,0.76,0,0,0,0, ,0,0,0,0,0, ,979.3,54.4,104.3,5.5,22.3,15.3,25,956.701,56.2544,31.0406,-1.75436,-3.83539,-1.59381,
2026_07_06_17_48_47.025,3.851,30,0,0.758,0,0,0,0, ,0,0,0,0,0, ,975.5,56,75.3,-3.4,6.1,8.4,25,957.962,56.1902,34.6212,-1.58347,-2.73636,-0.774579,
2026_07_06_17_48_47.052,3.851,30,0,0.759,0,0,0,0, ,0,0,0,0,0, ,993.8,70.1,10.6,-2.3,5.1,6.5,25,959.588,56.6082,35.1288,-1.66065,-2.22836,-0.273394,
2026_07_06_17_48_47.065,3.851,30,0,0.758,0,0,0,0, ,0,0,0,0,0, ,999.2,88,-45,1.1,5.1,-9.6,25,961.838,57.9757,31.94,-1.59602,-1.78179,-0.351187,
2026_07_06_17_48_47.092,3.851,29.9,0,0.758,0,0,0,0, ,0,0,0,0,0, ,1006.3,12.3,-31.3,9.8,22.7,-7.8,25,964.331,57.4989,27.6689,-1.16665,-0.82618,-0.859943,
2026_07_06_17_48_47.104,3.851,30,0,0.758,0,0,0,0, ,0,0,0,0,0, ,996.3,43.3,15.3,23.5,37.2,-8.7,25,966.583,55.6891,25.4953,-0.0809504,1.04924,-1.31027,
2026_07_06_17_48_47.130,3.851,29.9,0,0.76,0,0,0,0, ,0,0,0,0,0, ,961.9,79.2,190.4,32.3,31.3,-4.2,25,967.346,56.028,30.2091,1.62414,3.07241,-1.62348,
2026_07_06_17_48_47.143,3.851,30,0,0.758,0,0,0,0, ,0,0,0,0,0, ,947.9,97.2,269.8,15.3,1,0.2,25,966.588,57.9884,42.39,2.97548,3.86933,-1.64642,
2026_07_06_17_48_47.169,3.851,30,0,0.758,0,0,0,0, ,0,0,0,0,0, ,960.2,80.9,207.6,3.8,-28.8,4.6,25,965.824,59.8813,54.3526,3.37611,2.78651,-1.39984,
2026_07_06_17_48_47.183,3.851,30.1,0,0.759,0,0,0,0, ,0,0,0,0,0, ,955.2,115.1,185,-8.1,-52.4,12.9,25,965.329,62.2041,63.0025,3.03937,0.142646,-0.781336,
2026_07_06_17_48_47.211,3.851,30,0,0.76,0,0,0,0, ,0,0,0,0,0, ,995.7,72.9,32.5,-19.5,-69.7,17.9,25,965.945,64.1417,65.7903,2.01322,-3.58628,0.204714,
2026_07_06_17_48_47.224,3.851,30,0,0.759,0,0,0,0, ,0,0,0,0,0, ,1034.5,-32.7,-155.5,-33,-56,15.4,25,968.941,61.4579,58.0335,0.290929,-7.19766,1.20685,
2026_07_06_17_48_47.252,3.851,30,0,0.76,0,0,0,0, ,0,0,0,0,0, ,996.5,-10.3,-119.1,-11.4,-24.6,6.1,25,971.778,56.4026,46.1304,-1.07961,-9.21484,1.78838,
2026_07_06_17_48_47.263,3.851,30,0,0.76,0,0,0,0, ,0,0,0,0,0, ,990.6,17.9,-48.7,3.3,-9.6,1.4,25,973.105,53.1972,38.2067,-1.26062,-9.69534,1.90792,
2026_07_06_17_48_47.290,3.851,29.9,0,0.761,0,0,0,0, ,0,0,0,0,0, ,990.3,24.2,-33.3,1,-4.3,0.9,25,974.162,51.2382,33.38,-1.05279,-9.52804,1.86173,
2026_07_06_17_48_47.303,3.851,30,0,0.761,0,0,0,0, ,0,0,0,0,0, ,992.4,36.3,-36.6,3.3,2.1,4.7,25,975.209,49.9592,29.2161,-0.857616,-9.01446,1.91891,
2026_07_06_17_48_47.328,3.851,30,0,0.76,0,0,0,0, ,0,0,0,0,0, ,993.1,-27.9,-28,6.1,6,6.7,25,976.278,47.1708,25.4675,-0.518949,-8.21835,2.14932,
2026_07_06_17_48_47.341,3.851,30.1,0,0.761,0,0,0,0, ,0,0,0,0,0, ,991.3,-13.6,-62.1,3.3,15.4,0.9,25,977.248,43.0319,21.1703,-0.200919,-7.06551,2.24991,
2026_07_06_17_48_47.369,3.851,30.1,0,0.76,0,0,0,0, ,0,0,0,0,0, ,991.6,-2.3,-14.4,17.4,24.2,-0.5,25,978.114,39.9252,17.5494,0.442028,-5.42839,2.12499,
2026_07_06_17_48_47.381,3.851,30.1,0,0.76,0,0,0,0, ,0,0,0,0,0, ,993.8,37.7,59.2,-0.2,21.4,-3.1,25,979.003,38.5708,17.845,0.939154,-3.70822,1.88581,
2026_07_06_17_48_47.407,3.851,30,0,0.759,0,0,0,0, ,0,0,0,0,0, ,982.6,117,78.8,6.7,12.9,8.3,25,979.563,40.9339,20.9623,1.07997,-2.43718,1.92933,
2026_07_06_17_48_47.420,3.851,30,0,0.759,0,0,0,0, ,0,0,0,0,0, ,998,-7.5,-0.6,0.7,8.8,8.4,25,980.217,41.7758,22.0675,1.23963,-1.62749,2.32059,
2026_07_06_17_48_47.447,3.851,29.9,0,0.76,0,0,0,0, ,0,0,0,0,0, ,987.5,4.7,144.5,-11.3,-3.9,6.5,25,980.981,39.1448,25.1072,0.84112,-1.37902,2.63317,
2026_07_06_17_48_47.461,3.851,30,0,0.761,0,0,0,0, ,0,0,0,0,0, ,996.5,-15.2,-38.9,-17.3,-6.3,1.1,25,981.652,36.4395,26.7948,-0.0815414,-1.60576,2.70427,
2026_07_06_17_48_47.488,3.851,30.1,0,0.758,0,0,0,0, ,0,0,0,0,0, ,988,1.7,41.5,-12.5,-2.2,-1.6,25,982.298,33.8076,25.2412,-0.984541,-1.7669,2.52424,
2026_07_06_17_48_47.500,3.851,30,0,0.758,0,0,0,0, ,0,0,0,0,0, ,992.7,11.3,26.1,-7.7,-3.6,-1,25,982.789,32.1436,25.7627,-1.54001,-1.83595,2.2912,
2026_07_06_17_48_47.528,3.851,30.1,0,0.76,0,0,0,0, ,0,0,0,0,0, ,990.8,-3.4,23.6,-8.9,-2.3,-0.6,25,983.335,30.4255,25.7071,-1.95195,-1.90383,2.10283,
2026_07_06_17_48_47.540,3.851,30,0,0.759,0,0,0,0, ,0,0,0,0,0, ,990.7,-2.1,5.9,-9,-1.2,-2,25,983.787,28.4039,25.0394,-2.37839,-1.89446,1.89547,
2026_07_06_17_48_47.566,3.851,30.1,0,0.758,0,0,0,0, ,0,0,0,0,0, ,991.2,2,14,-9.8,1.8,-3.6,25,984.223,26.67,24.1199,-2.80627,-1.76073,1.60934,
2026_07_06_17_48_47.579,3.851,30.1,0,0.758,0,0,0,0, ,0,0,0,0,0, ,990.9,17.2,45.6,-9.4,0,-2.4,25,984.639,25.6298,24.466,-3.22027,-1.5986,1.32846,
2026_07_06_17_48_47.606,3.851,30.1,0,0.758,0,0,0,0, ,0,0,0,0,0, ,990.9,6.8,29.4,-8,-1.3,-1.3,25,985.021,24.7992,25.2603,-3.55419,-1.54079,1.13477,
2026_07_06_17_48_47.619,3.851,30,0,0.76,0,0,0,0, ,0,0,0,0,0, ,990.2,2.8,15,-3.5,-1.3,-1.6,25,985.358,23.5805,25.0738,-3.68799,-1.52612,0.977265,
2026_07_06_17_48_47.646,3.851,30.1,0,0.76,0,0,0,0, ,0,0,0,0,0, ,991.2,11.8,30.2,-9.3,-0.1,-2,25,985.683,22.5884,24.9231,-3.85326,-1.47578,0.808025,
2026_07_06_17_48_47.658,3.851,30,0,0.76,0,0,0,0, ,0,0,0,0,0, ,991.6,1.8,10.2,-4.3,-0.9,-1.9,25,986.032,21.6263,24.6352,-4.03282,-1.41631,0.639958,
2026_07_06_17_48_47.691,3.851,29.9,0,0.76,0,0,0,0, ,0,0,0,0,0, ,989.3,8.6,24.4,-0.8,0.2,-2.2,25,986.301,20.6253,24.1883,-3.94247,-1.35134,0.476039,
2026_07_06_17_48_47.698,3.851,30,0,0.76,0,0,0,0, ,0,0,0,0,0, ,991,6.3,17.4,-0.5,0.1,-1.9,25,986.535,19.8225,23.9879,-3.74183,-1.25985,0.322108,
2026_07_06_17_48_47.724,3.851,30,0,0.76,0,0,0,0, ,0,0,0,0,0, ,990.3,9.2,28.6,-2.7,0,-1.9,25,986.786,19.0868,23.9277,-3.61131,-1.18003,0.186698,
2026_07_06_17_48_47.738,3.851,30,0,0.76,0,0,0,0, ,0,0,0,0,0, ,991,4,21.6,-2.1,-0.2,-2.3,25,987.022,18.3259,23.9991,-3.5375,-1.11422,0.0473527,
2026_07_06_17_48_47.768,3.851,30,0,0.76,0,0,0,0, ,0,0,0,0,0, ,989.8,8.7,26.9,-0.5,-0.1,-2.5,25,987.228,17.5961,24.0144,-3.40115,-1.05546,-0.101783,
2026_07_06_17_48_47.777,3.851,30,0,0.758,0,0,0,0, ,0,0,0,0,0, ,991.2,14.2,32.7,-0.2,-0.8,-1.9,25,987.427,17.2216,24.367,-3.21522,-1.01856,-0.229643,
2026_07_06_17_48_47.812,3.851,30.1,0,0.76,0,0,0,0, ,0,0,0,0,0, ,989.6,8.1,20.7,0.6,-1.3,-1.4,25,987.608,16.8516,24.5091,-3.00711,-1.02048,-0.316196,
2026_07_06_17_48_47.818,3.851,29.9,0,0.761,0,0,0,0, ,0,0,0,0,0, ,991.3,6.9,19.7,2.7,0,-1.8,25,987.781,16.2817,24.2465,-2.72331,-0.997903,-0.394428,
2026_07_06_17_48_47.845,3.851,30,0,0.76,0,0,0,0, ,0,0,0,0,0, ,990.4,6.4,18.9,0,0,-1.9,25,987.968,15.6948,23.9451,-2.4751,-0.937093,-0.483127,
2026_07_06_17_48_47.856,3.851,30,0,0.76,0,0,0,0, ,0,0,0,0,0, ,990.7,3.9,25,0,1.5,-2.7,25,988.126,15.0522,23.8235,-2.32427,-0.834286,-0.593842,
2026_07_06_17_48_47.883,3.851,30,0,0.76,0,0,0,0, ,0,0,0,0,0, ,991.3,8.9,31.4,-0.2,0.9,-3.1,25,988.301,14.525,24.0902,-2.18873,-0.710322,-0.734374,
2026_07_06_17_48_47.897,3.851,30,0,0.759,0,0,0,0, ,0,0,0,0,0, ,990.7,17.7,33.4,-0.1,-0.5,-2.2,25,988.465,14.4503,24.5966,-2.06449,-0.654849,-0.851107,
2026_07_06_17_48_47.924,3.851,30,0,0.759,0,0,0,0, ,0,0,0,0,0, ,990.7,7.9,21.4,-0.1,-0.7,-1.7,25,988.601,14.3498,24.7674,-1.94478,-0.651507,-0.918071,
2026_07_06_17_48_47.935,3.851,30.1,0,0.758,0,0,0,0, ,0,0,0,0,0, ,991.2,9.5,26.1,-0.2,-0.2,-2.1,25,988.745,14.0055,24.7054,-1.83541,-0.639227,-0.977907,
2026_07_06_17_48_47.963,3.851,30,0,0.76,0,0,0,0, ,0,0,0,0,0, ,991.3,12.8,26.8,-0.1,-0.4,-1.9,25,988.897,13.8315,24.8117,-1.73271,-0.618556,-1.04019,
2026_07_06_17_48_47.976,3.851,30.1,0,0.756,0,0,0,0, ,0,0,0,0,0, ,989.5,11.4,24.5,-0.2,-0.4,-1.7,25,988.989,13.726,24.8628,-1.63626,-0.605238,-1.08649,
2026_07_06_17_48_48.002,3.851,30,0,0.759,0,0,0,0, ,0,0,0,0,0, ,989.6,12.2,34.4,-0.1,-0.8,-1.4,25,989.023,13.6086,25.1424,-1.54569,-0.604918,-1.11474,
2026_07_06_17_48_48.015,3.851,30,0,0.76,0,0,0,0, ,0,0,0,0,0, ,990.2,6.4,20.8,-0.1,-0.9,-1.6,25,989.076,13.346,25.2921,-1.4576,-0.619853,-1.13821,
2026_07_06_17_48_48.042,3.851,30.1,0,0.76,0,0,0,0, ,0,0,0,0,0, ,991.4,9.3,25.2,0,-0.5,-1.6,25,989.181,13.0111,25.1524,-1.37182,-0.624737,-1.16635,
2026_07_06_17_48_48.055,3.851,30,0,0.76,0,0,0,0, ,0,0,0,0,0, ,991.6,8.4,21.8,-0.1,0,-1.9,25,989.323,12.7576,25.0517,-1.29127,-0.601901,-1.20192,
2026_07_06_17_48_48.082,3.851,30.1,0,0.76,0,0,0,0, ,0,0,0,0,0, ,990.6,11.7,32.1,-0.1,0,-1.9,25,989.431,12.5926,25.1674,-1.21868,-0.565223,-1.24446,
2026_07_06_17_48_48.095,3.851,30,0,0.758,0,0,0,0, ,0,0,0,0,0, ,990.2,9.3,26.3,-0.1,-0.5,-1.7,25,989.49,12.4651,25.4132,-1.15051,-0.546014,-1.27831,
2026_07_06_17_48_48.120,3.851,30.1,0,0.758,0,0,0,0, ,0,0,0,0,0, ,990.7,10.2,27.2,-0.1,-0.5,-1.6,25,989.549,12.2996,25.4946,-1.08649,-0.54321,-1.30096,
2026_07_06_17_48_48.133,3.851,30,0,0.761,0,0,0,0, ,0,0,0,0,0, ,991.8,7.2,22.2,0,-0.2,-1.8,25,989.652,12.0803,25.4462,-1.02333,-0.531436,-1.32528,
2026_07_06_17_48_48.160,3.851,30,0,0.759,0,0,0,0, ,0,0,0,0,0, ,990.9,8.4,27.5,-0.1,0,-1.8,25,989.756,11.8194,25.4099,-0.96402,-0.505146,-1.35421,
2026_07_06_17_48_48.173,3.851,30,0,0.759,0,0,0,0, ,0,0,0,0,0, ,989.3,11.1,30,-0.1,-0.1,-1.7,25,989.777,11.6933,25.6134,-0.911369,-0.47741,-1.37833,
2026_07_06_17_48_48.200,3.851,29.9,0,0.759,0,0,0,0, ,0,0,0,0,0, ,991.5,11.5,28.1,0,-0.7,-1.3,25,989.815,11.6694,25.8228,-0.858879,-0.472693,-1.38574,
2026_07_06_17_48_48.213,3.851,30,0,0.76,0,0,0,0, ,0,0,0,0,0, ,989.5,10.9,27.9,0,-1.2,-1,25,989.856,11.6408,25.9555,-0.806541,-0.501779,-1.37137,
2026_07_06_17_48_48.243,3.851,29.9,0,0.759,0,0,0,0, ,0,0,0,0,0, ,991.8,5.6,23.6,0,-1.3,-1.3,25,989.905,11.4341,25.943,-0.757393,-0.547374,-1.35788,
2026_07_06_17_48_48.251,3.851,30.1,0,0.759,0,0,0,0, ,0,0,0,0,0, ,992,6.9,19.5,0,-0.1,-1.9,25,990.026,11.1182,25.6753,-0.711239,-0.556674,-1.37264,
2026_07_06_17_48_48.280,3.851,30,0,0.758,0,0,0,0, ,0,0,0,0,0, ,990.7,10.7,27.8,0,0.1,-2.1,25,990.107,10.977,25.5519,-0.667898,-0.522752,-1.41087,
2026_07_06_17_48_48.291,3.851,30,0,0.758,0,0,0,0, ,0,0,0,0,0, ,991.2,10.3,27.9,0,0,-2,25,990.158,10.9479,25.6919,-0.627198,-0.48785,-1.44982,
2026_07_06_17_48_48.319,3.851,30.1,0,0.76,0,0,0,0, ,0,0,0,0,0, ,991.3,12,30.1,0,-0.3,-1.8,25,990.225,10.9602,25.8935,-0.588978,-0.467262,-1.47725,
2026_07_06_17_48_48.332,3.851,30.1,0,0.76,0,0,0,0, ,0,0,0,0,0, ,991.8,10.4,27.3,0,-0.7,-1.8,25,990.306,10.9748,26.0645,-0.553087,-0.469257,-1.49692,
2026_07_06_17_48_48.359,3.851,30,0,0.76,0,0,0,0, ,0,0,0,0,0, ,991.2,9.8,26,0.1,-0.5,-1.8,25,990.378,10.9215,26.1002,-0.516337,-0.477224,-1.51539,
2026_07_06_17_48_48.371,3.851,30.1,0,0.76,0,0,0,0, ,0,0,0,0,0, ,991.3,11.7,27.2,0,-0.2,-1.9,25,990.432,10.9111,26.1306,-0.481825,-0.469472,-1.53578,
2026_07_06_17_48_48.400,3.851,30.1,0,0.76,0,0,0,0, ,0,0,0,0,0, ,989.6,10.4,28.3,0,-0.4,-1.6,25,990.433,10.9195,26.2293,-0.452464,-0.459144,-1.54883,
2026_07_06_17_48_48.411,3.851,30.1,0,0.759,0,0,0,0, ,0,0,0,0,0, ,991.6,9.6,28.6,0,-0.6,-1.4,25,990.443,10.8635,26.3647,-0.424892,-0.461634,-1.54585,
2026_07_06_17_48_48.439,3.851,29.9,0,0.758,0,0,0,0, ,0,0,0,0,0, ,991,12.5,28.3,0,-0.6,-1.4,25,990.495,10.8749,26.4917,-0.399,-0.470066,-1.53697,
2026_07_06_17_48_48.450,3.851,30,0,0.76,0,0,0,0, ,0,0,0,0,0, ,990.9,10.9,28,0,-0.9,-1.1,25,990.523,10.9251,26.5928,-0.374686,-0.487124,-1.51948,
2026_07_06_17_48_48.479,3.851,30,0,0.761,0,0,0,0, ,0,0,0,0,0, ,990.8,8.9,24.5,0,-0.8,-1.4,25,990.543,10.8627,26.5719,-0.351854,-0.509237,-1.50306,
2026_07_06_17_48_48.490,3.851,30.1,0,0.761,0,0,0,0, ,0,0,0,0,0, ,990.9,10.1,24.1,0,-0.3,-1.7,25,990.561,10.7796,26.4334,-0.330413,-0.511721,-1.50592,
2026_07_06_17_48_48.517,3.851,30,0,0.76,0,0,0,0, ,0,0,0,0,0, ,992.9,10.8,29.9,-0.1,-0.4,-1.6,25,990.643,10.7595,26.468,-0.313325,-0.501866,-1.5147,
2026_07_06_17_48_48.529,3.851,30,0,0.76,0,0,0,0, ,0,0,0,0,0, ,990.4,11.3,25.5,0,-0.6,-1.4,25,990.704,10.7772,26.543,-0.297279,-0.501752,-1.5138,
2026_07_06_17_48_48.559,3.851,30.1,0,0.76,0,0,0,0, ,0,0,0,0,0, ,990.9,9.2,25.8,-0.1,-0.4,-1.6,25,990.701,10.7451,26.4886,-0.28221,-0.501646,-1.51296,
2026_07_06_17_48_48.569,3.851,30.1,0,0.761,0,0,0,0, ,0,0,0,0,0, ,991.6,10,27.4,0,-0.5,-1.7,25,990.735,10.6753,26.4954,-0.26806,-0.498498,-1.52131,
2026_07_06_17_48_48.670,3.851,30,0,0.759,0,0,0,0, ,0,0,0,0,0, ,991,11.2,28.1,-0.1,-0.3,-1.8,25,990.769,10.6707,26.5719,-0.254772,-0.492496,-1.53525,
2026_07_06_17_48_48.670,3.851,30,0,0.759,0,0,0,0, ,0,0,0,0,0, ,991.4,10.2,27.2,0,-0.3,-1.8,25,990.795,10.6725,26.6376,-0.242294,-0.480766,-1.55138,
2026_07_06_17_48_48.670,3.851,30,0,0.76,0,0,0,0, ,0,0,0,0,0, ,991,9.7,25.5,0,-0.3,-1.8,25,990.82,10.6285,26.62,-0.227529,-0.469751,-1.56653,
2026_07_06_17_48_48.675,3.851,30.1,0,0.76,0,0,0,0, ,0,0,0,0,0, ,991.6,11.2,27.8,0,-0.6,-1.4,25,990.849,10.6176,26.6219,-0.213664,-0.468547,-1.56857,
2026_07_06_17_48_48.675,3.851,29.9,0,0.759,0,0,0,0, ,0,0,0,0,0, ,990.6,8.1,26.2,0,-0.5,-1.5,25,990.864,10.5587,26.6449,-0.200644,-0.473511,-1.56135,
2026_07_06_17_48_48.704,3.851,29.9,0,0.76,0,0,0,0, ,0,0,0,0,0, ,990.8,9.2,28.9,-0.1,-0.5,-1.6,25,990.854,10.4423,26.7001,-0.191464,-0.475125,-1.56065,
2026_07_06_17_48_48.734,3.851,30,0,0.76,0,0,0,0, ,0,0,0,0,0, ,990.7,10.1,26.3,-0.1,-0.4,-1.7,25,990.848,10.3941,26.7549,-0.18589,-0.473594,-1.5661,
2026_07_06_17_48_48.734,3.851,30.1,0,0.76,0,0,0,0, ,0,0,0,0,0, ,992.1,9.6,26.3,-0.1,-0.4,-1.7,25,990.882,10.3609,26.7272,-0.180656,-0.469109,-1.57426,
2026_07_06_17_48_48.763,3.851,30,0,0.759,0,0,0,0, ,0,0,0,0,0, ,990.9,11.1,29.6,0,-0.5,-1.6,25,990.919,10.3602,26.8017,-0.172694,-0.467945,-1.57887,
2026_07_06_17_48_48.768,3.851,30,0,0.76,0,0,0,0, ,0,0,0,0,0, ,991.5,8.6,27.8,0,-0.5,-1.5,25,990.936,10.3292,26.9174,-0.162171,-0.469898,-1.57711,
2026_07_06_17_48_48.796,3.851,29.9,0,0.76,0,0,0,0, ,0,0,0,0,0, ,989.1,8.7,26.4,0,-0.4,-1.8,25,990.898,10.2268,26.9285,-0.152289,-0.468685,-1.58156,
2026_07_06_17_48_48.807,3.851,30.1,0,0.759,0,0,0,0, ,0,0,0,0,0, ,991.4,10.4,28.1,0,-0.5,-1.7,25,990.858,10.1856,26.9481,-0.143008,-0.467547,-1.59182,
2026_07_06_17_48_48.836,3.851,29.9,0,0.759,0,0,0,0, ,0,0,0,0,0, ,990.7,11.1,27.4,0,-0.5,-1.6,25,990.87,10.22,26.997,-0.134294,-0.469524,-1.59537,
2026_07_06_17_48_48.846,3.851,30,0,0.758,0,0,0,0, ,0,0,0,0,0, ,992.6,11.9,28.6,0,-0.6,-1.5,25,990.917,10.298,27.0581,-0.12611,-0.474428,-1.5926,
2026_07_06_17_48_48.877,3.851,29.9,0,0.76,0,0,0,0, ,0,0,0,0,0, ,990.7,9.8,27.3,0.1,-0.6,-1.4,25,990.962,10.3316,27.1124,-0.115379,-0.48208,-1.58391,
2026_07_06_17_48_48.885,3.851,29.9,0,0.76,0,0,0,0, ,0,0,0,0,0, ,991.8,9.2,25.7,0,-0.7,-1.5,25,990.98,10.2809,27.0751,-0.105301,-0.492313,-1.57575,
2026_07_06_17_48_48.914,3.851,30,0,0.759,0,0,0,0, ,0,0,0,0,0, ,989.9,9.6,27.9,0,-0.5,-1.6,25,990.972,10.2273,27.0583,-0.0988841,-0.498875,-1.57418,
2026_07_06_17_48_48.932,3.851,30,0,0.76,0,0,0,0, ,0,0,0,0,0, ,991.9,10.4,27.7,0,-0.5,-1.6,25,990.967,10.2134,27.1035,-0.0928584,-0.498944,-1.57576,
2026_07_06_17_48_48.961,3.851,30.1,0,0.76,0,0,0,0, ,0,0,0,0,0, ,990.7,10.1,27.5,0,-0.4,-1.7,25,990.988,10.2156,27.1338,-0.0871998,-0.495961,-1.58028,
2026_07_06_17_48_48.966,3.851,30,0,0.758,0,0,0,0, ,0,0,0,0,0, ,992,10.2,27.8,0,-0.4,-1.8,25,991.01,10.2116,27.1653,-0.0818861,-0.490114,-1.59062,
2026_07_06_17_48_48.995,3.851,30.1,0,0.76,0,0,0,0, ,0,0,0,0,0, ,990.2,10.6,28.3,0,-0.5,-1.7,25,991.015,10.2231,27.2192,-0.0768961,-0.487669,-1.60033,
2026_07_06_17_48_49.004,3.851,30.1,0,0.759,0,0,0,0, ,0,0,0,0,0, ,990.7,11.5,28.5,0,-0.4,-1.6,25,990.981,10.2735,27.2911,-0.0722103,-0.485374,-1.60336,
2026_07_06_17_48_49.034,3.851,30,0,0.762,0,0,0,0, ,0,0,0,0,0, ,990.4,11.4,27.3,0,-0.5,-1.6,25,990.955,10.3452,27.3282,-0.06781,-0.483218,-1.60316,
2026_07_06_17_48_49.043,3.851,29.9,0,0.759,0,0,0,0, ,0,0,0,0,0, ,990.7,10.6,26.3,0,-0.4,-1.6,25,990.93,10.3851,27.296,-0.0636778,-0.481194,-1.60296,
2026_07_06_17_48_49.074,3.851,29.9,0,0.759,0,0,0,0, ,0,0,0,0,0, ,990.8,7.9,26.6,0,-0.5,-1.6,25,990.919,10.3159,27.2445,-0.0597974,-0.479293,-1.60278,
2026_07_06_17_48_49.084,3.851,30.1,0,0.76,0,0,0,0, ,0,0,0,0,0, ,990.9,10.6,25.8,0,-0.4,-1.7,25,990.915,10.251,27.1808,-0.0561535,-0.477508,-1.60566,
2026_07_06_17_48_49.112,3.851,30.1,0,0.759,0,0,0,0, ,0,0,0,0,0, ,990.6,11.7,27,0,-0.5,-1.5,25,990.905,10.3058,27.1333,-0.0527317,-0.475832,-1.60532,
2026_07_06_17_48_49.123,3.851,29.9,0,0.759,0,0,0,0, ,0,0,0,0,0, ,991.6,11.2,27.3,0,-0.5,-1.5,25,990.917,10.3755,27.1343,-0.0495183,-0.477304,-1.5989,
2026_07_06_17_48_49.151,3.851,29.9,0,0.758,0,0,0,0, ,0,0,0,0,0, ,990.4,10.3,27,0,-0.5,-1.7,25,990.922,10.3983,27.1352,-0.0465008,-0.478687,-1.59896,
2026_07_06_17_48_49.163,3.851,30,0,0.759,0,0,0,0, ,0,0,0,0,0, ,991.3,10.2,26.6,0,-0.5,-1.5,25,990.917,10.3893,27.1148,-0.0436672,-0.479986,-1.59903,
2026_07_06_17_48_49.192,3.851,30,0,0.759,0,0,0,0, ,0,0,0,0,0, ,990.3,9.6,27.9,0,-0.5,-1.4,25,990.91,10.3595,27.123,-0.0410062,-0.481206,-1.58995,
2026_07_06_17_48_49.202,3.851,30.1,0,0.759,0,0,0,0, ,0,0,0,0,0, ,990.9,9.2,27.7,0,-0.6,-1.4,25,990.891,10.301,27.1643,-0.0385074,-0.485398,-1.57837,
2026_07_06_17_48_49.232,3.851,29.9,0,0.76,0,0,0,0, ,0,0,0,0,0, ,991.6,10.3,27.3,0,-0.4,-1.7,25,990.913,10.2674,27.1848,-0.0361608,-0.486288,-1.57664,
2026_07_06_17_48_49.242,3.851,30.1,0,0.759,0,0,0,0, ,0,0,0,0,0, ,989,10.6,26.7,0,-0.3,-1.7,25,990.876,10.2785,27.1735,-0.0339573,-0.477983,-1.58416,
2026_07_06_17_48_49.270,3.851,30,0,0.758,0,0,0,0, ,0,0,0,0,0, ,991.2,12.3,29.1,0.1,-0.5,-1.5,25,990.828,10.3499,27.2178,-0.0288411,-0.473231,-1.58513,
2026_07_06_17_48_49.282,3.851,30.1,0,0.759,0,0,0,0, ,0,0,0,0,0, ,991.2,9.6,27.8,0,-0.6,-1.5,25,990.851,10.3865,27.2929,-0.0240368,-0.477909,-1.57994,
2026_07_06_17_48_49.310,3.851,30.1,0,0.758,0,0,0,0, ,0,0,0,0,0, ,990.9,11.9,26.3,0,-0.4,-1.7,25,990.863,10.4086,27.2781,-0.022572,-0.479255,-1.58116,
2026_07_06_17_48_49.321,3.851,30,0,0.76,0,0,0,0, ,0,0,0,0,0, ,990.8,10.8,26.1,0,-0.5,-1.6,25,990.862,10.466,27.2124,-0.0211965,-0.477472,-1.58536,
2026_07_06_17_48_49.350,3.851,30.1,0,0.759,0,0,0,0, ,0,0,0,0,0, ,991.9,11.1,27.5,0,-0.5,-1.7,25,990.892,10.4955,27.1872,-0.0199049,-0.478845,-1.58929,
2026_07_06_17_48_49.361,3.851,30,0,0.759,0,0,0,0, ,0,0,0,0,0, ,990.8,11.2,27.3,0,-0.6,-1.4,25,990.92,10.5354,27.2002,-0.0186919,-0.483181,-1.5869,
2026_07_06_17_48_49.391,3.851,30.1,0,0.76,0,0,0,0, ,0,0,0,0,0, ,991,9.6,26.8,0,-0.5,-1.5,25,990.919,10.5271,27.191,-0.0175529,-0.487253,-1.57856,
2026_07_06_17_48_49.401,3.851,30,0,0.758,0,0,0,0, ,0,0,0,0,0, ,990.3,11.8,29.1,0,-0.5,-1.5,25,990.902,10.5377,27.2373,-0.0164833,-0.48803,-1.57377,
2026_07_06_17_48_49.442,3.851,30,0,0.759,0,0,0,0, ,0,0,0,0,0, ,990.6,10.1,26,0,-0.5,-1.6,25,990.875,10.5628,27.2563,-0.0154788,-0.488759,-1.57232,
2026_07_06_17_48_49.444,3.851,30.1,0,0.758,0,0,0,0, ,0,0,0,0,0, ,992,10.4,28,0,-0.5,-1.5,25,990.901,10.5437,27.2407,-0.0145356,-0.489444,-1.57096,
2026_07_06_17_48_49.473,3.851,30.1,0,0.76,0,0,0,0, ,0,0,0,0,0, ,990.3,11.3,27.8,0,-0.5,-1.6,25,990.916,10.5624,27.2809,-0.0136498,-0.490087,-1.56968,
2026_07_06_17_48_49.480,3.851,30,0,0.759,0,0,0,0, ,0,0,0,0,0, ,991.2,10.2,26.1,0,-0.6,-1.4,25,990.906,10.5738,27.2607,-0.012818,-0.493738,-1.56544,
2026_07_06_17_48_49.509,3.851,30.2,0,0.762,0,0,0,0, ,0,0,0,0,0, ,990.9,9.8,25.3,0,-0.5,-1.5,25,990.915,10.5389,27.1656,-0.0120369,-0.497167,-1.5584,
2026_07_06_17_48_49.519,3.851,30,0,0.758,0,0,0,0, ,0,0,0,0,0, ,992.3,9.8,28.4,0,-0.5,-1.5,25,990.956,10.4938,27.1464,-0.0113034,-0.497339,-1.55484,
2026_07_06_17_48_49.550,3.851,30.1,0,0.761,0,0,0,0, ,0,0,0,0,0, ,991.4,10.4,27.4,0,-0.5,-1.6,25,991.011,10.4698,27.1923,-0.0106146,-0.497501,-1.55455,
2026_07_06_17_48_49.558,3.851,30.1,0,0.76,0,0,0,0, ,0,0,0,0,0, ,990.9,12.2,25.3,0,-0.4,-1.7,25,991.019,10.5204,27.141,-0.00996779,-0.494607,-1.56037,
2026_07_06_17_48_49.587,3.851,30,0,0.76,0,0,0,0, ,0,0,0,0,0, ,991.4,11.8,27,0,-0.5,-1.5,25,991.027,10.6106,27.0806,-0.00936038,-0.491889,-1.56278,
2026_07_06_17_48_49.597,3.851,30.1,0,0.76,0,0,0,0, ,0,0,0,0,0, ,990.9,10.7,28.3,0,-0.5,-1.4,25,991.035,10.6496,27.1153,-0.00878998,-0.492383,-1.55591,
2026_07_06_17_48_49.627,3.851,30,0,0.761,0,0,0,0, ,0,0,0,0,0, ,991.8,10.4,26.8,0,-0.5,-1.7,25,991.054,10.6435,27.1418,-0.00825434,-0.492847,-1.55555,
2026_07_06_17_48_49.642,3.851,30,0,0.759,0,0,0,0, ,0,0,0,0,0, ,990.9,10.8,28.3,0,-0.5,-1.5,25,991.072,10.6408,27.1667,-0.00775134,-0.493283,-1.55826,
2026_07_06_17_48_49.675,3.851,30,0,0.759,0,0,0,0, ,0,0,0,0,0, ,990.8,10.3,26.4,0,-0.4,-1.6,25,991.058,10.6353,27.1778,-0.007279,-0.490645,-1.55775,
2026_07_06_17_48_49.683,3.851,30,0,0.76,0,0,0,0, ,0,0,0,0,0, ,990.4,10.7,28,0,-0.4,-1.7,25,991.031,10.6271,27.1792,-0.00683543,-0.485122,-1.56338,
2026_07_06_17_48_49.714,3.851,30.1,0,0.761,0,0,0,0, ,0,0,0,0,0, ,990.3,11.3,27.3,0,-0.4,-1.7,25,990.989,10.6498,27.2079,-0.0064189,-0.479935,-1.5717,
2026_07_06_17_48_49.717,3.851,30,0,0.759,0,0,0,0, ,0,0,0,0,0, ,990.3,10.4,28.6,0,-0.3,-1.6,25,990.947,10.662,27.2531,-0.00602775,-0.472017,-1.57647,
2026_07_06_17_48_49.747,3.851,30.1,0,0.761,0,0,0,0, ,0,0,0,0,0, ,990.1,12.6,28.3,0,-0.5,-1.6,25,990.902,10.713,27.326,-0.00566043,-0.467628,-1.57791,
2026_07_06_17_48_49.757,3.851,30,0,0.76,0,0,0,0, ,0,0,0,0,0, ,989.6,10.9,27.5,0,-0.5,-1.5,25,990.837,10.7762,27.361,-0.0053155,-0.469601,-1.57621,
2026_07_06_17_48_49.786,3.851,30,0,0.759,0,0,0,0, ,0,0,0,0,0, ,990.8,9.7,27.5,0,-0.5,-1.7,25,990.799,10.7472,27.3695,-0.00499158,-0.471453,-1.57766,
2026_07_06_17_48_49.797,3.851,30.1,0,0.758,0,0,0,0, ,0,0,0,0,0, ,990.2,11.9,28,0,-0.4,-1.7,25,990.78,10.7504,27.3927,-0.00468741,-0.470146,-1.58511,
2026_07_06_17_48_49.826,3.851,30.1,0,0.76,0,0,0,0, ,0,0,0,0,0, ,990.8,11.2,27.2,-0.4,-0.3,-2.1,25,990.763,10.7992,27.4053,-0.0165893,-0.462825,-1.6043,
2026_07_06_17_48_49.836,3.851,30.1,0,0.76,0,0,0,0, ,0,0,0,0,0, ,989.9,9.7,26.8,-2,-0.4,-2.1,25,990.738,10.7779,27.3806,-0.0887034,-0.455949,-1.63451,
2026_07_06_17_48_49.866,3.851,30,0,0.76,0,0,0,0, ,0,0,0,0,0, ,991.4,11.8,26.7,-0.4,-0.3,-1.9,25,990.733,10.7762,27.3422,-0.156423,-0.449493,-1.65678,
2026_07_06_17_48_49.876,3.851,30.1,0,0.76,0,0,0,0, ,0,0,0,0,0, ,991,11.3,26.8,-0.1,-0.5,-1.8,25,990.761,10.8233,27.3061,-0.162125,-0.446477,-1.66855,
2026_07_06_17_48_49.906,3.851,30,0,0.759,0,0,0,0, ,0,0,0,0,0, ,992.1,11.4,27.8,-0.1,-0.5,-1.6,25,990.809,10.8554,27.3057,-0.15834,-0.449739,-1.67047,
2026_07_06_17_48_49.914,3.851,30.1,0,0.759,0,0,0,0, ,0,0,0,0,0, ,990.7,13.3,28.5,0,-0.5,-1.6,25,990.845,10.9465,27.3572,-0.151738,-0.452801,-1.66617,
2026_07_06_17_48_49.945,3.851,30,0,0.758,0,0,0,0, ,0,0,0,0,0, ,991.6,11.8,29,0,-0.5,-1.5,25,990.864,11.0442,27.442,-0.142491,-0.455678,-1.6591,
2026_07_06_17_48_49.955,3.851,30,0,0.759,0,0,0,0, ,0,0,0,0,0, ,990.3,13.6,26.7,0,-0.5,-1.4,25,990.869,11.1451,27.4669,-0.133808,-0.458378,-1.64635,
2026_07_06_17_48_49.986,3.851,30,0,0.76,0,0,0,0, ,0,0,0,0,0, ,993.1,11.7,27.8,0,-0.4,-1.6,25,990.92,11.2368,27.4537,-0.125654,-0.457868,-1.63744,
