UTC_Time,Vin,TC1,TC2,Rh1,Vh1,Ah1,Acp1,Dty1,Err1,Rh2,Vh2,Ah2,Acp2,Dty2,Err2,Accel_x,Accel_y,Accel_z,gyro_x,gyro_y,gyro_z,Temp_c,Accel_x_h,Accel_y_h,Accel_z_h,gyro_x_h,gyro_y_h,gyro_z_h
2026_06_10_15_44_43.034,3.757,25.6,0,0.753,0,0,0,0.034, ,0,0,0,0,0, ,-38,157.9,988.7,-0.9,-0.5,-1.8,25,-0.129087,0.53639,3.35864,-0.00305732,-0.00169851,-0.00611464
2026_06_10_15_44_43.054,3.757,25.7,0,0.755,0,0,0,0.036, ,0,0,0,0,0, ,-36.6,157.8,989.1,-0.5,-0.5,-1.6,25,-0.0999376,0.555466,3.50325,0.00662861,-0.00176668,-0.00145574
2026_06_10_15_44_43.073,3.757,25.6,0,0.756,0,0,0,0.035, ,0,0,0,0,0, ,-37.2,157.1,991.5,-1,-0.4,-1.8,25,-0.0521081,0.551253,3.69216,0.0133547,0.000629357,0.00298185
2026_06_10_15_44_43.093,3.757,25.6,0,0.756,0,0,0,0.036, ,0,0,0,0,0, ,-37.4,160.1,989.3,-0.6,-0.4,-1.7,25,-0.0259848,0.600929,3.85851,0.0172329,0.00535695,0.00473496
2026_06_10_15_44_43.113,3.757,25.6,0,0.756,0,0,0,0.037, ,0,0,0,0,0, ,-36.6,156.7,989.3,-0.5,-0.4,-1.8,25,0.0136983,0.635398,3.94375,0.0330968,0.00982628,0.00637874
2026_06_10_15_44_43.133,3.757,25.7,0,0.755,0,0,0,0.037, ,0,0,0,0,0, ,-37.5,158.6,989.1,-0.9,-0.4,-1.8,25,0.0489157,0.628263,4.00046,0.0406631,0.014028,0.00545832
2026_06_10_15_44_43.153,3.757,25.6,0,0.758,0,0,0,0.037, ,0,0,0,0,0, ,-36.8,158.5,989.2,-0.6,-0.5,-1.7,25,0.0772604,0.662521,4.03222,0.0452058,0.0155024,0.0070083
2026_06_10_15_44_43.173,3.757,25.7,0,0.755,0,0,0,0.038, ,0,0,0,0,0, ,-37.4,158.3,989,-0.6,-0.4,-1.7,25,0.106286,0.684477,4.04011,0.0566594,0.016828,0.0108999
2026_06_10_15_44_43.192,3.757,25.7,0,0.756,0,0,0,0.038, ,0,0,0,0,0, ,-36.9,157.3,989.5,-0.9,-0.4,-1.8,25,0.130913,0.672557,4.03505,0.0599155,0.0204579,0.0120947
2026_06_10_15_44_43.213,3.757,25.7,0,0.756,0,0,0,0.038, ,0,0,0,0,0, ,-36.4,158.9,988.7,-0.5,-0.4,-1.7,25,0.178208,0.67262,4.003,0.0651688,0.0238089,0.0131714
2026_06_10_15_44_43.233,3.757,25.7,0,0.757,0,0,0,0.039, ,0,0,0,0,0, ,-38,156.6,990.4,-0.8,-0.5,-1.7,25,0.195332,0.652199,3.97486,0.0722955,0.0244261,0.0165825
2026_06_10_15_44_43.252,3.757,25.7,0,0.755,0,0,0,0.039, ,0,0,0,0,0, ,-36.3,159.6,989.5,-0.8,-0.4,-1.7,25,0.213105,0.646732,3.94813,0.0713599,0.0248926,0.0197445
2026_06_10_15_44_43.272,3.757,25.7,0,0.755,0,0,0,0.04, ,0,0,0,0,0, ,-37.1,156.7,988.4,-0.5,-0.4,-1.8,25,0.251026,0.640797,3.85421,0.0774749,0.0276657,0.0202021
2026_06_10_15_44_43.292,3.757,25.6,0,0.756,0,0,0,0.04, ,0,0,0,0,0, ,-36.8,156.6,990.1,-0.8,-0.4,-1.8,25,0.273589,0.55843,3.76061,0.0829083,0.0301665,0.0180854
2026_06_10_15_44_43.312,3.757,25.7,0,0.756,0,0,0,0.041, ,0,0,0,0,0, ,-37.4,158.6,988.5,-0.7,-0.4,-1.8,25,0.286341,0.523943,3.65552,0.0827622,0.032396,0.0159835
2026_06_10_15_44_43.332,3.757,25.9,0,0.757,0,0,0,0.041, ,0,0,0,0,0, ,-36.1,158.4,988.8,-0.7,-0.4,-1.8,25,0.314221,0.532703,3.5057,0.0846676,0.0343564,0.0139058
2026_06_10_15_44_43.351,3.757,25.9,0,0.755,0,0,0,0.04, ,0,0,0,0,0, ,-36.8,157.4,990.3,-0.5,-0.5,-1.8,25,0.353899,0.508981,3.39008,0.0909667,0.0335993,0.0118616
2026_06_10_15_44_43.371,3.757,25.7,0,0.755,0,0,0,0.04, ,0,0,0,0,0, ,-37.8,159.3,989.9,-0.8,-0.4,-1.8,25,0.3482,0.505985,3.2904,0.0940563,0.0327137,0.00985908
2026_06_10_15_44_43.390,3.757,25.7,0,0.757,0,0,0,0.042, ,0,0,0,0,0, ,-37.9,157.2,988.8,-0.5,-0.5,-1.7,25,0.31409,0.495737,3.14261,0.0965308,0.0317103,0.0103584
2026_06_10_15_44_43.410,3.757,25.9,0,0.756,0,0,0,0.043, ,0,0,0,0,0, ,-36.7,157.8,989.6,-0.8,-0.4,-1.7,25,0.307079,0.446767,2.97922,0.0984083,0.0305998,0.0132343
2026_06_10_15_44_43.430,3.757,25.9,0,0.756,0,0,0,0.041, ,0,0,0,0,0, ,-38,157.7,990.8,-0.6,-0.4,-1.7,25,0.296446,0.410257,2.85821,0.0972566,0.0318452,0.015904
2026_06_10_15_44_43.450,3.757,26,0,0.755,0,0,0,0.042, ,0,0,0,0,0, ,-37.4,159.3,989,-0.7,-0.4,-1.8,25,0.267709,0.410299,2.71433,0.0981341,0.0328725,0.0159122
2026_06_10_15_44_43.470,3.757,26,0,0.755,0,0,0,0.041, ,0,0,0,0,0, ,-37.4,158.2,988.7,-0.7,-0.5,-1.8,25,0.253775,0.420577,2.51264,0.0960329,0.0312353,0.0133894
2026_06_10_15_44_43.493,3.757,26,0,0.756,0,0,0,0.042, ,0,0,0,0,0, ,-37.2,158.9,988.2,-0.5,-0.5,-1.8,25,0.244178,0.418469,2.28884,0.0984657,0.0270723,0.0109243
2026_06_10_15_44_43.510,3.757,26,0,0.758,0,0,0,0.042, ,0,0,0,0,0, ,-37.5,156.8,989.7,-0.7,-0.4,-1.8,25,0.231395,0.380072,2.08925,0.100294,0.0254322,0.00852633
2026_06_10_15_44_43.529,3.757,26.1,0,0.756,0,0,0,0.043, ,0,0,0,0,0, ,-36.8,160.6,989.3,-0.9,-0.4,-1.8,25,0.227908,0.383373,1.91614,0.0917297,0.0261993,0.00620392
2026_06_10_15_44_43.549,3.757,26,0,0.756,0,0,0,0.042, ,0,0,0,0,0, ,-37.2,158.3,990.1,-0.4,-0.4,-1.7,25,0.230826,0.421404,1.75187,0.0904898,0.0267997,0.00641699
2026_06_10_15_44_43.570,3.757,26.1,0,0.755,0,0,0,0.043, ,0,0,0,0,0, ,-37.9,159.3,988.6,-1,-0.5,-1.7,25,0.205489,0.423616,1.56987,0.0864126,0.0247864,0.00904015
2026_06_10_15_44_43.589,3.757,26,0,0.757,0,0,0,0.043, ,0,0,0,0,0, ,-38.6,158.8,989.3,-0.4,-0.4,-1.8,25,0.146051,0.435892,1.36943,0.0821095,0.0227497,0.00903795
2026_06_10_15_44_43.609,3.757,26.1,0,0.757,0,0,0,0.044, ,0,0,0,0,0, ,-37.8,158.6,989.3,-0.8,-0.5,-1.8,25,0.0912613,0.428252,1.18924,0.0825171,0.0207008,0.00653915
2026_06_10_15_44_43.631,3.757,26.1,0,0.756,0,0,0,0.044, ,0,0,0,0,0, ,-37.7,158,989.2,-0.6,-0.4,-1.8,25,0.060778,0.39926,1.00958,0.0775937,0.0186504,0.00413068
2026_06_10_15_44_43.649,3.757,26.2,0,0.755,0,0,0,0.044, ,0,0,0,0,0, ,-36.9,157.1,990.4,-0.8,-0.4,-1.8,25,0.0535596,0.332939,0.860727,0.0725294,0.0190607,0.00181997
2026_06_10_15_44_43.668,3.757,26.2,0,0.756,0,0,0,0.044, ,0,0,0,0,0, ,-37.3,159.6,988.4,-0.4,-0.4,-1.8,25,0.0562399,0.307465,0.695316,0.0722603,0.019357,-0.000386381
2026_06_10_15_44_43.688,3.757,26.2,0,0.757,0,0,0,0.044, ,0,0,0,0,0, ,-36.2,157.8,990.4,-0.9,-0.4,-1.8,25,0.0756768,0.29889,0.53459,0.0691961,0.0195434,-0.00248262
2026_06_10_15_44_43.708,3.757,26.3,0,0.755,0,0,0,0.044, ,0,0,0,0,0, ,-37.5,159.6,989.6,-0.5,-0.4,-1.8,25,0.0888831,0.289262,0.408536,0.0634891,0.0196243,-0.00446383
2026_06_10_15_44_43.727,3.757,26.3,0,0.756,0,0,0,0.044, ,0,0,0,0,0, ,-38.2,156.9,990.4,-0.6,-0.5,-1.7,25,0.0519604,0.256611,0.286651,0.0651055,0.0171523,-0.00387371
2026_06_10_15_44_43.747,3.757,26.3,0,0.756,0,0,0,0.044, ,0,0,0,0,0, ,-36.7,159,989.2,-0.6,-0.3,-1.8,25,0.0362098,0.209584,0.159524,0.0638696,0.0171693,-0.00329344
2026_06_10_15_44_43.768,3.757,26.3,0,0.756,0,0,0,0.045, ,0,0,0,0,0, ,-36.1,158.8,989.5,-0.6,-0.3,-1.8,25,0.0725486,0.210422,0.0157749,0.0623796,0.0220051,-0.00517755
2026_06_10_15_44_43.787,3.757,26.4,0,0.758,0,0,0,0.045, ,0,0,0,0,0, ,-36.7,158.6,989.9,-0.8,-0.4,-1.8,25,0.106748,0.200373,-0.103837,0.0557509,0.0240431,-0.00694375
2026_06_10_15_44_43.807,3.757,26.4,0,0.757,0,0,0,0.045, ,0,0,0,0,0, ,-36.7,159.3,990.3,-0.7,-0.4,-1.7,25,0.12403,0.20209,-0.197453,0.0467203,0.0234105,-0.00613695
2026_06_10_15_44_43.827,3.757,26.4,0,0.755,0,0,0,0.045, ,0,0,0,0,0, ,-37.2,159.3,989.5,-0.5,-0.4,-1.8,25,0.127594,0.219892,-0.295315,0.0452589,0.0226936,-0.00533947
2026_06_10_15_44_43.847,3.757,26.5,0,0.756,0,0,0,0.045, ,0,0,0,0,0, ,-37.2,158.4,989.6,-0.9,-0.4,-1.8,25,0.118092,0.213668,-0.404087,0.0387418,0.0219,-0.00700694
2026_06_10_15_44_43.866,3.757,26.5,0,0.756,0,0,0,0.045, ,0,0,0,0,0, ,-38,158.9,987.5,-0.4,-0.4,-1.7,25,0.0888577,0.196887,-0.554576,0.0348056,0.0210374,-0.00610595
2026_06_10_15_44_43.891,3.757,26.5,0,0.757,0,0,0,0.045, ,0,0,0,0,0, ,-37.3,157.4,989.7,-0.9,-0.5,-1.7,25,0.0581669,0.155437,-0.692499,0.0308908,0.0176612,-0.00276689
2026_06_10_15_44_43.906,3.757,26.6,0,0.756,0,0,0,0.046, ,0,0,0,0,0, ,-37.4,159.4,990.4,-0.7,-0.4,-1.8,25,0.0434074,0.127514,-0.749131,0.0196593,0.0143636,-0.00203012
2026_06_10_15_44_43.926,3.757,26.6,0,0.756,0,0,0,0.045, ,0,0,0,0,0, ,-38.3,158,990.2,-0.7,-0.4,-1.7,25,0.00463636,0.115046,-0.787033,0.0137861,0.0136091,-0.00131947
2026_06_10_15_44_43.946,3.757,26.6,0,0.759,0,0,0,0.046, ,0,0,0,0,0, ,-37.3,157.3,989,-0.8,-0.5,-1.7,25,-0.0298039,0.0511273,-0.853529,0.00568085,0.0103724,0.00181498
2026_06_10_15_44_43.966,3.757,26.6,0,0.758,0,0,0,0.046, ,0,0,0,0,0, ,-37.9,156.6,989.3,-0.6,-0.4,-1.8,25,-0.0525996,-0.0442388,-0.934627,0.000397248,0.00724325,0.00233461
2026_06_10_15_44_43.985,3.757,26.6,0,0.758,0,0,0,0.046, ,0,0,0,0,0, ,-38.8,158.9,990.3,-0.8,-0.4,-1.8,25,-0.110801,-0.0954756,-0.975263,-0.00462919,0.00668406,0.000365092
2026_06_10_15_44_44.005,3.757,26.6,0,0.759,0,0,0,0.047, ,0,0,0,0,0, ,-38.4,157.2,989.5,-0.6,-0.4,-1.7,25,-0.177862,-0.129016,-1.0042,-0.00938629,0.00611936,0.000942523
2026_06_10_15_44_44.025,3.757,26.7,0,0.758,0,0,0,0.047, ,0,0,0,0,0, ,-37.1,158.4,989.7,-0.7,-0.4,-1.8,25,-0.199071,-0.172537,-1.04147,-0.0114117,0.00555219,0.00148699
2026_06_10_15_44_44.044,3.757,26.8,0,0.756,0,0,0,0.046, ,0,0,0,0,0, ,-38,159.4,989.6,-0.7,-0.4,-1.8,25,-0.20845,-0.159125,-1.06934,-0.0157337,0.00498547,-0.000454733
2026_06_10_15_44_44.064,3.757,26.7,0,0.756,0,0,0,0.046, ,0,0,0,0,0, ,-38.9,157.5,989.1,-0.6,-0.4,-1.8,25,-0.260481,-0.167657,-1.10528,-0.017314,0.00442198,-0.00229899
2026_06_10_15_44_44.085,3.757,26.8,0,0.758,0,0,0,0.047, ,0,0,0,0,0, ,-37.8,159.3,989.1,-1,-0.4,-1.8,25,-0.303772,-0.177395,-1.14627,-0.0260879,0.00386433,-0.00404146
2026_06_10_15_44_44.105,3.757,26.9,0,0.758,0,0,0,0.047, ,0,0,0,0,0, ,-35.8,159.4,991.2,-0.3,-0.4,-1.7,25,-0.267426,-0.139191,-1.12811,-0.0269465,0.00331498,-0.0032264
2026_06_10_15_44_44.124,3.757,26.8,0,0.758,0,0,0,0.046, ,0,0,0,0,0, ,-36.9,156.6,989.8,-0.7,-0.4,-1.8,25,-0.209475,-0.168383,-1.08811,-0.0202737,0.00277624,-0.00243542
2026_06_10_15_44_44.144,3.757,26.8,0,0.756,0,0,0,0.047, ,0,0,0,0,0, ,-38.2,158.6,990.7,-0.7,-0.3,-1.7,25,-0.212186,-0.21493,-1.05698,-0.0236369,0.0047024,-0.00167122
2026_06_10_15_44_44.164,3.757,26.9,0,0.758,0,0,0,0.048, ,0,0,0,0,0, ,-36.8,158.3,989.1,-0.2,-0.3,-1.8,25,-0.211265,-0.216449,-1.03932,-0.0144579,0.00896308,-0.00093627
2026_06_10_15_44_44.184,3.757,27,0,0.759,0,0,0,0.047, ,0,0,0,0,0, ,-37.1,157.8,990.4,-0.5,-0.4,-1.8,25,-0.182375,-0.236444,-1.02477,-0.000753454,0.0105185,-0.00268491
2026_06_10_15_44_44.204,3.757,26.9,0,0.758,0,0,0,0.047, ,0,0,0,0,0, ,-37.9,159.6,990.4,-0.8,-0.4,-1.8,25,-0.180977,-0.222414,-0.973998,-0.00243037,0.00949358,-0.00433455
2026_06_10_15_44_44.224,3.757,27,0,0.758,0,0,0,0.048, ,0,0,0,0,0, ,-39.4,156.4,985.4,-0.1,-0.4,-1.7,25,-0.235155,-0.242307,-1.04353,0.00579557,0.00847217,-0.00342977
2026_06_10_15_44_44.243,3.757,27.1,0,0.758,0,0,0,0.047, ,0,0,0,0,0, ,-35.6,159.7,990.1,-1,-0.4,-1.8,25,-0.229118,-0.257579,-1.11186,0.0086852,0.00745909,-0.00255246
2026_06_10_15_44_44.263,3.757,27,0,0.759,0,0,0,0.047, ,0,0,0,0,0, ,-37.5,160.8,988.5,-0.3,-0.4,-1.7,25,-0.175656,-0.162936,-1.09534,0.006486,0.00645894,-0.0017056
2026_06_10_15_44_44.290,3.757,27.1,0,0.758,0,0,0,0.048, ,0,0,0,0,0, ,-37.3,157.9,989.5,-0.8,-0.4,-1.7,25,-0.165637,-0.116272,-1.08895,0.009267,0.00547601,0.00156029
2026_06_10_15_44_44.303,3.757,27,0,0.759,0,0,0,0.047, ,0,0,0,0,0, ,-38,158.4,988.6,-0.8,-0.4,-1.7,25,-0.167555,-0.130175,-1.07506,-0.000394861,0.0045143,0.00465833
2026_06_10_15_44_44.323,3.757,27.1,0,0.757,0,0,0,0.048, ,0,0,0,0,0, ,-36.9,157.3,990.4,-0.6,-0.4,-1.8,25,-0.158743,-0.157467,-1.03448,-0.00467661,0.00357751,0.00512931
2026_06_10_15_44_44.343,3.757,27.1,0,0.759,0,0,0,0.048, ,0,0,0,0,0, ,-38.3,159.7,988.7,-0.9,-0.4,-1.8,25,-0.156938,-0.150766,-0.988335,-0.0111775,0.00266902,0.00309975
2026_06_10_15_44_44.362,3.757,27.1,0,0.756,0,0,0,0.048, ,0,0,0,0,0, ,-36.9,155.3,987.6,-0.6,-0.4,-1.8,25,-0.154449,-0.192695,-1.00825,-0.0173044,0.00179194,0.00115446
2026_06_10_15_44_44.381,3.757,27.1,0,0.759,0,0,0,0.048, ,0,0,0,0,0, ,-37.9,158.9,989.9,-0.9,-0.4,-1.8,25,-0.141511,-0.251234,-0.992786,-0.0230456,0.000949046,-0.000701127
2026_06_10_15_44_44.402,3.757,27.5,0,0.759,0,0,0,0.049, ,0,0,0,0,0, ,-37.8,157.9,987.6,-0.3,-0.4,-1.8,25,-0.15058,-0.241909,-0.973191,-0.0210352,0.00014281,-0.00246225
2026_06_10_15_44_44.422,3.757,27.2,0,0.758,0,0,0,0.046, ,0,0,0,0,0, ,-38.3,160.1,989.5,-1.2,-0.4,-1.8,25,-0.168271,-0.202423,-0.95957,-0.0263762,-0.00062459,-0.00412487
2026_06_10_15_44_44.442,3.757,27.5,0,0.759,0,0,0,0.048, ,0,0,0,0,0, ,-37.8,160,989.7,-0.5,-0.4,-1.8,25,-0.184265,-0.11238,-0.890392,-0.0362295,-0.00135128,-0.00568561
2026_06_10_15_44_44.461,3.757,27.2,0,0.758,0,0,0,0.046, ,0,0,0,0,0, ,-37.7,158.2,988.4,-0.4,-0.4,-1.7,25,-0.183853,-0.07279,-0.847191,-0.0258038,-0.00203566,-0.00468964
2026_06_10_15_44_44.481,3.757,27.5,0,0.758,0,0,0,0.049, ,0,0,0,0,0, ,-37.4,159.4,988,-1,-0.4,-1.8,25,-0.172747,-0.0494965,-0.843621,-0.0280231,-0.00267645,-0.0037194
2026_06_10_15_44_44.501,3.757,27.3,0,0.758,0,0,0,0.047, ,0,0,0,0,0, ,-36.4,157.9,989,-0.6,-0.4,-1.7,25,-0.129456,-0.0344579,-0.821356,-0.0348997,-0.00327263,-0.00277841
2026_06_10_15_44_44.521,3.757,27.6,0,0.759,0,0,0,0.049, ,0,0,0,0,0, ,-38.6,157.3,989.5,-0.5,-0.5,-1.7,25,-0.117076,-0.0714822,-0.759353,-0.0290063,-0.00627559,0.000582278
2026_06_10_15_44_44.540,3.757,27.5,0,0.76,0,0,0,0.047, ,0,0,0,0,0, ,-37.7,158.2,990.6,-0.9,-0.4,-1.7,25,-0.136604,-0.0989819,-0.657415,-0.0306154,-0.00910036,0.00377528
2026_06_10_15_44_44.560,3.757,27.6,0,0.759,0,0,0,0.048, ,0,0,0,0,0, ,-38.8,157.2,988.7,-0.7,-0.4,-1.8,25,-0.159406,-0.127097,-0.576852,-0.036899,-0.00928958,0.00434092
2026_06_10_15_44_44.580,3.757,27.6,0,0.758,0,0,0,0.047, ,0,0,0,0,0, ,-35.7,159.5,991.5,-1,-0.4,-1.8,25,-0.131261,-0.121329,-0.475328,-0.0451448,-0.00942373,0.00240527
2026_06_10_15_44_44.600,3.757,27.6,0,0.759,0,0,0,0.047, ,0,0,0,0,0, ,-36.7,158.2,987.6,0,-0.4,-1.8,25,-0.0523537,-0.0907249,-0.403415,-0.0355986,-0.00950487,0.000552695
2026_06_10_15_44_44.620,3.757,27.7,0,0.761,0,0,0,0.047, ,0,0,0,0,0, ,-36.9,156.3,990.2,-0.9,-0.5,-1.7,25,-0.00648422,-0.139643,-0.364919,-0.023893,-0.0119873,0.00124041
2026_06_10_15_44_44.639,3.757,27.7,0,0.759,0,0,0,0.047, ,0,0,0,0,0, ,-36.9,162.2,987.3,-1.2,-0.4,-1.7,25,0.0322632,-0.0873878,-0.333868,-0.0420696,-0.014289,0.00434045
2026_06_10_15_44_44.659,3.757,27.7,0,0.758,0,0,0,0.047, ,0,0,0,0,0, ,-36.9,159.9,989.8,0,-0.4,-1.8,25,0.0689514,0.0510131,-0.312504,-0.037078,-0.0139552,0.00481489
2026_06_10_15_44_44.679,3.757,27.7,0,0.758,0,0,0,0.047, ,0,0,0,0,0, ,-37.5,156.9,989.1,-1.1,-0.5,-1.8,25,0.0887875,0.0524104,-0.246509,-0.0296963,-0.0160211,0.00279019
2026_06_10_15_44_44.699,3.757,27.8,0,0.758,0,0,0,0.048, ,0,0,0,0,0, ,-37.9,158.4,989.6,-0.5,-0.4,-1.7,25,0.0826916,0.0166984,-0.187441,-0.0347911,-0.0179068,0.00330319
2026_06_10_15_44_44.718,3.757,27.8,0,0.759,0,0,0,0.047, ,0,0,0,0,0, ,-36.6,156.4,989.9,-0.9,-0.5,-1.7,25,0.0985566,-0.0296052,-0.110727,-0.0345602,-0.0196117,0.00622691
2026_06_10_15_44_44.738,3.757,27.7,0,0.759,0,0,0,0.047, ,0,0,0,0,0, ,-38.4,160.4,989.2,-0.7,-0.4,-1.7,25,0.100897,-0.0244489,-0.0470373,-0.0390747,-0.0211364,0.00897655
2026_06_10_15_44_44.759,3.757,27.8,0,0.757,0,0,0,0.048, ,0,0,0,0,0, ,-36.4,156.8,990.3,-0.5,-0.5,-1.8,25,0.10753,-0.00961602,0.0235683,-0.0333665,-0.0224821,0.00909494
2026_06_10_15_44_44.778,3.757,27.9,0,0.76,0,0,0,0.048, ,0,0,0,0,0, ,-36.6,160.2,988.2,-0.9,-0.4,-1.8,25,0.157446,-0.000367489,0.0660734,-0.0326782,-0.0236511,0.00671055
2026_06_10_15_44_44.798,3.757,27.9,0,0.759,0,0,0,0.047, ,0,0,0,0,0, ,-37.4,158.5,989.2,-0.5,-0.3,-1.8,25,0.179617,0.0501159,0.0791951,-0.0318626,-0.0197418,0.00441002
2026_06_10_15_44_44.818,3.757,28,0,0.759,0,0,0,0.047, ,0,0,0,0,0, ,-38.3,159,990.3,-0.9,-0.4,-1.9,25,0.158128,0.0684506,0.142778,-0.03093,-0.0159269,-0.000251577
2026_06_10_15_44_44.837,3.757,28,0,0.759,0,0,0,0.047, ,0,0,0,0,0, ,-38.8,158.3,987.7,-0.4,-0.4,-1.8,25,0.102584,0.0806446,0.165756,-0.0274385,-0.0146728,-0.00468331
2026_06_10_15_44_44.857,3.757,28,0,0.759,0,0,0,0.047, ,0,0,0,0,0, ,-36.3,157.7,990.9,-0.8,-0.5,-1.8,25,0.0983018,0.0599649,0.201504,-0.0215308,-0.0158601,-0.00642246
2026_06_10_15_44_44.877,3.757,28.1,0,0.759,0,0,0,0.047, ,0,0,0,0,0, ,-36.8,159.4,988.2,-0.8,-0.4,-1.7,25,0.142788,0.0669774,0.246767,-0.0256154,-0.016911,-0.00559251
2026_06_10_15_44_44.897,3.757,28.1,0,0.759,0,0,0,0.047, ,0,0,0,0,0, ,-37.7,157.7,990.2,-0.7,-0.5,-1.9,25,0.150059,0.0733159,0.271429,-0.0269213,-0.017827,-0.00722786
2026_06_10_15_44_44.917,3.757,28.1,0,0.76,0,0,0,0.047, ,0,0,0,0,0, ,-37.7,158.2,989.6,-0.7,-0.4,-1.7,25,0.134164,0.0495564,0.327872,-0.0255783,-0.0186102,-0.00874738
2026_06_10_15_44_44.937,3.757,28.2,0,0.758,0,0,0,0.047, ,0,0,0,0,0, ,-37.1,158.3,987.9,-0.5,-0.4,-1.8,25,0.1331,0.041431,0.323533,-0.0192708,-0.0168111,-0.00769711
2026_06_10_15_44_44.957,3.757,28.2,0,0.758,0,0,0,0.046, ,0,0,0,0,0, ,-37.9,160.4,987.9,-0.9,-0.4,-1.8,25,0.126529,0.0874474,0.276126,-0.018082,-0.0150174,-0.00911258
2026_06_10_15_44_44.977,3.757,28.3,0,0.758,0,0,0,0.046, ,0,0,0,0,0, ,-36.4,159.3,987.7,-0.7,-0.4,-1.8,25,0.136821,0.155298,0.224778,-0.0217667,-0.0132377,-0.0104137
2026_06_10_15_44_44.996,3.757,28.2,0,0.759,0,0,0,0.046, ,0,0,0,0,0, ,-36.8,159.1,989.2,-0.7,-0.4,-1.7,25,0.172907,0.187177,0.206719,-0.0202591,-0.01148,-0.00914756
2026_06_10_15_44_45.016,3.757,28.3,0,0.76,0,0,0,0.047, ,0,0,0,0,0, ,-37.7,159,989,-0.7,-0.5,-1.8,25,0.174494,0.209214,0.220405,-0.0187256,-0.0122041,-0.00789842
2026_06_10_15_44_45.035,3.757,28.3,0,0.759,0,0,0,0.046, ,0,0,0,0,0, ,-38.4,159.4,990.2,-0.5,-0.5,-1.7,25,0.135909,0.236495,0.256855,-0.0122707,-0.0152847,-0.00667161
2026_06_10_15_44_45.056,3.757,28.3,0,0.76,0,0,0,0.046, ,0,0,0,0,0, ,-37.4,158.5,988.5,-0.7,-0.4,-1.8,25,0.105902,0.249013,0.27799,-0.00607184,-0.0156868,-0.00547209
2026_06_10_15_44_45.075,3.757,28.3,0,0.758,0,0,0,0.047, ,0,0,0,0,0, ,-38,160.6,989.6,-0.8,-0.4,-1.8,25,0.0866538,0.289115,0.282005,-0.0075036,-0.0135396,-0.0067566
2026_06_10_15_44_45.095,3.757,28.4,0,0.759,0,0,0,0.047, ,0,0,0,0,0, ,-38,159.6,990.7,0.6,-0.4,-1.7,25,0.0532096,0.352799,0.338381,0.0230499,-0.011431,-0.00549264
2026_06_10_15_44_45.114,3.757,28.4,0,0.758,0,0,0,0.046, ,0,0,0,0,0, ,-36.4,148.3,988.2,-3.1,-0.4,-1.9,25,0.0603779,0.110006,0.355996,-0.00440827,-0.00936952,-0.00671577
2026_06_10_15_44_45.134,3.757,28.4,0,0.759,0,0,0,0.046, ,0,0,0,0,0, ,-38.4,172.7,989,-0.8,-0.4,-1.7,25,0.0570885,0.199811,0.329305,-0.0648284,-0.00736294,-0.00784582
2026_06_10_15_44_45.154,3.757,28.4,0,0.758,0,0,0,0.046, ,0,0,0,0,0, ,-36.8,151.3,989.1,1.3,-0.4,-1.7,25,0.0438704,0.357791,0.324368,-0.0140707,-0.00541849,-0.00397745
2026_06_10_15_44_45.174,3.757,28.5,0,0.76,0,0,0,0.047, ,0,0,0,0,0, ,-39.5,156.3,988.1,-2.7,-0.5,-1.9,25,0.00411062,0.104106,0.296005,-0.012324,-0.00599485,-0.00518353
2026_06_10_15_44_45.194,3.757,28.6,0,0.759,0,0,0,0.046, ,0,0,0,0,0, ,-38.2,165.8,986.9,-0.2,-0.4,-1.8,25,-0.0680497,0.217913,0.213628,-0.0473847,-0.00651341,-0.00875706
2026_06_10_15_44_45.214,3.757,28.6,0,0.758,0,0,0,0.045, ,0,0,0,0,0, ,-37.8,153.5,989.7,0.3,-0.4,-1.8,25,-0.094649,0.256404,0.173474,-0.0069276,-0.00452227,-0.00966002
2026_06_10_15_44_45.234,3.757,28.6,0,0.759,0,0,0,0.045, ,0,0,0,0,0, ,-37.4,156.9,990.8,-2,-0.5,-1.8,25,-0.09986,0.0735014,0.230068,-0.0125594,-0.00505866,-0.0104711
2026_06_10_15_44_45.254,3.757,28.7,0,0.759,0,0,0,0.045, ,0,0,0,0,0, ,-80.5,168.8,982.6,10.4,1,6,25,-1.1514,0.274387,0.108647,0.229815,0.0287864,0.180078
2026_06_10_15_44_45.279,3.757,28.7,0,0.76,0,0,0,0.045, ,0,0,0,0,0, ,-288,134.3,987.9,18.4,2,10.3,25,-8.2908,-0.0901197,-0.0784654,0.959411,0.122134,0.657106
2026_06_10_15_44_45.294,3.757,28.7,0,0.759,0,0,0,0.045, ,0,0,0,0,0, ,-307.9,74,1007.3,4.5,1.6,10.8,25,-20.6154,-2.76095,0.349669,1.50382,0.225014,1.2252
2026_06_10_15_44_45.313,3.757,28.7,0,0.759,0,0,0,0.045, ,0,0,0,0,0, ,-293,197.6,962.8,-16.1,-3,-12.6,25,-32.3566,-3.73498,0.13959,1.16812,0.199132,1.19786
2026_06_10_15_44_45.332,3.757,28.7,0,0.758,0,0,0,0.045, ,0,0,0,0,0, ,-83.1,259.1,974.4,-21.5,-6.1,-34.2,25,-37.8501,-0.103876,-0.867634,0.205569,-0.0152786,0.0624763
2026_06_10_15_44_45.353,3.757,28.8,0,0.758,0,0,0,0.045, ,0,0,0,0,0, ,-126.4,180.4,983.6,3.8,-8.8,-53.6,25,-38.8023,2.92789,-1.31114,-0.22281,-0.361324,-2.02292
2026_06_10_15_44_45.372,3.757,28.8,0,0.76,0,0,0,0.045, ,0,0,0,0,0, ,58.4,243.5,974.4,4.1,-10.7,-63.9,25,-36.0467,5.41399,-1.72642,-0.00132891,-0.801417,-4.72436
2026_06_10_15_44_45.392,3.757,28.8,0,0.759,0,0,0,0.045, ,0,0,0,0,0, ,107.4,170.2,986.8,20,-10.3,-63.6,25,-27.5155,7.50137,-2.03437,0.606547,-1.25276,-7.51524
2026_06_10_15_44_45.412,3.757,28.9,0,0.76,0,0,0,0.045, ,0,0,0,0,0, ,123.1,177.9,987.3,9.1,-9.2,-54.4,25,-17.6806,7.84079,-2.00086,1.30423,-1.63901,-9.89926
2026_06_10_15_44_45.434,3.757,29.1,0,0.76,0,0,0,0.044, ,0,0,0,0,0, ,69.4,72.7,1020.3,30.3,-19.4,-108.4,25,-9.17262,5.73407,-1.13765,2.21384,-2.22139,-13.2161
2026_06_10_15_44_45.452,3.757,29.1,0,0.759,0,0,0,0.043, ,0,0,0,0,0, ,-57.6,159,967.7,-41.8,-19.7,-108.9,25,-5.46779,3.23895,-0.7918,1.81978,-3.02173,-17.6416
2026_06_10_15_44_45.472,3.757,29.1,0,0.76,0,0,0,0.043, ,0,0,0,0,0, ,120.7,127.6,998.1,38.9,-13.3,-76.8,25,-0.659757,2.19647,-1.00339,1.64696,-3.61835,-20.9883
2026_06_10_15_44_45.491,3.757,29.2,0,0.759,0,0,0,0.043, ,0,0,0,0,0, ,121.7,332.6,966.7,2.5,-8.5,-46.9,25,8.31245,5.45124,-1.22417,2.56081,-3.89323,-22.547
2026_06_10_15_44_45.511,3.757,29.1,0,0.759,0,0,0,0.042, ,0,0,0,0,0, ,48.4,211.6,984,-13.9,-3.7,-17.9,25,15.0308,10.5793,-1.77385,2.12248,-3.90004,-22.4739
2026_06_10_15_44_45.532,3.757,29.1,0,0.759,0,0,0,0.043, ,0,0,0,0,0, ,65.1,126.3,1000.1,-32.1,-4.4,-22.5,25,19.9576,10.345,-1.46881,0.846742,-3.78676,-21.6952
2026_06_10_15_44_45.551,3.757,29.3,0,0.761,0,0,0,0.043, ,0,0,0,0,0, ,46.5,151.9,991.2,-38.5,-4.8,-25.5,25,24.4978,8.60722,-0.994935,-0.973837,-3.68734,-21.0342
2026_06_10_15_44_45.571,3.757,29.2,0,0.759,0,0,0,0.042, ,0,0,0,0,0, ,-64.3,277.8,977.1,26.8,-1.9,-14.6,25,25.5216,10.6273,-1.10339,-1.25601,-3.51332,-20.1082
2026_06_10_15_44_45.590,3.757,29.2,0,0.759,0,0,0,0.042, ,0,0,0,0,0, ,-221.5,333.7,961.6,9.2,-0.6,-3.5,25,19.7975,16.9539,-1.92693,-0.348467,-3.22754,-18.5891
2026_06_10_15_44_45.610,3.757,29.4,0,0.759,0,0,0,0.043, ,0,0,0,0,0, ,-132.6,141.4,992.6,17.4,1.6,10.2,25,12.5818,19.542,-2.32051,0.285778,-2.85403,-16.4447
2026_06_10_15_44_45.630,3.757,29.3,0,0.759,0,0,0,0.041, ,0,0,0,0,0, ,-15.9,139.5,995.6,12.2,-0.5,-3.5,25,10.6997,17.1447,-1.8496,0.961074,-2.48233,-14.3244
2026_06_10_15_44_45.650,3.757,29.3,0,0.759,0,0,0,0.042, ,0,0,0,0,0, ,-60.3,123.5,997.8,11.6,2.3,14.4,25,10.63,14.3416,-1.26517,1.45629,-2.09945,-12.1345
2026_06_10_15_44_45.670,3.757,29.3,0,0.759,0,0,0,0.042, ,0,0,0,0,0, ,-41,211.6,982.9,-18.2,6.5,42.6,25,9.89582,13.3732,-1.01458,1.17458,-1.55336,-8.86182
2026_06_10_15_44_45.690,3.757,29.4,0,0.759,0,0,0,0.042, ,0,0,0,0,0, ,-96.4,117.1,995.9,-38.2,3.6,28.8,25,8.26367,12.2296,-0.817879,-0.32027,-0.994515,-5.35283
2026_06_10_15_44_45.709,3.757,29.4,0,0.76,0,0,0,0.041, ,0,0,0,0,0, ,-13,199.3,993.2,-26.8,0.3,6.2,25,7.35744,10.7801,-0.374218,-1.95112,-0.61021,-2.88213
2026_06_10_15_44_45.733,3.757,29.5,0,0.76,0,0,0,0.041, ,0,0,0,0,0, ,-39.6,144.5,992.9,-32.7,-1,-2.3,25,7.85223,10.0205,-0.0240361,-3.3575,-0.354545,-1.28102
2026_06_10_15_44_45.749,3.757,29.5,0,0.76,0,0,0,0.041, ,0,0,0,0,0, ,-150.7,200.4,981,-3.2,-1.8,-12.9,25,4.90743,9.27567,0.00992619,-4.09965,-0.161167,-0.220481
2026_06_10_15_44_45.770,3.757,29.4,0,0.759,0,0,0,0.041, ,0,0,0,0,0, ,-25.2,122,994.6,-10.6,-4,-28.3,25,2.43598,7.96996,0.0838595,-4.24328,-0.0500426,0.151568
2026_06_10_15_44_45.789,3.757,29.5,0,0.759,0,0,0,0.042, ,0,0,0,0,0, ,-82,78.2,995.1,1.2,-2.1,-13.3,25,1.75837,3.69247,0.499508,-4.25105,0.0485217,0.494815
2026_06_10_15_44_45.808,3.757,29.5,0,0.759,0,0,0,0.041, ,0,0,0,0,0, ,-71.8,148,988.7,3.1,-2.2,-23.9,25,-0.0373885,0.244126,0.747633,-3.90154,0.186152,0.926685
2026_06_10_15_44_45.828,3.757,29.6,0,0.76,0,0,0,0.041, ,0,0,0,0,0, ,12.6,124.6,993.4,3.5,-3,-39.9,25,0.574854,-1.8985,0.938219,-3.49355,0.294045,0.680532
2026_06_10_15_44_45.848,3.757,29.7,0,0.76,0,0,0,0.04, ,0,0,0,0,0, ,11.3,177.6,1011.1,4.9,-2.5,-40.5,25,3.19198,-3.20085,1.66412,-3.04421,0.387842,0.0360395
2026_06_10_15_44_45.868,3.757,29.5,0,0.76,0,0,0,0.039, ,0,0,0,0,0, ,-128.7,202.2,1033.9,-1.1,12.9,-72.4,25,2.20013,-2.52068,3.33934,-2.71471,0.86502,-1.37398
2026_06_10_15_44_45.888,3.757,29.6,0,0.76,0,0,0,0.041, ,0,0,0,0,0, ,20.7,147.4,994.9,-14.5,10.2,-79.4,25,1.47657,-2.60199,4.5187,-2.8637,1.62596,-3.66196
2026_06_10_15_44_45.907,3.757,29.7,0,0.759,0,0,0,0.04, ,0,0,0,0,0, ,94.8,17.8,1099.3,-35.2,11.8,-59.4,25,6.26181,-7.18828,7.22166,-3.82746,2.31459,-5.5009
2026_06_10_15_44_45.928,3.757,29.7,0,0.759,0,0,0,0.039, ,0,0,0,0,0, ,15.7,122.6,1135,-33.8,32.1,-41.4,25,10.6589,-12.1223,13.1919,-5.19836,3.49506,-6.29073
2026_06_10_15_44_45.948,3.757,29.7,0,0.76,0,0,0,0.039, ,0,0,0,0,0, ,-61.2,99.9,992.1,-19.3,41.9,-38,25,10.9624,-14.7415,16.1757,-6.08652,5.33852,-6.48605
2026_06_10_15_44_45.967,3.757,29.7,0,0.759,0,0,0,0.039, ,0,0,0,0,0, ,-124.2,176.3,988.8,-25.2,41.6,-51.3,25,7.76648,-15.8427,15.3483,-6.69023,7.29821,-6.8826
2026_06_10_15_44_45.988,3.757,29.7,0,0.759,0,0,0,0.04, ,0,0,0,0,0, ,-113.6,3,935.5,-12.8,31.5,-70.2,25,3.40406,-19.188,13.098,-7.07198,8.87081,-8.01537
2026_06_10_15_44_46.007,3.757,29.8,0,0.761,0,0,0,0.04, ,0,0,0,0,0, ,-91,-54.9,1045.8,-28.4,28.2,-21.8,25,0.0529279,-27.944,12.2912,-7.47861,9.99396,-8.3297
2026_06_10_15_44_46.030,3.757,29.8,0,0.76,0,0,0,0.039, ,0,0,0,0,0, ,-116.6,83.3,1127.8,-57.8,12.3,-2.4,25,-3.20768,-34.1638,16.1789,-8.93193,10.542,-6.92499
2026_06_10_15_44_46.047,3.757,29.8,0,0.761,0,0,0,0.039, ,0,0,0,0,0, ,-157.4,128.4,1052,-53,1.1,-6.4,25,-7.9208,-35.4154,19.9482,-10.8732,10.3466,-5.17742
2026_06_10_15_44_46.066,3.757,29.9,0,0.76,0,0,0,0.039, ,0,0,0,0,0, ,-211.4,71.6,933.7,-29.7,0.4,-30.3,25,-14.6884,-36.718,18.6748,-11.9766,9.81804,-4.17419
2026_06_10_15_44_46.087,3.757,29.9,0,0.759,0,0,0,0.038, ,0,0,0,0,0, ,-138,-18,968.9,-19.3,-5.6,-25.7,25,-20.576,-41.3657,15.3339,-12.1405,9.10271,-3.67286
2026_06_10_15_44_46.106,3.757,29.9,0,0.76,0,0,0,0.038, ,0,0,0,0,0, ,-134,-13.6,1041.7,-20.7,-20.6,-30.7,25,-24.1754,-47.6708,14.7297,-12.0158,7.86264,-3.18782
2026_06_10_15_44_46.126,3.757,29.9,0,0.76,0,0,0,0.038, ,0,0,0,0,0, ,-128.9,-113,976.4,-31.7,-36.7,-22.1,25,-27.256,-55.7614,14.2665,-12.1421,5.88202,-2.62258
2026_06_10_15_44_46.146,3.757,30,0,0.761,0,0,0,0.038, ,0,0,0,0,0, ,-181.7,-157.7,952.5,-52.3,-42.6,7,25,-31.221,-66.7139,11.5683,-12.9772,3.43007,-1.14768
2026_06_10_15_44_46.166,3.757,30,0,0.76,0,0,0,0.037, ,0,0,0,0,0, ,-147,-26.9,1015,-54.1,-34.5,18.6,25,-35.2814,-74.6891,9.89202,-14.2567,1.13542,1.25858
2026_06_10_15_44_46.186,3.757,30.1,0,0.76,0,0,0,0, ,0,0,0,0,0, ,-257,-76.7,977.5,-50.8,-20.2,-10.5,25,-40.8153,-79.9189,8.86221,-15.3664,-0.503008,3.1115
2026_06_10_15_44_46.206,3.757,30.1,0,0.76,0,0,0,0, ,0,0,0,0,0, ,-108.6,-117.7,1116.9,-45.5,-44,-31.1,25,-44.935,-86.7249,10.338,-16.1351,-2.29156,3.63948
2026_06_10_15_44_46.225,3.757,30.1,0,0.76,0,0,0,0, ,0,0,0,0,0, ,-113.1,-101,1022,-70,-116.2,-38.8,25,-45.1025,-93.3656,12.7816,-17.2574,-6.33517,3.42968
2026_06_10_15_44_46.245,3.757,30.1,0,0.759,0,0,0,0, ,0,0,0,0,0, ,-8,-171.6,860.2,-51.5,-186.7,-25.9,25,-42.5727,-100.542,8.74775,-18.3867,-13.6485,3.34077
2026_06_10_15_44_46.265,3.757,30.1,0,0.76,0,0,0,0, ,0,0,0,0,0, ,316.8,-187,831.1,-16.1,-245.9,11.6,25,-29.4153,-108.98,0.187417,-18.0483,-23.7163,4.47565
2026_06_10_15_44_46.285,3.757,30.1,0,0.759,0,0,0,0, ,0,0,0,0,0, ,375.2,-249.3,833.2,24,-250.1,54.4,25,-7.36158,-118.373,-8.6161,-15.7861,-34.7282,7.5019
2026_06_10_15_44_46.305,3.757,30.1,0,0.76,0,0,0,0, ,0,0,0,0,0, ,191.2,-103.6,926.6,85.6,-250.1,111.6,25,10.567,-124.676,-14.6036,-11.0633,-45.1318,12.7949
2026_06_10_15_44_46.330,3.757,30.1,0,0.759,0,0,0,0, ,0,0,0,0,0, ,510.3,68.7,1938.9,91.3,-165.6,128.1,25,30.877,-122.258,6.8881,-4.86725,-52.7308,19.5725
2026_06_10_15_44_46.344,3.757,30.2,0,0.756,0,0,0,0, ,0,0,0,0,0, ,378.1,-7.9,1100.8,9.1,-122.9,111,25,54.6219,-117.009,31.5635,-0.826997,-56.578,25.9066
2026_06_10_15_44_46.364,3.757,30.2,0,0.76,0,0,0,0, ,0,0,0,0,0, ,573.8,-48.4,1002.5,10.5,-63.1,81.8,25,78.4902,-114.312,31.9111,1.03784,-57.4442,30.667
2026_06_10_15_44_46.384,3.757,30.2,0,0.759,0,0,0,0, ,0,0,0,0,0, ,556.6,-150.6,1005,-48.6,2.6,45.2,25,105.178,-114.684,29.7352,1.39121,-54.9074,33.4292
2026_06_10_15_44_46.404,3.757,30.3,0,0.76,0,0,0,0, ,0,0,0,0,0, ,390.3,-125.2,1010.9,-41.4,38.3,45.8,25,125.539,-116.355,27.7255,0.447716,-49.738,35.0085
2026_06_10_15_44_46.424,3.757,30.2,0,0.759,0,0,0,0, ,0,0,0,0,0, ,392.3,-63.7,984,-55.8,44.5,39.6,25,140.254,-115.24,25.1628,-0.628265,-43.5494,36.2005
2026_06_10_15_44_46.443,3.757,30.2,0,0.76,0,0,0,0, ,0,0,0,0,0, ,460.9,-139.1,930.6,-76.7,30.1,13.8,25,155.288,-113.953,20.6326,-2.51399,-37.6509,36.3709
2026_06_10_15_44_46.463,3.757,30.3,0,0.759,0,0,0,0, ,0,0,0,0,0, ,485.3,-232.2,829.9,-85.4,4.7,5.6,25,171.099,-116.299,12.4442,-5.02069,-32.832,35.5199
2026_06_10_15_44_46.489,3.757,30.2,0,0.759,0,0,0,0, ,0,0,0,0,0, ,398.5,-265,719.9,-71.8,-42.6,1.1,25,183.761,-121.044,-0.570701,-7.25955,-29.8703,34.2242
2026_06_10_15_44_46.503,3.757,30.3,0,0.759,0,0,0,0, ,0,0,0,0,0, ,312.2,-94.1,682.7,-60.4,-109.8,-16.8,25,190.652,-121.574,-16.5541,-8.73979,-29.7145,32.2742
2026_06_10_15_44_46.523,3.757,30.3,0,0.76,0,0,0,0, ,0,0,0,0,0, ,468.6,-246.4,790.6,-26.4,-158.1,-57.1,25,197.985,-121.022,-29.9383,-8.99108,-32.2521,28.8335
2026_06_10_15_44_46.542,3.757,30.3,0,0.76,0,0,0,0, ,0,0,0,0,0, ,563.2,-204.2,792.3,-5.7,-150.4,-46.7,25,210.137,-122.601,-39.831,-7.84441,-35.5018,24.6863
2026_06_10_15_44_46.562,3.757,30.3,0,0.759,0,0,0,0, ,0,0,0,0,0, ,609.6,-237,635.2,7.8,-180.8,-54.4,25,224.115,-123.267,-52.8529,-5.87667,-38.9739,20.687
2026_06_10_15_44_46.582,3.757,30.2,0,0.76,0,0,0,0, ,0,0,0,0,0, ,657.7,-208.8,672.7,20.9,-216.3,-64.5,25,238.62,-123.406,-67.9085,-3.32421,-43.6996,16.3454
2026_06_10_15_44_46.602,3.757,30.2,0,0.76,0,0,0,0, ,0,0,0,0,0, ,709.5,-192.7,662.3,33.1,-231.4,-59.1,25,253.688,-121.844,-81.2265,-0.260139,-49.2189,12.021
2026_06_10_15_44_46.622,3.757,30.3,0,0.759,0,0,0,0, ,0,0,0,0,0, ,742.4,-193.6,601.6,40.7,-250.1,-76.6,25,268.843,-119.386,-95.2345,3.14047,-55.0538,7.55266
2026_06_10_15_44_46.648,3.757,30.3,0,0.759,0,0,0,0, ,0,0,0,0,0, ,762,-239.8,636.7,41.3,-250.1,-114.9,25,283.218,-117.614,-108.714,6.55989,-60.7898,1.89794
2026_06_10_15_44_46.661,3.757,30.3,0,0.76,0,0,0,0, ,0,0,0,0,0, ,768.9,-264.1,594.6,36.5,-250.1,-104.8,25,296.141,-117.079,-121.168,9.6763,-65.9449,-4.18031
2026_06_10_15_44_46.682,3.757,30.2,0,0.759,0,0,0,0, ,0,0,0,0,0, ,776,-200.8,446,25.1,-244.1,-78.4,25,307.315,-115.036,-137.091,12.1949,-70.3751,-9.04482
2026_06_10_15_44_46.701,3.757,30.4,0,0.759,0,0,0,0, ,0,0,0,0,0, ,767.2,-95.4,334.3,19.4,-177.7,-47.7,25,316.384,-108.39,-157.94,14.1106,-72.4657,-12.226
2026_06_10_15_44_46.721,3.757,30.4,0,0.76,0,0,0,0, ,0,0,0,0,0, ,787.9,-77.1,219.9,7,-100,-18.7,25,323.742,-98.502,-182.532,15.419,-70.5632,-13.727
2026_06_10_15_44_46.741,3.757,30.4,0,0.759,0,0,0,0, ,0,0,0,0,0, ,866.2,-2.1,118.5,-13.2,-43.1,-6.9,25,331.57,-86.3259,-210.311,15.7878,-65.1056,-14.0862
2026_06_10_15_44_46.760,3.757,30.5,0,0.76,0,0,0,0, ,0,0,0,0,0, ,930.7,14.1,97.5,-18.3,-18.3,-3.8,25,340.882,-72.0852,-238.692,15.4403,-57.5914,-13.993
2026_06_10_15_44_46.780,3.757,30.3,0,0.758,0,0,0,0, ,0,0,0,0,0, ,962.1,-10.1,111.8,-14.7,-8.9,-0.1,25,350.41,-58.3838,-264.669,14.997,-49.3232,-13.6687
2026_06_10_15_44_46.800,3.757,30.3,0,0.761,0,0,0,0, ,0,0,0,0,0, ,963,-31.3,137.4,-12.8,-2.6,1.7,25,358.535,-46.1798,-287.09,14.6363,-40.8325,-13.158
2026_06_10_15_44_46.819,3.757,30.4,0,0.759,0,0,0,0, ,0,0,0,0,0, ,958.7,-21.9,128.7,-12.1,18.9,8.5,25,364.411,-34.6362,-306.581,14.285,-31.8752,-12.3967
2026_06_10_15_44_46.840,3.757,30.4,0,0.759,0,0,0,0, ,0,0,0,0,0, ,964.8,-5.8,115.4,-13,36.2,13.2,25,368.247,-22.8627,-324.145,13.8756,-22.2487,-11.3296
2026_06_10_15_44_46.859,3.757,30.3,0,0.758,0,0,0,0, ,0,0,0,0,0, ,951.4,-21.8,139.2,-15.6,45.7,14.3,25,369.901,-11.5515,-338.993,13.3321,-12.3275,-10.1168
2026_06_10_15_44_46.879,3.757,30.4,0,0.759,0,0,0,0, ,0,0,0,0,0, ,948.6,-42.2,204.2,-12.6,41.3,6.9,25,369.254,-1.63072,-349.265,12.7593,-2.70707,-9.06809
2026_06_10_15_44_46.899,3.757,30.4,0,0.76,0,0,0,0, ,0,0,0,0,0, ,987,-53.7,236.2,-12,29,4.6,25,367.692,7.02933,-354.933,12.2401,6.0454,-8.26398
2026_06_10_15_44_46.918,3.757,30.4,0,0.761,0,0,0,0, ,0,0,0,0,0, ,961.7,-50.5,252.4,-4.9,10.7,-0.5,25,364.716,15.0265,-357.392,11.8748,13.5885,-7.64004
2026_06_10_15_44_46.938,3.757,30.3,0,0.76,0,0,0,0, ,0,0,0,0,0, ,969.2,-41.8,263.1,-1.4,-6,-8.6,25,359.652,22.8492,-357.309,11.7288,19.8364,-7.33274
2026_06_10_15_44_46.958,3.757,30.3,0,0.759,0,0,0,0, ,0,0,0,0,0, ,977.2,-72.9,292.9,-1.6,-21.2,-11.2,25,353.443,29.6264,-354.476,11.6131,24.8978,-7.26674
2026_06_10_15_44_46.978,3.757,30.4,0,0.76,0,0,0,0, ,0,0,0,0,0, ,958.3,-79.5,296.1,-0.8,-14.6,-6.2,25,345.53,35.0007,-349.226,11.4605,29.3775,-7.10932
2026_06_10_15_44_46.998,3.757,30.4,0,0.759,0,0,0,0, ,0,0,0,0,0, ,956.5,-67.7,264.2,-4.8,-3.4,-0.8,25,335.795,40.0665,-343.216,11.1805,33.9292,-6.66956
2026_06_10_15_44_47.018,3.757,30.4,0,0.759,0,0,0,0, ,0,0,0,0,0, ,964.5,-49,216.4,-10.7,2,3.3,25,325.034,45.4343,-337.764,10.6163,38.4975,-5.98554
2026_06_10_15_44_47.037,3.757,30.3,0,0.76,0,0,0,0, ,0,0,0,0,0, ,954.8,-42.2,207.7,-6.1,1.3,-1.7,25,313.157,50.9402,-332.3,9.99563,42.7672,-5.32764
2026_06_10_15_44_47.058,3.757,30.4,0,0.76,0,0,0,0, ,0,0,0,0,0, ,939.9,-51.8,243,-3.4,-5.4,-8.3,25,299.717,55.8563,-324.814,9.53513,46.4354,-4.9602
2026_06_10_15_44_47.077,3.757,30.3,0,0.759,0,0,0,0, ,0,0,0,0,0, ,988.8,-84.9,270.8,-3.2,0.3,-5.7,25,286.292,59.2091,-314.547,9.12133,49.6702,-4.68442
2026_06_10_15_44_47.097,3.757,30.5,0,0.76,0,0,0,0, ,0,0,0,0,0, ,1000.3,-78.1,259,-6.4,9.6,3.1,25,273.595,61.4606,-302.841,8.60931,52.8695,-4.11953
2026_06_10_15_44_47.117,3.757,30.4,0,0.759,0,0,0,0, ,0,0,0,0,0, ,971,-54.4,246.7,-8.9,17.9,7.8,25,259.737,64.0468,-290.808,7.9402,56.0829,-3.23101
2026_06_10_15_44_47.137,3.757,30.3,0,0.759,0,0,0,0, ,0,0,0,0,0, ,953.2,-71.5,252,-12.4,25.2,6.3,25,244.123,66.3523,-278.103,7.11765,59.2448,-2.29166
2026_06_10_15_44_47.156,3.757,30.4,0,0.76,0,0,0,0, ,0,0,0,0,0, ,967.5,-75.4,268,-13.2,34.4,9.9,25,227.986,67.7028,-264.129,6.19491,62.3643,-1.3356
2026_06_10_15_44_47.176,3.757,30.4,0,0.759,0,0,0,0, ,0,0,0,0,0, ,968.2,-67.5,266.7,-12,45,20.1,25,211.885,68.7515,-249.178,5.29671,65.509,-0.0814437
2026_06_10_15_44_47.197,3.757,30.4,0,0.76,0,0,0,0, ,0,0,0,0,0, ,917.1,-62.8,284.1,-11,48.2,14.1,25,194.293,69.719,-233.337,4.4704,68.515,1.2146
2026_06_10_15_44_47.216,3.757,30.4,0,0.759,0,0,0,0, ,0,0,0,0,0, ,926,-123.4,318.8,-7.5,56,9.4,25,175.571,68.9246,-215.845,3.77293,71.3056,2.17871
2026_06_10_15_44_47.236,3.757,30.4,0,0.759,0,0,0,0, ,0,0,0,0,0, ,950.3,-113.8,312.3,-19,62.5,10.6,25,157.717,66.5789,-197.456,2.89491,73.9587,2.99897
2026_06_10_15_44_47.256,3.757,30.3,0,0.76,0,0,0,0, ,0,0,0,0,0, ,896.7,-150.8,267.4,-10.6,55.8,12.9,25,139.243,63.3482,-180.257,1.96965,76.1122,3.85006
2026_06_10_15_44_47.276,3.757,30.3,0,0.759,0,0,0,0, ,0,0,0,0,0, ,929.1,-158.9,330.8,0.9,39.7,34.9,25,120.468,58.8578,-162.558,1.56805,77.2259,5.2363
2026_06_10_15_44_47.295,3.757,30.5,0,0.758,0,0,0,0, ,0,0,0,0,0, ,903.4,-147.2,405,5.6,46.2,45.8,25,102.185,54.3859,-141.553,1.57567,77.669,7.33551
2026_06_10_15_44_47.315,3.757,30.4,0,0.759,0,0,0,0, ,0,0,0,0,0, ,895.5,-136.8,405.5,1.7,60.1,45.7,25,83.4708,50.4072,-119.048,1.59477,78.2079,9.56046
2026_06_10_15_44_47.335,3.757,30.4,0,0.759,0,0,0,0, ,0,0,0,0,0, ,898.6,-182.9,394.7,-2.8,61,45.7,25,65.1454,45.4998,-97.3128,1.39908,78.6978,11.6267
2026_06_10_15_44_47.355,3.757,30.4,0,0.758,0,0,0,0, ,0,0,0,0,0, ,906.6,-213.7,488.8,-5.5,57.3,58.5,25,47.67,38.7231,-74.1213,1.02955,78.7071,13.8482
2026_06_10_15_44_47.374,3.757,30.3,0,0.759,0,0,0,0, ,0,0,0,0,0, ,905.1,-176.1,567.7,-7.5,76.3,64.7,25,30.976,32.2546,-47.4597,0.55781,78.7033,16.3584
2026_06_10_15_44_47.394,3.757,30.4,0,0.76,0,0,0,0, ,0,0,0,0,0, ,846.9,-145.1,509.7,-12.5,84.3,48.2,25,13.4842,27.6267,-21.3593,-0.0651932,78.9739,18.4123
2026_06_10_15_44_47.414,3.757,30.4,0,0.759,0,0,0,0, ,0,0,0,0,0, ,829.9,-196.2,482.1,-11.4,78,30.9,25,-5.06022,22.5966,1.46735,-0.752955,78.8837,19.4459
2026_06_10_15_44_47.434,3.757,30.3,0,0.759,0,0,0,0, ,0,0,0,0,0, ,839.1,-246.9,473.1,-8.6,67.7,28.3,25,-22.8615,15.2056,22.2697,-1.30764,78.0021,19.845
2026_06_10_15_44_47.456,3.757,30.4,0,0.76,0,0,0,0, ,0,0,0,0,0, ,801.8,-266.9,477.1,-1.6,51.3,36.3,25,-40.3662,6.36843,41.8195,-1.58837,76.1246,20.2592
2026_06_10_15_44_47.474,3.757,30.4,0,0.76,0,0,0,0, ,0,0,0,0,0, ,767.9,-228.7,507.6,3,45.2,37.2,25,-58.5593,-1.62041,61.0505,-1.56305,73.4123,20.7714
2026_06_10_15_44_47.494,3.757,30.3,0,0.762,0,0,0,0, ,0,0,0,0,0, ,759.2,-173.4,516.2,7.8,62.2,37.2,25,-76.6163,-6.9167,79.9962,-1.30076,70.7385,21.1782
2026_06_10_15_44_47.513,3.757,30.3,0,0.76,0,0,0,0, ,0,0,0,0,0, ,737.1,-203.1,529.5,8.1,80.4,34.4,25,-94.1653,-11.2914,98.1555,-0.919873,68.7104,21.392
2026_06_10_15_44_47.533,3.757,30.4,0,0.759,0,0,0,0, ,0,0,0,0,0, ,748.1,-255.8,553.4,7.5,77.9,25.2,25,-110.662,-17.4165,115.853,-0.560485,66.828,21.1957
2026_06_10_15_44_47.553,3.757,30.4,0,0.759,0,0,0,0, ,0,0,0,0,0, ,737.3,-279.7,559.3,5.1,69.1,20,25,-125.799,-25.0337,132.842,-0.289525,64.4316,20.5514
2026_06_10_15_44_47.573,3.757,30.4,0,0.758,0,0,0,0, ,0,0,0,0,0, ,698.7,-295.8,592.7,6.9,48.2,15.9,25,-140.785,-33.1348,149.307,-0.0451395,61.1069,19.6094
2026_06_10_15_44_47.593,3.757,30.4,0,0.759,0,0,0,0, ,0,0,0,0,0, ,651,-281.3,676.1,21.9,42.6,18.1,25,-156.459,-40.7146,167.092,0.599446,56.9942,18.5703
2026_06_10_15_44_47.612,3.757,30.4,0,0.759,0,0,0,0, ,0,0,0,0,0, ,681.8,-301.1,675.1,18.1,63.3,13.2,25,-171.007,-47.8519,185.203,1.48411,53.1727,17.4245
2026_06_10_15_44_47.633,3.757,30.4,0,0.759,0,0,0,0, ,0,0,0,0,0, ,569.2,-326.4,753.5,11.5,77.4,23.4,25,-186.005,-55.5093,203.41,2.06304,50.1298,16.379
2026_06_10_15_44_47.652,3.757,30.3,0,0.759,0,0,0,0, ,0,0,0,0,0, ,589.8,-408.8,757.3,1.7,80.5,34.7,25,-201.607,-65.1586,221.738,2.20126,47.4109,15.8312
2026_06_10_15_44_47.673,3.757,30.3,0,0.76,0,0,0,0, ,0,0,0,0,0, ,615.2,-394.8,733.3,2.8,82.7,45.7,25,-214.322,-75.6908,237.579,2.10852,44.7217,15.7791
2026_06_10_15_44_47.691,3.757,30.3,0,0.758,0,0,0,0, ,0,0,0,0,0, ,584.7,-384.8,734.4,7.2,80.3,57.1,25,-225.482,-84.7449,250.911,2.1448,41.939,16.2011
2026_06_10_15_44_47.711,3.757,30.4,0,0.76,0,0,0,0, ,0,0,0,0,0, ,547.6,-357.1,700.1,-17.3,76.6,62.2,25,-236.641,-92.0129,261.538,1.67585,38.9366,16.9272
2026_06_10_15_44_47.731,3.757,30.4,0,0.76,0,0,0,0, ,0,0,0,0,0, ,510.2,-358,739.3,-17.7,70.3,67.5,25,-247.914,-97.8137,270.475,0.611046,35.6443,17.7892
2026_06_10_15_44_47.751,3.757,30.4,0,0.76,0,0,0,0, ,0,0,0,0,0, ,537.1,-388.5,764.7,-9.7,73.2,69.3,25,-257.669,-103.618,279.225,-0.218181,32.2544,18.6954
2026_06_10_15_44_47.771,3.757,30.3,0,0.76,0,0,0,0, ,0,0,0,0,0, ,505.2,-362,777,2.2,82.6,73,25,-265.799,-108.725,287.094,-0.517684,29.1734,19.5999
2026_06_10_15_44_47.797,3.757,30.3,0,0.76,0,0,0,0, ,0,0,0,0,0, ,610.8,-392.8,806.1,-5.5,82.9,63,25,-270.413,-113.151,294.177,-0.696957,26.3376,20.209
2026_06_10_15_44_47.811,3.757,30.2,0,0.758,0,0,0,0, ,0,0,0,0,0, ,451.6,-371,794.5,29.6,63,59.3,25,-274.782,-117.024,299.893,-0.192111,23.0305,20.3526
2026_06_10_15_44_47.830,3.757,30.3,0,0.76,0,0,0,0, ,0,0,0,0,0, ,434,-366.3,808.4,17.9,71.6,65.8,25,-281.918,-119.479,303.906,0.862729,19.4949,20.4575
2026_06_10_15_44_47.851,3.757,30.3,0,0.76,0,0,0,0, ,0,0,0,0,0, ,424.4,-386.7,796.3,13.5,87.8,74.7,25,-287.982,-121.611,306.27,1.46679,16.6448,20.8342
2026_06_10_15_44_47.870,3.757,30.4,0,0.759,0,0,0,0, ,0,0,0,0,0, ,339.7,-390.3,803.5,6.3,91.2,71.1,25,-294.641,-123.627,306.887,1.74954,14.3331,21.2196
2026_06_10_15_44_47.890,3.757,30.2,0,0.761,0,0,0,0, ,0,0,0,0,0, ,268.9,-382.4,849.4,4.2,71.7,53.1,25,-303.335,-124.829,307.264,1.78175,11.6694,20.9519
2026_06_10_15_44_47.910,3.757,30.3,0,0.759,0,0,0,0, ,0,0,0,0,0, ,197.8,-383.5,803.4,4.4,51.8,38,25,-313.588,-125.191,306.106,1.75701,8.11256,19.7824
2026_06_10_15_44_47.930,3.757,30.3,0,0.758,0,0,0,0, ,0,0,0,0,0, ,198.7,-385.7,841,13.2,41.7,33.7,25,-323.513,-124.999,303.29,1.94552,3.95457,18.097
2026_06_10_15_44_47.949,3.757,30.3,0,0.758,0,0,0,0, ,0,0,0,0,0, ,180.7,-394.5,899.1,5.6,28.7,19.2,25,-331.777,-124.47,301.465,2.14462,-0.585443,15.9441
2026_06_10_15_44_47.969,3.757,30.2,0,0.76,0,0,0,0, ,0,0,0,0,0, ,233.3,-436.5,941.7,15.4,23,8.7,25,-337.152,-124.599,300.712,2.37734,-5.35846,13.2052
2026_06_10_15_44_47.989,3.757,30.2,0,0.76,0,0,0,0, ,0,0,0,0,0, ,198.6,-447.3,933.3,15.1,32.7,23.1,25,-340.162,-125.402,299.353,2.81988,-9.7729,10.6311
2026_06_10_15_44_48.009,3.757,30.3,0,0.761,0,0,0,0, ,0,0,0,0,0, ,128.5,-435.6,902.9,21.2,52.5,31.3,25,-343.919,-125.526,295.634,3.36905,-13.1993,8.68513
2026_06_10_15_44_48.029,3.757,30.3,0,0.759,0,0,0,0, ,0,0,0,0,0, ,49.9,-356.9,844.6,15.7,72.1,21.1,25,-349.443,-122.809,288.465,3.88939,-15.4264,6.74271
2026_06_10_15_44_48.049,3.757,30.3,0,0.758,0,0,0,0, ,0,0,0,0,0, ,-2.3,-396.9,913.6,-5.6,72.7,-4.6,25,-356.181,-118.671,280.489,3.70787,-16.973,3.982
2026_06_10_15_44_48.068,3.757,30.3,0,0.758,0,0,0,0, ,0,0,0,0,0, ,-1.9,-435.6,958,0,60.1,-17.4,25,-362.103,-116.08,274.302,3.13198,-18.6543,0.39297
2026_06_10_15_44_48.088,3.757,30.3,0,0.758,0,0,0,0, ,0,0,0,0,0, ,33.4,-410,917.2,3.6,49.6,-9.9,25,-365.075,-113.366,267.155,2.7945,-20.7277,-3.15194
2026_06_10_15_44_48.108,3.757,30.3,0,0.759,0,0,0,0, ,0,0,0,0,0, ,58.2,-382.2,900.7,7.4,46.1,5.3,25,-364.629,-108.917,257.637,2.64127,-22.9406,-5.95082
2026_06_10_15_44_48.128,3.757,30.2,0,0.76,0,0,0,0, ,0,0,0,0,0, ,62.8,-375.7,893.5,23.8,44.3,2.7,25,-361.686,-103.308,246.734,2.97786,-25.0618,-8.27414
2026_06_10_15_44_48.148,3.757,30.3,0,0.76,0,0,0,0, ,0,0,0,0,0, ,40.5,-366.6,909.6,24,37.7,-13.5,25,-357.539,-97.0823,235.369,3.69033,-27.1615,-10.9037
2026_06_10_15_44_48.167,3.757,30.2,0,0.759,0,0,0,0, ,0,0,0,0,0, ,52.6,-371.9,896.1,31.6,17.8,-19.4,25,-352.084,-90.5905,223.465,4.54094,-29.6741,-13.8926
2026_06_10_15_44_48.187,3.757,30.3,0,0.758,0,0,0,0, ,0,0,0,0,0, ,104.4,-311.4,860.3,37.3,-22,-29.2,25,-343.594,-82.617,209.834,5.6536,-33.3812,-17.0513
2026_06_10_15_44_48.207,3.757,30.2,0,0.759,0,0,0,0, ,0,0,0,0,0, ,100.3,-296.1,854.4,61.4,-63.8,-25.3,25,-332.657,-72.7686,194.816,7.41456,-38.743,-20.1158
2026_06_10_15_44_48.227,3.757,30.2,0,0.76,0,0,0,0, ,0,0,0,0,0, ,67.9,-294.4,908.9,66.7,-75.3,-27.6,25,-321.513,-62.6278,180.765,9.77356,-44.9579,-22.8917
2026_06_10_15_44_48.246,3.757,30.3,0,0.76,0,0,0,0, ,0,0,0,0,0, ,137,-324.3,1056.3,47.3,-54.3,-34.1,25,-308.43,-53.3671,171.464,11.6229,-50.4134,-25.6343
2026_06_10_15_44_48.266,3.757,30.2,0,0.76,0,0,0,0, ,0,0,0,0,0, ,187.6,-356.9,1096.4,27.9,-14.8,-28.9,25,-291.534,-45.8303,166.371,12.3729,-53.8694,-28.1481
2026_06_10_15_44_48.286,3.757,30.3,0,0.758,0,0,0,0, ,0,0,0,0,0, ,140.6,-342.4,1056.8,17,2.9,-27.5,25,-273.941,-38.881,160.721,12.2821,-55.4878,-30.2379
2026_06_10_15_44_48.306,3.757,30.3,0,0.759,0,0,0,0, ,0,0,0,0,0, ,25.1,-316,921.1,5.3,16.1,-40.3,25,-259.846,-31.078,150.257,11.581,-55.9956,-32.3558
2026_06_10_15_44_48.329,3.757,30.3,0,0.758,0,0,0,0, ,0,0,0,0,0, ,55.4,-253.9,936.6,24.6,4.8,-51.5,25,-247.251,-21.3343,136.618,11.0436,-56.156,-34.7989
2026_06_10_15_44_48.345,3.757,30.2,0,0.76,0,0,0,0, ,0,0,0,0,0, ,141.7,-287.2,962,24.6,-12.7,-51.5,25,-231.196,-11.2572,123.978,10.9515,-56.738,-37.2253
2026_06_10_15_44_48.365,3.757,30.3,0,0.76,0,0,0,0, ,0,0,0,0,0, ,134,-278.4,975.5,26.5,-9.1,-38.5,25,-212.862,-2.21956,112.301,10.8564,-57.3526,-39.0305
2026_06_10_15_44_48.385,3.757,30.2,0,0.76,0,0,0,0, ,0,0,0,0,0, ,81.4,-267,950.3,33.5,13.9,-21,25,-195.856,6.88111,100.356,10.9307,-57.0022,-39.8069
2026_06_10_15_44_48.405,3.757,30.3,0,0.759,0,0,0,0, ,0,0,0,0,0, ,112,-275.7,963.2,23.8,32.8,-9.3,25,-179.258,15.5677,88.2003,10.8814,-55.3606,-39.633
2026_06_10_15_44_48.425,3.757,30.2,0,0.758,0,0,0,0, ,0,0,0,0,0, ,117.4,-241.4,968.8,21.8,30.3,3.8,25,-161.709,24.3794,76.6599,10.4939,-53.1245,-38.6641
2026_06_10_15_44_48.445,3.757,30.2,0,0.758,0,0,0,0, ,0,0,0,0,0, ,130.3,-197.6,951.1,28.7,17.8,11.7,25,-143.774,34.5539,65.0111,10.1938,-51.1041,-37.0373
2026_06_10_15_44_48.464,3.757,30.3,0,0.758,0,0,0,0, ,0,0,0,0,0, ,109.6,-201.2,975.9,27.6,9.2,14.8,25,-126.201,45.0449,53.7872,10.0005,-49.4484,-35.038
2026_06_10_15_44_48.485,3.757,30.2,0,0.759,0,0,0,0, ,0,0,0,0,0, ,76,-211.6,989.8,32.5,3.2,13.5,25,-110.2,54.456,43.7977,9.86053,-47.9881,-32.9199
2026_06_10_15_44_48.504,3.757,30.2,0,0.76,0,0,0,0, ,0,0,0,0,0, ,75.6,-212.2,1018.7,31.5,-5.7,14,25,-95.2746,62.8675,35.1318,9.77447,-46.7284,-30.7631
2026_06_10_15_44_48.524,3.757,30.3,0,0.76,0,0,0,0, ,0,0,0,0,0, ,137.8,-174.5,1049.4,28.1,-13.4,12.3,25,-79.096,71.4664,28.1792,9.53656,-45.7071,-28.5899
2026_06_10_15_44_48.544,3.757,30.2,0,0.758,0,0,0,0, ,0,0,0,0,0, ,144.8,-170.6,1019.1,20.4,-10.8,16.3,25,-61.6241,80.3115,21.4386,8.99114,-44.6358,-26.3259
2026_06_10_15_44_48.564,3.757,30.1,0,0.759,0,0,0,0, ,0,0,0,0,0, ,144.8,-160.6,984.1,31.9,-6.3,23.8,25,-44.5337,88.6678,13.3216,8.52133,-43.223,-23.7613
2026_06_10_15_44_48.584,3.757,30.2,0,0.76,0,0,0,0, ,0,0,0,0,0, ,55.5,-139.5,931.8,29.9,-3.7,29.9,25,-30.2518,96.94,3.39632,8.26553,-41.4923,-20.8718
2026_06_10_15_44_48.603,3.757,30.2,0,0.759,0,0,0,0, ,0,0,0,0,0, ,45.4,-140.3,987.3,15.2,10.3,15.5,25,-18.9587,104.826,-5.98047,7.57202,-39.2349,-18.2247
2026_06_10_15_44_48.622,3.757,30.3,0,0.758,0,0,0,0, ,0,0,0,0,0, ,91.9,-120.9,983,-2.8,15.5,-7.5,25,-7.23338,112.266,-13.6124,6.07335,-36.4241,-16.5348
2026_06_10_15_44_48.643,3.757,30.2,0,0.76,0,0,0,0, ,0,0,0,0,0, ,144.7,-135.2,981,6,16.8,2.1,25,6.38751,118.912,-20.9575,4.39266,-33.4122,-15.1748
2026_06_10_15_44_48.663,3.757,30.1,0,0.759,0,0,0,0, ,0,0,0,0,0, ,131.3,-116.9,990.1,12.6,11.8,10.9,25,20.2751,124.744,-27.6649,3.15037,-30.4741,-13.3555
2026_06_10_15_44_48.682,3.757,30.3,0,0.76,0,0,0,0, ,0,0,0,0,0, ,94.3,-133.4,1025.8,16.7,9.6,11.3,25,32.1457,129.72,-32.8085,2.21586,-27.7065,-11.334
2026_06_10_15_44_48.705,3.757,30.2,0,0.757,0,0,0,0, ,0,0,0,0,0, ,62.6,-135.7,1030.8,11.3,18.1,13.3,25,41.5911,133.351,-36.54,1.28439,-24.7836,-9.29698
2026_06_10_15_44_48.722,3.757,30.2,0,0.759,0,0,0,0, ,0,0,0,0,0, ,68.4,-134.1,1087,-1.1,37.5,21.8,25,49.7332,136.13,-38.4078,-0.0442157,-21.1977,-7.05655
2026_06_10_15_44_48.742,3.757,30.2,0,0.759,0,0,0,0, ,0,0,0,0,0, ,87.7,-136.1,1161,-12.8,29.6,15.1,25,57.8464,138.092,-36.802,-1.89841,-17.4012,-4.84708
2026_06_10_15_44_48.761,3.757,30.2,0,0.759,0,0,0,0, ,0,0,0,0,0, ,61.1,-120.6,1067.7,-19.3,1.6,3.7,25,65.0976,139.608,-35.5668,-4.09862,-14.5855,-3.16592
2026_06_10_15_44_48.782,3.757,30.2,0,0.759,0,0,0,0, ,0,0,0,0,0, ,32.9,-123.2,953.4,-14.5,-12.7,-2.1,25,70.3285,140.678,-39.3077,-6.2124,-12.8733,-1.97338
2026_06_10_15_44_48.802,3.757,30.2,0,0.759,0,0,0,0, ,0,0,0,0,0, ,58.1,-118.5,903.1,-4.2,-5.6,-6,25,74.8828,141.054,-46.7075,-7.82162,-11.3581,-1.06746
2026_06_10_15_44_48.822,3.757,30.3,0,0.759,0,0,0,0, ,0,0,0,0,0, ,62.9,-115.4,928.1,7.3,6.8,3.7,25,79.5803,140.907,-54.1347,-8.77881,-9.38314,-0.0584802
2026_06_10_15_44_48.841,3.757,30.2,0,0.759,0,0,0,0, ,0,0,0,0,0, ,61,-120.8,952.8,8.4,14.3,3.4,25,83.7263,140.017,-59.7121,-9.33681,-6.97078,1.1318
2026_06_10_15_44_48.861,3.757,30.3,0,0.76,0,0,0,0, ,0,0,0,0,0, ,44.1,-131.1,981.8,13.3,13.5,0.9,25,86.7954,138.095,-63.4049,-9.6743,-4.47808,2.18948
2026_06_10_15_44_48.880,3.757,30.3,0,0.76,0,0,0,0, ,0,0,0,0,0, ,34.1,-127.4,1003.1,10.7,11.7,-1.2,25,88.6266,135.426,-65.3707,-9.89117,-2.14932,3.07169
2026_06_10_15_44_48.901,3.757,30.2,0,0.757,0,0,0,0, ,0,0,0,0,0, ,46.3,-122.6,989.3,8.2,15.1,1.3,25,89.9851,132.428,-66.734,-10.1737,0.115054,3.9053
2026_06_10_15_44_48.920,3.757,30.2,0,0.759,0,0,0,0, ,0,0,0,0,0, ,25.5,-121.7,989.7,9.7,12.2,3.1,25,90.6227,129.064,-68.0301,-10.4168,2.28007,4.78423
2026_06_10_15_44_48.940,3.757,30.2,0,0.76,0,0,0,0, ,0,0,0,0,0, ,18.5,-112.7,984.3,16.4,6.1,-0.3,25,90.1006,125.472,-69.05,-10.3955,4.10698,5.55724
2026_06_10_15_44_48.960,3.757,30.2,0,0.759,0,0,0,0, ,0,0,0,0,0, ,3,-102.2,955.5,15.3,15.1,-4.7,25,88.6084,121.916,-70.5182,-10.1867,5.89516,6.07368
2026_06_10_15_44_48.980,3.757,30.1,0,0.76,0,0,0,0, ,0,0,0,0,0, ,56.2,-89.1,958.8,19.9,17.7,-1.4,25,87.6772,118.512,-72.1922,-9.85217,7.85104,6.50789
2026_06_10_15_44_48.999,3.757,30.2,0,0.76,0,0,0,0, ,0,0,0,0,0, ,54.8,-80,977,20.1,4.9,6.1,25,87.6297,115.236,-72.9011,-9.36775,9.42219,7.15356
2026_06_10_15_44_49.019,3.757,30.1,0,0.759,0,0,0,0, ,0,0,0,0,0, ,36.6,-98.7,1063.7,17.1,4.4,4.3,25,86.6721,111.317,-70.6436,-8.92958,10.5437,7.87208
2026_06_10_15_44_49.039,3.757,30.2,0,0.758,0,0,0,0, ,0,0,0,0,0, ,8.6,-101,1042.1,6.1,0.5,3.1,25,84.2014,106.526,-66.5524,-8.8122,11.4504,8.44301
2026_06_10_15_44_49.059,3.757,30.2,0,0.759,0,0,0,0, ,0,0,0,0,0, ,41.5,-71.5,983.3,2.3,17.6,12.9,25,81.5571,102.113,-64.3053,-9.02007,12.5798,9.15521
2026_06_10_15_44_49.079,3.757,30.2,0,0.758,0,0,0,0, ,0,0,0,0,0, ,12.5,-82.2,981.4,2,39.2,23.5,25,78.7361,97.8736,-63.34,-9.27383,14.5409,10.2876
2026_06_10_15_44_49.099,3.757,30.2,0,0.76,0,0,0,0, ,0,0,0,0,0, ,-30.1,-85.3,995.4,4.5,50.9,31,25,73.9097,93.0214,-61.8131,-9.41549,17.1506,11.7576
2026_06_10_15_44_49.118,3.757,30.1,0,0.759,0,0,0,0, ,0,0,0,0,0, ,-44.9,-83.6,1035,1.1,50.8,26.3,25,67.5483,87.9145,-58.7422,-9.52587,19.8324,13.1662
2026_06_10_15_44_49.138,3.757,30.2,0,0.757,0,0,0,0, ,0,0,0,0,0, ,-90.8,-99.1,1086.7,-1,51.3,22.3,25,59.6774,82.2863,-53.2935,-9.71875,22.2946,14.2275
2026_06_10_15_44_49.158,3.757,30.2,0,0.758,0,0,0,0, ,0,0,0,0,0, ,-46.5,-66.7,1014.7,-6.6,59.5,17.2,25,51.8593,76.9431,-48.3472,-10.0431,24.7396,14.9435
2026_06_10_15_44_49.178,3.757,30.1,0,0.758,0,0,0,0, ,0,0,0,0,0, ,-57,-67.9,1015.6,-2.5,62,17.2,25,44.9978,72.2477,-45.1487,-10.3388,27.2051,15.4257
2026_06_10_15_44_49.198,3.757,30.2,0,0.761,0,0,0,0, ,0,0,0,0,0, ,-156.1,-71.1,977.7,9.5,61.3,16.4,25,35.5634,67.3187,-42.7918,-10.1743,29.4598,15.7886
2026_06_10_15_44_49.217,3.757,30.2,0,0.759,0,0,0,0, ,0,0,0,0,0, ,-161,-63.4,977.7,14.2,63.3,5,25,23.8663,62.4101,-41.2691,-9.5582,31.4906,15.7567
2026_06_10_15_44_49.242,3.757,30.2,0,0.76,0,0,0,0, ,0,0,0,0,0, ,-148.6,-75.5,999.6,12.7,63,4.1,25,12.8091,57.3266,-39.0805,-8.84673,33.3082,15.3471
2026_06_10_15_44_49.257,3.757,30.1,0,0.758,0,0,0,0, ,0,0,0,0,0, ,-168.7,-54.8,1005.9,7.1,54.4,3.8,25,2.04228,52.4209,-36.1153,-8.30066,34.6544,14.8526
2026_06_10_15_44_49.276,3.757,30.2,0,0.759,0,0,0,0, ,0,0,0,0,0, ,-212.8,-53.5,972.1,20.5,41.2,3.4,25,-9.78087,48.0369,-33.7918,-7.54919,35.2291,14.2919
2026_06_10_15_44_49.297,3.757,30.2,0,0.758,0,0,0,0, ,0,0,0,0,0, ,-240.8,-42.8,954.5,29.5,29.5,-2.5,25,-22.744,43.9254,-32.6761,-6.24809,34.9915,13.5338
2026_06_10_15_44_49.317,3.757,30.2,0,0.759,0,0,0,0, ,0,0,0,0,0, ,-235.9,-88.6,934.5,22.3,-5.3,-0.3,25,-35.5257,38.9383,-32.3761,-4.93587,33.4528,12.6555
2026_06_10_15_44_49.336,3.757,30.1,0,0.76,0,0,0,0, ,0,0,0,0,0, ,-272.5,-102.7,954.2,-0.6,-7.2,-2.4,25,-48.2828,32.5351,-31.9386,-4.40178,30.9248,11.7603
2026_06_10_15_44_49.356,3.757,30.2,0,0.76,0,0,0,0, ,0,0,0,0,0, ,-234.6,-70.8,937.8,8.1,-13.2,0.9,25,-60.1445,26.7221,-31.2843,-4.22039,28.1746,10.8805
2026_06_10_15_44_49.376,3.757,30.1,0,0.759,0,0,0,0, ,0,0,0,0,0, ,-197.7,-34.6,974.1,4.3,-13.8,-4.5,25,-69.2938,22.7324,-30.0199,-3.90695,25.2586,9.9387
2026_06_10_15_44_49.396,3.757,30.2,0,0.757,0,0,0,0, ,0,0,0,0,0, ,-174.4,5.7,1026.1,12.3,-14.2,-3,25,-76.1766,20.7022,-26.5043,-3.48663,22.3366,8.8985
2026_06_10_15_44_49.415,3.757,30.2,0,0.758,0,0,0,0, ,0,0,0,0,0, ,-209.5,-46.5,960.9,-4.6,-14.8,-5.1,25,-82.6359,18.3778,-23.3542,-3.28799,19.4233,7.85074
2026_06_10_15_44_49.437,3.757,30.2,0,0.76,0,0,0,0, ,0,0,0,0,0, ,-171.2,-4.3,1012.5,13.6,-14,-6.6,25,-88.2926,15.8316,-20.5769,-3.05101,16.5621,6.72739
2026_06_10_15_44_49.456,3.757,30.2,0,0.759,0,0,0,0, ,0,0,0,0,0, ,-136.1,26.6,1044.9,18.7,-9.7,-14.7,25,-91.4369,15.1247,-15.7747,-2.23925,13.8847,5.39058
2026_06_10_15_44_49.474,3.757,30.2,0,0.758,0,0,0,0, ,0,0,0,0,0, ,-177.8,-16.6,970.7,14.3,-8.8,-16.4,25,-94.1382,14.0764,-12.1552,-1.43911,11.3976,3.85245
2026_06_10_15_44_49.495,3.757,30.2,0,0.758,0,0,0,0, ,0,0,0,0,0, ,-186,-39.6,946.7,13.3,-13,-10.6,25,-97.4668,11.3868,-11.0614,-0.803538,8.8954,2.47131
2026_06_10_15_44_49.515,3.757,30.1,0,0.759,0,0,0,0, ,0,0,0,0,0, ,-205.8,2.9,1015.7,19.4,-12.2,-6.9,25,-100.838,9.2511,-8.86318,-0.0701134,6.38871,1.37868
2026_06_10_15_44_49.535,3.757,30.2,0,0.76,0,0,0,0, ,0,0,0,0,0, ,-156.7,-9,944,0.9,-14.3,-10.7,25,-102.829,7.92495,-6.79533,0.32362,3.9416,0.33039
2026_06_10_15_44_49.554,3.757,30.1,0,0.76,0,0,0,0, ,0,0,0,0,0, ,-191.6,8.4,1020.6,14.4,-13.3,-3.7,25,-103.867,6.75965,-4.67525,0.57384,1.5681,-0.589648
2026_06_10_15_44_49.574,3.757,30.2,0,0.76,0,0,0,0, ,0,0,0,0,0, ,-121.4,36.9,963.8,3.9,-7.6,-4.4,25,-103.477,6.74373,-2.15057,0.882525,-0.532423,-1.30717
2026_06_10_15_44_49.594,3.757,30.1,0,0.758,0,0,0,0, ,0,0,0,0,0, ,-164.9,7.6,998.7,15.5,-12.9,-5.1,25,-101.941,6.67573,-0.276143,1.1987,-2.5175,-2.0174
2026_06_10_15_44_49.613,3.757,30.2,0,0.758,0,0,0,0, ,0,0,0,0,0, ,-141.6,-8.3,950.4,4.7,-18.3,-6.2,25,-100.473,5.4698,1.17913,1.51307,-4.6552,-2.72698
2026_06_10_15_44_49.634,3.757,30.1,0,0.759,0,0,0,0, ,0,0,0,0,0, ,-144.5,18.9,984,8.3,-19.6,-1.8,25,-98.0825,4.57314,2.19676,1.62801,-6.82941,-3.30741
2026_06_10_15_44_49.653,3.757,30.1,0,0.759,0,0,0,0, ,0,0,0,0,0, ,-160.5,62.8,1102.7,18.7,-20.3,-1.6,25,-95.7888,5.44141,6.88829,2.0726,-8.91237,-3.73027
2026_06_10_15_44_49.672,3.757,30.1,0,0.759,0,0,0,0, ,0,0,0,0,0, ,-120.2,31.2,920.6,-4.2,-12.8,-6.5,25,-92.5397,6.54189,9.76111,2.17865,-10.6825,-4.22926
2026_06_10_15_44_49.693,3.757,30.1,0,0.757,0,0,0,0, ,0,0,0,0,0, ,-165.1,-1,956.5,3.7,-18.2,-1.4,25,-89.1067,5.99169,8.85988,1.90093,-12.2617,-4.67803
2026_06_10_15_44_49.712,3.757,30.1,0,0.759,0,0,0,0, ,0,0,0,0,0, ,-126.2,14.5,969.6,5.3,-27,3.8,25,-85.55,5.02943,9.16074,1.86043,-14.0512,-4.82917
2026_06_10_15_44_49.733,3.757,30.1,0,0.757,0,0,0,0, ,0,0,0,0,0, ,-156.4,11.3,995.8,3.2,-29.7,2.6,25,-81.5328,4.39119,10.3654,1.80048,-15.9657,-4.85101
2026_06_10_15_44_49.752,3.757,30.1,0,0.76,0,0,0,0, ,0,0,0,0,0, ,-121,33.8,1041.6,11.8,-32.4,-6.6,25,-77.1833,4.23587,13.2255,1.89398,-17.8401,-5.10289
2026_06_10_15_44_49.772,3.757,30.1,0,0.759,0,0,0,0, ,0,0,0,0,0, ,-88.8,52.9,986.6,11.5,-35.2,-8.9,25,-71.0091,5.0874,15.6545,2.1771,-19.6694,-5.59927
2026_06_10_15_44_49.792,3.757,30.1,0,0.759,0,0,0,0, ,0,0,0,0,0, ,-58.8,43.5,925,4.5,-37.1,-2.4,25,-63.2624,6.10995,15.028,2.25659,-21.4274,-5.94072
2026_06_10_15_44_49.812,3.757,30.1,0,0.759,0,0,0,0, ,0,0,0,0,0, ,-67.7,41.8,921.2,12.8,-59.8,2.8,25,-55.0665,6.78006,12.7544,2.35295,-23.5968,-5.94924
2026_06_10_15_44_49.835,3.757,30.1,0,0.759,0,0,0,0, ,0,0,0,0,0, ,-62.6,41.2,879.2,8.9,-103.3,-1.2,25,-47.0944,7.32748,9.40645,2.54087,-27.1668,-5.8986
2026_06_10_15_44_49.852,3.757,30.1,0,0.759,0,0,0,0, ,0,0,0,0,0, ,-11.1,-101.4,654.4,-26,31.1,1.1,25,-37.8932,4.30045,-0.366055,1.75562,-28.1988,-5.86307
2026_06_10_15_44_49.871,3.757,30.1,0,0.76,0,0,0,0, ,0,0,0,0,0, ,87.1,-39.9,709.8,68,35.4,13.2,25,-25.2856,-0.588017,-13.8114,2.44946,-25.6401,-5.44726
2026_06_10_15_44_49.890,3.757,30,0,0.76,0,0,0,0, ,0,0,0,0,0, ,-75.4,56.6,963,21,-14.6,8.4,25,-14.7485,-1.35943,-18.962,4.24971,-24.2012,-4.846
2026_06_10_15_44_49.911,3.757,29.9,0,0.758,0,0,0,0, ,0,0,0,0,0, ,-42.2,42.3,1005.2,0.4,0.3,-0.9,25,-7.82614,-0.0706314,-16.5228,4.28307,-23.5743,-4.5961
2026_06_10_15_44_49.931,3.757,30.2,0,0.759,0,0,0,0, ,0,0,0,0,0, ,-37.9,53.2,999.7,-1.8,-0.5,-0.8,25,-0.285122,1.07193,-13.2219,3.73459,-22.5162,-4.5614
2026_06_10_15_44_49.950,3.757,30.1,0,0.759,0,0,0,0, ,0,0,0,0,0, ,-45.4,70.8,997.8,1.2,-0.4,-1,25,6.809,2.85205,-10.1991,3.21422,-21.4161,-4.50837
2026_06_10_15_44_49.970,3.757,30.1,0,0.759,0,0,0,0, ,0,0,0,0,0, ,-61.1,57.9,997.8,3.4,-0.5,-2.4,25,12.9527,4.64605,-7.32097,2.83104,-20.2645,-4.47496
2026_06_10_15_44_49.990,3.757,30.2,0,0.759,0,0,0,0, ,0,0,0,0,0, ,6.8,82.2,1006.1,14.3,-0.2,-2.3,25,20.0114,6.60872,-4.34435,2.77394,-19.0646,-4.45302
2026_06_10_15_44_50.010,3.757,30.1,0,0.759,0,0,0,0, ,0,0,0,0,0, ,-38.6,77,996.3,10.5,0.3,7.4,25,27.1769,8.91093,-1.52908,2.88007,-17.81,-4.16989
2026_06_10_15_44_50.029,3.757,30,0,0.758,0,0,0,0, ,0,0,0,0,0, ,-30.5,59.5,1001.5,9.9,-0.3,-1.5,25,32.9425,10.4997,1.04285,2.8589,-16.5315,-3.86048
2026_06_10_15_44_50.054,3.757,30,0,0.76,0,0,0,0, ,0,0,0,0,0, ,-37.5,106.5,997.8,21,-0.9,-14.4,25,38.2899,12.6821,3.5203,3.08217,-15.2638,-4.08179
2026_06_10_15_44_50.069,3.757,30.1,0,0.759,0,0,0,0, ,0,0,0,0,0, ,-48.2,44.6,999.2,14.8,-1.7,-21.6,25,42.7523,14.3297,5.80249,3.39944,-14.0173,-4.76502
2026_06_10_15_44_50.089,3.757,30.1,0,0.759,0,0,0,0, ,0,0,0,0,0, ,-29.7,78.1,1000,12.6,-1.1,-14.2,25,46.9765,15.1294,7.99811,3.47843,-12.7677,-5.38635
2026_06_10_15_44_50.109,3.757,30,0,0.759,0,0,0,0, ,0,0,0,0,0, ,-38.4,70.3,1005.2,7.6,-0.9,-5.8,25,51.0022,16.4456,10.1938,3.35984,-11.4969,-5.56322
2026_06_10_15_44_50.129,3.757,30,0,0.76,0,0,0,0, ,0,0,0,0,0, ,-35.8,78.7,1001.4,1.9,-0.1,2.1,25,54.4296,17.6308,12.2658,2.96812,-10.2073,-5.30429
2026_06_10_15_44_50.148,3.757,30.1,0,0.759,0,0,0,0, ,0,0,0,0,0, ,-37.4,99.4,1000.2,1.1,0,1.9,25,57.4452,19.3847,14.0532,2.4216,-8.9085,-4.84311
2026_06_10_15_44_50.168,3.757,30.1,0,0.759,0,0,0,0, ,0,0,0,0,0, ,-37.2,81.4,999.3,-0.7,-0.3,-0.9,25,59.9955,21.0232,15.6322,1.8262,-7.63441,-4.45425
2026_06_10_15_44_50.188,3.757,30,0,0.761,0,0,0,0, ,0,0,0,0,0, ,-35.5,92.4,999.6,-1,-0.4,-1.7,25,62.1716,22.306,17.042,1.1995,-6.395,-4.15078
2026_06_10_15_44_50.208,3.757,30,0,0.758,0,0,0,0, ,0,0,0,0,0, ,-36.9,90.8,999.3,-0.6,-0.4,-1.6,25,63.9419,23.6465,18.2986,0.60007,-5.18731,-3.8589
2026_06_10_15_44_50.227,3.757,30,0,0.758,0,0,0,0, ,0,0,0,0,0, ,-36.3,94.4,998.1,-0.6,-0.5,-1.5,25,65.2907,24.8538,19.3667,0.0368929,-4.01573,-3.55741
2026_06_10_15_44_50.251,3.757,30.1,0,0.758,0,0,0,0, ,0,0,0,0,0, ,-37.2,96.8,998.4,0.5,-0.2,-0.3,25,66.2442,26.0266,20.2648,-0.471872,-2.87692,-3.2213
2026_06_10_15_44_50.267,3.757,30,0,0.76,0,0,0,0, ,0,0,0,0,0, ,-37.1,93.2,997.6,-0.4,-0.3,-1.6,25,66.8048,26.9841,21.0068,-0.948455,-1.77487,-2.88825
2026_06_10_15_44_50.287,3.757,30.1,0,0.759,0,0,0,0, ,0,0,0,0,0, ,-38,96.5,998.2,-0.4,-0.5,-1.8,25,66.9891,27.7543,21.604,-1.41906,-0.725486,-2.59409
2026_06_10_15_44_50.307,3.757,30.1,0,0.76,0,0,0,0, ,0,0,0,0,0, ,-36.9,95.2,998.4,-0.3,-0.5,-1.7,25,66.8392,28.399,22.085,-1.85714,0.271107,-2.30401
2026_06_10_15_44_50.327,3.757,30.1,0,0.758,0,0,0,0, ,0,0,0,0,0, ,-38.6,96.8,997.3,-0.4,-0.4,-1.7,25,66.3524,28.8795,22.4115,-2.26458,1.21994,-2.01436
2026_06_10_15_44_50.346,3.757,30,0,0.759,0,0,0,0, ,0,0,0,0,0, ,-36.4,95.7,996.8,-0.4,-0.5,-1.8,25,65.5748,29.2063,22.5723,-2.64333,2.11623,-1.73144
2026_06_10_15_44_50.366,3.757,30.1,0,0.759,0,0,0,0, ,0,0,0,0,0, ,-36.9,96.4,998.1,-0.4,-0.4,-1.8,25,64.5539,29.3634,22.6336,-2.99048,2.95813,-1.45631
2026_06_10_15_44_50.386,3.757,30.1,0,0.759,0,0,0,0, ,0,0,0,0,0, ,-36.7,94.4,999.1,-0.3,-0.4,-1.8,25,63.2575,29.3362,22.6368,-3.30342,3.74661,-1.1875
2026_06_10_15_44_50.406,3.757,30,0,0.76,0,0,0,0, ,0,0,0,0,0, ,-36.2,95.7,999,-0.3,-0.4,-1.8,25,61.7301,29.1486,22.5503,-3.58227,4.47797,-0.926014
2026_06_10_15_44_50.426,3.757,30.1,0,0.759,0,0,0,0, ,0,0,0,0,0, ,-36.7,94.6,998.2,-0.4,-0.4,-1.8,25,59.9734,28.8314,22.3349,-3.83225,5.15138,-0.672793
2026_06_10_15_44_50.446,3.757,30,0,0.759,0,0,0,0, ,0,0,0,0,0, ,-37.3,94.9,997.8,-0.4,-0.4,-1.8,25,57.9803,28.3681,21.9905,-4.05353,5.76638,-0.428675
2026_06_10_15_44_50.465,3.757,30.1,0,0.759,0,0,0,0, ,0,0,0,0,0, ,-37.5,96.8,999,-0.6,-0.4,-1.7,25,55.7796,27.8416,21.5742,-4.24889,6.3228,-0.191965
2026_06_10_15_44_50.488,3.757,30.1,0,0.759,0,0,0,0, ,0,0,0,0,0, ,-36.6,96.8,999.1,-0.6,-0.5,-1.8,25,53.4291,27.2504,21.1039,-4.41863,6.81832,0.0340824
2026_06_10_15_44_50.505,3.757,29.9,0,0.759,0,0,0,0, ,0,0,0,0,0, ,-36.2,96,998.9,-0.7,-0.4,-1.8,25,50.9624,26.5342,20.5503,-4.56072,7.25593,0.246424
2026_06_10_15_44_50.524,3.757,30,0,0.76,0,0,0,0, ,0,0,0,0,0, ,-36.7,96.9,997.6,-0.8,-0.5,-1.7,25,48.3631,25.7248,19.8857,-4.67827,7.63633,0.449589
2026_06_10_15_44_50.544,3.757,30.1,0,0.76,0,0,0,0, ,0,0,0,0,0, ,-36.4,94.3,998.4,-0.9,-0.4,-1.7,25,45.648,24.7867,19.1434,-4.77191,7.96043,0.643026
2026_06_10_15_44_50.565,3.757,29.9,0,0.758,0,0,0,0, ,0,0,0,0,0, ,-37.5,96.9,997.3,-1,-0.5,-1.7,25,42.8215,23.7724,18.3359,-4.84234,8.22941,0.823808
2026_06_10_15_44_50.584,3.757,30.1,0,0.758,0,0,0,0, ,0,0,0,0,0, ,-36.2,96.4,998.1,-1.1,-0.5,-1.8,25,39.9275,22.7422,17.4702,-4.89035,8.44219,0.989212
2026_06_10_15_44_50.604,3.757,30,0,0.758,0,0,0,0, ,0,0,0,0,0, ,-36.8,94.3,998.4,-1.2,-0.4,-1.7,25,36.9958,21.5867,16.5879,-4.91682,8.60537,1.14163
2026_06_10_15_44_50.623,3.757,30,0,0.76,0,0,0,0, ,0,0,0,0,0, ,-37.5,96.3,998,-1,-0.4,-1.8,25,33.9937,20.379,15.6646,-4.9153,8.7206,1.28094
2026_06_10_15_44_50.643,3.757,30,0,0.758,0,0,0,0, ,0,0,0,0,0, ,-36.9,94.1,999.1,-0.9,-0.4,-1.7,25,30.9688,19.1252,14.7266,-4.88227,8.7872,1.40711
2026_06_10_15_44_50.668,3.757,30,0,0.76,0,0,0,0, ,0,0,0,0,0, ,-37.1,96.4,997.4,-0.7,-0.3,-1.6,25,27.9495,17.8411,13.7473,-4.81945,8.80968,1.52507
2026_06_10_15_44_50.686,3.757,30,0,0.759,0,0,0,0, ,0,0,0,0,0, ,-37.1,95.5,998.1,-0.5,-0.4,-1.5,25,24.9356,16.5664,12.7237,-4.72615,8.78764,1.63462
2026_06_10_15_44_50.703,3.757,30,0,0.759,0,0,0,0, ,0,0,0,0,0, ,-36.2,97,997.5,-0.3,-0.3,-1.3,25,21.9687,15.2872,11.6901,-4.60432,8.72337,1.7381
2026_06_10_15_44_50.722,3.757,30.1,0,0.759,0,0,0,0, ,0,0,0,0,0, ,-36.1,95.2,997.4,-0.4,-0.4,-1.3,25,19.0636,13.9881,10.6324,-4.46333,8.61926,1.83285
2026_06_10_15_44_50.742,3.757,30,0,0.759,0,0,0,0, ,0,0,0,0,0, ,-36.2,96.3,998.6,-0.3,-0.3,-1.4,25,16.2069,12.6666,9.60118,-4.30725,8.47778,1.91146
2026_06_10_15_44_50.762,3.757,29.9,0,0.76,0,0,0,0, ,0,0,0,0,0, ,-36.4,95.2,997.9,-0.3,-0.4,-1.4,25,13.4032,11.3475,8.58546,-4.13515,8.30146,1.97435
2026_06_10_15_44_50.782,3.757,30,0,0.758,0,0,0,0, ,0,0,0,0,0, ,-36.6,96.5,998.4,-0.5,-0.4,-1.6,25,10.6611,10.0421,7.57233,-3.95602,8.09042,2.01952
2026_06_10_15_44_50.801,3.757,30,0,0.76,0,0,0,0, ,0,0,0,0,0, ,-37.5,95.4,997.9,-0.5,-0.4,-1.7,25,7.97392,8.75609,6.57157,-3.77107,7.84986,2.04516
2026_06_10_15_44_50.822,3.757,30,0,0.758,0,0,0,0, ,0,0,0,0,0, ,-35.4,96,998,-0.5,-0.5,-1.8,25,5.40869,7.47775,5.5777,-3.57662,7.57996,2.05457
2026_06_10_15_44_50.842,3.757,30,0,0.76,0,0,0,0, ,0,0,0,0,0, ,-36.9,95,997.9,-0.5,-0.4,-1.8,25,2.95732,6.21545,4.60508,-3.37407,7.28594,2.05093
2026_06_10_15_44_50.861,3.757,29.9,0,0.758,0,0,0,0, ,0,0,0,0,0, ,-37.2,97.6,998.2,-0.6,-0.5,-1.8,25,0.567467,5.02365,3.66237,-3.16728,6.97043,2.03736
2026_06_10_15_44_50.882,3.757,30,0,0.758,0,0,0,0, ,0,0,0,0,0, ,-36.7,97.1,998.7,-0.4,-0.5,-1.8,25,-1.70308,3.91704,2.76746,-2.95257,6.6336,2.01442
2026_06_10_15_44_50.900,3.757,29.9,0,0.759,0,0,0,0, ,0,0,0,0,0, ,-35.7,97.4,998.2,-0.6,-0.5,-1.7,25,-3.81709,2.84049,1.9028,-2.73384,6.28058,1.98513
2026_06_10_15_44_50.921,3.757,30,0,0.759,0,0,0,0, ,0,0,0,0,0, ,-38.2,97.4,998.5,-0.6,-0.5,-1.8,25,-5.84539,1.8101,1.06627,-2.51727,5.91393,1.94749
2026_06_10_15_44_50.941,3.757,30,0,0.758,0,0,0,0, ,0,0,0,0,0, ,-36.9,96.3,997,-0.7,-0.5,-1.8,25,-7.77484,0.794351,0.236079,-2.30136,5.53612,1.89965
2026_06_10_15_44_50.961,3.757,30,0,0.758,0,0,0,0, ,0,0,0,0,0, ,-36.8,96.5,999,-0.7,-0.4,-1.7,25,-9.53702,-0.19757,-0.542298,-2.08716,5.152,1.84725
2026_06_10_15_44_50.980,3.757,29.9,0,0.759,0,0,0,0, ,0,0,0,0,0, ,-37.2,96.5,998.9,-0.8,-0.4,-1.7,25,-11.1731,-1.13497,-1.23324,-1.87562,4.76378,1.79076
2026_06_10_15_44_51.000,3.757,30,0,0.759,0,0,0,0, ,0,0,0,0,0, ,-36.9,96.8,998.6,-0.8,-0.4,-1.7,25,-12.6764,-2.01344,-1.89402,-1.66767,4.37113,1.72822
2026_06_10_15_44_51.019,3.757,30,0,0.759,0,0,0,0, ,0,0,0,0,0, ,-36.8,95.4,997.6,-0.8,-0.4,-1.8,25,-14.0336,-2.86588,-2.54494,-1.4617,3.97619,1.65777
2026_06_10_15_44_51.039,3.757,30,0,0.759,0,0,0,0, ,0,0,0,0,0, ,-37.2,96.3,998.1,-0.8,-0.4,-1.7,25,-15.2625,-3.67465,-3.16366,-1.25863,3.58102,1.58261
2026_06_10_15_44_51.059,3.757,30,0,0.76,0,0,0,0, ,0,0,0,0,0, ,-36.3,96.3,997.8,-0.7,-0.4,-1.7,25,-16.3436,-4.40358,-3.73154,-1.05686,3.18759,1.50579
2026_06_10_15_44_51.080,3.757,29.9,0,0.76,0,0,0,0, ,0,0,0,0,0, ,-36,96.4,997.9,-0.8,-0.4,-1.7,25,-17.2618,-5.0726,-4.25808,-0.859775,2.79774,1.42532
2026_06_10_15_44_51.100,3.757,29.9,0,0.759,0,0,0,0, ,0,0,0,0,0, ,-37.2,95.7,1000.3,-0.8,-0.4,-1.8,25,-18.0719,-5.69853,-4.6765,-0.670573,2.41322,1.33932
2026_06_10_15_44_51.119,3.757,30,0,0.76,0,0,0,0, ,0,0,0,0,0, ,-36.1,95.9,997.6,-0.7,-0.4,-1.7,25,-18.7557,-6.27793,-5.05872,-0.484893,2.03567,1.25093
2026_06_10_15_44_51.139,3.757,29.9,0,0.759,0,0,0,0, ,0,0,0,0,0, ,-36.4,97.5,998.7,-0.6,-0.4,-1.7,25,-19.2938,-6.75385,-5.4365,-0.301026,1.6666,1.16316
2026_06_10_15_44_51.159,3.757,30,0,0.76,0,0,0,0, ,0,0,0,0,0, ,-36.8,96,998.2,-0.6,-0.4,-1.6,25,-19.7277,-7.17068,-5.75424,-0.12224,1.30742,1.07642
2026_06_10_15_44_51.179,3.757,30,0,0.759,0,0,0,0, ,0,0,0,0,0, ,-36.7,96.3,997.6,-0.6,-0.5,-1.7,25,-20.0504,-7.56116,-6.05501,0.0483793,0.956956,0.988632
2026_06_10_15_44_51.198,3.757,29.9,0,0.76,0,0,0,0, ,0,0,0,0,0, ,-36.8,97.5,997.8,-0.6,-0.4,-1.8,25,-20.2585,-7.85844,-6.321,0.210393,0.618966,0.895369
2026_06_10_15_44_51.218,3.757,30,0,0.757,0,0,0,0, ,0,0,0,0,0, ,-37.2,96.3,996.8,-0.6,-0.5,-1.7,25,-20.3688,-8.10242,-6.56242,0.363424,0.294502,0.802268
2026_06_10_15_44_51.238,3.757,29.9,0,0.758,0,0,0,0, ,0,0,0,0,0, ,-36,98.9,989.2,-0.7,-0.5,-1.8,25,-20.3537,-8.26016,-6.97053,0.504707,-0.0179536,0.709779
2026_06_10_15_44_51.258,3.757,29.9,0,0.759,0,0,0,0, ,0,0,0,0,0, ,-36,93.8,1018,-1.6,-0.5,-1.7,25,-20.2096,-8.43077,-6.80442,0.612052,-0.314996,0.618328
2026_06_10_15_44_51.278,3.757,29.9,0,0.759,0,0,0,0, ,0,0,0,0,0, ,-36.7,93.9,989.8,0,-0.3,-1.8,25,-19.9901,-8.67407,-6.59821,0.728281,-0.591015,0.528314
2026_06_10_15_44_51.297,3.757,29.9,0,0.759,0,0,0,0, ,0,0,0,0,0, ,-38,94.7,1001.4,-0.8,-0.4,-1.7,25,-19.7319,-8.84062,-6.77666,0.854838,-0.848131,0.440112
2026_06_10_15_44_51.317,3.757,29.9,0,0.759,0,0,0,0, ,0,0,0,0,0, ,-36.7,102.5,993.8,-0.8,-0.5,-1.6,25,-19.3892,-8.74454,-6.81486,0.951358,-1.09336,0.358971
2026_06_10_15_44_51.337,3.757,29.9,0,0.759,0,0,0,0, ,0,0,0,0,0, ,-35.7,94.8,997.8,-0.7,-0.5,-1.8,25,-18.9113,-8.60763,-6.90589,1.04091,-1.32363,0.277587
2026_06_10_15_44_51.357,3.757,29.8,0,0.759,0,0,0,0, ,0,0,0,0,0, ,-37.1,95.2,999.1,-1,-0.5,-1.8,25,-18.3734,-8.61402,-6.82846,1.11603,-1.53608,0.193923
2026_06_10_15_44_51.376,3.757,29.9,0,0.76,0,0,0,0, ,0,0,0,0,0, ,-36,97.6,998.7,-0.3,-0.4,-1.7,25,-17.7787,-8.50899,-6.6991,1.19178,-1.72809,0.115858
2026_06_10_15_44_51.397,3.757,30,0,0.76,0,0,0,0, ,0,0,0,0,0, ,-37.3,97.5,997.6,-1,-0.5,-1.7,25,-17.1305,-8.31077,-6.57985,1.25794,-1.90217,0.0435033
2026_06_10_15_44_51.416,3.757,29.9,0,0.759,0,0,0,0, ,0,0,0,0,0, ,-35.7,93.8,998,-1,-0.5,-1.8,25,-16.4223,-8.17449,-6.45118,1.29749,-2.06079,-0.0279697
2026_06_10_15_44_51.436,3.757,29.8,0,0.761,0,0,0,0, ,0,0,0,0,0, ,-36.9,95.2,1000.4,-0.7,-0.4,-1.8,25,-15.658,-8.06102,-6.22838,1.33606,-2.19902,-0.0982517
2026_06_10_15_44_51.456,3.757,30,0,0.76,0,0,0,0, ,0,0,0,0,0, ,-36,95.5,997.8,-0.9,-0.5,-1.7,25,-14.8615,-7.87169,-5.99071,1.36861,-2.31963,-0.162151
2026_06_10_15_44_51.478,3.757,29.8,0,0.759,0,0,0,0, ,0,0,0,0,0, ,-37.1,98.6,996.8,-1,-0.5,-1.8,25,-14.0357,-7.56949,-5.82345,1.38546,-2.42535,-0.222116
2026_06_10_15_44_51.496,3.757,29.9,0,0.76,0,0,0,0, ,0,0,0,0,0, ,-35.2,94.8,998.4,-1,-0.5,-1.8,25,-13.1615,-7.26196,-5.62098,1.39221,-2.51393,-0.280499
2026_06_10_15_44_51.515,3.757,29.9,0,0.76,0,0,0,0, ,0,0,0,0,0, ,-37.8,94.2,1000.1,-0.7,-0.4,-1.8,25,-12.2826,-7.04162,-5.31981,1.39912,-2.58332,-0.334636
2026_06_10_15_44_51.535,3.757,29.9,0,0.759,0,0,0,0, ,0,0,0,0,0, ,-35.2,95.2,998.4,-0.7,-0.4,-1.7,25,-11.3862,-6.78758,-5.0072,1.40615,-2.63413,-0.382016
2026_06_10_15_44_51.562,3.757,30,0,0.757,0,0,0,0, ,0,0,0,0,0, ,-36.4,98.2,997,-0.7,-0.4,-1.8,25,-10.4434,-6.41446,-4.76126,1.4059,-2.66947,-0.42519
2026_06_10_15_44_51.575,3.757,29.9,0,0.758,0,0,0,0, ,0,0,0,0,0, ,-36.6,96.9,997.6,-0.6,-0.5,-1.8,25,-9.52963,-5.98634,-4.52354,1.4012,-2.69236,-0.466604
2026_06_10_15_44_51.595,3.757,29.9,0,0.758,0,0,0,0, ,0,0,0,0,0, ,-37.4,95.9,1000.4,-0.8,-0.4,-1.8,25,-8.63824,-5.60611,-4.1918,1.38736,-2.70087,-0.503686
2026_06_10_15_44_51.614,3.757,29.9,0,0.759,0,0,0,0, ,0,0,0,0,0, ,-37.3,95.7,998.4,-0.6,-0.4,-1.8,25,-7.76517,-5.24633,-3.83606,1.36737,-2.6932,-0.536468
2026_06_10_15_44_51.634,3.757,29.8,0,0.759,0,0,0,0, ,0,0,0,0,0, ,-37.1,94.4,997,-0.7,-0.4,-1.7,25,-6.88929,-4.91512,-3.56224,1.34407,-2.67263,-0.562546
2026_06_10_15_44_51.654,3.757,29.9,0,0.759,0,0,0,0, ,0,0,0,0,0, ,-36,97.4,999.6,-0.5,-0.4,-1.7,25,-5.99054,-4.53424,-3.25486,1.31774,-2.63989,-0.582121
2026_06_10_15_44_51.673,3.757,29.8,0,0.759,0,0,0,0, ,0,0,0,0,0, ,-36.8,95.9,997.6,-0.6,-0.5,-1.8,25,-5.09898,-4.11291,-2.93181,1.28866,-2.59821,-0.600319
2026_06_10_15_44_51.693,3.757,29.8,0,0.76,0,0,0,0, ,0,0,0,0,0, ,-37.2,96.8,999.3,-0.7,-0.4,-1.7,25,-4.25545,-3.70669,-2.6175,1.24975,-2.54576,-0.614666
2026_06_10_15_44_51.714,3.757,29.8,0,0.759,0,0,0,0, ,0,0,0,0,0, ,-35.7,95.2,996.2,-0.5,-0.4,-1.7,25,-3.40534,-3.31929,-2.34004,1.20904,-2.48089,-0.622827
2026_06_10_15_44_51.733,3.757,29.8,0,0.759,0,0,0,0, ,0,0,0,0,0, ,-35.8,94.4,998.5,-0.7,-0.4,-1.8,25,-2.54581,-2.99339,-2.08427,1.16438,-2.40697,-0.629972
2026_06_10_15_44_51.753,3.757,29.7,0,0.758,0,0,0,0, ,0,0,0,0,0, ,-36.2,95.4,998.7,-0.6,-0.4,-1.7,25,-1.72815,-2.66381,-1.76947,1.11371,-2.32482,-0.633661
2026_06_10_15_44_51.776,3.757,29.7,0,0.758,0,0,0,0, ,0,0,0,0,0, ,-37.4,95.8,998.5,-0.6,-0.5,-1.8,25,-0.981302,-2.30293,-1.46139,1.06249,-2.23769,-0.634046
2026_06_10_15_44_51.796,3.757,29.8,0,0.759,0,0,0,0, ,0,0,0,0,0, ,-37.8,96.1,1000.4,-1.2,-0.4,-1.7,25,-0.305484,-1.93124,-1.11953,0.993827,-2.1438,-0.631288
2026_06_10_15_44_51.812,3.757,29.8,0,0.759,0,0,0,0, ,0,0,0,0,0, ,-37.2,92.4,997.5,-1,-0.4,-1.7,25,0.343599,-1.65164,-0.81344,0.91383,-2.0415,-0.623101
2026_06_10_15_44_51.832,3.757,29.9,0,0.758,0,0,0,0, ,0,0,0,0,0, ,-36.6,91.6,999.2,-0.5,-0.4,-1.7,25,0.988582,-1.48795,-0.547777,0.850418,-1.93416,-0.612246
2026_06_10_15_44_51.853,3.757,29.7,0,0.76,0,0,0,0, ,0,0,0,0,0, ,-36.3,96.8,999.7,-0.4,-0.5,-1.8,25,1.61913,-1.21706,-0.238497,0.800637,-1.825,-0.601357
2026_06_10_15_44_51.873,3.757,29.8,0,0.758,0,0,0,0, ,0,0,0,0,0, ,-37.4,99.1,998.4,-0.8,-0.5,-1.8,25,2.19116,-0.769552,0.0371745,0.741996,-1.71466,-0.590491
2026_06_10_15_44_51.892,3.757,29.8,0,0.758,0,0,0,0, ,0,0,0,0,0, ,-36.2,95.2,997.8,-1,-0.4,-1.8,25,2.72678,-0.37943,0.252551,0.667861,-1.59882,-0.577248
2026_06_10_15_44_51.912,3.757,29.9,0,0.76,0,0,0,0, ,0,0,0,0,0, ,-35.7,95.9,997.9,-0.5,-0.4,-1.8,25,3.26439,-0.0850406,0.443859,0.601426,-1.47833,-0.56181
2026_06_10_15_44_51.931,3.757,29.8,0,0.76,0,0,0,0, ,0,0,0,0,0, ,-36.8,97.4,997.6,-0.6,-0.4,-1.8,25,3.74483,0.249278,0.618693,0.545095,-1.35647,-0.54436
2026_06_10_15_44_51.951,3.757,29.9,0,0.759,0,0,0,0, ,0,0,0,0,0, ,-34.9,98.5,996.3,-0.8,-0.3,-1.8,25,4.20287,0.629728,0.742668,0.481483,-1.23144,-0.525083
2026_06_10_15_44_51.971,3.757,29.7,0,0.76,0,0,0,0, ,0,0,0,0,0, ,-36.2,96.3,997.1,-0.8,-0.4,-1.7,25,4.63244,0.961443,0.844641,0.413714,-1.10648,-0.501711
2026_06_10_15_44_51.991,3.757,29.8,0,0.759,0,0,0,0, ,0,0,0,0,0, ,-36.8,94.4,998.9,-0.9,-0.4,-1.7,25,4.97153,1.17161,1.00121,0.344778,-0.984646,-0.474561
2026_06_10_15_44_52.014,3.757,29.9,0,0.759,0,0,0,0, ,0,0,0,0,0, ,-37.5,94.9,998.7,-0.6,-0.4,-1.7,25,5.23761,1.33137,1.1844,0.282427,-0.863934,-0.446404
2026_06_10_15_44_52.034,3.757,29.7,0,0.759,0,0,0,0, ,0,0,0,0,0, ,-36.4,96.5,997.6,-0.6,-0.4,-1.7,25,5.47463,1.52823,1.32089,0.229099,-0.744885,-0.417427
2026_06_10_15_44_52.050,3.757,29.8,0,0.76,0,0,0,0, ,0,0,0,0,0, ,-37.5,96.3,999.2,-0.7,-0.5,-1.8,25,5.67305,1.74223,1.45643,0.174805,-0.630455,-0.390267
2026_06_10_15_44_52.070,3.757,29.9,0,0.759,0,0,0,0, ,0,0,0,0,0, ,-35.8,95.8,997.9,-0.7,-0.4,-1.7,25,5.84849,1.91998,1.58551,0.11986,-0.51853,-0.362515
2026_06_10_15_44_52.090,3.757,29.9,0,0.759,0,0,0,0, ,0,0,0,0,0, ,-36,95,997.1,-0.7,-0.4,-1.8,25,6.02329,2.04768,1.64895,0.0670192,-0.407087,-0.334338
2026_06_10_15_44_52.110,3.757,29.7,0,0.759,0,0,0,0, ,0,0,0,0,0, ,-37.4,96.3,998.1,-0.6,-0.4,-1.7,25,6.1206,2.17128,1.70605,0.0188917,-0.299103,-0.305895
2026_06_10_15_44_52.129,3.757,29.7,0,0.759,0,0,0,0, ,0,0,0,0,0, ,-36.2,95.5,998.1,-0.7,-0.4,-1.7,25,6.17806,2.29038,1.77647,-0.0269686,-0.194941,-0.274887
2026_06_10_15_44_52.149,3.757,29.8,0,0.758,0,0,0,0, ,0,0,0,0,0, ,-36.6,95.9,998.5,-0.6,-0.4,-1.8,25,6.22188,2.38255,1.84449,-0.0704469,-0.0949263,-0.246497
2026_06_10_15_44_52.169,3.757,29.7,0,0.759,0,0,0,0, ,0,0,0,0,0, ,-36,96.9,997.8,-0.6,-0.4,-1.8,25,6.23779,2.49278,1.89272,-0.108993,0.000651007,-0.220738
2026_06_10_15_44_52.189,3.757,29.8,0,0.759,0,0,0,0, ,0,0,0,0,0, ,-37.1,97.6,997.3,-0.7,-0.4,-1.7,25,6.20992,2.62701,1.89984,-0.147565,0.0915377,-0.192701
2026_06_10_15_44_52.209,3.757,29.8,0,0.759,0,0,0,0, ,0,0,0,0,0, ,-35.8,95.2,997.8,-0.8,-0.4,-1.8,25,6.15771,2.70002,1.89724,-0.188421,0.177516,-0.16509
2026_06_10_15_44_52.229,3.757,29.8,0,0.759,0,0,0,0, ,0,0,0,0,0, ,-35.8,93.5,997.9,-0.8,-0.4,-1.8,25,6.1096,2.6556,1.90014,-0.228798,0.258402,-0.140471
2026_06_10_15_44_52.250,3.757,29.8,0,0.76,0,0,0,0, ,0,0,0,0,0, ,-37.9,95.8,999.6,-0.6,-0.5,-1.7,25,5.98224,2.61499,1.93767,-0.261162,0.331597,-0.113915
2026_06_10_15_44_52.270,3.757,29.8,0,0.758,0,0,0,0, ,0,0,0,0,0, ,-36.7,97,997.6,-0.5,-0.4,-1.8,25,5.80957,2.64931,1.95644,-0.283295,0.399567,-0.0881006
2026_06_10_15_44_52.288,3.757,29.7,0,0.759,0,0,0,0, ,0,0,0,0,0, ,-36.3,97.6,998.6,-0.8,-0.4,-1.7,25,5.65598,2.71303,1.94014,-0.307852,0.464686,-0.0631177
2026_06_10_15_44_52.309,3.757,29.7,0,0.759,0,0,0,0, ,0,0,0,0,0, ,-35.2,96.8,997.1,-0.8,-0.5,-1.8,25,5.51882,2.75535,1.90281,-0.337043,0.52187,-0.0390491
2026_06_10_15_44_52.327,3.757,29.8,0,0.76,0,0,0,0, ,0,0,0,0,0, ,-36.2,96,999,-0.8,-0.5,-1.8,25,5.36365,2.74278,1.86775,-0.363141,0.571225,-0.0184205
2026_06_10_15_44_52.349,3.757,29.7,0,0.759,0,0,0,0, ,0,0,0,0,0, ,-36.3,96.5,998,-0.8,-0.5,-1.8,25,5.16268,2.70995,1.84727,-0.38617,0.615345,0.00128714
2026_06_10_15_44_52.367,3.757,29.8,0,0.758,0,0,0,0, ,0,0,0,0,0, ,-35.5,95.2,998.2,-0.7,-0.4,-1.8,25,4.96329,2.64576,1.79907,-0.403714,0.65672,0.0200219
2026_06_10_15_44_52.388,3.757,29.8,0,0.758,0,0,0,0, ,0,0,0,0,0, ,-38.4,94.8,998,-0.6,-0.4,-1.8,25,4.69772,2.52999,1.74437,-0.413504,0.695282,0.0377392
2026_06_10_15_44_52.407,3.757,29.8,0,0.761,0,0,0,0, ,0,0,0,0,0, ,-37.9,96.5,997.1,-0.7,-0.4,-1.7,25,4.36317,2.43931,1.65678,-0.420776,0.728526,0.0568538
2026_06_10_15_44_52.428,3.757,29.8,0,0.76,0,0,0,0, ,0,0,0,0,0, ,-36.2,96,999.2,-0.7,-0.4,-1.8,25,4.07747,2.37048,1.59475,-0.428069,0.756549,0.0747507
2026_06_10_15_44_52.446,3.757,29.7,0,0.759,0,0,0,0, ,0,0,0,0,0, ,-36.4,94.2,998.4,-0.7,-0.4,-1.8,25,3.82247,2.23694,1.55978,-0.432896,0.77947,0.0889493
2026_06_10_15_44_52.470,3.757,29.7,0,0.758,0,0,0,0, ,0,0,0,0,0, ,-38,95.5,997.5,-0.6,-0.5,-1.8,25,3.51701,2.08667,1.47715,-0.4329,0.794972,0.102013
2026_06_10_15_44_52.486,3.757,29.8,0,0.76,0,0,0,0, ,0,0,0,0,0, ,-36.6,96.5,998.1,-0.6,-0.4,-1.7,25,3.20428,1.98988,1.38394,-0.428318,0.805797,0.116386
2026_06_10_15_44_52.507,3.757,29.9,0,0.757,0,0,0,0, ,0,0,0,0,0, ,-36.4,98.8,998.9,-0.7,-0.4,-1.6,25,2.93034,1.96896,1.32281,-0.424302,0.814572,0.134384
2026_06_10_15_44_52.526,3.757,29.7,0,0.758,0,0,0,0, ,0,0,0,0,0, ,-36.8,96.3,997.3,-0.6,-0.4,-1.7,25,2.65048,1.93445,1.23854,-0.418392,0.818901,0.150838
2026_06_10_15_44_52.546,3.757,29.8,0,0.76,0,0,0,0, ,0,0,0,0,0, ,-36.4,95.5,997.5,-0.6,-0.4,-1.8,25,2.37129,1.81118,1.11797,-0.408258,0.818983,0.160837
2026_06_10_15_44_52.565,3.757,29.7,0,0.759,0,0,0,0, ,0,0,0,0,0, ,-37.1,95.4,999,-0.7,-0.5,-1.7,25,2.08675,1.66296,1.03948,-0.399061,0.812573,0.169553
2026_06_10_15_44_52.586,3.757,29.6,0,0.759,0,0,0,0, ,0,0,0,0,0, ,-36.4,96.4,998.9,-0.7,-0.4,-1.8,25,1.80587,1.53589,0.99406,-0.3908,0.802472,0.177005
2026_06_10_15_44_52.605,3.757,29.8,0,0.758,0,0,0,0, ,0,0,0,0,0, ,-36.8,96.3,999.6,-0.6,-0.4,-1.8,25,1.53723,1.42955,0.960677,-0.378567,0.791364,0.180768
2026_06_10_15_44_52.627,3.757,29.7,0,0.757,0,0,0,0, ,0,0,0,0,0, ,-36.7,95.9,997.5,-0.6,-0.4,-1.8,25,1.26683,1.30911,0.889866,-0.362615,0.7769,0.183456
2026_06_10_15_44_52.645,3.757,29.7,0,0.759,0,0,0,0, ,0,0,0,0,0, ,-37.3,95.5,997,-0.7,-0.4,-1.8,25,0.991193,1.16851,0.754387,-0.348111,0.759317,0.185107
2026_06_10_15_44_52.666,3.757,29.8,0,0.759,0,0,0,0, ,0,0,0,0,0, ,-37.2,96.8,997.4,-0.8,-0.4,-1.7,25,0.711925,1.05112,0.619382,-0.337507,0.738855,0.188217
2026_06_10_15_44_52.684,3.757,29.6,0,0.759,0,0,0,0, ,0,0,0,0,0, ,-36.2,95.7,999.2,-0.8,-0.4,-1.7,25,0.469818,0.939214,0.541894,-0.328212,0.715754,0.1927
2026_06_10_15_44_52.705,3.757,29.8,0,0.759,0,0,0,0, ,0,0,0,0,0, ,-36.9,95,998.7,-0.7,-0.5,-1.8,25,0.244626,0.784025,0.497414,-0.315303,0.687807,0.193561
2026_06_10_15_44_52.723,3.757,29.7,0,0.759,0,0,0,0, ,0,0,0,0,0, ,-35.4,95.8,998.2,-0.8,-0.4,-1.8,25,0.0488891,0.635036,0.428141,-0.301473,0.657841,0.190973
2026_06_10_15_44_52.744,3.757,29.7,0,0.76,0,0,0,0, ,0,0,0,0,0, ,-36.8,95.5,997.4,-0.7,-0.4,-1.8,25,-0.135037,0.502485,0.328279,-0.286836,0.628555,0.187571
2026_06_10_15_44_52.764,3.757,29.8,0,0.759,0,0,0,0, ,0,0,0,0,0, ,-36.1,96.3,998.1,-0.7,-0.4,-1.8,25,-0.326441,0.386218,0.229243,-0.269051,0.597607,0.183412
2026_06_10_15_44_52.785,3.757,29.7,0,0.759,0,0,0,0, ,0,0,0,0,0, ,-36.3,95.9,998.5,-0.8,-0.4,-1.8,25,-0.49459,0.28356,0.160907,-0.253264,0.565232,0.178552
2026_06_10_15_44_52.803,3.757,29.6,0,0.758,0,0,0,0, ,0,0,0,0,0, ,-35.6,96.3,998.2,-0.7,-0.5,-1.8,25,-0.639793,0.184538,0.0975833,-0.237004,0.529207,0.173051
2026_06_10_15_44_52.823,3.757,29.7,0,0.759,0,0,0,0, ,0,0,0,0,0, ,-34.9,95.4,1000,-0.7,-0.4,-1.7,25,-0.740392,0.0772027,0.0736664,-0.21792,0.49234,0.16942
2026_06_10_15_44_52.842,3.757,29.8,0,0.759,0,0,0,0, ,0,0,0,0,0, ,-37.7,96.8,998.4,-0.6,-0.4,-1.8,25,-0.883903,-0.0129884,0.055464,-0.196247,0.457307,0.165131
2026_06_10_15_44_52.864,3.757,29.8,0,0.759,0,0,0,0, ,0,0,0,0,0, ,-36.7,97.2,996.9,-0.6,-0.4,-1.8,25,-1.06016,-0.0545534,-0.0381355,-0.172217,0.421739,0.157787
2026_06_10_15_44_52.882,3.757,29.8,0,0.758,0,0,0,0, ,0,0,0,0,0, ,-36.6,97.2,998.6,-0.7,-0.4,-1.7,25,-1.19557,-0.0840025,-0.122053,-0.150969,0.385837,0.152477
2026_06_10_15_44_52.903,3.757,29.7,0,0.759,0,0,0,0, ,0,0,0,0,0, ,-35.8,96.8,997.8,-0.7,-0.5,-1.7,25,-1.29638,-0.121402,-0.179186,-0.132471,0.347342,0.149128
2026_06_10_15_44_52.922,3.757,29.7,0,0.759,0,0,0,0, ,0,0,0,0,0, ,-36.3,95.5,997.6,-0.7,-0.4,-1.8,25,-1.3785,-0.198056,-0.257155,-0.114228,0.309022,0.142757
2026_06_10_15_44_52.944,3.757,29.6,0,0.76,0,0,0,0, ,0,0,0,0,0, ,-35.5,93.6,998.2,-0.7,-0.4,-1.7,25,-1.44245,-0.348443,-0.320223,-0.0963159,0.273512,0.135995
2026_06_10_15_44_52.961,3.757,29.6,0,0.759,0,0,0,0, ,0,0,0,0,0, ,-37.3,96.3,998.4,-0.7,-0.4,-1.8,25,-1.52067,-0.47012,-0.359002,-0.078808,0.238395,0.128894
2026_06_10_15_44_52.982,3.757,29.6,0,0.758,0,0,0,0, ,0,0,0,0,0, ,-36.7,96,998.9,-0.7,-0.4,-1.8,25,-1.61698,-0.524661,-0.376944,-0.0617704,0.203825,0.119053
2026_06_10_15_44_53.001,3.757,29.7,0,0.759,0,0,0,0, ,0,0,0,0,0, ,-36.7,95.7,997.8,-0.6,-0.4,-1.7,25,-1.6859,-0.588655,-0.406862,-0.0428117,0.169946,0.111561
2026_06_10_15_44_53.025,3.757,29.6,0,0.759,0,0,0,0, ,0,0,0,0,0, ,-37.3,95.8,997.9,-0.6,-0.5,-1.8,25,-1.75783,-0.651513,-0.45783,-0.0221197,0.134439,0.103887
2026_06_10_15_44_53.040,3.757,29.6,0,0.759,0,0,0,0, ,0,0,0,0,0, ,-35.4,97.4,998.9,-0.7,-0.5,-1.7,25,-1.7857,-0.666391,-0.477067,-0.00478563,0.0975592,0.0960767
2026_06_10_15_44_53.062,3.757,29.7,0,0.759,0,0,0,0, ,0,0,0,0,0, ,-36.6,96.6,997.6,-0.8,-0.4,-1.7,25,-1.78623,-0.657638,-0.500367,0.00681758,0.064459,0.0906283
2026_06_10_15_44_53.080,3.757,29.8,0,0.759,0,0,0,0, ,0,0,0,0,0, ,-36.2,94.4,998.4,-0.7,-0.5,-1.8,25,-1.79755,-0.719638,-0.532319,0.0178181,0.0326645,0.0825483
2026_06_10_15_44_53.102,3.757,29.6,0,0.758,0,0,0,0, ,0,0,0,0,0, ,-37.5,95.2,997.6,-0.7,-0.4,-1.7,25,-1.82153,-0.809381,-0.560081,0.0306435,0.00226829,0.0744578
2026_06_10_15_44_53.120,3.757,29.7,0,0.759,0,0,0,0, ,0,0,0,0,0, ,-35.8,95.5,999,-0.7,-0.4,-1.8,25,-1.82554,-0.86376,-0.569009,0.0426889,-0.0241962,0.0663971
2026_06_10_15_44_53.142,3.757,29.6,0,0.759,0,0,0,0, ,0,0,0,0,0, ,-36.2,94.6,997.4,-0.6,-0.5,-1.7,25,-1.78849,-0.925929,-0.579598,0.0563853,-0.0516957,0.0584045
2026_06_10_15_44_53.160,3.757,29.6,0,0.758,0,0,0,0, ,0,0,0,0,0, ,-36.4,95.4,998.6,-0.7,-0.5,-1.8,25,-1.75915,-0.982937,-0.59662,0.0691321,-0.0800439,0.050516
2026_06_10_15_44_53.182,3.757,29.6,0,0.758,0,0,0,0, ,0,0,0,0,0, ,-36.4,95.9,996.5,-0.6,-0.4,-1.8,25,-1.72748,-1.00043,-0.631937,0.0809131,-0.104155,0.0403133
2026_06_10_15_44_53.199,3.757,29.6,0,0.758,0,0,0,0, ,0,0,0,0,0, ,-36.8,97.4,997.9,-0.8,-0.4,-1.8,25,-1.69866,-0.963086,-0.679572,0.0892653,-0.124119,0.0304123
2026_06_10_15_44_53.222,3.757,29.6,0,0.758,0,0,0,0, ,0,0,0,0,0, ,-37.3,95.5,998.6,-0.7,-0.4,-1.8,25,-1.68496,-0.932638,-0.670026,0.0943159,-0.142491,0.020847
2026_06_10_15_44_53.238,3.757,29.6,0,0.759,0,0,0,0, ,0,0,0,0,0, ,-37.3,95.3,999,-0.8,-0.4,-1.7,25,-1.67588,-0.950583,-0.630674,0.0986539,-0.15926,0.0141002
2026_06_10_15_44_53.261,3.757,29.6,0,0.759,0,0,0,0, ,0,0,0,0,0, ,-36.1,95.7,998.4,-0.8,-0.4,-1.8,25,-1.62956,-0.958058,-0.595046,0.0998409,-0.174422,0.00761486
2026_06_10_15_44_53.279,3.757,29.6,0,0.76,0,0,0,0, ,0,0,0,0,0, ,-36.6,96.3,997.1,-0.7,-0.5,-1.8,25,-1.56032,-0.935924,-0.604825,0.10293,-0.190433,-0.00104215
2026_06_10_15_44_53.301,3.757,29.6,0,0.759,0,0,0,0, ,0,0,0,0,0, ,-36.2,95.5,997.5,-0.6,-0.5,-1.7,25,-1.48923,-0.915167,-0.633213,0.110264,-0.207173,-0.00681729
2026_06_10_15_44_53.318,3.757,29.6,0,0.758,0,0,0,0, ,0,0,0,0,0, ,-36.4,96.1,998.5,-0.7,-0.5,-1.8,25,-1.40939,-0.895822,-0.622758,0.116695,-0.22207,-0.0122756
2026_06_10_15_44_53.342,3.757,29.5,0,0.759,0,0,0,0, ,0,0,0,0,0, ,-38.8,103.1,1005.4,-0.9,-0.4,-1.6,25,-1.39028,-0.686647,-0.416025,0.11488,-0.23269,-0.0149536
2026_06_10_15_44_53.358,3.757,29.6,0,0.76,0,0,0,0.001, ,0,0,0,0,0, ,-37.7,89.2,992.4,-0.9,-0.4,-1.7,25,-1.39713,-0.653546,-0.366962,0.107683,-0.239191,-0.0149743
2026_06_10_15_44_53.381,3.757,29.6,0,0.758,0,0,0,0, ,0,0,0,0,0, ,-35.6,101.3,996.3,-0.3,-0.4,-1.8,25,-1.31828,-0.662986,-0.541644,0.115021,-0.244194,-0.0198246
2026_06_10_15_44_53.397,3.757,29.6,0,0.758,0,0,0,0, ,0,0,0,0,0, ,-36.6,103.8,998.6,-0.7,-0.4,-1.7,25,-1.20984,-0.31068,-0.553057,0.126336,-0.247748,-0.0243393
2026_06_10_15_44_53.421,3.757,29.6,0,0.759,0,0,0,0, ,0,0,0,0,0, ,-36.1,100.7,997,-1.2,-0.4,-1.8,25,-1.11301,0.0111663,-0.544019,0.114405,-0.249906,-0.0285126
2026_06_10_15_44_53.437,3.757,29.4,0,0.758,0,0,0,0.001, ,0,0,0,0,0, ,-37.2,94.2,1001,-1.4,-0.5,-1.8,25,-1.03016,0.0817651,-0.473891,0.0853299,-0.25318,-0.0347929
2026_06_10_15_44_53.461,3.757,29.6,0,0.758,0,0,0,0.002, ,0,0,0,0,0, ,-35.7,92.6,999.1,-0.9,-0.4,-1.7,25,-0.936481,-0.0501264,-0.353372,0.0646166,-0.255045,-0.0381416
2026_06_10_15_44_53.477,3.757,29.6,0,0.759,0,0,0,0.001, ,0,0,0,0,0, ,-36.3,92.4,996.7,-0.5,-0.3,-1.7,25,-0.820716,-0.219441,-0.342465,0.0666702,-0.250657,-0.0386859
2026_06_10_15_44_53.500,3.757,29.6,0,0.759,0,0,0,0.001, ,0,0,0,0,0, ,-37.3,97.6,999.5,-0.2,-0.4,-1.6,25,-0.745818,-0.256763,-0.320595,0.0854597,-0.24525,-0.0365607
2026_06_10_15_44_53.517,3.757,29.6,0,0.759,0,0,0,0.001, ,0,0,0,0,0, ,-38.2,99.7,997.3,-0.5,-0.4,-1.7,25,-0.717509,-0.111981,-0.283506,0.102906,-0.241351,-0.0343595
2026_06_10_15_44_53.540,3.757,29.6,0,0.759,0,0,0,0.001, ,0,0,0,0,0, ,-35.2,98.9,998,-1.3,-0.4,-1.8,25,-0.635556,0.05813,-0.283621,0.0920167,-0.236453,-0.0370013
2026_06_10_15_44_53.556,3.757,29.5,0,0.759,0,0,0,0.001, ,0,0,0,0,0, ,-36,96.3,998,-0.9,-0.4,-1.8,25,-0.500543,0.136239,-0.265167,0.0713988,-0.230631,-0.0417833
2026_06_10_15_44_53.579,3.757,29.5,0,0.757,0,0,0,0.002, ,0,0,0,0,0, ,-38.5,93.8,995.7,-0.9,-0.5,-1.8,25,-0.450606,0.084785,-0.302711,0.0612489,-0.22641,-0.0461249
2026_06_10_15_44_53.599,3.757,29.6,0,0.758,0,0,0,0.002, ,0,0,0,0,0, ,-35.5,93.8,999.2,-0.5,-0.4,-1.8,25,-0.388637,-0.025867,-0.307496,0.0611036,-0.22128,-0.0500263
2026_06_10_15_44_53.623,3.757,29.6,0,0.759,0,0,0,0.001, ,0,0,0,0,0, ,-37.7,95.4,998.4,-0.4,-0.4,-1.8,25,-0.308174,-0.0917303,-0.244321,0.072925,-0.212859,-0.0534897
2026_06_10_15_44_53.636,3.757,29.5,0,0.76,0,0,0,0.001, ,0,0,0,0,0, ,-36.9,98.1,997.5,-0.7,-0.4,-1.8,25,-0.264469,-0.0484686,-0.224728,0.078903,-0.203801,-0.0565197
2026_06_10_15_44_53.662,3.757,29.6,0,0.758,0,0,0,0.002, ,0,0,0,0,0, ,-35.8,97,998.9,-0.7,-0.5,-1.8,25,-0.175013,0.0321448,-0.192728,0.0768424,-0.196636,-0.0591225
2026_06_10_15_44_53.675,3.757,29.5,0,0.759,0,0,0,0.001, ,0,0,0,0,0, ,-34.7,96.9,997.4,-0.7,-0.4,-1.8,25,-0.0351337,0.0792204,-0.163798,0.0745043,-0.188853,-0.0613064
2026_06_10_15_44_53.696,3.757,29.5,0,0.759,0,0,0,0.002, ,0,0,0,0,0, ,-35.8,97.5,997.6,-0.9,-0.4,-1.8,25,0.0980583,0.135858,-0.16736,0.0670092,-0.178069,-0.0630809
2026_06_10_15_44_53.714,3.757,29.6,0,0.758,0,0,0,0.002, ,0,0,0,0,0, ,-35.7,93.2,999.7,-0.7,-0.4,-1.8,25,0.199713,0.0983176,-0.113523,0.0595516,-0.166936,-0.0644576
2026_06_10_15_44_53.736,3.757,29.6,0,0.759,0,0,0,0.001, ,0,0,0,0,0, ,-36.7,93.8,999.3,-0.5,-0.5,-1.8,25,0.273329,-0.0285957,-0.0200791,0.0619748,-0.157979,-0.0654491
2026_06_10_15_44_53.755,3.757,29.6,0,0.759,0,0,0,0.001, ,0,0,0,0,0, ,-38.4,96.5,999.5,-0.6,-0.5,-1.7,25,0.275779,-0.0682225,0.063976,0.0664259,-0.151135,-0.0636172
2026_06_10_15_44_53.778,3.757,29.5,0,0.759,0,0,0,0.001, ,0,0,0,0,0, ,-36.8,97.6,997.8,-0.7,-0.4,-1.8,25,0.274298,-0.0123877,0.106811,0.065427,-0.141429,-0.0615617
2026_06_10_15_44_53.794,3.757,29.5,0,0.76,0,0,0,0.002, ,0,0,0,0,0, ,-36.1,97.7,996.9,-0.8,-0.4,-1.8,25,0.327937,0.0701957,0.0832633,0.0592504,-0.12905,-0.0617557
2026_06_10_15_44_53.816,3.757,29.5,0,0.76,0,0,0,0.002, ,0,0,0,0,0, ,-36.4,96.1,998.6,-0.7,-0.4,-1.7,25,0.387138,0.111601,0.0800771,0.0530847,-0.116642,-0.0591837
2026_06_10_15_44_53.834,3.757,29.6,0,0.759,0,0,0,0.002, ,0,0,0,0,0, ,-37.1,95.2,997.6,-0.7,-0.5,-1.8,25,0.417006,0.0891209,0.0938164,0.0494119,-0.10672,-0.0564462
2026_06_10_15_44_53.856,3.757,29.5,0,0.758,0,0,0,0.001, ,0,0,0,0,0, ,-36.2,95.9,998.4,-0.7,-0.4,-1.7,25,0.448259,0.0624002,0.101516,0.0456757,-0.0967589,-0.0535648
2026_06_10_15_44_53.877,3.757,29.6,0,0.758,0,0,0,0.002, ,0,0,0,0,0, ,-36.9,95.4,998.6,-0.7,-0.5,-1.8,25,0.480674,0.0415868,0.13286,0.0418976,-0.0868092,-0.0505607
2026_06_10_15_44_53.900,3.757,29.5,0,0.759,0,0,0,0.002, ,0,0,0,0,0, ,-37.9,96.5,996.8,-0.6,-0.4,-1.8,25,0.467443,0.0363022,0.122776,0.0405506,-0.0769197,-0.0499069
2026_06_10_15_44_53.913,3.757,29.6,0,0.759,0,0,0,0.002, ,0,0,0,0,0, ,-35.8,96.4,997.6,-0.7,-0.4,-1.8,25,0.479531,0.0556195,0.0880606,0.0390697,-0.064684,-0.0490392
2026_06_10_15_44_53.936,3.757,29.6,0,0.758,0,0,0,0.002, ,0,0,0,0,0, ,-36.3,94.6,998.2,-0.7,-0.4,-1.8,25,0.527898,0.0271242,0.0889442,0.0350167,-0.0527296,-0.0479724
2026_06_10_15_44_53.953,3.757,29.5,0,0.759,0,0,0,0.002, ,0,0,0,0,0, ,-37.8,95.8,998.5,-0.7,-0.5,-1.8,25,0.522249,-0.0148203,0.111416,0.03099,-0.0435537,-0.0467214
2026_06_10_15_44_53.976,3.757,29.6,0,0.759,0,0,0,0.003, ,0,0,0,0,0, ,-37.4,96.8,997.9,-0.7,-0.4,-1.8,25,0.487328,-0.000686916,0.124881,0.027008,-0.0346132,-0.0453016
2026_06_10_15_44_53.992,3.757,29.5,0,0.758,0,0,0,0.002, ,0,0,0,0,0, ,-37.4,96.1,998.4,-0.7,-0.5,-1.8,25,0.461527,0.020113,0.134618,0.0230882,-0.0259406,-0.0437282
2026_06_10_15_44_54.015,3.757,29.5,0,0.759,0,0,0,0.003, ,0,0,0,0,0, ,-37.1,97.7,996.7,-0.7,-0.4,-1.7,25,0.442073,0.0618631,0.113788,0.0192468,-0.0175655,-0.0395642
2026_06_10_15_44_54.031,3.757,29.6,0,0.76,0,0,0,0.003, ,0,0,0,0,0, ,-36.2,95.8,997.1,-0.8,-0.5,-1.7,25,0.450821,0.0939043,0.0615394,0.0130469,-0.00951457,-0.0329573
2026_06_10_15_44_54.054,3.757,29.5,0,0.759,0,0,0,0.002, ,0,0,0,0,0, ,-36.8,94.6,997.8,-0.6,-0.4,-1.8,25,0.464275,0.0478944,0.0385232,0.00953882,-0.00181159,-0.0289642
2026_06_10_15_44_54.071,3.757,29.6,0,0.758,0,0,0,0.003, ,0,0,0,0,0, ,-38.2,94.4,998.5,-0.7,-0.5,-1.7,25,0.425737,-0.0304253,0.0507768,0.00860797,0.00552254,-0.0250242
2026_06_10_15_44_54.094,3.757,29.6,0,0.757,0,0,0,0.002, ,0,0,0,0,0, ,-37.9,95.9,997.5,-0.7,-0.5,-1.7,25,0.360017,-0.0728759,0.054823,0.00522819,0.0100176,-0.0187019
2026_06_10_15_44_54.110,3.757,29.6,0,0.758,0,0,0,0.002, ,0,0,0,0,0, ,-36.4,94.8,998.2,-0.6,-0.4,-1.7,25,0.339885,-0.103077,0.0510444,0.00444056,0.016695,-0.0125975
2026_06_10_15_44_54.133,3.757,29.5,0,0.757,0,0,0,0.002, ,0,0,0,0,0, ,-37.2,96.6,999,-0.6,-0.4,-1.8,25,0.336231,-0.114123,0.083982,0.00612183,0.0254148,-0.00918258
2026_06_10_15_44_54.151,3.757,29.6,0,0.759,0,0,0,0.003, ,0,0,0,0,0, ,-37.3,96,998.1,-0.6,-0.3,-1.8,25,0.309029,-0.09464,0.112437,0.00769048,0.0360339,-0.00834204
2026_06_10_15_44_54.174,3.757,29.6,0,0.759,0,0,0,0.002, ,0,0,0,0,0, ,-37.4,95.7,998.7,-0.7,-0.4,-1.7,25,0.276734,-0.0977152,0.131587,0.00669213,0.0459546,-0.00504944
2026_06_10_15_44_54.190,3.757,29.6,0,0.759,0,0,0,0.002, ,0,0,0,0,0, ,-35.5,95.7,997.9,-0.6,-0.4,-1.7,25,0.288798,-0.107515,0.144245,0.00570977,0.0527101,0.00055872
2026_06_10_15_44_54.213,3.757,29.6,0,0.758,0,0,0,0.002, ,0,0,0,0,0, ,-35.8,95,999.3,-0.7,-0.4,-1.8,25,0.338082,-0.133469,0.170285,0.00474745,0.0588745,0.00343693
2026_06_10_15_44_54.230,3.757,29.6,0,0.759,0,0,0,0.002, ,0,0,0,0,0, ,-36.9,95.5,998.4,-0.7,-0.4,-1.8,25,0.348952,-0.162396,0.206469,0.00135676,0.0644465,0.00370488
2026_06_10_15_44_54.252,3.757,29.6,0,0.759,0,0,0,0.002, ,0,0,0,0,0, ,-35.8,96.8,998.5,-0.6,-0.4,-1.7,25,0.357569,-0.144966,0.220243,0.000577837,0.0694275,0.00639359
2026_06_10_15_44_54.269,3.757,29.6,0,0.76,0,0,0,0.002, ,0,0,0,0,0, ,-36.7,96.6,999.2,-0.6,-0.4,-1.8,25,0.368906,-0.100702,0.251874,0.00228643,0.0738222,0.00891893
2026_06_10_15_44_54.293,3.757,29.5,0,0.761,0,0,0,0.002, ,0,0,0,0,0, ,-36.8,95.5,998.9,-0.7,-0.5,-1.7,25,0.353347,-0.089991,0.290522,0.0014478,0.0751853,0.0112765
2026_06_10_15_44_54.309,3.757,29.6,0,0.759,0,0,0,0.003, ,0,0,0,0,0, ,-36.6,95.8,998.9,-0.7,-0.4,-1.7,25,0.339262,-0.0989789,0.318486,-0.001809,0.076111,0.015915
2026_06_10_15_44_54.332,3.757,29.5,0,0.759,0,0,0,0.003, ,0,0,0,0,0, ,-35.2,95.9,997.3,-0.6,-0.4,-1.8,25,0.363431,-0.0972296,0.304273,-0.002445,0.0790684,0.0177954
2026_06_10_15_44_54.349,3.757,29.5,0,0.759,0,0,0,0.003, ,0,0,0,0,0, ,-35.5,97.5,998.7,-0.7,-0.5,-1.8,25,0.411596,-0.0534002,0.284354,-0.00303776,0.079039,0.0170437
2026_06_10_15_44_54.373,3.757,29.5,0,0.757,0,0,0,0.003, ,0,0,0,0,0, ,-36.7,95.2,997,-0.7,-0.4,-1.8,25,0.418589,-0.0286224,0.256653,-0.00603864,0.0786214,0.0162449
2026_06_10_15_44_54.388,3.757,29.5,0,0.758,0,0,0,0.003, ,0,0,0,0,0, ,-37.2,96.5,996.2,-0.7,-0.4,-1.8,25,0.381489,-0.0294404,0.167743,-0.00886258,0.080289,0.0154052
2026_06_10_15_44_54.411,3.757,29.5,0,0.76,0,0,0,0.004, ,0,0,0,0,0, ,-36.4,95,998.4,-0.7,-0.4,-1.7,25,0.351685,-0.0349774,0.116697,-0.0115043,0.0814792,0.016983
2026_06_10_15_44_54.428,3.757,29.6,0,0.759,0,0,0,0.004, ,0,0,0,0,0, ,-36,96.6,997.8,-0.7,-0.4,-1.8,25,0.351035,-0.0376183,0.106813,-0.0139599,0.0822094,0.0183996
2026_06_10_15_44_54.454,3.757,29.5,0,0.759,0,0,0,0.003, ,0,0,0,0,0, ,-36.4,94.6,997.8,-0.6,-0.4,-1.7,25,0.348687,-0.049753,0.082174,-0.013774,0.0824986,0.0196561
2026_06_10_15_44_54.468,3.757,29.5,0,0.759,0,0,0,0.004, ,0,0,0,0,0, ,-36,95.4,997.5,-0.6,-0.4,-1.7,25,0.344736,-0.0904733,0.0509821,-0.0110772,0.0823671,0.0232063
2026_06_10_15_44_54.497,3.757,29.5,0,0.758,0,0,0,0.004, ,0,0,0,0,0, ,-37.8,95.4,998.7,-0.6,-0.5,-1.7,25,0.30495,-0.109133,0.0431387,-0.00845806,0.079384,0.026468
2026_06_10_15_44_54.507,3.757,29.6,0,0.76,0,0,0,0.004, ,0,0,0,0,0, ,-37.2,96.5,999.3,-0.7,-0.4,-1.8,25,0.236186,-0.0993665,0.0796059,-0.00837786,0.0761559,0.0269871
2026_06_10_15_44_54.529,3.757,29.5,0,0.759,0,0,0,0.003, ,0,0,0,0,0, ,-37.5,96,997.9,-0.7,-0.4,-1.8,25,0.176987,-0.0748761,0.0942754,-0.0107125,0.075163,0.0248956
2026_06_10_15_44_54.547,3.757,29.6,0,0.76,0,0,0,0.004, ,0,0,0,0,0, ,-35.6,94.9,998,-0.6,-0.5,-1.8,25,0.159053,-0.0904523,0.075883,-0.0104276,0.0713962,0.022784
2026_06_10_15_44_54.572,3.757,29.4,0,0.759,0,0,0,0.003, ,0,0,0,0,0, ,-35.8,96.1,997.5,-0.7,-0.4,-1.7,25,0.182902,-0.102367,0.0482094,-0.0101053,0.0674623,0.0231159
2026_06_10_15_44_54.586,3.757,29.5,0,0.758,0,0,0,0.005, ,0,0,0,0,0, ,-36.8,96.6,997.8,-0.7,-0.4,-1.7,25,0.175254,-0.0715056,0.0167508,-0.0122012,0.065841,0.0257696
2026_06_10_15_44_54.610,3.757,29.6,0,0.759,0,0,0,0.004, ,0,0,0,0,0, ,-36.7,96,998.2,-0.8,-0.5,-1.8,25,0.145048,-0.0442578,0.00391797,-0.0165864,0.0615225,0.0257141
2026_06_10_15_44_54.626,3.757,29.5,0,0.759,0,0,0,0.003, ,0,0,0,0,0, ,-36,96,998.1,-0.6,-0.4,-1.7,25,0.135226,-0.0328411,-0.000948669,-0.0182225,0.0571127,0.0255346
2026_06_10_15_44_54.650,3.757,29.6,0,0.757,0,0,0,0.004, ,0,0,0,0,0, ,-37.5,94.6,998.7,-0.8,-0.5,-1.8,25,0.105601,-0.0561528,0.00668885,-0.0196887,0.0526377,0.025238
2026_06_10_15_44_54.666,3.757,29.5,0,0.759,0,0,0,0.003, ,0,0,0,0,0, ,-36.3,95.5,998,-0.7,-0.4,-1.8,25,0.0695529,-0.0903052,0.0114673,-0.023438,0.0481227,0.0223795
2026_06_10_15_44_54.690,3.757,29.5,0,0.759,0,0,0,0.004, ,0,0,0,0,0, ,-35.8,94.4,998.9,-0.6,-0.4,-1.8,25,0.0766165,-0.127242,0.0208594,-0.0219837,0.0460441,0.0195508
2026_06_10_15_44_54.706,3.757,29.5,0,0.759,0,0,0,0.004, ,0,0,0,0,0, ,-36.2,96.1,997.1,-0.6,-0.4,-1.7,25,0.0854083,-0.147027,0.00761816,-0.0180401,0.0438406,0.0192167
2026_06_10_15_44_54.730,3.757,29.5,0,0.759,0,0,0,0.004, ,0,0,0,0,0, ,-37.5,96.3,998.9,-0.6,-0.4,-1.8,25,0.0516611,-0.118526,-0.00501128,-0.0142011,0.0415291,0.0188042
2026_06_10_15_44_54.745,3.757,29.5,0,0.758,0,0,0,0.004, ,0,0,0,0,0, ,-36.9,96.5,996.9,-0.7,-0.5,-1.8,25,0.0021493,-0.0810305,-0.0218998,-0.0129325,0.0366741,0.0158672
2026_06_10_15_44_54.768,3.757,29.5,0,0.759,0,0,0,0.004, ,0,0,0,0,0, ,-35.5,94.8,998.1,-0.7,-0.4,-1.8,25,0.00409834,-0.0817566,-0.0574705,-0.0141145,0.0318764,0.012996
2026_06_10_15_44_54.789,3.757,29.5,0,0.759,0,0,0,0.004, ,0,0,0,0,0, ,-37.4,95.7,998.9,-0.7,-0.5,-1.8,25,-0.00632922,-0.101662,-0.0419703,-0.0151691,0.027157,0.0102016
2026_06_10_15_44_54.812,3.757,29.5,0,0.759,0,0,0,0.004, ,0,0,0,0,0, ,-36.1,95.5,998.7,-0.7,-0.4,-1.8,25,-0.0309271,-0.102924,-0.0123096,-0.0160971,0.0225352,0.00749389
2026_06_10_15_44_54.824,3.757,29.6,0,0.759,0,0,0,0.005, ,0,0,0,0,0, ,-36,96.3,997.9,-0.6,-0.4,-1.7,25,-0.0198359,-0.0889046,-0.00856453,-0.0144481,0.0204812,0.00733425
2026_06_10_15_44_54.848,3.757,29.5,0,0.76,0,0,0,0.004, ,0,0,0,0,0, ,-36.4,96.8,997.4,-0.7,-0.4,-1.7,25,-0.0165475,-0.0432563,-0.0368387,-0.0128088,0.0184269,0.00959844
2026_06_10_15_44_54.865,3.757,29.4,0,0.759,0,0,0,0.005, ,0,0,0,0,0, ,-36.8,95.5,997.8,-0.7,-0.5,-1.8,25,-0.0329561,-0.0192509,-0.0659977,-0.013639,0.0139304,0.00925213
2026_06_10_15_44_54.890,3.757,29.6,0,0.759,0,0,0,0.005, ,0,0,0,0,0, ,-37.1,95.9,998.5,-0.6,-0.4,-1.7,25,-0.0655625,-0.0183974,-0.0664282,-0.011909,0.00958584,0.00887721
2026_06_10_15_44_54.904,3.757,29.5,0,0.759,0,0,0,0.004, ,0,0,0,0,0, ,-36.8,96.1,999.5,-0.7,-0.5,-1.7,25,-0.0962468,-0.00278214,-0.0248232,-0.0102052,0.00540707,0.0109291
2026_06_10_15_44_54.928,3.757,29.5,0,0.758,0,0,0,0.005, ,0,0,0,0,0, ,-37.8,95.8,997.5,-0.7,-0.4,-1.8,25,-0.142117,0.00962887,-0.0096579,-0.0109868,0.00140659,0.0103743
2026_06_10_15_44_54.943,3.757,29.5,0,0.758,0,0,0,0.005, ,0,0,0,0,0, ,-37.2,96.5,998.2,-0.7,-0.4,-1.8,25,-0.194846,0.0311924,-0.0270666,-0.011676,4.75E-05,0.00734345
2026_06_10_15_44_54.967,3.757,29.5,0,0.759,0,0,0,0.005, ,0,0,0,0,0, ,-36.1,97,997.9,-0.7,-0.5,-1.8,25,-0.202342,0.0809706,-0.0336788,-0.0122738,-0.00369726,0.00442505
2026_06_10_15_44_54.983,3.757,29.5,0,0.759,0,0,0,0.005, ,0,0,0,0,0, ,-36.7,95.3,997.4,-0.8,-0.5,-1.8,25,-0.196212,0.0984825,-0.0594178,-0.015234,-0.00969234,0.00162797
2026_06_10_15_44_55.008,3.757,29.5,0,0.759,0,0,0,0.005, ,0,0,0,0,0, ,-36.7,94.6,998,-0.7,-0.4,-1.7,25,-0.204129,0.0557984,-0.08115,-0.0179739,-0.0128935,0.0014122
2026_06_10_15_44_55.022,3.757,29.6,0,0.76,0,0,0,0.005, ,0,0,0,0,0, ,-36,95.3,999.1,-0.6,-0.5,-1.7,25,-0.193486,0.0149326,-0.059731,-0.0155865,-0.0158741,0.00365221
2026_06_10_15_44_55.047,3.757,29.5,0,0.758,0,0,0,0.004, ,0,0,0,0,0, ,-37.7,95.5,998,-0.7,-0.4,-1.7,25,-0.206934,-0.00193304,-0.0390681,-0.0132394,-0.0186303,0.00576436
2026_06_10_15_44_55.062,3.757,29.4,0,0.759,0,0,0,0.005, ,0,0,0,0,0, ,-37.2,95.3,999.3,-0.6,-0.4,-1.8,25,-0.248128,-0.017962,-0.0143213,-0.0109421,-0.0187073,0.00529236
2026_06_10_15_44_55.086,3.757,29.6,0,0.76,0,0,0,0.006, ,0,0,0,0,0, ,-36,95.8,997.4,-0.7,-0.4,-1.7,25,-0.244392,-0.0257598,-0.00543007,-0.00870365,-0.0186884,0.00481743
2026_06_10_15_44_55.102,3.757,29.5,0,0.758,0,0,0,0.004, ,0,0,0,0,0, ,-36.6,96.6,997.8,-0.7,-0.5,-1.8,25,-0.224922,-0.00117029,-0.0337305,-0.0089842,-0.0210304,0.00434205
2026_06_10_15_44_55.127,3.757,29.6,0,0.759,0,0,0,0.005, ,0,0,0,0,0, ,-36.2,95.9,997.5,-0.7,-0.4,-1.8,25,-0.210203,0.0246712,-0.0580252,-0.00920671,-0.023154,0.00141642
2026_06_10_15_44_55.144,3.757,29.5,0,0.759,0,0,0,0.005, ,0,0,0,0,0, ,-36.4,95.2,997.5,-0.7,-0.4,-1.7,25,-0.190265,0.0147935,-0.0881986,-0.00937294,-0.0226071,0.00107946
2026_06_10_15_44_55.168,3.757,29.6,0,0.755,0,0,0,0.005, ,0,0,0,0,0, ,-36.4,94.8,998.4,-0.7,-0.4,-1.7,25,-0.175272,-0.0216465,-0.0943875,-0.00948482,-0.0219756,0.00320586
2026_06_10_15_44_55.181,3.757,29.5,0,0.758,0,0,0,0.005, ,0,0,0,0,0, ,-35.4,95.8,998.6,-0.7,-0.4,-1.8,25,-0.135629,-0.0414795,-0.0728346,-0.00954447,-0.0212668,0.00276001
2026_06_10_15_44_55.206,3.757,29.6,0,0.758,0,0,0,0.005, ,0,0,0,0,0, ,-36.6,94.8,998.4,-0.7,-0.4,-1.8,25,-0.102165,-0.0601354,-0.0519797,-0.00955416,-0.020488,-0.000129726
2026_06_10_15_44_55.221,3.757,29.6,0,0.758,0,0,0,0.005, ,0,0,0,0,0, ,-35.7,94.2,997.9,-0.7,-0.4,-1.8,25,-0.0771964,-0.116815,-0.0490553,-0.00951628,-0.0196464,-0.0028771
2026_06_10_15_44_55.245,3.757,29.6,0,0.758,0,0,0,0.005, ,0,0,0,0,0, ,-37.1,94.6,998.4,-0.7,-0.4,-1.8,25,-0.0653323,-0.175043,-0.0460327,-0.00943337,-0.0187492,-0.00547556
2026_06_10_15_44_55.261,3.757,29.4,0,0.759,0,0,0,0.005, ,0,0,0,0,0, ,-35,97.4,997.9,-0.6,-0.5,-1.7,25,-0.0365628,-0.151084,-0.0429314,-0.00685587,-0.0202558,-0.00546744
2026_06_10_15_44_55.286,3.757,29.5,0,0.76,0,0,0,0.006, ,0,0,0,0,0, ,-36.3,96.6,997.5,-0.8,-0.4,-1.7,25,0.0105931,-0.0785117,-0.0618406,-0.00682315,-0.0215887,-0.00298061
2026_06_10_15_44_55.299,3.757,29.5,0,0.759,0,0,0,0.006, ,0,0,0,0,0, ,-37.9,96.8,998.2,-0.7,-0.4,-1.7,25,-0.0157286,-0.0238248,-0.0721616,-0.00921057,-0.0202976,-0.000601058
2026_06_10_15_44_55.324,3.757,29.5,0,0.759,0,0,0,0.006, ,0,0,0,0,0, ,-36.8,97,997.1,-0.7,-0.4,-1.7,25,-0.0529426,0.0381062,-0.09143,-0.00898336,-0.0189699,0.00166476
2026_06_10_15_44_55.339,3.757,29.5,0,0.758,0,0,0,0.006, ,0,0,0,0,0, ,-36,96.4,998.6,-0.7,-0.5,-1.7,25,-0.0414796,0.0870034,-0.099495,-0.00872301,-0.0200659,0.00381125
2026_06_10_15_44_55.363,3.757,29.6,0,0.759,0,0,0,0.006, ,0,0,0,0,0, ,-37.3,95.4,997.9,-0.7,-0.5,-1.7,25,-0.0426351,0.0938392,-0.0870557,-0.00843244,-0.0234615,0.00583368
2026_06_10_15_44_55.379,3.757,29.6,0,0.759,0,0,0,0.005, ,0,0,0,0,0, ,-36.2,96.4,998.6,-0.7,-0.4,-1.8,25,-0.0484281,0.0998773,-0.0747975,-0.00811456,-0.0241227,0.00527602
2026_06_10_15_44_55.405,3.757,29.5,0,0.759,0,0,0,0.005, ,0,0,0,0,0, ,-36.7,94.4,998.2,-0.6,-0.4,-1.8,25,-0.0389855,0.0806054,-0.0554156,-0.00532013,-0.0221804,0.00226755
2026_06_10_15_44_55.419,3.757,29.6,0,0.759,0,0,0,0.006, ,0,0,0,0,0, ,-36,94.7,998.2,-0.6,-0.4,-1.8,25,-0.0249095,0.0201946,-0.0465189,-0.000184357,-0.0202241,-0.000604551
2026_06_10_15_44_55.447,3.757,29.5,0,0.759,0,0,0,0.005, ,0,0,0,0,0, ,-36.1,95.8,996.9,-0.6,-0.4,-1.8,25,0.00331201,-0.00302271,-0.069707,0.00470044,-0.0182641,-0.00333282
2026_06_10_15_44_55.458,3.757,29.5,0,0.759,0,0,0,0.006, ,0,0,0,0,0, ,-35.2,96,997.4,-0.6,-0.4,-1.7,25,0.0497504,0.0067917,-0.111031,0.00932252,-0.0163102,-0.00345869
2026_06_10_15_44_55.483,3.757,29.5,0,0.759,0,0,0,0.006, ,0,0,0,0,0, ,-36.3,96.5,997.5,-0.6,-0.4,-1.7,25,0.0887617,0.0332564,-0.13507,0.013672,-0.0143717,-0.0011092
2026_06_10_15_44_55.497,3.757,29.5,0,0.758,0,0,0,0.006, ,0,0,0,0,0, ,-35.8,95.9,997.3,-0.7,-0.4,-1.8,25,0.110709,0.0558071,-0.159716,0.0152886,-0.0124575,-0.00132161
2026_06_10_15_44_55.522,3.757,29.6,0,0.76,0,0,0,0.006, ,0,0,0,0,0, ,-37.4,95.3,997.8,-0.7,-0.4,-1.7,25,0.104061,0.047551,-0.175011,0.0142984,-0.0105758,-0.0015171
2026_06_10_15_44_55.537,3.757,29.5,0,0.758,0,0,0,0.005, ,0,0,0,0,0, ,-37.1,95.5,998.6,-0.7,-0.5,-1.8,25,0.0653483,0.0296567,-0.156815,0.0132863,-0.0111864,-0.00169553
2026_06_10_15_44_55.562,3.757,29.5,0,0.76,0,0,0,0.006, ,0,0,0,0,0, ,-36.3,95.3,998.2,-0.7,-0.4,-1.7,25,0.0551857,0.0124939,-0.128929,0.0122583,-0.0117119,-0.00185685
2026_06_10_15_44_55.578,3.757,29.6,0,0.758,0,0,0,0.006, ,0,0,0,0,0, ,-36.7,96,999,-0.7,-0.5,-1.7,25,0.0550582,0.00837206,-0.0919669,0.0112204,-0.0121539,0.000451057
