UTC_Time,Vin,TC1,TC2,Rh1,Vh1,Ah1,Acp1,Dty1,Err1,Rh2,Vh2,Ah2,Acp2,Dty2,Err2,Accel_x,Accel_y,Accel_z,gyro_x,gyro_y,gyro_z,Temp_c,Accel_x_h,Accel_y_h,Accel_z_h,gyro_x_h,gyro_y_h,gyro_z_h,
2026_06_26_17_08_16.716,3.87,57.1,0,0.777,0,0,0,0, ,0,0,0,0,0, ,409.3,899.6,-123.9,-1,1.7,-2.2,25,409.3,899.6,-123.9,-1,1.7,-2.2,
2026_06_26_17_08_16.736,3.87,56.6,0,0.779,0,0,0,0, ,0,0,0,0,0, ,409.6,900.2,-113,-1.5,0.6,-1.5,25,409.309,899.618,-123.568,-1.01523,1.66648,-2.17867,
2026_06_26_17_08_16.756,3.87,56.6,0,0.777,0,0,0,0, ,0,0,0,0,0, ,410.6,897.4,-118.5,-2.1,-0.7,-1.4,25,409.357,899.568,-123.091,-1.06306,1.56189,-2.13427,
2026_06_26_17_08_16.776,3.87,56.5,0,0.779,0,0,0,0, ,0,0,0,0,0, ,411.8,894.6,-125.8,-1.3,-0.4,-1.3,25,409.47,899.351,-123.034,-1.10187,1.43319,-2.08648,
2026_06_26_17_08_16.795,3.87,56.6,0,0.777,0,0,0,0, ,0,0,0,0,0, ,412.2,892.3,-123.2,0.3,0.4,-1.9,25,409.624,898.991,-123.123,-1.06519,1.34586,-2.05683,
2026_06_26_17_08_16.815,3.87,56.6,0,0.779,0,0,0,0, ,0,0,0,0,0, ,410.5,897.9,-118.1,1,0.3,-2.4,25,409.729,898.754,-122.973,-0.960674,1.28517,-2.06251,
2026_06_26_17_08_16.834,3.87,56.5,0,0.777,0,0,0,0, ,0,0,0,0,0, ,408.6,904,-116.2,-0.1,-0.3,-1.7,25,409.718,898.888,-122.618,-0.874711,1.20686,-2.06175,
2026_06_26_17_08_16.855,3.87,56.6,0,0.777,0,0,0,0, ,0,0,0,0,0, ,409.3,897.7,-108.8,-1.5,-2.5,-1.1,25,409.671,899.008,-122.001,-0.870158,1.048,-2.02142,
2026_06_26_17_08_16.882,3.87,56.5,0,0.777,0,0,0,0, ,0,0,0,0,0, ,410,891.9,-127.3,-1.7,-3.1,-1.8,25,409.67,898.751,-121.761,-0.914633,0.813515,-1.9866,
2026_06_26_17_08_16.894,3.87,56.6,0,0.778,0,0,0,0, ,0,0,0,0,0, ,412.3,891.4,-136.5,-0.1,-0.9,-2.7,25,409.76,898.318,-122.378,-0.913741,0.642066,-2.00265,
2026_06_26_17_08_16.914,3.87,56.4,0,0.777,0,0,0,0, ,0,0,0,0,0, ,408.9,899.1,-121.9,0.3,0.9,-2.9,25,409.811,898.131,-122.794,-0.851966,0.60294,-2.05124,
2026_06_26_17_08_16.934,3.87,56.5,0,0.779,0,0,0,0, ,0,0,0,0,0, ,409.1,898.3,-114.9,0,-0.6,-2.3,25,409.762,898.166,-122.526,-0.790909,0.575339,-2.08468,
2026_06_26_17_08_16.954,3.87,56.5,0,0.777,0,0,0,0, ,0,0,0,0,0, ,410.4,898.9,-121.9,-1.2,-0.8,-2.2,25,409.761,898.193,-122.275,-0.779276,0.497623,-2.09475,
2026_06_26_17_08_16.973,3.87,56.4,0,0.776,0,0,0,0, ,0,0,0,0,0, ,409.6,897.2,-117.6,-2,-1.5,-2,25,409.776,898.184,-122.121,-0.829288,0.397221,-2.09507,
2026_06_26_17_08_16.993,3.87,56.4,0,0.776,0,0,0,0, ,0,0,0,0,0, ,410.1,896.7,-125.2,-0.6,-1.3,-2.1,25,409.78,898.109,-122.077,-0.857972,0.287703,-2.09233,
2026_06_26_17_08_17.016,3.87,56.3,0,0.777,0,0,0,0, ,0,0,0,0,0, ,409.1,898.1,-124.3,0,-1,-2.1,25,409.769,898.066,-122.24,-0.823971,0.200093,-2.0928,
2026_06_26_17_08_17.033,3.87,56.4,0,0.777,0,0,0,0, ,0,0,0,0,0, ,408.6,895.5,-117.4,-0.5,-1.2,-2.2,25,409.713,897.988,-122.155,-0.788995,0.120869,-2.09628,
2026_06_26_17_08_17.052,3.87,56.2,0,0.778,0,0,0,0, ,0,0,0,0,0, ,409.9,900.7,-136.5,-0.2,-0.1,-2.5,25,409.685,897.995,-122.447,-0.762243,0.0738938,-2.11174,
2026_06_26_17_08_17.072,3.87,56.3,0,0.776,0,0,0,0, ,0,0,0,0,0, ,409.4,897.9,-124.8,0.6,1.7,-1.8,25,409.683,898.075,-122.947,-0.703607,0.118141,-2.11407,
2026_06_26_17_08_17.092,3.87,56.4,0,0.776,0,0,0,0, ,0,0,0,0,0, ,407.1,900.5,-116.5,-1.1,1,-2.1,25,409.596,898.143,-122.807,-0.675965,0.193207,-2.10408,
2026_06_26_17_08_17.112,3.87,56.2,0,0.777,0,0,0,0, ,0,0,0,0,0, ,407.4,901.6,-108.7,-1.1,-0.4,-1.7,25,409.453,898.32,-122.185,-0.701805,0.199715,-2.09164,
2026_06_26_17_08_17.132,3.87,56.3,0,0.776,0,0,0,0, ,0,0,0,0,0, ,409.9,894.1,-127.3,-1.1,-1.2,-2.2,25,409.404,898.292,-121.93,-0.72607,0.138795,-2.08301,
2026_06_26_17_08_17.155,3.87,56.4,0,0.777,0,0,0,0, ,0,0,0,0,0, ,409.1,894.2,-130.7,-0.5,0.2,-2.8,25,409.41,898.039,-122.361,-0.730575,0.0998683,-2.10842,
2026_06_26_17_08_17.171,3.87,56.3,0,0.777,0,0,0,0, ,0,0,0,0,0, ,408.5,898.8,-125.7,0,1.9,-3.2,25,409.372,897.946,-122.717,-0.70129,0.157767,-2.16275,
2026_06_26_17_08_17.191,3.87,56.3,0,0.777,0,0,0,0, ,0,0,0,0,0, ,407.4,901.7,-113,-0.6,1.1,-2.9,25,409.286,898.086,-122.512,-0.676836,0.239559,-2.21682,
2026_06_26_17_08_17.211,3.87,56.1,0,0.778,0,0,0,0, ,0,0,0,0,0, ,407.4,899.7,-122.8,-0.4,0.8,-2.5,25,409.171,898.245,-122.231,-0.66606,0.282852,-2.24626,
2026_06_26_17_08_17.231,3.87,56.1,0,0.775,0,0,0,0, ,0,0,0,0,0, ,406.4,903.4,-109.9,-0.4,0.3,-1.7,25,409.032,898.447,-121.872,-0.649847,0.299131,-2.23735,
2026_06_26_17_08_17.250,3.87,56.1,0,0.778,0,0,0,0, ,0,0,0,0,0, ,406,902.3,-111.4,-0.9,-1.9,-1,25,408.86,898.715,-121.188,-0.649857,0.232153,-2.18327,
2026_06_26_17_08_17.271,3.87,56.2,0,0.776,0,0,0,0, ,0,0,0,0,0, ,408.8,900.1,-125.1,-0.4,-1.4,-0.3,25,408.771,898.866,-121.009,-0.649865,0.117459,-2.08984,
2026_06_26_17_08_17.295,3.87,56,0,0.775,0,0,0,0, ,0,0,0,0,0, ,409.4,892.3,-120.4,-0.3,-1.2,-0.8,25,408.791,898.704,-121.115,-0.631592,0.0310827,-1.99601,
2026_06_26_17_08_17.310,3.87,56,0,0.777,0,0,0,0, ,0,0,0,0,0, ,408.5,897.3,-128.5,0.1,-0.5,-1.4,25,408.801,898.466,-121.319,-0.599198,-0.0226083,-1.94141,
2026_06_26_17_08_17.330,3.87,56.1,0,0.777,0,0,0,0, ,0,0,0,0,0, ,408.9,899.9,-121.3,0.4,0.4,-1.4,25,408.795,898.474,-121.537,-0.54745,-0.0242775,-1.90841,
2026_06_26_17_08_17.350,3.87,56,0,0.777,0,0,0,0, ,0,0,0,0,0, ,410.2,898.4,-126.8,0.8,1,-1.6,25,408.841,898.515,-121.69,-0.477528,0.0198582,-1.88353,
2026_06_26_17_08_17.369,3.87,56.2,0,0.777,0,0,0,0, ,0,0,0,0,0, ,408.8,891.7,-112.1,0.4,0.6,-2.4,25,408.881,898.304,-121.554,-0.411866,0.0673981,-1.89062,
2026_06_26_17_08_17.389,3.87,56,0,0.779,0,0,0,0, ,0,0,0,0,0, ,407.1,898.4,-118.2,-1.3,-0.8,-3.2,25,408.824,898.106,-121.163,-0.41419,0.0571973,-1.94604,
2026_06_26_17_08_17.409,3.87,55.9,0,0.777,0,0,0,0, ,0,0,0,0,0, ,408,902,-120.6,-1,-0.9,-2.5,25,408.746,898.234,-121.056,-0.459028,0.00191494,-2.00112,
2026_06_26_17_08_17.434,3.87,56.1,0,0.777,0,0,0,0, ,0,0,0,0,0, ,406.6,898.1,-115.9,-1.1,-1.4,-2.1,25,408.658,898.344,-120.885,-0.49504,-0.0682799,-2.01934,
2026_06_26_17_08_17.447,3.87,55.9,0,0.776,0,0,0,0, ,0,0,0,0,0, ,408.5,895.5,-126.9,-0.3,-1.3,-2.6,25,408.591,898.25,-120.916,-0.50753,-0.146385,-2.03949,
2026_06_26_17_08_17.468,3.87,55.9,0,0.778,0,0,0,0, ,0,0,0,0,0, ,408.2,898.1,-134.5,0.3,1.1,-3.2,25,408.576,898.162,-121.512,-0.476602,-0.143558,-2.09192,
2026_06_26_17_08_17.488,3.87,55.9,0,0.775,0,0,0,0, ,0,0,0,0,0, ,406,902.8,-114.8,0.1,1.2,-2.9,25,408.486,898.301,-121.704,-0.435372,-0.0647319,-2.15031,
2026_06_26_17_08_17.508,3.87,55.9,0,0.776,0,0,0,0, ,0,0,0,0,0, ,405.2,903.5,-107.9,-0.7,-0.7,-2.2,25,408.31,898.597,-121.073,-0.427123,-0.0455529,-2.17466,
2026_06_26_17_08_17.527,3.87,55.9,0,0.776,0,0,0,0, ,0,0,0,0,0, ,406.4,900.5,-124.1,-0.5,-1.4,-1.9,25,408.157,898.804,-120.764,-0.437657,-0.106761,-2.16707,
2026_06_26_17_08_17.547,3.87,55.9,0,0.776,0,0,0,0, ,0,0,0,0,0, ,406.8,901.1,-127,-0.1,-0.1,-1.7,25,408.062,898.926,-121.055,-0.429269,-0.145959,-2.1447,
2026_06_26_17_08_17.568,3.87,55.8,0,0.776,0,0,0,0, ,0,0,0,0,0, ,405.3,903.3,-119,-0.3,-0.5,-1.1,25,407.94,899.125,-121.174,-0.415298,-0.155346,-2.09932,
2026_06_26_17_08_17.586,3.87,55.8,0,0.776,0,0,0,0, ,0,0,0,0,0, ,408.5,893.5,-124.2,-0.1,-0.5,-1.2,25,407.876,899.081,-121.2,-0.402178,-0.176348,-2.04147,
2026_06_26_17_08_17.607,3.87,55.9,0,0.776,0,0,0,0, ,0,0,0,0,0, ,407.4,894.2,-115.6,-1,-0.9,-2.2,25,407.881,898.762,-121.121,-0.411186,-0.208258,-2.02066,
2026_06_26_17_08_17.627,3.87,55.8,0,0.777,0,0,0,0, ,0,0,0,0,0, ,407.7,902.4,-126.5,-0.7,-0.8,-2.4,25,407.861,898.734,-121.116,-0.437926,-0.247364,-2.03768,
2026_06_26_17_08_17.647,3.87,55.9,0,0.777,0,0,0,0, ,0,0,0,0,0, ,405.5,901.4,-123.2,-0.7,0,-1.7,25,407.784,898.927,-121.344,-0.453896,-0.256665,-2.03843,
2026_06_26_17_08_17.666,3.87,55.8,0,0.776,0,0,0,0, ,0,0,0,0,0, ,405.7,899.1,-120.4,-0.9,0.1,-1.9,25,407.651,899.008,-121.372,-0.474987,-0.237978,-2.0239,
2026_06_26_17_08_17.686,3.87,55.8,0,0.777,0,0,0,0, ,0,0,0,0,0, ,406.8,896.1,-122.4,-0.7,0.1,-2,25,407.565,898.922,-121.373,-0.494793,-0.217382,-2.0194,
2026_06_26_17_08_17.706,3.87,55.8,0,0.778,0,0,0,0, ,0,0,0,0,0, ,405.5,896.1,-120.4,0,0.9,-2.6,25,407.479,898.75,-121.375,-0.485969,-0.173667,-2.0365,
2026_06_26_17_08_17.727,3.87,55.9,0,0.775,0,0,0,0, ,0,0,0,0,0, ,405.6,902,-118.1,-0.5,0.7,-2.8,25,407.362,898.768,-121.245,-0.47159,-0.114334,-2.07693,
2026_06_26_17_08_17.745,3.87,55.8,0,0.777,0,0,0,0, ,0,0,0,0,0, ,405,902.8,-115.1,0,0,-2.2,25,407.236,898.989,-120.962,-0.458087,-0.0860388,-2.10271,
2026_06_26_17_08_17.765,3.87,55.7,0,0.779,0,0,0,0, ,0,0,0,0,0, ,406,897.7,-115.8,-0.7,-1.3,-2.1,25,407.13,899.066,-120.626,-0.4515,-0.120405,-2.10559,
2026_06_26_17_08_17.785,3.87,55.7,0,0.776,0,0,0,0, ,0,0,0,0,0, ,404.2,895.5,-117.9,-0.8,-1.8,-2.7,25,407.006,898.916,-120.396,-0.46969,-0.207521,-2.12353,
2026_06_26_17_08_17.805,3.87,55.8,0,0.778,0,0,0,0, ,0,0,0,0,0, ,406.1,905.5,-119.6,-0.5,-2.2,-2.5,25,406.893,899.013,-120.296,-0.480678,-0.31675,-2.15257,
2026_06_26_17_08_17.825,3.87,55.5,0,0.777,0,0,0,0, ,0,0,0,0,0, ,404.1,906.6,-126.5,0.2,-1.1,-1.4,25,406.784,899.441,-120.464,-0.460527,-0.397995,-2.14023,
2026_06_26_17_08_17.845,3.87,55.7,0,0.776,0,0,0,0, ,0,0,0,0,0, ,406,895.1,-127.3,-0.1,-0.3,-1.2,25,406.678,899.527,-120.856,-0.429417,-0.416399,-2.08902,
2026_06_26_17_08_17.864,3.87,55.7,0,0.779,0,0,0,0, ,0,0,0,0,0, ,407.1,893.4,-128.1,-0.2,0.9,-2.4,25,406.671,899.206,-121.273,-0.41239,-0.372743,-2.07141,
2026_06_26_17_08_17.884,3.87,55.5,0,0.776,0,0,0,0, ,0,0,0,0,0, ,403,906.6,-111.4,0,1.1,-2.4,25,406.572,899.254,-121.18,-0.393354,-0.289092,-2.09143,
2026_06_26_17_08_17.904,3.87,55.7,0,0.776,0,0,0,0, ,0,0,0,0,0, ,403,906.1,-106.4,-1,-1.5,-0.9,25,406.354,899.686,-120.432,-0.399852,-0.283663,-2.06453,
2026_06_26_17_08_17.924,3.87,55.5,0,0.774,0,0,0,0, ,0,0,0,0,0, ,407.7,890.7,-131.1,-1.7,-2.2,-1.2,25,406.293,899.608,-120.329,-0.457752,-0.379111,-2.00271,
2026_06_26_17_08_17.943,3.87,55.4,0,0.775,0,0,0,0, ,0,0,0,0,0, ,407.9,892.2,-137.8,-0.6,1.5,-3,25,406.385,899.111,-121.19,-0.499936,-0.377337,-2.00864,
2026_06_26_17_08_17.963,3.87,55.3,0,0.776,0,0,0,0, ,0,0,0,0,0, ,402,901.6,-110.2,-0.1,2.2,-3.2,25,406.297,898.976,-121.361,-0.490799,-0.241609,-2.07514,
2026_06_26_17_08_17.982,3.87,55.4,0,0.775,0,0,0,0, ,0,0,0,0,0, ,401.9,910.6,-105.3,-1,-0.6,-2.1,25,406.032,899.41,-120.532,-0.494407,-0.178136,-2.11018,
2026_06_26_17_08_18.003,3.87,55.5,0,0.776,0,0,0,0, ,0,0,0,0,0, ,405.3,899.1,-125.8,-1,-1,-1.4,25,405.884,899.742,-120.228,-0.525216,-0.216031,-2.08823,
2026_06_26_17_08_18.023,3.87,55.4,0,0.776,0,0,0,0, ,0,0,0,0,0, ,405.3,892.5,-126.4,-0.4,0.2,-2.1,25,405.849,899.502,-120.586,-0.535867,-0.227241,-2.06762,
2026_06_26_17_08_18.043,3.87,55.4,0,0.776,0,0,0,0, ,0,0,0,0,0, ,402,903.9,-111.8,0,0.4,-2.6,25,405.715,899.422,-120.495,-0.5154,-0.195113,-2.08482,
2026_06_26_17_08_18.062,3.87,55.3,0,0.777,0,0,0,0, ,0,0,0,0,0, ,403.1,909.3,-104.8,-0.4,-2,-1.2,25,405.522,899.86,-119.752,-0.496181,-0.231973,-2.07356,
2026_06_26_17_08_18.082,3.87,55.3,0,0.776,0,0,0,0, ,0,0,0,0,0, ,405.1,897.2,-122.5,-0.9,-3.1,-0.3,25,405.435,900.066,-119.38,-0.505554,-0.373228,-1.99291,
2026_06_26_17_08_18.101,3.87,55.3,0,0.778,0,0,0,0, ,0,0,0,0,0, ,408.2,888.1,-132.6,-0.3,-0.8,-1.6,25,405.509,899.614,-119.878,-0.511309,-0.469312,-1.92935,
2026_06_26_17_08_18.122,3.87,55.4,0,0.776,0,0,0,0, ,0,0,0,0,0, ,405,898.6,-117,0.5,0.4,-2.8,25,405.576,899.233,-120.178,-0.474058,-0.452901,-1.94585,
2026_06_26_17_08_18.142,3.87,55.3,0,0.776,0,0,0,0, ,0,0,0,0,0, ,403.1,904.9,-109.2,0,-0.7,-2.2,25,405.483,899.386,-119.747,-0.429935,-0.434443,-1.97962,
2026_06_26_17_08_18.167,3.87,55.2,0,0.775,0,0,0,0, ,0,0,0,0,0, ,403.9,899.7,-118.1,-0.7,-1.8,-1.6,25,405.362,899.564,-119.375,-0.425064,-0.484141,-1.97476,
2026_06_26_17_08_18.181,3.87,55.3,0,0.775,0,0,0,0, ,0,0,0,0,0, ,403.9,896.6,-125.3,-0.7,-1.1,-2.3,25,405.273,899.477,-119.517,-0.441818,-0.542998,-1.97326,
2026_06_26_17_08_18.201,3.87,55.3,0,0.776,0,0,0,0, ,0,0,0,0,0, ,402.5,900.5,-121.5,-0.5,-0.5,-2.4,25,405.146,899.421,-119.754,-0.451457,-0.558659,-1.99621,
2026_06_26_17_08_18.221,3.87,55.3,0,0.776,0,0,0,0, ,0,0,0,0,0, ,402.4,906.6,-119.5,-1,-0.9,-1.8,25,404.982,899.673,-119.799,-0.46965,-0.567272,-2.00254,
2026_06_26_17_08_18.240,3.87,55.3,0,0.776,0,0,0,0, ,0,0,0,0,0, ,404.2,895.6,-119.9,-0.9,-0.8,-1.4,25,404.88,899.76,-119.793,-0.498921,-0.584501,-1.97801,
2026_06_26_17_08_18.260,3.87,55.2,0,0.775,0,0,0,0, ,0,0,0,0,0, ,404.1,895.6,-119.3,-0.7,-1.1,-2.4,25,404.835,899.506,-119.781,-0.517268,-0.606773,-1.97325,
2026_06_26_17_08_18.279,3.87,55.3,0,0.775,0,0,0,0, ,0,0,0,0,0, ,403.3,902.8,-127.3,-0.2,-0.3,-2.7,25,404.766,899.487,-119.996,-0.513169,-0.612454,-2.0084,
2026_06_26_17_08_18.299,3.87,55.2,0,0.776,0,0,0,0, ,0,0,0,0,0, ,402.7,905.2,-117.6,-0.8,0.2,-1.8,25,404.658,899.762,-120.145,-0.512366,-0.57818,-2.02312,
2026_06_26_17_08_18.322,3.87,55.1,0,0.777,0,0,0,0, ,0,0,0,0,0, ,401.8,898.9,-113.7,-1.2,-0.5,-1.9,25,404.512,899.902,-119.871,-0.542082,-0.552088,-2.01257,
2026_06_26_17_08_18.339,3.87,55.2,0,0.775,0,0,0,0, ,0,0,0,0,0, ,404.7,894.6,-124.3,-0.8,-0.7,-2.3,25,404.435,899.71,-119.818,-0.569986,-0.555007,-2.0179,
2026_06_26_17_08_18.359,3.87,55.1,0,0.776,0,0,0,0, ,0,0,0,0,0, ,402.7,902.8,-125.8,-0.6,0.4,-3,25,404.39,899.648,-120.137,-0.577909,-0.530327,-2.05642,
2026_06_26_17_08_18.379,3.87,55.1,0,0.776,0,0,0,0, ,0,0,0,0,0, ,401,907.4,-112,-0.9,0.3,-2.7,25,404.235,899.98,-120.062,-0.588396,-0.476682,-2.10478,
2026_06_26_17_08_18.398,3.87,55.2,0,0.776,0,0,0,0, ,0,0,0,0,0, ,401.6,900.5,-117.1,-0.5,-0.8,-2,25,404.056,900.222,-119.726,-0.595196,-0.462869,-2.11972,
2026_06_26_17_08_18.418,3.87,55.1,0,0.775,0,0,0,0, ,0,0,0,0,0, ,402.2,899.2,-121.9,-0.3,-0.4,-2.2,25,403.925,900.2,-119.712,-0.583302,-0.471225,-2.11852,
2026_06_26_17_08_18.438,3.87,55.1,0,0.775,0,0,0,0, ,0,0,0,0,0, ,402,896.4,-121.4,0,-0.2,-2.8,25,403.814,900.053,-119.83,-0.556897,-0.460791,-2.14177,
2026_06_26_17_08_18.459,3.87,55,0,0.776,0,0,0,0, ,0,0,0,0,0, ,401.3,905.1,-125.1,-1.1,0.3,-3.3,25,403.682,900.096,-120.039,-0.556477,-0.429665,-2.19711,
2026_06_26_17_08_18.478,3.87,54.9,0,0.775,0,0,0,0, ,0,0,0,0,0, ,399.6,908.5,-109.4,-1,-0.3,-2.2,25,403.485,900.504,-119.869,-0.586551,-0.403482,-2.2308,
2026_06_26_17_08_18.496,3.87,55,0,0.776,0,0,0,0, ,0,0,0,0,0, ,404.1,882.2,-112,0.3,-1.8,-2.1,25,403.385,900.19,-119.31,-0.572136,-0.442879,-2.22588,
2026_06_26_17_08_18.518,3.87,55.1,0,0.777,0,0,0,0, ,0,0,0,0,0, ,400.5,911.4,-136.5,-1.8,-3.7,-4.5,25,403.319,899.984,-119.611,-0.582975,-0.583469,-2.29133,
2026_06_26_17_08_18.537,3.87,54.9,0,0.779,0,0,0,0, ,0,0,0,0,0, ,399.6,912.1,-132.2,1.3,-0.5,-4.6,25,403.12,900.701,-120.509,-0.562684,-0.675883,-2.42897,
2026_06_26_17_08_18.557,3.87,54.9,0,0.776,0,0,0,0, ,0,0,0,0,0, ,394.7,914.5,-110.4,0.1,-1.6,-3.2,25,402.756,901.468,-120.557,-0.485739,-0.698681,-2.51861,
2026_06_26_17_08_18.576,3.87,55,0,0.775,0,0,0,0, ,0,0,0,0,0, ,397.3,907.1,-114.9,-2.2,-3.9,-1.8,25,402.344,902.037,-120.075,-0.520124,-0.823683,-2.51748,
2026_06_26_17_08_18.596,3.87,54.9,0,0.775,0,0,0,0, ,0,0,0,0,0, ,399.7,895,-130.1,-1.4,-3.6,-2.2,25,402.11,901.977,-120.223,-0.598116,-1.00201,-2.48594,
2026_06_26_17_08_18.616,3.87,55,0,0.777,0,0,0,0, ,0,0,0,0,0, ,398.8,904.1,-135,-0.6,-1.4,-2.5,25,401.936,901.829,-120.974,-0.622606,-1.09329,-2.47766,
2026_06_26_17_08_18.636,3.87,54.9,0,0.776,0,0,0,0, ,0,0,0,0,0, ,396.1,906.3,-123.6,0,0.2,-1.8,25,401.663,902.034,-121.482,-0.602947,-1.06323,-2.45769,
2026_06_26_17_08_18.656,3.87,54.8,0,0.776,0,0,0,0, ,0,0,0,0,0, ,397.5,902.2,-121.7,-0.8,-0.3,-1.7,25,401.366,902.169,-121.553,-0.59058,-1.00149,-2.41457,
2026_06_26_17_08_18.676,3.87,54.9,0,0.777,0,0,0,0, ,0,0,0,0,0, ,398,903.5,-123.6,-0.6,0,-1.5,25,401.146,902.211,-121.62,-0.597248,-0.949599,-2.36493,
2026_06_26_17_08_18.695,3.87,54.9,0,0.776,0,0,0,0, ,0,0,0,0,0, ,398.3,901.3,-114.3,-1,-0.4,-1.7,25,400.963,902.222,-121.457,-0.609603,-0.90392,-2.31832,
2026_06_26_17_08_18.715,3.87,54.9,0,0.776,0,0,0,0, ,0,0,0,0,0, ,398.1,900.3,-125.6,-0.7,-0.6,-1.9,25,400.795,902.136,-121.365,-0.624252,-0.879306,-2.28673,
2026_06_26_17_08_18.735,3.87,54.9,0,0.775,0,0,0,0, ,0,0,0,0,0, ,397.4,904.4,-119.8,0,-0.3,-1.8,25,400.609,902.149,-121.447,-0.60754,-0.853145,-2.26012,
2026_06_26_17_08_18.755,3.87,54.9,0,0.777,0,0,0,0, ,0,0,0,0,0, ,398.3,901,-125.3,-0.6,-0.5,-1.9,25,400.441,902.182,-121.514,-0.588799,-0.825532,-2.23513,
2026_06_26_17_08_18.774,3.87,54.8,0,0.777,0,0,0,0, ,0,0,0,0,0, ,399.5,896.2,-133.3,-0.5,0.8,-2.5,25,400.347,901.964,-121.988,-0.586435,-0.766085,-2.23299,
2026_06_26_17_08_18.794,3.87,54.8,0,0.778,0,0,0,0, ,0,0,0,0,0, ,397.5,904.1,-124.5,-0.5,2.6,-3.1,25,400.235,901.854,-122.409,-0.581168,-0.615808,-2.26754,
2026_06_26_17_08_18.814,3.87,54.8,0,0.778,0,0,0,0, ,0,0,0,0,0, ,395.5,911.9,-110.7,-0.4,1.9,-2,25,400.007,902.228,-122.116,-0.573175,-0.441173,-2.28475,
2026_06_26_17_08_18.834,3.87,54.7,0,0.776,0,0,0,0, ,0,0,0,0,0, ,395.8,905.6,-107.7,-0.7,-0.4,-0.5,25,399.742,902.626,-121.329,-0.571763,-0.368586,-2.2217,
2026_06_26_17_08_18.854,3.87,54.7,0,0.776,0,0,0,0, ,0,0,0,0,0, ,399.1,896.1,-127,-0.6,-1.2,-1.2,25,399.602,902.517,-121.087,-0.57653,-0.394875,-2.13811,
2026_06_26_17_08_18.873,3.87,54.8,0,0.775,0,0,0,0, ,0,0,0,0,0, ,396.8,900.2,-115.9,0.3,-0.7,-2,25,399.501,902.251,-121.109,-0.550539,-0.428703,-2.10532,
2026_06_26_17_08_18.894,3.87,54.8,0,0.777,0,0,0,0, ,0,0,0,0,0, ,396.2,906.3,-113.8,0.2,-2.4,-2.1,25,399.318,902.312,-120.728,-0.501756,-0.497032,-2.10195,
2026_06_26_17_08_18.914,3.87,54.6,0,0.776,0,0,0,0, ,0,0,0,0,0, ,396.9,905.3,-119,-0.5,-3.3,-1.7,25,399.15,902.525,-120.464,-0.480321,-0.640416,-2.08964,
2026_06_26_17_08_18.934,3.87,54.7,0,0.776,0,0,0,0, ,0,0,0,0,0, ,399,896.1,-132.9,-0.5,-2.4,-2.4,25,399.077,902.413,-120.798,-0.48152,-0.775063,-2.08722,
2026_06_26_17_08_18.953,3.87,54.6,0,0.776,0,0,0,0, ,0,0,0,0,0, ,395.7,906.7,-124.7,-0.7,-1.2,-2.3,25,398.971,902.352,-121.286,-0.48874,-0.83752,-2.10324,
2026_06_26_17_08_18.973,3.87,54.6,0,0.775,0,0,0,0, ,0,0,0,0,0, ,397.2,905.5,-123.6,-0.9,-1.2,-1.6,25,398.818,902.58,-121.46,-0.507707,-0.859608,-2.0939,
2026_06_26_17_08_18.993,3.87,54.7,0,0.775,0,0,0,0, ,0,0,0,0,0, ,398.8,896.8,-138.7,0,0.4,-1.7,25,398.768,902.493,-122.051,-0.504191,-0.831601,-2.06685,
2026_06_26_17_08_19.012,3.87,54.7,0,0.776,0,0,0,0, ,0,0,0,0,0, ,398.6,898,-137,1.2,3.6,-2.8,25,398.764,902.183,-123.014,-0.436904,-0.65905,-2.07801,
2026_06_26_17_08_19.032,3.87,54.5,0,0.776,0,0,0,0, ,0,0,0,0,0, ,396.1,907.1,-118.1,0.2,4.7,-3,25,398.678,902.205,-123.29,-0.367624,-0.365999,-2.1281,
2026_06_26_17_08_19.052,3.87,54.6,0,0.776,0,0,0,0, ,0,0,0,0,0, ,394.8,909.9,-109.8,-0.5,3.8,-2.7,25,398.481,902.589,-122.721,-0.354362,-0.0847115,-2.17209,
2026_06_26_17_08_19.072,3.87,54.6,0,0.776,0,0,0,0, ,0,0,0,0,0, ,393.7,907.1,-94.8,-1.6,-0.1,-1.8,25,398.223,902.949,-121.476,-0.396753,0.033185,-2.17684,
2026_06_26_17_08_19.091,3.87,54.6,0,0.776,0,0,0,0, ,0,0,0,0,0, ,396.3,900.8,-113.6,-1.8,-2.9,-2.1,25,398.027,903.01,-120.424,-0.47617,-0.0602435,-2.16302,
2026_06_26_17_08_19.111,3.87,54.5,0,0.776,0,0,0,0, ,0,0,0,0,0, ,397.3,903,-130.2,-1.1,-1.9,-2.4,25,397.952,902.942,-120.514,-0.535512,-0.202822,-2.16832,
2026_06_26_17_08_19.131,3.87,54.5,0,0.775,0,0,0,0, ,0,0,0,0,0, ,395.7,907.8,-117.5,-0.3,-1.2,-2,25,397.863,903.092,-120.717,-0.545536,-0.284916,-2.17025,
2026_06_26_17_08_19.151,3.87,54.5,0,0.776,0,0,0,0, ,0,0,0,0,0, ,394.8,903.5,-119.2,-0.9,-1.5,-1.8,25,397.704,903.248,-120.573,-0.548855,-0.34982,-2.15378,
2026_06_26_17_08_19.170,3.87,54.5,0,0.776,0,0,0,0, ,0,0,0,0,0, ,396.2,901.4,-125.2,-2,-1.4,-2.2,25,397.57,903.199,-120.672,-0.603768,-0.416862,-2.14441,
2026_06_26_17_08_19.191,3.87,54.5,0,0.778,0,0,0,0, ,0,0,0,0,0, ,396.8,903.5,-126.7,-0.7,-0.2,-2.3,25,397.505,903.154,-120.993,-0.649242,-0.440209,-2.15084,
2026_06_26_17_08_19.211,3.87,54.5,0,0.778,0,0,0,0, ,0,0,0,0,0, ,393.4,903.6,-113.8,-0.4,0,-2.3,25,397.358,903.178,-120.948,-0.643194,-0.419478,-2.15993,
2026_06_26_17_08_19.230,3.87,54.4,0,0.777,0,0,0,0, ,0,0,0,0,0, ,394.4,904,-113,-1.2,-1.4,-2.4,25,397.147,903.216,-120.488,-0.65275,-0.436572,-2.17151,
2026_06_26_17_08_19.249,3.87,54.5,0,0.776,0,0,0,0, ,0,0,0,0,0, ,395.2,899.9,-122.1,-1.1,-2.1,-2.8,25,397.004,903.139,-120.309,-0.683051,-0.516609,-2.19762,
2026_06_26_17_08_19.270,3.87,54.4,0,0.775,0,0,0,0, ,0,0,0,0,0, ,396.8,904.5,-130.8,0,-0.7,-3.2,25,396.943,903.081,-120.683,-0.674943,-0.570441,-2.24652,
2026_06_26_17_08_19.290,3.87,54.4,0,0.775,0,0,0,0, ,0,0,0,0,0, ,394.7,906,-123,0.8,0.9,-3.1,25,396.87,903.213,-121.062,-0.609439,-0.529586,-2.30158,
2026_06_26_17_08_19.309,3.87,54.4,0,0.777,0,0,0,0, ,0,0,0,0,0, ,392.8,905.5,-114.8,0.6,0.4,-2.8,25,396.68,903.368,-120.93,-0.529645,-0.457705,-2.34109,
2026_06_26_17_08_19.330,3.87,54.3,0,0.775,0,0,0,0, ,0,0,0,0,0, ,390.9,907.5,-113.5,0,-0.8,-2.6,25,396.386,903.559,-120.517,-0.479088,-0.442001,-2.36296,
2026_06_26_17_08_19.349,3.87,54.4,0,0.775,0,0,0,0, ,0,0,0,0,0, ,392.9,911.3,-119.2,-1.1,-1.9,-1.8,25,396.113,903.915,-120.263,-0.483409,-0.497332,-2.35303,
2026_06_26_17_08_19.369,3.87,54.3,0,0.775,0,0,0,0, ,0,0,0,0,0, ,393.1,899.5,-119.5,-1,-2.3,-1.4,25,395.923,904.005,-120.208,-0.517936,-0.594995,-2.30714,
2026_06_26_17_08_19.389,3.87,54.3,0,0.775,0,0,0,0, ,0,0,0,0,0, ,391.3,914.1,-129.7,-0.3,-3.2,-3.5,25,395.696,904.176,-120.475,-0.525984,-0.726315,-2.31585,
2026_06_26_17_08_19.410,3.87,54.3,0,0.776,0,0,0,0, ,0,0,0,0,0, ,391.9,910.4,-132.3,1.4,-0.1,-3.2,25,395.446,904.668,-121.117,-0.460416,-0.782602,-2.37887,
2026_06_26_17_08_19.429,3.87,54.3,0,0.776,0,0,0,0, ,0,0,0,0,0, ,389.5,910.4,-101.8,0,-2.4,-2.8,25,395.157,905.017,-120.869,-0.389703,-0.811084,-2.41672,
2026_06_26_17_08_19.448,3.87,54.2,0,0.776,0,0,0,0, ,0,0,0,0,0, ,391.1,907.2,-124.7,-1.7,-4.7,-2.2,25,394.861,905.248,-120.405,-0.417752,-0.977987,-2.42179,
2026_06_26_17_08_19.468,3.87,54.2,0,0.775,0,0,0,0, ,0,0,0,0,0, ,393.7,898.8,-141.7,-0.2,-1.7,-2.6,25,394.711,905.111,-121.184,-0.450186,-1.11339,-2.42046,
2026_06_26_17_08_19.488,3.87,54.3,0,0.776,0,0,0,0, ,0,0,0,0,0, ,391.2,907.4,-126.9,0,0.4,-3.1,25,394.573,904.988,-121.984,-0.428847,-1.08515,-2.44664,
2026_06_26_17_08_19.508,3.87,54.2,0,0.775,0,0,0,0, ,0,0,0,0,0, ,389.1,902.2,-116.2,0.5,0.4,-2.6,25,394.304,904.977,-121.957,-0.38748,-0.994652,-2.47122,
2026_06_26_17_08_19.527,3.87,54.1,0,0.777,0,0,0,0, ,0,0,0,0,0, ,388.9,904.7,-112.1,-2.7,-2.8,-2.6,25,393.981,904.884,-121.481,-0.430899,-1.00716,-2.47907,
2026_06_26_17_08_19.547,3.87,54.1,0,0.775,0,0,0,0, ,0,0,0,0,0, ,389.5,908.4,-135.1,-0.6,-2.1,-2.3,25,393.689,904.985,-121.61,-0.505188,-1.09509,-2.47729,
2026_06_26_17_08_19.567,3.87,54.2,0,0.775,0,0,0,0, ,0,0,0,0,0, ,391.4,905.1,-142.9,0.5,0.9,-2.1,25,393.492,905.093,-122.67,-0.47745,-1.06492,-2.4604,
2026_06_26_17_08_19.586,3.87,54.1,0,0.775,0,0,0,0, ,0,0,0,0,0, ,388.7,905.3,-116.4,0.2,1.3,-2.4,25,393.282,905.099,-123.095,-0.427027,-0.932994,-2.44758,
2026_06_26_17_08_19.607,3.87,54.2,0,0.776,0,0,0,0, ,0,0,0,0,0, ,389,904.1,-121.7,-0.3,0,-2.8,25,393.012,905.075,-122.849,-0.404052,-0.83653,-2.45686,
2026_06_26_17_08_19.626,3.87,54.2,0,0.775,0,0,0,0, ,0,0,0,0,0, ,389.1,909.9,-136.1,-0.1,1.3,-2.6,25,392.771,905.192,-123.218,-0.391618,-0.745945,-2.47168,
2026_06_26_17_08_19.646,3.87,54.1,0,0.775,0,0,0,0, ,0,0,0,0,0, ,389.8,910.6,-130.6,-0.2,3.3,-2.1,25,392.568,905.5,-123.835,-0.376894,-0.560332,-2.46427,
2026_06_26_17_08_19.666,3.87,54.2,0,0.775,0,0,0,0, ,0,0,0,0,0, ,386.1,912.5,-110.9,-0.3,2.3,-1.3,25,392.287,905.869,-123.647,-0.369161,-0.355562,-2.41769,
2026_06_26_17_08_19.685,3.87,54.1,0,0.776,0,0,0,0, ,0,0,0,0,0, ,387.5,906.6,-110.5,-0.7,0,-0.8,25,391.953,906.093,-122.858,-0.377134,-0.263817,-2.33435,
2026_06_26_17_08_19.706,3.87,54,0,0.776,0,0,0,0, ,0,0,0,0,0, ,389.6,900.2,-117.5,-0.5,-1,-1.2,25,391.745,905.929,-122.318,-0.390715,-0.278209,-2.25304,
2026_06_26_17_08_19.730,3.87,54,0,0.775,0,0,0,0, ,0,0,0,0,0, ,389.5,901.2,-119.9,-0.7,-1.5,-2.1,25,391.611,905.611,-122.098,-0.403469,-0.337428,-2.21629,
2026_06_26_17_08_19.745,3.87,54.1,0,0.774,0,0,0,0, ,0,0,0,0,0, ,388,909.1,-112.5,-0.4,-2.6,-2,25,391.437,905.583,-121.738,-0.412398,-0.441788,-2.20616,
2026_06_26_17_08_19.765,3.87,54,0,0.775,0,0,0,0, ,0,0,0,0,0, ,388.4,909.9,-114.3,-0.7,-3.4,-1.8,25,391.24,905.821,-121.23,-0.420783,-0.597679,-2.1875,
2026_06_26_17_08_19.785,3.87,54,0,0.776,0,0,0,0, ,0,0,0,0,0, ,390,907.1,-123.4,-1.2,-4.6,-1.3,25,391.116,905.984,-121.085,-0.453032,-0.805008,-2.14865,
2026_06_26_17_08_19.804,3.87,54,0,0.776,0,0,0,0, ,0,0,0,0,0, ,391.1,901.8,-145.9,-0.7,-2.3,-1.4,25,391.081,905.891,-121.912,-0.483316,-0.966187,-2.09998,
2026_06_26_17_08_19.824,3.87,53.8,0,0.775,0,0,0,0, ,0,0,0,0,0, ,389.5,902,-126,0,0.5,-2.3,25,391.033,905.648,-122.767,-0.475192,-0.962154,-2.08475,
2026_06_26_17_08_19.844,3.87,54,0,0.775,0,0,0,0, ,0,0,0,0,0, ,387.8,908,-117.5,-1,-0.6,-2.6,25,390.888,905.608,-122.705,-0.476704,-0.906569,-2.10701,
2026_06_26_17_08_19.864,3.87,53.8,0,0.776,0,0,0,0, ,0,0,0,0,0, ,388.3,909.1,-128.7,-0.8,-0.7,-2.1,25,390.715,905.788,-122.729,-0.502498,-0.890935,-2.12182,
2026_06_26_17_08_19.884,3.87,54,0,0.777,0,0,0,0, ,0,0,0,0,0, ,389.2,902.8,-131.5,-0.8,0.6,-2.1,25,390.596,905.797,-123.179,-0.520627,-0.83969,-2.12049,
2026_06_26_17_08_19.904,3.87,53.8,0,0.775,0,0,0,0, ,0,0,0,0,0, ,387.5,903.8,-118.5,-0.5,0.5,-2.4,25,390.459,905.645,-123.29,-0.528511,-0.755006,-2.12838,
2026_06_26_17_08_19.924,3.87,53.7,0,0.776,0,0,0,0, ,0,0,0,0,0, ,386.8,909,-114.5,-0.5,-0.5,-2.5,25,390.257,905.691,-122.876,-0.526774,-0.708998,-2.14798,
2026_06_26_17_08_19.943,3.87,53.8,0,0.775,0,0,0,0, ,0,0,0,0,0, ,386.7,909.3,-119.8,-0.3,-1.9,-2,25,390.043,905.902,-122.527,-0.519048,-0.738918,-2.15419,
2026_06_26_17_08_19.963,3.87,53.7,0,0.775,0,0,0,0, ,0,0,0,0,0, ,388.5,904.6,-119,-0.8,-1.8,-1.9,25,389.894,905.966,-122.336,-0.520935,-0.806625,-2.14175,
2026_06_26_17_08_19.982,3.87,53.8,0,0.774,0,0,0,0, ,0,0,0,0,0, ,387.5,903.6,-117.9,-0.8,-3.2,-2.3,25,389.779,905.852,-122.1,-0.53794,-0.909815,-2.13921,
2026_06_26_17_08_20.003,3.87,53.7,0,0.774,0,0,0,0, ,0,0,0,0,0, ,388,910,-129.3,-0.9,-3.1,-2.6,25,389.655,905.91,-122.191,-0.556956,-1.04633,-2.15815,
2026_06_26_17_08_20.023,3.87,53.8,0,0.775,0,0,0,0, ,0,0,0,0,0, ,388.4,911,-126.5,-0.8,-2.1,-1.6,25,389.567,906.19,-122.539,-0.574814,-1.141,-2.1546,
2026_06_26_17_08_20.042,3.87,53.7,0,0.775,0,0,0,0, ,0,0,0,0,0, ,387.2,905,-124.1,-0.6,-2.2,-1.6,25,389.459,906.3,-122.707,-0.582442,-1.20249,-2.12081,
2026_06_26_17_08_20.062,3.87,53.6,0,0.775,0,0,0,0, ,0,0,0,0,0, ,389.1,898.6,-133.6,-0.3,-1,-2.6,25,389.379,906.026,-123.081,-0.574371,-1.22671,-2.11954,
2026_06_26_17_08_20.082,3.87,53.6,0,0.778,0,0,0,0, ,0,0,0,0,0, ,386.8,911.6,-123.9,-0.4,0,-3.2,25,389.292,905.969,-123.427,-0.560699,-1.18243,-2.1671,
2026_06_26_17_08_20.101,3.87,53.5,0,0.775,0,0,0,0, ,0,0,0,0,0, ,385.6,915.4,-121.4,-0.4,0,-1.8,25,389.104,906.428,-123.38,-0.550906,-1.11037,-2.18738,
2026_06_26_17_08_20.122,3.87,53.6,0,0.775,0,0,0,0, ,0,0,0,0,0, ,386.2,907.3,-121.2,-1.3,-0.8,-1.1,25,388.908,906.728,-123.253,-0.569132,-1.06709,-2.14245,
2026_06_26_17_08_20.141,3.87,53.7,0,0.777,0,0,0,0, ,0,0,0,0,0, ,386.5,905.3,-123.4,-1.7,-1.1,-1.4,25,388.753,906.702,-123.195,-0.625857,-1.05995,-2.08807,
2026_06_26_17_08_20.161,3.87,53.7,0,0.775,0,0,0,0, ,0,0,0,0,0, ,386.2,905.3,-122,-1.1,-1.5,-1.5,25,388.606,906.617,-123.165,-0.673031,-1.07458,-2.04918,
2026_06_26_17_08_20.181,3.87,53.6,0,0.775,0,0,0,0, ,0,0,0,0,0, ,386.5,908.2,-123,-0.7,-1.7,-1.3,25,388.469,906.625,-123.124,-0.686862,-1.1066,-2.00962,
2026_06_26_17_08_20.200,3.87,53.5,0,0.775,0,0,0,0, ,0,0,0,0,0, ,386.8,907.5,-126.3,-0.7,-1.3,-1.3,25,388.358,906.699,-123.217,-0.687663,-1.13057,-1.96638,
2026_06_26_17_08_20.225,3.87,53.5,0,0.775,0,0,0,0, ,0,0,0,0,0, ,388.7,906.9,-128.5,-1,-0.9,-1.2,25,388.321,906.73,-123.472,-0.697555,-1.12871,-1.92273,
2026_06_26_17_08_20.240,3.87,53.6,0,0.776,0,0,0,0, ,0,0,0,0,0, ,388.4,900.6,-124.2,-0.7,-0.2,-1.9,25,388.335,906.548,-123.647,-0.706845,-1.09344,-1.90001,
2026_06_26_17_08_20.260,3.87,53.6,0,0.775,0,0,0,0, ,0,0,0,0,0, ,388,906.6,-129.3,0,0.2,-2.7,25,388.327,906.369,-123.836,-0.6851,-1.02681,-1.92439,
2026_06_26_17_08_20.280,3.87,53.5,0,0.776,0,0,0,0, ,0,0,0,0,0, ,384.3,917.1,-115.3,-0.8,0.4,-1.9,25,388.194,906.703,-123.743,-0.667726,-0.945958,-1.94728,
2026_06_26_17_08_20.299,3.87,53.5,0,0.775,0,0,0,0, ,0,0,0,0,0, ,386.8,903.1,-111.5,-0.9,-1.4,-1,25,388.033,906.91,-123.113,-0.678834,-0.918782,-1.91697,
2026_06_26_17_08_20.320,3.87,53.4,0,0.777,0,0,0,0, ,0,0,0,0,0, ,388.9,899.2,-130,-0.7,-1.4,-2.6,25,388.022,906.559,-122.969,-0.686217,-0.948106,-1.90985,
2026_06_26_17_08_20.339,3.87,53.5,0,0.776,0,0,0,0, ,0,0,0,0,0, ,385.3,915.6,-117.6,-0.7,-1.2,-2.4,25,387.966,906.61,-123.019,-0.687057,-0.96955,-1.94581,
2026_06_26_17_08_20.359,3.87,53.5,0,0.776,0,0,0,0, ,0,0,0,0,0, ,385.3,911.6,-119.8,-0.9,-2.3,-1.4,25,387.803,907.036,-122.756,-0.69394,-1.01711,-1.94302,
2026_06_26_17_08_20.378,3.87,53.5,0,0.776,0,0,0,0, ,0,0,0,0,0, ,386.7,901.4,-130.9,-0.8,-1.7,-1.7,25,387.693,907.003,-122.914,-0.70345,-1.077,-1.91907,
2026_06_26_17_08_20.398,3.87,53.4,0,0.776,0,0,0,0, ,0,0,0,0,0, ,386.8,899.5,-127.6,0.5,0.1,-3.4,25,387.636,906.604,-123.3,-0.669724,-1.06012,-1.95752,
2026_06_26_17_08_20.418,3.87,53.4,0,0.775,0,0,0,0, ,0,0,0,0,0, ,382.6,918.8,-113.4,0.1,-0.8,-3.1,25,387.457,906.759,-123.13,-0.610631,-1.01685,-2.03628,
2026_06_26_17_08_20.439,3.87,53.4,0,0.775,0,0,0,0, ,0,0,0,0,0, ,381.8,919.3,-101.3,-1.8,-4.3,-0.7,25,387.137,907.508,-122.168,-0.625218,-1.11028,-2.02797,
2026_06_26_17_08_20.458,3.87,53.4,0,0.776,0,0,0,0, ,0,0,0,0,0, ,384.5,912.2,-112.1,-2.6,-6.1,-0.1,25,386.894,908.01,-121.225,-0.721181,-1.35949,-1.92877,
2026_06_26_17_08_20.477,3.87,53.4,0,0.775,0,0,0,0, ,0,0,0,0,0, ,389.2,898.1,-147.4,-1.4,-4.5,-0.7,25,386.891,907.836,-121.745,-0.799109,-1.59962,-1.83561,
2026_06_26_17_08_20.497,3.87,53.2,0,0.776,0,0,0,0, ,0,0,0,0,0, ,388.5,903.3,-143,0.2,0.2,-2.3,25,387.01,907.401,-123.174,-0.786976,-1.63316,-1.81516,
2026_06_26_17_08_20.517,3.87,53.4,0,0.776,0,0,0,0, ,0,0,0,0,0, ,383.4,916.2,-118.2,0.6,1.5,-1.8,25,386.946,907.544,-123.627,-0.714644,-1.48184,-1.82947,
2026_06_26_17_08_20.537,3.87,53.4,0,0.775,0,0,0,0, ,0,0,0,0,0, ,384.1,915,-101.1,-1.3,-1.7,-0.1,25,386.751,908.035,-122.775,-0.692424,-1.39763,-1.77587,
2026_06_26_17_08_20.557,3.87,53.3,0,0.776,0,0,0,0, ,0,0,0,0,0, ,386.9,902.2,-125.6,-1.8,-4.1,0,25,386.675,908.07,-122.201,-0.744682,-1.48918,-1.6707,
2026_06_26_17_08_20.577,3.87,53.3,0,0.775,0,0,0,0, ,0,0,0,0,0, ,389.5,898.4,-142.9,-0.4,-1.3,-1.6,25,386.768,907.596,-122.935,-0.766335,-1.56297,-1.61765,
2026_06_26_17_08_20.596,3.87,53.3,0,0.775,0,0,0,0, ,0,0,0,0,0, ,386.1,907.8,-122,0.8,0.8,-2,25,386.831,907.322,-123.515,-0.707449,-1.48296,-1.62876,
2026_06_26_17_08_20.617,3.87,53.3,0,0.774,0,0,0,0, ,0,0,0,0,0, ,384.1,913.5,-101.6,-0.2,-1.9,-1.2,25,386.725,907.525,-122.801,-0.646057,-1.42611,-1.62701,
2026_06_26_17_08_20.636,3.87,53.3,0,0.774,0,0,0,0, ,0,0,0,0,0, ,387.8,902.4,-127.4,-1.4,-4,-1,25,386.678,907.551,-122.295,-0.655438,-1.51897,-1.59489,
2026_06_26_17_08_20.655,3.87,53.2,0,0.775,0,0,0,0, ,0,0,0,0,0, ,387.9,900.1,-139.4,-0.2,-1.8,-2.1,25,386.749,907.167,-122.972,-0.664247,-1.60313,-1.59216,
2026_06_26_17_08_20.675,3.87,53.2,0,0.775,0,0,0,0, ,0,0,0,0,0, ,386.5,911.8,-124.6,0.1,0.1,-2.2,25,386.777,907.093,-123.522,-0.626817,-1.55723,-1.62615,
2026_06_26_17_08_20.695,3.87,53.1,0,0.774,0,0,0,0, ,0,0,0,0,0, ,385.9,913.6,-117.5,-0.6,-1.1,-1.3,25,386.742,907.434,-123.371,-0.603854,-1.49281,-1.6337,
2026_06_26_17_08_20.715,3.87,53.2,0,0.774,0,0,0,0, ,0,0,0,0,0, ,388.6,899.1,-136.5,-0.7,-1,-1.4,25,386.773,907.368,-123.592,-0.606666,-1.46582,-1.61641,
2026_06_26_17_08_20.735,3.87,53.2,0,0.775,0,0,0,0, ,0,0,0,0,0, ,388,900.5,-127.9,-0.7,1,-2.8,25,386.866,906.907,-124.117,-0.612354,-1.3765,-1.64588,
2026_06_26_17_08_20.755,3.87,53.2,0,0.777,0,0,0,0, ,0,0,0,0,0, ,385.4,911.2,-118.1,-0.9,0.1,-3.2,25,386.856,906.843,-124.049,-0.623789,-1.2591,-1.72839,
2026_06_26_17_08_20.774,3.87,53.2,0,0.777,0,0,0,0, ,0,0,0,0,0, ,384.2,914.3,-115.4,-0.6,-1.2,-1.9,25,386.73,907.203,-123.604,-0.63148,-1.21589,-1.77846,
2026_06_26_17_08_20.795,3.87,53.2,0,0.775,0,0,0,0, ,0,0,0,0,0, ,386.4,905.8,-131.4,-0.7,-1.4,-1.7,25,386.643,907.376,-123.592,-0.632608,-1.22102,-1.77977,
2026_06_26_17_08_20.814,3.87,53.1,0,0.775,0,0,0,0, ,0,0,0,0,0, ,386.3,906.3,-123.9,0,-0.1,-1.9,25,386.625,907.295,-123.839,-0.615387,-1.19232,-1.78101,
2026_06_26_17_08_20.834,3.87,53.1,0,0.776,0,0,0,0, ,0,0,0,0,0, ,383.5,910,-116.2,-0.5,-1.2,-2.3,25,386.52,907.347,-123.608,-0.593121,-1.15927,-1.80044,
2026_06_26_17_08_20.854,3.87,53.1,0,0.776,0,0,0,0, ,0,0,0,0,0, ,384.6,911,-124.8,-1.3,-1.9,-1.5,25,386.37,907.54,-123.419,-0.611821,-1.18308,-1.80651,
2026_06_26_17_08_20.873,3.87,53,0,0.775,0,0,0,0, ,0,0,0,0,0, ,387.2,906.3,-134,-1,-1.2,-1.5,25,386.341,907.607,-123.783,-0.644617,-1.20544,-1.78783,
2026_06_26_17_08_20.899,3.87,53.1,0,0.775,0,0,0,0, ,0,0,0,0,0, ,386.8,901.7,-131.5,-0.5,0.4,-2.1,25,386.381,907.387,-124.33,-0.651038,-1.15636,-1.78857,
2026_06_26_17_08_20.913,3.87,53,0,0.774,0,0,0,0, ,0,0,0,0,0, ,385.9,907.3,-128.2,0,1.5,-2.8,25,386.379,907.211,-124.666,-0.6266,-1.028,-1.82888,
2026_06_26_17_08_20.932,3.87,53,0,0.775,0,0,0,0, ,0,0,0,0,0, ,382.9,913.3,-121.5,-0.6,1.7,-2.7,25,386.259,907.4,-124.677,-0.606698,-0.867857,-1.88501,
2026_06_26_17_08_20.953,3.87,53,0,0.775,0,0,0,0, ,0,0,0,0,0, ,383.6,911.7,-116.3,-0.9,0.6,-1.5,25,386.075,907.71,-124.325,-0.61543,-0.744894,-1.89811,
2026_06_26_17_08_20.973,3.87,53,0,0.776,0,0,0,0, ,0,0,0,0,0, ,384.6,904.7,-114,-0.7,-0.7,-1.3,25,385.955,907.74,-123.766,-0.626678,-0.702548,-1.86776,
2026_06_26_17_08_20.992,3.87,53,0,0.775,0,0,0,0, ,0,0,0,0,0, ,386.4,902.4,-120.7,-0.3,-1.9,-2.1,25,385.927,907.485,-123.375,-0.618958,-0.738956,-1.85754,
2026_06_26_17_08_21.012,3.87,53,0,0.775,0,0,0,0, ,0,0,0,0,0, ,384.7,914,-127.9,0,-1.6,-2.3,25,385.904,907.529,-123.431,-0.590381,-0.800566,-1.8784,
2026_06_26_17_08_21.032,3.87,53,0,0.775,0,0,0,0, ,0,0,0,0,0, ,384.6,914.4,-128,-0.3,-0.4,-0.9,25,385.828,907.935,-123.707,-0.563545,-0.812719,-1.86144,
2026_06_26_17_08_21.052,3.87,53,0,0.775,0,0,0,0, ,0,0,0,0,0, ,386.4,900.7,-121.5,-0.4,-0.5,-1,25,385.808,907.912,-123.77,-0.550532,-0.790616,-1.8059,
2026_06_26_17_08_21.071,3.87,53,0,0.774,0,0,0,0, ,0,0,0,0,0, ,386.3,904.2,-122.1,-0.2,-0.8,-2,25,385.841,907.579,-123.65,-0.535266,-0.782047,-1.78726,
2026_06_26_17_08_21.091,3.87,53,0,0.777,0,0,0,0, ,0,0,0,0,0, ,384.7,912.9,-125.8,-0.3,-0.5,-2,25,385.82,907.638,-123.669,-0.517882,-0.774001,-1.80022,
2026_06_26_17_08_21.111,3.87,52.8,0,0.775,0,0,0,0, ,0,0,0,0,0, ,385.6,911,-124.1,-0.8,-0.5,-1,25,385.779,907.901,-123.747,-0.519839,-0.757304,-1.78193,
2026_06_26_17_08_21.131,3.87,52.8,0,0.775,0,0,0,0, ,0,0,0,0,0, ,385.3,907.7,-121,-0.7,-0.6,-0.9,25,385.759,907.989,-123.674,-0.533865,-0.744671,-1.73123,
2026_06_26_17_08_21.151,3.87,52.9,0,0.775,0,0,0,0, ,0,0,0,0,0, ,385.3,903.3,-124.7,-0.7,-0.9,-1.4,25,385.731,907.837,-123.624,-0.543989,-0.744996,-1.69581,
2026_06_26_17_08_21.170,3.87,52.9,0,0.775,0,0,0,0, ,0,0,0,0,0, ,386.2,906.9,-122.3,-1.3,-1.2,-2.2,25,385.732,907.671,-123.616,-0.571777,-0.763582,-1.70216,
2026_06_26_17_08_21.190,3.87,52.8,0,0.775,0,0,0,0, ,0,0,0,0,0, ,385.6,906.3,-131.1,-0.5,-0.4,-2.3,25,385.743,907.605,-123.804,-0.591778,-0.765801,-1.73555,
2026_06_26_17_08_21.210,3.87,52.8,0,0.775,0,0,0,0, ,0,0,0,0,0, ,385.3,908.8,-121.9,0.1,-0.1,-2,25,385.725,907.602,-123.968,-0.567904,-0.73437,-1.7608,
2026_06_26_17_08_21.230,3.87,52.8,0,0.775,0,0,0,0, ,0,0,0,0,0, ,385.7,902.3,-125.2,-0.3,-0.4,-2.6,25,385.711,907.477,-123.943,-0.539391,-0.704853,-1.79366,
2026_06_26_17_08_21.249,3.87,52.8,0,0.776,0,0,0,0, ,0,0,0,0,0, ,384.7,909.9,-125.6,-0.7,-0.2,-3.3,25,385.68,907.393,-124.032,-0.536991,-0.680183,-1.86412,
