UTC_Time,Vin,TC1,TC2,Rh1,Vh1,Ah1,Acp1,Dty1,Err1,Rh2,Vh2,Ah2,Acp2,Dty2,Err2,Accel_x,Accel_y,Accel_z,gyro_x,gyro_y,gyro_z,Temp_c,Accel_x_h,Accel_y_h,Accel_z_h,gyro_x_h,gyro_y_h,gyro_z_h,
2026_07_06_14_54_36.897,3.878,29.9,0,0.759,3.797,5.002,18.04,0.95, ,0,0,0,0,0, ,33.6,46.1,-997.8,-0.5,-0.5,-1.8,25,33.6,46.1,-997.8,-0.5,-0.5,-1.8,
2026_07_06_14_54_36.911,3.867,30,0,0.761,3.885,5.105,18.84,0.95, ,0,0,0,0,0, ,33.9,45.7,-997.8,-0.4,-0.5,-1.9,25,33.6091,46.0878,-997.8,-0.496953,-0.5,-1.80305,
2026_07_06_14_54_36.931,3.867,30.1,0,0.763,0,0,0,0, ,0,0,0,0,0, ,33,46.2,-999.6,-0.4,-0.5,-1.8,25,33.5994,46.0794,-997.855,-0.491045,-0.5,-1.80591,
2026_07_06_14_54_36.951,3.867,30.1,0,0.76,0,0,0,0, ,0,0,0,0,0, ,33.8,45.6,-999.8,-0.4,-0.6,-1.9,25,33.5873,46.0685,-997.967,-0.485497,-0.503047,-1.80859,
2026_07_06_14_54_36.971,3.867,30.4,0,0.761,0,0,0,0, ,0,0,0,0,0, ,33.2,45.6,-999.1,-0.4,-0.5,-1.8,25,33.582,46.0399,-998.058,-0.480287,-0.505908,-1.81112,
2026_07_06_14_54_36.991,3.867,30.4,0,0.761,0,0,0,0, ,0,0,0,0,0, ,32.8,46.3,-999.2,-0.5,-0.5,-1.9,25,33.5465,46.0345,-998.124,-0.478441,-0.505548,-1.81349,
2026_07_06_14_54_37.010,3.867,30.4,0,0.759,0,0,0,0, ,0,0,0,0,0, ,33.4,46.3,-997.5,-0.4,-0.5,-1.8,25,33.5193,46.0506,-998.138,-0.476708,-0.50521,-1.81571,
2026_07_06_14_54_37.031,3.867,30.7,0,0.76,0,0,0,0, ,0,0,0,0,0, ,34.4,47.8,-998.6,-0.4,-0.6,-1.8,25,33.5425,46.1115,-998.133,-0.472034,-0.507939,-1.81475,
2026_07_06_14_54_37.050,3.867,30.7,0,0.761,0,0,0,0, ,0,0,0,0,0, ,33.2,45.4,-998.5,-0.4,-0.5,-1.8,25,33.5582,46.1413,-998.158,-0.467644,-0.510502,-1.81386,
2026_07_06_14_54_37.070,3.867,30.5,0,0.76,0,0,0,0, ,0,0,0,0,0, ,32.4,45.6,-997.9,-0.4,-0.5,-1.9,25,33.512,46.1022,-998.161,-0.463522,-0.509862,-1.81606,
2026_07_06_14_54_37.091,3.867,30.8,0,0.76,0,0,0,0, ,0,0,0,0,0, ,33.5,46.7,-997,-0.5,-0.5,-1.8,25,33.4777,46.1051,-998.117,-0.462698,-0.509261,-1.81813,
2026_07_06_14_54_37.109,3.867,30.9,0,0.76,0,0,0,0, ,0,0,0,0,0, ,34.1,46.1,-998.4,-0.4,-0.5,-1.8,25,33.4974,46.1231,-998.092,-0.461924,-0.508697,-1.81702,
2026_07_06_14_54_37.129,3.867,30.9,0,0.76,0,0,0,0, ,0,0,0,0,0, ,33.2,46.6,-998,-0.5,-0.5,-1.8,25,33.5067,46.1369,-998.098,-0.461198,-0.508167,-1.81598,
2026_07_06_14_54_37.148,3.867,30.7,0,0.76,0,0,0,0, ,0,0,0,0,0, ,31.8,46.6,-999.6,-0.4,-0.6,-1.8,25,33.4453,46.1651,-998.141,-0.460515,-0.510716,-1.81501,
2026_07_06_14_54_37.168,3.867,30.8,0,0.76,0,0,0,0, ,0,0,0,0,0, ,33.5,45.7,-997,-0.4,-0.5,-1.9,25,33.3969,46.1642,-998.151,-0.456828,-0.51311,-1.81714,
2026_07_06_14_54_37.188,3.867,30.9,0,0.759,0,0,0,0, ,0,0,0,0,0, ,34,45.6,-997.9,-0.5,-0.5,-1.9,25,33.4184,46.1329,-998.108,-0.456412,-0.512311,-1.82219,
2026_07_06_14_54_37.208,3.867,30.9,0,0.759,0,0,0,0, ,0,0,0,0,0, ,33.4,45.8,-998.5,-0.4,-0.5,-1.8,25,33.4355,46.1065,-998.114,-0.456021,-0.511561,-1.82389,
2026_07_06_14_54_37.228,3.867,30.9,0,0.759,0,0,0,0, ,0,0,0,0,0, ,31.8,44.7,-999.3,-0.4,-0.5,-1.8,25,33.3846,46.0543,-998.162,-0.452607,-0.510857,-1.82243,
2026_07_06_14_54_37.248,3.867,30.9,0,0.76,0,0,0,0, ,0,0,0,0,0, ,33.6,45.6,-998.9,-0.4,-0.5,-1.8,25,33.3429,45.9992,-998.219,-0.449401,-0.510195,-1.82106,
2026_07_06_14_54_37.267,3.867,30.9,0,0.76,0,0,0,0, ,0,0,0,0,0, ,32.8,45.6,-998.9,-0.4,-0.5,-1.9,25,33.3342,45.9749,-998.26,-0.446391,-0.509574,-1.82283,
2026_07_06_14_54_37.287,3.867,30.9,0,0.76,0,0,0,0, ,0,0,0,0,0, ,33.2,44.7,-999.6,-0.4,-0.5,-1.9,25,33.3138,45.9246,-998.321,-0.443564,-0.50899,-1.82753,
2026_07_06_14_54_37.307,3.867,30.9,0,0.759,0,0,0,0, ,0,0,0,0,0, ,34,44.3,-998.1,-0.4,-0.5,-1.8,25,33.3313,45.8378,-998.353,-0.440909,-0.508442,-1.8289,
2026_07_06_14_54_37.327,3.867,30.9,0,0.76,0,0,0,0, ,0,0,0,0,0, ,33.4,45.7,-998.1,-0.4,-0.5,-1.9,25,33.3537,45.7867,-998.338,-0.438416,-0.507928,-1.83019,
2026_07_06_14_54_37.351,3.867,31,0,0.759,0,0,0,0, ,0,0,0,0,0, ,33.8,45.1,-998.9,-0.4,-0.5,-1.9,25,33.3688,45.7632,-998.347,-0.436075,-0.507445,-1.83444,
2026_07_06_14_54_37.366,3.867,31,0,0.759,0,0,0,0, ,0,0,0,0,0, ,31.6,46.3,-996.5,-0.4,-0.5,-1.8,25,33.328,45.7593,-998.308,-0.433877,-0.506991,-1.83539,
2026_07_06_14_54_37.386,3.867,30.9,0,0.759,0,0,0,0, ,0,0,0,0,0, ,33.6,45.6,-998.7,-0.4,-0.5,-1.9,25,33.2836,45.7709,-998.265,-0.431813,-0.506565,-1.83628,
2026_07_06_14_54_37.406,3.867,31,0,0.759,0,0,0,0, ,0,0,0,0,0, ,33.9,46.6,-998.7,-0.4,-0.5,-1.9,25,33.3121,45.791,-998.291,-0.429874,-0.506165,-1.84016,
2026_07_06_14_54_37.426,3.867,31.1,0,0.76,0,0,0,0, ,0,0,0,0,0, ,32.5,45.8,-997.4,-0.3,-0.5,-1.8,25,33.3052,45.8159,-998.277,-0.425007,-0.505789,-1.84076,
2026_07_06_14_54_37.446,3.867,31.1,0,0.76,0,0,0,0, ,0,0,0,0,0, ,33.4,45.8,-999.7,-0.4,-0.5,-1.8,25,33.2836,45.815,-998.293,-0.420436,-0.505437,-1.83828,
2026_07_06_14_54_37.465,3.867,31,0,0.76,0,0,0,0, ,0,0,0,0,0, ,33.4,45.2,-998.2,-0.4,-0.6,-1.8,25,33.2907,45.7958,-998.333,-0.419191,-0.508152,-1.83594,
2026_07_06_14_54_37.486,3.867,31.1,0,0.759,0,0,0,0, ,0,0,0,0,0, ,35,45,-998.7,-0.4,-0.5,-1.9,25,33.3461,45.7534,-998.34,-0.418021,-0.510702,-1.8368,
2026_07_06_14_54_37.504,3.867,31.1,0,0.759,0,0,0,0, ,0,0,0,0,0, ,34.1,44.6,-998.5,-0.5,-0.5,-1.8,25,33.4195,45.6953,-998.356,-0.41997,-0.51005,-1.83761,
2026_07_06_14_54_37.524,3.867,31.1,0,0.76,0,0,0,0, ,0,0,0,0,0, ,35,46.9,-998.6,-0.4,-0.5,-1.9,25,33.4883,45.6986,-998.368,-0.4218,-0.509438,-1.83836,
2026_07_06_14_54_37.544,3.867,31.1,0,0.759,0,0,0,0, ,0,0,0,0,0, ,34.1,45.8,-998.7,-0.4,-0.5,-1.8,25,33.553,45.7383,-998.385,-0.420472,-0.508863,-1.83907,
2026_07_06_14_54_37.564,3.867,31.1,0,0.759,0,0,0,0, ,0,0,0,0,0, ,33.9,46.6,-998.1,-0.4,-0.6,-1.8,25,33.5803,45.7664,-998.386,-0.419224,-0.511369,-1.83669,
2026_07_06_14_54_37.584,3.867,31.1,0,0.76,0,0,0,0, ,0,0,0,0,0, ,32.5,46.7,-996.8,-0.4,-0.5,-1.8,25,33.5571,45.8203,-998.329,-0.418053,-0.513723,-1.83445,
2026_07_06_14_54_37.604,3.867,31.1,0,0.76,0,0,0,0, ,0,0,0,0,0, ,33.3,45.2,-998.7,-0.4,-0.5,-1.9,25,33.5171,45.8282,-998.294,-0.416953,-0.512887,-1.8354,
2026_07_06_14_54_37.624,3.867,31.1,0,0.76,0,0,0,0, ,0,0,0,0,0, ,33.4,45.5,-998.1,-0.4,-0.6,-1.8,25,33.5069,45.799,-998.3,-0.415919,-0.515149,-1.83629,
2026_07_06_14_54_37.643,3.867,31.1,0,0.76,0,0,0,0, ,0,0,0,0,0, ,33.4,44.3,-997.6,-0.4,-0.6,-1.8,25,33.5004,45.7443,-998.273,-0.414949,-0.520319,-1.83408,
2026_07_06_14_54_37.664,3.867,31.1,0,0.759,0,0,0,0, ,0,0,0,0,0, ,32.8,46.2,-999.2,-0.4,-0.5,-1.8,25,33.476,45.7141,-998.281,-0.414038,-0.522128,-1.832,
2026_07_06_14_54_37.683,3.867,31.1,0,0.759,0,0,0,0, ,0,0,0,0,0, ,34.4,46.8,-998.2,-0.5,-0.5,-1.8,25,33.4835,45.762,-998.306,-0.41623,-0.52078,-1.83005,
2026_07_06_14_54_37.703,3.867,31.2,0,0.76,0,0,0,0, ,0,0,0,0,0, ,33.6,44.7,-999.8,-0.4,-0.6,-1.8,25,33.515,45.7613,-998.348,-0.418288,-0.52256,-1.82822,
2026_07_06_14_54_37.723,3.867,31.2,0,0.759,0,0,0,0, ,0,0,0,0,0, ,34,44.1,-998.5,-0.4,-0.5,-1.8,25,33.5324,45.6783,-998.397,-0.417173,-0.524232,-1.8265,
2026_07_06_14_54_37.742,3.867,31.1,0,0.759,0,0,0,0, ,0,0,0,0,0, ,33.9,45.2,-999.8,-0.4,-0.5,-1.9,25,33.5578,45.6157,-998.443,-0.416127,-0.522756,-1.82793,
2026_07_06_14_54_37.762,3.867,31.1,0,0.759,0,0,0,0, ,0,0,0,0,0, ,33.3,45.6,-998.7,-0.4,-0.5,-1.8,25,33.5604,45.6025,-998.492,-0.415144,-0.521369,-1.82928,
2026_07_06_14_54_37.782,3.867,31.1,0,0.76,0,0,0,0, ,0,0,0,0,0, ,33,45.8,-999.1,-0.5,-0.6,-1.8,25,33.5354,45.6085,-998.517,-0.417268,-0.523114,-1.82749,
2026_07_06_14_54_37.801,3.867,31.2,0,0.76,0,0,0,0, ,0,0,0,0,0, ,33.6,46.2,-999.1,-0.4,-0.5,-1.9,25,33.521,45.6323,-998.553,-0.419263,-0.524752,-1.82887,
2026_07_06_14_54_37.822,3.867,31.2,0,0.761,0,0,0,0, ,0,0,0,0,0, ,32.5,45.7,-998.2,-0.5,-0.5,-1.9,25,33.4923,45.6517,-998.559,-0.421136,-0.523244,-1.8332,
2026_07_06_14_54_37.841,3.867,31.2,0,0.759,0,0,0,0, ,0,0,0,0,0, ,33.5,46.2,-998,-0.5,-0.5,-1.8,25,33.4623,45.6699,-998.531,-0.425942,-0.521827,-1.83422,
2026_07_06_14_54_37.861,3.867,31.1,0,0.759,0,0,0,0, ,0,0,0,0,0, ,33.6,45.7,-997.9,-0.4,-0.5,-1.9,25,33.4677,45.6869,-998.495,-0.427408,-0.520497,-1.83518,
2026_07_06_14_54_37.881,3.867,31.2,0,0.76,0,0,0,0, ,0,0,0,0,0, ,33.3,46.2,-999.8,-0.4,-0.6,-1.8,25,33.4666,45.703,-998.517,-0.425737,-0.522295,-1.83609,
2026_07_06_14_54_37.901,3.867,31.2,0,0.759,0,0,0,0, ,0,0,0,0,0, ,33.3,46.7,-998.6,-0.4,-0.5,-1.8,25,33.4564,45.7485,-998.559,-0.424169,-0.523983,-1.83389,
2026_07_06_14_54_37.921,3.867,31.2,0,0.759,0,0,0,0, ,0,0,0,0,0, ,32.7,46.3,-998.6,-0.4,-0.5,-1.8,25,33.4286,45.7943,-998.561,-0.422696,-0.522522,-1.83182,
2026_07_06_14_54_37.940,3.867,31.2,0,0.759,0,0,0,0, ,0,0,0,0,0, ,34,45.5,-997.5,-0.4,-0.6,-1.8,25,33.4238,45.8007,-998.53,-0.421313,-0.524196,-1.82988,
2026_07_06_14_54_37.960,3.867,31.1,0,0.759,0,0,0,0, ,0,0,0,0,0, ,34.6,46.5,-999,-0.4,-0.5,-1.9,25,33.4772,45.8129,-998.513,-0.420014,-0.525769,-1.83111,
2026_07_06_14_54_37.980,3.867,31.2,0,0.762,0,0,0,0, ,0,0,0,0,0, ,32.7,46.3,-998.7,-0.4,-0.5,-1.8,25,33.4878,45.8486,-998.533,-0.418795,-0.524198,-1.83226,
2026_07_06_14_54_37.999,3.867,31.1,0,0.76,0,0,0,0, ,0,0,0,0,0, ,33.6,45.7,-999,-0.4,-0.5,-1.8,25,33.4672,45.8579,-998.553,-0.41765,-0.522724,-1.8303,
2026_07_06_14_54_38.024,3.867,31.1,0,0.76,0,0,0,0, ,0,0,0,0,0, ,33.3,45.5,-998.6,-0.4,-0.5,-1.8,25,33.4661,45.8422,-998.568,-0.416574,-0.521339,-1.82845,
2026_07_06_14_54_38.039,3.867,31.1,0,0.76,0,0,0,0, ,0,0,0,0,0, ,33.9,45.2,-998.9,-0.4,-0.5,-1.9,25,33.4743,45.8122,-998.579,-0.415564,-0.520039,-1.82976,
2026_07_06_14_54_38.059,3.867,31.2,0,0.761,0,0,0,0, ,0,0,0,0,0, ,34,45.5,-999.1,-0.5,-0.6,-1.8,25,33.5033,45.784,-998.605,-0.417662,-0.521865,-1.831,
2026_07_06_14_54_38.079,3.867,31.2,0,0.759,0,0,0,0, ,0,0,0,0,0, ,34.4,45.8,-999.6,-0.5,-0.5,-1.9,25,33.5457,45.7758,-998.65,-0.42268,-0.523579,-1.83215,
2026_07_06_14_54_38.099,3.867,31.2,0,0.759,0,0,0,0, ,0,0,0,0,0, ,32.7,45.6,-998.6,-0.5,-0.6,-1.8,25,33.546,45.7712,-998.677,-0.427392,-0.525189,-1.83324,
2026_07_06_14_54_38.118,3.867,31.2,0,0.759,0,0,0,0, ,0,0,0,0,0, ,32.5,44.9,-998.5,-0.4,-0.6,-1.8,25,33.4883,45.7395,-998.67,-0.428769,-0.529748,-1.83122,
2026_07_06_14_54_38.139,3.867,31.2,0,0.76,0,0,0,0, ,0,0,0,0,0, ,34.4,46,-999.1,-0.4,-0.5,-1.8,25,33.486,45.7218,-998.678,-0.427016,-0.530982,-1.82931,
2026_07_06_14_54_38.160,3.867,31.2,0,0.758,0,0,0,0, ,0,0,0,0,0, ,33.3,44.3,-998.6,-0.4,-0.5,-1.8,25,33.5082,45.687,-998.688,-0.42537,-0.529094,-1.82753,
2026_07_06_14_54_38.178,3.867,31.2,0,0.76,0,0,0,0, ,0,0,0,0,0, ,33.3,46.3,-999.5,-0.5,-0.5,-1.8,25,33.4955,45.6634,-998.71,-0.426871,-0.527321,-1.82585,
2026_07_06_14_54_38.197,3.867,31.1,0,0.76,0,0,0,0, ,0,0,0,0,0, ,34.1,45.7,-998.7,-0.4,-0.5,-1.8,25,33.508,45.6839,-998.734,-0.42828,-0.525656,-1.82427,
2026_07_06_14_54_38.217,3.867,31.2,0,0.76,0,0,0,0, ,0,0,0,0,0, ,32.7,46.3,-998,-0.4,-0.5,-1.8,25,33.5014,45.7032,-998.71,-0.426557,-0.524093,-1.8228,
2026_07_06_14_54_38.237,3.867,31.1,0,0.76,0,0,0,0, ,0,0,0,0,0, ,33.6,46.8,-998,-0.5,-0.5,-1.8,25,33.48,45.7548,-998.667,-0.427985,-0.522625,-1.82141,
2026_07_06_14_54_38.257,3.867,31.3,0,0.76,0,0,0,0, ,0,0,0,0,0, ,33.8,46.9,-999.8,-0.4,-0.6,-1.8,25,33.4934,45.8215,-998.681,-0.429327,-0.524293,-1.8201,
2026_07_06_14_54_38.277,3.867,31.4,0,0.759,0,0,0,0, ,0,0,0,0,0, ,32.2,46.5,-997,-0.4,-0.5,-1.8,25,33.4633,45.875,-998.664,-0.42754,-0.525859,-1.81888,
2026_07_06_14_54_38.297,3.867,31.2,0,0.761,0,0,0,0, ,0,0,0,0,0, ,33.5,46.8,-999.5,-0.5,-0.5,-1.8,25,33.4259,45.9223,-998.639,-0.428909,-0.524284,-1.81773,
2026_07_06_14_54_38.317,3.867,31.2,0,0.76,0,0,0,0, ,0,0,0,0,0, ,33.3,44.9,-998.6,-0.4,-0.6,-1.9,25,33.4244,45.9179,-998.664,-0.430194,-0.525851,-1.81969,
2026_07_06_14_54_38.336,3.867,31.2,0,0.76,0,0,0,0, ,0,0,0,0,0, ,33.9,46.1,-999.1,-0.5,-0.5,-1.8,25,33.4351,45.8924,-998.675,-0.431401,-0.527322,-1.82154,
2026_07_06_14_54_38.356,3.867,31.2,0,0.76,0,0,0,0, ,0,0,0,0,0, ,32.9,45.6,-997.3,-0.4,-0.5,-1.9,25,33.4329,45.8898,-998.646,-0.432534,-0.525657,-1.82327,
2026_07_06_14_54_38.376,3.867,31.2,0,0.76,0,0,0,0, ,0,0,0,0,0, ,34,45.7,-998.2,-0.5,-0.6,-1.8,25,33.434,45.8752,-998.592,-0.433598,-0.527141,-1.8249,
2026_07_06_14_54_38.396,3.867,31.3,0,0.759,0,0,0,0, ,0,0,0,0,0, ,32.9,45,-999,-0.4,-0.5,-1.8,25,33.4349,45.8432,-998.592,-0.434598,-0.528534,-1.82339,
2026_07_06_14_54_38.416,3.867,31.2,0,0.759,0,0,0,0, ,0,0,0,0,0, ,33.8,44.7,-998.9,-0.5,-0.5,-1.9,25,33.4298,45.7827,-998.614,-0.435536,-0.526795,-1.82501,
2026_07_06_14_54_38.438,3.867,31.3,0,0.759,0,0,0,0, ,0,0,0,0,0, ,32.8,44.9,-998.6,-0.4,-0.5,-1.7,25,33.4219,45.7228,-998.622,-0.436418,-0.525162,-1.82348,
2026_07_06_14_54_38.455,3.867,31.2,0,0.759,0,0,0,0, ,0,0,0,0,0, ,33.2,46.9,-1000.1,-0.5,-0.5,-1.9,25,33.3962,45.7336,-998.667,-0.437246,-0.523629,-1.82205,
2026_07_06_14_54_38.475,3.867,31.3,0,0.76,0,0,0,0, ,0,0,0,0,0, ,32.7,46.5,-999.1,-0.4,-0.6,-1.8,25,33.369,45.7925,-998.724,-0.438023,-0.525236,-1.82376,
2026_07_06_14_54_38.495,3.867,31.3,0,0.759,0,0,0,0, ,0,0,0,0,0, ,33.2,45.7,-998.9,-0.4,-0.5,-1.8,25,33.3434,45.8112,-998.74,-0.435706,-0.526745,-1.82231,
2026_07_06_14_54_38.515,3.867,31.3,0,0.759,0,0,0,0, ,0,0,0,0,0, ,34.1,46.7,-999.1,-0.4,-0.5,-1.8,25,33.3621,45.8349,-998.756,-0.43353,-0.525115,-1.82095,
2026_07_06_14_54_38.534,3.867,31.3,0,0.759,0,0,0,0, ,0,0,0,0,0, ,33.9,45.6,-999.3,-0.4,-0.5,-1.9,25,33.401,45.8541,-998.783,-0.431487,-0.523585,-1.82272,
2026_07_06_14_54_38.554,3.867,31.2,0,0.76,0,0,0,0, ,0,0,0,0,0, ,33.2,44.7,-998.5,-0.4,-0.5,-1.8,25,33.4101,45.8112,-998.79,-0.429568,-0.522147,-1.82438,
2026_07_06_14_54_38.577,3.867,31.2,0,0.76,0,0,0,0, ,0,0,0,0,0, ,33.2,45.8,-998.2,-0.4,-0.5,-1.8,25,33.3973,45.777,-998.764,-0.427766,-0.520798,-1.8229,
2026_07_06_14_54_38.593,3.867,31.2,0,0.759,0,0,0,0, ,0,0,0,0,0, ,33.4,45.6,-998.9,-0.4,-0.6,-1.8,25,33.3913,45.7723,-998.751,-0.426074,-0.522577,-1.8215,
2026_07_06_14_54_38.613,3.867,31.2,0,0.758,0,0,0,0, ,0,0,0,0,0, ,33.2,45.5,-998.4,-0.4,-0.6,-1.8,25,33.3858,45.7588,-998.744,-0.424485,-0.527295,-1.82019,
2026_07_06_14_54_38.633,3.867,31.3,0,0.76,0,0,0,0, ,0,0,0,0,0, ,34.4,46.5,-997.4,-0.5,-0.5,-1.9,25,33.411,45.7735,-998.693,-0.42604,-0.528679,-1.82201,
2026_07_06_14_54_38.653,3.867,31.3,0,0.76,0,0,0,0, ,0,0,0,0,0, ,34.5,46.6,-999,-0.5,-0.5,-1.9,25,33.4743,45.8208,-998.663,-0.430547,-0.526931,-1.82676,
2026_07_06_14_54_38.672,3.867,31.3,0,0.759,0,0,0,0, ,0,0,0,0,0, ,33,46.3,-999,-0.4,-0.5,-1.9,25,33.4911,45.8591,-998.683,-0.431732,-0.52529,-1.83122,
2026_07_06_14_54_38.692,3.867,31.4,0,0.761,0,0,0,0, ,0,0,0,0,0, ,31.9,45.6,-998,-0.4,-0.5,-1.8,25,33.4277,45.8647,-998.672,-0.429799,-0.523749,-1.83237,
2026_07_06_14_54_38.712,3.867,31.3,0,0.758,0,0,0,0, ,0,0,0,0,0, ,33.9,45.1,-999.5,-0.5,-0.5,-1.8,25,33.3955,45.8333,-998.677,-0.43103,-0.522302,-1.83039,
2026_07_06_14_54_38.732,3.867,31.3,0,0.759,0,0,0,0, ,0,0,0,0,0, ,31.8,45.7,-996.7,-0.5,-0.5,-1.9,25,33.3623,45.8069,-998.642,-0.435233,-0.520943,-1.83159,
2026_07_06_14_54_38.751,3.867,31.3,0,0.759,0,0,0,0, ,0,0,0,0,0, ,32.9,45.1,-999.7,-0.4,-0.5,-1.9,25,33.3006,45.7821,-998.615,-0.436133,-0.519667,-1.83576,
2026_07_06_14_54_38.771,3.867,31.2,0,0.76,0,0,0,0, ,0,0,0,0,0, ,33.5,46.5,-998.4,-0.4,-0.5,-1.8,25,33.2945,45.7832,-998.641,-0.433931,-0.518468,-1.83663,
2026_07_06_14_54_38.792,3.867,31.4,0,0.759,0,0,0,0, ,0,0,0,0,0, ,33.4,45.6,-999.1,-0.5,-0.5,-1.8,25,33.3039,45.7995,-998.648,-0.43491,-0.517343,-1.83439,
2026_07_06_14_54_38.812,3.867,31.3,0,0.759,0,0,0,0, ,0,0,0,0,0, ,32.9,46.3,-1000.4,-0.4,-0.5,-1.8,25,33.2946,45.8086,-998.715,-0.435829,-0.516286,-1.8323,
2026_07_06_14_54_38.831,3.867,31.3,0,0.759,0,0,0,0, ,0,0,0,0,0, ,33,44.9,-999.7,-0.4,-0.5,-1.9,25,33.2736,45.7959,-998.797,-0.433646,-0.515293,-1.83338,
2026_07_06_14_54_38.851,3.867,31.4,0,0.759,0,0,0,0, ,0,0,0,0,0, ,32.7,46,-999.1,-0.5,-0.5,-1.9,25,33.2478,45.7748,-998.833,-0.434643,-0.514362,-1.83744,
2026_07_06_14_54_38.871,3.867,31.3,0,0.76,0,0,0,0, ,0,0,0,0,0, ,32.2,45.4,-999.5,-0.4,-0.5,-1.9,25,33.1991,45.7703,-998.862,-0.435579,-0.513486,-1.84125,
2026_07_06_14_54_38.890,3.867,31.3,0,0.76,0,0,0,0, ,0,0,0,0,0, ,32.8,44.5,-999.5,-0.4,-0.5,-1.8,25,33.1565,45.7203,-998.901,-0.43341,-0.512665,-1.84178,
2026_07_06_14_54_38.911,3.867,31.3,0,0.758,0,0,0,0, ,0,0,0,0,0, ,33.6,45.7,-999.3,-0.4,-0.5,-1.8,25,33.1592,45.6825,-998.931,-0.431374,-0.511893,-1.83924,
2026_07_06_14_54_38.930,3.867,31.4,0,0.759,0,0,0,0, ,0,0,0,0,0, ,32.1,46.3,-998.9,-0.4,-0.5,-1.9,25,33.1403,45.7018,-998.941,-0.429463,-0.511168,-1.83989,
2026_07_06_14_54_38.950,3.867,31.3,0,0.759,0,0,0,0, ,0,0,0,0,0, ,33.4,45.4,-1000,-0.5,-0.5,-1.8,25,33.1166,45.7109,-998.972,-0.430714,-0.510488,-1.84051,
2026_07_06_14_54_38.970,3.867,31.3,0,0.76,0,0,0,0, ,0,0,0,0,0, ,33.5,45.7,-999,-0.4,-0.5,-1.8,25,33.1369,45.7011,-999.005,-0.431889,-0.509848,-1.83804,
2026_07_06_14_54_38.990,3.867,31.2,0,0.759,0,0,0,0, ,0,0,0,0,0, ,32.8,45.7,-1000,-0.4,-0.5,-1.9,25,33.1377,45.701,-999.035,-0.429946,-0.509248,-1.83877,
2026_07_06_14_54_39.010,3.867,31.3,0,0.76,0,0,0,0, ,0,0,0,0,0, ,33.5,46.5,-999.6,-0.4,-0.5,-1.9,25,33.1384,45.7253,-999.081,-0.428121,-0.508685,-1.8425,
2026_07_06_14_54_39.029,3.867,31.4,0,0.759,0,0,0,0, ,0,0,0,0,0, ,33,46.6,-997.3,-0.5,-0.5,-1.8,25,33.1452,45.7756,-999.043,-0.429454,-0.508156,-1.84296,
2026_07_06_14_54_39.049,3.867,31.3,0,0.759,0,0,0,0, ,0,0,0,0,0, ,32.5,46.3,-999.1,-0.5,-0.4,-1.9,25,33.1211,45.8167,-998.992,-0.433753,-0.504612,-1.84339,
2026_07_06_14_54_39.069,3.867,31.3,0,0.76,0,0,0,0, ,0,0,0,0,0, ,32.3,46.1,-999.1,-0.5,-0.6,-1.9,25,33.0772,45.84,-998.998,-0.43779,-0.504331,-1.84684,
2026_07_06_14_54_39.089,3.867,31.4,0,0.76,0,0,0,0, ,0,0,0,0,0, ,32.7,46.1,-999,-0.4,-0.5,-1.8,25,33.042,45.8559,-999.001,-0.438534,-0.507114,-1.84703,
2026_07_06_14_54_39.108,3.867,31.2,0,0.761,0,0,0,0, ,0,0,0,0,0, ,34,45.1,-999.5,-0.5,-0.5,-1.9,25,33.0608,45.8403,-999.016,-0.439233,-0.50668,-1.84721,
2026_07_06_14_54_39.128,3.867,31.3,0,0.76,0,0,0,0, ,0,0,0,0,0, ,33.3,44.9,-998.2,-0.5,-0.5,-1.8,25,33.0967,45.7891,-999.006,-0.442936,-0.506273,-1.84738,
2026_07_06_14_54_39.148,3.867,31.4,0,0.762,0,0,0,0, ,0,0,0,0,0, ,33.3,45.7,-998.1,-0.4,-0.5,-1.8,25,33.1091,45.7593,-998.954,-0.443366,-0.505891,-1.84449,
2026_07_06_14_54_39.168,3.867,31.3,0,0.76,0,0,0,0, ,0,0,0,0,0, ,32.8,46.3,-999,-0.5,-0.5,-1.9,25,33.1055,45.7739,-998.929,-0.443771,-0.505532,-1.84483,
2026_07_06_14_54_39.187,3.867,31.3,0,0.761,0,0,0,0, ,0,0,0,0,0, ,32.5,45.8,-998.9,-0.3,-0.5,-1.8,25,33.0777,45.7908,-998.931,-0.441103,-0.505195,-1.84514,
2026_07_06_14_54_39.207,3.867,31.2,0,0.759,0,0,0,0, ,0,0,0,0,0, ,32.4,45.2,-1000,-0.4,-0.5,-1.8,25,33.0395,45.773,-998.962,-0.435552,-0.504878,-1.84239,
2026_07_06_14_54_39.227,3.867,31.2,0,0.76,0,0,0,0, ,0,0,0,0,0, ,34,44.9,-999,-0.3,-0.6,-1.9,25,33.0493,45.729,-998.995,-0.430338,-0.507628,-1.84286,
2026_07_06_14_54_39.247,3.867,31.3,0,0.759,0,0,0,0, ,0,0,0,0,0, ,32.9,45.4,-1000.1,-0.4,-0.6,-1.9,25,33.0737,45.6937,-999.029,-0.425443,-0.513257,-1.84634,
2026_07_06_14_54_39.267,3.867,31.2,0,0.759,0,0,0,0, ,0,0,0,0,0, ,32.5,46.5,-999.1,-0.4,-0.6,-1.8,25,33.0509,45.7093,-999.064,-0.423892,-0.518543,-1.84656,
2026_07_06_14_54_39.287,3.867,31.3,0,0.759,0,0,0,0, ,0,0,0,0,0, ,31.9,45.5,-998.9,-0.4,-0.5,-1.8,25,32.9991,45.727,-999.06,-0.422436,-0.52046,-1.84372,
2026_07_06_14_54_39.307,3.867,31.3,0,0.76,0,0,0,0, ,0,0,0,0,0, ,33,46.5,-998.6,-0.4,-0.5,-1.8,25,32.9656,45.7437,-999.041,-0.421069,-0.519213,-1.84106,
2026_07_06_14_54_39.326,3.867,31.3,0,0.761,0,0,0,0, ,0,0,0,0,0, ,34,46.7,-998.4,-0.4,-0.5,-1.8,25,32.9982,45.7958,-999.008,-0.419785,-0.518042,-1.83856,
2026_07_06_14_54_39.345,3.867,31.2,0,0.761,0,0,0,0, ,0,0,0,0,0, ,33.6,46.6,-998.2,-0.4,-0.5,-1.8,25,33.047,45.8479,-998.965,-0.41858,-0.516943,-1.83621,
2026_07_06_14_54_39.366,3.867,31.3,0,0.759,0,0,0,0, ,0,0,0,0,0, ,33.5,46.2,-999,-0.4,-0.6,-1.8,25,33.0777,45.8815,-998.943,-0.417447,-0.518957,-1.834,
2026_07_06_14_54_39.386,3.867,31.2,0,0.758,0,0,0,0, ,0,0,0,0,0, ,33.2,45.6,-998.6,-0.4,-0.5,-1.8,25,33.0943,45.8827,-998.934,-0.416384,-0.520849,-1.83193,
2026_07_06_14_54_39.406,3.867,31.3,0,0.76,0,0,0,0, ,0,0,0,0,0, ,32.4,46.6,-997.9,-0.4,-0.5,-1.8,25,33.0763,45.8959,-998.892,-0.415386,-0.519578,-1.82998,
2026_07_06_14_54_39.425,3.867,31.4,0,0.759,0,0,0,0, ,0,0,0,0,0, ,33,45.4,-997.3,-0.5,-0.5,-1.8,25,33.0534,45.9023,-998.814,-0.417495,-0.518385,-1.82816,
2026_07_06_14_54_39.445,3.867,31.4,0,0.76,0,0,0,0, ,0,0,0,0,0, ,32.7,45.8,-997.5,-0.5,-0.5,-1.9,25,33.041,45.8838,-998.727,-0.422523,-0.517265,-1.82949,
2026_07_06_14_54_39.465,3.867,31.3,0,0.759,0,0,0,0, ,0,0,0,0,0, ,33.2,45.7,-998.9,-0.4,-0.5,-1.7,25,33.0355,45.8757,-998.695,-0.424197,-0.516213,-1.82769,
2026_07_06_14_54_39.484,3.867,31.3,0,0.758,0,0,0,0, ,0,0,0,0,0, ,33.4,45.7,-997.5,-0.4,-0.5,-1.8,25,33.0516,45.865,-998.665,-0.422723,-0.515225,-1.82296,
2026_07_06_14_54_39.504,3.867,31.3,0,0.759,0,0,0,0, ,0,0,0,0,0, ,33.6,45.8,-999.8,-0.4,-0.6,-1.8,25,33.0789,45.858,-998.664,-0.421338,-0.517344,-1.82156,
2026_07_06_14_54_39.524,3.867,31.3,0,0.759,0,0,0,0, ,0,0,0,0,0, ,32.8,46,-998.6,-0.4,-0.5,-1.8,25,33.0863,45.8605,-998.697,-0.420038,-0.519334,-1.82024,
2026_07_06_14_54_39.544,3.867,31.3,0,0.761,0,0,0,0, ,0,0,0,0,0, ,32.2,46.8,-998.4,-0.5,-0.5,-1.8,25,33.0506,45.8934,-998.685,-0.421864,-0.518156,-1.81901,
2026_07_06_14_54_39.564,3.867,31.4,0,0.759,0,0,0,0, ,0,0,0,0,0, ,34.9,46.5,-998.1,-0.4,-0.5,-1.8,25,33.081,45.9395,-998.658,-0.423578,-0.517049,-1.81785,
2026_07_06_14_54_39.584,3.867,31.2,0,0.76,0,0,0,0, ,0,0,0,0,0, ,33.3,45.8,-998.9,-0.4,-0.5,-1.8,25,33.1431,45.9523,-998.649,-0.422141,-0.51601,-1.81676,
2026_07_06_14_54_39.603,3.867,31.4,0,0.759,0,0,0,0, ,0,0,0,0,0, ,33.8,45.8,-999,-0.4,-0.5,-1.8,25,33.1679,45.9431,-998.667,-0.420792,-0.515035,-1.81574,
2026_07_06_14_54_39.623,3.867,31.3,0,0.761,0,0,0,0, ,0,0,0,0,0, ,31.9,46.8,-997.8,-0.4,-0.5,-1.9,25,33.1485,45.9648,-998.651,-0.419525,-0.514119,-1.81783,
2026_07_06_14_54_39.643,3.867,31.4,0,0.76,0,0,0,0, ,0,0,0,0,0, ,33.3,44.9,-1000.3,-0.4,-0.5,-1.8,25,33.1151,45.9578,-998.675,-0.418335,-0.513258,-1.81979,
2026_07_06_14_54_39.662,3.867,31.2,0,0.76,0,0,0,0, ,0,0,0,0,0, ,34.5,45.6,-999.2,-0.4,-0.5,-1.9,25,33.1629,45.9147,-998.741,-0.417218,-0.51245,-1.82163,
2026_07_06_14_54_39.682,3.867,31.2,0,0.76,0,0,0,0, ,0,0,0,0,0, ,32.1,45.7,-998.7,-0.4,-0.5,-1.8,25,33.1713,45.8985,-998.753,-0.416169,-0.511692,-1.82336,
2026_07_06_14_54_39.702,3.867,31.3,0,0.759,0,0,0,0, ,0,0,0,0,0, ,33.6,45.5,-998.1,-0.4,-0.6,-1.8,25,33.1517,45.8804,-998.732,-0.415183,-0.514026,-1.82194,
2026_07_06_14_54_39.722,3.867,31.3,0,0.76,0,0,0,0, ,0,0,0,0,0, ,33.8,45.8,-999.2,-0.5,-0.6,-1.8,25,33.1851,45.8663,-998.727,-0.417305,-0.519265,-1.8206,
2026_07_06_14_54_39.742,3.867,31.3,0,0.759,0,0,0,0, ,0,0,0,0,0, ,34.6,45.7,-998,-0.5,-0.5,-1.9,25,33.247,45.8592,-998.719,-0.422344,-0.521138,-1.82239,
2026_07_06_14_54_39.761,3.867,31.3,0,0.758,0,0,0,0, ,0,0,0,0,0, ,32.9,46.7,-998.7,-0.5,-0.5,-1.8,25,33.2776,45.88,-998.697,-0.427076,-0.51985,-1.82407,
2026_07_06_14_54_39.782,3.867,31.4,0,0.759,0,0,0,0, ,0,0,0,0,0, ,33.2,45.1,-999.1,-0.5,-0.5,-1.8,25,33.2637,45.8812,-998.709,-0.43152,-0.51864,-1.82261,
2026_07_06_14_54_39.802,3.867,31.2,0,0.759,0,0,0,0, ,0,0,0,0,0, ,33.9,45.6,-998,-0.5,-0.6,-1.8,25,33.2812,45.8488,-998.699,-0.435693,-0.520551,-1.82123,
2026_07_06_14_54_39.821,3.867,31.4,0,0.759,0,0,0,0, ,0,0,0,0,0, ,33.2,44.9,-999.2,-0.5,-0.5,-1.9,25,33.2976,45.8124,-998.693,-0.439612,-0.522346,-1.82298,
2026_07_06_14_54_39.841,3.867,31.2,0,0.759,0,0,0,0, ,0,0,0,0,0, ,33.3,45.8,-999.8,-0.4,-0.6,-1.8,25,33.2947,45.7842,-998.742,-0.440245,-0.524031,-1.82463,
2026_07_06_14_54_39.861,3.867,31.3,0,0.759,0,0,0,0, ,0,0,0,0,0, ,33.2,46.2,-999.7,-0.4,-0.6,-1.8,25,33.2919,45.7973,-998.804,-0.437793,-0.52866,-1.82313,
2026_07_06_14_54_39.881,3.867,31.3,0,0.759,0,0,0,0, ,0,0,0,0,0, ,34.4,43.8,-998.2,-0.4,-0.6,-1.8,25,33.3229,45.7487,-998.813,-0.43549,-0.533008,-1.82172,
2026_07_06_14_54_39.900,3.867,31.3,0,0.76,0,0,0,0, ,0,0,0,0,0, ,32.7,46,-999.7,-0.3,-0.6,-1.9,25,33.3367,45.697,-998.821,-0.43028,-0.53709,-1.82344,
2026_07_06_14_54_39.920,3.867,31.3,0,0.759,0,0,0,0, ,0,0,0,0,0, ,33.8,46,-998.4,-0.4,-0.5,-1.8,25,33.3315,45.7155,-998.835,-0.425388,-0.537877,-1.82506,
2026_07_06_14_54_39.941,3.867,31.1,0,0.76,0,0,0,0, ,0,0,0,0,0, ,31.6,46.2,-999.5,-0.4,-0.5,-1.9,25,33.293,45.7389,-998.842,-0.423841,-0.535569,-1.82658,
2026_07_06_14_54_39.959,3.867,31.2,0,0.758,0,0,0,0, ,0,0,0,0,0, ,33.4,46.6,-1000,-0.4,-0.6,-1.9,25,33.2447,45.7792,-998.897,-0.422388,-0.536448,-1.83105,
2026_07_06_14_54_39.979,3.867,31.2,0,0.758,0,0,0,0, ,0,0,0,0,0, ,33.6,46.6,-999.5,-0.4,-0.6,-1.8,25,33.2602,45.8292,-998.949,-0.421024,-0.540321,-1.83221,
2026_07_06_14_54_39.999,3.867,31.3,0,0.76,0,0,0,0, ,0,0,0,0,0, ,33.6,45.2,-998,-0.4,-0.5,-1.9,25,33.2809,45.8335,-998.937,-0.419743,-0.540911,-1.83329,
2026_07_06_14_54_40.019,3.867,31.2,0,0.759,0,0,0,0, ,0,0,0,0,0, ,33.8,45.7,-998.5,-0.4,-0.5,-1.8,25,33.3065,45.8102,-998.895,-0.41854,-0.538418,-1.83431,
2026_07_06_14_54_40.039,3.867,31.2,0,0.76,0,0,0,0, ,0,0,0,0,0, ,33.2,46.2,-998.6,-0.4,-0.5,-1.8,25,33.3183,45.8187,-998.874,-0.41741,-0.536076,-1.83222,
2026_07_06_14_54_40.059,3.867,31.3,0,0.76,0,0,0,0, ,0,0,0,0,0, ,34.1,46.2,-999,-0.3,-0.5,-1.8,25,33.3385,45.8419,-998.87,-0.413302,-0.533878,-1.83026,
2026_07_06_14_54_40.078,3.867,31.3,0,0.759,0,0,0,0, ,0,0,0,0,0, ,33.4,46,-997.8,-0.4,-0.5,-1.9,25,33.3635,45.8576,-998.841,-0.409445,-0.531814,-1.83146,
2026_07_06_14_54_40.102,3.867,31.2,0,0.759,0,0,0,0, ,0,0,0,0,0, ,33.9,45.7,-998,-0.4,-0.5,-1.9,25,33.381,45.8572,-998.784,-0.408869,-0.529875,-1.83564,
2026_07_06_14_54_40.118,3.867,31.3,0,0.76,0,0,0,0, ,0,0,0,0,0, ,33.4,45.6,-997.6,-0.4,-0.6,-1.8,25,33.3974,45.8446,-998.724,-0.408329,-0.531101,-1.83651,
2026_07_06_14_54_40.138,3.867,31.3,0,0.759,0,0,0,0, ,0,0,0,0,0, ,32.9,45.8,-997.8,-0.4,-0.5,-1.9,25,33.3823,45.8357,-998.661,-0.407821,-0.532253,-1.83733,
2026_07_06_14_54_40.157,3.867,31.2,0,0.759,0,0,0,0, ,0,0,0,0,0, ,32.2,45.8,-998.7,-0.4,-0.6,-1.8,25,33.3316,45.8336,-998.636,-0.407344,-0.533334,-1.83811,
2026_07_06_14_54_40.177,3.867,31.3,0,0.761,0,0,0,0, ,0,0,0,0,0, ,34,45,-999.1,-0.5,-0.6,-1.9,25,33.3175,45.8071,-998.652,-0.409944,-0.537397,-1.83883,
2026_07_06_14_54_40.197,3.867,31.2,0,0.759,0,0,0,0, ,0,0,0,0,0, ,34,46.7,-999.2,-0.4,-0.5,-1.8,25,33.3591,45.8098,-998.683,-0.412385,-0.538165,-1.83951,
2026_07_06_14_54_40.216,3.867,31.3,0,0.759,0,0,0,0, ,0,0,0,0,0, ,33.6,45.8,-999.8,-0.4,-0.5,-1.8,25,33.3859,45.8366,-998.733,-0.41163,-0.535839,-1.8371,
2026_07_06_14_54_40.237,3.867,31.3,0,0.758,0,0,0,0, ,0,0,0,0,0, ,33.5,45.7,-999.1,-0.5,-0.5,-1.8,25,33.3959,45.8313,-998.776,-0.413968,-0.533655,-1.83484,
2026_07_06_14_54_40.257,3.867,31.2,0,0.759,0,0,0,0, ,0,0,0,0,0, ,32.9,46,-998.7,-0.4,-0.6,-1.8,25,33.384,45.8324,-998.784,-0.416164,-0.534651,-1.83272,
2026_07_06_14_54_40.276,3.867,31.2,0,0.759,0,0,0,0, ,0,0,0,0,0, ,32.1,45.2,-1000.1,-0.4,-0.5,-1.8,25,33.3301,45.8183,-998.821,-0.415179,-0.535587,-1.83073,
2026_07_06_14_54_40.296,3.867,31.3,0,0.759,0,0,0,0, ,0,0,0,0,0, ,33.5,45.8,-999.8,-0.4,-0.6,-1.8,25,33.2978,45.7989,-998.89,-0.414254,-0.536465,-1.82885,
2026_07_06_14_54_40.316,3.867,31.2,0,0.759,0,0,0,0, ,0,0,0,0,0, ,33.2,46.6,-998.9,-0.4,-0.5,-1.9,25,33.301,45.8233,-998.918,-0.413385,-0.53729,-1.83014,
2026_07_06_14_54_40.336,3.867,31.3,0,0.758,0,0,0,0, ,0,0,0,0,0, ,33,45.6,-998.6,-0.4,-0.5,-1.9,25,33.2888,45.8402,-998.908,-0.41257,-0.535017,-1.8344,
2026_07_06_14_54_40.355,3.867,31.2,0,0.759,0,0,0,0, ,0,0,0,0,0, ,32.9,46.3,-998.9,-0.4,-0.5,-1.8,25,33.2681,45.8469,-998.898,-0.411804,-0.532883,-1.83535,
2026_07_06_14_54_40.375,3.867,31.3,0,0.759,0,0,0,0, ,0,0,0,0,0, ,33.5,46.2,-999.3,-0.5,-0.5,-1.8,25,33.264,45.8714,-998.911,-0.414131,-0.53088,-1.8332,
2026_07_06_14_54_40.395,3.867,31.2,0,0.76,0,0,0,0, ,0,0,0,0,0, ,32.1,44.6,-999,-0.4,-0.5,-1.8,25,33.2357,45.8427,-998.925,-0.416317,-0.528998,-1.83117,
2026_07_06_14_54_40.415,3.867,31.2,0,0.76,0,0,0,0, ,0,0,0,0,0, ,32.9,46,-998.9,-0.5,-0.5,-1.8,25,33.1909,45.8096,-998.927,-0.41837,-0.527231,-1.82927,
2026_07_06_14_54_40.435,3.867,31.3,0,0.759,0,0,0,0, ,0,0,0,0,0, ,34.3,46.3,-998.5,-0.4,-0.5,-1.9,25,33.2158,45.8304,-998.913,-0.420297,-0.525571,-1.83054,
2026_07_06_14_54_40.455,3.867,31.2,0,0.759,0,0,0,0, ,0,0,0,0,0, ,33,46.8,-998.4,-0.5,-0.5,-1.8,25,33.2423,45.8742,-998.885,-0.422107,-0.524013,-1.83172,
2026_07_06_14_54_40.474,3.867,31.2,0,0.759,0,0,0,0, ,0,0,0,0,0, ,33.8,45.8,-999.2,-0.4,-0.5,-1.9,25,33.2519,45.9002,-998.88,-0.423807,-0.52255,-1.83284,
2026_07_06_14_54_40.493,3.867,31.2,0,0.759,0,0,0,0, ,0,0,0,0,0, ,34,46.1,-997.9,-0.5,-0.6,-1.9,25,33.2914,45.9032,-998.859,-0.425403,-0.524223,-1.83693,
2026_07_06_14_54_40.513,3.867,31.2,0,0.758,0,0,0,0, ,0,0,0,0,0, ,34.3,45.7,-997.8,-0.5,-0.5,-1.8,25,33.3437,45.903,-998.798,-0.429949,-0.525793,-1.83773,
2026_07_06_14_54_40.534,3.867,31.3,0,0.759,0,0,0,0, ,0,0,0,0,0, ,31.6,46,-999.1,-0.4,-0.6,-1.8,25,33.3197,45.8998,-998.777,-0.431171,-0.527269,-1.83543,
2026_07_06_14_54_40.553,3.867,31.2,0,0.759,0,0,0,0, ,0,0,0,0,0, ,33.4,45,-998.7,-0.4,-0.6,-1.8,25,33.2697,45.8754,-998.784,-0.429271,-0.531701,-1.83327,
2026_07_06_14_54_40.573,3.867,31.2,0,0.76,0,0,0,0, ,0,0,0,0,0, ,34.3,45.5,-999.1,-0.4,-0.5,-1.8,25,33.3051,45.8373,-998.791,-0.427487,-0.532816,-1.83124,
2026_07_06_14_54_40.600,3.867,31.3,0,0.759,0,0,0,0, ,0,0,0,0,0, ,33.5,45.2,-998.7,-0.3,-0.5,-1.8,25,33.3414,45.8076,-998.798,-0.422766,-0.530816,-1.82934,
2026_07_06_14_54_40.613,3.867,31.3,0,0.759,0,0,0,0, ,0,0,0,0,0, ,33.4,46.8,-1000.4,-0.4,-0.5,-1.8,25,33.348,45.8193,-998.844,-0.418331,-0.528938,-1.82755,
2026_07_06_14_54_40.729,3.867,31.1,0,0.759,0,0,0,0, ,0,0,0,0,0, ,33.8,45.7,-999,-0.3,-0.5,-1.8,25,33.3633,45.8456,-998.896,-0.414167,-0.527175,-1.82587,
2026_07_06_14_54_40.730,3.867,31.3,0,0.759,0,0,0,0, ,0,0,0,0,0, ,34,46.8,-996.9,-0.5,-0.5,-1.8,25,33.396,45.8702,-998.838,-0.413304,-0.525519,-1.82429,
2026_07_06_14_54_40.731,3.867,31.3,0,0.758,0,0,0,0, ,0,0,0,0,0, ,33.8,46.2,-998.7,-0.4,-0.5,-1.8,25,33.4267,45.9086,-998.775,-0.41554,-0.523964,-1.82281,
2026_07_06_14_54_40.731,3.867,31.3,0,0.759,0,0,0,0, ,0,0,0,0,0, ,32.8,46,-997.6,-0.4,-0.5,-1.8,25,33.419,45.9203,-998.737,-0.414593,-0.522503,-1.82142,
2026_07_06_14_54_40.732,3.867,31.3,0,0.76,0,0,0,0, ,0,0,0,0,0, ,33.3,46.5,-997.3,-0.4,-0.5,-1.8,25,33.3965,45.9404,-998.658,-0.413704,-0.521132,-1.82012,
2026_07_06_14_54_40.745,3.867,31.2,0,0.759,0,0,0,0, ,0,0,0,0,0, ,33.3,45.6,-997.8,-0.5,-0.5,-1.8,25,33.3907,45.947,-998.591,-0.415916,-0.519844,-1.81889,
2026_07_06_14_54_40.751,3.867,31.2,0,0.759,0,0,0,0, ,0,0,0,0,0, ,32.8,46.3,-998.9,-0.4,-0.5,-1.8,25,33.3699,45.9472,-998.576,-0.417993,-0.518635,-1.81774,
2026_07_06_14_54_40.771,3.867,31.3,0,0.759,0,0,0,0, ,0,0,0,0,0, ,35.1,46.5,-997.5,-0.4,-0.5,-1.8,25,33.4052,45.9748,-998.553,-0.416896,-0.5175,-1.81666,
2026_07_06_14_54_40.791,3.867,31.2,0,0.759,0,0,0,0, ,0,0,0,0,0, ,34,45.4,-998.1,-0.4,-0.5,-1.8,25,33.475,45.9733,-998.507,-0.415867,-0.516433,-1.81564,
2026_07_06_14_54_40.811,3.867,31.3,0,0.758,0,0,0,0, ,0,0,0,0,0, ,32.9,46,-999.6,-0.4,-0.4,-1.9,25,33.4735,45.9566,-998.528,-0.4149,-0.512385,-1.81774,
2026_07_06_14_54_40.830,3.867,31.3,0,0.759,0,0,0,0, ,0,0,0,0,0, ,33.3,45.4,-997.9,-0.4,-0.5,-1.9,25,33.4507,45.941,-998.542,-0.413992,-0.508583,-1.82275,
2026_07_06_14_54_40.850,3.867,31.2,0,0.759,0,0,0,0, ,0,0,0,0,0, ,32.2,45.7,-998.5,-0.4,-0.5,-1.8,25,33.408,45.9172,-998.521,-0.413139,-0.50806,-1.82441,
2026_07_06_14_54_40.870,3.867,31.3,0,0.761,0,0,0,0, ,0,0,0,0,0, ,33.3,45.4,-999.2,-0.4,-0.5,-1.8,25,33.3679,45.8948,-998.541,-0.412339,-0.507569,-1.82292,
2026_07_06_14_54_40.890,3.867,31.2,0,0.76,0,0,0,0, ,0,0,0,0,0, ,32.5,46,-999,-0.5,-0.6,-1.8,25,33.3394,45.8829,-998.575,-0.414634,-0.510155,-1.82153,
2026_07_06_14_54_40.910,3.867,31.2,0,0.758,0,0,0,0, ,0,0,0,0,0, ,33.3,46,-997.8,-0.4,-0.6,-1.8,25,33.3126,45.8901,-998.564,-0.416789,-0.51563,-1.82021,
2026_07_06_14_54_40.930,3.867,31.2,0,0.759,0,0,0,0, ,0,0,0,0,0, ,32.7,44.9,-1000,-0.4,-0.5,-1.9,25,33.2936,45.8633,-998.585,-0.415766,-0.517724,-1.82203,
2026_07_06_14_54_40.949,3.867,31.2,0,0.759,0,0,0,0, ,0,0,0,0,0, ,33.3,45.5,-999.3,-0.4,-0.5,-1.8,25,33.2757,45.8228,-998.65,-0.414805,-0.516644,-1.82373,
2026_07_06_14_54_40.968,3.867,31.2,0,0.759,0,0,0,0, ,0,0,0,0,0, ,34.6,46,-998.1,-0.4,-0.5,-1.8,25,33.3168,45.8184,-998.653,-0.413903,-0.51563,-1.82229,
2026_07_06_14_54_40.988,3.867,31.2,0,0.759,0,0,0,0, ,0,0,0,0,0, ,33,45.5,-998.5,-0.4,-0.5,-1.9,25,33.3462,45.8142,-998.631,-0.413056,-0.514677,-1.82398,
2026_07_06_14_54_41.009,3.867,31.2,0,0.759,0,0,0,0, ,0,0,0,0,0, ,33.4,46.5,-998.4,-0.4,-0.5,-1.8,25,33.3373,45.8256,-998.62,-0.41226,-0.513783,-1.82556,
2026_07_06_14_54_41.028,3.867,31.3,0,0.758,0,0,0,0, ,0,0,0,0,0, ,34.3,45.1,-999.1,-0.4,-0.6,-1.8,25,33.3686,45.824,-998.628,-0.411513,-0.51599,-1.824,
2026_07_06_14_54_41.048,3.867,31.2,0,0.761,0,0,0,0, ,0,0,0,0,0, ,33.3,46.9,-999,-0.4,-0.5,-1.8,25,33.3948,45.8347,-998.654,-0.410811,-0.518062,-1.82254,
2026_07_06_14_54_41.068,3.867,31.3,0,0.758,0,0,0,0, ,0,0,0,0,0, ,33.3,46.3,-998,-0.5,-0.5,-1.8,25,33.3891,45.8814,-998.645,-0.413199,-0.516962,-1.82117,
2026_07_06_14_54_41.088,3.867,31.2,0,0.759,0,0,0,0, ,0,0,0,0,0, ,32.7,45.2,-999.3,-0.5,-0.5,-1.8,25,33.3654,45.8733,-998.645,-0.418489,-0.515928,-1.81988,
2026_07_06_14_54_41.108,3.867,31.2,0,0.759,0,0,0,0, ,0,0,0,0,0, ,32.7,46,-999.2,-0.4,-0.5,-1.8,25,33.3248,45.8567,-998.682,-0.420409,-0.514958,-1.81867,
2026_07_06_14_54_41.127,3.867,31.2,0,0.759,0,0,0,0, ,0,0,0,0,0, ,33,44.9,-999.1,-0.4,-0.4,-1.9,25,33.2959,45.8319,-998.71,-0.419165,-0.510999,-1.82058,
2026_07_06_14_54_41.147,3.867,31.3,0,0.759,0,0,0,0, ,0,0,0,0,0, ,32.8,46,-998.6,-0.5,-0.6,-1.8,25,33.2718,45.8086,-998.719,-0.421044,-0.510329,-1.82237,
2026_07_06_14_54_41.167,3.867,31.2,0,0.759,0,0,0,0, ,0,0,0,0,0, ,32.9,46,-996.8,-0.4,-0.6,-1.8,25,33.2461,45.8203,-998.657,-0.422809,-0.515793,-1.82101,
2026_07_06_14_54_41.186,3.867,31.2,0,0.759,0,0,0,0, ,0,0,0,0,0, ,32.7,44.7,-996.3,-0.5,-0.5,-1.9,25,33.2189,45.7916,-998.528,-0.424466,-0.517878,-1.82277,
2026_07_06_14_54_41.206,3.867,31.3,0,0.759,0,0,0,0, ,0,0,0,0,0, ,32.3,45.1,-999.8,-0.4,-0.5,-1.9,25,33.1751,45.7373,-998.499,-0.426022,-0.516788,-1.82748,
2026_07_06_14_54_41.226,3.867,31.3,0,0.759,0,0,0,0, ,0,0,0,0,0, ,33.5,46.1,-998.7,-0.4,-0.5,-1.9,25,33.1583,45.7289,-998.545,-0.424436,-0.515765,-1.8319,
2026_07_06_14_54_41.246,3.867,31.3,0,0.759,0,0,0,0, ,0,0,0,0,0, ,32.8,46.5,-999.3,-0.4,-0.5,-1.8,25,33.1578,45.7637,-998.573,-0.422947,-0.514805,-1.833,
2026_07_06_14_54_41.266,3.867,31.2,0,0.759,0,0,0,0, ,0,0,0,0,0, ,33.5,46.1,-999.1,-0.4,-0.5,-1.7,25,33.1573,45.7964,-998.611,-0.421549,-0.513902,-1.82794,
2026_07_06_14_54_41.285,3.867,31.3,0,0.76,0,0,0,0, ,0,0,0,0,0, ,32.9,46.7,-1000.1,-0.4,-0.5,-1.8,25,33.1599,45.8332,-998.671,-0.420236,-0.513055,-1.82319,
2026_07_06_14_54_41.305,3.867,31.4,0,0.758,0,0,0,0, ,0,0,0,0,0, ,34,47.1,-999.5,-0.4,-0.5,-1.8,25,33.1776,45.8982,-998.74,-0.419002,-0.51226,-1.82178,
2026_07_06_14_54_41.325,3.867,31.1,0,0.759,0,0,0,0, ,0,0,0,0,0, ,32.5,45.6,-998.4,-0.4,-0.5,-1.8,25,33.182,45.9257,-998.753,-0.417844,-0.511513,-1.82045,
2026_07_06_14_54_41.345,3.867,31.3,0,0.76,0,0,0,0, ,0,0,0,0,0, ,34.4,46.3,-998.9,-0.4,-0.5,-1.8,25,33.1983,45.9272,-998.746,-0.416757,-0.510811,-1.81921,
2026_07_06_14_54_41.367,3.867,31.3,0,0.759,0,0,0,0, ,0,0,0,0,0, ,33.4,46.2,-997.9,-0.4,-0.5,-1.8,25,33.2411,45.9469,-998.725,-0.415736,-0.510152,-1.81804,
2026_07_06_14_54_41.384,3.867,31.3,0,0.76,0,0,0,0, ,0,0,0,0,0, ,32.8,46.3,-999.1,-0.4,-0.5,-1.8,25,33.2325,45.9654,-998.712,-0.414777,-0.509534,-1.81694,
2026_07_06_14_54_41.405,3.867,31.4,0,0.759,0,0,0,0, ,0,0,0,0,0, ,33,46,-997.5,-0.5,-0.6,-1.9,25,33.2122,45.9766,-998.687,-0.416923,-0.512,-1.81895,
2026_07_06_14_54_41.425,3.867,31.3,0,0.759,0,0,0,0, ,0,0,0,0,0, ,33.4,46.1,-998.2,-0.5,-0.5,-1.9,25,33.2115,45.9811,-998.636,-0.421986,-0.514315,-1.82389,
2026_07_06_14_54_41.444,3.867,31.3,0,0.759,0,0,0,0, ,0,0,0,0,0, ,32.7,44.9,-998.1,-0.5,-0.6,-1.8,25,33.2017,45.9518,-998.606,-0.42674,-0.51649,-1.82548,
2026_07_06_14_54_41.464,3.867,31.2,0,0.759,0,0,0,0, ,0,0,0,0,0, ,32.1,44.7,-999.5,-0.4,-0.5,-1.9,25,33.1528,45.8816,-998.618,-0.428157,-0.518532,-1.82698,
2026_07_06_14_54_41.483,3.867,31.3,0,0.76,0,0,0,0, ,0,0,0,0,0, ,33.9,46.1,-998.1,-0.4,-0.5,-1.8,25,33.1435,45.8522,-998.629,-0.426441,-0.517402,-1.82838,
2026_07_06_14_54_41.503,3.867,31.2,0,0.759,0,0,0,0, ,0,0,0,0,0, ,32.5,45.2,-998.9,-0.5,-0.5,-1.9,25,33.1469,45.8399,-998.621,-0.427877,-0.516342,-1.8297,
2026_07_06_14_54_41.523,3.867,31.2,0,0.76,0,0,0,0, ,0,0,0,0,0, ,33.4,45.1,-998.7,-0.5,-0.5,-1.8,25,33.1349,45.7979,-998.632,-0.432272,-0.515346,-1.83093,
2026_07_06_14_54_41.543,3.867,31.2,0,0.761,0,0,0,0, ,0,0,0,0,0, ,33.2,45.8,-999.8,-0.4,-0.6,-1.9,25,33.145,45.7767,-998.67,-0.433352,-0.517458,-1.8321,
2026_07_06_14_54_41.569,3.867,31.2,0,0.763,0,0,0,0, ,0,0,0,0,0, ,31.7,45.6,-998.5,-0.4,-0.6,-1.8,25,33.1026,45.772,-998.699,-0.43132,-0.522488,-1.83319,
2026_07_06_14_54_41.583,3.867,31.3,0,0.759,0,0,0,0, ,0,0,0,0,0, ,32.5,45.7,-998.1,-0.4,-0.6,-1.9,25,33.0415,45.7646,-998.675,-0.429411,-0.527211,-1.83421,
2026_07_06_14_54_41.612,3.867,31.2,0,0.76,0,0,0,0, ,0,0,0,0,0, ,34.1,47.1,-998,-0.4,-0.5,-1.9,25,33.0573,45.8033,-998.637,-0.427619,-0.5286,-1.83822,
2026_07_06_14_54_41.628,3.867,31.2,0,0.759,0,0,0,0, ,0,0,0,0,0, ,33.4,45.8,-1000,-0.4,-0.5,-1.8,25,33.0995,45.8427,-998.659,-0.425936,-0.526857,-1.83894,
2026_07_06_14_54_41.642,3.867,31.2,0,0.761,0,0,0,0, ,0,0,0,0,0, ,32.5,47.1,-997.4,-0.5,-0.6,-1.8,25,33.0904,45.8797,-998.661,-0.427402,-0.528267,-1.83657,
2026_07_06_14_54_41.661,3.867,31.2,0,0.761,0,0,0,0, ,0,0,0,0,0, ,33.2,46.3,-1000,-0.4,-0.5,-1.8,25,33.0757,45.9297,-998.664,-0.42878,-0.529592,-1.83434,
2026_07_06_14_54_41.681,3.867,31.2,0,0.759,0,0,0,0, ,0,0,0,0,0, ,32.8,46.1,-997.1,-0.4,-0.5,-1.9,25,33.0711,45.9462,-998.657,-0.427026,-0.527788,-1.83529,
2026_07_06_14_54_41.701,3.867,31.2,0,0.759,0,0,0,0, ,0,0,0,0,0, ,32.9,45.1,-999.6,-0.5,-0.5,-1.8,25,33.0577,45.9251,-998.638,-0.428426,-0.526095,-1.83619,
2026_07_06_14_54_41.721,3.867,31.2,0,0.759,0,0,0,0, ,0,0,0,0,0, ,33.2,45.4,-998.1,-0.4,-0.5,-1.9,25,33.0572,45.8839,-998.651,-0.42974,-0.524505,-1.83703,
2026_07_06_14_54_41.742,3.867,31.4,0,0.76,0,0,0,0, ,0,0,0,0,0, ,33.6,46.8,-998.9,-0.4,-0.5,-1.8,25,33.0781,45.8971,-998.642,-0.427928,-0.523012,-1.83782,
2026_07_06_14_54_41.761,3.867,31.3,0,0.757,0,0,0,0, ,0,0,0,0,0, ,34.5,45.5,-1000.3,-0.4,-0.6,-1.8,25,33.1373,45.9125,-998.7,-0.426226,-0.524656,-1.83552,
2026_07_06_14_54_41.780,3.867,31.3,0,0.759,0,0,0,0, ,0,0,0,0,0, ,32.3,44.1,-998.9,-0.4,-0.5,-1.8,25,33.1533,45.8447,-998.755,-0.424628,-0.526201,-1.83335,
2026_07_06_14_54_41.801,3.867,31.2,0,0.759,0,0,0,0, ,0,0,0,0,0, ,32.8,44,-1000.2,-0.4,-0.5,-1.9,25,33.1165,45.7353,-998.803,-0.423127,-0.524604,-1.83437,
2026_07_06_14_54_41.820,3.867,31.2,0,0.759,0,0,0,0, ,0,0,0,0,0, ,33.5,46.5,-998.9,-0.4,-0.6,-1.8,25,33.1186,45.7058,-998.849,-0.421718,-0.526152,-1.83532,
2026_07_06_14_54_41.839,3.867,31.3,0,0.76,0,0,0,0, ,0,0,0,0,0, ,34.5,46,-998.9,-0.4,-0.5,-1.8,25,33.1723,45.7389,-998.852,-0.420395,-0.527605,-1.83317,
2026_07_06_14_54_41.859,3.867,31.1,0,0.759,0,0,0,0, ,0,0,0,0,0, ,33.6,46,-998.2,-0.5,-0.5,-1.8,25,33.2258,45.7548,-998.834,-0.422199,-0.525923,-1.83115,
2026_07_06_14_54_41.879,3.867,31.2,0,0.759,0,0,0,0, ,0,0,0,0,0, ,33.3,46.8,-999,-0.5,-0.5,-1.8,25,33.2394,45.7942,-998.819,-0.42694,-0.524343,-1.82925,
2026_07_06_14_54_41.900,3.867,31.3,0,0.759,0,0,0,0, ,0,0,0,0,0, ,32.7,46.5,-999.5,-0.5,-0.6,-1.9,25,33.2249,45.8463,-998.846,-0.431392,-0.525907,-1.83051,
2026_07_06_14_54_41.919,3.867,31.3,0,0.761,0,0,0,0, ,0,0,0,0,0, ,32.3,47.6,-999.8,-0.4,-0.6,-1.8,25,33.1807,45.9197,-998.895,-0.432526,-0.530422,-1.8317,
2026_07_06_14_54_41.939,3.867,31.2,0,0.759,0,0,0,0, ,0,0,0,0,0, ,33.6,46.1,-997.9,-0.4,-0.5,-1.9,25,33.1666,45.9764,-998.892,-0.430544,-0.531615,-1.83281,
2026_07_06_14_54_41.959,3.867,31.3,0,0.759,0,0,0,0, ,0,0,0,0,0, ,32.8,46,-998.5,-0.4,-0.4,-1.9,25,33.1687,45.9808,-998.85,-0.428682,-0.526641,-1.83691,
2026_07_06_14_54_41.979,3.867,31.2,0,0.759,0,0,0,0, ,0,0,0,0,0, ,33.5,46.2,-998.4,-0.4,-0.5,-1.9,25,33.1675,45.9881,-998.825,-0.426935,-0.521971,-1.84075,
2026_07_06_14_54_41.998,3.867,31.2,0,0.759,0,0,0,0, ,0,0,0,0,0, ,33.6,45.7,-999,-0.4,-0.5,-1.8,25,33.1908,45.9858,-998.818,-0.425293,-0.520632,-1.84132,
2026_07_06_14_54_42.018,3.867,31.2,0,0.76,0,0,0,0, ,0,0,0,0,0, ,33.9,46.7,-998.7,-0.5,-0.5,-1.8,25,33.2249,45.9988,-998.82,-0.426799,-0.519375,-1.8388,
2026_07_06_14_54_42.037,3.867,31.3,0,0.76,0,0,0,0, ,0,0,0,0,0, ,33,46.5,-999,-0.5,-0.5,-1.8,25,33.2386,46.0355,-998.822,-0.43126,-0.518194,-1.83643,
2026_07_06_14_54_42.058,3.867,31.3,0,0.759,0,0,0,0, ,0,0,0,0,0, ,33.3,45.6,-998.2,-0.4,-0.6,-1.9,25,33.2332,46.0364,-998.808,-0.432402,-0.520132,-1.83726,
2026_07_06_14_54_42.077,3.867,31.2,0,0.759,0,0,0,0, ,0,0,0,0,0, ,33.5,45.7,-999.1,-0.4,-0.5,-1.8,25,33.2434,46.0128,-998.798,-0.430427,-0.521952,-1.83804,
2026_07_06_14_54_42.097,3.867,31.2,0,0.76,0,0,0,0, ,0,0,0,0,0, ,33,45.5,-997,-0.4,-0.6,-1.8,25,33.2438,45.9877,-998.753,-0.428573,-0.523662,-1.83572,
2026_07_06_14_54_42.116,3.867,31.1,0,0.76,0,0,0,0, ,0,0,0,0,0, ,32.8,45.5,-998.2,-0.4,-0.5,-1.8,25,33.2228,45.9579,-998.683,-0.426832,-0.525267,-1.83354,
2026_07_06_14_54_42.137,3.867,31.2,0,0.76,0,0,0,0, ,0,0,0,0,0, ,33,44.7,-1000.1,-0.3,-0.6,-1.9,25,33.2032,45.9057,-998.711,-0.42215,-0.526774,-1.83455,
2026_07_06_14_54_42.156,3.867,31.3,0,0.761,0,0,0,0, ,0,0,0,0,0, ,32.8,46,-997.5,-0.5,-0.5,-1.8,25,33.1847,45.8718,-998.716,-0.4208,-0.528189,-1.83549,
2026_07_06_14_54_42.176,3.867,31.2,0,0.759,0,0,0,0, ,0,0,0,0,0, ,33.3,44.6,-998.9,-0.4,-0.5,-1.8,25,33.1765,45.837,-998.685,-0.422579,-0.526471,-1.83333,
2026_07_06_14_54_42.196,3.867,31.2,0,0.76,0,0,0,0, ,0,0,0,0,0, ,33.9,46.5,-998.4,-0.4,-0.5,-1.8,25,33.2023,45.8195,-998.683,-0.421204,-0.524858,-1.83129,
2026_07_06_14_54_42.216,3.867,31.1,0,0.76,0,0,0,0, ,0,0,0,0,0, ,34.6,46.3,-998.1,-0.4,-0.5,-1.9,25,33.2661,45.8548,-998.656,-0.419911,-0.523343,-1.83243,
2026_07_06_14_54_42.235,3.867,31.3,0,0.759,0,0,0,0, ,0,0,0,0,0, ,33.8,46.2,-998.4,-0.4,-0.5,-1.8,25,33.323,45.8789,-998.632,-0.418698,-0.521921,-1.8335,
2026_07_06_14_54_42.256,3.867,31.2,0,0.76,0,0,0,0, ,0,0,0,0,0, ,32.3,46.3,-998.5,-0.4,-0.6,-1.9,25,33.3064,45.9015,-998.621,-0.417559,-0.523632,-1.83451,
2026_07_06_14_54_42.275,3.867,31.1,0,0.76,0,0,0,0, ,0,0,0,0,0, ,34.5,47.2,-999.6,-0.4,-0.6,-1.9,25,33.3121,45.9532,-998.647,-0.416489,-0.528286,-1.8385,
2026_07_06_14_54_42.294,3.867,31.2,0,0.759,0,0,0,0, ,0,0,0,0,0, ,33.8,46,-997.4,-0.4,-0.5,-1.8,25,33.3632,45.9927,-998.638,-0.415484,-0.529609,-1.8392,
2026_07_06_14_54_42.320,3.867,31.1,0,0.759,0,0,0,0, ,0,0,0,0,0, ,34.1,45.4,-998.6,-0.4,-0.5,-1.8,25,33.3989,45.9748,-998.599,-0.41454,-0.527805,-1.83681,
2026_07_06_14_54_42.334,3.867,31.2,0,0.759,0,0,0,0, ,0,0,0,0,0, ,33,46.1,-999,-0.4,-0.5,-1.8,25,33.4081,45.9611,-998.611,-0.413654,-0.52611,-1.83457,
2026_07_06_14_54_42.354,3.867,31.2,0,0.759,0,0,0,0, ,0,0,0,0,0, ,33.5,46.1,-998.1,-0.4,-0.5,-1.8,25,33.3985,45.9696,-998.608,-0.412822,-0.524519,-1.83246,
2026_07_06_14_54_42.374,3.867,31.2,0,0.76,0,0,0,0, ,0,0,0,0,0, ,34.3,46,-997.8,-0.4,-0.5,-1.9,25,33.4291,45.9745,-998.567,-0.412041,-0.523025,-1.83353,
2026_07_06_14_54_42.393,3.867,31.1,0,0.759,0,0,0,0, ,0,0,0,0,0, ,33.3,46.5,-997.1,-0.4,-0.5,-1.9,25,33.4517,45.9913,-998.499,-0.411307,-0.521622,-1.83758,
2026_07_06_14_54_42.414,3.867,31.2,0,0.759,0,0,0,0, ,0,0,0,0,0, ,33,45,-998.5,-0.3,-0.5,-1.8,25,33.4333,45.9766,-998.457,-0.407571,-0.520304,-1.83834,
2026_07_06_14_54_42.433,3.867,31.1,0,0.759,0,0,0,0, ,0,0,0,0,0, ,31.8,46.3,-998,-0.4,-0.5,-1.8,25,33.3703,45.9567,-998.444,-0.404063,-0.519067,-1.836,
2026_07_06_14_54_42.460,3.867,31.2,0,0.759,0,0,0,0, ,0,0,0,0,0, ,33.3,46.6,-999.5,-0.4,-0.5,-1.8,25,33.3203,45.9867,-998.463,-0.403815,-0.517905,-1.83381,
2026_07_06_14_54_42.473,3.867,31.2,0,0.759,0,0,0,0, ,0,0,0,0,0, ,33.5,45,-999.5,-0.4,-0.5,-1.8,25,33.3252,45.9754,-998.526,-0.403583,-0.516814,-1.83175,
2026_07_06_14_54_42.493,3.867,31.2,0,0.759,0,0,0,0, ,0,0,0,0,0, ,33.6,45.5,-998.4,-0.5,-0.6,-1.8,25,33.3389,45.9312,-998.552,-0.406411,-0.518836,-1.82981,
2026_07_06_14_54_42.512,3.867,31.3,0,0.759,0,0,0,0, ,0,0,0,0,0, ,33.6,45.2,-999.2,-0.4,-0.5,-1.8,25,33.3548,45.8957,-998.567,-0.409068,-0.520735,-1.828,
2026_07_06_14_54_42.532,3.867,31.2,0,0.759,0,0,0,0, ,0,0,0,0,0, ,33.6,46.1,-998.2,-0.4,-0.5,-1.8,25,33.3697,45.8808,-998.575,-0.408515,-0.519472,-1.82629,
2026_07_06_14_54_42.552,3.867,31.3,0,0.759,0,0,0,0, ,0,0,0,0,0, ,33.6,46.5,-998.9,-0.4,-0.5,-1.8,25,33.3838,45.9063,-998.574,-0.407996,-0.518285,-1.82469,
2026_07_06_14_54_42.572,3.867,31.2,0,0.76,0,0,0,0, ,0,0,0,0,0, ,33.2,46.8,-998.6,-0.4,-0.6,-1.8,25,33.3848,45.9516,-998.584,-0.407509,-0.520218,-1.82318,
2026_07_06_14_54_42.592,3.867,31.2,0,0.758,0,0,0,0, ,0,0,0,0,0, ,33.3,45.7,-998.6,-0.4,-0.5,-1.8,25,33.3765,45.9698,-998.585,-0.407051,-0.522033,-1.82177,
2026_07_06_14_54_42.613,3.867,31.1,0,0.76,0,0,0,0, ,0,0,0,0,0, ,34.5,45.4,-999.2,-0.4,-0.5,-1.8,25,33.4084,45.9442,-998.604,-0.406622,-0.52069,-1.82044,
2026_07_06_14_54_42.632,3.867,31.2,0,0.76,0,0,0,0, ,0,0,0,0,0, ,33.2,45.6,-998.4,-0.4,-0.5,-1.8,25,33.4353,45.9172,-998.616,-0.406218,-0.519429,-1.8192,
2026_07_06_14_54_42.651,3.867,31.2,0,0.759,0,0,0,0, ,0,0,0,0,0, ,33.6,45.2,-998.1,-0.4,-0.5,-1.9,25,33.4332,45.8856,-998.594,-0.405839,-0.518245,-1.82108,
2026_07_06_14_54_42.671,3.867,31.2,0,0.759,0,0,0,0, ,0,0,0,0,0, ,32.3,45.8,-998.1,-0.4,-0.5,-1.9,25,33.4038,45.8621,-998.564,-0.405483,-0.517133,-1.82589,
2026_07_06_14_54_42.691,3.867,31.2,0,0.759,0,0,0,0, ,0,0,0,0,0, ,32.9,44.7,-999.2,-0.4,-0.5,-1.9,25,33.3548,45.8248,-998.569,-0.405149,-0.516089,-1.8304,
2026_07_06_14_54_42.710,3.867,31.2,0,0.759,0,0,0,0, ,0,0,0,0,0, ,33.8,47.1,-998.5,-0.4,-0.5,-1.8,25,33.3545,45.8294,-998.586,-0.404835,-0.515109,-1.8316,
2026_07_06_14_54_42.730,3.867,31.1,0,0.76,0,0,0,0, ,0,0,0,0,0, ,33.8,46.2,-997.8,-0.4,-0.5,-1.8,25,33.3816,45.8794,-998.56,-0.404541,-0.514188,-1.82967,
2026_07_06_14_54_42.750,3.867,31.2,0,0.76,0,0,0,0, ,0,0,0,0,0, ,33.8,45.4,-997.8,-0.4,-0.5,-1.7,25,33.4071,45.8746,-998.513,-0.404264,-0.513324,-1.82482,
2026_07_06_14_54_42.770,3.867,31.2,0,0.759,0,0,0,0, ,0,0,0,0,0, ,33.5,47.2,-999.1,-0.3,-0.5,-1.8,25,33.4219,45.9005,-998.51,-0.400957,-0.512512,-1.82026,
2026_07_06_14_54_42.790,3.867,31.2,0,0.759,0,0,0,0, ,0,0,0,0,0, ,33.9,47.1,-997,-0.4,-0.5,-1.8,25,33.4389,45.9766,-998.482,-0.397852,-0.511749,-1.81902,
2026_07_06_14_54_42.809,3.867,31.2,0,0.76,0,0,0,0, ,0,0,0,0,0, ,32.2,45.2,-999,-0.4,-0.5,-1.8,25,33.4152,45.9872,-998.452,-0.397983,-0.511033,-1.81786,
2026_07_06_14_54_42.829,3.867,31.2,0,0.761,0,0,0,0, ,0,0,0,0,0, ,33.8,43.8,-998,-0.4,-0.5,-1.8,25,33.3899,45.8966,-998.455,-0.398106,-0.510361,-1.81677,
2026_07_06_14_54_42.849,3.867,31.2,0,0.76,0,0,0,0, ,0,0,0,0,0, ,33.2,46.6,-1000.1,-0.4,-0.5,-1.8,25,33.3966,45.8541,-998.491,-0.398221,-0.50973,-1.81575,
2026_07_06_14_54_42.869,3.867,31.2,0,0.759,0,0,0,0, ,0,0,0,0,0, ,32.2,45.6,-997.9,-0.5,-0.5,-1.9,25,33.3541,45.8691,-998.522,-0.401377,-0.509137,-1.81784,
2026_07_06_14_54_42.889,3.867,31.2,0,0.758,0,0,0,0, ,0,0,0,0,0, ,33.3,45.4,-998.4,-0.4,-0.6,-1.8,25,33.3173,45.8466,-998.5,-0.40434,-0.511627,-1.8198,
2026_07_06_14_54_42.916,3.867,31.2,0,0.757,0,0,0,0, ,0,0,0,0,0, ,33.4,45.8,-998.1,-0.5,-0.5,-1.8,25,33.3193,45.8316,-998.484,-0.407122,-0.513965,-1.81859,
2026_07_06_14_54_42.928,3.867,31.2,0,0.759,0,0,0,0, ,0,0,0,0,0, ,32.4,46.1,-1000.1,-0.4,-0.5,-1.8,25,33.2938,45.8388,-998.522,-0.409735,-0.513114,-1.81746,
2026_07_06_14_54_42.948,3.867,31.2,0,0.76,0,0,0,0, ,0,0,0,0,0, ,33,44.6,-998.5,-0.5,-0.5,-1.9,25,33.2576,45.809,-998.569,-0.412189,-0.512315,-1.81944,
2026_07_06_14_54_42.968,3.867,31.2,0,0.758,0,0,0,0, ,0,0,0,0,0, ,32.1,46,-998.2,-0.4,-0.5,-1.9,25,33.2145,45.778,-998.556,-0.414493,-0.511565,-1.82435,
2026_07_06_14_54_42.987,3.867,31.2,0,0.758,0,0,0,0, ,0,0,0,0,0, ,33,45.5,-997,-0.4,-0.5,-1.8,25,33.174,45.7763,-998.498,-0.41361,-0.51086,-1.82591,
2026_07_06_14_54_43.007,3.867,31.2,0,0.759,0,0,0,0, ,0,0,0,0,0, ,32.5,45.6,-999.5,-0.4,-0.5,-1.8,25,33.1481,45.7625,-998.483,-0.41278,-0.510198,-1.82434,
2026_07_06_14_54_43.027,3.867,31.2,0,0.759,0,0,0,0, ,0,0,0,0,0, ,33.2,45.6,-999.7,-0.4,-0.5,-1.9,25,33.13,45.7526,-998.551,-0.412001,-0.509577,-1.8259,
2026_07_06_14_54_43.047,3.867,31.2,0,0.759,0,0,0,0, ,0,0,0,0,0, ,33.2,45.2,-998.1,-0.4,-0.6,-1.8,25,33.1342,45.7311,-998.572,-0.41127,-0.51204,-1.82737,
2026_07_06_14_54_43.068,3.867,31.2,0,0.76,0,0,0,0, ,0,0,0,0,0, ,31.9,46.5,-998.9,-0.4,-0.6,-1.9,25,33.0986,45.7384,-998.568,-0.410583,-0.5174,-1.82875,
2026_07_06_14_54_43.087,3.867,31.2,0,0.759,0,0,0,0, ,0,0,0,0,0, ,32.4,45,-999.3,-0.4,-0.6,-1.8,25,33.0408,45.7391,-998.6,-0.409938,-0.522433,-1.83004,
2026_07_06_14_54_43.107,3.867,31.1,0,0.759,0,0,0,0, ,0,0,0,0,0, ,33,45.8,-999.1,-0.5,-0.5,-1.8,25,33.0201,45.7184,-998.637,-0.41238,-0.524113,-1.82821,
2026_07_06_14_54_43.126,3.867,31.1,0,0.759,0,0,0,0, ,0,0,0,0,0, ,33.4,46.6,-999.1,-0.3,-0.5,-1.8,25,33.031,45.7478,-998.665,-0.411625,-0.522644,-1.82649,
2026_07_06_14_54_43.146,3.867,31.2,0,0.76,0,0,0,0, ,0,0,0,0,0, ,33.4,45.2,-998.5,-0.5,-0.6,-1.8,25,33.0535,45.757,-998.673,-0.410917,-0.524311,-1.82488,
2026_07_06_14_54_43.165,3.867,31.2,0,0.759,0,0,0,0, ,0,0,0,0,0, ,33.3,45.8,-998.9,-0.5,-0.6,-1.8,25,33.0716,45.7414,-998.675,-0.416345,-0.528923,-1.82336,
2026_07_06_14_54_43.186,3.867,31.2,0,0.76,0,0,0,0, ,0,0,0,0,0, ,33.2,46.6,-998,-0.4,-0.6,-1.8,25,33.0824,45.7693,-998.661,-0.418396,-0.533254,-1.82194,
2026_07_06_14_54_43.205,3.867,31.3,0,0.76,0,0,0,0, ,0,0,0,0,0, ,32.2,46.5,-997.3,-0.4,-0.5,-1.9,25,33.0591,45.8169,-998.599,-0.417275,-0.534275,-1.82365,
2026_07_06_14_54_43.227,3.867,31.3,0,0.759,0,0,0,0, ,0,0,0,0,0, ,33.6,44.6,-997.5,-0.3,-0.6,-1.8,25,33.0494,45.8006,-998.526,-0.413176,-0.535233,-1.82525,
2026_07_06_14_54_43.245,3.867,31.2,0,0.76,0,0,0,0, ,0,0,0,0,0, ,32.7,45.7,-998,-0.4,-0.5,-1.7,25,33.0556,45.761,-998.479,-0.409326,-0.536133,-1.82067,
2026_07_06_14_54_43.265,3.867,31.2,0,0.76,0,0,0,0, ,0,0,0,0,0, ,32.4,46,-998.2,-0.4,-0.5,-1.7,25,33.0248,45.7664,-998.456,-0.408758,-0.533931,-1.81332,
2026_07_06_14_54_43.284,3.867,31.2,0,0.759,0,0,0,0, ,0,0,0,0,0, ,32.8,45.7,-997.8,-0.4,-0.6,-1.8,25,32.9989,45.7715,-998.428,-0.408224,-0.53491,-1.80946,
2026_07_06_14_54_43.305,3.867,31.2,0,0.76,0,0,0,0, ,0,0,0,0,0, ,33.9,45.4,-998.9,-0.5,-0.5,-1.8,25,33.0203,45.758,-998.423,-0.41077,-0.53583,-1.80888,
2026_07_06_14_54_43.324,3.867,31.2,0,0.758,0,0,0,0, ,0,0,0,0,0, ,34,45.5,-997.5,-0.4,-0.5,-1.9,25,33.0769,45.7392,-998.41,-0.41316,-0.533646,-1.81139,
2026_07_06_14_54_43.344,3.867,31.2,0,0.758,0,0,0,0, ,0,0,0,0,0, ,34.1,46,-999.2,-0.4,-0.5,-1.9,25,33.1362,45.7399,-998.406,-0.412358,-0.531596,-1.81679,
2026_07_06_14_54_43.364,3.867,31.2,0,0.759,0,0,0,0, ,0,0,0,0,0, ,32.7,46.7,-998.1,-0.4,-0.5,-1.8,25,33.1523,45.7771,-998.421,-0.411605,-0.529671,-1.81881,
2026_07_06_14_54_43.386,3.867,31.2,0,0.76,0,0,0,0, ,0,0,0,0,0, ,33.9,46,-998.1,-0.3,-0.5,-1.8,25,33.1613,45.812,-998.401,-0.407851,-0.527863,-1.81766,
2026_07_06_14_54_43.403,3.867,31.2,0,0.759,0,0,0,0, ,0,0,0,0,0, ,33.8,45.7,-999,-0.3,-0.5,-1.9,25,33.2033,45.8143,-998.41,-0.401279,-0.526165,-1.81963,
2026_07_06_14_54_43.423,3.867,31.1,0,0.759,0,0,0,0, ,0,0,0,0,0, ,31.9,45.8,-998.7,-0.4,-0.6,-1.9,25,33.1817,45.8104,-998.437,-0.398154,-0.527617,-1.82453,
2026_07_06_14_54_43.443,3.867,31.2,0,0.758,0,0,0,0, ,0,0,0,0,0, ,33.4,45.8,-999.1,-0.4,-0.5,-1.8,25,33.1493,45.8097,-998.465,-0.398267,-0.528981,-1.82608,
2026_07_06_14_54_43.463,3.867,31.2,0,0.76,0,0,0,0, ,0,0,0,0,0, ,33.4,46.6,-998.5,-0.3,-0.5,-1.8,25,33.1646,45.8335,-998.486,-0.395325,-0.527215,-1.82449,
2026_07_06_14_54_43.482,3.867,31.2,0,0.758,0,0,0,0, ,0,0,0,0,0, ,33,45.6,-998.4,-0.5,-0.5,-1.9,25,33.1668,45.8498,-998.484,-0.39561,-0.525557,-1.82605,
2026_07_06_14_54_43.502,3.867,31.1,0,0.76,0,0,0,0, ,0,0,0,0,0, ,32.5,46.8,-1000.3,-0.4,-0.5,-1.8,25,33.1414,45.8711,-998.536,-0.398925,-0.523999,-1.82751,
2026_07_06_14_54_43.521,3.867,31.2,0,0.761,0,0,0,0, ,0,0,0,0,0, ,34,45.6,-1000,-0.4,-0.6,-1.9,25,33.148,45.8912,-998.635,-0.39899,-0.525584,-1.82888,
2026_07_06_14_54_43.546,3.867,31.2,0,0.76,0,0,0,0, ,0,0,0,0,0, ,33.6,45.2,-998.6,-0.4,-0.5,-1.9,25,33.1877,45.8612,-998.675,-0.399052,-0.527072,-1.83321,
2026_07_06_14_54_43.561,3.867,31.2,0,0.76,0,0,0,0, ,0,0,0,0,0, ,34,45.7,-1000,-0.4,-0.5,-1.9,25,33.225,45.8362,-998.713,-0.399109,-0.525422,-1.83728,
2026_07_06_14_54_43.581,3.867,31.1,0,0.76,0,0,0,0, ,0,0,0,0,0, ,33.4,45.6,-998.7,-0.5,-0.5,-1.8,25,33.254,45.8248,-998.752,-0.402211,-0.523873,-1.83806,
2026_07_06_14_54_43.602,3.867,31.2,0,0.76,0,0,0,0, ,0,0,0,0,0, ,33.2,45.5,-997.9,-0.4,-0.5,-1.9,25,33.2568,45.8081,-998.725,-0.405123,-0.522418,-1.83879,
2026_07_06_14_54_43.620,3.867,31.2,0,0.76,0,0,0,0, ,0,0,0,0,0, ,33.5,46.1,-996.7,-0.4,-0.6,-1.8,25,33.2625,45.8076,-998.638,-0.404811,-0.524099,-1.83947,
2026_07_06_14_54_43.641,3.867,31.1,0,0.76,0,0,0,0, ,0,0,0,0,0, ,33.5,44.9,-997.5,-0.5,-0.6,-1.8,25,33.2769,45.7888,-998.544,-0.407564,-0.528724,-1.83706,
2026_07_06_14_54_43.661,3.867,31.2,0,0.757,0,0,0,0, ,0,0,0,0,0, ,32.7,45.7,-998.4,-0.5,-0.6,-1.8,25,33.2662,45.759,-998.508,-0.413197,-0.533067,-1.8348,
2026_07_06_14_54_43.681,3.867,31.1,0,0.758,0,0,0,0, ,0,0,0,0,0, ,33.3,45.4,-998.6,-0.4,-0.5,-1.9,25,33.2499,45.7463,-998.507,-0.41544,-0.534099,-1.83573,
2026_07_06_14_54_43.705,3.867,31.1,0,0.758,0,0,0,0, ,0,0,0,0,0, ,33.5,44.7,-998.7,-0.4,-0.6,-1.9,25,33.2591,45.7039,-998.516,-0.414499,-0.535068,-1.83965,
2026_07_06_14_54_43.720,3.867,31.2,0,0.76,0,0,0,0, ,0,0,0,0,0, ,33.8,45.1,-998.5,-0.4,-0.5,-1.8,25,33.2829,45.6549,-998.521,-0.413615,-0.535978,-1.84028,
2026_07_06_14_54_43.740,3.867,31.1,0,0.759,0,0,0,0, ,0,0,0,0,0, ,32.9,45.6,-998.1,-0.5,-0.5,-1.8,25,33.287,45.6363,-998.508,-0.415833,-0.533786,-1.83782,
2026_07_06_14_54_43.759,3.867,31.1,0,0.76,0,0,0,0, ,0,0,0,0,0, ,32.7,45.7,-997.6,-0.4,-0.6,-1.9,25,33.2573,45.6371,-998.468,-0.417915,-0.534774,-1.83857,
2026_07_06_14_54_43.779,3.867,31.2,0,0.758,0,0,0,0, ,0,0,0,0,0, ,33.8,46.6,-999.1,-0.4,-0.6,-1.8,25,33.2569,45.6684,-998.46,-0.416823,-0.538749,-1.83926,
2026_07_06_14_54_43.799,3.867,31.1,0,0.759,0,0,0,0, ,0,0,0,0,0, ,33.8,46.6,-998.4,-0.4,-0.6,-1.8,25,33.29,45.7252,-998.478,-0.415798,-0.542481,-1.83687,
2026_07_06_14_54_43.820,3.867,31.2,0,0.759,0,0,0,0, ,0,0,0,0,0, ,32.7,46.5,-999,-0.4,-0.5,-2,25,33.2875,45.7754,-998.492,-0.414835,-0.542939,-1.84072,
2026_07_06_14_54_43.838,3.867,31.2,0,0.759,0,0,0,0, ,0,0,0,0,0, ,33.2,46.7,-997.8,-0.4,-0.5,-1.8,25,33.267,45.8257,-998.486,-0.413931,-0.540323,-1.84433,
2026_07_06_14_54_43.863,3.867,31.1,0,0.758,0,0,0,0, ,0,0,0,0,0, ,33.5,46.2,-997.8,-0.5,-0.6,-1.8,25,33.272,45.8637,-998.444,-0.416129,-0.540912,-1.84163,
2026_07_06_14_54_43.878,3.867,31.1,0,0.76,0,0,0,0, ,0,0,0,0,0, ,33.9,45,-996.3,-0.5,-0.4,-1.9,25,33.2981,45.8477,-998.359,-0.42124,-0.538419,-1.84214,
2026_07_06_14_54_43.898,3.867,31.1,0,0.76,0,0,0,0, ,0,0,0,0,0, ,33.5,46.3,-999.2,-0.5,-0.5,-1.8,25,33.3226,45.8356,-998.322,-0.426039,-0.533031,-1.84262,
2026_07_06_14_54_43.918,3.867,31.1,0,0.759,0,0,0,0, ,0,0,0,0,0, ,33.5,46.2,-999.3,-0.3,-0.5,-1.9,25,33.3334,45.8609,-998.379,-0.424453,-0.531018,-1.84307,
2026_07_06_14_54_43.938,3.867,31.2,0,0.759,0,0,0,0, ,0,0,0,0,0, ,33,46.2,-999.5,-0.4,-0.5,-1.8,25,33.3283,45.8815,-998.441,-0.419916,-0.529128,-1.84349,
2026_07_06_14_54_43.958,3.867,31.3,0,0.763,0,0,0,0, ,0,0,0,0,0, ,32.8,46.8,-997.9,-0.4,-0.5,-1.7,25,33.3022,45.9192,-998.457,-0.418702,-0.527353,-1.83779,
2026_07_06_14_54_43.977,3.867,31.1,0,0.759,0,0,0,0, ,0,0,0,0,0, ,33.4,44.3,-998.6,-0.4,-0.5,-1.8,25,33.2899,45.8967,-998.444,-0.417562,-0.525686,-1.83244,
2026_07_06_14_54_43.997,3.867,31.2,0,0.759,0,0,0,0, ,0,0,0,0,0, ,32.3,44.6,-999.1,-0.4,-0.5,-1.8,25,33.2631,45.8086,-998.469,-0.416492,-0.524121,-1.83047,
2026_07_06_14_54_44.024,3.867,31.2,0,0.758,0,0,0,0, ,0,0,0,0,0, ,33.2,46.7,-999.5,-0.5,-0.5,-1.8,25,33.2318,45.7989,-998.52,-0.418534,-0.522651,-1.82861,
2026_07_06_14_54_44.037,3.867,31.2,0,0.758,0,0,0,0, ,0,0,0,0,0, ,33.5,44.6,-999.1,-0.4,-0.5,-1.8,25,33.239,45.7898,-998.567,-0.420452,-0.521271,-1.82687,
2026_07_06_14_54_44.056,3.867,31.2,0,0.759,0,0,0,0, ,0,0,0,0,0, ,34.3,45.5,-998.7,-0.5,-0.6,-1.9,25,33.2793,45.7447,-998.587,-0.422252,-0.523022,-1.82828,
2026_07_06_14_54_44.076,3.867,31.3,0,0.759,0,0,0,0, ,0,0,0,0,0, ,32.4,46,-999.1,-0.3,-0.5,-1.8,25,33.2836,45.7451,-998.606,-0.420896,-0.524666,-1.8296,
2026_07_06_14_54_44.096,3.867,31.2,0,0.76,0,0,0,0, ,0,0,0,0,0, ,34.1,44.5,-998.1,-0.5,-0.6,-1.8,25,33.2816,45.7149,-998.606,-0.419623,-0.526209,-1.8278,
2026_07_06_14_54_44.116,3.867,31.2,0,0.76,0,0,0,0, ,0,0,0,0,0, ,33.4,45.4,-999,-0.5,-0.5,-1.8,25,33.3101,45.6683,-998.603,-0.424521,-0.527659,-1.8261,
2026_07_06_14_54_44.135,3.867,31.3,0,0.76,0,0,0,0, ,0,0,0,0,0, ,32.9,45.8,-999.6,-0.4,-0.5,-1.8,25,33.3004,45.6641,-998.645,-0.426073,-0.525974,-1.82451,
2026_07_06_14_54_44.155,3.867,31.1,0,0.759,0,0,0,0, ,0,0,0,0,0, ,33.6,46.5,-999.2,-0.4,-0.5,-1.8,25,33.2973,45.6937,-998.691,-0.424485,-0.524391,-1.82302,
2026_07_06_14_54_44.175,3.867,31.1,0,0.759,0,0,0,0, ,0,0,0,0,0, ,33.4,45.4,-997.6,-0.4,-0.5,-1.8,25,33.3096,45.7093,-998.673,-0.422993,-0.522905,-1.82162,
2026_07_06_14_54_44.195,3.867,31.2,0,0.76,0,0,0,0, ,0,0,0,0,0, ,32.7,46.5,-999.6,-0.5,-0.5,-1.8,25,33.2938,45.724,-998.669,-0.424638,-0.521509,-1.8203,
2026_07_06_14_54_44.215,3.867,31.2,0,0.759,0,0,0,0, ,0,0,0,0,0, ,32.3,46.6,-998.5,-0.4,-0.5,-1.9,25,33.2454,45.7743,-998.692,-0.426184,-0.520198,-1.82211,
2026_07_06_14_54_44.234,3.867,31.1,0,0.76,0,0,0,0, ,0,0,0,0,0, ,34.1,46.5,-998.1,-0.4,-0.5,-1.8,25,33.2427,45.8216,-998.668,-0.424588,-0.518967,-1.82381,
2026_07_06_14_54_44.254,3.867,31.2,0,0.759,0,0,0,0, ,0,0,0,0,0, ,33.5,45.6,-998.4,-0.5,-0.5,-1.9,25,33.2766,45.8355,-998.643,-0.426137,-0.517811,-1.8254,
2026_07_06_14_54_44.274,3.867,31.2,0,0.76,0,0,0,0, ,0,0,0,0,0, ,32.7,47.1,-999.7,-0.4,-0.6,-1.8,25,33.2659,45.8669,-998.668,-0.427591,-0.519773,-1.8269,
2026_07_06_14_54_44.294,3.867,31.2,0,0.76,0,0,0,0, ,0,0,0,0,0, ,33.2,45.7,-999.5,-0.4,-0.5,-1.8,25,33.2466,45.8994,-998.724,-0.42591,-0.521615,-1.82526,
2026_07_06_14_54_44.313,3.867,31.3,0,0.76,0,0,0,0, ,0,0,0,0,0, ,33,46,-998.5,-0.4,-0.5,-1.8,25,33.2377,45.8964,-998.741,-0.424331,-0.520298,-1.82372,
2026_07_06_14_54_44.333,3.867,31.1,0,0.76,0,0,0,0, ,0,0,0,0,0, ,34.3,46.2,-998,-0.4,-0.5,-1.8,25,33.2628,45.9088,-998.711,-0.422848,-0.519061,-1.82228,
2026_07_06_14_54_44.356,3.867,31,0,0.76,0,0,0,0, ,0,0,0,0,0, ,34.6,45.6,-999.3,-0.4,-0.6,-1.8,25,33.3352,45.9082,-998.708,-0.421456,-0.520946,-1.82092,
2026_07_06_14_54_44.373,3.867,31.3,0,0.76,0,0,0,0, ,0,0,0,0,0, ,33.9,45.7,-998.4,-0.4,-0.5,-1.8,25,33.3909,45.8925,-998.716,-0.420148,-0.522717,-1.81965,
2026_07_06_14_54_44.393,3.867,31.2,0,0.758,0,0,0,0, ,0,0,0,0,0, ,33.4,45.1,-998.1,-0.4,-0.5,-1.9,25,33.4067,45.8625,-998.688,-0.418921,-0.521332,-1.8215,
2026_07_06_14_54_44.412,3.867,31.1,0,0.76,0,0,0,0, ,0,0,0,0,0, ,32.9,45,-999.3,-0.4,-0.5,-1.8,25,33.3911,45.813,-998.689,-0.417768,-0.520032,-1.82323,
2026_07_06_14_54_44.432,3.867,31.1,0,0.762,0,0,0,0, ,0,0,0,0,0, ,33.5,45.5,-999.5,-0.4,-0.5,-1.8,25,33.3794,45.7787,-998.732,-0.416685,-0.518812,-1.82182,
2026_07_06_14_54_44.452,3.867,31.1,0,0.758,0,0,0,0, ,0,0,0,0,0, ,33.4,46,-999.2,-0.4,-0.6,-1.8,25,33.3837,45.7769,-998.77,-0.415668,-0.520712,-1.82049,
2026_07_06_14_54_44.471,3.867,31.2,0,0.758,0,0,0,0, ,0,0,0,0,0, ,33.9,47.1,-999.6,-0.4,-0.5,-1.8,25,33.3999,45.824,-998.808,-0.414713,-0.522497,-1.81924,
2026_07_06_14_54_44.492,3.867,31.2,0,0.759,0,0,0,0, ,0,0,0,0,0, ,32.3,45.8,-999.8,-0.4,-0.5,-1.8,25,33.3817,45.8622,-998.862,-0.413817,-0.521126,-1.81807,
2026_07_06_14_54_44.516,3.867,31.2,0,0.761,0,0,0,0, ,0,0,0,0,0, ,33.9,47.2,-999.7,-0.5,-0.5,-1.9,25,33.3645,45.901,-998.916,-0.416022,-0.519839,-1.82001,
2026_07_06_14_54_44.531,3.867,31.1,0,0.757,0,0,0,0, ,0,0,0,0,0, ,34.4,46.5,-998.6,-0.4,-0.5,-1.8,25,33.4124,45.9589,-998.931,-0.418092,-0.51863,-1.82184,
2026_07_06_14_54_44.551,3.867,31.1,0,0.759,0,0,0,0, ,0,0,0,0,0, ,32.9,46.3,-999.8,-0.5,-0.5,-1.8,25,33.4268,45.9858,-998.947,-0.420037,-0.517495,-1.82051,
2026_07_06_14_54_44.570,3.867,31.1,0,0.757,0,0,0,0, ,0,0,0,0,0, ,33.5,45.6,-998.4,-0.4,-0.5,-1.8,25,33.413,45.9836,-998.956,-0.421862,-0.516428,-1.81926,
2026_07_06_14_54_44.591,3.867,31.1,0,0.759,0,0,0,0, ,0,0,0,0,0, ,33.8,46.1,-999.3,-0.4,-0.6,-1.8,25,33.4275,45.9754,-998.95,-0.42053,-0.518474,-1.81809,
2026_07_06_14_54_44.610,3.867,31.2,0,0.759,0,0,0,0, ,0,0,0,0,0, ,33,46,-999.2,-0.4,-0.5,-1.9,25,33.4258,45.98,-998.968,-0.419279,-0.520395,-1.82003,
2026_07_06_14_54_44.630,3.867,31.3,0,0.759,0,0,0,0, ,0,0,0,0,0, ,33.6,46.1,-998.4,-0.4,-0.5,-1.8,25,33.4181,45.9842,-998.958,-0.418104,-0.519152,-1.82186,
2026_07_06_14_54_44.650,3.867,31.2,0,0.76,0,0,0,0, ,0,0,0,0,0, ,33,46.1,-998,-0.4,-0.5,-1.9,25,33.4109,45.9913,-998.912,-0.417001,-0.517985,-1.82357,
2026_07_06_14_54_44.670,3.867,31.3,0,0.76,0,0,0,0, ,0,0,0,0,0, ,33.5,45.4,-999.3,-0.5,-0.5,-1.9,25,33.4011,45.9766,-998.896,-0.419012,-0.516889,-1.82823,
2026_07_06_14_54_44.692,3.867,31.1,0,0.758,0,0,0,0, ,0,0,0,0,0, ,33.3,46.8,-999,-0.4,-0.5,-1.8,25,33.4011,45.9841,-998.911,-0.4209,-0.51586,-1.82956,
2026_07_06_14_54_44.709,3.867,31.2,0,0.759,0,0,0,0, ,0,0,0,0,0, ,33.8,46,-999,-0.4,-0.5,-1.8,25,33.4101,46.0095,-998.917,-0.419627,-0.514894,-1.82775,
2026_07_06_14_54_44.729,3.867,31.3,0,0.759,0,0,0,0, ,0,0,0,0,0, ,34.3,46.6,-999.1,-0.3,-0.5,-1.8,25,33.4491,46.0272,-998.925,-0.415384,-0.513986,-1.82606,
2026_07_06_14_54_44.749,3.867,31.2,0,0.76,0,0,0,0, ,0,0,0,0,0, ,33.9,46.9,-998.4,-0.4,-0.5,-1.8,25,33.4888,46.0712,-998.914,-0.4114,-0.513134,-1.82447,
2026_07_06_14_54_44.769,3.867,31.2,0,0.76,0,0,0,0, ,0,0,0,0,0, ,33.2,45.6,-998.6,-0.5,-0.5,-1.8,25,33.4925,46.0821,-998.889,-0.413752,-0.512334,-1.82298,
2026_07_06_14_54_44.789,3.867,31.1,0,0.759,0,0,0,0, ,0,0,0,0,0, ,33,44.7,-998.7,-0.5,-0.5,-1.8,25,33.4686,46.0253,-998.874,-0.419007,-0.511582,-1.82158,
2026_07_06_14_54_44.809,3.867,31.1,0,0.758,0,0,0,0, ,0,0,0,0,0, ,32.7,46.5,-998.2,-0.4,-0.5,-1.8,25,33.4309,45.9994,-998.849,-0.420896,-0.510876,-1.82027,
2026_07_06_14_54_44.828,3.867,31.2,0,0.758,0,0,0,0, ,0,0,0,0,0, ,34.1,46.1,-998.6,-0.4,-0.5,-1.9,25,33.429,46.0177,-998.821,-0.419623,-0.510213,-1.82208,
2026_07_06_14_54_44.853,3.867,31.1,0,0.761,0,0,0,0, ,0,0,0,0,0, ,32.9,46.7,-997.1,-0.4,-0.6,-1.9,25,33.4333,46.041,-998.762,-0.418427,-0.512638,-1.82683,
2026_07_06_14_54_44.867,3.867,31.1,0,0.759,0,0,0,0, ,0,0,0,0,0, ,32.8,45.1,-998.2,-0.4,-0.5,-1.8,25,33.3978,46.0324,-998.694,-0.417304,-0.514915,-1.82824,
2026_07_06_14_54_44.887,3.867,31.1,0,0.758,0,0,0,0, ,0,0,0,0,0, ,31.8,45.7,-998.6,-0.4,-0.6,-2,25,33.3309,45.9939,-998.676,-0.41625,-0.517053,-1.83261,
2026_07_06_14_54_44.907,3.867,31.1,0,0.759,0,0,0,0, ,0,0,0,0,0, ,34.3,45.6,-998.4,-0.4,-0.5,-1.8,25,33.3138,45.9729,-998.666,-0.415259,-0.51906,-1.83672,
2026_07_06_14_54_44.927,3.867,31.1,0,0.761,0,0,0,0, ,0,0,0,0,0, ,32.4,46,-998,-0.4,-0.6,-1.8,25,33.316,45.9624,-998.637,-0.41433,-0.520946,-1.83448,
2026_07_06_14_54_44.947,3.867,31.1,0,0.759,0,0,0,0, ,0,0,0,0,0, ,35,45.5,-998.6,-0.4,-0.5,-1.8,25,33.3394,45.9494,-998.617,-0.413456,-0.522716,-1.83238,
2026_07_06_14_54_44.967,3.867,31.1,0,0.76,0,0,0,0, ,0,0,0,0,0, ,32.9,46,-997.6,-0.4,-0.5,-1.8,25,33.3766,45.9373,-998.585,-0.412636,-0.521332,-1.83041,
2026_07_06_14_54_44.986,3.867,31.2,0,0.762,0,0,0,0, ,0,0,0,0,0, ,33.4,44.7,-997.9,-0.4,-0.5,-1.9,25,33.3628,45.9015,-998.534,-0.411866,-0.520032,-1.8316,
2026_07_06_14_54_45.006,3.867,31.1,0,0.759,0,0,0,0, ,0,0,0,0,0, ,33.2,46.3,-999.3,-0.4,-0.5,-1.8,25,33.359,45.877,-998.538,-0.411143,-0.518811,-1.83272,
2026_07_06_14_54_45.026,3.867,31.1,0,0.758,0,0,0,0, ,0,0,0,0,0, ,34.3,45,-999.6,-0.4,-0.5,-1.8,25,33.3828,45.8632,-998.594,-0.410464,-0.517665,-1.83073,
2026_07_06_14_54_45.046,3.867,31.2,0,0.758,0,0,0,0, ,0,0,0,0,0, ,32.3,46.9,-998.1,-0.5,-0.5,-1.8,25,33.3777,45.8685,-998.609,-0.412873,-0.516589,-1.82886,
2026_07_06_14_54_45.066,3.867,31.1,0,0.76,0,0,0,0, ,0,0,0,0,0, ,34.5,46.2,-998.7,-0.5,-0.5,-1.8,25,33.3791,45.91,-998.597,-0.418183,-0.515578,-1.8271,
2026_07_06_14_54_45.085,3.867,31.1,0,0.758,0,0,0,0, ,0,0,0,0,0, ,32.9,46.7,-998,-0.4,-0.5,-1.9,25,33.3987,45.9429,-998.582,-0.420122,-0.514628,-1.82849,
2026_07_06_14_54_45.105,3.867,31.2,0,0.759,0,0,0,0, ,0,0,0,0,0, ,32.8,46,-998,-0.4,-0.5,-1.8,25,33.3652,45.9677,-998.546,-0.418895,-0.513737,-1.8298,
2026_07_06_14_54_45.125,3.867,31.1,0,0.759,0,0,0,0, ,0,0,0,0,0, ,33.6,45.2,-999.2,-0.3,-0.5,-1.8,25,33.3552,45.9453,-998.549,-0.414697,-0.5129,-1.82799,
2026_07_06_14_54_45.145,3.867,31.1,0,0.759,0,0,0,0, ,0,0,0,0,0, ,32.1,46,-998.5,-0.3,-0.5,-1.8,25,33.3244,45.9243,-998.568,-0.407708,-0.512114,-1.82628,
2026_07_06_14_54_45.165,3.867,31.1,0,0.759,0,0,0,0, ,0,0,0,0,0, ,35,46.6,-999.5,-0.4,-0.5,-1.8,25,33.3381,45.9472,-998.594,-0.404191,-0.511376,-1.82468,
2026_07_06_14_54_45.189,3.867,31.2,0,0.758,0,0,0,0, ,0,0,0,0,0, ,33.6,45.5,-997.4,-0.4,-0.5,-1.8,25,33.3967,45.9534,-998.585,-0.403936,-0.510682,-1.82318,
2026_07_06_14_54_45.205,3.867,31.2,0,0.759,0,0,0,0, ,0,0,0,0,0, ,33,47.1,-998.5,-0.5,-0.5,-1.9,25,33.3908,45.9746,-998.547,-0.406743,-0.510031,-1.82481,
2026_07_06_14_54_45.224,3.867,31.1,0,0.758,0,0,0,0, ,0,0,0,0,0, ,33.2,46,-998,-0.4,-0.6,-1.8,25,33.3731,46.0096,-998.529,-0.409379,-0.512467,-1.82635,
2026_07_06_14_54_45.244,3.867,31.1,0,0.758,0,0,0,0, ,0,0,0,0,0, ,32.7,45.6,-999.5,-0.4,-0.5,-1.8,25,33.3473,45.9968,-998.542,-0.408807,-0.514754,-1.82474,
2026_07_06_14_54_45.263,3.867,31.1,0,0.758,0,0,0,0, ,0,0,0,0,0, ,35,46.3,-999.1,-0.4,-0.6,-1.9,25,33.378,45.994,-998.588,-0.408271,-0.516902,-1.82628,
2026_07_06_14_54_45.283,3.867,31.2,0,0.76,0,0,0,0, ,0,0,0,0,0, ,33.8,44.7,-998.5,-0.4,-0.6,-1.8,25,33.4402,45.9639,-998.601,-0.407767,-0.521966,-1.82773,
2026_07_06_14_54_45.303,3.867,31.2,0,0.759,0,0,0,0, ,0,0,0,0,0, ,32.5,46,-999.2,-0.4,-0.5,-1.9,25,33.4226,45.9265,-998.616,-0.407293,-0.523674,-1.82908,
2026_07_06_14_54_45.323,3.867,31.2,0,0.76,0,0,0,0, ,0,0,0,0,0, ,34,46.2,-997.4,-0.4,-0.5,-1.8,25,33.412,45.9371,-998.597,-0.406849,-0.522231,-1.83036,
2026_07_06_14_54_45.343,3.867,31.1,0,0.759,0,0,0,0, ,0,0,0,0,0, ,33.5,45.8,-999.2,-0.3,-0.5,-1.9,25,33.4326,45.9409,-998.579,-0.403385,-0.520877,-1.83155,
2026_07_06_14_54_45.362,3.867,31.1,0,0.759,0,0,0,0, ,0,0,0,0,0, ,33.3,46.2,-999.2,-0.4,-0.5,-1.9,25,33.4306,45.9445,-998.617,-0.400132,-0.519605,-1.83573,
2026_07_06_14_54_45.382,3.867,31.1,0,0.758,0,0,0,0, ,0,0,0,0,0, ,33.4,46.1,-999.2,-0.4,-0.6,-1.8,25,33.4257,45.957,-998.652,-0.400124,-0.521457,-1.83659,
2026_07_06_14_54_45.403,3.867,31.1,0,0.759,0,0,0,0, ,0,0,0,0,0, ,33.5,46.8,-999.5,-0.4,-0.5,-1.9,25,33.4272,45.9871,-998.695,-0.400116,-0.523196,-1.83741,
2026_07_06_14_54_45.422,3.867,31.2,0,0.76,0,0,0,0, ,0,0,0,0,0, ,34.3,46.3,-997.9,-0.4,-0.6,-1.9,25,33.456,46.0214,-998.695,-0.400109,-0.52483,-1.84123,
2026_07_06_14_54_45.442,3.867,31.2,0,0.758,0,0,0,0, ,0,0,0,0,0, ,33.3,46.5,-997.6,-0.5,-0.5,-1.8,25,33.477,46.0444,-998.638,-0.403149,-0.526363,-1.84176,
2026_07_06_14_54_45.461,3.867,31.1,0,0.76,0,0,0,0, ,0,0,0,0,0, ,33.6,46.3,-997.9,-0.5,-0.6,-1.9,25,33.4753,46.0661,-998.583,-0.409051,-0.527804,-1.84226,
2026_07_06_14_54_45.481,3.867,31.1,0,0.758,0,0,0,0, ,0,0,0,0,0, ,32.1,45.5,-998.9,-0.3,-0.5,-1.9,25,33.4372,46.056,-998.572,-0.408499,-0.529156,-1.84578,
2026_07_06_14_54_45.501,3.867,31.2,0,0.759,0,0,0,0, ,0,0,0,0,0, ,32.7,45.7,-998.7,-0.5,-0.5,-1.9,25,33.374,46.0282,-998.586,-0.407982,-0.52738,-1.84908,
2026_07_06_14_54_45.521,3.867,31.1,0,0.76,0,0,0,0, ,0,0,0,0,0, ,32.2,44.9,-998.1,-0.4,-0.5,-1.8,25,33.3177,45.9838,-998.575,-0.410542,-0.525711,-1.84914,
2026_07_06_14_54_45.546,3.867,31.1,0,0.759,0,0,0,0, ,0,0,0,0,0, ,33.4,45.7,-998.6,-0.4,-0.5,-1.8,25,33.2862,45.9421,-998.561,-0.4099,-0.524144,-1.84615,
2026_07_06_14_54_45.562,3.867,31.1,0,0.757,0,0,0,0, ,0,0,0,0,0, ,32.3,45.2,-999.7,-0.4,-0.5,-1.8,25,33.2596,45.9122,-998.597,-0.409296,-0.522673,-1.84333,
2026_07_06_14_54_45.580,3.867,31.2,0,0.758,0,0,0,0, ,0,0,0,0,0, ,33.9,45.6,-999.1,-0.4,-0.5,-1.8,25,33.2499,45.8809,-998.646,-0.40873,-0.521291,-1.84069,
2026_07_06_14_54_45.600,3.867,31.1,0,0.758,0,0,0,0, ,0,0,0,0,0, ,32.5,46.3,-998.4,-0.5,-0.5,-1.8,25,33.2468,45.8852,-998.652,-0.411245,-0.519994,-1.83821,
2026_07_06_14_54_45.620,3.867,31.2,0,0.759,0,0,0,0, ,0,0,0,0,0, ,33,47.7,-998.9,-0.4,-0.5,-1.8,25,33.2166,45.9531,-998.652,-0.413606,-0.518776,-1.83589,
2026_07_06_14_54_45.640,3.867,31.2,0,0.761,0,0,0,0, ,0,0,0,0,0, ,34.4,45.8,-999.3,-0.4,-0.5,-1.9,25,33.246,46.0017,-998.679,-0.412777,-0.517631,-1.83675,
2026_07_06_14_54_45.659,3.867,31.2,0,0.76,0,0,0,0, ,0,0,0,0,0, ,32.7,44.9,-997.9,-0.4,-0.6,-1.9,25,33.2645,45.9619,-998.675,-0.411999,-0.519604,-1.8406,
2026_07_06_14_54_45.679,3.867,31.1,0,0.762,0,0,0,0, ,0,0,0,0,0, ,33.3,46.6,-998.9,-0.4,-0.5,-1.8,25,33.2484,45.949,-998.658,-0.411267,-0.521456,-1.84117,
2026_07_06_14_54_45.699,3.867,31.1,0,0.76,0,0,0,0, ,0,0,0,0,0, ,34.5,44.9,-998.7,-0.5,-0.5,-1.8,25,33.2881,45.9369,-998.667,-0.413628,-0.520149,-1.83866,
2026_07_06_14_54_45.719,3.867,31.1,0,0.76,0,0,0,0, ,0,0,0,0,0, ,33.2,46.1,-998.7,-0.5,-0.6,-1.8,25,33.3224,45.9103,-998.669,-0.418891,-0.521968,-1.83631,
2026_07_06_14_54_45.738,3.867,31.2,0,0.758,0,0,0,0, ,0,0,0,0,0, ,32.9,45.5,-998.6,-0.4,-0.5,-1.8,25,33.3058,45.9036,-998.667,-0.420787,-0.523676,-1.8341,
2026_07_06_14_54_45.758,3.867,31.1,0,0.76,0,0,0,0, ,0,0,0,0,0, ,33,46,-999.1,-0.4,-0.5,-1.8,25,33.2841,45.8942,-998.679,-0.41952,-0.522233,-1.83202,
2026_07_06_14_54_45.778,3.867,31.1,0,0.76,0,0,0,0, ,0,0,0,0,0, ,33.6,47.2,-998.5,-0.4,-0.5,-1.8,25,33.2851,45.9372,-998.686,-0.418331,-0.520878,-1.83007,
2026_07_06_14_54_45.798,3.867,31.1,0,0.76,0,0,0,0, ,0,0,0,0,0, ,34.5,44.7,-999.8,-0.4,-0.5,-1.8,25,33.3317,45.938,-998.714,-0.417214,-0.519606,-1.82823,
2026_07_06_14_54_45.817,3.867,31.1,0,0.76,0,0,0,0, ,0,0,0,0,0, ,32.5,45.6,-998.2,-0.4,-0.5,-1.8,25,33.3419,45.89,-998.732,-0.416165,-0.518411,-1.82651,
2026_07_06_14_54_45.838,3.867,31.1,0,0.759,0,0,0,0, ,0,0,0,0,0, ,32.8,46.1,-999.2,-0.5,-0.6,-1.8,25,33.2998,45.8875,-998.73,-0.418226,-0.520336,-1.8249,
2026_07_06_14_54_45.857,3.867,31.2,0,0.76,0,0,0,0, ,0,0,0,0,0, ,33.9,47.1,-998.5,-0.4,-0.5,-1.7,25,33.3028,45.931,-998.737,-0.420163,-0.522144,-1.82033,
2026_07_06_14_54_45.877,3.867,31,0,0.76,0,0,0,0, ,0,0,0,0,0, ,33,45.7,-997.4,-0.4,-0.5,-1.8,25,33.3118,45.9595,-998.689,-0.418934,-0.520795,-1.81605,
2026_07_06_14_54_45.902,3.867,31.1,0,0.759,0,0,0,0, ,0,0,0,0,0, ,34.7,45.7,-999.3,-0.4,-0.5,-1.9,25,33.3446,45.9437,-998.668,-0.41778,-0.519527,-1.81812,
2026_07_06_14_54_45.918,3.867,31.1,0,0.758,0,0,0,0, ,0,0,0,0,0, ,33.3,45.4,-999.3,-0.4,-0.5,-1.9,25,33.3845,45.9197,-998.707,-0.416697,-0.518337,-1.82311,
2026_07_06_14_54_45.937,3.867,31.2,0,0.759,0,0,0,0, ,0,0,0,0,0, ,34.7,45.7,-998.1,-0.4,-0.6,-1.9,25,33.422,45.8972,-998.706,-0.415679,-0.520267,-1.82779,
2026_07_06_14_54_45.957,3.867,31.1,0,0.76,0,0,0,0, ,0,0,0,0,0, ,32.4,46.6,-999.1,-0.4,-0.6,-1.8,25,33.4298,45.9126,-998.7,-0.414724,-0.525126,-1.82915,
2026_07_06_14_54_45.976,3.867,31.1,0,0.759,0,0,0,0, ,0,0,0,0,0, ,33.9,45.5,-999.1,-0.4,-0.5,-1.8,25,33.4128,45.921,-998.724,-0.413827,-0.526641,-1.82737,
2026_07_06_14_54_45.996,3.867,31.1,0,0.76,0,0,0,0, ,0,0,0,0,0, ,32.5,46.8,-998.4,-0.4,-0.5,-1.7,25,33.3998,45.9349,-998.726,-0.412984,-0.525018,-1.82265,
2026_07_06_14_54_46.015,3.867,31.1,0,0.759,0,0,0,0, ,0,0,0,0,0, ,33.2,45.4,-998.2,-0.4,-0.5,-1.8,25,33.3663,45.945,-998.7,-0.412193,-0.523493,-1.81823,
2026_07_06_14_54_46.035,3.867,31.1,0,0.759,0,0,0,0, ,0,0,0,0,0, ,33.5,46.1,-997.5,-0.5,-0.6,-1.9,25,33.3653,45.9331,-998.648,-0.414497,-0.525109,-1.82016,
2026_07_06_14_54_46.055,3.867,31.1,0,0.757,0,0,0,0, ,0,0,0,0,0, ,33.4,45.2,-998.9,-0.5,-0.5,-1.8,25,33.3705,45.9159,-998.621,-0.419707,-0.526625,-1.82198,
2026_07_06_14_54_46.075,3.867,31.1,0,0.759,0,0,0,0, ,0,0,0,0,0, ,32.7,46.6,-998.4,-0.4,-0.5,-1.8,25,33.3509,45.9149,-998.623,-0.421553,-0.525003,-1.82064,
2026_07_06_14_54_46.095,3.867,31.1,0,0.76,0,0,0,0, ,0,0,0,0,0, ,33.2,46.2,-998.2,-0.4,-0.6,-1.8,25,33.3265,45.9445,-998.603,-0.42024,-0.526526,-1.81938,
2026_07_06_14_54_46.115,3.867,31,0,0.76,0,0,0,0, ,0,0,0,0,0, ,33.5,46.5,-997.9,-0.4,-0.6,-1.9,25,33.3279,45.9692,-998.569,-0.419006,-0.531004,-1.82125,
2026_07_06_14_54_46.135,3.867,31.1,0,0.758,0,0,0,0, ,0,0,0,0,0, ,33.8,46,-998.9,-0.5,-0.5,-1.9,25,33.3476,45.9863,-998.559,-0.420895,-0.532161,-1.82605,
2026_07_06_14_54_46.154,3.867,31.1,0,0.759,0,0,0,0, ,0,0,0,0,0, ,33,45.8,-998.9,-0.4,-0.6,-1.8,25,33.3508,45.981,-998.58,-0.422669,-0.533248,-1.82751,
2026_07_06_14_54_46.174,3.867,31.1,0,0.759,0,0,0,0, ,0,0,0,0,0, ,33,46.3,-999,-0.5,-0.5,-1.9,25,33.3294,45.9852,-998.602,-0.424334,-0.534269,-1.82888,
2026_07_06_14_54_46.193,3.867,31.2,0,0.759,0,0,0,0, ,0,0,0,0,0, ,34,45.5,-998.2,-0.4,-0.6,-1.8,25,33.3398,45.98,-998.602,-0.425898,-0.535228,-1.83017,
2026_07_06_14_54_46.214,3.867,31.1,0,0.758,0,0,0,0, ,0,0,0,0,0, ,33,45.1,-1000,-0.4,-0.6,-1.9,25,33.3496,45.9386,-998.633,-0.42432,-0.539175,-1.83137,
2026_07_06_14_54_46.234,3.867,31.2,0,0.76,0,0,0,0, ,0,0,0,0,0, ,33.4,46.1,-1000.1,-0.4,-0.6,-1.8,25,33.3404,45.918,-998.719,-0.422838,-0.542881,-1.83251,
2026_07_06_14_54_46.253,3.867,31.2,0,0.76,0,0,0,0, ,0,0,0,0,0, ,34.3,46.3,-999.6,-0.4,-0.6,-1.8,25,33.3715,45.9351,-998.788,-0.421446,-0.546362,-1.83053,
2026_07_06_14_54_46.280,3.867,31.1,0,0.76,0,0,0,0, ,0,0,0,0,0, ,33.3,46.5,-999.6,-0.4,-0.5,-1.7,25,33.3976,45.9635,-998.837,-0.420139,-0.546584,-1.82562,
2026_07_06_14_54_46.293,3.867,31.1,0,0.759,0,0,0,0, ,0,0,0,0,0, ,33.2,45.6,-999.7,-0.3,-0.5,-1.8,25,33.3886,45.9687,-998.887,-0.415865,-0.543745,-1.82101,
2026_07_06_14_54_46.312,3.867,31.2,0,0.76,0,0,0,0, ,0,0,0,0,0, ,33.2,45.6,-997.8,-0.4,-0.5,-1.8,25,33.3771,45.9463,-998.878,-0.411852,-0.541079,-1.81973,
2026_07_06_14_54_46.332,3.867,31.1,0,0.759,0,0,0,0, ,0,0,0,0,0, ,33,46.5,-998.6,-0.5,-0.5,-1.9,25,33.3602,45.9526,-998.837,-0.414176,-0.538576,-1.82158,
2026_07_06_14_54_46.352,3.867,31.1,0,0.759,0,0,0,0, ,0,0,0,0,0, ,32.9,46,-998.6,-0.5,-0.5,-1.8,25,33.3352,45.9707,-998.823,-0.419406,-0.536225,-1.82331,
2026_07_06_14_54_46.372,3.867,31,0,0.758,0,0,0,0, ,0,0,0,0,0, ,34.1,44.7,-999.1,-0.4,-0.6,-1.9,25,33.3453,45.9329,-998.824,-0.42127,-0.537065,-1.82494,
2026_07_06_14_54_46.392,3.867,31.2,0,0.76,0,0,0,0, ,0,0,0,0,0, ,32.8,46.1,-999.2,-0.4,-0.5,-1.8,25,33.3517,45.9004,-998.844,-0.419974,-0.537853,-1.82646,
2026_07_06_14_54_46.412,3.867,31.1,0,0.76,0,0,0,0, ,0,0,0,0,0, ,33.6,45.2,-998.7,-0.3,-0.6,-1.8,25,33.3424,45.8852,-998.851,-0.41571,-0.538593,-1.82485,
2026_07_06_14_54_46.431,3.867,31.2,0,0.76,0,0,0,0, ,0,0,0,0,0, ,32.2,46,-999.5,-0.4,-0.6,-1.9,25,33.3155,45.8678,-998.866,-0.411706,-0.542335,-1.82638,
2026_07_06_14_54_46.455,3.867,31,0,0.76,0,0,0,0, ,0,0,0,0,0, ,32.9,46,-996.7,-0.4,-0.6,-1.8,25,33.2688,45.8758,-998.819,-0.410993,-0.545849,-1.82782,
2026_07_06_14_54_46.472,3.867,31.3,0,0.76,0,0,0,0, ,0,0,0,0,0, ,33.2,46.9,-996.9,-0.4,-0.6,-1.8,25,33.2555,45.9108,-998.696,-0.410323,-0.549149,-1.82613,
2026_07_06_14_54_46.491,3.867,31.1,0,0.76,0,0,0,0, ,0,0,0,0,0, ,32.9,45.6,-997.9,-0.3,-0.5,-1.8,25,33.243,45.9315,-998.617,-0.406647,-0.549201,-1.82453,
2026_07_06_14_54_46.511,3.867,31.1,0,0.76,0,0,0,0, ,0,0,0,0,0, ,33.4,47.3,-998,-0.4,-0.5,-1.9,25,33.2373,45.9631,-998.576,-0.403195,-0.546203,-1.82609,
2026_07_06_14_54_46.530,3.867,31.1,0,0.76,0,0,0,0, ,0,0,0,0,0, ,33.8,45.4,-998.7,-0.3,-0.5,-1.8,25,33.2594,45.9867,-998.563,-0.399953,-0.543387,-1.82754,
2026_07_06_14_54_46.550,3.867,31.2,0,0.76,0,0,0,0, ,0,0,0,0,0, ,34,46.6,-998.1,-0.4,-0.5,-1.8,25,33.2984,45.9875,-998.553,-0.396909,-0.540743,-1.82587,
2026_07_06_14_54_46.570,3.867,31.2,0,0.758,0,0,0,0, ,0,0,0,0,0, ,32.4,45.7,-998.1,-0.4,-0.6,-1.9,25,33.2924,45.9974,-998.525,-0.397098,-0.541307,-1.82734,
2026_07_06_14_54_46.590,3.867,31.2,0,0.759,0,0,0,0, ,0,0,0,0,0, ,34,45.1,-998.1,-0.4,-0.5,-1.8,25,33.2868,45.961,-998.499,-0.397275,-0.541837,-1.82872,
2026_07_06_14_54_46.609,3.867,31.1,0,0.76,0,0,0,0, ,0,0,0,0,0, ,31.7,45.2,-997,-0.4,-0.5,-1.8,25,33.2602,45.9116,-998.441,-0.397441,-0.539288,-1.82697,
2026_07_06_14_54_46.629,3.867,31.1,0,0.76,0,0,0,0, ,0,0,0,0,0, ,33.2,46.1,-999.3,-0.4,-0.6,-1.8,25,33.2108,45.8956,-998.424,-0.397597,-0.53994,-1.82532,
2026_07_06_14_54_46.649,3.867,31.1,0,0.759,0,0,0,0, ,0,0,0,0,0, ,32.5,45.8,-999.7,-0.4,-0.6,-1.8,25,33.1888,45.8989,-998.489,-0.397743,-0.5436,-1.82378,
2026_07_06_14_54_46.668,3.867,31.1,0,0.759,0,0,0,0, ,0,0,0,0,0, ,32.5,45.1,-998.6,-0.4,-0.5,-1.8,25,33.1468,45.8716,-998.53,-0.397881,-0.54399,-1.82233,
2026_07_06_14_54_46.688,3.867,31.2,0,0.758,0,0,0,0, ,0,0,0,0,0, ,33.9,46.1,-999.2,-0.4,-0.6,-1.8,25,33.1501,45.855,-998.552,-0.39801,-0.544356,-1.82097,
2026_07_06_14_54_46.709,3.867,31.1,0,0.759,0,0,0,0, ,0,0,0,0,0, ,32.9,46,-998,-0.4,-0.5,-1.9,25,33.1653,45.8669,-998.555,-0.398131,-0.5447,-1.82274,
2026_07_06_14_54_46.728,3.867,31.1,0,0.759,0,0,0,0, ,0,0,0,0,0, ,33,46,-999.5,-0.4,-0.5,-1.9,25,33.1522,45.875,-998.567,-0.398245,-0.541976,-1.82745,
2026_07_06_14_54_46.748,3.867,31.1,0,0.76,0,0,0,0, ,0,0,0,0,0, ,32.7,46,-998.6,-0.5,-0.5,-1.8,25,33.1338,45.8826,-998.596,-0.401399,-0.539418,-1.82882,
2026_07_06_14_54_46.768,3.867,31.2,0,0.76,0,0,0,0, ,0,0,0,0,0, ,33.3,46.7,-998.6,-0.4,-0.5,-1.8,25,33.1256,45.9111,-998.597,-0.40436,-0.537016,-1.82707,
2026_07_06_14_54_46.788,3.867,31.1,0,0.76,0,0,0,0, ,0,0,0,0,0, ,33.4,45.5,-998.4,-0.4,-0.5,-1.8,25,33.1393,45.9226,-998.591,-0.404095,-0.534761,-1.82542,
2026_07_06_14_54_46.807,3.867,31.2,0,0.759,0,0,0,0, ,0,0,0,0,0, ,33.8,45.7,-998,-0.4,-0.5,-1.8,25,33.1674,45.903,-998.567,-0.403845,-0.532642,-1.82387,
2026_07_06_14_54_46.827,3.867,31.2,0,0.76,0,0,0,0, ,0,0,0,0,0, ,33.3,45.6,-998.4,-0.4,-0.5,-1.8,25,33.1907,45.8876,-998.545,-0.403611,-0.530653,-1.82241,
2026_07_06_14_54_46.847,3.867,31.2,0,0.759,0,0,0,0, ,0,0,0,0,0, ,33.9,46.3,-998.6,-0.4,-0.6,-1.9,25,33.2156,45.8914,-998.542,-0.403391,-0.531832,-1.82409,
2026_07_06_14_54_46.867,3.867,31.2,0,0.758,0,0,0,0, ,0,0,0,0,0, ,33.3,45.7,-997.4,-0.4,-0.5,-1.8,25,33.2391,45.898,-998.509,-0.403184,-0.532939,-1.82567,
2026_07_06_14_54_46.886,3.867,31.2,0,0.757,0,0,0,0, ,0,0,0,0,0, ,32.9,45.4,-998.9,-0.4,-0.6,-1.8,25,33.2306,45.8768,-998.487,-0.40299,-0.533979,-1.82411,
2026_07_06_14_54_46.906,3.867,31.2,0,0.759,0,0,0,0, ,0,0,0,0,0, ,32.9,45.4,-998.4,-0.4,-0.5,-1.8,25,33.2104,45.8477,-998.497,-0.402808,-0.534955,-1.82264,
2026_07_06_14_54_46.926,3.867,31.2,0,0.76,0,0,0,0, ,0,0,0,0,0, ,33.6,46.6,-999.1,-0.4,-0.5,-1.8,25,33.2128,45.857,-998.512,-0.402637,-0.532825,-1.82126,
2026_07_06_14_54_46.945,3.867,31.1,0,0.759,0,0,0,0, ,0,0,0,0,0, ,33.3,47.4,-998.4,-0.4,-0.5,-1.9,25,33.2273,45.9267,-998.527,-0.402476,-0.530825,-1.82301,
2026_07_06_14_54_46.966,3.867,31.1,0,0.76,0,0,0,0, ,0,0,0,0,0, ,33.9,47.2,-998.2,-0.4,-0.5,-1.9,25,33.25,46.0103,-998.513,-0.402325,-0.528947,-1.8277,
2026_07_06_14_54_46.985,3.867,31.3,0,0.76,0,0,0,0, ,0,0,0,0,0, ,32.1,46.2,-998.4,-0.4,-0.5,-1.9,25,33.2348,46.0524,-998.5,-0.402184,-0.527183,-1.83211,
2026_07_06_14_54_47.004,3.867,31.2,0,0.76,0,0,0,0, ,0,0,0,0,0, ,33.4,46.7,-999.3,-0.4,-0.5,-1.8,25,33.2052,46.0766,-998.521,-0.40205,-0.525526,-1.8332,
2026_07_06_14_54_47.025,3.867,31.2,0,0.759,0,0,0,0, ,0,0,0,0,0, ,33.2,46.2,-998.4,-0.4,-0.5,-1.8,25,33.211,46.0994,-998.541,-0.401926,-0.523971,-1.83118,
2026_07_06_14_54_47.045,3.867,31.1,0,0.759,0,0,0,0, ,0,0,0,0,0, ,32.9,47.2,-999.1,-0.4,-0.5,-1.8,25,33.2012,46.136,-998.554,-0.401808,-0.52251,-1.82928,
2026_07_06_14_54_47.064,3.867,31.1,0,0.76,0,0,0,0, ,0,0,0,0,0, ,33.9,45.2,-998.4,-0.5,-0.5,-1.9,25,33.2133,46.1399,-998.566,-0.404745,-0.521138,-1.83054,
2026_07_06_14_54_47.085,3.867,31,0,0.759,0,0,0,0, ,0,0,0,0,0, ,33,46.6,-997.9,-0.4,-0.6,-1.8,25,33.2277,46.1252,-998.541,-0.407503,-0.522897,-1.83172,
2026_07_06_14_54_47.104,3.867,31.1,0,0.759,0,0,0,0, ,0,0,0,0,0, ,31.4,46.3,-998.2,-0.4,-0.5,-1.8,25,33.1651,46.145,-998.511,-0.407045,-0.524549,-1.82979,
2026_07_06_14_54_47.124,3.867,31.2,0,0.758,0,0,0,0, ,0,0,0,0,0, ,32.9,46.5,-997.9,-0.4,-0.5,-1.9,25,33.1033,46.1606,-998.483,-0.406616,-0.523053,-1.83102,
2026_07_06_14_54_47.144,3.867,31.1,0,0.759,0,0,0,0, ,0,0,0,0,0, ,31.8,45.6,-997.6,-0.4,-0.5,-1.9,25,33.0573,46.1538,-998.438,-0.406213,-0.521648,-1.83523,
2026_07_06_14_54_47.164,3.867,31,0,0.759,0,0,0,0, ,0,0,0,0,0, ,33.2,46.1,-998.5,-0.4,-0.5,-1.8,25,33.0234,46.1353,-998.414,-0.405834,-0.520329,-1.83613,
2026_07_06_14_54_47.183,3.867,31.1,0,0.759,0,0,0,0, ,0,0,0,0,0, ,33,46.8,-997.8,-0.5,-0.5,-1.8,25,33.0281,46.1545,-998.398,-0.408526,-0.51909,-1.83392,
2026_07_06_14_54_47.203,3.867,31.2,0,0.759,0,0,0,0, ,0,0,0,0,0, ,33.4,46.3,-998,-0.5,-0.5,-1.8,25,33.0385,46.1786,-998.368,-0.4141,-0.517927,-1.83186,
2026_07_06_14_54_47.223,3.867,31.1,0,0.762,0,0,0,0, ,0,0,0,0,0, ,32.8,44.6,-998.5,-0.4,-0.5,-1.9,25,33.0423,46.1342,-998.361,-0.416288,-0.516834,-1.83296,
2026_07_06_14_54_47.243,3.867,31.1,0,0.76,0,0,0,0, ,0,0,0,0,0, ,33.3,45.2,-1000.3,-0.4,-0.5,-1.8,25,33.0427,46.059,-998.424,-0.415295,-0.515808,-1.834,
2026_07_06_14_54_47.263,3.867,31.2,0,0.76,0,0,0,0, ,0,0,0,0,0, ,33.4,45.4,-998.2,-0.4,-0.5,-1.8,25,33.0615,46.0127,-998.474,-0.414363,-0.514845,-1.83193,
2026_07_06_14_54_47.283,3.867,31.1,0,0.76,0,0,0,0, ,0,0,0,0,0, ,34,45.7,-998.7,-0.5,-0.5,-1.8,25,33.1004,45.9845,-998.473,-0.416535,-0.51394,-1.82998,
2026_07_06_14_54_47.303,3.867,31.1,0,0.759,0,0,0,0, ,0,0,0,0,0, ,33.6,46.8,-999.8,-0.4,-0.6,-1.8,25,33.143,46.0007,-998.52,-0.418574,-0.516138,-1.82816,
2026_07_06_14_54_47.322,3.867,31.2,0,0.758,0,0,0,0, ,0,0,0,0,0, ,32.7,46,-998.4,-0.4,-0.6,-1.9,25,33.1434,46.025,-998.556,-0.417442,-0.521248,-1.82949,
2026_07_06_14_54_47.341,3.867,31.2,0,0.759,0,0,0,0, ,0,0,0,0,0, ,33.6,45.7,-998.6,-0.4,-0.5,-1.8,25,33.1438,46.0144,-998.552,-0.416379,-0.523,-1.83074,
2026_07_06_14_54_47.361,3.867,31.1,0,0.759,0,0,0,0, ,0,0,0,0,0, ,33.2,45.7,-998.9,-0.4,-0.5,-1.8,25,33.1594,45.9952,-998.564,-0.415381,-0.521599,-1.82886,
2026_07_06_14_54_47.381,3.867,31.1,0,0.759,0,0,0,0, ,0,0,0,0,0, ,32.7,46.5,-998.9,-0.4,-0.5,-1.8,25,33.1467,46.0016,-998.585,-0.414444,-0.520283,-1.82711,
2026_07_06_14_54_47.401,3.867,31.1,0,0.76,0,0,0,0, ,0,0,0,0,0, ,32.9,47.1,-997.8,-0.4,-0.5,-1.8,25,33.1256,46.0503,-998.57,-0.413564,-0.519047,-1.82545,
2026_07_06_14_54_47.421,3.867,31,0,0.759,0,0,0,0, ,0,0,0,0,0, ,33.8,46.2,-999.7,-0.3,-0.5,-1.9,25,33.1392,46.0868,-998.581,-0.40969,-0.517886,-1.82695,
2026_07_06_14_54_47.441,3.867,31.1,0,0.76,0,0,0,0, ,0,0,0,0,0, ,33.5,46.6,-998.1,-0.5,-0.5,-1.8,25,33.1704,46.1059,-998.601,-0.4091,-0.516796,-1.82835,
2026_07_06_14_54_47.461,3.867,31.1,0,0.76,0,0,0,0, ,0,0,0,0,0, ,33.8,46.8,-997.8,-0.4,-0.5,-1.8,25,33.1996,46.1421,-998.561,-0.411592,-0.515772,-1.82663,
2026_07_06_14_54_47.481,3.867,31.1,0,0.76,0,0,0,0, ,0,0,0,0,0, ,32.8,46,-998.7,-0.3,-0.5,-1.8,25,33.2057,46.1578,-998.542,-0.407839,-0.514811,-1.825,
2026_07_06_14_54_47.500,3.867,31.1,0,0.758,0,0,0,0, ,0,0,0,0,0, ,32.3,45.1,-998.7,-1.2,-0.5,-1.9,25,33.1658,46.1208,-998.552,-0.428689,-0.513909,-1.82653,
2026_07_06_14_54_47.521,3.867,31.1,0,0.76,0,0,0,0, ,0,0,0,0,0, ,22.9,46.8,-992.6,-2.4,-0.3,-1.8,25,32.8266,46.1104,-998.375,-0.512254,-0.506967,-1.82796,
2026_07_06_14_54_47.539,3.867,31.1,0,0.76,0,0,0,0, ,0,0,0,0,0, ,-56.7,35,-1001.8,-2.5,-0.5,-5.4,25,29.7964,45.7929,-998.303,-0.630335,-0.500449,-1.93594,
2026_07_06_14_54_47.560,3.867,31.1,0,0.76,0,0,0,0, ,0,0,0,0,0, ,-48.8,43.3,-1011.7,-2.8,-0.1,-13.6,25,24.7662,45.3881,-998.818,-0.753408,-0.488234,-2.39688,
2026_07_06_14_54_47.579,3.867,31.1,0,0.758,0,0,0,0, ,0,0,0,0,0, ,151.6,91.7,-1010.4,-1.6,0,-21,25,26.3892,46.7355,-999.563,-0.84156,-0.461529,-3.30504,
2026_07_06_14_54_47.598,3.867,31.1,0,0.759,0,0,0,0, ,0,0,0,0,0, ,134.8,47.9,-995.2,-1.8,-0.3,-3.7,25,33.5074,48.141,-999.761,-0.893871,-0.442546,-3.85621,
2026_07_06_14_54_47.618,3.867,31.1,0,0.759,0,0,0,0, ,0,0,0,0,0, ,6.4,60.5,-995.3,-3.1,-0.5,-0.6,25,35.7677,48.5102,-999.486,-0.988698,-0.439953,-3.75224,
2026_07_06_14_54_47.638,3.867,31,0,0.759,0,0,0,0, ,0,0,0,0,0, ,-35,34.6,-991.9,-6.1,-0.3,-4,25,32.7167,48.4517,-999.127,-1.20876,-0.437518,-3.66374,
2026_07_06_14_54_47.659,3.867,31.1,0,0.762,0,0,0,0, ,0,0,0,0,0, ,-3.9,231.4,-1022.5,5.1,1.7,-11.2,25,29.5378,53.6039,-999.619,-1.16557,-0.368201,-3.90361,
2026_07_06_14_54_47.678,3.867,31.1,0,0.758,0,0,0,0, ,0,0,0,0,0, ,100.4,-62.3,-989.2,4.7,4,6.2,25,30.6781,55.4896,-999.999,-0.795951,-0.172092,-3.81808,
2026_07_06_14_54_47.698,3.867,31.1,0,0.759,0,0,0,0, ,0,0,0,0,0, ,86.9,-59.2,-955.2,4.1,1.3,-3.4,25,34.5154,48.4063,-998.305,-0.479322,-0.000120491,-3.5001,
2026_07_06_14_54_47.718,3.867,31.1,0,0.76,0,0,0,0, ,0,0,0,0,0, ,82.6,54.5,-1117.1,-3.9,5.7,-1.5,25,37.5766,45.3133,-1000.61,-0.44402,0.213168,-3.43611,
2026_07_06_14_54_47.737,3.867,31.1,0,0.76,0,0,0,0, ,0,0,0,0,0, ,49,57.3,-1154.6,7.8,33.2,-0.7,25,39.2964,45.9585,-1008.85,-0.298134,1.38541,-3.29375,
2026_07_06_14_54_47.758,3.867,31.1,0,0.759,0,0,0,0, ,0,0,0,0,0, ,77.3,12,-1147.7,20.3,64.6,6.1,25,40.75,45.2693,-1017.52,0.576205,4.28083,-2.92851,
2026_07_06_14_54_47.778,3.867,31.1,0,0.762,0,0,0,0, ,0,0,0,0,0, ,127.5,-4,-1116.9,8.3,84.4,1.6,25,44.5068,42.7545,-1024.52,1.4125,8.55981,-2.51544,
2026_07_06_14_54_47.797,3.867,31.1,0,0.759,0,0,0,0, ,0,0,0,0,0, ,192.6,215.9,-1134.2,26.3,113.7,27.5,25,51.5477,46.6055,-1030.67,2.38064,14.0741,-1.47552,
2026_07_06_14_54_47.817,3.867,31,0,0.759,0,0,0,0, ,0,0,0,0,0, ,190.7,65,-978.3,22.1,124.2,23,25,60.0852,52.3241,-1032.23,3.71026,20.4649,0.153068,
2026_07_06_14_54_47.840,3.867,31.1,0,0.759,0,0,0,0, ,0,0,0,0,0, ,289.3,74.2,-1001.9,-0.6,129.5,28.2,25,71.0488,53.3769,-1029.67,4.13924,26.9478,1.70374,
2026_07_06_14_54_47.860,3.867,31.1,0,0.76,0,0,0,0, ,0,0,0,0,0, ,282.3,64.4,-1041.1,12.3,143.3,36.3,25,84.1352,54.3472,-1029.17,4.24349,33.6175,3.56515,
2026_07_06_14_54_47.875,3.867,31.1,0,0.762,0,0,0,0, ,0,0,0,0,0, ,261.5,126.2,-1050.1,-15.3,157,35.8,25,95.5771,56.8427,-1030.17,3.8935,40.7187,5.5447,
2026_07_06_14_54_47.895,3.867,31.1,0,0.76,0,0,0,0, ,0,0,0,0,0, ,397.2,-25.7,-903.8,20.5,166.6,44.9,25,109.823,56.441,-1026.93,3.81468,48.0971,7.66565,
2026_07_06_14_54_47.916,3.867,31.1,0,0.759,0,0,0,0, ,0,0,0,0,0, ,429,75.3,-879.2,3.1,158.6,46.6,25,128.304,54.5129,-1018.67,4.30128,55.0746,9.98641,
2026_07_06_14_54_47.936,3.867,31,0,0.76,0,0,0,0, ,0,0,0,0,0, ,517,7.6,-839.1,7.2,161.3,49.9,25,149.309,53.7169,-1008.95,4.353,61.4655,12.3181,
2026_07_06_14_54_47.955,3.867,31.1,0,0.759,0,0,0,0, ,0,0,0,0,0, ,556.5,-42.4,-780.1,4.2,160,43.8,25,172.918,49.3832,-996.804,4.43508,67.5095,14.4224,
2026_07_06_14_54_47.976,3.867,31,0,0.76,0,0,0,0, ,0,0,0,0,0, ,585.4,-50.5,-843.9,-11.4,175.2,38,25,197.173,43.5433,-985.543,3.94545,73.6088,16.0359,
2026_07_06_14_54_47.994,3.867,31.1,0,0.76,0,0,0,0, ,0,0,0,0,0, ,586.6,-57.1,-766.8,-21.7,187.7,36.1,25,220.867,37.6115,-974.562,2.6965,80.1804,17.3164,
2026_07_06_14_54_48.014,3.867,31.1,0,0.76,0,0,0,0, ,0,0,0,0,0, ,670,-106.4,-772.5,-3.5,195.9,26.3,25,245.695,30.3379,-962.076,1.76437,86.9822,18.1624,
2026_07_06_14_54_48.041,3.867,31.1,0,0.76,0,0,0,0, ,0,0,0,0,0, ,685.5,-60.3,-759.8,-43.4,208.5,22.1,25,272.024,23.41,-950.136,0.227873,94.0033,18.5304,
2026_07_06_14_54_48.061,3.867,31.1,0,0.759,0,0,0,0, ,0,0,0,0,0, ,823.6,-63.8,-661.8,-42.3,236.3,22,25,301.428,18.2023,-935.552,-2.39718,101.827,18.7448,
2026_07_06_14_54_48.074,3.867,31.1,0,0.759,0,0,0,0, ,0,0,0,0,0, ,769.4,-3.1,-578.9,-55.7,242.9,24,25,331.596,15.0548,-916.344,-5.23704,110.223,19.0041,
2026_07_06_14_54_48.094,3.867,31.1,0,0.759,0,0,0,0, ,0,0,0,0,0, ,849.1,-6.9,-502.1,-62,236.9,32,25,360.703,13.8327,-893.441,-8.50408,118.125,19.5523,
2026_07_06_14_54_48.113,3.867,31,0,0.76,0,0,0,0, ,0,0,0,0,0, ,882.6,110.5,-207.3,-50.5,177.4,30.5,25,391.485,16.1463,-860.612,-11.4136,123.55,20.2651,
2026_07_06_14_54_48.133,3.867,31.1,0,0.759,0,0,0,0, ,0,0,0,0,0, ,879.2,93.5,-395.3,-80.4,100,17.4,25,421.309,21.378,-826.529,-14.7064,124.473,20.4897,
2026_07_06_14_54_48.153,3.867,31.1,0,0.762,0,0,0,0, ,0,0,0,0,0, ,802.4,-252.4,-656,1.1,73.3,10.5,25,446.872,15.2338,-808.194,-16.2264,122.168,20.0912,
2026_07_06_14_54_48.173,3.867,31.1,0,0.759,0,0,0,0, ,0,0,0,0,0, ,863.6,8.9,-232.5,-15,51.1,9.5,25,470.402,6.88636,-786.016,-15.6612,118.514,19.4762,
2026_07_06_14_54_48.193,3.867,31.1,0,0.76,0,0,0,0, ,0,0,0,0,0, ,895.7,-59.3,-318.3,-32.6,43.3,10.9,25,495.34,4.93109,-754.9,-16.1571,114.168,18.911,
2026_07_06_14_54_48.214,3.867,31.1,0,0.76,0,0,0,0, ,0,0,0,0,0, ,910.7,-223.9,-380,28.4,57.5,10.7,25,520.194,-3.99814,-730.175,-15.3005,110.283,18.4167,
2026_07_06_14_54_48.233,3.867,31,0,0.76,0,0,0,0, ,0,0,0,0,0, ,899.2,-100.9,-369.9,-9.3,78.6,12.8,25,543.64,-13.6508,-708.528,-13.7862,107.709,18.0105,
2026_07_06_14_54_48.252,3.867,31.2,0,0.761,0,0,0,0, ,0,0,0,0,0, ,902.3,-56.1,-291.5,-16.6,104,8.8,25,565.402,-17.6025,-685.505,-13.7352,106.709,17.5711,
2026_07_06_14_54_48.272,3.867,31.1,0,0.761,0,0,0,0, ,0,0,0,0,0, ,988.2,-53.7,-221.1,7.1,116.9,6.5,25,588.549,-19.8753,-659.35,-13.1877,106.937,16.9665,
2026_07_06_14_54_48.292,3.867,31.1,0,0.76,0,0,0,0, ,0,0,0,0,0, ,947.2,-76.5,-150.3,23.2,115.2,9,25,611.653,-22.6312,-630.487,-11.4609,107.492,16.4049,
2026_07_06_14_54_48.311,3.867,31.1,0,0.76,0,0,0,0, ,0,0,0,0,0, ,899.4,-69.2,-149.2,39.7,98.3,6.8,25,630.644,-25.6914,-601.192,-8.84598,107.447,15.8866,
2026_07_06_14_54_48.331,3.867,31.1,0,0.76,0,0,0,0, ,0,0,0,0,0, ,923.2,-91.4,-146.4,8.7,78,8.8,25,647.747,-29.0191,-573.563,-6.83224,106.271,15.3938,
2026_07_06_14_54_48.351,3.867,31.1,0,0.76,0,0,0,0, ,0,0,0,0,0, ,958.8,-68.7,-132.2,1.4,69.2,15.3,25,665.617,-32.1288,-547.1,-6.10817,104.28,15.1901,
2026_07_06_14_54_48.371,3.867,31.1,0,0.76,0,0,0,0, ,0,0,0,0,0, ,911.4,-67.1,-96.4,0.3,59.8,19.7,25,682.038,-34.3086,-520.727,-5.68416,101.856,15.3308,
2026_07_06_14_54_48.391,3.867,31.1,0,0.76,0,0,0,0, ,0,0,0,0,0, ,881.7,-70.9,6.8,-4.9,59.3,6.9,25,695.11,-36.4226,-491.725,-5.47793,99.2781,15.2071,
2026_07_06_14_54_48.411,3.867,31,0,0.759,0,0,0,0, ,0,0,0,0,0, ,898.9,-67.9,-17.4,-1.6,71.5,-3.3,25,707.005,-38.4322,-462.083,-5.34217,97.2137,14.3901,
2026_07_06_14_54_48.430,3.867,31,0,0.759,0,0,0,0, ,0,0,0,0,0, ,849.7,-123.6,-37.4,-9.3,78.6,-3.9,25,717.199,-41.925,-435.595,-5.34874,95.8631,13.2938,
2026_07_06_14_54_48.452,3.867,31.2,0,0.762,0,0,0,0, ,0,0,0,0,0, ,968.1,-116.4,12.3,-28.7,49.3,10.3,25,728.881,-46.6827,-409.816,-6.18061,93.9184,12.6787,
2026_07_06_14_54_48.470,3.867,31.1,0,0.76,0,0,0,0, ,0,0,0,0,0, ,850.5,-5.9,-38.8,-8.6,27.7,16.4,25,739.875,-47.5643,-385.65,-6.94047,90.5413,12.7196,
2026_07_06_14_54_48.490,3.867,31.1,0,0.76,0,0,0,0, ,0,0,0,0,0, ,929.9,-106.9,10.4,-5.5,-1.1,-22.6,25,749.036,-48.1027,-363.015,-6.94714,85.8344,11.7556,
2026_07_06_14_54_48.509,3.867,31,0,0.759,0,0,0,0, ,0,0,0,0,0, ,937,-106.3,18.3,-6.6,-23.6,-30.6,25,760.273,-51.6674,-340.019,-6.89247,79.8513,9.41832,
2026_07_06_14_54_48.530,3.867,31.1,0,0.76,0,0,0,0, ,0,0,0,0,0, ,1092.5,-200,41.3,-23.9,-13.6,-7.4,25,775.78,-57.8515,-317.483,-7.40176,73.8519,7.68658,
2026_07_06_14_54_48.549,3.867,31.1,0,0.759,0,0,0,0, ,0,0,0,0,0, ,1082.6,-116.3,57.7,-24,13.8,19.8,25,794.779,-63.9634,-295.12,-8.41017,69.3577,7.59599,
2026_07_06_14_54_48.570,3.867,31.1,0,0.759,0,0,0,0, ,0,0,0,0,0, ,830.5,-21.4,-7.9,29.2,14.7,-27.8,25,804.637,-64.2612,-275.619,-7.73924,65.9996,6.88936,
2026_07_06_14_54_48.588,3.867,31.1,0,0.759,0,0,0,0, ,0,0,0,0,0, ,944,-78.7,0.1,13.2,-17.3,-52.8,25,809.671,-63.3952,-259.061,-5.97575,61.8985,4.01376,
2026_07_06_14_54_48.609,3.867,31.1,0,0.762,0,0,0,0, ,0,0,0,0,0, ,1044.1,-79.4,-44.7,0.2,-11.8,-16.3,25,820.907,-64.3492,-244.633,-5.20332,57.2399,1.66378,
2026_07_06_14_54_48.628,3.867,31.1,0,0.759,0,0,0,0, ,0,0,0,0,0, ,1090.3,-111.4,-57.3,-11.5,-21.5,1.6,25,835.915,-66.2413,-232.834,-5.23054,52.7373,1.11451,
2026_07_06_14_54_48.649,3.867,31.1,0,0.76,0,0,0,0, ,0,0,0,0,0, ,1027.4,-69.2,-19.5,-15.2,-11.1,1.1,25,849.5,-67.7074,-220.986,-5.72532,48.5303,1.12886,
2026_07_06_14_54_48.668,3.867,31.1,0,0.76,0,0,0,0, ,0,0,0,0,0, ,949.2,-55.7,26.9,-27.6,9.1,0.9,25,857.958,-67.387,-207.294,-6.6805,45.512,1.121,
2026_07_06_14_54_48.688,3.867,31.1,0,0.76,0,0,0,0, ,0,0,0,0,0, ,894.5,17,-72.6,-4.5,34.5,-15.2,25,861.852,-64.4598,-196.054,-7.25145,44.0671,0.616989,
2026_07_06_14_54_48.707,3.867,31.1,0,0.76,0,0,0,0, ,0,0,0,0,0, ,965.9,-10.6,21.4,2.3,32.4,-33.2,25,866.017,-60.3368,-185.667,-6.8766,43.4201,-0.895296,
2026_07_06_14_54_48.729,3.867,31.1,0,0.76,0,0,0,0, ,0,0,0,0,0, ,991.8,-83.6,186.6,-17.4,30.9,-25.6,25,872.893,-59.5301,-168.016,-6.91763,42.7029,-2.6323,
2026_07_06_14_54_48.747,3.867,31.1,0,0.76,0,0,0,0, ,0,0,0,0,0, ,1085.3,-114.8,37.8,-12.1,45.1,-9.2,25,882.987,-61.9475,-150.94,-7.39492,42.4163,-3.53221,
2026_07_06_14_54_48.768,3.867,31,0,0.76,0,0,0,0, ,0,0,0,0,0, ,936.6,-16.3,45,-3.6,10.6,-5.9,25,890.785,-62.1671,-139.219,-7.42265,41.5287,-3.77704,
2026_07_06_14_54_48.786,3.867,31.1,0,0.76,0,0,0,0, ,0,0,0,0,0, ,954.4,30.6,-13.9,-1,15.2,-8.9,25,894.119,-57.943,-129.788,-7.11049,39.7841,-3.99782,
2026_07_06_14_54_48.808,3.867,31.1,0,0.759,0,0,0,0, ,0,0,0,0,0, ,1017.7,-33,144,-4.9,13.9,-10,25,899.721,-54.4853,-117.915,-6.85696,38.2464,-4.33006,
2026_07_06_14_54_48.826,3.867,31.1,0,0.76,0,0,0,0, ,0,0,0,0,0, ,1036.1,-36.2,120.3,-10.9,9.5,-6.2,25,907.471,-53.2735,-102.677,-6.92052,36.6287,-4.55979,
2026_07_06_14_54_48.847,3.867,31,0,0.76,0,0,0,0, ,0,0,0,0,0, ,1016.7,-34,89.5,-9.5,9.3,-5.4,25,914.718,-52.1661,-90.0275,-7.12036,34.9695,-4.63536,
2026_07_06_14_54_48.866,3.867,31.1,0,0.76,0,0,0,0, ,0,0,0,0,0, ,1001.2,-19.1,70.1,-8.1,10.6,-0.9,25,920.461,-50.6051,-79.6786,-7.22271,33.4449,-4.54485,
2026_07_06_14_54_48.886,3.867,31.1,0,0.76,0,0,0,0, ,0,0,0,0,0, ,952.5,-4.8,71,-8.1,0.4,-7.6,25,923.897,-48.2495,-70.5241,-7.27617,31.742,-4.52688,
2026_07_06_14_54_48.907,3.867,31.1,0,0.759,0,0,0,0, ,0,0,0,0,0, ,993.1,-25.1,74.4,-12.2,-7.1,-6.2,25,926.877,-46.2203,-61.7964,-7.4513,29.6035,-4.67149,
2026_07_06_14_54_48.928,3.867,31.1,0,0.76,0,0,0,0, ,0,0,0,0,0, ,1030.1,-46.5,114.7,-14.3,-8.8,-0.2,25,932.04,-45.5854,-52.269,-7.80466,27.3151,-4.58183,
2026_07_06_14_54_48.945,3.867,31,0,0.759,0,0,0,0, ,0,0,0,0,0, ,1031.4,-30.8,110.1,-11,-1.3,-0.1,25,938.055,-45.1627,-42.2345,-8.09992,25.3429,-4.31176,
2026_07_06_14_54_48.966,3.867,31.2,0,0.76,0,0,0,0, ,0,0,0,0,0, ,1022.8,-10.2,104.6,-2.3,3,-5,25,943.481,-43.6598,-33.1192,-8.01156,23.8503,-4.2044,
2026_07_06_14_54_48.984,3.867,31.1,0,0.76,0,0,0,0, ,0,0,0,0,0, ,1012.4,-15.9,86.3,-1.5,9.3,-5.8,25,947.998,-41.7946,-25.2845,-7.63914,22.7717,-4.27726,
2026_07_06_14_54_49.006,3.867,31.2,0,0.76,0,0,0,0, ,0,0,0,0,0, ,1006.1,-27.7,91.1,-6,10.3,-2.9,25,951.73,-40.5761,-18.3386,-7.40215,21.9813,-4.28169,
2026_07_06_14_54_49.024,3.867,31.2,0,0.76,0,0,0,0, ,0,0,0,0,0, ,1000.2,-34.5,84.9,-3.4,8.5,-4,25,954.864,-39.9987,-11.8586,-7.23748,21.2146,-4.23101,
2026_07_06_14_54_49.045,3.867,31.1,0,0.76,0,0,0,0, ,0,0,0,0,0, ,979.3,-28.5,76.4,-4.6,6.8,-2.8,25,956.99,-39.4808,-6.22133,-7.0402,20.388,-4.18037,
2026_07_06_14_54_49.063,3.867,31.1,0,0.76,0,0,0,0, ,0,0,0,0,0, ,959.4,-23.4,88.7,-3.6,-0.6,-1.7,25,957.743,-38.6563,-0.811826,-6.86103,19.3345,-4.06274,
2026_07_06_14_54_49.084,3.867,31.2,0,0.76,0,0,0,0, ,0,0,0,0,0, ,952.5,-13.5,82.5,-2.7,-3.9,-6.5,25,957.634,-37.4249,4.45389,-6.63489,18.0192,-4.06501,
2026_07_06_14_54_49.103,3.867,31.1,0,0.76,0,0,0,0, ,0,0,0,0,0, ,957,-12.9,101.4,-4,-4.9,-6.3,25,957.458,-35.9487,9.78569,-6.43472,16.653,-4.2073,
2026_07_06_14_54_49.125,3.867,31.1,0,0.76,0,0,0,0, ,0,0,0,0,0, ,985.7,-27,81.5,-4.8,-0.1,-7.2,25,958.304,-34.9738,14.7621,-6.31073,15.4859,-4.36224,
2026_07_06_14_54_49.143,3.867,31.2,0,0.76,0,0,0,0, ,0,0,0,0,0, ,1016.1,-43.3,77.2,-3,3.9,-5.4,25,960.9,-34.9846,18.6979,-6.16382,14.658,-4.48033,
2026_07_06_14_54_49.165,3.867,31.2,0,0.759,0,0,0,0, ,0,0,0,0,0, ,991.6,-23.4,81.6,-0.6,2.9,-3.1,25,963.517,-34.8849,22.397,-5.8979,13.972,-4.46629,
2026_07_06_14_54_49.182,3.867,31.1,0,0.76,0,0,0,0, ,0,0,0,0,0, ,968.9,9.1,98.5,0.9,-2.6,-6.3,25,964.537,-33.1948,26.5196,-5.52936,13.1297,-4.48053,
2026_07_06_14_54_49.204,3.867,31.1,0,0.76,0,0,0,0, ,0,0,0,0,0, ,994.6,-5.8,102.7,-1.4,-8.4,-6.4,25,965.586,-31.0715,31.0338,-5.20765,11.9944,-4.59445,
2026_07_06_14_54_49.222,3.867,31,0,0.762,0,0,0,0, ,0,0,0,0,0, ,1020.7,-23.5,115.2,-3.3,-1.9,-4.7,25,968.149,-30.0708,35.7819,-5.03351,10.9497,-4.65268,
2026_07_06_14_54_49.243,3.867,31.1,0,0.759,0,0,0,0, ,0,0,0,0,0, ,1002.4,-20.3,109.3,0.3,6.7,-4.5,25,970.794,-29.5729,40.4416,-4.81819,10.4287,-4.64947,
2026_07_06_14_54_49.261,3.867,31.2,0,0.76,0,0,0,0, ,0,0,0,0,0, ,979,-15.8,86,-2.9,5.4,-3,25,972.007,-28.8707,43.9278,-4.6038,10.1619,-4.59466,
2026_07_06_14_54_49.283,3.867,31.1,0,0.76,0,0,0,0, ,0,0,0,0,0, ,968.5,-2.1,88.3,-0.9,2.3,-5.4,25,972.113,-27.6568,46.5616,-4.43903,9.77725,-4.57061,
2026_07_06_14_54_49.301,3.867,31,0,0.76,0,0,0,0, ,0,0,0,0,0, ,977.2,-0.2,92.8,-0.1,-2.2,-6.9,25,972.158,-26.0415,49.2422,-4.199,9.1845,-4.66685,
2026_07_06_14_54_49.322,3.867,31.1,0,0.76,0,0,0,0, ,0,0,0,0,0, ,989.5,-10.9,96,-3.8,-5,-3.2,25,972.84,-24.7928,51.994,-4.06195,8.40544,-4.6902,
2026_07_06_14_54_49.344,3.867,31,0,0.759,0,0,0,0, ,0,0,0,0,0, ,1009.6,-2,47.2,-7.6,-2.6,-2.5,25,974.468,-23.6751,53.1887,-4.16177,7.66167,-4.57807,
2026_07_06_14_54_49.366,3.867,31.2,0,0.76,0,0,0,0, ,0,0,0,0,0, ,979.3,2.5,96.5,-0.2,3.9,1.5,25,975.685,-22.2171,54.3259,-4.14582,7.2344,-4.32956,
2026_07_06_14_54_49.380,3.867,31.2,0,0.76,0,0,0,0, ,0,0,0,0,0, ,988.4,-3.5,87.5,-2,-0.6,-3.1,25,976.183,-20.8938,56.6217,-3.96021,6.8941,-4.11448,
2026_07_06_14_54_49.403,3.867,31.2,0,0.76,0,0,0,0, ,0,0,0,0,0, ,986,-6.1,96.1,-2.9,0,-2.4,25,976.854,-19.913,58.7653,-3.86819,6.45571,-4.03133,
2026_07_06_14_54_49.420,3.867,31.1,0,0.76,0,0,0,0, ,0,0,0,0,0, ,984.8,-7.2,99.3,-1.4,-1.8,-2.5,25,977.375,-19.1048,61.1379,-3.76348,6.00747,-3.93497,
2026_07_06_14_54_49.442,3.867,31.1,0,0.76,0,0,0,0, ,0,0,0,0,0, ,987.7,-5.9,84.2,0.3,-1.7,-2.1,25,977.916,-18.3398,63.0033,-3.56766,5.53475,-3.83534,
2026_07_06_14_54_49.459,3.867,31.1,0,0.76,0,0,0,0, ,0,0,0,0,0, ,991,-6.4,71.6,1.6,0.6,-1.5,25,978.613,-17.597,63.9111,-3.29237,5.16396,-3.71131,
2026_07_06_14_54_49.481,3.867,31,0,0.759,0,0,0,0, ,0,0,0,0,0, ,985.1,-4.2,103.7,-0.8,1.6,-2.2,25,979.188,-16.8476,65.3577,-3.06736,4.91631,-3.59788,
2026_07_06_14_54_49.499,3.867,31.1,0,0.76,0,0,0,0, ,0,0,0,0,0, ,985.5,-7.2,101.5,-0.2,-0.3,-1.8,25,979.56,-16.1683,67.6271,-2.91091,4.65634,-3.50051,
2026_07_06_14_54_49.521,3.867,31.1,0,0.762,0,0,0,0, ,0,0,0,0,0, ,984.4,-5.2,103.8,-0.6,-1.2,-1.6,25,979.889,-15.5609,69.7613,-2.75791,4.32689,-3.39079,
2026_07_06_14_54_49.538,3.867,31.1,0,0.76,0,0,0,0, ,0,0,0,0,0, ,985.3,-5.3,107.6,-0.9,-3.8,-1.2,25,980.191,-14.9325,71.9514,-2.63555,3.91087,-3.26948,
2026_07_06_14_54_49.560,3.867,31.1,0,0.76,0,0,0,0, ,0,0,0,0,0, ,986.5,-7.8,91,-2.4,-5.6,-1.6,25,980.539,-14.4217,73.6179,-2.57549,3.38615,-3.15556,
2026_07_06_14_54_49.578,3.867,31,0,0.762,0,0,0,0, ,0,0,0,0,0, ,988.1,-9.7,82.6,-4.6,-4.5,-2.2,25,980.951,-14.0761,74.4212,-2.63183,2.87207,-3.07905,
2026_07_06_14_54_49.605,3.867,31.1,0,0.76,0,0,0,0, ,0,0,0,0,0, ,983.6,-8.7,104.9,-7,-4.8,-2.7,25,981.249,-13.779,75.599,-2.82489,2.41369,-3.04072,
2026_07_06_14_54_49.618,3.867,31,0,0.758,0,0,0,0, ,0,0,0,0,0, ,985.2,-8.6,96.8,-5.7,-8.2,-2.8,25,981.441,-13.4664,77.1378,-3.0397,1.87052,-3.023,
2026_07_06_14_54_49.640,3.867,31,0,0.76,0,0,0,0, ,0,0,0,0,0, ,991.2,-11.7,65.4,-6,-7.2,-3.4,25,981.853,-13.2643,77.3792,-3.21095,1.28731,-3.02769,
2026_07_06_14_54_49.657,3.867,31.2,0,0.76,0,0,0,0, ,0,0,0,0,0, ,988.2,-8.4,75.6,-5.4,-4.9,-4,25,982.331,-13.0685,76.96,-3.36263,0.840196,-3.06866,
2026_07_06_14_54_49.678,3.867,31,0,0.76,0,0,0,0, ,0,0,0,0,0, ,988.2,-4.8,82.1,-4.6,-5.1,-3.6,25,982.689,-12.6743,77.0752,-3.46241,0.484309,-3.11323,
2026_07_06_14_54_49.696,3.867,31.1,0,0.762,0,0,0,0, ,0,0,0,0,0, ,986.5,-2.1,79.4,-3.5,-5.1,-3,25,982.973,-12.1122,77.2991,-3.49821,0.144015,-3.12461,
2026_07_06_14_54_49.719,3.867,31.1,0,0.76,0,0,0,0, ,0,0,0,0,0, ,981.3,-9.8,104.4,-5.9,-7.4,-4.2,25,983.03,-11.7367,78.1889,-3.57145,-0.24562,-3.15358,
2026_07_06_14_54_49.736,3.867,31,0,0.76,0,0,0,0, ,0,0,0,0,0, ,985.1,-10.4,87,-5.9,-11.8,-4.7,25,983.04,-11.6369,79.256,-3.71334,-0.815653,-3.23258,
2026_07_06_14_54_49.760,3.867,31,0,0.758,0,0,0,0, ,0,0,0,0,0, ,986.8,20,81.1,-1.3,-12.9,-5.4,25,983.217,-10.6353,79.5481,-3.70644,-1.51853,-3.34333,
2026_07_06_14_54_49.776,3.867,31.1,0,0.76,0,0,0,0, ,0,0,0,0,0, ,985.5,-2.8,81.6,-0.5,-15.8,-3.1,25,983.396,-9.46316,79.6579,-3.53542,-2.30044,-3.39858,
2026_07_06_14_54_49.798,3.867,31,0,0.76,0,0,0,0, ,0,0,0,0,0, ,990.2,-7.5,50.2,0,-16.2,-2.5,25,983.667,-9.20033,78.8195,-3.33521,-3.13526,-3.3621,
2026_07_06_14_54_49.815,3.867,31,0,0.76,0,0,0,0, ,0,0,0,0,0, ,989.5,-4,48.3,0.4,-14.7,-3.6,25,984.044,-8.99007,77.0176,-3.11979,-3.88569,-3.34308,
2026_07_06_14_54_49.845,3.867,31.1,0,0.758,0,0,0,0, ,0,0,0,0,0, ,974.2,-42.8,116.2,7.2,-21.9,0,25,983.91,-9.86818,77.3365,-2.69811,-4.76406,-3.24905,
2026_07_06_14_54_49.855,3.867,31.1,0,0.76,0,0,0,0, ,0,0,0,0,0, ,996.8,3.2,32.7,-9.8,-27.9,-6.5,25,984.007,-10.4734,77.1606,-2.61292,-5.9911,-3.24911,
2026_07_06_14_54_49.878,3.867,31.1,0,0.76,0,0,0,0, ,0,0,0,0,0, ,1007.6,-11.7,-62.7,-17.8,-18.5,-8.7,25,985.116,-10.0942,71.5445,-3.29463,-7.03976,-3.51424,
2026_07_06_14_54_49.895,3.867,31.1,0,0.758,0,0,0,0, ,0,0,0,0,0, ,994.5,1,-18,1.6,-5.7,-5.7,25,986.087,-9.80506,64.726,-3.58746,-7.34812,-3.73884,
2026_07_06_14_54_49.918,3.867,31,0,0.758,0,0,0,0, ,0,0,0,0,0, ,988.5,-4.2,38,13.1,-4.9,-5.6,25,986.417,-9.30507,61.3911,-2.92095,-7.22331,-3.8553,
2026_07_06_14_54_49.935,3.867,31,0,0.76,0,0,0,0, ,0,0,0,0,0, ,992.5,16.3,10.8,9.3,-5.5,-5.3,25,986.666,-8.36937,59.137,-2.06046,-7.10002,-3.95248,
2026_07_06_14_54_49.957,3.867,31.1,0,0.759,0,0,0,0, ,0,0,0,0,0, ,993,9.3,5.2,6.3,-1.1,-4.5,25,987.036,-7.07936,56.0208,-1.45959,-6.86845,-4.01022,
2026_07_06_14_54_49.974,3.867,31,0,0.76,0,0,0,0, ,0,0,0,0,0, ,990.8,5.6,15.5,8.6,0.9,-4.7,25,987.333,-6.19398,53.2377,-0.916659,-6.456,-4.04616,
2026_07_06_14_54_49.997,3.867,31,0,0.763,0,0,0,0, ,0,0,0,0,0, ,992,14.1,8.3,0.6,3.6,-3.6,25,987.581,-5.2163,50.7187,-0.580488,-5.92548,-4.05249,
2026_07_06_14_54_50.014,3.867,31,0,0.76,0,0,0,0, ,0,0,0,0,0, ,990.3,9.5,32.2,0.2,3.5,-3.4,25,987.798,-4.17937,48.862,-0.520739,-5.34807,-4.01882,
2026_07_06_14_54_50.036,3.867,31.1,0,0.761,0,0,0,0, ,0,0,0,0,0, ,988.1,10.7,56.1,0,1.3,-3.6,25,987.884,-3.30922,48.5749,-0.482913,-4.87592,-3.9872,
2026_07_06_14_54_50.060,3.867,31,0,0.76,0,0,0,0, ,0,0,0,0,0, ,989.9,12.6,28.5,-0.3,-0.4,-2.2,25,987.952,-2.39764,48.1925,-0.462626,-4.55137,-3.92095,
2026_07_06_14_54_50.083,3.867,31,0,0.758,0,0,0,0, ,0,0,0,0,0, ,990.6,11.5,26.9,-0.3,-0.4,-2,25,988.092,-1.51724,46.9438,-0.452716,-4.2984,-3.80999,
2026_07_06_14_54_50.092,3.867,31.2,0,0.762,0,0,0,0, ,0,0,0,0,0, ,991.4,9.5,27.8,-0.4,-0.5,-2.1,25,988.269,-0.784936,45.7498,-0.446457,-4.06389,-3.70274,
2026_07_06_14_54_50.115,3.867,31,0,0.76,0,0,0,0, ,0,0,0,0,0, ,990.4,10.1,26.1,-0.3,-0.5,-2.1,25,988.429,-0.139917,44.6042,-0.440579,-3.84671,-3.60507,
2026_07_06_14_54_50.132,3.867,31,0,0.76,0,0,0,0, ,0,0,0,0,0, ,989.9,8.9,23.9,-0.3,-0.5,-2.1,25,988.534,0.447516,43.4095,-0.432012,-3.64277,-3.51336,
2026_07_06_14_54_50.156,3.867,31,0,0.758,0,0,0,0, ,0,0,0,0,0, ,990.1,5.3,25.3,-0.3,-0.3,-2.8,25,988.623,0.852901,42.2633,-0.423968,-3.44517,-3.44856,
2026_07_06_14_54_50.172,3.867,31,0,0.76,0,0,0,0, ,0,0,0,0,0, ,990.3,12.2,25.6,-0.3,0,-3.3,25,988.719,1.33413,41.2388,-0.416414,-3.24437,-3.42427,
2026_07_06_14_54_50.196,3.867,31,0,0.76,0,0,0,0, ,0,0,0,0,0, ,989.2,14.1,28.1,-0.4,0,-2.6,25,988.782,2.05416,40.3619,-0.412367,-3.04666,-3.39537,
2026_07_06_14_54_50.211,3.867,31,0,0.759,0,0,0,0, ,0,0,0,0,0, ,990.7,14.4,29.9,-0.4,-0.5,-1.8,25,988.853,2.79734,39.6696,-0.411613,-2.87624,-3.32253,
2026_07_06_14_54_50.235,3.867,31.1,0,0.76,0,0,0,0, ,0,0,0,0,0, ,990.7,11.8,27,-0.3,-0.6,-1.4,25,988.966,3.42516,38.9859,-0.407858,-2.73449,-3.21756,
2026_07_06_14_54_50.251,3.867,31,0,0.76,0,0,0,0, ,0,0,0,0,0, ,991.4,11.7,27.5,-0.2,-0.4,-1.4,25,989.093,3.93246,38.2707,-0.398239,-2.59832,-3.1068,
2026_07_06_14_54_50.275,3.867,31,0,0.761,0,0,0,0, ,0,0,0,0,0, ,990.3,9.3,28.4,-0.3,-0.5,-1.3,25,989.2,4.33267,37.6418,-0.389206,-2.46741,-2.99975,
2026_07_06_14_54_50.290,3.867,30.9,0,0.758,0,0,0,0, ,0,0,0,0,0, ,990.4,7.4,26.6,-0.3,-0.4,-1.7,25,989.27,4.57747,37.0238,-0.38377,-2.34447,-2.90836,
2026_07_06_14_54_50.313,3.867,31,0,0.76,0,0,0,0, ,0,0,0,0,0, ,990.4,9.3,28,-0.3,-0.4,-2,25,989.339,4.80736,36.4312,-0.378665,-2.22598,-2.84386,
2026_07_06_14_54_50.331,3.867,31,0,0.76,0,0,0,0, ,0,0,0,0,0, ,990.7,12.6,27.8,-0.4,-0.5,-2.1,25,989.413,5.18168,35.9114,-0.376918,-2.11776,-2.79549,
2026_07_06_14_54_50.354,3.867,30.9,0,0.759,0,0,0,0, ,0,0,0,0,0, ,990.3,14.1,29.6,-0.4,-0.4,-1.8,25,989.479,5.67944,35.4719,-0.378325,-2.01613,-2.74397,
2026_07_06_14_54_50.370,3.867,31.1,0,0.76,0,0,0,0, ,0,0,0,0,0, ,990.4,11.5,28.1,-0.4,-0.5,-1.7,25,989.532,6.11334,35.0684,-0.379646,-1.92069,-2.6834,
2026_07_06_14_54_50.392,3.867,31,0,0.758,0,0,0,0, ,0,0,0,0,0, ,989.7,11.9,28.8,-0.4,-0.6,-1.7,25,989.564,6.45378,34.6651,-0.380886,-1.83717,-2.62347,
2026_07_06_14_54_50.409,3.867,31.1,0,0.76,0,0,0,0, ,0,0,0,0,0, ,990.9,7,28.1,-0.4,-0.3,-1.9,25,989.609,6.63636,34.2864,-0.382051,-1.75264,-2.57329,
2026_07_06_14_54_50.433,3.867,31,0,0.76,0,0,0,0, ,0,0,0,0,0, ,988.8,11.4,26.8,-0.4,-0.4,-2,25,989.623,6.79259,33.8698,-0.383144,-1.66716,-2.53531,
2026_07_06_14_54_50.448,3.867,31.1,0,0.761,0,0,0,0, ,0,0,0,0,0, ,990.7,10.9,27.8,-0.4,-0.5,-2,25,989.631,7.05812,33.4694,-0.384172,-1.59299,-2.50269,
2026_07_06_14_54_50.473,3.867,31,0,0.76,0,0,0,0, ,0,0,0,0,0, ,989.8,11.3,25.7,-0.4,-0.5,-1.9,25,989.669,7.30442,33.06,-0.385136,-1.52639,-2.46901,
2026_07_06_14_54_50.488,3.867,31.1,0,0.76,0,0,0,0, ,0,0,0,0,0, ,991.5,12.3,28.6,-0.4,-0.5,-1.8,25,989.728,7.57837,32.6998,-0.386042,-1.46384,-2.43129,
2026_07_06_14_54_50.512,3.867,31.1,0,0.76,0,0,0,0, ,0,0,0,0,0, ,990.4,7.8,27.5,-0.3,-0.5,-1.7,25,989.803,7.72898,32.4165,-0.383846,-1.40511,-2.38977,
2026_07_06_14_54_50.528,3.867,31,0,0.76,0,0,0,0, ,0,0,0,0,0, ,990.8,10.4,29.4,-0.4,-0.4,-1.9,25,989.851,7.81253,32.1748,-0.381783,-1.34691,-2.35383,
2026_07_06_14_54_50.552,3.867,31,0,0.76,0,0,0,0, ,0,0,0,0,0, ,990.7,12.3,28.8,-0.4,-0.4,-1.7,25,989.906,8.02809,31.9874,-0.382893,-1.2892,-2.32008,
2026_07_06_14_54_50.571,3.867,31,0,0.76,0,0,0,0, ,0,0,0,0,0, ,991.6,12.5,26.6,-0.4,-0.7,-1.4,25,989.982,8.29451,31.7261,-0.383936,-1.24416,-2.27316,
2026_07_06_14_54_50.595,3.867,31.1,0,0.762,0,0,0,0, ,0,0,0,0,0, ,990.9,8.1,26.7,-0.5,-0.5,-1.5,25,990.059,8.41672,31.4168,-0.387961,-1.20491,-2.223,
2026_07_06_14_54_50.608,3.867,31.1,0,0.76,0,0,0,0, ,0,0,0,0,0, ,989.6,10.6,28.3,-0.4,-0.3,-2,25,990.071,8.47359,31.1781,-0.391742,-1.15586,-2.19417,
2026_07_06_14_54_50.632,3.867,31,0,0.762,0,0,0,0, ,0,0,0,0,0, ,990.9,12.5,28.6,-0.4,-0.3,-1.9,25,990.082,8.66106,31.0119,-0.392245,-1.1037,-2.17929,
2026_07_06_14_54_50.647,3.867,31.1,0,0.761,0,0,0,0, ,0,0,0,0,0, ,990.3,13.6,29.9,-0.5,-0.6,-1.5,25,990.113,8.92851,30.9045,-0.395765,-1.06387,-2.15009,
2026_07_06_14_54_50.671,3.867,31.1,0,0.76,0,0,0,0, ,0,0,0,0,0, ,990.6,11.5,27.7,-0.4,-0.6,-1.3,25,990.134,9.14919,30.7763,-0.39907,-1.0356,-2.10438,
2026_07_06_14_54_50.687,3.867,31,0,0.76,0,0,0,0, ,0,0,0,0,0, ,991.3,9,25.7,-0.4,-0.5,-1.6,25,990.184,9.21627,30.5279,-0.399126,-1.00601,-2.0645,
2026_07_06_14_54_50.711,3.867,31.1,0,0.758,0,0,0,0, ,0,0,0,0,0, ,990.4,12.2,27.8,-0.4,-0.4,-1.8,25,990.224,9.30059,30.2977,-0.39918,-0.972128,-2.04229,
2026_07_06_14_54_50.726,3.867,31.1,0,0.759,0,0,0,0, ,0,0,0,0,0, ,990.3,14,27.5,-0.4,-0.5,-1.5,25,990.232,9.53212,30.1363,-0.39923,-0.94031,-2.01838,
2026_07_06_14_54_50.750,3.867,31,0,0.76,0,0,0,0, ,0,0,0,0,0, ,990.8,9.5,28,-0.3,-0.6,-1,25,990.251,9.66727,29.9909,-0.39623,-0.916526,-1.97156,
2026_07_06_14_54_50.765,3.867,31,0,0.761,0,0,0,0, ,0,0,0,0,0, ,990.2,6.9,25.2,-0.2,-0.5,-1.4,25,990.266,9.57786,29.7843,-0.387319,-0.894191,-1.92454,
2026_07_06_14_54_50.789,3.867,31,0,0.761,0,0,0,0, ,0,0,0,0,0, ,990.4,8.7,29.1,-0.3,-0.3,-1.9,25,990.268,9.46952,29.6237,-0.378951,-0.864076,-1.90781,
2026_07_06_14_54_50.805,3.867,31.1,0,0.758,0,0,0,0, ,0,0,0,0,0, ,990.6,10.7,28,-0.3,-0.5,-2,25,990.283,9.48357,29.5583,-0.37414,-0.835796,-1.91038,
2026_07_06_14_54_50.829,3.867,31,0,0.76,0,0,0,0, ,0,0,0,0,0, ,989.7,10,29.6,-0.4,-0.6,-1.8,25,990.275,9.53637,29.5121,-0.372669,-0.818381,-1.90975,
2026_07_06_14_54_50.847,3.867,31.1,0,0.76,0,0,0,0, ,0,0,0,0,0, ,989.1,9,28.4,-0.3,-0.6,-2.1,25,990.221,9.53415,29.4809,-0.371287,-0.805073,-1.9122,
2026_07_06_14_54_50.872,3.867,31,0,0.758,0,0,0,0, ,0,0,0,0,0, ,990.9,10.1,26.7,0,-0.4,-2.3,25,990.208,9.53511,29.3632,-0.357803,-0.786483,-1.92974,
2026_07_06_14_54_50.884,3.867,31,0,0.76,0,0,0,0, ,0,0,0,0,0, ,991.8,14.2,28.3,-0.4,-0.4,-1.9,25,990.277,9.69446,29.2497,-0.348187,-0.762931,-1.94012,
2026_07_06_14_54_50.909,3.867,31,0,0.758,0,0,0,0, ,0,0,0,0,0, ,990.3,12.2,27.9,-0.4,-0.5,-1.5,25,990.324,9.90808,29.1796,-0.351344,-0.743862,-1.92549,
2026_07_06_14_54_50.924,3.867,31,0,0.76,0,0,0,0, ,0,0,0,0,0, ,991.8,11.8,28.5,-0.3,-0.5,-1.2,25,990.369,10.0356,29.1199,-0.351262,-0.729002,-1.89042,
2026_07_06_14_54_50.950,3.867,31,0,0.76,0,0,0,0, ,0,0,0,0,0, ,990.8,8.4,29,-0.3,-0.8,-1,25,990.425,10.0395,29.0974,-0.348138,-0.724188,-1.84225,
2026_07_06_14_54_50.963,3.867,31,0,0.76,0,0,0,0, ,0,0,0,0,0, ,989.6,7.9,27.3,-0.1,-0.7,-1.4,25,990.412,9.92434,29.0397,-0.339111,-0.725761,-1.80311,
2026_07_06_14_54_50.987,3.867,31.1,0,0.758,0,0,0,0, ,0,0,0,0,0, ,990.8,8.5,26.1,-0.2,-0.5,-1.9,25,990.399,9.81926,28.8971,-0.327587,-0.718097,-1.79378,
2026_07_06_14_54_51.002,3.867,31,0,0.76,0,0,0,0, ,0,0,0,0,0, ,990.7,8.7,27,-0.3,-0.3,-2.2,25,990.42,9.74497,28.7541,-0.322859,-0.698713,-1.8094,
2026_07_06_14_54_51.026,3.867,31,0,0.76,0,0,0,0, ,0,0,0,0,0, ,990.2,11.7,31,-0.4,-0.3,-2.2,25,990.422,9.77269,28.7691,-0.324513,-0.674416,-1.8332,
2026_07_06_14_54_51.042,3.867,31.1,0,0.758,0,0,0,0, ,0,0,0,0,0, ,989.8,9.2,26.3,-0.4,-0.6,-2.1,25,990.396,9.81397,28.7618,-0.329113,-0.660741,-1.8525,
2026_07_06_14_54_51.067,3.867,31.1,0,0.758,0,0,0,0, ,0,0,0,0,0, ,992.1,10.1,26,-0.4,-0.5,-2.1,25,990.43,9.80398,28.6026,-0.333433,-0.653993,-1.86759,
2026_07_06_14_54_51.082,3.867,31,0,0.76,0,0,0,0, ,0,0,0,0,0, ,990.2,11.2,28.5,-0.4,-0.6,-2.1,25,990.474,9.85553,28.5202,-0.337489,-0.647656,-1.88175,
2026_07_06_14_54_51.108,3.867,31,0,0.76,0,0,0,0, ,0,0,0,0,0, ,990.9,13.4,28.5,-0.5,-0.6,-1.9,25,990.479,10.0045,28.519,-0.344345,-0.644752,-1.88895,
2026_07_06_14_54_51.123,3.867,31.1,0,0.761,0,0,0,0, ,0,0,0,0,0, ,990.4,12.8,26.4,-0.4,-0.4,-1.3,25,990.489,10.1931,28.4538,-0.350784,-0.635931,-1.87135,
2026_07_06_14_54_51.148,3.867,31,0,0.76,0,0,0,0, ,0,0,0,0,0, ,990.3,10.6,27.8,-0.4,-0.7,-1,25,990.481,10.2849,28.3713,-0.353783,-0.630694,-1.82739,
2026_07_06_14_54_51.161,3.867,31,0,0.76,0,0,0,0, ,0,0,0,0,0, ,989.8,8.1,29.4,-0.3,-0.7,-1.2,25,990.454,10.228,28.3853,-0.353552,-0.634918,-1.78306,
2026_07_06_14_54_51.185,3.867,31.1,0,0.762,0,0,0,0, ,0,0,0,0,0, ,989.7,8,27.9,0,-0.7,-1.6,25,990.411,10.0953,28.4014,-0.341148,-0.638884,-1.75972,
2026_07_06_14_54_51.201,3.867,31.2,0,0.76,0,0,0,0, ,0,0,0,0,0, ,989.9,9,31.8,0,-0.8,-1.7,25,990.374,9.99804,28.4897,-0.32036,-0.645655,-1.75303,
2026_07_06_14_54_51.225,3.867,31,0,0.761,0,0,0,0, ,0,0,0,0,0, ,991.3,10.3,28.9,0.1,-1.6,-1.3,25,990.388,9.97683,28.603,-0.297791,-0.679435,-1.73762,
2026_07_06_14_54_51.240,3.867,30.9,0,0.76,0,0,0,0, ,0,0,0,0,0, ,990.2,8,19.6,-0.1,-1.2,-1.4,25,990.41,9.92645,28.3378,-0.279644,-0.723345,-1.714,
2026_07_06_14_54_51.265,3.867,31.1,0,0.76,0,0,0,0, ,0,0,0,0,0, ,990.9,6.7,21.4,-0.2,-0.1,-1.9,25,990.418,9.76945,27.8602,-0.271744,-0.718875,-1.7101,
2026_07_06_14_54_51.280,3.867,31.1,0,0.76,0,0,0,0, ,0,0,0,0,0, ,990.6,12.9,30,0,0,-1.7,25,990.439,9.77131,27.7285,-0.261278,-0.678116,-1.71557,
2026_07_06_14_54_51.305,3.867,31.1,0,0.762,0,0,0,0, ,0,0,0,0,0, ,991.4,9.7,30.3,0.1,-1.2,-1.1,25,990.473,9.86446,27.8761,-0.24231,-0.673355,-1.69634,
2026_07_06_14_54_51.320,3.867,31,0,0.76,0,0,0,0, ,0,0,0,0,0, ,989.1,6.7,26.1,0.1,-1.2,-1.3,25,990.459,9.76304,27.8958,-0.22145,-0.705448,-1.6661,
2026_07_06_14_54_51.344,3.867,31.1,0,0.76,0,0,0,0, ,0,0,0,0,0, ,990.1,10.3,23.9,0,-0.9,-1.6,25,990.407,9.68607,27.7194,-0.204909,-0.726444,-1.65293,
2026_07_06_14_54_51.359,3.867,31.1,0,0.76,0,0,0,0, ,0,0,0,0,0, ,991.6,10.7,26.1,-0.2,-1.2,-1.3,25,990.434,9.73567,27.5537,-0.198516,-0.746161,-1.64056,
2026_07_06_14_54_51.383,3.867,30.9,0,0.76,0,0,0,0, ,0,0,0,0,0, ,990.6,7,22.9,0,-0.6,-1.1,25,990.475,9.6817,27.3676,-0.192513,-0.755535,-1.61372,
2026_07_06_14_54_51.398,3.867,31.1,0,0.758,0,0,0,0, ,0,0,0,0,0, ,991.8,3.2,21.9,-0.2,-0.3,-1.6,25,990.519,9.4025,27.0649,-0.186875,-0.736917,-1.59765,
2026_07_06_14_54_51.422,3.867,31.1,0,0.76,0,0,0,0, ,0,0,0,0,0, ,990.3,7.2,25.2,-0.4,0.6,-2.4,25,990.551,9.14641,26.8507,-0.193769,-0.68287,-1.62216,
2026_07_06_14_54_51.438,3.867,31,0,0.761,0,0,0,0, ,0,0,0,0,0, ,991,10.9,29.6,-0.4,0.1,-2.6,25,990.557,9.14054,26.8841,-0.206336,-0.61993,-1.67566,
2026_07_06_14_54_51.463,3.867,31.1,0,0.761,0,0,0,0, ,0,0,0,0,0, ,989.5,14.6,31.9,-0.4,0.1,-2,25,990.538,9.36049,27.1197,-0.218137,-0.576059,-1.7137,
2026_07_06_14_54_51.478,3.867,31.1,0,0.76,0,0,0,0, ,0,0,0,0,0, ,991.6,12.9,31.4,-0.2,-1.6,-0.9,25,990.539,9.62797,27.3958,-0.223126,-0.586659,-1.69763,
2026_07_06_14_54_51.503,3.867,31.2,0,0.761,0,0,0,0, ,0,0,0,0,0, ,990.4,7.9,26.8,0,-1.7,-0.9,25,990.567,9.67502,27.4996,-0.215623,-0.651456,-1.64903,
2026_07_06_14_54_51.517,3.867,31,0,0.76,0,0,0,0, ,0,0,0,0,0, ,989.7,7.3,25.5,-0.1,-1.9,-1,25,990.536,9.54857,27.4174,-0.20553,-0.721445,-1.60643,
2026_07_06_14_54_51.542,3.867,31.1,0,0.76,0,0,0,0, ,0,0,0,0,0, ,990.1,6.1,25,0.4,-1.4,-1.4,25,990.497,9.37499,27.2853,-0.183865,-0.778029,-1.58166,
2026_07_06_14_54_51.557,3.867,31.1,0,0.76,0,0,0,0, ,0,0,0,0,0, ,989.7,11.4,30.6,0.1,-2.2,-1.2,25,990.461,9.3369,27.3167,-0.157426,-0.840305,-1.5645,
2026_07_06_14_54_51.582,3.867,31,0,0.76,0,0,0,0, ,0,0,0,0,0, ,990.2,12.4,23.6,1.6,-2.4,-0.3,25,990.429,9.49309,27.3035,-0.0960364,-0.929256,-1.51487,
2026_07_06_14_54_51.596,3.867,31,0,0.761,0,0,0,0, ,0,0,0,0,0, ,990.9,18.4,19,0.8,-2,0.4,25,990.437,9.85304,26.9376,-0.0170592,-1.00669,-1.41951,
2026_07_06_14_54_51.621,3.867,31.1,0,0.76,0,0,0,0, ,0,0,0,0,0, ,989.6,4.7,25,-0.3,-2,-0.1,25,990.425,9.95645,26.6368,-0.000785248,-1.06722,-1.32387,
2026_07_06_14_54_51.636,3.867,31.1,0,0.761,0,0,0,0, ,0,0,0,0,0, ,989.6,-2.1,15,-1.1,-1,-0.6,25,990.375,9.42895,26.2323,-0.0433936,-1.09359,-1.26452,
2026_07_06_14_54_51.661,3.867,31.2,0,0.76,0,0,0,0, ,0,0,0,0,0, ,989.3,-1.7,21.6,-0.8,0,-1.7,25,990.319,8.73859,25.7489,-0.09864,-1.05742,-1.25754,
2026_07_06_14_54_51.677,3.867,31,0,0.761,0,0,0,0, ,0,0,0,0,0, ,991.4,5.8,21.6,-0.5,0.2,-2.2,25,990.321,8.33101,25.4961,-0.132238,-0.986891,-1.29974,
2026_07_06_14_54_51.702,3.867,31.1,0,0.76,0,0,0,0, ,0,0,0,0,0, ,991.3,7.9,24.9,-0.5,0.1,-2.1,25,990.383,8.24076,25.3592,-0.154649,-0.917612,-1.35155,
2026_07_06_14_54_51.715,3.867,31,0,0.76,0,0,0,0, ,0,0,0,0,0, ,991.6,5.3,26.9,-0.4,-0.7,-1.9,25,990.448,8.14077,25.3922,-0.172647,-0.879976,-1.39107,
2026_07_06_14_54_51.741,3.867,31,0,0.759,0,0,0,0, ,0,0,0,0,0, ,989.8,4.5,20.5,-0.5,-0.9,-2.3,25,990.464,7.94329,25.2891,-0.189548,-0.875103,-1.43427,
2026_07_06_14_54_51.754,3.867,31.1,0,0.76,0,0,0,0, ,0,0,0,0,0, ,990.2,4.7,21.6,-0.4,-0.4,-2.5,25,990.435,7.73956,25.0308,-0.205419,-0.861385,-1.49312,
2026_07_06_14_54_51.780,3.867,31,0,0.76,0,0,0,0, ,0,0,0,0,0, ,990.1,7.3,16.1,-0.4,0.3,-2.4,25,990.418,7.63355,24.6541,-0.217277,-0.811942,-1.55143,
2026_07_06_14_54_51.794,3.867,31.1,0,0.76,0,0,0,0, ,0,0,0,0,0, ,990.9,9.3,25.8,-0.3,0.7,-2.2,25,990.423,7.67416,24.4284,-0.225364,-0.731995,-1.59704,
2026_07_06_14_54_51.820,3.867,31.1,0,0.76,0,0,0,0, ,0,0,0,0,0, ,989.6,5.3,24.6,-0.5,0.4,-2.2,25,990.413,7.65136,24.4754,-0.236006,-0.653874,-1.63379,
2026_07_06_14_54_51.834,3.867,30.9,0,0.76,0,0,0,0, ,0,0,0,0,0, ,991.2,10.3,27.4,-0.5,0.2,-2.2,25,990.412,7.66042,24.5683,-0.252093,-0.595747,-1.66829,
2026_07_06_14_54_51.861,3.867,31,0,0.76,0,0,0,0, ,0,0,0,0,0, ,989.3,9.7,29.6,-0.5,-0.9,-1.5,25,990.402,7.80299,24.8079,-0.2672,-0.580772,-1.67936,
2026_07_06_14_54_51.873,3.867,31.2,0,0.76,0,0,0,0, ,0,0,0,0,0, ,990.7,5,18.7,-0.4,-1,-1.8,25,990.377,7.77539,24.7678,-0.27834,-0.603272,-1.67757,
2026_07_06_14_54_51.900,3.867,31.1,0,0.76,0,0,0,0, ,0,0,0,0,0, ,990.2,7.5,25.8,-0.3,0.1,-2,25,990.382,7.68243,24.6144,-0.282706,-0.593932,-1.69113,
2026_07_06_14_54_51.913,3.867,31.1,0,0.76,0,0,0,0, ,0,0,0,0,0, ,991.8,6.8,24.5,-0.3,-1,-2,25,990.419,7.64999,24.647,-0.28376,-0.585161,-1.70995,
2026_07_06_14_54_51.940,3.867,31.1,0,0.76,0,0,0,0, ,0,0,0,0,0, ,991.5,7.3,18.1,-0.4,-0.5,-2,25,990.494,7.61343,24.4431,-0.287797,-0.595206,-1.72762,
2026_07_06_14_54_51.953,3.867,31,0,0.761,0,0,0,0, ,0,0,0,0,0, ,990.6,8.7,24.2,-0.5,-0.7,-1.7,25,990.528,7.63698,24.2424,-0.297681,-0.595498,-1.73508,
2026_07_06_14_54_51.979,3.867,31.1,0,0.761,0,0,0,0, ,0,0,0,0,0, ,989.7,5.2,23.3,-0.5,-0.4,-1.8,25,990.505,7.59512,24.2124,-0.31001,-0.592725,-1.73599,
2026_07_06_14_54_51.995,3.867,31.1,0,0.761,0,0,0,0, ,0,0,0,0,0, ,989.9,4.1,22.3,-0.4,-0.1,-2.1,25,990.462,7.41565,24.1263,-0.31854,-0.571841,-1.74903,
2026_07_06_14_54_52.021,3.867,31.1,0,0.76,0,0,0,0, ,0,0,0,0,0, ,989.7,10.3,23.9,-0.5,-0.2,-2.1,25,990.422,7.40251,24.0638,-0.326551,-0.546135,-1.77042,
2026_07_06_14_54_52.032,3.867,31.1,0,0.76,0,0,0,0, ,0,0,0,0,0, ,991.3,9.7,27.2,-0.5,-0.4,-1.7,25,990.427,7.56079,24.1544,-0.337121,-0.531136,-1.77832,
2026_07_06_14_54_52.057,3.867,31,0,0.76,0,0,0,0, ,0,0,0,0,0, ,990.4,8.6,24.6,-0.4,-0.7,-1.5,25,990.452,7.65764,24.2607,-0.343999,-0.532285,-1.76745,
2026_07_06_14_54_52.071,3.867,31,0,0.761,0,0,0,0, ,0,0,0,0,0, ,990.2,7.3,23.9,-0.4,-0.5,-1.6,25,990.443,7.67545,24.2601,-0.347412,-0.536412,-1.7542,
2026_07_06_14_54_52.098,3.867,31.1,0,0.76,0,0,0,0, ,0,0,0,0,0, ,990.1,6.3,27.8,-0.3,-1.1,-1.4,25,990.425,7.6221,24.357,-0.34757,-0.552474,-1.73871,
2026_07_06_14_54_52.111,3.867,31,0,0.76,0,0,0,0, ,0,0,0,0,0, ,991.2,5.6,16.9,-0.3,-0.8,-1.3,25,990.439,7.52021,24.2347,-0.344671,-0.576698,-1.71502,
2026_07_06_14_54_52.137,3.867,31,0,0.76,0,0,0,0, ,0,0,0,0,0, ,989.3,7.2,25.6,-0.3,-0.5,-1.4,25,990.428,7.45195,24.0528,-0.341949,-0.581165,-1.69278,
2026_07_06_14_54_52.150,3.867,31,0,0.76,0,0,0,0, ,0,0,0,0,0, ,990.3,5.7,25.3,-0.4,-0.6,-1.7,25,990.389,7.39089,24.1379,-0.342439,-0.579266,-1.68408,
2026_07_06_14_54_52.176,3.867,31.1,0,0.761,0,0,0,0, ,0,0,0,0,0, ,990.2,8.6,25.3,-0.5,-1.1,-1.6,25,990.381,7.37621,24.2087,-0.348994,-0.595764,-1.682,
2026_07_06_14_54_52.190,3.867,31.1,0,0.76,0,0,0,0, ,0,0,0,0,0, ,991,4.8,18.5,-0.5,-1.1,-1.7,25,990.394,7.33501,24.068,-0.358196,-0.626491,-1.68005,
2026_07_06_14_54_52.216,3.867,31,0,0.762,0,0,0,0, ,0,0,0,0,0, ,990.4,4.6,19.4,-0.4,0,-2,25,990.413,7.17443,23.7562,-0.36379,-0.62183,-1.69041,
2026_07_06_14_54_52.230,3.867,31.1,0,0.762,0,0,0,0, ,0,0,0,0,0, ,989.7,6.3,26.6,-0.3,0.2,-2.2,25,990.391,7.06935,23.7101,-0.36295,-0.577843,-1.71537,
2026_07_06_14_54_52.256,3.867,31.1,0,0.76,0,0,0,0, ,0,0,0,0,0, ,991.4,9.8,25.3,-0.5,-0.6,-2,25,990.4,7.12911,23.8466,-0.365207,-0.554818,-1.73881,
2026_07_06_14_54_52.269,3.867,31,0,0.761,0,0,0,0, ,0,0,0,0,0, ,989.9,8.9,23.1,-0.3,-0.7,-1.5,25,990.416,7.26445,23.8681,-0.367328,-0.560618,-1.73949,
2026_07_06_14_54_52.295,3.867,31.2,0,0.76,0,0,0,0, ,0,0,0,0,0, ,991.4,4.1,19,-0.3,-1,-1.5,25,990.43,7.21786,23.6964,-0.363225,-0.578253,-1.72489,
2026_07_06_14_54_52.309,3.867,31.1,0,0.76,0,0,0,0, ,0,0,0,0,0, ,989.7,3.1,19.4,-0.5,0.4,-2.3,25,990.437,6.9974,23.4224,-0.365466,-0.561297,-1.73556,
2026_07_06_14_54_52.336,3.867,31,0,0.761,0,0,0,0, ,0,0,0,0,0, ,990.6,6.5,26.2,-0.4,0.6,-2.5,25,990.42,6.8635,23.3845,-0.370617,-0.496624,-1.77605,
2026_07_06_14_54_52.348,3.867,31.1,0,0.76,0,0,0,0, ,0,0,0,0,0, ,990.8,7.4,23.3,-0.5,0.3,-2.7,25,990.437,6.86877,23.4677,-0.375455,-0.438939,-1.82626,
2026_07_06_14_54_52.375,3.867,31.1,0,0.76,0,0,0,0, ,0,0,0,0,0, ,988.7,7.8,21.2,-0.4,0.4,-2.5,25,990.395,6.91333,23.3935,-0.379997,-0.390863,-1.87341,
2026_07_06_14_54_52.388,3.867,31,0,0.76,0,0,0,0, ,0,0,0,0,0, ,990.9,11.5,32.5,-0.4,-0.1,-1.9,25,990.359,7.08009,23.6041,-0.381216,-0.357904,-1.89331,
2026_07_06_14_54_52.415,3.867,31.1,0,0.76,0,0,0,0, ,0,0,0,0,0, ,990.2,5.8,26.2,-0.5,-0.8,-1.6,25,990.37,7.17576,23.9542,-0.385408,-0.363516,-1.88458,
2026_07_06_14_54_52.428,3.867,31,0,0.76,0,0,0,0, ,0,0,0,0,0, ,991.3,5.7,24.1,-0.6,-1.3,-1.9,25,990.393,7.08888,24.0271,-0.395437,-0.405349,-1.87638,
2026_07_06_14_54_52.454,3.867,31,0,0.761,0,0,0,0, ,0,0,0,0,0, ,991,5.9,19.7,-0.5,-0.7,-2.2,25,990.44,7.01034,23.8975,-0.404856,-0.441585,-1.88696,
2026_07_06_14_54_52.468,3.867,31.1,0,0.761,0,0,0,0, ,0,0,0,0,0, ,992.4,8.7,17,-0.5,0.1,-2.3,25,990.516,7.02799,23.5594,-0.410654,-0.432958,-1.90908,
