UTC_Time,Vin,TC1,TC2,Rh1,Vh1,Ah1,Acp1,Dty1,Err1,Rh2,Vh2,Ah2,Acp2,Dty2,Err2,Accel_x,Accel_y,Accel_z,gyro_x,gyro_y,gyro_z,Temp_c,Accel_x_h,Accel_y_h,Accel_z_h,gyro_x_h,gyro_y_h,gyro_z_h,
2026_07_06_19_46_27.343,3.873,30.8,0,0.758,0,0,0,0, ,0,0,0,0,0, ,987.1,34.6,76.7,0,-0.4,-1.7,25,987.1,34.6,76.7,0,-0.4,-1.7,
2026_07_06_19_46_27.362,3.873,30.7,0,0.76,0,0,0,0, ,0,0,0,0,0, ,987.6,34.4,75,0,-0.5,-1.9,25,987.115,34.5939,76.6482,0,-0.403047,-1.70609,
2026_07_06_19_46_27.382,3.873,30.7,0,0.759,0,0,0,0, ,0,0,0,0,0, ,989.6,36.8,77.7,-0.3,-0.9,-1.8,25,987.206,34.6552,76.63,-0.00914062,-0.421142,-1.71486,
2026_07_06_19_46_27.402,3.873,30.8,0,0.76,0,0,0,0, ,0,0,0,0,0, ,984.9,35.8,74.3,-0.3,-1.2,-1.7,25,987.208,34.7554,76.5916,-0.0268649,-0.459463,-1.717,
2026_07_06_19_46_27.422,3.873,30.8,0,0.76,0,0,0,0, ,0,0,0,0,0, ,992.4,36.2,70.5,0,-0.6,-1.5,25,987.296,34.8313,76.3362,-0.0343684,-0.486309,-1.70987,
2026_07_06_19_46_27.442,3.873,30.7,0,0.761,0,0,0,0, ,0,0,0,0,0, ,987.1,36,72.6,-0.1,-0.2,-1.5,25,987.446,34.9086,76.0445,-0.035321,-0.481049,-1.69709,
2026_07_06_19_46_27.461,3.873,30.9,0,0.759,0,0,0,0, ,0,0,0,0,0, ,988.6,32.9,75.8,-0.1,0,-1.7,25,987.47,34.8806,75.9321,-0.0392623,-0.457829,-1.69117,
2026_07_06_19_46_27.481,3.873,30.8,0,0.76,0,0,0,0, ,0,0,0,0,0, ,987.7,34.1,76.9,-0.1,-0.4,-1.7,25,987.512,34.7965,75.9576,-0.0429635,-0.442118,-1.69171,
2026_07_06_19_46_27.500,3.873,30.8,0,0.76,0,0,0,0, ,0,0,0,0,0, ,988.6,31.8,73.2,0,-0.3,-1.7,25,987.551,34.684,75.9023,-0.0433923,-0.436504,-1.69221,
2026_07_06_19_46_27.520,3.873,30.8,0,0.76,0,0,0,0, ,0,0,0,0,0, ,990.1,33.2,74.9,0.4,-0.1,-1.7,25,987.66,34.5509,75.7894,-0.0285606,-0.422092,-1.69269,
2026_07_06_19_46_27.540,3.873,30.9,0,0.76,0,0,0,0, ,0,0,0,0,0, ,987.7,34.6,78,0.1,-0.5,-1.7,25,987.736,34.5112,75.8297,-0.0115858,-0.414652,-1.69313,
2026_07_06_19_46_27.560,3.873,30.9,0,0.76,0,0,0,0, ,0,0,0,0,0, ,987.4,38.2,81.1,-0.3,-1.3,-1.8,25,987.725,34.6263,76.0564,-0.0169736,-0.444228,-1.6966,
2026_07_06_19_46_27.580,3.873,30.8,0,0.759,0,0,0,0, ,0,0,0,0,0, ,985.2,38.6,71.2,-0.8,-1.5,-1.6,25,987.638,34.8563,76.0621,-0.0494549,-0.50247,-1.69681,
2026_07_06_19_46_27.600,3.873,30.9,0,0.758,0,0,0,0, ,0,0,0,0,0, ,989.3,36.1,66.7,-0.2,-0.9,-1.6,25,987.614,35.0083,75.6287,-0.0769099,-0.544976,-1.69091,
2026_07_06_19_46_27.619,3.873,30.8,0,0.761,0,0,0,0, ,0,0,0,0,0, ,986.2,36.2,74.2,0,-0.2,-1.3,25,987.622,35.0778,75.3131,-0.078317,-0.545282,-1.67623,
2026_07_06_19_46_27.639,3.873,30.8,0,0.76,0,0,0,0, ,0,0,0,0,0, ,989.6,38.9,77.3,-0.5,-0.7,-1.4,25,987.639,35.2285,75.3397,-0.0887789,-0.539476,-1.65635,
2026_07_06_19_46_27.659,3.873,30.8,0,0.76,0,0,0,0, ,0,0,0,0,0, ,987.7,35.4,75.8,-1.3,-1.3,-1.1,25,987.701,35.3456,75.4135,-0.138213,-0.567539,-1.63158,
2026_07_06_19_46_27.679,3.873,30.9,0,0.76,0,0,0,0, ,0,0,0,0,0, ,988.7,28.8,72.1,-0.8,-1.2,-1.2,25,987.731,35.1478,75.3243,-0.193775,-0.609127,-1.60224,
2026_07_06_19_46_27.698,3.873,30.8,0,0.759,0,0,0,0, ,0,0,0,0,0, ,989,26.8,69,-0.2,-0.9,-1.4,25,987.799,34.7,75.0334,-0.212435,-0.635992,-1.58382,
2026_07_06_19_46_27.718,3.873,30.8,0,0.759,0,0,0,0, ,0,0,0,0,0, ,989.1,30.8,67.6,1.1,0,-1.9,25,987.876,34.3405,74.6231,-0.172068,-0.624658,-1.58785,
2026_07_06_19_46_27.738,3.873,30.9,0,0.759,0,0,0,0, ,0,0,0,0,0, ,988.2,37.8,77.5,0.7,0,-2.1,25,987.923,34.338,74.4967,-0.106739,-0.586593,-1.61297,
2026_07_06_19_46_27.758,3.873,30.8,0,0.759,0,0,0,0, ,0,0,0,0,0, ,985.4,38.9,81.1,-0.5,-0.4,-2,25,987.854,34.5825,74.7894,-0.0941409,-0.563035,-1.6396,
2026_07_06_19_46_27.777,3.873,30.7,0,0.759,0,0,0,0, ,0,0,0,0,0, ,987.6,33.9,72,-0.5,-0.9,-1.8,25,987.772,34.6933,74.8967,-0.118873,-0.568335,-1.65547,
2026_07_06_19_46_27.798,3.873,30.9,0,0.76,0,0,0,0, ,0,0,0,0,0, ,988.4,37.3,70,0.2,-0.6,-1.6,25,987.786,34.7485,74.6593,-0.12077,-0.579405,-1.65818,
2026_07_06_19_46_27.817,3.873,30.8,0,0.76,0,0,0,0, ,0,0,0,0,0, ,988.6,40.5,73.6,0,-0.2,-1.5,25,987.829,35.0015,74.485,-0.107317,-0.568472,-1.65159,
2026_07_06_19_46_27.837,3.873,30.8,0,0.76,0,0,0,0, ,0,0,0,0,0, ,988.1,37.4,72.3,0,0.3,-1.4,25,987.861,35.2421,74.3915,-0.100777,-0.530784,-1.63931,
2026_07_06_19_46_27.857,3.873,30.8,0,0.759,0,0,0,0, ,0,0,0,0,0, ,986,32.2,79.3,-0.2,0,-1.5,25,987.812,35.2152,74.4773,-0.10073,-0.489299,-1.62777,
2026_07_06_19_46_27.877,3.873,30.7,0,0.76,0,0,0,0, ,0,0,0,0,0, ,987.1,28.8,79.1,-0.2,-0.8,-1.5,25,987.735,34.9278,74.7651,-0.106779,-0.483857,-1.61998,
2026_07_06_19_46_27.896,3.873,30.8,0,0.76,0,0,0,0, ,0,0,0,0,0, ,986,32.3,78.7,-0.1,-1.4,-1.8,25,987.663,34.6611,75.0171,-0.109413,-0.521404,-1.62181,
2026_07_06_19_46_27.916,3.873,30.8,0,0.759,0,0,0,0, ,0,0,0,0,0, ,989.1,36.3,73.2,-0.1,-1.6,-1.9,25,987.656,34.6391,75.0739,-0.108839,-0.581037,-1.63572,
2026_07_06_19_46_27.936,3.873,30.7,0,0.761,0,0,0,0, ,0,0,0,0,0, ,984.7,37.2,75.5,-0.2,-1.3,-2,25,987.61,34.7677,75.0298,-0.111347,-0.633989,-1.65487,
2026_07_06_19_46_27.956,3.873,30.7,0,0.761,0,0,0,0, ,0,0,0,0,0, ,988.7,33.5,70.5,-0.5,-1.8,-1.6,25,987.554,34.8032,74.9061,-0.12589,-0.689809,-1.66371,
2026_07_06_19_46_27.976,3.873,30.8,0,0.76,0,0,0,0, ,0,0,0,0,0, ,988.5,36.3,70.8,0,-0.8,-1.6,25,987.618,34.8091,74.6468,-0.133453,-0.726992,-1.65983,
2026_07_06_19_46_27.995,3.873,30.8,0,0.759,0,0,0,0, ,0,0,0,0,0, ,988.5,35.6,69.2,-0.2,-0.4,-1.5,25,987.672,34.8786,74.3636,-0.131415,-0.719254,-1.65314,
2026_07_06_19_46_28.015,3.873,30.8,0,0.759,0,0,0,0, ,0,0,0,0,0, ,987.9,33.2,71.1,0.1,0.3,-1.7,25,987.704,34.8494,74.1068,-0.126453,-0.678471,-1.6499,
2026_07_06_19_46_28.035,3.873,30.8,0,0.761,0,0,0,0, ,0,0,0,0,0, ,987.4,33.9,77.7,0.1,0.3,-1.6,25,987.701,34.7703,74.1247,-0.112654,-0.618845,-1.64991,
2026_07_06_19_46_28.055,3.873,30.7,0,0.76,0,0,0,0, ,0,0,0,0,0, ,986.6,34.3,80,0,-0.5,-1.8,25,987.658,34.7294,74.4126,-0.102742,-0.587228,-1.65296,
2026_07_06_19_46_28.075,3.873,30.8,0,0.759,0,0,0,0, ,0,0,0,0,0, ,986,37.1,78,-0.5,-1.2,-1.5,25,987.575,34.7886,74.6922,-0.111716,-0.603241,-1.65278,
2026_07_06_19_46_28.094,3.873,30.8,0,0.76,0,0,0,0, ,0,0,0,0,0, ,986.8,36.7,72.5,-0.8,-1.6,-1.6,25,987.504,34.9172,74.7262,-0.144517,-0.651793,-1.64652,
2026_07_06_19_46_28.114,3.873,30.8,0,0.761,0,0,0,0, ,0,0,0,0,0, ,989.8,33.8,70,-0.5,-1.3,-1.5,25,987.552,34.9375,74.5144,-0.17532,-0.700434,-1.64063,
2026_07_06_19_46_28.135,3.873,30.7,0,0.759,0,0,0,0, ,0,0,0,0,0, ,988.2,35,71,-0.1,-0.6,-1.4,25,987.64,34.9047,74.2697,-0.182918,-0.715642,-1.62902,
2026_07_06_19_46_28.154,3.873,30.7,0,0.76,0,0,0,0, ,0,0,0,0,0, ,987.4,35.4,74.7,-0.2,-0.5,-1.4,25,987.65,34.9227,74.1832,-0.180912,-0.705548,-1.61506,
2026_07_06_19_46_28.173,3.873,30.7,0,0.76,0,0,0,0, ,0,0,0,0,0, ,987.6,35,74.2,-0.4,-0.5,-1.6,25,987.641,34.9396,74.1995,-0.188169,-0.693023,-1.60805,
2026_07_06_19_46_28.195,3.873,30.8,0,0.76,0,0,0,0, ,0,0,0,0,0, ,989.2,32.5,75.3,-0.5,-0.6,-1.5,25,987.687,34.8671,74.233,-0.204124,-0.684307,-1.60451,
2026_07_06_19_46_28.213,3.873,30.8,0,0.76,0,0,0,0, ,0,0,0,0,0, ,986.8,33.4,73.4,0,-0.6,-1.6,25,987.706,34.7503,74.2401,-0.20692,-0.67917,-1.60119,
2026_07_06_19_46_28.233,3.873,30.8,0,0.759,0,0,0,0, ,0,0,0,0,0, ,989,36.6,76.5,0,-1.1,-1.5,25,987.718,34.7655,74.2834,-0.194311,-0.68958,-1.59807,
2026_07_06_19_46_28.253,3.873,30.8,0,0.76,0,0,0,0, ,0,0,0,0,0, ,985.2,38.6,73.4,-0.3,-1.2,-1.7,25,987.68,34.9383,74.324,-0.19161,-0.717637,-1.59819,
2026_07_06_19_46_28.273,3.873,30.9,0,0.759,0,0,0,0, ,0,0,0,0,0, ,990.6,35.1,71.8,-0.6,-1.2,-1.5,25,987.694,35.0548,74.219,-0.207356,-0.747031,-1.5983,
2026_07_06_19_46_28.299,3.873,30.8,0,0.76,0,0,0,0, ,0,0,0,0,0, ,987.7,32.1,70,-0.1,-0.5,-1.5,25,987.782,34.9661,74.0167,-0.216048,-0.753305,-1.59231,
2026_07_06_19_46_28.312,3.873,30.8,0,0.76,0,0,0,0, ,0,0,0,0,0, ,987.9,36.1,73.2,0,-0.5,-1.6,25,987.784,34.9133,73.8694,-0.20593,-0.737869,-1.58973,
2026_07_06_19_46_28.332,3.873,30.8,0,0.76,0,0,0,0, ,0,0,0,0,0, ,985.8,36.7,72.5,0,-0.6,-1.6,25,987.727,35.0039,73.8073,-0.193381,-0.726421,-1.59036,
2026_07_06_19_46_28.352,3.873,30.9,0,0.76,0,0,0,0, ,0,0,0,0,0, ,989.9,34.7,72,-0.1,-0.3,-1.7,25,987.734,35.0463,73.7124,-0.184644,-0.709577,-1.59399,
2026_07_06_19_46_28.372,3.873,30.7,0,0.76,0,0,0,0, ,0,0,0,0,0, ,988.2,35.4,72.8,-0.2,-0.3,-1.5,25,987.814,35.0466,73.6324,-0.182533,-0.684618,-1.59436,
2026_07_06_19_46_28.392,3.873,30.8,0,0.759,0,0,0,0, ,0,0,0,0,0, ,985.7,34.7,74.3,-0.1,-0.5,-1.5,25,987.762,35.0468,73.6274,-0.18055,-0.667274,-1.58861,
2026_07_06_19_46_28.414,3.873,30.9,0,0.76,0,0,0,0, ,0,0,0,0,0, ,986.8,34.5,74.8,0,-0.5,-1.6,25,987.67,35.0195,73.6836,-0.172595,-0.657081,-1.58625,
2026_07_06_19_46_28.431,3.873,30.9,0,0.76,0,0,0,0, ,0,0,0,0,0, ,988.2,36.8,75.5,-0.3,-0.8,-1.6,25,987.659,35.058,73.773,-0.171218,-0.656649,-1.58709,
2026_07_06_19_46_28.451,3.873,30.8,0,0.76,0,0,0,0, ,0,0,0,0,0, ,985.3,35.6,77.2,-0.7,-1,-1.6,25,987.604,35.1276,73.93,-0.191253,-0.671479,-1.58788,
2026_07_06_19_46_28.471,3.873,30.8,0,0.761,0,0,0,0, ,0,0,0,0,0, ,987.5,33.3,75.1,-0.9,-1.9,-1.6,25,987.53,35.0863,74.0653,-0.228349,-0.71892,-1.58862,
2026_07_06_19_46_28.491,3.873,30.9,0,0.761,0,0,0,0, ,0,0,0,0,0, ,990.8,32.4,64.6,-0.3,-1.2,-1.6,25,987.629,34.95,73.8084,-0.250996,-0.769564,-1.58931,
2026_07_06_19_46_28.510,3.873,30.8,0,0.759,0,0,0,0, ,0,0,0,0,0, ,989.6,32.9,66.1,0.3,-0.1,-1.6,25,987.786,34.8098,73.293,-0.235701,-0.762278,-1.58996,
2026_07_06_19_46_28.530,3.873,30.8,0,0.759,0,0,0,0, ,0,0,0,0,0, ,989.8,34.6,72.6,0.3,0.4,-1.7,25,987.902,34.7453,73.0527,-0.203057,-0.706686,-1.59362,
2026_07_06_19_46_28.549,3.873,30.8,0,0.76,0,0,0,0, ,0,0,0,0,0, ,986.4,35.1,75.4,0,0.4,-1.7,25,987.915,34.7516,73.1105,-0.181542,-0.639247,-1.6001,
2026_07_06_19_46_28.569,3.873,30.8,0,0.758,0,0,0,0, ,0,0,0,0,0, ,985.9,36.8,75.5,0,0,-1.7,25,987.807,34.8247,73.253,-0.17048,-0.588106,-1.60619,
2026_07_06_19_46_28.590,3.873,30.9,0,0.76,0,0,0,0, ,0,0,0,0,0, ,985.9,38.9,76,-0.4,-0.8,-1.6,25,987.691,35.009,73.4052,-0.172278,-0.576643,-1.60886,
2026_07_06_19_46_28.609,3.873,30.8,0,0.76,0,0,0,0, ,0,0,0,0,0, ,987.3,36.9,73.2,-0.6,-1.1,-1.4,25,987.624,35.1852,73.478,-0.192249,-0.599394,-1.60223,
2026_07_06_19_46_28.629,3.873,30.8,0,0.761,0,0,0,0, ,0,0,0,0,0, ,987.7,35.7,72.8,-0.7,-1,-1.2,25,987.617,35.2531,73.4489,-0.220143,-0.626853,-1.58381,
2026_07_06_19_46_28.649,3.873,30.8,0,0.76,0,0,0,0, ,0,0,0,0,0, ,989.2,33.2,71,-0.5,-0.8,-1.2,25,987.668,35.2042,73.3545,-0.243291,-0.643498,-1.56042,
2026_07_06_19_46_28.668,3.873,30.8,0,0.761,0,0,0,0, ,0,0,0,0,0, ,987.9,32.7,72.9,-0.4,-0.6,-1.3,25,987.721,35.0668,73.2689,-0.255887,-0.646941,-1.54151,
2026_07_06_19_46_28.688,3.873,30.8,0,0.76,0,0,0,0, ,0,0,0,0,0, ,988.7,31.2,73.4,-0.2,-0.9,-1.6,25,987.757,34.8769,73.2616,-0.258575,-0.653221,-1.53593,
2026_07_06_19_46_28.707,3.873,30.8,0,0.761,0,0,0,0, ,0,0,0,0,0, ,990.1,33.6,73.7,-0.2,-1,-1.8,25,987.857,34.726,73.2792,-0.255006,-0.671306,-1.54593,
2026_07_06_19_46_28.727,3.873,30.9,0,0.76,0,0,0,0, ,0,0,0,0,0, ,986.6,36.3,73.2,-0.2,-1,-1.9,25,987.887,34.7396,73.2896,-0.251654,-0.691336,-1.56446,
2026_07_06_19_46_28.752,3.873,30.9,0,0.761,0,0,0,0, ,0,0,0,0,0, ,989.1,35.4,72.2,-0.5,-1.3,-1.7,25,987.885,34.8073,73.2537,-0.257647,-0.719286,-1.57881,
2026_07_06_19_46_28.767,3.873,30.8,0,0.761,0,0,0,0, ,0,0,0,0,0, ,987.4,36,68.3,-0.3,-0.9,-1.5,25,987.907,34.8617,73.0707,-0.266321,-0.742486,-1.5801,
2026_07_06_19_46_28.787,3.873,30.8,0,0.761,0,0,0,0, ,0,0,0,0,0, ,988.6,36.6,66.8,0,-0.3,-1.5,25,987.912,34.9493,72.7342,-0.259233,-0.733803,-1.57522,
2026_07_06_19_46_28.807,3.873,30.8,0,0.761,0,0,0,0, ,0,0,0,0,0, ,987.5,34.9,70.9,0.1,0,-1.4,25,987.921,34.9981,72.4975,-0.240389,-0.698227,-1.56759,
2026_07_06_19_46_28.827,3.873,30.9,0,0.76,0,0,0,0, ,0,0,0,0,0, ,989,33.3,76.6,-0.1,-0.1,-1.6,25,987.941,34.9434,72.5739,-0.225741,-0.658726,-1.56347,
2026_07_06_19_46_28.847,3.873,30.8,0,0.76,0,0,0,0, ,0,0,0,0,0, ,986.3,31.8,73.6,-0.2,-0.4,-1.6,25,987.923,34.7975,72.7278,-0.221125,-0.633819,-1.5657,
2026_07_06_19_46_28.866,3.873,30.9,0,0.76,0,0,0,0, ,0,0,0,0,0, ,986.9,34.6,76.1,-0.2,-0.9,-1.9,25,987.843,34.7002,72.8571,-0.219838,-0.634805,-1.57693,
2026_07_06_19_46_28.886,3.873,30.8,0,0.761,0,0,0,0, ,0,0,0,0,0, ,987,37.3,76.1,-0.5,-1.6,-1.8,25,987.788,34.7763,73.0547,-0.22777,-0.672294,-1.59357,
2026_07_06_19_46_28.906,3.873,30.9,0,0.761,0,0,0,0, ,0,0,0,0,0, ,990.1,34.5,68.1,-0.5,-1.4,-1.6,25,987.835,34.8448,72.9966,-0.244359,-0.722732,-1.60005,
2026_07_06_19_46_28.925,3.873,30.8,0,0.76,0,0,0,0, ,0,0,0,0,0, ,989.6,33.4,64.8,0,-0.5,-1.4,25,987.957,34.7903,72.5976,-0.244702,-0.736581,-1.59396,
2026_07_06_19_46_28.945,3.873,30.8,0,0.76,0,0,0,0, ,0,0,0,0,0, ,990.3,34.1,66.7,0.4,0.3,-1.6,25,988.079,34.7269,72.1804,-0.217603,-0.69779,-1.58823,
2026_07_06_19_46_28.965,3.873,30.8,0,0.759,0,0,0,0, ,0,0,0,0,0, ,986.6,34.6,78.1,0,0.1,-1.6,25,988.101,34.7039,72.1937,-0.192156,-0.643081,-1.58895,
2026_07_06_19_46_28.984,3.873,30.9,0,0.76,0,0,0,0, ,0,0,0,0,0, ,989.7,34.1,75.6,-0.1,-0.4,-1.8,25,988.104,34.6824,72.4775,-0.183493,-0.613033,-1.59572,
2026_07_06_19_46_29.005,3.873,30.8,0,0.76,0,0,0,0, ,0,0,0,0,0, ,985.8,36.7,75.6,-0.4,-1,-1.7,25,988.083,34.7261,72.6678,-0.187546,-0.618333,-1.60512,
2026_07_06_19_46_29.025,3.873,30.8,0,0.76,0,0,0,0, ,0,0,0,0,0, ,989.1,36.3,74.2,-0.5,-1.1,-1.8,25,988.044,34.8342,72.8038,-0.203539,-0.644638,-1.61395,
2026_07_06_19_46_29.044,3.873,30.9,0,0.761,0,0,0,0, ,0,0,0,0,0, ,987.6,37.1,72.5,-0.4,-1,-1.7,25,988.063,34.9479,72.8371,-0.218558,-0.669339,-1.62224,
2026_07_06_19_46_29.064,3.873,30.8,0,0.761,0,0,0,0, ,0,0,0,0,0, ,987.4,36.3,68.6,-0.3,-0.6,-1.5,25,988.029,35.0547,72.6977,-0.226568,-0.677302,-1.62088,
2026_07_06_19_46_29.084,3.873,30.8,0,0.76,0,0,0,0, ,0,0,0,0,0, ,989.8,36.2,69.7,-0.2,-0.4,-1.6,25,988.063,35.1275,72.4815,-0.227995,-0.666497,-1.61656,
2026_07_06_19_46_29.104,3.873,30.8,0,0.76,0,0,0,0, ,0,0,0,0,0, ,987.9,35.4,75.3,-0.4,-0.1,-1.4,25,988.111,35.1685,72.4826,-0.232383,-0.641117,-1.60946,
2026_07_06_19_46_29.124,3.873,30.9,0,0.76,0,0,0,0, ,0,0,0,0,0, ,987.5,34.3,72.1,-0.4,-0.5,-1.4,25,988.086,35.1491,72.5568,-0.242597,-0.62033,-1.5967,
2026_07_06_19_46_29.144,3.873,30.9,0,0.76,0,0,0,0, ,0,0,0,0,0, ,987.7,34.1,73.3,-0.1,-0.7,-1.5,25,988.057,35.0912,72.5655,-0.243048,-0.619091,-1.58776,
2026_07_06_19_46_29.163,3.873,30.8,0,0.76,0,0,0,0, ,0,0,0,0,0, ,988.7,33.9,74.2,-0.2,-1,-1.8,25,988.065,35.0247,72.6377,-0.237378,-0.633162,-1.59155,
2026_07_06_19_46_29.183,3.873,30.9,0,0.761,0,0,0,0, ,0,0,0,0,0, ,987.6,35.6,73.1,-0.3,-1.2,-1.8,25,988.071,35.008,72.6994,-0.238147,-0.66161,-1.60425,
2026_07_06_19_46_29.203,3.873,30.7,0,0.762,0,0,0,0, ,0,0,0,0,0, ,989.9,33.2,70.5,-0.3,-1.3,-1.8,25,988.112,34.9709,72.6446,-0.241917,-0.697465,-1.61618,
2026_07_06_19_46_29.223,3.873,30.7,0,0.759,0,0,0,0, ,0,0,0,0,0, ,988.2,37.8,67.9,-0.1,-0.9,-1.5,25,988.169,35.0032,72.4347,-0.239362,-0.721995,-1.61824,
2026_07_06_19_46_29.242,3.873,30.8,0,0.76,0,0,0,0, ,0,0,0,0,0, ,989.6,36.1,71.6,-0.1,-0.6,-1.6,25,988.214,35.1218,72.2711,-0.23087,-0.723701,-1.61408,
2026_07_06_19_46_29.262,3.873,30.7,0,0.759,0,0,0,0, ,0,0,0,0,0, ,986.8,34,71.4,-0.3,-0.7,-1.5,25,988.213,35.1174,72.2241,-0.228989,-0.71921,-1.61018,
2026_07_06_19_46_29.282,3.873,30.7,0,0.759,0,0,0,0, ,0,0,0,0,0, ,988.6,34,71.2,-0.2,-0.6,-1.5,25,988.182,35.0494,72.1678,-0.230269,-0.714993,-1.60346,
2026_07_06_19_46_29.302,3.873,30.9,0,0.762,0,0,0,0, ,0,0,0,0,0, ,988.4,34.3,72.1,-0.2,-0.8,-1.5,25,988.201,34.9945,72.1362,-0.228425,-0.714079,-1.59716,
2026_07_06_19_46_29.321,3.873,30.8,0,0.762,0,0,0,0, ,0,0,0,0,0, ,988.1,35.6,72.3,-0.1,-0.6,-1.6,25,988.204,34.9918,72.1401,-0.223646,-0.713221,-1.59429,
2026_07_06_19_46_29.341,3.873,30.9,0,0.76,0,0,0,0, ,0,0,0,0,0, ,986.5,35,74,-0.1,-0.6,-1.6,25,988.149,35.0106,72.2017,-0.216111,-0.706322,-1.59463,
2026_07_06_19_46_29.363,3.873,30.7,0,0.76,0,0,0,0, ,0,0,0,0,0, ,990.9,33.9,71,-0.3,-0.8,-1.6,25,988.182,34.9764,72.2198,-0.215129,-0.705936,-1.59496,
2026_07_06_19_46_29.381,3.873,30.9,0,0.759,0,0,0,0, ,0,0,0,0,0, ,987.4,34.3,70.3,-0.2,-0.8,-1.6,25,988.241,34.923,72.1242,-0.217254,-0.711668,-1.59527,
2026_07_06_19_46_29.401,3.873,30.8,0,0.76,0,0,0,0, ,0,0,0,0,0, ,990.9,35.4,67.7,0,-0.5,-1.6,25,988.297,34.9186,71.9338,-0.210109,-0.70791,-1.59556,
2026_07_06_19_46_29.420,3.873,30.9,0,0.76,0,0,0,0, ,0,0,0,0,0, ,986.4,35.6,73.3,-0.1,-0.2,-1.5,25,988.318,34.954,71.8464,-0.200352,-0.6861,-1.59278,
2026_07_06_19_46_29.440,3.873,30.7,0,0.761,0,0,0,0, ,0,0,0,0,0, ,986.5,34.7,71.8,-0.1,-0.4,-1.6,25,988.204,34.966,71.8893,-0.194237,-0.662572,-1.59017,
2026_07_06_19_46_29.460,3.873,30.8,0,0.759,0,0,0,0, ,0,0,0,0,0, ,988.5,36,69.9,-0.2,-0.3,-1.5,25,988.162,34.9894,71.826,-0.191541,-0.643525,-1.58772,
2026_07_06_19_46_29.480,3.873,30.8,0,0.76,0,0,0,0, ,0,0,0,0,0, ,989.2,34.4,70.6,-0.1,0,-1.5,25,988.203,35.0022,71.7299,-0.18901,-0.613451,-1.58238,
2026_07_06_19_46_29.500,3.873,30.8,0,0.76,0,0,0,0, ,0,0,0,0,0, ,989,35,73.4,0,-0.3,-1.6,25,988.258,34.9838,71.7464,-0.180539,-0.585209,-1.58041,
2026_07_06_19_46_29.521,3.873,30.7,0,0.761,0,0,0,0, ,0,0,0,0,0, ,986.4,36.4,76.1,-0.5,-1,-1.6,25,988.224,35.0274,71.9294,-0.184772,-0.589157,-1.5816,
2026_07_06_19_46_29.540,3.873,30.7,0,0.759,0,0,0,0, ,0,0,0,0,0, ,989,35.1,66.2,-0.5,-1,-1.5,25,988.192,35.0715,71.8819,-0.203981,-0.614193,-1.57967,
2026_07_06_19_46_29.560,3.873,30.8,0,0.759,0,0,0,0, ,0,0,0,0,0, ,989.8,33.5,66.2,0.1,0,-1.4,25,988.266,35.0244,71.5357,-0.203738,-0.607235,-1.57177,
2026_07_06_19_46_29.578,3.873,30.9,0,0.761,0,0,0,0, ,0,0,0,0,0, ,989.2,35.6,70,0.6,0.5,-1.7,25,988.341,34.9955,71.3263,-0.169995,-0.554997,-1.57045,
2026_07_06_19_46_29.597,3.873,30.8,0,0.761,0,0,0,0, ,0,0,0,0,0, ,986.3,38,77.1,-0.1,0.2,-1.7,25,988.305,35.1055,71.4618,-0.144402,-0.499849,-1.57834,
2026_07_06_19_46_29.618,3.873,30.9,0,0.76,0,0,0,0, ,0,0,0,0,0, ,986,39.3,76,-0.7,-0.5,-1.6,25,988.174,35.3215,71.7719,-0.159977,-0.47853,-1.58271,
2026_07_06_19_46_29.637,3.873,30.8,0,0.761,0,0,0,0, ,0,0,0,0,0, ,986.8,35.4,70.4,-0.5,-0.7,-1.4,25,988.066,35.4451,71.8589,-0.186791,-0.485932,-1.57767,
2026_07_06_19_46_29.657,3.873,30.8,0,0.76,0,0,0,0, ,0,0,0,0,0, ,987.7,34.3,70.9,0.1,-0.5,-1.2,25,988.016,35.4088,71.7852,-0.187596,-0.492883,-1.56075,
2026_07_06_19_46_29.678,3.873,30.9,0,0.76,0,0,0,0, ,0,0,0,0,0, ,988.1,37.3,71.1,0.1,-0.4,-1.2,25,988.009,35.4327,71.7374,-0.170071,-0.49027,-1.53876,
2026_07_06_19_46_29.697,3.873,30.9,0,0.76,0,0,0,0, ,0,0,0,0,0, ,990.2,35.5,74.3,-0.5,-0.4,-1.2,25,988.078,35.4916,71.7961,-0.171894,-0.484769,-1.51812,
2026_07_06_19_46_29.716,3.873,30.9,0,0.76,0,0,0,0, ,0,0,0,0,0, ,984.8,32.5,75.6,-0.8,-0.6,-1.4,25,988.043,35.4007,71.9882,-0.201029,-0.485697,-1.50483,
2026_07_06_19_46_29.737,3.873,30.8,0,0.76,0,0,0,0, ,0,0,0,0,0, ,987.3,30,73.6,-0.7,-1.3,-1.6,25,987.922,35.1478,72.1474,-0.234482,-0.51399,-1.50453,
2026_07_06_19_46_29.757,3.873,30.8,0,0.76,0,0,0,0, ,0,0,0,0,0, ,988.5,29.9,71.8,0,-1.4,-1.6,25,987.92,34.8311,72.1811,-0.241521,-0.564935,-1.51035,
2026_07_06_19_46_29.776,3.873,30.8,0,0.76,0,0,0,0, ,0,0,0,0,0, ,988.1,35.8,66.8,0.5,-0.9,-2,25,987.943,34.7103,72.0055,-0.211569,-0.600587,-1.528,
2026_07_06_19_46_29.796,3.873,30.8,0,0.76,0,0,0,0, ,0,0,0,0,0, ,988,38.5,70,0.1,-0.4,-1.8,25,987.95,34.859,71.7858,-0.180395,-0.603598,-1.55067,
2026_07_06_19_46_29.817,3.873,30.8,0,0.761,0,0,0,0, ,0,0,0,0,0, ,987.6,37.4,71.1,-0.3,-0.2,-1.8,25,987.941,35.0474,71.7105,-0.175496,-0.585098,-1.56586,
2026_07_06_19_46_29.836,3.873,30.8,0,0.76,0,0,0,0, ,0,0,0,0,0, ,986.8,33.8,66.2,-0.3,0,-1.3,25,987.896,35.081,71.524,-0.183083,-0.555537,-1.5649,
2026_07_06_19_46_29.856,3.873,30.8,0,0.759,0,0,0,0, ,0,0,0,0,0, ,988.7,34,72.3,0.3,0.2,-1.6,25,987.887,35.0091,71.3854,-0.171927,-0.51559,-1.5579,
2026_07_06_19_46_29.875,3.873,30.8,0,0.76,0,0,0,0, ,0,0,0,0,0, ,986.6,35.1,78.9,0.2,0,-1.5,25,987.872,34.9811,71.6422,-0.146215,-0.478078,-1.55741,
2026_07_06_19_46_29.895,3.873,30.9,0,0.76,0,0,0,0, ,0,0,0,0,0, ,986.8,35.5,78.8,-0.3,-0.9,-1.6,25,987.801,35.0005,72.0815,-0.140352,-0.476367,-1.55696,
2026_07_06_19_46_29.915,3.873,30.9,0,0.76,0,0,0,0, ,0,0,0,0,0, ,986.3,34.4,72.7,-0.6,-1.3,-1.7,25,987.725,34.9974,72.305,-0.159222,-0.514369,-1.56263,
2026_07_06_19_46_29.935,3.873,30.9,0,0.761,0,0,0,0, ,0,0,0,0,0, ,988.6,35.1,68.4,-0.7,-1.1,-1.7,25,987.708,34.9824,72.1981,-0.189128,-0.55615,-1.571,
2026_07_06_19_46_29.955,3.873,30.8,0,0.76,0,0,0,0, ,0,0,0,0,0, ,989.3,35.6,66.2,-0.4,-0.8,-1.6,25,987.784,35.0048,71.8996,-0.211119,-0.58015,-1.57582,
2026_07_06_19_46_29.974,3.873,30.9,0,0.76,0,0,0,0, ,0,0,0,0,0, ,988.2,35.1,70,-0.1,-0.1,-1.5,25,987.843,35.0258,71.6681,-0.213488,-0.572219,-1.57424,
2026_07_06_19_46_29.994,3.873,30.9,0,0.76,0,0,0,0, ,0,0,0,0,0, ,989.2,34.6,71.7,0.1,0.2,-1.6,25,987.895,35.0151,71.6182,-0.200479,-0.534303,-1.57277,
2026_07_06_19_46_30.014,3.873,30.8,0,0.759,0,0,0,0, ,0,0,0,0,0, ,986.6,35,77.8,-0.1,0,-1.5,25,987.895,35.002,71.8091,-0.188262,-0.49565,-1.57138,
2026_07_06_19_46_30.034,3.873,30.8,0,0.759,0,0,0,0, ,0,0,0,0,0, ,988,32.3,75.3,-0.3,-0.7,-1.7,25,987.859,34.9196,72.098,-0.188977,-0.486774,-1.57312,
2026_07_06_19_46_30.053,3.873,30.8,0,0.76,0,0,0,0, ,0,0,0,0,0, ,987.7,33.5,74.4,-0.3,-0.7,-1.7,25,987.858,34.7965,72.2657,-0.195743,-0.499768,-1.58085,
2026_07_06_19_46_30.073,3.873,30.8,0,0.76,0,0,0,0, ,0,0,0,0,0, ,988.1,32.2,72,0,-0.7,-1.8,25,987.861,34.6779,72.3226,-0.192955,-0.511969,-1.59116,
2026_07_06_19_46_30.093,3.873,30.8,0,0.76,0,0,0,0, ,0,0,0,0,0, ,989.5,33.8,75.3,0,-0.7,-1.8,25,987.918,34.5757,72.4035,-0.181197,-0.523428,-1.60389,
2026_07_06_19_46_30.113,3.873,30.9,0,0.759,0,0,0,0, ,0,0,0,0,0, ,986.4,37.9,72.9,-0.2,-0.9,-1.9,25,987.92,34.6533,72.5069,-0.176249,-0.540281,-1.61889,
2026_07_06_19_46_30.133,3.873,30.8,0,0.76,0,0,0,0, ,0,0,0,0,0, ,985.7,37.9,73.4,-0.5,-1.1,-1.6,25,987.806,34.8512,72.5461,-0.186837,-0.568295,-1.62688,
2026_07_06_19_46_30.152,3.873,30.9,0,0.76,0,0,0,0, ,0,0,0,0,0, ,987.6,33.9,71,-0.4,-0.8,-1.5,25,987.736,34.9151,72.525,-0.202874,-0.591555,-1.62219,
2026_07_06_19_46_30.172,3.873,30.8,0,0.761,0,0,0,0, ,0,0,0,0,0, ,988.7,35.1,67.6,0,-0.4,-1.3,25,987.761,34.8898,72.3284,-0.202699,-0.59207,-1.60865,
2026_07_06_19_46_30.192,3.873,30.8,0,0.76,0,0,0,0, ,0,0,0,0,0, ,988.6,36.4,69.9,0,0.1,-1.4,25,987.815,34.9422,72.1104,-0.190347,-0.565131,-1.59289,
2026_07_06_19_46_30.211,3.873,30.8,0,0.761,0,0,0,0, ,0,0,0,0,0, ,987.1,36,76.7,-0.3,0,-1.7,25,987.817,35.0189,72.1829,-0.187888,-0.527647,-1.59028,
2026_07_06_19_46_30.232,3.873,30.8,0,0.76,0,0,0,0, ,0,0,0,0,0, ,987.7,30.6,74.7,-0.3,-0.7,-1.6,25,987.792,34.9141,72.3972,-0.19472,-0.516821,-1.59392,
2026_07_06_19_46_30.252,3.873,30.8,0,0.76,0,0,0,0, ,0,0,0,0,0, ,988.6,31.4,74.9,0,-1.2,-1.6,25,987.814,34.6756,72.5436,-0.191995,-0.543218,-1.59429,
2026_07_06_19_46_30.274,3.873,30.7,0,0.759,0,0,0,0, ,0,0,0,0,0, ,987.1,37.7,76.4,-0.5,-1.5,-1.8,25,987.816,34.6679,72.7329,-0.195529,-0.592382,-1.60073,
2026_07_06_19_46_30.291,3.873,30.8,0,0.762,0,0,0,0, ,0,0,0,0,0, ,988.2,35,67.9,-0.8,-1.7,-1.5,25,987.806,34.7704,72.6974,-0.223224,-0.653783,-1.60373,
2026_07_06_19_46_30.311,3.873,30.8,0,0.76,0,0,0,0, ,0,0,0,0,0, ,990.3,34.9,65,-0.5,-0.7,-1.3,25,987.894,34.7814,72.3167,-0.24923,-0.687068,-1.59132,
2026_07_06_19_46_30.331,3.873,30.9,0,0.759,0,0,0,0, ,0,0,0,0,0, ,988.2,33.8,66.1,-0.2,-0.1,-1.4,25,987.976,34.7551,71.9043,-0.255371,-0.669575,-1.57661,
2026_07_06_19_46_30.349,3.873,30.8,0,0.76,0,0,0,0, ,0,0,0,0,0, ,989,33.6,69,0.1,0.2,-1.5,25,988.014,34.6908,71.639,-0.242856,-0.625726,-1.5689,
2026_07_06_19_46_30.370,3.873,30.8,0,0.759,0,0,0,0, ,0,0,0,0,0, ,988.5,36.2,71.1,0.1,0.6,-1.6,25,988.059,34.7035,71.5422,-0.221963,-0.563221,-1.56774,
2026_07_06_19_46_30.390,3.873,30.8,0,0.76,0,0,0,0, ,0,0,0,0,0, ,986,34.6,76.1,0,0.5,-1.6,25,988.01,34.746,71.6676,-0.205391,-0.495384,-1.56971,
2026_07_06_19_46_30.409,3.873,30.8,0,0.76,0,0,0,0, ,0,0,0,0,0, ,987.1,32.5,76,0,-0.2,-1.6,25,987.921,34.6731,71.9346,-0.192875,-0.456056,-1.57156,
2026_07_06_19_46_30.430,3.873,30.9,0,0.762,0,0,0,0, ,0,0,0,0,0, ,988.4,35.7,74.8,0,-0.5,-1.6,25,987.911,34.6382,72.1458,-0.181121,-0.449593,-1.57329,
2026_07_06_19_46_30.449,3.873,30.8,0,0.759,0,0,0,0, ,0,0,0,0,0, ,988.1,35.4,72.8,-0.1,-0.4,-1.7,25,987.931,34.6937,72.2466,-0.173131,-0.449618,-1.57796,
2026_07_06_19_46_30.469,3.873,30.9,0,0.758,0,0,0,0, ,0,0,0,0,0, ,987.5,35.2,71.5,-0.2,-0.3,-1.6,25,987.923,34.7307,72.2407,-0.171722,-0.443547,-1.58235,
2026_07_06_19_46_30.489,3.873,30.9,0,0.76,0,0,0,0, ,0,0,0,0,0, ,987.6,36.6,73.2,-0.1,-0.2,-1.7,25,987.9,34.8019,72.2474,-0.170398,-0.431753,-1.58648,
2026_07_06_19_46_30.509,3.873,30.8,0,0.758,0,0,0,0, ,0,0,0,0,0, ,989,35.7,74.7,-0.2,-0.2,-1.4,25,987.925,34.8841,72.3511,-0.169155,-0.417631,-1.58425,
2026_07_06_19_46_30.528,3.873,30.9,0,0.76,0,0,0,0, ,0,0,0,0,0, ,987.7,35.8,72.7,-0.1,-0.1,-1.4,25,987.951,34.9369,72.4333,-0.167988,-0.401322,-1.57302,
2026_07_06_19_46_30.548,3.873,30.9,0,0.759,0,0,0,0, ,0,0,0,0,0, ,987.4,35.2,77.1,-0.1,-0.3,-1.5,25,987.926,34.9712,72.5836,-0.163845,-0.389054,-1.56553,
2026_07_06_19_46_30.568,3.873,30.8,0,0.759,0,0,0,0, ,0,0,0,0,0, ,986.9,33.6,80.2,-0.6,-1.4,-1.5,25,987.879,34.9364,72.9533,-0.175189,-0.417143,-1.56153,
2026_07_06_19_46_30.588,3.873,30.8,0,0.759,0,0,0,0, ,0,0,0,0,0, ,989.6,33.3,72.3,-0.7,-1.7,-1.5,25,987.902,34.8458,73.1542,-0.204122,-0.486176,-1.55778,
2026_07_06_19_46_30.608,3.873,30.9,0,0.761,0,0,0,0, ,0,0,0,0,0, ,988.8,33.6,65.9,-0.2,-0.5,-1.5,25,987.981,34.7607,72.9071,-0.219106,-0.523581,-1.55426,
2026_07_06_19_46_30.627,3.873,30.9,0,0.76,0,0,0,0, ,0,0,0,0,0, ,989.3,33.9,68.8,0.3,0,-1.7,25,988.046,34.6991,72.5685,-0.202707,-0.50691,-1.55705,
2026_07_06_19_46_30.647,3.873,30.9,0,0.76,0,0,0,0, ,0,0,0,0,0, ,987,35.7,78.9,0.1,0.1,-1.7,25,988.052,34.7053,72.6466,-0.178167,-0.472973,-1.56576,
2026_07_06_19_46_30.667,3.873,30.9,0,0.76,0,0,0,0, ,0,0,0,0,0, ,988,37.9,77.3,-0.3,-0.8,-1.7,25,988.019,34.8329,72.9789,-0.173404,-0.465479,-1.57394,
2026_07_06_19_46_30.687,3.873,30.9,0,0.761,0,0,0,0, ,0,0,0,0,0, ,987.7,37.8,74.2,-0.7,-1.2,-1.6,25,988.008,35.0168,73.1478,-0.193306,-0.498052,-1.57858,
2026_07_06_19_46_30.706,3.873,30.9,0,0.76,0,0,0,0, ,0,0,0,0,0, ,986.6,34,69.4,-0.5,-0.7,-1.4,25,987.956,35.0706,73.0656,-0.218089,-0.525592,-1.57379,
2026_07_06_19_46_30.726,3.873,30.9,0,0.76,0,0,0,0, ,0,0,0,0,0, ,987.7,34.1,71.6,-0.1,-0.5,-1.4,25,987.907,35.0084,72.9093,-0.22308,-0.530127,-1.5632,
2026_07_06_19_46_30.746,3.873,30.9,0,0.76,0,0,0,0, ,0,0,0,0,0, ,987.5,36,74.5,-0.1,-0.6,-1.4,25,987.888,35.011,72.9179,-0.21558,-0.531338,-1.55325,
2026_07_06_19_46_30.766,3.873,30.9,0,0.761,0,0,0,0, ,0,0,0,0,0, ,986.8,34.4,79.3,-0.7,-0.9,-1.4,25,987.843,35.0225,73.1605,-0.226818,-0.544662,-1.54391,
2026_07_06_19_46_30.785,3.873,30.9,0,0.76,0,0,0,0, ,0,0,0,0,0, ,988.5,31.6,71.4,-0.6,-1.1,-1.7,25,987.831,34.8992,73.294,-0.252606,-0.57241,-1.54429,
2026_07_06_19_46_30.807,3.873,30.8,0,0.759,0,0,0,0, ,0,0,0,0,0, ,989.5,31.9,70.4,0,-0.8,-1.8,25,987.903,34.7073,73.1481,-0.255494,-0.595419,-1.55682,
2026_07_06_19_46_30.825,3.873,30.8,0,0.759,0,0,0,0, ,0,0,0,0,0, ,988,36.6,71,0.2,-0.4,-1.8,25,987.954,34.6795,72.9989,-0.233831,-0.595698,-1.57164,
2026_07_06_19_46_30.845,3.873,30.8,0,0.761,0,0,0,0, ,0,0,0,0,0, ,988.1,38,73.8,-0.1,-0.4,-1.8,25,987.96,34.8391,72.9624,-0.216535,-0.583773,-1.58556,
2026_07_06_19_46_30.865,3.873,30.9,0,0.76,0,0,0,0, ,0,0,0,0,0, ,989,37.8,69.5,-0.2,-0.1,-1.5,25,987.996,35.0257,72.8824,-0.21248,-0.563433,-1.58948,
2026_07_06_19_46_30.885,3.873,30.8,0,0.759,0,0,0,0, ,0,0,0,0,0, ,987.6,34.4,70,-0.1,0.4,-1.3,25,988.015,35.0911,72.6915,-0.208673,-0.519959,-1.57794,
2026_07_06_19_46_30.905,3.873,30.9,0,0.759,0,0,0,0, ,0,0,0,0,0, ,987.6,33.4,75.3,0.1,0.3,-1.3,25,987.989,35.0185,72.689,-0.195957,-0.466946,-1.561,
2026_07_06_19_46_30.925,3.873,30.9,0,0.76,0,0,0,0, ,0,0,0,0,0, ,987.6,35.4,78.2,-0.1,-0.1,-1.6,25,987.966,34.9809,72.9365,-0.184016,-0.432397,-1.55424,
2026_07_06_19_46_30.944,3.873,30.9,0,0.76,0,0,0,0, ,0,0,0,0,0, ,988,33.9,78.7,-0.5,-0.6,-1.7,25,987.955,34.9607,73.2725,-0.191084,-0.427376,-1.56007,
2026_07_06_19_46_30.964,3.873,30.9,0,0.761,0,0,0,0, ,0,0,0,0,0, ,987.7,31.6,78.2,-0.7,-1.4,-1.7,25,987.949,34.826,73.588,-0.216002,-0.46227,-1.5686,
2026_07_06_19_46_30.984,3.873,31,0,0.759,0,0,0,0, ,0,0,0,0,0, ,989,34.5,71.8,-0.3,-1.4,-1.7,25,987.973,34.7178,73.674,-0.233308,-0.519413,-1.57661,
2026_07_06_19_46_31.003,3.873,30.9,0,0.76,0,0,0,0, ,0,0,0,0,0, ,988.2,36.8,72.3,-0.4,-1.3,-1.7,25,988.012,34.7746,73.575,-0.240419,-0.570027,-1.58412,
2026_07_06_19_46_31.023,3.873,30.9,0,0.76,0,0,0,0, ,0,0,0,0,0, ,989.3,36.6,65.1,-0.1,-0.8,-1.6,25,988.057,34.8919,73.278,-0.241003,-0.599276,-1.58814,
2026_07_06_19_46_31.043,3.873,30.9,0,0.76,0,0,0,0, ,0,0,0,0,0, ,989.1,35.6,71.4,-0.1,0,-1.6,25,988.126,34.9655,72.9716,-0.23241,-0.587132,-1.58886,
2026_07_06_19_46_31.063,3.873,31,0,0.759,0,0,0,0, ,0,0,0,0,0, ,987.5,35.5,76.1,-0.2,-0.1,-1.6,25,988.137,35.0011,73.019,-0.227389,-0.554401,-1.58954,
2026_07_06_19_46_31.082,3.873,30.9,0,0.759,0,0,0,0, ,0,0,0,0,0, ,987.3,33.5,72.7,-0.3,-0.4,-1.6,25,988.092,34.9706,73.1032,-0.228766,-0.535851,-1.59018,
2026_07_06_19_46_31.102,3.873,30.9,0,0.761,0,0,0,0, ,0,0,0,0,0, ,988.8,34,74.5,-0.1,-0.4,-1.7,25,988.089,34.8962,73.1334,-0.227014,-0.527573,-1.59382,
2026_07_06_19_46_31.121,3.873,30.9,0,0.76,0,0,0,0, ,0,0,0,0,0, ,987.3,33.3,73.2,0,-0.4,-1.6,25,988.087,34.8203,73.1771,-0.216227,-0.519799,-1.59725,
2026_07_06_19_46_31.142,3.873,30.9,0,0.76,0,0,0,0, ,0,0,0,0,0, ,987.6,36.7,78.3,0,-0.5,-1.8,25,988.048,34.8312,73.3339,-0.20305,-0.515546,-1.60351,
2026_07_06_19_46_31.162,3.873,30.9,0,0.761,0,0,0,0, ,0,0,0,0,0, ,987.3,35.5,75.5,-0.7,-1.3,-1.8,25,988.012,34.9085,73.5512,-0.212005,-0.538973,-1.61548,
2026_07_06_19_46_31.181,3.873,31,0,0.76,0,0,0,0, ,0,0,0,0,0, ,988,34.7,71.4,-0.6,-1.4,-1.7,25,987.99,34.9202,73.545,-0.238695,-0.588395,-1.62368,
2026_07_06_19_46_31.202,3.873,30.9,0,0.761,0,0,0,0, ,0,0,0,0,0, ,988.6,33.9,68.8,-0.3,-0.8,-1.4,25,988.009,34.8824,73.3351,-0.251572,-0.619571,-1.61919,
2026_07_06_19_46_31.221,3.873,31,0,0.76,0,0,0,0, ,0,0,0,0,0, ,988.7,38.2,72.2,-0.1,-0.5,-1.5,25,988.048,34.9536,73.1623,-0.248429,-0.621425,-1.60888,
2026_07_06_19_46_31.241,3.873,31,0,0.761,0,0,0,0, ,0,0,0,0,0, ,987.9,35.8,72.1,-0.4,-0.2,-1.6,25,988.063,35.0783,73.1007,-0.248525,-0.604885,-1.60529,
2026_07_06_19_46_31.260,3.873,30.9,0,0.76,0,0,0,0, ,0,0,0,0,0, ,987.9,31.8,73.9,-0.6,-0.5,-1.5,25,988.053,35.0004,73.0945,-0.263849,-0.589353,-1.60192,
2026_07_06_19_46_31.280,3.873,30.9,0,0.76,0,0,0,0, ,0,0,0,0,0, ,987.7,31,73.2,-0.2,-0.5,-1.5,25,988.038,34.781,73.1223,-0.272146,-0.583908,-1.59571,
2026_07_06_19_46_31.300,3.873,30.9,0,0.76,0,0,0,0, ,0,0,0,0,0, ,989,35.2,75,0,-0.7,-1.7,25,988.057,34.6785,73.1819,-0.261656,-0.584889,-1.59597,
2026_07_06_19_46_31.324,3.873,30.9,0,0.761,0,0,0,0, ,0,0,0,0,0, ,988.2,37.5,74.4,-0.3,-0.8,-1.7,25,988.09,34.7804,73.2744,-0.254852,-0.59495,-1.60231,
2026_07_06_19_46_31.340,3.873,30.9,0,0.759,0,0,0,0, ,0,0,0,0,0, ,987.5,36,70.3,-0.3,-0.7,-1.7,25,988.075,34.9004,73.218,-0.257603,-0.604399,-1.60826,
2026_07_06_19_46_31.360,3.873,30.9,0,0.759,0,0,0,0, ,0,0,0,0,0, ,986.2,33.6,74.3,-0.2,-0.5,-1.7,25,988.001,34.8943,73.1621,-0.25714,-0.604131,-1.61385,
2026_07_06_19_46_31.379,3.873,30.8,0,0.761,0,0,0,0, ,0,0,0,0,0, ,989,33.9,72.3,0,-0.7,-1.6,25,987.976,34.8246,73.1705,-0.247564,-0.603879,-1.61606,
2026_07_06_19_46_31.399,3.873,31,0,0.76,0,0,0,0, ,0,0,0,0,0, ,988.2,36.2,73.4,-0.3,-0.8,-1.6,25,988.014,34.8383,73.151,-0.241619,-0.612783,-1.61508,
2026_07_06_19_46_31.419,3.873,31,0,0.759,0,0,0,0, ,0,0,0,0,0, ,988.5,34.3,69.2,-0.3,-0.5,-1.6,25,988.035,34.8634,73.0382,-0.245176,-0.615051,-1.61416,
2026_07_06_19_46_31.438,3.873,31,0,0.759,0,0,0,0, ,0,0,0,0,0, ,988.5,33.2,72.7,-0.1,-0.3,-1.7,25,988.063,34.7955,72.9109,-0.242423,-0.601946,-1.61634,
2026_07_06_19_46_31.458,3.873,30.8,0,0.761,0,0,0,0, ,0,0,0,0,0, ,985.9,36.1,77.1,-0.2,-0.4,-1.7,25,988.01,34.7867,73.0321,-0.236791,-0.586593,-1.62144,
2026_07_06_19_46_31.479,3.873,30.8,0,0.761,0,0,0,0, ,0,0,0,0,0, ,989,35.4,72.7,-0.5,-1.1,-1.8,25,987.976,34.8454,73.146,-0.24369,-0.596551,-1.62928,
2026_07_06_19_46_31.498,3.873,30.8,0,0.758,0,0,0,0, ,0,0,0,0,0, ,987.4,36.8,71.6,-0.4,-0.7,-1.6,25,987.99,34.9218,73.0853,-0.256262,-0.615042,-1.63359,
2026_07_06_19_46_31.518,3.873,30.9,0,0.761,0,0,0,0, ,0,0,0,0,0, ,989.3,33.8,68.3,-0.1,-0.5,-1.4,25,988.012,34.9449,72.8942,-0.25588,-0.614126,-1.62545,
2026_07_06_19_46_31.538,3.873,30.9,0,0.76,0,0,0,0, ,0,0,0,0,0, ,987,34.4,71.1,0,0.2,-1.5,25,988.02,34.8934,72.6996,-0.243335,-0.585843,-1.61475,
2026_07_06_19_46_31.557,3.873,30.9,0,0.76,0,0,0,0, ,0,0,0,0,0, ,988.1,35.5,76.9,0,0,-1.6,25,987.992,34.8968,72.7788,-0.228506,-0.54405,-1.61081,
2026_07_06_19_46_31.577,3.873,31,0,0.759,0,0,0,0, ,0,0,0,0,0, ,986,34.3,80.2,-0.5,-0.8,-1.7,25,987.934,34.897,73.1305,-0.229816,-0.535272,-1.6132,
2026_07_06_19_46_31.597,3.873,30.8,0,0.761,0,0,0,0, ,0,0,0,0,0, ,988.8,33,72.7,-0.8,-1.6,-1.8,25,987.902,34.821,73.3328,-0.255421,-0.575778,-1.62153,
2026_07_06_19_46_31.617,3.873,30.9,0,0.761,0,0,0,0, ,0,0,0,0,0, ,989.3,33.3,65,-0.3,-0.9,-1.6,25,987.972,34.7192,73.0596,-0.273372,-0.616864,-1.62631,
2026_07_06_19_46_31.636,3.873,30.8,0,0.761,0,0,0,0, ,0,0,0,0,0, ,989.2,36.9,67.1,0.1,0,-1.6,25,988.05,34.7424,72.6325,-0.262807,-0.606696,-1.62471,
2026_07_06_19_46_31.656,3.873,30.8,0,0.76,0,0,0,0, ,0,0,0,0,0, ,988,36.7,73.6,0,0.3,-1.7,25,988.083,34.8678,72.4934,-0.243745,-0.560584,-1.62625,
2026_07_06_19_46_31.678,3.873,30.9,0,0.758,0,0,0,0, ,0,0,0,0,0, ,988.2,34.6,77,-0.1,0.1,-1.6,25,988.084,34.9155,72.6644,-0.231939,-0.514236,-1.6277,
2026_07_06_19_46_31.696,3.873,30.8,0,0.759,0,0,0,0, ,0,0,0,0,0, ,986.3,35.8,75.3,-0.3,-0.2,-1.6,25,988.033,34.9328,72.8768,-0.229993,-0.485947,-1.62601,
2026_07_06_19_46_31.716,3.873,30.9,0,0.76,0,0,0,0, ,0,0,0,0,0, ,986,34.1,75.9,-0.3,-0.8,-1.5,25,987.919,34.9339,73.0427,-0.234259,-0.486803,-1.62138,
2026_07_06_19_46_31.736,3.873,31,0,0.76,0,0,0,0, ,0,0,0,0,0, ,987.9,34.4,73.2,-0.4,-1.3,-1.4,25,987.86,34.8922,73.1346,-0.241312,-0.521123,-1.61094,
2026_07_06_19_46_31.755,3.873,30.9,0,0.761,0,0,0,0, ,0,0,0,0,0, ,989.6,36.1,73.6,-0.5,-1.2,-1.5,25,987.914,34.914,73.1508,-0.254029,-0.565539,-1.60113,
2026_07_06_19_46_31.775,3.873,30.9,0,0.761,0,0,0,0, ,0,0,0,0,0, ,989.7,34,72.3,-0.7,-1,-1.5,25,988.02,34.9223,73.1385,-0.275111,-0.598108,-1.59497,
2026_07_06_19_46_31.795,3.873,31,0,0.761,0,0,0,0, ,0,0,0,0,0, ,987.6,33.2,73.4,-0.6,-0.7,-1.6,25,988.058,34.8417,73.121,-0.297956,-0.613457,-1.59223,
2026_07_06_19_46_31.815,3.873,30.8,0,0.759,0,0,0,0, ,0,0,0,0,0, ,990.7,29.5,69.4,-0.1,-0.9,-1.6,25,988.125,34.6289,73.0161,-0.301128,-0.624825,-1.5927,
2026_07_06_19_46_31.835,3.873,30.9,0,0.76,0,0,0,0, ,0,0,0,0,0, ,988.6,34.5,72.9,0.1,-0.6,-1.8,25,988.217,34.4687,72.9024,-0.282778,-0.632453,-1.59924,
2026_07_06_19_46_31.861,3.873,30.9,0,0.76,0,0,0,0, ,0,0,0,0,0, ,989.5,35,70.8,0.1,-0.5,-1.8,25,988.268,34.4859,72.8382,-0.259452,-0.627428,-1.61147,
2026_07_06_19_46_31.874,3.873,30.9,0,0.76,0,0,0,0, ,0,0,0,0,0, ,987.5,37.8,75.6,-0.2,-0.9,-1.8,25,988.282,34.6025,72.8603,-0.246689,-0.631851,-1.62296,
2026_07_06_19_46_31.894,3.873,30.9,0,0.759,0,0,0,0, ,0,0,0,0,0, ,987.5,36.4,69.7,-0.4,-0.7,-1.7,25,988.235,34.7547,72.8475,-0.249937,-0.642097,-1.6307,
2026_07_06_19_46_31.914,3.873,30.9,0,0.761,0,0,0,0, ,0,0,0,0,0, ,986.9,37.1,65.3,-0.2,-0.2,-1.5,25,988.172,34.8763,72.5216,-0.252988,-0.630391,-1.62883,
2026_07_06_19_46_31.933,3.873,30.8,0,0.761,0,0,0,0, ,0,0,0,0,0, ,988.6,36.6,72.6,0,0.4,-1.3,25,988.146,34.9966,72.304,-0.243665,-0.585883,-1.61489,
2026_07_06_19_46_31.953,3.873,30.9,0,0.76,0,0,0,0, ,0,0,0,0,0, ,987.6,32.1,78,0,0.4,-1.4,25,988.143,34.9572,72.4865,-0.228817,-0.525806,-1.59875,
2026_07_06_19_46_31.973,3.873,30.9,0,0.76,0,0,0,0, ,0,0,0,0,0, ,987.4,32.1,81.4,-0.1,-0.6,-1.7,25,988.104,34.7831,72.9261,-0.21792,-0.499858,-1.59577,
2026_07_06_19_46_31.993,3.873,30.9,0,0.759,0,0,0,0, ,0,0,0,0,0, ,988.4,31.6,78.1,-0.7,-1.7,-1.8,25,988.092,34.6043,73.3419,-0.229016,-0.539476,-1.60517,
2026_07_06_19_46_32.013,3.873,30.9,0,0.76,0,0,0,0, ,0,0,0,0,0, ,989.5,35.7,68.7,-0.6,-1.7,-1.9,25,988.144,34.5462,73.3455,-0.254669,-0.610196,-1.62009,
2026_07_06_19_46_32.033,3.873,31,0,0.76,0,0,0,0, ,0,0,0,0,0, ,989.9,34.3,64.3,-0.2,-0.7,-1.7,25,988.239,34.5738,72.9283,-0.263526,-0.646137,-1.63106,
2026_07_06_19_46_32.055,3.873,31,0,0.761,0,0,0,0, ,0,0,0,0,0, ,988.7,36.1,67.8,0,0,-1.5,25,988.303,34.612,72.5092,-0.253561,-0.628091,-1.62916,
2026_07_06_19_46_32.072,3.873,30.9,0,0.76,0,0,0,0, ,0,0,0,0,0, ,987.7,36.2,73.1,0,0,-1.6,25,988.297,34.7057,72.3837,-0.238109,-0.589817,-1.62434,
2026_07_06_19_46_32.092,3.873,30.9,0,0.759,0,0,0,0, ,0,0,0,0,0, ,989.7,34.4,72.9,-0.2,0,-1.4,25,988.322,34.7419,72.4213,-0.229693,-0.553875,-1.61676,
2026_07_06_19_46_32.112,3.873,30.8,0,0.759,0,0,0,0, ,0,0,0,0,0, ,987.7,31.3,72.9,0,-0.1,-1.6,25,988.345,34.6266,72.4504,-0.22179,-0.52317,-1.60965,
2026_07_06_19_46_32.132,3.873,30.9,0,0.761,0,0,0,0, ,0,0,0,0,0, ,986.8,33.8,77.3,0.1,-0.5,-1.7,25,988.278,34.5001,72.6119,-0.205228,-0.509571,-1.61211,
2026_07_06_19_46_32.151,3.873,30.8,0,0.762,0,0,0,0, ,0,0,0,0,0, ,986.2,37.3,77.2,-0.4,-1.4,-1.9,25,988.17,34.5641,72.8945,-0.201862,-0.536409,-1.62356,
2026_07_06_19_46_32.172,3.873,30.9,0,0.76,0,0,0,0, ,0,0,0,0,0, ,988.6,37.2,71.6,-0.8,-1.4,-1.7,25,988.123,34.7277,72.9863,-0.226124,-0.589034,-1.63431,
2026_07_06_19_46_32.191,3.873,30.9,0,0.762,0,0,0,0, ,0,0,0,0,0, ,988.4,33.4,66.2,-0.5,-1.1,-1.5,25,988.146,34.7626,72.7373,-0.251954,-0.629312,-1.63222,
2026_07_06_19_46_32.210,3.873,30.9,0,0.761,0,0,0,0, ,0,0,0,0,0, ,988,35.2,70.5,0,-0.3,-1.5,25,988.149,34.7344,72.4699,-0.251835,-0.633619,-1.62416,
2026_07_06_19_46_32.230,3.873,30.8,0,0.759,0,0,0,0, ,0,0,0,0,0, ,988.1,36.3,74.9,-0.2,-0.9,-1.4,25,988.143,34.7963,72.4839,-0.242582,-0.631571,-1.61355,
2026_07_06_19_46_32.250,3.873,31,0,0.76,0,0,0,0, ,0,0,0,0,0, ,988.4,35.2,72.1,-0.5,-0.9,-1.5,25,988.149,34.8544,72.5458,-0.249128,-0.647928,-1.60358,
2026_07_06_19_46_32.270,3.873,30.9,0,0.761,0,0,0,0, ,0,0,0,0,0, ,987.7,32.7,73.8,-0.7,-0.8,-1.5,25,988.143,34.7993,72.5705,-0.270509,-0.660242,-1.59727,
2026_07_06_19_46_32.291,3.873,30.9,0,0.761,0,0,0,0, ,0,0,0,0,0, ,987.4,32.4,72.5,-0.3,-0.6,-1.6,25,988.107,34.6622,72.6058,-0.284494,-0.662665,-1.59439,
2026_07_06_19_46_32.309,3.873,30.8,0,0.761,0,0,0,0, ,0,0,0,0,0, ,987.5,36,73.6,-0.4,-1.2,-1.8,25,988.067,34.6341,72.6329,-0.288486,-0.677127,-1.60082,
2026_07_06_19_46_32.329,3.873,30.9,0,0.759,0,0,0,0, ,0,0,0,0,0, ,988.6,34.6,70.4,-0.4,-1,-1.8,25,988.066,34.6747,72.5943,-0.295281,-0.702896,-1.61296,
2026_07_06_19_46_32.349,3.873,30.8,0,0.761,0,0,0,0, ,0,0,0,0,0, ,988.8,35.1,71.1,-0.3,-0.8,-1.7,25,988.105,34.6853,72.4819,-0.298616,-0.714907,-1.62131,
2026_07_06_19_46_32.369,3.873,30.9,0,0.761,0,0,0,0, ,0,0,0,0,0, ,986.5,34.1,85,-0.5,-1.5,-1.7,25,988.077,34.6801,72.8212,-0.304794,-0.741421,-1.62611,
2026_07_06_19_46_32.388,3.873,30.9,0,0.761,0,0,0,0, ,0,0,0,0,0, ,989.9,31.3,68.2,-0.5,-1.7,-1.6,25,988.085,34.5595,73.0515,-0.316689,-0.79374,-1.62756,
2026_07_06_19_46_32.409,3.873,30.9,0,0.76,0,0,0,0, ,0,0,0,0,0, ,988.7,36.7,71.1,-0.9,-2.1,-1.8,25,988.159,34.5254,72.8442,-0.340047,-0.861153,-1.63198,
2026_07_06_19_46_32.428,3.873,31,0,0.761,0,0,0,0, ,0,0,0,0,0, ,991.3,34.9,60.7,-0.5,-0.9,-1.7,25,988.271,34.6031,72.421,-0.361982,-0.900083,-1.63917,
2026_07_06_19_46_32.448,3.873,30.9,0,0.76,0,0,0,0, ,0,0,0,0,0, ,986.9,33.8,66.1,0,0,-1.7,25,988.321,34.5876,71.8713,-0.355158,-0.872656,-1.64288,
2026_07_06_19_46_32.468,3.873,30.8,0,0.76,0,0,0,0, ,0,0,0,0,0, ,988.8,33.8,69.5,0.3,0.4,-1.6,25,988.293,34.5396,71.6232,-0.324375,-0.807291,-1.64331,
2026_07_06_19_46_32.488,3.873,30.9,0,0.761,0,0,0,0, ,0,0,0,0,0, ,987.3,36.9,76,0,0,-1.6,25,988.278,34.589,71.6919,-0.295468,-0.745909,-1.64067,
2026_07_06_19_46_32.508,3.873,30.8,0,0.761,0,0,0,0, ,0,0,0,0,0, ,987,38,75.4,-0.5,-0.7,-1.6,25,988.209,34.7634,71.9361,-0.292697,-0.721783,-1.63819,
2026_07_06_19_46_32.528,3.873,31,0,0.76,0,0,0,0, ,0,0,0,0,0, ,988.2,33.4,71.5,-0.5,-0.9,-1.6,25,988.172,34.8204,72.0284,-0.305329,-0.72655,-1.63587,
2026_07_06_19_46_32.547,3.873,30.9,0,0.76,0,0,0,0, ,0,0,0,0,0, ,987.5,33.8,69.7,-0.1,-0.9,-1.4,25,988.152,34.7461,71.9413,-0.305005,-0.737119,-1.62759,
2026_07_06_19_46_32.567,3.873,30.9,0,0.761,0,0,0,0, ,0,0,0,0,0, ,988.5,35.6,69.9,0,-0.6,-1.4,25,988.143,34.7433,71.8109,-0.289465,-0.737904,-1.61372,
2026_07_06_19_46_32.587,3.873,30.9,0,0.76,0,0,0,0, ,0,0,0,0,0, ,989.5,37.9,70.8,-0.2,-0.5,-1.6,25,988.195,34.8655,71.7218,-0.27792,-0.726454,-1.60679,
2026_07_06_19_46_32.611,3.873,30.9,0,0.76,0,0,0,0, ,0,0,0,0,0, ,987.4,34.1,75.6,-0.6,-0.5,-1.7,25,988.211,34.9347,71.8119,-0.285359,-0.712654,-1.60942,
2026_07_06_19_46_32.627,3.873,30.9,0,0.759,0,0,0,0, ,0,0,0,0,0, ,986.6,31.3,70.8,-0.7,-1.2,-1.7,25,988.137,34.7985,71.8965,-0.307579,-0.721024,-1.61494,
2026_07_06_19_46_32.646,3.873,30.9,0,0.761,0,0,0,0, ,0,0,0,0,0, ,988.8,33.8,66.1,-0.1,-0.9,-1.6,25,988.11,34.6615,71.6865,-0.313211,-0.741071,-1.61708,
2026_07_06_19_46_32.666,3.873,30.9,0,0.759,0,0,0,0, ,0,0,0,0,0, ,986.9,35.4,67.7,0.2,-0.2,-1.6,25,988.095,34.6577,71.3948,-0.291078,-0.729427,-1.61604,
2026_07_06_19_46_32.686,3.873,31,0,0.761,0,0,0,0, ,0,0,0,0,0, ,987.4,38.2,72.1,0,-0.2,-1.6,25,988.037,34.7883,71.3037,-0.267247,-0.697165,-1.61506,
2026_07_06_19_46_32.706,3.873,30.9,0,0.761,0,0,0,0, ,0,0,0,0,0, ,987.7,36.3,70.1,-0.6,-0.3,-1.6,25,988.007,34.9383,71.2913,-0.269243,-0.669916,-1.61414,
2026_07_06_19_46_32.726,3.873,30.9,0,0.761,0,0,0,0, ,0,0,0,0,0, ,987.4,34.3,69.5,-0.2,-0.1,-1.6,25,987.979,34.9603,71.2004,-0.277211,-0.641281,-1.61328,
2026_07_06_19_46_32.746,3.873,30.9,0,0.761,0,0,0,0, ,0,0,0,0,0, ,988.2,35.2,72.5,-0.1,-0.6,-1.4,25,987.969,34.9475,71.1882,-0.269459,-0.623531,-1.60638,
2026_07_06_19_46_32.766,3.873,30.9,0,0.759,0,0,0,0, ,0,0,0,0,0, ,987.1,36.8,75.8,-0.3,-1,-1.6,25,987.949,35.0117,71.3687,-0.265226,-0.634284,-1.59989,
2026_07_06_19_46_32.789,3.873,30.9,0,0.76,0,0,0,0, ,0,0,0,0,0, ,987.4,33.8,73.7,-0.9,-1.4,-1.6,25,987.907,35.0292,71.5747,-0.285626,-0.668758,-1.5999,
2026_07_06_19_46_32.805,3.873,30.9,0,0.761,0,0,0,0, ,0,0,0,0,0, ,986.6,31.9,74.7,-0.9,-2.2,-1.7,25,987.851,34.8964,71.7347,-0.323065,-0.737693,-1.60295,
2026_07_06_19_46_32.825,3.873,30.9,0,0.76,0,0,0,0, ,0,0,0,0,0, ,990.8,28.6,67.5,-0.1,-2.4,-1.8,25,987.903,34.6133,71.696,-0.333847,-0.832896,-1.61191,
2026_07_06_19_46_32.844,3.873,30.9,0,0.76,0,0,0,0, ,0,0,0,0,0, ,989.1,31.4,64.2,1.5,-2.7,-2.6,25,988.028,34.3322,71.3398,-0.270847,-0.937532,-1.64775,
2026_07_06_19_46_32.864,3.873,30.8,0,0.759,0,0,0,0, ,0,0,0,0,0, ,1007.2,52.4,41,1.2,-1.6,-2.2,25,988.645,34.7933,70.1978,-0.172076,-1.01142,-1.69359,
2026_07_06_19_46_32.884,3.873,30.9,0,0.759,0,0,0,0, ,0,0,0,0,0, ,972.5,35.2,49.8,4,2.5,-1.1,25,988.718,35.3422,68.6867,-0.00315301,-0.922362,-1.69093,
2026_07_06_19_46_32.903,3.873,30.9,0,0.76,0,0,0,0, ,0,0,0,0,0, ,984.8,41.7,95.4,4.6,0.4,-1.8,25,988.104,35.5316,68.9252,0.25907,-0.777796,-1.67625,
2026_07_06_19_46_32.923,3.873,30.9,0,0.761,0,0,0,0, ,0,0,0,0,0, ,993.2,53.5,45.7,3.2,-1.8,-2,25,988.159,36.267,69.0242,0.480939,-0.773055,-1.68989,
2026_07_06_19_46_32.943,3.873,30.9,0,0.76,0,0,0,0, ,0,0,0,0,0, ,1008.3,46.2,97.4,2.4,-1,-1.7,25,988.926,37.0947,69.1781,0.622257,-0.81126,-1.69964,
2026_07_06_19_46_32.963,3.873,31,0,0.761,0,0,0,0, ,0,0,0,0,0, ,984.3,40.8,62.7,0.5,-2.2,-2.7,25,989.376,37.485,69.8406,0.672698,-0.859323,-1.73013,
2026_07_06_19_46_32.986,3.873,30.9,0,0.759,0,0,0,0, ,0,0,0,0,0, ,1009.5,27.2,36.6,4.6,-0.3,-6.5,25,989.834,37.2726,68.6103,0.787096,-0.88313,-1.90502,
2026_07_06_19_46_33.003,3.873,30.9,0,0.76,0,0,0,0, ,0,0,0,0,0, ,996.8,7.3,69.4,8.4,1.2,-9.4,25,990.646,36.0525,67.659,1.13523,-0.801893,-2.27338,
2026_07_06_19_46_33.023,3.873,31,0,0.761,0,0,0,0, ,0,0,0,0,0, ,992.3,63.7,62.8,9,-2.2,-15.7,25,990.884,36.0188,67.564,1.5962,-0.783496,-2.89961,
2026_07_06_19_46_33.043,3.873,31,0,0.76,0,0,0,0, ,0,0,0,0,0, ,1026.2,71.2,67.7,7.1,-2.2,-13.9,25,992.003,37.9342,67.423,1.98948,-0.869814,-3.62479,
2026_07_06_19_46_33.063,3.873,30.9,0,0.759,0,0,0,0, ,0,0,0,0,0, ,1063.7,76.6,47.6,3.7,3.7,-13.5,25,995.229,40.1258,66.8275,2.19731,-0.771107,-4.23875,
2026_07_06_19_46_33.082,3.873,31,0,0.761,0,0,0,0, ,0,0,0,0,0, ,1109.9,93.5,59.4,1.5,13.3,-14.7,25,1000.81,42.8634,66.0153,2.22185,-0.206149,-4.83967,
2026_07_06_19_46_33.102,3.873,30.9,0,0.759,0,0,0,0, ,0,0,0,0,0, ,1147.5,95.5,38.8,1.1,9.2,-7.2,25,1008.6,46.01,64.9845,2.16567,0.49196,-5.21202,
2026_07_06_19_46_33.122,3.873,30.9,0,0.759,0,0,0,0, ,0,0,0,0,0, ,1160.5,72.9,32.8,8.6,0.1,-2.5,25,1017.46,48.3372,63.2061,2.32925,0.745341,-5.18996,
2026_07_06_19_46_33.142,3.873,30.9,0,0.76,0,0,0,0, ,0,0,0,0,0, ,1148.9,108.5,39.5,12.3,-2.3,1.5,25,1025.83,50.9187,61.5574,2.82411,0.63289,-4.90416,
2026_07_06_19_46_33.162,3.873,30.9,0,0.761,0,0,0,0, ,0,0,0,0,0, ,1131.9,98.6,56.3,3.8,6.2,4.1,25,1032.81,54.1259,60.7251,3.14256,0.713152,-4.43469,
2026_07_06_19_46_33.181,3.873,31,0,0.761,0,0,0,0, ,0,0,0,0,0, ,1102.7,92.4,61.7,-3.5,18.1,-2.3,25,1037.96,56.6472,60.62,2.9602,1.41008,-4.10961,
2026_07_06_19_46_33.201,3.873,30.9,0,0.759,0,0,0,0, ,0,0,0,0,0, ,1108,98.2,101.9,-15.7,15.6,-5.2,25,1042.06,59.0026,61.9107,2.19481,2.35095,-4.0877,
2026_07_06_19_46_33.221,3.873,31,0,0.759,0,0,0,0, ,0,0,0,0,0, ,1098.1,74.7,94.2,-13.8,-0.2,-1.6,25,1045.78,60.6751,64.1129,1.16224,2.67691,-4.04579,
2026_07_06_19_46_33.240,3.873,30.9,0,0.76,0,0,0,0, ,0,0,0,0,0, ,1058.7,23.1,59.5,7,-7,1.7,25,1047.77,59.9576,64.8891,0.884229,2.29441,-3.7962,
2026_07_06_19_46_33.260,3.873,30.9,0,0.758,0,0,0,0, ,0,0,0,0,0, ,1051.5,41.3,98.6,9.9,-3,-4,25,1048.21,58.2661,65.752,1.34527,1.84991,-3.63495,
2026_07_06_19_46_33.280,3.873,30.9,0,0.76,0,0,0,0, ,0,0,0,0,0, ,1060.3,44.4,109,9.8,10.1,-2.3,25,1048.68,57.3267,68.0705,1.86353,1.95351,-3.6054,
2026_07_06_19_46_33.300,3.873,30.9,0,0.76,0,0,0,0, ,0,0,0,0,0, ,1020.7,57.1,100.3,8.5,14.9,0.3,25,1048.18,56.9259,70.2996,2.30754,2.59619,-3.44663,
2026_07_06_19_46_33.324,3.873,30.9,0,0.76,0,0,0,0, ,0,0,0,0,0, ,978,69,99.6,7.2,11.3,-2.6,25,1045.21,57.2991,72.1064,2.64529,3.23626,-3.30668,
2026_07_06_19_46_33.339,3.873,30.9,0,0.759,0,0,0,0, ,0,0,0,0,0, ,985.5,67.8,107.4,3.1,11.7,-7.2,25,1041.34,57.9756,74.0195,2.79792,3.73983,-3.40377,
2026_07_06_19_46_33.359,3.873,31,0,0.759,0,0,0,0, ,0,0,0,0,0, ,1007.8,54.5,114.5,-2,16.2,-5.4,25,1038.62,58.169,76.2699,2.66094,4.36201,-3.58026,
2026_07_06_19_46_33.379,3.873,31,0,0.76,0,0,0,0, ,0,0,0,0,0, ,976.9,45.7,126.4,-14.8,14.5,-0.8,25,1035.8,57.6773,78.9621,1.98691,5.0316,-3.551,
2026_07_06_19_46_33.398,3.873,31,0,0.76,0,0,0,0, ,0,0,0,0,0, ,960.5,31.3,138.9,-12.2,8.7,0.5,25,1031.71,56.5087,82.2338,1.04318,5.43186,-3.34375,
2026_07_06_19_46_33.418,3.873,31,0,0.76,0,0,0,0, ,0,0,0,0,0, ,958.6,48.8,115.3,-3.5,0.2,-1.4,25,1027.31,55.5057,84.9678,0.501249,5.37203,-3.16741,
2026_07_06_19_46_33.438,3.873,31,0,0.762,0,0,0,0, ,0,0,0,0,0, ,968.9,66.5,119.8,2.8,-9,-2.9,25,1023.44,55.6364,86.9533,0.449376,4.77654,-3.10541,
2026_07_06_19_46_33.458,3.873,30.9,0,0.76,0,0,0,0, ,0,0,0,0,0, ,989.1,72.9,158.8,2.2,-12.7,-3.6,25,1020.73,56.4934,90.1431,0.574336,3.8243,-3.11422,
2026_07_06_19_46_33.478,3.873,31,0,0.761,0,0,0,0, ,0,0,0,0,0, ,1019.7,73.4,159,-1,-8,-1.1,25,1019.74,57.5084,94.333,0.5759,2.96055,-3.06765,
2026_07_06_19_46_33.497,3.873,30.9,0,0.761,0,0,0,0, ,0,0,0,0,0, ,1048.5,58.2,140,-3.7,-3.6,4.5,25,1020.61,58.0137,97.6948,0.397603,2.42671,-2.77712,
2026_07_06_19_46_33.517,3.873,30.9,0,0.76,0,0,0,0, ,0,0,0,0,0, ,1051.7,45.4,127.5,-1.2,-3.1,8.1,25,1022.41,57.635,99.8919,0.224077,2.07469,-2.22399,
2026_07_06_19_46_33.537,3.873,31,0,0.759,0,0,0,0, ,0,0,0,0,0, ,1015.9,45.1,144.8,0.7,2.5,11.9,25,1023.1,56.8803,102.101,0.195188,1.92998,-1.47909,
2026_07_06_19_46_33.561,3.873,30.9,0,0.761,0,0,0,0, ,0,0,0,0,0, ,976.1,44.1,128.1,0,8,9,25,1021.45,56.132,104.194,0.204622,2.1323,-0.752159,
2026_07_06_19_46_33.576,3.873,31,0,0.761,0,0,0,0, ,0,0,0,0,0, ,976.5,43.4,100.4,1.4,2.9,5.8,25,1018.7,55.3775,104.807,0.234809,2.33447,-0.255387,
2026_07_06_19_46_33.596,3.873,31,0,0.76,0,0,0,0, ,0,0,0,0,0, ,1091.5,135.6,52.1,19.8,-9.8,-8.1,25,1019.63,57.4568,103.067,0.866438,1.98198,-0.309902,
2026_07_06_19_46_33.616,3.873,30.9,0,0.76,0,0,0,0, ,0,0,0,0,0, ,930,81,88,-0.4,-11.4,-0.3,25,1019.09,60.5551,101.055,1.40473,1.21526,-0.546955,
2026_07_06_19_46_33.636,3.873,30.9,0,0.76,0,0,0,0, ,0,0,0,0,0, ,1008.5,42.2,100.7,6.2,-13,-12.8,25,1016.05,60.6187,100.646,1.49585,0.397771,-0.912766,
2026_07_06_19_46_33.656,3.873,31.1,0,0.759,0,0,0,0, ,0,0,0,0,0, ,1064.5,34.7,135.2,3.9,-24.1,-8.7,25,1017.3,59.2678,101.701,1.71243,-0.756859,-1.51222,
2026_07_06_19_46_33.676,3.873,30.9,0,0.76,0,0,0,0, ,0,0,0,0,0, ,1103.7,49.8,109.2,-1.1,-17.1,1,25,1021.37,58.2308,102.95,1.69339,-1.96605,-1.65468,
2026_07_06_19_46_33.696,3.873,31,0,0.759,0,0,0,0, ,0,0,0,0,0, ,1083.7,62.5,91.6,1.9,-2.8,5.7,25,1025.78,58.104,102.795,1.61458,-2.45257,-1.34971,
2026_07_06_19_46_33.716,3.873,30.9,0,0.761,0,0,0,0, ,0,0,0,0,0, ,1074.9,63.9,116.2,1.4,-3.5,6.7,25,1029.04,58.4145,102.862,1.61674,-2.49507,-0.889647,
2026_07_06_19_46_33.735,3.873,30.9,0,0.76,0,0,0,0, ,0,0,0,0,0, ,1081.9,62.8,127.1,0.5,-4.8,8.3,25,1032.05,58.7153,104.007,1.57611,-2.59592,-0.378403,
2026_07_06_19_46_33.755,3.873,30.9,0,0.759,0,0,0,0, ,0,0,0,0,0, ,1079.4,59,105.7,-4.7,-6.2,14.9,25,1035.01,58.8484,104.762,1.35209,-2.77289,0.351531,
2026_07_06_19_46_33.775,3.873,30.9,0,0.76,0,0,0,0, ,0,0,0,0,0, ,1040.4,59.3,96.6,3,4.7,12.1,25,1036.53,58.8668,104.542,1.2179,-2.64962,1.15277,
2026_07_06_19_46_33.795,3.873,31,0,0.76,0,0,0,0, ,0,0,0,0,0, ,1023.6,63.4,127.4,-1.7,0.7,9.6,25,1036.25,59.0181,104.996,1.1833,-2.32362,1.74369,
2026_07_06_19_46_33.814,3.873,30.9,0,0.761,0,0,0,0, ,0,0,0,0,0, ,1046.7,54.4,99.6,-3,0,7.6,25,1036.18,59.0109,105.515,0.967987,-2.1607,2.1615,
2026_07_06_19_46_33.834,3.873,30.9,0,0.76,0,0,0,0, ,0,0,0,0,0, ,1044.5,40.1,100.8,-2.2,3.9,8.6,25,1036.76,58.2942,105.191,0.750562,-1.9102,2.52337,
2026_07_06_19_46_33.854,3.873,30.9,0,0.759,0,0,0,0, ,0,0,0,0,0, ,1037.4,29,83.7,4.5,-1.4,7.2,25,1037.01,56.8473,104.402,0.774903,-1.71763,2.85101,
2026_07_06_19_46_33.874,3.873,31,0,0.759,0,0,0,0, ,0,0,0,0,0, ,1044.4,41.5,94.1,3.5,-13.7,8.9,25,1037.25,55.5312,103.458,0.971432,-2.07304,3.16783,
2026_07_06_19_46_33.893,3.873,30.9,0,0.759,0,0,0,0, ,0,0,0,0,0, ,1055.5,31.7,121.8,2.1,-18.1,11,25,1038.02,54.3776,103.731,1.08286,-2.91562,3.58111,
2026_07_06_19_46_33.913,3.873,31,0,0.761,0,0,0,0, ,0,0,0,0,0, ,1049.3,23,144.6,-1.9,-9.1,15.6,25,1038.9,52.7306,105.527,1.02297,-3.5667,4.17336,
2026_07_06_19_46_33.933,3.873,30.8,0,0.76,0,0,0,0, ,0,0,0,0,0, ,990.7,0.9,117.3,-7.6,-4.1,16,25,1037.75,50.2456,107.076,0.671177,-3.75154,4.88186,
2026_07_06_19_46_33.953,3.873,30.9,0,0.761,0,0,0,0, ,0,0,0,0,0, ,960.4,-25.6,47.9,-8.3,-3,11,25,1033.96,46.4311,105.585,0.145825,-3.73926,5.40703,
2026_07_06_19_46_33.979,3.873,31,0,0.76,0,0,0,0, ,0,0,0,0,0, ,977.6,-26.3,18.7,-2.4,-1.3,6,25,1030,42.0204,101.18,-0.189077,-3.64241,5.5955,
2026_07_06_19_46_33.997,3.873,30.9,0,0.76,0,0,0,0, ,0,0,0,0,0, ,989.6,-5.2,39.5,-0.9,-5.4,7.5,25,1027.17,38.5,96.7875,-0.278102,-3.6246,5.66586,
2026_07_06_19_46_34.012,3.873,31,0,0.761,0,0,0,0, ,0,0,0,0,0, ,998.2,-30.3,30,7,-12.1,8.5,25,1025.14,35.0723,93.0071,-0.075296,-3.93692,5.80809,
2026_07_06_19_46_34.032,3.873,31,0,0.76,0,0,0,0, ,0,0,0,0,0, ,968.3,-19.8,29.2,13.8,-18.4,11.4,25,1022.59,31.4086,89.1432,0.563042,-4.62632,6.06049,
2026_07_06_19_46_34.052,3.873,31,0,0.761,0,0,0,0, ,0,0,0,0,0, ,904.4,-19.4,36.9,18.1,-21,16.9,25,1017.34,28.3003,85.7251,1.50068,-5.54487,6.55344,
2026_07_06_19_46_34.071,3.873,31,0,0.76,0,0,0,0, ,0,0,0,0,0, ,943.3,-7.5,109.9,-19.8,-31,15.2,25,1011.64,25.7561,84.974,1.35744,-6.79135,7.13214,
2026_07_06_19_46_34.092,3.873,30.9,0,0.76,0,0,0,0, ,0,0,0,0,0, ,935.5,-63.1,11.1,-0.2,-33.3,18.8,25,1007.24,22.0355,83.4826,0.665346,-8.33664,7.73346,
2026_07_06_19_46_34.112,3.873,31,0,0.759,0,0,0,0, ,0,0,0,0,0, ,895.3,-39.3,6.7,2.9,-28,21.5,25,1001.64,17.5727,78.9377,0.707067,-9.69636,8.4901,
2026_07_06_19_46_34.131,3.873,30.9,0,0.759,0,0,0,0, ,0,0,0,0,0, ,848.9,-68.7,-22.2,8.9,-20.7,12.1,25,993.747,13.2112,73.6552,1.02351,-10.5893,8.99648,
2026_07_06_19_46_34.151,3.873,30.9,0,0.76,0,0,0,0, ,0,0,0,0,0, ,814.6,-59.8,15.8,20.8,-10.7,6.5,25,983.875,8.49095,68.9718,1.86606,-10.9008,9.01498,
2026_07_06_19_46_34.171,3.873,30.9,0,0.761,0,0,0,0, ,0,0,0,0,0, ,853.6,-128.7,-10.7,21.5,-16.5,-2.5,25,974.748,2.23018,64.9243,3.04118,-11.0652,8.5875,
2026_07_06_19_46_34.191,3.873,30.9,0,0.76,0,0,0,0, ,0,0,0,0,0, ,771.1,30,47.8,43.4,-6.6,13.4,25,964.852,-0.91299,62.0983,4.83328,-11.0948,8.39631,
2026_07_06_19_46_34.210,3.873,30.9,0,0.76,0,0,0,0, ,0,0,0,0,0, ,798,-55.9,64.6,34.9,-7.3,-7.6,25,953.865,-1.6465,61.7389,6.92445,-10.8422,8.06138,
2026_07_06_19_46_34.230,3.873,31,0,0.758,0,0,0,0, ,0,0,0,0,0, ,794.1,-96,17.8,-61.4,-34.5,10.8,25,944.248,-6.17436,60.4873,5.69507,-11.4551,7.66764,
2026_07_06_19_46_34.249,3.873,31,0,0.759,0,0,0,0, ,0,0,0,0,0, ,817.6,-97.5,-62.7,1.1,-18.3,-16.1,25,935.814,-11.6938,55.4333,3.51076,-12.3658,7.03891,
2026_07_06_19_46_34.269,3.873,30.9,0,0.76,0,0,0,0, ,0,0,0,0,0, ,874.6,-69,14.4,-2.2,-22.1,-22.6,25,930.347,-16.0543,50.5837,3.26331,-12.8432,5.43083,
2026_07_06_19_46_34.289,3.873,30.9,0,0.76,0,0,0,0, ,0,0,0,0,0, ,897.5,-86.6,-20.1,-4.8,-2,-19.5,25,927.648,-19.8169,47.3276,2.85117,-12.7949,3.81716,
2026_07_06_19_46_34.309,3.873,31.1,0,0.76,0,0,0,0, ,0,0,0,0,0, ,908.3,-71.1,-26.1,-3.7,25.1,-21.6,25,926.14,-23.4142,43.0359,2.41844,-11.3114,2.33228,
2026_07_06_19_46_34.328,3.873,30.9,0,0.76,0,0,0,0, ,0,0,0,0,0, ,949.3,-63.5,-95.2,-6.2,21.4,-19.5,25,926.302,-26.0885,36.7176,1.96943,-9.20527,0.937895,
2026_07_06_19_46_34.348,3.873,31,0,0.759,0,0,0,0, ,0,0,0,0,0, ,994,-54.8,-107.9,6,5.3,-15.2,25,929.065,-28.1032,28.2919,1.84332,-7.83081,-0.176523,
2026_07_06_19_46_34.368,3.873,31,0,0.759,0,0,0,0, ,0,0,0,0,0, ,1016.8,-66.8,-55.6,15.5,-10.9,-5.8,25,933.717,-30.0957,21.5862,2.38607,-7.52424,-0.80561,
2026_07_06_19_46_34.388,3.873,31,0,0.761,0,0,0,0, ,0,0,0,0,0, ,1005.6,-57,-38.4,16,-15.2,0.1,25,938.439,-32.0337,17.4067,3.20044,-7.86097,-0.93019,
2026_07_06_19_46_34.408,3.873,30.9,0,0.76,0,0,0,0, ,0,0,0,0,0, ,960.6,-40.7,-39.1,19.6,-11.1,3.7,25,941.16,-33.0585,13.9847,4.0901,-8.18327,-0.757726,
2026_07_06_19_46_34.428,3.873,30.9,0,0.761,0,0,0,0, ,0,0,0,0,0, ,957,-21.3,1,16.5,-4.9,3.8,25,942.235,-32.933,11.9716,4.94078,-8.1721,-0.483036,
2026_07_06_19_46_34.448,3.873,31,0,0.76,0,0,0,0, ,0,0,0,0,0, ,974.6,-43.8,9.2,10.1,2.5,7.6,25,943.671,-32.9097,11.5529,5.45017,-7.74724,-0.106257,
2026_07_06_19_46_34.468,3.873,30.9,0,0.76,0,0,0,0, ,0,0,0,0,0, ,974.3,-48.4,2.5,9.2,7.5,10.1,25,945.547,-33.7135,11.2054,5.7061,-6.97045,0.439515,
2026_07_06_19_46_34.487,3.873,30.9,0,0.761,0,0,0,0, ,0,0,0,0,0, ,974.8,-51.3,-11.9,9.1,4.9,11,25,947.314,-34.6968,10.2361,5.91596,-6.16788,1.05562,
2026_07_06_19_46_34.507,3.873,31,0,0.761,0,0,0,0, ,0,0,0,0,0, ,971.4,-60,-0.3,9.4,1.5,14.1,25,948.885,-35.9736,9.24065,6.11913,-5.59702,1.75606,
2026_07_06_19_46_34.527,3.873,30.9,0,0.759,0,0,0,0, ,0,0,0,0,0, ,960.9,-76.7,9.6,4.3,1.3,18.2,25,949.938,-37.9466,8.96091,6.16367,-5.17064,2.63319,
2026_07_06_19_46_34.546,3.873,31,0,0.759,0,0,0,0, ,0,0,0,0,0, ,908.4,-91.6,13.3,1.6,3,20.9,25,949.006,-40.7621,9.11259,5.96783,-4.72454,3.66406,
2026_07_06_19_46_34.566,3.873,31.1,0,0.76,0,0,0,0, ,0,0,0,0,0, ,863.5,-105.2,-15.7,2.4,0.4,16.3,25,945.163,-44.2744,8.48417,5.72604,-4.33305,4.57422,
2026_07_06_19_46_34.587,3.873,30.9,0,0.76,0,0,0,0, ,0,0,0,0,0, ,836.4,-89.2,-3.6,7.6,5.1,9.5,25,939.361,-47.4996,7.37911,5.6818,-3.90142,5.08157,
2026_07_06_19_46_34.606,3.873,30.9,0,0.761,0,0,0,0, ,0,0,0,0,0, ,864.9,-77.1,13.3,7,0.1,-0.4,25,933.956,-49.672,7.225,5.78041,-3.50524,5.04918,
2026_07_06_19_46_34.631,3.873,30.9,0,0.759,0,0,0,0, ,0,0,0,0,0, ,934.3,-88.5,-3.6,6.4,-1.7,-4.7,25,931.862,-51.6907,7.08027,5.83645,-3.34039,4.5861,
2026_07_06_19_46_34.645,3.873,30.9,0,0.76,0,0,0,0, ,0,0,0,0,0, ,971.1,-86.7,-5.7,7.4,-0.2,-3.5,25,933.132,-53.879,6.36546,5.90126,-3.19473,4.05679,
2026_07_06_19_46_34.665,3.873,30.8,0,0.76,0,0,0,0, ,0,0,0,0,0, ,980.4,-68.1,4.2,7,-2.6,-3.1,25,935.729,-55.3123,5.93186,5.9804,-3.08536,3.60849,
2026_07_06_19_46_34.685,3.873,31,0,0.759,0,0,0,0, ,0,0,0,0,0, ,1018.3,-47.9,17.5,7.5,-0.1,-3.8,25,939.606,-55.4761,6.23156,6.05777,-2.97961,3.17836,
2026_07_06_19_46_34.705,3.873,30.8,0,0.76,0,0,0,0, ,0,0,0,0,0, ,1025.2,-41.8,12.4,6.7,4.8,-1.4,25,944.611,-54.8285,6.76284,6.12128,-2.65484,2.82624,
2026_07_06_19_46_34.725,3.873,30.9,0,0.761,0,0,0,0, ,0,0,0,0,0, ,1010.8,-42.8,14.5,5.9,8.8,0.5,25,949.084,-54.0651,7.17034,6.13217,-2.07869,2.6266,
2026_07_06_19_46_34.745,3.873,31,0,0.759,0,0,0,0, ,0,0,0,0,0, ,1005.3,-37.5,18.9,2.9,4.7,2.3,25,952.677,-53.2171,7.75105,6.02661,-1.54069,2.55185,
2026_07_06_19_46_34.764,3.873,30.9,0,0.759,0,0,0,0, ,0,0,0,0,0, ,1002.3,-41,9.5,3.1,-1.3,0.3,25,955.792,-52.366,8.14403,5.84218,-1.34321,2.47557,
2026_07_06_19_46_34.784,3.873,30.9,0,0.759,0,0,0,0, ,0,0,0,0,0, ,1022.7,-47.2,4.1,6,-3.1,-0.8,25,959.248,-51.8623,8.06213,5.76344,-1.39542,2.30948,
2026_07_06_19_46_34.804,3.873,30.9,0,0.761,0,0,0,0, ,0,0,0,0,0, ,1018.6,-57.4,19.6,7.5,1.4,0.4,25,962.989,-51.889,8.29295,5.82356,-1.36218,2.15656,
2026_07_06_19_46_34.824,3.873,30.9,0,0.76,0,0,0,0, ,0,0,0,0,0, ,985.4,-54.9,8.3,3,0.4,1.4,25,965.367,-52.1486,8.63768,5.7886,-1.22433,2.07999,
2026_07_06_19_46_34.846,3.873,30.9,0,0.761,0,0,0,0, ,0,0,0,0,0, ,983.1,-46.3,-0.2,5.3,-2.1,-1.9,25,966.517,-52.0543,8.35812,5.68875,-1.20152,1.938,
2026_07_06_19_46_34.865,3.873,30.9,0,0.759,0,0,0,0, ,0,0,0,0,0, ,1023,-56,24.2,5.3,-2,-1.3,25,968.744,-51.9992,8.58005,5.66506,-1.25322,1.7224,
2026_07_06_19_46_34.883,3.873,31,0,0.759,0,0,0,0, ,0,0,0,0,0, ,1000.7,-74.4,28.3,2.4,4.3,4.2,25,971.37,-52.8036,9.65681,5.55446,-1.10678,1.7058,
2026_07_06_19_46_34.903,3.873,31,0,0.761,0,0,0,0, ,0,0,0,0,0, ,963.6,-64.5,0,-0.1,4.9,4,25,972.027,-53.818,9.93061,5.28606,-0.759021,1.8517,
2026_07_06_19_46_34.922,3.873,31,0,0.758,0,0,0,0, ,0,0,0,0,0, ,958,-65.1,-7,6.6,1.1,-1.7,25,971.343,-54.4872,9.11218,5.16199,-0.529956,1.80894,
2026_07_06_19_46_34.943,3.873,30.9,0,0.76,0,0,0,0, ,0,0,0,0,0, ,997,-80.2,10,7.1,-2.8,-3,25,971.718,-55.594,8.64832,5.26485,-0.549458,1.55551,
2026_07_06_19_46_34.962,3.873,30.9,0,0.76,0,0,0,0, ,0,0,0,0,0, ,1059.8,-88.7,-27.9,10.9,-2.4,-5.7,25,975.172,-57.3524,7.57592,5.49246,-0.674413,1.19564,
2026_07_06_19_46_34.983,3.873,30.9,0,0.759,0,0,0,0, ,0,0,0,0,0, ,1053.1,-75,2.1,15.2,0.7,-0.5,25,980.125,-58.8452,6.32817,5.953,-0.685113,0.933874,
2026_07_06_19_46_35.002,3.873,31,0,0.76,0,0,0,0, ,0,0,0,0,0, ,1033.5,-68.4,12.3,15.3,-5.2,3.6,25,983.975,-59.6286,6.3813,6.51954,-0.780473,0.971419,
2026_07_06_19_46_35.022,3.873,30.8,0,0.76,0,0,0,0, ,0,0,0,0,0, ,1007,-73.2,38.2,14.2,-6.1,7.1,25,986.185,-60.3093,7.53111,7.02108,-1.07721,1.23824,
2026_07_06_19_46_35.041,3.873,30.9,0,0.759,0,0,0,0, ,0,0,0,0,0, ,966.1,-51.2,32.2,11.2,-7.3,3.4,25,986.208,-60.4245,9.21718,7.36714,-1.41985,1.48271,
2026_07_06_19_46_35.062,3.873,30.9,0,0.76,0,0,0,0, ,0,0,0,0,0, ,981.8,-77.3,59,4.6,-9.2,1,25,985.461,-60.6576,11.4343,7.39961,-1.83606,1.52642,
2026_07_06_19_46_35.081,3.873,30.9,0,0.762,0,0,0,0, ,0,0,0,0,0, ,972.5,-86.6,64.4,2.9,-7.2,2.5,25,984.954,-61.9551,14.4973,7.17721,-2.22386,1.54004,
2026_07_06_19_46_35.100,3.873,30.9,0,0.76,0,0,0,0, ,0,0,0,0,0, ,962.6,-91,53.8,1.1,-4.5,0.9,25,983.894,-63.591,17.2153,6.86173,-2.44483,1.54979,
2026_07_06_19_46_35.120,3.873,30.9,0,0.759,0,0,0,0, ,0,0,0,0,0, ,984.1,-90.9,24.7,1.4,-2.2,-2.6,25,983.251,-65.2582,18.558,6.51976,-2.49999,1.40355,
2026_07_06_19_46_35.140,3.873,30.9,0,0.761,0,0,0,0, ,0,0,0,0,0, ,1036.8,-99.7,0.4,2.6,-3,-2.3,25,984.909,-67.0889,18.1919,6.24434,-2.50608,1.16872,
2026_07_06_19_46_35.160,3.873,30.9,0,0.76,0,0,0,0, ,0,0,0,0,0, ,1039.1,-100,8.4,5,-2.1,2.7,25,988.141,-69.0852,17.3515,6.09539,-2.50876,1.10969,
2026_07_06_19_46_35.179,3.873,30.9,0,0.76,0,0,0,0, ,0,0,0,0,0, ,998.4,-91.5,24.2,3.2,-2.4,5.7,25,990.006,-70.7101,17.2874,5.97379,-2.49299,1.29801,
2026_07_06_19_46_35.200,3.873,30.9,0,0.76,0,0,0,0, ,0,0,0,0,0, ,978.1,-123,-7.3,2.7,-0.1,0.9,25,989.899,-72.9368,16.7489,5.78953,-2.41725,1.42001,
2026_07_06_19_46_35.220,3.873,30.9,0,0.761,0,0,0,0, ,0,0,0,0,0, ,981.9,-124.3,5.3,-0.9,1.2,2.3,25,989.296,-76.0271,15.6673,5.49157,-2.23643,1.43097,
2026_07_06_19_46_35.239,3.873,30.9,0,0.76,0,0,0,0, ,0,0,0,0,0, ,977,-122.6,-17.2,1.2,-2.7,0.5,25,988.696,-78.9169,14.35,5.16607,-2.14585,1.42909,
2026_07_06_19_46_35.259,3.873,30.9,0,0.76,0,0,0,0, ,0,0,0,0,0, ,974.6,-123.7,-5,4.5,-4,-0.3,25,987.91,-81.6124,12.7991,5.02494,-2.21923,1.34809,
2026_07_06_19_46_35.279,3.873,30.9,0,0.759,0,0,0,0, ,0,0,0,0,0, ,963.8,-115.6,11.9,6.2,-6.9,-0.7,25,986.77,-83.9303,12.2294,5.04475,-2.4161,1.23548,
2026_07_06_19_46_35.299,3.873,31,0,0.761,0,0,0,0, ,0,0,0,0,0, ,973.9,-125.1,17.7,4.2,-3.5,-1.9,25,985.678,-86.1496,12.3861,5.05421,-2.58575,1.08097,
2026_07_06_19_46_35.319,3.873,30.9,0,0.761,0,0,0,0, ,0,0,0,0,0, ,978.5,-126.9,6.9,1.8,2.9,-2,25,985.1,-88.578,12.3808,4.92903,-2.44646,0.896271,
2026_07_06_19_46_35.339,3.873,30.9,0,0.76,0,0,0,0, ,0,0,0,0,0, ,976.3,-109.8,2.4,0.3,3.3,-2.3,25,984.631,-90.3923,11.9097,4.69265,-2.10847,0.710639,
2026_07_06_19_46_35.359,3.873,31,0,0.759,0,0,0,0, ,0,0,0,0,0, ,980.4,-109.7,-9.6,1,-0.3,-1.4,25,984.248,-91.5719,10.9646,4.4463,-1.88858,0.5546,
2026_07_06_19_46_35.378,3.873,31,0,0.76,0,0,0,0, ,0,0,0,0,0, ,974.8,-111.9,-1.7,1.2,2.3,0.9,25,983.843,-92.7436,9.95215,4.24239,-1.71256,0.50557,
2026_07_06_19_46_35.398,3.873,31,0,0.76,0,0,0,0, ,0,0,0,0,0, ,949,-119.1,7.2,-0.6,3.2,0.8,25,982.506,-94.1303,9.51327,4.00215,-1.44062,0.526559,
2026_07_06_19_46_35.418,3.873,31,0,0.759,0,0,0,0, ,0,0,0,0,0, ,949.7,-121,-6.7,-0.9,2.6,-0.7,25,980.486,-95.7098,8.94879,3.71256,-1.17611,0.497518,
2026_07_06_19_46_35.437,3.873,30.8,0,0.759,0,0,0,0, ,0,0,0,0,0, ,952.2,-112.1,-11.2,0.5,1.8,-2.4,25,978.686,-96.9797,7.85808,3.47414,-0.970383,0.372748,
2026_07_06_19_46_35.457,3.873,31,0,0.759,0,0,0,0, ,0,0,0,0,0, ,954.1,-115.3,7.8,0.1,-1.2,-3,25,977.13,-97.9986,7.27564,3.28072,-0.892969,0.185502,
2026_07_06_19_46_35.477,3.873,31,0,0.76,0,0,0,0, ,0,0,0,0,0, ,971.9,-131.4,7.4,-1.8,-2.6,-2.1,25,976.269,-99.5435,7.2954,3.029,-0.954335,0.0188075,
2026_07_06_19_46_35.497,3.873,31,0,0.759,0,0,0,0, ,0,0,0,0,0, ,977.2,-124.6,0.1,0,-2.7,-1.1,25,976.164,-101.278,7.07936,2.78958,-1.05766,-0.0798386,
2026_07_06_19_46_35.517,3.873,31,0,0.76,0,0,0,0, ,0,0,0,0,0, ,964.5,-108.3,5.8,0,-3.5,-1,25,975.84,-102.202,6.82772,2.61959,-1.18212,-0.138958,
2026_07_06_19_46_35.537,3.873,31,0,0.76,0,0,0,0, ,0,0,0,0,0, ,965,-101.5,15.3,-1.6,-2.5,-2.1,25,975.164,-102.367,7.05455,2.41121,-1.2929,-0.224943,
2026_07_06_19_46_35.556,3.873,30.9,0,0.761,0,0,0,0, ,0,0,0,0,0, ,971,-105.3,-1.8,-3.1,2.4,-2.1,25,974.728,-102.429,7.03599,2.12107,-1.21716,-0.339204,
2026_07_06_19_46_35.579,3.873,31,0,0.76,0,0,0,0, ,0,0,0,0,0, ,966.5,-109.7,-5.4,-2.1,4.5,-2.5,25,974.363,-102.738,6.38786,1.83338,-0.932752,-0.45869,
2026_07_06_19_46_35.596,3.873,30.9,0,0.76,0,0,0,0, ,0,0,0,0,0, ,967.8,-125.3,-20.5,-1.5,2.5,-2.7,25,973.924,-103.638,5.20946,1.61197,-0.662632,-0.589176,
2026_07_06_19_46_35.618,3.873,30.9,0,0.759,0,0,0,0, ,0,0,0,0,0, ,964.3,-119.6,-18,0,0.1,-1.6,25,973.444,-104.784,3.71896,1.46804,-0.543034,-0.684289,
2026_07_06_19_46_35.635,3.873,31,0,0.759,0,0,0,0, ,0,0,0,0,0, ,959.1,-91.5,3.2,0.8,-3.3,-3.2,25,972.728,-104.831,3.0414,1.40296,-0.607443,-0.78884,
2026_07_06_19_46_35.656,3.873,31,0,0.761,0,0,0,0, ,0,0,0,0,0, ,966,-96.5,23.6,0.2,-2.1,-5.2,25,972.108,-104.171,3.67263,1.34793,-0.734958,-0.996708,
2026_07_06_19_46_35.675,3.873,30.9,0,0.761,0,0,0,0, ,0,0,0,0,0, ,982.7,-104.1,19.6,-3.1,1.3,-5,25,972.245,-103.935,4.76508,1.17743,-0.714546,-1.24675,
2026_07_06_19_46_35.697,3.873,31,0,0.759,0,0,0,0, ,0,0,0,0,0, ,999,-104.9,-3.1,-4.9,1.5,-3.4,25,973.379,-103.97,4.97744,0.861933,-0.585691,-1.42672,
2026_07_06_19_46_35.715,3.873,31,0,0.759,0,0,0,0, ,0,0,0,0,0, ,1004.5,-103.1,-13.1,-3.5,0.2,-0.5,25,975.107,-103.971,4.18053,0.553471,-0.498204,-1.4586,
2026_07_06_19_46_35.737,3.873,30.9,0,0.76,0,0,0,0, ,0,0,0,0,0, ,985.3,-99.7,-7.8,-2.6,-0.8,0.8,25,976.314,-103.815,3.28898,0.333885,-0.486126,-1.36058,
2026_07_06_19_46_35.754,3.873,31,0,0.76,0,0,0,0, ,0,0,0,0,0, ,977,-103.8,-9.5,-2.3,-1,0.7,25,976.608,-103.689,2.56145,0.164242,-0.511346,-1.23197,
2026_07_06_19_46_35.775,3.873,30.9,0,0.759,0,0,0,0, ,0,0,0,0,0, ,958.1,-106.8,-10.9,0,-2.5,-0.7,25,976.056,-103.787,1.7838,0.084155,-0.586827,-1.15689,
2026_07_06_19_46_35.794,3.873,31,0,0.76,0,0,0,0, ,0,0,0,0,0, ,953,-101.4,4.7,0.5,-4.3,-3.4,25,974.807,-103.806,1.4862,0.0942612,-0.758254,-1.21132,
2026_07_06_19_46_35.823,3.873,31,0,0.761,0,0,0,0, ,0,0,0,0,0, ,966.1,-98.7,25,-1,-3.8,-5.2,25,973.877,-103.577,2.30055,0.0732828,-0.958845,-1.39953,
2026_07_06_19_46_35.836,3.873,31,0,0.761,0,0,0,0, ,0,0,0,0,0, ,997.8,-104.4,10.9,-3.6,-0.7,-5.3,25,974.369,-103.454,3.25419,-0.0713391,-1.03752,-1.63417,
2026_07_06_19_46_35.868,3.873,31,0,0.759,0,0,0,0, ,0,0,0,0,0, ,1007.9,-108.8,-12.8,-3.9,0.8,-3.2,25,976.104,-103.645,2.998,-0.295507,-0.971254,-1.79357,
2026_07_06_19_46_35.874,3.873,30.9,0,0.759,0,0,0,0, ,0,0,0,0,0, ,986.2,-106.2,-21.9,-1.9,-0.5,-0.6,25,977.381,-103.88,1.75804,-0.454219,-0.902927,-1.80006,
2026_07_06_19_46_35.895,3.873,31,0,0.759,0,0,0,0, ,0,0,0,0,0, ,969.4,-94.1,-13.9,-0.5,-1.4,-2.4,25,977.406,-103.653,0.56013,-0.499665,-0.905796,-1.78177,
2026_07_06_19_46_35.912,3.873,31,0,0.758,0,0,0,0, ,0,0,0,0,0, ,979.3,-102.4,-15.2,0.4,-2,-4.6,25,977.22,-103.324,-0.360644,-0.472263,-0.954193,-1.88648,
2026_07_06_19_46_35.935,3.873,31,0,0.761,0,0,0,0, ,0,0,0,0,0, ,986.5,-100.8,1,2.1,-3.3,-5.5,25,977.566,-103.219,-0.771323,-0.367313,-1.05753,-2.07926,
2026_07_06_19_46_35.952,3.873,31,0,0.76,0,0,0,0, ,0,0,0,0,0, ,1000.6,-98.2,13.4,0.2,-3.5,-4.3,25,978.54,-102.992,-0.285571,-0.274852,-1.20028,-2.25114,
2026_07_06_19_46_35.975,3.873,31,0,0.759,0,0,0,0, ,0,0,0,0,0, ,1012.6,-102.5,0.6,-0.9,-0.8,-2.4,25,980.25,-102.831,0.158394,-0.279431,-1.25815,-2.31811,
2026_07_06_19_46_35.991,3.873,31.1,0,0.76,0,0,0,0, ,0,0,0,0,0, ,1000.1,-102.9,3.7,-0.1,-0.7,-0.2,25,981.841,-102.823,0.279757,-0.292872,-1.22718,-2.25606,
2026_07_06_19_46_36.015,3.873,31,0,0.759,0,0,0,0, ,0,0,0,0,0, ,968.1,-96.5,15,-0.1,-0.8,-0.1,25,981.978,-102.633,0.832475,-0.281119,-1.19811,-2.12773,
2026_07_06_19_46_36.031,3.873,31,0,0.759,0,0,0,0, ,0,0,0,0,0, ,958.1,-91.9,18.1,-0.8,0.2,-3.2,25,980.828,-102.119,1.79026,-0.29141,-1.14338,-2.09862,
2026_07_06_19_46_36.055,3.873,31,0,0.761,0,0,0,0, ,0,0,0,0,0, ,991.4,-101.3,-6.5,-2.1,-0.5,-5.1,25,980.458,-101.783,2.0346,-0.362012,-1.08284,-2.22362,
2026_07_06_19_46_36.071,3.873,31,0,0.759,0,0,0,0, ,0,0,0,0,0, ,1003.5,-110.4,-6.5,-1.1,-1.3,-3,25,981.493,-102.03,1.51453,-0.437451,-1.0717,-2.33492,
2026_07_06_19_46_36.097,3.873,31,0,0.76,0,0,0,0, ,0,0,0,0,0, ,994.3,-99.4,-3.2,-0.6,-2.9,-1.4,25,982.554,-102.205,1.12669,-0.462591,-1.13436,-2.32669,
2026_07_06_19_46_36.111,3.873,31.1,0,0.76,0,0,0,0, ,0,0,0,0,0, ,987,-91.5,-5.4,0.8,-3.2,-2.5,25,983.047,-101.794,0.796,-0.428308,-1.2511,-2.30374,
2026_07_06_19_46_36.135,3.873,31,0,0.759,0,0,0,0, ,0,0,0,0,0, ,987.7,-92,-1.2,2,-3.4,-3.9,25,983.309,-101.182,0.5464,-0.316896,-1.37595,-2.35836,
2026_07_06_19_46_36.155,3.873,31.1,0,0.759,0,0,0,0, ,0,0,0,0,0, ,1001,-100.5,2.5,0.5,-3.7,-2.8,25,983.982,-100.881,0.552713,-0.221413,-1.50843,-2.41878,
2026_07_06_19_46_36.180,3.873,31,0,0.76,0,0,0,0, ,0,0,0,0,0, ,1003.9,-102.6,-0.2,-0.5,-1.8,-0.6,25,985.107,-100.922,0.589111,-0.207921,-1.58409,-2.37498,
2026_07_06_19_46_36.190,3.873,31,0,0.762,0,0,0,0, ,0,0,0,0,0, ,993.6,-101.4,-2.1,-0.3,-2.2,0.4,25,985.939,-100.988,0.483134,-0.219626,-1.60944,-2.23635,
2026_07_06_19_46_36.211,3.873,31,0,0.759,0,0,0,0, ,0,0,0,0,0, ,977.5,-99.4,0.8,-0.1,-2,0.6,25,985.915,-100.952,0.414083,-0.21843,-1.63933,-2.06961,
2026_07_06_19_46_36.229,3.873,31.1,0,0.76,0,0,0,0, ,0,0,0,0,0, ,966.7,-97.9,-9.3,-0.3,-1.1,-1.4,25,985.073,-100.812,0.129866,-0.217307,-1.63389,-1.96786,
2026_07_06_19_46_36.252,3.873,31,0,0.76,0,0,0,0, ,0,0,0,0,0, ,982.5,-106.8,-7.9,-0.5,-0.3,-2.6,25,984.435,-100.905,-0.40211,-0.228439,-1.57698,-1.96982,
2026_07_06_19_46_36.269,3.873,31,0,0.761,0,0,0,0, ,0,0,0,0,0, ,991.8,-110.5,-9.6,-0.7,-0.6,-1.3,25,984.601,-101.377,-0.91081,-0.251081,-1.5083,-1.96861,
2026_07_06_19_46_36.292,3.873,31,0,0.759,0,0,0,0, ,0,0,0,0,0, ,980.1,-107,-3.5,0,0,-0.3,25,984.683,-101.826,-1.25445,-0.257109,-1.43467,-1.8974,
2026_07_06_19_46_36.309,3.873,31,0,0.76,0,0,0,0, ,0,0,0,0,0, ,970.2,-106,-1.7,-0.1,-2.4,-1.1,25,984.102,-102.111,-1.33644,-0.244489,-1.42037,-1.82443,
2026_07_06_19_46_36.331,3.873,31.1,0,0.76,0,0,0,0, ,0,0,0,0,0, ,971.5,-102.7,-1.3,0.1,-0.9,-3.3,25,983.294,-102.248,-1.34641,-0.22959,-1.43436,-1.84732,
2026_07_06_19_46_36.348,3.873,31,0,0.759,0,0,0,0, ,0,0,0,0,0, ,978.1,-103.2,0.3,0.3,-1.2,-4.5,25,982.777,-102.29,-1.29483,-0.203412,-1.41094,-1.97241,
2026_07_06_19_46_36.372,3.873,31,0,0.759,0,0,0,0, ,0,0,0,0,0, ,987.7,-105.3,3.6,-0.2,-1.5,-4.1,25,982.784,-102.41,-1.0971,-0.18797,-1.40723,-2.11424,
2026_07_06_19_46_36.388,3.873,31.1,0,0.761,0,0,0,0, ,0,0,0,0,0, ,996.3,-103.5,3.6,-1.8,-1.9,-2.5,25,983.346,-102.531,-0.81087,-0.237453,-1.42507,-2.1865,
2026_07_06_19_46_36.410,3.873,31,0,0.76,0,0,0,0, ,0,0,0,0,0, ,1007,-101.9,-6.5,-1.3,-2.3,-1.6,25,984.461,-102.541,-0.849817,-0.317436,-1.4662,-2.17818,
2026_07_06_19_46_36.427,3.873,31,0,0.76,0,0,0,0, ,0,0,0,0,0, ,985.8,-99.1,-2.6,0.1,-3.2,-1.3,25,985.189,-102.417,-1.0753,-0.334655,-1.54443,-2.13381,
2026_07_06_19_46_36.450,3.873,31,0,0.759,0,0,0,0, ,0,0,0,0,0, ,979.4,-100.8,3.7,0.3,-3.1,-1.8,25,985.031,-102.267,-0.976255,-0.302074,-1.64227,-2.09823,
2026_07_06_19_46_36.467,3.873,31.1,0,0.76,0,0,0,0, ,0,0,0,0,0, ,964.8,-93.3,12.2,-1.5,-1.6,-3.1,25,984.243,-101.949,-0.432312,-0.320229,-1.6854,-2.11967,
2026_07_06_19_46_36.488,3.873,31.1,0,0.761,0,0,0,0, ,0,0,0,0,0, ,991.8,-104.1,-3.5,-3.3,0,-4.7,25,983.881,-101.751,-0.14089,-0.446965,-1.63144,-2.22816,
2026_07_06_19_46_36.506,3.873,31,0,0.761,0,0,0,0, ,0,0,0,0,0, ,1006.1,-107,-23.3,-2.6,0,-3.3,25,984.799,-101.982,-0.948867,-0.599494,-1.53203,-2.33613,
2026_07_06_19_46_36.527,3.873,31.1,0,0.76,0,0,0,0, ,0,0,0,0,0, ,990.6,-94.3,-20.8,-0.1,-1.7,-2.6,25,985.625,-101.901,-2.23472,-0.645228,-1.49047,-2.37354,
2026_07_06_19_46_36.547,3.873,30.9,0,0.76,0,0,0,0, ,0,0,0,0,0, ,984.1,-92.5,-10,0.2,-2.9,-3.3,25,985.73,-101.383,-3.03698,-0.602862,-1.5398,-2.40867,
2026_07_06_19_46_36.568,3.873,31.1,0,0.76,0,0,0,0, ,0,0,0,0,0, ,993.2,-97,-8.9,0.2,-2.6,-3.6,25,985.908,-100.979,-3.42777,-0.553938,-1.61354,-2.47212,
2026_07_06_19_46_36.586,3.873,31,0,0.76,0,0,0,0, ,0,0,0,0,0, ,986.4,-102.6,-5.8,-0.3,-2.9,-1.9,25,986.145,-100.907,-3.66678,-0.523229,-1.6828,-2.48905,
2026_07_06_19_46_36.607,3.873,31.1,0,0.759,0,0,0,0, ,0,0,0,0,0, ,963.3,-86.7,-7.8,-0.3,-2.6,-1.4,25,985.457,-100.526,-3.85771,-0.509626,-1.74783,-2.43793,
2026_07_06_19_46_36.625,3.873,31,0,0.759,0,0,0,0, ,0,0,0,0,0, ,974.7,-92.2,-18.9,0.1,-2,-4.1,25,984.454,-99.8509,-4.43615,-0.484665,-1.78148,-2.45694,
2026_07_06_19_46_36.646,3.873,31,0,0.76,0,0,0,0, ,0,0,0,0,0, ,992.1,-102.2,-9.1,0,-4.2,-3.6,25,984.39,-99.6893,-5.01894,-0.452083,-1.86182,-2.54183,
2026_07_06_19_46_36.665,3.873,31,0,0.76,0,0,0,0, ,0,0,0,0,0, ,983.6,-106,-12.3,0,-2.1,-2.3,25,984.601,-99.9581,-5.36513,-0.424535,-1.94032,-2.5667,
2026_07_06_19_46_36.686,3.873,31,0,0.758,0,0,0,0, ,0,0,0,0,0, ,978.5,-98.3,-24.2,0.1,-2.3,-3,25,984.384,-100.092,-6.15031,-0.395618,-1.95615,-2.57178,
2026_07_06_19_46_36.704,3.873,31,0,0.76,0,0,0,0, ,0,0,0,0,0, ,990.9,-93.5,-25.8,2.2,-5.2,-4.2,25,984.403,-99.8362,-7.29896,-0.301432,-2.06546,-2.63444,
2026_07_06_19_46_36.732,3.873,31,0,0.76,0,0,0,0, ,0,0,0,0,0, ,998.7,-85.3,-2.4,2.3,-6,-4,25,985.037,-99.2003,-7.7134,-0.145954,-2.28085,-2.72375,
2026_07_06_19_46_36.744,3.873,31.1,0,0.759,0,0,0,0, ,0,0,0,0,0, ,1003,-93.5,4.1,1.1,-3.3,-3.4,25,986.001,-98.6031,-7.19156,-0.033466,-2.42522,-2.78324,
2026_07_06_19_46_36.766,3.873,31,0,0.759,0,0,0,0, ,0,0,0,0,0, ,1009.6,-92.8,-2.1,-0.5,-1.3,-2.7,25,987.238,-98.2708,-6.69239,-0.0131454,-2.41759,-2.79949,
2026_07_06_19_46_36.783,3.873,31.1,0,0.759,0,0,0,0, ,0,0,0,0,0, ,1008.4,-85.2,-8.7,-0.8,-2.6,-1.3,25,988.564,-97.7058,-6.61364,-0.0519537,-2.38909,-2.75077,
2026_07_06_19_46_36.805,3.873,31.1,0,0.761,0,0,0,0, ,0,0,0,0,0, ,1002.8,-86.3,-10.1,-1.8,-2.8,0.6,25,989.602,-96.9773,-6.78343,-0.128007,-2.40804,-2.60448,
2026_07_06_19_46_36.823,3.873,31,0,0.761,0,0,0,0, ,0,0,0,0,0, ,977.1,-91.9,-19.4,-1.4,-0.4,1.2,25,989.623,-96.4973,-7.26889,-0.217706,-2.3588,-2.39092,
2026_07_06_19_46_36.846,3.873,31,0,0.758,0,0,0,0, ,0,0,0,0,0, ,958,-93.9,-28.9,-1.1,-0.2,-1.3,25,988.278,-96.2781,-8.29759,-0.280612,-2.23334,-2.24827,
2026_07_06_19_46_36.863,3.873,31,0,0.761,0,0,0,0, ,0,0,0,0,0, ,968.5,-88.3,-29.7,-0.7,-1.3,-3.9,25,986.753,-95.9625,-9.57742,-0.318355,-2.14295,-2.26971,
2026_07_06_19_46_36.885,3.873,31,0,0.761,0,0,0,0, ,0,0,0,0,0, ,991.4,-88,-28.1,-0.2,-3.1,-4.4,25,986.338,-95.4864,-10.7549,-0.326378,-2.14643,-2.38429,
2026_07_06_19_46_36.902,3.873,31,0,0.761,0,0,0,0, ,0,0,0,0,0, ,998.4,-98.8,-27.4,-0.5,-1.4,-2.3,25,986.86,-95.3593,-11.7905,-0.327817,-2.15274,-2.44313,
2026_07_06_19_46_36.924,3.873,31,0,0.761,0,0,0,0, ,0,0,0,0,0, ,989.2,-98.6,-27.4,-0.3,0.1,-0.8,25,987.283,-95.5629,-12.7417,-0.332216,-2.06116,-2.38871,
2026_07_06_19_46_36.942,3.873,31,0,0.76,0,0,0,0, ,0,0,0,0,0, ,973.6,-86.6,-25.2,0.2,-1,-1.7,25,986.924,-95.3823,-13.5679,-0.315018,-1.96298,-2.31932,
2026_07_06_19_46_36.963,3.873,30.9,0,0.761,0,0,0,0, ,0,0,0,0,0, ,978.2,-85.6,-18.1,0.5,-2.4,-3,25,986.253,-94.8167,-14.0604,-0.274494,-1.94696,-2.32119,
2026_07_06_19_46_36.985,3.873,31.1,0,0.76,0,0,0,0, ,0,0,0,0,0, ,998,-91.5,-17,-0.2,-1,-3.3,25,986.365,-94.4348,-14.2731,-0.248626,-1.93191,-2.37169,
2026_07_06_19_46_37.007,3.873,30.9,0,0.76,0,0,0,0, ,0,0,0,0,0, ,1002.4,-95.5,-17.5,-0.9,1,-2.2,25,987.208,-94.3778,-14.4545,-0.266991,-1.81418,-2.39475,
2026_07_06_19_46_37.021,3.873,31,0,0.76,0,0,0,0, ,0,0,0,0,0, ,992.6,-93.7,-22.2,0,0.9,-1.7,25,987.835,-94.3914,-14.7833,-0.278143,-1.64574,-2.36765,
2026_07_06_19_46_37.043,3.873,31,0,0.76,0,0,0,0, ,0,0,0,0,0, ,985.9,-86.1,-15.8,0.3,-1.9,-2,25,987.922,-94.1177,-15.0402,-0.252053,-1.57592,-2.3361,
2026_07_06_19_46_37.061,3.873,31,0,0.759,0,0,0,0, ,0,0,0,0,0, ,1001.2,-93.8,-9.8,0,-2.5,-2.3,25,988.265,-93.8637,-14.9037,-0.227553,-1.61395,-2.32476,
2026_07_06_19_46_37.084,3.873,31,0,0.759,0,0,0,0, ,0,0,0,0,0, ,1005.9,-102.6,-10.3,-0.4,-0.7,-0.5,25,989.196,-94.128,-14.6079,-0.225874,-1.6131,-2.26841,
2026_07_06_19_46_37.100,3.873,31.1,0,0.759,0,0,0,0, ,0,0,0,0,0, ,973.8,-93.5,-4.5,-0.1,-0.4,0.1,25,989.236,-94.367,-14.1687,-0.227344,-1.54832,-2.14236,
2026_07_06_19_46_37.123,3.873,31.1,0,0.759,0,0,0,0, ,0,0,0,0,0, ,962.8,-93.5,-8.4,-0.4,-0.9,-1.9,25,987.96,-94.3141,-13.6984,-0.228725,-1.49358,-2.06666,
2026_07_06_19_46_37.140,3.873,31,0,0.761,0,0,0,0, ,0,0,0,0,0, ,970.4,-97.2,-13.3,-0.7,-0.7,-2.9,25,986.659,-94.3773,-13.5248,-0.248303,-1.45131,-2.08697,
2026_07_06_19_46_37.164,3.873,31.1,0,0.76,0,0,0,0, ,0,0,0,0,0, ,990.8,-99.3,-24,-1.4,-0.5,-3.2,25,986.289,-94.6132,-13.8371,-0.297156,-1.39944,-2.14566,
2026_07_06_19_46_37.180,3.873,31,0,0.759,0,0,0,0, ,0,0,0,0,0, ,996.5,-96.5,-22,-1,-1.5,-1.6,25,986.738,-94.8135,-14.3955,-0.352173,-1.3751,-2.16115,
2026_07_06_19_46_37.201,3.873,31,0,0.759,0,0,0,0, ,0,0,0,0,0, ,989.2,-100.2,-20.3,-1.9,-1.1,-0.4,25,987.11,-95.029,-14.8071,-0.419072,-1.37052,-2.0904,
2026_07_06_19_46_37.219,3.873,31.1,0,0.76,0,0,0,0, ,0,0,0,0,0, ,972.2,-98.7,-32.5,-1.4,0.7,-1.1,25,986.72,-95.2984,-15.5135,-0.494082,-1.29919,-2.00872,
2026_07_06_19_46_37.241,3.873,31,0,0.759,0,0,0,0, ,0,0,0,0,0, ,977.2,-100,-31.8,0.4,-1.1,-2.6,25,985.987,-95.5453,-16.5273,-0.494442,-1.23221,-1.99904,
2026_07_06_19_46_37.262,3.873,31,0,0.761,0,0,0,0, ,0,0,0,0,0, ,983.8,-98.9,-17,1.1,-3,-2.1,25,985.653,-95.7833,-17.007,-0.418609,-1.28204,-2.02043,
2026_07_06_19_46_37.285,3.873,31.1,0,0.76,0,0,0,0, ,0,0,0,0,0, ,979.4,-92.6,-5.9,-0.1,-1.8,-2.1,25,985.406,-95.7812,-16.6684,-0.362631,-1.35017,-2.02528,
2026_07_06_19_46_37.298,3.873,31,0,0.76,0,0,0,0, ,0,0,0,0,0, ,985.9,-91.3,-8,-0.9,-0.8,-2.9,25,985.238,-95.5478,-16.0762,-0.371002,-1.34711,-2.05421,
2026_07_06_19_46_37.320,3.873,31.1,0,0.76,0,0,0,0, ,0,0,0,0,0, ,1001.2,-97.7,-13.5,-1.5,-0.3,-2.3,25,985.744,-95.4839,-15.7516,-0.421519,-1.29854,-2.08747,
2026_07_06_19_46_37.338,3.873,31,0,0.759,0,0,0,0, ,0,0,0,0,0, ,984.4,-99.2,-21.1,-1.1,-0.2,-1.2,25,986.174,-95.6647,-15.846,-0.475052,-1.23464,-2.0669,
2026_07_06_19_46_37.360,3.873,30.9,0,0.759,0,0,0,0, ,0,0,0,0,0, ,972.6,-92.6,-19.8,-1,-1.2,-2.4,25,985.707,-95.679,-16.1265,-0.510088,-1.20206,-2.05064,
2026_07_06_19_46_37.377,3.873,31,0,0.761,0,0,0,0, ,0,0,0,0,0, ,987.1,-91,-23.1,-1.6,-1.8,-3.5,25,985.35,-95.4426,-16.4509,-0.558223,-1.22022,-2.10544,
2026_07_06_19_46_37.401,3.873,31.1,0,0.759,0,0,0,0, ,0,0,0,0,0, ,999.7,-90.2,-20.9,-1.3,0.3,-3.5,25,985.84,-95.1475,-16.7891,-0.612565,-1.19156,-2.19042,
2026_07_06_19_46_37.417,3.873,30.9,0,0.76,0,0,0,0, ,0,0,0,0,0, ,1000.6,-90.9,-23.4,-1.5,0.4,-2.4,25,986.712,-94.8674,-17.1158,-0.66055,-1.09763,-2.23671,
2026_07_06_19_46_37.439,3.873,30.9,0,0.759,0,0,0,0, ,0,0,0,0,0, ,996,-92.7,-29.4,0,-0.5,-2,25,987.419,-94.6805,-17.6815,-0.666001,-1.03379,-2.23447,
2026_07_06_19_46_37.457,3.873,31,0,0.76,0,0,0,0, ,0,0,0,0,0, ,987.5,-96.1,-23.9,0.8,-1.4,-1.5,25,987.682,-94.6634,-18.228,-0.601041,-1.02868,-2.20495,
2026_07_06_19_46_37.480,3.873,31,0,0.76,0,0,0,0, ,0,0,0,0,0, ,968.6,-92.6,-11.3,0.5,-0.5,-1.9,25,987.095,-94.6443,-18.1898,-0.524806,-1.02389,-2.17418,
2026_07_06_19_46_37.496,3.873,31,0,0.759,0,0,0,0, ,0,0,0,0,0, ,972.4,-88.3,-9.1,-0.8,-0.5,-4.3,25,986.084,-94.3887,-17.7029,-0.501966,-0.991961,-2.2306,
2026_07_06_19_46_37.519,3.873,31.1,0,0.76,0,0,0,0, ,0,0,0,0,0, ,997,-93.6,-22.3,-1.2,-1,-3.8,25,986,-94.1791,-17.5808,-0.532315,-0.977216,-2.34147,
2026_07_06_19_46_37.537,3.873,31,0,0.76,0,0,0,0, ,0,0,0,0,0, ,988.2,-97.1,-23.6,-1.1,-0.4,-2.3,25,986.402,-94.2505,-17.908,-0.569955,-0.960324,-2.38464,
2026_07_06_19_46_37.560,3.873,31,0,0.759,0,0,0,0, ,0,0,0,0,0, ,976.1,-87.8,-18.9,0,-0.8,-2.8,25,986.143,-94.1408,-18.1117,-0.568739,-0.938366,-2.39472,
2026_07_06_19_46_37.575,3.873,31,0,0.759,0,0,0,0, ,0,0,0,0,0, ,984.6,-86.1,-13,-1,-1.9,-3.8,25,985.79,-93.7026,-17.9799,-0.56455,-0.96345,-2.44989,
2026_07_06_19_46_37.597,3.873,30.9,0,0.759,0,0,0,0, ,0,0,0,0,0, ,1001.4,-90.8,-24.7,-1.3,-0.6,-3.3,25,986.229,-93.3825,-18.033,-0.600226,-0.980912,-2.51692,
2026_07_06_19_46_37.615,3.873,31,0,0.76,0,0,0,0, ,0,0,0,0,0, ,996.2,-92.4,-24.1,-1.6,-0.1,-2,25,986.995,-93.2739,-18.421,-0.652009,-0.942466,-2.52503,
2026_07_06_19_46_37.639,3.873,31.2,0,0.761,0,0,0,0, ,0,0,0,0,0, ,992.1,-92.1,-25.2,-1.3,-1.2,-1.9,25,987.431,-93.2115,-18.8005,-0.700637,-0.924644,-2.48999,
2026_07_06_19_46_37.655,3.873,31,0,0.76,0,0,0,0, ,0,0,0,0,0, ,995.3,-89.7,-26.1,0,-1.5,-1.5,25,987.813,-93.0706,-19.2179,-0.697551,-0.950564,-2.44185,
2026_07_06_19_46_37.679,3.873,30.9,0,0.761,0,0,0,0, ,0,0,0,0,0, ,983.1,-88.6,-9.8,-0.3,-0.7,-1.2,25,987.898,-92.8317,-19.1407,-0.664185,-0.95967,-2.37532,
2026_07_06_19_46_37.694,3.873,31,0,0.76,0,0,0,0, ,0,0,0,0,0, ,966.3,-90.6,-18.9,-1.4,0.7,-1.9,25,987.094,-92.6348,-18.8487,-0.675508,-0.90119,-2.32502,
2026_07_06_19_46_37.718,3.873,31.1,0,0.759,0,0,0,0, ,0,0,0,0,0, ,980.2,-90.5,-29.4,-1.5,-0.3,-3.7,25,986.25,-92.5077,-19.1718,-0.722704,-0.834086,-2.35397,
2026_07_06_19_46_37.734,3.873,30.9,0,0.759,0,0,0,0, ,0,0,0,0,0, ,1001.5,-88.2,-31,-0.3,-2.6,-3.4,25,986.53,-92.3153,-19.8438,-0.733508,-0.871619,-2.42685,
2026_07_06_19_46_37.758,3.873,31.1,0,0.761,0,0,0,0, ,0,0,0,0,0, ,1003.6,-88.5,-15.8,0.3,-2.3,-1.6,25,987.506,-92.0737,-20.0605,-0.688809,-0.967801,-2.43131,
2026_07_06_19_46_37.773,3.873,31,0,0.759,0,0,0,0, ,0,0,0,0,0, ,985.3,-84.1,-9.5,-0.5,0,-1.2,25,987.93,-91.7218,-19.6089,-0.652929,-0.978904,-2.36846,
2026_07_06_19_46_37.798,3.873,31.1,0,0.759,0,0,0,0, ,0,0,0,0,0, ,988.4,-84.2,-7.8,-1.4,-0.1,-2.1,25,987.864,-91.2604,-18.9411,-0.671032,-0.922299,-2.32468,
2026_07_06_19_46_37.818,3.873,31.1,0,0.759,0,0,0,0, ,0,0,0,0,0, ,991.8,-90,-17.8,-2,-0.3,-1.9,25,988,-91.0069,-18.5669,-0.733734,-0.878284,-2.3049,
2026_07_06_19_46_37.841,3.873,30.9,0,0.759,0,0,0,0, ,0,0,0,0,0, ,986.6,-94.8,-26.2,-0.8,0.3,-1.2,25,988.073,-91.0918,-18.7761,-0.774335,-0.824763,-2.2589,
2026_07_06_19_46_37.853,3.873,31.1,0,0.761,0,0,0,0, ,0,0,0,0,0, ,973.7,-89.1,-27.3,-1.7,-0.5,-1.4,25,987.59,-91.1441,-19.262,-0.803321,-0.780598,-2.20046,
2026_07_06_19_46_37.877,3.873,31,0,0.76,0,0,0,0, ,0,0,0,0,0, ,983.5,-81.6,-30.2,-0.6,-1.5,-3,25,987.043,-90.791,-19.8402,-0.824447,-0.793968,-2.20043,
2026_07_06_19_46_37.892,3.873,31,0,0.76,0,0,0,0, ,0,0,0,0,0, ,1010.3,-90.4,-13.5,-1.3,-1.4,-2.2,25,987.643,-90.4991,-19.9627,-0.832097,-0.833945,-2.22478,
2026_07_06_19_46_37.915,3.873,31,0,0.76,0,0,0,0, ,0,0,0,0,0, ,996.9,-95.7,-18.3,-0.8,-0.6,0.1,25,988.616,-90.6545,-19.7151,-0.845376,-0.844064,-2.15319,
2026_07_06_19_46_37.932,3.873,31,0,0.76,0,0,0,0, ,0,0,0,0,0, ,983.2,-88,-14.2,-1.6,0,0,25,988.703,-90.7274,-19.5039,-0.866986,-0.81091,-2.01894,
2026_07_06_19_46_37.956,3.873,30.9,0,0.759,0,0,0,0, ,0,0,0,0,0, ,985.7,-89.2,-28.1,-0.9,-0.9,-0.4,25,988.444,-90.5977,-19.6042,-0.890326,-0.788917,-1.9081,
2026_07_06_19_46_37.972,3.873,30.9,0,0.76,0,0,0,0, ,0,0,0,0,0, ,979.4,-91,-14.7,0.7,-0.4,-1.3,25,988.085,-90.5674,-19.7137,-0.842165,-0.780452,-1.84362,
2026_07_06_19_46_37.995,3.873,30.9,0,0.761,0,0,0,0, ,0,0,0,0,0, ,976.1,-93.9,-8.4,-1,-0.2,-1.9,25,987.455,-90.6821,-19.2162,-0.799986,-0.751174,-1.82877,
2026_07_06_19_46_38.012,3.873,31,0,0.76,0,0,0,0, ,0,0,0,0,0, ,984.6,-96.6,-11.8,-2.1,0.5,-2.2,25,987.022,-90.9605,-18.6607,-0.84569,-0.696259,-1.84225,
2026_07_06_19_46_38.036,3.873,30.9,0,0.76,0,0,0,0, ,0,0,0,0,0, ,992.1,-94.7,-20.8,-1,-1.6,-2.5,25,987.103,-91.2462,-18.5168,-0.888609,-0.687346,-1.87319,
2026_07_06_19_46_38.050,3.873,31,0,0.759,0,0,0,0, ,0,0,0,0,0, ,989.8,-94.3,-18.3,-0.3,-1.7,-1.9,25,987.337,-91.4445,-18.5798,-0.874069,-0.746008,-1.89311,
2026_07_06_19_46_38.074,3.873,31,0,0.76,0,0,0,0, ,0,0,0,0,0, ,985.7,-88.8,-0.8,-1.1,-0.5,-2.1,25,987.362,-91.4509,-18.0295,-0.863462,-0.767579,-1.89962,
2026_07_06_19_46_38.090,3.873,31,0,0.76,0,0,0,0, ,0,0,0,0,0, ,997.5,-90.6,-16.1,-2.6,-0.1,-2.2,25,987.621,-91.3442,-17.4458,-0.923579,-0.739086,-1.91488,
2026_07_06_19_46_38.115,3.873,31,0,0.762,0,0,0,0, ,0,0,0,0,0, ,998.1,-89.8,-24.7,-1.4,-0.6,-1.5,25,988.241,-91.2745,-17.6258,-0.989173,-0.715376,-1.91093,
2026_07_06_19_46_38.132,3.873,31,0,0.759,0,0,0,0, ,0,0,0,0,0, ,991.2,-78,-11.1,-1,-3.3,-1.6,25,988.632,-90.8251,-17.6425,-1.00202,-0.790611,-1.88893,
2026_07_06_19_46_38.156,3.873,30.9,0,0.76,0,0,0,0, ,0,0,0,0,0, ,1002.4,-83.8,-11.1,-1.8,-2,-1.1,25,989.129,-90.2203,-17.2438,-1.02627,-0.903918,-1.85609,
2026_07_06_19_46_38.169,3.873,31,0,0.76,0,0,0,0, ,0,0,0,0,0, ,999.7,-90.3,-15.7,-4,1,0.4,25,989.856,-90.0271,-17.0096,-1.14045,-0.879304,-1.76431,
2026_07_06_19_46_38.195,3.873,31,0,0.76,0,0,0,0, ,0,0,0,0,0, ,987,-91.5,-34.9,-3.7,1.2,0.7,25,990.069,-90.0803,-17.5148,-1.30557,-0.75869,-1.62329,
2026_07_06_19_46_38.209,3.873,31,0,0.76,0,0,0,0, ,0,0,0,0,0, ,980.7,-88.1,-35.2,-2.1,-0.7,0.2,25,989.69,-90.0632,-18.5833,-1.40273,-0.697223,-1.49694,
2026_07_06_19_46_38.233,3.873,31,0,0.76,0,0,0,0, ,0,0,0,0,0, ,982,-92.2,-30.2,-1,-1.1,-0.5,25,989.182,-90.0685,-19.4436,-1.4117,-0.70958,-1.41487,
2026_07_06_19_46_38.248,3.873,30.9,0,0.76,0,0,0,0, ,0,0,0,0,0, ,983.8,-100.5,-22.4,-0.8,-0.8,-0.3,25,988.799,-90.4513,-19.8614,-1.38052,-0.72423,-1.35302,
2026_07_06_19_46_38.273,3.873,31,0,0.76,0,0,0,0, ,0,0,0,0,0, ,974.9,-101.1,-16.4,-0.4,0.2,-0.4,25,988.223,-91.0819,-19.8333,-1.33296,-0.698379,-1.2919,
2026_07_06_19_46_38.288,3.873,31,0,0.759,0,0,0,0, ,0,0,0,0,0, ,964.8,-96.5,-20.6,0,-0.9,-1.7,25,987.103,-91.5522,-19.752,-1.26392,-0.67715,-1.27716,
2026_07_06_19_46_38.312,3.873,31,0,0.76,0,0,0,0, ,0,0,0,0,0, ,971.8,-96.8,-19.2,0,-2.1,-3.2,25,985.958,-91.8629,-19.761,-1.1869,-0.727292,-1.34863,
2026_07_06_19_46_38.328,3.873,31,0,0.76,0,0,0,0, ,0,0,0,0,0, ,981.9,-97.4,-19.4,-0.2,-0.9,-3.2,25,985.403,-92.182,-19.733,-1.12066,-0.774379,-1.46145,
2026_07_06_19_46_38.352,3.873,31,0,0.758,0,0,0,0, ,0,0,0,0,0, ,990.2,-94.1,-21.8,-1.6,-0.4,-3,25,985.442,-92.3995,-19.7858,-1.10722,-0.7668,-1.5613,
2026_07_06_19_46_38.368,3.873,31,0,0.761,0,0,0,0, ,0,0,0,0,0, ,993.4,-97.5,-33,-0.8,0.6,-3.2,25,985.829,-92.6067,-20.2498,-1.11287,-0.713979,-1.65506,
2026_07_06_19_46_38.392,3.873,31,0,0.759,0,0,0,0, ,0,0,0,0,0, ,991.2,-95,-30.7,-0.2,-0.3,-3.4,25,986.224,-92.8287,-20.9567,-1.07552,-0.66133,-1.7553,
2026_07_06_19_46_38.407,3.873,31,0,0.761,0,0,0,0, ,0,0,0,0,0, ,994.2,-95.4,-27.2,1,-2.4,-3,25,986.618,-92.9732,-21.4438,-0.98561,-0.703296,-1.84334,
2026_07_06_19_46_38.432,3.873,31,0,0.759,0,0,0,0, ,0,0,0,0,0, ,989.1,-96.5,-7.4,0.7,-1.6,-2.2,25,986.925,-93.1546,-21.1912,-0.873752,-0.782314,-1.88945,
2026_07_06_19_46_38.447,3.873,31,0,0.759,0,0,0,0, ,0,0,0,0,0, ,998.1,-94.4,-4.6,-0.5,-1,-2.1,25,987.332,-93.2945,-20.2655,-0.814414,-0.81386,-1.90532,
2026_07_06_19_46_38.472,3.873,30.9,0,0.76,0,0,0,0, ,0,0,0,0,0, ,996.4,-83,6.9,-3.3,-0.9,0,25,987.936,-93.0145,-18.9605,-0.880567,-0.822156,-1.8532,
2026_07_06_19_46_38.486,3.873,31,0,0.759,0,0,0,0, ,0,0,0,0,0, ,1004.5,-86.9,-20.5,-3.2,1.8,-0.8,25,988.699,-92.5231,-18.2195,-1.02495,-0.744634,-1.76465,
2026_07_06_19_46_38.512,3.873,31,0,0.761,0,0,0,0, ,0,0,0,0,0, ,996.3,-85.2,-21.9,-3.3,0.9,0,25,989.412,-92.1286,-18.4011,-1.16054,-0.616993,-1.68149,
2026_07_06_19_46_38.526,3.873,31,0,0.76,0,0,0,0, ,0,0,0,0,0, ,994.9,-85.9,-31.8,-2,-0.1,-1,25,989.789,-91.7277,-18.916,-1.25131,-0.55502,-1.60949,
2026_07_06_19_46_38.551,3.873,31,0,0.759,0,0,0,0, ,0,0,0,0,0, ,995.4,-95.2,-23.6,-0.9,-1.1,-0.4,25,990.116,-91.656,-19.4512,-1.26341,-0.557761,-1.55407,
2026_07_06_19_46_38.566,3.873,31,0,0.761,0,0,0,0, ,0,0,0,0,0, ,986.8,-95.4,-17,-2,-0.8,0,25,990.176,-91.878,-19.503,-1.27478,-0.581663,-1.47156,
2026_07_06_19_46_38.590,3.873,31,0,0.761,0,0,0,0, ,0,0,0,0,0, ,990.4,-96.1,-20.3,-1.7,-0.5,-0.1,25,990.08,-92.114,-19.451,-1.30984,-0.585827,-1.38493,
2026_07_06_19_46_38.605,3.873,31.1,0,0.761,0,0,0,0, ,0,0,0,0,0, ,982.2,-98.3,-17,-1.2,-0.9,0.4,25,989.849,-92.4239,-19.4022,-1.31838,-0.592784,-1.2914,
2026_07_06_19_46_38.631,3.873,31,0,0.76,0,0,0,0, ,0,0,0,0,0, ,974.3,-98.6,-15.7,-1.8,-0.9,0.3,25,989.142,-92.7911,-19.2162,-1.32945,-0.611505,-1.19137,
2026_07_06_19_46_38.645,3.873,31,0,0.76,0,0,0,0, ,0,0,0,0,0, ,967.6,-100.4,-25.2,-2,1,-0.6,25,988.034,-93.1999,-19.2914,-1.36421,-0.571195,-1.12791,
2026_07_06_19_46_38.672,3.873,31,0,0.76,0,0,0,0, ,0,0,0,0,0, ,973.3,-102.6,-33.3,-1.2,0,-2.1,25,986.962,-93.7057,-19.8982,-1.37858,-0.505919,-1.14145,
2026_07_06_19_46_38.685,3.873,31,0,0.76,0,0,0,0, ,0,0,0,0,0, ,984.6,-97.7,-34.3,0,-1,-2.9,25,986.474,-94.0984,-20.7454,-1.33114,-0.505558,-1.22423,
2026_07_06_19_46_38.709,3.873,31,0,0.759,0,0,0,0, ,0,0,0,0,0, ,986.4,-102.4,-24.6,0.1,-1.6,-2.2,25,986.415,-94.4611,-21.2758,-1.24697,-0.55397,-1.30502,
2026_07_06_19_46_38.724,3.873,31,0,0.76,0,0,0,0, ,0,0,0,0,0, ,972.7,-104.1,-22.8,0.2,0.3,-1.4,25,985.996,-94.9967,-21.4235,-1.16185,-0.559821,-1.33519,
2026_07_06_19_46_38.750,3.873,31,0,0.76,0,0,0,0, ,0,0,0,0,0, ,973,-98.5,-21.9,-0.8,1.2,-2.3,25,985.195,-95.3808,-21.48,-1.10933,-0.480004,-1.36656,
2026_07_06_19_46_38.768,3.873,31,0,0.761,0,0,0,0, ,0,0,0,0,0, ,978.3,-100.7,-31.8,0.4,1,-3,25,984.614,-95.6379,-21.8072,-1.05392,-0.383723,-1.44477,
2026_07_06_19_46_38.794,3.873,31,0,0.76,0,0,0,0, ,0,0,0,0,0, ,979,-99.1,-29.1,1.8,-0.5,-3.5,25,984.25,-95.8976,-22.3339,-0.922661,-0.345105,-1.55477,
2026_07_06_19_46_38.804,3.873,31,0,0.759,0,0,0,0, ,0,0,0,0,0, ,983.6,-95.8,-11.9,2.3,-2.3,-3.8,25,984.07,-95.9922,-22.2221,-0.741515,-0.409388,-1.68245,
2026_07_06_19_46_38.828,3.873,31,0,0.76,0,0,0,0, ,0,0,0,0,0, ,994.5,-92,1.3,1,-1.2,-3.2,25,984.374,-95.8647,-21.1909,-0.595782,-0.491081,-1.79321,
2026_07_06_19_46_38.843,3.873,31,0,0.76,0,0,0,0, ,0,0,0,0,0, ,994.3,-92.6,-3.5,-0.3,-0.3,-3,25,984.985,-95.6475,-19.9667,-0.538148,-0.506859,-1.87284,
2026_07_06_19_46_38.869,3.873,31.1,0,0.76,0,0,0,0, ,0,0,0,0,0, ,999.1,-89.9,-13,-0.9,-0.7,-2.6,25,985.699,-95.3795,-19.2527,-0.541917,-0.506441,-1.92934,
2026_07_06_19_46_38.883,3.873,31,0,0.761,0,0,0,0, ,0,0,0,0,0, ,1004.7,-78.3,-15.7,-0.1,-0.3,-2.8,25,986.686,-94.6922,-18.9539,-0.539363,-0.506049,-1.9763,
2026_07_06_19_46_38.907,3.873,31,0,0.76,0,0,0,0, ,0,0,0,0,0, ,1027.3,-81.2,-21.6,-0.2,-0.7,-2.4,25,988.472,-93.7816,-18.9354,-0.515636,-0.50568,-2.01431,
2026_07_06_19_46_38.923,3.873,31.1,0,0.76,0,0,0,0, ,0,0,0,0,0, ,1022.2,-92.4,-27.3,0.6,-0.3,-0.2,25,990.683,-93.3562,-19.2714,-0.472027,-0.505334,-1.97078,
2026_07_06_19_46_38.949,3.873,31,0,0.76,0,0,0,0, ,0,0,0,0,0, ,996.7,-90.5,-17.2,0.5,-0.4,1.1,25,991.827,-93.24,-19.4529,-0.409747,-0.495868,-1.82326,
2026_07_06_19_46_38.962,3.873,30.9,0,0.761,0,0,0,0, ,0,0,0,0,0, ,988.2,-96.6,-16.4,-0.1,0,0.4,25,991.865,-93.2589,-19.2913,-0.372591,-0.477839,-1.66646,
2026_07_06_19_46_38.987,3.873,31,0,0.759,0,0,0,0, ,0,0,0,0,0, ,984.2,-104.6,-18.4,1,1,0.3,25,991.519,-93.7063,-19.176,-0.322464,-0.418252,-1.54358,
2026_07_06_19_46_39.001,3.873,30.9,0,0.76,0,0,0,0, ,0,0,0,0,0, ,974.1,-105.2,-6.1,1.9,-1,-0.1,25,990.766,-94.3884,-18.754,-0.214455,-0.392765,-1.44342,
2026_07_06_19_46_39.027,3.873,31,0,0.76,0,0,0,0, ,0,0,0,0,0, ,972.6,-105.8,16.8,0.8,-1.3,-0.7,25,989.704,-95.0655,-17.2851,-0.119121,-0.438909,-1.37984,
2026_07_06_19_46_39.041,3.873,31,0,0.759,0,0,0,0, ,0,0,0,0,0, ,968,-105.8,9.3,-1.6,0.2,-0.9,25,988.522,-95.7196,-15.4366,-0.136237,-0.445678,-1.3445,
2026_07_06_19_46_39.066,3.873,31,0,0.759,0,0,0,0, ,0,0,0,0,0, ,971.4,-103,-13.4,-1.8,-0.5,-2.2,25,987.375,-96.2486,-14.6208,-0.231529,-0.42766,-1.35703,
2026_07_06_19_46_39.081,3.873,31,0,0.761,0,0,0,0, ,0,0,0,0,0, ,986.4,-109.4,-18.9,-0.9,-2.3,-2.8,25,986.859,-96.855,-14.714,-0.299685,-0.486912,-1.42668,
2026_07_06_19_46_39.108,3.873,31,0,0.761,0,0,0,0, ,0,0,0,0,0, ,991.9,-110.4,-19.8,-0.7,-0.3,-1.8,25,986.998,-97.6499,-14.9965,-0.330173,-0.53646,-1.4799,
2026_07_06_19_46_39.120,3.873,31,0,0.76,0,0,0,0, ,0,0,0,0,0, ,982.4,-106.3,-18.4,-1.2,0,-1.3,25,987.007,-98.302,-15.2466,-0.367944,-0.51291,-1.48417,
2026_07_06_19_46_39.146,3.873,31,0,0.76,0,0,0,0, ,0,0,0,0,0, ,976,-112.5,-24.6,-1.3,0.3,-1.8,25,986.532,-98.9783,-15.6277,-0.421694,-0.472514,-1.48818,
2026_07_06_19_46_39.159,3.873,31,0,0.759,0,0,0,0, ,0,0,0,0,0, ,975.2,-107.4,-31.1,-0.7,0.2,-2.5,25,985.865,-99.6468,-16.3725,-0.456935,-0.428486,-1.52851,
2026_07_06_19_46_39.185,3.873,31,0,0.759,0,0,0,0, ,0,0,0,0,0, ,984,-103.2,-29.5,0.7,-1.8,-3.2,25,985.484,-99.9913,-17.2212,-0.42909,-0.451125,-1.60904,
2026_07_06_19_46_39.199,3.873,31,0,0.76,0,0,0,0, ,0,0,0,0,0, ,988.5,-102.4,-21.8,0.8,-1.9,-2.9,25,985.53,-100.162,-17.7348,-0.35724,-0.536369,-1.69685,
2026_07_06_19_46_39.224,3.873,31,0,0.761,0,0,0,0, ,0,0,0,0,0, ,988.4,-101,-6.2,-0.2,-0.7,-1.4,25,985.708,-100.256,-17.5072,-0.317189,-0.582903,-1.72446,
2026_07_06_19_46_39.239,3.873,31,0,0.759,0,0,0,0, ,0,0,0,0,0, ,974.9,-100.5,-9.6,-1.6,1,-1.7,25,985.461,-100.286,-16.9218,-0.352704,-0.538241,-1.71383,
2026_07_06_19_46_39.265,3.873,31,0,0.76,0,0,0,0, ,0,0,0,0,0, ,972.6,-101.1,-18.5,-0.5,0.8,-3.5,25,984.747,-100.318,-16.7468,-0.395195,-0.450598,-1.76783,
2026_07_06_19_46_39.278,3.873,31.1,0,0.758,0,0,0,0, ,0,0,0,0,0, ,985.5,-104.4,-19.5,-0.1,-0.8,-3.5,25,984.4,-100.466,-16.8841,-0.389395,-0.42314,-1.87338,
2026_07_06_19_46_39.304,3.873,31,0,0.76,0,0,0,0, ,0,0,0,0,0, ,988.4,-100,-12,-0.1,-0.9,-3.3,25,984.556,-100.571,-16.815,-0.37176,-0.449152,-1.96641,
2026_07_06_19_46_39.318,3.873,31,0,0.76,0,0,0,0, ,0,0,0,0,0, ,988,-94.4,-11.3,-1.3,0.8,-3.6,25,984.778,-100.366,-16.5002,-0.391762,-0.424829,-2.05682,
2026_07_06_19_46_39.344,3.873,31,0,0.761,0,0,0,0, ,0,0,0,0,0, ,994.2,-97.7,-21.6,-0.4,0.7,-4,25,985.163,-100.103,-16.4972,-0.419686,-0.353237,-2.16304,
2026_07_06_19_46_39.358,3.873,31,0,0.761,0,0,0,0, ,0,0,0,0,0, ,992.9,-98.2,-20.3,0.4,-0.8,-3.7,25,985.674,-99.9718,-16.7685,-0.394111,-0.334759,-2.26584,
2026_07_06_19_46_39.383,3.873,31.1,0,0.759,0,0,0,0, ,0,0,0,0,0, ,999.2,-92.1,-11.4,1,-1.9,-3.4,25,986.306,-99.678,-16.7125,-0.327439,-0.396625,-2.3441,
2026_07_06_19_46_39.397,3.873,31,0,0.759,0,0,0,0, ,0,0,0,0,0, ,1001.2,-93,1.2,-0.4,-0.6,-2.4,25,987.153,-99.2436,-16.0049,-0.289204,-0.448628,-2.37797,
2026_07_06_19_46_39.424,3.873,31,0,0.759,0,0,0,0, ,0,0,0,0,0, ,990.2,-95.9,-4.7,-0.9,0.5,-1.4,25,987.674,-98.9515,-15.1362,-0.31119,-0.424336,-2.34884,
2026_07_06_19_46_39.437,3.873,31,0,0.76,0,0,0,0, ,0,0,0,0,0, ,976.8,-90.3,-4,-0.6,-0.1,-1.8,25,987.419,-98.5949,-14.479,-0.33793,-0.386291,-2.30321,
2026_07_06_19_46_39.462,3.873,31,0,0.76,0,0,0,0, ,0,0,0,0,0, ,985.3,-90.2,-5.9,-0.2,-2,-2.9,25,987.031,-98.0864,-13.8983,-0.341712,-0.426736,-2.30606,
2026_07_06_19_46_39.476,3.873,31,0,0.759,0,0,0,0, ,0,0,0,0,0, ,994.9,-94.3,-0.1,-0.8,-0.8,-2.7,25,987.218,-97.7308,-13.2342,-0.351358,-0.486044,-2.33616,
2026_07_06_19_46_39.503,3.873,31,0,0.76,0,0,0,0, ,0,0,0,0,0, ,992.9,-94.1,-4.6,-2,0.2,-1.8,25,987.625,-97.5156,-12.5709,-0.41526,-0.474707,-2.33091,
2026_07_06_19_46_39.515,3.873,31,0,0.759,0,0,0,0, ,0,0,0,0,0, ,986.8,-90.2,-11.8,-2.1,-0.8,-1.5,25,987.761,-97.1886,-12.3046,-0.514877,-0.464061,-2.28942,
2026_07_06_19_46_39.541,3.873,31,0,0.76,0,0,0,0, ,0,0,0,0,0, ,987.5,-88.8,-21.2,-0.9,-2.1,-2.4,25,987.724,-96.7201,-12.5602,-0.574908,-0.524141,-2.26874,
2026_07_06_19_46_39.556,3.873,31,0,0.76,0,0,0,0, ,0,0,0,0,0, ,999.1,-89.7,-19.7,0.4,-2.5,-3.2,25,988.064,-96.2649,-13.041,-0.555109,-0.632358,-2.30111,
2026_07_06_19_46_39.583,3.873,31,0,0.761,0,0,0,0, ,0,0,0,0,0, ,999,-89.3,-3.6,-0.1,-2.7,-2.2,25,988.733,-95.8527,-12.9562,-0.512141,-0.752261,-2.32542,
2026_07_06_19_46_39.595,3.873,31,0,0.758,0,0,0,0, ,0,0,0,0,0, ,996.2,-88.8,-1.2,-2.5,-0.8,-1.5,25,989.273,-95.4381,-12.313,-0.560151,-0.813061,-2.29645,
2026_07_06_19_46_39.621,3.873,31,0,0.761,0,0,0,0, ,0,0,0,0,0, ,996.9,-94.6,-22.3,-3.3,1.5,-0.7,25,989.717,-95.2103,-12.2787,-0.702736,-0.742187,-2.22354,
2026_07_06_19_46_39.634,3.873,31,0,0.761,0,0,0,0, ,0,0,0,0,0, ,990.4,-97.1,-36.9,-1.7,0.2,-0.1,25,989.956,-95.2493,-13.3342,-0.812256,-0.645163,-2.11242,
2026_07_06_19_46_39.661,3.873,31.1,0,0.76,0,0,0,0, ,0,0,0,0,0, ,983.7,-97.6,-30.6,0.3,-2.1,-0.4,25,989.779,-95.3773,-14.5783,-0.805416,-0.663739,-1.99892,
2026_07_06_19_46_39.674,3.873,31,0,0.76,0,0,0,0, ,0,0,0,0,0, ,974.8,-96.1,-10.2,0.6,-2.7,-0.8,25,989.138,-95.4671,-14.933,-0.728914,-0.769542,-1.91368,
2026_07_06_19_46_39.699,3.873,31,0,0.761,0,0,0,0, ,0,0,0,0,0, ,975.2,-97.6,-4,-0.6,-1.3,-1.4,25,988.276,-95.5513,-14.4557,-0.684496,-0.844523,-1.86409,
2026_07_06_19_46_39.714,3.873,31,0,0.76,0,0,0,0, ,0,0,0,0,0, ,978.2,-102.9,-6.1,-1.8,-0.4,-1.5,25,987.571,-95.8377,-13.8825,-0.715909,-0.844857,-1.83886,
2026_07_06_19_46_39.741,3.873,31,0,0.76,0,0,0,0, ,0,0,0,0,0, ,975.8,-104.9,-18.7,-2.3,-0.3,-1.1,25,986.927,-96.329,-13.7922,-0.797205,-0.814702,-1.80602,
2026_07_06_19_46_39.754,3.873,31.1,0,0.76,0,0,0,0, ,0,0,0,0,0, ,975.7,-102,-25.1,-1.3,0.1,-1.6,25,986.246,-96.7629,-14.2863,-0.858313,-0.771149,-1.77823,
2026_07_06_19_46_39.780,3.873,31,0,0.761,0,0,0,0, ,0,0,0,0,0, ,973.1,-97.2,-29.4,-0.4,-1.7,-2.8,25,985.524,-96.9358,-15.0763,-0.857807,-0.772908,-1.80394,
2026_07_06_19_46_39.793,3.873,31,0,0.759,0,0,0,0, ,0,0,0,0,0, ,983.2,-98,-17.2,-0.3,-2.4,-3.4,25,985.074,-96.9763,-15.5774,-0.826862,-0.85073,-1.88291,
2026_07_06_19_46_39.821,3.873,31,0,0.759,0,0,0,0, ,0,0,0,0,0, ,991.3,-98.5,-3.5,-1.1,-0.2,-2.7,25,985.207,-97.0539,-15.2588,-0.819132,-0.878108,-1.95403,
2026_07_06_19_46_39.836,3.873,31.1,0,0.761,0,0,0,0, ,0,0,0,0,0, ,991.4,-98,-9.6,-2.5,1.4,-2.3,25,985.581,-97.1268,-14.7281,-0.878903,-0.788036,-1.9873,
2026_07_06_19_46_39.863,3.873,31,0,0.761,0,0,0,0, ,0,0,0,0,0, ,997.8,-94.1,-26,-2.3,0.4,-1.9,25,986.131,-97.0612,-14.9153,-0.971595,-0.685171,-1.99417,
2026_07_06_19_46_39.873,3.873,31,0,0.76,0,0,0,0, ,0,0,0,0,0, ,993.5,-96.4,-26.6,-0.5,-1.4,-1.3,25,986.711,-96.9508,-15.6091,-0.997701,-0.673887,-1.97015,
2026_07_06_19_46_39.899,3.873,31,0,0.759,0,0,0,0, ,0,0,0,0,0, ,981,-89.3,-10.9,-0.4,-1.4,-1.4,25,986.744,-96.7009,-15.8005,-0.964325,-0.718135,-1.93236,
2026_07_06_19_46_39.912,3.873,31.1,0,0.76,0,0,0,0, ,0,0,0,0,0, ,984.6,-91.7,-7.8,-0.8,-1.1,-1.9,25,986.503,-96.323,-15.4074,-0.942124,-0.750545,-1.91515,
2026_07_06_19_46_39.940,3.873,31,0,0.76,0,0,0,0, ,0,0,0,0,0, ,991.4,-100,-9.2,-1.8,0.7,-2.1,25,986.595,-96.2942,-14.9865,-0.963932,-0.716996,-1.92032,
2026_07_06_19_46_39.952,3.873,31,0,0.761,0,0,0,0, ,0,0,0,0,0, ,988.5,-102.7,-28,-0.6,0.2,-1.4,25,986.799,-96.6023,-15.2067,-0.978318,-0.645882,-1.90995,
2026_07_06_19_46_39.979,3.873,31,0,0.76,0,0,0,0, ,0,0,0,0,0, ,972.5,-99.2,-22.9,0.6,-1.1,-1.9,25,986.415,-96.8672,-15.8309,-0.918702,-0.633946,-1.89411,
2026_07_06_19_46_39.991,3.873,31,0,0.76,0,0,0,0, ,0,0,0,0,0, ,976.8,-92,-11.8,0.6,-3.4,-3.3,25,985.698,-96.79,-15.9235,-0.826156,-0.732424,-1.93712,
2026_07_06_19_46_40.017,3.873,31,0,0.76,0,0,0,0, ,0,0,0,0,0, ,993.5,-98.2,-0.8,-0.2,-0.9,-3.6,25,985.665,-96.687,-15.337,-0.763624,-0.818808,-2.02931,
2026_07_06_19_46_40.030,3.873,31,0,0.76,0,0,0,0, ,0,0,0,0,0, ,990.9,-103,-18,-1.8,0.9,-1.9,25,986.063,-96.9255,-14.9752,-0.778028,-0.768912,-2.07323,
2026_07_06_19_46_40.058,3.873,31,0,0.758,0,0,0,0, ,0,0,0,0,0, ,976.1,-99.1,-26.8,0.2,-0.4,-2.3,25,985.907,-97.1768,-15.4277,-0.779367,-0.706822,-2.07486,
2026_07_06_19_46_40.072,3.873,31,0,0.759,0,0,0,0, ,0,0,0,0,0, ,982.4,-96.8,-8.5,0.4,-2.1,-3.1,25,985.501,-97.2239,-15.5631,-0.713593,-0.739922,-2.11295,
2026_07_06_19_46_40.100,3.873,31.1,0,0.76,0,0,0,0, ,0,0,0,0,0, ,986.3,-96.9,-9.2,-0.2,-0.6,-2.8,25,985.431,-97.2011,-15.154,-0.664015,-0.777098,-2.16396,
2026_07_06_19_46_40.110,3.873,31.1,0,0.76,0,0,0,0, ,0,0,0,0,0, ,986.6,-98.3,-6.5,-1.9,0,-2.7,25,985.493,-97.2254,-14.7089,-0.687536,-0.748025,-2.19967,
2026_07_06_19_46_40.137,3.873,31,0,0.76,0,0,0,0, ,0,0,0,0,0, ,991,-94.7,-17.9,-1.1,-0.3,-2.6,25,985.695,-97.1812,-14.5561,-0.737046,-0.711583,-2.22712,
2026_07_06_19_46_40.149,3.873,31,0,0.76,0,0,0,0, ,0,0,0,0,0, ,992,-91.5,-12.6,-1,-0.4,-2.4,25,986.048,-96.9325,-14.5983,-0.756116,-0.689549,-2.24374,
2026_07_06_19_46_40.178,3.873,31.1,0,0.76,0,0,0,0, ,0,0,0,0,0, ,992.7,-91.5,-17.3,-0.9,-1.3,-2.1,25,986.432,-96.6015,-14.6198,-0.767931,-0.699326,-2.24413,
2026_07_06_19_46_40.189,3.873,31,0,0.76,0,0,0,0, ,0,0,0,0,0, ,994,-90.2,-10.8,-0.2,-1.7,-1.9,25,986.854,-96.251,-14.5851,-0.754651,-0.748117,-2.22925,
2026_07_06_19_46_40.215,3.873,31.1,0,0.76,0,0,0,0, ,0,0,0,0,0, ,987.6,-89.5,3,-1.9,-0.8,-1.4,25,987.094,-95.8609,-13.9339,-0.772649,-0.778701,-2.19395,
2026_07_06_19_46_40.233,3.873,31,0,0.759,0,0,0,0, ,0,0,0,0,0, ,980.1,-93,-15.3,-2.4,1.5,-1.8,25,986.897,-95.58,-13.4596,-0.856581,-0.709921,-2.15776,
2026_07_06_19_46_40.262,3.873,31,0,0.759,0,0,0,0, ,0,0,0,0,0, ,980.1,-92.4,-21.6,-1.4,0,-3.1,25,986.483,-95.4045,-13.7637,-0.920164,-0.620957,-2.17557,
2026_07_06_19_46_40.269,3.873,31.1,0,0.76,0,0,0,0, ,0,0,0,0,0, ,993.6,-96.3,-25.1,-0.3,-1,-2.9,25,986.505,-95.3402,-14.3479,-0.915889,-0.613586,-2.2258,
2026_07_06_19_46_40.296,3.873,31.1,0,0.76,0,0,0,0, ,0,0,0,0,0, ,990.2,-94.7,-25.8,-0.5,0.3,-1.8,25,986.834,-95.35,-15.0244,-0.884452,-0.597524,-2.23337,
2026_07_06_19_46_40.308,3.873,31,0,0.759,0,0,0,0, ,0,0,0,0,0, ,985.1,-91.5,-30.3,-0.1,0.2,-2,25,986.883,-95.2128,-15.8181,-0.848837,-0.545878,-2.21306,
2026_07_06_19_46_40.336,3.873,31,0,0.76,0,0,0,0, ,0,0,0,0,0, ,991.3,-89.3,-26.8,1.3,-1.1,-3.1,25,986.964,-94.9196,-16.594,-0.760548,-0.540035,-2.23359,
2026_07_06_19_46_40.348,3.873,31.1,0,0.76,0,0,0,0, ,0,0,0,0,0, ,998.2,-91.3,-10,1.7,-2.6,-2.3,25,987.438,-94.6381,-16.704,-0.622796,-0.619861,-2.26201,
2026_07_06_19_46_40.376,3.873,31,0,0.758,0,0,0,0, ,0,0,0,0,0, ,987.5,-92.5,5.8,0.6,-0.5,-1.6,25,987.768,-94.4712,-15.8141,-0.514766,-0.676542,-2.243,
2026_07_06_19_46_40.387,3.873,31.1,0,0.759,0,0,0,0, ,0,0,0,0,0, ,981.9,-92.6,-1.7,-1.5,1,-2,25,987.581,-94.3541,-14.7255,-0.51082,-0.62008,-2.216,
2026_07_06_19_46_40.416,3.873,31,0,0.76,0,0,0,0, ,0,0,0,0,0, ,984,-97.6,-16.6,-0.8,0.1,-2.3,25,987.299,-94.3996,-14.3858,-0.54977,-0.548779,-2.21198,
2026_07_06_19_46_40.427,3.873,31.1,0,0.761,0,0,0,0, ,0,0,0,0,0, ,980.2,-98.8,-5.6,0.1,-0.9,-1.8,25,986.982,-94.6312,-14.1855,-0.537596,-0.539712,-2.20211,
2026_07_06_19_46_40.454,3.873,31,0,0.76,0,0,0,0, ,0,0,0,0,0, ,976.9,-96.4,-3.2,-1.4,-0.5,-2.2,25,986.468,-94.8121,-13.5892,-0.544446,-0.54948,-2.18979,
2026_07_06_19_46_40.466,3.873,31.1,0,0.758,0,0,0,0, ,0,0,0,0,0, ,989.2,-91.5,-12.8,-1.2,0.4,-2.9,25,986.26,-94.7596,-13.2486,-0.590487,-0.519043,-2.21174,
2026_07_06_19_46_40.494,3.873,31.1,0,0.76,0,0,0,0, ,0,0,0,0,0, ,988.6,-91.1,-14.5,-0.6,-0.8,-2.9,25,986.421,-94.5487,-13.2731,-0.609348,-0.499601,-2.25369,
2026_07_06_19_46_40.506,3.873,31,0,0.76,0,0,0,0, ,0,0,0,0,0, ,985.2,-91.7,-12.6,-0.7,-1.4,-2.3,25,986.45,-94.3569,-13.29,-0.611826,-0.536188,-2.27479,
2026_07_06_19_46_40.533,3.873,31,0,0.76,0,0,0,0, ,0,0,0,0,0, ,985.4,-90.8,-6.1,-1,-1.2,-2.1,25,986.38,-94.1675,-13.0499,-0.626339,-0.582733,-2.27023,
2026_07_06_19_46_40.546,3.873,31,0,0.76,0,0,0,0, ,0,0,0,0,0, ,981.5,-87.5,-9.2,-1.7,-0.3,-2.7,25,986.201,-93.8618,-12.7208,-0.670437,-0.592926,-2.27814,
2026_07_06_19_46_40.573,3.873,31.1,0,0.76,0,0,0,0, ,0,0,0,0,0, ,994.1,-89.8,-19,-2.5,0,-2.8,25,986.299,-93.5442,-12.8049,-0.757551,-0.565935,-2.30689,
2026_07_06_19_46_40.585,3.873,31.1,0,0.76,0,0,0,0, ,0,0,0,0,0, ,996,-93.8,-26.7,-1.7,0.6,-1.1,25,986.832,-93.4379,-13.417,-0.839357,-0.513167,-2.28515,
2026_07_06_19_46_40.613,3.873,31,0,0.76,0,0,0,0, ,0,0,0,0,0, ,984.6,-95.4,-23.3,-1.4,0.8,-0.3,25,987.043,-93.5087,-14.1228,-0.882662,-0.43924,-2.18855,
2026_07_06_19_46_40.625,3.873,31.1,0,0.76,0,0,0,0, ,0,0,0,0,0, ,957.1,-101.5,-31.2,-1.3,0.6,-0.2,25,986.057,-93.8098,-14.9228,-0.91114,-0.369817,-2.07042,
2026_07_06_19_46_40.654,3.873,31,0,0.758,0,0,0,0, ,0,0,0,0,0, ,949.5,-92.7,-31.6,0.6,0,-2.9,25,984.06,-94.0103,-15.9268,-0.876946,-0.329,-2.03871,
2026_07_06_19_46_40.665,3.873,31,0,0.76,0,0,0,0, ,0,0,0,0,0, ,967.4,-85.6,-18.5,1.1,-0.8,-3.9,25,982.5,-93.7141,-16.4828,-0.77171,-0.333327,-2.12166,
2026_07_06_19_46_40.693,3.873,31.1,0,0.761,0,0,0,0, ,0,0,0,0,0, ,968.6,-85.3,-8.7,0.9,-0.2,-2.5,25,981.616,-93.2105,-16.3071,-0.663746,-0.343483,-2.18737,
2026_07_06_19_46_40.705,3.873,31,0,0.759,0,0,0,0, ,0,0,0,0,0, ,950.4,-96.4,-8.6,0.2,0.3,-1.2,25,980.269,-93.0667,-15.8405,-0.589784,-0.319506,-2.16681,
2026_07_06_19_46_40.734,3.873,31.1,0,0.759,0,0,0,0, ,0,0,0,0,0, ,937.3,-93.3,-34.6,0.1,1.3,-3.2,25,978.049,-93.1754,-16.1915,-0.544703,-0.251286,-2.16884,
2026_07_06_19_46_40.744,3.873,31,0,0.759,0,0,0,0, ,0,0,0,0,0, ,933.9,-81.7,-30.2,2.4,-0.7,-4.2,25,975.463,-92.8295,-17.1792,-0.435338,-0.217692,-2.26214,
2026_07_06_19_46_40.772,3.873,31,0,0.761,0,0,0,0, ,0,0,0,0,0, ,933.2,-75.5,3.9,-0.2,-3.6,-1.9,25,972.909,-91.9624,-16.9337,-0.341779,-0.335442,-2.31015,
2026_07_06_19_46_40.784,3.873,31,0,0.759,0,0,0,0, ,0,0,0,0,0, ,906.1,-66.5,61.1,-4.5,-3.6,0.8,25,969.663,-90.685,-13.9213,-0.464155,-0.534376,-2.20289,
2026_07_06_19_46_40.813,3.873,31.2,0,0.76,0,0,0,0, ,0,0,0,0,0, ,896.7,-89.8,68.8,-16.9,4.6,2.7,25,965.503,-89.9212,-9.11508,-1.0879,-0.471343,-1.96201,
2026_07_06_19_46_40.823,3.873,31.1,0,0.761,0,0,0,0, ,0,0,0,0,0, ,867.3,-89.5,29.4,-27.1,23,4.1,25,960.415,-89.9046,-5.5676,-2.36223,0.398316,-1.63526,
2026_07_06_19_46_40.851,3.873,31.1,0,0.759,0,0,0,0, ,0,0,0,0,0, ,818.4,-93.9,-24,-32.8,26.7,2.1,25,953.251,-90.014,-5.06379,-4.04336,1.88834,-1.34671,
2026_07_06_19_46_40.863,3.873,31.1,0,0.76,0,0,0,0, ,0,0,0,0,0, ,806.2,-97.7,-66.8,-30.1,18.9,-1.6,25,944.662,-90.3666,-7.52178,-5.71345,3.16264,-1.24941,
2026_07_06_19_46_40.893,3.873,31.1,0,0.759,0,0,0,0, ,0,0,0,0,0, ,798.8,-86.1,-60.6,-22.4,8.5,-4.9,25,935.999,-90.4601,-10.9451,-6.9649,3.80476,-1.37132,
2026_07_06_19_46_40.902,3.873,31,0,0.759,0,0,0,0, ,0,0,0,0,0, ,785.8,-77.5,-12.8,-16.7,-0.8,-9.4,25,927.242,-89.9323,-12.5146,-7.7318,3.80752,-1.72346,
2026_07_06_19_46_40.930,3.873,31,0,0.76,0,0,0,0, ,0,0,0,0,0, ,790.8,-102,36.2,-17.8,-7.7,-15.1,25,918.775,-89.9212,-11.039,-8.31182,3.31652,-2.36492,
2026_07_06_19_46_40.941,3.873,31,0,0.759,0,0,0,0, ,0,0,0,0,0, ,810.3,-85.2,55.2,-21.4,-5.8,-19.2,25,911.571,-90.1454,-7.58147,-8.99969,2.70309,-3.26589,
2026_07_06_19_46_40.971,3.873,31,0,0.76,0,0,0,0, ,0,0,0,0,0, ,855.4,-55.5,58.2,-27.3,-4,-23.2,25,906.774,-88.9391,-3.66432,-9.9351,2.23977,-4.35875,
2026_07_06_19_46_40.981,3.873,31,0,0.759,0,0,0,0, ,0,0,0,0,0, ,922.1,-56,21.1,-30,-7,-24.2,25,905.675,-86.9167,-1.02485,-11.0755,1.76813,-5.53735,
2026_07_06_19_46_41.010,3.873,31.1,0,0.759,0,0,0,0, ,0,0,0,0,0, ,937.8,-65.3,38.2,-28.2,-6.6,-17.9,25,907.155,-85.316,0.844399,-12.1739,1.24601,-6.48266,
2026_07_06_19_46_41.021,3.873,31.1,0,0.761,0,0,0,0, ,0,0,0,0,0, ,892,-88.7,40.7,-33.1,-6.4,-15.4,25,907.627,-84.8093,3.19693,-13.2998,0.773989,-7.10223,
2026_07_06_19_46_41.051,3.873,31.1,0,0.76,0,0,0,0, ,0,0,0,0,0, ,893.7,-38.9,15.6,-34.2,-4.3,-21.1,25,906.726,-83.529,4.71751,-14.5399,0.400809,-7.78155,
2026_07_06_19_46_41.060,3.873,31.1,0,0.76,0,0,0,0, ,0,0,0,0,0, ,946.7,-13.5,-11.3,-31.4,-7.8,-23.9,25,907.547,-80.0355,4.56105,-15.6526,0.00771261,-8.67845,
2026_07_06_19_46_41.088,3.873,31.1,0,0.76,0,0,0,0, ,0,0,0,0,0, ,953.6,-35.4,8.5,-28.7,-10.1,-23.2,25,910.143,-76.6483,4.1978,-16.53,-0.538148,-9.58469,
2026_07_06_19_46_41.100,3.873,31.1,0,0.76,0,0,0,0, ,0,0,0,0,0, ,962.8,-87.2,20.6,-31.1,-4.6,-20.9,25,913.072,-75.713,4.82863,-17.3447,-0.953245,-10.3443,
2026_07_06_19_46_41.129,3.873,31.1,0,0.761,0,0,0,0, ,0,0,0,0,0, ,955,-67,0.1,-36.6,3.7,-20.2,25,915.864,-75.7975,5.16509,-18.3505,-0.922579,-10.9662,
2026_07_06_19_46_41.140,3.873,31,0,0.76,0,0,0,0, ,0,0,0,0,0, ,986.8,-9.2,-44.4,-37.1,7.3,-21,25,919.218,-73.5003,3.50058,-19.4778,-0.531203,-11.5533,
2026_07_06_19_46_41.169,3.873,31.1,0,0.76,0,0,0,0, ,0,0,0,0,0, ,994,22.7,-50.4,-33.4,4.1,-17.8,25,923.556,-68.6101,0.398825,-20.4389,-0.151489,-12.0314,
2026_07_06_19_46_41.180,3.873,31.1,0,0.76,0,0,0,0, ,0,0,0,0,0, ,1050,-13.7,-12.3,-31.6,-3.2,-12.9,25,929.555,-64.1549,-1.53587,-21.1739,-0.114836,-12.2336,
2026_07_06_19_46_41.210,3.873,31.2,0,0.76,0,0,0,0, ,0,0,0,0,0, ,997.5,-24,-15.3,-29.1,-0.5,-11.1,25,935.295,-61.3942,-2.28321,-21.7331,-0.220572,-12.2194,
2026_07_06_19_46_41.219,3.873,31.2,0,0.76,0,0,0,0, ,0,0,0,0,0, ,950.3,-29.6,-10.1,-33.7,7.6,-2.7,25,937.647,-59.2861,-2.91799,-22.3221,0.00919696,-11.8953,
2026_07_06_19_46_41.246,3.873,31,0,0.76,0,0,0,0, ,0,0,0,0,0, ,920.5,31.9,-13.5,-27.3,6.1,-8.8,25,937.51,-55.6033,-3.45923,-22.8205,0.426058,-11.5208,
2026_07_06_19_46_41.259,3.873,31.1,0,0.76,0,0,0,0, ,0,0,0,0,0, ,991.4,18,-3.6,-23.8,-1.7,-12.7,25,938.634,-50.6945,-3.76945,-22.9868,0.534158,-11.4738,
2026_07_06_19_46_41.289,3.873,31.1,0,0.759,0,0,0,0, ,0,0,0,0,0, ,1031.4,14.1,10.3,-22.6,-1.2,-8.3,25,943.068,-46.6273,-3.33561,-22.9998,0.413248,-11.4145,
2026_07_06_19_46_41.298,3.873,31,0,0.761,0,0,0,0, ,0,0,0,0,0, ,1000.1,-17.7,26.4,-25,9.2,6.4,25,947.497,-43.8956,-2.01414,-23.0486,0.631816,-10.7768,
2026_07_06_19_46_41.327,3.873,31,0,0.76,0,0,0,0, ,0,0,0,0,0, ,895.7,-24.4,15,-29.6,17.6,6.9,25,947.522,-42.5035,-0.630002,-23.3076,1.40988,-9.71485,
2026_07_06_19_46_41.338,3.873,31.1,0,0.761,0,0,0,0, ,0,0,0,0,0, ,862.1,6.2,-6.5,-30,12.2,-5.5,25,943.34,-40.468,-0.332627,-23.7033,2.23193,-9.08019,
2026_07_06_19_46_41.367,3.873,31.1,0,0.76,0,0,0,0, ,0,0,0,0,0, ,979.4,7.8,-12.3,-27.9,9.8,-11.7,25,941.964,-37.5754,-0.88517,-24.023,2.76624,-9.05093,
2026_07_06_19_46_41.377,3.873,31.1,0,0.761,0,0,0,0, ,0,0,0,0,0, ,1004.7,15.7,-14,-28.1,17.2,3,25,945.016,-34.5696,-1.63256,-24.2653,3.42032,-8.76447,
2026_07_06_19_46_41.407,3.873,31.1,0,0.76,0,0,0,0, ,0,0,0,0,0, ,955,-2.5,5.9,-21.6,16.1,-0.7,25,947.138,-32.0608,-1.77987,-24.301,4.22651,-8.1603,
2026_07_06_19_46_41.417,3.873,31,0,0.76,0,0,0,0, ,0,0,0,0,0, ,969.3,-24.5,-38.2,-19.4,14.4,-2.1,25,948.053,-30.9298,-2.65555,-24.0693,4.89825,-7.74835,
2026_07_06_19_46_41.447,3.873,31.1,0,0.761,0,0,0,0, ,0,0,0,0,0, ,939,2.3,-52.6,-15.1,32.1,3.7,25,948.425,-29.7214,-5.26029,-23.6538,6.01656,-7.22743,
2026_07_06_19_46_41.457,3.873,31.1,0,0.76,0,0,0,0, ,0,0,0,0,0, ,896.1,62.3,-1.2,-10.4,24.9,-6.2,25,946.543,-25.942,-6.57896,-22.9893,7.38665,-6.86318,
2026_07_06_19_46_41.485,3.873,31.2,0,0.76,0,0,0,0, ,0,0,0,0,0, ,1025.6,47.7,-50.7,-7.2,-6,-13,25,947.415,-21.0096,-7.75938,-22.1247,7.51238,-7.02996,
2026_07_06_19_46_41.497,3.873,31.1,0,0.761,0,0,0,0, ,0,0,0,0,0, ,1112.7,34.9,-26,-6,-21,-0.8,25,954.833,-17.2126,-9.6235,-21.1786,6.23194,-7.02204,
2026_07_06_19_46_41.526,3.873,31.2,0,0.761,0,0,0,0, ,0,0,0,0,0, ,1035.6,-34,-17.7,8,6.1,16.2,25,962.104,-16.1363,-10.3686,-19.8271,5.3982,-6.12491,
2026_07_06_19_46_41.536,3.873,31.1,0,0.76,0,0,0,0, ,0,0,0,0,0, ,868.5,-8.1,72.6,7.6,28,13.4,25,961.491,-16.4357,-8.06398,-18.1436,6.10823,-4.8498,
2026_07_06_19_46_41.565,3.873,31.1,0,0.76,0,0,0,0, ,0,0,0,0,0, ,833.1,6.4,20.1,-4.7,19.6,0.7,25,954.746,-15.486,-4.74813,-16.9496,7.18632,-4.12466,
2026_07_06_19_46_41.575,3.873,31.1,0,0.76,0,0,0,0, ,0,0,0,0,0, ,923.2,21.2,-37.2,-3.7,7.8,-5.3,25,950.079,-13.7013,-4.97981,-16.1727,7.58325,-4.01347,
2026_07_06_19_46_41.605,3.873,31,0,0.76,0,0,0,0, ,0,0,0,0,0, ,968.2,31.8,-14,8.9,-7,-7.4,25,949.812,-11.2516,-6.23635,-15.0287,7.14552,-4.15585,
2026_07_06_19_46_41.615,3.873,31.1,0,0.759,0,0,0,0, ,0,0,0,0,0, ,1008.9,7.5,41.2,20.2,-4.1,-16.3,25,952.172,-9.36851,-5.02757,-13.2263,6.37189,-4.62471,
2026_07_06_19_46_41.644,3.873,31.1,0,0.759,0,0,0,0, ,0,0,0,0,0, ,1036.3,12.4,79.1,24.6,2.3,-19.9,25,956.464,-8.19129,-1.05581,-11.0553,5.92875,-5.44586,
2026_07_06_19_46_41.655,3.873,31.1,0,0.76,0,0,0,0, ,0,0,0,0,0, ,1061.2,44.1,114,21.5,8.7,-21.4,25,962.088,-5.97065,4.89204,-8.977,5.90263,-6.37237,
2026_07_06_19_46_41.684,3.873,31,0,0.76,0,0,0,0, ,0,0,0,0,0, ,1088.2,68.1,108.5,13.6,-8.1,-30.5,25,968.95,-2.18822,11.3732,-7.36052,5.56122,-7.56538,
2026_07_06_19_46_41.697,3.873,31.1,0,0.76,0,0,0,0, ,0,0,0,0,0, ,1209.3,68.4,91.6,5.3,-13.5,-31.7,25,979.907,2.10411,16.777,-6.33612,4.56421,-8.99952,
2026_07_06_19_46_41.727,3.873,31.1,0,0.761,0,0,0,0, ,0,0,0,0,0, ,1271.6,48,79.1,12.7,20.8,-20.1,25,995.784,5.52245,20.9556,-5.40158,4.5085,-10.0294,
2026_07_06_19_46_41.734,3.873,31.1,0,0.76,0,0,0,0, ,0,0,0,0,0, ,1246.7,41.6,131.8,16.9,41.6,-7.4,25,1011.83,7.91593,26.1045,-4.17055,6.13501,-10.2561,
2026_07_06_19_46_41.764,3.873,31.1,0,0.759,0,0,0,0, ,0,0,0,0,0, ,1183.3,41,122.5,14.6,35.2,-2.8,25,1024.21,9.95027,32.262,-2.95664,8.10116,-9.94192,
2026_07_06_19_46_41.773,3.873,31.1,0,0.76,0,0,0,0, ,0,0,0,0,0, ,1119.9,42.2,120.3,14.7,22.6,-0.5,25,1031.98,11.8789,37.6938,-1.88373,9.36859,-9.43663,
2026_07_06_19_46_41.802,3.873,31.1,0,0.76,0,0,0,0, ,0,0,0,0,0, ,1080.3,53.9,156.4,13.3,24.3,2.9,25,1036.13,14.0831,43.8276,-0.915819,10.2267,-8.78846,
2026_07_06_19_46_41.813,3.873,31,0,0.759,0,0,0,0, ,0,0,0,0,0, ,1054,59.5,184.8,12.3,26.8,-4.5,25,1038.02,16.6801,51.5527,-0.080011,11.1604,-8.30166,
2026_07_06_19_46_41.843,3.873,31.1,0,0.76,0,0,0,0, ,0,0,0,0,0, ,1079.2,53.4,164.9,8.3,21.7,-9.9,25,1039.76,19.1035,59.0662,0.552521,11.9581,-8.23453,
2026_07_06_19_46_41.849,3.873,31.1,0,0.76,0,0,0,0, ,0,0,0,0,0, ,1096.4,45.4,148.1,8.3,20.2,-9.4,25,1042.69,20.9497,65.0035,1.02463,12.506,-8.32078,
2026_07_06_19_46_41.883,3.873,31.1,0,0.759,0,0,0,0, ,0,0,0,0,0, ,1036.1,48,166.2,11.8,17.6,-3.1,25,1044.12,22.5189,70.6187,1.57462,12.8957,-8.1946,
2026_07_06_19_46_41.892,3.873,31.1,0,0.76,0,0,0,0, ,0,0,0,0,0, ,999.7,56,193.9,13,12.3,-7.8,25,1042.52,24.3154,77.2872,2.23429,13.0208,-8.02735,
2026_07_06_19_46_41.923,3.873,31.1,0,0.761,0,0,0,0, ,0,0,0,0,0, ,1020.6,57,178.5,8,7.8,-9.8,25,1040.55,26.2766,83.9241,2.73798,12.8398,-8.07443,
2026_07_06_19_46_41.931,3.873,31.1,0,0.76,0,0,0,0, ,0,0,0,0,0, ,1038.9,54.6,158,8.3,11.2,-6.3,25,1039.89,28.0757,89.0627,3.06777,12.6363,-8.07294,
2026_07_06_19_46_41.961,3.873,31.1,0,0.76,0,0,0,0, ,0,0,0,0,0, ,1008.5,68.3,172.7,9.3,12.5,-0.8,25,1038.91,30.1095,93.7114,3.41708,12.5884,-7.79732,
2026_07_06_19_46_41.971,3.873,31,0,0.759,0,0,0,0, ,0,0,0,0,0, ,991.9,77.8,188.4,8.3,8.1,-1.5,25,1036.55,32.7262,99.0032,3.7451,12.4489,-7.39225,
2026_07_06_19_46_42.002,3.873,31.1,0,0.761,0,0,0,0, ,0,0,0,0,0, ,1008,75.1,188.9,7.3,5,-3.2,25,1034.32,35.3906,104.466,3.9922,12.0895,-7.08499,
2026_07_06_19_46_42.011,3.873,31.1,0,0.76,0,0,0,0, ,0,0,0,0,0, ,1039.3,65.5,198.1,8.6,-1.2,-3.7,25,1033.67,37.5179,109.892,4.23338,11.4685,-6.86348,
2026_07_06_19_46_42.041,3.873,31.1,0,0.759,0,0,0,0, ,0,0,0,0,0, ,1039.1,68.6,184.8,8.6,-0.8,1.1,25,1034,39.3175,114.861,4.49947,10.7087,-6.52446,
2026_07_06_19_46_42.051,3.873,31,0,0.76,0,0,0,0, ,0,0,0,0,0, ,1033.5,63.8,198.4,9.2,0.8,1.9,25,1034.14,40.9556,119.538,4.76763,10.0562,-6.03547,
2026_07_06_19_46_42.082,3.873,31,0,0.762,0,0,0,0, ,0,0,0,0,0, ,1054.6,57.8,183.5,4.6,-8,3.1,25,1034.75,42.1649,123.889,4.89757,9.224,-5.51534,
2026_07_06_19_46_42.090,3.873,31.1,0,0.76,0,0,0,0, ,0,0,0,0,0, ,1062.3,42.6,155.6,5.8,-0.8,5.8,25,1036.19,42.6545,126.672,4.916,8.39379,-4.90808,
2026_07_06_19_46_42.120,3.873,31,0,0.76,0,0,0,0, ,0,0,0,0,0, ,1028.1,46.9,178.5,10,8,6.3,25,1036.74,42.7822,129.132,5.09783,8.10167,-4.24032,
2026_07_06_19_46_42.130,3.873,31.1,0,0.761,0,0,0,0, ,0,0,0,0,0, ,1033.6,34.9,194.4,7.6,4.5,5.3,25,1036.38,42.6675,132.625,5.32344,7.98883,-3.62849,
2026_07_06_19_46_42.161,3.873,31.2,0,0.76,0,0,0,0, ,0,0,0,0,0, ,1039.1,30.2,184.2,5.1,-3.8,6.2,25,1036.38,42.051,136.079,5.38599,7.52334,-3.05698,
2026_07_06_19_46_42.170,3.873,31.1,0,0.759,0,0,0,0, ,0,0,0,0,0, ,1034.6,26.4,188.3,5,-1,6.9,25,1036.41,41.213,139.136,5.36552,6.91864,-2.47156,
2026_07_06_19_46_42.199,3.873,31.2,0,0.76,0,0,0,0, ,0,0,0,0,0, ,1018,38.2,202.6,5.1,6.7,6.4,25,1035.79,40.6699,142.568,5.34629,6.67071,-1.91571,
2026_07_06_19_46_42.209,3.873,31.1,0,0.759,0,0,0,0, ,0,0,0,0,0, ,1025.6,37.2,197.2,4.5,6.4,4.9,25,1034.94,40.4889,146.061,5.313,6.66335,-1.45468,
2026_07_06_19_46_42.240,3.873,31.1,0,0.76,0,0,0,0, ,0,0,0,0,0, ,1030.6,27.3,183.8,3,0.8,4.7,25,1034.52,39.9869,148.769,5.21776,6.47668,-1.07353,
2026_07_06_19_46_42.248,3.873,31.1,0,0.76,0,0,0,0, ,0,0,0,0,0, ,1014,29.7,194.8,4,-2.5,5,25,1033.78,39.2869,151.239,5.11308,6.03021,-0.712569,
2026_07_06_19_46_42.278,3.873,31.1,0,0.76,0,0,0,0, ,0,0,0,0,0, ,980.8,38.5,221,3.4,-2.1,3.7,25,1031.56,38.9708,154.692,5.02697,5.52259,-0.404069,
2026_07_06_19_46_42.290,3.873,31.1,0,0.762,0,0,0,0, ,0,0,0,0,0, ,1018,44.1,210.8,0.1,-1.3,0,25,1029.6,39.1127,158.422,4.82728,5.08246,-0.266711,
2026_07_06_19_46_42.322,3.873,31,0,0.759,0,0,0,0, ,0,0,0,0,0, ,1112,45.8,177.4,-1,-1.3,5.5,25,1031.76,39.4685,160.596,4.5057,4.69353,-0.0828804,
2026_07_06_19_46_42.328,3.873,31.1,0,0.759,0,0,0,0, ,0,0,0,0,0, ,973.9,54.3,184.5,-0.5,3.1,10.6,25,1032.44,40.1133,161.836,4.18543,4.46236,0.412717,
2026_07_06_19_46_42.358,3.873,31.1,0,0.761,0,0,0,0, ,0,0,0,0,0, ,954.2,43,180.1,0.4,0.1,5.3,25,1028.27,40.6335,163.083,3.92733,4.28794,0.87202,
2026_07_06_19_46_42.367,3.873,31.1,0,0.76,0,0,0,0, ,0,0,0,0,0, ,964.9,35.8,153.8,0.7,-6,2.3,25,1024.09,40.5583,163.319,3.72152,3.84687,1.05044,
2026_07_06_19_46_42.400,3.873,31,0,0.759,0,0,0,0, ,0,0,0,0,0, ,972.2,34.4,166.2,4,-8,0.5,25,1020.7,40.2257,163.117,3.63795,3.18589,1.07174,
2026_07_06_19_46_42.407,3.873,31.1,0,0.76,0,0,0,0, ,0,0,0,0,0, ,975.8,40.6,181.1,0.7,-8.6,2,25,1017.86,40.0596,163.759,3.55946,2.48597,1.08261,
2026_07_06_19_46_42.437,3.873,31.1,0,0.76,0,0,0,0, ,0,0,0,0,0, ,977.1,37.2,173.9,-1.6,-10.1,0.1,25,1015.33,39.9889,164.596,3.31514,1.76472,1.08062,
2026_07_06_19_46_42.446,3.873,31.1,0,0.76,0,0,0,0, ,0,0,0,0,0, ,979.6,33.5,144.8,-0.3,-11.2,-1.7,25,1013.08,39.7063,164.276,3.05523,1.00819,0.96602,
2026_07_06_19_46_42.478,3.873,31.1,0,0.76,0,0,0,0, ,0,0,0,0,0, ,991,33.9,123.6,0.3,-9.2,-2,25,1011.39,39.3402,162.444,2.86905,0.325195,0.794419,
2026_07_06_19_46_42.486,3.873,31.1,0,0.761,0,0,0,0, ,0,0,0,0,0, ,977.4,29.5,126.8,1.6,-5.7,-0.9,25,1009.73,38.8747,160.174,2.75211,-0.148605,0.65765,
2026_07_06_19_46_42.516,3.873,31.1,0,0.761,0,0,0,0, ,0,0,0,0,0, ,989.2,23.3,133.5,3.3,-2.1,0.4,25,1008.12,38.1145,158.344,2.7337,-0.377206,0.60234,
2026_07_06_19_46_42.525,3.873,31.1,0,0.76,0,0,0,0, ,0,0,0,0,0, ,984.7,24.1,130.1,3.9,0.5,1.3,25,1006.83,37.2361,156.727,2.78649,-0.40297,0.617431,
2026_07_06_19_46_42.557,3.873,31.2,0,0.76,0,0,0,0, ,0,0,0,0,0, ,974.1,24.6,140.2,2.8,1,1.7,25,1005.16,36.4509,155.412,2.82083,-0.332711,0.671213,
2026_07_06_19_46_42.565,3.873,31,0,0.76,0,0,0,0, ,0,0,0,0,0, ,970.7,32.5,150.5,2.3,0.7,2.7,25,1003.16,35.9694,154.799,2.80432,-0.260639,0.764373,
2026_07_06_19_46_42.596,3.873,31.1,0,0.759,0,0,0,0, ,0,0,0,0,0, ,987.1,30.1,151.9,2.8,0,2.7,25,1001.68,35.6849,154.58,2.78883,-0.223429,0.882326,
2026_07_06_19_46_42.604,3.873,31,0,0.76,0,0,0,0, ,0,0,0,0,0, ,979.9,20.3,145.3,3.9,-0.6,1.6,25,1000.57,35.0459,154.215,2.82302,-0.228095,0.959575,
2026_07_06_19_46_42.636,3.873,31.1,0,0.76,0,0,0,0, ,0,0,0,0,0, ,983.8,15.3,145.3,4.5,-2.3,0.8,25,999.434,33.995,153.672,2.90693,-0.302555,0.974226,
2026_07_06_19_46_42.645,3.873,31.1,0,0.761,0,0,0,0, ,0,0,0,0,0, ,973.7,15.5,147,3.5,-0.9,1.5,25,998.173,32.8619,153.214,2.97354,-0.381618,0.984937,
2026_07_06_19_46_42.676,3.873,31.1,0,0.759,0,0,0,0, ,0,0,0,0,0, ,977,17.5,160.2,2.9,-2.1,0.8,25,996.783,31.8648,153.237,2.98734,-0.449769,0.994995,
2026_07_06_19_46_42.684,3.873,31.1,0,0.76,0,0,0,0, ,0,0,0,0,0, ,976.8,19.8,163.5,-1,-4.9,-1.4,25,995.571,31.0596,153.762,2.86319,-0.635642,0.916082,
2026_07_06_19_46_42.717,3.873,31.1,0,0.76,0,0,0,0, ,0,0,0,0,0, ,988.1,6.1,148.9,0.2,-4.4,-1.7,25,994.771,29.956,153.911,2.66434,-0.880267,0.765805,
2026_07_06_19_46_42.724,3.873,31.1,0,0.76,0,0,0,0, ,0,0,0,0,0, ,988.1,3.7,128.6,2.7,-1.6,-0.7,25,994.365,28.4292,152.987,2.59034,-1.00944,0.646013,
2026_07_06_19_46_42.754,3.873,31.1,0,0.76,0,0,0,0, ,0,0,0,0,0, ,980.3,10.3,126.4,4.4,1,-0.9,25,993.745,27.1233,151.434,2.64882,-0.966207,0.557897,
2026_07_06_19_46_42.763,3.873,31.1,0,0.76,0,0,0,0, ,0,0,0,0,0, ,978.3,15.8,151.6,4,1.4,-1.1,25,992.865,26.2657,150.676,2.74335,-0.834204,0.462963,
2026_07_06_19_46_42.795,3.873,31.1,0,0.76,0,0,0,0, ,0,0,0,0,0, ,981.6,17.8,155.7,0.8,-0.5,-1.6,25,992.078,25.6889,150.857,2.72242,-0.755948,0.352485,
2026_07_06_19_46_42.803,3.873,31.1,0,0.76,0,0,0,0, ,0,0,0,0,0, ,982.7,17.2,146.9,-1.6,-1.2,-1.8,25,991.473,25.1899,150.884,2.53215,-0.761679,0.227412,
2026_07_06_19_46_42.834,3.873,31.1,0,0.76,0,0,0,0, ,0,0,0,0,0, ,977.7,20.3,136.9,1.5,-0.4,-1.5,25,990.786,24.7975,150.337,2.3748,-0.764014,0.113007,
2026_07_06_19_46_42.843,3.873,31.2,0,0.761,0,0,0,0, ,0,0,0,0,0, ,981.6,20.2,145.6,2.3,0.6,-1.1,25,990.108,24.5203,149.783,2.34587,-0.711363,0.0269021,
2026_07_06_19_46_42.874,3.873,31.1,0,0.759,0,0,0,0, ,0,0,0,0,0, ,979.7,21.6,147.9,1.3,0.8,-1.6,25,989.531,24.2997,149.598,2.3126,-0.625358,-0.0570029,
2026_07_06_19_46_42.882,3.873,31.1,0,0.76,0,0,0,0, ,0,0,0,0,0, ,982.7,16.6,152.8,0.8,0,-1.5,25,989.024,23.9829,149.644,2.23566,-0.562876,-0.147982,
2026_07_06_19_46_42.914,3.873,31.2,0,0.76,0,0,0,0, ,0,0,0,0,0, ,979.7,14.5,143.5,0.6,-0.2,-1.2,25,988.547,23.469,149.553,2.14208,-0.534669,-0.22123,
2026_07_06_19_46_42.921,3.873,31.1,0,0.76,0,0,0,0, ,0,0,0,0,0, ,980.7,13.6,139.2,2.3,0.8,-0.7,25,988.038,22.895,149.053,2.09991,-0.483807,-0.26564,
2026_07_06_19_46_42.952,3.873,31.1,0,0.76,0,0,0,0, ,0,0,0,0,0, ,979.7,19,153.3,1.4,1,-0.7,25,987.561,22.4931,148.882,2.08468,-0.399481,-0.292109,
2026_07_06_19_46_42.964,3.873,31,0,0.76,0,0,0,0, ,0,0,0,0,0, ,979,17,157.4,-1,-0.3,-1.7,25,987.06,22.2193,149.276,1.96983,-0.353809,-0.347433,
2026_07_06_19_46_42.996,3.873,31,0,0.76,0,0,0,0, ,0,0,0,0,0, ,984.4,9.1,147.4,0.7,-0.1,-2,25,986.734,21.6606,149.467,1.84066,-0.344437,-0.438996,
2026_07_06_19_46_43.000,3.873,31.1,0,0.76,0,0,0,0, ,0,0,0,0,0, ,981.4,8.5,141.9,1.5,0.9,-1.2,25,986.5,20.8769,149.173,1.79552,-0.299072,-0.509745,
2026_07_06_19_46_43.032,3.873,31.1,0,0.76,0,0,0,0, ,0,0,0,0,0, ,978.5,13,149.2,1,0.5,-2,25,986.101,20.2598,148.952,1.76228,-0.238192,-0.576182,
2026_07_06_19_46_43.040,3.873,31,0,0.761,0,0,0,0, ,0,0,0,0,0, ,982,14.2,159.3,0.5,-0.3,-2.8,25,985.744,19.854,149.275,1.70059,-0.217583,-0.687321,
2026_07_06_19_46_43.071,3.873,31.1,0,0.761,0,0,0,0, ,0,0,0,0,0, ,981.6,13.1,156.2,-0.9,-1.2,-3.3,25,985.504,19.4759,149.792,1.58478,-0.250027,-0.831297,
2026_07_06_19_46_43.080,3.873,31.1,0,0.761,0,0,0,0, ,0,0,0,0,0, ,978.8,12.3,150.3,0,-2,-3.5,25,985.181,19.063,150.002,1.46078,-0.332291,-0.987827,
2026_07_06_19_46_43.113,3.873,31,0,0.76,0,0,0,0, ,0,0,0,0,0, ,979.6,16.2,150.7,1.7,-2.1,-3,25,984.816,18.7697,150.033,1.42356,-0.436964,-1.12568,
2026_07_06_19_46_43.120,3.873,31.2,0,0.759,0,0,0,0, ,0,0,0,0,0, ,977.4,20.1,150.2,1,-2.7,-2.6,25,984.431,18.7319,150.058,1.41908,-0.556586,-1.22771,
