UTC_Time,Vin,TC1,TC2,Rh1,Vh1,Ah1,Acp1,Dty1,Err1,Rh2,Vh2,Ah2,Acp2,Dty2,Err2,Accel_x,Accel_y,Accel_z,gyro_x,gyro_y,gyro_z,Temp_c,Accel_x_h,Accel_y_h,Accel_z_h,gyro_x_h,gyro_y_h,gyro_z_h,
2026_07_06_15_04_49.250,3.865,35.9,0,0.761,0,0,0,0, ,0,0,0,0,0, ,-39.3,146.9,989.9,-0.7,-0.5,-1.8,25,-39.3,146.9,989.9,-0.7,-0.5,-1.8,
2026_07_06_15_04_49.269,3.865,35.9,0,0.763,0,0,0,0, ,0,0,0,0,0, ,-38.4,148.1,987.5,-0.7,-0.4,-1.9,25,-39.2726,146.937,989.827,-0.7,-0.496953,-1.80305,
2026_07_06_15_04_49.289,3.865,35.8,0,0.763,0,0,0,0, ,0,0,0,0,0, ,-38.8,147.9,990.2,-0.6,-0.4,-1.9,25,-39.2316,147.001,989.767,-0.696953,-0.491045,-1.80895,
2026_07_06_15_04_49.309,3.865,35.9,0,0.765,0,0,0,0, ,0,0,0,0,0, ,-37.9,146.9,988.7,-0.7,-0.4,-1.8,25,-39.1779,147.026,989.748,-0.694092,-0.485497,-1.81146,
2026_07_06_15_04_49.329,3.865,35.8,0,0.762,0,0,0,0, ,0,0,0,0,0, ,-38.4,149,988.5,-0.7,-0.5,-1.8,25,-39.1152,147.082,989.678,-0.694452,-0.483334,-1.81076,
2026_07_06_15_04_49.348,3.865,35.8,0,0.762,0,0,0,0, ,0,0,0,0,0, ,-38.9,148,989.3,-0.7,-0.4,-1.9,25,-39.0869,147.168,989.631,-0.69479,-0.481303,-1.81315,
2026_07_06_15_04_49.369,3.865,35.8,0,0.762,0,0,0,0, ,0,0,0,0,0, ,-37.8,147.9,987.7,-0.6,-0.5,-1.9,25,-39.042,147.216,989.562,-0.692061,-0.479395,-1.81844,
2026_07_06_15_04_49.388,3.865,35.8,0,0.763,0,0,0,0, ,0,0,0,0,0, ,-38,149.1,988.7,-0.6,-0.4,-1.8,25,-38.9724,147.294,989.479,-0.686451,-0.477604,-1.82036,
2026_07_06_15_04_49.408,3.865,35.9,0,0.761,0,0,0,0, ,0,0,0,0,0, ,-38.4,146.7,988.1,-0.7,-0.5,-1.8,25,-38.9253,147.331,989.413,-0.684229,-0.475922,-1.81912,
2026_07_06_15_04_49.427,3.865,35.8,0,0.763,0,0,0,0, ,0,0,0,0,0, ,-39,147.8,989.1,-0.7,-0.5,-1.9,25,-38.9116,147.326,989.363,-0.68519,-0.477389,-1.82101,
2026_07_06_15_04_49.447,3.865,35.9,0,0.763,0,0,0,0, ,0,0,0,0,0, ,-36.6,147.7,988.5,-0.7,-0.4,-1.8,25,-38.8439,147.352,989.329,-0.686093,-0.47572,-1.82277,
2026_07_06_15_04_49.467,3.865,35.8,0,0.763,0,0,0,0, ,0,0,0,0,0, ,-37.5,147.8,988.1,-0.7,-0.5,-1.9,25,-38.7345,147.376,989.266,-0.68694,-0.474153,-1.82443,
2026_07_06_15_04_49.488,3.865,35.8,0,0.763,0,0,0,0, ,0,0,0,0,0, ,-38.2,147.3,988.6,-0.7,-0.4,-1.8,25,-38.6806,147.387,989.211,-0.687736,-0.472681,-1.82599,
2026_07_06_15_04_49.507,3.865,35.8,0,0.763,0,0,0,0, ,0,0,0,0,0, ,-38.6,148.5,989.7,-0.7,-0.5,-1.9,25,-38.6635,147.418,989.207,-0.688484,-0.471299,-1.82745,
2026_07_06_15_04_49.527,3.865,35.8,0,0.765,0,0,0,0, ,0,0,0,0,0, ,-38.3,147,989.3,-0.7,-0.5,-1.8,25,-38.6505,147.438,989.225,-0.689185,-0.473048,-1.82883,
2026_07_06_15_04_49.546,3.865,35.8,0,0.763,0,0,0,0, ,0,0,0,0,0, ,-39.4,148.3,989.9,-0.7,-0.4,-1.9,25,-38.6627,147.451,989.248,-0.689844,-0.471643,-1.83012,
2026_07_06_15_04_49.566,3.865,35.8,0,0.763,0,0,0,0, ,0,0,0,0,0, ,-38.6,147,988.1,-0.7,-0.5,-1.8,25,-38.6832,147.463,989.233,-0.690463,-0.470324,-1.83133,
2026_07_06_15_04_49.586,3.865,35.8,0,0.762,0,0,0,0, ,0,0,0,0,0, ,-38,148.3,989.5,-0.6,-0.5,-1.9,25,-38.6599,147.475,989.206,-0.687997,-0.472133,-1.83247,
2026_07_06_15_04_49.605,3.865,35.8,0,0.763,0,0,0,0, ,0,0,0,0,0, ,-37.4,148.1,989.8,-0.7,-0.5,-1.8,25,-38.6014,147.519,989.233,-0.685682,-0.473831,-1.83353,
2026_07_06_15_04_49.626,3.865,35.9,0,0.764,0,0,0,0, ,0,0,0,0,0, ,-38,147.7,990.3,-0.7,-0.4,-1.9,25,-38.5465,147.542,989.283,-0.686555,-0.472379,-1.83454,
2026_07_06_15_04_49.645,3.865,35.9,0,0.764,0,0,0,0, ,0,0,0,0,0, ,-38.3,147.2,988.6,-0.7,-0.5,-1.9,25,-38.5223,147.537,989.293,-0.687374,-0.471015,-1.83853,
2026_07_06_15_04_49.665,3.865,35.8,0,0.765,0,0,0,0, ,0,0,0,0,0, ,-38.8,147.2,988.8,-0.7,-0.5,-1.8,25,-38.524,147.516,989.257,-0.688143,-0.472781,-1.83923,
2026_07_06_15_04_49.686,3.865,35.8,0,0.763,0,0,0,0, ,0,0,0,0,0, ,-38.3,146.2,989.5,-0.6,-0.5,-1.9,25,-38.5256,147.466,989.251,-0.685819,-0.47444,-1.83988,
2026_07_06_15_04_49.705,3.865,35.8,0,0.763,0,0,0,0, ,0,0,0,0,0, ,-38.2,146.9,989.3,-0.7,-0.5,-1.8,25,-38.5088,147.41,989.26,-0.683636,-0.475997,-1.8405,
2026_07_06_15_04_49.725,3.865,35.8,0,0.766,0,0,0,0, ,0,0,0,0,0, ,-38.4,146.6,989,-0.6,-0.4,-1.8,25,-38.4961,147.37,989.253,-0.681586,-0.474413,-1.83803,
2026_07_06_15_04_49.745,3.865,35.8,0,0.763,0,0,0,0, ,0,0,0,0,0, ,-38.2,148,989.9,-0.7,-0.4,-1.8,25,-38.4841,147.366,989.265,-0.679662,-0.469879,-1.83571,
2026_07_06_15_04_49.765,3.865,35.7,0,0.763,0,0,0,0, ,0,0,0,0,0, ,-38.3,146.9,988.1,-0.6,-0.5,-1.9,25,-38.4698,147.371,989.249,-0.677854,-0.468667,-1.83658,
2026_07_06_15_04_49.784,3.865,35.7,0,0.761,0,0,0,0, ,0,0,0,0,0, ,-38.6,147.5,988.4,-0.6,-0.5,-1.9,25,-38.4686,147.361,989.188,-0.67311,-0.470577,-1.84045,
2026_07_06_15_04_49.804,3.865,35.8,0,0.764,0,0,0,0, ,0,0,0,0,0, ,-38.2,149.5,988.8,-0.7,-0.5,-1.8,25,-38.4645,147.43,989.152,-0.671702,-0.47237,-1.84103,
2026_07_06_15_04_49.824,3.865,35.8,0,0.765,0,0,0,0, ,0,0,0,0,0, ,-38.9,146.9,987.4,-0.7,-0.5,-1.9,25,-38.4697,147.477,989.088,-0.673426,-0.474053,-1.84158,
2026_07_06_15_04_49.844,3.865,35.8,0,0.764,0,0,0,0, ,0,0,0,0,0, ,-39.3,147.5,989.1,-0.7,-0.5,-1.8,25,-38.5081,147.46,989.037,-0.675045,-0.475635,-1.84209,
2026_07_06_15_04_49.864,3.865,35.8,0,0.763,0,0,0,0, ,0,0,0,0,0, ,-38.4,149,989.3,-0.7,-0.5,-1.9,25,-38.5289,147.508,989.047,-0.676566,-0.477119,-1.84257,
2026_07_06_15_04_49.883,3.865,35.8,0,0.76,0,0,0,0, ,0,0,0,0,0, ,-39.7,147.9,988.5,-0.7,-0.5,-1.9,25,-38.5607,147.566,989.038,-0.677994,-0.478514,-1.84607,
2026_07_06_15_04_49.903,3.865,35.7,0,0.765,0,0,0,0, ,0,0,0,0,0, ,-38.8,147.7,988.8,-0.6,-0.5,-1.9,25,-38.6027,147.58,989.014,-0.676288,-0.479823,-1.84936,
2026_07_06_15_04_49.923,3.865,35.7,0,0.764,0,0,0,0, ,0,0,0,0,0, ,-38.5,147,988.8,-0.6,-0.5,-1.8,25,-38.6056,147.566,989.001,-0.671639,-0.481052,-1.8494,
2026_07_06_15_04_49.943,3.865,35.7,0,0.764,0,0,0,0, ,0,0,0,0,0, ,-37.1,147.2,989.7,-0.6,-0.4,-1.9,25,-38.5565,147.538,989.016,-0.667274,-0.47916,-1.84943,
2026_07_06_15_04_49.964,3.865,35.8,0,0.764,0,0,0,0, ,0,0,0,0,0, ,-38.3,147.3,989.1,-0.7,-0.5,-1.9,25,-38.5043,147.52,989.04,-0.666221,-0.477383,-1.85252,
2026_07_06_15_04_49.982,3.865,35.7,0,0.763,0,0,0,0, ,0,0,0,0,0, ,-38.5,147.8,989.5,-0.7,-0.4,-1.9,25,-38.4979,147.522,989.056,-0.66828,-0.475715,-1.85541,
2026_07_06_15_04_50.003,3.865,35.8,0,0.763,0,0,0,0, ,0,0,0,0,0, ,-37.9,147.9,988.6,-0.6,-0.4,-1.8,25,-38.4798,147.542,989.055,-0.667166,-0.471101,-1.85508,
2026_07_06_15_04_50.022,3.865,35.7,0,0.763,0,0,0,0, ,0,0,0,0,0, ,-38.5,148.8,989.1,-0.6,-0.5,-1.9,25,-38.4627,147.591,989.043,-0.663073,-0.469815,-1.85477,
2026_07_06_15_04_50.042,3.865,35.8,0,0.764,0,0,0,0, ,0,0,0,0,0, ,-38.4,147.2,988.2,-0.7,-0.4,-1.8,25,-38.4619,147.616,989.019,-0.662276,-0.468607,-1.85448,
2026_07_06_15_04_50.062,3.865,35.7,0,0.764,0,0,0,0, ,0,0,0,0,0, ,-38.9,147.2,988.8,-0.6,-0.4,-2,25,-38.4734,147.591,988.987,-0.661528,-0.464427,-1.85725,
2026_07_06_15_04_50.081,3.865,35.8,0,0.765,0,0,0,0, ,0,0,0,0,0, ,-38.3,147.8,989,-0.7,-0.5,-1.8,25,-38.4811,147.585,988.982,-0.660826,-0.463548,-1.85986,
2026_07_06_15_04_50.101,3.865,35.7,0,0.763,0,0,0,0, ,0,0,0,0,0, ,-38.8,147.5,988.7,-0.7,-0.5,-1.9,25,-38.4853,147.589,988.974,-0.663213,-0.465769,-1.85926,
2026_07_06_15_04_50.121,3.865,35.8,0,0.763,0,0,0,0, ,0,0,0,0,0, ,-37.9,147.7,989.2,-0.7,-0.5,-1.8,25,-38.4771,147.59,988.972,-0.665455,-0.467855,-1.85869,
2026_07_06_15_04_50.141,3.865,35.8,0,0.764,0,0,0,0, ,0,0,0,0,0, ,-38.4,147.9,988.6,-0.7,-0.4,-1.9,25,-38.4571,147.603,988.968,-0.66756,-0.466767,-1.85816,
2026_07_06_15_04_50.161,3.865,35.8,0,0.764,0,0,0,0, ,0,0,0,0,0, ,-39.4,147.4,988.8,-0.7,-0.5,-1.9,25,-38.4841,147.605,988.952,-0.669536,-0.465745,-1.86071,
2026_07_06_15_04_50.181,3.865,35.7,0,0.764,0,0,0,0, ,0,0,0,0,0, ,-39.3,148.1,988.7,-0.7,-0.5,-1.8,25,-38.5369,147.614,988.939,-0.671393,-0.467832,-1.86006,
2026_07_06_15_04_50.200,3.865,35.8,0,0.763,0,0,0,0, ,0,0,0,0,0, ,-38,147.7,987.3,-0.7,-0.5,-1.8,25,-38.5438,147.632,988.882,-0.673136,-0.469793,-1.8564,
2026_07_06_15_04_50.220,3.865,35.7,0,0.763,0,0,0,0, ,0,0,0,0,0, ,-38.3,147.8,989.5,-0.6,-0.4,-1.8,25,-38.5198,147.639,988.853,-0.671726,-0.468587,-1.85296,
2026_07_06_15_04_50.240,3.865,35.8,0,0.765,0,0,0,0, ,0,0,0,0,0, ,-38.9,147.7,990.3,-0.7,-0.5,-1.9,25,-38.5247,147.646,988.917,-0.670402,-0.467454,-1.85278,
2026_07_06_15_04_50.259,3.865,35.7,0,0.765,0,0,0,0, ,0,0,0,0,0, ,-38.6,148.1,988.5,-0.7,-0.5,-1.9,25,-38.5384,147.661,988.946,-0.672206,-0.469437,-1.85566,
2026_07_06_15_04_50.280,3.865,35.7,0,0.763,0,0,0,0, ,0,0,0,0,0, ,-38.8,147.7,988.1,-0.6,-0.5,-1.9,25,-38.5483,147.676,988.907,-0.670853,-0.4713,-1.85836,
2026_07_06_15_04_50.299,3.865,35.8,0,0.76,0,0,0,0, ,0,0,0,0,0, ,-37.2,147,988.5,-0.6,-0.4,-1.8,25,-38.5148,147.656,988.87,-0.666535,-0.470002,-1.85785,
2026_07_06_15_04_50.319,3.865,35.7,0,0.765,0,0,0,0, ,0,0,0,0,0, ,-36.8,146.7,989.5,-0.6,-0.5,-1.9,25,-38.4225,147.607,988.878,-0.662481,-0.468783,-1.85737,
2026_07_06_15_04_50.339,3.865,35.8,0,0.763,0,0,0,0, ,0,0,0,0,0, ,-40.1,148.8,989.1,-0.6,-0.5,-1.8,25,-38.4242,147.615,988.903,-0.658673,-0.470685,-1.85692,
2026_07_06_15_04_50.358,3.865,35.8,0,0.764,0,0,0,0, ,0,0,0,0,0, ,-38,147.4,989.7,-0.6,-0.5,-1.9,25,-38.4623,147.645,988.934,-0.655098,-0.472472,-1.8565,
2026_07_06_15_04_50.380,3.865,35.7,0,0.763,0,0,0,0, ,0,0,0,0,0, ,-36.8,148.5,987.7,-0.6,-0.5,-1.9,25,-38.3976,147.664,988.919,-0.65174,-0.474149,-1.85915,
2026_07_06_15_04_50.398,3.865,35.7,0,0.763,0,0,0,0, ,0,0,0,0,0, ,-39.5,147.5,989.3,-0.6,-0.5,-1.8,25,-38.3825,147.684,988.894,-0.648587,-0.475724,-1.8586,
2026_07_06_15_04_50.418,3.865,35.7,0,0.764,0,0,0,0, ,0,0,0,0,0, ,-39.7,148,986.4,-0.6,-0.5,-1.8,25,-38.4567,147.688,988.83,-0.645627,-0.477204,-1.85502,
2026_07_06_15_04_50.439,3.865,35.7,0,0.764,0,0,0,0, ,0,0,0,0,0, ,-37.4,147.9,988.4,-0.6,-0.5,-1.8,25,-38.4624,147.704,988.743,-0.642846,-0.478593,-1.85167,
2026_07_06_15_04_50.458,3.865,35.7,0,0.764,0,0,0,0, ,0,0,0,0,0, ,-39,148.4,988.7,-0.6,-0.4,-1.8,25,-38.4464,147.731,988.731,-0.640235,-0.47685,-1.84852,
2026_07_06_15_04_50.477,3.865,35.7,0,0.764,0,0,0,0, ,0,0,0,0,0, ,-36.9,148.8,988.5,-0.6,-0.5,-1.8,25,-38.4162,147.784,988.723,-0.637783,-0.475214,-1.84557,
2026_07_06_15_04_50.498,3.865,35.7,0,0.764,0,0,0,0, ,0,0,0,0,0, ,-38.8,147.2,988.6,-0.7,-0.5,-1.9,25,-38.3817,147.797,988.713,-0.638528,-0.476725,-1.84584,
2026_07_06_15_04_50.518,3.865,35.7,0,0.764,0,0,0,0, ,0,0,0,0,0, ,-38.8,147.2,988.2,-0.7,-0.4,-1.8,25,-38.4071,147.761,988.694,-0.642274,-0.475096,-1.84609,
2026_07_06_15_04_50.538,3.865,35.7,0,0.763,0,0,0,0, ,0,0,0,0,0, ,-39,146.8,989.6,-0.7,-0.5,-1.8,25,-38.4372,147.715,988.706,-0.645792,-0.473567,-1.84328,
2026_07_06_15_04_50.557,3.865,35.7,0,0.764,0,0,0,0, ,0,0,0,0,0, ,-38.4,147.5,989.7,-0.7,-0.5,-1.9,25,-38.4532,147.68,988.764,-0.649095,-0.475178,-1.84369,
2026_07_06_15_04_50.577,3.865,35.8,0,0.764,0,0,0,0, ,0,0,0,0,0, ,-37.5,147.7,988.5,-0.6,-0.5,-1.8,25,-38.4225,147.675,988.784,-0.64915,-0.47669,-1.84408,
2026_07_06_15_04_50.596,3.865,35.7,0,0.763,0,0,0,0, ,0,0,0,0,0, ,-38.3,147.5,989.2,-0.7,-0.4,-1.9,25,-38.3907,147.671,988.788,-0.649202,-0.475064,-1.84444,
2026_07_06_15_04_50.616,3.865,35.6,0,0.763,0,0,0,0, ,0,0,0,0,0, ,-37.5,148.4,989,-0.6,-0.5,-1.9,25,-38.3608,147.688,988.807,-0.64925,-0.473536,-1.84782,
2026_07_06_15_04_50.636,3.865,35.7,0,0.764,0,0,0,0, ,0,0,0,0,0, ,-38.8,148.5,988.4,-0.7,-0.4,-1.8,25,-38.3479,147.734,988.801,-0.649296,-0.472102,-1.84795,
2026_07_06_15_04_50.656,3.865,35.7,0,0.764,0,0,0,0, ,0,0,0,0,0, ,-38.9,147.4,989.3,-0.7,-0.5,-1.8,25,-38.3785,147.747,988.804,-0.652386,-0.470755,-1.84503,
2026_07_06_15_04_50.676,3.865,35.6,0,0.764,0,0,0,0, ,0,0,0,0,0, ,-38.8,147.7,989.1,-0.7,-0.5,-1.9,25,-38.4073,147.735,988.828,-0.655287,-0.472537,-1.84534,
2026_07_06_15_04_50.696,3.865,35.6,0,0.764,0,0,0,0, ,0,0,0,0,0, ,-38.5,146.7,989.5,-0.7,-0.5,-1.9,25,-38.4221,147.703,988.857,-0.658012,-0.474211,-1.84867,
2026_07_06_15_04_50.715,3.865,35.7,0,0.764,0,0,0,0, ,0,0,0,0,0, ,-37.1,147.2,989.1,-0.7,-0.5,-1.9,25,-38.3842,147.657,988.884,-0.660571,-0.475782,-1.85179,
2026_07_06_15_04_50.735,3.865,35.7,0,0.763,0,0,0,0, ,0,0,0,0,0, ,-37.8,148.6,988,-0.7,-0.5,-2,25,-38.3272,147.672,988.863,-0.662973,-0.477258,-1.85778,
2026_07_06_15_04_50.755,3.865,35.7,0,0.764,0,0,0,0, ,0,0,0,0,0, ,-39,146.4,989.5,-0.7,-0.5,-1.8,25,-38.3317,147.661,988.856,-0.66523,-0.478644,-1.86035,
2026_07_06_15_04_50.775,3.865,35.8,0,0.764,0,0,0,0, ,0,0,0,0,0, ,-39.3,147,989.5,-0.6,-0.5,-1.8,25,-38.3815,147.603,988.896,-0.664302,-0.479945,-1.85667,
2026_07_06_15_04_50.794,3.865,35.7,0,0.765,0,0,0,0, ,0,0,0,0,0, ,-38.9,148.8,989.6,-0.7,-0.5,-1.8,25,-38.4253,147.621,988.936,-0.66343,-0.481167,-1.85322,
2026_07_06_15_04_50.816,3.865,35.7,0,0.764,0,0,0,0, ,0,0,0,0,0, ,-37.8,148.4,988.2,-0.6,-0.5,-1.9,25,-38.4207,147.68,988.933,-0.662612,-0.482315,-1.85302,
2026_07_06_15_04_50.834,3.865,35.7,0,0.764,0,0,0,0, ,0,0,0,0,0, ,-38.6,147.7,988.5,-0.7,-0.4,-1.9,25,-38.4073,147.703,988.898,-0.661843,-0.480346,-1.85589,
2026_07_06_15_04_50.854,3.865,35.7,0,0.764,0,0,0,0, ,0,0,0,0,0, ,-37.2,147.5,988.4,-0.7,-0.5,-1.9,25,-38.3764,147.697,988.871,-0.664168,-0.478497,-1.85858,
2026_07_06_15_04_50.874,3.865,35.7,0,0.764,0,0,0,0, ,0,0,0,0,0, ,-37.7,146.8,989.1,-0.6,-0.4,-1.9,25,-38.3199,147.663,988.863,-0.663305,-0.47676,-1.8611,
2026_07_06_15_04_50.894,3.865,35.7,0,0.764,0,0,0,0, ,0,0,0,0,0, ,-39,147.3,989,-0.6,-0.4,-1.9,25,-38.3217,147.626,988.875,-0.659447,-0.472083,-1.86347,
2026_07_06_15_04_50.913,3.865,35.7,0,0.764,0,0,0,0, ,0,0,0,0,0, ,-40,148.9,988.6,-0.7,-0.5,-1.8,25,-38.3935,147.655,988.87,-0.658872,-0.470737,-1.86265,
2026_07_06_15_04_50.933,3.865,35.6,0,0.763,0,0,0,0, ,0,0,0,0,0, ,-38.8,147.3,987.9,-0.6,-0.5,-1.9,25,-38.4549,147.682,988.832,-0.658331,-0.47252,-1.86188,
2026_07_06_15_04_50.953,3.865,35.7,0,0.763,0,0,0,0, ,0,0,0,0,0, ,-38.2,148.3,989.2,-0.7,-0.5,-1.8,25,-38.4576,147.689,988.815,-0.657823,-0.474195,-1.86115,
2026_07_06_15_04_50.973,3.865,35.6,0,0.763,0,0,0,0, ,0,0,0,0,0, ,-38.6,148.5,989.7,-0.6,-0.5,-1.9,25,-38.4541,147.732,988.854,-0.657347,-0.475767,-1.86047,
2026_07_06_15_04_50.993,3.865,35.7,0,0.764,0,0,0,0, ,0,0,0,0,0, ,-37.5,147.5,990.6,-0.7,-0.5,-1.9,25,-38.4295,147.749,988.933,-0.656899,-0.477244,-1.86288,
2026_07_06_15_04_51.013,3.865,35.6,0,0.765,0,0,0,0, ,0,0,0,0,0, ,-37.8,148.3,988.2,-0.7,-0.5,-1.9,25,-38.382,147.758,988.961,-0.659525,-0.478631,-1.86515,
2026_07_06_15_04_51.033,3.865,35.7,0,0.763,0,0,0,0, ,0,0,0,0,0, ,-36.7,147.7,988.8,-0.7,-0.4,-1.8,25,-38.313,147.773,988.933,-0.661992,-0.476886,-1.86422,
2026_07_06_15_04_51.052,3.865,35.7,0,0.764,0,0,0,0, ,0,0,0,0,0, ,-38.9,147.5,988.8,-0.6,-0.5,-1.8,25,-38.2817,147.762,988.925,-0.661261,-0.475248,-1.86031,
2026_07_06_15_04_51.073,3.865,35.7,0,0.764,0,0,0,0, ,0,0,0,0,0, ,-38.9,148.8,989.6,-0.6,-0.4,-1.9,25,-38.3194,147.786,988.942,-0.657528,-0.473709,-1.85968,
2026_07_06_15_04_51.092,3.865,35.7,0,0.765,0,0,0,0, ,0,0,0,0,0, ,-38.4,148.5,987.1,-0.7,-0.4,-1.8,25,-38.3396,147.839,988.906,-0.657069,-0.469217,-1.85909,
2026_07_06_15_04_51.115,3.865,35.7,0,0.764,0,0,0,0, ,0,0,0,0,0, ,-37.5,146.4,989.5,-0.7,-0.5,-1.9,25,-38.3158,147.815,988.869,-0.659685,-0.468046,-1.85854,
2026_07_06_15_04_51.132,3.865,35.7,0,0.763,0,0,0,0, ,0,0,0,0,0, ,-37.7,148.4,988.5,-0.7,-0.5,-1.9,25,-38.2722,147.79,988.877,-0.662142,-0.469994,-1.86106,
2026_07_06_15_04_51.151,3.865,35.6,0,0.764,0,0,0,0, ,0,0,0,0,0, ,-39.5,146.4,988.8,-0.7,-0.5,-1.9,25,-38.2922,147.766,988.863,-0.664449,-0.471822,-1.86344,
2026_07_06_15_04_51.171,3.865,35.7,0,0.763,0,0,0,0, ,0,0,0,0,0, ,-37.9,149,989.3,-0.7,-0.5,-1.9,25,-38.317,147.762,988.874,-0.666615,-0.473539,-1.86566,
2026_07_06_15_04_51.191,3.865,35.6,0,0.763,0,0,0,0, ,0,0,0,0,0, ,-38.2,147,989.1,-0.7,-0.5,-1.9,25,-38.3008,147.776,988.894,-0.66865,-0.475152,-1.86776,
2026_07_06_15_04_51.211,3.865,35.6,0,0.764,0,0,0,0, ,0,0,0,0,0, ,-38.4,147.2,988.8,-0.7,-0.5,-1.9,25,-38.3007,147.735,988.898,-0.67056,-0.476666,-1.86972,
2026_07_06_15_04_51.231,3.865,35.7,0,0.764,0,0,0,0, ,0,0,0,0,0, ,-39,148,990.1,-0.7,-0.5,-1.8,25,-38.325,147.727,988.931,-0.672354,-0.478088,-1.86852,
2026_07_06_15_04_51.250,3.865,35.7,0,0.763,0,0,0,0, ,0,0,0,0,0, ,-37.5,147.5,988.1,-0.7,-0.5,-1.9,25,-38.3205,147.728,988.942,-0.674039,-0.479423,-1.86739,
2026_07_06_15_04_51.270,3.865,35.6,0,0.763,0,0,0,0, ,0,0,0,0,0, ,-38.2,147.3,988.5,-0.7,-0.5,-1.8,25,-38.2918,147.708,988.902,-0.675621,-0.480677,-1.86633,
2026_07_06_15_04_51.290,3.865,35.7,0,0.763,0,0,0,0, ,0,0,0,0,0, ,-38.3,146.2,988.2,-0.7,-0.5,-1.8,25,-38.2893,147.65,988.869,-0.677106,-0.481854,-1.86229,
2026_07_06_15_04_51.310,3.865,35.6,0,0.765,0,0,0,0, ,0,0,0,0,0, ,-38.3,147.7,988.2,-0.7,-0.5,-1.8,25,-38.2899,147.607,988.828,-0.678502,-0.48296,-1.85849,
2026_07_06_15_04_51.330,3.865,35.7,0,0.764,0,0,0,0, ,0,0,0,0,0, ,-38.3,146.9,989.3,-0.6,-0.5,-1.9,25,-38.2905,147.589,988.823,-0.676765,-0.483999,-1.85798,
2026_07_06_15_04_51.349,3.865,35.6,0,0.764,0,0,0,0, ,0,0,0,0,0, ,-37.8,147.8,989,-0.7,-0.5,-1.9,25,-38.2759,147.574,988.843,-0.675134,-0.484974,-1.86054,
2026_07_06_15_04_51.369,3.865,35.6,0,0.763,0,0,0,0, ,0,0,0,0,0, ,-39.4,147.3,988.5,-0.7,-0.5,-1.8,25,-38.2956,147.573,988.837,-0.676649,-0.485889,-1.85989,
2026_07_06_15_04_51.389,3.865,35.6,0,0.763,0,0,0,0, ,0,0,0,0,0, ,-36.8,147.2,987.5,-0.7,-0.5,-1.8,25,-38.2837,147.553,988.786,-0.678072,-0.486749,-1.85624,
2026_07_06_15_04_51.412,3.865,35.6,0,0.764,0,0,0,0, ,0,0,0,0,0, ,-39.4,147.3,988.7,-0.7,-0.5,-1.9,25,-38.2725,147.534,988.745,-0.679408,-0.487557,-1.85586,
2026_07_06_15_04_51.428,3.865,35.6,0,0.763,0,0,0,0, ,0,0,0,0,0, ,-38.9,147.2,989.1,-0.6,-0.5,-1.9,25,-38.326,147.517,988.754,-0.677616,-0.488315,-1.85855,
2026_07_06_15_04_51.449,3.865,35.6,0,0.763,0,0,0,0, ,0,0,0,0,0, ,-40.1,148.9,989.3,-0.7,-0.5,-2,25,-38.3975,147.55,988.781,-0.675933,-0.489027,-1.86413,
2026_07_06_15_04_51.468,3.865,35.7,0,0.765,0,0,0,0, ,0,0,0,0,0, ,-38.4,147.5,988.2,-0.7,-0.5,-1.9,25,-38.4495,147.589,988.779,-0.6774,-0.489696,-1.86936,
2026_07_06_15_04_51.488,3.865,35.6,0,0.764,0,0,0,0, ,0,0,0,0,0, ,-37.9,147.4,989.1,-0.6,-0.4,-1.9,25,-38.4312,147.581,988.771,-0.67573,-0.487277,-1.87123,
2026_07_06_15_04_51.508,3.865,35.6,0,0.763,0,0,0,0, ,0,0,0,0,0, ,-38,146.9,988.5,-0.7,-0.5,-1.8,25,-38.4019,147.554,988.773,-0.674162,-0.485005,-1.86993,
2026_07_06_15_04_51.528,3.865,35.7,0,0.764,0,0,0,0, ,0,0,0,0,0, ,-38.2,149.1,988.6,-0.7,-0.5,-1.8,25,-38.3835,147.582,988.76,-0.675737,-0.485919,-1.86567,
2026_07_06_15_04_51.548,3.865,35.6,0,0.764,0,0,0,0, ,0,0,0,0,0, ,-39.1,147.4,988.4,-0.7,-0.5,-1.9,25,-38.3997,147.622,988.744,-0.677215,-0.486777,-1.86472,
2026_07_06_15_04_51.567,3.865,35.6,0,0.764,0,0,0,0, ,0,0,0,0,0, ,-39.1,148.3,989.1,-0.6,-0.4,-1.8,25,-38.4424,147.636,988.744,-0.675557,-0.484536,-1.86382,
2026_07_06_15_04_51.587,3.865,35.8,0,0.764,0,0,0,0, ,0,0,0,0,0, ,-38.5,148.4,988.5,-0.6,-0.5,-1.8,25,-38.4642,147.68,988.748,-0.670953,-0.482431,-1.85993,
2026_07_06_15_04_51.607,3.865,35.6,0,0.764,0,0,0,0, ,0,0,0,0,0, ,-37.7,147.5,989.1,-0.7,-0.5,-1.8,25,-38.442,147.696,988.751,-0.669676,-0.483502,-1.85628,
2026_07_06_15_04_51.627,3.865,35.6,0,0.764,0,0,0,0, ,0,0,0,0,0, ,-37.9,147.5,988.8,-0.7,-0.5,-1.8,25,-38.4029,147.684,988.763,-0.671524,-0.484507,-1.85285,
2026_07_06_15_04_51.647,3.865,35.6,0,0.763,0,0,0,0, ,0,0,0,0,0, ,-37.8,147.4,989,-0.7,-0.4,-1.9,25,-38.3692,147.67,988.771,-0.673259,-0.482404,-1.85268,
2026_07_06_15_04_51.667,3.865,35.6,0,0.764,0,0,0,0, ,0,0,0,0,0, ,-38.2,147.3,988.6,-0.6,-0.5,-1.8,25,-38.3467,147.65,988.773,-0.671842,-0.48043,-1.85251,
2026_07_06_15_04_51.687,3.865,35.4,0,0.764,0,0,0,0, ,0,0,0,0,0, ,-38.8,147.5,989.1,-0.7,-0.5,-1.8,25,-38.356,147.635,988.778,-0.670511,-0.481622,-1.84931,
2026_07_06_15_04_51.707,3.865,35.6,0,0.763,0,0,0,0, ,0,0,0,0,0, ,-38.8,146.3,989.3,-0.7,-0.5,-1.8,25,-38.3831,147.59,988.803,-0.672308,-0.482742,-1.84631,
2026_07_06_15_04_51.726,3.865,35.7,0,0.763,0,0,0,0, ,0,0,0,0,0, ,-38.3,147.4,989,-0.6,-0.4,-1.9,25,-38.3933,147.545,988.825,-0.670948,-0.480747,-1.84653,
2026_07_06_15_04_51.746,3.865,35.6,0,0.765,0,0,0,0, ,0,0,0,0,0, ,-38.2,148.5,988.8,-0.6,-0.5,-1.8,25,-38.3845,147.57,988.829,-0.666625,-0.478873,-1.84674,
2026_07_06_15_04_51.765,3.865,35.4,0,0.765,0,0,0,0, ,0,0,0,0,0, ,-38.4,148.3,989.9,-0.7,-0.5,-1.8,25,-38.3794,147.621,988.861,-0.665612,-0.480161,-1.8439,
2026_07_06_15_04_51.786,3.865,35.7,0,0.764,0,0,0,0, ,0,0,0,0,0, ,-38.5,148.4,988.7,-0.7,-0.5,-1.8,25,-38.3837,147.665,988.888,-0.667707,-0.48137,-1.84122,
2026_07_06_15_04_51.806,3.865,35.6,0,0.763,0,0,0,0, ,0,0,0,0,0, ,-38,147.4,988.1,-0.8,-0.5,-1.8,25,-38.3755,147.679,988.858,-0.672722,-0.482505,-1.83871,
2026_07_06_15_04_51.825,3.865,35.6,0,0.764,0,0,0,0, ,0,0,0,0,0, ,-38,149.9,989.6,-0.6,-0.5,-1.9,25,-38.3527,147.738,988.857,-0.674384,-0.483571,-1.8394,
2026_07_06_15_04_51.929,3.865,35.4,0,0.763,0,0,0,0, ,0,0,0,0,0, ,-38,148,988.7,-0.7,-0.5,-1.8,25,-38.3312,147.812,988.875,-0.672898,-0.484572,-1.84004,
2026_07_06_15_04_51.929,3.865,35.4,0,0.763,0,0,0,0, ,0,0,0,0,0, ,-38.2,148,989.5,-0.7,-0.5,-1.9,25,-38.3171,147.824,988.889,-0.67455,-0.485512,-1.84065,
2026_07_06_15_04_51.930,3.865,35.4,0,0.766,0,0,0,0, ,0,0,0,0,0, ,-39.1,148.4,989.1,-0.7,-0.5,-1.8,25,-38.3374,147.847,988.914,-0.676101,-0.486395,-1.84122,
2026_07_06_15_04_51.930,3.865,35.6,0,0.765,0,0,0,0, ,0,0,0,0,0, ,-38.3,148.4,987.6,-0.7,-0.5,-1.8,25,-38.3595,147.88,988.88,-0.677557,-0.487224,-1.83871,
2026_07_06_15_04_51.931,3.865,35.6,0,0.764,0,0,0,0, ,0,0,0,0,0, ,-37.9,147,988.6,-0.7,-0.5,-1.9,25,-38.3437,147.869,988.832,-0.678925,-0.488003,-1.8394,
2026_07_06_15_04_51.945,3.865,35.6,0,0.763,0,0,0,0, ,0,0,0,0,0, ,-37.9,149.1,989.2,-0.7,-0.5,-1.9,25,-38.3166,147.88,988.836,-0.680209,-0.488734,-1.84309,
2026_07_06_15_04_51.968,3.865,35.4,0,0.762,0,0,0,0, ,0,0,0,0,0, ,-38.2,145.3,989.7,-0.7,-0.4,-1.9,25,-38.3004,147.839,988.874,-0.681415,-0.486374,-1.84656,
2026_07_06_15_04_51.983,3.865,35.6,0,0.764,0,0,0,0, ,0,0,0,0,0, ,-38.8,148.3,990.3,-0.7,-0.5,-1.9,25,-38.3125,147.776,988.942,-0.682548,-0.484157,-1.84981,
2026_07_06_15_04_52.003,3.865,35.4,0,0.764,0,0,0,0, ,0,0,0,0,0, ,-39,147.5,988.8,-0.7,-0.5,-1.9,25,-38.3483,147.783,988.979,-0.683611,-0.485122,-1.85287,
2026_07_06_15_04_52.023,3.865,35.4,0,0.763,0,0,0,0, ,0,0,0,0,0, ,-38.3,147.9,989.2,-0.7,-0.5,-1.8,25,-38.3667,147.778,988.981,-0.68461,-0.486029,-1.8527,
2026_07_06_15_04_52.043,3.865,35.6,0,0.76,0,0,0,0, ,0,0,0,0,0, ,-39.5,147.4,987.9,-0.7,-0.5,-1.9,25,-38.3992,147.77,988.954,-0.685548,-0.48688,-1.85253,
2026_07_06_15_04_52.063,3.865,35.6,0,0.765,0,0,0,0, ,0,0,0,0,0, ,-39.1,148,989,-0.7,-0.5,-1.9,25,-38.4541,147.766,988.924,-0.686428,-0.48768,-1.85542,
2026_07_06_15_04_52.083,3.865,35.4,0,0.764,0,0,0,0, ,0,0,0,0,0, ,-37.1,147.8,988.6,-0.7,-0.4,-1.9,25,-38.4325,147.774,988.916,-0.687255,-0.485384,-1.85814,
2026_07_06_15_04_52.103,3.865,35.6,0,0.765,0,0,0,0, ,0,0,0,0,0, ,-38.6,147.3,989.1,-0.7,-0.5,-1.9,25,-38.397,147.761,988.912,-0.688032,-0.483228,-1.86069,
2026_07_06_15_04_52.123,3.865,35.4,0,0.763,0,0,0,0, ,0,0,0,0,0, ,-38.2,146.8,989,-0.7,-0.5,-1.8,25,-38.3972,147.717,988.92,-0.688761,-0.48425,-1.86004,
2026_07_06_15_04_52.142,3.865,35.4,0,0.763,0,0,0,0, ,0,0,0,0,0, ,-38.6,147.3,988.4,-0.7,-0.5,-1.9,25,-38.3974,147.677,988.907,-0.689446,-0.485209,-1.85943,
2026_07_06_15_04_52.161,3.865,35.6,0,0.76,0,0,0,0, ,0,0,0,0,0, ,-38.5,147.5,988.4,-0.6,-0.5,-2,25,-38.4067,147.66,988.876,-0.687042,-0.486111,-1.86495,
2026_07_06_15_04_52.182,3.865,35.6,0,0.764,0,0,0,0, ,0,0,0,0,0, ,-38.5,145.9,989.2,-0.7,-0.4,-1.9,25,-38.4124,147.601,988.871,-0.684785,-0.48391,-1.87013,
2026_07_06_15_04_52.202,3.865,35.6,0,0.762,0,0,0,0, ,0,0,0,0,0, ,-37.5,147.3,988.7,-0.6,-0.5,-1.8,25,-38.3872,147.54,988.876,-0.682665,-0.481844,-1.8689,
2026_07_06_15_04_52.221,3.865,35.6,0,0.763,0,0,0,0, ,0,0,0,0,0, ,-39.5,148,989.7,-0.6,-0.5,-1.8,25,-38.3941,147.547,988.896,-0.677628,-0.48295,-1.86471,
2026_07_06_15_04_52.241,3.865,35.4,0,0.764,0,0,0,0, ,0,0,0,0,0, ,-38.9,147,988.4,-0.7,-0.5,-1.9,25,-38.4432,147.544,988.905,-0.675944,-0.483989,-1.86381,
2026_07_06_15_04_52.261,3.865,35.6,0,0.764,0,0,0,0, ,0,0,0,0,0, ,-38.8,147.3,989.1,-0.6,-0.4,-1.9,25,-38.468,147.52,988.896,-0.674363,-0.481918,-1.86601,
2026_07_06_15_04_52.281,3.865,35.4,0,0.764,0,0,0,0, ,0,0,0,0,0, ,-37.7,147.5,988.8,-0.7,-0.4,-1.9,25,-38.4547,147.513,988.899,-0.672879,-0.476926,-1.86809,
2026_07_06_15_04_52.300,3.865,35.6,0,0.763,0,0,0,0, ,0,0,0,0,0, ,-39.3,148,987.9,-0.6,-0.4,-1.8,25,-38.4575,147.527,988.866,-0.671485,-0.472238,-1.86698,
2026_07_06_15_04_52.320,3.865,35.6,0,0.763,0,0,0,0, ,0,0,0,0,0, ,-37.7,147.5,987.7,-0.7,-0.4,-1.8,25,-38.4601,147.541,988.801,-0.670175,-0.467836,-1.8629,
2026_07_06_15_04_52.340,3.865,35.4,0,0.762,0,0,0,0, ,0,0,0,0,0, ,-37.9,147.8,987.6,-0.6,-0.4,-1.8,25,-38.4198,147.547,988.731,-0.668946,-0.463703,-1.85907,
2026_07_06_15_04_52.360,3.865,35.6,0,0.765,0,0,0,0, ,0,0,0,0,0, ,-39,147.4,990.6,-0.7,-0.4,-1.8,25,-38.4217,147.551,988.753,-0.667791,-0.459821,-1.85547,
2026_07_06_15_04_52.380,3.865,35.4,0,0.763,0,0,0,0, ,0,0,0,0,0, ,-38.6,148.3,988.4,-0.7,-0.5,-1.8,25,-38.4447,147.569,988.799,-0.669754,-0.459222,-1.85209,
2026_07_06_15_04_52.400,3.865,35.7,0,0.763,0,0,0,0, ,0,0,0,0,0, ,-39,147.3,990.8,-0.7,-0.5,-1.8,25,-38.4664,147.583,988.848,-0.671597,-0.461707,-1.84891,
2026_07_06_15_04_52.419,3.865,35.6,0,0.762,0,0,0,0, ,0,0,0,0,0, ,-39.1,146.8,988.6,-0.7,-0.5,-1.8,25,-38.502,147.55,988.899,-0.673328,-0.464041,-1.84593,
2026_07_06_15_04_52.439,3.865,35.4,0,0.76,0,0,0,0, ,0,0,0,0,0, ,-37.9,148,989.8,-0.6,-0.4,-1.9,25,-38.5018,147.541,988.918,-0.671906,-0.463185,-1.84618,
2026_07_06_15_04_52.459,3.865,35.4,0,0.763,0,0,0,0, ,0,0,0,0,0, ,-38.5,146.4,988.1,-0.7,-0.5,-1.9,25,-38.4834,147.521,988.92,-0.670572,-0.462382,-1.84946,
2026_07_06_15_04_52.478,3.865,35.4,0,0.765,0,0,0,0, ,0,0,0,0,0, ,-38.9,146.9,989.5,-0.7,-0.5,-1.9,25,-38.4966,147.467,988.912,-0.672365,-0.464674,-1.85254,
2026_07_06_15_04_52.502,3.865,35.4,0,0.763,0,0,0,0, ,0,0,0,0,0, ,-38.9,147.9,988.6,-0.7,-0.5,-1.9,25,-38.5212,147.463,988.921,-0.674049,-0.466827,-1.85543,
2026_07_06_15_04_52.518,3.865,35.4,0,0.763,0,0,0,0, ,0,0,0,0,0, ,-37.7,146.4,988.4,-0.7,-0.5,-1.8,25,-38.5077,147.444,988.895,-0.67563,-0.468848,-1.8551,
2026_07_06_15_04_52.538,3.865,35.4,0,0.763,0,0,0,0, ,0,0,0,0,0, ,-39.1,147.9,991,-0.7,-0.5,-1.8,25,-38.5012,147.426,988.944,-0.677115,-0.470746,-1.85174,
2026_07_06_15_04_52.558,3.865,35.4,0,0.763,0,0,0,0, ,0,0,0,0,0, ,-38.9,147.8,988.4,-0.7,-0.5,-1.8,25,-38.5316,147.452,988.99,-0.67851,-0.472529,-1.84859,
2026_07_06_15_04_52.578,3.865,35.4,0,0.762,0,0,0,0, ,0,0,0,0,0, ,-37.7,147.8,988.4,-0.6,-0.5,-1.9,25,-38.5175,147.473,988.954,-0.676772,-0.474203,-1.84868,
2026_07_06_15_04_52.598,3.865,35.4,0,0.763,0,0,0,0, ,0,0,0,0,0, ,-37.5,147.9,989.8,-0.7,-0.5,-1.9,25,-38.4616,147.496,988.963,-0.675141,-0.475775,-1.8518,
2026_07_06_15_04_52.618,3.865,35.4,0,0.764,0,0,0,0, ,0,0,0,0,0, ,-37.4,148.1,988.7,-0.7,-0.5,-1.9,25,-38.3999,147.527,988.981,-0.676656,-0.477251,-1.85474,
2026_07_06_15_04_52.637,3.865,35.4,0,0.763,0,0,0,0, ,0,0,0,0,0, ,-37.5,148.8,990.4,-0.6,-0.5,-1.8,25,-38.342,147.583,989.015,-0.675032,-0.478638,-1.85445,
2026_07_06_15_04_52.657,3.865,35.4,0,0.763,0,0,0,0, ,0,0,0,0,0, ,-38.5,148.6,989.2,-0.6,-0.5,-1.9,25,-38.3212,147.651,989.063,-0.670459,-0.479939,-1.85418,
2026_07_06_15_04_52.677,3.865,35.4,0,0.763,0,0,0,0, ,0,0,0,0,0, ,-38,148.3,988.7,-0.7,-0.4,-1.9,25,-38.3168,147.7,989.056,-0.669213,-0.478115,-1.85697,
2026_07_06_15_04_52.697,3.865,35.4,0,0.764,0,0,0,0, ,0,0,0,0,0, ,-38.3,147.7,989.7,-0.7,-0.5,-1.9,25,-38.3067,147.718,989.065,-0.671089,-0.476402,-1.8596,
2026_07_06_15_04_52.716,3.865,35.4,0,0.763,0,0,0,0, ,0,0,0,0,0, ,-37.5,147.7,988.1,-0.7,-0.4,-1.8,25,-38.2819,147.717,989.055,-0.67285,-0.474793,-1.85901,
2026_07_06_15_04_52.736,3.865,35.4,0,0.764,0,0,0,0, ,0,0,0,0,0, ,-38,147.4,987.7,-0.6,-0.4,-1.8,25,-38.2495,147.707,988.985,-0.671458,-0.470235,-1.85541,
2026_07_06_15_04_52.759,3.865,35.4,0,0.764,0,0,0,0, ,0,0,0,0,0, ,-38,148.6,989.2,-0.7,-0.5,-1.9,25,-38.2343,147.725,988.952,-0.67015,-0.469002,-1.85508,
2026_07_06_15_04_52.776,3.865,35.4,0,0.763,0,0,0,0, ,0,0,0,0,0, ,-38.4,147.5,987.4,-0.6,-0.4,-1.9,25,-38.2322,147.745,988.912,-0.668923,-0.467844,-1.85782,
2026_07_06_15_04_52.796,3.865,35.4,0,0.762,0,0,0,0, ,0,0,0,0,0, ,-38.6,147.4,989.5,-0.6,-0.4,-1.9,25,-38.2485,147.727,988.884,-0.664723,-0.46371,-1.86039,
2026_07_06_15_04_52.815,3.865,35.6,0,0.763,0,0,0,0, ,0,0,0,0,0, ,-38.4,146.7,989.3,-0.7,-0.5,-1.9,25,-38.2638,147.685,988.916,-0.663825,-0.462874,-1.86281,
2026_07_06_15_04_52.835,3.865,35.4,0,0.764,0,0,0,0, ,0,0,0,0,0, ,-39,148,989.1,-0.7,-0.4,-1.9,25,-38.2904,147.665,988.933,-0.66603,-0.46209,-1.86507,
2026_07_06_15_04_52.855,3.865,35.4,0,0.764,0,0,0,0, ,0,0,0,0,0, ,-38.2,147.8,989.3,-0.7,-0.4,-1.8,25,-38.3093,147.679,988.949,-0.6681,-0.458306,-1.86415,
2026_07_06_15_04_52.875,3.865,35.4,0,0.764,0,0,0,0, ,0,0,0,0,0, ,-38.5,147.5,988.5,-0.6,-0.5,-1.8,25,-38.3118,147.678,988.946,-0.666997,-0.4578,-1.86024,
2026_07_06_15_04_52.895,3.865,35.4,0,0.764,0,0,0,0, ,0,0,0,0,0, ,-38.6,147,988.1,-0.7,-0.5,-1.8,25,-38.3263,147.651,988.907,-0.665961,-0.460372,-1.85657,
2026_07_06_15_04_52.917,3.865,35.4,0,0.764,0,0,0,0, ,0,0,0,0,0, ,-37.2,147.7,989.5,-0.7,-0.5,-1.8,25,-38.3003,147.633,988.9,-0.668035,-0.462787,-1.85313,
2026_07_06_15_04_52.934,3.865,35.4,0,0.764,0,0,0,0, ,0,0,0,0,0, ,-37.1,147,989,-0.6,-0.4,-1.8,25,-38.2302,147.616,988.922,-0.666936,-0.462007,-1.84989,
2026_07_06_15_04_52.956,3.865,35.4,0,0.762,0,0,0,0, ,0,0,0,0,0, ,-37.5,148.5,989.3,-0.7,-0.5,-1.9,25,-38.1735,147.624,988.936,-0.665904,-0.461276,-1.8499,
2026_07_06_15_04_52.976,3.865,35.4,0,0.763,0,0,0,0, ,0,0,0,0,0, ,-37.9,147.4,987.9,-0.6,-0.5,-1.9,25,-38.1447,147.644,988.915,-0.664935,-0.463635,-1.85295,
2026_07_06_15_04_52.994,3.865,35.4,0,0.764,0,0,0,0, ,0,0,0,0,0, ,-38.6,148.3,989,-0.7,-0.4,-1.8,25,-38.1511,147.656,988.887,-0.664025,-0.462804,-1.85277,
2026_07_06_15_04_53.014,3.865,35.4,0,0.762,0,0,0,0, ,0,0,0,0,0, ,-38.5,146.2,989.1,-0.7,-0.5,-1.8,25,-38.1754,147.632,988.897,-0.666217,-0.462024,-1.84955,
2026_07_06_15_04_53.034,3.865,35.4,0,0.763,0,0,0,0, ,0,0,0,0,0, ,-38.4,147.7,989.1,-0.6,-0.5,-1.9,25,-38.1921,147.59,988.909,-0.665229,-0.464338,-1.84958,
2026_07_06_15_04_53.053,3.865,35.6,0,0.764,0,0,0,0, ,0,0,0,0,0, ,-38,146.4,989.1,-0.7,-0.4,-1.9,25,-38.1926,147.557,988.921,-0.664301,-0.463465,-1.85265,
2026_07_06_15_04_53.073,3.865,35.4,0,0.764,0,0,0,0, ,0,0,0,0,0, ,-37.8,148.4,989.8,-0.6,-0.5,-1.8,25,-38.1748,147.548,988.953,-0.66343,-0.462644,-1.85249,
2026_07_06_15_04_53.092,3.865,35.4,0,0.762,0,0,0,0, ,0,0,0,0,0, ,-38.6,146.7,989.8,-0.7,-0.5,-1.8,25,-38.1763,147.548,989.005,-0.662611,-0.464921,-1.84929,
2026_07_06_15_04_53.113,3.865,35.4,0,0.764,0,0,0,0, ,0,0,0,0,0, ,-37.4,148,989.5,-0.7,-0.4,-1.9,25,-38.1656,147.536,989.044,-0.66489,-0.464011,-1.84934,
2026_07_06_15_04_53.132,3.865,35.4,0,0.764,0,0,0,0, ,0,0,0,0,0, ,-37.5,146.7,989.1,-0.7,-0.5,-1.8,25,-38.122,147.524,989.06,-0.667029,-0.463157,-1.84938,
2026_07_06_15_04_53.152,3.865,35.4,0,0.763,0,0,0,0, ,0,0,0,0,0, ,-38,147.9,989.7,-0.7,-0.5,-1.9,25,-38.0993,147.511,989.08,-0.669038,-0.465403,-1.84941,
2026_07_06_15_04_53.172,3.865,35.4,0,0.764,0,0,0,0, ,0,0,0,0,0, ,-38.2,146.6,987.5,-0.6,-0.4,-1.9,25,-38.0993,147.495,989.051,-0.667878,-0.464464,-1.8525,
2026_07_06_15_04_53.192,3.865,35.4,0,0.765,0,0,0,0, ,0,0,0,0,0, ,-38.3,146.8,986.8,-0.7,-0.5,-1.8,25,-38.1085,147.446,988.935,-0.666789,-0.463583,-1.85234,
2026_07_06_15_04_53.212,3.865,35.4,0,0.763,0,0,0,0, ,0,0,0,0,0, ,-38.9,146.9,988.8,-0.7,-0.4,-1.8,25,-38.1385,147.41,988.866,-0.668812,-0.462755,-1.84915,
2026_07_06_15_04_53.231,3.865,35.4,0,0.764,0,0,0,0, ,0,0,0,0,0, ,-38,145.5,988.6,-0.6,-0.5,-1.8,25,-38.1575,147.336,988.856,-0.667666,-0.461978,-1.84616,
2026_07_06_15_04_53.252,3.865,35.4,0,0.763,0,0,0,0, ,0,0,0,0,0, ,-38.8,150.2,986.9,-0.7,-0.5,-1.8,25,-38.1722,147.368,988.788,-0.66659,-0.464295,-1.84335,
2026_07_06_15_04_53.272,3.865,35.4,0,0.764,0,0,0,0, ,0,0,0,0,0, ,-38.5,148,990.2,-0.6,-0.4,-1.8,25,-38.2013,147.473,988.774,-0.665579,-0.463424,-1.84071,
2026_07_06_15_04_53.291,3.865,35.4,0,0.763,0,0,0,0, ,0,0,0,0,0, ,-37.9,148.1,986.6,-0.8,-0.5,-1.9,25,-38.2013,147.508,988.751,-0.667676,-0.462606,-1.84127,
2026_07_06_15_04_53.316,3.865,35.3,0,0.764,0,0,0,0, ,0,0,0,0,0, ,-39.4,147.7,990.7,-0.6,-0.4,-1.8,25,-38.2286,147.532,988.745,-0.669646,-0.461837,-1.8418,
2026_07_06_15_04_53.337,3.865,35.3,0,0.764,0,0,0,0, ,0,0,0,0,0, ,-38.5,148.8,988,-0.7,-0.5,-1.9,25,-38.2726,147.576,988.782,-0.668449,-0.461116,-1.8423,
2026_07_06_15_04_53.353,3.865,35.3,0,0.764,0,0,0,0, ,0,0,0,0,0, ,-37.8,147.5,988.2,-0.7,-0.5,-1.9,25,-38.2651,147.611,988.74,-0.670371,-0.463486,-1.84582,
2026_07_06_15_04_53.371,3.865,35.6,0,0.763,0,0,0,0, ,0,0,0,0,0, ,-39.3,147.4,990.8,-0.8,-0.4,-1.9,25,-38.2825,147.601,988.787,-0.675224,-0.462664,-1.84912,
2026_07_06_15_04_53.390,3.865,35.4,0,0.763,0,0,0,0, ,0,0,0,0,0, ,-38.4,147,988.6,-0.7,-0.5,-1.9,25,-38.317,147.577,988.842,-0.67978,-0.461892,-1.85222,
2026_07_06_15_04_53.410,3.865,35.3,0,0.763,0,0,0,0, ,0,0,0,0,0, ,-37.8,147.4,989.2,-0.7,-0.5,-1.8,25,-38.3038,147.554,988.846,-0.681013,-0.464214,-1.85209,
2026_07_06_15_04_53.429,3.865,35.4,0,0.764,0,0,0,0, ,0,0,0,0,0, ,-38.5,146.7,988.1,-0.7,-0.4,-1.8,25,-38.2944,147.523,988.834,-0.68217,-0.463348,-1.84891,
2026_07_06_15_04_53.449,3.865,35.4,0,0.764,0,0,0,0, ,0,0,0,0,0, ,-38.6,146.2,990.6,-0.8,-0.5,-1.9,25,-38.31,147.458,988.865,-0.686303,-0.462535,-1.84898,
2026_07_06_15_04_53.470,3.865,35.3,0,0.764,0,0,0,0, ,0,0,0,0,0, ,-38.9,149.4,985.3,-0.6,-0.5,-1.8,25,-38.3368,147.479,988.81,-0.687138,-0.464818,-1.84904,
2026_07_06_15_04_53.490,3.865,35.4,0,0.764,0,0,0,0, ,0,0,0,0,0, ,-38.8,145.9,991.2,-0.6,-0.5,-1.9,25,-38.3681,147.489,988.775,-0.681828,-0.466962,-1.8491,
2026_07_06_15_04_53.509,3.865,35.3,0,0.763,0,0,0,0, ,0,0,0,0,0, ,-38.2,147.8,986.9,-0.8,-0.5,-1.8,25,-38.3761,147.45,988.792,-0.682935,-0.468975,-1.84915,
2026_07_06_15_04_53.528,3.865,35.4,0,0.764,0,0,0,0, ,0,0,0,0,0, ,-39.3,146.1,991.4,-0.6,-0.5,-1.9,25,-38.3989,147.42,988.814,-0.683975,-0.470866,-1.84921,
2026_07_06_15_04_53.548,3.865,35.4,0,0.764,0,0,0,0, ,0,0,0,0,0, ,-38.9,148.4,987,-0.7,-0.5,-1.8,25,-38.4416,147.409,988.837,-0.681905,-0.472641,-1.84925,
2026_07_06_15_04_53.568,3.865,35.3,0,0.763,0,0,0,0, ,0,0,0,0,0, ,-38.9,146.9,989.7,-0.6,-0.5,-1.8,25,-38.4696,147.424,988.808,-0.67996,-0.474308,-1.84625,
2026_07_06_15_04_53.588,3.865,35.3,0,0.764,0,0,0,0, ,0,0,0,0,0, ,-38.8,146.2,991,-0.7,-0.5,-1.9,25,-38.4928,147.371,988.902,-0.678135,-0.475874,-1.84648,
2026_07_06_15_04_53.608,3.865,35.4,0,0.763,0,0,0,0, ,0,0,0,0,0, ,-37.5,146.9,988.4,-0.6,-0.4,-1.9,25,-38.4719,147.321,988.95,-0.67642,-0.474297,-1.84974,
2026_07_06_15_04_53.628,3.865,35.4,0,0.764,0,0,0,0, ,0,0,0,0,0, ,-38.2,147.2,988.6,-0.7,-0.5,-1.8,25,-38.434,147.304,988.923,-0.67481,-0.472816,-1.84976,
2026_07_06_15_04_53.648,3.865,35.3,0,0.763,0,0,0,0, ,0,0,0,0,0, ,-38,148.9,989.9,-0.7,-0.5,-1.9,25,-38.4136,147.35,988.943,-0.676345,-0.474473,-1.84977,
2026_07_06_15_04_53.668,3.865,35.4,0,0.763,0,0,0,0, ,0,0,0,0,0, ,-38,147,987.5,-0.7,-0.5,-1.8,25,-38.3884,147.386,988.928,-0.677787,-0.476028,-1.84979,
2026_07_06_15_04_53.688,3.865,35.3,0,0.763,0,0,0,0, ,0,0,0,0,0, ,-39.4,148.1,989.8,-0.7,-0.5,-1.8,25,-38.4074,147.396,988.911,-0.67914,-0.477489,-1.84675,
2026_07_06_15_04_53.707,3.865,35.4,0,0.763,0,0,0,0, ,0,0,0,0,0, ,-37.5,146.3,988.1,-0.7,-0.5,-1.8,25,-38.41,147.384,988.914,-0.680412,-0.478861,-1.8439,
2026_07_06_15_04_53.727,3.865,35.3,0,0.763,0,0,0,0, ,0,0,0,0,0, ,-38.4,148,989.9,-0.6,-0.5,-1.9,25,-38.382,147.37,988.919,-0.678558,-0.480149,-1.84427,
2026_07_06_15_04_53.752,3.865,35.4,0,0.763,0,0,0,0, ,0,0,0,0,0, ,-38.5,146.7,989.9,-0.6,-0.5,-2,25,-38.3861,147.369,988.979,-0.673771,-0.481359,-1.85072,
2026_07_06_15_04_53.767,3.865,35.3,0,0.763,0,0,0,0, ,0,0,0,0,0, ,-38.8,148.4,989.6,-0.7,-0.5,-1.9,25,-38.4022,147.38,989.026,-0.672323,-0.482495,-1.85677,
2026_07_06_15_04_53.787,3.865,35.4,0,0.764,0,0,0,0, ,0,0,0,0,0, ,-37.8,147.9,988.7,-0.7,-0.5,-1.8,25,-38.396,147.427,989.033,-0.674009,-0.483561,-1.85636,
2026_07_06_15_04_53.807,3.865,35.4,0,0.763,0,0,0,0, ,0,0,0,0,0, ,-38.9,146.6,988.8,-0.7,-0.5,-1.8,25,-38.3932,147.416,989.016,-0.675593,-0.484563,-1.85292,
2026_07_06_15_04_53.826,3.865,35.3,0,0.763,0,0,0,0, ,0,0,0,0,0, ,-37.5,146.2,989.6,-0.7,-0.5,-1.8,25,-38.3814,147.354,989.027,-0.67708,-0.485504,-1.8497,
2026_07_06_15_04_53.846,3.865,35.4,0,0.764,0,0,0,0, ,0,0,0,0,0, ,-37.7,148,986.9,-0.6,-0.5,-1.9,25,-38.3338,147.339,988.98,-0.67543,-0.486387,-1.84971,
2026_07_06_15_04_53.866,3.865,35.3,0,0.764,0,0,0,0, ,0,0,0,0,0, ,-37.8,147.7,989.2,-0.7,-0.5,-1.9,25,-38.2982,147.37,988.923,-0.67388,-0.487217,-1.85278,
2026_07_06_15_04_53.885,3.865,35.4,0,0.764,0,0,0,0, ,0,0,0,0,0, ,-37.9,146.9,989.1,-0.7,-0.5,-1.9,25,-38.2709,147.365,988.937,-0.675472,-0.487996,-1.85566,
2026_07_06_15_04_53.905,3.865,35.3,0,0.763,0,0,0,0, ,0,0,0,0,0, ,-38.8,148.4,989.2,-0.7,-0.5,-1.9,25,-38.2757,147.383,988.95,-0.676967,-0.488727,-1.85836,
2026_07_06_15_04_53.925,3.865,35.3,0,0.763,0,0,0,0, ,0,0,0,0,0, ,-38.6,148,989.6,-0.7,-0.5,-1.8,25,-38.3016,147.433,988.977,-0.67837,-0.489414,-1.85785,
2026_07_06_15_04_53.945,3.865,35.2,0,0.763,0,0,0,0, ,0,0,0,0,0, ,-38.2,146.1,987.7,-0.7,-0.5,-1.9,25,-38.3076,147.409,988.957,-0.679688,-0.490059,-1.85737,
2026_07_06_15_04_53.965,3.865,35.3,0,0.762,0,0,0,0, ,0,0,0,0,0, ,-38.9,148.5,987.6,-0.7,-0.5,-1.9,25,-38.3223,147.403,988.878,-0.680926,-0.490665,-1.85997,
2026_07_06_15_04_53.985,3.865,35.4,0,0.764,0,0,0,0, ,0,0,0,0,0, ,-38.2,148.3,989,-0.7,-0.5,-1.9,25,-38.3362,147.463,988.843,-0.682088,-0.491234,-1.86241,
2026_07_06_15_04_54.005,3.865,35.2,0,0.763,0,0,0,0, ,0,0,0,0,0, ,-37.1,148.1,989.1,-0.4,-0.4,-1.8,25,-38.2944,147.508,988.855,-0.674039,-0.488721,-1.86165,
2026_07_06_15_04_54.029,3.865,35.2,0,0.764,0,0,0,0, ,0,0,0,0,0, ,-37.7,149.6,989,-0.8,-0.5,-1.8,25,-38.2399,147.59,988.867,-0.669528,-0.486362,-1.8579,
2026_07_06_15_04_54.043,3.865,35.2,0,0.763,0,0,0,0, ,0,0,0,0,0, ,-37.9,140.6,990.2,-1.9,-0.2,0.4,25,-38.2131,147.438,988.912,-0.710994,-0.478052,-1.78734,
2026_07_06_15_04_54.063,3.865,35.2,0,0.763,0,0,0,0, ,0,0,0,0,0, ,-38.9,145.8,988.7,-3.8,-0.5,-1.5,25,-38.2245,147.18,988.945,-0.84134,-0.470249,-1.71194,
2026_07_06_15_04_54.083,3.865,35.3,0,0.762,0,0,0,0, ,0,0,0,0,0, ,-38,146.3,989,-0.9,-0.4,-1.7,25,-38.2382,147.111,988.939,-0.933274,-0.469015,-1.70511,
2026_07_06_15_04_54.103,3.865,35.2,0,0.762,0,0,0,0, ,0,0,0,0,0, ,-38.2,146.2,988.4,-0.5,-0.5,-1.8,25,-38.2298,147.059,988.924,-0.919058,-0.467856,-1.70785,
2026_07_06_15_04_54.123,3.865,35.3,0,0.764,0,0,0,0, ,0,0,0,0,0, ,-38.2,149.7,989.7,-0.6,-0.5,-1.9,25,-38.228,147.113,988.932,-0.896569,-0.469815,-1.71651,
2026_07_06_15_04_54.143,3.865,35.4,0,0.763,0,0,0,0, ,0,0,0,0,0, ,-38.2,147.9,988.6,-0.9,-0.5,-1.8,25,-38.2263,147.216,988.945,-0.887637,-0.471654,-1.72465,
2026_07_06_15_04_54.163,3.865,35.3,0,0.764,0,0,0,0, ,0,0,0,0,0, ,-39.1,146.8,988.7,-0.8,-0.5,-1.9,25,-38.2521,147.224,988.927,-0.885344,-0.473382,-1.73229,
2026_07_06_15_04_54.183,3.865,35.4,0,0.764,0,0,0,0, ,0,0,0,0,0, ,-37.8,145.9,989.7,-0.8,-0.5,-1.9,25,-38.2642,147.171,988.944,-0.880143,-0.475004,-1.74251,
2026_07_06_15_04_54.203,3.865,35.3,0,0.764,0,0,0,0, ,0,0,0,0,0, ,-38.5,147.9,987.7,-0.7,-0.4,-1.8,25,-38.2572,147.154,988.929,-0.872213,-0.47348,-1.74906,
2026_07_06_15_04_54.223,3.865,35.3,0,0.763,0,0,0,0, ,0,0,0,0,0, ,-37.3,146.6,989.7,-0.9,-0.5,-1.9,25,-38.2354,147.16,988.915,-0.867812,-0.472049,-1.75521,
2026_07_06_15_04_54.243,3.865,35.3,0,0.764,0,0,0,0, ,0,0,0,0,0, ,-37.4,146.3,988,-0.7,-0.5,-1.9,25,-38.1815,147.117,988.911,-0.86368,-0.473753,-1.76403,
2026_07_06_15_04_54.263,3.865,35.2,0,0.764,0,0,0,0, ,0,0,0,0,0, ,-38.5,146.7,987.9,-0.9,-0.6,-1.8,25,-38.1674,147.079,988.852,-0.859799,-0.478399,-1.76927,
2026_07_06_15_04_54.282,3.865,35.2,0,0.763,0,0,0,0, ,0,0,0,0,0, ,-38.9,146.8,987.9,-0.8,-0.5,-1.9,25,-38.1998,147.059,988.794,-0.859202,-0.482762,-1.77419,
2026_07_06_15_04_54.302,3.865,35.3,0,0.763,0,0,0,0, ,0,0,0,0,0, ,-38.3,146.1,988.7,-0.7,-0.4,-1.9,25,-38.2242,147.022,988.764,-0.852548,-0.480766,-1.78186,
2026_07_06_15_04_54.321,3.865,35.3,0,0.763,0,0,0,0, ,0,0,0,0,0, ,-37.5,146.8,988.4,-0.7,-0.5,-1.9,25,-38.2045,146.987,988.751,-0.843252,-0.478891,-1.78905,
2026_07_06_15_04_54.341,3.865,35.2,0,0.764,0,0,0,0, ,0,0,0,0,0, ,-37.7,147.4,989.2,-0.7,-0.5,-1.8,25,-38.1676,146.994,988.754,-0.834522,-0.480177,-1.79277,
2026_07_06_15_04_54.361,3.865,35.4,0,0.763,0,0,0,0, ,0,0,0,0,0, ,-38.6,145.2,989.5,-0.6,-0.5,-1.9,25,-38.1665,146.952,988.791,-0.823278,-0.481385,-1.79626,
2026_07_06_15_04_54.381,3.865,35.3,0,0.764,0,0,0,0, ,0,0,0,0,0, ,-38.6,146.9,988.1,-0.6,-0.5,-1.8,25,-38.193,146.897,988.791,-0.809672,-0.482519,-1.79953,
2026_07_06_15_04_54.401,3.865,35.3,0,0.764,0,0,0,0, ,0,0,0,0,0, ,-38.9,146.6,988.2,-0.6,-0.5,-1.9,25,-38.2269,146.888,988.752,-0.796895,-0.483585,-1.80261,
2026_07_06_15_04_54.420,3.865,35.3,0,0.764,0,0,0,0, ,0,0,0,0,0, ,-38.8,147,990.2,-0.5,-0.5,-1.8,25,-38.2649,146.883,988.779,-0.78185,-0.484585,-1.80549,
2026_07_06_15_04_54.440,3.865,35.3,0,0.763,0,0,0,0, ,0,0,0,0,0, ,-38.6,147.2,989.1,-0.7,-0.5,-1.9,25,-38.2914,146.896,988.832,-0.770769,-0.485524,-1.80821,
2026_07_06_15_04_54.460,3.865,35.2,0,0.763,0,0,0,0, ,0,0,0,0,0, ,-37.4,145.3,989.9,-0.8,-0.4,-1.9,25,-38.2736,146.856,988.873,-0.769503,-0.48336,-1.8138,
2026_07_06_15_04_54.481,3.865,35.3,0,0.764,0,0,0,0, ,0,0,0,0,0, ,-38.5,144.4,988.7,-0.8,-0.5,-1.8,25,-38.2539,146.734,988.899,-0.771361,-0.481327,-1.81601,
2026_07_06_15_04_54.500,3.865,35.2,0,0.762,0,0,0,0, ,0,0,0,0,0, ,-37.9,146.7,989.5,-0.6,-0.5,-1.8,25,-38.2506,146.662,988.911,-0.767013,-0.482465,-1.81503,
2026_07_06_15_04_54.520,3.865,35.3,0,0.764,0,0,0,0, ,0,0,0,0,0, ,-37.5,147.3,988.4,-0.7,-0.4,-1.8,25,-38.2171,146.683,988.914,-0.759882,-0.480486,-1.81411,
2026_07_06_15_04_54.539,3.865,35.3,0,0.764,0,0,0,0, ,0,0,0,0,0, ,-39.1,145.3,989.1,-0.6,-0.5,-1.9,25,-38.2221,146.659,988.904,-0.753186,-0.478629,-1.8163,
2026_07_06_15_04_54.559,3.865,35.3,0,0.764,0,0,0,0, ,0,0,0,0,0, ,-37.8,145.3,989.3,-0.7,-0.5,-1.9,25,-38.236,146.576,988.922,-0.746898,-0.479931,-1.8214,
2026_07_06_15_04_54.579,3.865,35.2,0,0.763,0,0,0,0, ,0,0,0,0,0, ,-38.6,146.3,988.4,-0.7,-0.5,-1.9,25,-38.2338,146.529,988.917,-0.744041,-0.481154,-1.82619,
2026_07_06_15_04_54.602,3.865,35.3,0,0.763,0,0,0,0, ,0,0,0,0,0, ,-37.5,145.3,989,-0.6,-0.5,-1.8,25,-38.2226,146.485,988.904,-0.73831,-0.482302,-1.82764,
2026_07_06_15_04_54.619,3.865,35.3,0,0.764,0,0,0,0, ,0,0,0,0,0, ,-38.2,147.7,988.1,-0.7,-0.5,-1.9,25,-38.1999,146.486,988.883,-0.732929,-0.483381,-1.829,
2026_07_06_15_04_54.638,3.865,35.3,0,0.764,0,0,0,0, ,0,0,0,0,0, ,-37.7,145.9,989.2,-0.7,-0.5,-1.9,25,-38.1847,146.505,988.868,-0.730922,-0.484393,-1.83333,
2026_07_06_15_04_54.658,3.865,35.4,0,0.764,0,0,0,0, ,0,0,0,0,0, ,-39.4,146.4,988.1,-0.7,-0.5,-1.9,25,-38.2069,146.483,988.855,-0.729038,-0.485345,-1.83739,
2026_07_06_15_04_54.678,3.865,35.2,0,0.763,0,0,0,0, ,0,0,0,0,0, ,-39.1,148,988.7,-0.7,-0.5,-1.8,25,-38.2705,146.527,988.827,-0.727268,-0.486238,-1.83816,
2026_07_06_15_04_54.698,3.865,35.3,0,0.762,0,0,0,0, ,0,0,0,0,0, ,-38.5,146.9,988.6,-0.7,-0.5,-1.9,25,-38.3028,146.583,988.817,-0.725607,-0.487076,-1.83888,
2026_07_06_15_04_54.718,3.865,35.2,0,0.763,0,0,0,0, ,0,0,0,0,0, ,-38,145.1,990.4,-0.6,-0.5,-1.8,25,-38.2996,146.548,988.858,-0.720999,-0.487864,-1.83956,
2026_07_06_15_04_54.741,3.865,35.3,0,0.764,0,0,0,0, ,0,0,0,0,0, ,-38.8,146.4,988.5,-0.7,-0.5,-1.9,25,-38.3057,146.499,988.894,-0.716673,-0.488603,-1.8402,
2026_07_06_15_04_54.757,3.865,35.2,0,0.763,0,0,0,0, ,0,0,0,0,0, ,-39,146.4,988.4,-0.7,-0.5,-1.8,25,-38.3419,146.493,988.867,-0.715657,-0.489298,-1.84079,
2026_07_06_15_04_54.777,3.865,35.4,0,0.763,0,0,0,0, ,0,0,0,0,0, ,-37.9,146.9,990.2,-0.7,-0.5,-1.9,25,-38.3485,146.503,988.894,-0.714703,-0.48995,-1.84136,
2026_07_06_15_04_54.797,3.865,35.2,0,0.763,0,0,0,0, ,0,0,0,0,0, ,-37.8,145.8,989.6,-0.7,-0.5,-1.8,25,-38.3181,146.493,988.955,-0.713807,-0.490562,-1.84188,
2026_07_06_15_04_54.817,3.865,35.3,0,0.764,0,0,0,0, ,0,0,0,0,0, ,-37.9,146.6,987.9,-0.7,-0.5,-1.9,25,-38.2896,146.475,988.942,-0.712965,-0.491137,-1.84238,
2026_07_06_15_04_54.837,3.865,35.3,0,0.763,0,0,0,0, ,0,0,0,0,0, ,-38.4,148.8,988.8,-0.7,-0.4,-1.9,25,-38.2811,146.55,988.906,-0.712175,-0.488631,-1.84589,
2026_07_06_15_04_54.858,3.865,35.3,0,0.764,0,0,0,0, ,0,0,0,0,0, ,-37.7,146.8,988.4,-0.7,-0.4,-1.9,25,-38.267,146.626,988.888,-0.711433,-0.48323,-1.84919,
2026_07_06_15_04_54.877,3.865,35.2,0,0.764,0,0,0,0, ,0,0,0,0,0, ,-37.9,145.7,989.6,-0.7,-0.5,-1.9,25,-38.2385,146.603,988.894,-0.710737,-0.481205,-1.85228,
2026_07_06_15_04_54.896,3.865,35.3,0,0.764,0,0,0,0, ,0,0,0,0,0, ,-38,146.8,988.1,-0.7,-0.4,-1.9,25,-38.221,146.582,988.892,-0.710082,-0.479303,-1.85519,
2026_07_06_15_04_54.916,3.865,35.2,0,0.763,0,0,0,0, ,0,0,0,0,0, ,-38.6,146.4,988.8,-0.7,-0.4,-1.9,25,-38.2258,146.583,988.865,-0.709468,-0.474471,-1.85792,
2026_07_06_15_04_54.936,3.865,35.2,0,0.764,0,0,0,0, ,0,0,0,0,0, ,-39.6,146.8,988.7,-0.7,-0.4,-1.9,25,-38.279,146.584,988.858,-0.708891,-0.469933,-1.86048,
2026_07_06_15_04_54.956,3.865,35.2,0,0.763,0,0,0,0, ,0,0,0,0,0, ,-37.9,145.8,989.9,-0.6,-0.4,-1.9,25,-38.3077,146.567,988.885,-0.705302,-0.465671,-1.86289,
2026_07_06_15_04_54.975,3.865,35.3,0,0.765,0,0,0,0, ,0,0,0,0,0, ,-39.3,147.4,989.2,-0.6,-0.4,-1.9,25,-38.3256,146.569,988.925,-0.698885,-0.461669,-1.86515,
2026_07_06_15_04_54.995,3.865,35.2,0,0.764,0,0,0,0, ,0,0,0,0,0, ,-37.8,145.9,989.3,-0.7,-0.5,-1.9,25,-38.3392,146.574,988.945,-0.695907,-0.460958,-1.86728,
2026_07_06_15_04_55.015,3.865,35.2,0,0.763,0,0,0,0, ,0,0,0,0,0, ,-37.9,147.7,989.2,-0.6,-0.4,-1.9,25,-38.3094,146.587,988.964,-0.693109,-0.46029,-1.86927,
2026_07_06_15_04_55.037,3.865,35.2,0,0.764,0,0,0,0, ,0,0,0,0,0, ,-38,147.2,990.4,-0.6,-0.4,-1.9,25,-38.2875,146.64,989.015,-0.687435,-0.456616,-1.87114,
2026_07_06_15_04_55.054,3.865,35.1,0,0.764,0,0,0,0, ,0,0,0,0,0, ,-38.4,146.1,989,-0.7,-0.4,-1.9,25,-38.2822,146.641,989.056,-0.685154,-0.453166,-1.8729,
2026_07_06_15_04_55.074,3.865,35.2,0,0.763,0,0,0,0, ,0,0,0,0,0, ,-37.3,146.4,988.8,-0.6,-0.5,-1.8,25,-38.2558,146.617,989.047,-0.683012,-0.452973,-1.87151,
2026_07_06_15_04_55.094,3.865,35.3,0,0.763,0,0,0,0, ,0,0,0,0,0, ,-37.8,146.8,989,-0.7,-0.5,-1.9,25,-38.2128,146.616,989.038,-0.681,-0.455839,-1.8702,
2026_07_06_15_04_55.115,3.865,35.2,0,0.763,0,0,0,0, ,0,0,0,0,0, ,-37.3,147,989.7,-0.7,-0.5,-1.8,25,-38.1724,146.633,989.057,-0.682158,-0.45853,-1.86897,
2026_07_06_15_04_55.134,3.865,35.2,0,0.765,0,0,0,0, ,0,0,0,0,0, ,-37.9,145.5,989.5,-0.7,-0.5,-2,25,-38.1376,146.61,989.09,-0.683245,-0.461057,-1.87086,
2026_07_06_15_04_55.153,3.865,35.2,0,0.764,0,0,0,0, ,0,0,0,0,0, ,-37.9,147.3,989.1,-0.7,-0.4,-1.9,25,-38.1231,146.597,989.103,-0.684266,-0.460383,-1.87568,
2026_07_06_15_04_55.179,3.865,35.2,0,0.763,0,0,0,0, ,0,0,0,0,0, ,-36.2,145.8,988.7,-0.6,-0.5,-1.9,25,-38.0577,146.594,989.09,-0.682178,-0.459751,-1.87716,
2026_07_06_15_04_55.194,3.865,35.2,0,0.763,0,0,0,0, ,0,0,0,0,0, ,-38.8,145.9,987.7,-0.7,-0.5,-1.8,25,-38.0237,146.549,989.036,-0.680217,-0.462203,-1.87551,
2026_07_06_15_04_55.213,3.865,35.2,0,0.764,0,0,0,0, ,0,0,0,0,0, ,-38.8,146.4,989.1,-0.7,-0.5,-1.8,25,-38.071,146.524,988.997,-0.681423,-0.464507,-1.87091,
2026_07_06_15_04_55.233,3.865,35.2,0,0.764,0,0,0,0, ,0,0,0,0,0, ,-38.3,146.8,988.8,-0.6,-0.6,-1.9,25,-38.1002,146.529,988.995,-0.679508,-0.469716,-1.86963,
2026_07_06_15_04_55.253,3.865,35.1,0,0.764,0,0,0,0, ,0,0,0,0,0, ,-37.5,146.8,990.9,-0.7,-0.5,-1.9,25,-38.088,146.546,989.047,-0.67771,-0.474609,-1.87148,
2026_07_06_15_04_55.272,3.865,35.2,0,0.763,0,0,0,0, ,0,0,0,0,0, ,-38.5,146.6,989.2,-0.7,-0.4,-1.8,25,-38.0826,146.555,989.108,-0.679068,-0.473109,-1.87017,
2026_07_06_15_04_55.292,3.865,35.3,0,0.764,0,0,0,0, ,0,0,0,0,0, ,-37.9,145.3,988.7,-0.7,-0.5,-1.9,25,-38.0898,146.518,989.098,-0.680344,-0.471701,-1.86894,
2026_07_06_15_04_55.312,3.865,35.2,0,0.764,0,0,0,0, ,0,0,0,0,0, ,-39.3,145.9,989.1,-0.7,-0.5,-1.8,25,-38.1209,146.462,989.086,-0.681541,-0.473425,-1.86779,
2026_07_06_15_04_55.331,3.865,35.2,0,0.763,0,0,0,0, ,0,0,0,0,0, ,-38.9,145.9,989.1,-0.7,-0.5,-1.8,25,-38.1805,146.428,989.087,-0.682666,-0.475045,-1.86366,
2026_07_06_15_04_55.351,3.865,35.4,0,0.762,0,0,0,0, ,0,0,0,0,0, ,-38.9,147.5,988.5,-0.6,-0.4,-1.9,25,-38.2244,146.444,989.069,-0.680676,-0.473519,-1.86283,
2026_07_06_15_04_55.371,3.865,35.2,0,0.764,0,0,0,0, ,0,0,0,0,0, ,-38.8,145.1,989.1,-0.7,-0.4,-1.9,25,-38.2625,146.436,989.053,-0.678806,-0.469039,-1.86509,
2026_07_06_15_04_55.391,3.865,35.2,0,0.763,0,0,0,0, ,0,0,0,0,0, ,-38.5,146.7,988.5,-0.7,-0.5,-1.8,25,-38.2861,146.403,989.038,-0.680098,-0.467878,-1.86417,
2026_07_06_15_04_55.411,3.865,35.2,0,0.763,0,0,0,0, ,0,0,0,0,0, ,-37.7,145,990.2,-0.7,-0.5,-1.8,25,-38.2748,146.369,989.057,-0.681311,-0.469836,-1.86026,
2026_07_06_15_04_55.431,3.865,35.2,0,0.764,0,0,0,0, ,0,0,0,0,0, ,-36.9,146.9,988.7,-0.6,-0.5,-1.8,25,-38.2154,146.344,989.081,-0.679403,-0.471674,-1.85659,
2026_07_06_15_04_55.451,3.865,35.1,0,0.762,0,0,0,0, ,0,0,0,0,0, ,-37.9,146.3,989.1,-0.7,-0.5,-1.8,25,-38.1657,146.359,989.07,-0.677611,-0.4734,-1.85314,
2026_07_06_15_04_55.470,3.865,35.2,0,0.764,0,0,0,0, ,0,0,0,0,0, ,-39.6,146.6,987.5,-0.7,-0.5,-1.9,25,-38.2013,146.365,989.023,-0.678975,-0.475021,-1.85295,
2026_07_06_15_04_55.490,3.865,35.3,0,0.762,0,0,0,0, ,0,0,0,0,0, ,-38.5,145.6,988,-0.7,-0.5,-2,25,-38.253,146.349,988.945,-0.680256,-0.476543,-1.85886,
2026_07_06_15_04_55.510,3.865,35.2,0,0.764,0,0,0,0, ,0,0,0,0,0, ,-37.4,146.7,988.8,-0.7,-0.5,-1.8,25,-38.2346,146.337,988.912,-0.68146,-0.477973,-1.86137,
2026_07_06_15_04_55.530,3.865,35.2,0,0.763,0,0,0,0, ,0,0,0,0,0, ,-38.9,147,988.1,-0.7,-0.5,-1.9,25,-38.2294,146.368,988.884,-0.682589,-0.479315,-1.86068,
2026_07_06_15_04_55.550,3.865,35.1,0,0.763,0,0,0,0, ,0,0,0,0,0, ,-38.8,146.4,989.7,-0.7,-0.5,-1.8,25,-38.2672,146.388,988.885,-0.68365,-0.480575,-1.86003,
2026_07_06_15_04_55.569,3.865,35.2,0,0.762,0,0,0,0, ,0,0,0,0,0, ,-38.9,147,989.9,-0.7,-0.5,-2,25,-38.3027,146.407,988.941,-0.684647,-0.481759,-1.86246,
2026_07_06_15_04_55.589,3.865,35.3,0,0.764,0,0,0,0, ,0,0,0,0,0, ,-38.6,145.3,988.5,-0.7,-0.5,-1.8,25,-38.33,146.392,988.956,-0.685582,-0.482871,-1.86475,
2026_07_06_15_04_55.609,3.865,35.2,0,0.763,0,0,0,0, ,0,0,0,0,0, ,-38.6,145.9,989,-0.7,-0.5,-1.9,25,-38.3464,146.343,988.944,-0.686461,-0.483914,-1.86385,
2026_07_06_15_04_55.635,3.865,35.2,0,0.764,0,0,0,0, ,0,0,0,0,0, ,-38.2,145.9,991.3,-0.6,-0.5,-1.9,25,-38.3497,146.316,989.017,-0.684239,-0.484895,-1.86605,
2026_07_06_15_04_55.649,3.865,35.1,0,0.763,0,0,0,0, ,0,0,0,0,0, ,-37.9,147,989.8,-0.5,-0.5,-1.8,25,-38.3314,146.324,989.111,-0.676059,-0.485815,-1.86508,
2026_07_06_15_04_55.668,3.865,35.1,0,0.763,0,0,0,0, ,0,0,0,0,0, ,-39.6,147.7,988.4,-1.3,-0.5,-1.8,25,-38.3569,146.387,989.11,-0.689705,-0.48668,-1.86111,
2026_07_06_15_04_55.688,3.865,35.2,0,0.764,0,0,0,0, ,0,0,0,0,0, ,-55.7,113.5,988.8,-13,-0.4,0,25,-38.9232,145.425,989.079,-1.08338,-0.484444,-1.80254,
2026_07_06_15_04_55.708,3.865,35.2,0,0.764,0,0,0,0, ,0,0,0,0,0, ,12.4,153.4,991.9,-6.5,0.1,2.8,25,-37.8707,144.695,989.156,-1.6115,-0.464064,-1.60739,
2026_07_06_15_04_55.728,3.865,35.1,0,0.764,0,0,0,0, ,0,0,0,0,0, ,-36.9,140.9,989,10.3,-0.9,-6,25,-36.3094,144.845,989.235,-1.39752,-0.46016,-1.60694,
2026_07_06_15_04_55.747,3.865,35.1,0,0.764,0,0,0,0, ,0,0,0,0,0, ,-14.1,147,989.9,9.3,-1.3,-7.3,25,-35.6507,144.79,989.248,-0.715171,-0.49915,-1.91425,
2026_07_06_15_04_55.767,3.865,35.2,0,0.765,0,0,0,0, ,0,0,0,0,0, ,115.4,150,997.8,17.5,-0.1,-6.1,25,-30.3918,145.016,989.529,0.144972,-0.51139,-2.20588,
2026_07_06_15_04_55.791,3.865,35.2,0,0.764,0,0,0,0, ,0,0,0,0,0, ,43,237,1017.3,9.9,12.7,3.6,25,-23.7135,147.971,990.627,0.970982,-0.0963207,-2.14763,
2026_07_06_15_04_55.807,3.865,35.2,0,0.762,0,0,0,0, ,0,0,0,0,0, ,-73.3,101.5,1081.2,15.3,23.2,-6.6,25,-23.1917,149.267,994.199,1.67963,1.00338,-2.10817,
2026_07_06_15_04_55.827,3.865,35.2,0,0.764,0,0,0,0, ,0,0,0,0,0, ,-50,177.6,1186,-17.6,24.9,-9.2,25,-25.5352,148.675,1002.69,1.50719,2.40778,-2.46111,
2026_07_06_15_04_55.846,3.865,35.2,0,0.764,0,0,0,0, ,0,0,0,0,0, ,-118.6,139.5,1131.2,-27.2,20.4,-8.8,25,-29.1162,149.277,1012.19,0.0503503,3.64129,-2.85957,
2026_07_06_15_04_55.868,3.865,35.2,0,0.763,0,0,0,0, ,0,0,0,0,0, ,-45.6,197.7,1089.9,-32.1,16,-14.1,25,-32.3449,150.455,1018.19,-1.75951,4.52846,-3.38305,
2026_07_06_15_04_55.887,3.865,35.1,0,0.764,0,0,0,0, ,0,0,0,0,0, ,-36.4,177.3,1030.6,-46,7.1,-18.7,25,-32.8723,152.712,1020.75,-4.0319,4.95634,-4.17627,
2026_07_06_15_04_55.906,3.865,35.2,0,0.764,0,0,0,0, ,0,0,0,0,0, ,-88.6,102.6,982.9,-43.9,1.8,-21.3,25,-34.6778,151.934,1019.9,-6.52535,4.92548,-5.14053,
2026_07_06_15_04_55.926,3.865,35.2,0,0.763,0,0,0,0, ,0,0,0,0,0, ,-164.9,94.4,995.2,-40.2,-4.2,-23.6,25,-40.2884,148.678,1018.02,-8.69013,4.55221,-6.19532,
2026_07_06_15_04_55.947,3.865,35.1,0,0.763,0,0,0,0, ,0,0,0,0,0, ,-167.2,76.7,994.7,-41.8,-8.3,-24,25,-47.952,144.831,1016.61,-10.659,3.89395,-7.26811,
2026_07_06_15_04_55.966,3.865,35.1,0,0.763,0,0,0,0, ,0,0,0,0,0, ,-166.3,83,921.7,-39.2,-11.6,-26.1,25,-55.1913,140.871,1013.05,-12.4775,3.05033,-8.35169,
2026_07_06_15_04_55.986,3.865,35.2,0,0.764,0,0,0,0, ,0,0,0,0,0, ,-139.1,146.6,906.6,-31.2,-9.6,-26.8,25,-61.1332,139.283,1007.03,-13.8621,2.21852,-9.45456,
2026_07_06_15_04_56.005,3.865,35.1,0,0.764,0,0,0,0, ,0,0,0,0,0, ,-119.6,26.2,916,-19.1,-17.2,-24.5,25,-65.2902,136.06,1001.19,-14.55,1.26676,-10.4415,
2026_07_06_15_04_56.025,3.865,35.1,0,0.764,0,0,0,0, ,0,0,0,0,0, ,-103,40.7,1039.1,-5.5,-41,-30.5,25,-68.0939,129.807,999.752,-14.4129,-0.58371,-11.481,
2026_07_06_15_04_56.045,3.865,35.1,0,0.764,0,0,0,0, ,0,0,0,0,0, ,-99.3,3.5,1096,-14.2,-80.4,-31.6,25,-70.1082,123.244,1003.88,-14.1348,-4.24705,-12.6735,
2026_07_06_15_04_56.064,3.865,35.1,0,0.764,0,0,0,0, ,0,0,0,0,0, ,-27.2,57.7,962.4,-21.6,-111.8,-27.8,25,-69.6903,117.599,1005.43,-14.3642,-9.84434,-13.711,
2026_07_06_15_04_56.085,3.865,35.2,0,0.762,0,0,0,0, ,0,0,0,0,0, ,-1.2,74.5,961.3,-9.6,-122.2,-20.7,25,-66.3089,114.46,1002.77,-14.4396,-16.3741,-14.3532,
2026_07_06_15_04_56.107,3.865,35.2,0,0.763,0,0,0,0, ,0,0,0,0,0, ,-12.3,15.2,1038.3,-13,-125,-18.9,25,-62.6795,110.218,1002.59,-14.2482,-22.9082,-14.6851,
2026_07_06_15_04_56.124,3.865,35.2,0,0.764,0,0,0,0, ,0,0,0,0,0, ,47.9,39.9,1059.5,-29.2,-117.8,-21.5,25,-57.7753,105.181,1005.41,-14.6658,-28.9101,-15.0212,
2026_07_06_15_04_56.143,3.865,35.2,0,0.764,0,0,0,0, ,0,0,0,0,0, ,123.6,10.9,1065.7,-36.3,-92.4,-23.9,25,-49.0292,100.319,1008.9,-15.7678,-33.5529,-15.4891,
2026_07_06_15_04_56.163,3.865,35.2,0,0.764,0,0,0,0, ,0,0,0,0,0, ,154.4,-0.3,1072.3,-33,-49.3,-23,25,-37.5712,94.529,1012.56,-16.9184,-35.8257,-15.9742,
2026_07_06_15_04_56.184,3.865,35.2,0,0.764,0,0,0,0, ,0,0,0,0,0, ,184.6,9,1113.4,-33.5,5.6,-31,25,-24.9528,89.0337,1017.45,-17.9136,-34.974,-16.6461,
2026_07_06_15_04_56.204,3.865,35.2,0,0.763,0,0,0,0, ,0,0,0,0,0, ,388.9,192.3,960.2,-35.7,71.6,-47.3,25,-5.9584,89.7415,1018.63,-18.9304,-30.4906,-18.0175,
2026_07_06_15_04_56.223,3.865,35.2,0,0.763,0,0,0,0, ,0,0,0,0,0, ,358.2,-31.2,900.2,-32.8,137.5,-36.3,25,17.1679,89.1814,1013.24,-19.864,-22.2616,-19.4667,
2026_07_06_15_04_56.242,3.865,35.3,0,0.764,0,0,0,0, ,0,0,0,0,0, ,194,-38.8,957.6,-16.4,167.6,-24.3,25,32.9466,81.6141,1008.1,-20.1526,-11.609,-20.1269,
2026_07_06_15_04_56.266,3.865,35.1,0,0.763,0,0,0,0, ,0,0,0,0,0, ,40.8,-119.6,938.8,-1.4,167.7,-3.6,25,38.0929,71.8145,1004.45,-19.4669,-0.685401,-19.7505,
2026_07_06_15_04_56.283,3.865,35.1,0,0.764,0,0,0,0, ,0,0,0,0,0, ,32.7,79.7,965,-20.2,136.9,-11.3,25,38.0111,66.2226,1001.25,-18.9387,8.63715,-19.0009,
2026_07_06_15_04_56.303,3.865,35.2,0,0.765,0,0,0,0, ,0,0,0,0,0, ,-61.5,105.2,946.8,-79.9,95.1,-23.8,25,34.8173,67.8208,998.486,-20.8346,15.1796,-18.9125,
2026_07_06_15_04_56.322,3.865,35.2,0,0.764,0,0,0,0, ,0,0,0,0,0, ,-180.7,-157.9,1006.2,-45.9,51.2,-39.1,25,25.3161,62.0823,997.147,-23.3979,18.7121,-19.6765,
2026_07_06_15_04_56.341,3.865,35.2,0,0.764,0,0,0,0, ,0,0,0,0,0, ,-90.8,-29.7,1023.5,-30.1,10.8,-41.6,25,15.5011,52.5832,998.225,-24.2878,19.4609,-20.9363,
2026_07_06_15_04_56.362,3.865,35.1,0,0.762,0,0,0,0, ,0,0,0,0,0, ,47.2,-71.8,1121.2,-17.5,-15.2,-40.6,25,13.2281,46.2864,1002.74,-24.258,18.141,-22.165,
2026_07_06_15_04_56.382,3.865,35.1,0,0.762,0,0,0,0, ,0,0,0,0,0, ,131.3,-43.3,925.9,-84.4,-15.2,-42.3,25,17.8607,39.9588,1004.01,-25.8846,16.1093,-23.3402,
2026_07_06_15_04_56.401,3.865,35.2,0,0.764,0,0,0,0, ,0,0,0,0,0, ,-58.7,-261.9,709.2,-68.1,21.2,-27.5,25,18.9843,28.2248,992.648,-28.9537,15.3104,-24.0446,
2026_07_06_15_04_56.421,3.865,35,0,0.764,0,0,0,0, ,0,0,0,0,0, ,-276.8,-370.6,803.3,48.4,-39.8,-27.7,25,7.60521,7.23336,978.242,-27.7896,13.8107,-24.2613,
2026_07_06_15_04_56.441,3.865,35.1,0,0.765,0,0,0,0, ,0,0,0,0,0, ,-186.6,-12,1056.7,13.7,-187,-49.5,25,-6.97745,-4.86477,975.303,-24.204,6.05881,-25.135,
2026_07_06_15_04_56.461,3.865,35.1,0,0.764,0,0,0,0, ,0,0,0,0,0, ,52.1,-132.8,1019,-21.9,-250.1,-47.9,25,-10.6503,-8.9802,979.114,-22.979,-7.62829,-26.571,
2026_07_06_15_04_56.481,3.865,35.2,0,0.764,0,0,0,0, ,0,0,0,0,0, ,145.3,-101.1,891.4,-56.5,-250.1,-30.2,25,-3.98678,-15.5596,977.657,-23.9674,-22.4039,-27.3315,
2026_07_06_15_04_56.501,3.865,35.2,0,0.764,0,0,0,0, ,0,0,0,0,0, ,236.6,-134.1,880.4,-71,-250.1,-14.1,25,7.89218,-21.7777,972.065,-26.3917,-36.2791,-27.0157,
2026_07_06_15_04_56.520,3.865,35.2,0,0.764,0,0,0,0, ,0,0,0,0,0, ,360.9,-104.6,975.8,0.3,-250.1,6.5,25,25.6163,-27.7235,969.386,-26.9376,-49.3088,-25.601,
2026_07_06_15_04_56.540,3.865,35.2,0,0.763,0,0,0,0, ,0,0,0,0,0, ,425.4,-232.4,951.7,-32,-250.1,9.4,25,48.0129,-36.3021,969.043,-26.2619,-61.5446,-23.5565,
2026_07_06_15_04_56.560,3.865,35.1,0,0.764,0,0,0,0, ,0,0,0,0,0, ,493.5,-186,850.8,-42.5,-219.3,17.1,25,73.0849,-46.838,964.912,-26.9315,-72.0962,-21.3136,
2026_07_06_15_04_56.586,3.865,35.1,0,0.763,0,0,0,0, ,0,0,0,0,0, ,439.4,-214.3,808.2,-20.2,-199.5,15.5,25,97.0555,-56.1805,956.66,-27.2008,-80.4632,-19.0215,
2026_07_06_15_04_56.599,3.865,35,0,0.762,0,0,0,0, ,0,0,0,0,0, ,500.3,-216.1,790.5,2.2,-232.8,-5.6,25,119.773,-65.8707,947.074,-26.0917,-88.7316,-17.5608,
2026_07_06_15_04_56.619,3.865,35.1,0,0.763,0,0,0,0, ,0,0,0,0,0, ,611.5,-161.1,716.4,7.3,-238.4,-19,25,146.349,-73.3495,935.275,-24.2122,-97.6814,-17.2402,
2026_07_06_15_04_56.640,3.865,35.2,0,0.762,0,0,0,0, ,0,0,0,0,0, ,754.6,-183.9,664.5,0.1,-229.1,-16.3,25,179.054,-79.3915,920.356,-22.5113,-105.973,-17.2652,
2026_07_06_15_04_56.659,3.865,35.2,0,0.764,0,0,0,0, ,0,0,0,0,0, ,952.7,-195.1,615.1,-1.7,-205.8,-2.3,25,220.163,-86.1013,903.26,-21.1883,-112.766,-16.7798,
2026_07_06_15_04_56.679,3.865,35.2,0,0.762,0,0,0,0, ,0,0,0,0,0, ,931.6,-302.2,570.8,4.4,-178.1,22,25,264.159,-96.0066,884.35,-19.8149,-117.591,-15.157,
2026_07_06_15_04_56.698,3.865,35.1,0,0.762,0,0,0,0, ,0,0,0,0,0, ,836.6,-206.7,497.1,-0.9,-156,17.5,25,301.936,-105.662,862.998,-18.5008,-120.605,-13.0299,
2026_07_06_15_04_56.718,3.865,35.1,0,0.763,0,0,0,0, ,0,0,0,0,0, ,728.2,-170.5,495.4,-3.8,-162.3,8.2,25,331.215,-110.716,840.649,-17.5166,-122.954,-11.4528,
2026_07_06_15_04_56.738,3.865,35.2,0,0.762,0,0,0,0, ,0,0,0,0,0, ,790.4,-186.1,389.1,-4,-181.5,14.1,25,357.301,-114.834,816.371,-16.6868,-125.937,-10.0755,
2026_07_06_15_04_56.758,3.865,35.2,0,0.764,0,0,0,0, ,0,0,0,0,0, ,845.9,-252,343.3,-1.6,-206.2,8.1,25,385.384,-121.185,788.939,-15.8406,-130.075,-8.78508,
2026_07_06_15_04_56.777,3.865,35.1,0,0.763,0,0,0,0, ,0,0,0,0,0, ,874.3,-294.5,278,-16.6,-202,-0.1,25,414.312,-130.451,759.793,-15.4298,-134.586,-8.00599,
2026_07_06_15_04_56.798,3.865,35.2,0,0.763,0,0,0,0, ,0,0,0,0,0, ,957.8,-311,185.6,-28.1,-176.9,-21.1,25,444.887,-140.951,727.619,-15.8515,-137.929,-8.16407,
2026_07_06_15_04_56.817,3.865,35.1,0,0.762,0,0,0,0, ,0,0,0,0,0, ,1016.3,-200.9,118,-47.8,-173,-37.9,25,477.925,-147.959,692.53,-17.1982,-140.185,-9.46422,
2026_07_06_15_04_56.837,3.865,35.2,0,0.763,0,0,0,0, ,0,0,0,0,0, ,996.3,-219.1,133.1,-73.8,-165.4,-40,25,510.123,-151.739,657.98,-19.8551,-141.953,-11.261,
2026_07_06_15_04_56.857,3.865,35.2,0,0.762,0,0,0,0, ,0,0,0,0,0, ,836.3,-241.3,188.5,-90.6,-103.8,-30.1,25,534.874,-156.52,627.683,-23.6543,-141.505,-12.7107,
2026_07_06_15_04_56.876,3.865,35.1,0,0.763,0,0,0,0, ,0,0,0,0,0, ,898.1,-208.7,105.3,-58.6,-83.7,-30.3,25,555.125,-160.693,598.385,-26.7588,-138.595,-13.7764,
2026_07_06_15_04_56.896,3.865,35.1,0,0.761,0,0,0,0, ,0,0,0,0,0, ,958.3,-168.5,-25.1,-50.1,-71.2,-43.8,25,577.859,-162.394,564.364,-28.4401,-134.869,-15.1946,
2026_07_06_15_04_56.916,3.865,35.2,0,0.763,0,0,0,0, ,0,0,0,0,0, ,1003.7,-164.6,-43.9,-43.4,-49.5,-36.9,25,602.426,-162.647,527.871,-29.5559,-130.328,-16.7275,
2026_07_06_15_04_56.936,3.865,35.1,0,0.763,0,0,0,0, ,0,0,0,0,0, ,949.2,-142.5,-102.9,-17.3,-25.4,-32.6,25,625.218,-162.093,491.231,-29.6043,-124.668,-17.8258,
2026_07_06_15_04_56.956,3.865,35.2,0,0.763,0,0,0,0, ,0,0,0,0,0, ,902.9,-16.4,-158.6,7.5,-14.8,-27.6,25,643.55,-157.057,453.329,-28.0989,-118.296,-18.5738,
2026_07_06_15_04_56.976,3.865,35.1,0,0.763,0,0,0,0, ,0,0,0,0,0, ,943.1,-135.3,-129.8,5,-35,-42.2,25,660.579,-152.108,416.917,-26.0057,-112.605,-19.5686,
2026_07_06_15_04_56.996,3.865,35,0,0.763,0,0,0,0, ,0,0,0,0,0, ,961,-103.2,-97.9,-4.7,-30.5,-41.8,25,678.34,-150.106,384.574,-24.4119,-107.739,-20.9355,
2026_07_06_15_04_57.016,3.865,35.1,0,0.763,0,0,0,0, ,0,0,0,0,0, ,937.5,-104.4,-96.3,-11.5,-18.8,-39.3,25,694.849,-147.284,355.222,-23.4179,-102.676,-22.1308,
2026_07_06_15_04_57.035,3.865,35.1,0,0.764,0,0,0,0, ,0,0,0,0,0, ,997.9,-102.1,-108.8,-22.8,3.3,-28.2,25,711.476,-144.601,327.326,-23.0359,-96.891,-22.8388,
2026_07_06_15_04_57.055,3.865,35.2,0,0.762,0,0,0,0, ,0,0,0,0,0, ,1039.9,-83.9,-128.9,-29,27.4,-13.9,25,730.209,-141.456,300.137,-23.2104,-90.0513,-22.7298,
2026_07_06_15_04_57.075,3.865,35.1,0,0.762,0,0,0,0, ,0,0,0,0,0, ,990.3,-68.7,-143.3,-18.3,44,-10.8,25,747.57,-137.486,273.554,-23.2372,-82.3884,-22.0973,
2026_07_06_15_04_57.095,3.865,35.2,0,0.763,0,0,0,0, ,0,0,0,0,0, ,933.9,-42.2,-146.6,10.3,29.7,-11,25,760.643,-132.487,248.052,-22.065,-75.1223,-21.415,
2026_07_06_15_04_57.114,3.865,35.1,0,0.763,0,0,0,0, ,0,0,0,0,0, ,1023.6,-71.8,-104.8,-0.4,0.9,-18.7,25,773.934,-127.887,225.276,-20.4187,-69.6122,-21.0149,
2026_07_06_15_04_57.134,3.865,35,0,0.762,0,0,0,0, ,0,0,0,0,0, ,1064.5,-81.6,-55.7,-2.1,-6,-13.2,25,790.394,-124.768,206.658,-19.2506,-65.5256,-20.7063,
2026_07_06_15_04_57.154,3.865,35.2,0,0.762,0,0,0,0, ,0,0,0,0,0, ,1012.4,-49.6,-63.1,-5.6,1.8,-8.6,25,805.51,-121.162,190.445,-18.3122,-61.6606,-20.1087,
2026_07_06_15_04_57.174,3.865,35,0,0.762,0,0,0,0, ,0,0,0,0,0, ,978.3,-51,-50.4,0,8.9,-11.3,25,817.078,-116.844,175.382,-17.3669,-57.5771,-19.4897,
2026_07_06_15_04_57.193,3.865,35,0,0.763,0,0,0,0, ,0,0,0,0,0, ,1005,-85.3,-55.2,3.2,10.6,-8.8,25,827.716,-113.877,161.477,-16.2111,-53.4744,-18.9144,
2026_07_06_15_04_57.213,3.865,35.1,0,0.762,0,0,0,0, ,0,0,0,0,0, ,992.4,-43.9,-73.2,4.2,6.5,-7.2,25,838.136,-110.874,147.725,-14.9978,-49.6948,-18.2493,
2026_07_06_15_04_57.236,3.865,35.2,0,0.763,0,0,0,0, ,0,0,0,0,0, ,1000.7,-71.8,-79.4,2.8,-4.3,-6.1,25,847.789,-107.643,134.073,-13.8706,-46.5995,-17.5425,
2026_07_06_15_04_57.253,3.865,35.2,0,0.765,0,0,0,0, ,0,0,0,0,0, ,990.8,-36.4,-73.6,1.7,-11.7,-6.9,25,856.805,-104.38,121.241,-12.8882,-44.2473,-16.8696,
2026_07_06_15_04_57.273,3.865,35,0,0.761,0,0,0,0, ,0,0,0,0,0, ,996.7,-50.6,-56.1,-2.3,-10.9,-8.3,25,865.15,-100.67,109.901,-12.1211,-42.2396,-16.3047,
2026_07_06_15_04_57.293,3.865,35.2,0,0.762,0,0,0,0, ,0,0,0,0,0, ,992.1,-52.8,-30.1,3.6,-1.3,-2.8,25,873.027,-97.686,100.578,-11.3429,-40.0373,-15.6494,
2026_07_06_15_04_57.312,3.865,35,0,0.763,0,0,0,0, ,0,0,0,0,0, ,971.9,-49.8,-57.1,-1.8,-0.6,-4.1,25,879.667,-94.8594,91.7921,-10.5968,-37.6554,-14.906,
2026_07_06_15_04_57.332,3.865,35.1,0,0.763,0,0,0,0, ,0,0,0,0,0, ,981.4,-45.6,-101.8,3.5,-4.6,-3.7,25,885.577,-91.9856,81.357,-9.89929,-35.5193,-14.2353,
2026_07_06_15_04_57.352,3.865,35,0,0.761,0,0,0,0, ,0,0,0,0,0, ,987.5,-55.4,-91.3,6.6,-7.2,-3.9,25,891.602,-89.4576,70.5158,-8.98831,-33.7143,-13.5994,
2026_07_06_15_04_57.372,3.865,35,0,0.764,0,0,0,0, ,0,0,0,0,0, ,974.9,-36.8,-69.3,6.2,-13,-5.6,25,897.062,-86.8155,61.3255,-8.05059,-32.2753,-13.0601,
2026_07_06_15_04_57.392,3.865,35,0,0.762,0,0,0,0, ,0,0,0,0,0, ,978.1,-43.7,-62.1,5.7,-7,-6.5,25,901.903,-83.9779,53.5849,-7.19743,-30.9179,-12.633,
2026_07_06_15_04_57.412,3.865,35,0,0.762,0,0,0,0, ,0,0,0,0,0, ,986,-51.6,-46.3,1.2,2.9,-4.4,25,906.787,-81.7642,47.0167,-6.5486,-29.1588,-12.1952,
2026_07_06_15_04_57.431,3.865,35,0,0.764,0,0,0,0, ,0,0,0,0,0, ,982.7,-59.5,-62.2,-1.4,9.3,-2.5,25,911.513,-80.1667,40.8458,-6.15564,-27.0102,-11.6623,
2026_07_06_15_04_57.451,3.865,35,0,0.763,0,0,0,0, ,0,0,0,0,0, ,975.4,-44.4,-88.3,4.1,2.8,-1.5,25,915.629,-78.4473,33.7712,-5.69826,-24.9956,-11.0735,
2026_07_06_15_04_57.471,3.865,35.1,0,0.763,0,0,0,0, ,0,0,0,0,0, ,978.7,-35,-84.2,6.9,-3.4,-3.7,25,919.372,-76.0861,26.4574,-5.01587,-23.4907,-10.5572,
2026_07_06_15_04_57.491,3.865,35.1,0,0.763,0,0,0,0, ,0,0,0,0,0, ,987.3,-32.3,-86.1,5.4,-13.1,-6.5,25,923.249,-73.5002,19.6563,-4.33545,-22.562,-10.2246,
2026_07_06_15_04_57.510,3.865,34.9,0,0.765,0,0,0,0, ,0,0,0,0,0, ,1000.4,-40.6,-58.9,4.5,-6.9,-7.4,25,927.551,-71.2424,14.0406,-3.76962,-21.7965,-10.0251,
2026_07_06_15_04_57.530,3.865,34.9,0,0.763,0,0,0,0, ,0,0,0,0,0, ,1007,-48.4,-54.6,2.3,5.4,-2.9,25,932.192,-69.6128,9.72676,-3.33272,-20.514,-9.72801,
2026_07_06_15_04_57.550,3.865,35,0,0.763,0,0,0,0, ,0,0,0,0,0, ,986.6,-42.1,-66.2,0,8.3,-1.2,25,936.129,-68.1282,5.45341,-3.05955,-18.8465,-9.26013,
2026_07_06_15_04_57.570,3.865,35,0,0.763,0,0,0,0, ,0,0,0,0,0, ,986.5,-43.3,-65.1,1,3.4,-2.4,25,939.201,-66.5787,1.12055,-2.84264,-17.3415,-8.80553,
2026_07_06_15_04_57.590,3.865,35,0,0.763,0,0,0,0, ,0,0,0,0,0, ,1019.8,-48.2,-73.1,1,-1.4,-3.9,25,943.098,-65.3094,-3.15852,-2.60848,-16.2238,-8.46089,
2026_07_06_15_04_57.610,3.865,35.1,0,0.763,0,0,0,0, ,0,0,0,0,0, ,1025,-47.4,-68.4,1.8,2.6,-1.5,25,947.93,-64.2424,-7.27737,-2.36422,-15.1986,-8.10984,
2026_07_06_15_04_57.629,3.865,35.2,0,0.763,0,0,0,0, ,0,0,0,0,0, ,1010.3,-48.8,-61.6,3.3,9.3,1.7,25,952.179,-63.2588,-10.7948,-2.06476,-13.9099,-7.60955,
2026_07_06_15_04_57.649,3.865,35.1,0,0.763,0,0,0,0, ,0,0,0,0,0, ,987,-55.6,-57.9,3.8,19.3,4.3,25,955.011,-62.5849,-13.778,-1.72261,-12.1909,-6.96303,
2026_07_06_15_04_57.668,3.865,35,0,0.763,0,0,0,0, ,0,0,0,0,0, ,995.9,-57.1,-58.9,3,30.5,4.3,25,957.231,-62.2049,-16.4972,-1.41045,-9.93063,-6.27669,
2026_07_06_15_04_57.689,3.865,35,0,0.762,0,0,0,0, ,0,0,0,0,0, ,962.6,-64.8,-46.6,1.1,43.3,9.1,25,958.573,-62.1285,-18.7064,-1.19958,-7.07689,-5.48592,
2026_07_06_15_04_57.708,3.865,35,0,0.763,0,0,0,0, ,0,0,0,0,0, ,947.7,-64.3,-7.8,-5.2,62.4,8.9,25,958.365,-62.276,-19.2239,-1.2514,-3.4251,-4.60319,
2026_07_06_15_04_57.728,3.865,34.9,0,0.764,0,0,0,0, ,0,0,0,0,0, ,924.3,-24.7,21.1,-14.3,67.4,6.1,25,957.002,-61.1928,-17.6472,-1.76928,0.738463,-3.86565,
2026_07_06_15_04_57.753,3.865,35.1,0,0.764,0,0,0,0, ,0,0,0,0,0, ,919.9,-69.5,109.2,-25.8,94.2,12,25,954.875,-60.334,-12.6018,-2.88326,5.61721,-3.0786,
2026_07_06_15_04_57.769,3.865,35.1,0,0.764,0,0,0,0, ,0,0,0,0,0, ,964.1,-97.9,119.5,-29.2,151.2,4.1,25,954.09,-61.7579,-4.86566,-4.38335,12.7519,-2.40045,
2026_07_06_15_04_57.787,3.865,35.1,0,0.763,0,0,0,0, ,0,0,0,0,0, ,1057.3,-66,106.6,-8.9,173.9,20.2,25,957.54,-62.9883,2.31982,-5.27709,21.8803,-1.51378,
2026_07_06_15_04_57.807,3.865,35,0,0.763,0,0,0,0, ,0,0,0,0,0, ,1006.8,-64.4,95.9,-18,154.6,24.5,25,962.08,-63.1231,8.34838,-5.77513,30.5559,-0.0595856,
2026_07_06_15_04_57.827,3.865,35.1,0,0.763,0,0,0,0, ,0,0,0,0,0, ,947.2,-53.2,192.7,-30.9,137.1,17.4,25,962.99,-62.8597,16.6329,-6.91313,37.5816,1.22069,
2026_07_06_15_04_57.847,3.865,35.1,0,0.763,0,0,0,0, ,0,0,0,0,0, ,894.1,-93.7,301.1,-26.2,155.1,18.5,25,960.41,-63.505,30.6648,-8.23163,44.1945,2.24013,
2026_07_06_15_04_57.867,3.865,35,0,0.763,0,0,0,0, ,0,0,0,0,0, ,893,-102.4,352.9,4.5,194.9,28.6,25,956.335,-65.6101,48.7228,-8.39118,52.1654,3.5387,
2026_07_06_15_04_57.887,3.865,35,0,0.763,0,0,0,0, ,0,0,0,0,0, ,904.7,-113.8,358.2,22.5,197.6,34.4,25,952.832,-68.1993,67.42,-7.05719,60.9456,5.24259,
2026_07_06_15_04_57.907,3.865,35,0,0.761,0,0,0,0, ,0,0,0,0,0, ,891.9,-106.4,411,15.3,178.6,35.9,25,949.509,-70.7527,86.7482,-5.47542,68.6941,7.06507,
2026_07_06_15_04_57.927,3.865,35.1,0,0.763,0,0,0,0, ,0,0,0,0,0, ,845.7,-114.9,467.4,20.7,172.7,28.3,25,944.591,-73.1839,108.226,-4.04489,75.2117,8.59064,
2026_07_06_15_04_57.946,3.865,35,0,0.765,0,0,0,0, ,0,0,0,0,0, ,774,-103.6,541.9,38.5,168.1,19.3,25,936.38,-75.3817,132.383,-1.99466,81.0122,9.51746,
2026_07_06_15_04_57.966,3.865,35.1,0,0.763,0,0,0,0, ,0,0,0,0,0, ,698.7,-87.5,530.3,39.3,148.9,11.1,25,924.191,-76.6107,156.984,0.497362,85.7341,9.86374,
2026_07_06_15_04_57.986,3.865,35,0,0.763,0,0,0,0, ,0,0,0,0,0, ,693.2,-65.3,487.7,43.4,125.7,3.7,25,910.282,-76.5978,178.435,2.98682,88.8764,9.7136,
2026_07_06_15_04_58.005,3.865,35,0,0.763,0,0,0,0, ,0,0,0,0,0, ,632.6,-102.6,590,35,114.8,-3.3,25,895.208,-77.0459,200.398,5.19356,90.7883,9.13387,
2026_07_06_15_04_58.025,3.865,35.1,0,0.764,0,0,0,0, ,0,0,0,0,0, ,716,-90.5,705.6,10.1,112.7,-11.1,25,881.746,-78.2344,227.662,6.25122,92.1875,8.13852,
2026_07_06_15_04_58.045,3.865,35,0,0.763,0,0,0,0, ,0,0,0,0,0, ,647.8,-90.8,755,9.7,111,-20.3,25,869.568,-78.991,258.291,6.47357,93.3857,6.68586,
2026_07_06_15_04_58.066,3.865,35,0,0.763,0,0,0,0, ,0,0,0,0,0, ,573.8,-111.6,772.7,0,103.6,-21.9,25,853.799,-80.3443,289.099,6.37463,94.2336,4.99266,
2026_07_06_15_04_58.085,3.865,35,0,0.764,0,0,0,0, ,0,0,0,0,0, ,560,-128.9,841.4,-30.4,92.2,-21.5,25,836.316,-82.7761,320.661,5.05993,94.457,3.36608,
2026_07_06_15_04_58.112,3.865,35,0,0.763,0,0,0,0, ,0,0,0,0,0, ,636.5,-61.6,826.5,-7.9,93.6,-28.7,25,821.809,-83.5362,351.94,3.58463,94.3621,1.63143,
2026_07_06_15_04_58.131,3.865,34.9,0,0.762,0,0,0,0, ,0,0,0,0,0, ,725.3,-119.2,883.1,3.5,101.8,-30.2,25,813.222,-83.9545,382.583,3.23213,94.5655,-0.262596,
2026_07_06_15_04_58.144,3.865,35,0,0.763,0,0,0,0, ,0,0,0,0,0, ,619.9,-190.1,912.8,10.6,128.1,4.6,25,804.653,-88.2625,413.988,3.46478,95.8077,-1.02659,
2026_07_06_15_04_58.164,3.865,34.9,0,0.763,0,0,0,0, ,0,0,0,0,0, ,508.5,-132.3,890.6,4,128.2,23.8,25,790.001,-92.7071,443.708,3.69849,97.7786,-0.0987239,
2026_07_06_15_04_58.183,3.865,35.1,0,0.762,0,0,0,0, ,0,0,0,0,0, ,430,-166.2,887.9,8.8,108.5,21.4,25,770.455,-96.1527,470.858,3.86312,99.0321,1.28448,
2026_07_06_15_04_58.203,3.865,35,0,0.762,0,0,0,0, ,0,0,0,0,0, ,439.2,-114.7,895.1,17.7,95.1,30,25,749.989,-98.8521,496.491,4.43513,99.2008,2.7723,
2026_07_06_15_04_58.223,3.865,35.1,0,0.763,0,0,0,0, ,0,0,0,0,0, ,352.7,-73.9,941.7,18.4,86.4,42.4,25,728.415,-98.5747,522.201,5.26478,98.6858,4.8093,
2026_07_06_15_04_58.243,3.865,35.1,0,0.763,0,0,0,0, ,0,0,0,0,0, ,221.5,-113.6,773.6,3,70.2,26.5,25,701.522,-98.2807,542.643,5.59599,97.4436,6.61553,
2026_07_06_15_04_58.263,3.865,35,0,0.764,0,0,0,0, ,0,0,0,0,0, ,231.6,-91.3,847.5,87.6,56.4,9.2,25,672.578,-98.5347,558.968,8.01546,95.3629,7.30013,
2026_07_06_15_04_58.282,3.865,35,0,0.762,0,0,0,0, ,0,0,0,0,0, ,331.5,77.3,1018.9,59.4,26.1,6.7,25,648.75,-92.9568,581.773,12.0059,92.0654,7.33973,
2026_07_06_15_04_58.308,3.865,35.2,0,0.762,0,0,0,0, ,0,0,0,0,0, ,244.9,-141.4,999.1,34.1,-25.3,10.8,25,626.779,-89.2453,607.807,14.1231,86.4796,7.42567,
2026_07_06_15_04_58.328,3.865,34.9,0,0.763,0,0,0,0, ,0,0,0,0,0, ,315.5,17.5,998.1,54.5,-35.2,7.1,25,605.659,-87.582,631.621,15.962,79.3664,7.51856,
2026_07_06_15_04_58.343,3.865,35.2,0,0.765,0,0,0,0, ,0,0,0,0,0, ,363.4,1.8,1028.5,38.4,-13.7,3.2,25,589.437,-81.6569,654.88,17.8199,73.0401,7.37423,
2026_07_06_15_04_58.363,3.865,35.1,0,0.764,0,0,0,0, ,0,0,0,0,0, ,413.8,86.9,1081,13.8,-4.2,-3.7,25,577.199,-73.9784,679.247,18.3245,68.0438,6.90962,
2026_07_06_15_04_58.382,3.865,35.1,0,0.763,0,0,0,0, ,0,0,0,0,0, ,447.7,-187.7,777.3,9,1.7,-6.4,25,568.275,-72.5416,694.475,17.9025,63.8212,6.18083,
2026_07_06_15_04_58.402,3.865,35.1,0,0.761,0,0,0,0, ,0,0,0,0,0, ,344.2,11.5,982.6,38.8,-19,20.3,25,557.773,-73.4897,705.778,18.268,59.405,6.22771,
2026_07_06_15_04_58.422,3.865,35,0,0.763,0,0,0,0, ,0,0,0,0,0, ,312.9,28.8,925.6,36.2,-26.5,16.6,25,543.805,-67.7835,720.91,19.4399,54.3987,6.9725,
2026_07_06_15_04_58.441,3.865,35,0,0.763,0,0,0,0, ,0,0,0,0,0, ,332,30.5,935,29.5,-24.4,10.7,25,530.316,-61.8462,733.669,20.2571,49.5329,7.37941,
2026_07_06_15_04_58.462,3.865,35.1,0,0.762,0,0,0,0, ,0,0,0,0,0, ,401,11.9,940.9,42.2,-25.9,13.4,25,520.334,-56.7855,746.118,21.2073,44.9819,7.66403,
2026_07_06_15_04_58.482,3.865,34.9,0,0.762,0,0,0,0, ,0,0,0,0,0, ,458.1,87.5,1082.5,31.8,11.2,19,25,514.802,-50.2966,762.302,22.1697,41.7929,8.18419,
2026_07_06_15_04_58.505,3.865,35,0,0.764,0,0,0,0, ,0,0,0,0,0, ,437.2,174,1021.9,107.3,8.1,11.6,25,510.71,-39.264,779.967,25.0569,39.8342,8.61781,
2026_07_06_15_04_58.522,3.865,35.1,0,0.763,0,0,0,0, ,0,0,0,0,0, ,318.7,-11.3,956.1,1.8,-6.6,23,25,502.62,-31.9141,792.705,26.8541,37.4525,9.14688,
2026_07_06_15_04_58.540,3.865,35.1,0,0.764,0,0,0,0, ,0,0,0,0,0, ,362,62.2,902.5,-2.4,-1.5,-1.9,25,492.731,-28.4185,801.029,25.1994,34.9235,9.23238,
2026_07_06_15_04_58.560,3.865,35.1,0,0.763,0,0,0,0, ,0,0,0,0,0, ,389.1,145.3,881.7,1.5,0.1,-14.7,25,485.591,-20.3645,806.579,23.6364,32.7527,8.164,
2026_07_06_15_04_58.580,3.865,35.1,0,0.763,0,0,0,0, ,0,0,0,0,0, ,346.1,48.2,946.7,11.9,3.4,3.6,25,478.4,-13.2278,813.137,22.6044,30.8634,7.3283,
2026_07_06_15_04_58.600,3.865,35,0,0.763,0,0,0,0, ,0,0,0,0,0, ,305.4,22.2,994.1,12.3,-4.7,-7.7,25,469.098,-10.2768,822.72,21.9643,28.9431,6.75681,
2026_07_06_15_04_58.620,3.865,35.1,0,0.763,0,0,0,0, ,0,0,0,0,0, ,430,100.5,863.8,-38.4,0.3,-19.9,25,462.919,-5.912,829.193,19.8306,27.0453,5.50413,
2026_07_06_15_04_58.640,3.865,35.1,0,0.763,0,0,0,0, ,0,0,0,0,0, ,424.6,85.4,770.1,4.3,28.8,-13.1,25,460.749,0.112405,828.447,17.5832,26.2839,4.16326,
2026_07_06_15_04_58.659,3.865,35,0,0.763,0,0,0,0, ,0,0,0,0,0, ,389,74.8,886.8,28.4,44.3,-3.7,25,457.461,4.98665,828.447,17.508,26.9095,3.39768,
2026_07_06_15_04_58.679,3.865,35,0,0.763,0,0,0,0, ,0,0,0,0,0, ,319.9,106.4,990.2,33.5,27.3,-0.2,25,451.184,10.2037,835.154,18.3271,27.4512,3.07181,
2026_07_06_15_04_58.699,3.865,35.1,0,0.763,0,0,0,0, ,0,0,0,0,0, ,384.7,97.4,863.6,23.8,14.4,-10.6,25,445.158,15.7915,840.745,18.9562,27.049,2.55556,
2026_07_06_15_04_58.718,3.865,35,0,0.763,0,0,0,0, ,0,0,0,0,0, ,380.2,122.5,854.4,38.7,22.4,-4.4,25,441.337,21.5292,841.857,19.7053,26.5219,1.9428,
2026_07_06_15_04_58.738,3.865,34.9,0,0.763,0,0,0,0, ,0,0,0,0,0, ,371.4,127.3,895.6,42.6,32.2,2.7,25,437.343,27.8284,843.877,20.9817,26.5693,1.77261,
2026_07_06_15_04_58.758,3.865,35,0,0.763,0,0,0,0, ,0,0,0,0,0, ,405.6,171.7,971.5,45.1,34,9,25,434.367,35.2428,849.341,22.3752,26.9673,2.02108,
2026_07_06_15_04_58.778,3.865,35.1,0,0.763,0,0,0,0, ,0,0,0,0,0, ,400,183.2,1025.3,29.9,28.5,14.3,25,432.443,43.9085,858.424,23.2969,27.2283,2.60784,
2026_07_06_15_04_58.798,3.865,35,0,0.764,0,0,0,0, ,0,0,0,0,0, ,270.8,117.4,985.1,-6.9,12.7,27.2,25,426.53,50.3917,867.369,22.578,26.8244,3.71338,
2026_07_06_15_04_58.817,3.865,35,0,0.763,0,0,0,0, ,0,0,0,0,0, ,209.2,80.6,900.5,-2.4,8,19.1,25,415.163,53.3538,871.965,20.9188,25.8205,4.8978,
2026_07_06_15_04_58.837,3.865,35,0,0.763,0,0,0,0, ,0,0,0,0,0, ,300.7,154.4,879.5,-4.1,28.4,4,25,405.4,57.2627,873.064,19.446,25.3561,5.30316,
2026_07_06_15_04_58.858,3.865,35,0,0.762,0,0,0,0, ,0,0,0,0,0, ,236.6,139.4,883.5,18.1,53.6,7.4,25,397.067,62.725,873.578,18.6876,26.3094,5.32735,
2026_07_06_15_04_58.877,3.865,35,0,0.763,0,0,0,0, ,0,0,0,0,0, ,177.4,151,1036.1,35.9,58.1,5,25,385.485,67.7508,878.832,19.1941,28.1095,5.38052,
2026_07_06_15_04_58.897,3.865,34.9,0,0.764,0,0,0,0, ,0,0,0,0,0, ,166.3,141.7,1051.8,-5.4,37.7,-3.7,25,372.466,72.5404,888.894,18.9538,29.3155,5.09226,
2026_07_06_15_04_58.917,3.865,35,0,0.763,0,0,0,0, ,0,0,0,0,0, ,245.2,67.7,915.1,-3,37.3,-10,25,362.307,74.5002,894.656,17.5428,29.8142,4.36453,
2026_07_06_15_04_58.937,3.865,35,0,0.762,0,0,0,0, ,0,0,0,0,0, ,260.6,170.2,945.1,4.3,41.6,-14.3,25,355.64,77.2088,896.816,16.5134,30.4014,3.35817,
2026_07_06_15_04_58.957,3.865,35,0,0.763,0,0,0,0, ,0,0,0,0,0, ,203.9,168,947.7,9.5,44.7,-3.3,25,348.121,82.8084,899.838,15.9276,31.1783,2.61728,
2026_07_06_15_04_58.976,3.865,35,0,0.763,0,0,0,0, ,0,0,0,0,0, ,122.3,151.2,979.9,10.4,48.1,1.5,25,336.846,87.4879,903.735,15.5633,32.1059,2.40295,
2026_07_06_15_04_58.995,3.865,35,0,0.764,0,0,0,0, ,0,0,0,0,0, ,91.4,149.5,976,12.7,47.6,-4.5,25,322.831,91.3186,908.258,15.3188,33.0653,2.16511,
2026_07_06_15_04_59.015,3.865,35.1,0,0.764,0,0,0,0, ,0,0,0,0,0, ,148.3,155.7,935.5,6.7,50,-15.2,25,310.462,95.0529,911.152,14.9764,34.0241,1.43294,
2026_07_06_15_04_59.036,3.865,35,0,0.763,0,0,0,0, ,0,0,0,0,0, ,170.4,165.4,961.3,10,53.6,-17.7,25,301.253,99.0442,913.422,14.5726,35.1073,0.343201,
2026_07_06_15_04_59.055,3.865,35,0,0.763,0,0,0,0, ,0,0,0,0,0, ,136.7,176,994.8,16.2,53.2,-10.1,25,292.253,103.411,917.36,14.4829,36.222,-0.524744,
2026_07_06_15_04_59.075,3.865,35,0,0.763,0,0,0,0, ,0,0,0,0,0, ,86.5,177.7,1007.9,13.4,48.5,-5.6,25,281.244,107.886,922.478,14.5022,37.1134,-0.971127,
2026_07_06_15_04_59.095,3.865,35,0,0.762,0,0,0,0, ,0,0,0,0,0, ,57.3,190.3,1029.2,19.3,42,-4.5,25,268.487,112.524,928.332,14.6148,37.6092,-1.21968,
2026_07_06_15_04_59.115,3.865,35,0,0.763,0,0,0,0, ,0,0,0,0,0, ,62.3,189.9,1015.8,3.4,32.6,-5.5,25,255.77,117.251,934.071,14.4158,37.5904,-1.45005,
2026_07_06_15_04_59.134,3.865,35,0,0.763,0,0,0,0, ,0,0,0,0,0, ,72.1,190.3,962.8,5.9,30.6,-7.1,25,244.279,121.691,937.436,13.8207,37.2254,-1.74559,
2026_07_06_15_04_59.154,3.865,34.9,0,0.763,0,0,0,0, ,0,0,0,0,0, ,103.5,203.2,947,12.5,37.1,-5.1,25,234.744,126.265,938.5,13.5392,37.0197,-2.01094,
2026_07_06_15_04_59.174,3.865,35,0,0.761,0,0,0,0, ,0,0,0,0,0, ,57.8,218.7,1053.1,22.5,34.3,2.5,25,225.354,131.425,942.251,13.7805,36.9393,-1.96761,
2026_07_06_15_04_59.193,3.865,35,0,0.762,0,0,0,0, ,0,0,0,0,0, ,7.2,209.4,1042.2,9.6,21.4,12,25,213.602,136.46,948.674,13.9188,36.3854,-1.40592,
2026_07_06_15_04_59.213,3.865,35,0,0.763,0,0,0,0, ,0,0,0,0,0, ,-23.5,195.3,965.5,9.8,19.2,11.3,25,200.089,140.475,952.036,13.6617,35.4052,-0.610321,
2026_07_06_15_04_59.234,3.865,34.9,0,0.763,0,0,0,0, ,0,0,0,0,0, ,7.4,202.5,998.9,12,16.7,4.2,25,187.405,144.035,953.874,13.4934,34.3415,-0.100864,
2026_07_06_15_04_59.260,3.865,35.1,0,0.763,0,0,0,0, ,0,0,0,0,0, ,-12,176.2,929.4,-5.6,16.6,-1.5,25,175.845,146.797,954.5,12.8662,33.2634,-0.012452,
2026_07_06_15_04_59.279,3.865,35,0,0.763,0,0,0,0, ,0,0,0,0,0, ,18.5,209.4,786.7,12.9,43.1,-8.9,25,165.328,149.6,948.623,12.3046,33.0554,-0.328568,
2026_07_06_15_04_59.293,3.865,35,0,0.763,0,0,0,0, ,0,0,0,0,0, ,-76,197.1,1043.2,31.9,55.5,-5.7,25,153.501,152.869,946.571,12.9198,34.0453,-0.75339,
2026_07_06_15_04_59.312,3.865,35,0,0.763,0,0,0,0, ,0,0,0,0,0, ,-25.6,393.9,1547.8,-10.3,38.2,-3.7,25,141.051,161.561,967.834,12.7906,34.8256,-0.993886,
2026_07_06_15_04_59.333,3.865,35,0,0.763,0,0,0,0, ,0,0,0,0,0, ,-78.8,163.5,1035.1,-5.4,-12.7,9.2,25,129.275,168.699,987.554,11.5328,33.4804,-0.765743,
2026_07_06_15_04_59.352,3.865,35,0,0.763,0,0,0,0, ,0,0,0,0,0, ,-43.5,190.5,966.9,-15.7,-1.5,3.5,25,117.671,169.205,988.374,10.1871,31.0075,-0.332128,
2026_07_06_15_04_59.372,3.865,34.9,0,0.763,0,0,0,0, ,0,0,0,0,0, ,-40.5,199.7,982.4,-15.6,0.1,4.4,25,107.941,170.783,987.537,8.61268,29.0753,-0.0711855,
2026_07_06_15_04_59.392,3.865,34.9,0,0.763,0,0,0,0, ,0,0,0,0,0, ,-34.5,201.7,978,-24.5,1,6.9,25,99.0784,172.606,987.09,6.86605,27.3371,0.277449,
2026_07_06_15_04_59.412,3.865,35,0,0.763,0,0,0,0, ,0,0,0,0,0, ,-34.6,194.7,981.5,-21,0.6,5.3,25,90.9354,174.166,986.643,5.06132,25.72,0.632261,
2026_07_06_15_04_59.431,3.865,35,0,0.763,0,0,0,0, ,0,0,0,0,0, ,-41.6,189.3,981,-11.5,-0.2,0.3,25,83.0723,175.252,986.314,3.76266,24.1648,0.764357,
2026_07_06_15_04_59.456,3.865,34.9,0,0.763,0,0,0,0, ,0,0,0,0,0, ,-41,186.8,981.8,-15.7,0,2.4,25,75.4934,176.032,986.015,2.70463,22.6862,0.800045,
2026_07_06_15_04_59.476,3.865,34.9,0,0.763,0,0,0,0, ,0,0,0,0,0, ,-38.9,198.2,981,-24.5,0.8,8,25,68.4585,177.036,985.734,1.31497,21.3281,1.06817,
2026_07_06_15_04_59.491,3.865,35,0,0.762,0,0,0,0, ,0,0,0,0,0, ,-38,128.4,988.2,-18,0.8,8.1,25,61.9438,176.199,985.665,-0.060083,20.0772,1.49362,
2026_07_06_15_04_59.511,3.865,34.9,0,0.763,0,0,0,0, ,0,0,0,0,0, ,-38.6,164,984.8,-16,0,1.7,25,55.8352,174.371,985.715,-1.09236,18.8781,1.7012,
2026_07_06_15_04_59.531,3.865,35,0,0.764,0,0,0,0, ,0,0,0,0,0, ,-39.6,181.8,983.6,-0.5,-0.4,-1.6,25,50.0501,174.281,985.623,-1.52853,17.7156,1.60058,
2026_07_06_15_04_59.553,3.865,34.9,0,0.763,0,0,0,0, ,0,0,0,0,0, ,-39,172.2,985.5,-0.1,-0.4,-1.7,25,44.6053,174.447,985.558,-1.45366,16.6116,1.4025,
2026_07_06_15_04_59.571,3.865,35,0,0.764,0,0,0,0, ,0,0,0,0,0, ,-38.3,170.4,984.6,-0.8,-0.4,-1.7,25,39.5319,174.255,985.527,-1.3925,15.575,1.21344,
2026_07_06_15_04_59.592,3.865,34.9,0,0.761,0,0,0,0, ,0,0,0,0,0, ,-37.8,171.5,988.6,-1.6,-0.4,-1.7,25,34.8043,174.054,985.592,-1.38077,14.6015,1.0359,
2026_07_06_15_04_59.611,3.865,34.9,0,0.763,0,0,0,0, ,0,0,0,0,0, ,-37.9,169.1,985.4,-1.5,-0.4,-1.8,25,30.3769,173.825,985.678,-1.39109,13.6874,0.866135,
2026_07_06_15_04_59.630,3.865,34.9,0,0.764,0,0,0,0, ,0,0,0,0,0, ,-39.4,169.7,985.8,-1.1,-0.4,-1.8,25,26.1706,173.555,985.673,-1.38553,12.8289,0.703667,
2026_07_06_15_04_59.649,3.865,34.9,0,0.763,0,0,0,0, ,0,0,0,0,0, ,-39.6,167.9,984.9,-0.9,-0.4,-1.8,25,22.1688,173.265,985.654,-1.36204,12.0228,0.5511,
2026_07_06_15_04_59.669,3.865,35,0,0.763,0,0,0,0, ,0,0,0,0,0, ,-39.7,167.8,984.1,-1.1,-0.4,-1.8,25,18.4017,172.935,985.583,-1.33998,11.2658,0.40783,
2026_07_06_15_04_59.689,3.865,35,0,0.764,0,0,0,0, ,0,0,0,0,0, ,-39.3,170.2,986.3,-1.4,-0.5,-1.9,25,14.8733,172.696,985.56,-1.3345,10.5518,0.270243,
2026_07_06_15_04_59.709,3.865,34.9,0,0.764,0,0,0,0, ,0,0,0,0,0, ,-39.1,170.8,985.7,-2.1,-0.5,-1.8,25,11.5782,172.562,985.587,-1.35982,9.87836,0.141041,
2026_07_06_15_04_59.728,3.865,35,0,0.763,0,0,0,0, ,0,0,0,0,0, ,-38.6,167.8,985.2,-2.2,-0.5,-1.8,25,8.50526,172.363,985.578,-1.40797,9.24593,0.022759,
2026_07_06_15_04_59.748,3.865,35,0,0.763,0,0,0,0, ,0,0,0,0,0, ,-39,166.6,987.4,-2.3,-0.4,-1.5,25,5.6226,172.048,985.622,-1.45928,8.65509,-0.0791748,
2026_07_06_15_04_59.769,3.865,34.9,0,0.763,0,0,0,0, ,0,0,0,0,0, ,-39.6,167.1,986,-3.5,-0.3,-1,25,2.88513,171.732,985.688,-1.54707,8.10634,-0.150522,
2026_07_06_15_04_59.789,3.865,34.9,0,0.763,0,0,0,0, ,0,0,0,0,0, ,-37.9,164.1,986.2,-3.9,-0.2,-0.4,25,0.347988,171.358,985.713,-1.67827,7.59712,-0.184006,
2026_07_06_15_04_59.808,3.865,35,0,0.764,0,0,0,0, ,0,0,0,0,0, ,-40.1,165,985.4,-1.6,-0.4,-1.6,25,-2.04978,170.943,985.718,-1.74358,7.11589,-0.23373,
2026_07_06_15_04_59.828,3.865,34.9,0,0.762,0,0,0,0, ,0,0,0,0,0, ,-39,164.9,986.5,-1.8,-0.4,-1.5,25,-4.33495,170.578,985.733,-1.74092,6.65789,-0.313941,
2026_07_06_15_04_59.848,3.865,34.9,0,0.762,0,0,0,0, ,0,0,0,0,0, ,-39.4,164.7,985.9,-1.2,-0.5,-1.7,25,-6.45954,170.226,985.761,-1.72624,6.22476,-0.39231,
2026_07_06_15_04_59.873,3.865,34.9,0,0.763,0,0,0,0, ,0,0,0,0,0, ,-39.5,163.8,987.5,-0.8,-0.5,-1.8,25,-8.46989,169.862,985.818,-1.68198,5.81497,-0.475044,
2026_07_06_15_04_59.888,3.865,34.9,0,0.764,0,0,0,0, ,0,0,0,0,0, ,-38.9,164,986.8,-0.8,-0.5,-1.8,25,-10.3425,169.498,985.899,-1.62824,5.43015,-0.555784,
2026_07_06_15_04_59.909,3.865,34.9,0,0.762,0,0,0,0, ,0,0,0,0,0, ,-38,164.4,985.9,-0.7,-0.4,-1.8,25,-12.0553,169.176,985.927,-1.57472,5.07183,-0.631603,
2026_07_06_15_04_59.927,3.865,34.9,0,0.764,0,0,0,0, ,0,0,0,0,0, ,-39,163.6,985.5,-0.7,-0.4,-1.7,25,-13.6668,168.86,985.913,-1.52142,4.73839,-0.699755,
2026_07_06_15_04_59.948,3.865,34.9,0,0.763,0,0,0,0, ,0,0,0,0,0, ,-38.5,162.5,986.3,-0.8,-0.4,-1.7,25,-15.1953,168.506,985.912,-1.47441,4.42527,-0.760708,
2026_07_06_15_04_59.967,3.865,34.9,0,0.763,0,0,0,0, ,0,0,0,0,0, ,-38.6,163,987.5,-0.9,-0.4,-1.7,25,-16.6185,168.155,985.972,-1.43636,4.13123,-0.817946,
2026_07_06_15_04_59.987,3.865,35,0,0.763,0,0,0,0, ,0,0,0,0,0, ,-38.6,163.3,986.8,-1,-0.3,-1.6,25,-17.958,167.85,986.044,-1.40672,3.85815,-0.868649,
2026_07_06_15_05_00.006,3.865,34.9,0,0.764,0,0,0,0, ,0,0,0,0,0, ,-39,165.2,986.4,-0.9,-0.4,-1.7,25,-19.228,167.631,986.078,-1.37889,3.60172,-0.916263,
2026_07_06_15_05_00.028,3.865,34.9,0,0.763,0,0,0,0, ,0,0,0,0,0, ,-39.1,164,985.9,-0.9,-0.4,-1.7,25,-20.4359,167.446,986.082,-1.34971,3.35786,-0.964022,
2026_07_06_15_05_00.046,3.865,34.9,0,0.761,0,0,0,0, ,0,0,0,0,0, ,-38.5,164.4,987.3,-0.9,-0.5,-1.6,25,-21.555,167.248,986.114,-1.3223,3.12582,-1.00582,
2026_07_06_15_05_00.067,3.865,34.9,0,0.763,0,0,0,0, ,0,0,0,0,0, ,-39.3,162.8,986.8,-1,-0.3,-1.4,25,-22.612,167.026,986.171,-1.29962,2.91097,-1.03594,
2026_07_06_15_05_00.092,3.865,34.9,0,0.764,0,0,0,0, ,0,0,0,0,0, ,-38.8,162.9,986.8,-0.7,-0.4,-1.7,25,-23.6136,166.772,986.209,-1.27222,2.71225,-1.06726,
2026_07_06_15_05_00.113,3.865,34.9,0,0.763,0,0,0,0, ,0,0,0,0,0, ,-37.3,163.3,986.2,-0.6,-0.5,-1.8,25,-24.4934,166.548,986.227,-1.2343,2.51955,-1.10887,
2026_07_06_15_05_00.125,3.865,35,0,0.763,0,0,0,0, ,0,0,0,0,0, ,-38.5,162.8,987.4,-0.6,-0.5,-1.8,25,-25.3103,166.335,986.262,-1.19565,2.33555,-1.15098,
2026_07_06_15_05_00.146,3.865,35,0,0.764,0,0,0,0, ,0,0,0,0,0, ,-39.6,163.5,986,-0.7,-0.4,-1.8,25,-26.1476,166.141,986.289,-1.1624,2.1658,-1.19053,
2026_07_06_15_05_00.165,3.865,34.9,0,0.763,0,0,0,0, ,0,0,0,0,0, ,-39.6,162.8,986.4,-0.8,-0.5,-1.9,25,-26.9673,165.958,986.283,-1.13727,2.0064,-1.23072,
2026_07_06_15_05_00.186,3.865,35,0,0.764,0,0,0,0, ,0,0,0,0,0, ,-39.7,165.4,985.3,-1,-0.5,-1.9,25,-27.7402,165.845,986.257,-1.12281,1.85367,-1.2715,
2026_07_06_15_05_00.204,3.865,34.9,0,0.763,0,0,0,0, ,0,0,0,0,0, ,-38.3,162.8,987.3,-2.5,-0.5,-1.8,25,-28.4263,165.739,986.259,-1.16103,1.71024,-1.30676,
2026_07_06_15_05_00.224,3.865,34.9,0,0.763,0,0,0,0, ,0,0,0,0,0, ,-38.8,164,986,-2.9,-0.3,-0.7,25,-29.0432,165.596,986.283,-1.25481,1.58165,-1.3033,
2026_07_06_15_05_00.243,3.865,34.9,0,0.764,0,0,0,0, ,0,0,0,0,0, ,-40,159.5,986.5,-1.8,-0.5,-1.4,25,-29.6744,165.362,986.281,-1.32155,1.46089,-1.28786,
2026_07_06_15_05_00.264,3.865,34.9,0,0.763,0,0,0,0, ,0,0,0,0,0, ,-40.1,161.4,985.7,-0.7,-0.5,-1.8,25,-30.3066,165.063,986.27,-1.31719,1.3414,-1.30688,
2026_07_06_15_05_00.283,3.865,34.9,0,0.764,0,0,0,0, ,0,0,0,0,0, ,-39.3,162.9,985.9,-0.7,-0.5,-1.8,25,-30.879,164.885,986.242,-1.27958,1.22919,-1.33693,
2026_07_06_15_05_00.303,3.865,34.9,0,0.761,0,0,0,0, ,0,0,0,0,0, ,-38.9,161.6,986.6,-0.7,-0.5,-1.9,25,-31.38,164.725,986.242,-1.24426,1.12382,-1.3682,
2026_07_06_15_05_00.323,3.865,34.9,0,0.762,0,0,0,0, ,0,0,0,0,0, ,-39.3,161.3,987.5,-0.7,-0.5,-1.8,25,-31.8504,164.525,986.291,-1.21109,1.02487,-1.39756,
2026_07_06_15_05_00.344,3.865,34.9,0,0.764,0,0,0,0, ,0,0,0,0,0, ,-38.8,161.3,987.7,-0.6,-0.5,-1.8,25,-32.2892,164.328,986.371,-1.1769,0.931945,-1.42208,
2026_07_06_15_05_00.363,3.865,34.9,0,0.761,0,0,0,0, ,0,0,0,0,0, ,-39.6,162.2,986.4,-0.7,-0.4,-1.9,25,-32.7103,164.171,986.412,-1.14479,0.847733,-1.44816,
2026_07_06_15_05_00.383,3.865,35,0,0.762,0,0,0,0, ,0,0,0,0,0, ,-38.3,162.8,987,-0.7,-0.4,-1.8,25,-33.0905,164.069,986.43,-1.11769,0.771699,-1.47264,
2026_07_06_15_05_00.402,3.865,34.9,0,0.763,0,0,0,0, ,0,0,0,0,0, ,-38,161.2,985.1,-0.7,-0.5,-1.8,25,-33.3988,163.943,986.407,-1.09224,0.697252,-1.49259,
2026_07_06_15_05_00.423,3.865,34.9,0,0.763,0,0,0,0, ,0,0,0,0,0, ,-39,163.5,986.9,-0.8,-0.5,-1.9,25,-33.7097,163.846,986.382,-1.07138,0.624294,-1.51437,
2026_07_06_15_05_00.442,3.865,34.8,0,0.764,0,0,0,0, ,0,0,0,0,0, ,-38.3,163.4,984.3,-0.8,-0.6,-1.9,25,-34.0107,163.822,986.334,-1.05484,0.552736,-1.53787,
2026_07_06_15_05_00.462,3.865,34.9,0,0.762,0,0,0,0, ,0,0,0,0,0, ,-38,162.2,991.8,-0.9,-0.5,-1.8,25,-34.263,163.76,986.439,-1.04236,0.485538,-1.55689,
2026_07_06_15_05_00.481,3.865,34.9,0,0.763,0,0,0,0, ,0,0,0,0,0, ,-38.5,161.2,984,-0.7,-0.5,-1.8,25,-34.5059,163.634,986.528,-1.02759,0.425482,-1.57171,
2026_07_06_15_05_00.502,3.865,34.9,0,0.762,0,0,0,0, ,0,0,0,0,0, ,-36.9,162.5,988.7,-0.7,-0.5,-1.8,25,-34.7006,163.526,986.517,-1.00763,0.369085,-1.58562,
2026_07_06_15_05_00.520,3.865,34.9,0,0.762,0,0,0,0, ,0,0,0,0,0, ,-40.1,163.8,984.1,-0.7,-0.5,-1.9,25,-34.9321,163.503,986.51,-0.988884,0.316125,-1.60173,
2026_07_06_15_05_00.541,3.865,34.9,0,0.762,0,0,0,0, ,0,0,0,0,0, ,-39.3,161.7,986.9,-0.6,-0.5,-1.8,25,-35.2226,163.457,986.448,-0.968233,0.266393,-1.61686,
2026_07_06_15_05_00.561,3.865,34.9,0,0.761,0,0,0,0, ,0,0,0,0,0, ,-37.8,162.3,986,-0.6,-0.5,-1.9,25,-35.4254,163.368,986.449,-0.945794,0.219691,-1.63106,
2026_07_06_15_05_00.583,3.865,34.9,0,0.761,0,0,0,0, ,0,0,0,0,0, ,-38.8,162.8,988.5,-0.7,-0.5,-1.9,25,-35.6006,163.318,986.497,-0.927769,0.175834,-1.64745,
2026_07_06_15_05_00.600,3.865,35,0,0.761,0,0,0,0, ,0,0,0,0,0, ,-39.4,161,985.3,-0.7,-0.5,-1.8,25,-35.8138,163.232,986.522,-0.913889,0.134651,-1.6598,
2026_07_06_15_05_00.620,3.865,34.9,0,0.763,0,0,0,0, ,0,0,0,0,0, ,-39.3,161.1,987.9,-0.6,-0.5,-1.9,25,-36.0293,163.099,986.527,-0.897809,0.0959768,-1.67139,
2026_07_06_15_05_00.640,3.865,34.9,0,0.763,0,0,0,0, ,0,0,0,0,0, ,-37.9,161.6,985.9,-0.7,-0.4,-1.9,25,-36.186,162.992,986.549,-0.882708,0.0627063,-1.68532,
2026_07_06_15_05_00.661,3.865,34.9,0,0.763,0,0,0,0, ,0,0,0,0,0, ,-38.6,164.1,987.3,-0.8,-0.5,-1.8,25,-36.3117,162.984,986.552,-0.874621,0.0314633,-1.69535,
2026_07_06_15_05_00.679,3.865,34.9,0,0.762,0,0,0,0, ,0,0,0,0,0, ,-37.9,161,987.3,-0.9,-0.5,-2,25,-36.4298,162.957,986.598,-0.873121,-0.000922752,-1.70782,
2026_07_06_15_05_00.700,3.865,35,0,0.762,0,0,0,0, ,0,0,0,0,0, ,-37.8,161.8,987.6,-0.9,-0.5,-1.8,25,-36.5164,162.862,986.65,-0.874759,-0.0313353,-1.71953,
2026_07_06_15_05_00.718,3.865,34.9,0,0.763,0,0,0,0, ,0,0,0,0,0, ,-38.3,159.4,987.1,-0.8,-0.5,-1.8,25,-36.6098,162.724,986.693,-0.87325,-0.0598945,-1.72444,
2026_07_06_15_05_00.747,3.865,34.9,0,0.763,0,0,0,0, ,0,0,0,0,0, ,-39.7,162.5,985.9,-0.7,-0.5,-1.9,25,-36.7555,162.616,986.681,-0.865739,-0.0867134,-1.73209,
2026_07_06_15_05_00.758,3.865,34.9,0,0.763,0,0,0,0, ,0,0,0,0,0, ,-39.7,161,986.4,-0.7,-0.5,-1.9,25,-36.9349,162.564,986.649,-0.85564,-0.111898,-1.74232,
2026_07_06_15_05_00.779,3.865,34.9,0,0.763,0,0,0,0, ,0,0,0,0,0, ,-38.9,160.8,987.6,-0.8,-0.4,-1.8,25,-37.079,162.462,986.67,-0.849202,-0.132501,-1.74888,
2026_07_06_15_05_00.798,3.865,34.9,0,0.762,0,0,0,0, ,0,0,0,0,0, ,-39.3,162.1,988.1,-0.7,-0.4,-1.9,25,-37.2022,162.4,986.742,-0.843157,-0.148802,-1.75504,
2026_07_06_15_05_00.819,3.865,34.9,0,0.763,0,0,0,0, ,0,0,0,0,0, ,-38.2,161.7,986,-0.8,-0.4,-1.8,25,-37.2965,162.37,986.761,-0.83748,-0.164109,-1.76083,
2026_07_06_15_05_00.838,3.865,34.9,0,0.764,0,0,0,0, ,0,0,0,0,0, ,-39.3,162.4,985.9,-0.9,-0.5,-1.7,25,-37.3851,162.35,986.711,-0.838243,-0.181531,-1.76017,
2026_07_06_15_05_00.860,3.865,34.8,0,0.764,0,0,0,0, ,0,0,0,0,0, ,-39.7,160.7,986,-1.1,-0.4,-1.7,25,-37.514,162.302,986.665,-0.8481,-0.197891,-1.7565,
2026_07_06_15_05_00.877,3.865,34.9,0,0.764,0,0,0,0, ,0,0,0,0,0, ,-38.4,161.9,987.4,-1,-0.4,-1.6,25,-37.6076,162.241,986.667,-0.860403,-0.210207,-1.75001,
2026_07_06_15_05_00.898,3.865,34.9,0,0.763,0,0,0,0, ,0,0,0,0,0, ,-38.5,160.4,987.3,-0.7,-0.5,-1.8,25,-37.6589,162.174,986.709,-0.85977,-0.224819,-1.74697,
2026_07_06_15_05_00.920,3.865,34.8,0,0.76,0,0,0,0, ,0,0,0,0,0, ,-40.2,162.5,986.6,-0.7,-0.5,-1.9,25,-37.762,162.13,986.723,-0.850034,-0.241588,-1.75325,
2026_07_06_15_05_00.960,3.865,34.9,0,0.762,0,0,0,0, ,0,0,0,0,0, ,-39.3,160.7,988.5,-0.7,-0.4,-1.8,25,-37.8831,162.098,986.774,-0.840891,-0.254288,-1.75914,
2026_07_06_15_05_00.960,3.865,34.9,0,0.763,0,0,0,0, ,0,0,0,0,0, ,-37.8,161.4,985.9,-0.6,-0.4,-1.9,25,-37.9237,162.034,986.8,-0.829258,-0.263167,-1.76468,
2026_07_06_15_05_00.986,3.865,34.9,0,0.764,0,0,0,0, ,0,0,0,0,0, ,-38.8,161.9,987.4,-0.7,-0.5,-1.9,25,-37.9467,162.011,986.791,-0.818335,-0.274552,-1.77292,
2026_07_06_15_05_00.996,3.865,34.9,0,0.763,0,0,0,0, ,0,0,0,0,0, ,-38.3,161.1,985.1,-0.7,-0.5,-1.9,25,-37.9834,161.979,986.758,-0.811124,-0.288291,-1.78067,
2026_07_06_15_05_01.021,3.865,34.8,0,0.764,0,0,0,0, ,0,0,0,0,0, ,-39,161.6,987.3,-0.6,-0.5,-1.9,25,-38.0241,161.941,986.724,-0.801305,-0.301192,-1.78794,
2026_07_06_15_05_01.038,3.865,34.8,0,0.763,0,0,0,0, ,0,0,0,0,0, ,-37.4,161.7,986.2,-0.7,-0.4,-1.9,25,-38.0348,161.923,986.725,-0.792085,-0.31026,-1.79477,
2026_07_06_15_05_01.065,3.865,34.8,0,0.763,0,0,0,0, ,0,0,0,0,0, ,-38.5,162.2,985.4,-0.7,-0.5,-1.9,25,-38.0296,161.925,986.669,-0.786474,-0.318775,-1.80118,
2026_07_06_15_05_01.075,3.865,34.9,0,0.764,0,0,0,0, ,0,0,0,0,0, ,-39,160.2,987.5,-0.7,-0.5,-1.8,25,-38.0735,161.881,986.656,-0.781204,-0.329818,-1.80416,
2026_07_06_15_05_01.101,3.865,34.8,0,0.764,0,0,0,0, ,0,0,0,0,0, ,-38.3,161.7,987.3,-0.8,-0.5,-1.9,25,-38.1086,161.824,986.701,-0.779303,-0.340189,-1.80695,
2026_07_06_15_05_01.115,3.865,34.9,0,0.763,0,0,0,0, ,0,0,0,0,0, ,-38.9,161.9,986.6,-0.7,-0.5,-1.9,25,-38.1386,161.823,986.716,-0.777517,-0.349927,-1.81262,
2026_07_06_15_05_01.143,3.865,34.7,0,0.762,0,0,0,0, ,0,0,0,0,0, ,-39.3,160.8,987.5,-0.7,-0.5,-1.9,25,-38.1972,161.794,986.736,-0.772793,-0.359072,-1.81794,
2026_07_06_15_05_01.154,3.865,34.9,0,0.762,0,0,0,0, ,0,0,0,0,0, ,-39.3,160.8,986.3,-0.7,-0.5,-1.9,25,-38.2644,161.733,986.746,-0.768358,-0.36766,-1.82294,
2026_07_06_15_05_01.181,3.865,34.8,0,0.762,0,0,0,0, ,0,0,0,0,0, ,-38.5,162.5,985.5,-0.8,-0.5,-1.9,25,-38.3031,161.728,986.695,-0.767239,-0.375725,-1.82764,
2026_07_06_15_05_01.194,3.865,34.8,0,0.763,0,0,0,0, ,0,0,0,0,0, ,-39.3,162.1,986.2,-0.7,-0.4,-1.9,25,-38.3395,161.763,986.643,-0.766188,-0.380251,-1.83205,
2026_07_06_15_05_01.220,3.865,34.8,0,0.762,0,0,0,0, ,0,0,0,0,0, ,-38.8,160.8,986.5,-0.7,-0.4,-2,25,-38.3828,161.744,986.625,-0.762155,-0.381454,-1.83924,
2026_07_06_15_05_01.233,3.865,34.8,0,0.764,0,0,0,0, ,0,0,0,0,0, ,-40,161.6,986.6,-0.7,-0.4,-1.8,25,-38.4448,161.711,986.621,-0.758367,-0.382584,-1.84294,
2026_07_06_15_05_01.260,3.865,34.8,0,0.763,0,0,0,0, ,0,0,0,0,0, ,-38.6,161.8,988.6,-0.7,-0.4,-1.8,25,-38.4969,161.71,986.681,-0.754811,-0.383646,-1.84032,
2026_07_06_15_05_01.273,3.865,34.8,0,0.763,0,0,0,0, ,0,0,0,0,0, ,-39.6,161.3,986.8,-0.7,-0.4,-1.9,25,-38.5336,161.7,986.743,-0.751471,-0.384642,-1.84091,
2026_07_06_15_05_01.299,3.865,34.8,0,0.762,0,0,0,0, ,0,0,0,0,0, ,-39.3,161.7,987.4,-0.7,-0.5,-1.8,25,-38.5895,161.688,986.764,-0.748334,-0.388625,-1.84147,
2026_07_06_15_05_01.313,3.865,34.8,0,0.763,0,0,0,0, ,0,0,0,0,0, ,-38.9,161.7,987.6,-0.7,-0.4,-1.9,25,-38.6206,161.689,986.809,-0.745389,-0.392365,-1.84199,
2026_07_06_15_05_01.340,3.865,34.9,0,0.763,0,0,0,0, ,0,0,0,0,0, ,-38.6,161.2,986,-0.7,-0.5,-1.8,25,-38.6285,161.674,986.809,-0.742623,-0.395877,-1.84247,
2026_07_06_15_05_01.352,3.865,34.8,0,0.763,0,0,0,0, ,0,0,0,0,0, ,-38.4,161.1,986.4,-0.7,-0.4,-1.9,25,-38.6206,161.642,986.772,-0.740026,-0.399175,-1.84293,
2026_07_06_15_05_01.379,3.865,34.8,0,0.762,0,0,0,0, ,0,0,0,0,0, ,-38,161.7,987,-0.6,-0.4,-1.9,25,-38.595,161.628,986.767,-0.73454,-0.399226,-1.84641,
2026_07_06_15_05_01.392,3.865,34.8,0,0.764,0,0,0,0, ,0,0,0,0,0, ,-39.1,160.7,987.5,-0.7,-0.5,-1.9,25,-38.5923,161.602,986.797,-0.729388,-0.40232,-1.84968,
2026_07_06_15_05_01.418,3.865,34.8,0,0.763,0,0,0,0, ,0,0,0,0,0, ,-39,161.8,988.8,-0.6,-0.4,-1.9,25,-38.6202,161.58,986.879,-0.72455,-0.405225,-1.85274,
2026_07_06_15_05_01.433,3.865,34.7,0,0.763,0,0,0,0, ,0,0,0,0,0, ,-39.4,160.5,987.4,-0.7,-0.5,-1.8,25,-38.6555,161.554,986.954,-0.720007,-0.407954,-1.85258,
2026_07_06_15_05_01.460,3.865,34.8,0,0.763,0,0,0,0, ,0,0,0,0,0, ,-38.5,161.1,986,-0.7,-0.4,-1.8,25,-38.6734,161.508,986.938,-0.718788,-0.410516,-1.84937,
2026_07_06_15_05_01.470,3.865,34.8,0,0.761,0,0,0,0, ,0,0,0,0,0, ,-38.4,160,988,-0.7,-0.5,-1.8,25,-38.6598,161.45,986.942,-0.717643,-0.412922,-1.84636,
2026_07_06_15_05_01.498,3.865,34.9,0,0.762,0,0,0,0, ,0,0,0,0,0, ,-38.8,161.8,985.5,-0.7,-0.5,-1.8,25,-38.6562,161.416,986.93,-0.716568,-0.418228,-1.84354,
2026_07_06_15_05_01.511,3.865,34.8,0,0.762,0,0,0,0, ,0,0,0,0,0, ,-39,161.6,986.6,-0.7,-0.4,-1.8,25,-38.671,161.433,986.877,-0.715559,-0.420164,-1.84089,
2026_07_06_15_05_01.537,3.865,34.9,0,0.762,0,0,0,0, ,0,0,0,0,0, ,-39,161.9,985.9,-0.7,-0.5,-1.9,25,-38.6911,161.453,986.838,-0.71461,-0.421982,-1.84144,
2026_07_06_15_05_01.551,3.865,34.8,0,0.762,0,0,0,0, ,0,0,0,0,0, ,-38.2,161,987.9,-0.7,-0.4,-1.8,25,-38.6855,161.453,986.842,-0.71372,-0.42369,-1.84196,
2026_07_06_15_05_01.578,3.865,34.8,0,0.763,0,0,0,0, ,0,0,0,0,0, ,-39.1,162.1,986.9,-0.7,-0.5,-1.9,25,-38.6834,161.458,986.876,-0.712884,-0.425293,-1.84245,
2026_07_06_15_05_01.590,3.865,34.8,0,0.763,0,0,0,0, ,0,0,0,0,0, ,-38.9,160.8,986.3,-0.8,-0.5,-1.8,25,-38.7027,161.458,986.859,-0.715146,-0.429845,-1.84291,
2026_07_06_15_05_01.617,3.865,34.7,0,0.763,0,0,0,0, ,0,0,0,0,0, ,-39.3,160.8,987.3,-0.7,-0.5,-1.9,25,-38.7269,161.418,986.856,-0.71727,-0.434121,-1.84334,
2026_07_06_15_05_01.630,3.865,34.9,0,0.763,0,0,0,0, ,0,0,0,0,0, ,-39,159.9,987.1,-0.8,-0.5,-1.9,25,-38.7527,161.353,986.877,-0.719264,-0.438135,-1.8468,
2026_07_06_15_05_01.657,3.865,34.8,0,0.763,0,0,0,0, ,0,0,0,0,0, ,-40.8,160.6,987,-0.7,-0.5,-1.8,25,-38.8226,161.286,986.887,-0.721137,-0.441905,-1.84699,
2026_07_06_15_05_01.669,3.865,34.8,0,0.763,0,0,0,0, ,0,0,0,0,0, ,-38.3,160.6,987.5,-0.7,-0.4,-1.9,25,-38.8669,161.244,986.909,-0.719849,-0.442398,-1.84717,
2026_07_06_15_05_01.695,3.865,34.8,0,0.763,0,0,0,0, ,0,0,0,0,0, ,-39.1,161.7,987.1,-0.8,-0.5,-1.9,25,-38.8567,161.238,986.933,-0.721686,-0.442861,-1.85039,
2026_07_06_15_05_01.708,3.865,34.9,0,0.763,0,0,0,0, ,0,0,0,0,0, ,-39.6,161.7,985.7,-0.7,-0.4,-1.9,25,-38.8868,161.266,986.901,-0.723412,-0.443296,-1.85342,
2026_07_06_15_05_01.738,3.865,34.8,0,0.76,0,0,0,0, ,0,0,0,0,0, ,-38.8,161.2,985.7,-0.8,-0.5,-1.9,25,-38.9059,161.277,986.827,-0.725032,-0.443705,-1.85626,
2026_07_06_15_05_01.748,3.865,34.7,0,0.761,0,0,0,0, ,0,0,0,0,0, ,-38.5,160.2,986,-0.7,-0.5,-1.9,25,-38.8903,161.242,986.768,-0.726554,-0.447135,-1.85892,
2026_07_06_15_05_01.775,3.865,34.7,0,0.763,0,0,0,0, ,0,0,0,0,0, ,-39.5,161.8,986.5,-0.6,-0.4,-1.8,25,-38.897,161.227,986.736,-0.721889,-0.44731,-1.85838,
2026_07_06_15_05_01.794,3.865,34.7,0,0.762,0,0,0,0, ,0,0,0,0,0, ,-39.6,161.3,986.5,-0.7,-0.5,-1.9,25,-38.9368,161.247,986.722,-0.717508,-0.447474,-1.85787,
2026_07_06_15_05_01.820,3.865,34.8,0,0.762,0,0,0,0, ,0,0,0,0,0, ,-38.8,161,986.9,-0.6,-0.5,-1.8,25,-38.9528,161.241,986.721,-0.713394,-0.450675,-1.85739,
2026_07_06_15_05_01.827,3.865,34.8,0,0.762,0,0,0,0, ,0,0,0,0,0, ,-39.6,161.1,987.6,-0.7,-0.5,-1.8,25,-38.9679,161.23,986.753,-0.709531,-0.45368,-1.85389,
2026_07_06_15_05_01.853,3.865,34.7,0,0.762,0,0,0,0, ,0,0,0,0,0, ,-38,160.4,986.6,-0.7,-0.5,-1.9,25,-38.9576,161.2,986.774,-0.70895,-0.456503,-1.85365,
2026_07_06_15_05_01.868,3.865,34.8,0,0.762,0,0,0,0, ,0,0,0,0,0, ,-38.3,161.8,986.3,-0.7,-0.5,-1.8,25,-38.9084,161.194,986.754,-0.708405,-0.459154,-1.85343,
2026_07_06_15_05_01.896,3.865,34.8,0,0.764,0,0,0,0, ,0,0,0,0,0, ,-39.3,161.6,986.6,-0.7,-0.5,-1.8,25,-38.9018,161.225,986.736,-0.707893,-0.461643,-1.85017,
2026_07_06_15_05_01.907,3.865,34.8,0,0.763,0,0,0,0, ,0,0,0,0,0, ,-39.3,162.9,986.3,-0.8,-0.5,-1.8,25,-38.9261,161.288,986.718,-0.710459,-0.46398,-1.84712,
2026_07_06_15_05_01.934,3.865,34.7,0,0.762,0,0,0,0, ,0,0,0,0,0, ,-39.9,161.7,985.8,-0.7,-0.5,-1.9,25,-38.9671,161.349,986.678,-0.712868,-0.466175,-1.84729,
2026_07_06_15_05_01.946,3.865,34.8,0,0.763,0,0,0,0, ,0,0,0,0,0, ,-39.1,160.7,987.1,-0.7,-0.5,-1.8,25,-38.9996,161.34,986.664,-0.712084,-0.468236,-1.84746,
2026_07_06_15_05_01.973,3.865,34.8,0,0.763,0,0,0,0, ,0,0,0,0,0, ,-40.2,160.8,989.1,-0.9,-0.4,-1.9,25,-39.0393,161.304,986.751,-0.717441,-0.467125,-1.84761,
2026_07_06_15_05_01.986,3.865,34.7,0,0.762,0,0,0,0, ,0,0,0,0,0, ,-37.4,160.5,988.2,-0.8,-0.4,-1.9,25,-39.0247,161.264,986.867,-0.725519,-0.463035,-1.85081,
2026_07_06_15_05_02.013,3.865,34.8,0,0.762,0,0,0,0, ,0,0,0,0,0, ,-37.9,160.4,987.4,-0.7,-0.5,-1.8,25,-38.9409,161.215,986.924,-0.727011,-0.46224,-1.85076,
2026_07_06_15_05_02.025,3.865,34.8,0,0.763,0,0,0,0, ,0,0,0,0,0, ,-40.1,162.7,987.9,-0.8,-0.5,-1.9,25,-38.9445,161.235,986.968,-0.728412,-0.464541,-1.85071,
2026_07_06_15_05_02.053,3.865,34.7,0,0.762,0,0,0,0, ,0,0,0,0,0, ,-39.4,161,985.5,-0.8,-0.5,-1.9,25,-38.9936,161.273,986.952,-0.732774,-0.466702,-1.85371,
2026_07_06_15_05_02.065,3.865,34.7,0,0.763,0,0,0,0, ,0,0,0,0,0, ,-39.3,162.2,987,-0.7,-0.4,-1.8,25,-39.0153,161.293,986.909,-0.733824,-0.465684,-1.85349,
2026_07_06_15_05_02.092,3.865,34.7,0,0.763,0,0,0,0, ,0,0,0,0,0, ,-38.3,160.8,986.3,-0.7,-0.5,-1.8,25,-39.0022,161.305,986.893,-0.731763,-0.464729,-1.85023,
2026_07_06_15_05_02.105,3.865,34.7,0,0.762,0,0,0,0, ,0,0,0,0,0, ,-39.3,161,987,-0.8,-0.5,-1.8,25,-38.9899,161.28,986.878,-0.732874,-0.466878,-1.84717,
2026_07_06_15_05_02.133,3.865,34.7,0,0.761,0,0,0,0, ,0,0,0,0,0, ,-37.7,160.6,986.3,-0.7,-0.5,-1.8,25,-38.96,161.251,986.864,-0.733918,-0.468896,-1.84429,
2026_07_06_15_05_02.145,3.865,34.8,0,0.762,0,0,0,0, ,0,0,0,0,0, ,-38.9,161.3,986.2,-0.7,-0.5,-1.8,25,-38.9198,161.233,986.827,-0.731851,-0.470792,-1.84159,
2026_07_06_15_05_02.172,3.865,34.7,0,0.763,0,0,0,0, ,0,0,0,0,0, ,-38.9,161.8,986.6,-0.7,-0.5,-1.9,25,-38.9186,161.252,986.801,-0.72991,-0.472572,-1.84211,
2026_07_06_15_05_02.184,3.865,34.7,0,0.763,0,0,0,0, ,0,0,0,0,0, ,-38.9,160.6,985.7,-0.7,-0.5,-1.8,25,-38.9175,161.249,986.761,-0.728087,-0.474243,-1.84259,
2026_07_06_15_05_02.219,3.865,34.8,0,0.762,0,0,0,0, ,0,0,0,0,0, ,-38,160.5,986.6,-0.8,-0.4,-1.9,25,-38.889,161.206,986.724,-0.729423,-0.472766,-1.84304,
2026_07_06_15_05_02.224,3.865,34.8,0,0.762,0,0,0,0, ,0,0,0,0,0, ,-38,160.7,987.1,-0.7,-0.5,-1.9,25,-38.8348,161.169,986.732,-0.730677,-0.471378,-1.84651,
2026_07_06_15_05_02.252,3.865,34.7,0,0.763,0,0,0,0, ,0,0,0,0,0, ,-38.5,161.3,985.5,-0.7,-0.5,-1.9,25,-38.7992,161.159,986.705,-0.728807,-0.473122,-1.84977,
