UTC_Time,Vin,TC1,TC2,Rh1,Vh1,Ah1,Acp1,Dty1,Err1,Rh2,Vh2,Ah2,Acp2,Dty2,Err2,Accel_x,Accel_y,Accel_z,gyro_x,gyro_y,gyro_z,Temp_c,Accel_x_h,Accel_y_h,Accel_z_h,gyro_x_h,gyro_y_h,gyro_z_h,
2026_07_06_16_23_49.318,3.867,51.8,0,0.774,0,0,0,0, ,0,0,0,0,0, ,638,-244.7,-744.3,1.5,-5.9,0.1,25,638,-244.7,-744.3,1.5,-5.9,0.1,
2026_07_06_16_23_49.338,3.867,51.5,0,0.774,0,0,0,0, ,0,0,0,0,0, ,633.1,-226.5,-725.3,-1.3,-2.5,-0.1,25,637.851,-244.145,-743.721,1.41469,-5.79641,0.0939063,
2026_07_06_16_23_49.358,3.867,51.5,0,0.774,0,0,0,0, ,0,0,0,0,0, ,623.5,-239.2,-721,-5.1,-0.1,-0.9,25,637.269,-243.457,-742.468,1.13348,-5.52241,0.0577151,
2026_07_06_16_23_49.377,3.867,51.4,0,0.773,0,0,0,0, ,0,0,0,0,0, ,614.2,-266.2,-726.6,-3.7,-0.6,-0.6,25,636.146,-244.02,-741.33,0.796284,-5.20721,0.00849496,
2026_07_06_16_23_49.399,3.867,51.4,0,0.775,0,0,0,0, ,0,0,0,0,0, ,601.5,-262,-735.8,0,-3,-1.4,25,634.422,-245.244,-740.713,0.635026,-4.99959,-0.0529602,
2026_07_06_16_23_49.417,3.867,51.5,0,0.773,0,0,0,0, ,0,0,0,0,0, ,605.7,-251.2,-740.4,0.2,-5.7,-1.5,25,632.544,-245.936,-740.553,0.602423,-4.96,-0.138092,
2026_07_06_16_23_49.437,3.867,51.3,0,0.773,0,0,0,0, ,0,0,0,0,0, ,613.7,-240.3,-737,-2.1,-6.5,-1.6,25,631.152,-245.925,-740.441,0.507822,-5.02947,-0.22413,
2026_07_06_16_23_49.456,3.867,51.4,0,0.773,0,0,0,0, ,0,0,0,0,0, ,608.7,-247.4,-743.1,0,-3.8,-1,25,629.936,-245.798,-740.417,0.412892,-5.03682,-0.289691,
2026_07_06_16_23_49.476,3.867,51.4,0,0.774,0,0,0,0, ,0,0,0,0,0, ,607,-264.2,-752.8,-4.1,-3.6,-2.9,25,628.59,-246.408,-740.876,0.26281,-4.95535,-0.390866,
2026_07_06_16_23_49.496,3.867,51.4,0,0.774,0,0,0,0, ,0,0,0,0,0, ,616.9,-263.3,-755.6,0.7,-1.1,-2.9,25,627.576,-247.465,-741.688,0.143201,-4.79659,-0.543767,
2026_07_06_16_23_49.516,3.867,51.4,0,0.773,0,0,0,0, ,0,0,0,0,0, ,611.9,-254.5,-751.9,0.4,-1.1,-5.4,25,626.773,-248.161,-742.423,0.16799,-4.57133,-0.763521,
2026_07_06_16_23_49.536,3.867,51.4,0,0.773,0,0,0,0, ,0,0,0,0,0, ,615.9,-241.4,-743.2,-0.6,-2.7,-5.4,25,625.989,-248.148,-742.735,0.15166,-4.40854,-1.04606,
2026_07_06_16_23_49.556,3.867,51.3,0,0.773,0,0,0,0, ,0,0,0,0,0, ,617.7,-233.6,-750.4,-1,-3.7,-4.8,25,625.429,-247.5,-742.983,0.0936678,-4.3349,-1.29309,
2026_07_06_16_23_49.576,3.867,51.4,0,0.774,0,0,0,0, ,0,0,0,0,0, ,624,-236.3,-746.3,-0.8,-4.5,-3.2,25,625.15,-246.735,-743.31,0.0331162,-4.32058,-1.45805,
2026_07_06_16_23_49.596,3.867,51.3,0,0.775,0,0,0,0, ,0,0,0,0,0, ,634.6,-237.6,-742.9,0.9,-3.9,-1.8,25,625.403,-246.139,-743.389,0.0341451,-4.31324,-1.52154,
2026_07_06_16_23_49.615,3.867,51.5,0,0.774,0,0,0,0, ,0,0,0,0,0, ,629.3,-241.2,-744,0.6,-2.7,-0.9,25,625.802,-245.728,-743.392,0.0777675,-4.25149,-1.51109,
2026_07_06_16_23_49.635,3.867,51.3,0,0.774,0,0,0,0, ,0,0,0,0,0, ,621.5,-244.5,-743.8,-0.6,-1.4,-1.8,25,625.777,-245.553,-743.423,0.0730285,-4.11734,-1.50127,
2026_07_06_16_23_49.660,3.867,51.3,0,0.774,0,0,0,0, ,0,0,0,0,0, ,615.8,-240.4,-742.5,-1.1,-0.6,-3.7,25,625.343,-245.364,-743.407,0.0167815,-3.92738,-1.57737,
2026_07_06_16_23_49.675,3.867,51.2,0,0.774,0,0,0,0, ,0,0,0,0,0, ,617.6,-230.7,-735.3,-1.4,-0.9,-4.1,25,624.816,-244.766,-743.132,-0.060413,-3.73375,-1.7189,
2026_07_06_16_23_49.695,3.867,51.3,0,0.773,0,0,0,0, ,0,0,0,0,0, ,616.5,-229.6,-738.5,-0.6,-1.8,-2.7,25,624.343,-243.875,-742.752,-0.117669,-3.58849,-1.82134,
2026_07_06_16_23_49.714,3.867,51.3,0,0.774,0,0,0,0, ,0,0,0,0,0, ,614.5,-235.3,-748,-1,-3.2,-0.2,25,623.804,-243.179,-742.783,-0.159249,-3.52216,-1.79871,
2026_07_06_16_23_49.734,3.867,51.4,0,0.773,0,0,0,0, ,0,0,0,0,0, ,611.3,-244,-749.3,-1.9,-3,-0.5,25,623.14,-242.964,-743.14,-0.237904,-3.49644,-1.71043,
2026_07_06_16_23_49.754,3.867,51.4,0,0.775,0,0,0,0, ,0,0,0,0,0, ,615.8,-256.3,-749.5,-3.7,-1.4,-2.9,25,622.555,-243.402,-743.522,-0.394032,-3.41744,-1.7098,
2026_07_06_16_23_49.773,3.867,51.2,0,0.774,0,0,0,0, ,0,0,0,0,0, ,618,-246.7,-753.1,-2.3,0,-4,25,622.211,-243.895,-743.996,-0.552833,-3.25184,-1.81584,
2026_07_06_16_23_49.794,3.867,51.2,0,0.774,0,0,0,0, ,0,0,0,0,0, ,613.8,-238.7,-750.1,-0.7,-0.7,-3.4,25,621.826,-243.822,-744.459,-0.610551,-3.07501,-1.93066,
2026_07_06_16_23_49.813,3.867,51.2,0,0.775,0,0,0,0, ,0,0,0,0,0, ,613.1,-239.1,-754.6,-0.7,-1.4,-2.2,25,621.316,-243.522,-744.94,-0.616002,-2.95161,-1.98363,
2026_07_06_16_23_49.833,3.867,51.2,0,0.774,0,0,0,0, ,0,0,0,0,0, ,606.4,-235.8,-752.9,0,-1.4,-1.7,25,620.611,-243.152,-745.477,-0.599792,-2.85706,-1.98158,
2026_07_06_16_23_49.853,3.867,51.2,0,0.775,0,0,0,0, ,0,0,0,0,0, ,610.3,-244.5,-749.1,-2.6,-2.3,-2.5,25,619.864,-242.969,-745.813,-0.642461,-2.79569,-1.9888,
2026_07_06_16_23_49.873,3.867,51.3,0,0.774,0,0,0,0, ,0,0,0,0,0, ,618,-235.9,-749.1,-1.6,-1.4,-2.9,25,619.516,-242.801,-746.014,-0.73128,-2.73807,-2.03214,
2026_07_06_16_23_49.893,3.867,51.2,0,0.775,0,0,0,0, ,0,0,0,0,0, ,623.7,-238.4,-747.4,-0.5,-1.8,-1.9,25,619.597,-242.456,-746.15,-0.750702,-2.66871,-2.05455,
2026_07_06_16_23_49.912,3.867,51.2,0,0.774,0,0,0,0, ,0,0,0,0,0, ,612.4,-240.2,-751.9,0.6,-1.6,-1.8,25,619.503,-242.264,-746.363,-0.701909,-2.60968,-2.04209,
2026_07_06_16_23_49.933,3.867,51.2,0,0.775,0,0,0,0, ,0,0,0,0,0, ,609.2,-235.1,-749.8,-1.1,-2.4,-2.7,25,618.972,-241.983,-746.637,-0.674371,-2.57253,-2.05476,
2026_07_06_16_23_49.951,3.867,51.1,0,0.775,0,0,0,0, ,0,0,0,0,0, ,614.8,-237.7,-755.3,-1.3,-1.9,-1.7,25,618.547,-241.643,-746.997,-0.706401,-2.54678,-2.06361,
2026_07_06_16_23_49.971,3.867,51.2,0,0.774,0,0,0,0, ,0,0,0,0,0, ,618.8,-231.3,-749.3,-2.2,-1,-1.6,25,618.441,-241.207,-747.32,-0.769996,-2.47995,-2.03841,
2026_07_06_16_23_49.991,3.867,51.3,0,0.774,0,0,0,0, ,0,0,0,0,0, ,615.7,-237.1,-752.6,-1.6,0,-1.3,25,618.368,-240.78,-747.541,-0.838855,-2.35929,-2.00255,
2026_07_06_16_23_50.011,3.867,51.1,0,0.774,0,0,0,0, ,0,0,0,0,0, ,606.6,-244.2,-755.7,0.2,-0.3,-1.2,25,617.928,-240.772,-747.944,-0.830394,-2.22467,-1.95669,
2026_07_06_16_23_50.031,3.867,51.2,0,0.774,0,0,0,0, ,0,0,0,0,0, ,602,-245.2,-747.9,0.6,-1.4,-2.1,25,617.098,-241.012,-748.179,-0.755417,-2.1409,-1.938,
2026_07_06_16_23_50.051,3.867,51.2,0,0.774,0,0,0,0, ,0,0,0,0,0, ,604.1,-235.7,-746.3,-0.4,-2.6,-2.8,25,616.242,-240.977,-748.113,-0.70329,-2.13231,-1.9692,
2026_07_06_16_23_50.070,3.867,51,0,0.774,0,0,0,0, ,0,0,0,0,0, ,612.1,-229.6,-744.2,-1.7,-2.6,-2.8,25,615.746,-240.47,-747.939,-0.724417,-2.16081,-2.01983,
2026_07_06_16_23_50.091,3.867,51.2,0,0.775,0,0,0,0, ,0,0,0,0,0, ,623.5,-234.2,-754.3,-2.1,-0.7,-1.4,25,615.871,-239.948,-748.019,-0.796054,-2.12968,-2.02471,
2026_07_06_16_23_50.110,3.867,51,0,0.774,0,0,0,0, ,0,0,0,0,0, ,615.3,-243.6,-757.8,-0.9,1.5,-1.5,25,616.086,-239.884,-748.508,-0.838951,-1.97553,-1.98969,
2026_07_06_16_23_50.129,3.867,51.1,0,0.774,0,0,0,0, ,0,0,0,0,0, ,601.4,-241.9,-747.8,-1.2,1.2,-2.5,25,615.615,-240.059,-748.77,-0.851812,-1.77288,-1.99032,
2026_07_06_16_23_50.156,3.867,51.1,0,0.772,0,0,0,0, ,0,0,0,0,0, ,594.9,-241.5,-743.8,-1.1,-1.2,-3.3,25,614.55,-240.159,-748.589,-0.869983,-1.66485,-2.04575,
2026_07_06_16_23_50.169,3.867,51.1,0,0.773,0,0,0,0, ,0,0,0,0,0, ,602.6,-240.9,-748.6,-0.3,-3.7,-3.5,25,613.588,-240.222,-748.443,-0.859624,-1.71269,-2.12828,
2026_07_06_16_23_50.189,3.867,51.1,0,0.775,0,0,0,0, ,0,0,0,0,0, ,615.3,-229.2,-757.8,-0.5,-3.2,-2.7,25,613.305,-239.907,-748.733,-0.831616,-1.81856,-2.18749,
2026_07_06_16_23_50.209,3.867,51,0,0.775,0,0,0,0, ,0,0,0,0,0, ,615.2,-228.7,-752.5,0.8,-1,-1.1,25,613.423,-239.239,-749.124,-0.771799,-1.83571,-2.16997,
2026_07_06_16_23_50.230,3.867,51.1,0,0.775,0,0,0,0, ,0,0,0,0,0, ,607.1,-245.7,-751.3,-2.9,-0.1,-2.9,25,613.285,-239.115,-749.293,-0.788752,-1.75736,-2.15962,
2026_07_06_16_23_50.250,3.867,51.2,0,0.775,0,0,0,0, ,0,0,0,0,0, ,604,-239.1,-751.7,-1.9,0.5,-3.7,25,612.814,-239.315,-749.428,-0.886937,-1.63808,-2.22911,
2026_07_06_16_23_50.269,3.867,51.1,0,0.775,0,0,0,0, ,0,0,0,0,0, ,603.5,-241.6,-754,-0.7,-1.3,-4.5,25,612.261,-239.378,-749.636,-0.912108,-1.56264,-2.34312,
2026_07_06_16_23_50.288,3.867,51,0,0.775,0,0,0,0, ,0,0,0,0,0, ,609.2,-218.1,-752.6,-1.4,-2.6,-3.7,25,611.901,-238.798,-749.859,-0.920511,-1.58624,-2.45018,
2026_07_06_16_23_50.308,3.867,51,0,0.776,0,0,0,0, ,0,0,0,0,0, ,617.3,-226.8,-748.7,-1.5,-2.1,-2.1,25,611.983,-237.801,-749.908,-0.952777,-1.63279,-2.47759,
2026_07_06_16_23_50.329,3.867,51.2,0,0.775,0,0,0,0, ,0,0,0,0,0, ,610.3,-229,-762.6,-1,-1,-2.9,25,612.094,-237.198,-750.258,-0.970889,-1.62774,-2.47895,
2026_07_06_16_23_50.347,3.867,51.1,0,0.773,0,0,0,0, ,0,0,0,0,0, ,607.9,-235.3,-754.2,-1.9,-1.4,-2.8,25,611.912,-236.89,-750.754,-1.00008,-1.60167,-2.50156,
2026_07_06_16_23_50.368,3.867,51,0,0.773,0,0,0,0, ,0,0,0,0,0, ,614.1,-234,-765.5,0.1,-1,-2.3,25,611.856,-236.754,-751.308,-0.993986,-1.5772,-2.50451,
2026_07_06_16_23_50.387,3.867,51.1,0,0.773,0,0,0,0, ,0,0,0,0,0, ,613.6,-232.1,-755.2,-0.9,-1.7,-2.8,25,611.977,-236.528,-751.859,-0.95779,-1.56335,-2.50729,
2026_07_06_16_23_50.407,3.867,51,0,0.775,0,0,0,0, ,0,0,0,0,0, ,618.6,-228.6,-755.9,-1.1,-0.8,-3.3,25,612.229,-236.152,-752.084,-0.960362,-1.54426,-2.54036,
2026_07_06_16_23_50.427,3.867,51,0,0.775,0,0,0,0, ,0,0,0,0,0, ,613.6,-221.8,-753.6,-1.7,0,-2.4,25,612.465,-235.484,-752.246,-0.987152,-1.47453,-2.55923,
2026_07_06_16_23_50.446,3.867,51,0,0.775,0,0,0,0, ,0,0,0,0,0, ,610.7,-232.4,-753,-1.3,-0.1,-2.2,25,612.445,-234.973,-752.311,-1.0184,-1.38772,-2.54343,
2026_07_06_16_23_50.466,3.867,51,0,0.773,0,0,0,0, ,0,0,0,0,0, ,609,-234.9,-758.1,0.3,-1.7,-1.7,25,612.287,-234.893,-752.508,-0.986814,-1.358,-2.50727,
2026_07_06_16_23_50.486,3.867,51,0,0.776,0,0,0,0, ,0,0,0,0,0, ,609.7,-233.3,-752.5,1.1,-2,-1.7,25,612.108,-234.844,-752.678,-0.884024,-1.38798,-2.45808,
2026_07_06_16_23_50.505,3.867,51.1,0,0.775,0,0,0,0, ,0,0,0,0,0, ,611.4,-222.9,-752.8,0.1,-1.9,-2.3,25,612.013,-234.433,-752.676,-0.793591,-1.42223,-2.43016,
2026_07_06_16_23_50.526,3.867,51,0,0.775,0,0,0,0, ,0,0,0,0,0, ,615.8,-223.9,-744.3,-2.5,-1.2,-2.3,25,612.11,-233.761,-752.425,-0.818356,-1.43002,-2.42223,
2026_07_06_16_23_50.545,3.867,50.9,0,0.775,0,0,0,0, ,0,0,0,0,0, ,612.9,-223.3,-760.2,-2.6,-0.7,-1.6,25,612.247,-233.142,-752.414,-0.923878,-1.40077,-2.39345,
2026_07_06_16_23_50.565,3.867,51,0,0.776,0,0,0,0, ,0,0,0,0,0, ,607.6,-233.2,-761.9,-2.1,-1.3,-1.5,25,612.125,-232.844,-752.941,-1.01078,-1.37634,-2.34206,
2026_07_06_16_23_50.585,3.867,51,0,0.775,0,0,0,0, ,0,0,0,0,0, ,611.3,-234.9,-761.9,-0.4,-1,-1.5,25,611.962,-232.917,-753.487,-1.02536,-1.36255,-2.29074,
2026_07_06_16_23_50.604,3.867,50.9,0,0.776,0,0,0,0, ,0,0,0,0,0, ,603.5,-229.2,-753.6,0.7,-1.1,-1.5,25,611.684,-232.864,-753.746,-0.953736,-1.34351,-2.24256,
2026_07_06_16_23_50.625,3.867,51,0,0.774,0,0,0,0, ,0,0,0,0,0, ,606,-220.5,-749.8,-1.3,-1.8,-1.8,25,611.261,-232.376,-753.622,-0.913899,-1.34999,-2.20645,
2026_07_06_16_23_50.645,3.867,50.9,0,0.775,0,0,0,0, ,0,0,0,0,0, ,605.1,-236,-756.9,-2.1,-2,-2.4,25,610.913,-232.125,-753.605,-0.961802,-1.38351,-2.19996,
2026_07_06_16_23_50.663,3.867,51,0,0.775,0,0,0,0, ,0,0,0,0,0, ,605.8,-235.5,-764.1,-1.1,-1.7,-1.6,25,610.58,-232.346,-754.025,-1.00069,-1.41194,-2.18778,
2026_07_06_16_23_50.684,3.867,51,0,0.775,0,0,0,0, ,0,0,0,0,0, ,604.3,-235.2,-758.5,0.3,-0.7,-1.9,25,610.243,-232.529,-754.469,-0.964088,-1.39902,-2.1611,
2026_07_06_16_23_50.703,3.867,50.9,0,0.775,0,0,0,0, ,0,0,0,0,0, ,600.3,-222.6,-749.6,0.3,-1.2,-2.2,25,609.759,-232.308,-754.443,-0.887058,-1.37166,-2.15433,
2026_07_06_16_23_50.724,3.867,50.8,0,0.775,0,0,0,0, ,0,0,0,0,0, ,601.5,-227.9,-753.4,-0.5,-2.2,-2.5,25,609.219,-231.877,-754.264,-0.839096,-1.39167,-2.16625,
2026_07_06_16_23_50.743,3.867,51,0,0.774,0,0,0,0, ,0,0,0,0,0, ,608.8,-216.9,-760.3,-2.3,-2.1,-2.4,25,608.971,-231.3,-754.421,-0.873276,-1.43788,-2.18354,
2026_07_06_16_23_50.763,3.867,51,0,0.775,0,0,0,0, ,0,0,0,0,0, ,613.6,-229.1,-760.9,-2.2,0,-2.2,25,609.107,-230.794,-754.798,-0.95717,-1.41424,-2.19064,
2026_07_06_16_23_50.783,3.867,50.9,0,0.776,0,0,0,0, ,0,0,0,0,0, ,611.3,-227.6,-760.8,-1,0.6,-1.9,25,609.311,-230.645,-755.167,-0.996343,-1.30978,-2.18207,
2026_07_06_16_23_50.803,3.867,50.8,0,0.773,0,0,0,0, ,0,0,0,0,0, ,603.2,-231,-761.1,0.2,-0.9,-1.9,25,609.185,-230.563,-755.519,-0.960003,-1.23911,-2.16488,
2026_07_06_16_23_50.821,3.867,50.8,0,0.774,0,0,0,0, ,0,0,0,0,0, ,603.6,-226,-758.7,0.6,-2.4,-1.8,25,608.833,-230.438,-755.786,-0.877128,-1.26415,-2.14569,
2026_07_06_16_23_50.841,3.867,50.9,0,0.775,0,0,0,0, ,0,0,0,0,0, ,605.5,-224.2,-755.9,-1.1,-2.6,-2.5,25,608.572,-230.112,-755.878,-0.838912,-1.33946,-2.14596,
2026_07_06_16_23_50.861,3.867,50.8,0,0.776,0,0,0,0, ,0,0,0,0,0, ,606.6,-229.1,-763.4,-0.6,-1.7,-2.2,25,608.418,-229.901,-756.108,-0.839588,-1.38885,-2.15839,
2026_07_06_16_23_50.882,3.867,50.9,0,0.775,0,0,0,0, ,0,0,0,0,0, ,606.6,-224.9,-761.3,-0.3,-1,-1.6,25,608.307,-229.724,-756.488,-0.815848,-1.38648,-2.14264,
2026_07_06_16_23_50.901,3.867,50.9,0,0.775,0,0,0,0, ,0,0,0,0,0, ,604.1,-220.7,-759.2,0.9,-0.6,-0.7,25,608.127,-229.303,-756.718,-0.747851,-1.35074,-2.08215,
2026_07_06_16_23_50.921,3.867,50.9,0,0.775,0,0,0,0, ,0,0,0,0,0, ,601.5,-229.6,-755,-0.7,-2.2,-1.5,25,607.803,-229.049,-756.741,-0.696185,-1.35374,-2.0223,
2026_07_06_16_23_50.941,3.867,50.8,0,0.772,0,0,0,0, ,0,0,0,0,0, ,605.3,-220.4,-757.3,-0.8,-2.1,-1.4,25,607.534,-228.803,-756.705,-0.699464,-1.40227,-1.98743,
2026_07_06_16_23_50.961,3.867,50.9,0,0.777,0,0,0,0, ,0,0,0,0,0, ,606.5,-229.8,-757.5,-1.7,-1.8,-1.2,25,607.435,-228.577,-756.747,-0.733012,-1.43564,-1.94554,
2026_07_06_16_23_50.980,3.867,50.8,0,0.775,0,0,0,0, ,0,0,0,0,0, ,605.4,-228.3,-764.5,-0.9,-0.8,-0.7,25,607.344,-228.606,-757.006,-0.767563,-1.42738,-1.88487,
2026_07_06_16_23_51.000,3.867,50.8,0,0.775,0,0,0,0, ,0,0,0,0,0, ,604.2,-235.1,-761.7,-0.1,-1,-1.4,25,607.189,-228.794,-757.378,-0.751259,-1.39524,-1.834,
2026_07_06_16_23_51.020,3.867,50.8,0,0.773,0,0,0,0, ,0,0,0,0,0, ,600.4,-225.9,-760.2,0.1,-1.6,-1.1,25,606.891,-228.898,-757.595,-0.705479,-1.38944,-1.79841,
2026_07_06_16_23_51.040,3.867,50.9,0,0.774,0,0,0,0, ,0,0,0,0,0, ,599.2,-226.5,-755.9,-0.6,-1.7,-1.1,25,606.459,-228.734,-757.623,-0.677723,-1.40531,-1.75585,
2026_07_06_16_23_51.060,3.867,50.8,0,0.775,0,0,0,0, ,0,0,0,0,0, ,595,-227.5,-762.8,-1.4,-1.9,-1.8,25,605.889,-228.628,-757.728,-0.697362,-1.42937,-1.73721,
2026_07_06_16_23_51.080,3.867,50.9,0,0.772,0,0,0,0, ,0,0,0,0,0, ,603.5,-228.2,-765.9,-1.7,-1.8,-2.1,25,605.484,-228.581,-758.132,-0.749319,-1.455,-1.75018,
2026_07_06_16_23_51.099,3.867,50.8,0,0.775,0,0,0,0, ,0,0,0,0,0, ,603.5,-227.7,-768.3,-1.1,-0.9,-1.7,25,605.363,-228.542,-758.678,-0.78897,-1.4486,-1.75931,
2026_07_06_16_23_51.118,3.867,50.8,0,0.772,0,0,0,0, ,0,0,0,0,0, ,602.2,-231.3,-763.3,0,-0.8,-1.3,25,605.21,-228.601,-759.112,-0.774408,-1.41212,-1.74351,
2026_07_06_16_23_51.139,3.867,50.8,0,0.775,0,0,0,0, ,0,0,0,0,0, ,596.4,-228.5,-764.4,-0.8,-1.1,-1.4,25,604.85,-228.68,-759.401,-0.751592,-1.38396,-1.71953,
2026_07_06_16_23_51.158,3.867,50.8,0,0.773,0,0,0,0, ,0,0,0,0,0, ,597.6,-233.7,-765.1,-0.8,-0.7,-1.8,25,604.372,-228.827,-759.727,-0.754542,-1.35447,-1.71225,
2026_07_06_16_23_51.179,3.867,50.8,0,0.775,0,0,0,0, ,0,0,0,0,0, ,597.6,-233,-766.9,0.1,-0.5,-1.8,25,603.959,-229.103,-760.109,-0.729891,-1.3085,-1.71759,
2026_07_06_16_23_51.198,3.867,50.8,0,0.775,0,0,0,0, ,0,0,0,0,0, ,596.5,-225.4,-762,0.3,-0.2,-2,25,603.538,-229.109,-760.374,-0.673225,-1.25009,-1.72871,
2026_07_06_16_23_51.218,3.867,50.8,0,0.773,0,0,0,0, ,0,0,0,0,0, ,600.9,-225.8,-757.5,-0.3,-0.1,-2.5,25,603.243,-228.895,-760.336,-0.632201,-1.18305,-1.76047,
2026_07_06_16_23_51.238,3.867,50.8,0,0.774,0,0,0,0, ,0,0,0,0,0, ,597.5,-225.8,-759.3,-0.3,-1.2,-2.8,25,602.997,-228.706,-760.218,-0.611957,-1.15057,-1.81468,
2026_07_06_16_23_51.258,3.867,50.7,0,0.775,0,0,0,0, ,0,0,0,0,0, ,603.3,-227.5,-763.9,-0.4,-2.2,-2.5,25,602.839,-228.581,-760.302,-0.595994,-1.18405,-1.86558,
2026_07_06_16_23_51.277,3.867,50.7,0,0.773,0,0,0,0, ,0,0,0,0,0, ,605.7,-226.4,-766.9,-0.1,-1.4,-1.9,25,602.94,-228.482,-760.613,-0.57491,-1.22158,-1.88596,
2026_07_06_16_23_51.298,3.867,50.7,0,0.775,0,0,0,0, ,0,0,0,0,0, ,606.6,-223.5,-763.1,-0.2,-0.1,-1.3,25,603.135,-228.267,-760.88,-0.549017,-1.19285,-1.86854,
2026_07_06_16_23_51.321,3.867,50.7,0,0.773,0,0,0,0, ,0,0,0,0,0, ,605.3,-224.7,-759.2,-1.3,0,-1.9,25,603.307,-228.013,-760.897,-0.561265,-1.1232,-1.85217,
2026_07_06_16_23_51.338,3.867,50.7,0,0.773,0,0,0,0, ,0,0,0,0,0, ,601.5,-230.7,-762.9,-0.4,-0.2,-1.6,25,603.313,-227.994,-760.906,-0.578859,-1.06085,-1.84595,
2026_07_06_16_23_51.357,3.867,50.7,0,0.773,0,0,0,0, ,0,0,0,0,0, ,601.5,-234.6,-761.7,1,-1.3,-0.8,25,603.202,-228.277,-760.991,-0.525304,-1.04191,-1.80658,
2026_07_06_16_23_51.377,3.867,50.7,0,0.775,0,0,0,0, ,0,0,0,0,0, ,595.8,-225.7,-762.8,1.3,-1.3,-0.9,25,602.925,-228.391,-761.068,-0.423215,-1.05764,-1.74829,
2026_07_06_16_23_51.397,3.867,50.6,0,0.773,0,0,0,0, ,0,0,0,0,0, ,596.6,-224.4,-753.1,-0.7,-1.3,-1.8,25,602.515,-228.188,-760.878,-0.379144,-1.07241,-1.72402,
2026_07_06_16_23_51.416,3.867,50.6,0,0.775,0,0,0,0, ,0,0,0,0,0, ,598.9,-228.1,-763.9,-1.3,-1.4,-2,25,602.225,-228.07,-760.733,-0.416978,-1.08932,-1.73474,
2026_07_06_16_23_51.435,3.867,50.7,0,0.775,0,0,0,0, ,0,0,0,0,0, ,601.6,-233.2,-764.8,-0.8,-0.8,-1.5,25,602.104,-228.227,-760.953,-0.455552,-1.08997,-1.73567,
2026_07_06_16_23_51.456,3.867,50.7,0,0.773,0,0,0,0, ,0,0,0,0,0, ,598.3,-230.8,-764.4,0.3,-0.5,-1.8,25,601.973,-228.457,-761.175,-0.443027,-1.06316,-1.73045,
2026_07_06_16_23_51.476,3.867,50.7,0,0.773,0,0,0,0, ,0,0,0,0,0, ,595.3,-223.7,-759.6,-0.5,-1.7,-2.1,25,601.658,-228.383,-761.226,-0.422123,-1.06541,-1.74383,
2026_07_06_16_23_51.495,3.867,50.7,0,0.775,0,0,0,0, ,0,0,0,0,0, ,599.3,-220.2,-766.8,-1.3,-1.7,-2.2,25,601.392,-227.991,-761.346,-0.451244,-1.10408,-1.76858,
2026_07_06_16_23_51.515,3.867,50.6,0,0.772,0,0,0,0, ,0,0,0,0,0, ,605.5,-226,-761.5,-2.4,-0.8,-2.1,25,601.454,-227.693,-761.517,-0.536481,-1.11297,-1.79183,
2026_07_06_16_23_51.534,3.867,50.7,0,0.775,0,0,0,0, ,0,0,0,0,0, ,606.4,-229.4,-765.9,-1.9,0,-1.6,25,601.728,-227.694,-761.65,-0.634804,-1.06952,-1.79537,
2026_07_06_16_23_51.554,3.867,50.7,0,0.775,0,0,0,0, ,0,0,0,0,0, ,602.2,-237.9,-766.6,0.2,-0.4,-0.9,25,601.884,-228.057,-761.93,-0.647918,-1.01654,-1.76214,
2026_07_06_16_23_51.575,3.867,50.6,0,0.772,0,0,0,0, ,0,0,0,0,0, ,590.8,-229.7,-764.5,0.9,-1.1,-1.1,25,601.556,-228.407,-762.151,-0.57492,-1.00029,-1.71569,
2026_07_06_16_23_51.594,3.867,50.7,0,0.773,0,0,0,0, ,0,0,0,0,0, ,593.6,-227.7,-761.3,-0.2,-1.4,-1.8,25,600.986,-228.424,-762.196,-0.518558,-1.01551,-1.6995,
2026_07_06_16_23_51.614,3.867,50.6,0,0.774,0,0,0,0, ,0,0,0,0,0, ,596.9,-221.8,-758.6,-1.9,-1.2,-2.4,25,600.637,-228.201,-762.06,-0.550942,-1.03285,-1.72391,
2026_07_06_16_23_51.634,3.867,50.6,0,0.772,0,0,0,0, ,0,0,0,0,0, ,597.2,-228.6,-762.5,-2.3,-0.8,-2.7,25,600.418,-228.018,-761.968,-0.645338,-1.03085,-1.77425,
2026_07_06_16_23_51.654,3.867,50.4,0,0.775,0,0,0,0, ,0,0,0,0,0, ,594.2,-233.6,-763.4,-0.9,-1.6,-2.8,25,600.131,-228.206,-762.027,-0.703513,-1.04115,-1.83371,
2026_07_06_16_23_51.673,3.867,50.6,0,0.773,0,0,0,0, ,0,0,0,0,0, ,598.2,-225.8,-769.7,0.5,-2.7,-2.1,25,599.891,-228.297,-762.303,-0.67283,-1.10872,-1.87126,
2026_07_06_16_23_51.693,3.867,50.6,0,0.773,0,0,0,0, ,0,0,0,0,0, ,603.5,-220.2,-769.2,-0.1,-2.2,-2,25,599.949,-227.974,-762.739,-0.619642,-1.19046,-1.88216,
2026_07_06_16_23_51.713,3.867,50.6,0,0.775,0,0,0,0, ,0,0,0,0,0, ,603.2,-219.9,-767.3,-1.5,0,-1.8,25,600.157,-227.491,-763.074,-0.630632,-1.18495,-1.88324,
2026_07_06_16_23_51.731,3.867,50.4,0,0.775,0,0,0,0, ,0,0,0,0,0, ,600.8,-230.5,-755.9,-0.6,-1,0,25,600.269,-227.351,-762.985,-0.656188,-1.14321,-1.82333,
2026_07_06_16_23_51.753,3.867,50.6,0,0.773,0,0,0,0, ,0,0,0,0,0, ,597.4,-233.1,-762.8,-0.3,-1.8,-1.3,25,600.198,-227.622,-762.763,-0.643623,-1.15885,-1.75183,
2026_07_06_16_23_51.772,3.867,50.4,0,0.773,0,0,0,0, ,0,0,0,0,0, ,593.5,-228.8,-765.7,-0.1,-1.7,-2.1,25,599.908,-227.825,-762.854,-0.61659,-1.19488,-1.74867,
2026_07_06_16_23_51.792,3.867,50.6,0,0.773,0,0,0,0, ,0,0,0,0,0, ,596,-225,-765.2,0.6,-2.4,-1.8,25,599.594,-227.769,-763.012,-0.563782,-1.24699,-1.76094,
2026_07_06_16_23_51.812,3.867,50.4,0,0.773,0,0,0,0, ,0,0,0,0,0, ,600.7,-217.6,-764,-0.4,-2.7,-1.1,25,599.518,-227.375,-763.109,-0.523333,-1.32639,-1.74199,
2026_07_06_16_23_51.831,3.867,50.4,0,0.775,0,0,0,0, ,0,0,0,0,0, ,600.4,-216.7,-761.8,0.5,-2,-0.4,25,599.581,-226.752,-763.096,-0.488395,-1.38877,-1.68154,
2026_07_06_16_23_51.852,3.867,50.4,0,0.775,0,0,0,0, ,0,0,0,0,0, ,596.9,-230.1,-769.2,-2.1,-0.9,-1.7,25,599.524,-226.547,-763.242,-0.507384,-1.3925,-1.64306,
2026_07_06_16_23_51.870,3.867,50.3,0,0.775,0,0,0,0, ,0,0,0,0,0, ,594.6,-229.2,-767.2,-2.3,-0.8,-2.2,25,599.294,-226.736,-763.545,-0.610527,-1.35944,-1.66176,
2026_07_06_16_23_51.897,3.867,50.4,0,0.773,0,0,0,0, ,0,0,0,0,0, ,594.3,-235.2,-771.2,-0.9,-1.5,-1.4,25,598.999,-227.069,-763.889,-0.670823,-1.34668,-1.67018,
2026_07_06_16_23_51.911,3.867,50.4,0,0.773,0,0,0,0, ,0,0,0,0,0, ,593.8,-224.3,-770.7,-0.1,-2.7,-0.9,25,598.698,-227.233,-764.319,-0.660414,-1.39258,-1.63849,
2026_07_06_16_23_51.931,3.867,50.4,0,0.773,0,0,0,0, ,0,0,0,0,0, ,596.8,-225.8,-761.5,-0.3,-1.6,-0.8,25,598.491,-227.1,-764.428,-0.632357,-1.43874,-1.59044,
2026_07_06_16_23_51.951,3.867,50.4,0,0.772,0,0,0,0, ,0,0,0,0,0, ,589.9,-224.1,-765.7,-1.4,-0.4,-1.8,25,598.177,-226.969,-764.377,-0.64562,-1.412,-1.57274,
2026_07_06_16_23_51.970,3.867,50.4,0,0.775,0,0,0,0, ,0,0,0,0,0, ,588.1,-227.9,-761.9,-1.8,-0.6,-2.4,25,597.618,-226.91,-764.342,-0.703778,-1.35643,-1.60487,
2026_07_06_16_23_51.990,3.867,50.3,0,0.775,0,0,0,0, ,0,0,0,0,0, ,587.4,-226.3,-769,-1.8,-2.2,-2.6,25,597.017,-226.921,-764.41,-0.770579,-1.35908,-1.65942,
2026_07_06_16_23_52.009,3.867,50.3,0,0.775,0,0,0,0, ,0,0,0,0,0, ,594.1,-225.5,-769.7,0.6,-3.6,-0.6,25,596.635,-226.859,-764.711,-0.760184,-1.45298,-1.65579,
2026_07_06_16_23_52.030,3.867,50.4,0,0.775,0,0,0,0, ,0,0,0,0,0, ,601.9,-223.1,-777.2,0.5,-2.9,-0.3,25,596.718,-226.703,-765.243,-0.680345,-1.56249,-1.58232,
2026_07_06_16_23_52.049,3.867,50.4,0,0.775,0,0,0,0, ,0,0,0,0,0, ,592.8,-225.9,-779.1,-0.9,-0.2,-1.2,25,596.757,-226.569,-766.03,-0.651074,-1.56173,-1.5316,
2026_07_06_16_23_52.070,3.867,50.3,0,0.773,0,0,0,0, ,0,0,0,0,0, ,592,-227.6,-768.7,-1.5,0.3,-2.8,25,596.491,-226.58,-766.509,-0.684524,-1.46351,-1.56014,
2026_07_06_16_23_52.094,3.867,50.3,0,0.773,0,0,0,0, ,0,0,0,0,0, ,589.4,-234.8,-771.7,-0.5,-1.4,-2,25,596.138,-226.861,-766.734,-0.703748,-1.40784,-1.61132,
2026_07_06_16_23_52.108,3.867,50.3,0,0.776,0,0,0,0, ,0,0,0,0,0, ,594.6,-232.6,-768.9,0.8,-1.9,-1.4,25,595.886,-227.278,-766.952,-0.651723,-1.4226,-1.61672,
2026_07_06_16_23_52.129,3.867,50.4,0,0.773,0,0,0,0, ,0,0,0,0,0, ,590.5,-227.7,-765.9,0.4,-0.9,-1.3,25,595.683,-227.453,-766.979,-0.575446,-1.42122,-1.60047,
2026_07_06_16_23_52.149,3.867,50.2,0,0.773,0,0,0,0, ,0,0,0,0,0, ,590.9,-227.1,-763.9,-0.7,1,-2.1,25,595.379,-227.45,-766.852,-0.54952,-1.33157,-1.60654,
2026_07_06_16_23_52.168,3.867,50.3,0,0.775,0,0,0,0, ,0,0,0,0,0, ,596.3,-215.8,-760.4,-2.7,4.7,-3.2,25,595.271,-227.084,-766.566,-0.619628,-1.07676,-1.67012,
2026_07_06_16_23_52.189,3.867,50.3,0,0.775,0,0,0,0, ,0,0,0,0,0, ,612.9,-207.8,-760.6,-7.6,12.7,-6.1,25,595.839,-226.153,-766.196,-0.895697,-0.480985,-1.85171,
2026_07_06_16_23_52.207,3.867,50.3,0,0.775,0,0,0,0, ,0,0,0,0,0, ,631.1,-209.3,-762.8,-14.8,29.2,-11.1,25,597.433,-225.08,-765.922,-1.52362,0.824965,-2.26293,
2026_07_06_16_23_52.227,3.867,50.2,0,0.775,0,0,0,0, ,0,0,0,0,0, ,636.5,-220.3,-771.1,-27.2,47.1,-20,25,599.649,-224.454,-765.985,-2.71046,3.09946,-3.07261,
2026_07_06_16_23_52.247,3.867,50.2,0,0.775,0,0,0,0, ,0,0,0,0,0, ,645.5,-206.5,-745.4,-31.4,64.7,-24.7,25,602.169,-223.78,-765.513,-4.33076,6.31699,-4.24733,
2026_07_06_16_23_52.267,3.867,50.3,0,0.773,0,0,0,0, ,0,0,0,0,0, ,643.4,-199.3,-755,-38,80.4,-30.3,25,604.746,-222.508,-764.58,-6.18138,10.3531,-5.66429,
2026_07_06_16_23_52.287,3.867,50.3,0,0.772,0,0,0,0, ,0,0,0,0,0, ,676.6,-183.5,-740.1,-44.3,95.5,-34,25,608.113,-220.612,-763.542,-8.31228,15.0816,-7.27826,
2026_07_06_16_23_52.306,3.867,50.2,0,0.775,0,0,0,0, ,0,0,0,0,0, ,727.6,-146.6,-734.7,-57.8,119.1,-42.4,25,613.84,-217.226,-761.949,-10.9166,20.7012,-9.16255,
2026_07_06_16_23_52.327,3.867,50.3,0,0.775,0,0,0,0, ,0,0,0,0,0, ,743.2,-148.4,-694,-67.2,141.3,-50.2,25,621.248,-212.977,-759.049,-14.06,27.3738,-11.4256,
2026_07_06_16_23_52.346,3.867,50.2,0,0.775,0,0,0,0, ,0,0,0,0,0, ,767.4,-104.8,-640.2,-71.4,149,-58.9,25,629.416,-207.714,-753.446,-17.4262,34.5508,-14.0535,
2026_07_06_16_23_52.366,3.867,50.3,0,0.774,0,0,0,0, ,0,0,0,0,0, ,798.3,-56.5,-594.1,-71,150.2,-60.6,25,638.766,-199.971,-745.14,-20.703,41.5616,-16.8381,
2026_07_06_16_23_52.385,3.867,50.2,0,0.775,0,0,0,0, ,0,0,0,0,0, ,830,-43.2,-567.2,-69.4,140.6,-58,25,649.454,-190.823,-735.117,-23.7192,47.8892,-19.4257,
2026_07_06_16_23_52.406,3.867,50.3,0,0.775,0,0,0,0, ,0,0,0,0,0, ,882.3,-10.4,-520.9,-70.9,143.7,-61,25,662.049,-180.828,-723.473,-26.5486,53.6332,-21.8677,
2026_07_06_16_23_52.424,3.867,50.3,0,0.773,0,0,0,0, ,0,0,0,0,0, ,903.5,17.3,-460.8,-74.6,151,-66.3,25,676.117,-169.598,-709.298,-29.364,59.3441,-24.4138,
2026_07_06_16_23_52.446,3.867,50.2,0,0.775,0,0,0,0, ,0,0,0,0,0, ,929.5,75.6,-392.3,-75.3,156,-70.7,25,690.765,-156.433,-692.068,-32.1419,65.0817,-27.1003,
2026_07_06_16_23_52.466,3.867,50.2,0,0.775,0,0,0,0, ,0,0,0,0,0, ,921.3,115.6,-349.7,-75.8,154.1,-69.9,25,705.063,-141.075,-672.503,-34.7871,70.5642,-29.7328,
2026_07_06_16_23_52.484,3.867,50.2,0,0.772,0,0,0,0, ,0,0,0,0,0, ,951.2,119.9,-322.9,-72,141.7,-66.8,25,719.151,-125.302,-652.016,-37.1705,75.2768,-32.086,
2026_07_06_16_23_52.505,3.867,50.2,0,0.775,0,0,0,0, ,0,0,0,0,0, ,977.4,134.5,-305.2,-70.9,141.1,-65.7,25,734.09,-109.916,-631.421,-39.2594,79.3062,-34.1679,
2026_07_06_16_23_52.523,3.867,50.2,0,0.773,0,0,0,0, ,0,0,0,0,0, ,999.6,160.6,-252.4,-70.3,148.3,-65.8,25,749.593,-94.2263,-609.933,-41.1692,83.2911,-36.0924,
2026_07_06_16_23_52.544,3.867,50.1,0,0.774,0,0,0,0, ,0,0,0,0,0, ,965.4,167.2,-162.7,-66.8,158.1,-67.4,25,763.786,-78.4967,-585.413,-42.8378,87.5512,-37.9515,
2026_07_06_16_23_52.564,3.867,50.2,0,0.775,0,0,0,0, ,0,0,0,0,0, ,941.5,228.7,-100.4,-60.4,156.4,-68.2,25,775.343,-61.6508,-557.755,-44.103,91.7985,-39.7704,
2026_07_06_16_23_52.584,3.867,50.2,0,0.773,0,0,0,0, ,0,0,0,0,0, ,994.6,271.1,-88.7,-67.7,153.9,-68.4,25,787.087,-42.6656,-529.529,-45.3185,95.659,-41.5089,
2026_07_06_16_23_52.603,3.867,50.2,0,0.775,0,0,0,0, ,0,0,0,0,0, ,1017.3,283.6,-58.1,-81.5,168.3,-72.6,25,800.423,-23.1647,-501.734,-47.1028,99.6468,-43.2755,
2026_07_06_16_23_52.623,3.867,50.1,0,0.775,0,0,0,0, ,0,0,0,0,0, ,966.3,257.6,28.4,-87.6,184.8,-76.2,25,812.086,-5.2634,-472.064,-49.3848,104.333,-45.1722,
2026_07_06_16_23_52.643,3.867,50.2,0,0.775,0,0,0,0, ,0,0,0,0,0, ,889.2,248.5,129.7,-79.8,189.6,-77.8,25,819.134,10.4776,-438.481,-51.4758,109.383,-47.1117,
2026_07_06_16_23_52.662,3.867,50.1,0,0.774,0,0,0,0, ,0,0,0,0,0, ,847.2,307.3,201,-72.7,188.2,-80.9,25,822.124,26.7736,-401.685,-52.9855,114.228,-49.0762,
2026_07_06_16_23_52.683,3.867,50.1,0,0.773,0,0,0,0, ,0,0,0,0,0, ,814.3,318.7,277.7,-69.3,184.9,-76.5,25,822.649,44.2155,-362.622,-54.0833,118.635,-50.8814,
2026_07_06_16_23_52.704,3.867,50.1,0,0.774,0,0,0,0, ,0,0,0,0,0, ,748.4,306.1,339.1,-63.4,180.6,-72.6,25,820.133,60.558,-321.731,-54.8308,122.542,-52.3237,
2026_07_06_16_23_52.722,3.867,50.1,0,0.774,0,0,0,0, ,0,0,0,0,0, ,692.2,292.6,404,-57.4,172.1,-77.3,25,814.049,75.1094,-279.484,-55.1702,125.821,-53.7025,
2026_07_06_16_23_52.741,3.867,50.1,0,0.774,0,0,0,0, ,0,0,0,0,0, ,693.9,350.9,443.8,-47.6,155.9,-72.6,25,806.676,90.1391,-236.622,-55.0074,128.148,-54.9973,
2026_07_06_16_23_52.762,3.867,50.1,0,0.776,0,0,0,0, ,0,0,0,0,0, ,696,362.6,476.5,-39.3,139.2,-64.7,25,799.868,106.386,-194.162,-54.3032,129.33,-55.8292,
2026_07_06_16_23_52.782,3.867,50.1,0,0.775,0,0,0,0, ,0,0,0,0,0, ,682.4,377.8,518,-38.5,129.8,-61.4,25,793.124,122.462,-152.029,-53.3645,129.645,-56.2693,
2026_07_06_16_23_52.801,3.867,50,0,0.774,0,0,0,0, ,0,0,0,0,0, ,626.5,366,558.3,-35.1,131.1,-64.3,25,784.673,137.662,-109.972,-52.3551,129.694,-56.6703,
2026_07_06_16_23_52.820,3.867,50.1,0,0.774,0,0,0,0, ,0,0,0,0,0, ,600.5,395.7,606.4,-26.9,115.4,-62.4,25,774.242,152.481,-67.7833,-51.0538,129.302,-57.0773,
2026_07_06_16_23_52.841,3.867,50,0,0.772,0,0,0,0, ,0,0,0,0,0, ,618.5,431.1,622.5,-17.8,95.8,-49.8,25,764.203,168.381,-26.2097,-49.3047,127.857,-57.0178,
2026_07_06_16_23_52.860,3.867,50.1,0,0.775,0,0,0,0, ,0,0,0,0,0, ,598.5,448.3,649.4,-10.8,87.3,-34.5,25,754.715,184.914,14.1406,-47.1716,125.645,-56.1118,
2026_07_06_16_23_52.881,3.867,50,0,0.774,0,0,0,0, ,0,0,0,0,0, ,497.9,405.7,680.9,-4.4,99.4,-21.5,25,742.131,199.667,53.8115,-44.7602,123.677,-54.3987,
2026_07_06_16_23_52.900,3.867,50,0,0.774,0,0,0,0, ,0,0,0,0,0, ,457.5,397.3,739.6,11.7,59.4,-18.3,25,726.017,211.966,93.8132,-41.8102,120.979,-52.2964,
2026_07_06_16_23_52.920,3.867,50,0,0.774,0,0,0,0, ,0,0,0,0,0, ,508.3,465.2,722.7,15.4,38.4,-15.1,25,711.202,225.328,132.651,-38.4367,116.586,-50.1273,
2026_07_06_16_23_52.941,3.867,50,0,0.775,0,0,0,0, ,0,0,0,0,0, ,501.7,470.7,727.5,11.5,32.8,-13.3,25,698.637,240.113,168.753,-35.2748,111.651,-47.938,
2026_07_06_16_23_52.959,3.867,50,0,0.774,0,0,0,0, ,0,0,0,0,0, ,485.3,448.7,723.8,8.5,30.6,-19,25,686.136,253.494,202.689,-32.5159,106.779,-46.0009,
2026_07_06_16_23_52.980,3.867,49.9,0,0.774,0,0,0,0, ,0,0,0,0,0, ,466.7,448.3,746.8,17.5,24.5,-21.8,25,673.331,265.377,235.145,-29.7423,101.951,-44.4408,
2026_07_06_16_23_52.999,3.867,50,0,0.774,0,0,0,0, ,0,0,0,0,0, ,476.1,485.7,771.8,27.7,12.4,-19.8,25,661.026,277.664,267.086,-26.5527,96.8629,-43.0002,
2026_07_06_16_23_53.019,3.867,50.1,0,0.774,0,0,0,0, ,0,0,0,0,0, ,514.5,570.5,773,26.2,7.3,-14.1,25,650.927,292.925,297.878,-23.2923,91.5605,-41.4128,
2026_07_06_16_23_53.039,3.867,49.9,0,0.774,0,0,0,0, ,0,0,0,0,0, ,514,579.7,775,12.2,17.4,-11.9,25,642.598,310.12,326.892,-20.703,86.7336,-39.6814,
2026_07_06_16_23_53.059,3.867,50,0,0.774,0,0,0,0, ,0,0,0,0,0, ,467.6,538.3,788.8,6.7,19.1,-12.8,25,633.348,325.286,354.619,-18.8655,82.5604,-38.0159,
2026_07_06_16_23_53.078,3.867,50,0,0.774,0,0,0,0, ,0,0,0,0,0, ,458.4,541.3,795.2,13.1,3.7,-5.7,25,622.967,338.358,381.272,-17.1126,78.2241,-36.2629,
2026_07_06_16_23_53.098,3.867,49.9,0,0.774,0,0,0,0, ,0,0,0,0,0, ,474.2,569.3,781.7,13.3,-7.1,0,25,613.42,351.578,406.084,-15.2654,73.3537,-34.2268,
2026_07_06_16_23_53.123,3.867,49.9,0,0.774,0,0,0,0, ,0,0,0,0,0, ,494.5,579.8,764.8,0.7,-1.3,-1.7,25,605.555,365.165,428.459,-13.9086,68.6278,-32.1929,
2026_07_06_16_23_53.137,3.867,50,0,0.773,0,0,0,0, ,0,0,0,0,0, ,475.2,535,745.4,-8.6,6.2,-4.1,25,598.2,376.879,448.363,-13.3018,64.5951,-30.4079,
2026_07_06_16_23_53.158,3.867,49.9,0,0.772,0,0,0,0, ,0,0,0,0,0, ,471.4,516.1,736.3,-8,5.2,-3.6,25,590.589,385.939,466.187,-12.997,61.0061,-28.7895,
2026_07_06_16_23_53.177,3.867,50,0,0.774,0,0,0,0, ,0,0,0,0,0, ,454.8,497.5,734.1,-0.1,-2.5,1.4,25,582.82,393.304,482.58,-12.4518,57.3708,-27.1022,
2026_07_06_16_23_53.197,3.867,49.9,0,0.774,0,0,0,0, ,0,0,0,0,0, ,450.5,507.9,734.2,6.8,-13,7.1,25,574.888,399.97,497.91,-11.4889,53.4025,-25.1917,
2026_07_06_16_23_53.217,3.867,49.9,0,0.772,0,0,0,0, ,0,0,0,0,0, ,463.9,514.5,717.2,0.1,-10.2,3.6,25,567.716,406.748,511.791,-10.5785,49.4415,-23.3305,
2026_07_06_16_23_53.237,3.867,49.9,0,0.774,0,0,0,0, ,0,0,0,0,0, ,473.6,493.5,700,-8.1,0.3,-2.4,25,561.685,412.675,523.784,-10.1776,46.127,-21.8723,
2026_07_06_16_23_53.257,3.867,49.8,0,0.774,0,0,0,0, ,0,0,0,0,0, ,466,471,689,-5.6,4.8,-3.7,25,556.086,416.914,534.187,-9.97487,43.4715,-20.7253,
2026_07_06_16_23_53.276,3.867,49.9,0,0.772,0,0,0,0, ,0,0,0,0,0, ,456.4,467.5,710,2.5,-0.5,0.4,25,550.304,420.104,544.261,-9.46148,40.9535,-19.5629,
2026_07_06_16_23_53.297,3.867,49.9,0,0.774,0,0,0,0, ,0,0,0,0,0, ,448.2,485.5,723.6,8.2,-8.7,4.3,25,544.332,423.54,554.775,-8.55891,38.1776,-18.2276,
2026_07_06_16_23_53.316,3.867,49.9,0,0.775,0,0,0,0, ,0,0,0,0,0, ,463.9,509.7,711.9,3.8,-8.3,1.2,25,538.952,428.053,564.706,-7.67172,35.3331,-16.9493,
2026_07_06_16_23_53.336,3.867,49.9,0,0.774,0,0,0,0, ,0,0,0,0,0, ,489.3,512.4,695.8,-2.1,1.6,-1.9,25,535.153,433.111,573.185,-7.15243,32.9759,-15.9377,
2026_07_06_16_23_53.355,3.867,49.8,0,0.774,0,0,0,0, ,0,0,0,0,0, ,480.1,492.7,707.7,0.5,5.4,-1.2,25,532.078,437.342,581.02,-6.76533,31.1797,-15.061,
2026_07_06_16_23_53.375,3.867,49.9,0,0.774,0,0,0,0, ,0,0,0,0,0, ,457.1,492.4,728.7,8.3,-1.9,3,25,528.21,440.707,589.379,-6.08494,29.3863,-14.0884,
2026_07_06_16_23_53.396,3.867,49.8,0,0.774,0,0,0,0, ,0,0,0,0,0, ,464.3,521.2,742.7,13.4,-13.6,8.4,25,524.096,444.734,598.295,-5.05297,27.1233,-12.8825,
2026_07_06_16_23_53.414,3.867,49.8,0,0.774,0,0,0,0, ,0,0,0,0,0, ,486.4,535.1,730.7,9,-16.1,9,25,521.126,449.817,606.729,-4.06255,24.5656,-11.5673,
2026_07_06_16_23_53.435,3.867,50,0,0.772,0,0,0,0, ,0,0,0,0,0, ,496,519.8,718.3,6,-13.8,8.7,25,519.302,454.548,613.906,-3.35796,22.1576,-10.3231,
2026_07_06_16_23_53.455,3.867,49.8,0,0.774,0,0,0,0, ,0,0,0,0,0, ,491.3,504.6,712.6,9.9,-14.5,9.5,25,517.739,458.061,620.094,-2.66888,19.9451,-9.13955,
2026_07_06_16_23_53.475,3.867,49.9,0,0.775,0,0,0,0, ,0,0,0,0,0, ,485.2,510,726.8,18.8,-22.6,13.8,25,515.942,461.062,626.164,-1.63179,17.5993,-7.87269,
2026_07_06_16_23_53.494,3.867,49.8,0,0.772,0,0,0,0, ,0,0,0,0,0, ,493.7,537.2,731.9,24.9,-34.9,20.1,25,514.327,464.873,632.452,-0.200872,14.7749,-6.36005,
2026_07_06_16_23_53.514,3.867,49.8,0,0.774,0,0,0,0, ,0,0,0,0,0, ,512.4,544,714.5,24.6,-46.9,22.6,25,513.64,469.487,637.982,1.31957,11.3822,-4.67147,
2026_07_06_16_23_53.533,3.867,49.8,0,0.774,0,0,0,0, ,0,0,0,0,0, ,566.1,563.5,684.9,21.8,-53.6,26.5,25,515.201,474.622,641.743,2.65291,7.6265,-2.89079,
2026_07_06_16_23_53.560,3.867,49.8,0,0.774,0,0,0,0, ,0,0,0,0,0, ,623.6,579.4,666.9,19.3,-52,35.1,25,520.054,480.522,643.824,3.74351,3.94426,-0.837756,
2026_07_06_16_23_53.573,3.867,49.7,0,0.773,0,0,0,0, ,0,0,0,0,0, ,623.9,565.3,673.4,18.6,-57,42.6,25,526.373,486.118,645.428,4.67016,0.382816,1.58072,
2026_07_06_16_23_53.592,3.867,49.9,0,0.772,0,0,0,0, ,0,0,0,0,0, ,615.8,543,658.9,21.9,-71.8,48.7,25,532.07,490.264,646.691,5.61956,-3.56489,4.26619,
2026_07_06_16_23_53.612,3.867,49.7,0,0.774,0,0,0,0, ,0,0,0,0,0, ,605.8,509.2,637.5,29.4,-95.8,52.4,25,536.867,492.448,646.783,6.84016,-8.45421,7.08661,
2026_07_06_16_23_53.633,3.867,49.8,0,0.772,0,0,0,0, ,0,0,0,0,0, ,649.4,502,579.7,43.6,-121.7,56.7,25,542.396,493.249,644.456,8.64756,-14.566,9.97891,
2026_07_06_16_23_53.653,3.867,49.7,0,0.774,0,0,0,0, ,0,0,0,0,0, ,706.2,559.3,524,41.2,-131.6,74.9,25,550.647,495.528,638.813,10.7043,-21.3961,13.3805,
2026_07_06_16_23_53.672,3.867,49.7,0,0.775,0,0,0,0, ,0,0,0,0,0, ,724.4,521.9,490.6,36.9,-138.3,87.5,25,560.681,498.275,630.799,12.4317,-28.3158,17.5133,
2026_07_06_16_23_53.692,3.867,49.7,0,0.774,0,0,0,0, ,0,0,0,0,0, ,730.3,438.5,452.1,41.8,-158,91.5,25,570.837,497.173,621.082,14.072,-35.6182,21.8999,
2026_07_06_16_23_53.711,3.867,49.7,0,0.772,0,0,0,0, ,0,0,0,0,0, ,717.5,361.8,387.8,63.3,-181.2,87.5,25,580.165,491.261,608.826,16.4167,-43.7827,26.0193,
2026_07_06_16_23_53.732,3.867,49.7,0,0.772,0,0,0,0, ,0,0,0,0,0, ,736.2,357.7,300.9,88.6,-206.9,83.5,25,589.103,483.247,592.709,20.0446,-52.9396,29.6439,
2026_07_06_16_23_53.752,3.867,49.7,0,0.775,0,0,0,0, ,0,0,0,0,0, ,808.8,377.4,218.6,101.4,-219.3,92.7,25,600.279,476.197,572.42,24.6122,-62.6994,33.2061,
2026_07_06_16_23_53.771,3.867,49.7,0,0.771,0,0,0,0, ,0,0,0,0,0, ,856.4,373.5,130.3,104.6,-223.4,96.7,25,614.436,470.058,548.168,29.3889,-72.3672,36.9534,
2026_07_06_16_23_53.792,3.867,49.7,0,0.772,0,0,0,0, ,0,0,0,0,0, ,878,321.7,64.8,104.3,-218.6,92.8,25,629.839,462.595,520.709,33.9629,-81.4245,40.4754,
2026_07_06_16_23_53.810,3.867,49.7,0,0.774,0,0,0,0, ,0,0,0,0,0, ,845.8,283.8,-2.4,103.3,-216.3,79.7,25,643.98,452.855,490.879,38.2186,-89.7135,43.2648,
2026_07_06_16_23_53.830,3.867,49.7,0,0.772,0,0,0,0, ,0,0,0,0,0, ,835.5,276.2,-36.3,101.6,-218.2,71.2,25,655.965,442.321,459.787,42.1327,-97.4853,45.226,
2026_07_06_16_23_53.850,3.867,49.8,0,0.774,0,0,0,0, ,0,0,0,0,0, ,876.4,311.8,-105.8,86.8,-221.5,69.8,25,668.151,433.283,427.439,45.3056,-104.942,46.7662,
2026_07_06_16_23_53.870,3.867,49.7,0,0.772,0,0,0,0, ,0,0,0,0,0, ,926,314.6,-177.6,79.2,-215.7,91.6,25,682.353,425.965,392.758,47.6026,-111.868,48.834,
2026_07_06_16_23_53.891,3.867,49.7,0,0.774,0,0,0,0, ,0,0,0,0,0, ,918.3,239.8,-268.5,76.8,-211.2,107.8,25,696.965,416.9,355.232,49.4549,-118.058,51.9337,
2026_07_06_16_23_53.910,3.867,49.6,0,0.774,0,0,0,0, ,0,0,0,0,0, ,873.1,142.8,-356,81.3,-204.7,110.4,25,709.076,403.153,314.557,51.2584,-123.536,55.4172,
2026_07_06_16_23_53.930,3.867,49.6,0,0.774,0,0,0,0, ,0,0,0,0,0, ,823.9,69.5,-418.7,80.9,-202.4,103.2,25,717.572,385.054,271.785,53.0769,-128.412,58.5484,
2026_07_06_16_23_53.949,3.867,49.7,0,0.773,0,0,0,0, ,0,0,0,0,0, ,780.2,23.5,-467.6,82.9,-202,101,25,722.72,364.423,228.218,54.8333,-132.908,61.2023,
2026_07_06_16_23_53.969,3.867,49.6,0,0.772,0,0,0,0, ,0,0,0,0,0, ,742.3,-0.9,-514,85.3,-207.6,103.7,25,725.068,342.905,184.403,56.6167,-137.289,63.7097,
2026_07_06_16_23_53.989,3.867,49.6,0,0.771,0,0,0,0, ,0,0,0,0,0, ,725.5,-48.3,-581.5,89.2,-210.8,102.5,25,725.606,320.51,139.788,58.4834,-141.671,66.1101,
2026_07_06_16_23_54.009,3.867,49.7,0,0.774,0,0,0,0, ,0,0,0,0,0, ,708.1,-105.4,-666.9,85.5,-199,95,25,725.069,296.296,93.2321,60.2425,-145.524,68.0991,
2026_07_06_16_23_54.029,3.867,49.6,0,0.775,0,0,0,0, ,0,0,0,0,0, ,674.1,-146.3,-723.6,70.6,-171,77.4,25,722.999,270.571,45.1839,61.3276,-147.93,69.2021,
2026_07_06_16_23_54.048,3.867,49.6,0,0.772,0,0,0,0, ,0,0,0,0,0, ,669.3,-158.2,-746.2,46.7,-132.7,53.5,25,719.873,244.806,-2.35241,61.1645,-148.169,68.9735,
2026_07_06_16_23_54.068,3.867,49.5,0,0.771,0,0,0,0, ,0,0,0,0,0, ,661.1,-150.5,-779.6,20.2,-90.9,36.3,25,716.542,220.482,-48.6983,59.4756,-145.952,67.5065,
2026_07_06_16_23_54.088,3.867,49.6,0,0.774,0,0,0,0, ,0,0,0,0,0, ,644.8,-151.1,-790.4,-0.2,-54.4,28.5,25,712.666,197.857,-93.5667,56.4607,-141.486,65.3672,
2026_07_06_16_23_54.108,3.867,49.6,0,0.771,0,0,0,0, ,0,0,0,0,0, ,605.2,-176.5,-813.1,-9.9,-28.8,26.8,25,707.324,175.819,-136.722,52.7124,-135.399,63.0688,
2026_07_06_16_23_54.127,3.867,49.6,0,0.774,0,0,0,0, ,0,0,0,0,0, ,542.1,-205,-821.5,-16.7,-16.1,20.8,25,699.179,153.481,-178.194,48.6898,-128.516,60.6758,
2026_07_06_16_23_54.147,3.867,49.6,0,0.774,0,0,0,0, ,0,0,0,0,0, ,494.9,-224.2,-818.9,-19.4,-13.5,11.6,25,688.168,131.051,-217.317,44.6228,-121.586,57.9656,
2026_07_06_16_23_54.168,3.867,49.5,0,0.775,0,0,0,0, ,0,0,0,0,0, ,492.1,-227.7,-833.1,-16.4,-18.4,7.2,25,676.306,109.296,-254.408,40.8128,-115.149,55.0061,
2026_07_06_16_23_54.187,3.867,49.5,0,0.774,0,0,0,0, ,0,0,0,0,0, ,504.7,-219.1,-846,-8.2,-23.3,8.4,25,665.465,89.0226,-290.065,37.5763,-109.403,52.1295,
2026_07_06_16_23_54.207,3.867,49.5,0,0.774,0,0,0,0, ,0,0,0,0,0, ,504.7,-205,-860.9,0.3,-25.1,10.6,25,655.668,70.676,-324.397,35.0457,-104.211,49.5318,
2026_07_06_16_23_54.229,3.867,49.6,0,0.774,0,0,0,0, ,0,0,0,0,0, ,502.1,-201.9,-871.3,1.2,-24.9,7.3,25,646.389,53.9714,-357.407,32.9559,-99.3839,47.0588,
2026_07_06_16_23_54.247,3.867,49.6,0,0.775,0,0,0,0, ,0,0,0,0,0, ,511.3,-186.2,-876,-2.3,-19.6,2.4,25,637.877,38.8576,-388.865,30.9141,-94.6835,44.4867,
2026_07_06_16_23_54.266,3.867,49.6,0,0.774,0,0,0,0, ,0,0,0,0,0, ,524.6,-187.1,-877.3,-4.9,-11.2,-1,25,630.569,25.1157,-418.59,28.8109,-89.8522,41.8185,
2026_07_06_16_23_54.286,3.867,49.6,0,0.772,0,0,0,0, ,0,0,0,0,0, ,516.3,-177.8,-890.2,-8.1,-3.9,-2.1,25,623.859,12.4672,-446.935,26.6591,-84.8369,39.1757,
2026_07_06_16_23_54.307,3.867,49.5,0,0.772,0,0,0,0, ,0,0,0,0,0, ,522.7,-195,-905.7,-7.1,0.2,-2.3,25,617.499,0.34874,-474.419,24.5715,-79.7799,36.6544,
2026_07_06_16_23_54.326,3.867,49.5,0,0.775,0,0,0,0, ,0,0,0,0,0, ,525,-187.9,-900.7,-2.8,0.7,-2.3,25,611.792,-11.339,-500.548,22.7725,-74.8909,34.2806,
2026_07_06_16_23_54.345,3.867,49.5,0,0.774,0,0,0,0, ,0,0,0,0,0, ,535.1,-186.5,-887.8,-0.3,0.6,-4.9,25,606.811,-22.0555,-524.539,21.2903,-70.2876,31.9722,
2026_07_06_16_23_54.364,3.867,49.6,0,0.774,0,0,0,0, ,0,0,0,0,0, ,532.2,-159,-869.7,1.2,1.4,-4.2,25,602.353,-31.2385,-546.124,20.0204,-65.9435,29.7467,
2026_07_06_16_23_54.385,3.867,49.5,0,0.774,0,0,0,0, ,0,0,0,0,0, ,525.8,-159.6,-858,0.3,1.8,-3.3,25,597.883,-39.0422,-565.485,18.8461,-61.8276,27.7055,
2026_07_06_16_23_54.405,3.867,49.5,0,0.772,0,0,0,0, ,0,0,0,0,0, ,529.4,-176.3,-863.5,1.8,3,-1.4,25,593.6,-46.8975,-583.478,17.7617,-57.9137,25.874,
2026_07_06_16_23_54.424,3.867,49.6,0,0.774,0,0,0,0, ,0,0,0,0,0, ,529.5,-182.6,-848.5,6.4,5,-0.2,25,589.691,-54.9749,-600.085,16.9291,-54.1408,24.2485,
2026_07_06_16_23_54.444,3.867,49.5,0,0.772,0,0,0,0, ,0,0,0,0,0, ,519.8,-174.4,-826.4,6.5,5.6,-1.4,25,585.728,-62.5023,-614.549,16.2906,-50.5187,22.7221,
2026_07_06_16_23_54.464,3.867,49.5,0,0.774,0,0,0,0, ,0,0,0,0,0, ,513.6,-165.2,-814.9,0.4,7.7,-8.7,25,581.521,-69.0407,-627.108,15.5081,-47.035,21.0298,
2026_07_06_16_23_54.484,3.867,49.5,0,0.772,0,0,0,0, ,0,0,0,0,0, ,518.3,-154.6,-818.2,-3.3,7.6,-4.2,25,577.525,-74.5774,-638.653,14.4747,-43.7026,19.3552,
2026_07_06_16_23_54.502,3.867,49.4,0,0.775,0,0,0,0, ,0,0,0,0,0, ,516.6,-164.4,-816.5,-3.5,5.8,-2.6,25,573.865,-79.7524,-649.542,13.3855,-40.6312,17.9686,
2026_07_06_16_23_54.524,3.867,49.6,0,0.774,0,0,0,0, ,0,0,0,0,0, ,532.8,-183.4,-821.2,-0.3,4.7,-1.4,25,570.869,-85.4895,-659.859,12.454,-37.8353,16.7517,
2026_07_06_16_23_54.543,3.867,49.4,0,0.775,0,0,0,0, ,0,0,0,0,0, ,533.3,-179.6,-816.8,3.7,3.8,-0.4,25,568.564,-91.3402,-669.557,11.7987,-35.2707,15.6761,
2026_07_06_16_23_54.563,3.867,49.5,0,0.775,0,0,0,0, ,0,0,0,0,0, ,517,-166.9,-810.7,3.2,2.5,-2,25,565.919,-96.3316,-678.344,11.2899,-32.9295,14.6477,
2026_07_06_16_23_54.583,3.867,49.6,0,0.774,0,0,0,0, ,0,0,0,0,0, ,522.8,-169.3,-812.3,-2.5,1.2,-6,25,563.114,-100.705,-686.458,10.6233,-30.8101,13.5113,
2026_07_06_16_23_54.602,3.867,49.5,0,0.772,0,0,0,0, ,0,0,0,0,0, ,542.1,-163.6,-809.6,-2.4,1.1,-2.2,25,561.246,-104.711,-694.044,9.82664,-28.8625,12.4382,
2026_07_06_16_23_54.623,3.867,49.5,0,0.774,0,0,0,0, ,0,0,0,0,0, ,544.5,-171.3,-811.4,-0.5,0.3,-1.6,25,560.152,-108.534,-701.141,9.13947,-27.0611,11.5644,
2026_07_06_16_23_54.641,3.867,49.4,0,0.772,0,0,0,0, ,0,0,0,0,0, ,542.7,-171,-824.7,0.9,0.9,-0.8,25,559.143,-112.35,-708.265,8.59472,-25.3755,10.7866,
2026_07_06_16_23_54.664,3.867,49.4,0,0.774,0,0,0,0, ,0,0,0,0,0, ,539.4,-175.5,-823.3,1,1.5,-1.3,25,558.041,-116.061,-715.317,8.12887,-23.756,10.0653,
2026_07_06_16_23_54.682,3.867,49.5,0,0.772,0,0,0,0, ,0,0,0,0,0, ,541.7,-166.5,-818.4,0.3,1.1,-1.9,25,556.975,-119.409,-721.748,7.67313,-22.2292,9.35445,
2026_07_06_16_23_54.701,3.867,49.4,0,0.773,0,0,0,0, ,0,0,0,0,0, ,583.8,-132.3,-818.8,-5,5.9,-3,25,557.327,-121.237,-727.65,7.06234,-20.6613,8.63511,
2026_07_06_16_23_54.721,3.867,49.5,0,0.772,0,0,0,0, ,0,0,0,0,0, ,678.9,-77.2,-851.5,-38.8,41.4,-14.5,25,561.838,-120.232,-734.201,5.29745,-17.9611,7.57571,
2026_07_06_16_23_54.742,3.867,49.4,0,0.774,0,0,0,0, ,0,0,0,0,0, ,701,-120.6,-904.9,-72.8,103.9,-31.6,25,569.645,-118.932,-742.976,1.57432,-12.4395,5.70946,
2026_07_06_16_23_54.761,3.867,49.4,0,0.772,0,0,0,0, ,0,0,0,0,0, ,662.3,-152.3,-898.8,-84.7,137.9,-36.8,25,576.47,-120,-752.657,-3.32044,-4.31409,3.27747,
2026_07_06_16_23_54.780,3.867,49.3,0,0.772,0,0,0,0, ,0,0,0,0,0, ,652,-133.5,-846.4,-81,147.4,-35,25,581.386,-121.395,-759.966,-8.16677,4.64153,0.890096,
2026_07_06_16_23_54.800,3.867,49.5,0,0.772,0,0,0,0, ,0,0,0,0,0, ,729.8,-95.9,-823.1,-82.2,157.7,-35,25,588.06,-120.987,-764.523,-12.6416,13.6547,-1.29696,
2026_07_06_16_23_54.820,3.867,49.3,0,0.775,0,0,0,0, ,0,0,0,0,0, ,817.9,-57.1,-793.5,-94.1,195.5,-44.5,25,599.381,-118.276,-767.191,-17.2429,23.5842,-3.64019,
2026_07_06_16_23_54.840,3.867,49.4,0,0.771,0,0,0,0, ,0,0,0,0,0, ,819.3,-39.9,-736.3,-114.4,248.6,-64.6,25,612.74,-114.024,-767.051,-22.5449,35.6782,-6.74251,
2026_07_06_16_23_54.859,3.867,49.4,0,0.774,0,0,0,0, ,0,0,0,0,0, ,792.6,-21.4,-628.1,-120.4,250.1,-81.2,25,624.514,-108.944,-761.881,-28.3251,48.6988,-10.774,
2026_07_06_16_23_54.884,3.867,49.4,0,0.774,0,0,0,0, ,0,0,0,0,0, ,791.9,49,-538.4,-110.9,250.1,-83.2,25,634.735,-101.464,-750.995,-33.6465,60.9717,-15.1265,
2026_07_06_16_23_54.899,3.867,49.3,0,0.774,0,0,0,0, ,0,0,0,0,0, ,833.6,79.5,-449.7,-105.2,237.3,-79.7,25,645.583,-91.3656,-735.338,-38.1805,72.1067,-19.1681,
2026_07_06_16_23_54.918,3.867,49.4,0,0.772,0,0,0,0, ,0,0,0,0,0, ,902.5,117.1,-362.6,-93.5,230.6,-75.2,25,659.14,-79.8079,-715.278,-41.908,81.969,-22.7196,
2026_07_06_16_23_54.939,3.867,49.2,0,0.774,0,0,0,0, ,0,0,0,0,0, ,890.7,131.3,-261.3,-78,224.2,-73.9,25,673.61,-67.3762,-690.7,-44.5796,90.8312,-25.8781,
2026_07_06_16_23_54.958,3.867,49.3,0,0.774,0,0,0,0, ,0,0,0,0,0, ,853.7,193.8,-143.7,-56.5,202.3,-69.8,25,685.711,-53.365,-660.95,-45.9611,98.2911,-28.6795,
2026_07_06_16_23_54.977,3.867,49.4,0,0.772,0,0,0,0, ,0,0,0,0,0, ,868.7,269.4,-78.9,-50.1,176.5,-67.1,25,696.405,-36,-627.456,-46.4083,103.843,-31.103,
2026_07_06_16_23_54.998,3.867,49.2,0,0.772,0,0,0,0, ,0,0,0,0,0, ,901.2,298.5,-20.9,-56.4,165.8,-65.6,25,707.895,-16.503,-592.261,-46.8252,107.945,-33.2508,
2026_07_06_16_23_55.018,3.867,49.3,0,0.774,0,0,0,0, ,0,0,0,0,0, ,916.5,305,43.8,-60.9,163.4,-62.6,25,720.14,2.89051,-555.473,-47.5458,111.397,-35.1307,
2026_07_06_16_23_55.038,3.867,49.4,0,0.772,0,0,0,0, ,0,0,0,0,0, ,888.9,291.6,104.2,-64,165.4,-67.1,25,731.265,20.892,-517.114,-48.454,114.627,-36.9417,
2026_07_06_16_23_55.059,3.867,49.4,0,0.775,0,0,0,0, ,0,0,0,0,0, ,840.4,305.2,163.9,-62.1,162,-72.9,25,739.393,37.8027,-477.434,-49.3434,117.617,-38.9562,
2026_07_06_16_23_55.077,3.867,49.2,0,0.772,0,0,0,0, ,0,0,0,0,0, ,844.3,334.2,219.8,-56.7,142.6,-69.9,25,745.667,54.9808,-436.649,-49.9563,119.731,-40.9333,
2026_07_06_16_23_55.098,3.867,49.4,0,0.772,0,0,0,0, ,0,0,0,0,0, ,872.8,369,259.1,-55.2,136.2,-63.9,25,752.546,73.056,-395.45,-50.3215,120.929,-42.5156,
2026_07_06_16_23_55.119,3.867,49.3,0,0.772,0,0,0,0, ,0,0,0,0,0, ,868.2,383.9,281.8,-69.7,155.6,-68.2,25,759.734,91.5441,-354.871,-51.0606,122.451,-43.9497,
2026_07_06_16_23_55.137,3.867,49.3,0,0.774,0,0,0,0, ,0,0,0,0,0, ,803.9,348.5,326,-77.8,173.4,-80.2,25,764.384,108.281,-314.727,-52.4432,125.013,-45.7931,
2026_07_06_16_23_55.157,3.867,49.3,0,0.774,0,0,0,0, ,0,0,0,0,0, ,728.2,325.3,388,-63,166.1,-76.7,25,764.486,122.212,-273.794,-53.5375,127.74,-47.7831,
2026_07_06_16_23_55.176,3.867,49.3,0,0.772,0,0,0,0, ,0,0,0,0,0, ,713.6,351.5,415.8,-52.1,155.7,-70.3,25,761.83,135.386,-232.619,-53.782,129.76,-49.3503,
2026_07_06_16_23_55.197,3.867,49.3,0,0.774,0,0,0,0, ,0,0,0,0,0, ,701.1,384.6,479.9,-33.7,144,-56.3,25,758.51,149.564,-191.153,-53.1189,130.984,-50.2003,
2026_07_06_16_23_55.216,3.867,49.4,0,0.774,0,0,0,0, ,0,0,0,0,0, ,683.4,406.9,496.5,-42.4,154.1,-61,25,754.472,164.566,-149.755,-52.2006,132.085,-50.7152,
2026_07_06_16_23_55.236,3.867,49.3,0,0.775,0,0,0,0, ,0,0,0,0,0, ,627,369.5,521.3,-51.5,173.9,-71.1,25,748.423,178.194,-109.618,-51.8806,134.03,-51.6497,
2026_07_06_16_23_55.256,3.867,49.4,0,0.774,0,0,0,0, ,0,0,0,0,0, ,544,335.9,572.9,-30.1,163,-65.9,25,738.495,188.828,-69.5993,-51.2054,136.128,-52.6765,
2026_07_06_16_23_55.275,3.867,49.4,0,0.774,0,0,0,0, ,0,0,0,0,0, ,485.5,361.4,638.6,1.4,132.7,-47.6,25,724.86,198.567,-28.4452,-48.9595,136.842,-52.9247,
2026_07_06_16_23_55.295,3.867,49.3,0,0.773,0,0,0,0, ,0,0,0,0,0, ,484.1,444.2,680.1,15.6,112.3,-29.6,25,710.232,211.012,13.4673,-45.4581,135.968,-52.0518,
2026_07_06_16_23_55.315,3.867,49.2,0,0.773,0,0,0,0, ,0,0,0,0,0, ,462.2,467.6,703.2,7.1,108.6,-22.7,25,695.784,225.935,54.7941,-41.9964,134.413,-50.4734,
2026_07_06_16_23_55.334,3.867,49.3,0,0.774,0,0,0,0, ,0,0,0,0,0, ,406,422.6,726.1,4.7,95.7,-20.9,25,679.838,239.291,95.004,-39.0777,132.447,-48.7261,
2026_07_06_16_23_55.358,3.867,49.2,0,0.772,0,0,0,0, ,0,0,0,0,0, ,367.7,411.7,739.2,20.8,66.6,-11.5,25,661.984,250.129,133.861,-35.9194,129.321,-46.7441,
2026_07_06_16_23_55.374,3.867,49.2,0,0.773,0,0,0,0, ,0,0,0,0,0, ,369.5,453.1,755.4,36.7,41.5,-0.5,25,644.106,261.236,171.242,-31.9786,124.734,-44.2612,
2026_07_06_16_23_55.393,3.867,49.2,0,0.773,0,0,0,0, ,0,0,0,0,0, ,391.8,497.5,760.9,36.2,32.5,2.9,25,628.052,274.281,207.007,-27.8088,119.388,-41.4909,
2026_07_06_16_23_55.414,3.867,49.1,0,0.774,0,0,0,0, ,0,0,0,0,0, ,386.4,500.9,749.7,24.2,39.6,-3.8,25,613.491,287.987,240.418,-24.2739,114.309,-38.99,
2026_07_06_16_23_55.435,3.867,49.2,0,0.776,0,0,0,0, ,0,0,0,0,0, ,357.1,482.2,759.3,25.3,38.1,-8,25,598.759,300.391,271.745,-21.2865,109.711,-36.9736,
2026_07_06_16_23_55.453,3.867,49.2,0,0.773,0,0,0,0, ,0,0,0,0,0, ,342.8,507.2,781.3,39.6,23.6,-4.2,25,583.598,312.232,302.126,-18.0119,104.906,-35.0922,
2026_07_06_16_23_55.473,3.867,49.1,0,0.774,0,0,0,0, ,0,0,0,0,0, ,355.8,571.5,801.1,47.5,14.5,-2.4,25,569.32,326.072,331.929,-14.2605,99.6738,-33.1549,
2026_07_06_16_23_55.493,3.867,49.2,0,0.773,0,0,0,0, ,0,0,0,0,0, ,400.6,651.8,807.9,36.6,21.4,1.1,25,557.674,343.474,360.726,-10.8291,94.6937,-31.1741,
2026_07_06_16_23_55.513,3.867,49.1,0,0.773,0,0,0,0, ,0,0,0,0,0, ,384.6,651.7,818.7,19.5,34.9,0,25,547.615,362.26,388.305,-8.45986,90.6387,-29.2409,
2026_07_06_16_23_55.532,3.867,49.2,0,0.772,0,0,0,0, ,0,0,0,0,0, ,342.5,616.6,846,15.9,34.1,-1.1,25,536.398,378.828,415.364,-6.86574,87.2178,-27.4926,
2026_07_06_16_23_55.553,3.867,49.1,0,0.775,0,0,0,0, ,0,0,0,0,0, ,316.4,628.9,860.4,21,21.4,1.9,25,523.787,393.692,442.044,-5.32306,83.5939,-25.7929,
2026_07_06_16_23_55.572,3.867,49.1,0,0.774,0,0,0,0, ,0,0,0,0,0, ,317.7,659.6,863,18.8,9.5,2.6,25,511.189,408.961,467.617,-3.78603,79.4414,-24.084,
2026_07_06_16_23_55.592,3.867,49.1,0,0.773,0,0,0,0, ,0,0,0,0,0, ,338,664,844.4,5.2,10.2,1,25,500.017,424.368,491.144,-2.82407,75.2007,-22.5067,
2026_07_06_16_23_55.616,3.867,49.1,0,0.773,0,0,0,0, ,0,0,0,0,0, ,332.6,631.4,815.6,-6.7,11.9,-0.2,25,489.98,437.977,511.793,-2.69768,71.2915,-21.1108,
2026_07_06_16_23_55.631,3.867,49.2,0,0.774,0,0,0,0, ,0,0,0,0,0, ,318.2,589.5,805.6,-5.6,8.1,3,25,479.95,448.487,530.002,-2.90806,67.5566,-19.7391,
2026_07_06_16_23_55.652,3.867,49.1,0,0.773,0,0,0,0, ,0,0,0,0,0, ,295.7,572,801.2,2,-3.9,8,25,469.408,456.547,546.662,-2.84054,63.5678,-18.2011,
2026_07_06_16_23_55.671,3.867,49.2,0,0.773,0,0,0,0, ,0,0,0,0,0, ,305.5,575.5,787.9,1.3,-11.4,6.5,25,459.121,463.689,561.768,-2.5669,59.228,-16.6501,
2026_07_06_16_23_55.691,3.867,49.2,0,0.773,0,0,0,0, ,0,0,0,0,0, ,344.1,586.3,757.8,-6.5,-5.6,3.2,25,450.936,470.832,574.63,-2.56891,55.1008,-15.34,
2026_07_06_16_23_55.710,3.867,49.2,0,0.773,0,0,0,0, ,0,0,0,0,0, ,341,557.1,744,-12.2,5.5,1.2,25,444.331,476.978,585.372,-2.98213,51.74,-14.2711,
2026_07_06_16_23_55.731,3.867,49.1,0,0.772,0,0,0,0, ,0,0,0,0,0, ,318.1,531.1,764.8,-6.6,3.2,1.7,25,437.337,481.069,595.672,-3.37322,48.8522,-13.3131,
2026_07_06_16_23_55.750,3.867,49.2,0,0.775,0,0,0,0, ,0,0,0,0,0, ,303.4,531,773.3,1.1,-8.6,6.2,25,429.623,484.114,606.237,-3.33525,45.7107,-12.2612,
2026_07_06_16_23_55.770,3.867,49.2,0,0.773,0,0,0,0, ,0,0,0,0,0, ,327.7,551.7,765.8,3.5,-19,9.3,25,422.672,487.602,616.189,-2.99185,42.0843,-11.0417,
2026_07_06_16_23_55.791,3.867,49.2,0,0.773,0,0,0,0, ,0,0,0,0,0, ,362.1,569.2,735.7,-8.1,-6.9,5.3,25,417.933,492.041,624.389,-2.94969,38.7307,-9.92403,
2026_07_06_16_23_55.809,3.867,49.1,0,0.773,0,0,0,0, ,0,0,0,0,0, ,351.9,525.5,738.5,-12.9,5.1,-0.6,25,414.219,495.412,631.257,-3.40979,36.3157,-9.17608,
2026_07_06_16_23_55.829,3.867,49.1,0,0.772,0,0,0,0, ,0,0,0,0,0, ,341.6,513,747.4,-9.4,3.9,-1,25,410.108,496.864,638.064,-3.88145,34.3769,-8.66567,
2026_07_06_16_23_55.854,3.867,49.1,0,0.774,0,0,0,0, ,0,0,0,0,0, ,335.6,526.8,762.4,0.7,-6.2,3.6,25,405.751,498.268,645.183,-3.91001,32.212,-8.05838,
2026_07_06_16_23_55.869,3.867,49.1,0,0.771,0,0,0,0, ,0,0,0,0,0, ,333.6,544.4,775.7,10.1,-20.8,10.9,25,401.415,500.543,652.731,-3.34268,29.4264,-7.12553,
2026_07_06_16_23_55.888,3.867,49.1,0,0.773,0,0,0,0, ,0,0,0,0,0, ,364.7,584.9,777.2,9.6,-30.1,17.2,25,398.23,504.449,660.27,-2.53875,26.0824,-5.83514,
2026_07_06_16_23_55.908,3.867,49,0,0.775,0,0,0,0, ,0,0,0,0,0, ,383.4,574.5,770.6,-1.5,-25.2,16.9,25,396.756,509.035,667.195,-2.13725,22.8081,-4.44058,
2026_07_06_16_23_55.928,3.867,49.1,0,0.773,0,0,0,0, ,0,0,0,0,0, ,395.6,547.2,757.6,-6,-21.4,14.4,25,396.314,512.193,673.1,-2.23552,19.9983,-3.21631,
2026_07_06_16_23_55.948,3.867,49.1,0,0.773,0,0,0,0, ,0,0,0,0,0, ,396.1,534.9,755.9,-1.3,-24.9,14.7,25,396.286,513.951,678.197,-2.32172,17.369,-2.13368,
2026_07_06_16_23_55.967,3.867,49,0,0.774,0,0,0,0, ,0,0,0,0,0, ,399.1,550.4,761.2,5.7,-33.2,18.5,25,396.366,515.7,683.094,-2.04618,14.5403,-0.992094,
2026_07_06_16_23_55.987,3.867,49.1,0,0.773,0,0,0,0, ,0,0,0,0,0, ,416.1,600.9,803.9,1.5,-42.3,23.4,25,397.051,519.353,689.154,-1.70211,11.3539,0.345002,
2026_07_06_16_23_56.007,3.867,49,0,0.773,0,0,0,0, ,0,0,0,0,0, ,436.6,626.9,803.7,-14.9,-56,31,25,398.836,525.115,696.141,-2.00667,7.66694,1.98148,
2026_07_06_16_23_56.027,3.867,49,0,0.774,0,0,0,0, ,0,0,0,0,0, ,475.9,576.4,764.8,-25,-65.5,39.2,25,402.335,529.778,701.51,-3.10009,3.49778,3.99964,
2026_07_06_16_23_56.047,3.867,49,0,0.773,0,0,0,0, ,0,0,0,0,0, ,502.4,549.8,751.4,-27.5,-74.8,43.7,25,407.625,531.809,704.958,-4.51079,-0.990128,6.28177,
2026_07_06_16_23_56.067,3.867,49,0,0.774,0,0,0,0, ,0,0,0,0,0, ,524.4,570.3,774.1,-33,-88.1,48.3,25,414.071,533.53,708.48,-6.07927,-5.89315,8.7021,
2026_07_06_16_23_56.087,3.867,49.1,0,0.774,0,0,0,0, ,0,0,0,0,0, ,543.7,554,767.8,-40.6,-110.2,54.4,25,421.382,535.274,712.287,-7.95132,-11.576,11.301,
2026_07_06_16_23_56.107,3.867,49,0,0.774,0,0,0,0, ,0,0,0,0,0, ,551.6,542.6,694.2,-47.4,-133.4,65.8,25,429.076,536.068,713.427,-10.148,-18.2928,14.2746,
2026_07_06_16_23_56.126,3.867,49,0,0.772,0,0,0,0, ,0,0,0,0,0, ,598.2,459.4,636.5,-42.7,-151.5,80.7,25,437.963,533.931,710.497,-12.2749,-25.8586,17.8685,
2026_07_06_16_23_56.146,3.867,49,0,0.771,0,0,0,0, ,0,0,0,0,0, ,636.2,370.2,576.4,-20.1,-176,93.7,25,448.885,526.671,704.157,-13.4403,-34.2614,22.0933,
2026_07_06_16_23_56.167,3.867,49,0,0.772,0,0,0,0, ,0,0,0,0,0, ,663.5,326.5,524.4,7.8,-201.1,106.2,25,461.131,515.805,694.787,-12.9961,-43.6633,26.8377,
2026_07_06_16_23_56.185,3.867,49,0,0.774,0,0,0,0, ,0,0,0,0,0, ,733.8,335.3,468.6,20.5,-215.2,113.3,25,475.605,504.537,682.704,-11.3418,-53.6867,31.8902,
2026_07_06_16_23_56.206,3.867,49,0,0.774,0,0,0,0, ,0,0,0,0,0, ,796.8,287.9,408,22.4,-206.9,108.4,25,493.258,492.78,667.811,-9.34359,-63.276,36.7018,
2026_07_06_16_23_56.225,3.867,49,0,0.772,0,0,0,0, ,0,0,0,0,0, ,818.8,247.4,353.1,22.9,-196.3,98.6,25,512.426,479.061,650.306,-7.39398,-71.7052,40.7723,
2026_07_06_16_23_56.245,3.867,49,0,0.774,0,0,0,0, ,0,0,0,0,0, ,828.8,195.8,286.7,32.4,-194.6,90.2,25,531.4,463.372,630.172,-5.25849,-79.2459,44.0403,
2026_07_06_16_23_56.264,3.867,49,0,0.774,0,0,0,0, ,0,0,0,0,0, ,844.7,159.1,220.4,47.5,-199.6,87,25,550.007,445.949,607.221,-2.5036,-86.4276,46.7556,
2026_07_06_16_23_56.285,3.867,48.9,0,0.775,0,0,0,0, ,0,0,0,0,0, ,892.4,159.9,166.8,56.1,-205.9,93,25,569.418,428.493,582.016,0.805528,-93.516,49.3908,
2026_07_06_16_23_56.304,3.867,49,0,0.774,0,0,0,0, ,0,0,0,0,0, ,874,120.2,101,62.8,-202.6,95.8,25,588.539,410.916,554.709,4.37917,-100.264,52.1336,
2026_07_06_16_23_56.324,3.867,48.7,0,0.773,0,0,0,0, ,0,0,0,0,0, ,826.9,77.3,48.2,70.1,-209.1,96.3,25,604.5,391.894,525.453,8.16162,-106.698,54.8097,
2026_07_06_16_23_56.343,3.867,49,0,0.774,0,0,0,0, ,0,0,0,0,0, ,791.9,24,14,83.2,-243.7,100.1,25,616.986,371.099,495.328,12.3351,-113.992,57.4538,
2026_07_06_16_23_56.368,3.867,48.9,0,0.774,0,0,0,0, ,0,0,0,0,0, ,798.8,0.8,-78.3,95.5,-250.1,104.7,25,627.855,349.241,463.185,17.0282,-122.091,60.1927,
2026_07_06_16_23_56.383,3.867,48.9,0,0.772,0,0,0,0, ,0,0,0,0,0, ,835.9,-19.6,-216.3,95,-250.1,106.6,25,639.402,327.386,425.983,21.7949,-129.892,62.9628,
2026_07_06_16_23_56.403,3.867,48.9,0,0.772,0,0,0,0, ,0,0,0,0,0, ,814.9,-82.8,-312.6,90.4,-250.1,104.9,25,650.736,304.316,383.91,26.1156,-137.217,65.5701,
2026_07_06_16_23_56.423,3.867,49,0,0.774,0,0,0,0, ,0,0,0,0,0, ,775.7,-150.7,-380.6,87.7,-250.1,93.6,25,659.546,278.657,339.395,29.9507,-144.096,67.6225,
2026_07_06_16_23_56.443,3.867,48.7,0,0.772,0,0,0,0, ,0,0,0,0,0, ,749.7,-183.7,-459.8,83.9,-250.1,81.7,25,665.832,251.488,293.107,33.354,-150.556,68.8429,
2026_07_06_16_23_56.464,3.867,48.9,0,0.774,0,0,0,0, ,0,0,0,0,0, ,740.1,-179.8,-525.2,68.2,-229.9,65,25,670.65,225.088,245.234,35.9558,-156.006,69.1176,
2026_07_06_16_23_56.483,3.867,48.7,0,0.772,0,0,0,0, ,0,0,0,0,0, ,723.7,-174.1,-541,56.7,-215.3,54.1,25,674.382,200.588,197.804,37.5703,-160.064,68.5345,
2026_07_06_16_23_56.501,3.867,48.7,0,0.772,0,0,0,0, ,0,0,0,0,0, ,707.8,-176.3,-590,35.4,-184.4,34.9,25,676.903,177.689,151.29,38.087,-162.489,67.0699,
2026_07_06_16_23_56.522,3.867,48.9,0,0.775,0,0,0,0, ,0,0,0,0,0, ,706,-170.7,-691.4,18.1,-157,33.8,25,678.731,156.288,103.028,37.3962,-162.989,65.0761,
2026_07_06_16_23_56.542,3.867,48.9,0,0.775,0,0,0,0, ,0,0,0,0,0, ,637.6,-226.9,-745.1,8,-127,36.3,25,678.309,134.65,52.9818,35.9126,-161.71,63.2464,
2026_07_06_16_23_56.561,3.867,48.9,0,0.772,0,0,0,0, ,0,0,0,0,0, ,585,-262.4,-750.8,3.9,-115.7,27.4,25,674.225,111.536,4.17506,34.0867,-159.251,61.3331,
2026_07_06_16_23_56.582,3.867,48.7,0,0.775,0,0,0,0, ,0,0,0,0,0, ,550.1,-229.4,-783,3.8,-114.3,24.7,25,667.725,89.7552,-42.8123,32.2442,-156.554,59.1831,
2026_07_06_16_23_56.601,3.867,48.7,0,0.774,0,0,0,0, ,0,0,0,0,0, ,514.1,-213,-801.2,-0.2,-116.6,23.7,25,659.46,70.8063,-88.472,30.389,-154.049,57.0513,
2026_07_06_16_23_56.624,3.867,48.9,0,0.772,0,0,0,0, ,0,0,0,0,0, ,499.3,-183.1,-827.6,-3.7,-121.7,27.2,25,650.151,54.4229,-132.708,28.4183,-151.923,55.1256,
2026_07_06_16_23_56.643,3.867,48.9,0,0.772,0,0,0,0, ,0,0,0,0,0, ,446.2,-223.7,-873.4,-9.4,-123.1,26.9,25,639.341,38.7118,-176.449,26.2875,-150.124,53.4147,
2026_07_06_16_23_56.660,3.867,48.7,0,0.774,0,0,0,0, ,0,0,0,0,0, ,445.6,-251,-932,-15.4,-118.5,23.3,25,627.553,21.8893,-220.705,23.9299,-148.337,51.6893,
2026_07_06_16_23_56.680,3.867,48.7,0,0.772,0,0,0,0, ,0,0,0,0,0, ,425.7,-257.2,-999.7,-19.7,-95,18.4,25,615.859,5.0712,-266.112,21.4023,-145.802,49.81,
2026_07_06_16_23_56.701,3.867,48.7,0,0.772,0,0,0,0, ,0,0,0,0,0, ,410.2,-279.9,-1055.4,-21.3,-69.9,13.4,25,603.799,-11.6026,-312.512,18.8488,-141.942,47.7436,
2026_07_06_16_23_56.719,3.867,48.7,0,0.772,0,0,0,0, ,0,0,0,0,0, ,372.9,-298.5,-1051.1,-17.1,-45.5,11.5,25,590.865,-28.5187,-357.651,16.5302,-136.808,45.5929,
2026_07_06_16_23_56.739,3.867,48.7,0,0.772,0,0,0,0, ,0,0,0,0,0, ,345.7,-275.7,-1034.1,-11.6,-29.5,9,25,576.754,-44.276,-399.39,14.6485,-130.757,43.4392,
2026_07_06_16_23_56.759,3.867,48.7,0,0.772,0,0,0,0, ,0,0,0,0,0, ,320.3,-247.3,-1022.9,-13.3,-20.3,7.8,25,561.9,-57.5131,-437.726,12.9972,-124.306,41.304,
2026_07_06_16_23_56.779,3.867,48.7,0,0.774,0,0,0,0, ,0,0,0,0,0, ,303.2,-251.2,-1024.5,-12.2,-13.9,6.2,25,546.657,-69.197,-473.434,11.4282,-117.773,39.2136,
2026_07_06_16_23_56.798,3.867,48.6,0,0.772,0,0,0,0, ,0,0,0,0,0, ,300,-272.3,-1030.8,-14.5,-4,-0.1,25,531.724,-80.9307,-507.207,9.91827,-111.142,37.0099,
2026_07_06_16_23_56.819,3.867,48.7,0,0.773,0,0,0,0, ,0,0,0,0,0, ,314.6,-256.2,-1017.3,-12.2,5.6,-3.5,25,518.048,-92.1017,-538.702,8.50036,-104.32,34.6449,
2026_07_06_16_23_56.839,3.867,48.6,0,0.775,0,0,0,0, ,0,0,0,0,0, ,320.8,-230.3,-991,-10.9,12.3,-4.2,25,505.839,-101.312,-567.065,7.27854,-97.418,32.2991,
2026_07_06_16_23_56.858,3.867,48.7,0,0.77,0,0,0,0, ,0,0,0,0,0, ,307.9,-217.2,-973.9,-10.7,16,-3.4,25,494.17,-108.773,-592.377,6.17688,-90.6193,30.0993,
2026_07_06_16_23_56.878,3.867,48.6,0,0.772,0,0,0,0, ,0,0,0,0,0, ,326,-224.8,-953.2,-9.4,16.7,-4.7,25,483.371,-115.612,-614.996,5.18805,-84.1009,28.0184,
2026_07_06_16_23_56.898,3.867,48.6,0,0.772,0,0,0,0, ,0,0,0,0,0, ,350.7,-223.9,-945.5,-7.1,18.8,-4.8,25,474.534,-122.238,-635.371,4.36917,-77.8943,26.0216,
2026_07_06_16_23_56.917,3.867,48.6,0,0.773,0,0,0,0, ,0,0,0,0,0, ,365.4,-219.9,-950,-10.1,25.1,-12.2,25,467.435,-128.312,-654.406,3.57886,-71.8101,23.9179,
2026_07_06_16_23_56.936,3.867,48.6,0,0.774,0,0,0,0, ,0,0,0,0,0, ,382.5,-208.2,-936.2,-6.7,30.1,-7.9,25,461.739,-133.536,-671.998,2.8489,-65.7523,21.848,
2026_07_06_16_23_56.958,3.867,48.7,0,0.774,0,0,0,0, ,0,0,0,0,0, ,364.7,-204.5,-914.9,-4.1,29.2,-7.3,25,456.368,-137.973,-687.449,2.34623,-59.9387,20.0535,
2026_07_06_16_23_56.977,3.867,48.6,0,0.774,0,0,0,0, ,0,0,0,0,0, ,370.3,-196.7,-902.3,-3.2,25.7,-5.3,25,450.952,-141.79,-700.926,1.98084,-54.6134,18.4476,
2026_07_06_16_23_56.996,3.867,48.7,0,0.774,0,0,0,0, ,0,0,0,0,0, ,379.2,-186.8,-880.9,-3.6,20.9,-5.2,25,446.309,-144.834,-712.545,1.65294,-49.8656,17.0035,
2026_07_06_16_23_57.016,3.867,48.5,0,0.771,0,0,0,0, ,0,0,0,0,0, ,432.2,-156.1,-895.3,-11.3,27.5,-7.5,25,443.834,-146.456,-723.243,1.09823,-45.3522,15.5804,
2026_07_06_16_23_57.036,3.867,48.7,0,0.773,0,0,0,0, ,0,0,0,0,0, ,456.9,-188.9,-927.9,-15.6,42.1,-9.1,25,443.878,-148.043,-734.721,0.211701,-40.4679,14.1252,
2026_07_06_16_23_57.056,3.867,48.6,0,0.774,0,0,0,0, ,0,0,0,0,0, ,442.1,-212.5,-926.7,-10.6,49.5,-7.6,25,444.22,-151.252,-746.456,-0.599481,-35.211,12.7556,
2026_07_06_16_23_57.077,3.867,48.6,0,0.774,0,0,0,0, ,0,0,0,0,0, ,476.5,-161.1,-918,-10.9,57.3,-8,25,445.139,-153.418,-757.175,-1.21803,-29.8113,11.503,
2026_07_06_16_23_57.094,3.867,48.5,0,0.771,0,0,0,0, ,0,0,0,0,0, ,565.1,-95.2,-931.2,-38.5,91.5,-20.7,25,449.75,-151.878,-767.377,-2.64896,-23.4609,9.92758,
2026_07_06_16_23_57.115,3.867,48.5,0,0.773,0,0,0,0, ,0,0,0,0,0, ,607.1,-126.5,-945.6,-59.7,131,-31.4,25,458.059,-149.378,-777.799,-5.47957,-15.2519,7.7352,
2026_07_06_16_23_57.134,3.867,48.6,0,0.772,0,0,0,0, ,0,0,0,0,0, ,605.9,-125.7,-945.1,-58.7,141.2,-30.2,25,467.104,-147.96,-788.009,-8.75316,-6.02894,5.38696,
2026_07_06_16_23_57.155,3.867,48.5,0,0.773,0,0,0,0, ,0,0,0,0,0, ,604.8,-118.8,-903.1,-55.4,144.3,-25.2,25,475.529,-146.393,-796.302,-11.6962,3.03728,3.37072,
2026_07_06_16_23_57.175,3.867,48.6,0,0.773,0,0,0,0, ,0,0,0,0,0, ,626.2,-91.9,-862,-59.7,148.9,-28.1,25,484.058,-143.892,-801.558,-14.4905,11.7856,1.54134,
2026_07_06_16_23_57.194,3.867,48.6,0,0.772,0,0,0,0, ,0,0,0,0,0, ,704.5,-37.2,-834.4,-72.2,163.9,-29.1,25,495.106,-139.057,-804.4,-17.6263,20.5981,-0.295402,
2026_07_06_16_23_57.215,3.867,48.5,0,0.774,0,0,0,0, ,0,0,0,0,0, ,807,27,-770.7,-83.3,181.2,-41.2,25,510.989,-130.894,-804.287,-21.2901,29.8576,-2.41935,
2026_07_06_16_23_57.234,3.867,48.6,0,0.773,0,0,0,0, ,0,0,0,0,0, ,821.7,-32.2,-698.6,-96.6,204.9,-70.5,25,529.475,-123.076,-800.044,-25.474,39.8022,-5.67528,
2026_07_06_16_23_57.254,3.867,48.5,0,0.772,0,0,0,0, ,0,0,0,0,0, ,770.8,-69.7,-644.7,-57,174.9,-93.2,25,545.731,-118.681,-792.22,-28.6017,48.9488,-10.3172,
2026_07_06_16_23_57.273,3.867,48.5,0,0.772,0,0,0,0, ,0,0,0,0,0, ,816.2,111.9,-643.3,-71.6,154.4,-78.6,25,560.83,-110.163,-783.188,-30.7771,55.9993,-14.923,
2026_07_06_16_23_57.293,3.867,48.6,0,0.774,0,0,0,0, ,0,0,0,0,0, ,929.3,171,-567,-73.6,159.6,-75.9,25,579.837,-94.8303,-772.338,-33.3257,62.154,-18.7211,
2026_07_06_16_23_57.313,3.867,48.5,0,0.774,0,0,0,0, ,0,0,0,0,0, ,938.2,200.8,-480.9,-85.3,170.3,-87.8,25,601.404,-77.7233,-757.202,-36.1364,68.4182,-22.568,
2026_07_06_16_23_57.333,3.867,48.5,0,0.772,0,0,0,0, ,0,0,0,0,0, ,905.7,190.3,-434.4,-71.6,167,-89.5,25,620.937,-61.0707,-738.948,-38.7148,74.526,-26.5949,
2026_07_06_16_23_57.353,3.867,48.5,0,0.774,0,0,0,0, ,0,0,0,0,0, ,852.1,148.8,-367.7,-55.4,150.7,-95.5,25,636.657,-47.0173,-718.358,-40.2252,79.6645,-30.6109,
2026_07_06_16_23_57.372,3.867,48.5,0,0.773,0,0,0,0, ,0,0,0,0,0, ,828.8,106.5,-385.4,-40.5,144.1,-115.5,25,649.075,-36.3735,-697.529,-40.6959,83.7922,-35.1745,
2026_07_06_16_23_57.392,3.867,48.5,0,0.772,0,0,0,0, ,0,0,0,0,0, ,747,164.6,-284.9,-67.8,123.9,-148.1,25,657.535,-25.8969,-675.446,-41.5158,86.8517,-41.0626,
2026_07_06_16_23_57.412,3.867,48.5,0,0.772,0,0,0,0, ,0,0,0,0,0, ,698.7,168.2,-200.5,-61.1,91.5,-172.4,25,661.515,-14.1788,-649.076,-42.9133,88.1221,-48.3256,
2026_07_06_16_23_57.431,3.867,48.5,0,0.774,0,0,0,0, ,0,0,0,0,0, ,694.8,246.8,-161.8,-50.1,55.2,-174.3,25,663.662,-0.67026,-620.562,-43.6864,87.222,-55.9443,
2026_07_06_16_23_57.453,3.867,48.4,0,0.773,0,0,0,0, ,0,0,0,0,0, ,676.7,290,-151.1,-7,24.8,-193.7,25,665.008,15.7262,-592.28,-42.764,84.3444,-63.7477,
2026_07_06_16_23_57.478,3.867,48.5,0,0.772,0,0,0,0, ,0,0,0,0,0, ,671.9,239.6,-189.6,22.9,10.7,-233.7,25,665.575,30.9041,-566.568,-39.6737,80.2863,-72.8854,
2026_07_06_16_23_57.491,3.867,48.5,0,0.774,0,0,0,0, ,0,0,0,0,0, ,601.5,153.4,-226.5,47.8,17.6,-250.1,25,663.815,40.9951,-544.721,-35.1019,76.2561,-83.1847,
2026_07_06_16_23_57.511,3.867,48.4,0,0.772,0,0,0,0, ,0,0,0,0,0, ,573.2,239.6,-167.1,57.6,5.2,-250.1,25,659.155,50.4712,-523.52,-29.7515,72.3039,-93.3561,
2026_07_06_16_23_57.531,3.867,48.4,0,0.772,0,0,0,0, ,0,0,0,0,0, ,566.8,745.1,-97.9,84.6,-14.4,-250.1,25,653.722,77.3982,-499.692,-23.6058,67.6176,-102.908,
2026_07_06_16_23_57.550,3.867,48.5,0,0.769,0,0,0,0, ,0,0,0,0,0, ,451.4,767.2,-111.2,84.5,-1.9,-218.8,25,644.91,118.76,-475.613,-17.0151,63.0005,-110.924,
2026_07_06_16_23_57.571,3.867,48.5,0,0.772,0,0,0,0, ,0,0,0,0,0, ,459.1,606.5,-170.1,129,-8.4,-194.5,25,633.352,153.378,-455.201,-9.47316,58.8476,-116.757,
2026_07_06_16_23_57.591,3.867,48.5,0,0.772,0,0,0,0, ,0,0,0,0,0, ,428.8,550,-173.7,204,-60.4,-228.9,25,621.81,179.268,-437.938,1.2502,53.1653,-122.542,
2026_07_06_16_23_57.610,3.867,48.5,0,0.774,0,0,0,0, ,0,0,0,0,0, ,437.9,672.8,-364.8,250.1,-80.1,-192.9,25,610.326,205.601,-427.658,15.0099,45.6447,-127.927,
2026_07_06_16_23_57.630,3.867,48.4,0,0.775,0,0,0,0, ,0,0,0,0,0, ,252.1,416,-537.9,250.1,-68.1,-127.9,25,594.158,226.247,-429.102,29.3357,38.3478,-129.906,
2026_07_06_16_23_57.649,3.867,48.4,0,0.773,0,0,0,0, ,0,0,0,0,0, ,-117.4,899.9,-473.5,250.1,-106.3,-161.9,25,562.056,252.554,-433.77,42.7885,30.6972,-130.819,
2026_07_06_16_23_57.669,3.867,48.4,0,0.773,0,0,0,0, ,0,0,0,0,0, ,47.3,623.6,-629.3,173.3,-85.9,-126.8,25,525.669,283.583,-440.938,53.0815,22.9705,-131.644,
2026_07_06_16_23_57.689,3.867,48.5,0,0.772,0,0,0,0, ,0,0,0,0,0, ,108,769.6,-725.5,161.5,-78.3,-127.2,25,498.368,308.751,-455.347,60.0478,16.5678,-131.361,
2026_07_06_16_23_57.709,3.867,48.4,0,0.774,0,0,0,0, ,0,0,0,0,0, ,16.4,762.4,-898.3,102.2,-60.3,-110.8,25,471.789,336.615,-477.075,64.4233,11.3352,-130.608,
2026_07_06_16_23_57.729,3.867,48.4,0,0.772,0,0,0,0, ,0,0,0,0,0, ,-28.1,831.4,-974.1,-23,-31.7,-88.3,25,442.683,364.663,-505.053,62.9106,7.84133,-128.715,
2026_07_06_16_23_57.749,3.867,48.4,0,0.773,0,0,0,0, ,0,0,0,0,0, ,-73.1,927.7,-996.3,-58.7,-33.5,-56.1,25,412.624,396.039,-534.311,56.5877,5.37693,-125.271,
2026_07_06_16_23_57.769,3.867,48.4,0,0.773,0,0,0,0, ,0,0,0,0,0, ,-110.4,899.9,-917.9,-119.6,-48.1,-74.4,25,381.888,427.59,-560.075,47.7068,2.56303,-121.614,
2026_07_06_16_23_57.791,3.867,48.4,0,0.774,0,0,0,0, ,0,0,0,0,0, ,-109.8,908.2,-841.1,-63.9,-25.5,-43.7,25,351.908,456.625,-579.54,39.2087,0.164341,-117.801,
2026_07_06_16_23_57.808,3.867,48.3,0,0.773,0,0,0,0, ,0,0,0,0,0, ,-106.6,902.8,-836.1,-42.6,-14.1,-36.5,25,323.87,483.978,-595.327,33.5745,-1.05224,-113.066,
2026_07_06_16_23_57.827,3.867,48.4,0,0.774,0,0,0,0, ,0,0,0,0,0, ,-126.8,891.7,-846.6,-25.1,-0.5,-30,25,297.023,509.162,-610.319,29.4658,-1.43296,-108.202,
2026_07_06_16_23_57.847,3.867,48.4,0,0.773,0,0,0,0, ,0,0,0,0,0, ,-125.7,835.5,-799.4,-37.9,5.7,-15,25,271.23,530.76,-623.279,25.7507,-1.1872,-102.98,
2026_07_06_16_23_57.868,3.867,48.3,0,0.773,0,0,0,0, ,0,0,0,0,0, ,-122,778.1,-730.3,-36.4,5.4,-11.2,25,247.154,547.581,-631.906,21.9177,-0.776652,-97.5029,
2026_07_06_16_23_57.886,3.867,48.4,0,0.773,0,0,0,0, ,0,0,0,0,0, ,-91.9,754.7,-693.1,-23.9,1.1,-11,25,225.576,560.916,-636.768,18.7448,-0.531278,-92.2377,
2026_07_06_16_23_57.909,3.867,48.4,0,0.772,0,0,0,0, ,0,0,0,0,0, ,-76.1,733,-667.1,-8.3,3.9,-10.4,25,206.711,572.063,-639.409,16.6214,-0.34656,-87.269,
2026_07_06_16_23_57.926,3.867,48.4,0,0.773,0,0,0,0, ,0,0,0,0,0, ,-68.4,784.1,-696.1,-8.9,4,-15.4,25,189.712,583.427,-641.98,15.0845,-0.084738,-82.7371,
2026_07_06_16_23_57.947,3.867,48.3,0,0.774,0,0,0,0, ,0,0,0,0,0, ,-65.9,778,-700.5,-28.3,5.8,-15.1,25,174.06,595.47,-645.412,13.0319,0.219019,-78.6246,
2026_07_06_16_23_57.966,3.867,48.3,0,0.774,0,0,0,0, ,0,0,0,0,0, ,-82.5,736.3,-638,-34.6,5.3,-12.2,25,158.931,605.322,-646.865,10.3212,0.543876,-74.6653,
2026_07_06_16_23_57.986,3.867,48.3,0,0.772,0,0,0,0, ,0,0,0,0,0, ,-100,722.4,-590.9,-28.1,1,-14.2,25,143.686,612.88,-644.889,7.7819,0.702687,-70.9197,
2026_07_06_16_23_58.006,3.867,48.3,0,0.772,0,0,0,0, ,0,0,0,0,0, ,-84.5,780.2,-617.5,-11.6,0,-11.9,25,129.309,621.315,-642.41,6.09809,0.690336,-67.3933,
2026_07_06_16_23_58.025,3.867,48.3,0,0.773,0,0,0,0, ,0,0,0,0,0, ,-94.1,796.6,-633.3,-7.5,-1.7,-13.6,25,115.987,631.497,-641.373,5.14453,0.596471,-64.0635,
2026_07_06_16_23_58.045,3.867,48.3,0,0.773,0,0,0,0, ,0,0,0,0,0, ,-89.7,779.9,-633.4,-13,-1.4,-8.3,25,103.319,641.049,-640.884,4.20643,0.465671,-60.8269,
2026_07_06_16_23_58.065,3.867,48.3,0,0.773,0,0,0,0, ,0,0,0,0,0, ,-98.8,740.3,-608.2,-8.9,-1.8,-8.6,25,91.2796,648.304,-639.66,3.28283,0.339794,-57.6351,
2026_07_06_16_23_58.084,3.867,48.3,0,0.773,0,0,0,0, ,0,0,0,0,0, ,-103.7,777.4,-615.6,-5.2,0.5,-5.4,25,79.5474,655.04,-637.969,2.65317,0.279478,-54.5496,
2026_07_06_16_23_58.105,3.867,48.3,0,0.773,0,0,0,0, ,0,0,0,0,0, ,-109.1,836.6,-648.6,3.2,2.1,-6.1,25,68.2162,664.3,-637.611,2.43056,0.341666,-51.5758,
2026_07_06_16_23_58.125,3.867,48.2,0,0.774,0,0,0,0, ,0,0,0,0,0, ,-103.5,840.2,-661.4,-12.1,-0.2,-1.7,25,57.5816,674.909,-638.671,2.01128,0.378737,-48.6706,
2026_07_06_16_23_58.146,3.867,48.3,0,0.773,0,0,0,0, ,0,0,0,0,0, ,-94.3,801.3,-648,-18.7,0,3.4,25,48.046,683.797,-639.648,0.950276,0.349564,-45.6529,
2026_07_06_16_23_58.164,3.867,48.3,0,0.773,0,0,0,0, ,0,0,0,0,0, ,-80.3,768,-631.5,-7.9,4.3,5.8,25,39.7984,689.942,-639.654,0.0818996,0.459278,-42.5906,
2026_07_06_16_23_58.185,3.867,48.4,0,0.773,0,0,0,0, ,0,0,0,0,0, ,-78.2,813.1,-648.3,6.5,10.9,6.2,25,32.5439,696.073,-639.669,0.0342526,0.894416,-39.6297,
2026_07_06_16_23_58.204,3.867,48.2,0,0.773,0,0,0,0, ,0,0,0,0,0, ,-110.3,839.9,-652.8,-0.1,7,2.3,25,24.8174,704.021,-640.332,0.227165,1.3853,-36.9557,
2026_07_06_16_23_58.225,3.867,48.2,0,0.773,0,0,0,0, ,0,0,0,0,0, ,-99.7,819.9,-636.8,-23.6,1.9,5.9,25,16.9066,711.692,-640.604,-0.508787,1.57206,-34.4539,
2026_07_06_16_23_58.243,3.867,48.3,0,0.772,0,0,0,0, ,0,0,0,0,0, ,-83.9,768.6,-594.2,-21.1,4.6,14.3,25,10.2823,716.723,-639.074,-1.83974,1.67431,-31.7389,
2026_07_06_16_23_58.263,3.867,48.2,0,0.773,0,0,0,0, ,0,0,0,0,0, ,-64.3,758.3,-587.7,5.6,12.1,21.6,25,5.14026,719.57,-636.142,-2.19989,2.08111,-28.711,
2026_07_06_16_23_58.283,3.867,48.1,0,0.772,0,0,0,0, ,0,0,0,0,0, ,-38.6,812.3,-636.5,26,22.9,21.2,25,1.69179,723.575,-634.677,-1.10302,3.0207,-25.6573,
2026_07_06_16_23_58.303,3.867,48.2,0,0.774,0,0,0,0, ,0,0,0,0,0, ,-28.5,865.9,-684.6,27.8,39.8,33.8,25,-0.455754,730.615,-636.253,0.60341,4.74701,-22.4181,
2026_07_06_16_23_58.322,3.867,48.4,0,0.773,0,0,0,0, ,0,0,0,0,0, ,-19,895.7,-728.1,15.2,61.8,60.5,25,-1.87525,739.767,-640.525,1.8768,7.55337,-18.1788,
2026_07_06_16_23_58.344,3.867,48.2,0,0.773,0,0,0,0, ,0,0,0,0,0, ,7,900.5,-753.6,5.4,80.2,83.8,25,-2.1266,749.416,-646.638,2.39008,11.4196,-12.6744,
2026_07_06_16_23_58.365,3.867,48.2,0,0.773,0,0,0,0, ,0,0,0,0,0, ,14.5,926,-744.5,49.2,105.2,140.7,25,-1.34193,759.399,-652.879,3.90803,16.3727,-5.06178,
2026_07_06_16_23_58.386,3.867,48.2,0,0.773,0,0,0,0, ,0,0,0,0,0, ,101.6,821.5,-776.2,96.7,137.9,195.2,25,2.27726,766.367,-659.428,8.11528,22.7819,5.48112,
2026_07_06_16_23_58.402,3.867,48.2,0,0.773,0,0,0,0, ,0,0,0,0,0, ,333.6,775.7,-781.6,174.5,194.2,239.5,25,15.3985,768.332,-666.708,15.8839,31.5123,18.3919,
2026_07_06_16_23_58.421,3.867,48.2,0,0.773,0,0,0,0, ,0,0,0,0,0, ,363.7,732.7,-826.7,179.3,209,230.7,25,35.706,767.47,-675.084,25.6958,41.877,31.5975,
2026_07_06_16_23_58.441,3.867,48.2,0,0.772,0,0,0,0, ,0,0,0,0,0, ,373.9,710,-925.4,162.5,188.1,201.5,25,56.0039,764.66,-687.33,34.5442,51.4243,42.8406,
2026_07_06_16_23_58.463,3.867,48.2,0,0.773,0,0,0,0, ,0,0,0,0,0, ,476.3,623.7,-817.1,75.4,132.1,167.7,25,78.4957,758.7,-698.538,39.6877,58.0467,51.4791,
2026_07_06_16_23_58.481,3.867,48.2,0,0.773,0,0,0,0, ,0,0,0,0,0, ,529.6,565.4,-822.8,58.8,125.8,158.6,25,104.361,748.697,-705.936,41.3581,62.3674,58.2841,
2026_07_06_16_23_58.502,3.867,48.2,0,0.774,0,0,0,0, ,0,0,0,0,0, ,636.2,432,-799.6,54.9,153.1,152.1,25,133.522,733.463,-712.351,42.3021,67.0646,64.199,
2026_07_06_16_23_58.520,3.867,48.3,0,0.773,0,0,0,0, ,0,0,0,0,0, ,532.5,315.6,-718.5,73.6,166.8,164.4,25,160.994,711.546,-715.197,43.6396,72.7248,69.9302,
2026_07_06_16_23_58.542,3.867,48.1,0,0.774,0,0,0,0, ,0,0,0,0,0, ,720.5,305.7,-565.4,105.2,177.1,194.1,25,189.361,687.116,-710.733,46.4281,78.7713,76.5919,
2026_07_06_16_23_58.560,3.867,48.3,0,0.773,0,0,0,0, ,0,0,0,0,0, ,628.1,265.5,-686.6,114.1,165.7,213.3,25,218.912,662.649,-705.57,50.2807,84.4159,84.3376,
2026_07_06_16_23_58.581,3.867,48.1,0,0.773,0,0,0,0, ,0,0,0,0,0, ,787.1,139.8,-392.8,86.5,123.9,196.5,25,248.691,634.618,-695.462,53.3287,88.0956,91.6843,
2026_07_06_16_23_58.599,3.867,48.2,0,0.773,0,0,0,0, ,0,0,0,0,0, ,758,18.1,-503.7,85.3,92.5,186.6,25,280.614,600.757,-680.398,55.3136,89.3207,97.7699,
2026_07_06_16_23_58.621,3.867,48.2,0,0.773,0,0,0,0, ,0,0,0,0,0, ,871.5,-11.1,-528,133.9,106.1,207.4,25,313.163,564.361,-670.37,58.6216,89.9288,103.817,
2026_07_06_16_23_58.639,3.867,48.1,0,0.772,0,0,0,0, ,0,0,0,0,0, ,822,-75.1,-490.7,143.7,105,216.4,25,345.678,527.344,-660.558,63.5075,90.8807,110.403,
2026_07_06_16_23_58.661,3.867,48.2,0,0.773,0,0,0,0, ,0,0,0,0,0, ,790.7,-159.4,-283,86.1,83.3,186.6,25,373.751,488.064,-643.879,66.6392,91.0799,115.954,
2026_07_06_16_23_58.678,3.867,48.2,0,0.773,0,0,0,0, ,0,0,0,0,0, ,728.5,-176.2,-240.8,10.4,75,156.4,25,397.263,448.097,-620.602,65.5186,90.3529,119.339,
2026_07_06_16_23_58.700,3.867,48.2,0,0.773,0,0,0,0, ,0,0,0,0,0, ,719.4,-214.9,-218.1,-38.9,56.3,140,25,417.171,408.875,-596.766,60.6577,88.8476,121.098,
2026_07_06_16_23_58.720,3.867,48.1,0,0.773,0,0,0,0, ,0,0,0,0,0, ,745.2,-290.6,-279.5,-41.9,28.7,142.1,25,436.374,368.557,-575.562,54.4995,86.0233,122.314,
2026_07_06_16_23_58.742,3.867,48.2,0,0.773,0,0,0,0, ,0,0,0,0,0, ,738.4,-393.4,-287.7,16.6,-5.2,121.3,25,454.986,325.258,-557.771,50.4076,81.4973,122.886,
2026_07_06_16_23_58.758,3.867,48.2,0,0.774,0,0,0,0, ,0,0,0,0,0, ,793,-412.1,-223.1,30,5.2,90.8,25,473.92,280.895,-539.345,48.7557,76.531,121.86,
2026_07_06_16_23_58.779,3.867,48.2,0,0.773,0,0,0,0, ,0,0,0,0,0, ,801.8,-381.5,-340.2,23.8,35.8,76.2,25,493.632,239.598,-523.642,47.4239,73.1166,119.522,
2026_07_06_16_23_58.798,3.867,48.1,0,0.772,0,0,0,0, ,0,0,0,0,0, ,733.6,-474.4,-357.4,26.3,55.5,56,25,510.333,198.919,-512.987,46.0605,71.4429,116.267,
2026_07_06_16_23_58.819,3.867,48.2,0,0.772,0,0,0,0, ,0,0,0,0,0, ,787.8,-500.1,-295.7,-22.9,74.3,38.9,25,525.59,157.106,-501.626,43.3573,71.0442,112.073,
2026_07_06_16_23_58.837,3.867,48.2,0,0.771,0,0,0,0, ,0,0,0,0,0, ,652.7,-358.2,-220.7,-108.1,51.4,-9.3,25,537.452,121.381,-486.793,36.7238,70.5449,106.146,
2026_07_06_16_23_58.860,3.867,48.1,0,0.772,0,0,0,0, ,0,0,0,0,0, ,675.5,-410.5,-197.7,-112.4,45.2,-22.7,25,545.169,90.5628,-469.877,27.7676,69.1893,98.7024,
2026_07_06_16_23_58.877,3.867,48.1,0,0.772,0,0,0,0, ,0,0,0,0,0, ,731.4,-382.9,-226.1,-103.6,60.6,-24.8,25,554.815,60.8702,-454.156,19.4942,68.1967,91.2404,
2026_07_06_16_23_58.899,3.867,48.1,0,0.773,0,0,0,0, ,0,0,0,0,0, ,830.2,-270.6,-295,-136.2,86,-25.3,25,568.586,37.2496,-442.358,10.9999,68.5077,84.154,
2026_07_06_16_23_58.916,3.867,48.1,0,0.772,0,0,0,0, ,0,0,0,0,0, ,723.2,-370.1,-200.3,-169,108.3,-15.5,25,581.268,15.4584,-430.493,1.03053,70.2531,77.7827,
2026_07_06_16_23_58.938,3.867,48.2,0,0.772,0,0,0,0, ,0,0,0,0,0, ,766.4,-387.9,-164,-160.9,76,-20.1,25,591.233,-8.57893,-415.36,-9.0839,71.5874,71.9582,
2026_07_06_16_23_58.955,3.867,48.1,0,0.771,0,0,0,0, ,0,0,0,0,0, ,791,-282.3,-164.6,-160.4,43.6,-22.4,25,602.657,-28.4763,-400.061,-18.32,70.8691,66.2783,
2026_07_06_16_23_58.978,3.867,48.1,0,0.77,0,0,0,0, ,0,0,0,0,0, ,915.2,-312.1,-137.6,-197.6,31.7,-40.5,25,617.918,-44.8517,-384.89,-28.1114,68.8448,60.323,
2026_07_06_16_23_58.995,3.867,48,0,0.772,0,0,0,0, ,0,0,0,0,0, ,913.3,-126.9,-317.6,-205.7,70.1,-35.3,25,635.976,-55.4943,-375.305,-38.6864,67.7513,54.3375,
2026_07_06_16_23_59.016,3.867,48.1,0,0.773,0,0,0,0, ,0,0,0,0,0, ,866,-174.4,-334.4,-234.8,122.7,-12.9,25,651.434,-61.2928,-372.301,-49.7504,69.4971,49.5577,
2026_07_06_16_23_59.035,3.867,48.1,0,0.772,0,0,0,0, ,0,0,0,0,0, ,965.6,-252.5,-294.7,-237.7,141.9,-17.8,25,667.544,-70.5649,-368.781,-61.1153,73.3241,45.6024,
2026_07_06_16_23_59.064,3.867,48.1,0,0.772,0,0,0,0, ,0,0,0,0,0, ,969.4,-256.8,-265.3,-217.6,139,-47,25,685.822,-81.7826,-363.371,-71.2635,77.4146,40.8491,
2026_07_06_16_23_59.074,3.867,48.1,0,0.773,0,0,0,0, ,0,0,0,0,0, ,947.1,-267.5,-225.3,-216,158,-57.7,25,702.423,-92.7737,-356.176,-80.1321,81.7464,35.1698,
2026_07_06_16_23_59.098,3.867,48.1,0,0.772,0,0,0,0, ,0,0,0,0,0, ,901.3,-230.4,-118,-195.9,136.9,-75.3,25,715.938,-102.291,-344.932,-87.7991,85.7502,28.9743,
2026_07_06_16_23_59.114,3.867,48,0,0.773,0,0,0,0, ,0,0,0,0,0, ,962,-103.8,-98.8,-155.5,77.7,-84.1,25,729.083,-106.24,-330.518,-93.1556,87.0634,22.352,
2026_07_06_16_23_59.137,3.867,48,0,0.773,0,0,0,0, ,0,0,0,0,0, ,1004,-43.8,-101,-142.7,59,-75.2,25,744.556,-104.263,-316.465,-96.5647,85.923,16.1362,
2026_07_06_16_23_59.153,3.867,48,0,0.772,0,0,0,0, ,0,0,0,0,0, ,1067.7,0.9,-105.3,-130.7,42.7,-61.2,25,762.307,-99.2168,-303.466,-99.0104,83.7858,10.997,
2026_07_06_16_23_59.175,3.867,48,0,0.773,0,0,0,0, ,0,0,0,0,0, ,1097.4,3.5,-135.7,-119.5,51.9,-56.1,25,781.822,-93.0367,-292.316,-100.6,81.5624,6.75288,
2026_07_06_16_23_59.193,3.867,48.1,0,0.773,0,0,0,0, ,0,0,0,0,0, ,1112.7,-1.5,-146.2,-109.8,71.5,-60.5,25,801.518,-87.3063,-283.093,-101.456,80.3521,2.78872,
2026_07_06_16_23_59.215,3.867,48,0,0.77,0,0,0,0, ,0,0,0,0,0, ,1123,6.2,-140.3,-95.5,73.1,-59.5,25,820.795,-81.8429,-274.571,-101.529,79.8614,-1.03747,
2026_07_06_16_23_59.233,3.867,48,0,0.772,0,0,0,0, ,0,0,0,0,0, ,1160.2,21.1,-100,-78.7,75.6,-59.6,25,840.344,-76.0238,-265.161,-100.65,79.5255,-4.60307,
2026_07_06_16_23_59.255,3.867,48,0,0.772,0,0,0,0, ,0,0,0,0,0, ,1173.4,87.8,-56.1,-60.5,83.9,-59.4,25,860.237,-68.0731,-253.759,-98.7578,79.5392,-7.94835,
2026_07_06_16_23_59.272,3.867,48,0,0.772,0,0,0,0, ,0,0,0,0,0, ,1195,210.3,4.6,-48.5,76,-37.5,25,879.979,-54.8421,-239.865,-96.0608,79.5642,-10.4164,
2026_07_06_16_23_59.294,3.867,48,0,0.773,0,0,0,0, ,0,0,0,0,0, ,1221.5,283.6,79.7,-50.6,57.8,-4.9,25,899.983,-36.4517,-222.679,-93.2266,78.7925,-11.0735,
2026_07_06_16_23_59.312,3.867,48,0,0.772,0,0,0,0, ,0,0,0,0,0, ,1249.7,239.9,67.7,-59,60.1,4.2,25,920.434,-18.28,-204.619,-90.885,77.5834,-10.4201,
2026_07_06_16_23_59.335,3.867,48,0,0.773,0,0,0,0, ,0,0,0,0,0, ,1286.9,251.4,89.7,-65.3,77.8,15.6,25,941.632,-2.19678,-187.354,-89.1339,77.0573,-9.18183,
2026_07_06_16_23_59.351,3.867,47.9,0,0.772,0,0,0,0, ,0,0,0,0,0, ,1292.8,294.6,148.6,-70.7,82.4,39.3,25,962.852,14.573,-168.676,-87.8461,77.2427,-6.94957,
2026_07_06_16_23_59.374,3.867,48,0,0.773,0,0,0,0, ,0,0,0,0,0, ,1284.4,305.1,226.5,-78,82,66.8,25,982.702,31.9571,-146.969,-87.0237,77.5448,-3.29335,
2026_07_06_16_23_59.394,3.867,48,0,0.772,0,0,0,0, ,0,0,0,0,0, ,1229.7,323.1,310.5,-91.5,71,105.3,25,999.42,49.1502,-121.651,-86.8851,77.4811,2.15101,
2026_07_06_16_23_59.417,3.867,48,0,0.772,0,0,0,0, ,0,0,0,0,0, ,1195.9,201.1,326.2,-100.7,51.8,118.3,25,1012.42,62.1268,-94.8386,-87.4466,76.5012,8.83274,
2026_07_06_16_23_59.432,3.867,48,0,0.772,0,0,0,0, ,0,0,0,0,0, ,1169.4,83.3,294.3,-94.4,48.7,121.6,25,1022.8,67.0063,-70.1535,-88.0623,74.9015,15.604,
2026_07_06_16_23_59.454,3.867,47.9,0,0.772,0,0,0,0, ,0,0,0,0,0, ,1124.6,60.3,290.2,-80.9,49.6,129,25,1030.36,67.2984,-48.0696,-88.0372,73.3323,22.2886,
2026_07_06_16_23_59.470,3.867,47.9,0,0.773,0,0,0,0, ,0,0,0,0,0, ,1038.3,14.5,302.4,-73.7,36,144.4,25,1033.48,65.4764,-27.0845,-87.3829,71.4717,29.2605,
2026_07_06_16_23_59.493,3.867,47.9,0,0.773,0,0,0,0, ,0,0,0,0,0, ,978.7,-32.1,339.7,-65,17,157.4,25,1031.96,60.9502,-5.87009,-86.284,68.7312,36.6729,
2026_07_06_16_23_59.510,3.867,47.9,0,0.772,0,0,0,0, ,0,0,0,0,0, ,938.1,-68.9,308.1,-48.4,-1.2,180.3,25,1027.47,54.1587,14.2253,-84.4812,65.0243,44.7274,
2026_07_06_16_23_59.532,3.867,47.9,0,0.772,0,0,0,0, ,0,0,0,0,0, ,864.7,-101.8,323.1,-30.3,-21.9,211.2,25,1019.79,45.6574,32.5903,-81.731,60.3581,53.9304,
2026_07_06_16_23_59.549,3.867,48,0,0.772,0,0,0,0, ,0,0,0,0,0, ,813.1,-287.1,323.8,-44.9,-11.6,196.6,25,1008.77,31.0259,50.3146,-79.0418,55.6593,63.0692,
2026_07_06_16_23_59.574,3.867,47.8,0,0.774,0,0,0,0, ,0,0,0,0,0, ,795.7,-262.8,267.9,-43.3,-16.4,186.6,25,996.314,12.3805,65.2769,-76.9125,51.4144,70.9015,
2026_07_06_16_23_59.589,3.867,47.8,0,0.773,0,0,0,0, ,0,0,0,0,0, ,678.4,-362.9,297.6,-27,-44.5,222.7,25,980.515,-7.43826,78.5291,-74.3676,46.4258,79.0518,
2026_07_06_16_23_59.612,3.867,47.9,0,0.773,0,0,0,0, ,0,0,0,0,0, ,608.2,-480.3,279.7,-22.9,-64.3,213,25,959.966,-32.6762,91.3334,-71.3563,40.2818,87.5098,
2026_07_06_16_23_59.628,3.867,47.9,0,0.773,0,0,0,0, ,0,0,0,0,0, ,627.1,-471,235.8,-28.7,-64,194.3,25,939.106,-59.6699,101.474,-68.5802,33.9179,94.5871,
2026_07_06_16_23_59.652,3.867,47.9,0,0.772,0,0,0,0, ,0,0,0,0,0, ,564.2,-546.8,201.5,-25.5,-62.7,199.6,25,918.177,-87.0449,108.615,-66.0525,27.9907,100.825,
2026_07_06_16_23_59.667,3.867,47.9,0,0.772,0,0,0,0, ,0,0,0,0,0, ,514.6,-591.1,169.7,-26.7,-52.4,185.9,25,895.095,-116.411,113.306,-63.6179,22.778,106.427,
2026_07_06_16_23_59.691,3.867,47.9,0,0.773,0,0,0,0, ,0,0,0,0,0, ,449.3,-624.7,123.7,-35,-26.7,170.7,25,869.919,-146.361,115.341,-61.6211,18.9799,110.806,
2026_07_06_16_23_59.707,3.867,47.9,0,0.773,0,0,0,0, ,0,0,0,0,0, ,387.3,-670.5,96.6,-33.2,-16.6,168.2,25,842.399,-176.905,115.025,-59.944,16.504,114.38,
2026_07_06_16_23_59.730,3.867,47.9,0,0.772,0,0,0,0, ,0,0,0,0,0, ,276.7,-753.1,82.2,-36.6,-15.9,159.2,25,811.296,-209.5,113.463,-58.4179,14.5081,117.385,
2026_07_06_16_23_59.748,3.867,47.9,0,0.773,0,0,0,0, ,0,0,0,0,0, ,251.8,-760,52.4,-35.8,-15.9,150,25,777.961,-242.836,110.65,-57.064,12.6551,119.653,
2026_07_06_16_23_59.772,3.867,47.8,0,0.772,0,0,0,0, ,0,0,0,0,0, ,234.4,-794.4,57.6,-27.2,-7.9,145.5,25,745.368,-275.399,107.259,-55.5062,11.1588,121.365,
2026_07_06_16_23_59.786,3.867,47.9,0,0.772,0,0,0,0, ,0,0,0,0,0, ,125,-833.9,66.8,-31.4,-7.4,127.6,25,710.897,-308.229,104.513,-53.9092,10.0126,122.291,
2026_07_06_16_23_59.810,3.867,47.8,0,0.772,0,0,0,0, ,0,0,0,0,0, ,66,-852,49.5,-33.1,-13.1,122,25,673.396,-340.814,101.688,-52.5894,8.77786,122.444,
2026_07_06_16_23_59.826,3.867,47.8,0,0.773,0,0,0,0, ,0,0,0,0,0, ,-1.7,-748.7,-8.6,-46.6,-25.4,128.4,25,634.321,-368.817,96.7375,-51.8131,7.06992,122.611,
2026_07_06_16_23_59.849,3.867,47.9,0,0.77,0,0,0,0, ,0,0,0,0,0, ,-89.3,-899.6,18.4,-36,-37.9,120.5,25,592.894,-396.564,91.1411,-51.1724,4.71042,122.724,
2026_07_06_16_23_59.866,3.867,47.8,0,0.772,0,0,0,0, ,0,0,0,0,0, ,-106.3,-906.6,-20.3,-26.7,-50,115,25,550.805,-427.431,85.5293,-49.9645,1.74518,122.42,
2026_07_06_16_23_59.889,3.867,47.9,0,0.772,0,0,0,0, ,0,0,0,0,0, ,-94.8,-936,-48.8,-17.4,-53.2,122.5,25,511.113,-457.526,78.212,-48.2635,-1.50554,122.197,
2026_07_06_16_23_59.905,3.867,47.8,0,0.772,0,0,0,0, ,0,0,0,0,0, ,-180,-970.4,-29.1,-16.6,-49.2,112.2,25,471.594,-487.731,71.0724,-46.3584,-4.5338,121.901,
2026_07_06_16_23_59.929,3.867,47.8,0,0.773,0,0,0,0, ,0,0,0,0,0, ,-247.6,-959.4,-65.4,-31.3,-42.9,95.1,25,429.828,-516.808,63.8622,-44.9928,-7.06369,120.789,
2026_07_06_16_23_59.944,3.867,47.8,0,0.773,0,0,0,0, ,0,0,0,0,0, ,-278.3,-1015.7,-124.5,-32.3,-37.2,81,25,387.612,-545.494,54.1845,-44.1889,-9.0738,118.794,
2026_07_06_16_23_59.967,3.867,47.8,0,0.77,0,0,0,0, ,0,0,0,0,0, ,-255.1,-1059.8,-141.1,-14.3,-32.2,75.3,25,347.74,-575.491,42.7902,-42.916,-10.6354,116.317,
2026_07_06_16_23_59.984,3.867,47.8,0,0.773,0,0,0,0, ,0,0,0,0,0, ,-286,-1056.5,-133,-1.4,-27,71.1,25,310.063,-604.903,31.8312,-40.7792,-11.791,113.69,
2026_07_06_16_24_00.009,3.867,47.8,0,0.772,0,0,0,0, ,0,0,0,0,0, ,-310.4,-1017,-122.1,-2.9,-19.6,59.9,25,272.997,-631.219,22.1189,-38.4252,-12.4924,110.753,
2026_07_06_16_24_00.025,3.867,47.8,0,0.772,0,0,0,0, ,0,0,0,0,0, ,-331.6,-1037.9,-119.1,-11.5,-8,41.3,25,236.8,-655.364,13.4219,-36.5224,-12.5721,107.088,
2026_07_06_16_24_00.049,3.867,47.8,0,0.773,0,0,0,0, ,0,0,0,0,0, ,-318.9,-1051.2,-131.8,-14,0.6,21.2,25,202.55,-679.08,4.95943,-35.0738,-12.0314,102.466,
2026_07_06_16_24_00.063,3.867,47.8,0,0.772,0,0,0,0, ,0,0,0,0,0, ,-275.7,-1048.5,-147.2,-7.5,5.8,12,25,172.09,-701.674,-3.84356,-33.5915,-11.1033,97.2339,
2026_07_06_16_24_00.088,3.867,47.7,0,0.772,0,0,0,0, ,0,0,0,0,0, ,-262.4,-1042.8,-138.5,-2.8,10,6.2,25,145.208,-722.635,-12.3143,-31.8584,-9.94524,91.8633,
2026_07_06_16_24_00.103,3.867,47.8,0,0.77,0,0,0,0, ,0,0,0,0,0, ,-247.8,-1031.4,-139,-3.1,10.5,-2.5,25,120.815,-741.798,-20.0189,-30.0968,-8.71459,86.3781,
2026_07_06_16_24_00.128,3.867,47.8,0,0.773,0,0,0,0, ,0,0,0,0,0, ,-218.7,-1029.4,-136.5,-6.1,11.6,-10.1,25,99.2388,-759.384,-27.1932,-28.5431,-7.51019,80.7305,
2026_07_06_16_24_00.143,3.867,47.8,0,0.773,0,0,0,0, ,0,0,0,0,0, ,-203.4,-1039.5,-124.6,-7.9,16,-20,25,80.3306,-776.146,-33.4915,-27.2303,-6.2116,74.8939,
2026_07_06_16_24_00.166,3.867,47.7,0,0.772,0,0,0,0, ,0,0,0,0,0, ,-217.6,-1040.1,-139.6,-4.2,16.2,-25.5,25,62.6081,-792.213,-39.5004,-25.9396,-4.85199,68.9437,
2026_07_06_16_24_00.182,3.867,47.8,0,0.772,0,0,0,0, ,0,0,0,0,0, ,-234.3,-1050.9,-148.5,2.1,13.3,-28.3,25,45.0241,-807.647,-45.8714,-24.4229,-3.65749,63.1032,
2026_07_06_16_24_00.207,3.867,47.8,0,0.772,0,0,0,0, ,0,0,0,0,0, ,-243.8,-1065.3,-163.9,2.8,19.4,-41,25,27.7133,-822.909,-52.5946,-22.7853,-2.43829,57.1464,
2026_07_06_16_24_00.222,3.867,47.8,0,0.773,0,0,0,0, ,0,0,0,0,0, ,-280.1,-1097.9,-171.1,1.8,36.3,-65.6,25,10.062,-838.673,-59.5966,-21.2567,-0.592593,50.4161,
2026_07_06_16_24_00.246,3.867,47.7,0,0.772,0,0,0,0, ,0,0,0,0,0, ,-355.8,-1125.9,-165.6,7.9,42.7,-97.2,25,-9.92624,-855.323,-66.2238,-19.6658,1.85055,42.3835,
2026_07_06_16_24_00.262,3.867,47.8,0,0.773,0,0,0,0, ,0,0,0,0,0, ,-354.6,-1050.6,-162.2,25.4,23.1,-113.8,25,-30.9664,-869.517,-72.1759,-17.4528,3.74263,33.3719,
2026_07_06_16_24_00.285,3.867,47.8,0,0.772,0,0,0,0, ,0,0,0,0,0, ,-256.7,-960.8,-204.4,24.3,2.6,-92.2,25,-47.7049,-877.816,-78.9475,-14.875,4.29761,25.0617,
2026_07_06_16_24_00.300,3.867,47.7,0,0.773,0,0,0,0, ,0,0,0,0,0, ,-231.3,-1055.2,-170.6,28.7,2.7,-91.8,25,-59.6666,-885.749,-85.5625,-12.3537,4.1972,17.9283,
2026_07_06_16_24_00.325,3.867,47.7,0,0.773,0,0,0,0, ,0,0,0,0,0, ,-208.8,-1024.5,-126.9,35.4,3.1,-108.8,25,-69.44,-895.139,-89.413,-9.64786,4.11816,10.7237,
2026_07_06_16_24_00.340,3.867,47.7,0,0.773,0,0,0,0, ,0,0,0,0,0, ,-201.7,-1034.1,-58.4,37.8,-6.1,-130.4,25,-77.7159,-903.315,-89.6102,-6.82963,3.7758,2.78214,
2026_07_06_16_24_00.365,3.867,47.7,0,0.773,0,0,0,0, ,0,0,0,0,0, ,-149,-984.1,-40,39.6,-22.5,-163.5,25,-83.6655,-909.761,-87.1477,-4.05517,2.67431,-6.34216,
2026_07_06_16_24_00.380,3.867,47.7,0,0.773,0,0,0,0, ,0,0,0,0,0, ,-26.9,-867.7,-74.3,45.8,-15.8,-182.8,25,-83.9266,-910.744,-85.3197,-1.20603,1.34439,-16.507,
2026_07_06_16_24_00.404,3.867,47.7,0,0.773,0,0,0,0, ,0,0,0,0,0, ,81.7,-829.1,-47.1,33.8,11.9,-192.8,25,-77.1426,-906.945,-83.8195,1.29278,1.14364,-26.9452,
2026_07_06_16_24_00.420,3.867,47.7,0,0.772,0,0,0,0, ,0,0,0,0,0, ,112.6,-848,-26.2,28.8,32.6,-211.1,25,-66.5217,-902.777,-80.9451,3.12134,2.4298,-37.6095,
2026_07_06_16_24_00.444,3.867,47.7,0,0.773,0,0,0,0, ,0,0,0,0,0, ,128.9,-827,8.9,33.1,35.9,-229.8,25,-55.1098,-898.8,-76.5396,4.81715,4.36885,-48.7514,
2026_07_06_16_24_00.466,3.867,47.7,0,0.773,0,0,0,0, ,0,0,0,0,0, ,170,-771.4,49.4,34.6,27.2,-237.7,25,-42.6444,-892.73,-70.0991,6.58634,6.0252,-60.0247,
2026_07_06_16_24_00.491,3.867,47.6,0,0.772,0,0,0,0, ,0,0,0,0,0, ,252.5,-704.7,52.2,33.6,8.8,-250.1,25,-27.1727,-883.304,-62.7318,8.26295,6.75491,-71.2296,
2026_07_06_16_24_00.500,3.867,47.6,0,0.772,0,0,0,0, ,0,0,0,0,0, ,346.4,-586,43.7,37,9.9,-250.1,25,-7.26917,-868.804,-55.9872,9.91052,6.91305,-82.1295,
2026_07_06_16_24_00.523,3.867,47.7,0,0.773,0,0,0,0, ,0,0,0,0,0, ,451.7,-479.8,43.7,36.8,16,-250.1,25,17.4909,-848.335,-49.9125,11.5552,7.28093,-92.3652,
2026_07_06_16_24_00.538,3.867,47.6,0,0.772,0,0,0,0, ,0,0,0,0,0, ,521.2,-419.1,65.3,36.4,27,-248.1,25,46.0681,-824.028,-43.5498,13.0814,8.1474,-101.916,
2026_07_06_16_24_00.563,3.867,47.7,0,0.772,0,0,0,0, ,0,0,0,0,0, ,618.7,-444,75.8,47.9,25,-250.1,25,77.9921,-800.111,-36.5969,14.8527,9.2353,-110.885,
2026_07_06_16_24_00.578,3.867,47.7,0,0.772,0,0,0,0, ,0,0,0,0,0, ,574.8,-233.5,92.6,46.4,12.1,-250.1,25,109.604,-771.997,-29.2358,16.8208,9.80291,-119.369,
2026_07_06_16_24_00.603,3.867,47.6,0,0.772,0,0,0,0, ,0,0,0,0,0, ,656.9,-208.9,119.8,81.8,-8.8,-244.7,25,140.453,-738.433,-20.9827,19.7019,9.30609,-127.171,
2026_07_06_16_24_00.617,3.867,47.7,0,0.772,0,0,0,0, ,0,0,0,0,0, ,662.8,-121.7,82.6,93.7,-24.6,-220.5,25,172.104,-703.508,-13.5372,23.8486,7.72135,-133.595,
2026_07_06_16_24_00.645,3.867,47.6,0,0.775,0,0,0,0, ,0,0,0,0,0, ,751.5,21.7,54.3,101,-18.6,-213.3,25,204.708,-663.684,-8.54111,28.3276,5.93458,-138.672,
2026_07_06_16_24_00.656,3.867,47.6,0,0.773,0,0,0,0, ,0,0,0,0,0, ,840.3,143,36.1,98.5,3.6,-239.3,25,240.734,-618.223,-5.26626,32.6799,5.11591,-144.011,
2026_07_06_16_24_00.683,3.867,47.6,0,0.774,0,0,0,0, ,0,0,0,0,0, ,887.5,233.6,88.1,101.4,24.2,-250.1,25,278.708,-569.076,-1.16113,36.7792,5.65119,-150.147,
2026_07_06_16_24_00.697,3.867,47.6,0,0.772,0,0,0,0, ,0,0,0,0,0, ,854.7,318.6,173.8,119.2,21.3,-250.1,25,314.807,-517.573,6.88939,41.2593,6.69315,-156.238,
2026_07_06_16_24_00.721,3.867,47.6,0,0.771,0,0,0,0, ,0,0,0,0,0, ,845.7,407.7,189.9,146.3,-18.3,-208.7,25,347.433,-463.904,17.5511,46.8346,6.37669,-160.696,
2026_07_06_16_24_00.737,3.867,47.7,0,0.772,0,0,0,0, ,0,0,0,0,0, ,930.2,534.5,162.2,156.5,-79.1,-146.4,25,380.37,-406.927,27.2096,53.2065,3.02045,-161.723,
2026_07_06_16_24_00.761,3.867,47.6,0,0.773,0,0,0,0, ,0,0,0,0,0, ,1027.2,664.7,74.4,153.2,-95.5,-121,25,416.831,-345.592,32.7604,59.4004,-2.48345,-160.016,
2026_07_06_16_24_00.776,3.867,47.6,0,0.772,0,0,0,0, ,0,0,0,0,0, ,1061.1,765.9,89.3,106.8,-48.1,-125,25,455.058,-280.944,35.7518,63.7026,-6.70743,-157.76,
2026_07_06_16_24_00.801,3.867,47.6,0,0.773,0,0,0,0, ,0,0,0,0,0, ,1046.3,737.6,125.9,58.1,-13.8,-129,25,491.538,-218.014,40.1301,64.845,-8.18471,-155.886,
2026_07_06_16_24_00.815,3.867,47.6,0,0.772,0,0,0,0, ,0,0,0,0,0, ,1042.6,664,72.1,33.6,-26.5,-109.7,25,525.231,-162.024,43.7174,63.6875,-8.91384,-153.659,
2026_07_06_16_24_00.840,3.867,47.5,0,0.771,0,0,0,0, ,0,0,0,0,0, ,1100.9,689.2,-33.5,40.5,-35.2,-96.6,25,558.535,-110.92,42.2295,62.0643,-10.2506,-150.581,
2026_07_06_16_24_00.855,3.867,47.6,0,0.772,0,0,0,0, ,0,0,0,0,0, ,1158.8,755.7,-23.5,49.9,-15.7,-91.7,25,593.349,-60.1365,37.9194,61.0366,-11.1768,-147.143,
2026_07_06_16_24_00.881,3.867,47.6,0,0.772,0,0,0,0, ,0,0,0,0,0, ,1133.3,830.5,53.8,54.9,0,-72.5,25,627.029,-8.14239,36.5319,60.5103,-10.9741,-143.179,
2026_07_06_16_24_00.895,3.867,47.5,0,0.772,0,0,0,0, ,0,0,0,0,0, ,1126.3,834.9,65.3,46.3,-19.2,-45.7,25,657.667,43.0964,37.9346,59.9064,-10.8903,-138.055,
2026_07_06_16_24_00.919,3.867,47.6,0,0.773,0,0,0,0, ,0,0,0,0,0, ,1123.2,766.3,20.2,40.8,-36.5,-16.6,25,686.13,89.2568,38.228,58.9097,-11.9238,-131.541,
2026_07_06_16_24_00.934,3.867,47.6,0,0.773,0,0,0,0, ,0,0,0,0,0, ,1062.8,763.6,-11.1,32.9,-32.3,1.7,25,710.923,130.432,36.1758,57.5654,-13.2935,-123.979,
2026_07_06_16_24_00.960,3.867,47.5,0,0.772,0,0,0,0, ,0,0,0,0,0, ,1046.9,714.2,-6.4,35.5,-27,2.9,25,731.882,167.51,33.4381,56.1416,-14.2902,-116.284,
2026_07_06_16_24_00.975,3.867,47.5,0,0.773,0,0,0,0, ,0,0,0,0,0, ,1041.8,714.4,2,42.2,-28.5,7,25,750.923,200.83,31.2664,55.0879,-15.1104,-108.896,
2026_07_06_16_24_00.999,3.867,47.6,0,0.772,0,0,0,0, ,0,0,0,0,0, ,1037.9,685.1,-14.5,27.3,-32.7,20.5,25,768.529,231.233,28.9802,53.8485,-16.0543,-101.423,
2026_07_06_16_24_01.014,3.867,47.4,0,0.772,0,0,0,0, ,0,0,0,0,0, ,1040.1,632,-41.7,9.6,-23.9,29.4,25,785.011,257.273,25.5019,51.6914,-16.8005,-93.7217,
2026_07_06_16_24_01.038,3.867,47.6,0,0.773,0,0,0,0, ,0,0,0,0,0, ,1000.7,593.3,-59.5,-5,-8.2,31.9,25,799.355,278.929,20.8645,48.6817,-16.7548,-86.1428,
2026_07_06_16_24_01.054,3.867,47.6,0,0.773,0,0,0,0, ,0,0,0,0,0, ,948.3,534.5,-55.7,-15.5,-0.3,36.1,25,810.028,296.294,16.083,45.0905,-15.9928,-78.8216,
2026_07_06_16_24_01.079,3.867,47.5,0,0.772,0,0,0,0, ,0,0,0,0,0, ,907.2,469.1,-50.6,-15.4,-2.1,42.2,25,817.202,308.817,11.8641,41.4013,-15.0913,-71.6327,
2026_07_06_16_24_01.092,3.867,47.5,0,0.773,0,0,0,0, ,0,0,0,0,0, ,875.2,426.2,-62.9,-13.6,-7.9,43.5,25,821.711,317.277,7.68297,37.9948,-14.4764,-64.6564,
2026_07_06_16_24_01.118,3.867,47.5,0,0.772,0,0,0,0, ,0,0,0,0,0, ,914.6,418,-83,-8.4,-5,45,25,826.171,323.665,2.7694,35.0092,-13.9873,-58.0199,
2026_07_06_16_24_01.133,3.867,47.5,0,0.772,0,0,0,0, ,0,0,0,0,0, ,918.2,411.8,-75.8,-7.7,0.7,47.2,25,831.669,329.225,-2.2378,32.3853,-13.2659,-51.6751,
2026_07_06_16_24_01.157,3.867,47.5,0,0.772,0,0,0,0, ,0,0,0,0,0, ,892.5,374.3,-67.7,-9.1,4.4,47.4,25,836.159,333.114,-6.4737,29.8999,-12.3022,-45.6438,
2026_07_06_16_24_01.172,3.867,47.4,0,0.773,0,0,0,0, ,0,0,0,0,0, ,865.1,326.6,-57,-10.9,-1.6,39.7,25,838.757,334.17,-9.87866,27.4685,-11.4672,-40.2086,
2026_07_06_16_24_01.197,3.867,47.5,0,0.772,0,0,0,0, ,0,0,0,0,0, ,859.9,308.7,-66.6,-9.2,-8.7,31.9,25,840.204,333.164,-13.0426,25.1822,-11.0822,-35.5768,
2026_07_06_16_24_01.212,3.867,47.4,0,0.77,0,0,0,0, ,0,0,0,0,0, ,872.6,306.7,-72,-4.5,-13.8,26.8,25,841.791,331.612,-16.4708,23.2303,-11.0925,-31.6203,
2026_07_06_16_24_01.237,3.867,47.4,0,0.772,0,0,0,0, ,0,0,0,0,0, ,909.3,335.4,-72.9,-1.9,-14,24.9,25,844.787,330.968,-19.882,21.6197,-11.2635,-28.1182,
2026_07_06_16_24_01.256,3.867,47.5,0,0.773,0,0,0,0, ,0,0,0,0,0, ,928.9,334.2,-76,-6.1,-10,29.1,25,849.315,331.202,-23.2073,20.0585,-11.3084,-24.7595,
2026_07_06_16_24_01.281,3.867,47.5,0,0.77,0,0,0,0, ,0,0,0,0,0, ,913.3,303.1,-82.3,-10.6,-10.3,30.2,25,853.69,330.437,-26.6163,18.3273,-11.2378,-21.4439,
2026_07_06_16_24_01.291,3.867,47.7,0,0.772,0,0,0,0, ,0,0,0,0,0, ,904,284,-88.7,-9.8,-15,26,25,857.039,328.189,-30.2045,16.589,-11.3239,-18.4248,
2026_07_06_16_24_01.316,3.867,47.5,0,0.772,0,0,0,0, ,0,0,0,0,0, ,917.8,283.5,-105.1,-6.5,-21.6,21,25,860.321,325.481,-34.2688,15.0814,-11.749,-15.87,
2026_07_06_16_24_01.330,3.867,47.4,0,0.772,0,0,0,0, ,0,0,0,0,0, ,954.2,295,-122.6,-2.5,-24.5,20,25,864.933,323.273,-39.1182,13.8882,-12.4376,-13.6537,
2026_07_06_16_24_01.357,3.867,47.5,0,0.77,0,0,0,0, ,0,0,0,0,0, ,977.7,298.5,-124.6,-2.6,-20.5,24.4,25,871.089,321.657,-44.2663,12.8865,-13.0508,-11.4689,
2026_07_06_16_24_01.370,3.867,47.4,0,0.772,0,0,0,0, ,0,0,0,0,0, ,961.7,291.3,-130.7,-4,-16.9,27.9,25,877.098,320.027,-49.3475,11.9001,-13.3951,-9.17648,
2026_07_06_16_24_01.395,3.867,47.3,0,0.772,0,0,0,0, ,0,0,0,0,0, ,953.8,273.9,-140,-5.6,-17.6,26.9,25,882.012,317.746,-54.5883,10.8825,-13.63,-6.9476,
2026_07_06_16_24_01.410,3.867,47.4,0,0.772,0,0,0,0, ,0,0,0,0,0, ,956.2,261.4,-145,-4.2,-19.1,25.1,25,886.46,314.693,-59.9454,9.92071,-13.9176,-4.93985,
2026_07_06_16_24_01.436,3.867,47.5,0,0.773,0,0,0,0, ,0,0,0,0,0, ,962.8,256.4,-150.3,-3,-20.7,26.9,25,890.911,311.293,-65.2899,9.0968,-14.2822,-3.05446,
2026_07_06_16_24_01.449,3.867,47.4,0,0.773,0,0,0,0, ,0,0,0,0,0, ,976,257.4,-163.3,-1.7,-20.5,32.8,25,895.694,307.979,-70.8663,8.39926,-14.6671,-1.04934,
2026_07_06_16_24_01.474,3.867,47.4,0,0.772,0,0,0,0, ,0,0,0,0,0, ,977.9,236.8,-166.5,-4.6,-17.5,39.3,25,900.645,304.269,-76.5965,7.69547,-14.9312,1.2114,
2026_07_06_16_24_01.489,3.867,47.5,0,0.772,0,0,0,0, ,0,0,0,0,0, ,963.2,209.1,-170.5,-6.8,-16.1,40,25,904.905,299.313,-82.1969,6.87919,-15.0451,3.55375,
2026_07_06_16_24_01.516,3.867,47.5,0,0.773,0,0,0,0, ,0,0,0,0,0, ,957,185.1,-176.3,-7.7,-15.1,35.9,25,908.269,293.085,-87.7546,6.01819,-15.0789,5.64977,
2026_07_06_16_24_01.529,3.867,47.4,0,0.772,0,0,0,0, ,0,0,0,0,0, ,968,168.8,-194.2,-13.3,-8.7,29.7,25,911.573,286.008,-93.6957,5.01161,-14.8852,7.30424,
2026_07_06_16_24_01.555,3.867,47.4,0,0.77,0,0,0,0, ,0,0,0,0,0, ,1015.9,158.2,-245.3,-29.1,13.2,21.3,25,916.471,278.543,-101.377,3.41434,-13.841,8.41304,
2026_07_06_16_24_01.567,3.867,47.4,0,0.773,0,0,0,0, ,0,0,0,0,0, ,1049.3,110.5,-279,-49.9,62.6,10.2,25,923.548,269.756,-111.174,0.799251,-10.688,8.86014,
2026_07_06_16_24_01.595,3.867,47.4,0,0.772,0,0,0,0, ,0,0,0,0,0, ,1004.6,66.6,-274,-64.9,117.3,-8.8,25,929.849,258.714,-121.249,-2.74727,-4.5554,8.36288,
2026_07_06_16_24_01.608,3.867,47.5,0,0.773,0,0,0,0, ,0,0,0,0,0, ,945.1,27.2,-216.1,-64.3,155.2,-26.5,25,932.591,245.806,-128.793,-6.51642,4.02493,6.77772,
2026_07_06_16_24_01.633,3.867,47.4,0,0.772,0,0,0,0, ,0,0,0,0,0, ,955.4,51.8,-152.3,-56.3,189,-45.7,25,933.667,233.234,-132.169,-9.79385,14.267,4.16486,
2026_07_06_16_24_01.647,3.867,47.4,0,0.772,0,0,0,0, ,0,0,0,0,0, ,962.8,115.9,-127.5,-61,228.1,-60.9,25,935.217,224.131,-132.64,-12.771,26.1061,0.663095,
2026_07_06_16_24_01.673,3.867,47.5,0,0.774,0,0,0,0, ,0,0,0,0,0, ,911.9,113.2,-40.5,-76.1,250.1,-72.3,25,935.347,217.454,-129.676,-16.1701,39.0854,-3.43575,
2026_07_06_16_24_01.687,3.867,47.5,0,0.773,0,0,0,0, ,0,0,0,0,0, ,812.6,74.8,57.9,-73.5,250.1,-82.9,25,930.893,209.931,-121.244,-19.7428,51.9441,-7.95513,
2026_07_06_16_24_01.713,3.867,47.4,0,0.773,0,0,0,0, ,0,0,0,0,0, ,754,102.5,166.1,-48.5,235.4,-85.7,25,921.899,202.54,-107.031,-22.2569,63.5714,-12.6074,
2026_07_06_16_24_01.726,3.867,47.4,0,0.773,0,0,0,0, ,0,0,0,0,0, ,762,160.6,250,-20.7,213.9,-78,25,911.911,198.214,-87.8305,-23.0091,73.3871,-16.8269,
2026_07_06_16_24_01.752,3.867,47.3,0,0.77,0,0,0,0, ,0,0,0,0,0, ,752.5,215.6,309.6,-10.5,206.9,-66.1,25,902.487,197.598,-65.428,-22.5576,81.7363,-20.192,
2026_07_06_16_24_01.766,3.867,47.4,0,0.77,0,0,0,0, ,0,0,0,0,0, ,706,227.5,399.6,0.2,196.3,-60.1,25,891.93,199.057,-39.8326,-21.4968,89.0405,-22.8067,
2026_07_06_16_24_01.794,3.867,47.5,0,0.772,0,0,0,0, ,0,0,0,0,0, ,630.1,227.5,457,6.3,176,-59,25,878.287,200.791,-11.3057,-19.9888,94.9581,-25.0458,
2026_07_06_16_24_01.804,3.867,47.4,0,0.772,0,0,0,0, ,0,0,0,0,0, ,610.4,247.9,497.8,20.2,154.6,-49.4,25,862.563,203.04,18.4748,-17.9633,99.2446,-26.8224,
2026_07_06_16_24_01.832,3.867,47.4,0,0.773,0,0,0,0, ,0,0,0,0,0, ,610.4,272.9,503.6,25.6,150.1,-43.9,25,847.197,206.535,47.8604,-15.4732,102.481,-28.0306,
2026_07_06_16_24_01.844,3.867,47.4,0,0.774,0,0,0,0, ,0,0,0,0,0, ,599.1,315.1,525.5,25.8,152.5,-32.8,25,832.423,211.865,76.2993,-12.9642,105.456,-28.6594,
2026_07_06_16_24_01.871,3.867,47.4,0,0.772,0,0,0,0, ,0,0,0,0,0, ,531.7,315.1,582.1,27.2,156,-29.6,25,816.151,218.156,105.397,-10.5594,108.429,-28.8143,
2026_07_06_16_24_01.885,3.867,47.4,0,0.773,0,0,0,0, ,0,0,0,0,0, ,443.1,312.9,639.7,35,144.1,-30.2,25,796.118,223.996,136.201,-8.02075,110.965,-28.8804,
2026_07_06_16_24_01.910,3.867,47.3,0,0.772,0,0,0,0, ,0,0,0,0,0, ,411.2,387.6,648.3,53.6,129.2,-20.6,25,773.634,231.69,167.145,-4.83245,112.53,-28.6683,
2026_07_06_16_24_01.925,3.867,47.4,0,0.772,0,0,0,0, ,0,0,0,0,0, ,372.4,476.6,710.5,58.2,122.2,-9.7,25,750.366,243.903,198.361,-1.13157,113.333,-27.8446,
2026_07_06_16_24_01.952,3.867,47.3,0,0.772,0,0,0,0, ,0,0,0,0,0, ,337.7,491,795.1,60,111,2.9,25,726.276,258.521,232.147,2.53879,113.532,-26.355,
2026_07_06_16_24_01.964,3.867,47.3,0,0.772,0,0,0,0, ,0,0,0,0,0, ,321.6,494.2,815.7,60.9,88.7,11.4,25,702.107,272.785,267.079,6.06775,112.698,-24.3133,
2026_07_06_16_24_01.992,3.867,47.4,0,0.772,0,0,0,0, ,0,0,0,0,0, ,333.4,517.8,778.4,60.2,75.6,14.7,25,679.279,286.997,299.374,9.38777,110.837,-22.0364,
2026_07_06_16_24_02.004,3.867,47.3,0,0.772,0,0,0,0, ,0,0,0,0,0, ,292.2,567.8,775.2,61.8,82.4,15.1,25,656.947,302.585,328.468,12.5329,108.897,-19.7856,
2026_07_06_16_24_02.031,3.867,47.3,0,0.772,0,0,0,0, ,0,0,0,0,0, ,220.3,579.4,854.4,65.7,79.2,10.4,25,632.53,319.1,358.103,15.6539,107.185,-17.803,
2026_07_06_16_24_02.044,3.867,47.4,0,0.773,0,0,0,0, ,0,0,0,0,0, ,208.2,635.1,897.7,62.7,55.6,8.4,25,607.041,336.659,389.666,18.6122,104.76,-16.1453,
2026_07_06_16_24_02.071,3.867,47.2,0,0.772,0,0,0,0, ,0,0,0,0,0, ,278.5,705.9,875.1,54,51.8,10.5,25,584.878,357.003,419.936,21.0337,101.649,-14.5856,
2026_07_06_16_24_02.083,3.867,47.3,0,0.773,0,0,0,0, ,0,0,0,0,0, ,256.2,697.5,909.9,48.8,57.2,13.5,25,565.529,378.008,448.732,22.8842,98.7756,-12.9655,
2026_07_06_16_24_02.109,3.867,47.4,0,0.77,0,0,0,0, ,0,0,0,0,0, ,247.9,694.7,957.1,45,38.9,13,25,546.426,397.391,478.273,24.3476,95.6845,-11.368,
2026_07_06_16_24_02.122,3.867,47.3,0,0.772,0,0,0,0, ,0,0,0,0,0, ,194.5,746.5,942.3,37,19.5,8.1,25,526.608,417.087,507.001,25.3624,91.6331,-10.0324,
2026_07_06_16_24_02.150,3.867,47.3,0,0.773,0,0,0,0, ,0,0,0,0,0, ,239.5,763.5,945.4,18.2,14.7,3,25,507.741,437.678,533.621,25.4987,87.0912,-9.08284,
2026_07_06_16_24_02.163,3.867,47.2,0,0.773,0,0,0,0, ,0,0,0,0,0, ,263.7,742.1,921.2,1.2,21.7,-1.7,25,492.132,456.881,557.976,24.536,82.8932,-8.48975,
2026_07_06_16_24_02.189,3.867,47.3,0,0.773,0,0,0,0, ,0,0,0,0,0, ,245.3,716.3,921,-1.2,20.3,-0.2,25,477.652,473.476,580.104,23.0408,79.1216,-8.03029,
2026_07_06_16_24_02.202,3.867,47.3,0,0.772,0,0,0,0, ,0,0,0,0,0, ,209.2,703.3,949.4,-7.3,3.4,3.4,25,462.393,487.877,601.743,21.3778,75.0222,-7.44345,
2026_07_06_16_24_02.227,3.867,47.2,0,0.77,0,0,0,0, ,0,0,0,0,0, ,192,665.7,924.9,-10,-18.5,-3.5,25,446.44,499.858,622.182,19.548,69.9905,-6.99291,
2026_07_06_16_24_02.242,3.867,47.3,0,0.772,0,0,0,0, ,0,0,0,0,0, ,268.3,718.1,846.5,-17.4,-18.2,-7.7,25,433.26,511.561,638.24,17.5219,64.6072,-6.90803,
2026_07_06_16_24_02.268,3.867,47.2,0,0.772,0,0,0,0, ,0,0,0,0,0, ,282.7,706.1,857.4,-23.3,-3.3,-4.3,25,423.646,523.781,651.263,15.2141,60.0151,-6.85269,
2026_07_06_16_24_02.281,3.867,47,0,0.772,0,0,0,0, ,0,0,0,0,0, ,241.3,690.7,938.2,-24.2,-17.8,6.2,25,413.796,534.422,666.286,12.8397,55.7151,-6.37722,
2026_07_06_16_24_02.309,3.867,47.2,0,0.772,0,0,0,0, ,0,0,0,0,0, ,219.1,689,982.5,-32.1,-52.4,19.4,25,402.608,543.893,684.206,10.3419,50.181,-5.20861,
2026_07_06_16_24_02.320,3.867,47.3,0,0.772,0,0,0,0, ,0,0,0,0,0, ,189.6,666.9,1015.9,-42.8,-109.9,35.6,25,390.527,552.062,703.401,7.42961,42.1781,-3.21543,
2026_07_06_16_24_02.349,3.867,47.2,0,0.772,0,0,0,0, ,0,0,0,0,0, ,197.8,595.4,935.5,-42.9,-177.2,41.7,25,378.533,556.882,719.994,4.3657,30.8602,-0.664252,
2026_07_06_16_24_02.360,3.867,47.2,0,0.773,0,0,0,0, ,0,0,0,0,0, ,299.9,593.6,851.5,-36.1,-223.7,38.4,25,370.63,559.174,730.567,1.69263,16.7648,1.81677,
2026_07_06_16_24_02.386,3.867,47.3,0,0.772,0,0,0,0, ,0,0,0,0,0, ,433.4,624,784.5,-34.9,-234.7,42.2,25,370.387,562.198,735.895,-0.573794,1.7763,4.16184,
2026_07_06_16_24_02.401,3.867,47.3,0,0.773,0,0,0,0, ,0,0,0,0,0, ,544.1,633.6,727.6,-38.8,-234,56.6,25,377.6,566.257,737.123,-2.78438,-12.6126,6.91854,
2026_07_06_16_24_02.427,3.867,47.2,0,0.772,0,0,0,0, ,0,0,0,0,0, ,578.7,561.7,617.4,-43.7,-234.1,72.9,25,388.801,568.17,733.185,-5.12837,-26.1065,10.4426,
2026_07_06_16_24_02.439,3.867,47.2,0,0.772,0,0,0,0, ,0,0,0,0,0, ,609.8,469.8,512.4,-37.9,-231.6,82.6,25,401.32,564.976,722.93,-7.30211,-38.7049,14.5442,
2026_07_06_16_24_02.467,3.867,47,0,0.773,0,0,0,0, ,0,0,0,0,0, ,652.2,424.8,456.6,-30.3,-232.8,89,25,415.316,557.805,708.401,-8.93511,-50.496,18.8863,
2026_07_06_16_24_02.480,3.867,47.2,0,0.772,0,0,0,0, ,0,0,0,0,0, ,691,366.3,389.4,-21.4,-237.8,99.7,25,430.933,547.917,691.009,-9.96586,-61.7575,23.4849,
2026_07_06_16_24_02.508,3.867,47,0,0.773,0,0,0,0, ,0,0,0,0,0, ,699.2,278.9,289.5,-4.1,-242.8,103.5,25,447.031,534.187,669.586,-10.1355,-72.6374,28.245,
2026_07_06_16_24_02.518,3.867,47.2,0,0.773,0,0,0,0, ,0,0,0,0,0, ,707.7,236.2,243.2,5.1,-246,102.7,25,462.657,517.329,645.014,-9.48742,-83.1042,32.8065,
2026_07_06_16_24_02.547,3.867,47.2,0,0.772,0,0,0,0, ,0,0,0,0,0, ,729.2,158.4,146.8,22.3,-248.3,96.5,25,478.244,497.828,617.591,-8.07443,-93.1008,36.8767,
2026_07_06_16_24_02.557,3.867,47.2,0,0.771,0,0,0,0, ,0,0,0,0,0, ,767.5,98.1,55.9,42,-237.3,88.4,25,494.704,475.307,586.133,-5.62326,-102.223,40.2632,
2026_07_06_16_24_02.585,3.867,47.2,0,0.77,0,0,0,0, ,0,0,0,0,0, ,784.1,70.9,-16.1,57.2,-220.7,81.8,25,511.833,451.492,551.628,-2.25809,-109.949,42.9955,
2026_07_06_16_24_02.596,3.867,47.2,0,0.773,0,0,0,0, ,0,0,0,0,0, ,792.2,51.3,-67,62.3,-202.6,77.8,25,528.671,427.702,515.481,1.52053,-116.146,45.2383,
2026_07_06_16_24_02.633,3.867,47.2,0,0.773,0,0,0,0, ,0,0,0,0,0, ,810.4,30,-102.5,61.1,-188.3,77,25,545.284,404.116,478.905,5.18771,-120.979,47.1981,
2026_07_06_16_24_02.638,3.867,47,0,0.774,0,0,0,0, ,0,0,0,0,0, ,824.5,-15,-150.7,50.6,-170.8,74.5,25,561.869,379.947,442.007,8.27495,-124.548,48.938,
2026_07_06_16_24_02.667,3.867,47,0,0.773,0,0,0,0, ,0,0,0,0,0, ,841.4,-33.6,-206.5,50.6,-142.4,70.9,25,578.388,355.314,404.188,10.8541,-126.501,50.386,
2026_07_06_16_24_02.677,3.867,47.2,0,0.772,0,0,0,0, ,0,0,0,0,0, ,812.6,-46.1,-222.4,45.7,-114.5,63.4,25,593.538,331.233,366.49,13.1268,-126.62,51.4075,
2026_07_06_16_24_02.704,3.867,47,0,0.772,0,0,0,0, ,0,0,0,0,0, ,799,-57.3,-232.1,34.1,-93,47.4,25,606.473,307.898,330.309,14.7583,-125.226,51.6508,
2026_07_06_16_24_02.717,3.867,47,0,0.773,0,0,0,0, ,0,0,0,0,0, ,804.8,-69.8,-278.5,16.8,-76.7,27.7,25,618.382,285.263,294.624,15.4099,-122.766,50.7916,
2026_07_06_16_24_02.745,3.867,47,0,0.772,0,0,0,0, ,0,0,0,0,0, ,836.3,-68.8,-336.7,1.4,-55.2,7.4,25,630.701,263.657,257.926,15.0254,-119.303,48.7659,
2026_07_06_16_24_02.757,3.867,47,0,0.772,0,0,0,0, ,0,0,0,0,0, ,857.6,-73.1,-390.8,-7.2,-28,-7.5,25,643.879,243.267,220.042,13.933,-114.568,45.7912,
2026_07_06_16_24_02.783,3.867,47.2,0,0.772,0,0,0,0, ,0,0,0,0,0, ,852.9,-46.7,-393.7,0.9,-11.4,-18.1,25,656.759,224.793,182.731,12.892,-108.787,42.2208,
2026_07_06_16_24_02.796,3.867,47,0,0.772,0,0,0,0, ,0,0,0,0,0, ,862.7,-9.2,-374.7,7.5,-13,-26.7,25,669.01,209.391,148.183,12.3624,-102.902,38.283,
2026_07_06_16_24_02.822,3.867,47.2,0,0.769,0,0,0,0, ,0,0,0,0,0, ,911.1,50.7,-385,-1.9,-18.9,-30.7,25,682.288,197.896,116.006,11.7797,-97.603,34.2012,
2026_07_06_16_24_02.836,3.867,47,0,0.772,0,0,0,0, ,0,0,0,0,0, ,970.9,88.6,-408.6,1.7,-18.3,-32.7,25,698.053,190.081,84.7572,11.0557,-92.7887,30.1853,
2026_07_06_16_24_02.864,3.867,47,0,0.771,0,0,0,0, ,0,0,0,0,0, ,1006.5,109.9,-440,-0.4,-13.2,-31.2,25,715.765,184.546,53.7365,10.4216,-88.0942,26.399,
2026_07_06_16_24_02.875,3.867,47,0,0.772,0,0,0,0, ,0,0,0,0,0, ,1017.9,125.4,-447.5,-1.5,-6,-28.4,25,733.829,180.469,23.4209,9.72868,-83.3109,22.9743,
2026_07_06_16_24_02.904,3.867,47,0,0.772,0,0,0,0, ,0,0,0,0,0, ,1043.2,158.6,-455.5,-3.8,-2,-25.6,25,751.91,178.125,-5.51955,8.97435,-78.4779,19.929,
2026_07_06_16_24_02.915,3.867,47,0,0.772,0,0,0,0, ,0,0,0,0,0, ,1085.3,171.8,-452.2,-3.7,6.4,-19.1,25,770.943,177.338,-32.8397,8.19896,-73.5616,17.3526,
2026_07_06_16_24_02.944,3.867,47,0,0.772,0,0,0,0, ,0,0,0,0,0, ,1101.3,185.4,-451.2,-4.7,17.2,-17.3,25,790.587,177.414,-58.364,7.4434,-68.3599,15.1862,
2026_07_06_16_24_02.954,3.867,47,0,0.772,0,0,0,0, ,0,0,0,0,0, ,1117.6,205.6,-438.5,-15.9,34.7,-22.8,25,810.018,178.517,-81.9155,6.36216,-62.6129,13.039,
2026_07_06_16_24_02.985,3.867,47.2,0,0.772,0,0,0,0, ,0,0,0,0,0, ,1126.8,208.3,-428.9,-27.1,60.3,-28.4,25,829.041,180.249,-103.352,4.66431,-55.9029,10.6844,
2026_07_06_16_24_02.994,3.867,47,0,0.773,0,0,0,0, ,0,0,0,0,0, ,1117.5,204.4,-398.3,-31.4,80.5,-31.4,25,846.903,181.84,-122.258,2.59766,-48.2063,8.21128,
2026_07_06_16_24_03.022,3.867,46.9,0,0.771,0,0,0,0, ,0,0,0,0,0, ,1103.5,223.2,-338.5,-25.5,89.6,-21.6,25,862.965,183.787,-137.257,0.705691,-40.086,6.09607,
2026_07_06_16_24_03.032,3.867,47,0,0.769,0,0,0,0, ,0,0,0,0,0, ,1088.9,238.7,-280.3,-22.1,89.4,-14.9,25,877.178,186.661,-147.747,-0.787624,-32.1893,4.61248,
2026_07_06_16_24_03.062,3.867,47,0,0.772,0,0,0,0, ,0,0,0,0,0, ,1068.8,246.2,-230.9,-24.3,91.6,-10.3,25,889.468,190.061,-154.32,-2.15338,-24.713,3.56359,
2026_07_06_16_24_03.072,3.867,46.9,0,0.772,0,0,0,0, ,0,0,0,0,0, ,1043.4,236,-172.7,-24.1,89.8,-5.5,25,899.622,193.171,-157.213,-3.49684,-17.68,2.86503,
2026_07_06_16_24_03.100,3.867,47,0,0.771,0,0,0,0, ,0,0,0,0,0, ,1063.2,268.6,-138.5,-28.7,88.6,1.8,25,908.987,196.774,-157.115,-4.8925,-11.167,2.57771,
2026_07_06_16_24_03.111,3.867,47,0,0.771,0,0,0,0, ,0,0,0,0,0, ,1051.2,253.2,-101.1,-40,99.2,5.8,25,918.018,200.682,-154.841,-6.68757,-4.76447,2.65219,
2026_07_06_16_24_03.140,3.867,47,0,0.771,0,0,0,0, ,0,0,0,0,0, ,1008.3,228.5,-41.8,-47.4,98.7,6.9,25,924.827,203.13,-149.759,-8.94302,1.55563,2.87753,
2026_07_06_16_24_03.156,3.867,47,0,0.771,0,0,0,0, ,0,0,0,0,0, ,970.3,201.1,10.1,-46.1,84.4,9,25,928.756,203.841,-141.599,-11.2469,7.03966,3.18663,
2026_07_06_16_24_03.185,3.867,47,0,0.772,0,0,0,0, ,0,0,0,0,0, ,957.6,192.9,23.5,-42.9,76,10.7,25,930.9,203.424,-131.947,-13.2732,11.4979,3.59268,
2026_07_06_16_24_03.191,3.867,46.9,0,0.772,0,0,0,0, ,0,0,0,0,0, ,941.7,195.1,60.3,-36.5,57.6,14.3,25,932.043,202.85,-121.353,-14.8836,14.8678,4.13547,
2026_07_06_16_24_03.221,3.867,46.9,0,0.771,0,0,0,0, ,0,0,0,0,0, ,953.9,238.4,107.9,-32.7,34.6,29,25,933.003,203.697,-108.833,-16.0851,16.7711,5.20276,
2026_07_06_16_24_03.231,3.867,46.9,0,0.771,0,0,0,0, ,0,0,0,0,0, ,945,190.4,131.4,-33.9,11.8,43.9,25,934.005,204.349,-94.9099,-17.1341,17.1628,7.10689,
2026_07_06_16_24_03.260,3.867,46.9,0,0.771,0,0,0,0, ,0,0,0,0,0, ,903.5,136.1,117.1,-29.8,-7.2,48.9,25,933.411,201.845,-81.5548,-18.0309,16.2571,9.50131,
2026_07_06_16_24_03.271,3.867,46.9,0,0.772,0,0,0,0, ,0,0,0,0,0, ,886.8,87.7,106.6,-22.9,-27.6,48.7,25,931.079,196.364,-69.7692,-18.5378,14.2061,11.8961,
2026_07_06_16_24_03.300,3.867,46.9,0,0.772,0,0,0,0, ,0,0,0,0,0, ,875.7,59.2,84.4,-7.8,-52.1,48.9,25,928.043,188.873,-59.6981,-18.3436,10.9121,14.1449,
2026_07_06_16_24_03.310,3.867,46.8,0,0.771,0,0,0,0, ,0,0,0,0,0, ,889.8,70.9,86.1,13.5,-80.2,62.7,25,925.283,181.328,-50.8653,-17.0521,6.21612,16.6833,
2026_07_06_16_24_03.338,3.867,46.9,0,0.772,0,0,0,0, ,0,0,0,0,0, ,851.9,22.8,67.3,39.6,-117.8,85.5,25,921.966,173.133,-43.0918,-14.3951,-0.19549,20.1821,
2026_07_06_16_24_03.349,3.867,46.8,0,0.774,0,0,0,0, ,0,0,0,0,0, ,823.3,-26.1,35.7,72.1,-167.8,104,25,916.825,162.482,-37.3276,-10.1145,-8.88545,24.7261,
2026_07_06_16_24_03.378,3.867,46.9,0,0.772,0,0,0,0, ,0,0,0,0,0, ,813.5,-73.7,-33.9,96.1,-214.4,118.9,25,910.827,149.54,-34.9981,-4.37332,-19.9891,30.0108,
2026_07_06_16_24_03.390,3.867,46.8,0,0.773,0,0,0,0, ,0,0,0,0,0, ,794.3,-112.9,-107.4,107.9,-246.8,125.2,25,904.311,134.742,-37.1707,2.1088,-32.8232,35.6195,
2026_07_06_16_24_03.419,3.867,46.9,0,0.771,0,0,0,0, ,0,0,0,0,0, ,760.3,-170.1,-166.7,111.4,-250.1,127.4,25,896.571,117.909,-43.2571,8.66209,-45.963,41.1453,
2026_07_06_16_24_03.428,3.867,46.8,0,0.772,0,0,0,0, ,0,0,0,0,0, ,676.2,-219.6,-255.7,109.1,-250.1,127.9,25,885.705,98.85,-53.4911,14.8526,-58.4026,46.4167,
2026_07_06_16_24_03.458,3.867,46.9,0,0.771,0,0,0,0, ,0,0,0,0,0, ,587.2,-292.3,-309.3,120.4,-250.1,133.2,25,870.227,77.2294,-67.4463,20.9401,-70.0842,51.5436,
2026_07_06_16_24_03.468,3.867,46.9,0,0.773,0,0,0,0, ,0,0,0,0,0, ,475.9,-382.6,-365.3,137.5,-250.1,135.2,25,849.588,51.9599,-83.8905,27.522,-81.0539,56.5804,
2026_07_06_16_24_03.497,3.867,46.8,0,0.772,0,0,0,0, ,0,0,0,0,0, ,466.1,-402.8,-467.6,134.3,-250.1,134.5,25,826.518,24.8634,-104.156,34.1262,-91.3551,61.35,
2026_07_06_16_24_03.508,3.867,46.8,0,0.772,0,0,0,0, ,0,0,0,0,0, ,424.5,-451.4,-541.7,108.9,-250.1,126.4,25,803.288,-2.67811,-128.561,39.4567,-101.029,65.5608,
2026_07_06_16_24_03.537,3.867,46.9,0,0.771,0,0,0,0, ,0,0,0,0,0, ,418.8,-542.7,-602.5,81.5,-250.1,109.9,25,780.032,-32.8039,-155.589,42.8535,-110.113,68.7654,
2026_07_06_16_24_03.547,3.867,46.9,0,0.772,0,0,0,0, ,0,0,0,0,0, ,348.2,-520.7,-650.2,81.1,-250.1,91.7,25,755.868,-63.2054,-184.276,45.1964,-118.643,70.7175,
2026_07_06_16_24_03.576,3.867,46.9,0,0.772,0,0,0,0, ,0,0,0,0,0, ,322.7,-462.4,-627.1,-14.3,-211.2,75.5,25,730.249,-89.3076,-211.965,44.4775,-125.469,71.5026,
2026_07_06_16_24_03.587,3.867,46.8,0,0.772,0,0,0,0, ,0,0,0,0,0, ,250.7,-450.8,-692.3,-52.5,-162.7,55,25,703.22,-111.69,-239.248,39.7319,-129.215,71.1215,
2026_07_06_16_24_03.616,3.867,46.8,0,0.771,0,0,0,0, ,0,0,0,0,0, ,158.3,-457.2,-744.3,-53.7,-126.5,38.8,25,672.829,-132.549,-268.441,34.0749,-130.153,69.6455,
2026_07_06_16_24_03.626,3.867,46.8,0,0.773,0,0,0,0, ,0,0,0,0,0, ,71.1,-477,-840.9,-52.7,-119.4,36,25,638.818,-152.936,-300.382,28.7566,-129.714,67.6806,
2026_07_06_16_24_03.657,3.867,46.7,0,0.771,0,0,0,0, ,0,0,0,0,0, ,90.6,-462.1,-912.3,-47.3,-127.7,46.7,25,604.817,-172.229,-335.495,23.9574,-129.338,66.0761,
2026_07_06_16_24_03.666,3.867,46.8,0,0.772,0,0,0,0, ,0,0,0,0,0, ,49.3,-436.8,-1008.7,-43,-110.9,58.5,25,572.224,-189.123,-373.581,19.7461,-128.726,65.2549,
2026_07_06_16_24_03.696,3.867,46.8,0,0.773,0,0,0,0, ,0,0,0,0,0, ,-36.8,-489.7,-1075.9,-46.7,-75.8,46.9,25,537.735,-205.827,-414.331,15.8098,-126.571,64.4898,
2026_07_06_16_24_03.711,3.867,46.7,0,0.772,0,0,0,0, ,0,0,0,0,0, ,-88.6,-561.6,-1074.3,-51,-56,32.6,25,501.146,-225.316,-454.597,11.8696,-122.874,62.9822,
2026_07_06_16_24_03.742,3.867,46.8,0,0.772,0,0,0,0, ,0,0,0,0,0, ,-88.7,-562.5,-1062.9,-53.1,-54.4,26.6,25,465.205,-245.836,-492.013,7.97451,-118.75,60.948,
2026_07_06_16_24_03.747,3.867,46.7,0,0.771,0,0,0,0, ,0,0,0,0,0, ,-77.5,-447.5,-1050.7,-48,-58.7,28.1,25,431.793,-261.629,-526.429,4.40817,-114.959,58.9006,
2026_07_06_16_24_03.778,3.867,46.7,0,0.773,0,0,0,0, ,0,0,0,0,0, ,-90.6,-387.8,-1061,-37.3,-49.4,32.4,25,400.359,-271.136,-558.691,1.54057,-111.248,57.1547,
2026_07_06_16_24_03.785,3.867,46.8,0,0.771,0,0,0,0, ,0,0,0,0,0, ,-111.5,-408.6,-1077.6,-33.5,-28,28.5,25,369.804,-278.879,-589.806,-0.7105,-106.827,55.5274,
2026_07_06_16_24_03.816,3.867,46.7,0,0.772,0,0,0,0, ,0,0,0,0,0, ,-196.4,-464.7,-1080.8,-33.3,-19,20.2,25,337.888,-288.494,-619.629,-2.70252,-101.749,53.6275,
2026_07_06_16_24_03.825,3.867,46.8,0,0.771,0,0,0,0, ,0,0,0,0,0, ,-174,-464.4,-1046.9,-28.2,-32.2,16.2,25,306.012,-299.222,-646.698,-4.41166,-97.1088,51.4687,
2026_07_06_16_24_03.855,3.867,46.8,0,0.772,0,0,0,0, ,0,0,0,0,0, ,-123.4,-408.8,-1069.4,-14.4,-32.9,20.6,25,278.303,-307.593,-671.771,-5.44079,-93.1747,49.4535,
2026_07_06_16_24_03.864,3.867,46.7,0,0.771,0,0,0,0, ,0,0,0,0,0, ,-115.9,-398,-1068.2,-8.6,-21.8,20.9,25,254.053,-313.432,-695.965,-5.81003,-89.1635,47.7044,
2026_07_06_16_24_03.894,3.867,46.7,0,0.772,0,0,0,0, ,0,0,0,0,0, ,-152.2,-431,-1056.6,-8.4,5.1,14.2,25,230.403,-319.59,-718.295,-5.97395,-84.239,45.8669,
2026_07_06_16_24_03.904,3.867,46.6,0,0.771,0,0,0,0, ,0,0,0,0,0, ,-211.4,-456.1,-1015.1,-5.8,12.6,7.8,25,205.284,-327.144,-737.646,-6.04256,-78.5664,43.7422,
2026_07_06_16_24_03.934,3.867,46.7,0,0.773,0,0,0,0, ,0,0,0,0,0, ,-205.4,-428.3,-974.4,-0.3,0.6,5.4,25,180.075,-334.155,-753.313,-5.86021,-73.3765,41.4788,
2026_07_06_16_24_03.944,3.867,46.7,0,0.774,0,0,0,0, ,0,0,0,0,0, ,-183.8,-381.9,-976.5,3.9,-2.5,1.3,25,157.243,-338.479,-766.849,-5.39341,-68.963,39.1554,
2026_07_06_16_24_03.974,3.867,46.7,0,0.769,0,0,0,0, ,0,0,0,0,0, ,-147.2,-389.4,-980.9,5.1,7.9,-3.2,25,137.576,-341.353,-779.759,-4.79053,-64.5961,36.7114,
2026_07_06_16_24_03.983,3.867,46.7,0,0.772,0,0,0,0, ,0,0,0,0,0, ,-137.5,-401.7,-988.2,3.6,20.5,-4.3,25,120.518,-344.656,-792.239,-4.23353,-59.7944,34.2458,
2026_07_06_16_24_04.013,3.867,46.8,0,0.772,0,0,0,0, ,0,0,0,0,0, ,-113.5,-418.7,-985.5,1,32.3,-4.3,25,105.527,-348.65,-804.098,-3.83539,-54.542,31.8969,
2026_07_06_16_24_04.023,3.867,46.7,0,0.772,0,0,0,0, ,0,0,0,0,0, ,-104.1,-412.7,-989.1,3.3,48.4,-7.5,25,92.466,-352.736,-815.262,-3.47066,-48.7595,29.5937,
2026_07_06_16_24_04.054,3.867,46.6,0,0.772,0,0,0,0, ,0,0,0,0,0, ,-66.5,-412.7,-1011.3,-1,65.5,-13.7,25,81.6334,-356.39,-826.531,-3.18909,-42.3178,27.1444,
2026_07_06_16_24_04.063,3.867,46.6,0,0.774,0,0,0,0, ,0,0,0,0,0, ,16.9,-431.8,-1050.4,-4.5,91.1,-18.8,25,75.1476,-360.403,-838.982,-3.16233,-34.9677,24.5,
2026_07_06_16_24_04.093,3.867,46.7,0,0.771,0,0,0,0, ,0,0,0,0,0, ,45,-429.3,-1056.6,-0.9,122,-21.8,25,72.4543,-364.678,-852.054,-3.13416,-26.3439,21.77,
2026_07_06_16_24_04.101,3.867,46.7,0,0.771,0,0,0,0, ,0,0,0,0,0, ,35.7,-413.5,-1026.4,5.9,140.9,-21.3,25,70.498,-368.134,-863.598,-2.79083,-16.7284,19.1302,
2026_07_06_16_24_04.132,3.867,46.7,0,0.772,0,0,0,0, ,0,0,0,0,0, ,79.9,-411.1,-1037.4,13.5,144.7,-19.8,25,69.7242,-370.826,-873.854,-2.02967,-7.00711,16.7122,
2026_07_06_16_24_04.142,3.867,46.6,0,0.773,0,0,0,0, ,0,0,0,0,0, ,132.5,-398.3,-1005.1,21.7,149.3,-20.5,25,71.9469,-372.89,-882.836,-0.833484,2.3777,14.4659,
2026_07_06_16_24_04.175,3.867,46.7,0,0.772,0,0,0,0, ,0,0,0,0,0, ,173.5,-386.3,-982.4,32.1,157.6,-27.2,25,76.8861,-374.073,-889.595,0.856525,11.5837,12.131,
2026_07_06_16_24_04.181,3.867,46.6,0,0.77,0,0,0,0, ,0,0,0,0,0, ,224.6,-391.4,-969.4,29.3,165.4,-27.6,25,84.3305,-374.973,-894.854,2.67511,20.7192,9.72212,
2026_07_06_16_24_04.212,3.867,46.6,0,0.772,0,0,0,0, ,0,0,0,0,0, ,297.4,-381.9,-940.7,8,172.2,-28.1,25,95.0963,-375.685,-898.522,3.64858,29.7429,7.43257,
2026_07_06_16_24_04.220,3.867,46.7,0,0.771,0,0,0,0, ,0,0,0,0,0, ,332.6,-380.4,-888.9,-3.8,191.1,-37.4,25,108.497,-376.018,-899.514,3.55421,38.9997,4.98394,
2026_07_06_16_24_04.251,3.867,46.6,0,0.772,0,0,0,0, ,0,0,0,0,0, ,363.6,-388.5,-832.2,-6.1,204.7,-47.2,25,123.097,-376.532,-897.14,3.03599,48.6827,2.10258,
2026_07_06_16_24_04.260,3.867,46.6,0,0.772,0,0,0,0, ,0,0,0,0,0, ,404,-410.1,-795.8,5,211.2,-47.6,25,138.984,-377.919,-892.074,2.81747,58.388,-0.913987,
2026_07_06_16_24_04.291,3.867,46.7,0,0.773,0,0,0,0, ,0,0,0,0,0, ,397,-392.2,-800.2,2.3,209.4,-42,25,154.92,-379.335,-886.341,2.8682,67.6452,-3.58829,
2026_07_06_16_24_04.298,3.867,46.6,0,0.772,0,0,0,0, ,0,0,0,0,0, ,421.5,-386.9,-699.5,-20,192.7,-45,25,170.418,-379.957,-878.024,2.15412,75.7745,-6.02041,
2026_07_06_16_24_04.329,3.867,46.7,0,0.769,0,0,0,0, ,0,0,0,0,0, ,496.7,-388.9,-614.7,-23.5,174.5,-54.4,25,188.01,-380.441,-864.561,0.697465,82.3451,-8.68214,
2026_07_06_16_24_04.339,3.867,46.7,0,0.771,0,0,0,0, ,0,0,0,0,0, ,547.6,-377.9,-592.5,-14.5,165.9,-62.4,25,208.372,-380.621,-848.659,-0.502849,87.6988,-11.7118,
2026_07_06_16_24_04.369,3.867,46.6,0,0.772,0,0,0,0, ,0,0,0,0,0, ,598,-358.7,-574.3,-3.8,155.2,-59.9,25,230.579,-379.871,-832.495,-1.02978,92.1382,-14.7245,
2026_07_06_16_24_04.379,3.867,46.6,0,0.772,0,0,0,0, ,0,0,0,0,0, ,612,-315.9,-531,-1.1,144.9,-57.4,25,253.395,-377.276,-815.442,-1.11633,95.6672,-17.4012,
2026_07_06_16_24_04.415,3.867,46.6,0,0.772,0,0,0,0, ,0,0,0,0,0, ,652.7,-267.8,-473.8,-20.9,138.5,-65.6,25,276.488,-372.071,-796.366,-1.71861,98.4723,-20.0884,
2026_07_06_16_24_04.420,3.867,46.6,0,0.772,0,0,0,0, ,0,0,0,0,0, ,710.5,-260.1,-432.4,-46,139.3,-79.1,25,301.174,-365.482,-775.448,-3.65225,100.936,-23.2731,
2026_07_06_16_24_04.452,3.867,46.6,0,0.772,0,0,0,0, ,0,0,0,0,0, ,755.8,-288.9,-451.7,-54.7,146.2,-86.7,25,327.498,-359.938,-755.131,-6.49789,103.484,-26.9066,
2026_07_06_16_24_04.458,3.867,46.6,0,0.772,0,0,0,0, ,0,0,0,0,0, ,771.1,-298.5,-426.5,-49.4,155.8,-86.6,25,354.064,-355.902,-735.873,-9.27372,106.379,-30.5473,
2026_07_06_16_24_04.488,3.867,46.6,0,0.771,0,0,0,0, ,0,0,0,0,0, ,783.4,-230.7,-352.6,-44.5,160,-93.3,25,379.852,-350.338,-714.769,-11.5696,109.519,-34.1671,
2026_07_06_16_24_04.497,3.867,46.6,0,0.771,0,0,0,0, ,0,0,0,0,0, ,811.1,-180.5,-282.4,-49.3,160.8,-102.4,25,405.287,-341.518,-690.561,-13.7226,112.62,-38.0478,
2026_07_06_16_24_04.528,3.867,46.6,0,0.769,0,0,0,0, ,0,0,0,0,0, ,816.2,-176.3,-264.4,-47.2,161,-104.4,25,430.171,-331.578,-665.14,-15.8266,115.562,-42.0302,
2026_07_06_16_24_04.537,3.867,46.6,0,0.772,0,0,0,0, ,0,0,0,0,0, ,828,-138.1,-246.2,-39.7,165.6,-105,25,454.055,-320.952,-640.165,-17.5099,118.471,-45.8491,
2026_07_06_16_24_04.568,3.867,46.6,0,0.773,0,0,0,0, ,0,0,0,0,0, ,806.2,-105.9,-172.1,-37.2,169.6,-102,25,476.178,-308.828,-613.9,-18.7859,121.464,-49.3622,
2026_07_06_16_24_04.576,3.867,46.6,0,0.772,0,0,0,0, ,0,0,0,0,0, ,770.2,-76.6,-73.6,-28.5,164.1,-105.5,25,495.191,-295.569,-583.977,-19.643,124.23,-52.6765,
2026_07_06_16_24_04.608,3.867,46.7,0,0.772,0,0,0,0, ,0,0,0,0,0, ,765.7,-0.3,-4.1,-12.4,149,-111.4,25,511.813,-279.901,-550.758,-19.6921,126.2,-56.0752,
2026_07_06_16_24_04.616,3.867,46.6,0,0.77,0,0,0,0, ,0,0,0,0,0, ,790,63.2,61.7,-7.5,119.9,-108,25,528.024,-260.928,-515.441,-19.0985,126.702,-59.3429,
2026_07_06_16_24_04.647,3.867,46.6,0,0.771,0,0,0,0, ,0,0,0,0,0, ,836.3,96.4,86.1,-2.2,93.1,-102.2,25,545.399,-240.165,-479.528,-18.2302,125.471,-62.1313,
2026_07_06_16_24_04.656,3.867,46.6,0,0.77,0,0,0,0, ,0,0,0,0,0, ,853.7,135.6,93.1,0,81.4,-104.9,25,563.656,-218.461,-444.847,-17.1863,123.142,-64.6552,
2026_07_06_16_24_04.689,3.867,46.5,0,0.77,0,0,0,0, ,0,0,0,0,0, ,915.4,217.2,113.2,9.8,70.2,-104.9,25,583.211,-194.4,-411.454,-15.8404,120.257,-67.1076,
2026_07_06_16_24_04.695,3.867,46.5,0,0.772,0,0,0,0, ,0,0,0,0,0, ,978.8,326.9,138.4,11.3,50.9,-91.1,25,605.385,-165.975,-378.715,-14.2323,116.619,-68.9901,
2026_07_06_16_24_04.727,3.867,46.5,0,0.771,0,0,0,0, ,0,0,0,0,0, ,1069.2,380.2,158,11.6,38.3,-78.4,25,630.894,-134.317,-346.606,-12.6673,112.23,-69.9505,
2026_07_06_16_24_04.736,3.867,46.5,0,0.773,0,0,0,0, ,0,0,0,0,0, ,1113.4,428.3,189.8,7,39.9,-66.8,25,658.95,-101.498,-314.888,-11.3286,107.774,-70.112,
