UTC_Time,Vin,TC1,TC2,Rh1,Vh1,Ah1,Acp1,Dty1,Err1,Rh2,Vh2,Ah2,Acp2,Dty2,Err2,Accel_x,Accel_y,Accel_z,gyro_x,gyro_y,gyro_z,Temp_c,Accel_x_h,Accel_y_h,Accel_z_h,gyro_x_h,gyro_y_h,gyro_z_h,
2026_07_06_20_08_20.153,3.872,54,0,0.775,0,0,0,0, ,0,0,0,0,0, ,-39.1,382.9,924,-0.1,-0.5,-1.6,25,-39.1,382.9,924,-0.1,-0.5,-1.6,
2026_07_06_20_08_20.173,3.872,54.1,0,0.776,0,0,0,0, ,0,0,0,0,0, ,-40,383.5,923.2,-0.1,-0.5,-1.6,25,-39.1274,382.918,923.976,-0.1,-0.5,-1.6,
2026_07_06_20_08_20.193,3.872,54,0,0.776,0,0,0,0, ,0,0,0,0,0, ,-40.8,384.1,923.7,-0.1,-0.6,-1.6,25,-39.205,382.972,923.944,-0.1,-0.503047,-1.6,
2026_07_06_20_08_20.212,3.872,54.1,0,0.777,0,0,0,0, ,0,0,0,0,0, ,-38.6,385.3,923.2,0,-0.5,-1.6,25,-39.2351,383.077,923.914,-0.0969531,-0.505908,-1.6,
2026_07_06_20_08_20.232,3.872,54,0,0.776,0,0,0,0, ,0,0,0,0,0, ,-39.7,382.5,922.8,-0.1,-0.6,-1.6,25,-39.2299,383.127,923.858,-0.0940919,-0.508595,-1.6,
2026_07_06_20_08_20.252,3.872,54.1,0,0.774,0,0,0,0, ,0,0,0,0,0, ,-38.9,384,922.9,-0.2,-0.6,-1.6,25,-39.2342,383.135,923.796,-0.0974988,-0.514165,-1.6,
2026_07_06_20_08_20.272,3.872,54,0,0.777,0,0,0,0, ,0,0,0,0,0, ,-40.6,385.3,924.1,0,-0.5,-1.6,25,-39.2656,383.227,923.778,-0.0976512,-0.516349,-1.6,
2026_07_06_20_08_20.292,3.872,54,0,0.777,0,0,0,0, ,0,0,0,0,0, ,-39.5,384.3,922.2,0,-0.5,-1.4,25,-39.3134,383.323,923.74,-0.0917006,-0.515352,-1.59391,
2026_07_06_20_08_20.317,3.872,54,0,0.779,0,0,0,0, ,0,0,0,0,0, ,-40.1,383.1,924.1,-0.1,-0.5,-1.6,25,-39.3431,383.346,923.704,-0.0891595,-0.514417,-1.58818,
2026_07_06_20_08_20.331,3.872,54,0,0.777,0,0,0,0, ,0,0,0,0,0, ,-40.5,384.6,924.4,-0.3,-0.6,-1.6,25,-39.4014,383.377,923.737,-0.0959138,-0.516585,-1.5889,
2026_07_06_20_08_20.351,3.872,53.8,0,0.778,0,0,0,0, ,0,0,0,0,0, ,-39.9,383.7,923.7,0,-0.6,-1.5,25,-39.4501,383.424,923.756,-0.0992097,-0.521668,-1.58653,
2026_07_06_20_08_20.370,3.872,53.8,0,0.776,0,0,0,0, ,0,0,0,0,0, ,-39.4,383.9,924,0,-0.6,-1.5,25,-39.4623,383.447,923.762,-0.0931641,-0.526442,-1.58126,
2026_07_06_20_08_20.390,3.872,53.8,0,0.777,0,0,0,0, ,0,0,0,0,0, ,-39.7,383.5,925.1,-0.1,-0.5,-1.6,25,-39.4676,383.462,923.81,-0.0905338,-0.527877,-1.57936,
2026_07_06_20_08_20.410,3.872,54,0,0.777,0,0,0,0, ,0,0,0,0,0, ,-41,384.2,923.8,-0.1,-0.5,-1.5,25,-39.5214,383.486,923.849,-0.0911106,-0.526178,-1.57757,
2026_07_06_20_08_20.431,3.872,53.8,0,0.777,0,0,0,0, ,0,0,0,0,0, ,-38.6,385,923.8,0,-0.6,-1.5,25,-39.5383,383.554,923.846,-0.0886055,-0.52763,-1.57284,
2026_07_06_20_08_20.450,3.872,54,0,0.776,0,0,0,0, ,0,0,0,0,0, ,-38.9,384.7,923.5,0,-0.5,-1.5,25,-39.4903,383.633,923.834,-0.0832061,-0.528993,-1.5684,
2026_07_06_20_08_20.470,3.872,53.8,0,0.776,0,0,0,0, ,0,0,0,0,0, ,-39.7,384.6,923.5,-0.1,-0.6,-1.6,25,-39.4787,383.695,923.814,-0.0811826,-0.530273,-1.56728,
2026_07_06_20_08_20.490,3.872,53.8,0,0.776,0,0,0,0, ,0,0,0,0,0, ,-39.7,385.1,923.4,-0.2,-0.5,-1.5,25,-39.4922,383.765,923.792,-0.0853761,-0.531475,-1.56623,
2026_07_06_20_08_20.509,3.872,53.8,0,0.778,0,0,0,0, ,0,0,0,0,0, ,-40.4,384.2,925,0,-0.6,-1.6,25,-39.5262,383.819,923.817,-0.0862673,-0.532604,-1.56524,
2026_07_06_20_08_20.529,3.872,53.8,0,0.777,0,0,0,0, ,0,0,0,0,0, ,-39.6,383.1,923.4,0,-0.5,-1.5,25,-39.5551,383.809,923.84,-0.0810104,-0.533664,-1.56431,
2026_07_06_20_08_20.549,3.872,53.8,0,0.776,0,0,0,0, ,0,0,0,0,0, ,-39.6,384.3,923,-0.2,-0.6,-1.5,25,-39.5578,383.802,923.801,-0.0821675,-0.53466,-1.56039,
2026_07_06_20_08_20.568,3.872,53.7,0,0.777,0,0,0,0, ,0,0,0,0,0, ,-39.5,384.2,923.7,0,-0.5,-1.6,25,-39.5573,383.829,923.773,-0.0832542,-0.535595,-1.55976,
2026_07_06_20_08_20.588,3.872,53.7,0,0.776,0,0,0,0, ,0,0,0,0,0, ,-39.3,384.6,923.5,0.1,-0.5,-1.5,25,-39.5477,383.864,923.763,-0.075134,-0.533426,-1.55916,
2026_07_06_20_08_20.608,3.872,53.7,0,0.776,0,0,0,0, ,0,0,0,0,0, ,-40.2,384.2,923.5,0,-0.6,-1.5,25,-39.5601,383.897,923.747,-0.0675087,-0.534436,-1.55556,
2026_07_06_20_08_20.628,3.872,53.8,0,0.777,0,0,0,0, ,0,0,0,0,0, ,-40.7,384.6,923.7,-0.1,-0.5,-1.6,25,-39.6143,383.927,923.738,-0.0664417,-0.535384,-1.55522,
2026_07_06_20_08_20.648,3.872,53.7,0,0.775,0,0,0,0, ,0,0,0,0,0, ,-39.9,384.3,923.4,0,-0.5,-1.5,25,-39.6561,383.959,923.726,-0.0654398,-0.533228,-1.5549,
2026_07_06_20_08_20.668,3.872,53.7,0,0.776,0,0,0,0, ,0,0,0,0,0, ,-39.7,383.3,925,0,-0.6,-1.5,25,-39.6648,383.95,923.755,-0.0614521,-0.53425,-1.55156,
2026_07_06_20_08_20.688,3.872,53.8,0,0.775,0,0,0,0, ,0,0,0,0,0, ,-39.7,383.3,924.4,0,-0.5,-1.6,25,-39.667,383.91,923.813,-0.0577074,-0.53521,-1.55146,
2026_07_06_20_08_20.707,3.872,53.7,0,0.775,0,0,0,0, ,0,0,0,0,0, ,-39,384.8,923.4,0,-0.5,-1.5,25,-39.6477,383.919,923.818,-0.0541908,-0.533064,-1.55137,
2026_07_06_20_08_20.727,3.872,53.7,0,0.777,0,0,0,0, ,0,0,0,0,0, ,-39.9,383.9,923,0,-0.6,-1.5,25,-39.6356,383.945,923.781,-0.0508886,-0.534096,-1.54824,
2026_07_06_20_08_20.747,3.872,53.8,0,0.777,0,0,0,0, ,0,0,0,0,0, ,-40,383.4,925.5,-0.1,-0.5,-1.6,25,-39.6548,383.927,923.809,-0.0508344,-0.535065,-1.54835,
2026_07_06_20_08_20.767,3.872,53.7,0,0.777,0,0,0,0, ,0,0,0,0,0, ,-39.3,383.7,923,-0.1,-0.6,-1.5,25,-39.6545,383.904,923.836,-0.0538304,-0.535975,-1.54845,
2026_07_06_20_08_20.787,3.872,53.6,0,0.776,0,0,0,0, ,0,0,0,0,0, ,-40,385,925.2,0,-0.6,-1.5,25,-39.6542,383.931,923.852,-0.053597,-0.539877,-1.5455,
2026_07_06_20_08_20.807,3.872,53.7,0,0.776,0,0,0,0, ,0,0,0,0,0, ,-41.2,384,923,0,-0.5,-1.5,25,-39.7119,383.966,923.867,-0.050331,-0.540494,-1.54272,
2026_07_06_20_08_20.826,3.872,53.7,0,0.776,0,0,0,0, ,0,0,0,0,0, ,-38,383.9,923.2,-0.1,-0.5,-1.6,25,-39.705,383.965,923.82,-0.0503108,-0.538026,-1.54317,
2026_07_06_20_08_20.852,3.872,53.6,0,0.776,0,0,0,0, ,0,0,0,0,0, ,-40,383.6,921.9,-0.2,-0.6,-1.6,25,-39.6621,383.952,923.743,-0.0563856,-0.538756,-1.54663,
2026_07_06_20_08_20.866,3.872,53.7,0,0.776,0,0,0,0, ,0,0,0,0,0, ,-39.6,384.5,924.4,0,-0.5,-1.5,25,-39.6705,383.958,923.707,-0.0590433,-0.539441,-1.54684,
2026_07_06_20_08_20.886,3.872,53.7,0,0.776,0,0,0,0, ,0,0,0,0,0, ,-39.1,383.5,924,-0.1,-0.6,-1.5,25,-39.6509,383.96,923.737,-0.0584923,-0.540084,-1.54398,
2026_07_06_20_08_20.906,3.872,53.6,0,0.776,0,0,0,0, ,0,0,0,0,0, ,-38.9,383.6,922.7,-0.2,-0.6,-1.5,25,-39.6113,383.935,923.713,-0.0640685,-0.543736,-1.5413,
2026_07_06_20_08_20.925,3.872,53.6,0,0.776,0,0,0,0, ,0,0,0,0,0, ,-38.5,385.2,922.4,-0.1,-0.5,-1.6,25,-39.5558,383.964,923.642,-0.069305,-0.544117,-1.54183,
2026_07_06_20_08_20.945,3.872,53.5,0,0.776,0,0,0,0, ,0,0,0,0,0, ,-40.4,383,924,0,-0.6,-1.6,25,-39.5493,383.972,923.616,-0.0681286,-0.544476,-1.54538,
2026_07_06_20_08_20.964,3.872,53.6,0,0.777,0,0,0,0, ,0,0,0,0,0, ,-39.9,383.1,922.9,-0.1,-0.5,-1.6,25,-39.5859,383.916,923.605,-0.0670239,-0.544812,-1.54871,
2026_07_06_20_08_20.989,3.872,53.6,0,0.777,0,0,0,0, ,0,0,0,0,0, ,-39.5,385,924.1,-0.2,-0.5,-1.6,25,-39.5929,383.924,923.599,-0.0720802,-0.542082,-1.55183,
2026_07_06_20_08_21.004,3.872,53.6,0,0.775,0,0,0,0, ,0,0,0,0,0, ,-39.9,384.2,922.8,-0.1,-0.5,-1.6,25,-39.5994,383.965,923.59,-0.0768285,-0.539517,-1.55477,
2026_07_06_20_08_21.024,3.872,53.6,0,0.776,0,0,0,0, ,0,0,0,0,0, ,-37.5,384,923,0,-0.6,-1.5,25,-39.5446,383.973,923.548,-0.0751936,-0.540156,-1.55448,
2026_07_06_20_08_21.049,3.872,53.6,0,0.776,0,0,0,0, ,0,0,0,0,0, ,-40.4,382.8,924.6,-0.1,-0.5,-1.6,25,-39.5084,383.938,923.563,-0.0736584,-0.540756,-1.5542,
2026_07_06_20_08_21.064,3.872,53.6,0,0.775,0,0,0,0, ,0,0,0,0,0, ,-39.7,384.7,923,-0.1,-0.5,-1.5,25,-39.5414,383.927,923.578,-0.0752636,-0.538272,-1.55395,
2026_07_06_20_08_21.084,3.872,53.5,0,0.777,0,0,0,0, ,0,0,0,0,0, ,-39.9,385.8,922.9,0,-0.5,-1.6,25,-39.5571,384.008,923.539,-0.0737241,-0.53594,-1.55371,
2026_07_06_20_08_21.103,3.872,53.6,0,0.777,0,0,0,0, ,0,0,0,0,0, ,-39.1,382.6,923,0,-0.5,-1.5,25,-39.5536,384.019,923.503,-0.0692315,-0.53375,-1.55348,
2026_07_06_20_08_21.128,3.872,53.5,0,0.775,0,0,0,0, ,0,0,0,0,0, ,-39.1,384.7,922.7,-0.1,-0.6,-1.6,25,-39.526,383.997,923.464,-0.0680596,-0.53474,-1.55327,
2026_07_06_20_08_21.144,3.872,53.5,0,0.777,0,0,0,0, ,0,0,0,0,0, ,-39.4,384.5,923.2,-0.1,-0.4,-1.6,25,-39.5092,384.034,923.432,-0.070006,-0.532623,-1.55612,
2026_07_06_20_08_21.163,3.872,53.5,0,0.777,0,0,0,0, ,0,0,0,0,0, ,-38,383.6,923.7,-0.1,-0.5,-1.6,25,-39.4599,384.035,923.433,-0.0718337,-0.527588,-1.55879,
2026_07_06_20_08_21.183,3.872,53.6,0,0.777,0,0,0,0, ,0,0,0,0,0, ,-39.9,384,923.4,0,-0.5,-1.6,25,-39.4288,384.02,923.441,-0.0705032,-0.525907,-1.5613,
2026_07_06_20_08_21.202,3.872,53.5,0,0.777,0,0,0,0, ,0,0,0,0,0, ,-40,383.7,922.8,-0.1,-0.5,-1.6,25,-39.4606,384.01,923.42,-0.0692538,-0.524329,-1.56366,
2026_07_06_20_08_21.223,3.872,53.5,0,0.775,0,0,0,0, ,0,0,0,0,0, ,-39.4,384.2,922.8,-0.1,-0.5,-1.5,25,-39.4752,384.006,923.382,-0.0711274,-0.522846,-1.56283,
2026_07_06_20_08_21.242,3.872,53.5,0,0.776,0,0,0,0, ,0,0,0,0,0, ,-39.1,384.7,922.9,0,-0.5,-1.5,25,-39.4614,384.033,923.35,-0.06984,-0.521454,-1.559,
2026_07_06_20_08_21.261,3.872,53.6,0,0.775,0,0,0,0, ,0,0,0,0,0, ,-39.3,383,924.1,0,-0.6,-1.6,25,-39.4455,384.022,923.359,-0.0655841,-0.523193,-1.55845,
2026_07_06_20_08_21.286,3.872,53.5,0,0.775,0,0,0,0, ,0,0,0,0,0, ,-38.9,384.7,923.8,-0.1,-0.5,-1.6,25,-39.4244,384.012,923.395,-0.0646344,-0.524827,-1.56098,
2026_07_06_20_08_21.301,3.872,53.5,0,0.777,0,0,0,0, ,0,0,0,0,0, ,-38.9,384.7,923.5,0,-0.5,-1.6,25,-39.3925,384.054,923.41,-0.0637426,-0.523314,-1.56336,
2026_07_06_20_08_21.321,3.872,53.5,0,0.776,0,0,0,0, ,0,0,0,0,0, ,-40.1,383.6,923,0,-0.5,-1.6,25,-39.399,384.059,923.401,-0.0598583,-0.521893,-1.56559,
2026_07_06_20_08_21.341,3.872,53.5,0,0.777,0,0,0,0, ,0,0,0,0,0, ,-40.1,384,922.9,0,-0.5,-1.6,25,-39.4418,384.044,923.373,-0.0562107,-0.520559,-1.56769,
2026_07_06_20_08_21.360,3.872,53.4,0,0.777,0,0,0,0, ,0,0,0,0,0, ,-39.5,385.2,924,-0.1,-0.6,-1.5,25,-39.4636,384.078,923.378,-0.0558322,-0.522353,-1.56661,
2026_07_06_20_08_21.381,3.872,53.5,0,0.775,0,0,0,0, ,0,0,0,0,0, ,-39.1,383.7,924,-0.1,-0.6,-1.5,25,-39.4536,384.1,923.416,-0.0585237,-0.527085,-1.56255,
2026_07_06_20_08_21.401,3.872,53.4,0,0.777,0,0,0,0, ,0,0,0,0,0, ,-40.1,383.9,922.4,-0.2,-0.6,-1.5,25,-39.4625,384.082,923.403,-0.0640981,-0.531528,-1.55874,
2026_07_06_20_08_21.422,3.872,53.4,0,0.776,0,0,0,0, ,0,0,0,0,0, ,-38.9,385.1,922.2,-0.1,-0.5,-1.5,25,-39.4648,384.107,923.335,-0.0693327,-0.532654,-1.55516,
2026_07_06_20_08_21.440,3.872,53.4,0,0.777,0,0,0,0, ,0,0,0,0,0, ,-38.5,383.9,923.5,0,-0.5,-1.5,25,-39.4182,384.131,923.306,-0.0681546,-0.530664,-1.5518,
2026_07_06_20_08_21.459,3.872,53.4,0,0.777,0,0,0,0, ,0,0,0,0,0, ,-40.2,383.6,923,-0.1,-0.5,-1.6,25,-39.4141,384.108,923.302,-0.0670483,-0.528795,-1.55169,
2026_07_06_20_08_21.479,3.872,53.5,0,0.777,0,0,0,0, ,0,0,0,0,0, ,-39.6,383.5,922.7,-0.1,-0.5,-1.6,25,-39.4437,384.074,923.275,-0.0690563,-0.527041,-1.55463,
2026_07_06_20_08_21.499,3.872,53.4,0,0.774,0,0,0,0, ,0,0,0,0,0, ,-40.6,383.4,924.3,0,-0.5,-1.6,25,-39.4837,384.036,923.289,-0.0678951,-0.525393,-1.5574,
2026_07_06_20_08_21.519,3.872,53.4,0,0.778,0,0,0,0, ,0,0,0,0,0, ,-39.6,384.3,923.3,0,-0.5,-1.5,25,-39.5212,384.025,923.32,-0.0637577,-0.523845,-1.55695,
2026_07_06_20_08_21.539,3.872,53.3,0,0.778,0,0,0,0, ,0,0,0,0,0, ,-40.2,383.5,923.7,-0.2,-0.5,-1.6,25,-39.5443,384.017,923.331,-0.0659662,-0.522392,-1.55652,
2026_07_06_20_08_21.559,3.872,53.4,0,0.777,0,0,0,0, ,0,0,0,0,0, ,-39.4,384.1,924.8,-0.1,-0.6,-1.6,25,-39.5599,384.004,923.387,-0.071087,-0.524075,-1.55917,
2026_07_06_20_08_21.578,3.872,53.3,0,0.775,0,0,0,0, ,0,0,0,0,0, ,-39.4,384.5,923.7,-0.1,-0.6,-1.5,25,-39.5501,384.022,923.439,-0.0728489,-0.528701,-1.55861,
2026_07_06_20_08_21.598,3.872,53.4,0,0.776,0,0,0,0, ,0,0,0,0,0, ,-39.3,382.8,922.4,0,-0.6,-1.5,25,-39.5379,383.999,923.416,-0.0714566,-0.533046,-1.55504,
2026_07_06_20_08_21.619,3.872,53.3,0,0.777,0,0,0,0, ,0,0,0,0,0, ,-40.2,383.5,922.7,-0.2,-0.6,-1.5,25,-39.5509,383.948,923.363,-0.0731959,-0.537126,-1.55169,
2026_07_06_20_08_21.638,3.872,53.3,0,0.777,0,0,0,0, ,0,0,0,0,0, ,-40.2,385.4,922.9,-0.2,-0.6,-1.6,25,-39.5904,383.978,923.329,-0.080923,-0.540958,-1.55159,
2026_07_06_20_08_21.658,3.872,53.4,0,0.776,0,0,0,0, ,0,0,0,0,0, ,-39.7,384.7,924.4,0,-0.6,-1.6,25,-39.6123,384.043,923.348,-0.0820856,-0.544555,-1.55454,
2026_07_06_20_08_21.682,3.872,53.3,0,0.776,0,0,0,0, ,0,0,0,0,0, ,-38.9,383.6,923.7,-0.1,-0.5,-1.5,25,-39.5933,384.05,923.391,-0.0801303,-0.544887,-1.55426,
2026_07_06_20_08_21.697,3.872,53.3,0,0.776,0,0,0,0, ,0,0,0,0,0, ,-40,384.6,923.9,-0.2,-0.5,-1.6,25,-39.5846,384.053,923.416,-0.084388,-0.542152,-1.554,
2026_07_06_20_08_21.718,3.872,53.3,0,0.776,0,0,0,0, ,0,0,0,0,0, ,-39.7,385.1,923.8,-0.1,-0.5,-1.5,25,-39.6007,384.102,923.442,-0.0883863,-0.539583,-1.55376,
2026_07_06_20_08_21.737,3.872,53.2,0,0.776,0,0,0,0, ,0,0,0,0,0, ,-39.4,385,922.9,0,-0.5,-1.6,25,-39.5977,384.159,923.437,-0.0860471,-0.537171,-1.55353,
2026_07_06_20_08_21.757,3.872,53.3,0,0.775,0,0,0,0, ,0,0,0,0,0, ,-40.5,383.4,923,-0.1,-0.6,-1.5,25,-39.6191,384.162,923.407,-0.0838505,-0.537953,-1.55331,
2026_07_06_20_08_21.777,3.872,53.3,0,0.776,0,0,0,0, ,0,0,0,0,0, ,-39.6,383.4,923.3,-0.1,-0.6,-1.6,25,-39.6454,384.115,923.391,-0.0848346,-0.541734,-1.55311,
2026_07_06_20_08_21.797,3.872,53.3,0,0.776,0,0,0,0, ,0,0,0,0,0, ,-39.6,383.6,922.6,-0.1,-0.5,-1.6,25,-39.6426,384.078,923.364,-0.0857587,-0.542238,-1.55597,
2026_07_06_20_08_21.819,3.872,53.3,0,0.776,0,0,0,0, ,0,0,0,0,0, ,-39.9,384.1,922.7,0,-0.5,-1.5,25,-39.6492,384.064,923.321,-0.0835797,-0.539664,-1.5556,
2026_07_06_20_08_21.836,3.872,53.2,0,0.777,0,0,0,0, ,0,0,0,0,0, ,-39.9,385,923.5,-0.1,-0.5,-1.6,25,-39.6644,384.094,923.307,-0.0815334,-0.537247,-1.55526,
2026_07_06_20_08_21.856,3.872,53.3,0,0.778,0,0,0,0, ,0,0,0,0,0, ,-39.9,384.7,923.7,-0.2,-0.6,-1.5,25,-39.6788,384.14,923.325,-0.0857056,-0.538024,-1.55494,
2026_07_06_20_08_21.876,3.872,53.3,0,0.776,0,0,0,0, ,0,0,0,0,0, ,-39.7,385.1,923.4,0,-0.6,-1.6,25,-39.6862,384.186,923.339,-0.0865767,-0.541801,-1.55464,
2026_07_06_20_08_21.896,3.872,53.3,0,0.776,0,0,0,0, ,0,0,0,0,0, ,-40.4,384.3,924.3,0,-0.5,-1.5,25,-39.7084,384.217,923.37,-0.0813009,-0.5423,-1.55436,
2026_07_06_20_08_21.915,3.872,53.2,0,0.776,0,0,0,0, ,0,0,0,0,0, ,-39.1,383.7,923.5,0,-0.6,-1.5,25,-39.7109,384.204,923.402,-0.0763466,-0.542769,-1.55105,
2026_07_06_20_08_21.934,3.872,53.2,0,0.776,0,0,0,0, ,0,0,0,0,0, ,-41,384.8,922.7,-0.1,-0.6,-1.5,25,-39.7316,384.207,923.384,-0.0747411,-0.546257,-1.54793,
2026_07_06_20_08_21.955,3.872,53.3,0,0.776,0,0,0,0, ,0,0,0,0,0, ,-39.9,385.6,922.7,0,-0.6,-1.5,25,-39.7753,384.267,923.342,-0.0732335,-0.549532,-1.54501,
2026_07_06_20_08_21.974,3.872,53.3,0,0.776,0,0,0,0, ,0,0,0,0,0, ,-39.3,383.9,922.7,0,-0.5,-1.5,25,-39.7647,384.297,923.303,-0.0687708,-0.54956,-1.54227,
2026_07_06_20_08_21.994,3.872,53.1,0,0.776,0,0,0,0, ,0,0,0,0,0, ,-39.7,383.3,922.8,-0.1,-0.6,-1.6,25,-39.7485,384.254,923.269,-0.067627,-0.549587,-1.54274,
2026_07_06_20_08_22.013,3.872,53.2,0,0.776,0,0,0,0, ,0,0,0,0,0, ,-40.2,384.3,923.7,-0.1,-0.5,-1.6,25,-39.7608,384.227,923.268,-0.0695997,-0.549612,-1.54623,
2026_07_06_20_08_22.034,3.872,53.2,0,0.775,0,0,0,0, ,0,0,0,0,0, ,-40.2,384.2,923,0,-0.6,-1.5,25,-39.7876,384.228,923.273,-0.0684053,-0.549636,-1.54646,
2026_07_06_20_08_22.054,3.872,53.2,0,0.776,0,0,0,0, ,0,0,0,0,0, ,-40.1,383.5,922.8,-0.2,-0.5,-1.6,25,-39.8097,384.205,923.251,-0.0703306,-0.549658,-1.54668,
2026_07_06_20_08_22.078,3.872,53.2,0,0.776,0,0,0,0, ,0,0,0,0,0, ,-39.9,383.6,923,-0.1,-0.5,-1.5,25,-39.8213,384.165,923.229,-0.0751855,-0.546632,-1.54688,
2026_07_06_20_08_22.093,3.872,53.2,0,0.776,0,0,0,0, ,0,0,0,0,0, ,-39.3,384.3,922.3,0,-0.6,-1.5,25,-39.8078,384.152,923.194,-0.0736507,-0.546837,-1.54402,
2026_07_06_20_08_22.114,3.872,53.2,0,0.777,0,0,0,0, ,0,0,0,0,0, ,-39,383.5,922.8,-0.1,-0.5,-1.5,25,-39.7677,384.137,923.155,-0.0722095,-0.54703,-1.54134,
2026_07_06_20_08_22.133,3.872,53.1,0,0.776,0,0,0,0, ,0,0,0,0,0, ,-39.4,382,923.8,-0.2,-0.6,-1.5,25,-39.7331,384.052,923.163,-0.0769499,-0.547211,-1.53882,
2026_07_06_20_08_22.152,3.872,53.2,0,0.776,0,0,0,0, ,0,0,0,0,0, ,-39,384.3,923.7,-0.2,-0.6,-1.7,25,-39.7006,383.997,923.199,-0.0844482,-0.550428,-1.54255,
2026_07_06_20_08_22.172,3.872,53.1,0,0.776,0,0,0,0, ,0,0,0,0,0, ,-39.9,383.6,923.8,0,-0.6,-1.6,25,-39.6853,383.994,923.233,-0.0853959,-0.553449,-1.5491,
2026_07_06_20_08_22.192,3.872,53.2,0,0.776,0,0,0,0, ,0,0,0,0,0, ,-39.9,383.4,924.4,-0.1,-0.5,-1.6,25,-39.6984,383.964,923.286,-0.083239,-0.553239,-1.5522,
2026_07_06_20_08_22.212,3.872,53.2,0,0.777,0,0,0,0, ,0,0,0,0,0, ,-39.9,384.1,923.9,-0.2,-0.5,-1.6,25,-39.7107,383.951,923.338,-0.0873072,-0.549994,-1.55511,
2026_07_06_20_08_22.231,3.872,53.2,0,0.777,0,0,0,0, ,0,0,0,0,0, ,-39.7,385.6,922.7,-0.1,-0.5,-1.5,25,-39.7161,384.006,923.336,-0.0911276,-0.546948,-1.5548,
2026_07_06_20_08_22.252,3.872,53.1,0,0.776,0,0,0,0, ,0,0,0,0,0, ,-39.6,384.1,923.4,0,-0.5,-1.5,25,-39.7121,384.057,923.319,-0.0886214,-0.544087,-1.55146,
2026_07_06_20_08_22.271,3.872,53.1,0,0.776,0,0,0,0, ,0,0,0,0,0, ,-39.9,383.1,924.1,-0.1,-0.6,-1.6,25,-39.7144,384.029,923.345,-0.0862679,-0.544447,-1.55137,
2026_07_06_20_08_22.292,3.872,53.1,0,0.776,0,0,0,0, ,0,0,0,0,0, ,-41.2,384.3,923.4,-0.2,-0.6,-1.5,25,-39.7653,384.009,923.37,-0.0901516,-0.547832,-1.55129,
2026_07_06_20_08_22.311,3.872,53.1,0,0.776,0,0,0,0, ,0,0,0,0,0, ,-40,385.1,923.7,0,-0.5,-1.5,25,-39.8162,384.051,923.381,-0.0907517,-0.547965,-1.54816,
2026_07_06_20_08_22.331,3.872,53.1,0,0.776,0,0,0,0, ,0,0,0,0,0, ,-39.7,383.5,923.3,0,-0.5,-1.5,25,-39.8183,384.067,923.388,-0.0852215,-0.545042,-1.54523,
2026_07_06_20_08_22.350,3.872,53.1,0,0.776,0,0,0,0, ,0,0,0,0,0, ,-39.5,383.3,924,-0.1,-0.6,-1.6,25,-39.805,384.026,923.404,-0.0830752,-0.545344,-1.54552,
2026_07_06_20_08_22.370,3.872,53.1,0,0.776,0,0,0,0, ,0,0,0,0,0, ,-39.7,384.6,923.3,-0.2,-0.6,-1.6,25,-39.7925,384.021,923.419,-0.0871534,-0.548674,-1.54884,
2026_07_06_20_08_22.389,3.872,53.1,0,0.776,0,0,0,0, ,0,0,0,0,0, ,-40.5,383.9,923.4,0,-0.5,-1.5,25,-39.8112,384.035,923.415,-0.0879363,-0.548755,-1.54891,
2026_07_06_20_08_22.410,3.872,53,0,0.775,0,0,0,0, ,0,0,0,0,0, ,-39.9,384.6,922.2,0.1,-0.5,-1.5,25,-39.8349,384.048,923.377,-0.0795308,-0.545784,-1.54593,
2026_07_06_20_08_22.430,3.872,53.1,0,0.776,0,0,0,0, ,0,0,0,0,0, ,-39.5,382.4,923.5,0,-0.6,-1.5,25,-39.8267,384.015,923.345,-0.0716375,-0.546041,-1.54313,
2026_07_06_20_08_22.450,3.872,53.1,0,0.775,0,0,0,0, ,0,0,0,0,0, ,-39.5,383.3,923.9,-0.1,-0.5,-1.6,25,-39.8068,383.944,923.367,-0.070319,-0.546282,-1.54355,
2026_07_06_20_08_22.469,3.872,53.2,0,0.777,0,0,0,0, ,0,0,0,0,0, ,-38.8,384.2,921.3,0,-0.5,-1.5,25,-39.7668,383.932,923.32,-0.0690808,-0.543462,-1.54394,
2026_07_06_20_08_22.490,3.872,53.1,0,0.776,0,0,0,0, ,0,0,0,0,0, ,-41.1,382.8,923.7,0.2,-0.5,-1.6,25,-39.7779,383.906,923.27,-0.0587774,-0.540814,-1.54431,
2026_07_06_20_08_22.509,3.872,53,0,0.776,0,0,0,0, ,0,0,0,0,0, ,-39.4,382.8,923.5,0,-0.5,-1.6,25,-39.8067,383.838,923.29,-0.0491019,-0.538326,-1.5477,
2026_07_06_20_08_22.529,3.872,53,0,0.776,0,0,0,0, ,0,0,0,0,0, ,-40.1,383.9,923,-0.1,-0.5,-1.6,25,-39.8032,383.809,923.288,-0.0491566,-0.535991,-1.55089,
2026_07_06_20_08_22.548,3.872,53,0,0.778,0,0,0,0, ,0,0,0,0,0, ,-41.1,383.6,923,0,-0.6,-1.6,25,-39.8518,383.805,923.27,-0.049208,-0.536845,-1.55388,
2026_07_06_20_08_22.568,3.872,53,0,0.777,0,0,0,0, ,0,0,0,0,0, ,-40.1,383.4,924,0,-0.5,-1.5,25,-39.8974,383.787,923.284,-0.0462094,-0.537646,-1.55365,
2026_07_06_20_08_22.588,3.872,53,0,0.776,0,0,0,0, ,0,0,0,0,0, ,-40,382.4,923.9,0,-0.5,-1.5,25,-39.9067,383.732,923.325,-0.0433935,-0.535352,-1.55038,
2026_07_06_20_08_22.607,3.872,52.9,0,0.777,0,0,0,0, ,0,0,0,0,0, ,-39.7,383.3,922.3,0,-0.6,-1.5,25,-39.9032,383.679,923.311,-0.0407492,-0.536245,-1.54731,
2026_07_06_20_08_22.628,3.872,52.9,0,0.776,0,0,0,0, ,0,0,0,0,0, ,-38.5,384.1,923.5,0,-0.6,-1.5,25,-39.8543,383.68,923.286,-0.0382661,-0.54013,-1.54443,
2026_07_06_20_08_22.647,3.872,53,0,0.776,0,0,0,0, ,0,0,0,0,0, ,-39.5,383.9,923.9,0,-0.5,-1.5,25,-39.8022,383.7,923.311,-0.0359342,-0.540731,-1.54172,
2026_07_06_20_08_22.667,3.872,53,0,0.776,0,0,0,0, ,0,0,0,0,0, ,-40.5,382.2,923.7,0,-0.5,-1.6,25,-39.8143,383.66,923.341,-0.0337445,-0.538249,-1.54222,
2026_07_06_20_08_22.687,3.872,53,0,0.776,0,0,0,0, ,0,0,0,0,0, ,-39.5,383.5,923.3,-0.1,-0.6,-1.6,25,-39.8256,383.611,923.351,-0.0347351,-0.538965,-1.54574,
2026_07_06_20_08_22.707,3.872,52.9,0,0.776,0,0,0,0, ,0,0,0,0,0, ,-39.5,383,923.5,0,-0.5,-1.6,25,-39.8058,383.589,923.354,-0.0356653,-0.539638,-1.54905,
2026_07_06_20_08_22.726,3.872,53,0,0.776,0,0,0,0, ,0,0,0,0,0, ,-40.6,384,924.9,0,-0.5,-1.6,25,-39.8206,383.583,923.405,-0.0334919,-0.537222,-1.55215,
2026_07_06_20_08_22.748,3.872,53,0,0.775,0,0,0,0, ,0,0,0,0,0, ,-40.4,384.8,922.9,-0.1,-0.6,-1.5,25,-39.862,383.633,923.435,-0.0344979,-0.538001,-1.55202,
2026_07_06_20_08_22.766,3.872,53,0,0.777,0,0,0,0, ,0,0,0,0,0, ,-39.9,385,923,0,-0.5,-1.6,25,-39.8796,383.71,923.406,-0.0354425,-0.538732,-1.5519,
2026_07_06_20_08_22.786,3.872,52.9,0,0.776,0,0,0,0, ,0,0,0,0,0, ,-40.2,383,924.8,-0.1,-0.5,-1.5,25,-39.89,383.728,923.436,-0.0363296,-0.536372,-1.55178,
2026_07_06_20_08_22.805,3.872,52.9,0,0.775,0,0,0,0, ,0,0,0,0,0, ,-40.1,383.1,922.9,-0.2,-0.6,-1.6,25,-39.9058,383.687,923.461,-0.0432564,-0.537202,-1.55168,
2026_07_06_20_08_22.826,3.872,53,0,0.777,0,0,0,0, ,0,0,0,0,0, ,-40.1,384.8,923.5,0,-0.5,-1.6,25,-39.9176,383.703,923.445,-0.0467142,-0.537982,-1.55462,
2026_07_06_20_08_22.845,3.872,52.9,0,0.776,0,0,0,0, ,0,0,0,0,0, ,-40.4,384.1,923.7,0,-0.5,-1.6,25,-39.9379,383.748,923.455,-0.0438676,-0.535668,-1.55739,
2026_07_06_20_08_22.865,3.872,52.9,0,0.775,0,0,0,0, ,0,0,0,0,0, ,-39.4,383.5,922.8,0,-0.5,-1.6,25,-39.9356,383.751,923.442,-0.0411944,-0.533494,-1.55998,
2026_07_06_20_08_22.884,3.872,52.9,0,0.776,0,0,0,0, ,0,0,0,0,0, ,-41.1,384.6,923.8,-0.1,-0.6,-1.5,25,-39.9547,383.77,923.434,-0.041731,-0.5345,-1.55937,
2026_07_06_20_08_22.904,3.872,52.8,0,0.775,0,0,0,0, ,0,0,0,0,0, ,-39.3,385.2,922.8,0,-0.6,-1.6,25,-39.9697,383.838,923.425,-0.0422349,-0.538491,-1.5588,
2026_07_06_20_08_22.925,3.872,52.9,0,0.775,0,0,0,0, ,0,0,0,0,0, ,-39,384.2,922.6,0,-0.5,-1.6,25,-39.9197,383.891,923.381,-0.0396612,-0.539193,-1.56131,
2026_07_06_20_08_22.945,3.872,52.9,0,0.777,0,0,0,0, ,0,0,0,0,0, ,-39.4,382.6,922.1,0,-0.5,-1.5,25,-39.8759,383.861,923.318,-0.0372444,-0.536804,-1.56062,
2026_07_06_20_08_22.964,3.872,52.9,0,0.775,0,0,0,0, ,0,0,0,0,0, ,-40.8,383.6,922.3,-0.1,-0.6,-1.6,25,-39.8895,383.815,923.25,-0.0380216,-0.537609,-1.55998,
2026_07_06_20_08_22.984,3.872,52.8,0,0.777,0,0,0,0, ,0,0,0,0,0, ,-39.4,385.7,923,0,-0.5,-1.6,25,-39.9024,383.866,923.214,-0.0387516,-0.538364,-1.56242,
2026_07_06_20_08_23.009,3.872,52.9,0,0.775,0,0,0,0, ,0,0,0,0,0, ,-40.8,383,923.2,0,-0.6,-1.5,25,-39.9144,383.895,923.207,-0.0363902,-0.539073,-1.56166,
2026_07_06_20_08_23.023,3.872,52.8,0,0.775,0,0,0,0, ,0,0,0,0,0, ,-39.4,385,924,0,-0.6,-1.4,25,-39.9257,383.901,923.231,-0.0341726,-0.542785,-1.55485,
2026_07_06_20_08_23.044,3.872,52.9,0,0.777,0,0,0,0, ,0,0,0,0,0, ,-39.1,383.9,922.3,-0.1,-0.5,-1.5,25,-39.8845,383.935,923.226,-0.0351371,-0.543225,-1.54847,
2026_07_06_20_08_23.063,3.872,52.9,0,0.776,0,0,0,0, ,0,0,0,0,0, ,-39.9,383.5,922.3,0,-0.5,-1.5,25,-39.8611,383.921,923.169,-0.0360428,-0.540591,-1.54551,
2026_07_06_20_08_23.083,3.872,52.8,0,0.777,0,0,0,0, ,0,0,0,0,0, ,-40.5,383,922.9,0,-0.5,-1.5,25,-39.8818,383.88,923.135,-0.0338465,-0.538118,-1.54274,
2026_07_06_20_08_23.103,3.872,52.8,0,0.773,0,0,0,0, ,0,0,0,0,0, ,-40.8,384.3,923.4,0,-0.6,-1.5,25,-39.9286,383.866,923.136,-0.0317839,-0.538842,-1.54013,
2026_07_06_20_08_23.123,3.872,52.8,0,0.777,0,0,0,0, ,0,0,0,0,0, ,-39.7,382.6,923.7,0,-0.6,-1.5,25,-39.9482,383.84,923.161,-0.0298471,-0.542569,-1.53769,
2026_07_06_20_08_23.142,3.872,52.8,0,0.776,0,0,0,0, ,0,0,0,0,0, ,-39.7,382.4,923.5,-0.1,-0.5,-1.6,25,-39.933,383.759,923.188,-0.0310752,-0.543021,-1.53844,
2026_07_06_20_08_23.162,3.872,52.8,0,0.777,0,0,0,0, ,0,0,0,0,0, ,-40,383.3,923.7,0,-0.5,-1.6,25,-39.928,383.703,923.213,-0.0322284,-0.5404,-1.54219,
2026_07_06_20_08_23.182,3.872,52.8,0,0.776,0,0,0,0, ,0,0,0,0,0, ,-39.7,383.1,923.9,-0.1,-0.5,-1.6,25,-39.9232,383.673,923.249,-0.0333114,-0.537938,-1.54571,
2026_07_06_20_08_23.202,3.872,52.7,0,0.776,0,0,0,0, ,0,0,0,0,0, ,-39.3,383.5,925.1,0,-0.6,-1.5,25,-39.8974,383.65,923.325,-0.0343283,-0.538673,-1.54597,
2026_07_06_20_08_23.222,3.872,52.8,0,0.776,0,0,0,0, ,0,0,0,0,0, ,-39.5,384.6,922.2,0,-0.5,-1.5,25,-39.8671,383.674,923.345,-0.0322364,-0.539363,-1.54317,
2026_07_06_20_08_23.241,3.872,52.8,0,0.777,0,0,0,0, ,0,0,0,0,0, ,-39.5,383.5,923.5,0.1,-0.6,-1.5,25,-39.8448,383.697,923.314,-0.0272252,-0.540011,-1.54054,
2026_07_06_20_08_23.261,3.872,52.9,0,0.776,0,0,0,0, ,0,0,0,0,0, ,-39.6,382.3,923.4,-0.1,-0.5,-1.6,25,-39.8268,383.649,923.323,-0.0255661,-0.54062,-1.54112,
2026_07_06_20_08_23.281,3.872,52.8,0,0.775,0,0,0,0, ,0,0,0,0,0, ,-40.7,384,923,-0.2,-0.5,-1.6,25,-39.8465,383.618,923.315,-0.0331488,-0.538145,-1.54471,
2026_07_06_20_08_23.301,3.872,52.7,0,0.776,0,0,0,0, ,0,0,0,0,0, ,-39.5,383.3,923.4,0,-0.6,-1.5,25,-39.8619,383.62,923.308,-0.0372226,-0.538867,-1.54503,
2026_07_06_20_08_23.320,3.872,52.8,0,0.776,0,0,0,0, ,0,0,0,0,0, ,-39.1,383.7,923.3,0,-0.5,-1.6,25,-39.8277,383.613,923.311,-0.0349543,-0.539546,-1.54533,
2026_07_06_20_08_23.340,3.872,52.7,0,0.778,0,0,0,0, ,0,0,0,0,0, ,-39.5,382.4,922.8,-0.2,-0.5,-1.6,25,-39.7955,383.579,923.295,-0.038918,-0.537136,-1.54866,
2026_07_06_20_08_23.360,3.872,52.8,0,0.778,0,0,0,0, ,0,0,0,0,0, ,-39.9,384.3,923.7,-0.3,-0.5,-1.6,25,-39.7897,383.565,923.292,-0.0517808,-0.534873,-1.55179,
2026_07_06_20_08_23.380,3.872,52.7,0,0.776,0,0,0,0, ,0,0,0,0,0, ,-39.3,384.8,923.4,-0.1,-0.5,-1.5,25,-39.7782,383.625,923.308,-0.0608129,-0.532748,-1.55168,
2026_07_06_20_08_23.406,3.872,52.7,0,0.775,0,0,0,0, ,0,0,0,0,0, ,-39.5,383.4,922.9,0,-0.5,-1.6,25,-39.7551,383.654,923.298,-0.060154,-0.530752,-1.55158,
2026_07_06_20_08_23.419,3.872,52.7,0,0.776,0,0,0,0, ,0,0,0,0,0, ,-40.6,384.6,923.4,0,-0.6,-1.5,25,-39.7731,383.675,923.289,-0.0564884,-0.531925,-1.55148,
2026_07_06_20_08_23.439,3.872,52.7,0,0.777,0,0,0,0, ,0,0,0,0,0, ,-40.2,382.9,923.5,0,-0.6,-1.4,25,-39.8113,383.679,923.299,-0.0530461,-0.536073,-1.5453,
2026_07_06_20_08_23.459,3.872,52.7,0,0.776,0,0,0,0, ,0,0,0,0,0, ,-40,383.6,923.9,0,-0.5,-1.5,25,-39.8289,383.653,923.323,-0.0498136,-0.536922,-1.53949,
2026_07_06_20_08_23.479,3.872,52.7,0,0.776,0,0,0,0, ,0,0,0,0,0, ,-40.1,383.7,923.7,-0.1,-0.5,-1.5,25,-39.8424,383.653,923.352,-0.049825,-0.534672,-1.53709,
2026_07_06_20_08_23.498,3.872,52.7,0,0.776,0,0,0,0, ,0,0,0,0,0, ,-40,384,922.8,0,-0.5,-1.6,25,-39.855,383.665,923.346,-0.0498357,-0.532559,-1.53787,
2026_07_06_20_08_23.518,3.872,52.7,0,0.777,0,0,0,0, ,0,0,0,0,0, ,-39.4,383.3,922.6,0,-0.5,-1.6,25,-39.8456,383.664,923.307,-0.0467988,-0.530575,-1.54166,
2026_07_06_20_08_23.538,3.872,52.7,0,0.776,0,0,0,0, ,0,0,0,0,0, ,-38.5,383,923.8,0,-0.6,-1.5,25,-39.791,383.633,923.3,-0.043947,-0.531759,-1.54217,
2026_07_06_20_08_23.558,3.872,52.7,0,0.776,0,0,0,0, ,0,0,0,0,0, ,-40.4,382.8,922.8,-0.2,-0.6,-1.6,25,-39.7702,383.588,923.3,-0.0473627,-0.535917,-1.54264,
2026_07_06_20_08_23.578,3.872,52.7,0,0.776,0,0,0,0, ,0,0,0,0,0, ,-38.2,385,923.2,0,-0.5,-1.6,25,-39.7416,383.607,923.282,-0.0505703,-0.536776,-1.54614,
2026_07_06_20_08_23.597,3.872,52.6,0,0.776,0,0,0,0, ,0,0,0,0,0, ,-39.6,383.5,923.3,0,-0.6,-1.5,25,-39.6903,383.646,923.28,-0.0474887,-0.537581,-1.54637,
2026_07_06_20_08_23.617,3.872,52.6,0,0.776,0,0,0,0, ,0,0,0,0,0, ,-39.5,382.8,922.1,-0.1,-0.6,-1.6,25,-39.6817,383.616,923.245,-0.0476417,-0.541385,-1.5466,
2026_07_06_20_08_23.637,3.872,52.7,0,0.775,0,0,0,0, ,0,0,0,0,0, ,-40.8,384,924,-0.3,-0.6,-1.6,25,-39.7103,383.603,923.233,-0.056926,-0.544957,-1.54985,
2026_07_06_20_08_23.657,3.872,52.6,0,0.775,0,0,0,0, ,0,0,0,0,0, ,-39.5,386.1,922.4,-0.1,-0.5,-1.6,25,-39.7371,383.691,923.231,-0.0656446,-0.545264,-1.55291,
2026_07_06_20_08_23.677,3.872,52.7,0,0.776,0,0,0,0, ,0,0,0,0,0, ,-38.8,384.8,922.8,0,-0.5,-1.5,25,-39.7013,383.798,923.192,-0.0646913,-0.542506,-1.55273,
2026_07_06_20_08_23.762,3.872,52.6,0,0.776,0,0,0,0, ,0,0,0,0,0, ,-40.6,383.1,923.2,-0.1,-0.5,-1.6,25,-39.7012,383.807,923.181,-0.063796,-0.539916,-1.55256,
2026_07_06_20_08_23.762,3.872,52.6,0,0.775,0,0,0,0, ,0,0,0,0,0, ,-39.5,382.8,923.5,-0.3,-0.5,-1.6,25,-39.7225,383.755,923.191,-0.072096,-0.537483,-1.55545,
2026_07_06_20_08_23.763,3.872,52.6,0,0.775,0,0,0,0, ,0,0,0,0,0, ,-39.4,384.6,923.2,-0.1,-0.5,-1.5,25,-39.7059,383.752,923.201,-0.0798901,-0.535199,-1.55512,
2026_07_06_20_08_23.763,3.872,52.6,0,0.776,0,0,0,0, ,0,0,0,0,0, ,-39.6,384.3,923.8,0,-0.5,-1.5,25,-39.6933,383.794,923.219,-0.0780687,-0.533054,-1.55176,
2026_07_06_20_08_23.776,3.872,52.6,0,0.775,0,0,0,0, ,0,0,0,0,0, ,-39,383.1,924.8,-0.1,-0.5,-1.5,25,-39.6693,383.789,923.285,-0.0763582,-0.53104,-1.54861,
2026_07_06_20_08_23.795,3.872,52.6,0,0.777,0,0,0,0, ,0,0,0,0,0, ,-39.6,384,923.9,-0.1,-0.5,-1.5,25,-39.6468,383.774,923.35,-0.0777989,-0.529149,-1.54565,
2026_07_06_20_08_23.815,3.872,52.6,0,0.776,0,0,0,0, ,0,0,0,0,0, ,-39.5,385.8,924,0,-0.6,-1.5,25,-39.6409,383.843,923.386,-0.0761049,-0.530419,-1.54286,
2026_07_06_20_08_23.835,3.872,52.6,0,0.777,0,0,0,0, ,0,0,0,0,0, ,-41,384.5,923.3,0,-0.6,-1.6,25,-39.6781,383.922,923.402,-0.0714673,-0.534659,-1.5433,
2026_07_06_20_08_23.858,3.872,52.6,0,0.775,0,0,0,0, ,0,0,0,0,0, ,-41,382.8,923.2,-0.1,-0.6,-1.5,25,-39.7586,383.906,923.393,-0.0701591,-0.538641,-1.54371,
2026_07_06_20_08_23.875,3.872,52.5,0,0.776,0,0,0,0, ,0,0,0,0,0, ,-40.4,384.8,922.9,-0.2,-0.5,-1.5,25,-39.816,383.899,923.372,-0.0750244,-0.539333,-1.54104,
2026_07_06_20_08_23.894,3.872,52.5,0,0.776,0,0,0,0, ,0,0,0,0,0, ,-41,385.6,923.8,0,-0.6,-1.5,25,-39.8698,383.979,923.371,-0.0765464,-0.539983,-1.53854,
2026_07_06_20_08_23.915,3.872,52.6,0,0.776,0,0,0,0, ,0,0,0,0,0, ,-38.9,384.2,924.3,0,-0.6,-1.6,25,-39.8747,384.035,923.412,-0.0718818,-0.54364,-1.53924,
2026_07_06_20_08_23.934,3.872,52.6,0,0.776,0,0,0,0, ,0,0,0,0,0, ,-39.3,383.3,922.7,0,-0.5,-1.6,25,-39.8275,384.017,923.418,-0.0675015,-0.544028,-1.54294,
2026_07_06_20_08_23.954,3.872,52.5,0,0.775,0,0,0,0, ,0,0,0,0,0, ,-39.9,382.6,924,-0.1,-0.6,-1.6,25,-39.8137,383.952,923.413,-0.066435,-0.544392,-1.54642,
2026_07_06_20_08_23.974,3.872,52.6,0,0.776,0,0,0,0, ,0,0,0,0,0, ,-40.5,383.7,922.7,0,-0.6,-1.5,25,-39.8372,383.903,923.41,-0.0654335,-0.54778,-1.54664,
2026_07_06_20_08_23.993,3.872,52.5,0,0.774,0,0,0,0, ,0,0,0,0,0, ,-38.9,384.1,922.9,0,-0.6,-1.5,25,-39.8288,383.903,923.372,-0.0614462,-0.550963,-1.5438,
2026_07_06_20_08_24.013,3.872,52.5,0,0.776,0,0,0,0, ,0,0,0,0,0, ,-39.9,383.4,923.7,0,-0.6,-1.6,25,-39.8027,383.894,923.368,-0.0577018,-0.553951,-1.54417,
2026_07_06_20_08_24.033,3.872,52.5,0,0.776,0,0,0,0, ,0,0,0,0,0, ,-39.5,383.6,922.6,0,-0.5,-1.6,25,-39.7964,383.87,923.355,-0.0541856,-0.55371,-1.54758,
2026_07_06_20_08_24.053,3.872,52.5,0,0.775,0,0,0,0, ,0,0,0,0,0, ,-39,382.8,923.2,0,-0.5,-1.6,25,-39.7631,383.829,923.327,-0.0508836,-0.550437,-1.55077,
2026_07_06_20_08_24.073,3.872,52.4,0,0.775,0,0,0,0, ,0,0,0,0,0, ,-40.2,382.2,923.4,0,-0.6,-1.6,25,-39.7532,383.748,923.325,-0.0477829,-0.55041,-1.55377,
2026_07_06_20_08_24.093,3.872,52.5,0,0.777,0,0,0,0, ,0,0,0,0,0, ,-39.4,383,924,0,-0.5,-1.5,25,-39.7561,383.678,923.348,-0.0448712,-0.550385,-1.55354,
2026_07_06_20_08_24.113,3.872,52.5,0,0.775,0,0,0,0, ,0,0,0,0,0, ,-39.7,384.5,923.4,0,-0.5,-1.6,25,-39.7435,383.683,923.37,-0.0421368,-0.547315,-1.55333,
2026_07_06_20_08_24.132,3.872,52.5,0,0.776,0,0,0,0, ,0,0,0,0,0, ,-40.5,384.1,923.3,-0.1,-0.5,-1.6,25,-39.7652,383.72,923.368,-0.042616,-0.544432,-1.55617,
2026_07_06_20_08_24.152,3.872,52.5,0,0.777,0,0,0,0, ,0,0,0,0,0, ,-40.7,384.2,924.3,-0.2,-0.6,-1.6,25,-39.8161,383.746,923.395,-0.0491597,-0.544771,-1.55884,
2026_07_06_20_08_24.172,3.872,52.5,0,0.775,0,0,0,0, ,0,0,0,0,0, ,-39.1,384.7,922.6,0,-0.6,-1.6,25,-39.8212,383.789,923.398,-0.0522578,-0.548137,-1.56135,
2026_07_06_20_08_24.192,3.872,52.4,0,0.775,0,0,0,0, ,0,0,0,0,0, ,-39,383.5,923.5,0,-0.6,-1.5,25,-39.7742,383.808,923.377,-0.0490733,-0.551297,-1.56066,
2026_07_06_20_08_24.211,3.872,52.4,0,0.775,0,0,0,0, ,0,0,0,0,0, ,-38.9,384,923.2,0,-0.5,-1.6,25,-39.724,383.805,923.375,-0.0460829,-0.551218,-1.56001,
2026_07_06_20_08_24.231,3.872,52.4,0,0.776,0,0,0,0, ,0,0,0,0,0, ,-39.9,384.6,923.9,-0.1,-0.5,-1.5,25,-39.7042,383.835,923.386,-0.0463216,-0.548097,-1.5594,
2026_07_06_20_08_24.251,3.872,52.4,0,0.776,0,0,0,0, ,0,0,0,0,0, ,-41,384.1,921,0,-0.6,-1.6,25,-39.7497,383.866,923.329,-0.0465458,-0.548213,-1.55883,
2026_07_06_20_08_24.271,3.872,52.4,0,0.774,0,0,0,0, ,0,0,0,0,0, ,-40.2,383.6,924.3,0,-0.5,-1.5,25,-39.8015,383.865,923.288,-0.0437094,-0.548322,-1.55829,
2026_07_06_20_08_24.290,3.872,52.4,0,0.774,0,0,0,0, ,0,0,0,0,0, ,-38.9,382.6,924,0,-0.6,-1.6,25,-39.7862,383.819,923.34,-0.0410458,-0.548424,-1.55778,
2026_07_06_20_08_24.310,3.872,52.4,0,0.775,0,0,0,0, ,0,0,0,0,0, ,-40,383,923.7,0,-0.5,-1.5,25,-39.7657,383.757,923.371,-0.0385446,-0.54852,-1.55731,
2026_07_06_20_08_24.330,3.872,52.4,0,0.775,0,0,0,0, ,0,0,0,0,0, ,-40.7,384.6,924.8,0,-0.5,-1.5,25,-39.8013,383.759,923.425,-0.0361958,-0.545563,-1.55382,
2026_07_06_20_08_24.350,3.872,52.4,0,0.775,0,0,0,0, ,0,0,0,0,0, ,-39.7,383.6,924.6,0.1,-0.5,-1.6,25,-39.8256,383.78,923.502,-0.0309432,-0.542787,-1.55358,
2026_07_06_20_08_24.369,3.872,52.4,0,0.776,0,0,0,0, ,0,0,0,0,0, ,-39.4,384.2,922.8,0,-0.5,-1.6,25,-39.8088,383.787,923.514,-0.0260108,-0.54018,-1.55641,
2026_07_06_20_08_24.389,3.872,52.4,0,0.774,0,0,0,0, ,0,0,0,0,0, ,-40.2,383,923.7,-0.1,-0.6,-1.6,25,-39.8083,383.776,923.498,-0.0274726,-0.540778,-1.55907,
2026_07_06_20_08_24.411,3.872,52.4,0,0.775,0,0,0,0, ,0,0,0,0,0, ,-39.6,383.6,922.6,0,-0.5,-1.6,25,-39.8139,383.747,923.477,-0.0288454,-0.54134,-1.56156,
2026_07_06_20_08_24.429,3.872,52.4,0,0.775,0,0,0,0, ,0,0,0,0,0, ,-39.1,383.4,923.2,0,-0.5,-1.5,25,-39.7856,383.732,923.442,-0.0270876,-0.538821,-1.56086,
2026_07_06_20_08_24.448,3.872,52.3,0,0.775,0,0,0,0, ,0,0,0,0,0, ,-39.1,383.5,922.4,0,-0.6,-1.5,25,-39.7438,383.715,923.403,-0.025437,-0.539502,-1.55715,
2026_07_06_20_08_24.468,3.872,52.3,0,0.775,0,0,0,0, ,0,0,0,0,0, ,-40.7,384.1,923.8,-0.1,-0.5,-1.5,25,-39.7533,383.72,923.384,-0.0269338,-0.540142,-1.55367,
2026_07_06_20_08_24.489,3.872,52.3,0,0.775,0,0,0,0, ,0,0,0,0,0, ,-40,383.6,922.4,0,-0.5,-1.4,25,-39.7897,383.728,923.367,-0.0283394,-0.537696,-1.54735,
2026_07_06_20_08_24.508,3.872,52.4,0,0.775,0,0,0,0, ,0,0,0,0,0, ,-39.7,383.7,923.7,0,-0.6,-1.5,25,-39.7934,383.723,923.348,-0.0266124,-0.538445,-1.54142,
2026_07_06_20_08_24.528,3.872,52.3,0,0.775,0,0,0,0, ,0,0,0,0,0, ,-39.3,383.5,923.7,-0.2,-0.6,-1.6,25,-39.7755,383.716,923.369,-0.0310845,-0.542196,-1.54194,
2026_07_06_20_08_24.548,3.872,52.4,0,0.775,0,0,0,0, ,0,0,0,0,0, ,-41,383.7,923.4,-0.1,-0.6,-1.6,25,-39.7983,383.708,923.38,-0.0383309,-0.545719,-1.54548,
2026_07_06_20_08_24.568,3.872,52.1,0,0.776,0,0,0,0, ,0,0,0,0,0, ,-38.8,385.3,923.5,0,-0.5,-1.6,25,-39.8045,383.757,923.384,-0.039042,-0.54598,-1.5488,
2026_07_06_20_08_24.588,3.872,52.3,0,0.775,0,0,0,0, ,0,0,0,0,0, ,-39.1,382.6,922.9,-0.1,-0.6,-1.6,25,-39.7524,383.768,923.373,-0.0397097,-0.546225,-1.55192,
2026_07_06_20_08_24.607,3.872,52.3,0,0.775,0,0,0,0, ,0,0,0,0,0, ,-40.4,383,923,-0.2,-0.5,-1.6,25,-39.7523,383.709,923.347,-0.0464306,-0.546455,-1.55485,
2026_07_06_20_08_24.632,3.872,52.3,0,0.776,0,0,0,0, ,0,0,0,0,0, ,-39.5,385.6,922.8,-0.2,-0.5,-1.6,25,-39.7643,383.745,923.32,-0.0557887,-0.543624,-1.5576,
2026_07_06_20_08_24.647,3.872,52.1,0,0.776,0,0,0,0, ,0,0,0,0,0, ,-39.4,383.4,923.2,0,-0.5,-1.6,25,-39.7452,383.791,923.301,-0.0584828,-0.540966,-1.56019,
2026_07_06_20_08_24.666,3.872,52.3,0,0.776,0,0,0,0, ,0,0,0,0,0, ,-39.1,384,923.4,-0.1,-0.5,-1.5,25,-39.715,383.786,923.301,-0.0579659,-0.538469,-1.55956,
2026_07_06_20_08_24.687,3.872,52.1,0,0.775,0,0,0,0, ,0,0,0,0,0, ,-39.5,385.2,922.2,-0.1,-0.5,-1.6,25,-39.6897,383.835,923.27,-0.0605273,-0.536125,-1.55898,
2026_07_06_20_08_24.706,3.872,52.1,0,0.775,0,0,0,0, ,0,0,0,0,0, ,-40.6,385.1,923,0,-0.5,-1.5,25,-39.7117,383.916,923.229,-0.0598858,-0.533924,-1.55843,
2026_07_06_20_08_24.725,3.872,52.3,0,0.777,0,0,0,0, ,0,0,0,0,0, ,-39.4,382.3,923.8,0,-0.5,-1.5,25,-39.7292,383.902,923.24,-0.0562365,-0.531856,-1.55487,
2026_07_06_20_08_24.745,3.872,52.1,0,0.776,0,0,0,0, ,0,0,0,0,0, ,-39,384.2,922.3,-0.1,-0.5,-1.5,25,-39.697,383.863,923.228,-0.0558565,-0.529915,-1.55153,
2026_07_06_20_08_24.765,3.872,52.1,0,0.776,0,0,0,0, ,0,0,0,0,0, ,-39.7,384.5,922.4,0,-0.5,-1.6,25,-39.6758,383.892,923.175,-0.0554996,-0.528092,-1.55144,
2026_07_06_20_08_24.785,3.872,52.1,0,0.775,0,0,0,0, ,0,0,0,0,0, ,-38.8,383,923.5,-0.2,-0.6,-1.6,25,-39.6499,383.884,923.161,-0.0582114,-0.529427,-1.5544,
2026_07_06_20_08_24.805,3.872,52.3,0,0.774,0,0,0,0, ,0,0,0,0,0, ,-39.4,383.5,922.2,-0.2,-0.5,-1.5,25,-39.6164,383.845,923.142,-0.0668516,-0.530681,-1.55413,
2026_07_06_20_08_24.825,3.872,52.3,0,0.775,0,0,0,0, ,0,0,0,0,0, ,-39.7,383.9,923.8,0,-0.5,-1.5,25,-39.6123,383.836,923.133,-0.0688716,-0.528811,-1.55083,
2026_07_06_20_08_24.844,3.872,52.3,0,0.775,0,0,0,0, ,0,0,0,0,0, ,-39.3,383,921.7,0,-0.5,-1.6,25,-39.6055,383.813,923.11,-0.0646747,-0.527056,-1.55078,
2026_07_06_20_08_24.865,3.872,52.3,0,0.777,0,0,0,0, ,0,0,0,0,0, ,-40.4,383.4,924.9,-0.1,-0.5,-1.6,25,-39.6204,383.775,923.122,-0.0637805,-0.525407,-1.55378,
2026_07_06_20_08_24.885,3.872,52.1,0,0.776,0,0,0,0, ,0,0,0,0,0, ,-40.5,384.8,923.7,-0.2,-0.6,-1.6,25,-39.6709,383.795,923.193,-0.0690345,-0.526906,-1.5566,
2026_07_06_20_08_24.905,3.872,52.1,0,0.776,0,0,0,0, ,0,0,0,0,0, ,-39.7,384.8,923.8,0,-0.6,-1.5,25,-39.6971,383.856,923.227,-0.0709214,-0.53136,-1.55619,
2026_07_06_20_08_24.924,3.872,52.1,0,0.775,0,0,0,0, ,0,0,0,0,0, ,-40.5,384.1,924.1,0,-0.5,-1.6,25,-39.7216,383.893,923.271,-0.0665997,-0.532496,-1.55582,
2026_07_06_20_08_24.944,3.872,52.1,0,0.775,0,0,0,0, ,0,0,0,0,0, ,-40.1,383.9,925.1,-0.2,-0.5,-1.5,25,-39.7569,383.899,923.352,-0.068635,-0.530515,-1.55546,
2026_07_06_20_08_24.965,3.872,52.1,0,0.776,0,0,0,0, ,0,0,0,0,0, ,-39.5,383.6,922.9,-0.1,-0.6,-1.6,25,-39.7595,383.89,923.392,-0.0735932,-0.531703,-1.55513,
2026_07_06_20_08_24.983,3.872,52,0,0.776,0,0,0,0, ,0,0,0,0,0, ,-41,382.9,923.9,0,-0.5,-1.5,25,-39.7894,383.851,923.392,-0.0721555,-0.532818,-1.55482,
2026_07_06_20_08_25.003,3.872,52.1,0,0.775,0,0,0,0, ,0,0,0,0,0, ,-40.4,383.5,923.3,0,-0.5,-1.6,25,-39.8449,383.811,923.405,-0.0677585,-0.530818,-1.55452,
2026_07_06_20_08_25.023,3.872,52.1,0,0.775,0,0,0,0, ,0,0,0,0,0, ,-41,383.6,923,-0.1,-0.5,-1.6,25,-39.897,383.795,923.389,-0.0666763,-0.52894,-1.55729,
2026_07_06_20_08_25.043,3.872,52.1,0,0.775,0,0,0,0, ,0,0,0,0,0, ,-39.5,383.4,922.6,0,-0.6,-1.5,25,-39.9185,383.777,923.353,-0.0656601,-0.530223,-1.55685,
2026_07_06_20_08_25.063,3.872,52.1,0,0.775,0,0,0,0, ,0,0,0,0,0, ,-39.9,383.7,922.7,0,-0.5,-1.5,25,-39.9052,383.764,923.311,-0.061659,-0.531428,-1.55339,
2026_07_06_20_08_25.082,3.872,52.1,0,0.775,0,0,0,0, ,0,0,0,0,0, ,-39.6,383.3,923.5,0,-0.5,-1.6,25,-39.8957,383.748,923.298,-0.0579016,-0.529513,-1.55318,
2026_07_06_20_08_25.102,3.872,52,0,0.776,0,0,0,0, ,0,0,0,0,0, ,-40.6,384.1,923.3,0,-0.6,-1.5,25,-39.9082,383.745,923.304,-0.0543732,-0.530762,-1.55299,
2026_07_06_20_08_25.123,3.872,52,0,0.775,0,0,0,0, ,0,0,0,0,0, ,-39.9,383.5,923,0,-0.6,-1.5,25,-39.929,383.748,923.295,-0.0510599,-0.534981,-1.54976,
2026_07_06_20_08_25.142,3.872,52,0,0.775,0,0,0,0, ,0,0,0,0,0, ,-40.4,384,924.3,0,-0.5,-1.6,25,-39.9425,383.748,923.316,-0.0479484,-0.535896,-1.54977,
2026_07_06_20_08_25.161,3.872,52,0,0.775,0,0,0,0, ,0,0,0,0,0, ,-39,383.7,923.7,-0.2,-0.5,-1.5,25,-39.9277,383.754,923.358,-0.0511203,-0.533709,-1.54979,
2026_07_06_20_08_25.181,3.872,52,0,0.774,0,0,0,0, ,0,0,0,0,0, ,-40,384.2,923.5,-0.1,-0.5,-1.6,25,-39.9016,383.766,923.373,-0.0571458,-0.531655,-1.5498,
2026_07_06_20_08_25.201,3.872,52,0,0.774,0,0,0,0, ,0,0,0,0,0, ,-39.5,385.2,923.9,0,-0.5,-1.5,25,-39.8924,383.823,923.393,-0.0567103,-0.529726,-1.54981,
2026_07_06_20_08_25.221,3.872,52,0,0.776,0,0,0,0, ,0,0,0,0,0, ,-38.3,382.9,922.1,0,-0.5,-1.6,25,-39.8319,383.837,923.369,-0.0532546,-0.527914,-1.54982,
2026_07_06_20_08_25.240,3.872,52.1,0,0.776,0,0,0,0, ,0,0,0,0,0, ,-40.6,383.1,923.2,-0.1,-0.5,-1.5,25,-39.8087,383.786,923.325,-0.0530562,-0.526213,-1.54983,
2026_07_06_20_08_25.260,3.872,52,0,0.776,0,0,0,0, ,0,0,0,0,0, ,-39.5,382.5,923.8,-0.1,-0.6,-1.6,25,-39.8234,383.726,923.336,-0.0559169,-0.527663,-1.54984,
2026_07_06_20_08_25.280,3.872,52,0,0.775,0,0,0,0, ,0,0,0,0,0, ,-39.1,384.5,924,0,-0.5,-1.5,25,-39.7915,383.712,923.37,-0.0555563,-0.529024,-1.54985,
2026_07_06_20_08_25.304,3.872,52,0,0.776,0,0,0,0, ,0,0,0,0,0, ,-39.1,383.7,922.7,0,-0.5,-1.6,25,-39.7493,383.736,923.369,-0.0521708,-0.527255,-1.54986,
2026_07_06_20_08_25.320,3.872,51.9,0,0.777,0,0,0,0, ,0,0,0,0,0, ,-38.5,383.7,923.8,-0.1,-0.6,-1.6,25,-39.6915,383.734,923.362,-0.0520386,-0.528641,-1.55292,
2026_07_06_20_08_25.340,3.872,51.9,0,0.774,0,0,0,0, ,0,0,0,0,0, ,-39.3,384.3,922.3,-0.1,-0.6,-1.5,25,-39.6433,383.75,923.343,-0.0549612,-0.53299,-1.55274,
2026_07_06_20_08_25.359,3.872,52,0,0.774,0,0,0,0, ,0,0,0,0,0, ,-40.5,383.6,922.8,0,-0.5,-1.5,25,-39.6589,383.762,923.294,-0.0546589,-0.534026,-1.54953,
2026_07_06_20_08_25.379,3.872,52,0,0.775,0,0,0,0, ,0,0,0,0,0, ,-40.5,383.4,924.8,-0.1,-0.5,-1.6,25,-39.7102,383.746,923.325,-0.054375,-0.531953,-1.54955,
2026_07_06_20_08_25.399,3.872,52,0,0.775,0,0,0,0, ,0,0,0,0,0, ,-39.9,383.4,924.4,-0.2,-0.5,-1.5,25,-39.74,383.725,923.403,-0.0602021,-0.530006,-1.54958,
2026_07_06_20_08_25.419,3.872,51.9,0,0.774,0,0,0,0, ,0,0,0,0,0, ,-38.9,383.3,922.8,0,-0.5,-1.5,25,-39.7193,383.702,923.415,-0.0626273,-0.528177,-1.54656,
2026_07_06_20_08_25.438,3.872,51.9,0,0.776,0,0,0,0, ,0,0,0,0,0, ,-39.3,382.2,925.2,0,-0.5,-1.6,25,-39.6815,383.644,923.45,-0.058811,-0.52646,-1.54677,
2026_07_06_20_08_25.459,3.872,51.9,0,0.774,0,0,0,0, ,0,0,0,0,0, ,-39.3,382.9,924,-0.1,-0.5,-1.6,25,-39.6583,383.577,923.52,-0.058274,-0.524848,-1.55001,
2026_07_06_20_08_25.483,3.872,52,0,0.774,0,0,0,0, ,0,0,0,0,0, ,-40,383.7,923.8,0,-0.5,-1.6,25,-39.6578,383.561,923.544,-0.0577698,-0.523334,-1.55306,
2026_07_06_20_08_25.506,3.872,51.8,0,0.774,0,0,0,0, ,0,0,0,0,0, ,-39.7,384.7,923.5,-0.1,-0.5,-1.6,25,-39.6695,383.599,923.55,-0.0572964,-0.521912,-1.55592,
2026_07_06_20_08_25.518,3.872,51.9,0,0.775,0,0,0,0, ,0,0,0,0,0, ,-39.7,385,923.5,0,-0.6,-1.5,25,-39.6714,383.676,923.547,-0.0568517,-0.523623,-1.55556,
2026_07_06_20_08_25.538,3.872,51.9,0,0.776,0,0,0,0, ,0,0,0,0,0, ,-39.7,383.9,923.2,-0.1,-0.6,-1.5,25,-39.6731,383.723,923.535,-0.0564342,-0.528278,-1.55217,
2026_07_06_20_08_25.558,3.872,52,0,0.775,0,0,0,0, ,0,0,0,0,0, ,-40.7,384.1,924.6,0,-0.5,-1.5,25,-39.7052,383.74,923.557,-0.0560421,-0.529601,-1.54899,
2026_07_06_20_08_25.577,3.872,51.9,0,0.775,0,0,0,0, ,0,0,0,0,0, ,-40.5,382.6,923.4,0,-0.6,-1.4,25,-39.7597,383.716,923.584,-0.0526271,-0.530844,-1.54296,
2026_07_06_20_08_25.597,3.872,51.8,0,0.776,0,0,0,0, ,0,0,0,0,0, ,-40,383.5,924.5,-0.1,-0.5,-1.5,25,-39.7896,383.675,923.607,-0.052467,-0.532012,-1.5373,
2026_07_06_20_08_25.617,3.872,51.9,0,0.775,0,0,0,0, ,0,0,0,0,0, ,-38.8,383.6,924.1,-0.1,-0.5,-1.5,25,-39.7659,383.668,923.649,-0.0553635,-0.530061,-1.53502,
2026_07_06_20_08_25.636,3.872,51.8,0,0.775,0,0,0,0, ,0,0,0,0,0, ,-40.4,384.1,923.9,0,-0.5,-1.5,25,-39.7558,383.679,923.67,-0.0550367,-0.528229,-1.53289,
2026_07_06_20_08_25.657,3.872,51.9,0,0.774,0,0,0,0, ,0,0,0,0,0, ,-39.6,383.6,923.2,-0.1,-0.5,-1.5,25,-39.7706,383.689,923.663,-0.0547298,-0.526509,-1.53089,
2026_07_06_20_08_25.676,3.872,51.8,0,0.776,0,0,0,0, ,0,0,0,0,0, ,-39,384.6,923.7,-0.2,-0.5,-1.5,25,-39.742,383.714,923.65,-0.0605353,-0.524893,-1.529,
2026_07_06_20_08_25.696,3.872,51.9,0,0.776,0,0,0,0, ,0,0,0,0,0, ,-39.9,384.2,923.9,-0.1,-0.6,-1.6,25,-39.7242,383.756,923.659,-0.065987,-0.526423,-1.53028,
2026_07_06_20_08_25.716,3.872,51.9,0,0.775,0,0,0,0, ,0,0,0,0,0, ,-39,383.6,922.8,0,-0.6,-1.6,25,-39.7075,383.765,923.64,-0.0650128,-0.530907,-1.53453,
2026_07_06_20_08_25.736,3.872,51.8,0,0.776,0,0,0,0, ,0,0,0,0,0, ,-40.2,383.7,922.2,-0.1,-0.6,-1.4,25,-39.7009,383.758,923.571,-0.064098,-0.535117,-1.53243,
2026_07_06_20_08_25.756,3.872,51.8,0,0.776,0,0,0,0, ,0,0,0,0,0, ,-39.1,385,923.4,-0.1,-0.5,-1.6,25,-39.6978,383.794,923.524,-0.0662858,-0.536024,-1.53045,
2026_07_06_20_08_25.776,3.872,51.9,0,0.775,0,0,0,0, ,0,0,0,0,0, ,-39.3,384.7,923.9,0,-0.5,-1.5,25,-39.6675,383.858,923.531,-0.0652934,-0.533829,-1.53164,
2026_07_06_20_08_25.796,3.872,51.8,0,0.775,0,0,0,0, ,0,0,0,0,0, ,-40.1,383.4,923.4,0,-0.6,-1.5,25,-39.6695,383.87,923.539,-0.0613145,-0.534814,-1.52971,
2026_07_06_20_08_25.815,3.872,51.8,0,0.776,0,0,0,0, ,0,0,0,0,0, ,-38.6,382.6,922.9,0,-0.5,-1.5,25,-39.65,383.817,923.515,-0.0575782,-0.53574,-1.5279,
2026_07_06_20_08_25.835,3.872,51.9,0,0.775,0,0,0,0, ,0,0,0,0,0, ,-40.5,384.2,922.6,-0.1,-0.5,-1.6,25,-39.6439,383.792,923.468,-0.0571164,-0.533562,-1.52925,
2026_07_06_20_08_25.855,3.872,51.9,0,0.775,0,0,0,0, ,0,0,0,0,0, ,-40.1,384,924.3,0,-0.5,-1.5,25,-39.6839,383.81,923.467,-0.0566827,-0.531517,-1.53051,
2026_07_06_20_08_25.875,3.872,51.8,0,0.774,0,0,0,0, ,0,0,0,0,0, ,-38.9,382.3,923.8,0,-0.6,-1.5,25,-39.6727,383.77,923.503,-0.0532286,-0.532643,-1.52865,
2026_07_06_20_08_25.895,3.872,51.8,0,0.775,0,0,0,0, ,0,0,0,0,0, ,-40.2,383.5,922.7,0,-0.5,-1.4,25,-39.6652,383.717,923.487,-0.049985,-0.533701,-1.52386,
2026_07_06_20_08_25.914,3.872,51.8,0,0.775,0,0,0,0, ,0,0,0,0,0, ,-39.1,383.4,923.3,0,-0.6,-1.5,25,-39.6643,383.701,923.458,-0.0469391,-0.534694,-1.51936,
2026_07_06_20_08_25.934,3.872,51.8,0,0.776,0,0,0,0, ,0,0,0,0,0, ,-39.5,384.1,923.4,0,-0.5,-1.6,25,-39.6421,383.704,923.451,-0.0440787,-0.535627,-1.52123,
2026_07_06_20_08_25.954,3.872,51.8,0,0.776,0,0,0,0, ,0,0,0,0,0, ,-39.1,383.4,924.4,0,-0.6,-1.5,25,-39.6212,383.707,923.478,-0.0413927,-0.536503,-1.52298,
2026_07_06_20_08_25.973,3.872,51.7,0,0.776,0,0,0,0, ,0,0,0,0,0, ,-39,383.4,924.3,-0.1,-0.5,-1.4,25,-39.5864,383.688,923.532,-0.0419172,-0.537325,-1.51853,
2026_07_06_20_08_25.993,3.872,51.8,0,0.775,0,0,0,0, ,0,0,0,0,0, ,-40,382.8,922.7,0,-0.6,-1.6,25,-39.5812,383.652,923.53,-0.0424097,-0.538097,-1.5174,
2026_07_06_20_08_26.013,3.872,51.8,0,0.775,0,0,0,0, ,0,0,0,0,0, ,-40.1,384,922.8,0,-0.5,-1.6,25,-39.6097,383.637,923.482,-0.0398254,-0.538823,-1.52244,
2026_07_06_20_08_26.032,3.872,51.8,0,0.775,0,0,0,0, ,0,0,0,0,0, ,-38.9,384.5,923,0,-0.5,-1.5,25,-39.603,383.674,923.447,-0.0373985,-0.536457,-1.52412,
2026_07_06_20_08_26.052,3.872,51.8,0,0.775,0,0,0,0, ,0,0,0,0,0, ,-40,383.4,923.5,-0.2,-0.5,-1.6,25,-39.5937,383.691,923.435,-0.0412133,-0.534235,-1.52569,
2026_07_06_20_08_26.072,3.872,51.8,0,0.776,0,0,0,0, ,0,0,0,0,0, ,-39.3,384.2,922.7,0,-0.6,-1.6,25,-39.5971,383.698,923.414,-0.0447956,-0.535196,-1.53022,
2026_07_06_20_08_26.092,3.872,51.7,0,0.775,0,0,0,0, ,0,0,0,0,0, ,-40.6,383.4,924.6,-0.1,-0.6,-1.5,25,-39.6186,383.704,923.429,-0.0451128,-0.539145,-1.53143,
2026_07_06_20_08_26.113,3.872,51.7,0,0.775,0,0,0,0, ,0,0,0,0,0, ,-39.6,383.5,923.5,0,-0.5,-1.5,25,-39.648,383.688,923.467,-0.0454106,-0.539807,-1.52951,
2026_07_06_20_08_26.131,3.872,51.8,0,0.776,0,0,0,0, ,0,0,0,0,0, ,-39.5,383.7,923.4,-0.1,-0.5,-1.5,25,-39.642,383.683,923.466,-0.0456902,-0.537381,-1.52771,
2026_07_06_20_08_26.151,3.872,51.6,0,0.775,0,0,0,0, ,0,0,0,0,0, ,-41.1,383.3,923.7,0,-0.5,-1.5,25,-39.6821,383.672,923.471,-0.0459529,-0.535103,-1.52603,
2026_07_06_20_08_26.171,3.872,51.8,0,0.774,0,0,0,0, ,0,0,0,0,0, ,-39,384.1,922.9,0,-0.6,-1.5,25,-39.7045,383.674,923.46,-0.0431526,-0.536011,-1.52444,
2026_07_06_20_08_26.191,3.872,51.7,0,0.775,0,0,0,0, ,0,0,0,0,0, ,-39.5,383.1,922.8,-0.1,-0.6,-1.5,25,-39.6768,383.669,923.423,-0.0435699,-0.53991,-1.52295,
2026_07_06_20_08_26.211,3.872,51.7,0,0.776,0,0,0,0, ,0,0,0,0,0, ,-39.3,383.3,923,0,-0.5,-1.6,25,-39.66,383.64,923.391,-0.0439617,-0.540525,-1.5246,
2026_07_06_20_08_26.231,3.872,51.7,0,0.775,0,0,0,0, ,0,0,0,0,0, ,-39.3,382.6,922.4,0,-0.4,-1.5,25,-39.638,383.598,923.349,-0.0412828,-0.535009,-1.52615,
2026_07_06_20_08_26.250,3.872,51.8,0,0.775,0,0,0,0, ,0,0,0,0,0, ,-39.4,383.4,923.9,-0.1,-0.6,-1.5,25,-39.6205,383.562,923.337,-0.041814,-0.532875,-1.52455,
2026_07_06_20_08_26.270,3.872,51.6,0,0.775,0,0,0,0, ,0,0,0,0,0, ,-39.9,384.1,922.8,-0.2,-0.6,-1.6,25,-39.6223,383.573,923.338,-0.0484066,-0.536966,-1.5261,
2026_07_06_20_08_26.290,3.872,51.6,0,0.775,0,0,0,0, ,0,0,0,0,0, ,-40.5,382.6,924.4,0,-0.5,-1.5,25,-39.6575,383.56,923.354,-0.0515506,-0.53776,-1.52756,
2026_07_06_20_08_26.310,3.872,51.7,0,0.775,0,0,0,0, ,0,0,0,0,0, ,-40.2,383.9,923.4,0,-0.5,-1.6,25,-39.6997,383.541,923.387,-0.0484092,-0.535459,-1.52893,
2026_07_06_20_08_26.332,3.872,51.6,0,0.775,0,0,0,0, ,0,0,0,0,0, ,-40.5,383,923.2,-0.2,-0.5,-1.5,25,-39.7393,383.535,923.382,-0.051553,-0.533298,-1.53021,
2026_07_06_20_08_26.349,3.872,51.6,0,0.775,0,0,0,0, ,0,0,0,0,0, ,-39.9,383.7,923,-0.1,-0.6,-1.6,25,-39.7674,383.524,923.365,-0.0575521,-0.534316,-1.53142,
2026_07_06_20_08_26.369,3.872,51.7,0,0.775,0,0,0,0, ,0,0,0,0,0, ,-38.5,384.2,923.8,0,-0.5,-1.5,25,-39.7328,383.55,923.367,-0.0570919,-0.535272,-1.53255,
2026_07_06_20_08_26.389,3.872,51.6,0,0.774,0,0,0,0, ,0,0,0,0,0, ,-39,383.5,922.8,-0.1,-0.5,-1.6,25,-39.6729,383.568,923.363,-0.0566598,-0.533122,-1.53361,
2026_07_06_20_08_26.409,3.872,51.7,0,0.776,0,0,0,0, ,0,0,0,0,0, ,-39,384,923.8,-0.1,-0.5,-1.6,25,-39.6319,383.579,923.359,-0.0593008,-0.531104,-1.53766,
2026_07_06_20_08_26.429,3.872,51.7,0,0.775,0,0,0,0, ,0,0,0,0,0, ,-40.1,383.6,923.5,-0.2,-0.5,-1.6,25,-39.6269,383.593,923.377,-0.0648278,-0.529209,-1.54146,
2026_07_06_20_08_26.448,3.872,51.6,0,0.774,0,0,0,0, ,0,0,0,0,0, ,-40,384.2,923.5,0,-0.5,-1.5,25,-39.6527,383.612,923.384,-0.0669711,-0.527429,-1.54198,
2026_07_06_20_08_26.468,3.872,51.6,0,0.775,0,0,0,0, ,0,0,0,0,0, ,-39.7,382.8,923.5,0,-0.5,-1.5,25,-39.6647,383.605,923.391,-0.06289,-0.525757,-1.53942,
2026_07_06_20_08_26.488,3.872,51.7,0,0.775,0,0,0,0, ,0,0,0,0,0, ,-39.3,383.3,924.1,-0.1,-0.5,-1.5,25,-39.6547,383.571,923.416,-0.0621045,-0.524188,-1.53702,
2026_07_06_20_08_26.508,3.872,51.7,0,0.774,0,0,0,0, ,0,0,0,0,0, ,-39,385.3,923.2,-0.1,-0.5,-1.5,25,-39.6239,383.615,923.43,-0.0644138,-0.522714,-1.53476,
2026_07_06_20_08_26.527,3.872,51.6,0,0.774,0,0,0,0, ,0,0,0,0,0, ,-40.2,384.1,924,0,-0.6,-1.6,25,-39.6225,383.681,923.441,-0.0635355,-0.524376,-1.53569,
2026_07_06_20_08_26.547,3.872,51.5,0,0.776,0,0,0,0, ,0,0,0,0,0, ,-39.4,383.1,923.4,0,-0.5,-1.5,25,-39.6333,383.676,923.456,-0.0596638,-0.525938,-1.53656,
2026_07_06_20_08_26.567,3.872,51.6,0,0.775,0,0,0,0, ,0,0,0,0,0, ,-40.2,383.7,923.2,0,-0.5,-1.6,25,-39.6434,383.66,923.447,-0.056028,-0.524357,-1.53738,
2026_07_06_20_08_26.587,3.872,51.5,0,0.775,0,0,0,0, ,0,0,0,0,0, ,-39.5,383.6,923.5,0,-0.5,-1.5,25,-39.656,383.659,923.441,-0.0526138,-0.522873,-1.53815,
2026_07_06_20_08_26.607,3.872,51.6,0,0.774,0,0,0,0, ,0,0,0,0,0, ,-39.5,384.2,923.7,0,-0.5,-1.5,25,-39.6465,383.674,923.451,-0.0494076,-0.521479,-1.53583,
2026_07_06_20_08_26.627,3.872,51.6,0,0.776,0,0,0,0, ,0,0,0,0,0, ,-41.2,383.7,922.8,0,-0.6,-1.5,25,-39.6894,383.691,923.438,-0.0463969,-0.523217,-1.53364,
2026_07_06_20_08_26.647,3.872,51.6,0,0.775,0,0,0,0, ,0,0,0,0,0, ,-39.7,384.6,924,-0.1,-0.6,-1.6,25,-39.7357,383.719,923.436,-0.0466164,-0.527896,-1.53464,
2026_07_06_20_08_26.667,3.872,51.6,0,0.775,0,0,0,0, ,0,0,0,0,0, ,-40.8,383.6,922.1,0,-0.6,-1.5,25,-39.7671,383.742,923.413,-0.0468226,-0.53229,-1.53558,
2026_07_06_20_08_26.686,3.872,51.5,0,0.775,0,0,0,0, ,0,0,0,0,0, ,-39.1,385,926,0,-0.5,-1.5,25,-39.7782,383.776,923.451,-0.0439694,-0.533369,-1.53341,
2026_07_06_20_08_26.706,3.872,51.5,0,0.775,0,0,0,0, ,0,0,0,0,0, ,-41.8,383,921.2,0.1,-0.5,-1.5,25,-39.8192,383.789,923.46,-0.0382431,-0.531336,-1.53137,
2026_07_06_20_08_26.726,3.872,51.5,0,0.776,0,0,0,0, ,0,0,0,0,0, ,-39.5,382.3,923.9,0,-0.5,-1.5,25,-39.8698,383.72,923.405,-0.0328658,-0.529426,-1.52946,
2026_07_06_20_08_26.746,3.872,51.5,0,0.775,0,0,0,0, ,0,0,0,0,0, ,-39.1,384.7,923.3,-0.2,-0.5,-1.5,25,-39.8351,383.707,923.417,-0.0369568,-0.527633,-1.52766,
2026_07_06_20_08_26.765,3.872,51.6,0,0.775,0,0,0,0, ,0,0,0,0,0, ,-38.8,385,923.5,0.1,-0.5,-1.6,25,-39.7811,383.776,923.416,-0.0377516,-0.525949,-1.52903,
2026_07_06_20_08_26.785,3.872,51.5,0,0.776,0,0,0,0, ,0,0,0,0,0, ,-40.7,385.7,927.8,-0.3,-0.5,-1.6,25,-39.7792,383.872,923.552,-0.0415449,-0.524368,-1.53335,
2026_07_06_20_08_26.805,3.872,51.6,0,0.777,0,0,0,0, ,0,0,0,0,0, ,-40.6,385.8,919.7,0.1,-0.6,-1.5,25,-39.8323,383.987,923.564,-0.045107,-0.52593,-1.53437,
2026_07_06_20_08_26.824,3.872,51.6,0,0.776,0,0,0,0, ,0,0,0,0,0, ,-37.3,384.8,927.9,0,-0.6,-1.6,25,-39.7785,384.067,923.578,-0.0393114,-0.530443,-1.53532,
2026_07_06_20_08_26.844,3.872,51.4,0,0.774,0,0,0,0, ,0,0,0,0,0, ,-39.9,383.7,923.8,0,-0.5,-1.5,25,-39.7067,384.078,923.717,-0.0369159,-0.531635,-1.53621,
2026_07_06_20_08_26.864,3.872,51.4,0,0.774,0,0,0,0, ,0,0,0,0,0, ,-40.7,383.3,923.9,-0.5,-0.6,-1.6,25,-39.7429,384.043,923.725,-0.0499007,-0.532754,-1.53705,
2026_07_06_20_08_26.884,3.872,51.5,0,0.776,0,0,0,0, ,0,0,0,0,0, ,-41.1,385.1,921.3,0,-0.5,-1.5,25,-39.8134,384.052,923.656,-0.0620942,-0.533805,-1.53784,
2026_07_06_20_08_26.903,3.872,51.4,0,0.774,0,0,0,0, ,0,0,0,0,0, ,-40.6,382.9,925.1,0.2,-0.6,-1.6,25,-39.8766,384.049,923.629,-0.0522166,-0.534792,-1.53858,
2026_07_06_20_08_26.924,3.872,51.4,0,0.776,0,0,0,0, ,0,0,0,0,0, ,-40.2,382.5,921.7,0,-0.5,-1.5,25,-39.9085,383.967,923.615,-0.0429409,-0.535719,-1.53928,
2026_07_06_20_08_26.943,3.872,51.4,0,0.775,0,0,0,0, ,0,0,0,0,0, ,-40.2,384.2,924,-0.7,-0.5,-1.6,25,-39.9262,383.929,923.568,-0.0616523,-0.533542,-1.53993,
2026_07_06_20_08_26.963,3.872,51.4,0,0.775,0,0,0,0, ,0,0,0,0,0, ,-40.7,383.6,922.3,0,-0.6,-1.5,25,-39.9581,383.927,923.543,-0.0792235,-0.534545,-1.54055,
2026_07_06_20_08_26.983,3.872,51.4,0,0.775,0,0,0,0, ,0,0,0,0,0, ,-38.5,384.5,923.9,0.1,-0.6,-1.5,25,-39.9363,383.935,923.516,-0.0713489,-0.538534,-1.53807,
2026_07_06_20_08_27.008,3.872,51.5,0,0.775,0,0,0,0, ,0,0,0,0,0, ,-39.9,382,921.3,-0.1,-0.6,-1.5,25,-39.8914,383.893,923.46,-0.0670011,-0.542279,-1.53575,
2026_07_06_20_08_27.022,3.872,51.4,0,0.775,0,0,0,0, ,0,0,0,0,0, ,-40.2,384.6,924.4,-0.4,-0.6,-1.6,25,-39.9011,383.857,923.423,-0.0781526,-0.545797,-1.53662,
2026_07_06_20_08_27.042,3.872,51.4,0,0.775,0,0,0,0, ,0,0,0,0,0, ,-40.1,383.7,923,-0.1,-0.5,-1.5,25,-39.9163,383.875,923.44,-0.0886246,-0.546053,-1.53744,
2026_07_06_20_08_27.062,3.872,51.4,0,0.775,0,0,0,0, ,0,0,0,0,0, ,-39.3,384.8,923.7,0.1,-0.5,-1.5,25,-39.9031,383.898,923.434,-0.083224,-0.543247,-1.53516,
2026_07_06_20_08_27.081,3.872,51.4,0,0.775,0,0,0,0, ,0,0,0,0,0, ,-38.5,383.5,923.5,-0.1,-0.5,-1.5,25,-39.842,383.913,923.444,-0.0781525,-0.540611,-1.53301,
2026_07_06_20_08_27.101,3.872,51.4,0,0.773,0,0,0,0, ,0,0,0,0,0, ,-39.6,383,922.8,-0.1,-0.6,-1.6,25,-39.7937,383.873,923.426,-0.0794839,-0.541183,-1.53405,
2026_07_06_20_08_27.122,3.872,51.4,0,0.775,0,0,0,0, ,0,0,0,0,0, ,-40.1,384.2,923.5,-0.1,-0.5,-1.5,25,-39.7971,383.856,923.409,-0.0807341,-0.541721,-1.53502,
2026_07_06_20_08_27.141,3.872,51.4,0,0.775,0,0,0,0, ,0,0,0,0,0, ,-38.6,385.1,921.9,0.1,-0.5,-1.5,25,-39.7699,383.904,923.366,-0.0758143,-0.539178,-1.53289,
2026_07_06_20_08_27.161,3.872,51.4,0,0.776,0,0,0,0, ,0,0,0,0,0, ,-39.9,384.2,923.3,0,-0.6,-1.6,25,-39.7382,383.95,923.32,-0.0681475,-0.539838,-1.53393,
2026_07_06_20_08_27.181,3.872,51.4,0,0.774,0,0,0,0, ,0,0,0,0,0, ,-41,383.1,921.5,-0.1,-0.6,-1.6,25,-39.7816,383.932,923.264,-0.0670417,-0.543504,-1.53796,
2026_07_06_20_08_27.201,3.872,51.4,0,0.774,0,0,0,0, ,0,0,0,0,0, ,-39.9,385,924,0,-0.5,-1.5,25,-39.8223,383.939,923.232,-0.0660032,-0.5439,-1.53869,
2026_07_06_20_08_27.220,3.872,51.4,0,0.775,0,0,0,0, ,0,0,0,0,0, ,-39.3,379.1,916.2,0,-0.6,-1.6,25,-39.8088,383.824,923.041,-0.0619811,-0.544271,-1.53938,
2026_07_06_20_08_27.240,3.872,51.5,0,0.775,0,0,0,0, ,0,0,0,0,0, ,-39.7,384.6,927.2,-1.4,-0.5,-1.6,25,-39.79,383.703,922.96,-0.10086,-0.544621,-1.54307,
2026_07_06_20_08_27.260,3.872,51.3,0,0.775,0,0,0,0, ,0,0,0,0,0, ,-40,393.6,925.6,-0.4,-0.5,-1.5,25,-39.7936,384.032,923.169,-0.149558,-0.541901,-1.5435,
2026_07_06_20_08_27.280,3.872,51.3,0,0.776,0,0,0,0, ,0,0,0,0,0, ,-39,387.8,929.1,1.3,-0.5,-1.5,25,-39.7757,384.439,923.424,-0.113022,-0.539348,-1.54084,
2026_07_06_20_08_27.299,3.872,51.5,0,0.774,0,0,0,0, ,0,0,0,0,0, ,-39.5,381.7,921.8,0.9,-0.6,-1.5,25,-39.7437,384.458,923.547,-0.0391039,-0.539997,-1.53836,
2026_07_06_20_08_27.319,3.872,51.5,0,0.775,0,0,0,0, ,0,0,0,0,0, ,-39.7,377.6,918.5,0.1,-0.5,-1.5,25,-39.7349,384.165,923.34,-0.00625222,-0.540607,-1.53602,
2026_07_06_20_08_27.339,3.872,51.4,0,0.775,0,0,0,0, ,0,0,0,0,0, ,-39.3,379.2,920.4,-0.5,-0.5,-1.6,25,-39.7206,383.813,923.103,-0.0180587,-0.538132,-1.53687,
2026_07_06_20_08_27.359,3.872,51.4,0,0.774,0,0,0,0, ,0,0,0,0,0, ,-39.3,389.7,929.5,-0.4,-0.5,-1.5,25,-39.695,383.852,923.216,-0.0443801,-0.535809,-1.53767,
2026_07_06_20_08_27.379,3.872,51.3,0,0.775,0,0,0,0, ,0,0,0,0,0, ,-40.4,385,922.6,1,-0.5,-1.5,25,-39.7044,384.065,923.389,-0.0233945,-0.533626,-1.53538,
2026_07_06_20_08_27.399,3.872,51.3,0,0.774,0,0,0,0, ,0,0,0,0,0, ,-39.1,376.3,920.7,0,-0.5,-1.5,25,-39.7072,383.857,923.283,0.00849987,-0.531577,-1.53322,
2026_07_06_20_08_27.419,3.872,51.3,0,0.775,0,0,0,0, ,0,0,0,0,0, ,-39.9,381.7,919,-0.6,-0.6,-1.5,25,-39.6946,383.561,923.073,-0.0102993,-0.5327,-1.5312,
2026_07_06_20_08_27.439,3.872,51.3,0,0.774,0,0,0,0, ,0,0,0,0,0, ,-41.1,383,922.2,0.3,-0.6,-1.6,25,-39.7437,383.487,922.923,-0.0188123,-0.536801,-1.53234,
2026_07_06_20_08_27.458,3.872,51.3,0,0.773,0,0,0,0, ,0,0,0,0,0, ,-39.3,379.2,926.1,-0.2,-0.6,-1.6,25,-39.7715,383.342,922.998,-0.0146191,-0.540652,-1.53646,
2026_07_06_20_08_27.478,3.872,51.3,0,0.775,0,0,0,0, ,0,0,0,0,0, ,-39.7,382.9,922.6,-1.1,-0.5,-1.5,25,-39.7549,383.202,923.08,-0.0533376,-0.541222,-1.53729,
2026_07_06_20_08_27.497,3.872,51.2,0,0.775,0,0,0,0, ,0,0,0,0,0, ,-39.5,388.9,924,-0.5,-0.5,-1.6,25,-39.7455,383.367,923.093,-0.0988374,-0.53871,-1.53806,
2026_07_06_20_08_27.517,3.872,51.2,0,0.774,0,0,0,0, ,0,0,0,0,0, ,-40.5,378.6,922.6,0,-0.5,-1.5,25,-39.761,383.39,923.106,-0.108049,-0.536351,-1.53879,
2026_07_06_20_08_27.537,3.872,51.2,0,0.774,0,0,0,0, ,0,0,0,0,0, ,-40.4,382.4,921.7,-1,-0.6,-1.7,25,-39.803,383.214,923.048,-0.131933,-0.537183,-1.54252,
2026_07_06_20_08_27.562,3.872,51.3,0,0.773,0,0,0,0, ,0,0,0,0,0, ,-39.4,387.9,923,-0.5,-0.6,-1.6,25,-39.8089,383.332,923.005,-0.169597,-0.541011,-1.54907,
2026_07_06_20_08_27.577,3.872,51.2,0,0.776,0,0,0,0, ,0,0,0,0,0, ,-40.1,389.1,927.6,0.2,-0.5,-1.6,25,-39.8053,383.647,923.145,-0.168403,-0.541559,-1.55217,
2026_07_06_20_08_27.597,3.872,51.3,0,0.773,0,0,0,0, ,0,0,0,0,0, ,-41.5,384.3,926.3,0.7,-0.5,-1.5,25,-39.8659,383.833,923.377,-0.130719,-0.539026,-1.55204,
2026_07_06_20_08_27.616,3.872,51.3,0,0.775,0,0,0,0, ,0,0,0,0,0, ,-37.9,379.7,924.5,0.1,-0.6,-1.5,25,-39.8558,383.721,923.5,-0.098378,-0.539695,-1.54887,
2026_07_06_20_08_27.636,3.872,51.4,0,0.774,0,0,0,0, ,0,0,0,0,0, ,-40.4,382.6,919.3,-0.2,-0.5,-1.5,25,-39.8128,383.564,923.403,-0.09543,-0.540323,-1.54589,
2026_07_06_20_08_27.656,3.872,51.3,0,0.773,0,0,0,0, ,0,0,0,0,0, ,-39.4,383.1,922.7,0.2,-0.5,-1.5,25,-39.8181,383.521,923.256,-0.0896147,-0.537866,-1.5431,
2026_07_06_20_08_27.675,3.872,51.2,0,0.774,0,0,0,0, ,0,0,0,0,0, ,-39,379.7,923.4,-0.1,-0.6,-1.6,25,-39.7804,383.392,923.244,-0.081107,-0.538605,-1.54352,
2026_07_06_20_08_27.695,3.872,51.3,0,0.775,0,0,0,0, ,0,0,0,0,0, ,-41.1,384.3,923.8,-0.8,-0.5,-1.5,25,-39.7969,383.307,923.265,-0.103586,-0.539299,-1.54391,
2026_07_06_20_08_27.716,3.872,51.2,0,0.775,0,0,0,0, ,0,0,0,0,0, ,-39,389.1,923,-0.3,-0.6,-1.5,25,-39.8123,383.514,923.274,-0.13079,-0.539951,-1.54124,
2026_07_06_20_08_27.735,3.872,51.2,0,0.775,0,0,0,0, ,0,0,0,0,0, ,-38.9,387.8,924.5,0.5,-0.5,-1.5,25,-39.7597,383.814,923.303,-0.116726,-0.540564,-1.53872,
2026_07_06_20_08_27.756,3.872,51.3,0,0.775,0,0,0,0, ,0,0,0,0,0, ,-40.7,382.2,923.2,0.4,-0.5,-1.5,25,-39.7622,383.887,923.336,-0.0821911,-0.538092,-1.53636,
2026_07_06_20_08_27.781,3.872,51.2,0,0.774,0,0,0,0, ,0,0,0,0,0, ,-40,380.7,923.7,-0.1,-0.6,-1.5,25,-39.798,383.738,923.343,-0.068042,-0.538818,-1.53415,
2026_07_06_20_08_27.795,3.872,51.2,0,0.777,0,0,0,0, ,0,0,0,0,0, ,-39,383.6,922.7,-0.5,-0.5,-1.6,25,-39.7799,383.641,923.334,-0.0821769,-0.539499,-1.53511,
2026_07_06_20_08_27.815,3.872,51.2,0,0.776,0,0,0,0, ,0,0,0,0,0, ,-39.9,386.2,923.2,-0.1,-0.6,-1.6,25,-39.7598,383.718,923.311,-0.0954505,-0.540139,-1.53907,
2026_07_06_20_08_27.834,3.872,51.1,0,0.775,0,0,0,0, ,0,0,0,0,0, ,-40.6,385.8,923.3,0.1,-0.6,-1.5,25,-39.7896,383.857,923.307,-0.089634,-0.543787,-1.53973,
2026_07_06_20_08_27.854,3.872,51.3,0,0.774,0,0,0,0, ,0,0,0,0,0, ,-39.7,384.1,922.6,0,-0.5,-1.5,25,-39.8116,383.924,923.285,-0.081125,-0.544165,-1.53731,
2026_07_06_20_08_27.873,3.872,51.2,0,0.774,0,0,0,0, ,0,0,0,0,0, ,-39.1,383.4,923.4,0,-0.5,-1.6,25,-39.7865,383.913,923.268,-0.0761815,-0.541474,-1.53809,
2026_07_06_20_08_27.893,3.872,51.3,0,0.774,0,0,0,0, ,0,0,0,0,0, ,-40.7,383.1,923.9,0,-0.6,-1.6,25,-39.7934,383.873,923.291,-0.0715392,-0.541994,-1.54186,
2026_07_06_20_08_27.913,3.872,51.3,0,0.775,0,0,0,0, ,0,0,0,0,0, ,-39.9,385.1,924.4,0,-0.5,-1.5,25,-39.8243,383.887,923.344,-0.0671798,-0.542481,-1.54235,
2026_07_06_20_08_27.933,3.872,51.3,0,0.774,0,0,0,0, ,0,0,0,0,0, ,-38.6,383.5,921,0,-0.6,-1.6,25,-39.7893,383.912,923.304,-0.063086,-0.54294,-1.54282,
2026_07_06_20_08_27.953,3.872,51.2,0,0.775,0,0,0,0, ,0,0,0,0,0, ,-39,382.2,923.9,-0.1,-0.5,-1.5,25,-39.729,383.847,923.252,-0.0622886,-0.54337,-1.54326,
2026_07_06_20_08_27.972,3.872,51.1,0,0.775,0,0,0,0, ,0,0,0,0,0, ,-40.1,383.9,922.7,-0.1,-0.6,-1.5,25,-39.7181,383.799,923.255,-0.0645866,-0.543774,-1.54062,
2026_07_06_20_08_27.999,3.872,51.1,0,0.775,0,0,0,0, ,0,0,0,0,0, ,-39,383.6,923,0,-0.6,-1.5,25,-39.7079,383.796,923.231,-0.0636977,-0.5472,-1.53815,
2026_07_06_20_08_28.013,3.872,51.1,0,0.773,0,0,0,0, ,0,0,0,0,0, ,-39.5,383.1,924.9,0.1,-0.5,-1.6,25,-39.68,383.768,923.274,-0.0567693,-0.547371,-1.53887,
2026_07_06_20_08_28.032,3.872,51.2,0,0.773,0,0,0,0, ,0,0,0,0,0, ,-39.5,382.8,922.3,0,-0.6,-1.5,25,-39.669,383.719,923.294,-0.050263,-0.547531,-1.53955,
2026_07_06_20_08_28.052,3.872,51.1,0,0.775,0,0,0,0, ,0,0,0,0,0, ,-39.4,384.5,922.9,-0.2,-0.6,-1.5,25,-39.6557,383.714,923.252,-0.0532939,-0.550728,-1.53714,
2026_07_06_20_08_28.072,3.872,51.1,0,0.774,0,0,0,0, ,0,0,0,0,0, ,-39.7,385.2,922.6,-0.1,-0.5,-1.5,25,-39.6492,383.784,923.221,-0.0591869,-0.550684,-1.53487,
2026_07_06_20_08_28.091,3.872,51.3,0,0.774,0,0,0,0, ,0,0,0,0,0, ,-40.6,384.3,923.4,-0.1,-0.6,-1.6,25,-39.6797,383.842,923.208,-0.0616739,-0.550642,-1.5358,
2026_07_06_20_08_28.112,3.872,51.1,0,0.774,0,0,0,0, ,0,0,0,0,0, ,-38.3,384.3,923.7,0,-0.6,-1.5,25,-39.6657,383.87,923.229,-0.0609626,-0.55365,-1.53666,
2026_07_06_20_08_28.131,3.872,51.1,0,0.775,0,0,0,0, ,0,0,0,0,0, ,-39.9,383.4,923,-0.1,-0.5,-1.6,25,-39.6313,383.869,923.236,-0.0602945,-0.553428,-1.53747,
2026_07_06_20_08_28.150,3.872,51,0,0.774,0,0,0,0, ,0,0,0,0,0, ,-38.8,385.9,925.1,-0.1,-0.6,-1.5,25,-39.6141,383.917,923.286,-0.0627141,-0.553219,-1.53824,
2026_07_06_20_08_28.171,3.872,51.1,0,0.773,0,0,0,0, ,0,0,0,0,0, ,-39.7,384.1,922.8,0.1,-0.5,-1.6,25,-39.5919,383.983,923.326,-0.0588924,-0.553023,-1.53895,
2026_07_06_20_08_28.191,3.872,51.1,0,0.773,0,0,0,0, ,0,0,0,0,0, ,-40.6,386.3,923.7,-0.1,-0.6,-1.6,25,-39.6259,384.057,923.322,-0.0553037,-0.552838,-1.54267,
2026_07_06_20_08_28.210,3.872,51.1,0,0.776,0,0,0,0, ,0,0,0,0,0, ,-39.3,384.7,924,0.2,-0.5,-1.5,25,-39.6457,384.145,923.354,-0.0488867,-0.552665,-1.54312,
2026_07_06_20_08_28.230,3.872,51.1,0,0.775,0,0,0,0, ,0,0,0,0,0, ,-40,383.4,925,0,-0.5,-1.6,25,-39.6459,384.139,923.424,-0.039814,-0.549456,-1.54354,
2026_07_06_20_08_28.249,3.872,51.1,0,0.774,0,0,0,0, ,0,0,0,0,0, ,-39.9,383,920.7,0,-0.5,-1.6,25,-39.6645,384.082,923.389,-0.0373878,-0.546442,-1.54698,
2026_07_06_20_08_28.270,3.872,51,0,0.774,0,0,0,0, ,0,0,0,0,0, ,-40,382.3,924.4,-0.2,-0.6,-1.6,25,-39.6819,383.995,923.338,-0.0412032,-0.546659,-1.55021,
2026_07_06_20_08_28.289,3.872,51,0,0.775,0,0,0,0, ,0,0,0,0,0, ,-41.6,385.3,922.9,-0.3,-0.5,-1.5,25,-39.75,383.983,923.357,-0.0539268,-0.546863,-1.5502,
2026_07_06_20_08_28.311,3.872,51,0,0.775,0,0,0,0, ,0,0,0,0,0, ,-39.3,385.7,926.6,0.1,-0.5,-1.5,25,-39.7927,384.075,923.441,-0.0567344,-0.544007,-1.54714,
2026_07_06_20_08_28.332,3.872,51.1,0,0.773,0,0,0,0, ,0,0,0,0,0, ,-39.9,380.6,920.2,0.7,-0.5,-1.5,25,-39.7809,384.019,923.439,-0.0289021,-0.541325,-1.54427,
2026_07_06_20_08_28.349,3.872,51,0,0.774,0,0,0,0, ,0,0,0,0,0, ,-39.9,378,922.3,-0.2,-0.5,-1.5,25,-39.7882,383.731,923.306,-0.0119065,-0.538807,-1.54157,
2026_07_06_20_08_28.368,3.872,51.1,0,0.775,0,0,0,0, ,0,0,0,0,0, ,-41,387.5,924.9,-0.6,-0.5,-1.5,25,-39.8285,383.671,923.323,-0.035556,-0.536442,-1.53904,
2026_07_06_20_08_28.388,3.872,51,0,0.775,0,0,0,0, ,0,0,0,0,0, ,-40,389.6,925.6,0.6,-0.5,-1.5,25,-39.8694,383.969,923.441,-0.0333893,-0.534222,-1.53666,
2026_07_06_20_08_28.408,3.872,51,0,0.774,0,0,0,0, ,0,0,0,0,0, ,-39.1,380.7,921.8,0.5,-0.6,-1.5,25,-39.85,384.041,923.457,0.002161,-0.535183,-1.53442,
2026_07_06_20_08_28.427,3.872,51,0,0.774,0,0,0,0, ,0,0,0,0,0, ,-40.2,384.2,923.9,-0.3,-0.5,-1.6,25,-39.8378,383.944,923.42,0.00812307,-0.536086,-1.53537,
2026_07_06_20_08_28.447,3.872,51,0,0.774,0,0,0,0, ,0,0,0,0,0, ,-40.6,385.3,921.7,0,-0.6,-1.5,25,-39.872,383.993,923.382,-0.00151256,-0.536934,-1.53626,
2026_07_06_20_08_28.467,3.872,51,0,0.775,0,0,0,0, ,0,0,0,0,0, ,-40.7,381.8,923.2,0.3,-0.5,-1.5,25,-39.9194,383.966,923.325,0.00772024,-0.53773,-1.53405,
2026_07_06_20_08_28.487,3.872,51,0,0.774,0,0,0,0, ,0,0,0,0,0, ,-40,382.5,923.9,-0.4,-0.6,-1.5,25,-39.9457,383.855,923.339,0.00420291,-0.538478,-1.53198,
2026_07_06_20_08_28.507,3.872,51,0,0.774,0,0,0,0, ,0,0,0,0,0, ,-39.6,384.1,922.2,-0.3,-0.5,-1.5,25,-39.9368,383.821,923.321,-0.0173813,-0.53918,-1.53003,
2026_07_06_20_08_28.527,3.872,51,0,0.774,0,0,0,0, ,0,0,0,0,0, ,-40.2,386.5,924.3,0.1,-0.5,-1.5,25,-39.9346,383.912,923.317,-0.0224159,-0.536792,-1.5282,
2026_07_06_20_08_28.547,3.872,51,0,0.774,0,0,0,0, ,0,0,0,0,0, ,-40.2,383.4,922.4,0.5,-0.6,-1.5,25,-39.9507,383.975,923.319,-0.00276868,-0.537597,-1.52648,
2026_07_06_20_08_28.567,3.872,51,0,0.773,0,0,0,0, ,0,0,0,0,0, ,-40.8,381.4,924,0,-0.5,-1.5,25,-39.9842,383.879,923.312,0.0126344,-0.538353,-1.52487,
2026_07_06_20_08_28.586,3.872,51,0,0.774,0,0,0,0, ,0,0,0,0,0, ,-39.7,382.4,921.6,-0.4,-0.5,-1.5,25,-40.0004,383.758,923.281,-0.000323002,-0.536016,-1.52335,
2026_07_06_20_08_28.606,3.872,51,0,0.775,0,0,0,0, ,0,0,0,0,0, ,-39.5,384.2,923.4,-0.2,-0.5,-1.6,25,-39.976,383.73,923.233,-0.0185846,-0.533821,-1.52498,
2026_07_06_20_08_28.626,3.872,51.1,0,0.774,0,0,0,0, ,0,0,0,0,0, ,-40.2,384.6,922.8,0.1,-0.6,-1.6,25,-39.9683,383.771,923.225,-0.0204989,-0.534807,-1.52955,
2026_07_06_20_08_28.646,3.872,50.9,0,0.773,0,0,0,0, ,0,0,0,0,0, ,-40.2,383,923.8,0,-0.5,-1.5,25,-39.9824,383.773,923.229,-0.0162029,-0.535733,-1.53079,
2026_07_06_20_08_28.669,3.872,50.9,0,0.774,0,0,0,0, ,0,0,0,0,0, ,-38.4,384.1,924.8,-0.1,-0.5,-1.6,25,-39.9409,383.759,923.295,-0.0182624,-0.533555,-1.53196,
2026_07_06_20_08_28.686,3.872,51,0,0.774,0,0,0,0, ,0,0,0,0,0, ,-40.8,383.6,921.8,0,-0.6,-1.6,25,-39.9201,383.765,923.295,-0.0201964,-0.534558,-1.53611,
2026_07_06_20_08_28.706,3.872,50.9,0,0.774,0,0,0,0, ,0,0,0,0,0, ,-39.5,383.1,923.7,0,-0.5,-1.6,25,-39.9341,383.74,923.262,-0.0189657,-0.535499,-1.54,
2026_07_06_20_08_28.725,3.872,50.9,0,0.774,0,0,0,0, ,0,0,0,0,0, ,-40.4,383.7,923,0,-0.5,-1.6,25,-39.9351,383.719,923.267,-0.01781,-0.533335,-1.54366,
2026_07_06_20_08_28.745,3.872,50.9,0,0.773,0,0,0,0, ,0,0,0,0,0, ,-39.4,383.5,925,0,-0.6,-1.5,25,-39.9329,383.712,923.312,-0.0167247,-0.534351,-1.54405,
2026_07_06_20_08_28.765,3.872,50.9,0,0.774,0,0,0,0, ,0,0,0,0,0, ,-41.6,383.9,923.8,0,-0.6,-1.6,25,-39.9675,383.711,923.378,-0.0157055,-0.538351,-1.54441,
2026_07_06_20_08_28.785,3.872,50.9,0,0.774,0,0,0,0, ,0,0,0,0,0, ,-40,387.3,926.3,0,-0.6,-1.5,25,-40.0182,383.826,923.48,-0.0147485,-0.542108,-1.54475,
2026_07_06_20_08_28.804,3.872,50.9,0,0.774,0,0,0,0, ,0,0,0,0,0, ,-39.4,386.5,925.2,0.1,-0.6,-1.6,25,-39.9988,384.013,923.618,-0.0108029,-0.545636,-1.54507,
2026_07_06_20_08_28.823,3.872,50.9,0,0.775,0,0,0,0, ,0,0,0,0,0, ,-39.9,383.3,921.6,0.3,-0.6,-1.5,25,-39.9776,384.067,923.605,0.00204293,-0.548949,-1.54537,
2026_07_06_20_08_28.843,3.872,50.8,0,0.775,0,0,0,0, ,0,0,0,0,0, ,-40.4,382.4,924.1,0,-0.5,-1.5,25,-39.9881,383.993,923.559,0.0110591,-0.549013,-1.54261,
2026_07_06_20_08_28.864,3.872,50.9,0,0.774,0,0,0,0, ,0,0,0,0,0, ,-40,383.9,922.8,0,-0.5,-1.5,25,-40.001,383.942,923.552,0.0103852,-0.546026,-1.54001,
2026_07_06_20_08_28.887,3.872,50.9,0,0.774,0,0,0,0, ,0,0,0,0,0, ,-40,384.8,924.1,-0.1,-0.6,-1.5,25,-40.0009,383.967,923.546,0.00670543,-0.546268,-1.53757,
2026_07_06_20_08_28.903,3.872,50.8,0,0.774,0,0,0,0, ,0,0,0,0,0, ,-40.2,385.8,922.3,0,-0.6,-1.5,25,-40.007,384.048,923.525,0.00324995,-0.549542,-1.53528,
2026_07_06_20_08_28.923,3.872,50.9,0,0.775,0,0,0,0, ,0,0,0,0,0, ,-38.6,385.6,924,0,-0.6,-1.5,25,-39.97,384.149,923.502,0.0030519,-0.552617,-1.53313,
2026_07_06_20_08_28.943,3.872,50.8,0,0.773,0,0,0,0, ,0,0,0,0,0, ,-39.9,382.2,922.6,0,-0.6,-1.6,25,-39.9261,384.133,923.49,0.00286593,-0.555505,-1.53416,
2026_07_06_20_08_28.962,3.872,50.8,0,0.775,0,0,0,0, ,0,0,0,0,0, ,-39.7,384,923.4,-0.1,-0.5,-1.6,25,-39.9184,384.07,923.46,-0.00035559,-0.555169,-1.53817,
2026_07_06_20_08_28.982,3.872,50.9,0,0.776,0,0,0,0, ,0,0,0,0,0, ,-38.5,384.2,921.2,0,-0.5,-1.5,25,-39.8685,384.072,923.389,-0.0033808,-0.551807,-1.53889,
2026_07_06_20_08_29.002,3.872,50.8,0,0.773,0,0,0,0, ,0,0,0,0,0, ,-39.3,384.1,921.8,0,-0.5,-1.6,25,-39.8095,384.077,923.274,-0.00317478,-0.54865,-1.53957,
2026_07_06_20_08_29.022,3.872,50.9,0,0.775,0,0,0,0, ,0,0,0,0,0, ,-40.6,383,922.2,0.1,-0.5,-1.5,25,-39.8181,384.045,923.197,6.5559e-05,-0.545686,-1.54021,
2026_07_06_20_08_29.042,3.872,50.8,0,0.774,0,0,0,0, ,0,0,0,0,0, ,-40,382.3,924.5,-0.1,-0.5,-1.5,25,-39.8475,383.96,923.206,6.1564e-05,-0.542902,-1.53776,
2026_07_06_20_08_29.057,3.872,50.9,0,0.776,0,0,0,0, ,0,0,0,0,0, ,-39.1,384.7,926.2,-0.2,-0.6,-1.6,25,-39.8293,383.932,923.337,-0.00908281,-0.543334,-1.5385,
2026_07_06_20_08_29.081,3.872,50.9,0,0.773,0,0,0,0, ,0,0,0,0,0, ,-38.8,385.7,922.4,0.3,-0.6,-1.5,25,-39.7757,384.009,923.395,-0.00548245,-0.546787,-1.5392,
2026_07_06_20_08_29.101,3.872,50.8,0,0.773,0,0,0,0, ,0,0,0,0,0, ,-39.6,380,921.6,0.3,-0.5,-1.5,25,-39.7407,383.939,923.31,0.0131329,-0.546983,-1.53681,
2026_07_06_20_08_29.120,3.872,50.8,0,0.774,0,0,0,0, ,0,0,0,0,0, ,-38.5,380.9,921.6,-0.6,-0.6,-1.6,25,-39.6986,383.726,923.206,0.00319197,-0.547167,-1.53762,
2026_07_06_20_08_29.141,3.872,50.9,0,0.774,0,0,0,0, ,0,0,0,0,0, ,-39.4,385.8,923.5,-0.5,-0.5,-1.6,25,-39.653,383.703,923.166,-0.0305182,-0.54734,-1.54142,
2026_07_06_20_08_29.161,3.872,50.8,0,0.774,0,0,0,0, ,0,0,0,0,0, ,-39.7,386.1,924.4,0.1,-0.5,-1.5,25,-39.6467,383.84,923.214,-0.040846,-0.544455,-1.54194,
2026_07_06_20_08_29.181,3.872,50.8,0,0.774,0,0,0,0, ,0,0,0,0,0, ,-41.1,381.9,922.1,0,-0.5,-1.6,25,-39.6926,383.85,923.216,-0.03531,-0.541746,-1.54243,
2026_07_06_20_08_29.200,3.872,50.8,0,0.775,0,0,0,0, ,0,0,0,0,0, ,-39.9,382,922.7,-0.2,-0.6,-1.5,25,-39.7418,383.734,923.166,-0.0392521,-0.542249,-1.54289,
2026_07_06_20_08_29.223,3.872,50.7,0,0.775,0,0,0,0, ,0,0,0,0,0, ,-39.9,385.8,924.3,-0.3,-0.5,-1.5,25,-39.7514,383.744,923.187,-0.0520945,-0.542721,-1.54028,
2026_07_06_20_08_29.240,3.872,50.8,0,0.773,0,0,0,0, ,0,0,0,0,0, ,-39.6,385.9,922.6,0.3,-0.6,-1.5,25,-39.7513,383.872,923.203,-0.04892,-0.543165,-1.53782,
2026_07_06_20_08_29.259,3.872,50.7,0,0.774,0,0,0,0, ,0,0,0,0,0, ,-39.6,381.4,921.9,0.1,-0.6,-1.6,25,-39.7421,383.859,923.145,-0.0337515,-0.546628,-1.53857,
2026_07_06_20_08_29.279,3.872,50.8,0,0.775,0,0,0,0, ,0,0,0,0,0, ,-40.6,383.5,921.9,-0.5,-0.6,-1.6,25,-39.7639,383.773,923.069,-0.0438822,-0.54988,-1.54231,
2026_07_06_20_08_29.299,3.872,50.7,0,0.774,0,0,0,0, ,0,0,0,0,0, ,-40.4,386.3,924.3,-0.1,-0.6,-1.6,25,-39.8088,383.842,923.071,-0.0594894,-0.552935,-1.54583,
2026_07_06_20_08_29.318,3.872,50.7,0,0.774,0,0,0,0, ,0,0,0,0,0, ,-39.5,383.7,922.4,0.1,-0.6,-1.6,25,-39.8174,383.912,923.088,-0.0558643,-0.555803,-1.54913,
2026_07_06_20_08_29.339,3.872,50.7,0,0.774,0,0,0,0, ,0,0,0,0,0, ,-40.1,383,923,0,-0.6,-1.5,25,-39.8163,383.878,923.064,-0.0494132,-0.558496,-1.54918,
2026_07_06_20_08_29.358,3.872,50.8,0,0.774,0,0,0,0, ,0,0,0,0,0, ,-40,384.8,922.8,-0.1,-0.6,-1.6,25,-39.8306,383.879,923.054,-0.0494489,-0.561025,-1.54923,
2026_07_06_20_08_29.378,3.872,50.8,0,0.774,0,0,0,0, ,0,0,0,0,0, ,-39.5,384.2,923.9,0,-0.6,-1.5,25,-39.8257,383.917,923.072,-0.0494825,-0.5634,-1.54928,
2026_07_06_20_08_29.398,3.872,50.7,0,0.773,0,0,0,0, ,0,0,0,0,0, ,-40.8,384.2,923.3,0.1,-0.7,-1.5,25,-39.8454,383.934,923.104,-0.0434203,-0.568677,-1.54627,
2026_07_06_20_08_29.418,3.872,50.7,0,0.774,0,0,0,0, ,0,0,0,0,0, ,-40.8,379.8,922.6,0,-0.7,-1.5,25,-39.9036,383.817,923.095,-0.0377275,-0.57668,-1.54345,
2026_07_06_20_08_29.438,3.872,50.8,0,0.774,0,0,0,0, ,0,0,0,0,0, ,-40.7,383.3,922.4,-0.4,-0.6,-1.6,25,-39.9552,383.678,923.059,-0.047616,-0.581148,-1.54385,
2026_07_06_20_08_29.457,3.872,50.7,0,0.774,0,0,0,0, ,0,0,0,0,0, ,-40.1,384.6,925,-0.1,-0.5,-1.5,25,-39.9823,383.695,923.098,-0.0599487,-0.57925,-1.54423,
2026_07_06_20_08_29.477,3.872,50.7,0,0.774,0,0,0,0, ,0,0,0,0,0, ,-38.9,384.3,922.7,0,-0.6,-1.5,25,-39.9529,383.741,923.144,-0.0593425,-0.577467,-1.54153,
2026_07_06_20_08_29.497,3.872,50.6,0,0.774,0,0,0,0, ,0,0,0,0,0, ,-40.6,380.9,923.4,0,-0.5,-1.5,25,-39.9405,383.671,923.138,-0.0557263,-0.575794,-1.539,
2026_07_06_20_08_29.517,3.872,50.7,0,0.775,0,0,0,0, ,0,0,0,0,0, ,-39,383.4,922.9,-0.2,-0.5,-1.6,25,-39.932,383.579,923.139,-0.0584242,-0.571175,-1.53967,
2026_07_06_20_08_29.537,3.872,50.8,0,0.773,0,0,0,0, ,0,0,0,0,0, ,-39.4,384.3,923,0,-0.5,-1.5,25,-39.8874,383.595,923.127,-0.0609578,-0.566838,-1.5403,
2026_07_06_20_08_29.556,3.872,50.8,0,0.775,0,0,0,0, ,0,0,0,0,0, ,-39.4,383.6,923.4,-0.1,-0.5,-1.6,25,-39.8577,383.617,923.132,-0.06029,-0.562765,-1.54089,
2026_07_06_20_08_29.576,3.872,50.7,0,0.775,0,0,0,0, ,0,0,0,0,0, ,-40.4,382.9,923.2,-0.1,-0.5,-1.6,25,-39.8602,383.595,923.142,-0.0627099,-0.55894,-1.54449,
2026_07_06_20_08_29.596,3.872,50.7,0,0.774,0,0,0,0, ,0,0,0,0,0, ,-40.1,382.6,921.8,0,-0.5,-1.5,25,-39.884,383.543,923.103,-0.0619353,-0.555348,-1.54483,
2026_07_06_20_08_29.615,3.872,50.7,0,0.774,0,0,0,0, ,0,0,0,0,0, ,-39.4,383.9,924.6,0,-0.5,-1.5,25,-39.8758,383.525,923.109,-0.0581612,-0.551976,-1.5421,
2026_07_06_20_08_29.636,3.872,50.8,0,0.774,0,0,0,0, ,0,0,0,0,0, ,-40.1,383.6,922.9,-0.1,-0.5,-1.5,25,-39.8682,383.539,923.148,-0.0576638,-0.548808,-1.53953,
2026_07_06_20_08_29.655,3.872,50.6,0,0.774,0,0,0,0, ,0,0,0,0,0, ,-39.3,383.6,924,-0.1,-0.5,-1.6,25,-39.8579,383.543,923.166,-0.0602437,-0.545834,-1.54017,
2026_07_06_20_08_29.675,3.872,50.7,0,0.774,0,0,0,0, ,0,0,0,0,0, ,-40.6,385,922.1,0,-0.6,-1.5,25,-39.8635,383.589,923.159,-0.0596195,-0.546088,-1.54077,
2026_07_06_20_08_29.694,3.872,50.7,0,0.774,0,0,0,0, ,0,0,0,0,0, ,-40.5,383,924.9,0,-0.6,-1.5,25,-39.9054,383.614,923.18,-0.0559864,-0.549373,-1.53829,
2026_07_06_20_08_29.715,3.872,50.8,0,0.774,0,0,0,0, ,0,0,0,0,0, ,-39.6,383.7,925.4,-0.1,-0.5,-1.5,25,-39.9142,383.598,923.3,-0.0556216,-0.549411,-1.53595,
2026_07_06_20_08_29.735,3.872,50.8,0,0.775,0,0,0,0, ,0,0,0,0,0, ,-39.3,383.4,922.9,-0.1,-0.6,-1.6,25,-39.8859,383.595,923.352,-0.0583259,-0.549447,-1.53681,
2026_07_06_20_08_29.755,3.872,50.7,0,0.775,0,0,0,0, ,0,0,0,0,0, ,-39.7,384.7,923.4,0,-0.5,-1.5,25,-39.8624,383.623,923.339,-0.0578186,-0.549481,-1.53761,
2026_07_06_20_08_29.778,3.872,50.7,0,0.774,0,0,0,0, ,0,0,0,0,0, ,-39.5,382.5,923.5,-0.1,-0.6,-1.6,25,-39.8464,383.621,923.346,-0.0573421,-0.549513,-1.53837,
2026_07_06_20_08_29.793,3.872,50.7,0,0.775,0,0,0,0, ,0,0,0,0,0, ,-39.5,384.2,923.3,-0.1,-0.6,-1.6,25,-39.8253,383.605,923.349,-0.0599416,-0.552589,-1.54212,
2026_07_06_20_08_29.814,3.872,50.6,0,0.774,0,0,0,0, ,0,0,0,0,0, ,-41.3,385.1,922.4,0,-0.6,-1.5,25,-39.8603,383.668,923.319,-0.0593358,-0.555478,-1.5426,
2026_07_06_20_08_29.833,3.872,50.6,0,0.774,0,0,0,0, ,0,0,0,0,0, ,-39.5,384.5,922.9,0,-0.6,-1.5,25,-39.8932,383.737,923.278,-0.05572,-0.558191,-1.54001,
2026_07_06_20_08_29.853,3.872,50.6,0,0.773,0,0,0,0, ,0,0,0,0,0, ,-39.9,383,924.6,0,-0.5,-1.6,25,-39.8814,383.738,923.307,-0.0523246,-0.557692,-1.54062,
2026_07_06_20_08_29.873,3.872,50.6,0,0.773,0,0,0,0, ,0,0,0,0,0, ,-39.1,384.8,923,0,-0.5,-1.5,25,-39.8582,383.748,923.337,-0.049136,-0.554177,-1.54119,
2026_07_06_20_08_29.893,3.872,50.6,0,0.774,0,0,0,0, ,0,0,0,0,0, ,-39,383.7,923.4,0,-0.5,-1.5,25,-39.8089,383.779,923.329,-0.0461418,-0.550875,-1.53868,
2026_07_06_20_08_29.913,3.872,50.7,0,0.774,0,0,0,0, ,0,0,0,0,0, ,-39.6,383.3,923.5,0.1,-0.5,-1.6,25,-39.7779,383.762,923.336,-0.0402832,-0.547775,-1.53937,
2026_07_06_20_08_29.944,3.872,50.4,0,0.774,0,0,0,0, ,0,0,0,0,0, ,-39.4,383.4,924.4,0,-0.5,-1.6,25,-39.761,383.737,923.373,-0.0347815,-0.544864,-1.54306,
2026_07_06_20_08_29.964,3.872,50.6,0,0.774,0,0,0,0, ,0,0,0,0,0, ,-38.4,384.1,921.6,-0.1,-0.5,-1.5,25,-39.7085,383.737,923.351,-0.0357089,-0.54213,-1.54349,
2026_07_06_20_08_29.973,3.872,50.6,0,0.774,0,0,0,0, ,0,0,0,0,0, ,-40,384.2,922.4,0,-0.6,-1.5,25,-39.6775,383.762,923.268,-0.0365798,-0.542609,-1.54084,
2026_07_06_20_08_29.992,3.872,50.6,0,0.773,0,0,0,0, ,0,0,0,0,0, ,-39.9,383.3,923.7,0,-0.5,-1.5,25,-39.6941,383.762,923.255,-0.0343507,-0.54306,-1.53835,
2026_07_06_20_08_30.012,3.872,50.6,0,0.774,0,0,0,0, ,0,0,0,0,0, ,-40.1,383.3,922.4,-0.1,-0.5,-1.5,25,-39.7128,383.734,923.243,-0.0353043,-0.540436,-1.53601,
2026_07_06_20_08_30.032,3.872,50.6,0,0.774,0,0,0,0, ,0,0,0,0,0, ,-40.4,385.2,922.9,-0.1,-0.5,-1.5,25,-39.7455,383.765,923.206,-0.0392467,-0.537972,-1.53382,
2026_07_06_20_08_30.054,3.872,50.6,0,0.773,0,0,0,0, ,0,0,0,0,0, ,-39,382.4,922.6,0,-0.6,-1.5,25,-39.7427,383.767,923.179,-0.039902,-0.538705,-1.53176,
2026_07_06_20_08_30.072,3.872,50.6,0,0.774,0,0,0,0, ,0,0,0,0,0, ,-40,383.7,923.8,-0.1,-0.6,-1.5,25,-39.7279,383.723,923.18,-0.0405173,-0.54244,-1.52982,
2026_07_06_20_08_30.091,3.872,50.7,0,0.774,0,0,0,0, ,0,0,0,0,0, ,-40.6,383.7,922.3,-0.3,-0.5,-1.5,25,-39.7628,383.722,923.172,-0.0502358,-0.542901,-1.528,
2026_07_06_20_08_30.111,3.872,50.7,0,0.775,0,0,0,0, ,0,0,0,0,0, ,-40,384.6,924.3,-0.1,-0.5,-1.6,25,-39.7955,383.748,923.18,-0.0593621,-0.540286,-1.52934,
2026_07_06_20_08_30.130,3.872,50.4,0,0.775,0,0,0,0, ,0,0,0,0,0, ,-38.2,384,922.8,0,-0.5,-1.6,25,-39.7532,383.782,923.202,-0.0587916,-0.537831,-1.53365,
2026_07_06_20_08_30.150,3.872,50.6,0,0.773,0,0,0,0, ,0,0,0,0,0, ,-39.7,384,923,0,-0.6,-1.6,25,-39.7042,383.795,923.184,-0.055209,-0.538573,-1.53769,
2026_07_06_20_08_30.170,3.872,50.6,0,0.774,0,0,0,0, ,0,0,0,0,0, ,-39.4,383.7,922.2,-0.1,-0.6,-1.5,25,-39.6948,383.798,923.148,-0.0548915,-0.542316,-1.53844,
2026_07_06_20_08_30.191,3.872,50.6,0,0.776,0,0,0,0, ,0,0,0,0,0, ,-39.1,385.6,923.2,0,-0.6,-1.6,25,-39.6677,383.85,923.121,-0.0545935,-0.545831,-1.53915,
2026_07_06_20_08_30.209,3.872,50.4,0,0.774,0,0,0,0, ,0,0,0,0,0, ,-39.5,383.6,922.1,0,-0.5,-1.6,25,-39.6453,383.896,923.092,-0.0512667,-0.546085,-1.54285,
2026_07_06_20_08_30.230,3.872,50.4,0,0.775,0,0,0,0, ,0,0,0,0,0, ,-39,383.5,922.9,-0.1,-0.6,-1.6,25,-39.6212,383.875,923.056,-0.0511895,-0.546324,-1.54634,
2026_07_06_20_08_30.250,3.872,50.4,0,0.774,0,0,0,0, ,0,0,0,0,0, ,-39.7,382.4,920,0,-0.6,-1.5,25,-39.6047,383.819,922.958,-0.051117,-0.549595,-1.54656,
2026_07_06_20_08_30.269,3.872,50.6,0,0.773,0,0,0,0, ,0,0,0,0,0, ,-39,382.6,922.3,0,-0.6,-1.5,25,-39.5892,383.738,922.848,-0.0480021,-0.552666,-1.54372,
2026_07_06_20_08_30.289,3.872,50.4,0,0.775,0,0,0,0, ,0,0,0,0,0, ,-40,383.6,925.1,-0.2,-0.5,-1.5,25,-39.5837,383.699,922.9,-0.0511707,-0.552504,-1.54106,
2026_07_06_20_08_30.309,3.872,50.6,0,0.774,0,0,0,0, ,0,0,0,0,0, ,-39.9,385.9,922.4,-0.1,-0.5,-1.6,25,-39.606,383.763,922.952,-0.0571931,-0.549304,-1.5416,
2026_07_06_20_08_30.328,3.872,50.4,0,0.775,0,0,0,0, ,0,0,0,0,0, ,-40.1,383.5,924.8,0,-0.6,-1.5,25,-39.6301,383.82,922.991,-0.0567548,-0.549347,-1.54212,
2026_07_06_20_08_30.348,3.872,50.6,0,0.774,0,0,0,0, ,0,0,0,0,0, ,-39.1,383.3,924,0,-0.6,-1.6,25,-39.6282,383.795,923.077,-0.0532963,-0.552433,-1.5426,
2026_07_06_20_08_30.368,3.872,50.6,0,0.774,0,0,0,0, ,0,0,0,0,0, ,-38.9,384.8,922.3,0,-0.5,-1.5,25,-39.5899,383.81,923.082,-0.0500485,-0.552285,-1.54305,
2026_07_06_20_08_30.388,3.872,50.6,0,0.774,0,0,0,0, ,0,0,0,0,0, ,-40.5,384.5,923.4,0,-0.5,-1.6,25,-39.5966,383.862,923.068,-0.0469987,-0.549099,-1.54347,
2026_07_06_20_08_30.407,3.872,50.4,0,0.774,0,0,0,0, ,0,0,0,0,0, ,-39.4,382.4,923.4,0,-0.5,-1.5,25,-39.6182,383.836,923.088,-0.0441347,-0.546107,-1.54387,
2026_07_06_20_08_30.427,3.872,50.4,0,0.774,0,0,0,0, ,0,0,0,0,0, ,-39,383,923.8,0,-0.5,-1.5,25,-39.5927,383.767,923.119,-0.0414453,-0.543297,-1.5412,
2026_07_06_20_08_30.454,3.872,50.6,0,0.774,0,0,0,0, ,0,0,0,0,0, ,-39.7,382.8,923.3,-0.1,-0.6,-1.6,25,-39.5779,383.714,923.145,-0.0419666,-0.543706,-1.54173,
2026_07_06_20_08_30.467,3.872,50.4,0,0.773,0,0,0,0, ,0,0,0,0,0, ,-39.7,383.7,923.3,0,-0.6,-1.6,25,-39.5853,383.686,923.155,-0.0424561,-0.547136,-1.54528,
2026_07_06_20_08_30.487,3.872,50.2,0,0.774,0,0,0,0, ,0,0,0,0,0, ,-39.9,384.3,922.8,0,-0.6,-1.6,25,-39.5984,383.705,923.148,-0.0398689,-0.550358,-1.54862,
2026_07_06_20_08_30.508,3.872,50.4,0,0.774,0,0,0,0, ,0,0,0,0,0, ,-41,384.1,920.4,0,-0.5,-1.6,25,-39.6503,383.735,923.054,-0.0374394,-0.550336,-1.55175,
2026_07_06_20_08_30.526,3.872,50.4,0,0.773,0,0,0,0, ,0,0,0,0,0, ,-40.2,383.9,921.9,-0.2,-0.6,-1.5,25,-39.7082,383.751,922.938,-0.0412517,-0.550315,-1.55164,
2026_07_06_20_08_30.546,3.872,50.4,0,0.774,0,0,0,0, ,0,0,0,0,0, ,-40,384.2,921.9,-0.1,-0.5,-1.6,25,-39.7321,383.77,922.875,-0.0478786,-0.550296,-1.55154,
2026_07_06_20_08_30.566,3.872,50.3,0,0.773,0,0,0,0, ,0,0,0,0,0, ,-40.5,383.4,923,0,-0.5,-1.5,25,-39.7636,383.771,922.849,-0.0480078,-0.547231,-1.55145,
2026_07_06_20_08_30.592,3.872,50.4,0,0.774,0,0,0,0, ,0,0,0,0,0, ,-39.7,382.4,923.9,0,-0.6,-1.6,25,-39.7841,383.718,922.885,-0.0450824,-0.5474,-1.55136,
2026_07_06_20_08_30.605,3.872,50.4,0,0.774,0,0,0,0, ,0,0,0,0,0, ,-39.7,383.6,924,-0.1,-0.5,-1.6,25,-39.779,383.675,922.95,-0.045382,-0.547558,-1.55432,
2026_07_06_20_08_30.626,3.872,50.3,0,0.774,0,0,0,0, ,0,0,0,0,0, ,-39.4,384.5,923.4,-0.1,-0.6,-1.5,25,-39.765,383.697,922.996,-0.0487103,-0.547707,-1.55406,
2026_07_06_20_08_30.646,3.872,50.3,0,0.774,0,0,0,0, ,0,0,0,0,0, ,-40,384.8,924.9,0.1,-0.5,-1.6,25,-39.7611,383.756,923.066,-0.045742,-0.547847,-1.55381,
2026_07_06_20_08_30.665,3.872,50.3,0,0.775,0,0,0,0, ,0,0,0,0,0, ,-39.4,383,922.7,0,-0.6,-1.5,25,-39.7574,383.764,923.111,-0.0399077,-0.547978,-1.55358,
2026_07_06_20_08_30.685,3.872,50.4,0,0.774,0,0,0,0, ,0,0,0,0,0, ,-39.6,383.7,923.2,-0.1,-0.6,-1.5,25,-39.7417,383.739,923.101,-0.0405227,-0.551148,-1.55032,
2026_07_06_20_08_30.705,3.872,50.2,0,0.774,0,0,0,0, ,0,0,0,0,0, ,-39.9,384.8,922.4,0,-0.5,-1.5,25,-39.7422,383.77,923.083,-0.0411003,-0.551078,-1.54725,
2026_07_06_20_08_30.728,3.872,50.2,0,0.773,0,0,0,0, ,0,0,0,0,0, ,-38.9,385.3,922.7,0.1,-0.5,-1.6,25,-39.7213,383.848,923.05,-0.0355488,-0.547966,-1.54742,
2026_07_06_20_08_30.744,3.872,50.3,0,0.774,0,0,0,0, ,0,0,0,0,0, ,-40.6,383.7,922.9,0,-0.5,-1.5,25,-39.7231,383.888,923.035,-0.0303357,-0.545043,-1.54757,
2026_07_06_20_08_30.763,3.872,50.3,0,0.775,0,0,0,0, ,0,0,0,0,0, ,-40.5,381.9,923.7,0,-0.6,-1.5,25,-39.7735,383.822,923.051,-0.0284871,-0.545345,-1.54468,
2026_07_06_20_08_30.783,3.872,50.4,0,0.774,0,0,0,0, ,0,0,0,0,0, ,-39.5,384.2,922.9,0,-0.6,-1.6,25,-39.7873,383.775,923.066,-0.0267512,-0.548675,-1.545,
2026_07_06_20_08_30.804,3.872,50.2,0,0.775,0,0,0,0, ,0,0,0,0,0, ,-39,383.3,922.9,0,-0.5,-1.4,25,-39.7545,383.773,923.056,-0.025121,-0.548756,-1.54226,
2026_07_06_20_08_30.823,3.872,50.2,0,0.774,0,0,0,0, ,0,0,0,0,0, ,-38.6,383.1,922.9,0,-0.5,-1.5,25,-39.6964,383.738,923.047,-0.0235902,-0.545785,-1.53664,
2026_07_06_20_08_30.844,3.872,50.1,0,0.773,0,0,0,0, ,0,0,0,0,0, ,-40.8,384,923.7,-0.1,-0.6,-1.6,25,-39.6966,383.727,923.062,-0.0251996,-0.546042,-1.53745,
2026_07_06_20_08_30.863,3.872,50.4,0,0.774,0,0,0,0, ,0,0,0,0,0, ,-39.6,385,923.2,-0.1,-0.6,-1.5,25,-39.7273,383.774,923.086,-0.0297577,-0.54933,-1.53821,
2026_07_06_20_08_30.882,3.872,50.2,0,0.775,0,0,0,0, ,0,0,0,0,0, ,-39.6,383.9,921.7,0,-0.6,-1.4,25,-39.7195,383.815,923.047,-0.0309912,-0.552418,-1.53284,
2026_07_06_20_08_30.902,3.872,50.1,0,0.774,0,0,0,0, ,0,0,0,0,0, ,-39.1,384.3,923,-0.1,-0.5,-1.6,25,-39.697,383.832,923.005,-0.0321496,-0.55227,-1.53084,
2026_07_06_20_08_30.921,3.872,50.2,0,0.774,0,0,0,0, ,0,0,0,0,0, ,-39.4,383.6,921.6,0,-0.5,-1.5,25,-39.6698,383.84,922.962,-0.0332373,-0.549085,-1.53201,
2026_07_06_20_08_30.942,3.872,50.2,0,0.774,0,0,0,0, ,0,0,0,0,0, ,-39.7,382.8,924.5,0,-0.5,-1.5,25,-39.6625,383.801,922.967,-0.0312119,-0.546094,-1.53006,
2026_07_06_20_08_30.962,3.872,50.2,0,0.775,0,0,0,0, ,0,0,0,0,0, ,-40.1,383.7,923.4,-0.1,-0.5,-1.6,25,-39.6769,383.767,923.027,-0.0323568,-0.543285,-1.53127,
2026_07_06_20_08_30.981,3.872,50.2,0,0.774,0,0,0,0, ,0,0,0,0,0, ,-40.2,384,923.5,-0.1,-0.5,-1.6,25,-39.7058,383.772,923.053,-0.0364788,-0.540647,-1.53546,
2026_07_06_20_08_31.002,3.872,50.3,0,0.774,0,0,0,0, ,0,0,0,0,0, ,-39.9,383.4,923.4,0,-0.5,-1.6,25,-39.7267,383.768,923.077,-0.0373028,-0.53817,-1.53939,
2026_07_06_20_08_31.021,3.872,50.1,0,0.774,0,0,0,0, ,0,0,0,0,0, ,-39.9,383.7,922.7,0,-0.5,-1.5,25,-39.7373,383.754,923.075,-0.0350297,-0.535844,-1.54004,
2026_07_06_20_08_31.041,3.872,50.2,0,0.775,0,0,0,0, ,0,0,0,0,0, ,-40.4,383.9,923.2,-0.1,-0.6,-1.6,25,-39.7624,383.757,923.068,-0.0359419,-0.536707,-1.54065,
2026_07_06_20_08_31.060,3.872,50.2,0,0.774,0,0,0,0, ,0,0,0,0,0, ,-40,383.9,922.8,-0.2,-0.6,-1.5,25,-39.7891,383.766,923.064,-0.0428923,-0.540564,-1.54122,
2026_07_06_20_08_31.081,3.872,50.2,0,0.774,0,0,0,0, ,0,0,0,0,0, ,-39.5,384.2,922.9,0,-0.5,-1.5,25,-39.7867,383.783,923.051,-0.0463723,-0.541139,-1.5387,
2026_07_06_20_08_31.100,3.872,50.2,0,0.773,0,0,0,0, ,0,0,0,0,0, ,-40.4,383.6,923,0,-0.6,-1.6,25,-39.7967,383.79,923.044,-0.0435465,-0.541679,-1.53939,
2026_07_06_20_08_31.119,3.872,50.2,0,0.774,0,0,0,0, ,0,0,0,0,0, ,-39.5,383.5,922.6,-0.1,-0.5,-1.5,25,-39.806,383.776,923.03,-0.0439398,-0.542186,-1.54004,
2026_07_06_20_08_31.140,3.872,50.2,0,0.775,0,0,0,0, ,0,0,0,0,0, ,-39.6,384.6,923.3,0,-0.6,-1.5,25,-39.7904,383.792,923.025,-0.0443091,-0.542662,-1.5376,
2026_07_06_20_08_31.161,3.872,50.2,0,0.774,0,0,0,0, ,0,0,0,0,0, ,-39.1,383.6,923.3,0,-0.6,-1.5,25,-39.7636,383.811,923.041,-0.041609,-0.546156,-1.53531,
2026_07_06_20_08_31.179,3.872,50.1,0,0.773,0,0,0,0, ,0,0,0,0,0, ,-40.6,382.8,923,0,-0.5,-1.6,25,-39.7688,383.774,923.048,-0.0390734,-0.54639,-1.5362,
2026_07_06_20_08_31.199,3.872,50.1,0,0.774,0,0,0,0, ,0,0,0,0,0, ,-39.6,383.7,923,0,-0.6,-1.5,25,-39.789,383.742,923.045,-0.0366924,-0.54661,-1.53704,
2026_07_06_20_08_31.220,3.872,50.1,0,0.774,0,0,0,0, ,0,0,0,0,0, ,-39.5,384.2,922.4,0,-0.5,-1.6,25,-39.7745,383.755,923.024,-0.0344565,-0.546817,-1.53783,
2026_07_06_20_08_31.238,3.872,50.1,0,0.774,0,0,0,0, ,0,0,0,0,0, ,-39.6,383.5,922.3,0,-0.6,-1.4,25,-39.7608,383.76,922.983,-0.0323568,-0.547011,-1.53553,
2026_07_06_20_08_31.258,3.872,50.1,0,0.773,0,0,0,0, ,0,0,0,0,0, ,-40.1,383.3,923.8,0,-0.6,-1.5,25,-39.7662,383.739,922.987,-0.030385,-0.55024,-1.53032,
2026_07_06_20_08_31.279,3.872,50,0,0.775,0,0,0,0, ,0,0,0,0,0, ,-40.2,381.9,923,-0.1,-0.6,-1.5,25,-39.7896,383.669,923.012,-0.0315803,-0.553272,-1.52847,
2026_07_06_20_08_31.298,3.872,50.1,0,0.774,0,0,0,0, ,0,0,0,0,0, ,-39.3,384.6,922.3,-0.1,-0.5,-1.5,25,-39.7872,383.644,922.99,-0.0357496,-0.553073,-1.52673,
2026_07_06_20_08_31.318,3.872,50.1,0,0.773,0,0,0,0, ,0,0,0,0,0, ,-39.4,382.6,924.3,0,-0.5,-1.6,25,-39.7605,383.641,923.009,-0.036618,-0.549839,-1.52815,
2026_07_06_20_08_31.337,3.872,50.1,0,0.774,0,0,0,0, ,0,0,0,0,0, ,-39.4,382.8,923,-0.1,-0.5,-1.5,25,-39.7386,383.584,923.048,-0.0374335,-0.546802,-1.52948,
2026_07_06_20_08_31.357,3.872,50.2,0,0.774,0,0,0,0, ,0,0,0,0,0, ,-41,383.4,923,-0.2,-0.5,-1.6,25,-39.7667,383.554,923.045,-0.044293,-0.54395,-1.53073,
2026_07_06_20_08_31.377,3.872,50.1,0,0.774,0,0,0,0, ,0,0,0,0,0, ,-39.1,383.9,923.7,0,-0.5,-1.6,25,-39.784,383.56,923.064,-0.0476876,-0.541271,-1.53495,
2026_07_06_20_08_31.403,3.872,50.1,0,0.774,0,0,0,0, ,0,0,0,0,0, ,-38.4,385.3,924.4,0,-0.6,-1.5,25,-39.721,383.623,923.124,-0.0447817,-0.541803,-1.53587,
2026_07_06_20_08_31.417,3.872,50.1,0,0.773,0,0,0,0, ,0,0,0,0,0, ,-39.7,384.6,922.7,0,-0.5,-1.5,25,-39.6801,383.704,923.15,-0.0420528,-0.542303,-1.53369,
2026_07_06_20_08_31.437,3.872,50.1,0,0.774,0,0,0,0, ,0,0,0,0,0, ,-39.6,385.1,921.2,-0.1,-0.6,-1.6,25,-39.6782,383.774,923.077,-0.0425371,-0.542772,-1.53468,
2026_07_06_20_08_31.456,3.872,50.1,0,0.774,0,0,0,0, ,0,0,0,0,0, ,-39.4,383.9,921.8,0,-0.6,-1.5,25,-39.6674,383.818,922.981,-0.0429919,-0.546259,-1.53561,
2026_07_06_20_08_31.476,3.872,50.1,0,0.774,0,0,0,0, ,0,0,0,0,0, ,-40.2,383.9,922.7,0,-0.6,-1.6,25,-39.6755,383.823,922.936,-0.040372,-0.549534,-1.53649,
2026_07_06_20_08_31.496,3.872,50.1,0,0.774,0,0,0,0, ,0,0,0,0,0, ,-39.6,383.4,924.3,0,-0.6,-1.5,25,-39.6891,383.813,922.97,-0.0379119,-0.552609,-1.53731,
2026_07_06_20_08_31.516,3.872,50.1,0,0.774,0,0,0,0, ,0,0,0,0,0, ,-38.6,382.8,922.7,-0.2,-0.6,-1.5,25,-39.6532,383.769,923.003,-0.0416954,-0.555497,-1.53504,
2026_07_06_20_08_31.537,3.872,50,0,0.773,0,0,0,0, ,0,0,0,0,0, ,-39.3,384.1,922.3,0,-0.5,-1.5,25,-39.6104,383.75,922.972,-0.0452483,-0.555162,-1.5329,
2026_07_06_20_08_31.555,3.872,50,0,0.774,0,0,0,0, ,0,0,0,0,0, ,-40.6,383.5,922.7,0.2,-0.5,-1.5,25,-39.6311,383.753,922.943,-0.0363972,-0.551801,-1.5309,
2026_07_06_20_08_31.575,3.872,50.1,0,0.775,0,0,0,0, ,0,0,0,0,0, ,-40.1,386.2,923.4,-0.2,-0.6,-1.5,25,-39.6749,383.82,922.95,-0.0341793,-0.551691,-1.52902,
2026_07_06_20_08_31.595,3.872,50.1,0,0.773,0,0,0,0, ,0,0,0,0,0, ,-39.7,385,922.9,0,-0.6,-1.5,25,-39.6886,383.928,922.962,-0.0381902,-0.554635,-1.52725,
2026_07_06_20_08_31.615,3.872,50,0,0.773,0,0,0,0, ,0,0,0,0,0, ,-38.6,384.8,924.9,0,-0.5,-1.5,25,-39.6558,383.987,923.019,-0.035863,-0.554352,-1.52559,
2026_07_06_20_08_31.634,3.872,50.1,0,0.774,0,0,0,0, ,0,0,0,0,0, ,-40.2,385,922.2,-0.1,-0.6,-1.5,25,-39.6402,384.043,923.052,-0.0367245,-0.554087,-1.52403,
2026_07_06_20_08_31.654,3.872,50,0,0.773,0,0,0,0, ,0,0,0,0,0, ,-39.6,385,922.6,-0.1,-0.6,-1.6,25,-39.656,384.101,923.012,-0.0405803,-0.556885,-1.52561,
2026_07_06_20_08_31.675,3.872,50,0,0.774,0,0,0,0, ,0,0,0,0,0, ,-39.1,383.5,922.8,0,-0.5,-1.6,25,-39.6374,384.11,922.993,-0.0411543,-0.556465,-1.53014,
2026_07_06_20_08_31.694,3.872,50.1,0,0.776,0,0,0,0, ,0,0,0,0,0, ,-38.5,382.9,924.4,0,-0.5,-1.5,25,-39.5864,384.055,923.03,-0.0386465,-0.553025,-1.53135,
2026_07_06_20_08_31.714,3.872,50,0,0.773,0,0,0,0, ,0,0,0,0,0, ,-40.8,383.5,924.6,-0.1,-0.5,-1.5,25,-39.5902,384.003,923.119,-0.0393384,-0.549793,-1.52944,
2026_07_06_20_08_31.733,3.872,50,0,0.774,0,0,0,0, ,0,0,0,0,0, ,-39.5,383.4,922.6,0,-0.6,-1.6,25,-39.6243,383.969,923.149,-0.039988,-0.549806,-1.5307,
2026_07_06_20_08_31.754,3.872,50,0,0.774,0,0,0,0, ,0,0,0,0,0, ,-39.7,383.3,922.4,0.1,-0.6,-1.5,25,-39.6229,383.931,923.109,-0.0345044,-0.552865,-1.53187,
2026_07_06_20_08_31.774,3.872,49.9,0,0.774,0,0,0,0, ,0,0,0,0,0, ,-39,382.9,921.7,0,-0.6,-1.5,25,-39.6062,383.881,923.045,-0.0293549,-0.555737,-1.52993,
2026_07_06_20_08_31.793,3.872,49.9,0,0.775,0,0,0,0, ,0,0,0,0,0, ,-40.5,384,922.2,-0.1,-0.6,-1.5,25,-39.615,383.854,922.978,-0.030613,-0.558434,-1.52811,
2026_07_06_20_08_31.813,3.872,49.9,0,0.775,0,0,0,0, ,0,0,0,0,0, ,-40,384.8,921.9,-0.2,-0.5,-1.5,25,-39.6537,383.888,922.921,-0.0378881,-0.55792,-1.52639,
2026_07_06_20_08_31.832,3.872,50,0,0.775,0,0,0,0, ,0,0,0,0,0, ,-40.1,384.2,923.3,0,-0.6,-1.6,25,-39.6778,383.925,922.902,-0.0416731,-0.557438,-1.52783,
2026_07_06_20_08_31.852,3.872,49.9,0,0.774,0,0,0,0, ,0,0,0,0,0, ,-39.7,383,923.2,0,-0.6,-1.5,25,-39.6914,383.905,922.923,-0.0391336,-0.560031,-1.52918,
