UTC_Time,Vin,TC1,TC2,Rh1,Vh1,Ah1,Acp1,Dty1,Err1,Rh2,Vh2,Ah2,Acp2,Dty2,Err2,Accel_x,Accel_y,Accel_z,gyro_x,gyro_y,gyro_z,Temp_c,Accel_x_h,Accel_y_h,Accel_z_h,gyro_x_h,gyro_y_h,gyro_z_h,
2026_07_06_16_25_53.831,3.869,50.9,0,0.774,0,0,0,0, ,0,0,0,0,0, ,-22.3,-68.6,999.3,-0.6,-0.7,-1.8,25,-22.3,-68.6,999.3,-0.6,-0.7,-1.8,
2026_07_06_16_25_53.851,3.869,50.7,0,0.775,0,0,0,0, ,0,0,0,0,0, ,-18.7,-70.8,998.5,-0.5,-1,-2.1,25,-22.1903,-68.667,999.276,-0.596953,-0.709141,-1.80914,
2026_07_06_16_25_53.871,3.869,50.6,0,0.775,0,0,0,0, ,0,0,0,0,0, ,-7,-71.1,997.6,-0.7,0,-1.9,25,-21.6211,-68.8061,999.201,-0.597139,-0.696396,-1.82077,
2026_07_06_16_25_53.891,3.869,50.6,0,0.775,0,0,0,0, ,0,0,0,0,0, ,-13,-71.6,994,-0.9,0.1,-1.5,25,-20.913,-68.9612,998.994,-0.609501,-0.650913,-1.81341,
2026_07_06_16_25_53.911,3.869,50.7,0,0.776,0,0,0,0, ,0,0,0,0,0, ,-23,-70.6,997.1,-0.5,-0.5,-1.4,25,-20.7355,-69.0915,998.784,-0.615015,-0.623435,-1.79127,
2026_07_06_16_25_53.930,3.869,50.7,0,0.775,0,0,0,0, ,0,0,0,0,0, ,-20.6,-71.2,996.2,-0.2,-0.5,-2,25,-20.8003,-69.2017,998.654,-0.598866,-0.615913,-1.7857,
2026_07_06_16_25_53.949,3.869,50.6,0,0.774,0,0,0,0, ,0,0,0,0,0, ,-13.6,-70.8,997.9,-0.5,-0.5,-2,25,-20.5748,-69.3113,998.556,-0.583701,-0.60885,-1.79876,
2026_07_06_16_25_53.970,3.869,50.6,0,0.775,0,0,0,0, ,0,0,0,0,0, ,-15.2,-70.5,998.1,-0.5,-0.3,-1.8,25,-20.1986,-69.3929,998.522,-0.5786,-0.596123,-1.80493,
2026_07_06_16_25_53.989,3.869,50.6,0,0.775,0,0,0,0, ,0,0,0,0,0, ,-20.2,-69.4,997.8,-0.5,-0.8,-1.8,25,-20.0463,-69.4268,998.487,-0.573811,-0.593312,-1.80463,
2026_07_06_16_25_54.009,3.869,50.4,0,0.776,0,0,0,0, ,0,0,0,0,0, ,-19.6,-68.8,997.4,-0.3,-0.9,-2,25,-20.0374,-69.4069,998.433,-0.563219,-0.608954,-1.81044,
2026_07_06_16_25_54.029,3.869,50.7,0,0.774,0,0,0,0, ,0,0,0,0,0, ,-13.5,-71.6,996.5,-0.4,-0.4,-2.2,25,-19.8249,-69.4552,998.343,-0.550226,-0.611456,-1.82809,
2026_07_06_16_25_54.048,3.869,50.7,0,0.774,0,0,0,0, ,0,0,0,0,0, ,-13.9,-71.7,997,-0.4,-0.5,-2,25,-19.4516,-69.589,998.246,-0.541072,-0.601617,-1.84466,
2026_07_06_16_25_54.069,3.869,50.3,0,0.777,0,0,0,0, ,0,0,0,0,0, ,-19.4,-69.4,998,-0.7,-0.9,-1.8,25,-19.2809,-69.6475,998.2,-0.541616,-0.607612,-1.84803,
2026_07_06_16_25_54.088,3.869,50.6,0,0.774,0,0,0,0, ,0,0,0,0,0, ,-22.5,-69,998.7,-0.5,-1.5,-2,25,-19.3826,-69.6203,998.209,-0.545173,-0.643711,-1.8512,
2026_07_06_16_25_54.108,3.869,50.6,0,0.772,0,0,0,0, ,0,0,0,0,0, ,-10.7,-71.2,998,-0.5,-0.8,-2.4,25,-19.2131,-69.6495,998.218,-0.542421,-0.674563,-1.87245,
2026_07_06_16_25_54.128,3.869,50.4,0,0.774,0,0,0,0, ,0,0,0,0,0, ,-8.1,-73.6,995.7,-0.7,-0.2,-1.9,25,-18.6151,-69.8171,998.135,-0.545929,-0.663925,-1.88937,
2026_07_06_16_25_54.148,3.869,50.6,0,0.776,0,0,0,0, ,0,0,0,0,0, ,-14.1,-72.2,997.6,-0.9,0.2,-1.2,25,-18.1571,-70.005,998.044,-0.561412,-0.623467,-1.86869,
2026_07_06_16_25_54.168,3.869,50.6,0,0.774,0,0,0,0, ,0,0,0,0,0, ,-24,-67.2,1000.9,-0.7,0,-2,25,-18.2115,-69.9864,998.118,-0.575951,-0.579381,-1.85231,
2026_07_06_16_25_54.187,3.869,50.6,0,0.774,0,0,0,0, ,0,0,0,0,0, ,-21.1,-71.2,996.4,-0.6,-1,-2.1,25,-18.4759,-69.9385,998.15,-0.580463,-0.574544,-1.86436,
2026_07_06_16_25_54.209,3.869,50.4,0,0.776,0,0,0,0, ,0,0,0,0,0, ,-14.7,-71.5,1001.2,-0.6,-0.8,-2.1,25,-18.4408,-70.0245,998.19,-0.581654,-0.594376,-1.87872,
2026_07_06_16_25_54.227,3.869,50.7,0,0.774,0,0,0,0, ,0,0,0,0,0, ,-10.1,-72.3,995.3,-0.7,-0.4,-1.9,25,-18.0727,-70.1388,998.193,-0.585819,-0.594719,-1.88611,
2026_07_06_16_25_54.246,3.869,50.4,0,0.775,0,0,0,0, ,0,0,0,0,0, ,-17.8,-70,997.1,-0.4,-0.6,-1.4,25,-17.8215,-70.2004,998.072,-0.583636,-0.588947,-1.87172,
2026_07_06_16_25_54.267,3.869,50.3,0,0.774,0,0,0,0, ,0,0,0,0,0, ,-18.3,-67.7,1001.5,-0.5,-1.1,-1.7,25,-17.8354,-70.1181,998.147,-0.575492,-0.604855,-1.85212,
2026_07_06_16_25_54.286,3.869,50.4,0,0.774,0,0,0,0, ,0,0,0,0,0, ,-12.8,-72.8,991.5,0,0,-2.4,25,-17.6961,-70.1261,998.046,-0.555658,-0.601512,-1.86417,
2026_07_06_16_25_54.306,3.869,50.4,0,0.775,0,0,0,0, ,0,0,0,0,0, ,-13.1,-73.7,997.6,-0.3,-0.4,-1.4,25,-17.4069,-70.3165,997.833,-0.530938,-0.577045,-1.86636,
2026_07_06_16_25_54.326,3.869,50.6,0,0.772,0,0,0,0, ,0,0,0,0,0, ,-22.2,-70.3,999.7,-1,-1.1,-1.5,25,-17.4217,-70.4191,997.883,-0.538193,-0.587585,-1.84099,
2026_07_06_16_25_54.348,3.869,50.4,0,0.775,0,0,0,0, ,0,0,0,0,0, ,-15.6,-69.5,996.3,-0.5,-0.9,-2.4,25,-17.5118,-70.3875,997.89,-0.5511,-0.612716,-1.84763,
2026_07_06_16_25_54.365,3.869,50.3,0,0.774,0,0,0,0, ,0,0,0,0,0, ,-6.1,-74,994.6,-0.5,0.2,-2.2,25,-17.1059,-70.4705,997.742,-0.547986,-0.596707,-1.8752,
2026_07_06_16_25_54.385,3.869,50.6,0,0.775,0,0,0,0, ,0,0,0,0,0, ,-11.9,-72.9,997.3,-0.8,0.9,-1.2,25,-16.6119,-70.6521,997.632,-0.554203,-0.526829,-1.86452,
2026_07_06_16_25_54.405,3.869,50.3,0,0.776,0,0,0,0, ,0,0,0,0,0, ,-25.3,-67.9,1001.5,-0.9,0.1,-1.2,25,-16.7331,-70.6367,997.74,-0.572228,-0.464257,-1.82403,
2026_07_06_16_25_54.425,3.869,50.4,0,0.774,0,0,0,0, ,0,0,0,0,0, ,-27.7,-67.2,1000.7,-0.2,-1.4,-1.8,25,-17.3282,-70.4486,997.945,-0.570873,-0.475576,-1.80428,
2026_07_06_16_25_54.444,3.869,50.6,0,0.775,0,0,0,0, ,0,0,0,0,0, ,-17.5,-69,998.4,0.2,-1.9,-2.4,25,-17.6495,-70.3055,998.043,-0.536086,-0.547142,-1.8223,
2026_07_06_16_25_54.464,3.869,50.6,0,0.774,0,0,0,0, ,0,0,0,0,0, ,-4.3,-73.2,993.4,0,-0.4,-2.4,25,-17.2382,-70.3539,997.912,-0.497324,-0.583879,-1.8575,
2026_07_06_16_25_54.486,3.869,50.4,0,0.775,0,0,0,0, ,0,0,0,0,0, ,-8.4,-72.8,994.3,-0.5,0.3,-1.4,25,-16.5747,-70.5151,997.665,-0.482253,-0.551346,-1.86009,
2026_07_06_16_25_54.503,3.869,50.6,0,0.775,0,0,0,0, ,0,0,0,0,0, ,-21.7,-70.5,997.8,-0.8,0.2,-1.1,25,-16.4818,-70.5843,997.566,-0.492475,-0.502514,-1.82292,
2026_07_06_16_25_54.523,3.869,50.4,0,0.774,0,0,0,0, ,0,0,0,0,0, ,-27.5,-68.6,997.9,-0.7,-1,-1.7,25,-16.9765,-70.5213,997.583,-0.508168,-0.496267,-1.79714,
2026_07_06_16_25_54.543,3.869,50.4,0,0.774,0,0,0,0, ,0,0,0,0,0, ,-16.1,-70,999.1,-0.4,-1.2,-2.4,25,-17.2704,-70.4468,997.639,-0.510717,-0.533057,-1.81255,
2026_07_06_16_25_54.563,3.869,50.3,0,0.775,0,0,0,0, ,0,0,0,0,0, ,-7.3,-72.1,995.7,-0.6,-0.3,-2.1,25,-16.931,-70.4836,997.625,-0.510064,-0.546277,-1.83921,
2026_07_06_16_25_54.583,3.869,50.4,0,0.775,0,0,0,0, ,0,0,0,0,0, ,-13,-69.8,997.8,-0.6,0,-1.5,25,-16.5178,-70.512,997.571,-0.515545,-0.522129,-1.83682,
2026_07_06_16_25_54.603,3.869,50.4,0,0.774,0,0,0,0, ,0,0,0,0,0, ,-25.7,-69.9,998.1,-0.5,-0.3,-1.8,25,-16.6903,-70.4717,997.594,-0.517644,-0.499452,-1.82544,
2026_07_06_16_25_54.628,3.869,50.3,0,0.774,0,0,0,0, ,0,0,0,0,0, ,-22,-67.6,999.6,-0.4,-1.4,-2.2,25,-17.1266,-70.3668,997.671,-0.513522,-0.520813,-1.83607,
2026_07_06_16_25_54.642,3.869,50.3,0,0.774,0,0,0,0, ,0,0,0,0,0, ,-6.4,-72.3,996.5,-0.2,-0.1,-2.4,25,-16.9483,-70.3414,997.694,-0.500511,-0.53478,-1.86434,
2026_07_06_16_25_54.662,3.869,50.3,0,0.775,0,0,0,0, ,0,0,0,0,0, ,-11.7,-71.2,996.4,-0.6,0,-1.3,25,-16.467,-70.4272,997.618,-0.494386,-0.505238,-1.86347,
2026_07_06_16_25_54.682,3.869,50.4,0,0.775,0,0,0,0, ,0,0,0,0,0, ,-17,-71.8,996.3,-0.6,0.3,-1.5,25,-16.338,-70.4926,997.541,-0.500822,-0.46531,-1.83523,
2026_07_06_16_25_54.702,3.869,50.2,0,0.774,0,0,0,0, ,0,0,0,0,0, ,-22.5,-68.8,1000.1,-0.7,-0.3,-1.6,25,-16.5459,-70.4808,997.581,-0.509912,-0.436955,-1.81785,
2026_07_06_16_25_54.722,3.869,50.3,0,0.776,0,0,0,0, ,0,0,0,0,0, ,-23.6,-68.3,997.6,-0.4,-1,-2.2,25,-16.9422,-70.3632,997.658,-0.512355,-0.449937,-1.82285,
2026_07_06_16_25_54.742,3.869,50.3,0,0.775,0,0,0,0, ,0,0,0,0,0, ,-12.9,-70.1,995.4,-0.4,-1,-2.4,25,-17.0219,-70.2923,997.588,-0.505508,-0.483457,-1.85193,
2026_07_06_16_25_54.761,3.869,50.3,0,0.775,0,0,0,0, ,0,0,0,0,0, ,-10.3,-72.7,996,-0.6,0,-1.9,25,-16.6915,-70.3598,997.473,-0.505173,-0.484465,-1.87009,
2026_07_06_16_25_54.782,3.869,50.3,0,0.774,0,0,0,0, ,0,0,0,0,0, ,-15.9,-70.8,997.1,-1,0.1,-1.7,25,-16.4727,-70.4445,997.417,-0.523139,-0.451896,-1.86582,
2026_07_06_16_25_54.800,3.869,50.3,0,0.775,0,0,0,0, ,0,0,0,0,0, ,-22.2,-68.9,998.5,-1,-0.4,-1.7,25,-16.6297,-70.4083,997.44,-0.552197,-0.433499,-1.85572,
2026_07_06_16_25_54.820,3.869,50.4,0,0.775,0,0,0,0, ,0,0,0,0,0, ,-24,-71.2,998.2,-0.6,-1.3,-1.8,25,-17.024,-70.3865,997.495,-0.567298,-0.45888,-1.84927,
2026_07_06_16_25_54.840,3.869,50.3,0,0.775,0,0,0,0, ,0,0,0,0,0, ,-15.7,-69.8,996.7,-0.6,-1.3,-2.3,25,-17.1962,-70.3934,997.493,-0.569291,-0.510135,-1.86151,
2026_07_06_16_25_54.859,3.869,50.3,0,0.775,0,0,0,0, ,0,0,0,0,0, ,-7.4,-72.9,994.6,-0.5,0,-2.3,25,-16.8522,-70.4517,997.38,-0.568115,-0.518658,-1.88823,
2026_07_06_16_25_54.879,3.869,50.2,0,0.774,0,0,0,0, ,0,0,0,0,0, ,-11.9,-71,996.7,-1,-0.2,-1.3,25,-16.4133,-70.543,997.275,-0.579199,-0.493146,-1.88285,
2026_07_06_16_25_54.899,3.869,50.2,0,0.774,0,0,0,0, ,0,0,0,0,0, ,-22.5,-67.3,1002.1,-0.4,0.1,-1.7,25,-16.4612,-70.4581,997.404,-0.58656,-0.466142,-1.85952,
2026_07_06_16_25_54.919,3.869,50.2,0,0.775,0,0,0,0, ,0,0,0,0,0, ,-23.4,-67.1,1001.7,-0.1,-1.1,-1.8,25,-16.8566,-70.2596,997.678,-0.566051,-0.468205,-1.85285,
2026_07_06_16_25_54.939,3.869,50.3,0,0.774,0,0,0,0, ,0,0,0,0,0, ,-15,-73.7,991.9,0.5,0.3,-3,25,-16.9994,-70.2681,997.625,-0.51937,-0.464049,-1.88619,
2026_07_06_16_25_54.960,3.869,50.2,0,0.774,0,0,0,0, ,0,0,0,0,0, ,-13,-71.2,997.6,-0.1,-1.4,-1.1,25,-16.8166,-70.4011,997.45,-0.475533,-0.469287,-1.89617,
2026_07_06_16_25_54.978,3.869,50.2,0,0.774,0,0,0,0, ,0,0,0,0,0, ,-15.7,-68.7,998.4,0,0,-1.7,25,-16.6663,-70.3736,997.483,-0.449602,-0.483346,-1.86594,
2026_07_06_16_25_54.998,3.869,50.3,0,0.775,0,0,0,0, ,0,0,0,0,0, ,-18.9,-71.2,996.7,-0.4,-0.1,-2.1,25,-16.705,-70.3478,997.487,-0.434392,-0.456939,-1.86801,
2026_07_06_16_25_55.018,3.869,50.3,0,0.774,0,0,0,0, ,0,0,0,0,0, ,-15.2,-72.1,996,-0.6,-0.5,-1.7,25,-16.726,-70.4271,997.418,-0.43839,-0.447375,-1.86996,
2026_07_06_16_25_55.037,3.869,50.2,0,0.775,0,0,0,0, ,0,0,0,0,0, ,-18.6,-70.1,1000.3,-1,-0.3,-1.9,25,-16.7366,-70.4681,997.463,-0.460426,-0.444488,-1.8657,
2026_07_06_16_25_55.058,3.869,50.3,0,0.773,0,0,0,0, ,0,0,0,0,0, ,-15.5,-69.7,995.8,-0.5,-0.2,-1.7,25,-16.7557,-70.4335,997.498,-0.478072,-0.432637,-1.86169,
2026_07_06_16_25_55.077,3.869,50.2,0,0.774,0,0,0,0, ,0,0,0,0,0, ,-17.7,-68.1,998.1,-0.8,-0.4,-1.5,25,-16.7462,-70.3401,997.465,-0.488549,-0.424554,-1.84575,
2026_07_06_16_25_55.098,3.869,50.1,0,0.774,0,0,0,0, ,0,0,0,0,0, ,-14.7,-68.9,996.7,-0.3,-0.2,-1.8,25,-16.7129,-70.2279,997.461,-0.492293,-0.416964,-1.83382,
2026_07_06_16_25_55.118,3.869,50.2,0,0.775,0,0,0,0, ,0,0,0,0,0, ,-17.2,-68.8,996.5,-0.6,-0.3,-1.5,25,-16.6664,-70.144,997.409,-0.489716,-0.40679,-1.82262,
2026_07_06_16_25_55.136,3.869,50.1,0,0.775,0,0,0,0, ,0,0,0,0,0, ,-20,-69,997.1,-0.2,-0.4,-1.7,25,-16.7842,-70.0682,997.371,-0.484249,-0.403329,-1.80905,
2026_07_06_16_25_55.157,3.869,50.1,0,0.773,0,0,0,0, ,0,0,0,0,0, ,-19.6,-68.2,999.8,-0.6,-0.9,-1.7,25,-16.968,-69.9787,997.437,-0.479115,-0.418361,-1.80241,
2026_07_06_16_25_55.176,3.869,50.1,0,0.774,0,0,0,0, ,0,0,0,0,0, ,-14.7,-70,996,-0.4,-0.4,-2.2,25,-16.9791,-69.9251,997.465,-0.480388,-0.432476,-1.8114,
2026_07_06_16_25_55.196,3.869,50.2,0,0.775,0,0,0,0, ,0,0,0,0,0, ,-12.9,-70.8,995.6,-0.7,-0.1,-1.7,25,-16.7854,-69.9541,997.364,-0.48463,-0.421357,-1.81985,
2026_07_06_16_25_55.215,3.869,50.3,0,0.775,0,0,0,0, ,0,0,0,0,0, ,-18.4,-67.8,998.5,-0.8,0.1,-1.7,25,-16.7162,-69.9142,997.345,-0.500801,-0.39568,-1.81254,
2026_07_06_16_25_55.236,3.869,50.2,0,0.775,0,0,0,0, ,0,0,0,0,0, ,-23.1,-67.6,997.6,-0.6,-0.6,-2,25,-16.962,-69.7793,997.388,-0.512939,-0.386803,-1.81483,
2026_07_06_16_25_55.254,3.869,50.1,0,0.773,0,0,0,0, ,0,0,0,0,0, ,-18.3,-70.1,997.3,-0.3,-0.8,-2.2,25,-17.1898,-69.7227,997.392,-0.509104,-0.405888,-1.8322,
2026_07_06_16_25_55.275,3.869,50.1,0,0.774,0,0,0,0, ,0,0,0,0,0, ,-12.8,-70.8,994.7,-0.2,0,-1.9,25,-17.0899,-69.767,997.307,-0.493315,-0.405529,-1.84548,
2026_07_06_16_25_55.297,3.869,50.2,0,0.775,0,0,0,0, ,0,0,0,0,0, ,-17.2,-70.6,1000,-0.6,-0.4,-1.5,25,-16.9625,-69.8238,997.309,-0.487628,-0.393005,-1.83661,
2026_07_06_16_25_55.314,3.869,50.2,0,0.774,0,0,0,0, ,0,0,0,0,0, ,-22.5,-68.2,998.2,-0.9,-0.9,-1.6,25,-17.1385,-69.798,997.418,-0.503617,-0.408666,-1.81915,
2026_07_06_16_25_55.334,3.869,50.2,0,0.774,0,0,0,0, ,0,0,0,0,0, ,-18.5,-69.2,996.4,-0.3,-1.3,-2.4,25,-17.3433,-69.7311,997.411,-0.50949,-0.450794,-1.83017,
2026_07_06_16_25_55.354,3.869,50.2,0,0.773,0,0,0,0, ,0,0,0,0,0, ,-10.3,-72.2,997.4,-0.5,-0.7,-2,25,-17.164,-69.7901,997.38,-0.502818,-0.484261,-1.8527,
2026_07_06_16_25_55.374,3.869,50.2,0,0.774,0,0,0,0, ,0,0,0,0,0, ,-10.2,-71.2,996.3,-0.8,0.8,-1.5,25,-16.7426,-69.9065,997.348,-0.511787,-0.451705,-1.84644,
2026_07_06_16_25_55.393,3.869,50.1,0,0.774,0,0,0,0, ,0,0,0,0,0, ,-17.9,-68.8,998.1,-1,0.7,-1.1,25,-16.5786,-69.9122,997.339,-0.535444,-0.378476,-1.81315,
2026_07_06_16_25_55.414,3.869,50.2,0,0.774,0,0,0,0, ,0,0,0,0,0, ,-29.9,-67.1,1001.3,-1,-0.2,-1.3,25,-17.0247,-69.7927,997.483,-0.563753,-0.340178,-1.77578,
2026_07_06_16_25_55.433,3.869,50.1,0,0.774,0,0,0,0, ,0,0,0,0,0, ,-24.7,-64.9,1001.3,-0.3,-1.5,-2.3,25,-17.6509,-69.5615,997.715,-0.569008,-0.371245,-1.77726,
2026_07_06_16_25_55.453,3.869,50.1,0,0.774,0,0,0,0, ,0,0,0,0,0, ,-13.1,-70.3,996.2,-0.1,-1.2,-2.7,25,-17.727,-69.442,997.778,-0.546522,-0.430888,-1.8213,
2026_07_06_16_25_55.477,3.869,50.1,0,0.774,0,0,0,0, ,0,0,0,0,0, ,-6.8,-74.4,991.9,0,0.1,-1.9,25,-17.2531,-69.6192,997.551,-0.516265,-0.438146,-1.85047,
2026_07_06_16_25_55.493,3.869,50,0,0.774,0,0,0,0, ,0,0,0,0,0, ,-16.2,-71.2,998.9,-0.7,0.7,-1,25,-16.9025,-69.813,997.42,-0.506133,-0.387072,-1.82607,
2026_07_06_16_25_55.512,3.869,50.1,0,0.774,0,0,0,0, ,0,0,0,0,0, ,-26.8,-66.7,999.3,-0.6,-0.3,-1.5,25,-17.1826,-69.7604,997.522,-0.5149,-0.351297,-1.79096,
2026_07_06_16_25_55.531,3.869,50.2,0,0.773,0,0,0,0, ,0,0,0,0,0, ,-27.3,-67,998.1,-0.1,-0.8,-2.4,25,-17.7839,-69.5831,997.594,-0.504852,-0.363406,-1.80065,
2026_07_06_16_25_55.552,3.869,50.1,0,0.773,0,0,0,0, ,0,0,0,0,0, ,-12,-70.6,996.7,0,-1,-2.5,25,-17.8977,-69.5354,997.582,-0.477134,-0.396104,-1.84022,
2026_07_06_16_25_55.571,3.869,50.2,0,0.774,0,0,0,0, ,0,0,0,0,0, ,-6.3,-71.6,996.4,-0.4,0,-1.7,25,-17.3646,-69.6307,997.519,-0.460246,-0.402436,-1.85605,
2026_07_06_16_25_55.591,3.869,50.1,0,0.774,0,0,0,0, ,0,0,0,0,0, ,-23,-69.5,999.5,-0.9,0.1,-1.4,25,-17.1992,-69.6867,997.546,-0.471809,-0.374865,-1.8374,
2026_07_06_16_25_55.611,3.869,50.1,0,0.774,0,0,0,0, ,0,0,0,0,0, ,-26.2,-66.8,998.2,-0.7,-0.2,-2.2,25,-17.6502,-69.5931,997.625,-0.491808,-0.355069,-1.83512,
2026_07_06_16_25_55.631,3.869,50.1,0,0.773,0,0,0,0, ,0,0,0,0,0, ,-18,-69,997.5,-0.7,-0.6,-2.2,25,-17.9213,-69.4899,997.639,-0.504495,-0.357807,-1.85736,
2026_07_06_16_25_55.651,3.869,50.1,0,0.774,0,0,0,0, ,0,0,0,0,0, ,-15.7,-68.3,998.2,-0.5,-0.8,-1.7,25,-17.856,-69.4387,997.652,-0.510315,-0.378659,-1.863,
2026_07_06_16_25_55.671,3.869,50.2,0,0.774,0,0,0,0, ,0,0,0,0,0, ,-16.3,-69,996.3,-0.5,-0.4,-1.8,25,-17.7429,-69.3907,997.627,-0.509686,-0.392147,-1.85612,
2026_07_06_16_25_55.689,3.869,50.1,0,0.774,0,0,0,0, ,0,0,0,0,0, ,-19.5,-69.8,998.2,-0.5,-0.4,-1.6,25,-17.7525,-69.3912,997.604,-0.509096,-0.392626,-1.8466,
2026_07_06_16_25_55.711,3.869,50.1,0,0.774,0,0,0,0, ,0,0,0,0,0, ,-19.1,-68.9,998.4,-0.6,-0.1,-1.7,25,-17.8468,-69.3887,997.647,-0.511589,-0.383934,-1.83462,
2026_07_06_16_25_55.730,3.869,50.1,0,0.773,0,0,0,0, ,0,0,0,0,0, ,-20.2,-70.3,998.1,-0.6,-0.6,-1.8,25,-17.9567,-69.4016,997.683,-0.516976,-0.381867,-1.82947,
2026_07_06_16_25_55.750,3.869,50.1,0,0.774,0,0,0,0, ,0,0,0,0,0, ,-20.6,-68.4,996.9,-0.4,-0.5,-2,25,-18.1056,-69.3985,997.672,-0.515942,-0.392112,-1.83377,
2026_07_06_16_25_55.775,3.869,50.1,0,0.773,0,0,0,0, ,0,0,0,0,0, ,-17.4,-68.7,998.1,-0.4,-0.7,-2,25,-18.1601,-69.3468,997.662,-0.508877,-0.40478,-1.8439,
2026_07_06_16_25_55.790,3.869,50,0,0.775,0,0,0,0, ,0,0,0,0,0, ,-17.2,-70.1,996.7,-0.6,-0.5,-2,25,-18.1077,-69.35,997.646,-0.508336,-0.416677,-1.85341,
2026_07_06_16_25_55.809,3.869,50.1,0,0.775,0,0,0,0, ,0,0,0,0,0, ,-15.9,-69.2,997.5,-0.8,-0.5,-1.7,25,-18.0128,-69.3683,997.613,-0.520015,-0.421754,-1.8532,
2026_07_06_16_25_55.829,3.869,50,0,0.774,0,0,0,0, ,0,0,0,0,0, ,-17.5,-67.5,999.3,-0.6,0,-1.6,25,-17.9328,-69.3062,997.661,-0.530983,-0.411288,-1.84082,
2026_07_06_16_25_55.855,3.869,50,0,0.774,0,0,0,0, ,0,0,0,0,0, ,-20.7,-69.7,995.4,-0.3,-0.2,-1.7,25,-18.0039,-69.2632,997.642,-0.526048,-0.392319,-1.82919,
2026_07_06_16_25_55.869,3.869,50.1,0,0.774,0,0,0,0, ,0,0,0,0,0, ,-22.4,-70.5,997.5,-0.3,-0.5,-2,25,-18.22,-69.3142,997.569,-0.512273,-0.38974,-1.83046,
2026_07_06_16_25_55.889,3.869,50,0,0.774,0,0,0,0, ,0,0,0,0,0, ,-17.7,-69.9,996.5,-0.7,-0.5,-2,25,-18.3315,-69.3682,997.534,-0.511525,-0.396459,-1.84079,
2026_07_06_16_25_55.908,3.869,50,0,0.774,0,0,0,0, ,0,0,0,0,0, ,-15.6,-70.6,996.2,-0.7,-0.5,-1.8,25,-18.229,-69.4219,997.462,-0.523011,-0.402768,-1.8444,
2026_07_06_16_25_55.928,3.869,50,0,0.774,0,0,0,0, ,0,0,0,0,0, ,-17,-68.2,999.5,-0.5,0.1,-1.6,25,-18.1115,-69.4206,997.486,-0.527702,-0.390412,-1.8356,
2026_07_06_16_25_55.947,3.869,50,0,0.773,0,0,0,0, ,0,0,0,0,0, ,-26.4,-68.1,999.5,-0.6,-0.7,-1.4,25,-18.3302,-69.3431,997.609,-0.529061,-0.384903,-1.81515,
2026_07_06_16_25_55.967,3.869,50.1,0,0.773,0,0,0,0, ,0,0,0,0,0, ,-24.4,-68.2,997.1,-0.4,-1,-1.6,25,-18.761,-69.2704,997.651,-0.52729,-0.413245,-1.79594,
2026_07_06_16_25_55.987,3.869,50,0,0.774,0,0,0,0, ,0,0,0,0,0, ,-20.5,-68.6,999.5,-0.1,-1.2,-2.2,25,-18.9858,-69.2174,997.69,-0.510393,-0.455094,-1.80228,
2026_07_06_16_25_56.009,3.869,50,0,0.774,0,0,0,0, ,0,0,0,0,0, ,-11.8,-71.5,995.4,-0.4,-0.5,-2,25,-18.813,-69.2681,997.676,-0.494525,-0.479158,-1.82043,
2026_07_06_16_25_56.027,3.869,50,0,0.774,0,0,0,0, ,0,0,0,0,0, ,-13.4,-70,996.7,-0.8,0.2,-1.5,25,-18.4344,-69.3584,997.577,-0.500952,-0.4591,-1.81613,
2026_07_06_16_25_56.047,3.869,50,0,0.774,0,0,0,0, ,0,0,0,0,0, ,-20.5,-69.7,997.1,-1,0.3,-1.6,25,-18.3439,-69.3884,997.535,-0.525269,-0.415889,-1.79992,
2026_07_06_16_25_56.066,3.869,50,0,0.775,0,0,0,0, ,0,0,0,0,0, ,-24.4,-68.1,999.5,-0.8,-0.5,-1.8,25,-18.5941,-69.3586,997.582,-0.548104,-0.39664,-1.79383,
2026_07_06_16_25_56.086,3.869,49.9,0,0.774,0,0,0,0, ,0,0,0,0,0, ,-19.6,-69.4,1000.6,-0.7,-0.7,-2,25,-18.8017,-69.3215,997.732,-0.560407,-0.409032,-1.8003,
2026_07_06_16_25_56.107,3.869,50,0,0.775,0,0,0,0, ,0,0,0,0,0, ,-15.8,-71.8,994.9,-0.3,-0.3,-1.9,25,-18.7345,-69.3994,997.733,-0.556726,-0.414576,-1.80942,
2026_07_06_16_25_56.126,3.869,49.9,0,0.774,0,0,0,0, ,0,0,0,0,0, ,-17.2,-69.8,1000.7,-0.7,-0.3,-1.7,25,-18.5984,-69.4848,997.737,-0.55327,-0.407594,-1.80885,
2026_07_06_16_25_56.145,3.869,50,0,0.774,0,0,0,0, ,0,0,0,0,0, ,-22.4,-69.8,994.7,-1,0,-2,25,-18.6716,-69.504,997.735,-0.571352,-0.391896,-1.81135,
2026_07_06_16_25_56.165,3.869,50,0,0.774,0,0,0,0, ,0,0,0,0,0, ,-20.5,-68.1,998.2,-0.6,-0.2,-2.3,25,-18.8409,-69.4702,997.657,-0.585285,-0.374109,-1.83199,
2026_07_06_16_25_56.186,3.869,49.9,0,0.774,0,0,0,0, ,0,0,0,0,0, ,-19.1,-68.9,999.6,-0.8,-0.4,-2,25,-18.8993,-69.4111,997.733,-0.592275,-0.369593,-1.85137,
2026_07_06_16_25_56.205,3.869,49.9,0,0.775,0,0,0,0, ,0,0,0,0,0, ,-15,-70.9,994.9,-0.6,0,-2,25,-18.7867,-69.4409,997.703,-0.59884,-0.359258,-1.86043,
2026_07_06_16_25_56.225,3.869,50,0,0.774,0,0,0,0, ,0,0,0,0,0, ,-19.8,-68.1,996.7,-0.4,-0.3,-1.4,25,-18.7022,-69.4445,997.587,-0.592817,-0.346507,-1.85065,
2026_07_06_16_25_56.244,3.869,49.9,0,0.774,0,0,0,0, ,0,0,0,0,0, ,-24.1,-68.3,1000.6,0,-0.5,-1.9,25,-18.9001,-69.3687,997.652,-0.568879,-0.349767,-1.83842,
2026_07_06_16_25_56.263,3.869,49.9,0,0.774,0,0,0,0, ,0,0,0,0,0, ,-17.9,-72,996.5,-0.1,-0.2,-2,25,-19.028,-69.4163,997.707,-0.53726,-0.349781,-1.84522,
2026_07_06_16_25_56.285,3.869,49.9,0,0.774,0,0,0,0, ,0,0,0,0,0, ,-15.9,-74.7,992.7,-0.5,-0.1,-1.6,25,-18.8984,-69.656,997.517,-0.522802,-0.337607,-1.84247,
2026_07_06_16_25_56.304,3.869,49.9,0,0.774,0,0,0,0, ,0,0,0,0,0, ,-24.4,-70.9,999,-1.3,-0.4,-1.4,25,-18.9746,-69.8476,997.416,-0.545788,-0.332268,-1.8216,
2026_07_06_16_25_56.323,3.869,50,0,0.774,0,0,0,0, ,0,0,0,0,0, ,-23.4,-64.8,1000.9,-1.2,-0.8,-2.3,25,-19.2748,-69.7259,997.57,-0.588701,-0.348583,-1.82333,
2026_07_06_16_25_56.343,3.869,50,0,0.773,0,0,0,0, ,0,0,0,0,0, ,-12.5,-70.4,993.1,-0.4,-0.1,-2.4,25,-19.194,-69.5963,997.535,-0.601577,-0.354763,-1.85542,
2026_07_06_16_25_56.363,3.869,49.9,0,0.774,0,0,0,0, ,0,0,0,0,0, ,-17.9,-71.2,997.3,0,-0.1,-1.2,25,-18.9507,-69.6697,997.393,-0.577106,-0.339238,-1.85205,
2026_07_06_16_25_56.383,3.869,49.9,0,0.775,0,0,0,0, ,0,0,0,0,0, ,-26.9,-68.4,1001.4,-0.5,-0.1,-1.3,25,-19.1608,-69.6776,997.512,-0.557173,-0.32466,-1.81536,
2026_07_06_16_25_56.404,3.869,49.9,0,0.774,0,0,0,0, ,0,0,0,0,0, ,-27.3,-70.5,993.7,-0.4,-1.2,-1.8,25,-19.6446,-69.6637,997.515,-0.550642,-0.344485,-1.79919,
2026_07_06_16_25_56.422,3.869,49.9,0,0.775,0,0,0,0, ,0,0,0,0,0, ,-19.6,-69.4,997.5,-0.1,-1.7,-2,25,-19.8765,-69.6812,997.398,-0.532321,-0.411853,-1.80533,
2026_07_06_16_25_56.442,3.869,50,0,0.774,0,0,0,0, ,0,0,0,0,0, ,-13.5,-68.4,998.1,-0.1,-0.8,-2.1,25,-19.6738,-69.6336,997.423,-0.505977,-0.462927,-1.82024,
2026_07_06_16_25_56.462,3.869,49.9,0,0.775,0,0,0,0, ,0,0,0,0,0, ,-11.7,-72,993.8,-0.5,0.2,-1.6,25,-19.2428,-69.6681,997.333,-0.493425,-0.452999,-1.82205,
2026_07_06_16_25_56.482,3.869,49.9,0,0.775,0,0,0,0, ,0,0,0,0,0, ,-19.5,-70.4,998.4,-0.7,0.7,-1.4,25,-19.0208,-69.7614,997.258,-0.49992,-0.397972,-1.80243,
2026_07_06_16_25_56.502,3.869,49.9,0,0.774,0,0,0,0, ,0,0,0,0,0, ,-29.9,-69.8,996.3,-0.7,-0.6,-1.6,25,-19.3669,-69.7821,997.263,-0.512112,-0.370674,-1.784,
2026_07_06_16_25_56.521,3.869,49.9,0,0.774,0,0,0,0, ,0,0,0,0,0, ,-27.4,-66.4,1000.1,-0.3,-1.6,-2,25,-19.9325,-69.6796,997.32,-0.511374,-0.415117,-1.78497,
2026_07_06_16_25_56.540,3.869,49.8,0,0.773,0,0,0,0, ,0,0,0,0,0, ,-13.4,-70,996.3,-0.5,-1.4,-2.1,25,-19.961,-69.5894,997.374,-0.504587,-0.481227,-1.80112,
2026_07_06_16_25_56.560,3.869,49.9,0,0.775,0,0,0,0, ,0,0,0,0,0, ,-8.1,-72.5,994.2,-0.8,0,-1.8,25,-19.3997,-69.6906,997.245,-0.513448,-0.494559,-1.8102,
2026_07_06_16_25_56.580,3.869,49.9,0,0.775,0,0,0,0, ,0,0,0,0,0, ,-14,-71,997.3,-0.9,1.1,-1.2,25,-18.8909,-69.8161,997.153,-0.533957,-0.430906,-1.79129,
2026_07_06_16_25_56.601,3.869,49.8,0,0.774,0,0,0,0, ,0,0,0,0,0, ,-25.7,-67.6,1002.4,-1.4,0.7,-1.3,25,-18.9494,-69.7846,997.318,-0.571497,-0.349804,-1.75831,
2026_07_06_16_25_56.620,3.869,49.8,0,0.774,0,0,0,0, ,0,0,0,0,0, ,-24.9,-68.8,994.2,-1,1.2,-1.6,25,-19.3364,-69.6881,997.378,-0.609796,-0.270597,-1.73952,
2026_07_06_16_25_56.640,3.869,49.9,0,0.775,0,0,0,0, ,0,0,0,0,0, ,-27,-68.8,997.4,-0.9,-0.5,-1.6,25,-19.7394,-69.634,997.282,-0.630527,-0.23278,-1.73102,
2026_07_06_16_25_56.660,3.869,49.8,0,0.774,0,0,0,0, ,0,0,0,0,0, ,-17.2,-69.8,998.6,-0.3,0.2,-1.7,25,-19.8832,-69.6136,997.325,-0.628667,-0.227735,-1.72608,
2026_07_06_16_25_56.679,3.869,49.9,0,0.773,0,0,0,0, ,0,0,0,0,0, ,-18.1,-71.7,994.2,-0.7,0.1,-1.6,25,-19.7471,-69.6829,997.269,-0.620827,-0.204717,-1.72145,
2026_07_06_16_25_56.698,3.869,49.8,0,0.773,0,0,0,0, ,0,0,0,0,0, ,-21.1,-67,1002.6,-0.7,0.2,-1.1,25,-19.7382,-69.6626,997.338,-0.625651,-0.183101,-1.69881,
2026_07_06_16_25_56.720,3.869,49.9,0,0.774,0,0,0,0, ,0,0,0,0,0, ,-26.8,-71.1,992.6,-0.8,0.2,-2.1,25,-19.9948,-69.6253,997.354,-0.633229,-0.159756,-1.69279,
2026_07_06_16_25_56.738,3.869,49.8,0,0.774,0,0,0,0, ,0,0,0,0,0, ,-22.4,-69.5,998,-0.9,-0.5,-1.9,25,-20.2755,-69.6664,997.229,-0.646438,-0.159162,-1.71151,
2026_07_06_16_25_56.761,3.869,49.8,0,0.774,0,0,0,0, ,0,0,0,0,0, ,-21.6,-68.7,998.6,-0.7,-0.6,-1.6,25,-20.3805,-69.6319,997.294,-0.655796,-0.182978,-1.71386,
2026_07_06_16_25_56.779,3.869,49.8,0,0.774,0,0,0,0, ,0,0,0,0,0, ,-20.5,-71.7,995.8,-0.3,-0.1,-1.9,25,-20.4213,-69.6665,997.288,-0.646302,-0.193156,-1.71606,
2026_07_06_16_25_56.798,3.869,49.8,0,0.775,0,0,0,0, ,0,0,0,0,0, ,-22.5,-87.6,995.6,1.3,-0.4,-1.7,25,-20.4871,-70.2748,997.191,-0.576449,-0.19662,-1.72117,
2026_07_06_16_25_56.818,3.869,49.9,0,0.775,0,0,0,0, ,0,0,0,0,0, ,-28.3,-42.7,989.5,-1,0.5,-1.8,25,-20.7865,-69.9626,996.909,-0.532181,-0.181592,-1.72293,
2026_07_06_16_25_56.838,3.869,49.8,0,0.775,0,0,0,0, ,0,0,0,0,0, ,-26.9,-65.3,994.1,-0.9,0,-2.4,25,-21.2017,-68.9898,996.597,-0.557642,-0.155292,-1.74591,
2026_07_06_16_25_56.858,3.869,49.9,0,0.775,0,0,0,0, ,0,0,0,0,0, ,-24.1,-69.8,999.3,-0.3,-0.5,-2.1,25,-21.4636,-68.9021,996.604,-0.560223,-0.161063,-1.77663,
2026_07_06_16_25_56.877,3.869,49.8,0,0.774,0,0,0,0, ,0,0,0,0,0, ,-28.1,-65.5,997.4,-0.5,-0.8,-1.8,25,-21.7461,-68.8258,996.71,-0.55046,-0.190857,-1.78719,
2026_07_06_16_25_56.896,3.869,49.8,0,0.773,0,0,0,0, ,0,0,0,0,0, ,-22.9,-68.7,996.8,-0.5,-1.1,-2.2,25,-21.9749,-68.7206,996.734,-0.547385,-0.237118,-1.80016,
2026_07_06_16_25_56.917,3.869,49.8,0,0.774,0,0,0,0, ,0,0,0,0,0, ,-19.1,-69.9,996.5,-0.2,-0.6,-2,25,-21.9155,-68.7559,996.729,-0.535357,-0.274465,-1.81843,
2026_07_06_16_25_56.937,3.869,49.7,0,0.775,0,0,0,0, ,0,0,0,0,0, ,-16.9,-68.2,998.1,-0.4,0,-1.8,25,-21.6769,-68.7739,996.763,-0.521015,-0.276021,-1.8234,
2026_07_06_16_25_56.961,3.869,49.8,0,0.774,0,0,0,0, ,0,0,0,0,0, ,-25,-66.8,998.9,-0.4,-0.3,-1.5,25,-21.6326,-68.6962,996.869,-0.51364,-0.268342,-1.81283,
2026_07_06_16_25_56.976,3.869,49.7,0,0.774,0,0,0,0, ,0,0,0,0,0, ,-29.7,-65.6,1000,-0.5,-0.9,-1.9,25,-21.981,-68.5441,997.027,-0.509762,-0.288552,-1.80596,
2026_07_06_16_25_56.996,3.869,49.8,0,0.775,0,0,0,0, ,0,0,0,0,0, ,-22.2,-68.4,996.2,-0.3,-1,-2.3,25,-22.2228,-68.45,997.092,-0.503074,-0.328859,-1.82388,
2026_07_06_16_25_57.016,3.869,49.7,0,0.773,0,0,0,0, ,0,0,0,0,0, ,-12.6,-71,994.3,-0.1,-0.2,-2,25,-21.9289,-68.5262,996.98,-0.484605,-0.345382,-1.84375,
2026_07_06_16_25_57.035,3.869,49.7,0,0.774,0,0,0,0, ,0,0,0,0,0, ,-23.8,-67.3,1000.2,-0.9,-0.6,-1.3,25,-21.7017,-68.5642,996.996,-0.485543,-0.34871,-1.83194,
2026_07_06_16_25_57.055,3.869,49.7,0,0.775,0,0,0,0, ,0,0,0,0,0, ,-26.8,-66.8,999.6,-0.9,-0.5,-2.1,25,-21.921,-68.4719,997.173,-0.510799,-0.360976,-1.8239,
2026_07_06_16_25_57.075,3.869,49.7,0,0.775,0,0,0,0, ,0,0,0,0,0, ,-21.9,-66.6,997.1,-0.5,-0.3,-2.3,25,-22.069,-68.364,997.245,-0.522329,-0.363354,-1.84682,
2026_07_06_16_25_57.094,3.869,49.7,0,0.774,0,0,0,0, ,0,0,0,0,0, ,-21.3,-67.5,997.6,-0.8,-0.6,-1.9,25,-22.0404,-68.2839,997.251,-0.530109,-0.368634,-1.86225,
2026_07_06_16_25_57.114,3.869,49.8,0,0.775,0,0,0,0, ,0,0,0,0,0, ,-23.8,-68.3,996,-0.7,-0.7,-1.8,25,-22.0715,-68.2605,997.224,-0.543508,-0.38578,-1.8615,
2026_07_06_16_25_57.134,3.869,49.7,0,0.774,0,0,0,0, ,0,0,0,0,0, ,-21.6,-68.1,998.2,-0.6,-0.4,-2.1,25,-22.1098,-68.2568,997.216,-0.549998,-0.395787,-1.8669,
2026_07_06_16_25_57.154,3.869,49.7,0,0.776,0,0,0,0, ,0,0,0,0,0, ,-18.6,-69.3,997.1,-0.4,-0.4,-2.1,25,-21.9873,-68.2838,997.243,-0.546951,-0.396044,-1.8811,
2026_07_06_16_25_57.174,3.869,49.7,0,0.773,0,0,0,0, ,0,0,0,0,0, ,-21.3,-70.3,995.6,-0.3,-0.2,-1.6,25,-21.8632,-68.3762,997.188,-0.534949,-0.390191,-1.87921,
2026_07_06_16_25_57.194,3.869,49.7,0,0.774,0,0,0,0, ,0,0,0,0,0, ,-26.2,-67.9,996.7,-0.1,0,-1.6,25,-21.9781,-68.4203,997.125,-0.514538,-0.372508,-1.86219,
2026_07_06_16_25_57.213,3.869,49.7,0,0.773,0,0,0,0, ,0,0,0,0,0, ,-27.9,-68.1,999.7,-0.4,-0.5,-1.9,25,-22.2872,-68.3947,997.19,-0.498418,-0.365042,-1.85535,
2026_07_06_16_25_57.233,3.869,49.7,0,0.774,0,0,0,0, ,0,0,0,0,0, ,-24.6,-66.2,998.9,-0.7,-0.9,-2.2,25,-22.5287,-68.3189,997.319,-0.501561,-0.385454,-1.86722,
2026_07_06_16_25_57.253,3.869,49.6,0,0.774,0,0,0,0, ,0,0,0,0,0, ,-17.4,-70.1,993.8,-0.9,-0.6,-2.3,25,-22.4355,-68.3086,997.26,-0.519747,-0.407668,-1.89054,
2026_07_06_16_25_57.273,3.869,49.6,0,0.774,0,0,0,0, ,0,0,0,0,0, ,-18,-67.3,999.8,-0.4,0.2,-1.7,25,-22.147,-68.3324,997.232,-0.527685,-0.395014,-1.89721,
2026_07_06_16_25_57.292,3.869,49.7,0,0.773,0,0,0,0, ,0,0,0,0,0, ,-28.5,-68.9,995.6,-0.8,0,-1.4,25,-22.2142,-68.3183,997.26,-0.532091,-0.364849,-1.87605,
2026_07_06_16_25_57.313,3.869,49.7,0,0.774,0,0,0,0, ,0,0,0,0,0, ,-27.3,-69.4,997.9,-0.6,-0.5,-1.8,25,-22.5607,-68.3689,997.229,-0.542323,-0.35785,-1.85923,
2026_07_06_16_25_57.333,3.869,49.7,0,0.774,0,0,0,0, ,0,0,0,0,0, ,-26.8,-66.8,997.6,-0.5,-1.4,-1.8,25,-22.8342,-68.3525,997.261,-0.542791,-0.393934,-1.85562,
2026_07_06_16_25_57.351,3.869,49.7,0,0.773,0,0,0,0, ,0,0,0,0,0, ,-20.2,-68.8,998.6,-0.3,-0.9,-2.2,25,-22.8748,-68.3189,997.312,-0.53409,-0.440007,-1.86442,
2026_07_06_16_25_57.372,3.869,49.7,0,0.774,0,0,0,0, ,0,0,0,0,0, ,-17.4,-69.5,996.8,-0.2,-0.2,-2,25,-22.6265,-68.3695,997.336,-0.516778,-0.44671,-1.87878,
2026_07_06_16_25_57.391,3.869,49.6,0,0.775,0,0,0,0, ,0,0,0,0,0, ,-22.2,-67.8,996.8,-0.7,-0.1,-1.4,25,-22.4542,-68.3866,997.303,-0.512709,-0.428629,-1.86788,
2026_07_06_16_25_57.411,3.869,49.6,0,0.773,0,0,0,0, ,0,0,0,0,0, ,-28,-67.5,996,-0.4,0,-1.6,25,-22.6155,-68.3417,997.248,-0.514981,-0.405556,-1.84546,
2026_07_06_16_25_57.431,3.869,49.6,0,0.774,0,0,0,0, ,0,0,0,0,0, ,-28.5,-66.2,999,-0.6,-1,-2,25,-22.9588,-68.2508,997.263,-0.514068,-0.411311,-1.84269,
2026_07_06_16_25_57.451,3.869,49.6,0,0.774,0,0,0,0, ,0,0,0,0,0, ,-20.1,-68.4,995.6,-0.6,-1.2,-2,25,-23.0406,-68.1929,997.266,-0.519305,-0.453278,-1.85228,
2026_07_06_16_25_57.471,3.869,49.7,0,0.774,0,0,0,0, ,0,0,0,0,0, ,-15.9,-67.8,997.9,-0.5,-0.5,-1.7,25,-22.7334,-68.1872,997.234,-0.521175,-0.477454,-1.85214,
2026_07_06_16_25_57.490,3.869,49.6,0,0.774,0,0,0,0, ,0,0,0,0,0, ,-20,-68.4,996.5,-0.6,0.4,-1.6,25,-22.4419,-68.1819,997.232,-0.522932,-0.451406,-1.83982,
2026_07_06_16_25_57.510,3.869,49.6,0,0.774,0,0,0,0, ,0,0,0,0,0, ,-27.8,-67.8,996.7,-0.6,-0.2,-1.6,25,-22.5308,-68.1769,997.194,-0.527628,-0.417804,-1.82521,
2026_07_06_16_25_57.530,3.869,49.6,0,0.774,0,0,0,0, ,0,0,0,0,0, ,-26.3,-67.2,1001,-0.5,-0.6,-2.1,25,-22.8062,-68.1357,997.295,-0.528991,-0.416719,-1.82672,
2026_07_06_16_25_57.548,3.869,49.6,0,0.773,0,0,0,0, ,0,0,0,0,0, ,-19.7,-67,996.4,-0.3,-0.7,-2.1,25,-22.818,-68.0726,997.38,-0.521131,-0.430935,-1.84337,
2026_07_06_16_25_57.569,3.869,49.6,0,0.773,0,0,0,0, ,0,0,0,0,0, ,-18,-70.1,994.2,-0.2,-0.3,-1.9,25,-22.5762,-68.1017,997.253,-0.504609,-0.435144,-1.85292,
2026_07_06_16_25_57.589,3.869,49.5,0,0.774,0,0,0,0, ,0,0,0,0,0, ,-21.9,-68.3,996.8,-0.7,-0.2,-1.3,25,-22.4161,-68.1686,997.147,-0.501281,-0.423861,-1.8375,
2026_07_06_16_25_57.609,3.869,49.6,0,0.774,0,0,0,0, ,0,0,0,0,0, ,-25.5,-66,997.8,-0.9,-0.1,-1.7,25,-22.4944,-68.1065,997.156,-0.519484,-0.407173,-1.81694,
2026_07_06_16_25_57.629,3.869,49.6,0,0.773,0,0,0,0, ,0,0,0,0,0, ,-26.3,-68.7,998.4,-0.6,-0.5,-2.1,25,-22.7019,-68.0604,997.214,-0.533531,-0.400642,-1.822,
2026_07_06_16_25_57.648,3.869,49.5,0,0.774,0,0,0,0, ,0,0,0,0,0, ,-23.8,-68.4,996.2,-0.7,-0.9,-2,25,-22.845,-68.0902,997.219,-0.540629,-0.418884,-1.83589,
2026_07_06_16_25_57.668,3.869,49.6,0,0.774,0,0,0,0, ,0,0,0,0,0, ,-20.9,-68.2,997.9,-0.6,-0.3,-2.2,25,-22.8148,-68.103,997.208,-0.547293,-0.429921,-1.85199,
2026_07_06_16_25_57.688,3.869,49.6,0,0.772,0,0,0,0, ,0,0,0,0,0, ,-20.2,-68.4,997.1,-0.8,-0.1,-1.9,25,-22.6768,-68.115,997.226,-0.556599,-0.41591,-1.86405,
2026_07_06_16_25_57.708,3.869,49.6,0,0.774,0,0,0,0, ,0,0,0,0,0, ,-26.2,-67.9,997.4,-0.9,-0.7,-1.6,25,-22.7087,-68.1172,997.228,-0.574478,-0.414941,-1.8571,
2026_07_06_16_25_57.728,3.869,49.5,0,0.773,0,0,0,0, ,0,0,0,0,0, ,-26.3,-68.1,997.6,-0.6,-0.5,-2.1,25,-22.9245,-68.11,997.244,-0.585174,-0.426218,-1.85667,
2026_07_06_16_25_57.747,3.869,49.6,0,0.774,0,0,0,0, ,0,0,0,0,0, ,-19.4,-69.7,996.8,-0.7,-0.8,-1.9,25,-22.92,-68.1582,997.242,-0.589124,-0.439854,-1.8654,
2026_07_06_16_25_57.768,3.869,49.6,0,0.773,0,0,0,0, ,0,0,0,0,0, ,-22.3,-66.5,997.8,-0.5,-0.2,-1.7,25,-22.7938,-68.1546,997.245,-0.589787,-0.44352,-1.86142,
2026_07_06_16_25_57.794,3.869,49.5,0,0.774,0,0,0,0, ,0,0,0,0,0, ,-23.4,-67,999.1,-0.3,-0.2,-1.6,25,-22.7972,-68.069,997.319,-0.578222,-0.42868,-1.84854,
2026_07_06_16_25_57.807,3.869,49.5,0,0.774,0,0,0,0, ,0,0,0,0,0, ,-28.4,-68.6,995.8,-0.4,-0.2,-1.8,25,-22.9863,-68.0526,997.327,-0.564315,-0.414745,-1.83948,
2026_07_06_16_25_57.826,3.869,49.6,0,0.774,0,0,0,0, ,0,0,0,0,0, ,-24.9,-68.1,997.8,-0.3,-0.9,-1.8,25,-23.2096,-68.0708,997.294,-0.551255,-0.422987,-1.83708,
2026_07_06_16_25_57.846,3.869,49.6,0,0.774,0,0,0,0, ,0,0,0,0,0, ,-22.5,-68.8,996.4,-0.6,-1,-2,25,-23.2395,-68.0939,997.283,-0.545085,-0.455102,-1.84091,
2026_07_06_16_25_57.866,3.869,49.6,0,0.774,0,0,0,0, ,0,0,0,0,0, ,-20.9,-69.7,993.7,-0.6,-0.7,-2,25,-23.1456,-68.1643,997.147,-0.548431,-0.479166,-1.85061,
2026_07_06_16_25_57.886,3.869,49.6,0,0.774,0,0,0,0, ,0,0,0,0,0, ,-20.5,-67.6,997.8,-0.5,-0.3,-1.8,25,-22.9966,-68.1939,997.061,-0.548527,-0.480436,-1.85362,
2026_07_06_16_25_57.912,3.869,49.6,0,0.775,0,0,0,0, ,0,0,0,0,0, ,-24.6,-66.5,1001.5,-0.7,-0.4,-1.7,25,-22.9694,-68.1242,997.219,-0.551663,-0.472487,-1.8473,
2026_07_06_16_25_57.925,3.869,49.6,0,0.774,0,0,0,0, ,0,0,0,0,0, ,-27.7,-67.3,994.9,-0.5,-0.9,-2,25,-23.1632,-68.0496,997.279,-0.554609,-0.483304,-1.84747,
2026_07_06_16_25_57.945,3.869,49.5,0,0.774,0,0,0,0, ,0,0,0,0,0, ,-20.9,-69.8,996.2,-0.1,-0.3,-2.3,25,-23.2325,-68.0801,997.174,-0.539094,-0.490415,-1.8659,
2026_07_06_16_25_57.965,3.869,49.5,0,0.773,0,0,0,0, ,0,0,0,0,0, ,-21.9,-68.1,997.3,-0.9,-0.6,-1.8,25,-23.1208,-68.1331,997.148,-0.536711,-0.487953,-1.87712,
2026_07_06_16_25_57.985,3.869,49.5,0,0.773,0,0,0,0, ,0,0,0,0,0, ,-21.8,-67.9,995.4,-0.7,-0.2,-1.8,25,-23.0434,-68.125,997.099,-0.552755,-0.482593,-1.87242,
2026_07_06_16_25_58.006,3.869,49.5,0,0.774,0,0,0,0, ,0,0,0,0,0, ,-24.7,-67.2,997.5,-0.9,-0.5,-1.6,25,-23.056,-68.09,997.06,-0.567822,-0.474513,-1.86191,
2026_07_06_16_25_58.024,3.869,49.4,0,0.774,0,0,0,0, ,0,0,0,0,0, ,-22,-67.5,996.4,-0.5,-0.3,-1.9,25,-23.0739,-68.0449,997.053,-0.575877,-0.469972,-1.85509,
2026_07_06_16_25_58.044,3.869,49.5,0,0.774,0,0,0,0, ,0,0,0,0,0, ,-18.9,-67.1,999.5,-0.5,-0.1,-2,25,-22.914,-67.9995,997.108,-0.571253,-0.453521,-1.86088,
2026_07_06_16_25_58.063,3.869,49.5,0,0.773,0,0,0,0, ,0,0,0,0,0, ,-26.1,-68.6,994,-0.3,-0.4,-1.7,25,-22.8888,-67.9904,997.086,-0.560817,-0.441119,-1.86022,
2026_07_06_16_25_58.083,3.869,49.4,0,0.773,0,0,0,0, ,0,0,0,0,0, ,-28.3,-67.2,996.9,-0.2,-0.7,-1.8,25,-23.1515,-67.9849,996.986,-0.541877,-0.447754,-1.8535,
2026_07_06_16_25_58.110,3.869,49.4,0,0.773,0,0,0,0, ,0,0,0,0,0, ,-24.6,-67.8,1000.3,-0.7,-0.8,-2.2,25,-23.3525,-67.9553,997.084,-0.536278,-0.466172,-1.86243,
2026_07_06_16_25_58.122,3.869,49.5,0,0.773,0,0,0,0, ,0,0,0,0,0, ,-17.9,-68.2,995.2,-0.8,-1.1,-2.2,25,-23.2244,-67.958,997.125,-0.549302,-0.495655,-1.883,
2026_07_06_16_25_58.143,3.869,49.4,0,0.774,0,0,0,0, ,0,0,0,0,0, ,-16.8,-69.4,996.8,-0.7,0,-2.1,25,-22.8664,-68.0093,997.056,-0.561532,-0.498967,-1.89927,
2026_07_06_16_25_58.162,3.869,49.5,0,0.773,0,0,0,0, ,0,0,0,0,0, ,-21.6,-69.3,997.8,-1,0.2,-1.6,25,-22.643,-68.091,997.071,-0.57911,-0.462467,-1.89627,
2026_07_06_16_25_58.183,3.869,49.5,0,0.775,0,0,0,0, ,0,0,0,0,0, ,-32.3,-66.2,1008.6,-1.8,-1.3,-1.2,25,-22.9054,-68.0703,997.445,-0.629133,-0.467801,-1.86602,
2026_07_06_16_25_58.202,3.869,49.4,0,0.774,0,0,0,0, ,0,0,0,0,0, ,-34.4,-63.9,1004.2,-2.3,-3.2,-2,25,-23.5419,-67.8862,997.991,-0.715717,-0.576404,-1.84981,
2026_07_06_16_25_58.221,3.869,49.5,0,0.775,0,0,0,0, ,0,0,0,0,0, ,-14.1,-64.8,1021.2,-4.3,-4.1,-2.2,25,-23.5851,-67.6707,998.887,-0.873197,-0.763701,-1.86506,
2026_07_06_16_25_58.242,3.869,49.4,0,0.774,0,0,0,0, ,0,0,0,0,0, ,-15,-69,1004.3,-5.2,-7.5,-2,25,-23.0345,-67.6238,999.732,-1.10944,-1.0706,-1.87938,
2026_07_06_16_25_58.262,3.869,49.4,0,0.774,0,0,0,0, ,0,0,0,0,0, ,-12.6,-72.3,1004.5,-5.5,-4.3,-2.5,25,-22.4718,-67.8082,1000.02,-1.36785,-1.36489,-1.90196,
2026_07_06_16_25_58.281,3.869,49.4,0,0.773,0,0,0,0, ,0,0,0,0,0, ,-21.4,-70.4,993.5,-7.4,-6.4,-1.5,25,-22.1383,-68.024,999.954,-1.67754,-1.60773,-1.90794,
2026_07_06_16_25_58.300,3.869,49.4,0,0.774,0,0,0,0, ,0,0,0,0,0, ,10.3,-211.9,1003.5,-7.9,6.4,-10.2,25,-21.1275,-72.4801,999.866,-2.04149,-1.50976,-2.14815,
2026_07_06_16_25_58.322,3.869,49.4,0,0.774,0,0,0,0, ,0,0,0,0,0, ,-106,-67.6,994.2,-6.5,-5.4,-3.1,25,-22.7559,-76.5794,999.804,-2.35584,-1.38729,-2.42249,
2026_07_06_16_25_58.340,3.869,49.5,0,0.773,0,0,0,0, ,0,0,0,0,0, ,-17.3,-90.3,980.2,-5.6,-17.3,-5.1,25,-25.126,-76.7238,999.036,-2.58095,-1.9944,-2.52471,
2026_07_06_16_25_58.360,3.869,49.4,0,0.774,0,0,0,0, ,0,0,0,0,0, ,-61.5,-108,969.3,-1.3,-11.2,-7.4,25,-25.9958,-78.0904,997.556,-2.63391,-2.74122,-2.75172,
2026_07_06_16_25_58.380,3.869,49.4,0,0.773,0,0,0,0, ,0,0,0,0,0, ,3.1,-92.1,965.6,-0.5,-24.4,-2.7,25,-26.1911,-79.4286,995.721,-2.52825,-3.65887,-2.89177,
2026_07_06_16_25_58.400,3.869,49.3,0,0.773,0,0,0,0, ,0,0,0,0,0, ,56.7,-90.4,990.4,0,-24.2,-0.9,25,-22.773,-80.149,994.641,-2.38942,-4.91668,-2.82524,
2026_07_06_16_25_58.420,3.869,49.4,0,0.774,0,0,0,0, ,0,0,0,0,0, ,32.8,-95.2,956.9,1.3,-26.3,3.9,25,-18.6583,-80.9199,993.362,-2.2042,-6.15575,-2.56167,
2026_07_06_16_25_58.438,3.869,49.4,0,0.774,0,0,0,0, ,0,0,0,0,0, ,24.9,-87,955,5.2,-39,6.8,25,-15.7633,-81.5402,991.082,-1.87184,-7.77024,-2.07955,
2026_07_06_16_25_58.459,3.869,49.3,0,0.773,0,0,0,0, ,0,0,0,0,0, ,77,-59.8,1030.3,-4.1,-68.2,5.7,25,-11.6979,-81.0442,991.178,-1.72426,-10.563,-1.57197,
2026_07_06_16_25_58.479,3.869,49.4,0,0.774,0,0,0,0, ,0,0,0,0,0, ,95.7,-68.4,1073.3,-10.7,-93.4,5.9,25,-5.72315,-80.0116,994.872,-2.07012,-14.8431,-1.12274,
2026_07_06_16_25_58.499,3.869,49.4,0,0.773,0,0,0,0, ,0,0,0,0,0, ,124.3,-75.6,1015.2,-7.6,-105.4,10.4,25,1.32873,-79.5234,997.881,-2.50155,-19.9957,-0.557685,
2026_07_06_16_25_58.519,3.869,49.4,0,0.774,0,0,0,0, ,0,0,0,0,0, ,156.7,-58.1,980.3,4.9,-116.1,5.4,25,9.80947,-78.7512,997.873,-2.43138,-25.5261,-0.0422947,
2026_07_06_16_25_58.538,3.869,49.4,0,0.773,0,0,0,0, ,0,0,0,0,0, ,214.3,-109.7,960.6,16,-144.2,8,25,20.5156,-79.0649,996.202,-1.64642,-31.9016,0.368564,
2026_07_06_16_25_58.559,3.869,49.4,0,0.774,0,0,0,0, ,0,0,0,0,0, ,261.4,-30.5,1019,17.2,-162.9,1.2,25,33.7594,-78.5186,995.812,-0.534529,-39.3146,0.626417,
2026_07_06_16_25_58.578,3.869,49.3,0,0.774,0,0,0,0, ,0,0,0,0,0, ,300.7,-40.7,1030.2,-30.6,-174.3,7.8,25,48.8287,-75.9033,997.566,-0.910237,-47.1929,0.862463,
2026_07_06_16_25_58.598,3.869,49.3,0,0.775,0,0,0,0, ,0,0,0,0,0, ,454.3,-110.2,1037.7,-56,-140.2,10.9,25,68.8571,-75.8756,999.783,-3.49336,-53.8995,1.37967,
2026_07_06_16_25_58.617,3.869,49.4,0,0.773,0,0,0,0, ,0,0,0,0,0, ,490.8,-119.9,1041.2,-42.1,-86.7,6,25,93.4571,-78.2628,1002.2,-6.26947,-57.5283,1.81052,
2026_07_06_16_25_58.637,3.869,49.2,0,0.774,0,0,0,0, ,0,0,0,0,0, ,502.1,-144.7,1012.6,-29.6,-57.4,8.4,25,118.015,-81.5557,1003.71,-8.07203,-58.4133,2.13894,
2026_07_06_16_25_58.657,3.869,49.4,0,0.774,0,0,0,0, ,0,0,0,0,0, ,337.2,-96.3,883.5,-33.3,-70.2,11.2,25,136.395,-83.9289,1000.31,-9.49663,-58.7415,2.60579,
2026_07_06_16_25_58.676,3.869,49.3,0,0.774,0,0,0,0, ,0,0,0,0,0, ,415.5,-160.7,842.7,-28.8,-86,11.4,25,151.018,-86.6449,991.953,-10.81,-59.9212,3.13559,
2026_07_06_16_25_58.696,3.869,49.3,0,0.773,0,0,0,0, ,0,0,0,0,0, ,392,-125,841.9,-72.4,-117.3,21.2,25,166.419,-90.0699,982.833,-13.2347,-62.464,3.9378,
2026_07_06_16_25_58.716,3.869,49.2,0,0.773,0,0,0,0, ,0,0,0,0,0, ,446.6,-162.4,843.7,-106.3,-129.7,26,25,181.828,-93.338,974.3,-17.873,-66.1834,5.13596,
2026_07_06_16_25_58.736,3.869,49.2,0,0.773,0,0,0,0, ,0,0,0,0,0, ,560.9,-240.1,808.7,-109,-128.1,31.4,25,201.446,-99.9139,965.275,-23.3438,-70.0052,6.5719,
2026_07_06_16_25_58.757,3.869,49.3,0,0.774,0,0,0,0, ,0,0,0,0,0, ,627.1,-258.7,774.9,-60.6,-109.8,30.6,25,225.367,-109.023,954.704,-27.0888,-72.9878,8.06048,
2026_07_06_16_25_58.778,3.869,49.3,0,0.774,0,0,0,0, ,0,0,0,0,0, ,473.7,-196.1,665.5,0.5,-90.5,4.2,25,245.174,-116.237,940.414,-27.2692,-74.643,8.62961,
2026_07_06_16_25_58.796,3.869,49.3,0,0.774,0,0,0,0, ,0,0,0,0,0, ,507.2,-287.9,631.2,53.6,-112.5,-19.9,25,260.12,-123.9,922.616,-23.9592,-76.2796,7.62538,
2026_07_06_16_25_58.815,3.869,49.3,0,0.774,0,0,0,0, ,0,0,0,0,0, ,530.8,-298.8,759.8,-5.9,-77.4,-2.4,25,275.896,-134.226,908.776,-21.0458,-77.4173,6.48126,
2026_07_06_16_25_58.834,3.869,49.2,0,0.773,0,0,0,0, ,0,0,0,0,0, ,607.4,-240.1,657.9,-1.5,-76.8,-17.1,25,293.763,-142.467,896.593,-19.9888,-77.398,5.49217,
2026_07_06_16_25_58.854,3.869,49.3,0,0.774,0,0,0,0, ,0,0,0,0,0, ,635.6,-274.7,664.5,-38.4,-73.1,-8.1,25,313.734,-149.47,882.249,-19.9864,-77.2488,4.38968,
2026_07_06_16_25_58.874,3.869,49.4,0,0.773,0,0,0,0, ,0,0,0,0,0, ,664.4,-270.9,575.5,-35.4,-81.5,-8.9,25,334.225,-156.986,866.268,-21.0171,-77.2519,3.60421,
2026_07_06_16_25_58.894,3.869,49.2,0,0.774,0,0,0,0, ,0,0,0,0,0, ,715.8,-250.1,562.6,-18.1,-88,-10.7,25,355.912,-163.294,848.156,-21.3664,-77.7088,2.78739,
2026_07_06_16_25_58.913,3.869,49.3,0,0.773,0,0,0,0, ,0,0,0,0,0, ,711.6,-234.3,594.3,-23.4,-124.2,-16.5,25,377.714,-168.102,831.721,-21.3289,-79.4389,1.78879,
2026_07_06_16_25_58.934,3.869,49.2,0,0.773,0,0,0,0, ,0,0,0,0,0, ,701.5,-229.4,646.2,-20.3,-139.3,-32.5,25,397.753,-171.987,818.835,-21.3606,-82.6266,0.186813,
2026_07_06_16_25_58.954,3.869,49.3,0,0.774,0,0,0,0, ,0,0,0,0,0, ,704.7,-208.3,535.5,-8.2,-139,-44.4,25,416.36,-174.842,804.942,-20.9273,-86.071,-2.16762,
2026_07_06_16_25_58.973,3.869,49.2,0,0.774,0,0,0,0, ,0,0,0,0,0, ,831.2,-178.1,479.1,0,-137.1,-54.9,25,437.785,-175.961,786.804,-19.9019,-89.2385,-5.06108,
2026_07_06_16_25_58.997,3.869,49.3,0,0.774,0,0,0,0, ,0,0,0,0,0, ,843.3,-209.8,487.6,31.9,-114.2,-75.4,25,462.127,-177.057,768.313,-17.7172,-91.4573,-8.72274,
2026_07_06_16_25_59.012,3.869,49.3,0,0.774,0,0,0,0, ,0,0,0,0,0, ,961.3,-215.3,459.5,34.1,-98.4,-60.4,25,488.95,-179.22,750.35,-14.6266,-92.3618,-12.3289,
2026_07_06_16_25_59.032,3.869,49.2,0,0.775,0,0,0,0, ,0,0,0,0,0, ,963,-188.2,399.1,17.9,-85.6,-44.4,25,517.786,-180.593,730.786,-12.1509,-92.3397,-14.7707,
2026_07_06_16_25_59.053,3.869,49.3,0,0.773,0,0,0,0, ,0,0,0,0,0, ,909.6,-170,371.3,0,-78.7,-38.4,25,543.289,-180.502,709.727,-10.8651,-91.7188,-16.3934,
2026_07_06_16_25_59.073,3.869,49.2,0,0.774,0,0,0,0, ,0,0,0,0,0, ,886.8,-177.2,356.8,-14.7,-73.8,-31.5,25,564.916,-180.081,688.663,-10.6509,-90.7762,-17.5242,
2026_07_06_16_25_59.092,3.869,49.2,0,0.774,0,0,0,0, ,0,0,0,0,0, ,918.2,-152.8,353.2,-22.5,-71.4,-24.2,25,585.488,-179.162,668.33,-11.1353,-89.6686,-18.1534,
2026_07_06_16_25_59.111,3.869,49.2,0,0.773,0,0,0,0, ,0,0,0,0,0, ,919.6,-142.9,311.8,-24.8,-68.6,-20.7,25,605.805,-177.254,647.865,-11.8979,-88.47,-18.4153,
2026_07_06_16_25_59.132,3.869,49.2,0,0.773,0,0,0,0, ,0,0,0,0,0, ,870.3,-156.3,290.4,-27.2,-68.2,-25.3,25,623.425,-175.569,626.734,-12.7572,-87.247,-18.6946,
2026_07_06_16_25_59.151,3.869,49.2,0,0.775,0,0,0,0, ,0,0,0,0,0, ,855.2,-162.9,274.7,-26.4,-66.6,-26.2,25,638.009,-174.596,605.761,-13.613,-86.0376,-19.1246,
2026_07_06_16_25_59.172,3.869,49.2,0,0.773,0,0,0,0, ,0,0,0,0,0, ,877.1,-142.3,253.1,-6.6,-56.5,-35.3,25,651.911,-173.256,584.929,-13.7889,-84.5454,-19.833,
2026_07_06_16_25_59.190,3.869,49.2,0,0.772,0,0,0,0, ,0,0,0,0,0, ,968.6,-130,184.5,-14.9,-64.1,-24.1,25,668.422,-170.994,562.618,-13.6037,-83.0679,-20.4343,
2026_07_06_16_25_59.210,3.869,49.2,0,0.772,0,0,0,0, ,0,0,0,0,0, ,1000.2,-151.2,170.4,-12.1,-60,-22.3,25,687.676,-169.142,539.146,-13.5974,-81.7871,-20.6028,
2026_07_06_16_25_59.231,3.869,49.2,0,0.774,0,0,0,0, ,0,0,0,0,0, ,1018,-164,142.5,-7.3,-52.8,-16.7,25,707.263,-168.439,515.826,-13.3599,-80.2401,-20.5356,
2026_07_06_16_25_59.252,3.869,49.1,0,0.774,0,0,0,0, ,0,0,0,0,0, ,1027.8,-166.3,159.5,1.4,-41.8,-9.2,25,726.497,-168.239,493.594,-12.7255,-78.2328,-20.0734,
2026_07_06_16_25_59.270,3.869,49.2,0,0.773,0,0,0,0, ,0,0,0,0,0, ,1020.9,-142,171.1,9.1,-29.6,-3.6,25,744.648,-167.38,473.589,-11.6302,-75.641,-19.2401,
2026_07_06_16_25_59.290,3.869,49.2,0,0.774,0,0,0,0, ,0,0,0,0,0, ,990.6,-99.4,170.8,5.5,-18.9,-1.7,25,760.559,-164.535,455.147,-10.4766,-72.5093,-18.2292,
2026_07_06_16_25_59.310,3.869,49.1,0,0.774,0,0,0,0, ,0,0,0,0,0, ,943.7,-84.8,156.1,-2.4,-14.5,-4.8,25,773.148,-160.121,437.372,-9.74374,-69.1084,-17.3164,
2026_07_06_16_25_59.330,3.869,49.2,0,0.774,0,0,0,0, ,0,0,0,0,0, ,949.7,-97.6,106.6,-2.5,-14.5,-8.6,25,783.724,-155.922,418.723,-9.29927,-65.7807,-16.6694,
2026_07_06_16_25_59.350,3.869,49.2,0,0.774,0,0,0,0, ,0,0,0,0,0, ,973.8,-96.8,102,0.7,-14.7,-11.1,25,794.572,-152.343,399.563,-8.78744,-62.6619,-16.2539,
2026_07_06_16_25_59.369,3.869,49.2,0,0.773,0,0,0,0, ,0,0,0,0,0, ,1008.4,-111.9,108.2,3.7,-13.8,-9.3,25,806.548,-149.419,381.619,-8.1179,-59.7118,-15.885,
2026_07_06_16_25_59.388,3.869,49.1,0,0.772,0,0,0,0, ,0,0,0,0,0, ,1002.5,-98.7,126,4.1,-10.9,-3.7,25,818.669,-146.73,365.5,-7.38556,-56.8257,-15.3131,
2026_07_06_16_25_59.409,3.869,49.2,0,0.774,0,0,0,0, ,0,0,0,0,0, ,972.4,-83.6,125.8,3.7,-8.3,-1.4,25,828.954,-143.343,350.9,-6.69784,-53.9479,-14.5353,
2026_07_06_16_25_59.428,3.869,49.1,0,0.774,0,0,0,0, ,0,0,0,0,0, ,956.6,-91.7,92.6,5.3,-11,-4.2,25,837.214,-139.949,336.171,-6.01547,-51.2485,-13.8202,
2026_07_06_16_25_59.448,3.869,49.1,0,0.773,0,0,0,0, ,0,0,0,0,0, ,990.7,-91.9,88,6.8,-14.2,-3.8,25,845.528,-137.015,321.188,-5.28023,-48.8933,-13.2218,
2026_07_06_16_25_59.469,3.869,49.1,0,0.774,0,0,0,0, ,0,0,0,0,0, ,1005.1,-83.4,89.1,5.1,-11.2,-3.1,25,854.813,-134.007,307.012,-4.59589,-46.6878,-12.6263,
2026_07_06_16_25_59.491,3.869,49.1,0,0.773,0,0,0,0, ,0,0,0,0,0, ,1006.9,-93.5,94.8,2.3,-7.7,-2.2,25,864.026,-131.231,293.906,-4.09036,-44.4186,-12.0184,
2026_07_06_16_25_59.507,3.869,49,0,0.773,0,0,0,0, ,0,0,0,0,0, ,978.2,-103,78.6,1.6,-3.3,-1,25,871.858,-129.221,281.28,-3.72228,-42.047,-11.3835,
2026_07_06_16_25_59.527,3.869,49.1,0,0.774,0,0,0,0, ,0,0,0,0,0, ,949.8,-99.7,76,4.9,-0.7,-1,25,877.473,-127.523,268.85,-3.2974,-39.6067,-10.7508,
2026_07_06_16_25_59.547,3.869,49.1,0,0.773,0,0,0,0, ,0,0,0,0,0, ,1203.7,-104.7,86.5,7.8,-0.1,-3.9,25,889.616,-125.98,257.418,-2.70951,-37.2175,-10.2449,
2026_07_06_16_25_59.567,3.869,49.2,0,0.773,0,0,0,0, ,0,0,0,0,0, ,990.6,-65,65.6,9.8,5.1,-2,25,902.263,-123.473,246.366,-2.00815,-34.7972,-9.80041,
2026_07_06_16_25_59.586,3.869,49.2,0,0.773,0,0,0,0, ,0,0,0,0,0, ,974.1,-107.2,117.1,2,6.5,-0.2,25,907.143,-121.196,236.92,-1.52625,-32.3233,-9.27023,
2026_07_06_16_25_59.606,3.869,49.1,0,0.773,0,0,0,0, ,0,0,0,0,0, ,983.5,-84.9,98.9,9,6.3,-4,25,911.51,-119.664,229.064,-1.09809,-29.9636,-8.83329,
2026_07_06_16_25_59.626,3.869,49.1,0,0.773,0,0,0,0, ,0,0,0,0,0, ,980.2,-99.8,103.1,8.7,6.7,-4.1,25,915.796,-117.999,221.26,-0.491877,-27.7416,-8.54181,
2026_07_06_16_25_59.646,3.869,49.2,0,0.774,0,0,0,0, ,0,0,0,0,0, ,981,-98.5,106.2,14.2,6.7,-4.4,25,919.745,-116.851,214.154,0.235831,-25.6428,-8.28028,
2026_07_06_16_25_59.666,3.869,49.1,0,0.773,0,0,0,0, ,0,0,0,0,0, ,978.5,-90.4,120.1,19.3,6.4,-5.3,25,923.402,-115.485,207.999,1.24216,-23.6811,-8.07125,
2026_07_06_16_25_59.686,3.869,49.1,0,0.773,0,0,0,0, ,0,0,0,0,0, ,977.2,-84.5,128.4,18.3,3.6,-5.2,25,926.72,-113.777,202.895,2.31209,-21.9333,-7.89933,
2026_07_06_16_25_59.712,3.869,49.1,0,0.772,0,0,0,0, ,0,0,0,0,0, ,976.8,-69.5,142.9,22.9,0.3,-3.2,25,929.783,-111.536,198.798,3.42651,-20.4779,-7.6739,
2026_07_06_16_25_59.728,3.869,49,0,0.773,0,0,0,0, ,0,0,0,0,0, ,980.4,-5.3,140.7,21.9,-4.7,2.2,25,932.758,-107.018,195.324,4.58271,-19.3641,-7.23674,
2026_07_06_16_25_59.745,3.869,49.2,0,0.773,0,0,0,0, ,0,0,0,0,0, ,970.8,-119.3,154.1,0.5,-12.4,0.8,25,935.369,-104.293,192.404,4.98595,-18.7051,-6.70434,
2026_07_06_16_25_59.764,3.869,49,0,0.772,0,0,0,0, ,0,0,0,0,0, ,982.7,-52.9,97.1,-2.7,-12.9,1.4,25,937.891,-103.185,188.333,4.61509,-18.3362,-6.22877,
2026_07_06_16_25_59.785,3.869,49,0,0.772,0,0,0,0, ,0,0,0,0,0, ,975.7,-88.9,127.1,-5.3,-15.1,-0.1,25,940.408,-101.217,183.688,4.09011,-18.0719,-5.80959,
2026_07_06_16_25_59.804,3.869,49.1,0,0.774,0,0,0,0, ,0,0,0,0,0, ,978.7,-79.2,119.5,-5.6,-16.9,0,25,942.65,-100.171,180.008,3.50876,-17.9457,-5.45862,
2026_07_06_16_25_59.825,3.869,49,0,0.774,0,0,0,0, ,0,0,0,0,0, ,982.2,-74.3,96.1,-4.8,-18.9,1.5,25,944.953,-98.7439,175.608,2.97807,-17.9429,-5.08028,
2026_07_06_16_25_59.845,3.869,49.1,0,0.774,0,0,0,0, ,0,0,0,0,0, ,983.5,-81.7,90.5,-6.1,-18.9,2.8,25,947.263,-97.4799,170.592,2.46448,-18.0012,-4.63968,
2026_07_06_16_25_59.862,3.869,49.1,0,0.773,0,0,0,0, ,0,0,0,0,0, ,984,-86.4,80.5,-6.6,-18.7,4.1,25,949.486,-96.6615,165.407,1.92735,-18.0499,-4.14672,
2026_07_06_16_25_59.883,3.869,49.1,0,0.772,0,0,0,0, ,0,0,0,0,0, ,981.5,-96.1,76,-8.2,-19.8,3.9,25,951.513,-96.3317,160.096,1.35896,-18.123,-3.65028,
2026_07_06_16_25_59.903,3.869,49,0,0.774,0,0,0,0, ,0,0,0,0,0, ,986.8,-119.8,30.7,-6.7,-14.8,1.4,25,953.502,-97.0397,153.591,0.822167,-18.0729,-3.26636,
2026_07_06_16_25_59.923,3.869,49.1,0,0.774,0,0,0,0, ,0,0,0,0,0, ,986.5,-100.5,36.4,-2.9,-8.7,-1,25,955.522,-97.8386,146.276,0.479567,-17.6876,-3.05512,
2026_07_06_16_25_59.949,3.869,49.1,0,0.774,0,0,0,0, ,0,0,0,0,0, ,984,-96.4,64.6,-0.9,-7.5,-1.6,25,957.333,-97.8759,140.439,0.334562,-17.1033,-2.94817,
2026_07_06_16_25_59.964,3.869,49,0,0.775,0,0,0,0, ,0,0,0,0,0, ,983.2,-93.9,65.4,-0.2,-8.5,-1.5,25,958.934,-97.7098,135.842,0.280659,-16.5486,-2.86297,
2026_07_06_16_25_59.983,3.869,49,0,0.773,0,0,0,0, ,0,0,0,0,0, ,983.8,-92.7,59.2,-0.2,-9.4,-1.2,25,960.431,-97.441,131.361,0.251369,-16.0856,-2.77077,
2026_07_06_16_26_00.002,3.869,49.1,0,0.773,0,0,0,0, ,0,0,0,0,0, ,985.2,-94.7,47.7,-1.8,-8.5,-1,25,961.898,-97.2131,126.613,0.175113,-15.6507,-2.66896,
2026_07_06_16_26_00.022,3.869,49,0,0.773,0,0,0,0, ,0,0,0,0,0, ,984,-94.1,58.1,-3.9,-8,-1,25,963.281,-97.0416,122.121,-0.0092295,-15.1997,-2.56726,
2026_07_06_16_26_00.041,3.869,49,0,0.773,0,0,0,0, ,0,0,0,0,0, ,985.8,-92.8,31.7,-3,-8.2,-0.5,25,964.599,-96.8228,117.416,-0.218901,-14.7671,-2.45652,
2026_07_06_16_26_00.061,3.869,49,0,0.774,0,0,0,0, ,0,0,0,0,0, ,984.9,-96.1,54.1,-1.9,-8.3,-1.3,25,965.863,-96.6782,112.875,-0.354859,-14.37,-2.36167,
2026_07_06_16_26_00.081,3.869,49,0,0.773,0,0,0,0, ,0,0,0,0,0, ,986.3,-100.7,23.8,-1,-7.3,-0.7,25,967.066,-96.7831,108.37,-0.421594,-13.9696,-2.27869,
2026_07_06_16_26_00.102,3.869,48.9,0,0.773,0,0,0,0, ,0,0,0,0,0, ,987.3,-99.4,20.1,1.2,-3.9,-0.7,25,968.268,-96.9822,103.104,-0.389809,-13.4596,-2.18249,
2026_07_06_16_26_00.120,3.869,49,0,0.774,0,0,0,0, ,0,0,0,0,0, ,985.5,-100,21.7,2.6,-0.6,-1.8,25,969.373,-97.1478,98.0945,-0.250274,-12.7765,-2.12567,
2026_07_06_16_26_00.141,3.869,49,0,0.773,0,0,0,0, ,0,0,0,0,0, ,984.9,-95.2,41.9,2.1,0.8,-2.1,25,970.338,-97.1754,94.0547,-0.0918201,-11.9918,-2.11496,
2026_07_06_16_26_00.161,3.869,49,0,0.773,0,0,0,0, ,0,0,0,0,0, ,984.6,-94.7,46.8,0,0.4,-1.9,25,971.216,-97.0398,91.0258,-0.0222404,-11.2245,-2.10796,
2026_07_06_16_26_00.180,3.869,49.1,0,0.773,0,0,0,0, ,0,0,0,0,0, ,985.9,-96.5,51.2,-1.1,-0.5,-1.7,25,972.071,-96.952,88.4649,-0.0544008,-10.5436,-2.08919,
2026_07_06_16_26_00.203,3.869,49,0,0.776,0,0,0,0, ,0,0,0,0,0, ,984.8,-99.3,35.4,-0.5,-1.2,-1.6,25,972.88,-97.0098,85.7126,-0.0998357,-9.95288,-2.06243,
2026_07_06_16_26_00.219,3.869,48.9,0,0.772,0,0,0,0, ,0,0,0,0,0, ,985.1,-97.4,46.9,1,-0.8,-1.6,25,973.616,-97.0915,82.9971,-0.0785176,-9.40731,-2.03425,
2026_07_06_16_26_00.239,3.869,48.9,0,0.773,0,0,0,0, ,0,0,0,0,0, ,983.3,-97.2,47.7,2.5,-2.9,-1.3,25,974.261,-97.1042,80.8218,0.0329077,-8.94679,-1.99865,
2026_07_06_16_26_00.259,3.869,49,0,0.774,0,0,0,0, ,0,0,0,0,0, ,986,-87.4,48.7,3.2,-3.6,-1,25,974.894,-96.8114,78.8339,0.204574,-8.59964,-1.94693,
2026_07_06_16_26_00.278,3.869,49,0,0.773,0,0,0,0, ,0,0,0,0,0, ,988,-56.3,59.2,-1.2,-5.5,1.3,25,975.632,-95.2903,77.3176,0.253045,-8.35286,-1.81915,
2026_07_06_16_26_00.299,3.869,49,0,0.773,0,0,0,0, ,0,0,0,0,0, ,975.7,-115.4,113,-1.4,-13.4,6.9,25,976.011,-94.7151,77.8527,0.158407,-8.41972,-1.45845,
2026_07_06_16_26_00.318,3.869,48.9,0,0.774,0,0,0,0, ,0,0,0,0,0, ,972.7,-47.7,97.5,-10.1,-30.6,17.5,25,975.9,-93.9128,79.5223,-0.201637,-9.24727,-0.62614,
2026_07_06_16_26_00.338,3.869,48.9,0,0.773,0,0,0,0, ,0,0,0,0,0, ,954.5,-105.8,-5.8,-60,-57.8,28.4,25,975.151,-92.867,77.4703,-2.32521,-11.3772,0.810531,
2026_07_06_16_26_00.358,3.869,48.9,0,0.773,0,0,0,0, ,0,0,0,0,0, ,1068.9,-200.6,-152.2,-58.7,-101.4,42.8,25,977.378,-96.5435,67.9354,-5.80016,-15.5345,2.93051,
2026_07_06_16_26_00.378,3.869,48.9,0,0.773,0,0,0,0, ,0,0,0,0,0, ,1022.4,-214.8,-196,-42,-141.7,54.5,25,981.538,-103.317,53.1864,-8.51491,-21.9948,5.71654,
2026_07_06_16_26_00.398,3.869,48.9,0,0.773,0,0,0,0, ,0,0,0,0,0, ,961.4,-107.5,-489.6,22.1,-182.7,52.4,25,982.17,-106.841,29.056,-8.60236,-30.5386,8.6253,
2026_07_06_16_26_00.417,3.869,48.9,0,0.774,0,0,0,0, ,0,0,0,0,0, ,942.7,-333.9,-163.8,31.3,-240.2,30,25,980.334,-113.78,7.37711,-6.45113,-41.5629,10.6103,
2026_07_06_16_26_00.437,3.869,48.9,0,0.774,0,0,0,0, ,0,0,0,0,0, ,1123.6,-335.2,-311.2,80.2,-232.7,51.8,25,983.553,-127.233,-7.54509,-2.66074,-53.4388,12.4561,
2026_07_06_16_26_00.458,3.869,48.9,0,0.773,0,0,0,0, ,0,0,0,0,0, ,882.3,-109.7,-350,146.5,-250.1,23.4,25,984.735,-133.035,-27.2312,4.40866,-64.8927,13.9883,
2026_07_06_16_26_00.477,3.869,48.9,0,0.773,0,0,0,0, ,0,0,0,0,0, ,793.7,-148,-563.3,173.8,-250.1,-7.2,25,975.793,-132.78,-53.399,13.8991,-76.1788,13.6295,
2026_07_06_16_26_00.497,3.869,48.9,0,0.772,0,0,0,0, ,0,0,0,0,0, ,875.3,-234.9,-541.3,156.7,-250.1,-5.7,25,967.183,-136.355,-83.8007,23.1221,-86.7771,12.4059,
2026_07_06_16_26_00.517,3.869,48.9,0,0.773,0,0,0,0, ,0,0,0,0,0, ,930.2,-344.2,-282.5,57.1,-250.1,55.2,25,963.257,-145.691,-103.794,28.2273,-96.7296,13.1581,
2026_07_06_16_26_00.537,3.869,48.9,0,0.772,0,0,0,0, ,0,0,0,0,0, ,707.2,-279.5,-423.5,22.6,-206.8,32.6,25,954.448,-155.816,-118.98,28.9356,-104.756,15.0314,
2026_07_06_16_26_00.556,3.869,48.9,0,0.773,0,0,0,0, ,0,0,0,0,0, ,674.8,-261.8,-454.3,-19.6,-124.7,24.7,25,938.394,-162.814,-138.475,27.2637,-108.473,15.8613,
2026_07_06_16_26_00.576,3.869,48.9,0,0.773,0,0,0,0, ,0,0,0,0,0, ,579.8,-236.4,-612,-27.8,-92,18.2,25,919.437,-168.072,-162.526,24.1581,-108.466,16.2019,
2026_07_06_16_26_00.596,3.869,48.7,0,0.772,0,0,0,0, ,0,0,0,0,0, ,593.2,-272.8,-688.5,-15.4,-134.9,-2.4,25,899.148,-173.344,-192.247,21.3697,-108.769,15.696,
2026_07_06_16_26_00.616,3.869,48.7,0,0.774,0,0,0,0, ,0,0,0,0,0, ,524.7,-328.6,-597.7,-15.2,-151.4,-2.4,25,878.417,-181.105,-219.72,19.1352,-110.864,14.5933,
2026_07_06_16_26_00.635,3.869,48.9,0,0.773,0,0,0,0, ,0,0,0,0,0, ,493.7,-341.6,-695.6,-27.7,-106.8,9.1,25,855.918,-190.489,-245.736,16.662,-111.976,13.9081,
2026_07_06_16_26_00.655,3.869,48.7,0,0.772,0,0,0,0, ,0,0,0,0,0, ,456.6,-296.2,-745.2,-32.2,-103.6,14.4,25,832.715,-198.314,-274.661,13.8216,-111.563,13.7766,
2026_07_06_16_26_00.675,3.869,48.7,0,0.773,0,0,0,0, ,0,0,0,0,0, ,459.9,-258.6,-763.7,-35.7,-91.6,2.4,25,809.896,-203.134,-303.898,10.9105,-110.712,13.449,
2026_07_06_16_26_00.698,3.869,48.9,0,0.773,0,0,0,0, ,0,0,0,0,0, ,507.3,-260.4,-804,-37.7,-79.4,-5.8,25,790.013,-206.568,-333.145,8.00924,-109.176,12.5258,
2026_07_06_16_26_00.716,3.869,48.7,0,0.772,0,0,0,0, ,0,0,0,0,0, ,514,-257.9,-901.3,-23.4,-72.9,-1.3,25,772.989,-209.773,-364.803,5.65954,-107.163,11.5462,
2026_07_06_16_26_00.734,3.869,48.7,0,0.774,0,0,0,0, ,0,0,0,0,0, ,481.9,-303.7,-924.5,-10.1,-66.4,-3.3,25,756.229,-214.101,-398.202,4.29395,-104.877,10.7025,
2026_07_06_16_26_00.753,3.869,48.7,0,0.772,0,0,0,0, ,0,0,0,0,0, ,457.5,-280.5,-869.2,-16.2,-53.8,0,25,738.768,-218.854,-428.589,3.23096,-102.148,9.94974,
2026_07_06_16_26_00.773,3.869,48.9,0,0.772,0,0,0,0, ,0,0,0,0,0, ,468,-271.6,-856,-23,-57,4.7,25,721.949,-222.339,-455.036,1.8397,-99.2998,9.48663,
2026_07_06_16_26_00.792,3.869,48.6,0,0.774,0,0,0,0, ,0,0,0,0,0, ,392.9,-274.2,-904.2,-29,-58.5,11.8,25,704.185,-225.42,-480.939,0.14322,-96.7678,9.41127,
2026_07_06_16_26_00.813,3.869,48.7,0,0.774,0,0,0,0, ,0,0,0,0,0, ,359.2,-269.1,-935.6,-28.9,-70.7,22.6,25,684.19,-228.237,-507.688,-1.62965,-94.8076,9.8859,
2026_07_06_16_26_00.833,3.869,48.7,0,0.773,0,0,0,0, ,0,0,0,0,0, ,346.5,-277.5,-898.5,-12.8,-79,21.3,25,663.999,-230.983,-532.633,-2.80089,-93.5914,10.6211,
2026_07_06_16_26_00.853,3.869,48.7,0,0.772,0,0,0,0, ,0,0,0,0,0, ,299.4,-211.6,-832.1,-11.5,-98.5,14.8,25,643.216,-231.81,-552.905,-3.3706,-93.2964,11.0738,
2026_07_06_16_26_00.873,3.869,48.6,0,0.773,0,0,0,0, ,0,0,0,0,0, ,255.9,-177.7,-859.1,-30.9,-85.7,22.7,25,620.939,-229.546,-570.741,-4.45708,-93.2235,11.5415,
2026_07_06_16_26_00.892,3.869,48.7,0,0.773,0,0,0,0, ,0,0,0,0,0, ,231.5,-189.5,-935.6,-43.2,-72.9,21.4,25,597.951,-226.746,-590.644,-6.44321,-92.375,12.1819,
2026_07_06_16_26_00.912,3.869,48.7,0,0.772,0,0,0,0, ,0,0,0,0,0, ,238.7,-203.4,-1004.1,-41.4,-60.8,21.4,25,575.84,-224.9,-613.752,-8.62823,-90.8196,12.7436,
2026_07_06_16_26_00.932,3.869,48.7,0,0.773,0,0,0,0, ,0,0,0,0,0, ,215.5,-209.9,-1038.3,-36.5,-49.5,16.4,25,554.589,-223.788,-638.581,-10.476,-88.646,13.1188,
2026_07_06_16_26_00.952,3.869,48.6,0,0.774,0,0,0,0, ,0,0,0,0,0, ,211.5,-180.6,-979.3,-27.4,-42,16.1,25,533.804,-222.049,-661.141,-11.7845,-86.032,13.3096,
2026_07_06_16_26_00.972,3.869,48.6,0,0.773,0,0,0,0, ,0,0,0,0,0, ,185.4,-153.3,-968.8,-30.1,-31.2,11.8,25,513.368,-218.691,-680.209,-12.8184,-83.0197,13.3486,
2026_07_06_16_26_00.992,3.869,48.7,0,0.773,0,0,0,0, ,0,0,0,0,0, ,193.4,-153.3,-977.4,-30.9,-15.2,6.7,25,493.626,-214.706,-698.057,-13.8958,-79.3745,13.0988,
2026_07_06_16_26_01.010,3.869,48.7,0,0.773,0,0,0,0, ,0,0,0,0,0, ,190.6,-167.4,-1010.6,-24.8,0.1,4.4,25,475.246,-211.394,-716.091,-14.7462,-74.9977,12.6388,
2026_07_06_16_26_01.031,3.869,48.7,0,0.773,0,0,0,0, ,0,0,0,0,0, ,174,-184.6,-1029.6,-13.4,6.2,2.9,25,457.394,-209.237,-734.616,-15.0115,-70.2356,12.0911,
2026_07_06_16_26_01.052,3.869,48.7,0,0.772,0,0,0,0, ,0,0,0,0,0, ,149,-179,-993.8,-10.3,0.2,2.6,25,439.363,-207.565,-751.501,-14.8188,-65.7606,11.5219,
2026_07_06_16_26_01.070,3.869,48.6,0,0.773,0,0,0,0, ,0,0,0,0,0, ,173,-136.9,-946.5,-13,-12.8,7.4,25,422.401,-204.542,-764.825,-14.6257,-62.1372,11.1244,
2026_07_06_16_26_01.090,3.869,48.7,0,0.773,0,0,0,0, ,0,0,0,0,0, ,161.7,-148.3,-938.7,-15,-14.3,8.3,25,406.858,-200.767,-775.658,-14.5876,-59.1764,10.9249,
2026_07_06_16_26_01.110,3.869,48.6,0,0.773,0,0,0,0, ,0,0,0,0,0, ,124.5,-122.8,-969.6,-20.8,-9.6,6.1,25,390.786,-196.793,-786.535,-14.7895,-56.2986,10.6979,
2026_07_06_16_26_01.129,3.869,48.7,0,0.773,0,0,0,0, ,0,0,0,0,0, ,115.8,-125.8,-976,-22.7,-2.1,1.8,25,374.294,-192.375,-797.886,-15.2136,-53.2243,10.2867,
2026_07_06_16_26_01.149,3.869,48.7,0,0.771,0,0,0,0, ,0,0,0,0,0, ,142.8,-139.4,-1000.2,-19.8,1.4,-2.7,25,359.365,-188.733,-809.477,-15.5815,-50.0023,9.63244,
2026_07_06_16_26_01.168,3.869,48.7,0,0.773,0,0,0,0, ,0,0,0,0,0, ,117.3,-118.5,-1037.9,-13.8,0.3,-2.9,25,345.391,-185.09,-822.248,-15.6557,-46.9035,8.87484,
2026_07_06_16_26_01.189,3.869,48.7,0,0.773,0,0,0,0, ,0,0,0,0,0, ,137.2,-112.7,-987.4,-11.4,-4.8,-1.4,25,332.098,-180.855,-833.85,-15.4695,-44.1824,8.20301,
2026_07_06_16_26_01.208,3.869,48.7,0,0.772,0,0,0,0, ,0,0,0,0,0, ,151.6,-106,-975.5,-12.2,-7.7,-1,25,320.66,-176.498,-842.845,-15.2459,-41.8709,7.63002,
2026_07_06_16_26_01.228,3.869,48.6,0,0.773,0,0,0,0, ,0,0,0,0,0, ,212.8,-146.3,-1177.4,-10.9,-2.8,0.2,25,312.222,-173.43,-857.08,-15.0207,-39.6393,7.14069,
2026_07_06_16_26_01.249,3.869,48.6,0,0.774,0,0,0,0, ,0,0,0,0,0, ,155.8,-143.1,-1084.4,9.8,9.4,5.3,25,304.427,-171.679,-873.766,-14.1389,-37.0227,6.87313,
2026_07_06_16_26_01.268,3.869,48.6,0,0.772,0,0,0,0, ,0,0,0,0,0, ,130.1,-112.4,-1010.7,8,4.6,-1.3,25,294.587,-169.002,-884.356,-12.7349,-34.3401,6.57617,
2026_07_06_16_26_01.288,3.869,48.6,0,0.773,0,0,0,0, ,0,0,0,0,0, ,142.3,-83,-966.7,4.8,-6.8,0.3,25,284.935,-164.657,-890.714,-11.5689,-32.3145,6.14497,
2026_07_06_16_26_01.308,3.869,48.7,0,0.773,0,0,0,0, ,0,0,0,0,0, ,181.2,-140.2,-956.2,1.2,-7.2,0,25,277.429,-161.424,-895.025,-10.6811,-30.7719,5.77965,
2026_07_06_16_26_01.327,3.869,48.6,0,0.773,0,0,0,0, ,0,0,0,0,0, ,155.6,-123.4,-965.9,2.4,2.7,0.6,25,270.785,-159.619,-899.048,-9.92054,-29.0339,5.44574,
2026_07_06_16_26_01.347,3.869,48.7,0,0.773,0,0,0,0, ,0,0,0,0,0, ,164.1,-138,-953.4,1.2,5.2,0.9,25,264.025,-157.857,-902.741,-9.20632,-27.0239,5.15959,
2026_07_06_16_26_01.367,3.869,48.6,0,0.772,0,0,0,0, ,0,0,0,0,0, ,151.7,-130.3,-992.9,1,1.3,1.9,25,257.558,-156.412,-907.032,-8.57828,-25.1791,4.93049,
2026_07_06_16_26_01.387,3.869,48.7,0,0.772,0,0,0,0, ,0,0,0,0,0, ,153.8,-133,-988.5,-1.3,-1.7,2.3,25,251.171,-154.903,-912.13,-8.06468,-23.6569,4.75801,
2026_07_06_16_26_01.406,3.869,48.5,0,0.772,0,0,0,0, ,0,0,0,0,0, ,155.6,-123.2,-983.8,4.3,-1.5,0.1,25,245.292,-153.27,-916.641,-7.48183,-22.3128,4.54119,
2026_07_06_16_26_01.427,3.869,48.6,0,0.772,0,0,0,0, ,0,0,0,0,0, ,138.7,-125.2,-980.4,1,0.3,0.1,25,239.312,-151.498,-920.63,-6.86442,-20.9897,4.27056,
2026_07_06_16_26_01.447,3.869,48.6,0,0.773,0,0,0,0, ,0,0,0,0,0, ,128.5,-125.6,-984.4,1.3,3.1,-1.6,25,232.87,-149.908,-924.394,-6.37605,-19.6071,3.96462,
2026_07_06_16_26_01.466,3.869,48.5,0,0.773,0,0,0,0, ,0,0,0,0,0, ,146.6,-110.3,-982.2,-0.5,2.4,-3.6,25,227.061,-147.961,-927.983,-5.96313,-18.2447,3.56458,
2026_07_06_16_26_01.490,3.869,48.5,0,0.772,0,0,0,0, ,0,0,0,0,0, ,135.8,-91.7,-985.9,-4.2,-0.4,-2.7,25,221.829,-145.099,-931.4,-5.74296,-17.072,3.15541,
2026_07_06_16_26_01.510,3.869,48.5,0,0.772,0,0,0,0, ,0,0,0,0,0, ,132.5,-153.3,-986.5,0,0.4,-0.4,25,216.486,-143.722,-934.739,-5.52096,-16.0316,2.86868,
2026_07_06_16_26_01.525,3.869,48.5,0,0.773,0,0,0,0, ,0,0,0,0,0, ,131.2,-135.2,-986.6,-0.4,3.9,-3.3,25,211.329,-143.754,-937.897,-5.19672,-14.9237,2.58113,
2026_07_06_16_26_01.545,3.869,48.5,0,0.773,0,0,0,0, ,0,0,0,0,0, ,155,-137.4,-979.9,-1.8,6.5,-5.5,25,207.171,-143.3,-940.66,-4.94707,-13.6974,2.15572,
2026_07_06_16_26_01.564,3.869,48.5,0,0.772,0,0,0,0, ,0,0,0,0,0, ,180.9,-134.8,-976.8,-0.7,7,-5.7,25,204.781,-142.861,-942.957,-4.72178,-12.4514,1.68311,
2026_07_06_16_26_01.585,3.869,48.5,0,0.773,0,0,0,0, ,0,0,0,0,0, ,182,-125.9,-979.9,0.7,2.9,-3.1,25,203.359,-142.099,-945.114,-4.43405,-11.391,1.31242,
2026_07_06_16_26_01.604,3.869,48.5,0,0.773,0,0,0,0, ,0,0,0,0,0, ,167.4,-125.9,-977.4,0.9,-2.1,-0.7,25,201.613,-141.111,-947.157,-4.1151,-10.6725,1.11666,
2026_07_06_16_26_01.625,3.869,48.6,0,0.773,0,0,0,0, ,0,0,0,0,0, ,170.1,-138,-977.6,0.9,-0.5,-1.6,25,199.61,-140.553,-949.006,-3.80949,-10.1013,0.978536,
2026_07_06_16_26_01.644,3.869,48.5,0,0.774,0,0,0,0, ,0,0,0,0,0, ,156.8,-116.8,-984.7,1.7,3,-3.3,25,197.407,-139.752,-950.965,-3.49813,-9.40962,0.76961,
2026_07_06_16_26_01.664,3.869,48.5,0,0.773,0,0,0,0, ,0,0,0,0,0, ,162.5,-140.3,-984,0.8,0.6,-3.2,25,195.106,-139.069,-953,-3.20879,-8.72653,0.524665,
2026_07_06_16_26_01.684,3.869,48.5,0,0.772,0,0,0,0, ,0,0,0,0,0, ,157.3,-132.3,-982.9,2,0.5,-1.1,25,192.961,-138.9,-954.855,-2.92794,-8.16124,0.361677,
2026_07_06_16_26_01.703,3.869,48.5,0,0.772,0,0,0,0, ,0,0,0,0,0, ,151.7,-134.6,-982.7,2.1,4.4,-3.1,25,190.617,-138.568,-956.558,-2.6246,-7.51462,0.211669,
2026_07_06_16_26_01.723,3.869,48.5,0,0.773,0,0,0,0, ,0,0,0,0,0, ,146.1,-135.1,-983.8,3.4,6.4,-4.1,25,188.075,-138.342,-958.185,-2.29709,-6.72764,-0.0206046,
2026_07_06_16_26_01.743,3.869,48.5,0,0.774,0,0,0,0, ,0,0,0,0,0, ,171,-138.3,-983.7,4.2,7.9,-5.7,25,186.276,-138.242,-959.742,-1.92555,-5.88197,-0.317943,
2026_07_06_16_26_01.767,3.869,48.5,0,0.773,0,0,0,0, ,0,0,0,0,0, ,185,-149.4,-1001.4,14.4,10.1,-3.1,25,185.771,-138.583,-961.742,-1.24149,-4.9751,-0.566693,
2026_07_06_16_26_01.787,3.869,48.5,0,0.772,0,0,0,0, ,0,0,0,0,0, ,168.9,-125.2,-1018.9,23.8,16.9,-4,25,185.234,-138.505,-964.692,-0.00192914,-3.84927,-0.748488,
2026_07_06_16_26_01.802,3.869,48.5,0,0.773,0,0,0,0, ,0,0,0,0,0, ,217.5,-90.5,-1010,-3.4,23.1,-11.8,25,185.719,-136.637,-967.724,0.619751,-2.39596,-1.18428,
2026_07_06_16_26_01.823,3.869,48.4,0,0.773,0,0,0,0, ,0,0,0,0,0, ,247.9,-188.9,-1148.3,16.3,55,-12.3,25,188.582,-136.824,-974.514,0.975032,0.129656,-1.84641,
2026_07_06_16_26_01.842,3.869,48.5,0,0.774,0,0,0,0, ,0,0,0,0,0, ,320.5,-206.6,-1182.8,81.2,147.8,-24.6,25,194.409,-140.536,-986.155,3.88632,6.30082,-2.85819,
2026_07_06_16_26_01.861,3.869,48.6,0,0.772,0,0,0,0, ,0,0,0,0,0, ,539.6,-313.2,-1183.5,71.4,211.2,-60.4,25,208.768,-147.81,-998.159,8.29903,16.8551,-5.27387,
2026_07_06_16_26_01.881,3.869,48.5,0,0.773,0,0,0,0, ,0,0,0,0,0, ,462.4,-188.3,-1151.3,74.3,208.7,-41.2,25,226.576,-154.083,-1008.47,12.2326,28.6219,-8.04812,
2026_07_06_16_26_01.901,3.869,48.5,0,0.772,0,0,0,0, ,0,0,0,0,0, ,464.1,-187,-976.1,63.2,166.8,-20.2,25,240.998,-156.129,-1011.84,15.6766,38.3187,-9.42846,
2026_07_06_16_26_01.920,3.869,48.5,0,0.772,0,0,0,0, ,0,0,0,0,0, ,557.7,-244.6,-917.9,59.1,137.8,0.4,25,257.446,-159.765,-1007.89,18.4477,45.2645,-9.4572,
2026_07_06_16_26_01.940,3.869,48.4,0,0.774,0,0,0,0, ,0,0,0,0,0, ,568.3,-239.6,-881.8,64.8,154.1,-0.2,25,276.065,-164.782,-1001.3,21.0986,51.4,-8.87481,
2026_07_06_16_26_01.961,3.869,48.4,0,0.773,0,0,0,0, ,0,0,0,0,0, ,580.4,-265.3,-783.2,61.7,180.7,-10.3,25,294.242,-170.124,-991.017,23.6672,58.4687,-8.65392,
2026_07_06_16_26_01.980,3.869,48.5,0,0.772,0,0,0,0, ,0,0,0,0,0, ,588.3,-233.1,-626.7,53.7,208.3,-13.1,25,311.92,-174.943,-973.585,25.7411,66.7581,-8.83954,
2026_07_06_16_26_02.000,3.869,48.3,0,0.773,0,0,0,0, ,0,0,0,0,0, ,629.7,-221.9,-557.6,42.9,233,-24.4,25,330.024,-178.146,-950.341,27.1157,76.1359,-9.44346,
2026_07_06_16_26_02.021,3.869,48.4,0,0.772,0,0,0,0, ,0,0,0,0,0, ,644.8,-261.7,-511.7,32.8,237.6,-32.5,25,348.745,-182.025,-925.01,27.7699,85.835,-10.6017,
2026_07_06_16_26_02.040,3.869,48.5,0,0.771,0,0,0,0, ,0,0,0,0,0, ,689.6,-309.9,-445.9,16.1,217.8,-27,25,368.151,-188.348,-897.819,27.5676,94.4799,-11.7685,
2026_07_06_16_26_02.064,3.869,48.4,0,0.771,0,0,0,0, ,0,0,0,0,0, ,684.3,-255.3,-425.9,2.6,209.5,-31.3,25,387.578,-194.092,-869.671,26.4574,101.742,-12.8277,
2026_07_06_16_26_02.079,3.869,48.4,0,0.773,0,0,0,0, ,0,0,0,0,0, ,718.1,-262.9,-383.6,-4.2,208.5,-49.3,25,406.689,-198.053,-841.34,24.7964,108.278,-14.5018,
2026_07_06_16_26_02.098,3.869,48.5,0,0.772,0,0,0,0, ,0,0,0,0,0, ,727.2,-259.2,-307.8,-17.2,192.4,-58.3,25,425.943,-201.892,-811.137,22.6334,113.895,-16.8965,
2026_07_06_16_26_02.118,3.869,48.5,0,0.773,0,0,0,0, ,0,0,0,0,0, ,746.5,-234.2,-263.1,-31.3,183,-58.2,25,444.889,-204.623,-779.103,19.7764,118.392,-19.4165,
2026_07_06_16_26_02.139,3.869,48.5,0,0.772,0,0,0,0, ,0,0,0,0,0, ,805.9,-239,-240.7,-32.5,174.5,-66.4,25,465.078,-206.571,-746.976,16.6274,122.07,-22.0297,
2026_07_06_16_26_02.157,3.869,48.4,0,0.773,0,0,0,0, ,0,0,0,0,0, ,871.3,-245.3,-206.7,-36.5,173.6,-63.4,25,487.84,-208.739,-715.089,13.5118,125.238,-24.6421,
2026_07_06_16_26_02.178,3.869,48.4,0,0.773,0,0,0,0, ,0,0,0,0,0, ,846.3,-194.8,-149.2,-41.2,194.3,-64.8,25,510.445,-209.429,-682.357,10.321,128.815,-27.0466,
2026_07_06_16_26_02.198,3.869,48.4,0,0.774,0,0,0,0, ,0,0,0,0,0, ,851.6,-156.8,-105.1,-47.2,193.3,-72.4,25,531.073,-207.379,-648.524,6.99864,132.775,-29.5788,
2026_07_06_16_26_02.217,3.869,48.4,0,0.772,0,0,0,0, ,0,0,0,0,0, ,882.5,-116.3,-60.9,-40.5,169.7,-74.8,25,551.546,-203.063,-614.063,3.90005,135.745,-32.2613,
2026_07_06_16_26_02.237,3.869,48.4,0,0.773,0,0,0,0, ,0,0,0,0,0, ,926.8,-111.5,12.3,-24.6,129.4,-68.4,25,573.064,-197.63,-578.124,1.67887,136.586,-34.6585,
2026_07_06_16_26_02.259,3.869,48.5,0,0.773,0,0,0,0, ,0,0,0,0,0, ,942.6,-67.7,44.1,-27.4,87.3,-59.5,25,595.101,-191.047,-541.176,-0.00780896,134.865,-36.4435,
2026_07_06_16_26_02.276,3.869,48.4,0,0.774,0,0,0,0, ,0,0,0,0,0, ,994.3,-53.9,64.2,-33.5,60.6,-47.9,25,617.852,-183.11,-504.898,-1.86288,131.153,-37.495,
2026_07_06_16_26_02.297,3.869,48.3,0,0.772,0,0,0,0, ,0,0,0,0,0, ,1019.5,-71.8,93.3,-15.4,50.2,-35.9,25,641.559,-175.782,-469.332,-3.23928,126.537,-37.7634,
2026_07_06_16_26_02.316,3.869,48.4,0,0.773,0,0,0,0, ,0,0,0,0,0, ,1022.4,-54.1,118.7,-3.2,44.7,-30.1,25,664.679,-168.906,-434.273,-3.60861,121.718,-37.4732,
2026_07_06_16_26_02.336,3.869,48.4,0,0.772,0,0,0,0, ,0,0,0,0,0, ,988.4,-24.4,148.1,-3.5,36.2,-27.3,25,685.441,-161.005,-399.68,-3.59285,116.765,-36.9386,
2026_07_06_16_26_02.356,3.869,48.4,0,0.773,0,0,0,0, ,0,0,0,0,0, ,984,-21.7,149.2,-6.9,22.4,-21.9,25,703.769,-152.598,-366.267,-3.69078,111.435,-36.1867,
2026_07_06_16_26_02.378,3.869,48.3,0,0.773,0,0,0,0, ,0,0,0,0,0, ,999.7,-22.8,158.6,-6.1,15.6,-17,25,721.324,-144.655,-334.569,-3.86197,105.803,-35.1668,
2026_07_06_16_26_02.396,3.869,48.3,0,0.773,0,0,0,0, ,0,0,0,0,0, ,998.6,-13.4,181,-7.2,4.2,-7.5,25,738.254,-136.943,-303.834,-4.03187,99.9586,-33.7703,
2026_07_06_16_26_02.416,3.869,48.4,0,0.772,0,0,0,0, ,0,0,0,0,0, ,965.3,-5.3,179.6,-10.1,0.7,-4.6,25,753.104,-129.168,-274.332,-4.31328,94.0167,-32.0811,
2026_07_06_16_26_02.434,3.869,48.3,0,0.772,0,0,0,0, ,0,0,0,0,0, ,948.6,-12,189,-9.9,-2.8,-8.3,25,765.526,-121.824,-246.384,-4.65982,88.2236,-30.5192,
2026_07_06_16_26_02.456,3.869,48.4,0,0.772,0,0,0,0, ,0,0,0,0,0, ,940.9,-5.9,185.9,-5.5,-12.6,-12.1,25,776.447,-114.946,-219.947,-4.84508,82.3782,-29.281,
2026_07_06_16_26_02.475,3.869,48.4,0,0.773,0,0,0,0, ,0,0,0,0,0, ,1012.5,-12.8,190,-4,-22.3,-8.3,25,788.65,-108.511,-195.091,-4.83929,76.2949,-28.1182,
2026_07_06_16_26_02.496,3.869,48.3,0,0.773,0,0,0,0, ,0,0,0,0,0, ,1068.2,-17.8,213.9,-2.2,-2.4,-2.3,25,803.988,-102.831,-170.896,-4.7333,70.8931,-26.7278,
2026_07_06_16_26_02.514,3.869,48.3,0,0.772,0,0,0,0, ,0,0,0,0,0, ,1032.1,-4.5,203.8,-4.3,18.3,-2.1,25,818.989,-97.2441,-147.756,-4.64291,67.0575,-25.2331,
2026_07_06_16_26_02.535,3.869,48.3,0,0.772,0,0,0,0, ,0,0,0,0,0, ,993.2,18.1,156.9,-11,20.6,8.9,25,830.79,-90.9039,-127.762,-4.82615,64.1565,-23.4883,
2026_07_06_16_26_02.554,3.869,48.4,0,0.772,0,0,0,0, ,0,0,0,0,0, ,982.5,-29.9,156,-5.8,1.3,-1.8,25,840.361,-85.724,-110.443,-5.04393,60.9142,-21.8406,
2026_07_06_16_26_02.574,3.869,48.3,0,0.772,0,0,0,0, ,0,0,0,0,0, ,960.2,-17.4,174.9,1.5,-4.8,-3.4,25,848.343,-81.9414,-93.6304,-4.86759,57.0956,-20.6682,
2026_07_06_16_26_02.594,3.869,48.3,0,0.773,0,0,0,0, ,0,0,0,0,0, ,939.6,-9.7,203.2,1.4,-11.1,-2.6,25,854.532,-77.7738,-76.4045,-4.48261,53.1319,-19.5915,
2026_07_06_16_26_02.613,3.869,48.3,0,0.772,0,0,0,0, ,0,0,0,0,0, ,1155.1,-47.9,258.3,0.7,-10.9,0,25,866.281,-74.7894,-57.6873,-4.14546,49.2238,-18.4769,
2026_07_06_16_26_02.634,3.869,48.4,0,0.772,0,0,0,0, ,0,0,0,0,0, ,966.3,25,196.7,-0.2,-9.6,-4.5,25,878.129,-70.9297,-40.3087,-3.87762,45.5997,-17.488,
2026_07_06_16_26_02.660,3.869,48.4,0,0.772,0,0,0,0, ,0,0,0,0,0, ,976,14.1,191.7,-0.5,-14.8,5.3,25,883.797,-65.4161,-26.0183,-3.66265,42.0775,-16.398,
2026_07_06_16_26_02.673,3.869,48.3,0,0.773,0,0,0,0, ,0,0,0,0,0, ,970.8,-13.7,183.9,-1.5,-16.7,-2.2,25,889.257,-61.4176,-12.9888,-3.5004,38.5536,-15.3043,
2026_07_06_16_26_02.693,3.869,48.3,0,0.773,0,0,0,0, ,0,0,0,0,0, ,971.6,-14.7,180.4,2.1,-21.9,-0.4,25,894.251,-58.5403,-1.09751,-3.26881,35.0282,-14.4509,
2026_07_06_16_26_02.712,3.869,48.3,0,0.771,0,0,0,0, ,0,0,0,0,0, ,975.2,-10.3,157.7,4.1,-25.7,0.7,25,899.074,-55.7347,9.27086,-2.88071,31.4433,-13.5612,
2026_07_06_16_26_02.732,3.869,48.2,0,0.772,0,0,0,0, ,0,0,0,0,0, ,979,-17.7,135.9,1.9,-26.4,0.6,25,903.829,-53.1915,17.6515,-2.52235,27.9398,-12.6952,
2026_07_06_16_26_02.752,3.869,48.3,0,0.773,0,0,0,0, ,0,0,0,0,0, ,982.4,-29.4,120.9,1.6,-25.6,-0.7,25,908.513,-51.3852,24.4003,-2.26201,24.6529,-11.9246,
2026_07_06_16_26_02.773,3.869,48.3,0,0.771,0,0,0,0, ,0,0,0,0,0, ,984.8,-20.1,107.2,0.7,-24.3,-2.3,25,913.089,-49.7621,29.8633,-2.05409,21.6302,-11.2893,
2026_07_06_16_26_02.791,3.869,48.2,0,0.772,0,0,0,0, ,0,0,0,0,0, ,981,-11.5,114.8,-5,-22.6,-3.8,25,917.343,-47.6926,34.8076,-2.05993,18.8831,-10.7873,
2026_07_06_16_26_02.814,3.869,48.3,0,0.773,0,0,0,0, ,0,0,0,0,0, ,985.3,-2,101.8,-8.6,-23.7,-4.1,25,921.353,-45.1976,39.286,-2.34878,16.3217,-10.3706,
2026_07_06_16_26_02.831,3.869,48.3,0,0.772,0,0,0,0, ,0,0,0,0,0, ,984.4,-6.5,97,-12.8,-24,-2.8,25,925.222,-42.7024,42.9492,-2.85768,13.8738,-9.94889,
2026_07_06_16_26_02.852,3.869,48.3,0,0.773,0,0,0,0, ,0,0,0,0,0, ,989.1,-23.1,73.9,-8.9,-24.1,-1.4,25,928.972,-41.0021,45.5391,-3.34472,11.5628,-9.4706,
2026_07_06_16_26_02.869,3.869,48.2,0,0.773,0,0,0,0, ,0,0,0,0,0, ,989.7,-41.1,50.9,-3.3,-21.2,-2.7,25,932.654,-40.4596,46.5666,-3.51262,9.47795,-9.01841,
2026_07_06_16_26_02.891,3.869,48.3,0,0.772,0,0,0,0, ,0,0,0,0,0, ,993.6,-26,33.8,-4.3,-15,-6.9,25,936.249,-40.0386,46.3096,-3.53013,7.79742,-8.76135,
2026_07_06_16_26_02.910,3.869,48.3,0,0.773,0,0,0,0, ,0,0,0,0,0, ,992.6,-18.9,46.6,-3.8,-10.1,-8.5,25,939.713,-38.9668,45.9373,-3.56181,6.55749,-8.69667,
2026_07_06_16_26_02.932,3.869,48.3,0,0.773,0,0,0,0, ,0,0,0,0,0, ,992.7,11.8,46.7,-1.7,-8,-5.5,25,942.939,-36.8085,45.9807,-3.51234,5.60641,-8.59328,
2026_07_06_16_26_02.950,3.869,48.2,0,0.772,0,0,0,0, ,0,0,0,0,0, ,992,-2.3,39.6,2,-4.2,-1.5,25,945.95,-34.2761,45.8082,-3.28916,4.89305,-8.28291,
2026_07_06_16_26_02.972,3.869,48.3,0,0.773,0,0,0,0, ,0,0,0,0,0, ,987.4,-18.4,58.5,2.1,-1.8,-1.8,25,948.616,-32.8181,46.0058,-2.96381,4.41207,-7.87872,
2026_07_06_16_26_02.989,3.869,48.3,0,0.773,0,0,0,0, ,0,0,0,0,0, ,987.5,-6.5,63.5,-0.6,-2.4,-2.4,25,950.983,-31.5769,46.9195,-2.7375,4.01524,-7.52658,
2026_07_06_16_26_03.012,3.869,48.1,0,0.773,0,0,0,0, ,0,0,0,0,0, ,987.3,-6.1,60,-3.4,-2.9,-2,25,953.202,-30.0366,47.8232,-2.69256,3.60908,-7.20199,
2026_07_06_16_26_03.028,3.869,48.2,0,0.773,0,0,0,0, ,0,0,0,0,0, ,988,-5.1,67.3,-4.3,-3.1,-1.8,25,955.301,-28.5475,48.7877,-2.76309,3.20634,-6.8789,
2026_07_06_16_26_03.049,3.869,48.2,0,0.773,0,0,0,0, ,0,0,0,0,0, ,986.2,-5.7,69.3,-5.8,-4.6,-1.3,25,957.239,-27.1369,49.9767,-2.90245,2.77634,-6.55417,
2026_07_06_16_26_03.068,3.869,48.2,0,0.773,0,0,0,0, ,0,0,0,0,0, ,988.1,-11.1,57.2,-6,-6.1,-0.5,25,959.061,-25.9952,50.7855,-3.08511,2.28114,-6.20962,
2026_07_06_16_26_03.089,3.869,48.3,0,0.773,0,0,0,0, ,0,0,0,0,0, ,993,-24.5,28.9,-4,-4.4,-1.2,25,960.98,-25.4958,50.3142,-3.2018,1.82221,-5.88302,
2026_07_06_16_26_03.108,3.869,48.2,0,0.773,0,0,0,0, ,0,0,0,0,0, ,991.4,-21.8,33.2,-0.5,-0.6,-2.4,25,962.883,-25.3528,49.1403,-3.1438,1.55883,-5.63421,
2026_07_06_16_26_03.129,3.869,48.2,0,0.773,0,0,0,0, ,0,0,0,0,0, ,987.9,-11.1,54.1,0.2,0.7,-2.7,25,964.514,-24.8103,48.8057,-2.96136,1.46689,-5.44626,
2026_07_06_16_26_03.146,3.869,48.3,0,0.773,0,0,0,0, ,0,0,0,0,0, ,989.3,-8.9,48,-0.4,1,-2.7,25,965.982,-23.9078,48.9425,-2.787,1.42929,-5.27891,
2026_07_06_16_26_03.168,3.869,48.2,0,0.772,0,0,0,0, ,0,0,0,0,0, ,989.2,-7.2,52.4,-0.7,1.8,-2,25,967.4,-22.9415,49.0191,-2.65068,1.42751,-5.10043,
2026_07_06_16_26_03.187,3.869,48.2,0,0.773,0,0,0,0, ,0,0,0,0,0, ,988,-15.1,52,-0.3,1.9,-1.9,25,968.691,-22.2229,49.2129,-2.51963,1.45325,-4.90845,
2026_07_06_16_26_03.209,3.869,48.2,0,0.773,0,0,0,0, ,0,0,0,0,0, ,987.6,-16.8,51.3,0.7,2.4,-2.3,25,969.856,-21.8407,49.3614,-2.3539,1.49571,-4.73731,
2026_07_06_16_26_03.226,3.869,48.2,0,0.772,0,0,0,0, ,0,0,0,0,0, ,985.5,-5.8,72,1,1.7,-1.9,25,970.873,-21.1983,50.1103,-2.15866,1.52949,-4.5766,
2026_07_06_16_26_03.248,3.869,48.2,0,0.773,0,0,0,0, ,0,0,0,0,0, ,985.3,-8.1,76.6,0.4,-1.1,-1.4,25,971.758,-20.3301,51.5843,-1.98446,1.45457,-4.39826,
2026_07_06_16_26_03.270,3.869,48.2,0,0.772,0,0,0,0, ,0,0,0,0,0, ,986.9,-17.3,59.8,2.7,-3.3,-0.8,25,972.632,-19.8651,52.5968,-1.76908,1.23187,-4.19727,
2026_07_06_16_26_03.291,3.869,48.1,0,0.773,0,0,0,0, ,0,0,0,0,0, ,994.8,-19,26.8,14.6,-2.4,0.5,25,973.742,-19.7606,52.0303,-1.13417,0.983128,-3.95064,
2026_07_06_16_26_03.305,3.869,48.1,0,0.774,0,0,0,0, ,0,0,0,0,0, ,1012.3,1.4,-58.9,48.3,9.4,2.7,25,975.559,-19.0927,47.8817,0.85143,1.1365,-3.6124,
2026_07_06_16_26_03.327,3.869,48.2,0,0.773,0,0,0,0, ,0,0,0,0,0, ,997.1,70.5,-18.9,28.7,24.9,-20.6,25,977.335,-15.7385,42.5934,3.14564,2.11232,-3.93766,
2026_07_06_16_26_03.346,3.869,48.1,0,0.772,0,0,0,0, ,0,0,0,0,0, ,1004.1,44.7,38.9,20.5,7.7,-28.4,25,978.752,-11.2695,40.6073,4.45301,2.97688,-5.19068,
2026_07_06_16_26_03.367,3.869,48.3,0,0.773,0,0,0,0, ,0,0,0,0,0, ,1108.8,36.4,152.7,15.2,-6.4,-19.3,25,983.487,-8.11172,43.9706,5.26939,2.83509,-6.32773,
2026_07_06_16_26_03.385,3.869,48.1,0,0.773,0,0,0,0, ,0,0,0,0,0, ,1100,154.6,142.8,3.9,-2.3,-31.3,25,990.855,-1.79788,50.2946,5.53024,2.39725,-7.48385,
2026_07_06_16_26_03.407,3.869,48.1,0,0.773,0,0,0,0, ,0,0,0,0,0, ,1085,138.9,149.2,3,20.1,-70.4,25,997.049,7.25426,56.1267,5.40348,2.79351,-10.1265,
2026_07_06_16_26_03.423,3.869,48.1,0,0.773,0,0,0,0, ,0,0,0,0,0, ,1058.1,185.9,56.1,-21.4,45.6,-92.3,25,1001.59,16.7084,58.9617,4.51358,4.62508,-14.4667,
2026_07_06_16_26_03.446,3.869,48.1,0,0.773,0,0,0,0, ,0,0,0,0,0, ,960.5,90,27.9,-30.4,51.9,-83.6,25,1002.06,24.0966,57.9281,2.66025,7.31394,-18.9446,
2026_07_06_16_26_03.463,3.869,48.1,0,0.774,0,0,0,0, ,0,0,0,0,0, ,988.4,108.7,99.6,-38.5,35,-69.4,25,1000.38,28.6824,58.2829,0.398846,9.51598,-22.4518,
2026_07_06_16_26_03.485,3.869,48.1,0,0.772,0,0,0,0, ,0,0,0,0,0, ,821.7,242.7,110.1,-98.5,3.3,-84.3,25,994.568,37.6412,61.1205,-3.79968,10.1031,-25.7667,
2026_07_06_16_26_03.503,3.869,48.2,0,0.773,0,0,0,0, ,0,0,0,0,0, ,686,207,242.4,-108.5,-40.8,-128,25,979.899,49.0493,68.1362,-9.87517,8.34482,-30.6651,
2026_07_06_16_26_03.525,3.869,48.3,0,0.773,0,0,0,0, ,0,0,0,0,0, ,790.1,36,103.2,-41.7,-19.8,-123.8,25,965.161,53.4642,74.5142,-13.8498,5.9899,-36.4685,
2026_07_06_16_26_03.543,3.869,48.2,0,0.773,0,0,0,0, ,0,0,0,0,0, ,918.4,161.3,17.8,-18.9,35.3,-119.5,25,958.403,56.2177,73.6602,-14.8522,6.09716,-41.6592,
2026_07_06_16_26_03.565,3.869,48.1,0,0.772,0,0,0,0, ,0,0,0,0,0, ,875.6,339.2,138.4,-10.8,66.6,-136.8,25,954.661,68.0416,73.9307,-14.8521,8.83038,-46.9297,
2026_07_06_16_26_03.585,3.869,48.2,0,0.773,0,0,0,0, ,0,0,0,0,0, ,757.8,327.1,305.1,-21.9,41.4,-149.8,25,946.254,84.1966,82.9385,-14.9434,11.5829,-52.8023,
2026_07_06_16_26_03.608,3.869,48.2,0,0.773,0,0,0,0, ,0,0,0,0,0, ,826.5,317.3,164.6,-36.6,23.7,-131.6,25,936.863,98.7,92.1956,-15.8152,12.8606,-58.1586,
2026_07_06_16_26_03.622,3.869,48.2,0,0.773,0,0,0,0, ,0,0,0,0,0, ,926.1,462.5,281.1,-34.1,41.8,-128.2,25,933.173,116.445,100.157,-17.0056,14.0726,-62.5303,
2026_07_06_16_26_03.645,3.869,48.1,0,0.772,0,0,0,0, ,0,0,0,0,0, ,890.7,621.5,354,-57.6,46,-116.5,25,931.663,142.377,113.405,-18.7633,15.8902,-66.1756,
2026_07_06_16_26_03.661,3.869,48,0,0.774,0,0,0,0, ,0,0,0,0,0, ,957,518.9,298.3,-106.2,66.2,-114.4,25,931.187,168.448,126.369,-22.6107,18.3405,-69.1782,
2026_07_06_16_26_03.684,3.869,48.1,0,0.773,0,0,0,0, ,0,0,0,0,0, ,867.3,385.1,173.8,-92.9,90.1,-112,25,930.027,185.727,133.053,-27.2992,21.9851,-71.8608,
2026_07_06_16_26_03.701,3.869,48.1,0,0.774,0,0,0,0, ,0,0,0,0,0, ,744.7,515.7,248.2,-79.2,67.1,-95.9,25,922.469,201.855,137.802,-30.8793,25.4351,-73.8162,
2026_07_06_16_26_03.725,3.869,48.2,0,0.773,0,0,0,0, ,0,0,0,0,0, ,873,557.9,238.8,-86.7,58.5,-91.9,25,915.545,222.266,144.243,-34.0524,27.712,-75.0401,
2026_07_06_16_26_03.740,3.869,48.1,0,0.772,0,0,0,0, ,0,0,0,0,0, ,660.5,310.9,107.4,-76.3,49.8,-70,25,906.478,235.193,146.002,-36.9437,29.3231,-75.4002,
2026_07_06_16_26_03.762,3.869,48.1,0,0.772,0,0,0,0, ,0,0,0,0,0, ,685.5,555.1,403.4,28.4,47.4,-73,25,892.251,247.247,152.668,-36.1519,30.4978,-75.1626,
2026_07_06_16_26_03.779,3.869,48.2,0,0.772,0,0,0,0, ,0,0,0,0,0, ,737.9,478.8,389.4,18.4,21.6,-57.3,25,881.248,263.682,167.521,-32.523,30.7417,-74.5524,
2026_07_06_16_26_03.802,3.869,48.1,0,0.773,0,0,0,0, ,0,0,0,0,0, ,754.2,578.6,343,133.2,59.9,-51.2,25,873.01,279.831,179.628,-25.922,31.3515,-73.3152,
2026_07_06_16_26_03.820,3.869,48.2,0,0.773,0,0,0,0, ,0,0,0,0,0, ,765,617.3,305.9,152,30.6,-57,25,866.099,299.217,188.453,-15.6527,32.1985,-72.1443,
2026_07_06_16_26_03.843,3.869,48,0,0.773,0,0,0,0, ,0,0,0,0,0, ,623,652,272.7,153.6,16.8,-55.9,25,855.611,319.657,194.598,-5.38763,31.6806,-71.1879,
2026_07_06_16_26_03.859,3.869,48.1,0,0.772,0,0,0,0, ,0,0,0,0,0, ,768.3,747.3,339.7,187.7,13.5,-73.1,25,845.864,342.813,201.399,5.33966,30.6733,-70.7804,
2026_07_06_16_26_03.881,3.869,48.1,0,0.772,0,0,0,0, ,0,0,0,0,0, ,701.1,749,274.9,216.3,-4.5,-62.9,25,839.09,367.513,207.852,17.3237,29.0783,-70.611,
2026_07_06_16_26_03.898,3.869,48.2,0,0.773,0,0,0,0, ,0,0,0,0,0, ,554.1,956.9,236.9,240.5,-8.4,-100.5,25,826.202,397.094,210.78,30.1861,26.9133,-71.2867,
2026_07_06_16_26_03.924,3.869,48.1,0,0.773,0,0,0,0, ,0,0,0,0,0, ,506.9,907.3,192.1,177.2,-12,-153,25,808.183,429.696,211.007,41.0734,24.6517,-74.6665,
2026_07_06_16_26_03.941,3.869,48.1,0,0.773,0,0,0,0, ,0,0,0,0,0, ,595.7,868.1,191.4,142.8,-8.5,-160.3,25,792.529,457.606,209.833,48.3205,22.5249,-79.6624,
2026_07_06_16_26_03.964,3.869,48,0,0.774,0,0,0,0, ,0,0,0,0,0, ,584.5,862,96.3,131,-2,-158.5,25,780.193,482.435,205.813,53.7183,20.8324,-84.5214,
2026_07_06_16_26_03.978,3.869,48.1,0,0.773,0,0,0,0, ,0,0,0,0,0, ,467.6,869.5,69.4,116.9,-2.1,-161.9,25,764.707,505.793,198.32,57.9981,19.438,-89.133,
2026_07_06_16_26_04.002,3.869,48.1,0,0.773,0,0,0,0, ,0,0,0,0,0, ,319.7,829.1,54.6,98.7,-10.8,-161,25,742.095,526.725,190.013,61.0329,17.8604,-93.5399,
2026_07_06_16_26_04.017,3.869,48.1,0,0.774,0,0,0,0, ,0,0,0,0,0, ,234,889.1,57.1,71.6,-42.1,-124.6,25,713.744,546.979,181.837,62.5025,15.1603,-96.5416,
2026_07_06_16_26_04.040,3.869,48,0,0.773,0,0,0,0, ,0,0,0,0,0, ,204.8,901,-12.6,34.7,-45,-99.5,25,683.62,568.19,172.112,61.9326,11.5826,-97.4867,
2026_07_06_16_26_04.057,3.869,48.1,0,0.772,0,0,0,0, ,0,0,0,0,0, ,284.4,898.5,-60.4,2.1,-60.9,-109.5,25,656.868,588.394,159.4,59.2798,7.65015,-97.9141,
2026_07_06_16_26_04.078,3.869,48.1,0,0.773,0,0,0,0, ,0,0,0,0,0, ,324.2,807.3,-72,-8.9,-57.7,-93.2,25,635.383,604.513,145.652,55.4603,3.57038,-98.1234,
2026_07_06_16_26_04.097,3.869,48.1,0,0.773,0,0,0,0, ,0,0,0,0,0, ,279.9,822.6,-50.7,-16.1,-37.6,-69.2,25,615.07,617.336,133.038,51.319,0.449138,-97.0922,
2026_07_06_16_26_04.121,3.869,48.1,0,0.773,0,0,0,0, ,0,0,0,0,0, ,217.8,951.1,-71.6,2.9,-28.7,-51.5,25,592.754,633.76,121.205,47.7895,-1.59831,-94.8532,
2026_07_06_16_26_04.136,3.869,48.1,0,0.773,0,0,0,0, ,0,0,0,0,0, ,199.4,1018.9,-103.1,-6,-21.6,-41,25,569.345,655.163,108.496,44.7829,-3.03349,-91.8914,
2026_07_06_16_26_04.160,3.869,48,0,0.773,0,0,0,0, ,0,0,0,0,0, ,207.6,1034.3,-83.2,-14.3,-22.3,-38.4,25,547.051,677.798,96.2082,41.4354,-4.18621,-88.711,
2026_07_06_16_26_04.175,3.869,48.1,0,0.773,0,0,0,0, ,0,0,0,0,0, ,216.9,966.5,-65.4,-31.6,-17.4,-39.3,25,526.649,697.456,85.8179,37.5119,-5.14073,-85.6726,
2026_07_06_16_26_04.198,3.869,48.1,0,0.772,0,0,0,0, ,0,0,0,0,0, ,216.9,939.2,-50.9,-26.9,3.6,-37.2,25,507.774,713.019,77.0448,33.4436,-5.24793,-82.7828,
2026_07_06_16_26_04.215,3.869,48,0,0.773,0,0,0,0, ,0,0,0,0,0, ,114.7,920.7,-127.1,-19.7,10.9,-33.8,25,486.935,726.239,66.9265,29.9858,-4.48634,-79.9015,
2026_07_06_16_26_04.240,3.869,48,0,0.773,0,0,0,0, ,0,0,0,0,0, ,103.1,895,-92.1,-14,8.2,-34.8,25,463.898,737.306,56.1694,27.1318,-3.631,-77.1227,
2026_07_06_16_26_04.255,3.869,48.1,0,0.773,0,0,0,0, ,0,0,0,0,0, ,32.8,847.1,-75,-17.6,7,-37.3,25,439.77,745.456,47.6553,24.5156,-2.94661,-74.6198,
2026_07_06_16_26_04.277,3.869,47.9,0,0.774,0,0,0,0, ,0,0,0,0,0, ,-2.5,854.9,-107.1,-0.2,-1.4,-63.7,25,413.895,751.887,39.2029,22.4793,-2.59643,-73.15,
2026_07_06_16_26_04.301,3.869,48.1,0,0.773,0,0,0,0, ,0,0,0,0,0, ,-41.1,1103.7,6.9,-18.7,-0.6,-73.2,25,387.345,765.745,33.761,20.5336,-2.49915,-72.8636,
2026_07_06_16_26_04.326,3.869,48.1,0,0.771,0,0,0,0, ,0,0,0,0,0, ,186.1,1993.5,50.1,-23,17.6,-5.1,25,368.159,813.45,33.4404,18.0118,-1.82888,-70.8092,
2026_07_06_16_26_04.334,3.869,47.9,0,0.773,0,0,0,0, ,0,0,0,0,0, ,-218.7,758.3,-139.6,14.9,-17,2.2,25,344.731,847.725,28.6757,16.6674,-1.69916,-66.5826,
2026_07_06_16_26_04.358,3.869,47.9,0,0.773,0,0,0,0, ,0,0,0,0,0, ,176.7,711.5,5.4,-19.5,3.7,-41.2,25,322.444,840.849,22.8394,15.5116,-2.00085,-63.7135,
2026_07_06_16_26_04.372,3.869,47.9,0,0.772,0,0,0,0, ,0,0,0,0,0, ,95.3,1010.7,-67.2,-11,24.2,-37.2,25,311.083,842.083,19.5646,13.6371,-1.02884,-62.2197,
2026_07_06_16_26_04.396,3.869,48,0,0.772,0,0,0,0, ,0,0,0,0,0, ,-49.8,1191,2.5,0.3,14.7,-8.8,25,293.512,857.852,16.4011,12.48,0.219086,-59.8298,
2026_07_06_16_26_04.413,3.869,47.9,0,0.772,0,0,0,0, ,0,0,0,0,0, ,-24,1001.7,-84.2,18.2,7.8,-20.6,25,273.378,872.385,12.9123,12.2832,0.891283,-57.0797,
2026_07_06_16_26_04.437,3.869,47.9,0,0.773,0,0,0,0, ,0,0,0,0,0, ,83.8,973,-6.3,10,4.5,-25,25,258.541,879.391,9.36807,12.3939,1.21174,-54.9907,
2026_07_06_16_26_04.452,3.869,47.9,0,0.772,0,0,0,0, ,0,0,0,0,0, ,-6.8,1025.1,-8,-6.1,9.7,-8.9,25,245.132,886.683,8.3615,11.7575,1.57055,-52.6726,
2026_07_06_16_26_04.475,3.869,48.1,0,0.774,0,0,0,0, ,0,0,0,0,0, ,-37.1,1007.5,-38.8,-6.3,3.1,-7.6,25,228.857,894.581,6.42603,10.6632,1.86485,-49.9656,
2026_07_06_16_26_04.491,3.869,47.8,0,0.773,0,0,0,0, ,0,0,0,0,0, ,-66.1,989.7,-37.1,6.7,-5.1,-12.7,25,211.767,900.92,3.72187,10.0256,1.69027,-47.5394,
2026_07_06_16_26_04.515,3.869,47.9,0,0.773,0,0,0,0, ,0,0,0,0,0, ,-13.3,1001,-9.8,0.4,-8.9,-9.3,25,196.443,906.674,2.06608,9.63101,1.16071,-45.3128,
2026_07_06_16_26_04.532,3.869,47.9,0,0.773,0,0,0,0, ,0,0,0,0,0, ,5.7,987,-33.8,-2.9,-4.6,-1.7,25,184.241,911.996,0.611741,8.96795,0.678648,-42.8867,
2026_07_06_16_26_04.555,3.869,47.9,0,0.774,0,0,0,0, ,0,0,0,0,0, ,12.3,975.5,-73.2,-0.9,1.3,-0.3,25,173.562,916.216,-2.68569,8.30568,0.536746,-40.3342,
2026_07_06_16_26_04.571,3.869,47.9,0,0.774,0,0,0,0, ,0,0,0,0,0, ,-28.3,996.5,-52.1,-0.9,2.2,-4.2,25,162.498,920.468,-6.33977,7.74471,0.610678,-38.0134,
2026_07_06_16_26_04.594,3.869,47.9,0,0.773,0,0,0,0, ,0,0,0,0,0, ,-65.6,1008.6,-25,-4.5,-6.2,-1.4,25,149.735,925.47,-8.30258,7.10823,0.45159,-35.8676,
2026_07_06_16_26_04.611,3.869,47.8,0,0.773,0,0,0,0, ,0,0,0,0,0, ,-31.9,1000.6,-26.9,3.2,-11,-2.4,25,137.639,930.292,-9.37797,6.63547,-0.0999909,-33.7977,
2026_07_06_16_26_04.635,3.869,47.9,0,0.772,0,0,0,0, ,0,0,0,0,0, ,41.2,985.5,-37.7,3,-5.7,-3.4,25,129.535,934.117,-10.7748,6.42002,-0.602726,-31.9149,
2026_07_06_16_26_04.654,3.869,47.9,0,0.772,0,0,0,0, ,0,0,0,0,0, ,43,1003.6,-46.8,3.6,4,2,25,124.207,937.799,-12.6928,6.2299,-0.617794,-30.0127,
2026_07_06_16_26_04.677,3.869,47.9,0,0.773,0,0,0,0, ,0,0,0,0,0, ,-33.6,992.9,-46.7,-2.6,5.1,-2.9,25,116.925,941.483,-14.7682,5.88073,-0.302882,-28.2113,
2026_07_06_16_26_04.690,3.869,47.9,0,0.772,0,0,0,0, ,0,0,0,0,0, ,-70.9,996.7,-25.3,-5.7,-2.6,-4.7,25,106.616,944.732,-16.062,5.26948,-0.208253,-26.7237,
2026_07_06_16_26_04.715,3.869,47.9,0,0.774,0,0,0,0, ,0,0,0,0,0, ,-21.6,987.9,-15.6,-2.2,-6.6,0.5,25,97.3005,947.631,-16.3294,4.70767,-0.475875,-25.2232,
2026_07_06_16_26_04.729,3.869,47.9,0,0.771,0,0,0,0, ,0,0,0,0,0, ,22.2,985.1,-44.6,-0.6,-2.9,4.1,25,91.3896,949.999,-17.1685,4.33549,-0.736329,-23.546,
2026_07_06_16_26_04.752,3.869,47.9,0,0.773,0,0,0,0, ,0,0,0,0,0, ,32.2,1012.2,-34.9,-0.9,2.5,3.4,25,87.478,952.964,-18.5446,4.02559,-0.703647,-21.8826,
2026_07_06_16_26_04.769,3.869,47.9,0,0.771,0,0,0,0, ,0,0,0,0,0, ,-15.1,1012.3,-31.4,-7.4,6.1,2.7,25,82.6683,956.577,-19.4346,3.52739,-0.398737,-20.3633,
2026_07_06_16_26_04.793,3.869,47.9,0,0.773,0,0,0,0, ,0,0,0,0,0, ,-43.9,1000.4,-54.9,-7,2.2,-2.3,25,75.8331,959.61,-20.8798,2.87369,-0.121549,-19.1102,
2026_07_06_16_26_04.809,3.869,48,0,0.773,0,0,0,0, ,0,0,0,0,0, ,-27.8,981.3,-34.3,-2.6,-4.1,-4.4,25,69.0274,961.513,-22.3252,2.40607,-0.172032,-18.1498,
2026_07_06_16_26_04.832,3.869,47.8,0,0.773,0,0,0,0, ,0,0,0,0,0, ,18.3,989,-15.6,-1.2,-2.9,2.3,25,64.5316,962.954,-22.4852,2.14367,-0.37483,-17.1078,
2026_07_06_16_26_04.848,3.869,47.8,0,0.772,0,0,0,0, ,0,0,0,0,0, ,34.4,992.6,-8.1,-3,2.9,7.4,25,62.2049,964.651,-21.8371,1.88507,-0.351989,-15.7698,
2026_07_06_16_26_04.873,3.869,47.8,0,0.772,0,0,0,0, ,0,0,0,0,0, ,23.8,991,-25.2,-5.9,9.2,10.6,25,60.1876,966.305,-21.521,1.49903,0.0381321,-14.2604,
2026_07_06_16_26_04.888,3.869,47.8,0,0.773,0,0,0,0, ,0,0,0,0,0, ,-3.5,1003.4,-36.7,-3.4,9.3,12.4,25,57.1384,968.188,-22.0956,1.12432,0.59948,-12.6906,
2026_07_06_16_26_04.912,3.869,47.9,0,0.772,0,0,0,0, ,0,0,0,0,0, ,7.4,1012.5,-21.8,-4.3,6.5,14.5,25,53.7754,970.611,-22.5315,0.821201,1.04436,-11.0976,
2026_07_06_16_26_04.926,3.869,47.8,0,0.773,0,0,0,0, ,0,0,0,0,0, ,31.2,1013.4,-12.2,-9.5,5.7,23.8,25,51.6745,973.191,-22.1945,0.35069,1.35243,-9.25443,
2026_07_06_16_26_04.951,3.869,47.8,0,0.772,0,0,0,0, ,0,0,0,0,0, ,47.4,1015.7,-3.9,-12.4,4.7,32.7,25,50.9204,975.711,-21.3325,-0.337946,1.58689,-6.969,
2026_07_06_16_26_04.967,3.869,47.8,0,0.773,0,0,0,0, ,0,0,0,0,0, ,67.3,994.8,2.1,-15.1,4.5,54.7,25,51.3122,977.511,-20.0874,-1.15524,1.77051,-3.88136,
2026_07_06_16_26_04.991,3.869,47.8,0,0.77,0,0,0,0, ,0,0,0,0,0, ,136.8,980.5,-57.8,-13.9,9.3,58.5,25,54.4041,978.129,-20.5605,-1.96844,2.08308,-0.19578,
2026_07_06_16_26_05.008,3.869,47.9,0,0.772,0,0,0,0, ,0,0,0,0,0, ,232.5,1041.8,-48.5,-1.9,9,57.1,25,62.3409,980.141,-22.5464,-2.32989,2.51372,3.33834,
2026_07_06_16_26_05.031,3.869,47.9,0,0.773,0,0,0,0, ,0,0,0,0,0, ,313.1,1163.5,-21.9,-13.4,16.8,76.4,25,75.1658,987.607,-23.3175,-2.65409,3.14664,7.20249,
2026_07_06_16_26_05.047,3.869,47.7,0,0.773,0,0,0,0, ,0,0,0,0,0, ,379.8,1323.2,118.2,-56.2,32.3,117.8,25,91.6972,1003.19,-18.9624,-4.61298,4.45091,12.6806,
2026_07_06_16_26_05.070,3.869,47.8,0,0.773,0,0,0,0, ,0,0,0,0,0, ,426.6,1244,128.7,-127.9,89,136.5,25,110.679,1020.28,-10.2842,-9.94117,7.87554,19.6561,
2026_07_06_16_26_05.086,3.869,47.8,0,0.772,0,0,0,0, ,0,0,0,0,0, ,422.4,1233.8,126.4,-164.7,131.7,144.5,25,129.803,1033.6,-1.88489,-18.2505,14.1201,27.02,
2026_07_06_16_26_05.112,3.869,47.8,0,0.772,0,0,0,0, ,0,0,0,0,0, ,356.9,1106.3,110.7,-199.6,140.9,150.8,25,145.637,1041.92,5.45411,-28.2382,21.5654,34.3709,
2026_07_06_16_26_05.125,3.869,47.8,0,0.773,0,0,0,0, ,0,0,0,0,0, ,354.9,1006.1,164.3,-198,138.2,155.2,25,158.45,1042.79,13.5007,-38.6318,28.7551,41.5999,
2026_07_06_16_26_05.151,3.869,47.8,0,0.772,0,0,0,0, ,0,0,0,0,0, ,345.2,937.8,286.1,-179.4,129.6,162.2,25,170.126,1038.47,26.4011,-47.7766,35.1624,48.7357,
2026_07_06_16_26_05.164,3.869,47.7,0,0.772,0,0,0,0, ,0,0,0,0,0, ,268.7,769.1,343,-165,128.5,169.5,25,178.463,1027.19,43.9602,-55.3586,40.8836,55.8723,
2026_07_06_16_26_05.190,3.869,47.8,0,0.773,0,0,0,0, ,0,0,0,0,0, ,311.8,713.5,341.4,-128.7,117.8,186.6,25,185.275,1009.77,62.1341,-60.9339,45.8967,63.3175,
2026_07_06_16_26_05.204,3.869,47.8,0,0.772,0,0,0,0, ,0,0,0,0,0, ,304.1,655.3,409.7,-129.8,78.8,201.5,25,192.751,989.946,81.2329,-65.0969,49.0901,71.284,
2026_07_06_16_26_05.230,3.869,47.8,0,0.772,0,0,0,0, ,0,0,0,0,0, ,363.6,614.8,480.7,-108.2,56.5,206,25,201.349,968.319,103.412,-68.3816,50.2211,79.3562,
2026_07_06_16_26_05.244,3.869,47.8,0,0.772,0,0,0,0, ,0,0,0,0,0, ,381.4,591,510.6,-106.9,35.5,188,25,211.779,946.051,127.314,-70.7684,49.9638,86.5251,
2026_07_06_16_26_05.269,3.869,47.8,0,0.771,0,0,0,0, ,0,0,0,0,0, ,393.1,588.1,507.9,-147.2,12.4,130.9,25,222.471,924.327,150.588,-74.1981,48.3786,90.9689,
2026_07_06_16_26_05.283,3.869,47.8,0,0.773,0,0,0,0, ,0,0,0,0,0, ,300.4,488.5,508.6,-32.3,-11.5,109.5,25,230.045,900.804,172.383,-75.1458,45.458,92.7502,
2026_07_06_16_26_05.309,3.869,47.7,0,0.772,0,0,0,0, ,0,0,0,0,0, ,525.8,423.9,560.4,-14.1,-55.7,101.2,25,241.2,873.711,194.45,-71.9803,40.6404,93.518,
2026_07_06_16_26_05.323,3.869,47.7,0,0.773,0,0,0,0, ,0,0,0,0,0, ,609.6,383.5,567.2,-7.2,-67.6,120,25,261.096,845.069,216.957,-68.243,34.4071,94.5589,
2026_07_06_16_26_05.347,3.869,47.8,0,0.773,0,0,0,0, ,0,0,0,0,0, ,513,394,545.1,5.8,-86.2,122.2,25,279.389,817.262,237.627,-64.1271,27.6243,96.1763,
2026_07_06_16_26_05.363,3.869,47.7,0,0.773,0,0,0,0, ,0,0,0,0,0, ,510.1,352.6,483.3,10.6,-107.5,114.9,25,293.537,790.208,254.48,-59.7197,20.0391,97.5397,
2026_07_06_16_26_05.387,3.869,47.7,0,0.773,0,0,0,0, ,0,0,0,0,0, ,697.1,353.6,467.1,12.4,-126.1,104.3,25,312.431,763.572,267.93,-55.3797,11.7005,98.2746,
2026_07_06_16_26_05.401,3.869,47.7,0,0.772,0,0,0,0, ,0,0,0,0,0, ,1002.1,339.2,508,24.3,-140.3,110.8,25,345.165,738.151,281.314,-50.8868,2.87063,98.8398,
2026_07_06_16_26_05.428,3.869,47.8,0,0.772,0,0,0,0, ,0,0,0,0,0, ,846,319.9,485.4,19.4,-135,127.2,25,380.441,713.252,294.439,-46.4544,-5.69235,100.068,
2026_07_06_16_26_05.441,3.869,47.7,0,0.772,0,0,0,0, ,0,0,0,0,0, ,762.5,349.7,411.3,21.5,-143.7,117.5,25,406.267,690.19,303.818,-42.3774,-13.8371,101.426,
2026_07_06_16_26_05.467,3.869,47.6,0,0.771,0,0,0,0, ,0,0,0,0,0, ,797.3,282.9,376.5,24.7,-153.1,98.4,25,429.035,667.406,309.307,-38.3874,-22.037,101.824,
2026_07_06_16_26_05.481,3.869,47.7,0,0.772,0,0,0,0, ,0,0,0,0,0, ,832.3,216.3,309.3,38.4,-145.6,92.1,25,452.542,641.946,311.354,-34.1256,-29.7952,101.423,
2026_07_06_16_26_05.506,3.869,47.8,0,0.772,0,0,0,0, ,0,0,0,0,0, ,927,150.5,228.2,64.4,-159.2,104.4,25,478.569,614.003,308.758,-28.9139,-37.2664,101.23,
2026_07_06_16_26_05.521,3.869,47.6,0,0.771,0,0,0,0, ,0,0,0,0,0, ,985.4,146.1,215.3,100.6,-162.7,129.7,25,507.675,585.624,303.456,-22.1246,-44.8034,102.194,
2026_07_06_16_26_05.546,3.869,47.7,0,0.773,0,0,0,0, ,0,0,0,0,0, ,918,173.5,156.6,131.5,-157.8,133.8,25,534.733,559.676,296.295,-13.7046,-51.8384,103.995,
2026_07_06_16_26_05.560,3.869,47.8,0,0.773,0,0,0,0, ,0,0,0,0,0, ,1027.9,89.7,188.5,112.4,-115.6,121,25,561.437,533.59,288.755,-5.43813,-57.0096,105.421,
2026_07_06_16_26_05.586,3.869,47.7,0,0.771,0,0,0,0, ,0,0,0,0,0, ,985.8,75.8,137.8,95.1,-90.5,113,25,588.579,506.117,281.101,1.21552,-59.8152,106.127,
2026_07_06_16_26_05.600,3.869,47.7,0,0.773,0,0,0,0, ,0,0,0,0,0, ,1013.3,30.7,83.6,47.9,-50.4,90.1,25,613.622,478.52,270.717,5.49848,-60.4633,105.848,
2026_07_06_16_26_05.625,3.869,47.7,0,0.772,0,0,0,0, ,0,0,0,0,0, ,1019.8,-36.3,38.2,10.9,-21.6,81.9,25,638.176,449.19,257.931,6.95498,-58.9726,104.638,
2026_07_06_16_26_05.640,3.869,47.6,0,0.771,0,0,0,0, ,0,0,0,0,0, ,932.7,7.9,-32.1,-42,-7.7,62.8,25,658.777,420.952,242.399,5.58358,-56.2717,102.671,
2026_07_06_16_26_05.665,3.869,47.7,0,0.772,0,0,0,0, ,0,0,0,0,0, ,934.6,35.6,-12.6,-30.5,-9.5,35.2,25,675.527,396.626,226.266,3.03435,-53.3667,99.4002,
2026_07_06_16_26_05.679,3.869,47.7,0,0.773,0,0,0,0, ,0,0,0,0,0, ,935.9,82.1,22.4,-17.1,-10.9,3,25,691.354,376.042,212.777,1.39913,-50.7362,94.5069,
2026_07_06_16_26_05.705,3.869,47.8,0,0.772,0,0,0,0, ,0,0,0,0,0, ,966.6,6.2,72,-36.6,6.8,-28.7,25,707.192,355.818,202.687,-0.322302,-47.7694,87.9648,
2026_07_06_16_26_05.718,3.869,47.7,0,0.773,0,0,0,0, ,0,0,0,0,0, ,1012.6,-42.6,13.4,-44.5,20.3,-34.9,25,724.401,333.026,192.938,-2.77368,-44.0327,80.6667,
2026_07_06_16_26_05.744,3.869,47.7,0,0.772,0,0,0,0, ,0,0,0,0,0, ,1033,-63.7,4.3,-49.1,23.9,-31.6,25,742.585,309.493,181.72,-5.45653,-40.0028,73.7249,
2026_07_06_16_26_05.758,3.869,47.6,0,0.771,0,0,0,0, ,0,0,0,0,0, ,981,-63.5,9.1,-47.8,22.9,-25.2,25,758.697,286.758,171.054,-8.07645,-36.1392,67.5016,
2026_07_06_16_26_05.783,3.869,47.6,0,0.772,0,0,0,0, ,0,0,0,0,0, ,976.9,-43.8,50,-50.6,16.6,-0.6,25,772.119,266.014,162.432,-10.5824,-32.7334,62.6022,
2026_07_06_16_26_05.797,3.869,47.6,0,0.773,0,0,0,0, ,0,0,0,0,0, ,1014.1,19.7,43.5,-55.3,-1.1,20.1,25,785.731,249.07,155.382,-13.1642,-30.2665,59.3815,
2026_07_06_16_26_05.825,3.869,47.6,0,0.772,0,0,0,0, ,0,0,0,0,0, ,1048.9,-52,8.5,-49.3,-10.3,27.9,25,800.708,232.908,147.498,-15.549,-28.7694,57.2254,
2026_07_06_16_26_05.838,3.869,47.6,0,0.774,0,0,0,0, ,0,0,0,0,0, ,1051.3,-16.6,11.3,-33.1,-15.8,25.8,25,815.905,216.625,139.113,-17.1121,-27.8115,55.3744,
2026_07_06_16_26_05.865,3.869,47.7,0,0.772,0,0,0,0, ,0,0,0,0,0, ,1033.4,-76,3,-25,-4.5,15.3,25,829.704,200.603,131.072,-17.8396,-26.7353,53.2523,
2026_07_06_16_26_05.876,3.869,47.6,0,0.772,0,0,0,0, ,0,0,0,0,0, ,1026.8,-86,-45.2,-18.7,5.6,9.4,25,841.916,183.443,121.799,-18.084,-25.0726,50.7598,
2026_07_06_16_26_05.903,3.869,47.7,0,0.773,0,0,0,0, ,0,0,0,0,0, ,1041.1,-76.6,10.4,-15.3,4.7,10.7,25,853.618,167.31,113.316,-18.0179,-23.2309,48.2791,
2026_07_06_16_26_05.916,3.869,47.7,0,0.773,0,0,0,0, ,0,0,0,0,0, ,1006.7,-7,139.6,-22.9,3.7,20.4,25,863.994,154.567,110.981,-18.0839,-21.5593,46.2846,
2026_07_06_16_26_05.943,3.869,47.6,0,0.772,0,0,0,0, ,0,0,0,0,0, ,885,-3.5,27,-16.6,2,14.5,25,868.982,144.829,109.295,-18.1854,-20.0719,44.5275,
2026_07_06_16_26_05.956,3.869,47.8,0,0.772,0,0,0,0, ,0,0,0,0,0, ,924.4,-69.8,24.1,-16.5,0,3.3,25,871.159,133.77,104.191,-18.0857,-18.7878,42.3565,
2026_07_06_16_26_05.982,3.869,47.6,0,0.772,0,0,0,0, ,0,0,0,0,0, ,942.5,-92.4,-5.4,-12.5,-3.4,-2,25,874.955,120.676,98.4119,-17.8672,-17.7465,39.815,
2026_07_06_16_26_05.995,3.869,47.5,0,0.773,0,0,0,0, ,0,0,0,0,0, ,1005.2,-92,4.6,-10,-4.1,-0.3,25,880.981,107.704,92.3906,-17.464,-16.8936,37.3187,
2026_07_06_16_26_06.021,3.869,47.6,0,0.773,0,0,0,0, ,0,0,0,0,0, ,1038.6,-82.1,28.1,-10.4,0,3,25,889.569,95.8361,87.7569,-17.0213,-15.9891,35.1269,
2026_07_06_16_26_06.035,3.869,47.7,0,0.774,0,0,0,0, ,0,0,0,0,0, ,1022.3,-95.9,41.3,-11,6,6.4,25,898.153,84.5727,84.5237,-16.6361,-14.8319,33.2727,
2026_07_06_16_26_06.060,3.869,47.6,0,0.772,0,0,0,0, ,0,0,0,0,0, ,893.5,-74.9,1.3,-3.1,16.8,0,25,901.794,74.215,80.671,-16.052,-13.2334,31.4402,
2026_07_06_16_26_06.074,3.869,47.7,0,0.771,0,0,0,0, ,0,0,0,0,0, ,940,-68.2,12.4,3.5,16.6,-17.2,25,902.706,65.3324,76.1726,-15.0616,-11.4094,29.0002,
2026_07_06_16_26_06.100,3.869,47.7,0,0.772,0,0,0,0, ,0,0,0,0,0, ,1538.9,-172.3,54.9,5.6,13.3,-24.1,25,923.226,54.0235,73.5813,-13.8665,-9.80309,25.9747,
2026_07_06_16_26_06.114,3.869,47.7,0,0.773,0,0,0,0, ,0,0,0,0,0, ,1001.3,-74.5,-12.5,-2.1,12.2,-7.5,25,944.364,43.2118,70.3893,-12.9149,-8.42876,23.429,
2026_07_06_16_26_06.140,3.869,47.5,0,0.773,0,0,0,0, ,0,0,0,0,0, ,988.1,-67,53.4,10.4,18.5,-7.3,25,947.431,36.2672,67.3462,-11.875,-6.97974,21.5504,
2026_07_06_16_26_06.154,3.869,47.7,0,0.773,0,0,0,0, ,0,0,0,0,0, ,985.7,-51.6,76.9,9,16.9,-5.9,25,949.836,30.4436,67.2123,-10.5603,-5.47582,19.835,
2026_07_06_16_26_06.180,3.869,47.7,0,0.772,0,0,0,0, ,0,0,0,0,0, ,986.4,-72.1,86.4,1.7,14.9,-6.9,25,952.043,24.8195,68.0921,-9.59076,-4.17323,18.2363,
2026_07_06_16_26_06.193,3.869,47.7,0,0.772,0,0,0,0, ,0,0,0,0,0, ,982.5,-62.2,91.7,3,13.9,-6.5,25,954.018,19.2151,69.3693,-8.86312,-3.04142,16.7167,
2026_07_06_16_26_06.219,3.869,47.6,0,0.771,0,0,0,0, ,0,0,0,0,0, ,982.7,-53.9,105.1,4.2,10.9,-5.6,25,955.759,14.5067,71.1383,-8.10365,-2.10046,15.3294,
2026_07_06_16_26_06.232,3.869,47.6,0,0.773,0,0,0,0, ,0,0,0,0,0, ,982.2,-40.1,118.5,4.7,8.4,-4.4,25,957.386,10.7587,73.6161,-7.33866,-1.38442,14.0905,
2026_07_06_16_26_06.260,3.869,47.5,0,0.772,0,0,0,0, ,0,0,0,0,0, ,976,-36.3,143.1,10.4,-1.6,1.5,25,958.709,7.77524,77.1008,-6.43138,-1.09287,13.1435,
2026_07_06_16_26_06.274,3.869,47.7,0,0.772,0,0,0,0, ,0,0,0,0,0, ,986,-57.8,85.9,-8.1,-8.2,0.4,25,960.067,4.43433,79.3798,-5.96939,-1.32486,12.4005,
2026_07_06_16_26_06.300,3.869,47.6,0,0.772,0,0,0,0, ,0,0,0,0,0, ,980.5,-63.4,102.1,-1,-9.1,2.5,25,961.48,0.471298,80.2707,-5.8829,-1.77124,11.7332,
2026_07_06_16_26_06.311,3.869,47.5,0,0.773,0,0,0,0, ,0,0,0,0,0, ,993.7,-37.1,45.2,-4.4,-11.2,5,25,963.041,-2.61953,79.8673,-5.68894,-2.28182,11.2467,
2026_07_06_16_26_06.339,3.869,47.6,0,0.773,0,0,0,0, ,0,0,0,0,0, ,984.6,-66.8,76.5,-4.1,-8.1,7.9,25,964.632,-5.62561,78.7084,-5.60125,-2.73082,10.9544,
2026_07_06_16_26_06.351,3.869,47.7,0,0.771,0,0,0,0, ,0,0,0,0,0, ,983.1,-2.4,120.7,3.6,-6.2,14.5,25,965.803,-7.39123,79.9205,-5.27516,-3.00011,10.9694,
2026_07_06_16_26_06.378,3.869,47.7,0,0.772,0,0,0,0, ,0,0,0,0,0, ,987.4,-72.9,67.6,-0.8,-10.5,17.9,25,966.988,-9.23513,80.7876,-4.86839,-3.32612,11.2881,
2026_07_06_16_26_06.390,3.869,47.6,0,0.772,0,0,0,0, ,0,0,0,0,0, ,972.9,-104.9,125.9,-9.5,-13.4,28.3,25,967.79,-14.0897,81.7604,-4.88555,-3.85164,12.0079,
2026_07_06_16_26_06.418,3.869,47.6,0,0.773,0,0,0,0, ,0,0,0,0,0, ,1009.2,-77,-88.2,-34.7,-21.8,9.3,25,969.208,-18.7734,77.9268,-5.93456,-4.68943,12.4218,
2026_07_06_16_26_06.430,3.869,47.6,0,0.772,0,0,0,0, ,0,0,0,0,0, ,990.9,-121.7,-9.5,-6.8,-4,8,25,971.087,-23.6835,70.2013,-6.83738,-5.18976,12.192,
2026_07_06_16_26_06.456,3.869,47.6,0,0.772,0,0,0,0, ,0,0,0,0,0, ,982.9,-140.3,34.7,10.9,5.1,4.5,25,972.051,-30.2231,66.6912,-6.2958,-4.83999,11.8299,
2026_07_06_16_26_06.470,3.869,47.5,0,0.772,0,0,0,0, ,0,0,0,0,0, ,983.5,-122.5,49,15.3,7.3,-1.2,25,972.73,-36.3886,65.1775,-5.11387,-4.16725,11.2095,
2026_07_06_16_26_06.497,3.869,47.6,0,0.771,0,0,0,0, ,0,0,0,0,0, ,982.9,-102,63.1,11.5,6.5,-2,25,973.368,-41.0114,64.6213,-3.98568,-3.49283,10.429,
2026_07_06_16_26_06.509,3.869,47.5,0,0.772,0,0,0,0, ,0,0,0,0,0, ,982.6,-87.6,79.8,-0.7,7.2,-3.1,25,973.94,-44.2891,65.0374,-3.41374,-2.86257,9.63805,
2026_07_06_16_26_06.536,3.869,47.5,0,0.772,0,0,0,0, ,0,0,0,0,0, ,979.8,-58.7,120.8,0.3,-1.6,3.8,25,974.382,-46.0478,67.1862,-3.2179,-2.51751,9.07206,
2026_07_06_16_26_06.549,3.869,47.5,0,0.772,0,0,0,0, ,0,0,0,0,0, ,983.7,-88.6,78.7,2,-8.9,8.5,25,974.831,-47.7298,69.1706,-2.95173,-2.68402,8.894,
2026_07_06_16_26_06.577,3.869,47.5,0,0.771,0,0,0,0, ,0,0,0,0,0, ,983.6,-92.7,62.1,6.6,-11.4,12.2,25,975.369,-50.3453,69.2455,-2.50983,-3.13898,8.98272,
2026_07_06_16_26_06.589,3.869,47.6,0,0.772,0,0,0,0, ,0,0,0,0,0, ,977.9,-155.8,-12.8,38.2,-17.3,20.2,25,975.697,-54.8489,66.5279,-0.991889,-3.82215,9.42253,
2026_07_06_16_26_06.615,3.869,47.4,0,0.772,0,0,0,0, ,0,0,0,0,0, ,1098.1,-164.6,-59.9,59.1,-63.8,40,25,979.493,-61.2687,60.2588,2.03316,-6.06025,10.6826,
2026_07_06_16_26_06.628,3.869,47.5,0,0.772,0,0,0,0, ,0,0,0,0,0, ,1240.7,-214.8,34.1,50.8,-84.1,63,25,991.066,-69.095,55.8007,5.25778,-10.1973,13.1699,
2026_07_06_16_26_06.655,3.869,47.4,0,0.772,0,0,0,0, ,0,0,0,0,0, ,1282.2,-195.9,-1.5,62.8,-98.6,102,25,1007.54,-77.398,53.3936,8.39864,-15.1425,17.3947,
2026_07_06_16_26_06.667,3.869,47.5,0,0.773,0,0,0,0, ,0,0,0,0,0, ,1241.2,-200.3,-59.8,60.5,-94.3,105.4,25,1023.03,-84.7533,48.2722,11.6436,-20.0972,22.6539,
2026_07_06_16_26_06.695,3.869,47.5,0,0.773,0,0,0,0, ,0,0,0,0,0, ,1147.5,-232.7,-101,56.4,-66.9,91.1,25,1033.47,-92.7816,40.4313,14.4959,-23.7841,27.2605,
2026_07_06_16_26_06.707,3.869,47.6,0,0.772,0,0,0,0, ,0,0,0,0,0, ,1178.4,-275.8,-55.9,52.6,-24.6,75.2,25,1041.36,-102.621,33.1869,16.9337,-25.1226,30.6663,
2026_07_06_16_26_06.734,3.869,47.4,0,0.772,0,0,0,0, ,0,0,0,0,0, ,1187.5,-312.7,-75.1,42.6,6,78.4,25,1049.99,-114.298,27.1732,18.8024,-24.1584,33.4776,
2026_07_06_16_26_06.747,3.869,47.5,0,0.771,0,0,0,0, ,0,0,0,0,0, ,1071.8,-319.3,-62.7,40.1,15.5,83.8,25,1054.84,-126.59,21.3187,20.1764,-22.0312,36.3796,
2026_07_06_16_26_06.774,3.869,47.5,0,0.773,0,0,0,0, ,0,0,0,0,0, ,920,-352.6,-94.4,45.6,26.7,87.2,25,1051.25,-139.348,15.233,21.5581,-19.4029,39.3728,
2026_07_06_16_26_06.786,3.869,47.4,0,0.773,0,0,0,0, ,0,0,0,0,0, ,870.7,-329.9,-45,24.1,43.8,71.2,25,1041.75,-151.651,10.0574,22.368,-16.0725,41.7998,
2026_07_06_16_26_06.814,3.869,47.4,0,0.773,0,0,0,0, ,0,0,0,0,0, ,785.2,-268.7,-10.4,24.2,41.7,63.7,25,1028.72,-160.648,7.75654,22.4766,-12.488,43.3629,
2026_07_06_16_26_06.826,3.869,47.5,0,0.772,0,0,0,0, ,0,0,0,0,0, ,790.8,-324.4,-35.1,43.3,19.7,71.6,25,1014.05,-168.93,5.89755,23.1636,-9.85623,44.8429,
2026_07_06_16_26_06.853,3.869,47.4,0,0.771,0,0,0,0, ,0,0,0,0,0, ,970.4,-419,-39.1,59.9,-18.7,105.2,25,1005.92,-181.286,3.27739,24.8964,-9.22515,47.4971,
2026_07_06_16_26_06.865,3.869,47.5,0,0.772,0,0,0,0, ,0,0,0,0,0, ,920.7,-457.3,-46.7,54.8,-34.9,122.3,25,1002.24,-196.939,0.463451,26.8741,-10.2961,51.5344,
2026_07_06_16_26_06.893,3.869,47.5,0,0.772,0,0,0,0, ,0,0,0,0,0, ,844.4,-519.1,-52.2,66.4,-56.4,145.1,25,994.948,-214.688,-2.57815,28.9292,-12.4505,56.5414,
2026_07_06_16_26_06.905,3.869,47.5,0,0.772,0,0,0,0, ,0,0,0,0,0, ,956.5,-427.6,311.8,12.8,-14.7,117.1,25,989.19,-230.45,5.48864,29.5795,-13.8581,61.0848,
2026_07_06_16_26_06.932,3.869,47.4,0,0.773,0,0,0,0, ,0,0,0,0,0, ,848.7,-623.6,-16.6,32.9,41.8,102.2,25,983.913,-248.435,14.1486,29.1694,-12.1879,64.0442,
2026_07_06_16_26_06.945,3.869,47.5,0,0.772,0,0,0,0, ,0,0,0,0,0, ,779.9,-578.7,26,43.1,50.4,106.2,25,973.577,-269.929,13.5728,29.7075,-8.63601,66.4912,
2026_07_06_16_26_06.972,3.869,47.5,0,0.773,0,0,0,0, ,0,0,0,0,0, ,873.7,-605.7,69.9,65.3,34.3,125.5,25,964.633,-289.567,15.6676,31.2,-5.52905,69.499,
2026_07_06_16_26_06.985,3.869,47.5,0,0.775,0,0,0,0, ,0,0,0,0,0, ,866.6,-668.9,111.9,45.1,24.4,148.2,25,958.876,-310.757,20.2521,32.6625,-3.40361,73.6032,
2026_07_06_16_26_07.013,3.869,47.5,0,0.771,0,0,0,0, ,0,0,0,0,0, ,621.2,-616.5,184.3,15.6,0.1,153.6,25,945.775,-330.985,28.0428,32.5216,-2.44972,78.3135,
2026_07_06_16_26_07.024,3.869,47.5,0,0.772,0,0,0,0, ,0,0,0,0,0, ,654.5,-694.7,20.9,17.2,-38.5,132.3,25,927.011,-350.766,32.5862,31.5392,-3.47044,82.2523,
2026_07_06_16_26_07.051,3.869,47.5,0,0.772,0,0,0,0, ,0,0,0,0,0, ,777.7,-765.7,153.4,32.4,-58.8,151.1,25,914.159,-373.888,35.9112,31.1285,-6.22357,85.8749,
2026_07_06_16_26_07.064,3.869,47.4,0,0.772,0,0,0,0, ,0,0,0,0,0, ,649.1,-848.7,154.4,58.7,-33.6,172.6,25,901.925,-400.293,43.1011,32.0073,-8.65963,90.5046,
2026_07_06_16_26_07.091,3.869,47.4,0,0.772,0,0,0,0, ,0,0,0,0,0, ,602,-841.3,166.1,67.2,-2,177.5,25,885.084,-427.392,50.2399,33.8929,-9.21662,95.6566,
2026_07_06_16_26_07.102,3.869,47.4,0,0.772,0,0,0,0, ,0,0,0,0,0, ,515.6,-762,152.8,65.4,4.7,173,25,865.201,-450.199,56.8949,35.8677,-8.57272,100.507,
2026_07_06_16_26_07.130,3.869,47.5,0,0.772,0,0,0,0, ,0,0,0,0,0, ,453.3,-793.2,168.5,63.6,4.5,162.5,25,841.999,-470.15,63.2174,37.6125,-7.77001,104.604,
2026_07_06_16_26_07.142,3.869,47.4,0,0.772,0,0,0,0, ,0,0,0,0,0, ,377.5,-883.3,138.4,35.4,5.1,143.8,25,816.003,-492.581,68.716,38.3369,-7.00402,107.563,
2026_07_06_16_26_07.170,3.869,47.4,0,0.771,0,0,0,0, ,0,0,0,0,0, ,337.6,-957.1,69.9,33.7,2.8,142.1,25,788.066,-518.639,70.8752,38.1061,-6.33651,109.719,
2026_07_06_16_26_07.189,3.869,47.4,0,0.771,0,0,0,0, ,0,0,0,0,0, ,209.7,-869.5,60.6,33.7,-14.4,132.6,25,756.719,-542.688,70.5324,37.8376,-6.30382,111.403,
2026_07_06_16_26_07.217,3.869,47.4,0,0.772,0,0,0,0, ,0,0,0,0,0, ,449.4,-846.4,240.1,11.7,-20.4,107,25,730.688,-561.9,75.3963,36.9152,-6.97999,111.915,
2026_07_06_16_26_07.223,3.869,47.4,0,0.772,0,0,0,0, ,0,0,0,0,0, ,348.1,-923.2,248.4,-2,-0.2,86.3,25,710.461,-581.576,85.6859,34.9612,-7.1823,110.984,
2026_07_06_16_26_07.251,3.869,47.5,0,0.772,0,0,0,0, ,0,0,0,0,0, ,177.8,-987.5,112.5,9.7,27.6,88.8,25,683.19,-604.353,91.4605,33.0654,-5.90979,109.556,
2026_07_06_16_26_07.261,3.869,47.4,0,0.772,0,0,0,0, ,0,0,0,0,0, ,161.9,-892.4,28.9,6.8,41.5,106,25,651.909,-624.804,90.1954,31.5532,-3.44427,108.816,
2026_07_06_16_26_07.290,3.869,47.4,0,0.772,0,0,0,0, ,0,0,0,0,0, ,170.2,-855.5,218.7,-42.8,46.8,121.6,25,622.302,-639.986,92.2432,28.5335,-0.543996,109.119,
2026_07_06_16_26_07.300,3.869,47.5,0,0.772,0,0,0,0, ,0,0,0,0,0, ,40.8,-765.3,149.6,-68.8,34.4,94.5,25,590.809,-650.371,97.8438,23.3945,1.96322,109.054,
2026_07_06_16_26_07.330,3.869,47.4,0,0.772,0,0,0,0, ,0,0,0,0,0, ,-35.7,-901.8,134.1,-52.3,23.2,86.2,25,554.962,-661.533,100.525,18.2791,3.59858,107.914,
2026_07_06_16_26_07.340,3.869,47.3,0,0.771,0,0,0,0, ,0,0,0,0,0, ,-23.3,-1000.1,114.9,-33,25,119.5,25,519.346,-679.169,101.986,14.5662,4.84789,107.606,
2026_07_06_16_26_07.368,3.869,47.4,0,0.773,0,0,0,0, ,0,0,0,0,0, ,-99.2,-784,116.5,-18,18.6,115.6,25,483.966,-692.142,102.822,12.1247,5.88091,108.212,
2026_07_06_16_26_07.380,3.869,47.4,0,0.773,0,0,0,0, ,0,0,0,0,0, ,-178.5,-828.4,192.1,-15.4,27.1,108.6,25,446.013,-699.092,105.959,10.3682,6.91496,108.449,
2026_07_06_16_26_07.407,3.869,47.4,0,0.771,0,0,0,0, ,0,0,0,0,0, ,-181.6,-695.1,104.2,-12.1,50.9,104.7,25,407.863,-702.911,108.53,8.89849,8.87014,108.339,
2026_07_06_16_26_07.420,3.869,47.4,0,0.772,0,0,0,0, ,0,0,0,0,0, ,-223.6,-894.6,185.1,9.4,109.8,76.7,25,370.663,-708.513,110.731,8.27397,13.2259,107.264,
2026_07_06_16_26_07.447,3.869,47.5,0,0.771,0,0,0,0, ,0,0,0,0,0, ,-397.8,-838.3,179.6,24.2,144.4,17.8,25,329.142,-718.137,115.095,8.79353,20.1651,103.607,
2026_07_06_16_26_07.460,3.869,47.3,0,0.772,0,0,0,0, ,0,0,0,0,0, ,-317.6,-828,80.9,36.1,131.6,20.7,25,287.288,-725.146,116.019,10.0949,27.3457,98.4666,
2026_07_06_16_26_07.489,3.869,47.3,0,0.773,0,0,0,0, ,0,0,0,0,0, ,-405.2,-825.3,131.2,32,116.7,52,25,247.758,-731.331,115.411,11.5547,33.2447,94.6813,
2026_07_06_16_26_07.499,3.869,47.3,0,0.772,0,0,0,0, ,0,0,0,0,0, ,-412.4,-803.3,142.2,22.4,112,58.9,25,207.749,-736.387,116.709,12.5081,38.1871,92.2907,
2026_07_06_16_26_07.528,3.869,47.4,0,0.772,0,0,0,0, ,0,0,0,0,0, ,-443.6,-940.7,78.3,5.6,122.8,42.7,25,169.008,-744.651,116.315,12.599,43.0141,89.7623,
2026_07_06_16_26_07.538,3.869,47.4,0,0.773,0,0,0,0, ,0,0,0,0,0, ,-468.3,-898.9,53.1,-17.6,124.1,47.3,25,130.925,-755.324,113.231,11.4656,47.9157,87.0346,
2026_07_06_16_26_07.567,3.869,47.3,0,0.771,0,0,0,0, ,0,0,0,0,0, ,-493.7,-938.9,145.9,-37.1,82.5,44.4,25,93.6357,-765.292,112.394,9.10029,51.2907,84.5249,
2026_07_06_16_26_07.578,3.869,47.4,0,0.771,0,0,0,0, ,0,0,0,0,0, ,-455,-961.1,87.4,6,32.7,12.6,25,59.0241,-776.548,112.653,7.59817,51.6751,81.1109,
2026_07_06_16_26_07.607,3.869,47.3,0,0.771,0,0,0,0, ,0,0,0,0,0, ,-453.6,-892.5,-8.7,12.5,5.5,24.9,25,27.7434,-785.704,108.186,7.69883,49.6901,77.3108,
2026_07_06_16_26_07.617,3.869,47.3,0,0.771,0,0,0,0, ,0,0,0,0,0, ,-418.2,-903.4,-8.7,12.6,-10.4,39.5,25,-0.509855,-792.544,101.064,7.99444,46.5128,74.5619,
2026_07_06_16_26_07.646,3.869,47.3,0,0.772,0,0,0,0, ,0,0,0,0,0, ,-411.1,-906.2,49.9,14.8,20.3,22.4,25,-25.7465,-799.384,96.1604,8.34213,43.9801,71.9043,
2026_07_06_16_26_07.657,3.869,47.3,0,0.772,0,0,0,0, ,0,0,0,0,0, ,-495.8,-853.3,82.6,12.3,30.6,-2.5,25,-51.8097,-804.282,94.3377,8.65948,42.8509,68.1289,
2026_07_06_16_26_07.685,3.869,47.4,0,0.773,0,0,0,0, ,0,0,0,0,0, ,-464.5,-914.9,54,9,21.5,-13.8,25,-77.9117,-809.146,92.7511,8.78078,41.8271,63.4807,
2026_07_06_16_26_07.698,3.869,47.3,0,0.771,0,0,0,0, ,0,0,0,0,0, ,-408.2,-930.4,47.9,5.9,5.5,1,25,-99.754,-816.062,90.2038,8.69968,40.1009,59.2223,
2026_07_06_16_26_07.725,3.869,47.3,0,0.771,0,0,0,0, ,0,0,0,0,0, ,-402.9,-890.6,70.6,4.2,1.3,5.3,25,-118.388,-821.817,88.3176,8.47728,37.8644,55.8054,
2026_07_06_16_26_07.735,3.869,47.4,0,0.772,0,0,0,0, ,0,0,0,0,0, ,-395.3,-904.1,77.8,1.8,10.5,-2.2,25,-135.494,-826.42,87.4573,8.14351,35.9166,52.4992,
2026_07_06_16_26_07.763,3.869,47.2,0,0.772,0,0,0,0, ,0,0,0,0,0, ,-423.7,-906.3,83.8,2.7,13.3,-6,25,-152.192,-831.221,87.0516,7.78437,34.4531,49.0502,
2026_07_06_16_26_07.776,3.869,47.3,0,0.771,0,0,0,0, ,0,0,0,0,0, ,-388,-904.4,82.1,3.4,12.3,-9.1,25,-167.649,-835.738,86.8017,7.49587,33.1336,45.6011,
2026_07_06_16_26_07.804,3.869,47.3,0,0.772,0,0,0,0, ,0,0,0,0,0, ,-374.2,-901.6,76,4.6,15,-11.1,25,-180.656,-839.837,86.3293,7.28284,31.9463,42.2069,
2026_07_06_16_26_07.815,3.869,47.3,0,0.771,0,0,0,0, ,0,0,0,0,0, ,-415.2,-929.5,52.7,8.2,29.1,-19.2,25,-193.699,-844.45,84.9899,7.22904,31.3433,38.7117,
2026_07_06_16_26_07.844,3.869,47.2,0,0.771,0,0,0,0, ,0,0,0,0,0, ,-434.3,-940.5,55.5,14.8,38.2,-30,25,-207.779,-849.968,83.1076,7.48931,31.4838,34.8536,
2026_07_06_16_26_07.855,3.869,47.2,0,0.773,0,0,0,0, ,0,0,0,0,0, ,-417.4,-917.7,52,14.6,42.7,-36.9,25,-221.068,-854.79,81.3186,7.92871,32.0302,30.6914,
2026_07_06_16_26_07.884,3.869,47.3,0,0.772,0,0,0,0, ,0,0,0,0,0, ,-423.5,-892.7,96.3,16.5,43,-42.4,25,-233.218,-857.862,80.8818,8.39313,32.6895,26.4049,
2026_07_06_16_26_07.893,3.869,47.2,0,0.771,0,0,0,0, ,0,0,0,0,0, ,-437.2,-894.1,78.2,16.8,28.8,-45.8,25,-245.23,-860.028,81.2698,8.89628,32.8852,22.1085,
2026_07_06_16_26_07.922,3.869,47.2,0,0.771,0,0,0,0, ,0,0,0,0,0, ,-448.9,-879.6,49.3,16.7,22.9,-57.7,25,-257.285,-861.662,80.2022,9.37487,32.4565,17.6078,
2026_07_06_16_26_07.934,3.869,47.2,0,0.77,0,0,0,0, ,0,0,0,0,0, ,-463,-909.4,-5,20.4,24,-70.6,25,-269.391,-863.663,76.6647,9.93398,31.9076,12.6257,
2026_07_06_16_26_07.962,3.869,47.2,0,0.773,0,0,0,0, ,0,0,0,0,0, ,-414.3,-873.1,43,21.3,29.7,-86.2,25,-279.705,-865.344,73.1507,10.5992,31.5994,7.0788,
2026_07_06_16_26_07.973,3.869,47.3,0,0.772,0,0,0,0, ,0,0,0,0,0, ,-374.3,-886.9,33.9,25.1,34.1,-99.5,25,-286.688,-866.237,71.0361,11.367,31.6178,0.989389,
2026_07_06_16_26_08.003,3.869,47.4,0,0.772,0,0,0,0, ,0,0,0,0,0, ,-344.7,-890.7,44,25.6,30.4,-107.4,25,-291.125,-867.612,69.0809,12.2191,31.6563,-5.37489,
2026_07_06_16_26_08.013,3.869,47.3,0,0.772,0,0,0,0, ,0,0,0,0,0, ,-328.8,-890.6,91.7,25.7,28.5,-113.6,25,-293.906,-869.016,69.0059,13.0376,31.5218,-11.7809,
2026_07_06_16_26_08.046,3.869,47.2,0,0.772,0,0,0,0, ,0,0,0,0,0, ,-259.3,-885.9,94.3,23.9,22.2,-119.1,25,-293.914,-870.188,70.468,13.7543,31.1457,-18.1531,
2026_07_06_16_26_08.052,3.869,47.3,0,0.772,0,0,0,0, ,0,0,0,0,0, ,-172.9,-870.6,100.3,22.6,24.3,-140.2,25,-289.173,-870.68,72.1031,14.333,30.6646,-24.9475,
2026_07_06_16_26_08.081,3.869,47.3,0,0.771,0,0,0,0, ,0,0,0,0,0, ,-127.5,-879,138.3,20,34.1,-184.7,25,-280.704,-870.931,74.9792,14.7575,30.5753,-33.3265,
2026_07_06_16_26_08.092,3.869,47.3,0,0.772,0,0,0,0, ,0,0,0,0,0, ,101.9,-960.2,65.4,34.3,52.6,-179.7,25,-264.379,-873.896,76.6166,15.5127,31.3538,-42.3985,
2026_07_06_16_26_08.121,3.869,47.3,0,0.772,0,0,0,0, ,0,0,0,0,0, ,133.5,-981.5,25.3,55.1,39.7,-169.3,25,-241.096,-879.805,74.7113,17.2913,32.2554,-50.4484,
2026_07_06_16_26_08.131,3.869,47.2,0,0.773,0,0,0,0, ,0,0,0,0,0, ,129.5,-890.2,105.4,69,8.2,-157.7,25,-218.391,-883.22,74.1408,20.0188,31.7493,-57.3375,
2026_07_06_16_26_08.160,3.869,47.3,0,0.772,0,0,0,0, ,0,0,0,0,0, ,150.6,-886.4,167.8,74.5,-3.1,-154.9,25,-196.548,-883.529,77.9469,23.1712,29.97,-63.368,
2026_07_06_16_26_08.171,3.869,47.3,0,0.771,0,0,0,0, ,0,0,0,0,0, ,76.7,-854.8,311.2,52.3,-25.4,-176.9,25,-177.645,-882.741,87.7916,25.6226,27.2753,-69.6161,
2026_07_06_16_26_08.200,3.869,47.3,0,0.772,0,0,0,0, ,0,0,0,0,0, ,154.9,-879.7,382.2,8.2,-20.8,-192.6,25,-159.764,-881.797,103.569,25.9046,24.2056,-76.6321,
2026_07_06_16_26_08.211,3.869,47,0,0.772,0,0,0,0, ,0,0,0,0,0, ,354.8,-893,324.4,-15.6,7.1,-186.2,25,-134.498,-882.075,118.787,24.1006,22.3131,-83.5038,
2026_07_06_16_26_08.240,3.869,47.2,0,0.772,0,0,0,0, ,0,0,0,0,0, ,436.5,-870.9,164.5,-11.8,22.1,-163.8,25,-102.192,-882.067,126.444,21.7971,21.8431,-89.0794,
2026_07_06_16_26_08.251,3.869,47.2,0,0.77,0,0,0,0, ,0,0,0,0,0, ,286.6,-751.5,177.9,-1.8,3.9,-154,25,-73.9329,-877.749,129.172,20.0544,21.3042,-93.3341,
2026_07_06_16_26_08.280,3.869,47.2,0,0.772,0,0,0,0, ,0,0,0,0,0, ,235.8,-675.7,158,-0.1,-16.7,-152.7,25,-53.5107,-867.746,131.535,18.7745,19.616,-96.9913,
2026_07_06_16_26_08.292,3.869,47.3,0,0.772,0,0,0,0, ,0,0,0,0,0, ,386.1,-599.6,201.6,-27,-42,-150.9,25,-31.3014,-853.725,134.476,16.8047,16.6322,-100.331,
2026_07_06_16_26_08.322,3.869,47.3,0,0.772,0,0,0,0, ,0,0,0,0,0, ,600.8,-582.5,258.5,-61.5,-35.6,-148.7,25,0.675612,-837.718,140.3,13.0842,13.2543,-103.346,
2026_07_06_16_26_08.330,3.869,47.2,0,0.771,0,0,0,0, ,0,0,0,0,0, ,728.1,-648.8,93.8,-53.9,-27.8,-128,25,41.1244,-824.186,142.485,8.77078,10.5149,-105.479,
2026_07_06_16_26_08.360,3.869,47.2,0,0.772,0,0,0,0, ,0,0,0,0,0, ,707.7,-684.4,65.9,-25.4,-47.3,-109.6,25,82.3654,-814.583,138.668,5.82014,7.58591,-106.291,
2026_07_06_16_26_08.368,3.869,47.3,0,0.772,0,0,0,0, ,0,0,0,0,0, ,573.3,-615.7,31.2,-11,-71.4,-95.4,25,116.377,-804.556,133.176,4.35641,3.507,-106.06,
2026_07_06_16_26_08.398,3.869,47.3,0,0.772,0,0,0,0, ,0,0,0,0,0, ,640.9,-505.6,220.4,-2.1,-77.1,-122.4,25,146.28,-789.693,132.727,3.6918,-1.23132,-106.233,
2026_07_06_16_26_08.408,3.869,47.2,0,0.772,0,0,0,0, ,0,0,0,0,0, ,729.4,-324.9,397.9,-45.4,-27.8,-158.8,25,179.118,-766.876,143.478,2.01957,-4.35246,-108.327,
2026_07_06_16_26_08.437,3.869,47.2,0,0.772,0,0,0,0, ,0,0,0,0,0, ,799.8,-347.2,168.7,-64.4,8,-197.3,25,214.795,-740.622,151.998,-1.44897,-4.69051,-112.576,
2026_07_06_16_26_08.450,3.869,47.2,0,0.775,0,0,0,0, ,0,0,0,0,0, ,863.8,-528.1,-174,-17.9,-6.4,-189.8,25,252.394,-722.16,142.574,-3.86825,-4.35593,-117.51,
2026_07_06_16_26_08.479,3.869,47.2,0,0.77,0,0,0,0, ,0,0,0,0,0, ,1055.6,-538.9,-35.6,9.7,-4.5,-164.3,25,295.496,-710.663,127.5,-3.88237,-4.4226,-121.138,
2026_07_06_16_26_08.488,3.869,47.2,0,0.772,0,0,0,0, ,0,0,0,0,0, ,970,-467.7,29.1,26.6,17.1,-141.5,25,339.206,-698.027,119.532,-2.53977,-3.76919,-123.074,
2026_07_06_16_26_08.518,3.869,47.3,0,0.772,0,0,0,0, ,0,0,0,0,0, ,903.3,-345.4,45.7,32.4,6.5,-130.1,25,375.613,-680.265,114.527,-0.587349,-2.82045,-123.849,
2026_07_06_16_26_08.527,3.869,47.2,0,0.772,0,0,0,0, ,0,0,0,0,0, ,1024.9,-269,79.7,39.3,-19,-130,25,411.474,-657.532,111.369,1.63305,-3.02943,-124.227,
2026_07_06_16_26_08.556,3.869,47.2,0,0.771,0,0,0,0, ,0,0,0,0,0, ,1175.9,-291,142.3,45,-27.3,-121.8,25,453.455,-634.526,111.347,4.10205,-4.25553,-124.329,
2026_07_06_16_26_08.566,3.869,47.3,0,0.772,0,0,0,0, ,0,0,0,0,0, ,1194.9,-300.5,155.3,51.7,-12,-94.5,25,498.058,-613.882,113.629,6.79841,-5.19363,-123.343,
2026_07_06_16_26_08.596,3.869,47.2,0,0.772,0,0,0,0, ,0,0,0,0,0, ,1109.6,-210.4,155.6,42.2,-4.7,-66,25,537.923,-592.04,116.177,9.24515,-5.38597,-120.717,
2026_07_06_16_26_08.606,3.869,47.2,0,0.773,0,0,0,0, ,0,0,0,0,0, ,1034.6,-163.2,125.6,28.4,-9.5,-54.1,25,570.474,-567.345,117.666,10.8329,-5.49042,-117.02,
2026_07_06_16_26_08.636,3.869,47,0,0.772,0,0,0,0, ,0,0,0,0,0, ,1039.1,-36.1,288.4,16.2,3.2,-68.8,25,598.894,-538.845,123.109,11.5316,-5.3478,-113.634,
2026_07_06_16_26_08.646,3.869,47.2,0,0.772,0,0,0,0, ,0,0,0,0,0, ,995.2,-81.4,72.5,0.1,-6.7,-81.9,25,624.382,-509.589,126.604,11.3256,-5.12856,-111.301,
2026_07_06_16_26_08.675,3.869,47.2,0,0.772,0,0,0,0, ,0,0,0,0,0, ,1098.8,-120.1,88,-3.3,-14.9,-72.3,25,650.135,-484.676,123.779,10.5379,-5.47416,-109.217,
2026_07_06_16_26_08.685,3.869,47,0,0.772,0,0,0,0, ,0,0,0,0,0, ,1168.2,-151.3,84.8,-3.8,-21,-53.8,25,679.59,-463.41,121.501,9.67944,-6.23441,-106.404,
2026_07_06_16_26_08.715,3.869,47,0,0.771,0,0,0,0, ,0,0,0,0,0, ,1130.6,-131.9,55.5,4.8,-22.2,-37.1,25,708.219,-443.8,118.372,9.12007,-7.17075,-102.689,
2026_07_06_16_26_08.725,3.869,47,0,0.773,0,0,0,0, ,0,0,0,0,0, ,1097.5,-99.3,76.9,10.6,-23.3,-30.5,25,732.949,-423.8,115.193,9.03353,-8.12011,-98.4913,
2026_07_06_16_26_08.754,3.869,47.2,0,0.77,0,0,0,0, ,0,0,0,0,0, ,1098.5,-75.1,92.7,15.9,-27.2,-30.5,25,755.195,-403.289,113.341,9.29047,-9.16396,-94.3481,
2026_07_06_16_26_08.765,3.869,47,0,0.772,0,0,0,0, ,0,0,0,0,0, ,1090.8,-67.3,89.9,14.5,-27.1,-29.3,25,775.88,-383.052,111.998,9.65059,-10.26,-90.4208,
2026_07_06_16_26_08.795,3.869,47.2,0,0.772,0,0,0,0, ,0,0,0,0,0, ,1114.1,-72.3,93.6,12,-22.9,-23.4,25,795.781,-363.963,110.764,9.86993,-11.1582,-86.5165,
2026_07_06_16_26_08.804,3.869,47,0,0.772,0,0,0,0, ,0,0,0,0,0, ,1111.3,-78.7,90.2,4.2,-20.1,-20.6,25,815.093,-346.385,109.614,9.76207,-11.7884,-82.585,
2026_07_06_16_26_08.836,3.869,47,0,0.772,0,0,0,0, ,0,0,0,0,0, ,1113.7,-79.7,87.6,1.9,-9.1,-14.3,25,833.216,-330.103,108.352,9.35305,-11.9597,-78.6158,
2026_07_06_16_26_08.843,3.869,47,0,0.772,0,0,0,0, ,0,0,0,0,0, ,1072.3,-44.1,101.6,-1.1,1.7,-13.3,25,849.047,-313.76,107.514,8.80748,-11.4564,-74.6661,
2026_07_06_16_26_08.874,3.869,47,0,0.773,0,0,0,0, ,0,0,0,0,0, ,1039.1,-36.6,93.3,-5.5,7,-16.1,25,861.64,-297.099,106.901,8.06968,-10.4932,-71.0119,
2026_07_06_16_26_08.882,3.869,47.2,0,0.771,0,0,0,0, ,0,0,0,0,0, ,1018.4,-47.8,80.4,-2.8,7.1,-14.8,25,871.823,-281.566,105.679,7.32504,-9.42417,-67.6261,
2026_07_06_16_26_08.912,3.869,47.2,0,0.771,0,0,0,0, ,0,0,0,0,0, ,1010.2,-45.4,78.8,-0.9,4.6,-13.1,25,880.505,-267.248,104.09,6.76594,-8.4934,-64.3552,
2026_07_06_16_26_08.927,3.869,47,0,0.772,0,0,0,0, ,0,0,0,0,0, ,996.4,-50.6,59,1,2.4,-10.9,25,887.988,-253.887,101.945,6.35668,-7.76255,-61.1648,
2026_07_06_16_26_08.958,3.869,47,0,0.772,0,0,0,0, ,0,0,0,0,0, ,1015.6,-73.8,27.7,4.5,-3.8,-3.8,25,895.179,-242.206,98.3746,6.1369,-7.33218,-57.8855,
2026_07_06_16_26_08.964,3.869,47,0,0.773,0,0,0,0, ,0,0,0,0,0, ,1001.8,-69.4,21.7,10.6,-10.4,2.3,25,902.097,-231.81,93.8851,6.22301,-7.31803,-54.4038,
2026_07_06_16_26_08.996,3.869,47,0,0.772,0,0,0,0, ,0,0,0,0,0, ,995.7,-61.5,28.1,11.2,-7.4,0.9,25,907.987,-221.672,89.6813,6.50802,-7.41443,-50.9911,
2026_07_06_16_26_09.002,3.869,47.2,0,0.773,0,0,0,0, ,0,0,0,0,0, ,1210.8,-88.3,40,-1.4,0.9,0.2,25,919.886,-212.729,86.2913,6.41003,-7.16066,-47.8503,
2026_07_06_16_26_09.033,3.869,47,0,0.771,0,0,0,0, ,0,0,0,0,0, ,998.7,-31.1,-8.6,-6.6,0.9,-6.6,25,931.151,-203.403,81.9896,5.77567,-6.66947,-45.1294,
2026_07_06_16_26_09.041,3.869,47,0,0.771,0,0,0,0, ,0,0,0,0,0, ,989.7,-53.4,25.7,-6.8,5,-4.3,25,934.993,-193.583,77.5144,5.01543,-6.08328,-42.7114,
2026_07_06_16_26_09.073,3.869,47,0,0.772,0,0,0,0, ,0,0,0,0,0, ,987.7,-59.8,38.3,2.3,4,-3.2,25,938.266,-185.236,74.7409,4.57269,-5.43836,-40.3372,
2026_07_06_16_26_09.080,3.869,47,0,0.771,0,0,0,0, ,0,0,0,0,0, ,987.9,-61.7,32.2,4.5,4.4,-4.1,25,941.284,-177.65,72.3344,4.50123,-4.85102,-38.1016,
2026_07_06_16_26_09.112,3.869,47,0,0.773,0,0,0,0, ,0,0,0,0,0, ,989.2,-47.7,37.3,2,5.3,-4.4,25,944.164,-170.158,70.0441,4.42499,-4.25987,-36.0388,
2026_07_06_16_26_09.120,3.869,47,0,0.773,0,0,0,0, ,0,0,0,0,0, ,989.8,-52.3,36.1,0.2,5.5,-4.6,25,946.927,-162.835,68.0122,4.22237,-3.67122,-34.1169,
2026_07_06_16_26_09.152,3.869,47.2,0,0.771,0,0,0,0, ,0,0,0,0,0, ,989.7,-60.4,31.8,4.5,6.6,-4.5,25,949.537,-156.346,65.9365,4.10827,-3.07883,-32.3151,
2026_07_06_16_26_09.160,3.869,47,0,0.772,0,0,0,0, ,0,0,0,0,0, ,988.8,-58.5,43.9,6.3,7.6,-5.1,25,951.957,-150.442,64.225,4.18699,-2.45856,-30.6384,
2026_07_06_16_26_09.191,3.869,47,0,0.772,0,0,0,0, ,0,0,0,0,0, ,989.7,-55.1,47.1,5.9,8.3,-6,25,954.229,-144.736,63.0839,4.30356,-1.82429,-29.1096,
2026_07_06_16_26_09.201,3.869,47,0,0.771,0,0,0,0, ,0,0,0,0,0, ,989.9,-47.2,45.7,6.7,8.9,-6,25,956.397,-139.033,62.0673,4.42522,-1.18906,-27.7014,
2026_07_06_16_26_09.232,3.869,47,0,0.772,0,0,0,0, ,0,0,0,0,0, ,991,-56.8,28.6,8.5,12.2,-6.7,25,958.472,-133.729,60.5489,4.61868,-0.473709,-26.4003,
2026_07_06_16_26_09.239,3.869,46.9,0,0.772,0,0,0,0, ,0,0,0,0,0, ,990.1,-44.7,58.7,3.8,14.8,-8,25,960.427,-128.673,59.5191,4.712,0.377813,-25.2394,
2026_07_06_16_26_09.271,3.869,46.9,0,0.772,0,0,0,0, ,0,0,0,0,0, ,988.5,-39,70.5,2.3,15,-7.7,25,962.186,-123.382,59.8287,4.61072,1.26276,-24.1797,
2026_07_06_16_26_09.279,3.869,47,0,0.772,0,0,0,0, ,0,0,0,0,0, ,981,-53.3,93.7,9.2,12.9,-4.7,25,963.561,-118.676,61.1859,4.68014,2.03589,-23.0841,
2026_07_06_16_26_09.309,3.869,47,0,0.771,0,0,0,0, ,0,0,0,0,0, ,988.5,-38.9,68.8,13.2,12.1,-4.8,25,964.852,-114.253,62.4085,5.07745,2.67354,-21.9669,
2026_07_06_16_26_09.319,3.869,47,0,0.77,0,0,0,0, ,0,0,0,0,0, ,990.2,-31.9,73.7,10.8,14.7,-5.7,25,966.345,-109.448,62.9473,5.49929,3.32719,-20.9482,
