UTC_Time,Vin,TC1,TC2,Rh1,Vh1,Ah1,Acp1,Dty1,Err1,Rh2,Vh2,Ah2,Acp2,Dty2,Err2,Accel_x,Accel_y,Accel_z,gyro_x,gyro_y,gyro_z,Temp_c,Accel_x_h,Accel_y_h,Accel_z_h,gyro_x_h,gyro_y_h,gyro_z_h,
2026_07_06_17_04_56.275,3.869,0,0,0.759,0,0,0,0.001, ,0,0,0,0,0, ,822.9,95.9,546.9,-0.6,-0.1,-2.2,25,822.9,95.9,546.9,-0.6,-0.1,-2.2,
2026_07_06_17_04_56.295,3.869,29.7,0,0.758,0,0,0,0, ,0,0,0,0,0, ,820.5,94.6,554.8,-0.4,-0.1,-2.3,25,822.827,95.8604,547.141,-0.593906,-0.1,-2.20305,
2026_07_06_17_04_56.315,3.869,29.8,0,0.758,0,0,0,0.002, ,0,0,0,0,0, ,818.8,92.4,554,-0.3,-0.3,-2.1,25,822.633,95.7166,547.583,-0.579043,-0.106094,-2.20286,
2026_07_06_17_04_56.334,3.869,29.8,0,0.758,0,0,0,0.001, ,0,0,0,0,0, ,812.7,94.3,557.8,-0.9,-0.5,-2.3,25,822.214,95.5723,548.09,-0.58032,-0.124004,-2.20269,
2026_07_06_17_04_56.355,3.869,29.7,0,0.758,0,0,0,0.001, ,0,0,0,0,0, ,814.8,97.1,555.6,-1.6,-1.2,-2.5,25,821.698,95.5801,548.615,-0.621129,-0.168244,-2.21471,
2026_07_06_17_04_56.374,3.869,29.7,0,0.757,0,0,0,0.002, ,0,0,0,0,0, ,822.9,94.7,550.7,-1.4,-1.3,-2.6,25,821.525,95.5996,548.891,-0.674685,-0.234164,-2.23514,
2026_07_06_17_04_56.394,3.869,29.6,0,0.757,0,0,0,0.002, ,0,0,0,0,0, ,824.3,94.7,549.1,-1,-1.4,-2.5,25,821.651,95.5448,548.952,-0.706696,-0.30216,-2.25433,
2026_07_06_17_04_56.413,3.869,29.8,0,0.759,0,0,0,0.003, ,0,0,0,0,0, ,822.9,95.3,551.6,-0.6,-1.2,-2.3,25,821.77,95.5116,549.038,-0.712382,-0.362966,-2.26321,
2026_07_06_17_04_56.434,3.869,29.7,0,0.758,0,0,0,0.001, ,0,0,0,0,0, ,824.3,95.9,550.5,-0.1,-1.2,-2,25,821.881,95.517,549.16,-0.690299,-0.413972,-2.25631,
2026_07_06_17_04_56.453,3.869,29.7,0,0.759,0,0,0,0.002, ,0,0,0,0,0, ,820.3,94.3,547.3,0,-0.7,-1.9,25,821.907,95.4916,549.144,-0.651281,-0.446637,-2.23764,
2026_07_06_17_04_56.473,3.869,29.7,0,0.757,0,0,0,0.002, ,0,0,0,0,0, ,819.2,99.1,557.6,-0.2,-0.9,-2,25,821.775,95.5652,549.346,-0.617688,-0.46817,-2.22011,
2026_07_06_17_04_56.493,3.869,29.7,0,0.757,0,0,0,0.002, ,0,0,0,0,0, ,819.9,96.8,553.8,-0.5,-2.1,-1.8,25,821.64,95.7105,549.733,-0.601375,-0.531047,-2.20061,
2026_07_06_17_04_56.512,3.869,29.7,0,0.758,0,0,0,0.002, ,0,0,0,0,0, ,823.7,95.4,551.1,-1.1,-2.4,-1.8,25,821.65,95.7343,549.899,-0.613479,-0.635796,-2.17619,
2026_07_06_17_04_56.532,3.869,29.7,0,0.758,0,0,0,0.002, ,0,0,0,0,0, ,817.6,93.9,544.9,-1.3,-1.9,-2,25,821.589,95.6682,549.783,-0.64922,-0.728067,-2.15936,
2026_07_06_17_04_56.553,3.869,29.8,0,0.758,0,0,0,0.002, ,0,0,0,0,0, ,818.1,97.9,547.4,-1.1,-1.2,-2.5,25,821.361,95.6823,549.562,-0.682783,-0.778154,-2.16489,
2026_07_06_17_04_56.572,3.869,29.7,0,0.757,0,0,0,0.001, ,0,0,0,0,0, ,826.6,96,551,-1.1,-1.4,-2.1,25,821.421,95.7596,549.539,-0.708207,-0.809954,-2.17312,
2026_07_06_17_04_56.592,3.869,29.7,0,0.758,0,0,0,0.002, ,0,0,0,0,0, ,824,95.9,549.8,-1.1,-1.8,-1.9,25,821.657,95.7712,549.592,-0.732082,-0.858097,-2.16257,
2026_07_06_17_04_56.612,3.869,29.8,0,0.758,0,0,0,0.002, ,0,0,0,0,0, ,819,93.6,541.2,-0.7,-1,-2,25,821.648,95.7089,549.343,-0.742315,-0.89112,-2.14962,
2026_07_06_17_04_56.631,3.869,29.8,0,0.757,0,0,0,0.002, ,0,0,0,0,0, ,822.2,94.2,550.6,0,-0.5,-2,25,821.584,95.5987,549.133,-0.718408,-0.88252,-2.1405,
2026_07_06_17_04_56.652,3.869,29.8,0,0.757,0,0,0,0.002, ,0,0,0,0,0, ,821.1,100.2,556.6,-0.5,-1.5,-2.1,25,821.588,95.6963,549.405,-0.689864,-0.889679,-2.13499,
2026_07_06_17_04_56.671,3.869,29.7,0,0.758,0,0,0,0.002, ,0,0,0,0,0, ,822.5,97.1,552.3,-1.3,-2.5,-1.8,25,821.601,95.8763,549.712,-0.70267,-0.957339,-2.12371,
2026_07_06_17_04_56.691,3.869,29.8,0,0.759,0,0,0,0.002, ,0,0,0,0,0, ,821.7,94.6,543.8,-1.4,-2.4,-1.8,25,821.631,95.8747,549.611,-0.742116,-1.0483,-2.10399,
2026_07_06_17_04_56.711,3.869,29.8,0,0.758,0,0,0,0.002, ,0,0,0,0,0, ,821.2,95.2,543.3,-1.3,-1.2,-2.2,25,821.62,95.8153,549.242,-0.779159,-1.09411,-2.09765,
2026_07_06_17_04_56.731,3.869,29.7,0,0.757,0,0,0,0.002, ,0,0,0,0,0, ,825.5,96.5,548.3,-1.2,-0.7,-2.3,25,821.726,95.8174,549.032,-0.807851,-1.08532,-2.10693,
2026_07_06_17_04_56.751,3.869,29.7,0,0.758,0,0,0,0.003, ,0,0,0,0,0, ,826.5,98.3,549.4,-0.7,-1,-2.2,25,821.986,95.9138,549.021,-0.816513,-1.07098,-2.11565,
2026_07_06_17_04_56.770,3.869,29.7,0,0.758,0,0,0,0.003, ,0,0,0,0,0, ,821.2,95.4,547.2,-0.3,-1,-1.9,25,822.1,95.9709,548.977,-0.797226,-1.06666,-2.11165,
2026_07_06_17_04_56.790,3.869,29.8,0,0.757,0,0,0,0.003, ,0,0,0,0,0, ,822.9,95.8,547.7,-0.2,-0.9,-2.1,25,822.097,95.9483,548.884,-0.763879,-1.05955,-2.10485,
2026_07_06_17_04_56.810,3.869,29.7,0,0.757,0,0,0,0.002, ,0,0,0,0,0, ,821.6,94.9,548,-0.7,-1.1,-1.9,25,822.106,95.9118,548.821,-0.744752,-1.05592,-2.09846,
2026_07_06_17_04_56.830,3.869,29.8,0,0.758,0,0,0,0.003, ,0,0,0,0,0, ,827.2,96.5,545.4,-1.1,-0.8,-2.3,25,822.246,95.8989,548.692,-0.754213,-1.04947,-2.09855,
2026_07_06_17_04_56.850,3.869,29.8,0,0.758,0,0,0,0.002, ,0,0,0,0,0, ,825.3,96.9,544,-0.9,-0.7,-2.1,25,822.49,95.9477,548.448,-0.76919,-1.03122,-2.10473,
2026_07_06_17_04_56.869,3.869,29.8,0,0.76,0,0,0,0.002, ,0,0,0,0,0, ,821,95.5,542.7,-0.4,0.3,-2,25,822.53,95.9631,548.138,-0.761927,-0.980565,-2.1014,
2026_07_06_17_04_56.889,3.869,29.8,0,0.757,0,0,0,0.002, ,0,0,0,0,0, ,823.4,96.9,551.2,0,0.4,-1.9,25,822.51,95.9775,548.065,-0.727685,-0.899484,-2.09217,
2026_07_06_17_04_56.908,3.869,29.7,0,0.758,0,0,0,0.002, ,0,0,0,0,0, ,825.9,100.4,552.7,-0.3,-0.4,-1.8,25,822.64,96.1404,548.302,-0.692482,-0.844671,-2.07742,
2026_07_06_17_04_56.928,3.869,29.8,0,0.757,0,0,0,0.003, ,0,0,0,0,0, ,819.8,97.9,552.3,-0.8,-1.8,-1.4,25,822.653,96.3238,548.558,-0.6838,-0.86023,-2.04832,
2026_07_06_17_04_56.948,3.869,29.8,0,0.758,0,0,0,0.002, ,0,0,0,0,0, ,817.6,94.9,547.3,-1.4,-2.1,-1.6,25,822.412,96.3284,548.634,-0.709162,-0.926638,-2.01491,
2026_07_06_17_04_56.968,3.869,29.8,0,0.758,0,0,0,0.002, ,0,0,0,0,0, ,824.7,92.8,543.8,-1.4,-1.3,-2,25,822.335,96.1774,548.446,-0.75126,-0.973765,-2.00181,
2026_07_06_17_04_56.988,3.869,29.7,0,0.758,0,0,0,0.002, ,0,0,0,0,0, ,827.6,95,540.7,-0.8,-0.6,-1.8,25,822.568,96.0386,548.068,-0.772511,-0.972317,-1.99561,
2026_07_06_17_04_57.008,3.869,29.8,0,0.756,0,0,0,0.003, ,0,0,0,0,0, ,826.6,95.2,542.8,-0.2,0,-2,25,822.844,95.9814,547.683,-0.755905,-0.931347,-1.98978,
2026_07_06_17_04_57.028,3.869,29.9,0,0.757,0,0,0,0.002, ,0,0,0,0,0, ,821.8,96.8,550.4,0,0.1,-1.8,25,822.927,95.9826,547.617,-0.715936,-0.871547,-1.98431,
2026_07_06_17_04_57.053,3.869,29.8,0,0.758,0,0,0,0.001, ,0,0,0,0,0, ,822.2,98.5,554.6,-0.4,-0.8,-1.4,25,822.87,96.0842,547.915,-0.684496,-0.839765,-1.96089,
2026_07_06_17_04_57.067,3.869,29.8,0,0.757,0,0,0,0.002, ,0,0,0,0,0, ,822.9,97.6,550,-0.7,-1.7,-1.3,25,822.851,96.204,548.182,-0.6763,-0.864764,-1.92367,
2026_07_06_17_04_57.087,3.869,29.8,0,0.758,0,0,0,0.002, ,0,0,0,0,0, ,824.5,93.7,544,-0.9,-1.5,-1.5,25,822.902,96.1702,548.11,-0.683838,-0.909567,-1.89176,
2026_07_06_17_04_57.112,3.869,29.8,0,0.758,0,0,0,0.002, ,0,0,0,0,0, ,823.1,95,546.7,-0.3,-0.9,-1.5,25,822.957,96.0593,547.942,-0.678729,-0.927265,-1.86788,
2026_07_06_17_04_57.127,3.869,29.8,0,0.758,0,0,0,0.002, ,0,0,0,0,0, ,822.2,97.1,550.2,-0.7,-1.2,-1.6,25,822.938,96.0587,547.973,-0.667838,-0.934744,-1.84851,
2026_07_06_17_04_57.147,3.869,29.8,0,0.756,0,0,0,0.002, ,0,0,0,0,0, ,821.4,95.8,546.2,-1.1,-1.9,-1.6,25,822.869,96.0826,547.987,-0.681985,-0.972237,-1.83337,
2026_07_06_17_04_57.166,3.869,29.7,0,0.758,0,0,0,0.002, ,0,0,0,0,0, ,827,93.8,538.9,-1.5,-1.2,-2.3,25,822.95,96.0044,547.655,-0.719645,-1.00744,-1.84048,
2026_07_06_17_04_57.186,3.869,29.7,0,0.756,0,0,0,0.003, ,0,0,0,0,0, ,826.4,91.6,539.3,-0.7,-0.3,-2.3,25,823.179,95.803,547.134,-0.742823,-0.991756,-1.86848,
2026_07_06_17_04_57.210,3.869,29.7,0,0.758,0,0,0,0.003, ,0,0,0,0,0, ,826.9,94.3,545.5,-0.5,0,-2.5,25,823.39,95.6292,546.845,-0.73412,-0.940462,-1.90087,
2026_07_06_17_04_57.225,3.869,29.8,0,0.758,0,0,0,0.003, ,0,0,0,0,0, ,822.8,95.9,552.7,-1.2,-0.8,-2.4,25,823.479,95.5969,546.983,-0.741181,-0.907527,-1.93433,
2026_07_06_17_04_57.246,3.869,29.8,0,0.759,0,0,0,0.002, ,0,0,0,0,0, ,817.6,100.2,553.2,-1.3,-1.8,-2.5,25,823.279,95.7464,547.346,-0.772188,-0.931443,-1.96575,
2026_07_06_17_04_57.266,3.869,29.9,0,0.758,0,0,0,0.002, ,0,0,0,0,0, ,825.9,96.4,544.3,-1.1,-2.1,-2.4,25,823.186,95.902,547.432,-0.798257,-0.993512,-1.99526,
2026_07_06_17_04_57.285,3.869,29.8,0,0.758,0,0,0,0.002, ,0,0,0,0,0, ,829.4,100.9,540.2,-0.8,-2.4,-2.1,25,823.458,96.0695,547.116,-0.807504,-1.07008,-2.01079,
2026_07_06_17_04_57.305,3.869,29.8,0,0.758,0,0,0,0.002, ,0,0,0,0,0, ,829.3,96,540.4,-0.4,-1,-1.9,25,823.817,96.2146,546.701,-0.794859,-1.10846,-2.01013,
2026_07_06_17_04_57.324,3.869,29.8,0,0.758,0,0,0,0.002, ,0,0,0,0,0, ,824.9,95.9,538.9,-0.3,0,-1.6,25,824.017,96.1984,546.271,-0.767751,-1.07139,-1.99428,
2026_07_06_17_04_57.345,3.869,29.8,0,0.757,0,0,0,0.002, ,0,0,0,0,0, ,824,95.8,543.3,0,0.3,-2.1,25,824.044,96.1772,545.956,-0.730107,-0.996958,-1.98548,
2026_07_06_17_04_57.364,3.869,29.7,0,0.758,0,0,0,0.002, ,0,0,0,0,0, ,823.7,99.4,548.2,-0.5,0,-2,25,824.032,96.2639,545.944,-0.70085,-0.927065,-1.98942,
2026_07_06_17_04_57.388,3.869,29.7,0,0.758,0,0,0,0.003, ,0,0,0,0,0, ,822.5,99.4,550.7,-1,-0.7,-1.6,25,823.975,96.455,546.157,-0.703845,-0.891901,-1.97787,
2026_07_06_17_04_57.403,3.869,29.8,0,0.756,0,0,0,0.003, ,0,0,0,0,0, ,827.7,95.5,545.4,-0.9,-1.5,-1.6,25,824.044,96.5156,546.273,-0.718845,-0.904582,-1.95485,
2026_07_06_17_04_57.423,3.869,29.8,0,0.758,0,0,0,0.002, ,0,0,0,0,0, ,823.8,91.7,540.5,-0.9,-1.2,-1.7,25,824.148,96.338,546.07,-0.729884,-0.931724,-1.93627,
2026_07_06_17_04_57.442,3.869,29.8,0,0.758,0,0,0,0.002, ,0,0,0,0,0, ,821.5,95.3,544.3,-0.4,-0.6,-2,25,824.056,96.165,545.846,-0.725016,-0.929791,-1.93101,
2026_07_06_17_04_57.463,3.869,29.8,0,0.758,0,0,0,0.003, ,0,0,0,0,0, ,828.6,99.1,546.8,-0.7,-1.2,-1.8,25,824.117,96.2281,545.828,-0.714351,-0.927976,-1.92912,
2026_07_06_17_04_57.484,3.869,29.8,0,0.76,0,0,0,0.003, ,0,0,0,0,0, ,828.3,95.5,537.9,-1.3,-1.5,-1.6,25,824.381,96.2934,545.616,-0.731758,-0.953693,-1.91516,
2026_07_06_17_04_57.502,3.869,29.8,0,0.76,0,0,0,0.003, ,0,0,0,0,0, ,827.6,92.1,540.2,-0.9,-0.6,-1.8,25,824.598,96.1415,545.216,-0.754198,-0.959562,-1.90205,
2026_07_06_17_04_57.522,3.869,29.9,0,0.757,0,0,0,0.003, ,0,0,0,0,0, ,827,93.5,543.9,0.1,-0.4,-1.7,25,824.763,95.9379,545.023,-0.732614,-0.931557,-1.89278,
2026_07_06_17_04_57.542,3.869,29.8,0,0.758,0,0,0,0.002, ,0,0,0,0,0, ,828.1,95.7,544,-0.3,-0.6,-1.8,25,824.933,95.8563,544.958,-0.694064,-0.905259,-1.88408,
2026_07_06_17_04_57.566,3.869,29.8,0,0.758,0,0,0,0.003, ,0,0,0,0,0, ,824.8,97.2,546.1,-0.8,-1.4,-1.8,25,825.025,95.8925,544.964,-0.685285,-0.911032,-1.87896,
2026_07_06_17_04_57.582,3.869,29.8,0,0.758,0,0,0,0.003, ,0,0,0,0,0, ,827.1,93.5,540,-0.8,-1.7,-1.8,25,825.082,95.8594,544.847,-0.692276,-0.949969,-1.87415,
2026_07_06_17_04_57.602,3.869,29.7,0,0.758,0,0,0,0.003, ,0,0,0,0,0, ,825,93.8,539.5,0,-0.8,-1.6,25,825.141,95.7248,544.536,-0.674465,-0.968252,-1.86354,
2026_07_06_17_04_57.622,3.869,29.8,0,0.758,0,0,0,0.003, ,0,0,0,0,0, ,823.6,97.2,544.4,-0.1,-0.5,-2,25,825.089,95.7111,544.379,-0.636412,-0.948859,-1.85966,
2026_07_06_17_04_57.641,3.869,29.8,0,0.759,0,0,0,0.003, ,0,0,0,0,0, ,829.4,97.6,547.6,-0.5,-0.8,-2.1,25,825.175,95.814,544.478,-0.615912,-0.930647,-1.87126,
2026_07_06_17_04_57.662,3.869,29.8,0,0.758,0,0,0,0.003, ,0,0,0,0,0, ,824.5,99.1,544.3,-1.1,-2.1,-1.7,25,825.284,95.9686,544.567,-0.627129,-0.962295,-1.87301,
2026_07_06_17_04_57.680,3.869,29.8,0,0.758,0,0,0,0.003, ,0,0,0,0,0, ,824.8,93.8,539.6,-1.2,-1.8,-1.8,25,825.245,95.9979,544.408,-0.658992,-1.02248,-1.86552,
2026_07_06_17_04_57.702,3.869,29.8,0,0.759,0,0,0,0.003, ,0,0,0,0,0, ,829.7,93.2,533.6,-0.6,-0.7,-2,25,825.367,95.8457,543.932,-0.673678,-1.03635,-1.86762,
2026_07_06_17_04_57.722,3.869,29.8,0,0.758,0,0,0,0.003, ,0,0,0,0,0, ,828.3,95.4,539.5,0.1,0.1,-1.7,25,825.588,95.7515,543.482,-0.64786,-0.991477,-1.86655,
2026_07_06_17_04_57.741,3.869,29.8,0,0.758,0,0,0,0.003, ,0,0,0,0,0, ,825.1,99.2,543.9,0.1,0.5,-1.8,25,825.656,95.8459,543.374,-0.602288,-0.912777,-1.85944,
2026_07_06_17_04_57.760,3.869,29.8,0,0.759,0,0,0,0.003, ,0,0,0,0,0, ,824.2,98.5,545.8,-0.7,-0.4,-1.7,25,825.595,96.0289,543.464,-0.583867,-0.854108,-1.85277,
2026_07_06_17_04_57.780,3.869,29.8,0,0.758,0,0,0,0.003, ,0,0,0,0,0, ,825.1,96.8,546.2,-1,-1.3,-1.6,25,825.537,96.1277,543.618,-0.600084,-0.853858,-1.84042,
2026_07_06_17_04_57.800,3.869,29.8,0,0.759,0,0,0,0.003, ,0,0,0,0,0, ,829.4,95.7,537.2,-0.7,-1.4,-1.8,25,825.642,96.1352,543.501,-0.615314,-0.884091,-1.83186,
2026_07_06_17_04_57.820,3.869,29.8,0,0.758,0,0,0,0.003, ,0,0,0,0,0, ,831.5,94.8,534.5,-0.4,-0.8,-2,25,825.935,96.0812,543.035,-0.611334,-0.897248,-1.83601,
2026_07_06_17_04_57.840,3.869,29.8,0,0.758,0,0,0,0.003, ,0,0,0,0,0, ,831.2,93.2,535.4,-0.1,0.1,-1.8,25,826.265,95.9544,542.542,-0.589315,-0.8639,-1.83991,
2026_07_06_17_04_57.859,3.869,29.8,0,0.758,0,0,0,0.003, ,0,0,0,0,0, ,823.1,97.1,548.7,-0.1,0.1,-1.8,25,826.319,95.9054,542.512,-0.559497,-0.805163,-1.83748,
2026_07_06_17_04_57.878,3.869,29.8,0,0.759,0,0,0,0.003, ,0,0,0,0,0, ,821.5,96.1,549.6,-0.6,-0.6,-1.8,25,826.074,95.9477,542.917,-0.546731,-0.771332,-1.8352,
2026_07_06_17_04_57.899,3.869,29.8,0,0.758,0,0,0,0.003, ,0,0,0,0,0, ,822.9,95.8,548.4,-1,-1.7,-1.9,25,825.838,95.9478,543.287,-0.562165,-0.794408,-1.8361,
2026_07_06_17_04_57.919,3.869,29.8,0,0.759,0,0,0,0.003, ,0,0,0,0,0, ,828.6,96.6,541.1,-1.2,-2.1,-2,25,825.832,95.9632,543.377,-0.594939,-0.86178,-1.84304,
2026_07_06_17_04_57.939,3.869,29.8,0,0.757,0,0,0,0.003, ,0,0,0,0,0, ,832.5,94.2,536.2,-0.8,-2,-1.7,25,826.12,95.9289,543.089,-0.619622,-0.934187,-1.84346,
2026_07_06_17_04_57.959,3.869,29.8,0,0.758,0,0,0,0.003, ,0,0,0,0,0, ,829.8,96.4,533,0,-1,-1.3,25,826.426,95.8906,542.571,-0.606239,-0.968666,-1.82253,
2026_07_06_17_04_57.978,3.869,29.8,0,0.758,0,0,0,0.003, ,0,0,0,0,0, ,823.9,96,541.2,0,-0.5,-1.5,25,826.452,95.9094,542.238,-0.569296,-0.955341,-1.79679,
2026_07_06_17_04_57.998,3.869,29.8,0,0.758,0,0,0,0.003, ,0,0,0,0,0, ,823.8,97.9,543,-0.6,-0.7,-2.1,25,826.294,95.9728,542.229,-0.552886,-0.933687,-1.79698,
2026_07_06_17_04_58.017,3.869,29.9,0,0.758,0,0,0,0.003, ,0,0,0,0,0, ,829.9,100,539,-0.6,-0.8,-2.1,25,826.328,96.1543,542.155,-0.555757,-0.922494,-1.81545,
2026_07_06_17_04_58.038,3.869,29.8,0,0.759,0,0,0,0.002, ,0,0,0,0,0, ,828.3,95.5,544,-0.3,-0.3,-1,25,826.496,96.2515,542.115,-0.549313,-0.899795,-1.79927,
2026_07_06_17_04_58.057,3.869,29.8,0,0.758,0,0,0,0.003, ,0,0,0,0,0, ,828.8,92.6,540.2,-0.7,-0.8,-1.8,25,826.622,96.1173,542.114,-0.546308,-0.878479,-1.77494,
2026_07_06_17_04_58.077,3.869,29.8,0,0.758,0,0,0,0.003, ,0,0,0,0,0, ,827.5,93.1,540.4,-0.3,-0.1,-1.9,25,826.715,95.9182,542.003,-0.543486,-0.852369,-1.77951,
2026_07_06_17_04_58.103,3.869,29.8,0,0.758,0,0,0,0.003, ,0,0,0,0,0, ,830.5,94.4,542.1,-0.4,-0.3,-2,25,826.854,95.7861,541.957,-0.531695,-0.812615,-1.7899,
2026_07_06_17_04_58.117,3.869,29.8,0,0.757,0,0,0,0.003, ,0,0,0,0,0, ,830.4,96.1,536.9,-1,-0.1,-1.9,25,827.073,95.7534,541.808,-0.541951,-0.775284,-1.79966,
2026_07_06_17_04_58.137,3.869,29.9,0,0.757,0,0,0,0.003, ,0,0,0,0,0, ,830.4,94.6,546.8,-0.9,-0.1,-1.6,25,827.276,95.7289,541.81,-0.566817,-0.734134,-1.79663,
2026_07_06_17_04_58.156,3.869,29.8,0,0.759,0,0,0,0.002, ,0,0,0,0,0, ,844.8,90.4,564.9,-2,-3.5,-3.8,25,827.905,95.5321,542.666,-0.620636,-0.799085,-1.85168,
2026_07_06_17_04_58.176,3.869,29.8,0,0.758,0,0,0,0.003, ,0,0,0,0,0, ,904.7,110.1,569.5,-4.8,-9.5,-1.2,25,830.76,95.8196,544.161,-0.790003,-1.14648,-1.89119,
2026_07_06_17_04_58.195,3.869,29.8,0,0.758,0,0,0,0.003, ,0,0,0,0,0, ,1035.6,121.9,609.9,-14.5,-23,3.2,25,839.254,97.0493,546.936,-1.32991,-2.06685,-1.71501,
2026_07_06_17_04_58.216,3.869,29.9,0,0.76,0,0,0,0.003, ,0,0,0,0,0, ,1046.5,122.9,598.9,-24.4,-54.4,21,25,851.551,98.5941,550.438,-2.4341,-4.29919,-0.873155,
2026_07_06_17_04_58.235,3.869,29.8,0,0.758,0,0,0,0.002, ,0,0,0,0,0, ,1181.7,44.9,545.6,-23.4,-76.7,40.1,25,867.55,97.6987,551.767,-3.74218,-8.03166,1.04169,
2026_07_06_17_04_58.255,3.869,29.8,0,0.757,0,0,0,0.003, ,0,0,0,0,0, ,1125.2,31.8,517.7,-7.7,-50,51.7,25,884.972,94.0822,550.541,-4.46172,-11.4026,3.77525,
2026_07_06_17_04_58.275,3.869,29.8,0,0.759,0,0,0,0.003, ,0,0,0,0,0, ,929.9,58.4,526.7,1.4,-23.9,51.4,25,893.66,91.0973,548.814,-4.38179,-12.9594,6.68652,
2026_07_06_17_04_58.295,3.869,29.8,0,0.76,0,0,0,0.003, ,0,0,0,0,0, ,805.4,38.5,510.9,-1.4,-11.5,48.8,25,892.075,88.4985,546.985,-4.11477,-13.2483,9.33203,
2026_07_06_17_04_58.314,3.869,29.8,0,0.757,0,0,0,0.003, ,0,0,0,0,0, ,706.4,17.5,454.4,-5.6,-2.4,38.8,25,883.777,84.8119,543.064,-4.07731,-12.8645,11.4324,
2026_07_06_17_04_58.335,3.869,29.8,0,0.757,0,0,0,0.003, ,0,0,0,0,0, ,622.6,-7,418.9,-6.8,-0.7,26.7,25,870.415,79.9636,536.58,-4.20666,-12.175,12.7315,
2026_07_06_17_04_58.355,3.869,29.9,0,0.759,0,0,0,0.003, ,0,0,0,0,0, ,566.2,-32.2,368.7,-5.4,-7.3,15.3,25,853.595,73.8964,527.879,-4.32204,-11.6768,13.2353,
2026_07_06_17_04_58.374,3.869,29.9,0,0.759,0,0,0,0.003, ,0,0,0,0,0, ,552.6,-32.8,330.4,-2.7,-13.5,1.5,25,835.668,67.4129,517.012,-4.30546,-11.599,12.9407,
2026_07_06_17_04_58.394,3.869,29.9,0,0.76,0,0,0,0.003, ,0,0,0,0,0, ,618.2,-50.4,339.7,-0.5,-12.8,-11.5,25,820.417,60.7699,505.924,-4.14059,-11.6936,11.8474,
2026_07_06_17_04_58.413,3.869,29.9,0,0.758,0,0,0,0.003, ,0,0,0,0,0, ,682.1,-22.5,340.9,2.5,-5.4,-20.2,25,810.041,54.8456,495.831,-3.82734,-11.5355,10.1596,
2026_07_06_17_04_58.434,3.869,29.9,0,0.758,0,0,0,0.003, ,0,0,0,0,0, ,743.2,-9.3,369.1,6.7,3.3,-24.6,25,804.107,50.5345,487.249,-3.3138,-10.8965,8.1755,
2026_07_06_17_04_58.453,3.869,29.8,0,0.758,0,0,0,0.003, ,0,0,0,0,0, ,787.2,19,406.7,8.4,6.4,-29.1,25,801.736,47.7506,481.195,-2.65179,-9.93699,6.04113,
2026_07_06_17_04_58.473,3.869,29.8,0,0.758,0,0,0,0.003, ,0,0,0,0,0, ,860.7,50.2,459.4,11.9,2.3,-30.1,25,803.089,46.9492,478.261,-1.87168,-9.06638,3.86925,
2026_07_06_17_04_58.493,3.869,29.9,0,0.759,0,0,0,0.003, ,0,0,0,0,0, ,942.8,53.2,513,10.9,-1.4,-26,25,809.101,47.2387,478.745,-1.06293,-8.48647,1.92417,
2026_07_06_17_04_58.513,3.869,29.8,0,0.757,0,0,0,0.003, ,0,0,0,0,0, ,977.7,56,531.2,7.7,0.5,-18.5,25,818.312,47.6873,481.387,-0.431443,-7.99675,0.45106,
2026_07_06_17_04_58.534,3.869,29.9,0,0.758,0,0,0,0.003, ,0,0,0,0,0, ,982.2,49.8,531.6,6.9,3.2,-14.7,25,828.162,48.005,484.435,0.0396916,-7.39672,-0.587989,
2026_07_06_17_04_58.553,3.869,29.8,0,0.757,0,0,0,0.003, ,0,0,0,0,0, ,958.1,50.9,517.5,4.5,10.5,-11.3,25,836.814,48.1479,486.879,0.384617,-6.52856,-1.34435,
2026_07_06_17_04_58.574,3.869,29.8,0,0.759,0,0,0,0.004, ,0,0,0,0,0, ,936.2,50,506.1,4.1,15,-10.3,25,843.538,48.2882,488.398,0.62321,-5.35377,-1.92055,
2026_07_06_17_04_58.592,3.869,29.9,0,0.758,0,0,0,0.004, ,0,0,0,0,0, ,924.8,50.4,514.4,2.6,13,-7.9,25,848.837,48.4047,489.729,0.789374,-4.1744,-2.35805,
2026_07_06_17_04_58.612,3.869,29.9,0,0.759,0,0,0,0.003, ,0,0,0,0,0, ,913.8,54.5,506.5,0.9,7.3,-6.7,25,853.131,48.6512,490.992,0.847912,-3.30151,-2.6592,
2026_07_06_17_04_58.631,3.869,29.9,0,0.755,0,0,0,0.003, ,0,0,0,0,0, ,920.7,44.9,493.8,1,3.6,-5.2,25,857.038,48.7151,491.55,0.854133,-2.76821,-2.85973,
2026_07_06_17_04_58.651,3.869,29.8,0,0.758,0,0,0,0.003, ,0,0,0,0,0, ,902.9,46.6,481.4,0.7,1.5,-4.5,25,860.375,48.5344,491.309,0.853881,-2.44413,-2.98101,
2026_07_06_17_04_58.670,3.869,30,0,0.76,0,0,0,0.004, ,0,0,0,0,0, ,901.8,48.5,471.9,0.7,0,-4.6,25,862.933,48.4744,490.416,0.844504,-2.24949,-3.07662,
2026_07_06_17_04_58.691,3.869,29.9,0,0.757,0,0,0,0.002, ,0,0,0,0,0, ,907.7,51.5,471.9,1.1,0.7,-3.7,25,865.481,48.5674,489.288,0.847886,-2.09108,-3.14203,
2026_07_06_17_04_58.712,3.869,29.9,0,0.759,0,0,0,0.003, ,0,0,0,0,0, ,900.6,48.2,477.1,1.4,1.9,-2.4,25,867.838,48.6455,488.387,0.87239,-1.88444,-3.13642,
2026_07_06_17_04_58.730,3.869,30,0,0.758,0,0,0,0.003, ,0,0,0,0,0, ,871.9,57.2,474.9,1.7,1.3,-1.2,25,868.96,48.8926,487.632,0.913682,-1.67211,-3.05499,
2026_07_06_17_04_58.750,3.869,29.9,0,0.76,0,0,0,0.002, ,0,0,0,0,0, ,866.2,54.6,479.3,1.6,-0.7,-1.2,25,868.965,49.3196,486.99,0.958551,-1.55193,-2.94195,
2026_07_06_17_04_58.769,3.869,29.8,0,0.758,0,0,0,0.003, ,0,0,0,0,0, ,868.4,53.7,485.7,1.2,-1,-1.3,25,868.864,49.614,486.716,0.985452,-1.50916,-2.83884,
2026_07_06_17_04_58.790,3.869,29.8,0,0.759,0,0,0,0.004, ,0,0,0,0,0, ,856.4,56.2,486.6,1.1,0,-1.9,25,868.47,49.9391,486.682,0.995479,-1.44766,-2.76335,
2026_07_06_17_04_58.810,3.869,29.8,0,0.758,0,0,0,0.004, ,0,0,0,0,0, ,850.8,56.2,481,0.9,-0.3,-3.8,25,867.564,50.3207,486.506,0.995754,-1.36859,-2.76863,
2026_07_06_17_04_58.830,3.869,29.9,0,0.759,0,0,0,0.004, ,0,0,0,0,0, ,846.1,64.6,480.9,-1,-1.5,-2.5,25,866.399,50.9349,486.168,0.932029,-1.34003,-2.79187,
2026_07_06_17_04_58.856,3.869,29.8,0,0.759,0,0,0,0.003, ,0,0,0,0,0, ,878.4,58.4,474.1,-0.4,-3.2,-4.7,25,866.146,51.5787,485.64,0.832577,-1.40158,-2.84112,
2026_07_06_17_04_58.868,3.869,29.8,0,0.759,0,0,0,0.004, ,0,0,0,0,0, ,873,55,482.9,-0.2,0,-2.5,25,866.728,51.8908,485.205,0.763561,-1.41367,-2.88736,
2026_07_06_17_04_58.889,3.869,30,0,0.759,0,0,0,0.004, ,0,0,0,0,0, ,851.3,69.5,476.8,-0.6,-1.4,-3.5,25,866.449,52.522,484.878,0.692656,-1.37018,-2.89423,
2026_07_06_17_04_58.909,3.869,29.8,0,0.758,0,0,0,0.002, ,0,0,0,0,0, ,865.8,61.4,474.4,-0.8,-2.7,-3.6,25,865.968,53.3098,484.313,0.607791,-1.41161,-2.93419,
2026_07_06_17_04_58.928,3.869,29.9,0,0.76,0,0,0,0.004, ,0,0,0,0,0, ,877.3,61.4,477.2,-0.1,-0.4,-3.3,25,866.308,53.8028,483.794,0.543332,-1.42004,-2.96562,
2026_07_06_17_04_58.950,3.869,29.8,0,0.757,0,0,0,0.003, ,0,0,0,0,0, ,875.1,60.1,477.9,-0.3,0.8,-3,25,866.911,54.2262,483.414,0.498035,-1.32132,-2.97685,
2026_07_06_17_04_58.968,3.869,29.9,0,0.758,0,0,0,0.004, ,0,0,0,0,0, ,866.6,57.3,471.5,-0.1,0.5,-2.9,25,867.151,54.4988,482.883,0.455499,-1.20119,-2.97522,
2026_07_06_17_04_58.988,3.869,29.8,0,0.758,0,0,0,0.003, ,0,0,0,0,0, ,869.3,56.2,473.1,0.9,0.2,-2.8,25,867.2,54.636,482.238,0.452117,-1.10666,-2.96759,
2026_07_06_17_04_59.007,3.869,29.9,0,0.759,0,0,0,0.004, ,0,0,0,0,0, ,869,62.8,487.5,0.7,-0.4,-2,25,867.318,54.9324,482.12,0.473316,-1.04532,-2.933,
2026_07_06_17_04_59.027,3.869,29.9,0,0.759,0,0,0,0.003, ,0,0,0,0,0, ,869.1,62.6,485.3,0,-0.6,-2.7,25,867.424,55.4057,482.38,0.465801,-1.01209,-2.89747,
2026_07_06_17_04_59.052,3.869,29.9,0,0.76,0,0,0,0.003, ,0,0,0,0,0, ,875.7,58.7,478.8,0,1.1,-2.9,25,867.727,55.7253,482.36,0.437417,-0.935182,-2.89153,
2026_07_06_17_04_59.067,3.869,30,0,0.76,0,0,0,0.003, ,0,0,0,0,0, ,905.7,52.7,459.7,0.4,2.4,-2.9,25,869.127,55.7237,481.561,0.422949,-0.771554,-2.89205,
2026_07_06_17_04_59.086,3.869,29.9,0,0.759,0,0,0,0.002, ,0,0,0,0,0, ,909.5,58.2,458.1,0.9,5.7,2.3,25,871.472,55.7071,480.18,0.436785,-0.47774,-2.7341,
2026_07_06_17_04_59.106,3.869,29.9,0,0.758,0,0,0,0.003, ,0,0,0,0,0, ,968.3,28.1,456.6,6.3,-4.1,1.9,25,875.58,54.9419,478.789,0.629543,-0.399878,-2.43952,
2026_07_06_17_04_59.126,3.869,29.9,0,0.759,0,0,0,0.003, ,0,0,0,0,0, ,990.2,53.5,450.5,11.4,-36.5,18.5,25,881.898,54.0801,477.251,1.13048,-1.61254,-1.6693,
2026_07_06_17_04_59.146,3.869,29.9,0,0.757,0,0,0,0.003, ,0,0,0,0,0, ,988.4,68.6,460,13.5,-82.2,33.2,25,888.443,54.5048,475.911,1.82026,-5.13092,0.00765859,
2026_07_06_17_04_59.166,3.869,29.9,0,0.76,0,0,0,0.003, ,0,0,0,0,0, ,1016.3,48.3,454.2,11.7,-122.7,44.6,25,895.384,54.7452,474.764,2.47715,-11.0613,2.37766,
2026_07_06_17_04_59.187,3.869,29.9,0,0.76,0,0,0,0.003, ,0,0,0,0,0, ,1019.8,35.7,411.4,8.2,-148.2,55.5,25,902.859,53.9686,472.207,2.93253,-18.6412,5.28269,
2026_07_06_17_04_59.205,3.869,29.9,0,0.758,0,0,0,0.003, ,0,0,0,0,0, ,1005.1,22.4,378.6,9.5,-157.1,59.8,25,909.537,52.4501,467.502,3.29312,-26.8074,8.47383,
2026_07_06_17_04_59.225,3.869,30,0,0.76,0,0,0,0.003, ,0,0,0,0,0, ,957,-4.2,317.1,11,-181.3,65.4,25,913.895,49.8085,460.211,3.71706,-35.4844,11.7721,
2026_07_06_17_04_59.245,3.869,29.9,0,0.76,0,0,0,0.002, ,0,0,0,0,0, ,896.2,-16.8,239.5,10.3,-223.8,72.6,25,914.669,46.1334,449.126,4.13953,-45.665,15.2595,
2026_07_06_17_04_59.265,3.869,30,0,0.757,0,0,0,0.003, ,0,0,0,0,0, ,897.2,-31.1,166.1,22.7,-250.1,66.8,25,913.574,41.8627,434.115,4.89275,-57.3214,18.5769,
2026_07_06_17_04_59.285,3.869,29.9,0,0.76,0,0,0,0.002, ,0,0,0,0,0, ,909.5,-70.3,97.6,15,-250.1,61.2,25,912.951,36.2222,415.696,5.74327,-69.0689,21.3449,
2026_07_06_17_04_59.304,3.869,29.9,0,0.759,0,0,0,0.003, ,0,0,0,0,0, ,970.4,-52.3,35,17.2,-244.2,55.9,25,914.596,30.2794,394.405,6.37438,-79.9207,23.6121,
2026_07_06_17_04_59.325,3.869,29.9,0,0.759,0,0,0,0.003, ,0,0,0,0,0, ,929.9,-78.2,-44.6,8.6,-204.2,48.5,25,916.763,24.4581,370.078,6.77204,-88.7127,25.3542,
2026_07_06_17_04_59.345,3.869,30,0,0.76,0,0,0,0.003, ,0,0,0,0,0, ,890.3,-101.3,-137,8.1,-172.8,37.4,25,916.357,17.4985,341.993,6.8682,-94.7935,26.4264,
2026_07_06_17_04_59.364,3.869,29.9,0,0.758,0,0,0,0.002, ,0,0,0,0,0, ,911.6,-131.2,-185.9,3.1,-192,39.4,25,915.418,9.34823,311.315,6.79091,-100.132,27.156,
2026_07_06_17_04_59.383,3.869,29.9,0,0.76,0,0,0,0.003, ,0,0,0,0,0, ,917.7,-139.6,-254.3,-4.4,-207.7,48.3,25,915.371,0.527632,278.932,6.33748,-106.209,28.1733,
2026_07_06_17_04_59.404,3.869,29.9,0,0.761,0,0,0,0.003, ,0,0,0,0,0, ,884,-154.5,-292.2,-3.6,-166.7,40.2,25,914.486,-8.46538,245.283,5.70754,-111.144,29.153,
2026_07_06_17_04_59.430,3.869,29.9,0,0.758,0,0,0,0.003, ,0,0,0,0,0, ,826.5,-169.4,-309.8,-4.1,-114.3,21,25,910.877,-17.8183,211.994,5.12513,-112.933,29.2412,
2026_07_06_17_04_59.443,3.869,30,0,0.758,0,0,0,0.003, ,0,0,0,0,0, ,792.7,-169.3,-316.2,-13.4,-105.9,13.8,25,904.705,-27.0523,180.002,4.27961,-112.76,28.5196,
2026_07_06_17_04_59.464,3.869,30,0,0.758,0,0,0,0.002, ,0,0,0,0,0, ,772.9,-173.4,-360.9,-28.1,-118.6,18.4,25,897.276,-35.8454,148.403,2.75437,-112.729,27.7628,
2026_07_06_17_04_59.482,3.869,30,0,0.757,0,0,0,0.002, ,0,0,0,0,0, ,774,-177,-430,-40.6,-125.2,21,25,889.731,-44.3374,115.262,0.493325,-113.288,27.2715,
2026_07_06_17_04_59.503,3.869,30,0,0.758,0,0,0,0.002, ,0,0,0,0,0, ,778.6,-190.1,-531.7,-41.1,-105.4,16.9,25,882.819,-52.8206,78.9363,-2.02603,-113.411,26.7644,
2026_07_06_17_04_59.523,3.869,30,0,0.757,0,0,0,0.002, ,0,0,0,0,0, ,748.1,-184,-572.5,-35.7,-77.8,10.3,25,875.538,-61.0002,40.4826,-4.24257,-112.082,25.9622,
2026_07_06_17_04_59.542,3.869,29.9,0,0.76,0,0,0,0.002, ,0,0,0,0,0, ,743.2,-178.5,-606.9,-37.4,-72.9,5.2,25,867.623,-68.328,2.08081,-6.21131,-109.843,24.8524,
2026_07_06_17_04_59.563,3.869,30,0,0.76,0,0,0,0.003, ,0,0,0,0,0, ,764.2,-184.5,-664.7,-37.9,-73.1,6.8,25,860.681,-75.2244,-36.79,-8.1271,-107.598,23.7036,
2026_07_06_17_04_59.582,3.869,30,0,0.758,0,0,0,0.002, ,0,0,0,0,0, ,748.9,-170.4,-718.3,-34.9,-70.7,7,25,854.336,-81.4537,-76.6864,-9.84998,-105.423,22.6796,
2026_07_06_17_04_59.602,3.869,30,0,0.758,0,0,0,0.002, ,0,0,0,0,0, ,745.2,-175.4,-719.2,-27.7,-61,4.5,25,847.798,-87.0263,-115.812,-11.1571,-103.011,21.6479,
2026_07_06_17_04_59.625,3.869,29.9,0,0.76,0,0,0,0.002, ,0,0,0,0,0, ,724.4,-168,-720.7,-22.9,-56.3,1,25,840.912,-92.1861,-152.627,-12.0189,-100.308,20.4963,
2026_07_06_17_04_59.641,3.869,29.9,0,0.759,0,0,0,0.003, ,0,0,0,0,0, ,735.9,-156.9,-724.1,-23.1,-60,3.9,25,834.163,-96.4678,-187.347,-12.6881,-97.739,19.3966,
2026_07_06_17_04_59.661,3.869,30,0,0.76,0,0,0,0.003, ,0,0,0,0,0, ,739.8,-165.5,-750.7,-20.5,-43.1,4.9,25,828.294,-100.412,-220.866,-13.2433,-94.9243,18.4828,
2026_07_06_17_04_59.681,3.869,29.9,0,0.758,0,0,0,0.002, ,0,0,0,0,0, ,710,-146.6,-769.7,-17.1,-17.2,5.5,25,821.993,-103.803,-253.732,-13.5819,-90.9772,17.6734,
2026_07_06_17_04_59.701,3.869,30,0,0.76,0,0,0,0.003, ,0,0,0,0,0, ,674.5,-134.2,-748.7,-13,0.7,5.3,25,814.087,-106.033,-284.534,-13.6714,-85.936,16.9255,
2026_07_06_17_04_59.721,3.869,30,0,0.758,0,0,0,0.002, ,0,0,0,0,0, ,668.8,-141.3,-729.1,-12.2,6.1,3.8,25,805.407,-107.966,-312.222,-13.6061,-80.4921,16.1713,
2026_07_06_17_04_59.740,3.869,29.9,0,0.76,0,0,0,0.002, ,0,0,0,0,0, ,666.1,-148.3,-777.8,-8.6,13.8,1.6,25,797,-110.21,-339.109,-13.4107,-74.9808,15.3504,
2026_07_06_17_04_59.759,3.869,30,0,0.757,0,0,0,0.003, ,0,0,0,0,0, ,688.3,-154.6,-788.2,0.9,36.5,0.4,25,789.7,-112.723,-366.159,-12.8281,-68.879,14.4759,
2026_07_06_17_04_59.780,3.869,30,0,0.757,0,0,0,0.002, ,0,0,0,0,0, ,729.2,-176.2,-773.9,-0.1,62.4,-4.8,25,784.767,-115.933,-391.441,-12.022,-61.6684,13.4598,
2026_07_06_17_04_59.800,3.869,30,0,0.758,0,0,0,0.002, ,0,0,0,0,0, ,710.9,-161.1,-791.8,13.9,107.7,-11.2,25,780.823,-119.146,-415.293,-10.869,-52.7277,12.152,
2026_07_06_17_04_59.824,3.869,30,0,0.76,0,0,0,0.002, ,0,0,0,0,0, ,703.7,-147.4,-732.7,25.8,148,-20.7,25,776.343,-121.285,-436.435,-8.99705,-41.7238,10.4396,
2026_07_06_17_04_59.842,3.869,30.1,0,0.761,0,0,0,0.002, ,0,0,0,0,0, ,730.1,-131.9,-617.6,26.9,167.1,-26.5,25,772.721,-122.404,-450.982,-6.84309,-29.5805,8.36529,
2026_07_06_17_04_59.859,3.869,30,0,0.758,0,0,0,0.002, ,0,0,0,0,0, ,798.2,-130.7,-550.9,20.8,189.8,-28.1,25,772.198,-122.946,-459.103,-4.97273,-16.9037,6.19194,
2026_07_06_17_04_59.879,3.869,30,0,0.757,0,0,0,0.002, ,0,0,0,0,0, ,875.7,-157.1,-523.3,27.8,242.4,-34.3,25,776.144,-124.223,-463.856,-3.18892,-2.705,3.91337,
2026_07_06_17_04_59.898,3.869,30,0,0.758,0,0,0,0.002, ,0,0,0,0,0, ,867.9,-154.2,-505.3,36.3,250.1,-39.9,25,781.973,-126.138,-466.93,-1.04155,12.4657,1.41412,
2026_07_06_17_04_59.919,3.869,30,0,0.759,0,0,0,0.002, ,0,0,0,0,0, ,862.5,-104.3,-412.2,41.5,250.1,-51.9,25,787.045,-126.328,-466.431,1.39239,26.9465,-1.46909,
2026_07_06_17_04_59.939,3.869,30,0,0.76,0,0,0,0.002, ,0,0,0,0,0, ,914.9,-80.6,-282.1,39.2,250.1,-57.7,25,793.24,-124.263,-459.163,3.76637,40.545,-4.71894,
2026_07_06_17_04_59.959,3.869,30,0,0.76,0,0,0,0.002, ,0,0,0,0,0, ,969.7,-71.8,-162.8,30,250.1,-61.1,25,802.323,-121.334,-444.738,5.64529,53.3147,-8.05107,
2026_07_06_17_04_59.978,3.869,30.1,0,0.76,0,0,0,0.002, ,0,0,0,0,0, ,1004.8,-62.5,-33.5,25.5,250.1,-57,25,813.592,-118.033,-423.618,6.9923,65.3063,-11.1588,
2026_07_06_17_04_59.997,3.869,30,0,0.76,0,0,0,0.002, ,0,0,0,0,0, ,992,-53.8,42.4,21.6,250.1,-51.7,25,824.854,-114.383,-397.532,8.00128,76.5672,-13.7908,
2026_07_06_17_05_00.018,3.869,30.1,0,0.759,0,0,0,0.002, ,0,0,0,0,0, ,932.8,-39.5,112.3,22.3,250.1,-51.1,25,833.235,-110.256,-368.594,8.85128,87.1418,-16.0826,
2026_07_06_17_05_00.039,3.869,30,0,0.76,0,0,0,0.002, ,0,0,0,0,0, ,899.4,-9.1,226.5,22,238.3,-52.3,25,838.285,-105.018,-335.81,9.66167,96.7126,-18.253,
2026_07_06_17_05_00.057,3.869,30,0,0.759,0,0,0,0.002, ,0,0,0,0,0, ,870.9,8.7,325.4,18.5,208.2,-52.3,25,841.141,-98.6307,-298.531,10.3069,104.423,-20.3278,
2026_07_06_17_05_00.078,3.869,30,0,0.759,0,0,0,0.002, ,0,0,0,0,0, ,863.1,13.1,406,9.9,182,-47.1,25,842.717,-91.9562,-258.055,10.5441,109.949,-22.1176,
2026_07_06_17_05_00.097,3.869,30,0,0.759,0,0,0,0.002, ,0,0,0,0,0, ,842.5,26.9,447.6,2.7,164.5,-43.4,25,843.331,-85.1338,-216.321,10.2855,113.806,-23.5273,
2026_07_06_17_05_00.117,3.869,29.9,0,0.76,0,0,0,0.002, ,0,0,0,0,0, ,820,27.3,450.3,1.1,151.8,-40.6,25,842.595,-78.2946,-175.781,9.77452,116.509,-24.6529,
2026_07_06_17_05_00.135,3.869,30.1,0,0.76,0,0,0,0.003, ,0,0,0,0,0, ,782.1,41.7,486.5,4.7,132.3,-38.1,25,840.063,-71.4212,-136.526,9.3556,118.065,-25.5485,
2026_07_06_17_05_00.157,3.869,30,0,0.76,0,0,0,0.002, ,0,0,0,0,0, ,760.2,58.3,535.1,4.5,100,-33.8,25,835.864,-64.0221,-97.08,9.06581,117.948,-26.1824,
2026_07_06_17_05_00.175,3.869,30,0,0.76,0,0,0,0.002, ,0,0,0,0,0, ,758.5,71.8,570,2.5,66.6,-30.3,25,831.201,-56.1567,-57.4932,8.72664,115.837,-26.5399,
2026_07_06_17_05_00.196,3.869,30.1,0,0.76,0,0,0,0.002, ,0,0,0,0,0, ,772,77.1,592.7,1.1,44,-27.1,25,827.182,-48.1979,-18.5637,8.30455,112.148,-26.6716,
2026_07_06_17_05_00.215,3.869,30,0,0.758,0,0,0,0.002, ,0,0,0,0,0, ,796.2,76.7,590.9,1.5,36.9,-23.2,25,824.557,-40.5747,18.6303,7.87771,107.779,-26.5788,
2026_07_06_17_05_00.235,3.869,30,0,0.76,0,0,0,0.002, ,0,0,0,0,0, ,797.7,87.7,607.4,4.3,35.8,-21.1,25,822.875,-33.0932,54.0058,7.57438,103.426,-26.309,
2026_07_06_17_05_00.256,3.869,30.1,0,0.757,0,0,0,0.002, ,0,0,0,0,0, ,789.4,97.9,621.2,5.5,27,-19.1,25,821.088,-25.4215,88.1487,7.41141,99.0371,-25.9306,
2026_07_06_17_05_00.274,3.869,30,0,0.758,0,0,0,0.002, ,0,0,0,0,0, ,789.3,103.7,625.9,5,16.8,-15.5,25,819.154,-17.7299,120.775,7.2797,94.3366,-25.4047,
2026_07_06_17_05_00.295,3.869,30,0,0.76,0,0,0,0.002, ,0,0,0,0,0, ,832.3,110.1,647.2,7.4,14.8,-12,25,818.645,-10.1353,152.205,7.2139,89.5507,-24.6945,
2026_07_06_17_05_00.315,3.869,30.1,0,0.757,0,0,0,0.002, ,0,0,0,0,0, ,877,116.3,671.8,8.1,30.7,-6.7,25,820.839,-2.61954,183.118,7.24657,85.4801,-23.7594,
2026_07_06_17_05_00.334,3.869,30,0,0.76,0,0,0,0.002, ,0,0,0,0,0, ,806.6,130.8,677,5,29.5,-3.4,25,822.116,5.06892,213.056,7.20412,82.1054,-22.6193,
2026_07_06_17_05_00.354,3.869,30.1,0,0.76,0,0,0,0.002, ,0,0,0,0,0, ,766.8,127.3,654,3.4,18,-2.1,25,819.958,12.624,240.626,7.02106,78.5493,-21.4085,
2026_07_06_17_05_00.374,3.869,30,0,0.757,0,0,0,0.002, ,0,0,0,0,0, ,748.9,113.6,661.1,3.6,13,-1.1,25,816.173,19.1947,266.033,6.8065,74.7073,-20.2014,
2026_07_06_17_05_00.394,3.869,30,0,0.76,0,0,0,0.002, ,0,0,0,0,0, ,717.7,126.5,678.7,4.4,10.2,-3.4,25,811.123,25.3405,290.643,6.63548,70.8617,-19.1075,
2026_07_06_17_05_00.413,3.869,30.1,0,0.758,0,0,0,0.002, ,0,0,0,0,0, ,723.1,126,681,2,4.6,-4.5,25,805.595,31.4897,314.361,6.42613,66.9945,-18.1839,
2026_07_06_17_05_00.434,3.869,30.1,0,0.76,0,0,0,0.002, ,0,0,0,0,0, ,739.9,127.5,670.8,0.3,0.6,-3.9,25,801.08,37.2946,336.392,6.10461,63.0704,-17.3317,
2026_07_06_17_05_00.454,3.869,30,0,0.758,0,0,0,0.002, ,0,0,0,0,0, ,744.6,125.7,663.3,-0.3,-0.8,-3,25,797.495,42.7367,356.541,5.73261,59.221,-16.4858,
2026_07_06_17_05_00.473,3.869,30,0,0.76,0,0,0,0.002, ,0,0,0,0,0, ,734,124.3,661.8,-0.7,-2.4,-2.2,25,793.948,47.7496,375.189,5.35281,55.5147,-15.6396,
2026_07_06_17_05_00.492,3.869,30.1,0,0.758,0,0,0,0.002, ,0,0,0,0,0, ,725.3,125,659.6,-0.9,-2.7,-2.6,25,790.03,52.4357,392.587,4.97788,51.9764,-14.8329,
2026_07_06_17_05_00.513,3.869,30,0,0.758,0,0,0,0.002, ,0,0,0,0,0, ,727.5,126.2,652.2,-0.9,-1.6,-2.9,25,786.153,56.8942,408.633,4.61969,48.6781,-14.0966,
2026_07_06_17_05_00.533,3.869,30,0,0.76,0,0,0,0.002, ,0,0,0,0,0, ,734.8,126.9,655.7,-0.3,-1,-3.1,25,782.801,61.1388,423.582,4.30162,45.6325,-13.4204,
2026_07_06_17_05_00.552,3.869,30,0,0.76,0,0,0,0.002, ,0,0,0,0,0, ,745.6,131.1,655.7,-0.8,-0.8,-2.7,25,780.205,65.2741,437.726,4.00597,42.7969,-12.7793,
2026_07_06_17_05_00.572,3.869,30.2,0,0.76,0,0,0,0.002, ,0,0,0,0,0, ,746,125.2,651.1,-1.1,-1.5,-2.6,25,778.108,69.1056,450.869,3.70397,40.1189,-12.162,
2026_07_06_17_05_00.592,3.869,30.2,0,0.76,0,0,0,0.001, ,0,0,0,0,0, ,742.4,129,656.7,-1.2,-2,-2.5,25,776.042,72.6396,463.241,3.40818,37.5675,-11.5763,
2026_07_06_17_05_00.612,3.869,30,0,0.758,0,0,0,0.001, ,0,0,0,0,0, ,740.9,127.9,652.7,-1.6,-2.3,-2.5,25,773.946,76.0406,474.908,3.11518,35.1473,-11.0232,
2026_07_06_17_05_00.631,3.869,29.9,0,0.76,0,0,0,0.002, ,0,0,0,0,0, ,743.6,125.9,654.1,-1.5,-2.4,-2.5,25,772.015,79.1398,485.785,2.8309,32.8623,-10.5038,
2026_07_06_17_05_00.650,3.869,30,0,0.76,0,0,0,0.003, ,0,0,0,0,0, ,737.1,126.3,655.3,-1.6,-2.1,-2.2,25,770.085,82.0015,496.078,2.56394,30.7226,-10.0069,
2026_07_06_17_05_00.671,3.869,30.1,0,0.758,0,0,0,0.002, ,0,0,0,0,0, ,733.7,123.2,649.1,-2.1,-2.7,-2.9,25,767.972,84.6064,505.592,2.29496,28.7042,-9.55254,
2026_07_06_17_05_00.691,3.869,30,0,0.76,0,0,0,0.002, ,0,0,0,0,0, ,747,127.6,650.5,-1.6,-1.7,-3.6,25,766.288,87.0923,514.38,2.04238,26.821,-9.16848,
2026_07_06_17_05_00.712,3.869,30.1,0,0.758,0,0,0,0.002, ,0,0,0,0,0, ,752.9,128.6,650.8,-1.6,-2,-3.1,25,765.293,89.5912,522.684,1.82042,25.0738,-8.81391,
2026_07_06_17_05_00.730,3.869,30,0,0.758,0,0,0,0.002, ,0,0,0,0,0, ,748,125.4,646.1,-1.1,-1.8,-1.9,25,764.388,91.8708,530.348,1.62722,23.4301,-8.42916,
2026_07_06_17_05_00.750,3.869,30,0,0.758,0,0,0,0.002, ,0,0,0,0,0, ,740.4,125.6,652.2,-0.5,-1.3,-2.3,25,763.158,93.9201,537.587,1.47931,21.9079,-8.04348,
2026_07_06_17_05_00.770,3.869,30.2,0,0.757,0,0,0,0.002, ,0,0,0,0,0, ,739.6,126.3,655,-0.8,-1.4,-2.2,25,761.747,95.8719,544.657,1.34956,20.4906,-7.69044,
2026_07_06_17_05_00.790,3.869,30.1,0,0.76,0,0,0,0.001, ,0,0,0,0,0, ,745.8,128,653.9,-1.6,-2.5,-2.5,25,760.586,97.7779,551.347,1.1942,19.1231,-7.365,
2026_07_06_17_05_00.810,3.869,30,0,0.758,0,0,0,0.001, ,0,0,0,0,0, ,745.2,124.3,645.6,-1.5,-2.1,-2.7,25,759.667,99.5068,557.344,1.02697,17.8177,-7.07464,
2026_07_06_17_05_00.830,3.869,30.1,0,0.76,0,0,0,0.002, ,0,0,0,0,0, ,737.9,124.8,649.6,-1.2,-1.8,-2.8,25,758.563,101.033,562.844,0.882124,16.6131,-6.8111,
2026_07_06_17_05_00.850,3.869,30.1,0,0.758,0,0,0,0.001, ,0,0,0,0,0, ,741.3,128.9,651.1,-1.7,-1.9,-2.9,25,757.407,102.606,568.176,0.74001,15.488,-6.56972,
2026_07_06_17_05_00.869,3.869,30.2,0,0.761,0,0,0,0.001, ,0,0,0,0,0, ,753.9,128.9,647.7,-1.7,-2,-2.7,25,756.81,104.208,573.126,0.591322,14.4254,-6.34001,
2026_07_06_17_05_00.889,3.869,30.1,0,0.758,0,0,0,0.001, ,0,0,0,0,0, ,748.2,128.9,647,-1.3,-2,-2.2,25,756.459,105.713,577.649,0.463882,13.4244,-6.10296,
2026_07_06_17_05_00.910,3.869,30,0,0.76,0,0,0,0.001, ,0,0,0,0,0, ,736.6,129.2,648,-1.2,-2,-2.1,25,755.602,107.135,581.905,0.359443,12.4845,-5.86208,
2026_07_06_17_05_00.928,3.869,30.1,0,0.76,0,0,0,0.002, ,0,0,0,0,0, ,739.8,128.9,647.2,-0.8,-1.4,-2.5,25,754.542,108.471,585.908,0.276602,11.6201,-5.64501,
2026_07_06_17_05_00.948,3.869,30.2,0,0.76,0,0,0,0.001, ,0,0,0,0,0, ,745.1,129.2,643.4,-0.5,-1,-2.8,25,753.805,109.725,589.528,0.220137,10.8389,-5.4625,
2026_07_06_17_05_00.968,3.869,30.1,0,0.761,0,0,0,0.001, ,0,0,0,0,0, ,750.6,129.3,652.5,-1,-1.9,-2.5,25,753.442,110.914,593.088,0.161019,10.0901,-5.29112,
2026_07_06_17_05_00.989,3.869,30.1,0,0.76,0,0,0,0.001, ,0,0,0,0,0, ,744.2,126.7,646.3,-1.5,-2.9,-2.1,25,753.074,111.956,596.519,0.0750351,9.32895,-5.10885,
2026_07_06_17_05_01.008,3.869,30,0,0.76,0,0,0,0.001, ,0,0,0,0,0, ,742.3,124.1,645.2,-1.4,-3,-2.9,25,752.475,112.775,599.519,-0.0178967,8.5807,-4.94987,
2026_07_06_17_05_01.028,3.869,30.1,0,0.76,0,0,0,0.002, ,0,0,0,0,0, ,750.4,124.1,641.6,-1.6,-2.5,-2.7,25,752.102,113.465,602.193,-0.108212,7.89023,-4.81886,
2026_07_06_17_05_01.048,3.869,30.2,0,0.76,0,0,0,0.001, ,0,0,0,0,0, ,748.4,125.1,640.3,-1,-1.9,-2.3,25,751.937,114.144,604.555,-0.180837,7.27536,-4.67756,
2026_07_06_17_05_01.068,3.869,30.2,0,0.76,0,0,0,0.001, ,0,0,0,0,0, ,749.7,123.5,644.6,-0.9,-0.9,-2.5,25,751.761,114.762,606.864,-0.227708,6.74671,-4.53877,
2026_07_06_17_05_01.087,3.869,30.1,0,0.758,0,0,0,0.001, ,0,0,0,0,0, ,745.6,128.4,646.9,-0.8,-0.9,-2.1,25,751.511,115.444,609.234,-0.265629,6.28073,-4.40234,
2026_07_06_17_05_01.111,3.869,30.1,0,0.76,0,0,0,0.001, ,0,0,0,0,0, ,750.7,127.9,642.4,-1.3,-0.7,-2.4,25,751.306,116.218,611.392,-0.313426,5.84925,-4.27118,
2026_07_06_17_05_01.127,3.869,30,0,0.76,0,0,0,0.001, ,0,0,0,0,0, ,748.7,128,639.1,-1.1,-0.1,-2.5,25,751.208,116.933,613.181,-0.367452,5.46844,-4.16021,
2026_07_06_17_05_01.146,3.869,30.1,0,0.758,0,0,0,0.002, ,0,0,0,0,0, ,745.1,129.5,645.9,-0.8,-0.1,-2.5,25,750.946,117.653,614.968,-0.402951,5.12911,-4.05904,
2026_07_06_17_05_01.166,3.869,30.1,0,0.758,0,0,0,0.001, ,0,0,0,0,0, ,746.8,129.6,638.7,-0.4,0.4,-2.7,25,750.641,118.378,616.633,-0.414959,4.8257,-3.97013,
2026_07_06_17_05_01.186,3.869,30,0,0.758,0,0,0,0.001, ,0,0,0,0,0, ,747.5,128.6,650.7,-0.2,0.9,-2.5,25,750.428,119.032,618.344,-0.407953,4.57124,-3.88663,
2026_07_06_17_05_01.205,3.869,30.1,0,0.76,0,0,0,0.002, ,0,0,0,0,0, ,747.6,129.5,645.5,-0.6,0,-2.6,25,750.253,119.642,620.157,-0.407469,4.3201,-3.80518,
2026_07_06_17_05_01.226,3.869,30.1,0,0.76,0,0,0,0.001, ,0,0,0,0,0, ,745.8,131.5,648.4,-0.8,0.2,-2.7,25,750.036,120.304,621.79,-0.425295,4.06294,-3.73479,
2026_07_06_17_05_01.246,3.869,30.1,0,0.761,0,0,0,0.001, ,0,0,0,0,0, ,746.2,130.3,653.6,-1.6,-1,-2.5,25,749.791,120.95,623.57,-0.472503,3.79098,-3.66564,
2026_07_06_17_05_01.265,3.869,30.1,0,0.761,0,0,0,0.001, ,0,0,0,0,0, ,745.7,130.6,652,-1.8,-1.8,-2.5,25,749.556,121.528,625.351,-0.547304,3.47465,-3.59461,
2026_07_06_17_05_01.286,3.869,30.2,0,0.758,0,0,0,0.001, ,0,0,0,0,0, ,746.8,127.3,646.9,-1.6,-1.8,-2.1,25,749.355,121.981,626.819,-0.617546,3.15323,-3.51572,
2026_07_06_17_05_01.305,3.869,30.1,0,0.757,0,0,0,0, ,0,0,0,0,0, ,741.4,127.3,646.8,-1.2,-1.9,-2.3,25,749.035,122.305,628.04,-0.665227,2.84835,-3.43554,
2026_07_06_17_05_01.326,3.869,30.1,0,0.758,0,0,0,0.001, ,0,0,0,0,0, ,743,129.7,645.6,-1.1,-1.6,-2.5,25,748.618,122.682,629.147,-0.694768,2.56813,-3.37244,
2026_07_06_17_05_01.346,3.869,30.1,0,0.76,0,0,0,0.001, ,0,0,0,0,0, ,750.6,132.3,640,-1.2,-1.6,-2.6,25,748.507,123.189,629.979,-0.722509,2.31414,-3.32232,
2026_07_06_17_05_01.364,3.869,30.1,0,0.76,0,0,0,0.001, ,0,0,0,0,0, ,751.8,131.3,641.7,-1.3,-1.2,-2.2,25,748.672,123.714,630.641,-0.754653,2.08781,-3.26612,
2026_07_06_17_05_01.384,3.869,30.1,0,0.761,0,0,0,0.001, ,0,0,0,0,0, ,750.4,127.1,639.4,-1.3,-1,-2.5,25,748.82,124.048,631.245,-0.787885,1.89355,-3.21029,
2026_07_06_17_05_01.404,3.869,30.2,0,0.76,0,0,0,0.001, ,0,0,0,0,0, ,747.9,128.5,640.3,-1.1,-0.2,-2.4,25,748.84,124.277,631.769,-0.812998,1.7416,-3.16396,
2026_07_06_17_05_01.425,3.869,30.1,0,0.76,0,0,0,0, ,0,0,0,0,0, ,746,131.3,644.8,-0.4,0.5,-2.2,25,748.725,124.62,632.426,-0.809159,1.64461,-3.11131,
2026_07_06_17_05_01.443,3.869,30.2,0,0.76,0,0,0,0.001, ,0,0,0,0,0, ,743.4,135.2,661.2,-0.8,-1.1,-2.2,25,748.479,125.145,633.68,-0.796413,1.52611,-3.05578,
2026_07_06_17_05_01.463,3.869,30.1,0,0.76,0,0,0,0, ,0,0,0,0,0, ,744.2,131.5,654.2,-1.5,-2.4,-1.7,25,748.194,125.645,635.144,-0.81796,1.32647,-2.9884,
2026_07_06_17_05_01.483,3.869,30.2,0,0.76,0,0,0,0.001, ,0,0,0,0,0, ,743.2,127.1,646.8,-1.6,-3.1,-1.8,25,747.92,125.868,636.079,-0.862569,1.07806,-2.91293,
2026_07_06_17_05_01.503,3.869,30.2,0,0.76,0,0,0,0, ,0,0,0,0,0, ,746.7,127.5,641.3,-1.8,-3.3,-2.1,25,747.739,125.955,636.565,-0.9136,0.81737,-2.85425,
2026_07_06_17_05_01.523,3.869,30.1,0,0.759,0,0,0,0, ,0,0,0,0,0, ,749.6,128,640,-1.7,-2.6,-2.1,25,747.764,126.065,636.814,-0.964568,0.587796,-2.80829,
2026_07_06_17_05_01.543,3.869,30.2,0,0.76,0,0,0,0.001, ,0,0,0,0,0, ,750,126.8,634,-1.6,-2,-2.3,25,747.888,126.146,636.825,-1.00634,0.411821,-2.77122,
2026_07_06_17_05_01.563,3.869,30.2,0,0.762,0,0,0,0, ,0,0,0,0,0, ,746.8,127.8,638.1,-1.2,-1.1,-2.7,25,747.92,126.216,636.778,-1.03033,0.292272,-2.7547,
2026_07_06_17_05_01.582,3.869,30.2,0,0.761,0,0,0,0, ,0,0,0,0,0, ,749.7,133.5,642.9,-0.6,-0.7,-2.7,25,747.94,126.487,637.005,-1.02238,0.219618,-2.75136,
2026_07_06_17_05_01.603,3.869,30.1,0,0.76,0,0,0,0, ,0,0,0,0,0, ,752.3,128.4,637.2,-0.5,-0.9,-2.3,25,748.126,126.759,637.19,-0.993598,0.157485,-2.73604,
2026_07_06_17_05_01.622,3.869,30.1,0,0.762,0,0,0,0.001, ,0,0,0,0,0, ,750.9,127.6,640.8,-0.5,-0.3,-2.8,25,748.338,126.834,637.301,-0.963519,0.111326,-2.72471,
2026_07_06_17_05_01.641,3.869,30.1,0,0.762,0,0,0,0.001, ,0,0,0,0,0, ,749.7,130.6,644.8,-0.9,0,-2.2,25,748.457,126.972,637.636,-0.947461,0.0954013,-2.71101,
2026_07_06_17_05_01.662,3.869,30.1,0,0.76,0,0,0,0.001, ,0,0,0,0,0, ,748.7,130,645.5,-0.9,-0.6,-2.1,25,748.503,127.175,638.094,-0.944569,0.0713066,-2.67683,
2026_07_06_17_05_01.681,3.869,30.1,0,0.76,0,0,0,0.001, ,0,0,0,0,0, ,747.4,130.6,646.2,-1,-1,-2.3,25,748.475,127.366,638.566,-0.9449,0.0182113,-2.64777,
2026_07_06_17_05_01.701,3.869,30,0,0.761,0,0,0,0.001, ,0,0,0,0,0, ,749.1,129.8,640.2,-1.2,-1.4,-2.2,25,748.461,127.538,638.849,-0.954351,-0.0560234,-2.62353,
2026_07_06_17_05_01.721,3.869,30.2,0,0.76,0,0,0,0.002, ,0,0,0,0,0, ,750.2,131.4,643.1,-1,-1.6,-2.1,25,748.534,127.725,639.019,-0.963227,-0.144016,-2.59468,
2026_07_06_17_05_01.741,3.869,30.1,0,0.76,0,0,0,0, ,0,0,0,0,0, ,748,130.1,642.2,-1.2,-2,-1.8,25,748.568,127.909,639.241,-0.971561,-0.244927,-2.55539,
2026_07_06_17_05_01.760,3.869,30.2,0,0.76,0,0,0,0.001, ,0,0,0,0,0, ,749.8,128.4,639.8,-1.6,-2.4,-2,25,748.589,127.991,639.348,-0.997669,-0.364064,-2.51545,
2026_07_06_17_05_01.780,3.869,30.2,0,0.76,0,0,0,0, ,0,0,0,0,0, ,751,126.7,632.6,-1.4,-1.3,-2.2,25,748.699,127.964,639.156,-1.02828,-0.454614,-2.49014,
2026_07_06_17_05_01.800,3.869,30.3,0,0.761,0,0,0,0, ,0,0,0,0,0, ,751.7,127.4,634.5,-0.4,0,-2.3,25,748.86,127.908,638.814,-1.02046,-0.46652,-2.4755,
2026_07_06_17_05_01.821,3.869,30.1,0,0.759,0,0,0,0, ,0,0,0,0,0, ,752.3,131.1,638.7,0,1,-2.4,25,749.052,127.99,638.68,-0.970466,-0.407623,-2.46786,
2026_07_06_17_05_01.839,3.869,30.2,0,0.759,0,0,0,0.001, ,0,0,0,0,0, ,751,132.9,644.5,-0.5,0.3,-2.2,25,749.21,128.234,638.857,-0.926563,-0.343174,-2.45763,
2026_07_06_17_05_01.859,3.869,30.2,0,0.76,0,0,0,0, ,0,0,0,0,0, ,743.2,136.4,632,-1.1,0.5,-1.6,25,749.082,128.625,638.82,-0.91885,-0.297887,-2.42365,
2026_07_06_17_05_01.879,3.869,30.2,0,0.76,0,0,0,0, ,0,0,0,0,0, ,744.8,129,645.5,-0.4,1.1,-1.9,25,748.772,128.874,638.816,-0.908561,-0.230984,-2.3826,
2026_07_06_17_05_01.899,3.869,30.2,0,0.76,0,0,0,0, ,0,0,0,0,0, ,748.1,129.6,648.8,-0.6,0.2,-1.8,25,748.63,128.9,639.324,-0.883664,-0.177299,-2.35014,
2026_07_06_17_05_01.918,3.869,30.2,0,0.761,0,0,0,0, ,0,0,0,0,0, ,752.9,131.3,650.5,-1.2,-0.4,-2.1,25,748.744,128.994,639.953,-0.88466,-0.172589,-2.32576,
2026_07_06_17_05_01.938,3.869,30.2,0,0.76,0,0,0,0, ,0,0,0,0,0, ,751.2,130.3,651.3,-1.8,-2.1,-2.1,25,748.946,129.104,640.62,-0.922157,-0.238244,-2.312,
2026_07_06_17_05_01.958,3.869,30.2,0,0.759,0,0,0,0, ,0,0,0,0,0, ,747.9,125.1,633.3,-1.5,-1.6,-1.9,25,748.983,129.019,640.723,-0.96651,-0.33646,-2.29299,
2026_07_06_17_05_01.978,3.869,30,0,0.761,0,0,0,0, ,0,0,0,0,0, ,747.1,127.9,637,-0.4,-0.4,-2,25,748.892,128.865,640.383,-0.965504,-0.376894,-2.27209,
2026_07_06_17_05_01.998,3.869,30.1,0,0.76,0,0,0,0.002, ,0,0,0,0,0, ,747,131.1,640,-0.2,-0.1,-1.9,25,748.78,128.904,640.268,-0.92495,-0.369162,-2.25246,
2026_07_06_17_05_02.018,3.869,30.2,0,0.758,0,0,0,0.001, ,0,0,0,0,0, ,748.9,134.6,647,-0.6,-0.8,-1.8,25,748.729,129.144,640.465,-0.892961,-0.374088,-2.22793,
2026_07_06_17_05_02.038,3.869,30.1,0,0.76,0,0,0,0, ,0,0,0,0,0, ,747.8,131.1,646.3,-1.1,-1.2,-1.8,25,748.706,129.37,640.842,-0.890343,-0.412229,-2.20186,
2026_07_06_17_05_02.058,3.869,30.1,0,0.759,0,0,0,0.001, ,0,0,0,0,0, ,744.2,125.4,637.8,-1.6,-1.7,-2.3,25,748.541,129.302,640.916,-0.918353,-0.475469,-2.1926,
2026_07_06_17_05_02.076,3.869,30.1,0,0.758,0,0,0,0.001, ,0,0,0,0,0, ,748.2,123,635.4,-0.6,-0.4,-2.8,25,748.399,128.991,640.653,-0.929422,-0.510479,-2.21438,
2026_07_06_17_05_02.097,3.869,30.2,0,0.76,0,0,0,0.001, ,0,0,0,0,0, ,754.3,128,635.6,-0.3,0.7,-2.6,25,748.572,128.778,640.339,-0.900207,-0.470231,-2.24397,
2026_07_06_17_05_02.116,3.869,30.2,0,0.76,0,0,0,0, ,0,0,0,0,0, ,758,129.5,641.2,-0.3,0.8,-2.6,25,749.034,128.777,640.221,-0.863632,-0.395873,-2.26567,
2026_07_06_17_05_02.137,3.869,30.1,0,0.76,0,0,0,0, ,0,0,0,0,0, ,750,129.7,642.8,-0.2,1,-1.9,25,749.337,128.827,640.329,-0.826239,-0.316906,-2.26472,
2026_07_06_17_05_02.156,3.869,30.1,0,0.759,0,0,0,0.001, ,0,0,0,0,0, ,741.4,128.6,650.2,0,0.7,-1.8,25,749.115,128.846,640.705,-0.781984,-0.245798,-2.23944,
2026_07_06_17_05_02.175,3.869,30.1,0,0.759,0,0,0,0.001, ,0,0,0,0,0, ,741.6,134.7,648.1,-0.4,0,-2,25,748.651,129.017,641.22,-0.746519,-0.209491,-2.21876,
2026_07_06_17_05_02.196,3.869,30.1,0,0.76,0,0,0,0.001, ,0,0,0,0,0, ,748.7,129.8,644.6,-1.1,-0.4,-2,25,748.438,129.214,641.532,-0.746731,-0.208913,-2.20543,
2026_07_06_17_05_02.215,3.869,30.1,0,0.761,0,0,0,0.001, ,0,0,0,0,0, ,752.9,127.8,638.1,-0.7,-0.2,-1.8,25,748.582,129.189,641.521,-0.756071,-0.214464,-2.18682,
2026_07_06_17_05_02.235,3.869,30.1,0,0.761,0,0,0,0.001, ,0,0,0,0,0, ,748.4,130,644.1,-0.3,-0.2,-1.6,25,748.708,129.171,641.496,-0.740467,-0.213582,-2.15715,
2026_07_06_17_05_02.255,3.869,30.2,0,0.76,0,0,0,0.001, ,0,0,0,0,0, ,743.5,128.7,644.2,-0.4,-0.2,-1.8,25,748.54,129.182,641.657,-0.716673,-0.212754,-2.12929,
2026_07_06_17_05_02.275,3.869,30.2,0,0.761,0,0,0,0, ,0,0,0,0,0, ,748.6,131.4,646.9,-0.7,-0.8,-2,25,748.388,129.235,641.895,-0.706516,-0.230259,-2.11532,
2026_07_06_17_05_02.295,3.869,30.2,0,0.76,0,0,0,0, ,0,0,0,0,0, ,746,131.5,650.8,-1.4,-1.4,-1.8,25,748.322,129.37,642.318,-0.727447,-0.283258,-2.1022,
2026_07_06_17_05_02.315,3.869,30.2,0,0.76,0,0,0,0, ,0,0,0,0,0, ,742.5,127.8,641.6,-1.5,-1.8,-1.8,25,748.074,129.387,642.555,-0.771478,-0.363497,-2.08378,
2026_07_06_17_05_02.335,3.869,30.2,0,0.759,0,0,0,0, ,0,0,0,0,0, ,749.1,126.7,637.9,-0.7,-0.9,-2.2,25,747.935,129.257,642.384,-0.791497,-0.423612,-2.07868,
2026_07_06_17_05_02.353,3.869,30.1,0,0.76,0,0,0,0, ,0,0,0,0,0, ,755.3,129.7,641.1,-0.2,0.1,-2,25,748.195,129.193,642.208,-0.770687,-0.422173,-2.07998,
2026_07_06_17_05_02.374,3.869,30.2,0,0.759,0,0,0,0, ,0,0,0,0,0, ,749.2,129.3,645.6,-0.7,-0.2,-1.6,25,748.442,129.211,642.278,-0.751145,-0.399494,-2.06292,
2026_07_06_17_05_02.394,3.869,30.1,0,0.756,0,0,0,0, ,0,0,0,0,0, ,742.7,127.5,645.1,-1.1,-0.6,-1.8,25,748.29,129.162,642.465,-0.760216,-0.399525,-2.0408,
2026_07_06_17_05_02.413,3.869,30.1,0,0.76,0,0,0,0, ,0,0,0,0,0, ,747.3,125.9,635.4,-0.9,-0.1,-2.1,25,748.09,129.012,642.33,-0.774828,-0.396507,-2.03527,
2026_07_06_17_05_02.434,3.869,30.1,0,0.76,0,0,0,0, ,0,0,0,0,0, ,747.3,129.7,636.2,-0.9,1.1,-2.8,25,748.042,128.938,641.932,-0.782456,-0.341876,-2.06054,
2026_07_06_17_05_02.453,3.869,30.2,0,0.758,0,0,0,0, ,0,0,0,0,0, ,747.4,131.8,642.9,-1,2,-2.7,25,747.999,129.048,641.787,-0.792665,-0.22659,-2.10255,
2026_07_06_17_05_02.473,3.869,30.2,0,0.76,0,0,0,0, ,0,0,0,0,0, ,742.5,129.1,656.3,-0.8,1.2,-3,25,747.814,129.134,642.263,-0.799206,-0.115282,-2.1481,
2026_07_06_17_05_02.493,3.869,30.1,0,0.758,0,0,0,0, ,0,0,0,0,0, ,735.1,138.9,655.6,-1.6,-0.4,-3.3,25,747.264,129.43,643.097,-0.823629,-0.0838821,-2.20916,
2026_07_06_17_05_02.513,3.869,30.2,0,0.759,0,0,0,0, ,0,0,0,0,0, ,740.9,131.4,646.4,-1.5,-1.3,-3.3,25,746.7,129.779,643.579,-0.867893,-0.130567,-2.27563,
2026_07_06_17_05_02.532,3.869,30.2,0,0.761,0,0,0,0, ,0,0,0,0,0, ,749.8,131.5,646.3,-1.2,-1.9,-2.6,25,746.618,129.881,643.748,-0.897271,-0.220111,-2.31672,
2026_07_06_17_05_02.552,3.869,30.2,0,0.76,0,0,0,0, ,0,0,0,0,0, ,742.9,131.3,639.7,-1.1,-2.1,-2.4,25,746.601,129.973,643.702,-0.912672,-0.328573,-2.32789,
2026_07_06_17_05_02.572,3.869,30.1,0,0.761,0,0,0,0, ,0,0,0,0,0, ,751.8,128.6,640.3,-1,-1.3,-2.2,25,746.647,129.972,643.476,-0.92104,-0.412144,-2.32619,
2026_07_06_17_05_02.592,3.869,30.2,0,0.76,0,0,0,0, ,0,0,0,0,0, ,745.2,130.3,640.1,-0.7,-1,-1.8,25,746.76,129.94,643.277,-0.916711,-0.457107,-2.30631,
2026_07_06_17_05_02.612,3.869,30.2,0,0.759,0,0,0,0, ,0,0,0,0,0, ,748.1,130.3,647.8,-0.9,-0.7,-2.1,25,746.753,129.962,643.318,-0.909599,-0.481049,-2.2846,
2026_07_06_17_05_02.631,3.869,30.2,0,0.759,0,0,0,0, ,0,0,0,0,0, ,743,127.5,644.2,-0.7,-0.9,-2.1,25,746.68,129.897,643.481,-0.90292,-0.500485,-2.27335,
2026_07_06_17_05_02.651,3.869,30.1,0,0.759,0,0,0,0, ,0,0,0,0,0, ,740.2,132,639.6,-0.5,0.2,-2.4,25,746.37,129.888,643.385,-0.884461,-0.491315,-2.27193,
2026_07_06_17_05_02.671,3.869,30.2,0,0.759,0,0,0,0, ,0,0,0,0,0, ,747.8,132.4,643.5,0.2,1.1,-2.4,25,746.226,130.029,643.273,-0.839705,-0.421766,-2.27973,
2026_07_06_17_05_02.690,3.869,30.2,0,0.76,0,0,0,0, ,0,0,0,0,0, ,749,135.1,649.4,0.2,1,-2.1,25,746.358,130.256,643.467,-0.776348,-0.33208,-2.27792,
2026_07_06_17_05_02.711,3.869,30.1,0,0.759,0,0,0,0, ,0,0,0,0,0, ,746.2,132.4,655.7,-0.7,-0.4,-1.5,25,746.434,130.469,644.02,-0.744274,-0.293563,-2.2488,
2026_07_06_17_05_02.731,3.869,30.2,0,0.758,0,0,0,0, ,0,0,0,0,0, ,741.6,132.4,650.7,-0.9,-1.6,-1.7,25,746.28,130.587,644.58,-0.747669,-0.336612,-2.20926,
2026_07_06_17_05_02.754,3.869,30.2,0,0.758,0,0,0,0, ,0,0,0,0,0, ,744,129.7,641.1,-0.9,-1.6,-1.8,25,746.068,130.615,644.66,-0.756952,-0.413599,-2.18128,
2026_07_06_17_05_02.770,3.869,30.2,0,0.759,0,0,0,0, ,0,0,0,0,0, ,748.1,127.8,641.9,-1.1,-1.4,-1.6,25,746.066,130.501,644.467,-0.771763,-0.479802,-2.15195,
2026_07_06_17_05_02.790,3.869,30.2,0,0.759,0,0,0,0, ,0,0,0,0,0, ,746.5,132.5,648.5,-1,-1.9,-1.8,25,746.142,130.48,644.512,-0.788718,-0.551111,-2.12441,
2026_07_06_17_05_02.809,3.869,30.1,0,0.759,0,0,0,0, ,0,0,0,0,0, ,743,131.4,646.9,-1,-1.8,-1.7,25,746.057,130.569,644.706,-0.801593,-0.630262,-2.10159,
2026_07_06_17_05_02.829,3.869,30.1,0,0.76,0,0,0,0, ,0,0,0,0,0, ,745.6,133.4,644.8,-0.9,-1.9,-1.8,25,745.95,130.681,644.776,-0.810636,-0.70459,-2.08017,
2026_07_06_17_05_02.849,3.869,30.1,0,0.76,0,0,0,0, ,0,0,0,0,0, ,747.1,130.4,643,-1.3,-2.1,-1.6,25,745.974,130.755,644.723,-0.82827,-0.783529,-2.057,
2026_07_06_17_05_02.869,3.869,30.2,0,0.758,0,0,0,0, ,0,0,0,0,0, ,742,133.1,639.6,-1.1,-1.8,-1.6,25,745.887,130.816,644.514,-0.850922,-0.854611,-2.02915,
2026_07_06_17_05_02.889,3.869,30.1,0,0.76,0,0,0,0, ,0,0,0,0,0, ,742.1,128.9,644.2,-1.3,-1.5,-2.3,25,745.654,130.827,644.355,-0.872194,-0.90308,-2.02433,
2026_07_06_17_05_02.908,3.869,30.2,0,0.759,0,0,0,0, ,0,0,0,0,0, ,747.9,129.3,648.8,-1.7,-2.4,-2.7,25,745.614,130.722,644.486,-0.910451,-0.966876,-2.05332,
2026_07_06_17_05_02.928,3.869,30.1,0,0.76,0,0,0,0, ,0,0,0,0,0, ,749,129.5,636.7,-2.1,-2.3,-2.9,25,745.787,130.641,644.38,-0.970751,-1.05116,-2.09882,
2026_07_06_17_05_02.948,3.869,30.2,0,0.76,0,0,0,0, ,0,0,0,0,0, ,640.2,137.3,611.3,-0.1,-3,-6,25,742.667,130.809,643.138,-0.978627,-1.14859,-2.24209,
2026_07_06_17_05_02.968,3.869,30.2,0,0.761,0,0,0,0, ,0,0,0,0,0, ,754.7,112.4,647,-0.9,1.4,-3.7,25,739.912,130.446,642.285,-0.949461,-1.12735,-2.40101,
2026_07_06_17_05_02.988,3.869,30.2,0,0.759,0,0,0,0, ,0,0,0,0,0, ,753.7,135.1,633.4,-0.3,0.9,-2.6,25,740.783,130.038,642.158,-0.928166,-0.988572,-2.44665,
2026_07_06_17_05_03.013,3.869,30.1,0,0.759,0,0,0,0, ,0,0,0,0,0, ,762.8,135.6,654.4,-0.5,-0.6,-2.4,25,741.847,130.362,642.265,-0.895981,-0.91919,-2.4499,
2026_07_06_17_05_03.028,3.869,30.2,0,0.76,0,0,0,0, ,0,0,0,0,0, ,756.4,133.7,644,-0.6,-1,-1.6,25,742.929,130.623,642.687,-0.874898,-0.911927,-2.42249,
2026_07_06_17_05_03.047,3.869,30.1,0,0.76,0,0,0,0, ,0,0,0,0,0, ,748.4,128.6,640.7,-0.1,-1,-1.2,25,743.506,130.655,642.667,-0.842912,-0.917294,-2.36018,
2026_07_06_17_05_03.067,3.869,30.1,0,0.76,0,0,0,0, ,0,0,0,0,0, ,747.8,129.2,639.8,-0.6,-0.4,-1.8,25,743.786,130.548,642.519,-0.812875,-0.904052,-2.30776,
2026_07_06_17_05_03.087,3.869,30.2,0,0.759,0,0,0,0, ,0,0,0,0,0, ,748.9,130.8,642,-0.5,-0.1,-2,25,744.064,130.515,642.421,-0.796856,-0.864196,-2.28291,
2026_07_06_17_05_03.107,3.869,30.2,0,0.761,0,0,0,0, ,0,0,0,0,0, ,750.2,130.6,638.1,-0.6,0,-1.9,25,744.398,130.526,642.276,-0.781813,-0.814581,-2.26263,
2026_07_06_17_05_03.126,3.869,30.1,0,0.759,0,0,0,0, ,0,0,0,0,0, ,747.4,133.6,645.5,-0.5,0.1,-1.9,25,744.667,130.622,642.247,-0.767687,-0.761896,-2.24053,
2026_07_06_17_05_03.145,3.869,30.1,0,0.759,0,0,0,0, ,0,0,0,0,0, ,744.5,132.9,646.4,-0.5,-0.3,-1.8,25,744.745,130.782,642.473,-0.751375,-0.721561,-2.21673,
2026_07_06_17_05_03.165,3.869,30.1,0,0.759,0,0,0,0, ,0,0,0,0,0, ,746.9,130.4,641.4,-0.6,-0.5,-1.7,25,744.803,130.835,642.56,-0.739104,-0.701966,-2.18829,
2026_07_06_17_05_03.185,3.869,30.2,0,0.759,0,0,0,0, ,0,0,0,0,0, ,744.3,135,651.4,-0.7,-0.8,-1.9,25,744.852,130.949,642.794,-0.733674,-0.6988,-2.16463,
2026_07_06_17_05_03.205,3.869,30.2,0,0.759,0,0,0,0, ,0,0,0,0,0, ,746.8,133.9,645.9,-1,-1.5,-1.8,25,744.894,131.162,643.151,-0.740762,-0.726295,-2.14546,
2026_07_06_17_05_03.225,3.869,30.2,0,0.761,0,0,0,0, ,0,0,0,0,0, ,747.1,131.3,638.5,-0.8,-1.3,-2,25,745.019,131.25,643.093,-0.750466,-0.767348,-2.1305,
2026_07_06_17_05_03.245,3.869,30.2,0,0.76,0,0,0,0, ,0,0,0,0,0, ,747.9,130.4,635.8,-0.4,-0.3,-2.2,25,745.171,131.225,642.731,-0.741297,-0.769338,-2.12864,
2026_07_06_17_05_03.267,3.869,30.1,0,0.759,0,0,0,0, ,0,0,0,0,0, ,748.4,133.9,640,-0.1,0.3,-2.1,25,745.352,131.282,642.436,-0.711359,-0.722457,-2.12994,
2026_07_06_17_05_03.285,3.869,30.2,0,0.76,0,0,0,0, ,0,0,0,0,0, ,744.5,130.2,651.3,-0.9,-0.6,-2,25,745.419,131.329,642.632,-0.698479,-0.687573,-2.12507,
2026_07_06_17_05_03.304,3.869,30.2,0,0.761,0,0,0,0, ,0,0,0,0,0, ,743.8,131.9,647.2,-1.1,-0.9,-1.8,25,745.342,131.312,643.035,-0.716853,-0.691377,-2.11136,
2026_07_06_17_05_03.324,3.869,30.1,0,0.757,0,0,0,0, ,0,0,0,0,0, ,747.9,130.3,642.5,-1.1,-1.6,-2,25,745.373,131.299,643.146,-0.740201,-0.725418,-2.09848,
2026_07_06_17_05_03.344,3.869,30.2,0,0.759,0,0,0,0, ,0,0,0,0,0, ,750,129.3,639.4,-0.7,-1,-1.8,25,745.591,131.207,643.012,-0.749939,-0.760431,-2.08638,
2026_07_06_17_05_03.363,3.869,30.2,0,0.759,0,0,0,0, ,0,0,0,0,0, ,750.2,132.6,641.2,-0.7,-0.9,-1.7,25,745.865,131.192,642.847,-0.746895,-0.771983,-2.06588,
2026_07_06_17_05_03.383,3.869,30.2,0,0.76,0,0,0,0, ,0,0,0,0,0, ,748.7,132.8,641.2,-1,-1.1,-1.6,25,746.084,131.284,642.747,-0.753178,-0.785878,-2.04054,
2026_07_06_17_05_03.404,3.869,30.1,0,0.758,0,0,0,0, ,0,0,0,0,0, ,744.6,133.3,648.8,-1,-1.6,-1.7,25,746.118,131.391,642.884,-0.768219,-0.820254,-2.01674,
2026_07_06_17_05_03.423,3.869,30.2,0,0.759,0,0,0,0, ,0,0,0,0,0, ,745.6,132.3,644.1,-1,-1.9,-1.7,25,746.056,131.477,643.101,-0.782343,-0.876911,-1.99744,
2026_07_06_17_05_03.442,3.869,30.1,0,0.76,0,0,0,0, ,0,0,0,0,0, ,748.2,131.3,640.6,-0.6,-1.8,-1.8,25,746.108,131.497,643.055,-0.783419,-0.936208,-1.98236,
2026_07_06_17_05_03.462,3.869,30.1,0,0.76,0,0,0,0, ,0,0,0,0,0, ,749.2,132.3,644.2,-0.7,-1.4,-1.9,25,746.266,131.515,643.015,-0.775289,-0.976658,-1.9743,
2026_07_06_17_05_03.482,3.869,30.2,0,0.759,0,0,0,0, ,0,0,0,0,0, ,749.3,129.2,637.4,-1.2,-1.7,-1.8,25,746.448,131.469,642.88,-0.785935,-1.0116,-1.96672,
2026_07_06_17_05_03.503,3.869,30.2,0,0.761,0,0,0,0, ,0,0,0,0,0, ,748.7,131.1,637.9,-0.8,-1.1,-2,25,746.603,131.388,642.562,-0.79898,-1.03526,-1.96266,
2026_07_06_17_05_03.523,3.869,30.2,0,0.759,0,0,0,0, ,0,0,0,0,0, ,749.7,135.3,645.3,-0.4,-0.6,-2,25,746.761,131.499,642.503,-0.786855,-1.02397,-1.96493,
2026_07_06_17_05_03.541,3.869,30.1,0,0.759,0,0,0,0, ,0,0,0,0,0, ,745.2,130.9,643.9,-0.7,-1.6,-1.7,25,746.803,131.596,642.631,-0.772421,-1.02861,-1.95793,
2026_07_06_17_05_03.562,3.869,30.2,0,0.761,0,0,0,0, ,0,0,0,0,0, ,750.3,130,637.2,-0.4,-1.3,-1.9,25,746.861,131.526,642.504,-0.758868,-1.05429,-1.9483,
2026_07_06_17_05_03.581,3.869,30.2,0,0.76,0,0,0,0, ,0,0,0,0,0, ,751.7,130.3,633.5,-0.1,-0.5,-1.8,25,747.113,131.443,642.068,-0.727858,-1.04488,-1.94231,
2026_07_06_17_05_03.602,3.869,30.2,0,0.758,0,0,0,0, ,0,0,0,0,0, ,751.9,130,642.5,-0.5,-0.2,-1.7,25,747.399,131.364,641.82,-0.701786,-1.00254,-1.93059,
2026_07_06_17_05_03.620,3.869,30.2,0,0.759,0,0,0,0, ,0,0,0,0,0, ,747,129.8,645.5,-0.9,-0.8,-1.8,25,747.524,131.275,641.953,-0.701677,-0.971916,-1.91959,
2026_07_06_17_05_03.641,3.869,30.1,0,0.76,0,0,0,0, ,0,0,0,0,0, ,745.7,129.8,638,-0.2,-0.6,-1.8,25,747.452,131.185,641.941,-0.692434,-0.955346,-1.9123,
2026_07_06_17_05_03.661,3.869,30.1,0,0.759,0,0,0,0, ,0,0,0,0,0, ,748.7,137,642.7,-0.1,-0.6,-1.6,25,747.437,131.32,641.844,-0.65938,-0.933693,-1.89936,
2026_07_06_17_05_03.679,3.869,30.1,0,0.759,0,0,0,0, ,0,0,0,0,0, ,749.2,132.5,648.4,-0.9,-1.1,-1.2,25,747.529,131.529,642.07,-0.649667,-0.928593,-1.86893,
2026_07_06_17_05_03.701,3.869,30.1,0,0.759,0,0,0,0, ,0,0,0,0,0, ,749.6,132.5,642.3,-0.7,-1.9,-1.1,25,747.643,131.588,642.269,-0.658828,-0.963413,-1.82512,
2026_07_06_17_05_03.720,3.869,30.2,0,0.76,0,0,0,0, ,0,0,0,0,0, ,744.6,130.8,647.2,-1,-2.5,-1.2,25,747.61,131.592,642.421,-0.670478,-1.03877,-1.78398,
2026_07_06_17_05_03.740,3.869,30.2,0,0.759,0,0,0,0, ,0,0,0,0,0, ,751.4,129,632.2,-1.6,-2.2,-1.5,25,747.634,131.489,642.255,-0.708839,-1.11867,-1.75754,
2026_07_06_17_05_03.759,3.869,30.1,0,0.759,0,0,0,0, ,0,0,0,0,0, ,759.1,123.2,626.8,-0.7,-0.5,-1.7,25,748.098,131.16,641.478,-0.735723,-1.13277,-1.74794,
2026_07_06_17_05_03.779,3.869,30.1,0,0.761,0,0,0,0, ,0,0,0,0,0, ,754.3,126.8,632.5,0.4,1.2,-1.7,25,748.622,130.785,640.757,-0.70003,-1.04241,-1.74502,
2026_07_06_17_05_03.805,3.869,30.2,0,0.759,0,0,0,0, ,0,0,0,0,0, ,746.7,132.8,647.8,0.5,1.2,-1.6,25,748.737,130.725,640.72,-0.62995,-0.905764,-1.73923,
2026_07_06_17_05_03.818,3.869,30.2,0,0.76,0,0,0,0, ,0,0,0,0,0, ,742.3,137.8,652.3,-0.3,0,-1.7,25,748.478,131.004,641.288,-0.585469,-0.814007,-1.73379,
2026_07_06_17_05_03.838,3.869,30.1,0,0.76,0,0,0,0, ,0,0,0,0,0, ,750.1,132.6,649.9,-1.2,-2,-1.3,25,748.34,131.259,641.886,-0.595495,-0.825341,-1.71954,
2026_07_06_17_05_03.858,3.869,30.2,0,0.761,0,0,0,0, ,0,0,0,0,0, ,751.3,128.7,638.1,-1.3,-2.7,-1.3,25,748.483,131.222,642.015,-0.635379,-0.918249,-1.69398,
2026_07_06_17_05_03.878,3.869,30.1,0,0.76,0,0,0,0, ,0,0,0,0,0, ,752.6,125.7,637.9,-0.8,-2,-1.6,25,748.695,130.977,641.77,-0.660645,-1.0055,-1.67911,
2026_07_06_17_05_03.899,3.869,30.1,0,0.759,0,0,0,0, ,0,0,0,0,0, ,750.8,128.7,634.1,-0.6,-1.6,-1.7,25,748.878,130.747,641.419,-0.663043,-1.05391,-1.67734,
2026_07_06_17_05_03.918,3.869,30.2,0,0.758,0,0,0,0, ,0,0,0,0,0, ,753.1,128.7,633.5,-0.3,-0.2,-1.8,25,749.065,130.622,640.955,-0.650061,-1.04453,-1.68176,
2026_07_06_17_05_03.938,3.869,30.1,0,0.76,0,0,0,0, ,0,0,0,0,0, ,752,129.3,637.6,-0.4,0.1,-2.1,25,749.277,130.523,640.625,-0.631776,-0.983928,-1.69811,
2026_07_06_17_05_03.958,3.869,30.2,0,0.759,0,0,0,0, ,0,0,0,0,0, ,751.3,130.1,644.5,-0.3,0,-1.8,25,749.422,130.473,640.651,-0.614605,-0.920923,-1.71346,
2026_07_06_17_05_03.978,3.869,30.1,0,0.76,0,0,0,0, ,0,0,0,0,0, ,748.9,130.2,642.9,-0.4,-0.4,-1.8,25,749.463,130.453,640.837,-0.598481,-0.876992,-1.71873,
2026_07_06_17_05_03.996,3.869,30.1,0,0.759,0,0,0,0, ,0,0,0,0,0, ,748.1,130,645.5,-0.5,-0.5,-1.8,25,749.405,130.432,641.042,-0.589433,-0.850972,-1.72369,
2026_07_06_17_05_04.017,3.869,30.2,0,0.759,0,0,0,0, ,0,0,0,0,0, ,752.1,130.2,641.4,-1.1,-1.1,-1.9,25,749.447,130.412,641.189,-0.602264,-0.847866,-1.73138,
2026_07_06_17_05_04.036,3.869,30.2,0,0.759,0,0,0,0, ,0,0,0,0,0, ,752.5,129.3,641.6,-1.3,-1.3,-1.9,25,749.621,130.371,641.208,-0.638689,-0.869324,-1.74166,
2026_07_06_17_05_04.057,3.869,30.1,0,0.759,0,0,0,0, ,0,0,0,0,0, ,753.6,128.1,631.8,-1.4,-0.6,-1.9,25,749.83,130.27,640.933,-0.682034,-0.874241,-1.75131,
2026_07_06_17_05_04.082,3.869,30.2,0,0.759,0,0,0,0, ,0,0,0,0,0, ,749.2,129.2,638.3,-0.8,0.2,-1.6,25,749.925,130.171,640.574,-0.707504,-0.833154,-1.75123,
2026_07_06_17_05_04.096,3.869,30.2,0,0.757,0,0,0,0, ,0,0,0,0,0, ,749.8,131.8,639.7,-0.7,0.1,-2.2,25,749.9,130.191,640.478,-0.710094,-0.773243,-1.76029,
2026_07_06_17_05_04.116,3.869,30.1,0,0.759,0,0,0,0, ,0,0,0,0,0, ,753.6,131.3,640.8,-0.9,-0.2,-1.9,25,750.009,130.274,640.465,-0.715572,-0.72917,-1.77795,
2026_07_06_17_05_04.136,3.869,30.1,0,0.759,0,0,0,0, ,0,0,0,0,0, ,750.9,130.6,639.1,-0.4,0,-1.6,25,750.146,130.315,640.433,-0.711576,-0.69083,-1.77624,
2026_07_06_17_05_04.156,3.869,30.1,0,0.76,0,0,0,0, ,0,0,0,0,0, ,747.6,128.7,642.3,0,0,-1.6,25,750.091,130.274,640.449,-0.680402,-0.648733,-1.7655,
2026_07_06_17_05_04.175,3.869,30.1,0,0.759,0,0,0,0, ,0,0,0,0,0, ,749,131.2,646.4,0,-0.3,-1.7,25,749.982,130.255,640.687,-0.63894,-0.618341,-1.75847,
2026_07_06_17_05_04.195,3.869,30.2,0,0.759,0,0,0,0, ,0,0,0,0,0, ,747.8,130.2,643,-0.4,-0.7,-1.6,25,749.886,130.282,640.932,-0.612192,-0.61113,-1.75186,
2026_07_06_17_05_04.215,3.869,30.1,0,0.758,0,0,0,0, ,0,0,0,0,0, ,749.3,129.2,642.9,-0.9,-1.4,-1.6,25,749.804,130.246,641.055,-0.614496,-0.637874,-1.7426,
2026_07_06_17_05_04.235,3.869,30.1,0,0.759,0,0,0,0, ,0,0,0,0,0, ,749.3,127.9,633.7,-1,-1.6,-1.8,25,749.774,130.143,640.887,-0.634941,-0.690409,-1.74001,
2026_07_06_17_05_04.254,3.869,30.1,0,0.759,0,0,0,0, ,0,0,0,0,0, ,754.6,127,631.5,-0.6,-0.8,-1.8,25,749.906,129.979,640.382,-0.644999,-0.721463,-1.74366,
2026_07_06_17_05_04.275,3.869,30.1,0,0.76,0,0,0,0, ,0,0,0,0,0, ,750.1,128.6,639.1,-0.1,-0.1,-1.7,25,750.055,129.846,640.072,-0.627023,-0.70492,-1.74405,
2026_07_06_17_05_04.293,3.869,30.1,0,0.759,0,0,0,0, ,0,0,0,0,0, ,750.6,130.6,645.8,-0.3,-0.4,-1.6,25,750.073,129.831,640.217,-0.601001,-0.677199,-1.73832,
2026_07_06_17_05_04.314,3.869,30.1,0,0.76,0,0,0,0, ,0,0,0,0,0, ,747.6,128.6,639.8,-0.6,-0.8,-1.7,25,750.014,129.817,640.374,-0.591799,-0.672494,-1.73294,
2026_07_06_17_05_04.339,3.869,30.1,0,0.761,0,0,0,0, ,0,0,0,0,0, ,751.4,127.1,639.1,-0.5,-0.7,-1.7,25,749.982,129.697,640.318,-0.589252,-0.677217,-1.73093,
2026_07_06_17_05_04.360,3.869,30.1,0,0.759,0,0,0,0, ,0,0,0,0,0, ,749.7,129.1,640.2,-0.2,-0.2,-1.8,25,750.017,129.6,640.277,-0.574673,-0.663371,-1.73209,
2026_07_06_17_05_04.373,3.869,30.1,0,0.762,0,0,0,0, ,0,0,0,0,0, ,751.3,128.9,637,-0.5,-0.2,-1.9,25,750.046,129.563,640.175,-0.560982,-0.635135,-1.73928,
2026_07_06_17_05_04.393,3.869,30.1,0,0.761,0,0,0,0, ,0,0,0,0,0, ,752.4,128.2,633.7,-0.9,0,-1.6,25,750.156,129.502,639.881,-0.569453,-0.602525,-1.73993,
2026_07_06_17_05_04.413,3.869,30.1,0,0.759,0,0,0,0, ,0,0,0,0,0, ,748.1,130.2,646.4,-0.6,0,-1.9,25,750.162,129.483,639.891,-0.580455,-0.565808,-1.74054,
2026_07_06_17_05_04.433,3.869,30.1,0,0.761,0,0,0,0, ,0,0,0,0,0, ,747.1,129.8,640.5,-1.3,-0.5,-2.1,25,750.006,129.515,640.108,-0.602974,-0.546564,-1.75635,
2026_07_06_17_05_04.452,3.869,30,0,0.76,0,0,0,0, ,0,0,0,0,0, ,752.5,127.1,638,-1.5,-0.7,-2.2,25,749.993,129.45,640.056,-0.651543,-0.54982,-1.78034,
2026_07_06_17_05_04.473,3.869,30.2,0,0.759,0,0,0,0, ,0,0,0,0,0, ,753.5,126.9,634.8,-1,0,-2,25,750.177,129.3,639.833,-0.688012,-0.537644,-1.79982,
2026_07_06_17_05_04.492,3.869,30.1,0,0.759,0,0,0,0, ,0,0,0,0,0, ,749.7,129.5,640,-0.3,0.4,-2,25,750.263,129.233,639.685,-0.685695,-0.492693,-1.81202,
2026_07_06_17_05_04.512,3.869,30.1,0,0.76,0,0,0,0, ,0,0,0,0,0, ,747.8,129.3,644.7,0,0.6,-1.8,25,750.171,129.244,639.847,-0.653051,-0.432201,-1.81738,
2026_07_06_17_05_04.531,3.869,30.1,0,0.76,0,0,0,0, ,0,0,0,0,0, ,739.2,136.3,649.5,-1.5,-0.4,-1.1,25,749.765,129.46,640.289,-0.658959,-0.39977,-1.79499,
2026_07_06_17_05_04.551,3.869,30.1,0,0.76,0,0,0,0, ,0,0,0,0,0, ,751.5,124.2,643.4,-1.8,-1.5,-1.8,25,749.496,129.508,640.665,-0.719351,-0.4333,-1.77397,
2026_07_06_17_05_04.571,3.869,30.2,0,0.759,0,0,0,0, ,0,0,0,0,0, ,753.9,129,637,-1.2,-0.9,-1.5,25,749.691,129.331,640.636,-0.766922,-0.480021,-1.76642,
2026_07_06_17_05_04.591,3.869,30.1,0,0.759,0,0,0,0, ,0,0,0,0,0, ,753.7,126.5,632.6,-0.9,-0.6,-1.8,25,749.941,129.235,640.281,-0.784172,-0.496472,-1.75932,
2026_07_06_17_05_04.611,3.869,30.1,0,0.76,0,0,0,0, ,0,0,0,0,0, ,746.2,126.5,638.6,-0.4,0.2,-1.8,25,749.942,129.068,639.995,-0.775996,-0.478406,-1.7618,
2026_07_06_17_05_04.632,3.869,30.2,0,0.759,0,0,0,0, ,0,0,0,0,0, ,748.1,129.7,639.5,0,0.7,-2,25,749.772,129.009,639.938,-0.740896,-0.421831,-1.77022,
2026_07_06_17_05_04.649,3.869,30.2,0,0.759,0,0,0,0, ,0,0,0,0,0, ,748.6,131.4,647.7,0,0.3,-2,25,749.685,129.103,640.161,-0.695747,-0.365657,-1.78422,
2026_07_06_17_05_04.670,3.869,30.1,0,0.76,0,0,0,0, ,0,0,0,0,0, ,751.2,132.6,651.3,-0.7,-0.9,-1.7,25,749.698,129.28,640.73,-0.674678,-0.361656,-1.78823,
2026_07_06_17_05_04.690,3.869,30.1,0,0.759,0,0,0,0, ,0,0,0,0,0, ,751.8,126.9,644,-1.3,-1.5,-1.6,25,749.808,129.308,641.152,-0.694503,-0.412743,-1.77981,
2026_07_06_17_05_04.710,3.869,30.1,0,0.76,0,0,0,0, ,0,0,0,0,0, ,749.3,125,641.6,-1.3,-1.6,-1.6,25,749.853,129.104,641.252,-0.7314,-0.482045,-1.76885,
2026_07_06_17_05_04.729,3.869,30.1,0,0.761,0,0,0,0, ,0,0,0,0,0, ,748.2,127.4,643,-1.4,-1.2,-1.6,25,749.786,128.927,641.316,-0.769096,-0.537982,-1.75856,
2026_07_06_17_05_04.749,3.869,30.1,0,0.76,0,0,0,0, ,0,0,0,0,0, ,750.2,126.3,640.3,-1.5,-1.2,-1.7,25,749.75,128.8,641.336,-0.810589,-0.578324,-1.75195,
2026_07_06_17_05_04.768,3.869,30.1,0,0.76,0,0,0,0, ,0,0,0,0,0, ,747.9,127.4,635.6,-0.9,-1,-2,25,749.708,128.681,641.13,-0.834318,-0.610114,-1.75792,
2026_07_06_17_05_04.790,3.869,30.1,0,0.759,0,0,0,0, ,0,0,0,0,0, ,751.3,129.7,637.4,-0.1,0,-2,25,749.701,128.673,640.848,-0.813946,-0.603404,-1.77267,
2026_07_06_17_05_04.809,3.869,30.1,0,0.76,0,0,0,0, ,0,0,0,0,0, ,753.1,129.8,636.8,0.1,0.2,-1.8,25,749.853,128.739,640.62,-0.764346,-0.56054,-1.78043,
2026_07_06_17_05_04.829,3.869,30.1,0,0.76,0,0,0,0, ,0,0,0,0,0, ,749.7,126.4,643.7,-0.1,0.2,-1.5,25,749.948,128.7,640.597,-0.717769,-0.514195,-1.77248,
2026_07_06_17_05_04.847,3.869,30.2,0,0.76,0,0,0,0, ,0,0,0,0,0, ,747.9,122.9,638,-0.5,0.3,-1.7,25,749.878,128.453,640.612,-0.692311,-0.467627,-1.76197,
2026_07_06_17_05_04.868,3.869,30.1,0,0.76,0,0,0,0, ,0,0,0,0,0, ,748.2,126.7,643.4,0,0.5,-1.8,25,749.766,128.231,640.618,-0.665358,-0.414756,-1.76124,
2026_07_06_17_05_04.887,3.869,30.1,0,0.759,0,0,0,0, ,0,0,0,0,0, ,745.9,128,648.9,-0.1,0.2,-2,25,749.601,128.177,640.955,-0.627859,-0.368153,-1.7697,
2026_07_06_17_05_04.907,3.869,30.1,0,0.761,0,0,0,0, ,0,0,0,0,0, ,746.4,129.5,649.9,-0.5,-0.9,-2,25,749.39,128.212,641.47,-0.60788,-0.367047,-1.78373,
2026_07_06_17_05_04.933,3.869,30.2,0,0.759,0,0,0,0, ,0,0,0,0,0, ,750,130.8,649,-0.9,-1.5,-1.9,25,749.318,128.33,641.956,-0.613494,-0.417805,-1.79387,
2026_07_06_17_05_04.952,3.869,30.2,0,0.761,0,0,0,0, ,0,0,0,0,0, ,750.3,125.7,640.2,-0.9,-2,-1.4,25,749.369,128.325,642.117,-0.630953,-0.498986,-1.7851,
2026_07_06_17_05_04.967,3.869,30.2,0,0.759,0,0,0,0, ,0,0,0,0,0, ,748,126.8,641.4,-0.6,-1.7,-2.2,25,749.355,128.199,642.037,-0.638207,-0.581313,-1.78601,
2026_07_06_17_05_04.987,3.869,30.1,0,0.76,0,0,0,0, ,0,0,0,0,0, ,750.6,126.2,641.1,-0.9,-1.5,-2.3,25,749.352,128.095,641.989,-0.64502,-0.643389,-1.81428,
2026_07_06_17_05_05.006,3.869,30.1,0,0.759,0,0,0,0, ,0,0,0,0,0, ,755.6,130.9,638.9,-0.9,-1.7,-2.6,25,749.58,128.123,641.868,-0.660558,-0.701683,-1.85302,
2026_07_06_17_05_05.027,3.869,30.2,0,0.758,0,0,0,0, ,0,0,0,0,0, ,754.5,129.6,628.9,-1,-1.2,-2.1,25,749.914,128.252,641.382,-0.678195,-0.747283,-1.8833,
2026_07_06_17_05_05.046,3.869,30.1,0,0.76,0,0,0,0, ,0,0,0,0,0, ,746.2,123.9,638,0.3,-0.2,-1.5,25,749.94,128.161,640.899,-0.658196,-0.744402,-1.87823,
2026_07_06_17_05_05.068,3.869,30.1,0,0.759,0,0,0,0, ,0,0,0,0,0, ,741.2,130.3,646.9,0.2,-0.1,-2,25,749.56,128.096,640.993,-0.602853,-0.708181,-1.87041,
2026_07_06_17_05_05.086,3.869,30.1,0,0.76,0,0,0,0, ,0,0,0,0,0, ,747.3,128.7,653.4,-0.1,-1,-2.3,25,749.236,128.182,641.551,-0.56307,-0.698542,-1.88745,
2026_07_06_17_05_05.106,3.869,30.1,0,0.76,0,0,0,0, ,0,0,0,0,0, ,755.4,128.2,636.5,-1.4,-1.8,-2.1,25,749.365,128.198,641.758,-0.574461,-0.741287,-1.9065,
2026_07_06_17_05_05.124,3.869,30.2,0,0.76,0,0,0,0, ,0,0,0,0,0, ,753.4,125,635.2,-1,-0.7,-1.6,25,749.672,128.101,641.398,-0.612579,-0.772286,-1.90305,
2026_07_06_17_05_05.146,3.869,30.2,0,0.759,0,0,0,0, ,0,0,0,0,0, ,747.6,124,638.4,-0.2,0,-1.8,25,749.722,127.881,641.118,-0.611813,-0.746553,-1.89068,
2026_07_06_17_05_05.165,3.869,30.1,0,0.76,0,0,0,0, ,0,0,0,0,0, ,744.5,129.2,645.9,-0.2,0,-2.2,25,749.499,127.803,641.181,-0.586718,-0.70106,-1.89734,
2026_07_06_17_05_05.186,3.869,30.1,0,0.758,0,0,0,0, ,0,0,0,0,0, ,748.1,130.6,650.1,-0.7,-0.7,-1.9,25,749.304,127.931,641.597,-0.578387,-0.679667,-1.90665,
2026_07_06_17_05_05.210,3.869,30.1,0,0.759,0,0,0,0, ,0,0,0,0,0, ,751.7,130.1,643.7,-1.5,-2.5,-1.8,25,749.34,128.078,641.92,-0.610173,-0.73575,-1.90319,
2026_07_06_17_05_05.231,3.869,30.1,0,0.759,0,0,0,0, ,0,0,0,0,0, ,751.4,128.7,636.2,-1.2,-2.1,-1.8,25,749.475,128.159,641.8,-0.655256,-0.831072,-1.89691,
2026_07_06_17_05_05.244,3.869,30.1,0,0.759,0,0,0,0, ,0,0,0,0,0, ,754.8,125.1,640.3,-0.6,-1.8,-2.1,25,749.696,128.082,641.583,-0.67017,-0.899256,-1.90014,
2026_07_06_17_05_05.264,3.869,30.2,0,0.76,0,0,0,0, ,0,0,0,0,0, ,750.1,130,641.4,-0.7,-1.7,-1.6,25,749.863,128.05,641.539,-0.668941,-0.951099,-1.89709,
2026_07_06_17_05_05.283,3.869,30.2,0,0.759,0,0,0,0, ,0,0,0,0,0, ,747.1,127.1,640.9,-1.1,-2.1,-2,25,749.786,128.08,641.515,-0.683021,-1.00892,-1.89117,
2026_07_06_17_05_05.305,3.869,30.1,0,0.761,0,0,0,0, ,0,0,0,0,0, ,752.6,127.8,640.5,-1.3,-2.1,-2.1,25,749.79,128.042,641.465,-0.714524,-1.07541,-1.90085,
2026_07_06_17_05_05.323,3.869,30.2,0,0.759,0,0,0,0, ,0,0,0,0,0, ,754.8,127,634.2,-1,-1.3,-1.9,25,750.029,128.003,641.215,-0.741061,-1.11347,-1.90689,
2026_07_06_17_05_05.344,3.869,30.1,0,0.761,0,0,0,0, ,0,0,0,0,0, ,759.5,126.4,640.9,-0.2,-1.2,-2.4,25,750.463,127.923,640.991,-0.732465,-1.12179,-1.9217,
2026_07_06_17_05_05.362,3.869,30.2,0,0.759,0,0,0,0, ,0,0,0,0,0, ,753,127.6,640.7,-0.3,-2,-2.8,25,750.815,127.867,640.98,-0.703065,-1.15093,-1.96304,
2026_07_06_17_05_05.384,3.869,30.1,0,0.76,0,0,0,0, ,0,0,0,0,0, ,748.1,128.7,640.9,-0.7,-2,-2.1,25,750.799,127.884,640.969,-0.690691,-1.20267,-1.99271,
2026_07_06_17_05_05.401,3.869,30.1,0,0.76,0,0,0,0, ,0,0,0,0,0, ,749.2,128.4,640,-0.9,-2.1,-2,25,750.668,127.925,640.937,-0.697352,-1.25431,-1.9962,
2026_07_06_17_05_05.423,3.869,30.1,0,0.76,0,0,0,0, ,0,0,0,0,0, ,755.3,129,635.6,-0.8,-2.3,-2.2,25,750.765,127.972,640.746,-0.706654,-1.31193,-2.00253,
2026_07_06_17_05_05.442,3.869,30.1,0,0.759,0,0,0,0, ,0,0,0,0,0, ,758.7,128.6,634.8,-0.7,-1.8,-1.9,25,751.144,128.023,640.408,-0.709295,-1.35691,-2.00542,
2026_07_06_17_05_05.463,3.869,30.1,0,0.759,0,0,0,0, ,0,0,0,0,0, ,751.3,132.4,634.6,-0.5,-1.7,-2,25,751.379,128.174,640.06,-0.702635,-1.38086,-2.00204,
2026_07_06_17_05_05.481,3.869,30.2,0,0.759,0,0,0,0, ,0,0,0,0,0, ,752.9,129.1,635,-0.7,-1.4,-1.9,25,751.423,128.331,639.74,-0.696381,-1.39117,-1.99887,
2026_07_06_17_05_05.503,3.869,30.1,0,0.759,0,0,0,0, ,0,0,0,0,0, ,751.3,127.9,630.8,-0.4,-0.9,-2,25,751.465,128.341,639.323,-0.687461,-1.37647,-1.99589,
2026_07_06_17_05_05.521,3.869,30.1,0,0.758,0,0,0,0, ,0,0,0,0,0, ,755.3,126.3,630.7,-0.4,0,-2.1,25,751.576,128.265,638.8,-0.669944,-1.32002,-1.99919,
2026_07_06_17_05_05.543,3.869,30.1,0,0.759,0,0,0,0, ,0,0,0,0,0, ,755.7,128.4,633.5,-0.3,1,-2.3,25,751.816,128.209,638.392,-0.650447,-1.20911,-2.01143,
2026_07_06_17_05_05.560,3.869,30.1,0,0.758,0,0,0,0, ,0,0,0,0,0, ,758.3,128.4,633.9,-0.3,1.1,-2.2,25,752.131,128.221,638.106,-0.629092,-1.07145,-2.02597,
2026_07_06_17_05_05.582,3.869,30.2,0,0.759,0,0,0,0, ,0,0,0,0,0, ,753.6,129,631.7,0,1.3,-2,25,752.364,128.25,637.783,-0.599897,-0.933029,-2.03048,
2026_07_06_17_05_05.600,3.869,30.2,0,0.759,0,0,0,0, ,0,0,0,0,0, ,750.6,131.2,640.1,0.6,1.9,-2.1,25,752.348,128.363,637.668,-0.545059,-0.778673,-2.03167,
2026_07_06_17_05_05.622,3.869,30.1,0,0.759,0,0,0,0, ,0,0,0,0,0, ,750.6,133.3,648.4,0,0.4,-1.8,25,752.242,128.6,638.069,-0.493564,-0.661144,-2.02669,
2026_07_06_17_05_05.639,3.869,30,0,0.76,0,0,0,0, ,0,0,0,0,0, ,751.3,132,651.9,-0.7,-1.5,-1.6,25,752.163,128.847,638.805,-0.484815,-0.654371,-2.00678,
2026_07_06_17_05_05.661,3.869,30.2,0,0.76,0,0,0,0, ,0,0,0,0,0, ,748.7,125.2,644.7,-1.5,-3.5,-1.6,25,752.031,128.832,639.384,-0.522303,-0.766839,-1.98199,
2026_07_06_17_05_05.680,3.869,30.1,0,0.759,0,0,0,0, ,0,0,0,0,0, ,753.4,130.4,628.7,-1.4,-3.4,-2.4,25,751.971,128.769,639.22,-0.578835,-0.930344,-1.98309,
2026_07_06_17_05_05.700,3.869,30.2,0,0.761,0,0,0,0, ,0,0,0,0,0, ,758.1,126.4,628.4,-1.4,-2.5,-1.9,25,752.202,128.746,638.57,-0.628874,-1.05342,-1.99326,
2026_07_06_17_05_05.719,3.869,30.2,0,0.759,0,0,0,0, ,0,0,0,0,0, ,759.8,128,625.8,-0.7,-1.1,-2,25,752.613,128.652,637.871,-0.654537,-1.09891,-1.99063,
2026_07_06_17_05_05.739,3.869,30.1,0,0.761,0,0,0,0, ,0,0,0,0,0, ,752.9,129.8,633.6,-0.1,-0.2,-1.6,25,752.84,128.667,637.373,-0.639026,-1.07156,-1.97901,
2026_07_06_17_05_05.759,3.869,30.2,0,0.759,0,0,0,0, ,0,0,0,0,0, ,748.2,131.7,641.7,0,0,-1.6,25,752.701,128.794,637.39,-0.603132,-1.01235,-1.95591,
2026_07_06_17_05_05.780,3.869,30.1,0,0.758,0,0,0,0, ,0,0,0,0,0, ,753.4,132.5,641.1,-0.2,-0.8,-1.9,25,752.585,128.996,637.634,-0.572473,-0.975037,-1.94337,
2026_07_06_17_05_05.798,3.869,30.1,0,0.759,0,0,0,0, ,0,0,0,0,0, ,754.6,131.5,633.9,-0.3,-1,-1.7,25,752.671,129.179,637.626,-0.552822,-0.970464,-1.93463,
2026_07_06_17_05_05.819,3.869,30.1,0,0.758,0,0,0,0, ,0,0,0,0,0, ,755,128.1,636.4,-0.2,-0.7,-1.6,25,752.801,129.217,637.475,-0.534369,-0.963124,-1.91729,
2026_07_06_17_05_05.838,3.869,30.1,0,0.759,0,0,0,0, ,0,0,0,0,0, ,753.7,128.5,638.4,-0.9,-1.3,-1.8,25,752.895,129.161,637.471,-0.535321,-0.965371,-1.90404,
2026_07_06_17_05_05.861,3.869,30.2,0,0.76,0,0,0,0, ,0,0,0,0,0, ,763,127.5,629.7,-1.5,-1.3,-1.7,25,753.228,129.09,637.262,-0.575825,-0.985762,-1.89466,
2026_07_06_17_05_05.877,3.869,30.2,0,0.759,0,0,0,0, ,0,0,0,0,0, ,758.9,125.6,626.2,-0.6,0,-1.1,25,753.698,128.935,636.695,-0.60472,-0.965302,-1.86451,
2026_07_06_17_05_05.899,3.869,30.1,0,0.759,0,0,0,0, ,0,0,0,0,0, ,755.8,116.5,645.5,1,0.6,-2.5,25,753.921,128.455,636.643,-0.555682,-0.888197,-1.86058,
2026_07_06_17_05_05.916,3.869,30.1,0,0.761,0,0,0,0, ,0,0,0,0,0, ,750.2,134.8,642.5,-0.6,-0.2,-1.5,25,753.865,128.284,637.092,-0.509633,-0.821885,-1.86908,
2026_07_06_17_05_05.938,3.869,30.1,0,0.759,0,0,0,0, ,0,0,0,0,0, ,753.7,133.6,640,-1.2,-1.5,-1.9,25,753.748,128.644,637.345,-0.533421,-0.823599,-1.85878,
2026_07_06_17_05_05.956,3.869,30.1,0,0.759,0,0,0,0, ,0,0,0,0,0, ,752.8,126.3,630,-0.6,-0.6,-1.8,25,753.718,128.724,637.202,-0.555759,-0.837395,-1.85824,
2026_07_06_17_05_05.977,3.869,30.2,0,0.759,0,0,0,0, ,0,0,0,0,0, ,752.8,131.4,626.7,-0.1,0.1,-1.9,25,753.662,128.732,636.663,-0.543221,-0.801601,-1.85774,
2026_07_06_17_05_05.996,3.869,30.2,0,0.76,0,0,0,0, ,0,0,0,0,0, ,751.8,132,639.6,0,0.7,-2,25,753.579,128.912,636.449,-0.513165,-0.728378,-1.86336,
2026_07_06_17_05_06.018,3.869,30.2,0,0.759,0,0,0,0, ,0,0,0,0,0, ,754.7,131.1,632.2,0.1,1.1,-2.2,25,753.559,129.073,636.415,-0.478847,-0.629149,-1.87778,
2026_07_06_17_05_06.035,3.869,30.2,0,0.76,0,0,0,0, ,0,0,0,0,0, ,754.5,128.9,630.6,0.3,1.4,-2.3,25,753.622,129.13,636.11,-0.43748,-0.514638,-1.90046,
2026_07_06_17_05_06.059,3.869,30.1,0,0.76,0,0,0,0, ,0,0,0,0,0, ,747.9,135.3,641.3,0,0.9,-1.7,25,753.475,129.311,636.1,-0.401681,-0.413199,-1.90653,
2026_07_06_17_05_06.075,3.869,30.2,0,0.759,0,0,0,0, ,0,0,0,0,0, ,746.9,126.9,649.5,-0.4,0.1,-2,25,753.104,129.42,636.667,-0.389391,-0.357551,-1.90308,
2026_07_06_17_05_06.099,3.869,30.1,0,0.76,0,0,0,0, ,0,0,0,0,0, ,752,131.1,636.4,-0.9,-0.5,-1.6,25,752.882,129.394,637.05,-0.405272,-0.34795,-1.8968,
2026_07_06_17_05_06.114,3.869,30.2,0,0.76,0,0,0,0, ,0,0,0,0,0, ,757.2,127.4,637.5,-0.9,-0.7,-2.1,25,752.986,129.385,637.043,-0.435419,-0.36331,-1.89395,
2026_07_06_17_05_06.138,3.869,30.1,0,0.759,0,0,0,0, ,0,0,0,0,0, ,758,127.3,630.9,-0.7,-0.1,-2,25,753.268,129.261,636.87,-0.457636,-0.365546,-1.90346,
2026_07_06_17_05_06.157,3.869,30.2,0,0.759,0,0,0,0, ,0,0,0,0,0, ,751.3,129.6,639.5,-0.5,-0.1,-2,25,753.352,129.212,636.768,-0.466311,-0.349364,-1.90934,
2026_07_06_17_05_06.179,3.869,30.2,0,0.759,0,0,0,0, ,0,0,0,0,0, ,751.7,129.1,639.2,-0.7,-0.4,-1.9,25,753.239,129.22,636.926,-0.474458,-0.343309,-1.91182,
2026_07_06_17_05_06.194,3.869,30.1,0,0.76,0,0,0,0, ,0,0,0,0,0, ,752.5,130.9,637,-0.7,-0.5,-2,25,753.17,129.268,636.997,-0.488202,-0.34981,-1.91415,
2026_07_06_17_05_06.219,3.869,30.3,0,0.761,0,0,0,0, ,0,0,0,0,0, ,753.9,130.7,639.6,-0.9,-0.8,-1.9,25,753.171,129.361,637.077,-0.507202,-0.368103,-1.91633,
2026_07_06_17_05_06.233,3.869,30.2,0,0.758,0,0,0,0, ,0,0,0,0,0, ,751.9,132.2,637.4,-0.5,-0.5,-1.8,25,753.155,129.488,637.163,-0.518951,-0.385281,-1.91229,
2026_07_06_17_05_06.255,3.869,30,0,0.76,0,0,0,0, ,0,0,0,0,0, ,751.3,129.6,631.5,-0.4,-0.6,-1.6,25,753.06,129.574,636.998,-0.514749,-0.395319,-1.89935,
2026_07_06_17_05_06.272,3.869,30.1,0,0.76,0,0,0,0, ,0,0,0,0,0, ,752.3,129.1,631.3,-0.4,0.6,-1.4,25,752.983,129.561,636.657,-0.507756,-0.371229,-1.87502,
2026_07_06_17_05_06.294,3.869,30.1,0,0.76,0,0,0,0, ,0,0,0,0,0, ,753.2,129.6,635.6,0,1.1,-1.5,25,752.969,129.548,636.461,-0.489002,-0.29681,-1.84912,
2026_07_06_17_05_06.312,3.869,30,0,0.76,0,0,0,0, ,0,0,0,0,0, ,749.2,129.7,643.3,-0.1,0.9,-1.8,25,752.861,129.554,636.644,-0.462251,-0.217786,-1.83698,
2026_07_06_17_05_06.336,3.869,30.2,0,0.759,0,0,0,0, ,0,0,0,0,0, ,748.7,129.1,640.3,-0.4,0.3,-2,25,752.623,129.545,636.958,-0.449317,-0.167952,-1.84082,
2026_07_06_17_05_06.351,3.869,30.1,0,0.759,0,0,0,0, ,0,0,0,0,0, ,750.3,131.3,642.8,-0.7,-0.1,-2,25,752.433,129.585,637.238,-0.455452,-0.151624,-1.85052,
2026_07_06_17_05_06.375,3.869,30.3,0,0.76,0,0,0,0, ,0,0,0,0,0, ,752.4,127.8,642.2,-0.6,-0.2,-1.8,25,752.367,129.583,637.558,-0.467307,-0.151525,-1.85354,
2026_07_06_17_05_06.390,3.869,30.2,0,0.76,0,0,0,0, ,0,0,0,0,0, ,750.6,131.2,636.9,-0.4,-0.3,-1.7,25,752.314,129.578,637.68,-0.4693,-0.157526,-1.84723,
2026_07_06_17_05_06.415,3.869,30.2,0,0.759,0,0,0,0, ,0,0,0,0,0, ,748.1,133.9,642.7,-0.7,-0.5,-1.5,25,752.133,129.759,637.809,-0.474217,-0.172302,-1.83216,
2026_07_06_17_05_06.431,3.869,30.3,0,0.76,0,0,0,0, ,0,0,0,0,0, ,750.8,128.5,640.3,-1,-0.9,-1.6,25,751.97,129.847,638.034,-0.497117,-0.204458,-1.81497,
2026_07_06_17_05_06.453,3.869,30.1,0,0.759,0,0,0,0, ,0,0,0,0,0, ,753.7,127.1,634.1,-1,-0.7,-1.6,25,751.987,129.722,637.983,-0.527761,-0.240749,-1.80187,
2026_07_06_17_05_06.470,3.869,30.2,0,0.76,0,0,0,0, ,0,0,0,0,0, ,754,126.2,632.8,-0.3,0.5,-2.1,25,752.1,129.535,637.707,-0.53521,-0.232172,-1.8048,
2026_07_06_17_05_06.493,3.869,30.1,0,0.759,0,0,0,0, ,0,0,0,0,0, ,753.2,128.9,633,-0.3,0.7,-2,25,752.192,129.414,637.414,-0.520877,-0.181462,-1.81974,
2026_07_06_17_05_06.510,3.869,30.2,0,0.761,0,0,0,0, ,0,0,0,0,0, ,751.7,130.7,642.9,-0.1,0.7,-1.9,25,752.208,129.437,637.447,-0.501323,-0.127748,-1.82768,
2026_07_06_17_05_06.533,3.869,30.2,0,0.759,0,0,0,0, ,0,0,0,0,0, ,747.8,130.9,649.1,-0.3,-0.2,-1.6,25,752.058,129.52,637.968,-0.482961,-0.104729,-1.82295,
2026_07_06_17_05_06.549,3.869,30.1,0,0.76,0,0,0,0, ,0,0,0,0,0, ,746.9,128.2,642.9,-0.6,-0.9,-1.8,25,751.771,129.522,638.457,-0.480953,-0.131862,-1.81546,
2026_07_06_17_05_06.572,3.869,30.2,0,0.76,0,0,0,0, ,0,0,0,0,0, ,749,130.8,641.9,-0.6,-0.7,-1.8,25,751.538,129.521,638.697,-0.488207,-0.172577,-1.81451,
2026_07_06_17_05_06.589,3.869,30,0,0.759,0,0,0,0, ,0,0,0,0,0, ,750.8,128.4,641.1,-0.7,-0.6,-1.7,25,751.438,129.526,638.868,-0.498067,-0.20167,-1.81058,
2026_07_06_17_05_06.613,3.869,30.1,0,0.76,0,0,0,0, ,0,0,0,0,0, ,753,127.8,638.1,-0.8,-0.9,-1.8,25,751.466,129.439,638.913,-0.513419,-0.235084,-1.80689,
2026_07_06_17_05_06.629,3.869,30.1,0,0.759,0,0,0,0, ,0,0,0,0,0, ,749.6,129.3,639.1,-0.7,-0.6,-1.7,25,751.456,129.385,638.894,-0.527835,-0.266461,-1.80342,
2026_07_06_17_05_06.652,3.869,30.1,0,0.759,0,0,0,0, ,0,0,0,0,0, ,748.1,130.2,639.5,-0.6,-0.5,-1.4,25,751.297,129.407,638.919,-0.53528,-0.28374,-1.78798,
2026_07_06_17_05_06.668,3.869,30.1,0,0.76,0,0,0,0, ,0,0,0,0,0, ,749.2,129.5,636.8,-0.5,0.2,-1.3,25,751.136,129.434,638.872,-0.536177,-0.27559,-1.76129,
2026_07_06_17_05_06.692,3.869,30.3,0,0.761,0,0,0,0, ,0,0,0,0,0, ,750.2,127.4,644,-0.5,0.3,-1.7,25,751.049,129.374,638.965,-0.533972,-0.243562,-1.74537,
2026_07_06_17_05_06.709,3.869,30.2,0,0.759,0,0,0,0, ,0,0,0,0,0, ,751.3,132.5,637.5,-0.5,0.8,-1.4,25,751.03,129.409,639.074,-0.531902,-0.195204,-1.73346,
2026_07_06_17_05_06.732,3.869,30.2,0,0.758,0,0,0,0, ,0,0,0,0,0, ,749.1,133.1,643.5,-0.6,0,-1.2,25,750.98,129.616,639.161,-0.533005,-0.158934,-1.70705,
2026_07_06_17_05_06.748,3.869,30.1,0,0.759,0,0,0,0, ,0,0,0,0,0, ,749,127.9,641.6,-0.7,0,-1.1,25,750.862,129.67,639.367,-0.540134,-0.149249,-1.6731,
2026_07_06_17_05_06.771,3.869,30.2,0,0.76,0,0,0,0, ,0,0,0,0,0, ,748.6,127,645.7,-0.9,-0.4,-1.1,25,750.737,129.534,639.628,-0.55597,-0.152341,-1.63818,
2026_07_06_17_05_06.787,3.869,30.2,0,0.76,0,0,0,0, ,0,0,0,0,0, ,747.9,126.3,635.7,-0.8,-0.3,-1.3,25,750.585,129.358,639.693,-0.573887,-0.164386,-1.61148,
2026_07_06_17_05_06.810,3.869,30.1,0,0.759,0,0,0,0, ,0,0,0,0,0, ,747.1,126.7,638.6,-0.5,0.4,-1.7,25,750.397,129.184,639.538,-0.578525,-0.151322,-1.60469,
2026_07_06_17_05_06.826,3.869,30.2,0,0.761,0,0,0,0, ,0,0,0,0,0, ,727.9,126.5,635.2,-0.1,0.6,-2.1,25,749.611,129.027,639.378,-0.561553,-0.111632,-1.62268,
2026_07_06_17_05_06.851,3.869,30.2,0,0.76,0,0,0,0, ,0,0,0,0,0, ,834.9,111.4,664.1,0.2,-0.4,-6.7,25,751.548,128.413,640.004,-0.524286,-0.0987358,-1.79192,
2026_07_06_17_05_06.866,3.869,30.2,0,0.76,0,0,0,0, ,0,0,0,0,0, ,767.9,140.9,650.6,-0.4,1.4,-1.6,25,754.586,128.275,641.061,-0.498431,-0.0622504,-1.93562,
2026_07_06_17_05_06.891,3.869,30.2,0,0.759,0,0,0,0, ,0,0,0,0,0, ,753.9,133.3,647.5,-0.5,0,-2.8,25,754.971,128.813,641.548,-0.49548,-0.0158007,-1.95173,
2026_07_06_17_05_06.905,3.869,30.2,0,0.76,0,0,0,0, ,0,0,0,0,0, ,757.5,129.5,643.3,-1,-0.3,-1.9,25,755.015,128.97,641.782,-0.51099,-0.0239785,-1.976,
2026_07_06_17_05_06.930,3.869,30.2,0,0.76,0,0,0,0, ,0,0,0,0,0, ,752.4,125.4,633,-0.5,0.5,-1.9,25,755.011,128.878,641.561,-0.525555,-0.0164236,-1.97137,
2026_07_06_17_05_06.946,3.869,30.2,0,0.76,0,0,0,0, ,0,0,0,0,0, ,743.4,128.1,645.3,0.2,1.5,-2,25,754.578,128.748,641.414,-0.502669,0.0455148,-1.97007,
2026_07_06_17_05_06.970,3.869,30.2,0,0.76,0,0,0,0, ,0,0,0,0,0, ,742.7,131.4,652.3,-0.2,0.9,-2.1,25,753.875,128.809,641.864,-0.472038,0.115866,-1.97494,
2026_07_06_17_05_06.985,3.869,30.1,0,0.758,0,0,0,0, ,0,0,0,0,0, ,746.9,130.7,647.3,-0.4,0.1,-2.3,25,753.322,128.946,642.348,-0.461554,0.139274,-1.98865,
2026_07_06_17_05_07.007,3.869,30.1,0,0.76,0,0,0,0, ,0,0,0,0,0, ,745.8,130.2,645.8,-0.3,-0.1,-2.1,25,752.898,129.037,642.604,-0.454756,0.130787,-2.00153,
2026_07_06_17_05_07.025,3.869,30.2,0,0.759,0,0,0,0, ,0,0,0,0,0, ,747.1,133.5,650,-0.8,-0.5,-2,25,752.505,129.209,642.926,-0.46056,0.104536,-2.00448,
2026_07_06_17_05_07.050,3.869,30.2,0,0.76,0,0,0,0, ,0,0,0,0,0, ,749.8,133,646.7,-1,-1.4,-1.7,25,752.258,129.455,643.257,-0.487339,0.0402754,-1.99507,
2026_07_06_17_05_07.064,3.869,30.2,0,0.76,0,0,0,0, ,0,0,0,0,0, ,749.5,130.9,641.2,-1.1,-1.5,-1.6,25,752.099,129.607,643.299,-0.521626,-0.0505382,-1.97404,
2026_07_06_17_05_07.088,3.869,30.2,0,0.76,0,0,0,0, ,0,0,0,0,0, ,744.3,128.9,645.9,-0.8,-1.1,-1.6,25,751.782,129.625,643.315,-0.54773,-0.126677,-1.95125,
2026_07_06_17_05_07.104,3.869,30.1,0,0.759,0,0,0,0, ,0,0,0,0,0, ,745.2,129.1,641.9,-0.4,-0.7,-1.9,25,751.353,129.587,643.35,-0.550915,-0.173802,-1.93899,
2026_07_06_17_05_07.128,3.869,30.2,0,0.76,0,0,0,0, ,0,0,0,0,0, ,749,129.2,644.4,-0.1,-0.4,-2,25,751.094,129.56,643.338,-0.532578,-0.196726,-1.93966,
2026_07_06_17_05_07.143,3.869,30.1,0,0.76,0,0,0,0, ,0,0,0,0,0, ,746.4,135.2,639.1,-1,-1,-1.8,25,750.887,129.721,643.241,-0.53364,-0.227394,-1.93724,
2026_07_06_17_05_07.167,3.869,30.1,0,0.759,0,0,0,0, ,0,0,0,0,0, ,748.1,126.4,642.8,-0.9,-0.5,-1.9,25,750.666,129.787,643.102,-0.559012,-0.259241,-1.93192,
2026_07_06_17_05_07.183,3.869,30.2,0,0.76,0,0,0,0, ,0,0,0,0,0, ,747.6,129.5,637.9,-0.4,0,-2,25,750.494,129.675,642.934,-0.564556,-0.258678,-1.93303,
2026_07_06_17_05_07.208,3.869,30.2,0,0.759,0,0,0,0, ,0,0,0,0,0, ,744.6,125.6,641.3,0,0.8,-2.4,25,750.226,129.545,642.731,-0.542341,-0.218539,-1.94929,
2026_07_06_17_05_07.222,3.869,30.2,0,0.761,0,0,0,0, ,0,0,0,0,0, ,743.1,122.6,640.5,0.7,1.1,-3.1,25,749.838,129.214,642.619,-0.487964,-0.147332,-1.99809,
2026_07_06_17_05_07.252,3.869,30.1,0,0.759,0,0,0,0, ,0,0,0,0,0, ,738.6,135.4,645.5,1.1,2,-2.7,25,749.29,129.201,642.642,-0.403385,-0.0439005,-2.05305,
2026_07_06_17_05_07.262,3.869,30.2,0,0.759,0,0,0,0, ,0,0,0,0,0, ,720.9,151.1,661.4,-0.6,-3.5,-4.1,25,748.099,130.057,643.301,-0.363569,-0.0869284,-2.13513,
2026_07_06_17_05_07.285,3.869,30.2,0,0.759,0,0,0,0, ,0,0,0,0,0, ,745.6,141.4,655.1,-1.9,0.1,-2.7,25,747.194,131.043,644.212,-0.417586,-0.185225,-2.21221,
2026_07_06_17_05_07.302,3.869,30.1,0,0.761,0,0,0,0, ,0,0,0,0,0, ,739.8,135.3,637.4,-1.1,-1.7,-2.5,25,746.921,131.489,644.336,-0.483546,-0.222688,-2.23584,
2026_07_06_17_05_07.326,3.869,30.1,0,0.759,0,0,0,0, ,0,0,0,0,0, ,755.4,126.4,639.7,-0.5,-0.4,-2.1,25,746.962,131.45,643.984,-0.50283,-0.273102,-2.23975,
2026_07_06_17_05_07.341,3.869,30.2,0,0.76,0,0,0,0, ,0,0,0,0,0, ,756.4,131.7,638,0.1,0.3,-1.8,25,747.507,131.304,643.671,-0.484376,-0.259507,-2.22209,
2026_07_06_17_05_07.366,3.869,30,0,0.76,0,0,0,0, ,0,0,0,0,0, ,755.4,135.2,647.4,0.3,0.6,-1.7,25,748.018,131.434,643.612,-0.442672,-0.216271,-2.19332,
2026_07_06_17_05_07.381,3.869,30,0,0.759,0,0,0,0, ,0,0,0,0,0, ,750.6,136.5,657.4,-0.4,-1,-1.2,25,748.322,131.703,644.147,-0.418743,-0.21528,-2.14803,
2026_07_06_17_05_07.406,3.869,30.1,0,0.759,0,0,0,0, ,0,0,0,0,0, ,744.1,129.8,642.9,-0.9,-1.8,-1.4,25,748.262,131.792,644.513,-0.432836,-0.287474,-2.09635,
2026_07_06_17_05_07.421,3.869,30.2,0,0.76,0,0,0,0, ,0,0,0,0,0, ,739.8,127.4,638.5,-0.7,-1,-1.5,25,747.878,131.597,644.281,-0.45521,-0.355268,-2.05696,
2026_07_06_17_05_07.447,3.869,30.2,0,0.759,0,0,0,0, ,0,0,0,0,0, ,748.2,128.4,647,-0.7,-0.7,-2.1,25,747.642,131.372,644.187,-0.470127,-0.385416,-2.0413,
2026_07_06_17_05_07.460,3.869,30.2,0,0.761,0,0,0,0, ,0,0,0,0,0, ,751,130.7,639.8,-0.9,-1,-1.8,25,747.761,131.261,644.139,-0.490228,-0.413727,-2.03574,
2026_07_06_17_05_07.485,3.869,30.2,0,0.76,0,0,0,0, ,0,0,0,0,0, ,748,131.1,634.3,-0.4,0.2,-2,25,747.867,131.239,643.707,-0.499964,-0.41289,-2.02747,
2026_07_06_17_05_07.500,3.869,30.2,0,0.758,0,0,0,0, ,0,0,0,0,0, ,747.5,133.3,634.3,0.1,1.5,-2,25,747.86,131.297,643.134,-0.478638,-0.335933,-2.02579,
2026_07_06_17_05_07.523,3.869,30.2,0,0.76,0,0,0,0, ,0,0,0,0,0, ,744.3,132.8,648.8,0.3,1.8,-1.6,25,747.74,131.404,643.038,-0.437284,-0.214915,-2.01204,
2026_07_06_17_05_07.539,3.869,30.2,0,0.76,0,0,0,0, ,0,0,0,0,0, ,738.2,134.1,661.3,0,0.5,-1.8,25,747.345,131.529,643.77,-0.401496,-0.13174,-1.99302,
2026_07_06_17_05_07.566,3.869,30.2,0,0.759,0,0,0,0, ,0,0,0,0,0, ,739.6,134.5,656.8,-1.2,-1.7,-1.8,25,746.83,131.698,644.701,-0.413593,-0.160275,-1.98126,
2026_07_06_17_05_07.580,3.869,30.2,0,0.76,0,0,0,0, ,0,0,0,0,0, ,746.5,131.7,643.4,-1.5,-2,-1.9,25,746.6,131.783,645.03,-0.470655,-0.263243,-1.97326,
2026_07_06_17_05_07.607,3.869,30.1,0,0.76,0,0,0,0, ,0,0,0,0,0, ,754.3,127.8,640.9,-1.1,-1.5,-1.8,25,746.831,131.659,644.854,-0.521193,-0.353842,-1.96575,
2026_07_06_17_05_07.622,3.869,30.1,0,0.759,0,0,0,0, ,0,0,0,0,0, ,748.4,129.3,637.6,-0.7,-0.7,-1.5,25,747.107,131.47,644.513,-0.544277,-0.399311,-1.94651,
2026_07_06_17_05_07.646,3.869,30.2,0,0.759,0,0,0,0, ,0,0,0,0,0, ,740.2,133.3,646.4,0,0,-1.6,25,746.936,131.459,644.36,-0.532438,-0.396306,-1.92235,
2026_07_06_17_05_07.657,3.869,30.2,0,0.76,0,0,0,0, ,0,0,0,0,0, ,741.6,135.4,652.4,0,-0.6,-1.7,25,746.568,131.636,644.667,-0.499993,-0.390437,-1.90575,
2026_07_06_17_05_07.683,3.869,30.2,0,0.759,0,0,0,0, ,0,0,0,0,0, ,740.2,142.3,645.2,-0.8,-1.4,-1.4,25,746.223,132.075,644.919,-0.493899,-0.427583,-1.88407,
2026_07_06_17_05_07.698,3.869,30.2,0,0.759,0,0,0,0, ,0,0,0,0,0, ,750.3,125.8,640,-0.9,-0.4,-1.7,25,746.163,132.196,644.777,-0.515599,-0.456371,-1.86371,
2026_07_06_17_05_07.722,3.869,30.2,0,0.759,0,0,0,0, ,0,0,0,0,0, ,752,122.8,633.6,-0.1,1,-1.4,25,746.467,131.714,644.291,-0.514649,-0.410279,-1.8446,
2026_07_06_17_05_07.738,3.869,30.1,0,0.76,0,0,0,0, ,0,0,0,0,0, ,746.5,128.7,639.4,0.6,2,-2.1,25,746.637,131.351,643.816,-0.468053,-0.293872,-1.83883,
2026_07_06_17_05_07.763,3.869,30.1,0,0.76,0,0,0,0, ,0,0,0,0,0, ,745.3,133.3,654.7,0.3,2,-2.2,25,746.592,131.33,644.013,-0.412109,-0.154089,-1.85779,
2026_07_06_17_05_07.776,3.869,30.1,0,0.759,0,0,0,0, ,0,0,0,0,0, ,744.6,133.5,655.1,-0.6,0.3,-1.9,25,746.492,131.456,644.677,-0.396137,-0.0746209,-1.86951,
2026_07_06_17_05_07.801,3.869,30.1,0,0.762,0,0,0,0, ,0,0,0,0,0, ,741.4,131.1,649.7,-0.6,-0.3,-1.6,25,746.279,131.507,645.148,-0.40856,-0.0700737,-1.86222,
2026_07_06_17_05_07.816,3.869,30.1,0,0.76,0,0,0,0, ,0,0,0,0,0, ,737.9,130.4,654.4,-0.3,-0.8,-1.8,25,745.875,131.461,645.568,-0.411085,-0.0993192,-1.85234,
2026_07_06_17_05_07.841,3.869,30.2,0,0.76,0,0,0,0, ,0,0,0,0,0, ,745.1,134.2,655.1,-1,-1.9,-1.8,25,745.608,131.512,646.128,-0.425644,-0.175533,-1.84915,
2026_07_06_17_05_07.855,3.869,30.1,0,0.759,0,0,0,0, ,0,0,0,0,0, ,748.5,132.9,643.7,-1.5,-2.2,-1.6,25,745.681,131.636,646.327,-0.475878,-0.289758,-1.84006,
2026_07_06_17_05_07.880,3.869,30.1,0,0.76,0,0,0,0, ,0,0,0,0,0, ,747.4,131.4,640.8,-1,-1.6,-1.5,25,745.819,131.668,646.079,-0.523051,-0.387882,-1.82238,
2026_07_06_17_05_07.895,3.869,30.2,0,0.76,0,0,0,0, ,0,0,0,0,0, ,741.3,132.3,640.1,0,-0.5,-1.5,25,745.73,131.679,645.736,-0.521646,-0.42823,-1.80274,
2026_07_06_17_05_07.921,3.869,30.2,0,0.76,0,0,0,0, ,0,0,0,0,0, ,743.1,134.2,643.9,0.5,0.2,-2.1,25,745.515,131.775,645.508,-0.474624,-0.411275,-1.80257,
2026_07_06_17_05_07.935,3.869,30.1,0,0.76,0,0,0,0, ,0,0,0,0,0, ,747.9,134,649.6,0,-0.2,-2.2,25,745.514,131.916,645.584,-0.430467,-0.386213,-1.82374,
2026_07_06_17_05_07.960,3.869,30.2,0,0.76,0,0,0,0, ,0,0,0,0,0, ,749.2,130,637.4,-0.2,0,-1.9,25,745.699,131.921,645.457,-0.41033,-0.368772,-1.83753,
2026_07_06_17_05_07.975,3.869,30.1,0,0.759,0,0,0,0, ,0,0,0,0,0, ,744.6,129,646.8,0.2,0.5,-1.7,25,745.772,131.774,645.252,-0.385325,-0.331066,-1.83524,
2026_07_06_17_05_08.000,3.869,30.2,0,0.758,0,0,0,0, ,0,0,0,0,0, ,740.1,130.1,653.3,-0.4,0.1,-1.5,25,745.563,131.638,645.545,-0.367938,-0.29261,-1.82091,
2026_07_06_17_05_08.014,3.869,30.2,0,0.758,0,0,0,0, ,0,0,0,0,0, ,741,132.4,650.6,-0.9,-0.8,-1.6,25,745.258,131.615,645.935,-0.385126,-0.296107,-1.8044,
2026_07_06_17_05_08.039,3.869,30.2,0,0.759,0,0,0,0, ,0,0,0,0,0, ,743.5,131.5,647.7,-1,-0.9,-1.5,25,745.075,131.635,646.131,-0.419548,-0.32986,-1.7889,
2026_07_06_17_05_08.053,3.869,30.2,0,0.759,0,0,0,0, ,0,0,0,0,0, ,742.1,131.2,645,-0.9,-0.9,-1.5,25,744.936,131.618,646.144,-0.451873,-0.364603,-1.77129,
2026_07_06_17_05_08.079,3.869,30.2,0,0.759,0,0,0,0, ,0,0,0,0,0, ,748.6,133,644.6,-1,-0.6,-1.6,25,744.961,131.647,646.062,-0.482227,-0.388088,-1.75781,
2026_07_06_17_05_08.093,3.869,30.2,0,0.758,0,0,0,0, ,0,0,0,0,0, ,747.6,132.8,646.1,-1,-0.8,-1.4,25,745.153,131.723,646.019,-0.513779,-0.407095,-1.7421,
2026_07_06_17_05_08.118,3.869,30.2,0,0.76,0,0,0,0, ,0,0,0,0,0, ,744.5,127.3,643.6,-0.9,-0.6,-1.4,25,745.207,131.621,645.948,-0.540361,-0.424944,-1.72125,
2026_07_06_17_05_08.132,3.869,30.1,0,0.761,0,0,0,0, ,0,0,0,0,0, ,742.4,130.4,643.5,-0.1,0.2,-1.4,25,745.1,131.453,645.801,-0.537902,-0.411237,-1.70168,
2026_07_06_17_05_08.158,3.869,30.2,0,0.759,0,0,0,0, ,0,0,0,0,0, ,741.3,133,655,0,0,-1.8,25,744.902,131.468,646.012,-0.50817,-0.380083,-1.69548,
2026_07_06_17_05_08.173,3.869,30.1,0,0.76,0,0,0,0, ,0,0,0,0,0, ,742.5,136.3,645.3,-0.8,-0.3,-1.4,25,744.719,131.662,646.264,-0.501579,-0.366062,-1.68966,
2026_07_06_17_05_08.198,3.869,30.2,0,0.76,0,0,0,0, ,0,0,0,0,0, ,746.8,125,645.9,-0.6,-0.3,-1.8,25,744.715,131.6,646.223,-0.51367,-0.362037,-1.6842,
2026_07_06_17_05_08.213,3.869,30.2,0,0.76,0,0,0,0, ,0,0,0,0,0, ,742,130.2,648.6,-0.2,0.2,-1.8,25,744.696,131.356,646.286,-0.506743,-0.343022,-1.69125,
2026_07_06_17_05_08.237,3.869,30.2,0,0.759,0,0,0,0, ,0,0,0,0,0, ,742.6,131.1,652.9,-0.4,-0.1,-1.7,25,744.55,131.313,646.558,-0.494145,-0.319072,-1.69483,
2026_07_06_17_05_08.251,3.869,30.2,0,0.759,0,0,0,0, ,0,0,0,0,0, ,739.6,131.7,653.8,-0.9,-0.8,-1.8,25,744.34,131.318,646.972,-0.503642,-0.327051,-1.6982,
2026_07_06_17_05_08.278,3.869,30.2,0,0.76,0,0,0,0, ,0,0,0,0,0, ,743.2,131.4,648.3,-0.9,-0.9,-1.9,25,744.16,131.333,647.22,-0.527795,-0.358918,-1.70745,
2026_07_06_17_05_08.291,3.869,30.1,0,0.76,0,0,0,0, ,0,0,0,0,0, ,746.2,130.3,651.9,-1.2,-1.6,-1.4,25,744.193,131.303,647.396,-0.559617,-0.413218,-1.70395,
2026_07_06_17_05_08.318,3.869,30.1,0,0.762,0,0,0,0, ,0,0,0,0,0, ,744.9,132.3,647,-1.6,-1.9,-1.7,25,744.276,131.303,647.521,-0.610828,-0.494678,-1.69456,
2026_07_06_17_05_08.331,3.869,30.1,0,0.761,0,0,0,0, ,0,0,0,0,0, ,746,134,648.4,-1.4,-1.7,-2,25,744.348,131.416,647.532,-0.665012,-0.574221,-1.70404,
2026_07_06_17_05_08.357,3.869,30.1,0,0.76,0,0,0,0, ,0,0,0,0,0, ,744.2,129.2,640.6,-1.1,-1.7,-1.7,25,744.393,131.427,647.347,-0.70066,-0.642823,-1.71293,
2026_07_06_17_05_08.371,3.869,30.2,0,0.759,0,0,0,0, ,0,0,0,0,0, ,743.1,127.4,645.6,-0.3,-0.5,-1.9,25,744.348,131.236,647.088,-0.700619,-0.670683,-1.71824,
2026_07_06_17_05_08.398,3.869,30.2,0,0.761,0,0,0,0, ,0,0,0,0,0, ,744.2,129,647.4,-0.3,-0.5,-2,25,744.306,131.051,647.052,-0.676207,-0.660282,-1.73236,
2026_07_06_17_05_08.410,3.869,30.2,0,0.761,0,0,0,0, ,0,0,0,0,0, ,744.8,129.8,645,-0.5,-0.1,-2,25,744.317,130.951,647.001,-0.659375,-0.638327,-1.74867,
2026_07_06_17_05_08.436,3.869,30.2,0,0.759,0,0,0,0, ,0,0,0,0,0, ,753,129.7,638.9,-0.5,0.3,-1.9,25,744.597,130.877,646.693,-0.649663,-0.593335,-1.76094,
2026_07_06_17_05_08.450,3.869,30.2,0,0.761,0,0,0,0, ,0,0,0,0,0, ,745.4,129.2,643.5,0,1.8,-1.4,25,744.877,130.79,646.358,-0.625309,-0.493195,-1.75418,
2026_07_06_17_05_08.476,3.869,30.2,0,0.759,0,0,0,0, ,0,0,0,0,0, ,739.8,129.8,650.8,0.5,2.1,-1.8,25,744.738,130.712,646.406,-0.57197,-0.344312,-1.74478,
2026_07_06_17_05_08.490,3.869,30.1,0,0.759,0,0,0,0, ,0,0,0,0,0, ,736.3,134,656,0.5,1.3,-2.1,25,744.331,130.784,646.832,-0.506647,-0.219737,-1.75729,
2026_07_06_17_05_08.516,3.869,30.1,0,0.76,0,0,0,0, ,0,0,0,0,0, ,739.2,127,668,-0.6,-0.4,-1.1,25,743.93,130.767,647.757,-0.47882,-0.178925,-1.7477,
2026_07_06_17_05_08.529,3.869,30.1,0,0.759,0,0,0,0, ,0,0,0,0,0, ,747.4,134.6,646.4,-1.6,-2.2,-1.2,25,743.891,130.769,648.332,-0.516673,-0.24724,-1.71128,
2026_07_06_17_05_08.556,3.869,30.1,0,0.759,0,0,0,0, ,0,0,0,0,0, ,753.4,126.8,637.9,-0.9,-1.2,-1.8,25,744.288,130.765,647.955,-0.56136,-0.335768,-1.69841,
2026_07_06_17_05_08.568,3.869,30.2,0,0.759,0,0,0,0, ,0,0,0,0,0, ,745.7,125.1,639.2,-0.1,0.7,-1.3,25,744.609,130.471,647.382,-0.557621,-0.330542,-1.68936,
2026_07_06_17_05_08.595,3.869,30.1,0,0.76,0,0,0,0, ,0,0,0,0,0, ,736.3,129.3,653.3,0,0.7,-1.8,25,744.389,130.272,647.313,-0.526688,-0.267743,-1.68087,
2026_07_06_17_05_08.608,3.869,30.2,0,0.76,0,0,0,0, ,0,0,0,0,0, ,739.1,135.6,657.8,0,-0.1,-2,25,743.981,130.405,647.815,-0.494593,-0.233146,-1.69422,
2026_07_06_17_05_08.634,3.869,30.1,0,0.76,0,0,0,0, ,0,0,0,0,0, ,743.1,136.9,659.5,-0.9,-1.8,-1.7,25,743.806,130.761,648.476,-0.491875,-0.276829,-1.70372,
2026_07_06_17_05_08.647,3.869,30.1,0,0.76,0,0,0,0, ,0,0,0,0,0, ,746.5,128,644.4,-1.5,-2.7,-1.2,25,743.866,130.864,648.687,-0.535027,-0.397069,-1.68825,
2026_07_06_17_05_08.675,3.869,30.2,0,0.76,0,0,0,0, ,0,0,0,0,0, ,743.4,124.1,639.2,-0.4,-1.4,-1.4,25,743.932,130.57,648.268,-0.560314,-0.497795,-1.6646,
2026_07_06_17_05_08.686,3.869,30.1,0,0.76,0,0,0,0, ,0,0,0,0,0, ,739.8,127.6,647.3,-0.2,-0.7,-1.5,25,743.79,130.283,647.962,-0.544451,-0.531445,-1.65152,
2026_07_06_17_05_08.715,3.869,30.2,0,0.759,0,0,0,0, ,0,0,0,0,0, ,740.6,129,649.6,-0.5,-0.6,-1.8,25,743.571,130.162,647.992,-0.532602,-0.538669,-1.65143,
2026_07_06_17_05_08.726,3.869,30.2,0,0.759,0,0,0,0, ,0,0,0,0,0, ,746.5,130.1,645.5,-0.8,-0.9,-2,25,743.57,130.125,647.965,-0.539756,-0.551547,-1.66657,
2026_07_06_17_05_08.754,3.869,30.1,0,0.759,0,0,0,0, ,0,0,0,0,0, ,743,129.5,643.5,-0.5,-0.4,-1.8,25,743.642,130.105,647.754,-0.546474,-0.557547,-1.6808,
2026_07_06_17_05_08.766,3.869,30.2,0,0.76,0,0,0,0, ,0,0,0,0,0, ,740.1,128.5,649.9,-0.1,0,-2,25,743.514,130.038,647.689,-0.531454,-0.535759,-1.69416,
2026_07_06_17_05_08.795,3.869,30.2,0,0.761,0,0,0,0, ,0,0,0,0,0, ,745.1,129.1,651.3,-0.4,-0.6,-1.8,25,743.459,129.962,647.867,-0.514303,-0.521392,-1.7067,
2026_07_06_17_05_08.806,3.869,30.2,0,0.759,0,0,0,0, ,0,0,0,0,0, ,736.4,132.6,653.4,-0.6,-1,-1.9,25,743.294,130.016,648.14,-0.513432,-0.53837,-1.71543,
2026_07_06_17_05_08.833,3.869,30.2,0,0.759,0,0,0,0, ,0,0,0,0,0, ,742,130.8,656.9,-1.3,-2.1,-1.5,25,743.044,130.119,648.567,-0.540035,-0.600016,-1.71449,
2026_07_06_17_05_08.845,3.869,30.2,0,0.76,0,0,0,0, ,0,0,0,0,0, ,742.7,129.7,642.3,-1.5,-2.2,-1.7,25,743.002,130.127,648.63,-0.592439,-0.694468,-1.70751,
2026_07_06_17_05_08.873,3.869,30.1,0,0.759,0,0,0,0, ,0,0,0,0,0, ,749.7,129.1,640.2,-1.2,-1.3,-2,25,743.197,130.083,648.18,-0.638603,-0.75879,-1.7162,
2026_07_06_17_05_08.884,3.869,30.1,0,0.758,0,0,0,0, ,0,0,0,0,0, ,749.7,129.8,638.6,-0.6,0,-1.9,25,743.593,130.044,647.645,-0.654532,-0.75216,-1.73044,
2026_07_06_17_05_08.912,3.869,30.2,0,0.757,0,0,0,0, ,0,0,0,0,0, ,743.4,127.1,642.4,0,0.9,-2.2,25,743.773,129.947,647.21,-0.632928,-0.678904,-1.74992,
2026_07_06_17_05_08.925,3.869,30.1,0,0.76,0,0,0,0, ,0,0,0,0,0, ,741,128.5,650.6,0.1,1,-2.3,25,743.677,129.816,647.167,-0.591312,-0.579642,-1.78039,
2026_07_06_17_05_08.953,3.869,30.1,0,0.76,0,0,0,0, ,0,0,0,0,0, ,746.4,129.5,654.6,-0.4,0.1,-2.2,25,743.679,129.766,647.498,-0.564419,-0.510805,-1.80901,
2026_07_06_17_05_08.969,3.869,30.2,0,0.76,0,0,0,0, ,0,0,0,0,0, ,747,128.7,650.6,-0.9,-0.3,-1.9,25,743.863,129.726,647.809,-0.569634,-0.485771,-1.82369,
2026_07_06_17_05_08.996,3.869,30.1,0,0.759,0,0,0,0, ,0,0,0,0,0, ,742.5,128.7,647.4,-0.8,-0.5,-1.6,25,743.917,129.663,647.881,-0.586719,-0.480545,-1.8192,
2026_07_06_17_05_09.003,3.869,30.2,0,0.76,0,0,0,0, ,0,0,0,0,0, ,738.8,130.1,650.1,-0.4,0,-1.9,25,743.718,129.647,647.934,-0.587528,-0.466496,-1.81499,
2026_07_06_17_05_09.031,3.869,30.1,0,0.76,0,0,0,0, ,0,0,0,0,0, ,743,131.1,648.8,-0.4,0,-1.9,25,743.546,129.705,648.027,-0.576101,-0.438069,-1.82017,
2026_07_06_17_05_09.044,3.869,30.2,0,0.76,0,0,0,0, ,0,0,0,0,0, ,744,133,650.8,-0.5,0,-1.9,25,743.543,129.848,648.135,-0.568417,-0.411374,-1.82503,
2026_07_06_17_05_09.091,3.869,30.2,0,0.759,0,0,0,0, ,0,0,0,0,0, ,742.5,130.2,649.9,-0.7,0,-1.6,25,743.525,129.955,648.27,-0.570341,-0.386306,-1.82046,
2026_07_06_17_05_09.091,3.869,30.2,0,0.76,0,0,0,0, ,0,0,0,0,0, ,744.1,129.5,647,-1.4,0.2,-1.7,25,743.512,129.948,648.281,-0.59957,-0.356672,-1.81007,
2026_07_06_17_05_09.119,3.869,30.2,0,0.76,0,0,0,0, ,0,0,0,0,0, ,739.2,127.3,631.2,-1.5,3.5,-1.7,25,743.398,129.854,647.721,-0.651393,-0.222203,-1.80336,
2026_07_06_17_05_09.124,3.869,30.1,0,0.759,0,0,0,0, ,0,0,0,0,0, ,743.2,133.1,629.1,-0.1,6.7,-1.4,25,743.264,129.875,646.65,-0.660449,0.102119,-1.78792,
2026_07_06_17_05_09.154,3.869,30.1,0,0.76,0,0,0,0, ,0,0,0,0,0, ,734.7,116.8,653.3,-0.4,10.4,-1.8,25,743.001,129.575,646.318,-0.635437,0.616912,-1.77647,
2026_07_06_17_05_09.161,3.869,30.1,0,0.76,0,0,0,0, ,0,0,0,0,0, ,728.1,133.5,668.7,0.3,10.9,-2.2,25,742.294,129.305,647.213,-0.599762,1.2283,-1.79009,
2026_07_06_17_05_09.190,3.869,30.1,0,0.759,0,0,0,0, ,0,0,0,0,0, ,715,122.8,680.1,-3,6,-1.3,25,741.03,129.235,648.87,-0.64548,1.66838,-1.78765,
2026_07_06_17_05_09.200,3.869,30.2,0,0.76,0,0,0,0, ,0,0,0,0,0, ,698.8,131.8,628,0.2,5.2,-0.1,25,738.951,129.117,649.185,-0.691459,1.90796,-1.72137,
2026_07_06_17_05_09.230,3.869,30.1,0,0.76,0,0,0,0, ,0,0,0,0,0, ,723.7,86.5,648.3,16.6,10.7,0,25,737.263,127.9,648.513,-0.137448,2.27615,-1.61952,
2026_07_06_17_05_09.240,3.869,30.2,0,0.757,0,0,0,0, ,0,0,0,0,0, ,720.3,141.6,682.3,7.4,9,-1,25,736.332,127.056,649.536,0.602178,2.73768,-1.5513,
2026_07_06_17_05_09.268,3.869,30.2,0,0.758,0,0,0,0, ,0,0,0,0,0, ,731.4,142.5,691,1.1,7.3,-2,25,735.694,127.97,651.797,0.824467,3.06749,-1.54818,
2026_07_06_17_05_09.280,3.869,30.2,0,0.76,0,0,0,0, ,0,0,0,0,0, ,695.8,114.9,734,-2.1,2.9,-0.9,25,734.347,128.015,655.497,0.743757,3.19135,-1.54219,
2026_07_06_17_05_09.310,3.869,30.1,0,0.76,0,0,0,0, ,0,0,0,0,0, ,772.7,153,639.2,-1,-1.5,-1.3,25,734.341,128.376,657.392,0.603981,3.03953,-1.51525,
2026_07_06_17_05_09.319,3.869,30.1,0,0.76,0,0,0,0, ,0,0,0,0,0, ,753.9,119.5,662.9,-0.9,0.1,-0.5,25,736.106,128.856,657.005,0.509286,2.81165,-1.47776,
2026_07_06_17_05_09.348,3.869,30.1,0,0.76,0,0,0,0, ,0,0,0,0,0, ,747.6,124.2,642.4,7.1,7.8,2,25,736.998,128.429,656.74,0.667157,2.88102,-1.342,
2026_07_06_17_05_09.359,3.869,30.2,0,0.759,0,0,0,0, ,0,0,0,0,0, ,729.7,105.8,667.7,6.4,5.5,7.7,25,737.099,127.611,656.637,1.03783,3.11069,-0.964677,
2026_07_06_17_05_09.387,3.869,30.1,0,0.759,0,0,0,0, ,0,0,0,0,0, ,755.4,137.5,660.6,5.8,-3,12.6,25,737.431,127.248,657.095,1.34631,2.99731,-0.287376,
2026_07_06_17_05_09.399,3.869,30.2,0,0.759,0,0,0,0, ,0,0,0,0,0, ,695.9,134.5,645,4.9,-16.1,8.3,25,736.713,127.781,656.833,1.59028,2.23271,0.366933,
2026_07_06_17_05_09.427,3.869,30.1,0,0.76,0,0,0,0, ,0,0,0,0,0, ,734.9,137.5,681.3,12.3,-8.1,2.5,25,735.415,128.282,657.218,2.01744,1.35931,0.673635,
2026_07_06_17_05_09.438,3.869,30.2,0,0.759,0,0,0,0, ,0,0,0,0,0, ,712.5,126.9,669.4,2.5,3.9,0.7,25,734.701,128.52,658.323,2.34544,1.1485,0.730086,
2026_07_06_17_05_09.468,3.869,30.2,0,0.761,0,0,0,0, ,0,0,0,0,0, ,745.7,152.2,675.6,1,-0.1,4.5,25,734.359,129.193,659.187,2.30915,1.1943,0.844033,
2026_07_06_17_05_09.478,3.869,30.2,0,0.76,0,0,0,0, ,0,0,0,0,0, ,696.1,138.7,662.7,-0.1,-5.3,-1.2,25,733.539,130.183,659.794,2.19586,0.95699,0.893147,
2026_07_06_17_05_09.506,3.869,30.2,0,0.76,0,0,0,0, ,0,0,0,0,0, ,733.1,134.1,656.7,0.2,-3.8,-5.3,25,732.385,130.562,659.788,2.0651,0.621408,0.640674,
2026_07_06_17_05_09.517,3.869,30.1,0,0.76,0,0,0,0, ,0,0,0,0,0, ,722.4,149.5,655.2,-3.9,2.6,-2,25,732.103,131.247,659.554,1.82652,0.546978,0.379211,
2026_07_06_17_05_09.546,3.869,30.2,0,0.759,0,0,0,0, ,0,0,0,0,0, ,674.9,142,685.3,-2.5,2.3,1.1,25,730.064,132.131,660.206,1.52022,0.662944,0.328681,
2026_07_06_17_05_09.557,3.869,30.2,0,0.759,0,0,0,0, ,0,0,0,0,0, ,736.4,125.7,660.2,-2.2,-4.1,-1,25,728.576,132.235,660.971,1.28438,0.567702,0.311699,
2026_07_06_17_05_09.586,3.869,30.1,0,0.76,0,0,0,0, ,0,0,0,0,0, ,743.2,142.9,649.4,-2.6,-2,-4.5,25,729.26,132.361,660.595,1.05986,0.347248,0.125127,
2026_07_06_17_05_09.601,3.869,30.2,0,0.759,0,0,0,0, ,0,0,0,0,0, ,711.1,125.9,670,-3.6,1.1,-1,25,729.132,132.486,660.54,0.806367,0.298666,-0.0500763,
2026_07_06_17_05_09.631,3.869,30.2,0,0.759,0,0,0,0, ,0,0,0,0,0, ,758.3,117.7,652.5,-3,5.2,-0.9,25,729.471,131.834,660.583,0.556136,0.472419,-0.104915,
2026_07_06_17_05_09.636,3.869,30.1,0,0.76,0,0,0,0, ,0,0,0,0,0, ,730.1,130.1,667.1,0,2.1,-2,25,730.369,131.351,660.536,0.43084,0.666053,-0.186881,
2026_07_06_17_05_09.666,3.869,30.1,0,0.758,0,0,0,0, ,0,0,0,0,0, ,727.6,127.9,667.9,-0.9,2.1,-2.3,25,730.276,131.208,660.96,0.377164,0.753434,-0.306509,
2026_07_06_17_05_09.676,3.869,30.1,0,0.759,0,0,0,0, ,0,0,0,0,0, ,726.6,129.5,666.5,-0.9,1.2,-2.6,25,730.083,131.055,661.34,0.299337,0.808068,-0.437128,
2026_07_06_17_05_09.706,3.869,30.1,0,0.76,0,0,0,0, ,0,0,0,0,0, ,725,126.9,683.5,-2.8,0,-2.9,25,729.822,130.881,662.173,0.168361,0.795389,-0.578069,
