UTC_Time,Vin,TC1,TC2,Rh1,Vh1,Ah1,Acp1,Dty1,Err1,Rh2,Vh2,Ah2,Acp2,Dty2,Err2,Accel_x,Accel_y,Accel_z,gyro_x,gyro_y,gyro_z,Temp_c,Accel_x_h,Accel_y_h,Accel_z_h,gyro_x_h,gyro_y_h,gyro_z_h,
2026_07_06_15_28_31.649,3.847,29.3,0,0.755,0,0,0,0.004, ,0,0,0,0,0, ,-39.7,155.8,990.9,-0.6,-0.4,-1.9,25,-39.7,155.8,990.9,-0.6,-0.4,-1.9,
2026_07_06_15_28_31.683,3.847,29.2,0,0.76,0,0,0,0.005, ,0,0,0,0,0, ,-38.5,156.4,986.8,-0.6,-0.5,-1.9,25,-39.6634,155.818,990.775,-0.6,-0.403047,-1.9,
2026_07_06_15_28_31.698,3.847,29.2,0,0.756,0,0,0,0.006, ,0,0,0,0,0, ,-38,157.8,989.5,-0.6,-0.4,-1.9,25,-39.5773,155.896,990.615,-0.6,-0.405908,-1.9,
2026_07_06_15_28_31.715,3.847,29.3,0,0.756,0,0,0,0.006, ,0,0,0,0,0, ,-38.4,158.4,986.8,-0.6,-0.5,-1.9,25,-39.4934,156.031,990.465,-0.6,-0.408595,-1.9,
2026_07_06_15_28_31.732,3.847,29.3,0,0.759,0,0,0,0.005, ,0,0,0,0,0, ,-39.3,155.5,988.2,-0.8,-0.5,-1.9,25,-39.4542,156.087,990.284,-0.606094,-0.414165,-1.9,
2026_07_06_15_28_31.764,3.847,29.2,0,0.756,0,0,0,0.006, ,0,0,0,0,0, ,-37.8,157.4,988.1,-0.6,-0.5,-1.8,25,-39.3991,156.109,990.154,-0.611816,-0.419396,-1.89695,
2026_07_06_15_28_31.782,3.847,29.3,0,0.759,0,0,0,0.006, ,0,0,0,0,0, ,-40,155.7,987.5,-0.6,-0.4,-1.8,25,-39.3687,156.136,990.011,-0.611096,-0.42126,-1.89105,
2026_07_06_15_28_31.799,3.847,29.3,0,0.758,0,0,0,0.006, ,0,0,0,0,0, ,-39,159.1,986.4,-0.7,-0.5,-1.9,25,-39.3767,156.213,989.824,-0.613467,-0.423012,-1.88854,
2026_07_06_15_28_31.815,3.847,29.3,0,0.757,0,0,0,0.006, ,0,0,0,0,0, ,-38.2,158.6,986.9,-0.7,-0.5,-1.8,25,-39.3293,156.373,989.631,-0.61874,-0.427703,-1.8862,
2026_07_06_15_28_31.832,3.847,29.2,0,0.757,0,0,0,0.006, ,0,0,0,0,0, ,-37.9,156.3,986.5,-0.7,-0.4,-1.9,25,-39.2514,156.439,989.452,-0.623692,-0.429062,-1.88399,
2026_07_06_15_28_31.848,3.847,29.2,0,0.759,0,0,0,0.007, ,0,0,0,0,0, ,-37.8,156,988.1,-0.6,-0.5,-1.8,25,-39.166,156.421,989.321,-0.625295,-0.430338,-1.88192,
2026_07_06_15_28_31.882,3.847,29.4,0,0.757,0,0,0,0.007, ,0,0,0,0,0, ,-39.1,154.9,986.4,-0.6,-0.5,-1.9,25,-39.1224,156.362,989.195,-0.623753,-0.434583,-1.87997,
2026_07_06_15_28_31.899,3.847,29.3,0,0.757,0,0,0,0.005, ,0,0,0,0,0, ,-39.7,156.7,988.1,-0.6,-0.5,-1.8,25,-39.1393,156.328,989.076,-0.622306,-0.438569,-1.87815,
2026_07_06_15_28_31.917,3.847,29.2,0,0.759,0,0,0,0.006, ,0,0,0,0,0, ,-38.5,156.1,987,-0.5,-0.5,-1.8,25,-39.1369,156.332,988.983,-0.6179,-0.442313,-1.87338,
2026_07_06_15_28_31.932,3.847,29.3,0,0.757,0,0,0,0.007, ,0,0,0,0,0, ,-38.2,156.3,986.3,-0.6,-0.5,-1.8,25,-39.0889,156.324,988.841,-0.613762,-0.445828,-1.86891,
2026_07_06_15_28_31.949,3.847,29.4,0,0.759,0,0,0,0.006, ,0,0,0,0,0, ,-38.4,156.8,989.2,-0.7,-0.5,-1.8,25,-39.0409,156.338,988.775,-0.61597,-0.449129,-1.86471,
2026_07_06_15_28_31.982,3.847,29.4,0,0.757,0,0,0,0.006, ,0,0,0,0,0, ,-38.8,157.1,989.1,-0.7,-0.5,-1.8,25,-39.014,156.375,988.798,-0.621091,-0.452229,-1.86077,
2026_07_06_15_28_32.001,3.847,29.3,0,0.757,0,0,0,0.006, ,0,0,0,0,0, ,-38.4,156,987.9,-0.6,-0.4,-1.9,25,-38.9888,156.386,988.779,-0.622853,-0.452093,-1.86011,
2026_07_06_15_28_32.016,3.847,29.2,0,0.756,0,0,0,0.006, ,0,0,0,0,0, ,-38.2,158,987.7,-0.7,-0.4,-1.8,25,-38.9468,156.423,988.72,-0.624507,-0.448919,-1.8595,
2026_07_06_15_28_32.041,3.847,29.4,0,0.757,0,0,0,0.007, ,0,0,0,0,0, ,-38.5,156.1,988.4,-0.7,-0.5,-1.9,25,-38.9104,156.462,988.679,-0.629107,-0.448985,-1.85892,
2026_07_06_15_28_32.060,3.847,29.2,0,0.757,0,0,0,0.006, ,0,0,0,0,0, ,-38.9,154.5,987.1,-0.6,-0.5,-1.8,25,-38.8976,156.391,988.622,-0.63038,-0.452093,-1.85838,
2026_07_06_15_28_32.080,3.847,29.4,0,0.757,0,0,0,0.007, ,0,0,0,0,0, ,-38.9,156,987,-0.5,-0.5,-1.8,25,-38.8977,156.321,988.526,-0.625482,-0.455013,-1.85482,
2026_07_06_15_28_32.099,3.847,29.4,0,0.757,0,0,0,0.006, ,0,0,0,0,0, ,-38.6,156,986.4,-0.6,-0.5,-1.8,25,-38.8887,156.302,988.415,-0.620883,-0.457754,-1.85148,
2026_07_06_15_28_32.119,3.847,29.2,0,0.759,0,0,0,0.006, ,0,0,0,0,0, ,-38.6,156.3,987.5,-0.6,-0.5,-1.8,25,-38.8711,156.292,988.326,-0.61961,-0.460329,-1.84834,
2026_07_06_15_28_32.132,3.847,29.4,0,0.759,0,0,0,0.008, ,0,0,0,0,0, ,-38,156.3,988.1,-0.6,-0.4,-1.8,25,-38.8363,156.293,988.294,-0.618415,-0.459699,-1.84539,
2026_07_06_15_28_32.149,3.847,29.4,0,0.757,0,0,0,0.006, ,0,0,0,0,0, ,-37.8,159.1,987.1,-0.6,-0.5,-1.9,25,-38.7793,156.379,988.252,-0.617293,-0.459108,-1.84568,
2026_07_06_15_28_32.165,3.847,29.3,0,0.757,0,0,0,0.006, ,0,0,0,0,0, ,-38.4,156.3,987.6,-0.7,-0.5,-1.8,25,-38.7379,156.459,988.197,-0.619286,-0.4616,-1.84594,
2026_07_06_15_28_32.199,3.847,29.2,0,0.757,0,0,0,0.007, ,0,0,0,0,0, ,-38,154.2,988.1,-0.7,-0.5,-1.9,25,-38.7051,156.386,988.175,-0.624204,-0.46394,-1.84619,
2026_07_06_15_28_32.216,3.847,29.2,0,0.757,0,0,0,0.008, ,0,0,0,0,0, ,-38.9,155.2,988.8,-0.6,-0.5,-1.9,25,-38.6896,156.283,988.192,-0.625776,-0.466137,-1.84947,
2026_07_06_15_28_32.236,3.847,29.3,0,0.757,0,0,0,0.008, ,0,0,0,0,0, ,-38.5,155.8,987.1,-0.6,-0.4,-1.8,25,-38.6902,156.235,988.177,-0.624206,-0.465154,-1.8495,
2026_07_06_15_28_32.248,3.847,29.2,0,0.757,0,0,0,0.007, ,0,0,0,0,0, ,-37.4,156.1,986.9,-0.6,-0.4,-1.8,25,-38.6451,156.218,988.106,-0.622731,-0.461184,-1.84648,
2026_07_06_15_28_32.265,3.847,29.2,0,0.759,0,0,0,0.008, ,0,0,0,0,0, ,-39.3,157.2,987.7,-0.7,-0.5,-1.9,25,-38.6271,156.244,988.057,-0.624392,-0.460502,-1.8467,
2026_07_06_15_28_32.297,3.847,29.3,0,0.757,0,0,0,0.008, ,0,0,0,0,0, ,-39.1,155.6,987.6,-0.6,-0.5,-1.8,25,-38.662,156.254,988.032,-0.625953,-0.462909,-1.8469,
2026_07_06_15_28_32.315,3.847,29.4,0,0.758,0,0,0,0.008, ,0,0,0,0,0, ,-38.6,156,986.8,-0.6,-0.5,-1.8,25,-38.6735,156.226,987.981,-0.624371,-0.465169,-1.84404,
2026_07_06_15_28_32.333,3.847,29.3,0,0.757,0,0,0,0.007, ,0,0,0,0,0, ,-38.5,156.8,987.3,-0.6,-0.5,-1.9,25,-38.666,156.237,987.924,-0.622886,-0.467292,-1.8444,
2026_07_06_15_28_32.356,3.847,29.3,0,0.758,0,0,0,0.008, ,0,0,0,0,0, ,-40.1,154.6,988,-0.6,-0.5,-1.8,25,-38.7046,156.204,987.908,-0.621492,-0.469285,-1.84474,
2026_07_06_15_28_32.365,3.847,29.3,0,0.759,0,0,0,0.008, ,0,0,0,0,0, ,-38.9,156.2,987,-0.6,-0.5,-1.9,25,-38.7531,156.155,987.883,-0.620182,-0.471157,-1.84506,
2026_07_06_15_28_32.382,3.847,29.3,0,0.759,0,0,0,0.008, ,0,0,0,0,0, ,-37.9,156.9,987.5,-0.6,-0.5,-1.8,25,-38.7315,156.179,987.844,-0.618952,-0.472914,-1.84537,
2026_07_06_15_28_32.416,3.847,29.4,0,0.759,0,0,0,0.008, ,0,0,0,0,0, ,-38.9,156.6,987.1,-0.7,-0.5,-1.8,25,-38.7113,156.214,987.811,-0.620844,-0.474565,-1.8426,
2026_07_06_15_28_32.432,3.847,29.4,0,0.758,0,0,0,0.007, ,0,0,0,0,0, ,-37.9,155.8,988,-0.6,-0.5,-1.8,25,-38.6924,156.213,987.795,-0.622621,-0.476115,-1.84,
2026_07_06_15_28_32.449,3.847,29.3,0,0.759,0,0,0,0.007, ,0,0,0,0,0, ,-37.9,155.6,988.4,-0.6,-0.4,-1.8,25,-38.6441,156.182,987.82,-0.621242,-0.474523,-1.83757,
2026_07_06_15_28_32.465,3.847,29.3,0,0.758,0,0,0,0.008, ,0,0,0,0,0, ,-38.5,156.2,989.1,-0.6,-0.5,-1.9,25,-38.617,156.164,987.877,-0.619948,-0.473029,-1.83832,
2026_07_06_15_28_32.482,3.847,29.4,0,0.758,0,0,0,0.008, ,0,0,0,0,0, ,-37.7,156.2,987.9,-0.6,-0.5,-1.8,25,-38.5855,156.167,987.915,-0.618732,-0.474673,-1.83904,
2026_07_06_15_28_32.516,3.847,29.4,0,0.758,0,0,0,0.007, ,0,0,0,0,0, ,-37.4,155.8,987.5,-0.6,-0.4,-1.9,25,-38.5224,156.156,987.901,-0.617591,-0.473169,-1.8397,
2026_07_06_15_28_32.535,3.847,29.4,0,0.758,0,0,0,0.007, ,0,0,0,0,0, ,-39,156.4,987.5,-0.7,-0.5,-1.8,25,-38.5028,156.153,987.877,-0.619566,-0.471757,-1.84033,
2026_07_06_15_28_32.548,3.847,29.4,0,0.758,0,0,0,0.008, ,0,0,0,0,0, ,-40,155.1,988,-0.7,-0.4,-1.9,25,-38.5635,156.128,987.869,-0.624467,-0.470431,-1.84092,
2026_07_06_15_28_32.565,3.847,29.2,0,0.759,0,0,0,0.008, ,0,0,0,0,0, ,-38.9,155.6,989,-0.7,-0.5,-1.8,25,-38.6176,156.081,987.908,-0.62907,-0.469186,-1.84147,
2026_07_06_15_28_32.582,3.847,29.4,0,0.759,0,0,0,0.009, ,0,0,0,0,0, ,-39.1,156.4,987.5,-0.7,-0.5,-1.9,25,-38.6409,156.076,987.929,-0.633392,-0.471064,-1.84199,
2026_07_06_15_28_32.613,3.847,29.4,0,0.758,0,0,0,0.008, ,0,0,0,0,0, ,-37.8,156.8,987.9,-0.6,-0.5,-1.8,25,-38.6292,156.108,987.915,-0.634404,-0.472827,-1.84248,
2026_07_06_15_28_32.632,3.847,29.3,0,0.759,0,0,0,0.008, ,0,0,0,0,0, ,-39.1,156.2,986.6,-0.6,-0.4,-1.9,25,-38.6183,156.132,987.874,-0.632308,-0.471436,-1.84294,
2026_07_06_15_28_32.649,3.847,29.4,0,0.759,0,0,0,0.009, ,0,0,0,0,0, ,-38.2,156.9,988.8,-0.6,-0.5,-1.9,25,-38.6202,156.157,987.864,-0.630339,-0.47013,-1.84642,
2026_07_06_15_28_32.666,3.847,29.4,0,0.758,0,0,0,0.008, ,0,0,0,0,0, ,-38.2,156.1,987.1,-0.6,-0.5,-1.9,25,-38.5946,156.178,987.869,-0.62849,-0.47195,-1.84968,
2026_07_06_15_28_32.682,3.847,29.4,0,0.758,0,0,0,0.008, ,0,0,0,0,0, ,-38.9,157.2,989.1,-0.5,-0.5,-1.9,25,-38.5919,156.207,987.883,-0.623707,-0.47366,-1.85275,
2026_07_06_15_28_32.699,3.847,29.4,0,0.758,0,0,0,0.008, ,0,0,0,0,0, ,-39.1,156.7,987.3,-0.6,-0.5,-1.8,25,-38.6168,156.252,987.902,-0.619216,-0.475265,-1.85258,
2026_07_06_15_28_32.732,3.847,29.3,0,0.759,0,0,0,0.008, ,0,0,0,0,0, ,-38.2,156.4,987.5,-0.7,-0.5,-1.8,25,-38.6188,156.27,987.872,-0.621092,-0.476772,-1.84938,
2026_07_06_15_28_32.750,3.847,29.4,0,0.758,0,0,0,0.009, ,0,0,0,0,0, ,-37.9,155.7,988,-0.7,-0.5,-1.9,25,-38.5841,156.257,987.864,-0.6259,-0.478187,-1.84941,
2026_07_06_15_28_32.766,3.847,29.4,0,0.757,0,0,0,0.008, ,0,0,0,0,0, ,-38.6,156.9,987.6,-0.6,-0.5,-1.9,25,-38.5638,156.26,987.86,-0.627369,-0.479517,-1.8525,
2026_07_06_15_28_32.782,3.847,29.4,0,0.758,0,0,0,0.008, ,0,0,0,0,0, ,-37.2,156.3,987,-0.7,-0.5,-1.9,25,-38.5233,156.28,987.826,-0.628748,-0.480765,-1.85539,
2026_07_06_15_28_32.811,3.847,29.4,0,0.759,0,0,0,0.008, ,0,0,0,0,0, ,-39.7,156.6,987.1,-0.6,-0.4,-1.8,25,-38.5189,156.291,987.779,-0.630043,-0.47889,-1.85506,
2026_07_06_15_28_32.831,3.847,29.5,0,0.759,0,0,0,0.008, ,0,0,0,0,0, ,-39,156.4,987.3,-0.6,-0.5,-1.9,25,-38.5695,156.303,987.744,-0.628212,-0.47713,-1.85475,
2026_07_06_15_28_32.850,3.847,29.4,0,0.759,0,0,0,0.008, ,0,0,0,0,0, ,-38.6,157.5,988.1,-0.6,-0.4,-1.9,25,-38.5836,156.343,987.741,-0.626493,-0.475476,-1.85751,
2026_07_06_15_28_32.866,3.847,29.4,0,0.758,0,0,0,0.008, ,0,0,0,0,0, ,-38.3,156.3,988,-0.6,-0.4,-1.8,25,-38.5754,156.377,987.76,-0.624879,-0.470877,-1.85705,
2026_07_06_15_28_32.882,3.847,29.5,0,0.758,0,0,0,0.009, ,0,0,0,0,0, ,-38.2,156.6,986.6,-0.7,-0.5,-1.8,25,-38.5556,156.381,987.732,-0.626409,-0.469605,-1.85358,
2026_07_06_15_28_32.915,3.847,29.4,0,0.757,0,0,0,0.008, ,0,0,0,0,0, ,-38.6,157.5,987.3,-0.6,-0.4,-1.8,25,-38.5461,156.422,987.684,-0.627847,-0.46841,-1.85031,
2026_07_06_15_28_32.941,3.847,29.5,0,0.758,0,0,0,0.009, ,0,0,0,0,0, ,-38.3,155.3,987.6,-0.6,-0.5,-1.8,25,-38.5402,156.421,987.67,-0.62615,-0.467288,-1.84725,
2026_07_06_15_28_32.952,3.847,29.5,0,0.761,0,0,0,0.008, ,0,0,0,0,0, ,-40.1,155.3,987,-0.7,-0.5,-1.9,25,-38.5805,156.352,987.647,-0.627603,-0.469282,-1.84741,
2026_07_06_15_28_32.970,3.847,29.5,0,0.759,0,0,0,0.008, ,0,0,0,0,0, ,-39.1,156.3,988.6,-0.6,-0.5,-1.9,25,-38.6426,156.319,987.657,-0.628968,-0.471154,-1.85062,
2026_07_06_15_28_32.982,3.847,29.5,0,0.758,0,0,0,0.008, ,0,0,0,0,0, ,-38.2,156.9,987.1,-0.6,-0.5,-1.9,25,-38.643,156.336,987.668,-0.627203,-0.472911,-1.85363,
2026_07_06_15_28_32.998,3.847,29.4,0,0.757,0,0,0,0.008, ,0,0,0,0,0, ,-38.9,156.3,988.2,-0.6,-0.5,-1.8,25,-38.6374,156.352,987.667,-0.625545,-0.474562,-1.85341,
2026_07_06_15_28_33.030,3.847,29.5,0,0.757,0,0,0,0.009, ,0,0,0,0,0, ,-38.9,155.5,986.6,-0.6,-0.5,-1.8,25,-38.6534,156.324,987.651,-0.623989,-0.476112,-1.85015,
2026_07_06_15_28_33.048,3.847,29.4,0,0.76,0,0,0,0.008, ,0,0,0,0,0, ,-39.1,156.7,986.6,-0.6,-0.5,-1.8,25,-38.6745,156.311,987.587,-0.622527,-0.477568,-1.8471,
2026_07_06_15_28_33.066,3.847,29.5,0,0.759,0,0,0,0.009, ,0,0,0,0,0, ,-38.3,155.1,987.7,-0.6,-0.5,-1.8,25,-38.676,156.286,987.56,-0.621154,-0.478935,-1.84423,
2026_07_06_15_28_33.083,3.847,29.5,0,0.759,0,0,0,0.008, ,0,0,0,0,0, ,-38.5,156.2,988.1,-0.6,-0.5,-1.8,25,-38.6592,156.247,987.581,-0.619865,-0.480219,-1.84153,
2026_07_06_15_28_33.100,3.847,29.4,0,0.758,0,0,0,0.008, ,0,0,0,0,0, ,-38.6,155.6,987.9,-0.7,-0.5,-1.8,25,-38.6526,156.226,987.607,-0.621701,-0.481424,-1.839,
2026_07_06_15_28_33.116,3.847,29.5,0,0.757,0,0,0,0.009, ,0,0,0,0,0, ,-38.5,157.4,987,-0.7,-0.5,-1.9,25,-38.6463,156.243,987.597,-0.626473,-0.482556,-1.83967,
2026_07_06_15_28_33.148,3.847,29.5,0,0.758,0,0,0,0.008, ,0,0,0,0,0, ,-38,157.7,988,-0.7,-0.5,-1.8,25,-38.6222,156.322,987.591,-0.630953,-0.483619,-1.8403,
2026_07_06_15_28_33.166,3.847,29.5,0,0.759,0,0,0,0.008, ,0,0,0,0,0, ,-38.2,156.2,987.1,-0.7,-0.5,-1.8,25,-38.5903,156.36,987.589,-0.635161,-0.484617,-1.83784,
2026_07_06_15_28_33.183,3.847,29.6,0,0.759,0,0,0,0.009, ,0,0,0,0,0, ,-39.1,156.1,987.6,-0.6,-0.5,-1.8,25,-38.594,156.348,987.574,-0.636065,-0.485555,-1.83554,
2026_07_06_15_28_33.199,3.847,29.6,0,0.759,0,0,0,0.008, ,0,0,0,0,0, ,-38,156.4,988.8,-0.6,-0.4,-1.8,25,-38.5913,156.342,987.612,-0.633867,-0.483388,-1.83337,
2026_07_06_15_28_33.216,3.847,29.5,0,0.758,0,0,0,0.008, ,0,0,0,0,0, ,-39,157.3,987.1,-0.6,-0.5,-1.9,25,-38.5857,156.373,987.633,-0.631804,-0.481353,-1.83439,
2026_07_06_15_28_33.248,3.847,29.6,0,0.759,0,0,0,0.009, ,0,0,0,0,0, ,-38,155,986.4,-0.6,-0.5,-1.8,25,-38.5805,156.359,987.579,-0.629866,-0.48249,-1.83534,
2026_07_06_15_28_33.266,3.847,29.6,0,0.758,0,0,0,0.008, ,0,0,0,0,0, ,-38,155.6,987.9,-0.6,-0.4,-1.8,25,-38.5451,156.295,987.553,-0.628046,-0.48051,-1.83318,
2026_07_06_15_28_33.282,3.847,29.5,0,0.757,0,0,0,0.008, ,0,0,0,0,0, ,-39.5,156.6,985.9,-0.7,-0.5,-1.9,25,-38.5576,156.283,987.513,-0.629383,-0.478651,-1.83421,
2026_07_06_15_28_33.299,3.847,29.6,0,0.758,0,0,0,0.009, ,0,0,0,0,0, ,-37.5,156,988.7,-0.6,-0.5,-1.8,25,-38.5541,156.284,987.5,-0.63064,-0.479952,-1.83517,
2026_07_06_15_28_33.316,3.847,29.6,0,0.759,0,0,0,0.008, ,0,0,0,0,0, ,-38.3,155.7,988.4,-0.7,-0.5,-1.8,25,-38.5143,156.257,987.564,-0.63182,-0.481173,-1.83303,
2026_07_06_15_28_33.332,3.847,29.6,0,0.759,0,0,0,0.008, ,0,0,0,0,0, ,-39.4,155.6,986.4,-0.7,-0.5,-1.9,25,-38.5347,156.22,987.554,-0.635974,-0.482321,-1.83406,
2026_07_06_15_28_33.365,3.847,29.7,0,0.759,0,0,0,0.008, ,0,0,0,0,0, ,-38,156.2,987.4,-0.6,-0.5,-1.8,25,-38.5448,156.201,987.514,-0.636829,-0.483398,-1.83503,
2026_07_06_15_28_33.382,3.847,29.6,0,0.758,0,0,0,0.007, ,0,0,0,0,0, ,-38.2,156.4,986.8,-0.6,-0.5,-1.8,25,-38.5177,156.207,987.489,-0.634585,-0.48441,-1.8329,
2026_07_06_15_28_33.416,3.847,29.7,0,0.758,0,0,0,0.008, ,0,0,0,0,0, ,-39.7,157.2,987.6,-0.6,-0.5,-1.9,25,-38.544,156.243,987.471,-0.632477,-0.48536,-1.83394,
2026_07_06_15_28_33.416,3.847,29.6,0,0.757,0,0,0,0.007, ,0,0,0,0,0, ,-38,155.3,987,-0.6,-0.5,-1.9,25,-38.5627,156.243,987.461,-0.630498,-0.486252,-1.83797,
2026_07_06_15_28_33.432,3.847,29.7,0,0.758,0,0,0,0.008, ,0,0,0,0,0, ,-38.4,157.8,987,-0.6,-0.5,-1.9,25,-38.5406,156.262,987.433,-0.62864,-0.48709,-1.84175,
2026_07_06_15_28_33.466,3.847,29.6,0,0.758,0,0,0,0.008, ,0,0,0,0,0, ,-37.8,156.6,989.9,-0.6,-0.5,-1.7,25,-38.5137,156.319,987.495,-0.626894,-0.487876,-1.8392,
2026_07_06_15_28_33.484,3.847,29.7,0,0.76,0,0,0,0.008, ,0,0,0,0,0, ,-38.4,155.8,987.5,-0.6,-0.5,-1.9,25,-38.4885,156.312,987.568,-0.625256,-0.488615,-1.83681,
2026_07_06_15_28_33.499,3.847,29.6,0,0.759,0,0,0,0.008, ,0,0,0,0,0, ,-37.5,156.9,987.7,-0.6,-0.4,-1.8,25,-38.4557,156.314,987.57,-0.623717,-0.486262,-1.83762,
2026_07_06_15_28_33.516,3.847,29.6,0,0.759,0,0,0,0.008, ,0,0,0,0,0, ,-39.1,156.6,988.5,-0.7,-0.5,-1.9,25,-38.4462,156.341,987.602,-0.625318,-0.484052,-1.83837,
2026_07_06_15_28_33.533,3.847,29.5,0,0.759,0,0,0,0.008, ,0,0,0,0,0, ,-39.5,155,987.4,-0.6,-0.5,-1.7,25,-38.4982,156.308,987.624,-0.626822,-0.485024,-1.83603,
2026_07_06_15_28_33.549,3.847,29.7,0,0.76,0,0,0,0.009, ,0,0,0,0,0, ,-39,156.1,988.2,-0.6,-0.5,-1.8,25,-38.544,156.262,987.634,-0.625188,-0.485937,-1.83079,
2026_07_06_15_28_33.582,3.847,29.7,0,0.759,0,0,0,0.008, ,0,0,0,0,0, ,-38.9,156.9,987.1,-0.6,-0.5,-1.9,25,-38.5688,156.276,987.635,-0.623653,-0.486794,-1.83196,
2026_07_06_15_28_33.599,3.847,29.6,0,0.757,0,0,0,0.008, ,0,0,0,0,0, ,-39.4,157.2,986.2,-0.7,-0.5,-1.9,25,-38.6042,156.323,987.575,-0.625258,-0.487598,-1.83611,
2026_07_06_15_28_33.616,3.847,29.7,0,0.758,0,0,0,0.009, ,0,0,0,0,0, ,-38.2,157.9,986.5,-0.6,-0.4,-2,25,-38.6161,156.398,987.501,-0.626766,-0.485307,-1.84305,
2026_07_06_15_28_33.633,3.847,29.7,0,0.758,0,0,0,0.008, ,0,0,0,0,0, ,-38,154.9,988.2,-0.6,-0.4,-2,25,-38.5847,156.398,987.491,-0.625135,-0.480109,-1.85261,
2026_07_06_15_28_33.650,3.847,29.7,0,0.759,0,0,0,0.008, ,0,0,0,0,0, ,-37.9,156.9,986.4,-0.6,-0.5,-1.8,25,-38.546,156.368,987.48,-0.623603,-0.478274,-1.8555,
2026_07_06_15_28_33.682,3.847,29.6,0,0.758,0,0,0,0.008, ,0,0,0,0,0, ,-38.2,155.7,987,-0.7,-0.5,-1.8,25,-38.5158,156.364,987.432,-0.625212,-0.479598,-1.85212,
2026_07_06_15_28_33.702,3.847,29.7,0,0.76,0,0,0,0.009, ,0,0,0,0,0, ,-37.9,156.2,988.2,-0.7,-0.5,-1.8,25,-38.4874,156.339,987.442,-0.629769,-0.480841,-1.84894,
2026_07_06_15_28_33.722,3.847,29.7,0,0.758,0,0,0,0.008, ,0,0,0,0,0, ,-38.8,156,988.5,-0.6,-0.4,-1.8,25,-38.479,156.324,987.498,-0.631002,-0.478962,-1.84596,
2026_07_06_15_28_33.733,3.847,29.8,0,0.758,0,0,0,0.008, ,0,0,0,0,0, ,-39,156.3,986.4,-0.6,-0.5,-1.9,25,-38.5047,156.313,987.495,-0.629113,-0.477197,-1.84621,
2026_07_06_15_28_33.754,3.847,29.8,0,0.758,0,0,0,0.007, ,0,0,0,0,0, ,-39.4,155.8,987.5,-0.7,-0.5,-1.8,25,-38.547,156.297,987.462,-0.630386,-0.478587,-1.84644,
2026_07_06_15_28_33.783,3.847,29.8,0,0.758,0,0,0,0.007, ,0,0,0,0,0, ,-38.5,156.8,987,-0.7,-0.5,-1.8,25,-38.5716,156.298,987.449,-0.634628,-0.479891,-1.84361,
2026_07_06_15_28_33.802,3.847,29.6,0,0.758,0,0,0,0.007, ,0,0,0,0,0, ,-38.6,157.5,987.5,-0.6,-0.4,-1.9,25,-38.5703,156.349,987.437,-0.635565,-0.47807,-1.844,
2026_07_06_15_28_33.820,3.847,29.7,0,0.759,0,0,0,0.009, ,0,0,0,0,0, ,-38.9,156.1,986.4,-0.6,-0.5,-1.9,25,-38.5812,156.377,987.407,-0.633397,-0.476359,-1.84741,
2026_07_06_15_28_33.834,3.847,29.8,0,0.759,0,0,0,0.008, ,0,0,0,0,0, ,-38.8,157.1,987.7,-0.7,-0.4,-1.8,25,-38.5976,156.391,987.385,-0.634409,-0.474753,-1.84757,
2026_07_06_15_28_33.849,3.847,29.7,0,0.758,0,0,0,0.007, ,0,0,0,0,0, ,-38.3,155.8,988.5,-0.7,-0.4,-1.8,25,-38.5947,156.394,987.429,-0.638406,-0.470198,-1.84467,
2026_07_06_15_28_33.874,3.847,29.7,0,0.758,0,0,0,0.008, ,0,0,0,0,0, ,-38.3,157.8,986.9,-0.7,-0.4,-1.8,25,-38.5768,156.419,987.445,-0.642159,-0.46592,-1.84195,
2026_07_06_15_28_33.900,3.847,29.6,0,0.76,0,0,0,0.008, ,0,0,0,0,0, ,-38.3,158.4,987.6,-0.6,-0.5,-1.9,25,-38.5599,156.521,987.433,-0.642637,-0.46495,-1.84244,
2026_07_06_15_28_33.916,3.847,29.8,0,0.757,0,0,0,0.009, ,0,0,0,0,0, ,-38.6,157.1,985.5,-0.6,-0.5,-1.8,25,-38.5532,156.596,987.38,-0.640039,-0.467086,-1.8429,
2026_07_06_15_28_33.933,3.847,29.8,0,0.758,0,0,0,0.007, ,0,0,0,0,0, ,-39.1,157.4,986.5,-0.7,-0.5,-1.9,25,-38.5713,156.636,987.296,-0.640646,-0.469092,-1.84333,
2026_07_06_15_28_33.949,3.847,29.8,0,0.758,0,0,0,0.007, ,0,0,0,0,0, ,-39.3,157.5,987.1,-0.6,-0.5,-1.9,25,-38.6096,156.686,987.265,-0.641216,-0.470975,-1.84678,
2026_07_06_15_28_33.966,3.847,29.8,0,0.758,0,0,0,0.007, ,0,0,0,0,0, ,-38.4,157.1,987.6,-0.6,-0.5,-1.8,25,-38.6242,156.723,987.27,-0.638704,-0.472744,-1.84698,
2026_07_06_15_28_34.000,3.847,29.8,0,0.759,0,0,0,0.008, ,0,0,0,0,0, ,-38.6,156.9,986,-0.6,-0.4,-1.8,25,-38.6167,156.74,987.242,-0.636346,-0.471358,-1.84412,
2026_07_06_15_28_34.016,3.847,29.8,0,0.759,0,0,0,0.008, ,0,0,0,0,0, ,-38,156.9,988.6,-0.6,-0.5,-1.9,25,-38.5974,156.75,987.245,-0.634131,-0.470056,-1.84448,
2026_07_06_15_28_34.032,3.847,29.6,0,0.759,0,0,0,0.008, ,0,0,0,0,0, ,-38.8,156.2,987.5,-0.6,-0.5,-1.8,25,-38.5853,156.738,987.294,-0.632051,-0.471881,-1.84481,
2026_07_06_15_28_34.049,3.847,29.8,0,0.759,0,0,0,0.009, ,0,0,0,0,0, ,-39.5,155.8,988.1,-0.7,-0.4,-1.9,25,-38.6198,156.693,987.325,-0.633145,-0.470548,-1.84513,
2026_07_06_15_28_34.072,3.847,29.8,0,0.759,0,0,0,0.008, ,0,0,0,0,0, ,-38.5,156.8,988.4,-0.6,-0.4,-1.9,25,-38.6429,156.669,987.382,-0.634172,-0.466249,-1.84847,
2026_07_06_15_28_34.099,3.847,29.8,0,0.758,0,0,0,0.008, ,0,0,0,0,0, ,-38.8,155.2,987.3,-0.7,-0.5,-1.8,25,-38.6434,156.628,987.41,-0.635137,-0.465259,-1.84857,
2026_07_06_15_28_34.115,3.847,29.9,0,0.759,0,0,0,0.008, ,0,0,0,0,0, ,-38.4,156.4,987.9,-0.7,-0.5,-1.8,25,-38.6407,156.577,987.422,-0.639089,-0.467376,-1.84561,
2026_07_06_15_28_34.132,3.847,29.7,0,0.758,0,0,0,0.007, ,0,0,0,0,0, ,-39.9,155.2,987.5,-0.6,-0.5,-1.8,25,-38.6718,156.53,987.439,-0.639754,-0.469364,-1.84283,
2026_07_06_15_28_34.150,3.847,29.8,0,0.759,0,0,0,0.008, ,0,0,0,0,0, ,-37.8,156.8,985.8,-0.6,-0.5,-1.8,25,-38.6826,156.498,987.391,-0.637332,-0.471231,-1.84022,
2026_07_06_15_28_34.169,3.847,29.7,0,0.759,0,0,0,0.008, ,0,0,0,0,0, ,-39.3,157.1,988,-0.6,-0.4,-1.8,25,-38.6745,156.525,987.361,-0.635057,-0.469937,-1.83777,
2026_07_06_15_28_34.197,3.847,29.9,0,0.758,0,0,0,0.009, ,0,0,0,0,0, ,-39.6,158,987.9,-0.6,-0.5,-1.8,25,-38.7218,156.588,987.397,-0.63292,-0.468722,-1.83546,
2026_07_06_15_28_34.216,3.847,29.8,0,0.758,0,0,0,0.007, ,0,0,0,0,0, ,-38.8,156.1,988.4,-0.7,-0.5,-1.8,25,-38.7509,156.616,987.443,-0.633961,-0.470628,-1.8333,
2026_07_06_15_28_34.234,3.847,29.9,0,0.759,0,0,0,0.008, ,0,0,0,0,0, ,-38,156.3,988.2,-0.7,-0.5,-1.9,25,-38.7295,156.591,987.495,-0.637985,-0.472418,-1.83432,
2026_07_06_15_28_34.249,3.847,29.9,0,0.759,0,0,0,0.007, ,0,0,0,0,0, ,-38.5,155.2,989,-0.6,-0.4,-1.9,25,-38.7003,156.539,987.562,-0.638718,-0.471052,-1.83832,
2026_07_06_15_28_34.266,3.847,29.8,0,0.759,0,0,0,0.007, ,0,0,0,0,0, ,-39.3,156.3,986.2,-0.6,-0.4,-1.8,25,-38.7125,156.491,987.564,-0.636358,-0.466722,-1.83904,
2026_07_06_15_28_34.297,3.847,29.9,0,0.757,0,0,0,0.008, ,0,0,0,0,0, ,-38.4,157.9,987.4,-0.6,-0.5,-1.8,25,-38.7209,156.528,987.518,-0.634143,-0.465703,-1.83666,
2026_07_06_15_28_34.316,3.847,29.9,0,0.758,0,0,0,0.007, ,0,0,0,0,0, ,-38.8,157.8,987.1,-0.7,-0.5,-1.8,25,-38.7135,156.609,987.502,-0.635109,-0.467793,-1.83442,
2026_07_06_15_28_34.332,3.847,29.8,0,0.758,0,0,0,0.007, ,0,0,0,0,0, ,-39.3,157.1,986.3,-0.6,-0.5,-1.9,25,-38.734,156.66,987.453,-0.636016,-0.469756,-1.83537,
2026_07_06_15_28_34.353,3.847,29.8,0,0.759,0,0,0,0.008, ,0,0,0,0,0, ,-38.8,155,988,-0.6,-0.5,-1.9,25,-38.7533,156.623,987.434,-0.633822,-0.471599,-1.83931,
2026_07_06_15_28_34.367,3.847,29.9,0,0.759,0,0,0,0.008, ,0,0,0,0,0, ,-38.2,155.7,987.3,-0.6,-0.5,-1.8,25,-38.7378,156.545,987.447,-0.631761,-0.473329,-1.83996,
2026_07_06_15_28_34.382,3.847,30,0,0.759,0,0,0,0.007, ,0,0,0,0,0, ,-37.8,155.1,987.1,-0.6,-0.5,-1.8,25,-38.6929,156.476,987.432,-0.629825,-0.474955,-1.83753,
2026_07_06_15_28_34.417,3.847,29.8,0,0.759,0,0,0,0.006, ,0,0,0,0,0, ,-37.9,156.2,987.7,-0.6,-0.5,-1.8,25,-38.6415,156.425,987.43,-0.628008,-0.476481,-1.83524,
2026_07_06_15_28_34.433,3.847,29.9,0,0.759,0,0,0,0.001, ,0,0,0,0,0, ,-38.5,156.7,987,-0.6,-0.5,-1.9,25,-38.6146,156.427,987.425,-0.626301,-0.477914,-1.83614,
2026_07_06_15_28_34.451,3.847,29.9,0,0.758,0,0,0,0, ,0,0,0,0,0, ,-38.6,156.2,988,-0.7,-0.5,-1.9,25,-38.6107,156.428,987.43,-0.627745,-0.47926,-1.84003,
2026_07_06_15_28_34.466,3.847,29.9,0,0.758,0,0,0,0, ,0,0,0,0,0, ,-39.7,157.1,987.1,-0.6,-0.5,-1.8,25,-38.6435,156.442,987.437,-0.629101,-0.480524,-1.84064,
2026_07_06_15_28_34.482,3.847,29.8,0,0.759,0,0,0,0, ,0,0,0,0,0, ,-38.5,155.5,987,-0.7,-0.5,-1.9,25,-38.6713,156.433,987.414,-0.630375,-0.481711,-1.84121,
2026_07_06_15_28_34.500,3.847,29.9,0,0.76,0,0,0,0.001, ,0,0,0,0,0, ,-37.8,155.8,987.6,-0.6,-0.4,-1.8,25,-38.6396,156.385,987.407,-0.631571,-0.479778,-1.84174,
2026_07_06_15_28_34.533,3.847,29.8,0,0.759,0,0,0,0, ,0,0,0,0,0, ,-38.6,157.1,988.6,-0.7,-0.5,-1.8,25,-38.6128,156.389,987.449,-0.632694,-0.477964,-1.8392,
2026_07_06_15_28_34.549,3.847,30,0,0.758,0,0,0,0.001, ,0,0,0,0,0, ,-38,155.5,988.2,-0.6,-0.5,-1.9,25,-38.5937,156.384,987.507,-0.633748,-0.479306,-1.83986,
2026_07_06_15_28_34.566,3.847,29.9,0,0.757,0,0,0,0, ,0,0,0,0,0, ,-39,155.7,987.5,-0.6,-0.5,-1.8,25,-38.588,156.336,987.528,-0.631692,-0.480567,-1.84048,
2026_07_06_15_28_34.583,3.847,29.9,0,0.758,0,0,0,0, ,0,0,0,0,0, ,-39.3,156.1,988.1,-0.6,-0.4,-1.9,25,-38.6223,156.31,987.544,-0.629761,-0.478705,-1.84106,
2026_07_06_15_28_34.599,3.847,29.9,0,0.759,0,0,0,0, ,0,0,0,0,0, ,-38.9,155.6,988.1,-0.7,-0.4,-1.8,25,-38.6514,156.282,987.578,-0.630994,-0.473909,-1.8416,
2026_07_06_15_28_34.633,3.847,29.9,0,0.758,0,0,0,0, ,0,0,0,0,0, ,-40.6,156.7,987.6,-0.7,-0.5,-1.8,25,-38.7183,156.274,987.595,-0.635199,-0.472452,-1.83907,
2026_07_06_15_28_34.649,3.847,29.9,0,0.757,0,0,0,0, ,0,0,0,0,0, ,-37.8,156.9,987.9,-0.7,-0.5,-1.8,25,-38.7477,156.306,987.604,-0.639148,-0.47413,-1.83669,
2026_07_06_15_28_34.676,3.847,29.8,0,0.759,0,0,0,0, ,0,0,0,0,0, ,-39.1,155.5,987.1,-0.7,-0.5,-1.9,25,-38.7295,156.299,987.598,-0.642856,-0.475707,-1.8375,
2026_07_06_15_28_34.683,3.847,29.9,0,0.758,0,0,0,0.001, ,0,0,0,0,0, ,-38,157.9,988.7,-0.6,-0.4,-1.8,25,-38.7186,156.324,987.616,-0.643291,-0.47414,-1.83826,
2026_07_06_15_28_34.699,3.847,29.8,0,0.756,0,0,0,0, ,0,0,0,0,0, ,-38,156.2,988.2,-0.6,-0.4,-1.8,25,-38.6748,156.368,987.667,-0.640653,-0.469622,-1.83593,
2026_07_06_15_28_34.733,3.847,29.9,0,0.759,0,0,0,0.001, ,0,0,0,0,0, ,-37.2,157.5,987.6,-0.6,-0.4,-1.9,25,-38.6093,156.397,987.681,-0.638176,-0.46538,-1.83679,
2026_07_06_15_28_34.750,3.847,29.8,0,0.76,0,0,0,0.001, ,0,0,0,0,0, ,-38.5,156.1,987.9,-0.6,-0.5,-1.8,25,-38.563,156.422,987.686,-0.63585,-0.464443,-1.83759,
2026_07_06_15_28_34.766,3.847,29.9,0,0.758,0,0,0,0.001, ,0,0,0,0,0, ,-39.4,156.2,987.6,-0.6,-0.5,-1.9,25,-38.5866,156.405,987.689,-0.633665,-0.466609,-1.83835,
2026_07_06_15_28_34.782,3.847,29.9,0,0.76,0,0,0,0.001, ,0,0,0,0,0, ,-38.5,155.2,988.1,-0.6,-0.5,-1.8,25,-38.6088,156.362,987.699,-0.631614,-0.468644,-1.83906,
2026_07_06_15_28_34.808,3.847,29.9,0,0.759,0,0,0,0.001, ,0,0,0,0,0, ,-38.6,157.2,988.6,-0.7,-0.5,-1.8,25,-38.6052,156.352,987.739,-0.632734,-0.470555,-1.83668,
2026_07_06_15_28_34.834,3.847,29.9,0,0.758,0,0,0,0.001, ,0,0,0,0,0, ,-37.4,156.7,987.4,-0.7,-0.5,-1.9,25,-38.5683,156.389,987.755,-0.636833,-0.472349,-1.83749,
2026_07_06_15_28_34.850,3.847,29.8,0,0.758,0,0,0,0.001, ,0,0,0,0,0, ,-38.8,156.8,986.8,-0.6,-0.5,-1.8,25,-38.5398,156.411,987.715,-0.637635,-0.474034,-1.83825,
2026_07_06_15_28_34.867,3.847,29.9,0,0.757,0,0,0,0.001, ,0,0,0,0,0, ,-38.9,156.6,986.8,-0.5,-0.5,-1.9,25,-38.5587,156.428,987.659,-0.632295,-0.475616,-1.83897,
2026_07_06_15_28_34.883,3.847,29.9,0,0.759,0,0,0,0.001, ,0,0,0,0,0, ,-37.9,156,987.5,-0.6,-0.5,-1.9,25,-38.549,156.421,987.628,-0.62728,-0.477102,-1.84269,
2026_07_06_15_28_34.918,3.847,29.9,0,0.759,0,0,0,0.001, ,0,0,0,0,0, ,-39.3,155.7,987.9,-0.6,-0.4,-1.9,25,-38.5521,156.386,987.633,-0.625618,-0.475451,-1.84618,
2026_07_06_15_28_34.918,3.847,29.9,0,0.759,0,0,0,0.001, ,0,0,0,0,0, ,-38.2,156,987.4,-0.6,-0.5,-1.8,25,-38.5642,156.353,987.634,-0.624057,-0.4739,-1.84641,
2026_07_06_15_28_34.949,3.847,29.8,0,0.759,0,0,0,0.001, ,0,0,0,0,0, ,-38.9,155.2,988.6,-0.6,-0.4,-1.9,25,-38.5633,156.307,987.656,-0.622591,-0.472443,-1.84663,
2026_07_06_15_28_34.967,3.847,29.9,0,0.757,0,0,0,0.001, ,0,0,0,0,0, ,-38.6,155.7,988.8,-0.7,-0.5,-1.9,25,-38.5747,156.255,987.72,-0.624261,-0.471076,-1.84988,
2026_07_06_15_28_34.983,3.847,29.9,0,0.758,0,0,0,0.001, ,0,0,0,0,0, ,-39.4,154.5,986.6,-0.6,-0.5,-1.9,25,-38.6006,156.185,987.718,-0.62583,-0.472838,-1.85294,
2026_07_06_15_28_35.000,3.847,29.9,0,0.759,0,0,0,0.001, ,0,0,0,0,0, ,-39.1,156.4,986.4,-0.6,-0.4,-1.9,25,-38.6402,156.14,987.644,-0.624256,-0.471447,-1.8558,
2026_07_06_15_28_35.017,3.847,29.9,0,0.758,0,0,0,0.001, ,0,0,0,0,0, ,-39.1,156.2,987.3,-0.7,-0.4,-1.9,25,-38.6682,156.15,987.596,-0.625824,-0.467093,-1.8585,
2026_07_06_15_28_35.050,3.847,29.9,0,0.759,0,0,0,0.001, ,0,0,0,0,0, ,-38,157.1,987.5,-0.7,-0.5,-1.9,25,-38.661,156.18,987.584,-0.630344,-0.466051,-1.86103,
2026_07_06_15_28_35.067,3.847,29.9,0,0.758,0,0,0,0.001, ,0,0,0,0,0, ,-38,156.3,987.6,-0.6,-0.4,-1.9,25,-38.6207,156.212,987.582,-0.631542,-0.465073,-1.8634,
2026_07_06_15_28_35.084,3.847,29.9,0,0.758,0,0,0,0.001, ,0,0,0,0,0, ,-37.8,155.6,987,-0.6,-0.5,-1.8,25,-38.5768,156.196,987.565,-0.62962,-0.464155,-1.86259,
2026_07_06_15_28_35.100,3.847,29.9,0,0.757,0,0,0,0.001, ,0,0,0,0,0, ,-39.5,155.7,988,-0.7,-0.4,-1.8,25,-38.5813,156.163,987.561,-0.630862,-0.463292,-1.85877,
2026_07_06_15_28_35.117,3.847,30,0,0.758,0,0,0,0.001, ,0,0,0,0,0, ,-39.6,155.6,986.3,-0.7,-0.5,-1.8,25,-38.6403,156.131,987.536,-0.635075,-0.462482,-1.85519,
2026_07_06_15_28_35.149,3.847,29.9,0,0.758,0,0,0,0, ,0,0,0,0,0, ,-38.9,156.6,987,-0.6,-0.5,-1.8,25,-38.6774,156.129,987.482,-0.635985,-0.464768,-1.85183,
2026_07_06_15_28_35.167,3.847,29.9,0,0.758,0,0,0,0.001, ,0,0,0,0,0, ,-39,157.2,988.1,-0.6,-0.5,-1.8,25,-38.6941,156.176,987.486,-0.633792,-0.466915,-1.84867,
2026_07_06_15_28_35.183,3.847,29.9,0,0.758,0,0,0,0.001, ,0,0,0,0,0, ,-38.4,156.3,986.9,-0.6,-0.5,-1.8,25,-38.6944,156.211,987.487,-0.631733,-0.468931,-1.8457,
2026_07_06_15_28_35.200,3.847,30,0,0.758,0,0,0,0.001, ,0,0,0,0,0, ,-38.8,157.4,987.3,-0.7,-0.5,-1.8,25,-38.6887,156.25,987.463,-0.632846,-0.470825,-1.84292,
2026_07_06_15_28_35.223,3.847,29.8,0,0.759,0,0,0,0, ,0,0,0,0,0, ,-37.9,156.3,987.4,-0.7,-0.5,-1.8,25,-38.668,156.287,987.456,-0.636938,-0.472603,-1.8403,
2026_07_06_15_28_35.233,3.847,29.9,0,0.759,0,0,0,0.002, ,0,0,0,0,0, ,-38,155.6,986.9,-0.7,-0.5,-1.8,25,-38.6243,156.266,987.438,-0.640781,-0.474272,-1.83785,
2026_07_06_15_28_35.267,3.847,29.9,0,0.759,0,0,0,0.001, ,0,0,0,0,0, ,-38.9,156.3,987.4,-0.6,-0.4,-1.8,25,-38.6136,156.247,987.42,-0.641343,-0.472793,-1.83554,
2026_07_06_15_28_35.284,3.847,29.9,0,0.759,0,0,0,0.001, ,0,0,0,0,0, ,-39.5,156.2,988.7,-0.7,-0.5,-1.8,25,-38.6494,156.247,987.458,-0.64187,-0.471404,-1.83337,
2026_07_06_15_28_35.300,3.847,30,0,0.758,0,0,0,0.001, ,0,0,0,0,0, ,-39,156.2,986.2,-0.8,-0.4,-1.8,25,-38.686,156.244,987.458,-0.648459,-0.4701,-1.83134,
2026_07_06_15_28_35.317,3.847,29.9,0,0.758,0,0,0,0, ,0,0,0,0,0, ,-37.9,156.8,988,-0.6,-0.5,-1.9,25,-38.6716,156.26,987.436,-0.6516,-0.468875,-1.83248,
2026_07_06_15_28_35.338,3.847,29.9,0,0.759,0,0,0,0.001, ,0,0,0,0,0, ,-38.9,157.4,988.1,-0.6,-0.4,-1.8,25,-38.655,156.311,987.474,-0.648456,-0.467725,-1.83355,
2026_07_06_15_28_35.366,3.847,30,0,0.759,0,0,0,0.001, ,0,0,0,0,0, ,-38.4,156.7,986.9,-0.6,-0.5,-1.9,25,-38.6547,156.356,987.475,-0.645503,-0.466645,-1.83455,
2026_07_06_15_28_35.384,3.847,30,0,0.759,0,0,0,0, ,0,0,0,0,0, ,-38.4,156.3,985.9,-0.6,-0.4,-1.9,25,-38.6392,156.365,987.41,-0.64273,-0.46563,-1.83854,
2026_07_06_15_28_35.401,3.847,30,0,0.76,0,0,0,0, ,0,0,0,0,0, ,-38.6,156.3,988,-0.7,-0.5,-1.8,25,-38.6307,156.361,987.382,-0.643173,-0.464678,-1.83924,
2026_07_06_15_28_35.417,3.847,29.9,0,0.757,0,0,0,0, ,0,0,0,0,0, ,-38.5,156.9,986.4,-0.5,-0.5,-1.8,25,-38.6258,156.376,987.371,-0.640542,-0.46683,-1.83684,
2026_07_06_15_28_35.433,3.847,29.9,0,0.757,0,0,0,0.001, ,0,0,0,0,0, ,-38.5,156.3,987.3,-0.6,-0.5,-1.9,25,-38.6181,156.389,987.339,-0.635025,-0.468852,-1.83765,
2026_07_06_15_28_35.468,3.847,29.9,0,0.758,0,0,0,0.001, ,0,0,0,0,0, ,-37.9,156.1,986.3,-0.6,-0.5,-1.8,25,-38.5927,156.378,987.306,-0.632891,-0.47075,-1.8384,
2026_07_06_15_28_35.484,3.847,29.9,0,0.759,0,0,0,0.001, ,0,0,0,0,0, ,-40,154.1,988.8,-0.7,-0.4,-1.9,25,-38.6144,156.3,987.321,-0.633933,-0.469485,-1.83911,
2026_07_06_15_28_35.503,3.847,29.9,0,0.76,0,0,0,0.001, ,0,0,0,0,0, ,-39.3,156.2,987.3,-0.7,-0.5,-1.8,25,-38.6775,156.23,987.365,-0.637959,-0.468298,-1.83977,
2026_07_06_15_28_35.517,3.847,29.9,0,0.76,0,0,0,0.001, ,0,0,0,0,0, ,-38.8,154.2,987.4,-0.7,-0.5,-1.9,25,-38.7002,156.167,987.364,-0.64174,-0.47023,-1.84039,
2026_07_06_15_28_35.534,3.847,29.9,0,0.758,0,0,0,0.001, ,0,0,0,0,0, ,-36.9,156.2,987.4,-0.6,-0.4,-1.8,25,-38.6484,156.108,987.367,-0.642243,-0.468997,-1.84098,
2026_07_06_15_28_35.550,3.847,30,0,0.758,0,0,0,0.001, ,0,0,0,0,0, ,-39.1,155.6,987.9,-0.6,-0.4,-1.8,25,-38.6089,156.095,987.384,-0.639669,-0.464792,-1.83848,
2026_07_06_15_28_35.583,3.847,29.9,0,0.76,0,0,0,0, ,0,0,0,0,0, ,-38.5,158,987.6,-0.6,-0.5,-1.8,25,-38.6206,156.138,987.406,-0.637252,-0.463891,-1.83614,
2026_07_06_15_28_35.601,3.847,29.9,0,0.758,0,0,0,0.001, ,0,0,0,0,0, ,-39.1,157.3,987.6,-0.6,-0.5,-1.9,25,-38.6315,156.23,987.418,-0.634982,-0.466091,-1.83698,
2026_07_06_15_28_35.617,3.847,29.8,0,0.758,0,0,0,0.001, ,0,0,0,0,0, ,-39.1,155.5,987.5,-0.7,-0.5,-1.9,25,-38.66,156.241,987.426,-0.635897,-0.468158,-1.84082,
2026_07_06_15_28_35.634,3.847,29.9,0,0.759,0,0,0,0.002, ,0,0,0,0,0, ,-38.3,156.8,988.6,-0.6,-0.5,-1.9,25,-38.6625,156.235,987.464,-0.636756,-0.470098,-1.84443,
2026_07_06_15_28_35.652,3.847,29.9,0,0.759,0,0,0,0.001, ,0,0,0,0,0, ,-39.3,155.2,987.1,-0.6,-0.4,-1.8,25,-38.6709,156.221,987.488,-0.634516,-0.468873,-1.84477,
2026_07_06_15_28_35.681,3.847,29.9,0,0.758,0,0,0,0.001, ,0,0,0,0,0, ,-38.2,156.1,988.5,-0.6,-0.5,-1.9,25,-38.6757,156.186,987.507,-0.632413,-0.467723,-1.84509,
2026_07_06_15_28_35.699,3.847,29.9,0,0.757,0,0,0,0.001, ,0,0,0,0,0, ,-38,156.3,987.7,-0.7,-0.5,-1.8,25,-38.6406,156.187,987.543,-0.633485,-0.46969,-1.84539,
2026_07_06_15_28_35.716,3.847,30,0,0.76,0,0,0,0.001, ,0,0,0,0,0, ,-37.8,156.9,987.4,-0.6,-0.5,-1.8,25,-38.5955,156.212,987.543,-0.634491,-0.471537,-1.84262,
2026_07_06_15_28_35.733,3.847,29.9,0,0.758,0,0,0,0, ,0,0,0,0,0, ,-38.6,157.1,987.4,-0.6,-0.5,-1.8,25,-38.5714,156.26,987.534,-0.632389,-0.473272,-1.84002,
2026_07_06_15_28_35.749,3.847,29.9,0,0.759,0,0,0,0.001, ,0,0,0,0,0, ,-39.4,155.8,987.5,-0.6,-0.4,-1.9,25,-38.5975,156.272,987.529,-0.630416,-0.471854,-1.84063,
2026_07_06_15_28_35.766,3.847,29.9,0,0.759,0,0,0,0.001, ,0,0,0,0,0, ,-38.4,157.4,987.6,-0.6,-0.5,-1.8,25,-38.6159,156.292,987.531,-0.628562,-0.470522,-1.8412,
2026_07_06_15_28_35.800,3.847,29.9,0,0.759,0,0,0,0.001, ,0,0,0,0,0, ,-38.6,157.3,987.6,-0.7,-0.5,-1.8,25,-38.6089,156.356,987.535,-0.629868,-0.472318,-1.83869,
2026_07_06_15_28_35.816,3.847,29.9,0,0.759,0,0,0,0.001, ,0,0,0,0,0, ,-38,156.4,987.7,-0.7,-0.5,-1.9,25,-38.59,156.386,987.542,-0.634142,-0.474005,-1.83938,
2026_07_06_15_28_35.833,3.847,30,0,0.758,0,0,0,0.001, ,0,0,0,0,0, ,-39.5,156.1,988.4,-0.7,-0.5,-1.9,25,-38.5998,156.378,987.573,-0.638155,-0.475589,-1.84307,
2026_07_06_15_28_35.849,3.847,29.9,0,0.757,0,0,0,0, ,0,0,0,0,0, ,-37.5,156.6,986.9,-0.6,-0.4,-1.9,25,-38.5937,156.376,987.577,-0.638877,-0.47403,-1.84654,
2026_07_06_15_28_35.866,3.847,29.9,0,0.759,0,0,0,0.001, ,0,0,0,0,0, ,-38,156.6,988,-0.7,-0.5,-1.8,25,-38.5423,156.39,987.57,-0.639555,-0.472565,-1.84675,
2026_07_06_15_28_35.899,3.847,29.9,0,0.759,0,0,0,0.001, ,0,0,0,0,0, ,-39,156.9,988,-0.7,-0.5,-1.8,25,-38.5397,156.412,987.596,-0.643238,-0.474237,-1.8439,
2026_07_06_15_28_35.916,3.847,29.9,0,0.758,0,0,0,0.001, ,0,0,0,0,0, ,-38.3,156.7,987.1,-0.6,-0.5,-1.8,25,-38.5464,156.436,987.593,-0.64365,-0.475807,-1.84123,
2026_07_06_15_28_35.937,3.847,29.9,0,0.759,0,0,0,0.001, ,0,0,0,0,0, ,-38.5,156.4,987.7,-0.6,-0.5,-1.8,25,-38.5375,156.442,987.581,-0.64099,-0.477281,-1.83872,
2026_07_06_15_28_35.949,3.847,30,0,0.758,0,0,0,0.001, ,0,0,0,0,0, ,-39,156.6,987.1,-0.6,-0.4,-1.9,25,-38.5505,156.446,987.57,-0.638493,-0.475619,-1.8394,
2026_07_06_15_28_35.976,3.847,29.9,0,0.757,0,0,0,0, ,0,0,0,0,0, ,-39.3,156.6,987,-0.7,-0.5,-1.9,25,-38.587,156.455,987.539,-0.639194,-0.474058,-1.8431,
2026_07_06_15_28_35.998,3.847,29.9,0,0.759,0,0,0,0.001, ,0,0,0,0,0, ,-39.3,155.7,988.1,-0.6,-0.5,-1.8,25,-38.6304,156.437,987.539,-0.639852,-0.475639,-1.84352,
2026_07_06_15_28_36.016,3.847,29.9,0,0.758,0,0,0,0.001, ,0,0,0,0,0, ,-38.2,155.5,988.4,-0.6,-0.5,-1.8,25,-38.6377,156.386,987.583,-0.637424,-0.477123,-1.84087,
2026_07_06_15_28_36.033,3.847,30,0,0.759,0,0,0,0.001, ,0,0,0,0,0, ,-37.2,155.6,987.6,-0.7,-0.5,-1.8,25,-38.5806,156.335,987.608,-0.63819,-0.478517,-1.83838,
2026_07_06_15_28_36.049,3.847,30,0,0.758,0,0,0,0, ,0,0,0,0,0, ,-38.9,156.9,988.5,-0.6,-0.5,-1.8,25,-38.5483,156.33,987.635,-0.63891,-0.479826,-1.83604,
2026_07_06_15_28_36.066,3.847,30,0,0.758,0,0,0,0, ,0,0,0,0,0, ,-38.3,156.4,986.9,-0.7,-0.5,-1.9,25,-38.5514,156.349,987.639,-0.639586,-0.481056,-1.83689,
2026_07_06_15_28_36.097,3.847,30,0,0.758,0,0,0,0, ,0,0,0,0,0, ,-38.4,157.1,987.7,-0.6,-0.5,-1.9,25,-38.5391,156.374,987.618,-0.64022,-0.48221,-1.84073,
2026_07_06_15_28_36.116,3.847,30.1,0,0.758,0,0,0,0, ,0,0,0,0,0, ,-39.7,156.7,986.3,-0.6,-0.5,-1.9,25,-38.5703,156.406,987.581,-0.637769,-0.483294,-1.84435,
2026_07_06_15_28_36.134,3.847,30,0,0.758,0,0,0,0, ,0,0,0,0,0, ,-38.3,155.2,988.1,-0.7,-0.5,-1.9,25,-38.5965,156.378,987.557,-0.638515,-0.484312,-1.84774,
2026_07_06_15_28_36.150,3.847,29.9,0,0.758,0,0,0,0, ,0,0,0,0,0, ,-38.6,155.7,986.9,-0.6,-0.5,-1.9,25,-38.5875,156.321,987.554,-0.639215,-0.485268,-1.85092,
2026_07_06_15_28_36.166,3.847,30,0,0.759,0,0,0,0.001, ,0,0,0,0,0, ,-38,157.5,988.1,-0.6,-0.5,-1.9,25,-38.57,156.338,987.551,-0.636825,-0.486166,-1.85391,
2026_07_06_15_28_36.182,3.847,30,0,0.76,0,0,0,0, ,0,0,0,0,0, ,-37.9,156.6,988.1,-0.6,-0.5,-1.9,25,-38.5322,156.382,987.584,-0.634581,-0.487009,-1.85672,
2026_07_06_15_28_36.216,3.847,29.9,0,0.759,0,0,0,0, ,0,0,0,0,0, ,-38.3,154.7,987.7,-0.7,-0.5,-1.8,25,-38.5059,156.337,987.603,-0.63552,-0.487801,-1.85631,
2026_07_06_15_28_36.234,3.847,30,0,0.758,0,0,0,0.001, ,0,0,0,0,0, ,-37.7,156.1,987.9,-0.6,-0.5,-1.9,25,-38.4751,156.28,987.615,-0.636403,-0.488544,-1.85593,
2026_07_06_15_28_36.250,3.847,30,0,0.759,0,0,0,0, ,0,0,0,0,0, ,-38.6,156.7,986.6,-0.7,-0.5,-1.8,25,-38.4553,156.287,987.593,-0.637231,-0.489242,-1.85557,
2026_07_06_15_28_36.271,3.847,29.9,0,0.758,0,0,0,0, ,0,0,0,0,0, ,-38.9,156.7,988.4,-0.7,-0.5,-1.8,25,-38.4732,156.312,987.587,-0.641056,-0.489898,-1.85218,
2026_07_06_15_28_36.283,3.847,30,0,0.76,0,0,0,0.001, ,0,0,0,0,0, ,-36.9,156.8,987.1,-0.7,-0.4,-1.9,25,-38.4383,156.339,987.597,-0.644648,-0.487466,-1.85205,
2026_07_06_15_28_36.315,3.847,30,0,0.758,0,0,0,0, ,0,0,0,0,0, ,-37.4,157.1,986.2,-0.7,-0.4,-1.9,25,-38.3598,156.376,987.54,-0.648021,-0.482136,-1.85497,
2026_07_06_15_28_36.333,3.847,29.9,0,0.759,0,0,0,0, ,0,0,0,0,0, ,-38,155.3,987.7,-0.6,-0.5,-1.8,25,-38.3196,156.366,987.504,-0.648142,-0.480178,-1.85467,
2026_07_06_15_28_36.351,3.847,30.1,0,0.758,0,0,0,0.001, ,0,0,0,0,0, ,-39,156.8,986.5,-0.7,-0.4,-1.8,25,-38.3306,156.346,987.479,-0.648255,-0.478339,-1.85133,
2026_07_06_15_28_36.365,3.847,30,0,0.757,0,0,0,0, ,0,0,0,0,0, ,-38.9,157.1,986.9,-0.7,-0.5,-1.9,25,-38.3683,156.383,987.432,-0.651408,-0.476612,-1.85125,
2026_07_06_15_28_36.382,3.847,29.9,0,0.759,0,0,0,0, ,0,0,0,0,0, ,-37.9,156.3,987.3,-0.6,-0.5,-1.8,25,-38.3702,156.402,987.411,-0.651322,-0.478037,-1.85118,
2026_07_06_15_28_36.415,3.847,30,0,0.758,0,0,0,0.001, ,0,0,0,0,0, ,-37.9,156.3,988,-0.7,-0.5,-1.8,25,-38.3416,156.396,987.426,-0.651242,-0.479376,-1.84806,
2026_07_06_15_28_36.433,3.847,30,0,0.758,0,0,0,0, ,0,0,0,0,0, ,-38.6,156.2,987.5,-0.7,-0.5,-1.9,25,-38.336,156.387,987.446,-0.654213,-0.480633,-1.84818,
2026_07_06_15_28_36.448,3.847,30,0,0.759,0,0,0,0, ,0,0,0,0,0, ,-37.7,154.9,987.4,-0.7,-0.5,-1.8,25,-38.3247,156.336,987.446,-0.657003,-0.481813,-1.84829,
2026_07_06_15_28_36.465,3.847,30,0,0.758,0,0,0,0, ,0,0,0,0,0, ,-39.1,158,988,-0.6,-0.5,-1.9,25,-38.3293,156.343,987.461,-0.656576,-0.482921,-1.84839,
2026_07_06_15_28_36.483,3.847,30.1,0,0.758,0,0,0,0, ,0,0,0,0,0, ,-39.1,157.9,985.8,-0.6,-0.5,-1.9,25,-38.3762,156.441,987.427,-0.653129,-0.483962,-1.85154,
2026_07_06_15_28_36.499,3.847,30,0,0.758,0,0,0,0, ,0,0,0,0,0, ,-38.8,156.2,987.6,-0.7,-0.5,-1.9,25,-38.4112,156.478,987.383,-0.652938,-0.484939,-1.85449,
2026_07_06_15_28_36.533,3.847,30,0,0.757,0,0,0,0, ,0,0,0,0,0, ,-38.6,156.7,987.6,-0.6,-0.5,-1.8,25,-38.4288,156.477,987.396,-0.652759,-0.485857,-1.85422,
2026_07_06_15_28_36.549,3.847,30,0,0.759,0,0,0,0, ,0,0,0,0,0, ,-38,155.5,989.6,-0.5,-0.5,-1.9,25,-38.4209,156.454,987.469,-0.646497,-0.486719,-1.85396,
2026_07_06_15_28_36.566,3.847,29.9,0,0.758,0,0,0,0, ,0,0,0,0,0, ,-38.8,157.7,987.5,-0.6,-0.4,-1.9,25,-38.4197,156.463,987.535,-0.640617,-0.484481,-1.85677,
2026_07_06_15_28_36.583,3.847,30,0,0.758,0,0,0,0.001, ,0,0,0,0,0, ,-38.5,155.2,988.2,-0.7,-0.5,-1.8,25,-38.4337,156.462,987.554,-0.641189,-0.48238,-1.85635,
2026_07_06_15_28_36.600,3.847,30,0,0.759,0,0,0,0, ,0,0,0,0,0, ,-39.1,156.6,987.6,-0.7,-0.5,-1.8,25,-38.456,156.428,987.576,-0.644773,-0.483454,-1.85292,
2026_07_06_15_28_36.633,3.847,30,0,0.759,0,0,0,0, ,0,0,0,0,0, ,-39.4,156.9,986.6,-0.6,-0.5,-1.9,25,-38.5044,156.447,987.547,-0.645091,-0.484462,-1.85274,
2026_07_06_15_28_36.649,3.847,30,0,0.758,0,0,0,0, ,0,0,0,0,0, ,-38,156.9,987,-0.7,-0.5,-1.8,25,-38.5163,156.475,987.501,-0.64539,-0.485409,-1.85257,
2026_07_06_15_28_36.666,3.847,30,0,0.759,0,0,0,0, ,0,0,0,0,0, ,-37.7,155.3,987,-0.7,-0.5,-1.9,25,-38.4757,156.452,987.471,-0.648718,-0.486298,-1.85242,
2026_07_06_15_28_36.684,3.847,30,0,0.758,0,0,0,0, ,0,0,0,0,0, ,-38.4,156.9,989.3,-0.5,-0.5,-1.8,25,-38.4498,156.43,987.512,-0.645749,-0.487133,-1.85227,
2026_07_06_15_28_36.700,3.847,29.9,0,0.758,0,0,0,0, ,0,0,0,0,0, ,-37.8,157.5,987.6,-0.6,-0.4,-1.9,25,-38.4285,156.477,987.569,-0.639915,-0.48487,-1.85213,
2026_07_06_15_28_36.716,3.847,29.9,0,0.758,0,0,0,0.001, ,0,0,0,0,0, ,-38.9,156.6,987.7,-0.6,-0.4,-1.8,25,-38.4237,156.512,987.574,-0.637482,-0.479698,-1.852,
2026_07_06_15_28_36.749,3.847,30.1,0,0.758,0,0,0,0.001, ,0,0,0,0,0, ,-38.9,156.3,987.6,-0.7,-0.5,-1.9,25,-38.4527,156.508,987.579,-0.638245,-0.477889,-1.85188,
2026_07_06_15_28_36.766,3.847,29.9,0,0.758,0,0,0,0, ,0,0,0,0,0, ,-39.5,156.7,987.4,-0.6,-0.4,-1.8,25,-38.4982,156.508,987.574,-0.638961,-0.476189,-1.85177,
2026_07_06_15_28_36.783,3.847,30,0,0.758,0,0,0,0.001, ,0,0,0,0,0, ,-38.5,155.6,987,-0.6,-0.5,-1.8,25,-38.5288,156.486,987.551,-0.636587,-0.474593,-1.84861,
2026_07_06_15_28_36.799,3.847,30,0,0.76,0,0,0,0, ,0,0,0,0,0, ,-38,156.2,989,-0.6,-0.5,-1.9,25,-38.5118,156.45,987.578,-0.634358,-0.476141,-1.8487,
2026_07_06_15_28_36.816,3.847,29.9,0,0.759,0,0,0,0, ,0,0,0,0,0, ,-38,157.2,986.9,-0.6,-0.5,-1.9,25,-38.4806,156.466,987.601,-0.632264,-0.477595,-1.85182,
2026_07_06_15_28_36.848,3.847,30,0,0.758,0,0,0,0.001, ,0,0,0,0,0, ,-38.3,155.1,988.1,-0.6,-0.5,-1.8,25,-38.4605,156.446,987.595,-0.630298,-0.478961,-1.85171,
2026_07_06_15_28_36.866,3.847,30,0,0.758,0,0,0,0, ,0,0,0,0,0, ,-39.3,157.1,985.9,-0.7,-0.5,-1.9,25,-38.4812,156.425,987.559,-0.631498,-0.480243,-1.85161,
2026_07_06_15_28_36.883,3.847,30,0,0.758,0,0,0,0, ,0,0,0,0,0, ,-39,156.2,988.4,-0.6,-0.5,-1.8,25,-38.5219,156.439,987.534,-0.632626,-0.481447,-1.85151,
2026_07_06_15_28_36.899,3.847,29.9,0,0.758,0,0,0,0, ,0,0,0,0,0, ,-39,157.2,986.4,-0.6,-0.5,-1.8,25,-38.5511,156.455,987.526,-0.630638,-0.482577,-1.84837,
2026_07_06_15_28_36.933,3.847,30,0,0.758,0,0,0,0.001, ,0,0,0,0,0, ,-39.1,157.2,986.5,-0.6,-0.5,-1.8,25,-38.5815,156.5,987.46,-0.628771,-0.483639,-1.84542,
2026_07_06_15_28_36.948,3.847,30,0,0.758,0,0,0,0, ,0,0,0,0,0, ,-37.8,155.3,988.8,-0.7,-0.5,-1.8,25,-38.5735,156.485,987.472,-0.630064,-0.484636,-1.84265,
2026_07_06_15_28_36.965,3.847,30,0,0.76,0,0,0,0, ,0,0,0,0,0, ,-39.6,156.8,987.1,-0.6,-0.4,-1.8,25,-38.5812,156.459,987.501,-0.631279,-0.482525,-1.84006,
2026_07_06_15_28_36.982,3.847,29.9,0,0.759,0,0,0,0, ,0,0,0,0,0, ,-37.7,156.8,988.8,-0.6,-0.5,-1.9,25,-38.5854,156.479,987.528,-0.629373,-0.480543,-1.84066,
2026_07_06_15_28_36.999,3.847,30,0,0.76,0,0,0,0.001, ,0,0,0,0,0, ,-38.4,155.7,988.2,-0.6,-0.4,-1.9,25,-38.5527,156.465,987.587,-0.627583,-0.478682,-1.84428,
2026_07_06_15_28_37.015,3.847,29.9,0,0.758,0,0,0,0, ,0,0,0,0,0, ,-38.3,156,987.6,-0.6,-0.5,-1.8,25,-38.5404,156.428,987.606,-0.625902,-0.476934,-1.84463,
2026_07_06_15_28_37.049,3.847,29.9,0,0.758,0,0,0,0.001, ,0,0,0,0,0, ,-37.5,157.2,988.1,-0.7,-0.5,-1.8,25,-38.5014,156.438,987.621,-0.627371,-0.47834,-1.84191,
2026_07_06_15_28_37.066,3.847,30,0,0.758,0,0,0,0.001, ,0,0,0,0,0, ,-39,156.1,987.3,-0.7,-0.4,-1.9,25,-38.486,156.451,987.626,-0.631797,-0.476613,-1.8424,
2026_07_06_15_28_37.082,3.847,29.9,0,0.759,0,0,0,0, ,0,0,0,0,0, ,-37.9,156.7,986.6,-0.6,-0.4,-1.8,25,-38.4839,156.448,987.585,-0.632906,-0.471944,-1.84286,
2026_07_06_15_28_37.099,3.847,30,0,0.759,0,0,0,0.001, ,0,0,0,0,0, ,-39,156.4,988.7,-0.6,-0.5,-1.8,25,-38.4818,156.454,987.589,-0.630901,-0.470607,-1.84025,
2026_07_06_15_28_37.116,3.847,30.1,0,0.758,0,0,0,0, ,0,0,0,0,0, ,-38.4,155.6,987.6,-0.6,-0.4,-1.8,25,-38.4951,156.427,987.623,-0.629018,-0.469351,-1.8378,
2026_07_06_15_28_37.134,3.847,30,0,0.757,0,0,0,0, ,0,0,0,0,0, ,-38.2,157.5,987.6,-0.6,-0.5,-1.9,25,-38.4832,156.434,987.622,-0.627249,-0.468172,-1.83854,
2026_07_06_15_28_37.166,3.847,29.9,0,0.759,0,0,0,0, ,0,0,0,0,0, ,-38.5,156.2,988.1,-0.7,-0.5,-1.9,25,-38.4751,156.46,987.636,-0.628636,-0.470112,-1.84229,
2026_07_06_15_28_37.182,3.847,30,0,0.759,0,0,0,0.001, ,0,0,0,0,0, ,-38.5,156.7,988.7,-0.6,-0.5,-1.9,25,-38.4766,156.459,987.682,-0.629938,-0.471933,-1.8458,
2026_07_06_15_28_37.199,3.847,29.9,0,0.758,0,0,0,0, ,0,0,0,0,0, ,-39.5,155.6,988.8,-0.7,-0.5,-1.8,25,-38.5085,156.44,987.747,-0.63116,-0.473643,-1.84606,
2026_07_06_15_28_37.216,3.847,30,0,0.758,0,0,0,0.001, ,0,0,0,0,0, ,-39,156,987.9,-0.6,-0.5,-1.8,25,-38.5537,156.401,987.784,-0.632308,-0.475249,-1.84325,
2026_07_06_15_28_37.234,3.847,30,0,0.758,0,0,0,0, ,0,0,0,0,0, ,-39,157.1,986.9,-0.6,-0.5,-1.8,25,-38.5809,156.41,987.761,-0.63034,-0.476758,-1.84062,
2026_07_06_15_28_37.266,3.847,30,0,0.758,0,0,0,0, ,0,0,0,0,0, ,-39.6,157.7,987.6,-0.7,-0.4,-1.9,25,-38.6247,156.47,987.729,-0.631538,-0.475127,-1.84119,
2026_07_06_15_28_37.283,3.847,30,0,0.758,0,0,0,0, ,0,0,0,0,0, ,-39.4,156.8,987.7,-0.6,-0.4,-1.9,25,-38.678,156.518,987.725,-0.632663,-0.470549,-1.84477,
2026_07_06_15_28_37.301,3.847,30,0,0.758,0,0,0,0, ,0,0,0,0,0, ,-38.2,156,986.6,-0.6,-0.4,-1.9,25,-38.6855,156.511,987.69,-0.630672,-0.46625,-1.84814,
2026_07_06_15_28_37.316,3.847,29.9,0,0.759,0,0,0,0, ,0,0,0,0,0, ,-37.5,156,987,-0.6,-0.5,-1.8,25,-38.6346,156.48,987.635,-0.628803,-0.46526,-1.84825,
2026_07_06_15_28_37.334,3.847,29.9,0,0.759,0,0,0,0.001, ,0,0,0,0,0, ,-39.6,155.7,988.2,-0.6,-0.4,-1.8,25,-38.6294,156.441,987.633,-0.627048,-0.46433,-1.84531,
2026_07_06_15_28_37.365,3.847,29.9,0,0.758,0,0,0,0.001, ,0,0,0,0,0, ,-38,155.8,987.6,-0.7,-0.5,-1.9,25,-38.6398,156.399,987.649,-0.628447,-0.463457,-1.8456,
2026_07_06_15_28_37.382,3.847,29.9,0,0.76,0,0,0,0.001, ,0,0,0,0,0, ,-39.1,156,988.5,-0.7,-0.5,-1.9,25,-38.6343,156.369,987.674,-0.632807,-0.465683,-1.84891,
2026_07_06_15_28_37.401,3.847,29.9,0,0.758,0,0,0,0.001, ,0,0,0,0,0, ,-37.9,155.8,988,-0.6,-0.5,-1.8,25,-38.6261,156.34,987.709,-0.633855,-0.467775,-1.84898,
2026_07_06_15_28_37.415,3.847,30,0,0.758,0,0,0,0.001, ,0,0,0,0,0, ,-39.1,157.4,987.7,-0.7,-0.5,-2,25,-38.6185,156.356,987.718,-0.634838,-0.469738,-1.85209,
2026_07_06_15_28_37.434,3.847,29.9,0,0.758,0,0,0,0, ,0,0,0,0,0, ,-38.3,156.2,986.9,-0.6,-0.4,-1.9,25,-38.6234,156.383,987.692,-0.635762,-0.468536,-1.85805,
2026_07_06_15_28_37.451,3.847,29.9,0,0.759,0,0,0,0.001, ,0,0,0,0,0, ,-38.8,156.3,986.8,-0.6,-0.4,-1.8,25,-38.619,156.375,987.641,-0.633583,-0.464359,-1.85756,
2026_07_06_15_28_37.488,3.847,30,0,0.759,0,0,0,0.001, ,0,0,0,0,0, ,-38.5,156.7,987.4,-0.6,-0.5,-1.8,25,-38.6208,156.383,987.608,-0.631537,-0.463484,-1.85406,
2026_07_06_15_28_37.499,3.847,29.9,0,0.758,0,0,0,0.001, ,0,0,0,0,0, ,-38.5,157.5,988.6,-0.7,-0.5,-1.8,25,-38.6135,156.426,987.632,-0.632662,-0.465709,-1.85076,
2026_07_06_15_28_37.515,3.847,29.9,0,0.756,0,0,0,0.001, ,0,0,0,0,0, ,-38.9,156.1,987.5,-0.6,-0.4,-1.8,25,-38.6188,156.449,987.657,-0.633718,-0.464752,-1.84767,
2026_07_06_15_28_37.535,3.847,30,0,0.758,0,0,0,0.001, ,0,0,0,0,0, ,-38.3,157.4,987.1,-0.7,-0.5,-1.7,25,-38.6176,156.467,987.635,-0.63471,-0.463853,-1.84172,
2026_07_06_15_28_37.548,3.847,29.9,0,0.759,0,0,0,0.001, ,0,0,0,0,0, ,-38.9,156.1,988.6,-0.6,-0.5,-1.8,25,-38.6165,156.485,987.649,-0.635642,-0.466056,-1.83613,
2026_07_06_15_28_37.582,3.847,29.9,0,0.758,0,0,0,0.001, ,0,0,0,0,0, ,-38.2,156.8,988.4,-0.6,-0.5,-1.8,25,-38.6125,156.483,987.7,-0.63347,-0.468124,-1.83393,
2026_07_06_15_28_37.598,3.847,29.9,0,0.757,0,0,0,0.001, ,0,0,0,0,0, ,-38.8,157.7,988.6,-0.6,-0.5,-1.8,25,-38.6056,156.529,987.749,-0.631431,-0.470067,-1.83186,
2026_07_06_15_28_37.615,3.847,29.9,0,0.758,0,0,0,0.001, ,0,0,0,0,0, ,-38.9,156.6,988.5,-0.7,-0.5,-1.9,25,-38.6205,156.567,987.798,-0.632562,-0.471891,-1.83296,
2026_07_06_15_28_37.635,3.847,30,0,0.757,0,0,0,0.001, ,0,0,0,0,0, ,-39.4,156.9,989.3,-0.6,-0.4,-1.9,25,-38.6528,156.578,987.865,-0.633625,-0.470557,-1.83705,
2026_07_06_15_28_37.649,3.847,29.9,0,0.758,0,0,0,0.001, ,0,0,0,0,0, ,-38.9,157.1,988.8,-0.6,-0.5,-1.8,25,-38.6831,156.604,987.937,-0.631576,-0.469304,-1.83784,
2026_07_06_15_28_37.682,3.847,29.9,0,0.757,0,0,0,0.001, ,0,0,0,0,0, ,-39.1,157.2,986.5,-0.7,-0.5,-1.8,25,-38.7024,156.637,987.92,-0.632699,-0.471175,-1.83553,
2026_07_06_15_28_37.699,3.847,29.8,0,0.759,0,0,0,0.001, ,0,0,0,0,0, ,-38.6,155.8,987.9,-0.7,-0.6,-1.8,25,-38.7114,156.629,987.876,-0.6368,-0.475978,-1.83337,
2026_07_06_15_28_37.715,3.847,29.9,0,0.758,0,0,0,0.002, ,0,0,0,0,0, ,-39.3,156.8,987.4,-0.6,-0.5,-1.9,25,-38.7259,156.609,987.862,-0.637604,-0.480489,-1.83438,
2026_07_06_15_28_37.735,3.847,29.9,0,0.758,0,0,0,0.001, ,0,0,0,0,0, ,-38.6,157.7,987.7,-0.6,-0.5,-1.9,25,-38.7396,156.648,987.843,-0.635313,-0.481678,-1.83838,
2026_07_06_15_28_37.765,3.847,29.9,0,0.757,0,0,0,0.001, ,0,0,0,0,0, ,-37.5,157.3,988.2,-0.6,-0.4,-1.9,25,-38.6976,156.7,987.85,-0.633161,-0.479747,-1.84213,
2026_07_06_15_28_37.780,3.847,29.9,0,0.758,0,0,0,0.001, ,0,0,0,0,0, ,-39.1,155.8,988.8,-0.7,-0.5,-1.8,25,-38.6733,156.691,987.889,-0.634187,-0.477935,-1.84261,
2026_07_06_15_28_37.806,3.847,29.9,0,0.759,0,0,0,0.001, ,0,0,0,0,0, ,-40.1,155.2,988.8,-0.6,-0.5,-1.9,25,-38.7298,156.618,987.945,-0.635151,-0.479279,-1.84306,
2026_07_06_15_28_37.815,3.847,30,0,0.758,0,0,0,0.001, ,0,0,0,0,0, ,-38.5,155.8,987.9,-0.6,-0.5,-1.8,25,-38.7646,156.55,987.969,-0.633009,-0.480542,-1.84349,
2026_07_06_15_28_37.835,3.847,29.9,0,0.757,0,0,0,0.001, ,0,0,0,0,0, ,-38.6,156.8,987.6,-0.6,-0.4,-1.9,25,-38.7515,156.535,987.956,-0.630997,-0.478681,-1.84388,
2026_07_06_15_28_37.848,3.847,29.9,0,0.758,0,0,0,0.001, ,0,0,0,0,0, ,-39,155.6,987.4,-0.6,-0.5,-1.8,25,-38.7544,156.514,987.928,-0.629108,-0.476933,-1.84426,
2026_07_06_15_28_37.882,3.847,29.9,0,0.759,0,0,0,0.001, ,0,0,0,0,0, ,-38.3,157.4,987.9,-0.6,-0.5,-1.8,25,-38.7481,156.513,987.911,-0.627334,-0.478339,-1.84156,
2026_07_06_15_28_37.899,3.847,29.9,0,0.759,0,0,0,0.001, ,0,0,0,0,0, ,-38.4,155.6,988.5,-0.6,-0.4,-1.9,25,-38.7238,156.513,987.929,-0.625669,-0.476612,-1.84207,
2026_07_06_15_28_37.915,3.847,30,0,0.759,0,0,0,0.001, ,0,0,0,0,0, ,-37.7,155.7,989.2,-0.6,-0.4,-1.9,25,-38.6828,156.46,987.985,-0.624105,-0.471943,-1.8456,
2026_07_06_15_28_37.935,3.847,29.9,0,0.76,0,0,0,0.001, ,0,0,0,0,0, ,-39,156.7,988.1,-0.6,-0.5,-1.9,25,-38.6625,156.444,988.026,-0.622636,-0.470606,-1.84892,
2026_07_06_15_28_37.958,3.847,29.9,0,0.759,0,0,0,0.001, ,0,0,0,0,0, ,-39.1,155.3,987.7,-0.6,-0.4,-1.9,25,-38.6861,156.417,988.018,-0.621256,-0.46935,-1.85203,
2026_07_06_15_28_37.965,3.847,30,0,0.758,0,0,0,0.002, ,0,0,0,0,0, ,-39,155.7,987.6,-0.7,-0.4,-1.8,25,-38.7083,156.361,987.996,-0.623008,-0.465124,-1.85191,
2026_07_06_15_28_38.001,3.847,30,0,0.758,0,0,0,0.001, ,0,0,0,0,0, ,-39,156.7,989,-0.7,-0.4,-1.9,25,-38.726,156.351,988.014,-0.6277,-0.461156,-1.85179,
2026_07_06_15_28_38.015,3.847,30,0,0.758,0,0,0,0.001, ,0,0,0,0,0, ,-38.5,156.9,987.5,-0.7,-0.5,-1.8,25,-38.7275,156.379,988.028,-0.632105,-0.460476,-1.85168,
2026_07_06_15_28_38.035,3.847,30,0,0.759,0,0,0,0.001, ,0,0,0,0,0, ,-40.5,157.2,987.5,-0.6,-0.5,-1.8,25,-38.7746,156.42,987.996,-0.633196,-0.462885,-1.84853,
2026_07_06_15_28_38.048,3.847,29.9,0,0.758,0,0,0,0.001, ,0,0,0,0,0, ,-38.6,156.3,986.9,-0.6,-0.5,-1.8,25,-38.8218,156.44,987.948,-0.631173,-0.465146,-1.84558,
2026_07_06_15_28_38.082,3.847,29.9,0,0.758,0,0,0,0.002, ,0,0,0,0,0, ,-38.3,156.8,987,-0.6,-0.5,-1.8,25,-38.7992,156.447,987.887,-0.629273,-0.46727,-1.8428,
2026_07_06_15_28_38.097,3.847,29.9,0,0.76,0,0,0,0.002, ,0,0,0,0,0, ,-38.5,156.7,987,-0.6,-0.5,-1.9,25,-38.7748,156.465,987.833,-0.62749,-0.469265,-1.84324,
2026_07_06_15_28_38.115,3.847,29.9,0,0.757,0,0,0,0.002, ,0,0,0,0,0, ,-38.2,156.4,988.1,-0.6,-0.5,-1.8,25,-38.749,156.47,987.816,-0.625814,-0.471138,-1.84365,
2026_07_06_15_28_38.135,3.847,30,0,0.759,0,0,0,0.002, ,0,0,0,0,0, ,-38.8,155.5,988.1,-0.7,-0.5,-1.9,25,-38.7338,156.439,987.833,-0.627288,-0.472896,-1.84404,
2026_07_06_15_28_38.164,3.847,30,0,0.758,0,0,0,0.001, ,0,0,0,0,0, ,-38,156.6,987.5,-0.6,-0.5,-1.8,25,-38.7134,156.415,987.831,-0.628672,-0.474548,-1.8444,
2026_07_06_15_28_38.165,3.847,30,0,0.758,0,0,0,0.001, ,0,0,0,0,0, ,-39.4,156.7,989.5,-0.6,-0.5,-1.9,25,-38.7126,156.429,987.872,-0.626925,-0.476099,-1.84474,
2026_07_06_15_28_38.199,3.847,29.9,0,0.759,0,0,0,0.001, ,0,0,0,0,0, ,-38.4,155.7,987.5,-0.6,-0.4,-1.9,25,-38.724,156.415,987.91,-0.625284,-0.474509,-1.84811,
2026_07_06_15_28_38.216,3.847,30,0,0.759,0,0,0,0.002, ,0,0,0,0,0, ,-38.6,156,989.2,-0.6,-0.4,-1.8,25,-38.7104,156.381,987.937,-0.623743,-0.469968,-1.84822,
2026_07_06_15_28_38.248,3.847,30,0,0.758,0,0,0,0.001, ,0,0,0,0,0, ,-39,156.9,989.6,-0.7,-0.4,-1.8,25,-38.7159,156.385,988.026,-0.625343,-0.465705,-1.84528,
2026_07_06_15_28_38.256,3.847,30,0,0.757,0,0,0,0.001, ,0,0,0,0,0, ,-39.4,156.6,988,-0.6,-0.5,-1.9,25,-38.7454,156.407,988.073,-0.626846,-0.464748,-1.84557,
2026_07_06_15_28_38.282,3.847,30,0,0.758,0,0,0,0.001, ,0,0,0,0,0, ,-40.1,156.9,988.4,-0.7,-0.4,-1.8,25,-38.8066,156.428,988.081,-0.628257,-0.463849,-1.84584,
2026_07_06_15_28_38.283,3.847,29.9,0,0.758,0,0,0,0.001, ,0,0,0,0,0, ,-37.5,156.8,987.1,-0.7,-0.4,-1.8,25,-38.8062,156.454,988.061,-0.632629,-0.459958,-1.84305,
2026_07_06_15_28_38.315,3.847,29.9,0,0.759,0,0,0,0.002, ,0,0,0,0,0, ,-39.1,156.2,988,-0.6,-0.5,-1.8,25,-38.7753,156.457,988.03,-0.633687,-0.459351,-1.84043,
2026_07_06_15_28_38.332,3.847,30,0,0.758,0,0,0,0.002, ,0,0,0,0,0, ,-39.7,155.6,988.1,-0.7,-0.4,-1.9,25,-38.8134,156.423,988.031,-0.634681,-0.458781,-1.84101,
2026_07_06_15_28_38.348,3.847,29.9,0,0.759,0,0,0,0.001, ,0,0,0,0,0, ,-39.3,156,988.2,-0.6,-0.5,-1.9,25,-38.8552,156.385,988.038,-0.635615,-0.458246,-1.8446,
2026_07_06_15_28_38.365,3.847,29.9,0,0.759,0,0,0,0.002, ,0,0,0,0,0, ,-38.8,157.1,988.1,-0.6,-0.5,-1.9,25,-38.8671,156.395,988.045,-0.633445,-0.460791,-1.84798,
2026_07_06_15_28_38.397,3.847,30,0,0.757,0,0,0,0.002, ,0,0,0,0,0, ,-39.4,155.7,988.4,-0.6,-0.5,-1.9,25,-38.8813,156.395,988.057,-0.631407,-0.46318,-1.85115,
2026_07_06_15_28_38.414,3.847,30,0,0.758,0,0,0,0.001, ,0,0,0,0,0, ,-38.6,156.4,988.6,-0.6,-0.4,-1.9,25,-38.8885,156.374,988.084,-0.629493,-0.462377,-1.85413,
2026_07_06_15_28_38.432,3.847,29.9,0,0.757,0,0,0,0.001, ,0,0,0,0,0, ,-39.6,157.3,988.2,-0.6,-0.4,-1.9,25,-38.9014,156.403,988.104,-0.627696,-0.458576,-1.85692,
2026_07_06_15_28_38.448,3.847,29.8,0,0.757,0,0,0,0.002, ,0,0,0,0,0, ,-38.6,157.7,987,-0.6,-0.5,-1.8,25,-38.9135,156.47,988.073,-0.626008,-0.458053,-1.8565,
2026_07_06_15_28_38.474,3.847,29.9,0,0.758,0,0,0,0.002, ,0,0,0,0,0, ,-38.5,157.2,985.4,-0.6,-0.5,-1.8,25,-38.8914,156.53,987.959,-0.624423,-0.460609,-1.85306,
2026_07_06_15_28_38.482,3.847,29.9,0,0.759,0,0,0,0.002, ,0,0,0,0,0, ,-39.1,156.2,988.4,-0.6,-0.5,-1.9,25,-38.8858,156.54,987.894,-0.622935,-0.46301,-1.85287,
2026_07_06_15_28_38.515,3.847,30,0,0.757,0,0,0,0.002, ,0,0,0,0,0, ,-38.5,156,988.5,-0.6,-0.4,-1.8,25,-38.8806,156.513,987.928,-0.621537,-0.462217,-1.8527,
2026_07_06_15_28_38.542,3.847,29.9,0,0.759,0,0,0,0.001, ,0,0,0,0,0, ,-39.5,156.3,988,-0.5,-0.5,-1.9,25,-38.8878,156.491,987.948,-0.617178,-0.461472,-1.85253,
2026_07_06_15_28_38.563,3.847,30,0,0.759,0,0,0,0.002, ,0,0,0,0,0, ,-38.4,157.8,988.5,-0.6,-0.4,-1.9,25,-38.8916,156.525,987.966,-0.613084,-0.460773,-1.85542,
2026_07_06_15_28_38.565,3.847,30,0,0.758,0,0,0,0.001, ,0,0,0,0,0, ,-37.9,156.6,990.9,-0.7,-0.4,-1.8,25,-38.8464,156.566,988.072,-0.615334,-0.45707,-1.85509,
2026_07_06_15_28_38.582,3.847,29.9,0,0.757,0,0,0,0.001, ,0,0,0,0,0, ,-39.4,155.7,987.9,-0.7,-0.5,-1.8,25,-38.8345,156.541,988.153,-0.620493,-0.456639,-1.85174,
2026_07_06_15_28_38.598,3.847,29.9,0,0.758,0,0,0,0.002, ,0,0,0,0,0, ,-39.1,157.1,987.7,-0.6,-0.4,-1.9,25,-38.8598,156.532,988.131,-0.622291,-0.456235,-1.85163,
2026_07_06_15_28_38.632,3.847,29.9,0,0.758,0,0,0,0.002, ,0,0,0,0,0, ,-38.5,156.3,988.4,-0.6,-0.5,-1.9,25,-38.8561,156.543,988.126,-0.620933,-0.455855,-1.85458,
2026_07_06_15_28_38.648,3.847,30,0,0.758,0,0,0,0.002, ,0,0,0,0,0, ,-39,157.2,988.2,-0.7,-0.5,-1.8,25,-38.8497,156.555,988.137,-0.622704,-0.458545,-1.8543,
2026_07_06_15_28_38.665,3.847,30,0,0.758,0,0,0,0.001, ,0,0,0,0,0, ,-39.9,156.6,987.1,-0.6,-0.5,-1.7,25,-38.8863,156.576,988.107,-0.624367,-0.461071,-1.84794,
2026_07_06_15_28_38.682,3.847,30,0,0.758,0,0,0,0.001, ,0,0,0,0,0, ,-39.4,156.8,987.6,-0.7,-0.5,-1.8,25,-38.9328,156.584,988.061,-0.625929,-0.463443,-1.84197,
2026_07_06_15_28_38.698,3.847,30,0,0.757,0,0,0,0.001, ,0,0,0,0,0, ,-38.8,155.1,987,-0.6,-0.5,-1.8,25,-38.943,156.545,988.015,-0.627396,-0.465671,-1.83942,
2026_07_06_15_28_38.715,3.847,30,0,0.757,0,0,0,0.001, ,0,0,0,0,0, ,-39.4,157.8,989,-0.6,-0.5,-1.8,25,-38.9526,156.539,988.014,-0.625727,-0.467763,-1.83701,
2026_07_06_15_28_38.748,3.847,30,0,0.758,0,0,0,0.001, ,0,0,0,0,0, ,-38.6,156.7,988.2,-0.6,-0.4,-1.8,25,-38.9554,156.583,988.05,-0.624159,-0.46668,-1.83476,
2026_07_06_15_28_38.765,3.847,30,0,0.759,0,0,0,0.001, ,0,0,0,0,0, ,-39.1,156.8,988.4,-0.7,-0.5,-1.9,25,-38.949,156.593,988.065,-0.625734,-0.465664,-1.83569,
2026_07_06_15_28_38.781,3.847,30,0,0.759,0,0,0,0.001, ,0,0,0,0,0, ,-38.9,155.7,987.6,-0.6,-0.5,-1.8,25,-38.9521,156.572,988.061,-0.627212,-0.467756,-1.83656,
2026_07_06_15_28_38.798,3.847,30,0,0.759,0,0,0,0.001, ,0,0,0,0,0, ,-38,157.1,989.2,-0.6,-0.5,-1.8,25,-38.9215,156.561,988.082,-0.625554,-0.469721,-1.83433,
2026_07_06_15_28_38.815,3.847,30,0,0.758,0,0,0,0.001, ,0,0,0,0,0, ,-38.2,157.2,987.1,-0.6,-0.5,-1.8,25,-38.8715,156.597,988.086,-0.623997,-0.471566,-1.83224,
2026_07_06_15_28_38.848,3.847,30.1,0,0.758,0,0,0,0.001, ,0,0,0,0,0, ,-38.9,157.3,986.5,-0.6,-0.5,-1.8,25,-38.8519,156.637,988.007,-0.622535,-0.473299,-1.83028,
2026_07_06_15_28_38.865,3.847,30,0,0.757,0,0,0,0, ,0,0,0,0,0, ,-38.5,155.6,988.2,-0.6,-0.5,-1.8,25,-38.8426,156.626,987.967,-0.621161,-0.474926,-1.82843,
2026_07_06_15_28_38.882,3.847,30,0,0.757,0,0,0,0.001, ,0,0,0,0,0, ,-39,155,988.1,-0.7,-0.4,-1.9,25,-38.837,156.545,987.978,-0.622919,-0.473407,-1.82974,
2026_07_06_15_28_38.898,3.847,30.1,0,0.756,0,0,0,0.001, ,0,0,0,0,0, ,-39.1,157.1,987.1,-0.6,-0.4,-1.9,25,-38.85,156.515,987.955,-0.624569,-0.468934,-1.83403,
2026_07_06_15_28_38.916,3.847,29.9,0,0.758,0,0,0,0, ,0,0,0,0,0, ,-39.1,155.8,987.9,-0.7,-0.5,-1.9,25,-38.8652,156.511,987.928,-0.626119,-0.46778,-1.83805,
2026_07_06_15_28_38.948,3.847,30,0,0.757,0,0,0,0.002, ,0,0,0,0,0, ,-39.3,156.6,987.6,-0.6,-0.5,-1.9,25,-38.8856,156.492,987.917,-0.627574,-0.469743,-1.84182,
2026_07_06_15_28_38.965,3.847,30,0,0.759,0,0,0,0.001, ,0,0,0,0,0, ,-38.9,156.9,987.5,-0.6,-0.5,-1.9,25,-38.8987,156.508,987.894,-0.625894,-0.471587,-1.84537,
2026_07_06_15_28_38.982,3.847,30,0,0.758,0,0,0,0.001, ,0,0,0,0,0, ,-38.5,156.1,986.8,-0.6,-0.4,-1.8,25,-38.8866,156.507,987.849,-0.624316,-0.470272,-1.84565,
2026_07_06_15_28_38.998,3.847,30.1,0,0.759,0,0,0,0.001, ,0,0,0,0,0, ,-38.5,155.7,987.9,-0.6,-0.4,-1.8,25,-38.863,156.47,987.819,-0.622834,-0.46599,-1.84287,
2026_07_06_15_28_39.015,3.847,30,0,0.758,0,0,0,0, ,0,0,0,0,0, ,-38,155.6,989,-0.6,-0.5,-1.9,25,-38.8256,156.42,987.857,-0.621443,-0.465015,-1.8433,
2026_07_06_15_28_39.048,3.847,30,0,0.758,0,0,0,0.001, ,0,0,0,0,0, ,-38.6,156.6,988.5,-0.6,-0.5,-1.8,25,-38.7936,156.401,987.912,-0.620136,-0.467147,-1.84371,
2026_07_06_15_28_39.066,3.847,29.9,0,0.76,0,0,0,0.001, ,0,0,0,0,0, ,-39.3,156.2,988.5,-0.6,-0.5,-1.8,25,-38.8031,156.401,987.947,-0.618909,-0.469149,-1.84105,
2026_07_06_15_28_39.082,3.847,30.1,0,0.758,0,0,0,0.002, ,0,0,0,0,0, ,-39.4,155.5,987.5,-0.6,-0.5,-1.9,25,-38.8365,156.367,987.951,-0.617757,-0.471029,-1.84159,
2026_07_06_15_28_39.099,3.847,30.1,0,0.759,0,0,0,0, ,0,0,0,0,0, ,-38.4,156.2,989.5,-0.7,-0.4,-1.9,25,-38.8403,156.336,987.984,-0.619722,-0.469748,-1.84515,
2026_07_06_15_28_39.115,3.847,30,0,0.757,0,0,0,0, ,0,0,0,0,0, ,-37.9,155.7,987.1,-0.6,-0.5,-1.9,25,-38.7983,156.312,988.003,-0.621567,-0.468544,-1.84849,
2026_07_06_15_28_39.137,3.847,29.9,0,0.757,0,0,0,0.001, ,0,0,0,0,0, ,-38.6,156.3,988.5,-0.7,-0.5,-1.9,25,-38.7649,156.293,987.991,-0.623299,-0.470461,-1.85163,
2026_07_06_15_28_39.165,3.847,30,0,0.759,0,0,0,0.002, ,0,0,0,0,0, ,-38.4,154.5,987.1,-0.6,-0.5,-1.8,25,-38.7487,156.239,987.979,-0.624926,-0.472261,-1.85153,
2026_07_06_15_28_39.182,3.847,30,0,0.759,0,0,0,0.001, ,0,0,0,0,0, ,-38.2,156,988,-0.6,-0.5,-1.9,25,-38.7214,156.178,987.953,-0.623407,-0.473951,-1.85144,
2026_07_06_15_28_39.198,3.847,30,0,0.758,0,0,0,0.001, ,0,0,0,0,0, ,-38,157.7,988.6,-0.7,-0.4,-1.8,25,-38.6835,156.219,987.974,-0.625028,-0.472492,-1.85135,
2026_07_06_15_28_39.215,3.847,29.9,0,0.758,0,0,0,0.001, ,0,0,0,0,0, ,-39.7,156.1,988,-0.7,-0.5,-1.8,25,-38.6937,156.261,987.994,-0.629596,-0.471121,-1.84822,
2026_07_06_15_28_39.237,3.847,30,0,0.757,0,0,0,0.002, ,0,0,0,0,0, ,-38.9,156.6,987.7,-0.7,-0.4,-1.8,25,-38.7306,156.266,987.985,-0.633887,-0.469834,-1.84528,
2026_07_06_15_28_39.265,3.847,29.9,0,0.758,0,0,0,0.001, ,0,0,0,0,0, ,-39.5,157.2,986.9,-0.6,-0.4,-1.9,25,-38.7592,156.305,987.944,-0.634869,-0.465579,-1.84557,
2026_07_06_15_28_39.282,3.847,30.1,0,0.757,0,0,0,0.002, ,0,0,0,0,0, ,-38.6,156,989.5,-0.6,-0.5,-1.8,25,-38.7769,156.323,987.959,-0.632744,-0.464629,-1.84584,
2026_07_06_15_28_39.298,3.847,30,0,0.759,0,0,0,0, ,0,0,0,0,0, ,-38.3,156.7,985.9,-0.6,-0.4,-1.9,25,-38.757,156.324,987.943,-0.630748,-0.463738,-1.84609,
2026_07_06_15_28_39.315,3.847,29.9,0,0.759,0,0,0,0.001, ,0,0,0,0,0, ,-39.3,157.1,988.5,-0.6,-0.5,-1.9,25,-38.7596,156.36,987.898,-0.628875,-0.462901,-1.84938,
2026_07_06_15_28_39.342,3.847,30,0,0.759,0,0,0,0.002, ,0,0,0,0,0, ,-38.9,155.2,987.1,-0.7,-0.5,-1.9,25,-38.7804,156.347,987.892,-0.630162,-0.465161,-1.85246,
2026_07_06_15_28_39.365,3.847,29.9,0,0.759,0,0,0,0.001, ,0,0,0,0,0, ,-38.3,155.5,988.5,-0.6,-0.5,-1.9,25,-38.7694,156.286,987.887,-0.631371,-0.467284,-1.85536,
2026_07_06_15_28_39.382,3.847,29.9,0,0.758,0,0,0,0.002, ,0,0,0,0,0, ,-38.9,156.2,988.4,-0.5,-0.5,-1.8,25,-38.7591,156.259,987.921,-0.626412,-0.469278,-1.85503,
2026_07_06_15_28_39.398,3.847,30.1,0,0.758,0,0,0,0.002, ,0,0,0,0,0, ,-38.5,157.4,988.2,-0.6,-0.4,-1.8,25,-38.7555,156.292,987.944,-0.621756,-0.468103,-1.85168,
2026_07_06_15_28_39.415,3.847,30,0,0.758,0,0,0,0, ,0,0,0,0,0, ,-39.1,155.3,987.6,-0.7,-0.5,-1.8,25,-38.7582,156.296,987.941,-0.623477,-0.467,-1.84853,
2026_07_06_15_28_39.438,3.847,30,0,0.76,0,0,0,0.001, ,0,0,0,0,0, ,-39.7,155.5,988.6,-0.7,-0.5,-1.8,25,-38.7973,156.241,987.951,-0.62814,-0.469011,-1.84557,
2026_07_06_15_28_39.448,3.847,30.1,0,0.759,0,0,0,0.001, ,0,0,0,0,0, ,-40.1,156.6,987.5,-0.6,-0.5,-1.9,25,-38.8645,156.23,987.957,-0.629472,-0.470899,-1.84584,
2026_07_06_15_28_39.481,3.847,29.9,0,0.757,0,0,0,0, ,0,0,0,0,0, ,-38.6,156.7,987.9,-0.6,-0.5,-1.8,25,-38.8941,156.255,987.941,-0.627676,-0.472673,-1.8461,
2026_07_06_15_28_39.500,3.847,30.1,0,0.757,0,0,0,0.002, ,0,0,0,0,0, ,-38.3,155.7,988.1,-0.6,-0.5,-1.9,25,-38.867,156.252,987.945,-0.62599,-0.474338,-1.84633,
2026_07_06_15_28_39.515,3.847,30,0,0.756,0,0,0,0, ,0,0,0,0,0, ,-38.2,154,988.2,-0.6,-0.5,-1.9,25,-38.8294,156.166,987.957,-0.624406,-0.475902,-1.8496,
2026_07_06_15_28_39.538,3.847,29.9,0,0.756,0,0,0,0.001, ,0,0,0,0,0, ,-38.9,156.8,987.6,-0.6,-0.4,-1.9,25,-38.8124,156.12,987.954,-0.622919,-0.474323,-1.85268,
2026_07_06_15_28_39.549,3.847,30.1,0,0.759,0,0,0,0.002, ,0,0,0,0,0, ,-38.2,156.9,986.6,-0.6,-0.5,-1.8,25,-38.7964,156.164,987.902,-0.621522,-0.472841,-1.85251,
2026_07_06_15_28_39.582,3.847,30.1,0,0.758,0,0,0,0, ,0,0,0,0,0, ,-38.5,157.3,987.4,-0.6,-0.4,-1.8,25,-38.7692,156.221,987.847,-0.620211,-0.471449,-1.84931,
2026_07_06_15_28_39.598,3.847,30,0,0.759,0,0,0,0, ,0,0,0,0,0, ,-38.4,155.7,988.1,-0.7,-0.5,-1.8,25,-38.7497,156.238,987.841,-0.622026,-0.470142,-1.84631,
2026_07_06_15_28_39.619,3.847,30,0,0.758,0,0,0,0.001, ,0,0,0,0,0, ,-38.4,156.4,988.7,-0.6,-0.4,-1.9,25,-38.7284,156.227,987.875,-0.623731,-0.468915,-1.84653,
2026_07_06_15_28_39.638,3.847,30,0,0.759,0,0,0,0.001, ,0,0,0,0,0, ,-37.9,155.6,988.5,-0.7,-0.4,-1.8,25,-38.6932,156.213,987.919,-0.625331,-0.464715,-1.84674,
2026_07_06_15_28_39.648,3.847,30,0,0.758,0,0,0,0.001, ,0,0,0,0,0, ,-37.9,155.8,986.4,-0.6,-0.5,-1.9,25,-38.6448,156.182,987.891,-0.626835,-0.463819,-1.84694,
2026_07_06_15_28_39.665,3.847,30,0,0.757,0,0,0,0.001, ,0,0,0,0,0, ,-38.2,156.2,987.6,-0.7,-0.5,-1.9,25,-38.6086,156.171,987.836,-0.628246,-0.466023,-1.85018,
2026_07_06_15_28_39.698,3.847,30,0,0.758,0,0,0,0.001, ,0,0,0,0,0, ,-38.8,156,988.4,-0.7,-0.5,-1.8,25,-38.602,156.166,987.846,-0.632619,-0.468094,-1.85017,
2026_07_06_15_28_39.715,3.847,30.1,0,0.758,0,0,0,0.001, ,0,0,0,0,0, ,-39.4,155.7,988.1,-0.7,-0.5,-1.8,25,-38.6323,156.147,987.871,-0.636725,-0.470038,-1.84711,
2026_07_06_15_28_39.739,3.847,30.1,0,0.759,0,0,0,0, ,0,0,0,0,0, ,-38.3,156.9,987.6,-0.6,-0.5,-1.9,25,-38.6456,156.156,987.87,-0.637534,-0.471864,-1.84728,
2026_07_06_15_28_39.748,3.847,29.9,0,0.758,0,0,0,0, ,0,0,0,0,0, ,-38.6,156.9,988.8,-0.6,-0.4,-1.8,25,-38.6337,156.202,987.89,-0.635247,-0.470532,-1.84745,
2026_07_06_15_28_39.780,3.847,30,0,0.758,0,0,0,0.002, ,0,0,0,0,0, ,-37.8,156.4,987.1,-0.6,-0.5,-1.8,25,-38.6072,156.229,987.893,-0.633099,-0.46928,-1.84456,
