UTC_Time,Vin,TC1,TC2,Rh1,Vh1,Ah1,Acp1,Dty1,Err1,Rh2,Vh2,Ah2,Acp2,Dty2,Err2,Accel_x,Accel_y,Accel_z,gyro_x,gyro_y,gyro_z,Temp_c,Accel_x_h,Accel_y_h,Accel_z_h,gyro_x_h,gyro_y_h,gyro_z_h,
2026_06_09_15_16_06.556,3.852,24.7,0,0.754,0,0,0,0.042, ,0,0,0,0,0, ,-99.9,-15.5,1007.9,0.6,-2.1,0.1,25,-3.60526,-0.559375,36.3738,0.0216532,-0.0757863,0.00360887,
2026_06_09_15_16_06.576,3.852,24.7,0,0.753,0,0,0,0.043, ,0,0,0,0,0, ,-101.5,-19.6,1005.2,-0.5,-1.8,-1.9,25,-3.50957,-0.638979,34.9463,-0.0061309,-0.0655936,-0.0455694,
2026_06_09_15_16_06.596,3.852,24.7,0,0.754,0,0,0,0.043, ,0,0,0,0,0, ,-86.7,-23.5,1003.1,0,-1.6,-2.8,25,-3.0776,-0.907704,33.299,-0.0472351,-0.0433167,-0.163224,
2026_06_09_15_16_06.615,3.852,24.7,0,0.753,0,0,0,0.044, ,0,0,0,0,0, ,-67.5,-32.1,997.6,0.7,-1.4,-2.7,25,-1.8179,-1.4653,31.3819,-0.0566648,-0.0121102,-0.293921,
2026_06_09_15_16_06.635,3.852,24.6,0,0.754,0,0,0,0.045, ,0,0,0,0,0, ,-68.2,-30.7,996.5,1.5,-0.9,-1.4,25,-0.157378,-2.16488,29.2423,-0.0285703,0.0347906,-0.38243,
2026_06_09_15_16_06.655,3.852,24.7,0,0.754,0,0,0,0.046, ,0,0,0,0,0, ,-86.6,-21.7,992,0.3,-2.3,-0.5,25,0.954121,-2.56445,26.9263,-0.0115215,0.0571504,-0.410765,
2026_06_09_15_16_06.674,3.852,24.7,0,0.756,0,0,0,0.046, ,0,0,0,0,0, ,-93.9,-16.9,1017.2,-1,-2.7,-1.1,25,1.3762,-2.5934,25.0987,-0.0565561,0.033993,-0.42833,
2026_06_09_15_16_06.697,3.852,24.7,0,0.754,0,0,0,0.046, ,0,0,0,0,0, ,-84.4,-19.7,1010.4,-0.6,-2,-2.5,25,1.82474,-2.5591,23.6883,-0.121173,0.0191602,-0.491966,
2026_06_09_15_16_06.714,3.852,24.7,0,0.754,0,0,0,0.047, ,0,0,0,0,0, ,-78.7,-23.6,998.6,-0.8,-1.7,-2.3,25,2.61503,-2.67816,21.7742,-0.177119,0.0294821,-0.579483,
2026_06_09_15_16_06.735,3.852,24.8,0,0.755,0,0,0,0.047, ,0,0,0,0,0, ,-78.1,-25.5,1000,-0.5,-1.9,-1.6,25,3.50815,-2.92041,19.5916,-0.226996,0.0416047,-0.637782,
2026_06_09_15_16_06.754,3.852,24.8,0,0.755,0,0,0,0.047, ,0,0,0,0,0, ,-80.4,-20.8,1004.7,-0.5,-2,-1.7,25,4.2985,-3.06773,17.5691,-0.265952,0.0455712,-0.675366,
2026_06_09_15_16_06.773,3.852,24.8,0,0.755,0,0,0,0.047, ,0,0,0,0,0, ,-78.8,-18.7,1005.2,-0.6,-2,-1.8,25,5.01173,-3.02596,15.6867,-0.304139,0.0466664,-0.712682,
2026_06_09_15_16_06.793,3.852,24.8,0,0.754,0,0,0,0.048, ,0,0,0,0,0, ,-79.3,-19.2,1006.1,-1.5,-2.3,-1.9,25,5.69226,-2.93209,13.8537,-0.363476,0.0401214,-0.74956,
2026_06_09_15_16_06.813,3.852,24.7,0,0.752,0,0,0,0.048, ,0,0,0,0,0, ,-76,-20.8,1010.8,-1.3,-1.4,-2,25,6.38002,-2.87986,12.1796,-0.435277,0.0484127,-0.78584,
2026_06_09_15_16_06.833,3.762,24.8,0,0.754,3.817,5.062,0.96,0.05, ,0,0,0,0,0, ,-70.9,-24,1002.4,0.4,1.4,-2.7,25,7.20859,-2.93371,10.4369,-0.45482,0.146789,-0.836085,
2026_06_09_15_16_06.853,3.763,24.9,0,0.753,3.809,5.058,0.96,0.05, ,0,0,0,0,0, ,-74.5,-22.5,999.3,-0.6,0.8,-1.7,25,7.99778,-3.01215,8.44615,-0.453998,0.293564,-0.872389,
2026_06_09_15_16_06.873,3.763,24.9,0,0.754,0,0,0,0.049, ,0,0,0,0,0, ,-82.3,-19.4,1007.2,-1.4,-0.9,-1.3,25,8.42931,-2.9591,6.62914,-0.495117,0.375295,-0.868283,
2026_06_09_15_16_06.893,3.764,25,0,0.754,3.81,5.053,0.96,0.05, ,0,0,0,0,0, ,-81.5,-22.5,1004.7,-0.6,0,-2,25,8.62648,-2.89406,5.001,-0.53178,0.43155,-0.867456,
2026_06_09_15_16_06.912,3.764,24.9,0,0.754,0,0,0,0.049, ,0,0,0,0,0, ,-81.6,-22.7,999.2,-0.5,0.1,-2.1,25,8.78863,-2.89888,3.23188,-0.541955,0.507442,-0.882011,
2026_06_09_15_16_06.932,3.761,25,0,0.754,3.81,5.053,0.98,0.051, ,0,0,0,0,0, ,-82.7,-21.3,1001.5,-1.2,-1.8,-2.1,25,8.87009,-2.85974,1.45513,-0.563673,0.532971,-0.893958,
2026_06_09_15_16_06.961,3.763,25.1,0,0.754,3.81,5.053,0.96,0.05, ,0,0,0,0,0, ,-72.1,-21.3,1009.3,-0.5,-1.6,-1.7,25,9.13679,-2.7741,0.00602003,-0.581548,0.512935,-0.891105,
2026_06_09_15_16_06.972,3.761,25.1,0,0.755,3.814,5.051,0.96,0.05, ,0,0,0,0,0, ,-70,-22.9,996,-0.5,-1.3,-1,25,9.65681,-2.71822,-1.50692,-0.578515,0.503615,-0.857026,
2026_06_09_15_16_06.992,3.761,25.1,0,0.755,3.809,5.045,0.98,0.051, ,0,0,0,0,0, ,-79.3,-21.9,1004.8,-0.3,-0.8,-0.5,25,9.92718,-2.6664,-3.04859,-0.567875,0.511887,-0.790969,
2026_06_09_15_16_07.012,3.764,25.1,0,0.754,3.807,5.049,0.98,0.051, ,0,0,0,0,0, ,-83.8,-21.3,1003.7,-0.8,-0.9,-1.3,25,9.79697,-2.56475,-4.3108,-0.562315,0.52704,-0.73161,
2026_06_09_15_16_07.032,3.762,25.1,0,0.754,3.811,5.054,1,0.052, ,0,0,0,0,0, ,-75.5,-22.7,998.5,-0.3,-1.4,-1.6,25,9.71805,-2.47506,-5.64436,-0.554256,0.524139,-0.69853,
2026_06_09_15_16_07.052,3.761,25.1,0,0.754,3.809,5.051,1,0.052, ,0,0,0,0,0, ,-71.4,-23,1004.6,-0.2,-2,-1.2,25,9.89916,-2.41926,-6.86262,-0.529148,0.491823,-0.661178,
2026_06_09_15_16_07.071,3.764,25.1,0,0.755,3.81,5.046,1.01,0.053, ,0,0,0,0,0, ,-73.2,-22.3,1005.4,-0.1,-0.6,-0.9,25,10.079,-2.34446,-7.81812,-0.49776,0.478285,-0.605234,
2026_06_09_15_16_07.096,3.762,25.1,0,0.755,3.81,5.046,1.01,0.053, ,0,0,0,0,0, ,-80.9,-20.7,1002.6,0.5,0.3,-1.3,25,9.96742,-2.20538,-8.73727,-0.448292,0.519455,-0.551503,
2026_06_09_15_16_07.111,3.762,25.1,0,0.754,3.805,5.046,1.03,0.054, ,0,0,0,0,0, ,-79.1,-21.2,1008.7,-0.4,-1.5,-1.4,25,9.66749,-2.03527,-9.48737,-0.406398,0.533975,-0.509951,
2026_06_09_15_16_07.131,3.761,25.2,0,0.757,3.815,5.039,1.03,0.054, ,0,0,0,0,0, ,-80.4,-21.8,1002.4,-0.5,-2.1,-1.7,25,9.3469,-1.89045,-10.1588,-0.389077,0.4863,-0.477731,
2026_06_09_15_16_07.150,3.764,25.3,0,0.755,3.802,5.035,1.03,0.054, ,0,0,0,0,0, ,-77.1,-19,1004.8,-0.3,-2.8,-2,25,9.045,-1.68947,-10.8429,-0.368236,0.406689,-0.45945,
2026_06_09_15_16_07.170,3.761,25.2,0,0.753,3.805,5.053,1.01,0.053, ,0,0,0,0,0, ,-74.3,-20.3,1000.4,-0.3,-2.2,-1.7,25,8.86291,-1.45324,-11.4891,-0.341698,0.326525,-0.439802,
2026_06_09_15_16_07.190,3.763,25.2,0,0.754,3.808,5.05,1.05,0.055, ,0,0,0,0,0, ,-76.9,-21.3,1005.3,0.1,-0.8,-2.1,25,8.65098,-1.27783,-12.0346,-0.304969,0.297727,-0.421402,
2026_06_09_15_16_07.210,3.762,25.2,0,0.754,3.807,5.049,1.05,0.055, ,0,0,0,0,0, ,-76.9,-19.5,1005.4,-0.6,-2,-2.6,25,8.34306,-1.08511,-12.3715,-0.275894,0.273778,-0.423897,
2026_06_09_15_16_07.229,3.761,25.3,0,0.755,3.808,5.043,1.07,0.056, ,0,0,0,0,0, ,-73.4,-20.7,1000.6,-0.4,-2.4,-2.3,25,8.09494,-0.881778,-12.7462,-0.259147,0.21042,-0.429084,
2026_06_09_15_16_07.249,3.761,25.4,0,0.757,3.811,5.034,1.05,0.055, ,0,0,0,0,0, ,-71.5,-18.6,1008.4,-0.2,-1.9,-2.3,25,7.95152,-0.662004,-12.9661,-0.232135,0.151584,-0.424547,
2026_06_09_15_16_07.269,3.764,25.5,0,0.755,3.801,5.034,1.05,0.055, ,0,0,0,0,0, ,-69.4,-21.6,1002.8,-0.3,-1.4,-2.3,25,7.87403,-0.471816,-13.0574,-0.202852,0.119409,-0.418139,
2026_06_09_15_16_07.289,3.762,25.5,0,0.754,3.806,5.047,1.05,0.055, ,0,0,0,0,0, ,-69.2,-20.6,1003.7,-0.7,-1.6,-2.2,25,7.81793,-0.337673,-13.1951,-0.186266,0.0955793,-0.407533,
2026_06_09_15_16_07.308,3.761,25.4,0,0.755,3.809,5.045,1.05,0.055, ,0,0,0,0,0, ,-69.9,-19.5,1007.8,-0.6,-1.4,-1.8,25,7.71379,-0.15695,-13.1384,-0.176932,0.0724473,-0.383178,
2026_06_09_15_16_07.329,3.764,25.4,0,0.758,3.812,5.029,1.07,0.056, ,0,0,0,0,0, ,-71.7,-23.1,999.1,-0.6,-1.6,-2.2,25,7.51544,-0.0456201,-13.1325,-0.164732,0.0500928,-0.358129,
2026_06_09_15_16_07.348,3.761,25.5,0,0.755,3.8,5.033,1.09,0.057, ,0,0,0,0,0, ,-67.6,-21.6,1000.6,-1.3,-2.6,-1.6,25,7.34618,0.00897914,-13.2388,-0.169483,-0.000838152,-0.327639,
2026_06_09_15_16_07.368,3.763,25.5,0,0.755,3.805,5.039,1.07,0.056, ,0,0,0,0,0, ,-62.5,-20.9,1010.3,-0.3,-0.6,-1.7,25,7.37462,0.114804,-12.9999,-0.165809,-0.0247456,-0.284768,
2026_06_09_15_16_07.387,3.76,25.5,0,0.755,3.806,5.041,1.09,0.057, ,0,0,0,0,0, ,-64,-21.1,1004,0,0.3,-1.3,25,7.4536,0.227134,-12.6254,-0.129621,0.0237541,-0.235241,
2026_06_09_15_16_07.407,3.762,25.6,0,0.753,3.798,5.043,1.09,0.057, ,0,0,0,0,0, ,-72.6,-21.1,1001.5,-0.9,0,-1.1,25,7.2443,0.327931,-12.4227,-0.109281,0.0844711,-0.17227,
2026_06_09_15_16_07.427,3.76,25.5,0,0.755,3.81,5.046,1.09,0.057, ,0,0,0,0,0, ,-78.7,-21.2,1005.7,-1.2,-1.2,-1.6,25,6.64909,0.419716,-12.1271,-0.118826,0.105012,-0.118895,
2026_06_09_15_16_07.447,3.763,25.6,0,0.754,3.8,5.039,1.11,0.058, ,0,0,0,0,0, ,-68.2,-22.7,1002.6,-1.2,-0.4,-2,25,6.1582,0.465697,-11.7593,-0.134674,0.114219,-0.089621,
2026_06_09_15_16_07.467,3.762,25.7,0,0.754,3.805,5.046,1.11,0.058, ,0,0,0,0,0, ,-63.4,-22.8,1000.8,0,0.4,-1.6,25,6.03622,0.467893,-11.4717,-0.119656,0.161646,-0.0613411,
2026_06_09_15_16_07.487,3.761,25.7,0,0.755,3.807,5.042,1.11,0.058, ,0,0,0,0,0, ,-71.8,-20.9,1009,-0.4,-0.7,-1.5,25,5.8022,0.511815,-10.9847,-0.0851662,0.198594,-0.021885,
2026_06_09_15_16_07.506,3.761,25.7,0,0.757,3.808,5.03,1.11,0.058, ,0,0,0,0,0, ,-78.6,-20.3,1002.1,-0.9,-1.5,-1.8,25,5.17833,0.612364,-10.4356,-0.0740181,0.18616,0.0108395,
2026_06_09_15_16_07.526,3.763,25.9,0,0.754,3.796,5.034,1.1,0.058, ,0,0,0,0,0, ,-77.2,-19.5,1006.3,-0.6,-1.6,-2.4,25,4.42712,0.739294,-9.92822,-0.0679563,0.151349,0.0198363,
2026_06_09_15_16_07.546,3.762,25.9,0,0.756,3.811,5.041,1.09,0.057, ,0,0,0,0,0, ,-67.5,-20.7,1009.6,-0.3,-0.9,-2.7,25,3.96312,0.846547,-9.21287,-0.0471438,0.132213,0.0062246,
2026_06_09_15_16_07.566,3.761,26,0,0.757,3.807,5.029,1.11,0.058, ,0,0,0,0,0, ,-55.7,-22.9,995.1,-0.5,1,-2.5,25,4.02956,0.860994,-8.76185,-0.0246676,0.177119,-0.00920236,
2026_06_09_15_16_07.586,3.762,26,0,0.754,3.797,5.035,1.08,0.057, ,0,0,0,0,0, ,-61.7,-21.9,1004.3,0.2,1.4,-1.2,25,4.21511,0.841064,-8.41972,0.00908866,0.27535,0.012955,
2026_06_09_15_16_07.606,3.761,26,0,0.756,3.809,5.038,1.11,0.058, ,0,0,0,0,0, ,-78,-19.7,1006.9,-0.3,-0.2,-1.4,25,3.82395,0.896436,-7.76353,0.046049,0.337981,0.0609357,
2026_06_09_15_16_07.625,3.761,26,0,0.754,3.798,5.037,1.1,0.058, ,0,0,0,0,0, ,-83.6,-19.7,1001.8,-0.6,-1.5,-2,25,2.89611,0.998621,-7.16256,0.0613524,0.324761,0.0866456,
2026_06_09_15_16_07.646,3.76,26,0,0.757,3.811,5.034,1.11,0.058, ,0,0,0,0,0, ,-73.2,-18.1,1008,-1.1,-2.5,-2.6,25,2.11721,1.13011,-6.52879,0.0559856,0.25419,0.0812417,
2026_06_09_15_16_07.665,3.763,26.1,0,0.756,3.799,5.025,1.12,0.059, ,0,0,0,0,0, ,-52.7,-21.7,1003.2,-0.6,-1.4,-2.6,25,2.12378,1.20053,-5.85959,0.0506061,0.188279,0.0609895,
2026_06_09_15_16_07.685,3.761,26.1,0,0.755,3.803,5.037,1.11,0.058, ,0,0,0,0,0, ,-57.9,-23.3,1000.1,-0.4,-1,-0.7,25,2.49475,1.13408,-5.38806,0.0624062,0.161455,0.088021,
2026_06_09_15_16_07.704,3.76,26.1,0,0.758,3.81,5.026,1.12,0.059, ,0,0,0,0,0, ,-71.6,-20.1,1007.4,0.3,0.4,-1.2,25,2.37178,1.10452,-4.81011,0.0953895,0.17929,0.147623,
2026_06_09_15_16_07.724,3.761,26.2,0,0.756,3.797,5.022,1.12,0.059, ,0,0,0,0,0, ,-77.5,-19.2,1004,-0.7,-0.8,-1.6,25,1.76252,1.17152,-4.14117,0.118929,0.200271,0.181505,
2026_06_09_15_16_07.744,3.76,26.2,0,0.756,3.802,5.029,1.12,0.059, ,0,0,0,0,0, ,-69.9,-19.2,1007.3,-0.8,-1,-2.1,25,1.21614,1.25152,-3.48707,0.113753,0.184906,0.190762,
2026_06_09_15_16_07.764,3.763,26.3,0,0.757,3.804,5.025,1.12,0.059, ,0,0,0,0,0, ,-63.1,-19.7,1003.4,-0.7,0.1,-2,25,1.04367,1.30917,-2.86258,0.108271,0.191452,0.188816,
2026_06_09_15_16_07.784,3.76,26.3,0,0.757,3.804,5.025,1.12,0.059, ,0,0,0,0,0, ,-60.3,-22,1000.6,-0.1,1.4,-1.9,25,1.10993,1.28888,-2.41891,0.11969,0.255586,0.190939,
2026_06_09_15_16_07.804,3.763,26.3,0,0.756,3.799,5.025,1.12,0.059, ,0,0,0,0,0, ,-65.3,-20.7,1006.7,0,1.1,-1,25,1.11352,1.23871,-1.90415,0.147123,0.339836,0.216538,
2026_06_09_15_16_07.823,3.761,26.4,0,0.756,3.805,5.033,1.12,0.059, ,0,0,0,0,0, ,-76.9,-17.9,1002,-0.1,0.1,-1.2,25,0.704391,1.28544,-1.37092,0.172486,0.386402,0.25698,
2026_06_09_15_16_07.843,3.76,26.4,0,0.756,3.802,5.029,1.12,0.059, ,0,0,0,0,0, ,-80.6,-18.7,1004.7,-0.4,-1.9,-1.3,25,-0.0633283,1.37258,-0.906134,0.185947,0.355214,0.286816,
2026_06_09_15_16_07.863,3.763,26.4,0,0.757,3.804,5.025,1.12,0.059, ,0,0,0,0,0, ,-78.4,-19.1,1006.8,-0.8,-3,-1.8,25,-0.829866,1.41926,-0.34197,0.180666,0.247789,0.299062,
2026_06_09_15_16_07.887,3.76,26.5,0,0.757,3.804,5.025,1.14,0.06, ,0,0,0,0,0, ,-62.1,-20.7,1002.5,-0.7,-0.6,-2.5,25,-1.10107,1.40761,0.142262,0.167397,0.176289,0.279807,
2026_06_09_15_16_07.903,3.761,26.4,0,0.755,3.796,5.027,1.12,0.059, ,0,0,0,0,0, ,-55.1,-22.8,1004.6,-0.5,0.1,-2,25,-0.782195,1.29887,0.548097,0.16131,0.183444,0.255214,
2026_06_09_15_16_07.923,3.76,26.6,0,0.757,3.807,5.029,1.14,0.06, ,0,0,0,0,0, ,-63.3,-19.2,1007.9,-0.3,0,-1.2,25,-0.504528,1.22584,1.06375,0.164535,0.204057,0.262447,
2026_06_09_15_16_07.942,3.761,26.6,0,0.756,3.799,5.025,1.12,0.059, ,0,0,0,0,0, ,-68.8,-17.9,1002.1,0,0.3,-1.5,25,-0.573939,1.2705,1.48756,0.179053,0.227558,0.280293,
2026_06_09_15_16_07.962,3.76,26.7,0,0.757,3.804,5.025,1.14,0.06, ,0,0,0,0,0, ,-71.8,-21.7,995.9,-0.1,-0.4,-0.8,25,-0.845551,1.24541,1.58899,0.19688,0.238975,0.30569,
2026_06_09_15_16_07.982,3.763,26.6,0,0.756,3.799,5.025,1.12,0.059, ,0,0,0,0,0, ,-81,-18,1006.7,0,-1.1,-1.2,25,-1.39884,1.21297,1.79043,0.212862,0.214325,0.335692,
2026_06_09_15_16_08.002,3.761,26.7,0,0.757,3.806,5.027,1.14,0.06, ,0,0,0,0,0, ,-68.9,-19.5,1005.4,-0.2,-0.6,-2.3,25,-1.84699,1.23008,2.20611,0.22456,0.184924,0.325786,
2026_06_09_15_16_08.022,3.76,26.7,0,0.757,3.802,5.022,1.14,0.06, ,0,0,0,0,0, ,-68.8,-16.7,989.7,0.7,-0.1,-2.5,25,-1.96489,1.27217,2.17367,0.251742,0.180574,0.282882,
2026_06_09_15_16_08.042,3.76,26.7,0,0.758,3.803,5.017,1.14,0.06, ,0,0,0,0,0, ,-65.6,-24.5,1022.2,-0.3,-0.8,-2,25,-1.9864,1.18331,2.54407,0.273898,0.170644,0.248045,
2026_06_09_15_16_08.061,3.763,26.8,0,0.757,3.798,5.017,1.14,0.06, ,0,0,0,0,0, ,-67.8,-19.1,1001.7,-0.4,-0.2,-2.1,25,-1.97255,1.03413,3.17802,0.266644,0.157907,0.223502,
2026_06_09_15_16_08.081,3.761,26.8,0,0.757,3.804,5.025,1.14,0.06, ,0,0,0,0,0, ,-66.8,-20.1,999.6,0.1,0.6,-1.7,25,-1.97908,0.99507,3.21103,0.268241,0.179347,0.206418,
2026_06_09_15_16_08.100,3.761,26.8,0,0.757,3.802,5.022,1.14,0.06, ,0,0,0,0,0, ,-71.5,-18.1,1006.7,-0.3,-0.5,-1.7,25,-2.06627,0.97754,3.34921,0.270889,0.191496,0.198963,
2026_06_09_15_16_08.120,3.762,26.9,0,0.758,3.804,5.018,1.16,0.061, ,0,0,0,0,0, ,-73.9,-17.7,1005.6,-1.2,-1,-2,25,-2.3131,1.0149,3.61123,0.240194,0.16287,0.183537,
2026_06_09_15_16_08.148,3.761,27,0,0.756,3.798,5.023,1.14,0.06, ,0,0,0,0,0, ,-64.2,-19.1,1004.2,-0.5,-0.3,-2.3,25,-2.35742,1.02091,3.78131,0.204917,0.13975,0.15325,
2026_06_09_15_16_08.164,3.763,27,0,0.758,3.807,5.022,1.14,0.06, ,0,0,0,0,0, ,-64.2,-20.5,1004.2,-0.6,-0.6,-1.7,25,-2.15009,0.952932,3.89007,0.185073,0.126883,0.13105,
2026_06_09_15_16_08.180,3.76,27,0,0.758,3.804,5.018,1.14,0.06, ,0,0,0,0,0, ,-70.6,-17,1002.1,-0.6,-0.5,-1.8,25,-2.09927,0.935086,3.92284,0.162837,0.109118,0.121553,
2026_06_09_15_16_08.200,3.762,27.1,0,0.757,3.798,5.017,1.14,0.06, ,0,0,0,0,0, ,-69.9,-17.9,1005.3,-0.5,-0.1,-2.1,25,-2.18037,0.977263,3.96163,0.143342,0.103947,0.102114,
2026_06_09_15_16_08.220,3.76,27.1,0,0.757,3.803,5.023,1.14,0.06, ,0,0,0,0,0, ,-70.3,-17,1006.7,-0.8,-0.3,-2,25,-2.23939,1.01256,4.09181,0.119192,0.103422,0.0782209,
2026_06_09_15_16_08.240,3.763,27.1,0,0.757,3.801,5.021,1.14,0.06, ,0,0,0,0,0, ,-62.5,-19,1005.9,-0.5,0.3,-1.9,25,-2.10302,1.01415,4.21014,0.0956397,0.112222,0.0600186,
2026_06_09_15_16_08.259,3.761,27.2,0,0.757,3.804,5.025,1.14,0.06, ,0,0,0,0,0, ,-64.9,-18.7,1005.6,-0.3,0.6,-1.3,25,-1.83055,0.968987,4.27495,0.0850315,0.142106,0.0595782,
2026_06_09_15_16_08.280,3.76,27.2,0,0.758,3.804,5.018,1.14,0.06, ,0,0,0,0,0, ,-75.6,-16.8,1007.5,-0.6,0,-1.5,25,-1.88366,0.975209,4.35475,0.0720723,0.162468,0.0686745,
2026_06_09_15_16_08.298,3.761,27.2,0,0.757,3.798,5.017,1.14,0.06, ,0,0,0,0,0, ,-69.8,-19.5,1001.3,-0.5,-0.1,-2.1,25,-2.04504,0.956702,4.30372,0.0544892,0.163866,0.057369,
2026_06_09_15_16_08.318,3.763,27.2,0,0.757,3.802,5.022,1.14,0.06, ,0,0,0,0,0, ,-68.9,-20.9,1000.2,-0.4,-0.6,-1.9,25,-2.02413,0.833849,4.05499,0.0424042,0.149674,0.0365265,
2026_06_09_15_16_08.338,3.761,27.3,0,0.756,3.801,5.027,1.16,0.061, ,0,0,0,0,0, ,-67.9,-19.2,1004.8,-0.3,0,-1.6,25,-1.94768,0.720269,3.88429,0.0356072,0.137893,0.028787,
2026_06_09_15_16_08.358,3.763,27.3,0,0.756,3.802,5.029,1.14,0.06, ,0,0,0,0,0, ,-68.4,-17.9,1001.7,-0.4,0,-1.5,25,-1.85312,0.682274,3.73961,0.0289681,0.140723,0.0310938,
2026_06_09_15_16_08.379,3.761,27.5,0,0.757,3.806,5.027,1.14,0.06, ,0,0,0,0,0, ,-67.6,-18.1,1010.3,-0.1,0.4,-1.3,25,-1.7467,0.669753,3.71846,0.0274161,0.15253,0.0404908,
2026_06_09_15_16_08.398,3.76,27.5,0,0.759,3.808,5.017,1.12,0.059, ,0,0,0,0,0, ,-73.2,-16.6,1005.6,0,1,-1.8,25,-1.75461,0.686424,3.77565,0.0356138,0.187527,0.0418709,
2026_06_09_15_16_08.418,3.763,27.6,0,0.756,3.794,5.018,1.12,0.059, ,0,0,0,0,0, ,-73.9,-17.8,1001,-0.6,-0.1,-2.1,25,-1.90796,0.706251,3.58338,0.0309731,0.207623,0.0233596,
2026_06_09_15_16_08.438,3.763,27.6,0,0.758,3.81,5.026,1.12,0.059, ,0,0,0,0,0, ,-69.2,-16.8,1005,-0.8,-0.6,-2,25,-1.9463,0.716721,3.36817,0.00679009,0.186475,0.000736757,
2026_06_09_15_16_08.457,3.761,27.8,0,0.757,3.802,5.022,1.12,0.059, ,0,0,0,0,0, ,-64.4,-17.7,1008.9,-0.4,0.6,-2,25,-1.74022,0.725597,3.34064,-0.0113361,0.182611,-0.0183281,
2026_06_09_15_16_08.477,3.76,27.7,0,0.758,3.807,5.022,1.08,0.057, ,0,0,0,0,0, ,-66.2,-18.9,1002.1,-0.1,1.9,-1.6,25,-1.4621,0.678966,3.22687,-0.0113522,0.239341,-0.0265589,
2026_06_09_15_16_08.497,3.762,27.6,0,0.758,3.802,5.015,1.1,0.058, ,0,0,0,0,0, ,-75.3,-16.4,998.5,-0.7,1.3,-1.5,25,-1.4577,0.663155,2.84776,-0.0186682,0.309273,-0.0219944,
2026_06_09_15_16_08.516,3.761,27.8,0,0.757,3.801,5.021,1.14,0.06, ,0,0,0,0,0, ,-77.8,-17,1001.8,-0.4,0.2,-1.7,25,-1.73078,0.691442,2.46586,-0.0328898,0.332566,-0.0199975,
2026_06_09_15_16_08.542,3.763,27.8,0,0.758,3.806,5.021,1.1,0.058, ,0,0,0,0,0, ,-72.5,-19.4,1008.1,-0.7,-0.5,-1.6,25,-1.91328,0.641369,2.32593,-0.0462518,0.308938,-0.0204522,
2026_06_09_15_16_08.556,3.76,27.8,0,0.754,3.795,5.033,1.1,0.058, ,0,0,0,0,0, ,-74,-18,1002,-0.8,-0.7,-1.5,25,-1.98422,0.566069,2.18631,-0.0685392,0.262876,-0.0158794,
2026_06_09_15_16_08.576,3.762,27.9,0,0.756,3.806,5.034,1.13,0.059, ,0,0,0,0,0, ,-72.6,-17.8,1005.6,-0.5,-0.5,-1.9,25,-2.04435,0.530907,1.98146,-0.0844915,0.217779,-0.0188092,
2026_06_09_15_16_08.596,3.76,27.9,0,0.758,3.809,5.025,1.11,0.058, ,0,0,0,0,0, ,-72.7,-17.7,1003.1,-0.5,-0.8,-2,25,-2.05958,0.502209,1.80386,-0.0918886,0.171367,-0.0337633,
2026_06_09_15_16_08.616,3.763,27.9,0,0.758,3.802,5.015,1.1,0.058, ,0,0,0,0,0, ,-72.5,-16.1,1004.2,-0.2,-0.5,-1.9,25,-2.06146,0.514131,1.59176,-0.0911135,0.126387,-0.0478177,
2026_06_09_15_16_08.635,3.761,28,0,0.758,3.805,5.019,1.1,0.058, ,0,0,0,0,0, ,-70,-20.2,1005.2,-0.6,0,-2.1,25,-1.98688,0.46163,1.43371,-0.0923796,0.102608,-0.0633993,
2026_06_09_15_16_08.655,3.763,28,0,0.758,3.803,5.017,1.1,0.058, ,0,0,0,0,0, ,-71.1,-19.7,1005.3,-0.5,-0.1,-1.7,25,-1.87184,0.321151,1.30331,-0.100485,0.0892974,-0.0729999,
2026_06_09_15_16_08.675,3.762,27.9,0,0.756,3.8,5.026,1.1,0.058, ,0,0,0,0,0, ,-72.8,-17.4,1006.2,-0.5,0,-1.8,25,-1.82187,0.254639,1.19741,-0.105245,0.0761998,-0.0744135,
2026_06_09_15_16_08.694,3.763,28,0,0.757,3.806,5.027,1.12,0.059, ,0,0,0,0,0, ,-73.8,-18.3,1004.1,-0.3,-0.2,-2,25,-1.83159,0.224465,1.06138,-0.104349,0.0609169,-0.0827474,
2026_06_09_15_16_08.714,3.762,28.1,0,0.757,3.805,5.026,1.1,0.058, ,0,0,0,0,0, ,-69.2,-18.4,1000.7,-0.5,0.8,-2,25,-1.74352,0.170143,0.791917,-0.102982,0.0657006,-0.0951692,
2026_06_09_15_16_08.734,3.761,28.2,0,0.758,3.807,5.022,1.1,0.058, ,0,0,0,0,0, ,-70.4,-18.4,1001.3,-0.4,1.2,-1.6,25,-1.56781,0.115194,0.463108,-0.103628,0.104256,-0.0967041,
2026_06_09_15_16_08.754,3.763,28.2,0,0.758,3.804,5.018,1.08,0.057, ,0,0,0,0,0, ,-72.5,-17.8,1004.7,-0.7,0.7,-1.6,25,-1.47391,0.0770854,0.246228,-0.108635,0.137955,-0.0878785,
2026_06_09_15_16_08.774,3.761,28.2,0,0.758,3.806,5.021,1.08,0.057, ,0,0,0,0,0, ,-76.2,-17.4,1004,-1.1,-0.4,-1.6,25,-1.51957,0.0649874,0.104981,-0.130026,0.130086,-0.0790527,
2026_06_09_15_16_08.799,3.763,28.3,0,0.757,3.801,5.021,1.1,0.058, ,0,0,0,0,0, ,-75.4,-18.6,1005.9,-0.6,-0.1,-1.6,25,-1.62662,0.0335451,-0.000431024,-0.147275,0.102345,-0.0702701,
2026_06_09_15_16_08.813,3.76,28.3,0,0.758,3.808,5.023,1.09,0.057, ,0,0,0,0,0, ,-74,-16.9,1004.3,0,0.6,-1.6,25,-1.66646,0.0157404,-0.0933147,-0.135979,0.099982,-0.0615719,
2026_06_09_15_16_08.833,3.763,28.3,0,0.758,3.803,5.017,1.08,0.057, ,0,0,0,0,0, ,-71.7,-17.8,1004.3,-0.2,1,-1.7,25,-1.6054,0.0183485,-0.220419,-0.114758,0.124216,-0.055449,
2026_06_09_15_16_08.853,3.761,28.4,0,0.759,3.809,5.018,1.08,0.057, ,0,0,0,0,0, ,-76.5,-17,998.5,-0.2,0.8,-1.7,25,-1.60072,0.0182862,-0.482428,-0.0989165,0.151553,-0.0518053,
2026_06_09_15_16_08.873,3.763,28.4,0,0.758,3.802,5.015,1.08,0.057, ,0,0,0,0,0, ,-79.5,-16.4,1002.5,-0.3,0.2,-2.1,25,-1.77966,0.0524671,-0.773348,-0.0858166,0.157185,-0.0578936,
2026_06_09_15_16_08.892,3.762,28.3,0,0.758,3.806,5.021,1.08,0.057, ,0,0,0,0,0, ,-79.4,-18,1003.1,-0.6,-0.5,-2.4,25,-2.01216,0.0601914,-0.933391,-0.0827448,0.129889,-0.0805632,
2026_06_09_15_16_08.912,3.761,28.5,0,0.759,3.807,5.015,1.1,0.058, ,0,0,0,0,0, ,-77.8,-16.4,1006.9,-0.9,-0.6,-2.4,25,-2.18165,0.0672403,-0.973089,-0.0941289,0.0836737,-0.10908,
2026_06_09_15_16_08.932,3.763,28.5,0,0.758,3.803,5.017,1.06,0.056, ,0,0,0,0,0, ,-70.8,-16.7,1004.6,-1,-0.4,-2.4,25,-2.1212,0.10549,-0.969262,-0.114299,0.0417648,-0.135661,
2026_06_09_15_16_08.952,3.763,28.6,0,0.758,3.807,5.022,1.07,0.056, ,0,0,0,0,0, ,-70,-18.4,1007.2,-0.6,0.3,-1.9,25,-1.86199,0.092301,-0.953489,-0.125561,0.0237748,-0.148009,
2026_06_09_15_16_08.972,3.761,28.5,0,0.758,3.807,5.022,1.07,0.056, ,0,0,0,0,0, ,-75,-17.2,1004.6,-0.5,0,-1.5,25,-1.7093,0.067043,-0.933791,-0.12339,0.0163587,-0.136953,
2026_06_09_15_16_08.992,3.763,28.6,0,0.757,3.802,5.022,1.08,0.057, ,0,0,0,0,0, ,-80.5,-16.2,1005.7,-0.5,-0.4,-1.5,25,-1.81316,0.0966408,-0.94724,-0.118266,-0.00793956,-0.115955,
2026_06_09_15_16_09.012,3.762,28.6,0,0.757,3.807,5.029,1.07,0.056, ,0,0,0,0,0, ,-75.8,-19.2,1000.9,-0.4,-0.1,-1.6,25,-1.9226,0.0752676,-1.04609,-0.110358,-0.0334591,-0.097868,
2026_06_09_15_16_09.032,3.761,28.6,0,0.759,3.811,5.021,1.07,0.056, ,0,0,0,0,0, ,-74,-19.2,1004.1,-0.1,0,-1.6,25,-1.85781,-0.0189931,-1.17417,-0.0924856,-0.0477536,-0.0826377,
2026_06_09_15_16_09.051,3.76,28.6,0,0.758,3.803,5.017,1.06,0.056, ,0,0,0,0,0, ,-75.8,-16.9,1006.8,-0.5,-0.6,-1.7,25,-1.78704,-0.0521377,-1.14551,-0.0774858,-0.0733725,-0.0701991,
2026_06_09_15_16_09.071,3.761,28.7,0,0.757,3.801,5.021,1.08,0.057, ,0,0,0,0,0, ,-77,-18.7,998.7,-0.1,-0.1,-1.7,25,-1.78451,-0.0711391,-1.24502,-0.0628399,-0.0998256,-0.0604768,
2026_06_09_15_16_09.090,3.763,28.7,0,0.757,3.805,5.026,1.07,0.056, ,0,0,0,0,0, ,-80.8,-15.8,1008.1,-0.4,-0.7,-1.7,25,-1.8959,-0.0618841,-1.30164,-0.0461503,-0.126941,-0.0509333,
2026_06_09_15_16_09.110,3.761,28.8,0,0.756,3.804,5.031,1.07,0.056, ,0,0,0,0,0, ,-79.7,-16.8,1001.9,-0.5,-0.8,-2.4,25,-2.0587,-0.00618704,-1.2706,-0.0398605,-0.169267,-0.0587719,
2026_06_09_15_16_09.130,3.76,28.9,0,0.758,3.811,5.027,1.05,0.055, ,0,0,0,0,0, ,-67.2,-17.4,1004,-0.1,0,-2,25,-1.86988,0.00757443,-1.33535,-0.0263262,-0.191517,-0.0732929,
2026_06_09_15_16_09.150,3.761,28.8,0,0.758,3.805,5.019,1.05,0.055, ,0,0,0,0,0, ,-68.7,-16.6,1004.5,-0.1,-0.1,-1.2,25,-1.41136,0.025528,-1.3266,-0.0035173,-0.194568,-0.0573147,
2026_06_09_15_16_09.170,3.76,28.8,0,0.758,3.805,5.019,1.06,0.056, ,0,0,0,0,0, ,-80.5,-15.5,1003.6,-0.3,-0.2,-1.2,25,-1.29452,0.0890662,-1.32154,0.013286,-0.201414,-0.0222203,
2026_06_09_15_16_09.190,3.762,28.9,0,0.758,3.804,5.018,1.06,0.056, ,0,0,0,0,0, ,-83.6,-15.8,1005.8,-0.4,-0.2,-1.8,25,-1.54239,0.168667,-1.27834,0.0218432,-0.209384,-0.00345049,
2026_06_09_15_16_09.209,3.763,29.2,0,0.758,3.807,5.022,1.05,0.055, ,0,0,0,0,0, ,-75.1,-16.6,999.6,-0.1,0,-2.3,25,-1.63809,0.216558,-1.32905,0.0347775,-0.211026,-0.012558,
2026_06_09_15_16_09.229,3.761,28.9,0,0.757,3.807,5.029,1.01,0.053, ,0,0,0,0,0, ,-70,-18.7,1005.9,-0.6,-0.9,-1.7,25,-1.38753,0.189921,-1.36827,0.0420017,-0.228714,-0.0187048,
2026_06_09_15_16_09.249,3.763,29.1,0,0.758,3.808,5.023,1.05,0.055, ,0,0,0,0,0, ,-71.8,-16.6,1001.4,0,0.4,-1.5,25,-1.0615,0.163655,-1.35468,0.0511167,-0.234598,-0.00484064,
2026_06_09_15_16_09.269,3.762,29.1,0,0.758,3.809,5.025,1.03,0.054, ,0,0,0,0,0, ,-74.8,-16.6,1004.8,-0.3,0.1,-1.5,25,-0.863935,0.189365,-1.36205,0.0668893,-0.214515,0.0132717,
2026_06_09_15_16_09.288,3.76,29.1,0,0.758,3.808,5.023,1.03,0.054, ,0,0,0,0,0, ,-80,-16.6,1005.7,-0.1,0.4,-1.1,25,-0.872875,0.212881,-1.25691,0.0791066,-0.194361,0.0402391,
2026_06_09_15_16_09.308,3.763,29.2,0,0.758,3.806,5.021,1.03,0.054, ,0,0,0,0,0, ,-82.1,-14.6,1006.4,-0.4,0.3,-1.8,25,-1.05608,0.283238,-1.1115,0.0878826,-0.169333,0.058329,
2026_06_09_15_16_09.331,3.761,29.2,0,0.758,3.809,5.025,1.01,0.053, ,0,0,0,0,0, ,-77.1,-14.8,1007.4,-0.2,0.4,-1.9,25,-1.15399,0.392887,-0.92605,0.093343,-0.144697,0.0556271,
2026_06_09_15_16_09.348,3.762,29.2,0,0.759,3.81,5.019,1.01,0.053, ,0,0,0,0,0, ,-76.7,-13.5,998,0,0.8,-2,25,-1.10899,0.522197,-0.951115,0.107884,-0.108296,0.0478791,
2026_06_09_15_16_09.368,3.761,29.2,0,0.76,3.811,5.014,1.01,0.053, ,0,0,0,0,0, ,-75.4,-14.8,1003,-0.2,-0.2,-1.6,25,-1.01904,0.642591,-1.07816,0.121181,-0.0878596,0.0476317,
2026_06_09_15_16_09.388,3.763,29.3,0,0.758,3.802,5.015,1.01,0.053, ,0,0,0,0,0, ,-77.2,-13.9,1004.7,-0.7,-0.1,-1.8,25,-0.940746,0.744105,-1.02936,0.116063,-0.0900617,0.052066,
2026_06_09_15_16_09.407,3.761,29.4,0,0.759,3.812,5.022,1.01,0.053, ,0,0,0,0,0, ,-75.6,-15.7,1005.2,0.6,1.5,-2.1,25,-0.866559,0.814904,-0.923941,0.130241,-0.0500252,0.0437654,
2026_06_09_15_16_09.427,3.763,29.4,0,0.759,3.808,5.017,0.99,0.052, ,0,0,0,0,0, ,-77.1,-17,1003.2,-0.2,0.5,-1.6,25,-0.789287,0.802198,-0.855917,0.155343,0.00300722,0.0405605,
2026_06_09_15_16_09.447,3.762,29.4,0,0.758,3.808,5.023,0.99,0.052, ,0,0,0,0,0, ,-78.4,-15.5,999.8,0,-0.1,-1.7,25,-0.780575,0.791065,-0.919429,0.163735,0.0141894,0.0471216,
2026_06_09_15_16_09.467,3.76,29.5,0,0.758,3.809,5.025,0.99,0.052, ,0,0,0,0,0, ,-82,-16.7,1006.2,0,-1,-1.4,25,-0.888599,0.783937,-0.90173,0.175813,-0.0120292,0.058033,
2026_06_09_15_16_09.487,3.761,29.6,0,0.758,3.808,5.023,0.97,0.051, ,0,0,0,0,0, ,-87.7,-12.8,997.3,0,-0.6,-1.9,25,-1.215,0.839503,-0.941758,0.186432,-0.0491635,0.0632189,
2026_06_09_15_16_09.506,3.76,29.5,0,0.761,3.818,5.017,0.95,0.05, ,0,0,0,0,0, ,-81.1,-11.5,1014.2,0.6,0.1,-3.8,25,-1.49733,1.01572,-0.77901,0.210325,-0.0572605,0.00898709,
2026_06_09_15_16_09.526,3.763,29.6,0,0.758,3.801,5.014,0.97,0.051, ,0,0,0,0,0, ,-65.9,-17.7,1008.3,-0.5,-0.7,-1.9,25,-1.22387,1.05813,-0.350666,0.219748,-0.0671304,-0.0426293,
2026_06_09_15_16_09.546,3.761,29.6,0,0.758,3.811,5.027,0.97,0.051, ,0,0,0,0,0, ,-77.8,-13.7,996.5,0.6,0.6,-1.5,25,-0.876863,1.0393,-0.375634,0.227626,-0.0639245,-0.0351045,
2026_06_09_15_16_09.566,3.763,29.7,0,0.759,3.812,5.022,0.97,0.051, ,0,0,0,0,0, ,-81.6,-11.7,1005.3,-0.5,0,-1.5,25,-0.927544,1.1634,-0.471092,0.233997,-0.0433958,-0.0179671,
2026_06_09_15_16_09.585,3.761,29.7,0,0.758,3.81,5.026,0.95,0.05, ,0,0,0,0,0, ,-81.2,-13.9,1006.3,-0.3,0.3,-1.8,25,-1.05454,1.27078,-0.319234,0.216832,-0.0310164,-0.00893809,
2026_06_09_15_16_09.605,3.76,29.7,0,0.759,3.813,5.023,0.95,0.05, ,0,0,0,0,0, ,-78.6,-12.6,1005.3,0,0.6,-1.8,25,-1.09655,1.34456,-0.173251,0.211701,-0.00437839,-0.00766433,
2026_06_09_15_16_09.626,3.761,29.8,0,0.758,3.807,5.022,0.95,0.05, ,0,0,0,0,0, ,-79.1,-13.9,1006.7,-0.4,0.3,-1.9,25,-1.0796,1.40809,-0.0237647,0.203326,0.0209748,-0.00886743,
2026_06_09_15_16_09.645,3.761,29.7,0,0.758,0,0,0,0.049, ,0,0,0,0,0, ,-80.2,-12.4,1003.1,-0.1,0.9,-1.9,25,-1.09739,1.46647,0.0645599,0.191908,0.0523377,-0.01242,
2026_06_09_15_16_09.664,3.763,29.8,0,0.759,3.815,5.026,0.95,0.05, ,0,0,0,0,0, ,-80.2,-13,1001.8,0,0.5,-2.1,25,-1.13588,1.53683,0.0280781,0.189913,0.0868089,-0.0206414,
2026_06_09_15_16_09.685,3.763,29.8,0,0.759,0,0,0,0.049, ,0,0,0,0,0, ,-78.7,-12.4,1004.7,-0.1,-0.2,-1.8,25,-1.1301,1.59617,0.0324827,0.187079,0.0921879,-0.0259058,
2026_06_09_15_16_09.704,3.763,29.9,0,0.758,0,0,0,0.049, ,0,0,0,0,0, ,-79.9,-10,1003.6,-0.5,0.3,-1.7,25,-1.11167,1.7183,0.0806497,0.171202,0.0919444,-0.0209756,
2026_06_09_15_16_09.730,3.763,29.9,0,0.758,0,0,0,0.048, ,0,0,0,0,0, ,-81,-13.3,1001.7,-0.2,1.2,-2,25,-1.14507,1.8039,0.0524921,0.152807,0.12559,-0.0210882,
2026_06_09_15_16_09.744,3.763,30,0,0.761,0,0,0,0.048, ,0,0,0,0,0, ,-82.3,-13.4,1004.1,0,0.6,-1.9,25,-1.23004,1.79303,0.0377176,0.146823,0.164323,-0.0259957,
2026_06_09_15_16_09.764,3.763,29.9,0,0.758,0,0,0,0.048, ,0,0,0,0,0, ,-85.5,-11.4,1003.2,-0.8,-0.9,-1.9,25,-1.41513,1.82046,0.0602643,0.125695,0.148851,-0.0280822,
2026_06_09_15_16_09.784,3.763,30,0,0.758,0,0,0,0, ,0,0,0,0,0, ,-79.7,-12.9,1004.3,-0.4,-0.4,-2,25,-1.52041,1.84982,0.0863127,0.0951754,0.108883,-0.0323801,
2026_06_09_15_16_09.804,3.763,30.1,0,0.757,0,0,0,0, ,0,0,0,0,0, ,-80,-11.5,1005.9,0,0,-1.9,25,-1.47817,1.86618,0.176867,0.0853008,0.0924081,-0.0363077,
2026_06_09_15_16_09.823,3.763,30.1,0,0.76,0,0,0,0, ,0,0,0,0,0, ,-77.5,-11.7,1001.2,-0.3,0.1,-2,25,-1.37677,1.90197,0.186092,0.0779422,0.0885463,-0.0398637,
2026_06_09_15_16_09.843,3.763,30.1,0,0.759,0,0,0,0, ,0,0,0,0,0, ,-81.7,-10.8,1003.9,-0.3,0,-1.8,25,-1.31524,1.94379,0.144905,0.0632039,0.0844376,-0.0405967,
2026_06_09_15_16_09.868,3.763,30.1,0,0.758,0,0,0,0, ,0,0,0,0,0, ,-83.1,-11.3,1000.9,-0.6,-0.6,-1.8,25,-1.38756,1.98379,0.0976666,0.0415205,0.0629491,-0.0361894,
2026_06_09_15_16_09.882,3.763,30.1,0,0.759,0,0,0,0, ,0,0,0,0,0, ,-83.8,-11.2,1007.5,-0.5,0,-1.9,25,-1.501,2.00224,0.140541,0.0157916,0.0422042,-0.034272,
2026_06_09_15_16_09.902,3.763,30.1,0,0.758,0,0,0,0, ,0,0,0,0,0, ,-81.1,-11.3,1005.9,0,0.2,-2,25,-1.55243,2.00992,0.303228,0.0059596,0.041886,-0.0371841,
2026_06_09_15_16_09.922,3.763,30.2,0,0.758,0,0,0,0, ,0,0,0,0,0, ,-78.8,-12.4,999.5,0.1,0.7,-2.1,25,-1.47109,1.9779,0.26027,0.0112934,0.0585421,-0.0446744,
2026_06_09_15_16_09.942,3.763,30.2,0,0.758,0,0,0,0, ,0,0,0,0,0, ,-82,-12.6,1000.9,-0.2,0.3,-1.8,25,-1.40855,1.90581,0.0955273,0.0114057,0.0765451,-0.0466729,
2026_06_09_15_16_09.962,3.763,30.1,0,0.758,0,0,0,0, ,0,0,0,0,0, ,-88,-10.6,1006.4,-0.2,-0.6,-1.7,25,-1.56773,1.87201,0.107593,0.0040997,0.0614097,-0.0385347,
2026_06_09_15_16_09.981,3.763,30.3,0,0.758,0,0,0,0, ,0,0,0,0,0, ,-83.6,-10,1000.3,-0.8,-0.7,-2.2,25,-1.75062,1.8944,0.103823,-0.0175811,0.0221924,-0.0404143,
2026_06_09_15_16_10.006,3.763,30.3,0,0.758,0,0,0,0, ,0,0,0,0,0, ,-75.4,-12.6,1007.5,-0.6,-0.9,-1.5,25,-1.60694,1.85731,0.126699,-0.0479206,-0.0225674,-0.0370983,
2026_06_09_15_16_10.021,3.763,30.3,0,0.759,0,0,0,0, ,0,0,0,0,0, ,-81.6,-10.4,1005.9,-0.1,-0.2,-1.5,25,-1.41334,1.80308,0.285151,-0.0593709,-0.0527601,-0.016597,
2026_06_09_15_16_10.041,3.763,30.2,0,0.76,0,0,0,0, ,0,0,0,0,0, ,-82.8,-10.6,1000.6,-0.1,0.4,-1.8,25,-1.40373,1.79166,0.265227,-0.0577062,-0.0493338,-0.00437579,
2026_06_09_15_16_10.061,3.763,30.2,0,0.758,0,0,0,0, ,0,0,0,0,0, ,-82.3,-10.7,1004.1,-0.6,-0.2,-1.6,25,-1.40484,1.76462,0.200833,-0.0680996,-0.0458325,0.00481545,
2026_06_09_15_16_10.080,3.763,30.3,0,0.759,0,0,0,0, ,0,0,0,0,0, ,-80.6,-10.3,1004.7,0,0,-1.8,25,-1.34502,1.73756,0.239147,-0.0751955,-0.0520857,0.0135322,
2026_06_09_15_16_10.100,3.763,30.2,0,0.758,0,0,0,0, ,0,0,0,0,0, ,-82.7,-10.9,1002.3,-0.3,-0.2,-1.6,25,-1.29132,1.69836,0.230264,-0.0742163,-0.0577755,0.0217547,
2026_06_09_15_16_10.120,3.763,30.2,0,0.759,0,0,0,0, ,0,0,0,0,0, ,-81.4,-10.3,1000.6,-0.6,0.1,-1.7,25,-1.2535,1.65272,0.120143,-0.0876323,-0.0604493,0.031919,
2026_06_09_15_16_10.147,3.763,30.2,0,0.758,0,0,0,0, ,0,0,0,0,0, ,-82.2,-10.6,1006.1,0.2,0.5,-1.3,25,-1.1991,1.60853,0.108013,-0.0876977,-0.045529,0.0487839,
2026_06_09_15_16_10.160,3.763,30.3,0,0.758,0,0,0,0, ,0,0,0,0,0, ,-89.9,-10.2,1001.7,-0.2,-0.3,-1.2,25,-1.3499,1.56102,0.122919,-0.077519,-0.0409247,0.0768421,
2026_06_09_15_16_10.180,3.763,30.3,0,0.759,0,0,0,0, ,0,0,0,0,0, ,-87.6,-9.2,1002.6,-0.2,-0.5,-1.9,25,-1.61906,1.54249,0.0506631,-0.0772661,-0.0608661,0.0884326,
2026_06_09_15_16_10.199,3.763,30.3,0,0.759,0,0,0,0, ,0,0,0,0,0, ,-81.4,-10,1003.6,-0.6,-1.2,-2.1,25,-1.6586,1.52216,0.0282913,-0.0864535,-0.101599,0.0769493,
2026_06_09_15_16_10.219,3.763,30.3,0,0.759,0,0,0,0, ,0,0,0,0,0, ,-77.6,-10.9,1004.2,-0.5,-0.3,-2.2,25,-1.44282,1.45365,0.0461127,-0.102121,-0.134929,0.0582936,
2026_06_09_15_16_10.239,3.763,30.3,0,0.759,0,0,0,0, ,0,0,0,0,0, ,-77.1,-10.6,1005,-0.1,0.6,-1.5,25,-1.12507,1.36662,0.0971637,-0.104256,-0.121821,0.0549784,
2026_06_09_15_16_10.258,3.763,30.3,0,0.758,0,0,0,0, ,0,0,0,0,0, ,-85.4,-8.5,1003.5,0,0.8,-1.6,25,-1.00862,1.33597,0.128067,-0.093511,-0.0817814,0.0662679,
2026_06_09_15_16_10.284,3.763,30.3,0,0.757,0,0,0,0, ,0,0,0,0,0, ,-89.2,-10.2,1003.2,-0.1,0.1,-1.9,25,-1.18963,1.31005,0.112684,-0.0828326,-0.0555633,0.0668684,
2026_06_09_15_16_10.298,3.763,30.3,0,0.759,0,0,0,0, ,0,0,0,0,0, ,-87.5,-9.5,1004.8,-0.4,-0.3,-1.9,25,-1.40739,1.25442,0.129379,-0.0820783,-0.0573309,0.0597535,
2026_06_09_15_16_10.318,3.763,30.2,0,0.759,0,0,0,0, ,0,0,0,0,0, ,-83.4,-9,1001.3,-0.1,0,-2,25,-1.46531,1.22477,0.0980254,-0.0809564,-0.0611815,0.0502409,
2026_06_09_15_16_10.338,3.763,30.4,0,0.759,0,0,0,0, ,0,0,0,0,0, ,-81.9,-10.7,1007.5,-0.5,-0.3,-1.7,25,-1.37585,1.16111,0.133935,-0.0819428,-0.0645417,0.0458515,
2026_06_09_15_16_10.358,3.763,30.3,0,0.758,0,0,0,0, ,0,0,0,0,0, ,-80.8,-9.8,998.6,-0.2,-0.1,-1.9,25,-1.22024,1.07523,0.101215,-0.0849291,-0.0698712,0.0439035,
2026_06_09_15_16_10.378,3.763,30.4,0,0.758,0,0,0,0, ,0,0,0,0,0, ,-84.2,-10.2,1005.6,0,-0.2,-1.8,25,-1.12265,1.00052,0.0230091,-0.0750897,-0.0721428,0.0393826,
2026_06_09_15_16_10.398,3.763,30.3,0,0.758,0,0,0,0, ,0,0,0,0,0, ,-85.9,-8.9,1003.9,-0.9,-0.3,-2,25,-1.14936,0.946617,0.078491,-0.0825278,-0.0788518,0.0324372,
2026_06_09_15_16_10.420,3.763,30.4,0,0.758,0,0,0,0, ,0,0,0,0,0, ,-82.1,-9.8,1004.1,0,0.3,-1.9,25,-1.11761,0.9005,0.0940827,-0.0891944,-0.0725823,0.0232203,
2026_06_09_15_16_10.437,3.763,30.3,0,0.758,0,0,0,0, ,0,0,0,0,0, ,-86.9,-8.7,1003.4,0,-0.3,-1.5,25,-1.10643,0.857112,0.0961852,-0.0730251,-0.0662627,0.0266019,
2026_06_09_15_16_10.457,3.763,30.4,0,0.759,0,0,0,0, ,0,0,0,0,0, ,-87.6,-8.1,999.6,-0.4,-0.1,-2,25,-1.22522,0.853314,-0.0126367,-0.0670975,-0.069735,0.0272343,
2026_06_09_15_16_10.478,3.763,30.4,0,0.758,0,0,0,0, ,0,0,0,0,0, ,-84.8,-8.9,1008.1,-0.6,-1.1,-2,25,-1.28065,0.840593,-0.000808897,-0.0758429,-0.0923106,0.0154407,
2026_06_09_15_16_10.496,3.763,30.4,0,0.758,0,0,0,0, ,0,0,0,0,0, ,-82.7,-7.2,1004.8,-0.7,-0.9,-2,25,-1.20689,0.846422,0.137955,-0.0911421,-0.132941,0.00414941,
2026_06_09_15_16_10.516,3.763,30.3,0,0.759,0,0,0,0, ,0,0,0,0,0, ,-75.3,-11.2,1000.2,0,1.2,-1.8,25,-0.897839,0.791395,0.0755146,-0.0905288,-0.114525,-0.00170425,
2026_06_09_15_16_10.535,3.763,30.4,0,0.758,0,0,0,0, ,0,0,0,0,0, ,-88.7,-9.5,1006.2,0,0.3,-1.3,25,-0.746655,0.678766,0.0500948,-0.0723343,-0.0670209,0.0099027,
2026_06_09_15_16_10.557,3.763,30.4,0,0.758,0,0,0,0, ,0,0,0,0,0, ,-89.3,-8.9,1002.1,0,0.4,-2.1,25,-0.942508,0.624716,0.0722649,-0.0546757,-0.0411338,0.0135351,
2026_06_09_15_16_10.576,3.763,30.3,0,0.759,0,0,0,0, ,0,0,0,0,0, ,-88,-8.7,1003.1,-0.3,-0.4,-1.8,25,-1.10695,0.589855,0.0169737,-0.0449701,-0.0334787,0.00466188,
2026_06_09_15_16_10.595,3.763,30.3,0,0.759,0,0,0,0, ,0,0,0,0,0, ,-85,-7.5,1002.6,-0.3,-0.3,-2.1,25,-1.15242,0.588126,-0.0234286,-0.0428754,-0.0431991,-0.00379916,
2026_06_09_15_16_10.615,3.763,30.2,0,0.759,0,0,0,0, ,0,0,0,0,0, ,-81.4,-8,1002.3,-0.4,0.5,-1.8,25,-1.02814,0.60075,-0.0813511,-0.0431243,-0.0301605,-0.0118265,
2026_06_09_15_16_10.635,3.763,30.3,0,0.758,0,0,0,0, ,0,0,0,0,0, ,-85.4,-7.3,1008.5,-0.2,0.2,-1.7,25,-0.914703,0.614697,0.00864619,-0.0406963,-0.00535187,-0.00959327,
2026_06_09_15_16_10.655,3.763,30.4,0,0.759,0,0,0,0, ,0,0,0,0,0, ,-86.5,-9.1,999.7,-0.2,0.4,-1.8,25,-0.927378,0.597958,0.0304315,-0.0332824,0.0158143,-0.00742226,
2026_06_09_15_16_10.675,3.763,30.4,0,0.759,0,0,0,0, ,0,0,0,0,0, ,-87.1,-7,1001.5,-0.3,0.4,-1.7,25,-0.976547,0.586449,-0.120653,-0.0285203,0.0407687,-0.00532115,
2026_06_09_15_16_10.696,3.763,30.3,0,0.758,0,0,0,0, ,0,0,0,0,0, ,-87,-6.9,1008.3,-0.1,0.7,-1.9,25,-1.03075,0.626562,-0.0528477,-0.0213991,0.0716549,-0.00574902,
2026_06_09_15_16_10.714,3.763,30.3,0,0.759,0,0,0,0, ,0,0,0,0,0, ,-88.1,-8,1000.9,-0.3,0.1,-2,25,-1.10174,0.637098,-0.00281979,-0.0145216,0.0933167,-0.0134841,
2026_06_09_15_16_10.734,3.763,30.4,0,0.759,0,0,0,0, ,0,0,0,0,0, ,-87.5,-8.5,1002.5,-0.6,-0.3,-1.8,25,-1.17608,0.604743,-0.0974566,-0.0201707,0.0889346,-0.0183211,
2026_06_09_15_16_10.753,3.763,30.3,0,0.759,0,0,0,0, ,0,0,0,0,0, ,-87.5,-7.9,1003.6,-0.5,-0.1,-2,25,-1.22627,0.573447,-0.120765,-0.0303476,0.0794249,-0.0228307,
2026_06_09_15_16_10.774,3.763,30.3,0,0.759,0,0,0,0, ,0,0,0,0,0, ,-83.9,-6.9,1004.6,-0.1,0.2,-1.8,25,-1.17967,0.580094,-0.0908397,-0.027615,0.0822508,-0.0270066,
2026_06_09_15_16_10.793,3.763,30.4,0,0.758,0,0,0,0, ,0,0,0,0,0, ,-85,-7.5,1000.1,0,0.5,-1.6,25,-1.06824,0.593364,-0.14776,-0.0126196,0.0992459,-0.0210359,
2026_06_09_15_16_10.813,3.763,30.4,0,0.759,0,0,0,0, ,0,0,0,0,0, ,-90.6,-6.8,1002.1,-0.7,-0.3,-1.6,25,-1.1213,0.605512,-0.262465,-0.0130103,0.102657,-0.0103501,
2026_06_09_15_16_10.833,3.763,30.4,0,0.759,0,0,0,0, ,0,0,0,0,0, ,-92.4,-6.7,1005.2,-0.8,-0.8,-1.8,25,-1.3477,0.633697,-0.24519,-0.0329351,0.0735177,-0.0050416,
2026_06_09_15_16_10.853,3.763,30.4,0,0.758,0,0,0,0, ,0,0,0,0,0, ,-86.5,-6.4,997.4,-0.6,-0.3,-2.3,25,-1.45581,0.667186,-0.342804,-0.0492682,0.0454448,-0.0171338,
2026_06_09_15_16_10.873,3.763,30.4,0,0.758,0,0,0,0, ,0,0,0,0,0, ,-80.6,-8.6,1008.4,-0.9,-0.8,-1.7,25,-1.26209,0.649153,-0.355472,-0.0670097,0.0185247,-0.0260963,
2026_06_09_15_16_10.891,3.763,30.4,0,0.758,0,0,0,0, ,0,0,0,0,0, ,-84.2,-7.2,998.6,-0.4,0,-1.2,25,-1.01525,0.609188,-0.336341,-0.0786464,0.000189981,-0.0075169,
2026_06_09_15_16_10.912,3.763,30.3,0,0.758,0,0,0,0, ,0,0,0,0,0, ,-89.5,-8.3,1006.1,0.2,1.1,-1.4,25,-0.993759,0.575537,-0.372893,-0.0623511,0.0293446,0.0175448,
2026_06_09_15_16_10.931,3.763,30.3,0,0.758,0,0,0,0, ,0,0,0,0,0, ,-90.2,-5.3,999.1,-0.3,0.3,-1.8,25,-1.11555,0.587291,-0.393553,-0.0440956,0.0642813,0.026578,
2026_06_09_15_16_10.951,3.763,30.3,0,0.758,0,0,0,0, ,0,0,0,0,0, ,-88.9,-7,1005.8,-0.9,-0.7,-1.8,25,-1.21116,0.627452,-0.418617,-0.0534918,0.0530488,0.0252286,
2026_06_09_15_16_10.973,3.763,30.3,0,0.758,0,0,0,0, ,0,0,0,0,0, ,-83.8,-7.2,1002.5,-0.7,0,-1.8,25,-1.13917,0.615961,-0.357014,-0.0719722,0.0347493,0.023821,
2026_06_09_15_16_10.991,3.763,30.3,0,0.757,0,0,0,0, ,0,0,0,0,0, ,-82.7,-8.4,997.9,0,0.9,-1.9,25,-0.913067,0.567667,-0.490393,-0.0671221,0.0564106,0.0199129,
2026_06_09_15_16_11.011,3.763,30.3,0,0.759,0,0,0,0, ,0,0,0,0,0, ,-87,-6.9,1005,-0.4,0.4,-1.3,25,-0.77202,0.526301,-0.55351,-0.0548226,0.0865402,0.0283591,
2026_06_09_15_16_11.031,3.763,30.3,0,0.758,0,0,0,0, ,0,0,0,0,0, ,-92.8,-7.9,1001.9,-0.7,-0.4,-1.3,25,-0.881754,0.49663,-0.512717,-0.0600213,0.0828876,0.0509643,
2026_06_09_15_16_11.051,3.763,30.4,0,0.758,0,0,0,0, ,0,0,0,0,0, ,-92.2,-7.2,1002.9,-0.6,-0.2,-1.5,25,-1.10927,0.45861,-0.522892,-0.0695735,0.0642926,0.0673053,
2026_06_09_15_16_11.070,3.763,30.3,0,0.758,0,0,0,0, ,0,0,0,0,0, ,-90.8,-5.8,1004,-0.5,-0.4,-1.8,25,-1.27112,0.471691,-0.478497,-0.07341,0.0462928,0.0702525,
2026_06_09_15_16_11.090,3.763,30.3,0,0.759,0,0,0,0, ,0,0,0,0,0, ,-87.7,-5,1001.7,-0.3,-0.6,-1.9,25,-1.30843,0.535752,-0.463347,-0.0693401,0.0191389,0.0629002,
2026_06_09_15_16_11.110,3.763,30.4,0,0.759,0,0,0,0, ,0,0,0,0,0, ,-83.4,-6.3,1003.5,-0.1,0,-1.7,25,-1.15599,0.581771,-0.458918,-0.0553195,0.00303103,0.0580507,
2026_06_09_15_16_11.130,3.763,30.3,0,0.76,0,0,0,0, ,0,0,0,0,0, ,-89.9,-4.2,1001.2,-0.3,-0.3,-1.4,25,-1.05928,0.642283,-0.464705,-0.0417138,-0.00494529,0.0654137,
2026_06_09_15_16_11.149,3.763,30.3,0,0.758,0,0,0,0, ,0,0,0,0,0, ,-91.7,-5.6,1002.5,-0.6,-0.8,-1.5,25,-1.16562,0.713827,-0.492439,-0.0408306,-0.0321233,0.0769976,
2026_06_09_15_16_11.169,3.763,30.3,0,0.758,0,0,0,0, ,0,0,0,0,0, ,-86.6,-9,1002,-0.5,-0.6,-1.7,25,-1.18008,0.660641,-0.496769,-0.0446939,-0.0651667,0.0802774,
2026_06_09_15_16_11.189,3.763,30.4,0,0.759,0,0,0,0, ,0,0,0,0,0, ,-82.5,-9,999.3,-0.1,0,-1.7,25,-0.962419,0.523433,-0.576909,-0.0358866,-0.076651,0.0780964,
2026_06_09_15_16_11.209,3.763,30.3,0,0.757,0,0,0,0, ,0,0,0,0,0, ,-91.4,-5.3,1007.8,0.2,0.8,-1.6,25,-0.868392,0.481105,-0.508049,-0.0101692,-0.0528641,0.0780897,
2026_06_09_15_16_11.228,3.763,30.3,0,0.757,0,0,0,0, ,0,0,0,0,0, ,-88.7,-7.2,999.2,-0.8,-0.3,-1.7,25,-0.92673,0.482621,-0.442515,-0.00282817,-0.0373397,0.0776984,
2026_06_09_15_16_11.248,3.763,30.4,0,0.759,0,0,0,0, ,0,0,0,0,0, ,-92.1,-7.8,1003,-0.1,-0.1,-1.6,25,-0.994805,0.42038,-0.495717,-0.00318967,-0.0444621,0.0769434,
2026_06_09_15_16_11.269,3.763,30.4,0,0.759,0,0,0,0, ,0,0,0,0,0, ,-93.2,-5.1,1008.6,-0.4,-0.6,-1.8,25,-1.16499,0.410616,-0.313365,0.00629092,-0.0583726,0.0733941,
2026_06_09_15_16_11.289,3.763,30.3,0,0.758,0,0,0,0, ,0,0,0,0,0, ,-83.7,-6.1,998.9,-0.3,0,-2,25,-1.1151,0.440993,-0.238949,0.0103712,-0.068861,0.0598485,
2026_06_09_15_16_11.308,3.763,30.3,0,0.758,0,0,0,0, ,0,0,0,0,0, ,-87.5,-6.5,1003.7,-0.5,-0.4,-1.2,25,-0.922388,0.433377,-0.287161,0.0117481,-0.0735913,0.0613852,
2026_06_09_15_16_11.327,3.763,30.3,0,0.758,0,0,0,0, ,0,0,0,0,0, ,-95.2,-5.6,1004,0.1,0,-1.8,25,-1.01658,0.436259,-0.206533,0.0228083,-0.077727,0.0674484,
2026_06_09_15_16_11.348,3.763,30.2,0,0.758,0,0,0,0, ,0,0,0,0,0, ,-94.9,-4,1002.6,-0.3,-0.9,-2.1,25,-1.28261,0.498154,-0.155816,0.0381179,-0.0935376,0.0508123,
2026_06_09_15_16_11.367,3.763,30.3,0,0.758,0,0,0,0, ,0,0,0,0,0, ,-90.3,-4.8,1001,-0.4,-0.2,-2.2,25,-1.40911,0.574176,-0.180383,0.0402281,-0.113016,0.0249331,
2026_06_09_15_16_11.387,3.763,30.3,0,0.759,0,0,0,0, ,0,0,0,0,0, ,-80.3,-6.1,1004,0,0,-1.8,25,-1.16444,0.592144,-0.168526,0.0493929,-0.108913,0.00755666,
2026_06_09_15_16_11.407,3.763,30.3,0,0.758,0,0,0,0, ,0,0,0,0,0, ,-88.9,-5.6,1001.7,0,0.2,-1.5,25,-0.89171,0.586695,-0.139255,0.0676736,-0.0946656,0.00816032,
2026_06_09_15_16_11.427,3.763,30.3,0,0.758,0,0,0,0, ,0,0,0,0,0, ,-92,-5.1,1003.6,-0.6,0.2,-1.9,25,-0.91486,0.603144,-0.120541,0.0700112,-0.0757461,0.00624199,
2026_06_09_15_16_11.447,3.763,30.2,0,0.758,0,0,0,0, ,0,0,0,0,0, ,-91.9,-5,1005.7,-0.2,1,-2,25,-1.00593,0.630527,-0.00406551,0.0669848,-0.0377639,-0.00787381,
2026_06_09_15_16_11.466,3.763,30.3,0,0.76,0,0,0,0, ,0,0,0,0,0, ,-92.6,-6.1,1000.7,-0.2,0.5,-1.9,25,-1.10229,0.628938,0.0356063,0.0735853,0.00589807,-0.0212585,
2026_06_09_15_16_11.486,3.763,30.4,0,0.758,0,0,0,0, ,0,0,0,0,0, ,-92,-4.8,1000.7,0,0.1,-1.8,25,-1.19095,0.629231,-0.049451,0.0844038,0.0253202,-0.0289777,
2026_06_09_15_16_11.506,3.763,30.2,0,0.757,0,0,0,0, ,0,0,0,0,0, ,-91.4,-3.4,1005.2,-0.2,-0.4,-1.7,25,-1.23996,0.692617,-0.019746,0.0942758,0.0215957,-0.0312712,
2026_06_09_15_16_11.525,3.763,30.3,0,0.758,0,0,0,0, ,0,0,0,0,0, ,-89.5,-4,1003.9,0,0.4,-1.9,25,-1.21915,0.769099,0.0870691,0.103199,0.0253038,-0.0357503,
2026_06_09_15_16_11.546,3.763,30.3,0,0.759,0,0,0,0, ,0,0,0,0,0, ,-90.5,-4.1,999.7,-0.6,0.3,-1.7,25,-1.17129,0.820874,0.0533476,0.101367,0.0458705,-0.0398335,
2026_06_09_15_16_11.565,3.763,30.3,0,0.758,0,0,0,0, ,0,0,0,0,0, ,-92.5,-4.8,1007.6,-0.9,-0.1,-1.7,25,-1.19356,0.846447,0.111746,0.0770565,0.0529416,-0.0386158,
2026_06_09_15_16_11.585,3.763,30.2,0,0.758,0,0,0,0, ,0,0,0,0,0, ,-92.2,-3.5,1002.4,-0.7,0.3,-2,25,-1.25055,0.881308,0.232938,0.051106,0.0594051,-0.044624,
2026_06_09_15_16_11.604,3.763,30.3,0,0.759,0,0,0,0, ,0,0,0,0,0, ,-87.4,-6.9,998.7,-0.5,0.3,-1.6,25,-1.17352,0.85862,0.128797,0.035985,0.0750675,-0.0476655,
2026_06_09_15_16_11.625,3.763,30.3,0,0.757,0,0,0,0, ,0,0,0,0,0, ,-94.7,-3.1,1006.8,-0.1,0.1,-1.3,25,-1.15578,0.842622,0.137023,0.0361412,0.0846874,-0.0331578,
2026_06_09_15_16_11.650,3.763,30.3,0,0.758,0,0,0,0, ,0,0,0,0,0, ,-97.1,-3.6,998.7,-0.3,0,-2,25,-1.37109,0.904177,0.14417,0.0410159,0.0860617,-0.0290068,
2026_06_09_15_16_11.664,3.763,30.3,0,0.758,0,0,0,0, ,0,0,0,0,0, ,-93.3,-6.5,1002.3,-0.5,-0.9,-1.8,25,-1.53474,0.874883,0.0399087,0.0356408,0.0624229,-0.0371772,
2026_06_09_15_16_11.685,3.763,30.3,0,0.758,0,0,0,0, ,0,0,0,0,0, ,-95.5,-4.6,1004.2,-0.4,-1,-2,25,-1.64357,0.818193,0.075433,0.0279015,0.0151141,-0.0447637,
2026_06_09_15_16_11.703,3.763,30.3,0,0.758,0,0,0,0, ,0,0,0,0,0, ,-91.6,-4.7,999.3,-0.9,-0.8,-2.1,25,-1.69728,0.80439,0.0352786,0.0105956,-0.0274968,-0.059114,
2026_06_09_15_16_11.723,3.763,30.3,0,0.76,0,0,0,0, ,0,0,0,0,0, ,-86.4,-5.6,1004.2,-0.9,-0.7,-1.7,25,-1.51684,0.762778,-0.00308046,-0.0181746,-0.0605259,-0.0651128,
2026_06_09_15_16_11.743,3.763,30.2,0,0.757,0,0,0,0, ,0,0,0,0,0, ,-89.3,-4.5,1005.7,-0.3,0.3,-1.8,25,-1.28137,0.724352,0.117396,-0.0307312,-0.0646632,-0.0631399,
2026_06_09_15_16_11.763,3.763,30.3,0,0.758,0,0,0,0, ,0,0,0,0,0, ,-89.3,-5.2,998.4,-0.9,0,-1.4,25,-1.12225,0.69405,0.08916,-0.0425206,-0.0511137,-0.0535962,
2026_06_09_15_16_11.786,3.763,30.3,0,0.759,0,0,0,0, ,0,0,0,0,0, ,-97.6,-4.2,1005.9,-0.7,0,-1.2,25,-1.16894,0.669169,0.0667742,-0.0633309,-0.0453333,-0.0295434,
2026_06_09_15_16_11.803,3.763,30.3,0,0.758,0,0,0,0, ,0,0,0,0,0, ,-94.6,-4.7,998.1,-0.2,0.3,-2,25,-1.33753,0.654472,0.0377994,-0.0656434,-0.0322565,-0.0212376,
2026_06_09_15_16_11.823,3.763,30.3,0,0.758,0,0,0,0, ,0,0,0,0,0, ,-92.5,-4.8,1002.1,-0.8,-1.2,-1.5,25,-1.36621,0.622557,-0.0831239,-0.0699711,-0.049088,-0.0205909,
2026_06_09_15_16_11.843,3.763,30.2,0,0.756,0,0,0,0, ,0,0,0,0,0, ,-91.3,-4.2,1002.9,-1,-0.9,-1.7,25,-1.30582,0.601399,-0.0800022,-0.093359,-0.094278,-0.012518,
2026_06_09_15_16_11.863,3.763,30.3,0,0.758,0,0,0,0, ,0,0,0,0,0, ,-89.2,-5.7,1004.1,-0.4,0.3,-1.7,25,-1.16105,0.556247,-0.027596,-0.105331,-0.100005,-0.00968368,
2026_06_09_15_16_11.882,3.763,30.2,0,0.758,0,0,0,0, ,0,0,0,0,0, ,-94.1,-2.9,1003,0,0.3,-1.5,25,-1.0863,0.542445,0.0248275,-0.0916754,-0.0755318,-0.0020363,
2026_06_09_15_16_11.902,3.763,30.3,0,0.759,0,0,0,0, ,0,0,0,0,0, ,-95.9,-3.4,998.7,-0.8,-0.9,-1.5,25,-1.17417,0.583047,-0.0578582,-0.0880462,-0.0813128,0.0101504,
2026_06_09_15_16_11.922,3.763,30.3,0,0.759,0,0,0,0, ,0,0,0,0,0, ,-95.2,-5.3,1006.1,-0.8,-0.8,-1.4,25,-1.27891,0.559932,-0.0601871,-0.103778,-0.113383,0.0241415,
2026_06_09_15_16_11.941,3.763,30.2,0,0.759,0,0,0,0, ,0,0,0,0,0, ,-88.9,-3.2,1004,-0.2,0.1,-1.9,25,-1.20057,0.540095,0.067859,-0.103515,-0.118801,0.0275189,
2026_06_09_15_16_11.961,3.763,30.3,0,0.758,0,0,0,0, ,0,0,0,0,0, ,-88.5,-4.5,1002.8,-0.8,-0.3,-1.7,25,-0.955852,0.538187,0.10837,-0.102754,-0.111106,0.0232385,
2026_06_09_15_16_11.981,3.763,30.2,0,0.758,0,0,0,0, ,0,0,0,0,0, ,-89.7,-3.9,1002.1,-1,0,-1.5,25,-0.738043,0.516555,0.0997683,-0.121141,-0.105693,0.0288622,
2026_06_09_15_16_12.001,3.763,30.3,0,0.757,0,0,0,0, ,0,0,0,0,0, ,-94.6,-5.8,1000.6,-0.8,0,-1.2,25,-0.676862,0.46156,0.037149,-0.138029,-0.0926686,0.0463286,
2026_06_09_15_16_12.021,3.763,30.3,0,0.758,0,0,0,0, ,0,0,0,0,0, ,-98.6,-3,1003.7,-0.8,-0.7,-1.4,25,-0.833588,0.429057,0.0166531,-0.148505,-0.0969912,0.0651622,
2026_06_09_15_16_12.041,3.763,30.1,0,0.758,0,0,0,0, ,0,0,0,0,0, ,-96.3,-6.1,1001.9,-1.1,-0.9,-1.8,25,-1.02021,0.388678,0.0289596,-0.165091,-0.122693,0.0680381,
2026_06_09_15_16_12.061,3.763,30.3,0,0.757,0,0,0,0, ,0,0,0,0,0, ,-87.5,-7,1005.7,0,0.4,-1.8,25,-0.920453,0.250276,0.0895631,-0.160433,-0.119556,0.060629,
2026_06_09_15_16_12.080,3.763,30.3,0,0.758,0,0,0,0, ,0,0,0,0,0, ,-91.7,-3.7,1000.6,-0.2,-0.1,-1.3,25,-0.708258,0.176281,0.114874,-0.133144,-0.0963667,0.0655453,
2026_06_09_15_16_12.100,3.763,30.2,0,0.758,0,0,0,0, ,0,0,0,0,0, ,-93.8,-4.8,1002.1,-0.9,0,-1.4,25,-0.657465,0.158993,0.0500982,-0.128606,-0.0836482,0.079706,
2026_06_09_15_16_12.120,3.763,30.2,0,0.759,0,0,0,0, ,0,0,0,0,0, ,-94.9,-3.4,1005.4,-0.3,0.2,-1.8,25,-0.684391,0.149126,0.105958,-0.126109,-0.0637846,0.0805187,
2026_06_09_15_16_12.140,3.763,30.2,0,0.758,0,0,0,0, ,0,0,0,0,0, ,-93.3,-3.6,996.5,-0.7,-0.1,-1.8,25,-0.694364,0.168434,0.0212347,-0.118209,-0.0470331,0.0710861,
2026_06_09_15_16_12.160,3.763,30.3,0,0.758,0,0,0,0, ,0,0,0,0,0, ,-92.2,-5.8,1005.6,-0.4,0.1,-1.6,25,-0.634217,0.127113,-0.0545346,-0.112565,-0.0333235,0.06667,
2026_06_09_15_16_12.179,3.763,30.2,0,0.757,0,0,0,0, ,0,0,0,0,0, ,-98.8,-2.8,1003.2,-0.6,-0.4,-1.7,25,-0.708763,0.106809,0.037976,-0.104192,-0.0274785,0.0645941,
2026_06_09_15_16_12.199,3.763,30.2,0,0.758,0,0,0,0, ,0,0,0,0,0, ,-94.1,-5.9,1001.5,-0.6,-0.4,-1.8,25,-0.822752,0.0845231,0.0252244,-0.10062,-0.0340455,0.0573974,
2026_06_09_15_16_12.219,3.763,30.1,0,0.758,0,0,0,0, ,0,0,0,0,0, ,-95.4,-5,1005.1,-0.5,-0.8,-1.7,25,-0.843721,0.0089656,0.059564,-0.0942749,-0.0499313,0.0502707,
2026_06_09_15_16_12.238,3.763,30.1,0,0.758,0,0,0,0, ,0,0,0,0,0, ,-90.9,-5,1002.3,-0.5,-0.1,-2,25,-0.781035,-0.040861,0.111543,-0.0853244,-0.0574355,0.0383415,
2026_06_09_15_16_12.259,3.763,30.2,0,0.758,0,0,0,0, ,0,0,0,0,0, ,-89.2,-4.3,1002.3,-0.3,0.5,-1.7,25,-0.56554,-0.0708775,0.0917627,-0.0714881,-0.0324105,0.0268084,
2026_06_09_15_16_12.279,3.763,30.2,0,0.758,0,0,0,0, ,0,0,0,0,0, ,-93.8,-3.7,1003.1,-0.1,0.7,-1.6,25,-0.42894,-0.0671944,0.0921173,-0.0481694,0.0111642,0.0255174,
2026_06_09_15_16_12.298,3.763,30.2,0,0.756,0,0,0,0, ,0,0,0,0,0, ,-96.8,-5.2,999.2,-0.3,0.2,-1.8,25,-0.483289,-0.0854303,0.0159841,-0.025757,0.0451904,0.0217118,
2026_06_09_15_16_12.318,3.763,30.2,0,0.759,0,0,0,0, ,0,0,0,0,0, ,-97.7,-4.8,1004.2,-0.5,0.1,-1.7,25,-0.628224,-0.129325,-0.0295193,-0.0141254,0.0626121,0.0155337,
2026_06_09_15_16_12.338,3.763,30.2,0,0.757,0,0,0,0, ,0,0,0,0,0, ,-96.1,-3.4,1003.5,-0.2,-0.1,-1.8,25,-0.745791,-0.12629,0.032797,-0.000542503,0.0715144,0.009582,
2026_06_09_15_16_12.357,3.763,30.2,0,0.758,0,0,0,0, ,0,0,0,0,0, ,-92.8,-2.1,999.7,-0.5,0,-1.8,25,-0.73376,-0.0565733,-0.0184517,0.0123769,0.0771754,0.00142284,
2026_06_09_15_16_12.377,3.763,30.3,0,0.757,0,0,0,0, ,0,0,0,0,0, ,-93.1,-5.7,1003,-0.5,-0.1,-1.7,25,-0.645139,-0.0463967,-0.079357,0.0172453,0.0821785,-0.00389102,
2026_06_09_15_16_12.397,3.763,30.1,0,0.757,0,0,0,0, ,0,0,0,0,0, ,-96,-3.9,1002.9,-0.5,-0.4,-1.4,25,-0.636153,-0.0806294,-0.0584147,0.0217898,0.0767226,0.000883542,
2026_06_09_15_16_12.417,3.763,30.2,0,0.756,0,0,0,0, ,0,0,0,0,0, ,-97.9,-6.1,999.5,-0.7,-0.1,-1.7,25,-0.742177,-0.122595,-0.124037,0.0210998,0.0711561,0.00541959,
2026_06_09_15_16_12.436,3.763,30.2,0,0.758,0,0,0,0, ,0,0,0,0,0, ,-94.4,-4.2,1001.3,-0.5,0.3,-2,25,-0.800109,-0.169254,-0.225066,0.0203397,0.0826771,-0.0050065,
2026_06_09_15_16_12.456,3.763,30.1,0,0.759,0,0,0,0, ,0,0,0,0,0, ,-93.1,-4.8,1006.1,-0.1,0.4,-1.8,25,-0.733552,-0.180913,-0.158188,0.0342295,0.105486,-0.0173487,
2026_06_09_15_16_12.477,3.763,30.2,0,0.759,0,0,0,0, ,0,0,0,0,0, ,-96.5,-4.8,1000.6,0.1,0.8,-1.8,25,-0.71814,-0.205821,-0.110976,0.0619825,0.138918,-0.0240959,
2026_06_09_15_16_12.496,3.763,30.2,0,0.757,0,0,0,0, ,0,0,0,0,0, ,-97,-3,1001.4,-0.4,0.8,-1.7,25,-0.795579,-0.184355,-0.180783,0.0807124,0.179834,-0.0279412,
2026_06_09_15_16_12.516,3.763,30.2,0,0.758,0,0,0,0, ,0,0,0,0,0, ,-99.4,-4.1,1000.9,-0.1,0.6,-1.8,25,-0.936412,-0.145867,-0.238918,0.0932216,0.212953,-0.0314602,
2026_06_09_15_16_12.536,3.763,30.1,0,0.759,0,0,0,0, ,0,0,0,0,0, ,-98.1,-3.4,1001,-0.7,-0.3,-1.7,25,-1.0927,-0.118357,-0.302833,0.0973014,0.216424,-0.0346516,
2026_06_09_15_16_12.556,3.763,30.2,0,0.759,0,0,0,0, ,0,0,0,0,0, ,-96.9,-3.6,1000.9,-0.9,-0.5,-1.6,25,-1.17463,-0.0793524,-0.362122,0.0810843,0.191685,-0.0326114,
2026_06_09_15_16_12.576,3.763,30.1,0,0.758,0,0,0,0, ,0,0,0,0,0, ,-97.6,-1.8,1006.2,0,0.5,-1.8,25,-1.23449,-0.0026347,-0.289205,0.0824281,0.186831,-0.0329626,
2026_06_09_15_16_12.595,3.763,30.2,0,0.758,0,0,0,0, ,0,0,0,0,0, ,-96,-2.9,997.4,-0.4,0.7,-2.1,25,-1.26327,0.0874986,-0.304265,0.0955605,0.210721,-0.045395,
2026_06_09_15_16_12.615,3.763,30.2,0,0.758,0,0,0,0, ,0,0,0,0,0, ,-96,-3.5,1002,-0.9,0.3,-1.8,25,-1.24517,0.131094,-0.420078,0.0855085,0.227496,-0.056994,
2026_06_09_15_16_12.635,3.763,30.1,0,0.758,0,0,0,0, ,0,0,0,0,0, ,-95.8,-4.3,1002.9,-0.6,0,-1.7,25,-1.21692,0.137574,-0.393272,0.0706237,0.225163,-0.0579346,
2026_06_09_15_16_12.654,3.763,30.1,0,0.758,0,0,0,0, ,0,0,0,0,0, ,-101.6,-5.2,1000.4,0,0.5,-1.4,25,-1.32137,0.101372,-0.405076,0.0781904,0.226738,-0.0487349,
2026_06_09_15_16_12.675,3.763,30.2,0,0.757,0,0,0,0, ,0,0,0,0,0, ,-104,-2.5,1003.1,-0.1,-0.2,-1.8,25,-1.61528,0.110585,-0.409402,0.0972614,0.222214,-0.0421984,
2026_06_09_15_16_12.695,3.763,30.1,0,0.756,0,0,0,0, ,0,0,0,0,0, ,-95.8,-3.9,1001.2,-1,-1,-2,25,-1.74458,0.150679,-0.391881,0.0903961,0.180035,-0.0504874,
2026_06_09_15_16_12.714,3.763,30.1,0,0.757,0,0,0,0, ,0,0,0,0,0, ,-93,-3.9,1001.3,-0.7,-0.7,-1.7,25,-1.5892,0.153734,-0.417427,0.0687091,0.126776,-0.0556689,
2026_06_09_15_16_12.734,3.763,30.2,0,0.758,0,0,0,0, ,0,0,0,0,0, ,-95.8,-4.3,1003.7,-0.6,0.5,-1.5,25,-1.43361,0.146072,-0.378358,0.0575557,0.112287,-0.0480612,
2026_06_09_15_16_12.754,3.763,30.1,0,0.758,0,0,0,0, ,0,0,0,0,0, ,-97.4,-3.6,999.7,0,1.5,-1.5,25,-1.38648,0.145424,-0.378575,0.0638308,0.151903,-0.0356854,
2026_06_09_15_16_12.774,3.763,30.1,0,0.758,0,0,0,0, ,0,0,0,0,0, ,-104.2,-1.8,1001.7,-0.5,-0.5,-1.2,25,-1.54082,0.205394,-0.425959,0.0719357,0.164305,-0.0163842,
2026_06_09_15_16_12.793,3.763,30.1,0,0.756,0,0,0,0, ,0,0,0,0,0, ,-108.7,-0.6,1002.3,-0.6,-1.4,-1.6,25,-1.95708,0.334975,-0.405164,0.0645757,0.104177,-0.000400951,
2026_06_09_15_16_12.813,3.763,30.1,0,0.758,0,0,0,0, ,0,0,0,0,0, ,-99.8,-4.8,1000.2,-1.1,-1.4,-1.8,25,-2.23539,0.382986,-0.420175,0.0425454,0.024415,8.73981e-05,
2026_06_09_15_16_12.833,3.763,30.2,0,0.757,0,0,0,0, ,0,0,0,0,0, ,-91.1,-3.5,1004.1,-0.4,-0.1,-2,25,-2.05745,0.355643,-0.38824,0.0262901,-0.0196776,-0.00925728,
2026_06_09_15_16_12.852,3.763,30.1,0,0.758,0,0,0,0, ,0,0,0,0,0, ,-89.7,-3.5,1002.4,-0.3,0.3,-1.5,25,-1.63043,0.359765,-0.30201,0.0303198,-0.019824,-0.0107416,
2026_06_09_15_16_12.878,3.763,30.2,0,0.758,0,0,0,0, ,0,0,0,0,0, ,-99.1,-2.8,1000.4,-0.7,0.6,-1.1,25,-1.41249,0.379078,-0.30925,0.026646,-0.00270048,0.00996935,
2026_06_09_15_16_12.892,3.763,30.1,0,0.758,0,0,0,0, ,0,0,0,0,0, ,-107,-3.9,1003.5,-0.7,-0.5,-1.2,25,-1.62251,0.385766,-0.287637,0.0132124,-0.0060207,0.0369719,
2026_06_09_15_16_12.911,3.763,30.1,0,0.756,0,0,0,0, ,0,0,0,0,0, ,-106.9,-4.3,1001.2,-0.4,-1.2,-1.6,25,-2.00549,0.353443,-0.24605,0.00772895,-0.0532873,0.0502071,
2026_06_09_15_16_12.932,3.763,30.1,0,0.757,0,0,0,0, ,0,0,0,0,0, ,-95,-4.6,1001.4,-0.6,-0.7,-1.7,25,-2.06555,0.303798,-0.256784,0.00492852,-0.102878,0.050285,
2026_06_09_15_16_12.952,3.763,30,0,0.759,0,0,0,0, ,0,0,0,0,0, ,-93.5,-3.9,1004.3,-0.8,-0.8,-1.5,25,-1.7839,0.264899,-0.18971,-0.0075675,-0.13972,0.0525634,
2026_06_09_15_16_12.971,3.763,30.1,0,0.759,0,0,0,0, ,0,0,0,0,0, ,-97.7,-4.3,1001.7,-0.2,-0.4,-1.6,25,-1.57347,0.233959,-0.117634,-0.00960473,-0.166711,0.0569232,
2026_06_09_15_16_12.991,3.763,30.1,0,0.758,0,0,0,0, ,0,0,0,0,0, ,-102.9,-3.4,999.8,-0.5,-0.8,-1.7,25,-1.59611,0.215645,-0.158861,-0.00413824,-0.191556,0.0558843,
2026_06_09_15_16_13.017,3.763,30.1,0,0.758,0,0,0,0, ,0,0,0,0,0, ,-101.3,-3.2,1005.7,-0.5,-2.8,-1.7,25,-1.69806,0.224139,-0.0991967,-0.00627592,-0.27309,0.0521687,
2026_06_09_15_16_13.030,3.763,30.1,0,0.758,0,0,0,0, ,0,0,0,0,0, ,-94.1,-0.6,1003.1,-0.4,-4.8,-0.5,25,-1.57084,0.299773,0.0389515,-0.00582568,-0.447367,0.0778043,
2026_06_09_15_16_13.050,3.763,30.1,0,0.758,0,0,0,0, ,0,0,0,0,0, ,-120.3,24.6,995.6,3.9,-9.6,0.2,25,-1.90804,1.05192,-0.0775366,0.102526,-0.777638,0.14839,
2026_06_09_15_16_13.070,3.763,30.1,0,0.759,0,0,0,0, ,0,0,0,0,0, ,-105.4,-5.2,1021.2,-1.4,-14.5,-1.8,25,-2.49639,1.6492,0.255912,0.180537,-1.32574,0.182905,
2026_06_09_15_16_13.090,3.763,30.1,0,0.758,0,0,0,0, ,0,0,0,0,0, ,-67.6,1.7,986.4,-1,-17,-3.2,25,-1.75129,1.64751,0.346149,0.133677,-2.02189,0.131452,
2026_06_09_15_16_13.110,3.763,30.1,0,0.757,0,0,0,0, ,0,0,0,0,0, ,-16.6,-9.6,1020.3,3.1,-17.7,-5.7,25,1.14342,1.52989,0.408184,0.198803,-2.7524,-0.0137595,
2026_06_09_15_16_13.129,3.763,30.1,0,0.758,0,0,0,0, ,0,0,0,0,0, ,-20.1,0,1087.7,-1.2,-21.2,2.2,25,5.0553,1.36881,2.9492,0.254851,-3.53651,-0.0193649,
2026_06_09_15_16_13.149,3.763,30,0,0.758,0,0,0,0, ,0,0,0,0,0, ,-78.9,29.4,1052.1,-1.8,-24,3.3,25,7.22272,2.16523,6.13085,0.186739,-4.41922,0.196095,
2026_06_09_15_16_13.169,3.763,30.1,0,0.757,0,0,0,0, ,0,0,0,0,0, ,-83.6,12.6,1004.3,0,-27.4,-2.8,25,7.69112,3.22089,7.08115,0.150472,-5.38889,0.277413,
2026_06_09_15_16_13.189,3.763,30,0,0.757,0,0,0,0, ,0,0,0,0,0, ,-65.4,-9.5,980.2,6.3,-26.4,-4.1,25,8.4297,3.25501,6.18684,0.313868,-6.34331,0.171916,
2026_06_09_15_16_13.208,3.763,30.1,0,0.758,0,0,0,0, ,0,0,0,0,0, ,-21.6,3.6,1031.7,20.3,-32.2,-5.4,25,10.6108,3.05073,5.97779,0.965492,-7.33736,0.00698905,
2026_06_09_15_16_13.228,3.763,30,0,0.757,0,0,0,0, ,0,0,0,0,0, ,48.7,53.1,1080.9,20.8,-54.1,-4,25,15.4306,4.37648,8.21886,1.93596,-8.92574,-0.147431,
2026_06_09_15_16_13.248,3.763,30.1,0,0.758,0,0,0,0, ,0,0,0,0,0, ,212.7,79.9,1128.7,-140.2,-53.1,-1.1,25,25.6834,7.48664,12.6881,-1.08642,-10.9047,-0.188109,
2026_06_09_15_16_13.268,3.763,30,0,0.758,0,0,0,0, ,0,0,0,0,0, ,25.5,-94.6,1137.3,25.1,-43.4,2,25,34.7379,6.78553,18.2587,-3.84978,-12.4706,-0.0787347,
2026_06_09_15_16_13.295,3.763,30.1,0,0.758,0,0,0,0, ,0,0,0,0,0, ,51.2,41.8,1200.5,-19.2,-88,0,25,39.2169,5.15109,25.2267,-3.49152,-14.7539,0.0526372,
2026_06_09_15_16_13.308,3.763,30,0,0.757,0,0,0,0, ,0,0,0,0,0, ,71.5,7.8,1239.1,-11,-116.6,-15.6,25,44.4109,6.08244,34.225,-4.01886,-18.6476,-0.254274,
2026_06_09_15_16_13.327,3.763,30,0,0.758,0,0,0,0, ,0,0,0,0,0, ,65.9,35.4,1198.2,-35.3,-134.2,-3.2,25,49.4918,6.7812,42.5568,-4.89533,-23.3913,-0.623349,
2026_06_09_15_16_13.347,3.763,30.1,0,0.757,0,0,0,0, ,0,0,0,0,0, ,59.8,28.5,1132.4,-57.6,-170.9,-8.4,25,53.7927,7.91986,47.6539,-6.8474,-29.1186,-0.794695,
2026_06_09_15_16_13.366,3.763,30.1,0,0.757,0,0,0,0, ,0,0,0,0,0, ,144.6,4.3,1027.8,-72.9,-194.1,-12.7,25,59.5475,8.20103,48.0877,-9.592,-35.8903,-1.18668,
2026_06_09_15_16_13.386,3.763,30,0,0.758,0,0,0,0, ,0,0,0,0,0, ,211.9,-69.3,966.4,-68.8,-198.1,-16.2,25,68.4562,6.02978,44.1926,-12.4294,-42.8201,-1.74486,
2026_06_09_15_16_13.407,3.763,30,0,0.757,0,0,0,0, ,0,0,0,0,0, ,205,-64.4,950.6,-64.6,-206.6,-22.1,25,78.0718,2.25066,38.3777,-14.8628,-49.5055,-2.49756,
2026_06_09_15_16_13.430,3.763,30.1,0,0.758,0,0,0,0, ,0,0,0,0,0, ,215.5,-52.3,890.9,-76.1,-226.4,-35,25,86.9193,-0.937343,30.8074,-17.2826,-56.313,-3.66205,
2026_06_09_15_16_13.446,3.763,30,0,0.758,0,0,0,0, ,0,0,0,0,0, ,260.7,-246.8,710.9,-48.8,-250.1,-40.3,25,96.2704,-8.43712,17.5788,-19.1112,-63.5758,-5.19768,
2026_06_09_15_16_13.465,3.763,30,0,0.757,0,0,0,0, ,0,0,0,0,0, ,365.8,-87.1,778,-61.6,-250.1,-39.3,25,108.374,-16.3809,2.14382,-20.4003,-70.7502,-6.73782,
2026_06_09_15_16_13.486,3.763,30,0,0.759,0,0,0,0, ,0,0,0,0,0, ,477.6,-108.3,667.2,-57.5,-250.1,-59.8,25,124.669,-20.458,-13.6164,-21.739,-77.2241,-8.64739,
2026_06_09_15_16_13.505,3.763,30.1,0,0.757,0,0,0,0, ,0,0,0,0,0, ,635.7,-125,575.6,-62.5,-250.1,-56.1,25,146.168,-25.1638,-33.4997,-22.927,-83,-10.8327,
2026_06_09_15_16_13.525,3.763,30,0,0.758,0,0,0,0, ,0,0,0,0,0, ,734,-174,448.8,-54.8,-250.1,-51.9,25,172.18,-31.1258,-57.5982,-23.8775,-88.0835,-12.6636,
2026_06_09_15_16_13.545,3.763,30.1,0,0.759,0,0,0,0, ,0,0,0,0,0, ,788.2,-169.3,315,-43.3,-250.1,-46.3,25,199.808,-37.7284,-86.6214,-24.1929,-92.4836,-14.1021,
2026_06_09_15_16_13.565,3.763,30,0,0.757,0,0,0,0, ,0,0,0,0,0, ,849.8,-168.2,217.8,-36.6,-236,-38.2,25,227.935,-43.6789,-119.459,-23.9273,-95.8664,-15.0646,
2026_06_09_15_16_13.585,3.763,30,0,0.758,0,0,0,0, ,0,0,0,0,0, ,883.3,-155.1,166.1,-25.4,-205.2,-32.5,25,255.892,-48.7742,-153.748,-23.1179,-97.5097,-15.5672,
2026_06_09_15_16_13.605,3.763,30.1,0,0.758,0,0,0,0, ,0,0,0,0,0, ,878.2,-152,187.8,-17.1,-194.7,-30.7,25,281.912,-52.982,-186.334,-21.7561,-97.5792,-15.7846,
2026_06_09_15_16_13.624,3.763,30,0,0.757,0,0,0,0, ,0,0,0,0,0, ,896.3,-144.7,157.8,-15,-197.5,-26.7,25,305.586,-56.4672,-216.607,-20.0988,-96.9756,-15.7712,
2026_06_09_15_16_13.644,3.763,30,0,0.756,0,0,0,0, ,0,0,0,0,0, ,960.6,-118,29.7,-3.2,-178.1,-25.8,25,328.614,-58.6695,-248.204,-18.0829,-95.5166,-15.5607,
2026_06_09_15_16_13.663,3.763,30,0,0.758,0,0,0,0, ,0,0,0,0,0, ,984.7,-133.4,-14.8,0.6,-135.2,-24.8,25,351.06,-60.1976,-281.262,-15.6942,-92.1307,-15.2372,
2026_06_09_15_16_13.684,3.763,30,0,0.757,0,0,0,0, ,0,0,0,0,0, ,977.4,-130.9,-7.6,-4.7,-76,-16.3,25,371.088,-61.6704,-312.226,-13.3821,-85.9532,-14.6215,
2026_06_09_15_16_13.703,3.763,30,0,0.757,0,0,0,0, ,0,0,0,0,0, ,951.6,-117.5,-24.4,-16.7,-24.2,-13.1,25,387.493,-62.3771,-340.368,-11.5417,-76.9331,-13.677,
2026_06_09_15_16_13.723,3.763,30,0,0.758,0,0,0,0, ,0,0,0,0,0, ,892.3,-56.8,-80.6,-26.5,5.1,-18.2,25,399.096,-60.9247,-367.243,-10.2692,-65.9876,-12.7581,
2026_06_09_15_16_13.743,3.763,30,0,0.758,0,0,0,0, ,0,0,0,0,0, ,924.3,-24.7,-142.5,-23.9,13.5,-24.4,25,407.495,-56.9677,-393.886,-9.18505,-54.3292,-12.0984,
2026_06_09_15_16_13.763,3.763,29.9,0,0.758,0,0,0,0, ,0,0,0,0,0, ,952.5,-12.3,-140,-19.4,13,-26.4,25,414.949,-51.8328,-418.738,-7.93472,-42.7811,-11.6126,
2026_06_09_15_16_13.783,3.763,29.9,0,0.758,0,0,0,0, ,0,0,0,0,0, ,1001.8,-16.8,-113.1,-11.4,3.6,-28.3,25,421.893,-46.5005,-439.586,-6.40008,-31.8312,-11.1889,
2026_06_09_15_16_13.803,3.763,30,0,0.757,0,0,0,0, ,0,0,0,0,0, ,1072.6,-28.3,-52.7,-4,-5.7,-27.8,25,429.363,-41.593,-455.105,-4.53153,-21.7201,-10.7653,
2026_06_09_15_16_13.823,3.763,29.9,0,0.757,0,0,0,0, ,0,0,0,0,0, ,1039.7,-78.8,-50.4,34.4,-35,-42.7,25,435.279,-38.2414,-466.082,-1.6092,-12.9443,-10.6625,
2026_06_09_15_16_13.842,3.763,29.9,0,0.758,0,0,0,0, ,0,0,0,0,0, ,1122.4,-45.8,-30.3,8.9,1.4,-14.2,25,439.982,-35.2949,-473.675,1.49407,-4.36108,-10.1786,
2026_06_09_15_16_13.862,3.763,30,0,0.756,0,0,0,0, ,0,0,0,0,0, ,1054.1,-16.4,-15.3,8.1,7,-16.8,25,442.638,-30.7889,-477.7,3.79287,4.85263,-9.03326,
2026_06_09_15_16_13.882,3.763,29.9,0,0.758,0,0,0,0, ,0,0,0,0,0, ,1012.3,-23.3,21.6,3.6,12.6,-13.7,25,440.283,-25.8003,-477.901,5.83026,13.8652,-7.88728,
2026_06_09_15_16_13.901,3.763,30,0,0.758,0,0,0,0, ,0,0,0,0,0, ,1000.9,-10.2,39.6,1.4,17.2,-15.9,25,434.569,-20.7772,-474.391,7.57471,22.6176,-6.73657,
2026_06_09_15_16_13.921,3.763,29.9,0,0.759,0,0,0,0, ,0,0,0,0,0, ,1049.1,-21.1,29.2,-0.8,16.8,-13.8,25,427.896,-15.8441,-468.528,9.08838,30.9322,-5.61154,
2026_06_09_15_16_13.941,3.763,30,0,0.758,0,0,0,0, ,0,0,0,0,0, ,1047.2,-31,8.7,-1,17,-8.5,25,420.577,-11.5849,-461.401,10.4242,38.6817,-4.33257,
2026_06_09_15_16_13.961,3.763,29.9,0,0.759,0,0,0,0, ,0,0,0,0,0, ,992.9,-21.8,13.3,-0.6,18.9,-3.2,25,410.166,-7.49471,-452.74,11.648,45.912,-2.83505,
2026_06_09_15_16_13.981,3.763,29.9,0,0.757,0,0,0,0, ,0,0,0,0,0, ,955.8,-10.4,16.7,-1,13.5,-2.7,25,396.003,-3.06299,-442.077,12.7544,52.4756,-1.25477,
2026_06_09_15_16_14.001,3.763,29.9,0,0.758,0,0,0,0, ,0,0,0,0,0, ,978.2,-0.4,-10.2,-1.4,3.7,-5.4,25,380.222,1.69123,-430.334,13.724,58.086,0.200243,
2026_06_09_15_16_14.020,3.763,29.9,0,0.757,0,0,0,0, ,0,0,0,0,0, ,1012.3,-2.9,-12.3,1,-2.1,-3.7,25,364.727,6.38787,-417.757,14.6275,62.7524,1.55839,
2026_06_09_15_16_14.040,3.763,29.9,0,0.758,0,0,0,0, ,0,0,0,0,0, ,1014.2,-5,10.9,4.5,1.6,-1,25,349.077,10.7099,-403.221,15.5593,66.8293,2.95014,
2026_06_09_15_16_14.060,3.763,29.9,0,0.758,0,0,0,0, ,0,0,0,0,0, ,997.4,9.6,16.7,3.8,4.3,0,25,332.109,15.0737,-386.699,16.4374,70.5337,4.34983,
2026_06_09_15_16_14.080,3.763,29.9,0,0.758,0,0,0,0, ,0,0,0,0,0, ,1026,11.1,26.2,3.6,6.6,-1,25,314.626,19.544,-368.707,17.1693,73.8315,5.65943,
2026_06_09_15_16_14.099,3.763,29.9,0,0.758,0,0,0,0, ,0,0,0,0,0, ,1020.1,-3.4,35.4,4,8.5,-0.1,25,297.006,23.3799,-349.321,17.7856,76.7067,6.87447,
2026_06_09_15_16_14.120,3.763,29.9,0,0.758,0,0,0,0, ,0,0,0,0,0, ,1000.3,-6.7,30.2,4.6,8.3,-1.6,25,278.157,26.4761,-329.067,18.3086,79.1045,7.98132,
2026_06_09_15_16_14.139,3.763,29.9,0,0.756,0,0,0,0, ,0,0,0,0,0, ,969.1,-2.9,39,5.5,6.6,-1.2,25,257.61,29.3021,-308.096,18.7525,80.9482,8.96758,
2026_06_09_15_16_14.159,3.763,29.9,0,0.757,0,0,0,0, ,0,0,0,0,0, ,954.5,3.2,54.4,2.9,1.3,-2.2,25,235.678,32.0879,-286.041,19.0404,82.131,9.84657,
2026_06_09_15_16_14.178,3.763,29.9,0,0.757,0,0,0,0, ,0,0,0,0,0, ,977,-4,48.9,0.6,0.6,-4.1,25,213.855,34.552,-263.416,19.1003,82.7039,10.5628,
2026_06_09_15_16_14.198,3.763,29.9,0,0.759,0,0,0,0, ,0,0,0,0,0, ,990.1,-2.5,34.5,0,0.5,-4.2,25,192.92,36.5852,-241.09,18.992,82.8214,11.1428,
2026_06_09_15_16_14.218,3.763,29.9,0,0.76,0,0,0,0, ,0,0,0,0,0, ,987.3,-5.4,25.6,1.4,0.6,-4.3,25,172.314,38.304,-219.242,18.815,82.5251,11.6346,
2026_06_09_15_16_14.238,3.763,30,0,0.758,0,0,0,0, ,0,0,0,0,0, ,984.8,-3.1,21.1,4.7,1.4,-4.6,25,151.74,39.735,-197.714,18.6693,81.8586,12.035,
2026_06_09_15_16_14.258,3.763,29.9,0,0.758,0,0,0,0, ,0,0,0,0,0, ,993.7,2.4,26,5.4,2.2,-5.5,25,131.584,41.0913,-176.258,18.5367,80.8606,12.3271,
2026_06_09_15_16_14.277,3.763,29.8,0,0.757,0,0,0,0, ,0,0,0,0,0, ,1000.2,6.9,39.9,3.6,3.3,-5.5,25,112.145,42.4238,-154.524,18.2924,79.5597,12.5221,
2026_06_09_15_16_14.297,3.763,29.9,0,0.757,0,0,0,0, ,0,0,0,0,0, ,999.7,5.8,47.9,3.3,3,-4.9,25,93.2541,43.5653,-132.557,17.9183,77.9501,12.6605,
2026_06_09_15_16_14.317,3.763,29.8,0,0.758,0,0,0,0, ,0,0,0,0,0, ,989.8,4.3,41.5,1,2.1,-3.9,25,74.5751,44.3723,-110.975,17.4106,76.0058,12.7689,
2026_06_09_15_16_14.337,3.763,29.8,0,0.757,0,0,0,0, ,0,0,0,0,0, ,985.4,5.3,38.5,0.6,2,-4.1,25,56.094,44.9087,-90.1355,16.7757,73.7578,12.8288,
2026_06_09_15_16_14.356,3.763,29.9,0,0.757,0,0,0,0, ,0,0,0,0,0, ,995.8,10.2,39.5,1.3,1.8,-4.6,25,38.3899,45.3423,-69.9226,16.0967,71.2492,12.8053,
2026_06_09_15_16_14.376,3.763,29.9,0,0.758,0,0,0,0, ,0,0,0,0,0, ,1003.7,8.1,44.1,1.9,1.9,-3.9,25,21.8137,45.5997,-50.2191,15.4035,68.51,12.7247,
2026_06_09_15_16_14.396,3.763,29.8,0,0.754,0,0,0,0, ,0,0,0,0,0, ,989.9,10.6,46.3,0.9,1.9,-2.9,25,5.79821,45.6297,-31.0677,14.6586,65.57,12.6271,
2026_06_09_15_16_14.416,3.763,29.8,0,0.757,0,0,0,0, ,0,0,0,0,0, ,990.2,11.5,43.5,0.5,1.8,-3.3,25,-9.79143,45.5166,-12.7172,13.8436,62.4486,12.4867,
2026_06_09_15_16_14.436,3.763,29.9,0,0.758,0,0,0,0, ,0,0,0,0,0, ,994.9,15.1,42.6,0.8,1.7,-3.3,25,-24.4456,45.2951,4.70535,12.9979,59.1675,12.2819,
2026_06_09_15_16_14.455,3.763,29.9,0,0.758,0,0,0,0, ,0,0,0,0,0, ,996.8,10.2,49.4,1.4,1.5,-2.8,25,-38.0989,44.8294,21.3949,12.1518,55.7485,12.0388,
2026_06_09_15_16_14.476,3.763,29.8,0,0.757,0,0,0,0, ,0,0,0,0,0, ,986.6,9.7,54.8,0.7,0.8,-3.4,25,-51.0982,44.0332,37.4597,11.2847,52.2003,11.7459,
2026_06_09_15_16_14.495,3.763,29.9,0,0.758,0,0,0,0, ,0,0,0,0,0, ,987.1,7.9,56.1,0.1,-0.6,-3.4,25,-63.4461,43.0026,52.7163,10.3728,48.5174,11.3948,
2026_06_09_15_16_14.515,3.763,29.8,0,0.758,0,0,0,0, ,0,0,0,0,0, ,995.1,6.8,45.7,-0.2,-0.7,-3.1,25,-74.6673,41.7395,66.7417,9.4323,44.7392,11.0121,
2026_06_09_15_16_14.535,3.763,29.8,0,0.759,0,0,0,0, ,0,0,0,0,0, ,994.3,11.9,36.9,0.1,-0.6,-2.3,25,-84.7936,40.4307,79.2795,8.49149,40.9258,10.6208,
2026_06_09_15_16_14.555,3.763,29.7,0,0.757,0,0,0,0, ,0,0,0,0,0, ,992.1,11.5,45,0.7,-0.4,-1.9,25,-94.079,39.1022,90.7946,7.57704,37.1051,10.2258,
2026_06_09_15_16_14.575,3.763,29.9,0,0.76,0,0,0,0, ,0,0,0,0,0, ,987.6,11.9,47.4,0.8,-0.8,-1.9,25,-102.61,37.646,101.555,6.68725,33.284,9.80965,
2026_06_09_15_16_14.594,3.763,29.8,0,0.756,0,0,0,0, ,0,0,0,0,0, ,989.8,14.5,45.2,0.2,-1,-2.5,25,-110.273,36.1494,111.292,5.79589,29.4716,9.35081,
2026_06_09_15_16_14.614,3.763,29.8,0,0.759,0,0,0,0, ,0,0,0,0,0, ,997.3,14.5,39,0.3,-0.1,-2.5,25,-116.778,34.6117,119.797,4.90742,25.718,8.85368,
2026_06_09_15_16_14.634,3.763,29.9,0,0.757,0,0,0,0, ,0,0,0,0,0, ,996.3,12.8,44.3,0.7,0.2,-1.9,25,-122.23,32.9372,127.272,4.0506,22.0512,8.35201,
2026_06_09_15_16_14.656,3.763,29.9,0,0.758,0,0,0,0, ,0,0,0,0,0, ,988.5,12,41.1,0.5,1,-1.6,25,-127.028,31.1211,133.805,3.22074,18.4826,7.85584,
2026_06_09_15_16_14.673,3.763,29.8,0,0.758,0,0,0,0, ,0,0,0,0,0, ,986.9,11.8,39.7,0.4,1.2,-1.8,25,-131.195,29.2163,139.246,2.40835,15.0224,7.34775,
2026_06_09_15_16_14.693,3.763,29.8,0,0.758,0,0,0,0, ,0,0,0,0,0, ,987.5,17.8,46.5,0.7,0.7,-2.3,25,-134.536,27.4031,143.866,1.62884,11.6505,6.8112,
2026_06_09_15_16_14.713,3.763,29.9,0,0.758,0,0,0,0, ,0,0,0,0,0, ,991.9,9.2,60,0.7,0.1,-2.1,25,-136.927,25.48,148.048,0.886882,8.35959,6.26004,
2026_06_09_15_16_14.733,3.763,29.7,0,0.757,0,0,0,0, ,0,0,0,0,0, ,989.5,13.1,59.8,-0.1,-0.9,-2.2,25,-138.477,23.4104,151.621,0.157328,5.14964,5.70752,
2026_06_09_15_16_14.753,3.763,29.8,0,0.758,0,0,0,0, ,0,0,0,0,0, ,986.2,12.5,54.9,-0.8,-2.7,-2.3,25,-139.408,21.4079,154.147,-0.574003,2.00308,5.14905,
2026_06_09_15_16_14.773,3.763,29.8,0,0.757,0,0,0,0, ,0,0,0,0,0, ,996.8,14.1,42.2,-0.8,-2.5,-2,25,-139.428,19.4225,155.358,-1.2838,-1.03827,4.59751,
2026_06_09_15_16_14.792,3.763,29.7,0,0.757,0,0,0,0, ,0,0,0,0,0, ,999,15.9,29.1,-0.5,-1.2,-1.5,25,-138.446,17.5223,155.111,-1.94511,-3.88856,4.06997,
2026_06_09_15_16_14.813,3.763,29.8,0,0.757,0,0,0,0, ,0,0,0,0,0, ,992.9,15,33.8,0,0.5,-1.7,25,-136.925,15.6509,153.906,-2.54478,-6.50634,3.55561,
2026_06_09_15_16_14.832,3.763,29.9,0,0.758,0,0,0,0, ,0,0,0,0,0, ,989.8,14.6,40.1,0.1,1,-2,25,-135.029,13.7623,152.271,-3.08779,-8.90972,3.03668,
2026_06_09_15_16_14.852,3.763,29.7,0,0.757,0,0,0,0, ,0,0,0,0,0, ,991.4,14.8,41.3,0.5,1.7,-2.2,25,-132.598,11.8935,150.15,-3.57669,-11.1219,2.51598,
2026_06_09_15_16_14.871,3.763,29.9,0,0.756,0,0,0,0, ,0,0,0,0,0, ,993.2,11.9,48.9,0.9,1.6,-1.9,25,-129.549,9.99164,147.608,-4.00436,-13.1561,2.01087,
2026_06_09_15_16_14.891,3.763,29.7,0,0.758,0,0,0,0, ,0,0,0,0,0, ,988.1,13.9,57,1.1,1.2,-1.7,25,-126.093,8.11171,144.849,-4.37662,-15.0379,1.53288,
2026_06_09_15_16_14.912,3.763,29.9,0,0.758,0,0,0,0, ,0,0,0,0,0, ,986.9,15.8,55.5,0.2,0.4,-2,25,-122.338,6.37963,141.673,-4.72621,-16.7827,1.06833,
2026_06_09_15_16_14.931,3.763,29.6,0,0.758,0,0,0,0, ,0,0,0,0,0, ,991.2,16.1,52.3,-0.2,-0.1,-2.3,25,-118.089,4.75501,137.839,-5.06724,-18.3912,0.606582,
2026_06_09_15_16_14.950,3.763,29.8,0,0.757,0,0,0,0, ,0,0,0,0,0, ,996.5,17.3,48.7,-0.2,0,-1.9,25,-113.231,3.22341,133.348,-5.37639,-19.8399,0.166943,
2026_06_09_15_16_14.970,3.763,29.7,0,0.758,0,0,0,0, ,0,0,0,0,0, ,990.8,14.8,45.8,0,0,-1.4,25,-108.063,1.71917,128.26,-5.63897,-21.1173,-0.229888,
2026_06_09_15_16_14.990,3.763,29.8,0,0.757,0,0,0,0, ,0,0,0,0,0, ,986.9,15.6,45.2,0.1,0,-2,25,-102.852,0.238533,122.704,-5.85353,-22.2281,-0.608577,
2026_06_09_15_16_15.010,3.763,29.7,0,0.758,0,0,0,0, ,0,0,0,0,0, ,994,15.8,47.4,0,0,-2.1,25,-97.3101,-1.14614,116.854,-6.02872,-23.1748,-0.982859,
2026_06_09_15_16_15.030,3.763,29.6,0,0.758,0,0,0,0, ,0,0,0,0,0, ,993.2,16.7,56,0.1,0.3,-2.2,25,-91.4063,-2.43028,110.981,-6.1656,-23.9535,-1.33885,
2026_06_09_15_16_15.050,3.763,29.7,0,0.757,0,0,0,0, ,0,0,0,0,0, ,988.5,14.8,58.7,-0.2,-0.5,-1.9,25,-85.4765,-3.66399,105.125,-6.27029,-24.5882,-1.66587,
2026_06_09_15_16_15.070,3.763,29.7,0,0.758,0,0,0,0, ,0,0,0,0,0, ,989.2,19,50.5,-1,-1.2,-1.8,25,-79.5143,-4.76273,98.9043,-6.36592,-25.1074,-1.95884,
2026_06_09_15_16_15.090,3.763,29.8,0,0.757,0,0,0,0, ,0,0,0,0,0, ,993.5,14.2,39.4,-0.8,-1,-1.6,25,-73.3301,-5.79883,92.0276,-6.44019,-25.4897,-2.22043,
2026_06_09_15_16_15.110,3.763,29.7,0,0.758,0,0,0,0, ,0,0,0,0,0, ,985.3,12.5,35.5,-0.1,-0.1,-1.5,25,-67.1834,-6.91493,84.6669,-6.45702,-25.7006,-2.45089,
2026_06_09_15_16_15.129,3.763,29.9,0,0.757,0,0,0,0, ,0,0,0,0,0, ,987.4,15.2,51,0.1,-0.2,-1.8,25,-61.1566,-7.91769,77.5342,-6.41913,-25.7549,-2.66288,
2026_06_09_15_16_15.149,3.763,29.7,0,0.759,0,0,0,0, ,0,0,0,0,0, ,987.9,17.7,55.6,-0.2,-0.6,-1.8,25,-55.0602,-8.70474,70.8622,-6.35391,-25.6919,-2.8587,
2026_06_09_15_16_15.169,3.763,29.7,0,0.758,0,0,0,0, ,0,0,0,0,0, ,1000,21.7,45.6,-0.8,-0.4,-2.8,25,-48.6826,-9.2509,64.0358,-6.28265,-25.5102,-3.05535,
2026_06_09_15_16_15.188,3.763,29.7,0,0.757,0,0,0,0, ,0,0,0,0,0, ,1004.5,19.5,40.7,-0.2,1.1,-1.8,25,-41.9707,-9.68055,56.8631,-6.18392,-25.1701,-3.2273,
2026_06_09_15_16_15.208,3.763,29.7,0,0.757,0,0,0,0, ,0,0,0,0,0, ,990.2,17,48.2,0.2,1.8,-1.1,25,-35.6214,-10.1567,49.8258,-6.03504,-24.6686,-3.33322,
2026_06_09_15_16_15.228,3.763,29.6,0,0.758,0,0,0,0, ,0,0,0,0,0, ,983.3,15.9,56.5,-0.3,1.1,-1.6,25,-29.9279,-10.6477,43.2755,-5.86616,-24.0702,-3.41262,
2026_06_09_15_16_15.248,3.763,29.7,0,0.758,0,0,0,0, ,0,0,0,0,0, ,990.2,16.7,47.8,-0.6,0.5,-2.4,25,-24.366,-11.0694,36.8233,-5.69628,-23.4143,-3.50318,
2026_06_09_15_16_15.267,3.763,29.6,0,0.757,0,0,0,0, ,0,0,0,0,0, ,994.6,17.5,46.6,-0.1,1,-2.2,25,-18.6798,-11.3768,30.2634,-5.50175,-22.6777,-3.58675,
2026_06_09_15_16_15.288,3.763,29.6,0,0.757,0,0,0,0, ,0,0,0,0,0, ,993.2,15.9,50.2,0,1.5,-2.1,25,-13.1068,-11.6326,23.9348,-5.27493,-21.841,-3.64119,
2026_06_09_15_16_15.307,3.763,29.8,0,0.757,0,0,0,0, ,0,0,0,0,0, ,991,15.7,45.4,0.3,2,-1.5,25,-7.83085,-11.8626,17.7693,-5.02343,-20.9131,-3.65785,
2026_06_09_15_16_15.333,3.763,29.7,0,0.758,0,0,0,0, ,0,0,0,0,0, ,987.9,19.1,56.3,0.5,1.8,-2,25,-2.905,-11.9445,11.9681,-4.74725,-19.9203,-3.65321,
2026_06_09_15_16_15.346,3.763,29.6,0,0.758,0,0,0,0, ,0,0,0,0,0, ,991.5,17.9,56,0.2,1.4,-2.3,25,1.80586,-11.9095,6.65243,-4.46367,-18.8927,-3.65042,
2026_06_09_15_16_15.367,3.763,29.7,0,0.757,0,0,0,0, ,0,0,0,0,0, ,988.1,18,53.9,0.6,1.8,-2.4,25,6.28168,-11.8445,1.50579,-4.16955,-17.8224,-3.63958,
2026_06_09_15_16_15.386,3.763,29.7,0,0.757,0,0,0,0, ,0,0,0,0,0, ,986.4,18.4,59.2,0.4,0.7,-2.7,25,10.382,-11.7121,-3.31739,-3.8644,-16.7339,-3.62114,
2026_06_09_15_16_15.406,3.763,29.6,0,0.757,0,0,0,0, ,0,0,0,0,0, ,989.7,19.5,60.1,0.2,0,-2.9,25,14.2692,-11.4916,-7.73565,-3.56497,-15.6605,-3.59802,
2026_06_09_15_16_15.426,3.763,29.6,0,0.757,0,0,0,0, ,0,0,0,0,0, ,997.5,21.4,56.2,-0.2,0,-2.8,25,18.1677,-11.1518,-11.9727,-3.27738,-14.5797,-3.56076,
2026_06_09_15_16_15.445,3.763,29.6,0,0.757,0,0,0,0, ,0,0,0,0,0, ,995.4,20.5,54.4,0,0.4,-2.5,25,21.9253,-10.7492,-16.0826,-2.99264,-13.4703,-3.49796,
2026_06_09_15_16_15.471,3.763,29.6,0,0.758,0,0,0,0, ,0,0,0,0,0, ,984.1,17.8,54.9,0.1,0.6,-2.5,25,25.0619,-10.4016,-19.9437,-2.69977,-12.3341,-3.41365,
2026_06_09_15_16_15.485,3.763,29.6,0,0.758,0,0,0,0, ,0,0,0,0,0, ,986.8,18.6,57.8,0,-0.2,-2.9,25,27.7103,-10.0663,-23.4337,-2.40795,-11.2076,-3.32646,
2026_06_09_15_16_15.505,3.763,29.6,0,0.756,0,0,0,0, ,0,0,0,0,0, ,1000.4,20.7,56.7,0,0,-2.5,25,30.4919,-9.62684,-26.5929,-2.12103,-10.0959,-3.22715,
2026_06_09_15_16_15.525,3.763,29.6,0,0.758,0,0,0,0, ,0,0,0,0,0, ,991.2,24,56.1,0,0.1,-1.9,25,33.0948,-9.02904,-29.5078,-1.83772,-8.98154,-3.09229,
2026_06_09_15_16_15.545,3.763,29.7,0,0.757,0,0,0,0, ,0,0,0,0,0, ,986.9,19.6,57,-0.3,-0.1,-2.3,25,35.0758,-8.44303,-32.127,-1.56661,-7.88003,-2.9439,
2026_06_09_15_16_15.564,3.763,29.6,0,0.758,0,0,0,0, ,0,0,0,0,0, ,989,19.2,49.8,-0.5,0,-2.5,25,36.7329,-7.96185,-34.6139,-1.31334,-6.79616,-2.80299,
2026_06_09_15_16_15.585,3.763,29.6,0,0.758,0,0,0,0, ,0,0,0,0,0, ,992.1,23.3,56.1,-0.2,0.3,-2.7,25,38.2552,-7.37431,-36.8303,-1.06356,-5.72215,-2.66498,
2026_06_09_15_16_15.608,3.763,29.6,0,0.758,0,0,0,0, ,0,0,0,0,0, ,995.4,23.8,64.4,-0.1,0.2,-2.5,25,39.6712,-6.66643,-38.3985,-0.810986,-4.6677,-2.52061,
2026_06_09_15_16_15.624,3.763,29.6,0,0.757,0,0,0,0, ,0,0,0,0,0, ,991.6,21.9,57.7,-0.5,0,-2.2,25,40.81,-5.99475,-39.6613,-0.574156,-3.64932,-2.35864,
2026_06_09_15_16_15.644,3.763,29.6,0,0.757,0,0,0,0, ,0,0,0,0,0, ,990.2,19.7,53.4,-0.2,-0.1,-1.8,25,41.5644,-5.42701,-40.9364,-0.348563,-2.67025,-2.17582,
2026_06_09_15_16_15.663,3.763,29.6,0,0.758,0,0,0,0, ,0,0,0,0,0, ,988.4,19.7,54.9,0,0,-1.5,25,41.9984,-4.91431,-42.0159,-0.120056,-1.72605,-1.97408,
2026_06_09_15_16_15.684,3.763,29.6,0,0.758,0,0,0,0.001, ,0,0,0,0,0, ,988.1,21.4,54.6,0,0.1,-1.8,25,42.1527,-4.36085,-42.806,0.102741,-0.814735,-1.7725,
2026_06_09_15_16_15.703,3.763,29.6,0,0.757,0,0,0,0.001, ,0,0,0,0,0, ,990.2,22.5,55.5,-0.2,0.2,-2,25,42.1358,-3.74438,-43.3317,0.309201,0.0608022,-1.58434,
2026_06_09_15_16_15.723,3.763,29.6,0,0.756,0,0,0,0.001, ,0,0,0,0,0, ,993.1,24.2,56.1,0,0.6,-2,25,42.0346,-3.07103,-43.5812,0.504011,0.905362,-1.4025,
2026_06_09_15_16_15.746,3.763,29.6,0,0.757,0,0,0,0.001, ,0,0,0,0,0, ,989.8,22.4,62.3,-0.1,0.3,-1.7,25,41.7215,-2.41802,-43.437,0.689235,1.70649,-1.2153,
2026_06_09_15_16_15.762,3.763,29.6,0,0.758,0,0,0,0.001, ,0,0,0,0,0, ,989.9,26.3,60.6,-0.3,-0.1,-2.3,25,41.1397,-1.73363,-42.9754,0.854622,2.44276,-1.03866,
2026_06_09_15_16_15.783,3.763,29.4,0,0.756,0,0,0,0.001, ,0,0,0,0,0, ,993.7,26,67.9,-0.9,-0.6,-2.5,25,40.4792,-0.985974,-42.1874,0.988069,3.1088,-0.885181,
2026_06_09_15_16_15.802,3.763,29.6,0,0.758,0,0,0,0.002, ,0,0,0,0,0, ,990.8,22.5,60.7,-1.5,-1,-2.4,25,39.6738,-0.363312,-41.2276,1.08068,3.7048,-0.737316,
2026_06_09_15_16_15.822,3.763,29.5,0,0.758,0,0,0,0.001, ,0,0,0,0,0, ,989.6,20,54.1,-1.4,-0.9,-2.3,25,38.6117,0.083473,-40.4501,1.15115,4.24594,-0.588166,
2026_06_09_15_16_15.842,3.763,29.6,0,0.756,0,0,0,0.002, ,0,0,0,0,0, ,989.9,22.3,47.8,-0.7,-0.3,-2.4,25,37.3894,0.503031,-39.8278,1.23212,4.75679,-0.443431,
2026_06_09_15_16_15.862,3.763,29.6,0,0.756,0,0,0,0.001, ,0,0,0,0,0, ,991.6,23.9,56,-0.2,0,-2.4,25,36.0918,0.995167,-38.9931,1.33247,5.24121,-0.306062,
2026_06_09_15_16_15.881,3.763,29.6,0,0.758,0,0,0,0.001, ,0,0,0,0,0, ,995.2,24.7,58.2,-0.1,0,-2.3,25,34.81,1.51711,-37.7521,1.43604,5.6834,-0.171469,
2026_06_09_15_16_15.901,3.763,29.6,0,0.758,0,0,0,0.001, ,0,0,0,0,0, ,990.4,23.3,60.7,-0.3,0.2,-1.9,25,33.39,1.99127,-36.2707,1.52501,6.0808,-0.0303707,
2026_06_09_15_16_15.921,3.763,29.5,0,0.759,0,0,0,0.001, ,0,0,0,0,0, ,988,26.6,58.5,-0.5,0,-1.9,25,31.6986,2.47896,-34.6758,1.59228,6.42874,0.113766,
2026_06_09_15_16_15.941,3.763,29.6,0,0.757,0,0,0,0.002, ,0,0,0,0,0, ,991.3,28.9,62.2,-0.7,-0.2,-2.6,25,29.956,3.06783,-32.9515,1.63861,6.71813,0.233107,
2026_06_09_15_16_15.960,3.763,29.5,0,0.757,0,0,0,0.001, ,0,0,0,0,0, ,994.9,26.4,60.5,-1,-0.4,-2.6,25,28.3204,3.60779,-31.1003,1.66232,6.9504,0.328282,
2026_06_09_15_16_15.980,3.763,29.5,0,0.759,0,0,0,0.002, ,0,0,0,0,0, ,989.1,23.3,59.2,-0.7,-1.1,-1.9,25,26.5715,3.96618,-29.2602,1.67668,7.11496,0.434336,
2026_06_09_15_16_16.000,3.763,29.5,0,0.757,0,0,0,0.002, ,0,0,0,0,0, ,986,23.5,59.2,-0.9,-1.7,-1.9,25,24.5591,4.21632,-27.398,1.68452,7.20451,0.550214,
2026_06_09_15_16_16.019,3.763,29.6,0,0.758,0,0,0,0.002, ,0,0,0,0,0, ,991.9,23.6,51.1,-0.7,-1.1,-2.1,25,22.5931,4.44078,-25.6907,1.68368,7.25416,0.652793,
2026_06_09_15_16_16.039,3.763,29.6,0,0.758,0,0,0,0.001, ,0,0,0,0,0, ,993.7,28.1,57.2,-0.2,-0.9,-2.1,25,20.801,4.74514,-23.9896,1.69174,7.28524,0.742219,
2026_06_09_15_16_16.059,3.763,29.6,0,0.757,0,0,0,0.001, ,0,0,0,0,0, ,988.5,28.4,62.6,-0.7,-1.4,-2.3,25,18.9109,5.1289,-21.9717,1.69108,7.27154,0.818698,
2026_06_09_15_16_16.079,3.763,29.5,0,0.757,0,0,0,0.001, ,0,0,0,0,0, ,991.9,25,55.5,-1.2,-1.7,-2.2,25,16.9762,5.39254,-19.9862,1.65759,7.20306,0.884939,
2026_06_09_15_16_16.099,3.763,29.4,0,0.758,0,0,0,0.002, ,0,0,0,0,0, ,992,25.8,48.9,-0.5,-1.1,-1.7,25,15.1385,5.55292,-18.3354,1.62247,7.10979,0.958283,
2026_06_09_15_16_16.119,3.763,29.5,0,0.758,0,0,0,0.003, ,0,0,0,0,0, ,987.7,24.2,53.4,-0.1,-0.6,-1.8,25,13.2133,5.65845,-16.7268,1.60806,7.01303,1.03312,
2026_06_09_15_16_16.138,3.763,29.5,0,0.757,0,0,0,0.002, ,0,0,0,0,0, ,991,26.6,54.9,-0.4,-0.4,-2,25,11.2929,5.75053,-14.9675,1.58888,6.90362,1.09183,
2026_06_09_15_16_16.161,3.763,29.5,0,0.759,0,0,0,0.002, ,0,0,0,0,0, ,992.6,28.3,52.7,-0.5,-0.3,-1.9,25,9.53117,5.9103,-13.2379,1.553,6.77291,1.13983,
2026_06_09_15_16_16.178,3.763,29.6,0,0.758,0,0,0,0.002, ,0,0,0,0,0, ,991.3,26.4,56.3,-0.4,-0.3,-1.8,25,7.81624,6.0282,-11.4936,1.51123,6.61768,1.18477,
2026_06_09_15_16_16.198,3.763,29.4,0,0.758,0,0,0,0.002, ,0,0,0,0,0, ,988.8,26.4,53.1,-0.3,-0.1,-1.9,25,6.05371,6.06401,-9.76831,1.46897,6.44236,1.22166,
2026_06_09_15_16_16.218,3.763,29.5,0,0.758,0,0,0,0.003, ,0,0,0,0,0, ,993.6,27.8,57.4,0,-0.1,-2,25,4.40419,6.10252,-8.05254,1.43134,6.24878,1.24582,
2026_06_09_15_16_16.237,3.763,29.5,0,0.758,0,0,0,0.003, ,0,0,0,0,0, ,989.3,27.5,64.6,-0.3,-0.6,-1.8,25,2.82612,6.13604,-6.09925,1.38851,6.02165,1.2651,
2026_06_09_15_16_16.257,3.763,29.5,0,0.757,0,0,0,0.003, ,0,0,0,0,0, ,985.5,27.3,61.4,-1.1,-1.3,-2.3,25,1.11289,6.12541,-4.1136,1.31396,5.74655,1.26985,
2026_06_09_15_16_16.277,3.763,29.5,0,0.758,0,0,0,0.003, ,0,0,0,0,0, ,988.6,26.9,52.7,-1.2,-1.2,-2.6,25,-0.538966,6.0704,-2.49687,1.21452,5.44191,1.24849,
2026_06_09_15_16_16.302,3.763,29.5,0,0.757,0,0,0,0.003, ,0,0,0,0,0, ,991.6,28,48.9,-0.8,-0.7,-2.9,25,-1.95757,6.00534,-1.25364,1.12133,5.14011,1.20731,
2026_06_09_15_16_16.317,3.763,29.5,0,0.758,0,0,0,0.003, ,0,0,0,0,0, ,993.8,31.2,53.7,-0.5,-0.4,-2.7,25,-3.16945,6.01931,-0.0406842,1.04435,4.84739,1.15975,
2026_06_09_15_16_16.336,3.763,29.5,0,0.757,0,0,0,0.003, ,0,0,0,0,0, ,994.1,30.3,54.3,-0.5,0.4,-2.6,25,-4.24496,6.05934,1.2454,0.973354,4.57211,1.11617,
2026_06_09_15_16_16.356,3.763,29.4,0,0.756,0,0,0,0.003, ,0,0,0,0,0, ,992.9,28.4,52,-0.3,0.5,-2.2,25,-5.26888,5.99888,2.42059,0.905947,4.30987,1.08148,
2026_06_09_15_16_16.376,3.763,29.5,0,0.758,0,0,0,0.004, ,0,0,0,0,0, ,987.5,28.1,57.9,-0.2,0.3,-2,25,-6.37845,5.85787,3.61449,0.844738,4.0368,1.05787,
2026_06_09_15_16_16.396,3.763,29.5,0,0.758,0,0,0,0.003, ,0,0,0,0,0, ,989.6,28.1,56.3,-0.2,0.1,-1.8,25,-7.4831,5.68755,4.83746,0.78482,3.74742,1.04002,
2026_06_09_15_16_16.416,3.763,29.5,0,0.757,0,0,0,0.003, ,0,0,0,0,0, ,991,30.5,54.6,0,0.3,-2,25,-8.41086,5.55641,5.8957,0.728877,3.45376,1.01792,
2026_06_09_15_16_16.436,3.763,29.5,0,0.759,0,0,0,0.003, ,0,0,0,0,0, ,991.9,31.2,57.6,-0.1,0.5,-2.2,25,-9.19528,5.48033,6.90486,0.674537,3.16729,0.982073,
2026_06_09_15_16_16.455,3.763,29.5,0,0.757,0,0,0,0.003, ,0,0,0,0,0, ,991.8,29.2,55.7,0,1.1,-2.2,25,-9.87629,5.3491,7.85747,0.619538,2.89888,0.938242,
2026_06_09_15_16_16.475,3.763,29.5,0,0.756,0,0,0,0.003, ,0,0,0,0,0, ,992,31.3,55.1,0,0.8,-2.1,25,-10.4728,5.20039,8.66334,0.566635,2.6367,0.89439,
2026_06_09_15_16_16.495,3.763,29.5,0,0.757,0,0,0,0.003, ,0,0,0,0,0, ,994,32.5,58.9,-0.2,0.6,-2.1,25,-10.9344,5.11427,9.46545,0.50863,2.36212,0.850733,
2026_06_09_15_16_16.515,3.763,29.4,0,0.758,0,0,0,0.003, ,0,0,0,0,0, ,989.2,27.2,54.9,-0.2,0.6,-2.1,25,-11.3882,4.90663,10.1767,0.446059,2.08447,0.805024,
2026_06_09_15_16_16.535,3.763,29.4,0,0.757,0,0,0,0.004, ,0,0,0,0,0, ,988,26.4,56.3,-0.1,0.7,-2,25,-11.9108,4.53541,10.7391,0.38681,1.81261,0.760042,
2026_06_09_15_16_16.554,3.763,29.5,0,0.758,0,0,0,0.004, ,0,0,0,0,0, ,990.1,27.8,57.8,0.1,0.5,-1.8,25,-12.327,4.17476,11.2922,0.335918,1.5427,0.720876,
2026_06_09_15_16_16.579,3.763,29.5,0,0.757,0,0,0,0.003, ,0,0,0,0,0, ,990.9,32.8,62.8,0,0.1,-2,25,-12.5908,3.96816,11.9218,0.288317,1.26371,0.680079,
2026_06_09_15_16_16.594,3.763,29.5,0,0.757,0,0,0,0.004, ,0,0,0,0,0, ,995.7,32.7,57.6,-0.1,0.2,-1.8,25,-12.6424,3.87229,12.4569,0.236727,0.984817,0.637931,
2026_06_09_15_16_16.613,3.763,29.5,0,0.758,0,0,0,0.004, ,0,0,0,0,0, ,988.4,31.8,58.4,0,0.5,-1.6,25,-12.6904,3.73751,12.7965,0.186499,0.724558,0.604515,
2026_06_09_15_16_16.633,3.763,29.4,0,0.757,0,0,0,0.004, ,0,0,0,0,0, ,987.6,31.9,62.1,-0.4,0.2,-2.1,25,-12.8722,3.57131,13.1667,0.130459,0.473493,0.562402,
2026_06_09_15_16_16.653,3.763,29.4,0,0.758,0,0,0,0.004, ,0,0,0,0,0, ,995.6,33.9,63.2,-0.6,0,-2,25,-12.8051,3.44716,13.5716,0.0618121,0.220147,0.509773,
2026_06_09_15_16_16.673,3.763,29.4,0,0.758,0,0,0,0.005, ,0,0,0,0,0, ,992.9,31.4,62.5,-0.5,0,-1.8,25,-12.5481,3.29984,13.8995,-0.00622522,-0.0267642,0.46457,
2026_06_09_15_16_16.693,3.763,29.4,0,0.758,0,0,0,0.005, ,0,0,0,0,0, ,986.4,30.5,60.1,-0.5,-0.5,-1.8,25,-12.4676,3.06012,14.0669,-0.068443,-0.273695,0.424199,
2026_06_09_15_16_16.719,3.763,29.5,0,0.757,0,0,0,0.005, ,0,0,0,0,0, ,990.1,31.7,63.5,-0.6,-0.6,-1.9,25,-12.3982,2.82442,14.1812,-0.129724,-0.521879,0.381265,
2026_06_09_15_16_16.733,3.763,29.5,0,0.757,0,0,0,0.004, ,0,0,0,0,0, ,987.7,27.7,56.7,-0.7,-0.9,-1.8,25,-12.2392,2.51771,14.1367,-0.192265,-0.765128,0.338558,
2026_06_09_15_16_16.752,3.763,29.4,0,0.759,0,0,0,0.004, ,0,0,0,0,0, ,989.1,30.5,61.1,-0.5,-1,-1.9,25,-12.0522,2.1842,13.9658,-0.248339,-1.00249,0.296276,
2026_06_09_15_16_16.771,3.763,29.5,0,0.759,0,0,0,0.005, ,0,0,0,0,0, ,991.6,32.1,62.9,-0.8,-1.2,-2,25,-11.7194,1.96418,13.8865,-0.302891,-1.23062,0.249704,
2026_06_09_15_16_16.792,3.763,29.4,0,0.758,0,0,0,0.004, ,0,0,0,0,0, ,993.1,34,56.5,-0.6,-0.8,-1.8,25,-11.247,1.8311,13.6299,-0.355727,-1.43659,0.206638,
2026_06_09_15_16_16.812,3.763,29.5,0,0.757,0,0,0,0.005, ,0,0,0,0,0, ,989.1,31.2,52.7,-0.3,-0.3,-1.8,25,-10.8037,1.67345,13.0685,-0.391958,-1.60332,0.169569,
2026_06_09_15_16_16.832,3.763,29.4,0,0.758,0,0,0,0.004, ,0,0,0,0,0, ,990.8,32.3,57.2,0,0.1,-2,25,-10.3853,1.47359,12.4875,-0.409768,-1.73189,0.128578,
2026_06_09_15_16_16.851,3.763,29.5,0,0.758,0,0,0,0.005, ,0,0,0,0,0, ,990.4,31.1,64.9,-0.4,0,-1.7,25,-9.90437,1.27383,12.1725,-0.427136,-1.83827,0.0914167,
2026_06_09_15_16_16.871,3.763,29.4,0,0.759,0,0,0,0.004, ,0,0,0,0,0, ,990.9,31.9,61.7,-0.7,-0.4,-1.9,25,-9.39573,1.06777,11.9234,-0.458713,-1.94263,0.058079,
2026_06_09_15_16_16.891,3.763,29.4,0,0.757,0,0,0,0.005, ,0,0,0,0,0, ,990.3,30,56,-0.4,-0.3,-1.6,25,-8.86819,0.839589,11.4095,-0.486481,-2.03966,0.0285423,
2026_06_09_15_16_16.911,3.763,29.5,0,0.758,0,0,0,0.005, ,0,0,0,0,0, ,988.8,34.1,57.6,0,0,-1.8,25,-8.37432,0.672404,10.764,-0.493324,-2.11207,0.00276568,
2026_06_09_15_16_16.930,3.763,29.5,0,0.758,0,0,0,0.004, ,0,0,0,0,0, ,989,32.3,62.5,-0.2,-0.1,-1.9,25,-7.89527,0.566505,10.2565,-0.492496,-2.16561,-0.0291169,
2026_06_09_15_16_16.951,3.763,29.4,0,0.757,0,0,0,0.005, ,0,0,0,0,0, ,991.8,32.1,63.2,-0.4,-0.5,-1.9,25,-7.32724,0.413964,9.86068,-0.49909,-2.21812,-0.0617445,
2026_06_09_15_16_16.970,3.763,29.5,0,0.758,0,0,0,0.005, ,0,0,0,0,0, ,993.4,32.2,59.3,-0.4,-0.6,-1.8,25,-6.64307,0.264412,9.3572,-0.507806,-2.26938,-0.0900155,
2026_06_09_15_16_16.990,3.763,29.5,0,0.757,0,0,0,0.005, ,0,0,0,0,0, ,988.5,29.1,61.5,-0.2,-0.8,-1.3,25,-6.04062,0.0473262,8.79062,-0.508687,-2.3143,-0.101743,
2026_06_09_15_16_17.010,3.763,29.4,0,0.759,0,0,0,0.005, ,0,0,0,0,0, ,984.6,33.3,59,-0.2,-1.1,-1.7,25,-5.65375,-0.132372,8.20115,-0.502113,-2.35787,-0.109943,
2026_06_09_15_16_17.030,3.763,29.4,0,0.757,0,0,0,0.006, ,0,0,0,0,0, ,990.8,34,62.7,-0.7,-1.3,-2,25,-5.20159,-0.182449,7.62959,-0.505648,-2.39994,-0.134363,
2026_06_09_15_16_17.049,3.763,29.4,0,0.758,0,0,0,0.006, ,0,0,0,0,0, ,993.6,35.5,59.6,-0.9,-1.3,-2,25,-4.52527,-0.175224,7.06317,-0.523683,-2.43303,-0.16428,
2026_06_09_15_16_17.069,3.763,29.4,0,0.759,0,0,0,0.006, ,0,0,0,0,0, ,990.9,32.2,57.6,-1.1,-1.4,-2,25,-3.85737,-0.211628,6.36467,-0.548062,-2.45496,-0.19192,
2026_06_09_15_16_17.090,3.763,29.4,0,0.76,0,0,0,0.006, ,0,0,0,0,0, ,991.5,31.2,51.8,-0.8,-1,-1.9,25,-3.25471,-0.350647,5.47778,-0.566091,-2.45635,-0.214807,
2026_06_09_15_16_17.109,3.763,29.5,0,0.757,0,0,0,0.006, ,0,0,0,0,0, ,989.8,30.6,55.5,-0.3,-0.5,-1.7,25,-2.69254,-0.520354,4.55591,-0.560829,-2.4235,-0.228156,
2026_06_09_15_16_17.128,3.763,29.4,0,0.756,0,0,0,0.005, ,0,0,0,0,0, ,990.6,33.8,54.9,-0.5,-0.4,-1.8,25,-2.16674,-0.615418,3.7328,-0.545705,-2.36561,-0.237274,
2026_06_09_15_16_17.148,3.763,29.4,0,0.757,0,0,0,0.006, ,0,0,0,0,0, ,991.9,32.5,59,-0.3,-0.2,-1.8,25,-1.60455,-0.656195,3.0175,-0.528633,-2.29154,-0.247227,
2026_06_09_15_16_17.168,3.763,29.4,0,0.759,0,0,0,0.006, ,0,0,0,0,0, ,990.3,32.9,58.8,-0.6,-0.4,-1.9,25,-1.06938,-0.713809,2.41803,-0.512245,-2.20981,-0.257926,
2026_06_09_15_16_17.188,3.763,29.4,0,0.757,0,0,0,0.006, ,0,0,0,0,0, ,990.8,32.7,60.3,-0.6,-0.5,-1.8,25,-0.582163,-0.760174,1.86793,-0.501493,-2.12856,-0.266829,
2026_06_09_15_16_17.207,3.763,29.5,0,0.756,0,0,0,0.006, ,0,0,0,0,0, ,987.4,33.2,60.7,-0.6,-0.9,-1.6,25,-0.187083,-0.793163,1.3822,-0.488797,-2.05306,-0.266624,
2026_06_09_15_16_17.227,3.763,29.5,0,0.757,0,0,0,0.005, ,0,0,0,0,0, ,990.4,34,56,-0.7,-1,-1.8,25,0.179734,-0.788746,0.808025,-0.476767,-1.9834,-0.265115,
2026_06_09_15_16_17.248,3.763,29.4,0,0.757,0,0,0,0.005, ,0,0,0,0,0, ,995.7,34.3,50.7,-0.3,-0.3,-1.7,25,0.731205,-0.753686,0.0128163,-0.45562,-1.89268,-0.264826,
2026_06_09_15_16_17.267,3.763,29.4,0,0.757,0,0,0,0.006, ,0,0,0,0,0, ,989.2,32.9,54.4,-0.3,0,-1.5,25,1.2226,-0.743604,-0.782691,-0.423457,-1.77255,-0.255889,
2026_06_09_15_16_17.287,3.763,29.4,0,0.759,0,0,0,0.006, ,0,0,0,0,0, ,985.9,30.2,61.8,-0.4,-0.2,-1.8,25,1.44356,-0.830891,-1.26314,-0.393236,-1.64713,-0.248582,
2026_06_09_15_16_17.307,3.763,29.5,0,0.757,0,0,0,0.006, ,0,0,0,0,0, ,990.6,34.3,60.7,-0.6,-0.9,-1.9,25,1.6809,-0.875472,-1.55931,-0.369916,-1.54181,-0.250217,
2026_06_09_15_16_17.326,3.763,29.5,0,0.757,0,0,0,0.006, ,0,0,0,0,0, ,991.3,32.3,56.1,-0.8,-1.2,-1.5,25,2.03073,-0.862056,-1.97304,-0.355725,-1.45858,-0.243181,
2026_06_09_15_16_17.346,3.763,29.4,0,0.758,0,0,0,0.006, ,0,0,0,0,0, ,992.4,33.4,48.2,-0.6,-0.6,-1.6,25,2.39753,-0.867119,-2.66328,-0.340477,-1.36488,-0.227936,
2026_06_09_15_16_17.366,3.763,29.5,0,0.757,0,0,0,0.007, ,0,0,0,0,0, ,990.3,33.9,52.6,-0.2,0.1,-1.4,25,2.71001,-0.828426,-3.39237,-0.309586,-1.23718,-0.209863,
2026_06_09_15_16_17.386,3.763,29.4,0,0.758,0,0,0,0.006, ,0,0,0,0,0, ,989.1,35.2,57.1,-0.3,0.2,-1.8,25,2.91288,-0.743409,-3.85074,-0.271328,-1.09003,-0.196547,
2026_06_09_15_16_17.406,3.763,29.4,0,0.758,0,0,0,0.007, ,0,0,0,0,0, ,990.7,35.6,63.5,-0.8,-0.2,-1.9,25,3.10126,-0.617211,-4.00037,-0.248321,-0.952073,-0.195175,
2026_06_09_15_16_17.426,3.763,29.5,0,0.758,0,0,0,0.007, ,0,0,0,0,0, ,992.1,33.4,60.4,-0.9,-0.5,-1.9,25,3.33869,-0.5383,-4.04203,-0.239933,-0.833358,-0.195362,
2026_06_09_15_16_17.446,3.763,29.5,0,0.759,0,0,0,0.006, ,0,0,0,0,0, ,986.4,33,54.6,-0.8,-1,-1.8,25,3.44257,-0.524361,-4.27996,-0.230773,-0.735976,-0.192124,
2026_06_09_15_16_17.466,3.763,29.4,0,0.758,0,0,0,0.006, ,0,0,0,0,0, ,988.6,33.6,61,-0.6,-1.2,-1.8,25,3.43856,-0.503618,-4.47042,-0.213568,-0.656908,-0.185646,
2026_06_09_15_16_17.485,3.763,29.6,0,0.758,0,0,0,0.007, ,0,0,0,0,0, ,991.3,35.8,54.1,-0.9,-1.6,-2,25,3.53796,-0.41275,-4.64176,-0.198607,-0.593193,-0.183475,
2026_06_09_15_16_17.505,3.763,29.5,0,0.758,0,0,0,0.005, ,0,0,0,0,0, ,996.8,34.3,52.8,-0.5,-0.9,-1.9,25,3.81613,-0.307139,-4.98291,-0.180949,-0.522323,-0.182958,
2026_06_09_15_16_17.525,3.763,29.5,0,0.758,0,0,0,0.006, ,0,0,0,0,0, ,987.3,34.5,54.4,-0.9,-0.8,-2,25,3.96376,-0.237071,-5.27541,-0.163265,-0.432737,-0.181565,
2026_06_09_15_16_17.544,3.763,29.5,0,0.758,0,0,0,0.006, ,0,0,0,0,0, ,991.2,31.8,56.5,-0.8,-0.5,-2,25,3.94729,-0.230576,-5.43684,-0.153,-0.335603,-0.181798,
2026_06_09_15_16_17.564,3.763,29.5,0,0.757,0,0,0,0.006, ,0,0,0,0,0, ,987.6,33.5,55.1,-0.8,-0.7,-1.7,25,3.91954,-0.247785,-5.54639,-0.140033,-0.239127,-0.173767,
2026_06_09_15_16_17.585,3.763,29.4,0,0.756,0,0,0,0.006, ,0,0,0,0,0, ,990.7,35.2,56.1,-0.8,-1,-1.8,25,3.86157,-0.179555,-5.63304,-0.127011,-0.158465,-0.160369,
2026_06_09_15_16_17.604,3.763,29.5,0,0.758,0,0,0,0.007, ,0,0,0,0,0, ,988.6,33.3,52.1,-0.8,-0.8,-1.6,25,3.81193,-0.11869,-5.76124,-0.114002,-0.0834301,-0.144386,
2026_06_09_15_16_17.623,3.763,29.4,0,0.758,0,0,0,0.006, ,0,0,0,0,0, ,991.2,34.9,50.7,-0.6,-0.3,-1.9,25,3.7582,-0.0675822,-5.98719,-0.0961647,0.00550118,-0.130927,
2026_06_09_15_16_17.643,3.763,29.6,0,0.758,0,0,0,0.007, ,0,0,0,0,0, ,992.1,32.8,54.1,-0.6,0,-1.8,25,3.77442,-0.0309086,-6.1235,-0.073824,0.109661,-0.122387,
2026_06_09_15_16_17.663,3.763,29.5,0,0.758,0,0,0,0.006, ,0,0,0,0,0, ,988,34,57,-0.6,0,-1.9,25,3.69276,-0.0179507,-6.06846,-0.0522152,0.215529,-0.113663,
2026_06_09_15_16_17.683,3.763,29.5,0,0.758,0,0,0,0.007, ,0,0,0,0,0, ,994.8,32.9,54,-0.4,-0.2,-1.6,25,3.66312,-0.00308757,-5.98866,-0.0265044,0.310238,-0.0999025,
2026_06_09_15_16_17.703,3.763,29.5,0,0.756,0,0,0,0.007, ,0,0,0,0,0, ,991,35.5,56.8,-0.1,-0.2,-1.3,25,3.69045,0.0478442,-5.88817,0.0103368,0.393869,-0.0716113,
2026_06_09_15_16_17.723,3.763,29.5,0,0.758,0,0,0,0.007, ,0,0,0,0,0, ,988.4,35.5,62.1,-0.4,-1.1,-1.7,25,3.54131,0.159799,-5.56497,0.0453202,0.449388,-0.0468069,
2026_06_09_15_16_17.743,3.763,29.5,0,0.754,0,0,0,0.007, ,0,0,0,0,0, ,987.3,36,58.8,-0.6,-2.2,-1.8,25,3.2913,0.277735,-5.18114,0.0661038,0.450926,-0.0352491,
2026_06_09_15_16_17.763,3.763,29.5,0,0.757,0,0,0,0.007, ,0,0,0,0,0, ,997.9,34.3,52.6,-1,-2,-1.8,25,3.27028,0.359094,-5.02357,0.0708294,0.428097,-0.0265366,
2026_06_09_15_16_17.782,3.763,29.4,0,0.758,0,0,0,0.007, ,0,0,0,0,0, ,985.2,35.2,55.1,-0.2,-2.4,-1.4,25,3.18269,0.415075,-4.93969,0.0847828,0.399374,-0.00831195,
2026_06_09_15_16_17.802,3.763,29.5,0,0.757,0,0,0,0.008, ,0,0,0,0,0, ,986.4,36.4,55.2,-1,-1.9,-2,25,2.80171,0.51776,-4.77182,0.097634,0.372543,0.00415555,
2026_06_09_15_16_17.822,3.763,29.4,0,0.758,0,0,0,0.007, ,0,0,0,0,0, ,991.2,37.2,47.4,-1.4,-2.4,-2.3,25,2.57274,0.661901,-4.77749,0.0799479,0.345192,-0.00607832,
2026_06_09_15_16_17.841,3.763,29.5,0,0.759,0,0,0,0.008, ,0,0,0,0,0, ,994.9,35,51.3,-1.1,-1.3,-2.2,25,2.55074,0.761381,-4.85497,0.060283,0.332194,-0.0206847,
2026_06_09_15_16_17.862,3.763,29.5,0,0.757,0,0,0,0.007, ,0,0,0,0,0, ,991.9,33.3,46.1,-0.9,-0.7,-2.1,25,2.53443,0.756595,-4.9366,0.0535462,0.359883,-0.0295684,
2026_06_09_15_16_17.881,3.763,29.4,0,0.758,0,0,0,0.007, ,0,0,0,0,0, ,989.8,33.4,47.3,-0.5,-0.2,-1.9,25,2.38136,0.709081,-5.08798,0.0615889,0.411415,-0.0305142,
2026_06_09_15_16_17.901,3.763,29.5,0,0.758,0,0,0,0.008, ,0,0,0,0,0, ,989.7,35.7,47.7,-0.6,0.1,-2,25,2.17011,0.719254,-5.16763,0.0762901,0.478008,-0.0288112,
2026_06_09_15_16_17.920,3.763,29.5,0,0.758,0,0,0,0.007, ,0,0,0,0,0, ,993.6,35.1,49.9,-0.5,0.3,-2,25,2.05171,0.76707,-5.15415,0.0898943,0.551241,-0.0295018,
2026_06_09_15_16_17.940,3.763,29.5,0,0.758,0,0,0,0.007, ,0,0,0,0,0, ,989,34.4,53.9,-0.4,0.3,-1.7,25,1.91185,0.776883,-4.9639,0.107293,0.62307,-0.0226566,
2026_06_09_15_16_17.960,3.763,29.5,0,0.758,0,0,0,0.007, ,0,0,0,0,0, ,987.6,35.5,59.6,-0.6,-0.1,-2,25,1.62228,0.792195,-4.52066,0.120857,0.678497,-0.0160355,
2026_06_09_15_16_17.980,3.763,29.6,0,0.758,0,0,0,0.007, ,0,0,0,0,0, ,990.4,35.5,53.4,-0.8,-0.5,-2.1,25,1.37326,0.829825,-4.08913,0.123351,0.708245,-0.0194688,
2026_06_09_15_16_18.000,3.763,29.6,0,0.758,0,0,0,0.007, ,0,0,0,0,0, ,992,35.1,47.8,-0.5,-0.2,-2,25,1.23758,0.851711,-3.94797,0.127568,0.730591,-0.0226377,
2026_06_09_15_16_18.020,3.763,29.5,0,0.758,0,0,0,0.007, ,0,0,0,0,0, ,991.2,33.3,51.7,0,0,-1.5,25,1.12207,0.814379,-3.83596,0.150566,0.760501,-0.0108267,
2026_06_09_15_16_18.040,3.763,29.6,0,0.759,0,0,0,0.007, ,0,0,0,0,0, ,985.1,37.5,55.4,-0.3,-0.4,-1.6,25,0.83749,0.833716,-3.52418,0.176599,0.780292,0.0102671,
2026_06_09_15_16_18.059,3.763,29.6,0,0.758,0,0,0,0.007, ,0,0,0,0,0, ,998.4,39.9,52.6,-0.4,-0.1,-2.2,25,0.739299,1.00984,-3.18825,0.190676,0.792815,0.0131106,
2026_06_09_15_16_18.079,3.763,29.5,0,0.757,0,0,0,0.007, ,0,0,0,0,0, ,993.1,38.4,53.8,-0.6,-0.5,-1.9,25,0.838454,1.19442,-2.89232,0.195767,0.798364,0.0083936,
2026_06_09_15_16_18.099,3.763,29.5,0,0.756,0,0,0,0.008, ,0,0,0,0,0, ,987.4,32.9,54.9,-0.7,-0.9,-1.8,25,0.658875,1.1924,-2.54024,0.192286,0.78009,0.0136752,
2026_06_09_15_16_18.119,3.763,29.5,0,0.755,0,0,0,0.008, ,0,0,0,0,0, ,987.9,36,50.4,-0.9,-1.3,-1.9,25,0.357346,1.12576,-2.27629,0.180672,0.739249,0.0186304,
2026_06_09_15_16_18.138,3.763,29.5,0,0.758,0,0,0,0.008, ,0,0,0,0,0, ,997.5,37.1,47.7,-0.7,-0.9,-1.7,25,0.316511,1.15983,-2.19062,0.168737,0.696769,0.0257029,
2026_06_09_15_16_18.159,3.763,29.5,0,0.759,0,0,0,0.008, ,0,0,0,0,0, ,989.8,36.1,44.5,-0.7,0,-1.5,25,0.322709,1.18897,-2.24304,0.161461,0.684816,0.0421105,
2026_06_09_15_16_18.179,3.763,29.4,0,0.758,0,0,0,0.008, ,0,0,0,0,0, ,991,36.9,47.2,-0.3,0.7,-1.8,25,0.167622,1.20591,-2.29409,0.163554,0.709309,0.0550538,
2026_06_09_15_16_18.198,3.763,29.5,0,0.757,0,0,0,0.009, ,0,0,0,0,0, ,990.4,37.4,55.1,-0.5,0.9,-2,25,0.0340286,1.24795,-2.0714,0.169643,0.751174,0.0548301,
2026_06_09_15_16_18.218,3.763,29.5,0,0.758,0,0,0,0.008, ,0,0,0,0,0, ,993,37.4,54.1,-0.3,0.4,-1.8,25,-0.0441372,1.29405,-1.68022,0.174597,0.779928,0.0543472,
2026_06_09_15_16_18.238,3.763,29.5,0,0.757,0,0,0,0.008, ,0,0,0,0,0, ,986.3,34.7,56.7,-0.4,-0.2,-1.6,25,-0.218791,1.2653,-1.26072,0.1809,0.776454,0.0634288,
2026_06_09_15_16_18.257,3.763,29.5,0,0.754,0,0,0,0.008, ,0,0,0,0,0, ,988.2,34.6,58.2,-0.5,-0.7,-1.8,25,-0.501505,1.16306,-0.755031,0.181097,0.74235,0.0717524,
2026_06_09_15_16_18.277,3.763,29.5,0,0.758,0,0,0,0.008, ,0,0,0,0,0, ,987.1,35.6,55.4,-0.5,-1.2,-1.6,25,-0.748265,1.08217,-0.302305,0.177941,0.681739,0.0793141,
2026_06_09_15_16_18.297,3.763,29.5,0,0.757,0,0,0,0.008, ,0,0,0,0,0, ,991,37.4,54.3,-0.9,-1.6,-2,25,-0.910576,1.06858,0.0340738,0.164254,0.598671,0.0812098,
2026_06_09_15_16_18.317,3.763,29.5,0,0.757,0,0,0,0.008, ,0,0,0,0,0, ,994.7,36.6,47.9,-1,-1.2,-2,25,-0.874073,1.07491,0.169875,0.138167,0.516726,0.0728037,
2026_06_09_15_16_18.337,3.763,29.5,0,0.758,0,0,0,0.008, ,0,0,0,0,0, ,993.6,38.3,46.6,-0.9,-0.7,-1.7,25,-0.771297,1.0977,0.109363,0.112679,0.458323,0.0718075,
2026_06_09_15_16_18.357,3.763,29.6,0,0.758,0,0,0,0.008, ,0,0,0,0,0, ,992.1,36.9,49.9,-0.7,0,-1.7,25,-0.733518,1.12132,0.100323,0.0952427,0.429952,0.0778628,
2026_06_09_15_16_18.376,3.763,29.5,0,0.758,0,0,0,0.007, ,0,0,0,0,0, ,990.8,34.9,47.9,-0.5,0.2,-1.6,25,-0.762637,1.05488,0.12311,0.0880004,0.422922,0.0856895,
2026_06_09_15_16_18.396,3.763,29.5,0,0.757,0,0,0,0.008, ,0,0,0,0,0, ,988.7,37.1,49.8,0.1,0.7,-1.5,25,-0.869941,0.991408,0.141721,0.100297,0.431318,0.0976144,
2026_06_09_15_16_18.416,3.763,29.5,0,0.757,0,0,0,0.008, ,0,0,0,0,0, ,988.4,36,55.9,-0.1,0.2,-1.4,25,-1.02655,0.953134,0.354893,0.121305,0.437177,0.113378,
2026_06_09_15_16_18.436,3.763,29.6,0,0.757,0,0,0,0.008, ,0,0,0,0,0, ,988.4,36.2,55.5,-0.4,0,-1.7,25,-1.17777,0.889971,0.695634,0.128424,0.423428,0.122905,
2026_06_09_15_16_18.455,3.763,29.6,0,0.759,0,0,0,0.008, ,0,0,0,0,0, ,992.7,36.4,52.9,-0.4,-0.1,-1.6,25,-1.21033,0.835329,0.942672,0.127204,0.400911,0.126455,
2026_06_09_15_16_18.475,3.763,29.6,0,0.759,0,0,0,0.008, ,0,0,0,0,0, ,989.3,37.8,55.6,-0.2,-0.4,-1.4,25,-1.21326,0.818484,1.1754,0.130321,0.367714,0.136564,
2026_06_09_15_16_18.495,3.763,29.6,0,0.757,0,0,0,0.008, ,0,0,0,0,0, ,988.2,35.8,55.1,-0.6,-0.6,-1.8,25,-1.32041,0.783718,1.44487,0.12774,0.322071,0.1406,
2026_06_09_15_16_18.515,3.763,29.6,0,0.758,0,0,0,0.008, ,0,0,0,0,0, ,991.5,36.7,52.7,-0.5,-0.8,-1.5,25,-1.36185,0.719822,1.62289,0.117298,0.267271,0.141293,
2026_06_09_15_16_18.536,3.763,29.6,0,0.757,0,0,0,0.008, ,0,0,0,0,0, ,992.1,36.4,50,-0.4,-0.7,-1.6,25,-1.29892,0.670224,1.65912,0.111695,0.21139,0.14616,
2026_06_09_15_16_18.555,3.763,29.5,0,0.758,0,0,0,0.008, ,0,0,0,0,0, ,992.1,36.8,46.7,-0.2,-0.3,-1.5,25,-1.21796,0.622208,1.53827,0.113173,0.169468,0.150067,
2026_06_09_15_16_18.574,3.763,29.5,0,0.758,0,0,0,0.009, ,0,0,0,0,0, ,991.6,37.5,50.5,-0.2,0.1,-1.5,25,-1.14722,0.600454,1.42802,0.118925,0.148384,0.155496,
2026_06_09_15_16_18.594,3.763,29.6,0,0.757,0,0,0,0.009, ,0,0,0,0,0, ,990.9,38.9,51.2,-0.4,0.3,-1.6,25,-1.10373,0.628304,1.4265,0.118904,0.142316,0.15744,
2026_06_09_15_16_18.614,3.763,29.6,0,0.758,0,0,0,0.008, ,0,0,0,0,0, ,993.1,38.6,53.8,-0.3,0.5,-1.8,25,-1.02015,0.678664,1.49893,0.115847,0.145653,0.151157,
2026_06_09_15_16_18.634,3.763,29.6,0,0.757,0,0,0,0.008, ,0,0,0,0,0, ,994.2,38.3,56.7,-0.5,0.2,-1.8,25,-0.854717,0.708498,1.6953,0.109916,0.145656,0.139532,
2026_06_09_15_16_18.655,3.763,29.6,0,0.757,0,0,0,0.008, ,0,0,0,0,0, ,987.6,34.6,58.2,-0.9,-0.2,-1.9,25,-0.828055,0.63529,1.98158,0.0890212,0.127776,0.125338,
2026_06_09_15_16_18.679,3.763,29.6,0,0.758,0,0,0,0.008, ,0,0,0,0,0, ,989.7,34.5,51.1,-0.8,-0.5,-1.7,25,-0.908968,0.469359,2.10673,0.0613561,0.0929776,0.113674,
2026_06_09_15_16_18.693,3.763,29.5,0,0.758,0,0,0,0.008, ,0,0,0,0,0, ,991.5,35.8,51.3,-0.5,-0.6,-1.6,25,-0.885797,0.338679,2.04616,0.044554,0.0496194,0.109378,
2026_06_09_15_16_18.713,3.763,29.5,0,0.757,0,0,0,0.009, ,0,0,0,0,0, ,991.9,37.9,56.1,-0.5,-0.5,-1.7,25,-0.80545,0.296112,2.10108,0.0357129,0.00814306,0.104754,
2026_06_09_15_16_18.733,3.763,29.6,0,0.757,0,0,0,0.009, ,0,0,0,0,0, ,989.6,39.3,56.2,-0.7,-0.9,-1.8,25,-0.771665,0.34,2.26311,0.022225,-0.0386958,0.0949367,
2026_06_09_15_16_18.753,3.763,29.6,0,0.759,0,0,0,0.008, ,0,0,0,0,0, ,989.8,38.6,51.8,-1,-1.2,-1.8,25,-0.787231,0.397224,2.3006,-0.00297168,-0.100212,0.0826804,
2026_06_09_15_16_18.773,3.763,29.6,0,0.757,0,0,0,0.008, ,0,0,0,0,0, ,991.2,35.8,49.4,-0.7,-0.8,-1.7,25,-0.758918,0.363858,2.15817,-0.026918,-0.155765,0.0730699,
2026_06_09_15_16_18.792,3.763,29.6,0,0.758,0,0,0,0.008, ,0,0,0,0,0, ,990.9,36,47.8,-0.5,-0.5,-1.7,25,-0.701278,0.26658,1.914,-0.0372965,-0.190661,0.0660228,
2026_06_09_15_16_18.811,3.763,29.6,0,0.757,0,0,0,0.008, ,0,0,0,0,0, ,991.3,36.4,51.1,-0.1,-0.1,-1.6,25,-0.640558,0.187472,1.71405,-0.0322692,-0.205741,0.0614481,
2026_06_09_15_16_18.831,3.763,29.6,0,0.757,0,0,0,0.008, ,0,0,0,0,0, ,988.8,37.8,51.1,-0.3,-0.1,-1.6,25,-0.631155,0.155458,1.59639,-0.0224251,-0.209258,0.0592471,
2026_06_09_15_16_18.851,3.763,29.5,0,0.758,0,0,0,0.009, ,0,0,0,0,0, ,995.4,39.3,54.9,-0.6,-0.3,-1.7,25,-0.518564,0.195361,1.56981,-0.0252141,-0.216476,0.0544098,
2026_06_09_15_16_18.872,3.763,29.6,0,0.76,0,0,0,0.009, ,0,0,0,0,0, ,987.3,36.6,51.6,-0.9,-0.7,-1.6,25,-0.445721,0.202918,1.54906,-0.042455,-0.236986,0.0495417,
2026_06_09_15_16_18.891,3.763,29.6,0,0.757,0,0,0,0.009, ,0,0,0,0,0, ,990.3,37.2,53.2,-0.7,-0.9,-1.8,25,-0.499314,0.157609,1.48001,-0.0610932,-0.270036,0.042216,
2026_06_09_15_16_18.911,3.763,29.6,0,0.758,0,0,0,0.009, ,0,0,0,0,0, ,988.2,35.4,53.9,-0.6,-1,-1.6,25,-0.525749,0.0843199,1.46345,-0.0711599,-0.30749,0.0350415,
2026_06_09_15_16_18.931,3.763,29.6,0,0.757,0,0,0,0.009, ,0,0,0,0,0, ,991.2,38.2,48.5,-0.6,-1,-1.8,25,-0.526226,0.038731,1.32524,-0.0779299,-0.344044,0.0280462,
2026_06_09_15_16_18.951,3.763,29.6,0,0.756,0,0,0,0.009, ,0,0,0,0,0, ,994.8,38.5,50.2,-0.3,-0.7,-1.5,25,-0.362244,0.0712039,1.09654,-0.0766275,-0.369753,0.0237079,
2026_06_09_15_16_18.970,3.763,29.6,0,0.758,0,0,0,0.009, ,0,0,0,0,0, ,986.6,36.8,49.8,-0.4,-0.5,-1.6,25,-0.31732,0.0674031,0.905539,-0.0701069,-0.380119,0.0243698,
2026_06_09_15_16_18.990,3.763,29.5,0,0.758,0,0,0,0.009, ,0,0,0,0,0, ,991.9,38.2,50.9,-0.6,-0.6,-1.9,25,-0.344147,0.0561,0.736604,-0.0709171,-0.38565,0.0150705,
2026_06_09_15_16_19.010,3.763,29.6,0,0.758,0,0,0,0.01, ,0,0,0,0,0, ,993,35.5,48,-0.8,-0.1,-1.8,25,-0.211023,0.0131968,0.528185,-0.0811466,-0.379201,0.00124873,
2026_06_09_15_16_19.029,3.763,29.6,0,0.757,0,0,0,0.009, ,0,0,0,0,0, ,986.4,33.3,52.4,-0.3,-0.2,-1.6,25,-0.218257,-0.147823,0.364167,-0.0831182,-0.361391,-0.00454487,
2026_06_09_15_16_19.049,3.763,29.6,0,0.759,0,0,0,0.009, ,0,0,0,0,0, ,988.1,36.2,52,-0.3,-0.1,-1.7,25,-0.344216,-0.283053,0.304484,-0.0723225,-0.342673,-0.00757978,
2026_06_09_15_16_19.069,3.763,29.6,0,0.757,0,0,0,0.009, ,0,0,0,0,0, ,992.9,38,52.3,-0.4,-0.3,-1.6,25,-0.302912,-0.295004,0.243776,-0.0641521,-0.325637,-0.0104285,
2026_06_09_15_16_19.089,3.763,29.6,0,0.757,0,0,0,0.009, ,0,0,0,0,0, ,992.3,37.2,49.9,-0.4,-0.1,-1.6,25,-0.159149,-0.280393,0.133348,-0.0585184,-0.307831,-0.0106339,
2026_06_09_15_16_19.109,3.763,29.6,0,0.757,0,0,0,0.009, ,0,0,0,0,0, ,986.8,36.7,50.5,-0.3,-0.1,-1.5,25,-0.171236,-0.296995,-0.0164599,-0.0504204,-0.284477,-0.00832473,
2026_06_09_15_16_19.129,3.763,29.6,0,0.758,0,0,0,0.009, ,0,0,0,0,0, ,990.8,39.5,52,-0.7,-0.3,-1.9,25,-0.218668,-0.25492,-0.107344,-0.0498276,-0.265771,-0.0134442,
2026_06_09_15_16_19.149,3.763,29.7,0,0.758,0,0,0,0.009, ,0,0,0,0,0, ,994.8,37.7,48.5,-0.5,0,-1.7,25,-0.066523,-0.18913,-0.242286,-0.0539226,-0.24422,-0.0231507,
2026_06_09_15_16_19.169,3.763,29.6,0,0.758,0,0,0,0.008, ,0,0,0,0,0, ,987.4,33.6,52.3,-0.1,0.1,-1.6,25,-0.00488476,-0.270312,-0.362059,-0.042838,-0.212714,-0.0249106,
2026_06_09_15_16_19.189,3.763,29.6,0,0.759,0,0,0,0.009, ,0,0,0,0,0, ,988.1,36.1,56.3,-0.1,-0.1,-1.6,25,-0.11054,-0.385415,-0.282905,-0.0222773,-0.184157,-0.0240093,
2026_06_09_15_16_19.209,3.763,29.6,0,0.758,0,0,0,0.009, ,0,0,0,0,0, ,993,37.4,53.7,-0.5,-0.7,-1.6,25,-0.0731492,-0.399791,-0.171908,-0.0124238,-0.17571,-0.0230338,
2026_06_09_15_16_19.227,3.763,29.7,0,0.757,0,0,0,0.009, ,0,0,0,0,0, ,994.1,38.2,46.2,-0.5,-0.3,-1.4,25,0.109898,-0.359997,-0.313176,-0.012801,-0.171716,-0.0170883,
2026_06_09_15_16_19.247,3.763,29.6,0,0.757,0,0,0,0.009, ,0,0,0,0,0, ,990.4,38,48.5,-0.3,0.4,-1.6,25,0.219672,-0.305667,-0.573485,-0.00819231,-0.140098,-0.0113502,
2026_06_09_15_16_19.268,3.763,29.6,0,0.758,0,0,0,0.009, ,0,0,0,0,0, ,989.5,36.6,55,-0.4,0.4,-1.6,25,0.21018,-0.29173,-0.602411,-0.00131709,-0.0921747,-0.0107419,
2026_06_09_15_16_19.287,3.763,29.6,0,0.759,0,0,0,0.009, ,0,0,0,0,0, ,989.8,36.4,60,-0.7,-0.3,-1.7,25,0.185404,-0.316273,-0.344951,-0.0045812,-0.0633126,-0.0125626,
2026_06_09_15_16_19.306,3.763,29.7,0,0.757,0,0,0,0.009, ,0,0,0,0,0, ,989.3,34.7,52.8,-0.9,-0.7,-1.8,25,0.156024,-0.384645,-0.152365,-0.0199234,-0.0625278,-0.0191365,
2026_06_09_15_16_19.327,3.763,29.7,0,0.757,0,0,0,0.009, ,0,0,0,0,0, ,991.6,36.2,48.9,-0.5,-0.6,-1.6,25,0.171455,-0.452673,-0.240663,-0.0295108,-0.0688298,-0.0228415,
2026_06_09_15_16_19.347,3.763,29.6,0,0.757,0,0,0,0.009, ,0,0,0,0,0, ,990.4,37.8,48.8,-0.3,-0.4,-1.4,25,0.21226,-0.439116,-0.421532,-0.0237695,-0.0671271,-0.0164436,
2026_06_09_15_16_19.366,3.763,29.7,0,0.758,0,0,0,0.01, ,0,0,0,0,0, ,990.1,37.5,52.7,-0.1,-0.4,-1.4,25,0.213234,-0.392182,-0.49827,-0.00838397,-0.0602727,-0.00537405,
2026_06_09_15_16_19.386,3.763,29.7,0,0.758,0,0,0,0.009, ,0,0,0,0,0, ,990.1,38.3,55.2,-0.3,-0.5,-1.6,25,0.205752,-0.333356,-0.411851,0.00628829,-0.0559095,0.000274741,
2026_06_09_15_16_19.406,3.763,29.6,0,0.758,0,0,0,0.009, ,0,0,0,0,0, ,991.8,37.3,53.2,-0.7,-0.9,-1.6,25,0.23931,-0.280677,-0.315379,0.00549703,-0.0637457,0.000740822,
2026_06_09_15_16_19.426,3.763,29.6,0,0.757,0,0,0,0.01, ,0,0,0,0,0, ,992.4,37.8,49.4,-0.6,-0.4,-1.6,25,0.326444,-0.241459,-0.36431,-0.00263901,-0.0684312,0.00118039,
2026_06_09_15_16_19.446,3.763,29.7,0,0.757,0,0,0,0.01, ,0,0,0,0,0, ,991.5,36.8,49.4,-0.3,0,-1.6,25,0.400339,-0.215235,-0.502228,-0.000554376,-0.0504802,0.00159259,
2026_06_09_15_16_19.465,3.763,29.6,0,0.758,0,0,0,0.009, ,0,0,0,0,0, ,989.2,37.1,50.1,-0.4,0.1,-1.7,25,0.390168,-0.206401,-0.613741,0.00633507,-0.0209,-0.000475439,
2026_06_09_15_16_19.485,3.763,29.6,0,0.758,0,0,0,0.01, ,0,0,0,0,0, ,991.2,37.2,53.8,-0.4,0,-1.7,25,0.371217,-0.187175,-0.608866,0.0104033,0.0073325,-0.00489186,
2026_06_09_15_16_19.505,3.763,29.7,0,0.758,0,0,0,0.01, ,0,0,0,0,0, ,988.8,37.4,55.5,-0.5,-0.4,-1.6,25,0.341557,-0.160613,-0.468813,0.0117685,0.0218834,-0.00661542,
2026_06_09_15_16_19.526,3.763,29.8,0,0.757,0,0,0,0.009, ,0,0,0,0,0, ,992.1,36.6,46.7,-0.4,-0.2,-1.6,25,0.333736,-0.149275,-0.507421,0.0130088,0.0307086,-0.00576969,
2026_06_09_15_16_19.544,3.763,29.6,0,0.758,0,0,0,0.008, ,0,0,0,0,0, ,993.1,38.3,49.6,0,0.1,-1.4,25,0.430097,-0.115688,-0.686313,0.0263849,0.0512104,-3.26749e-05,
2026_06_09_15_16_19.565,3.763,29.7,0,0.759,0,0,0,0.01, ,0,0,0,0,0, ,988,35.8,58.1,-0.1,0.2,-1.5,25,0.419074,-0.102795,-0.573503,0.0463315,0.0802629,0.0078753,
2026_06_09_15_16_19.585,3.763,29.7,0,0.758,0,0,0,0.009, ,0,0,0,0,0, ,989.5,37.5,55,-0.3,0,-1.6,25,0.318249,-0.109645,-0.330982,0.0577151,0.105043,0.0104523,
2026_06_09_15_16_19.605,3.763,29.7,0,0.758,0,0,0,0.009, ,0,0,0,0,0, ,990.3,37.1,56.1,-0.6,-0.6,-1.6,25,0.277201,-0.0837409,-0.147767,0.0559951,0.108473,0.0103993,
2026_06_09_15_16_19.624,3.763,29.7,0,0.757,0,0,0,0.009, ,0,0,0,0,0, ,994.5,34,50.7,-0.5,-0.3,-2,25,0.359407,-0.14452,-0.078252,0.0491791,0.103843,0.000488915,
2026_06_09_15_16_19.644,3.763,29.7,0,0.758,0,0,0,0.009, ,0,0,0,0,0, ,990.6,44.9,46.6,-0.2,-0.4,-2.1,25,0.443166,-0.0103376,-0.244716,0.0522638,0.103833,-0.0211986,
2026_06_09_15_16_19.669,3.763,29.7,0,0.757,0,0,0,0.009, ,0,0,0,0,0, ,983.3,40.8,58.2,-0.4,0,-1.9,25,0.245992,0.284062,-0.217898,0.0573917,0.110669,-0.0392659,
2026_06_09_15_16_19.684,3.763,29.7,0,0.757,0,0,0,0.009, ,0,0,0,0,0, ,989.9,37.5,52.2,-0.9,-0.1,-1.7,25,0.0401107,0.381163,-0.0540004,0.0448202,0.12398,-0.0464449,
2026_06_09_15_16_19.703,3.763,29.7,0,0.757,0,0,0,0.009, ,0,0,0,0,0, ,989.9,38.4,52.7,-0.7,-0.1,-1.7,25,0.00597269,0.412772,-0.0327436,0.0252878,0.133575,-0.0481386,
2026_06_09_15_16_19.723,3.763,29.7,0,0.758,0,0,0,0.009, ,0,0,0,0,0, ,991.3,37.8,50.2,-0.7,0.2,-1.9,25,0.00780886,0.448153,-0.0614111,0.0114931,0.149398,-0.0544164,
2026_06_09_15_16_19.742,3.763,29.7,0,0.756,0,0,0,0.009, ,0,0,0,0,0, ,988.6,36.7,54.8,-0.5,0.1,-1.6,25,-0.0223628,0.437904,-0.0368746,0.0032226,0.168613,-0.0576659,
2026_06_09_15_16_19.763,3.763,29.7,0,0.758,0,0,0,0.009, ,0,0,0,0,0, ,986.8,36.9,59.2,-0.7,-0.4,-1.8,25,-0.161292,0.403929,0.207335,-0.00465817,0.171341,-0.0580197,
2026_06_09_15_16_19.783,3.763,29.7,0,0.759,0,0,0,0.009, ,0,0,0,0,0, ,989.3,37.8,59.8,-1.2,-0.9,-2.4,25,-0.275447,0.396604,0.561153,-0.0292946,0.14857,-0.0776875,
2026_06_09_15_16_19.808,3.763,29.8,0,0.758,0,0,0,0.009, ,0,0,0,0,0, ,994,38.3,49.5,-1.1,-1.7,-1.8,25,-0.20609,0.422014,0.656995,-0.0623871,0.0943052,-0.0960079,
2026_06_09_15_16_19.822,3.763,29.7,0,0.757,0,0,0,0.009, ,0,0,0,0,0, ,990.2,37.1,49.1,-0.8,-1,-1.9,25,-0.117049,0.426932,0.482516,-0.0837405,0.0397848,-0.100696,
2026_06_09_15_16_19.842,3.763,29.7,0,0.757,0,0,0,0.009, ,0,0,0,0,0, ,989.7,36.7,51.3,-0.7,-0.6,-1.8,25,-0.137241,0.390271,0.358356,-0.0938253,0.0147159,-0.104658,
2026_06_09_15_16_19.861,3.763,29.7,0,0.758,0,0,0,0.01, ,0,0,0,0,0, ,992.5,38.8,52,-0.8,-0.5,-1.9,25,-0.0993663,0.395171,0.309631,-0.102953,0.00306482,-0.107909,
2026_06_09_15_16_19.882,3.763,29.7,0,0.759,0,0,0,0.01, ,0,0,0,0,0, ,993.5,40.8,49,-0.4,0,-1.8,25,0.0303222,0.498422,0.205371,-0.103769,0.00668297,-0.11047,
2026_06_09_15_16_19.902,3.763,29.7,0,0.758,0,0,0,0.01, ,0,0,0,0,0, ,991.5,36.9,49,-0.2,0.3,-1.6,25,0.128979,0.547562,0.0316465,-0.0893213,0.029708,-0.105003,
2026_06_09_15_16_19.921,3.763,29.7,0,0.757,0,0,0,0.01, ,0,0,0,0,0, ,990.2,36.6,54.1,0,0.6,-1.6,25,0.141241,0.488602,-0.00865351,-0.065333,0.0661704,-0.0943836,
2026_06_09_15_16_19.945,3.763,29.7,0,0.758,0,0,0,0.01, ,0,0,0,0,0, ,986.3,36.2,57.3,-0.2,0.1,-1.5,25,0.024693,0.412961,0.156595,-0.0421991,0.0956142,-0.0813673,
2026_06_09_15_16_19.961,3.763,29.8,0,0.758,0,0,0,0.01, ,0,0,0,0,0, ,990.1,39.5,58.4,-0.5,-0.4,-1.8,25,-0.088714,0.410107,0.41841,-0.0322526,0.0986211,-0.0734927,
2026_06_09_15_16_19.980,3.763,29.8,0,0.759,0,0,0,0.009, ,0,0,0,0,0, ,990.9,38.6,55.6,-0.4,-0.7,-1.6,25,-0.0833217,0.464224,0.623636,-0.0275393,0.0813772,-0.0680943,
2026_06_09_15_16_20.000,3.763,29.8,0,0.759,0,0,0,0.009, ,0,0,0,0,0, ,991.3,38.9,53.9,-0.1,-1,-1.6,25,-0.0483569,0.498686,0.705377,-0.0131128,0.049865,-0.0577206,
2026_06_09_15_16_20.020,3.763,29.7,0,0.758,0,0,0,0.009, ,0,0,0,0,0, ,987.9,40,54.4,-0.5,-1.4,-1.6,25,-0.0884335,0.56333,0.750207,-0.00178134,0.00248734,-0.0475713,
2026_06_09_15_16_20.040,3.763,29.8,0,0.758,0,0,0,0.01, ,0,0,0,0,0, ,991.5,38.9,55.9,-0.9,-1.7,-2,25,-0.121204,0.622028,0.838184,-0.0106141,-0.0597441,-0.047494,
2026_06_09_15_16_20.060,3.763,29.8,0,0.758,0,0,0,0.009, ,0,0,0,0,0, ,993,40.2,51.1,-1,-1.8,-1.8,25,-0.0267106,0.679686,0.836794,-0.0312222,-0.128438,-0.0520906,
2026_06_09_15_16_20.081,3.763,29.8,0,0.757,0,0,0,0.009, ,0,0,0,0,0, ,992.4,37.1,44.6,-0.8,-1.2,-1.8,25,0.0853503,0.687028,0.554254,-0.0482136,-0.180869,-0.0513009,
2026_06_09_15_16_20.099,3.763,29.7,0,0.757,0,0,0,0.009, ,0,0,0,0,0, ,990.7,36.8,45.5,-0.4,-0.4,-1.7,25,0.135095,0.60725,0.145518,-0.0494211,-0.195507,-0.0478448,
2026_06_09_15_16_20.119,3.763,29.8,0,0.758,0,0,0,0.01, ,0,0,0,0,0, ,990.4,38.9,50.9,-0.4,-0.1,-1.7,25,0.132692,0.57253,-0.0894028,-0.0405171,-0.181489,-0.0418703,
2026_06_09_15_16_20.139,3.763,29.8,0,0.758,0,0,0,0.009, ,0,0,0,0,0, ,993.7,39.3,48.9,-0.7,0,-1.8,25,0.203317,0.597997,-0.228988,-0.0392067,-0.157456,-0.0384346,
2026_06_09_15_16_20.159,3.763,29.8,0,0.758,0,0,0,0.009, ,0,0,0,0,0, ,992.3,39.5,52.3,-0.5,0.1,-1.8,25,0.316066,0.633979,-0.32627,-0.0402194,-0.128922,-0.0374302,
2026_06_09_15_16_20.178,3.763,29.8,0,0.757,0,0,0,0.009, ,0,0,0,0,0, ,989.8,38,54.9,-0.6,0,-1.6,25,0.326094,0.633195,-0.270042,-0.0385321,-0.101151,-0.0313862,
2026_06_09_15_16_20.198,3.763,29.8,0,0.758,0,0,0,0.009, ,0,0,0,0,0, ,984.8,39.4,57.1,-0.6,-0.3,-1.7,25,0.150111,0.626877,-0.0975377,-0.0391899,-0.0840529,-0.0230318,
2026_06_09_15_16_20.218,3.763,29.8,0,0.758,0,0,0,0.009, ,0,0,0,0,0, ,992.3,40.6,54.9,-0.9,-0.7,-2,25,0.0433221,0.681535,0.0669873,-0.0469787,-0.0845439,-0.0247823,
2026_06_09_15_16_20.238,3.763,29.8,0,0.758,0,0,0,0.009, ,0,0,0,0,0, ,990.4,38.9,53.4,-0.8,-0.9,-1.8,25,0.0788793,0.717893,0.132383,-0.0590583,-0.0993072,-0.028777,
2026_06_09_15_16_20.258,3.763,29.8,0,0.758,0,0,0,0.009, ,0,0,0,0,0, ,989.2,36.7,51.6,-0.7,-1,-1.6,25,0.0362876,0.653295,0.112998,-0.0653501,-0.120214,-0.0226252,
2026_06_09_15_16_20.278,3.763,29.7,0,0.758,0,0,0,0.009, ,0,0,0,0,0, ,988,37.5,48.3,-0.5,-0.8,-1.8,25,-0.0632466,0.554316,-0.0310529,-0.0636548,-0.13705,-0.0166637,
2026_06_09_15_16_20.298,3.763,29.8,0,0.758,0,0,0,0.01, ,0,0,0,0,0, ,994.9,40.8,48.4,-0.2,-0.3,-1.5,25,-0.0178142,0.557998,-0.246356,-0.0494681,-0.13522,-0.00846026,
2026_06_09_15_16_20.318,3.763,29.9,0,0.758,0,0,0,0.009, ,0,0,0,0,0, ,991.3,40.4,48.9,-0.4,0.1,-1.6,25,0.106399,0.629862,-0.435172,-0.0332813,-0.110744,0.00428688,
2026_06_09_15_16_20.337,3.763,29.8,0,0.758,0,0,0,0.008, ,0,0,0,0,0, ,990.1,39.3,51.1,-0.3,0.5,-1.7,25,0.106291,0.658315,-0.546375,-0.0201764,-0.0673054,0.0114834,
2026_06_09_15_16_20.357,3.763,29.9,0,0.758,0,0,0,0.009, ,0,0,0,0,0, ,988.4,39.6,56.8,-0.5,0.2,-1.6,25,0.0345526,0.66251,-0.455712,-0.010067,-0.0232132,0.0182704,
2026_06_09_15_16_20.381,3.763,29.7,0,0.756,0,0,0,0.008, ,0,0,0,0,0, ,987.3,37.8,56.8,-0.8,-0.4,-1.7,25,-0.102498,0.626453,-0.227475,-0.0126645,-0.00323853,0.0246345,
2026_06_09_15_16_20.397,3.763,29.8,0,0.758,0,0,0,0.01, ,0,0,0,0,0, ,991.2,38,49.4,-0.7,-0.5,-1.5,25,-0.163662,0.549842,-0.190771,-0.0199766,-0.00139263,0.0330172,
2026_06_09_15_16_20.417,3.763,29.7,0,0.758,0,0,0,0.009, ,0,0,0,0,0, ,990.4,39,49.5,-0.5,-0.1,-1.7,25,-0.145001,0.503704,-0.333934,-0.0194751,0.00772608,0.0408261,
2026_06_09_15_16_20.436,3.763,29.8,0,0.759,0,0,0,0.01, ,0,0,0,0,0, ,988.8,41.8,53.4,-0.5,-0.2,-1.5,25,-0.185394,0.550529,-0.370345,-0.0139979,0.023716,0.0480508,
2026_06_09_15_16_20.456,3.763,29.8,0,0.758,0,0,0,0.009, ,0,0,0,0,0, ,993,41.5,50.5,-0.8,-0.1,-1.8,25,-0.159136,0.653649,-0.378622,-0.0160769,0.0388048,0.0522323,
2026_06_09_15_16_20.476,3.763,29.8,0,0.757,0,0,0,0.009, ,0,0,0,0,0, ,991,39.4,53.8,-0.8,-0.1,-1.7,25,-0.0794345,0.689637,-0.374819,-0.0253311,0.0554146,0.0510469,
2026_06_09_15_16_20.496,3.763,29.9,0,0.756,0,0,0,0.009, ,0,0,0,0,0, ,991.5,38,52.4,-0.7,-0.2,-1.7,25,-0.0400323,0.634637,-0.322765,-0.0315545,0.0684845,0.0521202,
2026_06_09_15_16_20.519,3.763,29.8,0,0.757,0,0,0,0.009, ,0,0,0,0,0, ,989.7,39.3,52.2,-0.6,-0.3,-1.7,25,-0.0342431,0.576754,-0.310907,-0.0324128,0.0756716,0.0528841,
2026_06_09_15_16_20.535,3.763,29.9,0,0.759,0,0,0,0.009, ,0,0,0,0,0, ,989.3,38.9,53.1,-0.4,-0.4,-1.7,25,-0.0825168,0.540937,-0.280933,-0.0257128,0.0772289,0.0533498,
2026_06_09_15_16_20.555,3.763,29.9,0,0.757,0,0,0,0.009, ,0,0,0,0,0, ,989.8,38.8,54.8,-0.7,-0.5,-1.8,25,-0.125565,0.491949,-0.187289,-0.0216669,0.0734249,0.0510776,
2026_06_09_15_16_20.575,3.763,29.9,0,0.757,0,0,0,0.009, ,0,0,0,0,0, ,989.6,37.8,52.9,-0.8,-0.8,-1.6,25,-0.158527,0.415966,-0.102219,-0.0275212,0.059637,0.0511173,
2026_06_09_15_16_20.595,3.763,29.9,0,0.757,0,0,0,0.009, ,0,0,0,0,0, ,990.2,40,53.1,-0.6,-0.8,-1.7,25,-0.179281,0.371085,-0.0625033,-0.0305006,0.0388749,0.0533553,
2026_06_09_15_16_20.614,3.763,29.8,0,0.758,0,0,0,0.009, ,0,0,0,0,0, ,993.4,40.2,46.9,-0.5,-0.6,-1.6,25,-0.104951,0.385429,-0.171557,-0.0258271,0.0238438,0.0552206,
2026_06_09_15_16_20.634,3.763,29.8,0,0.758,0,0,0,0.01, ,0,0,0,0,0, ,992.6,39.7,49.6,-0.2,-0.1,-1.7,25,0.0251014,0.389813,-0.360243,-0.0114469,0.0265975,0.0567223,
2026_06_09_15_16_20.658,3.763,29.8,0,0.757,0,0,0,0.01, ,0,0,0,0,0, ,989.6,40.6,50.7,-0.5,-0.1,-1.6,25,0.055469,0.40187,-0.444718,0.00228449,0.0413458,0.0578707,
2026_06_09_15_16_20.674,3.763,29.9,0,0.756,0,0,0,0.01, ,0,0,0,0,0, ,990.3,39.4,52.3,-0.4,0,-1.7,25,0.0276744,0.403998,-0.45665,0.0104269,0.0576193,0.0586777,
2026_06_09_15_16_20.694,3.763,29.8,0,0.759,0,0,0,0.009, ,0,0,0,0,0, ,991,38.8,51.8,-0.3,-0.1,-1.6,25,0.0354375,0.359892,-0.438772,0.0230228,0.0728106,0.0591558,
2026_06_09_15_16_20.714,3.763,29.8,0,0.758,0,0,0,0.01, ,0,0,0,0,0, ,991.3,39.7,55,-0.3,-0.2,-1.7,25,0.0671668,0.323532,-0.3534,0.0373398,0.0819938,0.059319,
2026_06_09_15_16_20.733,3.763,29.8,0,0.758,0,0,0,0.01, ,0,0,0,0,0, ,988.4,38.5,53.5,-0.5,-0.6,-1.6,25,0.0332535,0.280004,-0.228787,0.0458662,0.0780617,0.0591819,
2026_06_09_15_16_20.753,3.763,29.8,0,0.758,0,0,0,0.01, ,0,0,0,0,0, ,988.7,39.1,52.7,-0.7,-0.9,-1.7,25,-0.0629162,0.222518,-0.165557,0.0439398,0.0567727,0.0587598,
2026_06_09_15_16_20.772,3.763,29.9,0,0.759,0,0,0,0.01, ,0,0,0,0,0, ,989.7,39.4,51.6,-0.4,-0.9,-1.6,25,-0.122181,0.188824,-0.151204,0.0443435,0.0288914,0.0580688,
2026_06_09_15_16_20.794,3.763,29.9,0,0.758,0,0,0,0.009, ,0,0,0,0,0, ,990.2,40.5,50.4,-0.4,-0.9,-1.5,25,-0.141156,0.190182,-0.193209,0.0518653,0.00223514,0.0620299,
2026_06_09_15_16_20.813,3.763,29.8,0,0.758,0,0,0,0.009, ,0,0,0,0,0, ,991.6,39.7,52.2,-0.5,-0.6,-1.7,25,-0.111913,0.197893,-0.217488,0.0563105,-0.0157683,0.0630388,
2026_06_09_15_16_20.833,3.763,29.9,0,0.757,0,0,0,0.01, ,0,0,0,0,0, ,991.6,39.5,49.6,-0.6,-0.6,-1.6,25,-0.0492246,0.179729,-0.259123,0.0553558,-0.0254547,0.0612354,
2026_06_09_15_16_20.853,3.763,29.9,0,0.758,0,0,0,0.009, ,0,0,0,0,0, ,991.8,40,49.1,-0.6,-0.3,-1.8,25,0.0155371,0.168926,-0.373456,0.051723,-0.0271841,0.0567666,
2026_06_09_15_16_20.872,3.763,29.9,0,0.758,0,0,0,0.009, ,0,0,0,0,0, ,992.9,39.5,49.9,-0.7,-0.4,-1.8,25,0.108925,0.157821,-0.472984,0.0455612,-0.0237903,0.0473328,
2026_06_09_15_16_20.892,3.763,29.8,0,0.757,0,0,0,0.009, ,0,0,0,0,0, ,989,39.1,52.7,-0.7,-0.5,-1.6,25,0.128537,0.124413,-0.477022,0.037025,-0.0253501,0.0430327,
2026_06_09_15_16_20.912,3.763,29.9,0,0.759,0,0,0,0.01, ,0,0,0,0,0, ,990.9,39.7,54,-0.8,-0.7,-1.7,25,0.0975094,0.0969347,-0.377973,0.0262728,-0.0340649,0.0411836,
2026_06_09_15_16_20.933,3.763,29.9,0,0.76,0,0,0,0.009, ,0,0,0,0,0, ,988.7,41,50.4,-0.9,-0.8,-1.8,25,0.060167,0.116917,-0.338318,0.0110141,-0.049541,0.0343178,
2026_06_09_15_16_20.951,3.763,29.9,0,0.757,0,0,0,0.009, ,0,0,0,0,0, ,993,39.9,46.2,-0.8,-0.4,-1.8,25,0.0758543,0.140248,-0.49021,-0.00355058,-0.0566573,0.0251676,
2026_06_09_15_16_20.971,3.763,29.9,0,0.758,0,0,0,0.009, ,0,0,0,0,0, ,990.8,37.8,49.8,-0.6,0,-1.7,25,0.141893,0.0832743,-0.646949,-0.0100269,-0.0435282,0.0187942,
2026_06_09_15_16_20.991,3.763,29.9,0,0.759,0,0,0,0.009, ,0,0,0,0,0, ,989.1,38.9,52,-0.5,0,-1.7,25,0.108359,0.00416268,-0.650587,-0.00877979,-0.0210198,0.0150929,
2026_06_09_15_16_21.011,3.763,29.8,0,0.758,0,0,0,0.009, ,0,0,0,0,0, ,990.2,40,52.6,-0.6,-0.1,-1.7,25,0.0612234,-0.017142,-0.582181,-0.00755053,-0.00196389,0.0114987,
2026_06_09_15_16_21.030,3.763,29.9,0,0.758,0,0,0,0.01, ,0,0,0,0,0, ,990.4,40,52.6,-0.5,-0.3,-1.7,25,0.0479769,-0.0103436,-0.499547,-0.00634435,0.00881068,0.00802419,
2026_06_09_15_16_21.050,3.763,29.9,0,0.758,0,0,0,0.009, ,0,0,0,0,0, ,988.1,39.7,49.8,-0.6,-0.3,-1.5,25,-0.0163527,-0.0111842,-0.487164,-0.00516606,0.0141091,0.00958482,
2026_06_09_15_16_21.070,3.763,29.9,0,0.757,0,0,0,0.009, ,0,0,0,0,0, ,990.8,41.6,52,-0.8,-0.1,-1.7,25,-0.0676391,0.0273062,-0.487701,-0.0113766,0.0239824,0.0110217,
2026_06_09_15_16_21.090,3.763,29.9,0,0.758,0,0,0,0.009, ,0,0,0,0,0, ,991.3,40.2,52,-0.9,0,-1.8,25,-0.0376074,0.0760351,-0.43186,-0.0245829,0.0406098,0.00497727,
2026_06_09_15_16_21.110,3.763,29.9,0,0.758,0,0,0,0.009, ,0,0,0,0,0, ,989.3,40.2,49.4,-1,0,-1.9,25,-0.0456456,0.0876692,-0.440386,-0.0419248,0.0586738,-0.00569955,
2026_06_09_15_16_21.129,3.763,29.8,0,0.758,0,0,0,0.009, ,0,0,0,0,0, ,992,39.4,45.5,-0.8,0.4,-1.9,25,-0.0358992,0.0786834,-0.605714,-0.0557573,0.0853714,-0.0182768,
2026_06_09_15_16_21.150,3.763,29.9,0,0.758,0,0,0,0.01, ,0,0,0,0,0, ,991.4,39.1,51.6,-0.3,0.9,-1.8,25,0.0250424,0.0427768,-0.706001,-0.0514716,0.132408,-0.027695,
2026_06_09_15_16_21.169,3.763,29.9,0,0.759,0,0,0,0.009, ,0,0,0,0,0, ,991.2,40.6,55.6,-0.2,0.7,-1.6,25,0.0632548,0.0378461,-0.550222,-0.0324294,0.183842,-0.0291584,
2026_06_09_15_16_21.189,3.763,29.9,0,0.758,0,0,0,0.009, ,0,0,0,0,0, ,989.6,41,61.4,-0.4,-0.2,-1.6,25,0.0551413,0.0795619,-0.159059,-0.0166134,0.204874,-0.0255019,
2026_06_09_15_16_21.211,3.763,30,0,0.758,0,0,0,0.009, ,0,0,0,0,0, ,989.3,40.7,59,-0.9,-1.1,-1.7,25,0.000562305,0.121292,0.297077,-0.0186564,0.179726,-0.0243513,
2026_06_09_15_16_21.228,3.763,29.9,0,0.758,0,0,0,0.008, ,0,0,0,0,0, ,990.3,40.7,50.5,-1.2,-1.4,-1.8,25,-0.0341773,0.153021,0.462093,-0.0401245,0.125499,-0.0280414,
2026_06_09_15_16_21.248,3.763,29.9,0,0.758,0,0,0,0.009, ,0,0,0,0,0, ,991.9,38.6,44.1,-0.8,-0.5,-1.8,25,-0.00328763,0.130945,0.251367,-0.0578898,0.0880264,-0.0338644,
2026_06_09_15_16_21.268,3.763,29.9,0,0.757,0,0,0,0.009, ,0,0,0,0,0, ,991.8,39.9,50,-0.2,0,-1.6,25,0.0628857,0.0896882,0.0374762,-0.049977,0.0862879,-0.0343307,
2026_06_09_15_16_21.288,3.763,29.9,0,0.757,0,0,0,0.009, ,0,0,0,0,0, ,988.7,41.3,51.3,-0.5,0.1,-1.6,25,0.0470343,0.116221,0.0104459,-0.0348494,0.0989224,-0.0297006,
2026_06_09_15_16_21.307,3.763,29.9,0,0.759,0,0,0,0.009, ,0,0,0,0,0, ,992.7,41.8,53.4,-0.6,0.1,-1.7,25,0.0537986,0.187472,0.0680634,-0.0301006,0.112902,-0.0276034,
2026_06_09_15_16_21.327,3.763,29.9,0,0.759,0,0,0,0.009, ,0,0,0,0,0, ,988.5,40.1,51.3,-0.5,0.4,-1.7,25,0.0550614,0.224878,0.12252,-0.0254364,0.132996,-0.0279251,
2026_06_09_15_16_21.353,3.763,30.1,0,0.758,0,0,0,0.009, ,0,0,0,0,0, ,991.5,40.8,52.8,-0.6,0.3,-1.7,25,0.0265647,0.23482,0.158988,-0.0208756,0.156353,-0.0280935,
2026_06_09_15_16_21.367,3.763,30,0,0.756,0,0,0,0.008, ,0,0,0,0,0, ,987.3,40.2,60.5,-0.7,-0.1,-1.8,25,-0.0300917,0.245569,0.418484,-0.0213399,0.165534,-0.0305673,
2026_06_09_15_16_21.387,3.763,29.9,0,0.757,0,0,0,0.008, ,0,0,0,0,0, ,987,39.7,62.2,-1,-1.2,-1.9,25,-0.194168,0.227606,0.893694,-0.0314849,0.136666,-0.0376734,
