UTC_Time,Vin,TC1,TC2,Rh1,Vh1,Ah1,Acp1,Dty1,Err1,Rh2,Vh2,Ah2,Acp2,Dty2,Err2,Accel_x,Accel_y,Accel_z,gyro_x,gyro_y,gyro_z,Temp_c,Accel_x_h,Accel_y_h,Accel_z_h,gyro_x_h,gyro_y_h,gyro_z_h,
2026_07_06_16_56_54.099,3.858,32.9,0,0.761,0,0,0,0, ,0,0,0,0,0, ,319.7,-198.1,919.1,-1.2,-0.4,-2.2,25,319.7,-198.1,919.1,-1.2,-0.4,-2.2,
2026_07_06_16_56_54.119,3.858,32.7,0,0.76,0,0,0,0, ,0,0,0,0,0, ,321.2,-196.5,924.8,-0.8,-1.4,-1.9,25,319.746,-198.051,919.274,-1.18781,-0.430469,-2.19086,
2026_07_06_16_56_54.138,3.858,32.7,0,0.76,0,0,0,0, ,0,0,0,0,0, ,315.1,-197.3,924.8,-0.7,-1.7,-2.1,25,319.648,-197.981,919.61,-1.16113,-0.49869,-2.17923,
2026_07_06_16_56_54.158,3.858,32.8,0,0.763,0,0,0,0, ,0,0,0,0,0, ,324.3,-194,932.2,-1.2,-0.9,-2.4,25,319.652,-197.839,920.152,-1.14827,-0.54752,-2.18354,
2026_07_06_16_56_54.178,3.858,32.8,0,0.76,0,0,0,0, ,0,0,0,0,0, ,324,-197.3,920.7,-1.4,0.6,-2.3,25,319.926,-197.706,920.536,-1.15751,-0.523296,-2.19369,
2026_07_06_16_56_54.197,3.858,32.7,0,0.76,0,0,0,0, ,0,0,0,0,0, ,324.5,-197.7,923.4,-0.9,-0.8,-1.6,25,320.189,-197.693,920.628,-1.15706,-0.497502,-2.17884,
2026_07_06_16_56_54.218,3.858,32.7,0,0.761,0,0,0,0, ,0,0,0,0,0, ,314.6,-197.3,925.2,-0.7,-1,-1.6,25,320.15,-197.681,920.852,-1.1353,-0.522029,-2.14356,
2026_07_06_16_56_54.238,3.858,32.7,0,0.759,0,0,0,0, ,0,0,0,0,0, ,317.2,-196.8,931.7,-1,-1.6,-2.1,25,319.891,-197.643,921.315,-1.11791,-0.569436,-2.12567,
2026_07_06_16_56_54.257,3.858,32.7,0,0.759,0,0,0,0, ,0,0,0,0,0, ,322.5,-197,925.2,-1.6,0.7,-2.5,25,319.889,-197.598,921.75,-1.12901,-0.562158,-2.1363,
2026_07_06_16_56_54.277,3.858,32.7,0,0.76,0,0,0,0, ,0,0,0,0,0, ,323.4,-198.6,918.2,-1.4,0,-2.1,25,320.075,-197.61,921.747,-1.15162,-0.506574,-2.14627,
2026_07_06_16_56_54.297,3.858,32.8,0,0.761,0,0,0,0, ,0,0,0,0,0, ,321.2,-196.8,922.3,-0.6,-0.7,-1.6,25,320.211,-197.615,921.655,-1.14238,-0.497032,-2.12822,
2026_07_06_16_56_54.317,3.858,32.8,0,0.76,0,0,0,0, ,0,0,0,0,0, ,316.5,-196.6,928.3,-0.9,-0.7,-1.8,25,320.128,-197.56,921.878,-1.11847,-0.509401,-2.10212,
2026_07_06_16_56_54.343,3.858,32.8,0,0.763,0,0,0,0, ,0,0,0,0,0, ,321.2,-196.7,928.7,-1,-1.4,-2.3,25,320.05,-197.504,922.281,-1.1082,-0.542343,-2.09895,
2026_07_06_16_56_54.356,3.858,32.8,0,0.76,0,0,0,0, ,0,0,0,0,0, ,321.8,-195.1,931.1,-1.3,-0.5,-2.3,25,320.138,-197.406,922.745,-1.11075,-0.567185,-2.1112,
2026_07_06_16_56_54.376,3.858,32.7,0,0.76,0,0,0,0, ,0,0,0,0,0, ,324.3,-196.4,921.5,-1.3,0.5,-2.1,25,320.316,-197.306,922.962,-1.12228,-0.532622,-2.11661,
2026_07_06_16_56_54.395,3.858,32.8,0,0.761,0,0,0,0, ,0,0,0,0,0, ,323.2,-199.3,920,-1,-0.5,-1.7,25,320.525,-197.339,922.827,-1.12397,-0.500166,-2.10341,
2026_07_06_16_56_54.416,3.858,32.7,0,0.762,0,0,0,0, ,0,0,0,0,0, ,317.7,-196.6,930.7,-0.6,-1.1,-1.4,25,320.521,-197.376,922.981,-1.10423,-0.518437,-2.06969,
2026_07_06_16_56_54.435,3.858,32.7,0,0.76,0,0,0,0, ,0,0,0,0,0, ,315.4,-197.9,931,-1.2,-0.7,-2.1,25,320.279,-197.368,923.46,-1.09178,-0.541688,-2.05021,
2026_07_06_16_56_54.455,3.858,32.7,0,0.761,0,0,0,0, ,0,0,0,0,0, ,320.5,-196.6,922.7,-1.5,0.2,-2.6,25,320.137,-197.361,923.667,-1.10752,-0.523913,-2.06847,
2026_07_06_16_56_54.478,3.858,32.7,0,0.76,0,0,0,0, ,0,0,0,0,0, ,324,-197.9,921.6,-1.2,-0.5,-1.8,25,320.265,-197.354,923.575,-1.12229,-0.501128,-2.07649,
2026_07_06_16_56_54.494,3.858,32.8,0,0.76,0,0,0,0, ,0,0,0,0,0, ,321.6,-199,924.9,-1.2,-0.2,-1.6,25,320.42,-197.421,923.555,-1.12703,-0.491919,-2.05355,
2026_07_06_16_56_54.514,3.858,32.7,0,0.762,0,0,0,0, ,0,0,0,0,0, ,318.3,-197.6,924.4,-0.8,-0.5,-1.6,25,320.391,-197.475,923.622,-1.11929,-0.483271,-2.02591,
2026_07_06_16_56_54.534,3.858,32.8,0,0.759,0,0,0,0, ,0,0,0,0,0, ,312.8,-198.4,928.2,-1,-1.5,-1.9,25,320.096,-197.507,923.785,-1.10593,-0.514759,-2.0091,
2026_07_06_16_56_54.554,3.858,32.7,0,0.759,0,0,0,0, ,0,0,0,0,0, ,321.7,-195.6,929,-1.6,-0.5,-2.8,25,319.923,-197.476,924.078,-1.11775,-0.544328,-2.02987,
2026_07_06_16_56_54.573,3.858,32.7,0,0.763,0,0,0,0, ,0,0,0,0,0, ,326.2,-199.7,916.6,-0.9,-0.3,-2.2,25,320.168,-197.486,924,-1.12581,-0.535533,-2.05852,
2026_07_06_16_56_54.593,3.858,32.7,0,0.761,0,0,0,0, ,0,0,0,0,0, ,323.3,-197,927.2,-0.5,-1.1,-1.6,25,320.447,-197.539,923.872,-1.09986,-0.545555,-2.04886,
2026_07_06_16_56_54.613,3.858,32.8,0,0.76,0,0,0,0, ,0,0,0,0,0, ,311.4,-196.6,927.1,-0.7,-1.6,-1.9,25,320.259,-197.494,924.072,-1.0694,-0.594576,-2.03065,
2026_07_06_16_56_54.633,3.858,32.7,0,0.762,0,0,0,0, ,0,0,0,0,0, ,317.6,-197.2,932,-1.2,-2.7,-2.5,25,319.908,-197.458,924.406,-1.06213,-0.68936,-2.04097,
2026_07_06_16_56_54.652,3.858,32.8,0,0.76,0,0,0,0, ,0,0,0,0,0, ,332.2,-192.8,927.8,-1.9,0.5,-2.8,25,320.212,-197.308,924.741,-1.09186,-0.714383,-2.07808,
2026_07_06_16_56_54.673,3.858,32.8,0,0.761,0,0,0,0, ,0,0,0,0,0, ,330.8,-196.8,913.9,-1.5,0.7,-1.7,25,320.9,-197.155,924.504,-1.12891,-0.634288,-2.08856,
2026_07_06_16_56_54.692,3.858,32.7,0,0.76,0,0,0,0, ,0,0,0,0,0, ,323.2,-198.9,921.9,-0.5,0.5,-0.8,25,321.272,-197.198,924.101,-1.12106,-0.559074,-2.03746,
2026_07_06_16_56_54.711,3.858,32.7,0,0.761,0,0,0,0, ,0,0,0,0,0, ,306.1,-197.9,929.9,-0.4,-0.8,-1.4,25,320.868,-197.271,924.211,-1.08017,-0.534146,-1.98033,
2026_07_06_16_56_54.731,3.858,32.7,0,0.761,0,0,0,0, ,0,0,0,0,0, ,313.3,-196,936.4,-1.9,-1.3,-2.1,25,320.188,-197.251,924.756,-1.08442,-0.565581,-1.96629,
2026_07_06_16_56_54.751,3.858,32.7,0,0.759,0,0,0,0, ,0,0,0,0,0, ,319.4,-198.4,920.4,-1.8,0,-3.1,25,319.954,-197.248,924.978,-1.13107,-0.570725,-2.00491,
2026_07_06_16_56_54.772,3.858,32.7,0,0.761,0,0,0,0, ,0,0,0,0,0, ,328.3,-199.4,916.6,-1.1,-1.9,-2.1,25,320.191,-197.349,924.583,-1.15051,-0.593837,-2.04117,
2026_07_06_16_56_54.792,3.858,32.7,0,0.759,0,0,0,0, ,0,0,0,0,0, ,323.2,-197.5,925.5,-0.2,-1.4,-1.5,25,320.53,-197.416,924.368,-1.12001,-0.658197,-2.02648,
2026_07_06_16_56_54.811,3.858,32.7,0,0.761,0,0,0,0, ,0,0,0,0,0, ,320,-195.5,933.3,-1.1,-0.9,-1.6,25,320.595,-197.36,924.674,-1.09137,-0.688166,-1.99744,
2026_07_06_16_56_54.831,3.858,32.9,0,0.76,0,0,0,0, ,0,0,0,0,0, ,319,-196.7,925.2,-1.4,0,-2.3,25,320.528,-197.283,924.953,-1.10103,-0.673653,-1.99455,
2026_07_06_16_56_54.850,3.858,32.7,0,0.76,0,0,0,0, ,0,0,0,0,0, ,323.8,-197.9,921.3,-1.1,-0.4,-2.3,25,320.581,-197.284,924.849,-1.11011,-0.64479,-2.01316,
2026_07_06_16_56_54.870,3.858,32.7,0,0.762,0,0,0,0, ,0,0,0,0,0, ,324.4,-200,923,-0.9,0,-1.5,25,320.796,-197.386,924.685,-1.1034,-0.617685,-2.00627,
2026_07_06_16_56_54.890,3.858,32.7,0,0.761,0,0,0,0, ,0,0,0,0,0, ,315.9,-198.8,927.2,-0.9,-0.3,-1.3,25,320.756,-197.509,924.71,-1.09101,-0.589186,-1.96932,
2026_07_06_16_56_54.910,3.858,32.7,0,0.759,0,0,0,0, ,0,0,0,0,0, ,312.3,-198.8,927.3,-0.9,-0.8,-2,25,320.351,-197.587,924.865,-1.07937,-0.586798,-1.94987,
2026_07_06_16_56_54.930,3.858,32.7,0,0.762,0,0,0,0, ,0,0,0,0,0, ,319.4,-197.5,927,-1.3,-0.7,-2.5,25,320.077,-197.622,925.004,-1.08063,-0.596743,-1.96815,
2026_07_06_16_56_54.953,3.858,32.7,0,0.761,0,0,0,0, ,0,0,0,0,0, ,325.1,-197.5,921.2,-1,-0.9,-2.2,25,320.209,-197.614,924.949,-1.08485,-0.609129,-1.99142,
2026_07_06_16_56_54.970,3.858,32.8,0,0.761,0,0,0,0, ,0,0,0,0,0, ,324.3,-195.9,926,-0.9,-0.9,-1.7,25,320.483,-197.558,924.867,-1.07664,-0.626854,-1.9889,
2026_07_06_16_56_54.989,3.858,32.7,0,0.761,0,0,0,0, ,0,0,0,0,0, ,320,-197.3,926.5,-1.2,-0.1,-1.7,25,320.584,-197.5,924.951,-1.07501,-0.619124,-1.97129,
2026_07_06_16_56_55.014,3.858,32.7,0,0.761,0,0,0,0, ,0,0,0,0,0, ,316.2,-199.2,925.2,-1.2,0.1,-2,25,320.433,-197.546,925.006,-1.08263,-0.581396,-1.9639,
2026_07_06_16_56_55.030,3.858,32.7,0,0.76,0,0,0,0, ,0,0,0,0,0, ,317.5,-199,926.3,-1.3,-0.5,-2.2,25,320.215,-197.64,925.051,-1.09283,-0.558155,-1.9722,
2026_07_06_16_56_55.049,3.858,32.7,0,0.761,0,0,0,0, ,0,0,0,0,0, ,321.4,-199.7,923.8,-1,-0.3,-2.3,25,320.168,-197.745,925.051,-1.09631,-0.548517,-1.98913,
2026_07_06_16_56_55.068,3.858,32.8,0,0.761,0,0,0,0, ,0,0,0,0,0, ,318.6,-197.5,922.8,-0.7,-1.3,-2,25,320.158,-197.797,924.944,-1.0813,-0.563842,-1.99893,
2026_07_06_16_56_55.088,3.858,32.7,0,0.76,0,0,0,0, ,0,0,0,0,0, ,318.9,-197.6,929.8,-0.8,-1.6,-2,25,320.072,-197.782,925.027,-1.06111,-0.617842,-1.99899,
2026_07_06_16_56_55.107,3.858,32.7,0,0.761,0,0,0,0, ,0,0,0,0,0, ,322.5,-195.3,928.1,-1.4,0,-2.3,25,320.11,-197.701,925.266,-1.06348,-0.628942,-2.0082,
2026_07_06_16_56_55.128,3.858,32.7,0,0.763,0,0,0,0, ,0,0,0,0,0, ,325.9,-198.2,919.7,-1.4,0.4,-2.1,25,320.359,-197.643,925.183,-1.08399,-0.578429,-2.01988,
2026_07_06_16_56_55.148,3.858,32.7,0,0.761,0,0,0,0, ,0,0,0,0,0, ,323.2,-198.4,921,-0.9,-0.7,-1.4,25,320.615,-197.683,924.888,-1.08801,-0.552321,-2.00344,
2026_07_06_16_56_55.167,3.858,32.8,0,0.761,0,0,0,0, ,0,0,0,0,0, ,317.9,-196.8,927.7,-0.6,-0.9,-1.5,25,320.611,-197.678,924.856,-1.06741,-0.567414,-1.96971,
2026_07_06_16_56_55.187,3.858,32.7,0,0.76,0,0,0,0, ,0,0,0,0,0, ,318.7,-197.9,930.1,-1,-0.4,-1.9,25,320.47,-197.658,925.102,-1.05112,-0.572447,-1.95328,
2026_07_06_16_56_55.207,3.858,32.8,0,0.761,0,0,0,0, ,0,0,0,0,0, ,320.5,-199.8,923.7,-1.5,0,-2.3,25,320.417,-197.73,925.212,-1.06324,-0.549751,-1.96222,
2026_07_06_16_56_55.227,3.858,32.8,0,0.763,0,0,0,0, ,0,0,0,0,0, ,322.2,-198.9,920.4,-0.9,-0.7,-2,25,320.474,-197.829,925.019,-1.07157,-0.537578,-1.97366,
2026_07_06_16_56_55.245,3.858,32.8,0,0.763,0,0,0,0, ,0,0,0,0,0, ,319.9,-199.3,925,-0.5,-1.1,-1.7,25,320.509,-197.906,924.878,-1.04893,-0.559664,-1.96613,
2026_07_06_16_56_55.265,3.858,32.8,0,0.761,0,0,0,0, ,0,0,0,0,0, ,317,-197.2,930.9,-1,-1.1,-1.9,25,320.384,-197.927,925.065,-1.03071,-0.59259,-1.956,
2026_07_06_16_56_55.286,3.858,32.7,0,0.76,0,0,0,0, ,0,0,0,0,0, ,318.7,-197.8,925.7,-0.9,-0.8,-2.4,25,320.229,-197.901,925.262,-1.02579,-0.61437,-1.96782,
2026_07_06_16_56_55.306,3.858,32.7,0,0.761,0,0,0,0, ,0,0,0,0,0, ,325.3,-197.9,924.8,-1.4,-0.9,-2.1,25,320.337,-197.898,925.261,-1.03336,-0.628729,-1.98502,
2026_07_06_16_56_55.326,3.858,32.7,0,0.763,0,0,0,0, ,0,0,0,0,0, ,325.1,-195.5,922.3,-1.1,0.3,-2,25,320.633,-197.825,925.157,-1.04656,-0.608697,-1.98898,
2026_07_06_16_56_55.344,3.858,32.7,0,0.761,0,0,0,0, ,0,0,0,0,0, ,320.4,-199.5,921.7,-0.9,-0.3,-1.4,25,320.762,-197.805,924.965,-1.04373,-0.571604,-1.97137,
2026_07_06_16_56_55.364,3.858,32.8,0,0.761,0,0,0,0, ,0,0,0,0,0, ,314.9,-197.6,927.9,-0.8,-1,-1.7,25,320.573,-197.851,924.955,-1.03192,-0.576382,-1.94569,
2026_07_06_16_56_55.384,3.858,32.7,0,0.761,0,0,0,0, ,0,0,0,0,0, ,318.6,-197.9,928.8,-1.2,-0.2,-2.4,25,320.34,-197.845,925.161,-1.02998,-0.577821,-1.95205,
2026_07_06_16_56_55.404,3.858,32.8,0,0.761,0,0,0,0, ,0,0,0,0,0, ,322,-197.1,920.7,-1.3,-0.1,-2.4,25,320.337,-197.824,925.136,-1.04338,-0.55175,-1.97935,
2026_07_06_16_56_55.425,3.858,32.8,0,0.76,0,0,0,0, ,0,0,0,0,0, ,322.6,-197.1,924.1,-0.8,-1,-1.9,25,320.457,-197.78,924.97,-1.04379,-0.551644,-1.98974,
2026_07_06_16_56_55.444,3.858,32.8,0,0.763,0,0,0,0, ,0,0,0,0,0, ,319.2,-197.9,924.3,-0.8,-0.9,-1.9,25,320.484,-197.763,924.923,-1.02893,-0.575919,-1.98428,
2026_07_06_16_56_55.464,3.858,32.8,0,0.761,0,0,0,0, ,0,0,0,0,0, ,321,-198.1,926.1,-0.9,-0.8,-1.8,25,320.461,-197.777,924.94,-1.01803,-0.59262,-1.97609,
2026_07_06_16_56_55.483,3.858,32.7,0,0.76,0,0,0,0, ,0,0,0,0,0, ,320.3,-196,928.7,-1.3,0.1,-1.7,25,320.472,-197.733,925.09,-1.02302,-0.577836,-1.96232,
2026_07_06_16_56_55.503,3.858,32.7,0,0.76,0,0,0,0, ,0,0,0,0,0, ,319.4,-196.6,923.7,-1.4,0,-2.1,25,320.434,-197.645,925.157,-1.04295,-0.539577,-1.95852,
2026_07_06_16_56_55.523,3.858,32.7,0,0.762,0,0,0,0, ,0,0,0,0,0, ,319.4,-199.7,919.5,-0.9,-0.8,-2,25,320.371,-197.676,924.94,-1.04947,-0.531072,-1.96409,
2026_07_06_16_56_55.549,3.858,32.7,0,0.759,0,0,0,0, ,0,0,0,0,0, ,320.6,-197.9,924.1,-0.5,-0.9,-1.8,25,320.349,-197.745,924.749,-1.02818,-0.550506,-1.96019,
2026_07_06_16_56_55.564,3.858,32.7,0,0.76,0,0,0,0, ,0,0,0,0,0, ,321.6,-195.8,931.5,-1.5,0.5,-1.7,25,320.394,-197.69,924.935,-1.02646,-0.529147,-1.94738,
2026_07_06_16_56_55.582,3.858,32.7,0,0.763,0,0,0,0, ,0,0,0,0,0, ,315,-197.8,921.2,-1.6,0,-2,25,320.267,-197.636,925.021,-1.05836,-0.481668,-1.94145,
2026_07_06_16_56_55.602,3.858,32.8,0,0.76,0,0,0,0, ,0,0,0,0,0, ,320,-199.9,923.7,-0.7,-1,-2,25,320.098,-197.71,924.865,-1.06395,-0.482785,-1.94501,
2026_07_06_16_56_55.621,3.858,32.7,0,0.761,0,0,0,0, ,0,0,0,0,0, ,318.1,-199.4,925.6,-0.4,-1.8,-2.1,25,320.034,-197.828,924.851,-1.03263,-0.538678,-1.95141,
2026_07_06_16_56_55.642,3.858,32.7,0,0.76,0,0,0,0, ,0,0,0,0,0, ,322.7,-196.6,933.3,-0.5,-1.9,-2,25,320.057,-197.839,925.132,-0.997124,-0.618587,-1.95742,
2026_07_06_16_56_55.661,3.858,32.8,0,0.761,0,0,0,0, ,0,0,0,0,0, ,320.4,-195,928.3,-1.8,-0.2,-2,25,320.148,-197.714,925.477,-1.00644,-0.644876,-1.96001,
2026_07_06_16_56_55.680,3.858,32.7,0,0.761,0,0,0,0, ,0,0,0,0,0, ,324.5,-200.1,917.3,-1.1,0.2,-2,25,320.288,-197.704,925.314,-1.03347,-0.605579,-1.96245,
2026_07_06_16_56_55.702,3.858,32.8,0,0.76,0,0,0,0, ,0,0,0,0,0, ,320.4,-198.3,921.2,-1.2,-0.4,-1.4,25,320.42,-197.795,924.944,-1.04057,-0.57477,-1.94646,
2026_07_06_16_56_55.721,3.858,32.7,0,0.761,0,0,0,0, ,0,0,0,0,0, ,316.7,-199.4,927.3,-0.8,-0.9,-1.8,25,320.306,-197.86,924.902,-1.0381,-0.579354,-1.92534,
2026_07_06_16_56_55.740,3.858,32.7,0,0.761,0,0,0,0, ,0,0,0,0,0, ,317.8,-198.6,928.4,-1.1,-0.8,-1.8,25,320.119,-197.929,925.082,-1.03273,-0.595847,-1.91771,
2026_07_06_16_56_55.761,3.858,32.7,0,0.761,0,0,0,0, ,0,0,0,0,0, ,317.7,-196.6,925.1,-1,-0.5,-2.1,25,319.975,-197.909,925.183,-1.03378,-0.599147,-1.91967,
2026_07_06_16_56_55.779,3.858,32.6,0,0.761,0,0,0,0, ,0,0,0,0,0, ,321.7,-197.9,926.6,-1.3,-0.8,-1.8,25,319.958,-197.869,925.224,-1.04086,-0.602246,-1.92152,
2026_07_06_16_56_55.800,3.858,32.8,0,0.763,0,0,0,0, ,0,0,0,0,0, ,322.5,-198.4,924.4,-1.3,-0.2,-2,25,320.089,-197.886,925.241,-1.05666,-0.596015,-1.92021,
2026_07_06_16_56_55.819,3.858,32.8,0,0.76,0,0,0,0, ,0,0,0,0,0, ,322.2,-198.8,922.2,-1.3,0.2,-2,25,320.227,-197.93,925.123,-1.07148,-0.559695,-1.92507,
2026_07_06_16_56_55.840,3.858,32.7,0,0.763,0,0,0,0, ,0,0,0,0,0, ,322,-199.2,924.1,-0.9,0.4,-1.8,25,320.341,-197.995,925.002,-1.07322,-0.507308,-1.92355,
2026_07_06_16_56_55.860,3.858,32.9,0,0.761,0,0,0,0, ,0,0,0,0,0, ,320.3,-198.8,926.8,-1.1,0.7,-1.1,25,320.39,-198.056,925.03,-1.06876,-0.442878,-1.89469,
2026_07_06_16_56_55.879,3.858,32.8,0,0.764,0,0,0,0, ,0,0,0,0,0, ,313.4,-197.3,928.3,-1.1,0.5,-1.6,25,320.174,-198.056,925.183,-1.07066,-0.379328,-1.8615,
2026_07_06_16_56_55.899,3.858,32.7,0,0.761,0,0,0,0, ,0,0,0,0,0, ,315.1,-197.3,925.6,-1.4,-0.3,-1.9,25,319.813,-198.01,925.291,-1.08159,-0.350119,-1.8547,
2026_07_06_16_56_55.919,3.858,32.7,0,0.761,0,0,0,0, ,0,0,0,0,0, ,315.1,-199.4,922.9,-0.7,-1.3,-2.3,25,319.526,-198.03,925.227,-1.07967,-0.377533,-1.86965,
2026_07_06_16_56_55.940,3.858,32.8,0,0.763,0,0,0,0, ,0,0,0,0,0, ,320.3,-196.8,930,-1.1,-1.4,-2,25,319.415,-198.035,925.302,-1.06872,-0.436793,-1.88673,
2026_07_06_16_56_55.958,3.858,32.7,0,0.763,0,0,0,0, ,0,0,0,0,0, ,322.1,-198.7,923.3,-1.2,0.1,-2.4,25,319.524,-198.017,925.384,-1.07367,-0.449785,-1.90582,
2026_07_06_16_56_55.978,3.858,32.9,0,0.764,0,0,0,0, ,0,0,0,0,0, ,323.4,-200.9,918.5,-1.2,0.4,-1.7,25,319.72,-198.126,925.111,-1.08137,-0.407142,-1.91461,
2026_07_06_16_56_55.998,3.858,32.7,0,0.763,0,0,0,0, ,0,0,0,0,0, ,317,-198.6,925,-0.7,-0.1,-1.5,25,319.749,-198.225,924.906,-1.07336,-0.373191,-1.89544,
2026_07_06_16_56_56.017,3.858,32.8,0,0.761,0,0,0,0, ,0,0,0,0,0, ,314.8,-197.7,932.3,-0.8,-0.5,-1.8,25,319.515,-198.22,925.134,-1.05366,-0.368731,-1.88048,
2026_07_06_16_56_56.037,3.858,32.8,0,0.761,0,0,0,0, ,0,0,0,0,0, ,317.6,-197.7,928.7,-1.4,-0.2,-2.2,25,319.313,-198.189,925.461,-1.05648,-0.36759,-1.88776,
2026_07_06_16_56_56.057,3.858,32.7,0,0.76,0,0,0,0, ,0,0,0,0,0, ,319.5,-198.2,921.5,-1.3,-0.4,-2.1,25,319.266,-198.174,925.439,-1.07437,-0.363471,-1.90374,
2026_07_06_16_56_56.077,3.858,32.7,0,0.761,0,0,0,0, ,0,0,0,0,0, ,320.4,-197.8,925,-0.8,-0.6,-1.7,25,319.308,-198.163,925.306,-1.07288,-0.371791,-1.90352,
2026_07_06_16_56_56.098,3.858,32.7,0,0.761,0,0,0,0, ,0,0,0,0,0, ,320.1,-195.8,928.7,-0.6,-0.2,-1.7,25,319.365,-198.08,925.4,-1.05016,-0.37351,-1.89111,
2026_07_06_16_56_56.116,3.858,32.7,0,0.764,0,0,0,0, ,0,0,0,0,0, ,316.7,-200.5,925.7,-1,-1.3,-1.8,25,319.307,-198.085,925.51,-1.03492,-0.396452,-1.88252,
2026_07_06_16_56_56.136,3.858,32.7,0,0.761,0,0,0,0, ,0,0,0,0,0, ,314,-197.5,924.8,-1.3,-0.5,-2,25,319.066,-198.14,925.494,-1.04193,-0.427137,-1.88358,
2026_07_06_16_56_56.155,3.858,32.8,0,0.763,0,0,0,0, ,0,0,0,0,0, ,320.4,-198.3,927.2,-0.9,0.1,-2.2,25,318.952,-198.126,925.525,-1.04547,-0.413296,-1.89677,
2026_07_06_16_56_56.176,3.858,32.8,0,0.76,0,0,0,0, ,0,0,0,0,0, ,316.8,-202,919.6,-1,-0.4,-2,25,318.93,-198.249,925.395,-1.03965,-0.397251,-1.90915,
2026_07_06_16_56_56.195,3.858,32.7,0,0.763,0,0,0,0, ,0,0,0,0,0, ,316.7,-196.8,929.8,-1,-0.6,-1.8,25,318.798,-198.319,925.353,-1.03723,-0.403513,-1.9086,
2026_07_06_16_56_56.216,3.858,32.8,0,0.761,0,0,0,0, ,0,0,0,0,0, ,312.9,-198.2,924.1,-0.9,-1.1,-1.9,25,318.554,-198.269,925.45,-1.03192,-0.43072,-1.90502,
2026_07_06_16_56_56.238,3.858,32.7,0,0.761,0,0,0,0, ,0,0,0,0,0, ,321.1,-197.1,929.9,-1.1,-0.9,-2.2,25,318.459,-198.232,925.545,-1.02997,-0.465411,-1.91386,
2026_07_06_16_56_56.256,3.858,32.7,0,0.763,0,0,0,0, ,0,0,0,0,0, ,321.4,-199,923.5,-1.4,0.1,-2,25,318.629,-198.221,925.615,-1.04338,-0.461425,-1.9252,
2026_07_06_16_56_56.275,3.858,32.8,0,0.761,0,0,0,0, ,0,0,0,0,0, ,322.7,-199.5,922.9,-1.1,0.5,-1.8,25,318.838,-198.283,925.468,-1.05597,-0.415026,-1.92367,
2026_07_06_16_56_56.294,3.858,32.8,0,0.763,0,0,0,0, ,0,0,0,0,0, ,315.7,-201.4,918.2,-1,-0.3,-1.5,25,318.86,-198.415,925.168,-1.05561,-0.383641,-1.90699,
2026_07_06_16_56_56.314,3.858,32.7,0,0.76,0,0,0,0, ,0,0,0,0,0, ,314.9,-200.6,927.3,-0.3,-0.8,-1.8,25,318.643,-198.573,925.021,-1.03089,-0.393779,-1.89133,
2026_07_06_16_56_56.334,3.858,32.7,0,0.761,0,0,0,0, ,0,0,0,0,0, ,308.5,-200.3,929.9,-1.2,-1.5,-2.1,25,318.22,-198.687,925.239,-1.01378,-0.439861,-1.8949,
2026_07_06_16_56_56.353,3.858,32.8,0,0.761,0,0,0,0, ,0,0,0,0,0, ,322,-197.3,930.9,-1.4,-0.8,-2.5,25,318.039,-198.694,925.553,-1.03122,-0.483135,-1.91959,
2026_07_06_16_56_56.373,3.858,32.7,0,0.761,0,0,0,0, ,0,0,0,0,0, ,322,-198.8,921.1,-1.6,-0.2,-2.3,25,318.28,-198.655,925.581,-1.05978,-0.484163,-1.94887,
2026_07_06_16_56_56.394,3.858,32.7,0,0.761,0,0,0,0, ,0,0,0,0,0, ,322.3,-199.3,922.3,-1.1,-0.8,-1.7,25,318.516,-198.679,925.344,-1.07747,-0.485128,-1.95198,
2026_07_06_16_56_56.413,3.858,33,0,0.763,0,0,0,0, ,0,0,0,0,0, ,315.4,-197.8,923.2,-0.1,-0.6,-1.6,25,318.536,-198.671,925.186,-1.04837,-0.498222,-1.93358,
2026_07_06_16_56_56.433,3.858,32.7,0,0.761,0,0,0,0, ,0,0,0,0,0, ,314.8,-197,933.4,-1.2,-1.2,-1.9,25,318.327,-198.594,925.376,-1.0241,-0.522705,-1.92239,
2026_07_06_16_56_56.452,3.858,32.8,0,0.761,0,0,0,0, ,0,0,0,0,0, ,312.8,-201,921.3,-0.8,-0.7,-2.3,25,318.051,-198.618,925.496,-1.02263,-0.548743,-1.93322,
2026_07_06_16_56_56.476,3.858,32.7,0,0.763,0,0,0,0, ,0,0,0,0,0, ,317.9,-198.6,925.6,-0.7,-1.6,-2,25,317.887,-198.69,925.371,-1.00602,-0.585382,-1.94643,
2026_07_06_16_56_56.493,3.858,32.8,0,0.761,0,0,0,0, ,0,0,0,0,0, ,316.2,-196.7,927,-0.8,-2,-2.2,25,317.836,-198.627,925.428,-0.990414,-0.659398,-1.95578,
2026_07_06_16_56_56.512,3.858,32.8,0,0.761,0,0,0,0, ,0,0,0,0,0, ,320.5,-196.6,924.6,-1,-2.6,-2.3,25,317.867,-198.506,925.451,-0.984905,-0.759372,-1.97371,
2026_07_06_16_56_56.531,3.858,32.8,0,0.761,0,0,0,0, ,0,0,0,0,0, ,319.3,-200.1,922.9,-0.3,-2.2,-2.4,25,317.991,-198.497,925.347,-0.964496,-0.859348,-1.99664,
2026_07_06_16_56_56.552,3.858,32.7,0,0.759,0,0,0,0, ,0,0,0,0,0, ,321.7,-197.7,928.4,-0.3,-2.7,-2.3,25,318.144,-198.522,925.366,-0.924004,-0.956278,-2.01818,
2026_07_06_16_56_56.571,3.858,32.8,0,0.761,0,0,0,0, ,0,0,0,0,0, ,319.5,-196,925,-0.5,-2.6,-2.3,25,318.293,-198.42,925.447,-0.892072,-1.05949,-2.03535,
2026_07_06_16_56_56.591,3.858,32.8,0,0.759,0,0,0,0, ,0,0,0,0,0, ,327.2,-194.2,923.7,-2.2,-7.2,-2.9,25,318.602,-198.217,925.38,-0.919977,-1.29352,-2.06976,
2026_07_06_16_56_56.611,3.858,32.8,0,0.76,0,0,0,0, ,0,0,0,0,0, ,326.2,-196.7,909.9,-6.4,-13.7,-0.9,25,319.095,-198.049,924.857,-1.12595,-1.85149,-2.05941,
2026_07_06_16_56_56.631,3.858,32.7,0,0.759,0,0,0,0, ,0,0,0,0,0, ,296.9,-201.1,910.7,0.1,-21.9,-0.8,25,318.635,-198.101,923.97,-1.24929,-2.82336,-1.98571,
2026_07_06_16_56_56.650,3.858,32.9,0,0.763,0,0,0,0, ,0,0,0,0,0, ,283.6,-145.2,925.7,-2,-40.5,-6.6,25,316.906,-196.58,923.618,-1.23105,-4.55256,-2.09018,
2026_07_06_16_56_56.676,3.858,32.8,0,0.763,0,0,0,0, ,0,0,0,0,0, ,379.6,-198.6,919.7,1.7,-77.5,-8.5,25,317.801,-195.076,923.562,-1.16517,-7.87045,-2.42289,
2026_07_06_16_56_56.690,3.858,32.7,0,0.761,0,0,0,0, ,0,0,0,0,0, ,429.6,-196,1001.4,-6.6,-100.8,-0.5,25,323.09,-195.212,925.816,-1.24347,-12.8234,-2.54946,
2026_07_06_16_56_56.710,3.858,32.7,0,0.76,0,0,0,0, ,0,0,0,0,0, ,414,-200.1,940.6,2.5,-82.9,-2.6,25,329.105,-195.385,928.57,-1.29262,-17.6391,-2.48856,
2026_07_06_16_56_56.730,3.858,32.8,0,0.763,0,0,0,0, ,0,0,0,0,0, ,402,-200.1,892.5,17.6,-67.1,-8.3,25,333.913,-195.672,927.837,-0.601425,-21.1345,-2.66902,
2026_07_06_16_56_56.750,3.858,32.7,0,0.761,0,0,0,0, ,0,0,0,0,0, ,554,-254.1,848.5,15.5,-90.2,-12.3,25,342.693,-197.587,924.343,0.44374,-24.6394,-3.13403,
2026_07_06_16_56_56.768,3.858,32.8,0,0.763,0,0,0,0, ,0,0,0,0,0, ,619.5,-171.9,841.3,19.3,-179.8,-11.3,25,357.566,-198.526,919.502,1.47701,-31.3645,-3.66211,
2026_07_06_16_56_56.789,3.858,32.7,0,0.763,0,0,0,0, ,0,0,0,0,0, ,961.6,-246.7,903.9,6.1,-244.6,14.9,25,383.951,-199.183,916.644,2.16091,-42.3841,-3.32927,
2026_07_06_16_56_56.808,3.858,32.9,0,0.761,0,0,0,0, ,0,0,0,0,0, ,561.4,-29,883.1,-33,-207.4,25.6,25,406.957,-195.445,915.234,1.20962,-53.5732,-1.89241,
2026_07_06_16_56_56.828,3.858,32.8,0,0.761,0,0,0,0, ,0,0,0,0,0, ,732.7,-165.2,846.3,-64.2,-242.5,25.7,25,421.588,-189.453,912.154,-1.82565,-64.0165,-0.21404,
2026_07_06_16_56_56.848,3.858,32.8,0,0.76,0,0,0,0, ,0,0,0,0,0, ,824.2,-92.6,841.7,-79.4,-245.9,23.8,25,443.334,-185.763,908.001,-6.08971,-74.9964,1.30721,
2026_07_06_16_56_56.867,3.858,32.9,0,0.76,0,0,0,0, ,0,0,0,0,0, ,867.9,-384.7,627.9,-91.4,-250.1,22.2,25,467.875,-188.985,897.447,-10.9227,-85.5388,2.62911,
2026_07_06_16_56_56.888,3.858,32.7,0,0.76,0,0,0,0, ,0,0,0,0,0, ,939.5,-266.2,595,-71.6,-250.1,36.3,25,494.433,-197.301,880.019,-15.2235,-95.5668,4.25132,
2026_07_06_16_56_56.907,3.858,32.8,0,0.761,0,0,0,0, ,0,0,0,0,0, ,837.8,-255.2,540.1,-33,-247.7,36.8,25,518.456,-201.165,860.978,-17.4828,-104.911,6.21952,
2026_07_06_16_56_56.928,3.858,32.7,0,0.761,0,0,0,0, ,0,0,0,0,0, ,794.1,-256.9,479.3,-6.4,-240.1,28.7,25,536.584,-204.509,839.572,-17.6179,-113.38,7.83622,
2026_07_06_16_56_56.947,3.858,32.8,0,0.761,0,0,0,0, ,0,0,0,0,0, ,796.6,-246.3,322.7,52,-238.2,11.9,25,552.353,-207.379,812.846,-15.155,-121.044,8.59573,
2026_07_06_16_56_56.966,3.858,32.7,0,0.763,0,0,0,0, ,0,0,0,0,0, ,831,-275.7,234.9,90.4,-241.4,9.2,25,568.285,-210.646,780.303,-9.89272,-128.281,8.71482,
2026_07_06_16_56_56.987,3.858,32.9,0,0.762,0,0,0,0, ,0,0,0,0,0, ,837.4,-281,105.2,106.7,-242.1,24,25,584.489,-214.772,743.116,-3.28449,-135.195,9.19532,
2026_07_06_16_56_57.007,3.858,32.7,0,0.761,0,0,0,0, ,0,0,0,0,0, ,811.7,-301.3,-42.1,116.8,-232.7,30,25,599.118,-219.426,699.755,3.72542,-141.424,10.2803,
2026_07_06_16_56_57.026,3.858,32.7,0,0.761,0,0,0,0, ,0,0,0,0,0, ,783,-266.8,-75.1,45.7,-221.3,30.2,25,611.197,-223.364,653.542,8.44957,-146.638,11.4881,
2026_07_06_16_56_57.050,3.858,32.7,0,0.763,0,0,0,0, ,0,0,0,0,0, ,783.6,-308.2,-87.6,27.8,-222.8,28,25,621.685,-227.273,608.76,10.1741,-151.234,12.5613,
2026_07_06_16_56_57.066,3.858,32.7,0,0.762,0,0,0,0, ,0,0,0,0,0, ,721.6,-343,-120.4,31.9,-213.1,10.7,25,629.662,-233.264,565.326,11.3731,-155.299,12.975,
2026_07_06_16_56_57.086,3.858,32.7,0,0.758,0,0,0,0, ,0,0,0,0,0, ,671.2,-344.2,-161.4,15.9,-187.5,-4.2,25,633.729,-239.988,522.29,12.1365,-158.042,12.3824,
2026_07_06_16_56_57.105,3.858,32.7,0,0.761,0,0,0,0, ,0,0,0,0,0, ,606.9,-241.9,-359.9,32.3,-160.6,-55.4,25,634.054,-243.221,474.58,12.8655,-159.017,9.81187,
2026_07_06_16_56_57.126,3.858,32.7,0,0.763,0,0,0,0, ,0,0,0,0,0, ,792.6,-360.1,-236.3,26.9,-111,-84.8,25,638.057,-246.742,427.495,13.8853,-157.602,4.94224,
2026_07_06_16_56_57.145,3.858,32.8,0,0.761,0,0,0,0, ,0,0,0,0,0, ,646.7,-305.5,-276.7,16.9,-62.3,-88.6,25,643.029,-251.986,385.814,14.3737,-153.279,-0.642206,
2026_07_06_16_56_57.164,3.858,32.7,0,0.763,0,0,0,0, ,0,0,0,0,0, ,776.9,-296.8,-265.8,15.8,-27.8,-85.2,25,647.22,-254.982,345.774,14.4941,-146.683,-5.89854,
2026_07_06_16_56_57.185,3.858,32.8,0,0.76,0,0,0,0, ,0,0,0,0,0, ,959.5,-315.3,-309.8,14.3,-2.5,-70.6,25,660.686,-258.094,307.166,14.528,-138.668,-10.2861,
2026_07_06_16_56_57.203,3.858,32.7,0,0.761,0,0,0,0, ,0,0,0,0,0, ,941.2,-226.6,-341.4,29.6,5.9,-63.2,25,678.337,-258.878,268.606,14.9803,-130.114,-13.736,
2026_07_06_16_56_57.224,3.858,32.7,0,0.76,0,0,0,0, ,0,0,0,0,0, ,801.3,-182,-306.3,10.6,10.4,-65.5,25,690.093,-255.552,232.504,15.2922,-121.689,-16.8203,
2026_07_06_16_56_57.244,3.858,32.7,0,0.762,0,0,0,0, ,0,0,0,0,0, ,835.3,-163,-326.4,-1.7,-2.5,-69.6,25,697.905,-250.491,199.058,14.6315,-114.033,-19.9117,
2026_07_06_16_56_57.264,3.858,32.7,0,0.762,0,0,0,0, ,0,0,0,0,0, ,999.6,-182.2,-397.7,-6.8,-17.1,-58.6,25,711.284,-245.744,164.865,13.4809,-107.681,-22.6044,
2026_07_06_16_56_57.284,3.858,32.7,0,0.76,0,0,0,0, ,0,0,0,0,0, ,1180.9,-188.9,-304.3,-3.4,17.6,-38.9,25,734.377,-242.076,133.43,12.3487,-101.104,-24.1976,
2026_07_06_16_56_57.303,3.858,32.8,0,0.76,0,0,0,0, ,0,0,0,0,0, ,1121,-120.7,-363.6,-0.3,44.8,-35,25,759.762,-236.758,104.949,11.4834,-93.0418,-24.9747,
2026_07_06_16_56_57.323,3.858,32.7,0,0.76,0,0,0,0, ,0,0,0,0,0, ,1046.8,-109.3,-305.5,-1.6,40.2,-27.4,25,779.514,-229.338,78.1669,10.7258,-84.7822,-25.3541,
2026_07_06_16_56_57.343,3.858,32.8,0,0.759,0,0,0,0, ,0,0,0,0,0, ,996.7,-91.4,-282.7,-2.9,27.7,-24.6,25,794.275,-221.478,55.4819,9.93506,-77.547,-25.3934,
2026_07_06_16_56_57.362,3.858,32.7,0,0.763,0,0,0,0, ,0,0,0,0,0, ,990.2,-84.7,-256.8,-1,20.5,-27.4,25,806.413,-213.347,35.6631,9.21082,-71.3529,-25.4304,
2026_07_06_16_56_57.382,3.858,32.7,0,0.761,0,0,0,0, ,0,0,0,0,0, ,991,-91,-257,1.8,17.1,-25.6,25,817.637,-205.7,17.835,8.67391,-65.8592,-25.4956,
2026_07_06_16_56_57.402,3.858,32.8,0,0.761,0,0,0,0, ,0,0,0,0,0, ,955.5,-90,-253.4,2.4,27.6,-26.2,25,827.119,-198.68,1.19697,8.27331,-60.4839,-25.5202,
2026_07_06_16_56_57.423,3.858,32.7,0,0.761,0,0,0,0, ,0,0,0,0,0, ,944.5,-86.9,-200.4,-1.7,35.8,-27.1,25,834.607,-191.963,-12.7027,7.79049,-54.8665,-25.5891,
2026_07_06_16_56_57.442,3.858,32.8,0,0.761,0,0,0,0, ,0,0,0,0,0, ,938.5,-74.3,-195.9,-7.2,26.4,-18.8,25,841.121,-185.177,-24.0034,7.04458,-49.6279,-25.4283,
2026_07_06_16_56_57.461,3.858,32.8,0,0.763,0,0,0,0, ,0,0,0,0,0, ,900.1,-68.1,-226,-9.3,15.6,-17.2,25,845.885,-178.231,-35.3954,6.11257,-45.324,-24.9756,
2026_07_06_16_56_57.482,3.858,32.7,0,0.761,0,0,0,0, ,0,0,0,0,0, ,944.4,-72,-228.5,-9.4,2.8,-14.5,25,850.539,-171.639,-47.0866,5.17032,-42.0014,-24.4195,
2026_07_06_16_56_57.501,3.858,32.7,0,0.761,0,0,0,0, ,0,0,0,0,0, ,1021.2,-81.4,-213.2,-7.7,-1.7,-6.4,25,858.598,-165.853,-57.6753,4.33424,-39.4085,-23.5682,
2026_07_06_16_56_57.520,3.858,32.7,0,0.764,0,0,0,0, ,0,0,0,0,0, ,996.7,-79.8,-229.7,-8.1,5.3,0.3,25,867.76,-160.658,-67.6553,3.58871,-36.8973,-22.3179,
2026_07_06_16_56_57.540,3.858,32.8,0,0.762,0,0,0,0, ,0,0,0,0,0, ,922.2,-67.3,-255.2,-7.8,10.6,-3.4,25,873.348,-155.35,-78.3069,2.88557,-34.1644,-21.0524,
2026_07_06_16_56_57.561,3.858,32.7,0,0.76,0,0,0,0, ,0,0,0,0,0, ,932.2,-57.9,-232.1,-5.8,6.7,-9.2,25,876.629,-149.698,-88.3825,2.29536,-31.5554,-20.1534,
2026_07_06_16_56_57.580,3.858,32.7,0,0.759,0,0,0,0, ,0,0,0,0,0, ,946.7,-48.5,-234.2,-5.1,4.5,-11.5,25,880.457,-143.818,-97.2042,1.82337,-29.2913,-19.556,
2026_07_06_16_56_57.601,3.858,32.7,0,0.76,0,0,0,0, ,0,0,0,0,0, ,993.8,-51.2,-235.5,-4,3.4,-13.5,25,885.929,-138.092,-105.592,1.435,-27.2656,-19.126,
2026_07_06_16_56_57.620,3.858,32.8,0,0.759,0,0,0,0, ,0,0,0,0,0, ,1017.8,-55.9,-228.5,-4.1,6.8,-9.1,25,893.234,-132.94,-113.295,1.10076,-25.2934,-18.6491,
2026_07_06_16_56_57.639,3.858,32.7,0,0.762,0,0,0,0, ,0,0,0,0,0, ,983.3,-44.9,-223.9,-5.4,9,-3.3,25,899.773,-127.91,-120.175,0.744225,-23.2706,-17.8905,
2026_07_06_16_56_57.659,3.858,32.7,0,0.76,0,0,0,0, ,0,0,0,0,0, ,950,-41.9,-221.9,-7.5,10.4,-2.6,25,903.849,-122.76,-126.435,0.305827,-21.2615,-16.9801,
2026_07_06_16_56_57.679,3.858,32.7,0,0.76,0,0,0,0, ,0,0,0,0,0, ,958.7,-46,-215.5,-7.9,10.4,-4,25,906.926,-117.958,-132.057,-0.182028,-19.3321,-16.1464,
2026_07_06_16_56_57.699,3.858,32.8,0,0.763,0,0,0,0, ,0,0,0,0,0, ,980.8,-44.4,-202,-7.8,9.5,-3.6,25,910.754,-113.524,-136.731,-0.649295,-17.5477,-15.3941,
2026_07_06_16_56_57.719,3.858,32.7,0,0.761,0,0,0,0, ,0,0,0,0,0, ,1029.2,-43.4,-204.2,-8.7,14.7,-0.2,25,916.498,-109.281,-140.775,-1.11246,-15.7411,-14.5718,
2026_07_06_16_56_57.738,3.858,32.8,0,0.761,0,0,0,0, ,0,0,0,0,0, ,1043.9,-41.8,-180.9,-12.6,24.9,4.8,25,923.813,-105.218,-143.93,-1.69366,-13.5753,-13.5437,
2026_07_06_16_56_57.758,3.858,32.7,0,0.76,0,0,0,0, ,0,0,0,0,0, ,1036.9,-4,-116.9,-23,40.4,3.3,25,930.918,-100.202,-144.233,-2.67514,-10.7584,-12.4715,
2026_07_06_16_56_57.778,3.858,32.9,0,0.762,0,0,0,0, ,0,0,0,0,0, ,1094.9,-3.5,-93.3,-35.6,86.9,-10.3,25,939.143,-94.3242,-141.848,-4.29759,-6.22418,-11.9248,
2026_07_06_16_56_57.799,3.858,32.7,0,0.763,0,0,0,0, ,0,0,0,0,0, ,1197.2,-38.8,-90,-44.5,156.7,-19.4,25,951.752,-89.8652,-138.789,-6.47625,1.57729,-12.1031,
2026_07_06_16_56_57.817,3.858,32.7,0,0.76,0,0,0,0, ,0,0,0,0,0, ,1211.1,-58.9,-70.9,-48.1,220.4,-15.7,25,967.132,-87.3658,-135.234,-8.90301,12.9709,-12.435,
2026_07_06_16_56_57.838,3.858,32.7,0,0.762,0,0,0,0, ,0,0,0,0,0, ,1138.1,-53.1,-44.7,-51,250.1,-12.2,25,979.775,-85.4545,-130.516,-11.3799,26.5161,-12.5273,
2026_07_06_16_56_57.857,3.858,32.7,0,0.76,0,0,0,0, ,0,0,0,0,0, ,1087.5,-54.8,35.1,-51.1,250.1,-16.7,25,987.881,-83.5347,-122.855,-13.7973,40.1407,-12.6445,
2026_07_06_16_56_57.877,3.858,32.7,0,0.762,0,0,0,0, ,0,0,0,0,0, ,989.1,-97.4,107.2,-47.8,250.1,-21.9,25,990.953,-83.0816,-111.033,-15.9699,52.9351,-13.0501,
2026_07_06_16_56_57.897,3.858,32.7,0,0.763,0,0,0,0, ,0,0,0,0,0, ,812.8,-61.5,168.3,-67.3,250.1,-24.2,25,985.469,-82.8603,-95.8725,-18.5037,64.9498,-13.6594,
2026_07_06_16_56_57.916,3.858,32.8,0,0.762,0,0,0,0, ,0,0,0,0,0, ,712.2,2.8,273.1,-102.1,250.1,-38,25,971.882,-79.5995,-76.5814,-22.5375,76.2324,-14.7222,
2026_07_06_16_56_57.936,3.858,32.8,0,0.76,0,0,0,0, ,0,0,0,0,0, ,490.9,-149.9,397.3,-70.7,250.1,-36.5,25,949.315,-79.2309,-51.4885,-26.4292,86.8275,-16.095,
2026_07_06_16_56_57.955,3.858,32.7,0,0.761,0,0,0,0, ,0,0,0,0,0, ,660.6,-104.6,385.4,-14.4,250.1,-34.9,25,926.55,-82.157,-24.503,-27.4115,96.7769,-17.2897,
2026_07_06_16_56_57.983,3.858,32.9,0,0.762,0,0,0,0, ,0,0,0,0,0, ,599.9,-103.7,419.3,2.8,250.1,-13.5,25,908.495,-83.4972,1.50835,-26.0946,106.12,-17.7108,
2026_07_06_16_56_57.996,3.858,32.7,0,0.76,0,0,0,0, ,0,0,0,0,0, ,473.7,-80.9,493.2,18.7,229.8,-4.9,25,885.844,-84.0337,29.2192,-23.8494,114.275,-17.1922,
2026_07_06_16_56_58.016,3.858,32.8,0,0.762,0,0,0,0, ,0,0,0,0,0, ,394.5,-75.3,522.8,39.6,205.7,-4.6,25,858.316,-83.6721,58.3949,-20.6197,120.581,-16.434,
2026_07_06_16_56_58.035,3.858,32.7,0,0.763,0,0,0,0, ,0,0,0,0,0, ,341.6,-6.1,620.3,59.8,200.2,-14.9,25,828.441,-81.0535,89.6653,-16.3346,125.6,-16.0267,
2026_07_06_16_56_58.054,3.858,32.7,0,0.762,0,0,0,0, ,0,0,0,0,0, ,351.9,45.6,814,66.5,178.1,-15.9,25,799.088,-74.9108,127.903,-11.491,129.473,-15.9885,
2026_07_06_16_56_58.075,3.858,32.9,0,0.761,0,0,0,0, ,0,0,0,0,0, ,324,86.3,908,63.4,147.9,-10.8,25,770.987,-66.3271,172.576,-6.83288,131.516,-15.8277,
2026_07_06_16_56_58.094,3.858,32.7,0,0.763,0,0,0,0, ,0,0,0,0,0, ,253.6,112.6,904.9,58,104.3,-5.2,25,741.604,-56.225,217.296,-2.7176,131.186,-15.3507,
2026_07_06_16_56_58.114,3.858,32.8,0,0.76,0,0,0,0, ,0,0,0,0,0, ,228.5,178.5,932.8,59.2,69.8,5.2,25,711.101,-43.9294,260.047,1.01894,128.496,-14.4153,
2026_07_06_16_56_58.136,3.858,32.8,0,0.762,0,0,0,0, ,0,0,0,0,0, ,204.2,209.2,1052.3,75.7,66.6,9.3,25,680.952,-29.4397,304.684,5.06708,124.822,-13.095,
2026_07_06_16_56_58.154,3.858,32.7,0,0.76,0,0,0,0, ,0,0,0,0,0, ,127.4,232.9,1132.9,69.7,61.8,10.7,25,649.56,-14.1755,352.698,9.18847,121.128,-11.6877,
2026_07_06_16_56_58.176,3.858,32.8,0,0.762,0,0,0,0, ,0,0,0,0,0, ,61.8,270.2,1167.7,50.6,47.1,15.8,25,615.742,2.01718,401.302,12.2939,117.065,-10.168,
2026_07_06_16_56_58.193,3.858,32.9,0,0.76,0,0,0,0, ,0,0,0,0,0, ,15.1,288.3,1147,45.8,32.5,12.5,25,580.564,18.9111,447.373,14.482,112.356,-8.68616,
2026_07_06_16_56_58.213,3.858,32.8,0,0.762,0,0,0,0, ,0,0,0,0,0, ,19,284.7,1119,43.4,23.9,11.3,25,546.225,35.2173,489.154,16.3173,107.228,-7.43169,
2026_07_06_16_56_58.233,3.858,32.8,0,0.76,0,0,0,0, ,0,0,0,0,0, ,25.6,268,1122.3,43.6,10.9,11.2,25,514.298,49.9113,527.635,17.9737,101.754,-6.29327,
2026_07_06_16_56_58.253,3.858,32.8,0,0.762,0,0,0,0, ,0,0,0,0,0, ,13.9,268.4,1152.5,38.5,-2.8,8.1,25,484.161,63.2132,564.793,19.3799,95.8003,-5.32173,
2026_07_06_16_56_58.273,3.858,32.8,0,0.759,0,0,0,0, ,0,0,0,0,0, ,43.9,269.7,1234.8,23.8,-7.1,3.4,25,456.419,75.7564,603.114,20.0972,89.6608,-4.64705,
2026_07_06_16_56_58.292,3.858,32.7,0,0.763,0,0,0,0, ,0,0,0,0,0, ,110.3,263.1,1313.1,-1.2,19.5,-7.2,25,433.304,87.3738,643.993,19.5611,84.5749,-4.47965,
2026_07_06_16_56_58.312,3.858,32.8,0,0.76,0,0,0,0, ,0,0,0,0,0, ,23,221.4,1017.4,-2.9,8.9,-12.1,25,410.961,96.8115,675.757,18.2442,80.2865,-4.79472,
2026_07_06_16_56_58.331,3.858,32.7,0,0.762,0,0,0,0, ,0,0,0,0,0, ,124.1,182.2,978.7,-0.3,-22.1,-3,25,390.4,103.209,695.397,17.0349,74.9918,-4.96262,
2026_07_06_16_56_58.351,3.858,32.8,0,0.76,0,0,0,0, ,0,0,0,0,0, ,146.6,196.4,993.5,-0.7,-25.3,5.1,25,374.858,108.455,713.112,15.9664,68.9778,-4.59622,
2026_07_06_16_56_58.374,3.858,32.7,0,0.762,0,0,0,0, ,0,0,0,0,0, ,104.4,212.7,970.7,-2.9,-13.8,1.2,25,359.663,114.311,729.503,14.8837,63.5831,-4.12419,
2026_07_06_16_56_58.391,3.858,32.7,0,0.762,0,0,0,0, ,0,0,0,0,0, ,89.1,204.1,908.9,-3.9,-6.2,-5.8,25,343.642,120.045,742.318,13.7696,59.0991,-4.01303,
2026_07_06_16_56_58.411,3.858,32.9,0,0.762,0,0,0,0, ,0,0,0,0,0, ,119.5,206.1,905,-1,-5.6,-11,25,329.057,125.228,752.35,12.7812,55.1383,-4.28036,
2026_07_06_16_56_58.431,3.858,32.7,0,0.762,0,0,0,0, ,0,0,0,0,0, ,162.9,205.8,933.9,0.9,-8.8,-8.7,25,317.609,130.147,762.533,11.9993,51.3395,-4.61976,
2026_07_06_16_56_58.451,3.858,32.8,0,0.76,0,0,0,0, ,0,0,0,0,0, ,175.1,210.2,929.8,2.4,-9.6,-7.7,25,308.553,134.891,772.851,11.3686,47.6504,-4.83793,
2026_07_06_16_56_58.470,3.858,32.8,0,0.762,0,0,0,0, ,0,0,0,0,0, ,202.7,212.4,955.5,3.7,-9.1,-6.2,25,301.262,139.547,783.198,10.8617,44.1769,-4.96663,
2026_07_06_16_56_58.490,3.858,32.8,0,0.761,0,0,0,0, ,0,0,0,0,0, ,224.1,229.2,1000.9,1.4,-9.2,-3.6,25,295.908,144.498,795.081,10.3552,40.9273,-4.96257,
2026_07_06_16_56_58.511,3.858,32.8,0,0.763,0,0,0,0, ,0,0,0,0,0, ,230.9,244.3,1014.6,0,-8.8,-0.7,25,291.739,150.12,808.04,9.76686,37.8849,-4.79118,
2026_07_06_16_56_58.529,3.858,32.8,0,0.759,0,0,0,0, ,0,0,0,0,0, ,214.7,245.8,990.6,1.3,-9.4,1.2,25,287.538,155.905,819.896,9.2113,35.0217,-4.48398,
2026_07_06_16_56_58.554,3.858,32.8,0,0.762,0,0,0,0, ,0,0,0,0,0, ,230.9,272.4,1032.5,2.5,-14.4,6.4,25,283.593,162.193,831.575,8.76577,32.1624,-3.97918,
2026_07_06_16_56_58.568,3.858,32.8,0,0.76,0,0,0,0, ,0,0,0,0,0, ,306.6,325.6,1147.3,0.8,-29.9,21.5,25,282.689,170.53,847.317,8.33215,28.8528,-2.88662,
2026_07_06_16_56_58.589,3.858,32.9,0,0.762,0,0,0,0, ,0,0,0,0,0, ,244.8,403.3,1293.7,-9.8,-78.9,48.7,25,282.263,182.347,870.058,7.55019,23.7796,-0.571811,
2026_07_06_16_56_58.608,3.858,32.8,0,0.764,0,0,0,0, ,0,0,0,0,0, ,99.6,454.1,1464.8,-31.6,-162.4,66.3,25,275.556,197.359,901.087,5.8287,14.9784,2.96694,
2026_07_06_16_56_58.628,3.858,32.9,0,0.763,0,0,0,0, ,0,0,0,0,0, ,153.5,424.9,1411.4,-57.6,-229.8,62.4,25,266.476,212.115,933.811,2.7557,2.1158,6.70747,
2026_07_06_16_56_58.648,3.858,32.9,0,0.762,0,0,0,0, ,0,0,0,0,0, ,255.6,373.9,1218,-69.4,-250.1,42.3,25,262.702,223.527,957.021,-1.28176,-12.6351,9.48881,
2026_07_06_16_56_58.668,3.858,32.8,0,0.762,0,0,0,0, ,0,0,0,0,0, ,327.3,290.6,981.6,-61.2,-250.1,25.9,25,264.454,230.153,965.722,-5.18287,-27.1056,10.9886,
2026_07_06_16_56_58.687,3.858,32.8,0,0.762,0,0,0,0, ,0,0,0,0,0, ,429.4,192.7,798.2,-59.1,-250.1,26.7,25,271.395,230.853,961.101,-8.53243,-40.6943,11.9216,
2026_07_06_16_56_58.707,3.858,32.7,0,0.76,0,0,0,0, ,0,0,0,0,0, ,510,128.4,525.1,-55.9,-250.1,47.8,25,283.479,226.569,942.854,-11.5164,-53.455,13.465,
2026_07_06_16_56_58.727,3.858,32.9,0,0.762,0,0,0,0, ,0,0,0,0,0, ,562.5,-4.8,271.6,-48.5,-250.1,87.7,25,298.882,216.528,909.673,-13.9955,-65.438,16.773,
2026_07_06_16_56_58.749,3.858,32.8,0,0.763,0,0,0,0, ,0,0,0,0,0, ,626.7,-94.8,58.9,-15,-250.1,119.6,25,316.902,200.299,864.31,-15.0775,-76.6909,22.0671,
2026_07_06_16_56_58.767,3.858,32.8,0,0.76,0,0,0,0, ,0,0,0,0,0, ,637.3,-66.6,-56.3,17.4,-250.1,121.3,25,336.104,183.176,811.72,-14.0856,-87.258,28.0623,
2026_07_06_16_56_58.786,3.858,32.8,0,0.759,0,0,0,0, ,0,0,0,0,0, ,707,-221.8,-40.2,99.3,-250.1,91.4,25,356.581,163.226,759.316,-9.67151,-97.1812,32.833,
2026_07_06_16_56_58.806,3.858,32.8,0,0.76,0,0,0,0, ,0,0,0,0,0, ,666.5,-131.1,-145.6,84.4,-250.1,47.9,25,376.701,142.527,707.384,-3.48504,-106.5,35.0765,
2026_07_06_16_56_58.826,3.858,32.8,0,0.763,0,0,0,0, ,0,0,0,0,0, ,729.4,-214.2,-233.5,35.6,-250.1,19,25,396.277,123.321,652.727,0.383575,-115.25,34.9774,
2026_07_06_16_56_58.845,3.858,32.8,0,0.762,0,0,0,0, ,0,0,0,0,0, ,742.9,-219.2,-265,30.5,-250.1,7.6,25,416.988,102.601,597.763,2.37419,-123.468,33.6564,
2026_07_06_16_56_58.866,3.858,32.8,0,0.762,0,0,0,0, ,0,0,0,0,0, ,794.4,-217.4,-304.6,12.2,-193.7,-5,25,438.418,83.0462,543.981,3.53052,-129.466,31.6847,
2026_07_06_16_56_58.886,3.858,32.8,0,0.76,0,0,0,0, ,0,0,0,0,0, ,792.6,-166.3,-356.8,-1.6,-102.2,-23.6,25,460.055,66.2947,490.681,3.63835,-130.592,28.8825,
2026_07_06_16_56_58.905,3.858,32.8,0,0.762,0,0,0,0, ,0,0,0,0,0, ,822.9,-133.7,-371.8,-9.7,-38.3,-41.7,25,481.243,53.1142,438.58,3.07234,-126.915,25.1329,
2026_07_06_16_56_58.925,3.858,32.8,0,0.762,0,0,0,0, ,0,0,0,0,0, ,924.9,-141.3,-416.9,-19.7,-4.4,-41.6,25,505.171,41.4987,387.824,1.98934,-120.482,21.0633,
2026_07_06_16_56_58.944,3.858,32.8,0,0.762,0,0,0,0, ,0,0,0,0,0, ,936.1,-117.7,-479.4,-25.9,11.9,-28.8,25,531.089,31.0784,336.881,0.47874,-112.912,17.6347,
2026_07_06_16_56_58.965,3.858,32.7,0,0.76,0,0,0,0, ,0,0,0,0,0, ,898.9,-84.2,-537.5,-24.2,15.4,-20.4,25,554.636,23.033,285.369,-1.07692,-105.2,15.0611,
2026_07_06_16_56_58.983,3.858,32.8,0,0.759,0,0,0,0, ,0,0,0,0,0, ,878.9,-69,-553.1,-22.8,10.2,-18.3,25,575.005,16.9616,234.75,-2.44332,-98.0089,12.9641,
2026_07_06_16_56_59.004,3.858,32.8,0,0.762,0,0,0,0, ,0,0,0,0,0, ,897.4,-48.7,-544.3,-20.9,2.2,-16,25,594.087,12.3418,187.009,-3.62592,-91.6587,11.1291,
2026_07_06_16_56_59.023,3.858,32.8,0,0.762,0,0,0,0, ,0,0,0,0,0, ,920.7,-25,-536.4,-16.2,-0.4,-15.7,25,613.281,9.34419,142.685,-4.53535,-86.0184,9.48503,
2026_07_06_16_56_59.044,3.858,32.9,0,0.763,0,0,0,0, ,0,0,0,0,0, ,966.5,-21.4,-516.9,-13.2,-0.6,-12,25,633.409,7.36103,101.898,-5.15476,-80.8071,8.06305,
2026_07_06_16_56_59.063,3.858,32.9,0,0.762,0,0,0,0, ,0,0,0,0,0, ,960.6,-21.1,-499,-13.2,5.6,-4.6,25,653.527,5.61754,64.735,-5.64502,-75.7306,7.06593,
2026_07_06_16_56_59.083,3.858,32.7,0,0.762,0,0,0,0, ,0,0,0,0,0, ,918.4,-8.4,-479.3,-13.3,14,-1.3,25,670.954,4.3764,30.9827,-6.10845,-70.5186,6.45558,
2026_07_06_16_56_59.103,3.858,32.8,0,0.759,0,0,0,0, ,0,0,0,0,0, ,876.8,7,-480.9,-11.4,16.9,-4.2,25,684.765,4.06705,-0.161436,-6.48879,-65.2799,5.89461,
2026_07_06_16_56_59.122,3.858,32.8,0,0.763,0,0,0,0, ,0,0,0,0,0, ,883.1,2.3,-468.5,-7.9,14.1,-9,25,696.659,4.10258,-29.0786,-6.68143,-60.3574,5.13322,
2026_07_06_16_56_59.143,3.858,32.8,0,0.762,0,0,0,0, ,0,0,0,0,0, ,926.3,-4.3,-449.3,-6.6,9.9,-7.4,25,709.337,3.79164,-55.2709,-6.71608,-55.9481,4.32073,
2026_07_06_16_56_59.162,3.858,32.8,0,0.76,0,0,0,0, ,0,0,0,0,0, ,937.8,-8.1,-425,-6.3,12.7,-3.4,25,722.908,3.18277,-78.5416,-6.69986,-51.8502,3.72837,
2026_07_06_16_56_59.181,3.858,32.8,0,0.76,0,0,0,0, ,0,0,0,0,0, ,920.1,-3.2,-418,-7.6,16.8,-2,25,735.464,2.64453,-99.4406,-6.7151,-47.7917,3.33665,
2026_07_06_16_56_59.201,3.858,32.7,0,0.762,0,0,0,0, ,0,0,0,0,0, ,912.2,-9.6,-426.6,-8.3,17.5,-1.6,25,746.474,2.09337,-119.115,-6.79036,-43.8343,3.02363,
2026_07_06_16_56_59.222,3.858,32.8,0,0.76,0,0,0,0, ,0,0,0,0,0, ,896.8,-5.3,-424.3,-7.6,15.2,-3.2,25,756.104,1.51183,-137.782,-6.86102,-40.1668,2.69313,
2026_07_06_16_56_59.241,3.858,32.8,0,0.763,0,0,0,0, ,0,0,0,0,0, ,908,-10.9,-417.8,-5.9,11.6,-4.5,25,765.019,0.926105,-155.044,-6.85426,-36.9026,2.29441,
2026_07_06_16_56_59.261,3.858,32.8,0,0.762,0,0,0,0, ,0,0,0,0,0, ,920.5,-18.7,-415.2,-4.3,9,-2.5,25,774.113,-0.0322045,-170.976,-6.74736,-34.0262,1.94131,
2026_07_06_16_56_59.281,3.858,32.8,0,0.76,0,0,0,0, ,0,0,0,0,0, ,928.3,-20.2,-412.1,-1.5,10.8,0,25,783.271,-1.21548,-185.764,-6.51291,-31.3494,1.74684,
2026_07_06_16_56_59.300,3.858,32.8,0,0.759,0,0,0,0, ,0,0,0,0,0, ,913.4,-7.8,-391.8,-1.3,12.8,1.4,25,791.655,-1.99453,-198.938,-6.20134,-28.72,1.68305,
2026_07_06_16_56_59.319,3.858,32.8,0,0.763,0,0,0,0, ,0,0,0,0,0, ,899,-0.1,-380.9,-2.4,12.9,0.3,25,798.635,-2.11369,-210.358,-5.93618,-26.1869,1.63228,
2026_07_06_16_56_59.340,3.858,32.9,0,0.76,0,0,0,0, ,0,0,0,0,0, ,902.4,-3.1,-383.6,-2.9,13.2,-2.3,25,804.854,-2.08239,-220.833,-5.73593,-23.7959,1.47188,
2026_07_06_16_56_59.360,3.858,32.8,0,0.763,0,0,0,0, ,0,0,0,0,0, ,911.4,-6.3,-381.9,-4.3,12.3,-3.2,25,811.073,-2.2419,-230.7,-5.60577,-21.5688,1.21461,
2026_07_06_16_56_59.380,3.858,32.8,0,0.762,0,0,0,0, ,0,0,0,0,0, ,920,-12.5,-380,-4.6,12.1,-2,25,817.448,-2.6781,-239.856,-5.53534,-19.5111,0.982156,
2026_07_06_16_56_59.400,3.858,32.8,0,0.763,0,0,0,0, ,0,0,0,0,0, ,912.9,-8.7,-377.6,-4.1,11,-0.3,25,823.481,-3.16084,-248.323,-5.46311,-17.6183,0.852227,
2026_07_06_16_56_59.419,3.858,32.8,0,0.762,0,0,0,0, ,0,0,0,0,0, ,903.4,-4.7,-370.7,-4.6,9.2,-0.3,25,828.641,-3.37651,-255.99,-5.39528,-15.9292,0.782014,
2026_07_06_16_56_59.439,3.858,32.8,0,0.762,0,0,0,0, ,0,0,0,0,0, ,903.6,-0.1,-374.5,-5,6.1,-1.9,25,833.203,-3.317,-263.096,-5.359,-14.4923,0.667328,
2026_07_06_16_56_59.458,3.858,32.8,0,0.76,0,0,0,0, ,0,0,0,0,0, ,931.1,-12.5,-375.9,-4.9,6.4,-2,25,838.33,-3.49878,-269.928,-5.33408,-13.2283,0.507835,
2026_07_06_16_56_59.479,3.858,32.8,0,0.762,0,0,0,0, ,0,0,0,0,0, ,932.7,-8.4,-366.5,-5.5,7.6,-0.8,25,844.032,-3.92237,-276.099,-5.32591,-11.9957,0.391576,
2026_07_06_16_56_59.497,3.858,32.8,0,0.76,0,0,0,0, ,0,0,0,0,0, ,945.8,2.1,-359.4,-6.6,12.3,0.1,25,849.835,-3.8753,-281.391,-5.37003,-10.6584,0.346386,
2026_07_06_16_56_59.518,3.858,32.8,0,0.764,0,0,0,0, ,0,0,0,0,0, ,1013.7,27.4,-308.2,-15.2,26.3,0.9,25,857.751,-2.74032,-284.585,-5.70702,-8.83278,0.355747,
2026_07_06_16_56_59.538,3.858,32.8,0,0.762,0,0,0,0, ,0,0,0,0,0, ,1132.8,37.1,-257.5,-35,73.5,1.8,25,870.883,-0.6081,-284.479,-6.88878,-5.25375,0.416335,
2026_07_06_16_56_59.558,3.858,32.8,0,0.762,0,0,0,0, ,0,0,0,0,0, ,1176.5,19.4,-279.2,-43.1,149.1,-2,25,888.175,1.15044,-283.496,-8.8486,1.84874,0.38487,
2026_07_06_16_56_59.580,3.858,32.8,0,0.762,0,0,0,0, ,0,0,0,0,0, ,1178.8,0.6,-285.6,-48.5,221.6,-3.2,25,905.815,1.68971,-283.43,-11.1003,13.0308,0.20298,
2026_07_06_16_56_59.596,3.858,32.8,0,0.762,0,0,0,0, ,0,0,0,0,0, ,1231.5,-14.1,-259.6,-64.9,250.1,-2.2,25,924.056,1.17542,-282.77,-13.8791,26.6089,0.0260796,
2026_07_06_16_56_59.617,3.858,32.8,0,0.762,0,0,0,0, ,0,0,0,0,0, ,1201.6,-52.1,-262.2,-66.3,250.1,6,25,941.88,-0.913242,-281.437,-17.0308,40.2279,0.140272,
2026_07_06_16_56_59.637,3.858,32.8,0,0.762,0,0,0,0, ,0,0,0,0,0, ,1129.8,-51.8,-124.2,-72.2,250.1,19.1,25,955.519,-4.02329,-276.06,-20.2129,53.017,0.896489,
2026_07_06_16_56_59.656,3.858,32.9,0,0.76,0,0,0,0, ,0,0,0,0,0, ,1039.1,-55.5,-7.2,-118,250.1,33.9,25,963.376,-7.04742,-263.241,-24.7763,65.0267,2.4567,
2026_07_06_16_56_59.676,3.858,32.8,0,0.762,0,0,0,0, ,0,0,0,0,0, ,809.8,-161.7,50.2,-155.7,250.1,44.9,25,961.003,-13.2358,-245.89,-31.6058,76.3046,4.70794,
2026_07_06_16_56_59.696,3.858,32.8,0,0.762,0,0,0,0, ,0,0,0,0,0, ,600.3,-128.6,49.9,-15,250.1,38.2,25,945.406,-21.2743,-227.856,-34.8809,86.8953,6.953,
2026_07_06_16_56_59.715,3.858,32.7,0,0.762,0,0,0,0, ,0,0,0,0,0, ,418.7,-129.3,130.9,-15.8,250.1,6.4,25,918.843,-27.8358,-208.462,-33.6937,96.8406,7.88821,
2026_07_06_16_56_59.735,3.858,32.9,0,0.762,0,0,0,0, ,0,0,0,0,0, ,427.8,-160,217.1,6.4,250.1,-7.3,25,888.643,-34.9542,-185.156,-31.9269,106.18,7.3801,
2026_07_06_16_56_59.755,3.858,32.8,0,0.763,0,0,0,0, ,0,0,0,0,0, ,355.9,-145.3,298.5,28.7,250.1,1.3,25,858.37,-42.1262,-158.163,-28.9119,114.95,6.74756,
2026_07_06_16_56_59.780,3.858,32.7,0,0.76,0,0,0,0, ,0,0,0,0,0, ,317.3,-119.5,422.8,48.4,250.1,16.5,25,826.574,-47.6273,-126.548,-24.801,123.186,6.87872,
2026_07_06_16_56_59.796,3.858,32.9,0,0.762,0,0,0,0, ,0,0,0,0,0, ,222.6,-66.7,538,65.7,208.1,33.9,25,792.655,-50.3983,-89.5622,-19.8132,129.64,7.99518,
2026_07_06_16_56_59.814,3.858,32.7,0,0.762,0,0,0,0, ,0,0,0,0,0, ,147.3,26.7,677.6,85.2,150.3,32.2,25,755.623,-48.5459,-47.0667,-14.0081,132.66,9.52195,
2026_07_06_16_56_59.835,3.858,32.8,0,0.762,0,0,0,0, ,0,0,0,0,0, ,173.2,93.3,904.1,98.9,108.6,27.5,25,719.343,-41.9314,3.99382,-7.54517,132.464,10.7607,
2026_07_06_16_56_59.854,3.858,32.8,0,0.76,0,0,0,0, ,0,0,0,0,0, ,200.3,176.2,1062.2,98.9,95.7,20.5,25,686.888,-31.1649,63.6611,-1.05867,130.617,11.5675,
2026_07_06_16_56_59.873,3.858,32.8,0,0.762,0,0,0,0, ,0,0,0,0,0, ,216.7,227.1,1156.7,92.9,99.4,21.2,25,657.736,-16.9777,127.389,4.84975,128.602,12.1331,
2026_07_06_16_56_59.894,3.858,32.8,0,0.76,0,0,0,0, ,0,0,0,0,0, ,115.8,285.2,1203.2,93.5,100,29.8,25,627.786,-0.333989,191.529,10.2336,126.841,12.9477,
2026_07_06_16_56_59.914,3.858,32.8,0,0.76,0,0,0,0, ,0,0,0,0,0, ,-8.6,331.6,1281.9,84.7,66.5,37.3,25,592.797,18.4795,255.576,15.0395,124.184,14.2031,
2026_07_06_16_56_59.934,3.858,32.9,0,0.76,0,0,0,0, ,0,0,0,0,0, ,-68.1,371.3,1360.5,64.3,19.2,41.4,25,554.336,38.7699,320.512,18.6629,119.228,15.7355,
2026_07_06_16_56_59.953,3.858,32.8,0,0.762,0,0,0,0, ,0,0,0,0,0, ,-72.9,365.9,1358,37.4,-8.3,36.1,25,516.26,58.8689,383.81,20.6243,112.295,17.138,
2026_07_06_16_56_59.973,3.858,32.8,0,0.762,0,0,0,0, ,0,0,0,0,0, ,-20.1,320.9,1307,20.2,3.5,24.7,25,481.967,76.2075,441.621,21.1225,105.306,17.9461,
2026_07_06_16_56_59.998,3.858,32.7,0,0.763,0,0,0,0, ,0,0,0,0,0, ,-37.5,275,1229.2,12.3,18.6,12.8,25,450.842,89.7199,491.985,20.8256,99.5619,17.9951,
2026_07_06_16_57_00.012,3.858,32.8,0,0.763,0,0,0,0, ,0,0,0,0,0, ,-41.2,232.2,1185.5,3.6,4.6,6.1,25,420.971,99.7064,535.577,20.041,94.2017,17.4744,
2026_07_06_16_57_00.034,3.858,32.8,0,0.76,0,0,0,0, ,0,0,0,0,0, ,-16.6,197.5,1116.4,-6.8,-13.9,1.3,25,393.557,106.723,573.077,18.7222,88.1779,16.635,
2026_07_06_16_57_00.052,3.858,32.8,0,0.762,0,0,0,0, ,0,0,0,0,0, ,34.5,174.9,1053.2,-12.3,-12.7,-2.6,25,370.12,111.566,604.26,16.9994,81.9941,15.5817,
2026_07_06_16_57_00.072,3.858,32.8,0,0.762,0,0,0,0, ,0,0,0,0,0, ,82.1,151.2,980.1,-12.7,2.9,-3.4,25,351.118,114.703,629.39,15.2018,76.699,14.4494,
2026_07_06_16_57_00.091,3.858,32.8,0,0.762,0,0,0,0, ,0,0,0,0,0, ,47.4,134.2,926.1,-8.5,5.6,-1.4,25,333.668,116.409,649.116,13.6295,72.2841,13.4226,
2026_07_06_16_57_00.110,3.858,32.8,0,0.762,0,0,0,0, ,0,0,0,0,0, ,29.4,134.8,918.7,-7.8,-2,0,25,315.675,117.512,665.769,12.3023,67.989,12.562,
2026_07_06_16_57_00.131,3.858,32.8,0,0.762,0,0,0,0, ,0,0,0,0,0, ,26,145.9,925,-7.4,-17.3,1.4,25,298.127,118.904,681.374,11.0895,63.2579,11.8392,
2026_07_06_16_57_00.150,3.858,32.8,0,0.763,0,0,0,0, ,0,0,0,0,0, ,62.2,154.9,925.5,-5.9,-11.4,-3,25,282.647,120.823,696.235,10.0085,58.5287,11.069,
2026_07_06_16_57_00.170,3.858,32.8,0,0.76,0,0,0,0, ,0,0,0,0,0, ,106.5,150.8,926.3,-0.2,7,-6.2,25,270.563,122.774,710.23,9.21274,54.828,10.1142,
2026_07_06_16_57_00.190,3.858,32.8,0,0.76,0,0,0,0, ,0,0,0,0,0, ,79.9,155.2,940.7,3.1,9.9,-5.2,25,259.755,124.616,723.836,8.7397,52.0018,9.15048,
2026_07_06_16_57_00.210,3.858,32.8,0,0.76,0,0,0,0, ,0,0,0,0,0, ,75.6,158.9,956.4,1.8,-7.2,-2.3,25,248.664,126.593,737.529,8.35642,48.9152,8.36435,
2026_07_06_16_57_00.230,3.858,32.8,0,0.762,0,0,0,0, ,0,0,0,0,0, ,97.7,165.1,965.9,0.5,-18.7,-0.7,25,238.791,128.75,751.156,7.91728,45.1453,7.76324,
2026_07_06_16_57_00.250,3.858,32.8,0,0.76,0,0,0,0, ,0,0,0,0,0, ,114.9,173.3,987.3,0.5,-10.1,-1.7,25,230.718,131.215,764.894,7.46529,41.5168,7.21705,
2026_07_06_16_57_00.270,3.858,32.9,0,0.762,0,0,0,0, ,0,0,0,0,0, ,120.3,176.5,1005.3,0.6,6.6,-6.3,25,223.825,133.877,778.996,7.04389,38.8802,6.53351,
2026_07_06_16_57_00.290,3.858,32.7,0,0.762,0,0,0,0, ,0,0,0,0,0, ,109.7,175.9,993.4,0.3,5.2,-6.9,25,217.193,136.456,792.423,6.64207,36.8705,5.73318,
2026_07_06_16_57_00.309,3.858,32.9,0,0.762,0,0,0,0, ,0,0,0,0,0, ,114.8,174.4,983.7,-0.4,-6.3,-4.2,25,210.798,138.814,804.375,6.23427,34.5902,5.04562,
2026_07_06_16_57_00.329,3.858,32.8,0,0.762,0,0,0,0, ,0,0,0,0,0, ,121.5,176.8,975.3,-1.4,-10.3,-1.2,25,205.152,141.056,815.047,5.79953,31.9766,4.57362,
2026_07_06_16_57_00.349,3.858,32.9,0,0.762,0,0,0,0, ,0,0,0,0,0, ,108.8,183.1,976.4,-0.2,-2.2,-2.7,25,199.668,143.426,824.846,5.39737,29.6471,4.17608,
2026_07_06_16_57_00.368,3.858,32.7,0,0.762,0,0,0,0, ,0,0,0,0,0, ,92.7,185.9,987.1,-1.1,2.8,-6,25,193.64,145.929,834.407,5.02886,27.8588,3.65653,
2026_07_06_16_57_00.387,3.858,32.8,0,0.762,0,0,0,0, ,0,0,0,0,0, ,92.4,178.4,978.1,-1.6,-0.9,-8.2,25,187.48,148.136,843.437,4.64015,26.219,3.00105,
2026_07_06_16_57_00.408,3.858,32.9,0,0.761,0,0,0,0, ,0,0,0,0,0, ,107.6,166.1,965.8,-0.4,-6.1,-8.4,25,182.149,149.606,851.269,4.29645,24.408,2.31239,
2026_07_06_16_57_00.427,3.858,32.7,0,0.761,0,0,0,0, ,0,0,0,0,0, ,114.7,175.7,956.2,1.7,-6,-7.2,25,177.823,150.903,857.955,4.07425,22.552,1.69617,
2026_07_06_16_57_00.447,3.858,32.8,0,0.762,0,0,0,0, ,0,0,0,0,0, ,119.5,174.1,977.5,4.2,3,-7.1,25,174.122,152.366,864.591,4.00574,21.0863,1.15711,
2026_07_06_16_57_00.467,3.858,32.8,0,0.761,0,0,0,0, ,0,0,0,0,0, ,104,175.5,995.9,2.4,3.6,-6.6,25,170.321,153.733,872.032,3.96273,20.0025,0.669172,
2026_07_06_16_57_00.486,3.858,32.7,0,0.761,0,0,0,0, ,0,0,0,0,0, ,94.4,173.9,983.8,-0.9,-2.4,-6.5,25,165.987,155.01,879.212,3.76696,18.8201,0.229254,
2026_07_06_16_57_00.507,3.858,32.9,0,0.762,0,0,0,0, ,0,0,0,0,0, ,118.7,170.6,965.4,-0.3,-5.7,-6.1,25,162.366,156.061,885.024,3.50084,17.4265,-0.168622,
2026_07_06_16_57_00.526,3.858,32.7,0,0.762,0,0,0,0, ,0,0,0,0,0, ,134.1,176.6,984.9,1.1,-0.4,-4,25,160.174,157.13,890.516,3.31189,16.1787,-0.466081,
2026_07_06_16_57_00.547,3.858,32.8,0,0.763,0,0,0,0, ,0,0,0,0,0, ,111.4,182.1,991.2,0.4,4.9,-2.7,25,157.893,158.484,896.46,3.15577,15.3299,-0.64182,
2026_07_06_16_57_00.565,3.858,32.8,0,0.761,0,0,0,0, ,0,0,0,0,0, ,77.2,182.7,987.6,-0.6,3.2,-3.8,25,154.018,159.941,902.123,2.95737,14.6425,-0.800756,
2026_07_06_16_57_00.585,3.858,32.8,0,0.76,0,0,0,0, ,0,0,0,0,0, ,90.4,180.6,982.4,-1.8,-1.7,-5.6,25,149.739,161.264,907.174,2.70403,13.796,-1.03837,
2026_07_06_16_57_00.606,3.858,32.8,0,0.762,0,0,0,0, ,0,0,0,0,0, ,113,179.9,976.1,-1.4,-2.5,-4.4,25,146.812,162.421,911.566,2.44176,12.8273,-1.27978,
2026_07_06_16_57_00.625,3.858,32.9,0,0.76,0,0,0,0, ,0,0,0,0,0, ,119,179.5,978.7,-0.1,4.3,-4.3,25,144.934,163.474,915.578,2.24726,12.1005,-1.46687,
2026_07_06_16_57_00.645,3.858,32.9,0,0.763,0,0,0,0, ,0,0,0,0,0, ,102.4,179.1,982.4,-0.4,5.8,-4,25,142.848,164.438,919.537,2.09508,11.6709,-1.63037,
2026_07_06_16_57_00.665,3.858,32.9,0,0.76,0,0,0,0, ,0,0,0,0,0, ,114.5,182.3,1002.6,-1,-1.3,-3.3,25,140.752,165.429,923.983,1.92476,11.0968,-1.75344,
2026_07_06_16_57_00.685,3.858,32.8,0,0.762,0,0,0,0, ,0,0,0,0,0, ,137.8,186.2,1014.7,-1.3,-3.8,-1.6,25,139.862,166.576,929.142,1.73739,10.2652,-1.79589,
2026_07_06_16_57_00.704,3.858,32.8,0,0.76,0,0,0,0, ,0,0,0,0,0, ,130.2,213,1042.7,1.8,-2.8,0,25,139.505,168.589,935.209,1.64675,9.43854,-1.7352,
2026_07_06_16_57_00.723,3.858,32.8,0,0.762,0,0,0,0, ,0,0,0,0,0, ,88.2,276.8,1185.9,2.1,-23.9,-1.5,25,137.658,173.239,946.123,1.66523,8.04986,-1.67517,
2026_07_06_16_57_00.744,3.858,32.9,0,0.762,0,0,0,0, ,0,0,0,0,0, ,46.9,299.6,1288,-4.3,-46.6,-2.8,25,133.386,180.244,963.845,1.49672,5.41128,-1.7041,
2026_07_06_16_57_00.763,3.858,32.8,0,0.762,0,0,0,0, ,0,0,0,0,0, ,31.9,317.2,1316.5,-9.7,-100.1,-7.6,25,127.659,188.054,984.466,0.978955,0.611764,-1.91713,
2026_07_06_16_57_00.783,3.858,32.8,0,0.762,0,0,0,0, ,0,0,0,0,0, ,42.6,352.4,1203.9,-13.8,-151.5,-9.7,25,122.149,196.996,1001.27,0.203284,-7.09145,-2.32742,
2026_07_06_16_57_00.803,3.858,32.8,0,0.76,0,0,0,0, ,0,0,0,0,0, ,67.1,357.2,1163.5,-21.2,-211.7,-8.5,25,118.048,206.612,1012.39,-0.87551,-17.7256,-2.74012,
2026_07_06_16_57_00.822,3.858,32.8,0,0.762,0,0,0,0, ,0,0,0,0,0, ,129,401.7,1193.3,-29.2,-250.1,2.9,25,116.83,217.145,1022.5,-2.35778,-30.7159,-2.74377,
2026_07_06_16_57_00.843,3.858,32.8,0,0.762,0,0,0,0, ,0,0,0,0,0, ,186.1,380.4,1150.3,-42,-250.1,27.6,25,119.311,227.742,1031.6,-4.38348,-44.0846,-1.64728,
2026_07_06_16_57_00.863,3.858,32.8,0,0.762,0,0,0,0, ,0,0,0,0,0, ,282.3,268.1,707,-73.5,-250.1,50.1,25,126.312,233.623,1025.33,-7.6355,-56.6387,0.820527,
2026_07_06_16_57_00.883,3.858,32.8,0,0.762,0,0,0,0, ,0,0,0,0,0, ,592.8,24.1,157.4,-64.4,-250.1,83.8,25,145.278,228.289,989.183,-11.3719,-68.4277,4.85029,
2026_07_06_16_57_00.902,3.858,32.8,0,0.759,0,0,0,0, ,0,0,0,0,0, ,756.2,-51.8,-109.2,-13.4,-250.1,93.8,25,177.528,213.534,930.373,-13.0494,-79.4984,9.96598,
2026_07_06_16_57_00.921,3.858,32.9,0,0.76,0,0,0,0, ,0,0,0,0,0, ,922.2,-107.4,-222.9,22.2,-250.1,90.8,25,217.848,195.671,863.56,-11.986,-89.8944,14.9832,
2026_07_06_16_57_00.941,3.858,32.8,0,0.763,0,0,0,0, ,0,0,0,0,0, ,1069.8,-152.8,-157.7,17.6,-250.1,52.1,25,265.267,175.82,799.34,-10.043,-99.6569,18.4242,
2026_07_06_16_57_00.961,3.858,32.8,0,0.762,0,0,0,0, ,0,0,0,0,0, ,1094.8,-194.7,-131.4,45.1,-214.9,20.6,25,315.055,154.518,741.822,-7.52059,-107.752,19.5165,
2026_07_06_16_57_00.982,3.858,32.9,0,0.762,0,0,0,0, ,0,0,0,0,0, ,988.7,-204.8,-132.4,38.9,-77.9,23.2,25,359.338,132.929,688.58,-4.50293,-110.107,19.6618,
2026_07_06_16_57_01.001,3.858,32.8,0,0.762,0,0,0,0, ,0,0,0,0,0, ,768,-162.1,-186.1,35.7,0.3,24.3,25,390.965,113.65,636.915,-1.95557,-105.762,19.9109,
2026_07_06_16_57_01.021,3.858,32.8,0,0.762,0,0,0,0, ,0,0,0,0,0, ,601.1,-97.1,-204.8,23.9,24.4,12.9,25,408.855,98.827,586.193,-0.0204606,-98.5644,19.831,
2026_07_06_16_57_01.041,3.858,32.8,0,0.762,0,0,0,0, ,0,0,0,0,0, ,641.3,-85,-202.5,27,17.1,-3.8,25,421.795,87.2564,538.062,1.53165,-91.2937,18.8998,
2026_07_06_16_57_01.061,3.858,32.7,0,0.762,0,0,0,0, ,0,0,0,0,0, ,828.8,-84.8,-243,26.9,11.4,-17.7,25,440.884,76.7656,491.7,3.08058,-84.8621,17.093,
2026_07_06_16_57_01.080,3.858,32.8,0,0.76,0,0,0,0, ,0,0,0,0,0, ,977.6,-115.4,-276,1.2,27.3,-21.1,25,469.057,65.9879,445.924,3.74903,-78.5117,14.8692,
2026_07_06_16_57_01.099,3.858,32.8,0,0.762,0,0,0,0, ,0,0,0,0,0, ,987.3,-104.7,-244.2,-11.2,47.9,-17.4,25,500.341,55.2606,402.9,3.21588,-71.4362,12.7901,
2026_07_06_16_57_01.119,3.858,32.8,0,0.762,0,0,0,0, ,0,0,0,0,0, ,918.3,-67.7,-228.3,-17.8,50.4,-15.6,25,527.913,46.6403,363.952,2.13632,-64.0879,11.0052,
2026_07_06_16_57_01.138,3.858,32.8,0,0.762,0,0,0,0, ,0,0,0,0,0, ,911.6,-37.7,-220.3,-21.6,35.5,-16.7,25,551.498,40.5868,328.105,0.80567,-57.5653,9.35046,
2026_07_06_16_57_01.160,3.858,32.7,0,0.762,0,0,0,0, ,0,0,0,0,0, ,964.2,-16.7,-193.9,-23.5,20.3,-18.6,25,575.045,36.456,295.491,-0.617566,-52.3573,7.70512,
2026_07_06_16_57_01.178,3.858,32.9,0,0.762,0,0,0,0, ,0,0,0,0,0, ,1040.8,-21.2,-187.7,-19,12.9,-15.4,25,601.093,33.0797,265.858,-1.87486,-48.1552,6.19965,
2026_07_06_16_57_01.199,3.858,32.9,0,0.76,0,0,0,0, ,0,0,0,0,0, ,1047.2,-14.2,-199.3,-11.4,12.2,-8.7,25,628.082,29.9853,237.866,-2.68686,-44.456,5.08756,
2026_07_06_16_57_01.218,3.858,32.8,0,0.763,0,0,0,0, ,0,0,0,0,0, ,1019.5,-7.4,-194.8,-4.3,8.1,-5.2,25,652.778,27.5,211.363,-3.00149,-41.1284,4.35402,
2026_07_06_16_57_01.238,3.858,32.8,0,0.762,0,0,0,0, ,0,0,0,0,0, ,1001,1.9,-171.6,-0.8,3.7,-3.8,25,674.562,25.6566,187.319,-2.97397,-38.2626,3.81448,
2026_07_06_16_57_01.258,3.858,32.8,0,0.763,0,0,0,0, ,0,0,0,0,0, ,1002.8,8.1,-133.4,-1.7,7.9,-5.6,25,694.509,24.3978,166.612,-2.86892,-35.5776,3.29563,
2026_07_06_16_57_01.279,3.858,32.8,0,0.762,0,0,0,0, ,0,0,0,0,0, ,994.1,16.2,-110.5,-4.1,14.7,-8.8,25,713.03,23.6515,149.027,-2.87081,-32.721,2.65605,
2026_07_06_16_57_01.298,3.858,32.8,0,0.762,0,0,0,0, ,0,0,0,0,0, ,1018.3,12.4,-132.6,-8.5,19.1,-10.3,25,730.895,23.0816,132.539,-3.07978,-29.6972,1.91224,
2026_07_06_16_57_01.317,3.858,32.8,0,0.76,0,0,0,0, ,0,0,0,0,0, ,1017.2,10.1,-122.5,-12.1,23.5,-7.6,25,748.376,22.3606,116.69,-3.51976,-26.5895,1.25033,
2026_07_06_16_57_01.337,3.858,32.8,0,0.76,0,0,0,0, ,0,0,0,0,0, ,995.4,6.9,-122.5,-10.9,25.4,-6.9,25,764.093,21.516,102.114,-4.00606,-23.4793,0.732338,
2026_07_06_16_57_01.357,3.858,32.8,0,0.762,0,0,0,0, ,0,0,0,0,0, ,980.4,-2.9,-125.9,-9.3,25.5,-6.1,25,777.731,20.3268,88.3233,-4.37741,-20.4977,0.291618,
2026_07_06_16_57_01.376,3.858,32.9,0,0.762,0,0,0,0, ,0,0,0,0,0, ,972.9,7.6,-113.7,-9,23,-5.8,25,789.853,19.2313,75.6408,-4.66824,-17.7709,-0.0887309,
2026_07_06_16_57_01.396,3.858,32.8,0,0.762,0,0,0,0, ,0,0,0,0,0, ,981.9,3.1,-108,-6.3,16.6,-6.2,25,801.281,18.3854,64.2765,-4.84994,-15.4814,-0.448949,
2026_07_06_16_57_01.416,3.858,32.7,0,0.763,0,0,0,0, ,0,0,0,0,0, ,987.4,4.5,-92,-5,15.8,-6.3,25,812.455,17.4966,54.2659,-4.89869,-13.5508,-0.80245,
2026_07_06_16_57_01.436,3.858,32.9,0,0.762,0,0,0,0, ,0,0,0,0,0, ,1005.9,-4.1,-85.6,-3.8,16.9,-5.5,25,823.68,16.4426,45.5479,-4.8683,-11.7287,-1.11308,
2026_07_06_16_57_01.456,3.858,32.8,0,0.76,0,0,0,0, ,0,0,0,0,0, ,983.5,5.8,-82.2,-4.9,16.9,-3.3,25,834.101,15.4924,37.6596,-4.83672,-9.98417,-1.31338,
2026_07_06_16_57_01.476,3.858,32.8,0,0.759,0,0,0,0, ,0,0,0,0,0, ,979.3,16.4,-69.4,-6.1,13.9,-4.4,25,843.077,15.2248,30.7457,-4.87714,-8.43733,-1.46795,
2026_07_06_16_57_01.495,3.858,32.9,0,0.762,0,0,0,0, ,0,0,0,0,0, ,991.4,1.4,-67.6,-4.9,15.2,-6.7,25,851.747,14.8393,24.6979,-4.91509,-7.03654,-1.7167,
2026_07_06_16_57_01.515,3.858,32.8,0,0.762,0,0,0,0, ,0,0,0,0,0, ,984.6,0,-57.8,-5,14.1,-5.8,25,860.05,13.9777,19.3721,-4.91722,-5.71501,-1.99295,
2026_07_06_16_57_01.535,3.858,32.8,0,0.76,0,0,0,0, ,0,0,0,0,0, ,974.6,8,-67.1,-5.4,9.9,-4.7,25,867.335,13.3697,14.3861,-4.93445,-4.6355,-2.19143,
2026_07_06_16_57_01.554,3.858,32.8,0,0.762,0,0,0,0, ,0,0,0,0,0, ,992.6,5.7,-62.2,-4.5,5.6,-4,25,874.42,12.9724,9.5698,-4.9354,-3.88076,-2.32297,
2026_07_06_16_57_01.574,3.858,32.8,0,0.762,0,0,0,0, ,0,0,0,0,0, ,1004,8,-46.1,-3.9,8.1,-2.6,25,881.969,12.5993,5.68687,-4.89059,-3.22686,-2.3825,
2026_07_06_16_57_01.594,3.858,32.8,0,0.762,0,0,0,0, ,0,0,0,0,0, ,976.6,14.5,-37.9,-3.1,12.5,-2.9,25,888.57,12.5171,2.78095,-4.80585,-2.40256,-2.4049,
2026_07_06_16_57_01.613,3.858,32.8,0,0.762,0,0,0,0, ,0,0,0,0,0, ,958.1,25.1,-36,-5.4,12.3,-5.1,25,893.371,12.9609,0.359849,-4.77197,-1.50053,-2.5021,
2026_07_06_16_57_01.633,3.858,32.8,0,0.763,0,0,0,0, ,0,0,0,0,0, ,972.4,24.6,-39.9,-7.3,7.8,-6.1,25,897.751,13.6854,-1.97466,-4.86814,-0.796672,-2.69088,
2026_07_06_16_57_01.654,3.858,32.8,0,0.762,0,0,0,0, ,0,0,0,0,0, ,1000.1,21.8,-33.3,-7.5,8.1,-4.8,25,903.144,14.2652,-4.08464,-5.02242,-0.263672,-2.85901,
2026_07_06_16_57_01.673,3.858,32.8,0,0.763,0,0,0,0, ,0,0,0,0,0, ,990.9,21.2,-36.1,-7.4,10.5,-3.6,25,908.772,14.7061,-5.95026,-5.17035,0.319114,-2.94073,
2026_07_06_16_57_01.693,3.858,32.7,0,0.763,0,0,0,0, ,0,0,0,0,0, ,983.1,24.7,-41.9,-5.8,10.8,-5.2,25,913.539,15.2084,-7.96423,-5.25747,0.948653,-3.02965,
2026_07_06_16_57_01.713,3.858,32.8,0,0.762,0,0,0,0, ,0,0,0,0,0, ,994.6,18,-41.1,-4.5,6.1,-5.1,25,918.128,15.5827,-10.0078,-5.25092,1.40577,-3.15886,
2026_07_06_16_57_01.733,3.858,32.8,0,0.762,0,0,0,0, ,0,0,0,0,0, ,999,19.8,-25.7,-4.9,2.5,-2.7,25,922.922,15.7848,-11.4333,-5.21735,1.58213,-3.20402,
2026_07_06_16_57_01.752,3.858,32.9,0,0.76,0,0,0,0, ,0,0,0,0,0, ,993.6,22.3,-17.2,-3.6,2.4,-2.5,25,927.394,16.1057,-12.0437,-5.1584,1.63502,-3.16722,
2026_07_06_16_57_01.772,3.858,32.7,0,0.762,0,0,0,0, ,0,0,0,0,0, ,991.8,23.6,-20,-3.2,2.9,-3.7,25,931.373,16.5228,-12.4432,-5.05125,1.69687,-3.16312,
2026_07_06_16_57_01.793,3.858,32.7,0,0.763,0,0,0,0, ,0,0,0,0,0, ,997.3,17.4,-21.2,-4.1,2.4,-4,25,935.223,16.7651,-12.9403,-4.96586,1.75495,-3.20498,
2026_07_06_16_57_01.812,3.858,32.8,0,0.762,0,0,0,0, ,0,0,0,0,0, ,987.4,17.8,-22.5,-3.6,0.4,-2.9,25,938.704,16.816,-13.4832,-4.89786,1.73332,-3.21991,
2026_07_06_16_57_01.831,3.858,32.8,0,0.762,0,0,0,0, ,0,0,0,0,0, ,979.4,21.2,-23.5,-2.8,-1.6,-3.2,25,941.428,16.9795,-14.0631,-4.7944,1.59113,-3.20955,
2026_07_06_16_57_01.850,3.858,32.8,0,0.761,0,0,0,0, ,0,0,0,0,0, ,980.4,26.7,-16.7,-3.4,-3.7,-3.3,25,943.772,17.4043,-14.431,-4.69115,1.33269,-3.21202,
2026_07_06_16_57_01.876,3.858,32.7,0,0.762,0,0,0,0, ,0,0,0,0,0, ,990.7,25.3,-14.8,-3.1,-3.9,-3.4,25,946.318,17.9281,-14.5114,-4.60333,1.01992,-3.22043,
2026_07_06_16_57_01.895,3.858,32.7,0,0.762,0,0,0,0, ,0,0,0,0,0, ,985.9,31.7,-6.3,-2.6,-1.9,-3.5,25,948.876,18.5723,-14.27,-4.49648,0.781047,-3.23442,
2026_07_06_16_57_01.911,3.858,32.8,0,0.764,0,0,0,0, ,0,0,0,0,0, ,966.7,39,-3.5,-2.8,0,-5.9,25,950.548,19.5947,-13.699,-4.38701,0.675561,-3.32373,
2026_07_06_16_57_01.930,3.858,32.8,0,0.76,0,0,0,0, ,0,0,0,0,0, ,963.3,42.1,-8.6,-2.9,-2.3,-9.1,25,951.428,20.8717,-13.2329,-4.29335,0.564316,-3.57822,
2026_07_06_16_57_01.950,3.858,32.8,0,0.761,0,0,0,0, ,0,0,0,0,0, ,977,37.7,-14.8,-2.6,-5.3,-10.1,25,952.569,22.0312,-13.1395,-4.1993,0.298366,-3.94517,
2026_07_06_16_57_01.970,3.858,32.8,0,0.762,0,0,0,0, ,0,0,0,0,0, ,970.2,11.9,-66.4,5.4,-14.1,-8.3,25,953.851,22.1999,-14.8128,-3.85809,-0.31091,-4.26539,
2026_07_06_16_57_01.989,3.858,32.8,0,0.763,0,0,0,0, ,0,0,0,0,0, ,924.3,-3.2,-148.1,29.4,-59.9,1.6,25,953.448,21.1122,-20.4457,-2.56268,-2.54665,-4.2096,
2026_07_06_16_57_02.009,3.858,32.8,0,0.762,0,0,0,0, ,0,0,0,0,0, ,926.1,10.2,-147.2,38.1,-100.4,11.6,25,951.727,20.039,-28.1972,-0.349875,-7.2756,-3.55089,
2026_07_06_16_57_02.030,3.858,32.8,0,0.763,0,0,0,0, ,0,0,0,0,0, ,908.6,52.9,-104.4,39.6,-162.5,22.5,25,949.632,20.7404,-34.1449,2.03887,-14.8425,-2.29553,
2026_07_06_16_57_02.050,3.858,32.7,0,0.762,0,0,0,0, ,0,0,0,0,0, ,957.1,68.3,-30.3,29.6,-159.2,11.4,25,948.61,23.1694,-36.1683,4.02306,-23.7398,-1.12275,
2026_07_06_16_57_02.069,3.858,32.9,0,0.76,0,0,0,0, ,0,0,0,0,0, ,979.2,65,-24.6,10,-110.8,-7.8,25,949.8,25.819,-35.6371,4.98447,-30.5197,-0.944648,
2026_07_06_16_57_02.088,3.858,32.8,0,0.761,0,0,0,0, ,0,0,0,0,0, ,959.9,43,-105.8,-8.5,-62.6,-22.7,25,951.004,27.5362,-37.4386,4.72643,-33.9432,-1.81638,
2026_07_06_16_57_02.108,3.858,32.8,0,0.763,0,0,0,0, ,0,0,0,0,0, ,883.1,17.2,-273.3,-5.2,-55.5,-30.5,25,949.206,27.6925,-46.7079,4.02099,-35.4732,-3.32663,
2026_07_06_16_57_02.128,3.858,32.8,0,0.762,0,0,0,0, ,0,0,0,0,0, ,942.1,2.1,-345,2.1,-81.6,-20.3,25,946.975,26.593,-62.7004,3.68151,-37.4888,-4.67173,
2026_07_06_16_57_02.148,3.858,32.8,0,0.762,0,0,0,0, ,0,0,0,0,0, ,995.8,2,-333.4,1.8,-86.1,-7.1,25,948.314,25.0974,-79.5496,3.576,-40.3139,-5.22189,
2026_07_06_16_57_02.168,3.858,32.9,0,0.761,0,0,0,0, ,0,0,0,0,0, ,995.8,25.1,-325.3,4,-64.6,-5.2,25,951.208,24.3938,-94.7718,3.5348,-42.4489,-5.27845,
2026_07_06_16_57_02.188,3.858,32.8,0,0.762,0,0,0,0, ,0,0,0,0,0, ,961.5,49.3,-313.9,-2.6,-38.4,-7.7,25,952.88,25.1741,-108.472,3.36206,-43.0005,-5.34984,
2026_07_06_16_57_02.208,3.858,32.8,0,0.763,0,0,0,0, ,0,0,0,0,0, ,938.3,71,-325.3,-12.3,-22.7,-11.7,25,952.699,27.3055,-121.338,2.7032,-42.2418,-5.61492,
2026_07_06_16_57_02.227,3.858,32.8,0,0.762,0,0,0,0, ,0,0,0,0,0, ,957.2,77.7,-363.2,-20.8,-7.5,-17.2,25,952.397,30.1723,-134.922,1.52995,-40.5878,-6.15331,
2026_07_06_16_57_02.247,3.858,32.8,0,0.762,0,0,0,0, ,0,0,0,0,0, ,1015.8,67.2,-406.6,-22.9,15.8,-20.8,25,954.475,32.7486,-150.155,0.105239,-37.8616,-6.93616,
2026_07_06_16_57_02.266,3.858,32.8,0,0.762,0,0,0,0, ,0,0,0,0,0, ,1031.8,57.1,-414.9,-20.8,36.7,-16.4,25,958.7,34.5402,-166.035,-1.23266,-33.9548,-7.64692,
2026_07_06_16_57_02.286,3.858,32.8,0,0.761,0,0,0,0, ,0,0,0,0,0, ,982.7,62.7,-410.1,-17.8,42.6,-9.8,25,961.658,36.0856,-181.054,-2.33364,-29.4695,-7.97922,
2026_07_06_16_57_02.306,3.858,32.8,0,0.762,0,0,0,0, ,0,0,0,0,0, ,936.1,80.2,-398.9,-14.8,39.2,-7,25,961.521,38.2406,-194.67,-3.18471,-25.1814,-8.00486,
2026_07_06_16_57_02.325,3.858,32.8,0,0.76,0,0,0,0, ,0,0,0,0,0, ,926.5,80.3,-373,-10.6,30.3,-6.7,25,959.679,40.8005,-206.326,-3.76455,-21.5293,-7.93449,
2026_07_06_16_57_02.346,3.858,32.8,0,0.763,0,0,0,0, ,0,0,0,0,0, ,941.4,72.3,-350.5,-5.4,20.9,-4.9,25,958.111,42.9638,-215.797,-4.02265,-18.6574,-7.80442,
2026_07_06_16_57_02.364,3.858,32.8,0,0.764,0,0,0,0, ,0,0,0,0,0, ,956.1,70.1,-321.4,-1.3,14.5,-0.4,25,957.541,44.6844,-223.119,-3.98166,-16.4418,-7.49032,
2026_07_06_16_57_02.388,3.858,32.9,0,0.763,0,0,0,0, ,0,0,0,0,0, ,946.6,78.6,-294.9,1.2,10,3.3,25,957.163,46.4922,-228.301,-3.74207,-14.6934,-6.94552,
2026_07_06_16_57_02.408,3.858,32.8,0,0.763,0,0,0,0, ,0,0,0,0,0, ,927.2,84.9,-274.1,0.9,6.6,3.8,25,955.929,48.6407,-231.725,-3.45006,-13.2923,-6.30595,
2026_07_06_16_57_02.425,3.858,32.8,0,0.763,0,0,0,0, ,0,0,0,0,0, ,921.7,86.9,-248.6,0.7,3.7,1.1,25,954.01,50.9112,-233.53,-3.19107,-12.1684,-5.77238,
2026_07_06_16_57_02.444,3.858,32.8,0,0.762,0,0,0,0, ,0,0,0,0,0, ,930.1,80.9,-246.4,-0.3,4.3,-2.1,25,952.297,52.9214,-234.382,-2.98442,-11.1832,-5.4511,
2026_07_06_16_57_02.464,3.858,32.8,0,0.762,0,0,0,0, ,0,0,0,0,0, ,951.1,80.3,-240.6,-1.6,7.8,-4.3,25,951.585,54.6081,-234.937,-2.86045,-10.133,-5.31392,
2026_07_06_16_57_02.484,3.858,32.9,0,0.762,0,0,0,0, ,0,0,0,0,0, ,957.1,74.2,-253.5,-2.4,9.4,-4.1,25,951.738,55.9878,-235.676,-2.80802,-8.99149,-5.24604,
2026_07_06_16_57_02.504,3.858,32.8,0,0.762,0,0,0,0, ,0,0,0,0,0, ,952.1,76.2,-251.5,-3.3,8.6,-2.7,25,951.912,57.1586,-236.701,-2.81058,-7.89513,-5.13355,
2026_07_06_16_57_02.526,3.858,32.8,0,0.762,0,0,0,0, ,0,0,0,0,0, ,944.7,78.4,-264.4,-2.4,6.1,-2.8,25,951.698,58.386,-237.996,-2.81298,-6.96613,-4.9883,
2026_07_06_16_57_02.543,3.858,32.8,0,0.762,0,0,0,0, ,0,0,0,0,0, ,939.8,84.9,-257.9,-2,3.2,-3.7,25,951.123,59.8036,-239.407,-2.77563,-6.25827,-4.88237,
2026_07_06_16_57_02.562,3.858,32.9,0,0.763,0,0,0,0, ,0,0,0,0,0, ,954.3,83.1,-262.8,-2,-2.1,-3,25,950.874,61.2781,-240.683,-2.72836,-5.84339,-4.78899,
2026_07_06_16_57_02.583,3.858,32.8,0,0.761,0,0,0,0, ,0,0,0,0,0, ,976.8,73.4,-268.7,-1.8,0,-1,25,951.769,62.3123,-242.21,-2.67788,-5.5513,-4.61904,
2026_07_06_16_57_02.602,3.858,32.8,0,0.761,0,0,0,0, ,0,0,0,0,0, ,963.1,82.3,-257.5,-1.3,4.1,0.1,25,952.877,63.2591,-243.483,-2.60915,-5.08809,-4.36499,
2026_07_06_16_57_02.623,3.858,32.8,0,0.762,0,0,0,0, ,0,0,0,0,0, ,949.5,83.8,-263.4,-2,7.3,-0.5,25,953.085,64.4651,-244.517,-2.5507,-4.43069,-4.11118,
2026_07_06_16_57_02.643,3.858,32.8,0,0.759,0,0,0,0, ,0,0,0,0,0, ,942.9,84.8,-262,-2.8,7.9,-1,25,952.666,65.6738,-245.625,-2.54152,-3.69757,-3.90636,
2026_07_06_16_57_02.662,3.858,32.8,0,0.763,0,0,0,0, ,0,0,0,0,0, ,947.7,89.8,-267.3,-3.8,5.7,-2.3,25,952.217,66.9917,-246.785,-2.58774,-3.05788,-3.76887,
2026_07_06_16_57_02.683,3.858,32.8,0,0.761,0,0,0,0, ,0,0,0,0,0, ,979.8,81.9,-262.3,-4.1,6.6,-1.4,25,952.92,68.1408,-247.882,-2.67075,-2.49677,-3.65193,
2026_07_06_16_57_02.701,3.858,32.8,0,0.762,0,0,0,0, ,0,0,0,0,0, ,986.5,83.3,-247.8,-5.3,12.3,0.3,25,954.762,69.022,-248.319,-2.79441,-1.76877,-3.46291,
2026_07_06_16_57_02.723,3.858,32.8,0,0.762,0,0,0,0, ,0,0,0,0,0, ,1024.1,82.2,-214.2,-11.4,26.2,3.5,25,957.841,69.8585,-247.264,-3.13295,-0.487936,-3.13611,
2026_07_06_16_57_02.741,3.858,32.8,0,0.762,0,0,0,0, ,0,0,0,0,0, ,1059.9,96.9,-162.8,-26.5,57.8,4.5,25,962.97,71.0585,-243.683,-4.09681,2.10117,-2.70125,
2026_07_06_16_57_02.761,3.858,32.9,0,0.761,0,0,0,0, ,0,0,0,0,0, ,1061.2,81.9,-176.5,-36.9,101.8,-0.6,25,968.916,72.1761,-239.171,-5.77887,6.83594,-2.41782,
2026_07_06_16_57_02.780,3.858,32.8,0,0.76,0,0,0,0, ,0,0,0,0,0, ,1071.8,62.2,-197.8,-41.7,131.6,-0.5,25,974.863,72.1685,-236.001,-7.82157,13.5308,-2.304,
2026_07_06_16_57_02.801,3.858,32.8,0,0.761,0,0,0,0, ,0,0,0,0,0, ,1156.8,24.5,-202.2,-46.3,156.7,13,25,983.36,70.4123,-233.808,-10.0262,21.4904,-1.78274,
2026_07_06_16_57_02.821,3.858,32.8,0,0.762,0,0,0,0, ,0,0,0,0,0, ,1123,24.6,-177.8,-45.7,191.1,27,25,992.899,67.6176,-231.138,-12.2183,30.7779,-0.455351,
2026_07_06_16_57_02.841,3.858,32.8,0,0.763,0,0,0,0, ,0,0,0,0,0, ,1012.6,40.8,-105.3,-45.4,218.7,27.1,25,997.463,65.4898,-225.679,-14.2495,41.3884,1.22076,
2026_07_06_16_57_02.860,3.858,32.8,0,0.761,0,0,0,0, ,0,0,0,0,0, ,948.6,26.9,-55.1,-34.5,235.2,17,25,996.435,63.5618,-216.814,-15.8156,52.6961,2.49004,
2026_07_06_16_57_02.879,3.858,32.8,0,0.762,0,0,0,0, ,0,0,0,0,0, ,909.1,10.1,19.5,-58.4,224,17.2,25,992.317,60.8158,-204.686,-17.6824,63.4762,3.38033,
2026_07_06_16_57_02.899,3.858,32.8,0,0.761,0,0,0,0, ,0,0,0,0,0, ,896.6,-17.5,82.3,-49.3,214.1,28.7,25,986.865,56.8844,-189.111,-19.8864,72.9564,4.57286,
2026_07_06_16_57_02.919,3.858,32.8,0,0.762,0,0,0,0, ,0,0,0,0,0, ,762.2,-24.7,246.3,19.3,210.7,37.2,25,977.27,52.1322,-167.575,-19.5886,81.4538,6.30209,
2026_07_06_16_57_02.939,3.858,32.8,0,0.762,0,0,0,0, ,0,0,0,0,0, ,780.7,13.7,352.1,25,216.6,23.4,25,964.727,48.6202,-139.131,-17.0452,89.5095,7.76446,
2026_07_06_16_57_02.960,3.858,32.8,0,0.763,0,0,0,0, ,0,0,0,0,0, ,845.2,-6.4,432.2,29,247,22.2,25,955.479,45.8799,-106.756,-14.3612,98.1803,8.68069,
2026_07_06_16_57_02.979,3.858,32.8,0,0.761,0,0,0,0, ,0,0,0,0,0, ,671.2,2.3,459.5,28.5,250.1,8.9,25,943.457,42.9591,-73.0819,-11.7341,107.343,9.09929,
2026_07_06_16_57_02.999,3.858,32.8,0,0.761,0,0,0,0, ,0,0,0,0,0, ,583.7,12.3,524.2,19.2,250.1,-6,25,924.2,40.7862,-38.6564,-9.56566,116.043,8.63316,
2026_07_06_16_57_03.018,3.858,32.8,0,0.763,0,0,0,0, ,0,0,0,0,0, ,656,-16.7,632,22.3,250.1,-9.5,25,905.654,38.1667,-1.07282,-7.7183,124.212,7.63481,
2026_07_06_16_57_03.039,3.858,32.7,0,0.762,0,0,0,0, ,0,0,0,0,0, ,521.2,-11.5,679,18.4,250.1,-6.8,25,886.333,34.9817,38.9371,-6.00789,131.883,6.67293,
2026_07_06_16_57_03.057,3.858,32.8,0,0.762,0,0,0,0, ,0,0,0,0,0, ,396.6,-0.1,666.9,27.4,250.1,-18.6,25,860.287,32.4966,77.5722,-4.24632,139.087,5.49239,
2026_07_06_16_57_03.078,3.858,32.7,0,0.763,0,0,0,0, ,0,0,0,0,0, ,346.5,26.4,692.8,46.7,250.1,-31.6,25,830.504,31.3176,114.274,-1.72982,145.852,3.62816,
2026_07_06_16_57_03.097,3.858,32.8,0,0.762,0,0,0,0, ,0,0,0,0,0, ,320.9,58.1,822.1,52.3,226.5,-24.9,25,800.23,31.9838,153.467,1.39199,151.485,1.68559,
2026_07_06_16_57_03.117,3.858,32.8,0,0.761,0,0,0,0, ,0,0,0,0,0, ,310.4,96.3,930.2,45.5,168.7,-6.6,25,770.701,34.7392,197.506,4.28701,154.295,0.623108,
2026_07_06_16_57_03.137,3.858,32.8,0,0.763,0,0,0,0, ,0,0,0,0,0, ,238.4,151.2,964.1,41.8,123.3,5.9,25,740.458,40.1633,243.187,6.6857,153.79,0.563809,
2026_07_06_16_57_03.161,3.858,32.8,0,0.762,0,0,0,0, ,0,0,0,0,0, ,185.7,181.5,1049.4,36.4,85.9,8.7,25,708.258,47.8528,289.717,8.66094,150.792,0.974296,
2026_07_06_16_57_03.176,3.858,32.8,0,0.76,0,0,0,0, ,0,0,0,0,0, ,171.5,200.5,1103.5,30,58.4,8,25,675.982,56.5758,337.658,10.1563,146,1.42375,
2026_07_06_16_57_03.196,3.858,32.8,0,0.762,0,0,0,0, ,0,0,0,0,0, ,185,206.4,1118.5,19.9,48.3,8.1,25,645.651,65.526,384.784,11.0578,140.354,1.82754,
2026_07_06_16_57_03.215,3.858,32.8,0,0.763,0,0,0,0, ,0,0,0,0,0, ,160.7,192.8,1057.9,20.7,54.2,3.2,25,616.84,73.6961,427.648,11.621,134.925,2.06047,
2026_07_06_16_57_03.236,3.858,32.9,0,0.761,0,0,0,0, ,0,0,0,0,0, ,114.7,237.4,1093.7,21.2,40.5,3.1,25,587.642,82.3129,467.145,12.1895,129.588,2.12686,
2026_07_06_16_57_03.256,3.858,32.8,0,0.764,0,0,0,0, ,0,0,0,0,0, ,124.5,229,1156.3,15.1,15.9,6.1,25,559.121,91.5076,507.233,12.5527,123.41,2.27757,
2026_07_06_16_57_03.278,3.858,32.8,0,0.762,0,0,0,0, ,0,0,0,0,0, ,113.4,236.8,1165.5,9.6,9,5.8,25,532.298,100.124,547.066,12.5403,116.648,2.50136,
2026_07_06_16_57_03.295,3.858,32.8,0,0.762,0,0,0,0, ,0,0,0,0,0, ,122.8,220.8,1115.7,1.8,7.9,3,25,507.058,107.965,583.234,12.1235,110.055,2.61706,
2026_07_06_16_57_03.317,3.858,32.8,0,0.762,0,0,0,0, ,0,0,0,0,0, ,117.1,199.9,1062.3,-1.3,16.4,2.3,25,483.469,114.204,614.054,11.4,104.089,2.61907,
2026_07_06_16_57_03.334,3.858,32.8,0,0.761,0,0,0,0, ,0,0,0,0,0, ,78.7,187.1,1031.6,0.5,16.9,2.3,25,459.973,119.036,640.434,10.6809,98.7604,2.59962,
2026_07_06_16_57_03.358,3.858,32.8,0,0.762,0,0,0,0, ,0,0,0,0,0, ,57.7,178.7,1032.4,0,8,1.5,25,436.099,122.928,664.295,10.0453,93.5008,2.55699,
2026_07_06_16_57_03.374,3.858,32.8,0,0.761,0,0,0,0, ,0,0,0,0,0, ,72.7,169.1,1021.6,-5.5,-3.4,2.9,25,413.498,126.034,686.397,9.26556,87.9433,2.53523,
2026_07_06_16_57_03.396,3.858,32.8,0,0.762,0,0,0,0, ,0,0,0,0,0, ,101.4,160.6,992.1,-7.7,0.1,2.5,25,393.605,128.399,705.925,8.29875,82.4837,2.54528,
2026_07_06_16_57_03.414,3.858,32.8,0,0.762,0,0,0,0, ,0,0,0,0,0, ,109.4,143.3,975.3,-3.1,8.7,2.5,25,376.042,129.834,722.852,7.46398,77.7255,2.54252,
2026_07_06_16_57_03.434,3.858,32.8,0,0.762,0,0,0,0, ,0,0,0,0,0, ,83.6,144.2,965.3,-2.3,-0.4,3.8,25,359.008,130.682,737.931,6.84461,73.2419,2.57953,
2026_07_06_16_57_03.452,3.858,32.8,0,0.763,0,0,0,0, ,0,0,0,0,0, ,98.3,138.5,965.4,-2,-11.9,4.2,25,342.673,131.332,751.789,6.29651,68.404,2.66609,
2026_07_06_16_57_03.475,3.858,32.8,0,0.76,0,0,0,0, ,0,0,0,0,0, ,137.9,143.4,968.2,-1.4,-8.7,4.3,25,328.988,131.918,764.891,5.80922,63.608,2.76261,
2026_07_06_16_57_03.498,3.858,32.8,0,0.758,0,0,0,0, ,0,0,0,0,0, ,143.9,206.5,947.2,-4.5,6.6,3,25,317.526,134.541,776.641,5.27545,59.6679,2.81669,
2026_07_06_16_57_03.519,3.858,32.8,0,0.762,0,0,0,0, ,0,0,0,0,0, ,91.3,103,990.9,-4,7.3,-2.4,25,305.343,135.772,788.366,4.695,56.4554,2.66333,
2026_07_06_16_57_03.532,3.858,32.8,0,0.762,0,0,0,0, ,0,0,0,0,0, ,118,163.2,959.7,-2.9,2.2,-1.9,25,293.114,135.609,799.757,4.19866,53.3046,2.37002,
2026_07_06_16_57_03.555,3.858,32.8,0,0.762,0,0,0,0, ,0,0,0,0,0, ,118.5,145.1,956.5,-1.3,6.4,-4.4,25,282.458,136.739,809.406,3.81484,50.3184,2.03364,
2026_07_06_16_57_03.571,3.858,32.8,0,0.763,0,0,0,0, ,0,0,0,0,0, ,106.5,140.7,967.8,1.4,10.9,-5.8,25,272.101,137.115,818.714,3.58542,47.7792,1.59893,
2026_07_06_16_57_03.594,3.858,32.8,0,0.762,0,0,0,0, ,0,0,0,0,0, ,118.1,149,976.9,-1.8,11.3,-7.3,25,262.363,137.586,828.076,3.35474,45.5441,1.10236,
2026_07_06_16_57_03.612,3.858,32.8,0,0.758,0,0,0,0, ,0,0,0,0,0, ,121.3,135.3,953.9,-2.5,10.4,-5.9,25,253.67,137.864,836.444,3.0193,43.4299,0.632996,
2026_07_06_16_57_03.634,3.858,32.8,0,0.761,0,0,0,0, ,0,0,0,0,0, ,101.9,141.4,960.5,1.5,3.9,-3.4,25,245.012,137.894,843.803,2.80484,41.2191,0.311063,
2026_07_06_16_57_03.651,3.858,32.8,0,0.76,0,0,0,0, ,0,0,0,0,0, ,106.4,151,982.9,0.3,6.7,-3,25,236.429,138.4,851.596,2.68876,39.0303,0.0971078,
2026_07_06_16_57_03.672,3.858,32.8,0,0.762,0,0,0,0, ,0,0,0,0,0, ,96.1,142,976.6,0,15.8,-5.2,25,228.191,138.893,859.406,2.53406,37.3374,-0.158653,
2026_07_06_16_57_03.690,3.858,32.8,0,0.761,0,0,0,0, ,0,0,0,0,0, ,119.5,153.6,982.6,0,21.2,-6.9,25,220.855,139.436,866.73,2.37964,36.1895,-0.517657,
2026_07_06_16_57_03.711,3.858,32.8,0,0.761,0,0,0,0, ,0,0,0,0,0, ,101.5,137.6,964.7,-0.7,15.8,-4.9,25,214.13,139.812,873.246,2.2133,35.1116,-0.845644,
2026_07_06_16_57_03.730,3.858,32.8,0,0.76,0,0,0,0, ,0,0,0,0,0, ,82.6,136.5,971.5,0,2,-0.6,25,206.691,139.644,879.026,2.0571,33.5143,-0.96169,
2026_07_06_16_57_03.752,3.858,32.8,0,0.761,0,0,0,0, ,0,0,0,0,0, ,92.4,149.1,986,0.9,1.4,1.6,25,199.428,139.836,885.103,1.95917,31.5756,-0.872619,
2026_07_06_16_57_03.770,3.858,32.8,0,0.762,0,0,0,0, ,0,0,0,0,0, ,87,160.6,993.5,1.4,12,0.5,25,192.741,140.751,891.48,1.90986,30.0597,-0.755459,
2026_07_06_16_57_03.792,3.858,32.8,0,0.763,0,0,0,0, ,0,0,0,0,0, ,59.8,153.3,988,2,16.2,-1.5,25,185.469,141.738,897.529,1.89707,29.0872,-0.739892,
2026_07_06_16_57_03.809,3.858,32.7,0,0.761,0,0,0,0, ,0,0,0,0,0, ,44.3,156.4,990.1,1.5,9.5,-2,25,177.338,142.537,903.106,1.88811,28.0977,-0.801446,
2026_07_06_16_57_03.830,3.858,32.8,0,0.763,0,0,0,0, ,0,0,0,0,0, ,39.4,155.2,991.9,-0.3,-0.3,-1.6,25,169.082,143.345,908.462,1.80961,26.6659,-0.862295,
2026_07_06_16_57_03.848,3.858,32.7,0,0.763,0,0,0,0, ,0,0,0,0,0, ,56,156.2,991.8,-1.1,-2.3,-2.2,25,161.685,144.098,913.543,1.65668,24.9617,-0.92553,
2026_07_06_16_57_03.870,3.858,32.8,0,0.761,0,0,0,0, ,0,0,0,0,0, ,77.8,161,990.2,0.8,7.4,-3.2,25,155.909,144.982,918.263,1.54659,23.596,-1.03366,
2026_07_06_16_57_03.888,3.858,32.7,0,0.763,0,0,0,0, ,0,0,0,0,0, ,46.6,154.4,995.9,0.9,8.3,-3.5,25,150.199,145.757,922.821,1.50414,22.6365,-1.17481,
2026_07_06_16_57_03.910,3.858,32.8,0,0.762,0,0,0,0, ,0,0,0,0,0, ,36.7,158.6,991.6,0.7,-0.2,-3.3,25,143.584,146.411,927.143,1.46123,21.5038,-1.31041,
2026_07_06_16_57_03.928,3.858,32.8,0,0.761,0,0,0,0, ,0,0,0,0,0, ,39.3,154.7,987.9,0.3,-2.7,-4.2,25,137.15,147.035,930.958,1.40266,20.1051,-1.45907,
2026_07_06_16_57_03.949,3.858,32.7,0,0.76,0,0,0,0, ,0,0,0,0,0, ,49.3,152.2,991,1,-4,-4.8,25,131.492,147.426,934.522,1.35679,18.6758,-1.64438,
2026_07_06_16_57_03.967,3.858,32.8,0,0.76,0,0,0,0, ,0,0,0,0,0, ,81.4,160,990.6,0,1.5,-4.8,25,127.462,147.955,937.952,1.30458,17.4616,-1.83668,
2026_07_06_16_57_03.989,3.858,32.8,0,0.76,0,0,0,0, ,0,0,0,0,0, ,76.4,156.2,990.8,0.7,6.8,-2,25,124.502,148.573,941.166,1.24641,16.6504,-1.93194,
2026_07_06_16_57_04.007,3.858,32.7,0,0.761,0,0,0,0, ,0,0,0,0,0, ,37.9,154.7,981.8,0.1,2.6,-1.2,25,120.398,148.992,943.917,1.19483,15.9222,-1.91171,
2026_07_06_16_57_04.029,3.858,32.8,0,0.762,0,0,0,0, ,0,0,0,0,0, ,37.8,156.9,989.7,-0.6,-6.7,-0.8,25,115.368,149.407,946.466,1.10679,14.827,-1.85616,
2026_07_06_16_57_04.046,3.858,32.8,0,0.761,0,0,0,0, ,0,0,0,0,0, ,49.5,162.5,989.8,-0.4,-5.7,-2.4,25,110.998,150.034,949.103,1.00888,13.5457,-1.84055,
2026_07_06_16_57_04.068,3.858,32.9,0,0.761,0,0,0,0, ,0,0,0,0,0, ,74.7,161.4,987.5,0.3,5.3,-4.1,25,108.018,150.76,951.513,0.94435,12.708,-1.92643,
2026_07_06_16_57_04.086,3.858,32.7,0,0.76,0,0,0,0, ,0,0,0,0,0, ,53.5,151.6,978.5,1.1,5.4,-2.4,25,105.342,151.11,953.432,0.92946,12.2597,-2.00709,
2026_07_06_16_57_04.115,3.858,32.8,0,0.761,0,0,0,0, ,0,0,0,0,0, ,42.4,153.9,986,0.2,-4.9,-0.7,25,101.844,151.21,955.188,0.912431,11.5278,-1.97924,
2026_07_06_16_57_04.126,3.858,32.8,0,0.761,0,0,0,0, ,0,0,0,0,0, ,40.5,156.9,985.8,-0.2,-7.1,-1.7,25,98.1641,151.465,957.06,0.856829,10.4597,-1.93175,
2026_07_06_16_57_04.147,3.858,32.7,0,0.762,0,0,0,0, ,0,0,0,0,0, ,55,161.6,990.8,0.3,0,-5.2,25,95.0919,151.94,958.963,0.807663,9.60599,-2.02427,
2026_07_06_16_57_04.165,3.858,32.8,0,0.761,0,0,0,0, ,0,0,0,0,0, ,73.3,156,989.1,0,3.8,-4.7,25,93.2064,152.358,960.852,0.767587,9.13641,-2.20256,
2026_07_06_16_57_04.187,3.858,32.7,0,0.761,0,0,0,0, ,0,0,0,0,0, ,64.2,160.1,982.4,-0.4,2.6,-2.2,25,91.7161,152.705,962.369,0.708625,8.77466,-2.27857,
2026_07_06_16_57_04.204,3.858,32.7,0,0.762,0,0,0,0, ,0,0,0,0,0, ,41.7,157.3,979.3,-0.2,-3.5,-0.5,25,89.3538,153.07,963.495,0.647162,8.21253,-2.22199,
2026_07_06_16_57_04.229,3.858,32.8,0,0.762,0,0,0,0, ,0,0,0,0,0, ,40.6,162.7,989.9,0.2,-4.9,-2.3,25,86.4164,153.492,964.781,0.607725,7.45614,-2.1719,
2026_07_06_16_57_04.243,3.858,32.8,0,0.762,0,0,0,0, ,0,0,0,0,0, ,58.3,166,1001.4,0,-0.1,-4.9,25,84.1637,154.154,966.662,0.576786,6.84944,-2.25892,
2026_07_06_16_57_04.267,3.858,32.7,0,0.762,0,0,0,0, ,0,0,0,0,0, ,78.6,160.1,986.8,-0.5,4.5,-4.7,25,83.2062,154.696,968.334,0.526403,6.56612,-2.41377,
2026_07_06_16_57_04.283,3.858,32.7,0,0.76,0,0,0,0, ,0,0,0,0,0, ,62.3,158.8,983.6,0.1,-0.1,-1.3,25,82.4289,154.986,969.362,0.482138,6.30006,-2.44949,
2026_07_06_16_57_04.305,3.858,32.8,0,0.762,0,0,0,0, ,0,0,0,0,0, ,50.2,163.9,987.6,0.1,-3.3,-1,25,80.8336,155.374,970.351,0.458852,5.81255,-2.3703,
2026_07_06_16_57_04.323,3.858,32.8,0,0.761,0,0,0,0, ,0,0,0,0,0, ,50.1,161.6,985.7,-0.1,-0.9,-3.7,25,78.9638,155.823,971.345,0.43089,5.33038,-2.36907,
2026_07_06_16_57_04.346,3.858,32.8,0,0.76,0,0,0,0, ,0,0,0,0,0, ,61.4,160.6,985.3,-0.9,-0.3,-4.1,25,77.5492,156.145,972.207,0.374164,4.969,-2.46236,
2026_07_06_16_57_04.362,3.858,32.7,0,0.761,0,0,0,0, ,0,0,0,0,0, ,69.4,157.4,979.1,-1.6,1,-2.7,25,76.8089,156.319,972.816,0.275192,4.68753,-2.5195,
2026_07_06_16_57_04.386,3.858,32.8,0,0.762,0,0,0,0, ,0,0,0,0,0, ,57.4,162.8,975.8,-0.6,2.8,-1.7,25,75.9918,156.549,973.099,0.191391,4.51766,-2.50003,
2026_07_06_16_57_04.408,3.858,32.9,0,0.761,0,0,0,0, ,0,0,0,0,0, ,35.4,156.8,979.2,-0.3,-1,-1.4,25,74.1885,156.747,973.367,0.152306,4.29721,-2.44213,
2026_07_06_16_57_04.431,3.858,32.8,0,0.76,0,0,0,0, ,0,0,0,0,0, ,46.1,163.4,990.9,-0.9,-3.6,-1.9,25,72.1509,156.951,974.079,0.106463,3.89519,-2.39386,
2026_07_06_16_57_04.443,3.858,32.8,0,0.761,0,0,0,0, ,0,0,0,0,0, ,61.1,165.4,991,-1.7,1.8,-3.2,25,71.0204,157.405,975.107,0.0207563,3.60299,-2.40338,
2026_07_06_16_57_04.464,3.858,32.8,0,0.762,0,0,0,0, ,0,0,0,0,0, ,45.7,154.9,979.9,-1.4,1.8,-3,25,69.9467,157.573,975.737,-0.0749617,3.49312,-2.44583,
2026_07_06_16_57_04.482,3.858,32.8,0,0.762,0,0,0,0, ,0,0,0,0,0, ,53.3,156,981.9,-0.5,-4.5,-1.2,25,68.7007,157.443,976.052,-0.128284,3.19799,-2.42475,
2026_07_06_16_57_04.505,3.858,32.8,0,0.761,0,0,0,0, ,0,0,0,0,0, ,57.4,163,1000.2,0.7,-2.7,-0.7,25,67.8871,157.569,976.966,-0.114373,2.78374,-2.33489,
2026_07_06_16_57_04.521,3.858,32.8,0,0.761,0,0,0,0, ,0,0,0,0,0, ,40.8,163.4,995.6,-0.5,1.2,-3.1,25,66.7423,157.912,978.241,-0.10131,2.5684,-2.30839,
2026_07_06_16_57_04.544,3.858,32.9,0,0.762,0,0,0,0, ,0,0,0,0,0, ,55,162.4,982.2,-1.4,0.7,-3.8,25,65.5941,158.216,978.891,-0.153027,2.46978,-2.37795,
2026_07_06_16_57_04.561,3.858,32.8,0,0.761,0,0,0,0, ,0,0,0,0,0, ,66.5,158.9,973.6,-1.3,-0.4,-2.7,25,65.2989,158.364,978.83,-0.225967,2.32842,-2.43109,
2026_07_06_16_57_04.584,3.858,32.7,0,0.763,0,0,0,0, ,0,0,0,0,0, ,97.5,165.7,1002.5,-1.7,-4.8,0.2,25,66.3166,158.604,979.392,-0.303604,2.02809,-2.35912,
2026_07_06_16_57_04.600,3.858,32.8,0,0.762,0,0,0,0, ,0,0,0,0,0, ,26,165.7,983.1,-2.2,-3.9,0.4,25,66.0384,159.036,980.209,-0.403931,1.63943,-2.19708,
2026_07_06_16_57_04.624,3.858,32.8,0,0.762,0,0,0,0, ,0,0,0,0,0, ,62,157.5,978.2,-0.8,-2.3,-2.5,25,64.6954,159.193,980.236,-0.470723,1.35062,-2.12718,
2026_07_06_16_57_04.640,3.858,32.8,0,0.763,0,0,0,0, ,0,0,0,0,0, ,67.3,162.2,969.6,1.4,4.4,-4.3,25,64.6926,159.233,979.85,-0.423757,1.3323,-2.20474,
2026_07_06_16_57_04.663,3.858,32.8,0,0.762,0,0,0,0, ,0,0,0,0,0, ,77.3,151,969.7,3,0.9,-1.4,25,65.1562,159.072,979.228,-0.263872,1.4126,-2.24406,
2026_07_06_16_57_04.680,3.858,32.8,0,0.761,0,0,0,0, ,0,0,0,0,0, ,41.6,166.9,1007.5,3.8,-8.9,0.7,25,64.8085,159.065,979.8,-0.0406045,1.08277,-2.12864,
2026_07_06_16_57_04.702,3.858,32.8,0,0.761,0,0,0,0, ,0,0,0,0,0, ,61.7,174.9,1009.7,1,-6.9,-0.7,25,64.0066,159.786,981.555,0.10812,0.53538,-1.99893,
2026_07_06_16_57_04.721,3.858,32.7,0,0.763,0,0,0,0, ,0,0,0,0,0, ,61.8,168.9,1017.4,-0.2,-3.9,-2.5,25,63.8691,160.524,983.504,0.125906,0.173693,-1.97462,
2026_07_06_16_57_04.746,3.858,32.8,0,0.762,0,0,0,0, ,0,0,0,0,0, ,67.2,179.4,1027.9,-3.2,-7.2,-1,25,63.9076,161.354,985.89,0.0146401,-0.175095,-1.96093,
2026_07_06_16_57_04.759,3.858,32.8,0,0.761,0,0,0,0, ,0,0,0,0,0, ,107,167.6,1010.7,-6.1,-9,3.1,25,65.3209,162.095,987.926,-0.269611,-0.658019,-1.77745,
2026_07_06_16_57_04.783,3.858,32.8,0,0.762,0,0,0,0, ,0,0,0,0,0, ,84.3,155.8,1002.8,-6.9,-12.2,7.4,25,67.169,162.071,989.073,-0.649276,-1.26386,-1.34922,
2026_07_06_16_57_04.798,3.858,32.8,0,0.763,0,0,0,0, ,0,0,0,0,0, ,73.2,164.4,1011.7,-5.2,-27.5,11.3,25,67.8748,161.95,990.18,-0.978382,-2.39645,-0.697234,
2026_07_06_16_57_04.821,3.858,32.8,0,0.761,0,0,0,0, ,0,0,0,0,0, ,104.1,155.3,1022,-5.2,-28,11.8,25,69.1407,161.822,991.806,-1.23564,-3.94143,0.0490814,
2026_07_06_16_57_04.837,3.858,32.9,0,0.762,0,0,0,0, ,0,0,0,0,0, ,59.3,178.1,987.4,-3.7,-22.4,5.3,25,69.9061,162.12,992.591,-1.43151,-5.23688,0.567106,
2026_07_06_16_57_04.861,3.858,32.9,0,0.762,0,0,0,0, ,0,0,0,0,0, ,106,148.1,967.8,1.2,-23.6,-0.4,25,70.6827,162.179,991.678,-1.42045,-6.31932,0.681845,
2026_07_06_16_57_04.877,3.858,32.8,0,0.761,0,0,0,0, ,0,0,0,0,0, ,154,150.7,978.1,7.3,-28.5,2.1,25,74.2973,161.401,990.537,-1.07491,-7.52166,0.692092,
2026_07_06_16_57_04.900,3.858,32.8,0,0.761,0,0,0,0, ,0,0,0,0,0, ,193.4,170.5,1031,5,-37.7,11.5,25,80.3547,161.352,991.391,-0.63464,-9.08034,1.06429,
2026_07_06_16_57_04.916,3.858,32.8,0,0.762,0,0,0,0, ,0,0,0,0,0, ,182.6,171.5,1017,-1.2,-36.8,17.1,25,86.9143,161.94,993.378,-0.480186,-10.7969,1.87084,
2026_07_06_16_57_04.940,3.858,32.8,0,0.762,0,0,0,0, ,0,0,0,0,0, ,144.1,166.9,996.5,-2.1,-40.7,17.7,25,91.5721,162.382,994.193,-0.551471,-12.5003,2.81715,
2026_07_06_16_57_04.955,3.858,32.7,0,0.762,0,0,0,0, ,0,0,0,0,0, ,147,158.8,1004,0.2,-50.3,15,25,94.8614,162.411,994.562,-0.575757,-14.5112,3.64181,
2026_07_06_16_57_04.980,3.858,32.8,0,0.762,0,0,0,0, ,0,0,0,0,0, ,149,158.5,1014.1,2.5,-61,14.4,25,98.0995,162.182,995.445,-0.458406,-17.0181,4.31567,
2026_07_06_16_57_04.995,3.858,32.9,0,0.762,0,0,0,0, ,0,0,0,0,0, ,165,172.7,1031.3,0.8,-80,13.2,25,101.689,162.39,997.105,-0.329925,-20.2772,4.89362,
2026_07_06_16_57_05.020,3.858,32.8,0,0.762,0,0,0,0, ,0,0,0,0,0, ,225.2,164.7,1080.2,-3.4,-103.4,14.4,25,107.381,162.774,1000.68,-0.389039,-24.6295,5.43635,
2026_07_06_16_57_05.043,3.858,32.8,0,0.761,0,0,0,0, ,0,0,0,0,0, ,305.7,153.6,1116.8,-14.3,-139.7,25.3,25,117.013,162.554,1006.64,-0.904629,-30.5356,6.31468,
2026_07_06_16_57_05.065,3.858,32.8,0,0.762,0,0,0,0, ,0,0,0,0,0, ,408.4,138.1,1080.2,-29.6,-186,43.8,25,131.641,161.536,1012.24,-2.18708,-38.5985,8.03527,
2026_07_06_16_57_05.075,3.858,32.7,0,0.762,0,0,0,0, ,0,0,0,0,0, ,500.4,101.5,1007.6,-38,-215.8,62.1,25,151.309,158.992,1014.17,-4.11349,-48.4888,10.7723,
2026_07_06_16_57_05.097,3.858,32.8,0,0.762,0,0,0,0, ,0,0,0,0,0, ,554.6,91.7,943.9,-40.6,-218.3,73.5,25,174.233,155.19,1011.83,-6.25767,-58.7605,14.2474,
2026_07_06_16_57_05.114,3.858,32.7,0,0.761,0,0,0,0, ,0,0,0,0,0, ,568.2,73.4,917.6,-34.2,-185.9,67.3,25,197.826,150.764,1006.89,-8.15541,-67.4952,17.6692,
2026_07_06_16_57_05.138,3.858,32.8,0,0.762,0,0,0,0, ,0,0,0,0,0, ,547.2,53.7,915,-39.7,-186.4,61.5,25,219.756,145.449,1001.37,-9.91008,-74.7257,20.5168,
2026_07_06_16_57_05.153,3.858,32.8,0,0.76,0,0,0,0, ,0,0,0,0,0, ,598.6,30.3,831.7,-48.6,-211.6,61.4,25,241.275,139.145,993.565,-11.9966,-82.2987,23.0112,
2026_07_06_16_57_05.178,3.858,32.8,0,0.763,0,0,0,0, ,0,0,0,0,0, ,666.1,17.8,754.2,-54.3,-207.1,58.8,25,265.107,132.132,981.34,-14.4008,-90.0409,25.2713,
2026_07_06_16_57_05.193,3.858,32.8,0,0.762,0,0,0,0, ,0,0,0,0,0, ,695.3,0.9,705.8,-55,-198.2,54.6,25,290.432,124.65,966.024,-16.8535,-96.903,27.1865,
2026_07_06_16_57_05.217,3.858,32.8,0,0.763,0,0,0,0, ,0,0,0,0,0, ,714.9,-44,657.2,-51.5,-191.5,46.9,25,315.701,115.741,948.685,-19.0714,-102.872,28.6224,
2026_07_06_16_57_05.232,3.858,32.8,0,0.761,0,0,0,0, ,0,0,0,0,0, ,738.2,-72,590.9,-49.7,-194,44.8,25,340.737,105.153,928.903,-20.9926,-108.349,29.6722,
2026_07_06_16_57_05.258,3.858,32.8,0,0.762,0,0,0,0, ,0,0,0,0,0, ,788,-76.4,541.2,-49.3,-186.7,40.7,25,366.474,94.224,906.792,-22.7298,-113.346,30.4691,
2026_07_06_16_57_05.272,3.858,32.8,0,0.762,0,0,0,0, ,0,0,0,0,0, ,768.1,-94.3,514.8,-47.6,-166,33.7,25,391.555,83.2812,883.709,-24.2971,-117.185,30.8793,
2026_07_06_16_57_05.296,3.858,32.8,0,0.761,0,0,0,0, ,0,0,0,0,0, ,745.3,-110.1,444.3,-44.3,-173.4,24.3,25,413.806,71.9784,859.081,-25.6166,-120.385,30.7648,
2026_07_06_16_57_05.312,3.858,32.8,0,0.762,0,0,0,0, ,0,0,0,0,0, ,781.9,-129.2,382.2,-48.4,-193.7,19.5,25,435.121,60.3011,831.913,-26.88,-124.234,30.2246,
2026_07_06_16_57_05.336,3.858,32.8,0,0.761,0,0,0,0, ,0,0,0,0,0, ,834.2,-126.2,338.5,-49.6,-194.3,13.5,25,457.847,48.8448,803.177,-28.228,-128.486,29.3882,
2026_07_06_16_57_05.351,3.858,32.8,0,0.762,0,0,0,0, ,0,0,0,0,0, ,909,-161.7,251.8,-46.9,-164.9,5.6,25,483.06,37.0963,772.219,-29.4481,-131.6,28.1793,
2026_07_06_16_57_05.377,3.858,32.8,0,0.762,0,0,0,0, ,0,0,0,0,0, ,910.5,-215.4,146.2,-29.8,-147.3,7.4,25,509.061,23.346,737.289,-29.9905,-133.093,26.8583,
2026_07_06_16_57_05.391,3.858,32.8,0,0.761,0,0,0,0, ,0,0,0,0,0, ,877,-219.6,93.6,-16.5,-174.1,17.8,25,532.503,8.66946,699.666,-29.5737,-134.776,25.9894,
2026_07_06_16_57_05.416,3.858,32.8,0,0.763,0,0,0,0, ,0,0,0,0,0, ,879.7,-217.5,43.2,-10.5,-203.5,25.9,25,553.578,-5.17672,661.199,-28.5942,-138.068,25.7372,
2026_07_06_16_57_05.431,3.858,32.8,0,0.762,0,0,0,0, ,0,0,0,0,0, ,909.1,-234.8,1.2,0.8,-192.7,24,25,574.347,-18.6423,622.26,-27.1473,-141.726,25.6892,
2026_07_06_16_57_05.458,3.858,32.8,0,0.763,0,0,0,0, ,0,0,0,0,0, ,952.8,-246,-57.4,23,-150.9,9.7,25,596.078,-32.1556,582.628,-24.7678,-143.559,25.1505,
2026_07_06_16_57_05.470,3.858,32.7,0,0.762,0,0,0,0, ,0,0,0,0,0, ,941,-268.4,-109,52.1,-118.9,7.3,25,617.456,-45.8693,542.054,-20.9703,-143.031,24.1359,
2026_07_06_16_57_05.495,3.858,32.8,0,0.76,0,0,0,0, ,0,0,0,0,0, ,925,-243.8,-162.8,60.1,-106.7,20.9,25,636.684,-58.6802,500.742,-16.2739,-141.189,23.5243,
2026_07_06_16_57_05.509,3.858,32.9,0,0.76,0,0,0,0, ,0,0,0,0,0, ,849.1,-207.8,-174,27.6,-130.3,26,25,651.941,-68.8641,459.966,-12.6101,-139.806,23.5198,
2026_07_06_16_57_05.534,3.858,32.8,0,0.761,0,0,0,0, ,0,0,0,0,0, ,796.6,-229.9,-183.4,0.9,-155,28.6,25,662.356,-78.0038,421.047,-10.9733,-139.979,23.7502,
2026_07_06_16_57_05.549,3.858,32.8,0,0.762,0,0,0,0, ,0,0,0,0,0, ,730.1,-223.1,-224.8,3.3,-179.3,20.5,25,668.51,-87.0528,382.952,-10.1766,-141.635,23.7989,
2026_07_06_16_57_05.574,3.858,32.8,0,0.762,0,0,0,0, ,0,0,0,0,0, ,727.7,-209.2,-252.6,-18.2,-192.1,11,25,672.19,-94.9197,345.07,-10.0105,-144.32,23.3084,
2026_07_06_16_57_05.589,3.858,32.8,0,0.762,0,0,0,0, ,0,0,0,0,0, ,772.3,-192,-303.5,-29.1,-167.7,-3.3,25,676.932,-101.36,307.099,-10.8416,-146.488,22.1227,
2026_07_06_16_57_05.613,3.858,32.8,0,0.76,0,0,0,0, ,0,0,0,0,0, ,842.5,-204.4,-345.5,-37.3,-124.9,-9.4,25,684.882,-107.261,268.611,-12.2041,-146.477,20.3876,
2026_07_06_16_57_05.628,3.858,32.7,0,0.762,0,0,0,0, ,0,0,0,0,0, ,799,-201.2,-387.6,-36,-97.8,-0.6,25,693.161,-113.083,229.906,-13.6938,-144.336,18.8406,
2026_07_06_16_57_05.653,3.858,32.8,0,0.762,0,0,0,0, ,0,0,0,0,0, ,680.1,-178.8,-457.5,-33.8,-125,15.7,25,695.988,-117.77,190.147,-14.986,-142.329,18.1525,
2026_07_06_16_57_05.668,3.858,32.7,0,0.761,0,0,0,0, ,0,0,0,0,0, ,621.7,-115.6,-452.7,-52.6,-180.6,34.3,25,693.241,-119.563,150.827,-16.7053,-142.967,18.5698,
2026_07_06_16_57_05.693,3.858,32.8,0,0.761,0,0,0,0, ,0,0,0,0,0, ,599.1,-111.6,-495.9,-78.6,-175,26,25,688.193,-119.2,112.733,-19.6848,-145.09,19.2755,
2026_07_06_16_57_05.707,3.858,32.8,0,0.762,0,0,0,0, ,0,0,0,0,0, ,620.8,-86.9,-574.2,-70.7,-99,4.3,25,683.425,-117.984,73.259,-23.0343,-144.597,19.0241,
2026_07_06_16_57_05.735,3.858,32.8,0,0.761,0,0,0,0, ,0,0,0,0,0, ,529.2,-133,-736.5,-57.1,-36.8,-8.3,25,676.818,-117.495,28.8594,-25.5245,-139.923,17.7429,
2026_07_06_16_57_05.747,3.858,32.8,0,0.76,0,0,0,0, ,0,0,0,0,0, ,504.2,-267.5,-708.3,-43.8,-40.8,-9.1,25,667.06,-122.537,-16.9205,-27.0434,-133.761,16.1316,
2026_07_06_16_57_05.774,3.858,32.8,0,0.762,0,0,0,0, ,0,0,0,0,0, ,509.8,-143,-618.1,-46.3,-80,-5.9,25,657.307,-127.578,-56.3031,-28.1407,-129.291,14.6915,
2026_07_06_16_57_05.786,3.858,32.7,0,0.761,0,0,0,0, ,0,0,0,0,0, ,600.8,24.1,-676.8,-80.4,-124.4,4.1,25,651.091,-123.426,-92.3261,-30.2863,-127.64,13.7414,
2026_07_06_16_57_05.812,3.858,32.8,0,0.762,0,0,0,0, ,0,0,0,0,0, ,660,-0.1,-854.6,-94,-102.3,4.8,25,649.83,-115.174,-133.36,-33.7544,-126.769,13.1752,
2026_07_06_16_57_05.825,3.858,32.7,0,0.761,0,0,0,0, ,0,0,0,0,0, ,653.3,-10.7,-944,-91.2,-67.3,1.3,25,650.245,-108.484,-180.034,-37.3403,-124.212,12.5582,
2026_07_06_16_57_05.851,3.858,32.9,0,0.762,0,0,0,0, ,0,0,0,0,0, ,607.5,-41.2,-1006.7,-69.3,4,-5.1,25,649.036,-103.455,-228.499,-39.9552,-118.571,11.6772,
2026_07_06_16_57_05.865,3.858,32.8,0,0.762,0,0,0,0, ,0,0,0,0,0, ,538.4,-13.5,-967.5,-52.3,32.7,-10.5,25,644.4,-98.8173,-274.726,-41.2254,-110.227,10.4903,
2026_07_06_16_57_05.892,3.858,32.8,0,0.761,0,0,0,0, ,0,0,0,0,0, ,491.6,10.1,-960.9,-55.3,15.1,-11.1,25,636.514,-92.8992,-316.741,-41.9917,-102.054,9.1929,
2026_07_06_16_57_05.905,3.858,32.7,0,0.762,0,0,0,0, ,0,0,0,0,0, ,542.2,7.9,-962.1,-58.2,-10.5,-15.8,25,629.225,-86.6897,-356.031,-42.891,-95.695,7.81309,
2026_07_06_16_57_05.931,3.858,32.8,0,0.762,0,0,0,0, ,0,0,0,0,0, ,605.3,-1.2,-943.6,-55,-12.1,-20.1,25,625.845,-81.2029,-392.4,-43.7264,-90.5522,6.24316,
2026_07_06_16_57_05.945,3.858,32.8,0,0.761,0,0,0,0, ,0,0,0,0,0, ,622,9.7,-934.8,-47.8,3.4,-19.2,25,625.102,-75.9956,-425.72,-44.194,-85.2992,4.66529,
2026_07_06_16_57_05.971,3.858,32.8,0,0.761,0,0,0,0, ,0,0,0,0,0, ,605.7,24.7,-930.9,-42.5,17.8,-21.2,25,624.416,-70.3165,-456.623,-44.2523,-79.4554,3.15006,
2026_07_06_16_57_05.984,3.858,32.8,0,0.761,0,0,0,0, ,0,0,0,0,0, ,565.4,18.9,-963.8,-36.3,17.7,-22.9,25,622.048,-64.7032,-486.527,-43.9566,-73.5319,1.61443,
2026_07_06_16_57_06.010,3.858,32.8,0,0.76,0,0,0,0, ,0,0,0,0,0, ,571.6,37.8,-924.3,-29.7,-13.1,-21.3,25,618.785,-59.0328,-514.407,-43.2889,-68.9109,0.169336,
2026_07_06_16_57_06.024,3.858,32.8,0,0.762,0,0,0,0, ,0,0,0,0,0, ,592.8,60.3,-907.7,-27,-38.2,-19.9,25,616.555,-52.4465,-538.879,-42.3786,-66.2747,-1.09629,
2026_07_06_16_57_06.049,3.858,32.7,0,0.761,0,0,0,0, ,0,0,0,0,0, ,588.7,56.8,-932,-25.1,-41.9,-21.4,25,614.983,-45.6826,-562.095,-41.3835,-64.6766,-2.28785,
2026_07_06_16_57_06.063,3.858,32.7,0,0.762,0,0,0,0, ,0,0,0,0,0, ,628.5,61.2,-911.7,-15.7,-37.2,-24.2,25,614.594,-39.3035,-584.017,-40.1049,-63.1455,-3.53781,
2026_07_06_16_57_06.088,3.858,32.8,0,0.762,0,0,0,0, ,0,0,0,0,0, ,661.3,54.9,-890.1,-7.2,-27.6,-21.3,25,616.441,-33.371,-603.327,-38.3587,-61.2719,-4.70855,
2026_07_06_16_57_06.103,3.858,32.7,0,0.762,0,0,0,0, ,0,0,0,0,0, ,660,62.8,-883,-3.6,-16.8,-11.9,25,619.135,-27.7513,-620.586,-36.3503,-58.891,-5.43319,
2026_07_06_16_57_06.130,3.858,32.9,0,0.761,0,0,0,0, ,0,0,0,0,0, ,609.4,74.9,-888.7,-6.9,-33.9,2.9,25,620.083,-21.8647,-636.751,-34.4551,-56.8471,-5.37632,
2026_07_06_16_57_06.145,3.858,32.7,0,0.762,0,0,0,0, ,0,0,0,0,0, ,548,59.9,-921.8,-0.3,-57,14.9,25,617.561,-16.4251,-653.112,-32.5749,-56.1526,-4.50636,
2026_07_06_16_57_06.169,3.858,32.8,0,0.763,0,0,0,0, ,0,0,0,0,0, ,518.1,91.3,-951.9,24.6,-69.2,8.5,25,612.411,-10.8173,-670.403,-29.8495,-56.5759,-3.51878,
2026_07_06_16_57_06.182,3.858,32.8,0,0.763,0,0,0,0, ,0,0,0,0,0, ,589.4,37.4,-869.5,20.9,-62.6,10,25,608.837,-6.23683,-685.046,-26.6442,-57.1441,-2.74068,
2026_07_06_16_57_06.208,3.858,32.7,0,0.761,0,0,0,0, ,0,0,0,0,0, ,419,156.2,-1125.2,49,-95.4,-1.2,25,602.46,0.041979,-704.077,-22.8908,-58.476,-2.30555,
2026_07_06_16_57_06.221,3.858,32.7,0,0.762,0,0,0,0, ,0,0,0,0,0, ,412.5,24.4,-1031.2,94.4,-165,-23.8,25,591.083,5.54208,-726.875,-17.1267,-62.8466,-2.92677,
2026_07_06_16_57_06.247,3.858,32.8,0,0.762,0,0,0,0, ,0,0,0,0,0, ,483.6,-64.5,-895.7,83.5,-181.2,3.4,25,582.367,3.98256,-741.291,-10.6626,-69.5652,-3.36999,
2026_07_06_16_57_06.260,3.858,32.8,0,0.762,0,0,0,0, ,0,0,0,0,0, ,383.5,-45.4,-858.3,52.4,-119.8,13.3,25,573.298,0.391357,-749.561,-5.87215,-74.4972,-2.6558,
2026_07_06_16_57_06.287,3.858,32.8,0,0.761,0,0,0,0, ,0,0,0,0,0, ,319.7,-22.7,-978.3,38.8,-72.8,16.2,25,559.788,-1.70741,-759.844,-2.73557,-75.8258,-1.59513,
2026_07_06_16_57_06.300,3.858,32.8,0,0.763,0,0,0,0, ,0,0,0,0,0, ,279.5,-21.8,-1052.8,46.4,-58.3,11.9,25,543.933,-2.95923,-775.426,0.0270672,-75.1996,-0.641758,
2026_07_06_16_57_06.325,3.858,32.7,0,0.761,0,0,0,0, ,0,0,0,0,0, ,230.4,-60.9,-986,57.6,-63.4,3.5,25,526.323,-5.29866,-790.293,3.19417,-74.3252,-0.133432,
2026_07_06_16_57_06.340,3.858,32.8,0,0.762,0,0,0,0, ,0,0,0,0,0, ,234.4,-104.6,-943.2,56.8,-41.6,-2.8,25,508.412,-10.0184,-800.915,6.48515,-72.9952,-0.103973,
2026_07_06_16_57_06.367,3.858,32.8,0,0.762,0,0,0,0, ,0,0,0,0,0, ,283.8,-123.2,-984.7,58.3,-2.7,-4.9,25,493.22,-16.3486,-810.85,9.59691,-69.8968,-0.332246,
2026_07_06_16_57_06.380,3.858,32.8,0,0.762,0,0,0,0, ,0,0,0,0,0, ,336.3,-108.5,-968.8,70.1,49.2,-20.9,25,482.058,-22.412,-820.959,12.9243,-64.2207,-1.09809,
2026_07_06_16_57_06.405,3.858,32.8,0,0.762,0,0,0,0, ,0,0,0,0,0, ,422.2,-143.7,-940,71,116.5,-22.4,25,475.793,-28.7305,-829.091,16.4359,-55.2586,-2.35048,
2026_07_06_16_57_06.419,3.858,32.8,0,0.762,0,0,0,0, ,0,0,0,0,0, ,425.5,-143.4,-856.5,57.2,183.4,-14.1,25,472.628,-35.7273,-833.305,19.3404,-42.7537,-3.31935,
2026_07_06_16_57_06.445,3.858,32.7,0,0.762,0,0,0,0, ,0,0,0,0,0, ,395.2,-85.3,-776.8,30,250.1,-23.7,25,468.833,-40.5184,-832.29,20.8187,-26.9402,-4.2688,
2026_07_06_16_57_06.458,3.858,32.9,0,0.762,0,0,0,0, ,0,0,0,0,0, ,406,-117.3,-766.1,11.7,250.1,-33.2,25,464.675,-44.2223,-828.583,20.8206,-10.058,-5.74234,
2026_07_06_16_57_06.484,3.858,32.8,0,0.763,0,0,0,0, ,0,0,0,0,0, ,499.7,-140.8,-748.6,-6.1,250.1,-48.5,25,463.954,-49.3914,-824.242,19.7225,5.79535,-7.88171,
2026_07_06_16_57_06.497,3.858,32.8,0,0.762,0,0,0,0, ,0,0,0,0,0, ,588,-157.2,-739.7,-12.1,250.1,-63.3,25,468.823,-55.4613,-819.361,17.9661,20.6827,-10.8078,
2026_07_06_16_57_06.525,3.858,32.8,0,0.762,0,0,0,0, ,0,0,0,0,0, ,723.8,-130.2,-673.8,-11.4,250.1,-66.7,25,480.223,-60.8384,-812.499,16.1553,34.6628,-14.1102,
2026_07_06_16_57_06.544,3.858,32.7,0,0.762,0,0,0,0, ,0,0,0,0,0, ,832.3,-98.2,-529.5,-21,250.1,-56.5,25,498.372,-64.0901,-799.651,14.1836,47.791,-17.0041,
2026_07_06_16_57_06.571,3.858,32.8,0,0.762,0,0,0,0, ,0,0,0,0,0, ,842.7,-80.4,-436.5,-36.9,250.1,-59.1,25,519.037,-65.6263,-780.355,11.5552,60.1192,-19.4901,
2026_07_06_16_57_06.577,3.858,32.8,0,0.762,0,0,0,0, ,0,0,0,0,0, ,884.1,7.8,-364.1,-85.7,250.1,-87.8,25,540.022,-63.8393,-757.195,7.11557,71.6961,-22.7783,
2026_07_06_16_57_06.603,3.858,32.8,0,0.761,0,0,0,0, ,0,0,0,0,0, ,986.9,-72.8,-280.6,-92.2,250.1,-108.9,25,564.121,-61.9295,-730.697,1.26157,82.5676,-27.3834,
2026_07_06_16_57_06.616,3.858,32.8,0,0.763,0,0,0,0, ,0,0,0,0,0, ,962.5,-32.5,-245.3,-100.8,250.1,-99.8,25,589.141,-61.3641,-702.193,-4.69577,92.7766,-32.0736,
2026_07_06_16_57_06.644,3.858,32.8,0,0.762,0,0,0,0, ,0,0,0,0,0, ,888.7,10.6,-171.6,-93.3,250.1,-68.3,25,609.644,-58.2919,-672.106,-10.3236,102.364,-35.2409,
2026_07_06_16_57_06.657,3.858,32.7,0,0.763,0,0,0,0, ,0,0,0,0,0, ,913.9,-19.5,-140,-81.5,200.6,-45.2,25,627.417,-55.011,-640.644,-15.0204,109.858,-36.5516,
2026_07_06_16_57_06.683,3.858,32.8,0,0.761,0,0,0,0, ,0,0,0,0,0, ,860.8,-41.2,-17.2,-58.5,150.1,-36,25,643.256,-53.5082,-606.394,-18.3708,113.849,-36.7983,
2026_07_06_16_57_06.696,3.858,32.7,0,0.761,0,0,0,0, ,0,0,0,0,0, ,815.6,20.9,41.9,4.1,142.2,-44.8,25,655.136,-50.866,-568.689,-18.9088,115.817,-37.0178,
2026_07_06_16_57_06.721,3.858,32.7,0,0.761,0,0,0,0, ,0,0,0,0,0, ,805.4,62.2,104.1,23.3,159.9,-64.4,25,664.603,-45.2344,-529.586,-16.9217,117.964,-38.0892,
2026_07_06_16_57_06.734,3.858,32.8,0,0.762,0,0,0,0, ,0,0,0,0,0, ,834.1,105.1,151,31.9,164.4,-80.9,25,674.058,-37.3805,-489.542,-14.2087,120.657,-40.1952,
2026_07_06_16_57_06.762,3.858,32.7,0,0.76,0,0,0,0, ,0,0,0,0,0, ,880.1,128.4,231.2,35.4,156.8,-81.4,25,685.212,-27.9882,-448.065,-11.2923,123.091,-42.6909,
2026_07_06_16_57_06.775,3.858,32.8,0,0.76,0,0,0,0, ,0,0,0,0,0, ,887.2,164.5,312.3,35.4,142.3,-74,25,697.304,-17.3584,-404.202,-8.44696,124.703,-44.8243,
2026_07_06_16_57_06.801,3.858,32.8,0,0.762,0,0,0,0, ,0,0,0,0,0, ,881.1,197.3,363.7,35.7,121.6,-62.1,25,708.69,-5.27702,-358.974,-5.7659,125.145,-46.2396,
2026_07_06_16_57_06.814,3.858,32.7,0,0.761,0,0,0,0, ,0,0,0,0,0, ,874.3,238.6,425.1,34.7,108.4,-53.8,25,718.989,8.32588,-313.065,-3.26954,124.527,-46.9532,
2026_07_06_16_57_06.841,3.858,32.8,0,0.762,0,0,0,0, ,0,0,0,0,0, ,889.1,261.5,449.7,29.9,115.6,-50.8,25,728.904,23.0559,-267.334,-1.10202,123.763,-47.279,
2026_07_06_16_57_06.854,3.858,32.8,0,0.761,0,0,0,0, ,0,0,0,0,0, ,855.9,290.2,509.3,24.2,113.3,-44.1,25,737.655,38.4606,-221.823,0.613495,123.196,-47.2894,
2026_07_06_16_57_06.882,3.858,32.8,0,0.761,0,0,0,0, ,0,0,0,0,0, ,811,297.6,526.2,21.6,96,-34.8,25,743.492,54.0264,-176.756,1.97158,122.066,-46.8117,
2026_07_06_16_57_06.894,3.858,32.8,0,0.761,0,0,0,0, ,0,0,0,0,0, ,794.6,332.1,565.6,16.4,76.4,-27.3,25,747.106,69.9204,-132.719,3.00925,119.88,-45.8512,
2026_07_06_16_57_06.920,3.858,32.8,0,0.761,0,0,0,0, ,0,0,0,0,0, ,795,355.3,595,12.6,67.5,-24.7,25,750.013,86.6038,-89.2693,3.70947,116.959,-44.6416,
2026_07_06_16_57_06.933,3.858,32.8,0,0.762,0,0,0,0, ,0,0,0,0,0, ,796.2,375,624.5,7.9,63.3,-22.5,25,752.791,103.578,-46.6728,4.10803,113.817,-43.3593,
2026_07_06_16_57_06.966,3.858,32.8,0,0.762,0,0,0,0, ,0,0,0,0,0, ,774.6,374,621.5,6.5,54.6,-18.9,25,754.778,120.087,-5.86464,4.29645,110.474,-41.9785,
2026_07_06_16_57_06.973,3.858,32.7,0,0.762,0,0,0,0, ,0,0,0,0,0, ,763.9,372.1,629.2,5.1,45.9,-14.2,25,755.66,135.502,32.6,4.38807,106.804,-40.429,
2026_07_06_16_57_06.999,3.858,32.8,0,0.762,0,0,0,0, ,0,0,0,0,0, ,779.9,390.5,682.1,0,46.1,-12.6,25,756.649,150.48,70.5671,4.27606,103.099,-38.7819,
2026_07_06_16_57_07.012,3.858,32.7,0,0.762,0,0,0,0, ,0,0,0,0,0, ,774.9,388.6,694.7,-8.3,47.5,-9.6,25,757.914,165.049,108.216,3.7626,99.6681,-37.095,
2026_07_06_16_57_07.039,3.858,32.8,0,0.761,0,0,0,0, ,0,0,0,0,0, ,672.2,283.6,680.1,7.6,41.9,-4,25,755.82,175.472,143.51,3.51199,96.3185,-35.2489,
2026_07_06_16_57_07.052,3.858,32.7,0,0.763,0,0,0,0, ,0,0,0,0,0, ,695.8,431.3,618.4,29.9,23.5,1.8,25,751.443,186.561,174.329,4.44055,92.4417,-33.168,
2026_07_06_16_57_07.079,3.858,32.8,0,0.762,0,0,0,0, ,0,0,0,0,0, ,674.9,400.5,631.4,20.1,14.4,3.4,25,747.416,200.537,201.785,5.69339,87.9633,-30.9884,
2026_07_06_16_57_07.091,3.858,32.7,0,0.762,0,0,0,0, ,0,0,0,0,0, ,748,353.1,645.2,15,6.4,5,25,745.224,211.278,228.386,6.41591,83.2368,-28.8441,
2026_07_06_16_57_07.118,3.858,32.8,0,0.763,0,0,0,0, ,0,0,0,0,0, ,721.3,422.4,719.1,0.1,17.1,5.1,25,744.58,222.031,256.037,6.48502,78.8806,-26.7787,
2026_07_06_16_57_07.130,3.858,32.8,0,0.761,0,0,0,0, ,0,0,0,0,0, ,779.1,353.5,677,-8.7,43.7,2.7,25,744.922,232.142,282.972,5.8278,75.9263,-24.9092,
2026_07_06_16_57_07.158,3.858,32.7,0,0.762,0,0,0,0, ,0,0,0,0,0, ,772.3,350,652.2,-12.4,83.7,1,25,746.798,239.431,306.227,4.82978,75.1813,-23.2785,
2026_07_06_16_57_07.171,3.858,32.8,0,0.761,0,0,0,0, ,0,0,0,0,0, ,710.3,372.1,671.8,-23.5,105.7,-4.3,25,746.463,246.842,327.907,3.44164,76.3707,-21.9606,
2026_07_06_16_57_07.198,3.858,32.8,0,0.761,0,0,0,0, ,0,0,0,0,0, ,627.5,325.5,682.2,-20.6,99.2,-10,25,741.736,253.055,349.18,1.88824,77.9599,-21.058,
2026_07_06_16_57_07.210,3.858,32.8,0,0.761,0,0,0,0, ,0,0,0,0,0, ,682.2,362.5,731.4,-24,96.7,-2.7,25,736.442,258.597,370.973,0.414271,79.178,-20.1618,
2026_07_06_16_57_07.237,3.858,32.8,0,0.762,0,0,0,0, ,0,0,0,0,0, ,849.1,375,772.9,-33,157.1,-1.6,25,738.221,265.309,394.201,-1.34769,82.0861,-19.0642,
2026_07_06_16_57_07.249,3.858,32.8,0,0.762,0,0,0,0, ,0,0,0,0,0, ,639.5,311.5,704.1,-27.4,216.1,-4.7,25,738.592,270.059,415.181,-3.10588,88.4549,-18.0944,
2026_07_06_16_57_07.275,3.858,32.8,0,0.762,0,0,0,0, ,0,0,0,0,0, ,571.4,262.9,696.6,-21.1,219.2,1.2,25,730.479,271.103,432.559,-4.39435,96.3277,-17.0984,
2026_07_06_16_57_07.290,3.858,32.8,0,0.762,0,0,0,0, ,0,0,0,0,0, ,587.5,316.1,722.2,-28,231.9,10.5,25,721.275,272.224,449.429,-5.62258,104.202,-15.7,
2026_07_06_16_57_07.316,3.858,32.8,0,0.761,0,0,0,0, ,0,0,0,0,0, ,421.5,292.2,774,-27,218.2,23.8,25,708.065,274.17,467.629,-6.95574,111.566,-13.6982,
2026_07_06_16_57_07.328,3.858,32.7,0,0.762,0,0,0,0, ,0,0,0,0,0, ,253.7,234.8,863.8,-37.4,193.8,34.2,25,685.49,273.52,489.035,-8.49406,117.321,-11.0963,
2026_07_06_16_57_07.355,3.858,32.7,0,0.761,0,0,0,0, ,0,0,0,0,0, ,230.8,246.4,809.4,-60.5,201.1,53.8,25,658.48,271.514,510.214,-10.9593,122.204,-7.73885,
2026_07_06_16_57_07.368,3.858,32.8,0,0.762,0,0,0,0, ,0,0,0,0,0, ,318.1,265.9,771.2,-53,213.4,50.3,25,635.078,270.577,527.282,-13.7497,127.386,-4.09547,
2026_07_06_16_57_07.397,3.858,32.8,0,0.762,0,0,0,0, ,0,0,0,0,0, ,-36,192.8,795.8,-39.1,151.3,44.9,25,604.974,268.065,542.895,-15.718,130.736,-0.945276,
2026_07_06_16_57_07.411,3.858,32.7,0,0.761,0,0,0,0, ,0,0,0,0,0, ,-9.3,104.1,780.6,-8.8,83.2,47.2,25,566.728,260.776,557.844,-16.2196,129.914,1.9185,
2026_07_06_16_57_07.438,3.858,32.8,0,0.763,0,0,0,0, ,0,0,0,0,0, ,31.1,150.8,837.1,20.4,39.1,64.9,25,532.857,252.652,573.139,-14.8778,125.724,5.21714,
2026_07_06_16_57_07.447,3.858,32.8,0,0.761,0,0,0,0, ,0,0,0,0,0, ,13.4,255.9,894,32.3,38.6,57,25,501.742,249.647,590.958,-12.3655,120.43,8.61336,
2026_07_06_16_57_07.475,3.858,32.8,0,0.762,0,0,0,0, ,0,0,0,0,0, ,-55.5,293.3,988.7,15.4,51,41.7,25,469.884,251.168,612.31,-10.1586,115.821,11.0957,
2026_07_06_16_57_07.487,3.858,32.8,0,0.761,0,0,0,0, ,0,0,0,0,0, ,-84.3,241.9,977.6,8.6,56.1,28.1,25,436.991,252.169,634.908,-8.80833,112.026,12.5463,
2026_07_06_16_57_07.515,3.858,32.7,0,0.762,0,0,0,0, ,0,0,0,0,0, ,-140.3,134.1,891.8,11.4,41.8,20.9,25,403.519,248.259,653.177,-7.6622,108.183,13.2747,
2026_07_06_16_57_07.528,3.858,32.8,0,0.761,0,0,0,0, ,0,0,0,0,0, ,-92.2,228.2,914.1,15.7,13.8,26,25,371.845,244.169,668.397,-6.36958,103.284,13.8948,
2026_07_06_16_57_07.556,3.858,32.8,0,0.761,0,0,0,0, ,0,0,0,0,0, ,-50.9,272,965.2,18.5,10.6,33.3,25,344.826,244.531,684.927,-4.9394,97.7339,14.8549,
2026_07_06_16_57_07.566,3.858,32.8,0,0.762,0,0,0,0, ,0,0,0,0,0, ,-76.4,301.6,1007.9,15.5,28.6,26.9,25,319.934,247.107,703.307,-3.60247,92.9726,15.7839,
2026_07_06_16_57_07.595,3.858,32.8,0,0.762,0,0,0,0, ,0,0,0,0,0, ,-137.3,260.7,977.2,10.2,30.8,22.8,25,293.927,249.181,720.933,-2.5999,89.1169,16.3363,
2026_07_06_16_57_07.605,3.858,32.8,0,0.761,0,0,0,0, ,0,0,0,0,0, ,-187.7,254.7,960.6,11,11.7,22.1,25,266.114,249.7,736.043,-1.79553,84.9813,16.7089,
2026_07_06_16_57_07.634,3.858,32.8,0,0.762,0,0,0,0, ,0,0,0,0,0, ,-131.4,271.8,946.1,11.9,-12.1,24,25,240.175,250.526,749.285,-0.988381,79.7906,17.0953,
2026_07_06_16_57_07.645,3.858,32.8,0,0.762,0,0,0,0, ,0,0,0,0,0, ,-69.7,309.3,947.3,14.2,-5.3,29.2,25,219.412,252.965,761.315,-0.132917,74.3982,17.6745,
2026_07_06_16_57_07.674,3.858,32.7,0,0.762,0,0,0,0, ,0,0,0,0,0, ,-110.5,325,985.1,14,8.7,28.1,25,200.551,256.876,773.8,0.734401,69.9681,18.3433,
2026_07_06_16_57_07.683,3.858,32.8,0,0.763,0,0,0,0, ,0,0,0,0,0, ,-144.5,308.9,995.4,11.1,7.4,21.5,25,180.56,260.537,786.99,1.45441,66.195,18.7368,
2026_07_06_16_57_07.712,3.858,32.7,0,0.761,0,0,0,0, ,0,0,0,0,0, ,-148.4,297.6,988.4,12.5,3.5,19.8,25,160.633,263.14,799.477,2.08485,62.4933,18.8534,
2026_07_06_16_57_07.724,3.858,32.8,0,0.762,0,0,0,0, ,0,0,0,0,0, ,-126.3,327.6,1017.5,13.7,-4.6,16,25,142.475,266.154,811.876,2.75608,58.6516,18.7953,
2026_07_06_16_57_07.751,3.858,32.8,0,0.761,0,0,0,0, ,0,0,0,0,0, ,-79.3,346.1,1035,7.9,-7.5,13.2,25,127.528,270.462,824.94,3.24626,54.7089,18.5396,
2026_07_06_16_57_07.765,3.858,32.8,0,0.762,0,0,0,0, ,0,0,0,0,0, ,-47.7,334.7,1011.9,3.3,-6.8,19.2,25,115.888,274.724,837.036,3.38969,50.9394,18.397,
2026_07_06_16_57_07.793,3.858,32.8,0,0.762,0,0,0,0, ,0,0,0,0,0, ,-95.9,349.7,1018.7,1.6,-15,24.9,25,104.45,278.835,847.899,3.33243,47.171,18.6196,
2026_07_06_16_57_07.803,3.858,32.7,0,0.762,0,0,0,0, ,0,0,0,0,0, ,-111,348,1036.9,3.7,-19,14.7,25,91.7815,283.102,858.862,3.29084,43.2606,18.6916,
2026_07_06_16_57_07.831,3.858,32.8,0,0.762,0,0,0,0, ,0,0,0,0,0, ,-91,356.6,1045.5,2.7,-25.1,7.9,25,80.0339,287.319,869.973,3.28531,39.2807,18.2412,
2026_07_06_16_57_07.843,3.858,32.8,0,0.762,0,0,0,0, ,0,0,0,0,0, ,-64.3,370.8,1020.6,7.8,-31.7,7.3,25,70.425,291.973,879.911,3.40503,35.1564,17.5927,
2026_07_06_16_57_07.870,3.858,32.8,0,0.762,0,0,0,0, ,0,0,0,0,0, ,-36.6,337.1,1036.7,-4.3,-42.2,18,25,63.0592,295.75,888.974,3.30418,30.7625,17.2915,
2026_07_06_16_57_07.886,3.858,32.8,0,0.76,0,0,0,0, ,0,0,0,0,0, ,47.2,397,991.8,-7.6,-68.2,26.5,25,59.5395,300.095,896.608,2.74025,25.5241,17.5937,
2026_07_06_16_57_07.917,3.858,32.8,0,0.762,0,0,0,0, ,0,0,0,0,0, ,-52.7,373.7,1073.2,-10.8,-112.3,23.7,25,55.7437,305.29,904.889,2.01264,18.4691,18.0511,
2026_07_06_16_57_07.922,3.858,32.7,0,0.761,0,0,0,0, ,0,0,0,0,0, ,-69.3,318.1,1097.7,-33,-148.3,25.3,25,48.6297,307.765,915.892,0.555466,9.40352,18.4441,
2026_07_06_16_57_07.950,3.858,32.8,0,0.76,0,0,0,0, ,0,0,0,0,0, ,14.4,304.6,1017.7,-31.5,-154.6,19.4,25,43.9936,307.983,924.534,-1.44362,-0.398495,18.6821,
2026_07_06_16_57_07.961,3.858,32.7,0,0.761,0,0,0,0, ,0,0,0,0,0, ,159.9,345.8,962.7,-12.5,-151.4,0.8,25,46.6234,309.032,928.535,-2.69627,-9.69765,18.1591,
2026_07_06_16_57_07.989,3.858,32.8,0,0.761,0,0,0,0, ,0,0,0,0,0, ,289.4,360.4,1054.5,-17.4,-154,-5.7,25,57.4719,311.718,933.414,-3.44298,-18.4119,16.9032,
2026_07_06_16_57_08.001,3.858,32.8,0,0.762,0,0,0,0, ,0,0,0,0,0, ,345,350.9,1075,-45.1,-149.1,5,25,73.2991,314.395,941.417,-5.13747,-26.525,15.8519,
2026_07_06_16_57_08.028,3.858,32.7,0,0.762,0,0,0,0, ,0,0,0,0,0, ,386.1,318.9,1007.6,-65.8,-146.5,16.8,25,91.1081,315.644,947.504,-8.20339,-33.9152,15.5501,
2026_07_06_16_57_08.040,3.858,32.8,0,0.762,0,0,0,0, ,0,0,0,0,0, ,302.8,285.2,947,-73.8,-159,13.7,25,106.546,314.816,949.32,-11.9569,-41.1567,15.5318,
2026_07_06_16_57_08.068,3.858,32.8,0,0.762,0,0,0,0, ,0,0,0,0,0, ,280.2,193.4,879.3,-71.8,-196.1,8.6,25,117.817,310.214,947.116,-15.6646,-49.4681,15.2648,
2026_07_06_16_57_08.080,3.858,32.8,0,0.762,0,0,0,0, ,0,0,0,0,0, ,442.1,155,704.9,-55.6,-221.3,8.7,25,132.645,301.926,937.669,-18.5917,-59.1713,14.8617,
2026_07_06_16_57_08.108,3.858,32.7,0,0.761,0,0,0,0, ,0,0,0,0,0, ,399.7,177.6,761.3,-32.2,-199.2,-8.3,25,150.21,293.661,925.203,-20.1339,-68.3777,13.9683,
2026_07_06_16_57_08.119,3.858,32.8,0,0.762,0,0,0,0, ,0,0,0,0,0, ,406.3,176.7,683.1,-26.3,-237.6,-8.2,25,165.615,286.561,912.833,-20.6895,-77.5197,12.6143,
2026_07_06_16_57_08.148,3.858,32.7,0,0.761,0,0,0,0, ,0,0,0,0,0, ,451.5,193.9,526,-10.9,-250.1,-18.2,25,181.659,280.391,894.047,-20.5621,-87.6554,11.0413,
2026_07_06_16_57_08.158,3.858,32.7,0,0.761,0,0,0,0, ,0,0,0,0,0, ,503.1,155.6,543.5,-0.6,-250.1,-28.2,25,199.674,273.953,872.152,-19.6595,-97.5544,8.95471,
2026_07_06_16_57_08.187,3.858,32.7,0,0.763,0,0,0,0, ,0,0,0,0,0, ,886.1,163.2,344.6,1.9,-250.1,-17.9,25,229.834,266.973,846.065,-18.4219,-106.85,7.00442,
2026_07_06_16_57_08.199,3.858,32.8,0,0.763,0,0,0,0, ,0,0,0,0,0, ,1071.6,97,282.4,-2.8,-250.1,3.5,25,275.477,258.632,813.612,-17.3267,-115.579,6.13884,
2026_07_06_16_57_08.226,3.858,32.8,0,0.762,0,0,0,0, ,0,0,0,0,0, ,810.9,51,189.4,-47.9,-246.5,17.7,25,316.048,247.381,778.407,-17.8157,-123.667,6.41069,
2026_07_06_16_57_08.238,3.858,32.7,0,0.762,0,0,0,0, ,0,0,0,0,0, ,919.9,107.9,218,2.9,-243.9,27,25,349.524,237.148,743.386,-18.1011,-131.073,7.38199,
2026_07_06_16_57_08.267,3.858,32.8,0,0.761,0,0,0,0, ,0,0,0,0,0, ,872.3,181.1,143.7,47.7,-232.3,20.1,25,382.831,231.502,709.107,-15.4564,-137.595,8.36723,
2026_07_06_16_57_08.278,3.858,32.8,0,0.763,0,0,0,0, ,0,0,0,0,0, ,908.9,173.7,138.5,85.7,-209.8,-0.5,25,413.773,228.205,674.494,-10.45,-142.68,8.45454,
2026_07_06_16_57_08.308,3.858,32.8,0,0.762,0,0,0,0, ,0,0,0,0,0, ,926.8,78.9,20.8,114.4,-199.1,8.8,25,444.49,221.995,638.245,-3.71636,-146.445,8.19223,
2026_07_06_16_57_08.317,3.858,32.7,0,0.762,0,0,0,0, ,0,0,0,0,0, ,1049.9,53.5,-87.1,129.6,-182.9,35.4,25,477.632,212.501,597.332,3.94448,-149.16,9.03974,
2026_07_06_16_57_08.347,3.858,32.8,0,0.761,0,0,0,0, ,0,0,0,0,0, ,1091.9,81.1,-140,122.2,-155.5,48.9,25,513.784,203.653,554.013,11.3761,-150.381,11.0574,
2026_07_06_16_57_08.356,3.858,32.8,0,0.761,0,0,0,0, ,0,0,0,0,0, ,1035.1,94.8,-162.8,122.4,-144.8,49.6,25,547.282,196.603,511.027,18.1356,-150.367,13.3848,
2026_07_06_16_57_08.386,3.858,32.8,0,0.761,0,0,0,0, ,0,0,0,0,0, ,917.1,131.2,-179.8,125.1,-137.2,45.7,25,573.413,191.508,469.447,24.5714,-149.796,15.4728,
2026_07_06_16_57_08.402,3.858,32.8,0,0.762,0,0,0,0, ,0,0,0,0,0, ,853.2,87.1,-190,100.6,-144.9,35.9,25,592.41,186.489,429.573,29.9509,-149.263,17.0162,
2026_07_06_16_57_08.431,3.858,32.8,0,0.762,0,0,0,0, ,0,0,0,0,0, ,748.5,92.1,-306.7,84.6,-153.4,23.5,25,605.112,180.585,388.262,33.7686,-149.256,17.7891,
2026_07_06_16_57_08.436,3.858,32.8,0,0.761,0,0,0,0, ,0,0,0,0,0, ,936,20,-326.7,64.4,-152.5,1.1,25,619.562,172.996,345.304,36.2507,-149.481,17.4546,
2026_07_06_16_57_08.464,3.858,32.8,0,0.761,0,0,0,0, ,0,0,0,0,0, ,878.7,-14.5,-373.5,61.6,-122.7,-20,25,637.099,162.622,302.927,37.8807,-148.757,15.8151,
2026_07_06_16_57_08.475,3.858,32.8,0,0.762,0,0,0,0, ,0,0,0,0,0, ,823.7,37.1,-454.2,66.8,-119.9,-43,25,650.146,153.401,259.249,39.4845,-147.084,12.9318,
2026_07_06_16_57_08.504,3.858,32.8,0,0.762,0,0,0,0, ,0,0,0,0,0, ,814.9,-1,-441.2,68,-138.1,-53.6,25,660.454,145.153,216.169,41.1856,-145.982,9.20052,
2026_07_06_16_57_08.515,3.858,32.7,0,0.762,0,0,0,0, ,0,0,0,0,0, ,772.2,16.1,-576.7,76.3,-154,-51,25,668.564,136.768,171.982,43.0725,-145.986,5.45284,
2026_07_06_16_57_08.544,3.858,32.7,0,0.761,0,0,0,0, ,0,0,0,0,0, ,712.6,-40.2,-650.2,91.3,-191,-70.3,25,673.064,127.699,124.12,45.5544,-147.602,1.42469,
2026_07_06_16_57_08.555,3.858,32.8,0,0.761,0,0,0,0, ,0,0,0,0,0, ,774.5,-62.3,-557.6,90.2,-184.9,-86,25,677.359,116.794,79.7562,48.3085,-150.061,-3.42439,
2026_07_06_16_57_08.586,3.858,32.8,0,0.762,0,0,0,0, ,0,0,0,0,0, ,803.2,-41.3,-555.9,42.5,-147.2,-76.4,25,684.153,106.521,40.9691,49.4079,-151.035,-8.16384,
2026_07_06_16_57_08.595,3.858,32.8,0,0.761,0,0,0,0, ,0,0,0,0,0, ,768.3,-62.9,-713.9,3.3,-124.4,-42.1,25,690.344,96.8547,-0.216658,47.7925,-150.107,-11.2769,
2026_07_06_16_57_08.626,3.858,32.8,0,0.762,0,0,0,0, ,0,0,0,0,0, ,692.1,-11.7,-858,12.2,-147.9,-4.2,25,692.773,88.6796,-48.0973,45.3525,-149.256,-12.0004,
2026_07_06_16_57_08.634,3.858,32.7,0,0.763,0,0,0,0, ,0,0,0,0,0, ,640.1,29.6,-772.8,33.5,-155.1,-4.5,25,691.147,83.8211,-94.8548,43.9812,-149.393,-11.5342,
2026_07_06_16_57_08.663,3.858,32.7,0,0.762,0,0,0,0, ,0,0,0,0,0, ,640.6,26.1,-651.3,14.3,-102.5,-15.4,25,688.052,80.4104,-132.465,42.7575,-148.138,-11.4377,
2026_07_06_16_57_08.673,3.858,32.8,0,0.762,0,0,0,0, ,0,0,0,0,0, ,606.2,43.5,-840.8,-18.7,-62.3,-11.5,25,684.112,77.631,-169.855,40.0179,-144.132,-11.5603,
2026_07_06_16_57_08.703,3.858,32.7,0,0.761,0,0,0,0, ,0,0,0,0,0, ,566.7,94.8,-899.7,-19,-74,-12,25,678.161,77.1142,-212.536,36.4307,-139.502,-11.5719,
2026_07_06_16_57_08.713,3.858,32.8,0,0.76,0,0,0,0, ,0,0,0,0,0, ,595.5,40,-835.8,-2.3,-69.1,-14.5,25,672.246,76.5222,-252.463,33.5617,-135.361,-11.6741,
2026_07_06_16_57_08.743,3.858,32.8,0,0.76,0,0,0,0, ,0,0,0,0,0, ,566.2,9,-902.8,13.5,-45.5,-4.3,25,666.677,73.3521,-290.051,31.8578,-130.604,-11.5355,
2026_07_06_16_57_08.752,3.858,32.7,0,0.762,0,0,0,0, ,0,0,0,0,0, ,510.6,41.5,-975.8,27.2,-46.8,4.1,25,658.86,70.4209,-329.615,31.1565,-125.458,-10.8387,
2026_07_06_16_57_08.781,3.858,32.8,0,0.762,0,0,0,0, ,0,0,0,0,0, ,540.7,47.8,-936.8,22.1,-48,0.2,25,650.742,68.8505,-367.804,30.76,-120.701,-10.0472,
2026_07_06_16_57_08.792,3.858,32.8,0,0.763,0,0,0,0, ,0,0,0,0,0, ,504.6,84.4,-932.4,15,-42.7,-0.2,25,642.937,68.6829,-402.343,30.016,-116.109,-9.43495,
2026_07_06_16_57_08.823,3.858,32.8,0,0.762,0,0,0,0, ,0,0,0,0,0, ,510.3,83,-883.9,3.2,-32.3,-4.7,25,634.681,69.598,-433.165,28.7414,-111.319,-9.0093,
2026_07_06_16_57_08.831,3.858,32.8,0,0.762,0,0,0,0, ,0,0,0,0,0, ,501.4,58.1,-866.4,4.7,-16.1,-2.7,25,626.83,69.656,-460.099,27.2307,-106.01,-8.68577,
2026_07_06_16_57_08.862,3.858,32.8,0,0.761,0,0,0,0, ,0,0,0,0,0, ,471.1,39.6,-921.5,-0.9,-11.8,1.1,25,618.263,68.3881,-486.537,25.6871,-100.4,-8.20523,
2026_07_06_16_57_08.872,3.858,32.8,0,0.762,0,0,0,0, ,0,0,0,0,0, ,477.9,63.3,-938.4,0.1,-18.6,4.8,25,609.503,67.356,-513.557,24.0974,-95.2085,-7.52546,
2026_07_06_16_57_08.903,3.858,32.8,0,0.762,0,0,0,0, ,0,0,0,0,0, ,452.8,59.2,-933.5,3.7,-14.1,6.1,25,600.718,66.9839,-539.297,22.7448,-90.4031,-6.73476,
2026_07_06_16_57_08.911,3.858,32.8,0,0.763,0,0,0,0, ,0,0,0,0,0, ,490.2,46.5,-893.1,-1.9,-3.5,2.4,25,592.844,66.1226,-562.087,21.4136,-85.4304,-6.06538,
2026_07_06_16_57_08.941,3.858,32.8,0,0.762,0,0,0,0, ,0,0,0,0,0, ,472.4,41.6,-895.3,-0.1,2.8,-7.1,25,586.047,64.7775,-582.326,20.0478,-80.2458,-5.83897,
2026_07_06_16_57_08.950,3.858,32.7,0,0.762,0,0,0,0, ,0,0,0,0,0, ,456.1,58.4,-904.9,-0.5,4.9,-5.8,25,578.625,63.877,-601.69,18.8078,-75.1212,-5.87621,
2026_07_06_16_57_08.980,3.858,32.9,0,0.762,0,0,0,0, ,0,0,0,0,0, ,400.7,48,-897,1.5,1.4,1.8,25,569.471,63.2264,-619.926,17.6922,-70.3516,-5.64,
2026_07_06_16_57_08.993,3.858,32.8,0,0.761,0,0,0,0, ,0,0,0,0,0, ,451.9,74.7,-909.6,1,-6.5,-0.9,25,560.746,63.1121,-637.194,16.6902,-66.2199,-5.26889,
2026_07_06_16_57_09.023,3.858,32.8,0,0.761,0,0,0,0, ,0,0,0,0,0, ,499.8,50.6,-888.3,-5.8,-2.5,2.7,25,555.573,63.0839,-653.145,15.5269,-62.4589,-4.89298,
2026_07_06_16_57_09.029,3.858,32.8,0,0.761,0,0,0,0, ,0,0,0,0,0, ,523.8,-27.3,-851.5,8.7,24.3,9.1,25,552.905,59.9497,-666.353,14.6691,-57.9886,-4.23528,
2026_07_06_16_57_09.060,3.858,32.8,0,0.761,0,0,0,0, ,0,0,0,0,0, ,463.2,80.5,-954.9,2.6,20.3,1,25,549.285,57.9174,-680.786,14.1195,-53.096,-3.66946,
2026_07_06_16_57_09.069,3.858,32.7,0,0.761,0,0,0,0, ,0,0,0,0,0, ,508.5,50.4,-886.7,-0.9,7.5,1.9,25,545.42,58.3764,-695.412,13.3109,-49.0134,-3.35749,
2026_07_06_16_57_09.100,3.858,32.7,0,0.762,0,0,0,0, ,0,0,0,0,0, ,479.6,36.6,-882.4,-5.4,11.4,0.3,25,542.289,57.4699,-706.938,12.3078,-45.4508,-3.08586,
2026_07_06_16_57_09.109,3.858,32.7,0,0.762,0,0,0,0, ,0,0,0,0,0, ,437.5,61.1,-919,-5.4,12.8,-2.2,25,537.187,56.9446,-718.745,11.2287,-41.9438,-2.95571,
2026_07_06_16_57_09.140,3.858,32.7,0,0.762,0,0,0,0, ,0,0,0,0,0, ,470.7,13.4,-878.7,-3.4,2.7,-1,25,532.124,55.7445,-729.72,10.2764,-38.9156,-2.87309,
2026_07_06_16_57_09.148,3.858,32.8,0,0.762,0,0,0,0, ,0,0,0,0,0, ,505.9,46.1,-887.5,-2.8,3,1.7,25,529.453,54.1604,-739.067,9.46125,-36.3705,-2.67669,
2026_07_06_16_57_09.178,3.858,32.8,0,0.761,0,0,0,0, ,0,0,0,0,0, ,517.8,50.7,-890.6,-13.5,17.6,4,25,528.38,53.8094,-748.206,8.38806,-33.5265,-2.3399,
2026_07_06_16_57_09.187,3.858,32.8,0,0.761,0,0,0,0, ,0,0,0,0,0, ,502.3,44.1,-875.8,-20.8,25.2,1.8,25,527.263,53.4188,-756.433,6.83184,-30.1794,-2.0206,
2026_07_06_16_57_09.219,3.858,32.7,0,0.762,0,0,0,0, ,0,0,0,0,0, ,479.8,30.8,-870.4,-19.8,24,0.2,25,525.057,52.4457,-763.542,5.17849,-26.8413,-1.83653,
2026_07_06_16_57_09.227,3.858,32.7,0,0.76,0,0,0,0, ,0,0,0,0,0, ,478.5,30.6,-873.9,-10.5,17.9,1.7,25,522.259,51.1206,-770.16,3.93972,-23.929,-1.66673,
2026_07_06_16_57_09.257,3.858,32.8,0,0.762,0,0,0,0, ,0,0,0,0,0, ,494.8,52.3,-854.6,-3.9,12.1,3.9,25,520.089,50.5313,-775.894,3.2609,-21.5568,-1.39453,
2026_07_06_16_57_09.267,3.858,32.7,0,0.763,0,0,0,0, ,0,0,0,0,0, ,516.7,55.7,-849.4,-4.9,16.5,2.1,25,519.215,50.7427,-780.532,2.79406,-19.3718,-1.12674,
2026_07_06_16_57_09.296,3.858,32.8,0,0.762,0,0,0,0, ,0,0,0,0,0, ,519.8,53.7,-847.6,-6,16.3,0.1,25,519.157,50.9838,-784.673,2.29169,-17.1919,-0.991051,
2026_07_06_16_57_09.306,3.858,32.7,0,0.762,0,0,0,0, ,0,0,0,0,0, ,513.7,51.3,-849.1,-5.8,15.1,-1,25,519.01,51.0762,-788.554,1.79251,-15.1876,-0.958081,
2026_07_06_16_57_09.339,3.858,32.7,0,0.762,0,0,0,0, ,0,0,0,0,0, ,508.7,53.4,-838.7,-5.7,9.8,-1,25,518.534,51.1538,-791.926,1.33289,-13.5034,-0.960635,
2026_07_06_16_57_09.346,3.858,32.8,0,0.76,0,0,0,0, ,0,0,0,0,0, ,513.9,64,-822.6,-7.5,6.9,-0.1,25,518.093,51.6137,-794.286,0.849475,-12.1717,-0.935612,
2026_07_06_16_57_09.377,3.858,32.7,0,0.76,0,0,0,0, ,0,0,0,0,0, ,518.5,58.3,-827.8,-7.7,7.4,0.6,25,517.978,52.1948,-796.17,0.334586,-10.9943,-0.863364,
2026_07_06_16_57_09.386,3.858,32.7,0,0.763,0,0,0,0, ,0,0,0,0,0, ,530.2,53.1,-828.4,-5.3,5.5,-0.1,25,518.366,52.4084,-798.116,-0.0818969,-9.93128,-0.795518,
2026_07_06_16_57_09.416,3.858,32.9,0,0.762,0,0,0,0, ,0,0,0,0,0, ,535.4,69.3,-827.7,-5.7,6.9,-2.4,25,519.246,52.9441,-799.94,-0.412063,-8.94828,-0.823213,
2026_07_06_16_57_09.425,3.858,32.7,0,0.761,0,0,0,0, ,0,0,0,0,0, ,546.5,79.1,-822.7,-13.3,13.7,-6.1,25,520.568,54.2394,-801.479,-0.965859,-7.77534,-1.03203,
2026_07_06_16_57_09.456,3.858,32.7,0,0.762,0,0,0,0, ,0,0,0,0,0, ,557.7,98.2,-825.5,-23.2,18.7,-7.2,25,522.49,56.3363,-802.858,-2.01911,-6.31434,-1.37438,
2026_07_06_16_57_09.464,3.858,32.7,0,0.764,0,0,0,0, ,0,0,0,0,0, ,599.4,115.3,-827.8,-33.8,27.7,-7.2,25,525.906,59.4084,-804.307,-3.63279,-4.51581,-1.72938,
2026_07_06_16_57_09.494,3.858,32.8,0,0.762,0,0,0,0, ,0,0,0,0,0, ,619.8,112.4,-830.5,-46.3,47.9,-12.6,25,531.006,62.7259,-805.821,-5.85196,-1.93719,-2.22727,
2026_07_06_16_57_09.504,3.858,32.8,0,0.761,0,0,0,0, ,0,0,0,0,0, ,637.4,114.7,-841.4,-57,69.7,-19,25,536.953,65.823,-807.657,-8.64278,1.76398,-3.05436,
2026_07_06_16_57_09.533,3.858,32.7,0,0.761,0,0,0,0, ,0,0,0,0,0, ,631.3,148.1,-818.6,-65.8,82.3,-25.6,25,542.888,69.8191,-809.019,-11.8577,6.28774,-4.22714,
2026_07_06_16_57_09.544,3.858,32.7,0,0.763,0,0,0,0, ,0,0,0,0,0, ,642.2,176,-781.6,-74.1,86.5,-29,25,548.608,75.4394,-808.475,-15.3977,11.0477,-5.63314,
2026_07_06_16_57_09.574,3.858,32.8,0,0.762,0,0,0,0, ,0,0,0,0,0, ,692.7,242.3,-770.2,-82.5,93.3,-30.3,25,555.85,83.5874,-806.49,-19.2308,15.8528,-7.09667,
2026_07_06_16_57_09.583,3.858,32.7,0,0.762,0,0,0,0, ,0,0,0,0,0, ,743.4,250.1,-769,-49.1,121.9,-19,25,565.734,93.4966,-804.242,-22.0686,21.4436,-8.16633,
2026_07_06_16_57_09.620,3.858,32.7,0,0.762,0,0,0,0, ,0,0,0,0,0, ,733.5,150.6,-810.6,-38.7,145.1,-43.7,25,576.259,100.008,-803.362,-23.3989,28.272,-9.57908,
2026_07_06_16_57_09.625,3.858,32.7,0,0.762,0,0,0,0, ,0,0,0,0,0, ,739.8,214.1,-667.7,-69.7,147.7,-61.8,25,586.033,105.026,-799.449,-25.2759,35.4705,-12.2098,
2026_07_06_16_57_09.657,3.858,32.8,0,0.762,0,0,0,0, ,0,0,0,0,0, ,758.7,233.5,-652.4,-79.8,145,-63.6,25,595.979,112.264,-790.955,-28.2907,42.2272,-15.2866,
2026_07_06_16_57_09.663,3.858,32.8,0,0.761,0,0,0,0, ,0,0,0,0,0, ,764.2,273.4,-613.8,-101.7,136.1,-63.9,25,606.062,120.867,-781.335,-32.0968,48.2187,-18.2398,
2026_07_06_16_57_09.695,3.858,32.9,0,0.762,0,0,0,0, ,0,0,0,0,0, ,772.4,309.8,-538.5,-103.1,129.3,-68.4,25,615.949,131.271,-768.832,-36.3809,53.3668,-21.1593,
