UTC_Time,Vin,TC1,TC2,Rh1,Vh1,Ah1,Acp1,Dty1,Err1,Rh2,Vh2,Ah2,Acp2,Dty2,Err2,Accel_x,Accel_y,Accel_z,gyro_x,gyro_y,gyro_z,Temp_c,Accel_x_h,Accel_y_h,Accel_z_h,gyro_x_h,gyro_y_h,gyro_z_h,
2026_07_06_19_05_19.674,3.854,49.1,0,0.771,0,0,0,0, ,0,0,0,0,0, ,-37.5,323.9,948.2,-0.4,-0.4,-1.6,25,-37.5,323.9,948.2,-0.4,-0.4,-1.6,
2026_07_06_19_05_19.693,3.854,49,0,0.773,0,0,0,0, ,0,0,0,0,0, ,-38.5,324,947,-0.4,-0.4,-1.6,25,-37.5305,323.903,948.163,-0.4,-0.4,-1.6,
2026_07_06_19_05_19.713,3.854,48.9,0,0.773,0,0,0,0, ,0,0,0,0,0, ,-38.2,323.3,949,-0.4,-0.4,-1.6,25,-37.5804,323.888,948.153,-0.4,-0.4,-1.6,
2026_07_06_19_05_19.733,3.854,49,0,0.772,0,0,0,0, ,0,0,0,0,0, ,-37.2,323.9,948.2,-0.4,-0.4,-1.6,25,-37.5877,323.87,948.181,-0.4,-0.4,-1.6,
2026_07_06_19_05_19.753,3.854,49,0,0.773,0,0,0,0, ,0,0,0,0,0, ,-37.9,323.9,948.2,-0.5,-0.4,-1.6,25,-37.5854,323.872,948.182,-0.403047,-0.4,-1.6,
2026_07_06_19_05_19.773,3.854,48.9,0,0.772,0,0,0,0, ,0,0,0,0,0, ,-38.2,324.5,948.6,-0.5,-0.4,-1.6,25,-37.6137,323.892,948.195,-0.408955,-0.4,-1.6,
2026_07_06_19_05_19.792,3.854,49,0,0.772,0,0,0,0, ,0,0,0,0,0, ,-38.3,323.1,948.3,-0.5,-0.4,-1.7,25,-37.6525,323.886,948.211,-0.414503,-0.4,-1.60305,
2026_07_06_19_05_19.811,3.854,48.9,0,0.772,0,0,0,0, ,0,0,0,0,0, ,-38.5,323.2,948.3,-0.5,-0.4,-1.6,25,-37.698,323.841,948.216,-0.419713,-0.4,-1.60591,
2026_07_06_19_05_19.832,3.854,48.7,0,0.774,0,0,0,0, ,0,0,0,0,0, ,-39.4,324.2,948.1,-0.5,-0.4,-1.7,25,-37.7743,323.833,948.215,-0.424605,-0.4,-1.60859,
2026_07_06_19_05_19.851,3.854,48.7,0,0.772,0,0,0,0, ,0,0,0,0,0, ,-37.7,324.2,947.7,-0.3,-0.4,-1.7,25,-37.8216,323.855,948.196,-0.423106,-0.4,-1.61416,
2026_07_06_19_05_19.872,3.854,49,0,0.772,0,0,0,0, ,0,0,0,0,0, ,-38.3,323.4,947.5,-0.4,-0.4,-1.7,25,-37.8325,323.852,948.16,-0.418651,-0.4,-1.6194,
2026_07_06_19_05_19.892,3.854,49,0,0.772,0,0,0,0, ,0,0,0,0,0, ,-38.3,323.2,947.3,-0.5,-0.3,-1.7,25,-37.861,323.818,948.113,-0.420562,-0.396953,-1.62431,
2026_07_06_19_05_19.911,3.854,49,0,0.771,0,0,0,0, ,0,0,0,0,0, ,-38,324.7,947.3,-0.5,-0.4,-1.5,25,-37.8786,323.826,948.064,-0.425402,-0.394092,-1.62283,
2026_07_06_19_05_19.931,3.854,49,0,0.771,0,0,0,0, ,0,0,0,0,0, ,-38.4,324.4,949.2,-0.5,-0.4,-1.7,25,-37.8982,323.87,948.075,-0.429948,-0.394452,-1.62144,
2026_07_06_19_05_19.950,3.854,48.7,0,0.773,0,0,0,0, ,0,0,0,0,0, ,-38.3,324.3,947.6,-0.3,-0.4,-1.6,25,-37.9257,323.9,948.095,-0.428123,-0.39479,-1.62318,
2026_07_06_19_05_19.972,3.854,48.7,0,0.771,0,0,0,0, ,0,0,0,0,0, ,-37.5,323.4,948.6,-0.5,-0.4,-1.6,25,-37.9241,323.897,948.095,-0.426409,-0.395108,-1.62176,
2026_07_06_19_05_19.990,3.854,48.6,0,0.772,0,0,0,0, ,0,0,0,0,0, ,-38.3,325.6,947.3,-0.5,-0.4,-1.6,25,-37.9227,323.933,948.086,-0.430894,-0.395406,-1.62044,
2026_07_06_19_05_20.010,3.854,48.6,0,0.772,0,0,0,0, ,0,0,0,0,0, ,-39.1,323.3,948.1,-0.3,-0.4,-1.6,25,-37.97,323.965,948.063,-0.429011,-0.395686,-1.61919,
2026_07_06_19_05_20.031,3.854,48.6,0,0.772,0,0,0,0, ,0,0,0,0,0, ,-37.3,324,948.2,-0.5,-0.3,-1.6,25,-37.984,323.946,948.068,-0.427243,-0.392902,-1.61802,
2026_07_06_19_05_20.049,3.854,48.6,0,0.771,0,0,0,0, ,0,0,0,0,0, ,-38.8,323.9,947.2,-0.5,-0.4,-1.6,25,-37.9881,323.946,948.046,-0.431677,-0.390287,-1.61692,
2026_07_06_19_05_20.070,3.854,48.6,0,0.772,0,0,0,0, ,0,0,0,0,0, ,-38.5,325.1,948.8,-0.4,-0.4,-1.6,25,-38.0284,323.98,948.043,-0.432794,-0.390879,-1.61589,
2026_07_06_19_05_20.090,3.854,48.6,0,0.772,0,0,0,0, ,0,0,0,0,0, ,-38.8,323.2,947,-0.4,-0.4,-1.7,25,-38.0663,323.99,948.034,-0.430795,-0.391435,-1.61797,
2026_07_06_19_05_20.109,3.854,48.6,0,0.772,0,0,0,0, ,0,0,0,0,0, ,-38.3,324.7,948.9,-0.5,-0.4,-1.7,25,-38.0958,323.988,948.029,-0.431965,-0.391957,-1.62297,
2026_07_06_19_05_20.129,3.854,48.6,0,0.772,0,0,0,0, ,0,0,0,0,0, ,-37.2,325.4,947.6,-0.5,-0.4,-1.5,25,-38.0747,324.052,948.043,-0.436111,-0.392447,-1.62157,
2026_07_06_19_05_20.149,3.854,48.7,0,0.773,0,0,0,0, ,0,0,0,0,0, ,-39.4,327,947.3,-0.5,-0.5,-1.7,25,-38.0884,324.183,948.006,-0.440005,-0.395954,-1.62026,
2026_07_06_19_05_20.169,3.854,48.7,0,0.772,0,0,0,0, ,0,0,0,0,0, ,-37.5,323.2,947.1,-0.5,-0.4,-1.7,25,-38.1104,324.239,947.957,-0.44366,-0.399248,-1.62512,
2026_07_06_19_05_20.189,3.854,48.6,0,0.774,0,0,0,0, ,0,0,0,0,0, ,-38.5,323.9,948.9,-0.6,-0.4,-1.7,25,-38.1037,324.197,947.96,-0.450141,-0.399293,-1.62968,
2026_07_06_19_05_20.208,3.854,48.6,0,0.771,0,0,0,0, ,0,0,0,0,0, ,-38,325.8,947.8,-0.4,-0.3,-1.6,25,-38.1126,324.237,947.984,-0.453179,-0.39629,-1.63092,
2026_07_06_19_05_20.228,3.854,48.6,0,0.773,0,0,0,0, ,0,0,0,0,0, ,-37.9,324.2,947.5,-0.4,-0.4,-1.7,25,-38.1027,324.283,947.963,-0.449938,-0.393469,-1.63208,
2026_07_06_19_05_20.248,3.854,48.6,0,0.772,0,0,0,0, ,0,0,0,0,0, ,-38,324.3,949,-0.5,-0.3,-1.6,25,-38.0934,324.281,947.981,-0.449942,-0.39082,-1.63317,
2026_07_06_19_05_20.267,3.854,48.6,0,0.772,0,0,0,0, ,0,0,0,0,0, ,-38.5,324.3,947.7,-0.6,-0.4,-1.6,25,-38.103,324.282,948.003,-0.456039,-0.388333,-1.63115,
2026_07_06_19_05_20.288,3.854,48.6,0,0.771,0,0,0,0, ,0,0,0,0,0, ,-37.1,324.4,947.6,-0.4,-0.3,-1.7,25,-38.0845,324.287,947.982,-0.458718,-0.385997,-1.6323,
2026_07_06_19_05_20.306,3.854,48.6,0,0.772,0,0,0,0, ,0,0,0,0,0, ,-37.2,324.4,949.5,-0.5,-0.4,-1.6,25,-38.0275,324.294,948.016,-0.458187,-0.383803,-1.63338,
2026_07_06_19_05_20.329,3.854,48.5,0,0.772,0,0,0,0, ,0,0,0,0,0, ,-37.5,323.6,949,-0.3,-0.4,-1.7,25,-37.9863,324.276,948.092,-0.454641,-0.38479,-1.63439,
2026_07_06_19_05_20.346,3.854,48.4,0,0.773,0,0,0,0, ,0,0,0,0,0, ,-39.1,322.9,947.5,-0.3,-0.4,-1.7,25,-38.0054,324.213,948.101,-0.445218,-0.385717,-1.63839,
2026_07_06_19_05_20.367,3.854,48.5,0,0.772,0,0,0,0, ,0,0,0,0,0, ,-37.4,325.6,947.1,-0.2,-0.4,-1.6,25,-38.0203,324.215,948.052,-0.433322,-0.386587,-1.6391,
2026_07_06_19_05_20.386,3.854,48.5,0,0.773,0,0,0,0, ,0,0,0,0,0, ,-36.9,323.9,948.1,-0.4,-0.4,-1.7,25,-37.9673,324.248,948.025,-0.425197,-0.387405,-1.63976,
2026_07_06_19_05_20.405,3.854,48.5,0,0.771,0,0,0,0, ,0,0,0,0,0, ,-38.3,323.9,948.2,-0.4,-0.4,-1.7,25,-37.9449,324.227,948.032,-0.423662,-0.388172,-1.64343,
2026_07_06_19_05_20.425,3.854,48.5,0,0.771,0,0,0,0, ,0,0,0,0,0, ,-37.7,324.7,946.6,-0.4,-0.4,-1.8,25,-37.9482,324.231,947.994,-0.42222,-0.388893,-1.64993,
2026_07_06_19_05_20.445,3.854,48.4,0,0.773,0,0,0,0, ,0,0,0,0,0, ,-37.9,325,948.6,-0.3,-0.4,-1.6,25,-37.9392,324.269,947.97,-0.417819,-0.38957,-1.65298,
2026_07_06_19_05_20.466,3.854,48.4,0,0.772,0,0,0,0, ,0,0,0,0,0, ,-38.4,323.9,946.8,-0.4,-0.4,-1.7,25,-37.952,324.28,947.953,-0.413686,-0.390205,-1.6528,
2026_07_06_19_05_20.486,3.854,48.4,0,0.772,0,0,0,0, ,0,0,0,0,0, ,-37.7,322.6,946.7,-0.4,-0.4,-1.6,25,-37.958,324.217,947.88,-0.412852,-0.390802,-1.65263,
2026_07_06_19_05_20.507,3.854,48.4,0,0.771,0,0,0,0, ,0,0,0,0,0, ,-36.4,323.2,949,-0.4,-0.3,-1.6,25,-37.9027,324.137,947.878,-0.412069,-0.388316,-1.64942,
2026_07_06_19_05_20.525,3.854,48.4,0,0.771,0,0,0,0, ,0,0,0,0,0, ,-37.3,323.9,948.1,-0.4,-0.4,-1.6,25,-37.8385,324.101,947.919,-0.411334,-0.385981,-1.64641,
2026_07_06_19_05_20.545,3.854,48.4,0,0.772,0,0,0,0, ,0,0,0,0,0, ,-38.2,324.3,948.6,-0.5,-0.3,-1.6,25,-37.8331,324.101,947.945,-0.41369,-0.383788,-1.64358,
2026_07_06_19_05_20.564,3.854,48.3,0,0.772,0,0,0,0, ,0,0,0,0,0, ,-38.9,323.8,947.3,-0.5,-0.4,-1.6,25,-37.8768,324.098,947.946,-0.418949,-0.381729,-1.64092,
2026_07_06_19_05_20.585,3.854,48.4,0,0.772,0,0,0,0, ,0,0,0,0,0, ,-38.8,324.8,946.7,-0.4,-0.4,-1.6,25,-37.9361,324.11,947.888,-0.420842,-0.382843,-1.63843,
2026_07_06_19_05_20.603,3.854,48.3,0,0.771,0,0,0,0, ,0,0,0,0,0, ,-38.6,324.2,946.7,-0.4,-0.4,-1.7,25,-37.9827,324.134,947.816,-0.419572,-0.383888,-1.63913,
2026_07_06_19_05_20.624,3.854,48.4,0,0.772,0,0,0,0, ,0,0,0,0,0, ,-38.6,325.1,949.3,-0.5,-0.4,-1.6,25,-38.0203,324.165,947.827,-0.421426,-0.38487,-1.6398,
2026_07_06_19_05_20.644,3.854,48.4,0,0.772,0,0,0,0, ,0,0,0,0,0, ,-38.3,324.3,948.3,-0.5,-0.3,-1.6,25,-38.0465,324.198,947.886,-0.426214,-0.382745,-1.63737,
2026_07_06_19_05_20.663,3.854,48.3,0,0.772,0,0,0,0, ,0,0,0,0,0, ,-38.9,324.7,946.5,-0.5,-0.4,-1.6,25,-38.0802,324.216,947.857,-0.43071,-0.38075,-1.63509,
2026_07_06_19_05_20.683,3.854,48.3,0,0.772,0,0,0,0, ,0,0,0,0,0, ,-38.6,324.3,948.4,-0.5,-0.3,-1.7,25,-38.121,324.234,947.832,-0.434933,-0.378876,-1.636,
2026_07_06_19_05_20.704,3.854,48.3,0,0.772,0,0,0,0, ,0,0,0,0,0, ,-37.8,324.5,948.2,-0.5,-0.4,-1.7,25,-38.1258,324.244,947.86,-0.438898,-0.377116,-1.6399,
2026_07_06_19_05_20.723,3.854,48.4,0,0.772,0,0,0,0, ,0,0,0,0,0, ,-38.6,323.8,947.5,-0.4,-0.4,-1.5,25,-38.1304,324.238,947.86,-0.439574,-0.378511,-1.63747,
2026_07_06_19_05_20.743,3.854,48.3,0,0.771,0,0,0,0, ,0,0,0,0,0, ,-38.9,323.1,947.3,-0.5,-0.4,-1.7,25,-38.1681,324.19,947.832,-0.44021,-0.37982,-1.63519,
2026_07_06_19_05_20.762,3.854,48.4,0,0.771,0,0,0,0, ,0,0,0,0,0, ,-37.5,325.5,948.7,-0.5,-0.4,-1.6,25,-38.1701,324.197,947.842,-0.443853,-0.38105,-1.63609,
2026_07_06_19_05_20.782,3.854,48.3,0,0.772,0,0,0,0, ,0,0,0,0,0, ,-36.8,325,947.1,-0.4,-0.4,-1.6,25,-38.1079,324.261,947.846,-0.444228,-0.382205,-1.63389,
2026_07_06_19_05_20.802,3.854,48.2,0,0.772,0,0,0,0, ,0,0,0,0,0, ,-37.3,322.8,948.1,-0.4,-0.3,-1.7,25,-38.0434,324.239,947.831,-0.441532,-0.380242,-1.63487,
2026_07_06_19_05_20.821,3.854,48.2,0,0.773,0,0,0,0, ,0,0,0,0,0, ,-37.4,325.5,949.9,-0.6,-0.4,-1.6,25,-38.0012,324.234,947.902,-0.445095,-0.378399,-1.63579,
2026_07_06_19_05_20.842,3.854,48.3,0,0.772,0,0,0,0, ,0,0,0,0,0, ,-38.8,324,947.6,-0.4,-0.4,-1.6,25,-38.0072,324.265,947.953,-0.448441,-0.379716,-1.63361,
2026_07_06_19_05_20.861,3.854,48.3,0,0.772,0,0,0,0, ,0,0,0,0,0, ,-37.5,324.5,947.6,-0.5,-0.4,-1.7,25,-38.0159,324.264,947.932,-0.448536,-0.380952,-1.63461,
2026_07_06_19_05_20.888,3.854,48.3,0,0.773,0,0,0,0, ,0,0,0,0,0, ,-38.5,324.3,948.2,-0.5,-0.4,-1.6,25,-38.0149,324.272,947.93,-0.451672,-0.382113,-1.63555,
2026_07_06_19_05_20.902,3.854,48.2,0,0.772,0,0,0,0, ,0,0,0,0,0, ,-38.5,324.7,947.7,-0.5,-0.3,-1.7,25,-38.0445,324.286,947.931,-0.454617,-0.380156,-1.63643,
2026_07_06_19_05_20.921,3.854,48.3,0,0.773,0,0,0,0, ,0,0,0,0,0, ,-38.2,325.4,948.3,-0.5,-0.4,-1.6,25,-38.0631,324.333,947.935,-0.457383,-0.378318,-1.63726,
2026_07_06_19_05_20.940,3.854,48.3,0,0.772,0,0,0,0, ,0,0,0,0,0, ,-38.5,325.6,946.6,-0.4,-0.4,-1.6,25,-38.0806,324.404,947.906,-0.456933,-0.379639,-1.63499,
2026_07_06_19_05_20.961,3.854,48.1,0,0.77,0,0,0,0, ,0,0,0,0,0, ,-38.6,325.5,949.7,-0.4,-0.3,-1.7,25,-38.1092,324.474,947.921,-0.453463,-0.377833,-1.6359,
2026_07_06_19_05_20.981,3.854,48.1,0,0.772,0,0,0,0, ,0,0,0,0,0, ,-38.2,324.9,947,-0.5,-0.4,-1.7,25,-38.1269,324.518,947.947,-0.453252,-0.376137,-1.63981,
2026_07_06_19_05_21.000,3.854,48.2,0,0.772,0,0,0,0, ,0,0,0,0,0, ,-37.4,325.1,947.1,-0.4,-0.4,-1.6,25,-38.107,324.547,947.892,-0.453054,-0.377591,-1.64043,
2026_07_06_19_05_21.020,3.854,48.1,0,0.772,0,0,0,0, ,0,0,0,0,0, ,-37.3,323.7,948.1,-0.3,-0.4,-1.6,25,-38.0609,324.538,947.874,-0.446774,-0.378957,-1.63797,
2026_07_06_19_05_21.040,3.854,48.2,0,0.771,0,0,0,0, ,0,0,0,0,0, ,-36.7,324.7,947.2,-0.3,-0.4,-1.6,25,-37.9962,324.518,947.861,-0.43783,-0.380239,-1.63565,
2026_07_06_19_05_21.060,3.854,48.2,0,0.77,0,0,0,0, ,0,0,0,0,0, ,-38,322.5,948.3,-0.2,-0.4,-1.7,25,-37.9568,324.462,947.854,-0.426384,-0.381443,-1.63653,
2026_07_06_19_05_21.086,3.854,48.2,0,0.771,0,0,0,0, ,0,0,0,0,0, ,-38.4,324.3,948.2,-0.3,-0.4,-1.7,25,-37.9717,324.397,947.878,-0.415636,-0.382574,-1.64039,
2026_07_06_19_05_21.099,3.854,48.2,0,0.772,0,0,0,0, ,0,0,0,0,0, ,-38.3,323.8,946.6,-0.3,-0.4,-1.6,25,-37.9947,324.376,947.849,-0.408589,-0.383636,-1.64098,
2026_07_06_19_05_21.118,3.854,48.1,0,0.771,0,0,0,0, ,0,0,0,0,0, ,-38,324.8,948.9,-0.3,-0.3,-1.7,25,-38.0042,324.371,947.843,-0.401972,-0.381586,-1.64153,
2026_07_06_19_05_21.139,3.854,48.2,0,0.771,0,0,0,0, ,0,0,0,0,0, ,-38.2,324.4,947.1,-0.4,-0.4,-1.6,25,-38.01,324.385,947.853,-0.398805,-0.379661,-1.64205,
2026_07_06_19_05_21.158,3.854,48.1,0,0.772,0,0,0,0, ,0,0,0,0,0, ,-37.3,323.8,947.5,-0.3,-0.4,-1.6,25,-37.9942,324.368,947.819,-0.395831,-0.380901,-1.63948,
2026_07_06_19_05_21.178,3.854,48.2,0,0.771,0,0,0,0, ,0,0,0,0,0, ,-37.1,322.5,946.4,-0.4,-0.3,-1.6,25,-37.9458,324.294,947.766,-0.393038,-0.379018,-1.63708,
2026_07_06_19_05_21.198,3.854,48.1,0,0.773,0,0,0,0, ,0,0,0,0,0, ,-37.1,325,947.8,-0.5,-0.3,-1.6,25,-37.8942,324.261,947.725,-0.396509,-0.374203,-1.63482,
2026_07_06_19_05_21.218,3.854,48.2,0,0.773,0,0,0,0, ,0,0,0,0,0, ,-38.5,323.8,947.3,-0.4,-0.3,-1.6,25,-37.8885,324.269,947.715,-0.399769,-0.369681,-1.6327,
2026_07_06_19_05_21.238,3.854,48,0,0.773,0,0,0,0, ,0,0,0,0,0, ,-38.5,323.7,947.5,-0.4,-0.3,-1.6,25,-37.9258,324.237,947.695,-0.399783,-0.365435,-1.6307,
2026_07_06_19_05_21.258,3.854,48.1,0,0.771,0,0,0,0, ,0,0,0,0,0, ,-37.4,324.2,947.6,-0.4,-0.4,-1.6,25,-37.9272,324.22,947.687,-0.399796,-0.364494,-1.62883,
2026_07_06_19_05_21.281,3.854,48.1,0,0.771,0,0,0,0, ,0,0,0,0,0, ,-37.9,323.8,949.4,-0.5,-0.4,-1.6,25,-37.9103,324.207,947.736,-0.402856,-0.366658,-1.62708,
2026_07_06_19_05_21.297,3.854,48,0,0.771,0,0,0,0, ,0,0,0,0,0, ,-39.3,324.3,947.6,-0.4,-0.4,-1.6,25,-37.9524,324.197,947.783,-0.405728,-0.36869,-1.62543,
2026_07_06_19_05_21.317,3.854,48.1,0,0.771,0,0,0,0, ,0,0,0,0,0, ,-39.7,324.4,948.4,-0.5,-0.4,-1.6,25,-38.0467,324.206,947.796,-0.408426,-0.370598,-1.62388,
2026_07_06_19_05_21.336,3.854,48.1,0,0.772,0,0,0,0, ,0,0,0,0,0, ,-37.3,323.2,947.7,-0.4,-0.3,-1.6,25,-38.0743,324.182,947.811,-0.41096,-0.369342,-1.62242,
2026_07_06_19_05_21.356,3.854,48.1,0,0.773,0,0,0,0, ,0,0,0,0,0, ,-37.7,324.5,947.8,-0.4,-0.4,-1.6,25,-38.0393,324.161,947.808,-0.410292,-0.368164,-1.62106,
2026_07_06_19_05_21.376,3.854,48.1,0,0.77,0,0,0,0, ,0,0,0,0,0, ,-37.1,323.7,946.7,-0.5,-0.4,-1.6,25,-38.0003,324.158,947.774,-0.412711,-0.370104,-1.61977,
2026_07_06_19_05_21.395,3.854,47.9,0,0.77,0,0,0,0, ,0,0,0,0,0, ,-38.6,325.4,947.5,-0.7,-0.4,-1.7,25,-37.9912,324.182,947.733,-0.424124,-0.371926,-1.62161,
2026_07_06_19_05_21.415,3.854,48,0,0.771,0,0,0,0, ,0,0,0,0,0, ,-37.1,325.9,947.6,-0.4,-0.4,-1.6,25,-37.9826,324.271,947.722,-0.431795,-0.373636,-1.62334,
2026_07_06_19_05_21.436,3.854,48,0,0.771,0,0,0,0, ,0,0,0,0,0, ,-37.9,325.4,948.9,-0.4,-0.4,-1.6,25,-37.9532,324.355,947.754,-0.429857,-0.375243,-1.62192,
2026_07_06_19_05_21.455,3.854,48,0,0.772,0,0,0,0, ,0,0,0,0,0, ,-37.8,325.5,948.6,-0.5,-0.4,-1.7,25,-37.9469,324.422,947.814,-0.431085,-0.376752,-1.62363,
2026_07_06_19_05_21.476,3.854,47.9,0,0.771,0,0,0,0, ,0,0,0,0,0, ,-37.8,324.8,947.8,-0.4,-0.4,-1.7,25,-37.9379,324.466,947.838,-0.432237,-0.378168,-1.62829,
2026_07_06_19_05_21.497,3.854,48,0,0.773,0,0,0,0, ,0,0,0,0,0, ,-37.7,324.2,948.6,-0.5,-0.4,-1.6,25,-37.9265,324.468,947.86,-0.43332,-0.379499,-1.62961,
2026_07_06_19_05_21.515,3.854,48,0,0.772,0,0,0,0, ,0,0,0,0,0, ,-38.3,325.1,946.5,-0.5,-0.4,-1.6,25,-37.931,324.479,947.841,-0.437383,-0.380748,-1.6278,
2026_07_06_19_05_21.535,3.854,48,0,0.771,0,0,0,0, ,0,0,0,0,0, ,-37.3,324.8,948.7,-0.4,-0.4,-1.6,25,-37.923,324.508,947.826,-0.438152,-0.381921,-1.62611,
2026_07_06_19_05_21.555,3.854,48.1,0,0.771,0,0,0,0, ,0,0,0,0,0, ,-37.9,324.5,947.6,-0.5,-0.4,-1.6,25,-37.9033,324.517,947.846,-0.438874,-0.383023,-1.62452,
2026_07_06_19_05_21.574,3.854,47.9,0,0.771,0,0,0,0, ,0,0,0,0,0, ,-37.7,325.8,946.2,-0.3,-0.4,-1.7,25,-37.897,324.555,947.788,-0.436505,-0.384057,-1.62607,
2026_07_06_19_05_21.594,3.854,47.9,0,0.771,0,0,0,0, ,0,0,0,0,0, ,-36.2,325,948.3,-0.5,-0.4,-1.6,25,-37.8393,324.607,947.756,-0.434281,-0.385029,-1.62753,
2026_07_06_19_05_21.614,3.854,48,0,0.771,0,0,0,0, ,0,0,0,0,0, ,-38.5,326,947.2,-0.5,-0.4,-1.7,25,-37.8095,324.661,947.755,-0.438285,-0.385941,-1.6289,
2026_07_06_19_05_21.633,3.854,48,0,0.771,0,0,0,0, ,0,0,0,0,0, ,-37.3,325.1,948.3,-0.3,-0.5,-1.6,25,-37.815,324.715,947.755,-0.435952,-0.389845,-1.63019,
2026_07_06_19_05_21.654,3.854,48,0,0.771,0,0,0,0, ,0,0,0,0,0, ,-38.9,325.9,948.1,-0.5,-0.4,-1.6,25,-37.8324,324.763,947.782,-0.433762,-0.39351,-1.62835,
2026_07_06_19_05_21.674,3.854,48,0,0.772,0,0,0,0, ,0,0,0,0,0, ,-37.2,325.8,947.7,-0.4,-0.4,-1.6,25,-37.8456,324.829,947.789,-0.434751,-0.393906,-1.62662,
2026_07_06_19_05_21.693,3.854,48,0,0.772,0,0,0,0, ,0,0,0,0,0, ,-37.7,324.9,947.2,-0.4,-0.4,-1.7,25,-37.8215,324.861,947.769,-0.432633,-0.394277,-1.62804,
2026_07_06_19_05_21.713,3.854,48,0,0.771,0,0,0,0, ,0,0,0,0,0, ,-37.8,324,947.3,-0.3,-0.5,-1.7,25,-37.8172,324.836,947.737,-0.427598,-0.397673,-1.63243,
2026_07_06_19_05_21.732,3.854,47.8,0,0.772,0,0,0,0, ,0,0,0,0,0, ,-38,325.1,947.7,-0.2,-0.3,-1.6,25,-37.8222,324.819,947.723,-0.416776,-0.397815,-1.6335,
2026_07_06_19_05_21.753,3.854,47.9,0,0.771,0,0,0,0, ,0,0,0,0,0, ,-39.1,322.7,947.5,-0.4,-0.4,-1.6,25,-37.8666,324.763,947.715,-0.40966,-0.394901,-1.63146,
2026_07_06_19_05_21.773,3.854,47.9,0,0.771,0,0,0,0, ,0,0,0,0,0, ,-37.9,324.9,948.2,-0.3,-0.3,-1.6,25,-37.9052,324.704,947.723,-0.406024,-0.392165,-1.62954,
2026_07_06_19_05_21.792,3.854,47.8,0,0.772,0,0,0,0, ,0,0,0,0,0, ,-38,323.9,946.8,-0.3,-0.4,-1.6,25,-37.9079,324.685,947.71,-0.399563,-0.389595,-1.62774,
2026_07_06_19_05_21.812,3.854,47.9,0,0.771,0,0,0,0, ,0,0,0,0,0, ,-37.8,322.2,948.7,-0.3,-0.4,-1.7,25,-37.9074,324.586,947.712,-0.393496,-0.390229,-1.6291,
2026_07_06_19_05_21.832,3.854,47.9,0,0.772,0,0,0,0, ,0,0,0,0,0, ,-37.1,323.6,948.4,-0.5,-0.4,-1.6,25,-37.8795,324.483,947.763,-0.393892,-0.390825,-1.63037,
2026_07_06_19_05_21.852,3.854,47.9,0,0.772,0,0,0,0, ,0,0,0,0,0, ,-38.2,325,946.6,-0.4,-0.4,-1.7,25,-37.8655,324.472,947.747,-0.397311,-0.391384,-1.63157,
2026_07_06_19_05_21.872,3.854,47.9,0,0.772,0,0,0,0, ,0,0,0,0,0, ,-36.7,324.4,948.6,-0.3,-0.4,-1.6,25,-37.8402,324.486,947.738,-0.394428,-0.391909,-1.63269,
2026_07_06_19_05_21.891,3.854,47.7,0,0.772,0,0,0,0, ,0,0,0,0,0, ,-38.3,323.8,948.8,-0.5,-0.4,-1.6,25,-37.8195,324.462,947.797,-0.394768,-0.392402,-1.6307,
2026_07_06_19_05_21.914,3.854,47.8,0,0.771,0,0,0,0, ,0,0,0,0,0, ,-38.5,324,948.4,-0.5,-0.3,-1.7,25,-37.8549,324.428,947.846,-0.401181,-0.389818,-1.63187,
2026_07_06_19_05_21.932,3.854,47.9,0,0.772,0,0,0,0, ,0,0,0,0,0, ,-37.8,323.7,948.8,-0.3,-0.4,-1.7,25,-37.8729,324.393,947.892,-0.401109,-0.387392,-1.63603,
2026_07_06_19_05_21.950,3.854,47.9,0,0.772,0,0,0,0, ,0,0,0,0,0, ,-38.9,323.1,948.8,-0.5,-0.4,-1.7,25,-37.9019,324.332,947.947,-0.401041,-0.38816,-1.63992,
2026_07_06_19_05_21.971,3.854,47.9,0,0.772,0,0,0,0, ,0,0,0,0,0, ,-37.7,324.2,947.8,-0.5,-0.3,-1.6,25,-37.9262,324.291,947.969,-0.407071,-0.385835,-1.64054,
2026_07_06_19_05_21.991,3.854,47.8,0,0.772,0,0,0,0, ,0,0,0,0,0, ,-38.6,322.9,948.1,-0.5,-0.3,-1.6,25,-37.9398,324.246,947.967,-0.412734,-0.380604,-1.63807,
2026_07_06_19_05_22.010,3.854,47.7,0,0.771,0,0,0,0, ,0,0,0,0,0, ,-36.6,325.1,948.3,-0.6,-0.4,-1.6,25,-37.9191,324.231,947.982,-0.421099,-0.378739,-1.63575,
2026_07_06_19_05_22.030,3.854,47.7,0,0.771,0,0,0,0, ,0,0,0,0,0, ,-37.7,325,946.5,-0.5,-0.4,-1.7,25,-37.8722,324.281,947.946,-0.428954,-0.380035,-1.63662,
2026_07_06_19_05_22.049,3.854,47.8,0,0.773,0,0,0,0, ,0,0,0,0,0, ,-38.8,324.9,948.3,-0.4,-0.4,-1.7,25,-37.8953,324.321,947.913,-0.430236,-0.381251,-1.64048,
2026_07_06_19_05_22.071,3.854,47.8,0,0.772,0,0,0,0, ,0,0,0,0,0, ,-37.8,324.2,947.8,-0.4,-0.4,-1.7,25,-37.9199,324.335,947.921,-0.428394,-0.382394,-1.64411,
2026_07_06_19_05_22.088,3.854,47.7,0,0.772,0,0,0,0, ,0,0,0,0,0, ,-38.3,324.5,948.7,-0.4,-0.4,-1.6,25,-37.9279,324.336,947.941,-0.426663,-0.383467,-1.64447,
2026_07_06_19_05_22.109,3.854,47.7,0,0.771,0,0,0,0, ,0,0,0,0,0, ,-38.4,325.6,947.8,-0.5,-0.4,-1.7,25,-37.9536,324.38,947.96,-0.428086,-0.384474,-1.6448,
2026_07_06_19_05_22.133,3.854,47.7,0,0.77,0,0,0,0, ,0,0,0,0,0, ,-38.3,325.3,948.9,-0.5,-0.4,-1.7,25,-37.9777,324.445,947.984,-0.432468,-0.38542,-1.64817,
2026_07_06_19_05_22.148,3.854,47.7,0,0.772,0,0,0,0, ,0,0,0,0,0, ,-36.8,327.2,948.2,-0.5,-0.4,-1.6,25,-37.9517,324.555,948.018,-0.436583,-0.386309,-1.64828,
2026_07_06_19_05_22.168,3.854,47.7,0,0.772,0,0,0,0, ,0,0,0,0,0, ,-37.8,327,947.6,-0.4,-0.4,-1.7,25,-37.912,324.71,948.011,-0.437401,-0.387143,-1.64838,
2026_07_06_19_05_22.188,3.854,47.7,0,0.771,0,0,0,0, ,0,0,0,0,0, ,-38,324.8,946.8,-0.3,-0.4,-1.6,25,-37.9112,324.783,947.962,-0.432075,-0.387927,-1.64848,
2026_07_06_19_05_22.207,3.854,47.7,0,0.77,0,0,0,0, ,0,0,0,0,0, ,-37.4,323.1,948.4,-0.5,-0.4,-1.6,25,-37.8984,324.732,947.94,-0.43012,-0.388662,-1.64553,
2026_07_06_19_05_22.229,3.854,47.7,0,0.773,0,0,0,0, ,0,0,0,0,0, ,-37.7,325.3,946,-0.4,-0.4,-1.6,25,-37.8771,324.699,947.895,-0.431332,-0.389353,-1.64275,
2026_07_06_19_05_22.247,3.854,47.7,0,0.772,0,0,0,0, ,0,0,0,0,0, ,-37.8,323.9,947.5,-0.3,-0.4,-1.6,25,-37.8694,324.693,947.825,-0.426375,-0.390002,-1.64015,
2026_07_06_19_05_22.267,3.854,47.7,0,0.771,0,0,0,0, ,0,0,0,0,0, ,-38,326.1,946.5,-0.3,-0.4,-1.7,25,-37.8713,324.712,947.775,-0.418674,-0.390611,-1.64075,
2026_07_06_19_05_22.286,3.854,47.7,0,0.772,0,0,0,0, ,0,0,0,0,0, ,-37.9,326.6,946.1,-0.2,-0.4,-1.6,25,-37.8761,324.812,947.685,-0.408396,-0.391183,-1.64131,
2026_07_06_19_05_22.307,3.854,47.7,0,0.773,0,0,0,0, ,0,0,0,0,0, ,-38.2,324.2,947.9,-0.3,-0.3,-1.7,25,-37.8867,324.848,947.643,-0.398744,-0.388674,-1.64184,
2026_07_06_19_05_22.327,3.854,47.7,0,0.773,0,0,0,0, ,0,0,0,0,0, ,-38.6,325.5,947.8,-0.4,-0.5,-1.6,25,-37.9179,324.848,947.656,-0.395773,-0.389364,-1.64234,
2026_07_06_19_05_22.348,3.854,47.6,0,0.771,0,0,0,0, ,0,0,0,0,0, ,-38.5,326,946.6,-0.1,-0.4,-1.6,25,-37.9564,324.903,947.628,-0.38689,-0.393059,-1.63976,
2026_07_06_19_05_22.366,3.854,47.7,0,0.771,0,0,0,0, ,0,0,0,0,0, ,-38.4,325.3,948.6,-0.3,-0.4,-1.6,25,-37.9865,324.948,947.626,-0.375502,-0.393482,-1.63734,
2026_07_06_19_05_22.386,3.854,47.7,0,0.77,0,0,0,0, ,0,0,0,0,0, ,-37.9,326,946.7,-0.3,-0.4,-1.6,25,-37.9965,324.991,947.628,-0.370901,-0.393879,-1.63506,
2026_07_06_19_05_22.407,3.854,47.6,0,0.771,0,0,0,0, ,0,0,0,0,0, ,-37.2,323.4,948.2,-0.5,-0.3,-1.6,25,-37.9693,324.973,947.617,-0.372674,-0.391205,-1.63292,
2026_07_06_19_05_22.425,3.854,47.6,0,0.772,0,0,0,0, ,0,0,0,0,0, ,-37.7,323.6,947.6,-0.5,-0.4,-1.6,25,-37.9376,324.884,947.634,-0.380433,-0.388694,-1.63092,
2026_07_06_19_05_22.445,3.854,47.6,0,0.77,0,0,0,0, ,0,0,0,0,0, ,-37.2,323.8,948.6,-0.5,-0.4,-1.7,25,-37.9079,324.811,947.662,-0.387719,-0.389383,-1.63208,
2026_07_06_19_05_22.465,3.854,47.6,0,0.771,0,0,0,0, ,0,0,0,0,0, ,-38,325.1,947.1,-0.5,-0.4,-1.6,25,-37.8892,324.789,947.674,-0.394561,-0.39003,-1.63317,
2026_07_06_19_05_22.485,3.854,47.6,0,0.77,0,0,0,0, ,0,0,0,0,0, ,-39.7,325.4,948.1,-0.5,-0.4,-1.6,25,-37.9477,324.817,947.669,-0.400986,-0.390638,-1.63115,
2026_07_06_19_05_22.505,3.854,47.6,0,0.771,0,0,0,0, ,0,0,0,0,0, ,-38.3,325.1,948.6,-0.5,-0.4,-1.7,25,-38.0118,324.844,947.711,-0.40702,-0.391208,-1.6323,
2026_07_06_19_05_22.525,3.854,47.6,0,0.77,0,0,0,0, ,0,0,0,0,0, ,-38.3,325.4,948.4,-0.5,-0.4,-1.6,25,-38.0294,324.869,947.759,-0.412686,-0.391744,-1.63338,
2026_07_06_19_05_22.544,3.854,47.6,0,0.772,0,0,0,0, ,0,0,0,0,0, ,-37.2,324.8,948.9,-0.5,-0.4,-1.6,25,-38.0124,324.883,947.813,-0.418007,-0.392247,-1.63134,
2026_07_06_19_05_22.564,3.854,47.4,0,0.771,0,0,0,0, ,0,0,0,0,0, ,-38.5,325.3,947.7,-0.6,-0.3,-1.6,25,-38.0025,324.893,947.843,-0.42605,-0.389673,-1.62943,
2026_07_06_19_05_22.583,3.854,47.5,0,0.771,0,0,0,0, ,0,0,0,0,0, ,-36.9,325.8,946.8,-0.4,-0.4,-1.6,25,-37.984,324.933,947.807,-0.430556,-0.387255,-1.62764,
2026_07_06_19_05_22.604,3.854,47.5,0,0.77,0,0,0,0, ,0,0,0,0,0, ,-38.8,326,949.5,-0.4,-0.4,-1.5,25,-37.9759,324.992,947.828,-0.428694,-0.388032,-1.62291,
2026_07_06_19_05_22.624,3.854,47.5,0,0.771,0,0,0,0, ,0,0,0,0,0, ,-39.7,325.8,948.1,-0.5,-0.4,-1.6,25,-38.0535,325.047,947.887,-0.429993,-0.388761,-1.61847,
2026_07_06_19_05_22.644,3.854,47.5,0,0.775,0,0,0,0, ,0,0,0,0,0, ,-38.5,325.4,949.2,-0.3,-0.3,-1.7,25,-38.1173,325.081,947.933,-0.428165,-0.386399,-1.62039,
2026_07_06_19_05_22.664,3.854,47.5,0,0.771,0,0,0,0, ,0,0,0,0,0, ,-37.2,324.7,947.3,-0.4,-0.3,-1.6,25,-38.101,325.079,947.953,-0.423402,-0.381134,-1.62219,
2026_07_06_19_05_22.682,3.854,47.5,0,0.771,0,0,0,0, ,0,0,0,0,0, ,-38.8,324.7,947.5,-0.4,-0.4,-1.6,25,-38.0948,325.056,947.919,-0.421976,-0.379237,-1.62084,
2026_07_06_19_05_22.703,3.854,47.4,0,0.77,0,0,0,0, ,0,0,0,0,0, ,-38.6,326,947.9,-0.4,-0.4,-1.6,25,-38.1317,325.074,947.906,-0.420637,-0.380502,-1.61957,
2026_07_06_19_05_22.723,3.854,47.4,0,0.772,0,0,0,0, ,0,0,0,0,0, ,-39.1,324.4,946.2,-0.3,-0.3,-1.6,25,-38.1755,325.082,947.854,-0.416332,-0.378643,-1.61838,
2026_07_06_19_05_22.742,3.854,47.5,0,0.771,0,0,0,0, ,0,0,0,0,0, ,-38.3,324.7,947,-0.2,-0.4,-1.6,25,-38.2075,325.049,947.777,-0.406196,-0.376898,-1.61726,
2026_07_06_19_05_22.762,3.854,47.4,0,0.771,0,0,0,0, ,0,0,0,0,0, ,-37.7,324.3,947.6,-0.3,-0.3,-1.6,25,-38.1948,325.016,947.748,-0.396678,-0.375259,-1.61621,
2026_07_06_19_05_22.789,3.854,47.5,0,0.773,0,0,0,0, ,0,0,0,0,0, ,-38.3,324.7,947.3,-0.3,-0.4,-1.6,25,-38.1829,324.984,947.73,-0.390787,-0.37372,-1.61522,
2026_07_06_19_05_22.801,3.854,47.5,0,0.77,0,0,0,0, ,0,0,0,0,0, ,-38.8,326.2,946.5,-0.3,-0.4,-1.6,25,-38.2053,325.013,947.679,-0.385254,-0.375321,-1.61429,
2026_07_06_19_05_22.822,3.854,47.5,0,0.771,0,0,0,0, ,0,0,0,0,0, ,-38.3,325.8,946.5,-0.2,-0.3,-1.6,25,-38.2263,325.073,947.607,-0.377012,-0.373778,-1.61342,
2026_07_06_19_05_22.841,3.854,47.5,0,0.773,0,0,0,0, ,0,0,0,0,0, ,-38.3,325.5,945.6,-0.2,-0.4,-1.6,25,-38.2308,325.108,947.513,-0.366226,-0.372329,-1.6126,
2026_07_06_19_05_22.861,3.854,47.5,0,0.77,0,0,0,0, ,0,0,0,0,0, ,-37.7,325.4,948.1,-0.2,-0.4,-1.6,25,-38.2167,325.129,947.472,-0.356096,-0.374015,-1.61183,
2026_07_06_19_05_22.881,3.854,47.4,0,0.77,0,0,0,0, ,0,0,0,0,0, ,-38.2,325,948.4,-0.3,-0.4,-1.6,25,-38.2005,325.133,947.52,-0.349631,-0.375599,-1.61111,
2026_07_06_19_05_22.901,3.854,47.3,0,0.774,0,0,0,0, ,0,0,0,0,0, ,-37.9,324.2,946.2,-0.3,-0.4,-1.6,25,-38.1913,325.101,947.506,-0.346607,-0.377086,-1.61044,
2026_07_06_19_05_22.921,3.854,47.4,0,0.771,0,0,0,0, ,0,0,0,0,0, ,-38,324.2,947.9,-0.2,-0.4,-1.7,25,-38.1766,325.046,947.478,-0.34072,-0.378482,-1.61285,
2026_07_06_19_05_22.941,3.854,47.4,0,0.773,0,0,0,0, ,0,0,0,0,0, ,-39,324.2,947.8,-0.3,-0.4,-1.6,25,-38.1963,324.994,947.501,-0.335191,-0.379793,-1.61511,
2026_07_06_19_05_22.960,3.854,47.4,0,0.77,0,0,0,0, ,0,0,0,0,0, ,-39.5,324.9,949.2,-0.2,-0.4,-1.6,25,-38.2605,324.967,947.562,-0.33,-0.381025,-1.61419,
2026_07_06_19_05_22.980,3.854,47.3,0,0.77,0,0,0,0, ,0,0,0,0,0, ,-37.7,324.8,946.8,-0.2,-0.4,-1.6,25,-38.2812,324.96,947.589,-0.322078,-0.382181,-1.61333,
2026_07_06_19_05_23.001,3.854,47.3,0,0.77,0,0,0,0, ,0,0,0,0,0, ,-38.4,324.5,948.1,-0.3,-0.4,-1.6,25,-38.2671,324.941,947.58,-0.317686,-0.383267,-1.61251,
2026_07_06_19_05_23.019,3.854,47.4,0,0.771,0,0,0,0, ,0,0,0,0,0, ,-37.8,324,946.8,-0.3,-0.3,-1.6,25,-38.2569,324.899,947.572,-0.316608,-0.38124,-1.61175,
2026_07_06_19_05_23.039,3.854,47.3,0,0.77,0,0,0,0, ,0,0,0,0,0, ,-38.3,322.9,948.6,-0.2,-0.4,-1.6,25,-38.2443,324.811,947.58,-0.312549,-0.379336,-1.61103,
2026_07_06_19_05_23.059,3.854,47.2,0,0.774,0,0,0,0, ,0,0,0,0,0, ,-37.2,324,947.5,-0.3,-0.3,-1.6,25,-38.2142,324.728,947.609,-0.308738,-0.377548,-1.61036,
2026_07_06_19_05_23.079,3.854,47.2,0,0.771,0,0,0,0, ,0,0,0,0,0, ,-38.2,323.1,948.4,-0.3,-0.3,-1.6,25,-38.1829,324.656,947.629,-0.308205,-0.372823,-1.60973,
2026_07_06_19_05_23.098,3.854,47.3,0,0.77,0,0,0,0, ,0,0,0,0,0, ,-38.8,325.9,948.9,-0.3,-0.3,-1.6,25,-38.2022,324.647,947.692,-0.307705,-0.368385,-1.60914,
2026_07_06_19_05_23.119,3.854,47.3,0,0.771,0,0,0,0, ,0,0,0,0,0, ,-37.9,326.2,947.3,-0.3,-0.4,-1.6,25,-38.2112,324.732,947.717,-0.307236,-0.367265,-1.60858,
2026_07_06_19_05_23.139,3.854,47.3,0,0.771,0,0,0,0, ,0,0,0,0,0, ,-38.6,325.6,947,-0.3,-0.3,-1.7,25,-38.2136,324.803,947.682,-0.306795,-0.366213,-1.61111,
2026_07_06_19_05_23.158,3.854,47.3,0,0.771,0,0,0,0, ,0,0,0,0,0, ,-38.3,325.4,946.8,-0.3,-0.4,-1.6,25,-38.228,324.846,947.634,-0.306381,-0.365225,-1.61348,
2026_07_06_19_05_23.181,3.854,47.2,0,0.772,0,0,0,0, ,0,0,0,0,0, ,-36.9,325.9,948.4,-0.4,-0.4,-1.6,25,-38.1897,324.895,947.632,-0.309039,-0.367344,-1.61265,
2026_07_06_19_05_23.199,3.854,47.2,0,0.772,0,0,0,0, ,0,0,0,0,0, ,-38.9,325,946.8,-0.2,-0.4,-1.6,25,-38.1721,324.929,947.63,-0.308488,-0.369334,-1.61188,
2026_07_06_19_05_23.217,3.854,47.2,0,0.772,0,0,0,0, ,0,0,0,0,0, ,-37.8,324.9,948.4,-0.2,-0.4,-1.6,25,-38.1829,324.93,947.628,-0.301877,-0.371203,-1.61116,
2026_07_06_19_05_23.238,3.854,47.3,0,0.771,0,0,0,0, ,0,0,0,0,0, ,-37.5,324.8,947.5,-0.3,-0.4,-1.6,25,-38.1504,324.925,947.648,-0.298716,-0.372957,-1.61048,
2026_07_06_19_05_23.260,3.854,47.2,0,0.771,0,0,0,0, ,0,0,0,0,0, ,-38.4,323.7,948.2,-0.2,-0.4,-1.6,25,-38.1382,324.884,947.66,-0.295747,-0.374605,-1.60984,
2026_07_06_19_05_23.277,3.854,47.3,0,0.77,0,0,0,0, ,0,0,0,0,0, ,-37.3,324.2,947.7,-0.3,-0.4,-1.6,25,-38.1206,324.827,947.678,-0.292959,-0.376153,-1.60924,
2026_07_06_19_05_23.296,3.854,47.3,0,0.772,0,0,0,0, ,0,0,0,0,0, ,-37.7,323.6,947.5,-0.3,-0.3,-1.6,25,-38.0828,324.77,947.673,-0.293388,-0.374559,-1.60868,
2026_07_06_19_05_23.317,3.854,47.2,0,0.773,0,0,0,0, ,0,0,0,0,0, ,-37.3,325.3,947,-0.2,-0.4,-1.7,25,-38.0473,324.751,947.647,-0.290744,-0.373063,-1.6112,
2026_07_06_19_05_23.337,3.854,47,0,0.771,0,0,0,0, ,0,0,0,0,0, ,-37.9,324.4,947.3,-0.3,-0.4,-1.6,25,-38.0201,324.757,947.617,-0.288262,-0.374704,-1.61356,
2026_07_06_19_05_23.355,3.854,47,0,0.773,0,0,0,0, ,0,0,0,0,0, ,-38.4,325.5,946.1,-0.2,-0.4,-1.6,25,-38.028,324.769,947.561,-0.28593,-0.376245,-1.61273,
2026_07_06_19_05_23.375,3.854,47.3,0,0.772,0,0,0,0, ,0,0,0,0,0, ,-37.9,324.7,947.8,-0.2,-0.4,-1.6,25,-38.0354,324.789,947.524,-0.280694,-0.377693,-1.61196,
2026_07_06_19_05_23.395,3.854,47.2,0,0.769,0,0,0,0, ,0,0,0,0,0, ,-38.9,322.8,948.3,-0.3,-0.4,-1.5,25,-38.0576,324.726,947.556,-0.278823,-0.379052,-1.60818,
2026_07_06_19_05_23.416,3.854,47.2,0,0.77,0,0,0,0, ,0,0,0,0,0, ,-37.4,322.7,947.1,-0.3,-0.4,-1.6,25,-38.0633,324.605,947.565,-0.280114,-0.380329,-1.60464,
2026_07_06_19_05_23.435,3.854,47,0,0.771,0,0,0,0, ,0,0,0,0,0, ,-39,324.5,947.7,-0.3,-0.4,-1.7,25,-38.0716,324.544,947.555,-0.281326,-0.381528,-1.6074,
2026_07_06_19_05_23.455,3.854,47,0,0.773,0,0,0,0, ,0,0,0,0,0, ,-38.3,323.8,946.7,-0.2,-0.5,-1.6,25,-38.1068,324.52,947.533,-0.279417,-0.3857,-1.61,
2026_07_06_19_05_23.474,3.854,47.2,0,0.771,0,0,0,0, ,0,0,0,0,0, ,-38,325.5,947.1,-0.2,-0.5,-1.6,25,-38.1095,324.528,947.495,-0.274577,-0.392665,-1.60939,
2026_07_06_19_05_23.494,3.854,47.2,0,0.772,0,0,0,0, ,0,0,0,0,0, ,-38.2,321.8,948.1,-0.2,-0.4,-1.6,25,-38.1089,324.474,947.501,-0.270033,-0.396159,-1.60882,
2026_07_06_19_05_23.515,3.854,47.2,0,0.771,0,0,0,0, ,0,0,0,0,0, ,-38,323.9,946.7,-0.3,-0.4,-1.7,25,-38.1083,324.375,947.495,-0.268812,-0.396393,-1.61133,
2026_07_06_19_05_23.534,3.854,47,0,0.772,0,0,0,0, ,0,0,0,0,0, ,-38.5,325.1,948.2,-0.4,-0.4,-1.6,25,-38.117,324.383,947.492,-0.273759,-0.396613,-1.61368,
2026_07_06_19_05_23.560,3.854,47.2,0,0.771,0,0,0,0, ,0,0,0,0,0, ,-38.6,323.6,947.3,-0.3,-0.5,-1.6,25,-38.1434,324.381,947.508,-0.278405,-0.399866,-1.61285,
2026_07_06_19_05_23.577,3.854,47,0,0.772,0,0,0,0, ,0,0,0,0,0, ,-38.5,323.2,946.7,-0.5,-0.5,-1.6,25,-38.1681,324.321,947.477,-0.285815,-0.405968,-1.61207,
2026_07_06_19_05_23.599,3.854,47,0,0.77,0,0,0,0, ,0,0,0,0,0, ,-38.2,325.3,947.6,-0.6,-0.4,-1.6,25,-38.1792,324.317,947.457,-0.301914,-0.408651,-1.61133,
2026_07_06_19_05_23.614,3.854,47.2,0,0.77,0,0,0,0, ,0,0,0,0,0, ,-37.5,324.5,948.1,-0.3,-0.5,-1.6,25,-38.1592,324.352,947.481,-0.310938,-0.411171,-1.61064,
2026_07_06_19_05_23.633,3.854,47.2,0,0.771,0,0,0,0, ,0,0,0,0,0, ,-37.8,323.3,947.6,-0.4,-0.3,-1.6,25,-38.1281,324.325,947.503,-0.313318,-0.41049,-1.60999,
2026_07_06_19_05_23.653,3.854,47,0,0.77,0,0,0,0, ,0,0,0,0,0, ,-38.2,324.4,947.5,-0.5,-0.4,-1.6,25,-38.1203,324.296,947.506,-0.321647,-0.406804,-1.60938,
2026_07_06_19_05_23.673,3.854,47,0,0.769,0,0,0,0, ,0,0,0,0,0, ,-38.4,324.3,948.2,-0.5,-0.4,-1.6,25,-38.1313,324.299,947.527,-0.332515,-0.40639,-1.60881,
2026_07_06_19_05_23.693,3.854,47,0,0.772,0,0,0,0, ,0,0,0,0,0, ,-38,325.4,947.8,-0.4,-0.4,-1.6,25,-38.1355,324.333,947.556,-0.339675,-0.406,-1.60827,
2026_07_06_19_05_23.712,3.854,47,0,0.77,0,0,0,0, ,0,0,0,0,0, ,-37.8,323.9,948.4,-0.3,-0.4,-1.6,25,-38.1211,324.352,947.589,-0.340304,-0.405635,-1.60777,
2026_07_06_19_05_23.733,3.854,47,0,0.772,0,0,0,0, ,0,0,0,0,0, ,-37.8,325.8,946.7,-0.5,-0.5,-1.6,25,-38.1015,324.382,947.587,-0.343942,-0.408338,-1.6073,
2026_07_06_19_05_23.751,3.854,47,0,0.773,0,0,0,0, ,0,0,0,0,0, ,-38.5,324.9,949,-0.4,-0.4,-1.6,25,-38.1045,324.441,947.603,-0.350405,-0.410877,-1.60685,
2026_07_06_19_05_23.772,3.854,47,0,0.772,0,0,0,0, ,0,0,0,0,0, ,-38,324.8,947.5,-0.3,-0.4,-1.6,25,-38.1134,324.466,947.642,-0.35038,-0.410214,-1.60643,
2026_07_06_19_05_23.796,3.854,47,0,0.772,0,0,0,0, ,0,0,0,0,0, ,-38.4,324.3,947.1,-0.2,-0.4,-1.6,25,-38.1186,324.471,947.621,-0.344263,-0.409592,-1.60604,
2026_07_06_19_05_23.812,3.854,47,0,0.771,0,0,0,0, ,0,0,0,0,0, ,-38.2,324.5,947.2,-0.2,-0.4,-1.6,25,-38.1297,324.467,947.593,-0.335472,-0.409007,-1.60567,
2026_07_06_19_05_23.832,3.854,47,0,0.771,0,0,0,0, ,0,0,0,0,0, ,-38,324.7,948.2,-0.3,-0.3,-1.6,25,-38.1279,324.475,947.599,-0.330264,-0.405411,-1.60533,
2026_07_06_19_05_23.851,3.854,46.8,0,0.772,0,0,0,0, ,0,0,0,0,0, ,-37.4,324.5,947.2,-0.2,-0.4,-1.6,25,-38.1018,324.483,947.605,-0.325372,-0.402035,-1.605,
2026_07_06_19_05_23.870,3.854,46.9,0,0.77,0,0,0,0, ,0,0,0,0,0, ,-38.3,324.4,947.6,-0.2,-0.4,-1.6,25,-38.0865,324.481,947.593,-0.317733,-0.401911,-1.6047,
2026_07_06_19_05_23.890,3.854,46.9,0,0.772,0,0,0,0, ,0,0,0,0,0, ,-37.3,323.8,947.3,-0.4,-0.4,-1.6,25,-38.069,324.458,947.584,-0.316652,-0.401794,-1.60441,
2026_07_06_19_05_23.909,3.854,46.9,0,0.77,0,0,0,0, ,0,0,0,0,0, ,-37.5,323.7,948.1,-0.4,-0.4,-1.5,25,-38.0282,324.414,947.591,-0.321731,-0.401685,-1.6011,
2026_07_06_19_05_23.931,3.854,46.8,0,0.77,0,0,0,0, ,0,0,0,0,0, ,-38.8,324.8,947.2,-0.3,-0.4,-1.6,25,-38.0357,324.404,947.595,-0.323454,-0.401582,-1.59798,
2026_07_06_19_05_23.950,3.854,46.9,0,0.771,0,0,0,0, ,0,0,0,0,0, ,-38,323.7,947,-0.3,-0.4,-1.6,25,-38.0579,324.395,947.565,-0.322024,-0.401486,-1.59811,
2026_07_06_19_05_23.970,3.854,46.9,0,0.772,0,0,0,0, ,0,0,0,0,0, ,-37.8,324.7,948.1,-0.4,-0.4,-1.6,25,-38.0482,324.383,947.564,-0.323729,-0.401395,-1.59822,
2026_07_06_19_05_23.990,3.854,46.9,0,0.772,0,0,0,0, ,0,0,0,0,0, ,-38.5,324.8,947.2,-0.4,-0.4,-1.7,25,-38.0544,324.405,947.569,-0.328377,-0.40131,-1.60138,
2026_07_06_19_05_24.009,3.854,46.9,0,0.772,0,0,0,0, ,0,0,0,0,0, ,-39.1,324.9,947.6,-0.3,-0.4,-1.6,25,-38.0999,324.433,947.559,-0.329695,-0.40123,-1.60434,
2026_07_06_19_05_24.034,3.854,46.8,0,0.77,0,0,0,0, ,0,0,0,0,0, ,-38.4,323.3,948.6,-0.4,-0.4,-1.7,25,-38.1395,324.412,947.592,-0.330932,-0.401155,-1.60712,
2026_07_06_19_05_24.049,3.854,46.9,0,0.77,0,0,0,0, ,0,0,0,0,0, ,-38.6,324.2,947.7,-0.4,-0.4,-1.7,25,-38.1615,324.372,947.626,-0.335141,-0.401085,-1.61278,
2026_07_06_19_05_24.068,3.854,46.8,0,0.77,0,0,0,0, ,0,0,0,0,0, ,-37.3,326,947.2,-0.5,-0.4,-1.7,25,-38.1486,324.416,947.615,-0.34214,-0.401019,-1.6181,
2026_07_06_19_05_24.088,3.854,46.9,0,0.772,0,0,0,0, ,0,0,0,0,0, ,-38.9,324.9,948.4,-0.5,-0.4,-1.6,25,-38.1456,324.479,947.626,-0.35176,-0.400957,-1.62004,
2026_07_06_19_05_24.109,3.854,46.8,0,0.77,0,0,0,0, ,0,0,0,0,0, ,-38.2,323.4,947.5,-0.4,-0.4,-1.6,25,-38.1703,324.459,947.646,-0.357746,-0.400899,-1.61882,
2026_07_06_19_05_24.128,3.854,46.8,0,0.769,0,0,0,0, ,0,0,0,0,0, ,-37.3,325.5,949.7,-0.4,-0.3,-1.7,25,-38.1446,324.459,947.704,-0.360321,-0.397797,-1.62072,
2026_07_06_19_05_24.148,3.854,46.9,0,0.77,0,0,0,0, ,0,0,0,0,0, ,-36.9,324.5,947.3,-0.4,-0.4,-1.6,25,-38.081,324.492,947.753,-0.362739,-0.394884,-1.6225,
2026_07_06_19_05_24.168,3.854,46.8,0,0.77,0,0,0,0, ,0,0,0,0,0, ,-37.5,324.4,947.7,-0.5,-0.4,-1.6,25,-38.0273,324.489,947.737,-0.368056,-0.395196,-1.62113,
2026_07_06_19_05_24.187,3.854,46.7,0,0.771,0,0,0,0, ,0,0,0,0,0, ,-38.5,325,946,-0.5,-0.4,-1.7,25,-38.0256,324.502,947.683,-0.376097,-0.395489,-1.62289,
2026_07_06_19_05_24.207,3.854,46.8,0,0.771,0,0,0,0, ,0,0,0,0,0, ,-37.3,325.3,947.9,-0.3,-0.4,-1.6,25,-38.018,324.541,947.638,-0.377553,-0.395764,-1.62454,
2026_07_06_19_05_24.226,3.854,46.8,0,0.768,0,0,0,0, ,0,0,0,0,0, ,-39.4,324.7,947.9,-0.4,-0.3,-1.7,25,-38.0382,324.569,947.654,-0.375874,-0.392975,-1.62609,
2026_07_06_19_05_24.247,3.854,46.8,0,0.77,0,0,0,0, ,0,0,0,0,0, ,-38.9,324.7,947.6,-0.4,-0.4,-1.6,25,-38.106,324.577,947.66,-0.377344,-0.390356,-1.62755,
2026_07_06_19_05_24.271,3.854,46.7,0,0.771,0,0,0,0, ,0,0,0,0,0, ,-37.9,324.9,947.9,-0.3,-0.4,-1.6,25,-38.1239,324.591,947.666,-0.375678,-0.390944,-1.62587,
2026_07_06_19_05_24.286,3.854,46.7,0,0.77,0,0,0,0, ,0,0,0,0,0, ,-37.9,326.4,948.2,-0.3,-0.4,-1.6,25,-38.1102,324.655,947.689,-0.371067,-0.391496,-1.6243,
2026_07_06_19_05_24.306,3.854,46.7,0,0.77,0,0,0,0, ,0,0,0,0,0, ,-37.8,325,948.2,-0.4,-0.4,-1.6,25,-38.0944,324.719,947.72,-0.369783,-0.392014,-1.62282,
2026_07_06_19_05_24.325,3.854,46.7,0,0.773,0,0,0,0, ,0,0,0,0,0, ,-37.3,326.7,946.6,-0.3,-0.4,-1.6,25,-38.0612,324.788,947.701,-0.368577,-0.392501,-1.62143,
2026_07_06_19_05_24.346,3.854,46.7,0,0.771,0,0,0,0, ,0,0,0,0,0, ,-38.2,325.1,947.2,-0.2,-0.4,-1.7,25,-38.0422,324.856,947.652,-0.361351,-0.392958,-1.62317,
2026_07_06_19_05_24.365,3.854,46.8,0,0.771,0,0,0,0, ,0,0,0,0,0, ,-39.5,324.5,947.7,-0.3,-0.4,-1.6,25,-38.0915,324.852,947.64,-0.354566,-0.393387,-1.6248,
2026_07_06_19_05_24.385,3.854,46.7,0,0.771,0,0,0,0, ,0,0,0,0,0, ,-38.9,324.3,946.4,-0.3,-0.4,-1.7,25,-38.159,324.825,947.604,-0.351241,-0.39379,-1.62634,
2026_07_06_19_05_24.405,3.854,46.7,0,0.77,0,0,0,0, ,0,0,0,0,0, ,-37.7,325.6,947.7,-0.2,-0.3,-1.6,25,-38.1676,324.832,947.57,-0.345072,-0.391121,-1.62778,
2026_07_06_19_05_24.426,3.854,46.7,0,0.77,0,0,0,0, ,0,0,0,0,0, ,-38.8,324.8,948.1,-0.2,-0.4,-1.7,25,-38.1726,324.855,947.59,-0.336231,-0.388615,-1.62913,
2026_07_06_19_05_24.445,3.854,46.6,0,0.77,0,0,0,0, ,0,0,0,0,0, ,-39.3,323.2,947.8,-0.2,-0.4,-1.7,25,-38.2261,324.803,947.612,-0.32793,-0.389309,-1.63345,
2026_07_06_19_05_24.465,3.854,46.6,0,0.771,0,0,0,0, ,0,0,0,0,0, ,-39.3,326,947.8,-0.4,-0.4,-1.6,25,-38.2915,324.79,947.623,-0.326228,-0.389961,-1.63446,
2026_07_06_19_05_24.484,3.854,46.6,0,0.771,0,0,0,0, ,0,0,0,0,0, ,-39.5,324.8,947.9,-0.5,-0.4,-1.6,25,-38.3591,324.828,947.637,-0.33377,-0.390572,-1.63236,
2026_07_06_19_05_24.504,3.854,46.7,0,0.771,0,0,0,0, ,0,0,0,0,0, ,-38.4,325.6,946.6,-0.4,-0.4,-1.6,25,-38.3951,324.85,947.614,-0.340853,-0.391147,-1.63039,
2026_07_06_19_05_24.524,3.854,46.6,0,0.771,0,0,0,0, ,0,0,0,0,0, ,-36.9,324.7,948.9,-0.4,-0.4,-1.7,25,-38.3497,324.869,947.622,-0.344457,-0.391686,-1.63158,
2026_07_06_19_05_24.543,3.854,46.6,0,0.773,0,0,0,0, ,0,0,0,0,0, ,-38.5,324.7,948.1,-0.4,-0.4,-1.7,25,-38.3101,324.858,947.675,-0.347842,-0.392193,-1.63575,
2026_07_06_19_05_24.563,3.854,46.6,0,0.771,0,0,0,0, ,0,0,0,0,0, ,-37.9,325.3,947.9,-0.4,-0.4,-1.6,25,-38.3034,324.867,947.695,-0.35102,-0.392669,-1.63662,
2026_07_06_19_05_24.583,3.854,46.5,0,0.773,0,0,0,0, ,0,0,0,0,0, ,-37.1,325.9,946.5,-0.4,-0.3,-1.6,25,-38.2544,324.912,947.665,-0.354005,-0.390069,-1.63439,
2026_07_06_19_05_24.603,3.854,46.6,0,0.77,0,0,0,0, ,0,0,0,0,0, ,-37.4,324.8,946.6,-0.4,-0.4,-1.6,25,-38.1932,324.938,947.597,-0.356808,-0.387627,-1.63229,
2026_07_06_19_05_24.623,3.854,46.6,0,0.77,0,0,0,0, ,0,0,0,0,0, ,-38.6,324.2,947.9,-0.3,-0.3,-1.6,25,-38.1815,324.912,947.576,-0.356393,-0.385334,-1.63033,
2026_07_06_19_05_24.642,3.854,46.6,0,0.772,0,0,0,0, ,0,0,0,0,0, ,-38.2,325.5,948.3,-0.3,-0.3,-1.6,25,-38.1948,324.908,947.608,-0.352956,-0.380134,-1.62848,
2026_07_06_19_05_24.661,3.854,46.6,0,0.77,0,0,0,0, ,0,0,0,0,0, ,-37.3,325.3,948.3,-0.3,-0.4,-1.6,25,-38.1677,324.938,947.65,-0.349729,-0.378298,-1.62674,
2026_07_06_19_05_24.682,3.854,46.5,0,0.773,0,0,0,0, ,0,0,0,0,0, ,-37.9,324.9,947.9,-0.2,-0.3,-1.7,25,-38.1331,324.948,947.678,-0.343652,-0.376573,-1.62816,
2026_07_06_19_05_24.702,3.854,46.6,0,0.771,0,0,0,0, ,0,0,0,0,0, ,-38.3,325.3,946.8,-0.2,-0.4,-1.7,25,-38.1311,324.957,947.658,-0.334898,-0.374954,-1.63254,
2026_07_06_19_05_24.723,3.854,46.5,0,0.772,0,0,0,0, ,0,0,0,0,0, ,-36.8,326.1,947.8,-0.3,-0.4,-1.6,25,-38.0956,325.002,947.636,-0.329725,-0.37648,-1.6336,
2026_07_06_19_05_24.742,3.854,46.5,0,0.77,0,0,0,0, ,0,0,0,0,0, ,-37.7,324.2,947.7,-0.2,-0.4,-1.7,25,-38.0441,325.011,947.643,-0.324867,-0.377914,-1.6346,
2026_07_06_19_05_24.768,3.854,46.5,0,0.772,0,0,0,0, ,0,0,0,0,0, ,-38,323.3,948.1,-0.2,-0.4,-1.6,25,-38.0323,324.934,947.658,-0.317258,-0.379259,-1.63554,
2026_07_06_19_05_24.784,3.854,46.5,0,0.769,0,0,0,0, ,0,0,0,0,0, ,-38.5,324.7,946.8,-0.3,-0.3,-1.7,25,-38.0456,324.877,947.646,-0.313159,-0.377476,-1.63642,
2026_07_06_19_05_24.801,3.854,46.6,0,0.771,0,0,0,0, ,0,0,0,0,0, ,-38.4,325.9,947.8,-0.2,-0.4,-1.6,25,-38.0702,324.903,947.625,-0.30931,-0.375802,-1.63725,
2026_07_06_19_05_24.821,3.854,46.5,0,0.772,0,0,0,0, ,0,0,0,0,0, ,-38.2,324,948.1,-0.3,-0.4,-1.7,25,-38.0842,324.906,947.644,-0.305696,-0.377277,-1.63802,
2026_07_06_19_05_24.841,3.854,46.5,0,0.769,0,0,0,0, ,0,0,0,0,0, ,-38,324.9,948.3,-0.3,-0.3,-1.7,25,-38.0852,324.878,947.678,-0.305349,-0.375614,-1.6418,
2026_07_06_19_05_24.861,3.854,46.5,0,0.77,0,0,0,0, ,0,0,0,0,0, ,-37.7,323.7,947.7,-0.2,-0.3,-1.6,25,-38.0708,324.843,947.698,-0.301976,-0.371007,-1.6423,
2026_07_06_19_05_24.879,3.854,46.5,0,0.771,0,0,0,0, ,0,0,0,0,0, ,-37.7,324.2,946.8,-0.3,-0.4,-1.5,25,-38.0482,324.789,947.671,-0.298809,-0.369727,-1.63668,
2026_07_06_19_05_24.900,3.854,46.5,0,0.769,0,0,0,0, ,0,0,0,0,0, ,-39.1,323.9,947.8,-0.3,-0.4,-1.6,25,-38.0697,324.744,947.648,-0.298881,-0.371571,-1.63139,
2026_07_06_19_05_24.921,3.854,46.6,0,0.771,0,0,0,0, ,0,0,0,0,0, ,-38.6,323.3,948.2,-0.3,-0.4,-1.7,25,-38.1172,324.674,947.669,-0.29895,-0.373304,-1.63253,
2026_07_06_19_05_24.940,3.854,46.5,0,0.77,0,0,0,0, ,0,0,0,0,0, ,-37.8,324.5,946.8,-0.3,-0.4,-1.7,25,-38.1223,324.627,947.659,-0.299014,-0.374931,-1.63664,
2026_07_06_19_05_24.960,3.854,46.4,0,0.769,0,0,0,0, ,0,0,0,0,0, ,-38.9,323.6,947.9,-0.3,-0.4,-1.6,25,-38.1361,324.592,947.64,-0.299074,-0.376458,-1.63745,
2026_07_06_19_05_24.979,3.854,46.5,0,0.769,0,0,0,0, ,0,0,0,0,0, ,-38.4,322.9,947.8,-0.4,-0.4,-1.7,25,-38.1675,324.51,947.653,-0.302177,-0.377893,-1.63822,
2026_07_06_19_05_25.000,3.854,46.4,0,0.771,0,0,0,0, ,0,0,0,0,0, ,-39.5,325.6,947.6,-0.4,-0.3,-1.6,25,-38.2151,324.494,947.656,-0.308138,-0.376193,-1.63894,
2026_07_06_19_05_25.015,3.854,46.4,0,0.77,0,0,0,0, ,0,0,0,0,0, ,-39.5,324.2,947.5,-0.4,-0.4,-1.6,25,-38.2934,324.519,947.649,-0.313736,-0.374597,-1.63656,
2026_07_06_19_05_25.043,3.854,46.5,0,0.771,0,0,0,0, ,0,0,0,0,0, ,-37.2,323.3,949,-0.4,-0.4,-1.6,25,-38.2969,324.472,947.686,-0.318993,-0.376145,-1.63434,
2026_07_06_19_05_25.060,3.854,46.4,0,0.769,0,0,0,0, ,0,0,0,0,0, ,-37.7,323.6,948.1,-0.5,-0.4,-1.6,25,-38.2453,324.41,947.739,-0.326976,-0.377599,-1.63224,
2026_07_06_19_05_25.078,3.854,46.5,0,0.77,0,0,0,0, ,0,0,0,0,0, ,-38,324.5,946.2,-0.4,-0.4,-1.6,25,-38.2212,324.388,947.703,-0.334473,-0.378964,-1.63028,
2026_07_06_19_05_25.098,3.854,46.4,0,0.77,0,0,0,0, ,0,0,0,0,0, ,-38.6,324.7,947.3,-0.4,-0.4,-1.6,25,-38.226,324.401,947.645,-0.338466,-0.380246,-1.62843,
2026_07_06_19_05_25.118,3.854,46.4,0,0.77,0,0,0,0, ,0,0,0,0,0, ,-38.3,324.9,948.3,-0.4,-0.4,-1.6,25,-38.2396,324.425,947.654,-0.342216,-0.381449,-1.6267,
2026_07_06_19_05_25.137,3.854,46.3,0,0.771,0,0,0,0, ,0,0,0,0,0, ,-37.4,324.9,946.7,-0.3,-0.4,-1.6,25,-38.2159,324.454,947.645,-0.34269,-0.38258,-1.62507,
2026_07_06_19_05_25.158,3.854,46.4,0,0.77,0,0,0,0, ,0,0,0,0,0, ,-37.8,323.7,948.8,-0.2,-0.4,-1.6,25,-38.1784,324.445,947.651,-0.337042,-0.383641,-1.62355,
2026_07_06_19_05_25.177,3.854,46.4,0,0.77,0,0,0,0, ,0,0,0,0,0, ,-38.9,324.5,947.9,-0.3,-0.4,-1.6,25,-38.1888,324.424,947.694,-0.331737,-0.384638,-1.62211,
2026_07_06_19_05_25.197,3.854,46.4,0,0.77,0,0,0,0, ,0,0,0,0,0, ,-38,324.4,947.8,-0.3,-0.4,-1.6,25,-38.2047,324.425,947.703,-0.329803,-0.385574,-1.62076,
2026_07_06_19_05_25.217,3.854,46.3,0,0.771,0,0,0,0, ,0,0,0,0,0, ,-37.4,323.6,947.9,-0.3,-0.4,-1.6,25,-38.174,324.399,947.712,-0.327987,-0.386453,-1.6195,
2026_07_06_19_05_25.236,3.854,46.4,0,0.77,0,0,0,0, ,0,0,0,0,0, ,-38,322.9,948.1,-0.3,-0.4,-1.6,25,-38.1451,324.329,947.73,-0.326282,-0.387279,-1.61831,
2026_07_06_19_05_25.256,3.854,46.4,0,0.771,0,0,0,0, ,0,0,0,0,0, ,-38.6,324.3,948.3,-0.4,-0.4,-1.6,25,-38.1545,324.285,947.758,-0.327727,-0.388054,-1.61719,
2026_07_06_19_05_25.277,3.854,46.3,0,0.77,0,0,0,0, ,0,0,0,0,0, ,-38.3,324.4,947.9,-0.4,-0.5,-1.6,25,-38.1725,324.289,947.779,-0.332131,-0.391829,-1.61615,
2026_07_06_19_05_25.305,3.854,46.3,0,0.77,0,0,0,0, ,0,0,0,0,0, ,-37.8,324.3,947.7,-0.4,-0.4,-1.6,25,-38.1651,324.292,947.781,-0.336267,-0.395374,-1.61516,
2026_07_06_19_05_25.317,3.854,46.4,0,0.77,0,0,0,0, ,0,0,0,0,0, ,-38.9,324.4,946.7,-0.3,-0.4,-1.6,25,-38.1763,324.296,947.745,-0.337104,-0.395656,-1.61424,
2026_07_06_19_05_25.336,3.854,46.3,0,0.772,0,0,0,0, ,0,0,0,0,0, ,-37.9,323.6,947.7,-0.4,-0.4,-1.6,25,-38.19,324.278,947.712,-0.33789,-0.39592,-1.61337,
2026_07_06_19_05_25.355,3.854,46.3,0,0.769,0,0,0,0, ,0,0,0,0,0, ,-38.4,323.3,946.2,-0.5,-0.3,-1.6,25,-38.1875,324.228,947.666,-0.344721,-0.393122,-1.61256,
2026_07_06_19_05_25.387,3.854,46.3,0,0.77,0,0,0,0, ,0,0,0,0,0, ,-37.7,325,948.9,-0.5,-0.4,-1.6,25,-38.1792,324.223,947.658,-0.354184,-0.390494,-1.61179,
2026_07_06_19_05_25.395,3.854,46.3,0,0.77,0,0,0,0, ,0,0,0,0,0, ,-38.3,324.8,947.3,-0.5,-0.3,-1.6,25,-38.1682,324.264,947.685,-0.363069,-0.388027,-1.61107,
2026_07_06_19_05_25.415,3.854,46.3,0,0.77,0,0,0,0, ,0,0,0,0,0, ,-39.1,324.2,947.6,-0.4,-0.4,-1.5,25,-38.2006,324.278,947.671,-0.368367,-0.385709,-1.60735,
2026_07_06_19_05_25.435,3.854,46.2,0,0.769,0,0,0,0, ,0,0,0,0,0, ,-37.2,324.2,948.3,-0.5,-0.4,-1.6,25,-38.1976,324.274,947.688,-0.373341,-0.38658,-1.60386,
2026_07_06_19_05_25.454,3.854,46.3,0,0.77,0,0,0,0, ,0,0,0,0,0, ,-36.6,324.9,947.5,-0.5,-0.4,-1.6,25,-38.1185,324.29,947.701,-0.38106,-0.387398,-1.60362,
2026_07_06_19_05_25.474,3.854,46.3,0,0.77,0,0,0,0, ,0,0,0,0,0, ,-38.2,325.6,948.1,-0.4,-0.4,-1.6,25,-38.0747,324.349,947.707,-0.385261,-0.388166,-1.6034,
2026_07_06_19_05_25.495,3.854,46.2,0,0.77,0,0,0,0, ,0,0,0,0,0, ,-39.4,324.7,948.4,-0.5,-0.4,-1.7,25,-38.1189,324.398,947.74,-0.389206,-0.388887,-1.60624,
2026_07_06_19_05_25.514,3.854,46.2,0,0.77,0,0,0,0, ,0,0,0,0,0, ,-38.3,325.8,948.1,-0.4,-0.3,-1.6,25,-38.1635,324.45,947.771,-0.39291,-0.386517,-1.60891,
2026_07_06_19_05_25.533,3.854,46.2,0,0.77,0,0,0,0, ,0,0,0,0,0, ,-37.8,324.8,948.8,-0.4,-0.3,-1.7,25,-38.1565,324.502,947.813,-0.393342,-0.381245,-1.61141,
2026_07_06_19_05_25.554,3.854,46.2,0,0.772,0,0,0,0, ,0,0,0,0,0, ,-38.2,325.5,947.9,-0.3,-0.4,-1.7,25,-38.147,324.541,947.845,-0.390701,-0.379341,-1.61681,
2026_07_06_19_05_25.573,3.854,46.2,0,0.772,0,0,0,0, ,0,0,0,0,0, ,-38.2,325.9,947,-0.4,-0.3,-1.7,25,-38.1502,324.612,947.821,-0.388221,-0.377553,-1.62188,
2026_07_06_19_05_25.592,3.854,46.2,0,0.77,0,0,0,0, ,0,0,0,0,0, ,-37.3,325.1,948.3,-0.3,-0.4,-1.6,25,-38.1258,324.666,947.811,-0.385892,-0.375874,-1.62359,
2026_07_06_19_05_25.613,3.854,46.3,0,0.77,0,0,0,0, ,0,0,0,0,0, ,-38.4,325.6,946.8,-0.4,-0.4,-1.6,25,-38.109,324.707,947.795,-0.383705,-0.377344,-1.62215,
2026_07_06_19_05_25.632,3.854,46.3,0,0.77,0,0,0,0, ,0,0,0,0,0, ,-39.4,325.4,947.3,-0.3,-0.4,-1.6,25,-38.1572,324.756,947.749,-0.381651,-0.378725,-1.6208,
2026_07_06_19_05_25.653,3.854,46.2,0,0.77,0,0,0,0, ,0,0,0,0,0, ,-38.6,325.5,947.3,-0.3,-0.4,-1.7,25,-38.2086,324.798,947.722,-0.376675,-0.380021,-1.62258,
2026_07_06_19_05_25.672,3.854,46.2,0,0.77,0,0,0,0, ,0,0,0,0,0, ,-38.2,326.1,947,-0.3,-0.4,-1.6,25,-38.2203,324.859,947.687,-0.372003,-0.381239,-1.62425,
2026_07_06_19_05_25.691,3.854,46.2,0,0.77,0,0,0,0, ,0,0,0,0,0, ,-38.2,326.2,947,-0.2,-0.4,-1.6,25,-38.219,324.938,947.645,-0.364568,-0.382382,-1.62278,
2026_07_06_19_05_25.713,3.854,46.1,0,0.772,0,0,0,0, ,0,0,0,0,0, ,-39.1,326.1,946.7,-0.3,-0.4,-1.6,25,-38.2453,325.012,947.597,-0.357587,-0.383456,-1.62139,
2026_07_06_19_05_25.734,3.854,46.1,0,0.77,0,0,0,0, ,0,0,0,0,0, ,-39.4,324.9,947.5,-0.3,-0.3,-1.6,25,-38.3065,325.041,947.567,-0.354078,-0.381417,-1.62009,
2026_07_06_19_05_25.751,3.854,46,0,0.77,0,0,0,0, ,0,0,0,0,0, ,-38.8,323.1,946.8,-0.3,-0.3,-1.6,25,-38.3549,324.978,947.541,-0.350782,-0.376456,-1.61886,
2026_07_06_19_05_25.770,3.854,46.2,0,0.772,0,0,0,0, ,0,0,0,0,0, ,-38.8,324.9,946.2,-0.1,-0.3,-1.6,25,-38.382,324.918,947.478,-0.341594,-0.371797,-1.61771,
2026_07_06_19_05_25.792,3.854,46.2,0,0.771,0,0,0,0, ,0,0,0,0,0, ,-39,323.9,948.1,-0.2,-0.4,-1.6,25,-38.4136,324.887,947.458,-0.329919,-0.370468,-1.61663,
2026_07_06_19_05_25.811,3.854,46.1,0,0.771,0,0,0,0, ,0,0,0,0,0, ,-38,324.4,946.7,-0.3,-0.4,-1.6,25,-38.4188,324.842,947.454,-0.325049,-0.372268,-1.61562,
2026_07_06_19_05_25.831,3.854,46.2,0,0.77,0,0,0,0, ,0,0,0,0,0, ,-38.3,325,949.5,-0.4,-0.4,-1.6,25,-38.4024,324.833,947.494,-0.326569,-0.373958,-1.61467,
2026_07_06_19_05_25.851,3.854,46.2,0,0.77,0,0,0,0, ,0,0,0,0,0, ,-38.5,323.8,948.3,-0.4,-0.4,-1.7,25,-38.4023,324.807,947.579,-0.331044,-0.375545,-1.61682,
2026_07_06_19_05_25.870,3.854,46.1,0,0.77,0,0,0,0, ,0,0,0,0,0, ,-38.3,324.2,947.7,-0.4,-0.4,-1.7,25,-38.4022,324.758,947.605,-0.335246,-0.377035,-1.62189,
2026_07_06_19_05_25.891,3.854,46,0,0.772,0,0,0,0, ,0,0,0,0,0, ,-38,324.5,947.7,-0.4,-0.3,-1.6,25,-38.3868,324.733,947.611,-0.339192,-0.375388,-1.6236,
2026_07_06_19_05_25.910,3.854,46.1,0,0.772,0,0,0,0, ,0,0,0,0,0, ,-38.6,325.5,947.9,-0.4,-0.4,-1.6,25,-38.3815,324.749,947.622,-0.342897,-0.373841,-1.62216,
2026_07_06_19_05_25.930,3.854,46.1,0,0.769,0,0,0,0, ,0,0,0,0,0, ,-38,326.6,947,-0.3,-0.3,-1.6,25,-38.3765,324.828,947.612,-0.34333,-0.372388,-1.62081,
2026_07_06_19_05_25.950,3.854,46.1,0,0.77,0,0,0,0, ,0,0,0,0,0, ,-38.2,325.6,947.2,-0.3,-0.4,-1.6,25,-38.3597,324.906,947.581,-0.34069,-0.371024,-1.61954,
2026_07_06_19_05_25.969,3.854,46.1,0,0.77,0,0,0,0, ,0,0,0,0,0, ,-38.3,325.5,947.1,-0.3,-0.5,-1.7,25,-38.353,324.945,947.554,-0.33821,-0.375836,-1.6214,
2026_07_06_19_05_25.990,3.854,46.1,0,0.772,0,0,0,0, ,0,0,0,0,0, ,-37.7,323.8,947.5,-0.2,-0.4,-1.6,25,-38.3315,324.927,947.539,-0.332835,-0.380356,-1.62314,
2026_07_06_19_05_26.009,3.854,46,0,0.77,0,0,0,0, ,0,0,0,0,0, ,-38.9,325.3,945.6,-0.3,-0.4,-1.6,25,-38.3296,324.904,947.479,-0.327787,-0.381553,-1.62173,
2026_07_06_19_05_26.028,3.854,46,0,0.77,0,0,0,0, ,0,0,0,0,0, ,-38.2,324.7,947.6,-0.3,-0.4,-1.7,25,-38.343,324.91,947.425,-0.326094,-0.382677,-1.62346,
2026_07_06_19_05_26.049,3.854,46,0,0.77,0,0,0,0, ,0,0,0,0,0, ,-38.9,323.4,947.8,-0.2,-0.4,-1.6,25,-38.3556,324.858,947.442,-0.321457,-0.383732,-1.62507,
2026_07_06_19_05_26.069,3.854,46,0,0.769,0,0,0,0, ,0,0,0,0,0, ,-37.9,323.2,947.8,-0.2,-0.4,-1.7,25,-38.3583,324.763,947.464,-0.314056,-0.384724,-1.62659,
2026_07_06_19_05_26.088,3.854,46,0,0.772,0,0,0,0, ,0,0,0,0,0, ,-38.9,325,947.1,-0.3,-0.4,-1.6,25,-38.3609,324.722,947.463,-0.310152,-0.385655,-1.62802,
2026_07_06_19_05_26.108,3.854,46,0,0.77,0,0,0,0, ,0,0,0,0,0, ,-39,323.9,945.5,-0.2,-0.4,-1.6,25,-38.3968,324.706,947.392,-0.306487,-0.386529,-1.62631,
2026_07_06_19_05_26.129,3.854,46,0,0.77,0,0,0,0, ,0,0,0,0,0, ,-38,323.1,948.3,-0.3,-0.4,-1.6,25,-38.4031,324.632,947.362,-0.303045,-0.38735,-1.62471,
2026_07_06_19_05_26.147,3.854,46,0,0.772,0,0,0,0, ,0,0,0,0,0, ,-37.3,324.3,947.1,-0.3,-0.3,-1.6,25,-38.3572,324.575,947.383,-0.302859,-0.385074,-1.6232,
2026_07_06_19_05_26.168,3.854,46,0,0.77,0,0,0,0, ,0,0,0,0,0, ,-38.5,324.5,948.3,-0.3,-0.4,-1.6,25,-38.3293,324.565,947.402,-0.302685,-0.382936,-1.62179,
2026_07_06_19_05_26.187,3.854,46,0,0.77,0,0,0,0, ,0,0,0,0,0, ,-37.5,323.6,947.5,-0.3,-0.3,-1.7,25,-38.3092,324.533,947.432,-0.302521,-0.380929,-1.62351,
2026_07_06_19_05_26.207,3.854,46,0,0.77,0,0,0,0, ,0,0,0,0,0, ,-38.3,326.4,949.8,-0.4,-0.4,-1.7,25,-38.2843,324.562,947.506,-0.305414,-0.379045,-1.62817,
2026_07_06_19_05_26.227,3.854,46,0,0.77,0,0,0,0, ,0,0,0,0,0, ,-36.7,323.8,947.5,-0.4,-0.4,-1.7,25,-38.2365,324.595,947.576,-0.311178,-0.380322,-1.63255,
2026_07_06_19_05_26.252,3.854,46,0,0.77,0,0,0,0, ,0,0,0,0,0, ,-37.7,324.2,949.3,-0.4,-0.4,-1.6,25,-38.1733,324.558,947.626,-0.316591,-0.381521,-1.63361,
2026_07_06_19_05_26.267,3.854,46,0,0.772,0,0,0,0, ,0,0,0,0,0, ,-37.5,324.9,948.6,-0.4,-0.4,-1.6,25,-38.1384,324.558,947.707,-0.321674,-0.382647,-1.63156,
2026_07_06_19_05_26.287,3.854,46,0,0.77,0,0,0,0, ,0,0,0,0,0, ,-37.7,324.3,947.3,-0.4,-0.4,-1.6,25,-38.1056,324.56,947.722,-0.326447,-0.383704,-1.62964,
2026_07_06_19_05_26.306,3.854,46,0,0.77,0,0,0,0, ,0,0,0,0,0, ,-36.9,325.5,948.1,-0.4,-0.4,-1.6,25,-38.0565,324.581,947.72,-0.330929,-0.384697,-1.62783,
2026_07_06_19_05_26.325,3.854,45.9,0,0.77,0,0,0,0, ,0,0,0,0,0, ,-37.9,324.8,947.5,-0.4,-0.3,-1.6,25,-38.0165,324.616,947.725,-0.335138,-0.382583,-1.62614,
2026_07_06_19_05_26.345,3.854,46,0,0.77,0,0,0,0, ,0,0,0,0,0, ,-37.4,325,948.4,-0.4,-0.4,-1.6,25,-37.9942,324.633,947.739,-0.33909,-0.380597,-1.62454,
2026_07_06_19_05_26.365,3.854,45.9,0,0.77,0,0,0,0, ,0,0,0,0,0, ,-39.3,325,947.8,-0.4,-0.3,-1.7,25,-38.0158,324.655,947.761,-0.342802,-0.378733,-1.62609,
2026_07_06_19_05_26.385,3.854,45.9,0,0.77,0,0,0,0, ,0,0,0,0,0, ,-37.3,325.3,947.9,-0.3,-0.4,-1.7,25,-38.0332,324.686,947.766,-0.343241,-0.376982,-1.6306,
2026_07_06_19_05_26.406,3.854,45.9,0,0.77,0,0,0,0, ,0,0,0,0,0, ,-37.1,325.6,948.4,-0.3,-0.3,-1.6,25,-37.9824,324.732,947.79,-0.340606,-0.375338,-1.63178,
2026_07_06_19_05_26.424,3.854,45.9,0,0.772,0,0,0,0, ,0,0,0,0,0, ,-39.7,325.3,947.1,-0.3,-0.4,-1.6,25,-38.0078,324.776,947.787,-0.338131,-0.373794,-1.62984,
2026_07_06_19_05_26.450,3.854,45.9,0,0.771,0,0,0,0, ,0,0,0,0,0, ,-38.4,325,947.8,-0.3,-0.4,-1.6,25,-38.0713,324.799,947.767,-0.335808,-0.375391,-1.62803,
2026_07_06_19_05_26.464,3.854,45.9,0,0.772,0,0,0,0, ,0,0,0,0,0, ,-37.5,324.9,947.9,-0.3,-0.4,-1.6,25,-38.064,324.808,947.772,-0.333626,-0.37689,-1.62632,
2026_07_06_19_05_26.484,3.854,45.9,0,0.768,0,0,0,0, ,0,0,0,0,0, ,-36.8,325.5,948.4,-0.2,-0.4,-1.6,25,-38.0083,324.832,947.795,-0.32853,-0.378299,-1.62471,
2026_07_06_19_05_26.505,3.854,45.8,0,0.77,0,0,0,0, ,0,0,0,0,0, ,-38.9,325.9,947.9,-0.2,-0.4,-1.6,25,-37.9986,324.885,947.817,-0.320697,-0.379621,-1.62321,
2026_07_06_19_05_26.524,3.854,45.9,0,0.77,0,0,0,0, ,0,0,0,0,0, ,-38.8,324,948.4,-0.5,-0.4,-1.7,25,-38.0505,324.889,947.837,-0.322483,-0.380863,-1.62484,
2026_07_06_19_05_26.543,3.854,45.9,0,0.772,0,0,0,0, ,0,0,0,0,0, ,-40,325.8,947.9,-0.5,-0.3,-1.6,25,-38.1327,324.889,947.856,-0.3333,-0.378982,-1.62637,
2026_07_06_19_05_26.563,3.854,45.9,0,0.77,0,0,0,0, ,0,0,0,0,0, ,-38,325.4,950.9,-0.4,-0.4,-1.7,25,-38.1856,324.933,947.95,-0.340412,-0.377216,-1.62781,
2026_07_06_19_05_26.584,3.854,45.9,0,0.772,0,0,0,0, ,0,0,0,0,0, ,-37.8,325.3,948.3,-0.5,-0.4,-1.6,25,-38.1682,324.958,948.051,-0.34709,-0.378604,-1.62917,
2026_07_06_19_05_26.603,3.854,45.8,0,0.771,0,0,0,0, ,0,0,0,0,0, ,-37.3,324.7,947.7,-0.4,-0.4,-1.6,25,-38.1305,324.961,948.048,-0.353361,-0.379908,-1.62739,
2026_07_06_19_05_26.623,3.854,45.8,0,0.77,0,0,0,0, ,0,0,0,0,0, ,-38.2,325.5,947.8,-0.4,-0.5,-1.6,25,-38.1073,324.969,948.029,-0.356203,-0.384179,-1.62572,
2026_07_06_19_05_26.643,3.854,45.8,0,0.771,0,0,0,0, ,0,0,0,0,0, ,-38.5,324.9,949.7,-0.3,-0.4,-1.7,25,-38.1221,324.983,948.073,-0.355825,-0.38819,-1.6272,
2026_07_06_19_05_26.663,3.854,45.8,0,0.772,0,0,0,0, ,0,0,0,0,0, ,-38.4,326.2,947,-0.3,-0.4,-1.7,25,-38.1421,325.018,948.09,-0.352423,-0.38891,-1.63164,
2026_07_06_19_05_26.682,3.854,45.8,0,0.771,0,0,0,0, ,0,0,0,0,0, ,-38.2,326.9,948.4,-0.4,-0.3,-1.6,25,-38.1517,325.111,948.066,-0.352276,-0.386539,-1.63275,
2026_07_06_19_05_26.702,3.854,45.8,0,0.77,0,0,0,0, ,0,0,0,0,0, ,-37.8,326,948.1,-0.2,-0.4,-1.6,25,-38.1425,325.193,948.078,-0.34909,-0.384312,-1.63076,
2026_07_06_19_05_26.722,3.854,45.7,0,0.77,0,0,0,0, ,0,0,0,0,0, ,-37.4,325.5,947.5,-0.2,-0.4,-1.6,25,-38.1094,325.227,948.061,-0.340005,-0.385268,-1.62888,
2026_07_06_19_05_26.742,3.854,45.8,0,0.77,0,0,0,0, ,0,0,0,0,0, ,-38.9,325.4,947.2,-0.3,-0.4,-1.7,25,-38.1119,325.24,948.017,-0.33452,-0.386166,-1.63017,
2026_07_06_19_05_26.762,3.854,45.8,0,0.768,0,0,0,0, ,0,0,0,0,0, ,-38.9,324.7,947,-0.2,-0.4,-1.6,25,-38.1599,325.229,947.961,-0.32937,-0.387009,-1.63138,
2026_07_06_19_05_26.781,3.854,45.8,0,0.772,0,0,0,0, ,0,0,0,0,0, ,-37.1,325.6,947.8,-0.3,-0.4,-1.6,25,-38.1502,325.224,947.927,-0.324533,-0.387801,-1.62947,
2026_07_06_19_05_26.800,3.854,45.7,0,0.77,0,0,0,0, ,0,0,0,0,0, ,-39.3,325.5,947.1,-0.2,-0.4,-1.6,25,-38.1532,325.244,947.898,-0.319991,-0.388544,-1.62767,
2026_07_06_19_05_26.821,3.854,45.8,0,0.772,0,0,0,0, ,0,0,0,0,0, ,-37.9,325.8,946.8,-0.2,-0.4,-1.6,25,-38.1804,325.269,947.84,-0.312679,-0.389242,-1.62599,
2026_07_06_19_05_26.840,3.854,45.8,0,0.77,0,0,0,0, ,0,0,0,0,0, ,-38.8,323.6,947.6,-0.2,-0.4,-1.6,25,-38.1908,325.234,947.801,-0.305813,-0.389898,-1.6244,
2026_07_06_19_05_26.865,3.854,45.7,0,0.77,0,0,0,0, ,0,0,0,0,0, ,-38.4,324.5,948.1,-0.3,-0.4,-1.6,25,-38.2157,325.162,947.804,-0.302412,-0.390513,-1.62291,
2026_07_06_19_05_26.884,3.854,45.6,0,0.77,0,0,0,0, ,0,0,0,0,0, ,-37.3,323.7,946.1,-0.3,-0.4,-1.7,25,-38.1934,325.097,947.761,-0.302265,-0.391091,-1.62457,
2026_07_06_19_05_26.901,3.854,45.7,0,0.773,0,0,0,0, ,0,0,0,0,0, ,-37.8,324.4,948.8,-0.3,-0.3,-1.7,25,-38.1542,325.033,947.742,-0.302127,-0.388587,-1.62916,
2026_07_06_19_05_26.920,3.854,45.8,0,0.77,0,0,0,0, ,0,0,0,0,0, ,-38.5,323.9,947.6,-0.3,-0.4,-1.5,25,-38.154,324.979,947.77,-0.301997,-0.386236,-1.62738,
2026_07_06_19_05_26.939,3.854,45.8,0,0.77,0,0,0,0, ,0,0,0,0,0, ,-39.1,324.7,949.2,-0.3,-0.4,-1.6,25,-38.1933,324.938,947.809,-0.301876,-0.387075,-1.62267,
2026_07_06_19_05_26.960,3.854,45.7,0,0.769,0,0,0,0, ,0,0,0,0,0, ,-38.8,323.9,947.1,-0.3,-0.4,-1.7,25,-38.2394,324.899,947.829,-0.301761,-0.387862,-1.62433,
2026_07_06_19_05_26.978,3.854,45.6,0,0.77,0,0,0,0, ,0,0,0,0,0, ,-38.4,324,948.9,-0.4,-0.4,-1.6,25,-38.2614,324.841,947.84,-0.304701,-0.388602,-1.6259,
2026_07_06_19_05_26.999,3.854,45.6,0,0.77,0,0,0,0, ,0,0,0,0,0, ,-36.7,324.4,947.9,-0.4,-0.3,-1.6,25,-38.2181,324.802,947.874,-0.310508,-0.38625,-1.62432,
2026_07_06_19_05_27.019,3.854,45.8,0,0.77,0,0,0,0, ,0,0,0,0,0, ,-38.4,325.5,947.6,-0.4,-0.4,-1.7,25,-38.1773,324.811,947.866,-0.315961,-0.384041,-1.62589,
2026_07_06_19_05_27.038,3.854,45.6,0,0.769,0,0,0,0, ,0,0,0,0,0, ,-38.4,324.7,947.3,-0.5,-0.4,-1.6,25,-38.1909,324.829,947.841,-0.324129,-0.385013,-1.62735,
2026_07_06_19_05_27.058,3.854,45.6,0,0.769,0,0,0,0, ,0,0,0,0,0, ,-38.6,324.8,948.4,-0.4,-0.4,-1.6,25,-38.2097,324.824,947.842,-0.3318,-0.385927,-1.62569,
2026_07_06_19_05_27.079,3.854,45.6,0,0.77,0,0,0,0, ,0,0,0,0,0, ,-37.1,324,948.1,-0.4,-0.4,-1.6,25,-38.1878,324.798,947.866,-0.335956,-0.386784,-1.62412,
2026_07_06_19_05_27.098,3.854,45.6,0,0.77,0,0,0,0, ,0,0,0,0,0, ,-38.6,323.7,948.6,-0.4,-0.4,-1.6,25,-38.1672,324.74,947.896,-0.339858,-0.387589,-1.62265,
2026_07_06_19_05_27.119,3.854,45.6,0,0.77,0,0,0,0, ,0,0,0,0,0, ,-39,325.5,947.7,-0.4,-0.3,-1.6,25,-38.2058,324.732,947.911,-0.343523,-0.385299,-1.62127,
2026_07_06_19_05_27.137,3.854,45.6,0,0.77,0,0,0,0, ,0,0,0,0,0, ,-37.9,325.1,947.7,-0.4,-0.4,-1.6,25,-38.2207,324.766,947.899,-0.346965,-0.383148,-1.61998,
2026_07_06_19_05_27.158,3.854,45.6,0,0.77,0,0,0,0, ,0,0,0,0,0, ,-37.9,324.2,948.1,-0.3,-0.3,-1.6,25,-38.2011,324.759,947.899,-0.34715,-0.381128,-1.61876,
2026_07_06_19_05_27.176,3.854,45.6,0,0.769,0,0,0,0, ,0,0,0,0,0, ,-38.2,324.9,947.8,-0.4,-0.3,-1.6,25,-38.1919,324.747,947.902,-0.347323,-0.376184,-1.61762,
2026_07_06_19_05_27.204,3.854,45.6,0,0.77,0,0,0,0, ,0,0,0,0,0, ,-39,324.9,947.3,-0.3,-0.4,-1.6,25,-38.2168,324.756,947.88,-0.347487,-0.374589,-1.61654,
2026_07_06_19_05_27.216,3.854,45.6,0,0.77,0,0,0,0, ,0,0,0,0,0, ,-38.5,324,947.9,-0.4,-0.4,-1.6,25,-38.2493,324.737,947.863,-0.34764,-0.376137,-1.61553,
2026_07_06_19_05_27.237,3.854,45.6,0,0.769,0,0,0,0, ,0,0,0,0,0, ,-37.7,325,947.1,-0.4,-0.3,-1.6,25,-38.2402,324.723,947.841,-0.35083,-0.374544,-1.61459,
2026_07_06_19_05_27.257,3.854,45.6,0,0.769,0,0,0,0, ,0,0,0,0,0, ,-37.3,324,946.4,-0.4,-0.3,-1.6,25,-38.1951,324.709,947.775,-0.353827,-0.370002,-1.6137,
2026_07_06_19_05_27.277,3.854,45.6,0,0.77,0,0,0,0, ,0,0,0,0,0, ,-38.4,324.9,948.2,-0.5,-0.4,-1.7,25,-38.1741,324.693,947.746,-0.359687,-0.368783,-1.61591,
2026_07_06_19_05_27.296,3.854,45.5,0,0.77,0,0,0,0, ,0,0,0,0,0, ,-38.4,324.2,948.3,-0.5,-0.4,-1.6,25,-38.1878,324.685,947.776,-0.368238,-0.370685,-1.61799,
2026_07_06_19_05_27.320,3.854,45.5,0,0.77,0,0,0,0, ,0,0,0,0,0, ,-37.4,323.9,948.9,-0.5,-0.3,-1.6,25,-38.1703,324.646,947.827,-0.376267,-0.369425,-1.61689,
2026_07_06_19_05_27.336,3.854,45.6,0,0.769,0,0,0,0, ,0,0,0,0,0, ,-37.5,324.5,947.8,-0.4,-0.4,-1.7,25,-38.1264,324.619,947.859,-0.38076,-0.368241,-1.61891,
2026_07_06_19_05_27.355,3.854,45.5,0,0.77,0,0,0,0, ,0,0,0,0,0, ,-38,324.5,946,-0.4,-0.4,-1.6,25,-38.1035,324.612,947.8,-0.381932,-0.370176,-1.6208,
2026_07_06_19_05_27.376,3.854,45.5,0,0.769,0,0,0,0, ,0,0,0,0,0, ,-39.1,324.9,949.4,-0.5,-0.4,-1.6,25,-38.1307,324.617,947.794,-0.38608,-0.371994,-1.61954,
2026_07_06_19_05_27.395,3.854,45.5,0,0.77,0,0,0,0, ,0,0,0,0,0, ,-38.4,324.8,946.7,-0.4,-0.4,-1.6,25,-38.1684,324.631,947.81,-0.389975,-0.3737,-1.61835,
2026_07_06_19_05_27.415,3.854,45.5,0,0.769,0,0,0,0, ,0,0,0,0,0, ,-37.3,325.4,948.3,-0.4,-0.4,-1.6,25,-38.149,324.66,947.791,-0.390586,-0.375303,-1.61723,
2026_07_06_19_05_27.435,3.854,45.5,0,0.77,0,0,0,0, ,0,0,0,0,0, ,-37.1,325.3,949.2,-0.4,-0.4,-1.6,25,-38.0912,324.702,947.849,-0.39116,-0.376808,-1.61618,
2026_07_06_19_05_27.454,3.854,45.5,0,0.769,0,0,0,0, ,0,0,0,0,0, ,-37.9,325.3,948.7,-0.3,-0.4,-1.6,25,-38.0551,324.738,947.916,-0.388652,-0.378221,-1.61519,
2026_07_06_19_05_27.475,3.854,45.3,0,0.77,0,0,0,0, ,0,0,0,0,0, ,-36.6,324.4,947.3,-0.3,-0.3,-1.6,25,-38.0061,324.745,947.921,-0.383249,-0.376501,-1.61427,
2026_07_06_19_05_27.494,3.854,45.5,0,0.77,0,0,0,0, ,0,0,0,0,0, ,-38.3,323.7,946.5,-0.2,-0.4,-1.6,25,-37.9722,324.703,947.859,-0.37513,-0.374887,-1.6134,
2026_07_06_19_05_27.514,3.854,45.5,0,0.77,0,0,0,0, ,0,0,0,0,0, ,-37.8,324.9,947.1,-0.2,-0.4,-1.7,25,-37.9769,324.678,947.795,-0.364458,-0.376417,-1.61563,
2026_07_06_19_05_27.534,3.854,45.5,0,0.769,0,0,0,0, ,0,0,0,0,0, ,-38.5,324.2,947.9,-0.2,-0.4,-1.6,25,-37.9875,324.67,947.777,-0.354436,-0.377854,-1.61772,
2026_07_06_19_05_27.554,3.854,45.6,0,0.77,0,0,0,0, ,0,0,0,0,0, ,-37.1,323.8,948.1,-0.3,-0.4,-1.7,25,-37.9761,324.63,947.79,-0.348072,-0.379204,-1.61969,
2026_07_06_19_05_27.574,3.854,45.3,0,0.77,0,0,0,0, ,0,0,0,0,0, ,-39.4,324.5,948.2,-0.2,-0.4,-1.6,25,-37.9928,324.6,947.812,-0.342096,-0.380471,-1.62154,
2026_07_06_19_05_27.594,3.854,45.5,0,0.772,0,0,0,0, ,0,0,0,0,0, ,-37.9,324.5,947.7,-0.3,-0.4,-1.6,25,-38.0328,324.594,947.821,-0.336484,-0.381661,-1.62022,
2026_07_06_19_05_27.612,3.854,45.5,0,0.77,0,0,0,0, ,0,0,0,0,0, ,-37.3,323.4,946.8,-0.3,-0.4,-1.6,25,-38.0064,324.555,947.786,-0.33426,-0.382778,-1.61899,
2026_07_06_19_05_27.632,3.854,45.5,0,0.77,0,0,0,0, ,0,0,0,0,0, ,-38.2,323.4,947.9,-0.3,-0.3,-1.6,25,-37.9908,324.485,947.759,-0.332173,-0.380781,-1.61783,
2026_07_06_19_05_27.652,3.854,45.5,0,0.769,0,0,0,0, ,0,0,0,0,0, ,-37.4,324,947.6,-0.3,-0.3,-1.6,25,-37.9792,324.437,947.759,-0.330212,-0.375858,-1.61675,
2026_07_06_19_05_27.674,3.854,45.3,0,0.77,0,0,0,0, ,0,0,0,0,0, ,-37.9,323.2,947,-0.3,-0.4,-1.7,25,-37.9591,324.386,947.731,-0.328371,-0.374283,-1.61877,
2026_07_06_19_05_27.692,3.854,45.5,0,0.772,0,0,0,0, ,0,0,0,0,0, ,-37.3,322.9,946.2,-0.4,-0.4,-1.7,25,-37.9372,324.304,947.662,-0.329689,-0.37585,-1.62372,
2026_07_06_19_05_27.714,3.854,45.3,0,0.77,0,0,0,0, ,0,0,0,0,0, ,-37.5,323.6,948.3,-0.4,-0.4,-1.7,25,-37.9045,324.24,947.637,-0.333974,-0.377321,-1.62837,
2026_07_06_19_05_27.732,3.854,45.3,0,0.772,0,0,0,0, ,0,0,0,0,0, ,-37.7,323.3,948.4,-0.3,-0.4,-1.6,25,-37.8859,324.192,947.68,-0.33495,-0.378703,-1.62969,
2026_07_06_19_05_27.752,3.854,45.3,0,0.77,0,0,0,0, ,0,0,0,0,0, ,-37.8,323.1,949.2,-0.4,-0.4,-1.6,25,-37.8777,324.132,947.748,-0.335867,-0.380001,-1.62788,
2026_07_06_19_05_27.771,3.854,45.3,0,0.77,0,0,0,0, ,0,0,0,0,0, ,-39.1,324.7,947.2,-0.4,-0.4,-1.6,25,-37.9125,324.117,947.776,-0.339775,-0.38122,-1.62618,
2026_07_06_19_05_27.791,3.854,45.3,0,0.769,0,0,0,0, ,0,0,0,0,0, ,-37.7,325,947.6,-0.4,-0.4,-1.6,25,-37.9422,324.162,947.753,-0.343445,-0.382364,-1.62459,
2026_07_06_19_05_27.811,3.854,45.3,0,0.77,0,0,0,0, ,0,0,0,0,0, ,-38.9,323.8,948.9,-0.5,-0.4,-1.7,25,-37.964,324.177,947.783,-0.349939,-0.383439,-1.62613,
2026_07_06_19_05_27.831,3.854,45.3,0,0.77,0,0,0,0, ,0,0,0,0,0, ,-39,324.5,947.9,-0.5,-0.4,-1.6,25,-38.0241,324.175,947.821,-0.359083,-0.384448,-1.62759,
2026_07_06_19_05_27.850,3.854,45.3,0,0.77,0,0,0,0, ,0,0,0,0,0, ,-37.7,324.4,948.6,-0.4,-0.4,-1.6,25,-38.044,324.192,947.847,-0.364623,-0.385396,-1.62591,
2026_07_06_19_05_27.871,3.854,45.3,0,0.77,0,0,0,0, ,0,0,0,0,0, ,-38.2,324.7,947.6,-0.4,-0.4,-1.5,25,-38.0383,324.214,947.862,-0.366779,-0.386286,-1.62128,
2026_07_06_19_05_27.890,3.854,45.2,0,0.771,0,0,0,0, ,0,0,0,0,0, ,-38.2,324.8,947.6,-0.4,-0.4,-1.7,25,-38.0481,324.246,947.846,-0.368803,-0.387121,-1.61999,
2026_07_06_19_05_27.913,3.854,45.3,0,0.769,0,0,0,0, ,0,0,0,0,0, ,-38.6,323.7,947.5,-0.4,-0.4,-1.6,25,-38.0696,324.246,947.828,-0.370704,-0.387906,-1.62181,
2026_07_06_19_05_27.929,3.854,45.3,0,0.771,0,0,0,0, ,0,0,0,0,0, ,-37.7,324.4,948.3,-0.3,-0.4,-1.6,25,-38.0745,324.234,947.833,-0.369443,-0.388643,-1.62048,
2026_07_06_19_05_27.951,3.854,45.2,0,0.771,0,0,0,0, ,0,0,0,0,0, ,-38.4,322.3,947.8,-0.3,-0.3,-1.6,25,-38.073,324.181,947.846,-0.365211,-0.386288,-1.61924,
2026_07_06_19_05_27.969,3.854,45.2,0,0.772,0,0,0,0, ,0,0,0,0,0, ,-38.6,325.3,948.3,-0.3,-0.4,-1.6,25,-38.099,324.157,947.858,-0.361237,-0.384077,-1.61806,
2026_07_06_19_05_27.989,3.854,45.2,0,0.77,0,0,0,0, ,0,0,0,0,0, ,-37.9,324.8,947.6,-0.4,-0.4,-1.6,25,-38.1082,324.212,947.864,-0.360552,-0.385047,-1.61696,
2026_07_06_19_05_28.009,3.854,45.2,0,0.77,0,0,0,0, ,0,0,0,0,0, ,-38,324.7,949.3,-0.4,-0.4,-1.6,25,-38.0986,324.245,947.9,-0.362956,-0.385959,-1.61593,
2026_07_06_19_05_28.030,3.854,45.1,0,0.77,0,0,0,0, ,0,0,0,0,0, ,-37.9,324.7,947.5,-0.5,-0.4,-1.7,25,-38.0895,324.272,947.93,-0.368261,-0.386814,-1.61801,
2026_07_06_19_05_28.048,3.854,45.2,0,0.771,0,0,0,0, ,0,0,0,0,0, ,-39,324.4,947.7,-0.5,-0.4,-1.7,25,-38.1115,324.289,947.91,-0.376288,-0.387618,-1.623,
2026_07_06_19_05_28.070,3.854,45.2,0,0.77,0,0,0,0, ,0,0,0,0,0, ,-37.4,323.1,947.3,-0.5,-0.4,-1.6,25,-38.1169,324.256,947.885,-0.383827,-0.388372,-1.62465,
2026_07_06_19_05_28.087,3.854,45.2,0,0.77,0,0,0,0, ,0,0,0,0,0, ,-36.8,325.1,948.1,-0.4,-0.4,-1.6,25,-38.0549,324.247,947.874,-0.38786,-0.389081,-1.62315,
2026_07_06_19_05_28.109,3.854,45.2,0,0.77,0,0,0,0, ,0,0,0,0,0, ,-37.5,324.3,948.1,-0.5,-0.4,-1.6,25,-37.9998,324.274,947.888,-0.391646,-0.389746,-1.62174,
2026_07_06_19_05_28.127,3.854,45.2,0,0.77,0,0,0,0, ,0,0,0,0,0, ,-38.8,325.3,948.3,-0.5,-0.4,-1.6,25,-38.0089,324.306,947.907,-0.398249,-0.390371,-1.62041,
2026_07_06_19_05_28.149,3.854,45.1,0,0.769,0,0,0,0, ,0,0,0,0,0, ,-38.6,325.4,948.3,-0.4,-0.3,-1.6,25,-38.051,324.37,947.931,-0.401403,-0.387911,-1.61917,
2026_07_06_19_05_28.168,3.854,45.2,0,0.77,0,0,0,0, ,0,0,0,0,0, ,-39.1,324.5,948.6,-0.4,-0.3,-1.5,25,-38.0997,324.405,947.962,-0.401317,-0.382554,-1.61495,
2026_07_06_19_05_28.189,3.854,45.1,0,0.772,0,0,0,0, ,0,0,0,0,0, ,-37.8,326.1,948.3,-0.4,-0.4,-1.6,25,-38.1211,324.46,947.992,-0.401237,-0.38057,-1.61099,
2026_07_06_19_05_28.210,3.854,45.2,0,0.768,0,0,0,0, ,0,0,0,0,0, ,-37.9,324.7,947.8,-0.4,-0.4,-1.6,25,-38.1045,324.517,947.996,-0.401161,-0.381754,-1.61032,
2026_07_06_19_05_28.238,3.854,45.2,0,0.77,0,0,0,0, ,0,0,0,0,0, ,-36.8,326.5,948.4,-0.4,-0.3,-1.6,25,-38.0586,324.583,948.002,-0.401091,-0.379819,-1.6097,
2026_07_06_19_05_28.245,3.854,45.1,0,0.77,0,0,0,0, ,0,0,0,0,0, ,-37.2,324.9,947,-0.3,-0.4,-1.6,25,-37.9941,324.651,947.983,-0.397977,-0.378002,-1.6091,
2026_07_06_19_05_28.279,3.854,45.2,0,0.77,0,0,0,0, ,0,0,0,0,0, ,-38.2,325.5,948.6,-0.4,-0.5,-1.6,25,-37.9761,324.685,947.972,-0.395054,-0.382389,-1.60855,
2026_07_06_19_05_28.285,3.854,45.1,0,0.77,0,0,0,0, ,0,0,0,0,0, ,-38.6,326,946.6,-0.3,-0.4,-1.7,25,-38.002,324.75,947.95,-0.392308,-0.386509,-1.61108,
2026_07_06_19_05_28.306,3.854,45.1,0,0.77,0,0,0,0, ,0,0,0,0,0, ,-38,325.4,948.9,-0.3,-0.4,-1.6,25,-38.0201,324.808,947.937,-0.386683,-0.387331,-1.61345,
2026_07_06_19_05_28.325,3.854,45.1,0,0.77,0,0,0,0, ,0,0,0,0,0, ,-38.4,324.5,946.4,-0.3,-0.4,-1.6,25,-38.0311,324.816,947.92,-0.381401,-0.388103,-1.61263,
2026_07_06_19_05_28.348,3.854,45.1,0,0.768,0,0,0,0, ,0,0,0,0,0, ,-38.5,326.1,948.9,-0.3,-0.4,-1.6,25,-38.0566,324.846,947.903,-0.376441,-0.388828,-1.61186,
2026_07_06_19_05_28.365,3.854,45.1,0,0.772,0,0,0,0, ,0,0,0,0,0, ,-38.2,326.1,946.6,-0.3,-0.4,-1.6,25,-38.0745,324.922,947.894,-0.371783,-0.389509,-1.61114,
2026_07_06_19_05_28.386,3.854,45.1,0,0.771,0,0,0,0, ,0,0,0,0,0, ,-39,325.9,946.6,-0.2,-0.4,-1.6,25,-38.1065,324.988,947.815,-0.364361,-0.390148,-1.61046,
2026_07_06_19_05_28.405,3.854,45.1,0,0.77,0,0,0,0, ,0,0,0,0,0, ,-38.2,326,947.2,-0.2,-0.4,-1.6,25,-38.1366,325.046,947.759,-0.354346,-0.390749,-1.60982,
2026_07_06_19_05_28.426,3.854,45.1,0,0.77,0,0,0,0, ,0,0,0,0,0, ,-38.8,324.4,946.4,-0.2,-0.4,-1.6,25,-38.1587,325.056,947.701,-0.34494,-0.391313,-1.60922,
2026_07_06_19_05_28.445,3.854,45.1,0,0.771,0,0,0,0, ,0,0,0,0,0, ,-38,325.6,948.8,-0.2,-0.4,-1.6,25,-38.1734,325.052,947.695,-0.336108,-0.391842,-1.60866,
2026_07_06_19_05_28.468,3.854,45.1,0,0.77,0,0,0,0, ,0,0,0,0,0, ,-38.8,324.8,947.5,-0.2,-0.5,-1.7,25,-38.1872,325.061,947.723,-0.327814,-0.395386,-1.61118,
2026_07_06_19_05_28.483,3.854,45.1,0,0.771,0,0,0,0, ,0,0,0,0,0, ,-38.3,323.6,947.2,-0.2,-0.4,-1.6,25,-38.2093,325.009,947.7,-0.320025,-0.398714,-1.61354,
2026_07_06_19_05_28.506,3.854,45.1,0,0.77,0,0,0,0, ,0,0,0,0,0, ,-37.1,323.2,948.3,-0.2,-0.4,-1.6,25,-38.1783,324.911,947.703,-0.312711,-0.398792,-1.61272,
2026_07_06_19_05_28.524,3.854,45.1,0,0.77,0,0,0,0, ,0,0,0,0,0, ,-38.8,325,948.2,-0.3,-0.4,-1.6,25,-38.1644,324.861,947.736,-0.30889,-0.398866,-1.61194,
2026_07_06_19_05_28.547,3.854,45,0,0.77,0,0,0,0, ,0,0,0,0,0, ,-38.4,324.4,945.9,-0.2,-0.4,-1.7,25,-38.1909,324.852,947.694,-0.305301,-0.398935,-1.61426,
2026_07_06_19_05_28.562,3.854,45.1,0,0.77,0,0,0,0, ,0,0,0,0,0, ,-38.4,322.2,948.3,-0.3,-0.3,-1.7,25,-38.2037,324.757,947.658,-0.301931,-0.395953,-1.61949,
2026_07_06_19_05_28.592,3.854,45,0,0.771,0,0,0,0, ,0,0,0,0,0, ,-38.8,324.7,948.1,-0.3,-0.4,-1.6,25,-38.2278,324.677,947.691,-0.301813,-0.393153,-1.62135,
2026_07_06_19_05_28.603,3.854,45,0,0.77,0,0,0,0, ,0,0,0,0,0, ,-38.4,324,947.9,-0.3,-0.4,-1.6,25,-38.2505,324.657,947.71,-0.301703,-0.39357,-1.62005,
2026_07_06_19_05_28.626,3.854,45,0,0.771,0,0,0,0, ,0,0,0,0,0, ,-38.5,324.9,947,-0.4,-0.4,-1.6,25,-38.2627,324.645,947.694,-0.304646,-0.393962,-1.61882,
2026_07_06_19_05_28.643,3.854,45.1,0,0.771,0,0,0,0, ,0,0,0,0,0, ,-39.1,326.4,946.8,-0.4,-0.4,-1.6,25,-38.2954,324.706,947.646,-0.310457,-0.39433,-1.61768,
2026_07_06_19_05_28.664,3.854,45,0,0.77,0,0,0,0, ,0,0,0,0,0, ,-38,325.9,947.9,-0.4,-0.3,-1.7,25,-38.3109,324.794,947.628,-0.315913,-0.391628,-1.61965,
2026_07_06_19_05_28.683,3.854,45,0,0.77,0,0,0,0, ,0,0,0,0,0, ,-38.4,325.6,947.3,-0.2,-0.4,-1.7,25,-38.3042,324.852,947.626,-0.314944,-0.389092,-1.62454,
2026_07_06_19_05_28.703,3.854,45,0,0.768,0,0,0,0, ,0,0,0,0,0, ,-37.7,326,948.4,-0.4,-0.4,-1.6,25,-38.2887,324.91,947.64,-0.314033,-0.389756,-1.62609,
2026_07_06_19_05_28.722,3.854,45,0,0.77,0,0,0,0, ,0,0,0,0,0, ,-37.9,325,949.4,-0.3,-0.4,-1.6,25,-38.2589,324.946,947.717,-0.316225,-0.390381,-1.6245,
2026_07_06_19_05_28.743,3.854,45,0,0.771,0,0,0,0, ,0,0,0,0,0, ,-38.2,325.4,946.6,-0.2,-0.3,-1.7,25,-38.2462,324.961,947.734,-0.312189,-0.38792,-1.62606,
2026_07_06_19_05_28.761,3.854,44.9,0,0.77,0,0,0,0, ,0,0,0,0,0, ,-38.2,325.6,947.9,-0.1,-0.4,-1.6,25,-38.2434,324.994,947.704,-0.302306,-0.385609,-1.62752,
2026_07_06_19_05_28.784,3.854,45,0,0.771,0,0,0,0, ,0,0,0,0,0, ,-38.5,323.9,947.5,-0.2,-0.4,-1.6,25,-38.2499,324.979,947.704,-0.293025,-0.386486,-1.62584,
2026_07_06_19_05_28.800,3.854,44.9,0,0.771,0,0,0,0, ,0,0,0,0,0, ,-38.4,324.8,945.1,-0.2,-0.4,-1.6,25,-38.2621,324.941,947.619,-0.287356,-0.38731,-1.62427,
2026_07_06_19_05_28.823,3.854,44.9,0,0.77,0,0,0,0, ,0,0,0,0,0, ,-37.1,324.4,948.7,-0.2,-0.4,-1.6,25,-38.2308,324.92,947.575,-0.282033,-0.388083,-1.62279,
2026_07_06_19_05_28.841,3.854,44.9,0,0.771,0,0,0,0, ,0,0,0,0,0, ,-37.2,325,947.2,-0.3,-0.4,-1.7,25,-38.165,324.907,947.598,-0.280081,-0.388809,-1.62445,
2026_07_06_19_05_28.862,3.854,44.9,0,0.77,0,0,0,0, ,0,0,0,0,0, ,-39,324.9,947.1,-0.2,-0.4,-1.6,25,-38.161,324.909,947.57,-0.278248,-0.389491,-1.626,
2026_07_06_19_05_28.881,3.854,44.9,0,0.771,0,0,0,0, ,0,0,0,0,0, ,-39.1,324.8,946.7,-0.2,-0.4,-1.6,25,-38.2152,324.906,947.529,-0.273479,-0.390132,-1.62442,
2026_07_06_19_05_28.902,3.854,45,0,0.77,0,0,0,0, ,0,0,0,0,0, ,-38.5,325,947.6,-0.3,-0.4,-1.7,25,-38.2508,324.906,947.506,-0.272049,-0.390733,-1.62598,
2026_07_06_19_05_28.918,3.854,44.9,0,0.77,0,0,0,0, ,0,0,0,0,0, ,-37.7,323.9,948.9,-0.2,-0.4,-1.6,25,-38.2416,324.878,947.552,-0.270705,-0.391298,-1.62744,
2026_07_06_19_05_28.948,3.854,44.9,0,0.771,0,0,0,0, ,0,0,0,0,0, ,-37.9,322.8,947.3,-0.2,-0.4,-1.6,25,-38.2147,324.785,947.585,-0.266396,-0.391828,-1.62577,
2026_07_06_19_05_28.959,3.854,44.9,0,0.771,0,0,0,0, ,0,0,0,0,0, ,-39.5,324.4,946.6,-0.3,-0.4,-1.7,25,-38.2443,324.712,947.546,-0.265397,-0.392326,-1.62725,
2026_07_06_19_05_28.982,3.854,44.9,0,0.771,0,0,0,0, ,0,0,0,0,0, ,-37.9,324.2,946.4,-0.1,-0.4,-1.7,25,-38.2721,324.687,947.483,-0.261412,-0.392794,-1.63168,
2026_07_06_19_05_28.999,3.854,44.9,0,0.77,0,0,0,0, ,0,0,0,0,0, ,-37.9,325.4,948.8,-0.2,-0.3,-1.6,25,-38.2494,324.694,947.49,-0.254623,-0.390186,-1.6328,
2026_07_06_19_05_29.022,3.854,44.9,0,0.77,0,0,0,0, ,0,0,0,0,0, ,-39.3,323.9,947.2,-0.3,-0.4,-1.6,25,-38.2708,324.691,947.521,-0.254341,-0.387737,-1.6308,
2026_07_06_19_05_29.038,3.854,44.8,0,0.77,0,0,0,0, ,0,0,0,0,0, ,-37.8,323.6,948.1,-0.3,-0.3,-1.6,25,-38.2878,324.634,947.529,-0.257124,-0.385437,-1.62892,
2026_07_06_19_05_29.062,3.854,44.8,0,0.77,0,0,0,0, ,0,0,0,0,0, ,-37.7,323.6,948.1,-0.3,-0.4,-1.6,25,-38.255,324.571,947.564,-0.259736,-0.383278,-1.62716,
2026_07_06_19_05_29.079,3.854,44.9,0,0.77,0,0,0,0, ,0,0,0,0,0, ,-39.4,323.3,947.3,-0.2,-0.4,-1.6,25,-38.273,324.503,947.572,-0.259143,-0.384297,-1.6255,
2026_07_06_19_05_29.101,3.854,44.8,0,0.77,0,0,0,0, ,0,0,0,0,0, ,-37.7,323.3,947,-0.3,-0.4,-1.6,25,-38.2899,324.429,947.546,-0.258586,-0.385254,-1.62395,
2026_07_06_19_05_29.118,3.854,44.9,0,0.771,0,0,0,0, ,0,0,0,0,0, ,-38.3,323.8,946.7,-0.4,-0.4,-1.6,25,-38.2722,324.376,947.504,-0.264156,-0.386152,-1.62249,
2026_07_06_19_05_29.140,3.854,44.8,0,0.771,0,0,0,0, ,0,0,0,0,0, ,-37.3,323.4,946.4,-0.3,-0.4,-1.6,25,-38.2434,324.329,947.446,-0.269388,-0.386996,-1.62112,
2026_07_06_19_05_29.157,3.854,44.9,0,0.77,0,0,0,0, ,0,0,0,0,0, ,-37.3,324.4,947.9,-0.2,-0.4,-1.6,25,-38.1859,324.302,947.428,-0.268206,-0.387789,-1.61983,
2026_07_06_19_05_29.181,3.854,44.8,0,0.77,0,0,0,0, ,0,0,0,0,0, ,-37.9,323.6,945.6,-0.2,-0.4,-1.6,25,-38.1502,324.284,947.386,-0.26405,-0.388533,-1.61862,
2026_07_06_19_05_29.197,3.854,44.9,0,0.768,0,0,0,0, ,0,0,0,0,0, ,-37.5,323.3,947.8,-0.4,-0.4,-1.7,25,-38.1228,324.233,947.344,-0.266241,-0.389232,-1.62054,
2026_07_06_19_05_29.219,3.854,44.8,0,0.771,0,0,0,0, ,0,0,0,0,0, ,-38.2,323.1,947.7,-0.4,-0.5,-1.7,25,-38.1062,324.17,947.369,-0.274391,-0.392935,-1.62538,
2026_07_06_19_05_29.237,3.854,44.9,0,0.77,0,0,0,0, ,0,0,0,0,0, ,-38.3,324.2,948.6,-0.2,-0.4,-1.6,25,-38.1149,324.139,947.417,-0.275952,-0.396412,-1.62688,
2026_07_06_19_05_29.259,3.854,44.8,0,0.77,0,0,0,0, ,0,0,0,0,0, ,-38.2,323.1,948.6,-0.3,-0.3,-1.7,25,-38.1232,324.109,947.489,-0.274371,-0.393584,-1.62829,
2026_07_06_19_05_29.276,3.854,44.8,0,0.768,0,0,0,0, ,0,0,0,0,0, ,-38.9,325.1,947.8,-0.3,-0.4,-1.6,25,-38.1492,324.108,947.532,-0.275932,-0.390928,-1.62961,
2026_07_06_19_05_29.299,3.854,44.8,0,0.77,0,0,0,0, ,0,0,0,0,0, ,-38.5,324.2,946.5,-0.4,-0.4,-1.7,25,-38.1827,324.141,947.509,-0.280446,-0.391481,-1.63085,
2026_07_06_19_05_29.315,3.854,44.7,0,0.769,0,0,0,0, ,0,0,0,0,0, ,-37.9,323.6,949.2,-0.3,-0.4,-1.6,25,-38.1838,324.127,947.53,-0.284684,-0.392,-1.63202,
2026_07_06_19_05_29.339,3.854,44.8,0,0.77,0,0,0,0, ,0,0,0,0,0, ,-38.3,325.3,947.9,-0.4,-0.4,-1.6,25,-38.1787,324.146,947.592,-0.288664,-0.392487,-1.63007,
2026_07_06_19_05_29.355,3.854,44.8,0,0.77,0,0,0,0, ,0,0,0,0,0, ,-38.2,326.5,947.1,-0.3,-0.3,-1.6,25,-38.183,324.253,947.586,-0.292402,-0.389898,-1.62824,
2026_07_06_19_05_29.377,3.854,44.8,0,0.77,0,0,0,0, ,0,0,0,0,0, ,-37.8,324.2,947.6,-0.3,-0.3,-1.6,25,-38.1719,324.32,947.572,-0.292865,-0.38442,-1.62652,
2026_07_06_19_05_29.395,3.854,44.7,0,0.77,0,0,0,0, ,0,0,0,0,0, ,-38,326.1,947.5,-0.3,-0.3,-1.7,25,-38.1553,324.371,947.571,-0.2933,-0.379276,-1.62795,
2026_07_06_19_05_29.417,3.854,44.8,0,0.769,0,0,0,0, ,0,0,0,0,0, ,-38.5,324.3,947.7,-0.2,-0.4,-1.7,25,-38.1611,324.421,947.572,-0.290661,-0.377492,-1.63234,
2026_07_06_19_05_29.435,3.854,44.7,0,0.77,0,0,0,0, ,0,0,0,0,0, ,-37.7,325.1,948.4,-0.2,-0.4,-1.6,25,-38.1574,324.438,947.601,-0.285137,-0.378863,-1.63341,
2026_07_06_19_05_29.458,3.854,44.7,0,0.77,0,0,0,0, ,0,0,0,0,0, ,-38.2,324.7,948.3,-0.2,-0.4,-1.6,25,-38.1447,324.466,947.647,-0.279949,-0.380151,-1.63138,
2026_07_06_19_05_29.474,3.854,44.7,0,0.77,0,0,0,0, ,0,0,0,0,0, ,-38,323.3,946.6,-0.3,-0.3,-1.7,25,-38.142,324.438,947.635,-0.278124,-0.378314,-1.63251,
2026_07_06_19_05_29.497,3.854,44.7,0,0.768,0,0,0,0, ,0,0,0,0,0, ,-37.2,324.9,947,-0.3,-0.4,-1.6,25,-38.109,324.417,947.584,-0.279457,-0.376589,-1.63358,
2026_07_06_19_05_29.513,3.854,44.7,0,0.772,0,0,0,0, ,0,0,0,0,0, ,-38.5,324.4,947.3,-0.2,-0.4,-1.6,25,-38.0932,324.431,947.558,-0.277662,-0.378015,-1.63153,
2026_07_06_19_05_29.537,3.854,44.7,0,0.769,0,0,0,0, ,0,0,0,0,0, ,-38.6,324.4,947.2,-0.2,-0.4,-1.7,25,-38.121,324.43,947.539,-0.272929,-0.379355,-1.63266,
2026_07_06_19_05_29.554,3.854,44.7,0,0.77,0,0,0,0, ,0,0,0,0,0, ,-37.7,323.8,947.5,-0.2,-0.4,-1.6,25,-38.1228,324.409,947.527,-0.268485,-0.380613,-1.63371,
2026_07_06_19_05_29.577,3.854,44.6,0,0.768,0,0,0,0, ,0,0,0,0,0, ,-38.9,325,947.9,-0.3,-0.3,-1.6,25,-38.1336,324.409,947.538,-0.267359,-0.378748,-1.63166,
2026_07_06_19_05_29.593,3.854,44.7,0,0.77,0,0,0,0, ,0,0,0,0,0, ,-37.1,323.8,948.2,-0.2,-0.4,-1.7,25,-38.1254,324.408,947.569,-0.266301,-0.376996,-1.63278,
2026_07_06_19_05_29.617,3.854,44.6,0,0.767,0,0,0,0, ,0,0,0,0,0, ,-37.7,323.8,948.3,-0.1,-0.4,-1.7,25,-38.0812,324.371,947.611,-0.259214,-0.378398,-1.63687,
2026_07_06_19_05_29.633,3.854,44.6,0,0.771,0,0,0,0, ,0,0,0,0,0, ,-38.4,324.3,948.4,-0.2,-0.4,-1.7,25,-38.0793,324.352,947.656,-0.252559,-0.379714,-1.64072,
2026_07_06_19_05_29.656,3.854,44.7,0,0.769,0,0,0,0, ,0,0,0,0,0, ,-37.4,323.9,948.7,-0.2,-0.3,-1.6,25,-38.0684,324.336,947.71,-0.249356,-0.377903,-1.64129,
2026_07_06_19_05_29.673,3.854,44.6,0,0.77,0,0,0,0, ,0,0,0,0,0, ,-38.5,323.7,948.1,-0.2,-0.4,-1.6,25,-38.0612,324.304,947.752,-0.246348,-0.376203,-1.63877,
2026_07_06_19_05_29.696,3.854,44.6,0,0.77,0,0,0,0, ,0,0,0,0,0, ,-39.1,324.3,948.2,-0.1,-0.4,-1.6,25,-38.1062,324.285,947.776,-0.240477,-0.377653,-1.63641,
2026_07_06_19_05_29.712,3.854,44.6,0,0.77,0,0,0,0, ,0,0,0,0,0, ,-37.9,324,946.8,-0.3,-0.4,-1.6,25,-38.1302,324.277,947.76,-0.23801,-0.379015,-1.63419,
2026_07_06_19_05_29.734,3.854,44.5,0,0.769,0,0,0,0, ,0,0,0,0,0, ,-38.2,324.9,947.7,-0.2,-0.4,-1.7,25,-38.1253,324.287,947.729,-0.238741,-0.380294,-1.63515,
2026_07_06_19_05_29.751,3.854,44.6,0,0.77,0,0,0,0, ,0,0,0,0,0, ,-37.4,323.3,947.2,-0.2,-0.4,-1.6,25,-38.1055,324.276,947.712,-0.23638,-0.381494,-1.63606,
2026_07_06_19_05_29.775,3.854,44.6,0,0.768,0,0,0,0, ,0,0,0,0,0, ,-37.7,323.9,948.1,-0.1,-0.3,-1.6,25,-38.0716,324.235,947.708,-0.231116,-0.379575,-1.63386,
2026_07_06_19_05_29.791,3.854,44.6,0,0.77,0,0,0,0, ,0,0,0,0,0, ,-37.2,324.9,947.1,-0.2,-0.4,-1.6,25,-38.0338,324.245,947.701,-0.226173,-0.377773,-1.6318,
2026_07_06_19_05_29.815,3.854,44.6,0,0.768,0,0,0,0, ,0,0,0,0,0, ,-38.5,324.8,945.5,-0.2,-0.3,-1.6,25,-38.0226,324.282,947.616,-0.224578,-0.376081,-1.62986,
