UTC_Time,Vin,TC1,TC2,Rh1,Vh1,Ah1,Acp1,Dty1,Err1,Rh2,Vh2,Ah2,Acp2,Dty2,Err2,Accel_x,Accel_y,Accel_z,gyro_x,gyro_y,gyro_z,Temp_c,Accel_x_h,Accel_y_h,Accel_z_h,gyro_x_h,gyro_y_h,gyro_z_h,
2026_07_06_19_06_58.827,3.854,32.7,0,0.759,0,0,0,0, ,0,0,0,0,0, ,-37.9,324.2,947.7,-0.3,-0.4,-1.6,25,-37.9,324.2,947.7,-0.3,-0.4,-1.6,
2026_07_06_19_06_58.847,3.854,32.6,0,0.76,0,0,0,0, ,0,0,0,0,0, ,-37.7,325.3,947,-0.4,-0.4,-1.6,25,-37.8939,324.234,947.679,-0.303047,-0.4,-1.6,
2026_07_06_19_06_58.867,3.854,32.6,0,0.759,0,0,0,0, ,0,0,0,0,0, ,-38,325.5,947,-0.4,-0.4,-1.6,25,-37.8912,324.305,947.637,-0.308955,-0.4,-1.6,
2026_07_06_19_06_58.887,3.854,32.6,0,0.76,0,0,0,0, ,0,0,0,0,0, ,-38.9,325.3,946.6,-0.3,-0.5,-1.6,25,-37.9253,324.371,947.586,-0.311456,-0.403047,-1.6,
2026_07_06_19_06_58.905,3.854,32.5,0,0.76,0,0,0,0, ,0,0,0,0,0, ,-38.2,323.4,947,-0.3,-0.4,-1.6,25,-37.9634,324.37,947.538,-0.310758,-0.405908,-1.6,
2026_07_06_19_06_58.926,3.854,32.6,0,0.76,0,0,0,0, ,0,0,0,0,0, ,-38.3,323.1,946.2,-0.5,-0.4,-1.6,25,-37.9808,324.302,947.481,-0.316196,-0.405548,-1.6,
2026_07_06_19_06_58.946,3.854,32.6,0,0.762,0,0,0,0, ,0,0,0,0,0, ,-38,324.4,948.3,-0.5,-0.4,-1.6,25,-37.9911,324.268,947.467,-0.327397,-0.40521,-1.6,
2026_07_06_19_06_58.966,3.854,32.6,0,0.761,0,0,0,0, ,0,0,0,0,0, ,-38.6,324.8,946.8,-0.4,-0.4,-1.7,25,-38.0099,324.288,947.472,-0.334868,-0.404892,-1.60305,
2026_07_06_19_06_58.986,3.854,32.5,0,0.76,0,0,0,0, ,0,0,0,0,0, ,-38,324.5,946.8,-0.3,-0.4,-1.7,25,-38.0276,324.31,947.431,-0.33579,-0.404594,-1.60895,
2026_07_06_19_06_59.005,3.854,32.6,0,0.761,0,0,0,0, ,0,0,0,0,0, ,-38.6,323.9,947,-0.3,-0.4,-1.6,25,-38.0442,324.304,947.399,-0.333609,-0.404314,-1.61146,
2026_07_06_19_06_59.025,3.854,32.6,0,0.761,0,0,0,0, ,0,0,0,0,0, ,-37.5,324.5,946.8,-0.3,-0.4,-1.6,25,-38.0446,324.297,947.368,-0.331561,-0.404051,-1.61076,
2026_07_06_19_06_59.045,3.854,32.5,0,0.761,0,0,0,0, ,0,0,0,0,0, ,-37.3,323.3,947.2,-0.3,-0.4,-1.6,25,-38.0053,324.273,947.346,-0.329638,-0.403805,-1.6101,
2026_07_06_19_06_59.065,3.854,32.5,0,0.76,0,0,0,0, ,0,0,0,0,0, ,-38.9,324.9,946.5,-0.3,-0.4,-1.6,25,-38.0111,324.263,947.316,-0.327832,-0.403573,-1.60949,
2026_07_06_19_06_59.084,3.854,32.6,0,0.763,0,0,0,0, ,0,0,0,0,0, ,-37.4,324.9,947.7,-0.2,-0.5,-1.6,25,-38.0195,324.301,947.303,-0.323089,-0.406402,-1.60891,
2026_07_06_19_06_59.105,3.854,32.5,0,0.76,0,0,0,0, ,0,0,0,0,0, ,-38.6,324.8,948.1,-0.1,-0.4,-1.6,25,-38.0183,324.335,947.339,-0.312541,-0.409059,-1.60837,
2026_07_06_19_06_59.126,3.854,32.5,0,0.761,0,0,0,0, ,0,0,0,0,0, ,-38,323.6,947.2,-0.3,-0.4,-1.7,25,-38.0355,324.327,947.358,-0.305683,-0.408507,-1.6109,
2026_07_06_19_06_59.143,3.854,32.6,0,0.761,0,0,0,0, ,0,0,0,0,0, ,-38.6,326,948.3,-0.3,-0.4,-1.6,25,-38.0516,324.356,947.382,-0.305337,-0.407988,-1.61329,
2026_07_06_19_06_59.164,3.854,32.5,0,0.761,0,0,0,0, ,0,0,0,0,0, ,-38.9,325.8,945.4,-0.2,-0.4,-1.7,25,-38.0942,324.45,947.349,-0.301965,-0.407502,-1.61552,
2026_07_06_19_06_59.183,3.854,32.6,0,0.763,0,0,0,0, ,0,0,0,0,0, ,-38.5,325.5,945.9,-0.3,-0.4,-1.6,25,-38.1311,324.523,947.246,-0.298798,-0.407044,-1.61762,
2026_07_06_19_06_59.203,3.854,32.6,0,0.763,0,0,0,0, ,0,0,0,0,0, ,-39.7,324.4,945.6,-0.4,-0.4,-1.6,25,-38.1901,324.549,947.155,-0.301918,-0.406615,-1.61655,
2026_07_06_19_06_59.223,3.854,32.6,0,0.761,0,0,0,0, ,0,0,0,0,0, ,-37.3,324.8,947.8,-0.4,-0.4,-1.7,25,-38.209,324.552,947.127,-0.307895,-0.406212,-1.61859,
2026_07_06_19_06_59.243,3.854,32.6,0,0.76,0,0,0,0, ,0,0,0,0,0, ,-37.3,325,947.2,-0.6,-0.4,-1.6,25,-38.1536,324.573,947.15,-0.319602,-0.405833,-1.6205,
2026_07_06_19_06_59.262,3.854,32.6,0,0.76,0,0,0,0, ,0,0,0,0,0, ,-38.4,324.3,948.8,-0.5,-0.4,-1.7,25,-38.1351,324.578,947.202,-0.333641,-0.405478,-1.6223,
2026_07_06_19_06_59.282,3.854,32.6,0,0.76,0,0,0,0, ,0,0,0,0,0, ,-37.4,323.8,947.5,-0.3,-0.4,-1.7,25,-38.1208,324.546,947.259,-0.337685,-0.405144,-1.62703,
2026_07_06_19_06_59.303,3.854,32.6,0,0.761,0,0,0,0, ,0,0,0,0,0, ,-38.5,324.2,947.3,-0.2,-0.4,-1.6,25,-38.1104,324.512,947.268,-0.332342,-0.404831,-1.62843,
2026_07_06_19_06_59.322,3.854,32.6,0,0.76,0,0,0,0, ,0,0,0,0,0, ,-35.8,322.9,946.5,-0.4,-0.4,-1.6,25,-38.0519,324.454,947.246,-0.330371,-0.404536,-1.6267,
2026_07_06_19_06_59.341,3.854,32.6,0,0.76,0,0,0,0, ,0,0,0,0,0, ,-35.8,325.4,946.7,-0.1,-0.4,-1.6,25,-37.9146,324.435,947.206,-0.325473,-0.40426,-1.62507,
2026_07_06_19_06_59.362,3.854,32.6,0,0.761,0,0,0,0, ,0,0,0,0,0, ,-38,324.9,948.6,-0.4,-0.4,-1.6,25,-37.8528,324.479,947.233,-0.320874,-0.404,-1.62355,
2026_07_06_19_06_59.382,3.854,32.6,0,0.761,0,0,0,0, ,0,0,0,0,0, ,-37.9,323.6,946,-0.4,-0.4,-1.6,25,-37.8587,324.465,947.237,-0.325696,-0.403757,-1.62211,
2026_07_06_19_06_59.401,3.854,32.6,0,0.761,0,0,0,0, ,0,0,0,0,0, ,-38,324.4,947.7,-0.5,-0.4,-1.7,25,-37.8643,324.437,947.214,-0.333271,-0.403528,-1.62381,
2026_07_06_19_06_59.420,3.854,32.5,0,0.763,0,0,0,0, ,0,0,0,0,0, ,-37.1,325.4,945.1,-0.5,-0.5,-1.7,25,-37.8451,324.465,947.164,-0.343431,-0.40636,-1.62845,
2026_07_06_19_06_59.441,3.854,32.6,0,0.759,0,0,0,0, ,0,0,0,0,0, ,-38.9,324.4,945.9,-0.3,-0.4,-1.7,25,-37.8546,324.491,947.063,-0.346878,-0.409019,-1.63281,
2026_07_06_19_06_59.460,3.854,32.6,0,0.76,0,0,0,0, ,0,0,0,0,0, ,-37.4,323.3,947.6,-0.4,-0.4,-1.7,25,-37.8726,324.452,947.044,-0.347068,-0.408469,-1.63691,
2026_07_06_19_06_59.485,3.854,32.6,0,0.762,0,0,0,0, ,0,0,0,0,0, ,-39.3,324,947.3,-0.5,-0.4,-1.7,25,-37.9017,324.403,947.068,-0.353341,-0.407953,-1.64075,
2026_07_06_19_06_59.501,3.854,32.6,0,0.76,0,0,0,0, ,0,0,0,0,0, ,-39,325.1,946.8,-0.4,-0.4,-1.7,25,-37.9777,324.412,947.067,-0.359231,-0.407469,-1.64436,
2026_07_06_19_06_59.520,3.854,32.6,0,0.762,0,0,0,0, ,0,0,0,0,0, ,-38.5,324.4,946.7,-0.3,-0.4,-1.7,25,-38.0248,324.433,947.048,-0.358668,-0.407013,-1.64775,
2026_07_06_19_06_59.541,3.854,32.5,0,0.762,0,0,0,0, ,0,0,0,0,0, ,-38.6,324.2,947.5,-0.2,-0.4,-1.7,25,-38.0568,324.425,947.051,-0.352046,-0.406586,-1.65094,
2026_07_06_19_06_59.560,3.854,32.6,0,0.762,0,0,0,0, ,0,0,0,0,0, ,-37.8,324.4,946.1,-0.2,-0.4,-1.6,25,-38.0655,324.417,947.036,-0.342781,-0.406185,-1.65088,
2026_07_06_19_06_59.579,3.854,32.6,0,0.76,0,0,0,0, ,0,0,0,0,0, ,-38,323.1,947.2,-0.3,-0.4,-1.7,25,-38.0554,324.376,947.012,-0.337127,-0.405808,-1.65083,
2026_07_06_19_06_59.599,3.854,32.6,0,0.763,0,0,0,0, ,0,0,0,0,0, ,-37.9,326.2,946,-0.3,-0.5,-1.6,25,-38.049,324.393,946.987,-0.334865,-0.408501,-1.65078,
2026_07_06_19_06_59.619,3.854,32.6,0,0.761,0,0,0,0, ,0,0,0,0,0, ,-38.8,324.3,948.3,-0.2,-0.4,-1.6,25,-38.0674,324.445,946.997,-0.329693,-0.41103,-1.64768,
2026_07_06_19_06_59.639,3.854,32.6,0,0.76,0,0,0,0, ,0,0,0,0,0, ,-37.4,325.6,946.1,-0.2,-0.4,-1.7,25,-38.0694,324.476,947.009,-0.32179,-0.410358,-1.64782,
2026_07_06_19_06_59.664,3.854,32.5,0,0.763,0,0,0,0, ,0,0,0,0,0, ,-38.8,324.4,946.4,-0.2,-0.4,-1.7,25,-38.0712,324.508,946.963,-0.314369,-0.409726,-1.651,
2026_07_06_19_06_59.678,3.854,32.5,0,0.761,0,0,0,0, ,0,0,0,0,0, ,-37.3,325.3,947.8,-0.3,-0.5,-1.6,25,-38.0699,324.529,946.972,-0.310446,-0.412181,-1.65094,
2026_07_06_19_06_59.699,3.854,32.6,0,0.761,0,0,0,0, ,0,0,0,0,0, ,-37.2,325.9,946.7,-0.5,-0.4,-1.6,25,-38.02,324.594,946.988,-0.315903,-0.414485,-1.64784,
2026_07_06_19_06_59.718,3.854,32.5,0,0.76,0,0,0,0, ,0,0,0,0,0, ,-37.9,325.3,945.9,-0.4,-0.4,-1.7,25,-37.9913,324.655,946.947,-0.324075,-0.413602,-1.64797,
2026_07_06_19_06_59.738,3.854,32.6,0,0.76,0,0,0,0, ,0,0,0,0,0, ,-37.7,325.4,946.7,-0.4,-0.4,-1.6,25,-37.9797,324.698,946.907,-0.328701,-0.412774,-1.64809,
2026_07_06_19_06_59.757,3.854,32.7,0,0.76,0,0,0,0, ,0,0,0,0,0, ,-38.6,324.7,947.9,-0.4,-0.5,-1.7,25,-37.99,324.719,946.931,-0.333046,-0.415042,-1.64821,
2026_07_06_19_06_59.778,3.854,32.5,0,0.758,0,0,0,0, ,0,0,0,0,0, ,-39.7,324.3,946.5,-0.6,-0.4,-1.7,25,-38.0607,324.706,946.947,-0.34322,-0.417172,-1.65137,
2026_07_06_19_06_59.798,3.854,32.6,0,0.76,0,0,0,0, ,0,0,0,0,0, ,-37.4,324,946.5,-0.5,-0.4,-1.7,25,-38.0905,324.672,946.92,-0.355821,-0.416126,-1.65433,
2026_07_06_19_06_59.818,3.854,32.6,0,0.762,0,0,0,0, ,0,0,0,0,0, ,-36.9,325.1,947,-0.4,-0.4,-1.7,25,-38.0332,324.665,946.91,-0.36156,-0.415143,-1.65711,
2026_07_06_19_06_59.845,3.854,32.5,0,0.763,0,0,0,0, ,0,0,0,0,0, ,-38.5,323.9,948.7,-0.3,-0.3,-1.6,25,-38.0129,324.655,946.967,-0.360855,-0.411174,-1.65668,
2026_07_06_19_06_59.857,3.854,32.5,0,0.762,0,0,0,0, ,0,0,0,0,0, ,-39.3,324.2,946.7,-0.3,-0.5,-1.6,25,-38.067,324.618,947.012,-0.357147,-0.410493,-1.65322,
2026_07_06_19_06_59.876,3.854,32.5,0,0.76,0,0,0,0, ,0,0,0,0,0, ,-39.1,324.5,946.5,-0.3,-0.4,-1.7,25,-38.136,324.601,946.987,-0.353665,-0.4129,-1.65303,
2026_07_06_19_06_59.896,3.854,32.6,0,0.764,0,0,0,0, ,0,0,0,0,0, ,-38,324.3,945.8,-0.3,-0.4,-1.7,25,-38.1613,324.589,946.936,-0.350394,-0.412114,-1.65589,
2026_07_06_19_06_59.917,3.854,32.5,0,0.763,0,0,0,0, ,0,0,0,0,0, ,-38.3,324,945.9,-0.1,-0.4,-1.6,25,-38.1606,324.562,946.87,-0.34123,-0.411376,-1.65553,
2026_07_06_19_06_59.937,3.854,32.5,0,0.762,0,0,0,0, ,0,0,0,0,0, ,-38.8,324.5,948.1,-0.1,-0.4,-1.6,25,-38.1843,324.543,946.877,-0.32653,-0.410683,-1.65215,
2026_07_06_19_06_59.956,3.854,32.6,0,0.761,0,0,0,0, ,0,0,0,0,0, ,-38.4,324,947.1,-0.2,-0.4,-1.7,25,-38.2096,324.525,946.922,-0.315772,-0.410032,-1.65202,
2026_07_06_19_06_59.976,3.854,32.6,0,0.76,0,0,0,0, ,0,0,0,0,0, ,-38.8,325,946.7,-0.3,-0.4,-1.7,25,-38.2334,324.524,946.92,-0.311764,-0.40942,-1.65494,
2026_07_06_19_06_59.996,3.854,32.5,0,0.761,0,0,0,0, ,0,0,0,0,0, ,-38.5,325.3,946.1,-0.2,-0.4,-1.6,25,-38.2588,324.562,946.889,-0.308001,-0.408846,-1.65464,
2026_07_06_19_07_00.015,3.854,32.6,0,0.762,0,0,0,0, ,0,0,0,0,0, ,-37.5,324.5,946.5,-0.2,-0.4,-1.6,25,-38.243,324.583,946.853,-0.301419,-0.408307,-1.65131,
2026_07_06_19_07_00.035,3.854,32.6,0,0.762,0,0,0,0, ,0,0,0,0,0, ,-38.4,324.2,946,-0.4,-0.4,-1.7,25,-38.2252,324.568,946.816,-0.301333,-0.407801,-1.65123,
2026_07_06_19_07_00.055,3.854,32.6,0,0.761,0,0,0,0, ,0,0,0,0,0, ,-38.2,325,946.6,-0.3,-0.4,-1.6,25,-38.2297,324.57,946.784,-0.304299,-0.407326,-1.65116,
2026_07_06_19_07_00.074,3.854,32.6,0,0.761,0,0,0,0, ,0,0,0,0,0, ,-38.2,323.6,947,-0.2,-0.4,-1.7,25,-38.2279,324.554,946.785,-0.30099,-0.406879,-1.65108,
2026_07_06_19_07_00.095,3.854,32.5,0,0.76,0,0,0,0, ,0,0,0,0,0, ,-38.6,325.3,946.6,-0.3,-0.4,-1.6,25,-38.2384,324.548,946.786,-0.297883,-0.40646,-1.65102,
2026_07_06_19_07_00.113,3.854,32.5,0,0.761,0,0,0,0, ,0,0,0,0,0, ,-38.9,323.7,945.9,-0.2,-0.4,-1.7,25,-38.2696,324.545,946.754,-0.294965,-0.406066,-1.65096,
2026_07_06_19_07_00.134,3.854,32.5,0,0.761,0,0,0,0, ,0,0,0,0,0, ,-38,324.8,947.6,-0.3,-0.4,-1.7,25,-38.2806,324.527,946.753,-0.292225,-0.405697,-1.65395,
2026_07_06_19_07_00.154,3.854,32.5,0,0.761,0,0,0,0, ,0,0,0,0,0, ,-38.9,326.2,946.8,-0.3,-0.4,-1.6,25,-38.2909,324.586,946.781,-0.292698,-0.40535,-1.6537,
2026_07_06_19_07_00.174,3.854,32.5,0,0.761,0,0,0,0, ,0,0,0,0,0, ,-38,324.5,948.4,-0.1,-0.4,-1.7,25,-38.3006,324.633,946.831,-0.28705,-0.405024,-1.65348,
2026_07_06_19_07_00.194,3.854,32.6,0,0.761,0,0,0,0, ,0,0,0,0,0, ,-38.5,323.9,947,-0.2,-0.3,-1.6,25,-38.2975,324.606,946.884,-0.278698,-0.401671,-1.65327,
2026_07_06_19_07_00.217,3.854,32.5,0,0.761,0,0,0,0, ,0,0,0,0,0, ,-38.2,325.8,947.7,-0.4,-0.4,-1.7,25,-38.3007,324.621,946.912,-0.279996,-0.398522,-1.65307,
2026_07_06_19_07_00.233,3.854,32.5,0,0.762,0,0,0,0, ,0,0,0,0,0, ,-38.8,325.6,946.4,-0.4,-0.5,-1.6,25,-38.3129,324.687,946.92,-0.287309,-0.401659,-1.65288,
2026_07_06_19_07_00.253,3.854,32.6,0,0.761,0,0,0,0, ,0,0,0,0,0, ,-37.9,326.7,947.5,-0.3,-0.4,-1.6,25,-38.3151,324.776,946.922,-0.291129,-0.404605,-1.64966,
2026_07_06_19_07_00.272,3.854,32.6,0,0.761,0,0,0,0, ,0,0,0,0,0, ,-38,325.6,947,-0.3,-0.4,-1.6,25,-38.2929,324.86,946.942,-0.29167,-0.404324,-1.64663,
2026_07_06_19_07_00.292,3.854,32.5,0,0.762,0,0,0,0, ,0,0,0,0,0, ,-37.7,324.2,947.1,-0.5,-0.4,-1.6,25,-38.2659,324.862,946.949,-0.298271,-0.404061,-1.64379,
2026_07_06_19_07_00.312,3.854,32.6,0,0.761,0,0,0,0, ,0,0,0,0,0, ,-38.4,324.3,945.8,-0.5,-0.4,-1.7,25,-38.2527,324.825,946.918,-0.310564,-0.403813,-1.64417,
2026_07_06_19_07_00.331,3.854,32.6,0,0.761,0,0,0,0, ,0,0,0,0,0, ,-38.6,324,946.8,-0.5,-0.4,-1.6,25,-38.2678,324.784,946.881,-0.322108,-0.403581,-1.64452,
2026_07_06_19_07_00.352,3.854,32.6,0,0.763,0,0,0,0, ,0,0,0,0,0, ,-37.5,324.7,947,-0.4,-0.5,-1.7,25,-38.2545,324.757,946.882,-0.329901,-0.406409,-1.64486,
2026_07_06_19_07_00.371,3.854,32.6,0,0.761,0,0,0,0, ,0,0,0,0,0, ,-37.5,324,947.1,-0.3,-0.5,-1.7,25,-38.2085,324.732,946.892,-0.331126,-0.412113,-1.64822,
2026_07_06_19_07_00.392,3.854,32.5,0,0.761,0,0,0,0, ,0,0,0,0,0, ,-38.8,323.6,947.1,-0.3,-0.4,-1.7,25,-38.205,324.676,946.905,-0.329229,-0.414421,-1.65137,
2026_07_06_19_07_00.417,3.854,32.5,0,0.761,0,0,0,0, ,0,0,0,0,0, ,-38.8,323.8,946.6,-0.5,-0.4,-1.7,25,-38.2412,324.616,946.901,-0.333542,-0.413543,-1.65434,
2026_07_06_19_07_00.430,3.854,32.5,0,0.76,0,0,0,0, ,0,0,0,0,0, ,-37.2,324.7,946.1,-0.3,-0.5,-1.6,25,-38.2265,324.594,946.868,-0.337592,-0.415764,-1.65407,
2026_07_06_19_07_00.451,3.854,32.6,0,0.762,0,0,0,0, ,0,0,0,0,0, ,-36.1,323.1,946,-0.1,-0.4,-1.7,25,-38.1305,324.552,946.818,-0.329207,-0.41785,-1.65382,
2026_07_06_19_07_00.470,3.854,32.5,0,0.762,0,0,0,0, ,0,0,0,0,0, ,-37.5,323.4,946.6,-0.2,-0.4,-1.6,25,-38.0494,324.472,946.786,-0.318287,-0.416763,-1.65359,
2026_07_06_19_07_00.491,3.854,32.5,0,0.76,0,0,0,0, ,0,0,0,0,0, ,-39.6,324.5,948.4,-0.2,-0.4,-1.6,25,-38.0799,324.44,946.83,-0.311079,-0.415741,-1.65033,
2026_07_06_19_07_00.510,3.854,32.5,0,0.76,0,0,0,0, ,0,0,0,0,0, ,-38.4,322.5,949,-0.3,-0.4,-1.6,25,-38.136,324.383,946.944,-0.307357,-0.414782,-1.64726,
2026_07_06_19_07_00.530,3.854,32.5,0,0.76,0,0,0,0, ,0,0,0,0,0, ,-38.5,325.4,947,-0.3,-0.4,-1.7,25,-38.1551,324.357,947.008,-0.306908,-0.413881,-1.64743,
2026_07_06_19_07_00.550,3.854,32.5,0,0.76,0,0,0,0, ,0,0,0,0,0, ,-38.3,324.8,946.8,-0.1,-0.4,-1.6,25,-38.17,324.402,947.002,-0.300394,-0.413035,-1.64758,
2026_07_06_19_07_00.569,3.854,32.5,0,0.762,0,0,0,0, ,0,0,0,0,0, ,-37.3,324.3,946.6,-0.2,-0.4,-1.7,25,-38.1475,324.411,946.983,-0.291229,-0.412241,-1.64773,
2026_07_06_19_07_00.588,3.854,32.6,0,0.762,0,0,0,0, ,0,0,0,0,0, ,-38.8,324.9,947.5,-0.3,-0.4,-1.7,25,-38.1415,324.423,946.987,-0.288717,-0.411495,-1.65092,
2026_07_06_19_07_00.614,3.854,32.5,0,0.762,0,0,0,0, ,0,0,0,0,0, ,-38.6,325,946.7,-0.4,-0.5,-1.6,25,-38.1756,324.455,946.994,-0.292451,-0.413841,-1.65086,
2026_07_06_19_07_00.628,3.854,32.6,0,0.762,0,0,0,0, ,0,0,0,0,0, ,-37.5,324.8,946,-0.2,-0.4,-1.7,25,-38.1679,324.482,946.955,-0.292911,-0.416045,-1.65081,
2026_07_06_19_07_00.649,3.854,32.5,0,0.759,0,0,0,0, ,0,0,0,0,0, ,-37.5,325.3,947.9,-0.3,-0.5,-1.6,25,-38.1272,324.516,946.955,-0.290296,-0.418114,-1.65076,
2026_07_06_19_07_00.669,3.854,32.5,0,0.762,0,0,0,0, ,0,0,0,0,0, ,-38.3,324.8,947.2,-0.4,-0.4,-1.7,25,-38.1134,324.549,946.991,-0.293934,-0.420057,-1.65071,
2026_07_06_19_07_00.689,3.854,32.5,0,0.763,0,0,0,0, ,0,0,0,0,0, ,-38.9,325.3,946.6,-0.5,-0.4,-1.7,25,-38.143,324.58,946.985,-0.303445,-0.418835,-1.65372,
2026_07_06_19_07_00.708,3.854,32.5,0,0.76,0,0,0,0, ,0,0,0,0,0, ,-37.3,323.6,946,-0.1,-0.4,-1.7,25,-38.1404,324.572,946.944,-0.303235,-0.417687,-1.65654,
2026_07_06_19_07_00.727,3.854,32.5,0,0.761,0,0,0,0, ,0,0,0,0,0, ,-38.5,323.8,946.8,-0.2,-0.4,-1.7,25,-38.1258,324.519,946.91,-0.293897,-0.416609,-1.65918,
2026_07_06_19_07_00.748,3.854,32.5,0,0.76,0,0,0,0, ,0,0,0,0,0, ,-38.2,325.1,946.4,-0.3,-0.4,-1.6,25,-38.1394,324.514,946.892,-0.291222,-0.415597,-1.65862,
2026_07_06_19_07_00.766,3.854,32.5,0,0.761,0,0,0,0, ,0,0,0,0,0, ,-38,325.8,946.6,-0.3,-0.4,-1.6,25,-38.137,324.571,946.868,-0.291757,-0.414647,-1.65505,
2026_07_06_19_07_00.786,3.854,32.6,0,0.762,0,0,0,0, ,0,0,0,0,0, ,-38.5,326.5,946.7,-0.1,-0.4,-1.6,25,-38.1439,324.668,946.854,-0.286165,-0.413754,-1.6517,
2026_07_06_19_07_00.807,3.854,32.5,0,0.763,0,0,0,0, ,0,0,0,0,0, ,-38.3,324.3,947.3,-0.3,-0.5,-1.6,25,-38.1595,324.712,946.863,-0.280915,-0.415963,-1.64855,
2026_07_06_19_07_00.826,3.854,32.5,0,0.76,0,0,0,0, ,0,0,0,0,0, ,-37.7,326.9,947.7,-0.3,-0.4,-1.6,25,-38.1498,324.766,946.902,-0.282078,-0.418037,-1.64559,
2026_07_06_19_07_00.846,3.854,32.5,0,0.76,0,0,0,0, ,0,0,0,0,0, ,-37.3,324.2,945.8,-0.5,-0.5,-1.6,25,-38.1102,324.814,946.893,-0.289264,-0.419985,-1.64281,
2026_07_06_19_07_00.866,3.854,32.5,0,0.761,0,0,0,0, ,0,0,0,0,0, ,-39.4,324.9,947.2,-0.4,-0.4,-1.7,25,-38.1248,324.798,946.869,-0.299059,-0.421814,-1.64325,
2026_07_06_19_07_00.886,3.854,32.5,0,0.762,0,0,0,0, ,0,0,0,0,0, ,-37.2,324.9,946.7,-0.4,-0.4,-1.6,25,-38.1355,324.804,946.874,-0.30521,-0.420485,-1.64366,
2026_07_06_19_07_00.906,3.854,32.5,0,0.762,0,0,0,0, ,0,0,0,0,0, ,-38.2,323.8,948.3,-0.4,-0.5,-1.7,25,-38.1089,324.776,946.912,-0.310986,-0.422283,-1.64405,
2026_07_06_19_07_00.926,3.854,32.5,0,0.762,0,0,0,0, ,0,0,0,0,0, ,-38.9,323.6,947.1,-0.5,-0.4,-1.8,25,-38.1358,324.711,946.96,-0.319457,-0.423972,-1.6505,
2026_07_06_19_07_00.946,3.854,32.5,0,0.762,0,0,0,0, ,0,0,0,0,0, ,-37.9,324.8,946.6,-0.5,-0.5,-1.6,25,-38.1519,324.68,946.953,-0.330459,-0.425558,-1.65352,
2026_07_06_19_07_00.965,3.854,32.6,0,0.76,0,0,0,0, ,0,0,0,0,0, ,-38.5,324.5,945.9,-0.4,-0.4,-1.6,25,-38.1548,324.678,946.91,-0.337743,-0.427048,-1.65026,
2026_07_06_19_07_00.985,3.854,32.6,0,0.762,0,0,0,0, ,0,0,0,0,0, ,-38.6,324.2,946.4,-0.3,-0.4,-1.7,25,-38.1789,324.658,946.864,-0.33849,-0.425399,-1.65024,
2026_07_06_19_07_01.004,3.854,32.4,0,0.761,0,0,0,0, ,0,0,0,0,0, ,-39.3,322.2,947.5,-0.3,-0.5,-1.6,25,-38.2259,324.569,946.869,-0.336145,-0.426899,-1.65023,
2026_07_06_19_07_01.024,3.854,32.4,0,0.761,0,0,0,0, ,0,0,0,0,0, ,-38,325,946.5,-0.4,-0.5,-1.6,25,-38.2518,324.51,946.877,-0.336989,-0.431353,-1.64717,
2026_07_06_19_07_01.044,3.854,32.5,0,0.761,0,0,0,0, ,0,0,0,0,0, ,-38.6,324.8,946.7,-0.3,-0.4,-1.6,25,-38.2547,324.534,946.86,-0.337782,-0.432489,-1.64429,
2026_07_06_19_07_01.064,3.854,32.5,0,0.763,0,0,0,0, ,0,0,0,0,0, ,-38,324.2,945.6,-0.2,-0.4,-1.6,25,-38.2575,324.532,946.817,-0.332433,-0.43051,-1.64159,
2026_07_06_19_07_01.085,3.854,32.5,0,0.762,0,0,0,0, ,0,0,0,0,0, ,-37.3,322.8,946.5,-0.1,-0.5,-1.6,25,-38.2204,324.469,946.77,-0.321316,-0.431697,-1.63906,
2026_07_06_19_07_01.103,3.854,32.5,0,0.761,0,0,0,0, ,0,0,0,0,0, ,-38.4,323.7,945.6,-0.3,-0.4,-1.7,25,-38.1979,324.395,946.726,-0.313923,-0.432813,-1.63973,
2026_07_06_19_07_01.123,3.854,32.6,0,0.761,0,0,0,0, ,0,0,0,0,0, ,-38.2,324,948.1,-0.3,-0.4,-1.6,25,-38.2041,324.361,946.734,-0.313075,-0.430813,-1.64035,
2026_07_06_19_07_01.144,3.854,32.5,0,0.762,0,0,0,0, ,0,0,0,0,0, ,-38.6,324.7,946.7,-0.2,-0.4,-1.7,25,-38.216,324.361,946.775,-0.309231,-0.428935,-1.64094,
2026_07_06_19_07_01.164,3.854,32.5,0,0.762,0,0,0,0, ,0,0,0,0,0, ,-37.7,325.4,946.5,-0.2,-0.4,-1.6,25,-38.212,324.403,946.764,-0.302575,-0.427172,-1.64149,
2026_07_06_19_07_01.183,3.854,32.5,0,0.762,0,0,0,0, ,0,0,0,0,0, ,-38,324,947,-0.1,-0.4,-1.7,25,-38.1899,324.421,946.763,-0.293277,-0.425516,-1.64201,
2026_07_06_19_07_01.203,3.854,32.5,0,0.762,0,0,0,0, ,0,0,0,0,0, ,-38.6,325.6,947.5,-0.3,-0.5,-1.6,25,-38.1967,324.444,946.793,-0.287593,-0.427008,-1.6425,
2026_07_06_19_07_01.226,3.854,32.5,0,0.76,0,0,0,0, ,0,0,0,0,0, ,-37.4,323.4,946.6,-0.4,-0.4,-1.7,25,-38.1847,324.447,946.808,-0.291396,-0.428409,-1.64295,
2026_07_06_19_07_01.242,3.854,32.5,0,0.76,0,0,0,0, ,0,0,0,0,0, ,-38.3,324.4,946.5,-0.4,-0.3,-1.7,25,-38.1643,324.414,946.793,-0.298014,-0.423631,-1.64643,
2026_07_06_19_07_01.262,3.854,32.6,0,0.761,0,0,0,0, ,0,0,0,0,0, ,-37.9,324.4,946.7,-0.3,-0.4,-1.6,25,-38.1604,324.413,946.781,-0.301182,-0.419144,-1.64665,
2026_07_06_19_07_01.282,3.854,32.5,0,0.76,0,0,0,0, ,0,0,0,0,0, ,-39.1,324.5,948.1,-0.4,-0.4,-1.7,25,-38.1811,324.415,946.819,-0.304157,-0.417978,-1.64685,
2026_07_06_19_07_01.302,3.854,32.5,0,0.76,0,0,0,0, ,0,0,0,0,0, ,-38.3,323.3,947.3,-0.5,-0.4,-1.7,25,-38.2127,324.384,946.872,-0.313044,-0.416882,-1.65009,
2026_07_06_19_07_01.322,3.854,32.5,0,0.761,0,0,0,0, ,0,0,0,0,0, ,-38.2,325.1,947.5,-0.5,-0.5,-1.7,25,-38.215,324.373,946.905,-0.324437,-0.4189,-1.65313,
2026_07_06_19_07_01.341,3.854,32.5,0,0.761,0,0,0,0, ,0,0,0,0,0, ,-37.8,324,947.3,-0.4,-0.5,-1.6,25,-38.2019,324.384,946.935,-0.332088,-0.423842,-1.65294,
2026_07_06_19_07_01.361,3.854,32.5,0,0.761,0,0,0,0, ,0,0,0,0,0, ,-37.8,324.4,946.8,-0.4,-0.4,-1.7,25,-38.1774,324.372,946.942,-0.336227,-0.425436,-1.65276,
2026_07_06_19_07_01.381,3.854,32.5,0,0.761,0,0,0,0, ,0,0,0,0,0, ,-37.8,323.6,945.6,-0.3,-0.5,-1.7,25,-38.1544,324.35,946.897,-0.337066,-0.426933,-1.65564,
2026_07_06_19_07_01.401,3.854,32.5,0,0.761,0,0,0,0, ,0,0,0,0,0, ,-37.9,326.1,947.3,-0.3,-0.4,-1.7,25,-38.1358,324.38,946.869,-0.334807,-0.428339,-1.65834,
2026_07_06_19_07_01.421,3.854,32.5,0,0.761,0,0,0,0, ,0,0,0,0,0, ,-38,325.4,947.7,-0.2,-0.4,-1.6,25,-38.1245,324.464,946.908,-0.329639,-0.426612,-1.65784,
2026_07_06_19_07_01.441,3.854,32.5,0,0.76,0,0,0,0, ,0,0,0,0,0, ,-38.5,325.5,947.6,-0.3,-0.4,-1.6,25,-38.1321,324.524,946.953,-0.324786,-0.42499,-1.65431,
2026_07_06_19_07_01.460,3.854,32.5,0,0.763,0,0,0,0, ,0,0,0,0,0, ,-37.1,324.4,947.3,-0.4,-0.5,-1.6,25,-38.1119,324.55,946.983,-0.326323,-0.426514,-1.651,
2026_07_06_19_07_01.480,3.854,32.5,0,0.76,0,0,0,0, ,0,0,0,0,0, ,-37.3,325.5,946.7,-0.5,-0.4,-1.7,25,-38.0563,324.574,946.984,-0.333859,-0.427945,-1.65094,
2026_07_06_19_07_01.501,3.854,32.5,0,0.761,0,0,0,0, ,0,0,0,0,0, ,-38.6,324.5,947.6,-0.3,-0.4,-1.6,25,-38.0499,324.6,946.994,-0.33789,-0.426243,-1.65088,
2026_07_06_19_07_01.520,3.854,32.5,0,0.762,0,0,0,0, ,0,0,0,0,0, ,-37.5,323.1,948.3,-0.4,-0.4,-1.7,25,-38.0499,324.551,947.053,-0.338628,-0.424643,-1.65083,
2026_07_06_19_07_01.539,3.854,32.5,0,0.761,0,0,0,0, ,0,0,0,0,0, ,-38,323.4,948.3,-0.4,-0.5,-1.6,25,-38.0316,324.472,947.129,-0.342368,-0.426189,-1.65078,
2026_07_06_19_07_01.559,3.854,32.5,0,0.761,0,0,0,0, ,0,0,0,0,0, ,-39.1,325.1,946.4,-0.5,-0.4,-1.6,25,-38.0632,324.458,947.142,-0.348926,-0.42764,-1.64768,
2026_07_06_19_07_01.579,3.854,32.5,0,0.762,0,0,0,0, ,0,0,0,0,0, ,-38.4,324.7,946.6,-0.5,-0.4,-1.7,25,-38.105,324.485,947.103,-0.358133,-0.425955,-1.64783,
2026_07_06_19_07_01.599,3.854,32.5,0,0.761,0,0,0,0, ,0,0,0,0,0, ,-37.8,324.8,946.5,-0.3,-0.4,-1.6,25,-38.1047,324.502,947.069,-0.360684,-0.424374,-1.64796,
2026_07_06_19_07_01.619,3.854,32.5,0,0.762,0,0,0,0, ,0,0,0,0,0, ,-37.7,324.4,945.3,-0.2,-0.4,-1.6,25,-38.0831,324.508,946.998,-0.353939,-0.422888,-1.64504,
2026_07_06_19_07_01.638,3.854,32.5,0,0.76,0,0,0,0, ,0,0,0,0,0, ,-38.4,323.6,947.6,-0.3,-0.4,-1.6,25,-38.0811,324.477,946.965,-0.347605,-0.421494,-1.64229,
2026_07_06_19_07_01.658,3.854,32.5,0,0.761,0,0,0,0, ,0,0,0,0,0, ,-38.3,324,947.6,-0.3,-0.4,-1.7,25,-38.0975,324.435,947.003,-0.344704,-0.420184,-1.64276,
2026_07_06_19_07_01.678,3.854,32.4,0,0.762,0,0,0,0, ,0,0,0,0,0, ,-37.8,324.9,947.3,-0.2,-0.4,-1.7,25,-38.0946,324.436,947.031,-0.338933,-0.418954,-1.64625,
2026_07_06_19_07_01.698,3.854,32.5,0,0.761,0,0,0,0, ,0,0,0,0,0, ,-39.5,323.6,947.5,-0.1,-0.5,-1.6,25,-38.1284,324.425,947.053,-0.32742,-0.420846,-1.64648,
2026_07_06_19_07_01.718,3.854,32.5,0,0.76,0,0,0,0, ,0,0,0,0,0, ,-38,322.9,945.5,-0.1,-0.4,-1.6,25,-38.1663,324.353,947.019,-0.313562,-0.422622,-1.64365,
2026_07_06_19_07_01.738,3.854,32.5,0,0.762,0,0,0,0, ,0,0,0,0,0, ,-37.9,324.7,946.8,-0.2,-0.4,-1.7,25,-38.1531,324.32,946.966,-0.303595,-0.421244,-1.64403,
2026_07_06_19_07_01.756,3.854,32.5,0,0.761,0,0,0,0, ,0,0,0,0,0, ,-37.3,324.8,947.2,-0.3,-0.4,-1.6,25,-38.1194,324.346,946.968,-0.300329,-0.419949,-1.6444,
2026_07_06_19_07_01.778,3.854,32.5,0,0.761,0,0,0,0, ,0,0,0,0,0, ,-38.6,325.4,947.5,-0.3,-0.4,-1.6,25,-38.1091,324.392,946.992,-0.300309,-0.418734,-1.64169,
2026_07_06_19_07_01.797,3.854,32.6,0,0.763,0,0,0,0, ,0,0,0,0,0, ,-39,324.8,947,-0.3,-0.4,-1.6,25,-38.1512,324.435,947.007,-0.30029,-0.417592,-1.63915,
2026_07_06_19_07_01.816,3.854,32.6,0,0.762,0,0,0,0, ,0,0,0,0,0, ,-38.3,324.9,947.5,-0.3,-0.4,-1.6,25,-38.1816,324.46,947.022,-0.300272,-0.41652,-1.63676,
2026_07_06_19_07_01.836,3.854,32.6,0,0.761,0,0,0,0, ,0,0,0,0,0, ,-38.4,324.5,947.3,-0.4,-0.4,-1.6,25,-38.1919,324.475,947.045,-0.303303,-0.415513,-1.63452,
2026_07_06_19_07_01.863,3.854,32.5,0,0.762,0,0,0,0, ,0,0,0,0,0, ,-38,324.4,947.3,-0.4,-0.4,-1.7,25,-38.1924,324.473,947.061,-0.309195,-0.414568,-1.63547,
2026_07_06_19_07_01.945,3.854,32.5,0,0.759,0,0,0,0, ,0,0,0,0,0, ,-38.8,324.8,946.1,-0.3,-0.4,-1.6,25,-38.205,324.481,947.039,-0.311682,-0.41368,-1.63635,
2026_07_06_19_07_01.945,3.854,32.5,0,0.761,0,0,0,0, ,0,0,0,0,0, ,-37.5,324.5,947.7,-0.5,-0.4,-1.6,25,-38.2017,324.491,947.03,-0.317063,-0.412847,-1.63414,
2026_07_06_19_07_01.945,3.854,32.5,0,0.763,0,0,0,0, ,0,0,0,0,0, ,-37.1,323.9,946.5,-0.5,-0.4,-1.7,25,-38.1467,324.474,947.035,-0.328211,-0.412064,-1.6351,
2026_07_06_19_07_01.945,3.854,32.5,0,0.761,0,0,0,0, ,0,0,0,0,0, ,-37.9,323.8,947,-0.6,-0.4,-1.6,25,-38.1073,324.436,947.017,-0.341726,-0.411329,-1.63601,
2026_07_06_19_07_01.956,3.854,32.5,0,0.76,0,0,0,0, ,0,0,0,0,0, ,-38.8,323.8,947,-0.4,-0.4,-1.6,25,-38.1221,324.397,947.016,-0.351371,-0.410638,-1.63382,
2026_07_06_19_07_01.975,3.854,32.5,0,0.761,0,0,0,0, ,0,0,0,0,0, ,-38.2,322.7,947.2,-0.4,-0.5,-1.6,25,-38.1451,324.327,947.021,-0.354335,-0.413037,-1.63176,
2026_07_06_19_07_01.995,3.854,32.5,0,0.762,0,0,0,0, ,0,0,0,0,0, ,-38.5,322.7,946,-0.3,-0.4,-1.6,25,-38.1576,324.228,946.996,-0.35407,-0.415289,-1.62982,
2026_07_06_19_07_02.014,3.854,32.5,0,0.762,0,0,0,0, ,0,0,0,0,0, ,-39.1,322.8,947.7,-0.4,-0.4,-1.6,25,-38.1968,324.138,946.987,-0.353822,-0.414358,-1.628,
2026_07_06_19_07_02.034,3.854,32.5,0,0.761,0,0,0,0, ,0,0,0,0,0, ,-38.5,324.5,945.3,-0.4,-0.4,-1.7,25,-38.2335,324.108,946.957,-0.356636,-0.413483,-1.62934,
2026_07_06_19_07_02.054,3.854,32.5,0,0.761,0,0,0,0, ,0,0,0,0,0, ,-37.1,324.2,946.5,-0.3,-0.4,-1.6,25,-38.2071,324.123,946.893,-0.356232,-0.412661,-1.6306,
2026_07_06_19_07_02.075,3.854,32.6,0,0.761,0,0,0,0, ,0,0,0,0,0, ,-37.9,323.2,947.3,-0.3,-0.4,-1.7,25,-38.164,324.097,946.893,-0.352805,-0.41189,-1.63179,
2026_07_06_19_07_02.094,3.854,32.5,0,0.761,0,0,0,0, ,0,0,0,0,0, ,-37.3,324.8,949,-0.5,-0.4,-1.6,25,-38.1296,324.091,946.97,-0.355681,-0.411165,-1.6329,
2026_07_06_19_07_02.116,3.854,32.5,0,0.761,0,0,0,0, ,0,0,0,0,0, ,-38.6,325.3,945.8,-0.4,-0.4,-1.7,25,-38.1187,324.15,946.996,-0.361429,-0.410485,-1.63394,
2026_07_06_19_07_02.133,3.854,32.5,0,0.761,0,0,0,0, ,0,0,0,0,0, ,-37.4,323.3,946,-0.3,-0.4,-1.7,25,-38.1115,324.159,946.929,-0.360732,-0.409846,-1.63796,
2026_07_06_19_07_02.152,3.854,32.5,0,0.761,0,0,0,0, ,0,0,0,0,0, ,-37.8,323.6,946.4,-0.4,-0.4,-1.6,25,-38.0803,324.116,946.885,-0.360078,-0.409246,-1.6387,
2026_07_06_19_07_02.172,3.854,32.5,0,0.761,0,0,0,0, ,0,0,0,0,0, ,-38,325.3,947.2,-0.5,-0.4,-1.7,25,-38.0693,324.136,946.88,-0.365558,-0.408682,-1.63939,
2026_07_06_19_07_02.192,3.854,32.5,0,0.763,0,0,0,0, ,0,0,0,0,0, ,-38,324.4,946.6,-0.3,-0.4,-1.6,25,-38.0651,324.179,946.881,-0.367657,-0.408153,-1.64003,
2026_07_06_19_07_02.212,3.854,32.5,0,0.763,0,0,0,0, ,0,0,0,0,0, ,-38.4,322.7,946.2,-0.3,-0.4,-1.7,25,-38.0733,324.141,946.851,-0.363534,-0.407656,-1.64064,
2026_07_06_19_07_02.233,3.854,32.5,0,0.763,0,0,0,0, ,0,0,0,0,0, ,-38.5,324.3,947.9,-0.3,-0.5,-1.6,25,-38.0963,324.102,946.864,-0.359662,-0.410237,-1.64121,
2026_07_06_19_07_02.252,3.854,32.5,0,0.761,0,0,0,0, ,0,0,0,0,0, ,-38.9,323.6,946.6,-0.3,-0.5,-1.6,25,-38.133,324.093,946.887,-0.356027,-0.415707,-1.6387,
2026_07_06_19_07_02.272,3.854,32.5,0,0.762,0,0,0,0, ,0,0,0,0,0, ,-38.4,324.9,946.7,-0.3,-0.4,-1.7,25,-38.1645,324.102,946.873,-0.352613,-0.417796,-1.63939,
2026_07_06_19_07_02.291,3.854,32.5,0,0.762,0,0,0,0, ,0,0,0,0,0, ,-39.3,324.8,947,-0.2,-0.4,-1.7,25,-38.2063,324.148,946.871,-0.34636,-0.416712,-1.64308,
2026_07_06_19_07_02.312,3.854,32.5,0,0.762,0,0,0,0, ,0,0,0,0,0, ,-37.7,323.9,947.5,-0.1,-0.4,-1.7,25,-38.2242,324.16,946.894,-0.334394,-0.415694,-1.64655,
2026_07_06_19_07_02.331,3.854,32.5,0,0.761,0,0,0,0, ,0,0,0,0,0, ,-37.4,323.9,947.9,-0.2,-0.4,-1.7,25,-38.1831,324.144,946.943,-0.323157,-0.414737,-1.64981,
2026_07_06_19_07_02.351,3.854,32.5,0,0.761,0,0,0,0, ,0,0,0,0,0, ,-38.2,324.5,947,-0.3,-0.4,-1.7,25,-38.1598,324.148,946.974,-0.318699,-0.413839,-1.65287,
2026_07_06_19_07_02.371,3.854,32.6,0,0.761,0,0,0,0, ,0,0,0,0,0, ,-38,323.7,947,-0.2,-0.3,-1.7,25,-38.1561,324.145,946.976,-0.314513,-0.409949,-1.65574,
2026_07_06_19_07_02.391,3.854,32.6,0,0.761,0,0,0,0, ,0,0,0,0,0, ,-37.8,324.3,946.7,-0.1,-0.4,-1.6,25,-38.1405,324.136,946.968,-0.304488,-0.406296,-1.65539,
2026_07_06_19_07_02.410,3.854,32.6,0,0.762,0,0,0,0, ,0,0,0,0,0, ,-37.9,324.5,946.8,-0.1,-0.4,-1.6,25,-38.1228,324.152,946.955,-0.292027,-0.405912,-1.65201,
2026_07_06_19_07_02.430,3.854,32.5,0,0.761,0,0,0,0, ,0,0,0,0,0, ,-37.9,324.3,947.5,-0.3,-0.4,-1.6,25,-38.1092,324.167,946.967,-0.286419,-0.405552,-1.64884,
2026_07_06_19_07_02.452,3.854,32.5,0,0.761,0,0,0,0, ,0,0,0,0,0, ,-38.2,325.3,946.8,-0.3,-0.4,-1.7,25,-38.1056,324.206,946.978,-0.287247,-0.405214,-1.64891,
2026_07_06_19_07_02.470,3.854,32.5,0,0.761,0,0,0,0, ,0,0,0,0,0, ,-38.8,326,946.1,-0.2,-0.5,-1.5,25,-38.1297,324.294,946.946,-0.284977,-0.407943,-1.64593,
2026_07_06_19_07_02.489,3.854,32.5,0,0.761,0,0,0,0, ,0,0,0,0,0, ,-38.6,324.5,947.2,-0.3,-0.4,-1.6,25,-38.1644,324.352,946.928,-0.282846,-0.410506,-1.64009,
2026_07_06_19_07_02.509,3.854,32.5,0,0.761,0,0,0,0, ,0,0,0,0,0, ,-37.1,323.8,944.9,-0.5,-0.4,-1.7,25,-38.1453,324.34,946.874,-0.289985,-0.409865,-1.64069,
2026_07_06_19_07_02.529,3.854,32.4,0,0.761,0,0,0,0, ,0,0,0,0,0, ,-38.8,325.5,947.3,-0.5,-0.4,-1.7,25,-38.1334,324.359,946.827,-0.302782,-0.409264,-1.64431,
2026_07_06_19_07_02.548,3.854,32.5,0,0.761,0,0,0,0, ,0,0,0,0,0, ,-38.3,324.3,947,-0.4,-0.4,-1.7,25,-38.1588,324.392,946.847,-0.311754,-0.4087,-1.6477,
2026_07_06_19_07_02.568,3.854,32.5,0,0.762,0,0,0,0, ,0,0,0,0,0, ,-38.6,324.4,948.3,-0.5,-0.4,-1.7,25,-38.1765,324.389,946.896,-0.320178,-0.40817,-1.65089,
2026_07_06_19_07_02.590,3.854,32.5,0,0.761,0,0,0,0, ,0,0,0,0,0, ,-37.5,324,948.6,-0.4,-0.4,-1.6,25,-38.1688,324.378,946.99,-0.328089,-0.407672,-1.65083,
2026_07_06_19_07_02.609,3.854,32.4,0,0.761,0,0,0,0, ,0,0,0,0,0, ,-38.4,324.4,947.1,-0.5,-0.4,-1.6,25,-38.1555,324.367,947.043,-0.335518,-0.407204,-1.64773,
2026_07_06_19_07_02.627,3.854,32.5,0,0.761,0,0,0,0, ,0,0,0,0,0, ,-38.6,324.5,946.7,-0.5,-0.4,-1.6,25,-38.1765,324.372,947.034,-0.345541,-0.406765,-1.64483,
2026_07_06_19_07_02.648,3.854,32.5,0,0.76,0,0,0,0, ,0,0,0,0,0, ,-37.4,325.5,946.2,-0.4,-0.4,-1.7,25,-38.1657,324.41,946.999,-0.351907,-0.406353,-1.64514,
2026_07_06_19_07_02.667,3.854,32.4,0,0.761,0,0,0,0, ,0,0,0,0,0, ,-38.4,323.3,946.4,-0.4,-0.4,-1.6,25,-38.1495,324.409,946.956,-0.354837,-0.405966,-1.64544,
2026_07_06_19_07_02.688,3.854,32.5,0,0.761,0,0,0,0, ,0,0,0,0,0, ,-38.3,322.3,946.8,-0.4,-0.4,-1.6,25,-38.1617,324.311,946.934,-0.357589,-0.405602,-1.64267,
2026_07_06_19_07_02.707,3.854,32.5,0,0.762,0,0,0,0, ,0,0,0,0,0, ,-37.7,323.6,947,-0.4,-0.4,-1.7,25,-38.1519,324.228,946.932,-0.360174,-0.405261,-1.64312,
2026_07_06_19_07_02.727,3.854,32.5,0,0.761,0,0,0,0, ,0,0,0,0,0, ,-38.9,323.1,947,-0.3,-0.5,-1.6,25,-38.1609,324.175,946.936,-0.359554,-0.407987,-1.64353,
2026_07_06_19_07_02.747,3.854,32.5,0,0.762,0,0,0,0, ,0,0,0,0,0, ,-39,323.7,946.7,-0.2,-0.4,-1.6,25,-38.209,324.128,946.931,-0.352878,-0.410547,-1.64088,
2026_07_06_19_07_02.767,3.854,32.5,0,0.761,0,0,0,0, ,0,0,0,0,0, ,-38.6,325.9,946.5,-0.5,-0.4,-1.6,25,-38.245,324.169,946.911,-0.352702,-0.409905,-1.63839,
2026_07_06_19_07_02.787,3.854,32.4,0,0.76,0,0,0,0, ,0,0,0,0,0, ,-38.3,325.3,948.1,-0.5,-0.5,-1.6,25,-38.2575,324.256,946.935,-0.361678,-0.412348,-1.63605,
2026_07_06_19_07_02.812,3.854,32.5,0,0.76,0,0,0,0, ,0,0,0,0,0, ,-38.5,325.6,946.6,-0.4,-0.4,-1.7,25,-38.2662,324.329,946.96,-0.367061,-0.414642,-1.6369,
2026_07_06_19_07_02.826,3.854,32.5,0,0.761,0,0,0,0, ,0,0,0,0,0, ,-38.3,324.2,946.5,-0.3,-0.4,-1.6,25,-38.2743,324.363,946.935,-0.366021,-0.41375,-1.6377,
2026_07_06_19_07_02.846,3.854,32.5,0,0.761,0,0,0,0, ,0,0,0,0,0, ,-38.5,324.8,946,-0.5,-0.4,-1.7,25,-38.282,324.372,946.893,-0.368091,-0.412912,-1.63845,
2026_07_06_19_07_02.866,3.854,32.4,0,0.762,0,0,0,0, ,0,0,0,0,0, ,-38.8,323.4,947,-0.5,-0.4,-1.6,25,-38.3044,324.355,946.869,-0.37613,-0.412125,-1.63915,
2026_07_06_19_07_02.886,3.854,32.4,0,0.761,0,0,0,0, ,0,0,0,0,0, ,-38.5,324.7,947.3,-0.4,-0.4,-1.7,25,-38.3255,324.337,946.886,-0.380631,-0.411386,-1.63981,
2026_07_06_19_07_02.906,3.854,32.5,0,0.761,0,0,0,0, ,0,0,0,0,0, ,-38,323.7,948.1,-0.3,-0.5,-1.7,25,-38.3209,324.328,946.936,-0.378765,-0.413739,-1.64348,
2026_07_06_19_07_02.926,3.854,32.4,0,0.762,0,0,0,0, ,0,0,0,0,0, ,-38.4,321.5,947,-0.4,-0.4,-1.7,25,-38.3135,324.223,946.973,-0.377012,-0.415949,-1.64693,
2026_07_06_19_07_02.946,3.854,32.4,0,0.761,0,0,0,0, ,0,0,0,0,0, ,-39.1,324,947.2,-0.4,-0.4,-1.6,25,-38.3401,324.133,946.981,-0.378413,-0.414977,-1.64711,
2026_07_06_19_07_02.965,3.854,32.5,0,0.76,0,0,0,0, ,0,0,0,0,0, ,-38.5,324.2,946.7,-0.3,-0.4,-1.7,25,-38.3681,324.131,946.979,-0.376681,-0.414065,-1.64729,
2026_07_06_19_07_02.984,3.854,32.5,0,0.761,0,0,0,0, ,0,0,0,0,0, ,-38.8,324.5,946.1,-0.2,-0.4,-1.6,25,-38.3853,324.145,946.944,-0.368962,-0.413207,-1.64745,
2026_07_06_19_07_03.004,3.854,32.4,0,0.76,0,0,0,0, ,0,0,0,0,0, ,-38.9,323.3,948.9,-0.2,-0.4,-1.6,25,-38.4136,324.13,946.978,-0.358665,-0.412403,-1.64456,
2026_07_06_19_07_03.024,3.854,32.4,0,0.762,0,0,0,0, ,0,0,0,0,0, ,-36.9,323.4,946,-0.3,-0.4,-1.6,25,-38.3823,324.082,947.007,-0.352044,-0.411647,-1.64185,
2026_07_06_19_07_03.044,3.854,32.5,0,0.761,0,0,0,0, ,0,0,0,0,0, ,-37.7,324.7,947.6,-0.2,-0.4,-1.6,25,-38.3164,324.08,946.994,-0.345825,-0.410937,-1.6393,
2026_07_06_19_07_03.063,3.854,32.4,0,0.762,0,0,0,0, ,0,0,0,0,0, ,-37.7,324.9,946.7,-0.2,-0.4,-1.6,25,-38.2788,324.124,947.003,-0.336939,-0.410271,-1.6369,
2026_07_06_19_07_03.084,3.854,32.5,0,0.76,0,0,0,0, ,0,0,0,0,0, ,-38.9,324.3,946.8,-0.1,-0.4,-1.6,25,-38.2801,324.153,946.988,-0.325548,-0.409645,-1.63465,
2026_07_06_19_07_03.103,3.854,32.5,0,0.76,0,0,0,0, ,0,0,0,0,0, ,-38.6,324.5,947.3,-0.2,-0.4,-1.6,25,-38.3087,324.168,946.992,-0.31485,-0.409057,-1.63254,
2026_07_06_19_07_03.122,3.854,32.4,0,0.761,0,0,0,0, ,0,0,0,0,0, ,-38.5,325.5,947.6,-0.3,-0.4,-1.7,25,-38.3234,324.219,947.02,-0.310898,-0.408505,-1.63361,
2026_07_06_19_07_03.143,3.854,32.4,0,0.761,0,0,0,0, ,0,0,0,0,0, ,-38.5,326.4,945.9,-0.2,-0.4,-1.7,25,-38.3342,324.324,947.003,-0.307187,-0.407987,-1.63765,
2026_07_06_19_07_03.162,3.854,32.4,0,0.762,0,0,0,0, ,0,0,0,0,0, ,-36.8,326.5,947.3,-0.3,-0.4,-1.6,25,-38.2925,324.454,946.979,-0.303702,-0.4075,-1.6384,
2026_07_06_19_07_03.187,3.854,32.5,0,0.763,0,0,0,0, ,0,0,0,0,0, ,-37.3,324.8,947,-0.2,-0.4,-1.6,25,-38.2168,324.527,946.989,-0.30043,-0.407043,-1.63606,
2026_07_06_19_07_03.202,3.854,32.5,0,0.761,0,0,0,0, ,0,0,0,0,0, ,-37.3,324.4,947.6,-0.3,-0.4,-1.7,25,-38.1609,324.531,947.008,-0.297357,-0.406614,-1.63691,
2026_07_06_19_07_03.221,3.854,32.4,0,0.761,0,0,0,0, ,0,0,0,0,0, ,-38.6,325.6,947.1,-0.4,-0.5,-1.7,25,-38.1481,324.56,947.029,-0.300565,-0.409258,-1.64076,
2026_07_06_19_07_03.243,3.854,32.5,0,0.762,0,0,0,0, ,0,0,0,0,0, ,-37.5,325.1,945.1,-0.4,-0.4,-1.6,25,-38.1421,324.608,946.972,-0.306624,-0.411741,-1.64132,
2026_07_06_19_07_03.262,3.854,32.4,0,0.763,0,0,0,0, ,0,0,0,0,0, ,-38.4,324.8,946.4,-0.3,-0.4,-1.6,25,-38.1304,324.629,946.898,-0.309267,-0.411025,-1.6388,
2026_07_06_19_07_03.281,3.854,32.4,0,0.762,0,0,0,0, ,0,0,0,0,0, ,-37.1,324.2,948.7,-0.4,-0.5,-1.6,25,-38.1072,324.621,946.938,-0.31175,-0.4134,-1.63644,
2026_07_06_19_07_03.302,3.854,32.5,0,0.762,0,0,0,0, ,0,0,0,0,0, ,-38.9,324.7,946.7,-0.6,-0.4,-1.6,25,-38.1007,324.61,946.984,-0.323221,-0.41563,-1.63422,
2026_07_06_19_07_03.322,3.854,32.5,0,0.762,0,0,0,0, ,0,0,0,0,0, ,-38.6,324,946,-0.5,-0.4,-1.8,25,-38.1402,324.595,946.945,-0.33704,-0.414678,-1.63823,
2026_07_06_19_07_03.340,3.854,32.5,0,0.761,0,0,0,0, ,0,0,0,0,0, ,-37.4,324.7,947.6,-0.4,-0.5,-1.6,25,-38.1317,324.58,946.937,-0.343924,-0.41683,-1.64199,
2026_07_06_19_07_03.368,3.854,32.5,0,0.76,0,0,0,0, ,0,0,0,0,0, ,-38,324.3,946.7,-0.3,-0.4,-1.6,25,-38.1054,324.575,946.95,-0.344294,-0.418852,-1.63943,
2026_07_06_19_07_03.381,3.854,32.4,0,0.761,0,0,0,0, ,0,0,0,0,0, ,-38.3,323.4,946,-0.4,-0.5,-1.7,25,-38.1081,324.531,946.913,-0.344642,-0.42075,-1.64008,
2026_07_06_19_07_03.400,3.854,32.6,0,0.761,0,0,0,0, ,0,0,0,0,0, ,-38.2,323.7,947.1,-0.5,-0.4,-1.7,25,-38.1168,324.471,946.891,-0.351062,-0.422532,-1.64373,
2026_07_06_19_07_03.421,3.854,32.5,0,0.76,0,0,0,0, ,0,0,0,0,0, ,-39.1,323.6,946.7,-0.3,-0.3,-1.8,25,-38.1493,324.421,946.891,-0.354044,-0.418112,-1.6502,
2026_07_06_19_07_03.439,3.854,32.5,0,0.762,0,0,0,0, ,0,0,0,0,0, ,-38.3,323.8,945.9,-0.2,-0.5,-1.7,25,-38.1828,324.377,946.855,-0.347704,-0.417009,-1.65628,
2026_07_06_19_07_03.460,3.854,32.4,0,0.761,0,0,0,0, ,0,0,0,0,0, ,-39.1,325,946,-0.4,-0.5,-1.7,25,-38.2143,324.378,946.8,-0.344797,-0.422066,-1.65895,
2026_07_06_19_07_03.479,3.854,32.4,0,0.761,0,0,0,0, ,0,0,0,0,0, ,-38.4,326,947.5,-0.4,-0.4,-1.6,25,-38.247,324.447,946.797,-0.348161,-0.423768,-1.6584,
2026_07_06_19_07_03.500,3.854,32.5,0,0.761,0,0,0,0, ,0,0,0,0,0, ,-37.7,325,947,-0.3,-0.4,-1.6,25,-38.235,324.511,946.825,-0.348273,-0.42232,-1.65484,
2026_07_06_19_07_03.519,3.854,32.5,0,0.763,0,0,0,0, ,0,0,0,0,0, ,-38.4,324.7,946.5,-0.5,-0.4,-1.6,25,-38.2237,324.532,946.82,-0.351425,-0.42096,-1.6515,
2026_07_06_19_07_03.538,3.854,32.4,0,0.763,0,0,0,0, ,0,0,0,0,0, ,-37.9,325.9,944.9,-0.5,-0.5,-1.7,25,-38.2192,324.578,946.752,-0.360479,-0.422729,-1.65141,
2026_07_06_19_07_03.559,3.854,32.5,0,0.762,0,0,0,0, ,0,0,0,0,0, ,-38.3,323.9,947.9,-0.6,-0.5,-1.6,25,-38.2119,324.598,946.73,-0.372028,-0.427438,-1.65132,
2026_07_06_19_07_03.578,3.854,32.5,0,0.761,0,0,0,0, ,0,0,0,0,0, ,-37.3,324.8,947,-0.4,-0.4,-1.7,25,-38.1868,324.583,946.774,-0.379826,-0.428813,-1.65124,
2026_07_06_19_07_03.599,3.854,32.4,0,0.762,0,0,0,0, ,0,0,0,0,0, ,-38.5,323.3,947.7,-0.4,-0.4,-1.7,25,-38.1694,324.55,946.809,-0.381056,-0.427057,-1.65422,
2026_07_06_19_07_03.618,3.854,32.5,0,0.762,0,0,0,0, ,0,0,0,0,0, ,-38.2,323.8,948.6,-0.4,-0.4,-1.7,25,-38.1804,324.489,946.891,-0.38221,-0.425408,-1.65701,
2026_07_06_19_07_03.639,3.854,32.5,0,0.762,0,0,0,0, ,0,0,0,0,0, ,-38.2,324.7,947.3,-0.5,-0.4,-1.7,25,-38.1816,324.475,946.956,-0.386341,-0.42386,-1.65963,
2026_07_06_19_07_03.658,3.854,32.4,0,0.76,0,0,0,0, ,0,0,0,0,0, ,-36.8,324.4,947.5,-0.3,-0.4,-1.6,25,-38.14,324.479,946.983,-0.387173,-0.422406,-1.65904,
2026_07_06_19_07_03.677,3.854,32.5,0,0.761,0,0,0,0, ,0,0,0,0,0, ,-38.6,323.8,945.4,-0.2,-0.4,-1.6,25,-38.1132,324.456,946.95,-0.378814,-0.421041,-1.65544,
2026_07_06_19_07_03.697,3.854,32.4,0,0.761,0,0,0,0, ,0,0,0,0,0, ,-37.2,324.4,946.8,-0.2,-0.4,-1.6,25,-38.1002,324.435,946.898,-0.367918,-0.419758,-1.65206,
2026_07_06_19_07_03.717,3.854,32.5,0,0.761,0,0,0,0, ,0,0,0,0,0, ,-37.5,323.9,945.9,-0.3,-0.5,-1.6,25,-38.0545,324.417,946.865,-0.360732,-0.421601,-1.64889,
2026_07_06_19_07_03.737,3.854,32.4,0,0.761,0,0,0,0, ,0,0,0,0,0, ,-38.5,324.8,946.5,-0.3,-0.4,-1.7,25,-38.0512,324.413,946.824,-0.357031,-0.423332,-1.64896,
2026_07_06_19_07_03.757,3.854,32.5,0,0.761,0,0,0,0, ,0,0,0,0,0, ,-38.9,324.5,947.6,-0.1,-0.5,-1.8,25,-38.0907,324.428,946.838,-0.347462,-0.424957,-1.65511,
2026_07_06_19_07_03.777,3.854,32.4,0,0.761,0,0,0,0, ,0,0,0,0,0, ,-37.7,324.7,946.6,-0.2,-0.4,-1.6,25,-38.1035,324.438,946.854,-0.335429,-0.426483,-1.65785,
2026_07_06_19_07_03.796,3.854,32.4,0,0.762,0,0,0,0, ,0,0,0,0,0, ,-37.7,325,947.1,-0.3,-0.4,-1.6,25,-38.0789,324.463,946.854,-0.330224,-0.424869,-1.65432,
2026_07_06_19_07_03.816,3.854,32.4,0,0.76,0,0,0,0, ,0,0,0,0,0, ,-37.2,324.9,946.7,-0.2,-0.5,-1.7,25,-38.0406,324.493,946.857,-0.325335,-0.426401,-1.65406,
2026_07_06_19_07_03.837,3.854,32.4,0,0.761,0,0,0,0, ,0,0,0,0,0, ,-38,325.9,947.1,-0.2,-0.4,-1.7,25,-38.0137,324.548,946.859,-0.317697,-0.427839,-1.65686,
2026_07_06_19_07_03.856,3.854,32.5,0,0.761,0,0,0,0, ,0,0,0,0,0, ,-38.4,324.7,947.5,-0.2,-0.4,-1.5,25,-38.0251,324.594,946.886,-0.310525,-0.426142,-1.6534,
2026_07_06_19_07_03.876,3.854,32.5,0,0.761,0,0,0,0, ,0,0,0,0,0, ,-38.5,324.8,946.7,-0.3,-0.4,-1.6,25,-38.051,324.603,946.899,-0.306837,-0.424549,-1.6471,
2026_07_06_19_07_03.895,3.854,32.5,0,0.761,0,0,0,0, ,0,0,0,0,0, ,-38.9,324.5,946.1,-0.4,-0.4,-1.7,25,-38.0905,324.606,946.869,-0.309467,-0.423053,-1.64727,
2026_07_06_19_07_03.916,3.854,32.5,0,0.761,0,0,0,0, ,0,0,0,0,0, ,-37.9,326.9,946.1,-0.3,-0.4,-1.6,25,-38.1094,324.673,946.822,-0.311937,-0.421648,-1.64744,
2026_07_06_19_07_03.936,3.854,32.5,0,0.762,0,0,0,0, ,0,0,0,0,0, ,-37.5,326.2,945.9,-0.4,-0.4,-1.7,25,-38.0844,324.787,946.772,-0.314257,-0.420329,-1.64759,
2026_07_06_19_07_03.956,3.854,32.4,0,0.761,0,0,0,0, ,0,0,0,0,0, ,-38,325.4,947.5,-0.4,-0.4,-1.6,25,-38.064,324.849,946.768,-0.319482,-0.41909,-1.64774,
2026_07_06_19_07_03.976,3.854,32.4,0,0.761,0,0,0,0, ,0,0,0,0,0, ,-37.5,325.5,947.2,-0.5,-0.4,-1.8,25,-38.0449,324.886,946.803,-0.327435,-0.417927,-1.65093,
2026_07_06_19_07_03.995,3.854,32.5,0,0.763,0,0,0,0, ,0,0,0,0,0, ,-38.3,324.2,947.2,-0.5,-0.5,-1.6,25,-38.0361,324.883,946.827,-0.337951,-0.419882,-1.65392,
2026_07_06_19_07_04.015,3.854,32.4,0,0.76,0,0,0,0, ,0,0,0,0,0, ,-39.1,325.6,946.1,-0.4,-0.4,-1.7,25,-38.0765,324.884,946.816,-0.344779,-0.421717,-1.65368,
2026_07_06_19_07_04.034,3.854,32.5,0,0.761,0,0,0,0, ,0,0,0,0,0, ,-38.5,324.8,946.8,-0.4,-0.5,-1.7,25,-38.1206,324.904,946.794,-0.348144,-0.42344,-1.6565,
2026_07_06_19_07_04.054,3.854,32.5,0,0.761,0,0,0,0, ,0,0,0,0,0, ,-38,324,946.7,-0.5,-0.5,-1.7,25,-38.1285,324.873,946.791,-0.354351,-0.428106,-1.65915,
2026_07_06_19_07_04.074,3.854,32.4,0,0.76,0,0,0,0, ,0,0,0,0,0, ,-38.6,323.4,946,-0.4,-0.4,-1.7,25,-38.139,324.802,946.764,-0.360179,-0.42944,-1.66164,
2026_07_06_19_07_04.094,3.854,32.4,0,0.762,0,0,0,0, ,0,0,0,0,0, ,-38.2,323.8,947.1,-0.5,-0.4,-1.7,25,-38.1549,324.728,946.751,-0.365653,-0.427646,-1.66398,
2026_07_06_19_07_04.113,3.854,32.5,0,0.76,0,0,0,0, ,0,0,0,0,0, ,-38.5,325,947.8,-0.3,-0.4,-1.7,25,-38.1668,324.708,946.794,-0.367746,-0.425961,-1.66617,
2026_07_06_19_07_04.133,3.854,32.5,0,0.763,0,0,0,0, ,0,0,0,0,0, ,-38.2,322.2,947,-0.4,-0.4,-1.6,25,-38.1779,324.641,946.831,-0.366664,-0.424379,-1.66519,
2026_07_06_19_07_04.153,3.854,32.5,0,0.762,0,0,0,0, ,0,0,0,0,0, ,-39.9,323.3,946.5,-0.3,-0.4,-1.7,25,-38.2311,324.526,946.826,-0.365649,-0.422894,-1.66426,
2026_07_06_19_07_04.173,3.854,32.5,0,0.762,0,0,0,0, ,0,0,0,0,0, ,-37.4,323.9,947.2,-0.4,-0.4,-1.6,25,-38.2566,324.469,946.827,-0.364695,-0.421499,-1.66339,
2026_07_06_19_07_04.192,3.854,32.4,0,0.762,0,0,0,0, ,0,0,0,0,0, ,-39.1,324.4,947.2,-0.2,-0.4,-1.6,25,-38.2562,324.45,946.85,-0.360753,-0.420188,-1.65953,
2026_07_06_19_07_04.213,3.854,32.4,0,0.761,0,0,0,0, ,0,0,0,0,0, ,-39.1,324.2,946.8,-0.4,-0.5,-1.6,25,-38.3076,324.441,946.859,-0.357051,-0.422005,-1.6559,
2026_07_06_19_07_04.233,3.854,32.5,0,0.761,0,0,0,0, ,0,0,0,0,0, ,-38.3,325.5,946.6,-0.5,-0.4,-1.6,25,-38.3315,324.466,946.85,-0.362715,-0.423711,-1.6525,
2026_07_06_19_07_04.253,3.854,32.5,0,0.761,0,0,0,0, ,0,0,0,0,0, ,-37.9,324.8,947.1,-0.4,-0.5,-1.6,25,-38.3174,324.507,946.85,-0.368034,-0.425313,-1.6493,
2026_07_06_19_07_04.272,3.854,32.5,0,0.76,0,0,0,0, ,0,0,0,0,0, ,-38.5,324.9,945.5,-0.4,-0.5,-1.7,25,-38.3103,324.528,946.816,-0.369982,-0.429864,-1.64934,
2026_07_06_19_07_04.292,3.854,32.6,0,0.761,0,0,0,0, ,0,0,0,0,0, ,-37.1,325.3,947.1,-0.5,-0.4,-1.6,25,-38.2792,324.563,946.785,-0.374858,-0.431091,-1.64938,
2026_07_06_19_07_04.311,3.854,32.4,0,0.761,0,0,0,0, ,0,0,0,0,0, ,-37.9,325.1,946.8,-0.5,-0.4,-1.6,25,-38.2317,324.602,946.795,-0.382484,-0.429197,-1.64637,
2026_07_06_19_07_04.331,3.854,32.4,0,0.761,0,0,0,0, ,0,0,0,0,0, ,-38.3,323.9,945.9,-0.5,-0.5,-1.7,25,-38.2237,324.596,946.768,-0.389645,-0.430464,-1.64659,
2026_07_06_19_07_04.352,3.854,32.5,0,0.761,0,0,0,0, ,0,0,0,0,0, ,-38.4,323.9,947.1,-0.4,-0.5,-1.7,25,-38.2314,324.553,946.751,-0.393323,-0.434702,-1.64985,
2026_07_06_19_07_04.371,3.854,32.5,0,0.76,0,0,0,0, ,0,0,0,0,0, ,-39,323.8,947.1,-0.5,-0.5,-1.6,25,-38.2599,324.51,946.773,-0.396777,-0.438681,-1.64986,
2026_07_06_19_07_04.390,3.854,32.5,0,0.763,0,0,0,0, ,0,0,0,0,0, ,-38.9,323.8,947.3,-0.5,-0.4,-1.8,25,-38.302,324.467,946.799,-0.403067,-0.439371,-1.65291,
2026_07_06_19_07_04.411,3.854,32.4,0,0.761,0,0,0,0, ,0,0,0,0,0, ,-38,323.8,946.7,-0.4,-0.5,-1.6,25,-38.311,324.426,946.811,-0.405927,-0.440018,-1.65578,
2026_07_06_19_07_04.430,3.854,32.5,0,0.761,0,0,0,0, ,0,0,0,0,0, ,-37.8,323.7,946,-0.3,-0.4,-1.7,25,-38.2859,324.385,946.783,-0.402519,-0.440627,-1.65543,
2026_07_06_19_07_04.449,3.854,32.5,0,0.761,0,0,0,0, ,0,0,0,0,0, ,-37.9,324.4,947.6,-0.3,-0.4,-1.6,25,-38.2594,324.365,946.784,-0.396271,-0.438151,-1.6551,
2026_07_06_19_07_04.470,3.854,32.4,0,0.761,0,0,0,0, ,0,0,0,0,0, ,-39.1,324.2,946.5,-0.3,-0.5,-1.7,25,-38.274,324.361,946.8,-0.390405,-0.438873,-1.65479,
2026_07_06_19_07_04.490,3.854,32.4,0,0.761,0,0,0,0, ,0,0,0,0,0, ,-37.9,322.8,944.5,-0.3,-0.5,-1.6,25,-38.2878,324.308,946.721,-0.384896,-0.442598,-1.6545,
2026_07_06_19_07_04.509,3.854,32.5,0,0.761,0,0,0,0, ,0,0,0,0,0, ,-38.3,324.5,946.2,-0.3,-0.4,-1.7,25,-38.2764,324.268,946.637,-0.379723,-0.443049,-1.65422,
2026_07_06_19_07_04.530,3.854,32.4,0,0.761,0,0,0,0, ,0,0,0,0,0, ,-38.3,322.3,946.2,-0.2,-0.4,-1.7,25,-38.2778,324.215,946.611,-0.371818,-0.440426,-1.65701,
2026_07_06_19_07_04.548,3.854,32.4,0,0.761,0,0,0,0, ,0,0,0,0,0, ,-38.3,324.3,948.4,-0.2,-0.4,-1.6,25,-38.2792,324.16,946.653,-0.361347,-0.437962,-1.65658,
2026_07_06_19_07_04.569,3.854,32.4,0,0.761,0,0,0,0, ,0,0,0,0,0, ,-38.2,324.9,945.9,-0.2,-0.4,-1.6,25,-38.2774,324.186,946.683,-0.351515,-0.435649,-1.65314,
2026_07_06_19_07_04.588,3.854,32.4,0,0.761,0,0,0,0, ,0,0,0,0,0, ,-38.9,324.3,947.3,-0.1,-0.4,-1.7,25,-38.294,324.212,946.678,-0.339235,-0.433477,-1.65294,
2026_07_06_19_07_04.608,3.854,32.5,0,0.761,0,0,0,0, ,0,0,0,0,0, ,-38.4,324.4,946.8,-0.1,-0.5,-1.6,25,-38.3157,324.22,946.701,-0.324657,-0.434483,-1.65277,
2026_07_06_19_07_04.628,3.854,32.4,0,0.76,0,0,0,0, ,0,0,0,0,0, ,-38,324.3,947.8,-0.2,-0.4,-1.6,25,-38.3086,324.228,946.737,-0.314014,-0.435429,-1.64955,
2026_07_06_19_07_04.648,3.854,32.5,0,0.761,0,0,0,0, ,0,0,0,0,0, ,-39.1,324,947.5,-0.3,-0.5,-1.6,25,-38.3233,324.223,946.793,-0.310113,-0.436317,-1.64653,
2026_07_06_19_07_04.668,3.854,32.5,0,0.762,0,0,0,0, ,0,0,0,0,0, ,-38.3,324.5,946.2,-0.3,-0.5,-1.6,25,-38.3463,324.225,946.796,-0.309497,-0.440198,-1.6437,
2026_07_06_19_07_04.688,3.854,32.5,0,0.761,0,0,0,0, ,0,0,0,0,0, ,-37.4,325.1,945.4,-0.1,-0.4,-1.6,25,-38.3161,324.26,946.736,-0.302824,-0.440795,-1.64103,
2026_07_06_19_07_04.707,3.854,32.4,0,0.761,0,0,0,0, ,0,0,0,0,0, ,-37.3,325,946.1,-0.3,-0.4,-1.6,25,-38.2572,324.308,946.675,-0.296558,-0.438309,-1.63853,
2026_07_06_19_07_04.728,3.854,32.4,0,0.761,0,0,0,0, ,0,0,0,0,0, ,-37.7,324,946.4,-0.2,-0.4,-1.6,25,-38.211,324.32,946.65,-0.293721,-0.435975,-1.63618,
2026_07_06_19_07_04.747,3.854,32.4,0,0.76,0,0,0,0, ,0,0,0,0,0, ,-38.2,326.1,946.8,-0.4,-0.5,-1.6,25,-38.1951,324.364,946.647,-0.294104,-0.436829,-1.63398,
2026_07_06_19_07_04.766,3.854,32.4,0,0.761,0,0,0,0, ,0,0,0,0,0, ,-38.2,325,946.5,-0.4,-0.5,-1.7,25,-38.1954,324.436,946.647,-0.300557,-0.440679,-1.63496,
2026_07_06_19_07_04.786,3.854,32.4,0,0.759,0,0,0,0, ,0,0,0,0,0, ,-38.2,324.8,947.1,-0.3,-0.4,-1.5,25,-38.1957,324.465,946.656,-0.30357,-0.441247,-1.63283,
2026_07_06_19_07_04.806,3.854,32.5,0,0.762,0,0,0,0, ,0,0,0,0,0, ,-38.2,323.3,946.4,-0.4,-0.4,-1.7,25,-38.196,324.439,946.662,-0.306399,-0.438733,-1.63082,
2026_07_06_19_07_04.826,3.854,32.4,0,0.762,0,0,0,0, ,0,0,0,0,0, ,-38.6,325.1,944.9,-0.5,-0.5,-1.7,25,-38.2084,324.425,946.6,-0.31515,-0.43942,-1.63504,
2026_07_06_19_07_04.846,3.854,32.5,0,0.761,0,0,0,0, ,0,0,0,0,0, ,-37.5,326,946.7,-0.5,-0.5,-1.6,25,-38.1988,324.493,946.551,-0.326414,-0.443111,-1.63595,
2026_07_06_19_07_04.866,3.854,32.4,0,0.761,0,0,0,0, ,0,0,0,0,0, ,-37.9,324.2,946.7,-0.3,-0.4,-1.6,25,-38.1684,324.53,946.56,-0.330898,-0.443531,-1.63376,
2026_07_06_19_07_04.886,3.854,32.5,0,0.76,0,0,0,0, ,0,0,0,0,0, ,-37.7,323.7,946.8,-0.2,-0.4,-1.7,25,-38.1459,324.495,946.572,-0.325969,-0.440878,-1.63475,
2026_07_06_19_07_04.906,3.854,32.4,0,0.762,0,0,0,0, ,0,0,0,0,0, ,-38.9,324.2,945.9,-0.3,-0.4,-1.7,25,-38.1553,324.462,946.558,-0.321339,-0.438387,-1.63873,
2026_07_06_19_07_04.926,3.854,32.5,0,0.761,0,0,0,0, ,0,0,0,0,0, ,-37.9,325.5,947,-0.2,-0.4,-1.6,25,-38.1702,324.485,946.552,-0.316992,-0.436048,-1.63941,
2026_07_06_19_07_04.945,3.854,32.5,0,0.761,0,0,0,0, ,0,0,0,0,0, ,-39,323.2,948.2,-0.2,-0.4,-1.7,25,-38.1873,324.477,946.616,-0.309863,-0.433852,-1.64006,
2026_07_06_19_07_04.965,3.854,32.5,0,0.761,0,0,0,0, ,0,0,0,0,0, ,-38,325.3,947.8,-0.3,-0.4,-1.5,25,-38.2063,324.463,946.7,-0.306215,-0.431789,-1.63762,
2026_07_06_19_07_04.985,3.854,32.4,0,0.761,0,0,0,0, ,0,0,0,0,0, ,-37.5,326.5,947.1,-0.3,-0.4,-1.6,25,-38.1785,324.551,946.746,-0.305836,-0.429852,-1.63228,
2026_07_06_19_07_05.004,3.854,32.4,0,0.762,0,0,0,0, ,0,0,0,0,0, ,-38.5,324.8,946.2,-0.2,-0.4,-1.7,25,-38.1676,324.618,946.74,-0.302434,-0.428033,-1.63336,
2026_07_06_19_07_05.024,3.854,32.5,0,0.761,0,0,0,0, ,0,0,0,0,0, ,-38.3,325,947.6,-0.2,-0.4,-1.7,25,-38.1818,324.635,946.75,-0.296192,-0.426324,-1.63742,
2026_07_06_19_07_05.044,3.854,32.4,0,0.761,0,0,0,0, ,0,0,0,0,0, ,-38,323.8,948.2,-0.4,-0.4,-1.7,25,-38.1799,324.621,946.82,-0.296424,-0.42472,-1.64123,
2026_07_06_19_07_05.063,3.854,32.4,0,0.76,0,0,0,0, ,0,0,0,0,0, ,-38.2,324.8,947.2,-0.5,-0.4,-1.7,25,-38.175,324.601,946.873,-0.305782,-0.423214,-1.64481,
2026_07_06_19_07_05.084,3.854,32.4,0,0.761,0,0,0,0, ,0,0,0,0,0, ,-38.6,324.7,947.6,-0.4,-0.4,-1.6,25,-38.1887,324.61,946.906,-0.314571,-0.421799,-1.64513,
2026_07_06_19_07_05.103,3.854,32.4,0,0.76,0,0,0,0, ,0,0,0,0,0, ,-38.2,323.9,947.8,-0.4,-0.5,-1.6,25,-38.2016,324.591,946.954,-0.319776,-0.423518,-1.64238,
2026_07_06_19_07_05.123,3.854,32.5,0,0.761,0,0,0,0, ,0,0,0,0,0, ,-39,323.3,946.5,-0.4,-0.4,-1.7,25,-38.2259,324.531,946.966,-0.324665,-0.425131,-1.64284,
2026_07_06_19_07_05.146,3.854,32.4,0,0.76,0,0,0,0, ,0,0,0,0,0, ,-38.3,325.1,947.6,-0.4,-0.3,-1.6,25,-38.2517,324.511,946.971,-0.329256,-0.420553,-1.64328,
2026_07_06_19_07_05.162,3.854,32.4,0,0.761,0,0,0,0, ,0,0,0,0,0, ,-38.4,325.4,945.3,-0.5,-0.5,-1.6,25,-38.2577,324.556,946.939,-0.336614,-0.419301,-1.64064,
2026_07_06_19_07_05.183,3.854,32.4,0,0.761,0,0,0,0, ,0,0,0,0,0, ,-38.2,323.8,947,-0.3,-0.3,-1.6,25,-38.2603,324.559,946.891,-0.340476,-0.418125,-1.63817,
2026_07_06_19_07_05.203,3.854,32.4,0,0.761,0,0,0,0, ,0,0,0,0,0, ,-38,323.8,945.8,-0.4,-0.3,-1.6,25,-38.2505,324.512,946.861,-0.341057,-0.410926,-1.63584,
2026_07_06_19_07_05.222,3.854,32.4,0,0.761,0,0,0,0, ,0,0,0,0,0, ,-38.3,324.7,947,-0.5,-0.4,-1.7,25,-38.2444,324.496,946.833,-0.347695,-0.407214,-1.6367,
2026_07_06_19_07_05.243,3.854,32.4,0,0.761,0,0,0,0, ,0,0,0,0,0, ,-37.9,322.7,946.4,-0.5,-0.4,-1.7,25,-38.2356,324.448,946.825,-0.356976,-0.406774,-1.64056,
2026_07_06_19_07_05.262,3.854,32.4,0,0.761,0,0,0,0, ,0,0,0,0,0, ,-37.5,323.9,947.1,-0.4,-0.4,-1.6,25,-38.2029,324.378,946.82,-0.362645,-0.406361,-1.64114,
2026_07_06_19_07_05.281,3.854,32.4,0,0.761,0,0,0,0, ,0,0,0,0,0, ,-37.5,323.6,946,-0.3,-0.5,-1.6,25,-38.1601,324.34,946.804,-0.361874,-0.40902,-1.63863,
2026_07_06_19_07_05.302,3.854,32.5,0,0.76,0,0,0,0, ,0,0,0,0,0, ,-38.6,322.7,947.6,-0.3,-0.4,-1.7,25,-38.1534,324.267,946.804,-0.358104,-0.411518,-1.63932,
2026_07_06_19_07_05.321,3.854,32.5,0,0.761,0,0,0,0, ,0,0,0,0,0, ,-37.9,322.8,945.6,-0.3,-0.4,-1.6,25,-38.1593,324.175,946.791,-0.354563,-0.410816,-1.63997,
2026_07_06_19_07_05.347,3.854,32.4,0,0.762,0,0,0,0, ,0,0,0,0,0, ,-38.9,324.9,946.5,-0.3,-0.4,-1.7,25,-38.174,324.155,946.746,-0.351238,-0.410157,-1.64058,
2026_07_06_19_07_05.361,3.854,32.5,0,0.76,0,0,0,0, ,0,0,0,0,0, ,-39.3,323.9,947.5,-0.1,-0.4,-1.7,25,-38.2304,324.17,946.762,-0.342022,-0.409538,-1.6442,
2026_07_06_19_07_05.381,3.854,32.5,0,0.762,0,0,0,0, ,0,0,0,0,0, ,-38.6,323.1,947,-0.2,-0.5,-1.7,25,-38.2742,324.129,946.791,-0.330321,-0.412003,-1.6476,
2026_07_06_19_07_05.401,3.854,32.4,0,0.761,0,0,0,0, ,0,0,0,0,0, ,-38.5,324,946.8,-0.3,-0.4,-1.7,25,-38.291,324.094,946.798,-0.325426,-0.414319,-1.6508,
2026_07_06_19_07_05.420,3.854,32.4,0,0.761,0,0,0,0, ,0,0,0,0,0, ,-38.3,322.9,946,-0.2,-0.4,-1.7,25,-38.2977,324.054,946.774,-0.32083,-0.413446,-1.6538,
2026_07_06_19_07_05.440,3.854,32.5,0,0.761,0,0,0,0, ,0,0,0,0,0, ,-38.9,323.1,946.5,-0.1,-0.4,-1.6,25,-38.3161,323.99,946.742,-0.31042,-0.412627,-1.65356,
2026_07_06_19_07_05.459,3.854,32.4,0,0.76,0,0,0,0, ,0,0,0,0,0, ,-38.5,323.6,946.5,-0.1,-0.4,-1.6,25,-38.3395,323.951,946.727,-0.297598,-0.411857,-1.6503,
2026_07_06_19_07_05.479,3.854,32.4,0,0.762,0,0,0,0, ,0,0,0,0,0, ,-36.9,323.2,948.2,-0.3,-0.4,-1.6,25,-38.3005,323.918,946.765,-0.29165,-0.411135,-1.64724,
2026_07_06_19_07_05.500,3.854,32.5,0,0.761,0,0,0,0, ,0,0,0,0,0, ,-37.4,323.7,947.7,-0.2,-0.3,-1.5,25,-38.2304,323.889,946.837,-0.289112,-0.40741,-1.64131,
2026_07_06_19_07_05.520,3.854,32.4,0,0.76,0,0,0,0, ,0,0,0,0,0, ,-39,326.1,946.7,-0.2,-0.4,-1.6,25,-38.2286,323.951,946.859,-0.283682,-0.403911,-1.63575,
2026_07_06_19_07_05.544,3.854,32.4,0,0.761,0,0,0,0, ,0,0,0,0,0, ,-38.5,324.2,946.4,-0.1,-0.4,-1.6,25,-38.2603,324.024,946.841,-0.275536,-0.403673,-1.63357,
2026_07_06_19_07_05.559,3.854,32.4,0,0.76,0,0,0,0, ,0,0,0,0,0, ,-37.7,323.9,946.2,-0.2,-0.4,-1.6,25,-38.2506,324.025,946.808,-0.267886,-0.403449,-1.63152,
2026_07_06_19_07_05.580,3.854,32.4,0,0.76,0,0,0,0, ,0,0,0,0,0, ,-37.9,324.8,946.4,-0.2,-0.5,-1.7,25,-38.2231,324.045,946.777,-0.263749,-0.406286,-1.63265,
2026_07_06_19_07_05.599,3.854,32.5,0,0.761,0,0,0,0, ,0,0,0,0,0, ,-38.4,323.8,946.5,-0.3,-0.4,-1.6,25,-38.2187,324.061,946.757,-0.262911,-0.40895,-1.63371,
2026_07_06_19_07_05.618,3.854,32.5,0,0.762,0,0,0,0, ,0,0,0,0,0, ,-38.8,324.2,947.1,-0.3,-0.4,-1.7,25,-38.2419,324.057,946.759,-0.265171,-0.408404,-1.6347,
2026_07_06_19_07_05.639,3.854,32.5,0,0.761,0,0,0,0, ,0,0,0,0,0, ,-38.6,325.1,947.2,-0.3,-0.4,-1.6,25,-38.2698,324.093,946.783,-0.267294,-0.407892,-1.63563,
2026_07_06_19_07_05.658,3.854,32.4,0,0.761,0,0,0,0, ,0,0,0,0,0, ,-39.4,323.8,946.6,-0.2,-0.4,-1.5,25,-38.3143,324.115,946.79,-0.26624,-0.407411,-1.63041,
2026_07_06_19_07_05.678,3.854,32.4,0,0.761,0,0,0,0, ,0,0,0,0,0, ,-39,323.9,947.1,0,-0.4,-1.6,25,-38.3683,324.099,946.794,-0.25611,-0.406959,-1.62551,
2026_07_06_19_07_05.697,3.854,32.4,0,0.759,0,0,0,0, ,0,0,0,0,0, ,-38.8,323.2,946.4,-0.1,-0.4,-1.7,25,-38.4007,324.065,946.791,-0.24355,-0.406535,-1.627,
2026_07_06_19_07_05.717,3.854,32.4,0,0.761,0,0,0,0, ,0,0,0,0,0, ,-38.9,322.8,946.2,-0.2,-0.4,-1.6,25,-38.4281,324,946.761,-0.237849,-0.406137,-1.62841,
2026_07_06_19_07_05.738,3.854,32.4,0,0.76,0,0,0,0, ,0,0,0,0,0, ,-37.7,324.4,945.5,-0.1,-0.4,-1.7,25,-38.4203,323.976,946.706,-0.232496,-0.405763,-1.62972,
2026_07_06_19_07_05.761,3.854,32.4,0,0.76,0,0,0,0, ,0,0,0,0,0, ,-39.3,324.4,946.2,-0.1,-0.5,-1.7,25,-38.4251,324.002,946.654,-0.224422,-0.408459,-1.634,
2026_07_06_19_07_05.776,3.854,32.4,0,0.761,0,0,0,0, ,0,0,0,0,0, ,-38.3,324,946,-0.1,-0.4,-1.6,25,-38.448,324.014,946.62,-0.21684,-0.41099,-1.63498,
2026_07_06_19_07_05.798,3.854,32.4,0,0.76,0,0,0,0, ,0,0,0,0,0, ,-38.8,324.5,947.2,-0.2,-0.4,-1.6,25,-38.4542,324.028,946.619,-0.212767,-0.410321,-1.63285,
2026_07_06_19_07_05.816,3.854,32.4,0,0.761,0,0,0,0, ,0,0,0,0,0, ,-37.9,326.7,946.4,-0.3,-0.4,-1.6,25,-38.4478,324.124,946.63,-0.215036,-0.409692,-1.63085,
2026_07_06_19_07_05.836,3.854,32.4,0,0.763,0,0,0,0, ,0,0,0,0,0, ,-38.6,324.9,947.2,-0.2,-0.4,-1.7,25,-38.4358,324.226,946.64,-0.217166,-0.409101,-1.63201,
2026_07_06_19_07_05.857,3.854,32.4,0,0.762,0,0,0,0, ,0,0,0,0,0, ,-38.5,325.9,947,-0.1,-0.4,-1.6,25,-38.4427,324.298,946.668,-0.213073,-0.408546,-1.63311,
2026_07_06_19_07_05.875,3.854,32.4,0,0.762,0,0,0,0, ,0,0,0,0,0, ,-37.5,325.5,946.1,-0.2,-0.4,-1.6,25,-38.4158,324.383,946.661,-0.20923,-0.408026,-1.63109,
2026_07_06_19_07_05.896,3.854,32.4,0,0.762,0,0,0,0, ,0,0,0,0,0, ,-38,325.3,946.7,-0.3,-0.4,-1.7,25,-38.3752,324.445,946.645,-0.211714,-0.407537,-1.63224,
2026_07_06_19_07_05.916,3.854,32.4,0,0.761,0,0,0,0, ,0,0,0,0,0, ,-39.5,325.8,945.8,-0.3,-0.4,-1.6,25,-38.398,324.512,946.621,-0.217094,-0.407077,-1.63333,
2026_07_06_19_07_05.935,3.854,32.4,0,0.76,0,0,0,0, ,0,0,0,0,0, ,-38.4,325.5,946.6,-0.3,-0.4,-1.6,25,-38.4317,324.582,946.595,-0.222146,-0.406646,-1.6313,
2026_07_06_19_07_05.956,3.854,32.4,0,0.76,0,0,0,0, ,0,0,0,0,0, ,-38.4,324.2,947.8,-0.3,-0.4,-1.7,25,-38.4297,324.598,946.632,-0.226891,-0.406241,-1.63243,
2026_07_06_19_07_05.975,3.854,32.4,0,0.76,0,0,0,0, ,0,0,0,0,0, ,-39.1,323.8,946.4,-0.4,-0.5,-1.7,25,-38.4493,324.562,946.661,-0.234392,-0.408908,-1.63655,
2026_07_06_19_07_05.995,3.854,32.4,0,0.762,0,0,0,0, ,0,0,0,0,0, ,-39.9,324.8,947.2,-0.5,-0.5,-1.6,25,-38.5133,324.546,946.669,-0.247531,-0.414459,-1.63737,
2026_07_06_19_07_06.014,3.854,32.4,0,0.761,0,0,0,0, ,0,0,0,0,0, ,-37.4,323.8,947.3,-0.4,-0.5,-1.6,25,-38.5216,324.531,946.705,-0.259869,-0.419671,-1.63509,
2026_07_06_19_07_06.034,3.854,32.4,0,0.76,0,0,0,0, ,0,0,0,0,0, ,-37.5,324.5,946.1,-0.4,-0.4,-1.6,25,-38.4563,324.508,946.704,-0.268408,-0.421519,-1.63296,
2026_07_06_19_07_06.054,3.854,32.4,0,0.761,0,0,0,0, ,0,0,0,0,0, ,-38.2,325.8,946.5,-0.6,-0.4,-1.7,25,-38.4194,324.547,946.68,-0.282521,-0.420208,-1.63399,
2026_07_06_19_07_06.074,3.854,32.4,0,0.759,0,0,0,0, ,0,0,0,0,0, ,-37.5,324.8,948.2,-0.6,-0.4,-1.6,25,-38.3847,324.593,946.72,-0.301867,-0.418977,-1.63497,
2026_07_06_19_07_06.093,3.854,32.4,0,0.761,0,0,0,0, ,0,0,0,0,0, ,-38.3,325.5,946.5,-0.4,-0.4,-1.7,25,-38.3551,324.627,946.759,-0.313941,-0.41782,-1.63589,
2026_07_06_19_07_06.114,3.854,32.5,0,0.762,0,0,0,0, ,0,0,0,0,0, ,-38.5,324.8,947.2,-0.4,-0.4,-1.7,25,-38.3579,324.658,946.764,-0.319185,-0.416734,-1.63979,
2026_07_06_19_07_06.133,3.854,32.4,0,0.762,0,0,0,0, ,0,0,0,0,0, ,-39.7,324.7,946,-0.4,-0.4,-1.6,25,-38.4031,324.664,946.754,-0.32411,-0.415715,-1.64041,
2026_07_06_19_07_06.153,3.854,32.4,0,0.761,0,0,0,0, ,0,0,0,0,0, ,-37.5,324.8,945.9,-0.5,-0.5,-1.7,25,-38.4151,324.669,946.705,-0.331781,-0.417804,-1.641,
2026_07_06_19_07_06.173,3.854,32.4,0,0.76,0,0,0,0, ,0,0,0,0,0, ,-38.2,323.2,946.7,-0.4,-0.4,-1.6,25,-38.3807,324.628,946.681,-0.338985,-0.419766,-1.64155,
2026_07_06_19_07_06.195,3.854,32.4,0,0.76,0,0,0,0, ,0,0,0,0,0, ,-37.8,323.4,946.8,-0.4,-0.5,-1.6,25,-38.3575,324.548,946.685,-0.342703,-0.421608,-1.63902,
2026_07_06_19_07_06.213,3.854,32.4,0,0.762,0,0,0,0, ,0,0,0,0,0, ,-39.7,323.8,945.9,-0.5,-0.4,-1.7,25,-38.3814,324.49,946.664,-0.349242,-0.423338,-1.63968,
2026_07_06_19_07_06.232,3.854,32.4,0,0.762,0,0,0,0, ,0,0,0,0,0, ,-38.4,324.7,946.4,-0.4,-0.4,-1.7,25,-38.4221,324.475,946.633,-0.355382,-0.421916,-1.64336,
2026_07_06_19_07_06.252,3.854,32.4,0,0.761,0,0,0,0, ,0,0,0,0,0, ,-37.4,323.1,946,-0.2,-0.5,-1.6,25,-38.3903,324.44,946.607,-0.352007,-0.423628,-1.64376,
2026_07_06_19_07_06.272,3.854,32.4,0,0.761,0,0,0,0, ,0,0,0,0,0, ,-37.9,323.8,947.8,-0.2,-0.5,-1.7,25,-38.3452,324.38,946.625,-0.342744,-0.428281,-1.64414,
2026_07_06_19_07_06.291,3.854,32.3,0,0.76,0,0,0,0, ,0,0,0,0,0, ,-38.3,325.6,947,-0.3,-0.5,-1.7,25,-38.3303,324.399,946.672,-0.337092,-0.432652,-1.64755,
2026_07_06_19_07_06.311,3.854,32.5,0,0.76,0,0,0,0, ,0,0,0,0,0, ,-39.3,325.1,947.8,-0.2,-0.4,-1.6,25,-38.3589,324.457,946.716,-0.331785,-0.433709,-1.6477,
2026_07_06_19_07_06.332,3.854,32.4,0,0.76,0,0,0,0, ,0,0,0,0,0, ,-38.6,324.9,946.7,-0.3,-0.4,-1.6,25,-38.3949,324.49,946.749,-0.326801,-0.431655,-1.64479,
2026_07_06_19_07_06.351,3.854,32.4,0,0.761,0,0,0,0, ,0,0,0,0,0, ,-38.4,325.5,947.2,-0.5,-0.4,-1.7,25,-38.4013,324.534,946.761,-0.331262,-0.429726,-1.64511,
2026_07_06_19_07_06.372,3.854,32.4,0,0.76,0,0,0,0, ,0,0,0,0,0, ,-38.2,325.4,945.8,-0.4,-0.4,-1.6,25,-38.3951,324.589,946.745,-0.338498,-0.427914,-1.64541,
2026_07_06_19_07_06.391,3.854,32.4,0,0.76,0,0,0,0, ,0,0,0,0,0, ,-36.4,325,947.5,-0.4,-0.4,-1.7,25,-38.3284,324.627,946.739,-0.342245,-0.426213,-1.64569,
2026_07_06_19_07_06.410,3.854,32.4,0,0.761,0,0,0,0, ,0,0,0,0,0, ,-38.4,326,945.9,-0.4,-0.5,-1.7,25,-38.2718,324.68,946.737,-0.345765,-0.427663,-1.649,
2026_07_06_19_07_06.431,3.854,32.4,0,0.76,0,0,0,0, ,0,0,0,0,0, ,-38.6,325,947.3,-0.4,-0.4,-1.6,25,-38.2857,324.73,946.729,-0.34907,-0.429024,-1.64906,
2026_07_06_19_07_06.451,3.854,32.5,0,0.762,0,0,0,0, ,0,0,0,0,0, ,-38,323.1,945.8,-0.6,-0.4,-1.7,25,-38.2866,324.688,946.718,-0.358267,-0.427255,-1.64912,
2026_07_06_19_07_06.470,3.854,32.4,0,0.761,0,0,0,0, ,0,0,0,0,0, ,-38.5,323.6,946,-0.5,-0.5,-1.7,25,-38.2844,324.607,946.668,-0.369951,-0.428641,-1.65222,
2026_07_06_19_07_06.490,3.854,32.4,0,0.762,0,0,0,0, ,0,0,0,0,0, ,-38.9,324.7,948.3,-0.4,-0.4,-1.6,25,-38.3097,324.579,946.697,-0.374829,-0.429943,-1.65208,
2026_07_06_19_07_06.509,3.854,32.4,0,0.76,0,0,0,0, ,0,0,0,0,0, ,-37.5,325.4,946.8,-0.5,-0.5,-1.6,25,-38.303,324.608,946.749,-0.37941,-0.431165,-1.64891,
2026_07_06_19_07_06.530,3.854,32.4,0,0.76,0,0,0,0, ,0,0,0,0,0, ,-38.3,323.7,947.7,-0.4,-0.4,-1.7,25,-38.2785,324.604,946.78,-0.383711,-0.432313,-1.64897,
2026_07_06_19_07_06.550,3.854,32.4,0,0.761,0,0,0,0, ,0,0,0,0,0, ,-38.9,324.7,946.2,-0.4,-0.4,-1.6,25,-38.298,324.58,946.79,-0.384704,-0.430344,-1.64904,
2026_07_06_19_07_06.569,3.854,32.4,0,0.761,0,0,0,0, ,0,0,0,0,0, ,-38.4,323.1,946.1,-0.2,-0.4,-1.7,25,-38.3195,324.538,946.751,-0.379542,-0.428495,-1.64909,
2026_07_06_19_07_06.588,3.854,32.4,0,0.761,0,0,0,0, ,0,0,0,0,0, ,-38.5,324.3,945.3,-0.4,-0.4,-1.6,25,-38.3274,324.487,946.687,-0.374695,-0.426758,-1.64915,
2026_07_06_19_07_06.616,3.854,32.4,0,0.762,0,0,0,0, ,0,0,0,0,0, ,-38.4,323.3,945.6,-0.4,-0.5,-1.6,25,-38.3349,324.445,946.612,-0.376237,-0.428175,-1.64616,
2026_07_06_19_07_06.630,3.854,32.4,0,0.76,0,0,0,0, ,0,0,0,0,0, ,-39.1,324.8,947,-0.5,-0.4,-1.6,25,-38.3602,324.421,946.593,-0.380732,-0.429505,-1.64334,
2026_07_06_19_07_06.648,3.854,32.4,0,0.761,0,0,0,0, ,0,0,0,0,0, ,-38,323.3,949,-0.3,-0.4,-1.6,25,-38.3718,324.399,946.678,-0.381906,-0.427707,-1.6407,
2026_07_06_19_07_06.669,3.854,32.4,0,0.761,0,0,0,0, ,0,0,0,0,0, ,-37.8,323.6,948.1,-0.3,-0.4,-1.6,25,-38.343,324.341,946.792,-0.376915,-0.426018,-1.63822,
2026_07_06_19_07_06.687,3.854,32.4,0,0.761,0,0,0,0, ,0,0,0,0,0, ,-38,322.5,947.1,-0.2,-0.3,-1.6,25,-38.316,324.262,946.842,-0.369181,-0.421386,-1.63589,
2026_07_06_19_07_06.708,3.854,32.4,0,0.761,0,0,0,0, ,0,0,0,0,0, ,-38,323.8,947.9,-0.1,-0.4,-1.7,25,-38.2968,324.194,946.882,-0.355825,-0.417036,-1.63675,
2026_07_06_19_07_06.728,3.854,32.5,0,0.76,0,0,0,0, ,0,0,0,0,0, ,-38.9,325.3,946.5,-0.1,-0.4,-1.7,25,-38.3061,324.216,946.901,-0.340235,-0.415998,-1.64061,
2026_07_06_19_07_06.748,3.854,32.4,0,0.76,0,0,0,0, ,0,0,0,0,0, ,-38.4,323.8,948.2,-0.2,-0.4,-1.6,25,-38.3271,324.236,946.929,-0.328643,-0.415023,-1.64118,
2026_07_06_19_07_06.768,3.854,32.3,0,0.761,0,0,0,0, ,0,0,0,0,0, ,-38.4,323.2,944.5,-0.3,-0.4,-1.6,25,-38.3315,324.191,946.893,-0.323851,-0.414107,-1.63867,
2026_07_06_19_07_06.787,3.854,32.3,0,0.76,0,0,0,0, ,0,0,0,0,0, ,-38,324.4,945.4,-0.3,-0.4,-1.7,25,-38.3235,324.168,946.775,-0.322397,-0.413248,-1.63936,
2026_07_06_19_07_06.807,3.854,32.4,0,0.761,0,0,0,0, ,0,0,0,0,0, ,-37.4,324,945.9,-0.2,-0.4,-1.7,25,-38.2855,324.17,946.706,-0.317986,-0.41244,-1.64305,
2026_07_06_19_07_06.826,3.854,32.4,0,0.761,0,0,0,0, ,0,0,0,0,0, ,-38.5,325,947.8,-0.1,-0.4,-1.6,25,-38.2651,324.19,946.715,-0.307749,-0.411682,-1.64348,
2026_07_06_19_07_06.847,3.854,32.5,0,0.76,0,0,0,0, ,0,0,0,0,0, ,-39.4,323.9,947.6,-0.1,-0.4,-1.7,25,-38.3068,324.206,946.775,-0.295089,-0.41097,-1.64388,
2026_07_06_19_07_06.867,3.854,32.3,0,0.761,0,0,0,0, ,0,0,0,0,0, ,-38.2,324.3,947.5,-0.1,-0.3,-1.6,25,-38.3368,324.199,946.822,-0.283201,-0.407255,-1.64425,
2026_07_06_19_07_06.886,3.854,32.5,0,0.76,0,0,0,0, ,0,0,0,0,0, ,-38.4,324.8,947.3,-0.2,-0.5,-1.7,25,-38.3346,324.221,946.858,-0.275084,-0.406813,-1.6446,
2026_07_06_19_07_06.906,3.854,32.4,0,0.76,0,0,0,0, ,0,0,0,0,0, ,-38.2,325.1,947.1,-0.2,-0.5,-1.6,25,-38.3325,324.265,946.878,-0.270509,-0.412492,-1.64493,
2026_07_06_19_07_06.925,3.854,32.4,0,0.761,0,0,0,0, ,0,0,0,0,0, ,-38.4,325.5,947,-0.2,-0.4,-1.6,25,-38.3305,324.328,946.889,-0.266212,-0.414777,-1.64219,
2026_07_06_19_07_06.945,3.854,32.4,0,0.762,0,0,0,0, ,0,0,0,0,0, ,-37.3,325.4,946.7,-0.4,-0.5,-1.6,25,-38.3012,324.396,946.886,-0.268271,-0.416924,-1.63962,
2026_07_06_19_07_06.965,3.854,32.4,0,0.76,0,0,0,0, ,0,0,0,0,0, ,-38.9,326.5,945.9,-0.3,-0.4,-1.6,25,-38.289,324.491,946.851,-0.273251,-0.418939,-1.63721,
2026_07_06_19_07_06.986,3.854,32.4,0,0.761,0,0,0,0, ,0,0,0,0,0, ,-39.4,325.6,947.5,-0.2,-0.4,-1.6,25,-38.3414,324.586,946.842,-0.271834,-0.417785,-1.63494,
2026_07_06_19_07_07.006,3.854,32.4,0,0.761,0,0,0,0, ,0,0,0,0,0, ,-38.6,322.9,946.4,-0.3,-0.5,-1.6,25,-38.3816,324.566,946.848,-0.270504,-0.419748,-1.63281,
2026_07_06_19_07_07.026,3.854,32.4,0,0.761,0,0,0,0, ,0,0,0,0,0, ,-37.7,323.6,946.6,-0.3,-0.4,-1.6,25,-38.3675,324.485,946.827,-0.272301,-0.421592,-1.63081,
2026_07_06_19_07_07.045,3.854,32.4,0,0.76,0,0,0,0, ,0,0,0,0,0, ,-38.8,323.7,947.3,-0.3,-0.5,-1.6,25,-38.3603,324.435,946.834,-0.273989,-0.423323,-1.62893,
2026_07_06_19_07_07.064,3.854,32.4,0,0.761,0,0,0,0, ,0,0,0,0,0, ,-38.5,324.7,948.3,-0.3,-0.4,-1.8,25,-38.378,324.42,946.893,-0.275574,-0.424948,-1.63326,
2026_07_06_19_07_07.084,3.854,32.4,0,0.762,0,0,0,0, ,0,0,0,0,0, ,-37.7,324,944.7,-0.3,-0.4,-1.6,25,-38.361,324.416,946.869,-0.277063,-0.423428,-1.63733,
2026_07_06_19_07_07.104,3.854,32.4,0,0.761,0,0,0,0, ,0,0,0,0,0, ,-39.1,324.2,947.6,-0.2,-0.4,-1.7,25,-38.3634,324.397,946.825,-0.275414,-0.422001,-1.6381,
2026_07_06_19_07_07.124,3.854,32.4,0,0.76,0,0,0,0, ,0,0,0,0,0, ,-38.3,323.9,947.6,-0.1,-0.4,-1.6,25,-38.3839,324.376,946.873,-0.267771,-0.42066,-1.63883,
2026_07_06_19_07_07.143,3.854,32.4,0,0.761,0,0,0,0, ,0,0,0,0,0, ,-38.2,325.3,947,-0.2,-0.4,-1.7,25,-38.3757,324.389,946.899,-0.260594,-0.419401,-1.63951,
2026_07_06_19_07_07.164,3.854,32.4,0,0.763,0,0,0,0, ,0,0,0,0,0, ,-38.6,323.6,946.2,-0.2,-0.4,-1.7,25,-38.3772,324.393,946.881,-0.256902,-0.418219,-1.64319,
2026_07_06_19_07_07.184,3.854,32.4,0,0.761,0,0,0,0, ,0,0,0,0,0, ,-37.7,324.2,946,-0.1,-0.4,-1.6,25,-38.3634,324.363,946.833,-0.250388,-0.417108,-1.64361,
2026_07_06_19_07_07.203,3.854,32.4,0,0.761,0,0,0,0, ,0,0,0,0,0, ,-37.3,324.3,946.2,-0.2,-0.4,-1.6,25,-38.3108,324.356,946.788,-0.24427,-0.416066,-1.64095,
2026_07_06_19_07_07.223,3.854,32.4,0,0.76,0,0,0,0, ,0,0,0,0,0, ,-40.4,323.2,946.8,-0.2,-0.4,-1.7,25,-38.3436,324.319,946.771,-0.241573,-0.415087,-1.6415,
2026_07_06_19_07_07.242,3.854,32.4,0,0.761,0,0,0,0, ,0,0,0,0,0, ,-38.4,324.3,947.2,-0.1,-0.4,-1.6,25,-38.408,324.284,946.785,-0.235992,-0.414168,-1.64202,
2026_07_06_19_07_07.262,3.854,32.4,0,0.761,0,0,0,0, ,0,0,0,0,0, ,-38.9,324.5,946.5,-0.2,-0.5,-1.6,25,-38.4227,324.291,946.789,-0.230752,-0.416351,-1.63946,
2026_07_06_19_07_07.283,3.854,32.4,0,0.761,0,0,0,0, ,0,0,0,0,0, ,-37.8,324,946.5,-0.1,-0.4,-1.6,25,-38.4183,324.289,946.771,-0.225831,-0.418402,-1.63706,
2026_07_06_19_07_07.302,3.854,32.3,0,0.761,0,0,0,0, ,0,0,0,0,0, ,-37.1,324.5,946.4,-0.1,-0.5,-1.7,25,-38.3593,324.287,946.752,-0.218164,-0.420327,-1.63784,
2026_07_06_19_07_07.322,3.854,32.4,0,0.761,0,0,0,0, ,0,0,0,0,0, ,-38,325.1,945.8,-0.2,-0.4,-1.7,25,-38.31,324.318,946.712,-0.21401,-0.422135,-1.64163,
2026_07_06_19_07_07.342,3.854,32.4,0,0.762,0,0,0,0, ,0,0,0,0,0, ,-38.5,324.5,943.9,-0.3,-0.5,-1.7,25,-38.3063,324.347,946.598,-0.216203,-0.423833,-1.64519,
2026_07_06_19_07_07.363,3.854,32.4,0,0.761,0,0,0,0, ,0,0,0,0,0, ,-37.4,325.5,946,-0.3,-0.4,-1.6,25,-38.2846,324.387,946.498,-0.221309,-0.425428,-1.64548,
2026_07_06_19_07_07.382,3.854,32.4,0,0.761,0,0,0,0, ,0,0,0,0,0, ,-38.5,325.6,947.9,-0.3,-0.4,-1.6,25,-38.2642,324.458,946.525,-0.226105,-0.423878,-1.64271,
2026_07_06_19_07_07.402,3.854,32.4,0,0.762,0,0,0,0, ,0,0,0,0,0, ,-37.9,325.4,948.7,-0.4,-0.4,-1.6,25,-38.2603,324.521,946.634,-0.233654,-0.422423,-1.64011,
2026_07_06_19_07_07.421,3.854,32.5,0,0.761,0,0,0,0, ,0,0,0,0,0, ,-37.1,323.8,948.6,-0.4,-0.4,-1.7,25,-38.214,324.526,946.756,-0.243791,-0.421057,-1.64071,
2026_07_06_19_07_07.441,3.854,32.4,0,0.76,0,0,0,0, ,0,0,0,0,0, ,-38,325.9,946,-0.3,-0.4,-1.7,25,-38.1735,324.546,946.79,-0.250263,-0.419774,-1.64432,
2026_07_06_19_07_07.461,3.854,32.4,0,0.761,0,0,0,0, ,0,0,0,0,0, ,-36.9,324.8,946.7,-0.3,-0.4,-1.7,25,-38.1294,324.595,946.763,-0.253294,-0.418569,-1.64772,
2026_07_06_19_07_07.481,3.854,32.4,0,0.761,0,0,0,0, ,0,0,0,0,0, ,-37.7,324.5,947,-0.4,-0.5,-1.6,25,-38.0789,324.598,946.768,-0.259187,-0.420484,-1.64786,
2026_07_06_19_07_07.500,3.854,32.4,0,0.761,0,0,0,0, ,0,0,0,0,0, ,-36.8,325.9,945.3,-0.4,-0.4,-1.7,25,-38.0284,324.635,946.73,-0.267768,-0.422283,-1.64799,
2026_07_06_19_07_07.520,3.854,32.5,0,0.761,0,0,0,0, ,0,0,0,0,0, ,-36.9,326,946,-0.5,-0.5,-1.7,25,-37.9566,324.715,946.665,-0.278873,-0.423972,-1.65116,
2026_07_06_19_07_07.540,3.854,32.4,0,0.761,0,0,0,0, ,0,0,0,0,0, ,-39,325.5,947,-0.5,-0.4,-1.7,25,-37.9562,324.778,946.655,-0.292348,-0.425558,-1.65413,
2026_07_06_19_07_07.560,3.854,32.4,0,0.761,0,0,0,0, ,0,0,0,0,0, ,-38,324.8,947.3,-0.5,-0.4,-1.6,25,-37.9893,324.801,946.685,-0.305001,-0.424,-1.65388,
2026_07_06_19_07_07.584,3.854,32.3,0,0.761,0,0,0,0, ,0,0,0,0,0, ,-38.6,323.2,947.3,-0.5,-0.4,-1.6,25,-38.0082,324.752,946.722,-0.316884,-0.422538,-1.6506,
2026_07_06_19_07_07.600,3.854,32.4,0,0.762,0,0,0,0, ,0,0,0,0,0, ,-37.1,323.9,947.6,-0.5,-0.5,-1.6,25,-37.9986,324.679,946.767,-0.328043,-0.424211,-1.64751,
2026_07_06_19_07_07.620,3.854,32.4,0,0.762,0,0,0,0, ,0,0,0,0,0, ,-38.4,323.9,946.1,-0.4,-0.4,-1.6,25,-37.9835,324.631,946.772,-0.335475,-0.425783,-1.64462,
2026_07_06_19_07_07.639,3.854,32.4,0,0.761,0,0,0,0, ,0,0,0,0,0, ,-39.1,325,946.5,-0.3,-0.5,-1.6,25,-38.0302,324.62,946.743,-0.33636,-0.427259,-1.6419,
2026_07_06_19_07_07.659,3.854,32.4,0,0.759,0,0,0,0, ,0,0,0,0,0, ,-39,324,946.2,-0.4,-0.4,-1.6,25,-38.0923,324.613,946.719,-0.337191,-0.428644,-1.63935,
2026_07_06_19_07_07.678,3.854,32.4,0,0.76,0,0,0,0, ,0,0,0,0,0, ,-38.4,324.7,947.7,-0.5,-0.4,-1.6,25,-38.1293,324.597,946.733,-0.344065,-0.426899,-1.63695,
2026_07_06_19_07_07.699,3.854,32.4,0,0.761,0,0,0,0, ,0,0,0,0,0, ,-38.6,324.9,947.1,-0.4,-0.4,-1.6,25,-38.1519,324.609,946.774,-0.350521,-0.42526,-1.6347,
2026_07_06_19_07_07.719,3.854,32.4,0,0.761,0,0,0,0, ,0,0,0,0,0, ,-38.5,324.2,945.5,-0.3,-0.5,-1.7,25,-38.1762,324.606,946.745,-0.350489,-0.426767,-1.63563,
2026_07_06_19_07_07.738,3.854,32.4,0,0.76,0,0,0,0, ,0,0,0,0,0, ,-37.9,326.2,945.8,-0.3,-0.4,-1.6,25,-38.1776,324.642,946.678,-0.347412,-0.428183,-1.63651,
2026_07_06_19_07_07.758,3.854,32.3,0,0.76,0,0,0,0, ,0,0,0,0,0, ,-38.6,324.9,947.2,-0.3,-0.5,-1.7,25,-38.182,324.697,946.667,-0.344523,-0.429513,-1.63733,
2026_07_06_19_07_07.778,3.854,32.4,0,0.759,0,0,0,0, ,0,0,0,0,0, ,-36.8,324.9,946.1,-0.3,-0.5,-1.6,25,-38.1527,324.71,946.666,-0.34181,-0.433808,-1.6381,
2026_07_06_19_07_07.798,3.854,32.4,0,0.76,0,0,0,0, ,0,0,0,0,0, ,-37.9,325.5,948.7,-0.3,-0.4,-1.6,25,-38.1038,324.739,946.711,-0.339262,-0.434795,-1.63578,
2026_07_06_19_07_07.817,3.854,32.4,0,0.76,0,0,0,0, ,0,0,0,0,0, ,-39,325.3,947,-0.4,-0.4,-1.6,25,-38.1249,324.78,946.78,-0.339916,-0.432674,-1.6336,
2026_07_06_19_07_07.837,3.854,32.4,0,0.762,0,0,0,0, ,0,0,0,0,0, ,-37.2,324.9,947.1,-0.4,-0.4,-1.6,25,-38.1233,324.799,946.797,-0.343578,-0.430683,-1.63155,
2026_07_06_19_07_07.857,3.854,32.4,0,0.76,0,0,0,0, ,0,0,0,0,0, ,-37.5,326.1,946.2,-0.2,-0.3,-1.6,25,-38.0762,324.842,946.788,-0.340922,-0.425767,-1.62963,
2026_07_06_19_07_07.877,3.854,32.4,0,0.76,0,0,0,0, ,0,0,0,0,0, ,-37.8,325.9,947.8,-0.4,-0.4,-1.7,25,-38.0502,324.913,946.801,-0.338429,-0.42115,-1.63087,
2026_07_06_19_07_07.897,3.854,32.3,0,0.76,0,0,0,0, ,0,0,0,0,0, ,-38.3,325.8,947,-0.5,-0.5,-1.6,25,-38.0502,324.97,946.837,-0.345227,-0.422908,-1.63204,
2026_07_06_19_07_07.916,3.854,32.4,0,0.761,0,0,0,0, ,0,0,0,0,0, ,-38.8,326.9,947.5,-0.5,-0.4,-1.7,25,-38.0807,325.054,946.862,-0.354659,-0.424559,-1.63313,
2026_07_06_19_07_07.936,3.854,32.4,0,0.761,0,0,0,0, ,0,0,0,0,0, ,-38.4,324.5,947.9,-0.4,-0.4,-1.5,25,-38.1123,325.093,946.913,-0.360469,-0.423062,-1.63111,
2026_07_06_19_07_07.957,3.854,32.4,0,0.76,0,0,0,0, ,0,0,0,0,0, ,-38.5,323.9,946.5,-0.5,-0.4,-1.6,25,-38.1329,325.039,946.931,-0.365925,-0.421657,-1.62617,
2026_07_06_19_07_07.976,3.854,32.4,0,0.76,0,0,0,0, ,0,0,0,0,0, ,-38.4,324.2,946.7,-0.5,-0.4,-1.7,25,-38.1522,324.978,946.911,-0.374095,-0.420337,-1.62762,
2026_07_06_19_07_07.995,3.854,32.4,0,0.76,0,0,0,0, ,0,0,0,0,0, ,-38.9,324,947.5,-0.5,-0.4,-1.6,25,-38.1826,324.925,946.922,-0.381767,-0.419098,-1.62898,
2026_07_06_19_07_08.016,3.854,32.4,0,0.762,0,0,0,0, ,0,0,0,0,0, ,-38.6,325,948.1,-0.4,-0.4,-1.6,25,-38.2171,324.899,946.976,-0.385925,-0.417934,-1.62722,
2026_07_06_19_07_08.036,3.854,32.4,0,0.76,0,0,0,0, ,0,0,0,0,0, ,-39.3,324.2,947.3,-0.5,-0.5,-1.6,25,-38.2618,324.881,947.02,-0.38983,-0.419888,-1.62556,
2026_07_06_19_07_08.055,3.854,32.4,0,0.761,0,0,0,0, ,0,0,0,0,0, ,-38.2,323.9,946.5,-0.4,-0.4,-1.6,25,-38.2915,324.83,947.013,-0.393496,-0.421723,-1.624,
2026_07_06_19_07_08.075,3.854,32.4,0,0.761,0,0,0,0, ,0,0,0,0,0, ,-38.2,325.6,946.6,-0.5,-0.5,-1.7,25,-38.286,324.825,946.984,-0.396939,-0.423446,-1.62559,
2026_07_06_19_07_08.095,3.854,32.4,0,0.761,0,0,0,0, ,0,0,0,0,0, ,-40.5,325,945.6,-0.5,-0.4,-1.6,25,-38.3508,324.854,946.931,-0.40322,-0.425064,-1.62707,
2026_07_06_19_07_08.115,3.854,32.4,0,0.761,0,0,0,0, ,0,0,0,0,0, ,-38.4,324.3,946,-0.3,-0.4,-1.7,25,-38.4178,324.842,946.862,-0.403024,-0.423537,-1.62847,
2026_07_06_19_07_08.134,3.854,32.4,0,0.76,0,0,0,0, ,0,0,0,0,0, ,-38.5,322.7,946.4,-0.4,-0.5,-1.6,25,-38.4198,324.76,946.821,-0.399792,-0.425149,-1.62978,
2026_07_06_19_07_08.154,3.854,32.4,0,0.761,0,0,0,0, ,0,0,0,0,0, ,-37.8,323.6,947.2,-0.5,-0.5,-1.6,25,-38.4033,324.662,946.82,-0.402852,-0.429711,-1.62797,
2026_07_06_19_07_08.173,3.854,32.4,0,0.76,0,0,0,0, ,0,0,0,0,0, ,-38.3,323.4,947.1,-0.4,-0.4,-1.6,25,-38.3818,324.591,946.84,-0.405725,-0.430947,-1.62626,
2026_07_06_19_07_08.194,3.854,32.4,0,0.761,0,0,0,0, ,0,0,0,0,0, ,-37.5,323.2,946.2,-0.3,-0.4,-1.7,25,-38.3524,324.512,946.829,-0.402329,-0.429061,-1.62771,
2026_07_06_19_07_08.213,3.854,32.4,0,0.761,0,0,0,0, ,0,0,0,0,0, ,-39.1,324.7,946.1,-0.3,-0.4,-1.6,25,-38.3492,324.478,946.787,-0.396094,-0.42729,-1.62907,
2026_07_06_19_07_08.234,3.854,32.3,0,0.761,0,0,0,0, ,0,0,0,0,0, ,-38.6,323.6,946.2,-0.4,-0.4,-1.6,25,-38.3797,324.458,946.748,-0.393285,-0.425627,-1.6273,
2026_07_06_19_07_08.252,3.854,32.4,0,0.76,0,0,0,0, ,0,0,0,0,0, ,-38.5,324.2,946.6,-0.3,-0.4,-1.7,25,-38.3901,324.424,946.727,-0.390647,-0.424066,-1.62868,
2026_07_06_19_07_08.272,3.854,32.4,0,0.763,0,0,0,0, ,0,0,0,0,0, ,-38.5,323.4,946.4,-0.3,-0.4,-1.7,25,-38.3968,324.386,946.713,-0.385123,-0.422599,-1.63303,
2026_07_06_19_07_08.293,3.854,32.4,0,0.759,0,0,0,0, ,0,0,0,0,0, ,-38.3,322.7,947.5,-0.3,-0.4,-1.6,25,-38.397,324.305,946.728,-0.379936,-0.421222,-1.63406,
2026_07_06_19_07_08.313,3.854,32.4,0,0.761,0,0,0,0, ,0,0,0,0,0, ,-38.4,323.2,948.1,-0.3,-0.5,-1.7,25,-38.3941,324.222,946.793,-0.375065,-0.422976,-1.63503,
2026_07_06_19_07_08.333,3.854,32.4,0,0.76,0,0,0,0, ,0,0,0,0,0, ,-38.2,323.1,947.9,-0.3,-0.4,-1.7,25,-38.3884,324.157,946.867,-0.370491,-0.424622,-1.63899,
2026_07_06_19_07_08.353,3.854,32.3,0,0.761,0,0,0,0, ,0,0,0,0,0, ,-39.3,324.5,947.5,-0.2,-0.4,-1.6,25,-38.4104,324.135,946.917,-0.363148,-0.423122,-1.63966,
2026_07_06_19_07_08.372,3.854,32.3,0,0.761,0,0,0,0, ,0,0,0,0,0, ,-38.2,323.3,947.9,-0.1,-0.4,-1.7,25,-38.4311,324.121,946.965,-0.35016,-0.421713,-1.64029,
2026_07_06_19_07_08.392,3.854,32.4,0,0.761,0,0,0,0, ,0,0,0,0,0, ,-37.9,324,947.2,-0.2,-0.4,-1.7,25,-38.4079,324.092,947.001,-0.337962,-0.42039,-1.64393,
2026_07_06_19_07_08.412,3.854,32.4,0,0.76,0,0,0,0, ,0,0,0,0,0, ,-38.3,324.8,947.8,-0.2,-0.5,-1.6,25,-38.3891,324.111,947.031,-0.329555,-0.422194,-1.6443,
2026_07_06_19_07_08.432,3.854,32.4,0,0.76,0,0,0,0, ,0,0,0,0,0, ,-38,324.8,945.4,-0.2,-0.5,-1.6,25,-38.3746,324.153,947.005,-0.321661,-0.426936,-1.6416,
2026_07_06_19_07_08.451,3.854,32.3,0,0.761,0,0,0,0, ,0,0,0,0,0, ,-38.6,324.9,947.8,-0.6,-0.4,-1.6,25,-38.37,324.195,946.98,-0.326434,-0.428341,-1.63907,
2026_07_06_19_07_08.471,3.854,32.4,0,0.761,0,0,0,0, ,0,0,0,0,0, ,-38.3,324.9,945.6,-0.5,-0.5,-1.6,25,-38.3749,324.238,946.963,-0.340058,-0.429661,-1.63669,
2026_07_06_19_07_08.491,3.854,32.4,0,0.761,0,0,0,0, ,0,0,0,0,0, ,-38.9,324.7,947.1,-0.4,-0.5,-1.7,25,-38.3886,324.272,946.926,-0.346757,-0.433947,-1.6375,
2026_07_06_19_07_08.511,3.854,32.4,0,0.761,0,0,0,0, ,0,0,0,0,0, ,-38.9,324,947.6,-0.5,-0.4,-1.7,25,-38.4198,324.277,946.952,-0.353049,-0.434925,-1.64131,
2026_07_06_19_07_08.530,3.854,32.3,0,0.761,0,0,0,0, ,0,0,0,0,0, ,-37.8,323.6,947.8,-0.4,-0.4,-1.6,25,-38.4155,324.248,946.997,-0.358957,-0.432797,-1.64184,
2026_07_06_19_07_08.551,3.854,32.4,0,0.762,0,0,0,0, ,0,0,0,0,0, ,-37.4,323.4,947.2,-0.5,-0.4,-1.7,25,-38.3658,324.203,947.028,-0.364505,-0.430799,-1.64233,
2026_07_06_19_07_08.571,3.854,32.4,0,0.76,0,0,0,0, ,0,0,0,0,0, ,-38,324.4,945.8,-0.5,-0.4,-1.7,25,-38.3253,324.184,946.996,-0.372761,-0.428922,-1.64585,
2026_07_06_19_07_08.590,3.854,32.4,0,0.761,0,0,0,0, ,0,0,0,0,0, ,-36.8,323.8,946.7,-0.4,-0.5,-1.7,25,-38.2689,324.179,946.95,-0.377468,-0.430206,-1.64915,
2026_07_06_19_07_08.610,3.854,32.4,0,0.76,0,0,0,0, ,0,0,0,0,0, ,-37.9,322.6,947.3,-0.3,-0.4,-1.7,25,-38.2129,324.119,946.953,-0.375794,-0.431412,-1.65225,
2026_07_06_19_07_08.629,3.854,32.4,0,0.76,0,0,0,0, ,0,0,0,0,0, ,-38.9,322.5,947.9,-0.4,-0.5,-1.7,25,-38.2243,324.024,946.993,-0.374222,-0.432545,-1.65516,
2026_07_06_19_07_08.649,3.854,32.4,0,0.761,0,0,0,0, ,0,0,0,0,0, ,-37.2,323.9,947.7,-0.5,-0.4,-1.5,25,-38.2137,323.973,947.042,-0.37884,-0.433609,-1.65179,
2026_07_06_19_07_08.669,3.854,32.4,0,0.761,0,0,0,0, ,0,0,0,0,0, ,-38.2,324.2,946.1,-0.4,-0.5,-1.7,25,-38.1824,323.978,947.033,-0.383176,-0.434608,-1.64864,
2026_07_06_19_07_08.688,3.854,32.4,0,0.761,0,0,0,0, ,0,0,0,0,0, ,-38.2,323.7,947.6,-0.3,-0.4,-1.6,25,-38.1834,323.976,947.022,-0.381155,-0.435546,-1.64872,
2026_07_06_19_07_08.709,3.854,32.4,0,0.762,0,0,0,0, ,0,0,0,0,0, ,-38.5,323.8,947.1,-0.4,-0.4,-1.6,25,-38.1936,323.963,947.042,-0.379256,-0.433379,-1.64575,
2026_07_06_19_07_08.728,3.854,32.1,0,0.761,0,0,0,0, ,0,0,0,0,0, ,-37.9,322.5,947,-0.5,-0.4,-1.6,25,-38.194,323.913,947.043,-0.383567,-0.431345,-1.64296,
2026_07_06_19_07_08.748,3.854,32.4,0,0.76,0,0,0,0, ,0,0,0,0,0, ,-39.7,322.2,945.1,-0.3,-0.4,-1.6,25,-38.2309,323.818,946.982,-0.384569,-0.429435,-1.64035,
2026_07_06_19_07_08.768,3.854,32.3,0,0.76,0,0,0,0, ,0,0,0,0,0, ,-38.4,323.6,947.3,-0.3,-0.4,-1.7,25,-38.2808,323.762,946.934,-0.379415,-0.427642,-1.64093,
2026_07_06_19_07_08.787,3.854,32.3,0,0.761,0,0,0,0, ,0,0,0,0,0, ,-39.5,323.1,947,-0.3,-0.5,-1.6,25,-38.3216,323.737,946.948,-0.374576,-0.429004,-1.64149,
2026_07_06_19_07_08.808,3.854,32.3,0,0.762,0,0,0,0, ,0,0,0,0,0, ,-37.9,324.5,947.7,-0.3,-0.4,-1.6,25,-38.3447,323.741,946.972,-0.370031,-0.430284,-1.63896,
2026_07_06_19_07_08.828,3.854,32.3,0,0.761,0,0,0,0, ,0,0,0,0,0, ,-38.6,322.8,945.6,-0.2,-0.5,-1.6,25,-38.3389,323.735,946.952,-0.362717,-0.431485,-1.63658,
2026_07_06_19_07_08.847,3.854,32.3,0,0.761,0,0,0,0, ,0,0,0,0,0, ,-38,324.8,949.3,-0.2,-0.4,-1.6,25,-38.3365,323.739,946.983,-0.352801,-0.432613,-1.63436,
2026_07_06_19_07_08.868,3.854,32.4,0,0.761,0,0,0,0, ,0,0,0,0,0, ,-38.4,321.7,945.6,-0.2,-0.4,-1.6,25,-38.3282,323.709,947.011,-0.34349,-0.430626,-1.63226,
2026_07_06_19_07_08.888,3.854,32.4,0,0.761,0,0,0,0, ,0,0,0,0,0, ,-38.4,323.2,947.5,-0.2,-0.4,-1.6,25,-38.3326,323.633,946.983,-0.334746,-0.42876,-1.6303,
2026_07_06_19_07_08.907,3.854,32.4,0,0.761,0,0,0,0, ,0,0,0,0,0, ,-37.8,324.4,947.3,-0.3,-0.4,-1.7,25,-38.3184,323.643,947.009,-0.329582,-0.427007,-1.6315,
2026_07_06_19_07_08.927,3.854,32.4,0,0.761,0,0,0,0, ,0,0,0,0,0, ,-39.3,324,947.2,-0.2,-0.4,-1.6,25,-38.3325,323.677,947.023,-0.324732,-0.425361,-1.63262,
2026_07_06_19_07_08.947,3.854,32.3,0,0.761,0,0,0,0, ,0,0,0,0,0, ,-38.3,324,946,-0.1,-0.5,-1.6,25,-38.361,323.696,946.997,-0.314085,-0.426863,-1.63064,
2026_07_06_19_07_08.966,3.854,32.4,0,0.761,0,0,0,0, ,0,0,0,0,0, ,-38.6,323.1,946.6,-0.2,-0.5,-1.6,25,-38.3664,323.688,946.955,-0.304086,-0.43132,-1.62877,
2026_07_06_19_07_08.985,3.854,32.4,0,0.76,0,0,0,0, ,0,0,0,0,0, ,-38.6,323.2,945.3,-0.3,-0.5,-1.6,25,-38.3807,323.655,946.894,-0.30079,-0.435505,-1.62702,
2026_07_06_19_07_09.006,3.854,32.3,0,0.762,0,0,0,0, ,0,0,0,0,0, ,-39.3,323.7,945.1,-0.1,-0.4,-1.6,25,-38.4154,323.642,946.79,-0.294648,-0.436388,-1.62537,
2026_07_06_19_07_09.025,3.854,32.4,0,0.761,0,0,0,0, ,0,0,0,0,0, ,-37.8,323.6,947.3,-0.1,-0.4,-1.6,25,-38.4236,323.643,946.755,-0.282787,-0.434171,-1.62382,
2026_07_06_19_07_09.046,3.854,32.4,0,0.761,0,0,0,0, ,0,0,0,0,0, ,-38.2,324.3,947.5,-0.1,-0.5,-1.6,25,-38.3977,323.661,946.794,-0.271648,-0.435135,-1.62237,
2026_07_06_19_07_09.065,3.854,32.4,0,0.761,0,0,0,0, ,0,0,0,0,0, ,-38.3,324.5,947.2,-0.2,-0.5,-1.6,25,-38.3887,323.706,946.828,-0.264235,-0.439088,-1.62101,
2026_07_06_19_07_09.085,3.854,32.4,0,0.759,0,0,0,0, ,0,0,0,0,0, ,-38.6,324.9,945.8,-0.2,-0.4,-1.6,25,-38.3925,323.767,946.808,-0.260321,-0.439753,-1.61973,
2026_07_06_19_07_09.112,3.854,32.4,0,0.759,0,0,0,0, ,0,0,0,0,0, ,-37.8,326.9,945.8,-0.1,-0.4,-1.6,25,-38.3807,323.897,946.746,-0.253598,-0.43733,-1.61853,
2026_07_06_19_07_09.132,3.854,32.4,0,0.761,0,0,0,0, ,0,0,0,0,0, ,-37.3,324.4,947.5,-0.1,-0.4,-1.6,25,-38.3301,324.004,946.74,-0.244238,-0.435056,-1.6174,
2026_07_06_19_07_09.145,3.854,32.4,0,0.761,0,0,0,0, ,0,0,0,0,0, ,-38.4,326.1,947.5,-0.1,-0.4,-1.7,25,-38.3009,324.08,946.787,-0.235449,-0.432919,-1.61938,
2026_07_06_19_07_09.165,3.854,32.3,0,0.761,0,0,0,0, ,0,0,0,0,0, ,-38.5,324.7,946.7,-0.3,-0.5,-1.6,25,-38.31,324.16,946.806,-0.233289,-0.43396,-1.62125,
2026_07_06_19_07_09.184,3.854,32.4,0,0.761,0,0,0,0, ,0,0,0,0,0, ,-37.4,322.1,947.3,-0.4,-0.4,-1.7,25,-38.288,324.114,946.818,-0.240401,-0.434938,-1.623,
2026_07_06_19_07_09.205,3.854,32.4,0,0.761,0,0,0,0, ,0,0,0,0,0, ,-39.3,322.6,947.7,-0.5,-0.4,-1.6,25,-38.2918,324.006,946.859,-0.253173,-0.432809,-1.62465,
2026_07_06_19_07_09.223,3.854,32.4,0,0.762,0,0,0,0, ,0,0,0,0,0, ,-38.9,322.2,947.5,-0.5,-0.4,-1.6,25,-38.341,323.909,946.904,-0.268214,-0.430809,-1.62315,
2026_07_06_19_07_09.245,3.854,32.3,0,0.762,0,0,0,0, ,0,0,0,0,0, ,-37.7,325.1,946.7,-0.4,-0.5,-1.6,25,-38.3385,323.893,946.916,-0.279292,-0.431979,-1.62173,
2026_07_06_19_07_09.264,3.854,32.4,0,0.761,0,0,0,0, ,0,0,0,0,0, ,-37.8,323.7,947.5,-0.3,-0.4,-1.6,25,-38.3027,323.924,946.928,-0.283601,-0.433077,-1.62041,
2026_07_06_19_07_09.283,3.854,32.3,0,0.76,0,0,0,0, ,0,0,0,0,0, ,-37.3,323.2,945.8,-0.3,-0.4,-1.6,25,-38.2568,323.895,946.911,-0.2846,-0.431061,-1.61917,
2026_07_06_19_07_09.304,3.854,32.3,0,0.76,0,0,0,0, ,0,0,0,0,0, ,-37.8,324.2,946.8,-0.3,-0.4,-1.7,25,-38.2137,323.883,946.873,-0.285538,-0.429169,-1.62105,
2026_07_06_19_07_09.323,3.854,32.3,0,0.761,0,0,0,0, ,0,0,0,0,0, ,-39.1,325.5,946.5,-0.2,-0.4,-1.7,25,-38.2281,323.942,946.86,-0.283373,-0.427391,-1.62586,
2026_07_06_19_07_09.343,3.854,32.3,0,0.762,0,0,0,0, ,0,0,0,0,0, ,-38,323.2,946.2,-0.2,-0.4,-1.7,25,-38.2478,323.967,946.829,-0.278292,-0.425722,-1.63037,
2026_07_06_19_07_09.363,3.854,32.3,0,0.762,0,0,0,0, ,0,0,0,0,0, ,-39.3,323.2,947.5,-0.3,-0.5,-1.6,25,-38.2723,323.92,946.83,-0.276568,-0.427201,-1.63157,
2026_07_06_19_07_09.383,3.854,32.3,0,0.76,0,0,0,0, ,0,0,0,0,0, ,-38.4,323.1,945.5,-0.2,-0.4,-1.6,25,-38.3075,323.873,946.81,-0.274949,-0.428591,-1.62965,
2026_07_06_19_07_09.410,3.854,32.4,0,0.761,0,0,0,0, ,0,0,0,0,0, ,-38.9,324.5,945.9,-0.3,-0.5,-1.6,25,-38.3283,323.869,946.742,-0.273429,-0.429895,-1.62784,
2026_07_06_19_07_09.422,3.854,32.3,0,0.76,0,0,0,0, ,0,0,0,0,0, ,-37.3,324.7,948.1,-0.2,-0.4,-1.7,25,-38.3144,323.913,946.758,-0.272001,-0.43112,-1.62919,
2026_07_06_19_07_09.441,3.854,32.3,0,0.761,0,0,0,0, ,0,0,0,0,0, ,-37.7,323.2,947,-0.2,-0.4,-1.6,25,-38.2648,323.915,946.806,-0.267614,-0.429224,-1.63046,
2026_07_06_19_07_09.462,3.854,32.3,0,0.761,0,0,0,0, ,0,0,0,0,0, ,-38.6,323.8,945.9,-0.2,-0.4,-1.6,25,-38.2578,323.89,946.785,-0.263493,-0.427443,-1.6286,
2026_07_06_19_07_09.482,3.854,32.4,0,0.761,0,0,0,0, ,0,0,0,0,0, ,-38.8,323.6,947.6,-0.2,-0.4,-1.7,25,-38.2848,323.879,946.782,-0.259624,-0.425771,-1.62991,
2026_07_06_19_07_09.501,3.854,32.3,0,0.76,0,0,0,0, ,0,0,0,0,0, ,-37.9,322.1,947.7,-0.1,-0.4,-1.6,25,-38.2887,323.816,946.835,-0.252944,-0.4242,-1.63113,
2026_07_06_19_07_09.522,3.854,32.3,0,0.76,0,0,0,0, ,0,0,0,0,0, ,-38.2,324.5,947.1,-0.1,-0.5,-1.6,25,-38.2742,323.784,946.87,-0.243624,-0.425773,-1.62923,
2026_07_06_19_07_09.541,3.854,32.3,0,0.761,0,0,0,0, ,0,0,0,0,0, ,-37.7,324,946.4,-0.1,-0.4,-1.7,25,-38.2544,323.813,946.862,-0.234872,-0.427249,-1.6305,
2026_07_06_19_07_09.564,3.854,32.4,0,0.761,0,0,0,0, ,0,0,0,0,0, ,-37.1,323.6,947.2,-0.2,-0.4,-1.6,25,-38.2024,323.812,946.859,-0.2297,-0.425589,-1.63169,
2026_07_06_19_07_09.580,3.854,32.3,0,0.761,0,0,0,0, ,0,0,0,0,0, ,-37.9,324.5,946.5,-0.2,-0.4,-1.6,25,-38.1596,323.827,946.858,-0.22789,-0.424029,-1.62976,
2026_07_06_19_07_09.603,3.854,32.4,0,0.762,0,0,0,0, ,0,0,0,0,0, ,-39.1,325,946.2,-0.2,-0.4,-1.6,25,-38.1803,323.883,946.827,-0.226191,-0.422565,-1.62794,
2026_07_06_19_07_09.620,3.854,32.3,0,0.76,0,0,0,0, ,0,0,0,0,0, ,-37.1,325.6,945.9,-0.1,-0.4,-1.6,25,-38.1754,323.969,946.78,-0.221548,-0.42119,-1.62624,
2026_07_06_19_07_09.643,3.854,32.4,0,0.76,0,0,0,0, ,0,0,0,0,0, ,-37.8,324.4,945.9,-0.2,-0.5,-1.7,25,-38.1312,324.032,946.726,-0.217188,-0.422945,-1.62769,
2026_07_06_19_07_09.660,3.854,32.4,0,0.76,0,0,0,0, ,0,0,0,0,0, ,-37.1,327,946.8,-0.2,-0.4,-1.6,25,-38.0897,324.134,946.703,-0.21614,-0.424594,-1.62905,
2026_07_06_19_07_09.680,3.854,32.3,0,0.761,0,0,0,0, ,0,0,0,0,0, ,-37.7,325.6,948.9,-0.2,-0.4,-1.6,25,-38.0477,324.266,946.773,-0.215157,-0.423095,-1.62728,
2026_07_06_19_07_09.699,3.854,32.3,0,0.762,0,0,0,0, ,0,0,0,0,0, ,-37.8,325.4,945.9,-0.2,-0.5,-1.6,25,-38.0295,324.341,946.811,-0.214233,-0.424735,-1.62562,
2026_07_06_19_07_09.720,3.854,32.4,0,0.759,0,0,0,0, ,0,0,0,0,0, ,-37.8,324.8,947.1,-0.2,-0.4,-1.7,25,-38.0155,324.387,946.792,-0.213366,-0.426275,-1.6271,
2026_07_06_19_07_09.739,3.854,32.3,0,0.761,0,0,0,0, ,0,0,0,0,0, ,-37.8,324.9,947,-0.3,-0.4,-1.7,25,-38.0024,324.415,946.808,-0.215598,-0.424673,-1.63154,
2026_07_06_19_07_09.760,3.854,32.3,0,0.761,0,0,0,0, ,0,0,0,0,0, ,-38,325,947.6,-0.3,-0.4,-1.7,25,-37.9962,324.448,946.838,-0.220742,-0.42317,-1.63572,
2026_07_06_19_07_09.778,3.854,32.3,0,0.761,0,0,0,0, ,0,0,0,0,0, ,-38.3,323.8,947.8,-0.2,-0.5,-1.6,25,-38.0055,324.445,946.891,-0.222524,-0.424805,-1.63659,
2026_07_06_19_07_09.799,3.854,32.3,0,0.761,0,0,0,0, ,0,0,0,0,0, ,-37.7,325.1,947,-0.3,-0.4,-1.6,25,-38.0052,324.445,946.922,-0.224199,-0.42634,-1.63436,
2026_07_06_19_07_09.819,3.854,32.3,0,0.76,0,0,0,0, ,0,0,0,0,0, ,-37.1,324.3,946.2,-0.4,-0.4,-1.6,25,-37.9683,324.461,946.902,-0.231865,-0.424735,-1.63226,
2026_07_06_19_07_09.839,3.854,32.3,0,0.759,0,0,0,0, ,0,0,0,0,0, ,-37.5,324.3,947,-0.4,-0.4,-1.7,25,-37.9276,324.451,946.884,-0.242111,-0.423228,-1.63334,
2026_07_06_19_07_09.858,3.854,32.3,0,0.76,0,0,0,0, ,0,0,0,0,0, ,-38,325.1,945.4,-0.4,-0.4,-1.6,25,-37.9168,324.466,946.842,-0.251732,-0.421812,-1.63436,
2026_07_06_19_07_09.879,3.854,32.3,0,0.76,0,0,0,0, ,0,0,0,0,0, ,-37.4,324.5,946.2,-0.4,-0.5,-1.6,25,-37.9036,324.487,946.778,-0.260767,-0.42353,-1.63226,
2026_07_06_19_07_09.898,3.854,32.3,0,0.76,0,0,0,0, ,0,0,0,0,0, ,-39,325.3,947,-0.4,-0.4,-1.6,25,-37.9216,324.512,946.768,-0.269251,-0.425143,-1.6303,
2026_07_06_19_07_09.918,3.854,32.3,0,0.76,0,0,0,0, ,0,0,0,0,0, ,-37.5,325.1,946.1,-0.5,-0.5,-1.7,25,-37.9416,324.554,946.754,-0.280266,-0.426658,-1.6315,
2026_07_06_19_07_09.938,3.854,32.3,0,0.76,0,0,0,0, ,0,0,0,0,0, ,-37.9,323.9,945.4,-0.2,-0.5,-1.6,25,-37.9269,324.55,946.693,-0.284515,-0.431127,-1.63263,
2026_07_06_19_07_09.958,3.854,32.3,0,0.761,0,0,0,0, ,0,0,0,0,0, ,-38.9,323.9,946.7,-0.2,-0.5,-1.6,25,-37.9557,324.511,946.654,-0.279365,-0.435324,-1.63064,
2026_07_06_19_07_09.982,3.854,32.3,0,0.761,0,0,0,0, ,0,0,0,0,0, ,-38.5,324,946.7,-0.2,-0.4,-1.7,25,-38.0011,324.477,946.657,-0.274529,-0.436218,-1.63182,
2026_07_06_19_07_10.002,3.854,32.3,0,0.761,0,0,0,0, ,0,0,0,0,0, ,-38.3,324.4,945.4,-0.2,-0.4,-1.6,25,-38.0254,324.46,946.62,-0.269987,-0.434011,-1.63293,
2026_07_06_19_07_10.017,3.854,32.3,0,0.761,0,0,0,0, ,0,0,0,0,0, ,-39.1,323.4,946.2,-0.1,-0.4,-1.6,25,-38.0665,324.426,946.57,-0.262675,-0.431939,-1.63092,
2026_07_06_19_07_10.037,3.854,32.3,0,0.761,0,0,0,0, ,0,0,0,0,0, ,-38,324.4,945.8,-0.1,-0.4,-1.6,25,-38.096,324.394,946.535,-0.252762,-0.429992,-1.62904,
2026_07_06_19_07_10.057,3.854,32.3,0,0.76,0,0,0,0, ,0,0,0,0,0, ,-37.5,325.5,946,-0.2,-0.4,-1.6,25,-38.0749,324.427,946.496,-0.2465,-0.428165,-1.62727,
2026_07_06_19_07_10.079,3.854,32.3,0,0.761,0,0,0,0, ,0,0,0,0,0, ,-38.3,325,947.7,-0.1,-0.4,-1.7,25,-38.0642,324.478,946.518,-0.24062,-0.426448,-1.62865,
2026_07_06_19_07_10.096,3.854,32.4,0,0.761,0,0,0,0, ,0,0,0,0,0, ,-38.5,325.1,947.3,-0.1,-0.4,-1.6,25,-38.0847,324.512,946.578,-0.232051,-0.424837,-1.62995,
2026_07_06_19_07_10.119,3.854,32.4,0,0.763,0,0,0,0, ,0,0,0,0,0, ,-38.6,326.9,946.5,-0.2,-0.4,-1.7,25,-38.113,324.603,946.597,-0.227051,-0.423323,-1.63117,
2026_07_06_19_07_10.135,3.854,32.3,0,0.761,0,0,0,0, ,0,0,0,0,0, ,-37.4,325.1,946,-0.2,-0.4,-1.6,25,-38.1062,324.688,946.576,-0.225402,-0.421902,-1.63232,
2026_07_06_19_07_10.156,3.854,32.4,0,0.761,0,0,0,0, ,0,0,0,0,0, ,-39.1,326.5,946.8,-0.2,-0.4,-1.7,25,-38.1149,324.756,946.566,-0.223855,-0.420567,-1.6334,
2026_07_06_19_07_10.175,3.854,32.3,0,0.76,0,0,0,0, ,0,0,0,0,0, ,-38.5,324.3,946.8,-0.2,-0.5,-1.6,25,-38.1567,324.795,946.58,-0.222401,-0.422361,-1.63441,
2026_07_06_19_07_10.197,3.854,32.3,0,0.761,0,0,0,0, ,0,0,0,0,0, ,-38.4,324.2,947.5,-0.2,-0.4,-1.6,25,-38.1745,324.762,946.615,-0.221036,-0.424045,-1.63231,
2026_07_06_19_07_10.216,3.854,32.3,0,0.76,0,0,0,0, ,0,0,0,0,0, ,-39.7,325.9,947.2,-0.3,-0.4,-1.6,25,-38.2279,324.78,946.659,-0.222801,-0.42258,-1.63034,
2026_07_06_19_07_10.237,3.854,32.3,0,0.761,0,0,0,0, ,0,0,0,0,0, ,-37.8,326.7,947.7,-0.3,-0.4,-1.6,25,-38.2597,324.872,946.708,-0.227505,-0.421204,-1.6285,
2026_07_06_19_07_10.254,3.854,32.3,0,0.763,0,0,0,0, ,0,0,0,0,0, ,-38.6,325.1,947,-0.3,-0.4,-1.6,25,-38.2561,324.935,946.747,-0.231923,-0.419912,-1.62676,
2026_07_06_19_07_10.279,3.854,32.1,0,0.76,0,0,0,0, ,0,0,0,0,0, ,-37.5,325.9,947.9,-0.3,-0.5,-1.6,25,-38.2435,324.969,946.79,-0.236071,-0.421745,-1.62513,
2026_07_06_19_07_10.300,3.854,32.3,0,0.76,0,0,0,0, ,0,0,0,0,0, ,-38.4,324.3,945.5,-0.4,-0.4,-1.6,25,-38.2256,324.977,946.784,-0.243014,-0.423467,-1.6236,
2026_07_06_19_07_10.322,3.854,32.3,0,0.76,0,0,0,0, ,0,0,0,0,0, ,-38.4,325.5,945.8,-0.4,-0.4,-1.6,25,-38.2363,324.973,946.715,-0.25258,-0.422037,-1.62216,
2026_07_06_19_07_10.333,3.854,32.3,0,0.761,0,0,0,0, ,0,0,0,0,0, ,-38.2,325.5,946.4,-0.3,-0.4,-1.6,25,-38.2401,325.005,946.678,-0.258517,-0.420694,-1.62081,
2026_07_06_19_07_10.355,3.854,32.3,0,0.761,0,0,0,0, ,0,0,0,0,0, ,-36.9,325.1,948.1,-0.4,-0.4,-1.7,25,-38.1981,325.023,946.712,-0.264091,-0.419433,-1.62259,
2026_07_06_19_07_10.373,3.854,32.3,0,0.76,0,0,0,0, ,0,0,0,0,0, ,-38,324,946.8,-0.6,-0.4,-1.6,25,-38.1525,324.994,946.757,-0.278467,-0.418249,-1.62426,
2026_07_06_19_07_10.394,3.854,32.1,0,0.761,0,0,0,0, ,0,0,0,0,0, ,-38.5,324.5,944.8,-0.5,-0.5,-1.7,25,-38.1584,324.949,946.699,-0.295014,-0.420184,-1.62583,
2026_07_06_19_07_10.412,3.854,32.3,0,0.761,0,0,0,0, ,0,0,0,0,0, ,-38.5,323.8,946.2,-0.4,-0.4,-1.7,25,-38.1793,324.9,946.626,-0.304458,-0.422001,-1.63035,
2026_07_06_19_07_10.434,3.854,32.3,0,0.761,0,0,0,0, ,0,0,0,0,0, ,-38.6,323.8,947.8,-0.4,-0.4,-1.6,25,-38.2018,324.833,946.649,-0.31028,-0.42066,-1.63154,
2026_07_06_19_07_10.453,3.854,32.3,0,0.761,0,0,0,0, ,0,0,0,0,0, ,-38.4,323.9,947.6,-0.5,-0.4,-1.6,25,-38.22,324.773,946.713,-0.318794,-0.419401,-1.62962,
2026_07_06_19_07_10.474,3.854,32.3,0,0.761,0,0,0,0, ,0,0,0,0,0, ,-38,323.4,945,-0.5,-0.5,-1.6,25,-38.2188,324.705,946.688,-0.329837,-0.421266,-1.62782,
2026_07_06_19_07_10.492,3.854,32.3,0,0.76,0,0,0,0, ,0,0,0,0,0, ,-37.5,323.2,947.7,-0.4,-0.4,-1.7,25,-38.1902,324.619,946.667,-0.337159,-0.423017,-1.62917,
2026_07_06_19_07_10.514,3.854,32.4,0,0.761,0,0,0,0, ,0,0,0,0,0, ,-38,324.2,946.4,-0.4,-0.5,-1.6,25,-38.1634,324.563,946.69,-0.340988,-0.424661,-1.63044,
2026_07_06_19_07_10.532,3.854,32.4,0,0.761,0,0,0,0, ,0,0,0,0,0, ,-37.9,322.6,946.8,-0.4,-0.4,-1.6,25,-38.1504,324.492,946.685,-0.344584,-0.426205,-1.62858,
2026_07_06_19_07_10.552,3.854,32.3,0,0.761,0,0,0,0, ,0,0,0,0,0, ,-37.8,323.7,947.5,-0.5,-0.5,-1.6,25,-38.1321,324.41,946.713,-0.351008,-0.427655,-1.62684,
2026_07_06_19_07_10.571,3.854,32.3,0,0.761,0,0,0,0, ,0,0,0,0,0, ,-37.7,324.3,946.4,-0.5,-0.5,-1.7,25,-38.1088,324.385,946.728,-0.360087,-0.432064,-1.62825,
2026_07_06_19_07_10.592,3.854,32.3,0,0.76,0,0,0,0, ,0,0,0,0,0, ,-39.4,323.6,945.3,-0.3,-0.4,-1.6,25,-38.1357,324.359,946.674,-0.36252,-0.433157,-1.62958,
2026_07_06_19_07_10.614,3.854,32.3,0,0.761,0,0,0,0, ,0,0,0,0,0, ,-37.7,323.4,947.2,-0.2,-0.4,-1.6,25,-38.1609,324.306,946.648,-0.355663,-0.431136,-1.62778,
2026_07_06_19_07_10.636,3.854,32.3,0,0.759,0,0,0,0, ,0,0,0,0,0, ,-38.8,322.5,946.2,-0.4,-0.4,-1.6,25,-38.1664,324.224,946.651,-0.352271,-0.429239,-1.62608,
2026_07_06_19_07_10.650,3.854,32.3,0,0.761,0,0,0,0, ,0,0,0,0,0, ,-37.2,324.9,948.2,-0.3,-0.4,-1.6,25,-38.1562,324.192,946.685,-0.352133,-0.427457,-1.62449,
2026_07_06_19_07_10.673,3.854,32.3,0,0.76,0,0,0,0, ,0,0,0,0,0, ,-39.3,325.3,946.8,-0.4,-0.4,-1.6,25,-38.1619,324.247,946.735,-0.352003,-0.425784,-1.623,
2026_07_06_19_07_10.690,3.854,32.3,0,0.76,0,0,0,0, ,0,0,0,0,0, ,-39.6,325.5,945.5,-0.4,-0.4,-1.6,25,-38.2404,324.317,946.699,-0.354927,-0.424213,-1.6216,
2026_07_06_19_07_10.712,3.854,32.3,0,0.76,0,0,0,0, ,0,0,0,0,0, ,-38,325.5,946.5,-0.4,-0.4,-1.6,25,-38.2745,324.39,946.656,-0.357674,-0.422737,-1.62028,
2026_07_06_19_07_10.730,3.854,32.3,0,0.76,0,0,0,0, ,0,0,0,0,0, ,-38.3,324.9,947.1,-0.4,-0.4,-1.6,25,-38.2669,324.439,946.665,-0.360253,-0.421352,-1.61905,
2026_07_06_19_07_10.751,3.854,32.3,0,0.761,0,0,0,0, ,0,0,0,0,0, ,-38.6,323.7,947,-0.5,-0.5,-1.6,25,-38.2781,324.43,946.689,-0.365722,-0.423097,-1.61789,
2026_07_06_19_07_10.770,3.854,32.3,0,0.76,0,0,0,0, ,0,0,0,0,0, ,-37.5,324.7,946.7,-0.5,-0.5,-1.6,25,-38.2642,324.416,946.698,-0.373905,-0.427784,-1.6168,
2026_07_06_19_07_10.793,3.854,32.3,0,0.76,0,0,0,0, ,0,0,0,0,0, ,-37.8,324.9,946.6,-0.4,-0.5,-1.7,25,-38.2268,324.44,946.695,-0.378542,-0.432184,-1.61882,
2026_07_06_19_07_10.809,3.854,32.3,0,0.761,0,0,0,0, ,0,0,0,0,0, ,-37.5,324.5,947.3,-0.5,-0.4,-1.6,25,-38.1916,324.456,946.711,-0.382896,-0.43327,-1.62072,
2026_07_06_19_07_10.832,3.854,32.1,0,0.76,0,0,0,0, ,0,0,0,0,0, ,-40.1,324.2,947.6,-0.5,-0.5,-1.7,25,-38.2287,324.449,946.756,-0.390032,-0.434289,-1.6225,
2026_07_06_19_07_10.848,3.854,32.3,0,0.759,0,0,0,0, ,0,0,0,0,0, ,-38.3,323.3,947.1,-0.5,-0.4,-1.7,25,-38.2879,324.407,946.792,-0.396733,-0.435247,-1.62723,
2026_07_06_19_07_10.870,3.854,32.3,0,0.761,0,0,0,0, ,0,0,0,0,0, ,-39.1,324.5,945.9,-0.4,-0.4,-1.6,25,-38.313,324.376,946.774,-0.399979,-0.433099,-1.62861,
2026_07_06_19_07_10.889,3.854,32.3,0,0.759,0,0,0,0, ,0,0,0,0,0, ,-37.9,323.6,947.1,-0.4,-0.5,-1.7,25,-38.3244,324.356,946.758,-0.399981,-0.434129,-1.62992,
2026_07_06_19_07_10.910,3.854,32.1,0,0.76,0,0,0,0, ,0,0,0,0,0, ,-37.2,325.5,947.2,-0.4,-0.4,-1.6,25,-38.2772,324.368,946.782,-0.399982,-0.435096,-1.63114,
2026_07_06_19_07_10.928,3.854,32.3,0,0.76,0,0,0,0, ,0,0,0,0,0, ,-39,323.7,948.3,-0.5,-0.4,-1.6,25,-38.2664,324.382,946.841,-0.40303,-0.432957,-1.62924,
2026_07_06_19_07_10.948,3.854,32.3,0,0.762,0,0,0,0, ,0,0,0,0,0, ,-38.2,322.7,946.7,-0.4,-0.4,-1.6,25,-38.2867,324.31,946.881,-0.405892,-0.430949,-1.62746,
2026_07_06_19_07_10.968,3.854,32.3,0,0.76,0,0,0,0, ,0,0,0,0,0, ,-37.2,322.8,946.2,-0.3,-0.4,-1.7,25,-38.251,324.215,946.855,-0.402486,-0.429063,-1.62884,
2026_07_06_19_07_10.990,3.854,32.4,0,0.76,0,0,0,0, ,0,0,0,0,0, ,-38.2,323.8,944.5,-0.3,-0.4,-1.6,25,-38.2174,324.159,946.763,-0.396241,-0.427292,-1.63012,
2026_07_06_19_07_11.007,3.854,32.1,0,0.761,0,0,0,0, ,0,0,0,0,0, ,-38.3,323.4,947.5,-0.3,-0.4,-1.7,25,-38.2194,324.125,946.716,-0.390376,-0.425629,-1.63134,
2026_07_06_19_07_11.028,3.854,32.3,0,0.76,0,0,0,0, ,0,0,0,0,0, ,-37.2,323.2,945.8,-0.3,-0.4,-1.7,25,-38.1908,324.075,946.712,-0.384869,-0.424067,-1.63552,
2026_07_06_19_07_11.047,3.854,32.4,0,0.76,0,0,0,0, ,0,0,0,0,0, ,-38,324.4,945.6,-0.3,-0.4,-1.6,25,-38.1548,324.058,946.651,-0.379697,-0.422601,-1.6364,
2026_07_06_19_07_11.069,3.854,32.3,0,0.761,0,0,0,0, ,0,0,0,0,0, ,-38.2,323.7,946.6,-0.2,-0.5,-1.5,25,-38.1514,324.057,946.617,-0.371794,-0.42427,-1.63114,
2026_07_06_19_07_11.087,3.854,32.3,0,0.76,0,0,0,0, ,0,0,0,0,0, ,-38.5,324.4,947,-0.3,-0.4,-1.6,25,-38.1635,324.057,946.628,-0.364372,-0.425838,-1.62619,
2026_07_06_19_07_11.109,3.854,32.4,0,0.76,0,0,0,0, ,0,0,0,0,0, ,-38.6,323.6,946.7,-0.2,-0.4,-1.6,25,-38.1871,324.054,946.642,-0.357402,-0.424264,-1.6246,
2026_07_06_19_07_11.127,3.854,32.3,0,0.76,0,0,0,0, ,0,0,0,0,0, ,-37.7,323.6,946.2,-0.2,-0.5,-1.6,25,-38.1848,324.026,946.63,-0.347811,-0.425832,-1.6231,
2026_07_06_19_07_11.148,3.854,32.3,0,0.761,0,0,0,0, ,0,0,0,0,0, ,-38.5,324.7,947.5,-0.2,-0.5,-1.6,25,-38.1797,324.033,946.643,-0.338804,-0.430352,-1.62169,
2026_07_06_19_07_11.165,3.854,32.3,0,0.76,0,0,0,0, ,0,0,0,0,0, ,-38.5,324.7,947.8,-0.2,-0.5,-1.8,25,-38.1992,324.074,946.705,-0.330345,-0.434596,-1.62646,
2026_07_06_19_07_11.189,3.854,32.3,0,0.761,0,0,0,0, ,0,0,0,0,0, ,-38.8,323.7,947.5,-0.2,-0.4,-1.6,25,-38.2267,324.082,946.762,-0.322402,-0.435534,-1.63094,
2026_07_06_19_07_11.206,3.854,32.3,0,0.761,0,0,0,0, ,0,0,0,0,0, ,-39.3,324.2,946.8,-0.2,-0.4,-1.6,25,-38.2768,324.074,946.786,-0.314943,-0.433369,-1.62906,
2026_07_06_19_07_11.228,3.854,32.1,0,0.76,0,0,0,0, ,0,0,0,0,0, ,-39,324.4,947.6,-0.1,-0.4,-1.7,25,-38.33,324.088,946.811,-0.304892,-0.431336,-1.63033,
2026_07_06_19_07_11.245,3.854,32.3,0,0.761,0,0,0,0, ,0,0,0,0,0, ,-38.4,325.1,946.8,-0.2,-0.4,-1.7,25,-38.3526,324.128,946.835,-0.295453,-0.429426,-1.63458,
2026_07_06_19_07_11.267,3.854,32.3,0,0.76,0,0,0,0, ,0,0,0,0,0, ,-38.3,326.1,947,-0.3,-0.4,-1.6,25,-38.3524,324.218,946.839,-0.292684,-0.427633,-1.63552,
2026_07_06_19_07_11.284,3.854,32.3,0,0.76,0,0,0,0, ,0,0,0,0,0, ,-37.4,325.5,947.3,-0.3,-0.4,-1.6,25,-38.3218,324.314,946.858,-0.293129,-0.425949,-1.63335,
2026_07_06_19_07_11.308,3.854,32.3,0,0.762,0,0,0,0, ,0,0,0,0,0, ,-38.8,324.7,945.5,-0.2,-0.5,-1.7,25,-38.3083,324.362,946.83,-0.290501,-0.427415,-1.63437,
2026_07_06_19_07_11.324,3.854,32.1,0,0.761,0,0,0,0, ,0,0,0,0,0, ,-38.8,324.9,946.7,-0.3,-0.5,-1.6,25,-38.3383,324.389,946.785,-0.288033,-0.431838,-1.63532,
2026_07_06_19_07_11.348,3.854,32.3,0,0.76,0,0,0,0, ,0,0,0,0,0, ,-37.3,325,947,-0.3,-0.4,-1.7,25,-38.3207,324.423,946.789,-0.288762,-0.432945,-1.63622,
2026_07_06_19_07_11.391,3.854,32.3,0,0.76,0,0,0,0, ,0,0,0,0,0, ,-38.2,323.6,947,-0.4,-0.4,-1.7,25,-38.2859,324.415,946.802,-0.292494,-0.430937,-1.6401,
2026_07_06_19_07_11.392,3.854,32.4,0,0.76,0,0,0,0, ,0,0,0,0,0, ,-37.2,323.9,946.8,-0.3,-0.5,-1.6,25,-38.2502,324.375,946.808,-0.295998,-0.432099,-1.64071,
2026_07_06_19_07_11.422,3.854,32.3,0,0.761,0,0,0,0, ,0,0,0,0,0, ,-38.3,324.5,945.8,-0.3,-0.4,-1.6,25,-38.2197,324.364,946.777,-0.296242,-0.43319,-1.63823,
2026_07_06_19_07_11.451,3.854,32.4,0,0.762,0,0,0,0, ,0,0,0,0,0, ,-38.8,322.8,947.2,-0.3,-0.5,-1.7,25,-38.2399,324.321,946.76,-0.296471,-0.434214,-1.63894,
2026_07_06_19_07_11.451,3.854,32.3,0,0.761,0,0,0,0, ,0,0,0,0,0, ,-39.3,323.2,947.1,-0.3,-0.4,-1.6,25,-38.2892,324.24,946.784,-0.296686,-0.435176,-1.63962,
2026_07_06_19_07_11.479,3.854,32.3,0,0.761,0,0,0,0, ,0,0,0,0,0, ,-39.3,324,946.7,-0.1,-0.4,-1.7,25,-38.3508,324.201,946.791,-0.290794,-0.433032,-1.64025,
2026_07_06_19_07_11.484,3.854,32.1,0,0.76,0,0,0,0, ,0,0,0,0,0, ,-37.3,322.9,945.9,-0.2,-0.5,-1.6,25,-38.3477,324.155,946.761,-0.282215,-0.434066,-1.64084,
2026_07_06_19_07_11.513,3.854,32.1,0,0.76,0,0,0,0, ,0,0,0,0,0, ,-38.5,325.6,947,-0.3,-0.5,-1.7,25,-38.3204,324.161,946.742,-0.280252,-0.438084,-1.6414,
2026_07_06_19_07_11.522,3.854,32.3,0,0.76,0,0,0,0, ,0,0,0,0,0, ,-38.5,324.5,947.3,-0.1,-0.4,-1.6,25,-38.3314,324.215,946.767,-0.275361,-0.43881,-1.64193,
2026_07_06_19_07_11.550,3.854,32.1,0,0.76,0,0,0,0, ,0,0,0,0,0, ,-37.7,324.8,946.4,-0.1,-0.4,-1.7,25,-38.3173,324.242,946.772,-0.264675,-0.436445,-1.64242,
2026_07_06_19_07_11.562,3.854,32.3,0,0.761,0,0,0,0, ,0,0,0,0,0, ,-39.5,324.2,946.8,-0.1,-0.4,-1.5,25,-38.3345,324.258,946.762,-0.25464,-0.434224,-1.63983,
2026_07_06_19_07_11.590,3.854,32.3,0,0.761,0,0,0,0, ,0,0,0,0,0, ,-38.6,324.3,947.2,-0.2,-0.4,-1.6,25,-38.3781,324.257,946.776,-0.248264,-0.432139,-1.63436,
2026_07_06_19_07_11.602,3.854,32.3,0,0.761,0,0,0,0, ,0,0,0,0,0, ,-38.4,323.7,948.1,-0.1,-0.5,-1.7,25,-38.3855,324.241,946.829,-0.242276,-0.433227,-1.63531,
2026_07_06_19_07_11.630,3.854,32.3,0,0.76,0,0,0,0, ,0,0,0,0,0, ,-37.3,324,947.3,-0.1,-0.4,-1.7,25,-38.3529,324.218,946.882,-0.233606,-0.434249,-1.63925,
2026_07_06_19_07_11.642,3.854,32.3,0,0.761,0,0,0,0, ,0,0,0,0,0, ,-38.2,325,946.2,-0.2,-0.5,-1.7,25,-38.3162,324.235,946.874,-0.228511,-0.435209,-1.64296,
2026_07_06_19_07_11.668,3.854,32.3,0,0.76,0,0,0,0, ,0,0,0,0,0, ,-37.3,325.1,946.2,-0.2,-0.5,-1.7,25,-38.2817,324.284,946.833,-0.226774,-0.439157,-1.64643,
2026_07_06_19_07_11.681,3.854,32.3,0,0.761,0,0,0,0, ,0,0,0,0,0, ,-38.3,325.3,947.3,-0.2,-0.4,-1.6,25,-38.2523,324.34,946.828,-0.225142,-0.439818,-1.64665,
2026_07_06_19_07_11.709,3.854,32.3,0,0.761,0,0,0,0, ,0,0,0,0,0, ,-38.9,324.5,946.7,-0.2,-0.4,-1.6,25,-38.2735,324.374,946.839,-0.22361,-0.437392,-1.64381,
2026_07_06_19_07_11.720,3.854,32.1,0,0.76,0,0,0,0, ,0,0,0,0,0, ,-39.3,324.3,947.5,-0.2,-0.4,-1.6,25,-38.3239,324.376,946.855,-0.222171,-0.435113,-1.64114,
2026_07_06_19_07_11.748,3.854,32.3,0,0.761,0,0,0,0, ,0,0,0,0,0, ,-39.3,325.3,947.9,-0.3,-0.4,-1.7,25,-38.3833,324.402,946.906,-0.223867,-0.432973,-1.64168,
2026_07_06_19_07_11.760,3.854,32.4,0,0.761,0,0,0,0, ,0,0,0,0,0, ,-37.5,325.6,944.8,-0.3,-0.5,-1.6,25,-38.3844,324.466,946.872,-0.228507,-0.434011,-1.64218,
2026_07_06_19_07_11.788,3.854,32.1,0,0.761,0,0,0,0, ,0,0,0,0,0, ,-39,325.5,947.2,-0.3,-0.4,-1.6,25,-38.3762,324.532,946.819,-0.232863,-0.434985,-1.63961,
2026_07_06_19_07_11.800,3.854,32.3,0,0.76,0,0,0,0, ,0,0,0,0,0, ,-37.9,325.8,947.8,-0.3,-0.4,-1.6,25,-38.3807,324.6,946.861,-0.236954,-0.432853,-1.6372,
2026_07_06_19_07_11.833,3.854,32.1,0,0.76,0,0,0,0, ,0,0,0,0,0, ,-37.8,325.4,947,-0.4,-0.4,-1.7,25,-38.3483,324.661,946.893,-0.243843,-0.430851,-1.63798,
2026_07_06_19_07_11.839,3.854,32.1,0,0.763,0,0,0,0, ,0,0,0,0,0, ,-38.8,326.1,946.1,-0.5,-0.5,-1.7,25,-38.3454,324.727,946.873,-0.256406,-0.432018,-1.64176,
2026_07_06_19_07_11.867,3.854,32.3,0,0.761,0,0,0,0, ,0,0,0,0,0, ,-38.3,324.7,947.1,-0.5,-0.5,-1.7,25,-38.3579,324.768,946.856,-0.27125,-0.436161,-1.64531,
2026_07_06_19_07_11.878,3.854,32.4,0,0.761,0,0,0,0, ,0,0,0,0,0, ,-37.8,324.8,946.1,-0.3,-0.4,-1.7,25,-38.3391,324.767,946.84,-0.279095,-0.437004,-1.64864,
2026_07_06_19_07_11.906,3.854,32.3,0,0.763,0,0,0,0, ,0,0,0,0,0, ,-37.8,324.2,947.3,-0.5,-0.4,-1.6,25,-38.3062,324.751,946.832,-0.286463,-0.434749,-1.64872,
2026_07_06_19_07_11.919,3.854,32.3,0,0.761,0,0,0,0, ,0,0,0,0,0, ,-39,325.6,946.8,-0.5,-0.4,-1.6,25,-38.312,324.76,946.845,-0.299476,-0.432632,-1.64575,
2026_07_06_19_07_11.946,3.854,32.3,0,0.76,0,0,0,0, ,0,0,0,0,0, ,-38,325.5,946.8,-0.5,-0.4,-1.6,25,-38.3234,324.808,946.842,-0.311695,-0.430643,-1.64297,
2026_07_06_19_07_11.959,3.854,32.4,0,0.759,0,0,0,0, ,0,0,0,0,0, ,-39.5,325,947,-0.4,-0.4,-1.6,25,-38.3494,324.835,946.846,-0.320123,-0.428776,-1.64035,
2026_07_06_19_07_11.987,3.854,32.3,0,0.761,0,0,0,0, ,0,0,0,0,0, ,-38.5,324.2,948.2,-0.5,-0.4,-1.7,25,-38.3891,324.821,946.892,-0.328037,-0.427022,-1.64094,
2026_07_06_19_07_11.998,3.854,32.3,0,0.761,0,0,0,0, ,0,0,0,0,0, ,-39.1,325.5,946.7,-0.5,-0.5,-1.6,25,-38.4141,324.822,946.926,-0.338516,-0.428423,-1.64149,
2026_07_06_19_07_12.025,3.854,32.3,0,0.761,0,0,0,0, ,0,0,0,0,0, ,-37.8,324.3,947.1,-0.5,-0.5,-1.6,25,-38.4163,324.827,946.924,-0.348357,-0.432784,-1.63896,
2026_07_06_19_07_12.037,3.854,32.3,0,0.761,0,0,0,0, ,0,0,0,0,0, ,-37.9,325.1,947.5,-0.5,-0.4,-1.7,25,-38.3818,324.819,946.947,-0.357597,-0.433833,-1.63963,
2026_07_06_19_07_12.065,3.854,32.3,0,0.759,0,0,0,0, ,0,0,0,0,0, ,-38.4,323.4,947.2,-0.5,-0.4,-1.7,25,-38.3677,324.785,946.972,-0.366275,-0.431772,-1.64331,
2026_07_06_19_07_12.077,3.854,32.3,0,0.761,0,0,0,0, ,0,0,0,0,0, ,-38.4,325.1,946.8,-0.2,-0.4,-1.7,25,-38.3696,324.752,946.973,-0.365283,-0.429836,-1.64677,
2026_07_06_19_07_12.105,3.854,32.3,0,0.761,0,0,0,0, ,0,0,0,0,0, ,-38.4,324.3,947.2,-0.2,-0.5,-1.6,25,-38.3715,324.749,946.975,-0.355211,-0.431064,-1.64696,
2026_07_06_19_07_12.116,3.854,32.1,0,0.761,0,0,0,0, ,0,0,0,0,0, ,-37.1,325.1,946.4,-0.2,-0.4,-1.6,25,-38.3336,324.746,946.964,-0.345753,-0.432218,-1.6441,
2026_07_06_19_07_12.143,3.854,32.3,0,0.761,0,0,0,0, ,0,0,0,0,0, ,-38.9,325.4,946.6,-0.3,-0.4,-1.6,25,-38.3133,324.777,946.936,-0.339918,-0.430255,-1.64141,
2026_07_06_19_07_12.156,3.854,32.1,0,0.761,0,0,0,0, ,0,0,0,0,0, ,-38.3,325.8,945.4,-0.3,-0.5,-1.7,25,-38.3307,324.827,946.879,-0.337486,-0.431458,-1.64194,
2026_07_06_19_07_12.183,3.854,32.1,0,0.76,0,0,0,0, ,0,0,0,0,0, ,-37.9,325.6,948.8,-0.3,-0.4,-1.7,25,-38.3167,324.88,946.892,-0.335201,-0.432588,-1.64548,
2026_07_06_19_07_12.195,3.854,32.3,0,0.759,0,0,0,0, ,0,0,0,0,0, ,-37.5,325.9,948.7,-0.3,-0.4,-1.6,25,-38.2791,324.933,947.006,-0.333056,-0.430602,-1.64575,
2026_07_06_19_07_12.223,3.854,32.3,0,0.761,0,0,0,0, ,0,0,0,0,0, ,-38.4,326.4,947.6,-0.3,-0.4,-1.6,25,-38.2591,325.007,947.075,-0.331042,-0.428737,-1.64296,
2026_07_06_19_07_12.235,3.854,32.1,0,0.761,0,0,0,0, ,0,0,0,0,0, ,-39,325.3,947.9,-0.3,-0.5,-1.6,25,-38.2859,325.059,947.117,-0.32915,-0.430033,-1.64035,
2026_07_06_19_07_12.281,3.854,32.3,0,0.761,0,0,0,0, ,0,0,0,0,0, ,-37.7,327.2,946.6,-0.4,-0.4,-1.5,25,-38.2898,325.131,947.125,-0.330421,-0.43125,-1.63484,
2026_07_06_19_07_12.282,3.854,32.3,0,0.76,0,0,0,0, ,0,0,0,0,0, ,-38.2,324.4,945.8,-0.2,-0.4,-1.7,25,-38.2691,325.172,947.068,-0.328567,-0.429346,-1.63272,
2026_07_06_19_07_12.310,3.854,32.3,0,0.759,0,0,0,0, ,0,0,0,0,0, ,-39.3,324.9,948.4,-0.5,-0.4,-1.6,25,-38.2984,325.14,947.07,-0.329873,-0.427557,-1.63377,
2026_07_06_19_07_12.315,3.854,32.1,0,0.76,0,0,0,0, ,0,0,0,0,0, ,-38.4,326,946.4,-0.4,-0.4,-1.6,25,-38.332,325.159,947.09,-0.337193,-0.425878,-1.63171,
2026_07_06_19_07_12.341,3.854,32.1,0,0.76,0,0,0,0, ,0,0,0,0,0, ,-38.4,326.4,947.5,-0.3,-0.4,-1.6,25,-38.3362,325.222,947.082,-0.337974,-0.424301,-1.62978,
2026_07_06_19_07_12.354,3.854,32.3,0,0.76,0,0,0,0, ,0,0,0,0,0, ,-36.2,325.3,945.4,-0.4,-0.4,-1.7,25,-38.273,325.261,947.043,-0.338707,-0.42282,-1.63101,
2026_07_06_19_07_12.380,3.854,32.4,0,0.761,0,0,0,0, ,0,0,0,0,0, ,-38.9,324.8,946.7,-0.4,-0.4,-1.6,25,-38.229,325.248,946.983,-0.342442,-0.42143,-1.63217,
2026_07_06_19_07_12.396,3.854,32.1,0,0.761,0,0,0,0, ,0,0,0,0,0, ,-38.4,324.2,947.3,-0.5,-0.4,-1.6,25,-38.2546,325.202,946.984,-0.348996,-0.420124,-1.63021,
2026_07_06_19_07_12.422,3.854,32.3,0,0.761,0,0,0,0, ,0,0,0,0,0, ,-38,324.4,947.9,-0.5,-0.4,-1.6,25,-38.2513,325.147,947.021,-0.358198,-0.418897,-1.62837,
2026_07_06_19_07_12.433,3.854,32.3,0,0.761,0,0,0,0, ,0,0,0,0,0, ,-38.2,324.3,946.1,-0.5,-0.4,-1.6,25,-38.2421,325.099,947.02,-0.366839,-0.417746,-1.62664,
2026_07_06_19_07_12.459,3.854,32,0,0.761,0,0,0,0, ,0,0,0,0,0, ,-38.6,324.5,947.3,-0.5,-0.5,-1.7,25,-38.2517,325.056,947.001,-0.374953,-0.419711,-1.62806,
2026_07_06_19_07_12.474,3.854,32.3,0,0.761,0,0,0,0, ,0,0,0,0,0, ,-37.3,326.2,946.6,-0.5,-0.4,-1.7,25,-38.2333,325.074,946.997,-0.382573,-0.421557,-1.63245,
2026_07_06_19_07_12.498,3.854,32.3,0,0.762,0,0,0,0, ,0,0,0,0,0, ,-38.6,324.2,946.6,-0.5,-0.5,-1.7,25,-38.2161,325.082,946.973,-0.389729,-0.42329,-1.63656,
2026_07_06_19_07_12.513,3.854,32.3,0,0.762,0,0,0,0, ,0,0,0,0,0, ,-37.9,324.2,945.8,-0.5,-0.4,-1.6,25,-38.2181,325.028,946.926,-0.396449,-0.424918,-1.63738,
2026_07_06_19_07_12.537,3.854,32.3,0,0.759,0,0,0,0, ,0,0,0,0,0, ,-37.5,324.9,947.6,-0.4,-0.5,-1.7,25,-38.1866,324.999,946.912,-0.399712,-0.426446,-1.63815,
2026_07_06_19_07_12.552,3.854,32.1,0,0.76,0,0,0,0, ,0,0,0,0,0, ,-38.5,324.7,947.6,-0.5,-0.4,-1.6,25,-38.1752,324.987,946.954,-0.402776,-0.427882,-1.63887,
2026_07_06_19_07_12.576,3.854,32.4,0,0.761,0,0,0,0, ,0,0,0,0,0, ,-39,324.4,947,-0.5,-0.4,-1.6,25,-38.2102,324.96,946.975,-0.408701,-0.426183,-1.6365,
2026_07_06_19_07_12.592,3.854,32.1,0,0.763,0,0,0,0, ,0,0,0,0,0, ,-39.1,324.2,947,-0.4,-0.4,-1.7,25,-38.2614,324.92,946.977,-0.411218,-0.424587,-1.63733,
2026_07_06_19_07_12.618,3.854,32.1,0,0.762,0,0,0,0, ,0,0,0,0,0, ,-37.2,324.8,946.5,-0.4,-0.4,-1.7,25,-38.2546,324.894,946.963,-0.410534,-0.423089,-1.64115,
2026_07_06_19_07_12.631,3.854,32.3,0,0.761,0,0,0,0, ,0,0,0,0,0, ,-37.1,323.1,947.2,-0.4,-0.5,-1.7,25,-38.1873,324.837,946.956,-0.409892,-0.424729,-1.64473,
2026_07_06_19_07_12.657,3.854,32.1,0,0.761,0,0,0,0, ,0,0,0,0,0, ,-37.7,323.6,946.4,-0.5,-0.5,-1.7,25,-38.1393,324.746,946.947,-0.412336,-0.429316,-1.6481,
2026_07_06_19_07_12.672,3.854,32.3,0,0.76,0,0,0,0, ,0,0,0,0,0, ,-39.1,324.2,946.7,-0.4,-0.5,-1.6,25,-38.1552,324.695,946.922,-0.414631,-0.433623,-1.64822,
2026_07_06_19_07_12.696,3.854,32.3,0,0.761,0,0,0,0, ,0,0,0,0,0, ,-38.6,323.4,946.5,-0.4,-0.5,-1.6,25,-38.1975,324.64,946.903,-0.41374,-0.437668,-1.64528,
2026_07_06_19_07_12.710,3.854,32.1,0,0.761,0,0,0,0, ,0,0,0,0,0, ,-36.9,322.3,946.5,-0.3,-0.4,-1.6,25,-38.1703,324.531,946.878,-0.409856,-0.438419,-1.64252,
2026_07_06_19_07_12.736,3.854,32.3,0,0.761,0,0,0,0, ,0,0,0,0,0, ,-37.4,323.4,945.8,-0.3,-0.4,-1.6,25,-38.1081,324.429,946.834,-0.403161,-0.436078,-1.63993,
2026_07_06_19_07_12.749,3.854,32.3,0,0.762,0,0,0,0, ,0,0,0,0,0, ,-37.8,324.9,945.8,-0.4,-0.4,-1.6,25,-38.0771,324.412,946.771,-0.399922,-0.43388,-1.63749,
2026_07_06_19_07_12.775,3.854,32.3,0,0.759,0,0,0,0, ,0,0,0,0,0, ,-38.3,324.4,946.8,-0.3,-0.4,-1.7,25,-38.0755,324.426,946.742,-0.39688,-0.431815,-1.63826,
2026_07_06_19_07_12.794,3.854,32.1,0,0.759,0,0,0,0, ,0,0,0,0,0, ,-38.8,325,946.4,-0.3,-0.4,-1.6,25,-38.1044,324.443,946.734,-0.390976,-0.429876,-1.63897,
2026_07_06_19_07_12.820,3.854,32.3,0,0.759,0,0,0,0, ,0,0,0,0,0, ,-37.1,324.8,947.3,-0.3,-0.4,-1.7,25,-38.095,324.471,946.741,-0.385432,-0.428056,-1.63964,
2026_07_06_19_07_12.829,3.854,32.1,0,0.761,0,0,0,0, ,0,0,0,0,0, ,-38,326.1,947.1,-0.4,-0.5,-1.7,25,-38.0618,324.53,946.769,-0.383273,-0.429393,-1.64332,
2026_07_06_19_07_12.854,3.854,32.1,0,0.761,0,0,0,0, ,0,0,0,0,0, ,-38.3,326.5,947.1,-0.4,-0.5,-1.6,25,-38.0672,324.638,946.789,-0.384292,-0.433696,-1.64373,
2026_07_06_19_07_12.869,3.854,32.3,0,0.761,0,0,0,0, ,0,0,0,0,0, ,-38.6,324.5,946.4,-0.4,-0.4,-1.6,25,-38.0905,324.691,946.786,-0.38525,-0.434689,-1.64106,
2026_07_06_19_07_12.894,3.854,32.3,0,0.761,0,0,0,0, ,0,0,0,0,0, ,-39.3,324.7,947.7,-0.5,-0.5,-1.7,25,-38.1429,324.685,946.802,-0.389195,-0.435622,-1.64161,
2026_07_06_19_07_12.909,3.854,32.3,0,0.761,0,0,0,0, ,0,0,0,0,0, ,-38.5,325.6,946,-0.5,-0.4,-1.7,25,-38.189,324.714,946.805,-0.395947,-0.436498,-1.64517,
2026_07_06_19_07_12.934,3.854,32.1,0,0.761,0,0,0,0, ,0,0,0,0,0, ,-37.9,326.1,947.1,-0.4,-0.5,-1.6,25,-38.1897,324.783,946.79,-0.399241,-0.437321,-1.64546,
2026_07_06_19_07_12.948,3.854,32.4,0,0.761,0,0,0,0, ,0,0,0,0,0, ,-38.4,324.4,945.9,-0.5,-0.4,-1.6,25,-38.1872,324.811,946.772,-0.402334,-0.438094,-1.64269,
2026_07_06_19_07_12.973,3.854,32.1,0,0.763,0,0,0,0, ,0,0,0,0,0, ,-37.9,324.3,945.3,-0.6,-0.4,-1.6,25,-38.185,324.783,946.701,-0.411333,-0.435772,-1.64009,
2026_07_06_19_07_12.987,3.854,32.3,0,0.762,0,0,0,0, ,0,0,0,0,0, ,-39.3,326.1,947.7,-0.6,-0.4,-1.6,25,-38.2103,324.809,946.689,-0.42283,-0.433592,-1.63765,
2026_07_06_19_07_13.014,3.854,32.3,0,0.761,0,0,0,0, ,0,0,0,0,0, ,-38.2,324.9,945.6,-0.5,-0.4,-1.6,25,-38.2432,324.851,946.686,-0.430579,-0.431545,-1.63535,
2026_07_06_19_07_13.027,3.854,32.1,0,0.761,0,0,0,0, ,0,0,0,0,0, ,-38.8,324.2,947.9,-0.5,-0.4,-1.6,25,-38.2588,324.832,946.69,-0.434809,-0.429623,-1.6332,
2026_07_06_19_07_13.054,3.854,32.3,0,0.761,0,0,0,0, ,0,0,0,0,0, ,-38,324.5,946.5,-0.6,-0.5,-1.6,25,-38.2674,324.803,946.721,-0.441829,-0.430865,-1.63118,
2026_07_06_19_07_13.068,3.854,32.3,0,0.761,0,0,0,0, ,0,0,0,0,0, ,-39.4,325.4,947.6,-0.6,-0.5,-1.6,25,-38.2938,324.812,946.741,-0.451467,-0.435078,-1.62928,
2026_07_06_19_07_13.094,3.854,32.1,0,0.761,0,0,0,0, ,0,0,0,0,0, ,-39.4,323.4,946.6,-0.5,-0.4,-1.6,25,-38.3612,324.787,946.763,-0.457472,-0.435987,-1.62749,
2026_07_06_19_07_13.107,3.854,32.4,0,0.763,0,0,0,0, ,0,0,0,0,0, ,-36.7,324.9,947,-0.4,-0.5,-1.6,25,-38.3422,324.748,946.765,-0.457016,-0.436841,-1.62582,
2026_07_06_19_07_13.132,3.854,32.1,0,0.761,0,0,0,0, ,0,0,0,0,0, ,-37.7,324.2,947.5,-0.6,-0.4,-1.6,25,-38.2726,324.736,946.795,-0.459636,-0.437643,-1.62424,
2026_07_06_19_07_13.146,3.854,32.1,0,0.76,0,0,0,0, ,0,0,0,0,0, ,-39.1,324.2,947.3,-0.5,-0.4,-1.7,25,-38.2804,324.703,946.832,-0.465142,-0.435349,-1.62581,
2026_07_06_19_07_13.172,3.854,32.3,0,0.761,0,0,0,0, ,0,0,0,0,0, ,-38.3,322.9,947.3,-0.5,-0.4,-1.7,25,-38.306,324.633,946.86,-0.467266,-0.433195,-1.63033,
2026_07_06_19_07_13.186,3.854,32.1,0,0.761,0,0,0,0, ,0,0,0,0,0, ,-37.9,324.5,946.4,-0.4,-0.4,-1.7,25,-38.2934,324.576,946.86,-0.466214,-0.431172,-1.63458,
2026_07_06_19_07_13.219,3.854,32.1,0,0.76,0,0,0,0, ,0,0,0,0,0, ,-38.2,323.6,946.7,-0.4,-0.5,-1.6,25,-38.2786,324.544,946.841,-0.462179,-0.432319,-1.63552,
2026_07_06_19_07_13.226,3.854,32.3,0,0.761,0,0,0,0, ,0,0,0,0,0, ,-38.5,324.2,947.3,-0.5,-0.4,-1.6,25,-38.2829,324.505,946.85,-0.461437,-0.433397,-1.63335,
2026_07_06_19_07_13.252,3.854,32.3,0,0.761,0,0,0,0, ,0,0,0,0,0, ,-38.9,324.3,948.2,-0.5,-0.5,-1.6,25,-38.3083,324.489,946.905,-0.463787,-0.434409,-1.63132,
2026_07_06_19_07_13.266,3.854,32.4,0,0.76,0,0,0,0, ,0,0,0,0,0, ,-38.2,322.9,947.1,-0.4,-0.4,-1.6,25,-38.3231,324.435,946.951,-0.462947,-0.435359,-1.62941,
2026_07_06_19_07_13.291,3.854,32.1,0,0.761,0,0,0,0, ,0,0,0,0,0, ,-37.2,323.9,946.8,-0.3,-0.5,-1.6,25,-38.2851,324.372,946.951,-0.456064,-0.436251,-1.62762,
2026_07_06_19_07_13.305,3.854,32.3,0,0.759,0,0,0,0, ,0,0,0,0,0, ,-38,322.8,947.3,-0.4,-0.4,-1.7,25,-38.2433,324.31,946.957,-0.449601,-0.437089,-1.62898,
2026_07_06_19_07_13.330,3.854,32.3,0,0.763,0,0,0,0, ,0,0,0,0,0, ,-38.3,323.1,946.8,-0.3,-0.4,-1.7,25,-38.2377,324.227,946.962,-0.443532,-0.434829,-1.63331,
2026_07_06_19_07_13.344,3.854,32.3,0,0.76,0,0,0,0, ,0,0,0,0,0, ,-38.3,323.6,946.6,-0.3,-0.4,-1.7,25,-38.2415,324.173,946.946,-0.434785,-0.432706,-1.63738,
2026_07_06_19_07_13.370,3.854,32.1,0,0.761,0,0,0,0, ,0,0,0,0,0, ,-39.4,323.8,946.6,-0.2,-0.4,-1.6,25,-38.2785,324.145,946.925,-0.423525,-0.430713,-1.63814,
2026_07_06_19_07_13.384,3.854,32.4,0,0.761,0,0,0,0, ,0,0,0,0,0, ,-36.8,322.2,947.6,-0.2,-0.4,-1.6,25,-38.2677,324.075,946.936,-0.409904,-0.428842,-1.63582,
2026_07_06_19_07_13.412,3.854,32.1,0,0.76,0,0,0,0, ,0,0,0,0,0, ,-38,324.8,947.5,-0.3,-0.5,-1.6,25,-38.2148,324.04,946.973,-0.40016,-0.430131,-1.63364,
2026_07_06_19_07_13.424,3.854,32.3,0,0.76,0,0,0,0, ,0,0,0,0,0, ,-37.7,322.7,946.5,-0.3,-0.5,-1.6,25,-38.1926,324.022,946.975,-0.394056,-0.434389,-1.63159,
2026_07_06_19_07_13.449,3.854,32.3,0,0.76,0,0,0,0, ,0,0,0,0,0, ,-39,323.8,947.2,-0.2,-0.5,-1.7,25,-38.2022,323.975,946.967,-0.385278,-0.438387,-1.63271,
2026_07_06_19_07_13.464,3.854,32.4,0,0.761,0,0,0,0, ,0,0,0,0,0, ,-37.8,322.8,947.9,-0.2,-0.4,-1.7,25,-38.2142,323.934,947.003,-0.373987,-0.439095,-1.63681,
2026_07_06_19_07_13.489,3.854,32.4,0,0.761,0,0,0,0, ,0,0,0,0,0, ,-38,323.9,948.1,-0.2,-0.5,-1.6,25,-38.1951,323.898,947.064,-0.363385,-0.439759,-1.63761,
2026_07_06_19_07_13.503,3.854,32.3,0,0.761,0,0,0,0, ,0,0,0,0,0, ,-37.7,325,947,-0.3,-0.5,-1.7,25,-38.174,323.932,947.093,-0.356476,-0.44343,-1.63837,
2026_07_06_19_07_13.529,3.854,32.4,0,0.761,0,0,0,0, ,0,0,0,0,0, ,-38.6,324.8,947.1,-0.4,-0.5,-1.6,25,-38.1726,323.991,947.091,-0.356081,-0.446877,-1.63908,
2026_07_06_19_07_13.543,3.854,32.3,0,0.761,0,0,0,0, ,0,0,0,0,0, ,-38.6,325.3,947.2,-0.6,-0.5,-1.6,25,-38.1986,324.056,947.094,-0.364851,-0.450114,-1.6367,
2026_07_06_19_07_13.570,3.854,32.3,0,0.761,0,0,0,0, ,0,0,0,0,0, ,-38,325.3,946.7,-0.6,-0.4,-1.6,25,-38.2048,324.131,947.085,-0.37918,-0.450107,-1.63446,
2026_07_06_19_07_13.588,3.854,32.1,0,0.763,0,0,0,0, ,0,0,0,0,0, ,-38.6,324.8,947.7,-0.4,-0.4,-1.6,25,-38.2106,324.187,947.092,-0.386543,-0.447054,-1.63236,
2026_07_06_19_07_13.614,3.854,32.1,0,0.759,0,0,0,0, ,0,0,0,0,0, ,-37.8,324.3,947,-0.4,-0.4,-1.6,25,-38.21,324.209,947.108,-0.387363,-0.444187,-1.63039,
2026_07_06_19_07_13.622,3.854,32.3,0,0.761,0,0,0,0, ,0,0,0,0,0, ,-39,322.7,947.2,-0.5,-0.4,-1.7,25,-38.2215,324.166,947.108,-0.39118,-0.441494,-1.63158,
2026_07_06_19_07_13.648,3.854,32.3,0,0.761,0,0,0,0, ,0,0,0,0,0, ,-38.2,323.6,946.7,-0.6,-0.5,-1.6,25,-38.2446,324.104,947.098,-0.400858,-0.442012,-1.63271,
2026_07_06_19_07_13.661,3.854,32.3,0,0.761,0,0,0,0, ,0,0,0,0,0, ,-38.6,325.1,947.1,-0.5,-0.5,-1.7,25,-38.2541,324.119,947.086,-0.409946,-0.445546,-1.63376,
2026_07_06_19_07_13.688,3.854,32.4,0,0.763,0,0,0,0, ,0,0,0,0,0, ,-38.2,322.8,947.3,-0.5,-0.5,-1.7,25,-38.263,324.109,947.093,-0.415434,-0.448864,-1.6378,
2026_07_06_19_07_13.702,3.854,32.4,0,0.761,0,0,0,0, ,0,0,0,0,0, ,-37.7,323.6,946.6,-0.5,-0.4,-1.7,25,-38.2439,324.054,947.084,-0.420587,-0.448933,-1.64159,
2026_07_06_19_07_13.728,3.854,32.3,0,0.76,0,0,0,0, ,0,0,0,0,0, ,-39.3,323.4,945.5,-0.5,-0.4,-1.7,25,-38.2595,324.02,947.021,-0.425426,-0.445952,-1.64515,
2026_07_06_19_07_13.741,3.854,32.3,0,0.761,0,0,0,0, ,0,0,0,0,0, ,-37.7,324.4,946.6,-0.4,-0.5,-1.6,25,-38.2741,324.013,946.962,-0.426924,-0.446198,-1.64544,
2026_07_06_19_07_13.768,3.854,32.4,0,0.76,0,0,0,0, ,0,0,0,0,0, ,-37.9,323.2,947.5,-0.4,-0.4,-1.6,25,-38.2453,324,946.967,-0.425283,-0.44643,-1.64267,
2026_07_06_19_07_13.780,3.854,32.3,0,0.76,0,0,0,0, ,0,0,0,0,0, ,-37.1,323.1,947.6,-0.3,-0.4,-1.6,25,-38.1998,323.948,947.003,-0.420696,-0.443601,-1.64007,
2026_07_06_19_07_13.806,3.854,32.4,0,0.76,0,0,0,0, ,0,0,0,0,0, ,-37.5,323.6,947.3,-0.4,-0.4,-1.7,25,-38.145,323.911,947.03,-0.416388,-0.440944,-1.64068,
2026_07_06_19_07_13.820,3.854,32.3,0,0.761,0,0,0,0, ,0,0,0,0,0, ,-38.2,324,948.1,-0.4,-0.4,-1.7,25,-38.127,323.905,947.071,-0.415389,-0.438449,-1.64429,
2026_07_06_19_07_13.846,3.854,32.3,0,0.761,0,0,0,0, ,0,0,0,0,0, ,-38.2,323.9,947.3,-0.3,-0.4,-1.7,25,-38.1315,323.907,947.109,-0.411404,-0.436106,-1.64769,
2026_07_06_19_07_13.861,3.854,32.3,0,0.76,0,0,0,0, ,0,0,0,0,0, ,-37.9,324.5,947.1,-0.2,-0.4,-1.6,25,-38.1265,323.925,947.115,-0.401569,-0.433906,-1.64783,
2026_07_06_19_07_13.888,3.854,32.3,0,0.761,0,0,0,0, ,0,0,0,0,0, ,-37.7,322.3,946.6,-0.2,-0.4,-1.7,25,-38.1066,323.893,947.099,-0.389286,-0.431839,-1.64796,
2026_07_06_19_07_13.899,3.854,32.4,0,0.761,0,0,0,0, ,0,0,0,0,0, ,-39.7,323.3,947.1,-0.2,-0.4,-1.6,25,-38.1428,323.827,947.083,-0.377751,-0.429899,-1.64808,
2026_07_06_19_07_13.926,3.854,32.3,0,0.761,0,0,0,0, ,0,0,0,0,0, ,-38.5,322.5,946.4,-0.3,-0.5,-1.7,25,-38.2011,323.77,947.063,-0.369966,-0.431124,-1.6482,
2026_07_06_19_07_13.938,3.854,32.1,0,0.76,0,0,0,0, ,0,0,0,0,0, ,-37.9,324.2,948.3,-0.2,-0.4,-1.7,25,-38.201,323.745,947.081,-0.362656,-0.432274,-1.65136,
2026_07_06_19_07_13.967,3.854,32.3,0,0.761,0,0,0,0, ,0,0,0,0,0, ,-39.6,323.1,946.8,-0.2,-0.4,-1.6,25,-38.2345,323.739,947.109,-0.352744,-0.430308,-1.65128,
2026_07_06_19_07_13.978,3.854,32.3,0,0.761,0,0,0,0, ,0,0,0,0,0, ,-39.1,322.9,947.3,-0.3,-0.5,-1.6,25,-38.3025,323.694,947.106,-0.346483,-0.431508,-1.64815,
2026_07_06_19_07_14.006,3.854,32.3,0,0.763,0,0,0,0, ,0,0,0,0,0, ,-37.9,325.3,946.8,-0.2,-0.4,-1.7,25,-38.3145,323.718,947.102,-0.340604,-0.432635,-1.64826,
2026_07_06_19_07_14.019,3.854,32.3,0,0.76,0,0,0,0, ,0,0,0,0,0, ,-37.3,323.9,947.2,-0.1,-0.4,-1.6,25,-38.271,323.772,947.096,-0.328989,-0.430646,-1.64837,
2026_07_06_19_07_14.045,3.854,32.1,0,0.761,0,0,0,0, ,0,0,0,0,0, ,-37.2,323.7,947.2,-0.1,-0.4,-1.6,25,-38.2087,323.774,947.102,-0.315035,-0.428778,-1.64542,
2026_07_06_19_07_14.057,3.854,32.3,0,0.761,0,0,0,0, ,0,0,0,0,0, ,-38.3,325,945.9,-0.2,-0.5,-1.6,25,-38.1808,323.809,947.069,-0.304978,-0.430072,-1.64265,
2026_07_06_19_07_14.085,3.854,32.3,0,0.761,0,0,0,0, ,0,0,0,0,0, ,-38.8,324.8,947.2,-0.1,-0.4,-1.6,25,-38.2033,323.875,947.037,-0.295534,-0.431286,-1.64005,
2026_07_06_19_07_14.096,3.854,32.1,0,0.761,0,0,0,0, ,0,0,0,0,0, ,-37.7,324.7,947.2,-0.1,-0.4,-1.6,25,-38.2061,323.929,947.047,-0.283619,-0.429379,-1.63761,
2026_07_06_19_07_14.124,3.854,32.1,0,0.759,0,0,0,0, ,0,0,0,0,0, ,-38.9,324.4,947.6,-0.2,-0.5,-1.6,25,-38.2119,323.967,947.069,-0.275476,-0.430636,-1.63532,
2026_07_06_19_07_14.137,3.854,32.1,0,0.761,0,0,0,0, ,0,0,0,0,0, ,-37.8,325,945,-0.3,-0.4,-1.6,25,-38.2203,324.011,947.022,-0.273924,-0.431816,-1.63317,
2026_07_06_19_07_14.163,3.854,32.3,0,0.761,0,0,0,0, ,0,0,0,0,0, ,-37.2,325.6,946.5,-0.3,-0.5,-1.6,25,-38.1764,324.09,946.944,-0.275513,-0.432924,-1.63115,
2026_07_06_19_07_14.176,3.854,32.3,0,0.76,0,0,0,0, ,0,0,0,0,0, ,-38,325.3,945.5,-0.1,-0.4,-1.6,25,-38.1413,324.173,946.887,-0.270911,-0.433965,-1.62925,
