UTC_Time,Vin,TC1,TC2,Rh1,Vh1,Ah1,Acp1,Dty1,Err1,Rh2,Vh2,Ah2,Acp2,Dty2,Err2,Accel_x,Accel_y,Accel_z,gyro_x,gyro_y,gyro_z,Temp_c,Accel_x_h,Accel_y_h,Accel_z_h,gyro_x_h,gyro_y_h,gyro_z_h,
2026_07_06_15_51_38.026,3.859,60,0,0.78,0,0,0,0, ,0,0,0,0,0, ,-40.5,184.8,982.5,-0.6,-0.4,-1.8,25,-40.5,184.8,982.5,-0.6,-0.4,-1.8,
2026_07_06_15_51_38.047,3.859,59.5,0,0.78,0,0,0,0, ,0,0,0,0,0, ,-41.6,184,983.2,-0.6,-0.5,-1.8,25,-40.5335,184.776,982.521,-0.6,-0.403047,-1.8,
2026_07_06_15_51_38.066,3.859,59.4,0,0.779,0,0,0,0, ,0,0,0,0,0, ,-39.7,184,984.1,-0.6,-0.5,-1.8,25,-40.5406,184.728,982.59,-0.6,-0.408955,-1.8,
2026_07_06_15_51_38.086,3.859,59.4,0,0.78,0,0,0,0, ,0,0,0,0,0, ,-40.6,184.5,984.2,-0.7,-0.5,-1.8,25,-40.5168,184.699,982.685,-0.603047,-0.414503,-1.8,
2026_07_06_15_51_38.107,3.859,59.4,0,0.779,0,0,0,0, ,0,0,0,0,0, ,-39.9,183.3,982.6,-0.7,-0.5,-1.8,25,-40.5006,184.651,982.729,-0.608955,-0.419713,-1.8,
2026_07_06_15_51_38.126,3.859,59.4,0,0.779,0,0,0,0, ,0,0,0,0,0, ,-40.2,184,982.6,-0.5,-0.4,-1.8,25,-40.4731,184.59,982.721,-0.608409,-0.421559,-1.8,
2026_07_06_15_51_38.145,3.859,59.4,0,0.776,0,0,0,0, ,0,0,0,0,0, ,-41.7,185.1,984,-0.4,-0.5,-1.8,25,-40.5022,184.587,982.756,-0.598756,-0.423292,-1.8,
2026_07_06_15_51_38.165,3.859,59.3,0,0.779,0,0,0,0, ,0,0,0,0,0, ,-39.4,183.4,983.1,-0.6,-0.5,-1.8,25,-40.5051,184.567,982.805,-0.592738,-0.427966,-1.8,
2026_07_06_15_51_38.185,3.859,59.4,0,0.779,0,0,0,0, ,0,0,0,0,0, ,-41.2,184.8,982.1,-0.6,-0.4,-1.8,25,-40.4926,184.538,982.792,-0.593181,-0.429309,-1.8,
2026_07_06_15_51_38.204,3.859,59.3,0,0.779,0,0,0,0, ,0,0,0,0,0, ,-39.7,182.7,983.7,-0.6,-0.5,-1.8,25,-40.49,184.49,982.799,-0.593596,-0.43057,-1.8,
2026_07_06_15_51_38.225,3.859,59.3,0,0.78,0,0,0,0, ,0,0,0,0,0, ,-41,183.2,982.9,-0.6,-0.5,-1.7,25,-40.4815,184.396,982.829,-0.593987,-0.434801,-1.79695,
2026_07_06_15_51_38.244,3.859,59.3,0,0.779,0,0,0,0, ,0,0,0,0,0, ,-40,186.2,982.7,-0.5,-0.4,-1.7,25,-40.4826,184.415,982.827,-0.591306,-0.435727,-1.79105,
2026_07_06_15_51_38.264,3.859,59.2,0,0.779,0,0,0,0, ,0,0,0,0,0, ,-41.7,183.7,982.5,-0.6,-0.4,-1.8,25,-40.505,184.447,982.814,-0.588789,-0.43355,-1.78854,
2026_07_06_15_51_38.283,3.859,59.2,0,0.78,0,0,0,0, ,0,0,0,0,0, ,-40.8,182.7,981.6,-0.6,-0.5,-1.8,25,-40.5504,184.371,982.767,-0.589472,-0.434552,-1.78924,
2026_07_06_15_51_38.304,3.859,59.2,0,0.778,0,0,0,0, ,0,0,0,0,0, ,-41.2,183.3,982.4,-0.5,-0.5,-1.8,25,-40.5778,184.288,982.72,-0.587067,-0.43854,-1.7899,
2026_07_06_15_51_38.323,3.859,59.2,0,0.779,0,0,0,0, ,0,0,0,0,0, ,-40.1,183.3,983.5,-0.5,-0.5,-1.8,25,-40.5822,184.228,982.734,-0.581761,-0.442286,-1.79051,
2026_07_06_15_51_38.343,3.859,59.2,0,0.779,0,0,0,0, ,0,0,0,0,0, ,-40.1,184.3,982.4,-0.6,-0.4,-1.8,25,-40.5528,184.202,982.747,-0.579826,-0.442756,-1.79109,
2026_07_06_15_51_38.363,3.859,59.2,0,0.779,0,0,0,0, ,0,0,0,0,0, ,-40.7,183.1,983.6,-0.7,-0.4,-1.8,25,-40.5435,184.171,982.763,-0.584102,-0.44015,-1.79163,
2026_07_06_15_51_38.383,3.859,59.2,0,0.779,0,0,0,0, ,0,0,0,0,0, ,-41.6,183.7,982.2,-0.6,-0.4,-1.8,25,-40.5804,184.124,982.771,-0.588118,-0.437704,-1.79214,
2026_07_06_15_51_38.403,3.859,59,0,0.78,0,0,0,0, ,0,0,0,0,0, ,-41,184.6,983.1,-0.6,-0.5,-1.7,25,-40.6243,184.126,982.764,-0.588842,-0.438453,-1.78958,
2026_07_06_15_51_38.423,3.859,59.2,0,0.779,0,0,0,0, ,0,0,0,0,0, ,-41.1,184.4,983.3,-0.7,-0.5,-1.8,25,-40.6502,184.148,982.79,-0.592569,-0.442203,-1.78716,
2026_07_06_15_51_38.449,3.859,59,0,0.78,0,0,0,0, ,0,0,0,0,0, ,-40,184,983.6,-0.6,-0.5,-1.8,25,-40.6441,184.152,982.831,-0.596068,-0.445725,-1.78795,
2026_07_06_15_51_38.462,3.859,59,0,0.779,0,0,0,0, ,0,0,0,0,0, ,-40.5,184,984.9,-0.7,-0.5,-1.7,25,-40.6201,184.142,982.917,-0.599355,-0.449033,-1.78563,
2026_07_06_15_51_38.482,3.859,59.2,0,0.781,0,0,0,0, ,0,0,0,0,0, ,-40.7,184.2,982,-0.5,-0.4,-1.8,25,-40.6189,184.14,982.95,-0.599394,-0.449092,-1.78346,
2026_07_06_15_51_38.503,3.859,59,0,0.779,0,0,0,0, ,0,0,0,0,0, ,-40.8,184.6,982.2,-0.5,-0.4,-1.8,25,-40.6269,184.156,982.898,-0.593337,-0.4461,-1.78447,
2026_07_06_15_51_38.522,3.859,59,0,0.779,0,0,0,0, ,0,0,0,0,0, ,-40.4,183.8,983.5,-0.6,-0.5,-1.7,25,-40.6252,184.158,982.895,-0.590696,-0.446338,-1.78237,
2026_07_06_15_51_38.541,3.859,59,0,0.78,0,0,0,0, ,0,0,0,0,0, ,-40.7,183.5,984.6,-0.6,-0.5,-1.8,25,-40.6206,184.127,982.965,-0.591263,-0.449608,-1.7804,
2026_07_06_15_51_38.562,3.859,58.9,0,0.779,0,0,0,0, ,0,0,0,0,0, ,-40.1,183.7,982.1,-0.7,-0.6,-1.8,25,-40.6072,184.095,982.989,-0.594843,-0.455726,-1.78159,
2026_07_06_15_51_38.581,3.859,58.9,0,0.78,0,0,0,0, ,0,0,0,0,0, ,-40.5,183.7,981.4,-0.7,-0.5,-1.8,25,-40.5885,184.071,982.913,-0.601251,-0.46147,-1.78271,
2026_07_06_15_51_38.601,3.859,58.9,0,0.78,0,0,0,0, ,0,0,0,0,0, ,-40.6,183.8,983.2,-0.6,-0.4,-1.8,25,-40.5861,184.052,982.876,-0.604221,-0.460771,-1.78377,
2026_07_06_15_51_38.620,3.859,58.9,0,0.78,0,0,0,0, ,0,0,0,0,0, ,-41,183.8,984,-0.6,-0.4,-1.8,25,-40.5992,184.036,982.92,-0.603964,-0.457068,-1.78476,
2026_07_06_15_51_38.641,3.859,58.9,0,0.778,0,0,0,0, ,0,0,0,0,0, ,-40.2,182.9,983,-0.7,-0.5,-1.8,25,-40.5992,183.994,982.955,-0.606769,-0.456637,-1.78568,
2026_07_06_15_51_38.660,3.859,58.9,0,0.779,0,0,0,0, ,0,0,0,0,0, ,-40.1,182.9,982.6,-0.6,-0.4,-1.8,25,-40.5718,183.928,982.946,-0.609404,-0.456233,-1.78656,
2026_07_06_15_51_38.680,3.859,58.8,0,0.779,0,0,0,0, ,0,0,0,0,0, ,-40,182,982.5,-0.6,-0.4,-1.8,25,-40.54,183.838,982.922,-0.608831,-0.452806,-1.78738,
2026_07_06_15_51_38.699,3.859,58.8,0,0.779,0,0,0,0, ,0,0,0,0,0, ,-40.5,183.9,982.7,-0.6,-0.5,-1.7,25,-40.5224,183.784,982.902,-0.608293,-0.452635,-1.7851,
2026_07_06_15_51_38.720,3.859,58.8,0,0.78,0,0,0,0, ,0,0,0,0,0, ,-40.6,184.5,983.2,-0.5,-0.5,-1.8,25,-40.5241,183.809,982.905,-0.60474,-0.455522,-1.78296,
2026_07_06_15_51_38.739,3.859,58.8,0,0.78,0,0,0,0, ,0,0,0,0,0, ,-40.7,185.4,983.1,-0.6,-0.5,-1.8,25,-40.5317,183.878,982.92,-0.601405,-0.458232,-1.784,
2026_07_06_15_51_38.759,3.859,58.8,0,0.78,0,0,0,0, ,0,0,0,0,0, ,-40.1,182.9,982.7,-0.7,-0.5,-1.8,25,-40.5237,183.895,982.919,-0.604366,-0.460777,-1.78497,
2026_07_06_15_51_38.779,3.859,58.8,0,0.779,0,0,0,0, ,0,0,0,0,0, ,-40,183.7,982.9,-0.7,-0.4,-1.8,25,-40.4948,183.859,982.912,-0.610194,-0.46012,-1.78589,
2026_07_06_15_51_38.799,3.859,58.8,0,0.78,0,0,0,0, ,0,0,0,0,0, ,-40.8,183.1,982.7,-0.7,-0.5,-1.9,25,-40.4891,183.831,982.905,-0.615666,-0.459504,-1.7898,
2026_07_06_15_51_38.818,3.859,58.7,0,0.779,0,0,0,0, ,0,0,0,0,0, ,-39.3,183.7,984.2,-0.7,-0.5,-1.8,25,-40.4623,183.805,982.938,-0.620805,-0.461971,-1.79346,
2026_07_06_15_51_38.839,3.859,58.8,0,0.779,0,0,0,0, ,0,0,0,0,0, ,-40.2,183.4,983.6,-0.6,-0.5,-1.8,25,-40.4189,183.789,982.997,-0.622584,-0.464289,-1.79386,
2026_07_06_15_51_38.858,3.859,58.7,0,0.779,0,0,0,0, ,0,0,0,0,0, ,-40.4,183.4,982.9,-0.7,-0.4,-1.7,25,-40.4117,183.765,983.012,-0.624255,-0.463418,-1.79119,
2026_07_06_15_51_38.878,3.859,58.7,0,0.779,0,0,0,0, ,0,0,0,0,0, ,-41.6,182,982.6,-0.6,-0.5,-1.7,25,-40.4475,183.7,982.996,-0.625824,-0.4626,-1.78563,
2026_07_06_15_51_38.897,3.859,58.7,0,0.779,0,0,0,0, ,0,0,0,0,0, ,-42.8,183.7,983.1,-0.6,-0.5,-1.8,25,-40.5543,183.649,982.987,-0.62425,-0.464879,-1.78346,
2026_07_06_15_51_38.918,3.859,58.6,0,0.779,0,0,0,0, ,0,0,0,0,0, ,-41,183.5,984,-0.6,-0.5,-1.7,25,-40.6363,183.646,983.021,-0.622772,-0.46702,-1.78142,
2026_07_06_15_51_38.937,3.859,58.7,0,0.781,0,0,0,0, ,0,0,0,0,0, ,-39,183.5,982.6,-0.7,-0.4,-1.8,25,-40.5975,183.637,983.038,-0.624432,-0.465983,-1.77951,
2026_07_06_15_51_38.957,3.859,58.6,0,0.779,0,0,0,0, ,0,0,0,0,0, ,-40.1,184,983,-0.6,-0.5,-1.7,25,-40.5337,183.644,983.024,-0.62599,-0.465009,-1.77771,
2026_07_06_15_51_38.977,3.859,58.7,0,0.78,0,0,0,0, ,0,0,0,0,0, ,-40.8,185.5,983,-0.5,-0.4,-1.8,25,-40.5286,183.711,983.022,-0.621359,-0.464094,-1.77602,
2026_07_06_15_51_38.997,3.859,58.7,0,0.779,0,0,0,0, ,0,0,0,0,0, ,-39.9,185.5,984.9,-0.6,-0.4,-1.7,25,-40.5177,183.82,983.079,-0.617011,-0.460188,-1.77444,
2026_07_06_15_51_39.017,3.859,58.6,0,0.777,0,0,0,0, ,0,0,0,0,0, ,-38.9,183.9,982.9,-0.7,-0.4,-1.8,25,-40.4496,183.874,983.129,-0.619021,-0.456521,-1.77295,
2026_07_06_15_51_39.037,3.859,58.6,0,0.78,0,0,0,0, ,0,0,0,0,0, ,-40.7,182.8,983.1,-0.7,-0.4,-1.8,25,-40.41,183.842,983.121,-0.623956,-0.453076,-1.77459,
2026_07_06_15_51_39.056,3.859,58.6,0,0.78,0,0,0,0, ,0,0,0,0,0, ,-40.7,182.9,982.5,-0.6,-0.4,-1.7,25,-40.4277,183.781,983.102,-0.625543,-0.449842,-1.7731,
2026_07_06_15_51_39.076,3.859,58.5,0,0.778,0,0,0,0, ,0,0,0,0,0, ,-39,184.4,985.3,-0.5,-0.5,-1.8,25,-40.3925,183.773,983.15,-0.620939,-0.449852,-1.77169,
2026_07_06_15_51_39.095,3.859,58.5,0,0.779,0,0,0,0, ,0,0,0,0,0, ,-40.5,184.8,982.9,-0.6,-0.5,-1.8,25,-40.3533,183.824,983.208,-0.616616,-0.452908,-1.77341,
2026_07_06_15_51_39.115,3.859,58.5,0,0.778,0,0,0,0, ,0,0,0,0,0, ,-40.2,184.3,983.5,-0.6,-0.4,-1.8,25,-40.3531,183.868,983.208,-0.615604,-0.45273,-1.77503,
2026_07_06_15_51_39.136,3.859,58.5,0,0.779,0,0,0,0, ,0,0,0,0,0, ,-40,183.4,983.8,-0.7,-0.5,-1.8,25,-40.3377,183.867,983.235,-0.6177,-0.452564,-1.77656,
2026_07_06_15_51_39.155,3.859,58.5,0,0.779,0,0,0,0, ,0,0,0,0,0, ,-40.8,183.1,981.9,-0.7,-0.4,-1.7,25,-40.3415,183.829,983.211,-0.622715,-0.452408,-1.77494,
2026_07_06_15_51_39.175,3.859,58.6,0,0.779,0,0,0,0, ,0,0,0,0,0, ,-39.1,184.3,984.6,-0.6,-0.5,-1.7,25,-40.3176,183.821,983.213,-0.624378,-0.452261,-1.77037,
2026_07_06_15_51_39.195,3.859,58.5,0,0.779,0,0,0,0, ,0,0,0,0,0, ,-39.3,184,983.3,-0.6,-0.4,-1.8,25,-40.2495,183.841,983.258,-0.622892,-0.452123,-1.76913,
2026_07_06_15_51_39.214,3.859,58.5,0,0.78,0,0,0,0, ,0,0,0,0,0, ,-40,183.1,984.2,-0.5,-0.4,-1.8,25,-40.213,183.824,983.288,-0.61845,-0.448947,-1.77101,
2026_07_06_15_51_39.234,3.859,58.5,0,0.779,0,0,0,0, ,0,0,0,0,0, ,-40.2,183.2,983.2,-0.6,-0.5,-1.7,25,-40.2061,183.783,983.313,-0.614279,-0.449011,-1.76973,
2026_07_06_15_51_39.254,3.859,58.4,0,0.78,0,0,0,0, ,0,0,0,0,0, ,-41.9,182.1,982.9,-0.6,-0.5,-1.8,25,-40.2575,183.714,983.297,-0.613409,-0.452118,-1.76853,
2026_07_06_15_51_39.274,3.859,58.3,0,0.78,0,0,0,0, ,0,0,0,0,0, ,-40.6,183.7,981.8,-0.5,-0.5,-1.7,25,-40.318,183.664,983.24,-0.609545,-0.455036,-1.7674,
2026_07_06_15_51_39.294,3.859,58.4,0,0.779,0,0,0,0, ,0,0,0,0,0, ,-39.9,183.9,982.7,-0.6,-0.4,-1.8,25,-40.3139,183.672,983.179,-0.605916,-0.454729,-1.76634,
2026_07_06_15_51_39.314,3.859,58.3,0,0.779,0,0,0,0, ,0,0,0,0,0, ,-38.8,184.2,984,-0.7,-0.5,-1.7,25,-40.2551,183.695,983.19,-0.608603,-0.454441,-1.76534,
2026_07_06_15_51_39.333,3.859,58.3,0,0.779,0,0,0,0, ,0,0,0,0,0, ,-40.8,182.9,983.8,-0.7,-0.5,-1.8,25,-40.2274,183.686,983.233,-0.614172,-0.457217,-1.76441,
2026_07_06_15_51_39.353,3.859,58.4,0,0.779,0,0,0,0, ,0,0,0,0,0, ,-40.5,184.2,984.4,-0.7,-0.5,-1.8,25,-40.2532,183.678,983.286,-0.619402,-0.459824,-1.76658,
2026_07_06_15_51_39.378,3.859,58.3,0,0.78,0,0,0,0, ,0,0,0,0,0, ,-40.5,182.2,982.9,-0.6,-0.4,-1.8,25,-40.2682,183.649,983.308,-0.621267,-0.459226,-1.76861,
2026_07_06_15_51_39.392,3.859,58.4,0,0.78,0,0,0,0, ,0,0,0,0,0, ,-40.4,184.2,982.6,-0.5,-0.4,-1.8,25,-40.2793,183.622,983.274,-0.616924,-0.455617,-1.77053,
2026_07_06_15_51_39.412,3.859,58.3,0,0.779,0,0,0,0, ,0,0,0,0,0, ,-41.2,184.3,983.3,-0.6,-0.5,-1.8,25,-40.311,183.66,983.254,-0.612846,-0.455274,-1.77232,
2026_07_06_15_51_39.432,3.859,58.3,0,0.779,0,0,0,0, ,0,0,0,0,0, ,-40,183.5,982.4,-0.6,-0.4,-1.8,25,-40.3286,183.675,983.23,-0.612063,-0.454953,-1.77401,
2026_07_06_15_51_39.451,3.859,58.2,0,0.779,0,0,0,0, ,0,0,0,0,0, ,-40.2,184,981.2,-0.6,-0.4,-1.7,25,-40.3147,183.679,983.143,-0.611328,-0.451604,-1.77255,
2026_07_06_15_51_39.472,3.859,58.2,0,0.777,0,0,0,0, ,0,0,0,0,0, ,-40.4,182.2,982.5,-0.6,-0.4,-1.8,25,-40.3138,183.644,983.064,-0.610638,-0.44846,-1.77117,
2026_07_06_15_51_39.492,3.859,58.3,0,0.778,0,0,0,0, ,0,0,0,0,0, ,-40.1,182.7,984.6,-0.6,-0.5,-1.8,25,-40.3099,183.571,983.093,-0.60999,-0.448553,-1.77293,
2026_07_06_15_51_39.511,3.859,58.3,0,0.779,0,0,0,0, ,0,0,0,0,0, ,-41.3,182.8,984.3,-0.7,-0.4,-1.8,25,-40.3337,183.521,983.176,-0.612428,-0.448642,-1.77458,
2026_07_06_15_51_39.531,3.859,58.2,0,0.779,0,0,0,0, ,0,0,0,0,0, ,-40,183.1,984.6,-0.7,-0.4,-1.8,25,-40.353,183.486,983.254,-0.617764,-0.445678,-1.77613,
2026_07_06_15_51_39.556,3.859,58.1,0,0.779,0,0,0,0, ,0,0,0,0,0, ,-39.6,182.3,984,-0.7,-0.5,-1.7,25,-40.3193,183.438,983.317,-0.622775,-0.445941,-1.77454,
2026_07_06_15_51_39.570,3.859,58.2,0,0.78,0,0,0,0, ,0,0,0,0,0, ,-40.4,182.6,982.4,-0.6,-0.4,-1.7,25,-40.2998,183.378,983.31,-0.624434,-0.446188,-1.76999,
2026_07_06_15_51_39.591,3.859,58.1,0,0.78,0,0,0,0, ,0,0,0,0,0, ,-41.2,183.1,983.8,-0.6,-0.4,-1.7,25,-40.3303,183.346,983.297,-0.622945,-0.443374,-1.76573,
2026_07_06_15_51_39.610,3.859,58.2,0,0.778,0,0,0,0, ,0,0,0,0,0, ,-40.1,183.1,983.3,-0.6,-0.5,-1.8,25,-40.3498,183.331,983.313,-0.621547,-0.443777,-1.76477,
2026_07_06_15_51_39.630,3.859,58.2,0,0.779,0,0,0,0, ,0,0,0,0,0, ,-40.8,182.2,983.3,-0.6,-0.5,-1.7,25,-40.3559,183.289,983.312,-0.620234,-0.447204,-1.76387,
2026_07_06_15_51_39.650,3.859,58.2,0,0.779,0,0,0,0, ,0,0,0,0,0, ,-40.5,182.7,983.5,-0.7,-0.5,-1.7,25,-40.3738,183.238,983.317,-0.622048,-0.450421,-1.75998,
2026_07_06_15_51_39.670,3.859,58,0,0.779,0,0,0,0, ,0,0,0,0,0, ,-39.4,184.3,984.3,-0.7,-0.5,-1.8,25,-40.348,183.254,983.353,-0.626798,-0.453442,-1.75937,
2026_07_06_15_51_39.689,3.859,58.1,0,0.78,0,0,0,0, ,0,0,0,0,0, ,-39.9,182.3,983.7,-0.6,-0.5,-1.8,25,-40.3054,183.257,983.392,-0.628212,-0.456279,-1.76185,
2026_07_06_15_51_39.709,3.859,58.1,0,0.78,0,0,0,0, ,0,0,0,0,0, ,-39.9,182.9,982.7,-0.7,-0.4,-1.8,25,-40.2807,183.217,983.381,-0.62954,-0.455897,-1.76417,
2026_07_06_15_51_39.728,3.859,58.1,0,0.779,0,0,0,0, ,0,0,0,0,0, ,-40.1,182.9,982.5,-0.6,-0.5,-1.8,25,-40.2636,183.198,983.333,-0.630787,-0.455537,-1.76635,
2026_07_06_15_51_39.749,3.859,58,0,0.779,0,0,0,0, ,0,0,0,0,0, ,-40.2,183.3,983.5,-0.5,-0.4,-1.7,25,-40.2567,183.192,983.313,-0.625864,-0.4552,-1.76536,
2026_07_06_15_51_39.769,3.859,58.1,0,0.779,0,0,0,0, ,0,0,0,0,0, ,-41.5,184.5,982.9,-0.5,-0.4,-1.8,25,-40.2929,183.235,983.306,-0.618194,-0.451836,-1.76442,
2026_07_06_15_51_39.789,3.859,58,0,0.779,0,0,0,0, ,0,0,0,0,0, ,-39.3,182.2,984.6,-0.7,-0.3,-1.8,25,-40.2994,183.242,983.333,-0.617085,-0.44563,-1.76659,
2026_07_06_15_51_39.809,3.859,58,0,0.779,0,0,0,0, ,0,0,0,0,0, ,-40.5,182.9,983.6,-0.7,-0.4,-1.8,25,-40.275,183.2,983.38,-0.622138,-0.439803,-1.76863,
2026_07_06_15_51_39.827,3.859,58,0,0.78,0,0,0,0, ,0,0,0,0,0, ,-40,182.6,981.4,-0.7,-0.4,-1.8,25,-40.2735,183.172,983.326,-0.626882,-0.437377,-1.77054,
2026_07_06_15_51_39.848,3.859,58,0,0.779,0,0,0,0, ,0,0,0,0,0, ,-40.5,183.9,983.3,-0.6,-0.5,-1.8,25,-40.2721,183.177,983.267,-0.628291,-0.438147,-1.77233,
2026_07_06_15_51_39.868,3.859,58.1,0,0.779,0,0,0,0, ,0,0,0,0,0, ,-40.4,183.7,983.8,-0.6,-0.4,-1.8,25,-40.2829,183.215,983.284,-0.626567,-0.438869,-1.77402,
2026_07_06_15_51_39.887,3.859,58,0,0.78,0,0,0,0, ,0,0,0,0,0, ,-39.3,184.4,984.1,-0.7,-0.4,-1.8,25,-40.2565,183.266,983.324,-0.627995,-0.4365,-1.7756,
2026_07_06_15_51_39.907,3.859,58,0,0.779,0,0,0,0, ,0,0,0,0,0, ,-41,184.2,981.4,-0.6,-0.5,-1.8,25,-40.2501,183.329,983.289,-0.629336,-0.437323,-1.77709,
2026_07_06_15_51_39.927,3.859,58,0,0.778,0,0,0,0, ,0,0,0,0,0, ,-40.8,182.8,982,-0.7,-0.4,-1.8,25,-40.2897,183.339,983.193,-0.630595,-0.438096,-1.77848,
2026_07_06_15_51_39.946,3.859,58,0,0.779,0,0,0,0, ,0,0,0,0,0, ,-40.5,182.4,983.3,-0.5,-0.5,-1.8,25,-40.3116,183.294,983.16,-0.628731,-0.438821,-1.7798,
2026_07_06_15_51_39.966,3.859,57.9,0,0.778,0,0,0,0, ,0,0,0,0,0, ,-39.9,183.8,982.9,-0.5,-0.4,-1.8,25,-40.3048,183.282,983.156,-0.620886,-0.439502,-1.78103,
2026_07_06_15_51_39.986,3.859,57.9,0,0.78,0,0,0,0, ,0,0,0,0,0, ,-40.6,183.7,982.4,-0.6,-0.5,-1.7,25,-40.3015,183.311,983.125,-0.616567,-0.440142,-1.77914,
2026_07_06_15_51_40.005,3.859,57.9,0,0.78,0,0,0,0, ,0,0,0,0,0, ,-40.5,184.4,984.2,-0.7,-0.4,-1.8,25,-40.3166,183.356,983.136,-0.618604,-0.440743,-1.77736,
2026_07_06_15_51_40.026,3.859,57.9,0,0.776,0,0,0,0, ,0,0,0,0,0, ,-41.3,182.3,983.7,-0.7,-0.5,-1.8,25,-40.3522,183.356,983.185,-0.623564,-0.441307,-1.77874,
2026_07_06_15_51_40.046,3.859,57.9,0,0.781,0,0,0,0, ,0,0,0,0,0, ,-40.2,182.4,982.6,-0.7,-0.4,-1.7,25,-40.3764,183.294,983.183,-0.628222,-0.441836,-1.77699,
2026_07_06_15_51_40.065,3.859,57.8,0,0.778,0,0,0,0, ,0,0,0,0,0, ,-40.2,184,983.2,-0.6,-0.4,-1.8,25,-40.3657,183.289,983.166,-0.629549,-0.439287,-1.77534,
2026_07_06_15_51_40.085,3.859,57.9,0,0.78,0,0,0,0, ,0,0,0,0,0, ,-39.6,183.4,983.6,-0.7,-0.5,-1.7,25,-40.3373,183.314,983.18,-0.630795,-0.43994,-1.7738,
2026_07_06_15_51_40.108,3.859,57.8,0,0.779,0,0,0,0, ,0,0,0,0,0, ,-41.7,182.1,983,-0.6,-0.4,-1.8,25,-40.3563,183.279,983.188,-0.631966,-0.440553,-1.77235,
2026_07_06_15_51_40.125,3.859,57.8,0,0.779,0,0,0,0, ,0,0,0,0,0, ,-41.3,182.9,983,-0.6,-0.4,-1.8,25,-40.426,183.232,983.176,-0.630018,-0.438082,-1.77403,
2026_07_06_15_51_40.145,3.859,57.7,0,0.779,0,0,0,0, ,0,0,0,0,0, ,-40.7,182.8,983.1,-0.5,-0.4,-1.8,25,-40.461,183.209,983.168,-0.625142,-0.435761,-1.77562,
2026_07_06_15_51_40.164,3.859,57.8,0,0.78,0,0,0,0, ,0,0,0,0,0, ,-40.5,182.4,982.7,-0.5,-0.5,-1.7,25,-40.4695,183.171,983.152,-0.617516,-0.436629,-1.77406,
2026_07_06_15_51_40.184,3.859,57.8,0,0.779,0,0,0,0, ,0,0,0,0,0, ,-39.9,183.4,984.6,-0.6,-0.4,-1.8,25,-40.4531,183.155,983.182,-0.613402,-0.437444,-1.77259,
2026_07_06_15_51_40.204,3.859,57.7,0,0.779,0,0,0,0, ,0,0,0,0,0, ,-40.2,184.2,983.6,-0.7,-0.4,-1.8,25,-40.4285,183.194,983.238,-0.615632,-0.435162,-1.77426,
2026_07_06_15_51_40.226,3.859,57.7,0,0.779,0,0,0,0, ,0,0,0,0,0, ,-40.6,183.3,981.8,-0.7,-0.5,-1.8,25,-40.4268,183.228,983.206,-0.620773,-0.436066,-1.77583,
2026_07_06_15_51_40.243,3.859,57.7,0,0.779,0,0,0,0, ,0,0,0,0,0, ,-39.9,184,982.6,-0.6,-0.4,-1.9,25,-40.416,183.254,983.144,-0.622554,-0.436915,-1.78035,
2026_07_06_15_51_40.263,3.859,57.7,0,0.779,0,0,0,0, ,0,0,0,0,0, ,-40,182.6,982.7,-0.6,-0.5,-1.7,25,-40.3876,183.257,983.114,-0.62118,-0.437713,-1.78155,
2026_07_06_15_51_40.285,3.859,57.7,0,0.778,0,0,0,0, ,0,0,0,0,0, ,-39.5,182.4,982.6,-0.6,-0.5,-1.8,25,-40.3487,183.211,983.086,-0.619889,-0.441508,-1.77962,
2026_07_06_15_51_40.303,3.859,57.7,0,0.779,0,0,0,0, ,0,0,0,0,0, ,-39.9,183.7,983.2,-0.7,-0.5,-1.8,25,-40.3092,183.201,983.075,-0.621724,-0.445073,-1.78087,
2026_07_06_15_51_40.323,3.859,57.7,0,0.776,0,0,0,0, ,0,0,0,0,0, ,-41.3,184.2,982.6,-0.7,-0.4,-1.8,25,-40.3269,183.246,983.064,-0.626494,-0.445373,-1.78203,
2026_07_06_15_51_40.342,3.859,57.6,0,0.778,0,0,0,0, ,0,0,0,0,0, ,-39.3,184.2,983.7,-0.6,-0.4,-1.9,25,-40.3253,183.305,983.069,-0.627926,-0.442608,-1.78617,
2026_07_06_15_51_40.362,3.859,57.6,0,0.779,0,0,0,0, ,0,0,0,0,0, ,-39.1,184.5,984.4,-0.6,-0.4,-1.7,25,-40.2567,183.368,983.129,-0.626224,-0.440011,-1.78702,
2026_07_06_15_51_40.382,3.859,57.6,0,0.78,0,0,0,0, ,0,0,0,0,0, ,-40.1,182.9,983.3,-0.7,-0.4,-1.8,25,-40.2167,183.388,983.173,-0.627673,-0.437573,-1.78476,
2026_07_06_15_51_40.402,3.859,57.6,0,0.778,0,0,0,0, ,0,0,0,0,0, ,-39.7,183.2,982.5,-0.6,-0.4,-1.8,25,-40.1974,183.368,983.156,-0.629034,-0.435284,-1.78569,
2026_07_06_15_51_40.421,3.859,57.6,0,0.778,0,0,0,0, ,0,0,0,0,0, ,-40.5,183.3,983.3,-0.6,-0.5,-1.7,25,-40.1915,183.361,983.141,-0.627265,-0.43618,-1.78351,
2026_07_06_15_51_40.442,3.859,57.6,0,0.778,0,0,0,0, ,0,0,0,0,0, ,-39.6,182.1,983.7,-0.5,-0.5,-1.8,25,-40.1828,183.32,983.162,-0.622556,-0.440069,-1.78147,
2026_07_06_15_51_40.461,3.859,57.6,0,0.778,0,0,0,0, ,0,0,0,0,0, ,-39.5,183.9,984.1,-0.5,-0.4,-1.8,25,-40.1443,183.301,983.207,-0.615088,-0.440675,-1.7826,
2026_07_06_15_51_40.481,3.859,57.6,0,0.778,0,0,0,0, ,0,0,0,0,0, ,-40.7,183.8,984.8,-0.7,-0.4,-1.9,25,-40.1416,183.334,983.283,-0.614169,-0.438196,-1.78671,
2026_07_06_15_51_40.501,3.859,57.5,0,0.777,0,0,0,0, ,0,0,0,0,0, ,-40.5,182.4,983.8,-0.7,-0.4,-1.7,25,-40.1695,183.32,983.345,-0.619399,-0.435868,-1.78752,
2026_07_06_15_51_40.522,3.859,57.5,0,0.779,0,0,0,0, ,0,0,0,0,0, ,-40.4,182.4,983.6,-0.7,-0.4,-1.8,25,-40.1866,183.264,983.367,-0.624311,-0.433683,-1.78523,
2026_07_06_15_51_40.540,3.859,57.5,0,0.78,0,0,0,0, ,0,0,0,0,0, ,-41.2,182.2,983,-0.6,-0.5,-1.8,25,-40.224,183.205,983.363,-0.625876,-0.434677,-1.78613,
2026_07_06_15_51_40.560,3.859,57.5,0,0.779,0,0,0,0, ,0,0,0,0,0, ,-40,185.3,984.9,-0.6,-0.5,-1.8,25,-40.2469,183.238,983.398,-0.624299,-0.438658,-1.78698,
2026_07_06_15_51_40.580,3.859,57.5,0,0.78,0,0,0,0, ,0,0,0,0,0, ,-40.7,184.2,983,-0.6,-0.4,-1.8,25,-40.2532,183.331,983.432,-0.622818,-0.439349,-1.78777,
2026_07_06_15_51_40.599,3.859,57.5,0,0.78,0,0,0,0, ,0,0,0,0,0, ,-41.6,183.8,983.1,-0.7,-0.5,-1.8,25,-40.3078,183.371,983.409,-0.624475,-0.439998,-1.78852,
2026_07_06_15_51_40.620,3.859,57.3,0,0.779,0,0,0,0, ,0,0,0,0,0, ,-40,183.3,983.5,-0.6,-0.5,-1.8,25,-40.3378,183.382,983.402,-0.62603,-0.443654,-1.78922,
2026_07_06_15_51_40.640,3.859,57.5,0,0.778,0,0,0,0, ,0,0,0,0,0, ,-39,183.7,983.1,-0.5,-0.4,-1.8,25,-40.2868,183.389,983.396,-0.621397,-0.444041,-1.78987,
2026_07_06_15_51_40.659,3.859,57.3,0,0.778,0,0,0,0, ,0,0,0,0,0, ,-40.5,182.6,982.9,-0.5,-0.5,-1.8,25,-40.2541,183.375,983.372,-0.614,-0.444404,-1.79049,
2026_07_06_15_51_40.679,3.859,57.5,0,0.778,0,0,0,0, ,0,0,0,0,0, ,-40.7,183.4,985.3,-0.5,-0.5,-1.8,25,-40.2751,183.352,983.416,-0.607053,-0.447792,-1.79107,
2026_07_06_15_51_40.699,3.859,57.3,0,0.778,0,0,0,0, ,0,0,0,0,0, ,-40,183.3,984.3,-0.7,-0.5,-1.8,25,-40.2797,183.352,983.501,-0.606623,-0.450973,-1.79161,
2026_07_06_15_51_40.719,3.859,57.3,0,0.778,0,0,0,0, ,0,0,0,0,0, ,-39.9,183.9,983.8,-0.7,-0.5,-1.8,25,-40.2596,183.367,983.534,-0.612313,-0.453961,-1.79212,
2026_07_06_15_51_40.738,3.859,57.3,0,0.778,0,0,0,0, ,0,0,0,0,0, ,-40.1,183.1,984.8,-0.7,-0.4,-1.8,25,-40.2438,183.375,983.581,-0.617656,-0.45372,-1.7926,
2026_07_06_15_51_40.758,3.859,57.2,0,0.776,0,0,0,0, ,0,0,0,0,0, ,-41.2,184.8,984,-0.6,-0.5,-1.8,25,-40.2685,183.41,983.631,-0.619627,-0.453493,-1.79306,
2026_07_06_15_51_40.781,3.859,57.2,0,0.779,0,0,0,0, ,0,0,0,0,0, ,-41.2,183.8,983.2,-0.6,-0.5,-1.8,25,-40.3253,183.464,983.629,-0.618431,-0.456327,-1.79348,
2026_07_06_15_51_40.806,3.859,57.3,0,0.779,0,0,0,0, ,0,0,0,0,0, ,-40.1,184.6,981.9,-0.6,-0.4,-1.7,25,-40.3451,183.509,983.563,-0.617308,-0.455941,-1.79083,
2026_07_06_15_51_40.818,3.859,57.2,0,0.776,0,0,0,0, ,0,0,0,0,0, ,-41,183.8,983.5,-0.6,-0.4,-1.8,25,-40.3576,183.551,983.51,-0.616254,-0.452532,-1.78834,
2026_07_06_15_51_40.837,3.859,57.2,0,0.778,0,0,0,0, ,0,0,0,0,0, ,-40,182.3,982.4,-0.6,-0.4,-1.9,25,-40.3663,183.521,983.476,-0.615263,-0.449331,-1.7921,
2026_07_06_15_51_40.857,3.859,57.2,0,0.779,0,0,0,0, ,0,0,0,0,0, ,-40.1,182.4,982.9,-0.5,-0.4,-1.8,25,-40.347,183.449,983.426,-0.611286,-0.446325,-1.79563,
2026_07_06_15_51_40.877,3.859,57.3,0,0.778,0,0,0,0, ,0,0,0,0,0, ,-40.4,184.3,983.6,-0.5,-0.5,-1.7,25,-40.3411,183.443,983.415,-0.604505,-0.446549,-1.79285,
2026_07_06_15_51_40.897,3.859,57.1,0,0.778,0,0,0,0, ,0,0,0,0,0, ,-40.8,184.8,984,-0.7,-0.4,-1.9,25,-40.3569,183.511,983.439,-0.60423,-0.446759,-1.79328,
2026_07_06_15_51_40.916,3.859,57.2,0,0.779,0,0,0,0, ,0,0,0,0,0, ,-39.5,182.4,983.1,-0.7,-0.5,-1.8,25,-40.3442,183.516,983.445,-0.610066,-0.446957,-1.79674,
2026_07_06_15_51_40.936,3.859,57.2,0,0.779,0,0,0,0, ,0,0,0,0,0, ,-40.1,183.5,984.1,-0.5,-0.5,-1.8,25,-40.3111,183.482,983.455,-0.609453,-0.450189,-1.79694,
2026_07_06_15_51_40.956,3.859,57.2,0,0.778,0,0,0,0, ,0,0,0,0,0, ,-40.4,184,984,-0.5,-0.5,-1.8,25,-40.3074,183.498,983.491,-0.602783,-0.453225,-1.79712,
2026_07_06_15_51_40.975,3.859,57.1,0,0.779,0,0,0,0, ,0,0,0,0,0, ,-39.9,182.6,983.8,-0.6,-0.4,-1.8,25,-40.2978,183.486,983.516,-0.599566,-0.453028,-1.7973,
2026_07_06_15_51_40.996,3.859,57.1,0,0.778,0,0,0,0, ,0,0,0,0,0, ,-39.9,182.3,984.2,-0.6,-0.5,-1.8,25,-40.2735,183.423,983.546,-0.599593,-0.452843,-1.79746,
2026_07_06_15_51_41.016,3.859,57,0,0.778,0,0,0,0, ,0,0,0,0,0, ,-40,182.3,983.3,-0.6,-0.4,-1.8,25,-40.2538,183.354,983.558,-0.599618,-0.45267,-1.79762,
2026_07_06_15_51_41.035,3.859,57.1,0,0.78,0,0,0,0, ,0,0,0,0,0, ,-41,182.8,984,-0.7,-0.4,-1.8,25,-40.2688,183.305,983.564,-0.602688,-0.449461,-1.79776,
2026_07_06_15_51_41.055,3.859,57.1,0,0.778,0,0,0,0, ,0,0,0,0,0, ,-41.2,184.3,984.4,-0.6,-0.5,-1.8,25,-40.3195,183.32,983.602,-0.605571,-0.449493,-1.7979,
2026_07_06_15_51_41.075,3.859,57.1,0,0.779,0,0,0,0, ,0,0,0,0,0, ,-40.2,184.2,981.6,-0.6,-0.5,-1.9,25,-40.3427,183.377,983.566,-0.605231,-0.452571,-1.80107,
2026_07_06_15_51_41.094,3.859,57,0,0.778,0,0,0,0, ,0,0,0,0,0, ,-40.6,183.3,983.1,-0.7,-0.4,-1.8,25,-40.3462,183.4,983.492,-0.60796,-0.452415,-1.80406,
2026_07_06_15_51_41.114,3.859,57.1,0,0.779,0,0,0,0, ,0,0,0,0,0, ,-40.8,183.7,982,-0.6,-0.5,-1.8,25,-40.3677,183.406,983.434,-0.610521,-0.452267,-1.80381,
2026_07_06_15_51_41.134,3.859,57,0,0.779,0,0,0,0, ,0,0,0,0,0, ,-40.6,183.1,983.3,-0.5,-0.4,-1.8,25,-40.388,183.405,983.386,-0.606833,-0.452129,-1.80358,
2026_07_06_15_51_41.154,3.859,57,0,0.779,0,0,0,0, ,0,0,0,0,0, ,-40.6,183.4,984.8,-0.6,-0.4,-1.8,25,-40.4009,183.396,983.427,-0.60337,-0.448953,-1.80336,
2026_07_06_15_51_41.174,3.859,57,0,0.776,0,0,0,0, ,0,0,0,0,0, ,-39.1,183.2,983.8,-0.6,-0.4,-1.8,25,-40.3673,183.39,983.48,-0.603165,-0.44597,-1.80315,
2026_07_06_15_51_41.194,3.859,57,0,0.778,0,0,0,0, ,0,0,0,0,0, ,-41,183.1,983.6,-0.7,-0.4,-1.8,25,-40.348,183.375,983.493,-0.606019,-0.443168,-1.80296,
2026_07_06_15_51_41.213,3.859,56.9,0,0.778,0,0,0,0, ,0,0,0,0,0, ,-39.9,182.6,984,-0.7,-0.5,-1.7,25,-40.3542,183.343,983.512,-0.611746,-0.443585,-1.79973,
2026_07_06_15_51_41.233,3.859,56.9,0,0.779,0,0,0,0, ,0,0,0,0,0, ,-40,182.8,984.6,-0.6,-0.5,-1.8,25,-40.3296,183.304,983.56,-0.614077,-0.447022,-1.7967,
2026_07_06_15_51_41.253,3.859,56.8,0,0.779,0,0,0,0, ,0,0,0,0,0, ,-40.4,184.6,983,-0.6,-0.5,-1.8,25,-40.3217,183.328,983.575,-0.613219,-0.450251,-1.7969,
2026_07_06_15_51_41.272,3.859,56.9,0,0.778,0,0,0,0, ,0,0,0,0,0, ,-40.6,184,983.6,-0.7,-0.5,-1.8,25,-40.3325,183.388,983.558,-0.61546,-0.453282,-1.79709,
2026_07_06_15_51_41.293,3.859,56.9,0,0.778,0,0,0,0, ,0,0,0,0,0, ,-40.5,184.3,983.2,-0.6,-0.4,-1.8,25,-40.3458,183.434,983.548,-0.617565,-0.453082,-1.79727,
2026_07_06_15_51_41.312,3.859,56.8,0,0.779,0,0,0,0, ,0,0,0,0,0, ,-40,183.2,982.1,-0.6,-0.4,-1.7,25,-40.34,183.453,983.494,-0.616495,-0.449848,-1.79439,
2026_07_06_15_51_41.332,3.859,56.9,0,0.779,0,0,0,0, ,0,0,0,0,0, ,-40.1,183.1,984,-0.6,-0.4,-1.8,25,-40.3223,183.435,983.467,-0.61549,-0.44681,-1.79168,
2026_07_06_15_51_41.352,3.859,56.9,0,0.778,0,0,0,0, ,0,0,0,0,0, ,-41,183.4,983.1,-0.5,-0.5,-1.8,25,-40.3362,183.424,983.472,-0.611499,-0.447004,-1.79219,
2026_07_06_15_51_41.375,3.859,56.7,0,0.779,0,0,0,0, ,0,0,0,0,0, ,-41,182.8,984.3,-0.6,-0.5,-1.8,25,-40.3766,183.404,983.486,-0.607751,-0.450234,-1.79267,
2026_07_06_15_51_41.392,3.859,56.8,0,0.778,0,0,0,0, ,0,0,0,0,0, ,-40.2,182.6,983,-0.6,-0.4,-1.8,25,-40.3902,183.361,983.496,-0.607279,-0.45022,-1.79311,
2026_07_06_15_51_41.411,3.859,56.8,0,0.776,0,0,0,0, ,0,0,0,0,0, ,-40,182,984.4,-0.7,-0.4,-1.8,25,-40.3725,183.296,983.508,-0.609882,-0.447159,-1.79353,
2026_07_06_15_51_41.430,3.859,56.8,0,0.78,0,0,0,0, ,0,0,0,0,0, ,-40.2,185.3,982.4,-0.6,-0.4,-1.8,25,-40.3559,183.318,983.501,-0.612327,-0.444286,-1.79393,
2026_07_06_15_51_41.451,3.859,56.9,0,0.778,0,0,0,0, ,0,0,0,0,0, ,-39.1,183.7,983.7,-0.6,-0.5,-1.8,25,-40.3129,183.39,983.474,-0.611576,-0.444634,-1.7943,
2026_07_06_15_51_41.470,3.859,56.8,0,0.778,0,0,0,0, ,0,0,0,0,0, ,-41.1,184,983.3,-0.5,-0.4,-1.8,25,-40.2999,183.418,983.476,-0.607823,-0.444961,-1.79465,
2026_07_06_15_51_41.490,3.859,56.7,0,0.778,0,0,0,0, ,0,0,0,0,0, ,-40.6,183.9,983.2,-0.5,-0.5,-1.8,25,-40.3335,183.45,983.462,-0.601253,-0.445268,-1.79497,
2026_07_06_15_51_41.510,3.859,56.8,0,0.779,0,0,0,0, ,0,0,0,0,0, ,-40.1,183.4,983.3,-0.6,-0.4,-1.8,25,-40.3345,183.463,983.449,-0.59813,-0.445556,-1.79528,
2026_07_06_15_51_41.530,3.859,56.8,0,0.777,0,0,0,0, ,0,0,0,0,0, ,-41.2,182,983.7,-0.6,-0.5,-1.8,25,-40.3537,183.416,983.452,-0.598244,-0.445827,-1.79557,
2026_07_06_15_51_41.550,3.859,56.8,0,0.778,0,0,0,0, ,0,0,0,0,0, ,-41.1,182.6,982.5,-0.6,-0.4,-1.8,25,-40.4022,183.348,983.431,-0.598351,-0.446081,-1.79584,
2026_07_06_15_51_41.571,3.859,56.7,0,0.778,0,0,0,0, ,0,0,0,0,0, ,-40.5,183.1,984.3,-0.6,-0.5,-1.8,25,-40.4265,183.318,983.429,-0.598451,-0.44632,-1.79609,
2026_07_06_15_51_41.595,3.859,56.7,0,0.778,0,0,0,0, ,0,0,0,0,0, ,-40.5,183.7,985.4,-0.6,-0.4,-1.8,25,-40.4309,183.323,983.515,-0.598546,-0.446544,-1.79633,
2026_07_06_15_51_41.609,3.859,56.8,0,0.777,0,0,0,0, ,0,0,0,0,0, ,-40.2,182.8,982.5,-0.6,-0.5,-1.8,25,-40.426,183.318,983.542,-0.598634,-0.446755,-1.79655,
2026_07_06_15_51_41.629,3.859,56.7,0,0.776,0,0,0,0, ,0,0,0,0,0, ,-39.4,183.5,983,-0.6,-0.5,-1.8,25,-40.3879,183.308,983.494,-0.598717,-0.45,-1.79676,
2026_07_06_15_51_41.649,3.859,56.7,0,0.777,0,0,0,0, ,0,0,0,0,0, ,-39.9,183.5,985.1,-0.6,-0.5,-1.7,25,-40.3429,183.32,983.527,-0.598796,-0.453046,-1.79391,
2026_07_06_15_51_41.668,3.859,56.7,0,0.777,0,0,0,0, ,0,0,0,0,0, ,-39.6,183.7,984.6,-0.7,-0.5,-1.7,25,-40.3068,183.337,983.608,-0.601916,-0.455908,-1.78819,
2026_07_06_15_51_41.688,3.859,56.7,0,0.778,0,0,0,0, ,0,0,0,0,0, ,-40,183.7,985.2,-0.7,-0.5,-1.8,25,-40.2759,183.359,983.687,-0.607893,-0.458595,-1.78586,
2026_07_06_15_51_41.708,3.859,56.7,0,0.777,0,0,0,0, ,0,0,0,0,0, ,-41.3,182.9,982.9,-0.7,-0.4,-1.8,25,-40.2987,183.355,983.709,-0.613506,-0.458071,-1.78672,
2026_07_06_15_51_41.728,3.859,56.7,0,0.778,0,0,0,0, ,0,0,0,0,0, ,-40.7,183.1,984.2,-0.6,-0.5,-1.8,25,-40.3414,183.334,983.699,-0.61573,-0.457579,-1.78753,
2026_07_06_15_51_41.747,3.859,56.6,0,0.778,0,0,0,0, ,0,0,0,0,0, ,-39.6,184.5,983.7,-0.5,-0.4,-1.8,25,-40.3298,183.362,983.715,-0.611724,-0.457117,-1.78829,
2026_07_06_15_51_41.768,3.859,56.6,0,0.777,0,0,0,0, ,0,0,0,0,0, ,-40.8,185.4,982.5,-0.6,-0.4,-1.8,25,-40.3218,183.459,983.677,-0.607963,-0.453637,-1.78901,
2026_07_06_15_51_41.787,3.859,56.6,0,0.776,0,0,0,0, ,0,0,0,0,0, ,-40.6,183.5,983.2,-0.6,-0.5,-1.8,25,-40.3449,183.519,983.627,-0.607478,-0.453415,-1.78968,
2026_07_06_15_51_41.806,3.859,56.5,0,0.777,0,0,0,0, ,0,0,0,0,0, ,-41,182.7,982.4,-0.6,-0.4,-1.8,25,-40.3726,183.494,983.576,-0.607022,-0.453207,-1.79031,
2026_07_06_15_51_41.827,3.859,56.6,0,0.778,0,0,0,0, ,0,0,0,0,0, ,-40.4,183.3,982.6,-0.6,-0.4,-1.9,25,-40.3926,183.464,983.511,-0.606594,-0.449965,-1.79394,
2026_07_06_15_51_41.847,3.859,56.5,0,0.778,0,0,0,0, ,0,0,0,0,0, ,-39.3,183.7,982.5,-0.5,-0.5,-1.8,25,-40.3595,183.466,983.452,-0.603145,-0.449967,-1.79736,
2026_07_06_15_51_41.866,3.859,56.5,0,0.779,0,0,0,0, ,0,0,0,0,0, ,-40.5,183.2,985.5,-0.7,-0.5,-1.9,25,-40.3315,183.465,983.486,-0.602954,-0.453016,-1.80057,
2026_07_06_15_51_41.886,3.859,56.6,0,0.778,0,0,0,0, ,0,0,0,0,0, ,-41.6,183.7,983.6,-0.7,-0.5,-1.8,25,-40.3753,183.464,983.55,-0.608867,-0.455879,-1.80358,
2026_07_06_15_51_41.906,3.859,56.5,0,0.779,0,0,0,0, ,0,0,0,0,0, ,-40.5,182.6,983.7,-0.8,-0.5,-1.7,25,-40.4164,183.445,983.556,-0.617468,-0.458567,-1.80031,
2026_07_06_15_51_41.925,3.859,56.4,0,0.778,0,0,0,0, ,0,0,0,0,0, ,-41.5,182.8,982,-0.7,-0.4,-1.8,25,-40.452,183.399,983.513,-0.625544,-0.458045,-1.79725,
2026_07_06_15_51_41.945,3.859,56.5,0,0.778,0,0,0,0, ,0,0,0,0,0, ,-40.7,183.3,983.1,-0.5,-0.5,-1.8,25,-40.4915,183.378,983.455,-0.623987,-0.457555,-1.79742,
2026_07_06_15_51_41.965,3.859,56.5,0,0.778,0,0,0,0, ,0,0,0,0,0, ,-40.6,183.7,983.3,-0.5,-0.5,-1.7,25,-40.5011,183.386,983.439,-0.616432,-0.460142,-1.79453,
2026_07_06_15_51_41.985,3.859,56.4,0,0.778,0,0,0,0, ,0,0,0,0,0, ,-40.4,183.1,983.3,-0.6,-0.4,-1.8,25,-40.5011,183.386,983.431,-0.612384,-0.459524,-1.79181,
2026_07_06_15_51_42.005,3.859,56.4,0,0.778,0,0,0,0, ,0,0,0,0,0, ,-39.4,183.9,984.1,-0.6,-0.4,-1.8,25,-40.4644,183.393,983.447,-0.611629,-0.455896,-1.79231,
2026_07_06_15_51_42.025,3.859,56.4,0,0.778,0,0,0,0, ,0,0,0,0,0, ,-40.7,182.9,983.1,-0.7,-0.5,-1.8,25,-40.4392,183.394,983.456,-0.613967,-0.455537,-1.79278,
2026_07_06_15_51_42.044,3.859,56.4,0,0.778,0,0,0,0, ,0,0,0,0,0, ,-40.2,182.9,983.5,-0.6,-0.5,-1.8,25,-40.4398,183.364,983.447,-0.616163,-0.458246,-1.79322,
2026_07_06_15_51_42.063,3.859,56.4,0,0.779,0,0,0,0, ,0,0,0,0,0, ,-38.9,184.2,983,-0.6,-0.5,-1.8,25,-40.3856,183.375,983.435,-0.615178,-0.460791,-1.79363,
2026_07_06_15_51_42.083,3.859,56.5,0,0.778,0,0,0,0, ,0,0,0,0,0, ,-40,184.6,984.4,-0.6,-0.5,-1.8,25,-40.3286,183.438,983.451,-0.614253,-0.46318,-1.79402,
2026_07_06_15_51_42.104,3.859,56.5,0,0.779,0,0,0,0, ,0,0,0,0,0, ,-39.3,184.2,983.1,-0.7,-0.5,-1.7,25,-40.2872,183.496,983.469,-0.616431,-0.465424,-1.79134,
2026_07_06_15_51_42.123,3.859,56.3,0,0.777,0,0,0,0, ,0,0,0,0,0, ,-40.7,182.7,983.1,-0.6,-0.4,-1.7,25,-40.2697,183.493,983.447,-0.618477,-0.464484,-1.78577,
2026_07_06_15_51_42.143,3.859,56.3,0,0.778,0,0,0,0, ,0,0,0,0,0, ,-39.9,182.9,982.1,-0.5,-0.5,-1.8,25,-40.2716,183.451,983.395,-0.614304,-0.463601,-1.78359,
2026_07_06_15_51_42.163,3.859,56.4,0,0.778,0,0,0,0, ,0,0,0,0,0, ,-40.7,182.3,983.7,-0.5,-0.5,-1.8,25,-40.2733,183.399,983.365,-0.607339,-0.465819,-1.78459,
2026_07_06_15_51_42.182,3.859,56.4,0,0.778,0,0,0,0, ,0,0,0,0,0, ,-40.5,182.8,984,-0.5,-0.5,-1.8,25,-40.2932,183.347,983.395,-0.600798,-0.467902,-1.78553,
2026_07_06_15_51_42.203,3.859,56.3,0,0.779,0,0,0,0, ,0,0,0,0,0, ,-41,182.3,983.5,-0.6,-0.5,-1.8,25,-40.3211,183.299,983.416,-0.597702,-0.469858,-1.78641,
2026_07_06_15_51_42.225,3.859,56.3,0,0.778,0,0,0,0, ,0,0,0,0,0, ,-38.8,184.2,983.8,-0.7,-0.4,-1.8,25,-40.2954,183.296,983.43,-0.600889,-0.468648,-1.78724,
2026_07_06_15_51_42.244,3.859,56.3,0,0.779,0,0,0,0, ,0,0,0,0,0, ,-39.1,183.1,982.5,-0.7,-0.5,-1.8,25,-40.2134,183.317,983.413,-0.606929,-0.467512,-1.78802,
2026_07_06_15_51_42.263,3.859,56.3,0,0.778,0,0,0,0, ,0,0,0,0,0, ,-41.1,183.3,983.2,-0.5,-0.5,-1.8,25,-40.2065,183.31,983.379,-0.606507,-0.469492,-1.78875,
2026_07_06_15_51_42.286,3.859,56.2,0,0.778,0,0,0,0, ,0,0,0,0,0, ,-39.7,183.9,984.4,-0.6,-0.5,-1.8,25,-40.2183,183.328,983.405,-0.603063,-0.471351,-1.78943,
2026_07_06_15_51_42.313,3.859,56.2,0,0.776,0,0,0,0, ,0,0,0,0,0, ,-40.1,182,982.9,-0.6,-0.4,-1.8,25,-40.1989,183.305,983.42,-0.602877,-0.47005,-1.79008,
2026_07_06_15_51_42.323,3.859,56.2,0,0.778,0,0,0,0, ,0,0,0,0,0, ,-41.1,183.4,984.1,-0.7,-0.5,-1.8,25,-40.2233,183.268,983.425,-0.605748,-0.468828,-1.79068,
2026_07_06_15_51_42.348,3.859,56.2,0,0.778,0,0,0,0, ,0,0,0,0,0, ,-40,183.4,983,-0.7,-0.5,-1.8,25,-40.2432,183.276,983.432,-0.611492,-0.470727,-1.79125,
2026_07_06_15_51_42.361,3.859,56.2,0,0.778,0,0,0,0, ,0,0,0,0,0, ,-40.6,182.6,982.5,-0.6,-0.5,-1.8,25,-40.2467,183.259,983.391,-0.613838,-0.472511,-1.79178,
2026_07_06_15_51_42.381,3.859,56.2,0,0.778,0,0,0,0, ,0,0,0,0,0, ,-40.4,185.7,983.3,-0.6,-0.4,-1.8,25,-40.2621,183.314,983.361,-0.612995,-0.471139,-1.79228,
2026_07_06_15_51_42.400,3.859,56.2,0,0.778,0,0,0,0, ,0,0,0,0,0, ,-40.2,184.9,982.4,-0.5,-0.4,-1.8,25,-40.2644,183.435,983.33,-0.609156,-0.466804,-1.79275,
2026_07_06_15_51_42.420,3.859,56.1,0,0.778,0,0,0,0, ,0,0,0,0,0, ,-41,181.7,983.1,-0.6,-0.5,-1.8,25,-40.2849,183.426,983.294,-0.605551,-0.46578,-1.7932,
2026_07_06_15_51_42.440,3.859,56.2,0,0.778,0,0,0,0, ,0,0,0,0,0, ,-40.5,183.5,982.4,-0.5,-0.5,-1.8,25,-40.3132,183.376,983.261,-0.602166,-0.467866,-1.79361,
2026_07_06_15_51_42.460,3.859,56.1,0,0.778,0,0,0,0, ,0,0,0,0,0, ,-40.5,181.8,984.4,-0.6,-0.5,-1.8,25,-40.3246,183.332,983.27,-0.598987,-0.469824,-1.794,
2026_07_06_15_51_42.480,3.859,56.1,0,0.779,0,0,0,0, ,0,0,0,0,0, ,-39.9,183.3,983.7,-0.6,-0.5,-1.8,25,-40.317,183.284,983.317,-0.599049,-0.471663,-1.79437,
2026_07_06_15_51_42.500,3.859,56.2,0,0.778,0,0,0,0, ,0,0,0,0,0, ,-40.1,183.3,983.6,-0.6,-0.5,-1.8,25,-40.2977,183.285,983.337,-0.599107,-0.473389,-1.79471,
2026_07_06_15_51_42.519,3.859,56.2,0,0.778,0,0,0,0, ,0,0,0,0,0, ,-39.6,184.5,983.2,-0.7,-0.5,-1.7,25,-40.2704,183.323,983.341,-0.602208,-0.475011,-1.79198,
2026_07_06_15_51_42.539,3.859,56.1,0,0.778,0,0,0,0, ,0,0,0,0,0, ,-40.5,183.1,982.4,-0.7,-0.5,-1.8,25,-40.257,183.352,983.308,-0.608167,-0.476534,-1.78943,
2026_07_06_15_51_42.563,3.859,56.1,0,0.777,0,0,0,0, ,0,0,0,0,0, ,-40.7,183.5,982,-0.5,-0.5,-1.8,25,-40.2779,183.349,983.241,-0.60767,-0.477964,-1.79007,
2026_07_06_15_51_42.581,3.859,56.1,0,0.778,0,0,0,0, ,0,0,0,0,0, ,-39.5,184.5,983.3,-0.5,-0.5,-1.7,25,-40.2671,183.388,983.205,-0.601109,-0.479307,-1.78763,
2026_07_06_15_51_42.598,3.859,56,0,0.778,0,0,0,0, ,0,0,0,0,0, ,-40.2,183.8,983.1,-0.6,-0.4,-1.8,25,-40.2416,183.435,983.204,-0.597994,-0.477521,-1.78534,
2026_07_06_15_51_42.618,3.859,56.1,0,0.779,0,0,0,0, ,0,0,0,0,0, ,-39.9,183.9,982.6,-0.6,-0.5,-1.7,25,-40.23,183.46,983.183,-0.598116,-0.475844,-1.78318,
2026_07_06_15_51_42.638,3.859,56,0,0.778,0,0,0,0, ,0,0,0,0,0, ,-40.2,183.2,984,-0.6,-0.5,-1.8,25,-40.219,183.465,983.19,-0.598231,-0.477316,-1.78116,
2026_07_06_15_51_42.658,3.859,56,0,0.777,0,0,0,0, ,0,0,0,0,0, ,-39.9,181.6,984.3,-0.7,-0.4,-1.8,25,-40.2087,183.401,983.248,-0.601386,-0.475651,-1.78231,
2026_07_06_15_51_42.678,3.859,56,0,0.776,0,0,0,0, ,0,0,0,0,0, ,-40.2,183.7,984.1,-0.6,-0.4,-1.7,25,-40.199,183.355,983.306,-0.604348,-0.471041,-1.78034,
2026_07_06_15_51_42.697,3.859,56,0,0.778,0,0,0,0, ,0,0,0,0,0, ,-39.4,182.9,984.1,-0.6,-0.5,-1.8,25,-40.1747,183.351,983.355,-0.604083,-0.469759,-1.77849,
2026_07_06_15_51_42.717,3.859,56,0,0.776,0,0,0,0, ,0,0,0,0,0, ,-39.6,184.2,984.3,-0.6,-0.5,-1.8,25,-40.1336,183.364,983.406,-0.603835,-0.471602,-1.7798,
2026_07_06_15_51_42.737,3.859,55.9,0,0.778,0,0,0,0, ,0,0,0,0,0, ,-40.7,184,981.5,-0.6,-0.4,-1.8,25,-40.1346,183.408,983.375,-0.603601,-0.470285,-1.78103,
2026_07_06_15_51_42.757,3.859,56,0,0.778,0,0,0,0, ,0,0,0,0,0, ,-42.1,184.6,982.5,-0.6,-0.5,-1.7,25,-40.2117,183.463,983.292,-0.603381,-0.469049,-1.77914,
2026_07_06_15_51_42.776,3.859,55.9,0,0.777,0,0,0,0, ,0,0,0,0,0, ,-39.7,183.4,981.5,-0.6,-0.4,-1.8,25,-40.2536,183.495,983.213,-0.603175,-0.467888,-1.77737,
2026_07_06_15_51_42.798,3.859,56,0,0.776,0,0,0,0, ,0,0,0,0,0, ,-40,183.5,984,-0.5,-0.4,-1.9,25,-40.2291,183.493,983.185,-0.599935,-0.463752,-1.78179,
2026_07_06_15_51_42.816,3.859,55.9,0,0.778,0,0,0,0, ,0,0,0,0,0, ,-40.5,183.5,982.9,-0.6,-0.5,-1.8,25,-40.2303,183.493,983.201,-0.596892,-0.462914,-1.78595,
2026_07_06_15_51_42.836,3.859,55.9,0,0.779,0,0,0,0, ,0,0,0,0,0, ,-40.5,183.2,983.6,-0.7,-0.5,-1.7,25,-40.2468,183.484,983.204,-0.600128,-0.465173,-1.78376,
2026_07_06_15_51_42.868,3.859,55.9,0,0.778,0,0,0,0, ,0,0,0,0,0, ,-40.7,183.5,984.6,-0.8,-0.5,-1.8,25,-40.2683,183.476,983.258,-0.609261,-0.467296,-1.7817,
2026_07_06_15_51_42.880,3.859,56,0,0.778,0,0,0,0, ,0,0,0,0,0, ,-38.9,184,982.7,-0.6,-0.5,-1.8,25,-40.2398,183.493,983.282,-0.614791,-0.469289,-1.78282,
2026_07_06_15_51_42.899,3.859,55.8,0,0.778,0,0,0,0, ,0,0,0,0,0, ,-41,183.1,984.2,-0.6,-0.4,-1.7,25,-40.2221,183.496,983.293,-0.613889,-0.468113,-1.78082,
2026_07_06_15_51_42.915,3.859,55.9,0,0.776,0,0,0,0, ,0,0,0,0,0, ,-41,182.7,983.2,-0.6,-0.5,-1.8,25,-40.2695,183.46,983.317,-0.613043,-0.467009,-1.77894,
2026_07_06_15_51_42.935,3.859,55.8,0,0.779,0,0,0,0, ,0,0,0,0,0, ,-40.7,182,984.3,-0.7,-0.5,-1.8,25,-40.3049,183.392,983.344,-0.615295,-0.46902,-1.78022,
2026_07_06_15_51_42.954,3.859,55.8,0,0.776,0,0,0,0, ,0,0,0,0,0, ,-40.7,182.3,984,-0.7,-0.5,-1.8,25,-40.3289,183.317,983.393,-0.620457,-0.470908,-1.78143,
2026_07_06_15_51_42.975,3.859,55.8,0,0.778,0,0,0,0, ,0,0,0,0,0, ,-40.2,183.4,985.7,-0.7,-0.5,-1.7,25,-40.3363,183.288,983.482,-0.625304,-0.47268,-1.77951,
2026_07_06_15_51_42.994,3.859,55.8,0,0.777,0,0,0,0, ,0,0,0,0,0, ,-41.1,183.2,983.3,-0.6,-0.4,-1.8,25,-40.3554,183.289,983.544,-0.626809,-0.471298,-1.77771,
2026_07_06_15_51_43.014,3.859,55.8,0,0.777,0,0,0,0, ,0,0,0,0,0, ,-40.6,185.7,984.6,-0.6,-0.4,-1.8,25,-40.3856,183.36,983.568,-0.625175,-0.466954,-1.77907,
2026_07_06_15_51_43.034,3.859,55.7,0,0.778,0,0,0,0, ,0,0,0,0,0, ,-40.2,182.8,982.9,-0.6,-0.5,-1.8,25,-40.3865,183.414,983.58,-0.623641,-0.465921,-1.78035,
2026_07_06_15_51_43.054,3.859,55.8,0,0.776,0,0,0,0, ,0,0,0,0,0, ,-41.1,183.3,982.6,-0.6,-0.5,-1.8,25,-40.4025,183.392,983.529,-0.6222,-0.467997,-1.78154,
2026_07_06_15_51_43.073,3.859,55.7,0,0.776,0,0,0,0, ,0,0,0,0,0, ,-39.9,183.3,982.2,-0.5,-0.4,-1.8,25,-40.4085,183.386,983.46,-0.617801,-0.466901,-1.78267,
2026_07_06_15_51_43.099,3.859,55.7,0,0.775,0,0,0,0, ,0,0,0,0,0, ,-39.5,182.8,982.6,-0.6,-0.4,-1.8,25,-40.3653,183.366,983.396,-0.613669,-0.462824,-1.78373,
2026_07_06_15_51_43.113,3.859,55.7,0,0.778,0,0,0,0, ,0,0,0,0,0, ,-39.7,183.5,983.5,-0.6,-0.5,-1.8,25,-40.3187,183.353,983.375,-0.612836,-0.462042,-1.78472,
2026_07_06_15_51_43.132,3.859,55.7,0,0.776,0,0,0,0, ,0,0,0,0,0, ,-41.1,183.1,982.7,-0.6,-0.4,-1.7,25,-40.3236,183.349,983.358,-0.612054,-0.461309,-1.7826,
2026_07_06_15_51_43.152,3.859,55.7,0,0.777,0,0,0,0, ,0,0,0,0,0, ,-41,182.1,984.3,-0.7,-0.5,-1.8,25,-40.3679,183.304,983.366,-0.614366,-0.460619,-1.78061,
2026_07_06_15_51_43.172,3.859,55.7,0,0.776,0,0,0,0, ,0,0,0,0,0, ,-40.5,182.6,983.3,-0.6,-0.5,-1.8,25,-40.3912,183.246,983.393,-0.616538,-0.463019,-1.7818,
2026_07_06_15_51_43.192,3.859,55.7,0,0.775,0,0,0,0, ,0,0,0,0,0, ,-40,184.5,983.7,-0.6,-0.5,-1.8,25,-40.3826,183.264,983.399,-0.61553,-0.465273,-1.78291,
2026_07_06_15_51_43.211,3.859,55.5,0,0.778,0,0,0,0, ,0,0,0,0,0, ,-41.6,183.2,984.6,-0.6,-0.5,-1.8,25,-40.408,183.3,983.445,-0.614584,-0.467389,-1.78395,
2026_07_06_15_51_43.232,3.859,55.5,0,0.776,0,0,0,0, ,0,0,0,0,0, ,-40.8,184.2,983.5,-0.6,-0.4,-1.8,25,-40.4563,183.324,983.482,-0.613695,-0.466329,-1.78493,
2026_07_06_15_51_43.251,3.859,55.7,0,0.776,0,0,0,0, ,0,0,0,0,0, ,-41,182.4,982.4,-0.6,-0.5,-1.8,25,-40.4833,183.323,983.45,-0.61286,-0.465334,-1.78584,
2026_07_06_15_51_43.271,3.859,55.5,0,0.778,0,0,0,0, ,0,0,0,0,0, ,-41.2,181.5,982.9,-0.5,-0.4,-1.8,25,-40.5209,183.239,983.401,-0.60903,-0.4644,-1.78671,
2026_07_06_15_51_43.291,3.859,55.5,0,0.775,0,0,0,0, ,0,0,0,0,0, ,-40.6,183.9,983.3,-0.6,-0.4,-1.8,25,-40.544,183.206,983.383,-0.605433,-0.460475,-1.78752,
2026_07_06_15_51_43.310,3.859,55.5,0,0.778,0,0,0,0, ,0,0,0,0,0, ,-40.2,182.4,984.1,-0.6,-0.5,-1.9,25,-40.5352,183.203,983.402,-0.605102,-0.459837,-1.79132,
2026_07_06_15_51_43.331,3.859,55.5,0,0.778,0,0,0,0, ,0,0,0,0,0, ,-40.4,183.3,983.2,-0.6,-0.4,-1.8,25,-40.5209,183.181,983.417,-0.604791,-0.459238,-1.7949,
2026_07_06_15_51_43.350,3.859,55.4,0,0.779,0,0,0,0, ,0,0,0,0,0, ,-39.6,183.3,984.8,-0.7,-0.5,-1.8,25,-40.4891,183.189,983.453,-0.607546,-0.458675,-1.79521,
2026_07_06_15_51_43.370,3.859,55.4,0,0.775,0,0,0,0, ,0,0,0,0,0, ,-40.7,183.5,983.1,-0.7,-0.5,-1.8,25,-40.4685,183.201,983.483,-0.61318,-0.461193,-1.7955,
2026_07_06_15_51_43.390,3.859,55.5,0,0.778,0,0,0,0, ,0,0,0,0,0, ,-40.5,182.2,982.2,-0.5,-0.5,-1.8,25,-40.4765,183.18,983.432,-0.612376,-0.463558,-1.79578,
2026_07_06_15_51_43.410,3.859,55.5,0,0.778,0,0,0,0, ,0,0,0,0,0, ,-40.4,183.5,982.7,-0.5,-0.4,-1.8,25,-40.4749,183.16,983.372,-0.605529,-0.462732,-1.79603,
2026_07_06_15_51_43.430,3.859,55.4,0,0.778,0,0,0,0, ,0,0,0,0,0, ,-40.6,183.7,982.5,-0.5,-0.5,-1.8,25,-40.4764,183.187,983.325,-0.599098,-0.461956,-1.79628,
2026_07_06_15_51_43.450,3.859,55.4,0,0.778,0,0,0,0, ,0,0,0,0,0, ,-40.5,183.8,983.6,-0.6,-0.5,-1.7,25,-40.4809,183.221,983.308,-0.596106,-0.464274,-1.79346,
2026_07_06_15_51_43.469,3.859,55.3,0,0.779,0,0,0,0, ,0,0,0,0,0, ,-40.1,183.1,983.8,-0.6,-0.4,-1.8,25,-40.4699,183.235,983.332,-0.596343,-0.463404,-1.79081,
2026_07_06_15_51_43.489,3.859,55.3,0,0.779,0,0,0,0, ,0,0,0,0,0, ,-41,182.7,984,-0.6,-0.5,-1.9,25,-40.4747,183.215,983.367,-0.596566,-0.462587,-1.79441,
2026_07_06_15_51_43.509,3.859,55.4,0,0.778,0,0,0,0, ,0,0,0,0,0, ,-41.2,182.9,984.2,-0.6,-0.4,-1.8,25,-40.5128,183.189,983.412,-0.596775,-0.46182,-1.7978,
2026_07_06_15_51_43.528,3.859,55.4,0,0.778,0,0,0,0, ,0,0,0,0,0, ,-40.4,184.6,984.6,-0.6,-0.5,-1.7,25,-40.5303,183.223,983.472,-0.596972,-0.4611,-1.79489,
2026_07_06_15_51_43.548,3.859,55.3,0,0.776,0,0,0,0, ,0,0,0,0,0, ,-40.7,184.3,983.7,-0.6,-0.4,-1.8,25,-40.5315,183.298,983.513,-0.597156,-0.460424,-1.79215,
2026_07_06_15_51_43.568,3.859,55.3,0,0.776,0,0,0,0, ,0,0,0,0,0, ,-40.8,183.1,982.6,-0.6,-0.5,-1.8,25,-40.5449,183.323,983.491,-0.59733,-0.459788,-1.79263,
2026_07_06_15_51_43.588,3.859,55.4,0,0.776,0,0,0,0, ,0,0,0,0,0, ,-40.8,183.2,983.1,-0.6,-0.5,-1.8,25,-40.5604,183.312,983.452,-0.597492,-0.462239,-1.79308,
2026_07_06_15_51_43.608,3.859,55.3,0,0.778,0,0,0,0, ,0,0,0,0,0, ,-40.5,182.9,983.7,-0.7,-0.5,-1.8,25,-40.5659,183.296,983.449,-0.600692,-0.46454,-1.7935,
2026_07_06_15_51_43.628,3.859,55.3,0,0.778,0,0,0,0, ,0,0,0,0,0, ,-39.9,183.2,983.8,-0.7,-0.4,-1.9,25,-40.5436,183.281,983.467,-0.606744,-0.463654,-1.79695,
2026_07_06_15_51_43.648,3.859,55.3,0,0.778,0,0,0,0, ,0,0,0,0,0, ,-39.1,182.7,984.1,-0.7,-0.4,-1.8,25,-40.48,183.261,983.497,-0.612426,-0.459775,-1.80018,
2026_07_06_15_51_43.667,3.859,55.3,0,0.778,0,0,0,0, ,0,0,0,0,0, ,-41,183.3,981.9,-0.6,-0.5,-1.8,25,-40.4538,183.245,983.466,-0.614716,-0.459179,-1.80017,
2026_07_06_15_51_43.687,3.859,55.3,0,0.775,0,0,0,0, ,0,0,0,0,0, ,-40.1,182,983.3,-0.5,-0.5,-1.8,25,-40.4596,183.209,983.413,-0.610772,-0.461667,-1.80016,
2026_07_06_15_51_43.707,3.859,55.2,0,0.778,0,0,0,0, ,0,0,0,0,0, ,-40.2,183.2,984.2,-0.5,-0.5,-1.8,25,-40.4408,183.172,983.434,-0.604022,-0.464003,-1.80015,
2026_07_06_15_51_43.726,3.859,55.3,0,0.778,0,0,0,0, ,0,0,0,0,0, ,-40.7,183.8,983.7,-0.6,-0.5,-1.8,25,-40.4413,183.192,983.465,-0.60073,-0.466196,-1.80014,
2026_07_06_15_51_43.747,3.859,55.2,0,0.778,0,0,0,0, ,0,0,0,0,0, ,-40.8,182.7,985.7,-0.7,-0.4,-1.8,25,-40.4601,183.195,983.541,-0.603733,-0.465209,-1.80013,
2026_07_06_15_51_43.766,3.859,55.3,0,0.775,0,0,0,0, ,0,0,0,0,0, ,-40.2,182.2,983.7,-0.7,-0.5,-1.8,25,-40.4626,183.15,983.611,-0.609599,-0.464283,-1.80012,
2026_07_06_15_51_43.786,3.859,55.2,0,0.776,0,0,0,0, ,0,0,0,0,0, ,-39.7,182.8,982.7,-0.6,-0.4,-1.8,25,-40.4313,183.11,983.586,-0.612061,-0.463412,-1.80011,
2026_07_06_15_51_43.806,3.859,55.3,0,0.776,0,0,0,0, ,0,0,0,0,0, ,-40.4,184.2,983.1,-0.5,-0.5,-1.7,25,-40.4081,183.134,983.544,-0.608279,-0.462595,-1.79706,
2026_07_06_15_51_43.825,3.859,55.3,0,0.776,0,0,0,0, ,0,0,0,0,0, ,-39.3,184.5,984.1,-0.6,-0.4,-1.8,25,-40.3741,183.208,983.548,-0.604728,-0.461827,-1.79419,
2026_07_06_15_51_43.851,3.859,55.2,0,0.776,0,0,0,0, ,0,0,0,0,0, ,-40.4,183.5,983,-0.5,-0.4,-1.7,25,-40.3422,183.256,983.548,-0.601393,-0.45806,-1.7915,
2026_07_06_15_51_43.865,3.859,55.3,0,0.779,0,0,0,0, ,0,0,0,0,0, ,-39.6,182.9,984.3,-0.6,-0.4,-1.8,25,-40.3213,183.253,983.554,-0.598261,-0.454522,-1.78897,
2026_07_06_15_51_43.885,3.859,55.1,0,0.778,0,0,0,0, ,0,0,0,0,0, ,-40.8,183.4,982.5,-0.7,-0.5,-1.8,25,-40.3139,183.247,983.545,-0.601414,-0.454246,-1.78964,
2026_07_06_15_51_43.904,3.859,55.2,0,0.776,0,0,0,0, ,0,0,0,0,0, ,-40.2,181.1,983.6,-0.6,-0.5,-1.8,25,-40.3253,183.186,983.515,-0.604375,-0.457034,-1.79027,
2026_07_06_15_51_43.924,3.859,55.1,0,0.778,0,0,0,0, ,0,0,0,0,0, ,-41.1,182,982.5,-0.7,-0.4,-1.8,25,-40.345,183.086,983.486,-0.607155,-0.456606,-1.79087,
2026_07_06_15_51_43.944,3.859,55.1,0,0.776,0,0,0,0, ,0,0,0,0,0, ,-41.1,184.8,984.1,-0.5,-0.4,-1.8,25,-40.391,183.105,983.475,-0.606719,-0.453156,-1.79142,
2026_07_06_15_51_43.964,3.859,55.1,0,0.776,0,0,0,0, ,0,0,0,0,0, ,-41.9,186,983.2,-0.5,-0.5,-1.8,25,-40.4586,183.245,983.486,-0.600216,-0.452964,-1.79195,
2026_07_06_15_51_43.983,3.859,55.1,0,0.776,0,0,0,0, ,0,0,0,0,0, ,-40,182.2,984.2,-0.6,-0.4,-1.8,25,-40.4886,183.297,983.499,-0.597156,-0.452783,-1.79244,
2026_07_06_15_51_44.003,3.859,55.1,0,0.777,0,0,0,0, ,0,0,0,0,0, ,-39.3,182.4,983.2,-0.6,-0.5,-1.8,25,-40.4375,183.237,983.511,-0.597329,-0.452614,-1.7929,
2026_07_06_15_51_44.023,3.859,55.1,0,0.776,0,0,0,0, ,0,0,0,0,0, ,-41.2,182.7,982.6,-0.6,-0.5,-1.7,25,-40.426,183.195,983.474,-0.597492,-0.455501,-1.79028,
2026_07_06_15_51_44.043,3.859,55.1,0,0.779,0,0,0,0, ,0,0,0,0,0, ,-40.6,183.9,984.3,-0.5,-0.4,-1.8,25,-40.4549,183.201,983.472,-0.594598,-0.455166,-1.78783,
2026_07_06_15_51_44.063,3.859,55,0,0.777,0,0,0,0, ,0,0,0,0,0, ,-39.7,182.9,985.2,-0.6,-0.5,-1.8,25,-40.4363,183.213,983.55,-0.59188,-0.454851,-1.78857,
2026_07_06_15_51_44.083,3.859,55.1,0,0.777,0,0,0,0, ,0,0,0,0,0, ,-39.1,183.1,982.5,-0.6,-0.4,-1.8,25,-40.3732,183.2,983.568,-0.592375,-0.454556,-1.78927,
2026_07_06_15_51_44.106,3.859,55.1,0,0.777,0,0,0,0, ,0,0,0,0,0, ,-39.6,182.4,984.4,-0.7,-0.5,-1.8,25,-40.3108,183.173,983.561,-0.595886,-0.454278,-1.78992,
2026_07_06_15_51_44.126,3.859,54.9,0,0.778,0,0,0,0, ,0,0,0,0,0, ,-40.1,183.4,982.7,-0.7,-0.5,-1.7,25,-40.2828,183.156,983.561,-0.602231,-0.457064,-1.78749,
2026_07_06_15_51_44.142,3.859,55,0,0.778,0,0,0,0, ,0,0,0,0,0, ,-40.5,183.5,984.2,-0.6,-0.4,-1.8,25,-40.2838,183.174,983.554,-0.605142,-0.456634,-1.7852,
2026_07_06_15_51_44.163,3.859,55,0,0.777,0,0,0,0, ,0,0,0,0,0, ,-40.7,183.9,982.9,-0.5,-0.5,-1.8,25,-40.3031,183.206,983.554,-0.601782,-0.45623,-1.78611,
2026_07_06_15_51_44.181,3.859,54.9,0,0.777,0,0,0,0, ,0,0,0,0,0, ,-40.6,183.1,983.6,-0.7,-0.4,-1.8,25,-40.3242,183.224,983.535,-0.601673,-0.45585,-1.78695,
2026_07_06_15_51_44.201,3.859,55,0,0.777,0,0,0,0, ,0,0,0,0,0, ,-40.6,183.1,982.4,-0.6,-0.4,-1.7,25,-40.341,183.216,983.502,-0.604618,-0.452447,-1.7847,
2026_07_06_15_51_44.221,3.859,55,0,0.776,0,0,0,0, ,0,0,0,0,0, ,-41,182.6,982.7,-0.7,-0.4,-1.8,25,-40.369,183.194,983.444,-0.607383,-0.449251,-1.78259,
2026_07_06_15_51_44.241,3.859,55,0,0.777,0,0,0,0, ,0,0,0,0,0, ,-41.2,183.4,981.9,-0.6,-0.4,-1.7,25,-40.4135,183.182,983.375,-0.60998,-0.446249,-1.7806,
2026_07_06_15_51_44.260,3.859,55,0,0.776,0,0,0,0, ,0,0,0,0,0, ,-39,183.2,983.1,-0.6,-0.5,-1.9,25,-40.3944,183.189,983.321,-0.609372,-0.446478,-1.78178,
2026_07_06_15_51_44.281,3.859,54.9,0,0.778,0,0,0,0, ,0,0,0,0,0, ,-41.9,182.8,983.8,-0.7,-0.4,-1.8,25,-40.3978,183.178,983.329,-0.611848,-0.446693,-1.78594,
2026_07_06_15_51_44.300,3.859,54.9,0,0.778,0,0,0,0, ,0,0,0,0,0, ,-40,181.7,982.1,-0.6,-0.5,-1.8,25,-40.4315,183.121,983.306,-0.614173,-0.446894,-1.7868,
2026_07_06_15_51_44.320,3.859,54.9,0,0.776,0,0,0,0, ,0,0,0,0,0, ,-40,182.3,981.6,-0.5,-0.5,-1.8,25,-40.4052,183.053,983.217,-0.610262,-0.45013,-1.7876,
2026_07_06_15_51_44.340,3.859,54.9,0,0.776,0,0,0,0, ,0,0,0,0,0, ,-40.7,181.7,982.9,-0.6,-0.5,-1.8,25,-40.4018,182.989,983.158,-0.60659,-0.453169,-1.78836,
2026_07_06_15_51_44.360,3.859,54.9,0,0.777,0,0,0,0, ,0,0,0,0,0, ,-40.2,182,983.7,-0.7,-0.4,-1.9,25,-40.4047,182.919,983.167,-0.609235,-0.452976,-1.79211,
2026_07_06_15_51_44.382,3.859,54.9,0,0.776,0,0,0,0, ,0,0,0,0,0, ,-40.4,183.2,985.7,-0.6,-0.4,-1.8,25,-40.3984,182.9,983.26,-0.611719,-0.449748,-1.79564,
2026_07_06_15_51_44.401,3.859,54.9,0,0.778,0,0,0,0, ,0,0,0,0,0, ,-40.2,182.9,983.2,-0.7,-0.4,-1.8,25,-40.3924,182.909,983.333,-0.614052,-0.446716,-1.79591,
2026_07_06_15_51_44.419,3.859,54.8,0,0.778,0,0,0,0, ,0,0,0,0,0, ,-41.6,184.2,983.2,-0.6,-0.4,-1.8,25,-40.4233,182.948,983.325,-0.616243,-0.44387,-1.79616,
2026_07_06_15_51_44.441,3.859,54.8,0,0.777,0,0,0,0, ,0,0,0,0,0, ,-39.9,183.5,983.2,-0.5,-0.4,-1.7,25,-40.4432,183.003,983.317,-0.612206,-0.441196,-1.79334,
2026_07_06_15_51_44.458,3.859,54.9,0,0.777,0,0,0,0, ,0,0,0,0,0, ,-41.3,183.2,982.7,-0.5,-0.5,-1.7,25,-40.4528,183.024,983.295,-0.605369,-0.441733,-1.78765,
2026_07_06_15_51_44.479,3.859,54.9,0,0.778,0,0,0,0, ,0,0,0,0,0, ,-41.2,182.9,984.2,-0.6,-0.5,-1.8,25,-40.5013,183.026,983.304,-0.601994,-0.445283,-1.78536,
2026_07_06_15_51_44.497,3.859,54.9,0,0.776,0,0,0,0, ,0,0,0,0,0, ,-41.3,182.1,983.6,-0.6,-0.5,-1.8,25,-40.547,182.994,983.341,-0.601873,-0.448618,-1.78625,
2026_07_06_15_51_44.519,3.859,54.8,0,0.777,0,0,0,0, ,0,0,0,0,0, ,-40.5,182.3,984.2,-0.7,-0.4,-1.8,25,-40.5685,182.945,983.375,-0.604806,-0.448702,-1.78709,
2026_07_06_15_51_44.537,3.859,54.8,0,0.776,0,0,0,0, ,0,0,0,0,0, ,-40.1,183.7,985.2,-0.6,-0.5,-1.8,25,-40.5521,182.949,983.455,-0.60756,-0.448781,-1.78788,
2026_07_06_15_51_44.558,3.859,54.8,0,0.776,0,0,0,0, ,0,0,0,0,0, ,-41,183.3,984.2,-0.6,-0.5,-1.8,25,-40.552,182.982,983.531,-0.607099,-0.451902,-1.78862,
2026_07_06_15_51_44.577,3.859,54.6,0,0.776,0,0,0,0, ,0,0,0,0,0, ,-39.9,184.9,984.2,-0.6,-0.5,-1.8,25,-40.5458,183.05,983.572,-0.606666,-0.454833,-1.78931,
2026_07_06_15_51_44.597,3.859,54.8,0,0.777,0,0,0,0, ,0,0,0,0,0, ,-38.9,183.3,983.1,-0.6,-0.4,-1.8,25,-40.476,183.114,983.577,-0.60626,-0.454539,-1.78996,
2026_07_06_15_51_44.616,3.859,54.6,0,0.776,0,0,0,0, ,0,0,0,0,0, ,-40.8,183.9,981.9,-0.6,-0.4,-1.9,25,-40.4378,183.144,983.511,-0.605879,-0.451215,-1.79362,
2026_07_06_15_51_44.637,3.859,54.8,0,0.778,0,0,0,0, ,0,0,0,0,0, ,-40.1,182.8,983.5,-0.6,-0.4,-1.9,25,-40.4386,183.157,983.462,-0.605521,-0.448094,-1.8001,
2026_07_06_15_51_44.662,3.859,54.7,0,0.778,0,0,0,0, ,0,0,0,0,0, ,-40.8,183.4,982,-0.6,-0.5,-1.8,25,-40.4393,183.153,983.418,-0.605184,-0.44821,-1.80314,
2026_07_06_15_51_44.684,3.859,54.7,0,0.776,0,0,0,0, ,0,0,0,0,0, ,-40.2,183.3,983,-0.6,-0.5,-1.9,25,-40.443,183.165,983.362,-0.604868,-0.451366,-1.806,
2026_07_06_15_51_44.695,3.859,54.7,0,0.776,0,0,0,0, ,0,0,0,0,0, ,-41.2,183.8,984.8,-0.6,-0.5,-1.8,25,-40.4586,183.189,983.395,-0.604572,-0.45433,-1.80868,
2026_07_06_15_51_44.716,3.859,54.6,0,0.777,0,0,0,0, ,0,0,0,0,0, ,-40.6,183.4,983.3,-0.7,-0.5,-1.8,25,-40.4855,183.214,983.435,-0.60734,-0.457113,-1.80815,
2026_07_06_15_51_44.736,3.859,54.7,0,0.776,0,0,0,0, ,0,0,0,0,0, ,-41,182.2,982.9,-0.7,-0.5,-1.8,25,-40.5047,183.188,983.415,-0.612986,-0.459726,-1.80765,
2026_07_06_15_51_44.758,3.859,54.7,0,0.776,0,0,0,0, ,0,0,0,0,0, ,-40.1,184.5,982.5,-0.6,-0.5,-1.8,25,-40.5074,183.198,983.371,-0.615242,-0.462181,-1.80719,
2026_07_06_15_51_44.775,3.859,54.6,0,0.776,0,0,0,0, ,0,0,0,0,0, ,-40.4,183.7,983.8,-0.5,-0.4,-1.8,25,-40.4918,183.253,983.358,-0.611266,-0.461438,-1.80675,
2026_07_06_15_51_44.795,3.859,54.8,0,0.778,0,0,0,0, ,0,0,0,0,0, ,-40.2,183.3,984.3,-0.5,-0.5,-1.8,25,-40.4801,183.268,983.4,-0.604486,-0.460741,-1.80634,
2026_07_06_15_51_44.814,3.859,54.7,0,0.775,0,0,0,0, ,0,0,0,0,0, ,-40.4,183.8,983.2,-0.5,-0.4,-1.7,25,-40.4691,183.285,983.421,-0.598119,-0.460087,-1.8029,
2026_07_06_15_51_44.834,3.859,54.6,0,0.776,0,0,0,0, ,0,0,0,0,0, ,-40.6,182.6,983.8,-0.6,-0.5,-1.8,25,-40.471,183.28,983.426,-0.595187,-0.459472,-1.79968,
2026_07_06_15_51_44.854,3.859,54.6,0,0.776,0,0,0,0, ,0,0,0,0,0, ,-40.8,182.9,981.9,-0.7,-0.4,-1.8,25,-40.4849,183.248,983.391,-0.598527,-0.458895,-1.7997,
2026_07_06_15_51_44.875,3.859,54.5,0,0.776,0,0,0,0, ,0,0,0,0,0, ,-39.9,182.9,982.5,-0.7,-0.4,-1.8,25,-40.4767,183.227,983.318,-0.60471,-0.455306,-1.79972,
2026_07_06_15_51_44.894,3.859,54.6,0,0.776,0,0,0,0, ,0,0,0,0,0, ,-40.1,183.7,984,-0.6,-0.5,-1.8,25,-40.4477,183.231,983.314,-0.60747,-0.454983,-1.79974,
2026_07_06_15_51_44.913,3.859,54.6,0,0.776,0,0,0,0, ,0,0,0,0,0, ,-39.9,183.3,983.6,-0.7,-0.5,-1.8,25,-40.4204,183.248,983.344,-0.610062,-0.457726,-1.79975,
2026_07_06_15_51_44.933,3.859,54.6,0,0.776,0,0,0,0, ,0,0,0,0,0, ,-40,183.1,983,-0.6,-0.5,-1.8,25,-40.3917,183.245,983.341,-0.612496,-0.460302,-1.79977,
2026_07_06_15_51_44.954,3.859,54.6,0,0.776,0,0,0,0, ,0,0,0,0,0, ,-41.3,183.1,983.6,-0.6,-0.5,-1.8,25,-40.4075,183.236,983.339,-0.611734,-0.462721,-1.79978,
2026_07_06_15_51_44.973,3.859,54.4,0,0.776,0,0,0,0, ,0,0,0,0,0, ,-40,183.7,984.8,-0.6,-0.4,-1.8,25,-40.4222,183.246,983.391,-0.611019,-0.461946,-1.79979,
2026_07_06_15_51_44.993,3.859,54.6,0,0.776,0,0,0,0, ,0,0,0,0,0, ,-41,182.7,985.2,-0.5,-0.5,-1.7,25,-40.427,183.243,983.489,-0.607301,-0.461218,-1.79676,
2026_07_06_15_51_45.013,3.859,54.6,0,0.778,0,0,0,0, ,0,0,0,0,0, ,-40.4,184.2,983.6,-0.7,-0.5,-1.8,25,-40.4436,183.256,983.545,-0.606856,-0.463581,-1.79391,
2026_07_06_15_51_45.033,3.859,54.5,0,0.776,0,0,0,0, ,0,0,0,0,0, ,-40.2,183.3,982.6,-0.6,-0.5,-1.8,25,-40.4349,183.286,983.518,-0.609485,-0.4658,-1.79428,
2026_07_06_15_51_45.052,3.859,54.6,0,0.776,0,0,0,0, ,0,0,0,0,0, ,-40.2,182.2,981.9,-0.6,-0.4,-1.9,25,-40.4206,183.253,983.44,-0.608907,-0.464838,-1.79768,
2026_07_06_15_51_45.082,3.859,54.5,0,0.775,0,0,0,0, ,0,0,0,0,0, ,-41.2,180.9,984,-0.5,-0.4,-1.8,25,-40.4376,183.149,983.41,-0.605317,-0.460887,-1.80087,
2026_07_06_15_51_45.092,3.859,54.4,0,0.778,0,0,0,0, ,0,0,0,0,0, ,-40.8,183.2,983.1,-0.6,-0.5,-1.8,25,-40.4719,183.082,983.419,-0.601946,-0.460223,-1.80081,
2026_07_06_15_51_45.116,3.859,54.5,0,0.776,0,0,0,0, ,0,0,0,0,0, ,-40.5,184.3,984.4,-0.6,-0.5,-1.8,25,-40.4827,183.123,983.439,-0.601828,-0.462647,-1.80076,
2026_07_06_15_51_45.131,3.859,54.4,0,0.775,0,0,0,0, ,0,0,0,0,0, ,-40.4,182.6,984,-0.7,-0.5,-1.8,25,-40.4807,183.143,983.485,-0.604763,-0.464923,-1.80072,
2026_07_06_15_51_45.152,3.859,54.4,0,0.778,0,0,0,0, ,0,0,0,0,0, ,-41.1,182,983.5,-0.7,-0.5,-1.8,25,-40.4971,183.092,983.502,-0.610567,-0.467061,-1.80067,
2026_07_06_15_51_45.171,3.859,54.4,0,0.775,0,0,0,0, ,0,0,0,0,0, ,-40.8,183.8,983.8,-0.6,-0.5,-1.8,25,-40.5247,183.08,983.511,-0.61297,-0.469068,-1.80063,
2026_07_06_15_51_45.192,3.859,54.4,0,0.776,0,0,0,0, ,0,0,0,0,0, ,-41.1,183.7,983.8,-0.6,-0.4,-1.8,25,-40.5506,183.121,983.528,-0.612179,-0.467906,-1.80059,
2026_07_06_15_51_45.210,3.859,54.4,0,0.776,0,0,0,0, ,0,0,0,0,0, ,-40.4,184,984.9,-0.5,-0.5,-1.8,25,-40.5628,183.165,983.578,-0.60839,-0.466815,-1.80056,
2026_07_06_15_51_45.230,3.859,54.4,0,0.776,0,0,0,0, ,0,0,0,0,0, ,-40.4,183.3,983.3,-0.6,-0.4,-1.9,25,-40.5529,183.195,983.61,-0.604832,-0.46579,-1.80357,
2026_07_06_15_51_45.249,3.859,54.4,0,0.776,0,0,0,0, ,0,0,0,0,0, ,-39.1,183.2,982.7,-0.7,-0.5,-1.8,25,-40.5039,183.198,983.573,-0.607585,-0.464828,-1.8064,
2026_07_06_15_51_45.270,3.859,54.4,0,0.775,0,0,0,0, ,0,0,0,0,0, ,-40.5,182.3,982.7,-0.7,-0.4,-1.7,25,-40.461,183.171,983.52,-0.613216,-0.463924,-1.80296,
2026_07_06_15_51_45.289,3.859,54.4,0,0.775,0,0,0,0, ,0,0,0,0,0, ,-40.2,183.8,982.6,-0.7,-0.5,-1.9,25,-40.4543,183.163,983.467,-0.618505,-0.463076,-1.80278,
2026_07_06_15_51_45.316,3.859,54.4,0,0.776,0,0,0,0, ,0,0,0,0,0, ,-40.8,183.5,984.3,-0.6,-0.4,-1.8,25,-40.4571,183.193,983.466,-0.620424,-0.462279,-1.80566,
2026_07_06_15_51_45.329,3.859,54.3,0,0.776,0,0,0,0, ,0,0,0,0,0, ,-40.8,183.8,984.6,-0.6,-0.5,-1.8,25,-40.478,183.221,983.526,-0.619179,-0.461531,-1.80531,
2026_07_06_15_51_45.350,3.859,54.4,0,0.776,0,0,0,0, ,0,0,0,0,0, ,-40.8,185.1,983.1,-0.6,-0.5,-1.8,25,-40.4976,183.296,983.545,-0.61801,-0.463875,-1.80499,
2026_07_06_15_51_45.368,3.859,54.4,0,0.778,0,0,0,0, ,0,0,0,0,0, ,-41,183.8,982.4,-0.6,-0.4,-1.8,25,-40.5221,183.366,983.497,-0.616913,-0.46303,-1.80469,
2026_07_06_15_51_45.391,3.859,54.3,0,0.775,0,0,0,0, ,0,0,0,0,0, ,-40.6,183.7,982.9,-0.6,-0.4,-1.8,25,-40.539,183.39,983.445,-0.615882,-0.459189,-1.8044,
2026_07_06_15_51_45.408,3.859,54.4,0,0.775,0,0,0,0, ,0,0,0,0,0, ,-41,183.4,983.7,-0.7,-0.4,-1.7,25,-40.5549,183.399,983.437,-0.617961,-0.455582,-1.80109,
2026_07_06_15_51_45.431,3.859,54.3,0,0.775,0,0,0,0, ,0,0,0,0,0, ,-41.3,183.4,984.6,-0.6,-0.5,-1.8,25,-40.5912,183.399,983.48,-0.619914,-0.455242,-1.79797,
2026_07_06_15_51_45.446,3.859,54.3,0,0.774,0,0,0,0, ,0,0,0,0,0, ,-40.1,183.4,982.9,-0.6,-0.4,-1.8,25,-40.5978,183.399,983.496,-0.6187,-0.454922,-1.7981,
2026_07_06_15_51_45.470,3.859,54.3,0,0.776,0,0,0,0, ,0,0,0,0,0, ,-40.4,183.8,984.7,-0.6,-0.5,-1.8,25,-40.5766,183.412,983.515,-0.617561,-0.454622,-1.79821,
2026_07_06_15_51_45.486,3.859,54.3,0,0.776,0,0,0,0, ,0,0,0,0,0, ,-39.9,183.7,983.1,-0.7,-0.5,-1.8,25,-40.5506,183.432,983.538,-0.619537,-0.457388,-1.79832,
2026_07_06_15_51_45.509,3.859,54.3,0,0.779,0,0,0,0, ,0,0,0,0,0, ,-41,183.1,982.7,-0.6,-0.5,-1.8,25,-40.5445,183.43,983.5,-0.621394,-0.459984,-1.79842,
2026_07_06_15_51_45.526,3.859,54.2,0,0.776,0,0,0,0, ,0,0,0,0,0, ,-40.6,183.1,983.7,-0.5,-0.5,-1.8,25,-40.5601,183.41,983.481,-0.617043,-0.462423,-1.79852,
2026_07_06_15_51_45.549,3.859,54.2,0,0.776,0,0,0,0, ,0,0,0,0,0, ,-41.1,184.6,983.3,-0.5,-0.4,-1.7,25,-40.5777,183.437,983.482,-0.609911,-0.461666,-1.79556,
2026_07_06_15_51_45.566,3.859,54.2,0,0.776,0,0,0,0, ,0,0,0,0,0, ,-41.5,183.4,982.5,-0.8,-0.4,-1.8,25,-40.6218,183.471,983.447,-0.612354,-0.457908,-1.79279,
2026_07_06_15_51_45.590,3.859,54.2,0,0.776,0,0,0,0, ,0,0,0,0,0, ,-40.2,183.4,983.3,-0.7,-0.4,-1.8,25,-40.6357,183.467,983.414,-0.620742,-0.454379,-1.79323,
2026_07_06_15_51_45.606,3.859,54.2,0,0.776,0,0,0,0, ,0,0,0,0,0, ,-40.1,182.3,984.1,-0.7,-0.5,-1.8,25,-40.6061,183.429,983.431,-0.625571,-0.454112,-1.79364,
2026_07_06_15_51_45.627,3.859,54.2,0,0.776,0,0,0,0, ,0,0,0,0,0, ,-41.2,185.3,982.2,-0.5,-0.5,-1.8,25,-40.6087,183.452,983.414,-0.624013,-0.456909,-1.79403,
2026_07_06_15_51_45.645,3.859,54.2,0,0.778,0,0,0,0, ,0,0,0,0,0, ,-41,184.2,984.2,-0.5,-0.5,-1.8,25,-40.6387,183.531,983.401,-0.616456,-0.459534,-1.79439,
2026_07_06_15_51_45.667,3.859,54.1,0,0.776,0,0,0,0, ,0,0,0,0,0, ,-40.2,183.5,984.7,-0.6,-0.5,-1.8,25,-40.6363,183.55,983.465,-0.612406,-0.462,-1.79473,
2026_07_06_15_51_45.685,3.859,54.1,0,0.776,0,0,0,0, ,0,0,0,0,0, ,-41.1,181.8,981.6,-0.6,-0.4,-1.9,25,-40.6372,183.496,983.446,-0.61165,-0.461269,-1.7981,
2026_07_06_15_51_45.710,3.859,54.2,0,0.776,0,0,0,0, ,0,0,0,0,0, ,-40.7,182.6,982.4,-0.7,-0.4,-1.8,25,-40.6532,183.417,983.358,-0.613987,-0.457536,-1.80126,
2026_07_06_15_51_45.725,3.859,54.1,0,0.776,0,0,0,0, ,0,0,0,0,0, ,-40.6,182.3,983.2,-0.6,-0.5,-1.8,25,-40.653,183.358,983.324,-0.616182,-0.457076,-1.80119,
2026_07_06_15_51_45.747,3.859,54.2,0,0.776,0,0,0,0, ,0,0,0,0,0, ,-41.7,183.7,983.5,-0.6,-0.5,-1.8,25,-40.6833,183.336,983.325,-0.615196,-0.459692,-1.80111,
2026_07_06_15_51_45.764,3.859,54.1,0,0.776,0,0,0,0, ,0,0,0,0,0, ,-41,183.1,982.5,-0.7,-0.5,-1.8,25,-40.7239,183.34,983.305,-0.617317,-0.462148,-1.80105,
2026_07_06_15_51_45.787,3.859,54.1,0,0.778,0,0,0,0, ,0,0,0,0,0, ,-40.1,183.1,982.7,-0.7,-0.5,-1.9,25,-40.7133,183.325,983.262,-0.622355,-0.464455,-1.80403,
2026_07_06_15_51_45.803,3.859,54.1,0,0.775,0,0,0,0, ,0,0,0,0,0, ,-40,182.1,983,-0.6,-0.4,-1.9,25,-40.6729,183.281,983.237,-0.62404,-0.463574,-1.80988,
2026_07_06_15_51_45.826,3.859,54.1,0,0.776,0,0,0,0, ,0,0,0,0,0, ,-41.1,184.5,983.2,-0.5,-0.5,-1.7,25,-40.6654,183.282,983.229,-0.619528,-0.462747,-1.80928,
2026_07_06_15_51_45.843,3.859,54.1,0,0.776,0,0,0,0, ,0,0,0,0,0, ,-39.3,183.8,983.8,-0.5,-0.5,-1.8,25,-40.637,183.335,983.245,-0.612244,-0.465017,-1.80566,
2026_07_06_15_51_45.865,3.859,54.1,0,0.775,0,0,0,0, ,0,0,0,0,0, ,-41.5,184.2,983.3,-0.6,-0.5,-1.7,25,-40.6226,183.376,983.264,-0.608451,-0.467149,-1.80227,
2026_07_06_15_51_45.883,3.859,54,0,0.775,0,0,0,0, ,0,0,0,0,0, ,-40.1,182.8,984,-0.7,-0.5,-1.8,25,-40.6334,183.383,983.287,-0.610983,-0.469151,-1.79909,
2026_07_06_15_51_45.912,3.859,54,0,0.776,0,0,0,0, ,0,0,0,0,0, ,-40.6,183.5,984.9,-0.7,-0.4,-1.8,25,-40.6161,183.369,983.358,-0.616408,-0.467984,-1.79914,
2026_07_06_15_51_45.922,3.859,54,0,0.776,0,0,0,0, ,0,0,0,0,0, ,-40.7,183.3,983.3,-0.6,-0.4,-1.8,25,-40.6182,183.371,983.404,-0.618455,-0.463841,-1.79919,
2026_07_06_15_51_45.944,3.859,54,0,0.775,0,0,0,0, ,0,0,0,0,0, ,-40.7,184,983.3,-0.5,-0.4,-1.9,25,-40.6232,183.388,983.397,-0.614283,-0.459951,-1.80229,
2026_07_06_15_51_45.962,3.859,54,0,0.775,0,0,0,0, ,0,0,0,0,0, ,-40.1,183.5,984.2,-0.6,-0.5,-1.8,25,-40.6096,183.41,983.419,-0.610366,-0.459344,-1.8052,
2026_07_06_15_51_45.984,3.859,54,0,0.776,0,0,0,0, ,0,0,0,0,0, ,-40.6,183.8,984,-0.6,-0.4,-1.8,25,-40.5938,183.425,983.46,-0.609734,-0.458775,-1.80488,
2026_07_06_15_51_46.001,3.859,54,0,0.776,0,0,0,0, ,0,0,0,0,0, ,-39.9,183.4,982.7,-0.7,-0.5,-1.8,25,-40.5728,183.435,983.454,-0.612188,-0.45824,-1.80458,
2026_07_06_15_51_46.025,3.859,53.7,0,0.776,0,0,0,0, ,0,0,0,0,0, ,-39.7,182.7,982.6,-0.5,-0.4,-1.9,25,-40.5257,183.412,983.405,-0.611445,-0.457738,-1.80735,
2026_07_06_15_51_46.041,3.859,54,0,0.775,0,0,0,0, ,0,0,0,0,0, ,-40.7,182.6,983.5,-0.4,-0.4,-1.8,25,-40.5059,183.365,983.383,-0.601607,-0.45422,-1.80995,
2026_07_06_15_51_46.063,3.859,54,0,0.776,0,0,0,0, ,0,0,0,0,0, ,-39.7,182.9,985.5,-0.5,-0.4,-1.9,25,-40.4872,183.328,983.451,-0.592369,-0.450916,-1.81239,
2026_07_06_15_51_46.081,3.859,54,0,0.775,0,0,0,0, ,0,0,0,0,0, ,-40.7,183.8,984.3,-0.6,-0.4,-1.8,25,-40.4697,183.329,983.539,-0.589787,-0.447813,-1.81468,
2026_07_06_15_51_46.103,3.859,54,0,0.776,0,0,0,0, ,0,0,0,0,0, ,-40.1,184,984.7,-0.7,-0.4,-1.8,25,-40.4655,183.364,983.598,-0.593456,-0.444899,-1.81379,
2026_07_06_15_51_46.121,3.859,53.8,0,0.775,0,0,0,0, ,0,0,0,0,0, ,-40.2,183.7,983.8,-0.7,-0.5,-1.8,25,-40.4463,183.394,983.638,-0.599949,-0.44521,-1.81295,
2026_07_06_15_51_46.145,3.859,53.8,0,0.776,0,0,0,0, ,0,0,0,0,0, ,-40.6,182.4,984,-0.7,-0.5,-1.8,25,-40.4434,183.373,983.654,-0.606045,-0.448549,-1.81216,
2026_07_06_15_51_46.160,3.859,53.8,0,0.776,0,0,0,0, ,0,0,0,0,0, ,-39.6,182.9,983,-0.5,-0.5,-1.8,25,-40.4225,183.329,983.644,-0.605677,-0.451684,-1.81142,
2026_07_06_15_51_46.183,3.859,53.8,0,0.775,0,0,0,0, ,0,0,0,0,0, ,-41.3,183.9,984.2,-0.5,-0.5,-1.8,25,-40.4242,183.333,983.642,-0.599237,-0.454628,-1.81072,
2026_07_06_15_51_46.199,3.859,53.8,0,0.776,0,0,0,0, ,0,0,0,0,0, ,-41.6,183.1,982.7,-0.6,-0.5,-1.8,25,-40.4867,183.343,983.63,-0.596237,-0.457393,-1.81007,
2026_07_06_15_51_46.223,3.859,53.7,0,0.775,0,0,0,0, ,0,0,0,0,0, ,-41.6,182.8,982.7,-0.6,-0.5,-1.8,25,-40.5545,183.319,983.573,-0.596466,-0.45999,-1.80945,
2026_07_06_15_51_46.238,3.859,53.8,0,0.775,0,0,0,0, ,0,0,0,0,0, ,-40.8,182.9,983.5,-0.6,-0.5,-1.8,25,-40.5939,183.291,983.544,-0.596682,-0.462428,-1.80888,
2026_07_06_15_51_46.261,3.859,53.7,0,0.778,0,0,0,0, ,0,0,0,0,0, ,-39.9,184,983.7,-0.6,-0.5,-1.8,25,-40.579,183.3,983.548,-0.596884,-0.464717,-1.80834,
2026_07_06_15_51_46.278,3.859,53.7,0,0.775,0,0,0,0, ,0,0,0,0,0, ,-40.6,182.9,983.1,-0.6,-0.5,-1.8,25,-40.559,183.309,983.539,-0.597074,-0.466867,-1.80783,
2026_07_06_15_51_46.302,3.859,53.7,0,0.775,0,0,0,0, ,0,0,0,0,0, ,-40.5,182.3,984.9,-0.6,-0.4,-1.8,25,-40.5584,183.266,983.567,-0.597252,-0.465839,-1.80735,
2026_07_06_15_51_46.318,3.859,53.7,0,0.775,0,0,0,0, ,0,0,0,0,0, ,-41.6,182.2,982.9,-0.5,-0.5,-1.9,25,-40.5884,183.204,983.587,-0.594373,-0.464874,-1.80995,
2026_07_06_15_51_46.341,3.859,53.7,0,0.776,0,0,0,0, ,0,0,0,0,0, ,-40.5,182.6,984.6,-0.6,-0.4,-1.8,25,-40.6165,183.155,983.597,-0.591669,-0.463968,-1.81239,
2026_07_06_15_51_46.358,3.859,53.6,0,0.776,0,0,0,0, ,0,0,0,0,0, ,-39.5,183.3,984.9,-0.6,-0.5,-1.8,25,-40.5789,183.143,983.667,-0.592176,-0.463117,-1.81164,
2026_07_06_15_51_46.381,3.859,53.7,0,0.778,0,0,0,0, ,0,0,0,0,0, ,-41.1,182.3,984.9,-0.6,-0.5,-1.8,25,-40.5619,183.122,983.742,-0.592653,-0.465364,-1.81093,
2026_07_06_15_51_46.397,3.859,53.5,0,0.775,0,0,0,0, ,0,0,0,0,0, ,-40.8,184,984,-0.7,-0.5,-1.8,25,-40.5856,183.124,983.786,-0.596148,-0.467475,-1.81026,
2026_07_06_15_51_46.420,3.859,53.7,0,0.775,0,0,0,0, ,0,0,0,0,0, ,-40.6,183.3,983,-0.7,-0.5,-1.8,25,-40.5926,183.156,983.768,-0.602476,-0.469457,-1.80964,
2026_07_06_15_51_46.437,3.859,53.7,0,0.776,0,0,0,0, ,0,0,0,0,0, ,-41.5,183.2,984.1,-0.6,-0.5,-1.8,25,-40.6204,183.161,983.755,-0.605372,-0.471318,-1.80905,
2026_07_06_15_51_46.460,3.859,53.7,0,0.775,0,0,0,0, ,0,0,0,0,0, ,-41,182.7,983.6,-0.5,-0.5,-1.8,25,-40.6588,183.149,983.761,-0.601998,-0.473066,-1.8085,
2026_07_06_15_51_46.476,3.859,53.5,0,0.775,0,0,0,0, ,0,0,0,0,0, ,-41,183.4,982.9,-0.5,-0.4,-1.8,25,-40.6796,183.143,983.73,-0.595782,-0.47166,-1.80798,
2026_07_06_15_51_46.500,3.859,53.7,0,0.775,0,0,0,0, ,0,0,0,0,0, ,-40.7,184.2,984.2,-0.7,-0.4,-1.8,25,-40.69,183.183,983.719,-0.596039,-0.467294,-1.80749,
2026_07_06_15_51_46.516,3.859,53.5,0,0.774,0,0,0,0, ,0,0,0,0,0, ,-39.4,181.7,983.2,-0.6,-0.5,-1.9,25,-40.651,183.168,983.717,-0.599328,-0.46624,-1.81008,
2026_07_06_15_51_46.541,3.859,53.6,0,0.776,0,0,0,0, ,0,0,0,0,0, ,-40.8,182,982.2,-0.6,-0.4,-1.8,25,-40.6174,183.088,983.655,-0.599369,-0.46525,-1.81252,
2026_07_06_15_51_46.555,3.859,53.4,0,0.777,0,0,0,0, ,0,0,0,0,0, ,-40,182.9,983.7,-0.6,-0.5,-1.8,25,-40.6042,183.049,983.612,-0.599407,-0.464321,-1.81175,
2026_07_06_15_51_46.579,3.859,53.5,0,0.776,0,0,0,0, ,0,0,0,0,0, ,-40.2,183.1,984.7,-0.6,-0.5,-1.9,25,-40.5734,183.046,983.648,-0.599443,-0.466495,-1.81408,
2026_07_06_15_51_46.594,3.859,53.6,0,0.775,0,0,0,0, ,0,0,0,0,0, ,-40.7,183.9,982.5,-0.7,-0.4,-1.8,25,-40.5659,183.074,983.645,-0.602524,-0.46549,-1.81627,
2026_07_06_15_51_46.620,3.859,53.5,0,0.776,0,0,0,0, ,0,0,0,0,0, ,-41.2,183.4,982.7,-0.6,-0.4,-1.8,25,-40.5893,183.109,983.582,-0.605417,-0.461499,-1.81528,
2026_07_06_15_51_46.635,3.859,53.4,0,0.774,0,0,0,0, ,0,0,0,0,0, ,-40.4,182.9,983.3,-0.6,-0.5,-1.8,25,-40.6022,183.111,983.546,-0.605087,-0.460798,-1.81435,
2026_07_06_15_51_46.660,3.859,53.5,0,0.775,0,0,0,0, ,0,0,0,0,0, ,-40.4,182.9,983.7,-0.5,-0.4,-1.8,25,-40.5898,183.099,983.543,-0.60173,-0.46014,-1.81348,
2026_07_06_15_51_46.672,3.859,53.5,0,0.776,0,0,0,0, ,0,0,0,0,0, ,-40.8,183.5,984.1,-0.6,-0.4,-1.8,25,-40.5905,183.105,983.565,-0.598578,-0.456476,-1.81265,
2026_07_06_15_51_46.699,3.859,53.5,0,0.778,0,0,0,0, ,0,0,0,0,0, ,-41.1,182.6,985.1,-0.5,-0.4,-1.8,25,-40.6124,183.101,983.628,-0.595618,-0.453034,-1.81188,
2026_07_06_15_51_46.713,3.859,53.6,0,0.779,0,0,0,0, ,0,0,0,0,0, ,-39.4,182.7,985.3,-0.7,-0.5,-1.8,25,-40.5903,183.074,983.724,-0.595885,-0.452849,-1.81116,
2026_07_06_15_51_46.737,3.859,53.4,0,0.776,0,0,0,0, ,0,0,0,0,0, ,-40.4,182,983.1,-0.8,-0.5,-1.8,25,-40.5482,183.03,983.753,-0.605276,-0.455722,-1.81048,
2026_07_06_15_51_46.753,3.859,53.4,0,0.774,0,0,0,0, ,0,0,0,0,0, ,-40.2,184,984.9,-0.6,-0.5,-1.8,25,-40.5331,183.028,983.768,-0.611048,-0.458421,-1.80984,
2026_07_06_15_51_46.777,3.859,53.5,0,0.774,0,0,0,0, ,0,0,0,0,0, ,-40.5,184.3,983.5,-0.5,-0.5,-1.8,25,-40.5219,183.096,983.794,-0.607328,-0.460954,-1.80924,
2026_07_06_15_51_46.793,3.859,53.5,0,0.776,0,0,0,0, ,0,0,0,0,0, ,-40.4,183.5,984.2,-0.5,-0.4,-1.9,25,-40.5176,183.145,983.798,-0.600788,-0.460287,-1.81172,
2026_07_06_15_51_46.816,3.859,53.5,0,0.775,0,0,0,0, ,0,0,0,0,0, ,-41.3,182.3,983.3,-0.6,-0.5,-1.8,25,-40.5378,183.13,983.795,-0.597693,-0.45966,-1.81406,
2026_07_06_15_51_46.832,3.859,53.5,0,0.776,0,0,0,0, ,0,0,0,0,0, ,-40.4,183.2,982.5,-0.7,-0.4,-1.8,25,-40.5568,183.107,983.74,-0.60088,-0.459071,-1.8132,
2026_07_06_15_51_46.857,3.859,53.5,0,0.777,0,0,0,0, ,0,0,0,0,0, ,-41.6,183.9,982.6,-0.6,-0.5,-1.8,25,-40.5838,183.134,983.668,-0.603874,-0.458518,-1.8124,
2026_07_06_15_51_46.872,3.859,53.3,0,0.776,0,0,0,0, ,0,0,0,0,0, ,-40.6,183.9,984,-0.7,-0.5,-1.8,25,-40.6153,183.181,983.645,-0.606684,-0.461046,-1.81164,
2026_07_06_15_51_46.899,3.859,53.4,0,0.776,0,0,0,0, ,0,0,0,0,0, ,-39.5,183.7,982.5,-0.6,-0.4,-1.8,25,-40.5808,183.219,983.621,-0.609324,-0.460373,-1.81093,
2026_07_06_15_51_46.920,3.859,53.3,0,0.774,0,0,0,0, ,0,0,0,0,0, ,-40.2,182.9,982.7,-0.6,-0.5,-1.8,25,-40.5363,183.224,983.559,-0.608756,-0.459741,-1.81027,
2026_07_06_15_51_46.956,3.859,53.3,0,0.776,0,0,0,0, ,0,0,0,0,0, ,-40.8,182.1,983.6,-0.5,-0.5,-1.8,25,-40.5341,183.179,983.534,-0.605175,-0.462194,-1.80964,
2026_07_06_15_51_46.956,3.859,53.4,0,0.777,0,0,0,0, ,0,0,0,0,0, ,-42.2,181.5,983.8,-0.6,-0.5,-1.7,25,-40.593,183.095,983.544,-0.601813,-0.464498,-1.80601,
2026_07_06_15_51_46.983,3.859,53.4,0,0.776,0,0,0,0, ,0,0,0,0,0, ,-39.7,183.2,984.4,-0.6,-0.5,-1.8,25,-40.6147,183.05,983.578,-0.601703,-0.466661,-1.80259,
2026_07_06_15_51_46.991,3.859,53.3,0,0.774,0,0,0,0, ,0,0,0,0,0, ,-39.5,183.5,983.5,-0.6,-0.4,-1.8,25,-40.5529,183.068,983.601,-0.601599,-0.465646,-1.80243,
2026_07_06_15_51_47.016,3.859,53.3,0,0.774,0,0,0,0, ,0,0,0,0,0, ,-40.4,183.2,983.1,-0.7,-0.4,-1.7,25,-40.5161,183.085,983.582,-0.604548,-0.461646,-1.79924,
2026_07_06_15_51_47.030,3.859,53.2,0,0.773,0,0,0,0, ,0,0,0,0,0, ,-40,183.4,984.1,-0.6,-0.4,-1.8,25,-40.4969,183.098,983.583,-0.607318,-0.457889,-1.79624,
2026_07_06_15_51_47.056,3.859,53.3,0,0.776,0,0,0,0, ,0,0,0,0,0, ,-40.2,182.7,981.3,-0.6,-0.4,-1.8,25,-40.4727,183.096,983.53,-0.606872,-0.454362,-1.79647,
2026_07_06_15_51_47.070,3.859,53.2,0,0.776,0,0,0,0, ,0,0,0,0,0, ,-39.5,183.8,983.3,-0.5,-0.5,-1.8,25,-40.4347,183.105,983.455,-0.603406,-0.454096,-1.79668,
2026_07_06_15_51_47.096,3.859,53.4,0,0.776,0,0,0,0, ,0,0,0,0,0, ,-40.7,183.2,982.9,-0.5,-0.4,-1.8,25,-40.4143,183.129,983.433,-0.597105,-0.453846,-1.79689,
2026_07_06_15_51_47.109,3.859,53.3,0,0.774,0,0,0,0, ,0,0,0,0,0, ,-41.1,182.3,983.3,-0.6,-0.5,-1.8,25,-40.4439,183.106,983.413,-0.594235,-0.453612,-1.79708,
2026_07_06_15_51_47.136,3.859,53.4,0,0.776,0,0,0,0, ,0,0,0,0,0, ,-40.2,183.1,982.9,-0.6,-0.5,-1.8,25,-40.4565,183.081,983.394,-0.594586,-0.456439,-1.79725,
2026_07_06_15_51_47.149,3.859,53.2,0,0.776,0,0,0,0, ,0,0,0,0,0, ,-39.4,182,983.3,-0.7,-0.5,-1.8,25,-40.4165,183.049,983.376,-0.597963,-0.459093,-1.79742,
2026_07_06_15_51_47.175,3.859,53.3,0,0.776,0,0,0,0, ,0,0,0,0,0, ,-39.6,183.7,985.4,-0.6,-0.5,-1.8,25,-40.3606,183.037,983.435,-0.601134,-0.461586,-1.79758,
2026_07_06_15_51_47.188,3.859,53.3,0,0.776,0,0,0,0, ,0,0,0,0,0, ,-40.5,182.3,984.6,-0.7,-0.5,-1.9,25,-40.3417,183.034,983.531,-0.604112,-0.463927,-1.80077,
2026_07_06_15_51_47.216,3.859,53.3,0,0.776,0,0,0,0, ,0,0,0,0,0, ,-40.2,184.2,985.7,-0.6,-0.5,-1.8,25,-40.3422,183.048,983.629,-0.606908,-0.466125,-1.80377,
2026_07_06_15_51_47.227,3.859,53.2,0,0.775,0,0,0,0, ,0,0,0,0,0, ,-40.2,184.4,982.5,-0.7,-0.5,-1.8,25,-40.3336,183.124,983.658,-0.609534,-0.468189,-1.80354,
2026_07_06_15_51_47.253,3.859,53.3,0,0.776,0,0,0,0, ,0,0,0,0,0, ,-40.5,182.2,983.1,-0.6,-0.5,-1.8,25,-40.3346,183.135,983.606,-0.612,-0.470128,-1.80333,
2026_07_06_15_51_47.269,3.859,53.2,0,0.776,0,0,0,0, ,0,0,0,0,0, ,-41.1,183.4,982.7,-0.6,-0.5,-1.7,25,-40.3629,183.114,983.563,-0.611269,-0.471948,-1.80008,
2026_07_06_15_51_47.295,3.859,53.2,0,0.776,0,0,0,0, ,0,0,0,0,0, ,-40,183.4,982.7,-0.5,-0.5,-1.8,25,-40.3743,183.132,983.51,-0.607535,-0.473658,-1.79703,
2026_07_06_15_51_47.306,3.859,53.1,0,0.775,0,0,0,0, ,0,0,0,0,0, ,-40.6,182.8,983.7,-0.6,-0.4,-1.8,25,-40.3698,183.13,983.491,-0.604029,-0.472216,-1.79721,
2026_07_06_15_51_47.332,3.859,53.2,0,0.775,0,0,0,0, ,0,0,0,0,0, ,-41.2,182.9,984.3,-0.7,-0.5,-1.8,25,-40.4021,183.113,983.522,-0.60683,-0.470862,-1.79738,
2026_07_06_15_51_47.347,3.859,53.2,0,0.775,0,0,0,0, ,0,0,0,0,0, ,-41.2,182.4,984.4,-0.6,-0.5,-1.8,25,-40.4507,183.084,983.573,-0.609461,-0.472638,-1.79754,
2026_07_06_15_51_47.373,3.859,53.1,0,0.776,0,0,0,0, ,0,0,0,0,0, ,-40.7,182.6,983.2,-0.6,-0.4,-1.8,25,-40.4811,183.049,983.586,-0.608884,-0.471258,-1.79769,
2026_07_06_15_51_47.386,3.859,53.2,0,0.775,0,0,0,0, ,0,0,0,0,0, ,-40.5,182.9,984.4,-0.6,-0.5,-1.7,25,-40.4884,183.031,983.6,-0.608343,-0.469963,-1.79478,
2026_07_06_15_51_47.412,3.859,53.1,0,0.775,0,0,0,0, ,0,0,0,0,0, ,-40.2,183.5,983.5,-0.6,-0.5,-1.8,25,-40.48,183.041,983.621,-0.607835,-0.471793,-1.79205,
2026_07_06_15_51_47.426,3.859,53.2,0,0.775,0,0,0,0, ,0,0,0,0,0, ,-40.4,184.6,984.1,-0.6,-0.4,-1.7,25,-40.469,183.102,983.632,-0.607357,-0.470465,-1.78949,
2026_07_06_15_51_47.451,3.859,53,0,0.776,0,0,0,0, ,0,0,0,0,0, ,-41,183.1,981.5,-0.6,-0.4,-1.9,25,-40.4831,183.148,983.581,-0.606909,-0.466171,-1.79013,
2026_07_06_15_51_47.465,3.859,53.2,0,0.775,0,0,0,0, ,0,0,0,0,0, ,-41.7,183.7,982.2,-0.6,-0.4,-1.8,25,-40.5359,183.163,983.476,-0.606488,-0.462139,-1.79378,
2026_07_06_15_51_47.496,3.859,53.1,0,0.774,0,0,0,0, ,0,0,0,0,0, ,-40.7,182.7,982.4,-0.6,-0.5,-1.7,25,-40.5764,183.166,983.404,-0.606093,-0.461399,-1.79111,
2026_07_06_15_51_47.505,3.859,53.2,0,0.775,0,0,0,0, ,0,0,0,0,0, ,-40.6,182.4,983.7,-0.6,-0.5,-1.8,25,-40.5809,183.128,983.382,-0.605721,-0.463751,-1.78861,
2026_07_06_15_51_47.529,3.859,53.1,0,0.774,0,0,0,0, ,0,0,0,0,0, ,-40.4,182,983.1,-0.6,-0.5,-1.8,25,-40.5759,183.072,983.383,-0.605373,-0.46596,-1.7893,
2026_07_06_15_51_47.544,3.859,53.1,0,0.775,0,0,0,0, ,0,0,0,0,0, ,-41,181.8,982.6,-0.5,-0.4,-1.8,25,-40.5835,183,983.351,-0.601998,-0.464988,-1.78995,
2026_07_06_15_51_47.568,3.859,53.1,0,0.775,0,0,0,0, ,0,0,0,0,0, ,-40.6,183.1,984.2,-0.6,-0.5,-1.8,25,-40.5967,182.967,983.354,-0.59883,-0.464074,-1.79056,
2026_07_06_15_51_47.584,3.859,53.1,0,0.776,0,0,0,0, ,0,0,0,0,0, ,-40.2,182.6,984.1,-0.5,-0.4,-1.8,25,-40.5847,182.96,983.402,-0.595854,-0.463217,-1.79114,
2026_07_06_15_51_47.609,3.859,53.1,0,0.775,0,0,0,0, ,0,0,0,0,0, ,-40.6,182.6,983.2,-0.6,-0.4,-1.8,25,-40.5734,182.938,983.418,-0.59306,-0.459364,-1.79168,
2026_07_06_15_51_47.623,3.859,53,0,0.775,0,0,0,0, ,0,0,0,0,0, ,-39.5,184,984.1,-0.7,-0.4,-1.8,25,-40.5415,182.96,983.432,-0.59653,-0.455747,-1.79219,
2026_07_06_15_51_47.649,3.859,53.1,0,0.774,0,0,0,0, ,0,0,0,0,0, ,-40.1,183.4,984.1,-0.7,-0.4,-1.8,25,-40.4964,183.005,983.472,-0.602835,-0.45235,-1.79266,
2026_07_06_15_51_47.663,3.859,53,0,0.775,0,0,0,0, ,0,0,0,0,0, ,-39.5,183.2,983.3,-0.6,-0.5,-1.7,25,-40.4539,183.023,983.486,-0.605709,-0.452207,-1.79006,
2026_07_06_15_51_47.688,3.859,53,0,0.775,0,0,0,0, ,0,0,0,0,0, ,-40.1,182.8,983.5,-0.6,-0.5,-1.8,25,-40.4141,183.021,983.481,-0.605361,-0.455119,-1.78762,
2026_07_06_15_51_47.703,3.859,53,0,0.775,0,0,0,0, ,0,0,0,0,0, ,-40.7,184,983,-0.5,-0.4,-1.8,25,-40.4132,183.044,983.467,-0.601988,-0.454807,-1.78838,
2026_07_06_15_51_47.734,3.859,53,0,0.775,0,0,0,0, ,0,0,0,0,0, ,-40,182.2,982.9,-0.6,-0.4,-1.8,25,-40.4094,183.048,983.435,-0.59882,-0.451467,-1.78908,
2026_07_06_15_51_47.741,3.859,53,0,0.776,0,0,0,0, ,0,0,0,0,0, ,-40.1,183.3,982.2,-0.6,-0.4,-1.8,25,-40.3875,183.03,983.382,-0.598892,-0.448331,-1.78975,
2026_07_06_15_51_47.766,3.859,53,0,0.774,0,0,0,0, ,0,0,0,0,0, ,-39.7,183.2,982.5,-0.6,-0.5,-1.8,25,-40.3578,183.043,983.319,-0.598959,-0.448433,-1.79037,
2026_07_06_15_51_47.782,3.859,53,0,0.776,0,0,0,0, ,0,0,0,0,0, ,-40.8,182,983.3,-0.6,-0.5,-1.9,25,-40.3512,183.016,983.293,-0.599023,-0.451575,-1.79401,
2026_07_06_15_51_47.809,3.859,52.9,0,0.775,0,0,0,0, ,0,0,0,0,0, ,-40.2,183.8,984.3,-0.6,-0.5,-1.8,25,-40.3603,183.009,983.324,-0.599082,-0.454526,-1.79742,
2026_07_06_15_51_47.821,3.859,52.9,0,0.775,0,0,0,0, ,0,0,0,0,0, ,-40.8,185,982.7,-0.7,-0.5,-1.8,25,-40.3688,183.094,983.335,-0.602185,-0.457297,-1.79758,
2026_07_06_15_51_47.849,3.859,52.9,0,0.775,0,0,0,0, ,0,0,0,0,0, ,-41,184.4,983.2,-0.5,-0.4,-1.8,25,-40.4011,183.192,983.311,-0.602052,-0.456852,-1.79772,
2026_07_06_15_51_47.860,3.859,52.9,0,0.775,0,0,0,0, ,0,0,0,0,0, ,-40.7,182.1,985.1,-0.5,-0.5,-1.8,25,-40.4285,183.195,983.362,-0.595833,-0.456435,-1.79786,
2026_07_06_15_51_47.885,3.859,52.9,0,0.776,0,0,0,0, ,0,0,0,0,0, ,-40.6,182.2,983,-0.5,-0.5,-1.8,25,-40.442,183.132,983.404,-0.589993,-0.45909,-1.79799,
2026_07_06_15_51_47.900,3.859,52.9,0,0.775,0,0,0,0, ,0,0,0,0,0, ,-41.8,183.7,981.3,-0.4,-0.5,-1.8,25,-40.4882,183.12,983.328,-0.581462,-0.461583,-1.79812,
2026_07_06_15_51_47.926,3.859,52.9,0,0.775,0,0,0,0, ,0,0,0,0,0, ,-39.1,182.8,985.9,-0.5,-0.5,-1.9,25,-40.4859,183.128,983.344,-0.573451,-0.463924,-1.80128,
2026_07_06_15_51_47.939,3.859,52.9,0,0.776,0,0,0,0, ,0,0,0,0,0, ,-38.8,183.5,984.1,-0.9,-0.5,-1.8,25,-40.3923,183.13,983.445,-0.581163,-0.466122,-1.80425,
2026_07_06_15_51_47.965,3.859,52.9,0,0.775,0,0,0,0, ,0,0,0,0,0, ,-39.7,185.1,983,-0.9,-0.4,-1.8,25,-40.3227,183.201,983.452,-0.600592,-0.46514,-1.80399,
2026_07_06_15_51_47.978,3.859,52.9,0,0.776,0,0,0,0, ,0,0,0,0,0, ,-40.8,181.8,984.3,-0.8,-0.5,-1.9,25,-40.3182,183.216,983.464,-0.61579,-0.464217,-1.80679,
2026_07_06_15_51_48.007,3.859,52.9,0,0.776,0,0,0,0, ,0,0,0,0,0, ,-41.1,181.5,982.1,-0.8,-0.5,-1.9,25,-40.3567,183.121,983.448,-0.627016,-0.466398,-1.81247,
2026_07_06_15_51_48.019,3.859,52.8,0,0.774,0,0,0,0, ,0,0,0,0,0, ,-40.8,183.2,983.6,-0.6,-0.5,-1.8,25,-40.3929,183.074,983.411,-0.631463,-0.468445,-1.81476,
2026_07_06_15_51_48.046,3.859,52.9,0,0.774,0,0,0,0, ,0,0,0,0,0, ,-40.6,184.4,984.1,-0.5,-0.5,-1.7,25,-40.4116,183.118,983.438,-0.626499,-0.470368,-1.81081,
2026_07_06_15_51_48.059,3.859,52.8,0,0.775,0,0,0,0, ,0,0,0,0,0, ,-40.4,183.5,984.3,-0.6,-0.5,-1.8,25,-40.417,183.169,983.484,-0.621837,-0.472174,-1.80711,
2026_07_06_15_51_48.085,3.859,52.8,0,0.775,0,0,0,0, ,0,0,0,0,0, ,-41.2,182.3,983.5,-0.7,-0.5,-1.8,25,-40.4403,183.152,983.51,-0.623553,-0.473869,-1.80667,
2026_07_06_15_51_48.098,3.859,52.8,0,0.776,0,0,0,0, ,0,0,0,0,0, ,-38.9,183.1,983.1,-0.6,-0.5,-1.8,25,-40.4165,183.125,983.497,-0.625165,-0.475462,-1.80627,
2026_07_06_15_51_48.125,3.859,52.8,0,0.776,0,0,0,0, ,0,0,0,0,0, ,-41.3,181.6,983.3,-0.6,-0.4,-1.8,25,-40.3973,183.078,983.479,-0.623632,-0.47391,-1.80588,
2026_07_06_15_51_48.137,3.859,52.7,0,0.775,0,0,0,0, ,0,0,0,0,0, ,-40,183.5,982.6,-0.6,-0.5,-1.8,25,-40.4127,183.045,983.447,-0.622191,-0.472453,-1.80553,
2026_07_06_15_51_48.167,3.859,52.8,0,0.775,0,0,0,0, ,0,0,0,0,0, ,-40.1,182.2,983,-0.5,-0.4,-1.8,25,-40.3906,183.034,983.407,-0.617792,-0.471085,-1.80519,
2026_07_06_15_51_48.177,3.859,52.8,0,0.774,0,0,0,0, ,0,0,0,0,0, ,-40,181.6,983.7,-0.5,-0.4,-1.8,25,-40.3698,182.964,983.404,-0.610614,-0.466753,-1.80487,
2026_07_06_15_51_48.203,3.859,52.7,0,0.773,0,0,0,0, ,0,0,0,0,0, ,-39.6,182,984.4,-0.6,-0.5,-1.9,25,-40.3351,182.893,983.443,-0.606921,-0.465732,-1.80762,
2026_07_06_15_51_48.218,3.859,52.6,0,0.775,0,0,0,0, ,0,0,0,0,0, ,-40.2,181,984,-0.6,-0.4,-1.8,25,-40.3086,182.809,983.489,-0.606499,-0.464774,-1.81021,
2026_07_06_15_51_48.244,3.859,52.7,0,0.775,0,0,0,0, ,0,0,0,0,0, ,-40.1,182.3,983.1,-0.7,-0.5,-1.8,25,-40.2989,182.738,983.493,-0.60915,-0.463873,-1.80958,
2026_07_06_15_51_48.256,3.859,52.7,0,0.773,0,0,0,0, ,0,0,0,0,0, ,-40.6,183.7,984.4,-0.7,-0.4,-1.8,25,-40.302,182.754,983.509,-0.614686,-0.463028,-1.809,
2026_07_06_15_51_48.282,3.859,52.8,0,0.775,0,0,0,0, ,0,0,0,0,0, ,-40.1,182.9,983,-0.6,-0.5,-1.8,25,-40.3049,182.787,983.52,-0.616838,-0.462234,-1.80845,
2026_07_06_15_51_48.296,3.859,52.8,0,0.773,0,0,0,0, ,0,0,0,0,0, ,-41,183.3,982.2,-0.7,-0.5,-1.8,25,-40.3199,182.806,983.464,-0.618859,-0.464535,-1.80794,
2026_07_06_15_51_48.326,3.859,52.7,0,0.775,0,0,0,0, ,0,0,0,0,0, ,-40.1,182.6,983.1,-0.6,-0.5,-1.8,25,-40.3339,182.815,983.415,-0.620756,-0.466697,-1.80745,
2026_07_06_15_51_48.335,3.859,52.7,0,0.775,0,0,0,0, ,0,0,0,0,0, ,-39.9,183.3,984.3,-0.5,-0.5,-1.8,25,-40.3136,182.823,983.432,-0.616445,-0.468726,-1.807,
2026_07_06_15_51_48.361,3.859,52.7,0,0.775,0,0,0,0, ,0,0,0,0,0, ,-39.3,184.2,983.5,-0.5,-0.4,-1.8,25,-40.2701,182.88,983.461,-0.609349,-0.467585,-1.80657,
2026_07_06_15_51_48.375,3.859,52.7,0,0.775,0,0,0,0, ,0,0,0,0,0, ,-41.5,183.9,983,-0.6,-0.5,-1.8,25,-40.278,182.951,983.448,-0.605732,-0.466513,-1.80617,
2026_07_06_15_51_48.402,3.859,52.7,0,0.775,0,0,0,0, ,0,0,0,0,0, ,-40.2,183.2,984.4,-0.7,-0.5,-1.8,25,-40.3128,182.988,983.463,-0.60843,-0.468554,-1.8058,
2026_07_06_15_51_48.414,3.859,52.7,0,0.776,0,0,0,0, ,0,0,0,0,0, ,-40.7,183.4,983.5,-0.7,-0.4,-1.8,25,-40.3212,183.007,983.493,-0.61401,-0.467423,-1.80544,
2026_07_06_15_51_48.441,3.859,52.7,0,0.774,0,0,0,0, ,0,0,0,0,0, ,-40.2,182.6,982.7,-0.6,-0.4,-1.9,25,-40.3291,183.006,983.469,-0.616203,-0.463315,-1.80816,
2026_07_06_15_51_48.454,3.859,52.6,0,0.774,0,0,0,0, ,0,0,0,0,0, ,-41.7,184.3,984.7,-0.6,-0.5,-1.8,25,-40.3669,183.033,983.483,-0.615216,-0.462503,-1.81071,
2026_07_06_15_51_48.482,3.859,52.7,0,0.775,0,0,0,0, ,0,0,0,0,0, ,-40.8,183.9,983,-0.5,-0.5,-1.7,25,-40.4207,183.098,983.505,-0.611242,-0.464788,-1.80701,
2026_07_06_15_51_48.493,3.859,52.7,0,0.775,0,0,0,0, ,0,0,0,0,0, ,-40.6,182.6,982.6,-0.6,-0.5,-1.8,25,-40.4377,183.107,983.462,-0.60751,-0.466934,-1.80353,
2026_07_06_15_51_48.521,3.859,52.6,0,0.775,0,0,0,0, ,0,0,0,0,0, ,-41,182,983.1,-0.6,-0.5,-1.8,25,-40.4598,183.058,983.425,-0.607052,-0.468949,-1.80332,
2026_07_06_15_51_48.533,3.859,52.6,0,0.775,0,0,0,0, ,0,0,0,0,0, ,-41.2,181.7,984.6,-0.7,-0.5,-1.8,25,-40.4988,182.985,983.451,-0.609669,-0.470841,-1.80312,
2026_07_06_15_51_48.560,3.859,52.6,0,0.774,0,0,0,0, ,0,0,0,0,0, ,-39.7,182.7,984,-0.6,-0.4,-1.8,25,-40.4958,182.937,983.503,-0.612127,-0.469571,-1.80293,
2026_07_06_15_51_48.573,3.859,52.5,0,0.775,0,0,0,0, ,0,0,0,0,0, ,-40.7,183.5,981.4,-0.7,-0.5,-1.8,25,-40.4778,182.947,983.454,-0.614435,-0.468378,-1.80275,
2026_07_06_15_51_48.601,3.859,52.6,0,0.774,0,0,0,0, ,0,0,0,0,0, ,-39.7,184.5,986.2,-0.7,-0.5,-1.8,25,-40.4609,183.011,983.475,-0.619649,-0.470305,-1.80258,
2026_07_06_15_51_48.612,3.859,52.6,0,0.774,0,0,0,0, ,0,0,0,0,0, ,-41.5,182,983.2,-0.7,-0.5,-1.8,25,-40.4694,183.026,983.549,-0.624545,-0.472115,-1.80242,
2026_07_06_15_51_48.639,3.859,52.6,0,0.775,0,0,0,0, ,0,0,0,0,0, ,-39.7,182.3,982.5,-0.6,-0.4,-1.8,25,-40.4773,182.972,983.507,-0.626096,-0.470767,-1.80228,
2026_07_06_15_51_48.652,3.859,52.4,0,0.775,0,0,0,0, ,0,0,0,0,0, ,-40.8,183.1,982.9,-0.5,-0.5,-1.8,25,-40.4635,182.956,983.458,-0.621459,-0.469502,-1.80214,
2026_07_06_15_51_48.681,3.859,52.6,0,0.774,0,0,0,0, ,0,0,0,0,0, ,-40.1,183.1,983.3,-0.4,-0.5,-1.9,25,-40.4626,182.964,983.436,-0.611011,-0.47136,-1.80505,
2026_07_06_15_51_48.692,3.859,52.4,0,0.775,0,0,0,0, ,0,0,0,0,0, ,-41,183.2,983.7,-0.5,-0.4,-1.8,25,-40.468,182.976,983.44,-0.601199,-0.470059,-1.80779,
2026_07_06_15_51_48.720,3.859,52.6,0,0.775,0,0,0,0, ,0,0,0,0,0, ,-40.1,184.4,983.8,-0.7,-0.5,-1.8,25,-40.473,183.026,983.459,-0.601126,-0.468836,-1.80732,
2026_07_06_15_51_48.736,3.859,52.4,0,0.774,0,0,0,0, ,0,0,0,0,0, ,-40.7,181,983,-0.7,-0.5,-1.8,25,-40.4685,183.006,983.455,-0.607151,-0.470735,-1.80687,
2026_07_06_15_51_48.764,3.859,52.4,0,0.774,0,0,0,0, ,0,0,0,0,0, ,-40.7,181,983.6,-0.7,-0.5,-1.8,25,-40.4826,182.884,983.446,-0.612809,-0.472519,-1.80645,
2026_07_06_15_51_48.773,3.859,52.5,0,0.775,0,0,0,0, ,0,0,0,0,0, ,-41.1,182.7,982.4,-0.6,-0.5,-1.8,25,-40.5081,182.821,983.419,-0.615076,-0.474193,-1.80606,
2026_07_06_15_51_48.802,3.859,52.5,0,0.774,0,0,0,0, ,0,0,0,0,0, ,-41.9,183.8,982.9,-0.5,-0.5,-1.8,25,-40.5685,182.847,983.372,-0.61111,-0.475766,-1.80569,
2026_07_06_15_51_48.810,3.859,52.4,0,0.775,0,0,0,0, ,0,0,0,0,0, ,-40.7,182.9,982.7,-0.7,-0.5,-1.8,25,-40.6131,182.878,983.337,-0.610433,-0.477243,-1.80534,
2026_07_06_15_51_48.837,3.859,52.5,0,0.774,0,0,0,0, ,0,0,0,0,0, ,-39.9,182.3,983.8,-0.7,-0.5,-1.7,25,-40.594,182.861,983.332,-0.615891,-0.478629,-1.80197,
2026_07_06_15_51_48.849,3.859,52.4,0,0.775,0,0,0,0, ,0,0,0,0,0, ,-39.7,182.6,983.2,-0.6,-0.5,-1.8,25,-40.5456,182.836,983.342,-0.61797,-0.479932,-1.7988,
2026_07_06_15_51_48.878,3.859,52.4,0,0.775,0,0,0,0, ,0,0,0,0,0, ,-40.6,184,983.7,-0.5,-0.5,-1.8,25,-40.5215,182.864,983.348,-0.613828,-0.481155,-1.79888,
2026_07_06_15_51_48.890,3.859,52.4,0,0.775,0,0,0,0, ,0,0,0,0,0, ,-40,184.3,984.2,-0.6,-0.5,-1.8,25,-40.508,182.942,983.385,-0.609938,-0.482303,-1.79895,
2026_07_06_15_51_48.918,3.859,52.4,0,0.774,0,0,0,0, ,0,0,0,0,0, ,-40.8,184.2,982.9,-0.5,-0.5,-1.8,25,-40.5014,183.022,983.395,-0.606286,-0.483381,-1.79901,
2026_07_06_15_51_48.929,3.859,52.5,0,0.775,0,0,0,0, ,0,0,0,0,0, ,-39.5,183.3,983.8,-0.6,-0.5,-1.8,25,-40.48,183.066,983.392,-0.602856,-0.484394,-1.79907,
2026_07_06_15_51_48.957,3.859,52.4,0,0.774,0,0,0,0, ,0,0,0,0,0, ,-40.6,182.3,981.6,-0.5,-0.5,-1.8,25,-40.4538,183.05,983.35,-0.599635,-0.485345,-1.79913,
2026_07_06_15_51_48.968,3.859,52.3,0,0.775,0,0,0,0, ,0,0,0,0,0, ,-40.2,182.4,985.4,-0.6,-0.4,-1.8,25,-40.4505,183.007,983.359,-0.59661,-0.483191,-1.79918,
2026_07_06_15_51_48.995,3.859,52.4,0,0.775,0,0,0,0, ,0,0,0,0,0, ,-40,183.3,984.3,-0.6,-0.6,-1.8,25,-40.4292,182.998,983.45,-0.596817,-0.484216,-1.79923,
2026_07_06_15_51_49.007,3.859,52.3,0,0.775,0,0,0,0, ,0,0,0,0,0, ,-39.6,184,983.8,-0.6,-0.5,-1.8,25,-40.3908,183.038,983.487,-0.597011,-0.488224,-1.79928,
2026_07_06_15_51_49.038,3.859,52.1,0,0.775,0,0,0,0, ,0,0,0,0,0, ,-41.1,181.7,983.1,-0.7,-0.5,-1.8,25,-40.3883,183.026,983.484,-0.60024,-0.488942,-1.79932,
2026_07_06_15_51_49.047,3.859,52.4,0,0.775,0,0,0,0, ,0,0,0,0,0, ,-39.5,182.4,983.5,-0.7,-0.4,-1.8,25,-40.383,182.967,983.473,-0.606319,-0.486569,-1.79936,
2026_07_06_15_51_49.074,3.859,52.3,0,0.776,0,0,0,0, ,0,0,0,0,0, ,-40.4,182,982.6,-0.6,-0.5,-1.8,25,-40.3566,182.92,983.447,-0.608981,-0.48434,-1.7994,
2026_07_06_15_51_49.087,3.859,52.1,0,0.774,0,0,0,0, ,0,0,0,0,0, ,-40.1,183.3,984.4,-0.6,-0.5,-1.8,25,-40.3501,182.904,983.451,-0.608434,-0.485295,-1.79944,
2026_07_06_15_51_49.117,3.859,52.3,0,0.776,0,0,0,0, ,0,0,0,0,0, ,-40.6,183.8,982.7,-0.6,-0.5,-1.9,25,-40.3501,182.943,983.457,-0.60792,-0.486191,-1.80252,
2026_07_06_15_51_49.126,3.859,52.3,0,0.773,0,0,0,0, ,0,0,0,0,0, ,-39.4,181.8,984.1,-0.7,-0.4,-1.8,25,-40.3287,182.934,983.453,-0.610484,-0.483985,-1.80541,
2026_07_06_15_51_49.153,3.859,52.1,0,0.774,0,0,0,0, ,0,0,0,0,0, ,-41.3,182.3,984.1,-0.7,-0.5,-1.8,25,-40.33,182.88,983.493,-0.615939,-0.481914,-1.80508,
2026_07_06_15_51_49.166,3.859,52.1,0,0.776,0,0,0,0, ,0,0,0,0,0, ,-39.9,182,983.6,-0.7,-0.4,-1.8,25,-40.3465,182.836,983.514,-0.621061,-0.47997,-1.80477,
2026_07_06_15_51_49.195,3.859,52.1,0,0.774,0,0,0,0, ,0,0,0,0,0, ,-41.1,183.4,983.7,-0.6,-0.5,-1.8,25,-40.3558,182.828,983.523,-0.622825,-0.478143,-1.80448,
2026_07_06_15_51_49.209,3.859,52.1,0,0.773,0,0,0,0, ,0,0,0,0,0, ,-40.2,183.9,984.6,-0.6,-0.5,-1.8,25,-40.3738,182.878,983.561,-0.621434,-0.479475,-1.80421,
2026_07_06_15_51_49.240,3.859,52.1,0,0.774,0,0,0,0, ,0,0,0,0,0, ,-40.4,185,982.6,-0.6,-0.5,-1.8,25,-40.3693,182.973,983.563,-0.620128,-0.480726,-1.80395,
2026_07_06_15_51_49.247,3.859,52.1,0,0.776,0,0,0,0, ,0,0,0,0,0, ,-40.7,183.2,983.5,-0.6,-0.5,-1.8,25,-40.3803,183.042,983.532,-0.618901,-0.4819,-1.80371,
2026_07_06_15_51_49.274,3.859,52.3,0,0.775,0,0,0,0, ,0,0,0,0,0, ,-40.8,183.8,982.1,-0.5,-0.5,-1.8,25,-40.4028,183.07,983.487,-0.614703,-0.483003,-1.80349,
2026_07_06_15_51_49.285,3.859,52,0,0.774,0,0,0,0, ,0,0,0,0,0, ,-40.8,181.1,983.2,-0.5,-0.4,-1.8,25,-40.427,183.032,983.436,-0.607713,-0.480992,-1.80327,
2026_07_06_15_51_49.314,3.859,52.1,0,0.775,0,0,0,0, ,0,0,0,0,0, ,-41,182.3,983.5,-0.6,-0.6,-1.8,25,-40.4558,182.951,983.431,-0.604196,-0.482151,-1.80307,
2026_07_06_15_51_49.325,3.859,52.1,0,0.774,0,0,0,0, ,0,0,0,0,0, ,-41,183.2,985.8,-0.6,-0.4,-1.8,25,-40.489,182.939,983.505,-0.60394,-0.483238,-1.80289,
2026_07_06_15_51_49.352,3.859,52,0,0.775,0,0,0,0, ,0,0,0,0,0, ,-41.1,183.2,984.3,-0.7,-0.5,-1.8,25,-40.5232,182.955,983.6,-0.606747,-0.481213,-1.80271,
2026_07_06_15_51_49.363,3.859,52,0,0.774,0,0,0,0, ,0,0,0,0,0, ,-40,183.9,983.3,-0.7,-0.5,-1.8,25,-40.5248,182.991,983.612,-0.61243,-0.482358,-1.80255,
2026_07_06_15_51_49.393,3.859,52.1,0,0.775,0,0,0,0, ,0,0,0,0,0, ,-40.4,183.1,983.8,-0.7,-0.4,-1.8,25,-40.505,183.022,983.608,-0.617766,-0.480386,-1.80239,
2026_07_06_15_51_49.403,3.859,52,0,0.775,0,0,0,0, ,0,0,0,0,0, ,-40,183.8,982.4,-0.5,-0.4,-1.8,25,-40.4864,183.048,983.577,-0.616683,-0.475487,-1.80224,
2026_07_06_15_51_49.432,3.859,52.1,0,0.774,0,0,0,0, ,0,0,0,0,0, ,-39.7,182.6,982.7,-0.5,-0.5,-1.8,25,-40.4477,183.057,983.514,-0.609573,-0.473934,-1.80211,
2026_07_06_15_51_49.447,3.859,52,0,0.774,0,0,0,0, ,0,0,0,0,0, ,-41.2,182.7,983.7,-0.7,-0.5,-1.8,25,-40.4478,183.033,983.495,-0.60899,-0.475523,-1.80198,
2026_07_06_15_51_49.475,3.859,52,0,0.775,0,0,0,0, ,0,0,0,0,0, ,-40.5,183.8,982.6,-0.7,-0.5,-1.9,25,-40.4723,183.046,983.474,-0.614536,-0.477014,-1.80491,
2026_07_06_15_51_49.482,3.859,52,0,0.775,0,0,0,0, ,0,0,0,0,0, ,-40.4,183.5,984.4,-0.6,-0.4,-1.8,25,-40.4709,183.083,983.476,-0.616697,-0.475368,-1.80765,
2026_07_06_15_51_49.512,3.859,52,0,0.775,0,0,0,0, ,0,0,0,0,0, ,-39.7,182.9,982.6,-0.5,-0.5,-1.7,25,-40.4453,183.09,983.477,-0.612632,-0.473822,-1.80414,
2026_07_06_15_51_49.522,3.859,52,0,0.776,0,0,0,0, ,0,0,0,0,0, ,-41,182,984,-0.5,-0.4,-1.8,25,-40.4395,183.051,983.466,-0.605769,-0.47237,-1.80084,
2026_07_06_15_51_49.552,3.859,52,0,0.775,0,0,0,0, ,0,0,0,0,0, ,-39.9,183.3,984.2,-0.6,-0.5,-1.8,25,-40.4401,183.026,983.505,-0.60237,-0.471007,-1.80079,
2026_07_06_15_51_49.561,3.859,52.1,0,0.774,0,0,0,0, ,0,0,0,0,0, ,-40.4,182.6,983.1,-0.6,-0.5,-1.8,25,-40.4225,183.022,983.514,-0.602226,-0.472774,-1.80074,
2026_07_06_15_51_49.590,3.859,52,0,0.775,0,0,0,0, ,0,0,0,0,0, ,-41.1,182.1,983.8,-0.6,-0.4,-1.9,25,-40.4424,182.981,983.51,-0.60209,-0.471386,-1.80374,
2026_07_06_15_51_49.601,3.859,51.9,0,0.776,0,0,0,0, ,0,0,0,0,0, ,-40.5,182.1,982.7,-0.6,-0.5,-1.8,25,-40.4642,182.927,983.494,-0.601963,-0.470083,-1.80656,
2026_07_06_15_51_49.632,3.859,51.9,0,0.774,0,0,0,0, ,0,0,0,0,0, ,-40.5,183.5,983.7,-0.7,-0.4,-1.8,25,-40.4664,182.919,983.476,-0.60489,-0.468859,-1.80616,
2026_07_06_15_51_49.641,3.859,52,0,0.773,0,0,0,0, ,0,0,0,0,0, ,-41,184.4,983.1,-0.7,-0.5,-1.8,25,-40.4837,182.982,983.472,-0.610686,-0.46771,-1.80579,
2026_07_06_15_51_49.671,3.859,51.8,0,0.774,0,0,0,0, ,0,0,0,0,0, ,-39.4,182.7,983.5,-0.7,-0.5,-1.8,25,-40.4664,183.017,983.461,-0.616129,-0.469678,-1.80543,
2026_07_06_15_51_49.680,3.859,52,0,0.773,0,0,0,0, ,0,0,0,0,0, ,-40.2,183.8,982.6,-0.6,-0.5,-1.8,25,-40.4258,183.031,983.436,-0.618193,-0.471525,-1.8051,
2026_07_06_15_51_49.709,3.859,51.9,0,0.773,0,0,0,0, ,0,0,0,0,0, ,-40.4,183.3,983.5,-0.5,-0.5,-1.9,25,-40.4181,183.063,983.413,-0.614037,-0.473261,-1.80784,
2026_07_06_15_51_49.719,3.859,51.9,0,0.773,0,0,0,0, ,0,0,0,0,0, ,-40.8,181.5,983.2,-0.5,-0.5,-1.8,25,-40.4292,183.022,983.409,-0.607088,-0.47489,-1.81041,
2026_07_06_15_51_49.750,3.859,52,0,0.776,0,0,0,0, ,0,0,0,0,0, ,-40.4,182.4,984.1,-0.5,-0.4,-1.8,25,-40.4396,182.957,983.423,-0.600562,-0.473373,-1.80977,
2026_07_06_15_51_49.760,3.859,52,0,0.775,0,0,0,0, ,0,0,0,0,0, ,-40,182.6,982.6,-0.7,-0.5,-1.8,25,-40.425,182.929,983.419,-0.600528,-0.471949,-1.80918,
2026_07_06_15_51_49.791,3.859,51.8,0,0.775,0,0,0,0, ,0,0,0,0,0, ,-39.6,182.2,982.4,-0.7,-0.4,-1.8,25,-40.3869,182.897,983.363,-0.60659,-0.470611,-1.80862,
2026_07_06_15_51_49.799,3.859,51.8,0,0.775,0,0,0,0, ,0,0,0,0,0, ,-41.1,182.3,985.7,-0.7,-0.5,-1.8,25,-40.3847,182.857,983.405,-0.612282,-0.469355,-1.80809,
2026_07_06_15_51_49.829,3.859,51.9,0,0.775,0,0,0,0, ,0,0,0,0,0, ,-40.8,183.9,983.3,-0.6,-0.4,-1.8,25,-40.4191,182.872,983.472,-0.61458,-0.468176,-1.8076,
2026_07_06_15_51_49.838,3.859,52,0,0.775,0,0,0,0, ,0,0,0,0,0, ,-39.5,183.8,985.1,-0.6,-0.5,-1.8,25,-40.4027,182.932,983.516,-0.613692,-0.467068,-1.80714,
2026_07_06_15_51_49.869,3.859,51.9,0,0.775,0,0,0,0, ,0,0,0,0,0, ,-39.6,182.8,981.9,-0.5,-0.5,-1.8,25,-40.3508,182.954,983.515,-0.609811,-0.469075,-1.8067,
2026_07_06_15_51_49.878,3.859,51.8,0,0.775,0,0,0,0, ,0,0,0,0,0, ,-40.4,182.6,983,-0.7,-0.5,-1.9,25,-40.3294,182.939,983.45,-0.609213,-0.47096,-1.80934,
2026_07_06_15_51_49.909,3.859,51.8,0,0.775,0,0,0,0, ,0,0,0,0,0, ,-39.7,181.3,983,-0.6,-0.4,-1.8,25,-40.3124,182.878,983.423,-0.611698,-0.469682,-1.81182,
2026_07_06_15_51_49.918,3.859,51.9,0,0.774,0,0,0,0, ,0,0,0,0,0, ,-41.1,183.1,984,-0.6,-0.5,-1.9,25,-40.3177,182.837,983.427,-0.610985,-0.468483,-1.81415,
2026_07_06_15_51_49.948,3.859,51.9,0,0.774,0,0,0,0, ,0,0,0,0,0, ,-41.2,183.4,982.7,-0.6,-0.5,-1.8,25,-40.3684,182.862,983.423,-0.610316,-0.470404,-1.81633,
2026_07_06_15_51_49.957,3.859,51.7,0,0.774,0,0,0,0, ,0,0,0,0,0, ,-39.5,184,985.7,-0.6,-0.5,-1.8,25,-40.3673,182.913,983.47,-0.609687,-0.472207,-1.81533,
2026_07_06_15_51_49.987,3.859,51.8,0,0.774,0,0,0,0, ,0,0,0,0,0, ,-41.1,183.4,982.9,-0.6,-0.5,-1.8,25,-40.3632,182.961,983.521,-0.609097,-0.473901,-1.8144,
2026_07_06_15_51_49.997,3.859,51.8,0,0.774,0,0,0,0, ,0,0,0,0,0, ,-40.2,183.7,984.1,-0.6,-0.4,-1.8,25,-40.3807,182.997,983.519,-0.608543,-0.472444,-1.81352,
2026_07_06_15_51_50.027,3.859,51.8,0,0.774,0,0,0,0, ,0,0,0,0,0, ,-40.4,183.5,983.1,-0.6,-0.5,-1.8,25,-40.3758,183.034,983.524,-0.608022,-0.471077,-1.8127,
2026_07_06_15_51_50.036,3.859,51.8,0,0.775,0,0,0,0, ,0,0,0,0,0, ,-39.3,183.7,983.3,-0.5,-0.4,-1.7,25,-40.3437,183.068,983.505,-0.604486,-0.469792,-1.80888,
2026_07_06_15_51_50.066,3.859,51.8,0,0.776,0,0,0,0, ,0,0,0,0,0, ,-40.6,183.8,984.2,-0.5,-0.5,-1.8,25,-40.3197,183.11,983.519,-0.598119,-0.468586,-1.80529,
2026_07_06_15_51_50.076,3.859,51.8,0,0.774,0,0,0,0, ,0,0,0,0,0, ,-40.1,183.2,984.4,-0.6,-0.5,-1.8,25,-40.3216,183.134,983.567,-0.595187,-0.4705,-1.80497,
2026_07_06_15_51_50.106,3.859,51.8,0,0.774,0,0,0,0, ,0,0,0,0,0, ,-40.7,182.3,983.6,-0.6,-0.4,-1.8,25,-40.3263,183.11,983.593,-0.59548,-0.469251,-1.80467,
2026_07_06_15_51_50.116,3.859,51.8,0,0.773,0,0,0,0, ,0,0,0,0,0, ,-40.5,182.6,982.9,-0.6,-0.5,-1.8,25,-40.343,183.07,983.572,-0.595756,-0.468078,-1.80438,
2026_07_06_15_51_50.147,3.859,51.8,0,0.773,0,0,0,0, ,0,0,0,0,0, ,-40.2,182.4,983.7,-0.6,-0.4,-1.8,25,-40.3434,183.035,983.556,-0.596014,-0.466976,-1.80411,
2026_07_06_15_51_50.155,3.859,51.6,0,0.775,0,0,0,0, ,0,0,0,0,0, ,-40.5,183.3,983,-0.7,-0.5,-1.8,25,-40.3438,183.024,983.543,-0.599304,-0.465942,-1.80386,
2026_07_06_15_51_50.186,3.859,51.7,0,0.775,0,0,0,0, ,0,0,0,0,0, ,-39.5,183.7,982.7,-0.7,-0.5,-1.8,25,-40.3229,183.053,983.501,-0.60544,-0.468017,-1.80363,
2026_07_06_15_51_50.195,3.859,51.6,0,0.774,0,0,0,0, ,0,0,0,0,0, ,-40.7,181.7,981.6,-0.7,-0.4,-1.8,25,-40.3093,183.032,983.419,-0.611202,-0.466919,-1.80341,
2026_07_06_15_51_50.225,3.859,51.8,0,0.774,0,0,0,0, ,0,0,0,0,0, ,-41,182.4,984.3,-0.6,-0.5,-1.8,25,-40.3423,182.972,983.39,-0.613567,-0.465888,-1.8032,
2026_07_06_15_51_50.235,3.859,51.7,0,0.773,0,0,0,0, ,0,0,0,0,0, ,-40.4,182.3,984.1,-0.6,-0.5,-1.8,25,-40.3641,182.934,983.44,-0.61274,-0.467967,-1.803,
2026_07_06_15_51_50.265,3.859,51.7,0,0.774,0,0,0,0, ,0,0,0,0,0, ,-40.4,183.4,983.6,-0.8,-0.5,-1.8,25,-40.3662,182.929,983.465,-0.618057,-0.469919,-1.80282,
2026_07_06_15_51_50.273,3.859,51.7,0,0.774,0,0,0,0, ,0,0,0,0,0, ,-41.1,183.1,982.9,-0.7,-0.4,-1.8,25,-40.3896,182.948,983.451,-0.626098,-0.468705,-1.80265,
2026_07_06_15_51_50.309,3.859,51.6,0,0.774,0,0,0,0, ,0,0,0,0,0, ,-40.2,181.2,983.5,-0.6,-0.4,-1.8,25,-40.4055,182.9,983.436,-0.627554,-0.464519,-1.80249,
2026_07_06_15_51_50.316,3.859,51.6,0,0.774,0,0,0,0, ,0,0,0,0,0, ,-40.7,182.1,982.9,-0.6,-0.4,-1.8,25,-40.4082,182.823,983.422,-0.625875,-0.460587,-1.80234,
2026_07_06_15_51_50.345,3.859,51.6,0,0.775,0,0,0,0, ,0,0,0,0,0, ,-40.5,184,983.2,-0.5,-0.5,-1.8,25,-40.4199,182.837,983.399,-0.621251,-0.459942,-1.80219,
2026_07_06_15_51_50.353,3.859,51.7,0,0.774,0,0,0,0, ,0,0,0,0,0, ,-41.1,182.8,985.9,-0.5,-0.5,-1.8,25,-40.4431,182.872,983.469,-0.613863,-0.462383,-1.80206,
2026_07_06_15_51_50.382,3.859,51.6,0,0.776,0,0,0,0, ,0,0,0,0,0, ,-40.6,182.2,983.7,-0.6,-0.4,-1.9,25,-40.4679,182.849,983.55,-0.609971,-0.461628,-1.80498,
2026_07_06_15_51_50.392,3.859,51.7,0,0.774,0,0,0,0, ,0,0,0,0,0, ,-40.8,181.6,983,-0.7,-0.4,-1.8,25,-40.482,182.791,983.538,-0.61241,-0.457873,-1.80772,
2026_07_06_15_51_50.422,3.859,51.6,0,0.773,0,0,0,0, ,0,0,0,0,0, ,-39.7,182.9,984,-0.6,-0.5,-1.8,25,-40.4679,182.758,983.536,-0.614701,-0.457393,-1.80725,
2026_07_06_15_51_50.432,3.859,51.6,0,0.775,0,0,0,0, ,0,0,0,0,0, ,-39.6,183.1,981.5,-0.6,-0.5,-1.8,25,-40.418,182.773,983.488,-0.613805,-0.459989,-1.80681,
2026_07_06_15_51_50.462,3.859,51.6,0,0.774,0,0,0,0, ,0,0,0,0,0, ,-39,183.1,984.8,-0.6,-0.5,-1.8,25,-40.3499,182.793,983.467,-0.612964,-0.462428,-1.8064,
2026_07_06_15_51_50.472,3.859,51.6,0,0.774,0,0,0,0, ,0,0,0,0,0, ,-39.7,184,982.9,-0.6,-0.5,-1.8,25,-40.289,182.839,983.491,-0.612174,-0.464717,-1.80601,
2026_07_06_15_51_50.502,3.859,51.6,0,0.773,0,0,0,0, ,0,0,0,0,0, ,-41.2,182.3,983.1,-0.6,-0.5,-1.7,25,-40.2988,182.858,983.461,-0.611432,-0.466867,-1.80259,
2026_07_06_15_51_50.512,3.859,51.6,0,0.774,0,0,0,0, ,0,0,0,0,0, ,-40.5,181.5,981.9,-0.6,-0.5,-1.8,25,-40.3324,182.8,983.402,-0.610735,-0.468886,-1.79939,
2026_07_06_15_51_50.542,3.859,51.5,0,0.773,0,0,0,0, ,0,0,0,0,0, ,-41,182.3,983.1,-0.5,-0.4,-1.8,25,-40.3578,182.745,983.347,-0.607034,-0.467735,-1.79943,
2026_07_06_15_51_50.551,3.859,51.6,0,0.775,0,0,0,0, ,0,0,0,0,0, ,-40.5,182.9,983.8,-0.5,-0.4,-1.8,25,-40.3817,182.736,983.353,-0.600512,-0.463608,-1.79946,
2026_07_06_15_51_50.582,3.859,51.6,0,0.774,0,0,0,0, ,0,0,0,0,0, ,-39.1,181.6,983.3,-0.6,-0.5,-1.8,25,-40.3463,182.706,983.365,-0.597434,-0.462778,-1.79949,
2026_07_06_15_51_50.590,3.859,51.6,0,0.774,0,0,0,0, ,0,0,0,0,0, ,-39.6,181.6,983.7,-0.7,-0.5,-1.9,25,-40.2856,182.639,983.374,-0.600637,-0.465047,-1.80257,
2026_07_06_15_51_50.620,3.859,51.6,0,0.774,0,0,0,0, ,0,0,0,0,0, ,-41.1,181.7,984.2,-0.7,-0.5,-1.8,25,-40.2895,182.579,983.409,-0.606692,-0.467177,-1.80546,
2026_07_06_15_51_50.630,3.859,51.6,0,0.775,0,0,0,0, ,0,0,0,0,0, ,-40.2,182.4,982.1,-0.7,-0.5,-1.8,25,-40.3115,182.546,983.393,-0.612378,-0.469177,-1.80513,
2026_07_06_15_51_50.661,3.859,51.6,0,0.774,0,0,0,0, ,0,0,0,0,0, ,-40.8,183.2,983.2,-0.6,-0.4,-1.8,25,-40.3229,182.562,983.348,-0.614671,-0.468008,-1.80482,
2026_07_06_15_51_50.670,3.859,51.4,0,0.774,0,0,0,0, ,0,0,0,0,0, ,-40.7,183.1,983.1,-0.5,-0.5,-1.8,25,-40.349,182.598,983.336,-0.61073,-0.466911,-1.80452,
2026_07_06_15_51_50.703,3.859,51.6,0,0.775,0,0,0,0, ,0,0,0,0,0, ,-39.4,182.8,982.4,-0.5,-0.4,-1.8,25,-40.3307,182.619,983.3,-0.603982,-0.46588,-1.80425,
2026_07_06_15_51_50.711,3.859,51.5,0,0.774,0,0,0,0, ,0,0,0,0,0, ,-41.3,181.8,983.5,-0.6,-0.4,-1.8,25,-40.3319,182.6,983.279,-0.600693,-0.461866,-1.80399,
2026_07_06_15_51_50.742,3.859,51.5,0,0.774,0,0,0,0, ,0,0,0,0,0, ,-40.5,182.1,983,-0.6,-0.4,-1.8,25,-40.3665,182.56,983.277,-0.60065,-0.458096,-1.80375,
2026_07_06_15_51_50.749,3.859,51.5,0,0.774,0,0,0,0, ,0,0,0,0,0, ,-39.7,183.4,983.8,-0.6,-0.4,-1.8,25,-40.3503,182.572,983.284,-0.600611,-0.454556,-1.80352,
2026_07_06_15_51_50.782,3.859,51.4,0,0.774,0,0,0,0, ,0,0,0,0,0, ,-41,182.7,984,-0.7,-0.4,-1.7,25,-40.3503,182.601,983.322,-0.60362,-0.451231,-1.80026,
2026_07_06_15_51_50.791,3.859,51.4,0,0.774,0,0,0,0, ,0,0,0,0,0, ,-40.2,182.2,982.7,-0.5,-0.4,-1.8,25,-40.3655,182.592,983.324,-0.6034,-0.448109,-1.79719,
2026_07_06_15_51_50.822,3.859,51.3,0,0.774,0,0,0,0, ,0,0,0,0,0, ,-39.9,182.2,983.5,-0.5,-0.5,-1.8,25,-40.3463,182.568,983.31,-0.597099,-0.448224,-1.79736,
2026_07_06_15_51_50.829,3.859,51.4,0,0.774,0,0,0,0, ,0,0,0,0,0, ,-40.8,181.6,983.5,-0.5,-0.5,-1.8,25,-40.3465,182.527,983.322,-0.591182,-0.45138,-1.79753,
2026_07_06_15_51_50.861,3.859,51.4,0,0.775,0,0,0,0, ,0,0,0,0,0, ,-38.8,182.8,985.1,-0.5,-0.4,-1.8,25,-40.3132,182.507,983.381,-0.585626,-0.451295,-1.79768,
2026_07_06_15_51_50.868,3.859,51.4,0,0.774,0,0,0,0, ,0,0,0,0,0, ,-40.6,182.6,983.8,-0.6,-0.4,-1.8,25,-40.2758,182.519,983.446,-0.583455,-0.44817,-1.79782,
2026_07_06_15_51_50.898,3.859,51.4,0,0.774,0,0,0,0, ,0,0,0,0,0, ,-40.5,182.3,983.1,-0.7,-0.4,-1.8,25,-40.2925,182.515,983.447,-0.58751,-0.445234,-1.79795,
2026_07_06_15_51_50.906,3.859,51.4,0,0.775,0,0,0,0, ,0,0,0,0,0, ,-40.7,183.5,983,-0.7,-0.5,-1.9,25,-40.3113,182.538,983.422,-0.594365,-0.445525,-1.80112,
2026_07_06_15_51_50.940,3.859,51.4,0,0.774,0,0,0,0, ,0,0,0,0,0, ,-41,183.8,982.6,-0.5,-0.5,-1.8,25,-40.3441,182.606,983.384,-0.594708,-0.448844,-1.8041,
2026_07_06_15_51_50.948,3.859,51.5,0,0.774,0,0,0,0, ,0,0,0,0,0, ,-39.9,182.4,983.1,-0.5,-0.5,-1.8,25,-40.3506,182.636,983.352,-0.588937,-0.451962,-1.80385,
2026_07_06_15_51_50.979,3.859,51.4,0,0.774,0,0,0,0, ,0,0,0,0,0, ,-40.4,183.7,984.4,-0.5,-0.5,-1.8,25,-40.3383,182.661,983.376,-0.583517,-0.454889,-1.80362,
2026_07_06_15_51_50.986,3.859,51.3,0,0.774,0,0,0,0, ,0,0,0,0,0, ,-40.4,183.1,983.8,-0.7,-0.5,-1.9,25,-40.3421,182.706,983.42,-0.584522,-0.457638,-1.80644,
2026_07_06_15_51_51.017,3.859,51.3,0,0.774,0,0,0,0, ,0,0,0,0,0, ,-38.9,182,983,-0.6,-0.4,-1.8,25,-40.2999,182.697,983.419,-0.588512,-0.457172,-1.8091,
2026_07_06_15_51_51.026,3.859,51.2,0,0.772,0,0,0,0, ,0,0,0,0,0, ,-39.9,181.8,984.1,-0.6,-0.5,-1.8,25,-40.2451,182.648,983.427,-0.589212,-0.456735,-1.80854,
2026_07_06_15_51_51.056,3.859,51.2,0,0.774,0,0,0,0, ,0,0,0,0,0, ,-41.5,184.2,983.6,-0.5,-0.5,-1.7,25,-40.2728,182.67,983.453,-0.586822,-0.459372,-1.80498,
2026_07_06_15_51_51.065,3.859,51.4,0,0.775,0,0,0,0, ,0,0,0,0,0, ,-40.2,182.8,983.7,-0.6,-0.5,-1.8,25,-40.308,182.72,983.465,-0.584578,-0.461848,-1.80163,
2026_07_06_15_51_51.096,3.859,51.4,0,0.775,0,0,0,0, ,0,0,0,0,0, ,-39.7,182.3,983.2,-0.6,-0.5,-1.8,25,-40.2862,182.71,983.464,-0.585518,-0.464173,-1.80153,
2026_07_06_15_51_51.105,3.859,51.3,0,0.774,0,0,0,0, ,0,0,0,0,0, ,-41.3,183.9,983.1,-0.7,-0.4,-1.8,25,-40.2992,182.734,983.445,-0.589448,-0.463309,-1.80143,
2026_07_06_15_51_51.137,3.859,51.1,0,0.774,0,0,0,0, ,0,0,0,0,0, ,-40.4,181.7,981.6,-0.5,-0.4,-1.9,25,-40.3328,182.738,983.378,-0.590091,-0.459451,-1.80439,
2026_07_06_15_51_51.144,3.859,51.3,0,0.775,0,0,0,0, ,0,0,0,0,0, ,-41.1,183.1,983.3,-0.6,-0.5,-1.8,25,-40.3582,182.717,983.322,-0.587648,-0.458875,-1.80717,
2026_07_06_15_51_51.179,3.859,51.2,0,0.775,0,0,0,0, ,0,0,0,0,0, ,-39.6,183.1,982.2,-0.5,-0.5,-1.8,25,-40.3577,182.74,983.287,-0.585353,-0.461381,-1.80673,
2026_07_06_15_51_51.186,3.859,51.2,0,0.775,0,0,0,0, ,0,0,0,0,0, ,-40.5,183.3,985.2,-0.6,-0.5,-1.8,25,-40.3389,182.768,983.312,-0.583199,-0.463734,-1.80632,
2026_07_06_15_51_51.220,3.859,51.2,0,0.775,0,0,0,0, ,0,0,0,0,0, ,-39.6,182.8,983.7,-0.6,-0.4,-1.8,25,-40.3213,182.786,983.381,-0.584223,-0.462898,-1.80594,
2026_07_06_15_51_51.228,3.859,51.2,0,0.774,0,0,0,0, ,0,0,0,0,0, ,-40.4,182.4,982.5,-0.7,-0.4,-1.8,25,-40.3017,182.774,983.364,-0.588231,-0.459065,-1.80558,
2026_07_06_15_51_51.259,3.859,51.2,0,0.774,0,0,0,0, ,0,0,0,0,0, ,-40.6,182.9,984.2,-0.7,-0.5,-1.7,25,-40.3138,182.767,983.363,-0.595042,-0.458512,-1.80219,
2026_07_06_15_51_51.266,3.859,51.2,0,0.775,0,0,0,0, ,0,0,0,0,0, ,-40.6,183.2,983,-0.7,-0.5,-1.8,25,-40.3313,182.784,983.378,-0.601438,-0.46104,-1.79901,
2026_07_06_15_51_51.298,3.859,51.3,0,0.774,0,0,0,0, ,0,0,0,0,0, ,-40.8,182.8,984.1,-0.5,-0.5,-1.8,25,-40.3537,182.797,983.388,-0.60135,-0.463415,-1.79907,
2026_07_06_15_51_51.311,3.859,51.2,0,0.774,0,0,0,0, ,0,0,0,0,0, ,-40.4,183.4,982.1,-0.6,-0.4,-1.9,25,-40.3687,182.816,983.371,-0.598221,-0.462597,-1.80217,
2026_07_06_15_51_51.345,3.859,51.1,0,0.774,0,0,0,0, ,0,0,0,0,0, ,-40.5,183.2,983.1,-0.7,-0.5,-1.8,25,-40.3737,182.845,983.324,-0.601376,-0.461829,-1.80509,
2026_07_06_15_51_51.345,3.859,51.1,0,0.775,0,0,0,0, ,0,0,0,0,0, ,-39.9,182.7,983.1,-0.6,-0.5,-1.9,25,-40.3631,182.852,983.31,-0.604339,-0.464156,-1.80783,
2026_07_06_15_51_51.378,3.859,51.1,0,0.774,0,0,0,0, ,0,0,0,0,0, ,-40.4,182.3,982.7,-0.6,-0.4,-1.8,25,-40.3501,182.83,983.285,-0.604075,-0.463293,-1.8104,
2026_07_06_15_51_51.385,3.859,51.1,0,0.774,0,0,0,0, ,0,0,0,0,0, ,-40.6,180.5,983.5,-0.5,-0.4,-1.8,25,-40.3593,182.743,983.274,-0.60078,-0.459436,-1.80976,
2026_07_06_15_51_51.418,3.859,51.1,0,0.774,0,0,0,0, ,0,0,0,0,0, ,-40.6,181.5,982.1,-0.6,-0.4,-1.9,25,-40.3739,182.637,983.245,-0.597685,-0.455814,-1.81221,
2026_07_06_15_51_51.426,3.859,51.1,0,0.774,0,0,0,0, ,0,0,0,0,0, ,-42.1,182.1,983.2,-0.5,-0.5,-1.9,25,-40.4334,182.586,983.209,-0.59478,-0.45546,-1.81756,
2026_07_06_15_51_51.460,3.859,51.1,0,0.775,0,0,0,0, ,0,0,0,0,0, ,-41.2,183.1,981.8,-0.5,-0.5,-1.8,25,-40.5075,182.587,983.165,-0.589004,-0.458174,-1.81954,
2026_07_06_15_51_51.467,3.859,51.2,0,0.774,0,0,0,0, ,0,0,0,0,0, ,-40.2,182.3,982.9,-0.6,-0.5,-1.8,25,-40.5193,182.594,983.116,-0.586627,-0.460723,-1.81835,
2026_07_06_15_51_51.500,3.859,51.1,0,0.773,0,0,0,0, ,0,0,0,0,0, ,-40.1,182.9,982.4,-0.6,-0.5,-1.8,25,-40.4968,182.594,983.087,-0.587442,-0.463116,-1.81723,
2026_07_06_15_51_51.507,3.859,51.1,0,0.774,0,0,0,0, ,0,0,0,0,0, ,-41,182.1,984.3,-0.7,-0.4,-1.8,25,-40.5,182.588,983.103,-0.591254,-0.462317,-1.81618,
2026_07_06_15_51_51.539,3.859,51.1,0,0.775,0,0,0,0, ,0,0,0,0,0, ,-40.4,182,983.2,-0.7,-0.5,-1.8,25,-40.5122,182.555,983.143,-0.597881,-0.461566,-1.81519,
2026_07_06_15_51_51.546,3.859,51.1,0,0.773,0,0,0,0, ,0,0,0,0,0, ,-40.8,183.5,984.1,-0.6,-0.5,-1.8,25,-40.5175,182.567,983.174,-0.601057,-0.463908,-1.81427,
2026_07_06_15_51_51.579,3.859,51.1,0,0.774,0,0,0,0, ,0,0,0,0,0, ,-40.6,183.2,981.9,-0.6,-0.5,-1.8,25,-40.5287,182.615,983.163,-0.600992,-0.466108,-1.8134,
2026_07_06_15_51_51.587,3.859,51.1,0,0.775,0,0,0,0, ,0,0,0,0,0, ,-41,183.1,984.6,-0.6,-0.5,-1.8,25,-40.5452,182.648,983.168,-0.600932,-0.468173,-1.81258,
2026_07_06_15_51_51.621,3.859,51,0,0.774,0,0,0,0, ,0,0,0,0,0, ,-41.1,182.4,984,-0.6,-0.4,-2,25,-40.576,182.654,983.237,-0.600875,-0.467066,-1.81791,
2026_07_06_15_51_51.622,3.859,51.1,0,0.774,0,0,0,0, ,0,0,0,0,0, ,-40.6,182.1,982.4,-0.5,-0.5,-1.7,25,-40.5927,182.629,983.235,-0.597775,-0.466026,-1.81987,
2026_07_06_15_51_51.657,3.859,51,0,0.773,0,0,0,0, ,0,0,0,0,0, ,-40.4,182.3,984.3,-0.5,-0.5,-1.8,25,-40.587,182.603,983.242,-0.591817,-0.468096,-1.81561,
2026_07_06_15_51_51.666,3.859,51,0,0.775,0,0,0,0, ,0,0,0,0,0, ,-39.5,183.4,983.8,-0.6,-0.5,-1.8,25,-40.5482,182.618,983.291,-0.589269,-0.47004,-1.81466,
2026_07_06_15_51_51.699,3.859,51,0,0.775,0,0,0,0, ,0,0,0,0,0, ,-39.6,183.5,984.8,-0.6,-0.5,-1.8,25,-40.4874,182.669,983.353,-0.589923,-0.471866,-1.81376,
2026_07_06_15_51_51.699,3.859,51,0,0.775,0,0,0,0, ,0,0,0,0,0, ,-40.4,182.8,983.8,-0.7,-0.4,-1.8,25,-40.4577,182.698,983.411,-0.593584,-0.470533,-1.81292,
2026_07_06_15_51_51.731,3.859,51,0,0.774,0,0,0,0, ,0,0,0,0,0, ,-40.2,183.4,983,-0.7,-0.5,-1.8,25,-40.4481,182.723,983.41,-0.600068,-0.469282,-1.81214,
2026_07_06_15_51_51.739,3.859,51,0,0.774,0,0,0,0, ,0,0,0,0,0, ,-41,183.2,983.2,-0.5,-0.4,-1.8,25,-40.4573,182.758,983.391,-0.600064,-0.468107,-1.8114,
2026_07_06_15_51_51.772,3.859,51,0,0.774,0,0,0,0, ,0,0,0,0,0, ,-39.3,182.2,981.4,-0.5,-0.5,-1.8,25,-40.4386,182.754,983.324,-0.593966,-0.467004,-1.8107,
2026_07_06_15_51_51.780,3.859,51,0,0.773,0,0,0,0, ,0,0,0,0,0, ,-40.4,182.2,983.6,-0.5,-0.5,-1.8,25,-40.4027,182.72,983.274,-0.58824,-0.469014,-1.81005,
2026_07_06_15_51_51.812,3.859,51,0,0.774,0,0,0,0, ,0,0,0,0,0, ,-40.2,182.9,984,-0.5,-0.4,-1.8,25,-40.3965,182.71,983.306,-0.582863,-0.467856,-1.80944,
2026_07_06_15_51_51.818,3.859,51,0,0.773,0,0,0,0, ,0,0,0,0,0, ,-40.2,182.1,983.5,-0.6,-0.5,-1.8,25,-40.3845,182.697,983.333,-0.580861,-0.466768,-1.80886,
2026_07_06_15_51_51.852,3.859,51,0,0.773,0,0,0,0, ,0,0,0,0,0, ,-42.1,182.9,983.1,-0.7,-0.4,-1.8,25,-40.4311,182.685,983.331,-0.585074,-0.465746,-1.80832,
2026_07_06_15_51_51.860,3.859,51,0,0.774,0,0,0,0, ,0,0,0,0,0, ,-39.5,182.8,984.7,-0.6,-0.5,-1.8,25,-40.4536,182.695,983.366,-0.58903,-0.464786,-1.80782,
2026_07_06_15_51_51.896,3.859,51,0,0.774,0,0,0,0, ,0,0,0,0,0, ,-39.3,182.7,983.6,-0.5,-0.5,-1.8,25,-40.3894,182.699,983.414,-0.586652,-0.466932,-1.80734,
2026_07_06_15_51_51.897,3.859,50.9,0,0.774,0,0,0,0, ,0,0,0,0,0, ,-40.6,183.9,983.5,-0.6,-0.4,-1.7,25,-40.3626,182.735,983.422,-0.584418,-0.4659,-1.80385,
2026_07_06_15_51_51.931,3.859,50.9,0,0.775,0,0,0,0, ,0,0,0,0,0, ,-40.1,183.9,981,-0.6,-0.5,-1.8,25,-40.3619,182.806,983.351,-0.585368,-0.464931,-1.80056,
2026_07_06_15_51_51.938,3.859,50.9,0,0.774,0,0,0,0, ,0,0,0,0,0, ,-40.1,183.4,983,-0.5,-0.4,-1.8,25,-40.3459,182.858,983.268,-0.583213,-0.464022,-1.80053,
2026_07_06_15_51_51.974,3.859,50.9,0,0.773,0,0,0,0, ,0,0,0,0,0, ,-40.5,181.7,982.4,-0.6,-0.5,-1.9,25,-40.3431,182.839,983.234,-0.581189,-0.463167,-1.80354,
2026_07_06_15_51_51.980,3.859,50.9,0,0.775,0,0,0,0, ,0,0,0,0,0, ,-39,181.8,984.3,-0.5,-0.4,-1.7,25,-40.307,182.773,983.241,-0.579288,-0.462365,-1.80333,
2026_07_06_15_51_52.012,3.859,50.8,0,0.774,0,0,0,0, ,0,0,0,0,0, ,-39.1,182.4,985.1,-0.6,-0.5,-1.8,25,-40.2304,182.732,983.33,-0.577503,-0.461611,-1.80008,
2026_07_06_15_51_52.019,3.859,50.8,0,0.774,0,0,0,0, ,0,0,0,0,0, ,-41.1,182.7,983.1,-0.7,-0.4,-1.8,25,-40.2224,182.721,983.377,-0.581921,-0.460904,-1.80007,
2026_07_06_15_51_52.052,3.859,50.9,0,0.773,0,0,0,0, ,0,0,0,0,0, ,-40.5,182.4,982.7,-0.7,-0.4,-1.9,25,-40.2576,182.71,983.348,-0.589117,-0.457192,-1.80312,
2026_07_06_15_51_52.059,3.859,50.9,0,0.776,0,0,0,0, ,0,0,0,0,0, ,-41,183.1,984.9,-0.5,-0.4,-1.8,25,-40.2876,182.713,983.375,-0.58978,-0.453707,-1.80597,
2026_07_06_15_51_52.092,3.859,50.9,0,0.772,0,0,0,0, ,0,0,0,0,0, ,-41.6,183.1,983.6,-0.6,-0.4,-1.9,25,-40.3493,182.736,983.428,-0.587356,-0.450434,-1.80866,
2026_07_06_15_51_52.099,3.859,50.9,0,0.773,0,0,0,0, ,0,0,0,0,0, ,-39.5,182,983.1,-0.8,-0.4,-1.8,25,-40.3615,182.725,983.424,-0.59422,-0.447361,-1.81118,
2026_07_06_15_51_52.132,3.859,50.8,0,0.773,0,0,0,0, ,0,0,0,0,0, ,-40.7,182.2,983.3,-0.7,-0.5,-1.8,25,-40.3456,182.687,983.41,-0.603713,-0.447522,-1.81049,
2026_07_06_15_51_52.140,3.859,50.9,0,0.773,0,0,0,0, ,0,0,0,0,0, ,-40.7,183.2,982.9,-0.6,-0.5,-1.8,25,-40.3672,182.688,983.391,-0.606533,-0.45072,-1.80986,
2026_07_06_15_51_52.174,3.859,50.8,0,0.772,0,0,0,0, ,0,0,0,0,0, ,-39.6,184.3,983.8,-0.7,-0.5,-1.8,25,-40.354,182.752,983.389,-0.609182,-0.453723,-1.80925,
2026_07_06_15_51_52.174,3.859,50.8,0,0.774,0,0,0,0, ,0,0,0,0,0, ,-40.2,185.3,983,-0.6,-0.5,-1.8,25,-40.3263,182.877,983.389,-0.61167,-0.456543,-1.80869,
2026_07_06_15_51_52.207,3.859,50.8,0,0.773,0,0,0,0, ,0,0,0,0,0, ,-40.2,183.7,983.7,-0.6,-0.4,-1.8,25,-40.3186,182.976,983.387,-0.610958,-0.456144,-1.80816,
2026_07_06_15_51_52.214,3.859,50.7,0,0.774,0,0,0,0, ,0,0,0,0,0, ,-40.6,181.8,983.7,-0.6,-0.5,-1.8,25,-40.3236,182.962,983.406,-0.610291,-0.45577,-1.80766,
2026_07_06_15_51_52.246,3.859,50.7,0,0.772,0,0,0,0, ,0,0,0,0,0, ,-39.7,181.1,982.9,-0.6,-0.5,-1.7,25,-40.313,182.87,983.4,-0.609664,-0.458465,-1.80415,
2026_07_06_15_51_52.253,3.859,50.8,0,0.774,0,0,0,0, ,0,0,0,0,0, ,-40.5,183.5,984,-0.5,-0.4,-1.8,25,-40.3,182.835,983.403,-0.606028,-0.457949,-1.80085,
2026_07_06_15_51_52.286,3.859,50.8,0,0.774,0,0,0,0, ,0,0,0,0,0, ,-39.9,182.4,983.1,-0.6,-0.5,-1.8,25,-40.2939,182.842,983.412,-0.602614,-0.457465,-1.8008,
2026_07_06_15_51_52.294,3.859,50.7,0,0.774,0,0,0,0, ,0,0,0,0,0, ,-39.4,183.3,983.1,-0.7,-0.4,-1.8,25,-40.2547,182.843,983.393,-0.605501,-0.45701,-1.80075,
2026_07_06_15_51_52.329,3.859,50.7,0,0.774,0,0,0,0, ,0,0,0,0,0, ,-41.1,183.3,983.5,-0.7,-0.5,-1.8,25,-40.2544,182.871,983.387,-0.61126,-0.456583,-1.8007,
2026_07_06_15_51_52.335,3.859,50.8,0,0.773,0,0,0,0, ,0,0,0,0,0, ,-40.8,183.1,981.3,-0.6,-0.5,-1.8,25,-40.2968,182.891,983.327,-0.61362,-0.459228,-1.80066,
2026_07_06_15_51_52.375,3.859,50.7,0,0.774,0,0,0,0, ,0,0,0,0,0, ,-40.5,182.2,982.9,-0.5,-0.5,-1.8,25,-40.3183,182.876,983.252,-0.609744,-0.461713,-1.80062,
2026_07_06_15_51_52.375,3.859,50.7,0,0.774,0,0,0,0, ,0,0,0,0,0, ,-39,183.1,983.3,-0.6,-0.4,-1.8,25,-40.2837,182.862,983.243,-0.606103,-0.460999,-1.80058,
2026_07_06_15_51_52.416,3.859,50.8,0,0.774,0,0,0,0, ,0,0,0,0,0, ,-41.3,182.1,984,-0.7,-0.5,-1.8,25,-40.2755,182.846,983.268,-0.608778,-0.460329,-1.80055,
2026_07_06_15_51_52.417,3.859,50.7,0,0.775,0,0,0,0, ,0,0,0,0,0, ,-39.6,182.8,982.4,-0.6,-0.5,-1.8,25,-40.2862,182.822,983.264,-0.61129,-0.462746,-1.80051,
2026_07_06_15_51_52.457,3.859,50.7,0,0.773,0,0,0,0, ,0,0,0,0,0, ,-39.5,181.3,983.3,-0.6,-0.4,-1.8,25,-40.2413,182.775,983.238,-0.610602,-0.46197,-1.80048,
2026_07_06_15_51_52.458,3.859,50.7,0,0.773,0,0,0,0, ,0,0,0,0,0, ,-40.7,183.5,984.3,-0.6,-0.5,-1.9,25,-40.2327,182.752,983.273,-0.609956,-0.46124,-1.8035,
2026_07_06_15_51_52.509,3.859,50.7,0,0.773,0,0,0,0, ,0,0,0,0,0, ,-40.5,183.8,984.2,-0.6,-0.4,-1.8,25,-40.2551,182.807,983.332,-0.609349,-0.460555,-1.80633,
2026_07_06_15_51_52.510,3.859,50.7,0,0.773,0,0,0,0, ,0,0,0,0,0, ,-41.3,184.4,985.4,-0.6,-0.4,-1.8,25,-40.2944,182.886,983.422,-0.608779,-0.456865,-1.80595,
2026_07_06_15_51_52.510,3.859,50.7,0,0.774,0,0,0,0, ,0,0,0,0,0, ,-40.5,182.7,982.6,-0.6,-0.5,-1.8,25,-40.3313,182.926,983.457,-0.608244,-0.456447,-1.80559,
2026_07_06_15_51_52.543,3.859,50.7,0,0.775,0,0,0,0, ,0,0,0,0,0, ,-40.6,182,983.8,-0.6,-0.5,-1.8,25,-40.3446,182.891,983.441,-0.607742,-0.459101,-1.80524,
2026_07_06_15_51_52.576,3.859,50.7,0,0.774,0,0,0,0, ,0,0,0,0,0, ,-40.8,181.5,982.5,-0.5,-0.5,-1.8,25,-40.3663,182.822,983.423,-0.604223,-0.461593,-1.80493,
2026_07_06_15_51_52.576,3.859,50.7,0,0.774,0,0,0,0, ,0,0,0,0,0, ,-41,183.4,983.7,-0.6,-0.5,-1.8,25,-40.3988,182.799,983.404,-0.600919,-0.463934,-1.80463,
2026_07_06_15_51_52.609,3.859,50.6,0,0.774,0,0,0,0, ,0,0,0,0,0, ,-39.9,182.9,983.5,-0.6,-0.5,-1.8,25,-40.4019,182.82,983.416,-0.600863,-0.466131,-1.80434,
2026_07_06_15_51_52.609,3.859,50.7,0,0.774,0,0,0,0, ,0,0,0,0,0, ,-41,182.2,985.5,-0.7,-0.4,-1.8,25,-40.4048,182.804,983.482,-0.603857,-0.465148,-1.80408,
2026_07_06_15_51_52.643,3.859,50.4,0,0.774,0,0,0,0, ,0,0,0,0,0, ,-40.7,183.1,982.9,-0.7,-0.4,-1.8,25,-40.432,182.794,983.526,-0.609716,-0.461178,-1.80383,
2026_07_06_15_51_52.650,3.859,50.6,0,0.775,0,0,0,0, ,0,0,0,0,0, ,-41.1,182.2,984.3,-0.6,-0.5,-1.8,25,-40.4605,182.786,983.53,-0.612171,-0.460497,-1.8036,
2026_07_06_15_51_52.683,3.859,50.7,0,0.775,0,0,0,0, ,0,0,0,0,0, ,-40.6,183.9,982,-0.5,-0.5,-1.8,25,-40.4842,182.802,983.507,-0.608382,-0.462904,-1.80338,
2026_07_06_15_51_52.690,3.859,50.6,0,0.773,0,0,0,0, ,0,0,0,0,0, ,-40.2,183.8,984.1,-0.5,-0.5,-1.8,25,-40.4791,182.866,983.479,-0.601778,-0.465165,-1.80317,
2026_07_06_15_51_52.725,3.859,50.6,0,0.773,0,0,0,0, ,0,0,0,0,0, ,-40.8,183.4,983.7,-0.6,-0.5,-1.8,25,-40.4804,182.91,983.505,-0.598623,-0.467288,-1.80298,
2026_07_06_15_51_52.732,3.859,50.7,0,0.774,0,0,0,0, ,0,0,0,0,0, ,-41,182.1,983.3,-0.6,-0.4,-1.8,25,-40.5059,182.901,983.504,-0.598707,-0.466234,-1.8028,
2026_07_06_15_51_52.767,3.859,50.6,0,0.774,0,0,0,0, ,0,0,0,0,0, ,-39.4,184.3,983.1,-0.6,-0.4,-1.8,25,-40.4873,182.919,983.486,-0.598785,-0.462198,-1.80263,
2026_07_06_15_51_52.767,3.859,50.6,0,0.772,0,0,0,0, ,0,0,0,0,0, ,-41.1,183.3,984,-0.5,-0.4,-1.8,25,-40.4728,182.973,983.49,-0.595813,-0.458408,-1.80247,
2026_07_06_15_51_52.800,3.859,50.6,0,0.773,0,0,0,0, ,0,0,0,0,0, ,-40.1,182.9,983.2,-0.6,-0.5,-1.8,25,-40.4806,182.98,983.496,-0.593021,-0.457896,-1.80232,
2026_07_06_15_51_52.807,3.859,50.4,0,0.774,0,0,0,0, ,0,0,0,0,0, ,-39.9,182.9,982.4,-0.6,-0.5,-1.8,25,-40.4513,182.975,983.454,-0.593446,-0.460461,-1.80218,
2026_07_06_15_51_52.847,3.859,50.6,0,0.772,0,0,0,0, ,0,0,0,0,0, ,-40.8,182.1,984.2,-0.5,-0.4,-1.8,25,-40.4451,182.946,983.445,-0.590799,-0.459824,-1.80204,
2026_07_06_15_51_52.847,3.859,50.6,0,0.775,0,0,0,0, ,0,0,0,0,0, ,-40,182,984.2,-0.6,-0.5,-1.8,25,-40.4424,182.892,983.491,-0.588312,-0.459225,-1.80192,
2026_07_06_15_51_52.880,3.859,50.4,0,0.774,0,0,0,0, ,0,0,0,0,0, ,-39.9,183.2,984.1,-0.7,-0.4,-1.9,25,-40.4124,182.874,983.531,-0.592072,-0.458663,-1.80485,
2026_07_06_15_51_52.887,3.859,50.4,0,0.773,0,0,0,0, ,0,0,0,0,0, ,-39.4,183.4,982.9,-0.7,-0.3,-1.8,25,-40.3659,182.9,983.529,-0.598648,-0.452041,-1.8076,
2026_07_06_15_51_52.921,3.859,50.6,0,0.774,0,0,0,0, ,0,0,0,0,0, ,-39.6,184.3,983.5,-0.8,-0.4,-1.8,25,-40.3131,182.958,983.509,-0.607871,-0.445823,-1.80714,
2026_07_06_15_51_52.928,3.859,50.4,0,0.774,0,0,0,0, ,0,0,0,0,0, ,-39.7,181.2,981.8,-0.6,-0.4,-1.8,25,-40.2727,182.945,983.457,-0.613486,-0.443031,-1.8067,
2026_07_06_15_51_52.969,3.859,50.4,0,0.773,0,0,0,0, ,0,0,0,0,0, ,-40.5,183.5,983.6,-0.5,-0.5,-1.7,25,-40.2622,182.909,983.41,-0.609617,-0.443456,-1.80325,
2026_07_06_15_51_52.969,3.859,50.6,0,0.773,0,0,0,0, ,0,0,0,0,0, ,-39.7,183.1,982.9,-0.5,-0.5,-1.8,25,-40.2523,182.933,983.401,-0.602937,-0.446901,-1.8,
2026_07_06_15_51_53.004,3.859,50.4,0,0.773,0,0,0,0, ,0,0,0,0,0, ,-40.7,182.3,983.6,-0.6,-0.4,-1.8,25,-40.2491,182.919,983.392,-0.599711,-0.44709,-1.8,
2026_07_06_15_51_53.004,3.859,50.7,0,0.772,0,0,0,0, ,0,0,0,0,0, ,-40.5,182.3,983.3,-0.7,-0.4,-1.8,25,-40.2705,182.881,983.395,-0.602776,-0.44422,-1.8,
2026_07_06_15_51_53.038,3.859,50.4,0,0.774,0,0,0,0, ,0,0,0,0,0, ,-39.5,182.3,981.9,-0.6,-0.5,-1.8,25,-40.254,182.846,983.347,-0.605653,-0.444573,-1.8,
2026_07_06_15_51_53.045,3.859,50.3,0,0.774,0,0,0,0, ,0,0,0,0,0, ,-40.1,181.7,981.4,-0.6,-0.5,-1.8,25,-40.2264,182.794,983.243,-0.605309,-0.44795,-1.8,
2026_07_06_15_51_53.079,3.859,50.3,0,0.774,0,0,0,0, ,0,0,0,0,0, ,-40,183.2,984.6,-0.6,-0.4,-1.9,25,-40.2156,182.773,983.228,-0.604985,-0.448075,-1.80305,
2026_07_06_15_51_53.086,3.859,50.3,0,0.773,0,0,0,0, ,0,0,0,0,0, ,-40.2,183.1,982.6,-0.5,-0.5,-1.9,25,-40.2086,182.796,983.251,-0.601635,-0.448192,-1.80896,
2026_07_06_15_51_53.120,3.859,50.4,0,0.774,0,0,0,0, ,0,0,0,0,0, ,-41.2,183.1,982.7,-0.7,-0.4,-1.8,25,-40.2385,182.815,983.214,-0.601535,-0.448303,-1.81146,
2026_07_06_15_51_53.127,3.859,50.4,0,0.774,0,0,0,0, ,0,0,0,0,0, ,-41.1,182.9,983,-0.6,-0.5,-1.8,25,-40.2941,182.826,983.192,-0.604488,-0.448406,-1.81076,
2026_07_06_15_51_53.161,3.859,50.4,0,0.773,0,0,0,0, ,0,0,0,0,0, ,-41,181.6,983.5,-0.5,-0.5,-1.7,25,-40.3401,182.791,983.196,-0.601168,-0.45155,-1.80706,
2026_07_06_15_51_53.168,3.859,50.2,0,0.773,0,0,0,0, ,0,0,0,0,0, ,-39.5,182.3,984.7,-0.6,-0.4,-1.8,25,-40.3346,182.74,983.251,-0.59805,-0.451456,-1.80358,
2026_07_06_15_51_53.203,3.859,50.4,0,0.773,0,0,0,0, ,0,0,0,0,0, ,-39.6,182,983.8,-0.6,-0.5,-1.8,25,-40.2868,182.704,983.312,-0.598169,-0.451367,-1.80336,
2026_07_06_15_51_53.203,3.859,50.4,0,0.774,0,0,0,0, ,0,0,0,0,0, ,-40.1,182.4,983.7,-0.7,-0.4,-1.8,25,-40.2602,182.673,983.338,-0.601327,-0.451284,-1.80316,
2026_07_06_15_51_53.242,3.859,50.3,0,0.774,0,0,0,0, ,0,0,0,0,0, ,-41.1,182.7,983.7,-0.7,-0.5,-1.9,25,-40.2809,182.665,983.36,-0.60734,-0.451205,-1.80601,
2026_07_06_15_51_53.242,3.859,50.3,0,0.774,0,0,0,0, ,0,0,0,0,0, ,-39.1,182.3,980.7,-0.6,-0.5,-1.8,25,-40.2699,182.655,983.29,-0.60994,-0.454179,-1.80869,
2026_07_06_15_51_53.277,3.859,50.3,0,0.773,0,0,0,0, ,0,0,0,0,0, ,-39.4,183.2,984.3,-0.6,-0.4,-1.8,25,-40.2077,182.661,983.242,-0.609334,-0.453924,-1.80816,
2026_07_06_15_51_53.285,3.859,50.3,0,0.773,0,0,0,0, ,0,0,0,0,0, ,-41.5,183.9,982.9,-0.6,-0.4,-1.7,25,-40.2225,182.715,983.263,-0.608765,-0.450638,-1.80462,
2026_07_06_15_51_53.322,3.859,50.3,0,0.774,0,0,0,0, ,0,0,0,0,0, ,-41.3,183.8,984,-0.6,-0.5,-1.8,25,-40.2943,182.784,983.275,-0.608231,-0.450599,-1.80129,
2026_07_06_15_51_53.322,3.859,50.2,0,0.774,0,0,0,0, ,0,0,0,0,0, ,-40.6,183.1,981,-0.7,-0.5,-1.8,25,-40.3342,182.825,983.228,-0.610776,-0.45361,-1.80121,
2026_07_06_15_51_53.356,3.859,50.3,0,0.773,0,0,0,0, ,0,0,0,0,0, ,-40.2,183.2,983.7,-0.6,-0.4,-1.8,25,-40.3382,182.845,983.174,-0.613167,-0.45339,-1.80114,
2026_07_06_15_51_53.363,3.859,50.2,0,0.773,0,0,0,0, ,0,0,0,0,0, ,-40.7,182,984.2,-0.6,-0.5,-1.8,25,-40.345,182.83,983.221,-0.612364,-0.453183,-1.80107,
