UTC_Time,Vin,TC1,TC2,Rh1,Vh1,Ah1,Acp1,Dty1,Err1,Rh2,Vh2,Ah2,Acp2,Dty2,Err2,Accel_x,Accel_y,Accel_z,gyro_x,gyro_y,gyro_z,Temp_c,Accel_x_h,Accel_y_h,Accel_z_h,gyro_x_h,gyro_y_h,gyro_z_h,
2026_06_10_20_10_58.908,3.862,26.4,0,0.756,3.795,5.019,18.09,0.95, ,0,0,0,0,0, ,-37.2,131.5,995.8,-0.7,-0.4,-1.7,25,-37.1999,131.5,995.797,-0.699998,-0.399999,-1.69999,
2026_06_10_20_10_58.928,3.85,26.4,0,0.758,3.869,5.104,18.76,0.95, ,0,0,0,0,0, ,-38.8,131.2,995.6,-0.7,-0.4,-1.7,25,-37.2486,131.49,995.791,-0.699998,-0.399999,-1.69999,
2026_06_10_20_10_58.948,3.85,26.4,0,0.76,0,0,0,0.029, ,0,0,0,0,0, ,-36.9,130.6,994.7,-0.7,-0.4,-1.7,25,-37.2853,131.454,995.752,-0.699998,-0.399999,-1.7,
2026_06_10_20_10_58.970,3.85,26.7,0,0.759,0,0,0,0.029, ,0,0,0,0,0, ,-39,130.6,994.5,-0.8,-0.4,-1.7,25,-37.3258,131.402,995.682,-0.703045,-0.399999,-1.7,
2026_06_10_20_10_58.989,3.85,26.8,0,0.758,0,0,0,0.027, ,0,0,0,0,0, ,-38.2,131.3,995.1,-0.8,-0.4,-1.7,25,-37.4034,131.375,995.628,-0.708953,-0.399999,-1.7,
2026_06_10_20_10_59.008,3.85,26.9,0,0.758,0,0,0,0.026, ,0,0,0,0,0, ,-38.3,129.8,994.3,-0.9,-0.4,-1.7,25,-37.455,131.325,995.571,-0.717548,-0.399999,-1.7,
2026_06_10_20_10_59.027,3.85,27,0,0.758,0,0,0,0.026, ,0,0,0,0,0, ,-37.5,130,995.2,-0.8,-0.4,-1.7,25,-37.4821,131.238,995.521,-0.725619,-0.399999,-1.7,
2026_06_10_20_10_59.049,3.85,27,0,0.758,0,0,0,0.025, ,0,0,0,0,0, ,-37.7,130,994.2,-0.9,-0.4,-1.7,25,-37.4893,131.162,995.471,-0.733199,-0.399999,-1.7,
2026_06_10_20_10_59.067,3.85,27,0,0.758,0,0,0,0.026, ,0,0,0,0,0, ,-38.5,131.4,994.6,-0.8,-0.4,-1.7,25,-37.5265,131.134,995.406,-0.740316,-0.399999,-1.7,
2026_06_10_20_10_59.087,3.85,27,0,0.758,0,0,0,0.026, ,0,0,0,0,0, ,-39.1,129.2,993.5,-0.7,-0.4,-1.8,25,-37.6041,131.083,995.323,-0.740907,-0.399999,-1.70304,
2026_06_10_20_10_59.113,3.85,27,0,0.758,0,0,0,0.026, ,0,0,0,0,0, ,-38.4,130.4,994.8,-0.8,-0.4,-1.7,25,-37.674,131.005,995.252,-0.741461,-0.399999,-1.70591,
2026_06_10_20_10_59.126,3.85,27.1,0,0.758,0,0,0,0.027, ,0,0,0,0,0, ,-38.4,129.3,994.7,-0.6,-0.4,-1.7,25,-37.7182,130.935,995.221,-0.738934,-0.399999,-1.70555,
2026_06_10_20_10_59.145,3.85,27.2,0,0.759,0,0,0,0.026, ,0,0,0,0,0, ,-37.8,131.2,994.6,-0.8,-0.4,-1.7,25,-37.7415,130.893,995.186,-0.736562,-0.399999,-1.70521,
2026_06_10_20_10_59.166,3.85,27.3,0,0.758,0,0,0,0.026, ,0,0,0,0,0, ,-37.4,130.6,994.3,-0.7,-0.4,-1.6,25,-37.7328,130.893,995.142,-0.737381,-0.399999,-1.70184,
2026_06_10_20_10_59.186,3.85,27.2,0,0.758,0,0,0,0.025, ,0,0,0,0,0, ,-38.6,130.3,994.3,-0.8,-0.4,-1.7,25,-37.7491,130.866,995.09,-0.73815,-0.399999,-1.69868,
2026_06_10_20_10_59.205,3.85,27.3,0,0.759,0,0,0,0.026, ,0,0,0,0,0, ,-38.2,130.9,994.1,-0.8,-0.5,-1.7,25,-37.7888,130.85,995.036,-0.741919,-0.403046,-1.69876,
2026_06_10_20_10_59.225,3.85,27.3,0,0.758,0,0,0,0.026, ,0,0,0,0,0, ,-38.3,130.7,995.9,-0.8,-0.4,-1.7,25,-37.8169,130.847,995.034,-0.745458,-0.405908,-1.69884,
2026_06_10_20_10_59.247,3.85,27.5,0,0.757,0,0,0,0.026, ,0,0,0,0,0, ,-38.3,131.3,994.3,-0.9,-0.3,-1.8,25,-37.8463,130.856,995.038,-0.751828,-0.402501,-1.70196,
2026_06_10_20_10_59.264,3.85,27.5,0,0.759,0,0,0,0.025, ,0,0,0,0,0, ,-38.8,130.7,994.7,-0.8,-0.4,-1.7,25,-37.8892,130.865,995.005,-0.757811,-0.399301,-1.70488,
2026_06_10_20_10_59.284,3.85,27.5,0,0.758,0,0,0,0.025, ,0,0,0,0,0, ,-39,132,994.5,-0.7,-0.4,-1.7,25,-37.9508,130.895,994.98,-0.757335,-0.399344,-1.70459,
2026_06_10_20_10_59.304,3.85,27.5,0,0.758,0,0,0,0.025, ,0,0,0,0,0, ,-38.3,129.8,993.4,-0.6,-0.4,-1.7,25,-37.9934,130.895,994.918,-0.750794,-0.399384,-1.70431,
2026_06_10_20_10_59.323,3.85,27.6,0,0.756,0,0,0,0.025, ,0,0,0,0,0, ,-37.9,129.8,993,-0.7,-0.4,-1.7,25,-37.9999,130.828,994.813,-0.744652,-0.399422,-1.70405,
2026_06_10_20_10_59.344,3.85,27.6,0,0.757,0,0,0,0.025, ,0,0,0,0,0, ,-38.6,130.8,994.3,-0.9,-0.5,-1.7,25,-38.0152,130.796,994.742,-0.748025,-0.402504,-1.7038,
2026_06_10_20_10_59.363,3.85,27.6,0,0.758,0,0,0,0.025, ,0,0,0,0,0, ,-38.2,130.8,995.4,-0.8,-0.4,-1.6,25,-38.0386,130.796,994.749,-0.754239,-0.405398,-1.70052,
2026_06_10_20_10_59.383,3.85,27.7,0,0.758,0,0,0,0.025, ,0,0,0,0,0, ,-39.1,128,995.3,-0.8,-0.4,-1.7,25,-38.0759,130.711,994.785,-0.757027,-0.405069,-1.69744,
2026_06_10_20_10_59.403,3.85,27.7,0,0.758,0,0,0,0.025, ,0,0,0,0,0, ,-38.4,130.7,993.7,-0.6,-0.4,-1.7,25,-38.1169,130.628,994.768,-0.753552,-0.40476,-1.6976,
2026_06_10_20_10_59.423,3.85,27.7,0,0.757,0,0,0,0.025, ,0,0,0,0,0, ,-37.3,129.1,995.4,-0.7,-0.3,-1.7,25,-38.1007,130.584,994.755,-0.747242,-0.401423,-1.69774,
2026_06_10_20_10_59.443,3.85,27.7,0,0.757,0,0,0,0.025, ,0,0,0,0,0, ,-39.1,129.6,993.1,-0.8,-0.4,-1.8,25,-38.1067,130.509,994.724,-0.74741,-0.39829,-1.70093,
2026_06_10_20_10_59.463,3.85,27.7,0,0.758,0,0,0,0.025, ,0,0,0,0,0, ,-38.5,129.8,995.2,-0.7,-0.4,-1.7,25,-38.149,130.459,994.689,-0.747568,-0.398394,-1.70392,
2026_06_10_20_10_59.482,3.85,27.7,0,0.758,0,0,0,0.026, ,0,0,0,0,0, ,-37.7,129.6,994.2,-0.8,-0.4,-1.7,25,-38.146,130.413,994.69,-0.747716,-0.398492,-1.70368,
2026_06_10_20_10_59.502,3.85,27.8,0,0.759,0,0,0,0.026, ,0,0,0,0,0, ,-37.4,129.6,995.8,-0.7,-0.4,-1.7,25,-38.1097,130.364,994.708,-0.747855,-0.398584,-1.70346,
2026_06_10_20_10_59.522,3.85,27.9,0,0.758,0,0,0,0.025, ,0,0,0,0,0, ,-37.5,130.7,995.3,-0.9,-0.4,-1.7,25,-38.0695,130.351,994.76,-0.751033,-0.39867,-1.70324,
2026_06_10_20_10_59.542,3.85,27.8,0,0.757,0,0,0,0.025, ,0,0,0,0,0, ,-37.8,130.4,995.1,-0.8,-0.4,-1.7,25,-38.0439,130.363,994.787,-0.757064,-0.398751,-1.70305,
2026_06_10_20_10_59.561,3.85,27.8,0,0.758,0,0,0,0.026, ,0,0,0,0,0, ,-38.6,129.3,994.1,-0.9,-0.4,-1.8,25,-38.0534,130.332,994.775,-0.762727,-0.398827,-1.70591,
2026_06_10_20_10_59.581,3.85,27.8,0,0.759,0,0,0,0.026, ,0,0,0,0,0, ,-38.2,130.9,993.4,-0.8,-0.4,-1.7,25,-38.0745,130.317,994.713,-0.768045,-0.398899,-1.7086,
2026_06_10_20_10_59.601,3.85,28,0,0.759,0,0,0,0.026, ,0,0,0,0,0, ,-38.2,130.8,994.8,-0.7,-0.4,-1.7,25,-38.0822,130.35,994.675,-0.766946,-0.398966,-1.70807,
2026_06_10_20_10_59.620,3.85,27.9,0,0.758,0,0,0,0.025, ,0,0,0,0,0, ,-38.5,131.4,993.5,-0.7,-0.4,-1.7,25,-38.0985,130.396,994.643,-0.762866,-0.399029,-1.70758,
2026_06_10_20_10_59.641,3.85,27.9,0,0.759,0,0,0,0.026, ,0,0,0,0,0, ,-38,131.5,994,-0.7,-0.5,-1.7,25,-38.1077,130.46,994.589,-0.759035,-0.402135,-1.70712,
2026_06_10_20_10_59.660,3.85,27.9,0,0.757,0,0,0,0.026, ,0,0,0,0,0, ,-39,131.8,992.7,-0.8,-0.4,-1.8,25,-38.1316,130.532,994.513,-0.758485,-0.405052,-1.70973,
2026_06_10_20_10_59.680,3.85,28.1,0,0.759,0,0,0,0.026, ,0,0,0,0,0, ,-39.4,130.4,994.7,-0.7,-0.5,-1.7,25,-38.1967,130.567,994.464,-0.757968,-0.407791,-1.71218,
2026_06_10_20_10_59.700,3.85,27.9,0,0.758,0,0,0,0.025, ,0,0,0,0,0, ,-37.3,127.6,994.8,-0.7,-0.4,-1.7,25,-38.2061,130.471,994.481,-0.754435,-0.410363,-1.71144,
2026_06_10_20_10_59.719,3.85,28,0,0.757,0,0,0,0.027, ,0,0,0,0,0, ,-36.9,129.6,993.7,-0.7,-0.4,-1.6,25,-38.1387,130.357,994.467,-0.751118,-0.409731,-1.7077,
2026_06_10_20_10_59.740,3.85,28,0,0.757,0,0,0,0.026, ,0,0,0,0,0, ,-37.3,130.8,994.8,-0.8,-0.5,-1.7,25,-38.0754,130.348,994.454,-0.75105,-0.412185,-1.70418,
2026_06_10_20_10_59.759,3.85,28,0,0.758,0,0,0,0.026, ,0,0,0,0,0, ,-38.2,130.2,994.5,-0.7,-0.4,-1.6,25,-38.0556,130.357,994.466,-0.750986,-0.414489,-1.70088,
2026_06_10_20_10_59.781,3.85,28,0,0.759,0,0,0,0.026, ,0,0,0,0,0, ,-38.4,130.3,994.8,-0.7,-0.4,-1.6,25,-38.0705,130.351,994.477,-0.747879,-0.413607,-1.69473,
2026_06_10_20_10_59.799,3.85,28.1,0,0.757,0,0,0,0.027, ,0,0,0,0,0, ,-39.5,129.6,993.6,-0.8,-0.5,-1.7,25,-38.1241,130.326,994.46,-0.748008,-0.415824,-1.69201,
2026_06_10_20_10_59.818,3.85,28.1,0,0.757,0,0,0,0.026, ,0,0,0,0,0, ,-38.3,130.8,994.5,-0.7,-0.4,-1.7,25,-38.1713,130.318,994.435,-0.74813,-0.417907,-1.69249,
2026_06_10_20_10_59.839,3.85,28.1,0,0.758,0,0,0,0.026, ,0,0,0,0,0, ,-37.8,130.7,993,-0.7,-0.5,-1.7,25,-38.1639,130.345,994.393,-0.745197,-0.419863,-1.69295,
2026_06_10_20_10_59.858,3.85,28.2,0,0.759,0,0,0,0.026, ,0,0,0,0,0, ,-37.7,129.6,995.7,-0.8,-0.4,-1.7,25,-38.1387,130.333,994.391,-0.745489,-0.421699,-1.69338,
2026_06_10_20_10_59.878,3.85,28.1,0,0.759,0,0,0,0.026, ,0,0,0,0,0, ,-37.2,129.7,994.2,-0.6,-0.5,-1.7,25,-38.0967,130.291,994.425,-0.742717,-0.423424,-1.69378,
2026_06_10_20_10_59.898,3.85,28.2,0,0.757,0,0,0,0.027, ,0,0,0,0,0, ,-37.9,130.2,993.2,-0.8,-0.5,-1.7,25,-38.0634,130.27,994.381,-0.740114,-0.42809,-1.69416,
2026_06_10_20_10_59.918,3.85,28.1,0,0.758,0,0,0,0.026, ,0,0,0,0,0, ,-37.8,129.7,994.8,-0.7,-0.4,-1.6,25,-38.0504,130.251,994.358,-0.740717,-0.429425,-1.69147,
2026_06_10_20_10_59.937,3.85,28.2,0,0.759,0,0,0,0.027, ,0,0,0,0,0, ,-37.9,128.9,995.1,-0.7,-0.5,-1.7,25,-38.0382,130.193,994.394,-0.738236,-0.430679,-1.68894,
2026_06_10_20_10_59.957,3.85,28.3,0,0.758,0,0,0,0.026, ,0,0,0,0,0, ,-38.5,130.9,993.5,-0.8,-0.4,-1.7,25,-38.0481,130.175,994.388,-0.738952,-0.431856,-1.68962,
2026_06_10_20_10_59.977,3.85,28.2,0,0.758,0,0,0,0.026, ,0,0,0,0,0, ,-38.3,130.6,995.3,-0.8,-0.5,-1.7,25,-38.0695,130.21,994.389,-0.742673,-0.432962,-1.69025,
2026_06_10_20_10_59.997,3.85,28.3,0,0.758,0,0,0,0.027, ,0,0,0,0,0, ,-37.9,129.3,994,-0.8,-0.4,-1.7,25,-38.0714,130.194,994.405,-0.746166,-0.434,-1.69085,
2026_06_10_20_11_00.017,3.85,28.3,0,0.758,0,0,0,0.026, ,0,0,0,0,0, ,-39.3,130.6,992.9,-0.8,-0.4,-1.7,25,-38.1036,130.179,994.346,-0.749446,-0.431928,-1.6914,
2026_06_10_20_11_00.037,3.85,28.2,0,0.756,0,0,0,0.026, ,0,0,0,0,0, ,-38,129.1,993.2,-0.8,-0.4,-1.7,25,-38.1369,130.159,994.267,-0.752527,-0.429983,-1.69193,
2026_06_10_20_11_00.057,3.85,28.3,0,0.758,0,0,0,0.027, ,0,0,0,0,0, ,-37.5,130.4,993.8,-0.8,-0.4,-1.8,25,-38.1133,130.134,994.221,-0.75542,-0.428156,-1.69547,
2026_06_10_20_11_00.076,3.85,28.4,0,0.758,0,0,0,0.027, ,0,0,0,0,0, ,-38.3,131.8,994,-0.7,-0.4,-1.6,25,-38.1003,130.193,994.201,-0.75509,-0.42644,-1.69574,
2026_06_10_20_11_00.096,3.85,28.4,0,0.758,0,0,0,0.026, ,0,0,0,0,0, ,-38.2,130.4,994,-0.7,-0.4,-1.7,25,-38.1094,130.249,994.189,-0.751733,-0.424829,-1.69295,
2026_06_10_20_11_00.116,3.85,28.4,0,0.758,0,0,0,0.026, ,0,0,0,0,0, ,-37.2,130.6,995.3,-0.8,-0.4,-1.7,25,-38.0845,130.264,994.217,-0.751627,-0.423316,-1.69338,
2026_06_10_20_11_00.135,3.85,28.5,0,0.757,0,0,0,0.026, ,0,0,0,0,0, ,-38.6,130.6,994.7,-0.7,-0.4,-1.7,25,-38.0732,130.284,994.265,-0.751528,-0.421895,-1.69379,
2026_06_10_20_11_00.156,3.85,28.4,0,0.757,0,0,0,0.026, ,0,0,0,0,0, ,-38.4,129.2,993.6,-0.7,-0.4,-1.7,25,-38.0992,130.261,994.258,-0.748388,-0.420561,-1.69417,
2026_06_10_20_11_00.175,3.85,28.4,0,0.759,0,0,0,0.027, ,0,0,0,0,0, ,-37.4,129.3,994,-0.7,-0.4,-1.6,25,-38.0871,130.199,994.23,-0.745439,-0.419308,-1.69147,
2026_06_10_20_11_00.195,3.85,28.5,0,0.759,0,0,0,0.027, ,0,0,0,0,0, ,-37.8,130.9,994.3,-0.8,-0.4,-1.7,25,-38.0574,130.193,994.225,-0.745717,-0.418131,-1.68895,
2026_06_10_20_11_00.215,3.85,28.5,0,0.758,0,0,0,0.026, ,0,0,0,0,0, ,-38.2,128.6,994.2,-0.8,-0.4,-1.7,25,-38.0539,130.166,994.226,-0.749025,-0.417026,-1.68962,
2026_06_10_20_11_00.235,3.85,28.4,0,0.758,0,0,0,0.026, ,0,0,0,0,0, ,-37.3,129.7,994.3,-0.8,-0.4,-1.7,25,-38.0354,130.104,994.228,-0.752131,-0.415989,-1.69025,
2026_06_10_20_11_00.254,3.85,28.6,0,0.758,0,0,0,0.027, ,0,0,0,0,0, ,-38.3,130.2,994.7,-0.7,-0.3,-1.7,25,-38.0211,130.095,994.244,-0.752001,-0.411968,-1.69085,
2026_06_10_20_11_00.274,3.85,28.6,0,0.758,0,0,0,0.026, ,0,0,0,0,0, ,-38.2,130.3,996.3,-0.8,-0.4,-1.7,25,-38.035,130.104,994.321,-0.751879,-0.408191,-1.6914,
2026_06_10_20_11_00.294,3.85,28.6,0,0.759,0,0,0,0.026, ,0,0,0,0,0, ,-37.1,128.9,994.1,-0.8,-0.4,-1.7,25,-38.0115,130.074,994.375,-0.754812,-0.407692,-1.69193,
2026_06_10_20_11_00.314,3.85,28.6,0,0.758,0,0,0,0.026, ,0,0,0,0,0, ,-38.8,131.4,993.7,-0.7,-0.4,-1.7,25,-38.0078,130.078,994.346,-0.754519,-0.407224,-1.69242,
2026_06_10_20_11_00.334,3.85,28.6,0,0.758,0,0,0,0.026, ,0,0,0,0,0, ,-38.5,130.9,994.8,-0.7,-0.5,-1.7,25,-38.0469,130.144,994.34,-0.751196,-0.40983,-1.69288,
2026_06_10_20_11_00.353,3.85,28.5,0,0.758,0,0,0,0.026, ,0,0,0,0,0, ,-37.8,130.2,994.7,-0.8,-0.5,-1.7,25,-38.0532,130.168,994.365,-0.751123,-0.415325,-1.69332,
2026_06_10_20_11_00.373,3.85,28.6,0,0.759,0,0,0,0.027, ,0,0,0,0,0, ,-38,131.3,993.7,-0.8,-0.4,-1.7,25,-38.0439,130.204,994.355,-0.754102,-0.417438,-1.69372,
2026_06_10_20_11_00.393,3.85,28.6,0,0.758,0,0,0,0.027, ,0,0,0,0,0, ,-37.3,130.4,994.7,-0.8,-0.4,-1.8,25,-38.0199,130.243,994.345,-0.756899,-0.416375,-1.69715,
2026_06_10_20_11_00.413,3.85,28.6,0,0.758,0,0,0,0.027, ,0,0,0,0,0, ,-37.8,130.6,994.9,-0.7,-0.4,-1.7,25,-37.9912,130.259,994.373,-0.756478,-0.415377,-1.70037,
2026_06_10_20_11_00.432,3.85,28.6,0,0.758,0,0,0,0.027, ,0,0,0,0,0, ,-37.7,130.7,993.7,-0.7,-0.4,-1.7,25,-37.9765,130.283,994.369,-0.753037,-0.41444,-1.70035,
2026_06_10_20_11_00.456,3.85,28.7,0,0.759,0,0,0,0.027, ,0,0,0,0,0, ,-37.7,129.3,994.6,-0.8,-0.4,-1.7,25,-37.9597,130.265,994.355,-0.752852,-0.41356,-1.70033,
2026_06_10_20_11_00.471,3.85,28.7,0,0.758,0,0,0,0.026, ,0,0,0,0,0, ,-39.1,129.1,994.1,-0.7,-0.4,-1.6,25,-37.9865,130.201,994.355,-0.752678,-0.412734,-1.69726,
2026_06_10_20_11_00.492,3.85,28.7,0,0.758,0,0,0,0.027, ,0,0,0,0,0, ,-38.4,129.5,993.2,-0.7,-0.4,-1.6,25,-38.033,130.146,994.312,-0.749468,-0.411958,-1.69134,
2026_06_10_20_11_00.512,3.85,28.9,0,0.759,0,0,0,0.027, ,0,0,0,0,0, ,-38.5,129.7,994.6,-0.7,-0.4,-1.6,25,-38.0585,130.112,994.287,-0.746453,-0.411229,-1.68577,
2026_06_10_20_11_00.531,3.85,28.7,0,0.757,0,0,0,0.025, ,0,0,0,0,0, ,-37.7,130.4,996.3,-0.8,-0.4,-1.7,25,-38.061,130.109,994.358,-0.74667,-0.410545,-1.68359,
2026_06_10_20_11_00.551,3.85,28.8,0,0.758,0,0,0,0.027, ,0,0,0,0,0, ,-38,129.2,995.6,-0.7,-0.4,-1.8,25,-38.0481,130.09,994.455,-0.746872,-0.409903,-1.68764,
2026_06_10_20_11_00.571,3.85,28.8,0,0.76,0,0,0,0.026, ,0,0,0,0,0, ,-37.4,131.4,994,-0.7,-0.4,-1.7,25,-38.0269,130.103,994.476,-0.744016,-0.409299,-1.69144,
2026_06_10_20_11_00.592,3.85,28.8,0,0.758,0,0,0,0.026, ,0,0,0,0,0, ,-37.2,130.2,994.9,-0.6,-0.4,-1.7,25,-37.9826,130.145,994.474,-0.738287,-0.408732,-1.69196,
2026_06_10_20_11_00.610,3.85,28.8,0,0.758,0,0,0,0.027, ,0,0,0,0,0, ,-38,130.7,993.8,-0.8,-0.4,-1.7,25,-37.9593,130.164,994.467,-0.735954,-0.4082,-1.69245,
2026_06_10_20_11_00.630,3.85,28.8,0,0.758,0,0,0,0.027, ,0,0,0,0,0, ,-37.7,130.7,995.2,-0.7,-0.4,-1.7,25,-37.9526,130.196,994.469,-0.73681,-0.407701,-1.69291,
2026_06_10_20_11_00.650,3.85,28.8,0,0.759,0,0,0,0.027, ,0,0,0,0,0, ,-37.5,130.6,994.6,-0.7,-0.4,-1.7,25,-37.9312,130.224,994.495,-0.734567,-0.407231,-1.69334,
2026_06_10_20_11_00.670,3.85,28.9,0,0.758,0,0,0,0.027, ,0,0,0,0,0, ,-36.9,129.3,994.2,-0.7,-0.4,-1.6,25,-37.8866,130.207,994.489,-0.73246,-0.406791,-1.6907,
2026_06_10_20_11_00.690,3.85,28.9,0,0.757,0,0,0,0.026, ,0,0,0,0,0, ,-38.8,129.8,993.8,-0.8,-0.4,-1.7,25,-37.8844,130.167,994.459,-0.733529,-0.406377,-1.68822,
2026_06_10_20_11_00.709,3.85,28.9,0,0.759,0,0,0,0.026, ,0,0,0,0,0, ,-38.3,129.2,995.2,-0.7,-0.5,-1.7,25,-37.9249,130.127,994.462,-0.734533,-0.409035,-1.68894,
2026_06_10_20_11_00.732,3.85,28.9,0,0.758,0,0,0,0.026, ,0,0,0,0,0, ,-36.8,130,995.8,-0.8,-0.4,-1.7,25,-37.9021,130.094,994.525,-0.735475,-0.411531,-1.68961,
2026_06_10_20_11_00.749,3.85,29.1,0,0.759,0,0,0,0.027, ,0,0,0,0,0, ,-37.7,131.1,994.9,-0.7,-0.4,-1.6,25,-37.8623,130.122,994.575,-0.736361,-0.410829,-1.6872,
2026_06_10_20_11_00.768,3.85,29.1,0,0.758,0,0,0,0.025, ,0,0,0,0,0, ,-37.8,130.2,994.3,-0.8,-0.3,-1.7,25,-37.8555,130.154,994.577,-0.737192,-0.407122,-1.68493,
2026_06_10_20_11_00.789,3.85,29.1,0,0.758,0,0,0,0.025, ,0,0,0,0,0, ,-37.9,130.2,993.6,-0.8,-0.4,-1.7,25,-37.8552,130.157,994.539,-0.741019,-0.403641,-1.68585,
2026_06_10_20_11_00.808,3.85,29.1,0,0.757,0,0,0,0.025, ,0,0,0,0,0, ,-37.9,131.4,992.7,-0.7,-0.4,-1.7,25,-37.8579,130.196,994.454,-0.741566,-0.403419,-1.68671,
2026_06_10_20_11_00.828,3.85,29.1,0,0.758,0,0,0,0.025, ,0,0,0,0,0, ,-37.8,131.3,994.9,-0.8,-0.4,-1.8,25,-37.8574,130.267,994.414,-0.74208,-0.403211,-1.69057,
2026_06_10_20_11_00.848,3.85,29.2,0,0.759,0,0,0,0.025, ,0,0,0,0,0, ,-38.4,130.3,993.5,-0.8,-0.4,-1.7,25,-37.8722,130.299,994.401,-0.74561,-0.403015,-1.69419,
2026_06_10_20_11_00.867,3.85,29.2,0,0.759,0,0,0,0.025, ,0,0,0,0,0, ,-37.9,130.2,994.9,-0.7,-0.4,-1.7,25,-37.8891,130.296,994.389,-0.745877,-0.402831,-1.69454,
2026_06_10_20_11_00.887,3.85,29.2,0,0.759,0,0,0,0.025, ,0,0,0,0,0, ,-38.8,130.9,994.1,-0.7,-0.4,-1.8,25,-37.9172,130.312,994.396,-0.743082,-0.402659,-1.69792,
2026_06_10_20_11_00.908,3.85,29.2,0,0.758,0,0,0,0.025, ,0,0,0,0,0, ,-37.5,129.2,995.8,-0.7,-0.4,-1.6,25,-37.9314,130.296,994.429,-0.740456,-0.402497,-1.69805,
2026_06_10_20_11_00.927,3.85,29.3,0,0.759,0,0,0,0.025, ,0,0,0,0,0, ,-39.1,130.4,994.9,-0.7,-0.4,-1.6,25,-37.9539,130.265,994.486,-0.737991,-0.402345,-1.69208,
2026_06_10_20_11_00.946,3.85,29.2,0,0.759,0,0,0,0.024, ,0,0,0,0,0, ,-38.2,130.8,995.9,-0.8,-0.4,-1.6,25,-37.9963,130.286,994.541,-0.738723,-0.402202,-1.68646,
2026_06_10_20_11_00.966,3.85,29.3,0,0.759,0,0,0,0.025, ,0,0,0,0,0, ,-38.5,130.6,994.7,-0.7,-0.4,-1.6,25,-38.0178,130.311,994.588,-0.73941,-0.402068,-1.6812,
2026_06_10_20_11_00.986,3.85,29.3,0,0.759,0,0,0,0.024, ,0,0,0,0,0, ,-37.3,131.8,996.4,-0.7,-0.4,-1.7,25,-38.0107,130.365,994.646,-0.737008,-0.401942,-1.67929,
2026_06_10_20_11_01.006,3.85,29.3,0,0.759,0,0,0,0.024, ,0,0,0,0,0, ,-37.9,130,994.3,-0.7,-0.4,-1.7,25,-37.9856,130.398,994.689,-0.734753,-0.401823,-1.68056,
2026_06_10_20_11_01.026,3.85,29.3,0,0.759,0,0,0,0.024, ,0,0,0,0,0, ,-36.7,130.8,994.3,-0.8,-0.4,-1.6,25,-37.9438,130.398,994.665,-0.735682,-0.401712,-1.67869,
2026_06_10_20_11_01.046,3.85,29.4,0,0.759,0,0,0,0.025, ,0,0,0,0,0, ,-37.7,131.2,994.3,-0.8,-0.4,-1.7,25,-37.8985,130.435,994.643,-0.739602,-0.401608,-1.67695,
2026_06_10_20_11_01.065,3.85,29.3,0,0.761,0,0,0,0.024, ,0,0,0,0,0, ,-36.9,131.4,993.6,-0.8,-0.4,-1.7,25,-37.862,130.487,994.601,-0.743282,-0.40151,-1.67835,
2026_06_10_20_11_01.085,3.85,29.3,0,0.757,0,0,0,0.025, ,0,0,0,0,0, ,-38.3,130.9,994.5,-0.8,-0.4,-1.7,25,-37.8461,130.528,994.567,-0.746738,-0.401418,-1.67967,
2026_06_10_20_11_01.105,3.85,29.4,0,0.758,0,0,0,0.025, ,0,0,0,0,0, ,-36.7,131.4,993.2,-0.7,-0.4,-1.7,25,-37.825,130.566,994.524,-0.746937,-0.401332,-1.68091,
2026_06_10_20_11_01.125,3.85,29.4,0,0.759,0,0,0,0.024, ,0,0,0,0,0, ,-37.9,131.2,993.2,-0.7,-0.4,-1.7,25,-37.793,130.61,994.443,-0.744077,-0.40125,-1.68207,
2026_06_10_20_11_01.145,3.85,29.4,0,0.761,0,0,0,0.024, ,0,0,0,0,0, ,-38.5,130.6,993.6,-0.8,-0.4,-1.7,25,-37.8178,130.628,994.379,-0.744438,-0.401174,-1.68316,
2026_06_10_20_11_01.165,3.85,29.4,0,0.759,0,0,0,0.024, ,0,0,0,0,0, ,-38.8,129.8,993.1,-0.8,-0.4,-1.8,25,-37.8685,130.602,994.317,-0.747824,-0.401103,-1.68724,
2026_06_10_20_11_01.184,3.85,29.4,0,0.759,0,0,0,0.024, ,0,0,0,0,0, ,-38,131.2,994.2,-0.7,-0.4,-1.6,25,-37.9009,130.596,994.276,-0.747956,-0.401035,-1.68801,
2026_06_10_20_11_01.205,3.85,29.6,0,0.759,0,0,0,0.024, ,0,0,0,0,0, ,-38.4,129.8,994.9,-0.8,-0.4,-1.7,25,-37.9191,130.59,994.293,-0.748081,-0.400972,-1.6857,
2026_06_10_20_11_01.224,3.85,29.5,0,0.759,0,0,0,0.023, ,0,0,0,0,0, ,-37.3,130.8,994.2,-0.8,-0.4,-1.7,25,-37.9149,130.572,994.308,-0.751245,-0.400913,-1.68657,
2026_06_10_20_11_01.244,3.85,29.4,0,0.759,0,0,0,0.023, ,0,0,0,0,0, ,-38.5,130.2,994.3,-0.8,-0.4,-1.7,25,-37.914,130.568,994.305,-0.754216,-0.400857,-1.68739,
2026_06_10_20_11_01.263,3.85,29.5,0,0.759,0,0,0,0.024, ,0,0,0,0,0, ,-38.3,129.8,994,-0.7,-0.3,-1.6,25,-37.9436,130.533,994.295,-0.753959,-0.397758,-1.68511,
2026_06_10_20_11_01.283,3.85,29.6,0,0.76,0,0,0,0.024, ,0,0,0,0,0, ,-38.8,130.7,993.7,-0.8,-0.4,-1.7,25,-37.9806,130.516,994.268,-0.753718,-0.394848,-1.68297,
2026_06_10_20_11_01.303,3.85,29.5,0,0.76,0,0,0,0.023, ,0,0,0,0,0, ,-38.3,130.3,994.8,-0.7,-0.4,-1.7,25,-38.0153,130.515,994.267,-0.753491,-0.395162,-1.68401,
2026_06_10_20_11_01.323,3.85,29.6,0,0.759,0,0,0,0.024, ,0,0,0,0,0, ,-37.1,129.5,994.2,-0.8,-0.4,-1.6,25,-37.9961,130.478,994.281,-0.753278,-0.395457,-1.68194,
2026_06_10_20_11_01.343,3.85,29.6,0,0.759,0,0,0,0.023, ,0,0,0,0,0, ,-38.5,131.8,994.7,-0.7,-0.4,-1.6,25,-37.9841,130.488,994.292,-0.753079,-0.395734,-1.67694,
2026_06_10_20_11_01.362,3.85,29.6,0,0.759,0,0,0,0.023, ,0,0,0,0,0, ,-39,130.2,994.8,-0.7,-0.4,-1.6,25,-38.0308,130.519,994.32,-0.749844,-0.395994,-1.67225,
2026_06_10_20_11_01.382,3.85,29.7,0,0.758,0,0,0,0.023, ,0,0,0,0,0, ,-37.8,129.8,995.2,-0.7,-0.4,-1.7,25,-38.0533,130.488,994.361,-0.746807,-0.396238,-1.6709,
2026_06_10_20_11_01.402,3.85,29.6,0,0.758,0,0,0,0.022, ,0,0,0,0,0, ,-37.5,129.1,994.3,-0.8,-0.5,-1.7,25,-38.0287,130.424,994.385,-0.747001,-0.399514,-1.67267,
2026_06_10_20_11_01.422,3.85,29.7,0,0.759,0,0,0,0.023, ,0,0,0,0,0, ,-37.8,130.4,993.1,-0.8,-0.4,-1.7,25,-38.0056,130.383,994.343,-0.750231,-0.40259,-1.67434,
2026_06_10_20_11_01.441,3.85,29.8,0,0.759,0,0,0,0.022, ,0,0,0,0,0, ,-38.2,129.8,994.8,-0.7,-0.4,-1.7,25,-38.0053,130.366,994.319,-0.750217,-0.402433,-1.6759,
2026_06_10_20_11_01.461,3.85,29.6,0,0.76,0,0,0,0.022, ,0,0,0,0,0, ,-38,130.9,994.9,-0.7,-0.4,-1.6,25,-38.0111,130.365,994.351,-0.747157,-0.402284,-1.67432,
2026_06_10_20_11_01.481,3.85,29.7,0,0.758,0,0,0,0.023, ,0,0,0,0,0, ,-37.9,130.1,994.2,-0.8,-0.4,-1.7,25,-38.0073,130.373,994.363,-0.74733,-0.402145,-1.67284,
2026_06_10_20_11_01.501,3.85,29.6,0,0.76,0,0,0,0.022, ,0,0,0,0,0, ,-38,130.3,992.6,-0.8,-0.5,-1.7,25,-38.0038,130.363,994.305,-0.75054,-0.405061,-1.6745,
2026_06_10_20_11_01.521,3.85,29.6,0,0.76,0,0,0,0.023, ,0,0,0,0,0, ,-38.6,131.2,995.4,-0.7,-0.4,-1.7,25,-38.0219,130.386,994.286,-0.750507,-0.4078,-1.67605,
2026_06_10_20_11_01.545,3.85,29.7,0,0.76,0,0,0,0.023, ,0,0,0,0,0, ,-38.6,130.6,993.2,-0.8,-0.4,-1.8,25,-38.0571,130.418,994.287,-0.750476,-0.407324,-1.68056,
2026_06_10_20_11_01.560,3.85,29.7,0,0.759,0,0,0,0.023, ,0,0,0,0,0, ,-37.7,130.8,994.3,-0.8,-0.4,-1.6,25,-38.0628,130.435,994.254,-0.753494,-0.406878,-1.68174,
2026_06_10_20_11_01.580,3.85,29.7,0,0.76,0,0,0,0.023, ,0,0,0,0,0, ,-37.9,131.2,993.6,-0.7,-0.4,-1.7,25,-38.0468,130.469,994.236,-0.753281,-0.406459,-1.67981,
2026_06_10_20_11_01.600,3.85,29.7,0,0.76,0,0,0,0.023, ,0,0,0,0,0, ,-38.2,130.1,994.2,-0.7,-0.4,-1.7,25,-38.047,130.48,994.215,-0.750034,-0.406065,-1.68104,
2026_06_10_20_11_01.619,3.85,29.8,0,0.758,0,0,0,0.023, ,0,0,0,0,0, ,-38.2,129.5,995.3,-0.7,-0.4,-1.7,25,-38.0563,130.439,994.248,-0.746985,-0.405696,-1.68219,
2026_06_10_20_11_01.640,3.85,29.8,0,0.758,0,0,0,0.022, ,0,0,0,0,0, ,-38.3,130.8,994.7,-0.8,-0.4,-1.7,25,-38.0681,130.421,994.294,-0.747169,-0.405349,-1.68328,
2026_06_10_20_11_01.659,3.85,29.8,0,0.758,0,0,0,0.022, ,0,0,0,0,0, ,-38.9,130.4,995.9,-0.6,-0.5,-1.7,25,-38.1005,130.432,994.355,-0.744294,-0.40807,-1.6843,
2026_06_10_20_11_01.684,3.85,29.8,0,0.758,0,0,0,0.022, ,0,0,0,0,0, ,-37.8,130.1,994.2,-0.7,-0.4,-1.7,25,-38.1157,130.421,994.397,-0.738548,-0.410625,-1.68525,
2026_06_10_20_11_01.699,3.85,29.8,0,0.759,0,0,0,0.022, ,0,0,0,0,0, ,-38.9,130.9,994.2,-0.6,-0.4,-1.8,25,-38.13,130.426,994.385,-0.733152,-0.409977,-1.6892,
2026_06_10_20_11_01.719,3.85,29.8,0,0.758,0,0,0,0.022, ,0,0,0,0,0, ,-38,130.1,994,-0.8,-0.4,-1.7,25,-38.1495,130.43,994.368,-0.731132,-0.409369,-1.6929,
2026_06_10_20_11_01.739,3.85,29.8,0,0.759,0,0,0,0.022, ,0,0,0,0,0, ,-37.1,131.4,995.2,-0.8,-0.4,-1.8,25,-38.113,130.45,994.382,-0.735329,-0.408798,-1.69638,
2026_06_10_20_11_01.758,3.85,29.9,0,0.759,0,0,0,0.022, ,0,0,0,0,0, ,-38.5,129.1,995.4,-0.9,-0.4,-1.8,25,-38.0939,130.438,994.438,-0.742317,-0.408262,-1.7027,
2026_06_10_20_11_01.778,3.85,29.8,0,0.759,0,0,0,0.021, ,0,0,0,0,0, ,-36.8,128.5,994.2,-0.8,-0.4,-1.7,25,-38.0668,130.338,994.46,-0.748879,-0.407759,-1.70558,
2026_06_10_20_11_01.799,3.85,29.8,0,0.762,0,0,0,0.022, ,0,0,0,0,0, ,-38.3,128.5,995.1,-0.8,-0.5,-1.7,25,-38.0353,130.226,994.472,-0.751994,-0.410333,-1.70524,
2026_06_10_20_11_01.818,3.85,29.8,0,0.759,0,0,0,0.022, ,0,0,0,0,0, ,-38.3,131.2,994.2,-0.7,-0.5,-1.6,25,-38.0515,130.203,994.483,-0.751872,-0.415797,-1.70187,
2026_06_10_20_11_01.838,3.85,29.9,0,0.759,0,0,0,0.022, ,0,0,0,0,0, ,-37.4,128.6,995.8,-0.8,-0.5,-1.7,25,-38.0392,130.185,994.514,-0.751758,-0.420928,-1.69871,
2026_06_10_20_11_01.858,3.85,29.9,0,0.758,0,0,0,0.021, ,0,0,0,0,0, ,-37.7,139.7,993.7,-1.9,-0.4,-1.7,25,-38.0094,130.426,994.528,-0.788214,-0.4227,-1.69879,
2026_06_10_20_11_01.877,3.85,29.9,0,0.758,0,0,0,0.021, ,0,0,0,0,0, ,-37.4,121.8,994.8,-2.9,-0.5,-1.6,25,-37.9814,130.446,994.511,-0.886432,-0.424363,-1.69582,
2026_06_10_20_11_01.897,3.85,29.9,0,0.759,0,0,0,0.021, ,0,0,0,0,0, ,5.8,196.2,983.8,4.5,-0.2,1.1,25,-36.6297,132.186,994.194,-0.783665,-0.419832,-1.60771,
2026_06_10_20_11_01.917,3.85,30,0,0.761,0,0,0,0.021, ,0,0,0,0,0, ,-8.6,165.6,991.9,5.8,0,-0.1,25,-34.4829,135.154,993.807,-0.422082,-0.400342,-1.47927,
2026_06_10_20_11_01.937,3.85,29.9,0,0.759,0,0,0,0.02, ,0,0,0,0,0, ,-27.4,138.9,995.9,-5.1,-0.7,-3.4,25,-33.4785,136.196,993.813,-0.375033,-0.397274,-1.49577,
2026_06_10_20_11_01.962,3.85,29.9,0,0.759,0,0,0,0, ,0,0,0,0,0, ,-76,92.5,1006.3,-1.6,-0.8,-3.1,25,-34.5888,134.947,994.257,-0.55632,-0.418768,-1.60267,
2026_06_10_20_11_01.976,3.85,30,0,0.759,0,0,0,0, ,0,0,0,0,0, ,-57.6,103.3,998.4,4.1,-0.1,-0.3,25,-36.5517,132.69,994.75,-0.446248,-0.420672,-1.6086,
2026_06_10_20_11_01.997,3.85,30,0,0.759,0,0,0,0, ,0,0,0,0,0, ,-38.5,144,993.2,-1.6,-0.5,-1.7,25,-37.2524,132.139,994.814,-0.342883,-0.413318,-1.57151,
2026_06_10_20_11_02.016,3.85,30.1,0,0.759,0,0,0,0, ,0,0,0,0,0, ,-36.9,134.7,994.1,1.8,-0.4,-1.6,25,-37.2797,132.578,994.743,-0.315895,-0.415554,-1.5763,
2026_06_10_20_11_02.036,3.85,30,0,0.758,0,0,0,0, ,0,0,0,0,0, ,-38.3,132.6,993.2,-2.6,-0.4,-1.7,25,-37.2992,132.644,994.677,-0.32102,-0.414606,-1.58079,
2026_06_10_20_11_02.055,3.85,30,0,0.758,0,0,0,0, ,0,0,0,0,0, ,-38.6,135.8,993.2,0.3,-0.3,-1.7,25,-37.3693,132.738,994.587,-0.371536,-0.410669,-1.58805,
2026_06_10_20_11_02.075,3.85,30.1,0,0.76,0,0,0,0, ,0,0,0,0,0, ,-37.8,125.8,993.4,0,-0.4,-1.7,25,-37.4199,132.62,994.508,-0.339755,-0.406972,-1.59487,
2026_06_10_20_11_02.096,3.85,30.1,0,0.759,0,0,0,0, ,0,0,0,0,0, ,-37.7,139.8,994.7,0,-0.4,-1.6,25,-37.44,132.631,994.48,-0.319051,-0.406547,-1.59823,
2026_06_10_20_11_02.115,3.85,30.1,0,0.758,0,0,0,0, ,0,0,0,0,0, ,-37.5,131.2,994.2,-0.7,-0.5,-1.7,25,-37.4498,132.806,994.478,-0.320937,-0.409195,-1.60139,
2026_06_10_20_11_02.135,3.85,30.1,0,0.758,0,0,0,0, ,0,0,0,0,0, ,-38.4,132.5,993.2,-0.2,-0.4,-1.7,25,-37.4803,132.748,994.431,-0.328802,-0.411681,-1.6074,
2026_06_10_20_11_02.154,3.85,30.1,0,0.759,0,0,0,0, ,0,0,0,0,0, ,-38.3,134.2,995.3,-1.6,-0.5,-1.7,25,-37.5333,132.784,994.42,-0.363609,-0.414016,-1.61304,
2026_06_10_20_11_02.174,3.85,30.1,0,0.758,0,0,0,0, ,0,0,0,0,0, ,-36.4,130.4,995.1,-1.8,-0.5,-1.8,25,-37.5221,132.755,994.468,-0.445045,-0.419256,-1.62139,
2026_06_10_20_11_02.194,3.85,30.2,0,0.759,0,0,0,0, ,0,0,0,0,0, ,-38.5,130.7,994.1,-1.3,-0.5,-1.8,25,-37.5177,132.621,994.476,-0.512378,-0.424176,-1.63227,
2026_06_10_20_11_02.214,3.85,30.1,0,0.758,0,0,0,0, ,0,0,0,0,0, ,-37.8,132.3,993.5,-1,-0.5,-1.8,25,-37.5562,132.552,994.434,-0.551234,-0.428797,-1.64249,
2026_06_10_20_11_02.237,3.85,30.1,0,0.759,0,0,0,0, ,0,0,0,0,0, ,-38.2,129.1,995.2,-0.7,-0.5,-1.7,25,-37.5833,132.439,994.429,-0.56944,-0.433136,-1.64904,
2026_06_10_20_11_02.253,3.85,30.1,0,0.759,0,0,0,0, ,0,0,0,0,0, ,-38.2,133.3,993.8,-0.2,-0.4,-1.6,25,-37.6209,132.364,994.434,-0.562161,-0.434164,-1.6491,
2026_06_10_20_11_02.273,3.85,30.1,0,0.758,0,0,0,0, ,0,0,0,0,0, ,-38.6,132.8,994.1,-0.3,-0.5,-1.7,25,-37.6683,132.406,994.404,-0.543139,-0.435129,-1.64916,
2026_06_10_20_11_02.293,3.85,30.1,0,0.759,0,0,0,0, ,0,0,0,0,0, ,-37.4,134.2,994.9,-0.9,-0.3,-1.7,25,-37.6886,132.472,994.41,-0.546604,-0.432988,-1.65225,
2026_06_10_20_11_02.313,3.85,30.2,0,0.759,0,0,0,0, ,0,0,0,0,0, ,-37.2,132.8,994.2,-0.7,-0.4,-1.7,25,-37.6649,132.535,994.418,-0.562045,-0.427931,-1.65516,
2026_06_10_20_11_02.333,3.85,30.1,0,0.759,0,0,0,0, ,0,0,0,0,0, ,-38.6,131.7,993.7,-0.9,-0.4,-1.7,25,-37.6792,132.518,994.39,-0.576546,-0.426229,-1.6579,
2026_06_10_20_11_02.353,3.85,30.1,0,0.759,0,0,0,0, ,0,0,0,0,0, ,-38.2,132.6,993.7,-1.1,-0.5,-1.6,25,-37.7231,132.495,994.348,-0.60235,-0.427677,-1.65742,
2026_06_10_20_11_02.373,3.85,30.2,0,0.758,0,0,0,0, ,0,0,0,0,0, ,-38.4,132.8,995.2,-1,-0.4,-1.7,25,-37.7583,132.508,994.354,-0.629629,-0.429038,-1.65696,
2026_06_10_20_11_02.392,3.85,30.1,0,0.759,0,0,0,0, ,0,0,0,0,0, ,-38.5,130.1,994,-1.1,-0.4,-1.7,25,-37.8004,132.443,994.369,-0.655245,-0.427268,-1.65959,
2026_06_10_20_11_02.412,3.85,30.2,0,0.761,0,0,0,0, ,0,0,0,0,0, ,-38.6,132.2,994.8,-0.3,-0.3,-1.7,25,-37.8461,132.364,994.371,-0.657972,-0.42256,-1.66205,
2026_06_10_20_11_02.432,3.85,30.1,0,0.758,0,0,0,0, ,0,0,0,0,0, ,-37.9,127.9,993.7,0.6,-0.4,-1.7,25,-37.8707,132.223,994.364,-0.608736,-0.418138,-1.66436,
2026_06_10_20_11_02.451,3.85,30.1,0,0.759,0,0,0,0, ,0,0,0,0,0, ,-37.5,131.4,993.7,1.8,-0.4,-1.7,25,-37.8603,132.067,994.323,-0.498517,-0.417033,-1.66653,
2026_06_10_20_11_02.472,3.85,30.2,0,0.759,0,0,0,0, ,0,0,0,0,0, ,-36.8,133.5,994.6,6.1,-0.4,-1.7,25,-37.817,132.09,994.313,-0.227435,-0.415995,-1.66857,
2026_06_10_20_11_02.492,3.85,30.1,0,0.758,0,0,0,0, ,0,0,0,0,0, ,-40.8,138.3,995.1,1.9,-0.9,-5.2,25,-37.8769,132.322,994.345,0.0301742,-0.430255,-1.77713,
2026_06_10_20_11_02.511,3.85,30.2,0,0.759,0,0,0,0, ,0,0,0,0,0, ,-37.5,117.3,996.8,-6.5,-1.9,-11.9,25,-37.9545,132.047,994.443,-0.111821,-0.489348,-2.18985,
2026_06_10_20_11_02.531,3.85,30.2,0,0.758,0,0,0,0, ,0,0,0,0,0, ,-35.6,156.4,990.3,-2,-1.3,-6.9,25,-37.8689,132.339,994.389,-0.363991,-0.557029,-2.62922,
2026_06_10_20_11_02.551,3.85,30.3,0,0.758,0,0,0,0, ,0,0,0,0,0, ,-37.8,129.5,994.1,-5.2,-0.5,-1.8,25,-37.7977,132.986,994.255,-0.561185,-0.577929,-2.73408,
2026_06_10_20_11_02.571,3.85,30.1,0,0.759,0,0,0,0, ,0,0,0,0,0, ,-32.2,136.2,994.8,-4.4,-0.6,-2.3,25,-37.6272,132.978,994.267,-0.819488,-0.576227,-2.69239,
2026_06_10_20_11_02.590,3.85,30.1,0,0.758,0,0,0,0, ,0,0,0,0,0, ,19.4,128.4,994.5,-10.4,-0.8,-4.4,25,-35.7243,132.936,994.291,-1.22049,-0.583769,-2.73247,
2026_06_10_20_11_02.610,3.85,30.2,0,0.758,0,0,0,0, ,0,0,0,0,0, ,0.8,145.5,993.2,-18.2,-1.3,-5.7,25,-32.9319,133.181,994.264,-2.01752,-0.61218,-2.87369,
2026_06_10_20_11_02.630,3.85,30.1,0,0.761,0,0,0,0, ,0,0,0,0,0, ,-31,147.4,1016.2,-14.7,-2.2,-3.2,25,-31.8453,133.989,994.9,-2.897,-0.681516,-2.96975,
2026_06_10_20_11_02.650,3.85,30.2,0,0.758,0,0,0,0, ,0,0,0,0,0, ,-65.9,125,1005.7,-17.1,-6.4,-4.3,25,-32.8571,134.124,995.878,-3.68937,-0.902017,-3.01729,
2026_06_10_20_11_02.670,3.85,30.1,0,0.759,0,0,0,0, ,0,0,0,0,0, ,-71.8,120.3,1064.4,-19.6,-9.8,-9.8,25,-35.0504,133.425,998.265,-4.58275,-1.34064,-3.26304,
2026_06_10_20_11_02.689,3.85,30.1,0,0.759,0,0,0,0, ,0,0,0,0,0, ,-21.4,82.1,1052.4,-22.1,-20.3,-14.1,25,-35.7542,131.461,1001.93,-5.57404,-2.17606,-3.7924,
2026_06_10_20_11_02.709,3.85,30.1,0,0.758,0,0,0,0, ,0,0,0,0,0, ,-30.1,63.4,1032.2,-32.7,-26.8,-15,25,-35.1446,127.884,1004.39,-6.90406,-3.47853,-4.44794,
2026_06_10_20_11_02.729,3.85,30.1,0,0.759,0,0,0,0, ,0,0,0,0,0, ,-25,96.4,1045.4,-30.9,-32.8,-7.3,25,-34.6818,124.96,1006.49,-8.42115,-5.0825,-4.85635,
2026_06_10_20_11_02.748,3.85,30.1,0,0.759,0,0,0,0, ,0,0,0,0,0, ,0.1,52.7,1031,-21.9,-38.2,-2.8,25,-33.327,121.888,1008.42,-9.51674,-6.93606,-4.86815,
2026_06_10_20_11_02.768,3.85,30.2,0,0.758,0,0,0,0, ,0,0,0,0,0, ,5.7,65.9,1062.3,-22.4,-46.7,0.5,25,-31.1195,118.074,1010.75,-10.2866,-9.10019,-4.64157,
2026_06_10_20_11_02.788,3.85,30.2,0,0.759,0,0,0,0, ,0,0,0,0,0, ,15.2,45.7,1053.5,-23.7,-56.5,-0.4,25,-28.5863,114.279,1013.62,-11.0643,-11.69,-4.35568,
2026_06_10_20_11_02.808,3.85,30.2,0,0.758,0,0,0,0, ,0,0,0,0,0, ,62.5,33.3,1069.7,-20.7,-67.5,2.6,25,-24.4769,109.722,1016.55,-11.7429,-14.7558,-4.02322,
2026_06_10_20_11_02.827,3.85,30.1,0,0.758,0,0,0,0, ,0,0,0,0,0, ,114.2,41,1023.9,-21.1,-77.7,15.8,25,-17.6015,105.3,1018.39,-12.3009,-18.2807,-3.21743,
2026_06_10_20_11_02.848,3.85,30.1,0,0.758,0,0,0,0, ,0,0,0,0,0, ,132.6,71.2,1007.4,-15.3,-78.4,22.3,25,-9.00925,102.302,1018.22,-12.6604,-21.9229,-1.86051,
2026_06_10_20_11_02.868,3.85,30.2,0,0.758,0,0,0,0, ,0,0,0,0,0, ,133.3,102.2,992.9,-11.6,-79.8,17,25,-0.35861,101.351,1017.12,-12.7085,-25.4071,-0.549716,
2026_06_10_20_11_02.888,3.85,30.1,0,0.76,0,0,0,0, ,0,0,0,0,0, ,204.7,44.6,1103.3,-19,-91.1,-3.3,25,9.96168,99.6477,1019.01,-12.8664,-29.066,-0.0987956,
2026_06_10_20_11_02.907,3.85,30.2,0,0.758,0,0,0,0, ,0,0,0,0,0, ,177.1,-5.6,1124.5,9.4,-122.8,-18.4,25,20.9876,94.7637,1024.79,-12.3749,-33.812,-0.753947,
2026_06_10_20_11_02.927,3.85,30.2,0,0.759,0,0,0,0, ,0,0,0,0,0, ,255.1,5.9,1058.2,27.3,-144.4,-9.8,25,32.8773,88.9981,1028.85,-10.5026,-39.8928,-1.56722,
2026_06_10_20_11_02.947,3.85,30.1,0,0.758,0,0,0,0, ,0,0,0,0,0, ,295.7,24.2,945.3,27.9,-153.6,19.3,25,47.656,84.4919,1027.2,-8.18072,-46.5416,-1.18227,
2026_06_10_20_11_02.967,3.85,30.1,0,0.761,0,0,0,0, ,0,0,0,0,0, ,392.8,36.6,913.8,17.4,-154.8,50.4,25,65.7297,81.1957,1021.25,-6.30197,-53.102,1.01345,
2026_06_10_20_11_02.987,3.85,30.1,0,0.759,0,0,0,0, ,0,0,0,0,0, ,447,-4.2,862.7,-2.1,-158.6,57.3,25,87.3119,77.235,1013.14,-5.45178,-59.415,4.23318,
2026_06_10_20_11_03.006,3.85,30.2,0,0.759,0,0,0,0, ,0,0,0,0,0, ,460.5,176.8,985.9,-26.9,-171.9,53.9,25,109.642,77.7874,1007.73,-6.00315,-65.8643,7.36334,
2026_06_10_20_11_03.026,3.85,30.2,0,0.759,0,0,0,0, ,0,0,0,0,0, ,395.7,129.5,858.3,1.4,-192.6,27.2,25,129.048,82.3798,1002.51,-6.41429,-72.9566,9.38565,
2026_06_10_20_11_03.049,3.85,30,0,0.759,0,0,0,0, ,0,0,0,0,0, ,484.3,8.1,841.9,11.1,-189.3,8.5,25,147.996,81.5523,993.222,-5.64256,-80.1468,9.90145,
2026_06_10_20_11_03.065,3.85,30.1,0,0.76,0,0,0,0, ,0,0,0,0,0, ,608,-66,802.4,14.9,-184,18.2,25,172.259,74.8186,982.797,-4.50653,-86.6368,10.1116,
2026_06_10_20_11_03.085,3.85,30.2,0,0.759,0,0,0,0, ,0,0,0,0,0, ,713.9,-50.7,741.2,4.5,-173.7,38.8,25,202.039,66.7036,969.94,-3.64082,-92.2561,11.2321,
2026_06_10_20_11_03.105,3.85,30.1,0,0.759,0,0,0,0, ,0,0,0,0,0, ,746,-14.5,706.2,-3.8,-145.7,60.3,25,234.208,60.6523,954.934,-3.39763,-96.3659,13.5671,
2026_06_10_20_11_03.125,3.85,30.1,0,0.761,0,0,0,0, ,0,0,0,0,0, ,646.3,71.2,677.7,18.3,-107,51.7,25,262.358,58.6839,938.909,-2.74879,-98.1931,16.1529,
2026_06_10_20_11_03.145,3.85,30.1,0,0.758,0,0,0,0, ,0,0,0,0,0, ,663.4,68.6,715.8,-11.5,-78.5,33.9,25,286.275,59.3674,924.152,-2.3741,-97.8614,17.7767,
2026_06_10_20_11_03.165,3.85,30.2,0,0.758,0,0,0,0, ,0,0,0,0,0, ,775.8,36.1,659.9,-31,-57.3,-2.2,25,312.681,58.9397,909.753,-3.52435,-96.0356,17.6593,
2026_06_10_20_11_03.187,3.85,30.1,0,0.76,0,0,0,0, ,0,0,0,0,0, ,722.9,-87.2,540,-14.7,-54.8,-20.1,25,339.29,53.7912,890.874,-4.702,-93.599,15.9037,
2026_06_10_20_11_03.205,3.85,30.1,0,0.759,0,0,0,0, ,0,0,0,0,0, ,662.5,-23.3,509.5,-31.7,-59.7,-35.3,25,360.826,47.1465,868.563,-5.82922,-91.384,13.2466,
2026_06_10_20_11_03.224,3.85,30.1,0,0.759,0,0,0,0, ,0,0,0,0,0, ,600.7,-116.3,537.4,-52.2,-64.7,-43.4,25,377.327,40.02,847.533,-8.03033,-89.6056,10.0415,
2026_06_10_20_11_03.243,3.85,30.1,0,0.758,0,0,0,0, ,0,0,0,0,0, ,746.2,-110.9,600.3,-12.4,-91.7,-36.8,25,395.372,30.6588,830.551,-9.50927,-88.9106,6.98602,
2026_06_10_20_11_03.263,3.85,30.1,0,0.759,0,0,0,0, ,0,0,0,0,0, ,893.9,-6.3,478.3,51.1,-112.5,-12.3,25,421.25,25.2196,812.803,-7.75066,-89.7143,5.06429,
2026_06_10_20_11_03.284,3.85,30.1,0,0.758,0,0,0,0, ,0,0,0,0,0, ,870.9,59.8,479,50.3,-104.2,-8.4,25,449.352,25.3129,792.44,-4.18882,-90.8499,4.12498,
2026_06_10_20_11_03.303,3.85,30.2,0,0.759,0,0,0,0, ,0,0,0,0,0, ,785.4,17.7,510.4,16.3,-98.3,-23.6,25,472.435,26.1317,774.297,-1.90434,-91.4837,2.89862,
2026_06_10_20_11_03.322,3.85,30.1,0,0.758,0,0,0,0, ,0,0,0,0,0, ,765.5,22.4,485.9,15.2,-98.6,-26.8,25,490.9,25.7611,757.469,-0.828533,-91.9082,1.18636,
2026_06_10_20_11_03.343,3.85,30,0,0.759,0,0,0,0, ,0,0,0,0,0, ,836.4,39.5,425.2,6.3,-101.2,-21.3,25,509.793,26.0773,739.071,-0.122966,-92.3952,-0.351484,
2026_06_10_20_11_03.362,3.85,30.1,0,0.761,0,0,0,0, ,0,0,0,0,0, ,870.1,41.3,350,-0.7,-100.5,-21.1,25,530.723,26.9501,717.653,0.0551524,-92.9104,-1.62194,
2026_06_10_20_11_03.382,3.85,30,0,0.758,0,0,0,0, ,0,0,0,0,0, ,870.6,27.8,333.2,6.7,-92.1,-16.2,25,551.419,27.4132,694.737,0.234604,-93.1169,-2.65959,
2026_06_10_20_11_03.402,3.85,30.1,0,0.76,0,0,0,0, ,0,0,0,0,0, ,897.7,41,270.8,14.2,-95.9,-17.9,25,571.695,27.839,670.805,0.857105,-93.1708,-3.5365,
2026_06_10_20_11_03.422,3.85,30,0,0.759,0,0,0,0, ,0,0,0,0,0, ,940,41.2,263.5,13.7,-98.8,-22.4,25,592.849,28.647,646.207,1.65495,-93.4254,-4.54889,
2026_06_10_20_11_03.442,3.85,30.1,0,0.758,0,0,0,0, ,0,0,0,0,0, ,929.3,36.8,259.8,12.1,-93.4,-21.2,25,613.678,29.2779,622.773,2.3402,-93.5884,-5.60013,
2026_06_10_20_11_03.467,3.85,30,0,0.759,0,0,0,0, ,0,0,0,0,0, ,907.4,35.2,209.3,13.3,-82.5,-14.9,25,632.244,29.6876,599.116,2.9715,-93.2448,-6.35879,
2026_06_10_20_11_03.481,3.85,30.2,0,0.759,0,0,0,0, ,0,0,0,0,0, ,909.6,9.6,182.8,5.5,-66.9,-7.1,25,649.078,29.2435,574.554,3.36324,-92.1147,-6.64162,
2026_06_10_20_11_03.501,3.85,30.1,0,0.758,0,0,0,0, ,0,0,0,0,0, ,885.8,50.7,202.1,-5.6,-56.6,-4.1,25,664.229,29.2987,551.27,3.15524,-90.2644,-6.57814,
2026_06_10_20_11_03.521,3.85,30.2,0,0.761,0,0,0,0, ,0,0,0,0,0, ,1023.5,88.7,212,-0.7,-56.8,-2.7,25,681.926,31.7607,530.294,2.77102,-88.2191,-6.38447,
2026_06_10_20_11_03.540,3.85,30.1,0,0.758,0,0,0,0, ,0,0,0,0,0, ,1118.8,76.7,166.3,1.8,-40.3,4.4,25,705.644,34.8648,509.505,2.63567,-85.8017,-5.94362,
2026_06_10_20_11_03.561,3.85,30.1,0,0.757,0,0,0,0, ,0,0,0,0,0, ,1029.2,89.2,94.3,3.5,-31.6,0.4,25,728.091,37.795,486.397,2.63655,-82.7639,-5.43518,
2026_06_10_20_11_03.581,3.85,30.1,0,0.758,0,0,0,0, ,0,0,0,0,0, ,997.5,70.4,81.1,-0.2,-32.1,-7.3,25,745.474,40.3547,462.102,2.57643,-79.6613,-5.31421,
2026_06_10_20_11_03.602,3.85,30.1,0,0.758,0,0,0,0, ,0,0,0,0,0, ,991.8,57.9,86.7,-3.4,-35.4,-5.8,25,760.658,41.8047,439.055,2.30974,-76.8636,-5.38952,
2026_06_10_20_11_03.620,3.85,30.1,0,0.759,0,0,0,0, ,0,0,0,0,0, ,983.6,57.8,94.6,-2.7,-28.4,2.1,25,774.494,42.7824,417.824,1.98313,-74.1236,-5.17383,
2026_06_10_20_11_03.639,3.85,30,0,0.758,0,0,0,0, ,0,0,0,0,0, ,959.1,50.2,101.8,-3.2,-14.9,5.9,25,786.49,43.466,398.347,1.68252,-70.926,-4.6148,
2026_06_10_20_11_03.659,3.85,30,0,0.758,0,0,0,0, ,0,0,0,0,0, ,979,76.1,48.5,-0.7,-18.6,2.1,25,797.614,44.6655,378.652,1.46116,-67.6247,-4.08983,
2026_06_10_20_11_03.679,3.85,30.1,0,0.757,0,0,0,0, ,0,0,0,0,0, ,967.4,81.5,39.9,-1.1,-14.8,-0.5,25,808.314,46.7456,358.272,1.31728,-64.5215,-3.79186,
2026_06_10_20_11_03.700,3.85,30.1,0,0.759,0,0,0,0, ,0,0,0,0,0, ,934.6,52.4,61.7,-4,-10.2,-4.3,25,817.009,47.9768,339.535,1.08162,-61.3514,-3.70704,
2026_06_10_20_11_03.719,3.85,30.1,0,0.759,0,0,0,0, ,0,0,0,0,0, ,916.7,58.8,65.9,-5.2,-3.3,-6.3,25,823.629,48.4413,322.732,0.735392,-58.0241,-3.80411,
2026_06_10_20_11_03.742,3.85,30.1,0,0.759,0,0,0,0, ,0,0,0,0,0, ,932.7,67.5,57.3,-0.8,1.6,-7.5,25,829.788,49.3376,306.82,0.507767,-54.5401,-3.99277,
2026_06_10_20_11_03.759,3.85,30,0,0.759,0,0,0,0, ,0,0,0,0,0, ,971.5,69.8,33.3,1.7,10.7,-9.2,25,837.242,50.5145,290.883,0.504247,-50.8418,-4.25829,
2026_06_10_20_11_03.778,3.85,30.1,0,0.759,0,0,0,0, ,0,0,0,0,0, ,1654.9,49.4,82.6,6,8.1,-7.2,25,866.245,51.0681,276.689,0.708128,-47.1708,-4.49849,
2026_06_10_20_11_03.798,3.85,30.2,0,0.759,0,0,0,0, ,0,0,0,0,0, ,983.6,89.9,90.6,-4.1,-7.7,-1.6,25,893.85,52.2005,265.105,0.722867,-44.2841,-4.49248,
2026_06_10_20_11_03.818,3.85,30,0,0.759,0,0,0,0, ,0,0,0,0,0, ,973.8,40.7,154.5,-18,-19.4,-1.1,25,899.021,52.9987,256.418,0.00545845,-42.4113,-4.30099,
2026_06_10_20_11_03.838,3.85,30.1,0,0.759,0,0,0,0, ,0,0,0,0,0, ,989.3,78.7,46.2,11,-21.7,6.9,25,904.05,53.4071,246.908,-0.208155,-41.0791,-3.86218,
2026_06_10_20_11_03.858,3.85,30,0,0.758,0,0,0,0, ,0,0,0,0,0, ,993.1,49.5,36.7,2.2,-17.3,6.3,25,909.361,54.0587,234.388,0.206717,-39.7641,-3.22464,
2026_06_10_20_11_03.878,3.85,30,0,0.758,0,0,0,0, ,0,0,0,0,0, ,991.8,44.3,48,-9.1,-17.2,1.6,25,914.424,53.6224,222.686,-0.0161146,-38.3922,-2.78744,
2026_06_10_20_11_03.897,3.85,30.1,0,0.759,0,0,0,0, ,0,0,0,0,0, ,992.1,70.5,24,-8.5,-14.1,1.3,25,919.148,53.8526,211.309,-0.551383,-37.0063,-2.52922,
2026_06_10_20_11_03.919,3.85,30.1,0,0.76,0,0,0,0, ,0,0,0,0,0, ,983.3,50.2,103.5,-5.7,-16.3,2.6,25,923.326,54.2486,202.318,-0.950439,-35.6775,-2.25626,
2026_06_10_20_11_03.937,3.85,30,0,0.759,0,0,0,0, ,0,0,0,0,0, ,987.5,92.1,73.2,9.3,-22.5,4,25,927.108,55.2785,195.373,-0.782834,-34.6856,-1.91768,
2026_06_10_20_11_03.957,3.85,30.1,0,0.758,0,0,0,0, ,0,0,0,0,0, ,990.2,59.4,49,42.6,-22.9,11.3,25,930.871,56.526,187.19,0.846198,-33.9552,-1.33465,
2026_06_10_20_11_03.976,3.85,30,0,0.758,0,0,0,0, ,0,0,0,0,0, ,991.5,52.3,6.9,37.7,-23.9,11.8,25,934.526,56.4848,177.487,3.24127,-33.312,-0.549491,
2026_06_10_20_11_03.996,3.85,30,0,0.758,0,0,0,0, ,0,0,0,0,0, ,994,54,-28.6,48.8,-16.5,11.8,25,938.074,56.2816,166.01,5.6793,-32.513,0.203056,
2026_06_10_20_11_04.017,3.85,30,0,0.758,0,0,0,0, ,0,0,0,0,0, ,994.9,56.6,-25.2,38,-11.4,13.8,25,941.509,56.2218,154.254,7.97791,-31.3818,0.970682,
2026_06_10_20_11_04.036,3.85,30,0,0.759,0,0,0,0, ,0,0,0,0,0, ,994.1,29,-37.4,36.7,-8.5,13.2,25,944.738,55.4039,142.947,9.76777,-30.0758,1.73419,
2026_06_10_20_11_04.056,3.85,30.1,0,0.758,0,0,0,0, ,0,0,0,0,0, ,993.6,14.2,13.9,38.9,-5.5,10.5,25,947.731,53.344,133.52,11.476,-28.6696,2.35062,
2026_06_10_20_11_04.076,3.85,30.1,0,0.759,0,0,0,0, ,0,0,0,0,0, ,992.3,48.4,2.8,32.9,-8.1,9.8,25,950.487,52.0006,125.893,12.9643,-27.3369,2.82589,
2026_06_10_20_11_04.095,3.85,30.1,0,0.76,0,0,0,0, ,0,0,0,0,0, ,993.7,26.9,-3,36.5,-8.6,12.2,25,953.077,51.1262,118.215,14.2888,-26.1799,3.324,
2026_06_10_20_11_04.115,3.85,30,0,0.759,0,0,0,0, ,0,0,0,0,0, ,993.1,15.7,-9.7,19.4,-8.7,12.3,25,955.534,49.3086,110.624,15.1213,-25.1117,3.86793,
2026_06_10_20_11_04.135,3.85,30,0,0.759,0,0,0,0, ,0,0,0,0,0, ,993,11.4,-32.2,23.6,-5.9,10.8,25,957.82,47.1296,102.607,15.51,-24.0263,4.33606,
2026_06_10_20_11_04.155,3.85,30.1,0,0.759,0,0,0,0, ,0,0,0,0,0, ,992,25.5,-19.1,15.8,-3.6,11.5,25,959.934,45.3819,94.791,15.7653,-22.8517,4.75128,
2026_06_10_20_11_04.175,3.85,30,0,0.758,0,0,0,0, ,0,0,0,0,0, ,992.4,-33.2,-27,27.5,0.7,6.4,25,961.9,42.3819,87.6101,16.1239,-21.5475,5.00714,
2026_06_10_20_11_04.195,3.85,30,0,0.759,0,0,0,0, ,0,0,0,0,0, ,991,59.2,-14.7,41.5,-0.5,6.8,25,963.716,40.5914,81.0008,17.2437,-20.2283,5.10421,
2026_06_10_20_11_04.215,3.85,30.1,0,0.76,0,0,0,0, ,0,0,0,0,0, ,991,-28.6,-40.5,29.5,3.4,11.2,25,965.379,39.0502,74.3829,18.3562,-18.9073,5.34161,
2026_06_10_20_11_04.234,3.85,30,0,0.759,0,0,0,0, ,0,0,0,0,0, ,991.5,-22.3,-19.6,14.7,8.5,4.4,25,966.955,35.1197,68.019,18.5844,-17.3926,5.49141,
2026_06_10_20_11_04.254,3.85,30,0,0.757,0,0,0,0, ,0,0,0,0,0, ,993.2,-3.2,31.4,1.5,5.5,3.3,25,968.503,32.2027,64.2337,17.9455,-15.9062,5.39139,
2026_06_10_20_11_04.274,3.85,30,0,0.759,0,0,0,0, ,0,0,0,0,0, ,992.9,-0.7,8.5,0.8,0.3,3.4,25,969.998,30.1215,61.5351,16.922,-14.7602,5.26699,
2026_06_10_20_11_04.294,3.85,30,0,0.759,0,0,0,0, ,0,0,0,0,0, ,993.2,8.7,-15,5.4,1.2,5.7,25,971.403,28.5297,57.5873,16.0797,-13.815,5.2233,
2026_06_10_20_11_04.313,3.85,30,0,0.759,0,0,0,0, ,0,0,0,0,0, ,985.5,-23,-8.4,-18.8,4,3.7,25,972.497,26.3555,53.3651,14.6916,-12.8147,5.19141,
2026_06_10_20_11_04.333,3.85,30,0,0.759,0,0,0,0, ,0,0,0,0,0, ,1006.7,-28.1,52,25.2,8.3,-11.7,25,973.935,23.1925,51.4416,13.9913,-11.6591,4.63131,
2026_06_10_20_11_04.353,3.85,30.1,0,0.759,0,0,0,0, ,0,0,0,0,0, ,993.8,8,48.2,-12.6,-2,-1,25,975.539,21.1668,51.3598,13.5226,-10.7566,3.96214,
2026_06_10_20_11_04.373,3.85,30,0,0.758,0,0,0,0, ,0,0,0,0,0, ,991.8,3.6,-38.9,-49,-4.3,5.8,25,976.591,20.2304,48.5135,10.8217,-10.2931,3.86695,
2026_06_10_20_11_04.393,3.85,30,0,0.759,0,0,0,0, ,0,0,0,0,0, ,992,-27.2,22.8,0.5,-2.2,-3.3,25,977.523,18.2785,45.0666,8.68453,-9.86391,3.70748,
2026_06_10_20_11_04.412,3.85,30,0,0.757,0,0,0,0, ,0,0,0,0,0, ,992,-15.8,-23.3,-5.3,-6.4,0.5,25,978.406,15.8545,42.3051,8.00907,-9.52486,3.39624,
2026_06_10_20_11_04.432,3.85,30.1,0,0.758,0,0,0,0, ,0,0,0,0,0, ,991.5,-15.6,-14.4,-12.7,-1.6,-0.4,25,979.219,13.9317,38.5785,6.97258,-9.18819,3.19233,
2026_06_10_20_11_04.452,3.85,30,0,0.759,0,0,0,0, ,0,0,0,0,0, ,991.9,-10.4,-5.2,-13.1,-1.4,0.2,25,979.979,12.2905,35.6304,5.76159,-8.71969,2.9917,
2026_06_10_20_11_04.471,3.85,30.1,0,0.76,0,0,0,0, ,0,0,0,0,0, ,994.3,-14.5,8.4,-20.9,-0.8,0.1,25,980.779,10.7829,33.5567,4.37456,-8.25536,2.81853,
2026_06_10_20_11_04.491,3.85,30,0,0.758,0,0,0,0, ,0,0,0,0,0, ,987.4,-84.7,-95.2,-25.3,6,-1.1,25,981.393,7.1033,28.8672,2.70033,-7.59387,2.61631,
2026_06_10_20_11_04.511,3.85,30,0,0.757,0,0,0,0, ,0,0,0,0,0, ,991.2,-3.9,92.6,-1.6,0.7,-0.2,25,981.874,3.97091,27.0288,1.71617,-6.92697,2.41727,
2026_06_10_20_11_04.531,3.85,29.9,0,0.759,0,0,0,0, ,0,0,0,0,0, ,993.2,-14.7,5.2,-8.2,-6.2,-2.9,25,982.504,3.16221,28.3616,1.31299,-6.67244,2.17552,
2026_06_10_20_11_04.558,3.85,30,0,0.758,0,0,0,0, ,0,0,0,0,0, ,992.1,-7.6,3.7,-0.2,-10.9,-1,25,983.122,2.29006,26.9045,0.977046,-6.78685,1.92412,
2026_06_10_20_11_04.571,3.85,30.1,0,0.758,0,0,0,0, ,0,0,0,0,0, ,991.3,-21.6,-34.6,4.4,-8.4,-1.3,25,983.645,1.26083,24.3235,1.04548,-6.96133,1.73679,
2026_06_10_20_11_04.591,3.85,30.1,0,0.759,0,0,0,0, ,0,0,0,0,0, ,992,-20.7,-28.6,4.3,-4.2,-1.8,25,984.133,-0.104834,20.9157,1.24685,-6.92103,1.5365,
2026_06_10_20_11_04.610,3.85,29.9,0,0.758,0,0,0,0, ,0,0,0,0,0, ,992.5,-19.8,-22.8,-0.6,-1.1,-2.8,25,984.627,-1.33243,18.075,1.2836,-6.66076,1.30271,
2026_06_10_20_11_04.630,3.85,30,0,0.758,0,0,0,0, ,0,0,0,0,0, ,992,-18.4,-8.1,-2.6,-0.6,-3.7,25,985.092,-2.41514,16.0321,1.10788,-6.30667,1.02528,
2026_06_10_20_11_04.650,3.85,30,0,0.758,0,0,0,0, ,0,0,0,0,0, ,992.6,-12,-12.9,-1.8,-0.5,-3.3,25,985.531,-3.19422,14.4153,0.906307,-5.95587,0.749522,
2026_06_10_20_11_04.669,3.85,30.1,0,0.759,0,0,0,0, ,0,0,0,0,0, ,991.9,-19.1,-4.1,0.7,-1,-3.2,25,985.94,-3.94715,13.0189,0.817563,-5.63864,0.505801,
2026_06_10_20_11_04.693,3.85,30,0,0.759,0,0,0,0, ,0,0,0,0,0, ,993.2,-16.2,8.7,-2,-3.8,-4.3,25,986.343,-4.78217,12.3657,0.728133,-5.44128,0.246463,
2026_06_10_20_11_04.709,3.85,30,0,0.758,0,0,0,0, ,0,0,0,0,0, ,991.9,-15.1,-1.7,-8.1,-6.8,-4.6,25,986.721,-5.44442,11.8255,0.376028,-5.43267,-0.0397273,
2026_06_10_20_11_04.729,3.85,30,0,0.758,0,0,0,0, ,0,0,0,0,0, ,992.7,-8.1,-11.7,-11.8,-8.1,-4.5,25,987.061,-5.81953,10.6966,-0.253214,-5.5556,-0.314572,
2026_06_10_20_11_04.749,3.85,30,0,0.759,0,0,0,0, ,0,0,0,0,0, ,993.1,-10,-20.8,-12.7,-8.1,-4.4,25,987.417,-6.01639,9.05452,-0.984268,-5.71065,-0.566575,
2026_06_10_20_11_04.769,3.85,30,0,0.759,0,0,0,0, ,0,0,0,0,0, ,992.4,-3.1,-32.1,-8.2,-6.6,-4.2,25,987.742,-6.0489,6.89096,-1.56109,-5.81055,-0.79408,
2026_06_10_20_11_04.789,3.85,30,0,0.758,0,0,0,0, ,0,0,0,0,0, ,990.9,-5,-22,-5.5,-5.3,-3.8,25,987.98,-5.9271,4.82269,-1.88338,-5.81905,-0.989441,
2026_06_10_20_11_04.809,3.85,30,0,0.758,0,0,0,0, ,0,0,0,0,0, ,992.5,-5.4,-8,-5.5,-6.3,-3.1,25,988.207,-5.88279,3.61474,-2.10377,-5.81789,-1.13938,
2026_06_10_20_11_04.830,3.85,30,0,0.758,0,0,0,0, ,0,0,0,0,0, ,991.5,-2.9,-30.7,-1.5,-8.2,-2.5,25,988.438,-5.7772,2.21533,-2.18885,-5.90516,-1.24058,
2026_06_10_20_11_04.848,3.85,30,0,0.76,0,0,0,0, ,0,0,0,0,0, ,992.5,-5.4,-28.4,-1.2,-7.5,-2.4,25,988.655,-5.67804,0.279628,-2.13773,-6.02367,-1.31427,
2026_06_10_20_11_04.868,3.85,30.1,0,0.758,0,0,0,0, ,0,0,0,0,0, ,991.8,-6.3,-35,-2.4,-7.6,-2.5,25,988.868,-5.68852,-1.66913,-2.11715,-6.11668,-1.38348,
2026_06_10_20_11_04.888,3.85,29.9,0,0.758,0,0,0,0, ,0,0,0,0,0, ,992.4,-9.1,-34,-2.6,-7,-2.5,25,989.065,-5.81109,-3.66976,-2.14048,-6.18879,-1.45152,
2026_06_10_20_11_04.907,3.85,30,0,0.758,0,0,0,0, ,0,0,0,0,0, ,991,-6.8,-45.5,-2.2,-6.5,-3.3,25,989.226,-5.94143,-5.8684,-2.1563,-6.22299,-1.53979,
2026_06_10_20_11_04.927,3.85,29.9,0,0.759,0,0,0,0, ,0,0,0,0,0, ,990.6,-2.4,-46.7,-1.3,-4.3,-3.4,25,989.322,-5.85969,-8.32001,-2.13154,-6.17284,-1.6501,
2026_06_10_20_11_04.947,3.85,30.1,0,0.757,0,0,0,0, ,0,0,0,0,0, ,989.8,-0.9,-31.4,-1.2,-4.4,-2.5,25,989.375,-5.60316,-10.1926,-2.07782,-6.06176,-1.72931,
2026_06_10_20_11_04.968,3.85,29.9,0,0.758,0,0,0,0, ,0,0,0,0,0, ,990.6,-4.5,-36.6,-2.2,-5.2,-2.1,25,989.425,-5.42625,-11.6434,-2.0548,-5.98487,-1.76409,
2026_06_10_20_11_04.987,3.85,30,0,0.76,0,0,0,0, ,0,0,0,0,0, ,990.6,-5.3,-40.1,-2.5,-5.4,-2.3,25,989.497,-5.39418,-13.2708,-2.07278,-5.94314,-1.79065,
2026_06_10_20_11_05.007,3.85,30,0,0.758,0,0,0,0, ,0,0,0,0,0, ,991,-18.1,-37.5,-4.4,-7,-2.9,25,989.576,-5.77844,-14.8265,-2.15671,-5.95879,-1.83997,
2026_06_10_20_11_05.026,3.85,29.9,0,0.757,0,0,0,0, ,0,0,0,0,0, ,991.9,53.9,-40.5,-7.4,-7.6,-3.9,25,989.69,-4.33554,-16.2996,-2.38482,-6.04052,-1.93503,
2026_06_10_20_11_05.046,3.85,30,0,0.758,0,0,0,0, ,0,0,0,0,0, ,990.7,-2.3,-50.7,-3.7,-7.4,-2.7,25,989.789,-2.49915,-18.0851,-2.57769,-6.12946,-2.01821,
2026_06_10_20_11_05.065,3.85,29.9,0,0.76,0,0,0,0, ,0,0,0,0,0, ,991.4,-5.9,-54.6,-2.9,-7,-2.9,25,989.865,-2.5967,-20.1914,-2.62171,-6.19469,-2.06585,
2026_06_10_20_11_05.085,3.85,29.9,0,0.758,0,0,0,0, ,0,0,0,0,0, ,990.8,-3.5,-53.9,-2.2,-7,-2.8,25,989.941,-2.72487,-22.2668,-2.61734,-6.24377,-2.11364,
2026_06_10_20_11_05.105,3.85,30,0,0.759,0,0,0,0, ,0,0,0,0,0, ,990.3,-11.4,-57.9,-1,-6.9,-3.4,25,989.978,-3.01281,-24.3163,-2.55535,-6.2868,-2.17374,
2026_06_10_20_11_05.126,3.85,30,0,0.758,0,0,0,0, ,0,0,0,0,0, ,990.2,43.8,-48.4,-4.7,-7.1,-5.7,25,989.994,-1.84203,-26.0734,-2.5733,-6.33026,-2.31855,
2026_06_10_20_11_05.146,3.85,30,0,0.76,0,0,0,0, ,0,0,0,0,0, ,990.2,-4.1,-60.1,-1.4,-7.5,-4.2,25,990.007,-0.520173,-27.7904,-2.60235,-6.38936,-2.4789,
2026_06_10_20_11_05.165,3.85,29.9,0,0.759,0,0,0,0, ,0,0,0,0,0, ,990.4,38.9,-66.4,-5.6,-7.8,-5.5,25,990.025,0.571838,-29.9512,-2.65705,-6.46618,-2.62339,
2026_06_10_20_11_05.185,3.85,30,0,0.759,0,0,0,0, ,0,0,0,0,0, ,989.2,5.3,-72.3,-0.6,-5.7,-3.1,25,990.011,1.88371,-32.3521,-2.68404,-6.48347,-2.72556,
2026_06_10_20_11_05.205,3.85,30,0,0.76,0,0,0,0, ,0,0,0,0,0, ,989.7,3.6,-71.5,-1.3,-5.2,-2.9,25,989.977,2.04009,-34.762,-2.57837,-6.42049,-2.74228,
2026_06_10_20_11_05.225,3.85,29.9,0,0.759,0,0,0,0, ,0,0,0,0,0, ,987.9,2.3,-64.4,-3,-4.6,-2.8,25,989.905,2.09554,-36.7844,-2.55227,-6.32784,-2.74885,
2026_06_10_20_11_05.244,3.85,30,0,0.759,0,0,0,0, ,0,0,0,0,0, ,989.2,13.4,-60.3,-8.7,-5.8,-6.8,25,989.823,2.4462,-38.3423,-2.75323,-6.25911,-2.87384,
2026_06_10_20_11_05.263,3.85,29.9,0,0.759,0,0,0,0, ,0,0,0,0,0, ,990.1,-3.9,-72.7,-4.7,-7.4,-3.6,25,989.812,2.58659,-40.0582,-2.99373,-6.27988,-3.01559,
2026_06_10_20_11_05.284,3.85,30,0,0.759,0,0,0,0, ,0,0,0,0,0, ,989.6,-5,-88.6,-6,-5.8,-5.5,25,989.814,2.1578,-42.5317,-3.13732,-6.29939,-3.10909,
2026_06_10_20_11_05.303,3.85,29.9,0,0.758,0,0,0,0, ,0,0,0,0,0, ,988.1,13.4,-95.7,1.2,-2.7,-2.1,25,989.756,2.28225,-45.5554,-3.09239,-6.17451,-3.15119,
2026_06_10_20_11_05.323,3.85,29.9,0,0.759,0,0,0,0, ,0,0,0,0,0, ,988.8,10.4,-78.4,-1.1,-1,-1.5,25,989.676,2.86833,-48.0839,-2.9009,-5.91098,-3.06886,
2026_06_10_20_11_05.343,3.85,30,0,0.758,0,0,0,0, ,0,0,0,0,0, ,989.3,15.3,-70.3,-2.2,-1.8,-1.5,25,989.638,3.47659,-49.6845,-2.82467,-5.63609,-2.97325,
2026_06_10_20_11_05.363,3.85,30,0,0.759,0,0,0,0, ,0,0,0,0,0, ,988.5,10.7,-78.1,-2.1,-2.4,-1.3,25,989.593,4.05692,-51.1784,-2.78356,-5.42061,-2.87738,
2026_06_10_20_11_05.383,3.85,30,0,0.758,0,0,0,0, ,0,0,0,0,0, ,988.6,13.3,-85.6,-1.4,-1.7,-1,25,989.529,4.54095,-53.0475,-2.72058,-5.21522,-2.77212,
2026_06_10_20_11_05.403,3.85,29.9,0,0.758,0,0,0,0, ,0,0,0,0,0, ,987.7,9.6,-83.4,-0.6,-0.1,-0.6,25,989.445,4.96197,-54.9641,-2.61573,-4.95226,-2.65194,
2026_06_10_20_11_05.422,3.85,30,0,0.759,0,0,0,0, ,0,0,0,0,0, ,989.5,2,-76.1,-0.4,-0.3,-1.1,25,989.394,5.01304,-56.4745,-2.4868,-4.66267,-2.54214,
2026_06_10_20_11_05.442,3.85,29.9,0,0.758,0,0,0,0, ,0,0,0,0,0, ,989.6,6.9,-81.6,0,0,-1.6,25,989.403,4.97873,-57.838,-2.34745,-4.38768,-2.46949,
2026_06_10_20_11_05.462,3.85,29.8,0,0.758,0,0,0,0, ,0,0,0,0,0, ,988.6,9.7,-79.3,0.4,0.1,-1.6,25,989.385,5.18112,-59.2159,-2.19221,-4.11726,-2.41651,
2026_06_10_20_11_05.483,3.85,29.9,0,0.758,0,0,0,0, ,0,0,0,0,0, ,987.7,10.4,-75.5,1.5,0.2,-1.5,25,989.31,5.47781,-60.324,-2.00074,-3.85722,-2.3637,
2026_06_10_20_11_05.502,3.85,29.9,0,0.761,0,0,0,0, ,0,0,0,0,0, ,989.6,5.6,-71.6,-0.5,-0.6,-1.5,25,989.269,5.63151,-61.13,-1.84835,-3.63436,-2.31107,
2026_06_10_20_11_05.521,3.85,30,0,0.759,0,0,0,0, ,0,0,0,0,0, ,989.3,8.1,-69.2,-2.3,-2.2,-1.7,25,989.28,5.70576,-61.6949,-1.82103,-3.4982,-2.26774,
2026_06_10_20_11_05.542,3.85,29.8,0,0.758,0,0,0,0, ,0,0,0,0,0, ,988.4,7.9,-71.4,-3.9,-4.2,-1.8,25,989.254,5.84557,-62.2193,-1.89896,-3.48003,-2.23619,
2026_06_10_20_11_05.561,3.85,29.9,0,0.758,0,0,0,0, ,0,0,0,0,0, ,989,7,-83.8,-2.5,-4.6,-1.8,25,989.22,5.94334,-63.1565,-1.97825,-3.53609,-2.20961,
2026_06_10_20_11_05.581,3.85,30,0,0.759,0,0,0,0, ,0,0,0,0,0, ,990.2,13.1,-89.8,1.1,-2.8,-1.8,25,989.244,6.19359,-64.5973,-1.90035,-3.54608,-2.18465,
2026_06_10_20_11_05.600,3.85,30,0,0.758,0,0,0,0, ,0,0,0,0,0, ,988.4,8.4,-83.9,0.3,-2.6,-1.6,25,989.247,6.47124,-65.9533,-1.74189,-3.49452,-2.15512,
2026_06_10_20_11_05.620,3.85,30,0,0.757,0,0,0,0, ,0,0,0,0,0, ,988.6,6.4,-81.2,-0.9,-2.6,-1.3,25,989.201,6.52784,-66.9647,-1.65403,-3.44001,-2.11215,
2026_06_10_20_11_05.639,3.85,29.9,0,0.758,0,0,0,0, ,0,0,0,0,0, ,987.9,5.3,-81.1,-1.3,-3.5,-1.7,25,989.143,6.48653,-67.8291,-1.62027,-3.41625,-2.07485,
2026_06_10_20_11_05.660,3.85,29.9,0,0.758,0,0,0,0, ,0,0,0,0,0, ,988,3.5,-82.3,-0.7,-3.9,-2.3,25,989.071,6.35939,-68.6744,-1.58247,-3.43354,-2.07029,
2026_06_10_20_11_05.679,3.85,29.8,0,0.758,0,0,0,0, ,0,0,0,0,0, ,988.8,8.9,-84.3,-0.1,-4.2,-2.7,25,989.03,6.34967,-69.5656,-1.51041,-3.4711,-2.09647,
2026_06_10_20_11_05.700,3.85,29.9,0,0.758,0,0,0,0, ,0,0,0,0,0, ,987.5,12.5,-89.2,-0.5,-4.7,-2.7,25,988.976,6.61477,-70.6128,-1.43665,-3.53075,-2.13325,
2026_06_10_20_11_05.720,3.85,29.8,0,0.759,0,0,0,0, ,0,0,0,0,0, ,986.9,10.2,-97.6,-0.2,-3.6,-2.2,25,988.868,6.90332,-72.0014,-1.37044,-3.56849,-2.15255,
2026_06_10_20_11_05.739,3.85,29.8,0,0.759,0,0,0,0, ,0,0,0,0,0, ,987.7,8.6,-96.4,-0.2,-2.1,-2.6,25,988.772,7.05547,-73.5247,-1.29911,-3.52471,-2.16763,
2026_06_10_20_11_05.759,3.85,29.8,0,0.761,0,0,0,0, ,0,0,0,0,0, ,986.8,9.2,-94.1,-0.4,-1.6,-3.1,25,988.68,7.16787,-74.8486,-1.23823,-3.42265,-2.20921,
2026_06_10_20_11_05.779,3.85,30,0,0.757,0,0,0,0, ,0,0,0,0,0, ,988.1,12.2,-90.8,0.2,-1.3,-3,25,988.605,7.38311,-75.9212,-1.16887,-3.30245,-2.26045,
2026_06_10_20_11_05.799,3.85,29.9,0,0.759,0,0,0,0, ,0,0,0,0,0, ,987.6,15.5,-96.1,0,-1,-2.7,25,988.559,7.77718,-76.9894,-1.09155,-3.17128,-2.29637,
2026_06_10_20_11_05.819,3.85,29.8,0,0.758,0,0,0,0, ,0,0,0,0,0, ,986.9,12.4,-107.2,1.1,0.8,-2.2,25,988.479,8.15334,-78.4921,-0.991514,-2.98412,-2.30573,
2026_06_10_20_11_05.839,3.85,29.8,0,0.758,0,0,0,0, ,0,0,0,0,0, ,987.6,15.9,-104.4,2.4,3.6,-1.9,25,988.404,8.51876,-80.1562,-0.824453,-2.66822,-2.29015,
2026_06_10_20_11_05.859,3.85,29.8,0,0.758,0,0,0,0, ,0,0,0,0,0, ,987.6,18,-98.7,3.2,6.4,-1.2,25,988.355,9.03254,-81.4599,-0.603588,-2.20093,-2.24505,
2026_06_10_20_11_05.878,3.85,29.9,0,0.757,0,0,0,0, ,0,0,0,0,0, ,987.6,17.3,-94.2,2.2,7.9,-0.1,25,988.309,9.55766,-82.3733,-0.402276,-1.63111,-2.14785,
2026_06_10_20_11_05.897,3.85,29.8,0,0.758,0,0,0,0, ,0,0,0,0,0, ,987.7,10.3,-91.5,2.7,10,0.3,25,988.269,9.81618,-83.0118,-0.228465,-0.986326,-2.01087,
2026_06_10_20_11_05.918,3.85,29.8,0,0.759,0,0,0,0, ,0,0,0,0,0, ,988.6,9.6,-84.4,3.5,11.2,0,25,988.262,9.82434,-83.3127,-0.0256369,-0.280284,-1.87919,
2026_06_10_20_11_05.938,3.85,29.9,0,0.758,0,0,0,0, ,0,0,0,0,0, ,989.5,7,-56.2,1.5,10.4,-0.1,25,988.31,9.73145,-82.5197,0.128269,0.394921,-1.76773,
2026_06_10_20_11_05.957,3.85,29.7,0,0.757,0,0,0,0, ,0,0,0,0,0, ,990.7,9.7,-54.3,-1,7.2,-0.2,25,988.419,9.64727,-80.858,0.135687,0.907105,-1.66915,
2026_06_10_20_11_05.977,3.85,29.8,0,0.759,0,0,0,0.001, ,0,0,0,0,0, ,989.8,9.8,-65.6,-3.6,5,-0.1,25,988.53,9.65353,-79.5839,-0.0127376,1.22355,-1.57657,
2026_06_10_20_11_05.997,3.85,29.9,0,0.759,0,0,0,0, ,0,0,0,0,0, ,989.9,5,-63.3,-0.9,5.1,-0.2,25,988.611,9.5162,-78.6617,-0.149071,1.45672,-1.48964,
2026_06_10_20_11_06.016,3.85,29.9,0,0.759,0,0,0,0, ,0,0,0,0,0, ,990.6,-0.7,-51.7,-0.4,3.2,-1.2,25,988.711,9.06732,-77.3721,-0.179596,1.62084,-1.44152,
2026_06_10_20_11_06.037,3.85,29.9,0,0.759,0,0,0,0, ,0,0,0,0,0, ,991.8,-30.3,-38.9,-3.2,0.5,-3.5,25,988.862,7.57025,-75.4177,-0.278339,1.63481,-1.49688,
2026_06_10_20_11_06.056,3.85,29.8,0,0.758,0,0,0,0, ,0,0,0,0,0, ,987.7,4.2,-80.2,-1.1,0.2,-3.2,25,988.916,6.31371,-74.4508,-0.392394,1.55651,-1.60981,
2026_06_10_20_11_06.078,3.85,29.8,0,0.758,0,0,0,0, ,0,0,0,0,0, ,990.4,2.4,-42.8,-4.1,-0.7,-3.5,25,988.925,6.13006,-73.6616,-0.52692,1.44643,-1.71585,
2026_06_10_20_11_06.095,3.85,29.9,0,0.759,0,0,0,0, ,0,0,0,0,0, ,990.7,11.4,-55.1,-2.3,-3.2,-3.8,25,989.024,6.17698,-72.1557,-0.689811,1.23946,-1.83371,
2026_06_10_20_11_06.115,3.85,29.8,0,0.758,0,0,0,0, ,0,0,0,0,0, ,990.9,-10.2,-60,-4.6,-4.4,-4.4,25,989.132,5.83713,-71.2657,-0.85801,0.932368,-1.97181,
2026_06_10_20_11_06.135,3.85,29.8,0,0.758,0,0,0,0, ,0,0,0,0,0, ,987,69.5,-100.5,-17,-1.5,-10.9,25,989.121,7.28823,-71.8132,-1.46385,0.695786,-2.31783,
2026_06_10_20_11_06.155,3.85,29.8,0,0.758,0,0,0,0.001, ,0,0,0,0,0, ,985.8,73.8,-120.8,-9.8,2.9,-5.4,25,988.955,11.2103,-74.1798,-2.19121,0.696043,-2.67323,
2026_06_10_20_11_06.175,3.85,29.9,0,0.757,0,0,0,0.001, ,0,0,0,0,0, ,990.2,5,-43.3,-2,6.9,0.8,25,988.897,12.9281,-74.6594,-2.41721,0.952222,-2.65048,
2026_06_10_20_11_06.195,3.85,29.9,0,0.758,0,0,0,0, ,0,0,0,0,0, ,988.6,28.5,-83.4,-10.8,3,0.5,25,988.927,13.161,-73.9702,-2.65991,1.19584,-2.44936,
2026_06_10_20_11_06.215,3.85,29.9,0,0.758,0,0,0,0, ,0,0,0,0,0, ,990.1,21.6,-64.2,-4.5,8.4,1.7,25,988.953,13.8855,-73.9599,-2.964,1.47031,-2.23307,
2026_06_10_20_11_06.234,3.85,29.8,0,0.759,0,0,0,0, ,0,0,0,0,0, ,991.3,9.1,-21.9,-15.6,4.4,2.9,25,989.06,13.9747,-72.0763,-3.3958,1.77071,-1.95684,
2026_06_10_20_11_06.254,3.85,29.8,0,0.759,0,0,0,0.001, ,0,0,0,0,0, ,990.3,13.4,-88.8,-17.7,4.6,2.8,25,989.166,13.8087,-71.057,-4.20348,1.93703,-1.66392,
2026_06_10_20_11_06.274,3.85,29.9,0,0.758,0,0,0,0.001, ,0,0,0,0,0, ,988.1,13,-91.1,-14.7,12.3,3.8,25,989.168,13.7716,-72.2083,-4.93452,2.33391,-1.36143,
2026_06_10_20_11_06.294,3.85,29.7,0,0.759,0,0,0,0, ,0,0,0,0,0, ,989.5,1.2,-58.8,-8.7,15.9,3.5,25,989.145,13.365,-72.3754,-5.34679,3.05091,-1.05605,
2026_06_10_20_11_06.314,3.85,29.8,0,0.758,0,0,0,0.001, ,0,0,0,0,0, ,984.1,-11.7,-201.2,33.4,25.1,-6.3,25,989.002,12.2307,-75.8869,-4.26839,4.11421,-1.07701,
2026_06_10_20_11_06.333,3.85,29.8,0,0.758,0,0,0,0.001, ,0,0,0,0,0, ,989.2,25.5,11.1,30,42.6,-4,25,988.859,11.9058,-77.0546,-2.07657,5.92624,-1.32521,
2026_06_10_20_11_06.354,3.85,29.9,0,0.759,0,0,0,0.001, ,0,0,0,0,0, ,992.4,41,54.9,10,27.7,-10,25,988.977,13.2065,-70.3482,-0.731276,7.70706,-1.67101,
2026_06_10_20_11_06.373,3.85,29.7,0,0.758,0,0,0,0, ,0,0,0,0,0, ,993.2,54.9,40.8,-0.6,19.8,-3,25,989.21,15.3237,-63.1455,-0.400307,8.68468,-1.96528,
2026_06_10_20_11_06.393,3.85,29.7,0,0.758,0,0,0,0.002, ,0,0,0,0,0, ,992.9,13.7,66,-4.6,7.8,0.4,25,989.444,16.4801,-56.0435,-0.534351,8.99639,-1.92474,
2026_06_10_20_11_06.412,3.85,29.8,0,0.76,0,0,0,0.002, ,0,0,0,0,0, ,991.8,8.7,-37.4,5.5,2.7,-3.9,25,989.621,16.1583,-51.7569,-0.474367,8.7681,-1.91409,
2026_06_10_20_11_06.432,3.85,29.8,0,0.759,0,0,0,0.001, ,0,0,0,0,0, ,993.2,-48.5,-15.7,-1.7,9.6,-7.3,25,989.797,13.961,-50.2209,-0.329679,8.60855,-2.1387,
2026_06_10_20_11_06.452,3.85,29.8,0,0.758,0,0,0,0.001, ,0,0,0,0,0, ,991.9,64.2,-9.3,7,9.6,-6.8,25,989.965,13.5886,-47.9223,-0.148105,8.66897,-2.43798,
2026_06_10_20_11_06.472,3.85,29.8,0,0.758,0,0,0,0.001, ,0,0,0,0,0, ,995.3,-34,19.1,5.1,9.6,3.9,25,990.186,13.6807,-44.7034,0.229592,8.72571,-2.37778,
2026_06_10_20_11_06.492,3.85,29.9,0,0.759,0,0,0,0.001, ,0,0,0,0,0, ,992,-17.8,32.8,44.9,5.7,1.5,25,990.397,11.2688,-40.398,1.73904,8.66015,-2.06835,
2026_06_10_20_11_06.512,3.85,29.8,0,0.759,0,0,0,0, ,0,0,0,0,0, ,993.1,9,62,15.9,1.4,1.7,25,990.528,10.3139,-35.0478,3.48557,8.34875,-1.84481,
2026_06_10_20_11_06.532,3.85,29.8,0,0.759,0,0,0,0.001, ,0,0,0,0,0, ,993.4,-9.5,66,2.8,-9.7,-1.9,25,990.694,9.6702,-29.0121,3.84293,7.58711,-1.73849,
2026_06_10_20_11_06.551,3.85,29.9,0,0.76,0,0,0,0.001, ,0,0,0,0,0, ,992.9,17.9,-15.2,7.8,-12.5,-2,25,990.844,9.33686,-25.6963,3.93172,6.44837,-1.75138,
2026_06_10_20_11_06.571,3.85,29.8,0,0.758,0,0,0,0, ,0,0,0,0,0, ,990.7,88.3,-51.8,9,-3,5,25,990.902,12.0037,-26.1719,4.20401,5.58315,-1.55324,
2026_06_10_20_11_06.591,3.85,29.8,0,0.758,0,0,0,0.001, ,0,0,0,0,0, ,993.6,13.5,5.3,16.7,1.2,13.3,25,990.978,14.3739,-25.9938,4.73087,5.18809,-0.901016,
2026_06_10_20_11_06.610,3.85,29.7,0,0.758,0,0,0,0.001, ,0,0,0,0,0, ,995.6,-30.2,14.2,-1.3,0.9,11.6,25,991.199,12.9892,-23.8157,4.9118,4.93592,-0.0874383,
2026_06_10_20_11_06.631,3.85,29.7,0,0.759,0,0,0,0.002, ,0,0,0,0,0, ,990.2,-47.6,16.8,-7.9,0,4.7,25,991.303,9.82719,-21.4199,4.33218,4.66256,0.414531,
2026_06_10_20_11_06.650,3.85,29.8,0,0.758,0,0,0,0.002, ,0,0,0,0,0, ,992.9,7,3.7,-9.6,-0.8,2.8,25,991.318,7.99131,-19.49,3.53498,4.35406,0.617786,
2026_06_10_20_11_06.670,3.85,29.8,0,0.759,0,0,0,0.001, ,0,0,0,0,0, ,994.9,9.5,-9,-10.9,0.9,6.6,25,991.475,8.00708,-18.4638,2.69496,4.09178,0.866546,
2026_06_10_20_11_06.690,3.85,29.7,0,0.759,0,0,0,0.001, ,0,0,0,0,0, ,990.9,-20.5,6.5,-8,2.5,7,25,991.562,7.18399,-17.4148,1.95488,3.94603,1.22812,
2026_06_10_20_11_06.710,3.85,29.7,0,0.758,0,0,0,0.002, ,0,0,0,0,0, ,990.3,-38.6,37.8,-8.7,0.2,2.8,25,991.503,4.94551,-15.0039,1.32692,3.78784,1.45187,
2026_06_10_20_11_06.730,3.85,29.7,0,0.758,0,0,0,0.002, ,0,0,0,0,0, ,991.9,-9.7,-21.2,0.2,-1.7,-1.4,25,991.479,3.1725,-13.5838,0.987079,3.51131,1.40605,
2026_06_10_20_11_06.749,3.85,29.7,0,0.758,0,0,0,0.002, ,0,0,0,0,0, ,994.1,-15.7,-48.3,1,7.1,-0.9,25,991.571,2.20527,-14.8736,0.963491,3.46187,1.25029,
2026_06_10_20_11_06.769,3.85,29.8,0,0.757,0,0,0,0.002, ,0,0,0,0,0, ,992.1,-18.9,-2.3,-4.3,14.5,-0.8,25,991.665,1.01667,-15.509,0.804232,3.90904,1.12231,
2026_06_10_20_11_06.788,3.85,29.8,0,0.759,0,0,0,0.001, ,0,0,0,0,0, ,991.4,-16.7,101.3,1.4,7.8,-1.3,25,991.67,-0.129969,-11.5475,0.666865,4.35029,0.989933,
2026_06_10_20_11_06.809,3.85,29.8,0,0.758,0,0,0,0.001, ,0,0,0,0,0, ,990.3,-13.5,66.1,-3.8,-5.3,-2.1,25,991.62,-1.04221,-5.74333,0.553103,4.16136,0.826015,
2026_06_10_20_11_06.829,3.85,29.7,0,0.758,0,0,0,0.001, ,0,0,0,0,0, ,993.6,-17.4,-29.2,-4.8,-3.8,-2.2,25,991.64,-1.92018,-4.26905,0.257367,3.63051,0.644664,
2026_06_10_20_11_06.849,3.85,29.7,0,0.759,0,0,0,0.002, ,0,0,0,0,0, ,994.5,5.3,8,3.7,1.6,-3.8,25,991.787,-2.17184,-4.65484,0.208168,3.34225,0.422567,
2026_06_10_20_11_06.868,3.85,29.8,0,0.759,0,0,0,0.002, ,0,0,0,0,0, ,992.1,0.3,48.4,-1.3,0.5,-2.1,25,991.879,-1.86887,-2.65275,0.268607,3.20256,0.217051,
2026_06_10_20_11_06.888,3.85,29.8,0,0.758,0,0,0,0.001, ,0,0,0,0,0, ,992.3,-19.5,48.2,-1.2,-6.1,-2.7,25,991.899,-2.33999,0.452184,0.176067,2.83678,0.0575749,
2026_06_10_20_11_06.908,3.85,29.7,0,0.758,0,0,0,0.001, ,0,0,0,0,0, ,985.2,7.8,13.9,-5.9,-11.7,-5.3,25,991.707,-2.55388,2.31674,-0.0509899,2.12157,-0.189684,
2026_06_10_20_11_06.928,3.85,29.7,0,0.759,0,0,0,0.002, ,0,0,0,0,0, ,993.7,-19.5,47.8,2,-23.8,-14.8,25,991.569,-2.75473,4.05548,-0.166711,0.910649,-0.790547,
2026_06_10_20_11_06.948,3.85,29.7,0,0.758,0,0,0,0.002, ,0,0,0,0,0, ,993.6,-14.4,-30.2,-13.1,-15.7,-3.3,25,991.696,-3.61976,4.3446,-0.494755,-0.348359,-1.29386,
2026_06_10_20_11_06.968,3.85,29.7,0,0.757,0,0,0,0.002, ,0,0,0,0,0, ,991.9,-5.1,7.2,-1.7,-11.6,-2.7,25,991.76,-3.99332,3.37907,-0.915543,-1.15893,-1.39783,
2026_06_10_20_11_06.987,3.85,29.7,0,0.758,0,0,0,0.002, ,0,0,0,0,0, ,996,-8.7,-0.4,-6.2,-16.1,-6.9,25,991.894,-4.17045,3.38035,-1.10046,-1.93229,-1.60515,
2026_06_10_20_11_07.007,3.85,29.8,0,0.76,0,0,0,0.002, ,0,0,0,0,0, ,992.3,6.1,-80.2,-5.6,-13.5,-6.7,25,992.031,-3.99553,0.718577,-1.39293,-2.71642,-1.92171,
2026_06_10_20_11_07.027,3.85,29.7,0,0.758,0,0,0,0.001, ,0,0,0,0,0, ,991,10.8,-47.2,-3.2,-4.4,-5.1,25,992.008,-3.23713,-3.20693,-1.57617,-3.09627,-2.16413,
2026_06_10_20_11_07.047,3.85,29.7,0,0.759,0,0,0,0.002, ,0,0,0,0,0, ,984.6,17,-12,0.8,-8.9,-7.8,25,991.751,-2.19283,-4.81526,-1.55325,-3.31283,-2.4253,
2026_06_10_20_11_07.067,3.85,29.8,0,0.758,0,0,0,0.002, ,0,0,0,0,0, ,1056.5,-1,-8.5,2.5,-23.2,-7.7,25,993.506,-1.57171,-5.14644,-1.35805,-4.089,-2.74978,
2026_06_10_20_11_07.086,3.85,29.7,0,0.76,0,0,0,0.002, ,0,0,0,0,0, ,1033,-2.9,-3.4,6.4,-26.7,0.7,25,996.629,-1.59476,-5.1954,-1.00412,-5.36022,-2.79549,
2026_06_10_20_11_07.106,3.85,29.7,0,0.759,0,0,0,0.002, ,0,0,0,0,0, ,987.4,2.1,-7.2,3.7,-41.8,0,25,997.456,-1.52196,-5.20178,-0.635199,-7.12069,-2.60382,
2026_06_10_20_11_07.126,3.85,29.7,0,0.758,0,0,0,0.002, ,0,0,0,0,0, ,978,30.5,-85.2,-1.8,-60.2,-5,25,996.557,-0.43593,-7.70011,-0.538601,-9.79458,-2.59749,
2026_06_10_20_11_07.145,3.85,29.8,0,0.759,0,0,0,0.002, ,0,0,0,0,0, ,1006.7,17,-95.9,-6.1,-55.2,-6.9,25,996.3,1.0379,-12.7488,-0.746483,-12.7138,-2.80178,
2026_06_10_20_11_07.165,3.85,29.7,0,0.758,0,0,0,0.002, ,0,0,0,0,0, ,1041.3,-34.5,-19.8,-8.8,-51.5,-6.1,25,997.988,0.44145,-15.4971,-1.15498,-15.1901,-3.02714,
2026_06_10_20_11_07.185,3.85,29.7,0,0.757,0,0,0,0.003, ,0,0,0,0,0, ,1052.3,5.6,-159.3,-15.1,-48.6,-5.2,25,1000.96,-0.465998,-20.0097,-1.8128,-17.3144,-3.18697,
2026_06_10_20_11_07.205,3.85,29.7,0,0.758,0,0,0,0.003, ,0,0,0,0,0, ,997.1,12.8,-186,-9.7,-36.8,5.6,25,1002.41,0.123024,-29.3112,-2.45796,-18.8613,-2.98058,
2026_06_10_20_11_07.225,3.85,29.7,0,0.759,0,0,0,0.003, ,0,0,0,0,0, ,960.9,-1,-135.8,-1.4,-34.1,-5,25,1000.98,0.475058,-37.3299,-2.64638,-19.8722,-2.78067,
2026_06_10_20_11_07.245,3.85,29.8,0,0.758,0,0,0,0.003, ,0,0,0,0,0, ,906.2,51.7,-164.5,1.8,-55,-12.3,25,996.874,1.99087,-44.2049,-2.47293,-21.376,-3.13833,
2026_06_10_20_11_07.264,3.85,29.8,0,0.758,0,0,0,0.002, ,0,0,0,0,0, ,948.9,72.5,-277.8,3.3,-69.9,-10.7,25,992.649,5.65377,-54.9875,-2.16684,-23.8789,-3.64787,
2026_06_10_20_11_07.284,3.85,29.8,0,0.758,0,0,0,0.002, ,0,0,0,0,0, ,935.7,-14.1,-248.2,9.8,-73.2,-3.7,25,989.581,7.08862,-67.6633,-1.63566,-26.7839,-3.86433,
2026_06_10_20_11_07.304,3.85,29.7,0,0.758,0,0,0,0.002, ,0,0,0,0,0, ,950.1,-79.1,-282.8,18.5,-97.6,1.7,25,986.736,3.81697,-79.7189,-0.673722,-30.3558,-3.68978,
2026_06_10_20_11_07.324,3.85,29.7,0,0.758,0,0,0,0.003, ,0,0,0,0,0, ,922.1,44.9,-251.5,25.7,-102.9,17.2,25,983.651,2.54234,-91.1405,0.714052,-34.615,-2.88908,
2026_06_10_20_11_07.343,3.85,29.8,0,0.758,0,0,0,0.003, ,0,0,0,0,0, ,946.1,19,-271.8,10.7,-90.2,19.7,25,980.631,4.33437,-101.531,1.7796,-38.3891,-1.58873,
2026_06_10_20_11_07.363,3.85,29.7,0,0.759,0,0,0,0.002, ,0,0,0,0,0, ,923.9,4,-362.5,-6,-80,18,25,977.851,4.77103,-114.67,1.81436,-41.2356,-0.343243,
2026_06_10_20_11_07.383,3.85,29.7,0,0.757,0,0,0,0.003, ,0,0,0,0,0, ,924.4,-16.3,-414,1.9,-68.4,25.7,25,974.578,4.10553,-131.341,1.57888,-43.2444,1.00916,
2026_06_10_20_11_07.403,3.85,29.7,0,0.759,0,0,0,0.003, ,0,0,0,0,0, ,908.8,109.8,-437.2,33.8,-67,4.8,25,971.045,6.70418,-149.273,2.5704,-44.7346,1.87696,
2026_06_10_20_11_07.423,3.85,29.7,0,0.761,0,0,0,0.003, ,0,0,0,0,0, ,864.6,-8.1,-347.7,54.7,-85.9,-72.2,25,965.905,9.39431,-164.091,5.11025,-46.6673,-0.291012,
2026_06_10_20_11_07.447,3.85,29.7,0,0.757,0,0,0,0.003, ,0,0,0,0,0, ,972.9,-63.3,-426.7,5.3,-133.1,-52.6,25,963.032,6.64638,-177.687,6.62697,-50.4961,-4.07578,
2026_06_10_20_11_07.462,3.85,29.7,0,0.759,0,0,0,0.003, ,0,0,0,0,0, ,868,17.8,-518.5,36,-173,-24.9,25,960.437,4.85504,-195.658,7.4815,-56.7455,-6.18874,
2026_06_10_20_11_07.482,3.85,29.7,0,0.759,0,0,0,0.003, ,0,0,0,0,0, ,923.7,-21.9,-503.2,-6.8,-142.4,27.8,25,956.501,4.43426,-214.865,7.91528,-62.8974,-5.72325,
2026_06_10_20_11_07.502,3.85,29.8,0,0.758,0,0,0,0.003, ,0,0,0,0,0, ,810,-69.4,-480.9,1.4,-108.5,31,25,951.038,1.38225,-231.756,7.26841,-66.7092,-3.58293,
2026_06_10_20_11_07.522,3.85,29.8,0,0.758,0,0,0,0.002, ,0,0,0,0,0, ,735.5,-9,-532.5,4.2,-89.3,11.2,25,940.174,-1.09073,-248.511,6.99612,-68.6709,-2.07881,
2026_06_10_20_11_07.542,3.85,29.7,0,0.759,0,0,0,0.002, ,0,0,0,0,0, ,671.7,-26.4,-492.1,-8.7,-86.3,-6.2,25,925.758,-2.10286,-264.585,6.43268,-69.8365,-1.79979,
2026_06_10_20_11_07.561,3.85,29.8,0,0.759,0,0,0,0.003, ,0,0,0,0,0, ,687.9,-5.2,-674.6,-15.9,-78.3,-14,25,910.769,-2.93753,-284.01,5.29116,-70.596,-2.30559,
2026_06_10_20_11_07.582,3.85,29.8,0,0.759,0,0,0,0.002, ,0,0,0,0,0, ,672.7,10.9,-714.5,-6.7,-84.1,-26.4,25,896.725,-2.58485,-309.027,4.28014,-71.2422,-3.39603,
2026_06_10_20_11_07.601,3.85,29.7,0,0.758,0,0,0,0.002, ,0,0,0,0,0, ,637.4,47.8,-696.1,9.4,-110,-37.2,25,881.998,-0.63882,-333.175,4.10158,-72.8149,-5.12689,
2026_06_10_20_11_07.621,3.85,29.8,0,0.76,0,0,0,0.003, ,0,0,0,0,0, ,683.7,14.8,-677.6,-1.8,-136.2,-27.2,25,868.504,1.30745,-354.727,4.0832,-75.8791,-6.77666,
2026_06_10_20_11_07.641,3.85,29.8,0,0.757,0,0,0,0.002, ,0,0,0,0,0, ,672.6,-24.4,-708.1,-1.3,-122.7,-20.6,25,856.904,0.935279,-375.332,3.73993,-79.1436,-7.82011,
2026_06_10_20_11_07.661,3.85,29.8,0,0.758,0,0,0,0.002, ,0,0,0,0,0, ,623.4,41.8,-770.1,-2,-84.8,-21.6,25,844.174,1.40844,-397.499,3.41148,-80.643,-8.62936,
2026_06_10_20_11_07.681,3.85,29.8,0,0.759,0,0,0,0.002, ,0,0,0,0,0, ,586.7,43.4,-787.5,-9.8,-85.4,-23.1,25,829.602,3.91855,-420.734,2.84406,-80.9146,-9.46546,
2026_06_10_20_11_07.701,3.85,29.7,0,0.757,0,0,0,0.002, ,0,0,0,0,0, ,572.8,49.9,-824.9,5.6,-111.1,-26.1,25,814.377,6.5225,-444.224,2.54278,-81.971,-10.3877,
2026_06_10_20_11_07.724,3.85,29.8,0,0.758,0,0,0,0.003, ,0,0,0,0,0, ,551.2,-17.5,-829.5,7.9,-114.2,-18.2,25,798.998,7.11222,-467.561,2.79916,-83.8405,-11.1045,
2026_06_10_20_11_07.740,3.85,29.7,0,0.758,0,0,0,0.002, ,0,0,0,0,0, ,502.1,19,-842.8,8.1,-99.7,-33.7,25,782.402,6.72452,-490.022,3.11609,-85.2488,-12.0091,
2026_06_10_20_11_07.760,3.85,29.8,0,0.759,0,0,0,0.003, ,0,0,0,0,0, ,494.3,41.2,-825.5,13.4,-82.6,-30.7,25,765.083,8.14897,-510.992,3.58128,-85.6084,-13.2395,
2026_06_10_20_11_07.779,3.85,29.8,0,0.758,0,0,0,0.002, ,0,0,0,0,0, ,468.7,62.3,-851.1,3.2,-74.8,-26.7,25,747.802,10.8059,-530.938,3.86883,-85.1874,-14.1816,
2026_06_10_20_11_07.799,3.85,29.8,0,0.758,0,0,0,0.002, ,0,0,0,0,0, ,443.7,120.2,-929.9,5.8,-84.2,-24.6,25,730.033,15.708,-552.849,3.90729,-84.8408,-14.8805,
2026_06_10_20_11_07.819,3.85,29.7,0,0.757,0,0,0,0.003, ,0,0,0,0,0, ,378.1,-20.3,-805.5,-3.6,-100.7,-25.9,25,710.586,17.7946,-572.035,3.73622,-85.3045,-15.5124,
2026_06_10_20_11_07.839,3.85,29.8,0,0.76,0,0,0,0.003, ,0,0,0,0,0, ,382.3,-9.6,-913.8,3.6,-114.5,-37.2,25,690.453,15.7992,-589.561,3.50854,-86.6631,-16.4897,
2026_06_10_20_11_07.860,3.85,29.7,0,0.759,0,0,0,0.003, ,0,0,0,0,0, ,498.5,51.3,-992.4,2.4,-101.4,-13.9,25,675.215,16.107,-611.714,3.47755,-87.9603,-17.0418,
2026_06_10_20_11_07.878,3.85,29.8,0,0.758,0,0,0,0.003, ,0,0,0,0,0, ,394.2,58.7,-1041.6,12.6,-48.9,-4.7,25,661.269,18.477,-636.412,3.72267,-87.1797,-16.57,
2026_06_10_20_11_07.898,3.85,29.7,0,0.757,0,0,0,0.003, ,0,0,0,0,0, ,354.3,35.2,-861,7.6,-28,-1.5,25,643.778,20.2121,-655.6,4.11129,-84.2102,-15.7492,
2026_06_10_20_11_07.918,3.85,29.8,0,0.759,0,0,0,0.003, ,0,0,0,0,0, ,266.4,91,-862.1,7.1,-53,-2.1,25,623.46,22.8256,-668.15,4.30865,-81.5466,-14.8992,
2026_06_10_20_11_07.938,3.85,29.8,0,0.761,0,0,0,0.003, ,0,0,0,0,0, ,285.7,50,-961,-0.4,-79.3,-1,25,602.29,25.7308,-682.982,4.25023,-80.6084,-14.0857,
2026_06_10_20_11_07.958,3.85,29.8,0,0.758,0,0,0,0.003, ,0,0,0,0,0, ,309.9,41.3,-1028.5,8.6,-67.8,-2.1,25,583.735,26.9446,-701.981,4.24108,-80.1783,-13.3218,
2026_06_10_20_11_07.977,3.85,29.7,0,0.758,0,0,0,0.003, ,0,0,0,0,0, ,285.8,19.4,-1006.4,14.9,-43,10.5,25,566.314,27.1521,-721.205,4.69865,-78.6683,-12.2541,
2026_06_10_20_11_07.998,3.85,29.7,0,0.758,0,0,0,0.004, ,0,0,0,0,0, ,220,9.8,-966.4,26.3,-40.8,12.4,25,547.215,26.3872,-737.365,5.66764,-76.4278,-10.8096,
2026_06_10_20_11_08.017,3.85,29.7,0,0.759,0,0,0,0.004, ,0,0,0,0,0, ,183.5,13.4,-921.7,37.1,-47.6,9.1,25,526.163,25.4861,-749.96,7.25399,-74.4639,-9.49582,
2026_06_10_20_11_08.037,3.85,29.8,0,0.759,0,0,0,0.004, ,0,0,0,0,0, ,203.7,-12.8,-896.7,34.6,-51.1,8.5,25,505.898,23.9513,-759.663,8.99656,-72.9335,-8.38091,
2026_06_10_20_11_08.057,3.85,29.8,0,0.758,0,0,0,0.003, ,0,0,0,0,0, ,180.2,3.9,-995.9,13.8,-15.3,22.9,25,486.767,22.2206,-771.037,9.92302,-70.5122,-6.91348,
2026_06_10_20_11_08.077,3.85,29.7,0,0.758,0,0,0,0.003, ,0,0,0,0,0, ,197.3,-10.9,-1110.3,14.8,61.4,39.4,25,468.606,20.6533,-788.225,10.1897,-64.8108,-4.59399,
2026_06_10_20_11_08.096,3.85,29.7,0,0.758,0,0,0,0.004, ,0,0,0,0,0, ,211,-48.3,-977.1,23.9,65.2,37,25,452.491,17.591,-803.793,10.7479,-57.004,-1.98623,
2026_06_10_20_11_08.116,3.85,29.7,0,0.759,0,0,0,0.004, ,0,0,0,0,0, ,153.9,-17.4,-903.4,11.1,2.3,31.2,25,436.035,14.5172,-812.108,11.1594,-51.4737,0.212773,
2026_06_10_20_11_08.137,3.85,29.7,0,0.758,0,0,0,0.004, ,0,0,0,0,0, ,164.9,-26.1,-953,1.6,-24.8,17.4,25,419.178,12.3072,-819.183,10.8663,-49.0226,1.68059,
2026_06_10_20_11_08.155,3.85,29.7,0,0.759,0,0,0,0.004, ,0,0,0,0,0, ,164.5,-5,-1019,-5.7,-10.7,8.4,25,403.671,10.6096,-829.348,10.0792,-47.1169,2.36427,
2026_06_10_20_11_08.176,3.85,29.7,0,0.758,0,0,0,0.004, ,0,0,0,0,0, ,158.2,-16.9,-969.1,-12.2,-34.6,2.4,25,388.904,9.29585,-839.385,8.91964,-45.626,2.54926,
2026_06_10_20_11_08.196,3.85,29.8,0,0.758,0,0,0,0.004, ,0,0,0,0,0, ,192.9,-47.3,-945.6,-11.5,-76,-2.5,25,375.903,6.77329,-846.573,7.65399,-46.2155,2.39087,
2026_06_10_20_11_08.216,3.85,29.8,0,0.757,0,0,0,0.003, ,0,0,0,0,0, ,160.2,-58.1,-968.1,-9.5,-67.9,3.2,25,363.755,3.14914,-853.293,6.54773,-47.7837,2.2665,
2026_06_10_20_11_08.235,3.85,29.7,0,0.758,0,0,0,0.003, ,0,0,0,0,0, ,113.2,-28.9,-976.6,-4.4,-15.3,7.9,25,349.919,0.306455,-860.548,5.72521,-47.4069,2.46659,
2026_06_10_20_11_08.255,3.85,29.7,0,0.758,0,0,0,0.004, ,0,0,0,0,0, ,121.5,-12.8,-988.6,-6,23,4.3,25,335.747,-0.982766,-867.986,5.05946,-44.2834,2.688,
2026_06_10_20_11_08.274,3.85,29.7,0,0.759,0,0,0,0.004, ,0,0,0,0,0, ,114.2,2,-1047.4,-8.6,17.7,0.8,25,322.468,-1.25194,-877.127,4.3063,-40.3448,2.67959,
2026_06_10_20_11_08.294,3.85,29.7,0,0.758,0,0,0,0.004, ,0,0,0,0,0, ,109,-11.4,-1031.7,-6.4,0.2,-1.8,25,309.619,-1.46206,-887.025,3.58686,-37.3409,2.48584,
2026_06_10_20_11_08.314,3.85,29.7,0,0.758,0,0,0,0.004, ,0,0,0,0,0, ,116.5,-19.1,-965.2,-8.6,-33.1,-8.6,25,297.622,-2.30226,-893.815,2.91125,-36.0679,2.01748,
2026_06_10_20_11_08.334,3.85,29.7,0,0.759,0,0,0,0.004, ,0,0,0,0,0, ,131.7,-23.4,-968.8,-6.8,-33,-5.3,25,287.048,-3.45689,-898.274,2.26463,-35.884,1.47102,
2026_06_10_20_11_08.354,3.85,29.7,0,0.758,0,0,0,0.004, ,0,0,0,0,0, ,106,-9.5,-1035.7,-7.6,-21.6,-2.9,25,276.798,-4.24866,-904.61,1.68788,-35.3609,1.13154,
2026_06_10_20_11_08.374,3.85,29.7,0,0.759,0,0,0,0.004, ,0,0,0,0,0, ,55.9,-8.7,-974.3,-4.8,-38.8,-9.6,25,264.864,-4.54428,-910.728,1.20721,-35.0464,0.681728,
2026_06_10_20_11_08.393,3.85,29.8,0,0.759,0,0,0,0.004, ,0,0,0,0,0, ,69.8,-19.5,-923.4,-9.1,-53.8,-13.2,25,252.554,-5.12659,-913.051,0.710131,-35.7321,-0.0545027,
2026_06_10_20_11_08.413,3.85,29.8,0,0.757,0,0,0,0.003, ,0,0,0,0,0, ,88.7,-18.3,-936.7,-12.7,-44.8,-4.3,25,241.993,-5.9659,-914.087,0.00263847,-36.5589,-0.584384,
2026_06_10_20_11_08.433,3.85,29.8,0,0.758,0,0,0,0.003, ,0,0,0,0,0, ,80.6,0.7,-948.6,-12.9,-23.6,-0.3,25,232.405,-6.13861,-915.827,-0.777522,-36.4152,-0.68893,
2026_06_10_20_11_08.452,3.85,29.8,0,0.758,0,0,0,0.003, ,0,0,0,0,0, ,73.9,5,-1042.4,-11.8,-14.3,1.7,25,222.95,-5.59086,-920.683,-1.48272,-35.3509,-0.604292,
2026_06_10_20_11_08.472,3.85,29.7,0,0.758,0,0,0,0.003, ,0,0,0,0,0, ,89.5,-10.3,-1171.9,-5.5,-12.9,0,25,214.343,-5.41165,-932.045,-1.91948,-34.0255,-0.515671,
2026_06_10_20_11_08.492,3.85,29.8,0,0.757,0,0,0,0.004, ,0,0,0,0,0, ,114.7,-30.3,-1167.4,5.3,2.2,1.5,25,207.503,-6.31891,-946.524,-1.8086,-32.278,-0.438544,
2026_06_10_20_11_08.512,3.85,29.8,0,0.759,0,0,0,0.003, ,0,0,0,0,0, ,97,-38.9,-1091.6,9,-0.7,2.2,25,201.308,-8.04229,-957.674,-1.26269,-30.2654,-0.299086,
2026_06_10_20_11_08.532,3.85,29.8,0,0.758,0,0,0,0.003, ,0,0,0,0,0, ,71,-9.7,-944.5,9.2,-6.5,6.1,25,194.16,-9.033,-961.354,-0.631211,-28.6405,-0.0279699,
2026_06_10_20_11_08.552,3.85,29.7,0,0.759,0,0,0,0.003, ,0,0,0,0,0, ,18.5,-22,-866.8,0.4,-8.3,2.4,25,185.055,-9.44841,-957.959,-0.300246,-27.3461,0.232719,
2026_06_10_20_11_08.572,3.85,29.7,0,0.758,0,0,0,0.004, ,0,0,0,0,0, ,30,-15.6,-920.2,-8.7,-6.5,0.2,25,175.256,-10.0183,-954.031,-0.534841,-26.1307,0.297756,
2026_06_10_20_11_08.592,3.85,29.7,0,0.757,0,0,0,0.004, ,0,0,0,0,0, ,9.6,-20.1,-1016.2,-7.2,-7.1,-0.5,25,165.783,-10.4955,-954.895,-0.986702,-24.9527,0.270471,
2026_06_10_20_11_08.611,3.85,29.7,0,0.759,0,0,0,0.004, ,0,0,0,0,0, ,54.9,-5.9,-1041.7,-4.3,-7.2,-1.8,25,157.646,-10.6481,-959.407,-1.27697,-23.8679,0.183911,
2026_06_10_20_11_08.631,3.85,29.7,0,0.759,0,0,0,0.004, ,0,0,0,0,0, ,47.7,-1.2,-973.6,-0.4,-5.3,-0.6,25,151.166,-10.2156,-962.347,-1.34235,-22.7943,0.0995791,
2026_06_10_20_11_08.651,3.85,29.8,0,0.758,0,0,0,0.004, ,0,0,0,0,0, ,61.2,-2.3,-960.6,-3.2,-5,-0.8,25,145.272,-9.69972,-962.637,-1.37024,-21.7191,0.0508548,
2026_06_10_20_11_08.669,3.85,29.7,0,0.759,0,0,0,0.004, ,0,0,0,0,0, ,28.6,10,-1043,-5.3,-9.9,0,25,139.155,-8.87403,-965.023,-1.54573,-20.8495,0.0233808,
2026_06_10_20_11_08.693,3.85,29.7,0,0.759,0,0,0,0.004, ,0,0,0,0,0, ,30.6,7.6,-1023.9,-1.1,-14.3,-2.9,25,132.479,-7.79702,-969.193,-1.64653,-20.3164,-0.0664033,
2026_06_10_20_11_08.711,3.85,29.7,0,0.758,0,0,0,0.005, ,0,0,0,0,0, ,26.6,1.9,-975.2,-1.4,-12.4,-2.5,25,126.149,-7.03244,-971.043,-1.62237,-19.8919,-0.226888,
2026_06_10_20_11_08.730,3.85,29.7,0,0.758,0,0,0,0.005, ,0,0,0,0,0, ,26.4,-0.1,-983.8,-2.8,-4.7,-0.3,25,120.077,-6.54905,-971.558,-1.65148,-19.2007,-0.298375,
2026_06_10_20_11_08.750,3.85,29.7,0,0.759,0,0,0,0.005, ,0,0,0,0,0, ,10.3,0.7,-1007.8,-1.2,-0.9,2.2,25,113.878,-6.13169,-973.035,-1.67271,-18.2013,-0.222302,
2026_06_10_20_11_08.770,3.85,29.8,0,0.759,0,0,0,0.005, ,0,0,0,0,0, ,-27.2,9.7,-1017.2,-0.5,-0.7,0.1,25,106.424,-5.44117,-975.44,-1.62258,-17.1409,-0.138677,
2026_06_10_20_11_08.789,3.85,29.7,0,0.759,0,0,0,0.004, ,0,0,0,0,0, ,-9.5,9.2,-1016.6,-1.4,-2.2,-3.4,25,98.8202,-4.53373,-977.967,-1.58159,-16.1847,-0.230773,
2026_06_10_20_11_08.809,3.85,29.8,0,0.757,0,0,0,0.005, ,0,0,0,0,0, ,22.7,-3.5,-970.4,-2.3,0.1,-2.8,25,93.2005,-4.08379,-978.913,-1.59795,-15.2625,-0.405617,
2026_06_10_20_11_08.832,3.85,29.6,0,0.759,0,0,0,0.004, ,0,0,0,0,0, ,7.5,0.2,-988,-0.4,7.4,-1.8,25,88.4413,-3.93548,-978.931,-1.58284,-14.1039,-0.521056,
2026_06_10_20_11_08.849,3.85,29.7,0,0.759,0,0,0,0.005, ,0,0,0,0,0, ,14.5,3.1,-992.3,-0.4,6.6,-3,25,83.7222,-3.59511,-979.614,-1.51076,-12.8179,-0.635554,
2026_06_10_20_11_08.869,3.85,29.8,0,0.759,0,0,0,0.005, ,0,0,0,0,0, ,36.7,6.9,-1007.3,-1,2.3,-3.8,25,80.1804,-3.07135,-980.845,-1.46136,-11.7656,-0.804012,
2026_06_10_20_11_08.888,3.85,29.8,0,0.757,0,0,0,0.004, ,0,0,0,0,0, ,45.8,-1.5,-999.5,-0.6,-4.9,-1.5,25,77.8081,-2.71966,-982.219,-1.42105,-11.1279,-0.916502,
2026_06_10_20_11_08.908,3.85,29.7,0,0.759,0,0,0,0.004, ,0,0,0,0,0, ,34.3,3.4,-988.6,-0.9,-4.1,0,25,75.5072,-2.49604,-982.94,-1.38016,-10.724,-0.906356,
2026_06_10_20_11_08.928,3.85,29.8,0,0.759,0,0,0,0.005, ,0,0,0,0,0, ,23.4,4.7,-988.7,-0.3,0,0.3,25,72.664,-2.09714,-983.288,-1.33262,-10.1954,-0.841984,
2026_06_10_20_11_08.948,3.85,29.8,0,0.759,0,0,0,0.004, ,0,0,0,0,0, ,14.4,5,-993.8,-1.2,0.6,-1.1,25,69.3878,-1.6738,-983.773,-1.29712,-9.55585,-0.815051,
2026_06_10_20_11_08.968,3.85,29.8,0,0.76,0,0,0,0.004, ,0,0,0,0,0, ,16.3,1.7,-1004.3,-2.4,-3.9,-1.6,25,66.0948,-1.36766,-984.704,-1.32776,-9.07408,-0.847649,
2026_06_10_20_11_08.987,3.85,29.8,0,0.759,0,0,0,0.004, ,0,0,0,0,0, ,16.1,6.9,-1013.4,-2.3,-5.4,-1.2,25,63.0544,-1.02229,-986.175,-1.39005,-8.80449,-0.881308,
2026_06_10_20_11_09.007,3.85,29.8,0,0.758,0,0,0,0.004, ,0,0,0,0,0, ,20.8,-0.3,-987.1,-0.3,-2.2,-2.5,25,60.3363,-0.758898,-987.033,-1.38457,-8.49953,-0.940338,
2026_06_10_20_11_09.027,3.85,29.7,0,0.758,0,0,0,0.004, ,0,0,0,0,0, ,17.8,-0.3,-977.2,-0.9,4.2,-0.7,25,57.8356,-0.730934,-986.736,-1.33676,-7.92065,-0.980536,
2026_06_10_20_11_09.046,3.85,29.8,0,0.76,0,0,0,0.005, ,0,0,0,0,0, ,22.9,5.2,-1000,-2.1,0.6,-2,25,55.5514,-0.537096,-986.849,-1.3467,-7.29174,-1.00305,
2026_06_10_20_11_09.067,3.85,29.7,0,0.759,0,0,0,0.004, ,0,0,0,0,0, ,19.2,3.4,-998.4,-1.5,-5.9,-1.7,25,53.4489,-0.242335,-987.602,-1.37433,-7.00888,-1.05466,
2026_06_10_20_11_09.087,3.85,29.8,0,0.759,0,0,0,0.005, ,0,0,0,0,0, ,20.1,4.1,-996.7,-1.7,-1.7,-2.7,25,51.3893,0.000947755,-988.208,-1.38808,-6.81334,-1.12446,
2026_06_10_20_11_09.106,3.85,29.8,0,0.759,0,0,0,0.004, ,0,0,0,0,0, ,16.3,6.4,-992.3,-1.6,4.3,-3.7,25,49.3668,0.320812,-988.591,-1.40404,-6.31893,-1.25093,
2026_06_10_20_11_09.126,3.85,29.8,0,0.758,0,0,0,0.004, ,0,0,0,0,0, ,24.1,5.1,-987.4,-4.7,-0.1,-4,25,47.5895,0.651653,-988.668,-1.51043,-5.80591,-1.40931,
2026_06_10_20_11_09.146,3.85,29.8,0,0.758,0,0,0,0.004, ,0,0,0,0,0, ,26.2,6.5,-1008.1,-4.9,-2.8,-3.7,25,46.2221,0.96538,-989.222,-1.71089,-5.54047,-1.55804,
2026_06_10_20_11_09.165,3.85,29.8,0,0.759,0,0,0,0.004, ,0,0,0,0,0, ,25.8,6.1,-991.6,-2,0.1,-3.5,25,44.9898,1.29046,-989.869,-1.81687,-5.28511,-1.68248,
2026_06_10_20_11_09.185,3.85,29.8,0,0.759,0,0,0,0.004, ,0,0,0,0,0, ,37.9,7,-985.7,-1.9,1.7,-1.3,25,44.1891,1.61096,-989.795,-1.82498,-4.90821,-1.7262,
2026_06_10_20_11_09.205,3.85,29.7,0,0.758,0,0,0,0.004, ,0,0,0,0,0, ,22.4,15.6,-1021.1,-1.7,1.5,-0.1,25,43.3336,2.20139,-990.624,-1.82346,-4.51161,-1.66367,
2026_06_10_20_11_09.225,3.85,29.8,0,0.759,0,0,0,0.005, ,0,0,0,0,0, ,16.1,13.4,-998.9,-2.6,-3.4,-2.1,25,41.866,2.95083,-991.805,-1.84336,-4.29458,-1.62932,
2026_06_10_20_11_09.244,3.85,29.8,0,0.759,0,0,0,0.004, ,0,0,0,0,0, ,20.9,8.3,-983.8,-4,-5.6,-2.9,25,40.4421,3.43219,-991.777,-1.93212,-4.30709,-1.68237,
2026_06_10_20_11_09.265,3.85,29.8,0,0.759,0,0,0,0.004, ,0,0,0,0,0, ,28.1,2.6,-982.4,-0.8,0,-1.3,25,39.4707,3.55515,-991.248,-1.96063,-4.21526,-1.70782,
2026_06_10_20_11_09.285,3.85,29.8,0,0.758,0,0,0,0.004, ,0,0,0,0,0, ,14,8.5,-989.5,0.1,3.1,-0.4,25,38.3481,3.67671,-990.925,-1.86249,-3.86394,-1.65555,
2026_06_10_20_11_09.304,3.85,29.8,0,0.761,0,0,0,0.004, ,0,0,0,0,0, ,7.6,12.8,-995.6,-0.4,2.7,-1.3,25,36.6694,4.10165,-991.024,-1.75813,-3.45176,-1.60646,
2026_06_10_20_11_09.324,3.85,29.8,0,0.758,0,0,0,0.004, ,0,0,0,0,0, ,30.7,12.4,-1012.8,-0.6,0,-2.3,25,35.6018,4.61951,-991.827,-1.68146,-3.15915,-1.61826,
2026_06_10_20_11_09.344,3.85,29.8,0,0.759,0,0,0,0.004, ,0,0,0,0,0, ,34.6,8.7,-986.4,-1.1,-3.2,0,25,35.422,4.9809,-992.301,-1.6308,-3.06414,-1.58972,
2026_06_10_20_11_09.363,3.85,29.8,0,0.758,0,0,0,0.004, ,0,0,0,0,0, ,23.5,10.1,-989.9,-1.6,-1.5,0.3,25,35.0337,5.25019,-992.048,-1.61369,-3.02062,-1.48371,
2026_06_10_20_11_09.383,3.85,29.8,0,0.758,0,0,0,0.004, ,0,0,0,0,0, ,7.8,13.5,-1000.4,-1.7,0.7,-2,25,33.8525,5.64932,-992.237,-1.6159,-2.86093,-1.44509,
2026_06_10_20_11_09.403,3.85,29.8,0,0.758,0,0,0,0.005, ,0,0,0,0,0, ,26,8,-987,-1.8,-1.4,-2.3,25,32.8194,5.96014,-992.326,-1.62407,-2.70792,-1.48805,
2026_06_10_20_11_09.423,3.85,29.8,0,0.758,0,0,0,0.005, ,0,0,0,0,0, ,27.9,7.8,-989.7,-3,-3.6,-1.8,25,32.4618,6.07835,-992.084,-1.67135,-2.69525,-1.52229,
2026_06_10_20_11_09.443,3.85,29.8,0,0.758,0,0,0,0.005, ,0,0,0,0,0, ,25.1,7.6,-986,-2,-0.4,-0.5,25,32.0985,6.17717,-991.826,-1.72185,-2.65288,-1.4996,
2026_06_10_20_11_09.462,3.85,29.8,0,0.761,0,0,0,0.005, ,0,0,0,0,0, ,18.3,13.7,-1005,-1.4,1.3,0.1,25,31.4648,6.44974,-992.05,-1.72052,-2.4638,-1.42041,
2026_06_10_20_11_09.482,3.85,29.8,0,0.758,0,0,0,0.005, ,0,0,0,0,0, ,13.1,16.3,-1013.5,-0.5,-1.4,-2.9,25,30.5041,6.97077,-993.098,-1.67356,-2.31671,-1.41917,
2026_06_10_20_11_09.502,3.85,29.8,0,0.758,0,0,0,0.005, ,0,0,0,0,0, ,32.7,9.7,-974.7,0.1,-0.8,-1.4,25,30.0408,7.33817,-993.159,-1.58377,-2.24257,-1.4637,
2026_06_10_20_11_09.522,3.85,29.8,0,0.76,0,0,0,0.005, ,0,0,0,0,0, ,18.4,11.1,-997.6,-0.7,1.1,-0.5,25,29.7671,7.52475,-992.732,-1.50554,-2.09677,-1.4324,
2026_06_10_20_11_09.541,3.85,29.8,0,0.758,0,0,0,0.005, ,0,0,0,0,0, ,4.5,20,-1008.6,-1.1,0.3,-1.9,25,28.6509,8.01379,-993.364,-1.46864,-1.92634,-1.41824,
2026_06_10_20_11_09.561,3.85,29.8,0,0.758,0,0,0,0.005, ,0,0,0,0,0, ,19.7,14.2,-983.8,-1,-2.1,-3.1,25,27.6423,8.56748,-993.536,-1.44313,-1.8638,-1.48416,
2026_06_10_20_11_09.582,3.85,29.8,0,0.758,0,0,0,0.005, ,0,0,0,0,0, ,33.8,5.4,-995.3,-1.6,-1.6,-2.7,25,27.588,8.64259,-993.294,-1.43441,-1.86296,-1.57043,
2026_06_10_20_11_09.601,3.85,29.8,0,0.759,0,0,0,0.005, ,0,0,0,0,0, ,14.4,12,-995.2,-1.2,-1.1,-2.3,25,27.3754,8.64609,-993.413,-1.43231,-1.8317,-1.62708,
2026_06_10_20_11_09.621,3.85,29.8,0,0.758,0,0,0,0.005, ,0,0,0,0,0, ,17.4,13.6,-1001.5,-1.7,-1.4,-2.6,25,26.6761,8.89922,-993.714,-1.43339,-1.79625,-1.67723,
2026_06_10_20_11_09.641,3.85,29.8,0,0.759,0,0,0,0.005, ,0,0,0,0,0, ,31.9,11.9,-992.6,-0.3,1.8,-2.9,25,26.5527,9.13387,-993.917,-1.40698,-1.67461,-1.7426,
2026_06_10_20_11_09.660,3.85,29.8,0,0.758,0,0,0,0.005, ,0,0,0,0,0, ,29.6,10.1,-981.4,-0.5,0.6,-1.6,25,26.8084,9.24759,-993.495,-1.34562,-1.49943,-1.77352,
2026_06_10_20_11_09.681,3.85,29.8,0,0.758,0,0,0,0.005, ,0,0,0,0,0, ,18.1,13.7,-1008.1,-1.3,-0.5,-1.4,25,26.6282,9.40922,-993.572,-1.31846,-1.40502,-1.75685,
2026_06_10_20_11_09.700,3.85,29.8,0,0.758,0,0,0,0.005, ,0,0,0,0,0, ,13.9,15.9,-1011.4,-1.4,-0.3,-1.3,25,25.9805,9.73772,-994.558,-1.32038,-1.34377,-1.73206,
2026_06_10_20_11_09.720,3.85,29.8,0,0.759,0,0,0,0.005, ,0,0,0,0,0, ,10.8,14.1,-992,-1.4,-0.3,-3.1,25,25.1499,10.0584,-994.993,-1.32523,-1.28017,-1.76057,
2026_06_10_20_11_09.739,3.85,29.8,0,0.757,0,0,0,0.005, ,0,0,0,0,0, ,23.1,10.6,-994.3,-0.5,1.5,-3.2,25,24.6502,10.198,-994.881,-1.30237,-1.16559,-1.84524,
2026_06_10_20_11_09.760,3.85,29.8,0,0.758,0,0,0,0.005, ,0,0,0,0,0, ,15,14.4,-1000.3,0.2,3.6,-3.1,25,24.309,10.3383,-995.028,-1.23215,-0.939176,-1.92475,
2026_06_10_20_11_09.780,3.85,29.8,0,0.759,0,0,0,0.005, ,0,0,0,0,0, ,20.8,16.3,-987.7,1.5,4.8,-3,25,23.9184,10.6437,-994.965,-1.10527,-0.626007,-1.99332,
2026_06_10_20_11_09.800,3.85,29.8,0,0.758,0,0,0,0.005, ,0,0,0,0,0, ,19.4,17.2,-1001.2,1.4,4.2,-3.3,25,23.6857,11.0158,-994.934,-0.949554,-0.313641,-2.0638,
2026_06_10_20_11_09.819,3.85,29.9,0,0.759,0,0,0,0.005, ,0,0,0,0,0, ,30.8,6.2,-996.8,1.6,3.7,-3.6,25,23.7719,11.0575,-995.182,-0.800284,-0.0538255,-2.14828,
2026_06_10_20_11_09.838,3.85,29.8,0,0.759,0,0,0,0.004, ,0,0,0,0,0, ,42.7,9,-995.2,1.5,4.6,-3.1,25,24.5628,10.8468,-995.232,-0.657064,0.202345,-2.22151,
2026_06_10_20_11_09.859,3.85,29.8,0,0.758,0,0,0,0.005, ,0,0,0,0,0, ,42.7,8.5,-992.5,0.9,1.3,-1.9,25,25.668,10.719,-995.147,-0.543899,0.36978,-2.23848,
2026_06_10_20_11_09.879,3.85,29.8,0,0.758,0,0,0,0.005, ,0,0,0,0,0, ,43.4,5.3,-988.5,0,-0.4,-1.3,25,26.7272,10.4863,-994.864,-0.483333,0.374669,-2.19957,
2026_06_10_20_11_09.898,3.85,29.8,0,0.758,0,0,0,0.005, ,0,0,0,0,0, ,28.3,6.7,-996.7,-1,0.7,0,25,27.2831,10.2129,-994.726,-0.484349,0.360978,-2.10514,
2026_06_10_20_11_09.918,3.85,29.8,0,0.759,0,0,0,0.005, ,0,0,0,0,0, ,28.8,7.2,-990.1,-1.9,-1.7,-1.2,25,27.3603,10.0141,-994.645,-0.543193,0.308512,-2.01342,
2026_06_10_20_11_09.937,3.85,29.8,0,0.758,0,0,0,0.005, ,0,0,0,0,0, ,40.8,7.6,-993.6,-2.1,-2.7,-0.8,25,27.8137,9.8548,-994.475,-0.631967,0.15565,-1.95167,
2026_06_10_20_11_09.958,3.85,29.8,0,0.759,0,0,0,0.005, ,0,0,0,0,0, ,25,9.2,-992.9,-1.5,-0.7,0,25,28.1236,9.76615,-994.4,-0.703144,0.042571,-1.85711,
2026_06_10_20_11_09.978,3.85,29.9,0,0.757,0,0,0,0.005, ,0,0,0,0,0, ,18.1,5.4,-991.6,-1.3,0.1,-0.8,25,27.7231,9.61587,-994.269,-0.745609,0.0216956,-1.76832,
2026_06_10_20_11_09.997,3.85,29.8,0,0.758,0,0,0,0.004, ,0,0,0,0,0, ,16.4,10.2,-1003.5,-1.5,1.2,-2.2,25,27.0849,9.50521,-994.469,-0.785486,0.0599829,-1.75197,
2026_06_10_20_11_10.017,3.85,29.8,0,0.759,0,0,0,0.005, ,0,0,0,0,0, ,21.7,14,-1000,-1.3,2.3,-3.8,25,26.5952,9.66333,-994.913,-0.822933,0.162968,-1.82802,
2026_06_10_20_11_10.037,3.85,29.9,0,0.759,0,0,0,0.005, ,0,0,0,0,0, ,35.7,-1.4,-981,-1.4,-1.8,-4.7,25,26.7235,9.45838,-994.644,-0.855051,0.168272,-1.97561,
2026_06_10_20_11_10.056,3.85,29.8,0,0.758,0,0,0,0.004, ,0,0,0,0,0, ,57.4,6.4,-997.8,-1.2,-2.6,-2.7,25,27.9317,9.03435,-994.325,-0.882165,0.0239552,-2.08069,
2026_06_10_20_11_10.076,3.85,29.9,0,0.759,0,0,0,0.005, ,0,0,0,0,0, ,25,10.2,-995.9,0.9,1.6,-0.9,25,28.7402,8.9896,-994.478,-0.837549,-0.00797327,-2.06359,
2026_06_10_20_11_10.096,3.85,29.8,0,0.759,0,0,0,0.004, ,0,0,0,0,0, ,20.6,14.5,-996.7,-0.1,2.8,-1.7,25,28.3782,9.19438,-994.589,-0.762136,0.126575,-2.01705,
2026_06_10_20_11_10.115,3.85,29.8,0,0.759,0,0,0,0.005, ,0,0,0,0,0, ,32.7,13.6,-1008.5,-1.3,2.7,-3.8,25,28.2729,9.49027,-995.078,-0.758349,0.28644,-2.06172,
2026_06_10_20_11_10.136,3.85,29.8,0,0.759,0,0,0,0.005, ,0,0,0,0,0, ,41.2,17.9,-988,-0.6,1.2,-2.7,25,28.8017,9.87172,-995.271,-0.770028,0.387813,-2.13413,
2026_06_10_20_11_10.155,3.85,29.9,0,0.759,0,0,0,0.005, ,0,0,0,0,0, ,43.4,0.8,-987.1,-1.3,-0.3,-2.2,25,29.6242,9.83993,-994.8,-0.780995,0.391603,-2.15338,
2026_06_10_20_11_10.175,3.85,29.8,0,0.759,0,0,0,0.004, ,0,0,0,0,0, ,47.1,2,-991.9,-1.5,-1.2,-1.2,25,30.5764,9.32562,-994.477,-0.818716,0.322036,-2.12575,
2026_06_10_20_11_10.194,3.85,29.8,0,0.759,0,0,0,0.005, ,0,0,0,0,0, ,47.2,10.3,-1000.8,-2.7,-4.2,0.8,25,31.5864,9.13211,-994.592,-0.896794,0.137881,-2.0084,
2026_06_10_20_11_10.215,3.85,29.9,0,0.759,0,0,0,0.005, ,0,0,0,0,0, ,22.9,15.8,-1012.8,-2,-4,-0.2,25,31.7974,9.37085,-995.335,-0.985349,-0.120365,-1.86773,
2026_06_10_20_11_10.236,3.85,29.9,0,0.759,0,0,0,0.004, ,0,0,0,0,0, ,20.7,5.2,-979.9,-1.5,-0.6,-1.1,25,31.1882,9.43966,-995.397,-1.03194,-0.253186,-1.79353,
2026_06_10_20_11_10.254,3.85,29.9,0,0.757,0,0,0,0.004, ,0,0,0,0,0, ,27,5.7,-984.2,-1.2,2,-1.5,25,30.741,9.19654,-994.584,-1.05133,-0.195102,-1.76345,
2026_06_10_20_11_10.274,3.85,29.8,0,0.758,0,0,0,0.005, ,0,0,0,0,0, ,34,11.8,-1001.7,-1.2,-0.9,-0.7,25,30.7264,9.16933,-994.484,-1.06039,-0.149697,-1.72302,
2026_06_10_20_11_10.294,3.85,29.8,0,0.759,0,0,0,0.005, ,0,0,0,0,0, ,37.2,12.9,-1000,-1.1,-3.4,-1,25,31.0233,9.36315,-994.872,-1.06585,-0.27159,-1.66982,
2026_06_10_20_11_10.314,3.85,29.8,0,0.759,0,0,0,0.005, ,0,0,0,0,0, ,28.5,11.9,-996.3,-1.9,-0.6,-1.1,25,31.1347,9.54821,-995.072,-1.0923,-0.376915,-1.63205,
2026_06_10_20_11_10.334,3.85,29.9,0,0.758,0,0,0,0.005, ,0,0,0,0,0, ,28.6,10.2,-991.9,-0.5,1.6,-2.4,25,30.9772,9.63972,-995.013,-1.09887,-0.323478,-1.63924,
2026_06_10_20_11_10.353,3.85,29.9,0,0.759,0,0,0,0.005, ,0,0,0,0,0, ,34.6,10,-994.6,-1.5,-2.4,-1.1,25,31.0151,9.66777,-994.905,-1.09284,-0.328141,-1.64599,
2026_06_10_20_11_10.374,3.85,29.9,0,0.759,0,0,0,0.005, ,0,0,0,0,0, ,38.5,8.3,-997,-0.9,-2.8,-0.9,25,31.3524,9.63622,-994.96,-1.09937,-0.466583,-1.60662,
2026_06_10_20_11_10.393,3.85,29.7,0,0.759,0,0,0,0.005, ,0,0,0,0,0, ,28.1,11.5,-992.1,-0.1,-0.7,-1,25,31.4711,9.65229,-994.935,-1.06285,-0.544791,-1.56661,
2026_06_10_20_11_10.413,3.85,29.9,0,0.759,0,0,0,0.006, ,0,0,0,0,0, ,23,15.5,-989.2,-2.4,0.8,-1.9,25,31.1103,9.88676,-994.674,-1.07425,-0.508546,-1.55951,
2026_06_10_20_11_10.433,3.85,29.8,0,0.759,0,0,0,0.005, ,0,0,0,0,0, ,6.4,14.7,-1007.5,-4.4,0.3,-3.6,25,30.1103,10.2044,-994.898,-1.21598,-0.444041,-1.63205,
2026_06_10_20_11_10.452,3.85,29.9,0,0.759,0,0,0,0.005, ,0,0,0,0,0, ,16.6,12.2,-996.2,-3.5,-0.5,-6.1,25,28.9762,10.4022,-995.321,-1.38258,-0.423076,-1.82814,
2026_06_10_20_11_10.472,3.85,29.9,0,0.758,0,0,0,0.005, ,0,0,0,0,0, ,35.4,13.1,-985.7,-2.9,3.1,-5.8,25,28.7948,10.5392,-995.055,-1.49333,-0.318076,-2.07932,
2026_06_10_20_11_10.492,3.85,29.9,0,0.758,0,0,0,0.005, ,0,0,0,0,0, ,34.7,-5.2,-985.1,0.2,8.1,-4.1,25,29.176,10.1377,-994.467,-1.4846,0.0425569,-2.25425,
2026_06_10_20_11_10.514,3.85,29.9,0,0.758,0,0,0,0.005, ,0,0,0,0,0, ,47.4,16.3,-1007.2,0.9,6.7,-2.5,25,29.8996,9.85811,-994.569,-1.36061,0.490901,-2.31798,
2026_06_10_20_11_10.532,3.85,29.9,0,0.759,0,0,0,0.005, ,0,0,0,0,0, ,39.7,17.5,-1002.3,2.4,5,-1.8,25,30.7314,10.2872,-995.19,-1.17715,0.817471,-2.30774,
2026_06_10_20_11_10.552,3.85,29.9,0,0.759,0,0,0,0.005, ,0,0,0,0,0, ,52,6.8,-989.7,1.5,2.6,-2.1,25,31.6527,10.4007,-995.239,-0.986593,0.999219,-2.28594,
2026_06_10_20_11_10.572,3.85,29.9,0,0.758,0,0,0,0.005, ,0,0,0,0,0, ,62.5,-2.9,-997.5,1.3,2.7,-0.6,25,33.2125,9.88577,-995.139,-0.84116,1.09981,-2.22891,
2026_06_10_20_11_10.591,3.85,29.8,0,0.757,0,0,0,0.005, ,0,0,0,0,0, ,53.7,0.4,-995.8,2.4,3.5,0,25,34.7291,9.20718,-995.231,-0.677167,1.2217,-2.11136,
2026_06_10_20_11_10.611,3.85,29.8,0,0.758,0,0,0,0.006, ,0,0,0,0,0, ,66.5,1.9,-996.7,2.3,4.1,2.7,25,36.2751,8.7162,-995.293,-0.492699,1.37881,-1.90044,
2026_06_10_20_11_10.631,3.85,29.9,0,0.758,0,0,0,0.006, ,0,0,0,0,0, ,71.1,5.7,-1006.7,3.6,7.2,6.4,25,38.2571,8.41662,-995.684,-0.28291,1.63909,-1.50736,
2026_06_10_20_11_10.652,3.85,29.9,0,0.759,0,0,0,0.005, ,0,0,0,0,0, ,39,8,-1038.6,7.5,16.6,9.2,25,39.2804,8.32115,-997.327,0.0725331,2.26436,-0.940197,
2026_06_10_20_11_10.670,3.85,29.8,0,0.758,0,0,0,0.005, ,0,0,0,0,0, ,3,8,-1028.3,10.7,24.9,5.8,25,38.1665,8.30158,-999.528,0.622644,3.39083,-0.425873,
2026_06_10_20_11_10.690,3.85,29.9,0,0.757,0,0,0,0.006, ,0,0,0,0,0, ,25.3,0.1,-978.8,8.3,26.8,1.2,25,36.703,8.0425,-999.773,1.16361,4.75944,-0.18664,
2026_06_10_20_11_10.710,3.85,29.9,0,0.759,0,0,0,0.005, ,0,0,0,0,0, ,53.4,-3.9,-1017.8,6.6,27.5,-1.5,25,36.8643,7.43663,-999.684,1.54669,6.12386,-0.184407,
2026_06_10_20_11_10.729,3.85,29.9,0,0.759,0,0,0,0.005, ,0,0,0,0,0, ,54.9,-48.9,-1084.2,8.3,40.5,-0.5,25,37.9176,5.37471,-1002.81,1.90642,7.82256,-0.234107,
2026_06_10_20_11_10.749,3.85,29.9,0,0.758,0,0,0,0.005, ,0,0,0,0,0, ,59.8,19.7,-1082.5,18.2,62.3,-7,25,39.1018,4.1575,-1007.72,2.59767,10.4781,-0.448357,
2026_06_10_20_11_10.769,3.85,30,0,0.758,0,0,0,0.005, ,0,0,0,0,0, ,150.5,-7.4,-1008.7,21.3,75.6,-12.4,25,43.1266,4.27892,-1010.03,3.64289,14.0412,-1.01213,
2026_06_10_20_11_10.789,3.85,29.9,0,0.761,0,0,0,0.004, ,0,0,0,0,0, ,298,-67,-1039.6,18.7,77.6,-7.9,25,54.1638,1.7513,-1010.89,4.63965,17.8534,-1.56897,
2026_06_10_20_11_10.808,3.85,29.8,0,0.759,0,0,0,0.005, ,0,0,0,0,0, ,304.3,-18.1,-1081.6,23,77.8,-0.1,25,69.2145,-0.948313,-1013.92,5.62747,21.5003,-1.71711,
2026_06_10_20_11_10.828,3.85,29.9,0,0.758,0,0,0,0.006, ,0,0,0,0,0, ,340.9,-55.7,-1017.2,18.9,80.5,11.5,25,84.6552,-3.13912,-1016.08,6.56118,25.0133,-1.26513,
2026_06_10_20_11_10.849,3.85,30,0,0.759,0,0,0,0.005, ,0,0,0,0,0, ,327.7,-83.3,-974.3,27.2,115.4,15.9,25,99.8679,-7.18298,-1014.84,7.56597,29.4579,-0.353191,
2026_06_10_20_11_10.868,3.85,29.9,0,0.761,0,0,0,0.004, ,0,0,0,0,0, ,265.6,-74,-970.8,38.3,149.2,11.3,25,111.859,-11.538,-1012.26,9.10062,35.7248,0.497081,
2026_06_10_20_11_10.888,3.85,29.9,0,0.758,0,0,0,0.005, ,0,0,0,0,0, ,265.5,-64.8,-977.1,42.5,163.5,-5,25,121.225,-15.064,-1009.93,11.0079,43.0754,0.658743,
2026_06_10_20_11_10.908,3.85,29.9,0,0.759,0,0,0,0.005, ,0,0,0,0,0, ,355.5,-91.1,-888.4,27.6,167.5,-9.4,25,132.759,-18.8961,-1005.23,12.473,50.5357,0.179851,
2026_06_10_20_11_10.927,3.85,29.9,0,0.758,0,0,0,0.005, ,0,0,0,0,0, ,447.5,-117.3,-765.7,14,184.5,-9.7,25,149.135,-24.0943,-994.368,12.9804,58.1812,-0.413061,
2026_06_10_20_11_10.948,3.85,29.9,0,0.759,0,0,0,0.005, ,0,0,0,0,0, ,477.5,-107.6,-785.8,4,192.5,1.1,25,168.231,-29.4785,-981.046,12.7379,66.1225,-0.649922,
2026_06_10_20_11_10.967,3.85,30,0,0.758,0,0,0,0.005, ,0,0,0,0,0, ,369.8,-18.6,-1001.9,20,164.2,-19,25,183.795,-31.5273,-975.732,12.6929,72.9613,-1.15571,
2026_06_10_20_11_10.987,3.85,29.9,0,0.759,0,0,0,0.004, ,0,0,0,0,0, ,514.1,-71,-815.1,13.8,122.4,-41.7,25,199.527,-32.3361,-971.635,12.9493,77.2476,-2.93473,
2026_06_10_20_11_11.007,3.85,29.9,0,0.759,0,0,0,0.005, ,0,0,0,0,0, ,661.4,-113.4,-709.3,3,113.7,-35.4,25,223.184,-35.984,-958.873,12.672,79.734,-5.10504,
2026_06_10_20_11_11.027,3.85,30,0,0.759,0,0,0,0.005, ,0,0,0,0,0, ,729.7,-113,-596.1,-5.2,127.4,-20.5,25,251.969,-40.6894,-940.216,11.8328,82.2212,-6.49715,
2026_06_10_20_11_11.046,3.85,29.9,0,0.759,0,0,0,0.004, ,0,0,0,0,0, ,705.4,-100.3,-610.2,-26.5,138.6,-0.4,25,280.34,-44.7089,-919.676,10.1459,85.3155,-6.73803,
2026_06_10_20_11_11.066,3.85,29.9,0,0.758,0,0,0,0.005, ,0,0,0,0,0, ,649.4,-74.8,-757.2,-16.8,141.3,1.2,25,304.536,-47.3195,-905.296,8.20833,88.6448,-6.30306,
2026_06_10_20_11_11.086,3.85,29.9,0,0.758,0,0,0,0.005, ,0,0,0,0,0, ,651.7,-48.3,-795.5,14.9,134,-20.5,25,325.621,-48.1867,-897.438,7.65024,91.6311,-6.50701,
2026_06_10_20_11_11.106,3.85,29.9,0,0.758,0,0,0,0.005, ,0,0,0,0,0, ,775.7,-68.8,-563.2,4,102.1,-21.4,25,349.27,-48.8182,-884.148,7.75992,93.241,-7.38713,
2026_06_10_20_11_11.126,3.85,29.9,0,0.758,0,0,0,0.005, ,0,0,0,0,0, ,839.5,-74.9,-466.4,-16.3,99.8,-10.3,25,377.199,-50.2217,-861.641,6.91228,93.7108,-7.90284,
2026_06_10_20_11_11.146,3.85,29.9,0,0.759,0,0,0,0.005, ,0,0,0,0,0, ,851.6,-72.7,-439.8,-32,122.5,3.8,25,405.739,-51.6585,-836.746,5.01942,94.7735,-7.6193,
2026_06_10_20_11_11.165,3.85,29.9,0,0.758,0,0,0,0.005, ,0,0,0,0,0, ,770.8,-27.7,-557.9,-12.4,121.5,16.9,25,430.447,-51.5696,-816.155,3.36074,96.4326,-6.5243,
2026_06_10_20_11_11.185,3.85,29.9,0,0.759,0,0,0,0.005, ,0,0,0,0,0, ,774.1,-60.4,-507.8,-9.5,94.9,-0.3,25,451.288,-51.1114,-798.891,2.48868,97.1496,-5.62094,
2026_06_10_20_11_11.204,3.85,29.9,0,0.758,0,0,0,0.005, ,0,0,0,0,0, ,840.4,-54.6,-434.9,-14.3,91.2,-21.9,25,472.979,-51.5007,-778.932,1.61187,96.8998,-5.95482,
2026_06_10_20_11_11.224,3.85,29.9,0,0.759,0,0,0,0.005, ,0,0,0,0,0, ,886.5,-45.2,-318.9,-20.2,113.4,-27.2,25,496.774,-51.4031,-754.433,0.462475,97.2289,-7.08797,
2026_06_10_20_11_11.244,3.85,29.9,0,0.759,0,0,0,0.005, ,0,0,0,0,0, ,927.2,-28.4,-227.7,-31.3,126.1,-23.8,25,521.763,-50.5133,-725.114,-1.13485,98.6013,-8.20995,
2026_06_10_20_11_11.264,3.85,29.9,0,0.758,0,0,0,0.005, ,0,0,0,0,0, ,924.9,-7.9,-255.9,-43.6,115.9,-14.8,25,546.399,-48.5411,-695.662,-3.3478,99.9662,-8.88575,
2026_06_10_20_11_11.284,3.85,29.9,0,0.758,0,0,0,0.005, ,0,0,0,0,0, ,895.7,-15.2,-402.4,-43.6,86.9,-11.3,25,568.574,-46.287,-673.328,-5.80067,100.054,-9.13951,
2026_06_10_20_11_11.304,3.85,29.9,0,0.759,0,0,0,0.005, ,0,0,0,0,0, ,912.5,-9,-407.5,-18,70,-21.5,25,589.02,-44.2037,-656.973,-7.32407,98.7371,-9.58195,
2026_06_10_20_11_11.323,3.85,29.9,0,0.759,0,0,0,0.005, ,0,0,0,0,0, ,956.4,12.8,-240.4,-11.7,61.4,-21.1,25,610.07,-41.3943,-636.68,-7.78268,96.7239,-10.296,
2026_06_10_20_11_11.343,3.85,29.9,0,0.759,0,0,0,0.005, ,0,0,0,0,0, ,994.7,-8.5,-119.6,-22.7,58.8,-14.6,25,632.341,-38.7408,-608.851,-8.35655,94.4921,-10.7563,
2026_06_10_20_11_11.363,3.85,29.9,0,0.758,0,0,0,0.005, ,0,0,0,0,0, ,993.8,-0.9,-109.1,-34.1,68.8,-7.8,25,654.395,-36.6664,-578.717,-9.57794,92.6218,-10.7834,
2026_06_10_20_11_11.383,3.85,29.9,0,0.758,0,0,0,0.005, ,0,0,0,0,0, ,968.7,11.1,-196.2,-41.2,73.6,2.3,25,674.313,-34.1213,-552.754,-11.2886,91.3164,-10.2938,
2026_06_10_20_11_11.402,3.85,30,0,0.76,0,0,0,0.005, ,0,0,0,0,0, ,957,9.8,-235.4,-33.7,71.3,5.9,25,691.896,-31.4052,-532.221,-12.8828,90.1668,-9.41671,
2026_06_10_20_11_11.422,3.85,29.9,0,0.759,0,0,0,0.004, ,0,0,0,0,0, ,950.4,53.7,-150.7,-13.1,68.7,15.1,25,707.849,-27.5567,-511.552,-13.5237,88.9379,-8.20304,
2026_06_10_20_11_11.443,3.85,29.9,0,0.76,0,0,0,0.005, ,0,0,0,0,0, ,1014.7,-31.6,-73.6,-14.7,76.5,11.3,25,724.589,-25.2041,-487.214,-13.5466,87.9423,-6.89879,
2026_06_10_20_11_11.462,3.85,29.9,0,0.76,0,0,0,0.005, ,0,0,0,0,0, ,1011.7,-31.4,-46.3,-15.3,90.4,4.5,25,742.176,-25.5878,-461.177,-13.6352,87.6685,-5.99699,
2026_06_10_20_11_11.482,3.85,30,0,0.759,0,0,0,0.005, ,0,0,0,0,0, ,963.1,4.2,-55.4,-17.7,83.9,4.6,25,757.119,-24.8573,-436.173,-13.8098,87.6369,-5.35428,
2026_06_10_20_11_11.501,3.85,30,0,0.76,0,0,0,0.004, ,0,0,0,0,0, ,961.6,-3.5,-61.1,-26.5,55.5,9.7,25,769.626,-23.3212,-413.143,-14.3149,86.5439,-4.5923,
2026_06_10_20_11_11.521,3.85,30,0,0.759,0,0,0,0.004, ,0,0,0,0,0, ,1006.8,-10.8,-65.3,-25.9,37.1,8.2,25,782.701,-22.3358,-391.819,-15.0392,84.0915,-3.76707,
2026_06_10_20_11_11.542,3.85,29.9,0,0.76,0,0,0,0.004, ,0,0,0,0,0, ,1012.5,-8.4,-88.7,-19.2,27,13.7,25,796.531,-21.5597,-372.635,-15.4969,80.9203,-2.87025,
2026_06_10_20_11_11.561,3.85,30,0,0.757,0,0,0,0.005, ,0,0,0,0,0, ,1040.6,-59,-0.6,-4.4,39.3,12.4,25,810.548,-22.2995,-352.648,-15.2716,78.0093,-1.90011,
2026_06_10_20_11_11.581,3.85,30,0,0.757,0,0,0,0.004, ,0,0,0,0,0, ,1030,-31.3,18,-5.9,39.1,5.8,25,824.244,-23.6919,-330.628,-14.6548,75.6443,-1.22979,
2026_06_10_20_11_11.600,3.85,29.9,0,0.758,0,0,0,0.004, ,0,0,0,0,0, ,1001.2,-31.2,2.4,-0.8,49,7.4,25,835.904,-24.1525,-309.859,-13.9659,73.719,-0.752661,
2026_06_10_20_11_11.620,3.85,30,0,0.757,0,0,0,0.005, ,0,0,0,0,0, ,944.8,-22,45.1,1.1,40,0.9,25,844.259,-24.3016,-289.53,-13.1057,71.9385,-0.453905,
2026_06_10_20_11_11.640,3.85,29.9,0,0.759,0,0,0,0.004, ,0,0,0,0,0, ,926,3.1,55.7,-1.5,15.7,-0.5,25,849.813,-23.3966,-268.815,-12.3193,69.2519,-0.414058,
2026_06_10_20_11_11.660,3.85,29.9,0,0.758,0,0,0,0.005, ,0,0,0,0,0, ,983.3,-27.3,58.1,-4.6,-2.3,-2.9,25,856.201,-22.7082,-248.967,-11.7544,65.4401,-0.49242,
2026_06_10_20_11_11.679,3.85,29.9,0,0.757,0,0,0,0.005, ,0,0,0,0,0, ,989.2,-35.1,41.3,-1.4,6,-5.5,25,864.126,-23.2257,-230.767,-11.221,61.5651,-0.718351,
2026_06_10_20_11_11.700,3.85,30,0,0.758,0,0,0,0.005, ,0,0,0,0,0, ,982.4,-28.8,22.4,-2.6,6.9,-8.1,25,871.54,-23.7573,-214.764,-10.6591,58.2065,-1.08895,
2026_06_10_20_11_11.720,3.85,30,0,0.758,0,0,0,0.004, ,0,0,0,0,0, ,971.5,-17.7,39.5,-1.6,3.4,-5.1,25,877.964,-23.7264,-199.791,-10.1375,54.9734,-1.42478,
2026_06_10_20_11_11.739,3.85,30,0,0.758,0,0,0,0.004, ,0,0,0,0,0, ,990.8,-27.9,33.8,2.1,4.5,-7.1,25,884.252,-23.67,-185.383,-9.50452,51.8641,-1.70968,
2026_06_10_20_11_11.759,3.85,29.9,0,0.759,0,0,0,0.004, ,0,0,0,0,0, ,1010.3,-25.8,41.9,6,14.8,-11.8,25,891.339,-23.8638,-171.779,-8.67854,49.2917,-2.18135,
2026_06_10_20_11_11.779,3.85,30,0,0.758,0,0,0,0.005, ,0,0,0,0,0, ,1011.2,-8.5,74.4,3.1,11.2,-9,25,898.615,-23.4546,-157.768,-7.87242,47.0802,-2.68218,
2026_06_10_20_11_11.799,3.85,29.9,0,0.757,0,0,0,0.004, ,0,0,0,0,0, ,1016.6,-17.8,100.7,-4.5,4.3,-2.1,25,905.64,-22.8267,-142.819,-7.43535,44.6835,-2.85693,
2026_06_10_20_11_11.819,3.85,30,0,0.759,0,0,0,0.005, ,0,0,0,0,0, ,1011.2,-15.9,77.5,-6,9,0,25,912.238,-22.4625,-128.686,-7.30218,42.3658,-2.74682,
2026_06_10_20_11_11.838,3.85,29.9,0,0.759,0,0,0,0.004, ,0,0,0,0,0, ,1012.6,-23.8,64.3,-2.9,15.1,2.2,25,918.311,-22.3033,-116.524,-7.12838,40.5185,-2.51241,
2026_06_10_20_11_11.858,3.85,30,0,0.759,0,0,0,0.005, ,0,0,0,0,0, ,991.6,-20.5,89.9,-3.3,12.9,2.9,25,923.417,-22.2939,-104.725,-6.8829,38.9025,-2.20392,
2026_06_10_20_11_11.877,3.85,30,0,0.758,0,0,0,0.004, ,0,0,0,0,0, ,962.4,-12.9,115.1,-4.5,8.6,3.3,25,926.682,-21.9531,-92.0973,-6.70113,37.187,-1.88071,
2026_06_10_20_11_11.898,3.85,30,0,0.758,0,0,0,0.004, ,0,0,0,0,0, ,964.4,-21.6,132.2,-4.8,5.2,1.8,25,928.919,-21.6665,-78.9502,-6.57614,35.3413,-1.61071,
2026_06_10_20_11_11.917,3.85,29.9,0,0.759,0,0,0,0.004, ,0,0,0,0,0, ,978.2,-26.8,135.7,-9.3,1.8,0.9,25,931.502,-21.8209,-65.9766,-6.60501,33.401,-1.4303,
2026_06_10_20_11_11.938,3.85,30,0,0.758,0,0,0,0.005, ,0,0,0,0,0, ,982,-23.8,122.6,-13.7,-0.7,1.3,25,934.463,-22.0329,-54.0861,-6.9033,31.3992,-1.27611,
2026_06_10_20_11_11.956,3.85,30,0,0.758,0,0,0,0.004, ,0,0,0,0,0, ,886.7,-0.3,70.5,-11.2,-2.5,-3.4,25,934.456,-21.4245,-44.9067,-7.2413,29.3883,-1.26233,
2026_06_10_20_11_11.977,3.85,30,0,0.759,0,0,0,0.004, ,0,0,0,0,0, ,991.3,-36.4,93.8,-7.2,-1.3,-3.3,25,934.733,-21.2372,-37.1642,-7.36066,27.4816,-1.38955,
2026_06_10_20_11_11.996,3.85,30,0,0.759,0,0,0,0.004, ,0,0,0,0,0, ,1005.9,-36.8,107.1,0,-4.2,-7.3,25,938.625,-22.1734,-28.7783,-7.1315,25.6394,-1.62784,
2026_06_10_20_11_12.016,3.85,30,0,0.759,0,0,0,0.004, ,0,0,0,0,0, ,1000.2,-11.9,109.7,-0.5,-1.6,-8.3,25,942.551,-22.306,-20.419,-6.71216,23.9003,-2.00395,
2026_06_10_20_11_12.036,3.85,30,0,0.759,0,0,0,0.004, ,0,0,0,0,0, ,1240.6,-102.7,112.3,3.9,-4.4,-1.5,25,953.389,-24.4384,-12.4107,-6.19954,22.261,-2.18043,
2026_06_10_20_11_12.056,3.85,30.2,0,0.758,0,0,0,0.004, ,0,0,0,0,0, ,996.5,-13.9,55.6,-2.4,1,0.4,25,963.453,-26.5019,-6.53869,-5.77605,20.8009,-2.08108,
2026_06_10_20_11_12.075,3.85,30.1,0,0.758,0,0,0,0.003, ,0,0,0,0,0, ,985.3,-24.7,106.3,2.2,3,-0.4,25,965.126,-26.063,-1.20735,-5.43017,19.6552,-1.95426,
2026_06_10_20_11_12.096,3.85,30,0,0.758,0,0,0,0.004, ,0,0,0,0,0, ,991.2,-21.3,84.1,1.8,2.9,-0.7,25,966.535,-25.8764,4.66747,-4.97739,18.6373,-1.86869,
2026_06_10_20_11_12.116,3.85,30,0,0.759,0,0,0,0.004, ,0,0,0,0,0, ,986.8,-18.4,103.6,1.8,3.7,-0.7,25,967.904,-25.5091,10.102,-4.56439,17.7026,-1.79747,
2026_06_10_20_11_12.135,3.85,29.9,0,0.759,0,0,0,0.004, ,0,0,0,0,0, ,985.9,-17.8,111.3,-0.9,2.2,-0.7,25,969.028,-25.0576,16.0342,-4.25883,16.8037,-1.7306,
2026_06_10_20_11_12.155,3.85,30,0,0.759,0,0,0,0.005, ,0,0,0,0,0, ,987.7,-22.3,102.5,-0.6,0.7,-0.8,25,970.111,-24.7525,21.5713,-4.04501,15.868,-1.67084,
2026_06_10_20_11_12.175,3.85,30,0,0.759,0,0,0,0.004, ,0,0,0,0,0, ,986.6,-22.4,101.9,1.2,1,-1.2,25,971.149,-24.6061,26.4846,-3.78024,14.9529,-1.62996,
2026_06_10_20_11_12.194,3.85,30,0,0.758,0,0,0,0.004, ,0,0,0,0,0, ,987.4,-14,110.2,-0.5,0.2,-1.4,25,972.115,-24.2157,31.3331,-3.52855,14.0783,-1.60985,
2026_06_10_20_11_12.214,3.85,30,0,0.759,0,0,0,0.004, ,0,0,0,0,0, ,987.1,-22.9,107.5,-3.5,-1.7,-1.6,25,973.037,-23.8644,36.0568,-3.4354,13.1747,-1.60316,
2026_06_10_20_11_12.234,3.85,30,0,0.759,0,0,0,0.004, ,0,0,0,0,0, ,987.1,-28,98,-0.6,-1.8,-2.3,25,973.894,-23.961,40.1209,-3.35098,12.2652,-1.6243,
2026_06_10_20_11_12.253,3.85,30,0,0.759,0,0,0,0.004, ,0,0,0,0,0, ,987.5,-21.4,96.6,3.3,-1.9,-2.8,25,974.711,-24.006,43.6053,-3.06452,11.405,-1.68071,
2026_06_10_20_11_12.274,3.85,30,0,0.759,0,0,0,0.004, ,0,0,0,0,0, ,985.7,-8.3,108.1,1,-2.2,-2.3,25,975.436,-23.4481,47.185,-2.74676,10.5851,-1.73368,
2026_06_10_20_11_12.294,3.85,29.9,0,0.759,0,0,0,0.004, ,0,0,0,0,0, ,985.9,-18.1,100.7,-3.4,-3.1,-2,25,976.067,-22.8236,50.6716,-2.6525,9.77861,-1.75905,
2026_06_10_20_11_12.313,3.85,29.9,0,0.759,0,0,0,0.005, ,0,0,0,0,0, ,990.3,-26.9,82.8,-1.4,-1.7,-2.2,25,976.801,-22.8039,53.1748,-2.63711,9.03648,-1.77982,
2026_06_10_20_11_12.333,3.85,30,0,0.759,0,0,0,0.005, ,0,0,0,0,0, ,989.7,-21.4,88,2,0,-2.5,25,977.605,-22.8859,55.1385,-2.45813,8.43402,-1.81457,
2026_06_10_20_11_12.353,3.85,30.1,0,0.758,0,0,0,0.004, ,0,0,0,0,0, ,986.2,-10.8,99.9,2,0.9,-2,25,978.235,-22.4724,57.5036,-2.18647,7.94749,-1.8411,
2026_06_10_20_11_12.373,3.85,29.9,0,0.759,0,0,0,0.004, ,0,0,0,0,0, ,983.6,-11.2,117.7,-2.1,-1.3,-1.6,25,978.641,-21.7733,60.6295,-2.05628,7.45101,-1.8386,
2026_06_10_20_11_12.393,3.85,29.9,0,0.758,0,0,0,0.005, ,0,0,0,0,0, ,986.9,-16.8,101.6,-5.2,-3.5,-1.6,25,979.044,-21.2996,63.6167,-2.15339,6.85071,-1.82406,
2026_06_10_20_11_12.412,3.85,30,0,0.759,0,0,0,0.005, ,0,0,0,0,0, ,989.6,-24,89.8,-4.5,-3.4,-1.5,25,979.605,-21.2448,65.5717,-2.31772,6.22301,-1.80736,
2026_06_10_20_11_12.432,3.85,30,0,0.758,0,0,0,0.004, ,0,0,0,0,0, ,989,-26.2,88,-3.2,-2.8,-1.6,25,980.196,-21.4797,66.9933,-2.41109,5.65489,-1.79168,
2026_06_10_20_11_12.452,3.85,29.9,0,0.758,0,0,0,0.004, ,0,0,0,0,0, ,989,-20.8,92.1,-1.1,-2.6,-2.1,25,980.732,-21.6028,68.3983,-2.39518,5.14576,-1.79523,
2026_06_10_20_11_12.471,3.85,30,0,0.758,0,0,0,0.005, ,0,0,0,0,0, ,985.7,-20.1,96.6,-1.1,-2.7,-2.2,25,981.136,-21.5326,69.9797,-2.31626,4.67071,-1.81685,
2026_06_10_20_11_12.491,3.85,29.9,0,0.757,0,0,0,0.004, ,0,0,0,0,0, ,987.5,-16.9,98.1,-2.4,-3.2,-2.3,25,981.469,-21.3478,71.6476,-2.28175,4.20632,-1.84324,
2026_06_10_20_11_12.511,3.85,29.9,0,0.758,0,0,0,0.005, ,0,0,0,0,0, ,984.4,-23.4,109.7,-2.8,-5.2,-2.7,25,981.742,-21.2748,73.613,-2.30114,3.69406,-1.88327,
2026_06_10_20_11_12.531,3.85,30,0,0.759,0,0,0,0.005, ,0,0,0,0,0, ,988.2,-20.6,86,-2.5,-6.9,-3.3,25,982.02,-21.319,75.0899,-2.3224,3.10028,-1.95132,
2026_06_10_20_11_12.550,3.85,30,0,0.759,0,0,0,0.004, ,0,0,0,0,0, ,988.7,-19.7,84.4,-1.3,-5.7,-3.5,25,982.411,-21.2477,75.706,-2.29666,2.52745,-2.0396,
2026_06_10_20_11_12.571,3.85,30,0,0.758,0,0,0,0.004, ,0,0,0,0,0, ,984.3,-15.2,107.2,-3.4,-7.5,-3.8,25,982.661,-21.0163,76.9305,-2.29991,1.97125,-2.13773,
2026_06_10_20_11_12.591,3.85,29.9,0,0.759,0,0,0,0.004, ,0,0,0,0,0, ,991,-15.6,72.7,-4.7,-9.4,-4.1,25,982.965,-20.6741,77.7239,-2.40656,1.3362,-2.24816,
2026_06_10_20_11_12.611,3.85,30,0,0.759,0,0,0,0.005, ,0,0,0,0,0, ,994.7,-15.6,54.8,-1.9,-6,-3.4,25,983.567,-20.3649,76.8723,-2.461,0.785561,-2.33968,
2026_06_10_20_11_12.630,3.85,30,0,0.758,0,0,0,0.005, ,0,0,0,0,0, ,991.9,-12.3,70.3,-0.4,-2.8,-2.7,25,984.16,-19.974,75.9996,-2.38111,0.469566,-2.38297,
2026_06_10_20_11_12.650,3.85,29.9,0,0.759,0,0,0,0.004, ,0,0,0,0,0, ,989.6,-12.3,80.2,-1.8,-2.8,-2.1,25,984.562,-19.5063,75.9539,-2.30304,0.270327,-2.38401,
2026_06_10_20_11_12.669,3.85,29.9,0,0.759,0,0,0,0.005, ,0,0,0,0,0, ,990.8,-14.8,72.6,-2.2,-2.5,-1.9,25,984.905,-19.1434,75.9811,-2.28458,0.0923693,-2.36061,
2026_06_10_20_11_12.689,3.85,30,0,0.761,0,0,0,0.005, ,0,0,0,0,0, ,989.7,-15.6,78.8,-1.6,-2.3,-1.9,25,985.231,-18.9031,75.964,-2.26114,-0.0595094,-2.33254,
2026_06_10_20_11_12.709,3.85,29.9,0,0.759,0,0,0,0.005, ,0,0,0,0,0, ,987.6,-13.1,85.9,-3.4,-3.7,-1.9,25,985.439,-18.6256,76.3531,-2.2757,-0.238696,-2.30618,
2026_06_10_20_11_12.730,3.85,29.9,0,0.759,0,0,0,0.005, ,0,0,0,0,0, ,986.5,-16.7,87.7,-5.4,-5.8,-2.2,25,985.537,-18.3986,76.9897,-2.40515,-0.513603,-2.29057,
2026_06_10_20_11_12.748,3.85,29.9,0,0.758,0,0,0,0.005, ,0,0,0,0,0, ,987.6,-12.6,78.3,-8,-7.7,-2.7,25,985.63,-18.1702,77.356,-2.66687,-0.893634,-2.30028,
2026_06_10_20_11_12.768,3.85,30,0,0.761,0,0,0,0.005, ,0,0,0,0,0, ,989.6,-16.9,70,-7.7,-8.9,-2.7,25,985.811,-17.9617,77.1606,-2.98271,-1.34496,-2.32464,
2026_06_10_20_11_12.788,3.85,30.1,0,0.757,0,0,0,0.005, ,0,0,0,0,0, ,991.4,-21.9,56,-5.7,-8.2,-3.2,25,986.096,-18.0494,76.2977,-3.20923,-1.78402,-2.36275,
2026_06_10_20_11_12.808,3.85,30,0,0.758,0,0,0,0.004, ,0,0,0,0,0, ,991.3,-21.9,57.6,-2.5,-7.7,-3.6,25,986.417,-18.284,75.1095,-3.26352,-2.15976,-2.42596,
2026_06_10_20_11_12.828,3.85,30.1,0,0.758,0,0,0,0.005, ,0,0,0,0,0, ,993.4,-10.7,45.4,-0.5,-5.8,-3.7,25,986.778,-18.1631,73.6708,-3.15605,-2.43947,-2.50055,
2026_06_10_20_11_12.847,3.85,30,0,0.759,0,0,0,0.004, ,0,0,0,0,0, ,993.2,-8.6,46.7,-0.3,-3.2,-2.9,25,987.176,-17.6444,71.9877,-2.9881,-2.56504,-2.54926,
2026_06_10_20_11_12.869,3.85,30,0,0.759,0,0,0,0.005, ,0,0,0,0,0, ,992,-15.8,52.4,0.8,-2.3,-2.9,25,987.506,-17.3126,70.6204,-2.79078,-2.57631,-2.57064,
2026_06_10_20_11_12.888,3.85,29.9,0,0.757,0,0,0,0.005, ,0,0,0,0,0, ,991,-11.1,56.6,1.9,-2,-2.7,25,987.749,-17.0772,69.6381,-2.53845,-2.55033,-2.58461,
2026_06_10_20_11_12.907,3.85,30,0,0.757,0,0,0,0.005, ,0,0,0,0,0, ,992.6,-3.5,49.8,-0.1,-1.4,-2.3,25,987.996,-16.4814,68.6364,-2.32892,-2.49851,-2.57946,
2026_06_10_20_11_12.927,3.85,29.9,0,0.758,0,0,0,0.005, ,0,0,0,0,0, ,990.9,-8,55.1,-1.3,-0.8,-1.5,25,988.225,-15.8275,67.65,-2.22966,-2.41329,-2.53805,
2026_06_10_20_11_12.946,3.85,30.1,0,0.758,0,0,0,0.005, ,0,0,0,0,0, ,990.2,-13.4,51.3,-0.7,-0.3,-1.3,25,988.367,-15.515,66.7695,-2.15473,-2.29975,-2.4687,
2026_06_10_20_11_12.966,3.85,29.9,0,0.761,0,0,0,0.004, ,0,0,0,0,0, ,990.3,-12.6,57.4,0.1,0.2,-1.7,25,988.481,-15.3618,66.0127,-2.04171,-2.16265,-2.40967,
2026_06_10_20_11_12.986,3.85,30.1,0,0.759,0,0,0,0.005, ,0,0,0,0,0, ,989.2,-5.9,65.3,-0.9,-1.2,-1.8,25,988.559,-14.9893,65.7285,-1.94166,-2.06134,-2.36947,
2026_06_10_20_11_13.009,3.85,30,0,0.762,0,0,0,0.004, ,0,0,0,0,0, ,991.8,-10.7,56.1,-2,-1.6,-1.6,25,988.677,-14.5817,65.4221,-1.9117,-2.02103,-2.32868,
2026_06_10_20_11_13.025,3.85,30.1,0,0.759,0,0,0,0.005, ,0,0,0,0,0, ,989.3,-17.8,60.3,-1,-2,-2.1,25,988.791,-14.5615,64.982,-1.88662,-2.00757,-2.29951,
2026_06_10_20_11_13.045,3.85,30,0,0.758,0,0,0,0.004, ,0,0,0,0,0, ,991.5,-13.6,51.3,1.2,-2.1,-2.7,25,988.889,-14.6309,64.4225,-1.76556,-2.01015,-2.30563,
2026_06_10_20_11_13.066,3.85,29.9,0,0.759,0,0,0,0.005, ,0,0,0,0,0, ,990.1,-10,58.5,2.4,-2,-2.6,25,989.006,-14.4584,63.8422,-1.54828,-2.01258,-2.32662,
2026_06_10_20_11_13.085,3.85,29.9,0,0.759,0,0,0,0.005, ,0,0,0,0,0, ,988.5,-4.6,66.2,0.8,-3.2,-2.4,25,989.024,-14.0221,63.7513,-1.35643,-2.04838,-2.33718,
2026_06_10_20_11_13.105,3.85,30.1,0,0.759,0,0,0,0.005, ,0,0,0,0,0, ,989.2,-9.7,63.4,-0.3,-4,-2.3,25,989.013,-13.6034,63.8152,-1.25854,-2.14293,-2.33796,
2026_06_10_20_11_13.125,3.85,30.1,0,0.758,0,0,0,0.004, ,0,0,0,0,0, ,993.1,-11.9,44.1,-0.5,-4.3,-2.3,25,989.143,-13.4325,63.2018,-1.20622,-2.26523,-2.33565,
2026_06_10_20_11_13.146,3.85,30.1,0,0.759,0,0,0,0.004, ,0,0,0,0,0, ,994.7,-9,29.7,2,-1.6,-2.1,25,989.433,-13.2508,61.5991,-1.08702,-2.30696,-2.32738,
2026_06_10_20_11_13.164,3.85,30,0,0.759,0,0,0,0.004, ,0,0,0,0,0, ,993.1,-6.7,38.6,3.9,1.4,-1.4,25,989.705,-12.9217,59.9264,-0.841009,-2.17247,-2.2922,
2026_06_10_20_11_13.184,3.85,30,0,0.761,0,0,0,0.005, ,0,0,0,0,0, ,989.5,-5.6,61.1,2.5,1.7,-1.1,25,989.802,-12.509,59.3124,-0.59476,-1.94564,-2.22869,
2026_06_10_20_11_13.204,3.85,30,0,0.759,0,0,0,0.005, ,0,0,0,0,0, ,988.2,-10.7,63.7,-1,0,-1.4,25,989.744,-12.2434,59.5005,-0.512814,-1.77528,-2.16905,
2026_06_10_20_11_13.223,3.85,30,0,0.759,0,0,0,0.005, ,0,0,0,0,0, ,993.4,-11.5,39.6,-0.4,0.6,-1.5,25,989.809,-12.1737,59.0221,-0.524221,-1.64882,-2.12523,
2026_06_10_20_11_13.243,3.85,30.1,0,0.759,0,0,0,0.005, ,0,0,0,0,0, ,993.1,-11.7,45.7,2,2.5,-1.3,25,990.018,-12.1388,58.0244,-0.443526,-1.45389,-2.08104,
2026_06_10_20_11_13.264,3.85,30.1,0,0.761,0,0,0,0.004, ,0,0,0,0,0, ,989.1,-8.9,66,2.5,1.9,-1.5,25,990.084,-12.0267,57.8919,-0.279389,-1.23123,-2.03954,
2026_06_10_20_11_13.284,3.85,30.1,0,0.758,0,0,0,0.004, ,0,0,0,0,0, ,987.3,-8.6,74.2,-0.5,-0.7,-1.5,25,989.97,-11.827,58.6359,-0.201427,-1.11964,-2.00666,
2026_06_10_20_11_13.303,3.85,30,0,0.759,0,0,0,0.004, ,0,0,0,0,0, ,989.2,-11.9,63.3,-2.6,-2.9,-1.9,25,989.865,-11.7309,59.2522,-0.283605,-1.1611,-1.98797,
2026_06_10_20_11_13.323,3.85,30.1,0,0.759,0,0,0,0.004, ,0,0,0,0,0, ,988.8,-14.4,59.5,-2.7,-4.2,-2.4,25,989.812,-11.8174,59.3831,-0.427807,-1.30667,-1.99785,
2026_06_10_20_11_13.342,3.85,30,0,0.761,0,0,0,0.004, ,0,0,0,0,0, ,990.3,-17,52.2,0,-5.2,-3,25,989.796,-12.054,59.1678,-0.484004,-1.51345,-2.04063,
2026_06_10_20_11_13.362,3.85,30,0,0.758,0,0,0,0.004, ,0,0,0,0,0, ,993.6,-10.1,41.3,3.3,-4.5,-3.2,25,989.927,-12.1452,58.4111,-0.353963,-1.71677,-2.10519,
2026_06_10_20_11_13.382,3.85,30,0,0.761,0,0,0,0.004, ,0,0,0,0,0, ,992.5,-9.3,40,9.5,-2.7,-2.3,25,990.118,-11.9962,57.3288,0.0576069,-1.83153,-2.14448,
2026_06_10_20_11_13.402,3.85,30.1,0,0.758,0,0,0,0.004, ,0,0,0,0,0, ,987.5,-4.7,69,13,-3.7,-2,25,990.11,-11.6917,57.1564,0.739643,-1.91492,-2.14482,
2026_06_10_20_11_13.422,3.85,30.1,0,0.758,0,0,0,0.004, ,0,0,0,0,0, ,988.1,1.2,71.4,3.5,-8.4,-2.8,25,989.97,-11.0859,57.9512,1.19731,-2.1669,-2.16037,
2026_06_10_20_11_13.441,3.85,30.1,0,0.758,0,0,0,0.004, ,0,0,0,0,0, ,994.8,-2.9,31.6,-2.3,-8.5,-2.6,25,990.06,-10.4621,57.5581,1.16091,-2.54978,-2.19325,
2026_06_10_20_11_13.461,3.85,30,0,0.759,0,0,0,0.004, ,0,0,0,0,0, ,999.3,0.3,-8.4,0.4,-2.1,-1.5,25,990.486,-9.90382,54.7575,1.03227,-2.71737,-2.18452,
2026_06_10_20_11_13.481,3.85,30.1,0,0.759,0,0,0,0.004, ,0,0,0,0,0, ,994.9,-7.8,21.7,5.6,3.5,-0.2,25,990.889,-9.52883,51.826,1.15218,-2.50913,-2.1032,
2026_06_10_20_11_13.501,3.85,30,0,0.759,0,0,0,0.004, ,0,0,0,0,0, ,993.5,-3.5,30.7,11,5.4,0.7,25,991.091,-9.29246,50.2644,1.58775,-2.08505,-1.9598,
2026_06_10_20_11_13.521,3.85,30.1,0,0.758,0,0,0,0.004, ,0,0,0,0,0, ,997.5,-1.4,15.9,9.8,10.1,1.4,25,991.359,-8.8755,48.6213,2.12475,-1.48573,-1.77639,
2026_06_10_20_11_13.540,3.85,30.1,0,0.759,0,0,0,0.004, ,0,0,0,0,0, ,1004.8,0.2,-24.6,10.6,19.2,2.3,25,991.956,-8.37121,45.3933,2.61683,-0.50246,-1.55541,
2026_06_10_20_11_13.566,3.85,30,0,0.759,0,0,0,0.004, ,0,0,0,0,0, ,998.7,-21.2,18,24.6,29.9,5.8,25,992.553,-8.50093,42.4261,3.52987,1.02417,-1.21383,
2026_06_10_20_11_13.580,3.85,30,0,0.758,0,0,0,0.004, ,0,0,0,0,0, ,991.8,-20.9,50.7,26.1,34.7,5.1,25,992.717,-9.26564,41.9339,4.85953,2.93004,-0.807753,
2026_06_10_20_11_13.600,3.85,30.1,0,0.759,0,0,0,0.004, ,0,0,0,0,0, ,1007.3,-25,21.6,20.4,43.3,7.1,25,993.134,-10.0995,41.5815,5.9802,5.12806,-0.386812,
2026_06_10_20_11_13.619,3.85,30.1,0,0.759,0,0,0,0.004, ,0,0,0,0,0, ,983.8,-26.4,140.9,36.9,48.3,10,25,993.281,-11.0502,43.9988,7.36164,7.6065,0.157775,
2026_06_10_20_11_13.639,3.85,30.1,0,0.759,0,0,0,0.004, ,0,0,0,0,0, ,982.1,-46.5,65.1,18,49.2,11.3,25,992.651,-12.598,47.5942,8.58578,10.1137,0.797145,
2026_06_10_20_11_13.659,3.85,30,0,0.759,0,0,0,0.004, ,0,0,0,0,0, ,981.4,-32.4,135.6,19.7,50,5.4,25,991.987,-14.2343,50.809,9.21125,12.5199,1.2574,
2026_06_10_20_11_13.679,3.85,30.1,0,0.759,0,0,0,0.004, ,0,0,0,0,0, ,965.4,-82.5,176.8,20,58.5,8.6,25,990.854,-16.8677,57.2312,9.85955,15.0628,1.60734,
2026_06_10_20_11_13.703,3.85,30.1,0,0.759,0,0,0,0.004, ,0,0,0,0,0, ,1104.2,-50.1,204.5,13.3,53.2,-7.4,25,993.532,-19.88,65.3614,10.2733,17.5483,1.54595,
2026_06_10_20_11_13.718,3.85,30,0,0.758,0,0,0,0.004, ,0,0,0,0,0, ,1105.3,-64.3,192.2,4.3,37.2,4.3,25,1000.31,-22.1542,73.4654,10.1836,19.2333,1.35729,
2026_06_10_20_11_13.738,3.85,30,0,0.758,0,0,0,0.004, ,0,0,0,0,0, ,1120.2,-93.6,232.5,-0.1,27.7,0.9,25,1007.16,-25.6152,81.9287,9.69097,20.0387,1.43302,
2026_06_10_20_11_13.758,3.85,30,0,0.759,0,0,0,0.004, ,0,0,0,0,0, ,1092.1,-49.9,264.4,-10.3,-10.3,11.8,25,1013.19,-28.4265,92.0761,8.78355,19.3477,1.73265,
2026_06_10_20_11_13.778,3.85,30.1,0,0.758,0,0,0,0.004, ,0,0,0,0,0, ,1120.6,-84.1,214.5,-9.6,-20,11.6,25,1018.87,-30.7771,101.057,7.64198,17.2455,2.34003,
2026_06_10_20_11_13.798,3.85,30,0,0.759,0,0,0,0.004, ,0,0,0,0,0, ,1115.2,-57.6,221.1,3.7,0.5,17.4,25,1024.9,-33.219,108.171,6.99653,15.6005,3.08103,
2026_06_10_20_11_13.817,3.85,30.1,0,0.759,0,0,0,0.004, ,0,0,0,0,0, ,940.3,-28.6,269.4,4.5,6.2,13.7,25,1025.08,-33.8212,116.524,6.82002,14.854,3.84086,
2026_06_10_20_11_13.843,3.85,30.1,0,0.758,0,0,0,0.004, ,0,0,0,0,0, ,929.5,-104.7,297.9,-0.2,-6.1,-1.6,25,1019.58,-35.8217,126.708,6.53544,13.9519,3.97548,
2026_06_10_20_11_13.857,3.85,30,0,0.758,0,0,0,0.004, ,0,0,0,0,0, ,895.7,-79.5,264.2,-2.6,-16.1,-33.8,25,1013.06,-39.2511,136.113,6.05188,12.4253,2.65463,
2026_06_10_20_11_13.877,3.85,30.2,0,0.758,0,0,0,0.004, ,0,0,0,0,0, ,826.4,-31.7,223,-15.4,-18.4,-64.7,25,1003.8,-40.2474,142.663,5.13465,10.6169,-0.508308,
2026_06_10_20_11_13.897,3.85,30,0,0.759,0,0,0,0.003, ,0,0,0,0,0, ,975.9,4.3,157.2,-19,-3,-97.6,25,997.545,-38.6297,145.554,3.77363,9.31793,-5.42241,
2026_06_10_20_11_13.917,3.85,30.1,0,0.758,0,0,0,0.004, ,0,0,0,0,0, ,865.4,21.4,271.9,2.5,3.7,-113.1,25,992.859,-35.4926,149.759,3.04094,8.77145,-11.5117,
2026_06_10_20_11_13.936,3.85,30.1,0,0.758,0,0,0,0.004, ,0,0,0,0,0, ,767.7,72.2,237.9,-24.5,2.2,-121.4,25,982.115,-30.4779,156.166,2.18532,8.4167,-17.9552,
2026_06_10_20_11_13.956,3.85,30.2,0,0.759,0,0,0,0.003, ,0,0,0,0,0, ,826.4,206.5,128.6,-71,38.6,-118,25,970.838,-20.129,157.816,-0.857609,9.14694,-24.1552,
2026_06_10_20_11_13.976,3.85,30.1,0,0.76,0,0,0,0.003, ,0,0,0,0,0, ,875,199.9,326,-5.9,4.1,-132.5,25,963.517,-6.51992,162.05,-3.1484,9.89056,-30.3157,
2026_06_10_20_11_13.996,3.85,30,0,0.759,0,0,0,0.003, ,0,0,0,0,0, ,819.2,153.1,194.8,-71.6,-14.5,-137,25,956.423,4.63286,168.043,-5.31787,8.97098,-36.6797,
2026_06_10_20_11_14.016,3.85,30.1,0,0.758,0,0,0,0.004, ,0,0,0,0,0, ,1218.6,275.7,176,2,21.2,-103.2,25,960.23,17.4155,169.101,-7.11443,8.62845,-41.7631,
2026_06_10_20_11_14.036,3.85,30.1,0,0.757,0,0,0,0.003, ,0,0,0,0,0, ,969.7,204.2,197.8,29.7,-2.1,-87.6,25,968.391,30.9762,170.186,-5.71504,8.68461,-45.0316,
2026_06_10_20_11_14.055,3.85,30.1,0,0.76,0,0,0,0.003, ,0,0,0,0,0, ,952.2,359,132.2,32.5,9.2,-100.2,25,967.937,46.2486,169.87,-3.47162,8.37172,-48.0095,
2026_06_10_20_11_14.075,3.85,30.1,0,0.76,0,0,0,0.003, ,0,0,0,0,0, ,770.7,353.5,307.1,6.3,-31.8,-88.9,25,961.448,65.1393,172.903,-2.07788,7.17297,-50.8456,
2026_06_10_20_11_14.094,3.85,30,0,0.759,0,0,0,0.003, ,0,0,0,0,0, ,953.4,404.5,117.7,4.3,-29.2,-102.9,25,955.391,84.2652,175.31,-1.62829,4.87728,-53.5911,
2026_06_10_20_11_14.114,3.85,30.1,0,0.759,0,0,0,0.004, ,0,0,0,0,0, ,806.6,373.9,251.8,19.1,-16.7,-80.2,25,950.797,102.847,175.885,-0.816101,3.18155,-55.9042,
2026_06_10_20_11_14.134,3.85,30.1,0,0.758,0,0,0,0.003, ,0,0,0,0,0, ,852.2,429.4,191.8,30.8,-4,-91.1,25,943.4,121.055,178.683,0.75402,2.35697,-57.7168,
2026_06_10_20_11_14.154,3.85,30.1,0,0.759,0,0,0,0.003, ,0,0,0,0,0, ,798.2,478.2,217.2,48.3,-6.6,-105.5,25,936.197,141.332,180.256,3.11815,1.89038,-60.1899,
2026_06_10_20_11_14.174,3.85,30.1,0,0.758,0,0,0,0.003, ,0,0,0,0,0, ,771.6,524.4,146.1,44.9,-16.2,-120.6,25,926.977,163.268,180.341,5.76783,1.08049,-63.411,
2026_06_10_20_11_14.194,3.85,30,0,0.759,0,0,0,0.003, ,0,0,0,0,0, ,768.1,565.4,119.5,37.1,-3.6,-125.7,25,917.402,186.523,177.444,7.91479,0.41137,-67.0514,
2026_06_10_20_11_14.213,3.85,30.1,0,0.758,0,0,0,0.004, ,0,0,0,0,0, ,733.7,542.8,198.8,25.9,-5.2,-128.1,25,907.256,208.923,176.329,9.35201,0.118177,-70.6984,
2026_06_10_20_11_14.233,3.85,30,0,0.758,0,0,0,0.003, ,0,0,0,0,0, ,874.3,640.8,117.7,-3,-23.3,-128.8,25,900.964,232.254,175.228,9.47986,-0.757383,-74.2176,
2026_06_10_20_11_14.252,3.85,30.1,0,0.76,0,0,0,0.004, ,0,0,0,0,0, ,589.8,628.6,161.6,-16.2,-52.3,-132.5,25,890.671,256.778,173.06,8.31718,-3.01467,-77.6565,
2026_06_10_20_11_14.273,3.85,30.1,0,0.76,0,0,0,0.003, ,0,0,0,0,0, ,675.1,657.8,104.4,-19.2,-59.2,-140.3,25,874.935,280.326,170.619,6.73176,-6.22823,-81.2362,
2026_06_10_20_11_14.293,3.85,30.1,0,0.758,0,0,0,0.003, ,0,0,0,0,0, ,463.8,537.4,3.2,-50.8,-46.9,-135.9,25,856.32,299.66,163.5,4.18873,-9.08143,-84.7013,
2026_06_10_20_11_14.312,3.85,30.1,0,0.758,0,0,0,0.003, ,0,0,0,0,0, ,667.6,810,56.3,-4.1,-14.6,-124,25,838.61,322.453,155.35,2.26074,-10.4019,-87.4587,
2026_06_10_20_11_14.332,3.85,30.1,0,0.758,0,0,0,0.003, ,0,0,0,0,0, ,583,733.1,179.8,-44.1,6.7,-124.4,25,825.612,349.82,153.077,0.654385,-10.0087,-89.6976,
