UTC_Time,Vin,TC1,TC2,Rh1,Vh1,Ah1,Acp1,Dty1,Err1,Rh2,Vh2,Ah2,Acp2,Dty2,Err2,Accel_x,Accel_y,Accel_z,gyro_x,gyro_y,gyro_z,Temp_c,Accel_x_h,Accel_y_h,Accel_z_h,gyro_x_h,gyro_y_h,gyro_z_h,
2026_07_06_21_44_47.612,3.866,34.1,0,0.763,0,0,0,0, ,0,0,0,0,0, ,-40.7,365.6,930.7,-0.8,-0.5,-1.7,25,-40.7,365.6,930.7,-0.8,-0.5,-1.7,
2026_07_06_21_44_47.632,3.866,34,0,0.761,0,0,0,0, ,0,0,0,0,0, ,-40,363.8,931.5,-0.8,-0.5,-1.8,25,-40.6787,365.545,930.724,-0.8,-0.5,-1.70305,
2026_07_06_21_44_47.651,3.866,34.2,0,0.76,0,0,0,0, ,0,0,0,0,0, ,-39.5,365.7,932,-0.8,-0.5,-1.8,25,-40.6221,365.497,930.787,-0.8,-0.5,-1.70895,
2026_07_06_21_44_47.671,3.866,34.1,0,0.761,0,0,0,0, ,0,0,0,0,0, ,-38.5,363.7,930.4,-0.7,-0.5,-1.7,25,-40.5232,365.448,930.812,-0.796953,-0.5,-1.71146,
2026_07_06_21_44_47.696,3.866,34.1,0,0.76,0,0,0,0, ,0,0,0,0,0, ,-39.1,365.4,932.1,-0.7,-0.5,-1.7,25,-40.4182,365.393,930.839,-0.791045,-0.5,-1.71076,
2026_07_06_21_44_47.711,3.866,34.1,0,0.762,0,0,0,0, ,0,0,0,0,0, ,-40.8,365.6,930.5,-0.7,-0.5,-1.8,25,-40.3897,365.4,930.867,-0.785497,-0.5,-1.71315,
2026_07_06_21_44_47.730,3.866,34.1,0,0.762,0,0,0,0, ,0,0,0,0,0, ,-41,366,930.5,-0.7,-0.5,-1.7,25,-40.4208,365.424,930.844,-0.780287,-0.5,-1.71539,
2026_07_06_21_44_47.750,3.866,34.1,0,0.761,0,0,0,0, ,0,0,0,0,0, ,-39,364.3,932,-0.6,-0.4,-1.8,25,-40.3951,365.408,930.869,-0.772348,-0.496953,-1.7175,
2026_07_06_21_44_47.770,3.866,34.1,0,0.761,0,0,0,0, ,0,0,0,0,0, ,-39.4,364.8,929.5,-0.6,-0.5,-1.7,25,-40.3223,365.355,930.862,-0.761845,-0.494092,-1.71948,
2026_07_06_21_44_47.790,3.866,34.1,0,0.761,0,0,0,0, ,0,0,0,0,0, ,-39,365.2,931,-0.7,-0.5,-1.8,25,-40.2539,365.334,930.825,-0.75503,-0.494452,-1.72134,
2026_07_06_21_44_47.810,3.866,34.1,0,0.763,0,0,0,0, ,0,0,0,0,0, ,-40,364.1,932.1,-0.6,-0.6,-1.7,25,-40.208,365.292,930.869,-0.748629,-0.497837,-1.72309,
2026_07_06_21_44_47.832,3.866,34.2,0,0.761,0,0,0,0, ,0,0,0,0,0, ,-39.3,363.5,930.2,-0.7,-0.5,-1.8,25,-40.174,365.201,930.886,-0.742619,-0.501016,-1.72473,
2026_07_06_21_44_47.849,3.866,34.1,0,0.761,0,0,0,0, ,0,0,0,0,0, ,-41,363.6,931.3,-0.7,-0.5,-1.8,25,-40.1725,365.1,930.878,-0.740022,-0.500954,-1.72932,
2026_07_06_21_44_47.870,3.866,34.1,0,0.762,0,0,0,0, ,0,0,0,0,0, ,-39.7,364.6,931.7,-0.7,-0.5,-1.7,25,-40.1833,365.04,930.916,-0.737583,-0.500896,-1.73058,
2026_07_06_21_44_47.889,3.866,34.1,0,0.762,0,0,0,0, ,0,0,0,0,0, ,-40.1,364.6,931.2,-0.6,-0.5,-1.7,25,-40.1661,365.013,930.948,-0.732246,-0.500841,-1.72871,
2026_07_06_21_44_47.909,3.866,34.1,0,0.762,0,0,0,0, ,0,0,0,0,0, ,-38.9,365.2,932.7,-0.7,-0.5,-1.8,25,-40.1255,365.006,931.009,-0.727234,-0.50079,-1.73001,
2026_07_06_21_44_47.929,3.866,34.1,0,0.762,0,0,0,0, ,0,0,0,0,0, ,-40,364.7,931,-0.8,-0.5,-1.7,25,-40.0843,365.002,931.06,-0.728622,-0.500742,-1.73123,
2026_07_06_21_44_47.948,3.866,34.1,0,0.762,0,0,0,0, ,0,0,0,0,0, ,-39.9,364.6,929.6,-0.8,-0.4,-1.7,25,-40.0761,364.981,931.014,-0.732971,-0.49765,-1.72933,
2026_07_06_21_44_47.971,3.866,34.1,0,0.763,0,0,0,0, ,0,0,0,0,0, ,-40.7,366,931.5,-0.7,-0.5,-1.7,25,-40.0898,365,930.986,-0.734009,-0.494746,-1.72754,
2026_07_06_21_44_47.988,3.866,34,0,0.762,0,0,0,0, ,0,0,0,0,0, ,-39.7,364.8,933.5,-0.7,-0.5,-1.7,25,-40.0965,365.025,931.078,-0.731936,-0.495066,-1.72586,
2026_07_06_21_44_48.008,3.866,34,0,0.762,0,0,0,0, ,0,0,0,0,0, ,-40,366.4,931,-0.8,-0.5,-1.7,25,-40.0815,365.06,931.15,-0.733037,-0.495367,-1.72428,
2026_07_06_21_44_48.028,3.866,34,0,0.762,0,0,0,0, ,0,0,0,0,0, ,-39.6,364.6,932.1,-0.7,-0.4,-1.7,25,-40.0643,365.087,931.174,-0.734071,-0.492602,-1.7228,
2026_07_06_21_44_48.048,3.866,34.1,0,0.762,0,0,0,0, ,0,0,0,0,0, ,-40.2,364.3,931,-0.7,-0.5,-1.8,25,-40.0543,365.048,931.197,-0.731995,-0.490006,-1.72446,
2026_07_06_21_44_48.068,3.866,34.1,0,0.76,0,0,0,0, ,0,0,0,0,0, ,-40.4,365.1,932.4,-0.7,-0.5,-1.7,25,-40.0693,365.027,931.228,-0.730045,-0.490615,-1.72602,
2026_07_06_21_44_48.087,3.866,34.1,0,0.762,0,0,0,0, ,0,0,0,0,0, ,-39.6,364.9,931.2,-0.7,-0.4,-1.8,25,-40.0651,365.025,931.262,-0.728214,-0.48814,-1.72748,
2026_07_06_21_44_48.108,3.866,34,0,0.762,0,0,0,0, ,0,0,0,0,0, ,-39.6,365.6,931,-0.6,-0.5,-1.7,25,-40.0367,365.039,931.252,-0.723448,-0.485816,-1.72885,
2026_07_06_21_44_48.127,3.866,34.1,0,0.762,0,0,0,0, ,0,0,0,0,0, ,-39.6,364.8,930.6,-0.6,-0.4,-1.8,25,-40.0101,365.049,931.225,-0.715925,-0.483633,-1.73014,
2026_07_06_21_44_48.147,3.866,34,0,0.762,0,0,0,0, ,0,0,0,0,0, ,-39.6,365.3,931.3,-0.7,-0.5,-1.7,25,-39.9851,365.049,931.208,-0.711908,-0.481584,-1.73135,
2026_07_06_21_44_48.166,3.866,34.1,0,0.762,0,0,0,0, ,0,0,0,0,0, ,-40.6,364.1,931,-0.6,-0.5,-1.7,25,-39.9921,365.027,931.205,-0.708136,-0.482706,-1.72944,
2026_07_06_21_44_48.187,3.866,34.1,0,0.762,0,0,0,0, ,0,0,0,0,0, ,-40.1,365.3,930.2,-0.7,-0.5,-1.8,25,-40.0139,365.007,931.168,-0.704593,-0.48376,-1.73069,
2026_07_06_21_44_48.206,3.866,34.1,0,0.763,0,0,0,0, ,0,0,0,0,0, ,-40.2,365.4,930.1,-0.6,-0.4,-1.7,25,-40.0222,365.028,931.106,-0.701266,-0.481703,-1.73187,
2026_07_06_21_44_48.226,3.866,34,0,0.762,0,0,0,0, ,0,0,0,0,0, ,-39.9,365.3,931.2,-0.6,-0.5,-1.7,25,-40.0239,365.048,931.078,-0.695095,-0.479771,-1.72993,
2026_07_06_21_44_48.245,3.866,34.2,0,0.763,0,0,0,0, ,0,0,0,0,0, ,-39.3,365.3,931.1,-0.7,-0.5,-1.8,25,-39.9981,365.063,931.082,-0.692347,-0.481004,-1.73115,
2026_07_06_21_44_48.265,3.866,34,0,0.763,0,0,0,0, ,0,0,0,0,0, ,-39.4,364.3,930.4,-0.6,-0.5,-1.7,25,-39.9586,365.047,931.062,-0.689767,-0.482161,-1.7323,
2026_07_06_21_44_48.285,3.866,34.1,0,0.762,0,0,0,0, ,0,0,0,0,0, ,-39.9,364.2,929.8,-0.6,-0.5,-1.7,25,-39.9398,364.999,931.003,-0.684297,-0.483248,-1.73033,
2026_07_06_21_44_48.304,3.866,34,0,0.763,0,0,0,0, ,0,0,0,0,0, ,-40.4,364.3,930.4,-0.6,-0.5,-1.8,25,-39.9526,364.953,930.948,-0.67916,-0.484269,-1.73153,
2026_07_06_21_44_48.325,3.866,34.1,0,0.763,0,0,0,0, ,0,0,0,0,0, ,-39.4,365.1,929.3,-0.6,-0.5,-1.7,25,-39.9494,364.938,930.881,-0.674336,-0.485228,-1.73266,
2026_07_06_21_44_48.344,3.866,34.1,0,0.764,0,0,0,0, ,0,0,0,0,0, ,-39.6,364.7,931.7,-0.5,-0.5,-1.7,25,-39.922,364.935,930.858,-0.666759,-0.486128,-1.73067,
2026_07_06_21_44_48.364,3.866,34.1,0,0.761,0,0,0,0, ,0,0,0,0,0, ,-40.4,364.7,930.7,-0.7,-0.5,-1.7,25,-39.9268,364.921,930.879,-0.662691,-0.486973,-1.7288,
2026_07_06_21_44_48.384,3.866,34.1,0,0.761,0,0,0,0, ,0,0,0,0,0, ,-40.2,364.3,931.7,-0.7,-0.4,-1.7,25,-39.9495,364.895,930.899,-0.664965,-0.48472,-1.72704,
2026_07_06_21_44_48.405,3.866,34.1,0,0.762,0,0,0,0, ,0,0,0,0,0, ,-39,364.9,929.9,-0.7,-0.5,-1.8,25,-39.9282,364.877,930.893,-0.6671,-0.482604,-1.72844,
2026_07_06_21_44_48.424,3.866,34.1,0,0.763,0,0,0,0, ,0,0,0,0,0, ,-40.4,364.9,929.5,-0.7,-0.5,-1.7,25,-39.9143,364.879,930.82,-0.669104,-0.483664,-1.72975,
2026_07_06_21_44_48.443,3.866,34.1,0,0.761,0,0,0,0, ,0,0,0,0,0, ,-39.6,364.9,932.1,-0.7,-0.5,-1.7,25,-39.9195,364.88,930.819,-0.670987,-0.48466,-1.72794,
2026_07_06_21_44_48.464,3.866,34.1,0,0.763,0,0,0,0, ,0,0,0,0,0, ,-40,365.3,931,-0.7,-0.5,-1.8,25,-39.9122,364.893,930.863,-0.672755,-0.485595,-1.72929,
2026_07_06_21_44_48.483,3.866,34.2,0,0.763,0,0,0,0, ,0,0,0,0,0, ,-40.2,364.9,931,-0.7,-0.4,-1.7,25,-39.9237,364.906,930.872,-0.674415,-0.483426,-1.73055,
2026_07_06_21_44_48.503,3.866,34,0,0.761,0,0,0,0, ,0,0,0,0,0, ,-40.4,364.6,931,-0.8,-0.5,-1.8,25,-39.9466,364.897,930.879,-0.679021,-0.481389,-1.73173,
2026_07_06_21_44_48.522,3.866,34,0,0.763,0,0,0,0, ,0,0,0,0,0, ,-40.6,365.6,931.8,-0.7,-0.6,-1.7,25,-39.9803,364.909,930.911,-0.683347,-0.48557,-1.73285,
2026_07_06_21_44_48.543,3.866,34.1,0,0.761,0,0,0,0, ,0,0,0,0,0, ,-39.5,364.5,931.3,-0.7,-0.5,-1.8,25,-39.9846,364.917,930.95,-0.684361,-0.489496,-1.73389,
2026_07_06_21_44_48.562,3.866,34.1,0,0.761,0,0,0,0, ,0,0,0,0,0, ,-39.5,365.2,930.5,-0.6,-0.5,-1.8,25,-39.955,364.913,930.947,-0.682267,-0.490136,-1.73792,
2026_07_06_21_44_48.582,3.866,34.1,0,0.763,0,0,0,0, ,0,0,0,0,0, ,-39.5,364.3,932,-0.6,-0.5,-1.7,25,-39.9273,364.903,930.966,-0.677254,-0.490737,-1.73866,
2026_07_06_21_44_48.602,3.866,34.1,0,0.763,0,0,0,0, ,0,0,0,0,0, ,-40.2,364.2,931.5,-0.7,-0.5,-1.8,25,-39.9226,364.864,931.013,-0.675593,-0.491302,-1.73935,
2026_07_06_21_44_48.621,3.866,34.1,0,0.761,0,0,0,0, ,0,0,0,0,0, ,-40,365.1,930.5,-0.5,-0.5,-1.6,25,-39.9334,364.851,931.012,-0.670987,-0.491832,-1.73695,
2026_07_06_21_44_48.641,3.866,34.1,0,0.763,0,0,0,0, ,0,0,0,0,0, ,-39.4,364.8,931.7,-0.6,-0.4,-1.7,25,-39.9192,364.857,931.018,-0.663614,-0.489283,-1.73165,
2026_07_06_21_44_48.661,3.866,34.1,0,0.761,0,0,0,0, ,0,0,0,0,0, ,-40.4,364.3,930.1,-0.7,-0.5,-1.7,25,-39.918,364.838,931.011,-0.662785,-0.486889,-1.72972,
2026_07_06_21_44_48.680,3.866,34.1,0,0.761,0,0,0,0, ,0,0,0,0,0, ,-38.6,365.6,930.4,-0.7,-0.5,-1.8,25,-39.8926,364.845,930.964,-0.665053,-0.487688,-1.73096,
2026_07_06_21_44_48.705,3.866,34.1,0,0.763,0,0,0,0, ,0,0,0,0,0, ,-40.5,365.6,931.5,-0.6,-0.4,-1.8,25,-39.8717,364.891,930.963,-0.664135,-0.485391,-1.73517,
2026_07_06_21_44_48.720,3.866,34.1,0,0.763,0,0,0,0, ,0,0,0,0,0, ,-39.7,363.8,929.6,-0.6,-0.5,-1.7,25,-39.8856,364.879,930.938,-0.660227,-0.483234,-1.73607,
2026_07_06_21_44_48.740,3.866,34.1,0,0.764,0,0,0,0, ,0,0,0,0,0, ,-39.7,364,930,-0.8,-0.5,-1.7,25,-39.8743,364.82,930.869,-0.662651,-0.484256,-1.73387,
2026_07_06_21_44_48.759,3.866,34.1,0,0.763,0,0,0,0, ,0,0,0,0,0, ,-38.8,364.2,930.6,-0.8,-0.5,-1.8,25,-39.8362,364.776,930.834,-0.67102,-0.485216,-1.73485,
2026_07_06_21_44_48.779,3.866,34.1,0,0.763,0,0,0,0, ,0,0,0,0,0, ,-40,365.4,931.3,-0.7,-0.6,-1.7,25,-39.8097,364.777,930.841,-0.675833,-0.489163,-1.73578,
2026_07_06_21_44_48.800,3.866,34.1,0,0.764,0,0,0,0, ,0,0,0,0,0, ,-39.6,364.8,930.9,-0.8,-0.5,-1.8,25,-39.8091,364.797,930.857,-0.680353,-0.492871,-1.73664,
2026_07_06_21_44_48.819,3.866,34.1,0,0.765,0,0,0,0, ,0,0,0,0,0, ,-38.9,364.7,931.1,-0.7,-0.5,-1.8,25,-39.775,364.794,930.866,-0.684597,-0.493305,-1.7405,
2026_07_06_21_44_48.839,3.866,34.1,0,0.761,0,0,0,0, ,0,0,0,0,0, ,-38.9,365.9,931.1,-0.8,-0.5,-1.7,25,-39.7217,364.825,930.88,-0.688582,-0.493713,-1.74108,
2026_07_06_21_44_48.860,3.866,34.1,0,0.761,0,0,0,0, ,0,0,0,0,0, ,-39.4,365.7,931.2,-0.7,-0.5,-1.8,25,-39.6868,364.884,930.896,-0.692325,-0.494096,-1.74163,
2026_07_06_21_44_48.879,3.866,34.2,0,0.761,0,0,0,0, ,0,0,0,0,0, ,-39.9,365.4,930.4,-0.6,-0.5,-1.7,25,-39.6846,364.925,930.891,-0.689746,-0.494456,-1.74214,
2026_07_06_21_44_48.898,3.866,34.1,0,0.763,0,0,0,0, ,0,0,0,0,0, ,-40.5,363.8,931.1,-0.6,-0.5,-1.7,25,-39.716,364.905,930.882,-0.684277,-0.494794,-1.73957,
2026_07_06_21_44_48.918,3.866,34.2,0,0.763,0,0,0,0, ,0,0,0,0,0, ,-39.7,365.4,932.9,-0.8,-0.5,-1.8,25,-39.7394,364.886,930.95,-0.685235,-0.495111,-1.7402,
2026_07_06_21_44_48.938,3.866,34.1,0,0.763,0,0,0,0, ,0,0,0,0,0, ,-39.9,364.7,929.6,-0.8,-0.5,-1.7,25,-39.7431,364.896,930.968,-0.692229,-0.495409,-1.7408,
2026_07_06_21_44_48.957,3.866,34.1,0,0.763,0,0,0,0, ,0,0,0,0,0, ,-39.7,365.6,930.4,-0.7,-0.5,-1.7,25,-39.7466,364.912,930.909,-0.695749,-0.495689,-1.73832,
2026_07_06_21_44_48.977,3.866,34.1,0,0.763,0,0,0,0, ,0,0,0,0,0, ,-39.5,365.2,932,-0.8,-0.5,-1.7,25,-39.7376,364.942,930.927,-0.699055,-0.495951,-1.73598,
2026_07_06_21_44_48.998,3.866,34.1,0,0.761,0,0,0,0, ,0,0,0,0,0, ,-39.6,365.4,930.9,-0.7,-0.4,-1.8,25,-39.7262,364.963,930.959,-0.702159,-0.493151,-1.73683,
2026_07_06_21_44_49.017,3.866,34.2,0,0.763,0,0,0,0, ,0,0,0,0,0, ,-39.7,366.4,930.4,-0.7,-0.5,-1.7,25,-39.7216,365.021,930.94,-0.702028,-0.490522,-1.73764,
2026_07_06_21_44_49.037,3.866,34,0,0.764,0,0,0,0, ,0,0,0,0,0, ,-39.1,365.3,931.3,-0.7,-0.5,-1.8,25,-39.702,365.071,930.935,-0.701904,-0.491099,-1.73839,
2026_07_06_21_44_49.057,3.866,34.1,0,0.761,0,0,0,0, ,0,0,0,0,0, ,-40.6,366.4,930.4,-0.7,-0.5,-1.8,25,-39.711,365.119,930.93,-0.701788,-0.491642,-1.74214,
2026_07_06_21_44_49.076,3.866,34.1,0,0.763,0,0,0,0, ,0,0,0,0,0, ,-40.2,364.2,931.2,-0.7,-0.5,-1.8,25,-39.753,365.13,930.922,-0.701679,-0.492151,-1.74567,
2026_07_06_21_44_49.096,3.866,34.1,0,0.763,0,0,0,0, ,0,0,0,0,0, ,-40.2,364.2,930.9,-0.7,-0.5,-1.7,25,-39.7802,365.073,930.929,-0.701577,-0.492629,-1.74593,
2026_07_06_21_44_49.116,3.866,34.1,0,0.764,0,0,0,0, ,0,0,0,0,0, ,-39.7,365.4,931.2,-0.6,-0.5,-1.8,25,-39.7906,365.056,930.937,-0.698434,-0.493078,-1.74618,
2026_07_06_21_44_49.136,3.866,34.1,0,0.761,0,0,0,0, ,0,0,0,0,0, ,-40,364.2,929.6,-0.6,-0.5,-1.7,25,-39.7942,365.041,930.904,-0.692436,-0.4935,-1.74641,
2026_07_06_21_44_49.159,3.866,34.1,0,0.763,0,0,0,0, ,0,0,0,0,0, ,-40,364,929,-0.5,-0.5,-1.8,25,-39.8067,364.983,930.806,-0.683756,-0.493896,-1.74663,
2026_07_06_21_44_49.176,3.866,34.1,0,0.765,0,0,0,0, ,0,0,0,0,0, ,-40.2,365.3,931.6,-0.7,-0.5,-1.8,25,-39.8246,364.963,930.775,-0.678652,-0.494268,-1.74989,
2026_07_06_21_44_49.195,3.866,34.1,0,0.761,0,0,0,0, ,0,0,0,0,0, ,-39.9,365.2,930.1,-0.6,-0.4,-1.7,25,-39.8383,364.981,930.78,-0.676906,-0.491571,-1.74989,
2026_07_06_21_44_49.215,3.866,34.1,0,0.763,0,0,0,0, ,0,0,0,0,0, ,-39.3,364.1,930.5,-0.7,-0.4,-1.8,25,-39.8238,364.96,930.751,-0.675267,-0.485991,-1.7499,
2026_07_06_21_44_49.235,3.866,34.1,0,0.763,0,0,0,0, ,0,0,0,0,0, ,-40.8,364.1,930.6,-0.8,-0.5,-1.7,25,-39.8376,364.908,930.739,-0.679821,-0.483797,-1.7499,
2026_07_06_21_44_49.255,3.866,34,0,0.763,0,0,0,0, ,0,0,0,0,0, ,-40,362.3,930.9,-0.7,-0.5,-1.7,25,-39.8719,364.804,930.739,-0.684097,-0.484785,-1.74686,
2026_07_06_21_44_49.276,3.866,34,0,0.763,0,0,0,0, ,0,0,0,0,0, ,-38.5,365.7,931.3,-0.7,-0.5,-1.7,25,-39.834,364.755,930.761,-0.685066,-0.485712,-1.74401,
2026_07_06_21_44_49.295,3.866,34.1,0,0.763,0,0,0,0, ,0,0,0,0,0, ,-39.1,363.8,931.7,-0.8,-0.4,-1.7,25,-39.771,364.755,930.806,-0.689023,-0.483536,-1.74133,
2026_07_06_21_44_49.314,3.866,34.1,0,0.764,0,0,0,0, ,0,0,0,0,0, ,-40.2,364.2,931.3,-0.7,-0.5,-1.8,25,-39.7636,364.709,930.849,-0.692739,-0.481492,-1.74185,
2026_07_06_21_44_49.334,3.866,34.1,0,0.761,0,0,0,0, ,0,0,0,0,0, ,-40.2,365.3,930.4,-0.7,-0.5,-1.8,25,-39.7902,364.711,930.849,-0.693181,-0.48262,-1.7454,
2026_07_06_21_44_49.353,3.866,34.2,0,0.763,0,0,0,0, ,0,0,0,0,0, ,-38.4,365.4,930.9,-0.6,-0.5,-1.7,25,-39.7603,364.75,930.836,-0.69055,-0.483679,-1.74568,
2026_07_06_21_44_49.374,3.866,34.1,0,0.763,0,0,0,0, ,0,0,0,0,0, ,-40.4,364.7,930.5,-0.6,-0.5,-1.7,25,-39.7384,364.768,930.828,-0.685032,-0.484674,-1.74289,
2026_07_06_21_44_49.394,3.866,34.1,0,0.763,0,0,0,0, ,0,0,0,0,0, ,-41,365.1,930.9,-0.6,-0.4,-1.8,25,-39.797,364.776,930.82,-0.67985,-0.482561,-1.74333,
2026_07_06_21_44_49.412,3.866,34,0,0.76,0,0,0,0, ,0,0,0,0,0, ,-39.4,365.6,932,-0.7,-0.5,-1.8,25,-39.8215,364.811,930.859,-0.678031,-0.480577,-1.74678,
2026_07_06_21_44_49.433,3.866,34.1,0,0.763,0,0,0,0, ,0,0,0,0,0, ,-39.3,365.3,931.3,-0.6,-0.5,-1.7,25,-39.7928,364.85,930.907,-0.676323,-0.48176,-1.74698,
2026_07_06_21_44_49.452,3.866,34.1,0,0.761,0,0,0,0, ,0,0,0,0,0, ,-40.5,365.3,930.9,-0.6,-0.4,-1.8,25,-39.7993,364.878,930.919,-0.671672,-0.479825,-1.74716,
2026_07_06_21_44_49.472,3.866,34.2,0,0.763,0,0,0,0, ,0,0,0,0,0, ,-40,365.3,930.1,-0.7,-0.5,-1.7,25,-39.8268,364.903,930.893,-0.670352,-0.478007,-1.74733,
2026_07_06_21_44_49.492,3.866,34.1,0,0.763,0,0,0,0, ,0,0,0,0,0, ,-41.3,364.7,930.1,-0.7,-0.5,-1.7,25,-39.8769,364.909,930.845,-0.672158,-0.479347,-1.74445,
2026_07_06_21_44_49.512,3.866,34,0,0.763,0,0,0,0, ,0,0,0,0,0, ,-39.7,363.6,930.7,-0.7,-0.5,-1.7,25,-39.9149,364.863,930.818,-0.673855,-0.480606,-1.74174,
2026_07_06_21_44_49.532,3.866,34.1,0,0.763,0,0,0,0, ,0,0,0,0,0, ,-38.5,366.2,930,-0.6,-0.4,-1.7,25,-39.8653,364.865,930.789,-0.672401,-0.478741,-1.7392,
2026_07_06_21_44_49.552,3.866,34.1,0,0.763,0,0,0,0, ,0,0,0,0,0, ,-39.6,366.3,931.1,-0.6,-0.5,-1.8,25,-39.8156,364.95,930.775,-0.667989,-0.47699,-1.73986,
2026_07_06_21_44_49.571,3.866,34.1,0,0.763,0,0,0,0, ,0,0,0,0,0, ,-38.9,364.6,929.8,-0.6,-0.5,-1.7,25,-39.7811,364.98,930.755,-0.663846,-0.478392,-1.74047,
2026_07_06_21_44_49.591,3.866,34.1,0,0.764,0,0,0,0, ,0,0,0,0,0, ,-40.1,365.2,930.6,-0.6,-0.5,-1.7,25,-39.764,364.975,930.721,-0.659956,-0.479709,-1.73801,
2026_07_06_21_44_49.617,3.866,34.1,0,0.764,0,0,0,0, ,0,0,0,0,0, ,-40.4,365.4,930.4,-0.6,-0.6,-1.8,25,-39.7936,364.995,930.708,-0.656302,-0.483992,-1.73874,
2026_07_06_21_44_49.631,3.866,34.1,0,0.761,0,0,0,0, ,0,0,0,0,0, ,-40.1,364.6,929.4,-0.7,-0.5,-1.7,25,-39.8214,364.995,930.658,-0.655918,-0.488014,-1.73942,
2026_07_06_21_44_49.654,3.866,34.1,0,0.763,0,0,0,0, ,0,0,0,0,0, ,-40.5,365.9,930.7,-0.7,-0.5,-1.8,25,-39.8506,365.011,930.621,-0.658604,-0.488745,-1.74007,
2026_07_06_21_44_49.670,3.866,34,0,0.763,0,0,0,0, ,0,0,0,0,0, ,-39.3,363.1,931.3,-0.7,-0.5,-1.8,25,-39.8536,364.98,930.644,-0.661127,-0.489431,-1.74372,
2026_07_06_21_44_49.691,3.866,34,0,0.763,0,0,0,0, ,0,0,0,0,0, ,-39.7,365.1,931,-0.7,-0.5,-1.8,25,-39.832,364.926,930.675,-0.663496,-0.490075,-1.74715,
2026_07_06_21_44_49.710,3.866,34,0,0.761,0,0,0,0, ,0,0,0,0,0, ,-38.8,364.7,929.9,-0.7,-0.5,-1.8,25,-39.7966,364.925,930.661,-0.66572,-0.490679,-1.75037,
2026_07_06_21_44_49.730,3.866,34.2,0,0.761,0,0,0,0, ,0,0,0,0,0, ,-39.1,364.6,932.2,-0.7,-0.4,-1.7,25,-39.745,364.908,930.685,-0.667809,-0.488201,-1.75035,
2026_07_06_21_44_49.749,3.866,34.1,0,0.763,0,0,0,0, ,0,0,0,0,0, ,-40.1,364.5,930.1,-0.8,-0.5,-1.8,25,-39.7361,364.886,930.713,-0.672818,-0.485873,-1.75033,
2026_07_06_21_44_49.770,3.866,34.2,0,0.762,0,0,0,0, ,0,0,0,0,0, ,-40.5,366.6,931.3,-0.8,-0.5,-1.7,25,-39.7705,364.926,930.713,-0.680568,-0.486734,-1.75031,
2026_07_06_21_44_49.789,3.866,34.1,0,0.763,0,0,0,0, ,0,0,0,0,0, ,-39.7,365.2,930.6,-0.7,-0.5,-1.7,25,-39.7906,364.986,930.727,-0.684799,-0.487542,-1.74724,
2026_07_06_21_44_49.809,3.866,34,0,0.763,0,0,0,0, ,0,0,0,0,0, ,-40.1,364.9,931.2,-0.8,-0.5,-1.8,25,-39.7973,364.99,930.738,-0.688772,-0.488301,-1.74741,
2026_07_06_21_44_49.836,3.866,34.1,0,0.763,0,0,0,0, ,0,0,0,0,0, ,-39.9,366.3,930.1,-0.7,-0.5,-1.7,25,-39.8096,365.027,930.732,-0.692503,-0.489014,-1.74757,
2026_07_06_21_44_49.848,3.866,34,0,0.761,0,0,0,0, ,0,0,0,0,0, ,-39.4,364.8,930.4,-0.7,-0.5,-1.7,25,-39.7999,365.059,930.703,-0.69296,-0.489684,-1.74467,
2026_07_06_21_44_49.868,3.866,34.1,0,0.763,0,0,0,0, ,0,0,0,0,0, ,-40.2,364.8,930.2,-0.6,-0.5,-1.8,25,-39.7999,365.043,930.678,-0.690342,-0.490312,-1.74499,
2026_07_06_21_44_49.888,3.866,34.1,0,0.761,0,0,0,0, ,0,0,0,0,0, ,-39.7,364.9,931.1,-0.7,-0.5,-1.7,25,-39.809,365.031,930.677,-0.687884,-0.490903,-1.7453,
2026_07_06_21_44_49.908,3.866,34.1,0,0.764,0,0,0,0, ,0,0,0,0,0, ,-40.2,365.4,931.3,-0.6,-0.5,-1.7,25,-39.8176,365.038,930.709,-0.685575,-0.491457,-1.74254,
2026_07_06_21_44_49.928,3.866,34.1,0,0.763,0,0,0,0, ,0,0,0,0,0, ,-40.5,365.1,929.8,-0.6,-0.5,-1.8,25,-39.8501,365.051,930.699,-0.68036,-0.491977,-1.74299,
2026_07_06_21_44_49.948,3.866,34.1,0,0.76,0,0,0,0, ,0,0,0,0,0, ,-38.9,364.3,930.6,-0.6,-0.5,-1.7,25,-39.8409,365.03,930.668,-0.675463,-0.492466,-1.74342,
2026_07_06_21_44_49.967,3.866,34.1,0,0.764,0,0,0,0, ,0,0,0,0,0, ,-39.4,364,930.5,-0.7,-0.5,-1.8,25,-39.7988,364.976,930.661,-0.673912,-0.492925,-1.74382,
2026_07_06_21_44_49.987,3.866,34.2,0,0.763,0,0,0,0, ,0,0,0,0,0, ,-39.1,365.2,931,-0.6,-0.5,-1.7,25,-39.7654,364.953,930.667,-0.672455,-0.493357,-1.7442,
2026_07_06_21_44_50.007,3.866,34,0,0.761,0,0,0,0, ,0,0,0,0,0, ,-39.6,363.7,930.4,-0.7,-0.5,-1.7,25,-39.7401,364.923,930.669,-0.671086,-0.493761,-1.7415,
2026_07_06_21_44_50.026,3.866,34.1,0,0.761,0,0,0,0, ,0,0,0,0,0, ,-38.9,364.6,931.3,-0.8,-0.5,-1.8,25,-39.7102,364.876,930.68,-0.675895,-0.494142,-1.74202,
2026_07_06_21_44_50.046,3.866,34.1,0,0.761,0,0,0,0, ,0,0,0,0,0, ,-38.9,363.7,929.6,-0.8,-0.5,-1.8,25,-39.6608,364.831,930.666,-0.683458,-0.494499,-1.74556,
2026_07_06_21_44_50.066,3.866,34.1,0,0.761,0,0,0,0, ,0,0,0,0,0, ,-39,364.9,931,-0.7,-0.5,-1.8,25,-39.6175,364.799,930.643,-0.687513,-0.494834,-1.74887,
2026_07_06_21_44_50.086,3.866,34.1,0,0.763,0,0,0,0, ,0,0,0,0,0, ,-39.9,365.7,931.8,-0.7,-0.5,-1.7,25,-39.6073,364.83,930.69,-0.688274,-0.495149,-1.74894,
2026_07_06_21_44_50.105,3.866,34.1,0,0.763,0,0,0,0, ,0,0,0,0,0, ,-39.1,364.7,932.1,-0.7,-0.4,-1.7,25,-39.6008,364.852,930.766,-0.688988,-0.492397,-1.74596,
2026_07_06_21_44_50.125,3.866,34.1,0,0.763,0,0,0,0, ,0,0,0,0,0, ,-40.4,365.3,931.2,-0.9,-0.5,-1.7,25,-39.6099,364.861,930.82,-0.695753,-0.489814,-1.74316,
2026_07_06_21_44_50.144,3.866,34,0,0.763,0,0,0,0, ,0,0,0,0,0, ,-40.4,365.6,931.5,-0.7,-0.5,-1.7,25,-39.658,364.897,930.852,-0.702106,-0.490434,-1.74053,
2026_07_06_21_44_50.164,3.866,34,0,0.763,0,0,0,0, ,0,0,0,0,0, ,-40.7,365.7,930.2,-0.6,-0.4,-1.7,25,-39.7124,364.943,930.852,-0.69893,-0.487971,-1.73806,
2026_07_06_21_44_50.186,3.866,34.1,0,0.763,0,0,0,0, ,0,0,0,0,0, ,-40.8,365.3,930.9,-0.6,-0.5,-1.6,25,-39.7756,364.977,930.834,-0.692902,-0.485657,-1.73269,
2026_07_06_21_44_50.205,3.866,34.2,0,0.763,0,0,0,0, ,0,0,0,0,0, ,-39.6,365.4,930.5,-0.7,-0.5,-1.7,25,-39.8015,365,930.826,-0.690287,-0.486531,-1.72765,
2026_07_06_21_44_50.225,3.866,34.2,0,0.761,0,0,0,0, ,0,0,0,0,0, ,-38.8,364.8,931.7,-0.7,-0.5,-1.8,25,-39.7648,365.006,930.842,-0.690879,-0.487352,-1.72902,
2026_07_06_21_44_50.245,3.866,34.1,0,0.761,0,0,0,0, ,0,0,0,0,0, ,-39.5,364,931.2,-0.7,-0.5,-1.7,25,-39.7273,364.969,930.879,-0.691435,-0.488122,-1.73029,
2026_07_06_21_44_50.264,3.866,34,0,0.761,0,0,0,0, ,0,0,0,0,0, ,-39.3,365.1,930.7,-0.8,-0.5,-1.7,25,-39.7074,364.943,930.884,-0.695004,-0.488846,-1.72845,
2026_07_06_21_44_50.283,3.866,34.1,0,0.763,0,0,0,0, ,0,0,0,0,0, ,-40.1,365.2,933.2,-0.7,-0.5,-1.6,25,-39.7069,364.956,930.949,-0.698355,-0.489526,-1.72367,
2026_07_06_21_44_50.304,3.866,34,0,0.761,0,0,0,0, ,0,0,0,0,0, ,-39.1,365.6,929.8,-0.7,-0.5,-1.7,25,-39.7004,364.983,930.982,-0.698455,-0.490164,-1.71918,
2026_07_06_21_44_50.323,3.866,34.1,0,0.761,0,0,0,0, ,0,0,0,0,0, ,-39.3,365.2,931,-0.7,-0.5,-1.8,25,-39.6699,365.008,930.947,-0.69855,-0.490763,-1.72106,
2026_07_06_21_44_50.343,3.866,34.1,0,0.761,0,0,0,0, ,0,0,0,0,0, ,-38.3,364.6,930.4,-0.7,-0.5,-1.7,25,-39.6169,365.002,930.932,-0.698638,-0.491326,-1.72282,
2026_07_06_21_44_50.363,3.866,34.2,0,0.763,0,0,0,0, ,0,0,0,0,0, ,-39.6,364.8,932,-0.6,-0.5,-1.7,25,-39.5763,364.983,930.948,-0.695674,-0.491855,-1.72143,
2026_07_06_21_44_50.382,3.866,34.2,0,0.763,0,0,0,0, ,0,0,0,0,0, ,-40,365.1,930.5,-0.6,-0.5,-1.8,25,-39.5899,364.981,930.967,-0.689844,-0.492351,-1.72317,
2026_07_06_21_44_50.402,3.866,34.1,0,0.761,0,0,0,0, ,0,0,0,0,0, ,-41,365.1,931,-0.6,-0.5,-1.7,25,-39.6454,364.989,930.953,-0.684369,-0.492817,-1.72481,
2026_07_06_21_44_50.423,3.866,34.2,0,0.764,0,0,0,0, ,0,0,0,0,0, ,-39.4,364.8,930.2,-0.6,-0.5,-1.7,25,-39.6792,364.986,930.932,-0.679228,-0.493255,-1.72329,
2026_07_06_21_44_50.443,3.866,34.1,0,0.763,0,0,0,0, ,0,0,0,0,0, ,-39.5,364.9,929.6,-0.6,-0.5,-1.8,25,-39.6652,364.978,930.869,-0.6744,-0.493666,-1.72492,
2026_07_06_21_44_50.462,3.866,34.1,0,0.761,0,0,0,0, ,0,0,0,0,0, ,-40.2,365.1,929.5,-0.6,-0.5,-1.8,25,-39.6765,364.979,930.789,-0.669866,-0.494052,-1.7295,
2026_07_06_21_44_50.482,3.866,34.2,0,0.763,0,0,0,0, ,0,0,0,0,0, ,-39.5,363.8,930.7,-0.7,-0.4,-1.7,25,-39.687,364.947,930.747,-0.668656,-0.491368,-1.73075,
2026_07_06_21_44_50.502,3.866,34.2,0,0.761,0,0,0,0, ,0,0,0,0,0, ,-38.8,363.5,929.8,-0.7,-0.4,-1.6,25,-39.6543,364.868,930.716,-0.670566,-0.4858,-1.72583,
2026_07_06_21_44_50.521,3.866,34,0,0.763,0,0,0,0, ,0,0,0,0,0, ,-39.3,366,930.4,-0.7,-0.4,-1.8,25,-39.6175,364.861,930.679,-0.672359,-0.480571,-1.72425,
2026_07_06_21_44_50.541,3.866,34.1,0,0.763,0,0,0,0, ,0,0,0,0,0, ,-39.3,364.7,930.9,-0.7,-0.5,-1.8,25,-39.5981,364.891,930.677,-0.674044,-0.478708,-1.72887,
2026_07_06_21_44_50.561,3.866,34.1,0,0.763,0,0,0,0, ,0,0,0,0,0, ,-40.1,364.1,931.2,-0.7,-0.5,-1.7,25,-39.6043,364.861,930.7,-0.675625,-0.480006,-1.73016,
2026_07_06_21_44_50.581,3.866,34.1,0,0.763,0,0,0,0, ,0,0,0,0,0, ,-39.6,366.8,931.1,-0.7,-0.5,-1.7,25,-39.6193,364.897,930.727,-0.677111,-0.481224,-1.72832,
2026_07_06_21_44_50.605,3.866,34.1,0,0.763,0,0,0,0, ,0,0,0,0,0, ,-39.5,364.9,931.3,-0.7,-0.4,-1.8,25,-39.6151,364.955,930.756,-0.678505,-0.479322,-1.72964,
2026_07_06_21_44_50.620,3.866,34.1,0,0.763,0,0,0,0, ,0,0,0,0,0, ,-38.8,364.7,930.5,-0.6,-0.4,-1.8,25,-39.5868,364.945,930.765,-0.676768,-0.474488,-1.73393,
2026_07_06_21_44_50.639,3.866,34.2,0,0.763,0,0,0,0, ,0,0,0,0,0, ,-41.1,364.7,930.9,-0.7,-0.5,-1.7,25,-39.6089,364.93,930.761,-0.675137,-0.472996,-1.73491,
2026_07_06_21_44_50.661,3.866,34.1,0,0.763,0,0,0,0, ,0,0,0,0,0, ,-40.1,365.4,929.5,-0.7,-0.5,-1.8,25,-39.6693,364.938,930.727,-0.676652,-0.474641,-1.73583,
2026_07_06_21_44_50.680,3.866,34.1,0,0.764,0,0,0,0, ,0,0,0,0,0, ,-39.5,364.6,929.9,-0.7,-0.5,-1.7,25,-39.6772,364.941,930.664,-0.678075,-0.476187,-1.73669,
2026_07_06_21_44_50.699,3.866,34.2,0,0.764,0,0,0,0, ,0,0,0,0,0, ,-40.2,365.7,932,-0.8,-0.4,-1.8,25,-39.6878,364.954,930.682,-0.682458,-0.474591,-1.7375,
2026_07_06_21_44_50.719,3.866,34,0,0.763,0,0,0,0, ,0,0,0,0,0, ,-39.7,366.6,930.7,-0.7,-0.5,-1.7,25,-39.7038,365.027,930.722,-0.686574,-0.473092,-1.73826,
2026_07_06_21_44_50.739,3.866,34.1,0,0.763,0,0,0,0, ,0,0,0,0,0, ,-40.8,364.9,931,-0.7,-0.5,-1.7,25,-39.737,365.071,930.73,-0.687392,-0.474732,-1.73593,
2026_07_06_21_44_50.760,3.866,34.1,0,0.762,0,0,0,0, ,0,0,0,0,0, ,-39.9,365.1,929.9,-0.5,-0.5,-1.7,25,-39.7744,365.067,930.713,-0.682067,-0.476272,-1.73374,
2026_07_06_21_44_50.778,3.866,34.1,0,0.763,0,0,0,0, ,0,0,0,0,0, ,-39.6,365.4,930.1,-0.7,-0.5,-1.8,25,-39.7729,365.078,930.67,-0.677066,-0.477718,-1.73473,
2026_07_06_21_44_50.799,3.866,34,0,0.763,0,0,0,0, ,0,0,0,0,0, ,-40.1,365.8,930.9,-0.6,-0.5,-1.7,25,-39.7776,365.11,930.659,-0.675416,-0.479076,-1.73566,
2026_07_06_21_44_50.818,3.866,34.1,0,0.763,0,0,0,0, ,0,0,0,0,0, ,-40.7,364.5,930,-0.6,-0.5,-1.8,25,-39.8155,365.112,930.646,-0.670821,-0.480351,-1.73654,
2026_07_06_21_44_50.838,3.866,34.2,0,0.762,0,0,0,0, ,0,0,0,0,0, ,-39.3,364,930.7,-0.7,-0.4,-1.7,25,-39.8268,365.06,930.628,-0.669552,-0.478501,-1.73736,
2026_07_06_21_44_50.858,3.866,34.1,0,0.763,0,0,0,0, ,0,0,0,0,0, ,-39.5,364.3,929.6,-0.6,-0.4,-1.8,25,-39.8008,365.004,930.599,-0.66836,-0.473717,-1.73813,
2026_07_06_21_44_50.879,3.866,34.1,0,0.763,0,0,0,0, ,0,0,0,0,0, ,-39.7,364.2,931.7,-0.6,-0.5,-1.7,25,-39.7885,364.958,930.602,-0.664195,-0.472272,-1.73885,
2026_07_06_21_44_50.900,3.866,34.1,0,0.763,0,0,0,0, ,0,0,0,0,0, ,-39.3,366.9,930,-0.6,-0.5,-1.8,25,-39.771,364.994,930.617,-0.660283,-0.473962,-1.73953,
2026_07_06_21_44_50.917,3.866,34.1,0,0.763,0,0,0,0, ,0,0,0,0,0, ,-39.5,365.3,929.6,-0.6,-0.5,-1.7,25,-39.7483,365.062,930.568,-0.656609,-0.475549,-1.74017,
2026_07_06_21_44_50.937,3.866,34.2,0,0.762,0,0,0,0, ,0,0,0,0,0, ,-38.4,364.7,930.9,-0.7,-0.5,-1.7,25,-39.6997,365.058,930.548,-0.656207,-0.477039,-1.73772,
2026_07_06_21_44_50.957,3.866,34.1,0,0.764,0,0,0,0, ,0,0,0,0,0, ,-40,365.2,931.1,-0.7,-0.4,-1.8,25,-39.6692,365.051,930.576,-0.658875,-0.475391,-1.73847,
2026_07_06_21_44_50.976,3.866,34.1,0,0.763,0,0,0,0, ,0,0,0,0,0, ,-39.6,365.2,929.9,-0.6,-0.4,-1.8,25,-39.6772,365.06,930.571,-0.658334,-0.470797,-1.74222,
2026_07_06_21_44_50.996,3.866,34,0,0.763,0,0,0,0, ,0,0,0,0,0, ,-39,365.3,930.7,-0.7,-0.5,-1.8,25,-39.6542,365.072,930.555,-0.657827,-0.469529,-1.74574,
2026_07_06_21_44_51.016,3.866,34.1,0,0.763,0,0,0,0, ,0,0,0,0,0, ,-40,365.4,929.8,-0.6,-0.5,-1.8,25,-39.6448,365.089,930.536,-0.65735,-0.471386,-1.74905,
2026_07_06_21_44_51.036,3.866,34.1,0,0.763,0,0,0,0, ,0,0,0,0,0, ,-39.5,364.5,930,-0.7,-0.5,-1.8,25,-39.6512,365.08,930.497,-0.656902,-0.47313,-1.75215,
2026_07_06_21_44_51.056,3.866,34,0,0.762,0,0,0,0, ,0,0,0,0,0, ,-38.9,366.2,930.2,-0.7,-0.5,-1.8,25,-39.6237,365.097,930.473,-0.659528,-0.474767,-1.75507,
2026_07_06_21_44_51.076,3.866,34.1,0,0.763,0,0,0,0, ,0,0,0,0,0, ,-40.2,364.3,930.6,-0.7,-0.5,-1.8,25,-39.6192,365.106,930.469,-0.661994,-0.476305,-1.7578,
2026_07_06_21_44_51.095,3.866,34.1,0,0.763,0,0,0,0, ,0,0,0,0,0, ,-39.3,365.4,930.2,-0.6,-0.4,-1.7,25,-39.6272,365.091,930.464,-0.661263,-0.474702,-1.75733,
2026_07_06_21_44_51.115,3.866,34.2,0,0.763,0,0,0,0, ,0,0,0,0,0, ,-39.6,366.2,932.1,-0.8,-0.5,-1.8,25,-39.6164,365.134,930.506,-0.663624,-0.473197,-1.75688,
2026_07_06_21_44_51.134,3.866,34.1,0,0.764,0,0,0,0, ,0,0,0,0,0, ,-39.4,363.6,930.5,-0.7,-0.5,-1.8,25,-39.6093,365.12,930.555,-0.668887,-0.47483,-1.75951,
2026_07_06_21_44_51.154,3.866,34.1,0,0.764,0,0,0,0, ,0,0,0,0,0, ,-39.3,365.3,931.5,-0.7,-0.5,-1.7,25,-39.5935,365.079,930.582,-0.670783,-0.476364,-1.75893,
2026_07_06_21_44_51.175,3.866,34,0,0.763,0,0,0,0, ,0,0,0,0,0, ,-40.8,364.6,931.3,-0.8,-0.4,-1.8,25,-39.6213,365.071,930.632,-0.675611,-0.474757,-1.75839,
2026_07_06_21_44_51.194,3.866,34.1,0,0.762,0,0,0,0, ,0,0,0,0,0, ,-38.6,366.8,930.2,-0.7,-0.5,-1.8,25,-39.6261,365.109,930.639,-0.680144,-0.473249,-1.76092,
2026_07_06_21_44_51.214,3.866,34.1,0,0.762,0,0,0,0, ,0,0,0,0,0, ,-40.4,365.3,931.5,-0.7,-0.5,-1.8,25,-39.6184,365.167,930.652,-0.681354,-0.474879,-1.7633,
2026_07_06_21_44_51.234,3.866,34.1,0,0.763,0,0,0,0, ,0,0,0,0,0, ,-38.8,365.6,929.6,-0.7,-0.4,-1.7,25,-39.6173,365.184,930.645,-0.68249,-0.473363,-1.76249,
2026_07_06_21_44_51.253,3.866,34.1,0,0.763,0,0,0,0, ,0,0,0,0,0, ,-39.1,365.2,930.2,-0.7,-0.5,-1.7,25,-39.5767,365.197,930.6,-0.683557,-0.471939,-1.75868,
2026_07_06_21_44_51.274,3.866,34.1,0,0.763,0,0,0,0, ,0,0,0,0,0, ,-39.7,366,929.9,-0.7,-0.5,-1.7,25,-39.5659,365.222,930.567,-0.684559,-0.473649,-1.75511,
2026_07_06_21_44_51.293,3.866,34.2,0,0.764,0,0,0,0, ,0,0,0,0,0, ,-39.6,365.8,930.6,-0.7,-0.5,-1.7,25,-39.571,365.263,930.547,-0.6855,-0.475255,-1.75175,
2026_07_06_21_44_51.313,3.866,34.1,0,0.763,0,0,0,0, ,0,0,0,0,0, ,-39.9,364.3,930.7,-0.7,-0.4,-1.7,25,-39.5819,365.25,930.554,-0.686384,-0.473716,-1.7486,
2026_07_06_21_44_51.332,3.866,34.2,0,0.762,0,0,0,0, ,0,0,0,0,0, ,-39.5,364.3,931.2,-0.6,-0.5,-1.7,25,-39.5891,365.192,930.578,-0.684166,-0.472271,-1.74564,
2026_07_06_21_44_51.352,3.866,34.1,0,0.762,0,0,0,0, ,0,0,0,0,0, ,-40.5,365.8,930.4,-0.6,-0.5,-1.7,25,-39.6142,365.183,930.591,-0.679038,-0.47396,-1.74285,
2026_07_06_21_44_51.372,3.866,34.1,0,0.762,0,0,0,0, ,0,0,0,0,0, ,-39.6,365.1,931,-0.7,-0.5,-1.7,25,-39.6407,365.2,930.598,-0.677268,-0.475547,-1.74024,
2026_07_06_21_44_51.398,3.866,34.1,0,0.762,0,0,0,0, ,0,0,0,0,0, ,-39.4,364,930.5,-0.7,-0.5,-1.8,25,-39.6321,365.16,930.607,-0.678653,-0.477037,-1.74084,
2026_07_06_21_44_51.412,3.866,34.1,0,0.763,0,0,0,0, ,0,0,0,0,0, ,-40.1,365.1,929.5,-0.8,-0.5,-1.7,25,-39.6393,365.123,930.57,-0.683001,-0.478437,-1.7414,
2026_07_06_21_44_51.431,3.866,34.1,0,0.764,0,0,0,0, ,0,0,0,0,0, ,-40.6,365.1,931.1,-0.7,-0.5,-1.7,25,-39.6826,365.121,930.554,-0.687084,-0.479751,-1.73887,
2026_07_06_21_44_51.451,3.866,34,0,0.764,0,0,0,0, ,0,0,0,0,0, ,-41,365.2,931.2,-0.7,-0.5,-1.7,25,-39.7507,365.123,930.59,-0.687871,-0.480985,-1.7365,
2026_07_06_21_44_51.471,3.866,34.2,0,0.763,0,0,0,0, ,0,0,0,0,0, ,-40.2,364.8,931.2,-0.7,-0.5,-1.7,25,-39.8025,365.116,930.627,-0.68861,-0.482143,-1.73428,
2026_07_06_21_44_51.491,3.866,34.2,0,0.763,0,0,0,0, ,0,0,0,0,0, ,-39.5,363.7,930.9,-0.7,-0.5,-1.7,25,-39.8054,365.063,930.653,-0.689304,-0.483231,-1.73219,
2026_07_06_21_44_51.511,3.866,34.1,0,0.763,0,0,0,0, ,0,0,0,0,0, ,-40,364.8,931.5,-0.7,-0.5,-1.7,25,-39.802,365.013,930.686,-0.689956,-0.484253,-1.73023,
2026_07_06_21_44_51.530,3.866,34.1,0,0.764,0,0,0,0, ,0,0,0,0,0, ,-40.6,366,930.6,-0.7,-0.5,-1.8,25,-39.8323,365.037,930.708,-0.690568,-0.485213,-1.73143,
2026_07_06_21_44_51.551,3.866,34.1,0,0.764,0,0,0,0, ,0,0,0,0,0, ,-40,365.6,931.8,-0.7,-0.5,-1.8,25,-39.8608,365.083,930.738,-0.691143,-0.486114,-1.73561,
2026_07_06_21_44_51.570,3.866,34.1,0,0.763,0,0,0,0, ,0,0,0,0,0, ,-39.6,364.2,929.9,-0.6,-0.5,-1.7,25,-39.8571,365.072,930.745,-0.688636,-0.48696,-1.73649,
2026_07_06_21_44_51.590,3.866,34.1,0,0.762,0,0,0,0, ,0,0,0,0,0, ,-39.1,364.6,930.2,-0.7,-0.5,-1.8,25,-39.8262,365.031,930.703,-0.686281,-0.487755,-1.73731,
2026_07_06_21_44_51.610,3.866,34.1,0,0.762,0,0,0,0, ,0,0,0,0,0, ,-40.8,365.3,930.9,-0.7,-0.5,-1.7,25,-39.8338,365.026,930.694,-0.687117,-0.488501,-1.73809,
2026_07_06_21_44_51.629,3.866,34.1,0,0.763,0,0,0,0, ,0,0,0,0,0, ,-40.4,364.7,930.4,-0.7,-0.5,-1.7,25,-39.8805,365.025,930.691,-0.687902,-0.489202,-1.73576,
2026_07_06_21_44_51.650,3.866,34.1,0,0.762,0,0,0,0, ,0,0,0,0,0, ,-39.9,365.8,931.2,-0.7,-0.5,-1.7,25,-39.8969,365.038,930.698,-0.688639,-0.48986,-1.73359,
2026_07_06_21_44_51.669,3.866,34.1,0,0.762,0,0,0,0, ,0,0,0,0,0, ,-40.1,365.4,931,-0.7,-0.5,-1.7,25,-39.9032,365.073,930.722,-0.689332,-0.490478,-1.73154,
2026_07_06_21_44_51.688,3.866,34.1,0,0.763,0,0,0,0, ,0,0,0,0,0, ,-39.3,364.7,930.9,-0.7,-0.5,-1.8,25,-39.8908,365.071,930.736,-0.689982,-0.491058,-1.73266,
2026_07_06_21_44_51.708,3.866,34.1,0,0.762,0,0,0,0, ,0,0,0,0,0, ,-40.5,365.1,930.6,-0.7,-0.5,-1.7,25,-39.8914,365.061,930.737,-0.690592,-0.491603,-1.73372,
2026_07_06_21_44_51.729,3.866,34.1,0,0.763,0,0,0,0, ,0,0,0,0,0, ,-40.1,364.8,931.7,-0.8,-0.4,-1.8,25,-39.9163,365.054,930.762,-0.694212,-0.489068,-1.73471,
2026_07_06_21_44_51.749,3.866,34.2,0,0.76,0,0,0,0, ,0,0,0,0,0, ,-41.6,364.9,931.7,-0.7,-0.5,-1.8,25,-39.9732,365.042,930.819,-0.697612,-0.486687,-1.73869,
2026_07_06_21_44_51.768,3.866,34.1,0,0.763,0,0,0,0, ,0,0,0,0,0, ,-39.1,364.8,930.9,-0.7,-0.5,-1.7,25,-39.9961,365.03,930.848,-0.697758,-0.487498,-1.73938,
2026_07_06_21_44_51.788,3.866,34.2,0,0.763,0,0,0,0, ,0,0,0,0,0, ,-39.7,364.5,930.7,-0.7,-0.5,-1.8,25,-39.9598,365.007,930.845,-0.697894,-0.48826,-1.74003,
2026_07_06_21_44_51.808,3.866,34,0,0.764,0,0,0,0, ,0,0,0,0,0, ,-39.6,365.8,930.4,-0.7,-0.6,-1.8,25,-39.9409,365.016,930.827,-0.698022,-0.492022,-1.74368,
2026_07_06_21_44_51.828,3.866,34.1,0,0.762,0,0,0,0, ,0,0,0,0,0, ,-40.2,360.4,931,0.2,-0.5,-1.6,25,-39.9384,364.899,930.82,-0.670721,-0.495555,-1.74102,
2026_07_06_21_44_51.847,3.866,34.1,0,0.763,0,0,0,0, ,0,0,0,0,0, ,-38.8,369.7,930.9,0,-0.3,-1.2,25,-39.9117,364.908,930.828,-0.623755,-0.489732,-1.72024,
2026_07_06_21_44_51.867,3.866,34.2,0,0.763,0,0,0,0, ,0,0,0,0,0, ,-37.9,340.4,938.2,9.4,4.7,11.1,25,-39.8165,364.307,931.054,-0.299339,-0.325827,-1.31377,
2026_07_06_21_44_51.887,3.866,34.1,0,0.762,0,0,0,0, ,0,0,0,0,0, ,-45,403.5,914.4,-3.3,3,7.5,25,-39.9161,364.773,930.765,-0.0952387,-0.0713625,-0.666995,
2026_07_06_21_44_51.907,3.866,34.1,0,0.764,0,0,0,0, ,0,0,0,0,0, ,-97,465.8,898.4,29.8,3.7,8.6,25,-41.8103,369.031,929.28,0.717987,0.137127,-0.135803,
2026_07_06_21_44_51.931,3.866,34.1,0,0.763,0,0,0,0, ,0,0,0,0,0, ,-46.7,403.1,918.8,29.4,7.2,16,25,-43.6408,373.018,928.02,2.47798,0.46088,0.622004,
2026_07_06_21_44_51.946,3.866,34.1,0,0.764,0,0,0,0, ,0,0,0,0,0, ,-166.1,390.6,901.1,28.2,5.5,12.2,25,-47.4652,374.47,926.919,4.08198,0.819748,1.44332,
2026_07_06_21_44_51.966,3.866,34.1,0,0.763,0,0,0,0, ,0,0,0,0,0, ,-84.9,417.4,943.7,35.7,2.2,8.2,25,-52.2204,376.269,926.643,5.78019,1.0044,1.97693,
2026_07_06_21_44_51.986,3.866,34.2,0,0.763,0,0,0,0, ,0,0,0,0,0, ,33.4,466.1,996.8,24.9,-13,9.4,25,-50.6074,380.26,929.301,7.27436,0.614136,2.39271,
2026_07_06_21_44_52.006,3.866,34.2,0,0.764,0,0,0,0, ,0,0,0,0,0, ,8,518.9,1108.5,-2.7,-43.9,20.6,25,-46.2621,387.099,936.817,7.50749,-1.15696,3.16097,
2026_07_06_21_44_52.025,3.866,34,0,0.763,0,0,0,0, ,0,0,0,0,0, ,3.9,315.1,1104.8,-11,-78.8,26.4,25,-43.0804,388.921,947.166,6.63258,-4.82497,4.40038,
2026_07_06_21_44_52.045,3.866,34,0,0.763,0,0,0,0, ,0,0,0,0,0, ,89.7,529.4,1143.1,-25.8,-134.5,7.6,25,-37.6033,390.952,957.939,5.10716,-11.0299,5.16817,
2026_07_06_21_44_52.065,3.866,34.1,0,0.764,0,0,0,0, ,0,0,0,0,0, ,36.3,573.2,906.6,-26.3,-155.1,30.7,25,-31.4728,400.724,962.017,3.20852,-19.1815,6.02018,
2026_07_06_21_44_52.085,3.866,34.1,0,0.762,0,0,0,0, ,0,0,0,0,0, ,66.5,460.9,898.8,-44.6,-149.7,53.6,25,-26.4228,407.812,958.402,0.852765,-27.2995,8.22184,
2026_07_06_21_44_52.106,3.866,34.1,0,0.762,0,0,0,0, ,0,0,0,0,0, ,143.3,416.6,924.5,-49.8,-156.3,58.7,25,-18.4203,409.697,955.553,-2.07545,-34.9594,11.1425,
2026_07_06_21_44_52.125,3.866,34.1,0,0.762,0,0,0,0, ,0,0,0,0,0, ,203.1,411.2,896.8,-36.1,-166.7,57,25,-6.74342,409.954,952.817,-4.56624,-42.6705,13.9887,
2026_07_06_21_44_52.145,3.866,34.1,0,0.762,0,0,0,0, ,0,0,0,0,0, ,257.3,356,801.2,-29.8,-160.9,66.4,25,7.69532,408.348,946.49,-6.29588,-50.0518,16.8961,
2026_07_06_21_44_52.165,3.866,34.1,0,0.764,0,0,0,0, ,0,0,0,0,0, ,327,274.7,801.1,-29.8,-147.1,66,25,25.0293,402.681,937.634,-7.72816,-56.3862,19.9006,
2026_07_06_21_44_52.184,3.866,34.1,0,0.763,0,0,0,0, ,0,0,0,0,0, ,314.4,289.7,786.1,-28.6,-132.2,59.9,25,43.0467,395.339,928.857,-9.0366,-61.46,22.5239,
2026_07_06_21_44_52.204,3.866,34,0,0.763,0,0,0,0, ,0,0,0,0,0, ,367.4,290.8,802.6,2.5,-119.2,46.2,25,61.1971,388.935,920.66,-9.28117,-65.3747,24.3841,
2026_07_06_21_44_52.223,3.866,34.1,0,0.763,0,0,0,0, ,0,0,0,0,0, ,503.5,312.7,760.1,-7,-112.6,37.4,25,84.0032,383.622,912.171,-8.8527,-68.4536,25.4454,
2026_07_06_21_44_52.243,3.866,34.2,0,0.762,0,0,0,0, ,0,0,0,0,0, ,516.4,321.6,737.6,-12.7,-109.8,40.3,25,109.959,379.571,902.219,-8.91348,-71.0584,26.2622,
2026_07_06_21_44_52.263,3.866,34.1,0,0.76,0,0,0,0, ,0,0,0,0,0, ,521.2,284.4,762,-10.8,-100.5,48.5,25,134.873,374.905,892.931,-9.08633,-73.1359,27.3675,
2026_07_06_21_44_52.284,3.866,34,0,0.76,0,0,0,0, ,0,0,0,0,0, ,567.7,241.2,755.4,-14.2,-98.6,47.5,25,159.832,368.074,884.751,-9.29435,-74.7455,28.6248,
2026_07_06_21_44_52.302,3.866,34.1,0,0.763,0,0,0,0, ,0,0,0,0,0, ,613.8,246,681.2,-15,-95.8,43.8,25,186.091,360.489,874.608,-9.61766,-76.1138,29.6622,
2026_07_06_21_44_52.323,3.866,34.1,0,0.763,0,0,0,0, ,0,0,0,0,0, ,503.9,132.4,712.1,-17.1,-74.9,42.3,25,208.806,350.051,863.763,-10.0096,-76.6766,30.4781,
2026_07_06_21_44_52.342,3.866,34.1,0,0.762,0,0,0,0, ,0,0,0,0,0, ,524.9,245.9,738.2,-29.6,-72.9,-21.3,25,227.428,340.246,855.317,-10.8226,-76.5074,29.2606,
2026_07_06_21_44_52.362,3.866,34.1,0,0.762,0,0,0,0, ,0,0,0,0,0, ,753,228.2,674.6,-36.6,-81.4,-36.3,25,252.505,333.958,846.242,-12.1801,-76.5466,25.7226,
2026_07_06_21_44_52.382,3.866,34.1,0,0.764,0,0,0,0, ,0,0,0,0,0, ,839.5,190.6,653.5,-52.7,-100.6,-24.3,25,285.639,326.367,835.14,-14.1587,-77.4273,22.3087,
2026_07_06_21_44_52.402,3.866,34.1,0,0.763,0,0,0,0, ,0,0,0,0,0, ,713.5,197.6,634.6,-61.2,-112.9,-15.2,25,315.551,318.307,823.495,-16.7663,-79.2142,19.7458,
2026_07_06_21_44_52.421,3.866,34.1,0,0.764,0,0,0,0, ,0,0,0,0,0, ,709.7,199.8,574.3,-67,-108.1,-13.9,25,339.685,311.019,810.147,-19.6507,-81.1207,17.6559,
2026_07_06_21_44_52.441,3.866,34.1,0,0.762,0,0,0,0, ,0,0,0,0,0, ,713.2,134.2,607.6,-49.7,-95.9,-9.2,25,362.34,302.243,796.79,-22.009,-82.393,15.8761,
2026_07_06_21_44_52.460,3.866,34,0,0.762,0,0,0,0, ,0,0,0,0,0, ,787.8,102.1,619.3,-20.2,-95.6,-13,25,385.993,291.024,785.618,-22.7975,-83.2069,14.2323,
2026_07_06_21_44_52.480,3.866,34,0,0.762,0,0,0,0, ,0,0,0,0,0, ,783.3,170.2,527.7,-21.9,-99.9,-13.2,25,410.341,281.587,772.692,-22.6911,-84.0932,12.5667,
2026_07_06_21_44_52.500,3.866,34.1,0,0.763,0,0,0,0, ,0,0,0,0,0, ,770.6,162.5,563.2,-17.7,-84.6,-7.1,25,432.682,274.565,758.844,-22.5149,-84.5902,11.1824,
2026_07_06_21_44_52.520,3.866,34.1,0,0.763,0,0,0,0, ,0,0,0,0,0, ,793.4,176.7,526.2,-11.8,-77.6,-4,25,453.968,268.168,745.795,-22.0417,-84.3775,10.1628,
2026_07_06_21_44_52.540,3.866,34.1,0,0.76,0,0,0,0, ,0,0,0,0,0, ,807,179.1,521.3,-10.9,-66.4,2.2,25,475.067,262.668,732.264,-21.3902,-83.6233,9.48864,
2026_07_06_21_44_52.560,3.866,34.1,0,0.763,0,0,0,0, ,0,0,0,0,0, ,843,191.2,481.9,-9.7,-66.2,3.4,25,496.391,257.944,718.208,-20.7144,-82.5676,9.08105,
2026_07_06_21_44_52.580,3.866,34,0,0.763,0,0,0,0, ,0,0,0,0,0, ,866.4,168.5,477.5,-9.2,-72.6,6.7,25,518.225,253.185,703.674,-20.028,-81.7652,8.83541,
2026_07_06_21_44_52.600,3.866,34.2,0,0.763,0,0,0,0, ,0,0,0,0,0, ,922.9,169.3,381.3,-1.3,-89.1,18.1,25,541.164,248.049,686.96,-19.1274,-81.7095,9.05262,
2026_07_06_21_44_52.619,3.866,34.1,0,0.763,0,0,0,0, ,0,0,0,0,0, ,907.8,146.3,340.5,1.3,-85.6,26.3,25,563.966,242.549,667.091,-17.9618,-82.0532,9.85379,
2026_07_06_21_44_52.642,3.866,34.1,0,0.764,0,0,0,0, ,0,0,0,0,0, ,869.1,165,408.2,-2,-71.1,17.4,25,583.739,237.254,649.252,-16.8886,-81.8275,10.5848,
2026_07_06_21_44_52.659,3.866,34.2,0,0.763,0,0,0,0, ,0,0,0,0,0, ,892.2,145.2,399,-7.1,-60.5,8.7,25,601.832,232.248,634.283,-16.1367,-80.8508,10.735,
2026_07_06_21_44_52.678,3.866,34.1,0,0.762,0,0,0,0, ,0,0,0,0,0, ,917.4,149,347.7,-7.5,-65.7,9.2,25,620.294,227.059,618.382,-15.5982,-79.7692,10.6263,
2026_07_06_21_44_52.698,3.866,34.1,0,0.763,0,0,0,0, ,0,0,0,0,0, ,930.5,126.2,258.6,-4.6,-73.9,11.4,25,638.798,221.608,599.173,-15.0164,-79.1617,10.6064,
2026_07_06_21_44_52.719,3.866,34,0,0.763,0,0,0,0, ,0,0,0,0,0, ,946.1,138.5,246.2,-4.5,-61.3,7.2,25,657.049,216.168,578.041,-14.3786,-78.4571,10.5268,
2026_07_06_21_44_52.738,3.866,34.2,0,0.763,0,0,0,0, ,0,0,0,0,0, ,949.2,134.6,247.3,-3.6,-52.8,5.9,25,674.757,211.317,557.853,-13.7492,-77.1526,10.2844,
2026_07_06_21_44_52.758,3.866,34.1,0,0.763,0,0,0,0, ,0,0,0,0,0, ,971.3,143.4,183.9,2.7,-63.3,5.9,25,692.155,206.91,536.997,-12.9388,-75.9886,10.0173,
2026_07_06_21_44_52.778,3.866,34.1,0,0.762,0,0,0,0, ,0,0,0,0,0, ,977.4,161.7,182.2,9.9,-86.2,9,25,709.351,203.597,515.428,-11.7664,-75.9131,9.86082,
2026_07_06_21_44_52.798,3.866,34.1,0,0.764,0,0,0,0, ,0,0,0,0,0, ,957.2,93.2,257.5,6.4,-80.3,11.8,25,725.07,198.957,497.417,-10.5528,-76.3602,9.89367,
2026_07_06_21_44_52.821,3.866,34.1,0,0.762,0,0,0,0, ,0,0,0,0,0, ,959.4,82.8,219.7,-0.2,-47.4,6.1,25,739.282,192.196,481.645,-9.7208,-75.5978,9.83617,
2026_07_06_21_44_52.837,3.866,34.1,0,0.763,0,0,0,0, ,0,0,0,0,0, ,973.5,127.6,161.6,-3.5,-45.1,6.9,25,753.125,186.894,463.912,-9.24117,-73.8095,9.63287,
2026_07_06_21_44_52.857,3.866,34.1,0,0.762,0,0,0,0, ,0,0,0,0,0, ,969.9,109,166.9,2,-36,10.2,25,766.445,182.714,445.652,-8.72374,-71.7827,9.56688,
2026_07_06_21_44_52.876,3.866,34,0,0.763,0,0,0,0, ,0,0,0,0,0, ,967,119,88.9,-1,-54.8,13.9,25,778.754,178.527,426.289,-8.16167,-70.175,9.7182,
2026_07_06_21_44_52.896,3.866,34.2,0,0.763,0,0,0,0, ,0,0,0,0,0, ,996.4,98.9,88.5,3.1,-64.2,10.2,25,791.121,174.287,405.717,-7.60034,-69.5245,9.86029,
2026_07_06_21_44_52.916,3.866,34.1,0,0.762,0,0,0,0, ,0,0,0,0,0, ,1000.9,86.4,148,0.5,-47.2,3.1,25,803.768,169.312,388.199,-7.0275,-68.6821,9.66466,
2026_07_06_21_44_52.936,3.866,34.1,0,0.763,0,0,0,0, ,0,0,0,0,0, ,982,79.5,138.9,-3.6,-34.1,4.9,25,815.204,164.05,373.285,-6.69372,-66.9739,9.31947,
2026_07_06_21_44_52.956,3.866,34.1,0,0.763,0,0,0,0, ,0,0,0,0,0, ,978.2,107.6,93.1,-4.8,-35.6,8,25,825.253,159.754,357.607,-6.54176,-65.0163,9.14462,
2026_07_06_21_44_52.976,3.866,34.1,0,0.765,0,0,0,0, ,0,0,0,0,0, ,983,86,72.1,-3,-40.6,9.4,25,834.719,155.917,340.848,-6.38077,-63.3761,9.11752,
2026_07_06_21_44_52.995,3.866,34.1,0,0.763,0,0,0,0, ,0,0,0,0,0, ,988.2,93.9,26.9,-3.2,-38.2,7.2,25,843.914,151.898,323.094,-6.18085,-61.9151,9.0677,
2026_07_06_21_44_53.016,3.866,34.1,0,0.763,0,0,0,0, ,0,0,0,0,0, ,989.5,84.9,-0.2,-1.5,-31.2,8.7,25,852.746,148.089,304.219,-5.94741,-60.2566,8.99959,
2026_07_06_21_44_53.036,3.866,34.1,0,0.763,0,0,0,0, ,0,0,0,0,0, ,994,85.4,-15.2,3,-22.9,9.8,25,861.216,144.254,285.212,-5.53929,-58.2331,9.01485,
2026_07_06_21_44_53.055,3.866,34.1,0,0.763,0,0,0,0, ,0,0,0,0,0, ,983.8,86.1,55.5,1.2,-20.1,10.3,25,868.997,140.689,269.06,-5.07377,-55.9947,9.07793,
2026_07_06_21_44_53.075,3.866,34.2,0,0.763,0,0,0,0, ,0,0,0,0,0, ,992.6,68.4,16.8,-5,-24.1,11.9,25,876.261,136.823,254.867,-4.88037,-53.9292,9.20115,
2026_07_06_21_44_53.095,3.866,34.1,0,0.763,0,0,0,0, ,0,0,0,0,0, ,984.9,86.7,-5,-5.5,-23.8,12.6,25,883.116,133.211,239.695,-4.90289,-52.1024,9.38694,
2026_07_06_21_44_53.114,3.866,34.1,0,0.763,0,0,0,0, ,0,0,0,0,0, ,993,45.4,-46.3,-2.9,-18,13,25,889.565,129.118,223.526,-4.86006,-50.201,9.59492,
2026_07_06_21_44_53.134,3.866,34.2,0,0.763,0,0,0,0, ,0,0,0,0,0, ,990.1,68.3,-55,-9.9,-9.9,12.7,25,895.78,124.714,206.818,-4.9539,-47.9919,9.79328,
2026_07_06_21_44_53.154,3.866,34.2,0,0.762,0,0,0,0, ,0,0,0,0,0, ,989.1,64.3,-44,-7.3,-2.6,15.8,25,901.497,121.155,191.199,-5.17608,-45.4483,10.0649,
2026_07_06_21_44_53.174,3.866,34,0,0.76,0,0,0,0, ,0,0,0,0,0, ,990.9,33.5,-21.9,-4.7,3.2,15.9,25,906.89,116.752,177.54,-5.22629,-42.6605,10.4174,
2026_07_06_21_44_53.194,3.866,34.1,0,0.76,0,0,0,0, ,0,0,0,0,0, ,998.7,-35.6,35,4.7,0.8,6.3,25,912.247,109.573,167.12,-4.90781,-39.939,10.459,
2026_07_06_21_44_53.213,3.866,34.1,0,0.762,0,0,0,0, ,0,0,0,0,0, ,981.3,185.7,41.5,-3,-8.2,14,25,916.985,107.47,159.267,-4.55695,-37.7307,10.4402,
2026_07_06_21_44_53.233,3.866,34.2,0,0.763,0,0,0,0, ,0,0,0,0,0, ,999,-39.1,-40.6,2.9,-8.3,21.2,25,921.444,105.387,149.589,-4.2823,-35.9342,10.8765,
2026_07_06_21_44_53.253,3.866,34.2,0,0.763,0,0,0,0, ,0,0,0,0,0, ,990.7,16.7,-53.7,-3.5,5.2,10.6,25,925.917,98.2828,137.6,-4.03963,-33.8389,11.1826,
2026_07_06_21_44_53.273,3.866,34.1,0,0.762,0,0,0,0, ,0,0,0,0,0, ,993.4,-53.2,-24,1.8,18.9,0.1,25,929.947,91.1815,126.848,-3.84526,-31.0426,10.8272,
2026_07_06_21_44_53.293,3.866,34.1,0,0.762,0,0,0,0, ,0,0,0,0,0, ,996.2,23.4,-18.9,1.5,4.8,11.9,25,933.899,84.7172,117.811,-3.5104,-28.4288,10.533,
2026_07_06_21_44_53.313,3.866,34.1,0,0.762,0,0,0,0, ,0,0,0,0,0, ,994.2,-23.1,3,4.8,-3.6,13,25,937.634,79.5639,110.147,-3.10453,-26.6599,10.6498,
2026_07_06_21_44_53.332,3.866,34.1,0,0.763,0,0,0,0, ,0,0,0,0,0, ,990.1,0.3,-19.4,-2.7,-2.5,8.8,25,940.956,74.0208,102.936,-2.85136,-25.2211,10.6651,
2026_07_06_21_44_53.352,3.866,34.1,0,0.763,0,0,0,0, ,0,0,0,0,0, ,992.7,5.1,-24.6,-1,1.2,8.6,25,944.03,69.6747,95.3224,-2.79034,-23.7238,10.5453,
2026_07_06_21_44_53.372,3.866,34.1,0,0.763,0,0,0,0, ,0,0,0,0,0, ,991,-15,9.8,-2.9,3.6,7.6,25,946.944,65.1272,89.0627,-2.73913,-22.1319,10.3963,
2026_07_06_21_44_53.392,3.866,34.1,0,0.761,0,0,0,0, ,0,0,0,0,0, ,994.3,-11.9,29.1,-6.7,-1,4.5,25,949.729,60.3389,84.8207,-2.86472,-20.704,10.1315,
2026_07_06_21_44_53.411,3.866,34.2,0,0.763,0,0,0,0, ,0,0,0,0,0, ,990.7,-24.5,10.4,-8.2,-5.3,2.4,25,952.336,55.553,80.8555,-3.14413,-19.6343,9.72431,
2026_07_06_21_44_53.431,3.866,34.2,0,0.763,0,0,0,0, ,0,0,0,0,0, ,991.8,-15.1,-0.2,-9,-5.1,-0.9,25,954.707,50.9611,76.2391,-3.4766,-18.7547,9.17743,
2026_07_06_21_44_53.451,3.866,34.1,0,0.763,0,0,0,0, ,0,0,0,0,0, ,990.9,-8.4,-30.7,-7.9,-5.2,-0.1,25,956.94,47.1397,70.6518,-3.77967,-17.9257,8.58772,
2026_07_06_21_44_53.471,3.866,34.1,0,0.762,0,0,0,0, ,0,0,0,0,0, ,991.3,-10.8,-31.6,-7.5,-2.3,-0.8,25,959.022,43.6821,64.4483,-4.01856,-17.0619,8.03698,
2026_07_06_21_44_53.490,3.866,34,0,0.762,0,0,0,0, ,0,0,0,0,0, ,989.5,-8.5,-11.7,-2.1,2.6,-1.3,25,960.934,40.4322,59.2016,-4.06618,-16.013,7.48324,
2026_07_06_21_44_53.511,3.866,34.1,0,0.762,0,0,0,0, ,0,0,0,0,0, ,991.5,-9.5,-24.9,-5.1,6.3,-2,25,962.735,37.4199,54.4789,-4.03777,-14.7661,6.92669,
2026_07_06_21_44_53.530,3.866,34.1,0,0.761,0,0,0,0, ,0,0,0,0,0, ,993.8,17.4,46.7,5.5,2.9,0.5,25,964.558,35.3803,51.8233,-3.77953,-13.5859,6.45889,
2026_07_06_21_44_53.550,3.866,34.1,0,0.763,0,0,0,0, ,0,0,0,0,0, ,992,-12,17.9,-0.7,-3.3,-1.3,25,966.285,33.3889,50.6336,-3.40297,-12.7702,6.04092,
2026_07_06_21_44_53.570,3.866,34.1,0,0.762,0,0,0,0, ,0,0,0,0,0, ,992.1,-9.5,-21.8,-1.3,-2.5,-1.6,25,967.855,30.6992,47.4293,-3.25654,-12.1688,5.58445,
2026_07_06_21_44_53.595,3.866,34.2,0,0.763,0,0,0,0, ,0,0,0,0,0, ,991.5,-8.9,-19.2,1,0.5,-1.6,25,969.315,28.2678,43.2898,-3.06723,-11.4882,5.14664,
2026_07_06_21_44_53.610,3.866,34.1,0,0.76,0,0,0,0, ,0,0,0,0,0, ,991.8,-12.3,-5.4,2.1,1.6,-2,25,970.676,25.8993,39.9023,-2.78587,-10.7241,4.72333,
2026_07_06_21_44_53.629,3.866,34,0,0.763,0,0,0,0, ,0,0,0,0,0, ,993,-8.5,4,1.2,1.5,-2.1,25,971.999,23.6873,37.4281,-2.51556,-9.97617,4.31058,
2026_07_06_21_44_53.649,3.866,34.1,0,0.764,0,0,0,0, ,0,0,0,0,0, ,991.4,-10.4,-6.1,1.6,1.3,-2,25,973.23,21.668,35.0834,-2.27696,-9.28293,3.92298,
2026_07_06_21_44_53.668,3.866,34.1,0,0.763,0,0,0,0, ,0,0,0,0,0, ,992.5,-7.8,-2.3,1.2,1.4,-2,25,974.371,19.7931,32.6895,-2.05289,-8.63499,3.56205,
2026_07_06_21_44_53.688,3.866,34.2,0,0.762,0,0,0,0, ,0,0,0,0,0, ,991.9,-7.8,-1.9,1.5,1.4,-1.9,25,975.458,18.1116,30.5696,-1.84553,-8.02348,3.22616,
2026_07_06_21_44_53.708,3.866,34.1,0,0.762,0,0,0,0, ,0,0,0,0,0, ,991.4,-5.6,18.4,2.2,0.4,-1.9,25,976.444,16.5997,29.2095,-1.62033,-7.47971,2.91379,
2026_07_06_21_44_53.728,3.866,34.2,0,0.761,0,0,0,0, ,0,0,0,0,0, ,992.3,-4.1,22.4,0.9,-4.2,-1.3,25,977.383,15.2926,28.6726,-1.42714,-7.13969,2.63873,
2026_07_06_21_44_53.748,3.866,34.2,0,0.762,0,0,0,0, ,0,0,0,0,0, ,992.1,-3.4,22.3,-0.9,-8.3,-0.8,25,978.286,14.1322,28.2873,-1.34017,-7.08548,2.41395,
2026_07_06_21_44_53.768,3.866,34.1,0,0.762,0,0,0,0, ,0,0,0,0,0, ,991.4,-6.3,-16.6,-2.6,-9.5,0,25,979.107,12.9755,26.7373,-1.36515,-7.19605,2.24247,
2026_07_06_21_44_53.794,3.866,34.1,0,0.763,0,0,0,0, ,0,0,0,0,0, ,991.9,-9,-19.1,-2.7,-7,0.1,25,979.871,11.7186,24.0202,-1.44344,-7.26027,2.10887,
2026_07_06_21_44_53.808,3.866,34.2,0,0.763,0,0,0,0, ,0,0,0,0,0, ,991.3,-9.6,-24.6,-2.2,-5.7,-0.1,25,980.586,10.4378,21.225,-1.50478,-7.2048,1.98036,
2026_07_06_21_44_53.827,3.866,34.1,0,0.763,0,0,0,0, ,0,0,0,0,0, ,990.3,-10.3,-7.9,-1,-5.7,-0.3,25,981.208,9.19539,18.9414,-1.51058,-7.11311,1.84749,
2026_07_06_21_44_53.847,3.866,34.2,0,0.764,0,0,0,0, ,0,0,0,0,0, ,993,-11.5,-19.7,-0.8,-5.6,-0.5,25,981.844,7.97083,16.9462,-1.47337,-7.02395,1.71054,
2026_07_06_21_44_53.866,3.866,34.1,0,0.764,0,0,0,0, ,0,0,0,0,0, ,991.3,-11.5,-25.2,-1.6,-3.8,-0.7,25,982.472,6.78432,14.5455,-1.45672,-6.88233,1.56974,
2026_07_06_21_44_53.886,3.866,34.2,0,0.763,0,0,0,0, ,0,0,0,0,0, ,990.7,-12.9,-28.8,-1.5,-2.3,-0.9,25,982.992,5.62747,12.0138,-1.4624,-6.6488,1.42533,
2026_07_06_21_44_53.906,3.866,34.2,0,0.761,0,0,0,0, ,0,0,0,0,0, ,989.9,-10.8,-12.9,-0.4,-1.4,-1,25,983.437,4.56243,10.0112,-1.43118,-6.35637,1.28059,
2026_07_06_21_44_53.926,3.866,34.1,0,0.763,0,0,0,0, ,0,0,0,0,0, ,992.1,-12.6,-20.8,-0.7,-1.5,-1.3,25,983.898,3.57144,8.37432,-1.37748,-6.05739,1.13247,
2026_07_06_21_44_53.946,3.866,34.1,0,0.761,0,0,0,0, ,0,0,0,0,0, ,990.9,-13.3,-18.1,0.3,-1.4,-1.3,25,984.361,2.56467,6.67878,-1.30573,-5.77663,0.984243,
2026_07_06_21_44_53.966,3.866,34.1,0,0.763,0,0,0,0, ,0,0,0,0,0, ,992.3,-11.9,-15.7,0.2,-1.9,-1.4,25,984.803,1.64057,5.24195,-1.21092,-5.52516,0.842,
2026_07_06_21_44_53.986,3.866,34,0,0.764,0,0,0,0, ,0,0,0,0,0, ,991.2,-9.8,-14.6,0,-2,-1.4,25,985.226,0.879425,3.99931,-1.13104,-5.3073,0.705378,
2026_07_06_21_44_54.005,3.866,34.1,0,0.762,0,0,0,0, ,0,0,0,0,0, ,990.3,-9.5,-12.2,-0.1,-3,-1.2,25,985.563,0.237788,2.93904,-1.06516,-5.13623,0.583175,
2026_07_06_21_44_54.025,3.866,34.1,0,0.762,0,0,0,0, ,0,0,0,0,0, ,991.8,-8.6,-16.1,-0.4,-4.3,-0.8,25,985.897,-0.328187,1.89768,-1.01549,-5.04566,0.486701,
2026_07_06_21_44_54.044,3.866,34.1,0,0.763,0,0,0,0, ,0,0,0,0,0, ,991.2,-10.9,-17.2,-0.2,-4.4,-0.5,25,986.238,-0.902328,0.767429,-0.97189,-5.00327,0.417433,
2026_07_06_21_44_54.064,3.866,34.1,0,0.764,0,0,0,0, ,0,0,0,0,0, ,989.5,-12.6,-20,-0.4,-5,-0.6,25,986.489,-1.56336,-0.412773,-0.930947,-4.98479,0.35848,
2026_07_06_21_44_54.084,3.866,34.1,0,0.762,0,0,0,0, ,0,0,0,0,0, ,991.2,-14.7,-34.1,-1.4,-4.5,-0.6,25,986.724,-2.29989,-2.03598,-0.929061,-4.97048,0.300073,
2026_07_06_21_44_54.104,3.866,34.1,0,0.761,0,0,0,0, ,0,0,0,0,0, ,989.7,-13.9,-25.1,-1.2,-3.7,-0.8,25,986.951,-3.03114,-3.71566,-0.951665,-4.91744,0.239131,
2026_07_06_21_44_54.124,3.866,34.1,0,0.762,0,0,0,0, ,0,0,0,0,0, ,990.2,-13.9,-36.1,-1.1,-2.9,-1,25,987.134,-3.69347,-5.35393,-0.963751,-4.81888,0.169715,
2026_07_06_21_44_54.144,3.866,34.2,0,0.762,0,0,0,0, ,0,0,0,0,0, ,990.2,-15.7,-34.3,-0.6,-1.2,-1.4,25,987.321,-4.37027,-7.17267,-0.956819,-4.65015,0.0862479,
2026_07_06_21_44_54.164,3.866,34.2,0,0.763,0,0,0,0, ,0,0,0,0,0, ,991.5,-14.4,-27.7,-0.3,-1.3,-1.4,25,987.536,-5.02107,-8.62465,-0.925935,-4.44295,-0.0043203,
2026_07_06_21_44_54.183,3.866,34.2,0,0.764,0,0,0,0, ,0,0,0,0,0, ,990.4,-15,-34.4,-0.1,-0.6,-1.6,25,987.744,-5.61088,-9.99119,-0.881698,-4.2301,-0.0954633,
2026_07_06_21_44_54.203,3.866,34,0,0.762,0,0,0,0, ,0,0,0,0,0, ,992,-12.4,-21.9,0,-1.5,-1.5,25,987.955,-6.10381,-11.0977,-0.831017,-4.03631,-0.184099,
2026_07_06_21_44_54.223,3.866,34.1,0,0.762,0,0,0,0, ,0,0,0,0,0, ,991,-14.4,-32.9,0.3,-1.5,-1.5,25,988.171,-6.54842,-12.0912,-0.771236,-3.88176,-0.264287,
2026_07_06_21_44_54.242,3.866,34.1,0,0.763,0,0,0,0, ,0,0,0,0,0, ,991.5,-12.8,-28.8,0.8,-1.2,-1.6,25,988.358,-6.97812,-13.2343,-0.690723,-3.72748,-0.342635,
2026_07_06_21_44_54.262,3.866,34.1,0,0.762,0,0,0,0, ,0,0,0,0,0, ,990.9,-14.2,-27,0.5,-1.3,-1.6,25,988.531,-7.37555,-14.128,-0.609023,-3.57651,-0.419256,
2026_07_06_21_44_54.282,3.866,34.1,0,0.763,0,0,0,0, ,0,0,0,0,0, ,990.9,-12.9,-32.3,-0.6,-1.1,-1.6,25,988.676,-7.75181,-15.0738,-0.574957,-3.43169,-0.491207,
2026_07_06_21_44_54.302,3.866,34.2,0,0.764,0,0,0,0, ,0,0,0,0,0, ,992.3,-14.1,-31,-0.6,-0.9,-1.6,25,988.854,-8.10209,-16.084,-0.576483,-3.28351,-0.558774,
2026_07_06_21_44_54.322,3.866,34.1,0,0.762,0,0,0,0, ,0,0,0,0,0, ,992.7,-13.1,-24.7,-0.5,-1.2,-1.4,25,989.076,-8.43712,-16.8009,-0.57487,-3.1474,-0.61613,
2026_07_06_21_44_54.342,3.866,34.1,0,0.762,0,0,0,0, ,0,0,0,0,0, ,991,-13.6,-28.9,-0.5,-2.2,-1.4,25,989.245,-8.73649,-17.4103,-0.570307,-3.0592,-0.663897,
2026_07_06_21_44_54.363,3.866,34.1,0,0.763,0,0,0,0, ,0,0,0,0,0, ,990.9,-14,-30.1,-0.2,-2.1,-1.3,25,989.349,-9.04505,-18.147,-0.556882,-3.0038,-0.705707,
2026_07_06_21_44_54.381,3.866,34.1,0,0.764,0,0,0,0, ,0,0,0,0,0, ,990.7,-15,-32.9,-0.5,-2,-1.3,25,989.437,-9.37746,-18.9607,-0.544275,-2.94567,-0.741921,
2026_07_06_21_44_54.401,3.866,34.1,0,0.763,0,0,0,0, ,0,0,0,0,0, ,990.7,-15.9,-35.6,-0.1,-1.6,-1.6,25,989.514,-9.74751,-19.8924,-0.52939,-2.87586,-0.78507,
2026_07_06_21_44_54.420,3.866,34.1,0,0.763,0,0,0,0, ,0,0,0,0,0, ,989.8,-14.2,-29,0,-1.4,-1.7,25,989.559,-10.0706,-20.6485,-0.500177,-2.79202,-0.837777,
2026_07_06_21_44_54.440,3.866,34.2,0,0.763,0,0,0,0, ,0,0,0,0,0, ,990.4,-13.3,-32.1,-0.4,-1.9,-1.5,25,989.592,-10.2948,-21.2518,-0.481885,-2.72243,-0.884225,
2026_07_06_21_44_54.460,3.866,34.1,0,0.763,0,0,0,0, ,0,0,0,0,0, ,990.8,-15.7,-33.4,-0.9,-1.4,-1.5,25,989.654,-10.5511,-21.9525,-0.49213,-2.65708,-0.921748,
2026_07_06_21_44_54.480,3.866,34.1,0,0.761,0,0,0,0, ,0,0,0,0,0, ,991,-12.6,-33.3,-0.5,-1.4,-1.4,25,989.73,-10.7704,-22.647,-0.504797,-2.58047,-0.953939,
2026_07_06_21_44_54.500,3.866,34.1,0,0.761,0,0,0,0, ,0,0,0,0,0, ,990.7,-14.1,-35.5,-0.6,-1.6,-1.5,25,989.798,-10.9276,-23.3632,-0.507551,-2.51463,-0.984167,
2026_07_06_21_44_54.520,3.866,34,0,0.762,0,0,0,0, ,0,0,0,0,0, ,990.4,-15.3,-33.2,-0.9,-1.2,-1.6,25,989.844,-11.1575,-24.0327,-0.522325,-2.44671,-1.01865,
2026_07_06_21_44_54.541,3.866,34,0,0.763,0,0,0,0, ,0,0,0,0,0, ,991.4,-14.5,-32.3,-0.5,-1.2,-1.6,25,989.908,-11.3855,-24.564,-0.533152,-2.37074,-1.05407,
2026_07_06_21_44_54.560,3.866,34.1,0,0.764,0,0,0,0, ,0,0,0,0,0, ,991.3,-14.1,-36,-0.3,-1.6,-1.4,25,989.996,-11.5631,-25.1481,-0.525038,-2.31158,-1.08125,
2026_07_06_21_44_54.580,3.866,34.1,0,0.765,0,0,0,0, ,0,0,0,0,0, ,990.8,-14.2,-33.2,-0.1,-2,-1.5,25,990.06,-11.7208,-25.7241,-0.505231,-2.28041,-1.10372,
2026_07_06_21_44_54.604,3.866,34.1,0,0.763,0,0,0,0, ,0,0,0,0,0, ,990.4,-16.3,-38.8,-0.3,-1.7,-1.5,25,990.093,-11.9358,-26.3503,-0.486631,-2.25418,-1.12787,
2026_07_06_21_44_54.622,3.866,34,0,0.761,0,0,0,0, ,0,0,0,0,0, ,992.4,-15.2,-32.5,0,-1.6,-1.7,25,990.173,-12.1683,-26.917,-0.466118,-2.21736,-1.15664,
2026_07_06_21_44_54.639,3.866,34.1,0,0.763,0,0,0,0, ,0,0,0,0,0, ,991.5,-14.2,-34.9,-0.7,-2.4,-1.5,25,990.281,-12.3225,-27.3303,-0.459042,-2.20412,-1.18365,
2026_07_06_21_44_54.658,3.866,34,0,0.763,0,0,0,0, ,0,0,0,0,0, ,991.3,-14.1,-42.4,-0.7,-2,-1.3,25,990.349,-12.4339,-28.0201,-0.473725,-2.20387,-1.19684,
2026_07_06_21_44_54.678,3.866,34.1,0,0.762,0,0,0,0, ,0,0,0,0,0, ,989.6,-14.6,-43.3,-0.5,-1.7,-1.3,25,990.355,-12.5507,-28.9238,-0.48142,-2.1823,-1.20312,
2026_07_06_21_44_54.698,3.866,34.2,0,0.763,0,0,0,0, ,0,0,0,0,0, ,991.2,-16.1,-39.3,0.5,-0.6,-1.6,25,990.358,-12.7212,-29.678,-0.452084,-2.1194,-1.21817,
2026_07_06_21_44_54.718,3.866,34.2,0,0.763,0,0,0,0, ,0,0,0,0,0, ,992,-13.9,-30.8,-0.2,-1.4,-1.6,25,990.434,-12.8601,-30.0053,-0.415394,-2.05118,-1.24144,
2026_07_06_21_44_54.738,3.866,34.1,0,0.763,0,0,0,0, ,0,0,0,0,0, ,990.9,-15.1,-36.3,-0.8,-1.5,-1.5,25,990.496,-12.96,-30.2213,-0.42055,-2.01455,-1.26024,
2026_07_06_21_44_54.758,3.866,34.1,0,0.763,0,0,0,0, ,0,0,0,0,0, ,991.5,-15,-38.8,-1.1,-2,-1.5,25,990.539,-13.0874,-30.6679,-0.452813,-1.99843,-1.27485,
2026_07_06_21_44_54.777,3.866,34.1,0,0.763,0,0,0,0, ,0,0,0,0,0, ,991.5,-16.3,-49.6,-0.3,-0.9,-1.6,25,990.597,-13.2436,-31.4925,-0.467876,-1.96501,-1.29162,
2026_07_06_21_44_54.797,3.866,34.1,0,0.762,0,0,0,0, ,0,0,0,0,0, ,990.6,-16.3,-37.5,0.1,-0.3,-1.7,25,990.625,-13.4298,-32.2273,-0.445459,-1.88183,-1.31346,
2026_07_06_21_44_54.817,3.866,34.1,0,0.763,0,0,0,0, ,0,0,0,0,0, ,990.7,-14,-31.9,-0.3,-1.1,-1.8,25,990.626,-13.5346,-32.378,-0.424407,-1.80981,-1.34006,
2026_07_06_21_44_54.836,3.866,34.1,0,0.762,0,0,0,0, ,0,0,0,0,0, ,991.3,-14.4,-38.5,-1,-2.2,-1.5,25,990.649,-13.5752,-32.5499,-0.438154,-1.80007,-1.35894,
2026_07_06_21_44_54.856,3.866,34,0,0.763,0,0,0,0, ,0,0,0,0,0, ,990.8,-15.8,-42.8,-0.4,-1.8,-1.5,25,990.673,-13.6681,-33.0435,-0.454111,-1.81226,-1.36754,
2026_07_06_21_44_54.876,3.866,34.1,0,0.763,0,0,0,0, ,0,0,0,0,0, ,991.6,-16.1,-45.7,-0.3,-1,-1.5,25,990.706,-13.8071,-33.7264,-0.447766,-1.78713,-1.37561,
2026_07_06_21_44_54.896,3.866,34.1,0,0.762,0,0,0,0, ,0,0,0,0,0, ,990.9,-14.2,-35.1,0.1,-0.7,-1.7,25,990.739,-13.889,-34.1331,-0.426574,-1.73003,-1.38929,
2026_07_06_21_44_54.916,3.866,34.2,0,0.763,0,0,0,0, ,0,0,0,0,0, ,990.9,-12.4,-36.6,1,-1.8,-1.8,25,990.749,-13.8531,-34.2377,-0.367064,-1.70078,-1.41127,
2026_07_06_21_44_54.936,3.866,34.1,0,0.763,0,0,0,0, ,0,0,0,0,0, ,990.2,-15.1,-43.2,0.4,-1.7,-1.6,25,990.736,-13.8468,-34.5828,-0.30204,-1.70377,-1.42886,
2026_07_06_21_44_54.955,3.866,34.2,0,0.763,0,0,0,0, ,0,0,0,0,0, ,990.2,-16.8,-45.7,0.3,-0.4,-1.8,25,990.704,-13.975,-35.1841,-0.262306,-1.66394,-1.44538,
2026_07_06_21_44_54.975,3.866,34.1,0,0.763,0,0,0,0, ,0,0,0,0,0, ,990.7,-14.5,-38.5,-0.2,0.2,-1.7,25,990.688,-14.077,-35.6055,-0.243275,-1.56863,-1.46395,
2026_07_06_21_44_54.995,3.866,34.2,0,0.762,0,0,0,0, ,0,0,0,0,0, ,991.6,-16.2,-35.8,-0.4,0,-1.7,25,990.716,-14.1546,-35.6996,-0.246732,-1.46695,-1.47833,
2026_07_06_21_44_55.015,3.866,34.2,0,0.763,0,0,0,0, ,0,0,0,0,0, ,990.4,-15.6,-29.4,-0.7,-0.9,-1.8,25,990.734,-14.261,-35.5107,-0.265212,-1.40498,-1.49489,
2026_07_06_21_44_55.035,3.866,34.1,0,0.763,0,0,0,0, ,0,0,0,0,0, ,991.5,-12.4,-38.2,-0.7,-2.3,-1.5,25,990.747,-14.2451,-35.4065,-0.291707,-1.41686,-1.50434,
2026_07_06_21_44_55.055,3.866,34.2,0,0.763,0,0,0,0, ,0,0,0,0,0, ,990.1,-15.2,-42.6,-0.9,-2.3,-1.3,25,990.75,-14.2179,-35.7108,-0.322681,-1.47068,-1.49798,
2026_07_06_21_44_55.075,3.866,34.1,0,0.763,0,0,0,0, ,0,0,0,0,0, ,991.2,-17,-47.7,-1.3,-1.5,-1.3,25,990.744,-14.3326,-36.286,-0.370049,-1.49684,-1.48592,
2026_07_06_21_44_55.095,3.866,34.1,0,0.764,0,0,0,0, ,0,0,0,0,0, ,990.3,-16.8,-43.7,-0.3,-0.4,-1.5,25,990.744,-14.4891,-36.8596,-0.396249,-1.46352,-1.48068,
2026_07_06_21_44_55.114,3.866,34.1,0,0.764,0,0,0,0, ,0,0,0,0,0, ,989.6,-15.9,-36.4,-0.8,-0.6,-1.7,25,990.696,-14.6025,-37.0541,-0.405618,-1.4048,-1.48795,
2026_07_06_21_44_55.133,3.866,34.1,0,0.762,0,0,0,0, ,0,0,0,0,0, ,990.4,-14.8,-41.5,-1.2,-1.2,-1.7,25,990.654,-14.648,-37.1696,-0.441839,-1.37404,-1.50087,
2026_07_06_21_44_55.153,3.866,34.1,0,0.763,0,0,0,0, ,0,0,0,0,0, ,990.8,-14.8,-41,0.1,-1.6,-1.3,25,990.65,-14.6573,-37.4182,-0.44843,-1.37562,-1.50082,
2026_07_06_21_44_55.173,3.866,34.1,0,0.762,0,0,0,0, ,0,0,0,0,0, ,990.3,-16.8,-42.2,1,-1.5,-1.4,25,990.644,-14.7269,-37.6731,-0.387588,-1.38625,-1.49163,
2026_07_06_21_44_55.193,3.866,34.2,0,0.763,0,0,0,0, ,0,0,0,0,0, ,990.4,-15.8,-40.5,0.6,-1.7,-1.8,25,990.626,-14.8228,-37.8971,-0.315219,-1.39928,-1.49823,
2026_07_06_21_44_55.213,3.866,34.1,0,0.762,0,0,0,0, ,0,0,0,0,0, ,990.8,-17,-44.5,0.2,-1.4,-1.8,25,990.625,-14.9189,-38.1776,-0.271636,-1.40846,-1.51662,
2026_07_06_21_44_55.233,3.866,34.1,0,0.763,0,0,0,0, ,0,0,0,0,0, ,989.8,-14.5,-44.5,-0.2,-1.1,-1.7,25,990.605,-14.9695,-38.5629,-0.255083,-1.3988,-1.53084,
2026_07_06_21_44_55.260,3.866,34.1,0,0.763,0,0,0,0, ,0,0,0,0,0, ,989.6,-14.5,-36.6,-0.5,-1.2,-1.6,25,990.55,-14.9409,-38.684,-0.260867,-1.38364,-1.5381,
2026_07_06_21_44_55.273,3.866,34.2,0,0.762,0,0,0,0, ,0,0,0,0,0, ,990.3,-15.5,-45.1,-0.8,-1.9,-1.3,25,990.513,-14.9445,-38.816,-0.28458,-1.39378,-1.53274,
2026_07_06_21_44_55.292,3.866,34.2,0,0.76,0,0,0,0, ,0,0,0,0,0, ,990.4,-17.2,-54.1,0.1,-0.4,-1.5,25,990.503,-15.0302,-39.4731,-0.288566,-1.37893,-1.52465,
2026_07_06_21_44_55.312,3.866,34.1,0,0.763,0,0,0,0, ,0,0,0,0,0, ,991,-16.7,-38.5,1,0.3,-1.6,25,990.515,-15.1472,-39.8891,-0.237466,-1.29794,-1.52619,
2026_07_06_21_44_55.332,3.866,34.1,0,0.763,0,0,0,0, ,0,0,0,0,0, ,990.9,-18.5,-42.9,0,-0.4,-1.8,25,990.542,-15.2966,-39.9385,-0.192527,-1.2219,-1.53678,
2026_07_06_21_44_55.351,3.866,34.1,0,0.763,0,0,0,0, ,0,0,0,0,0, ,990.2,-16.6,-44.1,-0.2,-0.3,-1.8,25,990.542,-15.434,-40.1556,-0.186888,-1.16877,-1.55282,
2026_07_06_21_44_55.371,3.866,34.1,0,0.763,0,0,0,0, ,0,0,0,0,0, ,991,-17.3,-56.1,0,1.4,-2.1,25,990.546,-15.5263,-40.7616,-0.181594,-1.06403,-1.57703,
2026_07_06_21_44_55.391,3.866,34.1,0,0.763,0,0,0,0, ,0,0,0,0,0, ,989,-17.2,-49.9,0.6,3,-2.1,25,990.513,-15.6314,-41.5073,-0.152246,-0.865127,-1.60889,
2026_07_06_21_44_55.411,3.866,34,0,0.763,0,0,0,0, ,0,0,0,0,0, ,990.4,-17.3,-43.2,0.4,3.9,-2.5,25,990.463,-15.73,-41.8146,-0.1125,-0.602174,-1.65101,
2026_07_06_21_44_55.431,3.866,34.1,0,0.764,0,0,0,0, ,0,0,0,0,0, ,991.5,-12.3,-20.7,2.1,2.5,-2.5,25,990.493,-15.6733,-41.2135,-0.0294729,-0.370479,-1.70274,
2026_07_06_21_44_55.451,3.866,34.2,0,0.763,0,0,0,0, ,0,0,0,0,0, ,989.6,-12.5,-37.7,-0.1,-0.4,-2.1,25,990.496,-15.4739,-40.4814,0.0332606,-0.283918,-1.73914,
2026_07_06_21_44_55.476,3.866,34.2,0,0.763,0,0,0,0, ,0,0,0,0,0, ,990.7,-14.1,-29,1.7,-1.6,-1.9,25,990.475,-15.3414,-40.0469,0.0799838,-0.327555,-1.75504,
2026_07_06_21_44_55.495,3.866,34.1,0,0.762,0,0,0,0, ,0,0,0,0,0, ,989.7,-14.1,-40.1,-0.1,-2.7,-1.4,25,990.458,-15.2657,-39.7119,0.12386,-0.43861,-1.74864,
2026_07_06_21_44_55.510,3.866,34.1,0,0.763,0,0,0,0, ,0,0,0,0,0, ,991.2,-15,-39.9,-0.6,-2.4,-1.4,25,990.458,-15.2221,-39.7294,0.094984,-0.567273,-1.72739,
2026_07_06_21_44_55.530,3.866,34.2,0,0.763,0,0,0,0, ,0,0,0,0,0, ,990.3,-16.9,-45,-0.9,-1.9,-1.4,25,990.476,-15.2665,-39.8952,0.0434927,-0.66372,-1.70744,
2026_07_06_21_44_55.549,3.866,34.1,0,0.762,0,0,0,0, ,0,0,0,0,0, ,990.3,-15.9,-46.5,-1.7,-0.7,-1.6,25,990.465,-15.3356,-40.252,-0.0383763,-0.702494,-1.6948,
2026_07_06_21_44_55.569,3.866,34.1,0,0.763,0,0,0,0, ,0,0,0,0,0, ,991.2,-16.7,-35.2,-1.3,0,-1.8,25,990.482,-15.3943,-40.2884,-0.127444,-0.681013,-1.69512,
2026_07_06_21_44_55.589,3.866,34.2,0,0.762,0,0,0,0, ,0,0,0,0,0, ,991.2,-15.8,-40.6,-2.8,-0.5,-1.8,25,990.526,-15.4465,-40.1429,-0.2446,-0.654749,-1.70151,
2026_07_06_21_44_55.608,3.866,34.1,0,0.762,0,0,0,0, ,0,0,0,0,0, ,991.2,-17.5,-44.7,-1.9,0,-1.7,25,990.567,-15.5198,-40.2957,-0.372898,-0.630084,-1.70446,
2026_07_06_21_44_55.629,3.866,34.1,0,0.763,0,0,0,0, ,0,0,0,0,0, ,989.6,-18.4,-54.6,-2.9,1.3,-1.8,25,990.557,-15.6679,-40.8657,-0.496424,-0.552079,-1.70724,
2026_07_06_21_44_55.649,3.866,34.1,0,0.764,0,0,0,0, ,0,0,0,0,0, ,989.8,-18.5,-59,-4.7,4.5,-2.3,25,990.505,-15.8374,-41.8367,-0.697736,-0.341718,-1.72812,
2026_07_06_21_44_55.668,3.866,34.1,0,0.764,0,0,0,0, ,0,0,0,0,0, ,991.3,-18.9,-44.4,-4,5.7,-2.6,25,990.507,-16.0119,-42.4377,-0.920296,-0.0101134,-1.77211,
2026_07_06_21_44_55.690,3.866,34,0,0.762,0,0,0,0, ,0,0,0,0,0, ,989.7,-15.9,-20.8,-4.2,4.7,-3,25,990.507,-16.0965,-41.8383,-1.11406,0.307378,-1.83475,
2026_07_06_21_44_55.710,3.866,34,0,0.762,0,0,0,0, ,0,0,0,0,0, ,990.9,-15.6,-26,-6.6,1.3,-3,25,990.494,-16.0753,-40.7147,-1.37523,0.47146,-1.90576,
2026_07_06_21_44_55.730,3.866,34.1,0,0.764,0,0,0,0, ,0,0,0,0,0, ,990.9,-11.9,-36.3,-0.1,1.8,-2.6,25,990.519,-15.9336,-40.1318,-1.49557,0.537183,-1.96025,
2026_07_06_21_44_55.747,3.866,34.1,0,0.762,0,0,0,0, ,0,0,0,0,0, ,991.5,-11.2,-29.7,-0.2,0.9,-2.1,25,990.561,-15.6665,-39.6972,-1.41357,0.586714,-1.984,
2026_07_06_21_44_55.767,3.866,34.1,0,0.763,0,0,0,0, ,0,0,0,0,0, ,991.5,-10.7,-29.7,-1.3,0.8,-1.9,25,990.618,-15.3791,-39.088,-1.37314,0.602758,-1.98498,
2026_07_06_21_44_55.787,3.866,34.1,0,0.761,0,0,0,0, ,0,0,0,0,0, ,992.4,-13.9,-25.6,-1.5,0.3,-1.7,25,990.699,-15.1915,-38.391,-1.37478,0.599543,-1.9737,
2026_07_06_21_44_55.807,3.866,34,0,0.762,0,0,0,0, ,0,0,0,0,0, ,990.2,-13.7,-23,-1.9,-1.3,-1.5,25,990.736,-15.1067,-37.5324,-1.39459,0.53254,-1.95093,
2026_07_06_21_44_55.827,3.866,34,0,0.763,0,0,0,0, ,0,0,0,0,0, ,990.6,-15.1,-26,-1,-1.9,-1.5,25,990.715,-15.0636,-36.7382,-1.39797,0.402588,-1.92345,
2026_07_06_21_44_55.846,3.866,34,0,0.762,0,0,0,0, ,0,0,0,0,0, ,991.9,-13.7,-31.3,-0.8,-2.9,-1.5,25,990.748,-15.0232,-36.2453,-1.36762,0.231805,-1.89765,
2026_07_06_21_44_55.866,3.866,34.1,0,0.764,0,0,0,0, ,0,0,0,0,0, ,990.4,-13.7,-29.2,-1.3,-3.4,-1.1,25,990.772,-14.9425,-35.88,-1.34827,0.0257266,-1.86123,
2026_07_06_21_44_55.886,3.866,34.1,0,0.762,0,0,0,0, ,0,0,0,0,0, ,990.3,-15.1,-40.4,-2.9,-3,-0.9,25,990.747,-14.9095,-35.8142,-1.39408,-0.170841,-1.80875,
2026_07_06_21_44_55.905,3.866,34.1,0,0.764,0,0,0,0, ,0,0,0,0,0, ,990.4,-14.5,-43.7,-2.2,-1.8,-0.9,25,990.722,-14.9028,-36.1942,-1.46452,-0.30668,-1.75337,
2026_07_06_21_44_55.927,3.866,34.1,0,0.762,0,0,0,0, ,0,0,0,0,0, ,991.6,-17.4,-43,-1.2,-0.4,-1.1,25,990.739,-14.9666,-36.6302,-1.47887,-0.355023,-1.70746,
2026_07_06_21_44_55.946,3.866,34.1,0,0.762,0,0,0,0, ,0,0,0,0,0, ,990.9,-16.2,-35.4,-0.1,0,-1.6,25,990.77,-15.0783,-36.7868,-1.42836,-0.345577,-1.68568,
2026_07_06_21_44_55.965,3.866,34.1,0,0.763,0,0,0,0, ,0,0,0,0,0, ,991.4,-15.6,-29.2,-0.8,-0.4,-1.7,25,990.794,-15.1284,-36.5134,-1.36874,-0.336706,-1.68351,
2026_07_06_21_44_55.984,3.866,34.1,0,0.762,0,0,0,0, ,0,0,0,0,0, ,990.6,-14.1,-33.6,-2.2,-0.9,-1.9,25,990.806,-15.1115,-36.2018,-1.37674,-0.355797,-1.6906,
2026_07_06_21_44_56.005,3.866,34.1,0,0.763,0,0,0,0, ,0,0,0,0,0, ,991,-14,-33.5,-4.2,-1.1,-1.8,25,990.806,-15.0468,-36.0402,-1.48784,-0.395053,-1.70032,
2026_07_06_21_44_56.025,3.866,34.1,0,0.763,0,0,0,0, ,0,0,0,0,0, ,990.2,-14.5,-30.3,-4,-3.5,-1.1,25,990.793,-14.9982,-35.7879,-1.64702,-0.511136,-1.68506,
2026_07_06_21_44_56.045,3.866,34.1,0,0.763,0,0,0,0, ,0,0,0,0,0, ,991,-13.9,-50.6,-6,-0.4,-1.2,25,990.781,-14.9496,-36.072,-1.85134,-0.598816,-1.65246,
2026_07_06_21_44_56.064,3.866,34,0,0.763,0,0,0,0, ,0,0,0,0,0, ,990.7,-12.2,-37.8,-5.5,1.1,-0.8,25,990.786,-14.8338,-36.5673,-2.08892,-0.540998,-1.6127,
2026_07_06_21_44_56.084,3.866,34.1,0,0.763,0,0,0,0, ,0,0,0,0,0, ,991.3,-16.7,-27.9,-5.7,0.1,-0.7,25,990.799,-14.8104,-36.3408,-2.30287,-0.471468,-1.56013,
2026_07_06_21_44_56.104,3.866,34,0,0.762,0,0,0,0, ,0,0,0,0,0, ,992.7,-16.7,-36.7,-8.5,-0.9,-0.8,25,990.872,-14.9256,-36.0946,-2.5952,-0.467113,-1.51076,
2026_07_06_21_44_56.124,3.866,34.1,0,0.762,0,0,0,0, ,0,0,0,0,0, ,989.9,-20.5,-64.5,-11.4,1.1,-0.9,25,990.898,-15.1495,-36.9785,-3.04338,-0.432555,-1.4705,
2026_07_06_21_44_56.143,3.866,34.1,0,0.762,0,0,0,0, ,0,0,0,0,0, ,991.9,-26,7.4,-1.4,0.2,-2.2,25,990.898,-15.6431,-36.4649,-3.24793,-0.366587,-1.47534,
2026_07_06_21_44_56.163,3.866,34.1,0,0.764,0,0,0,0, ,0,0,0,0,0, ,982.5,-186,-68.8,-3.4,6.6,-12.5,25,990.673,-21.1492,-36.1136,-3.19626,-0.13706,-1.83333,
2026_07_06_21_44_56.183,3.866,34.1,0,0.761,0,0,0,0, ,0,0,0,0,0, ,998.1,99.3,26,5.4,-0.5,-30.3,25,990.65,-22.5021,-35.217,-2.94055,0.0571511,-3.02567,
2026_07_06_21_44_56.203,3.866,34.1,0,0.762,0,0,0,0, ,0,0,0,0,0, ,991.9,78,-29.5,-0.7,-4.7,-14.1,25,990.915,-15.7288,-33.1776,-2.61815,-0.104769,-4.19411,
2026_07_06_21_44_56.223,3.866,34.2,0,0.762,0,0,0,0, ,0,0,0,0,0, ,989.7,27.3,-92.4,-2.6,-0.1,-5.2,25,990.908,-11.5619,-34.87,-2.55916,-0.244635,-4.52658,
2026_07_06_21_44_56.244,3.866,34.1,0,0.763,0,0,0,0, ,0,0,0,0,0, ,987.1,-28.8,-162.5,2.5,18,-7.7,25,990.755,-10.9031,-40.5115,-2.40626,0.315663,-4.64378,
2026_07_06_21_44_56.262,3.866,34.1,0,0.762,0,0,0,0, ,0,0,0,0,0, ,988,48.2,-55.4,8.2,33.6,-11,25,990.56,-9.64758,-44.682,-1.93361,1.86861,-4.93057,
2026_07_06_21_44_56.282,3.866,34.1,0,0.763,0,0,0,0, ,0,0,0,0,0, ,991.6,30.1,67.5,3.5,31.4,-7,25,990.514,-6.67398,-41.5905,-1.45929,3.73521,-5.17855,
2026_07_06_21_44_56.301,3.866,34.2,0,0.763,0,0,0,0, ,0,0,0,0,0, ,988.2,170.1,91.5,0,-30.3,-29.2,25,990.476,-0.167439,-34.2116,-1.26373,3.54112,-5.96595,
2026_07_06_21_44_56.324,3.866,34.1,0,0.762,0,0,0,0, ,0,0,0,0,0, ,981.3,-2,88.5,-8.3,-114.3,-4.4,25,990.127,4.96456,-26.6424,-1.43961,-1.08045,-6.62615,
2026_07_06_21_44_56.342,3.866,34.1,0,0.762,0,0,0,0, ,0,0,0,0,0, ,1144.7,-74.9,-80.2,6.4,-113.6,16.3,25,994.568,2.31899,-24.766,-1.40977,-7.95844,-5.85979,
2026_07_06_21_44_56.361,3.866,34.1,0,0.762,0,0,0,0, ,0,0,0,0,0, ,1220.5,-88.7,-60.5,16.8,-91.5,34.2,25,1006.03,-2.80701,-27.5438,-0.616992,-13.7226,-3.96404,
2026_07_06_21_44_56.381,3.866,34.1,0,0.763,0,0,0,0, ,0,0,0,0,0, ,1307.6,68.9,-96.5,20.2,-85.2,10.4,25,1021.75,-3.23924,-30.6489,0.54795,-18.2702,-2.36357,
2026_07_06_21_44_56.402,3.866,34.2,0,0.765,0,0,0,0, ,0,0,0,0,0, ,984.1,-0.6,-122.8,26.1,-126.2,14.1,25,1029.31,-0.960836,-35.4631,1.92526,-23.598,-1.47306,
2026_07_06_21_44_56.420,3.866,34.1,0,0.761,0,0,0,0, ,0,0,0,0,0, ,801.1,55.9,-271.6,29.5,-147.7,11.3,25,1020.98,0.782637,-45.3189,3.502,-30.5054,-0.609389,
2026_07_06_21_44_56.440,3.866,34.2,0,0.762,0,0,0,0, ,0,0,0,0,0, ,783.3,-10.2,-216.6,27.3,-160.1,-6.8,25,1007.04,2.12737,-57.4321,5.01923,-38.0247,-0.435145,
2026_07_06_21_44_56.460,3.866,34.1,0,0.763,0,0,0,0, ,0,0,0,0,0, ,855.7,-23.5,-235.3,16.6,-168.7,-18.5,25,995.611,0.970934,-67.7012,6.05094,-45.7257,-1.17949,
2026_07_06_21_44_56.481,3.866,34.2,0,0.763,0,0,0,0, ,0,0,0,0,0, ,832.3,-12.2,-327.2,0.8,-165.1,-17.7,25,986.373,-0.175967,-80.7143,6.21237,-53.1098,-2.21058,
2026_07_06_21_44_56.499,3.866,34,0,0.762,0,0,0,0, ,0,0,0,0,0, ,838.3,-16.2,-390.5,-6.3,-163.8,-17,25,977.167,-1.03056,-97.6632,5.66623,-59.8946,-3.13314,
2026_07_06_21_44_56.520,3.866,34.1,0,0.762,0,0,0,0, ,0,0,0,0,0, ,828.3,19.8,-447.6,-17.5,-191.9,-24.3,25,968.4,-0.858069,-117.248,4.59578,-67.0825,-4.20057,
2026_07_06_21_44_56.540,3.866,34.1,0,0.763,0,0,0,0, ,0,0,0,0,0, ,814.5,5.6,-514.4,-32,-204.7,-34.5,25,959.442,-0.0318746,-139.414,2.80753,-75.0785,-5.73616,
2026_07_06_21_44_56.561,3.866,34.1,0,0.763,0,0,0,0, ,0,0,0,0,0, ,771.1,7.2,-637.2,-33.6,-205.4,-57.7,25,949.287,0.360068,-166.006,0.637693,-82.9987,-8.19583,
2026_07_06_21_44_56.579,3.866,34.1,0,0.763,0,0,0,0, ,0,0,0,0,0, ,685,83.8,-718,40.7,-250.1,-98.4,25,935.806,3.11078,-197.181,0.815162,-91.8195,-12.4526,
2026_07_06_21_44_56.600,3.866,34.1,0,0.764,0,0,0,0, ,0,0,0,0,0, ,880.7,-90.2,-683.1,8.4,-176,-8.4,25,926.485,2.72622,-227.855,2.2615,-99.2069,-14.9478,
2026_07_06_21_44_56.619,3.866,34.1,0,0.762,0,0,0,0, ,0,0,0,0,0, ,632.6,70.4,-745.3,15.6,-144.5,-11,25,916.136,1.95681,-257.492,2.85494,-102.927,-14.628,
2026_07_06_21_44_56.641,3.866,34.1,0,0.763,0,0,0,0, ,0,0,0,0,0, ,614.3,23,-767.2,10.7,-127.6,4,25,898.3,4.68335,-287.885,3.4823,-104.945,-13.9499,
2026_07_06_21_44_56.658,3.866,34.1,0,0.763,0,0,0,0, ,0,0,0,0,0, ,505.1,50.1,-838,18.9,-124.1,-2.9,25,877.667,6.62522,-319.251,4.17197,-106.219,-13.0663,
2026_07_06_21_44_56.678,3.866,34.1,0,0.763,0,0,0,0, ,0,0,0,0,0, ,493.4,32.5,-861.3,27.7,-115.7,-5.6,25,854.607,8.73822,-351.572,5.33758,-107.053,-12.5291,
2026_07_06_21_44_56.698,3.866,34.2,0,0.762,0,0,0,0, ,0,0,0,0,0, ,498.6,38.6,-868,35.3,-103,-8.5,25,832.754,10.3721,-382.837,6.93186,-107.193,-12.1952,
2026_07_06_21_44_56.720,3.866,34.1,0,0.763,0,0,0,0, ,0,0,0,0,0, ,478.7,48.4,-827.5,25.8,-90.6,-5.5,25,811.785,12.3908,-411.168,8.37109,-106.559,-11.8786,
2026_07_06_21_44_56.737,3.866,34.1,0,0.763,0,0,0,0, ,0,0,0,0,0, ,428.7,23.9,-916.1,18.4,-94.1,-6.3,25,789.965,13.8386,-439.238,9.20769,-105.694,-11.5143,
2026_07_06_21_44_56.758,3.866,34.1,0,0.763,0,0,0,0, ,0,0,0,0,0, ,433.7,11.5,-917.3,27,-105.5,-2.4,25,768.102,14.0739,-468.333,10.0299,-105.334,-11.0777,
2026_07_06_21_44_56.776,3.866,34.1,0,0.762,0,0,0,0, ,0,0,0,0,0, ,388.4,13.3,-953.8,29.9,-101.3,0.2,25,746.344,13.9719,-496.804,11.1524,-105.217,-10.4697,
2026_07_06_21_44_56.798,3.866,34.1,0,0.763,0,0,0,0, ,0,0,0,0,0, ,334.4,3.1,-949.7,32.1,-91.5,-1.6,25,722.887,13.6202,-524.527,12.3618,-104.679,-9.87436,
2026_07_06_21_44_56.817,3.866,34.2,0,0.763,0,0,0,0, ,0,0,0,0,0, ,308.3,-7.4,-957.2,30.5,-81.1,-7.3,25,698.418,12.6592,-550.665,13.5159,-103.559,-9.54381,
2026_07_06_21_44_56.838,3.866,34,0,0.762,0,0,0,0, ,0,0,0,0,0, ,289,-15.1,-944.9,30,-87.6,-9,25,674.057,11.2022,-575.063,14.5356,-102.389,-9.45887,
2026_07_06_21_44_56.855,3.866,34.1,0,0.763,0,0,0,0, ,0,0,0,0,0, ,260.2,-22,-971.8,26.3,-100.4,-6.4,25,649.715,9.3892,-598.42,15.3652,-101.878,-9.35169,
2026_07_06_21_44_56.877,3.866,34.1,0,0.763,0,0,0,0, ,0,0,0,0,0, ,235.9,-27.7,-968,23.2,-99.5,-5.1,25,625.239,7.30275,-621.057,15.9371,-101.76,-9.13221,
2026_07_06_21_44_56.899,3.866,34.1,0,0.763,0,0,0,0, ,0,0,0,0,0, ,205.5,-44.9,-1002.9,21.4,-82.3,-7.8,25,600.587,4.64571,-643.262,16.3249,-101.098,-8.96877,
2026_07_06_21_44_56.920,3.866,34.1,0,0.763,0,0,0,0, ,0,0,0,0,0, ,156.1,-36.9,-1037.5,20.8,-74.9,-6,25,575.007,1.87027,-666.232,16.6158,-99.7273,-8.8427,
2026_07_06_21_44_56.935,3.866,34.1,0,0.763,0,0,0,0, ,0,0,0,0,0, ,117,-49.6,-1009,23.3,-74.1,-11.2,25,548.288,-0.879249,-687.988,16.947,-98.19,-8.82791,
2026_07_06_21_44_56.956,3.866,34.2,0,0.763,0,0,0,0, ,0,0,0,0,0, ,146.7,-60.9,-960.8,19.8,-70,-12,25,522.911,-4.19247,-706.081,17.2275,-96.5971,-8.99684,
2026_07_06_21_44_56.975,3.866,34.1,0,0.763,0,0,0,0, ,0,0,0,0,0, ,107.1,-67.5,-996.7,15,-66.5,-6.2,25,498.779,-7.84918,-722.696,17.238,-94.8697,-9.00312,
2026_07_06_21_44_56.995,3.866,34.1,0,0.761,0,0,0,0, ,0,0,0,0,0, ,84.5,-73.2,-1003.1,13.7,-57.3,-7,25,474.223,-11.6578,-739.589,17.062,-92.8606,-8.85668,
2026_07_06_21_44_57.015,3.866,34,0,0.763,0,0,0,0, ,0,0,0,0,0, ,92.2,-83.8,-1020,14.5,-47.9,-6.5,25,450.709,-15.731,-756.161,16.8815,-90.4072,-8.72831,
2026_07_06_21_44_57.036,3.866,34.1,0,0.762,0,0,0,0, ,0,0,0,0,0, ,90.6,-84.1,-1007.5,15.5,-42.3,-5.4,25,428.813,-19.8881,-771.858,16.7669,-87.6463,-8.559,
2026_07_06_21_44_57.054,3.866,34.1,0,0.763,0,0,0,0, ,0,0,0,0,0, ,55.7,-86.3,-983.6,13.9,-32.9,-3.7,25,407.14,-23.8681,-785.489,16.6409,-84.5966,-8.3147,
2026_07_06_21_44_57.075,3.866,34.1,0,0.763,0,0,0,0, ,0,0,0,0,0, ,20.6,-86.6,-968.3,9.6,-29.2,-4.9,25,384.655,-27.6816,-797.095,16.3429,-81.3336,-8.07006,
2026_07_06_21_44_57.094,3.866,34.1,0,0.763,0,0,0,0, ,0,0,0,0,0, ,7.4,-95,-1005.2,7.2,-26.1,-8.3,25,362.068,-31.5279,-808.653,15.8588,-78.0623,-7.98048,
2026_07_06_21_44_57.114,3.866,34.1,0,0.762,0,0,0,0, ,0,0,0,0,0, ,28.4,-98.9,-990.8,7.1,-25,-7.5,25,341.095,-35.5146,-820.191,15.3282,-74.8623,-7.97557,
2026_07_06_21_44_57.133,3.866,34,0,0.763,0,0,0,0, ,0,0,0,0,0, ,16.3,-105.2,-987.7,4.3,-21.5,-4.2,25,321.672,-39.5691,-830.493,14.7414,-71.7172,-7.84605,
2026_07_06_21_44_57.155,3.866,34.1,0,0.762,0,0,0,0, ,0,0,0,0,0, ,11.1,-105.3,-990.2,4.9,-17.1,-4.3,25,302.905,-43.5715,-840.149,14.1234,-68.523,-7.62691,
2026_07_06_21_44_57.173,3.866,34,0,0.763,0,0,0,0, ,0,0,0,0,0, ,11.2,-109.6,-998.2,4,-12.8,-1.7,25,285.126,-47.4641,-849.536,13.534,-65.2584,-7.34496,
2026_07_06_21_44_57.195,3.866,34,0,0.762,0,0,0,0, ,0,0,0,0,0, ,0.3,-110.8,-979.4,3.4,-7.2,-0.3,25,268.101,-51.2871,-858.023,12.9347,-61.8911,-6.95831,
2026_07_06_21_44_57.213,3.866,34.1,0,0.762,0,0,0,0, ,0,0,0,0,0, ,-13.7,-114.1,-979,2.9,-8.6,-0.3,25,251.356,-55.0142,-865.407,12.3385,-58.601,-6.55257,
2026_07_06_21_44_57.233,3.866,34.1,0,0.762,0,0,0,0, ,0,0,0,0,0, ,-35.5,-115.6,-979,0.8,-9.3,-1.9,25,234.54,-58.6604,-872.329,11.6993,-55.5754,-6.22031,
2026_07_06_21_44_57.251,3.866,34.1,0,0.762,0,0,0,0, ,0,0,0,0,0, ,-19.5,-116,-974.7,-2.4,-12.2,-2.7,25,218.572,-62.1424,-878.698,10.9376,-52.8439,-5.98141,
2026_07_06_21_44_57.273,3.866,34.1,0,0.763,0,0,0,0, ,0,0,0,0,0, ,-7.8,-116.2,-1006.2,-1.2,-11.7,-1.4,25,204.421,-65.4304,-885.508,10.1614,-50.3519,-5.74184,
2026_07_06_21_44_57.291,3.866,34.1,0,0.762,0,0,0,0, ,0,0,0,0,0, ,-12.9,-116.5,-1015.2,1.4,-8.9,0,25,191.333,-68.5333,-893.137,9.54832,-47.9112,-5.43461,
2026_07_06_21_44_57.313,3.866,34.2,0,0.762,0,0,0,0, ,0,0,0,0,0, ,-22.9,-112,-983.6,1.8,-9.8,0.2,25,178.583,-71.3192,-899.612,9.06397,-45.5614,-5.09734,
2026_07_06_21_44_57.331,3.866,34.1,0,0.763,0,0,0,0, ,0,0,0,0,0, ,-30.1,-116.9,-982.4,0.3,-7,-0.6,25,166.086,-73.9475,-904.694,8.57562,-43.2969,-4.79891,
2026_07_06_21_44_57.353,3.866,34.1,0,0.762,0,0,0,0, ,0,0,0,0,0, ,-37.7,-119,-1005.1,1,-9.3,-1.2,25,153.899,-76.6289,-910.121,8.09265,-41.1551,-4.56132,
2026_07_06_21_44_57.371,3.866,34.1,0,0.762,0,0,0,0, ,0,0,0,0,0, ,-27,-120.6,-998.7,3,-7.1,-0.5,25,142.55,-79.2596,-915.714,7.72138,-39.1469,-4.33516,
2026_07_06_21_44_57.394,3.866,34.1,0,0.763,0,0,0,0, ,0,0,0,0,0, ,-31.2,-120.6,-971.3,2,-3.1,0.8,25,132.09,-81.7788,-919.936,7.4032,-37.0722,-4.06185,
2026_07_06_21_44_57.410,3.866,34.1,0,0.762,0,0,0,0, ,0,0,0,0,0, ,-39.5,-116.5,-978.7,-0.5,-4.8,1.3,25,121.886,-84.0195,-923.291,6.99777,-35.0538,-3.75034,
2026_07_06_21_44_57.433,3.866,34.1,0,0.762,0,0,0,0, ,0,0,0,0,0, ,-41.6,-119.9,-989.9,-0.6,-7.6,0.1,25,111.988,-86.1024,-927.009,6.53783,-33.2955,-3.47915,
2026_07_06_21_44_57.450,3.866,34.1,0,0.761,0,0,0,0, ,0,0,0,0,0, ,-46.8,-120.2,-994.2,0.3,-5.6,-1.5,25,102.47,-88.1711,-930.972,6.13029,-31.6688,-3.3098,
2026_07_06_21_44_57.473,3.866,34.1,0,0.764,0,0,0,0, ,0,0,0,0,0, ,-39.6,-122.5,-994.5,0.9,-3.3,-1.7,25,93.5934,-90.1929,-934.834,5.79329,-30.0101,-3.20561,
2026_07_06_21_44_57.490,3.866,34.1,0,0.762,0,0,0,0, ,0,0,0,0,0, ,-31.1,-123.4,-985.4,0.7,-2.9,0.6,25,85.7359,-92.1891,-938.193,5.48901,-28.3703,-3.04378,
2026_07_06_21_44_57.512,3.866,34,0,0.762,0,0,0,0, ,0,0,0,0,0, ,-58.5,-117.3,-980.8,-0.6,-3.6,0.8,25,77.7813,-93.9051,-940.93,5.15757,-26.8395,-2.81564,
2026_07_06_21_44_57.529,3.866,34,0,0.761,0,0,0,0, ,0,0,0,0,0, ,-49.5,-119.7,-985.4,-1.2,-6.1,-1.4,25,69.7509,-95.4039,-943.499,4.78844,-25.4995,-2.66235,
2026_07_06_21_44_57.551,3.866,34,0,0.763,0,0,0,0, ,0,0,0,0,0, ,-45,-119.7,-978.6,-2,-3.1,-1,25,62.6212,-96.8844,-945.845,4.39914,-24.226,-2.57323,
2026_07_06_21_44_57.568,3.866,34.1,0,0.762,0,0,0,0, ,0,0,0,0,0, ,-45.8,-118.7,-990.1,-2.8,-3.5,-0.1,25,56.0386,-98.2443,-948.192,3.98482,-22.9508,-2.44994,
2026_07_06_21_44_57.590,3.866,34,0,0.763,0,0,0,0, ,0,0,0,0,0, ,-43.8,-119.8,-1004.6,-0.7,-2,-0.9,25,49.8938,-99.5243,-951.187,3.63535,-21.7198,-2.33112,
2026_07_06_21_44_57.608,3.866,34.1,0,0.763,0,0,0,0, ,0,0,0,0,0, ,-53.2,-115.9,-1007.2,1.3,-0.7,-0.2,25,43.8979,-100.641,-954.521,3.43211,-20.4785,-2.22258,
2026_07_06_21_44_57.631,3.866,34.1,0,0.762,0,0,0,0, ,0,0,0,0,0, ,-58.9,-117.5,-985.3,0.9,-4.4,-0.2,25,37.8073,-101.62,-957.064,3.28999,-19.386,-2.09933,
2026_07_06_21_44_57.648,3.866,34,0,0.762,0,0,0,0, ,0,0,0,0,0, ,-55.5,-118.5,-972.2,-0.3,-1.2,-1.2,25,32.0178,-102.618,-958.386,3.10779,-18.3753,-2.01406,
2026_07_06_21_44_57.670,3.866,34,0,0.763,0,0,0,0, ,0,0,0,0,0, ,-57,-116.5,-981.4,-1.7,0.6,-1.8,25,26.639,-103.525,-959.508,2.85747,-17.2738,-1.98273,
2026_07_06_21_44_57.688,3.866,34.1,0,0.763,0,0,0,0, ,0,0,0,0,0, ,-57.3,-120.2,-990.4,-2.3,1.2,-1.8,25,21.5331,-104.428,-961.116,2.56147,-16.1664,-1.9716,
2026_07_06_21_44_57.710,3.866,34.1,0,0.763,0,0,0,0, ,0,0,0,0,0, ,-49,-121.3,-998.5,-1.8,3.6,-2.5,25,16.9821,-105.423,-963.147,2.28046,-15.035,-1.98247,
2026_07_06_21_44_57.727,3.866,34.1,0,0.763,0,0,0,0, ,0,0,0,0,0, ,-32.1,-118,-1007.4,0.1,7.9,-1.9,25,13.4762,-106.29,-965.573,2.0897,-13.7684,-1.99573,
2026_07_06_21_44_57.749,3.866,34.1,0,0.762,0,0,0,0, ,0,0,0,0,0, ,-31.8,-113.2,-989.9,0.9,7.4,-0.1,25,10.7081,-106.857,-967.589,1.99282,-12.4632,-1.93505,
2026_07_06_21_44_57.766,3.866,34.1,0,0.761,0,0,0,0, ,0,0,0,0,0, ,-49.8,-115.4,-971.3,-1.6,5.8,0.3,25,7.56931,-107.311,-968.381,1.85006,-11.3015,-1.81104,
2026_07_06_21_44_57.790,3.866,34.1,0,0.763,0,0,0,0, ,0,0,0,0,0, ,-64.2,-110.8,-996.2,-3.6,2.2,0.2,25,3.63462,-107.663,-969.318,1.57888,-10.3691,-1.68544,
2026_07_06_21_44_57.807,3.866,34,0,0.762,0,0,0,0, ,0,0,0,0,0, ,-44.5,-110.2,-999.2,-2.3,-4.2,-2.1,25,0.101184,-107.836,-971.047,1.3029,-9.79818,-1.64063,
2026_07_06_21_44_57.832,3.866,34.1,0,0.763,0,0,0,0, ,0,0,0,0,0, ,-38,-115.8,-994.1,-1.3,-0.4,-1.2,25,-2.41865,-108.151,-972.608,1.11382,-9.34126,-1.6412,
2026_07_06_21_44_57.846,3.866,34,0,0.763,0,0,0,0, ,0,0,0,0,0, ,-36.4,-116.4,-995.1,-1.2,5.2,-1.4,25,-4.53814,-108.635,-973.948,0.969775,-8.62577,-1.62041,
2026_07_06_21_44_57.870,3.866,34.1,0,0.762,0,0,0,0, ,0,0,0,0,0, ,-38.5,-118,-1001.9,-0.4,4,-0.6,25,-6.54371,-109.157,-975.444,0.86193,-7.81983,-1.5826,
2026_07_06_21_44_57.886,3.866,34.1,0,0.763,0,0,0,0, ,0,0,0,0,0, ,-45.1,-115.3,-1003.2,1.1,2.6,-0.4,25,-8.69214,-109.614,-977.096,0.830734,-7.14221,-1.51663,
2026_07_06_21_44_57.909,3.866,34,0,0.763,0,0,0,0, ,0,0,0,0,0, ,-41.3,-117.3,-978.7,0.7,-0.5,-0.7,25,-10.795,-110.021,-977.94,0.834955,-6.643,-1.45773,
2026_07_06_21_44_57.925,3.866,34.1,0,0.764,0,0,0,0, ,0,0,0,0,0, ,-35.5,-118.1,-974.1,-0.9,2.1,-0.4,25,-12.4771,-110.489,-977.846,0.777981,-6.18944,-1.40241,
2026_07_06_21_44_57.949,3.866,34.1,0,0.762,0,0,0,0, ,0,0,0,0,0, ,-38.4,-116.5,-979.9,-1.9,3.3,-0.8,25,-13.9685,-110.904,-977.795,0.64526,-5.64774,-1.35351,
2026_07_06_21_44_57.966,3.866,34.1,0,0.763,0,0,0,0, ,0,0,0,0,0, ,-39.3,-118.7,-1000.6,-1.4,4.4,-1.3,25,-15.4847,-111.312,-978.554,0.505393,-5.06897,-1.33502,
2026_07_06_21_44_57.990,3.866,34.1,0,0.764,0,0,0,0, ,0,0,0,0,0, ,-35.6,-115.6,-994,-0.5,0.8,-1.3,25,-16.8232,-111.668,-979.696,0.416705,-4.60165,-1.33288,
2026_07_06_21_44_58.005,3.866,34,0,0.762,0,0,0,0, ,0,0,0,0,0, ,-32.5,-117.7,-993,-0.8,-5.5,0.4,25,-17.8729,-111.972,-980.537,0.351703,-4.46444,-1.27908,
2026_07_06_21_44_58.028,3.866,34.1,0,0.762,0,0,0,0, ,0,0,0,0,0, ,-47.3,-116.8,-992.7,-0.6,0.1,0.2,25,-19.2152,-112.293,-981.287,0.287614,-4.35692,-1.18286,
2026_07_06_21_44_58.043,3.866,34.1,0,0.763,0,0,0,0, ,0,0,0,0,0, ,-51.1,-114.9,-979.3,-1.4,1.2,-2,25,-21.0424,-112.51,-981.575,0.20915,-4.05181,-1.16562,
2026_07_06_21_44_58.067,3.866,34,0,0.763,0,0,0,0, ,0,0,0,0,0, ,-39.7,-115.7,-991.5,-2.5,0.7,-3,25,-22.5267,-112.68,-981.808,0.0775772,-3.74701,-1.24694,
2026_07_06_21_44_58.084,3.866,34.1,0,0.762,0,0,0,0, ,0,0,0,0,0, ,-24.9,-115.6,-1005.6,-1.4,-0.7,-2,25,-23.1223,-112.861,-982.828,-0.0459783,-3.51868,-1.32329,
2026_07_06_21_44_58.108,3.866,34,0,0.763,0,0,0,0, ,0,0,0,0,0, ,-16.7,-112.5,-1000.2,0.4,-1.5,-0.2,25,-22.9808,-112.933,-984.051,-0.0736452,-3.37129,-1.30969,
2026_07_06_21_44_58.123,3.866,34.1,0,0.761,0,0,0,0, ,0,0,0,0,0, ,-34,-112.1,-973.7,0,0.1,-0.2,25,-23.1251,-112.895,-984.228,-0.05697,-3.20851,-1.24207,
2026_07_06_21_44_58.146,3.866,34.1,0,0.762,0,0,0,0, ,0,0,0,0,0, ,-47.4,-115.7,-981.6,-2.1,-0.1,-1,25,-24.1961,-112.956,-983.827,-0.117483,-3.01299,-1.20294,
2026_07_06_21_44_58.162,3.866,34.1,0,0.763,0,0,0,0, ,0,0,0,0,0, ,-40.1,-113.4,-996,-2.5,-3.2,-0.7,25,-25.3877,-113.053,-984.13,-0.25048,-2.92993,-1.18143,
2026_07_06_21_44_58.186,3.866,34.2,0,0.762,0,0,0,0, ,0,0,0,0,0, ,-35,-114.1,-1000.6,-1.2,-4.2,-0.9,25,-26.1288,-113.096,-984.993,-0.347951,-2.97686,-1.15819,
2026_07_06_21_44_58.202,3.866,34.1,0,0.763,0,0,0,0, ,0,0,0,0,0, ,-35.8,-114.2,-996,-0.4,0.6,-1.6,25,-26.6938,-113.16,-985.804,-0.375497,-2.90514,-1.16378,
2026_07_06_21_44_58.226,3.866,34.1,0,0.763,0,0,0,0, ,0,0,0,0,0, ,-30.1,-114.2,-988.4,-0.9,0.1,-1,25,-27.075,-113.223,-986.194,-0.392225,-2.70678,-1.17208,
2026_07_06_21_44_58.244,3.866,34,0,0.763,0,0,0,0, ,0,0,0,0,0, ,-26.9,-111.5,-997.3,-0.3,0,-0.6,25,-27.1618,-113.201,-986.6,-0.404886,-2.53879,-1.14941,
2026_07_06_21_44_58.267,3.866,34.1,0,0.762,0,0,0,0, ,0,0,0,0,0, ,-36.9,-113.8,-984.4,-0.3,-1.6,0,25,-27.4506,-113.167,-986.859,-0.398495,-2.43283,-1.09765,
2026_07_06_21_44_58.281,3.866,34.1,0,0.762,0,0,0,0, ,0,0,0,0,0, ,-43.5,-115.3,-982.4,-1.4,-1.2,0,25,-28.2275,-113.251,-986.648,-0.426008,-2.36989,-1.03076,
2026_07_06_21_44_58.304,3.866,34.1,0,0.763,0,0,0,0, ,0,0,0,0,0, ,-44,-113.6,-993.5,-2.1,-0.2,-0.3,25,-29.1734,-113.324,-986.727,-0.506689,-2.26814,-0.97709,
2026_07_06_21_44_58.320,3.866,34.1,0,0.763,0,0,0,0, ,0,0,0,0,0, ,-45.5,-113.7,-1001,-0.8,1.8,-1.3,25,-30.1226,-113.344,-987.368,-0.564172,-2.08117,-0.966299,
2026_07_06_21_44_58.345,3.866,34,0,0.763,0,0,0,0, ,0,0,0,0,0, ,-41.8,-114.8,-1000.2,0.1,4.6,-1.6,25,-30.9469,-113.399,-988.175,-0.551121,-1.75935,-0.995774,
2026_07_06_21_44_58.361,3.866,34.1,0,0.762,0,0,0,0, ,0,0,0,0,0, ,-43.8,-109.4,-995.9,-0.8,-1.7,-1.2,25,-31.6692,-113.32,-988.777,-0.538865,-1.56378,-1.02041,
2026_07_06_21_44_58.385,3.866,34.1,0,0.761,0,0,0,0, ,0,0,0,0,0, ,-29.4,-114.9,-994.9,-0.7,-2,-1.3,25,-31.9697,-113.249,-989.18,-0.551731,-1.58122,-1.0344,
2026_07_06_21_44_58.400,3.866,34.2,0,0.761,0,0,0,0, ,0,0,0,0,0, ,-26.1,-116.3,-999.3,0,1.4,-1.4,25,-31.7126,-113.392,-989.663,-0.539438,-1.50315,-1.05363,
2026_07_06_21_44_58.425,3.866,34,0,0.763,0,0,0,0, ,0,0,0,0,0, ,-30.2,-114.8,-986.9,1.4,8,-2.3,25,-31.4955,-113.524,-989.872,-0.46391,-1.12514,-1.10216,
2026_07_06_21_44_58.440,3.866,34,0,0.762,0,0,0,0, ,0,0,0,0,0, ,-26.8,-114.5,-986.8,1,5.5,-1.3,25,-31.3129,-113.592,-989.688,-0.362515,-0.645251,-1.14468,
2026_07_06_21_44_58.463,3.866,34.1,0,0.763,0,0,0,0, ,0,0,0,0,0, ,-29.4,-114,-987.1,0,1.4,0,25,-31.1171,-113.632,-989.521,-0.309956,-0.395697,-1.11454,
2026_07_06_21_44_58.480,3.866,34.1,0,0.762,0,0,0,0, ,0,0,0,0,0, ,-36.7,-114.7,-993.1,-0.4,2.4,-1.2,25,-31.2349,-113.676,-989.556,-0.303255,-0.255803,-1.08318,
2026_07_06_21_44_58.503,3.866,34.1,0,0.762,0,0,0,0, ,0,0,0,0,0, ,-34.3,-113.2,-985.5,-0.6,5.6,-2.6,25,-31.4948,-113.693,-989.541,-0.315245,0.00353497,-1.13296,
2026_07_06_21_44_58.519,3.866,34.1,0,0.762,0,0,0,0, ,0,0,0,0,0, ,-26,-111.5,-993.5,-1.6,1.4,-2.3,25,-31.4129,-113.611,-989.538,-0.363066,0.216601,-1.21322,
2026_07_06_21_44_58.549,3.866,34.1,0,0.762,0,0,0,0, ,0,0,0,0,0, ,-19.4,-113.7,-993.5,-1.4,-2.9,-1.1,25,-30.8819,-113.549,-989.78,-0.432348,0.157699,-1.24288,
2026_07_06_21_44_58.558,3.866,34,0,0.762,0,0,0,0, ,0,0,0,0,0, ,-22.3,-116.9,-993.1,-0.5,1.5,-1.3,25,-30.2706,-113.656,-989.994,-0.463892,0.105433,-1.24027,
2026_07_06_21_44_58.582,3.866,34.1,0,0.763,0,0,0,0, ,0,0,0,0,0, ,-33.2,-113.7,-987,-0.3,2.6,-1.8,25,-30.117,-113.756,-989.998,-0.459999,0.22393,-1.25914,
2026_07_06_21_44_58.598,3.866,34.1,0,0.761,0,0,0,0, ,0,0,0,0,0, ,-27,-112.7,-988.8,-1.4,-0.9,-1.8,25,-30.116,-113.722,-989.87,-0.483764,0.262081,-1.2921,
2026_07_06_21_44_58.622,3.866,34,0,0.762,0,0,0,0, ,0,0,0,0,0, ,-18,-117.1,-990.8,-1.4,-3.1,-1.4,25,-29.6519,-113.794,-989.866,-0.539597,0.124235,-1.31086,
2026_07_06_21_44_58.638,3.866,34.1,0,0.762,0,0,0,0, ,0,0,0,0,0, ,-21.8,-114,-992.4,-0.7,1,-1.9,25,-29.0576,-113.901,-989.971,-0.5707,0.0526803,-1.33153,
2026_07_06_21_44_58.662,3.866,34.1,0,0.763,0,0,0,0, ,0,0,0,0,0, ,-23.1,-110.8,-994.3,-0.4,0.1,-2.1,25,-28.655,-113.81,-990.177,-0.569439,0.0829857,-1.37226,
2026_07_06_21_44_58.678,3.866,34.1,0,0.763,0,0,0,0, ,0,0,0,0,0, ,-12.5,-113.8,-1002.8,0.7,0.9,-1.8,25,-27.9935,-113.718,-990.687,-0.525598,0.108398,-1.40747,
2026_07_06_21_44_58.702,3.866,34.1,0,0.761,0,0,0,0, ,0,0,0,0,0, ,-26.7,-113.1,-987,0.6,1,-0.6,25,-27.482,-113.701,-990.944,-0.45396,0.159683,-1.39483,
2026_07_06_21_44_58.716,3.866,34.1,0,0.762,0,0,0,0, ,0,0,0,0,0, ,-29,-114,-978.8,-0.4,-3.7,-0.7,25,-27.5044,-113.692,-990.454,-0.420203,0.0676864,-1.34944,
2026_07_06_21_44_58.741,3.866,34.1,0,0.761,0,0,0,0, ,0,0,0,0,0, ,-25.1,-116.4,-987.9,-1.1,-0.5,-1.3,25,-27.4767,-113.784,-990.021,-0.4403,-0.064407,-1.32814,
2026_07_06_21_44_58.756,3.866,34.1,0,0.763,0,0,0,0, ,0,0,0,0,0, ,-25.6,-117,-997.4,-0.9,2.4,-1.6,25,-27.3471,-113.962,-990.181,-0.474407,-0.00259158,-1.33557,
2026_07_06_21_44_58.780,3.866,34.1,0,0.763,0,0,0,0, ,0,0,0,0,0, ,-21.6,-116.5,-999,-0.1,3.2,-1.7,25,-27.1188,-114.132,-990.67,-0.475966,0.168191,-1.35473,
2026_07_06_21_44_58.796,3.866,34.1,0,0.763,0,0,0,0, ,0,0,0,0,0, ,-22.4,-111,-982.9,-0.9,0.8,-1.1,25,-26.8069,-114.108,-990.687,-0.477431,0.279817,-1.35749,
2026_07_06_21_44_58.820,3.866,34.1,0,0.763,0,0,0,0, ,0,0,0,0,0, ,-16.9,-115.8,-987,-1.9,-0.7,-1.2,25,-26.3708,-114.065,-990.337,-0.53365,0.265813,-1.34485,
2026_07_06_21_44_58.838,3.866,34,0,0.764,0,0,0,0, ,0,0,0,0,0, ,-11.3,-117.6,-995.7,-1.1,3.3,-1.6,25,-25.623,-114.226,-990.399,-0.592537,0.328833,-1.34821,
2026_07_06_21_44_58.862,3.866,34.1,0,0.762,0,0,0,0, ,0,0,0,0,0, ,-19.1,-116.3,-992.9,0,9.3,-2.3,25,-24.9879,-114.392,-990.637,-0.589945,0.692701,-1.38488,
2026_07_06_21_44_58.875,3.866,34.1,0,0.763,0,0,0,0, ,0,0,0,0,0, ,-13.9,-112.6,-990.7,-0.9,10.8,-2.4,25,-24.4706,-114.395,-990.708,-0.581417,1.26291,-1.44369,
2026_07_06_21_44_58.900,3.866,34.2,0,0.764,0,0,0,0, ,0,0,0,0,0, ,-5.8,-112.9,-1003.9,-1,11.5,-2.3,25,-23.5797,-114.295,-991.109,-0.603877,1.86541,-1.49892,
2026_07_06_21_44_58.915,3.866,34.1,0,0.762,0,0,0,0, ,0,0,0,0,0, ,8.9,-115.2,-1003.6,-0.3,21.2,-3.3,25,-22.0483,-114.28,-991.88,-0.606688,2.74806,-1.5782,
2026_07_06_21_44_58.939,3.866,34.1,0,0.761,0,0,0,0, ,0,0,0,0,0, ,15.6,-115.6,-985.2,-0.3,41.3,-6.6,25,-19.9583,-114.348,-992.033,-0.587999,4.4849,-1.78367,
2026_07_06_21_44_58.955,3.866,34,0,0.761,0,0,0,0, ,0,0,0,0,0, ,25.7,-118.8,-986.3,-2.3,55.9,-6.8,25,-17.4837,-114.522,-991.65,-0.631387,7.17316,-2.08326,
2026_07_06_21_44_58.979,3.866,34.1,0,0.762,0,0,0,0, ,0,0,0,0,0, ,31,-117.3,-1014.6,-3.1,67,-9.5,25,-14.6907,-114.737,-992.187,-0.757443,10.4807,-2.45295,
2026_07_06_21_44_58.994,3.866,34.1,0,0.762,0,0,0,0, ,0,0,0,0,0, ,78.4,-118.4,-1038.4,3.6,82.1,-16,25,-10.4622,-114.927,-994.278,-0.696052,14.3849,-3.08043,
2026_07_06_21_44_59.018,3.866,34.1,0,0.763,0,0,0,0, ,0,0,0,0,0, ,114.2,-113.1,-1033,10.9,86.5,-17.9,25,-3.95641,-114.977,-996.802,-0.211839,18.6453,-3.92561,
2026_07_06_21_44_59.033,3.866,34.1,0,0.762,0,0,0,0, ,0,0,0,0,0, ,142,-123,-990.7,10.7,83.9,-15.7,25,4.09078,-115.164,-997.719,0.459195,22.701,-4.71014,
2026_07_06_21_44_59.059,3.866,34.1,0,0.761,0,0,0,0, ,0,0,0,0,0, ,168.3,-135.9,-972.6,8.6,92.9,-15.7,25,13.2959,-116.035,-996.74,1.01926,26.7045,-5.37983,
2026_07_06_21_44_59.073,3.866,34.1,0,0.762,0,0,0,0, ,0,0,0,0,0, ,190.5,-148,-976,8.5,105.1,-17.7,25,23.4179,-117.614,-995.372,1.47816,31.11,-6.06966,
2026_07_06_21_44_59.097,3.866,34.1,0,0.761,0,0,0,0, ,0,0,0,0,0, ,231.3,-127.4,-996.7,12.7,129.3,-23.6,25,34.8426,-118.838,-994.822,2.03403,36.3562,-6.95815,
2026_07_06_21_44_59.112,3.866,34.1,0,0.763,0,0,0,0, ,0,0,0,0,0, ,296.6,-134.2,-974.8,17,145,-22.1,25,48.8038,-119.567,-994.27,2.815,42.4983,-7.92656,
2026_07_06_21_44_59.138,3.866,34.1,0,0.764,0,0,0,0, ,0,0,0,0,0, ,328.6,-137.8,-930.6,18.5,154.7,-20.8,25,64.8789,-120.568,-991.736,3.7251,49.04,-8.75064,
2026_07_06_21_44_59.157,3.866,34,0,0.762,0,0,0,0, ,0,0,0,0,0, ,378.7,-141.4,-860.5,13.7,152.5,-20.2,25,82.4759,-121.728,-985.875,4.4792,55.4116,-9.46662,
2026_07_06_21_44_59.182,3.866,34.1,0,0.761,0,0,0,0, ,0,0,0,0,0, ,411.4,-138.5,-838.6,7.1,137.5,-17,25,101.523,-122.838,-977.568,4.83999,60.8709,-10.0232,
2026_07_06_21_44_59.192,3.866,34.1,0,0.762,0,0,0,0, ,0,0,0,0,0, ,438.3,-137.9,-852.4,3.4,123,-18.9,25,121.226,-123.775,-969.52,4.86498,65.0987,-10.5062,
2026_07_06_21_44_59.217,3.866,34,0,0.763,0,0,0,0, ,0,0,0,0,0, ,483,-141.8,-887.8,8.2,125.7,-23,25,141.91,-124.754,-963.461,4.92196,68.7093,-11.1426,
2026_07_06_21_44_59.231,3.866,34.1,0,0.762,0,0,0,0, ,0,0,0,0,0, ,517.3,-141.4,-870.7,12.7,135.3,-27.4,25,163.74,-125.781,-958.33,5.25882,72.4747,-11.9993,
2026_07_06_21_44_59.256,3.866,34.1,0,0.763,0,0,0,0, ,0,0,0,0,0, ,578.8,-137.9,-788.5,12.7,144.1,-28.3,25,187.159,-126.626,-950.485,5.71227,76.5713,-12.9652,
2026_07_06_21_44_59.271,3.866,34.1,0,0.762,0,0,0,0, ,0,0,0,0,0, ,602.4,-126.5,-749.2,16.7,141.6,-31.2,25,211.744,-126.966,-939.417,6.25996,80.6101,-13.988,
2026_07_06_21_44_59.296,3.866,34.1,0,0.762,0,0,0,0, ,0,0,0,0,0, ,645,-122.9,-692.2,10,131.7,-33.5,25,236.847,-126.827,-926.089,6.69201,84.025,-15.1069,
2026_07_06_21_44_59.311,3.866,34.1,0,0.762,0,0,0,0, ,0,0,0,0,0, ,685.4,-113.4,-718.5,1.2,123.6,-35.5,25,262.95,-126.299,-912.638,6.62546,86.6834,-16.2887,
2026_07_06_21_44_59.336,3.866,34,0,0.762,0,0,0,0, ,0,0,0,0,0, ,729.2,-109.8,-678.9,-2,109.7,-32,25,290.028,-125.403,-899.601,6.19735,88.5095,-17.3527,
2026_07_06_21_44_59.350,3.866,34.1,0,0.764,0,0,0,0, ,0,0,0,0,0, ,776.8,-108.1,-632,-3.6,103.5,-23.1,25,318.24,-124.4,-884.723,5.64907,89.6119,-17.9741,
2026_07_06_21_44_59.375,3.866,34,0,0.763,0,0,0,0, ,0,0,0,0,0, ,768,-98.9,-602.1,-4.7,97.5,-22.4,25,345.915,-123.127,-868.412,5.05194,90.2754,-18.2652,
2026_07_06_21_44_59.389,3.866,34.1,0,0.762,0,0,0,0, ,0,0,0,0,0, ,774.6,-98.9,-598.5,-0.3,97,-26,25,371.837,-121.65,-852.073,4.59175,90.7004,-18.6268,
2026_07_06_21_44_59.414,3.866,34.1,0,0.762,0,0,0,0, ,0,0,0,0,0, ,792.4,-90.5,-565.3,3.3,95.2,-31.4,25,396.923,-120.008,-835.61,4.40334,91.0295,-19.2407,
2026_07_06_21_44_59.429,3.866,34.1,0,0.761,0,0,0,0, ,0,0,0,0,0, ,823.3,-75.1,-530.5,-4.4,83.4,-29.1,25,421.964,-117.741,-818.077,4.1015,90.9241,-19.9115,
2026_07_06_21_44_59.455,3.866,34.1,0,0.762,0,0,0,0, ,0,0,0,0,0, ,896.3,-73.7,-522.3,-6.9,83.2,-21.8,25,448.644,-115.1,-800.303,3.50727,90.4595,-20.249,
2026_07_06_21_44_59.473,3.866,34.1,0,0.765,0,0,0,0, ,0,0,0,0,0, ,881.7,-76.9,-509.7,-4.3,100.2,-18,25,475.479,-112.674,-782.979,2.95229,90.5351,-20.2278,
2026_07_06_21_44_59.498,3.866,34.1,0,0.762,0,0,0,0, ,0,0,0,0,0, ,828.4,-63.4,-455,-2.7,105.6,-21.4,25,498.609,-110.083,-764.659,2.55911,91.2886,-20.1956,
2026_07_06_21_44_59.509,3.866,34,0,0.762,0,0,0,0, ,0,0,0,0,0, ,846.8,-51.5,-417.8,-3.7,98.8,-27.4,25,519.266,-106.876,-744.656,2.20816,91.9535,-20.4518,
2026_07_06_21_44_59.534,3.866,34,0,0.761,0,0,0,0, ,0,0,0,0,0, ,912.4,-56,-453,0.9,95.7,-29.8,25,541.224,-103.638,-725.811,1.98829,92.2762,-20.9483,
2026_07_06_21_44_59.548,3.866,34,0,0.763,0,0,0,0, ,0,0,0,0,0, ,957.2,-39.7,-405.1,6.8,92.9,-22.5,25,565.207,-100.239,-707.727,2.10174,92.3996,-21.2653,
2026_07_06_21_44_59.573,3.866,34,0,0.762,0,0,0,0, ,0,0,0,0,0, ,932,-26,-336.6,7.3,90,-16.9,25,588.327,-96.1323,-687.198,2.40327,92.3417,-21.1699,
2026_07_06_21_44_59.587,3.866,34.1,0,0.763,0,0,0,0, ,0,0,0,0,0, ,908.9,-24.5,-295.5,5.2,86.5,-18.8,25,608.565,-91.8129,-664.581,2.63768,92.0924,-20.9676,
2026_07_06_21_44_59.614,3.866,34,0,0.763,0,0,0,0, ,0,0,0,0,0, ,933.8,-25.5,-264.8,3.3,85.3,-23.5,25,627.626,-87.7415,-641.155,2.73593,91.715,-20.9787,
2026_07_06_21_44_59.627,3.866,34,0,0.762,0,0,0,0, ,0,0,0,0,0, ,977.4,-17.9,-258,4.4,93.6,-25.5,25,647.612,-83.7171,-618.014,2.80382,91.577,-21.1933,
2026_07_06_21_44_59.652,3.866,34,0,0.762,0,0,0,0, ,0,0,0,0,0, ,992.3,-9.5,-226.4,8.4,94.4,-19.2,25,668.162,-79.4504,-595.113,3.02296,91.7246,-21.2638,
2026_07_06_21_44_59.667,3.866,34,0,0.761,0,0,0,0, ,0,0,0,0,0, ,943.8,8.1,-158.5,6,77.4,-15.3,25,686.436,-74.6516,-570.575,3.2775,91.3697,-21.0192,
2026_07_06_21_44_59.690,3.866,34,0,0.762,0,0,0,0, ,0,0,0,0,0, ,958.1,8.4,-135.8,1.1,68.8,-16.7,25,702.555,-69.5998,-544.773,3.29411,90.2564,-20.7133,
2026_07_06_21_44_59.706,3.866,34.2,0,0.763,0,0,0,0, ,0,0,0,0,0, ,967,15,-112.3,0.3,78.1,-20.8,25,718.399,-64.6455,-519.135,3.13603,89.2322,-20.5937,
2026_07_06_21_44_59.733,3.866,34.1,0,0.763,0,0,0,0, ,0,0,0,0,0, ,968.5,21.3,-65.7,-1.7,77.8,-23.6,25,733.594,-59.6002,-492.924,2.90227,88.5447,-20.6916,
2026_07_06_21_44_59.746,3.866,34,0,0.763,0,0,0,0, ,0,0,0,0,0, ,971.1,25.8,-54.6,-3.6,71.9,-23.7,25,747.987,-54.5332,-466.552,2.56393,87.7102,-20.8719,
2026_07_06_21_44_59.772,3.866,34,0,0.762,0,0,0,0, ,0,0,0,0,0, ,996.7,28.1,-52.3,-6.5,62.2,-20.8,25,762.363,-49.5678,-441.378,2.09995,86.4512,-20.9558,
2026_07_06_21_44_59.786,3.866,34.1,0,0.762,0,0,0,0, ,0,0,0,0,0, ,997,29.6,-56.3,-4.9,63.8,-17.9,25,776.652,-44.7893,-417.791,1.62465,85.0222,-20.858,
2026_07_06_21_44_59.813,3.866,34.2,0,0.762,0,0,0,0, ,0,0,0,0,0, ,966.7,34.4,-23.5,-4.4,65.1,-16.3,25,789.157,-40.1099,-394.763,1.24228,83.7686,-20.629,
2026_07_06_21_44_59.830,3.866,34,0,0.762,0,0,0,0, ,0,0,0,0,0, ,971.4,42.8,0.1,-4.8,65,-18.4,25,800.119,-35.3135,-371.42,0.88627,82.6279,-20.4292,
2026_07_06_21_44_59.855,3.866,34.1,0,0.763,0,0,0,0, ,0,0,0,0,0, ,986.9,43.8,18.9,-3.4,54.7,-21.5,25,811.029,-30.523,-348.208,0.582419,81.2399,-20.4,
2026_07_06_21_44_59.865,3.866,34.1,0,0.762,0,0,0,0, ,0,0,0,0,0, ,1011.1,50.1,22.9,-2,48.4,-17,25,822.483,-25.802,-325.715,0.382397,79.4306,-20.3299,
2026_07_06_21_44_59.891,3.866,34.1,0,0.761,0,0,0,0, ,0,0,0,0,0, ,1011.5,51.5,45.1,-0.7,41.2,-10.4,25,833.989,-21.1341,-303.795,0.276829,77.3203,-19.9259,
2026_07_06_21_44_59.904,3.866,34.1,0,0.762,0,0,0,0, ,0,0,0,0,0, ,980.4,60.3,68.1,-0.9,29.1,-7.3,25,843.859,-16.4398,-281.834,0.211209,74.7506,-19.251,
2026_07_06_21_44_59.930,3.866,34.1,0,0.763,0,0,0,0, ,0,0,0,0,0, ,980.8,55.5,77,-1.4,21.3,-6.6,25,852.191,-11.9097,-260.238,0.128261,71.7311,-18.5014,
2026_07_06_21_44_59.944,3.866,34.2,0,0.763,0,0,0,0, ,0,0,0,0,0, ,956.6,54.9,77.1,-1.8,23.4,-5.2,25,859.291,-7.82023,-239.685,0.0229449,68.7219,-17.7335,
2026_07_06_21_44_59.971,3.866,34.1,0,0.762,0,0,0,0, ,0,0,0,0,0, ,966.3,61.5,92.7,1.3,26.4,-9.1,25,865.516,-3.79712,-219.905,0.00631233,66.0515,-17.0885,
2026_07_06_21_44_59.984,3.866,34,0,0.763,0,0,0,0, ,0,0,0,0,0, ,951.7,69.7,113.1,0.7,19.4,-9.4,25,871.213,0.431766,-200.234,0.0668652,63.422,-16.6109,
2026_07_06_21_45_00.011,3.866,34,0,0.762,0,0,0,0, ,0,0,0,0,0, ,959.1,75.1,122.8,-0.5,14.1,-10.9,25,876.343,4.81733,-180.845,0.0688843,60.5779,-16.2172,
2026_07_06_21_45_00.024,3.866,34.1,0,0.762,0,0,0,0, ,0,0,0,0,0, ,988,75.4,120.9,-1.6,6.1,-9.6,25,882.267,9.10932,-162.4,0.000702313,57.5019,-15.8535,
2026_07_06_21_45_00.051,3.866,34.1,0,0.763,0,0,0,0, ,0,0,0,0,0, ,999.3,72.3,113,0,7.5,-8.2,25,889.054,13.0545,-145.377,-0.0480905,54.4123,-15.4298,
2026_07_06_21_45_00.063,3.866,34.1,0,0.763,0,0,0,0, ,0,0,0,0,0, ,974.7,79.1,137.3,-0.3,6.2,-6.1,25,895.023,16.8719,-128.892,-0.0543006,51.5139,-14.9253,
2026_07_06_21_45_00.089,3.866,34.1,0,0.762,0,0,0,0, ,0,0,0,0,0, ,990.8,86.3,119.3,-3,8,-5.6,25,900.369,20.8833,-113.219,-0.151539,48.8075,-14.3722,
2026_07_06_21_45_00.103,3.866,34.2,0,0.761,0,0,0,0, ,0,0,0,0,0, ,990.3,85.3,124.6,-0.4,6.3,-8.6,25,905.864,24.8392,-98.8883,-0.245898,46.269,-13.9291,
2026_07_06_21_45_00.129,3.866,34.1,0,0.762,0,0,0,0, ,0,0,0,0,0, ,990.4,80,118.5,1.2,7.5,-8,25,911.012,28.362,-85.4553,-0.206538,43.8699,-13.5861,
2026_07_06_21_45_00.142,3.866,34.1,0,0.763,0,0,0,0, ,0,0,0,0,0, ,974.7,78.2,139.4,0.3,4.1,-7.6,25,915.372,31.4539,-72.39,-0.148249,41.55,-13.2335,
2026_07_06_21_45_00.168,3.866,34.1,0,0.763,0,0,0,0, ,0,0,0,0,0, ,981.8,78,126.5,-0.3,0.5,-6.4,25,919.203,34.2964,-59.8771,-0.139215,39.1582,-12.8536,
2026_07_06_21_45_00.181,3.866,34.1,0,0.763,0,0,0,0, ,0,0,0,0,0, ,987.6,84.4,122.1,0.2,3.7,-6,25,923.195,37.1546,-48.6538,-0.133779,36.9,-12.4482,
2026_07_06_21_45_00.208,3.866,34.1,0,0.762,0,0,0,0, ,0,0,0,0,0, ,976.1,89.7,137.5,1,1.4,-6.1,25,926.769,40.1951,-37.7793,-0.0890643,34.8068,-12.0583,
2026_07_06_21_45_00.222,3.866,34.2,0,0.762,0,0,0,0, ,0,0,0,0,0, ,977.6,91.5,126.3,1.5,0,-7.6,25,929.821,43.2666,-27.4395,-0.00746504,32.7284,-11.7409,
2026_07_06_21_45_00.249,3.866,34.1,0,0.762,0,0,0,0, ,0,0,0,0,0, ,981.9,91.6,136.7,1.3,1.5,-6.4,25,932.863,46.2089,-17.7541,0.0783024,30.7797,-11.452,
2026_07_06_21_45_00.261,3.866,34,0,0.763,0,0,0,0, ,0,0,0,0,0, ,963.2,88.2,146.8,-1,-0.2,-4.3,25,935.282,48.8713,-8.03431,0.0826714,28.9437,-11.0802,
2026_07_06_21_45_00.288,3.866,34.1,0,0.762,0,0,0,0, ,0,0,0,0,0, ,991,91.6,135,0.4,2.9,-6.2,25,937.83,51.3715,1.04137,0.0593524,27.2622,-10.7249,
2026_07_06_21_45_00.301,3.866,34,0,0.762,0,0,0,0, ,0,0,0,0,0, ,1009.7,98.2,135.1,1.4,3.2,-4.5,25,941.64,54.024,9.20752,0.110579,25.7868,-10.3974,
2026_07_06_21_45_00.327,3.866,34.1,0,0.763,0,0,0,0, ,0,0,0,0,0, ,990.7,99.1,145.7,1.4,8.8,-3.6,25,945.208,56.7434,17.2021,0.189153,24.581,-10.0106,
2026_07_06_21_45_00.340,3.866,34.2,0,0.763,0,0,0,0, ,0,0,0,0,0, ,969.7,101.3,146.7,0.9,5.1,-5.1,25,947.341,59.3915,25.0629,0.247705,23.5066,-9.66562,
2026_07_06_21_45_00.366,3.866,34.1,0,0.762,0,0,0,0, ,0,0,0,0,0, ,976.5,103.6,147.4,0.6,-1.1,-4,25,948.91,62.0154,32.4965,0.278314,22.1961,-9.35389,
2026_07_06_21_45_00.380,3.866,34.1,0,0.762,0,0,0,0, ,0,0,0,0,0, ,981.6,106.2,146.6,0.9,0.3,-4.4,25,950.747,64.6287,39.474,0.307057,20.8191,-9.03982,
2026_07_06_21_45_00.406,3.866,34,0,0.763,0,0,0,0, ,0,0,0,0,0, ,972.5,103.1,154.2,0.2,1.9,-3.9,25,952.35,67.0675,46.2336,0.321861,19.6175,-8.74185,
2026_07_06_21_45_00.419,3.866,34.1,0,0.762,0,0,0,0, ,0,0,0,0,0, ,971.8,107.7,156.7,0.1,1.6,-4.2,25,953.556,69.4034,52.8889,0.311389,18.5287,-8.45594,
2026_07_06_21_45_00.447,3.866,34,0,0.763,0,0,0,0, ,0,0,0,0,0, ,973.6,103.5,151.2,-0.7,0.4,-2.7,25,954.723,71.6091,59.0474,0.274132,17.4605,-8.15089,
2026_07_06_21_45_00.459,3.866,34,0,0.762,0,0,0,0, ,0,0,0,0,0, ,966.5,101.1,153.1,-0.5,-1,-4.6,25,955.657,73.4793,64.7208,0.220865,16.3783,-7.87662,
2026_07_06_21_45_00.486,3.866,34,0,0.764,0,0,0,0, ,0,0,0,0,0, ,981.5,100.2,146.9,-0.9,-0.5,-4.3,25,956.775,75.135,69.9175,0.164749,15.3345,-7.66781,
2026_07_06_21_45_00.498,3.866,34,0,0.762,0,0,0,0, ,0,0,0,0,0, ,1001.4,97.6,139.2,0.1,3.2,-3.6,25,958.888,76.5832,74.374,0.130335,14.4823,-7.44125,
2026_07_06_21_45_00.526,3.866,34.1,0,0.763,0,0,0,0, ,0,0,0,0,0, ,978.3,100.2,137.4,0.1,5.6,-2.4,25,960.774,77.9432,78.2695,0.128486,13.8679,-7.17062,
2026_07_06_21_45_00.538,3.866,34,0,0.762,0,0,0,0, ,0,0,0,0,0, ,977.7,104.1,146.1,0.4,7.2,-2.8,25,961.824,79.4183,82.1378,0.135891,13.4129,-6.89209,
2026_07_06_21_45_00.564,3.866,34,0,0.763,0,0,0,0, ,0,0,0,0,0, ,969.3,105.2,155.8,0.5,3.3,-2.6,25,962.536,80.9558,86.3311,0.155032,12.9154,-6.63664,
2026_07_06_21_45_00.577,3.866,34,0,0.763,0,0,0,0, ,0,0,0,0,0, ,964.8,106.2,162.4,0.7,1.6,-2.7,25,962.811,82.4637,90.7654,0.182147,12.2777,-6.3937,
2026_07_06_21_45_00.603,3.866,34,0,0.763,0,0,0,0, ,0,0,0,0,0, ,964.9,106.5,168.4,0.5,0.3,-3.2,25,962.935,83.9192,95.3135,0.20761,11.5874,-6.18385,
2026_07_06_21_45_00.617,3.866,34.1,0,0.763,0,0,0,0, ,0,0,0,0,0, ,965.8,110.4,168.9,0.3,0.5,-3.2,25,963.082,85.4141,99.7824,0.219334,10.9057,-6.00202,
2026_07_06_21_45_00.644,3.866,34,0,0.762,0,0,0,0, ,0,0,0,0,0, ,964.9,112.5,159.9,-1.3,1.9,0.1,25,963.22,87.0006,103.72,0.1755,10.3142,-5.73073,
2026_07_06_21_45_00.657,3.866,34.2,0,0.763,0,0,0,0, ,0,0,0,0,0, ,976.6,114.6,160.1,-0.8,-1.2,-3.3,25,963.679,88.6185,107.15,0.100821,9.70704,-5.47901,
2026_07_06_21_45_00.684,3.866,34.1,0,0.763,0,0,0,0, ,0,0,0,0,0, ,980.8,107.6,158.3,-0.9,-2.6,-1.9,25,964.595,89.9885,110.321,0.0428801,8.99974,-5.30357,
2026_07_06_21_45_00.696,3.866,34.1,0,0.763,0,0,0,0, ,0,0,0,0,0, ,983.7,111,159.7,-0.5,-0.7,-4,25,965.67,91.1653,113.288,-0.00238911,8.35077,-5.16015,
2026_07_06_21_45_00.723,3.866,34.1,0,0.763,0,0,0,0, ,0,0,0,0,0, ,987.5,112.3,155.5,-1.2,0.9,-2.6,25,966.885,92.4135,115.988,-0.0540404,7.84799,-5.0468,
2026_07_06_21_45_00.736,3.866,34.1,0,0.762,0,0,0,0, ,0,0,0,0,0, ,975.7,107.1,145.6,-1.1,1.2,-1.4,25,967.782,93.4669,118.094,-0.120825,7.43374,-4.86113,
2026_07_06_21_45_00.764,3.866,34,0,0.762,0,0,0,0, ,0,0,0,0,0, ,965.9,108.1,151.8,0,-0.3,-1.8,25,967.966,94.3282,119.959,-0.146978,7.00816,-4.66241,
2026_07_06_21_45_00.775,3.866,34.1,0,0.762,0,0,0,0, ,0,0,0,0,0, ,968.8,111.2,161.4,-0.2,-0.9,-2.9,25,967.928,95.2618,122.192,-0.144116,6.54454,-4.5215,
2026_07_06_21_45_00.803,3.866,34.1,0,0.762,0,0,0,0, ,0,0,0,0,0, ,984.6,113.2,161.3,-0.7,0.3,-2.7,25,968.463,96.294,124.578,-0.162755,6.12745,-4.41659,
2026_07_06_21_45_00.815,3.866,34,0,0.762,0,0,0,0, ,0,0,0,0,0, ,977.1,110.9,155.7,-0.3,-0.6,-1,25,969.217,97.2541,126.645,-0.183306,5.74492,-4.26019,
2026_07_06_21_45_00.843,3.866,34.1,0,0.762,0,0,0,0, ,0,0,0,0,0, ,964.9,109.8,158.3,0,-1.2,-1.6,25,969.326,98.0522,128.495,-0.181277,5.34,-4.0798,
2026_07_06_21_45_00.854,3.866,34.1,0,0.761,0,0,0,0, ,0,0,0,0,0, ,967.7,109.7,157.4,-0.1,-1.8,-2.7,25,969.142,98.765,130.284,-0.173277,4.92318,-3.96221,
2026_07_06_21_45_00.882,3.866,34.1,0,0.763,0,0,0,0, ,0,0,0,0,0, ,974.9,110.7,159.3,-0.2,-2.1,-2.7,25,969.273,99.4618,131.994,-0.171858,4.50435,-3.88529,
2026_07_06_21_45_00.894,3.866,34,0,0.763,0,0,0,0, ,0,0,0,0,0, ,976.1,114.5,160.6,-0.6,-1.7,-2.3,25,969.653,100.262,133.698,-0.185761,4.11408,-3.80087,
2026_07_06_21_45_00.922,3.866,34,0,0.763,0,0,0,0, ,0,0,0,0,0, ,974.8,113.1,154.7,-0.5,-1.4,-1.7,25,970.006,101.087,135.157,-0.207957,3.76893,-3.69113,
2026_07_06_21_45_00.934,3.866,34.1,0,0.762,0,0,0,0, ,0,0,0,0,0, ,968,112.5,158.3,-1,-2.7,-2,25,970.091,101.801,136.458,-0.240987,3.41434,-3.57894,
2026_07_06_21_45_00.961,3.866,34.1,0,0.762,0,0,0,0, ,0,0,0,0,0, ,970.7,111.9,155.5,-1.5,-3.1,-2.8,25,970.046,102.435,137.704,-0.302474,3.02956,-3.5071,
2026_07_06_21_45_00.978,3.866,34.1,0,0.762,0,0,0,0, ,0,0,0,0,0, ,976.6,112.6,152.2,-1,-2.8,-2.5,25,970.265,103.033,138.687,-0.360214,2.66518,-3.45487,
2026_07_06_21_45_01.006,3.866,34,0,0.762,0,0,0,0, ,0,0,0,0,0, ,968.1,110.3,149.5,-0.5,-1.7,-3.3,25,970.392,103.546,139.429,-0.383967,2.36566,-3.42106,
2026_07_06_21_45_01.013,3.866,34.1,0,0.763,0,0,0,0, ,0,0,0,0,0, ,968.7,113.4,152.5,-1.2,-2,-4,25,970.271,104.052,140.134,-0.412365,2.10877,-3.43501,
2026_07_06_21_45_01.039,3.866,34.1,0,0.762,0,0,0,0, ,0,0,0,0,0, ,979.9,115.7,145.9,-1,-2.9,-3.8,25,970.516,104.692,140.686,-0.454268,1.83097,-3.46334,
2026_07_06_21_45_01.052,3.866,34,0,0.762,0,0,0,0, ,0,0,0,0,0, ,979.6,114.7,152.3,-0.4,-2.7,-2.5,25,971.079,105.332,141.199,-0.469242,1.54877,-3.44425,
2026_07_06_21_45_01.081,3.866,34,0,0.762,0,0,0,0, ,0,0,0,0,0, ,980.3,113.4,152.5,-0.6,-1.8,-1.5,25,971.62,105.863,141.882,-0.471117,1.31728,-3.35624,
2026_07_06_21_45_01.092,3.866,34.1,0,0.763,0,0,0,0, ,0,0,0,0,0, ,975.8,115.7,145.6,-0.8,-1.5,-1,25,972.012,106.393,142.318,-0.485064,1.13646,-3.22789,
2026_07_06_21_45_01.120,3.866,34.1,0,0.762,0,0,0,0, ,0,0,0,0,0, ,972.7,114.1,143.5,-0.7,-2.1,-1.4,25,972.148,106.911,142.454,-0.501209,0.957522,-3.10432,
2026_07_06_21_45_01.132,3.866,34,0,0.762,0,0,0,0, ,0,0,0,0,0, ,970.8,114.1,146.4,-0.2,-1.5,-2.3,25,972.124,107.349,142.606,-0.498088,0.789485,-3.02788,
2026_07_06_21_45_01.162,3.866,34,0,0.762,0,0,0,0, ,0,0,0,0,0, ,966.4,114.6,150.2,-0.1,-0.9,-3.3,25,971.909,107.776,142.953,-0.476877,0.668251,-3.01399,
2026_07_06_21_45_01.171,3.866,34.1,0,0.762,0,0,0,0, ,0,0,0,0,0, ,975.9,113.2,144.7,-0.4,-0.4,-3.8,25,971.863,108.149,143.227,-0.463051,0.58792,-3.04666,
2026_07_06_21_45_01.198,3.866,34.2,0,0.763,0,0,0,0, ,0,0,0,0,0, ,982.1,116.5,150.6,-0.2,0,-2.5,25,972.298,108.557,143.497,-0.453115,0.539906,-3.05296,
2026_07_06_21_45_01.211,3.866,34,0,0.762,0,0,0,0, ,0,0,0,0,0, ,967.7,118.2,152.4,-0.3,-1.1,-1.9,25,972.456,109.093,143.985,-0.440738,0.47349,-3.00098,
2026_07_06_21_45_01.241,3.866,34.1,0,0.762,0,0,0,0, ,0,0,0,0,0, ,969.1,119.8,158.5,-1.1,-2.2,-3.2,25,972.209,109.697,144.683,-0.456537,0.34409,-2.9735,
2026_07_06_21_45_01.251,3.866,34,0,0.762,0,0,0,0, ,0,0,0,0,0, ,986.2,119.2,145.2,-1.8,-2.5,-2.6,25,972.541,110.294,145.12,-0.517076,0.179919,-2.96902,
2026_07_06_21_45_01.278,3.866,34,0,0.763,0,0,0,0, ,0,0,0,0,0, ,983.7,116.9,137,-1.2,-0.6,-0.8,25,973.297,110.767,144.875,-0.576973,0.074502,-2.89169,
2026_07_06_21_45_01.290,3.866,34,0,0.762,0,0,0,0, ,0,0,0,0,0, ,966.3,115.4,143,0,-0.4,-1,25,973.401,111.095,144.578,-0.578376,0.0394933,-2.77032,
2026_07_06_21_45_01.318,3.866,34,0,0.762,0,0,0,0, ,0,0,0,0,0, ,966.4,114.2,145.7,-0.3,-0.6,-2.5,25,972.971,111.321,144.564,-0.552272,0.00661788,-2.70814,
2026_07_06_21_45_01.329,3.866,34.1,0,0.763,0,0,0,0, ,0,0,0,0,0, ,977.5,116.2,146.9,-0.5,0,-3.3,25,972.909,111.557,144.67,-0.542993,-0.0120666,-2.71983,
2026_07_06_21_45_01.357,3.866,34.1,0,0.762,0,0,0,0, ,0,0,0,0,0, ,980.1,119,146.9,-0.3,0.3,-2.1,25,973.268,111.925,144.806,-0.534279,-0.00219071,-2.71863,
2026_07_06_21_45_01.375,3.866,34,0,0.762,0,0,0,0, ,0,0,0,0,0, ,974.3,119.2,149.7,0,0.8,-1.5,25,973.507,112.362,145.019,-0.510862,0.0314584,-2.66265,
2026_07_06_21_45_01.404,3.866,34,0,0.761,0,0,0,0, ,0,0,0,0,0, ,970.4,116,152.4,-0.3,-0.7,-1.7,25,973.437,112.682,145.386,-0.488872,0.0325883,-2.59789,
2026_07_06_21_45_01.409,3.866,34,0,0.763,0,0,0,0, ,0,0,0,0,0, ,973.5,116.5,154,-0.5,-0.1,-1.4,25,973.346,112.899,145.862,-0.483457,0.00622744,-2.53404,
2026_07_06_21_45_01.436,3.866,34,0,0.763,0,0,0,0, ,0,0,0,0,0, ,970.9,118.6,146.7,-0.7,0.3,-1.4,25,973.276,113.182,146.136,-0.490558,0.0119417,-2.46493,
2026_07_06_21_45_01.448,3.866,34,0,0.762,0,0,0,0, ,0,0,0,0,0, ,969.6,118.1,149,-0.8,-1.5,-1.3,25,973.092,113.497,146.24,-0.506368,-0.0253485,-2.39699,
2026_07_06_21_45_01.477,3.866,34,0,0.762,0,0,0,0, ,0,0,0,0,0, ,962,115.2,137.6,-1.3,-1,1.6,25,972.648,113.689,146.061,-0.539496,-0.0999757,-2.24178,
2026_07_06_21_45_01.488,3.866,34,0,0.762,0,0,0,0, ,0,0,0,0,0, ,978.5,120.1,140,0,-1.6,-4,25,972.502,113.931,145.619,-0.54623,-0.173102,-2.1783,
2026_07_06_21_45_01.516,3.866,34,0,0.762,0,0,0,0, ,0,0,0,0,0, ,984.6,117.3,147.7,0.3,1,-1.1,25,973.053,114.221,145.511,-0.503803,-0.180835,-2.20095,
2026_07_06_21_45_01.528,3.866,34,0,0.761,0,0,0,0, ,0,0,0,0,0, ,980.4,119.8,154,-0.2,1.5,-2.1,25,973.629,114.485,145.836,-0.470056,-0.0936435,-2.16433,
2026_07_06_21_45_01.557,3.866,34,0,0.762,0,0,0,0, ,0,0,0,0,0, ,973.3,117.7,148.6,-0.5,1.2,-1.7,25,973.825,114.745,146.169,-0.46274,-0.00567147,-2.14822,
2026_07_06_21_45_01.568,3.866,34.2,0,0.763,0,0,0,0, ,0,0,0,0,0, ,964.1,114.5,150.5,-0.4,0.2,-1.9,25,973.513,114.828,146.375,-0.461963,0.0373304,-2.127,
2026_07_06_21_45_01.595,3.866,34,0,0.762,0,0,0,0, ,0,0,0,0,0, ,971.1,114.7,156.3,-0.3,-0.2,-2.2,25,973.152,114.814,146.803,-0.455141,0.0350556,-2.12231,
2026_07_06_21_45_01.607,3.866,34,0,0.763,0,0,0,0, ,0,0,0,0,0, ,974.4,116.5,153.4,-0.7,-1.2,-1.8,25,973.128,114.862,147.294,-0.457874,-0.00973689,-2.11486,
2026_07_06_21_45_01.635,3.866,34,0,0.762,0,0,0,0, ,0,0,0,0,0, ,976.5,118.6,150.2,-0.7,-1.4,-1.4,25,973.269,115.026,147.568,-0.472629,-0.0883623,-2.08348,
2026_07_06_21_45_01.646,3.866,34,0,0.762,0,0,0,0, ,0,0,0,0,0, ,971.1,115.9,149.4,-0.8,-0.8,-1.2,25,973.302,115.161,147.704,-0.489531,-0.150009,-2.03574,
2026_07_06_21_45_01.674,3.866,34.1,0,0.762,0,0,0,0, ,0,0,0,0,0, ,972.6,117.9,146.2,-0.6,-0.5,-1.5,25,973.213,115.267,147.71,-0.502357,-0.180477,-1.99395,
2026_07_06_21_45_01.686,3.866,34,0,0.762,0,0,0,0, ,0,0,0,0,0, ,974.6,118,144.7,-0.6,-0.3,-2,25,973.237,115.431,147.572,-0.508307,-0.193854,-1.97909,
2026_07_06_21_45_01.716,3.866,34,0,0.762,0,0,0,0, ,0,0,0,0,0, ,976.6,118.2,143.9,-0.2,-0.3,-1.8,25,973.381,115.593,147.373,-0.501707,-0.200323,-1.97427,
2026_07_06_21_45_01.726,3.866,34.1,0,0.762,0,0,0,0, ,0,0,0,0,0, ,972,116,148.4,-0.2,0.6,-2.1,25,973.437,115.685,147.298,-0.483322,-0.178975,-1.97279,
2026_07_06_21_45_01.754,3.866,34,0,0.762,0,0,0,0, ,0,0,0,0,0, ,971.1,117.7,153.3,0,0.7,-2.4,25,973.322,115.756,147.515,-0.459963,-0.128459,-1.98968,
2026_07_06_21_45_01.765,3.866,34,0,0.762,0,0,0,0, ,0,0,0,0,0, ,971.5,117.4,153.8,-0.7,-0.5,-2.1,25,973.199,115.865,147.883,-0.453262,-0.114537,-2.00554,
2026_07_06_21_45_01.795,3.866,34.1,0,0.762,0,0,0,0, ,0,0,0,0,0, ,970,115.7,153,-0.7,-1.2,-1.9,25,973.049,115.907,148.219,-0.468298,-0.159355,-2.00521,
2026_07_06_21_45_01.805,3.866,34,0,0.762,0,0,0,0, ,0,0,0,0,0, ,971.9,120.2,156,-0.5,-0.3,-2,25,972.921,116.032,148.602,-0.476323,-0.195347,-2.00184,
2026_07_06_21_45_01.834,3.866,34.1,0,0.763,0,0,0,0, ,0,0,0,0,0, ,974.1,119.1,154.1,-0.8,-1.5,-2.1,25,972.926,116.252,148.995,-0.486907,-0.238287,-2.00478,
2026_07_06_21_45_01.851,3.866,34,0,0.762,0,0,0,0, ,0,0,0,0,0, ,970.9,117.1,150.2,-1.1,-1.6,-1.8,25,972.9,116.365,149.187,-0.515126,-0.318219,-2.00144,
2026_07_06_21_45_01.882,3.866,34.1,0,0.762,0,0,0,0, ,0,0,0,0,0, ,973.1,115.9,146.8,-1,-1.2,-2.2,25,972.845,116.373,149.145,-0.54772,-0.38414,-2.00135,
2026_07_06_21_45_01.886,3.866,34.1,0,0.762,0,0,0,0, ,0,0,0,0,0, ,973.7,116,145.2,-0.8,-1.4,-1.9,25,972.879,116.347,148.953,-0.569187,-0.439951,-2.00432,
2026_07_06_21_45_01.915,3.866,34.1,0,0.763,0,0,0,0, ,0,0,0,0,0, ,972.9,116.4,144,-0.7,-0.1,-2.1,25,972.905,116.338,148.688,-0.580206,-0.458844,-2.00405,
2026_07_06_21_45_01.924,3.866,34.1,0,0.762,0,0,0,0, ,0,0,0,0,0, ,972.2,119.9,143.5,-0.2,-0.3,-2.3,25,972.883,116.449,148.387,-0.572271,-0.443071,-2.01599,
2026_07_06_21_45_01.953,3.866,34,0,0.762,0,0,0,0, ,0,0,0,0,0, ,976,121.9,154.6,-0.2,0.9,-2.7,25,972.957,116.72,148.428,-0.549586,-0.39779,-2.04549,
2026_07_06_21_45_01.963,3.866,34.1,0,0.762,0,0,0,0, ,0,0,0,0,0, ,974.8,117.9,149.2,-0.7,-0.3,-1.9,25,973.106,116.914,148.639,-0.543517,-0.355268,-2.061,
2026_07_06_21_45_01.991,3.866,34,0,0.762,0,0,0,0, ,0,0,0,0,0, ,971.3,118.2,151.6,-0.8,-0.8,-1.9,25,973.103,116.983,148.746,-0.5561,-0.367135,-2.05119,
2026_07_06_21_45_02.002,3.866,34,0,0.762,0,0,0,0, ,0,0,0,0,0, ,973,119.9,155.1,-1,-0.9,-1.9,25,973.045,117.109,149.027,-0.577056,-0.39656,-2.04197,
2026_07_06_21_45_02.032,3.866,34,0,0.763,0,0,0,0, ,0,0,0,0,0, ,979.2,120.6,149.1,-1.3,-1.2,-1.5,25,973.231,117.3,149.214,-0.61197,-0.436379,-2.02113,
2026_07_06_21_45_02.042,3.866,34,0,0.763,0,0,0,0, ,0,0,0,0,0, ,974.4,117.7,145.3,-1.1,-0.8,-1.2,25,973.448,117.413,149.091,-0.647803,-0.470724,-1.98024,
2026_07_06_21_45_02.071,3.866,34.1,0,0.761,0,0,0,0, ,0,0,0,0,0, ,971.4,117.3,147.9,-0.4,-0.5,-1.3,25,973.415,117.418,148.94,-0.654031,-0.481649,-1.93574,
2026_07_06_21_45_02.082,3.866,34,0,0.762,0,0,0,0, ,0,0,0,0,0, ,965.4,119.1,151.7,-0.6,-0.7,-2,25,973.109,117.466,148.992,-0.644645,-0.488861,-1.91833,
2026_07_06_21_45_02.111,3.866,34.1,0,0.761,0,0,0,0, ,0,0,0,0,0, ,975.8,120.6,153,-0.8,-1.6,-2.5,25,972.956,117.611,149.197,-0.648018,-0.529149,-1.93854,
2026_07_06_21_45_02.122,3.866,34.1,0,0.764,0,0,0,0, ,0,0,0,0,0, ,980.7,121.4,148,-0.9,-0.6,-1.8,25,973.279,117.818,149.276,-0.660326,-0.563935,-1.95142,
2026_07_06_21_45_02.150,3.866,34,0,0.762,0,0,0,0, ,0,0,0,0,0, ,973.2,115.8,145.1,-0.5,0,-1.3,25,973.503,117.865,149.11,-0.662744,-0.547852,-1.92696,
2026_07_06_21_45_02.161,3.866,34,0,0.763,0,0,0,0, ,0,0,0,0,0, ,967,115.3,142.3,-0.5,0,-2,25,973.295,117.724,148.78,-0.652826,-0.514467,-1.91008,
2026_07_06_21_45_02.191,3.866,34,0,0.761,0,0,0,0, ,0,0,0,0,0, ,971.3,118.8,149.5,-0.4,-1,-1.9,25,973.043,117.683,148.605,-0.640467,-0.513585,-1.91252,
2026_07_06_21_45_02.201,3.866,34.1,0,0.763,0,0,0,0, ,0,0,0,0,0, ,963.8,137.8,150.3,-1,-0.4,-0.8,25,972.708,118.33,148.684,-0.644095,-0.524945,-1.87824,
2026_07_06_21_45_02.230,3.866,34,0,0.763,0,0,0,0, ,0,0,0,0,0, ,981.6,116.8,150.3,-0.5,-1.4,-2.2,25,972.708,118.877,148.782,-0.650548,-0.5478,-1.85519,
2026_07_06_21_45_02.240,3.866,34,0,0.763,0,0,0,0, ,0,0,0,0,0, ,976.4,122.4,151.1,-0.6,-0.5,-0.7,25,973.091,118.921,148.899,-0.644421,-0.572309,-1.8305,
2026_07_06_21_45_02.272,3.866,34,0,0.762,0,0,0,0, ,0,0,0,0,0, ,973.3,117.7,144.8,-0.9,0,-1.7,25,973.198,118.99,148.841,-0.650855,-0.552668,-1.79208,
2026_07_06_21_45_02.280,3.866,34.1,0,0.761,0,0,0,0, ,0,0,0,0,0, ,974.2,118.1,139.5,-0.8,0.1,-1.4,25,973.232,118.923,148.434,-0.66299,-0.515943,-1.77733,
2026_07_06_21_45_02.309,3.866,34.2,0,0.762,0,0,0,0, ,0,0,0,0,0, ,966.3,118.6,143.3,-0.7,0,-0.8,25,973.05,118.888,148.005,-0.668292,-0.481456,-1.73605,
2026_07_06_21_45_02.320,3.866,34.1,0,0.763,0,0,0,0, ,0,0,0,0,0, ,972.9,116.4,152.4,-0.3,-0.3,-2,25,972.84,118.804,147.995,-0.658037,-0.461258,-1.71557,
2026_07_06_21_45_02.355,3.866,34.1,0,0.763,0,0,0,0, ,0,0,0,0,0, ,984.3,117.9,148.6,-0.3,0.3,-1.1,25,973.191,118.703,148.148,-0.636219,-0.43315,-1.70548,
2026_07_06_21_45_02.360,3.866,34.1,0,0.764,0,0,0,0, ,0,0,0,0,0, ,968.8,119.3,150.7,0.1,0.4,-0.8,25,973.396,118.697,148.24,-0.603543,-0.385427,-1.65945,
2026_07_06_21_45_02.389,3.866,34,0,0.761,0,0,0,0, ,0,0,0,0,0, ,964.4,117.3,162.2,-0.3,-1,-0.8,25,972.981,118.672,148.74,-0.572859,-0.380221,-1.60707,
2026_07_06_21_45_02.398,3.866,34,0,0.762,0,0,0,0, ,0,0,0,0,0, ,973.3,118.2,156.3,-1.3,-2.5,-1.2,25,972.73,118.616,149.38,-0.5867,-0.463692,-1.57008,
2026_07_06_21_45_02.430,3.866,34,0,0.762,0,0,0,0, ,0,0,0,0,0, ,985.8,118.8,147,-1.3,-2.1,-1.4,25,973.145,118.609,149.519,-0.630167,-0.575592,-1.55362,
2026_07_06_21_45_02.438,3.866,34.2,0,0.763,0,0,0,0, ,0,0,0,0,0, ,984.6,114.9,143.7,-0.9,-0.7,-1.1,25,973.88,118.502,149.265,-0.658797,-0.625829,-1.53512,
2026_07_06_21_45_02.470,3.866,34.1,0,0.763,0,0,0,0, ,0,0,0,0,0, ,974.4,114.6,132.4,-0.4,0.5,-1.4,25,974.222,118.273,148.581,-0.658261,-0.593787,-1.51775,
2026_07_06_21_45_02.478,3.866,34,0,0.764,0,0,0,0, ,0,0,0,0,0, ,961.7,117,150.1,-0.7,-0.9,-1.4,25,973.846,118.123,148.135,-0.651664,-0.56979,-1.51057,
2026_07_06_21_45_02.508,3.866,34.1,0,0.762,0,0,0,0, ,0,0,0,0,0, ,968.3,114,149.9,-0.8,-1.1,-2.1,25,973.307,117.963,148.248,-0.657656,-0.596006,-1.52516,
2026_07_06_21_45_02.517,3.866,34,0,0.762,0,0,0,0, ,0,0,0,0,0, ,988.7,115.7,148.4,-0.8,-0.5,-1.9,25,973.624,117.773,148.303,-0.66633,-0.608437,-1.5541,
2026_07_06_21_45_02.546,3.866,34.1,0,0.762,0,0,0,0, ,0,0,0,0,0, ,974.8,114.9,144.6,-0.7,0.1,-1,25,974.119,117.622,148.193,-0.671429,-0.583548,-1.54775,
2026_07_06_21_45_02.558,3.866,34.1,0,0.762,0,0,0,0, ,0,0,0,0,0, ,965.4,114.5,154.1,-0.8,-0.1,-1.5,25,973.874,117.444,148.264,-0.676217,-0.547988,-1.52961,
2026_07_06_21_45_02.587,3.866,34.1,0,0.762,0,0,0,0, ,0,0,0,0,0, ,969.2,113.7,148.6,-0.8,-0.5,-2.1,25,973.473,117.241,148.452,-0.68376,-0.532876,-1.54609,
2026_07_06_21_45_02.596,3.866,34.1,0,0.764,0,0,0,0, ,0,0,0,0,0, ,976.5,118.6,150.2,-0.1,-0.2,-1.7,25,973.435,117.174,148.51,-0.669515,-0.521732,-1.56765,
2026_07_06_21_45_02.626,3.866,34.1,0,0.762,0,0,0,0, ,0,0,0,0,0, ,975.8,116.6,148,-0.5,-0.2,-1.5,25,973.601,117.2,148.546,-0.646998,-0.502127,-1.56962,
2026_07_06_21_45_02.636,3.866,33.8,0,0.762,0,0,0,0, ,0,0,0,0,0, ,974.4,116.8,146.8,-0.2,-0.1,-1.1,25,973.692,117.17,148.476,-0.6289,-0.480669,-1.55319,
2026_07_06_21_45_02.666,3.866,34,0,0.762,0,0,0,0, ,0,0,0,0,0, ,969.1,115.7,152.9,-0.3,0.1,-1.5,25,973.574,117.114,148.56,-0.60581,-0.451378,-1.53776,
2026_07_06_21_45_02.676,3.866,34,0,0.763,0,0,0,0, ,0,0,0,0,0, ,972.6,118,157.9,-0.7,-0.8,-2,25,973.408,117.097,148.976,-0.599363,-0.4452,-1.5507,
2026_07_06_21_45_02.706,3.866,34.2,0,0.763,0,0,0,0, ,0,0,0,0,0, ,972.6,120.6,155.1,-1.3,-1.2,-1.9,25,973.359,117.232,149.435,-0.623776,-0.479009,-1.57503,
2026_07_06_21_45_02.715,3.866,34,0,0.763,0,0,0,0, ,0,0,0,0,0, ,970.8,116.8,152.2,-1,-2.1,-2.1,25,973.258,117.321,149.692,-0.655843,-0.550366,-1.60093,
2026_07_06_21_45_02.746,3.866,34.1,0,0.764,0,0,0,0, ,0,0,0,0,0, ,970.2,116.9,147.7,-0.9,-2.2,-2.3,25,973.089,117.292,149.707,-0.673768,-0.647844,-1.63743,
2026_07_06_21_45_02.755,3.866,34,0,0.761,0,0,0,0, ,0,0,0,0,0, ,976,115.8,141.1,-0.9,-2.9,-2.6,25,973.09,117.235,149.384,-0.687554,-0.763756,-1.68695,
2026_07_06_21_45_02.785,3.866,34,0,0.762,0,0,0,0, ,0,0,0,0,0, ,977,118.5,148,-1.1,-1.8,-2.6,25,973.298,117.23,149.089,-0.706594,-0.860418,-1.74259,
2026_07_06_21_45_02.794,3.866,34.2,0,0.763,0,0,0,0, ,0,0,0,0,0, ,979.1,118.1,136.8,-1.4,-0.9,-2.2,25,973.587,117.295,148.682,-0.739708,-0.890252,-1.78265,
2026_07_06_21_45_02.825,3.866,34.1,0,0.763,0,0,0,0, ,0,0,0,0,0, ,974.7,117,144.4,-1.6,-0.3,-1.9,25,973.789,117.311,148.189,-0.786038,-0.872565,-1.79894,
2026_07_06_21_45_02.834,3.866,34.1,0,0.763,0,0,0,0, ,0,0,0,0,0, ,978.2,114.1,145.2,-0.6,0,-2.7,25,973.951,117.203,147.983,-0.80517,-0.828533,-1.82947,
2026_07_06_21_45_02.865,3.866,34.1,0,0.763,0,0,0,0, ,0,0,0,0,0, ,964.4,119.1,151.2,-0.6,-0.9,-2.6,25,973.79,117.167,147.996,-0.792668,-0.805466,-1.87947,
2026_07_06_21_45_02.879,3.866,34,0,0.761,0,0,0,0, ,0,0,0,0,0, ,977.5,120.1,160.2,-1.7,-1.6,-2.6,25,973.617,117.315,148.465,-0.814443,-0.832555,-1.92338,
2026_07_06_21_45_02.912,3.866,34.2,0,0.762,0,0,0,0, ,0,0,0,0,0, ,976.1,118.6,142.4,-1.3,-2,-1.8,25,973.811,117.439,148.638,-0.856219,-0.891509,-1.94024,
2026_07_06_21_45_02.918,3.866,34,0,0.763,0,0,0,0, ,0,0,0,0,0, ,977.1,115.2,138.7,-1.2,-1.2,-1.1,25,973.981,117.406,148.145,-0.880215,-0.934683,-1.91036,
2026_07_06_21_45_02.948,3.866,34.1,0,0.762,0,0,0,0, ,0,0,0,0,0, ,972.6,116,141.1,-0.2,-0.2,-1.4,25,974.034,117.296,147.643,-0.869233,-0.920382,-1.87012,
2026_07_06_21_45_02.953,3.866,34.1,0,0.762,0,0,0,0, ,0,0,0,0,0, ,977.6,118.5,146.3,0,0.4,-1.7,25,974.099,117.293,147.403,-0.822358,-0.858202,-1.85062,
2026_07_06_21_45_02.986,3.866,34,0,0.763,0,0,0,0, ,0,0,0,0,0, ,976.1,118.1,138.4,0,0.6,-1.4,25,974.266,117.355,147.095,-0.772245,-0.775437,-1.8323,
2026_07_06_21_45_02.992,3.866,34,0,0.762,0,0,0,0, ,0,0,0,0,0, ,971.8,118.5,148.8,0.3,0.7,-1.1,25,974.247,117.412,146.882,-0.716046,-0.688574,-1.79681,
2026_07_06_21_45_03.024,3.866,34,0,0.763,0,0,0,0, ,0,0,0,0,0, ,970,117.9,153.3,0.1,-0.4,-1.5,25,974.043,117.46,147.136,-0.660224,-0.637474,-1.76654,
2026_07_06_21_45_03.032,3.866,34.1,0,0.762,0,0,0,0, ,0,0,0,0,0, ,970.4,119.3,153,-0.6,-1,-1.6,25,973.809,117.53,147.502,-0.635226,-0.641284,-1.75334,
2026_07_06_21_45_03.063,3.866,34.1,0,0.762,0,0,0,0, ,0,0,0,0,0, ,976.3,120.1,151.7,-1,-0.9,-2.3,25,973.781,117.662,147.798,-0.645267,-0.660096,-1.76533,
2026_07_06_21_45_03.071,3.866,34.1,0,0.762,0,0,0,0, ,0,0,0,0,0, ,981.4,119,139.7,-0.7,-0.1,-1.5,25,974.09,117.777,147.67,-0.657743,-0.65034,-1.77353,
2026_07_06_21_45_03.102,3.866,34.1,0,0.763,0,0,0,0, ,0,0,0,0,0, ,970.3,115.3,148,-0.1,1.2,-1.7,25,974.197,117.739,147.437,-0.642037,-0.577195,-1.76296,
2026_07_06_21_45_03.111,3.866,34.1,0,0.762,0,0,0,0, ,0,0,0,0,0, ,965.4,118,153.8,-0.3,0.2,-1.8,25,973.81,117.672,147.648,-0.6151,-0.499365,-1.76217,
2026_07_06_21_45_03.141,3.866,34.1,0,0.763,0,0,0,0, ,0,0,0,0,0, ,969.9,120.6,152.7,-0.4,-0.6,-2.4,25,973.435,117.772,147.989,-0.598946,-0.481123,-1.78276,
