UTC_Time,Vin,TC1,TC2,Rh1,Vh1,Ah1,Acp1,Dty1,Err1,Rh2,Vh2,Ah2,Acp2,Dty2,Err2,Accel_x,Accel_y,Accel_z,gyro_x,gyro_y,gyro_z,Temp_c,Accel_x_h,Accel_y_h,Accel_z_h,gyro_x_h,gyro_y_h,gyro_z_h,
2026_06_09_01_26_45.739,3.86,28.3,0,0.758,3.819,5.038,18.27,0.95, ,0,0,0,0,0, ,-98.2,327.5,941.5,-0.4,-0.5,-1.7,25,-3.54391,11.8191,33.9775,-0.0144355,-0.0180444,-0.0613508,
2026_06_09_01_26_45.759,3.853,28.3,0,0.762,3.872,5.081,18.69,0.95, ,0,0,0,0,0, ,-99.6,328.8,940.7,-0.5,-0.5,-1.8,25,-3.44561,11.4086,32.6863,-0.0163474,-0.0173691,-0.061507,
2026_06_09_01_26_45.779,3.853,28.3,0,0.763,0,0,0,0.013, ,0,0,0,0,0, ,-99.8,329.9,940.7,-0.5,-0.5,-1.7,25,-3.37439,11.0209,31.2778,-0.0205372,-0.0166413,-0.0613523,
2026_06_09_01_26_45.798,3.853,28.5,0,0.76,0,0,0,0.014, ,0,0,0,0,0, ,-98.5,329.7,940.4,-0.4,-0.5,-1.7,25,-3.26306,10.62,29.7768,-0.0219681,-0.0158672,-0.0584508,
2026_06_09_01_26_45.818,3.853,28.6,0,0.759,0,0,0,0.012, ,0,0,0,0,0, ,-98.5,328.6,941.6,-0.4,-0.4,-1.7,25,-3.10923,10.1545,28.2247,-0.0207684,-0.0126007,-0.0554035,
2026_06_09_01_26_45.838,3.853,28.7,0,0.76,0,0,0,0.011, ,0,0,0,0,0, ,-98.6,328.3,939.8,-0.4,-0.5,-1.7,25,-2.95007,9.62753,26.5949,-0.0195252,-0.00943232,-0.0522326,
2026_06_09_01_26_45.857,3.853,28.8,0,0.76,0,0,0,0.011, ,0,0,0,0,0, ,-98,329.4,939.4,-0.3,-0.5,-1.7,25,-2.77191,9.09854,24.8601,-0.0157945,-0.00882499,-0.0489598,
2026_06_09_01_26_45.876,3.853,28.8,0,0.76,0,0,0,0.01, ,0,0,0,0,0, ,-97.5,328.2,940.3,-0.5,-0.5,-1.7,25,-2.56186,8.54819,23.1001,-0.0146212,-0.00820396,-0.0456062,
2026_06_09_01_26_45.903,3.853,28.9,0,0.76,0,0,0,0.01, ,0,0,0,0,0, ,-98.8,330,941.5,-0.5,-0.5,-1.7,25,-2.36911,7.99742,21.364,-0.0183376,-0.00757295,-0.0421923,
2026_06_09_01_26_45.917,3.853,29.1,0,0.759,0,0,0,0.009, ,0,0,0,0,0, ,-98.7,328.6,940.3,-0.5,-0.5,-1.7,25,-2.20355,7.44405,19.6079,-0.0217815,-0.00693557,-0.0387379,
2026_06_09_01_26_45.937,3.853,29.1,0,0.76,0,0,0,0.008, ,0,0,0,0,0, ,-98.1,329.8,941.6,-0.5,-0.5,-1.7,25,-2.01809,6.87624,17.8436,-0.024949,-0.00629527,-0.035262,
2026_06_09_01_26_45.957,3.853,29.2,0,0.759,0,0,0,0.008, ,0,0,0,0,0, ,-98.6,328.4,941,-0.4,-0.5,-1.6,25,-1.82933,6.29748,16.0951,-0.0253862,-0.00565534,-0.0293306,
2026_06_09_01_26_45.976,3.853,29.1,0,0.76,0,0,0,0.007, ,0,0,0,0,0, ,-98.2,330.9,939.5,-0.4,-0.5,-1.7,25,-1.64327,5.74304,14.3016,-0.0232246,-0.00501893,-0.0235456,
2026_06_09_01_26_45.996,3.853,29.1,0,0.758,0,0,0,0.008, ,0,0,0,0,0, ,-99.7,327.8,940.9,-0.5,-0.5,-1.8,25,-1.4852,5.17277,12.523,-0.0235067,-0.00438899,-0.0228326,
2026_06_09_01_26_46.016,3.853,29.1,0,0.759,0,0,0,0.008, ,0,0,0,0,0, ,-98.3,327.8,939.3,-0.5,-0.5,-1.7,25,-1.33002,4.52897,10.7651,-0.0261113,-0.00376832,-0.022042,
2026_06_09_01_26_46.036,3.853,29.2,0,0.76,0,0,0,0.008, ,0,0,0,0,0, ,-98.5,329.4,940.3,-0.4,-0.5,-1.7,25,-1.14646,3.93365,9.02561,-0.0260073,-0.00315952,-0.0187294,
2026_06_09_01_26_46.060,3.853,29.1,0,0.759,0,0,0,0.008, ,0,0,0,0,0, ,-98.5,328.4,941.1,-0.4,-0.5,-1.7,25,-0.971169,3.36285,7.3711,-0.0233281,-0.002565,-0.015487,
2026_06_09_01_26_46.075,3.853,29.2,0,0.759,0,0,0,0.009, ,0,0,0,0,0, ,-98.3,328.7,940.3,-0.5,-0.4,-1.7,25,-0.79478,2.78632,5.7614,-0.0231175,0.000465158,-0.0123273,
2026_06_09_01_26_46.096,3.853,29.3,0,0.76,0,0,0,0.008, ,0,0,0,0,0, ,-98,328.8,942.1,-0.5,-0.4,-1.7,25,-0.610864,2.23413,4.22678,-0.0252554,0.00579658,-0.00926173,
2026_06_09_01_26_46.115,3.853,29.3,0,0.759,0,0,0,0.007, ,0,0,0,0,0, ,-98.5,328.8,942.6,-0.5,-0.6,-1.7,25,-0.437862,1.70047,2.80299,-0.027164,0.00593364,-0.00630089,
2026_06_09_01_26_46.134,3.853,29.3,0,0.76,0,0,0,0.007, ,0,0,0,0,0, ,-98.3,328.9,941.6,-0.5,-0.5,-1.8,25,-0.278543,1.18705,1.42295,-0.0288452,0.00358258,-0.00590638,
2026_06_09_01_26_46.154,3.853,29.3,0,0.76,0,0,0,0.007, ,0,0,0,0,0, ,-98.3,327.7,940.9,-0.4,-0.5,-1.7,25,-0.12076,0.665983,0.061889,-0.0278495,0.00378132,-0.0055021,
2026_06_09_01_26_46.175,3.853,29.4,0,0.759,0,0,0,0.007, ,0,0,0,0,0, ,-99.6,327.8,938.9,-0.4,-0.5,-1.7,25,-0.00199832,0.140218,-1.29893,-0.0243133,0.00395168,-0.00263838,
2026_06_09_01_26_46.195,3.853,29.5,0,0.758,0,0,0,0.007, ,0,0,0,0,0, ,-97.7,328.9,939.6,-0.5,-0.5,-1.8,25,0.125662,-0.331027,-2.61849,-0.0232829,0.00409422,-0.00235426,
2026_06_09_01_26_46.214,3.853,29.4,0,0.761,0,0,0,0.006, ,0,0,0,0,0, ,-98.5,329.3,941.6,-0.5,-0.5,-1.7,25,0.273416,-0.740747,-3.79422,-0.0246404,0.00420958,-0.00207247,
2026_06_09_01_26_46.234,3.853,29.5,0,0.759,0,0,0,0.007, ,0,0,0,0,0, ,-98.7,328,940.9,-0.5,-0.5,-1.7,25,0.388054,-1.14879,-4.86171,-0.0258099,0.00429854,0.000657877,
2026_06_09_01_26_46.254,3.853,29.4,0,0.759,0,0,0,0.006, ,0,0,0,0,0, ,-98.3,329.5,942.1,-0.5,-0.5,-1.7,25,0.500062,-1.52626,-5.84062,-0.0267948,0.00436196,0.00325107,
2026_06_09_01_26_46.274,3.853,29.5,0,0.759,0,0,0,0.007, ,0,0,0,0,0, ,-98.8,329.3,940.4,-0.5,-0.5,-1.7,25,0.60166,-1.84581,-6.75501,-0.0275994,0.00440076,0.00570107,
2026_06_09_01_26_46.294,3.853,29.4,0,0.76,0,0,0,0.006, ,0,0,0,0,0, ,-98.7,329.7,940.3,-0.5,-0.5,-1.7,25,0.685501,-2.13569,-7.6354,-0.0282285,0.00441598,0.00800281,
2026_06_09_01_26_46.313,3.853,29.5,0,0.76,0,0,0,0.007, ,0,0,0,0,0, ,-98.5,329.4,939.2,-0.5,-0.5,-1.7,25,0.769209,-2.39838,-8.4644,-0.0286877,0.00440868,0.0101522,
2026_06_09_01_26_46.333,3.853,29.4,0,0.758,0,0,0,0.006, ,0,0,0,0,0, ,-98.7,329.3,939.6,-0.5,-0.5,-1.7,25,0.845021,-2.64617,-9.2282,-0.0289829,0.00438002,0.0121462,
2026_06_09_01_26_46.358,3.853,29.5,0,0.76,0,0,0,0.007, ,0,0,0,0,0, ,-98,329.1,939.2,-0.4,-0.5,-1.7,25,0.925211,-2.87613,-9.90906,-0.0266687,0.00433118,0.0139825,
2026_06_09_01_26_46.372,3.853,29.5,0,0.762,0,0,0,0.006, ,0,0,0,0,0, ,-99.6,328.6,940.1,-0.4,-0.5,-1.7,25,0.974839,-3.0978,-10.4954,-0.0218843,0.00426338,0.0156599,
2026_06_09_01_26_46.392,3.853,29.5,0,0.76,0,0,0,0.006, ,0,0,0,0,0, ,-98.5,328.4,940.9,-0.5,-0.6,-1.7,25,1.00497,-3.31049,-10.9596,-0.019679,0.00172574,0.0171778,
2026_06_09_01_26_46.412,3.853,29.6,0,0.759,0,0,0,0.006, ,0,0,0,0,0, ,-98.1,329.4,941,-0.4,-0.5,-1.6,25,1.06545,-3.47683,-11.325,-0.0174847,-0.000695952,0.0209888,
2026_06_09_01_26_46.432,3.853,29.6,0,0.76,0,0,0,0.006, ,0,0,0,0,0, ,-98.5,328.8,940.5,-0.5,-0.5,-1.7,25,1.11771,-3.60806,-11.6264,-0.015312,-0.000543286,0.0245094,
2026_06_09_01_26_46.452,3.853,29.5,0,0.761,0,0,0,0.006, ,0,0,0,0,0, ,-98.8,328.4,941.2,-0.4,-0.5,-1.6,25,1.14474,-3.73959,-11.8509,-0.0131703,-0.000395429,0.0277366,
2026_06_09_01_26_46.472,3.853,29.5,0,0.76,0,0,0,0.006, ,0,0,0,0,0, ,-99.3,328.6,940.4,-0.5,-0.6,-1.7,25,1.14518,-3.85115,-12.0084,-0.0110688,-0.00270504,0.0306688,
2026_06_09_01_26_46.491,3.853,29.6,0,0.759,0,0,0,0.007, ,0,0,0,0,0, ,-98.1,329.8,941.1,-0.5,-0.5,-1.7,25,1.15713,-3.90393,-12.1014,-0.0114679,-0.00488804,0.0308539,
2026_06_09_01_26_46.512,3.853,29.5,0,0.757,0,0,0,0.006, ,0,0,0,0,0, ,-98.6,328.6,942,-0.6,-0.5,-1.7,25,1.17994,-3.93488,-12.091,-0.0142431,-0.00448774,0.0308778,
2026_06_09_01_26_46.531,3.853,29.6,0,0.761,0,0,0,0.007, ,0,0,0,0,0, ,-98.7,329.2,938.8,-0.5,-0.4,-1.7,25,1.18112,-3.95963,-12.0779,-0.016812,-0.00163278,0.0307485,
2026_06_09_01_26_46.551,3.853,29.6,0,0.76,0,0,0,0.006, ,0,0,0,0,0, ,-99.1,329.3,940.7,-0.4,-0.5,-1.7,25,1.16415,-3.94649,-12.0379,-0.0142677,0.0010902,0.0304739,
2026_06_09_01_26_46.571,3.853,29.6,0,0.758,0,0,0,0.006, ,0,0,0,0,0, ,-99.1,328.4,939.6,-0.4,-0.4,-1.7,25,1.13247,-3.93416,-11.9208,-0.00932579,0.00367427,0.0300626,
2026_06_09_01_26_46.591,3.853,29.6,0,0.761,0,0,0,0.006, ,0,0,0,0,0, ,-98.8,328.9,939.3,-0.4,-0.5,-1.7,25,1.10412,-3.91286,-11.7851,-0.00458024,0.00611349,0.0295233,
2026_06_09_01_26_46.611,3.853,29.7,0,0.759,0,0,0,0.006, ,0,0,0,0,0, ,-98.9,328.1,940.4,-0.5,-0.5,-1.7,25,1.07662,-3.88067,-11.5783,-0.00249702,0.00595081,0.028865,
2026_06_09_01_26_46.630,3.853,29.7,0,0.759,0,0,0,0.005, ,0,0,0,0,0, ,-98.7,328.8,941,-0.4,-0.4,-1.7,25,1.04762,-3.83339,-11.2829,-0.000503662,0.00821893,0.0280967,
2026_06_09_01_26_46.650,3.853,29.6,0,0.758,0,0,0,0.005, ,0,0,0,0,0, ,-97.9,328.4,941.6,-0.5,-0.5,-1.7,25,1.03939,-3.76218,-10.917,0.00139442,0.0103353,0.0272276,
2026_06_09_01_26_46.670,3.853,29.6,0,0.759,0,0,0,0.006, ,0,0,0,0,0, ,-99.1,328.1,941.7,-0.5,-0.4,-1.7,25,1.01664,-3.69309,-10.498,0.00074038,0.012297,0.026267,
2026_06_09_01_26_46.690,3.853,29.7,0,0.76,0,0,0,0.006, ,0,0,0,0,0, ,-99.4,329.9,941.4,-0.5,-0.5,-1.7,25,0.953215,-3.5724,-10.0528,0.000114769,0.0141018,0.025224,
2026_06_09_01_26_46.710,3.853,29.7,0,0.759,0,0,0,0.005, ,0,0,0,0,0, ,-99.2,328.2,939.5,-0.5,-0.6,-1.8,25,0.885749,-3.43757,-9.63378,-0.000480727,0.0108443,0.0216557,
2026_06_09_01_26_46.729,3.853,29.7,0,0.759,0,0,0,0.005, ,0,0,0,0,0, ,-99.3,330.5,940.7,-0.4,-0.5,-1.7,25,0.819678,-3.2777,-9.20502,0.00140751,0.00769313,0.0181556,
2026_06_09_01_26_46.750,3.853,29.7,0,0.76,0,0,0,0.005, ,0,0,0,0,0, ,-101.1,328.2,939.6,-0.4,-0.5,-1.6,25,0.706217,-3.10952,-8.74947,0.00564837,0.00711075,0.0196421,
2026_06_09_01_26_46.769,3.853,29.7,0,0.759,0,0,0,0.005, ,0,0,0,0,0, ,-99.3,328.6,940,-0.4,-0.5,-1.7,25,0.59484,-2.98085,-8.29031,0.00965341,0.00652188,0.0209589,
2026_06_09_01_26_46.789,3.853,29.8,0,0.759,0,0,0,0.005, ,0,0,0,0,0, ,-97.9,329.3,941.1,-0.4,-0.5,-1.7,25,0.564463,-2.81683,-7.77603,0.0134144,0.00592975,0.0196556,
2026_06_09_01_26_46.808,3.853,29.7,0,0.76,0,0,0,0.005, ,0,0,0,0,0, ,-98.9,329.5,940.9,-0.5,-0.5,-1.6,25,0.542602,-2.6249,-7.22657,0.0144728,0.00533744,0.0207715,
2026_06_09_01_26_46.829,3.853,29.8,0,0.759,0,0,0,0.005, ,0,0,0,0,0, ,-98.6,329.1,941.8,-0.5,-0.5,-1.6,25,0.501974,-2.43435,-6.65129,0.0129557,0.00474787,0.0241826,
2026_06_09_01_26_46.848,3.853,29.8,0,0.759,0,0,0,0.005, ,0,0,0,0,0, ,-99.6,328.6,941.7,-0.6,-0.5,-1.7,25,0.4437,-2.26322,-6.05182,0.00899701,0.00416381,0.0248549,
2026_06_09_01_26_46.868,3.853,29.8,0,0.76,0,0,0,0.005, ,0,0,0,0,0, ,-98.6,327.7,940.1,-0.5,-0.6,-1.7,25,0.386098,-2.12366,-5.49361,0.00518814,0.00113572,0.0229197,
2026_06_09_01_26_46.888,3.853,29.8,0,0.759,0,0,0,0.005, ,0,0,0,0,0, ,-99.4,330.2,941,-0.5,-0.5,-1.7,25,0.334321,-1.94124,-4.95287,0.00399265,-0.00174946,0.0209664,
2026_06_09_01_26_46.908,3.853,29.8,0,0.759,0,0,0,0.005, ,0,0,0,0,0, ,-98.7,328.6,940.3,-0.3,-0.5,-1.7,25,0.280984,-1.73613,-4.40934,0.00774045,-0.00203236,0.0190056,
2026_06_09_01_26_46.928,3.853,29.8,0,0.759,0,0,0,0.005, ,0,0,0,0,0, ,-99.9,327.8,942.5,-0.4,-0.5,-1.6,25,0.216618,-1.59138,-3.83395,0.0137184,-0.00229137,0.0194994,
2026_06_09_01_26_46.948,3.853,29.8,0,0.759,0,0,0,0.005, ,0,0,0,0,0, ,-99.2,328.3,940,-0.5,-0.4,-1.8,25,0.14208,-1.45324,-3.27524,0.0144313,-7.42216e-05,0.0174208,
2026_06_09_01_26_46.970,3.853,29.7,0,0.759,0,0,0,0.005, ,0,0,0,0,0, ,-97.6,329.7,940.5,-0.5,-0.5,-1.7,25,0.126897,-1.26812,-2.77684,0.012586,0.00203456,0.012906,
2026_06_09_01_26_46.987,3.853,29.8,0,0.759,0,0,0,0.006, ,0,0,0,0,0, ,-98.3,330,942.5,-0.4,-0.5,-1.7,25,0.133902,-1.04415,-2.22788,0.0132213,0.00157772,0.0110013,
2026_06_09_01_26_47.007,3.853,29.8,0,0.759,0,0,0,0.005, ,0,0,0,0,0, ,-98.1,328.9,944.5,-0.5,-0.4,-1.7,25,0.127644,-0.845628,-1.59679,0.0137602,0.00358768,0.00913576,
2026_06_09_01_26_47.026,3.853,29.9,0,0.76,0,0,0,0.005, ,0,0,0,0,0, ,-97.6,330,943.9,-0.5,-0.5,-1.7,25,0.138228,-0.652677,-0.954442,0.0117528,0.00548138,0.00731668,
2026_06_09_01_26_47.047,3.853,29.8,0,0.76,0,0,0,0.004, ,0,0,0,0,0, ,-98.5,328.9,943.8,-0.3,-0.5,-1.8,25,0.137803,-0.465972,-0.356061,0.0146902,0.00480304,0.0030986,
2026_06_09_01_26_47.067,3.853,29.9,0,0.759,0,0,0,0.005, ,0,0,0,0,0, ,-98.9,328.6,941.1,-0.6,-0.5,-1.7,25,0.104842,-0.320457,0.146066,0.014959,0.00413429,-0.000927887,
2026_06_09_01_26_47.086,3.853,29.8,0,0.759,0,0,0,0.004, ,0,0,0,0,0, ,-99.1,328.2,940.1,-0.4,-0.5,-1.6,25,0.0582679,-0.197665,0.532118,0.0126887,0.00347796,0.000151994,
2026_06_09_01_26_47.106,3.853,29.8,0,0.761,0,0,0,0.005, ,0,0,0,0,0, ,-97.5,328.6,941.1,-0.5,-0.5,-1.7,25,0.048021,-0.0799199,0.896613,0.0129194,0.00283668,0.00117816,
2026_06_09_01_26_47.128,3.853,29.8,0,0.759,0,0,0,0.005, ,0,0,0,0,0, ,-99.6,328.9,940.7,-0.3,-0.5,-1.7,25,0.0257791,0.0496088,1.25353,0.0155273,0.00221288,-0.000303959,
2026_06_09_01_26_47.146,3.853,29.8,0,0.76,0,0,0,0.005, ,0,0,0,0,0, ,-98.1,331,941.8,-0.4,-0.4,-1.8,25,-0.0102119,0.231392,1.60393,0.0203829,0.00406092,-0.00416406,
2026_06_09_01_26_47.166,3.853,29.9,0,0.76,0,0,0,0.005, ,0,0,0,0,0, ,-98.8,328.4,942,-0.3,-0.5,-1.7,25,-0.0247703,0.390859,1.96111,0.0248999,0.00579831,-0.00781432,
2026_06_09_01_26_47.186,3.853,29.9,0,0.758,0,0,0,0.004, ,0,0,0,0,0, ,-98.2,328.4,942.2,-0.4,-0.5,-1.6,25,-0.0409448,0.476823,2.30093,0.0290727,0.00496976,-0.00634273,
2026_06_09_01_26_47.205,3.853,29.8,0,0.76,0,0,0,0.004, ,0,0,0,0,0, ,-98.6,329.1,941.4,-0.5,-0.4,-1.6,25,-0.0512197,0.573386,2.59802,0.0279932,0.00660951,-0.00245989,
2026_06_09_01_26_47.225,3.853,29.9,0,0.758,0,0,0,0.005, ,0,0,0,0,0, ,-98.5,329.3,942.3,-0.6,-0.5,-1.7,25,-0.068095,0.684457,2.8702,0.0219244,0.00813627,-0.00120752,
2026_06_09_01_26_47.245,3.853,29.8,0,0.759,0,0,0,0.004, ,0,0,0,0,0, ,-98.8,329.7,941,-0.5,-0.5,-1.7,25,-0.0887114,0.80142,3.10507,0.0160452,0.0070959,-0.00246278,
2026_06_09_01_26_47.265,3.853,29.8,0,0.759,0,0,0,0.005, ,0,0,0,0,0, ,-98.2,329.8,942.2,-0.6,-0.5,-1.7,25,-0.100523,0.920959,3.31066,0.0103753,0.00607158,-0.00364434,
2026_06_09_01_26_47.285,3.853,29.9,0,0.759,0,0,0,0.005, ,0,0,0,0,0, ,-98.6,329.3,939.3,-0.5,-0.5,-1.7,25,-0.106355,1.02029,3.44817,0.00493223,0.00506757,-0.00474999,
2026_06_09_01_26_47.304,3.853,29.8,0,0.76,0,0,0,0.004, ,0,0,0,0,0, ,-98.2,330.4,939.5,-0.5,-0.5,-1.7,25,-0.111378,1.12443,3.49574,0.00218401,0.00408782,-0.00577801,
2026_06_09_01_26_47.324,3.853,29.9,0,0.761,0,0,0,0.005, ,0,0,0,0,0, ,-97.9,329.2,937.9,-0.4,-0.5,-1.7,25,-0.0984397,1.21547,3.48941,0.00201196,0.00313598,-0.00672713,
2026_06_09_01_26_47.343,3.853,29.9,0,0.76,0,0,0,0.004, ,0,0,0,0,0, ,-98.9,328.3,937.9,-0.5,-0.5,-1.8,25,-0.102816,1.24456,3.42697,0.00183844,0.00221537,-0.0100487,
2026_06_09_01_26_47.363,3.853,29.9,0,0.759,0,0,0,0.004, ,0,0,0,0,0, ,-98.5,328.2,943.7,-0.7,-0.5,-1.6,25,-0.121185,1.24157,3.49292,-0.00569211,0.00132899,-0.0107057,
2026_06_09_01_26_47.383,3.853,29.9,0,0.758,0,0,0,0.004, ,0,0,0,0,0, ,-99.4,330.2,939.2,-0.5,-0.5,-1.8,25,-0.150315,1.2792,3.5703,-0.0128253,0.000479529,-0.0112777,
2026_06_09_01_26_47.403,3.853,29.8,0,0.759,0,0,0,0.004, ,0,0,0,0,0, ,-99.1,328.3,940.6,-0.4,-0.5,-1.8,25,-0.19199,1.31113,3.55028,-0.012189,-0.000330635,-0.0166704,
2026_06_09_01_26_47.423,3.853,29.9,0,0.759,0,0,0,0.005, ,0,0,0,0,0, ,-100,329.4,940.3,-0.7,-0.5,-1.7,25,-0.245387,1.31541,3.54071,-0.0164281,-0.00109944,-0.0192643,
2026_06_09_01_26_47.445,3.853,29.9,0,0.76,0,0,0,0.004, ,0,0,0,0,0, ,-98.2,329.5,940.7,-0.4,-0.5,-1.7,25,-0.272887,1.34243,3.51661,-0.0203783,-0.00182511,-0.0191839,
2026_06_09_01_26_47.463,3.853,29.9,0,0.76,0,0,0,0.004, ,0,0,0,0,0, ,-97.9,329.3,940.9,-0.5,-0.5,-1.7,25,-0.246198,1.35905,3.49108,-0.0191301,-0.00250621,-0.0190129,
2026_06_09_01_26_47.483,3.853,29.9,0,0.76,0,0,0,0.004, ,0,0,0,0,0, ,-99.1,328.3,940.3,-0.5,-0.5,-1.7,25,-0.241674,1.33874,3.43979,-0.020301,-0.00314155,-0.0187566,
2026_06_09_01_26_47.502,3.853,30,0,0.759,0,0,0,0.004, ,0,0,0,0,0, ,-98.5,327.7,939.4,-0.5,-0.5,-1.7,25,-0.250893,1.27359,3.33728,-0.0213144,-0.00373024,-0.0184204,
2026_06_09_01_26_47.522,3.853,30,0,0.76,0,0,0,0.004, ,0,0,0,0,0, ,-98.3,328.3,941,-0.4,-0.5,-1.7,25,-0.238807,1.20536,3.24051,-0.0197208,-0.00427169,-0.0180099,
2026_06_09_01_26_47.542,3.853,29.9,0,0.76,0,0,0,0, ,0,0,0,0,0, ,-98.8,329.3,941,-0.6,-0.5,-1.7,25,-0.233493,1.17377,3.17176,-0.0205605,-0.00476552,-0.0175308,
2026_06_09_01_26_47.562,3.853,30,0,0.76,0,0,0,0, ,0,0,0,0,0, ,-99.1,329.7,940.6,-0.5,-0.6,-1.8,25,-0.246907,1.17227,3.08093,-0.0237097,-0.00766382,-0.019441,
2026_06_09_01_26_47.581,3.853,30,0,0.76,0,0,0,0, ,0,0,0,0,0, ,-99.1,329.4,940.9,-0.5,-0.5,-1.7,25,-0.265802,1.16752,2.97693,-0.0241355,-0.0103822,-0.0211617,
2026_06_09_01_26_47.606,3.853,29.9,0,0.76,0,0,0,0, ,0,0,0,0,0, ,-99.6,328.4,940.9,-0.5,-0.5,-1.7,25,-0.294721,1.12538,2.87071,-0.0244215,-0.0104639,-0.0202415,
2026_06_09_01_26_47.621,3.853,30,0,0.759,0,0,0,0, ,0,0,0,0,0, ,-99.4,328.7,939.8,-0.4,-0.5,-1.7,25,-0.328126,1.06258,2.72858,-0.022121,-0.0104901,-0.0192667,
2026_06_09_01_26_47.641,3.853,29.9,0,0.76,0,0,0,0, ,0,0,0,0,0, ,-99.1,327.7,939.4,-0.3,-0.5,-1.6,25,-0.346015,0.980471,2.54319,-0.0149199,-0.0104633,-0.0157926,
2026_06_09_01_26_47.661,3.853,30,0,0.76,0,0,0,0, ,0,0,0,0,0, ,-98.5,329.2,940,-0.4,-0.5,-1.7,25,-0.339251,0.909814,2.35926,-0.00799844,-0.0103862,-0.012411,
2026_06_09_01_26_47.681,3.853,30,0,0.76,0,0,0,0, ,0,0,0,0,0, ,-98.9,328,941.2,-0.5,-0.5,-1.7,25,-0.326244,0.845495,2.21686,-0.00628136,-0.0102617,-0.0115863,
2026_06_09_01_26_47.701,3.853,30,0,0.761,0,0,0,0, ,0,0,0,0,0, ,-98.5,328.3,942,-0.5,-0.5,-1.6,25,-0.312266,0.758093,2.11957,-0.00706968,-0.0100928,-0.00829277,
2026_06_09_01_26_47.720,3.853,30,0,0.76,0,0,0,0, ,0,0,0,0,0, ,-98.8,328.3,940.9,-0.5,-0.5,-1.7,25,-0.294983,0.678598,2.00924,-0.00778451,-0.00988236,-0.00511989,
2026_06_09_01_26_47.740,3.853,30,0,0.76,0,0,0,0, ,0,0,0,0,0, ,-98.9,329.8,942,-0.5,-0.5,-1.8,25,-0.286902,0.636439,1.89443,-0.00842591,-0.00963358,-0.00698171,
2026_06_09_01_26_47.760,3.853,30,0,0.758,0,0,0,0, ,0,0,0,0,0, ,-97.5,328.2,941.7,-0.3,-0.4,-1.6,25,-0.245926,0.59076,1.79552,-0.00409001,-0.00689735,-0.00626565,
2026_06_09_01_26_47.780,3.853,30,0,0.76,0,0,0,0, ,0,0,0,0,0, ,-97.1,329.2,940.4,-0.4,-0.5,-1.7,25,-0.161608,0.529697,1.65339,0.00250556,-0.00426133,-0.00310167,
2026_06_09_01_26_47.800,3.853,30,0,0.758,0,0,0,0, ,0,0,0,0,0, ,-98.6,329.1,939.6,-0.3,-0.5,-1.7,25,-0.107603,0.491088,1.45858,0.00876532,-0.00418575,-0.00252974,
2026_06_09_01_26_47.819,3.853,30,0,0.76,0,0,0,0, ,0,0,0,0,0, ,-99.1,328.9,939.8,-0.4,-0.5,-1.7,25,-0.104759,0.444596,1.25142,0.0146749,-0.00409324,-0.00197339,
2026_06_09_01_26_47.839,3.853,30,0,0.76,0,0,0,0, ,0,0,0,0,0, ,-97.7,327.8,939.8,-0.5,-0.5,-1.6,25,-0.0794689,0.366313,1.05316,0.015318,-0.0039851,0.00101756,
2026_06_09_01_26_47.858,3.853,30,0,0.76,0,0,0,0, ,0,0,0,0,0, ,-98.3,328.4,940.3,-0.5,-0.5,-1.7,25,-0.0354103,0.277804,0.871689,0.0134019,-0.00386263,0.00385681,
2026_06_09_01_26_47.878,3.853,30,0,0.76,0,0,0,0, ,0,0,0,0,0, ,-98.2,328.7,939.2,-0.4,-0.5,-1.8,25,-0.00559876,0.214337,0.680113,0.0139659,-0.00372712,0.00163349,
2026_06_09_01_26_47.899,3.853,30,0,0.76,0,0,0,0, ,0,0,0,0,0, ,-98.8,327.8,939.3,-0.4,-0.5,-1.8,25,0.0105175,0.138213,0.470059,0.0168855,-0.00357989,-0.00294101,
2026_06_09_01_26_47.919,3.853,30,0,0.759,0,0,0,0, ,0,0,0,0,0, ,-98.7,328.2,940.1,-0.5,-0.5,-1.7,25,0.0135307,0.0528799,0.290059,0.0171266,-0.00342224,-0.0048245,
2026_06_09_01_26_47.939,3.853,30,0,0.76,0,0,0,0, ,0,0,0,0,0, ,-98.6,328.4,940.9,-0.5,-0.4,-1.7,25,0.0212339,-0.0138153,0.156693,0.0148193,-0.000803293,-0.00413968,
2026_06_09_01_26_47.958,3.853,29.9,0,0.76,0,0,0,0, ,0,0,0,0,0, ,-98.5,329.3,940.4,-0.5,-0.5,-1.7,25,0.0333589,-0.0501984,0.0364523,0.0125521,0.00169117,-0.00346805,
2026_06_09_01_26_47.978,3.853,30,0,0.76,0,0,0,0, ,0,0,0,0,0, ,-97.9,329.2,940.5,-0.5,-0.5,-1.7,25,0.0618899,-0.064932,-0.0878799,0.0103343,0.0016028,-0.00281227,
2026_06_09_01_26_47.998,3.853,29.9,0,0.76,0,0,0,0, ,0,0,0,0,0, ,-98.8,329.7,939.5,-0.5,-0.6,-1.7,25,0.0813601,-0.0688137,-0.227751,0.00817428,-0.000941293,-0.00217479,
2026_06_09_01_26_48.018,3.853,30,0,0.76,0,0,0,0, ,0,0,0,0,0, ,-99.3,330.6,940.6,-0.5,-0.5,-1.7,25,0.0651442,-0.0378359,-0.357189,0.00607992,-0.00335598,-0.00155785,
2026_06_09_01_26_48.037,3.853,30.1,0,0.758,0,0,0,0, ,0,0,0,0,0, ,-98,328.6,939.5,-0.4,-0.5,-1.7,25,0.0690198,-0.0351647,-0.478519,0.00651047,-0.00318354,-0.000963493,
2026_06_09_01_26_48.058,3.853,29.9,0,0.758,0,0,0,0, ,0,0,0,0,0, ,-99.4,329.5,939.9,-0.3,-0.4,-1.7,25,0.0699131,-0.0594252,-0.608703,0.0117921,-0.000551708,-0.000393537,
2026_06_09_01_26_48.078,3.853,29.9,0,0.759,0,0,0,0, ,0,0,0,0,0, ,-98.3,329.3,941.6,-0.5,-0.5,-1.8,25,0.0630615,-0.0650383,-0.678009,0.0143045,0.00195377,-0.00230175,
2026_06_09_01_26_48.104,3.853,30,0,0.759,0,0,0,0, ,0,0,0,0,0, ,-99.7,328.6,941.8,-0.5,-0.5,-1.7,25,0.0488787,-0.0921249,-0.693983,0.0117189,0.00187458,-0.00410504,
2026_06_09_01_26_48.117,3.853,29.9,0,0.76,0,0,0,0, ,0,0,0,0,0, ,-98.9,328,940.9,-0.6,-0.5,-1.8,25,0.0204377,-0.149307,-0.722919,0.00675008,0.00179004,-0.00579966,
2026_06_09_01_26_48.136,3.853,30.1,0,0.76,0,0,0,0, ,0,0,0,0,0, ,-98.3,328.9,941.5,-0.5,-0.5,-1.7,25,0.0276209,-0.195592,-0.754228,0.00199173,0.00170082,-0.00738258,
2026_06_09_01_26_48.156,3.853,30,0,0.761,0,0,0,0, ,0,0,0,0,0, ,-97.5,328.4,942,-0.5,-0.5,-1.7,25,0.068646,-0.228836,-0.753312,-9.09143e-05,0.00160759,-0.00639933,
2026_06_09_01_26_48.176,3.853,29.9,0,0.758,0,0,0,0, ,0,0,0,0,0, ,-99.2,328.9,940.1,-0.4,-0.5,-1.7,25,0.0852515,-0.259321,-0.783059,0.000381192,0.00151102,-0.00543277,
2026_06_09_01_26_48.196,3.853,29.9,0,0.76,0,0,0,0, ,0,0,0,0,0, ,-97.6,328,940.7,-0.5,-0.5,-1.7,25,0.0981704,-0.296841,-0.839366,0.000828266,0.00141173,-0.00448683,
2026_06_09_01_26_48.215,3.853,30,0,0.76,0,0,0,0, ,0,0,0,0,0, ,-99.2,329.9,938.4,-0.4,-0.5,-1.7,25,0.109972,-0.306537,-0.93046,0.00124933,0.00131036,-0.00356518,
2026_06_09_01_26_48.236,3.853,30,0,0.76,0,0,0,0, ,0,0,0,0,0, ,-98.8,328.4,938.5,-0.4,-0.5,-1.6,25,0.0912264,-0.304438,-1.06645,0.00409575,0.0012075,-0.000218991,
2026_06_09_01_26_48.255,3.853,29.9,0,0.76,0,0,0,0, ,0,0,0,0,0, ,-98.7,328.9,940.7,-0.5,-0.5,-1.8,25,0.0852116,-0.325463,-1.13411,0.00433023,0.00110373,0.000512009,
2026_06_09_01_26_48.275,3.853,29.9,0,0.758,0,0,0,0, ,0,0,0,0,0, ,-98.9,328.4,940.7,-0.6,-0.5,-1.8,25,0.0766197,-0.343853,-1.13892,-0.000372459,0.000999613,-0.00369969,
2026_06_09_01_26_48.295,3.853,30,0,0.758,0,0,0,0, ,0,0,0,0,0, ,-99.1,329.5,941.4,-0.4,-0.5,-1.7,25,0.0582629,-0.344934,-1.12072,-0.00239051,0.000895675,-0.00523443,
2026_06_09_01_26_48.315,3.853,30,0,0.761,0,0,0,0, ,0,0,0,0,0, ,-98.9,329.4,940.3,-0.5,-0.5,-1.8,25,0.0405193,-0.31974,-1.10769,-0.00184565,0.000792421,-0.00666811,
2026_06_09_01_26_48.334,3.853,29.9,0,0.76,0,0,0,0, ,0,0,0,0,0, ,-99.4,328.3,940.5,-0.5,-0.6,-1.7,25,0.0160896,-0.323632,-1.11191,-0.00377058,-0.00176184,-0.00799862,
2026_06_09_01_26_48.354,3.853,29.9,0,0.76,0,0,0,0, ,0,0,0,0,0, ,-98.3,329.2,938.4,-0.3,-0.5,-1.6,25,0.00749161,-0.330642,-1.15704,-0.0006782,-0.00418214,-0.00432014,
2026_06_09_01_26_48.374,3.853,30,0,0.76,0,0,0,0, ,0,0,0,0,0, ,-98.5,328.9,940.3,-0.4,-0.5,-1.7,25,0.0213479,-0.320966,-1.19916,0.00471802,-0.00401097,-0.000800766,
2026_06_09_01_26_48.394,3.853,29.9,0,0.76,0,0,0,0, ,0,0,0,0,0, ,-98.5,328,939.5,-0.6,-0.5,-1.8,25,0.0295151,-0.339608,-1.20632,0.00246987,-0.00382843,-0.00235437,
2026_06_09_01_26_48.414,3.853,30,0,0.758,0,0,0,0, ,0,0,0,0,0, ,-96.9,328.9,942,-0.4,-0.5,-1.7,25,0.0763709,-0.355663,-1.16551,0.000319792,-0.00363598,-0.00382018,
2026_06_09_01_26_48.433,3.853,29.9,0,0.758,0,0,0,0, ,0,0,0,0,0, ,-98,327.6,942.1,-0.6,-0.5,-1.7,25,0.132813,-0.378986,-1.05719,-0.00172641,-0.00343504,-0.00274311,
2026_06_09_01_26_48.453,3.853,30,0,0.758,0,0,0,0, ,0,0,0,0,0, ,-98.9,330.6,940.7,-0.5,-0.4,-1.7,25,0.13679,-0.35761,-0.980859,-0.00611591,-0.000774875,-0.00170535,
2026_06_09_01_26_48.475,3.853,30,0,0.758,0,0,0,0, ,0,0,0,0,0, ,-98.8,329.9,939.8,-0.4,-0.5,-1.6,25,0.120279,-0.279121,-0.959834,-0.00535568,0.00175865,0.00174208,
2026_06_09_01_26_48.493,3.853,29.9,0,0.758,0,0,0,0, ,0,0,0,0,0, ,-98.2,329.5,939.9,-0.4,-0.5,-1.8,25,0.121152,-0.23008,-0.954727,-0.00215417,0.0017071,0.0025597,
2026_06_09_01_26_48.512,3.853,30,0,0.758,0,0,0,0, ,0,0,0,0,0, ,-99.1,328.6,940.1,-0.5,-0.5,-1.7,25,0.114027,-0.214187,-0.937808,-0.00155122,0.00164966,0.000872441,
2026_06_09_01_26_48.532,3.853,29.9,0,0.759,0,0,0,0, ,0,0,0,0,0, ,-97.7,328,940,-0.4,-0.5,-1.7,25,0.118951,-0.234801,-0.914646,-0.000970201,0.00158691,0.00171579,
2026_06_09_01_26_48.552,3.853,30,0,0.76,0,0,0,0, ,0,0,0,0,0, ,-99.3,327.8,939.8,-0.4,-0.5,-1.7,25,0.118143,-0.272865,-0.895469,0.00203927,0.00151941,0.00250932,
2026_06_09_01_26_48.572,3.853,29.9,0,0.76,0,0,0,0, ,0,0,0,0,0, ,-98.3,328.7,940.5,-0.5,-0.5,-1.7,25,0.10208,-0.290551,-0.860558,0.00243894,0.00144774,0.00325157,
2026_06_09_01_26_48.592,3.853,29.9,0,0.76,0,0,0,0, ,0,0,0,0,0, ,-99.1,329.2,939.2,-0.4,-0.5,-1.7,25,0.0912049,-0.271607,-0.837831,0.00280698,0.00137244,0.00394139,
2026_06_09_01_26_48.611,3.853,30.1,0,0.758,0,0,0,0, ,0,0,0,0,0, ,-98.3,328.3,939.5,-0.5,-0.5,-1.6,25,0.0804142,-0.262064,-0.836611,0.00314314,0.00129408,0.00703012,
2026_06_09_01_26_48.632,3.853,30,0,0.76,0,0,0,0, ,0,0,0,0,0, ,-98.7,329.8,940.5,-0.5,-0.5,-1.7,25,0.079565,-0.236984,-0.799449,0.000995165,0.00121318,0.00993272,
2026_06_09_01_26_48.651,3.853,30,0,0.759,0,0,0,0, ,0,0,0,0,0, ,-98.9,328.6,941.8,-0.5,-0.5,-1.7,25,0.0636524,-0.204609,-0.703771,-0.00105237,0.00113027,0.0101919,
2026_06_09_01_26_48.671,3.853,30,0,0.76,0,0,0,0, ,0,0,0,0,0, ,-98.7,329.2,941.4,-0.6,-0.4,-1.7,25,0.0482065,-0.187526,-0.587247,-0.00544647,0.00349802,0.010388,
2026_06_09_01_26_48.691,3.853,29.9,0,0.76,0,0,0,0, ,0,0,0,0,0, ,-98.2,329.9,940.6,-0.5,-0.5,-1.6,25,0.0504458,-0.138479,-0.50297,-0.00959822,0.00573241,0.0129756,
2026_06_09_01_26_48.711,3.853,29.9,0,0.76,0,0,0,0, ,0,0,0,0,0, ,-98.3,328.6,940.6,-0.5,-0.6,-1.6,25,0.0621352,-0.105868,-0.439966,-0.0110469,0.00292464,0.0178244,
2026_06_09_01_26_48.731,3.853,30,0,0.76,0,0,0,0.001, ,0,0,0,0,0, ,-98.3,328.9,939,-0.5,-0.6,-1.7,25,0.0704927,-0.0988567,-0.417117,-0.0123701,-0.00221201,0.0198955,
2026_06_09_01_26_48.750,3.853,30,0,0.758,0,0,0,0, ,0,0,0,0,0, ,-99.6,328.8,940.5,-0.4,-0.5,-1.7,25,0.046215,-0.0867977,-0.395785,-0.0111152,-0.00463367,0.0193147,
2026_06_09_01_26_48.771,3.853,29.9,0,0.759,0,0,0,0, ,0,0,0,0,0, ,-98.9,327.8,939.4,-0.4,-0.5,-1.7,25,0.00818721,-0.101876,-0.363739,-0.00741501,-0.00446157,0.0186673,
2026_06_09_01_26_48.790,3.853,29.9,0,0.76,0,0,0,0.001, ,0,0,0,0,0, ,-99.1,328.4,940.9,-0.5,-0.5,-1.7,25,-0.0157551,-0.125522,-0.321663,-0.00631186,-0.00427592,0.0179596,
2026_06_09_01_26_48.811,3.853,30,0,0.761,0,0,0,0.001, ,0,0,0,0,0, ,-98.1,328.8,941,-0.5,-0.5,-1.7,25,-0.0188282,-0.122868,-0.240831,-0.00768387,-0.0040783,0.0171981,
2026_06_09_01_26_48.831,3.853,30,0,0.758,0,0,0,0, ,0,0,0,0,0, ,-97.4,329.1,940.9,-0.5,-0.5,-1.8,25,0.0200289,-0.102572,-0.162777,-0.00895073,-0.00387027,0.0139371,
2026_06_09_01_26_48.849,3.853,30,0,0.758,0,0,0,0, ,0,0,0,0,0, ,-99.2,331.1,940.7,-0.4,-0.5,-1.7,25,0.0299079,-0.026367,-0.0951043,-0.00765918,-0.00365338,0.0107672,
2026_06_09_01_26_48.869,3.853,29.9,0,0.76,0,0,0,0, ,0,0,0,0,0, ,-99.2,330.3,941.8,-0.5,-0.5,-1.6,25,-0.00498383,0.0756565,-0.00821359,-0.00639323,-0.00342911,0.0126041,
2026_06_09_01_26_48.889,3.853,30,0,0.76,0,0,0,0.001, ,0,0,0,0,0, ,-99.3,328.2,938.7,-0.3,-0.5,-1.7,25,-0.0405921,0.101191,0.025413,-0.00270569,-0.00319895,0.0142888,
2026_06_09_01_26_48.909,3.853,29.9,0,0.76,0,0,0,0, ,0,0,0,0,0, ,-99.4,327.7,939,-0.4,-0.5,-1.8,25,-0.0791584,0.061219,-0.011395,0.00326649,-0.00296431,0.0109162,
2026_06_09_01_26_48.928,3.853,30,0,0.76,0,0,0,0.001, ,0,0,0,0,0, ,-98.7,328.7,939.9,-0.4,-0.5,-1.7,25,-0.10073,0.0351664,-0.0169154,0.00647752,-0.00272656,0.00765511,
2026_06_09_01_26_48.948,3.853,30,0,0.76,0,0,0,0, ,0,0,0,0,0, ,-99.2,329.2,941.6,-0.4,-0.5,-1.8,25,-0.115843,0.0470007,0.0416738,0.00949914,-0.00248704,0.00451625,
2026_06_09_01_26_48.968,3.853,30,0,0.76,0,0,0,0, ,0,0,0,0,0, ,-98,327.8,942.5,-0.6,-0.5,-1.7,25,-0.112479,0.0359528,0.16094,0.00742144,-0.00224701,0.00150908,
2026_06_09_01_26_48.988,3.853,30,0,0.76,0,0,0,0, ,0,0,0,0,0, ,-98.9,329.3,941.4,-0.6,-0.5,-1.6,25,-0.101369,0.0277212,0.26866,0.000504737,-0.00200768,0.00354628,
2026_06_09_01_26_49.007,3.853,30,0,0.76,0,0,0,0, ,0,0,0,0,0, ,-97,329.7,941.2,-0.4,-0.5,-1.7,25,-0.0657823,0.0663483,0.337896,-0.00117091,-0.00177019,0.00546608,
2026_06_09_01_26_49.028,3.853,30,0,0.76,0,0,0,0, ,0,0,0,0,0, ,-98.9,328.1,941.7,-0.4,-0.5,-1.7,25,-0.0316171,0.0733286,0.409427,0.00214571,-0.00153562,0.00481263,
2026_06_09_01_26_49.047,3.853,30,0,0.76,0,0,0,0, ,0,0,0,0,0, ,-99.4,327.6,940.6,-0.4,-0.5,-1.7,25,-0.0578235,0.0281096,0.460719,0.0052891,-0.00130499,0.00416751,
2026_06_09_01_26_49.067,3.853,30,0,0.759,0,0,0,0, ,0,0,0,0,0, ,-98.2,329.8,939.5,-0.4,-0.5,-1.7,25,-0.0652944,0.026656,0.453276,0.00825226,-0.00107924,0.0035335,
2026_06_09_01_26_49.088,3.853,30,0,0.761,0,0,0,0, ,0,0,0,0,0, ,-98.2,328.2,941.1,-0.5,-0.5,-1.7,25,-0.0426512,0.0398555,0.456226,0.00857727,-0.00085924,0.00291316,
2026_06_09_01_26_49.107,3.853,30,0,0.76,0,0,0,0, ,0,0,0,0,0, ,-98.6,328.6,940.3,-0.6,-0.5,-1.8,25,-0.0307169,0.0227857,0.476399,0.00393975,-0.000645796,-0.000143274,
2026_06_09_01_26_49.127,3.853,30,0,0.761,0,0,0,0, ,0,0,0,0,0, ,-99.7,328.9,941.4,-0.4,-0.5,-1.7,25,-0.0559989,0.0236055,0.500593,0.00196241,-0.000439638,-0.0030491,
2026_06_09_01_26_49.147,3.853,30.1,0,0.76,0,0,0,0, ,0,0,0,0,0, ,-98.2,329.2,941.1,-0.5,-0.5,-1.7,25,-0.0699564,0.0389818,0.54075,0.00252453,-0.000241424,-0.00334523,
2026_06_09_01_26_49.167,3.853,30,0,0.76,0,0,0,0, ,0,0,0,0,0, ,-98.8,330,940.1,-0.5,-0.5,-1.7,25,-0.0608153,0.0803859,0.544394,0.000594484,-5.17408e-05,-0.00361035,
2026_06_09_01_26_49.186,3.853,30,0,0.758,0,0,0,0, ,0,0,0,0,0, ,-98.5,329.2,940.5,-0.4,-0.5,-1.7,25,-0.0591793,0.119363,0.530463,0.00120832,0.000128895,-0.00384468,
2026_06_09_01_26_49.206,3.853,29.9,0,0.761,0,0,0,0, ,0,0,0,0,0, ,-98.9,328.8,940.3,-0.4,-0.5,-1.7,25,-0.0597841,0.126414,0.519506,0.00423827,0.000300036,-0.00404857,
2026_06_09_01_26_49.226,3.853,30,0,0.76,0,0,0,0.001, ,0,0,0,0,0, ,-99.4,328.7,940.9,-0.5,-0.5,-1.6,25,-0.082134,0.120236,0.516336,0.00464656,0.000461305,-0.00177034,
2026_06_09_01_26_49.245,3.853,29.9,0,0.759,0,0,0,0, ,0,0,0,0,0, ,-98.1,328.7,940.1,-0.4,-0.5,-1.7,25,-0.0833657,0.111317,0.505872,0.00501193,0.000612392,0.000404881,
2026_06_09_01_26_49.265,3.853,30.1,0,0.758,0,0,0,0.001, ,0,0,0,0,0, ,-98,329.1,940.7,-0.6,-0.5,-1.6,25,-0.0497958,0.112094,0.488523,0.00288252,0.00075305,0.00247143,
2026_06_09_01_26_49.285,3.853,29.9,0,0.759,0,0,0,0, ,0,0,0,0,0, ,-98.2,329.2,939.4,-0.5,-0.5,-1.8,25,-0.020079,0.124542,0.452453,-0.00160882,0.000883099,0.00197228,
2026_06_09_01_26_49.306,3.853,30,0,0.759,0,0,0,0.001, ,0,0,0,0,0, ,-98.8,329.3,939.4,-0.4,-0.4,-1.7,25,-0.0113381,0.14067,0.384045,-0.000967641,0.00345458,-0.000964263,
2026_06_09_01_26_49.325,3.853,29.9,0,0.761,0,0,0,0, ,0,0,0,0,0, ,-97.7,329.4,941.4,-0.5,-0.5,-1.7,25,0.00929088,0.160217,0.366142,-0.000353139,0.00588292,-0.00129988,
2026_06_09_01_26_49.344,3.853,30,0,0.759,0,0,0,0.001, ,0,0,0,0,0, ,-98,328.2,941,-0.6,-0.5,-1.7,25,0.0484797,0.151043,0.386547,-0.00467136,0.00571101,-0.00161263,
2026_06_09_01_26_49.364,3.853,29.9,0,0.76,0,0,0,0, ,0,0,0,0,0, ,-99.6,328.7,940.5,-0.6,-0.5,-1.7,25,0.0389166,0.12441,0.381976,-0.0112069,0.00551939,-0.0019021,
2026_06_09_01_26_49.385,3.853,29.9,0,0.76,0,0,0,0.001, ,0,0,0,0,0, ,-99.3,328.6,940.4,-0.5,-0.5,-1.7,25,-0.00224753,0.108278,0.361035,-0.0149146,0.00530997,-0.00216799,
2026_06_09_01_26_49.405,3.853,29.9,0,0.759,0,0,0,0.001, ,0,0,0,0,0, ,-98.2,328.7,940,-0.4,-0.5,-1.7,25,-0.00705144,0.0924041,0.32708,-0.0134626,0.00508465,-0.00241016,
2026_06_09_01_26_49.424,3.853,30,0,0.759,0,0,0,0.001, ,0,0,0,0,0, ,-98.9,329.3,940.9,-0.4,-0.5,-1.7,25,-0.00177631,0.0940177,0.305439,-0.00956329,0.00484532,-0.00262858,
2026_06_09_01_26_49.443,3.853,29.9,0,0.76,0,0,0,0, ,0,0,0,0,0, ,-98.7,328,941,-0.4,-0.5,-1.7,25,-0.00901195,0.0779235,0.307877,-0.0058081,0.00459384,-0.00282333,
2026_06_09_01_26_49.463,3.853,30,0,0.759,0,0,0,0.001, ,0,0,0,0,0, ,-99.3,327.5,940.1,-0.5,-0.5,-1.8,25,-0.025657,0.0180959,0.289058,-0.00466061,0.00433206,-0.00544677,
2026_06_09_01_26_49.484,3.853,30,0,0.759,0,0,0,0, ,0,0,0,0,0, ,-98.6,327.3,941.4,-0.5,-0.4,-1.7,25,-0.0389071,-0.0560522,0.279548,-0.00599858,0.00651394,-0.00791471,
2026_06_09_01_26_49.503,3.853,29.9,0,0.759,0,0,0,0, ,0,0,0,0,0, ,-98.3,329.5,939.9,-0.5,-0.5,-1.7,25,-0.0267941,-0.0772444,0.264223,-0.00724138,0.0085567,-0.00777044,
2026_06_09_01_26_49.523,3.853,30,0,0.759,0,0,0,0.001, ,0,0,0,0,0, ,-98.7,329.2,940.9,-0.6,-0.5,-1.7,25,-0.0175952,-0.0504248,0.236086,-0.0108397,0.00800495,-0.00759496,
2026_06_09_01_26_49.544,3.853,30,0,0.759,0,0,0,0, ,0,0,0,0,0, ,-97.9,329.1,941,-0.5,-0.5,-1.8,25,0.00104795,-0.0344806,0.235139,-0.0142081,0.0074408,-0.00984281,
2026_06_09_01_26_49.563,3.853,29.9,0,0.759,0,0,0,0, ,0,0,0,0,0, ,-98.1,327.1,940.4,-0.4,-0.5,-1.7,25,0.0334845,-0.0706439,0.220819,-0.012437,0.00686766,-0.0119319,
2026_06_09_01_26_49.586,3.853,29.9,0,0.759,0,0,0,0.001, ,0,0,0,0,0, ,-99.4,329.2,940,-0.4,-0.5,-1.7,25,0.0273829,-0.102233,0.181592,-0.00823929,0.00628877,-0.0114076,
2026_06_09_01_26_49.602,3.853,29.9,0,0.759,0,0,0,0.001, ,0,0,0,0,0, ,-97.9,329.2,939.5,-0.4,-0.5,-1.8,25,0.0263498,-0.0802739,0.121323,-0.00420685,0.00570729,-0.0133049,
2026_06_09_01_26_49.623,3.853,29.9,0,0.759,0,0,0,0.001, ,0,0,0,0,0, ,-98.3,329.2,940.1,-0.4,-0.5,-1.7,25,0.0522113,-0.058996,0.0658638,-0.000351431,0.00512619,-0.0150436,
2026_06_09_01_26_49.642,3.853,29.8,0,0.759,0,0,0,0.001, ,0,0,0,0,0, ,-99.7,330.4,941.4,-0.4,-0.5,-1.7,25,0.0324083,-0.00904532,0.0593914,0.00331663,0.00454833,-0.0141708,
2026_06_09_01_26_49.662,3.853,29.9,0,0.76,0,0,0,0.001, ,0,0,0,0,0, ,-98.3,329.4,941.2,-0.5,-0.5,-1.6,25,0.0134168,0.043404,0.0799185,0.0043363,0.0039764,-0.0108187,
2026_06_09_01_26_49.681,3.853,30,0,0.758,0,0,0,0.001, ,0,0,0,0,0, ,-99.4,328.9,939.5,-0.5,-0.5,-1.8,25,0.00264694,0.0562848,0.0524533,0.00283243,0.00341292,-0.0100299,
2026_06_09_01_26_49.701,3.853,29.9,0,0.759,0,0,0,0, ,0,0,0,0,0, ,-99.2,328.6,940.6,-0.5,-0.5,-1.7,25,-0.0296771,0.0486395,0.0113627,0.00138835,0.00286025,-0.0116825,
2026_06_09_01_26_49.721,3.853,29.9,0,0.759,0,0,0,0.001, ,0,0,0,0,0, ,-98.6,328.8,939.9,-0.4,-0.5,-1.7,25,-0.0406522,0.0386771,-0.0179594,0.00246041,0.00232059,-0.0107444,
2026_06_09_01_26_49.741,3.853,29.9,0,0.76,0,0,0,0.001, ,0,0,0,0,0, ,-98.5,328.6,938.9,-0.3,-0.5,-1.8,25,-0.0337236,0.0290126,-0.0874405,0.00837209,0.00179596,-0.0122514,
2026_06_09_01_26_49.760,3.853,30,0,0.76,0,0,0,0.001, ,0,0,0,0,0, ,-97.5,328.1,940.5,-0.4,-0.4,-1.7,25,5.06117e-06,0.00251452,-0.138371,0.0139526,0.00374037,-0.0136242,
2026_06_09_01_26_49.782,3.853,29.9,0,0.759,0,0,0,0, ,0,0,0,0,0, ,-96.4,329.2,940.3,-0.5,-0.5,-1.7,25,0.0835749,-0.00798331,-0.151792,0.0142863,0.00557099,-0.0124103,
2026_06_09_01_26_49.801,3.853,29.9,0,0.759,0,0,0,0.001, ,0,0,0,0,0, ,-98.2,328.1,942.5,-0.4,-0.5,-1.7,25,0.145469,-0.017927,-0.114764,0.0145333,0.00483221,-0.0111948,
2026_06_09_01_26_49.820,3.853,29.9,0,0.76,0,0,0,0.001, ,0,0,0,0,0, ,-99.1,329.2,941.5,-0.5,-0.5,-1.8,25,0.137403,-0.0272946,-0.0495593,0.0146965,0.00410585,-0.0124359,
2026_06_09_01_26_49.840,3.853,30,0,0.76,0,0,0,0.001, ,0,0,0,0,0, ,-99.2,329.3,940,-0.5,-0.5,-1.8,25,0.104533,-0.00664279,-0.0486128,0.0123271,0.00339488,-0.016007,
2026_06_09_01_26_49.860,3.853,29.9,0,0.758,0,0,0,0, ,0,0,0,0,0, ,-98,329.5,940.9,-0.4,-0.4,-1.7,25,0.0997346,0.0203851,-0.0621854,0.0124653,0.0051542,-0.0168719,
2026_06_09_01_26_49.880,3.853,29.9,0,0.758,0,0,0,0.001, ,0,0,0,0,0, ,-99.6,329.1,939.3,-0.4,-0.5,-1.7,25,0.0848708,0.0410831,-0.0919513,0.0149875,0.00680185,-0.0151591,
2026_06_09_01_26_49.900,3.853,30,0,0.76,0,0,0,0.001, ,0,0,0,0,0, ,-98.6,328.1,940.3,-0.4,-0.5,-1.7,25,0.0556048,0.0262334,-0.134518,0.0173121,0.005883,-0.0134556,
2026_06_09_01_26_49.920,3.853,29.9,0,0.76,0,0,0,0, ,0,0,0,0,0, ,-98.8,328.1,940.3,-0.5,-0.5,-1.6,25,0.0471173,-0.0125388,-0.149813,0.0169853,0.00498022,-0.00931712,
2026_06_09_01_26_49.940,3.853,29.9,0,0.758,0,0,0,0.001, ,0,0,0,0,0, ,-98.2,328.6,940.1,-0.5,-0.5,-1.7,25,0.0486225,-0.037087,-0.168524,0.0141386,0.00409718,-0.00533572,
2026_06_09_01_26_49.959,3.853,29.9,0,0.759,0,0,0,0.001, ,0,0,0,0,0, ,-98.1,329.2,940.4,-0.5,-0.5,-1.7,25,0.0669795,-0.0332746,-0.183033,0.0113618,0.00323725,-0.00397545,
2026_06_09_01_26_49.981,3.853,29.9,0,0.76,0,0,0,0.001, ,0,0,0,0,0, ,-98.9,330.2,941.2,-0.5,-0.5,-1.7,25,0.0669408,0.00974964,-0.168955,0.00866521,0.00240354,-0.00266229,
2026_06_09_01_26_49.999,3.853,29.9,0,0.76,0,0,0,0.001, ,0,0,0,0,0, ,-100,328.4,940.6,-0.5,-0.5,-1.7,25,0.0199831,0.030998,-0.149831,0.00605818,0.00159887,-0.00140042,
2026_06_09_01_26_50.019,3.853,29.9,0,0.761,0,0,0,0.001, ,0,0,0,0,0, ,-97.9,330.5,941,-0.4,-0.5,-1.7,25,-0.000248573,0.0584077,-0.135811,0.0060013,0.000825784,-0.000193532,
2026_06_09_01_26_50.038,3.853,29.9,0,0.76,0,0,0,0.001, ,0,0,0,0,0, ,-98.3,328,942.1,-0.5,-0.6,-1.7,25,0.0221999,0.0743768,-0.0850267,0.00591764,-0.00236562,0.00095512,
2026_06_09_01_26_50.058,3.853,29.9,0,0.757,0,0,0,0.001, ,0,0,0,0,0, ,-98.8,329.2,938.8,-0.6,-0.5,-1.8,25,0.0213685,0.0573183,-0.0902621,0.00090459,-0.00538884,-0.000409427,
2026_06_09_01_26_50.078,3.853,30,0,0.76,0,0,0,0.001, ,0,0,0,0,0, ,-99.1,329.2,940.4,-0.4,-0.5,-1.7,25,0.000855412,0.0702403,-0.136481,-0.0014149,-0.00578508,-0.00170504,
2026_06_09_01_26_50.098,3.853,29.8,0,0.76,0,0,0,0, ,0,0,0,0,0, ,-98.8,329.3,939.9,-0.4,-0.5,-1.7,25,-0.0186559,0.0846338,-0.152787,0.00129067,-0.00613338,-0.00047654,
2026_06_09_01_26_50.117,3.853,29.9,0,0.76,0,0,0,0.002, ,0,0,0,0,0, ,-98.9,329.1,938.3,-0.4,-0.5,-1.7,25,-0.0322141,0.0954521,-0.219036,0.00385718,-0.00643436,0.000694053,
2026_06_09_01_26_50.138,3.853,29.9,0,0.76,0,0,0,0.001, ,0,0,0,0,0, ,-98.9,328.6,941.1,-0.4,-0.5,-1.8,25,-0.0474007,0.0881047,-0.251531,0.00627881,-0.00668888,-0.000648342,
2026_06_09_01_26_50.157,3.853,29.9,0,0.76,0,0,0,0.001, ,0,0,0,0,0, ,-99.7,327.7,940.1,-0.4,-0.5,-1.8,25,-0.0812261,0.0463534,-0.237055,0.00855074,-0.00689794,-0.00437386,
2026_06_09_01_26_50.179,3.853,29.9,0,0.759,0,0,0,0.001, ,0,0,0,0,0, ,-98.8,328,941,-0.4,-0.4,-1.6,25,-0.11054,-0.00829195,-0.224572,0.0106691,-0.0046106,-0.0029908,
2026_06_09_01_26_50.197,3.853,29.9,0,0.76,0,0,0,0.001, ,0,0,0,0,0, ,-98.6,328.4,941.6,-0.5,-0.5,-1.7,25,-0.110898,-0.0430517,-0.174812,0.0101788,-0.00241272,0.000791332,
