UTC_Time,Vin,TC1,TC2,Rh1,Vh1,Ah1,Acp1,Dty1,Err1,Rh2,Vh2,Ah2,Acp2,Dty2,Err2,Accel_x,Accel_y,Accel_z,gyro_x,gyro_y,gyro_z,Temp_c,Accel_x_h,Accel_y_h,Accel_z_h,gyro_x_h,gyro_y_h,gyro_z_h,
2026_07_06_21_07_53.036,3.867,33,0,0.761,0,0,0,0, ,0,0,0,0,0, ,-39.9,397.3,917.9,-0.6,-0.5,-1.9,25,-39.9,397.3,917.9,-0.6,-0.5,-1.9,
2026_07_06_21_07_53.057,3.867,33.1,0,0.76,0,0,0,0, ,0,0,0,0,0, ,-41,398.9,917.1,-0.8,-0.5,-1.8,25,-39.9335,397.349,917.876,-0.606094,-0.5,-1.89695,
2026_07_06_21_07_53.076,3.867,33,0,0.76,0,0,0,0, ,0,0,0,0,0, ,-39.5,397.9,918,-0.7,-0.5,-1.7,25,-39.9528,397.413,917.856,-0.614863,-0.5,-1.888,
2026_07_06_21_07_53.096,3.867,33,0,0.762,0,0,0,0, ,0,0,0,0,0, ,-40.6,399.1,917.6,-0.8,-0.5,-1.8,25,-39.9587,397.479,917.852,-0.623098,-0.5,-1.87959,
2026_07_06_21_07_53.116,3.867,33,0,0.76,0,0,0,0, ,0,0,0,0,0, ,-39.9,399.7,917.4,-0.8,-0.5,-1.7,25,-39.9765,397.596,917.831,-0.633878,-0.5,-1.87169,
2026_07_06_21_07_53.139,3.867,33,0,0.76,0,0,0,0, ,0,0,0,0,0, ,-40.4,398.8,916.9,-0.7,-0.5,-1.8,25,-39.987,397.697,917.789,-0.640954,-0.5,-1.86428,
2026_07_06_21_07_53.155,3.867,33,0,0.76,0,0,0,0, ,0,0,0,0,0, ,-41.1,399.1,918.2,-0.6,-0.5,-1.8,25,-40.0335,397.773,917.775,-0.641505,-0.5,-1.86036,
2026_07_06_21_07_53.176,3.867,33.1,0,0.762,0,0,0,0, ,0,0,0,0,0, ,-41.1,398.8,917.8,-0.7,-0.4,-1.7,25,-40.0985,397.845,917.789,-0.642023,-0.496953,-1.85363,
2026_07_06_21_07_53.195,3.867,33.1,0,0.762,0,0,0,0, ,0,0,0,0,0, ,-41.5,399.2,917.8,-0.7,-0.5,-1.7,25,-40.1717,397.915,917.789,-0.645556,-0.494092,-1.84427,
2026_07_06_21_07_53.215,3.867,33.1,0,0.76,0,0,0,0, ,0,0,0,0,0, ,-40.7,397.9,917.4,-0.6,-0.5,-1.8,25,-40.2283,397.954,917.778,-0.645827,-0.494452,-1.83853,
2026_07_06_21_07_53.235,3.867,33.1,0,0.762,0,0,0,0, ,0,0,0,0,0, ,-40.2,398.6,916.9,-0.5,-0.5,-1.8,25,-40.2418,397.972,917.739,-0.639987,-0.49479,-1.83618,
2026_07_06_21_07_53.254,3.867,33.1,0,0.76,0,0,0,0, ,0,0,0,0,0, ,-40.8,397.4,916.5,-0.7,-0.5,-1.8,25,-40.2576,397.974,917.676,-0.637551,-0.495108,-1.83398,
2026_07_06_21_07_53.277,3.867,33.1,0,0.76,0,0,0,0, ,0,0,0,0,0, ,-41.5,397.5,916.8,-0.7,-0.5,-1.8,25,-40.3119,397.942,917.614,-0.641356,-0.495406,-1.8319,
2026_07_06_21_07_53.294,3.867,33.1,0,0.76,0,0,0,0, ,0,0,0,0,0, ,-40.4,398.9,917.2,-0.7,-0.5,-1.7,25,-40.3508,397.958,917.576,-0.64493,-0.495686,-1.82691,
2026_07_06_21_07_53.314,3.867,33.1,0,0.76,0,0,0,0, ,0,0,0,0,0, ,-41.1,398.5,917.4,-0.7,-0.5,-1.7,25,-40.3751,398.003,917.559,-0.648286,-0.495949,-1.81918,
2026_07_06_21_07_53.334,3.867,33.1,0,0.761,0,0,0,0, ,0,0,0,0,0, ,-39.6,398.9,916.9,-0.8,-0.6,-1.7,25,-40.3736,398.045,917.534,-0.654484,-0.499242,-1.81192,
2026_07_06_21_07_53.354,3.867,33.1,0,0.759,0,0,0,0, ,0,0,0,0,0, ,-40.1,399,916.5,-0.6,-0.5,-1.7,25,-40.3417,398.1,917.484,-0.657257,-0.502335,-1.8051,
2026_07_06_21_07_53.373,3.867,33,0,0.762,0,0,0,0, ,0,0,0,0,0, ,-39,399.7,917.6,-0.7,-0.5,-1.7,25,-40.2935,398.177,917.457,-0.656815,-0.502193,-1.79869,
2026_07_06_21_07_53.393,3.867,33,0,0.761,0,0,0,0, ,0,0,0,0,0, ,-42.1,400.1,917.1,-0.7,-0.5,-1.7,25,-40.3091,398.282,917.451,-0.659447,-0.502059,-1.79268,
2026_07_06_21_07_53.414,3.867,33,0,0.76,0,0,0,0, ,0,0,0,0,0, ,-40.7,399.5,918.8,-0.6,-0.5,-1.8,25,-40.3756,398.374,917.481,-0.658871,-0.501934,-1.79008,
2026_07_06_21_07_53.433,3.867,33,0,0.761,0,0,0,0, ,0,0,0,0,0, ,-40.5,398.4,917.9,-0.6,-0.5,-1.8,25,-40.3892,398.409,917.534,-0.655284,-0.501816,-1.79068,
2026_07_06_21_07_53.453,3.867,33,0,0.762,0,0,0,0, ,0,0,0,0,0, ,-39.7,397,916.7,-0.6,-0.5,-1.9,25,-40.3716,398.366,917.52,-0.651915,-0.501705,-1.7943,
2026_07_06_21_07_53.473,3.867,33.1,0,0.761,0,0,0,0, ,0,0,0,0,0, ,-40.4,399.5,918.5,-0.6,-0.5,-1.7,25,-40.352,398.359,917.525,-0.648751,-0.501601,-1.79464,
2026_07_06_21_07_53.492,3.867,33,0,0.762,0,0,0,0, ,0,0,0,0,0, ,-40.1,398.9,916.5,-0.6,-0.5,-1.8,25,-40.3458,398.41,917.523,-0.64578,-0.501504,-1.79192,
2026_07_06_21_07_53.513,3.867,33,0,0.76,0,0,0,0, ,0,0,0,0,0, ,-40.4,398.6,916.8,-0.7,-0.5,-1.8,25,-40.34,398.431,917.47,-0.646038,-0.501412,-1.79242,
2026_07_06_21_07_53.531,3.867,33.1,0,0.76,0,0,0,0, ,0,0,0,0,0, ,-40.1,397.9,916.8,-0.8,-0.5,-1.7,25,-40.3345,398.42,917.429,-0.652373,-0.501326,-1.78983,
2026_07_06_21_07_53.551,3.867,33.1,0,0.761,0,0,0,0, ,0,0,0,0,0, ,-41.3,399.6,916.8,-0.7,-0.5,-1.8,25,-40.3568,398.44,917.391,-0.658322,-0.501245,-1.7874,
2026_07_06_21_07_53.572,3.867,33.1,0,0.76,0,0,0,0, ,0,0,0,0,0, ,-40,399,916.8,-0.7,-0.6,-1.7,25,-40.3746,398.492,917.355,-0.660862,-0.504216,-1.78513,
2026_07_06_21_07_53.591,3.867,33,0,0.761,0,0,0,0, ,0,0,0,0,0, ,-40.5,399.4,917.3,-0.7,-0.5,-1.7,25,-40.367,398.536,917.336,-0.663247,-0.507006,-1.77994,
2026_07_06_21_07_53.611,3.867,33,0,0.76,0,0,0,0, ,0,0,0,0,0, ,-41,399.4,917.6,-0.6,-0.5,-1.8,25,-40.3904,398.588,917.343,-0.662439,-0.506579,-1.77811,
2026_07_06_21_07_53.631,3.867,33.1,0,0.76,0,0,0,0, ,0,0,0,0,0, ,-41.6,399.6,917.3,-0.6,-0.5,-1.8,25,-40.4458,398.644,917.35,-0.658635,-0.506178,-1.77945,
2026_07_06_21_07_53.651,3.867,33.1,0,0.761,0,0,0,0, ,0,0,0,0,0, ,-40.2,398.9,916.2,-0.6,-0.5,-1.7,25,-40.4735,398.681,917.313,-0.655062,-0.505802,-1.77765,
2026_07_06_21_07_53.670,3.867,33.1,0,0.762,0,0,0,0, ,0,0,0,0,0, ,-40.5,397.9,916.2,-0.7,-0.5,-1.8,25,-40.466,398.664,917.245,-0.654753,-0.505448,-1.77597,
2026_07_06_21_07_53.691,3.867,33.1,0,0.761,0,0,0,0, ,0,0,0,0,0, ,-40.5,398.1,917.4,-0.7,-0.5,-1.8,25,-40.468,398.623,917.218,-0.65751,-0.505116,-1.77743,
2026_07_06_21_07_53.710,3.867,33.2,0,0.76,0,0,0,0, ,0,0,0,0,0, ,-41.2,399,917.3,-0.7,-0.5,-1.7,25,-40.4913,398.619,917.226,-0.6601,-0.504805,-1.77576,
2026_07_06_21_07_53.730,3.867,33,0,0.76,0,0,0,0, ,0,0,0,0,0, ,-41.5,399.9,917.4,-0.6,-0.5,-1.8,25,-40.5436,398.669,917.234,-0.659484,-0.504512,-1.77419,
2026_07_06_21_07_53.750,3.867,33,0,0.76,0,0,0,0, ,0,0,0,0,0, ,-39.7,398.9,916.7,-0.6,-0.5,-1.8,25,-40.5471,398.714,917.223,-0.655859,-0.504237,-1.77576,
2026_07_06_21_07_53.769,3.867,33,0,0.761,0,0,0,0, ,0,0,0,0,0, ,-41.2,398.3,916.8,-0.6,-0.5,-1.8,25,-40.5412,398.707,917.194,-0.652455,-0.503979,-1.77724,
2026_07_06_21_07_53.790,3.867,33,0,0.761,0,0,0,0, ,0,0,0,0,0, ,-41.7,398.9,917.3,-0.6,-0.5,-1.8,25,-40.5965,398.7,917.185,-0.649259,-0.503736,-1.77863,
2026_07_06_21_07_53.810,3.867,33,0,0.762,0,0,0,0, ,0,0,0,0,0, ,-39.9,397.7,917.3,-0.6,-0.5,-1.7,25,-40.6089,398.676,917.192,-0.646257,-0.503509,-1.77688,
2026_07_06_21_07_53.829,3.867,33.1,0,0.761,0,0,0,0, ,0,0,0,0,0, ,-39.9,398.1,917.1,-0.6,-0.5,-1.7,25,-40.5657,398.629,917.192,-0.643438,-0.503295,-1.7722,
2026_07_06_21_07_53.849,3.867,33.1,0,0.761,0,0,0,0, ,0,0,0,0,0, ,-40.2,400.3,916.7,-0.8,-0.5,-1.8,25,-40.5343,398.664,917.175,-0.646885,-0.503094,-1.77085,
2026_07_06_21_07_53.868,3.867,33.1,0,0.761,0,0,0,0, ,0,0,0,0,0, ,-41.6,399.4,917.4,-0.7,-0.5,-1.8,25,-40.5566,398.736,917.167,-0.653169,-0.502905,-1.77262,
2026_07_06_21_07_53.888,3.867,33.1,0,0.761,0,0,0,0, ,0,0,0,0,0, ,-41,399,916.6,-0.7,-0.5,-1.7,25,-40.6019,398.764,917.157,-0.656022,-0.502728,-1.77124,
2026_07_06_21_07_53.909,3.867,33,0,0.761,0,0,0,0, ,0,0,0,0,0, ,-40.4,398.9,918.4,-0.7,-0.5,-1.7,25,-40.6079,398.775,917.178,-0.658702,-0.502562,-1.7669,
2026_07_06_21_07_53.928,3.867,33.1,0,0.761,0,0,0,0, ,0,0,0,0,0, ,-40.1,400.7,917.8,-0.7,-0.5,-1.7,25,-40.5861,398.838,917.234,-0.661219,-0.502406,-1.76283,
2026_07_06_21_07_53.948,3.867,33,0,0.761,0,0,0,0, ,0,0,0,0,0, ,-40.6,399.7,916.9,-0.5,-0.6,-1.8,25,-40.5717,398.921,917.241,-0.657488,-0.505306,-1.76204,
2026_07_06_21_07_53.967,3.867,33.1,0,0.761,0,0,0,0, ,0,0,0,0,0, ,-40.8,399.5,916.5,-0.6,-0.5,-1.8,25,-40.5795,398.962,917.208,-0.650938,-0.50803,-1.76436,
2026_07_06_21_07_53.987,3.867,33.1,0,0.76,0,0,0,0, ,0,0,0,0,0, ,-40.4,398.3,918.4,-0.6,-0.5,-1.7,25,-40.5807,398.958,917.223,-0.647834,-0.50754,-1.76348,
2026_07_06_21_07_54.007,3.867,33.1,0,0.76,0,0,0,0, ,0,0,0,0,0, ,-39.9,399.1,917.2,-0.6,-0.5,-1.7,25,-40.5545,398.943,917.258,-0.644919,-0.507081,-1.75961,
2026_07_06_21_07_54.027,3.867,33.1,0,0.762,0,0,0,0, ,0,0,0,0,0, ,-41.3,398.6,916.9,-0.7,-0.5,-1.7,25,-40.5573,398.937,917.245,-0.645229,-0.506649,-1.75598,
2026_07_06_21_07_54.046,3.867,33,0,0.76,0,0,0,0, ,0,0,0,0,0, ,-40.4,398.8,917.3,-0.6,-0.5,-1.7,25,-40.5751,398.923,917.236,-0.64552,-0.506244,-1.75257,
2026_07_06_21_07_54.067,3.867,33,0,0.76,0,0,0,0, ,0,0,0,0,0, ,-39.7,399.6,918.2,-0.7,-0.5,-1.8,25,-40.5431,398.94,917.268,-0.645793,-0.505864,-1.75241,
2026_07_06_21_07_54.087,3.867,33,0,0.76,0,0,0,0, ,0,0,0,0,0, ,-40.1,397.2,917.6,-0.7,-0.5,-1.7,25,-40.5039,398.907,917.306,-0.649096,-0.505506,-1.75227,
2026_07_06_21_07_54.106,3.867,33.1,0,0.761,0,0,0,0, ,0,0,0,0,0, ,-40.2,397.9,917.4,-0.7,-0.5,-1.7,25,-40.4824,398.824,917.318,-0.652198,-0.505171,-1.74908,
2026_07_06_21_07_54.126,3.867,33.1,0,0.761,0,0,0,0, ,0,0,0,0,0, ,-40.1,399,916.7,-0.7,-0.5,-1.7,25,-40.4621,398.801,917.302,-0.655111,-0.504856,-1.74609,
2026_07_06_21_07_54.146,3.867,33.1,0,0.76,0,0,0,0, ,0,0,0,0,0, ,-40.5,399.7,917.3,-0.7,-0.5,-1.8,25,-40.4522,398.835,917.283,-0.657846,-0.50456,-1.74633,
2026_07_06_21_07_54.165,3.867,33.1,0,0.76,0,0,0,0, ,0,0,0,0,0, ,-41.3,397.9,917.9,-0.6,-0.5,-1.8,25,-40.4795,398.833,917.303,-0.657368,-0.504282,-1.7496,
2026_07_06_21_07_54.186,3.867,33,0,0.76,0,0,0,0, ,0,0,0,0,0, ,-40,398.6,917.4,-0.6,-0.5,-1.7,25,-40.4899,398.797,917.324,-0.653872,-0.504021,-1.74962,
2026_07_06_21_07_54.206,3.867,33,0,0.762,0,0,0,0, ,0,0,0,0,0, ,-40.6,399.1,916.6,-0.6,-0.5,-1.8,25,-40.4783,398.8,917.304,-0.650589,-0.503776,-1.74965,
2026_07_06_21_07_54.226,3.867,33.1,0,0.761,0,0,0,0, ,0,0,0,0,0, ,-41.9,399.7,917.4,-0.6,-0.5,-1.7,25,-40.5253,398.837,917.286,-0.647507,-0.503546,-1.74967,
2026_07_06_21_07_54.245,3.867,33,0,0.761,0,0,0,0, ,0,0,0,0,0, ,-40.6,397.2,916.3,-0.7,-0.5,-1.8,25,-40.5695,398.813,917.259,-0.647659,-0.50333,-1.74969,
2026_07_06_21_07_54.265,3.867,33.1,0,0.76,0,0,0,0, ,0,0,0,0,0, ,-40.4,398.5,917.7,-0.7,-0.5,-1.7,25,-40.5653,398.755,917.243,-0.650848,-0.503127,-1.74971,
2026_07_06_21_07_54.285,3.867,33.1,0,0.761,0,0,0,0, ,0,0,0,0,0, ,-41,398.6,916.5,-0.7,-0.5,-1.8,25,-40.5735,398.742,917.235,-0.653843,-0.502936,-1.74972,
2026_07_06_21_07_54.304,3.867,33,0,0.761,0,0,0,0, ,0,0,0,0,0, ,-39.5,397.9,917.2,-0.8,-0.5,-1.8,25,-40.5538,398.712,917.211,-0.659703,-0.502757,-1.75279,
2026_07_06_21_07_54.324,3.867,33.1,0,0.761,0,0,0,0, ,0,0,0,0,0, ,-40.1,399.5,917.2,-0.7,-0.5,-1.7,25,-40.5078,398.711,917.21,-0.665205,-0.502589,-1.75262,
2026_07_06_21_07_54.343,3.867,33.1,0,0.761,0,0,0,0, ,0,0,0,0,0, ,-39.9,399.2,916.5,-0.7,-0.6,-1.9,25,-40.4769,398.75,917.188,-0.667326,-0.505479,-1.75551,
2026_07_06_21_07_54.363,3.867,33.1,0,0.76,0,0,0,0, ,0,0,0,0,0, ,-41.1,399.2,917.6,-0.6,-0.5,-1.8,25,-40.4783,398.778,917.18,-0.66627,-0.508192,-1.76126,
2026_07_06_21_07_54.383,3.867,33.1,0,0.761,0,0,0,0, ,0,0,0,0,0, ,-40.7,398.3,916.6,-0.7,-0.5,-1.8,25,-40.504,398.776,917.175,-0.665278,-0.507692,-1.76362,
2026_07_06_21_07_54.403,3.867,33.1,0,0.762,0,0,0,0, ,0,0,0,0,0, ,-40.8,398.5,916,-0.7,-0.5,-1.8,25,-40.519,398.753,917.122,-0.667394,-0.507224,-1.76584,
2026_07_06_21_07_54.423,3.867,33.1,0,0.762,0,0,0,0, ,0,0,0,0,0, ,-39.9,398.5,917.4,-0.7,-0.5,-1.8,25,-40.5087,398.738,917.096,-0.669381,-0.506783,-1.76792,
2026_07_06_21_07_54.443,3.867,33.1,0,0.762,0,0,0,0, ,0,0,0,0,0, ,-41,399.7,917.4,-0.8,-0.5,-1.7,25,-40.5051,398.76,917.115,-0.674294,-0.50637,-1.76683,
2026_07_06_21_07_54.462,3.867,33.1,0,0.761,0,0,0,0, ,0,0,0,0,0, ,-40,400.3,917.4,-0.7,-0.5,-1.7,25,-40.5048,398.835,917.132,-0.678907,-0.505982,-1.76276,
2026_07_06_21_07_54.482,3.867,33.1,0,0.761,0,0,0,0, ,0,0,0,0,0, ,-40.8,398.6,917.4,-0.7,-0.5,-1.7,25,-40.4984,398.873,917.148,-0.680193,-0.505617,-1.75893,
2026_07_06_21_07_54.509,3.867,33.1,0,0.76,0,0,0,0, ,0,0,0,0,0, ,-41.8,398.6,917.1,-0.6,-0.4,-1.8,25,-40.5473,398.856,917.155,-0.678353,-0.502228,-1.75839,
2026_07_06_21_07_54.522,3.867,33.1,0,0.76,0,0,0,0, ,0,0,0,0,0, ,-42.3,398.8,916.5,-0.5,-0.5,-1.8,25,-40.6388,398.847,917.133,-0.670531,-0.499046,-1.76093,
2026_07_06_21_07_54.541,3.867,33,0,0.762,0,0,0,0, ,0,0,0,0,0, ,-40.7,397.8,917.6,-0.6,-0.5,-1.7,25,-40.6913,398.813,917.128,-0.663186,-0.499104,-1.76026,
2026_07_06_21_07_54.562,3.867,33.1,0,0.761,0,0,0,0, ,0,0,0,0,0, ,-39.3,398.8,917.2,-0.7,-0.5,-1.7,25,-40.6492,398.782,917.144,-0.662383,-0.499158,-1.75659,
2026_07_06_21_07_54.582,3.867,33.1,0,0.761,0,0,0,0, ,0,0,0,0,0, ,-40.6,399.1,918,-0.7,-0.5,-1.8,25,-40.6066,398.792,917.172,-0.664675,-0.49921,-1.75619,
2026_07_06_21_07_54.602,3.867,33.1,0,0.76,0,0,0,0, ,0,0,0,0,0, ,-40.6,399,916,-0.7,-0.5,-1.8,25,-40.6062,398.808,917.162,-0.666828,-0.499258,-1.75886,
2026_07_06_21_07_54.621,3.867,33,0,0.761,0,0,0,0, ,0,0,0,0,0, ,-41,398.1,917.4,-0.7,-0.5,-1.7,25,-40.618,398.792,917.134,-0.668849,-0.499303,-1.75832,
2026_07_06_21_07_54.647,3.867,33.2,0,0.762,0,0,0,0, ,0,0,0,0,0, ,-41.1,399.1,916.5,-0.8,-0.5,-1.8,25,-40.6443,398.781,917.122,-0.673794,-0.499345,-1.75781,
2026_07_06_21_07_54.660,3.867,33.1,0,0.761,0,0,0,0, ,0,0,0,0,0, ,-40.8,398,917.8,-0.7,-0.5,-1.8,25,-40.6629,398.766,917.124,-0.678438,-0.499385,-1.76038,
2026_07_06_21_07_54.681,3.867,33.2,0,0.76,0,0,0,0, ,0,0,0,0,0, ,-41,399.4,916.6,-0.6,-0.5,-1.7,25,-40.6774,398.762,917.129,-0.676705,-0.499423,-1.75975,
2026_07_06_21_07_54.702,3.867,33.1,0,0.761,0,0,0,0, ,0,0,0,0,0, ,-39.9,398.5,916.2,-0.6,-0.5,-1.8,25,-40.6635,398.774,917.084,-0.672031,-0.499458,-1.75915,
2026_07_06_21_07_54.720,3.867,33.1,0,0.761,0,0,0,0, ,0,0,0,0,0, ,-40.5,398.4,916.2,-0.6,-0.5,-1.8,25,-40.6353,398.754,917.03,-0.667642,-0.499491,-1.76164,
2026_07_06_21_07_54.740,3.867,33.1,0,0.762,0,0,0,0, ,0,0,0,0,0, ,-40.7,399,916.9,-0.6,-0.4,-1.7,25,-40.6331,398.751,917.001,-0.66352,-0.496475,-1.76093,
2026_07_06_21_07_54.760,3.867,33.1,0,0.762,0,0,0,0, ,0,0,0,0,0, ,-40.8,398.8,916.9,-0.5,-0.5,-1.7,25,-40.6403,398.76,916.995,-0.656602,-0.493643,-1.75722,
2026_07_06_21_07_54.779,3.867,33.1,0,0.762,0,0,0,0, ,0,0,0,0,0, ,-41,397.8,917.7,-0.7,-0.5,-1.8,25,-40.6561,398.732,917.014,-0.653153,-0.49403,-1.75678,
2026_07_06_21_07_54.800,3.867,33,0,0.761,0,0,0,0, ,0,0,0,0,0, ,-40.1,398.5,917.8,-0.8,-0.5,-1.7,25,-40.6496,398.696,917.058,-0.659054,-0.494394,-1.75637,
2026_07_06_21_07_54.819,3.867,33,0,0.761,0,0,0,0, ,0,0,0,0,0, ,-41,398.6,916.5,-0.7,-0.5,-1.7,25,-40.6435,398.688,917.064,-0.664596,-0.494736,-1.75293,
2026_07_06_21_07_54.838,3.867,33,0,0.761,0,0,0,0, ,0,0,0,0,0, ,-41,398.4,917.6,-0.8,-0.5,-1.7,25,-40.6653,398.676,917.063,-0.669801,-0.495057,-1.74971,
2026_07_06_21_07_54.859,3.867,33.1,0,0.762,0,0,0,0, ,0,0,0,0,0, ,-40.7,398.5,917.1,-0.7,-0.4,-1.8,25,-40.6765,398.662,917.081,-0.674688,-0.492311,-1.74972,
2026_07_06_21_07_54.879,3.867,33.1,0,0.761,0,0,0,0, ,0,0,0,0,0, ,-40.6,399,917.3,-0.7,-0.5,-1.7,25,-40.6749,398.668,917.088,-0.67623,-0.489733,-1.74974,
2026_07_06_21_07_54.899,3.867,33.1,0,0.76,0,0,0,0, ,0,0,0,0,0, ,-41.6,399.5,917.6,-0.5,-0.5,-1.7,25,-40.7008,398.703,917.11,-0.671585,-0.490358,-1.74671,
2026_07_06_21_07_54.920,3.867,33.1,0,0.761,0,0,0,0, ,0,0,0,0,0, ,-41.8,398.3,917.1,-0.6,-0.5,-1.8,25,-40.7617,398.715,917.125,-0.664176,-0.490946,-1.74691,
2026_07_06_21_07_54.938,3.867,33,0,0.761,0,0,0,0, ,0,0,0,0,0, ,-41.1,398.1,917.8,-0.6,-0.4,-1.9,25,-40.8036,398.684,917.144,-0.660265,-0.488451,-1.75319,
2026_07_06_21_07_54.957,3.867,33,0,0.762,0,0,0,0, ,0,0,0,0,0, ,-41.5,399,917.8,-0.6,-0.5,-1.7,25,-40.8339,398.676,917.184,-0.656593,-0.486108,-1.75605,
2026_07_06_21_07_54.978,3.867,33.1,0,0.76,0,0,0,0, ,0,0,0,0,0, ,-41.5,397.3,918.3,-0.7,-0.5,-1.8,25,-40.8745,398.644,917.237,-0.656191,-0.486954,-1.75568,
2026_07_06_21_07_54.998,3.867,33,0,0.76,0,0,0,0, ,0,0,0,0,0, ,-41.5,398.9,917.8,-0.8,-0.5,-1.7,25,-40.9126,398.61,917.287,-0.661908,-0.487749,-1.75533,
2026_07_06_21_07_55.017,3.867,33,0,0.76,0,0,0,0, ,0,0,0,0,0, ,-41,399.2,916.3,-0.7,-0.5,-1.8,25,-40.9332,398.637,917.272,-0.667276,-0.488496,-1.75501,
2026_07_06_21_07_55.037,3.867,33,0,0.762,0,0,0,0, ,0,0,0,0,0, ,-40.2,399.9,917.6,-0.7,-0.5,-1.8,25,-40.9129,398.693,917.253,-0.66927,-0.489197,-1.75775,
2026_07_06_21_07_55.057,3.867,33.1,0,0.763,0,0,0,0, ,0,0,0,0,0, ,-40.2,399.5,916.1,-0.6,-0.5,-1.7,25,-40.8694,398.754,917.228,-0.668096,-0.489855,-1.75728,
2026_07_06_21_07_55.076,3.867,33.1,0,0.762,0,0,0,0, ,0,0,0,0,0, ,-39.3,397.8,916.5,-0.7,-0.5,-1.8,25,-40.8012,398.748,917.172,-0.666993,-0.490473,-1.75683,
2026_07_06_21_07_55.096,3.867,33.1,0,0.76,0,0,0,0, ,0,0,0,0,0, ,-41.8,398.6,917.4,-0.7,-0.5,-1.7,25,-40.7859,398.714,917.158,-0.669004,-0.491054,-1.75642,
2026_07_06_21_07_55.115,3.867,33,0,0.759,0,0,0,0, ,0,0,0,0,0, ,-40,397,919.3,-0.7,-0.5,-1.8,25,-40.7928,398.659,917.231,-0.670893,-0.491599,-1.75602,
2026_07_06_21_07_55.135,3.867,33.1,0,0.762,0,0,0,0, ,0,0,0,0,0, ,-40.4,397.9,917.9,-0.7,-0.5,-1.8,25,-40.7567,398.585,917.314,-0.672667,-0.492111,-1.7587,
2026_07_06_21_07_55.155,3.867,33.1,0,0.761,0,0,0,0, ,0,0,0,0,0, ,-41.6,400.6,916.8,-0.7,-0.5,-1.8,25,-40.7715,398.626,917.316,-0.674332,-0.492592,-1.76122,
2026_07_06_21_07_55.175,3.867,33,0,0.761,0,0,0,0, ,0,0,0,0,0, ,-41,399.2,916.5,-0.7,-0.5,-1.8,25,-40.8038,398.703,917.276,-0.675896,-0.493043,-1.76358,
2026_07_06_21_07_55.195,3.867,33.1,0,0.761,0,0,0,0, ,0,0,0,0,0, ,-40.6,398.6,916.2,-0.6,-0.5,-1.7,25,-40.8035,398.715,917.219,-0.674318,-0.493467,-1.76276,
2026_07_06_21_07_55.215,3.867,33,0,0.761,0,0,0,0, ,0,0,0,0,0, ,-40.2,399,917.4,-0.5,-0.5,-1.7,25,-40.7789,398.72,917.194,-0.666743,-0.493865,-1.75893,
2026_07_06_21_07_55.235,3.867,33.1,0,0.761,0,0,0,0, ,0,0,0,0,0, ,-40,398.6,918,-0.5,-0.5,-1.8,25,-40.7376,398.725,917.225,-0.656582,-0.494239,-1.75839,
2026_07_06_21_07_55.254,3.867,33,0,0.761,0,0,0,0, ,0,0,0,0,0, ,-40.4,399.7,917.2,-0.6,-0.5,-1.7,25,-40.7048,398.751,917.247,-0.650087,-0.49459,-1.75788,
2026_07_06_21_07_55.275,3.867,33.1,0,0.761,0,0,0,0, ,0,0,0,0,0, ,-40.7,399.4,916.6,-0.7,-0.4,-1.8,25,-40.6954,398.8,917.226,-0.650082,-0.491873,-1.7574,
2026_07_06_21_07_55.294,3.867,33.1,0,0.761,0,0,0,0, ,0,0,0,0,0, ,-39.9,398.8,917.7,-0.6,-0.5,-1.7,25,-40.6713,398.818,917.222,-0.650077,-0.489321,-1.75695,
2026_07_06_21_07_55.315,3.867,33.1,0,0.763,0,0,0,0, ,0,0,0,0,0, ,-40.6,398.4,917.2,-0.7,-0.5,-1.8,25,-40.6456,398.805,917.236,-0.650072,-0.489972,-1.75652,
2026_07_06_21_07_55.334,3.867,33,0,0.761,0,0,0,0, ,0,0,0,0,0, ,-39.7,399.2,917.3,-0.8,-0.5,-1.7,25,-40.6154,398.805,917.236,-0.656161,-0.490583,-1.75613,
2026_07_06_21_07_55.353,3.867,33.1,0,0.76,0,0,0,0, ,0,0,0,0,0, ,-40,398,917.3,-0.7,-0.4,-1.7,25,-40.5688,398.792,917.24,-0.66188,-0.48811,-1.75271,
2026_07_06_21_07_55.374,3.867,33.1,0,0.762,0,0,0,0, ,0,0,0,0,0, ,-40.5,399.5,917.7,-0.7,-0.5,-1.8,25,-40.5493,398.79,917.256,-0.664203,-0.485788,-1.75254,
2026_07_06_21_07_55.393,3.867,33.1,0,0.762,0,0,0,0, ,0,0,0,0,0, ,-40.5,399,918.3,-0.6,-0.5,-1.8,25,-40.5463,398.818,917.301,-0.663337,-0.486654,-1.75543,
2026_07_06_21_07_55.412,3.867,33.1,0,0.761,0,0,0,0, ,0,0,0,0,0, ,-41.3,398.9,918,-0.6,-0.6,-1.7,25,-40.5679,398.826,917.353,-0.659478,-0.490514,-1.7551,
2026_07_06_21_07_55.432,3.867,33.1,0,0.761,0,0,0,0, ,0,0,0,0,0, ,-40.7,399,915.7,-0.5,-0.5,-1.8,25,-40.5942,398.833,917.323,-0.652806,-0.494139,-1.75479,
2026_07_06_21_07_55.453,3.867,33.1,0,0.761,0,0,0,0, ,0,0,0,0,0, ,-39.9,399,917.9,-0.6,-0.5,-1.8,25,-40.5763,398.843,917.291,-0.646542,-0.494496,-1.75755,
2026_07_06_21_07_55.473,3.867,33,0,0.761,0,0,0,0, ,0,0,0,0,0, ,-40.2,397.9,917.8,-0.6,-0.5,-1.8,25,-40.5442,398.819,917.325,-0.643705,-0.494831,-1.76013,
2026_07_06_21_07_55.492,3.867,33.1,0,0.762,0,0,0,0, ,0,0,0,0,0, ,-40.6,399.2,917.3,-0.6,-0.4,-1.8,25,-40.5354,398.803,917.338,-0.641042,-0.492099,-1.76256,
2026_07_06_21_07_55.512,3.867,33.2,0,0.761,0,0,0,0, ,0,0,0,0,0, ,-39.9,398.4,916.7,-0.7,-0.5,-1.8,25,-40.518,398.803,917.318,-0.641588,-0.489534,-1.76484,
2026_07_06_21_07_55.531,3.867,33.1,0,0.761,0,0,0,0, ,0,0,0,0,0, ,-41.1,397.7,916,-0.8,-0.6,-1.7,25,-40.5169,398.757,917.259,-0.648194,-0.493219,-1.76394,
2026_07_06_21_07_55.551,3.867,33.1,0,0.76,0,0,0,0, ,0,0,0,0,0, ,-41.6,398.6,916.7,-0.7,-0.6,-1.6,25,-40.5677,398.72,917.203,-0.654398,-0.499726,-1.757,
2026_07_06_21_07_55.571,3.867,33,0,0.763,0,0,0,0, ,0,0,0,0,0, ,-40.6,399.2,917.9,-0.6,-0.5,-1.7,25,-40.6001,398.731,917.209,-0.65413,-0.502789,-1.75048,
2026_07_06_21_07_55.591,3.867,33.1,0,0.759,0,0,0,0, ,0,0,0,0,0, ,-40.5,398.3,916,-0.6,-0.5,-1.7,25,-40.5971,398.732,917.194,-0.650832,-0.502619,-1.7474,
2026_07_06_21_07_55.611,3.867,33.1,0,0.759,0,0,0,0, ,0,0,0,0,0, ,-41.7,399.7,916,-0.6,-0.5,-1.7,25,-40.6277,398.748,917.121,-0.647734,-0.50246,-1.74451,
2026_07_06_21_07_55.631,3.867,33.1,0,0.761,0,0,0,0, ,0,0,0,0,0, ,-39.5,397.3,918.3,-0.6,-0.5,-1.7,25,-40.626,398.733,917.123,-0.644825,-0.50231,-1.7418,
2026_07_06_21_07_55.650,3.867,33.1,0,0.761,0,0,0,0, ,0,0,0,0,0, ,-39.9,397.9,917.6,-0.7,-0.5,-1.8,25,-40.5696,398.664,917.173,-0.645141,-0.502169,-1.7423,
2026_07_06_21_07_55.670,3.867,33,0,0.761,0,0,0,0, ,0,0,0,0,0, ,-41.2,398.3,917.3,-0.6,-0.5,-1.7,25,-40.5684,398.63,917.19,-0.645437,-0.502037,-1.74277,
2026_07_06_21_07_55.690,3.867,33,0,0.762,0,0,0,0, ,0,0,0,0,0, ,-41.5,399,916.5,-0.7,-0.5,-1.7,25,-40.616,398.631,917.172,-0.645715,-0.501913,-1.74016,
2026_07_06_21_07_55.710,3.867,33,0,0.762,0,0,0,0, ,0,0,0,0,0, ,-40.2,398.9,916.3,-0.6,-0.5,-1.8,25,-40.6303,398.65,917.125,-0.645976,-0.501796,-1.74076,
2026_07_06_21_07_55.729,3.867,33.1,0,0.762,0,0,0,0, ,0,0,0,0,0, ,-39.9,399.6,916.5,-0.6,-0.5,-1.7,25,-40.5949,398.687,917.081,-0.643174,-0.501687,-1.74132,
2026_07_06_21_07_55.749,3.867,33,0,0.762,0,0,0,0, ,0,0,0,0,0, ,-40.7,399.2,917.7,-0.6,-0.5,-1.7,25,-40.577,398.73,917.082,-0.640543,-0.501584,-1.73881,
2026_07_06_21_07_55.769,3.867,33,0,0.761,0,0,0,0, ,0,0,0,0,0, ,-39.1,398.9,917.2,-0.5,-0.5,-1.7,25,-40.5357,398.75,917.105,-0.635026,-0.501487,-1.73644,
2026_07_06_21_07_55.789,3.867,33.1,0,0.762,0,0,0,0, ,0,0,0,0,0, ,-39.7,397.8,916.5,-0.7,-0.5,-1.7,25,-40.4665,398.726,917.089,-0.632891,-0.501397,-1.73422,
2026_07_06_21_07_55.809,3.867,33.1,0,0.762,0,0,0,0, ,0,0,0,0,0, ,-40.5,398.9,916.8,-0.6,-0.6,-1.7,25,-40.4442,398.703,917.062,-0.633934,-0.504359,-1.73214,
2026_07_06_21_07_55.828,3.867,33.1,0,0.761,0,0,0,0, ,0,0,0,0,0, ,-39.7,399.5,916.7,-0.7,-0.5,-1.8,25,-40.4232,398.733,917.043,-0.634913,-0.50714,-1.73322,
2026_07_06_21_07_55.848,3.867,33.1,0,0.761,0,0,0,0, ,0,0,0,0,0, ,-39.7,398.6,916.1,-0.7,-0.5,-1.8,25,-40.3791,398.752,917.004,-0.638879,-0.506705,-1.73729,
2026_07_06_21_07_55.868,3.867,33.1,0,0.761,0,0,0,0, ,0,0,0,0,0, ,-40.8,400.5,916.8,-0.9,-0.5,-1.8,25,-40.3713,398.801,916.97,-0.648698,-0.506296,-1.74111,
2026_07_06_21_07_55.889,3.867,33.1,0,0.76,0,0,0,0, ,0,0,0,0,0, ,-41.5,399.2,917.6,-0.7,-0.5,-1.8,25,-40.4187,398.865,916.984,-0.657918,-0.505912,-1.7447,
2026_07_06_21_07_55.908,3.867,33.1,0,0.762,0,0,0,0, ,0,0,0,0,0, ,-39.4,398.5,917.4,-0.6,-0.5,-1.8,25,-40.4206,398.864,917.016,-0.657435,-0.505552,-1.74807,
2026_07_06_21_07_55.927,3.867,33.1,0,0.761,0,0,0,0, ,0,0,0,0,0, ,-40.4,399.5,917.8,-0.6,-0.5,-1.8,25,-40.3889,398.872,917.051,-0.653935,-0.505214,-1.75124,
2026_07_06_21_07_55.948,3.867,33.1,0,0.76,0,0,0,0, ,0,0,0,0,0, ,-39.6,399.1,916.9,-0.6,-0.5,-1.7,25,-40.3652,398.898,917.07,-0.650648,-0.504896,-1.75116,
2026_07_06_21_07_55.967,3.867,33,0,0.761,0,0,0,0, ,0,0,0,0,0, ,-40.5,399.5,917.9,-0.6,-0.4,-1.7,25,-40.346,398.923,917.09,-0.647562,-0.501551,-1.74804,
2026_07_06_21_07_55.987,3.867,33,0,0.762,0,0,0,0, ,0,0,0,0,0, ,-41.8,397.7,917.3,-0.6,-0.5,-1.8,25,-40.395,398.903,917.121,-0.644664,-0.49841,-1.74816,
2026_07_06_21_07_56.006,3.867,33.1,0,0.76,0,0,0,0, ,0,0,0,0,0, ,-41.2,398.1,916.5,-0.7,-0.5,-1.8,25,-40.4623,398.842,917.107,-0.644989,-0.498506,-1.75132,
2026_07_06_21_07_56.026,3.867,33.2,0,0.762,0,0,0,0, ,0,0,0,0,0, ,-40.6,398.3,916.6,-0.7,-0.4,-1.7,25,-40.489,398.803,917.073,-0.648341,-0.495551,-1.75124,
2026_07_06_21_07_56.046,3.867,33.1,0,0.761,0,0,0,0, ,0,0,0,0,0, ,-41.3,397.7,917.9,-0.7,-0.6,-1.8,25,-40.5171,398.754,917.084,-0.651489,-0.495822,-1.75117,
2026_07_06_21_07_56.066,3.867,33.1,0,0.76,0,0,0,0, ,0,0,0,0,0, ,-40.2,399.5,917.2,-0.7,-0.5,-1.7,25,-40.5313,398.745,917.113,-0.654445,-0.499123,-1.75109,
2026_07_06_21_07_56.087,3.867,33.1,0,0.762,0,0,0,0, ,0,0,0,0,0, ,-39.4,398.3,917.8,-0.9,-0.6,-1.7,25,-40.4867,398.754,917.136,-0.663315,-0.502224,-1.74798,
2026_07_06_21_07_56.106,3.867,33.1,0,0.762,0,0,0,0, ,0,0,0,0,0, ,-41,399.1,918,-0.6,-0.5,-1.7,25,-40.4692,398.751,917.183,-0.668597,-0.505135,-1.74506,
2026_07_06_21_07_56.126,3.867,33,0,0.76,0,0,0,0, ,0,0,0,0,0, ,-41.1,400,916.8,-0.6,-0.5,-1.8,25,-40.5046,398.799,917.196,-0.664417,-0.504822,-1.74536,
2026_07_06_21_07_56.145,3.867,33.1,0,0.761,0,0,0,0, ,0,0,0,0,0, ,-40.8,399.5,917.7,-0.6,-0.5,-1.8,25,-40.5318,398.857,917.199,-0.660492,-0.504528,-1.74869,
2026_07_06_21_07_56.166,3.867,33,0,0.761,0,0,0,0, ,0,0,0,0,0, ,-41.1,399.6,917.1,-0.6,-0.5,-1.8,25,-40.5573,398.9,917.211,-0.656806,-0.504252,-1.75181,
2026_07_06_21_07_56.185,3.867,33.1,0,0.761,0,0,0,0, ,0,0,0,0,0, ,-40.8,399.4,916.9,-0.5,-0.5,-1.8,25,-40.5812,398.936,917.199,-0.650297,-0.503993,-1.75475,
2026_07_06_21_07_56.205,3.867,33.1,0,0.761,0,0,0,0, ,0,0,0,0,0, ,-40.4,398.9,915.2,-0.6,-0.5,-1.8,25,-40.5823,398.949,917.129,-0.644185,-0.50375,-1.75751,
2026_07_06_21_07_56.225,3.867,33.1,0,0.761,0,0,0,0, ,0,0,0,0,0, ,-40.4,398.4,917.1,-0.7,-0.6,-1.8,25,-40.5712,398.931,917.069,-0.64454,-0.506568,-1.7601,
2026_07_06_21_07_56.244,3.867,33,0,0.76,0,0,0,0, ,0,0,0,0,0, ,-40.1,398.5,918.4,-0.6,-0.5,-1.7,25,-40.5517,398.902,917.11,-0.644872,-0.509215,-1.75948,
2026_07_06_21_07_56.263,3.867,33.1,0,0.76,0,0,0,0, ,0,0,0,0,0, ,-40.7,399.6,917.9,-0.7,-0.5,-1.8,25,-40.5424,398.911,917.174,-0.645185,-0.508653,-1.7589,
2026_07_06_21_07_56.283,3.867,33.1,0,0.762,0,0,0,0, ,0,0,0,0,0, ,-40.7,398.9,916,-0.7,-0.5,-1.7,25,-40.552,398.931,917.16,-0.648525,-0.508126,-1.75836,
2026_07_06_21_07_56.303,3.867,33.1,0,0.76,0,0,0,0, ,0,0,0,0,0, ,-39.3,400.3,916.5,-0.7,-0.5,-1.7,25,-40.5184,398.972,917.105,-0.651662,-0.507631,-1.75481,
2026_07_06_21_07_56.323,3.867,33.2,0,0.762,0,0,0,0, ,0,0,0,0,0, ,-41.2,399.7,917.9,-0.6,-0.5,-1.8,25,-40.502,399.035,917.11,-0.651561,-0.507166,-1.75451,
2026_07_06_21_07_56.343,3.867,33.1,0,0.76,0,0,0,0, ,0,0,0,0,0, ,-40.4,399.6,917.7,-0.7,-0.5,-1.7,25,-40.5202,399.072,917.153,-0.651465,-0.506729,-1.75424,
2026_07_06_21_07_56.363,3.867,33.2,0,0.761,0,0,0,0, ,0,0,0,0,0, ,-40.4,398,916.9,-0.6,-0.5,-1.8,25,-40.5129,399.056,917.162,-0.651376,-0.506319,-1.75398,
2026_07_06_21_07_56.383,3.867,33.1,0,0.762,0,0,0,0, ,0,0,0,0,0, ,-41.8,399,917.9,-0.6,-0.5,-1.7,25,-40.5486,399.022,917.176,-0.648245,-0.505934,-1.75374,
2026_07_06_21_07_56.402,3.867,33.2,0,0.761,0,0,0,0, ,0,0,0,0,0, ,-41,398.5,916.9,-0.5,-0.5,-1.7,25,-40.6005,399.005,917.19,-0.642259,-0.505572,-1.75046,
2026_07_06_21_07_56.422,3.867,33.2,0,0.761,0,0,0,0, ,0,0,0,0,0, ,-41.7,399.6,917.7,-0.8,-0.5,-1.8,25,-40.6462,399.008,917.196,-0.64273,-0.505233,-1.75043,
2026_07_06_21_07_56.442,3.867,33.1,0,0.76,0,0,0,0, ,0,0,0,0,0, ,-41,398.5,916.1,-0.6,-0.5,-1.7,25,-40.6891,399.011,917.178,-0.64622,-0.504914,-1.75041,
2026_07_06_21_07_56.462,3.867,33.1,0,0.761,0,0,0,0, ,0,0,0,0,0, ,-40.1,399.2,918.3,-0.6,-0.5,-1.7,25,-40.6806,399.001,917.18,-0.643404,-0.504614,-1.74734,
2026_07_06_21_07_56.482,3.867,33,0,0.762,0,0,0,0, ,0,0,0,0,0, ,-39.6,399.7,918.3,-0.6,-0.5,-1.8,25,-40.63,399.028,917.248,-0.640759,-0.504333,-1.7475,
2026_07_06_21_07_56.502,3.867,33.1,0,0.761,0,0,0,0, ,0,0,0,0,0, ,-40.1,399.1,917.8,-0.6,-0.6,-1.8,25,-40.5825,399.051,917.297,-0.638275,-0.507116,-1.7507,
2026_07_06_21_07_56.522,3.867,33.2,0,0.761,0,0,0,0, ,0,0,0,0,0, ,-39.6,398.6,918.5,-0.5,-0.5,-1.7,25,-40.5378,399.039,917.349,-0.632896,-0.509729,-1.75066,
2026_07_06_21_07_56.542,3.867,33,0,0.762,0,0,0,0, ,0,0,0,0,0, ,-40,397.7,916.2,-0.6,-0.5,-1.8,25,-40.4929,398.984,917.349,-0.627844,-0.509136,-1.75062,
2026_07_06_21_07_56.567,3.867,33.1,0,0.762,0,0,0,0, ,0,0,0,0,0, ,-39.6,399.1,917.1,-0.7,-0.6,-1.7,25,-40.4506,398.949,917.306,-0.629194,-0.511627,-1.75058,
2026_07_06_21_07_56.581,3.867,33.1,0,0.76,0,0,0,0, ,0,0,0,0,0, ,-40.2,399.5,916.5,-0.7,-0.5,-1.8,25,-40.4171,398.97,917.275,-0.633509,-0.513965,-1.75054,
2026_07_06_21_07_56.600,3.867,33.1,0,0.76,0,0,0,0, ,0,0,0,0,0, ,-41.2,399.2,917.7,-0.8,-0.5,-1.8,25,-40.4343,398.993,917.265,-0.640608,-0.513114,-1.75356,
2026_07_06_21_07_56.620,3.867,33.1,0,0.762,0,0,0,0, ,0,0,0,0,0, ,-40.6,397.4,916.9,-0.7,-0.5,-1.7,25,-40.4627,398.951,917.267,-0.647274,-0.512315,-1.75334,
2026_07_06_21_07_56.640,3.867,33.1,0,0.762,0,0,0,0, ,0,0,0,0,0, ,-40.8,399,918.2,-0.9,-0.5,-1.7,25,-40.4772,398.905,917.284,-0.656581,-0.511564,-1.75009,
2026_07_06_21_07_56.660,3.867,33.1,0,0.761,0,0,0,0, ,0,0,0,0,0, ,-41,400.5,917.3,-0.7,-0.5,-1.9,25,-40.5029,398.957,917.313,-0.66532,-0.51086,-1.75313,
2026_07_06_21_07_56.679,3.867,33.1,0,0.762,0,0,0,0, ,0,0,0,0,0, ,-39.6,399.1,918,-0.6,-0.5,-1.8,25,-40.4906,399.008,917.333,-0.664387,-0.510198,-1.75903,
2026_07_06_21_07_56.699,3.867,33.1,0,0.761,0,0,0,0, ,0,0,0,0,0, ,-40.4,398.5,915.7,-0.6,-0.5,-1.8,25,-40.4607,398.995,917.304,-0.660463,-0.509577,-1.76153,
2026_07_06_21_07_56.719,3.867,33.2,0,0.761,0,0,0,0, ,0,0,0,0,0, ,-40.5,398.3,916.7,-0.5,-0.5,-1.8,25,-40.46,398.959,917.236,-0.653732,-0.508993,-1.76387,
2026_07_06_21_07_56.739,3.867,33.1,0,0.762,0,0,0,0, ,0,0,0,0,0, ,-40.5,399.2,916.9,-0.6,-0.5,-1.8,25,-40.4625,398.946,917.21,-0.647411,-0.508445,-1.76608,
2026_07_06_21_07_56.758,3.867,33.1,0,0.761,0,0,0,0, ,0,0,0,0,0, ,-40.4,398.3,917.1,-0.6,-0.4,-1.6,25,-40.4617,398.934,917.197,-0.644522,-0.504883,-1.76205,
2026_07_06_21_07_56.779,3.867,33.2,0,0.761,0,0,0,0, ,0,0,0,0,0, ,-40.6,398,915.7,-0.6,-0.5,-1.8,25,-40.464,398.887,917.148,-0.641809,-0.501539,-1.75827,
2026_07_06_21_07_56.799,3.867,33.1,0,0.76,0,0,0,0, ,0,0,0,0,0, ,-40.5,398.1,916.5,-0.6,-0.5,-1.7,25,-40.4693,398.836,917.085,-0.639261,-0.501445,-1.75776,
2026_07_06_21_07_56.818,3.867,33.1,0,0.761,0,0,0,0, ,0,0,0,0,0, ,-40.2,397.5,918.9,-0.6,-0.5,-1.7,25,-40.462,398.773,917.122,-0.636868,-0.501357,-1.75424,
2026_07_06_21_07_56.838,3.867,33.1,0,0.762,0,0,0,0, ,0,0,0,0,0, ,-40.2,398,917.4,-0.8,-0.5,-1.8,25,-40.446,398.71,917.185,-0.640715,-0.501274,-1.75399,
2026_07_06_21_07_56.858,3.867,33.2,0,0.761,0,0,0,0, ,0,0,0,0,0, ,-39.7,401.2,918.4,-1,-0.5,-1.8,25,-40.4158,398.764,917.228,-0.656516,-0.501197,-1.75679,
2026_07_06_21_07_56.877,3.867,33.1,0,0.76,0,0,0,0, ,0,0,0,0,0, ,-39.6,403,915.1,-5.2,-0.6,-1.9,25,-40.3691,398.968,917.199,-0.805415,-0.504171,-1.76247,
2026_07_06_21_07_56.897,3.867,33.1,0,0.76,0,0,0,0, ,0,0,0,0,0, ,-41.3,379.3,922.4,-4.9,-0.6,-1.8,25,-40.3741,398.491,917.294,-1.06407,-0.51001,-1.7678,
2026_07_06_21_07_56.917,3.867,33.1,0,0.76,0,0,0,0, ,0,0,0,0,0, ,-40.8,405.8,915.7,-4.5,-0.6,-1.8,25,-40.4153,398.129,917.401,-1.28563,-0.515494,-1.76977,
2026_07_06_21_07_56.938,3.867,33.1,0,0.762,0,0,0,0, ,0,0,0,0,0, ,-41.1,401.4,918.5,-1.6,-0.6,-1.8,25,-40.4478,398.463,917.382,-1.39315,-0.520644,-1.77161,
2026_07_06_21_07_56.957,3.867,33.1,0,0.762,0,0,0,0, ,0,0,0,0,0, ,-38.2,367.1,921.6,-5.7,0,-0.5,25,-40.3992,397.597,917.545,-1.53068,-0.507198,-1.73373,
2026_07_06_21_07_56.977,3.867,33.2,0,0.762,0,0,0,0, ,0,0,0,0,0, ,-30.1,384.6,923.2,-15.9,3.3,7.6,25,-40.0184,396.271,917.841,-2.09553,-0.375744,-1.41175,
2026_07_06_21_07_56.997,3.867,33.1,0,0.76,0,0,0,0, ,0,0,0,0,0, ,188.7,424.5,910.7,2.7,6.4,14,25,-32.7474,396.776,917.786,-2.37002,-0.0573002,-0.667598,
2026_07_06_21_07_57.016,3.867,33.2,0,0.762,0,0,0,0, ,0,0,0,0,0, ,173.4,532.2,887.5,48.4,16.1,33.6,25,-19.7192,401.747,916.648,-0.668642,0.631738,0.823396,
2026_07_06_21_07_57.036,3.867,33.1,0,0.762,0,0,0,0, ,0,0,0,0,0, ,-99.9,399.6,920.4,-3.3,18.9,28.2,25,-16.2781,405.656,915.874,0.746244,1.65965,2.65619,
2026_07_06_21_07_57.056,3.867,33.1,0,0.761,0,0,0,0, ,0,0,0,0,0, ,-356.2,307.9,989,-0.7,1.7,22.2,25,-29.1829,402.493,918.24,0.578895,2.18617,4.02995,
2026_07_06_21_07_57.076,3.867,33.1,0,0.76,0,0,0,0, ,0,0,0,0,0, ,-148.5,385.4,914.3,-0.3,-2.6,-6.7,25,-42.7822,399.09,920.276,0.51315,2.02553,4.25664,
2026_07_06_21_07_57.099,3.867,33,0,0.759,0,0,0,0, ,0,0,0,0,0, ,73.8,446.6,936.7,-2.6,2,-12.2,25,-42.4511,400.121,920.594,0.39352,1.88382,3.42139,
2026_07_06_21_07_57.116,3.867,33,0,0.761,0,0,0,0, ,0,0,0,0,0, ,-39.4,549.9,888.1,-19.7,12,-2.7,25,-38.8162,406.1,920.095,-0.309913,2.19558,2.75892,
2026_07_06_21_07_57.136,3.867,33.1,0,0.762,0,0,0,0, ,0,0,0,0,0, ,-45.4,424.1,915.2,-9.3,10.8,8.6,25,-39.0345,411.03,918.971,-1.17462,2.75648,2.77056,
2026_07_06_21_07_57.155,3.867,33.1,0,0.76,0,0,0,0, ,0,0,0,0,0, ,-9.2,279.1,997,-16.5,8.5,-13.6,25,-38.3195,407.409,921.233,-1.88914,3.17655,2.44939,
2026_07_06_21_07_57.175,3.867,33.1,0,0.76,0,0,0,0, ,0,0,0,0,0, ,-46,431.1,879.2,-4.5,8.3,-14.2,25,-37.6663,404.221,922.261,-2.41386,3.49486,1.4531,
2026_07_06_21_07_57.194,3.867,33.1,0,0.761,0,0,0,0, ,0,0,0,0,0, ,-50.7,449.3,929.3,4,1.4,-12.1,25,-38.3173,406.414,921.164,-2.282,3.57743,0.563221,
2026_07_06_21_07_57.214,3.867,33.1,0,0.761,0,0,0,0, ,0,0,0,0,0, ,-49.8,349.4,922.2,5.2,6,-4.7,25,-39.0444,405.983,921.443,-1.86263,3.5849,0.0170248,
2026_07_06_21_07_57.234,3.867,33,0,0.761,0,0,0,0, ,0,0,0,0,0, ,-49.6,414.1,939.6,7.5,1.4,-11.3,25,-39.6938,404.506,922.019,-1.36217,3.59192,-0.471513,
2026_07_06_21_07_57.253,3.867,33,0,0.762,0,0,0,0, ,0,0,0,0,0, ,-78.6,433.9,984.1,-7,9.1,-9.7,25,-41.181,405.694,924.447,-1.26393,3.69296,-1.08262,
2026_07_06_21_07_57.274,3.867,33.1,0,0.761,0,0,0,0, ,0,0,0,0,0, ,-83.1,388,1067.3,-17,10.2,-11.4,25,-43.5984,406.015,930.617,-1.91816,4.05596,-1.65954,
2026_07_06_21_07_57.294,3.867,33.1,0,0.76,0,0,0,0, ,0,0,0,0,0, ,-102.1,433.5,979.2,-21.2,8.4,-12.3,25,-46.5844,406.303,936.262,-2.96518,4.37552,-2.28052,
2026_07_06_21_07_57.313,3.867,33.1,0,0.761,0,0,0,0, ,0,0,0,0,0, ,-103.8,364.9,897.5,-27.1,4.4,-8.8,25,-50.0192,405.87,936.389,-4.25613,4.49889,-2.78444,
2026_07_06_21_07_57.333,3.867,33.2,0,0.76,0,0,0,0, ,0,0,0,0,0, ,-55.7,385.1,910,-23.4,-4.5,-6.5,25,-51.8309,403.989,934.4,-5.53544,4.22169,-3.08094,
2026_07_06_21_07_57.353,3.867,33.1,0,0.762,0,0,0,0, ,0,0,0,0,0, ,-81.2,397.5,921,-19.5,-10.5,-3.6,25,-52.8436,403.216,933.248,-6.50523,3.5074,-3.20093,
2026_07_06_21_07_57.373,3.867,33,0,0.761,0,0,0,0, ,0,0,0,0,0, ,-122.4,352.9,920.1,-22.2,-9,-3.6,25,-55.8269,401.509,932.474,-7.37937,2.69953,-3.22525,
2026_07_06_21_07_57.393,3.867,33.2,0,0.761,0,0,0,0, ,0,0,0,0,0, ,-133.1,356.9,969.8,-20.5,-3.3,-8.8,25,-60.2097,398.668,933.235,-8.2307,2.16026,-3.40652,
2026_07_06_21_07_57.412,3.867,33.1,0,0.76,0,0,0,0, ,0,0,0,0,0, ,-109.3,373.9,1015.8,-19.3,0.4,-10.9,25,-63.9263,396.641,936.864,-8.9418,1.94026,-3.79917,
2026_07_06_21_07_57.432,3.867,33.1,0,0.761,0,0,0,0, ,0,0,0,0,0, ,-97.4,399.6,1049.6,-16.5,4.2,-12.5,25,-66.3287,396.038,942.704,-9.48769,1.96218,-4.28063,
2026_07_06_21_07_57.452,3.867,33.1,0,0.761,0,0,0,0, ,0,0,0,0,0, ,-95.8,389.8,1053.2,-19.8,2.6,-4.9,25,-68.1733,395.957,949.328,-10.0156,2.0498,-4.54993,
2026_07_06_21_07_57.472,3.867,33.1,0,0.761,0,0,0,0, ,0,0,0,0,0, ,-85.6,279.9,1006.1,-25.1,-4,-9.2,25,-69.5461,392.233,954.223,-10.7733,1.88223,-4.70228,
2026_07_06_21_07_57.492,3.867,33.1,0,0.762,0,0,0,0, ,0,0,0,0,0, ,-116.2,338.7,963.5,-25.3,-5.4,-19.3,25,-71.4567,387.179,956.086,-11.6524,1.48113,-5.28409,
2026_07_06_21_07_57.511,3.867,33.1,0,0.761,0,0,0,0, ,0,0,0,0,0, ,-98.9,317.9,902.8,-23.2,1.1,-14.2,25,-73.6561,383.591,954.688,-12.4201,1.25986,-5.9828,
2026_07_06_21_07_57.532,3.867,33.1,0,0.761,0,0,0,0, ,0,0,0,0,0, ,-94.3,298.3,902,-2.4,9.1,-19.5,25,-75.0543,378.991,951.502,-12.4432,1.49386,-6.64502,
2026_07_06_21_07_57.551,3.867,33.1,0,0.76,0,0,0,0, ,0,0,0,0,0, ,-73.8,421.8,1141.6,-26.9,-11.8,-16.9,25,-75.6024,377.837,955.786,-12.5777,1.32057,-7.34915,
2026_07_06_21_07_57.570,3.867,33.2,0,0.761,0,0,0,0, ,0,0,0,0,0, ,-89.1,175.7,797.2,-14.3,-20.9,-8.3,25,-75.9588,373.018,956.615,-13.0666,0.243767,-7.66912,
2026_07_06_21_07_57.591,3.867,33.1,0,0.761,0,0,0,0, ,0,0,0,0,0, ,-66,243.7,877.5,13.2,-7.8,-22.1,25,-76.0557,363.065,949.348,-12.3038,-0.645541,-8.12804,
2026_07_06_21_07_57.610,3.867,33,0,0.76,0,0,0,0, ,0,0,0,0,0, ,-80.4,316.6,878.9,24.8,1.6,-18.5,25,-75.8817,358.013,945.012,-10.3963,-0.79511,-8.86977,
2026_07_06_21_07_57.635,3.867,33.1,0,0.761,0,0,0,0, ,0,0,0,0,0, ,-85.5,272.4,808.9,17.9,1.5,-13.6,25,-76.3124,354.142,938.851,-8.46171,-0.652204,-9.30731,
2026_07_06_21_07_57.649,3.867,33.1,0,0.759,0,0,0,0, ,0,0,0,0,0, ,-85.6,262.9,915.4,36.4,12.8,-21,25,-76.8754,348.872,934.177,-6.29163,-0.176758,-9.79437,
2026_07_06_21_07_57.670,3.867,33.1,0,0.76,0,0,0,0, ,0,0,0,0,0, ,-99.1,346.3,957.7,25.2,12.1,-23.5,25,-77.8183,346.174,934.321,-4.03136,0.592685,-10.5534,
2026_07_06_21_07_57.689,3.867,33.1,0,0.762,0,0,0,0, ,0,0,0,0,0, ,-78.3,321.1,960.5,23.9,13.6,-24.2,25,-78.4814,345.414,935.831,-2.28968,1.33962,-11.3636,
2026_07_06_21_07_57.709,3.867,33.2,0,0.761,0,0,0,0, ,0,0,0,0,0, ,-68.7,364.9,966.7,21.2,13.2,-16.9,25,-78.1779,345.267,937.523,-0.776011,2.07455,-11.9234,
2026_07_06_21_07_57.729,3.867,33.1,0,0.763,0,0,0,0, ,0,0,0,0,0, ,-77.8,333.7,978.7,2.5,10,-10.7,25,-77.8776,345.513,939.667,-0.00661387,2.655,-12.0378,
2026_07_06_21_07_57.749,3.867,33.2,0,0.761,0,0,0,0, ,0,0,0,0,0, ,-74,342.1,939.6,-6.3,8.2,-8.2,25,-77.7571,345.049,940.854,-0.121992,3.04774,-11.8801,
2026_07_06_21_07_57.770,3.867,33.1,0,0.761,0,0,0,0, ,0,0,0,0,0, ,-86.4,317,895.7,-8.3,8.1,-9.1,25,-77.906,344.104,939.44,-0.559402,3.35866,-11.6833,
2026_07_06_21_07_57.789,3.867,33.1,0,0.761,0,0,0,0, ,0,0,0,0,0, ,-99.8,299,873.5,-5.1,9.1,-11.4,25,-78.8318,341.904,936.098,-0.933595,3.67806,-11.5959,
2026_07_06_21_07_57.808,3.867,33.1,0,0.762,0,0,0,0, ,0,0,0,0,0, ,-105.2,298.2,863.6,-2.6,13.8,-15.6,25,-80.2741,339.265,931.982,-1.11131,4.15166,-11.712,
2026_07_06_21_07_57.828,3.867,33.1,0,0.761,0,0,0,0, ,0,0,0,0,0, ,-93.5,307.1,887.4,-3.6,21.2,-16.9,25,-81.4366,337.034,928.54,-1.2325,4.96507,-11.9885,
2026_07_06_21_07_57.848,3.867,33.1,0,0.762,0,0,0,0, ,0,0,0,0,0, ,-105.3,347.1,878.2,-0.8,25.4,-15.3,25,-82.5312,336.429,925.753,-1.29146,6.08236,-12.239,
2026_07_06_21_07_57.868,3.867,33.1,0,0.761,0,0,0,0, ,0,0,0,0,0, ,-123.6,373.1,906,0.5,32.9,6.5,25,-84.4763,337.871,923.702,-1.2219,7.48804,-11.7613,
2026_07_06_21_07_57.888,3.867,33.2,0,0.761,0,0,0,0, ,0,0,0,0,0, ,-132.5,282.9,939.5,-4.6,32.5,5,25,-87.1315,337.27,923.644,-1.27236,9.0244,-10.6942,
2026_07_06_21_07_57.907,3.867,33.1,0,0.761,0,0,0,0, ,0,0,0,0,0, ,-164,298.2,925.1,-0.2,24.2,-0.5,25,-90.8559,334.423,924.172,-1.34108,10.2021,-9.90546,
2026_07_06_21_07_57.927,3.867,33,0,0.761,0,0,0,0, ,0,0,0,0,0, ,-182.8,261.2,951.6,-4.9,14.7,-11.2,25,-95.886,331.088,925.036,-1.41474,10.7656,-9.65833,
2026_07_06_21_07_57.947,3.867,33.1,0,0.762,0,0,0,0, ,0,0,0,0,0, ,-175.6,361.9,926.6,8.3,15.3,-9.7,25,-100.963,329.897,925.893,-1.22494,11.0236,-9.70657,
2026_07_06_21_07_57.967,3.867,33.2,0,0.76,0,0,0,0, ,0,0,0,0,0, ,-198.4,307.8,938.9,-3.2,18,-12.8,25,-106.206,330.199,926.311,-0.994905,11.3665,-9.80062,
2026_07_06_21_07_57.987,3.867,33.1,0,0.764,0,0,0,0, ,0,0,0,0,0, ,-220.3,333.4,952.3,-1.9,14.5,-16,25,-112.491,329.614,927.486,-1.08967,11.6641,-10.0809,
2026_07_06_21_07_58.006,3.867,33.1,0,0.761,0,0,0,0, ,0,0,0,0,0, ,-189.2,382.5,930,-3.8,10.6,-11,25,-118.113,331.341,928.319,-1.19694,11.7181,-10.2892,
2026_07_06_21_07_58.026,3.867,33.2,0,0.76,0,0,0,0, ,0,0,0,0,0, ,-199.7,357.2,919.7,-1.5,7.5,-3.2,25,-122.765,333.688,928.107,-1.28548,11.5555,-10.0949,
2026_07_06_21_07_58.046,3.867,33.1,0,0.761,0,0,0,0, ,0,0,0,0,0, ,-200.6,331.5,938.8,-0.9,4.1,-0.5,25,-127.481,334.337,928.177,-1.28028,11.2048,-9.59248,
2026_07_06_21_07_58.065,3.867,33.1,0,0.761,0,0,0,0, ,0,0,0,0,0, ,-212.5,334.7,918.4,-2.3,-0.5,-0.5,25,-132.299,334.262,928.203,-1.29976,10.6317,-9.03841,
2026_07_06_21_07_58.085,3.867,33.1,0,0.761,0,0,0,0, ,0,0,0,0,0, ,-222.5,341.4,900.8,-0.8,-2.9,0,25,-137.491,334.493,927.069,-1.31501,9.88019,-8.50286,
2026_07_06_21_07_58.105,3.867,33.1,0,0.761,0,0,0,0, ,0,0,0,0,0, ,-217.8,335,926.6,0.8,-0.9,0.5,25,-142.528,334.719,926.254,-1.23487,9.16234,-7.96949,
2026_07_06_21_07_58.125,3.867,33.1,0,0.761,0,0,0,0, ,0,0,0,0,0, ,-209.9,332,924.6,-0.7,-0.1,0.2,25,-146.874,334.644,926.215,-1.15658,8.57354,-7.46252,
2026_07_06_21_07_58.145,3.867,33.1,0,0.761,0,0,0,0, ,0,0,0,0,0, ,-205.2,329.1,918.2,0.2,0.5,1.6,25,-150.572,334.395,925.921,-1.10133,8.06328,-6.95293,
2026_07_06_21_07_58.165,3.867,33.1,0,0.761,0,0,0,0, ,0,0,0,0,0, ,-214.2,328.2,929.9,1,-2.8,0.5,25,-154.175,334.045,925.807,-0.997658,7.50184,-6.46525,
2026_07_06_21_07_58.185,3.867,33.1,0,0.761,0,0,0,0, ,0,0,0,0,0, ,-205.8,333,936.5,0.6,-5.4,0.5,25,-157.577,333.835,926.258,-0.888113,6.79485,-6.0408,
2026_07_06_21_07_58.204,3.867,33.1,0,0.76,0,0,0,0, ,0,0,0,0,0, ,-206.9,327.5,923.5,0.7,-5,0.1,25,-160.549,333.616,926.486,-0.794384,6.06392,-5.65441,
2026_07_06_21_07_58.224,3.867,33.1,0,0.761,0,0,0,0, ,0,0,0,0,0, ,-213.7,322,929.3,-0.9,-5.3,-1,25,-163.58,333.076,926.48,-0.75207,5.38057,-5.33727,
2026_07_06_21_07_58.244,3.867,33.1,0,0.761,0,0,0,0, ,0,0,0,0,0, ,-207.8,334.3,918.5,-2.7,-6.9,-1.1,25,-166.455,332.776,926.323,-0.815928,4.68097,-5.07601,
2026_07_06_21_07_58.263,3.867,33.1,0,0.76,0,0,0,0, ,0,0,0,0,0, ,-194.4,331.2,905.7,-0.5,-3.1,-0.5,25,-168.566,332.774,925.456,-0.863708,4.09104,-4.81544,
2026_07_06_21_07_58.283,3.867,33.1,0,0.761,0,0,0,0, ,0,0,0,0,0, ,-192.9,331,921.7,-0.1,-1.3,-0.5,25,-170.095,332.672,924.74,-0.829357,3.70768,-4.55247,
2026_07_06_21_07_58.303,3.867,33.1,0,0.762,0,0,0,0, ,0,0,0,0,0, ,-183.4,330.2,927.8,-2,-3.4,-0.6,25,-171.195,332.546,924.741,-0.842802,3.33854,-4.30857,
2026_07_06_21_07_58.324,3.867,33.1,0,0.761,0,0,0,0, ,0,0,0,0,0, ,-180.4,334.1,932.1,-2.3,-5.1,-0.5,25,-171.847,332.522,925.058,-0.92246,2.87611,-4.07953,
2026_07_06_21_07_58.343,3.867,33.1,0,0.761,0,0,0,0, ,0,0,0,0,0, ,-178.2,331.2,915.2,-4.2,-4.2,-0.3,25,-172.301,332.53,924.972,-1.06429,2.41749,-3.85531,
2026_07_06_21_07_58.362,3.867,33.2,0,0.761,0,0,0,0, ,0,0,0,0,0, ,-185.7,325.3,903.5,-4.7,-0.7,-0.6,25,-172.889,332.269,924.02,-1.27061,2.12088,-3.6478,
2026_07_06_21_07_58.382,3.867,33.1,0,0.762,0,0,0,0, ,0,0,0,0,0, ,-175.5,332.7,892.5,-0.3,-0.3,0,25,-173.359,332.07,922.435,-1.34553,1.96117,-3.44379,
2026_07_06_21_07_58.402,3.867,33.2,0,0.761,0,0,0,0, ,0,0,0,0,0, ,-170.7,337.4,925,2,0.1,0.5,25,-173.343,332.251,921.601,-1.21174,1.83556,-3.2187,
2026_07_06_21_07_58.422,3.867,33.1,0,0.762,0,0,0,0, ,0,0,0,0,0, ,-176.2,331.4,945.3,-0.3,-1.3,1.1,25,-173.35,332.382,922.426,-1.0861,1.68715,-2.97381,
2026_07_06_21_07_58.442,3.867,33.1,0,0.761,0,0,0,0, ,0,0,0,0,0, ,-194.2,337.2,909.7,-1.2,-2.1,1.7,25,-174.072,332.499,922.736,-1.06562,1.48074,-2.70728,
2026_07_06_21_07_58.462,3.867,33,0,0.763,0,0,0,0, ,0,0,0,0,0, ,-206.2,335.9,911.3,0.2,-0.5,0.3,25,-175.664,332.746,921.99,-1.03115,1.31129,-2.48137,
2026_07_06_21_07_58.482,3.867,33.1,0,0.762,0,0,0,0, ,0,0,0,0,0, ,-199.4,334.4,925.9,-0.1,0,-0.2,25,-177.318,332.892,921.783,-0.965268,1.21615,-2.32712,
2026_07_06_21_07_58.502,3.867,33.1,0,0.761,0,0,0,0, ,0,0,0,0,0, ,-195.1,339.7,926,-1.1,0.9,-1,25,-178.532,333.146,922.037,-0.94301,1.16946,-2.22187,
2026_07_06_21_07_58.521,3.867,33,0,0.761,0,0,0,0, ,0,0,0,0,0, ,-196.8,334.1,924.6,0,1,-0.2,25,-179.594,333.375,922.236,-0.919061,1.15609,-2.12304,
2026_07_06_21_07_58.541,3.867,33.1,0,0.761,0,0,0,0, ,0,0,0,0,0, ,-197,327.5,922.2,0.4,-0.9,0,25,-180.648,333.218,922.307,-0.850868,1.08869,-1.99976,
2026_07_06_21_07_58.561,3.867,33,0,0.76,0,0,0,0, ,0,0,0,0,0, ,-199.9,336.5,918.4,-0.1,-1,-0.8,25,-181.733,333.144,922.185,-0.789878,0.964455,-1.90227,
2026_07_06_21_07_58.583,3.867,33.1,0,0.761,0,0,0,0, ,0,0,0,0,0, ,-198.8,340.8,914.6,-0.8,0,-1,25,-182.807,333.479,921.838,-0.769166,0.875215,-1.8412,
2026_07_06_21_07_58.601,3.867,33.1,0,0.762,0,0,0,0, ,0,0,0,0,0, ,-189.3,326.9,928.2,1.2,1.9,-0.6,25,-183.492,333.502,921.812,-0.710108,0.879772,-1.77775,
2026_07_06_21_07_58.620,3.867,33.1,0,0.761,0,0,0,0, ,0,0,0,0,0, ,-190.1,336.4,939.2,0.7,-1.1,0.3,25,-183.87,333.389,922.536,-0.608945,0.850536,-1.67856,
2026_07_06_21_07_58.640,3.867,33.1,0,0.759,0,0,0,0, ,0,0,0,0,0, ,-194.8,334.8,929.6,0.5,-1.4,0.5,25,-184.393,333.524,923.259,-0.535275,0.722534,-1.5519,
2026_07_06_21_07_58.660,3.867,33.1,0,0.761,0,0,0,0, ,0,0,0,0,0, ,-193.2,331.7,909.4,1.4,0.8,0.6,25,-184.978,333.507,923.03,-0.444766,0.660224,-1.42381,
2026_07_06_21_07_58.680,3.867,33.1,0,0.761,0,0,0,0, ,0,0,0,0,0, ,-203.2,330,900.2,3.4,1,0.1,25,-185.784,333.345,921.919,-0.271413,0.674835,-1.31572,
2026_07_06_21_07_58.699,3.867,33.1,0,0.761,0,0,0,0, ,0,0,0,0,0, ,-197.2,335.6,935.3,2.2,-0.3,-0.8,25,-186.663,333.312,921.665,-0.0842489,0.655041,-1.25687,
2026_07_06_21_07_58.719,3.867,33.1,0,0.761,0,0,0,0, ,0,0,0,0,0, ,-193.9,337,939,0,0.5,-0.4,25,-187.204,333.494,922.609,-0.0120837,0.621218,-1.21684,
2026_07_06_21_07_58.739,3.867,33.1,0,0.76,0,0,0,0, ,0,0,0,0,0, ,-197,333,919.4,-0.3,-0.1,-0.9,25,-187.707,333.586,923.01,-0.020488,0.59555,-1.1823,
2026_07_06_21_07_58.759,3.867,33.1,0,0.76,0,0,0,0, ,0,0,0,0,0, ,-196.7,339.1,915.7,0,-1.9,-1.1,25,-188.264,333.736,922.678,-0.0283801,0.498321,-1.17119,
2026_07_06_21_07_58.779,3.867,33.2,0,0.761,0,0,0,0, ,0,0,0,0,0, ,-192.8,337.5,920.4,1.2,-0.6,-0.3,25,-188.659,334.014,922.396,0.00991178,0.391783,-1.14248,
2026_07_06_21_07_58.799,3.867,33.1,0,0.761,0,0,0,0, ,0,0,0,0,0, ,-196.8,342.1,938.1,1.1,-1.4,-1.2,25,-189.033,334.367,922.813,0.0793859,0.306971,-1.11856,
2026_07_06_21_07_58.818,3.867,33.1,0,0.761,0,0,0,0, ,0,0,0,0,0, ,-196.7,349.4,940.5,-0.1,-1.3,-1.2,25,-189.503,335.06,923.818,0.105017,0.205999,-1.12352,
2026_07_06_21_07_58.838,3.867,33.1,0,0.761,0,0,0,0, ,0,0,0,0,0, ,-194.7,338.9,918,0.5,1,-0.9,25,-189.881,335.614,924.149,0.110805,0.184306,-1.11904,
2026_07_06_21_07_58.858,3.867,33.1,0,0.762,0,0,0,0, ,0,0,0,0,0, ,-181,346.3,918.4,1.6,0,-0.8,25,-189.757,336.04,923.786,0.168037,0.203543,-1.10265,
2026_07_06_21_07_58.877,3.867,33.2,0,0.761,0,0,0,0, ,0,0,0,0,0, ,-183.1,347,931.8,1.6,-1.2,-0.6,25,-189.288,336.686,923.866,0.255297,0.154577,-1.07811,
2026_07_06_21_07_58.897,3.867,33,0,0.761,0,0,0,0, ,0,0,0,0,0, ,-190.4,347.2,948.2,-0.5,-3.6,-1.5,25,-189.133,337.321,924.85,0.273256,-0.00109225,-1.0764,
2026_07_06_21_07_58.917,3.867,33.1,0,0.761,0,0,0,0, ,0,0,0,0,0, ,-186.2,345.9,920.1,-2.1,-4.6,-0.9,25,-189.082,337.883,925.416,0.177386,-0.250869,-1.08393,
2026_07_06_21_07_58.937,3.867,33.2,0,0.761,0,0,0,0, ,0,0,0,0,0, ,-197.9,343.1,915,-2.3,-4.1,-0.8,25,-189.263,338.287,924.937,0.0325137,-0.50066,-1.06968,
2026_07_06_21_07_58.956,3.867,33.1,0,0.761,0,0,0,0, ,0,0,0,0,0, ,-184.2,341.9,921.9,-2.8,-4.5,-2.3,25,-189.372,338.543,924.542,-0.124858,-0.732182,-1.09895,
2026_07_06_21_07_58.982,3.867,33.1,0,0.76,0,0,0,0, ,0,0,0,0,0, ,-178.4,347.4,913.2,-2.5,-4.1,-1.6,25,-188.88,338.915,924.116,-0.278734,-0.949596,-1.15081,
2026_07_06_21_07_58.996,3.867,33.1,0,0.761,0,0,0,0, ,0,0,0,0,0, ,-177,353.1,906.7,0.3,-3.1,0.2,25,-188.199,339.606,923.252,-0.32878,-1.11111,-1.12334,
2026_07_06_21_07_59.016,3.867,33.1,0,0.76,0,0,0,0, ,0,0,0,0,0, ,-185.6,340,924.1,1.5,-2.9,0.8,25,-187.778,340.029,922.774,-0.253901,-1.22621,-1.02441,
2026_07_06_21_07_59.036,3.867,33.1,0,0.762,0,0,0,0, ,0,0,0,0,0, ,-188.9,338,937.2,-0.7,-3.3,-0.4,25,-187.746,339.967,923.254,-0.214054,-1.34039,-0.949802,
2026_07_06_21_07_59.056,3.867,33.2,0,0.761,0,0,0,0, ,0,0,0,0,0, ,-183.3,346.4,923.8,-1.2,-2.9,-1.2,25,-187.646,340.103,923.695,-0.258901,-1.44762,-0.940673,
2026_07_06_21_07_59.076,3.867,33.2,0,0.762,0,0,0,0, ,0,0,0,0,0, ,-178.5,348,915.4,0.5,-1.8,-1.6,25,-187.235,340.535,923.446,-0.264452,-1.50261,-0.968663,
2026_07_06_21_07_59.096,3.867,33.1,0,0.761,0,0,0,0, ,0,0,0,0,0, ,-176.1,344.3,923.8,0.1,-2.1,-1.2,25,-186.629,340.877,923.212,-0.230056,-1.52987,-0.994948,
2026_07_06_21_07_59.117,3.867,33.1,0,0.761,0,0,0,0, ,0,0,0,0,0, ,-176.6,344.8,921.2,-0.7,-3.6,-1.4,25,-186.003,341.101,923.168,-0.234318,-1.61032,-1.01354,
2026_07_06_21_07_59.135,3.867,33.1,0,0.761,0,0,0,0, ,0,0,0,0,0, ,-177.8,344.4,915.7,0,-3.5,-0.8,25,-185.467,341.314,922.881,-0.241367,-1.72852,-1.01881,
2026_07_06_21_07_59.155,3.867,33.1,0,0.762,0,0,0,0, ,0,0,0,0,0, ,-183.1,338.5,917.2,0.5,-1.4,-0.9,25,-185.161,341.323,922.489,-0.211425,-1.77248,-1.00852,
2026_07_06_21_07_59.174,3.867,33.1,0,0.761,0,0,0,0, ,0,0,0,0,0, ,-182.4,338.5,922.9,0.4,-1.6,-1.2,25,-185.014,341.151,922.34,-0.171119,-1.75588,-1.01105,
2026_07_06_21_07_59.194,3.867,33.2,0,0.761,0,0,0,0, ,0,0,0,0,0, ,-175.1,342.8,936.1,-0.3,-3.7,-1.3,25,-184.632,341.12,922.776,-0.157645,-1.81036,-1.02561,
2026_07_06_21_07_59.214,3.867,33.1,0,0.761,0,0,0,0, ,0,0,0,0,0, ,-169.3,355.8,933.4,-0.5,-5.1,-1.1,25,-183.875,341.619,923.506,-0.172413,-1.96817,-1.03624,
2026_07_06_21_07_59.234,3.867,33.2,0,0.761,0,0,0,0, ,0,0,0,0,0, ,-182.8,341.4,922.4,-1.4,-3,-1.3,25,-183.398,342.044,923.774,-0.219797,-2.09503,-1.04621,
2026_07_06_21_07_59.254,3.867,33.1,0,0.762,0,0,0,0, ,0,0,0,0,0, ,-172.7,340.3,920.5,-1.7,-2.9,-2.2,25,-183.054,341.971,923.632,-0.300857,-2.14713,-1.0891,
2026_07_06_21_07_59.273,3.867,33.2,0,0.761,0,0,0,0, ,0,0,0,0,0, ,-160.7,346.3,915.4,-1.7,-3,-1.8,25,-182.057,342.052,923.286,-0.386117,-2.19606,-1.14461,
2026_07_06_21_07_59.293,3.867,33.1,0,0.761,0,0,0,0, ,0,0,0,0,0, ,-165.1,354.3,916.6,-0.8,-3.4,-0.3,25,-180.89,342.555,922.842,-0.43876,-2.25723,-1.13884,
2026_07_06_21_07_59.313,3.867,33.1,0,0.76,0,0,0,0, ,0,0,0,0,0, ,-178.7,345,920.6,0.8,-2.4,0,25,-180.342,342.987,922.583,-0.412023,-2.2964,-1.07859,
2026_07_06_21_07_59.333,3.867,33.1,0,0.761,0,0,0,0, ,0,0,0,0,0, ,-176.6,340.5,940,0,-1.6,-1.3,25,-180.178,342.973,923.054,-0.36254,-2.27834,-1.05247,
2026_07_06_21_07_59.353,3.867,33.1,0,0.762,0,0,0,0, ,0,0,0,0,0, ,-164.6,348.3,938.9,-2.3,-1.4,-1.5,25,-179.594,343.06,924.053,-0.410526,-2.23091,-1.07365,
2026_07_06_21_07_59.373,3.867,33.1,0,0.762,0,0,0,0, ,0,0,0,0,0, ,-174.4,343,928.2,-3.1,-2.9,-1.8,25,-178.979,343.218,924.632,-0.550041,-2.22598,-1.10877,
2026_07_06_21_07_59.392,3.867,33.2,0,0.76,0,0,0,0, ,0,0,0,0,0, ,-171.8,341.5,908.3,-1.4,-1.8,-1.5,25,-178.621,343.159,924.243,-0.653632,-2.23354,-1.14175,
2026_07_06_21_07_59.412,3.867,33.1,0,0.762,0,0,0,0, ,0,0,0,0,0, ,-172.6,340.5,914.4,0.5,-1.7,-2.3,25,-178.23,343.027,923.457,-0.641223,-2.20407,-1.18796,
2026_07_06_21_07_59.431,3.867,33.1,0,0.76,0,0,0,0, ,0,0,0,0,0, ,-166.5,349.4,935.4,-0.5,-2.4,-2.2,25,-177.701,343.144,923.545,-0.602149,-2.19468,-1.25267,
2026_07_06_21_07_59.451,3.867,33.1,0,0.761,0,0,0,0, ,0,0,0,0,0, ,-163.5,342.7,936.2,-0.9,-0.9,-2.1,25,-176.927,343.321,924.292,-0.608112,-2.16149,-1.30735,
2026_07_06_21_07_59.472,3.867,33.1,0,0.76,0,0,0,0, ,0,0,0,0,0, ,-161.7,344.3,930.2,-1.5,-1.2,-1.5,25,-176.054,343.332,924.835,-0.64418,-2.09376,-1.33738,
2026_07_06_21_07_59.492,3.867,33.1,0,0.76,0,0,0,0, ,0,0,0,0,0, ,-164.7,342.8,926.1,-1.6,-2.6,-1.3,25,-175.27,343.345,925.037,-0.699378,-2.08195,-1.34119,
2026_07_06_21_07_59.512,3.867,33.1,0,0.762,0,0,0,0, ,0,0,0,0,0, ,-166,339.3,914.6,-1.6,-3.2,-1.4,25,-174.666,343.206,924.751,-0.75426,-2.1318,-1.34173,
2026_07_06_21_07_59.532,3.867,33.1,0,0.762,0,0,0,0, ,0,0,0,0,0, ,-168.5,338.5,911.2,-0.7,-1.6,-2.1,25,-174.214,342.943,924.029,-0.778375,-2.14815,-1.36661,
2026_07_06_21_07_59.552,3.867,33.2,0,0.761,0,0,0,0, ,0,0,0,0,0, ,-162.9,342.7,918.4,1,-1.9,-1.8,25,-173.695,342.8,923.467,-0.721802,-2.12388,-1.40216,
2026_07_06_21_07_59.571,3.867,33.1,0,0.76,0,0,0,0, ,0,0,0,0,0, ,-158.6,348,938.9,-0.5,-2.2,-0.8,25,-172.906,342.956,923.782,-0.662583,-2.11938,-1.39593,
2026_07_06_21_07_59.591,3.867,33.2,0,0.76,0,0,0,0, ,0,0,0,0,0, ,-166.3,344.3,935.7,-1.4,-2.6,-1.4,25,-172.269,343.15,924.606,-0.680098,-2.13648,-1.3779,
2026_07_06_21_07_59.611,3.867,33.2,0,0.762,0,0,0,0, ,0,0,0,0,0, ,-162.1,342.7,919.9,-1.2,-1.2,-2.3,25,-171.777,343.172,924.801,-0.717873,-2.12207,-1.40667,
2026_07_06_21_07_59.630,3.867,33.1,0,0.762,0,0,0,0, ,0,0,0,0,0, ,-151.9,349.8,914.9,-0.1,-1.7,-2.2,25,-170.877,343.359,924.35,-0.713737,-2.08112,-1.45806,
2026_07_06_21_07_59.655,3.867,33.1,0,0.762,0,0,0,0, ,0,0,0,0,0, ,-155.7,349.1,931,0.3,-2.2,-1,25,-169.836,343.73,924.264,-0.66415,-2.07313,-1.46671,
2026_07_06_21_07_59.670,3.867,33.1,0,0.762,0,0,0,0, ,0,0,0,0,0, ,-153.5,338,936.1,-1.4,-3.6,-1.1,25,-168.908,343.719,924.83,-0.657194,-2.12351,-1.44131,
2026_07_06_21_07_59.690,3.867,33.1,0,0.762,0,0,0,0, ,0,0,0,0,0, ,-156.8,347.1,928.8,-2,-4.5,-1,25,-168.069,343.648,925.295,-0.72074,-2.24091,-1.41747,
2026_07_06_21_07_59.709,3.867,33,0,0.762,0,0,0,0, ,0,0,0,0,0, ,-153.9,349.6,920.4,-1.7,-2,-0.8,25,-167.294,343.935,925.252,-0.789554,-2.3024,-1.38594,
2026_07_06_21_07_59.729,3.867,33.1,0,0.761,0,0,0,0, ,0,0,0,0,0, ,-156.3,351.4,918,-1,-0.2,-0.4,25,-166.551,344.335,924.883,-0.823706,-2.22913,-1.33804,
2026_07_06_21_07_59.749,3.867,33,0,0.761,0,0,0,0, ,0,0,0,0,0, ,-158.2,341.9,916.5,0.9,0.6,-0.5,25,-165.984,344.476,924.418,-0.776559,-2.0811,-1.28393,
2026_07_06_21_07_59.768,3.867,33.1,0,0.76,0,0,0,0, ,0,0,0,0,0, ,-161.2,338.1,938.1,0.8,-0.3,-0.8,25,-165.602,344.203,924.594,-0.67744,-1.94515,-1.2453,
2026_07_06_21_07_59.788,3.867,33.2,0,0.761,0,0,0,0, ,0,0,0,0,0, ,-158.5,347.4,943.8,-1.1,-1.7,-1.6,25,-165.251,344.115,925.591,-0.645299,-1.88755,-1.24254,
2026_07_06_21_07_59.808,3.867,33.2,0,0.76,0,0,0,0, ,0,0,0,0,0, ,-164.5,350.7,926,-1.6,-1.8,-2,25,-165.022,344.415,926.158,-0.688242,-1.87917,-1.27651,
2026_07_06_21_07_59.828,3.867,33.2,0,0.762,0,0,0,0, ,0,0,0,0,0, ,-158.5,346.6,918.5,-0.5,-0.8,-1.7,25,-164.808,344.673,925.92,-0.710287,-1.84388,-1.31146,
2026_07_06_21_07_59.848,3.867,33.2,0,0.761,0,0,0,0, ,0,0,0,0,0, ,-153.5,347.1,922.6,-0.1,0.1,-1.5,25,-164.271,344.806,925.593,-0.685285,-1.75284,-1.32904,
2026_07_06_21_07_59.868,3.867,33.1,0,0.76,0,0,0,0, ,0,0,0,0,0, ,-158.9,340.4,925.6,0.2,-0.7,-1.3,25,-163.779,344.742,925.502,-0.640478,-1.66431,-1.33336,
2026_07_06_21_07_59.888,3.867,33.1,0,0.761,0,0,0,0, ,0,0,0,0,0, ,-159.1,343.5,934.3,0.3,-1.6,-1.2,25,-163.488,344.572,925.773,-0.586215,-1.63297,-1.32828,
2026_07_06_21_07_59.908,3.867,33.2,0,0.76,0,0,0,0, ,0,0,0,0,0, ,-154.7,346.6,941.7,-0.1,-2.1,-0.3,25,-163.087,344.601,926.518,-0.544399,-1.6462,-1.29304,
2026_07_06_21_07_59.927,3.867,33.1,0,0.761,0,0,0,0, ,0,0,0,0,0, ,-168.3,347.9,925.7,-0.2,-1.3,-1.2,25,-162.99,344.762,926.955,-0.520365,-1.64947,-1.25995,
2026_07_06_21_07_59.947,3.867,33.2,0,0.762,0,0,0,0, ,0,0,0,0,0, ,-161.9,343.9,921.1,0.2,-0.6,-2.3,25,-163.118,344.831,926.739,-0.488655,-1.60685,-1.28981,
2026_07_06_21_07_59.967,3.867,33.2,0,0.762,0,0,0,0, ,0,0,0,0,0, ,-153.1,343.6,941.1,-0.6,-0.2,-2.7,25,-162.776,344.766,927.005,-0.471065,-1.53331,-1.36356,
2026_07_06_21_07_59.987,3.867,33.2,0,0.761,0,0,0,0, ,0,0,0,0,0, ,-145.9,348.2,929.9,-1,-1.3,-1.8,25,-161.967,344.835,927.522,-0.49111,-1.48557,-1.41758,
2026_07_06_21_08_00.007,3.867,33.1,0,0.76,0,0,0,0, ,0,0,0,0,0, ,-153,349.4,920.7,0.3,-2.4,-1,25,-161.204,345.076,927.387,-0.482511,-1.50778,-1.41651,
2026_07_06_21_08_00.026,3.867,33,0,0.762,0,0,0,0, ,0,0,0,0,0, ,-160.1,353.1,906.7,0.5,-1.9,-0.7,25,-160.921,345.453,926.553,-0.428733,-1.54692,-1.38198,
2026_07_06_21_08_00.046,3.867,33,0,0.76,0,0,0,0, ,0,0,0,0,0, ,-164.1,347.5,921.8,1,1,-1.4,25,-160.993,345.748,925.803,-0.356904,-1.48007,-1.36175,
2026_07_06_21_08_00.066,3.867,33.1,0,0.76,0,0,0,0, ,0,0,0,0,0, ,-155.2,338.1,943.2,-2.5,0.8,-2.7,25,-160.911,345.568,926.211,-0.380858,-1.33504,-1.40369,
2026_07_06_21_08_00.085,3.867,33.1,0,0.761,0,0,0,0, ,0,0,0,0,0, ,-145.3,348.6,931.6,-1.4,-1.2,-2.7,25,-160.261,345.433,926.893,-0.476478,-1.26587,-1.48269,
2026_07_06_21_08_00.105,3.867,33.1,0,0.761,0,0,0,0, ,0,0,0,0,0, ,-143.3,355.9,923.5,0.1,-1.3,-0.4,25,-159.288,345.849,926.933,-0.487052,-1.2649,-1.48679,
2026_07_06_21_08_00.125,3.867,33.1,0,0.76,0,0,0,0, ,0,0,0,0,0, ,-153.4,348,923.3,0.4,-1.4,-0.4,25,-158.622,346.22,926.718,-0.442138,-1.27009,-1.42056,
2026_07_06_21_08_00.145,3.867,33.1,0,0.761,0,0,0,0, ,0,0,0,0,0, ,-159.5,341.9,927.4,0,-0.2,-1.7,25,-158.49,346.143,926.634,-0.403007,-1.24144,-1.39798,
2026_07_06_21_08_00.165,3.867,33.1,0,0.76,0,0,0,0, ,0,0,0,0,0, ,-153.5,346.5,924.9,-1.5,0,-2,25,-158.368,346.025,926.605,-0.424152,-1.17189,-1.42553,
2026_07_06_21_08_00.185,3.867,33.2,0,0.762,0,0,0,0, ,0,0,0,0,0, ,-152.5,350.2,927.4,-1.1,-1.3,-1.7,25,-158.041,346.166,926.577,-0.477524,-1.14008,-1.45139,
2026_07_06_21_08_00.205,3.867,33.1,0,0.761,0,0,0,0, ,0,0,0,0,0, ,-156.2,352.7,915.8,-0.9,-1.8,-1.4,25,-157.816,346.488,926.274,-0.509363,-1.16506,-1.4574,
2026_07_06_21_08_00.224,3.867,33.2,0,0.76,0,0,0,0, ,0,0,0,0,0, ,-159.3,350.5,926.5,0.6,-1.4,-1.8,25,-157.812,346.8,925.962,-0.487464,-1.19157,-1.46609,
2026_07_06_21_08_00.244,3.867,33.1,0,0.762,0,0,0,0, ,0,0,0,0,0, ,-157.3,348.5,938.4,-0.4,-0.8,-1.6,25,-157.842,346.964,926.357,-0.451665,-1.18599,-1.48035,
2026_07_06_21_08_00.264,3.867,33.1,0,0.761,0,0,0,0, ,0,0,0,0,0, ,-157.8,345.8,933.8,-0.9,-0.7,-1.8,25,-157.824,346.976,926.951,-0.463751,-1.15942,-1.49373,
2026_07_06_21_08_00.284,3.867,33.1,0,0.761,0,0,0,0, ,0,0,0,0,0, ,-154.4,347.1,921.8,-1.7,-1.4,-1.9,25,-157.719,346.944,927.002,-0.51471,-1.15275,-1.51544,
2026_07_06_21_08_00.304,3.867,33.2,0,0.76,0,0,0,0, ,0,0,0,0,0, ,-153.5,340.9,923.9,-1.2,-0.5,-2.3,25,-157.489,346.764,926.749,-0.571704,-1.1404,-1.55106,
2026_07_06_21_08_00.324,3.867,33,0,0.76,0,0,0,0, ,0,0,0,0,0, ,-145.6,348.8,921.7,-0.5,-0.7,-1.8,25,-157.006,346.648,926.509,-0.588663,-1.10747,-1.58147,
2026_07_06_21_08_00.344,3.867,33.1,0,0.76,0,0,0,0, ,0,0,0,0,0, ,-151.8,346.3,933.1,-0.2,-1.6,-1.6,25,-156.499,346.703,926.563,-0.57412,-1.11006,-1.58869,
2026_07_06_21_08_00.363,3.867,33.1,0,0.761,0,0,0,0, ,0,0,0,0,0, ,-153,351,936.2,-1.1,-1.9,-1.4,25,-156.25,346.821,927.056,-0.578744,-1.14905,-1.58329,
2026_07_06_21_08_00.382,3.867,33.1,0,0.762,0,0,0,0, ,0,0,0,0,0, ,-156.4,346.6,930.2,-2,-0.9,-1.5,25,-156.155,346.942,927.43,-0.637929,-1.16435,-1.57516,
2026_07_06_21_08_00.403,3.867,33.1,0,0.76,0,0,0,0, ,0,0,0,0,0, ,-154.7,341.1,913,-1.4,-0.3,-1.8,25,-156.118,346.753,927.075,-0.702649,-1.12996,-1.57972,
2026_07_06_21_08_00.423,3.867,33.1,0,0.76,0,0,0,0, ,0,0,0,0,0, ,-150.3,339.8,925.5,-0.6,-0.1,-2.1,25,-155.898,346.369,926.598,-0.720769,-1.07329,-1.60229,
2026_07_06_21_08_00.442,3.867,33,0,0.761,0,0,0,0, ,0,0,0,0,0, ,-155.2,344.1,926.3,-0.9,-1.4,-2.1,25,-155.706,346.1,926.556,-0.72255,-1.05359,-1.63262,
2026_07_06_21_08_00.462,3.867,33.1,0,0.761,0,0,0,0, ,0,0,0,0,0, ,-155,346.9,915.1,-0.3,-0.6,-1.7,25,-155.669,346.063,926.199,-0.715083,-1.05032,-1.64891,
2026_07_06_21_08_00.485,3.867,33.1,0,0.761,0,0,0,0, ,0,0,0,0,0, ,-152.9,344.2,918.3,0.7,0.7,-1.8,25,-155.564,346.032,925.62,-0.65932,-0.983271,-1.65507,
2026_07_06_21_08_00.502,3.867,33.1,0,0.761,0,0,0,0, ,0,0,0,0,0, ,-148.5,347.1,938.7,0.3,-0.2,-2,25,-155.268,346.009,925.795,-0.588674,-0.908118,-1.67,
2026_07_06_21_08_00.521,3.867,33.1,0,0.761,0,0,0,0, ,0,0,0,0,0, ,-150.7,346.4,938.1,-0.6,-1.9,-2.1,25,-154.923,346.054,926.564,-0.561942,-0.916764,-1.69315,
2026_07_06_21_08_00.541,3.867,33.1,0,0.762,0,0,0,0, ,0,0,0,0,0, ,-154.9,351.9,920.2,-0.8,-1.9,-1.2,25,-154.793,346.243,926.721,-0.570355,-0.97668,-1.69052,
2026_07_06_21_08_00.561,3.867,33.1,0,0.76,0,0,0,0, ,0,0,0,0,0, ,-152.8,346.8,924,0,-0.9,-1.9,25,-154.736,346.432,926.44,-0.559974,-1.00248,-1.68196,
2026_07_06_21_08_00.581,3.867,33.1,0,0.76,0,0,0,0, ,0,0,0,0,0, ,-142.8,344.7,935.1,-0.1,-0.5,-2.2,25,-154.313,346.39,926.629,-0.528897,-0.984044,-1.70439,
2026_07_06_21_08_00.601,3.867,33.2,0,0.762,0,0,0,0, ,0,0,0,0,0, ,-142.3,347.9,939.9,-0.9,-1.4,-1.8,25,-153.596,346.385,927.292,-0.527136,-0.98197,-1.7224,
2026_07_06_21_08_00.621,3.867,33.1,0,0.76,0,0,0,0, ,0,0,0,0,0, ,-146.4,357.2,935.1,-1.2,-2.8,-1.2,25,-153.033,346.761,927.914,-0.558998,-1.0501,-1.70885,
2026_07_06_21_08_00.640,3.867,33.1,0,0.76,0,0,0,0, ,0,0,0,0,0, ,-157.4,348.7,919.3,-1.2,-0.5,-1.3,25,-152.964,347.138,927.87,-0.598059,-1.08666,-1.68089,
2026_07_06_21_08_00.660,3.867,33.1,0,0.761,0,0,0,0, ,0,0,0,0,0, ,-151.4,343.8,923,-0.8,0.9,-2.2,25,-153.051,347.084,927.461,-0.622553,-1.00825,-1.6851,
2026_07_06_21_08_00.680,3.867,33.1,0,0.761,0,0,0,0, ,0,0,0,0,0, ,-152.7,345.5,933.9,-1,0.1,-3.1,25,-152.99,346.935,927.521,-0.63946,-0.916341,-1.7439,
2026_07_06_21_08_00.700,3.867,33.2,0,0.76,0,0,0,0, ,0,0,0,0,0, ,-142.5,351.6,933.5,-2.3,-1,-2.3,25,-152.662,347.034,927.897,-0.701039,-0.887924,-1.80216,
2026_07_06_21_08_00.720,3.867,33.1,0,0.763,0,0,0,0, ,0,0,0,0,0, ,-147.9,345.3,920.6,-2,-1.4,-1.7,25,-152.207,347.12,927.846,-0.789335,-0.906941,-1.81422,
2026_07_06_21_08_00.740,3.867,33.1,0,0.763,0,0,0,0, ,0,0,0,0,0, ,-147.9,351.5,915.2,-0.4,-2,-1.3,25,-151.945,347.198,927.24,-0.81436,-0.955268,-1.79507,
2026_07_06_21_08_00.759,3.867,33.1,0,0.76,0,0,0,0, ,0,0,0,0,0, ,-153.3,347,936.6,-0.4,-1.6,-0.9,25,-151.863,347.323,927.158,-0.78911,-1.00674,-1.75271,
2026_07_06_21_08_00.779,3.867,33.1,0,0.761,0,0,0,0, ,0,0,0,0,0, ,-151.3,350.8,930.5,-1.2,-1.1,-1.4,25,-151.889,347.419,927.548,-0.789774,-1.02766,-1.71598,
2026_07_06_21_08_00.800,3.867,33,0,0.761,0,0,0,0, ,0,0,0,0,0, ,-150.3,348.5,926.2,-0.7,-0.1,-1.1,25,-151.823,347.555,927.597,-0.799538,-1.0016,-1.68759,
2026_07_06_21_08_00.818,3.867,33.2,0,0.762,0,0,0,0, ,0,0,0,0,0, ,-150,350,932.6,0,-1.7,-1.1,25,-151.721,347.658,927.706,-0.772144,-0.995409,-1.65178,
2026_07_06_21_08_00.838,3.867,33.2,0,0.761,0,0,0,0, ,0,0,0,0,0, ,-149.6,349.8,932.8,0.1,-1,-1.4,25,-151.604,347.795,928.011,-0.722045,-1.01702,-1.6273,
2026_07_06_21_08_00.858,3.867,33.1,0,0.762,0,0,0,0, ,0,0,0,0,0, ,-153,346.4,929.1,-0.4,0.2,-1.7,25,-151.585,347.814,928.19,-0.687186,-0.979418,-1.62259,
2026_07_06_21_08_00.882,3.867,33.2,0,0.761,0,0,0,0, ,0,0,0,0,0, ,-148,348.7,926.7,-0.7,-0.1,-1.5,25,-151.519,347.798,928.172,-0.678826,-0.916687,-1.62121,
2026_07_06_21_08_00.898,3.867,33.1,0,0.76,0,0,0,0, ,0,0,0,0,0, ,-151.2,342.5,931.2,-0.6,0.2,-1.8,25,-151.402,347.664,928.22,-0.677069,-0.85778,-1.62297,
2026_07_06_21_08_00.917,3.867,33.1,0,0.762,0,0,0,0, ,0,0,0,0,0, ,-142.2,352,944,-1.7,-1,-1.8,25,-151.116,347.638,928.791,-0.705888,-0.829884,-1.63375,
2026_07_06_21_08_00.937,3.867,33.1,0,0.761,0,0,0,0, ,0,0,0,0,0, ,-149.4,353,931.1,-2.3,-1.6,-1.3,25,-150.792,347.935,929.325,-0.784748,-0.858532,-1.62865,
2026_07_06_21_08_00.958,3.867,33.2,0,0.759,0,0,0,0, ,0,0,0,0,0, ,-153.3,344.1,914.4,-1.8,-0.2,-1.4,25,-150.826,347.972,928.924,-0.86185,-0.861059,-1.61167,
2026_07_06_21_08_00.978,3.867,33.1,0,0.761,0,0,0,0, ,0,0,0,0,0, ,-148.9,333.2,912.8,-0.9,2.1,-1.9,25,-150.843,347.404,927.99,-0.891596,-0.750697,-1.61401,
2026_07_06_21_08_00.997,3.867,33.1,0,0.761,0,0,0,0, ,0,0,0,0,0, ,-137.6,340.2,929.4,-0.8,0,-1.6,25,-150.38,346.752,927.571,-0.889062,-0.640967,-1.62229,
2026_07_06_21_08_01.017,3.867,33.1,0,0.761,0,0,0,0, ,0,0,0,0,0, ,-149.9,348.7,925.2,-0.4,-3,-0.4,25,-149.976,346.612,927.554,-0.871447,-0.693315,-1.58437,
2026_07_06_21_08_01.036,3.867,33.2,0,0.76,0,0,0,0, ,0,0,0,0,0, ,-154.6,352.6,927,0.3,-3.9,0,25,-150.114,346.858,927.465,-0.82139,-0.8613,-1.50001,
2026_07_06_21_08_01.056,3.867,33.2,0,0.76,0,0,0,0, ,0,0,0,0,0, ,-155.5,341.1,940.1,0.4,-0.6,-0.9,25,-150.415,346.857,927.836,-0.750008,-0.945924,-1.43603,
2026_07_06_21_08_01.076,3.867,33.1,0,0.76,0,0,0,0, ,0,0,0,0,0, ,-150.5,348.1,947.1,-2,-0.7,-1.9,25,-150.573,346.72,928.797,-0.753055,-0.927891,-1.43383,
2026_07_06_21_08_01.096,3.867,33,0,0.762,0,0,0,0, ,0,0,0,0,0, ,-145.7,350.2,932.8,-3,-1.4,-2.2,25,-150.422,346.868,929.476,-0.859509,-0.935332,-1.47138,
2026_07_06_21_08_01.116,3.867,33.2,0,0.761,0,0,0,0, ,0,0,0,0,0, ,-147.3,347.9,916.6,-2.3,-0.4,-1.8,25,-150.183,347.001,929.185,-0.968617,-0.933179,-1.50359,
2026_07_06_21_08_01.135,3.867,33.1,0,0.761,0,0,0,0, ,0,0,0,0,0, ,-147,347.1,915,-0.6,0,-1.5,25,-149.998,347.031,928.37,-0.997951,-0.888501,-1.51251,
2026_07_06_21_08_01.156,3.867,33.1,0,0.761,0,0,0,0, ,0,0,0,0,0, ,-153.3,345.4,935.6,-0.4,0,-1.8,25,-150.007,346.984,928.183,-0.967608,-0.834358,-1.52089,
2026_07_06_21_08_01.175,3.867,33.1,0,0.761,0,0,0,0, ,0,0,0,0,0, ,-149.1,348,949.4,-2.1,-1,-2.1,25,-150.08,346.966,929.055,-0.984816,-0.813983,-1.54704,
2026_07_06_21_08_01.195,3.867,33.1,0,0.763,0,0,0,0, ,0,0,0,0,0, ,-148.9,345,927.4,-3,0,-2.2,25,-150.014,346.938,929.625,-1.08019,-0.79485,-1.58378,
2026_07_06_21_08_01.215,3.867,33.2,0,0.761,0,0,0,0, ,0,0,0,0,0, ,-144,348,920.1,-1.8,-0.3,-1.8,25,-149.797,346.911,929.267,-1.16062,-0.755554,-1.60915,
2026_07_06_21_08_01.234,3.867,33.2,0,0.76,0,0,0,0, ,0,0,0,0,0, ,-153.5,340,925.6,-1.2,-0.1,-1.9,25,-149.733,346.734,928.876,-1.1813,-0.7217,-1.62382,
2026_07_06_21_08_01.254,3.867,33.2,0,0.76,0,0,0,0, ,0,0,0,0,0, ,-143.3,337.8,933.9,-2.3,0,-2.3,25,-149.652,346.256,928.929,-1.21596,-0.680768,-1.65284,
2026_07_06_21_08_01.274,3.867,33.2,0,0.76,0,0,0,0, ,0,0,0,0,0, ,-152.3,337.7,923.8,-2.4,-0.2,-2.3,25,-149.539,345.738,928.924,-1.28506,-0.645378,-1.69228,
2026_07_06_21_08_01.294,3.867,33.1,0,0.761,0,0,0,0, ,0,0,0,0,0, ,-143.5,348.9,923.8,-1.1,-0.2,-2.1,25,-149.439,345.589,928.612,-1.31339,-0.618238,-1.72322,
2026_07_06_21_08_01.314,3.867,33.1,0,0.759,0,0,0,0, ,0,0,0,0,0, ,-140.6,346.5,933.1,-1,0.4,-1.7,25,-148.989,345.718,928.602,-1.29734,-0.57447,-1.73399,
2026_07_06_21_08_01.334,3.867,33.1,0,0.76,0,0,0,0, ,0,0,0,0,0, ,-141.4,344.1,930.6,-0.8,-0.4,-1.4,25,-148.502,345.693,928.8,-1.27313,-0.539463,-1.72278,
2026_07_06_21_08_01.354,3.867,33,0,0.761,0,0,0,0, ,0,0,0,0,0, ,-148,336.6,921.2,-1,-0.7,-0.9,25,-148.271,345.367,928.623,-1.25039,-0.540105,-1.68787,
2026_07_06_21_08_01.373,3.867,33.2,0,0.763,0,0,0,0, ,0,0,0,0,0, ,-152.4,334.2,937.7,-1.2,-0.9,-1.4,25,-148.388,344.76,928.674,-1.24123,-0.555943,-1.6551,
2026_07_06_21_08_01.393,3.867,33.1,0,0.762,0,0,0,0, ,0,0,0,0,0, ,-150.8,342.6,926.5,-1.6,0,-2,25,-148.584,344.372,928.882,-1.2509,-0.549487,-1.65783,
2026_07_06_21_08_01.413,3.867,33.1,0,0.762,0,0,0,0, ,0,0,0,0,0, ,-145.5,345.7,919.1,-0.8,0.1,-1.2,25,-148.557,344.359,928.512,-1.2478,-0.512956,-1.65431,
2026_07_06_21_08_01.433,3.867,33.2,0,0.762,0,0,0,0, ,0,0,0,0,0, ,-150,339.5,920.7,-0.3,-0.4,-0.6,25,-148.508,344.251,927.987,-1.20528,-0.490838,-1.60834,
2026_07_06_21_08_01.453,3.867,33.2,0,0.761,0,0,0,0, ,0,0,0,0,0, ,-158.4,333,933.1,-0.4,-0.2,-1.5,25,-148.855,343.764,927.921,-1.15316,-0.479209,-1.57432,
2026_07_06_21_08_01.472,3.867,33.2,0,0.761,0,0,0,0, ,0,0,0,0,0, ,-151.7,340.9,928.3,-1,0.1,-1.9,25,-149.233,343.349,928.09,-1.12555,-0.453054,-1.58198,
2026_07_06_21_08_01.491,3.867,33.2,0,0.761,0,0,0,0, ,0,0,0,0,0, ,-153.3,338.8,920.8,0.1,-0.3,-2.3,25,-149.432,343.135,927.874,-1.08438,-0.43154,-1.61354,
2026_07_06_21_08_01.512,3.867,33.1,0,0.761,0,0,0,0, ,0,0,0,0,0, ,-146.9,343.7,923,0.8,-0.2,-1.4,25,-149.472,343.021,927.51,-0.990879,-0.420477,-1.62795,
2026_07_06_21_08_01.532,3.867,33.1,0,0.762,0,0,0,0, ,0,0,0,0,0, ,-150.6,340.4,932.8,0.9,0.5,-1.8,25,-149.428,342.961,927.534,-0.8787,-0.385714,-1.62625,
2026_07_06_21_08_01.552,3.867,33.2,0,0.761,0,0,0,0, ,0,0,0,0,0, ,-141.3,339.3,942.6,-0.1,-0.3,-1.7,25,-149.216,342.772,928.154,-0.800779,-0.356115,-1.63379,
2026_07_06_21_08_01.571,3.867,33.2,0,0.761,0,0,0,0, ,0,0,0,0,0, ,-149.1,340.9,928.4,-0.5,-0.9,-1.2,25,-148.972,342.609,928.601,-0.770263,-0.370977,-1.62259,
2026_07_06_21_08_01.591,3.867,33.2,0,0.762,0,0,0,0, ,0,0,0,0,0, ,-156.2,341.5,919,0,0,-1.3,25,-149.196,342.523,928.303,-0.73856,-0.375793,-1.59989,
2026_07_06_21_08_01.610,3.867,33.2,0,0.761,0,0,0,0, ,0,0,0,0,0, ,-160.2,337.6,936.7,0.7,0.9,-2.2,25,-149.744,342.342,928.275,-0.672226,-0.325471,-1.60903,
2026_07_06_21_08_01.630,3.867,33.1,0,0.761,0,0,0,0, ,0,0,0,0,0, ,-160.2,342.2,944.3,-0.6,-0.4,-3.2,25,-150.382,342.193,929.02,-0.628215,-0.290403,-1.67552,
2026_07_06_21_08_01.650,3.867,33.1,0,0.762,0,0,0,0, ,0,0,0,0,0, ,-150.2,343.9,937.2,-2,0.8,-3.3,25,-150.675,342.245,929.735,-0.669152,-0.260519,-1.77146,
2026_07_06_21_08_01.670,3.867,33,0,0.76,0,0,0,0, ,0,0,0,0,0, ,-147.4,346.3,934,-1.8,0.5,-3,25,-150.561,342.419,930.092,-0.744157,-0.205034,-1.85546,
2026_07_06_21_08_01.690,3.867,33.1,0,0.761,0,0,0,0, ,0,0,0,0,0, ,-145.2,344.9,934.4,-0.8,-1.5,-2.2,25,-150.301,342.613,930.342,-0.778028,-0.223009,-1.90084,
2026_07_06_21_08_01.711,3.867,33.1,0,0.762,0,0,0,0, ,0,0,0,0,0, ,-156.8,346.4,925,-1,-1.3,-1.5,25,-150.344,342.798,930.303,-0.785461,-0.294732,-1.89774,
2026_07_06_21_08_01.729,3.867,33.1,0,0.759,0,0,0,0, ,0,0,0,0,0, ,-158.2,338.6,932.8,-1.1,-0.1,-2.2,25,-150.78,342.78,930.218,-0.801581,-0.319428,-1.89483,
2026_07_06_21_08_01.749,3.867,33.2,0,0.762,0,0,0,0, ,0,0,0,0,0, ,-154.9,339.3,923.9,-1.7,0.1,-2.8,25,-151.132,342.547,930.104,-0.838047,-0.299963,-1.93171,
2026_07_06_21_08_01.770,3.867,33.1,0,0.762,0,0,0,0, ,0,0,0,0,0, ,-145.7,345.4,918.3,-0.5,-1.4,-2.5,25,-151.081,342.535,929.555,-0.85401,-0.321293,-1.97548,
2026_07_06_21_08_01.789,3.867,33.2,0,0.762,0,0,0,0, ,0,0,0,0,0, ,-140.9,343.7,928.5,0.6,-3.5,-0.9,25,-150.607,342.657,929.18,-0.798922,-0.451011,-1.95869,
2026_07_06_21_08_01.809,3.867,33.1,0,0.763,0,0,0,0, ,0,0,0,0,0, ,-149.4,337.7,925.6,0.7,-3.7,-0.8,25,-150.274,342.538,929.05,-0.710628,-0.642903,-1.89113,
2026_07_06_21_08_01.829,3.867,33.2,0,0.76,0,0,0,0, ,0,0,0,0,0, ,-159.3,337.4,917.8,0.2,-2.4,-1.5,25,-150.523,342.234,928.602,-0.639903,-0.789585,-1.84597,
2026_07_06_21_08_01.849,3.867,33.2,0,0.761,0,0,0,0, ,0,0,0,0,0, ,-156.4,343.2,920.2,0.1,-0.8,-2.3,25,-150.969,342.116,928.017,-0.591768,-0.83897,-1.84926,
2026_07_06_21_08_01.868,3.867,33.1,0,0.762,0,0,0,0, ,0,0,0,0,0, ,-145.2,346.6,935,0.4,1.6,-2.9,25,-150.959,342.286,927.992,-0.540473,-0.76347,-1.89501,
2026_07_06_21_08_01.888,3.867,33.1,0,0.761,0,0,0,0, ,0,0,0,0,0, ,-143.6,347.9,941.7,-0.2,-0.3,-2.1,25,-150.559,342.588,928.623,-0.501444,-0.677337,-1.93187,
2026_07_06_21_08_01.908,3.867,33.1,0,0.763,0,0,0,0, ,0,0,0,0,0, ,-144.1,346.8,945.1,-0.7,-1.8,-2,25,-150.15,342.879,929.524,-0.498309,-0.700046,-1.93907,
2026_07_06_21_08_01.927,3.867,33.1,0,0.761,0,0,0,0, ,0,0,0,0,0, ,-151.2,347,930.7,-1.1,-0.5,-1.8,25,-149.998,343.124,930.034,-0.522787,-0.727465,-1.93669,
2026_07_06_21_08_01.947,3.867,33.1,0,0.76,0,0,0,0, ,0,0,0,0,0, ,-149.6,346.1,928.2,-0.7,-0.1,-2.3,25,-150.022,343.332,929.998,-0.545773,-0.701416,-1.9436,
2026_07_06_21_08_01.973,3.867,33.2,0,0.762,0,0,0,0, ,0,0,0,0,0, ,-143.7,345.8,944.2,-0.5,-0.5,-2,25,-149.817,343.492,930.376,-0.549078,-0.676955,-1.95617,
2026_07_06_21_08_01.987,3.867,33.1,0,0.76,0,0,0,0, ,0,0,0,0,0, ,-147.4,349.7,938.1,-1.1,-1.1,-1.9,25,-149.557,343.751,931.033,-0.564368,-0.684453,-1.9558,
2026_07_06_21_08_02.007,3.867,33.2,0,0.761,0,0,0,0, ,0,0,0,0,0, ,-147.8,345,929.4,-1,-0.8,-1.7,25,-149.438,343.971,931.198,-0.593962,-0.700635,-1.9463,
2026_07_06_21_08_02.027,3.867,33.1,0,0.76,0,0,0,0, ,0,0,0,0,0, ,-153,346.8,916.3,-0.2,-0.7,-1.4,25,-149.496,344.088,930.69,-0.59433,-0.703643,-1.92215,
2026_07_06_21_08_02.047,3.867,33.1,0,0.762,0,0,0,0, ,0,0,0,0,0, ,-155.5,344.8,940.3,0.1,-0.4,-2.1,25,-149.786,344.193,930.544,-0.56116,-0.69428,-1.91166,
2026_07_06_21_08_02.067,3.867,33.1,0,0.762,0,0,0,0, ,0,0,0,0,0, ,-149,342.6,940,-1.8,-0.2,-2.3,25,-149.936,344.163,931.129,-0.578761,-0.670254,-1.92923,
2026_07_06_21_08_02.087,3.867,33.1,0,0.762,0,0,0,0, ,0,0,0,0,0, ,-144.5,343,918.5,-1.4,-0.8,-2.2,25,-149.742,344.08,931.015,-0.640992,-0.659879,-1.94878,
2026_07_06_21_08_02.112,3.867,33.1,0,0.76,0,0,0,0, ,0,0,0,0,0, ,-142.7,344.4,917.1,0,-1.2,-2,25,-149.368,344.056,930.21,-0.644588,-0.680605,-1.958,
2026_07_06_21_08_02.126,3.867,33.1,0,0.76,0,0,0,0, ,0,0,0,0,0, ,-135.4,337.7,932.6,0,-0.3,-1.8,25,-148.739,343.873,929.883,-0.605309,-0.684834,-1.95446,
2026_07_06_21_08_02.146,3.867,33.1,0,0.761,0,0,0,0, ,0,0,0,0,0, ,-137.8,346.8,923.3,-0.4,0,-1.6,25,-147.999,343.774,929.765,-0.58061,-0.652243,-1.93896,
2026_07_06_21_08_02.165,3.867,33.2,0,0.763,0,0,0,0, ,0,0,0,0,0, ,-148.3,344.3,914.4,-0.1,0,-1.1,25,-147.698,343.883,929.1,-0.560464,-0.612496,-1.90307,
2026_07_06_21_08_02.185,3.867,33.2,0,0.763,0,0,0,0, ,0,0,0,0,0, ,-155.8,340.2,915.5,0,-0.2,-1.4,25,-147.963,343.783,928.238,-0.529357,-0.581266,-1.86327,
2026_07_06_21_08_02.205,3.867,33.2,0,0.76,0,0,0,0, ,0,0,0,0,0, ,-153.5,342.6,932.8,-0.2,-0.2,-2.3,25,-148.37,343.638,927.989,-0.503193,-0.558033,-1.86246,
2026_07_06_21_08_02.225,3.867,33.2,0,0.761,0,0,0,0, ,0,0,0,0,0, ,-142.7,350.7,941.5,-1.1,-1,-2.4,25,-148.354,343.821,928.547,-0.512139,-0.56059,-1.89217,
2026_07_06_21_08_02.245,3.867,33.1,0,0.763,0,0,0,0, ,0,0,0,0,0, ,-144,354.1,933.7,-2.1,0.3,-1.9,25,-148.049,344.344,929.099,-0.578431,-0.547757,-1.90788,
2026_07_06_21_08_02.264,3.867,33.1,0,0.761,0,0,0,0, ,0,0,0,0,0, ,-136.8,342,934.3,-2.8,1.6,-1.6,25,-147.583,344.57,929.397,-0.69248,-0.456488,-1.89826,
2026_07_06_21_08_02.284,3.867,33.1,0,0.76,0,0,0,0, ,0,0,0,0,0, ,-153,336.5,910.2,-2.1,0.8,-1,25,-147.419,344.246,928.962,-0.799578,-0.355546,-1.8618,
2026_07_06_21_08_02.304,3.867,33.1,0,0.761,0,0,0,0, ,0,0,0,0,0, ,-151.9,338.3,914,0,-1.2,-1.1,25,-147.726,343.829,927.934,-0.814839,-0.346067,-1.81234,
2026_07_06_21_08_02.325,3.867,33.1,0,0.762,0,0,0,0, ,0,0,0,0,0, ,-157.3,340.8,931.7,0.7,-1.1,-1.6,25,-148.145,343.568,927.624,-0.743856,-0.395057,-1.78416,
2026_07_06_21_08_02.344,3.867,33.1,0,0.761,0,0,0,0, ,0,0,0,0,0, ,-149.5,345,933.5,0.2,-0.1,-1.8,25,-148.465,343.527,927.928,-0.671106,-0.407545,-1.77903,
2026_07_06_21_08_02.363,3.867,33.2,0,0.76,0,0,0,0, ,0,0,0,0,0, ,-148.9,348.1,931.5,0,-0.7,-1.1,25,-148.51,343.711,928.206,-0.624116,-0.407086,-1.75898,
2026_07_06_21_08_02.383,3.867,33.1,0,0.762,0,0,0,0, ,0,0,0,0,0, ,-149.1,342.1,927.6,0.3,-1.6,-0.5,25,-148.54,343.796,928.288,-0.576944,-0.452357,-1.70054,
2026_07_06_21_08_02.403,3.867,33.1,0,0.762,0,0,0,0, ,0,0,0,0,0, ,-159.3,340.8,936,-0.1,-0.5,-0.8,25,-148.885,343.653,928.502,-0.535692,-0.488776,-1.63653,
2026_07_06_21_08_02.422,3.867,33.1,0,0.761,0,0,0,0, ,0,0,0,0,0, ,-161.1,342.6,935,-1.3,-0.6,-1.9,25,-149.574,343.534,928.929,-0.545705,-0.492507,-1.61907,
2026_07_06_21_08_02.442,3.867,33.1,0,0.761,0,0,0,0, ,0,0,0,0,0, ,-155.6,343.6,924.8,-0.8,0,-2.2,25,-150.109,343.508,928.988,-0.576435,-0.480776,-1.64533,
2026_07_06_21_08_02.462,3.867,33.1,0,0.762,0,0,0,0, ,0,0,0,0,0, ,-148.4,341.5,920.6,0,-0.8,-1.7,25,-150.224,343.449,928.605,-0.565684,-0.475854,-1.66389,
2026_07_06_21_08_02.482,3.867,33.1,0,0.761,0,0,0,0, ,0,0,0,0,0, ,-149.4,345.2,927.6,1.1,-1.3,-2,25,-150.143,343.443,928.33,-0.497697,-0.510841,-1.67523,
2026_07_06_21_08_02.502,3.867,33.1,0,0.76,0,0,0,0, ,0,0,0,0,0, ,-148.8,347.4,942.5,-0.3,-1.2,-2.1,25,-150.08,343.617,928.74,-0.442993,-0.555883,-1.69807,
2026_07_06_21_08_02.522,3.867,33.2,0,0.761,0,0,0,0, ,0,0,0,0,0, ,-146.1,348.3,928.8,-0.6,-0.7,-1.7,25,-149.92,343.875,929.161,-0.44342,-0.5799,-1.71038,
2026_07_06_21_08_02.542,3.867,33.2,0,0.761,0,0,0,0, ,0,0,0,0,0, ,-149.2,350.7,926.3,0,-1.9,-1.3,25,-149.781,344.218,929.063,-0.434681,-0.623781,-1.69756,
2026_07_06_21_08_02.561,3.867,33.1,0,0.762,0,0,0,0, ,0,0,0,0,0, ,-151.1,344.4,935.4,0.1,-1.2,-1.7,25,-149.804,344.421,929.171,-0.405145,-0.680222,-1.68552,
2026_07_06_21_08_02.582,3.867,33.1,0,0.76,0,0,0,0, ,0,0,0,0,0, ,-150.7,346.6,932.7,-0.3,-0.6,-2.3,25,-149.871,344.487,929.469,-0.386551,-0.693615,-1.70468,
2026_07_06_21_08_02.601,3.867,33.2,0,0.76,0,0,0,0, ,0,0,0,0,0, ,-144.7,347.9,933.8,-0.9,-0.7,-2.1,25,-149.738,344.655,929.699,-0.399558,-0.690957,-1.73486,
2026_07_06_21_08_02.621,3.867,33.1,0,0.762,0,0,0,0, ,0,0,0,0,0, ,-149.9,345.2,930.9,-0.7,-1.3,-2.2,25,-149.59,344.771,929.861,-0.42396,-0.709789,-1.76016,
2026_07_06_21_08_02.644,3.867,33.1,0,0.76,0,0,0,0, ,0,0,0,0,0, ,-145.6,351.4,925.4,-1.2,-1.2,-2.2,25,-149.478,344.986,929.756,-0.456015,-0.742708,-1.78696,
2026_07_06_21_08_02.661,3.867,33.1,0,0.761,0,0,0,0, ,0,0,0,0,0, ,-150.8,345.3,920.4,-1,-0.4,-2.2,25,-149.4,345.191,929.339,-0.495258,-0.7462,-1.81213,
2026_07_06_21_08_02.680,3.867,33.1,0,0.759,0,0,0,0, ,0,0,0,0,0, ,-147.7,342.6,923.3,-0.4,-0.5,-1.7,25,-149.391,345.115,928.882,-0.507735,-0.72815,-1.82054,
2026_07_06_21_08_02.700,3.867,33.1,0,0.761,0,0,0,0, ,0,0,0,0,0, ,-148.9,341.9,932.1,0.1,-0.9,-1.9,25,-149.324,344.941,928.81,-0.485935,-0.726435,-1.81928,
2026_07_06_21_08_02.719,3.867,33.1,0,0.761,0,0,0,0, ,0,0,0,0,0, ,-148,345.2,933.8,-0.2,-0.8,-2.1,25,-149.271,344.856,929.063,-0.45937,-0.733964,-1.8303,
2026_07_06_21_08_02.740,3.867,33.1,0,0.762,0,0,0,0, ,0,0,0,0,0, ,-143.9,349.6,922.4,0,-0.1,-1.9,25,-149.069,345.011,929.004,-0.437471,-0.71666,-1.84064,
2026_07_06_21_08_02.760,3.867,33.1,0,0.761,0,0,0,0, ,0,0,0,0,0, ,-148.8,348.7,925.4,0.9,-1.5,-1.1,25,-148.903,345.263,928.693,-0.383391,-0.721739,-1.81988,
2026_07_06_21_08_02.785,3.867,33.1,0,0.762,0,0,0,0, ,0,0,0,0,0, ,-149.6,348.3,936.7,0.2,-1.6,-1.6,25,-148.921,345.46,928.837,-0.326512,-0.772211,-1.79125,
2026_07_06_21_08_02.799,3.867,33.1,0,0.761,0,0,0,0, ,0,0,0,0,0, ,-148.4,343.8,933.5,0,0.1,-2.2,25,-148.926,345.496,929.218,-0.300522,-0.770858,-1.79787,
2026_07_06_21_08_02.820,3.867,33.2,0,0.761,0,0,0,0, ,0,0,0,0,0, ,-141.8,352.6,930.7,-0.3,-0.3,-2.4,25,-148.693,345.661,929.394,-0.291349,-0.729977,-1.82847,
2026_07_06_21_08_02.839,3.867,33.1,0,0.762,0,0,0,0, ,0,0,0,0,0, ,-145.2,353.5,930.2,-0.2,-1.3,-1.6,25,-148.376,346.111,929.458,-0.28883,-0.734244,-1.83892,
2026_07_06_21_08_02.859,3.867,33.1,0,0.761,0,0,0,0, ,0,0,0,0,0, ,-140.7,353,934.4,-0.6,-0.3,-1.7,25,-148.046,346.546,929.631,-0.295604,-0.738251,-1.82741,
2026_07_06_21_08_02.878,3.867,33.1,0,0.762,0,0,0,0, ,0,0,0,0,0, ,-143.3,348.5,921,-0.7,0.7,-1.5,25,-147.677,346.802,929.514,-0.3172,-0.681076,-1.81355,
2026_07_06_21_08_02.898,3.867,33.2,0,0.76,0,0,0,0, ,0,0,0,0,0, ,-150.5,343.5,915.2,0.5,0,-1.3,25,-147.63,346.754,928.818,-0.303964,-0.618245,-1.78835,
2026_07_06_21_08_02.922,3.867,33.1,0,0.761,0,0,0,0, ,0,0,0,0,0, ,-149.4,343.3,921.7,0.8,-1.1,-1.6,25,-147.771,346.549,928.186,-0.245832,-0.614087,-1.76773,
2026_07_06_21_08_02.938,3.867,33.1,0,0.761,0,0,0,0, ,0,0,0,0,0, ,-145.8,350.9,929,0.3,-0.7,-2,25,-147.761,346.583,928.013,-0.197336,-0.631509,-1.7697,
2026_07_06_21_08_02.958,3.867,33.2,0,0.76,0,0,0,0, ,0,0,0,0,0, ,-145,347.7,923.9,0.1,0.6,-2.1,25,-147.617,346.748,927.918,-0.173124,-0.596074,-1.78678,
2026_07_06_21_08_02.978,3.867,33.1,0,0.761,0,0,0,0, ,0,0,0,0,0, ,-143.5,346.9,913.6,0.8,0.6,-1.9,25,-147.412,346.782,927.36,-0.135152,-0.523188,-1.79977,
2026_07_06_21_08_02.998,3.867,33.1,0,0.76,0,0,0,0, ,0,0,0,0,0, ,-147.8,346.1,914.3,2.3,0,-1.5,25,-147.304,346.765,926.542,-0.032463,-0.473025,-1.79369,
2026_07_06_21_08_03.017,3.867,33.1,0,0.762,0,0,0,0, ,0,0,0,0,0, ,-156.7,348.7,918.9,3.4,-0.4,-2.4,25,-147.606,346.803,925.937,0.143187,-0.456387,-1.80322,
2026_07_06_21_08_03.036,3.867,33.2,0,0.761,0,0,0,0, ,0,0,0,0,0, ,-155.2,349.4,929.8,3.9,0.3,-3.2,25,-148.114,346.94,925.84,0.356883,-0.431623,-1.86396,
2026_07_06_21_08_03.061,3.867,33.1,0,0.762,0,0,0,0, ,0,0,0,0,0, ,-152.5,363.7,925.4,4.1,0.9,-2.7,25,-148.464,347.526,925.947,0.578886,-0.368759,-1.93014,
2026_07_06_21_08_03.076,3.867,33.1,0,0.76,0,0,0,0, ,0,0,0,0,0, ,-151.2,357.5,934,4.8,-0.9,-1.2,25,-148.67,348.323,926.176,0.814782,-0.346287,-1.93135,
2026_07_06_21_08_03.096,3.867,33.1,0,0.762,0,0,0,0, ,0,0,0,0,0, ,-153.4,351.9,937,3.4,0.2,-1.8,25,-148.891,348.711,926.744,1.01497,-0.346514,-1.90507,
2026_07_06_21_08_03.116,3.867,33.1,0,0.762,0,0,0,0, ,0,0,0,0,0, ,-153.6,354.9,919.3,1.7,1.8,-2,25,-149.172,348.997,926.83,1.10852,-0.264461,-1.90476,
2026_07_06_21_08_03.136,3.867,33.1,0,0.763,0,0,0,0, ,0,0,0,0,0, ,-146.7,360.8,917.3,3.5,0.6,-1.9,25,-149.232,349.536,926.31,1.1994,-0.17522,-1.90751,
2026_07_06_21_08_03.156,3.867,33,0,0.76,0,0,0,0, ,0,0,0,0,0, ,-147.7,361.4,936.5,2.3,-1,-1.7,25,-149.108,350.241,926.346,1.30303,-0.17673,-1.90096,
2026_07_06_21_08_03.176,3.867,33.1,0,0.762,0,0,0,0, ,0,0,0,0,0, ,-149.9,365.3,937.9,0.7,0.1,-2.1,25,-149.089,351.04,927.007,1.31504,-0.193382,-1.9009,
2026_07_06_21_08_03.201,3.867,33.1,0,0.761,0,0,0,0, ,0,0,0,0,0, ,-156.4,369.3,924.3,0.8,1.5,-2.6,25,-149.337,352.031,927.257,1.2806,-0.132848,-1.92827,
2026_07_06_21_08_03.216,3.867,33.2,0,0.763,0,0,0,0, ,0,0,0,0,0, ,-153,369.8,926.2,2.9,2,-3.3,25,-149.663,353.098,927.134,1.3153,-0.0181121,-1.99053,
2026_07_06_21_08_03.236,3.867,33,0,0.76,0,0,0,0, ,0,0,0,0,0, ,-155,379.2,945.1,1.9,0.6,-3.8,25,-149.928,354.403,927.653,1.3814,0.0622103,-2.08556,
2026_07_06_21_08_03.255,3.867,33.1,0,0.761,0,0,0,0, ,0,0,0,0,0, ,-152.7,387.9,941.1,1.6,1.4,-4.1,25,-150.167,356.179,928.595,1.40386,0.119357,-2.19918,
2026_07_06_21_08_03.275,3.867,33.2,0,0.761,0,0,0,0, ,0,0,0,0,0, ,-162.1,391.1,954.7,4.5,4.8,-5.1,25,-150.608,358.209,929.771,1.50417,0.30099,-2.34548,
2026_07_06_21_08_03.294,3.867,33.1,0,0.762,0,0,0,0, ,0,0,0,0,0, ,-155.7,413,993.5,4.1,4.7,-5.7,25,-151.113,360.881,932.472,1.67454,0.572101,-2.53161,
2026_07_06_21_08_03.314,3.867,33.2,0,0.761,0,0,0,0, ,0,0,0,0,0, ,-161,415,1023.5,1.2,8,-5,25,-151.554,364.118,937.105,1.73399,0.924192,-2.70336,
2026_07_06_21_08_03.341,3.867,33.2,0,0.761,0,0,0,0, ,0,0,0,0,0, ,-179.9,415.6,1018.1,1,8.2,-5.8,25,-152.705,367.237,942.205,1.69535,1.36147,-2.86768,
2026_07_06_21_08_03.354,3.867,33.1,0,0.76,0,0,0,0, ,0,0,0,0,0, ,-168,400.2,1029,0.3,7.2,-5.6,25,-154,369.715,947.162,1.63165,1.74772,-3.04028,
2026_07_06_21_08_03.374,3.867,33.1,0,0.762,0,0,0,0, ,0,0,0,0,0, ,-174,406,1005.6,-3.3,4.2,-4.5,25,-155.036,371.749,951.436,1.44082,1.98856,-3.16275,
2026_07_06_21_08_03.393,3.867,33.2,0,0.762,0,0,0,0, ,0,0,0,0,0, ,-177.1,409,974.7,-0.6,1.4,-4.2,25,-156.286,373.928,953.795,1.23419,2.03801,-3.23509,
2026_07_06_21_08_03.413,3.867,33.1,0,0.761,0,0,0,0, ,0,0,0,0,0, ,-172.9,407.1,980.5,3,0.8,-3.6,25,-157.426,376.007,955.246,1.2321,1.98085,-3.27561,
2026_07_06_21_08_03.433,3.867,33.1,0,0.761,0,0,0,0, ,0,0,0,0,0, ,-175.5,408.8,1007.8,5.6,1.1,-4.1,25,-158.448,377.953,957.617,1.41905,1.91803,-3.31061,
2026_07_06_21_08_03.452,3.867,33.1,0,0.762,0,0,0,0, ,0,0,0,0,0, ,-192.3,405.3,1027.9,2.7,-2.8,-6.6,25,-159.999,379.727,961.287,1.58547,1.74936,-3.43489,
2026_07_06_21_08_03.477,3.867,33.1,0,0.762,0,0,0,0, ,0,0,0,0,0, ,-180.6,425.6,995.1,4.7,-7.3,-9.1,25,-161.611,381.903,964.347,1.71433,1.33502,-3.70393,
2026_07_06_21_08_03.493,3.867,33.1,0,0.761,0,0,0,0, ,0,0,0,0,0, ,-169,446.8,1001.9,7.3,-6.6,-6.8,25,-162.415,385.212,966.428,1.97548,0.830152,-3.96268,
2026_07_06_21_08_03.513,3.867,33.1,0,0.76,0,0,0,0, ,0,0,0,0,0, ,-171.5,438.3,996.3,-1.1,-9.9,-4.9,25,-162.892,388.706,968.419,2.04401,0.27683,-4.07769,
2026_07_06_21_08_03.533,3.867,33.1,0,0.763,0,0,0,0, ,0,0,0,0,0, ,-171.7,431.6,1005.9,0,-7.2,-5.5,25,-163.423,391.524,970.411,1.88594,-0.261054,-4.14608,
2026_07_06_21_08_03.552,3.867,33.1,0,0.762,0,0,0,0, ,0,0,0,0,0, ,-208,453.4,994.9,-0.8,-2.7,-5.8,25,-165.033,394.63,972.238,1.74664,-0.546787,-4.23772,
2026_07_06_21_08_03.571,3.867,33.1,0,0.762,0,0,0,0, ,0,0,0,0,0, ,-231.4,459.9,1045.5,3.1,6,-9.2,25,-168.365,398.41,975.161,1.71028,-0.41292,-4.43652,
2026_07_06_21_08_03.591,3.867,33.1,0,0.762,0,0,0,0, ,0,0,0,0,0, ,-243.8,439,1073.6,-5.4,0.7,-10.5,25,-172.584,401.52,980.303,1.53598,-0.183617,-4.7664,
2026_07_06_21_08_03.613,3.867,33.2,0,0.76,0,0,0,0, ,0,0,0,0,0, ,-211.6,426.7,1066.8,-13.2,-6.7,-11.6,25,-175.942,403.429,985.781,0.875664,-0.355241,-5.14931,
2026_07_06_21_08_03.631,3.867,33.2,0,0.761,0,0,0,0, ,0,0,0,0,0, ,-245.4,411.8,995.6,-16.8,-11.5,-13.8,25,-179.145,404.393,988.549,-0.0917591,-0.888124,-5.60943,
2026_07_06_21_08_03.650,3.867,33,0,0.762,0,0,0,0, ,0,0,0,0,0, ,-231.3,400.1,945.5,-13.4,-11.9,-15.3,25,-182.753,404.488,987.452,-1.00632,-1.54697,-6.15425,
2026_07_06_21_08_03.671,3.867,33.1,0,0.762,0,0,0,0, ,0,0,0,0,0, ,-217.1,377.5,918.7,-8.7,-7.9,-14.3,25,-185.279,403.532,984.079,-1.61836,-2.05599,-6.6811,
2026_07_06_21_08_03.690,3.867,33.2,0,0.761,0,0,0,0, ,0,0,0,0,0, ,-197.3,364.6,955,-7.1,-9.1,-17.5,25,-186.614,401.553,981.201,-2.00115,-2.44867,-7.24287,
2026_07_06_21_08_03.710,3.867,33.1,0,0.761,0,0,0,0, ,0,0,0,0,0, ,-183.1,377.3,952.1,-14,-8.9,-16.2,25,-186.833,399.688,979.516,-2.52209,-2.84789,-7.82831,
2026_07_06_21_08_03.730,3.867,33.1,0,0.762,0,0,0,0, ,0,0,0,0,0, ,-176.7,362.3,911.2,-13,-4.2,-14.5,25,-186.41,397.867,976.599,-3.19106,-3.07349,-8.28666,
2026_07_06_21_08_03.750,3.867,33.1,0,0.761,0,0,0,0, ,0,0,0,0,0, ,-176.1,354.2,926.7,-10.8,-0.7,-14.4,25,-185.8,395.452,973.086,-3.72176,-3.03549,-8.66224,
2026_07_06_21_08_03.770,3.867,33.1,0,0.762,0,0,0,0, ,0,0,0,0,0, ,-170,337.7,918.5,-11.2,-2.2,-16.4,25,-185.023,392.436,970.01,-4.16528,-2.93888,-9.07282,
2026_07_06_21_08_03.790,3.867,33.2,0,0.762,0,0,0,0, ,0,0,0,0,0, ,-172.9,330.4,930,-12.4,3.5,-17.8,25,-184.196,388.878,967.221,-4.63052,-2.72018,-9.56198,
2026_07_06_21_08_03.809,3.867,33.1,0,0.761,0,0,0,0, ,0,0,0,0,0, ,-182.4,338,937.2,-15.8,2.1,-17.3,25,-183.797,385.546,965.173,-5.20757,-2.38379,-10.0487,
2026_07_06_21_08_03.829,3.867,33.1,0,0.761,0,0,0,0, ,0,0,0,0,0, ,-163.5,367.6,882.2,-12.7,3.3,-9,25,-183.136,383.551,961.792,-5.75859,-2.074,-10.2377,
2026_07_06_21_08_03.850,3.867,33.1,0,0.762,0,0,0,0, ,0,0,0,0,0, ,-188.5,338.2,865.1,-3.2,14.6,-0.5,25,-182.701,381.683,956.421,-5.89213,-1.40223,-9.90332,
2026_07_06_21_08_03.869,3.867,33.1,0,0.761,0,0,0,0, ,0,0,0,0,0, ,-256.5,300.5,943.2,0.9,12.1,1.1,25,-185.127,377.884,953.236,-5.60315,-0.503262,-9.28156,
2026_07_06_21_08_03.889,3.867,33.2,0,0.76,0,0,0,0, ,0,0,0,0,0, ,-259.3,304.4,1005,-5.3,-0.2,-3.8,25,-189.561,373.288,954.507,-5.39577,-0.110016,-8.79823,
2026_07_06_21_08_03.908,3.867,33.1,0,0.762,0,0,0,0, ,0,0,0,0,0, ,-236.5,317.7,970.2,-9.3,-2.2,-7.3,25,-193.116,369.495,956.524,-5.51181,-0.176437,-8.60029,
2026_07_06_21_08_03.928,3.867,33.1,0,0.761,0,0,0,0, ,0,0,0,0,0, ,-213,320,944.7,-13.3,0,-10.7,25,-195.044,366.409,956.58,-5.86453,-0.232717,-8.62465,
2026_07_06_21_08_03.948,3.867,33.1,0,0.761,0,0,0,0, ,0,0,0,0,0, ,-204.1,319.8,928.5,-14.5,-3.1,-13.4,25,-195.867,363.575,955.363,-6.35419,-0.312989,-8.83338,
2026_07_06_21_08_03.968,3.867,33.1,0,0.762,0,0,0,0, ,0,0,0,0,0, ,-169.1,318.6,942.2,-16.3,-4.1,-14,25,-195.302,360.871,954.143,-6.90542,-0.513291,-9.12994,
2026_07_06_21_08_03.988,3.867,33.1,0,0.76,0,0,0,0, ,0,0,0,0,0, ,-154.7,304.5,928.4,-19.7,-0.4,-14,25,-193.267,357.865,952.995,-7.5815,-0.619121,-9.42671,
2026_07_06_21_08_04.008,3.867,33.1,0,0.761,0,0,0,0, ,0,0,0,0,0, ,-143.5,298.9,874,-20.3,1.5,-15.7,25,-190.575,354.443,949.839,-8.33825,-0.547878,-9.75719,
2026_07_06_21_08_04.028,3.867,33.2,0,0.761,0,0,0,0, ,0,0,0,0,0, ,-138,307.8,830.8,-17.2,6.3,-14,25,-187.539,351.329,943.901,-8.97272,-0.276836,-10.0675,
2026_07_06_21_08_04.047,3.867,33.1,0,0.762,0,0,0,0, ,0,0,0,0,0, ,-139.6,288.2,835.6,-14.5,14.7,-10.8,25,-184.569,348.079,937.155,-9.3918,0.379878,-10.2097,
2026_07_06_21_08_04.067,3.867,33.2,0,0.76,0,0,0,0, ,0,0,0,0,0, ,-170.6,281.6,876.9,-11.2,15.8,-6,25,-182.773,344.229,932.225,-9.60253,1.28603,-10.0994,
2026_07_06_21_08_04.086,3.867,33.1,0,0.763,0,0,0,0, ,0,0,0,0,0, ,-209.2,251.3,942.8,-10.9,6.2,-5.9,25,-183.208,339.49,930.862,-9.69074,1.87797,-9.84654,
2026_07_06_21_08_04.106,3.867,33.2,0,0.761,0,0,0,0, ,0,0,0,0,0, ,-210.5,256.3,1003.2,-16.3,2.2,-10.4,25,-184.831,334.268,933.429,-9.92896,2.01947,-9.74315,
2026_07_06_21_08_04.126,3.867,33.1,0,0.762,0,0,0,0, ,0,0,0,0,0, ,-208.1,250.1,980.3,-20.3,2,-12,25,-186.322,329.328,936.983,-10.4391,2.02438,-9.83193,
2026_07_06_21_08_04.149,3.867,33.1,0,0.761,0,0,0,0, ,0,0,0,0,0, ,-213.2,250.1,929.8,-22.4,1.5,-14.9,25,-187.805,324.5,938.084,-11.104,2.00766,-10.0524,
2026_07_06_21_08_04.165,3.867,33.1,0,0.76,0,0,0,0, ,0,0,0,0,0, ,-201.5,249.3,899.4,-21.1,-8.8,-16,25,-188.996,319.942,936.653,-11.7527,1.66289,-10.3813,
2026_07_06_21_08_04.186,3.867,33.2,0,0.763,0,0,0,0, ,0,0,0,0,0, ,-177.4,240.2,891.7,-21.6,-15,-14.4,25,-189.023,315.36,934.148,-12.3375,0.836405,-10.675,
2026_07_06_21_08_04.206,3.867,33.1,0,0.762,0,0,0,0, ,0,0,0,0,0, ,-169.5,240.3,898,-25.1,-8,-11.8,25,-188.074,310.783,931.754,-13.0086,0.0846553,-10.8227,
2026_07_06_21_08_04.225,3.867,33.1,0,0.761,0,0,0,0, ,0,0,0,0,0, ,-163.3,227.7,904.4,-22.8,-16,-2.9,25,-186.754,306.104,929.892,-13.6753,-0.651753,-10.6111,
2026_07_06_21_08_04.245,3.867,33.2,0,0.761,0,0,0,0, ,0,0,0,0,0, ,-185.1,172.2,815.9,-26.1,-33.1,10,25,-185.989,299.635,925.642,-14.3319,-2.10805,-9.74817,
2026_07_06_21_08_04.265,3.867,33.1,0,0.761,0,0,0,0, ,0,0,0,0,0, ,-187.9,157.2,810.4,-14.9,-35.2,7,25,-186.02,291.413,918.787,-14.7078,-4.06061,-8.63618,
2026_07_06_21_08_04.290,3.867,33.2,0,0.76,0,0,0,0, ,0,0,0,0,0, ,-189.3,154.6,847.5,-3,-28,6.3,25,-186.177,283.155,913.312,-14.3569,-5.73879,-7.70467,
2026_07_06_21_08_04.305,3.867,33.2,0,0.763,0,0,0,0, ,0,0,0,0,0, ,-182.7,144,876.8,-5.2,-21.8,8.6,25,-186.166,274.998,910.195,-13.7319,-6.90643,-6.78119,
2026_07_06_21_08_04.325,3.867,33.2,0,0.761,0,0,0,0, ,0,0,0,0,0, ,-177.6,116.3,930.4,-2.7,-15.2,4.2,25,-185.8,266.171,909.793,-13.1358,-7.61291,-5.97796,
2026_07_06_21_08_04.345,3.867,33.2,0,0.761,0,0,0,0, ,0,0,0,0,0, ,-161.7,100.8,1008,-11,-19.8,-2.3,25,-184.816,256.566,913.413,-12.7528,-8.2154,-5.55579,
2026_07_06_21_08_04.364,3.867,33.1,0,0.761,0,0,0,0, ,0,0,0,0,0, ,-126.4,133,929.9,-12.4,-27.4,-6.5,25,-182.331,248.055,916.797,-12.6886,-9.1529,-5.48536,
2026_07_06_21_08_04.386,3.867,33.1,0,0.76,0,0,0,0, ,0,0,0,0,0, ,-78.3,124.6,901.7,-7.3,-20,-6.9,25,-177.458,240.788,916.737,-12.5156,-10.0394,-5.55937,
2026_07_06_21_08_04.404,3.867,33.1,0,0.762,0,0,0,0, ,0,0,0,0,0, ,-52.3,129.8,900,-5.3,-15.7,-5.9,25,-170.623,233.866,915.768,-12.1369,-10.5153,-5.6106,
2026_07_06_21_08_04.429,3.867,33.2,0,0.761,0,0,0,0, ,0,0,0,0,0, ,-34.6,121.7,905.2,-3.4,-17.9,-1.4,25,-162.873,227.278,914.966,-11.6624,-10.8983,-5.49112,
2026_07_06_21_08_04.443,3.867,33.1,0,0.761,0,0,0,0, ,0,0,0,0,0, ,-39.6,137.5,915.4,-1.6,-18.9,1.5,25,-155.209,221.326,914.682,-11.104,-11.3554,-5.15346,
2026_07_06_21_08_04.463,3.867,33.1,0,0.763,0,0,0,0, ,0,0,0,0,0, ,-62.9,136.5,890.6,1.6,-19.8,4.9,25,-148.874,216.187,913.97,-10.4274,-11.8426,-4.64442,
2026_07_06_21_08_04.483,3.867,33,0,0.761,0,0,0,0, ,0,0,0,0,0, ,-60,142.7,881.9,10.8,-12.6,2.1,25,-143.547,211.52,912.281,-9.41415,-12.1081,-4.14812,
2026_07_06_21_08_04.502,3.867,33.1,0,0.763,0,0,0,0, ,0,0,0,0,0, ,-53.9,172.3,956.7,13.1,-10.8,3.5,25,-138.27,208.228,912.708,-8.11227,-12.0833,-3.72472,
2026_07_06_21_08_04.522,3.867,33.1,0,0.761,0,0,0,0, ,0,0,0,0,0, ,-68.2,158.4,974.9,12.6,-12.6,4,25,-133.564,205.615,915.944,-6.83488,-12.0599,-3.26923,
2026_07_06_21_08_04.542,3.867,33.1,0,0.761,0,0,0,0, ,0,0,0,0,0, ,-85.6,200,964.2,12.5,-13.5,4.4,25,-130.111,204.006,919.21,-5.65362,-12.1202,-2.81407,
2026_07_06_21_08_04.562,3.867,33.1,0,0.761,0,0,0,0, ,0,0,0,0,0, ,-93.8,220.8,913.6,10.4,-10,6,25,-127.649,204.395,920.41,-4.61136,-12.0977,-2.32572,
2026_07_06_21_08_04.582,3.867,33,0,0.76,0,0,0,0, ,0,0,0,0,0, ,-106.4,210.2,931.6,11.4,-7.3,5.2,25,-125.97,205.072,920.544,-3.66614,-11.8876,-1.84274,
2026_07_06_21_08_04.602,3.867,33.2,0,0.761,0,0,0,0, ,0,0,0,0,0, ,-92.7,198.4,989.7,9.8,-7.6,1.8,25,-124.36,205.025,922.988,-2.7968,-11.6172,-1.51717,
2026_07_06_21_08_04.622,3.867,33.1,0,0.761,0,0,0,0, ,0,0,0,0,0, ,-84.1,226.4,1012.8,4.4,-8.5,-0.3,25,-122.169,205.474,927.757,-2.19371,-11.3998,-1.37901,
2026_07_06_21_08_04.642,3.867,33.2,0,0.761,0,0,0,0, ,0,0,0,0,0, ,-96.1,249.7,990.8,1.8,-9.1,0.2,25,-120.214,207.46,932.269,-1.87113,-11.2414,-1.29803,
2026_07_06_21_08_04.661,3.867,33.1,0,0.76,0,0,0,0, ,0,0,0,0,0, ,-107.1,233,991.3,-2.4,-7,-2.3,25,-119.08,209.525,935.851,-1.77539,-11.0469,-1.28291,
2026_07_06_21_08_04.681,3.867,33.2,0,0.761,0,0,0,0, ,0,0,0,0,0, ,-106.4,224.4,972.7,-6.5,-6,-6.6,25,-118.329,210.693,938.663,-1.93837,-10.7698,-1.47591,
2026_07_06_21_08_04.700,3.867,33.1,0,0.763,0,0,0,0, ,0,0,0,0,0, ,-80.2,218.2,964.8,-8.4,-1.9,-9.7,25,-116.804,211.34,940.496,-2.27423,-10.3542,-1.88261,
2026_07_06_21_08_04.720,3.867,33.1,0,0.763,0,0,0,0, ,0,0,0,0,0, ,-56.3,222.1,953.4,-8,-0.7,-9.6,25,-113.845,211.876,941.63,-2.63534,-9.80249,-2.35594,
2026_07_06_21_08_04.740,3.867,33.2,0,0.761,0,0,0,0, ,0,0,0,0,0, ,-46.9,206.1,946.5,-5.1,-4.7,-7.9,25,-110.052,212.012,942.137,-2.87389,-9.36969,-2.74557,
2026_07_06_21_08_04.761,3.867,33.1,0,0.761,0,0,0,0, ,0,0,0,0,0, ,-25.7,228.3,961.5,-2,-5.8,-6.3,25,-105.557,212.328,942.86,-2.91509,-9.11864,-3.01092,
2026_07_06_21_08_04.780,3.867,33.2,0,0.761,0,0,0,0, ,0,0,0,0,0, ,-26,228.6,981.2,-2.1,-4.7,-3.1,25,-100.7,213.311,944.596,-2.86237,-8.8829,-3.11385,
2026_07_06_21_08_04.800,3.867,33.2,0,0.761,0,0,0,0, ,0,0,0,0,0, ,-38.6,208.9,977.6,-1.5,-7.8,-1.9,25,-96.5322,213.642,946.717,-2.79763,-8.72246,-3.07644,
2026_07_06_21_08_04.819,3.867,33,0,0.761,0,0,0,0, ,0,0,0,0,0, ,-28.9,215.2,964.1,-1.2,-8.8,-1,25,-92.7064,213.545,948.187,-2.70942,-8.69671,-2.97733,
2026_07_06_21_08_04.840,3.867,33.1,0,0.761,0,0,0,0, ,0,0,0,0,0, ,-32.7,219.8,952.1,-0.6,-7.2,-0.3,25,-88.934,213.786,948.792,-2.59916,-8.65426,-2.83551,
2026_07_06_21_08_04.859,3.867,33.1,0,0.762,0,0,0,0, ,0,0,0,0,0, ,-49.4,242.5,968.6,-1.2,-5.4,0,25,-86.016,214.844,949.496,-2.49561,-8.51079,-2.67186,
2026_07_06_21_08_04.879,3.867,33.1,0,0.76,0,0,0,0, ,0,0,0,0,0, ,-57.6,207,991.5,-2.6,-5.6,-0.1,25,-84.0346,215.448,951.358,-2.45932,-8.32732,-2.51209,
2026_07_06_21_08_04.899,3.867,33.1,0,0.76,0,0,0,0, ,0,0,0,0,0, ,-45.5,190.4,986.9,-4.8,-2.6,-2.9,25,-82.0551,214.427,953.664,-2.53492,-8.06972,-2.45042,
2026_07_06_21_08_04.919,3.867,33.2,0,0.762,0,0,0,0, ,0,0,0,0,0, ,-34.7,206.2,959.7,-4.6,-2.8,-3.4,25,-79.4984,213.444,954.86,-2.66686,-7.7425,-2.49305,
2026_07_06_21_08_04.939,3.867,33.1,0,0.762,0,0,0,0, ,0,0,0,0,0, ,-33.3,228.6,970.2,-3.4,-2.5,-1.9,25,-76.7259,213.685,955.475,-2.7481,-7.43218,-2.50261,
2026_07_06_21_08_04.958,3.867,33.1,0,0.762,0,0,0,0, ,0,0,0,0,0, ,-48.8,195.1,978,-5.9,-2.7,-0.9,25,-74.5519,213.574,956.61,-2.86399,-7.13772,-2.43542,
2026_07_06_21_08_04.978,3.867,33.1,0,0.762,0,0,0,0, ,0,0,0,0,0, ,-55.1,161.9,969.9,-5.9,-4.3,-2,25,-73.1746,211.436,957.667,-3.049,-6.91604,-2.37537,
2026_07_06_21_08_04.998,3.867,33.1,0,0.761,0,0,0,0, ,0,0,0,0,0, ,-59.3,187.3,930,-4,-4.8,-2.5,25,-72.2011,209.192,957.197,-3.16484,-6.77186,-2.36773,
2026_07_06_21_08_05.018,3.867,33.1,0,0.761,0,0,0,0, ,0,0,0,0,0, ,-53.1,209.1,939.2,-1.5,0.4,-2.7,25,-71.226,208.522,955.82,-3.13956,-6.49327,-2.38189,
2026_07_06_21_08_05.037,3.867,33.1,0,0.762,0,0,0,0, ,0,0,0,0,0, ,-36.6,178.4,997.4,-2,0,-2.9,25,-69.6188,207.622,956.58,-3.05489,-6.0854,-2.40737,
2026_07_06_21_08_05.057,3.867,33,0,0.761,0,0,0,0, ,0,0,0,0,0, ,-14.4,166,983.1,-5.3,-0.6,-1.1,25,-66.9303,205.463,958.632,-3.09115,-5.73285,-2.38254,
2026_07_06_21_08_05.077,3.867,33.2,0,0.761,0,0,0,0, ,0,0,0,0,0, ,-38.6,190.5,891.9,-1.7,-0.5,3.4,25,-64.4666,203.805,957.344,-3.11606,-5.41702,-2.16728,
2026_07_06_21_08_05.097,3.867,33.2,0,0.762,0,0,0,0, ,0,0,0,0,0, ,-79.2,186.6,880.6,9.4,0.8,5,25,-64.1273,202.875,953.012,-2.69157,-5.07778,-1.77927,
2026_07_06_21_08_05.117,3.867,33,0,0.761,0,0,0,0, ,0,0,0,0,0, ,-77.7,158.2,984.4,10,-0.3,2.2,25,-65.0001,201.018,951.762,-1.93646,-4.75312,-1.45147,
2026_07_06_21_08_05.136,3.867,33.2,0,0.762,0,0,0,0, ,0,0,0,0,0, ,-59.8,157.7,1025.7,4.7,-1,-2.4,25,-65.2286,198.394,955.009,-1.37057,-4.50308,-1.36912,
2026_07_06_21_08_05.156,3.867,33.1,0,0.76,0,0,0,0, ,0,0,0,0,0, ,-54.1,194.9,1002.5,0.6,-3.8,-4.1,25,-64.7242,197.047,958.61,-1.12556,-4.37493,-1.48373,
2026_07_06_21_08_05.176,3.867,33.1,0,0.762,0,0,0,0, ,0,0,0,0,0, ,-38.9,207.1,960.9,0.4,-1.9,-4.7,25,-63.6136,197.288,960.017,-1.0265,-4.282,-1.66144,
2026_07_06_21_08_05.196,3.867,33.1,0,0.762,0,0,0,0, ,0,0,0,0,0, ,-37.8,189.8,954.8,-0.3,1.2,-6.1,25,-62.0741,197.359,959.885,-0.960905,-4.04239,-1.88926,
2026_07_06_21_08_05.216,3.867,33.1,0,0.763,0,0,0,0, ,0,0,0,0,0, ,-27,189.9,964.8,2.5,1,-5.6,25,-60.2659,196.901,959.88,-0.835319,-3.72903,-2.13062,
2026_07_06_21_08_05.235,3.867,33.1,0,0.761,0,0,0,0, ,0,0,0,0,0, ,-23.1,203,981.2,2.1,-3.9,-4.6,25,-58.1199,196.874,960.679,-0.64426,-3.59015,-2.31157,
2026_07_06_21_08_05.255,3.867,33.1,0,0.761,0,0,0,0, ,0,0,0,0,0, ,-33.2,227.5,967.6,0.9,-4.1,-3.1,25,-56.2936,197.994,961.515,-0.513594,-3.61513,-2.40531,
2026_07_06_21_08_05.275,3.867,33.1,0,0.761,0,0,0,0, ,0,0,0,0,0, ,-42.8,209.8,969.2,1.9,-2.1,-3.2,25,-55.1788,199.252,961.935,-0.396985,-3.58374,-2.45069,
2026_07_06_21_08_05.295,3.867,33.1,0,0.762,0,0,0,0, ,0,0,0,0,0, ,-36.7,213.6,991.8,1.3,-0.5,-4.2,25,-54.2386,200.011,963.066,-0.275293,-3.44457,-2.52682,
2026_07_06_21_08_05.315,3.867,33.1,0,0.761,0,0,0,0, ,0,0,0,0,0, ,-39.9,225.7,1006.3,-0.5,-3.5,-3.9,25,-53.2674,201.208,965.259,-0.234143,-3.35654,-2.61964,
2026_07_06_21_08_05.335,3.867,33.2,0,0.761,0,0,0,0, ,0,0,0,0,0, ,-40.2,233.1,998.6,-4.1,-6.1,-3.3,25,-52.4619,202.926,967.525,-0.360031,-3.4445,-2.67938,
2026_07_06_21_08_05.355,3.867,33,0,0.763,0,0,0,0, ,0,0,0,0,0, ,-42.8,214.5,943.3,-3.9,-4,-3.2,25,-51.7939,204.198,967.734,-0.581842,-3.54234,-2.71415,
2026_07_06_21_08_05.374,3.867,33.1,0,0.761,0,0,0,0, ,0,0,0,0,0, ,-31.8,210.5,947.2,-1.3,-3,-4.2,25,-50.9107,204.704,966.364,-0.704823,-3.53976,-2.77423,
2026_07_06_21_08_05.394,3.867,33.1,0,0.761,0,0,0,0, ,0,0,0,0,0, ,-29.6,215.9,970.7,-0.2,-0.7,-4.6,25,-49.6791,205.221,965.912,-0.707576,-3.43679,-2.8733,
2026_07_06_21_08_05.414,3.867,33.1,0,0.762,0,0,0,0, ,0,0,0,0,0, ,-21.8,223.9,993.7,-1.3,0.5,-5,25,-48.2179,206.116,966.905,-0.710161,-3.23345,-2.99071,
2026_07_06_21_08_05.433,3.867,33.2,0,0.76,0,0,0,0, ,0,0,0,0,0, ,-19.5,212.5,989.1,-3.8,-0.2,-4.1,25,-46.538,206.852,968.397,-0.822276,-3.02727,-3.08573,
2026_07_06_21_08_05.453,3.867,33.1,0,0.762,0,0,0,0, ,0,0,0,0,0, ,-20.8,208.2,965.9,-4.1,-1.3,-1.9,25,-44.93,207.065,968.952,-1.01287,-2.8885,-3.0805,
2026_07_06_21_08_05.473,3.867,33.2,0,0.763,0,0,0,0, ,0,0,0,0,0, ,-40,216.4,952.7,-1.8,-2.1,-1,25,-44.0445,207.384,968.364,-1.13092,-2.81608,-2.98114,
2026_07_06_21_08_05.493,3.867,33.2,0,0.762,0,0,0,0, ,0,0,0,0,0, ,-45.2,211.1,977,-0.3,-1.7,-1.7,25,-43.9565,207.772,968.15,-1.12598,-2.76025,-2.88175,
2026_07_06_21_08_05.512,3.867,33.1,0,0.761,0,0,0,0, ,0,0,0,0,0, ,-45,202.6,987,-1.8,-0.3,-2.5,25,-44.0262,207.716,968.994,-1.12135,-2.65299,-2.83411,
2026_07_06_21_08_05.538,3.867,33.3,0,0.761,0,0,0,0, ,0,0,0,0,0, ,-39.4,190.5,965.6,-1.2,1,-2.9,25,-43.9149,207.036,969.439,-1.14443,-2.46999,-2.82594,
2026_07_06_21_08_05.554,3.867,33.2,0,0.763,0,0,0,0, ,0,0,0,0,0, ,-37.5,199.8,958.8,-0.3,1.3,-2.2,25,-43.5819,206.311,968.998,-1.12039,-2.2494,-2.80912,
2026_07_06_21_08_05.572,3.867,33.2,0,0.761,0,0,0,0, ,0,0,0,0,0, ,-34.7,206.5,970.8,1.2,1.5,-0.4,25,-43.126,206.119,968.742,-1.0247,-2.02702,-2.71716,
2026_07_06_21_08_05.592,3.867,33.2,0,0.761,0,0,0,0, ,0,0,0,0,0, ,-50.6,210.2,993.5,1.9,-1.3,-0.4,25,-43.097,206.255,969.559,-0.867801,-1.8974,-2.57596,
2026_07_06_21_08_05.612,3.867,33.1,0,0.761,0,0,0,0, ,0,0,0,0,0, ,-57.4,190.5,997.3,0.1,-1.3,-1.2,25,-43.7614,205.895,971.134,-0.753982,-1.861,-2.46774,
2026_07_06_21_08_05.632,3.867,33.1,0,0.761,0,0,0,0, ,0,0,0,0,0, ,-51.7,196.4,966.5,-0.5,-1.4,-1.9,25,-44.4188,205.137,971.79,-0.720224,-1.82986,-2.41181,
2026_07_06_21_08_05.651,3.867,33.1,0,0.762,0,0,0,0, ,0,0,0,0,0, ,-44.6,204.9,966.6,1,1.1,-1.7,25,-44.6462,204.863,971.471,-0.661101,-1.72749,-2.37453,
2026_07_06_21_08_05.676,3.867,33.1,0,0.762,0,0,0,0, ,0,0,0,0,0, ,-43.5,220.8,993,1.4,-0.5,-1.9,25,-44.6098,205.35,971.978,-0.54769,-1.60394,-2.33952,
2026_07_06_21_08_05.691,3.867,33.1,0,0.76,0,0,0,0, ,0,0,0,0,0, ,-46.7,211.3,1002.5,-1,-1.9,-2,25,-44.6397,206.002,973.549,-0.502128,-1.57933,-2.31578,
2026_07_06_21_08_05.711,3.867,33,0,0.761,0,0,0,0, ,0,0,0,0,0, ,-54.4,200.5,971.5,-1,-3,-2,25,-44.9999,205.996,974.368,-0.532467,-1.63238,-2.29654,
2026_07_06_21_08_05.730,3.867,33.2,0,0.762,0,0,0,0, ,0,0,0,0,0, ,-58.3,198.6,965.6,-0.1,-1.3,-3.4,25,-45.6915,205.603,974.014,-0.533535,-1.66393,-2.32112,
2026_07_06_21_08_05.750,3.867,33.1,0,0.762,0,0,0,0, ,0,0,0,0,0, ,-52.2,221.3,971.6,-0.7,0,-4.9,25,-46.274,205.868,973.684,-0.525398,-1.60214,-2.43257,
2026_07_06_21_08_05.770,3.867,33.2,0,0.761,0,0,0,0, ,0,0,0,0,0, ,-53.9,230.5,972.6,-2,0,-5.2,25,-46.6869,207.088,973.587,-0.575647,-1.50451,-2.59207,
2026_07_06_21_08_05.790,3.867,33.2,0,0.759,0,0,0,0, ,0,0,0,0,0, ,-49.8,201.2,967.4,-1.9,0,-5.2,25,-47.0015,207.622,973.369,-0.659397,-1.41283,-2.75099,
2026_07_06_21_08_05.812,3.867,33.1,0,0.762,0,0,0,0, ,0,0,0,0,0, ,-46.5,197.8,954.8,0,-3,-5.7,25,-47.0715,207.127,972.621,-0.677105,-1.41814,-2.91546,
2026_07_06_21_08_05.830,3.867,33.1,0,0.761,0,0,0,0, ,0,0,0,0,0, ,-32.4,203.1,964.3,0.5,-1.4,-5.5,25,-46.6071,206.721,971.825,-0.62061,-1.46578,-3.07905,
2026_07_06_21_08_05.850,3.867,33.1,0,0.761,0,0,0,0, ,0,0,0,0,0, ,-29.1,211,968.5,1.3,-2,-5.3,25,-45.6408,206.741,971.494,-0.527948,-1.48006,-3.22048,
2026_07_06_21_08_05.869,3.867,33.2,0,0.761,0,0,0,0, ,0,0,0,0,0, ,-23.5,206.6,978.5,1.6,-1.5,-3.7,25,-44.4622,206.866,971.616,-0.407417,-1.49651,-3.29846,
2026_07_06_21_08_05.889,3.867,33.1,0,0.761,0,0,0,0, ,0,0,0,0,0, ,-26.2,204.1,998.5,1.3,-1.5,-2.5,25,-43.2671,206.774,972.645,-0.29423,-1.49672,-3.28636,
2026_07_06_21_08_05.909,3.867,33.2,0,0.762,0,0,0,0, ,0,0,0,0,0, ,-33,212.5,1001.7,0.7,-3.3,-1,25,-42.4343,206.867,974.318,-0.215363,-1.55176,-3.19274,
2026_07_06_21_08_05.928,3.867,33.2,0,0.762,0,0,0,0, ,0,0,0,0,0, ,-48.2,214.8,980.4,0.9,-3.6,-1,25,-42.3225,207.28,975.338,-0.153489,-1.66744,-3.05912,
2026_07_06_21_08_05.948,3.867,33.1,0,0.762,0,0,0,0, ,0,0,0,0,0, ,-43.9,201.1,985.9,1,-2,-2.2,25,-42.5496,207.321,975.814,-0.0862456,-1.73645,-2.9702,
2026_07_06_21_08_05.968,3.867,33.1,0,0.762,0,0,0,0, ,0,0,0,0,0, ,-37.4,217.6,996.2,0.5,-2,-2.5,25,-42.4339,207.445,976.742,-0.0352869,-1.75251,-2.93241,
2026_07_06_21_08_05.988,3.867,33.1,0,0.762,0,0,0,0, ,0,0,0,0,0, ,-41.9,228.2,1002.6,-0.3,-1.5,-1.8,25,-42.2642,208.386,978.123,-0.0270428,-1.75236,-2.88473,
2026_07_06_21_08_06.008,3.867,33.2,0,0.762,0,0,0,0, ,0,0,0,0,0, ,-47.3,218.2,995.3,-2.9,-3.2,-1.4,25,-42.4066,209.289,979.392,-0.122895,-1.78878,-2.80644,
2026_07_06_21_08_06.028,3.867,33,0,0.763,0,0,0,0, ,0,0,0,0,0, ,-47.3,199.8,972.5,-2.2,-4.2,-1.8,25,-42.7048,209.271,979.667,-0.270797,-1.90524,-2.73293,
2026_07_06_21_08_06.048,3.867,33.2,0,0.76,0,0,0,0, ,0,0,0,0,0, ,-44.4,203.6,958.3,-1,-3.5,-2.8,25,-42.8964,208.81,978.797,-0.351795,-2.02375,-2.70655,
2026_07_06_21_08_06.067,3.867,33.1,0,0.761,0,0,0,0, ,0,0,0,0,0, ,-35.6,218.1,961.7,0.5,-1.1,-2.9,25,-42.7199,208.934,977.652,-0.345592,-2.04059,-2.71529,
2026_07_06_21_08_06.087,3.867,33.1,0,0.761,0,0,0,0, ,0,0,0,0,0, ,-33.9,212.8,968.7,0.6,-1.6,-2.8,25,-42.2342,209.331,976.893,-0.291017,-1.9985,-2.7235,
2026_07_06_21_08_06.106,3.867,33.1,0,0.759,0,0,0,0, ,0,0,0,0,0, ,-25.7,201.1,970,1.1,-0.8,-3,25,-41.4765,209.186,976.433,-0.221486,-1.94984,-2.73425,
2026_07_06_21_08_06.126,3.867,33.1,0,0.76,0,0,0,0, ,0,0,0,0,0, ,-23.8,219.3,978.2,1.8,-1.4,-2.3,25,-40.4573,209.248,976.291,-0.11963,-1.89806,-2.72912,
2026_07_06_21_08_06.146,3.867,33,0,0.762,0,0,0,0, ,0,0,0,0,0, ,-35.1,232.4,989.8,1.1,-1.3,-2,25,-39.7865,210.26,976.761,-0.0239805,-1.86466,-2.69383,
2026_07_06_21_08_06.167,3.867,33,0,0.761,0,0,0,0, ,0,0,0,0,0, ,-33.2,217.5,970,0.2,-0.3,-2.6,25,-39.443,211.155,976.952,0.0170902,-1.79978,-2.66983,
2026_07_06_21_08_06.186,3.867,33.2,0,0.762,0,0,0,0, ,0,0,0,0,0, ,-25.3,215.8,961.4,1.5,0.3,-2.9,25,-38.8219,211.49,976.267,0.0678456,-1.69011,-2.67471,
2026_07_06_21_08_06.206,3.867,33.2,0,0.763,0,0,0,0, ,0,0,0,0,0, ,-23.5,230.4,986.8,2,-1.4,-1.9,25,-37.9431,212.197,976.135,0.170352,-1.62063,-2.65797,
2026_07_06_21_08_06.226,3.867,33.1,0,0.759,0,0,0,0, ,0,0,0,0,0, ,-33.9,238.4,1003.9,0.3,-2.1,-1.1,25,-37.3798,213.55,977.306,0.230049,-1.62852,-2.58741,
2026_07_06_21_08_06.246,3.867,33.1,0,0.762,0,0,0,0, ,0,0,0,0,0, ,-40,232,998.1,-1.2,-3,-1.4,25,-37.3536,214.87,978.749,0.188609,-1.68467,-2.50591,
2026_07_06_21_08_06.266,3.867,33.1,0,0.762,0,0,0,0, ,0,0,0,0,0, ,-34.3,202,958.6,-1.6,-2.8,-2.8,25,-37.3412,214.999,978.725,0.0918029,-1.75873,-2.48118,
2026_07_06_21_08_06.285,3.867,33.2,0,0.761,0,0,0,0, ,0,0,0,0,0, ,-20.5,200.8,947.8,0.4,-0.9,-3.2,25,-36.7354,214.171,977.17,0.0496461,-1.76429,-2.51279,
2026_07_06_21_08_06.305,3.867,33.2,0,0.761,0,0,0,0, ,0,0,0,0,0, ,-12,238.8,982.6,1.6,-2.6,-1.9,25,-35.4871,214.514,976.44,0.107558,-1.76342,-2.51506,
2026_07_06_21_08_06.325,3.867,33.1,0,0.763,0,0,0,0, ,0,0,0,0,0, ,-22.8,223.3,990.9,0.6,-1.4,-1,25,-34.3849,215.521,977.069,0.168035,-1.77784,-2.45016,
2026_07_06_21_08_06.345,3.867,33.1,0,0.762,0,0,0,0, ,0,0,0,0,0, ,-24.9,211.7,979.3,-0.1,-2.2,-1.8,25,-33.7429,215.642,977.558,0.17303,-1.77919,-2.38616,
2026_07_06_21_08_06.364,3.867,33.1,0,0.762,0,0,0,0, ,0,0,0,0,0, ,-27.5,231.6,975.7,0.1,-1.8,-0.6,25,-33.2833,216.008,977.554,0.162486,-1.79264,-2.31388,
2026_07_06_21_08_06.384,3.867,33.1,0,0.761,0,0,0,0, ,0,0,0,0,0, ,-36.9,225.3,991,-1,-1.3,-0.5,25,-33.2173,216.766,977.908,0.125163,-1.77786,-2.20639,
2026_07_06_21_08_06.404,3.867,33.1,0,0.76,0,0,0,0, ,0,0,0,0,0, ,-37.2,205.3,968.7,-1.5,-0.9,-2.6,25,-33.4508,216.677,978.026,0.0413636,-1.73655,-2.1664,
2026_07_06_21_08_06.424,3.867,33,0,0.762,0,0,0,0, ,0,0,0,0,0, ,-27.4,204.4,950.9,0,0.2,-3.9,25,-33.3807,215.956,976.915,-0.0068601,-1.65206,-2.23243,
2026_07_06_21_08_06.443,3.867,33.1,0,0.762,0,0,0,0, ,0,0,0,0,0, ,-18.9,210.2,971.3,0.9,1.1,-2.9,25,-32.7573,215.429,975.952,0.0209798,-1.51177,-2.30358,
2026_07_06_21_08_06.463,3.867,33.2,0,0.762,0,0,0,0, ,0,0,0,0,0, ,-26.3,222.6,977.2,1.2,-0.9,-2.1,25,-32.1383,215.488,975.848,0.0836857,-1.41356,-2.31555,
2026_07_06_21_08_06.483,3.867,33.1,0,0.761,0,0,0,0, ,0,0,0,0,0, ,-26.3,220.7,980.2,0.3,0.4,-2.1,25,-31.7825,215.863,976.022,0.124289,-1.34265,-2.30241,
2026_07_06_21_08_06.502,3.867,33.2,0,0.76,0,0,0,0, ,0,0,0,0,0, ,-26.6,218.5,974.7,0.8,0,-1.5,25,-31.4576,216.091,976.109,0.150231,-1.24865,-2.2718,
2026_07_06_21_08_06.523,3.867,33.1,0,0.762,0,0,0,0, ,0,0,0,0,0, ,-34.4,226.3,973.9,0.8,-1,-1.3,25,-31.3992,216.476,975.998,0.189826,-1.20303,-2.21867,
2026_07_06_21_08_06.543,3.867,33.1,0,0.761,0,0,0,0, ,0,0,0,0,0, ,-41.5,242,994.2,0.3,-2.6,-2.1,25,-31.7984,217.553,976.489,0.211774,-1.23941,-2.18706,
2026_07_06_21_08_06.562,3.867,33.2,0,0.761,0,0,0,0, ,0,0,0,0,0, ,-39.4,225.4,984.1,-1.2,0,-3.2,25,-32.3256,218.537,977.261,0.171448,-1.2431,-2.21527,
2026_07_06_21_08_06.583,3.867,33.1,0,0.76,0,0,0,0, ,0,0,0,0,0, ,-24.7,225.3,974.2,-1.7,1.2,-4.5,25,-32.3088,218.952,977.376,0.0726406,-1.13078,-2.31489,
2026_07_06_21_08_06.601,3.867,33.1,0,0.76,0,0,0,0, ,0,0,0,0,0, ,-13.6,231.8,959.3,-0.4,-0.1,-3.3,25,-31.507,219.537,976.728,0.00422965,-1.02836,-2.41148,
2026_07_06_21_08_06.621,3.867,33.1,0,0.761,0,0,0,0, ,0,0,0,0,0, ,-12.3,233,983.7,0.5,1.4,-2.4,25,-30.3762,220.321,976.41,0.00701878,-0.926086,-2.43821,
2026_07_06_21_08_06.641,3.867,33.1,0,0.763,0,0,0,0, ,0,0,0,0,0, ,-24.6,224.3,994.2,-1.1,-0.8,-1.1,25,-29.6494,220.828,977.174,-0.0116902,-0.851371,-2.39627,
2026_07_06_21_08_06.661,3.867,33.1,0,0.763,0,0,0,0, ,0,0,0,0,0, ,-35.5,216.3,975.5,-1.2,-3.2,-0.9,25,-29.6738,220.796,977.642,-0.0810559,-0.921366,-2.31118,
2026_07_06_21_08_06.681,3.867,33.1,0,0.761,0,0,0,0, ,0,0,0,0,0, ,-32.4,227.4,967.4,-1.1,0,-2.5,25,-29.9344,220.86,977.264,-0.146195,-0.96272,-2.27394,
2026_07_06_21_08_06.701,3.867,33.1,0,0.761,0,0,0,0, ,0,0,0,0,0, ,-22.7,234.9,966.4,-0.4,1.4,-1.7,25,-29.7891,221.487,976.633,-0.182989,-0.861398,-2.26334,
2026_07_06_21_08_06.721,3.867,33.2,0,0.761,0,0,0,0, ,0,0,0,0,0, ,-24,220.2,972.6,0.2,1.6,-1.2,25,-29.3967,221.857,976.198,-0.177932,-0.7175,-2.21378,
2026_07_06_21_08_06.740,3.867,33.1,0,0.763,0,0,0,0, ,0,0,0,0,0, ,-28.9,222.5,981.3,0,-0.9,0,25,-29.2171,221.826,976.244,-0.160995,-0.65245,-2.11544,
2026_07_06_21_08_06.763,3.867,33.2,0,0.763,0,0,0,0, ,0,0,0,0,0, ,-38.6,226.1,989.3,0,-1.2,0.5,25,-29.4934,221.977,976.796,-0.151185,-0.676675,-1.97129,
2026_07_06_21_08_06.779,3.867,33.1,0,0.764,0,0,0,0, ,0,0,0,0,0, ,-49.8,221.1,970.4,-1.2,-0.7,-0.3,25,-30.3896,222.075,976.982,-0.178534,-0.693331,-1.84507,
2026_07_06_21_08_06.800,3.867,33.1,0,0.763,0,0,0,0, ,0,0,0,0,0, ,-44,216.4,949.5,-0.7,-0.6,-2.1,25,-31.3957,221.873,975.944,-0.225546,-0.690691,-1.80576,
2026_07_06_21_08_06.820,3.867,33.1,0,0.76,0,0,0,0, ,0,0,0,0,0, ,-30.7,212,958.8,-0.6,0.4,-3.4,25,-31.7585,221.405,974.616,-0.251411,-0.654695,-1.8633,
2026_07_06_21_08_06.840,3.867,33.2,0,0.761,0,0,0,0, ,0,0,0,0,0, ,-25,218.3,964.2,-0.5,-1.4,-3.5,25,-31.5203,221.024,973.817,-0.269606,-0.645269,-1.95999,
2026_07_06_21_08_06.859,3.867,33.1,0,0.763,0,0,0,0, ,0,0,0,0,0, ,-22.5,212.5,962,0.3,-1.5,-3.5,25,-31.0468,220.681,973.164,-0.259271,-0.694307,-2.05384,
2026_07_06_21_08_06.879,3.867,33.1,0,0.763,0,0,0,0, ,0,0,0,0,0, ,-17.2,211.4,950.4,1,0,-3.9,25,-30.3645,220.149,972.13,-0.203862,-0.697701,-2.15415,
2026_07_06_21_08_06.901,3.867,33.1,0,0.763,0,0,0,0, ,0,0,0,0,0, ,-10.6,231.9,965.8,2.1,0.1,-3.2,25,-29.3612,220.241,971.275,-0.0969861,-0.652138,-2.23921,
2026_07_06_21_08_06.918,3.867,33.1,0,0.763,0,0,0,0, ,0,0,0,0,0, ,-18.3,236.3,992.9,1.2,0.1,-1.4,25,-28.4526,221.085,971.767,0.00947085,-0.606304,-2.24291,
2026_07_06_21_08_06.938,3.867,33.1,0,0.761,0,0,0,0, ,0,0,0,0,0, ,-23.6,230.3,990.9,0.6,-1,-1,25,-27.9954,221.83,972.994,0.0637375,-0.59678,-2.17936,
2026_07_06_21_08_06.958,3.867,33.1,0,0.763,0,0,0,0, ,0,0,0,0,0, ,-29.2,218.2,969.2,0.5,-0.3,-0.7,25,-27.8982,221.977,973.424,0.0933691,-0.600023,-2.09835,
2026_07_06_21_08_06.978,3.867,33.2,0,0.763,0,0,0,0, ,0,0,0,0,0, ,-41.2,231.3,971.5,2.6,-0.5,-0.3,25,-28.3431,222.146,973.237,0.182133,-0.587834,-2.00095,
2026_07_06_21_08_06.998,3.867,33.1,0,0.76,0,0,0,0, ,0,0,0,0,0, ,-43,237.4,991.4,2.3,0.4,-1.1,25,-29.1814,222.89,973.737,0.320331,-0.55506,-1.92168,
2026_07_06_21_08_07.018,3.867,33.1,0,0.761,0,0,0,0, ,0,0,0,0,0, ,-33.6,237.9,1001.9,0.4,0.8,-2.2,25,-29.7371,223.789,975.133,0.383076,-0.484673,-1.90512,
2026_07_06_21_08_07.042,3.867,33.2,0,0.761,0,0,0,0, ,0,0,0,0,0, ,-23.5,246.9,993.4,-0.9,0.1,-1.3,25,-29.6647,224.923,976.505,0.344498,-0.427716,-1.89567,
2026_07_06_21_08_07.058,3.867,33,0,0.761,0,0,0,0, ,0,0,0,0,0, ,-37.5,242.1,971.9,-0.1,-0.3,0.1,25,-29.7156,226.116,976.88,0.293036,-0.407746,-1.81671,
2026_07_06_21_08_07.077,3.867,33.2,0,0.76,0,0,0,0, ,0,0,0,0,0, ,-40.6,235.4,983.1,0.2,0,-0.4,25,-30.2845,226.886,976.918,0.278226,-0.39204,-1.71515,
2026_07_06_21_08_07.097,3.867,33.1,0,0.761,0,0,0,0, ,0,0,0,0,0, ,-44.3,237.9,977.9,0.2,-1,-1.3,25,-31.0258,227.481,977.136,0.27346,-0.398619,-1.66243,
2026_07_06_21_08_07.116,3.867,33.2,0,0.763,0,0,0,0, ,0,0,0,0,0, ,-40.6,246,970.7,0,0.5,-1.2,25,-31.722,228.363,976.963,0.262889,-0.389562,-1.6373,
2026_07_06_21_08_07.136,3.867,33.1,0,0.763,0,0,0,0, ,0,0,0,0,0, ,-40.6,244.8,984,0.3,-0.1,-0.4,25,-32.263,229.401,976.987,0.25601,-0.353636,-1.58627,
2026_07_06_21_08_07.157,3.867,33.1,0,0.761,0,0,0,0, ,0,0,0,0,0, ,-45,231.9,993,-0.4,-0.9,-1.2,25,-32.9051,229.946,977.688,0.237363,-0.362555,-1.53836,
2026_07_06_21_08_07.177,3.867,33.2,0,0.76,0,0,0,0, ,0,0,0,0,0, ,-39.6,234,970.8,-1.4,0,-2.6,25,-33.4776,230.129,977.945,0.168055,-0.367884,-1.5604,
2026_07_06_21_08_07.195,3.867,33.1,0,0.763,0,0,0,0, ,0,0,0,0,0, ,-25.1,247.6,971.1,-0.7,0.5,-3.2,25,-33.4089,230.78,977.519,0.0938294,-0.330231,-1.64203,
2026_07_06_21_08_07.215,3.867,33.1,0,0.76,0,0,0,0, ,0,0,0,0,0, ,-20.1,245.8,991.4,-1.4,0,-1.8,25,-32.7502,231.75,977.746,0.0241273,-0.294873,-1.69431,
2026_07_06_21_08_07.235,3.867,33.1,0,0.763,0,0,0,0, ,0,0,0,0,0, ,-20.7,233.5,988.5,-2.6,-0.3,-0.9,25,-31.9976,232.231,978.49,-0.0992179,-0.286045,-1.67333,
2026_07_06_21_08_07.255,3.867,33.1,0,0.763,0,0,0,0, ,0,0,0,0,0, ,-31.8,226.6,969.4,-2.9,-0.9,-0.9,25,-31.6474,232.098,978.518,-0.26075,-0.305177,-1.62621,
2026_07_06_21_08_07.276,3.867,33.2,0,0.76,0,0,0,0, ,0,0,0,0,0, ,-33.3,227,957.5,-2.1,0.5,-1,25,-31.7024,231.775,977.6,-0.397204,-0.298768,-1.585,
2026_07_06_21_08_07.295,3.867,33.2,0,0.763,0,0,0,0, ,0,0,0,0,0, ,-43.7,215.6,965.9,-1,1.4,-1.5,25,-32.1166,231.137,976.631,-0.467453,-0.222671,-1.56459,
2026_07_06_21_08_07.315,3.867,33.2,0,0.76,0,0,0,0, ,0,0,0,0,0, ,-43.4,200.3,976.9,-1.8,0.1,-2.4,25,-32.8133,229.724,976.312,-0.52428,-0.163399,-1.58807,
2026_07_06_21_08_07.335,3.867,33.2,0,0.763,0,0,0,0, ,0,0,0,0,0, ,-37.5,201.7,956.4,-1.6,0.4,-3,25,-33.2787,227.974,975.723,-0.595925,-0.138207,-1.65583,
2026_07_06_21_08_07.354,3.867,33.1,0,0.763,0,0,0,0, ,0,0,0,0,0, ,-36.7,214.5,956.7,-0.3,-2,-2.2,25,-33.5115,226.763,974.555,-0.617502,-0.178535,-1.71337,
2026_07_06_21_08_07.375,3.867,33.2,0,0.761,0,0,0,0, ,0,0,0,0,0, ,-33.9,217.6,966.1,-0.1,-0.6,-2.1,25,-33.6205,226.11,973.753,-0.59206,-0.246874,-1.73997,
2026_07_06_21_08_07.395,3.867,33.1,0,0.761,0,0,0,0, ,0,0,0,0,0, ,-37.3,225.7,959.8,0.8,0,-1.9,25,-33.7411,225.838,973.095,-0.534653,-0.250112,-1.75582,
2026_07_06_21_08_07.414,3.867,33.2,0,0.762,0,0,0,0, ,0,0,0,0,0, ,-35.6,223,980.1,1.8,0.1,-2.4,25,-33.9062,225.747,972.903,-0.422854,-0.231824,-1.77984,
2026_07_06_21_08_07.434,3.867,33.2,0,0.763,0,0,0,0, ,0,0,0,0,0, ,-31.1,232.5,988.6,1.1,0.1,-2.3,25,-33.8723,225.869,973.601,-0.308727,-0.211603,-1.81458,
2026_07_06_21_08_07.454,3.867,33.2,0,0.761,0,0,0,0, ,0,0,0,0,0, ,-31.4,250.8,991,0.8,-2.5,-0.2,25,-33.7125,226.831,974.588,-0.232023,-0.271834,-1.78018,
2026_07_06_21_08_07.473,3.867,33.2,0,0.761,0,0,0,0, ,0,0,0,0,0, ,-52.1,249.5,980.4,-0.3,-1.9,0,25,-34.2023,228.252,975.265,-0.20265,-0.389331,-1.67779,
2026_07_06_21_08_07.493,3.867,33.1,0,0.761,0,0,0,0, ,0,0,0,0,0, ,-55.5,236.2,971,-0.1,-0.2,-2.5,25,-35.3965,229.142,975.292,-0.202489,-0.429591,-1.65172,
2026_07_06_21_08_07.513,3.867,33,0,0.761,0,0,0,0, ,0,0,0,0,0, ,-41,240.3,982.1,-0.1,0.1,-4.1,25,-36.1798,229.697,975.368,-0.196243,-0.406459,-1.75217,
2026_07_06_21_08_07.533,3.867,33.2,0,0.763,0,0,0,0, ,0,0,0,0,0, ,-25.2,248.4,987.1,-0.7,0.3,-4,25,-35.9921,230.59,975.931,-0.20866,-0.369503,-1.89219,
2026_07_06_21_08_07.552,3.867,33.1,0,0.761,0,0,0,0, ,0,0,0,0,0, ,-23,254.8,972.9,-0.8,-0.5,-2.2,25,-35.2674,231.87,976.179,-0.241648,-0.35308,-1.96579,
2026_07_06_21_08_07.572,3.867,33.1,0,0.761,0,0,0,0, ,0,0,0,0,0, ,-26,247,966.1,-0.1,0,-0.6,25,-34.6113,233.03,975.772,-0.254344,-0.346799,-1.93131,
2026_07_06_21_08_07.591,3.867,33.2,0,0.76,0,0,0,0, ,0,0,0,0,0, ,-30,231.4,969.2,0,0.7,-0.8,25,-34.2084,233.406,975.277,-0.241892,-0.304338,-1.85628,
2026_07_06_21_08_07.611,3.867,33.1,0,0.761,0,0,0,0, ,0,0,0,0,0, ,-24,243.2,980.7,-0.1,0.3,-0.9,25,-33.7692,233.643,975.257,-0.230198,-0.255324,-1.79496,
2026_07_06_21_08_07.631,3.867,33.1,0,0.761,0,0,0,0, ,0,0,0,0,0, ,-26.3,250.2,979.8,-0.2,0.4,-0.4,25,-33.2439,234.439,975.561,-0.225311,-0.218437,-1.72519,
2026_07_06_21_08_07.651,3.867,33.1,0,0.761,0,0,0,0, ,0,0,0,0,0, ,-36.9,236.4,973.7,-0.8,0.8,0.1,25,-33.1438,234.979,975.634,-0.24205,-0.168563,-1.6292,
2026_07_06_21_08_07.671,3.867,33.2,0,0.761,0,0,0,0, ,0,0,0,0,0, ,-43,221.4,973.2,-0.7,1.1,-0.8,25,-33.5585,234.608,975.501,-0.273003,-0.100401,-1.55125,
2026_07_06_21_08_07.691,3.867,33,0,0.762,0,0,0,0, ,0,0,0,0,0, ,-49.3,225.9,969.2,-0.1,-1.3,-1.4,25,-34.3258,233.94,975.239,-0.280742,-0.100376,-1.52375,
2026_07_06_21_08_07.716,3.867,33.1,0,0.761,0,0,0,0, ,0,0,0,0,0, ,-54,229,983,-1,-1.2,-2.5,25,-35.3815,233.545,975.291,-0.29715,-0.170431,-1.54973,
2026_07_06_21_08_07.731,3.867,33.2,0,0.761,0,0,0,0, ,0,0,0,0,0, ,-42.9,219.2,979.6,-2,-0.9,-4.1,25,-36.1779,232.969,975.657,-0.370449,-0.22403,-1.65638,
2026_07_06_21_08_07.751,3.867,33.2,0,0.76,0,0,0,0, ,0,0,0,0,0, ,-32.2,226.6,954.3,-1.3,-0.6,-4.7,25,-36.2615,232.356,975.127,-0.448421,-0.256081,-1.82357,
2026_07_06_21_08_07.770,3.867,33.1,0,0.762,0,0,0,0, ,0,0,0,0,0, ,-27,233.2,957.8,0.8,-1.2,-4.1,25,-35.8555,232.206,973.964,-0.43633,-0.29532,-1.98057,
2026_07_06_21_08_07.790,3.867,33.1,0,0.76,0,0,0,0, ,0,0,0,0,0, ,-23.5,244.5,972.1,0.8,0.3,-3,25,-35.2093,232.611,973.415,-0.360991,-0.304746,-2.07621,
2026_07_06_21_08_07.810,3.867,33.1,0,0.76,0,0,0,0, ,0,0,0,0,0, ,-29.6,234.3,983.2,0.9,-0.4,-2.1,25,-34.6816,233.025,973.673,-0.287197,-0.289222,-2.10508,
2026_07_06_21_08_07.829,3.867,33.2,0,0.761,0,0,0,0, ,0,0,0,0,0, ,-39.4,234.6,982.5,0.4,-1.2,-1.5,25,-34.6705,233.112,974.232,-0.230086,-0.320348,-2.08649,
2026_07_06_21_08_07.849,3.867,33.2,0,0.761,0,0,0,0, ,0,0,0,0,0, ,-42.9,246.7,988.5,-0.7,-1.9,-2,25,-35.0654,233.571,974.919,-0.225206,-0.39528,-2.06599,
2026_07_06_21_08_07.869,3.867,33.2,0,0.761,0,0,0,0, ,0,0,0,0,0, ,-41.6,244.3,989.2,-2.1,-1,-3.3,25,-35.5032,234.298,975.768,-0.296795,-0.459552,-2.10157,
2026_07_06_21_08_07.889,3.867,33.1,0,0.761,0,0,0,0, ,0,0,0,0,0, ,-31.1,236.3,961.9,-3.2,1.3,-4.3,25,-35.5548,234.664,975.754,-0.440193,-0.422407,-2.20507,
2026_07_06_21_08_07.909,3.867,33.2,0,0.761,0,0,0,0, ,0,0,0,0,0, ,-19.1,238.5,941.7,-0.8,-0.5,-3,25,-34.9177,234.83,974.295,-0.535244,-0.372292,-2.29312,
2026_07_06_21_08_07.929,3.867,33.2,0,0.763,0,0,0,0, ,0,0,0,0,0, ,-9.2,241.3,966.3,1.1,0.1,-1.2,25,-33.6522,235.139,973.058,-0.493487,-0.361793,-2.28135,
2026_07_06_21_08_07.949,3.867,33.1,0,0.763,0,0,0,0, ,0,0,0,0,0, ,-18.4,244.5,990.8,-0.3,-0.1,0,25,-32.4424,235.612,973.393,-0.43904,-0.339746,-2.1789,
2026_07_06_21_08_07.968,3.867,33.2,0,0.762,0,0,0,0, ,0,0,0,0,0, ,-29.4,242,986.4,-1.8,-2.2,0.4,25,-31.9219,236.078,974.319,-0.47627,-0.389121,-2.03393,
2026_07_06_21_08_07.991,3.867,33.2,0,0.76,0,0,0,0, ,0,0,0,0,0, ,-42.7,225.8,947.9,-2.1,0.1,-0.5,25,-32.1734,235.945,973.882,-0.566076,-0.429393,-1.91304,
2026_07_06_21_08_08.008,3.867,33.2,0,0.761,0,0,0,0, ,0,0,0,0,0, ,-37.7,221.4,938.5,-0.1,3.1,-2.8,25,-32.6625,235.193,972.013,-0.598612,-0.305727,-1.89701,
2026_07_06_21_08_08.028,3.867,33.2,0,0.763,0,0,0,0, ,0,0,0,0,0, ,-22.4,232.9,975.2,0.2,1.1,-1.9,25,-32.5033,234.703,971.089,-0.559087,-0.159128,-1.92461,
2026_07_06_21_08_08.047,3.867,33.2,0,0.762,0,0,0,0, ,0,0,0,0,0, ,-28.8,225.8,977,-0.7,-1.1,-1.3,25,-32.0827,234.376,971.394,-0.540252,-0.149431,-1.90483,
2026_07_06_21_08_08.067,3.867,33.2,0,0.762,0,0,0,0, ,0,0,0,0,0, ,-25.3,233.5,950.9,-0.7,0.5,-1.6,25,-31.776,234.088,970.941,-0.549987,-0.158607,-1.87711,
2026_07_06_21_08_08.087,3.867,33.2,0,0.763,0,0,0,0, ,0,0,0,0,0, ,-27.4,233.7,952,0.7,2.9,-0.1,25,-31.4453,234.059,969.753,-0.516472,-0.0453477,-1.81452,
2026_07_06_21_08_08.107,3.867,33.2,0,0.761,0,0,0,0, ,0,0,0,0,0, ,-47.4,232.4,977.9,1.8,0.1,0.3,25,-31.8082,233.997,969.46,-0.408828,0.0488219,-1.69786,
2026_07_06_21_08_08.128,3.867,33.2,0,0.761,0,0,0,0, ,0,0,0,0,0, ,-65.5,220,982.1,-0.3,-0.7,-1.3,25,-33.3098,233.522,970.102,-0.338211,0.0275656,-1.62486,
2026_07_06_21_08_08.147,3.867,33.2,0,0.761,0,0,0,0, ,0,0,0,0,0, ,-47.4,219.2,966.9,-1.3,0.2,-4.7,25,-34.7199,232.674,970.37,-0.366352,0.0106514,-1.70866,
2026_07_06_21_08_08.167,3.867,33.1,0,0.762,0,0,0,0, ,0,0,0,0,0, ,-31.2,233.8,950.3,0,0.1,-5.7,25,-34.999,232.297,969.653,-0.383637,0.019143,-1.92141,
2026_07_06_21_08_08.187,3.867,33.1,0,0.763,0,0,0,0, ,0,0,0,0,0, ,-22.3,245.1,963.3,1.5,1.1,-4.8,25,-34.4963,232.733,968.87,-0.314556,0.0545389,-2.12425,
2026_07_06_21_08_08.206,3.867,33.2,0,0.761,0,0,0,0, ,0,0,0,0,0, ,-38.3,234.6,983.1,0.8,2.5,-4.1,25,-34.2406,233.167,969.134,-0.225309,0.160903,-2.26598,
2026_07_06_21_08_08.226,3.867,33.3,0,0.763,0,0,0,0, ,0,0,0,0,0, ,-52.7,215.6,984.4,-0.3,-0.3,-3.9,25,-34.9268,232.675,970.024,-0.196345,0.218129,-2.37164,
2026_07_06_21_08_08.246,3.867,33.1,0,0.762,0,0,0,0, ,0,0,0,0,0, ,-52.2,230.2,960.5,-2.3,-0.4,-3.6,25,-35.9946,232.08,970.172,-0.263599,0.183509,-2.45564,
2026_07_06_21_08_08.266,3.867,33.1,0,0.762,0,0,0,0, ,0,0,0,0,0, ,-61.8,236.3,924.5,-1,-2.7,-2.8,25,-37.2746,232.151,968.486,-0.348083,0.0778731,-2.501,
2026_07_06_21_08_08.285,3.867,33.1,0,0.76,0,0,0,0, ,0,0,0,0,0, ,-38.8,221.1,932.6,-0.3,-2.2,-3.5,25,-38.0683,231.941,966.052,-0.366481,-0.0761691,-2.54054,
2026_07_06_21_08_08.305,3.867,33,0,0.761,0,0,0,0, ,0,0,0,0,0, ,-34.4,218.9,923.8,0.6,-3.4,-4.1,25,-37.9789,231.213,963.746,-0.335008,-0.242153,-2.61729,
2026_07_06_21_08_08.325,3.867,33.3,0,0.76,0,0,0,0, ,0,0,0,0,0, ,-26.6,233.3,918.7,1.2,-6,-4,25,-37.5231,230.901,961.156,-0.25975,-0.513803,-2.7046,
2026_07_06_21_08_08.345,3.867,33.2,0,0.763,0,0,0,0, ,0,0,0,0,0, ,-31,246.4,913.5,0.1,-6.7,-3.7,25,-36.9915,231.447,958.411,-0.204312,-0.869446,-2.7744,
2026_07_06_21_08_08.364,3.867,33.2,0,0.761,0,0,0,0, ,0,0,0,0,0, ,-37.1,236.6,880.2,-0.9,-9.7,-2.9,25,-36.8123,232.059,954.659,-0.216236,-1.31615,-2.80643,
2026_07_06_21_08_08.385,3.867,33.2,0,0.761,0,0,0,0, ,0,0,0,0,0, ,-15.6,166.1,848.6,0.3,-10.5,-5.6,25,-36.1747,230.188,949.159,-0.221341,-1.85142,-2.89439,
2026_07_06_21_08_08.404,3.867,33.2,0,0.763,0,0,0,0, ,0,0,0,0,0, ,38.8,191.8,821.1,4.7,-7.5,-5.6,25,-33.2635,227.066,942.193,-0.0555091,-2.28703,-3.05927,
2026_07_06_21_08_08.424,3.867,33.1,0,0.763,0,0,0,0, ,0,0,0,0,0, ,41.8,236.8,834.7,9.4,-9.5,-0.6,25,-28.7807,226.288,935.229,0.377483,-2.66564,-3.06175,
2026_07_06_21_08_08.444,3.867,33.2,0,0.763,0,0,0,0, ,0,0,0,0,0, ,-2.8,263.9,833.3,9.8,-18,5.8,25,-25.8386,227.754,929.06,0.93948,-3.34109,-2.71674,
2026_07_06_21_08_08.464,3.867,33.2,0,0.761,0,0,0,0, ,0,0,0,0,0, ,-13.9,205.9,857.2,11.2,-18.4,4.9,25,-24.7729,228.19,923.953,1.52207,-4.24655,-2.22517,
2026_07_06_21_08_08.484,3.867,33.1,0,0.76,0,0,0,0, ,0,0,0,0,0, ,0.7,228.3,891.8,9.1,-8.3,-1.3,25,-23.6655,227.514,920.939,2.04784,-4.8013,-1.97989,
2026_07_06_21_08_08.503,3.867,33.1,0,0.761,0,0,0,0, ,0,0,0,0,0, ,-0.8,274.6,907.7,7.4,-7.3,-2.8,25,-22.2264,228.972,919.648,2.42578,-4.98403,-1.98416,
2026_07_06_21_08_08.523,3.867,33.2,0,0.761,0,0,0,0, ,0,0,0,0,0, ,-53.9,340.6,905.8,2.2,-12.2,-1.6,25,-22.5386,233.764,918.862,2.57046,-5.27446,-1.99731,
