UTC_Time,Vin,TC1,TC2,Rh1,Vh1,Ah1,Acp1,Dty1,Err1,Rh2,Vh2,Ah2,Acp2,Dty2,Err2,Accel_x,Accel_y,Accel_z,gyro_x,gyro_y,gyro_z,Temp_c,Accel_x_h,Accel_y_h,Accel_z_h,gyro_x_h,gyro_y_h,gyro_z_h,
2026_06_15_18_21_44.624,3.808,26.2,0,0.754,0,0,0,0.03, ,0,0,0,0,0, ,16.1,-43,1005.4,-0.5,0.9,-2.1,25,16.1,-43,1005.4,-0.5,0.9,-2.1,
2026_06_15_18_21_44.642,3.808,26.3,0,0.756,0,0,0,0.031, ,0,0,0,0,0, ,12.8,-43.5,991.2,0.1,0.4,-1.5,25,15.9995,-43.0152,1004.97,-0.481719,0.884766,-2.08172,
2026_06_15_18_21_44.658,3.808,26.3,0,0.754,0,0,0,0.03, ,0,0,0,0,0, ,6.9,-43.3,989.8,-0.4,-1.6,-1.1,25,15.6247,-43.0387,1004.09,-0.461505,0.794288,-2.03408,
2026_06_15_18_21_44.675,3.808,26.2,0,0.755,0,0,0,0.031, ,0,0,0,0,0, ,6.9,-40,1011.1,-0.4,-3.2,-1.6,25,15.0931,-42.9541,1003.86,-0.457757,0.599636,-1.9924,
2026_06_15_18_21_44.708,3.808,26.2,0,0.752,0,0,0,0.032, ,0,0,0,0,0, ,20.6,-38.6,1010.2,0.7,0,-2.1,25,15.0112,-42.7314,1004.28,-0.420722,0.465596,-1.98372,
2026_06_15_18_21_44.724,3.808,26.2,0,0.752,0,0,0,0.032, ,0,0,0,0,0, ,21.9,-39,1001.3,0.3,0.7,-1.2,25,15.3914,-42.4918,1004.37,-0.364615,0.458551,-1.96338,
2026_06_15_18_21_44.742,3.808,26.3,0,0.752,0,0,0,0.033, ,0,0,0,0,0, ,12.4,-38.2,997.8,-0.4,-0.3,-0.1,25,15.4986,-42.2547,1004.07,-0.345443,0.442796,-1.88335,
2026_06_15_18_21_44.758,3.808,26.2,0,0.757,0,0,0,0.032, ,0,0,0,0,0, ,6.2,-36.6,1006.9,-0.6,-0.9,-0.5,25,15.1208,-41.9588,1003.97,-0.354862,0.379251,-1.78686,
2026_06_15_18_21_44.775,3.808,26.2,0,0.755,0,0,0,0.033, ,0,0,0,0,0, ,12,-37.5,1011.4,-0.5,-0.4,-1.2,25,14.7539,-41.6597,1004.28,-0.366753,0.316531,-1.72977,
2026_06_15_18_21_44.807,3.808,26.1,0,0.755,0,0,0,0.034, ,0,0,0,0,0, ,17.4,-39.9,1004.5,-1.4,-0.1,-0.8,25,14.7507,-41.4793,1004.51,-0.402294,0.282008,-1.6853,
2026_06_15_18_21_44.824,3.808,26.2,0,0.756,0,0,0,0.035, ,0,0,0,0,0, ,8.1,-41.7,994.5,-1,0.1,-0.6,25,14.6287,-41.4379,1004.2,-0.450905,0.264823,-1.62526,
2026_06_15_18_21_44.842,3.808,26.3,0,0.755,0,0,0,0.034, ,0,0,0,0,0, ,6.3,-39.6,998.9,-0.5,-1,-1.1,25,14.176,-41.3899,1003.75,-0.469131,0.221263,-1.57802,
2026_06_15_18_21_44.858,3.808,26.3,0,0.753,0,0,0,0.034, ,0,0,0,0,0, ,8.7,-42.3,1008.9,-0.2,-1.9,-1,25,13.7692,-41.3631,1003.75,-0.461871,0.119421,-1.54584,
2026_06_15_18_21_44.876,3.808,26.3,0,0.753,0,0,0,0.034, ,0,0,0,0,0, ,4.6,-38.4,995.6,-0.1,-0.5,-1.7,25,13.3354,-41.3014,1003.66,-0.442867,0.0390185,-1.53391,
2026_06_15_18_21_44.908,3.808,26.4,0,0.757,0,0,0,0.035, ,0,0,0,0,0, ,10,-39.7,998.7,0.7,-0.4,-2.5,25,12.9676,-41.1642,1003.27,-0.397598,0.00921896,-1.5684,
2026_06_15_18_21_44.925,3.808,26.3,0,0.756,0,0,0,0.034, ,0,0,0,0,0, ,15.3,-40.1,1000.3,0.3,-1.2,-1.9,25,12.9483,-41.0872,1003.04,-0.342901,-0.0400928,-1.60689,
2026_06_15_18_21_44.943,3.808,26.4,0,0.756,0,0,0,0.035, ,0,0,0,0,0, ,10.9,-38,1004.5,0.2,-1.8,-1.5,25,12.9575,-40.963,1003,-0.306771,-0.129056,-1.61257,
2026_06_15_18_21_44.958,3.808,26.4,0,0.757,0,0,0,0.035, ,0,0,0,0,0, ,8.4,-35.2,1003.9,0,-1.4,-1.9,25,12.756,-40.6971,1003.07,-0.281983,-0.218692,-1.61789,
2026_06_15_18_21_44.974,3.808,26.3,0,0.756,0,0,0,0.035, ,0,0,0,0,0, ,9.7,-32.1,1006.7,-0.5,-2.5,-2.3,25,12.5301,-40.2677,1003.21,-0.280034,-0.324193,-1.64727,
2026_06_15_18_21_45.005,3.808,26.5,0,0.753,0,0,0,0.037, ,0,0,0,0,0, ,16.1,-33.2,1013.6,-0.9,-1.8,-2.4,25,12.5527,-39.8035,1003.63,-0.305626,-0.435453,-1.69009,
2026_06_15_18_21_45.025,3.808,26.5,0,0.757,0,0,0,0.035, ,0,0,0,0,0, ,20.6,-36.8,1009,-1.8,-0.3,-2.6,25,12.9059,-39.5108,1004.1,-0.369267,-0.472902,-1.73945,
2026_06_15_18_21_45.043,3.808,26.4,0,0.759,0,0,0,0.036, ,0,0,0,0,0, ,29.7,-41.8,1004.3,-0.4,2.1,-2.2,25,13.6521,-39.4979,1004.25,-0.413796,-0.389241,-1.7797,
2026_06_15_18_21_45.058,3.808,26.4,0,0.754,0,0,0,0.037, ,0,0,0,0,0, ,18.9,-41.2,992.9,-0.7,1,-1.1,25,14.3009,-39.6199,1003.91,-0.422096,-0.271068,-1.7718,
2026_06_15_18_21_45.074,3.808,26.5,0,0.753,0,0,0,0.037, ,0,0,0,0,0, ,10.1,-41.7,1000.3,-1.2,-1.4,-0.4,25,14.3131,-39.7315,1003.46,-0.454265,-0.266738,-1.70953,
2026_06_15_18_21_45.091,3.808,26.5,0,0.753,0,0,0,0.037, ,0,0,0,0,0, ,10.6,-39.1,1007.5,0.4,0.6,-1,25,14.0716,-39.7722,1003.49,-0.450959,-0.274858,-1.64801,
2026_06_15_18_21_45.125,3.808,26.6,0,0.757,0,0,0,0.037, ,0,0,0,0,0, ,9.2,-37.7,1003.5,0.6,1,-1.3,25,13.8173,-39.6886,1003.61,-0.39301,-0.209359,-1.61767,
2026_06_15_18_21_45.144,3.808,26.5,0,0.76,0,0,0,0.037, ,0,0,0,0,0, ,1.4,-39.5,997.1,-0.3,-0.5,-1.4,25,13.2983,-39.6222,1003.41,-0.35992,-0.181367,-1.60135,
2026_06_15_18_21_45.158,3.808,26.5,0,0.755,0,0,0,0.038, ,0,0,0,0,0, ,0,-38.2,1001.7,-0.5,-1.2,-2,25,12.5306,-39.5752,1003.17,-0.362362,-0.222112,-1.60737,
2026_06_15_18_21_45.174,3.808,26.6,0,0.757,0,0,0,0.038, ,0,0,0,0,0, ,2,-34,1008.9,0.5,-1.1,-3.3,25,11.828,-39.3634,1003.3,-0.340281,-0.278655,-1.6709,
2026_06_15_18_21_45.191,3.808,26.5,0,0.753,0,0,0,0.038, ,0,0,0,0,0, ,23.5,-38,1009.2,0,-0.4,-3.7,25,11.8842,-39.1585,1003.65,-0.304311,-0.307378,-1.78236,
2026_06_15_18_21_45.224,3.808,26.6,0,0.753,0,0,0,0.039, ,0,0,0,0,0, ,30.2,-37.2,1003.2,-0.9,-0.2,-1.9,25,12.7961,-39.0635,1003.8,-0.313189,-0.306928,-1.84437,
2026_06_15_18_21_45.241,3.808,26.6,0,0.756,0,0,0,0.038, ,0,0,0,0,0, ,24.2,-37.8,1002.1,-1.6,-0.4,-0.2,25,13.6739,-38.9682,1003.73,-0.370276,-0.306506,-1.79597,
2026_06_15_18_21_45.256,3.808,26.6,0,0.757,0,0,0,0.039, ,0,0,0,0,0, ,12.2,-37.8,1005.4,-2.1,0.1,0.1,25,13.9497,-38.897,1003.73,-0.460446,-0.296969,-1.68957,
2026_06_15_18_21_45.274,3.808,26.6,0,0.755,0,0,0,0.039, ,0,0,0,0,0, ,11.9,-38.2,1010.9,-1.9,1.3,-0.3,25,13.8339,-38.8424,1004,-0.554263,-0.236216,-1.59271,
2026_06_15_18_21_45.291,3.808,26.6,0,0.758,0,0,0,0.039, ,0,0,0,0,0, ,11.2,-40.2,1004,-1.7,1.5,-0.4,25,13.6947,-38.8642,1004.21,-0.630175,-0.136509,-1.51698,
2026_06_15_18_21_45.321,3.808,26.7,0,0.757,0,0,0,0.04, ,0,0,0,0,0, ,7.9,-44.1,989.8,-1.6,1.4,-0.5,25,13.4422,-39.0644,1003.77,-0.69232,-0.0398312,-1.45196,
2026_06_15_18_21_45.341,3.808,26.7,0,0.753,0,0,0,0.039, ,0,0,0,0,0, ,6.2,-44,992.7,-1.3,-1.1,-0.2,25,13.0526,-39.3682,1003,-0.738492,-0.0282634,-1.38481,
2026_06_15_18_21_45.358,3.808,26.7,0,0.753,0,0,0,0.04, ,0,0,0,0,0, ,3.7,-41.7,1011.3,-1,-2.9,-0.3,25,12.5589,-39.5804,1002.94,-0.763568,-0.148416,-1.31566,
2026_06_15_18_21_45.375,3.808,26.7,0,0.758,0,0,0,0.04, ,0,0,0,0,0, ,7.6,-40.6,1008.9,0.1,0.1,-1.2,25,12.1379,-39.676,1003.38,-0.74446,-0.224684,-1.28119,
2026_06_15_18_21_45.391,3.808,26.8,0,0.757,0,0,0,0.04, ,0,0,0,0,0, ,-1.3,-39.4,995.2,0,0.4,-2.5,25,11.5902,-39.6958,1003.3,-0.696047,-0.195758,-1.31585,
2026_06_15_18_21_45.408,3.808,26.8,0,0.758,0,0,0,0.04, ,0,0,0,0,0, ,4.1,-42.2,994.8,-0.5,-2.5,-3.4,25,10.9692,-39.7631,1002.79,-0.668866,-0.247814,-1.41543,
2026_06_15_18_21_45.441,3.808,26.9,0,0.758,0,0,0,0.04, ,0,0,0,0,0, ,17.3,-38.6,1008.3,-0.4,-2.2,-3.3,25,10.9528,-39.8019,1002.72,-0.655529,-0.375916,-1.53332,
2026_06_15_18_21_45.458,3.808,27,0,0.758,0,0,0,0.04, ,0,0,0,0,0, ,25.6,-39.7,1009.7,-0.3,-1.6,-2.6,25,11.5925,-39.7621,1003.1,-0.636911,-0.46879,-1.61965,
2026_06_15_18_21_45.475,3.808,26.9,0,0.753,0,0,0,0.039, ,0,0,0,0,0, ,22.9,-41.8,1002.9,0.1,-0.2,-1.5,25,12.3638,-39.8223,1003.29,-0.604193,-0.495066,-1.64587,
2026_06_15_18_21_45.492,3.808,26.9,0,0.753,0,0,0,0.04, ,0,0,0,0,0, ,15.5,-41.6,998.2,-1,-0.7,-0.5,25,12.7804,-39.9368,1003.13,-0.594797,-0.49232,-1.60651,
2026_06_15_18_21_45.508,3.808,27,0,0.757,0,0,0,0.041, ,0,0,0,0,0, ,11.5,-39.5,1002.4,-0.6,-1.3,-0.9,25,12.8242,-39.9741,1002.96,-0.607301,-0.523257,-1.55127,
2026_06_15_18_21_45.541,3.808,27,0,0.758,0,0,0,0.04, ,0,0,0,0,0, ,13.5,-41.5,1008.6,-0.6,-1.2,-0.7,25,12.8045,-40.0062,1003.11,-0.606857,-0.567543,-1.50549,
2026_06_15_18_21_45.558,3.808,27,0,0.757,0,0,0,0.04, ,0,0,0,0,0, ,13.6,-40.1,998.7,-0.5,-0.5,-0.7,25,12.8499,-40.0546,1003.14,-0.603392,-0.584755,-1.45641,
2026_06_15_18_21_45.575,3.808,27,0,0.76,0,0,0,0.041, ,0,0,0,0,0, ,4.6,-38.6,998.1,-0.9,-1.5,-0.4,25,12.6214,-40.0116,1002.85,-0.609279,-0.610059,-1.40117,
2026_06_15_18_21_45.591,3.808,27,0,0.755,0,0,0,0.041, ,0,0,0,0,0, ,3.9,-38.3,1008,-1.2,-2.2,-1.4,25,12.1113,-39.9165,1002.87,-0.636135,-0.685618,-1.37063,
2026_06_15_18_21_45.607,3.808,27.1,0,0.755,0,0,0,0.041, ,0,0,0,0,0, ,11.3,-41.9,1008.6,-0.1,-0.8,-2.3,25,11.8364,-39.9276,1003.2,-0.63698,-0.735244,-1.39985,
2026_06_15_18_21_45.625,3.808,27.1,0,0.757,0,0,0,0.041, ,0,0,0,0,0, ,4.5,-41.6,998.7,-0.5,-1.6,-3,25,11.5965,-40.0387,1003.22,-0.616445,-0.763565,-1.47603,
2026_06_15_18_21_45.658,3.808,27.1,0,0.759,0,0,0,0.041, ,0,0,0,0,0, ,11.2,-40.4,1000.6,-1,-3.4,-3.4,25,11.3682,-40.0973,1003.01,-0.624584,-0.869379,-1.58108,
2026_06_15_18_21_45.674,3.808,27.1,0,0.759,0,0,0,0.041, ,0,0,0,0,0, ,26.8,-40.2,1007.6,-0.6,-1.2,-3.8,25,11.8333,-40.1096,1003.07,-0.635273,-0.956558,-1.70411,
2026_06_15_18_21_45.691,3.808,27.2,0,0.758,0,0,0,0.042, ,0,0,0,0,0, ,32.4,-41.9,1003.4,-0.5,0.8,-2.5,25,12.9159,-40.1669,1003.22,-0.630077,-0.910455,-1.79222,
2026_06_15_18_21_45.708,3.808,27.2,0,0.757,0,0,0,0.041, ,0,0,0,0,0, ,18.5,-41.7,994.6,-1.6,-0.7,-1,25,13.6797,-40.2664,1002.96,-0.655666,-0.851927,-1.78965,
2026_06_15_18_21_45.724,3.808,27.3,0,0.756,0,0,0,0.041, ,0,0,0,0,0, ,13.7,-42.2,998.6,-1.5,-1.8,-1,25,13.8272,-40.369,1002.58,-0.710165,-0.876185,-1.74153,
2026_06_15_18_21_45.758,3.808,27.2,0,0.755,0,0,0,0.041, ,0,0,0,0,0, ,16.1,-40.8,1011.5,-0.9,-0.3,-1.5,25,13.8926,-40.438,1002.73,-0.740014,-0.886777,-1.71157,
2026_06_15_18_21_45.775,3.808,27.3,0,0.755,0,0,0,0.042, ,0,0,0,0,0, ,18.1,-40.1,1008.1,-0.2,1.8,-1.6,25,14.088,-40.4387,1003.16,-0.728435,-0.787036,-1.70173,
2026_06_15_18_21_45.791,3.808,27.2,0,0.759,0,0,0,0.041, ,0,0,0,0,0, ,12.5,-48,984.6,-0.5,1.3,-1.5,25,14.1619,-40.6588,1002.74,-0.705374,-0.644623,-1.69248,
2026_06_15_18_21_45.808,3.808,27.3,0,0.757,0,0,0,0.042, ,0,0,0,0,0, ,8,-39.1,1006.3,-0.6,-1.4,-1.3,25,13.9235,-40.8349,1002.3,-0.695906,-0.608388,-1.67466,
2026_06_15_18_21_45.825,3.808,27.5,0,0.758,0,0,0,0.042, ,0,0,0,0,0, ,12,-41.1,1006.3,-1.3,-1,-1.7,25,13.6844,-40.7902,1002.54,-0.71139,-0.644439,-1.66402,
2026_06_15_18_21_45.857,3.808,27.5,0,0.758,0,0,0,0.041, ,0,0,0,0,0, ,13,-38.5,1014.2,-0.5,-0.3,-1.7,25,13.6122,-40.7298,1003.01,-0.722883,-0.644778,-1.66621,
2026_06_15_18_21_45.874,3.808,27.5,0,0.756,0,0,0,0.041, ,0,0,0,0,0, ,3.1,-36.8,973.7,2.5,1.1,-1.2,25,13.2733,-40.5421,1002.46,-0.617895,-0.581112,-1.65303,
2026_06_15_18_21_45.892,3.808,27.6,0,0.755,0,0,0,0.041, ,0,0,0,0,0, ,9.7,-47.6,1006.5,-0.3,-2.4,-2.1,25,12.8544,-40.6432,1001.71,-0.513211,-0.58531,-1.65285,
2026_06_15_18_21_45.908,3.808,27.6,0,0.756,0,0,0,0.04, ,0,0,0,0,0, ,11.5,-37.7,1009.5,0.6,-1.4,-2.4,25,12.7171,-40.7655,1002.09,-0.472796,-0.665424,-1.68924,
2026_06_15_18_21_45.925,3.808,27.5,0,0.756,0,0,0,0.041, ,0,0,0,0,0, ,14.5,-44.7,1017.7,-0.8,-1.2,-2.7,25,12.7343,-40.7919,1002.79,-0.450079,-0.704093,-1.74169,
2026_06_15_18_21_45.946,3.808,27.6,0,0.759,0,0,0,0.042, ,0,0,0,0,0, ,22.3,-42.7,1003.7,0.1,0.7,-2.9,25,13.0796,-40.9691,1003.27,-0.443981,-0.676422,-1.80618,
2026_06_15_18_21_45.975,3.808,27.6,0,0.759,0,0,0,0.041, ,0,0,0,0,0, ,16.9,-43,990.6,0.6,0.1,-1.8,25,13.4769,-41.0838,1002.9,-0.395597,-0.610827,-1.83932,
2026_06_15_18_21_45.991,3.808,27.7,0,0.758,0,0,0,0.041, ,0,0,0,0,0, ,8.9,-42.8,991.9,0.8,-2.1,-2.1,25,13.4417,-41.1944,1002.19,-0.328834,-0.634543,-1.84606,
2026_06_15_18_21_46.008,3.808,27.7,0,0.758,0,0,0,0.041, ,0,0,0,0,0, ,7.4,-40.2,1004.6,0.9,-2.8,-2.4,25,13.1193,-41.2131,1001.95,-0.256999,-0.745172,-1.87068,
2026_06_15_18_21_46.025,3.808,27.7,0,0.758,0,0,0,0.041, ,0,0,0,0,0, ,4.1,-36.2,1009.1,0.4,-2.7,-3.6,25,12.6702,-41.0294,1002.25,-0.201729,-0.867341,-1.9395,
2026_06_15_18_21_46.046,3.808,27.7,0,0.755,0,0,0,0.041, ,0,0,0,0,0, ,12.8,-35.5,1009.5,0.7,-0.9,-5,25,12.413,-40.7138,1002.68,-0.15592,-0.924175,-2.08334,
2026_06_15_18_21_46.075,3.808,27.8,0,0.755,0,0,0,0.042, ,0,0,0,0,0, ,29,-38.3,996.3,0.4,-1.1,-4.6,25,12.9302,-40.4814,1002.69,-0.112903,-0.928796,-2.24889,
2026_06_15_18_21_46.091,3.808,27.8,0,0.76,0,0,0,0.041, ,0,0,0,0,0, ,26.9,-39.3,999.1,-0.8,-3.3,-2.8,25,13.8455,-40.379,1002.39,-0.118211,-1.00626,-2.33731,
2026_06_15_18_21_46.108,3.808,27.8,0,0.76,0,0,0,0.041, ,0,0,0,0,0, ,21.4,-35.7,1005,-0.5,-3.2,-2.1,25,14.4734,-40.2035,1002.37,-0.150617,-1.14299,-2.34418,
2026_06_15_18_21_46.127,3.808,27.8,0,0.758,0,0,0,0.041, ,0,0,0,0,0, ,26.2,-35.8,1008.9,-0.6,-1.8,-2.1,25,15.0418,-39.9321,1002.65,-0.174954,-1.22568,-2.3293,
2026_06_15_18_21_46.146,3.808,27.8,0,0.757,0,0,0,0.042, ,0,0,0,0,0, ,26.7,-36.6,1005.2,0,-0.5,-1.9,25,15.7369,-39.7047,1002.91,-0.182574,-1.22107,-2.30923,
2026_06_15_18_21_46.175,3.808,27.9,0,0.758,0,0,0,0.042, ,0,0,0,0,0, ,16.3,-39.7,988.5,1,-0.8,-1.2,25,16.0881,-39.61,1002.55,-0.14098,-1.18627,-2.26297,
2026_06_15_18_21_46.191,3.808,27.9,0,0.757,0,0,0,0.041, ,0,0,0,0,0, ,23.9,-43.9,1007.3,-1.1,-2.7,-1,25,16.3326,-39.7434,1002.26,-0.135436,-1.22062,-2.1921,
2026_06_15_18_21_46.208,3.808,28,0,0.763,0,0,0,0.041, ,0,0,0,0,0, ,25.2,-40.1,1013,-0.6,0.4,-0.9,25,16.8334,-39.8809,1002.74,-0.178979,-1.21632,-2.11641,
2026_06_15_18_21_46.225,3.808,28,0,0.758,0,0,0,0.041, ,0,0,0,0,0, ,17.2,-39,1001.7,-0.7,0.1,-1,25,17.0994,-39.8608,1003.02,-0.207682,-1.12696,-2.04533,
2026_06_15_18_21_46.247,3.808,28,0,0.758,0,0,0,0.041, ,0,0,0,0,0, ,17.3,-38,997.3,-0.8,-0.7,-1.3,25,17.1086,-39.7778,1002.81,-0.24073,-1.07657,-1.99077,
2026_06_15_18_21_46.274,3.808,28,0,0.756,0,0,0,0.041, ,0,0,0,0,0, ,17.9,-37.5,1003.5,-0.5,-0.3,-1.6,25,17.1386,-39.6543,1002.66,-0.26567,-1.04144,-1.95782,
2026_06_15_18_21_46.293,3.808,28.1,0,0.756,0,0,0,0.042, ,0,0,0,0,0, ,15.9,-40.7,1008.5,-0.4,0.5,-2.4,25,17.124,-39.6205,1002.87,-0.276902,-0.97188,-1.96039,
2026_06_15_18_21_46.308,3.808,28.1,0,0.756,0,0,0,0.041, ,0,0,0,0,0, ,8,-39.4,1004.5,0,-0.8,-2.3,25,16.8087,-39.6467,1003.09,-0.272216,-0.921797,-1.98413,
2026_06_15_18_21_46.325,3.808,28.1,0,0.758,0,0,0,0.041, ,0,0,0,0,0, ,-6.1,-39.4,998.1,2.1,-1.9,-4.3,25,15.8423,-39.6316,1002.98,-0.191644,-0.94789,-2.06432,
2026_06_15_18_21_46.347,3.808,28.1,0,0.759,0,0,0,0.041, ,0,0,0,0,0, ,0.8,-35.6,995.4,6,-1.8,-7.8,25,14.7155,-39.5017,1002.6,0.0668316,-1.00286,-2.30719,
2026_06_15_18_21_46.358,3.808,28.1,0,0.758,0,0,0,0.041, ,0,0,0,0,0, ,15.9,-31.3,1034.6,14.2,-0.7,-9.2,25,14.3276,-39.133,1003.35,0.678228,-1.01792,-2.68457,
2026_06_15_18_21_46.391,3.808,28.2,0,0.757,0,0,0,0.042, ,0,0,0,0,0, ,60,-28.1,1052.8,21.3,-1.2,-6.6,25,15.7671,-38.5581,1005.81,1.71854,-1.01378,-3.00238,
2026_06_15_18_21_46.408,3.808,28.2,0,0.759,0,0,0,0.041, ,0,0,0,0,0, ,85.8,-141.1,1020.7,18.8,-1.7,-2.7,25,19.2486,-41.3638,1007.7,2.83561,-1.04037,-3.10279,
2026_06_15_18_21_46.424,3.808,28.2,0,0.756,0,0,0,0.041, ,0,0,0,0,0, ,50,-41.1,1022.4,-1.8,0.5,9.4,25,22.2133,-44.3946,1008.54,3.18079,-1.01353,-2.70957,
2026_06_15_18_21_46.447,3.808,28.2,0,0.756,0,0,0,0.041, ,0,0,0,0,0, ,-7.2,-10,1038.8,1.9,4.3,4.2,25,22.1637,-43.2463,1009.89,2.99,-0.805519,-2.13008,
2026_06_15_18_21_46.458,3.808,28.3,0,0.755,0,0,0,0.042, ,0,0,0,0,0, ,-39.1,2.3,1078.1,2.2,6.2,4.2,25,19.4024,-40.8456,1012.85,2.93272,-0.436511,-1.74434,
2026_06_15_18_21_46.491,3.808,28.3,0,0.759,0,0,0,0.041, ,0,0,0,0,0, ,-36.1,2.4,1088.2,-3.4,10.2,-1.5,25,15.9288,-38.2133,1017.13,2.71745,0.0897767,-1.55578,
2026_06_15_18_21_46.508,3.808,28.3,0,0.759,0,0,0,0.041, ,0,0,0,0,0, ,-28.1,-25.7,1128.6,-1.9,4.6,-7.2,25,13.0021,-36.5946,1022.69,2.39037,0.535243,-1.72605,
2026_06_15_18_21_46.525,3.808,28.4,0,0.758,0,0,0,0.041, ,0,0,0,0,0, ,-14.7,-37.7,1160.7,-1.8,3.2,-7.6,25,10.9057,-36.2964,1030.12,2.13197,0.740283,-2.07181,
2026_06_15_18_21_46.548,3.808,28.3,0,0.758,0,0,0,0.041, ,0,0,0,0,0, ,-4.2,-25.2,1205.3,-11.2,-0.3,-9.2,25,9.66528,-36.001,1039.44,1.60596,0.783532,-2.45743,
2026_06_15_18_21_46.558,3.808,28.4,0,0.76,0,0,0,0.042, ,0,0,0,0,0, ,22.2,-12.2,1199.4,-8.9,1.5,-9.6,25,9.62474,-34.9468,1049.37,0.895675,0.772348,-2.88049,
2026_06_15_18_21_46.575,3.808,28.5,0,0.759,0,0,0,0.041, ,0,0,0,0,0, ,20.2,-43.2,1182.9,-7.4,8.1,-7.9,25,10.3301,-34.5052,1058.01,0.344454,1.01778,-3.23817,
2026_06_15_18_21_46.608,3.808,28.5,0,0.756,0,0,0,0.04, ,0,0,0,0,0, ,7.8,-70.9,1218,-14.5,8,-4.9,25,10.5537,-35.879,1066.69,-0.343802,1.44631,-3.43084,
2026_06_15_18_21_46.624,3.808,28.5,0,0.756,0,0,0,0.04, ,0,0,0,0,0, ,4.1,-37.1,1213.3,-23.5,-0.8,-6.4,25,10.2732,-36.9832,1075.76,-1.48066,1.57755,-3.56607,
2026_06_15_18_21_46.648,3.808,28.6,0,0.756,0,0,0,0.041, ,0,0,0,0,0, ,37.3,-28.5,1146.8,-24.9,-4.4,-11.3,25,10.9086,-36.7283,1082.12,-2.86512,1.32298,-3.88806,
2026_06_15_18_21_46.658,3.808,28.5,0,0.758,0,0,0,0.04, ,0,0,0,0,0, ,99.3,-92.2,1118.1,-12.8,-2.1,-13.7,25,14.4059,-38.1678,1085.19,-3.8392,1.04431,-4.41285,
2026_06_15_18_21_46.675,3.808,28.5,0,0.759,0,0,0,0.041, ,0,0,0,0,0, ,135.1,-139.5,1155,-8.5,-3.9,-8.4,25,20.6699,-42.9015,1088.32,-4.25423,0.797863,-4.8173,
2026_06_15_18_21_46.708,3.808,28.6,0,0.76,0,0,0,0.041, ,0,0,0,0,0, ,104.3,-130.6,1178.4,-13.6,-5.9,3.1,25,26.7045,-48.5168,1093.09,-4.66835,0.45065,-4.68523,
2026_06_15_18_21_46.723,3.808,28.6,0,0.759,0,0,0,0.04, ,0,0,0,0,0, ,48.4,-85.3,1177.8,-18.6,-13.5,5.9,25,29.7298,-52.1385,1098.27,-5.36497,-0.167905,-4.12551,
2026_06_15_18_21_46.748,3.808,28.7,0,0.759,0,0,0,0.041, ,0,0,0,0,0, ,30.2,-83.4,1198.8,-22.6,-16.7,5.1,25,30.313,-54.1014,1103.76,-6.29335,-1.07783,-3.53895,
2026_06_15_18_21_46.758,3.808,28.8,0,0.76,0,0,0,0.04, ,0,0,0,0,0, ,-17,-88.3,1195.1,-22.9,-19.8,9.3,25,28.868,-56.0361,1109.44,-7.29618,-2.12426,-2.88455,
2026_06_15_18_21_46.788,3.808,28.7,0,0.757,0,0,0,0.039, ,0,0,0,0,0, ,-67.1,-93.7,1150.3,-26.1,-23.1,8.6,25,24.5464,-58.1667,1113.29,-8.34454,-3.30192,-2.16338,
2026_06_15_18_21_46.808,3.808,28.7,0,0.757,0,0,0,0.04, ,0,0,0,0,0, ,-105.7,-86.4,1116.6,-27.6,-22.1,3.1,25,17.7856,-60.1096,1114.52,-9.47221,-4.4779,-1.67507,
2026_06_15_18_21_46.827,3.808,28.7,0,0.757,0,0,0,0.04, ,0,0,0,0,0, ,-20.9,-86.9,1104.9,-31.5,-25.6,-7.9,25,12.8445,-61.7269,1114.29,-10.6957,-5.65839,-1.71924,
2026_06_15_18_21_46.841,3.808,28.7,0,0.76,0,0,0,0.04, ,0,0,0,0,0, ,57.7,-104.9,1078.4,-36.2,-24.5,-4.1,25,13.183,-63.8093,1112.91,-12.1067,-6.84006,-1.9801,
2026_06_15_18_21_46.858,3.808,28.9,0,0.759,0,0,0,0.041, ,0,0,0,0,0, ,46,-115.3,1059.3,-40,-25.1,0.8,25,15.5393,-66.6302,1110.23,-13.6906,-7.9345,-1.95998,
2026_06_15_18_21_46.875,3.808,28.8,0,0.759,0,0,0,0.039, ,0,0,0,0,0, ,2.9,-118,1019,-38,-21.9,-0.7,25,16.0823,-69.6782,1105.9,-15.2329,-8.88302,-1.8375,
2026_06_15_18_21_46.908,3.808,28.9,0,0.757,0,0,0,0.04, ,0,0,0,0,0, ,-20.1,-151.8,943.4,-37.8,-21.1,-6.9,25,14.5782,-73.6527,1098.3,-16.6142,-9.65187,-1.95709,
2026_06_15_18_21_46.925,3.808,28.9,0,0.759,0,0,0,0.039, ,0,0,0,0,0, ,0.4,-113.8,971,-31.9,-20.9,-12.2,25,13.0896,-77.257,1089.7,-17.7254,-10.3434,-2.41978,
2026_06_15_18_21_46.941,3.808,28.9,0,0.755,0,0,0,0.039, ,0,0,0,0,0, ,61.7,-147.5,981.8,-36.2,-16.5,-17.8,25,14.1841,-80.5106,1082.79,-18.7202,-10.8526,-3.18639,
2026_06_15_18_21_46.958,3.808,29.1,0,0.758,0,0,0,0.039, ,0,0,0,0,0, ,89.1,-185.5,972.7,-35.6,-11.7,-17,25,17.9144,-85.7506,1076.36,-19.7671,-11.0505,-4.05253,
2026_06_15_18_21_46.975,3.808,28.9,0,0.761,0,0,0,0.038, ,0,0,0,0,0, ,70.4,-181.1,943.2,-34.7,-9.1,-16.3,25,21.6825,-91.695,1069.15,-20.7045,-11.0109,-4.82019,
2026_06_15_18_21_46.991,3.808,29.1,0,0.76,0,0,0,0.04, ,0,0,0,0,0, ,63.4,-147.7,932.7,-31.4,-13.6,-17.3,25,24.438,-96.1255,1061.15,-21.4568,-11.0315,-5.55021,
2026_06_15_18_21_47.025,3.808,29.2,0,0.759,0,0,0,0.038, ,0,0,0,0,0, ,94.2,-181.8,943.1,-27,-20.9,-20.3,25,27.7506,-100.307,1053.64,-21.9287,-11.4105,-6.35762,
2026_06_15_18_21_47.041,3.808,29.2,0,0.759,0,0,0,0.037, ,0,0,0,0,0, ,103,-207.5,991.2,-27.6,-23.4,-17.4,25,32.068,-106.056,1048.37,-22.256,-12.0649,-7.11887,
2026_06_15_18_21_47.058,3.808,29.2,0,0.759,0,0,0,0.038, ,0,0,0,0,0, ,92.8,-203.8,997,-31.4,-20.2,-16.1,25,36.0797,-112.125,1045.06,-22.6974,-12.6581,-7.70577,
2026_06_15_18_21_47.075,3.808,29.2,0,0.757,0,0,0,0.038, ,0,0,0,0,0, ,109.6,-195.8,989.7,-32.4,-15.5,-18.8,25,40.0479,-117.468,1041.91,-23.2582,-12.9745,-8.29956,
2026_06_15_18_21_47.091,3.808,29.2,0,0.758,0,0,0,0.038, ,0,0,0,0,0, ,145.1,-219.3,968.9,-31.9,-13.2,-22,25,45.3679,-122.957,1038.1,-23.8,-13.0583,-9.03693,
2026_06_15_18_21_47.125,3.808,29.2,0,0.76,0,0,0,0.038, ,0,0,0,0,0, ,166.9,-218.5,967.8,-33.7,-19.5,-19.1,25,52.1095,-128.804,1033.85,-24.3485,-13.2589,-9.73851,
2026_06_15_18_21_47.141,3.808,29.3,0,0.76,0,0,0,0.038, ,0,0,0,0,0, ,144.6,-216.7,991.6,-35.8,-24.5,-15.5,25,58.4251,-134.215,1030.55,-24.9823,-13.7916,-10.1993,
2026_06_15_18_21_47.158,3.808,29.2,0,0.759,0,0,0,0.037, ,0,0,0,0,0, ,141.4,-234.6,1005.3,-40.2,-21.4,-16,25,63.5789,-139.787,1028.59,-25.7756,-14.3497,-10.5375,
2026_06_15_18_21_47.175,3.808,29.4,0,0.758,0,0,0,0.038, ,0,0,0,0,0, ,154.7,-253.5,1001.8,-43.1,-9.4,-18.4,25,68.7264,-146.14,1027.07,-26.7429,-14.4137,-10.9435,
2026_06_15_18_21_47.191,3.808,29.4,0,0.759,0,0,0,0.036, ,0,0,0,0,0, ,177.4,-270.1,943.1,-42.5,-2.2,-21.2,25,74.657,-153.188,1023.74,-27.7214,-13.8888,-11.4832,
2026_06_15_18_21_47.208,3.808,29.4,0,0.756,0,0,0,0.036, ,0,0,0,0,0, ,192.6,-270.2,911.7,-41,-4.9,-22.1,25,81.3811,-160.316,1017.87,-28.5763,-13.2588,-12.1028,
2026_06_15_18_21_47.240,3.808,29.4,0,0.756,0,0,0,0.037, ,0,0,0,0,0, ,201.4,-275,910.1,-37.7,-18,-20.3,25,88.4266,-167.158,1011.35,-29.2328,-13.1485,-12.6571,
2026_06_15_18_21_47.258,3.808,29.5,0,0.763,0,0,0,0.037, ,0,0,0,0,0, ,225.8,-295.8,975.5,-37.2,-21.9,-16.2,25,96.0543,-174.363,1007.17,-29.7335,-13.563,-12.9979,
2026_06_15_18_21_47.275,3.808,29.5,0,0.761,0,0,0,0.036, ,0,0,0,0,0, ,221,-316.2,964.4,-40.5,-8.2,-10.5,25,103.814,-182.385,1004.9,-30.2891,-13.6536,-13.0194,
2026_06_15_18_21_47.291,3.808,29.5,0,0.759,0,0,0,0.036, ,0,0,0,0,0, ,209.4,-306.1,882.8,-40.7,-9.4,-8.3,25,110.602,-190.232,999.949,-30.9174,-13.3579,-12.7988,
2026_06_15_18_21_47.322,3.808,29.5,0,0.759,0,0,0,0.036, ,0,0,0,0,0, ,226.6,-314.3,883.3,-40.1,-11.5,-6.3,25,117.147,-197.542,992.825,-31.4952,-13.1807,-12.4637,
2026_06_15_18_21_47.342,3.808,29.5,0,0.756,0,0,0,0.036, ,0,0,0,0,0, ,241.6,-336,877.4,-39.9,-1.4,-4.1,25,124.273,-205.318,985.971,-32.0135,-12.7705,-12.0211,
2026_06_15_18_21_47.358,3.808,29.5,0,0.758,0,0,0,0.036, ,0,0,0,0,0, ,229.9,-372.9,812.1,-39.2,6.3,-3.9,25,131.067,-214.406,977.366,-32.4728,-11.843,-11.5323,
2026_06_15_18_21_47.375,3.808,29.5,0,0.76,0,0,0,0.036, ,0,0,0,0,0, ,244,-363.1,770.8,-39.2,0,-1.8,25,137.519,-223.766,966.036,-32.8827,-10.9294,-11.0032,
2026_06_15_18_21_47.391,3.808,29.6,0,0.759,0,0,0,0.036, ,0,0,0,0,0, ,249.1,-371.2,776,-35.3,-3.2,1.3,25,144.163,-232.503,954.298,-33.1488,-10.3609,-10.348,
2026_06_15_18_21_47.408,3.808,29.7,0,0.756,0,0,0,0.035, ,0,0,0,0,0, ,235.3,-388.1,782.8,-31.8,4.5,4.8,25,150.137,-241.47,943.64,-33.1733,-9.68989,-9.53153,
2026_06_15_18_21_47.441,3.808,29.7,0,0.757,0,0,0,0.035, ,0,0,0,0,0, ,237.3,-397.4,736.8,-28,10.2,5.2,25,155.388,-250.688,932.437,-32.9738,-8.65152,-8.64602,
2026_06_15_18_21_47.458,3.808,29.7,0,0.761,0,0,0,0.035, ,0,0,0,0,0, ,234.1,-413.2,666.1,-25.9,0,9,25,160.282,-260.11,918.361,-32.6067,-7.81354,-7.68649,
2026_06_15_18_21_47.475,3.808,29.7,0,0.761,0,0,0,0.035, ,0,0,0,0,0, ,223.3,-422.6,697.8,-22.4,-8.9,10.4,25,164.451,-269.725,903.955,-32.0914,-7.60857,-6.62701,
2026_06_15_18_21_47.491,3.808,29.7,0,0.759,0,0,0,0.035, ,0,0,0,0,0, ,187.6,-418,765.2,-23.2,2.6,10.4,25,166.949,-278.901,893.446,-31.5252,-7.33688,-5.58942,
2026_06_15_18_21_47.508,3.808,29.8,0,0.76,0,0,0,0.035, ,0,0,0,0,0, ,180,-430,749.7,-23.4,17,8.1,25,167.976,-287.743,885.159,-31.024,-6.2926,-4.68514,
2026_06_15_18_21_47.541,3.808,29.8,0,0.76,0,0,0,0.034, ,0,0,0,0,0, ,201.6,-458.7,699.7,-22,16.8,7.6,25,169.367,-297.286,875.381,-30.5167,-4.8793,-3.92128,
2026_06_15_18_21_47.558,3.808,29.8,0,0.755,0,0,0,0.034, ,0,0,0,0,0, ,201.6,-460.9,662.4,-18.7,8.1,9.8,25,171.331,-307.189,863.539,-29.8972,-3.8233,-3.15218,
2026_06_15_18_21_47.574,3.808,29.8,0,0.756,0,0,0,0.034, ,0,0,0,0,0, ,162.7,-467.7,705.3,-12.3,-0.4,8.6,25,171.99,-316.763,852.589,-29.0199,-3.3557,-2.39946,
2026_06_15_18_21_47.591,3.808,29.9,0,0.756,0,0,0,0.034, ,0,0,0,0,0, ,167.2,-480.3,755.3,-13.5,6.4,6.2,25,171.561,-326.345,845.137,-28.0376,-2.9684,-1.80231,
2026_06_15_18_21_47.608,3.808,29.9,0,0.76,0,0,0,0.033, ,0,0,0,0,0, ,165.6,-482,746,-15.4,12.5,6,25,171.247,-335.778,839.379,-27.2096,-2.21166,-1.32076,
2026_06_15_18_21_47.625,3.808,29.9,0,0.76,0,0,0,0.033, ,0,0,0,0,0, ,174.8,-500.9,696.7,-12.5,11.1,6.3,25,171.183,-345.265,832.187,-26.4016,-1.35782,-0.865513,
2026_06_15_18_21_47.658,3.808,29.9,0,0.76,0,0,0,0.033, ,0,0,0,0,0, ,184.3,-510.2,691.2,-9.8,0,7.9,25,171.693,-355.032,823.763,-25.4722,-0.936877,-0.380115,
2026_06_15_18_21_47.674,3.808,29.9,0,0.762,0,0,0,0.033, ,0,0,0,0,0, ,170.8,-516.7,721.6,-6.6,-2.3,11,25,172.05,-364.686,816.611,-24.4197,-0.949864,0.218908,
2026_06_15_18_21_47.691,3.808,30,0,0.758,0,0,0,0.033, ,0,0,0,0,0, ,130.4,-522.4,740.2,-5.2,1.4,9.4,25,170.743,-374.123,811.388,-23.2911,-0.919403,0.827131,
2026_06_15_18_21_47.708,3.808,30,0,0.757,0,0,0,0.033, ,0,0,0,0,0, ,121.9,-500.2,748.1,-3,3.9,6,25,168.025,-382.482,807.291,-22.1217,-0.701893,1.24595,
2026_06_15_18_21_47.724,3.808,29.9,0,0.757,0,0,0,0, ,0,0,0,0,0, ,117,-503,753.1,-1.7,1.3,3.2,25,165.065,-389.741,803.836,-20.9168,-0.500684,1.45033,
2026_06_15_18_21_47.758,3.808,30,0,0.76,0,0,0,0, ,0,0,0,0,0, ,126,-530.1,745.3,0.9,-1.6,2.3,25,162.411,-397.468,800.507,-19.6666,-0.479314,1.52953,
2026_06_15_18_21_47.774,3.808,30,0,0.76,0,0,0,0, ,0,0,0,0,0, ,109.1,-525.7,764.2,0.5,-8.5,2.7,25,159.677,-405.416,797.719,-18.4255,-0.75784,1.58867,
2026_06_15_18_21_47.791,3.808,30,0,0.76,0,0,0,0, ,0,0,0,0,0, ,83.6,-496.3,834.7,-3.8,-10.5,-0.5,25,155.818,-411.85,797.824,-17.4032,-1.29057,1.55889,
2026_06_15_18_21_47.807,3.808,30.1,0,0.76,0,0,0,0, ,0,0,0,0,0, ,90.5,-499.5,819.7,-8.3,0.2,-5.7,25,151.627,-417.094,799.614,-16.7114,-1.52575,1.27499,
2026_06_15_18_21_47.824,3.808,30.1,0,0.76,0,0,0,0, ,0,0,0,0,0, ,96.8,-540.6,702.6,-6.2,2.3,-8.9,25,148.094,-423.368,797.27,-16.1348,-1.3566,0.752452,
2026_06_15_18_21_47.858,3.808,30.2,0,0.757,0,0,0,0, ,0,0,0,0,0, ,136.7,-556.7,663.3,0.3,-6,-10.9,25,146.184,-431.002,790.304,-15.3314,-1.38667,0.103318,
2026_06_15_18_21_47.875,3.808,30.1,0,0.756,0,0,0,0, ,0,0,0,0,0, ,165.6,-511.3,737.5,1.6,-15.3,-9.9,25,146.487,-437.279,784.825,-14.3392,-1.95115,-0.536728,
2026_06_15_18_21_47.892,3.808,30.1,0,0.755,0,0,0,0, ,0,0,0,0,0, ,166.2,-530.6,791.7,0.5,-10.9,-10.3,25,147.67,-442.377,783.593,-13.4015,-2.63054,-1.11949,
2026_06_15_18_21_47.908,3.808,30.2,0,0.761,0,0,0,0, ,0,0,0,0,0, ,176.1,-561.8,755.2,-0.9,-1.7,-11.5,25,149.101,-448.704,782.975,-12.597,-2.85414,-1.71549,
2026_06_15_18_21_47.924,3.808,30.1,0,0.761,0,0,0,0, ,0,0,0,0,0, ,191.5,-562,717.7,0.9,0.3,-12.3,25,151.215,-455.602,780.14,-11.8294,-2.72288,-2.33611,
2026_06_15_18_21_47.956,3.808,30.2,0,0.76,0,0,0,0, ,0,0,0,0,0, ,221,-523.6,713.9,6.9,-7.7,-9.9,25,154.569,-460.916,776.219,-10.8709,-2.78242,-2.87016,
2026_06_15_18_21_47.976,3.808,30.2,0,0.76,0,0,0,0, ,0,0,0,0,0, ,220.8,-503,841.5,8.1,-12.8,-7.5,25,158.611,-464.108,776.309,-9.75139,-3.23747,-3.22541,
2026_06_15_18_21_47.996,3.808,30.2,0,0.76,0,0,0,0, ,0,0,0,0,0, ,210.9,-519.6,858,2.9,-6.2,-5.9,25,162.099,-466.984,780.785,-8.822,-3.6191,-3.43715,
2026_06_15_18_21_48.015,3.808,30.2,0,0.758,0,0,0,0, ,0,0,0,0,0, ,188.8,-519.2,804.3,0.5,0,-5.1,25,164.399,-470.178,783.854,-8.18082,-3.58746,-3.56285,
2026_06_15_18_21_48.035,3.808,30.2,0,0.758,0,0,0,0, ,0,0,0,0,0, ,173.3,-508.1,837.1,3.8,-1,-8.1,25,165.414,-472.827,786.099,-7.55129,-3.39932,-3.74793,
2026_06_15_18_21_48.055,3.808,30.3,0,0.76,0,0,0,0, ,0,0,0,0,0, ,219.7,-512.5,914.3,2.9,-2.1,-9.9,25,167.308,-475.11,791.559,-6.88699,-3.28663,-4.06798,
2026_06_15_18_21_48.075,3.808,30.1,0,0.76,0,0,0,0, ,0,0,0,0,0, ,237.7,-524.7,904.9,-1.5,5.3,-7.2,25,171.049,-477.76,798.752,-6.42466,-2.98885,-4.3411,
2026_06_15_18_21_48.095,3.808,30.2,0,0.76,0,0,0,0, ,0,0,0,0,0, ,225.8,-523.3,818.9,-2,5.2,-4.6,25,174.748,-480.578,802.6,-6.13979,-2.4868,-4.43609,
2026_06_15_18_21_48.114,3.808,30.3,0,0.756,0,0,0,0, ,0,0,0,0,0, ,222.7,-518.7,782.2,3.1,-2.5,-3.2,25,177.765,-483.041,802.475,-5.73213,-2.25299,-4.40343,
2026_06_15_18_21_48.134,3.808,30.2,0,0.761,0,0,0,0, ,0,0,0,0,0, ,215.3,-512.5,836.1,8,-8.5,-2,25,180.278,-485.025,802.882,-5.04463,-2.45086,-4.29353,
2026_06_15_18_21_48.154,3.808,30.2,0,0.76,0,0,0,0, ,0,0,0,0,0, ,207.7,-505.8,904.4,5.7,-7.6,-1.6,25,182.18,-486.495,806.987,-4.3198,-2.79205,-4.14158,
2026_06_15_18_21_48.174,3.808,30.2,0,0.759,0,0,0,0, ,0,0,0,0,0, ,203.1,-499.6,904,1.7,4.2,-2,25,183.595,-487.483,812.911,-3.83109,-2.72551,-3.99889,
2026_06_15_18_21_48.193,3.808,30.3,0,0.759,0,0,0,0, ,0,0,0,0,0, ,211,-505.6,866,1.9,5.1,-2.4,25,185.024,-488.404,817.304,-3.48795,-2.27606,-3.88927,
2026_06_15_18_21_48.213,3.808,30.2,0,0.76,0,0,0,0, ,0,0,0,0,0, ,209.8,-508.3,870.6,2.7,-3.1,-0.1,25,186.571,-489.534,820.412,-3.13525,-2.07643,-3.72844,
2026_06_15_18_21_48.233,3.808,30.3,0,0.756,0,0,0,0, ,0,0,0,0,0, ,173.5,-506.2,872.9,2.4,-2.7,0.3,25,186.88,-490.614,823.54,-2.7888,-2.12661,-3.49514,
2026_06_15_18_21_48.254,3.808,30.3,0,0.756,0,0,0,0, ,0,0,0,0,0, ,162.8,-486.9,873.7,1.2,-0.9,-1.7,25,185.739,-490.976,826.572,-2.50917,-2.10671,-3.32482,
2026_06_15_18_21_48.274,3.808,30.2,0,0.758,0,0,0,0, ,0,0,0,0,0, ,175.9,-491.9,907.1,-2.3,3.6,-3.8,25,184.74,-490.88,830.462,-2.38978,-1.89607,-3.28979,
2026_06_15_18_21_48.298,3.808,30.2,0,0.76,0,0,0,0, ,0,0,0,0,0, ,171.7,-495.2,860.1,-6.1,7.2,-3.7,25,184.074,-491.042,833.7,-2.50009,-1.45146,-3.31783,
2026_06_15_18_21_48.313,3.808,30.2,0,0.758,0,0,0,0, ,0,0,0,0,0, ,147,-504.1,807.2,-6.7,2.3,-5,25,182.567,-491.567,833.697,-2.73775,-1.07356,-3.38073,
2026_06_15_18_21_48.332,3.808,30.3,0,0.755,0,0,0,0, ,0,0,0,0,0, ,169.7,-498.4,786.2,-3.3,-3.3,-6.1,25,181.091,-492.157,831.442,-2.8756,-1.03861,-3.51292,
2026_06_15_18_21_48.353,3.808,30.3,0,0.757,0,0,0,0, ,0,0,0,0,0, ,189.5,-497.9,847.6,-2.2,-5.4,-6,25,181,-492.522,830.556,-2.86795,-1.2404,-3.66752,
2026_06_15_18_21_48.372,3.808,30.3,0,0.763,0,0,0,0, ,0,0,0,0,0, ,209.1,-517.3,875.4,-2,4.5,-5.3,25,182.115,-493.441,832.442,-2.82115,-1.19223,-3.78833,
2026_06_15_18_21_48.392,3.808,30.3,0,0.76,0,0,0,0, ,0,0,0,0,0, ,200.8,-523.8,832,-1.7,7.4,-5,25,183.507,-495.093,833.737,-2.76197,-0.757003,-3.87131,
2026_06_15_18_21_48.411,3.808,30.2,0,0.76,0,0,0,0, ,0,0,0,0,0, ,210.2,-521.3,823.6,1.2,2.1,-5.6,25,184.847,-496.766,833.375,-2.6089,-0.42142,-3.95837,
2026_06_15_18_21_48.431,3.808,30.3,0,0.76,0,0,0,0, ,0,0,0,0,0, ,236.4,-516.7,842.8,3.2,-2.8,-3.1,25,187.19,-498.121,833.365,-2.31586,-0.417068,-3.98223,
2026_06_15_18_21_48.452,3.808,30.3,0,0.759,0,0,0,0, ,0,0,0,0,0, ,210.6,-507.9,896.8,1.8,-5.2,0.1,25,189.403,-498.985,835.585,-2.02239,-0.635403,-3.83097,
2026_06_15_18_21_48.471,3.808,30.2,0,0.755,0,0,0,0, ,0,0,0,0,0, ,188.7,-512.3,908.5,-1.3,1.7,0,25,190.027,-499.662,839.672,-1.88392,-0.703324,-3.59448,
2026_06_15_18_21_48.491,3.808,30.2,0,0.756,0,0,0,0, ,0,0,0,0,0, ,181.3,-513.6,869.3,-2,6,-0.9,25,189.721,-500.472,842.672,-1.86966,-0.425855,-3.40286,
2026_06_15_18_21_48.511,3.808,30.3,0,0.76,0,0,0,0, ,0,0,0,0,0, ,175.9,-503.6,825.1,-0.2,1.6,-1,25,189.043,-500.967,842.948,-1.82276,-0.168342,-3.25339,
2026_06_15_18_21_48.531,3.808,30.3,0,0.76,0,0,0,0, ,0,0,0,0,0, ,164.3,-499.3,837.6,0.4,-5.4,-2.1,25,187.889,-500.997,842.241,-1.70559,-0.273865,-3.14959,
2026_06_15_18_21_48.550,3.808,30.3,0,0.756,0,0,0,0, ,0,0,0,0,0, ,168.2,-504.6,868.1,-1,-4.6,-3.4,25,186.57,-501.055,842.887,-1.61994,-0.561864,-3.12524,
2026_06_15_18_21_48.570,3.808,30.3,0,0.759,0,0,0,0, ,0,0,0,0,0, ,167.3,-504.1,869.1,-3.4,1.1,-4.8,25,185.424,-501.256,844.454,-1.65529,-0.634266,-3.18464,
2026_06_15_18_21_48.590,3.808,30.3,0,0.759,0,0,0,0, ,0,0,0,0,0, ,180.5,-500.9,824.7,-3.5,3.6,-5.9,25,184.721,-501.331,844.603,-1.76465,-0.452412,-3.31659,
2026_06_15_18_21_48.610,3.808,30.3,0,0.76,0,0,0,0, ,0,0,0,0,0, ,209.8,-512.9,811.2,-2.1,-0.4,-6,25,185.357,-501.671,842.979,-1.82774,-0.327344,-3.47706,
2026_06_15_18_21_48.630,3.808,30.2,0,0.76,0,0,0,0, ,0,0,0,0,0, ,222.4,-515.1,815.9,-0.6,-5.1,-3.7,25,187.23,-502.422,841.186,-1.79863,-0.474974,-3.56073,
2026_06_15_18_21_48.649,3.808,30.3,0,0.758,0,0,0,0, ,0,0,0,0,0, ,213.6,-510.4,838.8,-0.5,-6.9,-2.6,25,189.105,-503.051,840.343,-1.72254,-0.811655,-3.5357,
2026_06_15_18_21_48.669,3.808,30.2,0,0.763,0,0,0,0, ,0,0,0,0,0, ,196.5,-504.5,874,-1.5,-3.4,-2.1,25,190.077,-503.319,841.321,-1.67851,-1.07602,-3.46344,
2026_06_15_18_21_48.688,3.808,30.3,0,0.756,0,0,0,0, ,0,0,0,0,0, ,168.3,-519.2,850.7,-4.1,0.3,-3.5,25,189.609,-503.839,842.603,-1.74685,-1.10491,-3.42302,
2026_06_15_18_21_48.708,3.808,30.3,0,0.757,0,0,0,0, ,0,0,0,0,0, ,174.1,-517.2,817.1,-3.3,-0.5,-5.8,25,188.487,-504.714,842.072,-1.86587,-1.04367,-3.49778,
2026_06_15_18_21_48.735,3.808,30.3,0,0.761,0,0,0,0, ,0,0,0,0,0, ,216.3,-504.8,841.6,-2.1,-6.6,-5.9,25,188.896,-505.097,841.297,-1.9167,-1.1964,-3.64112,
2026_06_15_18_21_48.751,3.808,30.2,0,0.759,0,0,0,0, ,0,0,0,0,0, ,222.9,-509.5,864.9,-3.7,-5.9,-3.4,25,190.767,-505.223,842.025,-1.97662,-1.50435,-3.7026,
2026_06_15_18_21_48.768,3.808,30.3,0,0.756,0,0,0,0, ,0,0,0,0,0, ,195.8,-519.1,858.3,-4.8,0.5,-3.7,25,191.9,-505.776,843.218,-2.11516,-1.57721,-3.6933,
2026_06_15_18_21_48.788,3.808,30.3,0,0.755,0,0,0,0, ,0,0,0,0,0, ,207,-514.6,825.9,-4.2,3.4,-5,25,192.479,-506.451,843.15,-2.26048,-1.36227,-3.73332,
2026_06_15_18_21_48.808,3.808,30.3,0,0.76,0,0,0,0, ,0,0,0,0,0, ,218.3,-501.3,816.5,-2.3,-1.1,-3.5,25,193.708,-506.542,841.812,-2.32078,-1.20918,-3.7648,
2026_06_15_18_21_48.828,3.808,30.3,0,0.759,0,0,0,0, ,0,0,0,0,0, ,210.4,-514.7,817.6,-1.1,-4.4,-2.9,25,194.966,-506.631,840.304,-2.28295,-1.30308,-3.73039,
2026_06_15_18_21_48.848,3.808,30.3,0,0.758,0,0,0,0, ,0,0,0,0,0, ,194.2,-515.8,813.5,-0.7,-2.1,-3.7,25,195.413,-507.156,838.795,-2.19868,-1.42172,-3.70416,
2026_06_15_18_21_48.867,3.808,30.3,0,0.759,0,0,0,0, ,0,0,0,0,0, ,214.7,-506.9,828.6,0,-1.3,-5.1,25,195.963,-507.412,837.714,-2.08602,-1.43867,-3.74656,
2026_06_15_18_21_48.887,3.808,30.3,0,0.76,0,0,0,0, ,0,0,0,0,0, ,241.3,-506.1,863.8,-1.3,-2.4,-3.4,25,197.916,-507.356,838.231,-1.99852,-1.46374,-3.77724,
2026_06_15_18_21_48.907,3.808,30.3,0,0.755,0,0,0,0, ,0,0,0,0,0, ,232.1,-515,839.8,-3,-0.5,-0.9,25,200.279,-507.551,839.058,-2.00775,-1.4629,-3.67808,
2026_06_15_18_21_48.927,3.808,30.3,0,0.756,0,0,0,0, ,0,0,0,0,0, ,197.2,-515.1,810.4,-1.7,-3,-0.6,25,201.155,-508.008,838.207,-2.0286,-1.4804,-3.49965,
2026_06_15_18_21_48.947,3.808,30.3,0,0.76,0,0,0,0, ,0,0,0,0,0, ,205.9,-511.2,834.8,-1.3,-7.8,-1.6,25,201.179,-508.321,837.256,-1.99639,-1.71925,-3.35342,
2026_06_15_18_21_48.967,3.808,30.3,0,0.761,0,0,0,0, ,0,0,0,0,0, ,229,-506.8,850.8,-2.9,-9.2,-0.5,25,202.17,-508.362,837.594,-2.00271,-2.13245,-3.21306,
2026_06_15_18_21_48.986,3.808,30.2,0,0.756,0,0,0,0, ,0,0,0,0,0, ,233.5,-524.2,826.6,-4,-9.4,1.2,25,203.942,-508.797,837.661,-2.0909,-2.56922,-2.99593,
2026_06_15_18_21_49.005,3.808,30.3,0,0.757,0,0,0,0, ,0,0,0,0,0, ,203.6,-526.3,813.7,-3.7,-8.9,1.7,25,204.833,-509.8,836.594,-2.1981,-2.97024,-2.72501,
2026_06_15_18_21_49.026,3.808,30.3,0,0.759,0,0,0,0, ,0,0,0,0,0, ,184.2,-511.2,811,-1,-3,-1.8,25,204.166,-510.345,835.117,-2.20735,-3.15182,-2.562,
2026_06_15_18_21_49.046,3.808,30.3,0,0.761,0,0,0,0, ,0,0,0,0,0, ,214.1,-516.1,828.9,0.5,0.1,-5.3,25,203.861,-510.547,834.193,-2.08808,-3.04811,-2.62221,
2026_06_15_18_21_49.065,3.808,30.2,0,0.759,0,0,0,0, ,0,0,0,0,0, ,239.9,-521.8,816.4,-0.9,-0.5,-2.9,25,205.271,-511.059,833.489,-1.97302,-2.87456,-2.71226,
2026_06_15_18_21_49.084,3.808,30.3,0,0.76,0,0,0,0, ,0,0,0,0,0, ,234.7,-528.5,833.4,-0.3,-4.8,-1.6,25,207.223,-511.917,832.966,-1.88935,-2.86087,-2.68409,
2026_06_15_18_21_49.105,3.808,30.3,0,0.759,0,0,0,0, ,0,0,0,0,0, ,237.4,-524.7,843.6,-1.1,-3.4,-0.2,25,208.979,-512.812,833.303,-1.81688,-2.93638,-2.57537,
2026_06_15_18_21_49.125,3.808,30.2,0,0.754,0,0,0,0, ,0,0,0,0,0, ,220.2,-519.8,820.4,-0.4,1,0.3,25,210.187,-513.387,833.224,-1.75186,-2.83057,-2.41539,
2026_06_15_18_21_49.145,3.808,30.2,0,0.756,0,0,0,0, ,0,0,0,0,0, ,203.9,-521.3,805,-0.3,0,-0.5,25,210.301,-513.824,831.973,-1.66644,-2.62761,-2.2743,
2026_06_15_18_21_49.165,3.808,30.3,0,0.76,0,0,0,0, ,0,0,0,0,0, ,199.8,-529.1,814.8,0.4,-0.8,-1.5,25,209.786,-514.517,830.628,-1.56184,-2.49187,-2.19664,
2026_06_15_18_21_49.184,3.808,30.3,0,0.76,0,0,0,0, ,0,0,0,0,0, ,203.6,-521.2,834.4,-0.9,-2.8,-1.4,25,209.293,-515.165,830.261,-1.4819,-2.44971,-2.15114,
2026_06_15_18_21_49.204,3.808,30.2,0,0.761,0,0,0,0, ,0,0,0,0,0, ,219.2,-519.2,827.7,-3.2,-3.1,-1.1,25,209.421,-515.472,830.309,-1.51652,-2.48019,-2.09623,
2026_06_15_18_21_49.225,3.808,30.3,0,0.756,0,0,0,0, ,0,0,0,0,0, ,218.9,-521.9,815.6,-3.8,-3.2,-0.3,25,210.008,-515.781,829.781,-1.63739,-2.52101,-2.01115,
2026_06_15_18_21_49.243,3.808,30.2,0,0.76,0,0,0,0, ,0,0,0,0,0, ,210.5,-514.8,807.3,-2,-2.3,-0.5,25,210.294,-515.938,828.664,-1.71433,-2.53497,-1.91297,
2026_06_15_18_21_49.263,3.808,30.2,0,0.761,0,0,0,0, ,0,0,0,0,0, ,193.9,-512.9,821,0.4,0.1,-2.9,25,209.801,-515.811,827.78,-1.65861,-2.44752,-1.89999,
2026_06_15_18_21_49.283,3.808,30.2,0,0.76,0,0,0,0, ,0,0,0,0,0, ,225,-522.5,838.8,0.4,-0.6,-5.1,25,209.779,-515.926,827.909,-1.53317,-2.31361,-2.02796,
2026_06_15_18_21_49.303,3.808,30.3,0,0.759,0,0,0,0, ,0,0,0,0,0, ,247,-527.5,835.9,-0.7,-0.2,-2.6,25,211.377,-516.479,828.484,-1.44888,-2.197,-2.13899,
2026_06_15_18_21_49.323,3.808,30.3,0,0.76,0,0,0,0, ,0,0,0,0,0, ,222,-529.7,823.8,-1.2,-3.4,-0.5,25,212.786,-517.217,828.567,-1.41848,-2.17281,-2.1031,
2026_06_15_18_21_49.343,3.808,30.2,0,0.759,0,0,0,0, ,0,0,0,0,0, ,205.5,-518.5,826.1,-0.6,-1,-2.9,25,212.845,-517.637,828.347,-1.38688,-2.17446,-2.07854,
2026_06_15_18_21_49.362,3.808,30.2,0,0.755,0,0,0,0, ,0,0,0,0,0, ,226.6,-525.6,837.5,0.7,4.3,-5.2,25,213.04,-517.906,828.557,-1.29932,-1.94141,-2.19867,
2026_06_15_18_21_49.382,3.808,30.3,0,0.757,0,0,0,0, ,0,0,0,0,0, ,246.4,-526.9,832.8,0.2,4.2,-5,25,214.47,-518.414,828.959,-1.19272,-1.56412,-2.37547,
2026_06_15_18_21_49.402,3.808,30.2,0,0.761,0,0,0,0, ,0,0,0,0,0, ,249.7,-521.6,818.9,-0.3,1.3,-1.4,25,216.516,-518.77,828.77,-1.12309,-1.30123,-2.42572,
2026_06_15_18_21_49.421,3.808,30.3,0,0.759,0,0,0,0, ,0,0,0,0,0, ,217.7,-523,827.2,-1,-4.1,1,25,217.563,-518.985,828.421,-1.09426,-1.30725,-2.29009,
2026_06_15_18_21_49.441,3.808,30.2,0,0.76,0,0,0,0, ,0,0,0,0,0, ,199.7,-512.5,839.8,-0.7,-0.1,-0.3,25,217.023,-518.91,828.731,-1.07938,-1.35556,-2.12921,
2026_06_15_18_21_49.462,3.808,30.3,0,0.755,0,0,0,0, ,0,0,0,0,0, ,199.3,-507.9,844.1,-1.6,3.5,-3.6,25,215.955,-518.379,829.536,-1.08368,-1.16936,-2.11829,
2026_06_15_18_21_49.481,3.808,30.3,0,0.754,0,0,0,0, ,0,0,0,0,0, ,227.1,-521.8,822.6,-2.8,3.8,-4.4,25,215.787,-518.164,829.769,-1.15171,-0.87568,-2.23295,
2026_06_15_18_21_49.501,3.808,30.2,0,0.757,0,0,0,0, ,0,0,0,0,0, ,238.1,-531.8,803.5,-2.4,2.7,-2.6,25,216.812,-518.69,828.75,-1.23996,-0.624271,-2.31016,
2026_06_15_18_21_49.521,3.808,30.3,0,0.762,0,0,0,0, ,0,0,0,0,0, ,230.1,-528.4,811.4,-0.3,0.5,-0.4,25,217.865,-519.385,827.452,-1.24667,-0.48873,-2.26079,
2026_06_15_18_21_49.540,3.808,30.2,0,0.76,0,0,0,0, ,0,0,0,0,0, ,213,-522.4,835.9,0,-1.2,0.1,25,218.09,-519.752,827.22,-1.17984,-0.480276,-2.13217,
2026_06_15_18_21_49.561,3.808,30.2,0,0.759,0,0,0,0, ,0,0,0,0,0, ,204.5,-516.2,836.6,0.4,-0.6,-0.6,25,217.521,-519.724,827.77,-1.09575,-0.505853,-2.01747,
2026_06_15_18_21_49.581,3.808,30.2,0,0.759,0,0,0,0, ,0,0,0,0,0, ,207.6,-531,844.6,-0.1,-0.3,-1.9,25,216.822,-519.961,828.552,-1.01984,-0.502449,-1.97071,
2026_06_15_18_21_49.600,3.808,30.2,0,0.757,0,0,0,0, ,0,0,0,0,0, ,227.5,-530.1,846,-0.5,2,-1.2,25,216.866,-520.606,829.573,-0.975976,-0.420034,-1.94507,
2026_06_15_18_21_49.620,3.808,30.3,0,0.755,0,0,0,0, ,0,0,0,0,0, ,214.4,-515.6,838,-1.2,-1.3,-0.3,25,217.115,-520.743,830.33,-0.968299,-0.37311,-1.87224,
2026_06_15_18_21_49.640,3.808,30.2,0,0.757,0,0,0,0, ,0,0,0,0,0, ,212.4,-514,846.4,-1.3,-1.9,-0.7,25,216.889,-520.38,831.053,-0.985465,-0.447874,-1.78862,
2026_06_15_18_21_49.660,3.808,30.2,0,0.76,0,0,0,0, ,0,0,0,0,0, ,207.3,-518.9,821.7,-1.9,-0.9,-1.7,25,216.46,-520.141,831.236,-1.02291,-0.505894,-1.75275,
2026_06_15_18_21_49.681,3.808,30.2,0,0.759,0,0,0,0, ,0,0,0,0,0, ,207.8,-526.2,813.7,-0.2,-1.5,-2.3,25,215.917,-520.288,830.411,-1.02456,-0.548191,-1.76782,
2026_06_15_18_21_49.699,3.808,30.2,0,0.758,0,0,0,0, ,0,0,0,0,0, ,224.8,-516.7,851.8,-0.1,-2.2,-2.5,25,215.94,-520.359,830.554,-0.97127,-0.62752,-1.80634,
2026_06_15_18_21_49.718,3.808,30.2,0,0.756,0,0,0,0, ,0,0,0,0,0, ,228.7,-510,863.2,-3.3,0.3,-1.4,25,216.599,-519.931,832.196,-1.01568,-0.647171,-1.8151,
2026_06_15_18_21_49.739,3.808,30.2,0,0.756,0,0,0,0, ,0,0,0,0,0, ,216.6,-516.3,831.2,-5.1,0.4,-1.3,25,216.968,-519.518,833.11,-1.20972,-0.586406,-1.78676,
2026_06_15_18_21_49.759,3.808,30.2,0,0.76,0,0,0,0, ,0,0,0,0,0, ,206.2,-526.8,802.9,-4.7,1.6,-1.9,25,216.628,-519.642,832.131,-1.4346,-0.489735,-1.77538,
2026_06_15_18_21_49.779,3.808,30.2,0,0.762,0,0,0,0, ,0,0,0,0,0, ,218.9,-524.5,817.3,-2.9,2.2,-3.5,25,216.38,-520.008,830.789,-1.57874,-0.34411,-1.83172,
2026_06_15_18_21_49.798,3.808,30.2,0,0.76,0,0,0,0, ,0,0,0,0,0, ,248.4,-522.4,832.1,-2.9,1.2,-2.5,25,217.432,-520.218,830.418,-1.65925,-0.219547,-1.90291,
