UTC_Time,Vin,TC1,TC2,Rh1,Vh1,Ah1,Acp1,Dty1,Err1,Rh2,Vh2,Ah2,Acp2,Dty2,Err2,Accel_x,Accel_y,Accel_z,gyro_x,gyro_y,gyro_z,Temp_c,Accel_x_h,Accel_y_h,Accel_z_h,gyro_x_h,gyro_y_h,gyro_z_h,
2026_07_06_17_47_55.341,3.851,29.7,0,0.758,0,0,0,0.001, ,0,0,0,0,0, ,758.1,108.5,636.8,-0.4,0,-1.7,25,758.1,108.5,636.8,-0.4,0,-1.7,
2026_07_06_17_47_55.361,3.851,29.8,0,0.758,0,0,0,0.002, ,0,0,0,0,0, ,755.7,109.4,637.2,0,-0.2,-1.7,25,758.027,108.527,636.812,-0.387813,-0.00609375,-1.7,
2026_07_06_17_47_55.381,3.851,29.8,0,0.757,0,0,0,0.001, ,0,0,0,0,0, ,757.5,110.7,640.3,-0.4,-0.7,-1.7,25,757.94,108.62,636.93,-0.376368,-0.0331443,-1.7,
2026_07_06_17_47_55.400,3.851,29.8,0,0.758,0,0,0,0.001, ,0,0,0,0,0, ,757.6,109,636.7,-1.2,-1.2,-1.6,25,757.916,108.695,637.026,-0.402183,-0.0890152,-1.69695,
2026_07_06_17_47_55.420,3.851,29.8,0,0.757,0,0,0,0.001, ,0,0,0,0,0, ,757.8,108.2,634.7,-0.7,-1,-1.6,25,757.903,108.689,636.945,-0.435565,-0.150622,-1.69105,
2026_07_06_17_47_55.440,3.851,29.7,0,0.758,0,0,0,0.001, ,0,0,0,0,0, ,756.3,108.5,636.7,-0.1,-0.8,-1.6,25,757.851,108.669,636.869,-0.433398,-0.196287,-1.6855,
2026_07_06_17_47_55.465,3.851,29.7,0,0.758,0,0,0,0.002, ,0,0,0,0,0, ,757,109.9,638.3,-0.3,-1.1,-1.6,25,757.778,108.701,636.908,-0.419175,-0.242217,-1.68029,
2026_07_06_17_47_55.480,3.851,29.7,0,0.757,0,0,0,0.002, ,0,0,0,0,0, ,758.1,108.6,637.2,-1.1,-1.7,-1.7,25,757.764,108.734,636.959,-0.436288,-0.312769,-1.67844,
2026_07_06_17_47_55.499,3.851,29.8,0,0.76,0,0,0,0.002, ,0,0,0,0,0, ,758.6,107,630.9,-1.1,-1.2,-1.7,25,757.8,108.678,636.782,-0.476733,-0.382069,-1.67976,
2026_07_06_17_47_55.519,3.851,29.8,0,0.758,0,0,0,0.001, ,0,0,0,0,0, ,761.3,106.9,630.9,-0.3,-0.3,-1.8,25,757.931,108.572,636.423,-0.490338,-0.40449,-1.68404,
2026_07_06_17_47_55.540,3.851,29.7,0,0.758,0,0,0,0.001, ,0,0,0,0,0, ,758,109,634.7,0.4,0.1,-1.7,25,758.035,108.534,636.203,-0.457412,-0.385935,-1.68806,
2026_07_06_17_47_55.559,3.851,29.7,0,0.757,0,0,0,0.002, ,0,0,0,0,0, ,757.9,111,637.9,-0.2,-0.1,-1.7,25,758.03,108.624,636.208,-0.423444,-0.362417,-1.68878,
2026_07_06_17_47_55.578,3.851,29.7,0,0.757,0,0,0,0.002, ,0,0,0,0,0, ,756.7,109.7,636.3,-1.1,-0.3,-1.8,25,757.986,108.729,636.263,-0.43725,-0.35252,-1.69251,
2026_07_06_17_47_55.598,3.851,29.7,0,0.758,0,0,0,0.002, ,0,0,0,0,0, ,759.3,107.7,630.8,-0.8,-0.1,-1.8,25,757.987,108.727,636.097,-0.468496,-0.343226,-1.69906,
2026_07_06_17_47_55.618,3.851,29.8,0,0.759,0,0,0,0.002, ,0,0,0,0,0, ,756.7,108.3,631.9,-0.1,0.2,-1.8,25,757.987,108.683,635.808,-0.467369,-0.319263,-1.70521,
2026_07_06_17_47_55.638,3.851,29.7,0,0.757,0,0,0,0.002, ,0,0,0,0,0, ,755.6,110.3,640.1,0,0.3,-1.8,25,757.875,108.72,635.82,-0.441935,-0.284574,-1.71099,
2026_07_06_17_47_55.658,3.851,29.8,0,0.758,0,0,0,0.002, ,0,0,0,0,0, ,756.2,111.3,641.8,-0.8,-0.7,-1.7,25,757.755,108.847,636.132,-0.43938,-0.27942,-1.71337,
2026_07_06_17_47_55.678,3.851,29.7,0,0.758,0,0,0,0.002, ,0,0,0,0,0, ,756.1,109.4,635.9,-0.8,-1,-1.7,25,757.657,108.939,636.298,-0.461355,-0.31419,-1.71255,
2026_07_06_17_47_55.697,3.851,29.8,0,0.758,0,0,0,0.002, ,0,0,0,0,0, ,758.9,108.6,633.9,-0.4,-0.8,-1.7,25,757.648,108.942,636.213,-0.469804,-0.349888,-1.71179,
2026_07_06_17_47_55.717,3.851,29.7,0,0.758,0,0,0,0.002, ,0,0,0,0,0, ,758.1,109.9,637.3,-0.4,-0.5,-1.8,25,757.7,108.961,636.176,-0.46555,-0.368176,-1.71412,
2026_07_06_17_47_55.737,3.851,29.7,0,0.759,0,0,0,0.002, ,0,0,0,0,0, ,757.8,109.9,633.4,-0.7,-0.6,-1.7,25,757.715,109.018,636.125,-0.470696,-0.379256,-1.7163,
2026_07_06_17_47_55.757,3.851,29.7,0,0.758,0,0,0,0.002, ,0,0,0,0,0, ,759.3,108.2,632.6,-0.5,0,-1.8,25,757.766,109.02,635.935,-0.478576,-0.374426,-1.71836,
2026_07_06_17_47_55.777,3.851,29.7,0,0.758,0,0,0,0.002, ,0,0,0,0,0, ,758,108,634.6,-0.2,0.3,-1.8,25,757.82,108.964,635.793,-0.470741,-0.342469,-1.72333,
2026_07_06_17_47_55.796,3.851,29.8,0,0.759,0,0,0,0.003, ,0,0,0,0,0, ,757.9,108.8,639.1,-0.1,0,-1.8,25,757.828,108.93,635.857,-0.451196,-0.312459,-1.728,
2026_07_06_17_47_55.816,3.851,29.7,0,0.757,0,0,0,0.002, ,0,0,0,0,0, ,756.9,110.2,639.4,-0.4,-0.7,-1.7,25,757.802,108.965,636.064,-0.438935,-0.314747,-1.72934,
2026_07_06_17_47_55.836,3.851,29.8,0,0.757,0,0,0,0.003, ,0,0,0,0,0, ,759.2,108.8,635,-0.3,-0.9,-1.7,25,757.817,108.997,636.133,-0.433516,-0.344317,-1.72756,
2026_07_06_17_47_55.856,3.851,29.7,0,0.758,0,0,0,0.002, ,0,0,0,0,0, ,758.3,109.7,632,-0.3,-0.8,-1.6,25,757.874,109.013,635.973,-0.42538,-0.375132,-1.72283,
2026_07_06_17_47_55.875,3.851,29.8,0,0.759,0,0,0,0.003, ,0,0,0,0,0, ,756.9,109.9,635.7,-0.4,-0.5,-1.6,25,757.857,109.061,635.843,-0.420786,-0.391882,-1.71534,
2026_07_06_17_47_55.895,3.851,29.8,0,0.756,0,0,0,0.002, ,0,0,0,0,0, ,756.9,109.2,637.2,-0.7,-0.9,-1.7,25,757.799,109.09,635.88,-0.42866,-0.410658,-1.71136,
2026_07_06_17_47_55.915,3.851,29.8,0,0.758,0,0,0,0.002, ,0,0,0,0,0, ,758.9,108.1,635.8,-1,-1,-1.7,25,757.805,109.064,635.918,-0.454335,-0.443524,-1.71067,
2026_07_06_17_47_55.935,3.851,29.8,0,0.758,0,0,0,0.002, ,0,0,0,0,0, ,757.9,108.2,632.6,-0.8,-0.8,-1.6,25,757.841,109.008,635.813,-0.481493,-0.47134,-1.70697,
2026_07_06_17_47_55.955,3.851,29.8,0,0.76,0,0,0,0.002, ,0,0,0,0,0, ,758.5,107.9,634.2,-0.5,-0.4,-1.8,25,757.863,108.95,635.666,-0.491762,-0.479181,-1.70655,
2026_07_06_17_47_55.975,3.851,29.8,0,0.758,0,0,0,0.002, ,0,0,0,0,0, ,758.9,108.8,635.9,-0.1,-0.2,-1.7,25,757.914,108.913,635.629,-0.480076,-0.468262,-1.7092,
2026_07_06_17_47_56.000,3.851,29.8,0,0.758,0,0,0,0.002, ,0,0,0,0,0, ,758.9,110.3,636.5,-0.5,-0.5,-1.7,25,757.974,108.952,635.663,-0.469103,-0.461055,-1.70864,
2026_07_06_17_47_56.014,3.851,29.7,0,0.758,0,0,0,0.002, ,0,0,0,0,0, ,759,109,634.2,-1,-0.6,-1.7,25,758.033,108.994,635.644,-0.48622,-0.466475,-1.70811,
2026_07_06_17_47_56.034,3.851,29.7,0,0.758,0,0,0,0.003, ,0,0,0,0,0, ,758.1,108.8,634.2,-0.7,-0.4,-1.7,25,758.065,108.989,635.556,-0.508388,-0.468518,-1.70762,
2026_07_06_17_47_56.053,3.851,29.8,0,0.76,0,0,0,0.003, ,0,0,0,0,0, ,757.9,108.7,637.8,-0.2,-0.3,-1.7,25,758.061,108.974,635.583,-0.50483,-0.461296,-1.70715,
2026_07_06_17_47_56.073,3.851,29.7,0,0.759,0,0,0,0.002, ,0,0,0,0,0, ,757.2,109.6,639.2,-0.4,-0.8,-1.6,25,758.03,108.985,635.761,-0.492348,-0.466701,-1.70367,
2026_07_06_17_47_56.094,3.851,29.8,0,0.76,0,0,0,0.003, ,0,0,0,0,0, ,758.4,111,634.5,-0.9,-1,-1.7,25,758.016,109.065,635.827,-0.501955,-0.493105,-1.7004,
2026_07_06_17_47_56.113,3.851,29.7,0,0.757,0,0,0,0.002, ,0,0,0,0,0, ,758.6,108.6,632,-0.9,-0.7,-1.8,25,758.045,109.11,635.67,-0.526211,-0.514854,-1.70342,
2026_07_06_17_47_56.138,3.851,29.8,0,0.757,0,0,0,0.003, ,0,0,0,0,0, ,758.4,109.2,633.3,-0.5,-0.2,-1.8,25,758.073,109.097,635.486,-0.536801,-0.510902,-1.70931,
2026_07_06_17_47_56.152,3.851,29.7,0,0.76,0,0,0,0.002, ,0,0,0,0,0, ,757.4,110.1,635.4,-0.5,0,-1.8,25,758.063,109.131,635.417,-0.534558,-0.485862,-1.71483,
2026_07_06_17_47_56.173,3.851,29.8,0,0.76,0,0,0,0.003, ,0,0,0,0,0, ,757.6,109.4,637,-0.7,-0.2,-1.7,25,758.028,109.168,635.465,-0.538546,-0.462349,-1.71698,
2026_07_06_17_47_56.193,3.851,29.7,0,0.756,0,0,0,0.002, ,0,0,0,0,0, ,757,108.6,635.4,-0.9,-0.3,-1.8,25,757.984,109.158,635.51,-0.554479,-0.449409,-1.71899,
2026_07_06_17_47_56.212,3.851,29.8,0,0.758,0,0,0,0.003, ,0,0,0,0,0, ,757.4,108,634.6,-0.6,-0.2,-1.8,25,757.936,109.106,635.479,-0.566393,-0.437257,-1.72392,
2026_07_06_17_47_56.233,3.851,29.8,0,0.757,0,0,0,0.002, ,0,0,0,0,0, ,757.6,109.9,636.9,-0.4,-0.3,-1.9,25,757.91,109.096,635.495,-0.562347,-0.425846,-1.73161,
2026_07_06_17_47_56.253,3.851,29.8,0,0.76,0,0,0,0.002, ,0,0,0,0,0, ,757.4,109.7,637.5,-0.5,-0.8,-1.8,25,757.885,109.139,635.599,-0.555501,-0.433412,-1.73882,
2026_07_06_17_47_56.273,3.851,29.7,0,0.76,0,0,0,0.002, ,0,0,0,0,0, ,758.7,108.7,633.7,-0.4,-0.7,-1.7,25,757.895,109.143,635.599,-0.549072,-0.452704,-1.7395,
2026_07_06_17_47_56.292,3.851,29.8,0,0.76,0,0,0,0.003, ,0,0,0,0,0, ,758.7,109.2,631.7,-0.1,-0.3,-1.6,25,757.944,109.131,635.422,-0.530848,-0.455586,-1.73405,
2026_07_06_17_47_56.311,3.851,29.8,0,0.76,0,0,0,0.002, ,0,0,0,0,0, ,757.2,109.8,634.6,-0.3,0,-1.6,25,757.944,109.154,635.284,-0.510686,-0.436965,-1.72588,
2026_07_06_17_47_56.331,3.851,29.7,0,0.76,0,0,0,0.002, ,0,0,0,0,0, ,757.3,109.1,639.6,-0.5,-0.3,-1.6,25,757.902,109.172,635.395,-0.503942,-0.419478,-1.71821,
2026_07_06_17_47_56.351,3.851,29.7,0,0.761,0,0,0,0.003, ,0,0,0,0,0, ,758,108.6,636.8,-0.4,-0.7,-1.7,25,757.886,109.152,635.566,-0.500654,-0.424384,-1.71405,
2026_07_06_17_47_56.370,3.851,29.7,0,0.76,0,0,0,0.003, ,0,0,0,0,0, ,757.8,108.5,638.3,-0.6,-1.3,-1.7,25,757.887,109.115,635.686,-0.500615,-0.459461,-1.7132,
2026_07_06_17_47_56.391,3.851,29.8,0,0.761,0,0,0,0.003, ,0,0,0,0,0, ,758.6,109.2,635.3,-0.8,-1.6,-1.6,25,757.906,109.099,635.754,-0.512765,-0.519822,-1.70935,
2026_07_06_17_47_56.410,3.851,29.7,0,0.758,0,0,0,0.002, ,0,0,0,0,0, ,758.6,108.6,630.7,-0.7,-1.2,-1.7,25,757.949,109.087,635.586,-0.527221,-0.573458,-1.70573,
2026_07_06_17_47_56.430,3.851,29.7,0,0.759,0,0,0,0.003, ,0,0,0,0,0, ,759.1,107.7,630.6,-0.2,-0.5,-1.8,25,758.004,109.03,635.286,-0.522516,-0.59031,-1.70843,
2026_07_06_17_47_56.450,3.851,29.8,0,0.76,0,0,0,0.003, ,0,0,0,0,0, ,758,109.4,635.7,-0.6,-0.2,-1.8,25,758.037,109.001,635.156,-0.51505,-0.575666,-1.71401,
2026_07_06_17_47_56.470,3.851,29.8,0,0.76,0,0,0,0.003, ,0,0,0,0,0, ,756.7,109,635.8,-0.8,-0.3,-1.6,25,757.995,109.013,635.192,-0.52632,-0.555821,-1.71315,
2026_07_06_17_47_56.489,3.851,29.8,0,0.759,0,0,0,0.003, ,0,0,0,0,0, ,757.4,108,633.4,-0.3,-0.3,-1.6,25,757.937,108.982,635.156,-0.527763,-0.540231,-1.70626,
2026_07_06_17_47_56.509,3.851,29.7,0,0.761,0,0,0,0.003, ,0,0,0,0,0, ,758.3,110.2,633.9,0,-0.1,-1.8,25,757.932,108.989,635.064,-0.504743,-0.519499,-1.70588,
2026_07_06_17_47_56.529,3.851,29.8,0,0.76,0,0,0,0.003, ,0,0,0,0,0, ,756.8,109.1,637.3,-0.4,-0.1,-1.7,25,757.909,109.029,635.097,-0.486173,-0.493935,-1.70857,
2026_07_06_17_47_56.549,3.851,29.7,0,0.76,0,0,0,0.003, ,0,0,0,0,0, ,757.6,109.3,636.7,-0.7,-0.3,-1.8,25,757.866,109.04,635.213,-0.490062,-0.476024,-1.71109,
2026_07_06_17_47_56.569,3.851,29.9,0,0.76,0,0,0,0.003, ,0,0,0,0,0, ,757.4,108.1,635.1,-0.5,-0.4,-1.7,25,757.843,109.019,635.254,-0.496762,-0.468344,-1.71346,
2026_07_06_17_47_56.588,3.851,29.8,0,0.759,0,0,0,0.002, ,0,0,0,0,0, ,758,109.3,634.6,-0.1,-0.2,-1.7,25,757.835,108.999,635.23,-0.484772,-0.458086,-1.71264,
2026_07_06_17_47_56.609,3.851,29.8,0,0.761,0,0,0,0.003, ,0,0,0,0,0, ,757.6,109.3,634.7,-0.2,-0.2,-1.7,25,757.832,109.018,635.194,-0.464371,-0.442359,-1.71187,
2026_07_06_17_47_56.628,3.851,29.7,0,0.76,0,0,0,0.003, ,0,0,0,0,0, ,757.8,108.6,635.6,-0.5,-0.3,-1.7,25,757.824,109.014,635.192,-0.457402,-0.430637,-1.71115,
2026_07_06_17_47_56.648,3.851,29.8,0,0.76,0,0,0,0.004, ,0,0,0,0,0, ,758.7,110.4,635.2,-0.5,-0.5,-1.8,25,757.85,109.043,635.204,-0.459998,-0.42877,-1.71352,
2026_07_06_17_47_56.668,3.851,29.8,0,0.76,0,0,0,0.003, ,0,0,0,0,0, ,757.4,108.6,636.3,-0.7,-0.8,-1.7,25,757.863,109.071,635.238,-0.468529,-0.442251,-1.71574,
2026_07_06_17_47_56.687,3.851,29.8,0,0.758,0,0,0,0.003, ,0,0,0,0,0, ,758.1,108.7,633.3,-0.7,-0.6,-1.7,25,757.856,109.045,635.211,-0.482634,-0.457958,-1.71478,
2026_07_06_17_47_56.708,3.851,29.8,0,0.759,0,0,0,0.003, ,0,0,0,0,0, ,757.4,108.5,634.2,-0.3,-0.3,-1.8,25,757.849,109.018,635.122,-0.483693,-0.457473,-1.71693,
2026_07_06_17_47_56.727,3.851,29.8,0,0.759,0,0,0,0.003, ,0,0,0,0,0, ,758,108.6,634.1,-0.1,-0.2,-1.7,25,757.84,108.99,635.063,-0.466405,-0.44483,-1.71894,
2026_07_06_17_47_56.747,3.851,29.7,0,0.76,0,0,0,0.003, ,0,0,0,0,0, ,757.6,110.5,636.5,-0.4,-0.2,-1.8,25,757.838,109.024,635.077,-0.453218,-0.429911,-1.72083,
2026_07_06_17_47_56.767,3.851,29.8,0,0.758,0,0,0,0.004, ,0,0,0,0,0, ,757.6,111,635.6,-0.9,-0.5,-1.7,25,757.823,109.129,635.137,-0.465209,-0.425041,-1.72261,
2026_07_06_17_47_56.787,3.851,29.7,0,0.758,0,0,0,0.003, ,0,0,0,0,0, ,757.6,108.2,634.3,-0.9,-0.7,-1.7,25,757.81,109.158,635.125,-0.491704,-0.435703,-1.72123,
2026_07_06_17_47_56.807,3.851,29.8,0,0.759,0,0,0,0.004, ,0,0,0,0,0, ,758,109.2,633.9,-0.6,-0.5,-1.7,25,757.809,109.13,635.063,-0.507444,-0.445714,-1.71994,
2026_07_06_17_47_56.826,3.851,29.8,0,0.761,0,0,0,0.003, ,0,0,0,0,0, ,756.9,109.2,634.1,-0.4,-0.5,-1.7,25,757.787,109.134,634.998,-0.506991,-0.449022,-1.71872,
2026_07_06_17_47_56.846,3.851,29.8,0,0.76,0,0,0,0.003, ,0,0,0,0,0, ,758.1,110.1,635.2,-0.4,-0.6,-1.7,25,757.77,109.166,634.977,-0.500471,-0.455176,-1.71758,
2026_07_06_17_47_56.866,3.851,29.8,0,0.759,0,0,0,0.003, ,0,0,0,0,0, ,759,109.7,635.6,-0.6,-0.6,-1.7,25,757.817,109.21,635.003,-0.500442,-0.464001,-1.71651,
2026_07_06_17_47_56.886,3.851,29.8,0,0.76,0,0,0,0.003, ,0,0,0,0,0, ,757.4,109,635.6,-0.5,-0.6,-1.6,25,757.841,109.219,635.039,-0.503462,-0.472288,-1.71246,
2026_07_06_17_47_56.905,3.851,29.8,0,0.758,0,0,0,0.003, ,0,0,0,0,0, ,757.6,110.3,634.6,-0.8,-0.8,-1.6,25,757.82,109.245,635.043,-0.512392,-0.486165,-1.70561,
2026_07_06_17_47_56.926,3.851,29.8,0,0.76,0,0,0,0.003, ,0,0,0,0,0, ,759.3,109.3,633.6,-0.7,-0.7,-1.7,25,757.858,109.279,634.985,-0.526871,-0.502242,-1.70222,
2026_07_06_17_47_56.945,3.851,29.8,0,0.761,0,0,0,0.003, ,0,0,0,0,0, ,758.1,106.2,631.9,-0.7,-0.3,-1.7,25,757.909,109.186,634.849,-0.537421,-0.502105,-1.70208,
2026_07_06_17_47_56.965,3.851,29.8,0,0.758,0,0,0,0.003, ,0,0,0,0,0, ,757.3,108.6,634.7,-0.3,0,-1.7,25,757.897,109.077,634.755,-0.535141,-0.480649,-1.70196,
2026_07_06_17_47_56.985,3.851,29.8,0,0.76,0,0,0,0.003, ,0,0,0,0,0, ,756.8,108.3,638.4,-0.1,-0.3,-1.7,25,757.845,109.039,634.864,-0.514718,-0.4605,-1.70184,
2026_07_06_17_47_57.004,3.851,29.7,0,0.758,0,0,0,0.003, ,0,0,0,0,0, ,757.5,109.7,636.8,-0.5,-0.7,-1.7,25,757.803,109.036,635.031,-0.501634,-0.462907,-1.70172,
2026_07_06_17_47_57.024,3.851,29.9,0,0.758,0,0,0,0.004, ,0,0,0,0,0, ,759,109.3,633.9,-0.9,-0.7,-1.7,25,757.83,109.065,635.05,-0.513722,-0.477355,-1.70162,
2026_07_06_17_47_57.044,3.851,29.9,0,0.76,0,0,0,0.002, ,0,0,0,0,0, ,758.5,108.6,630.4,-0.3,-0.2,-1.8,25,757.886,109.058,634.873,-0.518979,-0.475688,-1.70457,
2026_07_06_17_47_57.064,3.851,29.9,0,0.758,0,0,0,0.002, ,0,0,0,0,0, ,758.5,109.4,638.6,-0.1,0,-1.8,25,757.923,109.054,634.851,-0.499541,-0.452795,-1.71038,
2026_07_06_17_47_57.083,3.851,29.8,0,0.76,0,0,0,0.002, ,0,0,0,0,0, ,756.9,109.6,636.4,-0.6,-0.5,-1.7,25,757.91,109.081,635.012,-0.490429,-0.440437,-1.7128,
2026_07_06_17_47_57.104,3.851,29.8,0,0.76,0,0,0,0.003, ,0,0,0,0,0, ,758.6,109,634,-0.8,-0.6,-1.8,25,757.9,109.095,635.024,-0.503199,-0.447113,-1.71506,
2026_07_06_17_47_57.124,3.851,29.8,0,0.76,0,0,0,0.003, ,0,0,0,0,0, ,759.2,109.1,633.3,-0.6,-0.3,-1.7,25,757.961,109.092,634.94,-0.515192,-0.447289,-1.71719,
2026_07_06_17_47_57.144,3.851,29.9,0,0.76,0,0,0,0.003, ,0,0,0,0,0, ,757.6,108.6,635.1,-0.3,-0.2,-1.6,25,757.988,109.077,634.895,-0.511219,-0.435267,-1.7131,
2026_07_06_17_47_57.165,3.851,29.8,0,0.758,0,0,0,0.002, ,0,0,0,0,0, ,757.4,109.8,635.8,-0.2,-0.5,-1.6,25,757.958,109.085,634.929,-0.495301,-0.430071,-1.70621,
2026_07_06_17_47_57.183,3.851,29.8,0,0.758,0,0,0,0.003, ,0,0,0,0,0, ,757,109,635.7,-0.4,-0.6,-1.7,25,757.912,109.104,634.979,-0.4834,-0.437379,-1.70278,
2026_07_06_17_47_57.203,3.851,29.8,0,0.76,0,0,0,0.003, ,0,0,0,0,0, ,758.3,108.3,633.5,-0.6,-0.7,-1.7,25,757.896,109.076,634.956,-0.484412,-0.450336,-1.70261,
2026_07_06_17_47_57.222,3.851,29.8,0,0.76,0,0,0,0.003, ,0,0,0,0,0, ,759.2,107.6,632.5,-0.5,-0.4,-1.7,25,757.948,109.008,634.836,-0.488408,-0.456409,-1.70245,
2026_07_06_17_47_57.242,3.851,29.8,0,0.757,0,0,0,0.003, ,0,0,0,0,0, ,758.6,110.2,631.7,-0.3,-0.1,-1.9,25,758.006,109.001,634.67,-0.483021,-0.443831,-1.7084,
2026_07_06_17_47_57.262,3.851,29.8,0,0.756,0,0,0,0.003, ,0,0,0,0,0, ,758.7,110.4,633.9,-0.1,0.3,-1.8,25,758.045,109.08,634.556,-0.465775,-0.410691,-1.71703,
2026_07_06_17_47_57.282,3.851,29.8,0,0.76,0,0,0,0.003, ,0,0,0,0,0, ,759.2,108.3,634.2,0,0.3,-1.7,25,758.1,109.097,634.525,-0.440438,-0.367383,-1.71904,
2026_07_06_17_47_57.302,3.851,29.8,0,0.758,0,0,0,0.003, ,0,0,0,0,0, ,755.7,109.6,637.2,-0.1,0.3,-1.8,25,758.061,109.088,634.597,-0.416646,-0.326715,-1.72092,
2026_07_06_17_47_57.322,3.851,29.8,0,0.761,0,0,0,0.003, ,0,0,0,0,0, ,756.3,110.9,642.9,-0.6,-0.5,-1.6,25,757.935,109.159,634.929,-0.412585,-0.312899,-1.71965,
2026_07_06_17_47_57.341,3.851,29.8,0,0.759,0,0,0,0.003, ,0,0,0,0,0, ,757.5,109.7,638.7,-0.8,-1.4,-1.6,25,757.872,109.228,635.287,-0.430099,-0.351723,-1.71236,
2026_07_06_17_47_57.361,3.851,29.8,0,0.76,0,0,0,0.003, ,0,0,0,0,0, ,757.8,109.9,634.8,-0.6,-1.5,-1.5,25,757.859,109.263,635.376,-0.446546,-0.418649,-1.70246,
2026_07_06_17_47_57.381,3.851,29.8,0,0.762,0,0,0,0.003, ,0,0,0,0,0, ,760.2,107.1,629.1,-0.7,-1,-1.6,25,757.928,109.216,635.167,-0.458944,-0.469309,-1.69317,
2026_07_06_17_47_57.400,3.851,29.8,0,0.76,0,0,0,0.003, ,0,0,0,0,0, ,758.6,107.2,631.5,-0.2,-0.1,-1.7,25,758.018,109.091,634.87,-0.458399,-0.474226,-1.69054,
2026_07_06_17_47_57.420,3.851,29.8,0,0.76,0,0,0,0.004, ,0,0,0,0,0, ,758.5,107.7,634.6,0,0.1,-1.8,25,758.05,108.991,634.76,-0.436559,-0.445328,-1.69416,
2026_07_06_17_47_57.440,3.851,30,0,0.76,0,0,0,0.004, ,0,0,0,0,0, ,756.9,109,638.4,-0.1,-0.1,-1.8,25,758.029,108.952,634.866,-0.413003,-0.418191,-1.70061,
2026_07_06_17_47_57.465,3.851,29.8,0,0.762,0,0,0,0.002, ,0,0,0,0,0, ,758.7,108.7,635.7,-0.5,-0.3,-1.7,25,758.015,108.945,634.999,-0.406117,-0.404895,-1.70362,
2026_07_06_17_47_57.480,3.851,30,0,0.76,0,0,0,0.001, ,0,0,0,0,0, ,757.2,108.8,635.9,-0.4,-0.4,-1.8,25,758.011,108.933,635.048,-0.408791,-0.40155,-1.70645,
2026_07_06_17_47_57.500,3.851,29.8,0,0.76,0,0,0,0, ,0,0,0,0,0, ,758.5,109.4,634.2,0,-0.3,-1.8,25,758.001,108.944,635.048,-0.396068,-0.398409,-1.71215,
2026_07_06_17_47_57.520,3.851,29.9,0,0.76,0,0,0,0.001, ,0,0,0,0,0, ,758.1,110.7,632.2,-0.6,-0.2,-1.8,25,758.019,109.011,634.935,-0.390214,-0.389365,-1.7175,
2026_07_06_17_47_57.539,3.851,29.8,0,0.762,0,0,0,0, ,0,0,0,0,0, ,757.5,109.8,631.9,-0.5,0.1,-1.8,25,758.006,109.086,634.759,-0.399951,-0.368685,-1.72253,
2026_07_06_17_47_57.559,3.851,29.8,0,0.76,0,0,0,0.001, ,0,0,0,0,0, ,757.5,110.2,637,-0.1,0.3,-1.7,25,757.975,109.142,634.74,-0.39386,-0.334031,-1.7242,
2026_07_06_17_47_57.579,3.851,29.9,0,0.758,0,0,0,0.001, ,0,0,0,0,0, ,756.8,110.5,639.1,0.1,0.1,-1.7,25,757.925,109.216,634.942,-0.369859,-0.301488,-1.72273,
2026_07_06_17_47_57.598,3.851,30,0,0.757,0,0,0,0, ,0,0,0,0,0, ,757.4,110.4,640,-0.3,-0.5,-1.6,25,757.875,109.291,635.223,-0.353415,-0.295304,-1.7183,
2026_07_06_17_47_57.619,3.851,29.9,0,0.76,0,0,0,0, ,0,0,0,0,0, ,756.8,109.4,638.1,-0.7,-1.2,-1.6,25,757.827,109.328,635.456,-0.362347,-0.329106,-1.71109,
2026_07_06_17_47_57.638,3.851,29.8,0,0.758,0,0,0,0, ,0,0,0,0,0, ,758.7,107.4,631.5,-0.5,-0.9,-1.7,25,757.823,109.272,635.416,-0.376829,-0.373035,-1.70737,
2026_07_06_17_47_57.658,3.851,29.9,0,0.758,0,0,0,0.001, ,0,0,0,0,0, ,757.9,109.6,631.2,0,-0.2,-1.8,25,757.852,109.225,635.168,-0.369101,-0.383819,-1.70996,
2026_07_06_17_47_57.678,3.851,29.8,0,0.76,0,0,0,0, ,0,0,0,0,0, ,757.2,109.4,633,-0.1,0.3,-1.9,25,757.833,109.241,634.981,-0.349655,-0.357383,-1.7185,
2026_07_06_17_47_57.698,3.851,30,0,0.759,0,0,0,0.001, ,0,0,0,0,0, ,756.3,110.9,635.9,-0.3,0.2,-1.9,25,757.767,109.297,634.949,-0.340536,-0.320371,-1.72956,
2026_07_06_17_47_57.718,3.851,29.8,0,0.76,0,0,0,0, ,0,0,0,0,0, ,757.3,111.2,639,-0.2,0,-1.8,25,757.708,109.404,635.101,-0.335019,-0.294754,-1.7369,
2026_07_06_17_47_57.737,3.851,29.9,0,0.758,0,0,0,0.001, ,0,0,0,0,0, ,756.2,110.5,638.7,-0.3,-0.4,-1.8,25,757.65,109.492,635.33,-0.329838,-0.28898,-1.74074,
2026_07_06_17_47_57.764,3.851,29.9,0,0.76,0,0,0,0.001, ,0,0,0,0,0, ,757.8,110.4,637.5,-0.5,-0.9,-1.8,25,757.61,109.55,635.499,-0.334113,-0.31098,-1.74435,
2026_07_06_17_47_57.776,3.851,30,0,0.76,0,0,0,0, ,0,0,0,0,0, ,757.8,109.1,634.6,-0.5,-0.9,-1.6,25,757.622,109.562,635.532,-0.344222,-0.346873,-1.74165,
2026_07_06_17_47_57.796,3.851,29.8,0,0.759,0,0,0,0, ,0,0,0,0,0, ,757.3,109.8,634,-0.5,-0.6,-1.6,25,757.618,109.555,635.457,-0.353715,-0.371439,-1.73302,
2026_07_06_17_47_57.816,3.851,29.9,0,0.761,0,0,0,0.001, ,0,0,0,0,0, ,757.8,109.4,638.1,-0.4,-0.5,-1.6,25,757.613,109.558,635.493,-0.359582,-0.38232,-1.72491,
2026_07_06_17_47_57.836,3.851,29.9,0,0.76,0,0,0,0.001, ,0,0,0,0,0, ,757.4,110.4,635.2,-0.6,-0.6,-1.6,25,757.613,109.579,635.564,-0.368139,-0.392538,-1.7173,
2026_07_06_17_47_57.856,3.851,29.8,0,0.76,0,0,0,0.001, ,0,0,0,0,0, ,758.1,109.2,636.4,-0.7,-0.4,-1.6,25,757.621,109.592,635.578,-0.385315,-0.399086,-1.71015,
2026_07_06_17_47_57.876,3.851,29.8,0,0.76,0,0,0,0.001, ,0,0,0,0,0, ,757.2,108.3,632.8,-0.4,0,-1.8,25,757.623,109.541,635.519,-0.39535,-0.386955,-1.70953,
2026_07_06_17_47_57.895,3.851,29.8,0,0.758,0,0,0,0.001, ,0,0,0,0,0, ,756.5,109.9,634.1,0,0.3,-1.8,25,757.576,109.514,635.392,-0.383446,-0.354234,-1.71505,
2026_07_06_17_47_57.921,3.851,29.9,0,0.759,0,0,0,0.001, ,0,0,0,0,0, ,756.4,109,637.5,-0.1,0.4,-1.9,25,757.507,109.51,635.417,-0.363127,-0.31132,-1.72327,
2026_07_06_17_47_57.935,3.851,29.9,0,0.76,0,0,0,0.001, ,0,0,0,0,0, ,759.5,110.3,624.2,-0.4,1,-1.8,25,757.534,109.519,635.139,-0.356233,-0.249692,-1.73099,
2026_07_06_17_47_57.955,3.851,29.8,0,0.76,0,0,0,0.001, ,0,0,0,0,0, ,756.4,108,634.6,0.5,1.7,-1.9,25,757.559,109.496,634.789,-0.331478,-0.152211,-1.73825,
2026_07_06_17_47_57.975,3.851,30.1,0,0.759,0,0,0,0.001, ,0,0,0,0,0, ,756.1,109.1,640.6,0.5,1.8,-1.8,25,757.48,109.439,634.961,-0.28081,-0.0362951,-1.74506,
2026_07_06_17_47_57.994,3.851,29.9,0,0.76,0,0,0,0, ,0,0,0,0,0, ,753.4,111.6,644,0.3,1.3,-1.8,25,757.313,109.494,635.408,-0.239323,0.0603697,-1.7484,
2026_07_06_17_47_58.014,3.851,29.8,0,0.761,0,0,0,0.001, ,0,0,0,0,0, ,754.7,111.3,643.4,-0.4,0.3,-1.8,25,757.114,109.613,635.913,-0.227786,0.105441,-1.75155,
2026_07_06_17_47_58.034,3.851,29.9,0,0.76,0,0,0,0.001, ,0,0,0,0,0, ,753.2,111,642.2,-0.6,-0.4,-1.7,25,756.922,109.707,636.333,-0.244374,0.0959688,-1.75145,
2026_07_06_17_47_58.053,3.851,29.8,0,0.758,0,0,0,0.001, ,0,0,0,0,0, ,754.6,110.1,639.6,-0.5,-1.1,-1.7,25,756.737,109.758,636.611,-0.262998,0.0444176,-1.74832,
2026_07_06_17_47_58.075,3.851,29.9,0,0.759,0,0,0,0.001, ,0,0,0,0,0, ,755,109.3,637,-0.1,-1,-1.7,25,756.619,109.755,636.714,-0.265253,-0.0222735,-1.74537,
2026_07_06_17_47_58.093,3.851,30,0,0.761,0,0,0,0.001, ,0,0,0,0,0, ,755.1,111.6,637,-0.1,-0.4,-1.7,25,756.524,109.797,636.731,-0.255183,-0.0635725,-1.74261,
2026_07_06_17_47_58.113,3.851,29.9,0,0.76,0,0,0,0, ,0,0,0,0,0, ,754.5,112.1,637.9,-0.4,-0.2,-1.7,25,756.419,109.922,636.775,-0.254867,-0.0779798,-1.74001,
2026_07_06_17_47_58.133,3.851,29.8,0,0.76,0,0,0,0.001, ,0,0,0,0,0, ,755,109.9,634.8,-0.4,0.1,-1.7,25,756.317,109.988,636.749,-0.263711,-0.0762747,-1.73757,
2026_07_06_17_47_58.152,3.851,30,0,0.759,0,0,0,0.002, ,0,0,0,0,0, ,754.2,110.2,640,-0.1,-0.1,-1.7,25,756.212,109.992,636.789,-0.262876,-0.0716268,-1.73528,
2026_07_06_17_47_58.172,3.851,30,0,0.759,0,0,0,0, ,0,0,0,0,0, ,755.9,111.8,636.4,-0.2,-0.1,-1.7,25,756.142,110.053,636.875,-0.255997,-0.0733558,-1.73313,
2026_07_06_17_47_58.193,3.851,30,0,0.758,0,0,0,0, ,0,0,0,0,0, ,754.8,111,639.1,-0.2,0,-1.8,25,756.093,110.135,636.928,-0.252585,-0.0719325,-1.73416,
2026_07_06_17_47_58.212,3.851,29.9,0,0.759,0,0,0,0, ,0,0,0,0,0, ,754.8,112,642.7,-0.4,-0.3,-1.6,25,756.015,110.218,637.17,-0.255474,-0.0766897,-1.73208,
2026_07_06_17_47_58.234,3.851,29.9,0,0.759,0,0,0,0.001, ,0,0,0,0,0, ,754.7,110.5,640.2,-0.3,-0.6,-1.6,25,755.937,110.281,637.431,-0.261235,-0.0994383,-1.72403,
2026_07_06_17_47_58.252,3.851,29.9,0,0.759,0,0,0,0.001, ,0,0,0,0,0, ,755.2,111.3,638.7,-0.6,-0.8,-1.7,25,755.877,110.319,637.554,-0.272737,-0.136035,-1.71952,
2026_07_06_17_47_58.272,3.851,30,0,0.759,0,0,0,0.001, ,0,0,0,0,0, ,755.7,110.5,634,-0.7,-0.5,-1.8,25,755.851,110.354,637.481,-0.295727,-0.167355,-1.72138,
2026_07_06_17_47_58.291,3.851,29.8,0,0.758,0,0,0,0, ,0,0,0,0,0, ,756.3,109.9,633.1,-0.1,0.4,-1.7,25,755.86,110.345,637.241,-0.302081,-0.160203,-1.72312,
2026_07_06_17_47_58.311,3.851,29.9,0,0.759,0,0,0,0.002, ,0,0,0,0,0, ,752.9,110.9,638.4,0,0.9,-1.8,25,755.784,110.348,637.15,-0.28672,-0.110832,-1.72476,
2026_07_06_17_47_58.331,3.851,30,0,0.76,0,0,0,0.001, ,0,0,0,0,0, ,752.9,112.6,646.7,-0.5,0.2,-1.7,25,755.608,110.434,637.479,-0.284482,-0.0705623,-1.7263,
2026_07_06_17_47_58.350,3.851,29.8,0,0.76,0,0,0,0, ,0,0,0,0,0, ,753.1,111.6,644.1,-1.2,-0.9,-1.7,25,755.449,110.535,637.962,-0.318943,-0.0875905,-1.7247,
2026_07_06_17_47_58.370,3.851,29.9,0,0.761,0,0,0,0.002, ,0,0,0,0,0, ,754.1,110.9,637.8,-0.9,-1,-1.6,25,755.336,110.579,638.144,-0.363492,-0.140144,-1.72014,
2026_07_06_17_47_58.390,3.851,29.9,0,0.761,0,0,0,0.001, ,0,0,0,0,0, ,754.1,109.6,635.9,0,-0.7,-1.6,25,755.261,110.559,638.065,-0.368764,-0.1834,-1.71282,
2026_07_06_17_47_58.410,3.851,29.9,0,0.759,0,0,0,0.001, ,0,0,0,0,0, ,753.7,111.4,638.3,0,-0.3,-1.6,25,755.178,110.555,638.006,-0.346292,-0.202693,-1.70595,
