UTC_Time,Vin,TC1,TC2,Rh1,Vh1,Ah1,Acp1,Dty1,Err1,Rh2,Vh2,Ah2,Acp2,Dty2,Err2,Accel_x,Accel_y,Accel_z,gyro_x,gyro_y,gyro_z,Temp_c,Accel_x_h,Accel_y_h,Accel_z_h,gyro_x_h,gyro_y_h,gyro_z_h,
2026_06_15_18_46_02.007,3.808,25.2,0,0.755,0,0,0,0.038, ,0,0,0,0,0, ,991.2,8.6,31.3,-0.6,-0.3,-1.5,25,991.2,8.6,31.3,-0.6,-0.3,-1.5,
2026_06_15_18_46_02.023,3.808,25.2,0,0.754,0,0,0,0.039, ,0,0,0,0,0, ,990.7,12.4,34.6,-0.7,-0.3,-1.3,25,991.185,8.71578,31.4005,-0.603047,-0.3,-1.49391,
2026_06_15_18_46_02.043,3.808,25.3,0,0.755,0,0,0,0.039, ,0,0,0,0,0, ,991.8,9.6,35.1,-0.6,-0.6,-1.1,25,991.189,8.85498,31.6107,-0.605908,-0.309141,-1.476,
2026_06_15_18_46_02.057,3.808,25.2,0,0.756,0,0,0,0.039, ,0,0,0,0,0, ,993.4,7.5,33.5,-0.6,-0.8,-1.2,25,991.275,8.83639,31.7746,-0.605548,-0.332959,-1.45613,
2026_06_15_18_46_02.074,3.808,25.3,0,0.756,0,0,0,0.04, ,0,0,0,0,0, ,992.1,6.9,31.8,-0.6,-0.4,-1.7,25,991.365,8.73667,31.828,-0.60521,-0.349231,-1.45576,
2026_06_15_18_46_02.106,3.808,25.3,0,0.755,0,0,0,0.04, ,0,0,0,0,0, ,991.6,5.8,29.6,-0.5,-0.1,-2,25,991.394,8.59124,31.7592,-0.601846,-0.343185,-1.47978,
2026_06_15_18_46_02.124,3.808,25.3,0,0.757,0,0,0,0.04, ,0,0,0,0,0, ,991.5,8.3,32.7,-0.6,0.1,-2.5,25,991.404,8.49732,31.7221,-0.598686,-0.322272,-1.52672,
2026_06_15_18_46_02.149,3.808,25.3,0,0.756,0,0,0,0.041, ,0,0,0,0,0, ,991.3,11.8,36.6,-0.6,0.1,-2.3,25,991.403,8.59193,31.9005,-0.598766,-0.29654,-1.57993,
2026_06_15_18_46_02.168,3.808,25.3,0,0.756,0,0,0,0.041, ,0,0,0,0,0, ,993.2,10,36.3,-0.6,-0.1,-2,25,991.455,8.73258,32.1778,-0.598842,-0.278469,-1.61467,
2026_06_15_18_46_02.188,3.808,25.3,0,0.756,0,0,0,0.042, ,0,0,0,0,0, ,990.7,11.1,34.3,-0.6,-0.1,-2,25,991.485,8.84333,32.368,-0.598912,-0.267594,-1.63815,
2026_06_15_18_46_02.208,3.808,25.3,0,0.757,0,0,0,0.042, ,0,0,0,0,0, ,991.5,11.4,34.3,-0.6,-0.1,-1.9,25,991.462,8.98999,32.4857,-0.598978,-0.257381,-1.65716,
2026_06_15_18_46_02.228,3.808,25.3,0,0.756,0,0,0,0.043, ,0,0,0,0,0, ,990.9,10.9,34.5,-0.9,-0.1,-1.8,25,991.446,9.12161,32.6024,-0.608181,-0.247791,-1.66891,
2026_06_15_18_46_02.248,3.808,25.3,0,0.756,0,0,0,0.043, ,0,0,0,0,0, ,991.9,11.3,36.6,-0.9,-0.1,-1.8,25,991.443,9.24217,32.782,-0.625964,-0.238785,-1.6769,
2026_06_15_18_46_02.268,3.808,25.3,0,0.755,0,0,0,0.044, ,0,0,0,0,0, ,992.9,11.3,36,-0.6,-0.6,-1.6,25,991.501,9.36757,32.9964,-0.633522,-0.245562,-1.6783,
2026_06_15_18_46_02.287,3.808,25.4,0,0.756,0,0,0,0.044, ,0,0,0,0,0, ,991.3,11.2,33.8,-0.6,-0.5,-1.6,25,991.538,9.48228,33.1124,-0.63148,-0.264113,-1.67353,
2026_06_15_18_46_02.306,3.808,25.4,0,0.755,0,0,0,0.044, ,0,0,0,0,0, ,992.9,11.4,33.2,-0.6,-0.5,-1.4,25,991.572,9.59305,33.136,-0.629561,-0.278488,-1.66296,
2026_06_15_18_46_02.326,3.808,25.4,0,0.757,0,0,0,0.044, ,0,0,0,0,0, ,991.9,10.3,32.4,-0.7,-0.6,-1.2,25,991.623,9.66964,33.1155,-0.630807,-0.295033,-1.64084,
2026_06_15_18_46_02.346,3.808,25.4,0,0.755,0,0,0,0.045, ,0,0,0,0,0, ,993,7.4,33.4,-0.8,-0.5,-1.4,25,991.673,9.6197,33.1024,-0.63807,-0.31057,-1.62007,
2026_06_15_18_46_02.366,3.808,25.4,0,0.755,0,0,0,0.045, ,0,0,0,0,0, ,993.7,7.8,34.3,-0.6,-0.4,-1.7,25,991.775,9.49662,33.148,-0.641844,-0.319067,-1.6158,
2026_06_15_18_46_02.385,3.808,25.5,0,0.756,0,0,0,0.046, ,0,0,0,0,0, ,992.1,10.1,34.5,-0.7,-0.3,-1.7,25,991.844,9.46331,33.2243,-0.642341,-0.320952,-1.62093,
2026_06_15_18_46_02.411,3.808,25.5,0,0.756,0,0,0,0.045, ,0,0,0,0,0, ,991.4,10.7,34.1,-0.6,-0.4,-1.6,25,991.838,9.52039,33.2898,-0.642808,-0.322722,-1.6227,
2026_06_15_18_46_02.425,3.808,25.5,0,0.755,0,0,0,0.046, ,0,0,0,0,0, ,992.4,12.8,35.6,-0.6,-0.5,-1.4,25,991.842,9.65626,33.3849,-0.640199,-0.330478,-1.61522,
2026_06_15_18_46_02.445,3.808,25.5,0,0.757,0,0,0,0.046, ,0,0,0,0,0, ,990.9,10.6,32.5,-0.7,-0.6,-1.2,25,991.83,9.7808,33.4254,-0.640796,-0.343855,-1.59602,
2026_06_15_18_46_02.465,3.808,25.6,0,0.757,0,0,0,0.047, ,0,0,0,0,0, ,992.7,10,33.4,-0.7,-0.3,-1.7,25,991.828,9.81244,33.3964,-0.644404,-0.350323,-1.58712,
2026_06_15_18_46_02.484,3.808,25.6,0,0.756,0,0,0,0.046, ,0,0,0,0,0, ,990.9,9.3,35.5,-0.6,-0.4,-1.7,25,991.827,9.80254,33.4606,-0.644745,-0.350303,-1.594,
2026_06_15_18_46_02.504,3.808,25.6,0,0.756,0,0,0,0.047, ,0,0,0,0,0, ,991.8,8.7,35.4,-0.5,-0.4,-1.8,25,991.797,9.75363,33.5819,-0.638972,-0.353332,-1.6035,
2026_06_15_18_46_02.524,3.808,25.6,0,0.755,0,0,0,0.047, ,0,0,0,0,0, ,992.7,11.9,34.6,-0.5,-0.4,-1.8,25,991.825,9.78693,33.6683,-0.630503,-0.356176,-1.61548,
2026_06_15_18_46_02.544,3.808,25.9,0,0.754,0,0,0,0.048, ,0,0,0,0,0, ,992.5,9.6,32.4,-0.6,-0.2,-1.7,25,991.872,9.84562,33.658,-0.625597,-0.352752,-1.62367,
2026_06_15_18_46_02.570,3.808,25.7,0,0.756,0,0,0,0.046, ,0,0,0,0,0, ,992.1,12,34,-0.6,-0.1,-1.7,25,991.898,9.90377,33.6301,-0.624038,-0.340397,-1.62833,
2026_06_15_18_46_02.583,3.808,25.7,0,0.756,0,0,0,0.048, ,0,0,0,0,0, ,991.5,10.1,36.6,-0.5,-0.3,-1.6,25,991.892,9.97362,33.7319,-0.619526,-0.331842,-1.62965,
2026_06_15_18_46_02.603,3.808,25.7,0,0.756,0,0,0,0.048, ,0,0,0,0,0, ,992.3,10.9,34,-0.6,-0.5,-1.4,25,991.893,10.0057,33.8274,-0.615289,-0.335995,-1.62175,
2026_06_15_18_46_02.623,3.808,25.7,0,0.757,0,0,0,0.049, ,0,0,0,0,0, ,990.6,10.4,33.6,-0.5,-0.7,-1.3,25,991.866,10.045,33.8258,-0.611311,-0.352083,-1.60519,
2026_06_15_18_46_02.643,3.808,25.7,0,0.756,0,0,0,0.049, ,0,0,0,0,0, ,989.8,11.2,32.1,-0.6,-0.5,-1.3,25,991.764,10.091,33.7663,-0.607574,-0.36719,-1.58659,
2026_06_15_18_46_02.662,3.808,26,0,0.757,0,0,0,0.049, ,0,0,0,0,0, ,990.7,9.8,34.1,-0.6,-0.6,-1.2,25,991.672,10.1159,33.7257,-0.607113,-0.37833,-1.56608,
2026_06_15_18_46_02.682,3.808,26,0,0.756,0,0,0,0.047, ,0,0,0,0,0, ,990.8,7.8,35.1,-0.5,-0.7,-1.4,25,991.616,10.0357,33.779,-0.603633,-0.394885,-1.54986,
2026_06_15_18_46_02.702,3.808,26,0,0.757,0,0,0,0.048, ,0,0,0,0,0, ,992.4,7.9,32.2,-0.5,-0.6,-1.6,25,991.615,9.90252,33.7711,-0.597317,-0.410431,-1.54683,
2026_06_15_18_46_02.722,3.808,26.1,0,0.756,0,0,0,0.048, ,0,0,0,0,0, ,993,5.7,30.6,-0.5,-0.1,-2.1,25,991.681,9.71346,33.6266,-0.591387,-0.406749,-1.5653,
2026_06_15_18_46_02.742,3.808,26,0,0.755,0,0,0,0.048, ,0,0,0,0,0, ,992.5,11.2,33.8,-0.6,0,-2.3,25,991.746,9.63646,33.5397,-0.588865,-0.385009,-1.60398,
2026_06_15_18_46_02.762,3.808,26.2,0,0.757,0,0,0,0.049, ,0,0,0,0,0, ,992.3,10.9,33.9,-0.6,0,-2,25,991.786,9.7226,33.5586,-0.589544,-0.361548,-1.63725,
2026_06_15_18_46_02.782,3.808,26.1,0,0.757,0,0,0,0.048, ,0,0,0,0,0, ,991.9,11.2,34.1,-0.5,-0.2,-2,25,991.805,9.80349,33.5855,-0.587134,-0.34561,-1.65936,
2026_06_15_18_46_02.801,3.808,25.9,0,0.757,0,0,0,0.049, ,0,0,0,0,0, ,990.7,12.2,35.6,-0.5,-0.6,-1.6,25,991.774,9.91906,33.6626,-0.581824,-0.348924,-1.66793,
2026_06_15_18_46_02.821,3.843,25.9,0,0.757,3.889,5.137,1.01,0.051, ,0,0,0,0,0, ,991.2,13.3,35.2,-0.6,-0.6,-1.3,25,991.724,10.0916,33.7684,-0.579885,-0.364224,-1.65465,
2026_06_15_18_46_02.841,3.841,26.1,0,0.756,3.889,5.144,1.02,0.051, ,0,0,0,0,0, ,991.4,13.4,37.2,-0.6,-0.9,-0.6,25,991.698,10.2901,33.9166,-0.581111,-0.387732,-1.61171,
2026_06_15_18_46_02.861,3.84,26.1,0,0.757,3.894,5.143,1,0.05, ,0,0,0,0,0, ,991.8,9.6,33.4,-0.7,-1.3,-0.2,25,991.692,10.3639,34.0009,-0.585309,-0.431136,-1.53787,
2026_06_15_18_46_02.881,3.841,26.1,0,0.756,3.886,5.14,1.01,0.051, ,0,0,0,0,0, ,992.4,4.5,30.3,-0.7,-0.8,-0.6,25,991.717,10.1619,33.8698,-0.592298,-0.468848,-1.46853,
2026_06_15_18_46_02.907,3.841,26.2,0,0.757,3.893,5.142,1.02,0.051, ,0,0,0,0,0, ,992.7,5.3,30.8,-0.7,-0.4,-1.5,25,991.768,9.84127,33.6675,-0.598861,-0.47684,-1.44303,
2026_06_15_18_46_02.920,3.843,26.4,0,0.757,3.89,5.138,1.01,0.051, ,0,0,0,0,0, ,992.4,6.9,33,-0.6,-0.1,-1.8,25,991.816,9.61329,33.5598,-0.601977,-0.463017,-1.45564,
2026_06_15_18_46_02.940,3.843,26.3,0,0.756,0,0,0,0.049, ,0,0,0,0,0, ,992,9.3,34.9,-0.5,-0.2,-2,25,991.839,9.52107,33.5836,-0.59881,-0.443943,-1.48272,
2026_06_15_18_46_02.960,3.843,26.3,0,0.756,3.89,5.145,1,0.05, ,0,0,0,0,0, ,992.1,5.6,31.6,-0.5,0,-2.4,25,991.852,9.39486,33.5633,-0.592789,-0.422984,-1.52643,
2026_06_15_18_46_02.979,3.841,26.3,0,0.757,3.895,5.145,1.02,0.051, ,0,0,0,0,0, ,991.5,7.5,32.4,-0.5,0.4,-2.9,25,991.849,9.22151,33.468,-0.587134,-0.385021,-1.59489,
2026_06_15_18_46_02.999,3.84,26.3,0,0.756,3.887,5.141,1.01,0.051, ,0,0,0,0,0, ,992.3,15,35.2,-0.6,0.2,-2.5,25,991.852,9.34512,33.4882,-0.584871,-0.343277,-1.66224,
2026_06_15_18_46_03.019,3.841,26.4,0,0.756,3.888,5.142,1.03,0.052, ,0,0,0,0,0, ,990.8,12,38.8,-0.7,0,-2.1,25,991.833,9.59831,33.7022,-0.58884,-0.316265,-1.7011,
2026_06_15_18_46_03.039,3.841,26.4,0,0.757,3.893,5.142,1.02,0.051, ,0,0,0,0,0, ,992.9,11.3,34.6,-0.6,-0.2,-1.7,25,991.834,9.72333,33.8849,-0.592567,-0.303086,-1.71322,
2026_06_15_18_46_03.059,3.842,26.4,0,0.756,3.887,5.141,1.01,0.051, ,0,0,0,0,0, ,991.5,11.5,34.7,-0.7,-0.6,-1.4,25,991.857,9.8255,33.9315,-0.596067,-0.308992,-1.70327,
2026_06_15_18_46_03.084,3.841,26.5,0,0.756,3.89,5.145,1.04,0.052, ,0,0,0,0,0, ,990.9,9.8,35,-0.7,-0.7,-1.2,25,991.817,9.87575,33.9875,-0.6024,-0.329772,-1.6787,
2026_06_15_18_46_03.099,3.843,26.5,0,0.757,3.893,5.142,1.02,0.051, ,0,0,0,0,0, ,991.9,9.7,33.5,-0.6,-0.5,-1.2,25,991.791,9.86808,34.0035,-0.605301,-0.346239,-1.64953,
2026_06_15_18_46_03.118,3.841,26.5,0,0.758,3.894,5.137,1.04,0.052, ,0,0,0,0,0, ,991.9,10.9,35.1,-0.7,-0.5,-1.2,25,991.798,9.8944,34.0216,-0.608025,-0.355609,-1.62214,
2026_06_15_18_46_03.138,3.843,26.5,0,0.759,3.892,5.127,1.03,0.052, ,0,0,0,0,0, ,992.6,7,33.4,-0.7,-0.7,-1.3,25,991.825,9.83685,34.0355,-0.613629,-0.370502,-1.59946,
2026_06_15_18_46_03.157,3.841,26.5,0,0.758,3.889,5.13,1.03,0.052, ,0,0,0,0,0, ,992.4,7.8,31.8,-0.6,-0.3,-1.7,25,991.867,9.68836,33.948,-0.615846,-0.378393,-1.5934,
2026_06_15_18_46_03.177,3.84,26.6,0,0.756,3.883,5.136,1.05,0.053, ,0,0,0,0,0, ,992.1,10.9,34.9,-0.6,-0.3,-1.8,25,991.89,9.66774,33.9116,-0.61488,-0.373616,-1.60294,
2026_06_15_18_46_03.197,3.842,26.7,0,0.758,3.893,5.135,1.03,0.052, ,0,0,0,0,0, ,990.8,10.2,35.6,-0.6,-0.3,-1.8,25,991.863,9.7215,33.9931,-0.613973,-0.36913,-1.61495,
2026_06_15_18_46_03.217,3.841,26.7,0,0.756,3.885,5.138,1.03,0.052, ,0,0,0,0,0, ,992.7,12.2,36.4,-0.6,-0.4,-1.7,25,991.856,9.8116,34.1154,-0.613122,-0.367964,-1.62318,
2026_06_15_18_46_03.236,3.84,26.7,0,0.756,3.889,5.144,1.04,0.052, ,0,0,0,0,0, ,991.9,10.4,33.9,-0.6,-0.5,-1.5,25,991.883,9.9023,34.1785,-0.612322,-0.372963,-1.62177,
2026_06_15_18_46_03.256,3.841,26.8,0,0.756,3.887,5.141,1.05,0.053, ,0,0,0,0,0, ,991.4,11.2,34.9,-0.6,-0.5,-1.4,25,991.869,9.957,34.192,-0.611571,-0.380704,-1.6113,
2026_06_15_18_46_03.277,3.842,26.8,0,0.759,3.897,5.134,1.04,0.052, ,0,0,0,0,0, ,990.4,9.7,33,-0.6,-0.5,-1.4,25,991.81,9.98704,34.1772,-0.610866,-0.387974,-1.59842,
2026_06_15_18_46_03.297,3.841,26.7,0,0.759,3.89,5.125,1.03,0.052, ,0,0,0,0,0, ,992.1,9.5,30.5,-0.6,-0.4,-1.6,25,991.776,9.96346,34.0293,-0.610204,-0.391754,-1.59243,
2026_06_15_18_46_03.316,3.839,26.8,0,0.758,3.885,5.125,1.07,0.054, ,0,0,0,0,0, ,990.8,9.8,32.7,-0.6,-0.2,-1.8,25,991.756,9.94436,33.8813,-0.609582,-0.386163,-1.59898,
2026_06_15_18_46_03.336,3.841,26.9,0,0.758,3.886,5.126,1.05,0.053, ,0,0,0,0,0, ,991.3,11.1,34.3,-0.6,-0.3,-1.8,25,991.713,9.97517,33.858,-0.608998,-0.377865,-1.61123,
2026_06_15_18_46_03.356,3.84,26.9,0,0.758,3.888,5.129,1.05,0.053, ,0,0,0,0,0, ,991.5,12.5,34.1,-0.6,-0.4,-1.5,25,991.694,10.0864,33.8789,-0.60845,-0.376167,-1.61359,
2026_06_15_18_46_03.376,3.843,27,0,0.758,3.887,5.127,1.05,0.053, ,0,0,0,0,0, ,991.9,9.5,34,-0.7,-0.4,-1.4,25,991.694,10.142,33.8893,-0.610982,-0.377619,-1.60362,
2026_06_15_18_46_03.395,3.841,27,0,0.755,3.883,5.143,1.03,0.052, ,0,0,0,0,0, ,991.6,8.6,31.7,-0.7,-0.4,-1.3,25,991.698,10.0755,33.826,-0.616407,-0.378983,-1.58817,
2026_06_15_18_46_03.415,3.84,27,0,0.758,3.896,5.139,1.06,0.053, ,0,0,0,0,0, ,992.1,8.6,33.4,-0.8,-0.2,-1.4,25,991.707,9.98558,33.7482,-0.624547,-0.37417,-1.57366,
2026_06_15_18_46_03.435,3.842,27,0,0.756,3.882,5.134,1.05,0.053, ,0,0,0,0,0, ,992.6,10.2,35.1,-0.7,-0.3,-1.5,25,991.746,9.9499,33.7788,-0.632192,-0.366604,-1.56612,
2026_06_15_18_46_03.454,3.841,27.1,0,0.757,3.892,5.141,1.06,0.053, ,0,0,0,0,0, ,993.4,9.1,34.5,-0.6,-0.5,-1.5,25,991.823,9.93163,33.841,-0.633277,-0.368639,-1.56209,
2026_06_15_18_46_03.474,3.841,27.1,0,0.759,3.893,5.129,1.05,0.053, ,0,0,0,0,0, ,991,7.9,30.6,-0.6,-0.3,-1.8,25,991.846,9.84439,33.7624,-0.631249,-0.37055,-1.56745,
2026_06_15_18_46_03.494,3.843,27.1,0,0.76,3.891,5.119,1.05,0.053, ,0,0,0,0,0, ,993.5,10.2,35.1,-0.6,-0.1,-1.9,25,991.87,9.79598,33.7068,-0.629345,-0.360157,-1.58467,
2026_06_15_18_46_03.514,3.842,27.2,0,0.758,3.885,5.125,1.05,0.053, ,0,0,0,0,0, ,989.9,12.9,38.6,-0.7,-0.3,-1.6,25,991.86,9.90286,33.8983,-0.630604,-0.350397,-1.59474,
2026_06_15_18_46_03.533,3.841,27.1,0,0.76,3.894,5.123,1.05,0.053, ,0,0,0,0,0, ,991.6,26.8,39.3,-6.4,-1,-0.9,25,991.792,10.509,34.2061,-0.808505,-0.368654,-1.57373,
2026_06_15_18_46_03.554,3.843,27.2,0,0.76,3.887,5.114,1.07,0.054, ,0,0,0,0,0, ,991.8,3.9,27.9,-10.5,-1.4,-1.1,25,991.787,10.804,34.1692,-1.27416,-0.419314,-1.53877,
2026_06_15_18_46_03.573,3.841,27.3,0,0.759,3.888,5.122,1.05,0.053, ,0,0,0,0,0, ,993.8,-5.1,21.2,-5.8,0,-2.4,25,991.848,10.1091,33.583,-1.69315,-0.436419,-1.55164,
2026_06_15_18_46_03.593,3.84,27.3,0,0.758,3.886,5.126,1.05,0.053, ,0,0,0,0,0, ,989.6,19.6,42.7,-3.3,-0.5,-2.1,25,991.839,9.93486,33.4835,-1.86724,-0.425059,-1.5942,
2026_06_15_18_46_03.613,3.841,27.3,0,0.759,3.89,5.125,1.05,0.053, ,0,0,0,0,0, ,990.9,27.3,48.3,-6.7,-2.7,0.3,25,991.742,10.7584,34.2158,-2.05815,-0.496657,-1.5519,
2026_06_15_18_46_03.634,3.841,27.5,0,0.758,3.886,5.126,1.05,0.053, ,0,0,0,0,0, ,992.6,3.4,29.5,-4.7,-2.9,1.5,25,991.743,11.0382,34.5012,-2.28007,-0.637017,-1.40248,
2026_06_15_18_46_03.652,3.841,27.5,0,0.758,3.889,5.13,1.03,0.052, ,0,0,0,0,0, ,992,24.1,49.6,-6.3,-2.6,0.9,25,991.777,11.2035,34.8089,-2.47629,-0.765777,-1.2439,
2026_06_15_18_46_03.672,3.843,27.5,0,0.758,3.889,5.13,1.03,0.052, ,0,0,0,0,0, ,985.4,62.3,90.3,-4.6,-3,-1.5,25,991.589,13.1533,36.9503,-2.6575,-0.889737,-1.18638,
2026_06_15_18_46_03.692,3.842,27.5,0,0.758,3.89,5.131,1.05,0.053, ,0,0,0,0,0, ,1011.4,53.1,183.4,-12.9,-5.7,-23.6,25,992.004,15.8678,43.0379,-3.02876,-1.1006,-1.87885,
2026_06_15_18_46_03.711,3.841,27.6,0,0.76,3.894,5.123,1.05,0.053, ,0,0,0,0,0, ,1151.4,28.8,44.1,-10.3,-24.8,-43.2,25,997.452,17.3963,47.3469,-3.55107,-1.96283,-3.79967,
2026_06_15_18_46_03.731,3.843,27.6,0,0.758,3.884,5.124,1.03,0.052, ,0,0,0,0,0, ,1308.5,-3.9,-52.8,-5.1,-14.6,-19.5,25,1011.62,17.0949,44.1967,-3.80389,-3.04368,-5.47852,
2026_06_15_18_46_03.751,3.841,27.7,0,0.758,3.891,5.133,1.03,0.052, ,0,0,0,0,0, ,1326.9,6.8,-45.2,0.8,12.1,7.4,25,1030.27,16.1415,38.5175,-3.70311,-2.93438,-5.51334,
2026_06_15_18_46_03.771,3.84,27.8,0,0.758,3.889,5.13,1.03,0.052, ,0,0,0,0,0, ,1228.7,24,-14.2,4.4,24.6,18.2,25,1045.36,16.0963,34.3605,-3.31901,-1.63737,-4.39737,
2026_06_15_18_46_03.790,3.842,27.8,0,0.756,3.884,5.137,1.01,0.051, ,0,0,0,0,0, ,1193.1,26.6,-25.7,4.3,23.6,19,25,1055.44,16.6572,31.0509,-2.85168,-0.0689948,-2.99597,
2026_06_15_18_46_03.813,3.84,27.8,0,0.76,3.901,5.132,1.04,0.052, ,0,0,0,0,0, ,1168.8,22.5,-24.2,4.9,14.8,18.1,25,1063.09,17.1381,27.6384,-2.3976,1.10521,-1.68301,
2026_06_15_18_46_03.830,3.841,27.8,0,0.758,3.883,5.122,1.03,0.052, ,0,0,0,0,0, ,1182.4,18.6,28,4.8,2.8,18.7,25,1069.95,17.3461,26.07,-1.95595,1.57411,-0.459203,
2026_06_15_18_46_03.850,3.843,27.9,0,0.758,3.889,5.13,1.03,0.052, ,0,0,0,0,0, ,1225.7,-8.9,46.5,0.2,3.3,23.7,25,1078.12,16.5846,26.7512,-1.68441,1.66405,0.860654,
2026_06_15_18_46_03.870,3.841,28,0,0.758,3.892,5.134,1.01,0.051, ,0,0,0,0,0, ,1203.3,-30.3,35.2,-2.5,12.2,30.5,25,1086.43,14.3796,27.6104,-1.65185,2.03491,2.45961,
2026_06_15_18_46_03.890,3.84,27.9,0,0.758,3.89,5.131,1.01,0.051, ,0,0,0,0,0, ,1125,-27.2,42.9,-5,17.7,32,25,1091.17,11.7514,28.3075,-1.7797,2.82192,4.21403,
2026_06_15_18_46_03.909,3.843,27.9,0,0.758,3.888,5.129,1.03,0.052, ,0,0,0,0,0, ,1074,-27.4,28.4,-9.8,12.1,29.3,25,1091.67,9.37167,28.7549,-2.12219,3.55793,5.82497,
2026_06_15_18_46_03.929,3.841,28,0,0.758,3.891,5.133,1.03,0.052, ,0,0,0,0,0, ,1058.4,-53.2,16.8,-9.6,6.6,23.7,25,1090.12,6.34481,28.3799,-2.58396,3.91089,7.08485,
2026_06_15_18_46_03.949,3.84,28.1,0,0.759,3.893,5.129,1.01,0.051, ,0,0,0,0,0, ,1059.5,-76.5,34.9,-7.1,0.6,19.8,25,1088.22,2.00637,28.2257,-2.93533,3.89194,7.97851,
2026_06_15_18_46_03.969,3.841,28,0,0.759,3.889,5.123,1.01,0.051, ,0,0,0,0,0, ,1048.2,-77.1,50.2,-8.6,-6.9,19,25,1086.13,-2.79589,29.0986,-3.23482,3.46282,8.67451,
2026_06_15_18_46_03.989,3.84,28.1,0,0.758,3.887,5.127,1.03,0.052, ,0,0,0,0,0, ,1034.1,-72.6,55.7,-13.8,-9.1,17.3,25,1083.39,-7.18669,30.552,-3.7202,2.76431,9.25192,
2026_06_15_18_46_04.010,3.843,28.1,0,0.759,3.892,5.127,1.01,0.051, ,0,0,0,0,0, ,1028.9,-80.2,60.5,-17.9,1.9,12.9,25,1080.22,-11.4044,32.2307,-4.45936,2.37648,9.60829,
2026_06_15_18_46_04.028,3.84,28.2,0,0.758,3.89,5.131,1.01,0.051, ,0,0,0,0,0, ,1020.3,-98.5,51.7,-20,3.5,9.7,25,1076.84,-16.1542,33.6853,-5.34238,2.3962,9.71138,
2026_06_15_18_46_04.049,3.842,28.2,0,0.759,3.892,5.127,1.01,0.051, ,0,0,0,0,0, ,1008.7,-110.2,6.9,-21.4,-11.2,23.6,25,1073.04,-21.5286,33.418,-6.27823,2.01557,10.1342,
2026_06_15_18_46_04.068,3.841,28.2,0,0.76,3.894,5.123,1.01,0.051, ,0,0,0,0,0, ,1048.9,-91.7,-40.4,-11.3,-16.5,8.3,25,1070.34,-26.3684,30.3609,-6.89198,1.04876,10.4886,
2026_06_15_18_46_04.088,3.84,28.2,0,0.758,3.885,5.125,1.01,0.051, ,0,0,0,0,0, ,1037.3,-94.2,17.2,-8.3,-14.6,12.9,25,1068.68,-30.4257,27.8039,-7.06919,0.037274,10.4954,
2026_06_15_18_46_04.108,3.843,28.3,0,0.759,3.892,5.127,1.01,0.051, ,0,0,0,0,0, ,1041.8,-81.6,49.8,-6.7,-1.4,16.6,25,1066.91,-33.928,28.151,-7.09544,-0.452497,10.7547,
2026_06_15_18_46_04.128,3.84,28.4,0,0.759,3.892,5.127,1.01,0.051, ,0,0,0,0,0, ,1033.8,-80.3,44.3,-2.5,15.1,12.6,25,1065.13,-36.7934,29.3027,-6.94338,-0.00750148,10.989,
2026_06_15_18_46_04.147,3.843,28.4,0,0.76,3.893,5.122,0.99,0.05, ,0,0,0,0,0, ,979.3,-73.2,68.3,-5.7,18.1,15.3,25,1061.56,-39.2283,30.9478,-6.77011,1.00452,11.1694,
2026_06_15_18_46_04.167,3.841,28.4,0,0.759,3.891,5.126,0.99,0.05, ,0,0,0,0,0, ,942.3,-85.6,66.2,-7.9,-1.1,17.3,25,1055.42,-41.6762,33.16,-6.77193,1.46127,11.4821,
2026_06_15_18_46_04.187,3.84,28.4,0,0.759,3.891,5.126,0.99,0.05, ,0,0,0,0,0, ,915,-79.5,93.2,-5,-12.7,14.3,25,1047.7,-44.167,35.996,-6.75231,0.951759,11.7452,
2026_06_15_18_46_04.206,3.843,28.5,0,0.759,3.889,5.123,1.01,0.051, ,0,0,0,0,0, ,911.9,-72.9,137.3,-7.2,-8.3,8.2,25,1039.52,-46.119,40.8256,-6.71256,0.253917,11.715,
2026_06_15_18_46_04.226,3.84,28.5,0,0.759,3.893,5.129,0.99,0.05, ,0,0,0,0,0, ,908.6,-95,118.1,-12.4,-6.4,8.2,25,1031.64,-48.4243,46.1195,-6.9007,-0.209446,11.5008,
2026_06_15_18_46_04.246,3.841,28.5,0,0.756,3.883,5.136,0.99,0.05, ,0,0,0,0,0, ,892.3,-115.9,92.8,-9.7,-2.2,4,25,1023.64,-51.8993,49.7349,-7.15355,-0.458714,11.1717,
2026_06_15_18_46_04.266,3.84,28.5,0,0.759,3.899,5.137,1,0.05, ,0,0,0,0,0, ,906.4,-115.7,81.4,-12.9,-6.3,2.2,25,1016.07,-55.7933,52.0119,-7.40622,-0.689746,10.6798,
2026_06_15_18_46_04.286,3.843,28.5,0,0.759,3.89,5.125,0.99,0.05, ,0,0,0,0,0, ,944.5,-127.3,62.1,-12.3,-2.1,4,25,1010.55,-59.7973,53.2147,-7.72272,-0.903652,10.2179,
2026_06_15_18_46_04.306,3.841,28.6,0,0.759,3.893,5.129,0.99,0.05, ,0,0,0,0,0, ,913.4,-135.4,52.3,-9.8,10,3.8,25,1005.58,-64.1575,53.4575,-7.92548,-0.607883,9.83294,
2026_06_15_18_46_04.325,3.84,28.7,0,0.759,3.891,5.126,0.99,0.05, ,0,0,0,0,0, ,888.4,-138.1,29.2,-7.9,9.1,4,25,999.197,-68.5811,52.6832,-7.98181,0.0111134,9.4714,
2026_06_15_18_46_04.344,3.84,28.7,0,0.759,0,0,0,0.049, ,0,0,0,0,0, ,886.8,-129.7,24.6,-7.7,-1.3,4.7,25,992.397,-72.5615,51.112,-7.97074,0.248092,9.15931,
2026_06_15_18_46_04.365,3.84,28.8,0,0.759,0,0,0,0.049, ,0,0,0,0,0, ,903.8,-138,24.2,-6.3,-3.3,3.9,25,986.48,-76.2963,49.4842,-7.91158,0.092818,8.8632,
2026_06_15_18_46_04.385,3.84,28.8,0,0.759,0,0,0,0.049, ,0,0,0,0,0, ,912.4,-141.3,44.1,-5.5,-4.5,5,25,981.704,-80.1569,48.5498,-7.789,-0.150494,8.59427,
2026_06_15_18_46_04.405,3.84,28.8,0,0.76,0,0,0,0.049, ,0,0,0,0,0, ,924.5,-141.6,44.1,-5.8,-13.2,7.9,25,977.849,-83.8919,48.2786,-7.65865,-0.68062,8.4636,
2026_06_15_18_46_04.425,3.84,28.8,0,0.759,0,0,0,0.049, ,0,0,0,0,0, ,907.7,-128.4,52.3,-4.4,-17.3,8.1,25,974.086,-87.0063,48.2738,-7.50274,-1.56844,8.43535,
2026_06_15_18_46_04.444,3.84,28.9,0,0.759,0,0,0,0.049, ,0,0,0,0,0, ,896.9,-128.9,62,-3.6,-10.9,3.7,25,969.712,-89.544,48.8147,-7.28929,-2.33208,8.28086,
2026_06_15_18_46_04.464,3.84,28.9,0,0.759,0,0,0,0.048, ,0,0,0,0,0, ,907.4,-135.9,68.4,-4.3,-10.4,1.4,25,965.595,-92.1555,49.8132,-7.0858,-2.83896,7.93163,
2026_06_15_18_46_04.485,3.84,28.9,0,0.759,0,0,0,0.048, ,0,0,0,0,0, ,944.9,-141.8,51.7,-5.7,-12.3,1,25,963.191,-95.001,50.437,-6.9587,-3.3576,7.52142,
2026_06_15_18_46_04.503,3.84,28.9,0,0.761,0,0,0,0.048, ,0,0,0,0,0, ,978.2,-142.2,23.5,-2.6,-21.3,6.5,25,963.091,-97.865,49.6548,-6.78754,-4.17674,7.2916,
2026_06_15_18_46_04.523,3.84,29.1,0,0.76,0,0,0,0.049, ,0,0,0,0,0, ,956.7,-138.3,7.3,0.9,-27.3,16.8,25,963.357,-100.448,47.5674,-6.42572,-5.40301,7.55719,
2026_06_15_18_46_04.543,3.84,28.9,0,0.759,0,0,0,0.047, ,0,0,0,0,0, ,889.7,-144.2,54.4,0.4,-26.9,15.9,25,960.91,-102.934,46.5486,-5.99455,-6.72517,8.093,
2026_06_15_18_46_04.563,3.84,29.3,0,0.759,0,0,0,0.049, ,0,0,0,0,0, ,884.1,-149.1,56.3,-2.9,-18.9,9.8,25,956.4,-105.598,47.085,-5.70543,-7.71082,8.38288,
2026_06_15_18_46_04.582,3.84,29.1,0,0.76,0,0,0,0.046, ,0,0,0,0,0, ,878.7,-157.5,33.4,-5.2,-10.3,4.9,25,951.829,-108.505,46.9488,-5.60455,-8.13063,8.31994,
2026_06_15_18_46_04.602,3.84,29.3,0,0.759,0,0,0,0.047, ,0,0,0,0,0, ,859.6,-172.1,-15.7,-4.8,-11.8,5.1,25,946.791,-111.935,44.6271,-5.56771,-8.30853,8.11763,
2026_06_15_18_46_04.622,3.84,29.3,0,0.76,0,0,0,0.046, ,0,0,0,0,0, ,849.7,-171.8,-3.2,-5.4,-25.2,5.3,25,941.176,-115.593,41.3318,-5.53921,-8.92957,7.93984,
2026_06_15_18_46_04.642,3.84,29.3,0,0.76,0,0,0,0.046, ,0,0,0,0,0, ,886.8,-174.9,5.8,-9,-23.4,3.1,25,936.732,-119.112,38.8924,-5.64041,-9.86621,7.71194,
2026_06_15_18_46_04.662,3.84,29.3,0,0.759,0,0,0,0.046, ,0,0,0,0,0, ,893.1,-179.3,-11.3,-10.2,-8.2,3,25,933.882,-122.646,36.3548,-5.8817,-10.2278,7.42786,
2026_06_15_18_46_04.682,3.84,29.4,0,0.76,0,0,0,0.046, ,0,0,0,0,0, ,824.4,-188.7,-43.9,-9.7,-2,0.7,25,929.303,-126.385,32.4576,-6.12961,-9.91532,7.08795,
2026_06_15_18_46_04.702,3.84,29.3,0,0.76,0,0,0,0.045, ,0,0,0,0,0, ,792.1,-197.1,-78.3,-9,-9.2,-3,25,921.927,-130.438,26.7564,-6.32585,-9.65236,6.58595,
2026_06_15_18_46_04.721,3.84,29.5,0,0.76,0,0,0,0.046, ,0,0,0,0,0, ,823.2,-177,-67.3,-9.2,-17.8,-7.3,25,914.963,-133.888,20.6897,-6.4949,-9.88682,5.87079,
2026_06_15_18_46_04.741,3.84,29.4,0,0.76,0,0,0,0.045, ,0,0,0,0,0, ,880.9,-168.7,-66.2,-10.5,-13.6,-11.3,25,911.129,-136.262,15.3613,-6.69935,-10.2411,4.94632,
2026_06_15_18_46_04.761,3.84,29.5,0,0.76,0,0,0,0.045, ,0,0,0,0,0, ,915.1,-169.1,-81.9,-10.6,-6.8,-12,25,910.329,-138.251,9.91282,-6.934,-10.2386,3.93499,
2026_06_15_18_46_04.781,3.84,29.5,0,0.759,0,0,0,0.045, ,0,0,0,0,0, ,921,-174.3,-112.9,-8,-8.3,-7.9,25,910.8,-140.289,3.37344,-7.07818,-10.0747,3.08887,
2026_06_15_18_46_04.800,3.84,29.6,0,0.759,0,0,0,0.045, ,0,0,0,0,0, ,890,-159.6,-110.9,-6,-15.7,-4.1,25,910.477,-141.914,-3.65103,-7.07342,-10.192,2.53502,
2026_06_15_18_46_04.820,3.84,29.6,0,0.76,0,0,0,0.044, ,0,0,0,0,0, ,898.6,-140.9,-79.8,-8.3,-14.1,-6.9,25,909.491,-142.422,-9.23894,-7.07808,-10.4789,2.04538,
2026_06_15_18_46_04.839,3.84,29.6,0,0.759,0,0,0,0.044, ,0,0,0,0,0, ,945.5,-147.5,-93,-10.9,-2.4,-11,25,910.256,-142.53,-13.9409,-7.23176,-10.3431,1.37535,
2026_06_15_18_46_04.860,3.84,29.7,0,0.76,0,0,0,0.044, ,0,0,0,0,0, ,977.5,-167.6,-137.4,-9.3,3.9,-8.7,25,913.379,-143.445,-20.1114,-7.40655,-9.66713,0.691307,
2026_06_15_18_46_04.879,3.84,29.7,0,0.758,0,0,0,0.043, ,0,0,0,0,0, ,958.7,-167.4,-154.2,-4.1,-1.4,-2.6,25,916.713,-144.911,-27.7706,-7.36349,-9.00186,0.304884,
2026_06_15_18_46_04.899,3.84,29.7,0,0.758,0,0,0,0.043, ,0,0,0,0,0, ,942.2,-149.9,-129.5,-1.3,-9.9,-1.6,25,918.769,-145.748,-34.7223,-7.07931,-8.79761,0.158336,
2026_06_15_18_46_04.919,3.84,29.7,0,0.76,0,0,0,0.043, ,0,0,0,0,0, ,987.7,-156.6,-110.8,-2.8,-8.2,-3.1,25,921.583,-146.206,-39.928,-6.77284,-8.81299,0.00548458,
2026_06_15_18_46_04.939,3.84,29.8,0,0.761,0,0,0,0.043, ,0,0,0,0,0, ,979.6,-166.6,-112,-2.4,3.9,-1.7,25,925.366,-147.144,-44.2834,-6.51855,-8.40696,-0.1411,
2026_06_15_18_46_04.958,3.84,29.8,0,0.76,0,0,0,0.043, ,0,0,0,0,0, ,942,-171.9,-116.6,-1.3,5.6,-1.4,25,927.525,-148.491,-48.55,-6.23406,-7.60521,-0.226954,
2026_06_15_18_46_04.979,3.84,29.8,0,0.761,0,0,0,0.043, ,0,0,0,0,0, ,931.8,-169.9,-134.2,0,-3,-2.7,25,928.096,-149.856,-53.233,-5.89379,-7.06255,-0.338046,
2026_06_15_18_46_05.001,3.84,29.9,0,0.76,0,0,0,0.043, ,0,0,0,0,0, ,978,-160,-107.7,1.2,-6,-5.4,25,929.729,-150.776,-57.3595,-5.49807,-6.90639,-0.564243,
2026_06_15_18_46_05.018,3.84,30,0,0.76,0,0,0,0.042, ,0,0,0,0,0, ,1011.8,-167.9,-95.4,0.9,0.3,-4.1,25,933.701,-151.579,-60.0524,-5.09905,-6.65921,-0.819313,
2026_06_15_18_46_05.038,3.84,29.9,0,0.761,0,0,0,0.041, ,0,0,0,0,0, ,981.3,-159.5,-89.1,1.2,2.5,-1.9,25,937.531,-152.318,-62.0144,-4.72434,-6.1681,-0.952199,
2026_06_15_18_46_05.058,3.84,30,0,0.759,0,0,0,0, ,0,0,0,0,0, ,971.9,-149.9,-88.2,1.9,-3.4,-1.4,25,939.911,-152.463,-63.6375,-4.342,-5.81965,-0.994721,
2026_06_15_18_46_05.078,3.84,30,0,0.76,0,0,0,0, ,0,0,0,0,0, ,998,-149.1,-84.3,1.4,-4.1,-1.5,25,942.656,-152.282,-65.0155,-3.97686,-5.69353,-1.02246,
2026_06_15_18_46_05.098,3.84,30,0,0.76,0,0,0,0, ,0,0,0,0,0, ,983.6,-154.6,-76,1.2,1.4,-1.5,25,945.59,-152.256,-65.9377,-3.6553,-5.42885,-1.05156,
2026_06_15_18_46_05.117,3.84,30.1,0,0.76,0,0,0,0, ,0,0,0,0,0, ,959.5,-151.8,-60,0.8,5.8,-4.8,25,947.172,-152.313,-66.0634,-3.37162,-4.87865,-1.17944,
2026_06_15_18_46_05.137,3.84,30,0,0.76,0,0,0,0, ,0,0,0,0,0, ,967.5,-159,-75.3,-0.5,4.5,-6.4,25,948.167,-152.501,-66.1601,-3.15702,-4.26753,-1.44882,
2026_06_15_18_46_05.156,3.84,30.1,0,0.759,0,0,0,0, ,0,0,0,0,0, ,968.7,-159.4,-84.3,0,3.2,-6.9,25,949.381,-152.91,-66.9913,-2.97987,-3.77287,-1.76576,
2026_06_15_18_46_05.177,3.84,30.1,0,0.759,0,0,0,0, ,0,0,0,0,0, ,973.3,-162.4,-85.8,0.9,-0.4,-7.2,25,950.699,-153.397,-68.0917,-2.77087,-3.45765,-2.08777,
2026_06_15_18_46_05.202,3.84,30.1,0,0.76,0,0,0,0, ,0,0,0,0,0, ,979.1,-162.8,-63.4,-0.1,-0.3,-6.3,25,952.253,-153.957,-68.4883,-2.57764,-3.26828,-2.37188,
2026_06_15_18_46_05.217,3.84,30,0,0.76,0,0,0,0, ,0,0,0,0,0, ,992.7,-162.7,-59.5,-2.5,0.8,-5,25,954.303,-154.493,-68.0594,-2.49978,-3.05388,-2.57164,
2026_06_15_18_46_05.236,3.84,30.1,0,0.76,0,0,0,0, ,0,0,0,0,0, ,996.3,-163.4,-81.6,-2.4,2.6,-2.7,25,956.753,-155.015,-68.2112,-2.49675,-2.76419,-2.64954,
2026_06_15_18_46_05.255,3.84,30,0,0.759,0,0,0,0, ,0,0,0,0,0, ,959.7,-155.1,-78.2,-0.6,0,-1.8,25,958.047,-155.273,-68.9235,-2.43601,-2.51653,-2.62519,
2026_06_15_18_46_05.275,3.84,30.2,0,0.759,0,0,0,0, ,0,0,0,0,0, ,947.9,-152.9,-69.9,0.1,-3.6,-4.2,25,957.789,-155.195,-69.2359,-2.3028,-2.47287,-2.64803,
2026_06_15_18_46_05.295,3.84,30,0,0.76,0,0,0,0, ,0,0,0,0,0, ,968.3,-154.6,-64.9,0,-3.9,-6,25,957.808,-155.107,-69.124,-2.15943,-2.55069,-2.79745,
2026_06_15_18_46_05.315,3.84,30.1,0,0.759,0,0,0,0, ,0,0,0,0,0, ,991.3,-160.8,-73.3,-1,-2.8,-4.7,25,959.148,-155.265,-69.1225,-2.05831,-2.5994,-2.95299,
2026_06_15_18_46_05.334,3.84,30.1,0,0.761,0,0,0,0, ,0,0,0,0,0, ,970.5,-158.9,-79.1,-0.5,-0.9,-3.8,25,960.473,-155.544,-69.5538,-1.97858,-2.55373,-3.03203,
2026_06_15_18_46_05.355,3.84,30.1,0,0.76,0,0,0,0, ,0,0,0,0,0, ,952.8,-155.5,-78.4,-0.1,-3.6,-5.6,25,960.545,-155.645,-70.1142,-1.87629,-2.53522,-3.13367,
2026_06_15_18_46_05.375,3.84,30.1,0,0.76,0,0,0,0, ,0,0,0,0,0, ,973.8,-152.5,-75.6,0,-4.5,-6.9,25,960.713,-155.545,-70.5338,-1.765,-2.62753,-3.32357,
2026_06_15_18_46_05.394,3.84,30.1,0,0.76,0,0,0,0, ,0,0,0,0,0, ,982.4,-153.9,-76.7,-0.4,0,-6.3,25,961.772,-155.402,-70.8761,-1.66964,-2.60453,-3.52323,
2026_06_15_18_46_05.415,3.84,30.1,0,0.76,0,0,0,0, ,0,0,0,0,0, ,952.8,-148.6,-78.6,-0.5,2.7,-5.8,25,962.127,-155.149,-71.2888,-1.59531,-2.36355,-3.6772,
2026_06_15_18_46_05.434,3.84,30.2,0,0.759,0,0,0,0, ,0,0,0,0,0, ,939.5,-139.5,-80.6,-0.7,-2.3,-6.1,25,961.154,-154.473,-71.7953,-1.53466,-2.20733,-3.8157,
2026_06_15_18_46_05.454,3.84,30.3,0,0.76,0,0,0,0, ,0,0,0,0,0, ,947.8,-132.3,-69.5,-1.1,-3.8,-6.1,25,960.087,-153.341,-71.9936,-1.49599,-2.25868,-3.9549,
2026_06_15_18_46_05.474,3.84,30.1,0,0.76,0,0,0,0, ,0,0,0,0,0, ,942.2,-130.9,-75,-1.9,-0.5,-5.2,25,959.168,-152.016,-72.0093,-1.49623,-2.25206,-4.0582,
2026_06_15_18_46_05.494,3.84,30.2,0,0.761,0,0,0,0, ,0,0,0,0,0, ,886.5,-122.6,-66.5,-1.4,5.5,-4.8,25,956.437,-150.477,-71.9325,-1.5056,-1.96248,-4.11559,
2026_06_15_18_46_05.513,3.84,30.1,0,0.759,0,0,0,0, ,0,0,0,0,0, ,838.7,-111.8,-72.5,-2.5,7.1,-6.4,25,950.719,-148.449,-71.7843,-1.53268,-1.45898,-4.20604,
2026_06_15_18_46_05.533,3.84,30.1,0,0.76,0,0,0,0, ,0,0,0,0,0, ,821.4,-106.3,-78.7,-3.7,6.7,-10.9,25,943.365,-146.048,-72.0168,-1.62819,-0.949609,-4.47685,
2026_06_15_18_46_05.552,3.84,30.1,0,0.761,0,0,0,0, ,0,0,0,0,0, ,862.9,-111.2,-93,-4.3,6.9,-15.9,25,937.198,-143.775,-72.8598,-1.77272,-0.477367,-5.0206,
2026_06_15_18_46_05.572,3.84,30.2,0,0.758,0,0,0,0, ,0,0,0,0,0, ,891.4,-103,-87.6,-2.9,7.8,-15.6,25,933.538,-141.54,-73.9225,-1.88407,-0.000387237,-5.67443,
2026_06_15_18_46_05.592,3.84,30.2,0,0.76,0,0,0,0, ,0,0,0,0,0, ,885.3,-76.1,-73.8,-2.4,8.1,-13.2,25,930.785,-138.372,-74.3355,-1.93075,0.484089,-6.20614,
2026_06_15_18_46_05.612,3.84,30.2,0,0.76,0,0,0,0, ,0,0,0,0,0, ,891.3,-65.5,-85.6,-3.1,5.9,-14.7,25,928.196,-134.254,-74.6624,-1.98067,0.881153,-6.67803,
2026_06_15_18_46_05.635,3.84,30.1,0,0.759,0,0,0,0, ,0,0,0,0,0, ,925.5,-83.1,-71.8,-1.5,6,-17.5,25,926.99,-130.601,-74.9085,-2.00013,1.19004,-7.25218,
2026_06_15_18_46_05.651,3.84,30.2,0,0.759,0,0,0,0, ,0,0,0,0,0, ,942.3,-108.7,-51.7,-2.5,9.4,-15.6,25,927.411,-128.486,-74.1066,-2.00012,1.58674,-7.81877,
2026_06_15_18_46_05.671,3.84,30.2,0,0.76,0,0,0,0, ,0,0,0,0,0, ,907.4,-113.4,-47.9,-2.2,15.3,-11.5,25,927.255,-127.424,-72.6254,-2.02144,2.24262,-8.16802,
2026_06_15_18_46_05.691,3.84,30.2,0,0.76,0,0,0,0, ,0,0,0,0,0, ,841,-81.1,-48.4,-1,13.9,-10.1,25,924.022,-125.585,-71.134,-1.99576,2.99565,-8.3284,
2026_06_15_18_46_05.711,3.84,30.2,0,0.759,0,0,0,0, ,0,0,0,0,0, ,811.2,-63.8,-34.7,0.2,12.3,-16.3,25,918.054,-122.347,-69.3312,-1.89852,3.61138,-8.62526,
2026_06_15_18_46_05.733,3.84,30.2,0,0.76,0,0,0,0, ,0,0,0,0,0, ,836,-94.3,-13,-2.2,14.3,-23.1,25,912.299,-119.709,-66.5597,-1.84377,4.20178,-9.30013,
2026_06_15_18_46_05.751,3.84,30.2,0,0.759,0,0,0,0, ,0,0,0,0,0, ,827.6,-110.8,-20.9,-4.2,26.7,-24.4,25,907.393,-118.663,-63.5366,-1.92641,5.19496,-10.1807,
2026_06_15_18_46_05.770,3.84,30.3,0,0.758,0,0,0,0, ,0,0,0,0,0, ,777.5,-81.5,-22.8,-4.9,29,-27.3,25,901.004,-117.291,-60.9963,-2.08629,6.5755,-11.1355,
2026_06_15_18_46_05.790,3.84,30.2,0,0.759,0,0,0,0, ,0,0,0,0,0, ,791.5,-47.9,-52,-9.2,18.5,-32.9,25,893.905,-114.086,-59.5584,-2.38876,7.62207,-12.2912,
2026_06_15_18_46_05.810,3.84,30.2,0,0.76,0,0,0,0, ,0,0,0,0,0, ,866.6,-102.5,-75.9,3.7,8.5,-43,25,889.953,-111.717,-59.826,-2.41077,7.98026,-13.8548,
2026_06_15_18_46_05.830,3.84,30.2,0,0.76,0,0,0,0, ,0,0,0,0,0, ,877.8,-92,-13.9,2.7,6.5,-39.4,25,888.871,-110.835,-58.9165,-2.06887,7.95099,-15.5211,
2026_06_15_18_46_05.855,3.84,30.2,0,0.761,0,0,0,0, ,0,0,0,0,0, ,865.4,-56.7,-8.9,2.4,7.7,-38,25,887.819,-108.612,-56.0209,-1.78741,7.89913,-16.9336,
2026_06_15_18_46_05.869,3.84,30.2,0,0.76,0,0,0,0, ,0,0,0,0,0, ,821,0.2,-28.8,4.7,11,-34.8,25,885.1,-103.715,-53.7558,-1.46216,7.98755,-18.1198,
2026_06_15_18_46_05.889,3.84,30.2,0,0.758,0,0,0,0, ,0,0,0,0,0, ,853.7,34,-24.4,7.2,-0.7,-43.4,25,882.19,-96.3527,-52.101,-1.01048,7.81463,-19.3983,
2026_06_15_18_46_05.909,3.84,30.2,0,0.759,0,0,0,0, ,0,0,0,0,0, ,971.9,26.7,12.6,4.1,0,-45.9,25,884.055,-88.6318,-49.2857,-0.604607,7.3171,-20.9371,
2026_06_15_18_46_05.929,3.84,30.2,0,0.76,0,0,0,0, ,0,0,0,0,0, ,988.1,26.3,64.2,1.1,19,-39,25,889.902,-81.6159,-43.9423,-0.409326,7.45012,-22.248,
2026_06_15_18_46_05.949,3.84,30.2,0,0.761,0,0,0,0, ,0,0,0,0,0, ,938.8,78.7,47.2,0.9,25.6,-34.5,25,894.384,-73.4432,-37.8704,-0.323445,8.35503,-23.1317,
2026_06_15_18_46_05.969,3.84,30.2,0,0.758,0,0,0,0, ,0,0,0,0,0, ,948.7,111,-30.8,3.5,6.6,-34.7,25,897.392,-63.1879,-35.0629,-0.169673,8.82699,-23.8306,
2026_06_15_18_46_05.989,3.84,30.2,0,0.759,0,0,0,0, ,0,0,0,0,0, ,998.5,111.6,36.2,4.2,-3.9,-35.9,25,902.036,-52.555,-32.7618,0.075276,8.37136,-24.5295,
2026_06_15_18_46_06.008,3.84,30.2,0,0.759,0,0,0,0, ,0,0,0,0,0, ,1050.5,105.7,129.2,-1.3,13.3,-33.2,25,909.498,-42.7316,-25.7258,0.159048,8.14764,-25.1401,
2026_06_15_18_46_06.028,3.84,30.3,0,0.76,0,0,0,0, ,0,0,0,0,0, ,1070.9,135.8,104.3,-11.1,18,-33.5,25,918.712,-32.7694,-17.0437,-0.228456,8.60482,-25.6404,
2026_06_15_18_46_06.047,3.84,30.2,0,0.759,0,0,0,0, ,0,0,0,0,0, ,1166.5,72.2,-0.3,-8.2,8.8,-30.9,25,930.899,-24.435,-12.8363,-0.802582,8.89702,-26.0401,
2026_06_15_18_46_06.074,3.84,30.2,0,0.759,0,0,0,0, ,0,0,0,0,0, ,1135.7,138.5,21.2,-5.8,7.4,-15.5,25,944.318,-16.5263,-11.4173,-1.18024,8.84845,-25.8671,
2026_06_15_18_46_06.090,3.84,30.2,0,0.759,0,0,0,0, ,0,0,0,0,0, ,1013.7,151.3,107.9,-5.1,12.8,-3.2,25,952.263,-6.68935,-6.78808,-1.44043,8.92472,-24.8605,
2026_06_15_18_46_06.107,3.84,30.2,0,0.761,0,0,0,0, ,0,0,0,0,0, ,975.5,167.3,125.4,-6,10,-15.4,25,954.843,3.42563,0.733931,-1.69085,9.07556,-23.9123,
2026_06_15_18_46_06.127,3.84,30.3,0,0.759,0,0,0,0, ,0,0,0,0,0, ,1099.4,136.5,61.7,-13.3,1.6,-23.4,25,959.877,12.4733,6.38991,-2.17586,8.87595,-23.6374,
2026_06_15_18_46_06.147,3.84,30.2,0,0.759,0,0,0,0, ,0,0,0,0,0, ,1158.9,93.7,20.9,-5.6,4.1,-15.5,25,970.192,18.7271,8.51724,-2.61913,8.50875,-23.3822,
2026_06_15_18_46_06.166,3.84,30.2,0,0.759,0,0,0,0, ,0,0,0,0,0, ,1072.7,202.2,55.6,-10,9.1,-5.6,25,979.065,26.6016,10.3291,-2.93484,8.39243,-22.6002,
2026_06_15_18_46_06.186,3.84,30.2,0,0.758,0,0,0,0, ,0,0,0,0,0, ,1053.3,190.4,77.7,-4.6,10.6,-10,25,984.179,36.9426,13.7611,-3.20084,8.48125,-21.6983,
2026_06_15_18_46_06.206,3.84,30.2,0,0.759,0,0,0,0, ,0,0,0,0,0, ,1156.8,144.5,57,-0.7,26.3,-22.9,25,991.545,44.8954,17.0267,-3.16727,9.08872,-21.3785,
2026_06_15_18_46_06.226,3.84,30.2,0,0.756,0,0,0,0, ,0,0,0,0,0, ,1175.4,118.8,39,14.2,42.9,-15.4,25,1002.18,50.182,18.9141,-2.56294,10.6433,-21.2427,
2026_06_15_18_46_06.246,3.84,30.2,0,0.759,0,0,0,0, ,0,0,0,0,0, ,1090.9,139.5,14.8,20.3,30.2,-6.4,25,1010.16,54.9941,19.4008,-1.35559,12.222,-20.6125,
2026_06_15_18_46_06.266,3.84,30.2,0,0.76,0,0,0,0, ,0,0,0,0,0, ,1043.3,169.5,47.7,14.3,3.2,-3,25,1013.63,61.0578,20.1228,-0.218765,12.4949,-19.6428,
2026_06_15_18_46_06.286,3.84,30.2,0,0.758,0,0,0,0, ,0,0,0,0,0, ,1072.9,178.8,106.9,7.9,-0.8,-5,25,1016.34,67.9493,23.6071,0.470972,11.8066,-18.6896,
2026_06_15_18_46_06.305,3.84,30.3,0,0.76,0,0,0,0, ,0,0,0,0,0, ,1125.7,170.8,146.3,0.6,7.2,-3.2,25,1021.4,74.4605,29.8832,0.701257,11.2821,-17.8005,
2026_06_15_18_46_06.325,3.84,30.2,0,0.759,0,0,0,0, ,0,0,0,0,0, ,1119.7,157.3,108.6,-4.3,13.8,1.5,25,1027.57,79.9199,35.8287,0.545789,11.2345,-16.7676,
2026_06_15_18_46_06.344,3.84,30.3,0,0.76,0,0,0,0, ,0,0,0,0,0, ,1090.6,141.4,82.6,-0.4,11.4,8,25,1032.3,84.1508,39.471,0.369327,11.3177,-15.4564,
2026_06_15_18_46_06.365,3.84,30.2,0,0.76,0,0,0,0, ,0,0,0,0,0, ,1070.5,156.7,82,-7.9,-1.6,9.5,25,1035.24,88.1056,42.0809,0.0939307,10.9266,-13.9813,
2026_06_15_18_46_06.384,3.84,30.3,0,0.761,0,0,0,0, ,0,0,0,0,0, ,1097.5,162.1,74.8,-10,-7.3,15.8,25,1038.21,92.4501,44.2941,-0.457184,9.9896,-12.3584,
2026_06_15_18_46_06.404,3.84,30.2,0,0.758,0,0,0,0, ,0,0,0,0,0, ,1094.9,138,108.3,-2.8,3.2,34.4,25,1041.74,95.9601,47.1737,-0.819324,9.25593,-10.0758,
2026_06_15_18_46_06.424,3.84,30.2,0,0.76,0,0,0,0, ,0,0,0,0,0, ,1028.3,108.6,84.7,-26,-1.4,31,25,1042.95,97.6261,50.1796,-1.6469,8.74674,-7.46917,
2026_06_15_18_46_06.444,3.84,30.3,0,0.758,0,0,0,0, ,0,0,0,0,0, ,970.8,90.3,64.8,-50.2,-18.5,23,25,1040.31,97.7373,51.6768,-3.86826,7.60741,-5.3687,
2026_06_15_18_46_06.464,3.84,30.1,0,0.758,0,0,0,0, ,0,0,0,0,0, ,993.4,84.4,55,-41.9,-31,11.7,25,1036.76,97.1043,52.1779,-6.43871,5.63563,-3.98428,
2026_06_15_18_46_06.484,3.84,30.2,0,0.76,0,0,0,0, ,0,0,0,0,0, ,1069,73.9,79.1,-24.5,-30,10.9,25,1036.42,96.0102,53.0842,-8.06947,3.43362,-3.0529,
2026_06_15_18_46_06.503,3.84,30.2,0,0.76,0,0,0,0, ,0,0,0,0,0, ,1090.4,56.6,78,-9,-12.9,10.2,25,1039.06,94.1357,54.636,-8.59844,1.91727,-2.22397,
2026_06_15_18_46_06.523,3.84,30.2,0,0.758,0,0,0,0, ,0,0,0,0,0, ,1050.6,76.4,84.5,5.4,2.7,10,25,1040.98,92.4517,56.2578,-8.18416,1.48966,-1.47298,
2026_06_15_18_46_06.543,3.84,30.2,0,0.759,0,0,0,0, ,0,0,0,0,0, ,1036.8,70.5,77.1,10.4,6.2,9.9,25,1041.14,91.2938,57.7533,-7.20403,1.67005,-0.77689,
2026_06_15_18_46_06.562,3.84,30.3,0,0.76,0,0,0,0, ,0,0,0,0,0, ,1032.7,56,51.2,11,5.1,4.3,25,1040.75,89.5849,58.1431,-6.11301,1.91258,-0.296892,
2026_06_15_18_46_06.582,3.84,30.3,0,0.76,0,0,0,0, ,0,0,0,0,0, ,1031.8,54,59,2.5,-3,6.5,25,1040.23,87.4773,57.9577,-5.32917,1.86002,0.0502622,
2026_06_15_18_46_06.602,3.84,30.1,0,0.758,0,0,0,0, ,0,0,0,0,0, ,1023.8,109.2,71.8,-14.4,-1.4,7.4,25,1039.48,87.1192,58.4112,-5.367,1.61261,0.470715,
2026_06_15_18_46_06.622,3.84,30.2,0,0.756,0,0,0,0, ,0,0,0,0,0, ,1186.1,78.1,122.4,-28.4,-9,10,25,1043.47,87.5172,60.7688,-6.34401,1.19747,0.972187,
2026_06_15_18_46_06.642,3.84,30.2,0,0.759,0,0,0,0, ,0,0,0,0,0, ,986.2,140.1,49.6,-0.3,9.7,15,25,1046.07,88.8324,62.3063,-6.83188,1.14582,1.67466,
2026_06_15_18_46_06.662,3.84,30.3,0,0.759,0,0,0,0, ,0,0,0,0,0, ,981.2,39.3,112.5,10,7.3,10.9,25,1042.27,88.8852,63.4485,-6.12001,1.59397,2.36175,
2026_06_15_18_46_06.681,3.84,30.2,0,0.759,0,0,0,0, ,0,0,0,0,0, ,988.4,33.4,86.3,6.7,3.2,8.4,25,1038.76,85.6839,65.6393,-5.23825,1.81676,2.80588,
2026_06_15_18_46_06.701,3.84,30.2,0,0.76,0,0,0,0, ,0,0,0,0,0, ,989,35.6,90,3.3,2.2,9.6,25,1035.71,82.5649,67.0111,-4.61435,1.87058,3.18334,
2026_06_15_18_46_06.721,3.84,30.2,0,0.76,0,0,0,0, ,0,0,0,0,0, ,987.9,30.7,92.5,2.2,-1.2,1.8,25,1032.83,79.5536,68.4881,-4.16559,1.78706,3.33669,
2026_06_15_18_46_06.740,3.84,30.3,0,0.762,0,0,0,0, ,0,0,0,0,0, ,982,63.7,100,1.4,-3.3,4.3,25,1029.92,77.5821,70.1799,-3.80206,1.54105,3.31922,
2026_06_15_18_46_06.761,3.84,30.2,0,0.759,0,0,0,0, ,0,0,0,0,0, ,986.4,52.9,81.9,-1.4,-6.3,7.5,25,1027.13,76.4071,71.4455,-3.57037,1.15464,3.47649,
2026_06_15_18_46_06.781,3.84,30.2,0,0.759,0,0,0,0, ,0,0,0,0,0, ,990.6,33.5,66,-2.9,-5.7,8,25,1024.78,74.3835,71.5982,-3.48382,0.718659,3.73691,
2026_06_15_18_46_06.801,3.84,30.3,0,0.758,0,0,0,0, ,0,0,0,0,0, ,990.6,17.3,74.8,-5.5,-4.8,5.6,25,1022.69,71.3986,71.5251,-3.52746,0.354944,3.92356,
2026_06_15_18_46_06.820,3.84,30.2,0,0.76,0,0,0,0, ,0,0,0,0,0, ,988.7,20.7,78.7,-7,-6.1,3,25,1020.68,68.2056,71.8435,-3.69336,0.00120497,3.9465,
2026_06_15_18_46_06.840,3.84,30.2,0,0.76,0,0,0,0, ,0,0,0,0,0, ,988.7,26.4,75.1,-7.1,-7.6,2,25,1018.73,65.4844,72.1517,-3.89791,-0.41629,3.85836,
2026_06_15_18_46_06.859,3.84,30.2,0,0.76,0,0,0,0, ,0,0,0,0,0, ,989.3,26.9,69.7,-7.6,-8.4,2.4,25,1016.92,63.1179,72.1668,-4.10827,-0.878423,3.7573,
2026_06_15_18_46_06.879,3.84,30.2,0,0.76,0,0,0,0, ,0,0,0,0,0, ,990.2,16.4,61.5,-5.4,-7.8,2,25,1015.26,60.5909,71.7666,-4.25402,-1.31849,3.6624,
2026_06_15_18_46_06.899,3.84,30.2,0,0.757,0,0,0,0, ,0,0,0,0,0, ,989.7,18.3,64,-4.1,-8,1.2,25,1013.72,57.9559,71.2172,-4.28424,-1.71955,3.53673,
2026_06_15_18_46_06.919,3.84,30.2,0,0.759,0,0,0,0, ,0,0,0,0,0, ,988.6,19,64.9,-1,-9.1,1,25,1012.22,55.5607,70.8048,-4.17856,-2.13578,3.38824,
2026_06_15_18_46_06.939,3.84,30.2,0,0.758,0,0,0,0, ,0,0,0,0,0, ,989.9,28.5,55,0.2,-9.6,1.3,25,1010.82,53.6223,70.1433,-3.9483,-2.5754,3.25184,
2026_06_15_18_46_06.958,3.84,30.2,0,0.758,0,0,0,0, ,0,0,0,0,0, ,988.8,34,56.1,-0.2,-9.8,3.2,25,1009.52,52.259,69.2541,-3.7077,-3.00955,3.19079,
2026_06_15_18_46_06.978,3.84,30.2,0,0.758,0,0,0,0, ,0,0,0,0,0, ,990.9,21.6,55.4,-1.8,-11.1,4.1,25,1008.32,50.7685,68.4312,-3.5427,-3.46295,3.21878,
2026_06_15_18_46_06.998,3.84,30.2,0,0.761,0,0,0,0, ,0,0,0,0,0, ,991.5,9.7,46.2,-0.9,-11.8,3.6,25,1007.27,48.6285,67.3568,-3.40909,-3.94966,3.25724,
2026_06_15_18_46_07.018,3.84,30.2,0,0.761,0,0,0,0, ,0,0,0,0,0, ,997.4,5,17.8,1.2,-9.6,2.3,25,1006.49,46.1131,65.2022,-3.1922,-4.36101,3.23852,
2026_06_15_18_46_07.038,3.84,30.2,0,0.759,0,0,0,0, ,0,0,0,0,0, ,999,4.1,8.6,3.2,-4.1,0.1,25,1005.99,43.5803,62.0333,-2.86362,-4.51269,3.1143,
2026_06_15_18_46_07.057,3.84,30.2,0,0.76,0,0,0,0, ,0,0,0,0,0, ,991.4,17.5,38.8,2.5,-1.2,-0.5,25,1005.33,41.5828,59.6974,-2.51544,-4.39918,2.91233,
2026_06_15_18_46_07.077,3.84,30.2,0,0.76,0,0,0,0, ,0,0,0,0,0, ,987.1,21.9,55.5,0.1,-3.7,0.3,25,1004.35,40.2493,58.9328,-2.28294,-4.2804,2.72877,
2026_06_15_18_46_07.097,3.84,30.2,0,0.76,0,0,0,0, ,0,0,0,0,0, ,993.2,11.4,30.5,0,-4.5,0.7,25,1003.48,38.8112,57.9619,-2.14078,-4.26941,2.59295,
2026_06_15_18_46_07.117,3.84,30.1,0,0.761,0,0,0,0, ,0,0,0,0,0, ,994.3,5.4,27.4,0.4,-3.1,0,25,1002.89,36.958,56.194,-1.99814,-4.2408,2.45627,
2026_06_15_18_46_07.136,3.84,30.1,0,0.76,0,0,0,0, ,0,0,0,0,0, ,991.6,9.2,29.4,2.1,-2.3,-0.5,25,1002.29,35.1507,54.5003,-1.8002,-4.14691,2.29136,
2026_06_15_18_46_07.157,3.84,30.1,0,0.759,0,0,0,0, ,0,0,0,0,0, ,992.5,10.4,27.4,2,-1.2,-0.8,25,1001.66,33.6059,52.9098,-1.56558,-4.00085,2.11212,
2026_06_15_18_46_07.176,3.84,30.1,0,0.758,0,0,0,0, ,0,0,0,0,0, ,992.5,12.3,32.4,0.5,-0.8,-0.8,25,1001.1,32.2497,51.5076,-1.39401,-3.81798,1.93466,
2026_06_15_18_46_07.196,3.84,30.2,0,0.756,0,0,0,0, ,0,0,0,0,0, ,991.8,9.7,34.6,0,-0.7,-1.1,25,1000.56,30.9548,50.4103,-1.29382,-3.63103,1.75888,
2026_06_15_18_46_07.216,3.84,30.2,0,0.761,0,0,0,0, ,0,0,0,0,0, ,991.2,8.7,33.3,0,-0.7,-1.4,25,1000.01,29.6291,49.4072,-1.21498,-3.45242,1.57553,
2026_06_15_18_46_07.236,3.84,30.2,0,0.758,0,0,0,0, ,0,0,0,0,0, ,991.3,9.6,34.5,0.8,-1,-1.7,25,999.472,28.3812,48.4623,-1.11657,-3.29383,1.38506,
2026_06_15_18_46_07.257,3.84,30.2,0,0.758,0,0,0,0, ,0,0,0,0,0, ,992.9,10,31.7,1.3,-0.8,-1.7,25,999.023,27.2489,47.5261,-0.984544,-3.14796,1.19707,
2026_06_15_18_46_07.276,3.84,30.2,0,0.758,0,0,0,0, ,0,0,0,0,0, ,991.4,12.5,29.9,1.4,-0.8,-1.7,25,998.604,26.2739,46.5069,-0.842283,-3.00488,1.02053,
2026_06_15_18_46_07.295,3.84,30.1,0,0.759,0,0,0,0, ,0,0,0,0,0, ,992.3,15.3,30.1,0.6,-0.3,-1.2,25,998.193,25.5199,45.501,-0.730018,-2.85529,0.86998,
2026_06_15_18_46_07.316,3.84,30.1,0,0.758,0,0,0,0, ,0,0,0,0,0, ,991.3,12.6,32.8,0,-0.3,-0.7,25,997.803,24.8149,44.6448,-0.667252,-2.69957,0.759075,
2026_06_15_18_46_07.335,3.84,30.1,0,0.758,0,0,0,0, ,0,0,0,0,0, ,990.3,11.5,36.3,-0.1,-0.4,-0.6,25,997.376,24.037,44.0296,-0.629638,-2.5564,0.673209,
2026_06_15_18_46_07.354,3.84,30.1,0,0.76,0,0,0,0, ,0,0,0,0,0, ,991.5,7.5,34.1,-0.2,-0.6,-0.9,25,996.982,23.1512,43.4916,-0.60041,-2.43109,0.586483,
2026_06_15_18_46_07.374,3.84,30.2,0,0.758,0,0,0,0, ,0,0,0,0,0, ,991.4,6.1,32.3,-0.2,-0.5,-1.6,25,996.645,22.1548,42.8644,-0.57601,-2.31646,0.474572,
2026_06_15_18_46_07.394,3.84,30.2,0,0.758,0,0,0,0, ,0,0,0,0,0, ,991,10.4,33.5,-0.2,-0.1,-2.2,25,996.313,21.3074,42.2572,-0.553097,-2.19358,0.329872,
2026_06_15_18_46_07.414,3.84,30.1,0,0.759,0,0,0,0, ,0,0,0,0,0, ,991.8,13,34.3,-0.1,-0.4,-1.8,25,996.014,20.722,41.7479,-0.528533,-2.07514,0.187895,
2026_06_15_18_46_07.434,3.84,30.1,0,0.759,0,0,0,0, ,0,0,0,0,0, ,990.8,10.7,33.3,-0.2,-0.5,-1.5,25,995.726,20.1813,41.2636,-0.505466,-1.97611,0.0758983,
2026_06_15_18_46_07.453,3.84,30.2,0,0.759,0,0,0,0, ,0,0,0,0,0, ,992,10.2,33.2,-0.1,-0.6,-1.4,25,995.463,19.5883,40.7753,-0.483805,-1.88921,-0.0170861,
2026_06_15_18_46_07.475,3.84,30.1,0,0.76,0,0,0,0, ,0,0,0,0,0, ,991.8,11.8,34.5,-0.1,-0.5,-1.3,25,995.246,19.065,40.3533,-0.460417,-1.8076,-0.0983106,
2026_06_15_18_46_07.493,3.84,30.1,0,0.761,0,0,0,0, ,0,0,0,0,0, ,991.6,11.4,32.2,-0.1,-0.6,-1.2,25,995.03,18.6101,39.9265,-0.438454,-1.73096,-0.168492,
2026_06_15_18_46_07.513,3.84,30.1,0,0.76,0,0,0,0, ,0,0,0,0,0, ,992,14.1,36.6,-0.2,-0.7,-1,25,994.833,18.253,39.5897,-0.420876,-1.66509,-0.225255,
2026_06_15_18_46_07.533,3.84,30.2,0,0.759,0,0,0,0, ,0,0,0,0,0, ,992.1,9.1,33.8,-0.1,-0.9,-0.9,25,994.663,17.8476,39.3222,-0.40437,-1.61238,-0.26942,
2026_06_15_18_46_07.552,3.84,30.1,0,0.758,0,0,0,0, ,0,0,0,0,0, ,993,7.2,30.8,-0.1,-0.8,-1.4,25,994.534,17.2566,38.8943,-0.385822,-1.56592,-0.32308,
2026_06_15_18_46_07.572,3.84,30.1,0,0.76,0,0,0,0, ,0,0,0,0,0, ,990.9,10.3,32.4,-0.1,-0.4,-1.6,25,994.377,16.7383,38.4498,-0.368405,-1.50706,-0.394798,
2026_06_15_18_46_07.592,3.84,30.2,0,0.758,0,0,0,0, ,0,0,0,0,0, ,991.3,11.3,34.9,-0.1,-0.6,-1.3,25,994.177,16.3764,38.1573,-0.352049,-1.44569,-0.4591,
2026_06_15_18_46_07.612,3.84,30.2,0,0.76,0,0,0,0, ,0,0,0,0,0, ,991,8.1,31.9,-0.1,-0.7,-1.2,25,993.993,15.9696,37.8674,-0.33669,-1.3972,-0.507295,
2026_06_15_18_46_07.632,3.84,30.1,0,0.759,0,0,0,0, ,0,0,0,0,0, ,992,9.2,32.7,-0.1,-0.5,-1.5,25,993.841,15.5235,37.5282,-0.322267,-1.34862,-0.558648,
2026_06_15_18_46_07.651,3.84,30.1,0,0.758,0,0,0,0, ,0,0,0,0,0, ,990.1,9.7,31.7,-0.1,-0.4,-1.6,25,993.671,15.1534,37.2035,-0.308722,-1.29386,-0.619058,
2026_06_15_18_46_07.672,3.84,30.2,0,0.76,0,0,0,0, ,0,0,0,0,0, ,992.4,10.4,33.4,-0.2,-0.3,-1.6,25,993.523,14.8424,36.9199,-0.29905,-1.23635,-0.678834,
2026_06_15_18_46_07.691,3.84,30.1,0,0.758,0,0,0,0, ,0,0,0,0,0, ,992.1,10.6,31.2,-0.1,-0.3,-1.6,25,993.446,14.5778,36.6384,-0.289967,-1.17929,-0.734968,
2026_06_15_18_46_07.710,3.84,30.1,0,0.758,0,0,0,0, ,0,0,0,0,0, ,993,10.2,33.9,-0.2,-0.4,-1.6,25,993.391,14.3232,36.3893,-0.281438,-1.12875,-0.787681,
2026_06_15_18_46_07.731,3.84,30.1,0,0.76,0,0,0,0, ,0,0,0,0,0, ,991.5,8.5,33,-0.1,-0.5,-1.6,25,993.322,14.0202,36.2101,-0.273429,-1.08739,-0.837181,
2026_06_15_18_46_07.750,3.84,30,0,0.758,0,0,0,0, ,0,0,0,0,0, ,992,12.5,32.4,-0.2,-0.3,-1.7,25,993.226,13.8057,35.9962,-0.265907,-1.0455,-0.886713,
2026_06_15_18_46_07.770,3.84,30.1,0,0.76,0,0,0,0, ,0,0,0,0,0, ,992.4,10.4,32.1,-0.1,-0.4,-1.4,25,993.163,13.6621,35.768,-0.258844,-1.00312,-0.927132,
2026_06_15_18_46_07.791,3.84,30.1,0,0.759,0,0,0,0, ,0,0,0,0,0, ,992.6,9.2,34.4,-0.1,-0.4,-1.5,25,993.123,13.4268,35.6145,-0.249164,-0.966369,-0.958994,
2026_06_15_18_46_07.810,3.84,30.2,0,0.756,0,0,0,0, ,0,0,0,0,0, ,990.6,12.4,34.5,-0.1,-0.4,-1.6,25,993.03,13.2667,35.5436,-0.240075,-0.931856,-0.995008,
2026_06_15_18_46_07.831,3.84,30.1,0,0.76,0,0,0,0, ,0,0,0,0,0, ,992.3,13.7,33.2,-0.1,-0.5,-1.4,25,992.934,13.2535,35.4404,-0.231539,-0.902493,-1.02578,
