UTC_Time,Vin,TC1,TC2,Rh1,Vh1,Ah1,Acp1,Dty1,Err1,Rh2,Vh2,Ah2,Acp2,Dty2,Err2,Accel_x,Accel_y,Accel_z,gyro_x,gyro_y,gyro_z,Temp_c,Accel_x_h,Accel_y_h,Accel_z_h,gyro_x_h,gyro_y_h,gyro_z_h,
2026_06_10_20_16_32.193,3.879,29.5,0,0.757,3.817,5.042,18.28,0.95, ,0,0,0,0,0, ,727.5,-2.3,699.7,-0.6,-0.8,1.1,25,727.498,-2.29999,699.698,-0.599998,-0.799997,1.1,
2026_06_10_20_16_32.212,3.869,29.5,0,0.761,3.891,5.113,18.89,0.95, ,0,0,0,0,0, ,696,0.1,723,0.6,-2.6,2.2,25,726.538,-2.22687,700.408,-0.563436,-0.854841,1.13351,
2026_06_10_20_16_32.232,3.869,29.6,0,0.764,0,0,0,0.004, ,0,0,0,0,0, ,675.7,2.9,737.9,0.4,-1.2,-0.1,25,724.059,-1.99976,702.238,-0.498633,-0.918531,1.12842,
2026_06_10_20_16_32.252,3.869,29.7,0,0.76,0,0,0,0.003, ,0,0,0,0,0, ,673.4,0.9,738.5,-2.2,-1,-1.6,25,721.042,-1.76212,704.43,-0.523091,-0.929589,1.00786,
2026_06_10_20_16_32.272,3.869,30,0,0.76,0,0,0,0.002, ,0,0,0,0,0, ,697.5,-0.7,721.4,-4.2,-2.7,-3.1,25,718.873,-1.64865,705.985,-0.686215,-0.985676,0.803243,
2026_06_10_20_16_32.291,3.869,29.9,0,0.759,0,0,0,0, ,0,0,0,0,0, ,710.2,0,699.5,-3.4,-2.9,-2.7,25,717.957,-1.56951,706.257,-0.875961,-1.09624,0.577577,
2026_06_10_20_16_32.317,3.869,30,0,0.759,0,0,0,0, ,0,0,0,0,0, ,709.5,-7.5,706.9,-4.5,-3.9,-5.3,25,717.463,-1.70238,706.071,-1.06329,-1.23662,0.298631,
2026_06_10_20_16_32.331,3.869,30,0,0.76,0,0,0,0, ,0,0,0,0,0, ,696.4,5.1,717.2,-1.7,-4.7,-1.6,25,716.579,-1.67177,706.435,-1.1874,-1.4233,0.0701986,
2026_06_10_20_16_32.350,3.869,30.1,0,0.76,0,0,0,0, ,0,0,0,0,0, ,697.1,2.4,706.2,-4.8,-2.1,-2.5,25,715.371,-1.34138,706.756,-1.31309,-1.54375,-0.059001,
2026_06_10_20_16_32.371,3.869,30.2,0,0.76,0,0,0,0, ,0,0,0,0,0, ,703.1,-3.9,687.6,-3.9,-0.6,-2.6,25,714.44,-1.30534,706.155,-1.49815,-1.53195,-0.210796,
2026_06_10_20_16_32.391,3.869,30.2,0,0.759,0,0,0,0, ,0,0,0,0,0, ,707.5,-2.1,694.9,-1.1,0,-2.8,25,713.883,-1.40861,705.247,-1.5592,-1.45687,-0.362482,
2026_06_10_20_16_32.411,3.869,30.2,0,0.76,0,0,0,0, ,0,0,0,0,0, ,715.3,-6.2,705.2,0.5,0.1,-1.7,25,713.732,-1.57567,704.93,-1.48247,-1.36505,-0.477503,
2026_06_10_20_16_32.430,3.869,30.3,0,0.76,0,0,0,0, ,0,0,0,0,0, ,704.7,-5.2,713.6,-0.7,1.3,0.6,25,713.504,-1.82699,705.203,-1.39822,-1.23921,-0.48192,
2026_06_10_20_16_32.450,3.869,30.3,0,0.758,0,0,0,0, ,0,0,0,0,0, ,694.8,-8.6,704.8,1,2.1,0.2,25,712.666,-2.13613,705.446,-1.30388,-1.0601,-0.428178,
2026_06_10_20_16_32.470,3.869,30.2,0,0.758,0,0,0,0, ,0,0,0,0,0, ,691.2,-5.3,709.4,1.4,2.1,-0.5,25,711.468,-2.42947,705.547,-1.1513,-0.867533,-0.411227,
2026_06_10_20_16_32.490,3.869,30.3,0,0.76,0,0,0,0, ,0,0,0,0,0, ,687.6,-6.2,726.9,0.1,1.7,-1.4,25,710.123,-2.63182,706.315,-1.03544,-0.698886,-0.444058,
2026_06_10_20_16_32.509,3.869,30.4,0,0.76,0,0,0,0, ,0,0,0,0,0, ,692.9,-4.8,727,-1.1,0.5,-2.8,25,708.912,-2.8066,707.573,-1.00281,-0.589267,-0.544967,
2026_06_10_20_16_32.530,3.869,30.4,0,0.761,0,0,0,0, ,0,0,0,0,0, ,703.9,-0.7,711.5,-0.5,1.2,-2,25,708.271,-2.80315,708.284,-0.990451,-0.501562,-0.658008,
2026_06_10_20_16_32.549,3.869,30.4,0,0.76,0,0,0,0, ,0,0,0,0,0, ,703.1,-1.3,706.2,0.7,1.1,-1.5,25,707.981,-2.69327,708.319,-0.924002,-0.40092,-0.724552,
2026_06_10_20_16_32.569,3.869,30.3,0,0.76,0,0,0,0, ,0,0,0,0,0, ,692.1,-2.6,722.4,0,0.5,-1.9,25,707.348,-2.64798,708.683,-0.846367,-0.327738,-0.783993,
2026_06_10_20_16_32.588,3.869,30.4,0,0.76,0,0,0,0, ,0,0,0,0,0, ,690.1,-3.9,723.3,-0.3,0.7,-2,25,706.358,-2.68466,709.546,-0.803932,-0.271204,-0.855047,
2026_06_10_20_16_32.608,3.869,30.4,0,0.758,0,0,0,0, ,0,0,0,0,0, ,700,-8.6,715.2,-1,-0.1,-2.6,25,705.669,-2.90193,710.138,-0.794552,-0.236397,-0.943098,
2026_06_10_20_16_32.628,3.869,30.5,0,0.76,0,0,0,0, ,0,0,0,0,0, ,695.4,13.1,715.3,-0.1,0.8,-3.8,25,705.183,-2.58798,710.449,-0.77965,-0.200663,-1.08063,
2026_06_10_20_16_32.648,3.869,30.4,0,0.761,0,0,0,0, ,0,0,0,0,0, ,686,-3.7,717.8,0.2,-0.9,-1.4,25,704.301,-2.14387,710.821,-0.729093,-0.191482,-1.17322,
2026_06_10_20_16_32.668,3.869,30.5,0,0.76,0,0,0,0, ,0,0,0,0,0, ,693.2,-2.9,724.7,0,-0.4,-2.6,25,703.405,-2.21432,711.457,-0.67857,-0.219423,-1.2236,
2026_06_10_20_16_32.688,3.869,30.4,0,0.758,0,0,0,0, ,0,0,0,0,0, ,698.8,-1.3,724.1,-1,-1.1,-2.3,25,702.954,-2.20735,712.245,-0.667688,-0.251755,-1.29833,
2026_06_10_20_16_32.707,3.869,30.5,0,0.757,0,0,0,0, ,0,0,0,0,0, ,696.7,-0.8,713.1,-1.4,-2.1,-1.6,25,702.637,-2.13683,712.633,-0.700126,-0.333914,-1.33804,
2026_06_10_20_16_32.727,3.869,30.5,0,0.76,0,0,0,0, ,0,0,0,0,0, ,688.1,-3.1,712.6,-1,-1.6,-2.6,25,702.013,-2.12544,712.646,-0.730587,-0.4263,-1.38447,
2026_06_10_20_16_32.747,3.869,30.5,0,0.758,0,0,0,0, ,0,0,0,0,0, ,697.9,1.3,712.7,-0.7,-1.1,-3.1,25,701.464,-2.05077,712.646,-0.737864,-0.482588,-1.47378,
2026_06_10_20_16_32.767,3.869,30.4,0,0.76,0,0,0,0, ,0,0,0,0,0, ,709.3,-5,716.4,-0.8,-1.4,-2.2,25,701.594,-2.03853,712.762,-0.738603,-0.529352,-1.54546,
2026_06_10_20_16_32.787,3.869,30.7,0,0.76,0,0,0,0, ,0,0,0,0,0, ,714.3,-18.9,711.9,-1.1,-0.8,-3.5,25,702.216,-2.64251,712.847,-0.751485,-0.564126,-1.62495,
2026_06_10_20_16_32.806,3.869,30.7,0,0.758,0,0,0,0, ,0,0,0,0,0, ,687.7,8.6,712,0.1,-1.7,0,25,702.142,-2.79531,712.792,-0.736161,-0.605922,-1.63257,
2026_06_10_20_16_32.826,3.869,30.5,0,0.758,0,0,0,0, ,0,0,0,0,0, ,684.2,-1.9,716.6,0,-1,-2.2,25,701.155,-2.42083,712.884,-0.688254,-0.651264,-1.60012,
2026_06_10_20_16_32.846,3.869,30.5,0,0.758,0,0,0,0, ,0,0,0,0,0, ,698.9,2.3,719.1,-1,-1.2,-3,25,700.57,-2.26113,713.186,-0.676782,-0.678609,-1.66105,
2026_06_10_20_16_32.866,3.869,30.7,0,0.758,0,0,0,0, ,0,0,0,0,0, ,705.9,-0.4,718.6,-0.1,-1.2,-1.8,25,700.681,-2.06545,713.532,-0.669056,-0.710381,-1.70608,
2026_06_10_20_16_32.886,3.869,30.7,0,0.758,0,0,0,0, ,0,0,0,0,0, ,698.4,-3.4,713.3,-1,-2.1,-1.3,25,700.771,-2.05537,713.679,-0.661801,-0.767639,-1.69657,
2026_06_10_20_16_32.905,3.869,30.7,0,0.76,0,0,0,0, ,0,0,0,0,0, ,696.2,-0.6,700.4,-0.2,-0.6,-2.7,25,700.559,-2.05199,713.263,-0.658035,-0.803127,-1.71506,
2026_06_10_20_16_32.926,3.869,30.5,0,0.76,0,0,0,0, ,0,0,0,0,0, ,691.1,-1.8,706.6,0.4,0.3,-2.2,25,700.138,-2.00007,712.668,-0.611843,-0.763327,-1.75984,
2026_06_10_20_16_32.945,3.869,30.7,0,0.758,0,0,0,0, ,0,0,0,0,0, ,702.1,3.9,717.6,-0.7,0.7,-3.2,25,699.923,-1.81421,712.633,-0.583699,-0.686343,-1.81713,
2026_06_10_20_16_32.969,3.869,30.7,0,0.758,0,0,0,0, ,0,0,0,0,0, ,703.6,4.3,717.2,-0.8,0.3,-2.9,25,700.101,-1.45381,712.924,-0.593833,-0.61405,-1.89226,
2026_06_10_20_16_32.985,3.869,30.7,0,0.76,0,0,0,0, ,0,0,0,0,0, ,704.3,2.4,717.7,-0.2,-0.2,-1.5,25,700.335,-1.16108,713.2,-0.588115,-0.573584,-1.91101,
2026_06_10_20_16_33.004,3.869,30.5,0,0.758,0,0,0,0, ,0,0,0,0,0, ,692.9,-1.2,716.3,0.1,-0.4,-1.4,25,700.23,-1.05376,713.431,-0.555324,-0.556913,-1.88292,
2026_06_10_20_16_33.024,3.869,30.7,0,0.758,0,0,0,0, ,0,0,0,0,0, ,693.3,1.7,713,0.1,-0.3,-2.4,25,699.795,-0.974317,713.505,-0.51539,-0.544304,-1.88396,
2026_06_10_20_16_33.044,3.869,30.5,0,0.76,0,0,0,0, ,0,0,0,0,0, ,695.9,1.8,724.1,-0.5,-0.7,-2.4,25,699.479,-0.808304,713.813,-0.496171,-0.541604,-1.91541,
2026_06_10_20_16_33.064,3.869,30.5,0,0.758,0,0,0,0, ,0,0,0,0,0, ,699.9,-1.3,724.7,-1.7,-2.1,-2.6,25,699.382,-0.743813,714.458,-0.532967,-0.593913,-1.95103,
2026_06_10_20_16_33.084,3.869,30.7,0,0.758,0,0,0,0, ,0,0,0,0,0, ,701.6,12.8,708.9,-2.5,-1.8,-3.7,25,699.466,-0.348096,714.601,-0.628458,-0.676549,-2.02409,
2026_06_10_20_16_33.104,3.869,30.7,0,0.76,0,0,0,0, ,0,0,0,0,0, ,687.9,-0.1,707.3,-1.2,-2.9,-1.4,25,699.178,0.0600687,714.205,-0.702895,-0.778525,-2.05614,
2026_06_10_20_16_33.123,3.869,30.5,0,0.758,0,0,0,0, ,0,0,0,0,0, ,697,5,708.7,-0.7,-0.9,-2.6,25,698.768,0.205705,713.826,-0.717953,-0.846865,-2.05272,
2026_06_10_20_16_33.143,3.869,30.8,0,0.758,0,0,0,0, ,0,0,0,0,0, ,708,2.3,711.3,-1.2,0,-2.2,25,698.996,0.415592,713.593,-0.732094,-0.822681,-2.07388,
2026_06_10_20_16_33.163,3.869,30.8,0,0.758,0,0,0,0, ,0,0,0,0,0, ,710.9,3.5,711.9,-1.5,-0.6,-1.1,25,699.633,0.566985,713.472,-0.769747,-0.79083,-2.04805,
2026_06_10_20_16_33.183,3.869,30.7,0,0.76,0,0,0,0, ,0,0,0,0,0, ,693.8,2.8,703.1,-0.9,0,-1.2,25,699.798,0.724388,713.108,-0.795966,-0.76092,-1.99333,
2026_06_10_20_16_33.202,3.869,30.7,0,0.758,0,0,0,0, ,0,0,0,0,0, ,694.5,1.3,704.8,-0.2,1,-2,25,699.454,0.805167,712.55,-0.780977,-0.684083,-1.96936,
2026_06_10_20_16_33.222,3.869,30.7,0,0.76,0,0,0,0, ,0,0,0,0,0, ,704.2,-0.9,720.2,-0.3,1.8,-2,25,699.448,0.76829,712.547,-0.748621,-0.557084,-1.97123,
2026_06_10_20_16_33.242,3.869,30.7,0,0.76,0,0,0,0, ,0,0,0,0,0, ,701.9,0.4,719.3,-0.8,0.2,-1.3,25,699.667,0.706238,712.986,-0.736517,-0.462199,-1.95165,
2026_06_10_20_16_33.262,3.869,30.5,0,0.758,0,0,0,0, ,0,0,0,0,0, ,693.2,2.3,712.7,-0.4,-0.4,-1,25,699.538,0.745467,713.169,-0.728198,-0.440128,-1.9028,
2026_06_10_20_16_33.282,3.869,30.5,0,0.758,0,0,0,0, ,0,0,0,0,0, ,691.7,0.7,713,-0.2,0.1,-1.8,25,699.106,0.791447,713.15,-0.702105,-0.422448,-1.87216,
2026_06_10_20_16_33.301,3.869,30.7,0,0.758,0,0,0,0, ,0,0,0,0,0, ,696,1.8,717.7,-0.9,0.2,-2.5,25,698.786,0.81939,713.284,-0.692836,-0.387565,-1.88909,
2026_06_10_20_16_33.321,3.869,30.8,0,0.76,0,0,0,0, ,0,0,0,0,0, ,701.9,0.1,727.4,-1.7,-0.4,-2.7,25,698.796,0.827349,713.849,-0.729835,-0.370041,-1.93241,
2026_06_10_20_16_33.341,3.869,30.5,0,0.76,0,0,0,0, ,0,0,0,0,0, ,702.2,-0.3,719.3,-1.2,-2.2,-1.6,25,698.994,0.770838,714.428,-0.77372,-0.426711,-1.94567,
2026_06_10_20_16_33.365,3.869,30.5,0,0.759,0,0,0,0, ,0,0,0,0,0, ,694.5,3,707.7,-0.5,-2.2,-2.5,25,698.955,0.806131,714.371,-0.778369,-0.53477,-1.95203,
2026_06_10_20_16_33.380,3.869,30.7,0,0.76,0,0,0,0, ,0,0,0,0,0, ,695.9,-1.2,712.1,-1.6,-2,-2.1,25,698.726,0.811851,714.099,-0.794921,-0.630152,-1.97323,
2026_06_10_20_16_33.401,3.869,30.8,0,0.759,0,0,0,0, ,0,0,0,0,0, ,690.4,2.8,710.5,-0.9,-0.3,-2.5,25,698.386,0.811129,713.928,-0.822652,-0.66183,-1.99315,
2026_06_10_20_16_33.421,3.869,30.8,0,0.759,0,0,0,0, ,0,0,0,0,0, ,707.8,1.9,717.1,-1.3,-0.1,-3.2,25,698.43,0.904904,713.92,-0.839553,-0.633687,-2.04536,
2026_06_10_20_16_33.440,3.869,30.7,0,0.759,0,0,0,0, ,0,0,0,0,0, ,709.8,0.4,712.7,-1,-1.5,-1.1,25,699.062,0.919839,713.98,-0.858471,-0.643822,-2.05174,
2026_06_10_20_16_33.460,3.869,30.9,0,0.759,0,0,0,0, ,0,0,0,0,0, ,705,-23.8,703.3,-0.2,-0.5,-2.7,25,699.57,0.150818,713.616,-0.842721,-0.665526,-2.04249,
2026_06_10_20_16_33.480,3.869,30.7,0,0.759,0,0,0,0, ,0,0,0,0,0, ,689,12.4,725.3,0,-0.9,-1.2,25,699.413,-0.205716,713.657,-0.797461,-0.667627,-2.03685,
2026_06_10_20_16_33.500,3.869,30.8,0,0.759,0,0,0,0, ,0,0,0,0,0, ,696.5,6.2,715.4,-0.4,-1.1,-2.1,25,699.007,0.373538,714.065,-0.761053,-0.687881,-2.01328,
2026_06_10_20_16_33.519,3.869,30.8,0,0.76,0,0,0,0, ,0,0,0,0,0, ,703,3.6,718.7,-0.4,-1.6,-2.2,25,699.053,0.64937,714.247,-0.739052,-0.728229,-2.02161,
2026_06_10_20_16_33.539,3.869,30.8,0,0.758,0,0,0,0, ,0,0,0,0,0, ,707.7,-0.4,713.2,-1,-2.5,-1.6,25,699.436,0.707299,714.351,-0.736672,-0.808774,-2.0142,
2026_06_10_20_16_33.559,3.869,30.8,0,0.759,0,0,0,0, ,0,0,0,0,0, ,696.6,14.7,694.3,-1,-0.9,-2.7,25,699.602,1.0999,713.705,-0.752718,-0.863083,-2.02248,
2026_06_10_20_16_33.579,3.869,30.8,0,0.76,0,0,0,0, ,0,0,0,0,0, ,692.9,2.5,709.9,0.3,-0.2,-1.7,25,699.306,1.55694,712.998,-0.728178,-0.844005,-2.03329,
2026_06_10_20_16_33.598,3.869,30.8,0,0.76,0,0,0,0, ,0,0,0,0,0, ,704.7,5.3,716.7,0.2,0.2,-2.3,25,699.275,1.69972,713.016,-0.66857,-0.792573,-2.03127,
2026_06_10_20_16_33.622,3.869,30.7,0,0.761,0,0,0,0, ,0,0,0,0,0, ,705.9,1.4,714.9,0.6,-0.3,-0.9,25,699.642,1.80028,713.186,-0.603454,-0.747323,-2.00499,
2026_06_10_20_16_33.639,3.869,30.7,0,0.757,0,0,0,0, ,0,0,0,0,0, ,696.2,0.9,703.6,0.2,-0.3,-1.2,25,699.728,1.76066,712.946,-0.542306,-0.720064,-1.94679,
2026_06_10_20_16_33.658,3.869,30.7,0,0.758,0,0,0,0, ,0,0,0,0,0, ,697.1,2.8,717.6,0.2,0,-1.8,25,699.541,1.7661,712.803,-0.497072,-0.685326,-1.91956,
2026_06_10_20_16_33.678,3.869,30.8,0,0.758,0,0,0,0, ,0,0,0,0,0, ,695.6,4.1,717.8,0,-0.5,-1.9,25,699.346,1.86871,713.101,-0.460688,-0.658798,-1.91533,
2026_06_10_20_16_33.698,3.869,30.7,0,0.758,0,0,0,0, ,0,0,0,0,0, ,698.9,2,713.8,0.4,0.1,-2.2,25,699.218,1.9407,713.266,-0.420427,-0.63084,-1.92353,
2026_06_10_20_16_33.718,3.869,30.7,0,0.76,0,0,0,0, ,0,0,0,0,0, ,713.3,-17.2,713.1,0,-0.2,-4.6,25,699.638,1.35931,713.277,-0.38262,-0.595445,-2.0135,
2026_06_10_20_16_33.737,3.869,30.8,0,0.761,0,0,0,0, ,0,0,0,0,0, ,701.7,10.7,707.8,0.2,-1.3,-0.3,25,700.117,1.07843,713.105,-0.35321,-0.604863,-2.0401,
2026_06_10_20_16_33.757,3.869,30.8,0,0.758,0,0,0,0, ,0,0,0,0,0, ,691.2,-3.4,702.2,0.5,0,-3.1,25,699.893,1.23514,712.611,-0.310358,-0.607614,-2.01938,
2026_06_10_20_16_33.777,3.869,30.8,0,0.758,0,0,0,0, ,0,0,0,0,0, ,693.9,15.5,714.3,1,0.1,-2.5,25,699.446,1.52854,712.345,-0.245743,-0.567541,-2.06695,
2026_06_10_20_16_33.797,3.869,30.8,0,0.758,0,0,0,0, ,0,0,0,0,0, ,703.6,11.7,715.9,0,0.8,-3.4,25,699.404,2.26415,712.513,-0.200299,-0.505534,-2.12076,
2026_06_10_20_16_33.817,3.869,30.8,0,0.76,0,0,0,0, ,0,0,0,0,0, ,706.9,12.9,716.5,-1.4,-0.5,-2.3,25,699.76,2.87571,712.738,-0.23075,-0.465588,-2.1652,
2026_06_10_20_16_33.836,3.869,30.9,0,0.76,0,0,0,0, ,0,0,0,0,0, ,698.2,5.8,709.5,-0.7,-0.2,-1.7,25,699.93,3.27023,712.754,-0.280673,-0.458544,-2.15513,
2026_06_10_20_16_33.856,3.869,30.9,0,0.76,0,0,0,0, ,0,0,0,0,0, ,699,3,707.7,0.4,0,-1.9,25,699.849,3.33908,712.501,-0.27271,-0.436695,-2.13349,
2026_06_10_20_16_33.876,3.869,30.7,0,0.76,0,0,0,0, ,0,0,0,0,0, ,697.8,10.3,711.3,-0.2,0.8,-2.4,25,699.76,3.54084,712.318,-0.249998,-0.385709,-2.1345,
2026_06_10_20_16_33.896,3.869,30.9,0,0.76,0,0,0,0, ,0,0,0,0,0, ,701.5,9.7,713.3,-0.2,1.5,-2.5,25,699.754,3.93444,712.317,-0.246951,-0.292127,-2.15372,
2026_06_10_20_16_33.916,3.869,30.8,0,0.761,0,0,0,0, ,0,0,0,0,0, ,699.9,8.4,709.8,-0.3,1.8,-2.3,25,699.811,4.24617,712.27,-0.247137,-0.173778,-2.16873,
2026_06_10_20_16_33.935,3.869,31,0,0.758,0,0,0,0, ,0,0,0,0,0, ,702,7.6,713.3,0,2.1,-2,25,699.881,4.47492,712.226,-0.241218,-0.0443607,-2.16759,
2026_06_10_20_16_33.955,3.869,30.9,0,0.76,0,0,0,0, ,0,0,0,0,0, ,693.6,11.2,714.1,0,1.8,-2,25,699.754,4.77504,712.316,-0.226518,0.0771706,-2.15738,
2026_06_10_20_16_33.976,3.869,30.9,0,0.758,0,0,0,0, ,0,0,0,0,0, ,694.3,11.5,723.1,0.1,0.9,-2.7,25,699.4,5.1757,712.699,-0.209668,0.154734,-2.16911,
2026_06_10_20_16_33.995,3.869,30.8,0,0.76,0,0,0,0, ,0,0,0,0,0, ,702.6,12.2,725.7,0,-0.3,-3,25,699.342,5.58242,713.412,-0.193845,0.163586,-2.2106,
2026_06_10_20_16_34.015,3.869,30.8,0,0.76,0,0,0,0, ,0,0,0,0,0, ,696.5,10.7,717.7,0,-1.4,-2.1,25,699.355,5.93997,713.917,-0.182032,0.10182,-2.23129,
2026_06_10_20_16_34.035,3.869,30.8,0,0.758,0,0,0,0, ,0,0,0,0,0, ,692.3,10.9,704.7,-0.7,-0.6,-2.1,25,699.053,6.23613,713.751,-0.192268,0.0346783,-2.22329,
2026_06_10_20_16_34.055,3.869,30.8,0,0.76,0,0,0,0, ,0,0,0,0,0, ,698.9,10.4,713.1,0.5,0.5,-2.9,25,698.843,6.5051,713.456,-0.186645,0.0295182,-2.24015,
2026_06_10_20_16_34.074,3.869,30.8,0,0.758,0,0,0,0, ,0,0,0,0,0, ,702.3,10.2,719.3,0.2,0.5,-2.2,25,698.95,6.73635,713.623,-0.153943,0.0581882,-2.25903,
2026_06_10_20_16_34.094,3.869,30.8,0,0.758,0,0,0,0, ,0,0,0,0,0, ,693.8,11.2,718.5,0,0.1,-1.2,25,698.895,6.97789,713.945,-0.138469,0.0729236,-2.22496,
2026_06_10_20_16_34.114,3.869,30.9,0,0.76,0,0,0,0, ,0,0,0,0,0, ,689.2,8.7,713.8,0.2,1.5,-1.4,25,698.444,7.159,714.079,-0.123937,0.11723,-2.1686,
2026_06_10_20_16_34.140,3.869,30.8,0,0.76,0,0,0,0, ,0,0,0,0,0, ,694.5,10.6,709.1,0.4,2,-1.6,25,698.042,7.3108,713.919,-0.0981033,0.216727,-2.12786,
2026_06_10_20_16_34.153,3.869,30.9,0,0.76,0,0,0,0, ,0,0,0,0,0, ,687.8,13.6,707.5,2,4.1,-2.2,25,697.622,7.60264,713.576,-0.0190001,0.389379,-2.11397,
2026_06_10_20_16_34.172,3.869,30.9,0,0.76,0,0,0,0, ,0,0,0,0,0, ,698.9,12.4,739.9,0.6,2.5,-2.5,25,697.362,7.93154,714.193,0.0613764,0.566745,-2.12835,
2026_06_10_20_16_34.193,3.869,30.8,0,0.758,0,0,0,0, ,0,0,0,0,0, ,694.3,14.4,730.3,0.6,0.4,-1.3,25,697.316,8.26477,715.467,0.0941988,0.620569,-2.11444,
2026_06_10_20_16_34.213,3.869,30.9,0,0.76,0,0,0,0, ,0,0,0,0,0, ,686.6,14.5,724.9,0.7,-0.3,-2.4,25,696.897,8.64169,716.207,0.128068,0.5858,-2.09832,
2026_06_10_20_16_34.233,3.869,30.8,0,0.758,0,0,0,0, ,0,0,0,0,0, ,694.8,14.4,716,0.2,-0.2,-3.6,25,696.52,8.99563,716.465,0.147686,0.534868,-2.15327,
2026_06_10_20_16_34.252,3.869,30.9,0,0.758,0,0,0,0, ,0,0,0,0,0, ,692.9,12.3,719.9,0.3,-0.7,-1.6,25,696.357,9.26098,716.556,0.15392,0.474853,-2.18049,
2026_06_10_20_16_34.272,3.869,30.9,0,0.76,0,0,0,0, ,0,0,0,0,0, ,684,15.1,722.9,1.5,-0.7,-2.2,25,695.875,9.53148,716.851,0.199385,0.40326,-2.1634,
2026_06_10_20_16_34.292,3.869,30.8,0,0.758,0,0,0,0, ,0,0,0,0,0, ,692.6,15.2,731.4,-0.5,-1.2,-3,25,695.414,9.87386,717.478,0.217703,0.320796,-2.19001,
2026_06_10_20_16_34.312,3.869,30.9,0,0.76,0,0,0,0, ,0,0,0,0,0, ,696.2,17.9,723.2,-1.5,-2.9,-1.9,25,695.352,10.2807,718.077,0.1435,0.176325,-2.20585,
2026_06_10_20_16_34.332,3.869,30.8,0,0.76,0,0,0,0, ,0,0,0,0,0, ,693.1,15.3,712.6,-1.7,-3,-1.6,25,695.309,10.6658,718.066,0.0372551,-0.014185,-2.17807,
2026_06_10_20_16_34.352,3.869,30.8,0,0.76,0,0,0,0, ,0,0,0,0,0, ,694.7,13.9,704.1,-0.6,-1.8,-1.8,25,695.223,10.9055,717.474,-0.0350932,-0.159571,-2.14894,
2026_06_10_20_16_34.371,3.869,30.8,0,0.761,0,0,0,0, ,0,0,0,0,0, ,698.9,13.5,712.6,-0.1,-0.7,-1.7,25,695.319,11.0758,716.918,-0.0542829,-0.226019,-2.12463,
2026_06_10_20_16_34.392,3.869,30.8,0,0.757,0,0,0,0, ,0,0,0,0,0, ,689.5,45.1,713,-0.4,1,-5,25,695.251,12.1863,716.667,-0.0662094,-0.203105,-2.1993,
2026_06_10_20_16_34.411,3.869,30.9,0,0.759,0,0,0,0, ,0,0,0,0,0, ,688.9,27.3,715.4,0.3,0,0.1,25,694.882,13.6497,716.517,-0.0652216,-0.16026,-2.21458,
2026_06_10_20_16_34.431,3.869,30.9,0,0.758,0,0,0,0, ,0,0,0,0,0, ,688.5,21.9,715.9,0,1.3,-2.7,25,694.506,14.317,716.464,-0.0521065,-0.110884,-2.15884,
2026_06_10_20_16_34.450,3.869,30.8,0,0.758,0,0,0,0, ,0,0,0,0,0, ,698.9,21.2,725.4,-0.1,0.4,-1.8,25,694.456,14.7577,716.719,-0.0519782,-0.0523305,-2.1644,
2026_06_10_20_16_34.471,3.869,30.9,0,0.76,0,0,0,0, ,0,0,0,0,0, ,688.2,19,724.9,-0.6,-0.4,-1.5,25,694.401,15.0833,717.233,-0.0701389,-0.0491416,-2.13305,
2026_06_10_20_16_34.490,3.869,30.8,0,0.758,0,0,0,0, ,0,0,0,0,0, ,695.5,14.4,722.5,-1,-1,-1.6,25,694.246,15.1818,717.627,-0.114615,-0.0888033,-2.09752,
2026_06_10_20_16_34.510,3.869,30.8,0,0.76,0,0,0,0, ,0,0,0,0,0, ,688.7,16.4,714.8,-0.3,-0.9,-1.6,25,694.115,15.1951,717.689,-0.14724,-0.141282,-2.06721,
2026_06_10_20_16_34.529,3.869,30.8,0,0.76,0,0,0,0, ,0,0,0,0,0, ,693.9,15.6,727.1,-1.1,-1.1,-2.4,25,693.943,15.2441,717.888,-0.180924,-0.193611,-2.06311,
2026_06_10_20_16_34.549,3.869,30.8,0,0.758,0,0,0,0, ,0,0,0,0,0, ,700.6,16.7,716.5,-1.4,-2.2,-1.6,25,694.145,15.2993,718.126,-0.24607,-0.282359,-2.05926,
2026_06_10_20_16_34.569,3.869,30.9,0,0.76,0,0,0,0, ,0,0,0,0,0, ,693.6,15.7,706.4,-0.4,-1.5,-1.3,25,694.325,15.3542,717.72,-0.285919,-0.377887,-2.02214,
2026_06_10_20_16_34.590,3.869,30.8,0,0.76,0,0,0,0, ,0,0,0,0,0, ,689.8,20.8,716.9,0,-0.7,-1.7,25,694.165,15.5307,717.35,-0.280684,-0.421891,-1.99032,
2026_06_10_20_16_34.609,3.869,30.8,0,0.758,0,0,0,0, ,0,0,0,0,0, ,694,18.6,721.3,-0.3,-0.8,-2.2,25,694.027,15.7847,717.456,-0.27272,-0.441885,-1.98786,
2026_06_10_20_16_34.629,3.869,30.8,0,0.76,0,0,0,0, ,0,0,0,0,0, ,695.6,18.3,719.3,-0.2,-0.8,-1.9,25,694.074,15.9472,717.63,-0.271336,-0.463708,-1.99165,
2026_06_10_20_16_34.649,3.869,30.8,0,0.757,0,0,0,0, ,0,0,0,0,0, ,697.7,16.8,709.7,-0.3,-0.9,-2,25,694.231,16.0448,717.439,-0.270035,-0.487248,-1.98911,
2026_06_10_20_16_34.669,3.869,30.8,0,0.757,0,0,0,0, ,0,0,0,0,0, ,699.8,16.7,715.4,0,-0.5,-1.3,25,694.506,16.0878,717.141,-0.262721,-0.500212,-1.96845,
2026_06_10_20_16_34.689,3.869,30.8,0,0.758,0,0,0,0, ,0,0,0,0,0, ,689.4,17.4,722.1,0,-0.9,-1.1,25,694.512,16.1464,717.239,-0.246711,-0.512387,-1.92162,
2026_06_10_20_16_34.709,3.869,30.8,0,0.758,0,0,0,0, ,0,0,0,0,0, ,692.7,9.1,712.1,-0.8,-1.2,-2.6,25,694.301,15.9699,717.231,-0.256052,-0.545148,-1.91726,
2026_06_10_20_16_34.728,3.869,30.9,0,0.76,0,0,0,0, ,0,0,0,0,0, ,690.7,39.3,726.6,-1.2,-0.7,-3,25,694.143,16.4715,717.36,-0.301387,-0.569818,-1.97105,
2026_06_10_20_16_34.748,3.869,30.9,0,0.759,0,0,0,0, ,0,0,0,0,0, ,692.8,18.4,714.5,-0.8,-1.7,-2.1,25,693.997,17.2258,717.554,-0.343958,-0.60822,-2.00633,
2026_06_10_20_16_34.768,3.869,30.8,0,0.761,0,0,0,0, ,0,0,0,0,0, ,700.9,17.7,706.4,-0.4,-0.7,-2.1,25,694.171,17.276,717.121,-0.359561,-0.644282,-2.01204,
2026_06_10_20_16_34.787,3.869,30.8,0,0.757,0,0,0,0, ,0,0,0,0,0, ,700.6,12.3,714.8,-0.3,0,-2.3,25,694.572,17.1373,716.724,-0.358978,-0.626349,-2.02349,
2026_06_10_20_16_34.807,3.869,30.9,0,0.758,0,0,0,0, ,0,0,0,0,0, ,696.2,23.5,719.1,-0.3,-0.3,-1.8,25,694.805,17.1838,716.738,-0.355384,-0.597321,-2.0251,
2026_06_10_20_16_34.827,3.869,30.9,0,0.76,0,0,0,0, ,0,0,0,0,0, ,690.7,21.7,712.2,-0.6,0,-1.8,25,694.722,17.5138,716.671,-0.36115,-0.570063,-2.01139,
2026_06_10_20_16_34.846,3.869,30.8,0,0.76,0,0,0,0, ,0,0,0,0,0, ,697.7,20.6,713.1,-0.1,0.7,-1.9,25,694.691,17.7354,716.426,-0.36047,-0.513996,-2.00155,
2026_06_10_20_16_34.867,3.869,30.8,0,0.76,0,0,0,0, ,0,0,0,0,0, ,696.6,20.1,709.7,0.2,1.3,-1.8,25,694.84,17.8947,716.12,-0.335457,-0.421737,-1.99232,
2026_06_10_20_16_34.887,3.869,30.8,0,0.76,0,0,0,0, ,0,0,0,0,0, ,698.8,21.2,712.2,0.3,1.6,-1.7,25,695.015,18.0626,715.805,-0.299781,-0.307678,-1.97755,
2026_06_10_20_16_34.910,3.869,30.8,0,0.758,0,0,0,0, ,0,0,0,0,0, ,692.3,23.9,729.8,0,1.3,-1.4,25,695.047,18.3361,716.122,-0.272373,-0.20057,-1.9515,
2026_06_10_20_16_34.930,3.869,30.8,0,0.76,0,0,0,0, ,0,0,0,0,0, ,686.8,19.8,724.6,-0.5,0.2,-1.9,25,694.712,18.5502,716.797,-0.271009,-0.142644,-1.93313,
2026_06_10_20_16_34.945,3.869,30.8,0,0.759,0,0,0,0, ,0,0,0,0,0, ,695.1,20,723.7,-0.3,-0.9,-2.6,25,694.483,18.6325,717.245,-0.27887,-0.15528,-1.95243,
2026_06_10_20_16_34.966,3.869,30.8,0,0.761,0,0,0,0, ,0,0,0,0,0, ,694.4,23.4,725,-1.1,-2,-1.9,25,694.499,18.8194,717.678,-0.304532,-0.234177,-1.97057,
2026_06_10_20_16_34.985,3.869,30.8,0,0.761,0,0,0,0, ,0,0,0,0,0, ,691,20,714.9,-1.2,-2.5,-1.8,25,694.39,18.9949,717.816,-0.356053,-0.357016,-1.96322,
2026_06_10_20_16_35.005,3.869,30.8,0,0.76,0,0,0,0, ,0,0,0,0,0, ,691.1,21.2,714.3,-1.1,-1.6,-2.5,25,694.186,19.0927,717.62,-0.404434,-0.460182,-1.9746,
2026_06_10_20_16_35.025,3.869,30.8,0,0.758,0,0,0,0, ,0,0,0,0,0, ,701.1,20.7,717,-1.3,-1.4,-2.5,25,694.303,19.2059,717.5,-0.452914,-0.523546,-2.00662,
2026_06_10_20_16_35.045,3.869,30.9,0,0.759,0,0,0,0, ,0,0,0,0,0, ,698.2,20.2,716.4,-1.5,-1.9,-1.4,25,694.629,19.2817,717.451,-0.510627,-0.59219,-2.00317,
2026_06_10_20_16_35.064,3.869,30.8,0,0.759,0,0,0,0, ,0,0,0,0,0, ,695.9,20.9,706.2,-0.5,-1.4,-1.9,25,694.776,19.359,717.077,-0.540448,-0.65665,-1.98165,
2026_06_10_20_16_35.084,3.869,30.8,0,0.76,0,0,0,0, ,0,0,0,0,0, ,690.7,18.7,711.4,0,-0.2,-1.6,25,694.686,19.3859,716.572,-0.522749,-0.665385,-1.96753,
2026_06_10_20_16_35.104,3.869,30.8,0,0.759,0,0,0,0, ,0,0,0,0,0, ,695.6,23.6,715,-0.5,0.5,-2.6,25,694.593,19.4934,716.367,-0.506128,-0.615698,-1.9756,
2026_06_10_20_16_35.124,3.869,30.8,0,0.759,0,0,0,0, ,0,0,0,0,0, ,704.9,21.8,713,-0.5,0.6,-2.5,25,694.937,19.6888,716.222,-0.505755,-0.544663,-2.01061,
2026_06_10_20_16_35.144,3.869,30.8,0,0.759,0,0,0,0, ,0,0,0,0,0, ,696.8,22.5,716,-0.2,0.3,-1.1,25,695.298,19.8388,716.117,-0.496264,-0.484051,-1.99777,
2026_06_10_20_16_35.163,3.869,30.8,0,0.757,0,0,0,0, ,0,0,0,0,0, ,690.6,19.7,717.2,-0.2,0.5,-1.9,25,695.2,19.9156,716.147,-0.47821,-0.430179,-1.96744,
2026_06_10_20_16_35.183,3.869,30.9,0,0.759,0,0,0,0, ,0,0,0,0,0, ,696.2,21.7,718.3,0,0.5,-2,25,695.091,19.9634,716.245,-0.455163,-0.373496,-1.96638,
2026_06_10_20_16_35.203,3.869,30.8,0,0.758,0,0,0,0, ,0,0,0,0,0, ,694.8,22.5,729,-0.4,-0.1,-1.5,25,695.116,20.0936,716.696,-0.439614,-0.338549,-1.95319,
2026_06_10_20_16_35.223,3.869,30.8,0,0.759,0,0,0,0, ,0,0,0,0,0, ,691.6,20.9,721.9,-1.2,-1.7,-1.4,25,694.999,20.1915,717.229,-0.461575,-0.372762,-1.92253,
2026_06_10_20_16_35.244,3.869,30.8,0,0.757,0,0,0,0, ,0,0,0,0,0, ,691.5,18.7,716,-0.9,-2,-2.1,25,694.789,20.1677,717.334,-0.497432,-0.462781,-1.91201,
2026_06_10_20_16_35.263,3.869,30.8,0,0.757,0,0,0,0, ,0,0,0,0,0, ,702.1,13.3,712.5,-1,-0.7,-4.9,25,694.911,19.9137,717.146,-0.52501,-0.516846,-2.00878,
2026_06_10_20_16_35.282,3.869,30.8,0,0.759,0,0,0,0, ,0,0,0,0,0, ,695,19.5,723.7,-0.9,-2.7,-1.1,25,695.133,19.6996,717.204,-0.550908,-0.588945,-2.06918,
2026_06_10_20_16_35.302,3.869,30.9,0,0.76,0,0,0,0, ,0,0,0,0,0, ,698.6,19.7,712.2,-1.4,-2,-2.2,25,695.235,19.6935,717.25,-0.587415,-0.696259,-2.04364,
2026_06_10_20_16_35.324,3.869,30.9,0,0.761,0,0,0,0, ,0,0,0,0,0, ,696.6,26.6,704.8,-1.3,-1.3,-2.2,25,695.379,19.9041,716.717,-0.633885,-0.754378,-2.05317,
2026_06_10_20_16_35.342,3.869,30.8,0,0.759,0,0,0,0, ,0,0,0,0,0, ,696,21.4,705.6,-0.1,0,-1.9,25,695.435,20.1537,716.015,-0.637914,-0.748017,-2.05298,
2026_06_10_20_16_35.361,3.869,30.8,0,0.76,0,0,0,0, ,0,0,0,0,0, ,696.4,24.5,713,0.1,1,-2,25,695.481,20.3241,715.606,-0.599041,-0.671966,-2.0467,
2026_06_10_20_16_35.382,3.869,30.8,0,0.76,0,0,0,0, ,0,0,0,0,0, ,695.9,26.7,718.2,0,1.2,-1.5,25,695.522,20.6456,715.605,-0.55949,-0.563987,-2.02862,
2026_06_10_20_16_35.402,3.869,30.8,0,0.76,0,0,0,0, ,0,0,0,0,0, ,697.5,23.1,722.6,-0.2,0.6,-1.3,25,695.594,20.9049,715.897,-0.53149,-0.474775,-1.99031,
2026_06_10_20_16_35.422,3.869,30.9,0,0.756,0,0,0,0, ,0,0,0,0,0, ,689.8,21.9,721.9,-0.5,-0.3,-1.4,25,695.476,21.0021,716.285,-0.520431,-0.436703,-1.95129,
2026_06_10_20_16_35.441,3.869,30.8,0,0.757,0,0,0,0, ,0,0,0,0,0, ,693.9,22.9,717.2,-1,-1.1,-2,25,695.255,21.0873,716.484,-0.53442,-0.452748,-1.93598,
2026_06_10_20_16_35.461,3.869,30.9,0,0.76,0,0,0,0, ,0,0,0,0,0, ,696.1,25.7,710.9,-0.6,-0.2,-1.8,25,695.239,21.283,716.335,-0.550604,-0.464768,-1.93379,
2026_06_10_20_16_35.481,3.869,30.8,0,0.757,0,0,0,0, ,0,0,0,0,0, ,696.1,24.7,706.9,0,0.7,-1.8,25,695.292,21.5217,715.882,-0.535333,-0.421212,-1.92564,
2026_06_10_20_16_35.500,3.869,30.8,0,0.758,0,0,0,0, ,0,0,0,0,0, ,697.9,22,709.4,0,1.7,-2.1,25,695.396,21.6331,715.411,-0.502711,-0.322419,-1.92712,
2026_06_10_20_16_35.520,3.869,30.9,0,0.759,0,0,0,0, ,0,0,0,0,0, ,693.7,22,716.3,0.2,2.1,-2,25,695.42,21.6555,715.255,-0.465983,-0.18699,-1.93461,
2026_06_10_20_16_35.540,3.869,30.8,0,0.76,0,0,0,0, ,0,0,0,0,0, ,694.2,23,720.9,-0.3,1.7,-2.6,25,695.331,21.707,715.459,-0.440634,-0.0598143,-1.95687,
2026_06_10_20_16_35.559,3.869,30.8,0,0.759,0,0,0,0, ,0,0,0,0,0, ,696,21.4,728.3,-0.5,0.6,-1.9,25,695.317,21.737,716.016,-0.438158,0.0139087,-1.97474,
2026_06_10_20_16_35.579,3.869,30.8,0,0.76,0,0,0,0, ,0,0,0,0,0, ,686.8,21.7,722.2,0,-0.6,-1.7,25,695.078,21.7256,716.579,-0.426692,0.0130612,-1.96409,
2026_06_10_20_16_35.599,3.869,30.8,0,0.76,0,0,0,0, ,0,0,0,0,0, ,687.2,21.7,726.3,-0.2,-1.2,-2.2,25,694.586,21.724,717.046,-0.406784,-0.0425785,-1.96323,
2026_06_10_20_16_35.620,3.869,30.9,0,0.759,0,0,0,0, ,0,0,0,0,0, ,696.6,25,719.1,-0.8,-2.1,-2.1,25,694.422,21.8231,717.391,-0.412465,-0.140531,-1.97461,
2026_06_10_20_16_35.640,3.869,30.8,0,0.758,0,0,0,0, ,0,0,0,0,0, ,694.4,25.3,721.8,-1.2,-2.3,-1.9,25,694.488,22.0259,717.577,-0.448268,-0.26603,-1.97616,
2026_06_10_20_16_35.659,3.869,30.8,0,0.76,0,0,0,0, ,0,0,0,0,0, ,696.5,24.6,708.4,-0.5,-1.8,-1.8,25,694.546,22.204,717.426,-0.472748,-0.37474,-1.96847,
2026_06_10_20_16_35.679,3.869,30.9,0,0.759,0,0,0,0, ,0,0,0,0,0, ,695.9,25.7,709.7,0.7,0,-1.5,25,694.647,22.3836,716.916,-0.437846,-0.406748,-1.94906,
2026_06_10_20_16_35.699,3.869,30.9,0,0.759,0,0,0,0, ,0,0,0,0,0, ,694.4,27.4,722.2,-0.1,0.3,-1.9,25,694.678,22.6375,716.857,-0.392884,-0.372821,-1.93389,
2026_06_10_20_16_35.719,3.869,30.8,0,0.759,0,0,0,0, ,0,0,0,0,0, ,693.1,27.3,727.1,-1.2,-0.7,-1.2,25,694.621,22.9246,717.332,-0.408552,-0.36229,-1.91049,
2026_06_10_20_16_35.739,3.869,30.9,0,0.759,0,0,0,0, ,0,0,0,0,0, ,688.8,26.4,712.8,-1.3,-0.8,-2.1,25,694.398,23.1638,717.491,-0.459828,-0.385916,-1.89462,
2026_06_10_20_16_35.758,3.869,30.8,0,0.76,0,0,0,0, ,0,0,0,0,0, ,701.4,24.4,713.7,-0.7,-0.2,-2,25,694.44,23.3001,717.233,-0.492744,-0.392868,-1.90409,
2026_06_10_20_16_35.778,3.869,30.8,0,0.76,0,0,0,0, ,0,0,0,0,0, ,692.9,24.6,710.2,-0.1,0,-1.3,25,694.605,23.3732,716.911,-0.487093,-0.375022,-1.8886,
2026_06_10_20_16_35.798,3.869,30.8,0,0.759,0,0,0,0, ,0,0,0,0,0, ,692.2,22.5,708.4,0,1.2,-2.1,25,694.48,23.384,716.447,-0.460457,-0.315606,-1.87711,
2026_06_10_20_16_35.818,3.869,30.8,0,0.76,0,0,0,0, ,0,0,0,0,0, ,702.1,24.9,718.3,0.1,1.9,-2.1,25,694.643,23.4032,716.258,-0.429351,-0.201921,-1.89069,
2026_06_10_20_16_35.837,3.869,30.7,0,0.76,0,0,0,0, ,0,0,0,0,0, ,695.1,28.4,722.5,-0.1,1.2,-1.4,25,694.884,23.6011,716.511,-0.403188,-0.0951632,-1.88212,
2026_06_10_20_16_35.857,3.869,30.8,0,0.76,0,0,0,0, ,0,0,0,0,0, ,689.9,29.2,723,0,0.8,-1.5,25,694.739,23.9179,716.891,-0.381665,-0.0284267,-1.85579,
2026_06_10_20_16_35.877,3.869,30.9,0,0.759,0,0,0,0, ,0,0,0,0,0, ,685.3,26.4,724.4,0.1,0.9,-2.1,25,694.304,24.1545,717.306,-0.355361,0.0251025,-1.85239,
2026_06_10_20_16_35.898,3.869,30.9,0,0.76,0,0,0,0, ,0,0,0,0,0, ,689.9,26.3,725.2,-0.1,0.2,-2.8,25,693.895,24.2883,717.763,-0.333706,0.0570884,-1.88881,
2026_06_10_20_16_35.917,3.869,30.8,0,0.759,0,0,0,0, ,0,0,0,0,0, ,694.7,29.4,730.5,-0.7,-1.4,-2.7,25,693.798,24.5053,718.377,-0.337746,0.0170471,-1.94128,
2026_06_10_20_16_35.937,3.869,30.8,0,0.76,0,0,0,0, ,0,0,0,0,0, ,694.5,28.3,718.9,-1.3,-2.7,-2.5,25,693.847,24.7701,718.763,-0.378102,-0.108914,-1.98142,
2026_06_10_20_16_35.956,3.869,30.8,0,0.76,0,0,0,0, ,0,0,0,0,0, ,691.1,24.7,707.1,-0.4,-1.9,-2.7,25,693.783,24.8755,718.411,-0.406858,-0.242433,-2.01912,
2026_06_10_20_16_35.976,3.869,30.8,0,0.759,0,0,0,0, ,0,0,0,0,0, ,696.2,27.7,720.2,0,-0.6,-3.3,25,693.775,24.9562,718.121,-0.394253,-0.303832,-2.07889,
2026_06_10_20_16_35.996,3.869,30.8,0,0.759,0,0,0,0, ,0,0,0,0,0, ,698.7,30.6,723.8,-1,-1.5,-2.6,25,693.999,25.2117,718.358,-0.400697,-0.349301,-2.13197,
2026_06_10_20_16_36.016,3.869,30.8,0,0.76,0,0,0,0, ,0,0,0,0,0, ,695,27.2,711.1,-0.9,-1.1,-2,25,694.173,25.4365,718.302,-0.43417,-0.407234,-2.14221,
2026_06_10_20_16_36.036,3.869,30.8,0,0.76,0,0,0,0, ,0,0,0,0,0, ,686.4,30.8,713.5,-0.3,-0.1,-1.9,25,693.961,25.6537,717.937,-0.444275,-0.418981,-2.1305,
2026_06_10_20_16_36.056,3.869,30.8,0,0.759,0,0,0,0, ,0,0,0,0,0, ,688.4,26.3,717.5,0.1,1.3,-2.5,25,693.561,25.8301,717.788,-0.423296,-0.356887,-2.13474,
2026_06_10_20_16_36.075,3.869,30.8,0,0.759,0,0,0,0, ,0,0,0,0,0, ,697.2,27.4,720.9,-0.3,1,-1.9,25,693.515,25.8923,717.874,-0.403595,-0.265061,-2.13871,
2026_06_10_20_16_36.095,3.869,30.8,0,0.759,0,0,0,0, ,0,0,0,0,0, ,697.8,27.4,733.3,-0.8,0.2,-2,25,693.758,25.9842,718.436,-0.412517,-0.212346,-2.12721,
2026_06_10_20_16_36.115,3.869,30.8,0,0.759,0,0,0,0, ,0,0,0,0,0, ,688.3,29.9,718.7,-0.3,-1.2,-2.7,25,693.715,26.1466,718.897,-0.420895,-0.229875,-2.14079,
2026_06_10_20_16_36.134,3.869,30.7,0,0.759,0,0,0,0, ,0,0,0,0,0, ,694,25.5,714.8,-0.6,-0.9,-2.6,25,693.558,26.2413,718.766,-0.422668,-0.279852,-2.17182,
2026_06_10_20_16_36.154,3.869,30.8,0,0.76,0,0,0,0, ,0,0,0,0,0, ,689.9,28,715.2,-0.6,0,-2.1,25,693.46,26.2723,718.537,-0.433474,-0.29022,-2.18268,
2026_06_10_20_16_36.174,3.869,30.8,0,0.759,0,0,0,0, ,0,0,0,0,0, ,693.3,29,713.3,-0.1,0.9,-2.1,25,693.347,26.408,718.276,-0.428388,-0.245113,-2.17764,
2026_06_10_20_16_36.194,3.869,30.8,0,0.758,0,0,0,0, ,0,0,0,0,0, ,692.1,29.2,721.9,0.1,0.9,-2,25,693.308,26.5721,718.234,-0.402283,-0.175333,-2.16986,
2026_06_10_20_16_36.213,3.869,30.7,0,0.76,0,0,0,0, ,0,0,0,0,0, ,690,26.2,725.5,-0.2,0.2,-2.1,25,693.17,26.6408,718.568,-0.380815,-0.131133,-2.16256,
2026_06_10_20_16_36.233,3.869,30.8,0,0.76,0,0,0,0, ,0,0,0,0,0, ,691,27.7,724.6,-0.8,-0.7,-2.3,25,693.007,26.6596,718.963,-0.388078,-0.138376,-2.16484,
2026_06_10_20_16_36.253,3.869,30.8,0,0.757,0,0,0,0, ,0,0,0,0,0, ,692.1,28.1,721.4,-0.9,-1.2,-2,25,692.918,26.7352,719.209,-0.416227,-0.187834,-2.16393,
2026_06_10_20_16_36.273,3.869,30.7,0,0.757,0,0,0,0, ,0,0,0,0,0, ,690.3,30.7,717.1,-0.6,-1.1,-2.3,25,692.814,26.8976,719.211,-0.436566,-0.246466,-2.16309,
2026_06_10_20_16_36.293,3.869,30.8,0,0.76,0,0,0,0, ,0,0,0,0,0, ,689.9,32.5,717.7,-0.8,-0.9,-2.4,25,692.648,27.1842,719.101,-0.452619,-0.292385,-2.17448,
2026_06_10_20_16_36.313,3.869,30.8,0,0.76,0,0,0,0, ,0,0,0,0,0, ,691.5,36,720.3,-1.2,-0.7,-2.8,25,692.53,27.6147,719.095,-0.485975,-0.323318,-2.20041,
2026_06_10_20_16_36.333,3.869,30.8,0,0.759,0,0,0,0, ,0,0,0,0,0, ,692.5,31.4,708.7,-0.8,-0.1,-3.1,25,692.497,27.9856,718.815,-0.517298,-0.32799,-2.24608,
2026_06_10_20_16_36.353,3.869,30.9,0,0.759,0,0,0,0, ,0,0,0,0,0, ,698.8,32.5,714.2,0.8,1.3,-2.9,25,692.689,28.2271,718.366,-0.485776,-0.271441,-2.29203,
2026_06_10_20_16_36.372,3.869,30.8,0,0.759,0,0,0,0, ,0,0,0,0,0, ,698.6,37.3,717.4,1.5,1.1,-3,25,693.056,28.6338,718.209,-0.386095,-0.181775,-2.33212,
2026_06_10_20_16_36.392,3.869,30.7,0,0.759,0,0,0,0, ,0,0,0,0,0, ,692.8,34.1,724.4,0.7,0.4,-2.4,25,693.217,29.0644,718.373,-0.295537,-0.124995,-2.35454,
2026_06_10_20_16_36.416,3.869,30.8,0,0.76,0,0,0,0, ,0,0,0,0,0, ,686.7,35.4,724.4,-0.3,0,-3.1,25,693.006,29.4108,718.741,-0.26534,-0.105191,-2.37864,
2026_06_10_20_16_36.431,3.869,30.8,0,0.759,0,0,0,0, ,0,0,0,0,0, ,695.4,33.8,714.9,0.2,-0.6,-2.8,25,692.886,29.7271,718.796,-0.252218,-0.117062,-2.41345,
2026_06_10_20_16_36.451,3.869,30.8,0,0.76,0,0,0,0, ,0,0,0,0,0, ,692.9,33.6,721.8,0,-1.5,-2.8,25,692.963,29.9692,718.769,-0.230754,-0.173913,-2.43701,
2026_06_10_20_16_36.471,3.869,30.7,0,0.761,0,0,0,0, ,0,0,0,0,0, ,683.9,33.3,725.4,-1.6,-0.7,-1.8,25,692.685,30.1813,719.063,-0.265443,-0.230346,-2.42866,
2026_06_10_20_16_36.491,3.869,30.8,0,0.759,0,0,0,0, ,0,0,0,0,0, ,687.5,33.2,711.9,-1.2,0,-2.2,25,692.26,30.3683,719.038,-0.33458,-0.237638,-2.40254,
2026_06_10_20_16_36.511,3.869,30.8,0,0.759,0,0,0,0, ,0,0,0,0,0, ,692.2,31.4,718,-0.4,0.8,-2,25,692.113,30.486,718.789,-0.362941,-0.198782,-2.3841,
2026_06_10_20_16_36.531,3.869,30.8,0,0.759,0,0,0,0, ,0,0,0,0,0, ,691.2,32.7,717.6,-0.2,0.9,-1.8,25,692.088,30.5813,718.729,-0.359106,-0.134871,-2.3546,
2026_06_10_20_16_36.552,3.869,30.8,0,0.76,0,0,0,0, ,0,0,0,0,0, ,690.5,31.8,723.1,-0.2,1,-1.9,25,692.012,30.683,718.828,-0.34941,-0.0687621,-2.32385,
2026_06_10_20_16_36.570,3.869,30.7,0,0.76,0,0,0,0, ,0,0,0,0,0, ,689.5,32.4,720.8,-0.6,0.8,-1.7,25,691.89,30.7693,719.018,-0.352493,-0.00972817,-2.29193,
2026_06_10_20_16_36.590,3.869,30.7,0,0.76,0,0,0,0, ,0,0,0,0,0, ,692.9,35.8,712.5,0.3,2,-1.6,25,691.848,30.9723,718.874,-0.340154,0.0761771,-2.25281,
2026_06_10_20_16_36.610,3.869,30.8,0,0.761,0,0,0,0, ,0,0,0,0,0, ,685.9,33.4,725.5,-0.2,0.9,-1.1,25,691.698,31.1934,718.881,-0.316379,0.159894,-2.1978,
2026_06_10_20_16_36.630,3.869,30.8,0,0.759,0,0,0,0, ,0,0,0,0,0, ,683.5,36.6,722.5,0.4,1.1,-1.7,25,691.272,31.4253,719.193,-0.291006,0.211088,-2.14918,
2026_06_10_20_16_36.649,3.869,30.8,0,0.759,0,0,0,0, ,0,0,0,0,0, ,683.3,38.8,730.8,0.3,0.7,-2.1,25,690.792,31.8077,719.648,-0.251944,0.253069,-2.134,
2026_06_10_20_16_36.669,3.869,30.8,0,0.757,0,0,0,0, ,0,0,0,0,0, ,691.6,36.7,735.2,-0.5,-0.8,-2.2,25,690.589,32.1698,720.461,-0.242685,0.234601,-2.13497,
2026_06_10_20_16_36.689,3.869,30.7,0,0.76,0,0,0,0, ,0,0,0,0,0, ,689,37.5,723.6,-1.5,-2.4,-1.5,25,690.571,32.4702,721.006,-0.288834,0.122805,-2.11761,
2026_06_10_20_16_36.708,3.869,30.7,0,0.759,0,0,0,0, ,0,0,0,0,0, ,685.9,35.8,710.5,-0.5,-0.9,-1.9,25,690.381,32.7249,720.765,-0.332171,0.0147744,-2.09216,
2026_06_10_20_16_36.728,3.869,30.7,0,0.759,0,0,0,0, ,0,0,0,0,0, ,686.6,35.1,725,-0.6,-0.3,-2,25,690.129,32.891,720.581,-0.345445,-0.0226884,-2.0835,
2026_06_10_20_16_36.748,3.869,30.7,0,0.759,0,0,0,0, ,0,0,0,0,0, ,693.2,32.8,718.2,-0.9,-0.6,-1.8,25,690.115,32.9555,720.643,-0.370097,-0.0487277,-2.07232,
2026_06_10_20_16_36.768,3.869,30.7,0,0.759,0,0,0,0, ,0,0,0,0,0, ,691.5,33.4,712.7,-0.2,0.3,-1.7,25,690.251,32.9643,720.327,-0.38106,-0.054899,-2.05267,
2026_06_10_20_16_36.787,3.869,30.8,0,0.76,0,0,0,0, ,0,0,0,0,0, ,689.4,35.2,721.5,0.4,0.8,-1.4,25,690.263,33.0457,720.13,-0.351746,-0.0180379,-2.02204,
2026_06_10_20_16_36.807,3.869,30.8,0,0.76,0,0,0,0, ,0,0,0,0,0, ,688.8,37.7,733.2,-0.2,0.1,-1.6,25,690.193,33.2532,720.57,-0.324217,0.0104831,-1.99023,
2026_06_10_20_16_36.827,3.869,30.7,0,0.759,0,0,0,0, ,0,0,0,0,0, ,685.3,38.4,734.7,-1.4,-1.7,-1.6,25,690.001,33.5455,721.385,-0.35321,-0.0389057,-1.96645,
2026_06_10_20_16_36.847,3.869,30.8,0,0.759,0,0,0,0, ,0,0,0,0,0, ,687.3,37.1,722.5,-1.9,-2.7,-1.6,25,689.776,33.8017,721.825,-0.432233,-0.170597,-1.94412,
2026_06_10_20_16_36.867,3.869,30.7,0,0.759,0,0,0,0, ,0,0,0,0,0, ,687.2,35,717.4,-0.7,-2.3,-1.4,25,689.622,33.9387,721.711,-0.485113,-0.312545,-1.91706,
2026_06_10_20_16_36.887,3.869,30.7,0,0.759,0,0,0,0, ,0,0,0,0,0, ,685.3,36.1,715.2,0.7,-1.2,-1.6,25,689.416,34.0369,721.381,-0.455551,-0.40014,-1.89164,
2026_06_10_20_16_36.906,3.869,30.7,0,0.759,0,0,0,0, ,0,0,0,0,0, ,690.3,39.1,726.9,-0.7,-1.5,-2.7,25,689.318,34.254,721.361,-0.427791,-0.458022,-1.90739,
2026_06_10_20_16_36.926,3.869,30.8,0,0.761,0,0,0,0, ,0,0,0,0,0, ,699.2,36.8,719.6,-1.3,-1.7,-2.4,25,689.649,34.4792,721.476,-0.46266,-0.527612,-1.94655,
2026_06_10_20_16_36.947,3.869,30.8,0,0.759,0,0,0,0, ,0,0,0,0,0, ,692.3,38.5,718.8,-1.2,-2,-1.9,25,690.021,34.6725,721.337,-0.510639,-0.608195,-1.95894,
2026_06_10_20_16_36.967,3.869,30.8,0,0.76,0,0,0,0, ,0,0,0,0,0, ,692,38.6,713.8,-0.2,-2.3,-2.7,25,690.15,34.9087,721.03,-0.522178,-0.702148,-1.97973,
2026_06_10_20_16_36.985,3.869,30.8,0,0.76,0,0,0,0, ,0,0,0,0,0, ,690.1,39.1,723.7,-0.3,-2.5,-2.3,25,690.205,35.1489,720.891,-0.505592,-0.805611,-2.01143,
2026_06_10_20_16_37.005,3.869,30.7,0,0.76,0,0,0,0, ,0,0,0,0,0, ,690,36,721.4,-0.8,-2.3,-2.7,25,690.196,35.2952,720.992,-0.508298,-0.902769,-2.0412,
2026_06_10_20_16_37.026,3.869,30.8,0,0.76,0,0,0,0, ,0,0,0,0,0, ,684.9,36.1,717.2,-0.7,-0.9,-3,25,690.028,35.3412,720.889,-0.523027,-0.945257,-2.09049,
2026_06_10_20_16_37.046,3.869,30.8,0,0.759,0,0,0,0, ,0,0,0,0,0, ,698.2,38.4,723.2,-0.7,-1.5,-2.8,25,690.121,35.4575,720.847,-0.533811,-0.96078,-2.13982,
2026_06_10_20_16_37.066,3.869,30.8,0,0.759,0,0,0,0, ,0,0,0,0,0, ,695.1,39.6,721,-0.3,-2.4,-2.1,25,690.519,35.6734,720.924,-0.531751,-1.02106,-2.15872,
2026_06_10_20_16_37.085,3.869,30.8,0,0.759,0,0,0,0, ,0,0,0,0,0, ,690.1,34.7,724.4,-1.2,-3.6,-2.3,25,690.646,35.7634,721.032,-0.54505,-1.14165,-2.16124,
2026_06_10_20_16_37.105,3.869,30.7,0,0.76,0,0,0,0, ,0,0,0,0,0, ,688.7,36.3,716.1,-1.7,-3.2,-2.2,25,690.57,35.7473,720.984,-0.600196,-1.27927,-2.16664,
2026_06_10_20_16_37.124,3.869,30.8,0,0.759,0,0,0,0, ,0,0,0,0,0, ,695.6,36,711.9,-2,-2.2,-2.5,25,690.666,35.7719,720.559,-0.676356,-1.36585,-2.17782,
2026_06_10_20_16_37.144,3.869,30.8,0,0.759,0,0,0,0, ,0,0,0,0,0, ,699,35.4,713,-0.9,-1.6,-2,25,691.07,35.7675,720.065,-0.7235,-1.3984,-2.18222,
2026_06_10_20_16_37.163,3.869,30.8,0,0.759,0,0,0,0, ,0,0,0,0,0, ,694.8,38.5,720,-1,-1.9,-1.6,25,691.426,35.8396,719.847,-0.737302,-1.41982,-2.15893,
2026_06_10_20_16_37.184,3.869,30.7,0,0.76,0,0,0,0, ,0,0,0,0,0, ,695.9,39.4,712,-1.1,-1.5,-1.8,25,691.665,36.0291,719.613,-0.756357,-1.4369,-2.13096,
2026_06_10_20_16_37.204,3.869,30.8,0,0.759,0,0,0,0, ,0,0,0,0,0, ,697.9,34,710.2,-0.8,-1.2,-2.1,25,691.984,36.07,719.094,-0.768157,-1.4316,-2.11993,
2026_06_10_20_16_37.223,3.869,30.7,0,0.759,0,0,0,0, ,0,0,0,0,0, ,725.2,-5,708.3,-0.6,-0.8,-5.3,25,693.176,34.7556,718.494,-0.764004,-1.4053,-2.21622,
2026_06_10_20_16_37.243,3.869,30.7,0,0.759,0,0,0,0, ,0,0,0,0,0, ,692.9,68.4,716.5,-1,-0.3,-5.9,25,694.143,34.5694,718.123,-0.766197,-1.35318,-2.42242,
2026_06_10_20_16_37.263,3.869,30.7,0,0.759,0,0,0,0, ,0,0,0,0,0, ,690,24.2,727.9,-0.1,-3.7,-1.7,25,693.979,35.2842,718.371,-0.753023,-1.3926,-2.50636,
2026_06_10_20_16_37.283,3.869,30.7,0,0.759,0,0,0,0, ,0,0,0,0,0, ,692.7,54.9,719.4,-1.3,-4.5,-3.6,25,693.819,35.5441,718.693,-0.749792,-1.55758,-2.51512,
2026_06_10_20_16_37.303,3.869,30.7,0,0.759,0,0,0,0, ,0,0,0,0,0, ,695,33.5,699.8,-0.3,-4.1,-4.1,25,693.821,36.0716,718.139,-0.752851,-1.72469,-2.59646,
2026_06_10_20_16_37.322,3.869,30.8,0,0.759,0,0,0,0, ,0,0,0,0,0, ,694.2,46.3,708.1,0.3,-2.5,-4,25,693.868,36.3049,717.274,-0.706974,-1.82069,-2.68504,
2026_06_10_20_16_37.343,3.869,30.8,0,0.759,0,0,0,0, ,0,0,0,0,0, ,698.1,40.6,705,-1,-1.8,-3.4,25,694.007,36.7403,716.621,-0.685221,-1.84076,-2.74689,
2026_06_10_20_16_37.365,3.869,30.8,0,0.759,0,0,0,0, ,0,0,0,0,0, ,702.8,44.5,711,-0.4,-0.9,-3.2,25,694.4,37.0943,716.095,-0.686122,-1.81085,-2.78059,
2026_06_10_20_16_37.382,3.869,30.7,0,0.759,0,0,0,0, ,0,0,0,0,0, ,697.6,39.7,702.3,0.1,-0.7,-2.4,25,694.753,37.3994,715.52,-0.653452,-1.74925,-2.78177,
2026_06_10_20_16_37.402,3.869,30.7,0,0.759,0,0,0,0, ,0,0,0,0,0, ,697.7,44.6,713,0.2,-0.1,-3.2,25,694.93,37.6889,715.04,-0.604492,-1.66703,-2.78288,
2026_06_10_20_16_37.421,3.869,30.7,0,0.759,0,0,0,0, ,0,0,0,0,0, ,697.1,45,724.7,-0.2,-1.1,-3.6,25,695.081,38.1222,715.272,-0.567655,-1.60201,-2.82049,
2026_06_10_20_16_37.441,3.869,30.7,0,0.757,0,0,0,0, ,0,0,0,0,0, ,703,49.6,719.9,-0.7,-2.3,-3.7,25,695.383,38.6815,715.701,-0.560486,-1.60798,-2.87104,
2026_06_10_20_16_37.461,3.869,30.8,0,0.76,0,0,0,0, ,0,0,0,0,0, ,701.4,43.5,704.4,-1.2,-2.9,-2.9,25,695.799,39.161,715.484,-0.584222,-1.66843,-2.89718,
2026_06_10_20_16_37.482,3.869,30.7,0,0.757,0,0,0,0, ,0,0,0,0,0, ,697.7,44.7,703.7,-1.2,-2,-2.9,25,696.027,39.4619,714.788,-0.621746,-1.71606,-2.89735,
2026_06_10_20_16_37.502,3.869,30.8,0,0.76,0,0,0,0, ,0,0,0,0,0, ,703.3,42.6,700.5,-1,-1.2,-2.6,25,696.3,39.7171,714.014,-0.650889,-1.70899,-2.88837,
2026_06_10_20_16_37.521,3.869,30.7,0,0.757,0,0,0,0, ,0,0,0,0,0, ,708.9,45.5,706.7,-0.5,-0.6,-1.7,25,696.897,39.9812,713.38,-0.656929,-1.65969,-2.84338,
2026_06_10_20_16_37.540,3.869,30.5,0,0.759,0,0,0,0, ,0,0,0,0,0, ,697.2,46.6,701.1,-0.3,0,-1.5,25,697.272,40.351,712.802,-0.641272,-1.57683,-2.76761,
2026_06_10_20_16_37.561,3.869,30.7,0,0.759,0,0,0,0, ,0,0,0,0,0, ,697.6,42.7,708.7,-0.3,0.5,-2.6,25,697.28,40.613,712.321,-0.620476,-1.46551,-2.72388,
2026_06_10_20_16_37.580,3.869,30.7,0,0.761,0,0,0,0, ,0,0,0,0,0, ,706.4,41.9,710.5,-0.1,0.1,-2.1,25,697.567,40.7158,712.155,-0.594853,-1.35792,-2.7011,
2026_06_10_20_16_37.599,3.869,30.7,0,0.759,0,0,0,0, ,0,0,0,0,0, ,696.6,47.4,713.1,0.2,-0.1,-1.8,25,697.807,40.9555,712.133,-0.555558,-1.27518,-2.65533,
2026_06_10_20_16_37.619,3.869,30.7,0,0.76,0,0,0,0, ,0,0,0,0,0, ,700.9,47.2,714.2,-0.1,-0.4,-2.4,25,697.865,41.3421,712.226,-0.518656,-1.2127,-2.62149,
2026_06_10_20_16_37.640,3.869,30.8,0,0.759,0,0,0,0, ,0,0,0,0,0, ,703.4,45.5,717.7,-1.2,-2.1,-1.8,25,698.126,41.6473,712.453,-0.52666,-1.21498,-2.58971,
2026_06_10_20_16_37.660,3.869,30.8,0,0.76,0,0,0,0, ,0,0,0,0,0, ,700.8,44.7,709.5,-1.4,-2.7,-1.5,25,698.368,41.8577,712.522,-0.573786,-1.28719,-2.53244,
2026_06_10_20_16_37.680,3.869,30.7,0,0.759,0,0,0,0, ,0,0,0,0,0, ,699,47.9,700.5,-0.6,-1.5,-3.5,25,698.461,42.1284,712.064,-0.599758,-1.33672,-2.53047,
2026_06_10_20_16_37.699,3.869,30.7,0,0.759,0,0,0,0, ,0,0,0,0,0, ,698.4,46.3,708.4,-0.4,-2,-1.9,25,698.476,42.4314,711.6,-0.593679,-1.3619,-2.5408,
2026_06_10_20_16_37.719,3.869,30.8,0,0.759,0,0,0,0, ,0,0,0,0,0, ,704.1,47.6,711.3,-0.8,-1.8,-2.5,25,698.645,42.7067,711.493,-0.594064,-1.39469,-2.52003,
2026_06_10_20_16_37.739,3.869,30.7,0,0.759,0,0,0,0, ,0,0,0,0,0, ,709.3,46.1,696.5,-0.9,-1.2,-1.9,25,699.136,42.9592,711.031,-0.60966,-1.40111,-2.50053,
2026_06_10_20_16_37.758,3.869,30.8,0,0.757,0,0,0,0, ,0,0,0,0,0, ,710.9,39.3,696.7,-0.1,0.1,-2.5,25,699.804,42.9434,710.151,-0.602978,-1.34925,-2.48222,
2026_06_10_20_16_37.778,3.869,30.7,0,0.759,0,0,0,0, ,0,0,0,0,0, ,697.3,47.2,702,-0.1,0.5,-2,25,700.066,42.9621,709.493,-0.572328,-1.24875,-2.46806,
2026_06_10_20_16_37.798,3.869,30.8,0,0.759,0,0,0,0, ,0,0,0,0,0, ,703.4,41.5,703.6,0,1.5,-2.7,25,700.083,43.0467,709.085,-0.540498,-1.11171,-2.46087,
2026_06_10_20_16_37.818,3.869,30.8,0,0.759,0,0,0,0, ,0,0,0,0,0, ,710.5,45.4,701.4,1.1,2.5,-2.9,25,700.501,43.0712,708.684,-0.474046,-0.922093,-2.48154,
2026_06_10_20_16_37.837,3.869,30.5,0,0.759,0,0,0,0, ,0,0,0,0,0, ,698.6,48,710.5,2,2.5,-2.2,25,700.748,43.2924,708.517,-0.350706,-0.713559,-2.48571,
2026_06_10_20_16_37.857,3.869,30.8,0,0.759,0,0,0,0, ,0,0,0,0,0, ,701.2,51.8,709.5,1.7,3,-2.7,25,700.696,43.695,708.608,-0.2166,-0.502499,-2.48353,
2026_06_10_20_16_37.877,3.869,30.7,0,0.759,0,0,0,0, ,0,0,0,0,0, ,693.2,58.3,718.8,1.3,2,-1.6,25,700.483,44.387,708.945,-0.111995,-0.319534,-2.46321,
2026_06_10_20_16_37.897,3.869,30.7,0,0.757,0,0,0,0, ,0,0,0,0,0, ,690.9,56.8,720.9,0.5,1.1,-1.8,25,699.969,45.1891,709.61,-0.0503265,-0.205609,-2.4167,
2026_06_10_20_16_37.917,3.869,30.7,0,0.76,0,0,0,0, ,0,0,0,0,0, ,696.2,58.9,714.8,-1,0.4,-2.1,25,699.578,45.9606,710.112,-0.0624941,-0.147377,-2.38826,
2026_06_10_20_16_37.937,3.869,30.7,0,0.759,0,0,0,0, ,0,0,0,0,0, ,700.6,56.8,724.2,-1.7,-0.7,-2,25,699.506,46.6851,710.684,-0.140951,-0.147537,-2.36765,
2026_06_10_20_16_37.956,3.869,30.7,0,0.759,0,0,0,0, ,0,0,0,0,0, ,697.9,53.5,724.1,-2.5,-1.4,-1.9,25,699.491,47.2009,711.505,-0.260331,-0.202531,-2.3422,
2026_06_10_20_16_37.976,3.869,30.8,0,0.759,0,0,0,0, ,0,0,0,0,0, ,702.2,45.1,708.2,-2.5,-2.2,-1.8,25,699.525,47.3289,711.788,-0.396811,-0.299876,-2.3122,
2026_06_10_20_16_37.996,3.869,30.7,0,0.759,0,0,0,0, ,0,0,0,0,0, ,699.7,41.3,691.5,-0.8,-0.7,-1.7,25,699.612,47.0773,711.06,-0.473177,-0.369962,-2.27794,
2026_06_10_20_16_38.016,3.869,30.7,0,0.757,0,0,0,0, ,0,0,0,0,0, ,697.5,42.1,695.4,0.4,1.9,-1.6,25,699.55,46.7496,709.987,-0.45653,-0.310855,-2.23968,
2026_06_10_20_16_38.041,3.869,30.7,0,0.759,0,0,0,0, ,0,0,0,0,0, ,686.6,50.7,715.3,1.6,4.7,-2.1,25,699.093,46.7283,709.705,-0.367773,-0.0908185,-2.21593,
2026_06_10_20_16_38.055,3.869,30.7,0,0.758,0,0,0,0, ,0,0,0,0,0, ,692.9,56,730.1,0.7,3.6,-3.1,25,698.524,47.1318,710.497,-0.275284,0.167606,-2.23934,
2026_06_10_20_16_38.075,3.869,30.7,0,0.759,0,0,0,0, ,0,0,0,0,0, ,690.7,57.8,733.5,-1.1,1.2,-2.9,25,698.114,47.727,711.795,-0.270696,0.303643,-2.28569,
2026_06_10_20_16_38.095,3.869,30.8,0,0.759,0,0,0,0, ,0,0,0,0,0, ,702.1,49.4,718.1,-1.5,-1.2,-2.3,25,698.01,48.0849,712.648,-0.333419,0.28514,-2.30484,
2026_06_10_20_16_38.114,3.869,30.7,0,0.759,0,0,0,0, ,0,0,0,0,0, ,694.7,46.9,707.3,-0.1,-1.8,-1.5,25,698.033,48.0889,712.651,-0.361852,0.176358,-2.28017,
2026_06_10_20_16_38.134,3.869,30.7,0,0.759,0,0,0,0, ,0,0,0,0,0, ,697.2,49.1,707.8,0.3,-1.5,-1.9,25,697.906,48.0835,712.34,-0.333707,0.065064,-2.24482,
2026_06_10_20_16_38.155,3.869,30.7,0,0.757,0,0,0,0, ,0,0,0,0,0, ,693.4,52,712.4,0.3,-0.8,-1.8,25,697.748,48.2338,712.204,-0.295091,-0.00897894,-2.22076,
2026_06_10_20_16_38.174,3.869,30.8,0,0.759,0,0,0,0, ,0,0,0,0,0, ,700.8,55.6,707,0,-0.8,-2.3,25,697.708,48.573,712.051,-0.267968,-0.0571818,-2.21035,
2026_06_10_20_16_38.194,3.869,30.8,0,0.759,0,0,0,0, ,0,0,0,0,0, ,697.3,58.5,723.5,-0.8,-0.7,-1.9,25,697.79,49.0895,712.246,-0.276014,-0.0994004,-2.20363,
2026_06_10_20_16_38.214,3.869,30.7,0,0.759,0,0,0,0, ,0,0,0,0,0, ,697.3,57.7,711.4,-1.3,-1.1,-1.8,25,697.76,49.6386,712.563,-0.323179,-0.148187,-2.18208,
2026_06_10_20_16_38.234,3.869,30.7,0,0.757,0,0,0,0, ,0,0,0,0,0, ,691,54.3,712,-0.7,-0.7,-2.1,25,697.54,50.0263,712.511,-0.364422,-0.194001,-2.16794,
2026_06_10_20_16_38.253,3.869,30.7,0,0.759,0,0,0,0, ,0,0,0,0,0, ,694.8,55.4,713.2,-0.9,-0.7,-2.9,25,697.257,50.3202,712.516,-0.390965,-0.224835,-2.18817,
2026_06_10_20_16_38.273,3.869,30.7,0,0.759,0,0,0,0, ,0,0,0,0,0, ,701.6,55.4,717.5,-1.4,-1.1,-2.2,25,697.315,50.6298,712.689,-0.437219,-0.265978,-2.21022,
2026_06_10_20_16_38.293,3.869,30.7,0,0.759,0,0,0,0, ,0,0,0,0,0, ,696.6,53.2,708.6,-1.7,-1,-1.5,25,697.424,50.8534,712.711,-0.505029,-0.313754,-2.18827,
2026_06_10_20_16_38.312,3.869,30.7,0,0.759,0,0,0,0, ,0,0,0,0,0, ,702.1,51.1,698.2,-1.2,0.2,-1.8,25,697.541,50.9324,712.144,-0.562613,-0.31901,-2.15547,
2026_06_10_20_16_38.333,3.869,30.7,0,0.759,0,0,0,0, ,0,0,0,0,0, ,700.8,51.2,699.4,0.2,1.8,-1,25,697.779,50.9457,711.33,-0.558798,-0.238633,-2.10943,
2026_06_10_20_16_38.352,3.869,30.7,0,0.759,0,0,0,0, ,0,0,0,0,0, ,693.2,52.7,716.3,1,2.6,-1.3,25,697.732,51.0069,711.118,-0.488184,-0.0900284,-2.05097,
2026_06_10_20_16_38.372,3.869,30.7,0,0.759,0,0,0,0, ,0,0,0,0,0, ,694.5,56.3,722.7,0.5,2,-1.7,25,697.495,51.2197,711.629,-0.412732,0.0556139,-2.01739,
2026_06_10_20_16_38.392,3.869,30.7,0,0.76,0,0,0,0, ,0,0,0,0,0, ,695,55.6,729.1,-0.7,0.5,-1.2,25,697.328,51.508,712.499,-0.393675,0.128397,-1.98282,
2026_06_10_20_16_38.412,3.869,30.7,0,0.758,0,0,0,0, ,0,0,0,0,0, ,689.2,50.1,724.1,-1.6,-0.6,-1.5,25,697.009,51.5898,713.358,-0.439763,0.117526,-1.94426,
2026_06_10_20_16_38.431,3.869,30.5,0,0.758,0,0,0,0, ,0,0,0,0,0, ,691.7,46,703.1,-0.9,-0.3,-1.9,25,696.61,51.3741,713.373,-0.489137,0.0829422,-1.92937,
2026_06_10_20_16_38.452,3.869,30.7,0,0.761,0,0,0,0, ,0,0,0,0,0, ,679.4,44.9,719.9,-0.6,2.5,-1.1,25,695.936,51.0131,713.259,-0.505033,0.144919,-1.90321,
2026_06_10_20_16_38.471,3.869,30.7,0,0.76,0,0,0,0, ,0,0,0,0,0, ,673.9,47.7,730.3,-0.5,3.8,-2.8,25,694.76,50.7259,713.98,-0.507774,0.328041,-1.90606,
2026_06_10_20_16_38.491,3.869,30.7,0,0.759,0,0,0,0, ,0,0,0,0,0, ,678.3,50.4,741.2,-0.6,3.5,-4.3,25,693.623,50.6237,715.307,-0.510347,0.530473,-2.00624,
2026_06_10_20_16_38.511,3.869,30.5,0,0.758,0,0,0,0, ,0,0,0,0,0, ,703.8,47.3,736,-1.7,1.1,-4,25,693.466,50.5157,716.726,-0.549326,0.638304,-2.13687,
2026_06_10_20_16_38.531,3.869,30.5,0,0.759,0,0,0,0, ,0,0,0,0,0, ,688.7,52.1,723.5,-2.3,-0.9,-1.8,25,693.636,50.466,717.52,-0.637726,0.605501,-2.18337,
2026_06_10_20_16_38.550,3.869,30.7,0,0.759,0,0,0,0, ,0,0,0,0,0, ,675.7,55,720.8,-1.8,-0.6,-3,25,692.939,50.6539,717.802,-0.723787,0.5229,-2.19657,
2026_06_10_20_16_38.570,3.869,30.7,0,0.76,0,0,0,0, ,0,0,0,0,0, ,695.4,53.3,717.4,-2,0.2,-3.2,25,692.489,50.8669,717.881,-0.795462,0.478848,-2.25163,
2026_06_10_20_16_38.597,3.869,30.7,0,0.759,0,0,0,0, ,0,0,0,0,0, ,692.2,57.1,715.3,-1.8,0.1,-3.6,25,692.569,51.131,717.788,-0.86277,0.458809,-2.32161,
2026_06_10_20_16_38.610,3.869,30.7,0,0.758,0,0,0,0, ,0,0,0,0,0, ,698.8,61.2,713.6,-1.4,-0.8,-4.1,25,692.747,51.6196,717.584,-0.907695,0.409522,-2.41474,
2026_06_10_20_16_38.630,3.869,30.7,0,0.76,0,0,0,0, ,0,0,0,0,0, ,707.6,56.6,719.7,-1.5,-3.4,-2.7,25,693.384,52.0633,717.527,-0.940741,0.256598,-2.47478,
2026_06_10_20_16_38.650,3.869,30.7,0,0.759,0,0,0,0, ,0,0,0,0,0, ,701.1,57.4,708.8,-1.8,-4,-3.4,25,694.053,52.3641,717.328,-0.983962,0.015493,-2.50983,
2026_06_10_20_16_38.669,3.869,30.5,0,0.759,0,0,0,0, ,0,0,0,0,0, ,709.1,87.5,694.2,-0.9,-3.6,-5.1,25,694.726,53.5881,716.363,-1.00627,-0.217014,-2.61588,
2026_06_10_20_16_38.689,3.869,30.8,0,0.757,0,0,0,0, ,0,0,0,0,0, ,692.9,52.7,706,-0.7,-3.2,-3.2,25,695.108,54.5943,715.372,-0.993698,-0.410977,-2.70936,
2026_06_10_20_16_38.709,3.869,30.7,0,0.76,0,0,0,0, ,0,0,0,0,0, ,697.1,63.8,703.8,-0.2,-1.8,-3.5,25,695.102,54.8171,714.734,-0.960566,-0.538277,-2.7484,
2026_06_10_20_16_38.734,3.869,30.5,0,0.759,0,0,0,0, ,0,0,0,0,0, ,706.4,66.4,712.5,0,-1.1,-3.6,25,695.507,55.4437,714.333,-0.908126,-0.593835,-2.79725,
2026_06_10_20_16_38.748,3.869,30.7,0,0.756,0,0,0,0, ,0,0,0,0,0, ,686.2,63.3,720.4,-0.2,-0.8,-3.4,25,695.555,56.0169,714.462,-0.85888,-0.615539,-2.84007,
2026_06_10_20_16_38.768,3.869,30.7,0,0.759,0,0,0,0, ,0,0,0,0,0, ,689.3,67.2,714.4,-0.6,-0.5,-5.8,25,695.079,56.5795,714.641,-0.830917,-0.617639,-2.94732,
2026_06_10_20_16_38.788,3.869,30.5,0,0.76,0,0,0,0, ,0,0,0,0,0, ,695,64.6,705,2.8,1.1,-5.6,25,694.901,57.1475,714.34,-0.713252,-0.56172,-3.11506,
2026_06_10_20_16_38.808,3.869,30.7,0,0.759,0,0,0,0, ,0,0,0,0,0, ,703.9,53.1,730.8,3.5,-1.3,-5.4,25,695.178,57.2512,714.557,-0.477835,-0.533584,-3.26039,
2026_06_10_20_16_38.828,3.869,30.7,0,0.76,0,0,0,0, ,0,0,0,0,0, ,709.2,76.1,731.5,0,-4,-7.6,25,695.871,57.699,715.568,-0.342077,-0.662553,-3.4578,
2026_06_10_20_16_38.847,3.869,30.7,0,0.759,0,0,0,0, ,0,0,0,0,0, ,711.5,62.5,740.2,-2.9,-9.2,-8.3,25,696.753,58.406,716.804,-0.409591,-1.02437,-3.73155,
2026_06_10_20_16_38.869,3.869,30.5,0,0.759,0,0,0,0, ,0,0,0,0,0, ,728.1,61.6,710.8,-4.4,-13.6,-8.4,25,698.158,58.628,717.334,-0.607053,-1.65663,-4.01298,
2026_06_10_20_16_38.887,3.869,30.7,0,0.757,0,0,0,0, ,0,0,0,0,0, ,733.7,53.9,688.1,-2,-15.1,-8.6,25,700.153,58.5745,716.244,-0.765061,-2.43013,-4.28641,
2026_06_10_20_16_38.906,3.869,30.7,0,0.759,0,0,0,0, ,0,0,0,0,0, ,713.6,63.5,703.8,0.6,-16.6,-8.5,25,701.585,58.5822,715.007,-0.761096,-3.24791,-4.54622,
2026_06_10_20_16_38.926,3.869,30.7,0,0.759,0,0,0,0, ,0,0,0,0,0, ,656,84.4,702.1,14,-9.5,-24.1,25,700.562,59.5187,714.273,-0.269873,-3.84522,-5.26247,
2026_06_10_20_16_38.947,3.869,30.7,0,0.759,0,0,0,0, ,0,0,0,0,0, ,659.1,89.3,752.5,4.9,-5.3,-38.9,25,697.941,61.1842,715.066,0.322432,-4.06184,-6.86132,
2026_06_10_20_16_38.967,3.869,30.5,0,0.759,0,0,0,0, ,0,0,0,0,0, ,700,76.4,778.4,-5.4,0.4,-40.5,25,696.82,62.5044,718.137,0.287549,-3.96362,-8.86243,
2026_06_10_20_16_38.986,3.869,30.7,0,0.759,0,0,0,0, ,0,0,0,0,0, ,684.9,86.3,741.9,-7.7,15.4,-46.1,25,696.554,63.6528,720.697,-0.129114,-3.24068,-10.961,
2026_06_10_20_16_39.007,3.869,30.7,0,0.758,0,0,0,0, ,0,0,0,0,0, ,653,111.3,741.9,-2.1,25.3,-53.4,25,694.872,65.7946,721.989,-0.41984,-1.80312,-13.3247,
2026_06_10_20_16_39.026,3.869,30.7,0,0.759,0,0,0,0, ,0,0,0,0,0, ,642.3,125.2,772.8,-13.3,17.6,-60,25,691.994,68.9911,724.144,-0.863475,-0.386136,-15.9679,
2026_06_10_20_16_39.045,3.869,30.5,0,0.76,0,0,0,0, ,0,0,0,0,0, ,641.3,127,764.6,-5.2,17.4,-73.5,25,688.936,72.4712,726.859,-1.37453,0.7038,-19.0624,
2026_06_10_20_16_39.065,3.869,30.7,0,0.759,0,0,0,0, ,0,0,0,0,0, ,632.9,157.5,785.8,-9.2,17.4,-83.5,25,685.777,76.7233,729.805,-1.72952,1.72122,-22.6844,
2026_06_10_20_16_39.085,3.869,30.7,0,0.759,0,0,0,0, ,0,0,0,0,0, ,666.7,166.8,800.4,-19.3,7.4,-82,25,683.585,81.929,733.662,-2.49248,2.37196,-26.3446,
2026_06_10_20_16_39.105,3.869,30.7,0,0.76,0,0,0,0, ,0,0,0,0,0, ,671.6,167.2,759.2,-18,4.7,-77.6,25,682.705,87.113,736.473,-3.47708,2.59609,-29.6021,
2026_06_10_20_16_39.125,3.869,30.5,0,0.757,0,0,0,0, ,0,0,0,0,0, ,584.8,193.7,759.6,-7.6,23.5,-97.9,25,679.384,92.8007,737.87,-4.0452,3.29711,-33.1454,
2026_06_10_20_16_39.144,3.869,30.5,0,0.759,0,0,0,0, ,0,0,0,0,0, ,647.2,221.1,786,-17.4,25.3,-100.5,25,675.521,99.7841,739.999,-4.56041,4.58307,-37.1706,
2026_06_10_20_16_39.164,3.869,30.8,0,0.759,0,0,0,0, ,0,0,0,0,0, ,697.6,224.4,799.9,-21.9,1.4,-81.6,25,675.331,107.277,743.226,-5.47993,5.1173,-40.4539,
2026_06_10_20_16_39.184,3.869,30.7,0,0.759,0,0,0,0, ,0,0,0,0,0, ,718.6,203.6,753,-26.4,-11,-66.6,25,677.328,113.781,745.25,-6.61764,4.51297,-42.5042,
2026_06_10_20_16_39.204,3.869,30.7,0,0.758,0,0,0,0, ,0,0,0,0,0, ,667.6,228.1,733.7,-24.6,-14.6,-52.5,25,678.289,120.001,745.134,-7.76829,3.45796,-43.543,
2026_06_10_20_16_39.223,3.869,30.8,0,0.759,0,0,0,0, ,0,0,0,0,0, ,599.7,256.1,734,-16.2,-12.5,-51.2,25,675.569,127.441,744.447,-8.53803,2.42154,-44.0492,
2026_06_10_20_16_39.244,3.869,30.7,0,0.759,0,0,0,0, ,0,0,0,0,0, ,560.1,262.8,740.2,5.4,1.8,-65.4,25,669.739,135.485,743.999,-8.34681,1.94796,-44.9176,
2026_06_10_20_16_39.263,3.869,30.7,0,0.761,0,0,0,0, ,0,0,0,0,0, ,581.4,261.5,740.4,18.3,6.1,-74.4,25,663.707,143.204,743.774,-7.11606,2.06996,-46.4399,
2026_06_10_20_16_39.284,3.869,30.7,0,0.757,0,0,0,0, ,0,0,0,0,0, ,607.4,301,724.2,7.4,-7.5,-67.7,25,659.483,151.616,743.075,-5.89938,1.90116,-47.9396,
2026_06_10_20_16_39.303,3.869,30.7,0,0.758,0,0,0,0, ,0,0,0,0,0, ,613.1,317.9,705.5,8.4,-21.3,-58.2,25,656.483,161.234,741.355,-5.05848,0.907812,-48.8543,
2026_06_10_20_16_39.323,3.869,30.8,0,0.76,0,0,0,0, ,0,0,0,0,0, ,600.3,324.9,696,8.7,-28.2,-56.4,25,653.45,170.994,738.88,-4.22922,-0.655711,-49.369,
2026_06_10_20_16_39.343,3.869,30.7,0,0.76,0,0,0,0, ,0,0,0,0,0, ,534.5,326.6,666.1,5.2,-16.4,-64.9,25,648.206,180.425,735.356,-3.54798,-1.97466,-50.0564,
2026_06_10_20_16_39.363,3.869,30.7,0,0.759,0,0,0,0, ,0,0,0,0,0, ,611.8,377,731.8,8.1,-17.1,-67.6,25,643.632,190.868,733.138,-2.92654,-2.87503,-51.0432,
2026_06_10_20_16_39.382,3.869,30.5,0,0.759,0,0,0,0, ,0,0,0,0,0, ,603.2,404.5,702.6,10,-29.2,-50.9,25,641.43,203.048,732.166,-2.19672,-4.11054,-51.5433,
2026_06_10_20_16_39.408,3.869,30.7,0,0.759,0,0,0,0, ,0,0,0,0,0, ,515.9,384.1,688.9,6.5,-30.2,-53.2,25,636.441,214.703,729.947,-1.56012,-5.6699,-51.5742,
2026_06_10_20_16_39.422,3.869,30.5,0,0.758,0,0,0,0, ,0,0,0,0,0, ,569.7,414.3,741.9,1.7,-12.4,-67.3,25,630.735,225.945,729.061,-1.21521,-6.62235,-52.1029,
2026_06_10_20_16_39.441,3.869,30.5,0,0.76,0,0,0,0, ,0,0,0,0,0, ,600.4,422.2,778.4,-11.7,-2.9,-51.3,25,627.951,237.664,730.955,-1.44585,-6.68498,-52.5414,
2026_06_10_20_16_39.461,3.869,30.5,0,0.759,0,0,0,0, ,0,0,0,0,0, ,558.4,416.2,690.9,-20.4,-7.8,-46.9,25,624.992,248.726,731.181,-2.33579,-6.60363,-52.3317,
2026_06_10_20_16_39.481,3.869,30.7,0,0.759,0,0,0,0, ,0,0,0,0,0, ,513.5,426.6,652.9,-15.8,-12.2,-53.9,25,619.566,259.249,727.568,-3.29642,-6.81059,-52.214,
2026_06_10_20_16_39.501,3.869,30.7,0,0.759,0,0,0,0, ,0,0,0,0,0, ,488.5,442.1,678.9,-15.6,-13.5,-60.9,25,612.341,269.919,723.81,-4.05226,-7.17862,-52.53,
2026_06_10_20_16_39.521,3.869,30.8,0,0.761,0,0,0,0, ,0,0,0,0,0, ,505.6,430.6,674.9,-20.8,-23.1,-62,25,605.315,280.061,720.952,-4.91439,-7.85633,-53.0736,
2026_06_10_20_16_39.545,3.869,30.8,0,0.76,0,0,0,0, ,0,0,0,0,0, ,529.1,437.2,626,-18.5,-29.1,-62.9,25,599.955,289.435,716.655,-5.81234,-8.96805,-53.645,
2026_06_10_20_16_39.560,3.869,30.5,0,0.759,0,0,0,0, ,0,0,0,0,0, ,534.4,459.7,649.6,-14.7,-30.5,-62.8,25,595.799,299.125,711.85,-6.46971,-10.2375,-54.2059,
2026_06_10_20_16_39.580,3.869,30.7,0,0.759,0,0,0,0, ,0,0,0,0,0, ,506.3,464.7,646.6,-13.5,-25.5,-66.3,25,591.201,309.063,707.965,-6.93468,-11.3199,-54.8362,
2026_06_10_20_16_39.600,3.869,30.5,0,0.759,0,0,0,0, ,0,0,0,0,0, ,477.2,481.4,627.6,-7.3,-8.5,-79.4,25,585.141,319.056,703.647,-7.14585,-11.666,-55.934,
2026_06_10_20_16_39.620,3.869,30.5,0,0.759,0,0,0,0, ,0,0,0,0,0, ,495.2,488,640.8,-3.2,-12.3,-80.7,25,579.112,329.15,699.415,-7.03032,-11.5889,-57.4035,
2026_06_10_20_16_39.640,3.869,30.8,0,0.759,0,0,0,0, ,0,0,0,0,0, ,565.6,494.2,637.9,-0.1,-25.9,-74.8,25,576.143,339.018,695.755,-6.70246,-12.0466,-58.6434,
2026_06_10_20_16_39.659,3.869,30.5,0,0.76,0,0,0,0, ,0,0,0,0,0, ,583.7,519.6,620.6,0,-27,-65.6,25,576.052,349.249,691.702,-6.29708,-12.9243,-59.3476,
2026_06_10_20_16_39.681,3.869,30.7,0,0.759,0,0,0,0, ,0,0,0,0,0, ,519.7,526.6,623.1,5.2,-11.4,-61.5,25,574.568,359.843,687.446,-5.75491,-13.3067,-59.6037,
2026_06_10_20_16_39.699,3.869,30.7,0,0.758,0,0,0,0, ,0,0,0,0,0, ,479.2,533.2,655,11.4,-4.3,-62.8,25,569.991,370.206,684.497,-4.89844,-12.9742,-59.7589,
2026_06_10_20_16_39.719,3.869,30.7,0,0.759,0,0,0,0, ,0,0,0,0,0, ,495.9,560.3,648.1,13.1,-13.3,-60.8,25,564.967,380.964,682.489,-3.85346,-12.7198,-59.8833,
2026_06_10_20_16_39.739,3.869,30.7,0,0.759,0,0,0,0, ,0,0,0,0,0, ,516.1,574.7,626.2,15.8,-17.6,-57.8,25,561.374,392.331,679.726,-2.73809,-12.8862,-59.8477,
2026_06_10_20_16_39.758,3.869,30.7,0,0.759,0,0,0,0, ,0,0,0,0,0, ,499.3,580,627.3,22,-13.3,-55.6,25,558.103,403.605,676.498,-1.41952,-13.0424,-59.6559,
2026_06_10_20_16_39.778,3.869,30.5,0,0.761,0,0,0,0, ,0,0,0,0,0, ,466.3,593.1,661.3,24,-9.5,-55.1,25,553.514,414.754,674.536,0.0685457,-12.9424,-59.3935,
2026_06_10_20_16_39.798,3.869,30.7,0,0.76,0,0,0,0, ,0,0,0,0,0, ,428.1,607.1,645.9,25.3,-2.3,-60.2,25,547.036,426.048,673.26,1.56648,-12.5132,-59.2873,
2026_06_10_20_16_39.818,3.869,30.8,0,0.759,0,0,0,0, ,0,0,0,0,0, ,455.9,616,626.5,25,-1.5,-52.9,25,540.635,437.352,671.002,3.0036,-11.8665,-59.1205,
2026_06_10_20_16_39.838,3.869,30.7,0,0.76,0,0,0,0, ,0,0,0,0,0, ,466.9,638.4,641.6,23.4,-4.5,-44.5,25,535.807,448.921,668.75,4.29525,-11.3262,-58.4855,
2026_06_10_20_16_39.857,3.869,30.5,0,0.759,0,0,0,0, ,0,0,0,0,0, ,443.2,656.1,618.7,24,-0.7,-42.2,25,530.886,461.007,666.398,5.47773,-10.7944,-57.5631,
2026_06_10_20_16_39.877,3.869,30.7,0,0.759,0,0,0,0, ,0,0,0,0,0, ,404.2,661.8,590.3,28.2,3,-41.5,25,524.354,473.069,662.626,6.7344,-10.0666,-56.6056,
2026_06_10_20_16_39.898,3.869,30.7,0,0.759,0,0,0,0, ,0,0,0,0,0, ,407.2,680.7,616.4,27,-7.7,-37.9,25,517.123,485.146,659.014,8.0059,-9.59633,-55.5754,
2026_06_10_20_16_39.917,3.869,30.7,0,0.758,0,0,0,0, ,0,0,0,0,0, ,476,687.9,614.5,22.3,-21.2,-29.8,25,512.521,497.282,656.359,9.02015,-9.8921,-54.2515,
2026_06_10_20_16_39.937,3.869,30.5,0,0.759,0,0,0,0, ,0,0,0,0,0, ,488.8,703.4,569.4,24.3,-13.9,-20.6,25,510.686,509.37,652.434,9.89033,-10.3588,-52.4812,
2026_06_10_20_16_39.957,3.869,30.5,0,0.759,0,0,0,0, ,0,0,0,0,0, ,408.3,715.8,565.7,33,1.4,-17.6,25,506.899,521.571,647.261,11.0335,-10.1084,-50.447,
2026_06_10_20_16_39.977,3.869,30.5,0,0.759,0,0,0,0, ,0,0,0,0,0, ,365.2,720.2,636.5,25.8,-7.9,-18.3,25,499.578,533.541,644.449,12.1527,-9.69044,-48.4668,
2026_06_10_20_16_39.996,3.869,30.8,0,0.761,0,0,0,0, ,0,0,0,0,0, ,428.5,722.9,643.5,7.4,-17.6,-12.8,25,493.318,544.998,644.177,12.4237,-9.87688,-46.4609,
2026_06_10_20_16_40.016,3.869,30.5,0,0.759,0,0,0,0, ,0,0,0,0,0, ,486.6,723.9,601.6,-1.1,-9.4,-3,25,491.138,555.869,642.86,11.8586,-10.0977,-44.1111,
2026_06_10_20_16_40.036,3.869,30.7,0,0.759,0,0,0,0, ,0,0,0,0,0, ,442.3,732.7,560.4,0.4,0.5,4.1,25,489.512,566.377,639.09,11.1146,-9.75351,-41.3896,
2026_06_10_20_16_40.056,3.869,30.5,0,0.758,0,0,0,0, ,0,0,0,0,0, ,352.7,745.8,552.9,7.9,4.3,-1.3,25,483.905,576.911,634.066,10.6902,-9.01291,-38.7821,
2026_06_10_20_16_40.075,3.869,30.5,0,0.757,0,0,0,0, ,0,0,0,0,0, ,341.1,740.2,573.7,8.3,0.9,-4.7,25,475.556,587.032,629.754,10.5324,-8.30525,-36.6016,
2026_06_10_20_16_40.095,3.869,30.5,0,0.758,0,0,0,0, ,0,0,0,0,0, ,384.2,730.1,570.8,5.6,-8.2,-7.6,25,468.676,596.058,626.25,10.3141,-8.02157,-34.746,
2026_06_10_20_16_40.115,3.869,30.7,0,0.759,0,0,0,0, ,0,0,0,0,0, ,444,712,559.3,3.4,-10.5,-3.2,25,465.35,603.675,622.52,9.95979,-8.10252,-32.9577,
2026_06_10_20_16_40.135,3.869,30.7,0,0.76,0,0,0,0, ,0,0,0,0,0, ,437.3,721,539.7,5.3,-6.2,1,25,463.845,610.55,618.071,9.61794,-8.1176,-31.0164,
2026_06_10_20_16_40.155,3.869,30.5,0,0.76,0,0,0,0, ,0,0,0,0,0, ,412.9,724.4,570.1,4.9,-5,2.9,25,461.484,617.384,614.221,9.34263,-7.96418,-29.0075,
2026_06_10_20_16_40.175,3.869,30.7,0,0.759,0,0,0,0, ,0,0,0,0,0, ,400,723.7,562.3,2.1,-4.9,3,25,458.13,623.884,611.295,8.98659,-7.78051,-27.0601,
2026_06_10_20_16_40.195,3.869,30.7,0,0.759,0,0,0,0, ,0,0,0,0,0, ,393.7,721,550.9,3.1,-1.7,1.5,25,454.396,629.884,607.962,8.59741,-7.50748,-25.274,
2026_06_10_20_16_40.214,3.869,30.7,0,0.76,0,0,0,0, ,0,0,0,0,0, ,412.8,712.5,553.4,1.8,-5.3,2.4,25,451.279,635.178,604.561,8.2228,-7.26327,-23.615,
2026_06_10_20_16_40.234,3.869,30.5,0,0.759,0,0,0,0, ,0,0,0,0,0, ,416.8,717.5,538.9,4.1,-4.5,2.5,25,449.056,640.042,601.002,7.90149,-7.11926,-22.0267,
2026_06_10_20_16_40.254,3.869,30.5,0,0.759,0,0,0,0, ,0,0,0,0,0, ,383.9,726.9,574.4,5.7,1.9,0.5,25,446.088,645.048,598.299,7.71859,-6.76465,-20.593,
2026_06_10_20_16_40.274,3.869,30.5,0,0.76,0,0,0,0, ,0,0,0,0,0, ,376.2,720.8,580.8,2.5,2.4,-2.3,25,442.064,649.85,597.038,7.49808,-6.22141,-19.393,
2026_06_10_20_16_40.294,3.869,30.7,0,0.759,0,0,0,0, ,0,0,0,0,0, ,395.6,712.8,556.5,1.7,0.9,-4,25,438.642,653.93,595.308,7.16913,-5.74175,-18.4032,
2026_06_10_20_16_40.313,3.869,30.5,0,0.759,0,0,0,0, ,0,0,0,0,0, ,420.7,706.5,545.8,-0.4,-4.3,-1.1,25,436.784,657.326,592.617,6.77187,-5.49545,-17.4371,
2026_06_10_20_16_40.333,3.869,30.7,0,0.76,0,0,0,0, ,0,0,0,0,0, ,434.4,708,546.6,1,-5,0.8,25,436.221,660.368,589.788,6.37749,-5.44393,-16.3837,
2026_06_10_20_16_40.354,3.869,30.8,0,0.759,0,0,0,0, ,0,0,0,0,0, ,393.3,719.9,554.1,5.3,2.7,-1.4,25,434.858,663.633,587.385,6.18082,-5.18227,-15.4036,
2026_06_10_20_16_40.373,3.869,30.5,0,0.759,0,0,0,0, ,0,0,0,0,0, ,352.1,726.8,550.7,7.6,6.5,-6.9,25,431.07,667.272,585.253,6.19722,-4.58616,-14.7178,
2026_06_10_20_16_40.392,3.869,30.7,0,0.759,0,0,0,0, ,0,0,0,0,0, ,380.4,725.9,573.1,4.2,-1.2,-11.1,25,427.12,670.872,583.83,6.17911,-4.14521,-14.3694,
2026_06_10_20_16_40.412,3.869,30.7,0,0.759,0,0,0,0, ,0,0,0,0,0, ,442.2,716.6,560.4,-0.3,-6.2,-7.4,25,426.156,673.942,582.789,5.9214,-4.11808,-14.0574,
2026_06_10_20_16_40.432,3.869,30.7,0,0.759,0,0,0,0, ,0,0,0,0,0, ,462,711.6,540,-0.6,-2,-1.8,25,427.737,676.389,580.803,5.53314,-4.11698,-13.4811,
2026_06_10_20_16_40.452,3.869,30.7,0,0.758,0,0,0,0, ,0,0,0,0,0, ,426.2,723.7,528.1,3.8,1.8,0.3,25,428.734,678.903,577.954,5.29347,-3.87219,-12.7053,
2026_06_10_20_16_40.471,3.869,30.5,0,0.759,0,0,0,0, ,0,0,0,0,0, ,404,736.5,548.7,5.5,-5.2,0.6,25,427.903,682.023,575.544,5.25425,-3.73983,-11.9037,
2026_06_10_20_16_40.491,3.869,30.7,0,0.758,0,0,0,0, ,0,0,0,0,0, ,431.3,728.5,552.6,2.2,-12.4,2.3,25,427.278,685.099,574.027,5.16868,-4.04818,-11.0899,
2026_06_10_20_16_40.512,3.869,30.5,0,0.759,0,0,0,0, ,0,0,0,0,0, ,430.5,723.1,540.4,3.8,-8,5.2,25,427.499,687.579,572.35,5.03653,-4.42306,-10.1856,
2026_06_10_20_16_40.531,3.869,30.5,0,0.76,0,0,0,0, ,0,0,0,0,0, ,385.3,723,549.3,8.4,0.6,1.1,25,426.305,689.741,570.674,5.10133,-4.379,-9.37298,
2026_06_10_20_16_40.551,3.869,30.5,0,0.76,0,0,0,0, ,0,0,0,0,0, ,378.6,720.9,548.7,5.8,-2.3,-3.1,25,423.602,691.704,569.353,5.22313,-4.16395,-8.86275,
2026_06_10_20_16_40.571,3.869,30.7,0,0.759,0,0,0,0, ,0,0,0,0,0, ,418.7,720.4,519.2,6,-7.8,-4.1,25,422.081,693.468,567.196,5.26437,-4.21794,-8.54205,
2026_06_10_20_16_40.590,3.869,30.5,0,0.76,0,0,0,0, ,0,0,0,0,0, ,448.4,720,514.5,9,-12.8,0.2,25,422.78,695.097,564.128,5.40061,-4.58857,-8.14035,
2026_06_10_20_16_40.611,3.869,30.7,0,0.759,0,0,0,0, ,0,0,0,0,0, ,462.6,719.9,516.8,11.4,-20.5,7.9,25,424.774,696.611,561.174,5.69307,-5.32356,-7.3975,
2026_06_10_20_16_40.630,3.869,30.5,0,0.759,0,0,0,0, ,0,0,0,0,0, ,458.3,736.5,511.2,13.9,-26.5,13.1,25,426.948,698.536,558.299,6.11701,-6.43119,-6.30687,
2026_06_10_20_16_40.650,3.869,30.5,0,0.759,0,0,0,0, ,0,0,0,0,0, ,493,730.2,530.5,25.1,-23.4,17,25,429.916,700.657,556.017,6.93253,-7.55968,-5.00544,
2026_06_10_20_16_40.670,3.869,30.7,0,0.76,0,0,0,0, ,0,0,0,0,0, ,454.7,755.4,548.8,18.4,-27.1,10.3,25,432.593,703.226,555.02,7.83547,-8.63768,-3.86862,
2026_06_10_20_16_40.690,3.869,30.7,0,0.76,0,0,0,0, ,0,0,0,0,0, ,487.6,732.9,514.4,16.1,-19.9,16.2,25,434.943,705.719,553.592,8.40917,-9.54335,-2.82545,
2026_06_10_20_16_40.709,3.869,30.5,0,0.759,0,0,0,0, ,0,0,0,0,0, ,493,738.4,485.1,15,-18.9,21.7,25,438.316,707.543,550.311,8.84432,-10.144,-1.49851,
2026_06_10_20_16_40.729,3.869,30.4,0,0.757,0,0,0,0, ,0,0,0,0,0, ,522.5,746.5,455.8,14.2,-28.9,30.3,25,442.547,709.67,545.445,9.19505,-10.9822,0.177178,
2026_06_10_20_16_40.750,3.869,30.7,0,0.759,0,0,0,0, ,0,0,0,0,0, ,549.6,752.9,461.9,13.7,-39.4,39.4,25,448.245,712.11,540.168,9.48481,-12.394,2.29005,
2026_06_10_20_16_40.769,3.869,30.5,0,0.76,0,0,0,0, ,0,0,0,0,0, ,587.2,744.1,455.8,19.4,-39.6,43.8,25,455.567,714.327,535.213,9.91534,-14.0458,4.6855,
2026_06_10_20_16_40.789,3.869,30.5,0,0.759,0,0,0,0, ,0,0,0,0,0, ,591.7,746.5,450.3,22.7,-38.1,46,25,463.725,716.215,530.206,10.5939,-15.5573,7.13607,
2026_06_10_20_16_40.808,3.869,30.5,0,0.759,0,0,0,0, ,0,0,0,0,0, ,646.9,736.2,430.2,36.7,-39.9,53.4,25,473.206,717.746,524.724,11.7581,-16.9858,9.72981,
2026_06_10_20_16_40.828,3.869,30.5,0,0.759,0,0,0,0, ,0,0,0,0,0, ,659.3,757.9,370.4,47.1,-45.9,68.8,25,484.168,719.532,517.142,13.5949,-18.565,12.8602,
2026_06_10_20_16_40.848,3.869,30.4,0,0.76,0,0,0,0, ,0,0,0,0,0, ,692.9,734,380.8,44.5,-54.5,84.6,25,495.864,721.142,508.517,15.5574,-20.4927,16.7504,
2026_06_10_20_16_40.868,3.869,30.8,0,0.759,0,0,0,0, ,0,0,0,0,0, ,705.2,733.3,347.2,60.1,-59.2,91,25,508.246,721.904,499.71,17.7964,-22.7083,21.08,
2026_06_10_20_16_40.888,3.869,30.5,0,0.758,0,0,0,0, ,0,0,0,0,0, ,717,715.9,311.4,62.2,-59.1,102.8,25,520.607,722.068,489.326,20.4383,-24.9289,25.7003,
2026_06_10_20_16_40.914,3.869,30.5,0,0.759,0,0,0,0, ,0,0,0,0,0, ,692.6,711.3,286.2,67.5,-60.7,105.5,25,531.831,721.552,477.716,23.1446,-27.06,30.4808,
2026_06_10_20_16_40.927,3.869,30.5,0,0.758,0,0,0,0, ,0,0,0,0,0, ,660.1,704.4,267.8,46.8,-70.8,100.9,25,540.638,720.717,465.485,25.2168,-29.4177,34.9121,
2026_06_10_20_16_40.947,3.869,30.7,0,0.759,0,0,0,0, ,0,0,0,0,0, ,740.6,652,328.2,24.2,-83.3,104.3,25,550.37,718.126,455.279,25.8434,-32.3203,39.0369,
2026_06_10_20_16_40.967,3.869,30.8,0,0.759,0,0,0,0, ,0,0,0,0,0, ,761.4,621.9,293.4,10.7,-64.2,110.1,25,562.596,713.18,446.474,25.332,-34.8449,43.1906,
2026_06_10_20_16_40.987,3.869,30.5,0,0.759,0,0,0,0, ,0,0,0,0,0, ,694.4,607.1,270.6,12.9,-32.9,99.8,25,572.669,707.166,436.452,24.5074,-35.68,46.954,
2026_06_10_20_16_41.006,3.869,30.7,0,0.759,0,0,0,0, ,0,0,0,0,0, ,698.7,562,211.7,11,-42.6,81,25,580.218,699.695,424.551,23.7421,-35.8062,49.6015,
2026_06_10_20_16_41.026,3.869,30.5,0,0.76,0,0,0,0, ,0,0,0,0,0, ,767.4,536.8,135,3.3,-84.7,80.6,25,589.532,690.536,409.243,22.7311,-37.5029,51.5027,
2026_06_10_20_16_41.051,3.869,30.7,0,0.759,0,0,0,0, ,0,0,0,0,0, ,821.6,482,130,9,-106.7,81.2,25,602.022,679.498,392.379,21.7207,-41.0493,53.2941,
2026_06_10_20_16_41.066,3.869,30.4,0,0.759,0,0,0,0, ,0,0,0,0,0, ,791.3,471.3,146.2,23.8,-93.9,73.4,25,614.479,667.137,376.884,21.3964,-44.6599,54.7569,
2026_06_10_20_16_41.086,3.869,30.4,0,0.76,0,0,0,0, ,0,0,0,0,0, ,760.3,452.7,142.8,26.9,-79.4,57.2,25,624.31,654.636,362.723,21.6373,-47.2187,55.3994,
2026_06_10_20_16_41.106,3.869,30.7,0,0.76,0,0,0,0, ,0,0,0,0,0, ,867.6,425.9,46.2,29.1,-85.4,48.1,25,635.866,641.514,346.378,22.0251,-49.3625,55.2319,
2026_06_10_20_16_41.126,3.869,30.7,0,0.759,0,0,0,0, ,0,0,0,0,0, ,959.8,398.4,5.1,30.6,-87.1,60.8,25,652.796,627.537,326.834,22.5019,-51.6103,55.1842,
2026_06_10_20_16_41.145,3.869,30.5,0,0.76,0,0,0,0, ,0,0,0,0,0, ,900.6,411.4,-27.3,44,-70.1,58.2,25,669.701,613.97,306.241,23.4037,-53.255,55.4472,
2026_06_10_20_16_41.165,3.869,30.7,0,0.759,0,0,0,0, ,0,0,0,0,0, ,835.2,411.4,17,45.8,-46.3,46.4,25,681.778,601.626,287.266,24.7136,-53.5564,55.2554,
2026_06_10_20_16_41.185,3.869,30.7,0,0.759,0,0,0,0, ,0,0,0,0,0, ,866.3,380.3,23.6,36.3,-54.9,38.1,25,692.075,589.087,270.997,25.7091,-53.3762,54.4629,
2026_06_10_20_16_41.205,3.869,30.7,0,0.759,0,0,0,0, ,0,0,0,0,0, ,838.6,338.6,-26.3,23,-73,37.8,25,701.848,575.093,254.401,25.9492,-54.0206,53.4567,
2026_06_10_20_16_41.225,3.869,30.7,0,0.758,0,0,0,0, ,0,0,0,0,0, ,882.4,316.1,-72,14.4,-72.9,38,25,711.516,559.996,235.904,25.5075,-55.1741,52.5087,
2026_06_10_20_16_41.245,3.869,30.5,0,0.758,0,0,0,0, ,0,0,0,0,0, ,1034.5,340.6,-123,10.9,-76.8,43.1,25,726.563,545.881,215.587,24.724,-56.3731,51.7799,
2026_06_10_20_16_41.264,3.869,30.8,0,0.76,0,0,0,0, ,0,0,0,0,0, ,944.9,307.7,-129,12.1,-72.1,48.7,25,742.598,532.369,194.771,23.9182,-57.4746,51.4216,
2026_06_10_20_16_41.284,3.869,30.4,0,0.759,0,0,0,0, ,0,0,0,0,0, ,883.9,292.4,-167.7,22,-68.5,43.1,25,753.067,518.212,173.862,23.4996,-58.2562,51.0852,
2026_06_10_20_16_41.304,3.869,30.8,0,0.758,0,0,0,0, ,0,0,0,0,0, ,834.9,286.1,-213.9,23.7,-90.4,34.2,25,759.547,504.26,151.641,23.46,-59.5477,50.3274,
2026_06_10_20_16_41.329,3.869,30.7,0,0.759,0,0,0,0, ,0,0,0,0,0, ,883.4,274.4,-193.2,16.5,-103.3,28.1,25,765.617,490.609,129.996,23.2553,-61.8208,49.1588,
2026_06_10_20_16_41.343,3.869,30.5,0,0.758,0,0,0,0, ,0,0,0,0,0, ,957.3,251,-217.1,15.8,-81.1,29.2,25,775.046,476.721,109.573,22.8223,-63.672,47.909,
2026_06_10_20_16_41.363,3.869,30.5,0,0.759,0,0,0,0, ,0,0,0,0,0, ,949.3,250.1,-292.7,10.9,-55.2,36.1,25,785.908,462.938,87.3633,22.2451,-63.9449,46.9792,
2026_06_10_20_16_41.383,3.869,30.8,0,0.76,0,0,0,0, ,0,0,0,0,0, ,911.3,242.5,-329.3,10.3,-47.1,38.1,25,794.707,449.737,63.088,21.5355,-63.1652,46.3772,
2026_06_10_20_16_41.403,3.869,30.7,0,0.759,0,0,0,0, ,0,0,0,0,0, ,871.8,222.1,-341.1,18.7,-48.9,30,25,800.608,436.487,38.8173,21.1067,-62.2411,45.626,
2026_06_10_20_16_41.422,3.869,30.5,0,0.759,0,0,0,0, ,0,0,0,0,0, ,917.6,226.1,-348.3,17.3,-65.2,18.4,25,806.342,423.545,15.4467,20.9174,-61.9247,44.3203,
2026_06_10_20_16_41.443,3.869,30.7,0,0.759,0,0,0,0, ,0,0,0,0,0, ,870.8,198.6,-421.2,18.8,-85.7,16.6,25,811.696,410.675,-8.94025,20.7427,-62.7489,42.686,
2026_06_10_20_16_41.462,3.869,30.5,0,0.758,0,0,0,0, ,0,0,0,0,0, ,936.4,166.9,-427.1,23.9,-81.7,19.7,25,817.296,396.786,-34.2421,20.7797,-64.0256,41.1908,
2026_06_10_20_16_41.482,3.869,30.5,0,0.759,0,0,0,0, ,0,0,0,0,0, ,905.7,162.2,-422.4,17.8,-63.1,30.9,25,823.619,382.634,-58.0387,20.784,-64.536,40.2225,
2026_06_10_20_16_41.502,3.869,30.7,0,0.76,0,0,0,0, ,0,0,0,0,0, ,823.4,153.9,-374.7,16.1,-44.9,29.8,25,826.113,368.948,-78.7886,20.5504,-63.8939,39.6209,
2026_06_10_20_16_41.522,3.869,30.7,0,0.759,0,0,0,0, ,0,0,0,0,0, ,797.3,151.8,-366.4,13.3,-43.2,25.6,25,825.152,355.78,-96.5678,20.1938,-62.6847,38.8944,
2026_06_10_20_16_41.542,3.869,30.5,0,0.757,0,0,0,0, ,0,0,0,0,0, ,877.3,131.9,-487.3,5.4,-46.4,25.8,25,825.893,342.744,-116.694,19.533,-61.5948,38.0904,
2026_06_10_20_16_41.561,3.869,30.7,0,0.761,0,0,0,0, ,0,0,0,0,0, ,805.9,124.1,-580.6,-2.6,-42.3,36.5,25,826.85,329.658,-142.121,18.4281,-60.544,37.6675,
2026_06_10_20_16_41.581,3.869,30.7,0,0.758,0,0,0,0, ,0,0,0,0,0, ,952.1,78.3,-516.3,25.4,-39.8,46.2,25,830.028,315.736,-166.882,17.9998,-59.3561,37.8919,
2026_06_10_20_16_41.606,3.869,30.5,0,0.759,0,0,0,0, ,0,0,0,0,0, ,758.9,107.4,-427.3,21.6,-31.3,39,25,831.58,302.154,-185.463,18.335,-57.9054,38.1788,
2026_06_10_20_16_41.621,3.869,30.5,0,0.76,0,0,0,0, ,0,0,0,0,0, ,758,83.2,-414.4,9.8,-22.7,26.4,25,827.124,289.549,-199.806,18.1744,-56.0221,37.8449,
2026_06_10_20_16_41.640,3.869,30.5,0,0.759,0,0,0,0, ,0,0,0,0,0, ,861.2,62.9,-505.4,8.7,-11.4,18.6,25,826.056,276.356,-215.656,17.6306,-53.6472,36.9098,
2026_06_10_20_16_41.660,3.869,30.5,0,0.758,0,0,0,0, ,0,0,0,0,0, ,903.4,59.3,-619.2,18.1,-10.8,29.3,25,829.483,263.239,-236.78,17.3728,-51.0545,36.1201,
2026_06_10_20_16_41.681,3.869,30.5,0,0.759,0,0,0,0, ,0,0,0,0,0, ,816.2,63.3,-556.5,19,-24,34.5,25,831.331,250.933,-258.173,17.4445,-49.0037,35.8629,
2026_06_10_20_16_41.700,3.869,30.5,0,0.759,0,0,0,0, ,0,0,0,0,0, ,771.7,38.9,-482,6.6,-37.7,25.7,25,829.053,238.756,-274.082,17.1615,-47.8974,35.5117,
2026_06_10_20_16_41.720,3.869,30.5,0,0.76,0,0,0,0, ,0,0,0,0,0, ,829.5,14.2,-522.7,4.1,-26.8,11.2,25,827.319,225.824,-287.992,16.4417,-46.9439,34.472,
2026_06_10_20_16_41.742,3.869,30.5,0,0.758,0,0,0,0, ,0,0,0,0,0, ,877.9,13.6,-581.2,5.9,-5.5,11.5,25,828.926,212.91,-304.077,15.7445,-45.0674,33.063,
2026_06_10_20_16_41.759,3.869,30.5,0,0.76,0,0,0,0, ,0,0,0,0,0, ,862.5,3.6,-555.5,10.8,8.1,13.7,25,831.442,200.46,-320.181,15.2939,-42.2419,31.8161,
2026_06_10_20_16_41.779,3.869,30.5,0,0.758,0,0,0,0, ,0,0,0,0,0, ,807.2,2.3,-531.4,7.7,14.6,11.5,25,831.649,188.424,-333.787,14.9256,-38.9762,30.6451,
2026_06_10_20_16_41.800,3.869,30.7,0,0.759,0,0,0,0, ,0,0,0,0,0, ,758.3,12.3,-528.5,-3.6,9.9,3,25,828.669,177.387,-345.74,14.141,-35.8546,29.2195,
2026_06_10_20_16_41.819,3.869,30.5,0,0.759,0,0,0,0, ,0,0,0,0,0, ,802.4,4.7,-529.2,-12.5,0.3,-6.4,25,825.725,167.096,-356.899,12.7887,-33.3589,27.3353,
2026_06_10_20_16_41.839,3.869,30.7,0,0.758,0,0,0,0, ,0,0,0,0,0, ,882.6,-1.4,-589.7,-4.5,2,-6.5,25,826.747,157.014,-369.242,11.4914,-31.256,25.2765,
2026_06_10_20_16_41.858,3.869,30.5,0,0.758,0,0,0,0, ,0,0,0,0,0, ,872.8,0.1,-573.8,5.5,13,-1.6,25,829.852,147.406,-382.191,10.8216,-28.8943,23.4894,
2026_06_10_20_16_41.881,3.869,30.7,0,0.758,0,0,0,0, ,0,0,0,0,0, ,837.8,-1.2,-546.9,6.5,13.8,0.5,25,831.403,138.39,-393.048,10.5278,-26.317,22.0245,
2026_06_10_20_16_41.898,3.869,30.7,0,0.758,0,0,0,0, ,0,0,0,0,0, ,818.2,2.9,-513.5,0.5,1.8,-1.4,25,831.196,130.009,-401.406,10.0996,-24.238,20.655,
2026_06_10_20_16_41.918,3.869,30.5,0,0.759,0,0,0,0, ,0,0,0,0,0, ,837.8,9,-528.3,-5.9,-10.4,-4.9,25,831.001,122.449,-408.687,9.31959,-23.023,19.2044,
2026_06_10_20_16_41.938,3.869,30.5,0,0.759,0,0,0,0, ,0,0,0,0,0, ,897.9,-2,-535.6,-3,-4.8,-0.8,25,833.246,115.2,-416.199,8.48051,-22.0832,17.8604,
2026_06_10_20_16_41.958,3.869,30.7,0,0.759,0,0,0,0, ,0,0,0,0,0, ,866.3,6.2,-544.3,0.1,5.9,3.7,25,836.223,108.308,-423.74,7.87537,-20.704,16.8604,
2026_06_10_20_16_41.977,3.869,30.5,0,0.76,0,0,0,0, ,0,0,0,0,0, ,822.8,12.3,-541.9,0.7,2.5,1.8,25,836.731,102.272,-431.013,7.41984,-19.1864,16.0006,
2026_06_10_20_16_41.997,3.869,30.5,0,0.758,0,0,0,0, ,0,0,0,0,0, ,834.9,12.8,-529.4,0.3,-3.2,-2.7,25,836.251,96.8045,-437.39,6.99816,-18.0385,14.9981,
2026_06_10_20_16_42.023,3.869,30.5,0,0.759,0,0,0,0, ,0,0,0,0,0, ,873.5,7,-533.8,-3.4,-0.7,0,25,837.344,91.5088,-443.131,6.47726,-17.0582,14.0019,
2026_06_10_20_16_42.037,3.869,30.5,0,0.76,0,0,0,0, ,0,0,0,0,0, ,874.5,2.3,-517.4,0.9,0.4,4.7,25,839.578,86.2158,-448.156,6.00638,-16.0278,13.2919,
2026_06_10_20_16_42.057,3.869,30.5,0,0.76,0,0,0,0, ,0,0,0,0,0, ,853.6,7.9,-514.5,2.9,0.1,7.4,25,841.069,81.2728,-452.287,5.75615,-15.0359,12.8506,
2026_06_10_20_16_42.076,3.869,30.5,0,0.758,0,0,0,0, ,0,0,0,0,0, ,818.6,8.1,-519.8,0.1,0.2,4.5,25,840.766,76.8078,-456.24,5.49679,-14.1105,12.4301,
2026_06_10_20_16_42.096,3.869,30.5,0,0.759,0,0,0,0, ,0,0,0,0,0, ,803.1,10.8,-545.1,0.9,-6.2,-1.8,25,838.943,72.7032,-460.884,5.1923,-13.4334,11.7549,
2026_06_10_20_16_42.117,3.869,30.5,0,0.758,0,0,0,0, ,0,0,0,0,0, ,880.4,-1.9,-555.7,2.7,-14.5,1.4,25,839.114,68.544,-466.339,4.98558,-13.2455,11.0264,
2026_06_10_20_16_42.136,3.869,30.7,0,0.758,0,0,0,0, ,0,0,0,0,0, ,879.8,-3.5,-551.1,6.1,-7.8,9.8,25,841.612,64.2025,-471.644,4.94989,-13.1179,10.6957,
2026_06_10_20_16_42.160,3.869,30.5,0,0.759,0,0,0,0, ,0,0,0,0,0, ,800,-17.8,-504.6,4.8,-2.3,11.5,25,841.508,59.6412,-475.069,4.98037,-12.6262,10.6929,
2026_06_10_20_16_42.176,3.869,30.5,0,0.758,0,0,0,0, ,0,0,0,0,0, ,778.6,-16.1,-519.6,0.5,-2.2,5.4,25,838.326,54.9739,-477.326,4.83836,-11.9939,10.5562,
2026_06_10_20_16_42.195,3.869,30.5,0,0.758,0,0,0,0, ,0,0,0,0,0, ,798.4,-7,-553.4,0.2,-2.2,-0.8,25,835.29,50.9201,-480.932,4.56485,-11.3971,10.0531,
2026_06_10_20_16_42.215,3.869,30.5,0,0.759,0,0,0,0, ,0,0,0,0,0, ,829.8,-13.9,-550.2,1.4,-1.7,-1.6,25,833.999,47.1804,-485.25,4.33543,-10.8214,9.36738,
2026_06_10_20_16_42.235,3.869,30.5,0,0.759,0,0,0,0, ,0,0,0,0,0, ,824.7,-18,-536.7,0.7,-2.8,-0.8,25,833.587,43.3334,-488.797,4.13523,-10.2991,8.72343,
2026_06_10_20_16_42.255,3.869,30.5,0,0.759,0,0,0,0, ,0,0,0,0,0, ,812.9,-15.2,-530.7,-1.6,-1.8,-3.2,25,832.686,39.6812,-491.533,3.85581,-9.81165,8.06997,
2026_06_10_20_16_42.275,3.869,30.7,0,0.759,0,0,0,0, ,0,0,0,0,0, ,839.5,-7,-559.4,-0.4,7.6,-5.2,25,832.291,36.5867,-494.794,3.55991,-9.03704,7.32227,
2026_06_10_20_16_42.299,3.869,30.5,0,0.758,0,0,0,0, ,0,0,0,0,0, ,842.7,-6.8,-560.3,0.6,9.2,-3.5,25,832.828,33.9367,-498.759,3.34907,-7.97447,6.61099,
2026_06_10_20_16_42.315,3.869,30.4,0,0.759,0,0,0,0, ,0,0,0,0,0, ,842.6,-8,-545.4,1.2,0.5,-2.4,25,833.426,31.4178,-502.055,3.19983,-7.19298,6.02837,
2026_06_10_20_16_42.334,3.869,30.5,0,0.758,0,0,0,0, ,0,0,0,0,0, ,849.7,-10.7,-543,0.3,-9.5,-0.2,25,834.202,28.9335,-504.623,3.05055,-7.02887,5.5818,
2026_06_10_20_16_42.354,3.869,30.5,0,0.759,0,0,0,0, ,0,0,0,0,0, ,858.6,-31.1,-545.2,-1.9,-4.7,0.2,25,835.417,25.8968,-507.029,2.8159,-7.03321,5.24166,
2026_06_10_20_16_42.374,3.869,30.5,0,0.76,0,0,0,0, ,0,0,0,0,0, ,826.9,-3.5,-551.3,1.5,1.9,3,25,835.864,23.2645,-509.541,2.63212,-6.68993,5.01974,
2026_06_10_20_16_42.393,3.869,30.7,0,0.759,0,0,0,0, ,0,0,0,0,0, ,809.9,-12.6,-540.5,-0.8,2.5,-1.3,25,834.8,21.3562,-511.756,2.49306,-6.1482,4.76565,
2026_06_10_20_16_42.414,3.869,30.5,0,0.759,0,0,0,0, ,0,0,0,0,0, ,829.7,-12,-549.9,0,2.3,-0.9,25,833.886,19.3053,-513.794,2.31676,-5.6273,4.40821,
2026_06_10_20_16_42.438,3.869,30.7,0,0.76,0,0,0,0, ,0,0,0,0,0, ,828.4,-11.9,-533.3,1.6,5.8,-0.1,25,833.591,17.4007,-515.489,2.22433,-5.03759,4.10912,
2026_06_10_20_16_42.453,3.869,30.5,0,0.759,0,0,0,0, ,0,0,0,0,0, ,816.1,-17.5,-517.7,0.5,1,-1,25,832.9,15.4446,-516.099,2.15277,-4.52342,3.8252,
2026_06_10_20_16_42.473,3.869,30.5,0,0.759,0,0,0,0, ,0,0,0,0,0, ,820.5,-12.3,-529.7,-0.8,-3.4,-2.8,25,832.01,13.5954,-516.562,2.01245,-4.3209,3.47632,
2026_06_10_20_16_42.493,3.869,30.5,0,0.76,0,0,0,0, ,0,0,0,0,0, ,839.7,-15.7,-536.1,-0.3,-1.2,-2.9,25,831.894,11.9138,-517.557,1.8563,-4.19775,3.09081,
2026_06_10_20_16_42.513,3.869,30.5,0,0.759,0,0,0,0, ,0,0,0,0,0, ,845.8,-10.4,-545.4,0.7,4.3,-0.5,25,832.556,10.3926,-518.971,1.75537,-3.8475,2.79887,
2026_06_10_20_16_42.532,3.869,30.5,0,0.759,0,0,0,0, ,0,0,0,0,0, ,875.4,-15.5,-527.7,0.7,2.9,3.6,25,834.265,8.97017,-520.042,1.69106,-3.39367,2.72277,
2026_06_10_20_16_42.552,3.869,30.5,0,0.759,0,0,0,0, ,0,0,0,0,0, ,859.4,-15.5,-536.7,0.8,0.8,7.8,25,836.284,7.47902,-520.783,1.63371,-3.07413,2.90419,
2026_06_10_20_16_42.577,3.869,30.5,0,0.759,0,0,0,0, ,0,0,0,0,0, ,820.9,-19.1,-526.3,0.3,0.5,6.4,25,836.519,5.96905,-521.436,1.56767,-2.84719,3.15988,
2026_06_10_20_16_42.592,3.869,30.4,0,0.76,0,0,0,0, ,0,0,0,0,0, ,840.5,-22.2,-540.6,0.7,-0.8,3.6,25,836.165,4.34695,-522.168,1.50261,-2.68283,3.27201,
2026_06_10_20_16_42.611,3.869,30.5,0,0.759,0,0,0,0, ,0,0,0,0,0, ,902.9,-26.3,-563.1,3.3,4.2,9.6,25,838.33,2.60432,-523.977,1.53292,-2.41575,3.47481,
2026_06_10_20_16_42.631,3.869,30.5,0,0.76,0,0,0,0, ,0,0,0,0,0, ,855.2,-25.3,-546,8.8,14.7,15.6,25,840.811,0.873435,-525.84,1.80818,-1.69268,4.03088,
2026_06_10_20_16_42.651,3.869,30.5,0,0.759,0,0,0,0, ,0,0,0,0,0, ,808.3,-29.2,-516.3,6.5,9.5,13.8,25,840.259,-0.840337,-526.163,2.16417,-0.852191,4.68102,
2026_06_10_20_16_42.671,3.869,30.5,0,0.758,0,0,0,0, ,0,0,0,0,0, ,933.4,-37.7,-532.7,3.7,6.3,6.8,25,842.123,-2.82749,-526.062,2.34307,-0.318855,5.02343,
2026_06_10_20_16_42.690,3.869,30.7,0,0.759,0,0,0,0, ,0,0,0,0,0, ,920.7,-22.7,-573.2,2.3,3.4,27.4,25,847.299,-4.4955,-527.701,2.3831,-0.00387771,5.75935,
2026_06_10_20_16_42.712,3.869,30.5,0,0.759,0,0,0,0, ,0,0,0,0,0, ,896.1,-52.8,-541,8.4,10.4,36,25,851.022,-6.52195,-529.492,2.5639,0.416827,7.34011,
2026_06_10_20_16_42.731,3.869,30.5,0,0.759,0,0,0,0, ,0,0,0,0,0, ,841,-53.9,-546.8,15.2,15.2,34.3,25,852.09,-9.37553,-530.37,3.12672,1.17143,9.03477,
2026_06_10_20_16_42.750,3.869,30.5,0,0.759,0,0,0,0, ,0,0,0,0,0, ,864.3,-57.8,-505,20.4,20.8,34.7,25,852.124,-12.2076,-530.098,4.02087,2.19692,10.5866,
2026_06_10_20_16_42.770,3.869,30.5,0,0.758,0,0,0,0, ,0,0,0,0,0, ,911.1,-63.2,-512.4,21.2,24.7,47.6,25,854.292,-15.1504,-528.794,5.04335,3.44937,12.449,
2026_06_10_20_16_42.790,3.869,30.4,0,0.76,0,0,0,0, ,0,0,0,0,0, ,871.2,-84.1,-511.8,24.5,24.4,57.9,25,856.538,-18.7152,-527.776,6.12844,4.73519,14.9049,
2026_06_10_20_16_42.809,3.869,30.5,0,0.759,0,0,0,0, ,0,0,0,0,0, ,855.1,-108.8,-482.4,22.6,18.7,61.6,25,856.941,-23.4522,-525.907,7.19007,5.75984,17.6376,
2026_06_10_20_16_42.829,3.869,30.5,0,0.759,0,0,0,0, ,0,0,0,0,0, ,853,-133.1,-489.6,26.5,26.3,61.5,25,856.765,-29.3934,-523.475,8.24794,6.77995,20.3135,
2026_06_10_20_16_42.850,3.869,30.5,0,0.759,0,0,0,0, ,0,0,0,0,0, ,879.8,-134.7,-487,30.2,37.5,64,25,857.352,-35.7618,-521.332,9.47291,8.3107,22.8995,
2026_06_10_20_16_42.869,3.869,30.5,0,0.759,0,0,0,0, ,0,0,0,0,0, ,878.7,-145.9,-489.8,36.9,51.6,71.4,25,858.686,-42.1321,-519.325,10.9401,10.519,25.6295,
2026_06_10_20_16_42.889,3.869,30.5,0,0.758,0,0,0,0, ,0,0,0,0,0, ,860.1,-164.1,-460.8,33,50.3,82.8,25,859.339,-49.01,-516.642,12.4032,12.9828,28.766,
2026_06_10_20_16_42.909,3.869,30.5,0,0.758,0,0,0,0, ,0,0,0,0,0, ,854.2,-236.3,-431.1,43.9,50.1,82.5,25,859.206,-58.2231,-512.334,13.9904,15.2507,32.0496,
2026_06_10_20_16_42.929,3.869,30.5,0,0.759,0,0,0,0, ,0,0,0,0,0, ,883,-243.6,-469.2,53.8,51.6,85.3,25,859.778,-69.2971,-508.545,16.1147,17.42,35.2092,
2026_06_10_20_16_42.949,3.869,30.5,0,0.76,0,0,0,0, ,0,0,0,0,0, ,815.9,-275.2,-429.3,60.9,55,91,25,859.149,-80.8815,-504.932,18.6275,19.6065,38.4353,
2026_06_10_20_16_42.968,3.869,30.5,0,0.759,0,0,0,0, ,0,0,0,0,0, ,808.3,-298.4,-373.4,62.7,53.8,90.1,25,856.282,-93.4297,-498.62,21.2583,21.7267,41.611,
2026_06_10_20_16_42.988,3.869,30.5,0,0.759,0,0,0,0, ,0,0,0,0,0, ,868.5,-333.3,-312.6,61,50,89.9,25,855.192,-106.983,-489.137,23.7319,23.5654,44.5597,
2026_06_10_20_16_43.008,3.869,30.5,0,0.759,0,0,0,0, ,0,0,0,0,0, ,915,-413.3,-316.1,62.9,51.8,99.6,25,857.42,-123.212,-478.486,26.0608,25.2311,47.6182,
2026_06_10_20_16_43.028,3.869,30.5,0,0.759,0,0,0,0, ,0,0,0,0,0, ,786,-423.7,-296.6,62.1,38,107.5,25,856.998,-141.206,-467.996,28.2813,26.4297,51.0265,
2026_06_10_20_16_43.048,3.869,30.5,0,0.759,0,0,0,0, ,0,0,0,0,0, ,666.5,-484.7,-244,55.3,12.2,92.2,25,849.031,-160.279,-455.949,30.1349,26.3486,54.0017,
2026_06_10_20_16_43.068,3.869,30.5,0,0.758,0,0,0,0, ,0,0,0,0,0, ,772.7,-527.2,-244.1,51.2,9.8,81,25,841.144,-181.344,-443.036,31.5435,25.4133,55.9882,
2026_06_10_20_16_43.087,3.869,30.5,0,0.76,0,0,0,0, ,0,0,0,0,0, ,865.7,-584.3,-262.4,55.6,23.4,86.3,25,839.806,-204.159,-431.471,32.8754,24.8763,57.6738,
2026_06_10_20_16_43.107,3.869,30.5,0,0.758,0,0,0,0, ,0,0,0,0,0, ,703,-593.1,-225.7,59.6,20.7,92.2,25,836.427,-227.592,-420.05,34.382,24.704,59.598,
2026_06_10_20_16_43.127,3.869,30.5,0,0.76,0,0,0,0, ,0,0,0,0,0, ,630.9,-649.9,-143.7,49,-1.3,74.4,25,826.1,-251.596,-405.709,35.5958,23.7897,61.0423,
2026_06_10_20_16_43.146,3.869,30.5,0,0.758,0,0,0,0, ,0,0,0,0,0, ,664.6,-683.3,-172.6,40.3,-1.3,61,25,815.231,-276.885,-390.623,36.1475,22.2608,61.448,
2026_06_10_20_16_43.166,3.869,30.5,0,0.759,0,0,0,0, ,0,0,0,0,0, ,789.5,-697.1,-176.1,35.1,8.7,59.1,25,809.858,-302.071,-377.444,36.2421,21.1298,61.3628,
2026_06_10_20_16_43.186,3.869,30.5,0,0.759,0,0,0,0, ,0,0,0,0,0, ,762.4,-684.3,-217.4,38.6,1.9,75.4,25,807.792,-325.753,-366.433,36.2792,20.1652,61.7216,
2026_06_10_20_16_43.206,3.869,30.5,0,0.759,0,0,0,0, ,0,0,0,0,0, ,593.2,-730.4,-139.4,40.3,-2.9,72.5,25,799.87,-349.007,-354.975,36.4724,18.9059,62.4668,
2026_06_10_20_16_43.225,3.869,30.5,0,0.759,0,0,0,0, ,0,0,0,0,0, ,543.8,-747.8,-117.6,42.1,13.9,49.6,25,785.771,-372.778,-341.174,36.7605,18.089,62.3804,
2026_06_10_20_16_43.245,3.869,30.5,0,0.759,0,0,0,0, ,0,0,0,0,0, ,696.7,-771.9,-113.4,44,32,40,25,775.685,-396.365,-327.422,37.1438,18.3852,61.3091,
2026_06_10_20_16_43.265,3.869,30.5,0,0.759,0,0,0,0, ,0,0,0,0,0, ,683.8,-748.9,-151.7,54.1,30.4,49.2,25,770.478,-418.549,-315.547,37.8693,19.1661,60.2909,
2026_06_10_20_16_43.285,3.869,30.5,0,0.759,0,0,0,0, ,0,0,0,0,0, ,590.2,-757.4,-131.8,50.3,19.1,53.1,25,762.345,-438.939,-304.956,38.7426,19.5063,59.7339,
2026_06_10_20_16_43.305,3.869,30.5,0,0.759,0,0,0,0, ,0,0,0,0,0, ,543.9,-793.3,-62.6,51.9,25.4,45.3,25,750.444,-459.439,-292.296,39.4956,19.6735,59.092,
2026_06_10_20_16_43.324,3.869,30.5,0,0.758,0,0,0,0, ,0,0,0,0,0, ,563.7,-791.3,-29.1,56.2,47.4,38.5,25,738.461,-479.722,-277.278,40.3825,20.6928,58.0443,
2026_06_10_20_16_43.345,3.869,30.5,0,0.758,0,0,0,0, ,0,0,0,0,0, ,513.4,-767,-35.5,69.3,63.2,33.2,25,726.279,-497.969,-262.35,41.7455,22.8017,56.6919,
2026_06_10_20_16_43.364,3.869,30.5,0,0.759,0,0,0,0, ,0,0,0,0,0, ,532.7,-768.4,4,60.3,59.6,31.1,25,713.895,-514.405,-247.323,43.1504,25.1538,55.1963,
2026_06_10_20_16_43.384,3.869,30.5,0,0.759,0,0,0,0, ,0,0,0,0,0, ,539.3,-803.5,97.1,53.8,51.3,37.3,25,703.054,-530.953,-229.171,43.9974,26.9999,53.9169,
2026_06_10_20_16_43.407,3.869,30.5,0,0.758,0,0,0,0, ,0,0,0,0,0, ,492.4,-816.4,115.3,43.5,52.5,29.7,25,691.646,-547.954,-208.734,44.2809,28.5173,52.6727,
2026_06_10_20_16_43.424,3.869,30.5,0,0.758,0,0,0,0, ,0,0,0,0,0, ,441.5,-818.3,123.1,41.8,53.4,16.7,25,677.954,-564.37,-188.751,44.1815,30.0062,50.8767,
2026_06_10_20_16_43.443,3.869,30.5,0,0.758,0,0,0,0, ,0,0,0,0,0, ,480.2,-819,121,43.2,58.2,6.1,25,664.724,-579.866,-169.811,44.0791,31.578,48.4711,
2026_06_10_20_16_43.464,3.869,30.5,0,0.758,0,0,0,0, ,0,0,0,0,0, ,547.3,-844.2,160.8,37.1,52,4.3,25,655.524,-595.206,-150.877,43.8396,33.0113,45.8343,
2026_06_10_20_16_43.484,3.869,30.5,0,0.76,0,0,0,0, ,0,0,0,0,0, ,570.5,-860.4,156,32.4,47.2,9.4,25,649.636,-610.872,-132.031,43.2857,34.0222,43.4587,
2026_06_10_20_16_43.503,3.869,30.5,0,0.759,0,0,0,0, ,0,0,0,0,0, ,489.8,-860.8,162.4,32.5,53.7,7.2,25,642.355,-626.09,-114.284,42.6254,35.0233,41.3162,
2026_06_10_20_16_43.522,3.869,30.5,0,0.759,0,0,0,0, ,0,0,0,0,0, ,487.3,-876.9,207.5,37.4,69.2,-1.4,25,632.982,-640.883,-96.0494,42.1577,36.6337,38.9752,
2026_06_10_20_16_43.546,3.869,30.5,0,0.757,0,0,0,0, ,0,0,0,0,0, ,536.2,-861.8,223.2,41.9,74,-5.9,25,625.595,-654.805,-77.0735,42.0049,38.7644,36.3777,
2026_06_10_20_16_43.562,3.869,30.5,0,0.758,0,0,0,0, ,0,0,0,0,0, ,547.2,-847.7,276.4,34.9,53.9,-1.4,25,620.483,-666.99,-57.1547,41.7852,40.2992,33.9386,
2026_06_10_20_16_43.583,3.869,30.4,0,0.759,0,0,0,0, ,0,0,0,0,0, ,484.9,-834.2,287.3,24.9,33.4,0.8,25,614.119,-677.59,-36.4966,41.061,40.5034,31.8521,
2026_06_10_20_16_43.602,3.869,30.5,0,0.759,0,0,0,0, ,0,0,0,0,0, ,506.2,-842.7,308.9,23.2,33.1,-2.9,25,606.893,-687.393,-16.1071,40.0244,40.0614,29.8472,
2026_06_10_20_16_43.621,3.869,30.5,0,0.759,0,0,0,0, ,0,0,0,0,0, ,499.6,-833.2,318.1,19.1,32.2,-5.3,25,600.556,-696.567,3.97835,38.8742,39.6097,27.7785,
2026_06_10_20_16_43.642,3.869,30.5,0,0.759,0,0,0,0, ,0,0,0,0,0, ,528.5,-827.6,335.6,7.5,21.3,-4.9,25,595.285,-704.723,23.6533,37.3158,38.8261,25.775,
2026_06_10_20_16_43.662,3.869,30.5,0,0.758,0,0,0,0, ,0,0,0,0,0, ,518.6,-819.2,321.4,1.2,17.5,-3.8,25,590.913,-711.955,42.2299,35.3069,37.6423,23.9392,
2026_06_10_20_16_43.684,3.869,30.5,0,0.761,0,0,0,0, ,0,0,0,0,0, ,521.3,-821.2,333.2,-0.6,14.2,-2.6,25,586.589,-718.551,59.6014,33.1737,36.3143,22.2854,
2026_06_10_20_16_43.701,3.869,30.5,0,0.759,0,0,0,0, ,0,0,0,0,0, ,488.4,-809.4,321.6,-3.4,5.2,-2.2,25,581.608,-724.446,75.9204,31.0303,34.6925,20.7812,
2026_06_10_20_16_43.721,3.869,30.4,0,0.76,0,0,0,0, ,0,0,0,0,0, ,484.8,-804,316.1,-0.4,5.2,-7.4,25,575.819,-729.459,90.7239,29.0236,32.8953,19.2223,
2026_06_10_20_16_43.740,3.869,30.5,0,0.759,0,0,0,0, ,0,0,0,0,0, ,510,-804.4,302.9,-1,7,-7.8,25,571.04,-734.013,104.056,27.2123,31.2625,17.5878,
2026_06_10_20_16_43.760,3.869,30.5,0,0.76,0,0,0,0, ,0,0,0,0,0, ,519.7,-806.2,293.5,0.2,8.4,-5.8,25,567.616,-738.357,115.886,25.5297,29.8267,16.1017,
2026_06_10_20_16_43.780,3.869,30.5,0,0.759,0,0,0,0, ,0,0,0,0,0, ,509.2,-800,306,-1,3.8,-3.6,25,564.376,-742.303,127.09,23.9496,28.3808,14.8341,
2026_06_10_20_16_43.800,3.869,30.5,0,0.759,0,0,0,0, ,0,0,0,0,0, ,499.6,-803.3,309,-4.2,-2.8,-2.1,25,560.721,-745.919,138.084,22.3317,26.6818,13.7565,
2026_06_10_20_16_43.819,3.869,30.5,0,0.758,0,0,0,0, ,0,0,0,0,0, ,489,-795.8,302.1,-2.6,-1.6,-5,25,556.674,-749.187,148.289,20.7637,24.9218,12.7019,
2026_06_10_20_16_43.839,3.869,30.5,0,0.76,0,0,0,0, ,0,0,0,0,0, ,497.9,-793.9,298.2,-2.9,0.1,-6.3,25,552.821,-751.97,157.543,19.3308,23.3575,11.5835,
2026_06_10_20_16_43.859,3.869,30.5,0,0.758,0,0,0,0, ,0,0,0,0,0, ,513,-791.6,293.8,-5.3,-3.8,-4.9,25,549.934,-754.455,165.98,17.903,21.8214,10.5364,
2026_06_10_20_16_43.879,3.869,30.4,0,0.759,0,0,0,0, ,0,0,0,0,0, ,533.5,-806,288,-4.7,-3.5,-2.9,25,548.308,-757.157,173.593,16.5074,20.2692,9.6567,
2026_06_10_20_16_43.899,3.869,30.5,0,0.759,0,0,0,0, ,0,0,0,0,0, ,521.8,-804.1,276,4.6,7.9,-1.8,25,547.049,-760.076,180.199,15.4984,19.1681,8.92504,
2026_06_10_20_16_43.918,3.869,30.5,0,0.759,0,0,0,0, ,0,0,0,0,0, ,501,-805,318.1,4.2,6.2,-2.5,25,544.877,-762.786,187.319,14.8221,18.4297,8.25016,
2026_06_10_20_16_43.939,3.869,30.5,0,0.76,0,0,0,0, ,0,0,0,0,0, ,498.7,-799.9,326.5,0.9,1,-5.2,25,542.133,-765.203,195.545,14.0743,17.526,7.5128,
2026_06_10_20_16_43.959,3.869,30.5,0,0.759,0,0,0,0, ,0,0,0,0,0, ,528.5,-804,313.4,-1.7,-1.1,-4.1,25,540.394,-767.442,203.126,13.1922,16.455,6.77163,
2026_06_10_20_16_43.978,3.869,30.4,0,0.759,0,0,0,0, ,0,0,0,0,0, ,538.5,-803.5,312,-2.1,1,-2.2,25,539.974,-769.655,209.803,12.2726,15.4492,6.16703,
2026_06_10_20_16_43.998,3.869,30.5,0,0.758,0,0,0,0, ,0,0,0,0,0, ,505,-804.8,310.4,-4.1,-1.7,-1,25,538.864,-771.757,215.982,11.3358,14.4864,5.69373,
2026_06_10_20_16_44.018,3.869,30.5,0,0.759,0,0,0,0, ,0,0,0,0,0, ,502.8,-802.2,295.5,-3.9,-2.8,-3.9,25,536.733,-773.691,221.281,10.4013,13.4665,5.19747,
2026_06_10_20_16_44.038,3.869,30.5,0,0.759,0,0,0,0, ,0,0,0,0,0, ,508.1,-796.8,287.2,-2,-0.3,-4.9,25,534.827,-775.264,225.551,9.58768,12.5515,4.61263,
2026_06_10_20_16_44.057,3.869,30.5,0,0.76,0,0,0,0, ,0,0,0,0,0, ,541.2,-798.2,283.3,-1.9,-0.9,-2.7,25,534.207,-776.619,229.189,8.8846,11.7501,4.09998,
2026_06_10_20_16_44.077,3.869,30.4,0,0.758,0,0,0,0, ,0,0,0,0,0, ,530,-802.9,287.7,1.4,2.9,-0.1,25,534.292,-778.077,232.621,8.32796,11.095,3.76483,
2026_06_10_20_16_44.097,3.869,30.5,0,0.759,0,0,0,0, ,0,0,0,0,0, ,503.1,-803.3,307.2,2.5,4.1,0.7,25,533.21,-779.602,236.571,7.93931,10.6322,3.55369,
2026_06_10_20_16_44.116,3.869,30.5,0,0.758,0,0,0,0, ,0,0,0,0,0, ,495.6,-799.5,322.6,0.8,2.5,-2.5,25,531.147,-780.93,241.344,7.55605,10.1854,3.28229,
2026_06_10_20_16_44.136,3.869,30.5,0,0.759,0,0,0,0, ,0,0,0,0,0, ,495.1,-804.3,321.6,-1.5,1.2,-5,25,528.966,-782.208,246.265,7.07428,9.67742,2.85376,
2026_06_10_20_16_44.157,3.869,30.5,0,0.759,0,0,0,0, ,0,0,0,0,0, ,528.1,-807.6,302.6,-2.5,-1.2,-6,25,527.908,-783.655,250.277,6.52131,9.0877,2.3447,
2026_06_10_20_16_44.177,3.869,30.5,0,0.759,0,0,0,0, ,0,0,0,0,0, ,538.3,-805,301,-1.2,-2.4,-1.7,25,528.23,-785.035,253.417,6.01119,8.42423,1.96721,
2026_06_10_20_16_44.197,3.869,30.5,0,0.758,0,0,0,0, ,0,0,0,0,0, ,517,-820,303.7,-1.2,-1.4,-1.2,25,528.195,-786.708,256.399,5.57175,7.7951,1.75898,
2026_06_10_20_16_44.216,3.869,30.5,0,0.759,0,0,0,0, ,0,0,0,0,0, ,509.6,-797.3,302.1,1.3,3.8,-1,25,527.287,-788.046,259.232,5.23527,7.39321,1.58476,
2026_06_10_20_16_44.238,3.869,30.5,0,0.759,0,0,0,0, ,0,0,0,0,0, ,497.4,-789.6,324.2,1.3,2.7,-3.4,25,525.838,-788.375,262.518,4.99547,7.14073,1.35413,
2026_06_10_20_16_44.256,3.869,30.5,0,0.759,0,0,0,0, ,0,0,0,0,0, ,503.6,-795.5,328.7,-1.2,0.9,-4,25,524.294,-788.629,266.414,4.6941,6.81528,1.04614,
2026_06_10_20_16_44.275,3.869,30.5,0,0.76,0,0,0,0, ,0,0,0,0,0, ,510.4,-794,312.9,-2.8,1.5,-4.3,25,523.24,-789.002,269.728,4.28618,6.4731,0.7295,
2026_06_10_20_16_44.295,3.869,30.4,0,0.759,0,0,0,0, ,0,0,0,0,0, ,510.8,-794.9,299.3,-3.2,0.9,-4.7,25,522.469,-789.334,271.944,3.84218,6.15177,0.410827,
2026_06_10_20_16_44.316,3.869,30.3,0,0.762,0,0,0,0, ,0,0,0,0,0, ,526.9,-798.4,288.8,-0.9,0.5,-4.8,25,522.249,-789.78,273.291,3.48312,5.81955,0.0963393,
2026_06_10_20_16_44.335,3.869,30.5,0,0.759,0,0,0,0, ,0,0,0,0,0, ,528.5,-798.8,296.3,1.4,1.6,-2.5,25,522.581,-790.318,274.465,3.28611,5.52891,-0.131953,
2026_06_10_20_16_44.355,3.869,30.4,0,0.759,0,0,0,0, ,0,0,0,0,0, ,512,-794.5,311.2,0.8,0,-1.7,25,522.439,-790.703,276.25,3.15289,5.24074,-0.251881,
2026_06_10_20_16_44.375,3.869,30.4,0,0.757,0,0,0,0, ,0,0,0,0,0, ,501.5,-797.8,321.5,0,-0.4,-3.8,25,521.483,-791.035,278.693,2.98514,4.9092,-0.40411,
2026_06_10_20_16_44.395,3.869,30.5,0,0.759,0,0,0,0, ,0,0,0,0,0, ,510.8,-801.1,320.1,0,0,-4.2,25,520.549,-791.548,281.259,2.80323,4.59785,-0.623235,
2026_06_10_20_16_44.414,3.869,30.5,0,0.759,0,0,0,0, ,0,0,0,0,0, ,528.5,-800.9,325,-1,-0.1,-3.7,25,520.494,-792.124,283.775,2.60194,4.31463,-0.825959,
2026_06_10_20_16_44.434,3.869,30.3,0,0.76,0,0,0,0, ,0,0,0,0,0, ,542.9,-800.4,317.9,-2.2,-1.7,0.2,25,521.42,-792.644,286.071,2.34588,3.99686,-0.882268,
2026_06_10_20_16_44.454,3.869,30.4,0,0.759,0,0,0,0, ,0,0,0,0,0, ,510.4,-805.9,306.3,-1.6,-1,-0.4,25,521.739,-793.284,287.657,2.08715,3.67104,-0.834599,
2026_06_10_20_16_44.474,3.869,30.4,0,0.759,0,0,0,0, ,0,0,0,0,0, ,513.5,-791.8,298,1,1.8,-1.6,25,521.143,-793.623,288.54,1.94168,3.47171,-0.844678,
2026_06_10_20_16_44.493,3.869,30.5,0,0.759,0,0,0,0, ,0,0,0,0,0, ,510.1,-791.7,320.9,0,-0.2,-2.6,25,520.573,-793.509,289.815,1.85383,3.3089,-0.921174,
2026_06_10_20_16_44.514,3.869,30.4,0,0.759,0,0,0,0, ,0,0,0,0,0, ,518.3,-792.6,321.7,-2.2,-2.5,-3.1,25,520.185,-793.426,291.733,1.67383,3.025,-1.03871,
2026_06_10_20_16_44.533,3.869,30.4,0,0.759,0,0,0,0, ,0,0,0,0,0, ,528.9,-795.2,299.1,-2.9,-2.2,-2.6,25,520.393,-793.455,292.871,1.41644,2.69746,-1.14909,
2026_06_10_20_16_44.553,3.869,30.4,0,0.758,0,0,0,0, ,0,0,0,0,0, ,523.6,-797.7,294.9,-1.4,-0.5,-1.3,25,520.75,-793.637,293.122,1.19911,2.45082,-1.19789,
2026_06_10_20_16_44.573,3.869,30.4,0,0.758,0,0,0,0, ,0,0,0,0,0, ,506.5,-795.6,303.3,-0.3,0,-2,25,520.403,-793.821,293.487,1.07424,2.28624,-1.22544,
2026_06_10_20_16_44.592,3.869,30.4,0,0.758,0,0,0,0, ,0,0,0,0,0, ,519,-790.1,306,0.2,0.9,-2.9,25,519.936,-793.762,294.167,1.00574,2.17434,-1.30006,
2026_06_10_20_16_44.612,3.869,30.3,0,0.76,0,0,0,0, ,0,0,0,0,0, ,522.4,-791.7,300.6,0,0,-2,25,519.983,-793.587,294.723,0.950542,2.06926,-1.37014,
2026_06_10_20_16_44.632,3.869,30.4,0,0.759,0,0,0,0, ,0,0,0,0,0, ,513.9,-799.1,307.3,-0.8,-1.3,-2.1,25,519.871,-793.698,295.286,0.868243,1.90356,-1.41157,
2026_06_10_20_16_44.652,3.869,30.4,0,0.759,0,0,0,0, ,0,0,0,0,0, ,516.2,-798.9,313.1,-0.9,-0.7,-2.8,25,519.577,-794.021,296.194,0.763538,1.72662,-1.47485,
2026_06_10_20_16_44.672,3.869,30.5,0,0.76,0,0,0,0, ,0,0,0,0,0, ,509.6,-794.1,302.7,-0.4,0.1,-4.9,25,519.17,-794.172,296.908,0.6774,1.60313,-1.61958,
2026_06_10_20_16_44.691,3.869,30.4,0,0.759,0,0,0,0, ,0,0,0,0,0, ,532.9,-793.5,296,0.8,1.5,-5.3,25,519.297,-794.149,297.057,0.648309,1.55419,-1.83167,
2026_06_10_20_16_44.711,3.869,30.4,0,0.759,0,0,0,0, ,0,0,0,0,0, ,530.6,-804.4,313.8,2.2,3.4,-3.5,25,520.056,-794.442,297.535,0.700209,1.60877,-1.98818,
2026_06_10_20_16_44.731,3.869,30.5,0,0.759,0,0,0,0, ,0,0,0,0,0, ,516.8,-794.1,312.8,3.4,7.9,-4.1,25,520.278,-794.735,298.495,0.828165,1.85504,-2.09859,
2026_06_10_20_16_44.751,3.869,30.4,0,0.758,0,0,0,0, ,0,0,0,0,0, ,494.8,-801.6,309.4,3.4,10.2,-6.7,25,519.396,-794.925,299.263,0.984886,2.29348,-2.29977,
2026_06_10_20_16_44.771,3.869,30.4,0,0.759,0,0,0,0, ,0,0,0,0,0, ,481.8,-808.1,296.8,5.5,13.9,-12.1,25,517.501,-795.53,299.497,1.19604,2.88802,-2.73244,
2026_06_10_20_16_44.791,3.869,30.4,0,0.759,0,0,0,0, ,0,0,0,0,0, ,458.1,-810.5,288.3,8.1,18.8,-19.5,25,514.603,-796.369,299.074,1.53753,3.70836,-3.52874,
2026_06_10_20_16_44.812,3.869,30.5,0,0.758,0,0,0,0, ,0,0,0,0,0, ,460.9,-796.9,294.3,19.8,31.1,-33.7,25,511.245,-796.815,298.6,2.29392,5.00277,-4.93465,
2026_06_10_20_16_44.831,3.869,30.4,0,0.759,0,0,0,0, ,0,0,0,0,0, ,526.2,-792.1,306.7,44.6,47.6,-48.3,25,510.167,-796.674,298.716,4.11632,7.0958,-7.13238,
2026_06_10_20_16_44.850,3.869,30.4,0,0.76,0,0,0,0, ,0,0,0,0,0, ,612,-762,338,75.9,65.7,-53.7,25,513.758,-795.479,300.156,7.53696,10.1155,-9.80556,
2026_06_10_20_16_44.870,3.869,30.4,0,0.759,0,0,0,0, ,0,0,0,0,0, ,536.3,-749.3,386.1,40.4,62.7,-44.9,25,517.438,-793.051,303.928,10.6212,13.4113,-12.2123,
2026_06_10_20_16_44.890,3.869,30.4,0,0.759,0,0,0,0, ,0,0,0,0,0, ,478,-736.2,391.8,32,46.8,-48.5,25,516.811,-789.986,309.109,12.1799,15.9304,-14.3139,
2026_06_10_20_16_44.910,3.869,30.4,0,0.76,0,0,0,0, ,0,0,0,0,0, ,462.1,-739.1,409.3,31.6,43.2,-58.7,25,513.962,-786.797,314.681,13.3755,17.7018,-16.7078,
2026_06_10_20_16_44.929,3.869,30.4,0,0.76,0,0,0,0, ,0,0,0,0,0, ,651.6,-694.9,394.7,44,67.3,-67.5,25,516.575,-782.544,320.002,14.8639,19.9899,-19.5349,
2026_06_10_20_16_44.951,3.869,30.4,0,0.759,0,0,0,0, ,0,0,0,0,0, ,708.1,-674.5,522,48,68.8,-55,25,526.525,-776.581,328.433,16.7612,22.9186,-22.0769,
2026_06_10_20_16_44.968,3.869,30.4,0,0.758,0,0,0,0, ,0,0,0,0,0, ,608.5,-671.5,524.7,35.1,43.8,-36.5,25,534.555,-770.269,340.31,18.2718,24.9527,-23.5195,
2026_06_10_20_16_44.988,3.869,30.4,0,0.76,0,0,0,0, ,0,0,0,0,0, ,514.5,-679.1,541.5,25.1,24.4,-36.5,25,536.197,-764.482,352.058,18.9926,25.5101,-24.3105,
2026_06_10_20_16_45.008,3.869,30.4,0,0.759,0,0,0,0, ,0,0,0,0,0, ,423.3,-669.6,513.3,21.2,24.6,-53.9,25,532.096,-758.99,362.743,19.2459,25.4486,-25.5834,
2026_06_10_20_16_45.028,3.869,30.4,0,0.759,0,0,0,0, ,0,0,0,0,0, ,481,-582.5,560.6,23.1,32.9,-82.9,25,527.224,-750.889,373.359,19.4229,25.6498,-28.1926,
2026_06_10_20_16_45.048,3.869,30.4,0,0.759,0,0,0,0, ,0,0,0,0,0, ,750.8,-582.5,624.7,18.5,26,-69,25,532.628,-740.628,386.722,19.5068,25.8813,-31.1028,
2026_06_10_20_16_45.068,3.869,30.4,0,0.759,0,0,0,0, ,0,0,0,0,0, ,707.6,-589.1,612.3,21.3,17.2,-43.7,25,544.607,-731.193,400.846,19.5308,25.6205,-32.6413,
2026_06_10_20_16_45.089,3.869,30.4,0,0.761,0,0,0,0, ,0,0,0,0,0, ,544.6,-583.6,615.1,27,4.3,-43.8,25,549.573,-722.366,413.817,19.8122,24.7143,-33.3182,
2026_06_10_20_16_45.107,3.869,30.4,0,0.758,0,0,0,0, ,0,0,0,0,0, ,497.9,-572,608,25,0.2,-51.2,25,547.847,-713.557,425.866,20.1893,23.3454,-34.1824,
2026_06_10_20_16_45.128,3.869,30.4,0,0.759,0,0,0,0, ,0,0,0,0,0, ,425.4,-557,572.1,21.4,-2.5,-70.5,25,542.594,-704.474,435.871,20.3728,21.8527,-35.8075,
2026_06_10_20_16_45.147,3.869,30.3,0,0.759,0,0,0,0, ,0,0,0,0,0, ,526.2,-481.5,582.1,19.8,2.4,-99.6,25,538.524,-693.187,444.477,20.3866,20.518,-38.8082,
2026_06_10_20_16_45.166,3.869,30.4,0,0.759,0,0,0,0, ,0,0,0,0,0, ,693.2,-432.7,657.5,25,7.7,-109.8,25,542.861,-678.8,455.161,20.5093,19.5754,-42.8235,
2026_06_10_20_16_45.187,3.869,30.4,0,0.759,0,0,0,0, ,0,0,0,0,0, ,720,-447.7,651.6,15.1,-1.2,-90.5,25,552.839,-664.26,467.311,20.4813,18.5806,-46.3168,
2026_06_10_20_16_45.206,3.869,30.4,0,0.759,0,0,0,0, ,0,0,0,0,0, ,655.3,-430,584.8,8,-7,-80.3,25,561.054,-650.524,476.506,19.9371,17.1985,-48.6984,
2026_06_10_20_16_45.226,3.869,30.4,0,0.76,0,0,0,0, ,0,0,0,0,0, ,532.5,-406,547.8,8.7,1.9,-93,25,563.056,-636.355,481.978,19.231,15.9951,-51.0111,
2026_06_10_20_16_45.247,3.869,30.5,0,0.76,0,0,0,0, ,0,0,0,0,0, ,561.7,-375.6,510.3,20.4,26.8,-116.9,25,562.083,-621.392,484.846,18.9457,15.8948,-54.298,
2026_06_10_20_16_45.266,3.869,30.4,0,0.758,0,0,0,0, ,0,0,0,0,0, ,800.6,-294.4,694.7,23.9,32.7,-125.3,25,569.339,-603.94,492.016,19.141,16.7391,-58.3688,
2026_06_10_20_16_45.286,3.869,30.4,0,0.759,0,0,0,0, ,0,0,0,0,0, ,982.5,-296,728.6,4.1,20.9,-77.7,25,588.974,-585.126,505.4,18.8277,17.3522,-60.9971,
2026_06_10_20_16_45.306,3.869,30.4,0,0.76,0,0,0,0, ,0,0,0,0,0, ,805.6,-291.2,603.1,3,16.2,-43.6,25,607.564,-567.361,515.177,17.8967,17.4252,-60.9759,
2026_06_10_20_16_45.325,3.869,30.4,0,0.759,0,0,0,0, ,0,0,0,0,0, ,621.5,-271.8,554.8,14.6,12.4,-51.5,25,614.023,-549.941,519.063,17.3424,17.2347,-60.1578,
2026_06_10_20_16_45.345,3.869,30.4,0,0.759,0,0,0,0, ,0,0,0,0,0, ,585.4,-242.3,578.6,14.2,4.2,-73,25,613.378,-532.093,521.966,17.1631,16.6903,-60.2853,
2026_06_10_20_16_45.365,3.869,30.3,0,0.76,0,0,0,0, ,0,0,0,0,0, ,617.7,-232.5,600.9,13.6,9.3,-89.8,25,612.658,-514.135,526.097,16.9643,16.0845,-61.572,
2026_06_10_20_16_45.385,3.869,30.4,0,0.759,0,0,0,0, ,0,0,0,0,0, ,794.1,-191.7,671,8.6,23.6,-89,25,618.34,-495.73,532.791,16.6069,16.1068,-63.2677,
2026_06_10_20_16_45.405,3.869,30.4,0,0.759,0,0,0,0, ,0,0,0,0,0, ,759,-181.3,689.2,8,32.9,-74,25,627.981,-476.886,541.768,16.1007,16.8468,-64.3788,
2026_06_10_20_16_45.425,3.869,30.4,0,0.759,0,0,0,0, ,0,0,0,0,0, ,624.7,-144.4,620.7,12.7,24.2,-84.4,25,631.873,-457.75,548.665,15.7503,17.56,-65.2819,
2026_06_10_20_16_45.444,3.869,30.4,0,0.759,0,0,0,0, ,0,0,0,0,0, ,573.8,-125.6,630.2,13.5,7,-101.7,25,629.885,-438.082,553.344,15.5888,17.4405,-66.974,
2026_06_10_20_16_45.464,3.869,30.5,0,0.759,0,0,0,0, ,0,0,0,0,0, ,610.7,-53.4,625.3,8,-2.4,-112.5,25,627.591,-416.84,557.878,15.2939,16.5179,-69.4192,
2026_06_10_20_16_45.483,3.869,30.4,0,0.758,0,0,0,0, ,0,0,0,0,0, ,863.8,-55.2,678.2,-4.6,8.3,-103.3,25,634.274,-394.748,563.598,14.4655,15.6911,-71.7641,
2026_06_10_20_16_45.504,3.869,30.4,0,0.758,0,0,0,0, ,0,0,0,0,0, ,976.6,-98.5,708.2,-11.5,1.2,-69.3,25,651.697,-375.376,571.496,13.0935,15.0244,-72.6499,
2026_06_10_20_16_45.524,3.869,30.4,0,0.76,0,0,0,0, ,0,0,0,0,0, ,894.2,-76.7,633.9,-1.5,-12.9,-40.1,25,668.985,-357.84,577.562,11.8995,13.7523,-71.5561,
2026_06_10_20_16_45.544,3.869,30.3,0,0.759,0,0,0,0, ,0,0,0,0,0, ,777.3,-41.7,621.8,13,-15.4,-32.2,25,679.148,-339.642,580.627,11.5248,12.052,-69.3985,
2026_06_10_20_16_45.563,3.869,30.4,0,0.758,0,0,0,0, ,0,0,0,0,0, ,723.6,-28.8,660,12.3,-12.3,-35.3,25,683.493,-321.093,584.3,11.5933,10.4736,-67.2262,
2026_06_10_20_16_45.583,3.869,30.5,0,0.759,0,0,0,0, ,0,0,0,0,0, ,708.8,-24.5,648.3,11.4,-7.4,-41.9,25,685.486,-303.15,588.556,11.609,9.23517,-65.4818,
2026_06_10_20_16_45.603,3.869,30.4,0,0.759,0,0,0,0, ,0,0,0,0,0, ,745.7,-1.7,646.4,7.3,-5.6,-44.4,25,688.031,-285.475,592.139,11.4713,8.27631,-64.121,
2026_06_10_20_16_45.623,3.869,30.3,0,0.759,0,0,0,0, ,0,0,0,0,0, ,761.4,9.1,626.7,1.9,-4,-43.5,25,692.023,-267.854,594.845,11.0526,7.47947,-62.8918,
2026_06_10_20_16_45.643,3.869,30.3,0,0.758,0,0,0,0, ,0,0,0,0,0, ,750.7,17.7,631.2,-0.2,1.6,-39.5,25,695.925,-250.715,596.924,10.4309,6.95057,-61.5882,
2026_06_10_20_16_45.663,3.869,30.4,0,0.759,0,0,0,0, ,0,0,0,0,0, ,706.7,19.4,633.4,-1,3.7,-39,25,697.922,-234.306,599.079,9.75869,6.6885,-60.227,
2026_06_10_20_16_45.682,3.869,30.4,0,0.758,0,0,0,0, ,0,0,0,0,0, ,678.1,29,634.3,-2,-1.6,-43,25,697.586,-218.554,601.198,9.07261,6.3449,-59.0553,
2026_06_10_20_16_45.702,3.869,30.4,0,0.758,0,0,0,0, ,0,0,0,0,0, ,703.8,41.6,634.3,0.2,-4.1,-50.5,25,697.181,-203.084,603.215,8.4649,5.78459,-58.3055,
2026_06_10_20_16_45.722,3.869,30.4,0,0.76,0,0,0,0, ,0,0,0,0,0, ,770.8,55.1,642.4,9.5,2,-51.6,25,699.626,-187.763,605.356,8.24462,5.36811,-57.8634,
2026_06_10_20_16_45.742,3.869,30.4,0,0.759,0,0,0,0, ,0,0,0,0,0, ,768.5,73.7,654.1,15.5,10.3,-45.5,25,703.893,-172.396,607.97,8.50393,5.41575,-57.2958,
2026_06_10_20_16_45.762,3.869,30.4,0,0.759,0,0,0,0, ,0,0,0,0,0, ,761.9,81.2,659.3,13.6,14.6,-37.5,25,707.629,-157.171,610.94,8.87237,5.8444,-56.3333,
2026_06_10_20_16_45.781,3.869,30.5,0,0.759,0,0,0,0, ,0,0,0,0,0, ,725.5,107.9,657.5,13.6,11.4,-30.9,25,709.827,-141.832,613.832,9.16046,6.28045,-54.9845,
2026_06_10_20_16_45.801,3.869,30.4,0,0.758,0,0,0,0, ,0,0,0,0,0, ,661.7,123.9,644.7,21.9,6.8,-43.6,25,708.838,-126.127,616.103,9.68388,6.45226,-53.9038,
2026_06_10_20_16_45.821,3.869,30.4,0,0.759,0,0,0,0, ,0,0,0,0,0, ,668.7,127.3,659,23.5,3.8,-50.3,25,706.179,-110.787,618.281,10.4771,6.38205,-53.4801,
2026_06_10_20_16_45.841,3.869,30.4,0,0.759,0,0,0,0, ,0,0,0,0,0, ,741.6,140.1,695.9,18.8,-0.8,-50.6,25,706.116,-95.8886,621.887,11.1274,6.08455,-53.2954,
2026_06_10_20_16_45.860,3.869,30.4,0,0.758,0,0,0,0, ,0,0,0,0,0, ,790.6,164.6,707.6,14.7,11.2,-42.7,25,709.772,-80.7616,626.753,11.4701,6.03065,-52.8905,
2026_06_10_20_16_45.880,3.869,30.4,0,0.759,0,0,0,0, ,0,0,0,0,0, ,754.5,178.8,696.2,13,25,-39.3,25,713.597,-65.3772,631.333,11.6151,6.76612,-52.1659,
2026_06_10_20_16_45.900,3.869,30.4,0,0.759,0,0,0,0, ,0,0,0,0,0, ,689,182.8,673.5,11.5,22.5,-41.7,25,714.094,-50.3758,634.594,11.6538,7.80108,-51.455,
2026_06_10_20_16_45.925,3.869,30.4,0,0.76,0,0,0,0, ,0,0,0,0,0, ,701.6,197.2,675.4,12.7,7.1,-45.8,25,712.949,-35.7279,637.023,11.681,8.22757,-50.9855,
2026_06_10_20_16_45.939,3.869,30.4,0,0.758,0,0,0,0, ,0,0,0,0,0, ,792.7,208.8,704.4,14,-0.7,-43.4,25,715.033,-21.1804,640.245,11.7827,7.92121,-50.5964,
2026_06_10_20_16_45.959,3.869,30.4,0,0.76,0,0,0,0, ,0,0,0,0,0, ,768,222,714.2,15.6,8.6,-34.9,25,719.013,-6.76377,644.453,11.9665,7.67921,-49.8989,
2026_06_10_20_16_45.979,3.869,30.5,0,0.759,0,0,0,0, ,0,0,0,0,0, ,696.5,235.1,707.1,11.3,12.3,-30.2,25,719.82,7.57566,648.487,12.0569,7.84806,-48.8417,
2026_06_10_20_16_45.999,3.869,30.4,0,0.76,0,0,0,0, ,0,0,0,0,0, ,641.4,250.6,694.8,10,6.3,-34.9,25,716.72,21.9127,651.684,11.9712,7.93653,-47.8489,
2026_06_10_20_16_46.018,3.869,30.5,0,0.759,0,0,0,0, ,0,0,0,0,0, ,653.5,266.9,685,11.9,-3.9,-41.4,25,712.499,36.345,654.013,11.909,7.52603,-47.2579,
2026_06_10_20_16_46.039,3.869,30.4,0,0.759,0,0,0,0, ,0,0,0,0,0, ,711.1,271.2,698.7,11,-9.2,-40.2,25,710.658,50.5254,656.318,11.881,6.66827,-46.8643,
2026_06_10_20_16_46.058,3.869,30.4,0,0.759,0,0,0,0, ,0,0,0,0,0, ,697.5,294.6,697.2,8.8,-8.8,-36.4,25,710.271,64.6858,658.855,11.7603,5.71348,-46.3424,
2026_06_10_20_16_46.078,3.869,30.4,0,0.759,0,0,0,0, ,0,0,0,0,0, ,631.5,319.3,671.2,13.2,0.5,-46,25,707.482,79.4487,660.4,11.714,5.11243,-46.0291,
2026_06_10_20_16_46.098,3.869,30.3,0,0.759,0,0,0,0, ,0,0,0,0,0, ,619.6,305.2,669.6,11,1.4,-54.9,25,702.489,93.6351,661.009,11.7375,4.85878,-46.2985,
2026_06_10_20_16_46.118,3.869,30.3,0,0.759,0,0,0,0, ,0,0,0,0,0, ,702.1,313.2,685.6,7,-5.2,-50.3,25,699.952,106.771,662.02,11.5707,4.44692,-46.6825,
2026_06_10_20_16_46.137,3.869,30.4,0,0.759,0,0,0,0, ,0,0,0,0,0, ,726.6,326.2,680.4,4.9,-2.9,-41.8,25,700.829,119.746,663.299,11.2282,3.92914,-46.6439,
2026_06_10_20_16_46.157,3.869,30.4,0,0.76,0,0,0,0, ,0,0,0,0,0, ,678.8,341.9,663.9,4.3,3.6,-38.5,25,700.943,132.806,663.838,10.8243,3.71103,-46.2482,
2026_06_10_20_16_46.178,3.869,30.4,0,0.757,0,0,0,0, ,0,0,0,0,0, ,646.9,358.2,639.1,7.2,2.3,-39.8,25,698.622,146.044,663.086,10.515,3.66466,-45.8157,
2026_06_10_20_16_46.198,3.869,30.4,0,0.759,0,0,0,0, ,0,0,0,0,0, ,629.8,359.3,631.3,14.1,0,-42.7,25,694.949,159.006,661.387,10.5233,3.51142,-45.5374,
2026_06_10_20_16_46.217,3.869,30.4,0,0.758,0,0,0,0, ,0,0,0,0,0, ,620.9,369.1,640.7,14.4,-2,-42.7,25,690.708,171.51,659.84,10.7504,3.23651,-45.3645,
2026_06_10_20_16_46.236,3.869,30.4,0,0.758,0,0,0,0, ,0,0,0,0,0, ,634.1,374.1,645.9,11.9,-4.2,-39.5,25,686.856,183.703,658.832,10.8966,2.85037,-45.1047,
2026_06_10_20_16_46.256,3.869,30.4,0,0.758,0,0,0,0, ,0,0,0,0,0, ,638.6,389.5,652,11.7,2.4,-36.9,25,683.778,195.774,658.23,10.9516,2.62184,-44.6839,
2026_06_10_20_16_46.277,3.869,30.4,0,0.758,0,0,0,0, ,0,0,0,0,0, ,614.5,402,655.5,10.9,7.1,-37.6,25,680.291,207.96,657.957,10.9729,2.75152,-44.2309,
2026_06_10_20_16_46.296,3.869,30.4,0,0.758,0,0,0,0, ,0,0,0,0,0, ,617.5,415.4,652.4,7.4,2.8,-34.1,25,676.373,220.193,657.713,10.8618,2.88549,-43.7202,
2026_06_10_20_16_46.316,3.869,30.4,0,0.758,0,0,0,0, ,0,0,0,0,0, ,620.1,427.3,653.9,8,-1.9,-33,25,672.865,232.451,657.435,10.6691,2.73708,-43.1005,
2026_06_10_20_16_46.335,3.869,30.4,0,0.759,0,0,0,0, ,0,0,0,0,0, ,622.8,431.7,641.4,8.2,0,-33.2,25,669.732,244.459,656.838,10.5126,2.5124,-42.491,
2026_06_10_20_16_46.355,3.869,30.3,0,0.759,0,0,0,0, ,0,0,0,0,0, ,608.3,450.8,620.2,11.1,1.3,-31.8,25,666.43,256.451,655.252,10.46,2.39891,-41.8822,
2026_06_10_20_16_46.375,3.869,30.3,0,0.758,0,0,0,0, ,0,0,0,0,0, ,598.9,455,621.3,17,0.4,-32.7,25,662.601,268.422,653.149,10.6788,2.30452,-41.2953,
2026_06_10_20_16_46.395,3.869,30.3,0,0.758,0,0,0,0, ,0,0,0,0,0, ,586.9,477.9,676.1,13.4,-6.5,-31.5,25,658.354,280.489,652.878,10.9543,1.97823,-40.7349,
2026_06_10_20_16_46.415,3.869,30.4,0,0.759,0,0,0,0, ,0,0,0,0,0, ,623,476.5,671.7,4.8,-9.8,-28,25,655.1,292.476,654.159,10.8413,1.36104,-40.0655,
2026_06_10_20_16_46.435,3.869,30.4,0,0.758,0,0,0,0, ,0,0,0,0,0, ,609.2,459.3,579.8,5.4,7.9,-30.5,25,652.723,303.166,652.428,10.4914,1.22021,-39.4065,
2026_06_10_20_16_46.454,3.869,30.3,0,0.76,0,0,0,0, ,0,0,0,0,0, ,648.4,538.3,658.4,11.5,12,-21.5,25,651.265,315.087,650.397,10.367,1.75218,-38.5895,
2026_06_10_20_16_46.475,3.869,30.4,0,0.759,0,0,0,0, ,0,0,0,0,0, ,603.2,506.8,660.2,5.9,-2,-9,25,649.714,327.73,650.939,10.2654,1.9501,-37.1672,
2026_06_10_20_16_46.494,3.869,30.4,0,0.759,0,0,0,0, ,0,0,0,0,0, ,523.8,478.2,602.2,1.9,-0.7,-9.1,25,644.46,337.77,649.737,9.87755,1.749,-35.4539,
2026_06_10_20_16_46.514,3.869,30.3,0,0.758,0,0,0,0, ,0,0,0,0,0, ,616.3,559.5,625,0.5,13.6,-14.8,25,639.926,348.805,647.535,9.34876,2.03546,-34.0216,
2026_06_10_20_16_46.534,3.869,30.7,0,0.759,0,0,0,0, ,0,0,0,0,0, ,586.5,498.7,684.6,0.4,5.3,-3.5,25,637.578,359.792,647.977,8.80649,2.48729,-32.506,
2026_06_10_20_16_46.554,3.869,30.3,0,0.76,0,0,0,0, ,0,0,0,0,0, ,576.5,509.8,640,-0.7,0.4,-4.9,25,634.161,368.595,648.85,8.2607,2.50939,-30.7811,
2026_06_10_20_16_46.574,3.869,30.3,0,0.759,0,0,0,0, ,0,0,0,0,0, ,582.8,508.3,620.7,1.8,0,-1,25,630.839,377.154,647.723,7.79083,2.36866,-29.0851,
2026_06_10_20_16_46.593,3.869,30.4,0,0.758,0,0,0,0, ,0,0,0,0,0, ,596,567.8,639.8,3.6,7.9,-9.7,25,628.314,386.958,646.658,7.48061,2.46502,-27.6388,
2026_06_10_20_16_46.613,3.869,30.4,0,0.758,0,0,0,0, ,0,0,0,0,0, ,538,509.1,661.6,2.7,-2.3,-5.6,25,624.577,396.19,646.904,7.21671,2.48544,-26.4207,
2026_06_10_20_16_46.637,3.869,30.5,0,0.757,0,0,0,0, ,0,0,0,0,0, ,576.9,517.7,630.2,2.3,-3.7,-9.4,25,620.487,403.332,646.843,6.92929,2.15117,-25.2677,
2026_06_10_20_16_46.653,3.869,30.3,0,0.759,0,0,0,0, ,0,0,0,0,0, ,603.2,514.5,624.3,2.5,-1.8,-5.3,25,618.632,410.204,645.649,6.65329,1.8525,-24.1759,
2026_06_10_20_16_46.673,3.869,30.4,0,0.759,0,0,0,0, ,0,0,0,0,0, ,599.7,515.8,635,0.8,-1.9,1.4,25,617.585,416.599,644.674,6.3484,1.62688,-22.8215,
2026_06_10_20_16_46.693,3.869,30.3,0,0.759,0,0,0,0, ,0,0,0,0,0, ,557.3,525.7,626.8,2.6,0.6,0,25,615.203,422.946,643.835,6.06514,1.48813,-21.3881,
2026_06_10_20_16_46.713,3.869,30.3,0,0.758,0,0,0,0, ,0,0,0,0,0, ,547.2,522.7,648.6,4.2,0.4,-4.9,25,611.367,429.116,643.461,5.90273,1.42792,-20.2341,
2026_06_10_20_16_46.732,3.869,30.4,0,0.758,0,0,0,0, ,0,0,0,0,0, ,573.2,518.5,651,1.2,-3.3,-5.5,25,608.249,434.691,643.847,5.70756,1.25255,-19.3179,
2026_06_10_20_16_46.752,3.869,30.4,0,0.758,0,0,0,0, ,0,0,0,0,0, ,582.5,515.6,630.8,0.5,-3.9,-4.3,25,606.397,439.71,643.668,5.41156,0.956845,-18.4394,
2026_06_10_20_16_46.772,3.869,30.4,0,0.759,0,0,0,0, ,0,0,0,0,0, ,569.4,514,629.6,2,-1.4,-4.3,25,604.541,444.285,642.847,5.15796,0.737053,-17.5777,
2026_06_10_20_16_46.791,3.869,30.3,0,0.758,0,0,0,0, ,0,0,0,0,0, ,577.8,515.2,643.5,1.5,-2.3,-3.2,25,602.656,448.57,642.463,4.95029,0.579404,-16.7351,
2026_06_10_20_16_46.811,3.869,30.2,0,0.757,0,0,0,0, ,0,0,0,0,0, ,576.5,521.1,633.5,1.9,-4.3,-1.7,25,601.102,452.81,642.222,4.75222,0.343003,-15.8646,
2026_06_10_20_16_46.830,3.869,30.4,0,0.758,0,0,0,0, ,0,0,0,0,0, ,558.8,514.7,643.1,2.5,-3.2,-3.2,25,599.063,456.777,641.983,4.5967,0.0935858,-15.0472,
2026_06_10_20_16_46.850,3.869,30.5,0,0.758,0,0,0,0, ,0,0,0,0,0, ,546.9,511.1,634.3,2.3,-4.3,-6.5,25,596.247,460.197,641.783,4.46284,-0.140633,-14.4258,
2026_06_10_20_16_46.870,3.869,30.4,0,0.758,0,0,0,0, ,0,0,0,0,0, ,572.5,511.1,634.5,3.1,-3.4,-7.2,25,594.02,463.299,641.333,4.35541,-0.366672,-13.9641,
2026_06_10_20_16_46.891,3.869,30.5,0,0.758,0,0,0,0, ,0,0,0,0,0, ,585.6,516.2,637.8,1.9,-4.6,-4.1,25,593.108,466.367,641.017,4.24235,-0.588078,-13.4575,
2026_06_10_20_16_46.910,3.869,30.3,0,0.759,0,0,0,0, ,0,0,0,0,0, ,561.4,520.5,626.9,2,-4,-2.9,25,591.913,469.535,640.489,4.10266,-0.814273,-12.8507,
2026_06_10_20_16_46.930,3.869,30.4,0,0.759,0,0,0,0, ,0,0,0,0,0, ,544.4,522,627.1,3.4,-7,-6,25,589.536,472.686,639.667,4.01718,-1.09981,-12.3388,
2026_06_10_20_16_46.950,3.869,30.5,0,0.758,0,0,0,0, ,0,0,0,0,0, ,567.9,520.5,635.1,2.6,-11.5,-7.4,25,587.501,475.645,639.145,3.9552,-1.59646,-11.9952,
2026_06_10_20_16_46.969,3.869,30.5,0,0.76,0,0,0,0, ,0,0,0,0,0, ,585.4,525.8,639,1.7,-7.6,-6.9,25,586.84,478.54,639.017,3.8452,-2.08113,-11.6999,
2026_06_10_20_16_46.989,3.869,30.4,0,0.759,0,0,0,0, ,0,0,0,0,0, ,580.8,528,631.1,0.9,-4.8,-6,25,586.612,481.487,638.775,3.6901,-2.33212,-11.38,
2026_06_10_20_16_47.009,3.869,30.4,0,0.759,0,0,0,0, ,0,0,0,0,0, ,582,527.8,619.7,3.7,-6.3,-8.3,25,586.294,484.315,637.96,3.60539,-2.52821,-11.1222,
2026_06_10_20_16_47.029,3.869,30.3,0,0.76,0,0,0,0, ,0,0,0,0,0, ,594.8,532.8,616.4,4.4,-11.2,-6.4,25,586.423,487.118,636.747,3.63248,-2.90735,-10.8924,
2026_06_10_20_16_47.049,3.869,30.4,0,0.759,0,0,0,0, ,0,0,0,0,0, ,597.9,527.2,612.7,5.5,-16.7,-2.2,25,587.028,489.731,635.394,3.71277,-3.58026,-10.4906,
2026_06_10_20_16_47.069,3.869,30.5,0,0.758,0,0,0,0, ,0,0,0,0,0, ,583.7,530.7,602.9,8,-21.1,0.1,25,587.257,492.121,633.713,3.89785,-4.51381,-9.91535,
2026_06_10_20_16_47.088,3.869,30.4,0,0.758,0,0,0,0, ,0,0,0,0,0, ,570.1,535.2,588,11.7,-21.2,-2.3,25,586.626,494.609,631.381,4.26056,-5.52758,-9.37816,
2026_06_10_20_16_47.109,3.869,30.3,0,0.76,0,0,0,0, ,0,0,0,0,0, ,575,541.7,581.5,15.3,-22.5,-4.8,25,585.769,497.28,628.54,4.82359,-6.52223,-9.02301,
2026_06_10_20_16_47.128,3.869,30.4,0,0.758,0,0,0,0, ,0,0,0,0,0, ,576.6,541,596.9,14.3,-25.3,-4.5,25,585.161,499.966,626.142,5.43152,-7.58118,-8.75653,
2026_06_10_20_16_47.148,3.869,30.4,0,0.757,0,0,0,0, ,0,0,0,0,0, ,614.7,549.3,586.3,12.4,-20.8,-3.7,25,585.8,502.719,624.037,5.91406,-8.52382,-8.47277,
2026_06_10_20_16_47.167,3.869,30.3,0,0.756,0,0,0,0, ,0,0,0,0,0, ,622.1,553.7,568.9,11.4,-19.8,-1.1,25,587.787,505.692,621.208,6.27883,-9.24143,-8.10271,
2026_06_10_20_16_47.192,3.869,30.4,0,0.757,0,0,0,0, ,0,0,0,0,0, ,606.9,558.9,542.6,15.6,-23.9,-1,25,589.415,508.776,617.219,6.71887,-10.0098,-7.67294,
2026_06_10_20_16_47.208,3.869,30.4,0,0.758,0,0,0,0, ,0,0,0,0,0, ,595.4,552.7,526.3,22.5,-28.1,-2.1,25,590.13,511.641,612.175,7.47029,-10.9842,-7.29982,
2026_06_10_20_16_47.227,3.869,30.5,0,0.759,0,0,0,0, ,0,0,0,0,0, ,586.6,563.8,553.7,22.7,-30.4,-3.7,25,590.183,514.481,607.777,8.39226,-12.0972,-7.03171,
2026_06_10_20_16_47.247,3.869,30.4,0,0.758,0,0,0,0, ,0,0,0,0,0, ,623.7,570.5,568.8,17.8,-25.8,-4.8,25,591.095,517.691,604.942,9.11484,-13.0724,-6.8622,
2026_06_10_20_16_47.267,3.869,30.4,0,0.758,0,0,0,0, ,0,0,0,0,0, ,642.4,585.9,545.6,14.4,-20.9,-4,25,593.651,521.378,602.032,9.5405,-13.6987,-6.71216,
2026_06_10_20_16_47.286,3.869,30.4,0,0.758,0,0,0,0, ,0,0,0,0,0, ,648.8,585.6,524.6,14.4,-20.8,-3.3,25,596.817,525.301,597.954,9.83663,-14.1345,-6.52556,
2026_06_10_20_16_47.306,3.869,30.4,0,0.758,0,0,0,0, ,0,0,0,0,0, ,650.6,580.3,465,20.9,-28.7,-1.5,25,600.04,528.814,591.668,10.3128,-14.7814,-6.27416,
2026_06_10_20_16_47.330,3.869,30.4,0,0.758,0,0,0,0, ,0,0,0,0,0, ,634,575.9,441.7,34.2,-52.6,3.2,25,602.615,531.817,583.239,11.3631,-16.3577,-5.84003,
2026_06_10_20_16_47.347,3.869,30.4,0,0.759,0,0,0,0, ,0,0,0,0,0, ,640.9,586.6,510.3,35,-66.7,5,25,604.738,534.83,576.704,12.7791,-18.9959,-5.23431,
2026_06_10_20_16_47.366,3.869,30.4,0,0.758,0,0,0,0, ,0,0,0,0,0, ,644.2,598,531.2,28.5,-52.7,1.4,25,607.042,538.332,573.295,13.9352,-21.4763,-4.72034,
2026_06_10_20_16_47.386,3.869,30.4,0,0.758,0,0,0,0, ,0,0,0,0,0, ,658.2,598.9,494.1,26.2,-36.7,-3.6,25,609.733,541.995,569.599,14.7526,-22.8915,-4.49973,
2026_06_10_20_16_47.406,3.869,30.4,0,0.758,0,0,0,0, ,0,0,0,0,0, ,685.7,583.7,411.4,31.8,-34.4,-4.3,25,613.524,545,562.478,15.6208,-23.6628,-4.46623,
2026_06_10_20_16_47.425,3.869,30.4,0,0.76,0,0,0,0, ,0,0,0,0,0, ,702.2,592.8,317.5,50.8,-56.6,0.9,25,618.425,547.635,550.411,17.1857,-24.9935,-4.29766,
2026_06_10_20_16_47.445,3.869,30.3,0,0.759,0,0,0,0, ,0,0,0,0,0, ,686.1,599.8,304.4,68.3,-90.9,7.5,25,623.04,550.601,535.819,19.7672,-27.9646,-3.77984,
2026_06_10_20_16_47.470,3.869,30.3,0,0.759,0,0,0,0, ,0,0,0,0,0, ,672.2,613.4,367.5,79.5,-105.7,7.8,25,626.459,554.013,523.639,23.066,-32.2507,-3.08333,
2026_06_10_20_16_47.484,3.869,30.4,0,60.484,0,0,0,0, ,0,0,0,0,0, ,703,572.1,405.2,79.3,-98.2,3.6,25,630.185,556.374,515.273,26.4988,-36.498,-2.5481,
2026_06_10_20_16_47.505,3.869,30.4,0,0.757,0,0,0,0, ,0,0,0,0,0, ,713,649.6,295.7,75,-87.7,1.9,25,634.926,559.693,505.229,29.5854,-39.938,-2.22524,
2026_06_10_20_16_47.525,3.869,30.4,0,0.759,0,0,0,0, ,0,0,0,0,0, ,767.5,648.5,215.4,61.9,-83.6,0.9,25,641.345,565.139,490.015,31.9537,-42.7236,-2.00433,
2026_06_10_20_16_47.545,3.869,30.4,0,0.759,0,0,0,0, ,0,0,0,0,0, ,739.3,644.2,168.2,59.4,-92,3.5,25,648.173,570.087,471.842,33.7024,-45.4705,-1.74813,
2026_06_10_20_16_47.564,3.869,30.4,0,0.76,0,0,0,0, ,0,0,0,0,0, ,734.6,639.8,126.9,59.7,-105.7,8.1,25,653.583,574.47,452.081,35.2775,-48.7233,-1.28816,
2026_06_10_20_16_47.584,3.869,30.5,0,0.759,0,0,0,0, ,0,0,0,0,0, ,730.5,645.2,106.2,62.7,-114.8,5.9,25,658.395,578.615,431.634,36.8571,-52.4726,-0.783104,
2026_06_10_20_16_47.603,3.869,30.4,0,0.76,0,0,0,0, ,0,0,0,0,0, ,735.5,651.9,79.2,60.8,-118.2,1.7,25,662.941,582.877,410.98,38.374,-56.3742,-0.503822,
2026_06_10_20_16_47.623,3.869,30.5,0,0.759,0,0,0,0, ,0,0,0,0,0, ,765.8,643.3,38.8,55,-112.9,0.2,25,668.286,586.821,389.532,39.5639,-59.9803,-0.415229,
2026_06_10_20_16_47.643,3.869,30.4,0,0.759,0,0,0,0, ,0,0,0,0,0, ,780.2,642,-1.4,49.2,-102,1.3,25,674.667,590.223,366.934,40.3278,-62.8729,-0.344223,
2026_06_10_20_16_47.663,3.869,30.4,0,0.76,0,0,0,0, ,0,0,0,0,0, ,767.4,635.3,-25.7,42,-90.6,3.7,25,680.708,593.174,343.748,40.6491,-64.9099,-0.170903,
2026_06_10_20_16_47.683,3.869,30.4,0,0.758,0,0,0,0, ,0,0,0,0,0, ,750.6,625.2,-86.4,36,-86.1,5,25,685.479,595.433,319.386,40.5486,-66.3383,0.104589,
2026_06_10_20_16_47.703,3.869,30.5,0,0.759,0,0,0,0, ,0,0,0,0,0, ,730.4,616,-169.6,39.6,-87.1,5.8,25,688.832,596.967,292.123,40.3811,-67.573,0.427278,
2026_06_10_20_16_47.723,3.869,30.5,0,0.76,0,0,0,0, ,0,0,0,0,0, ,720.9,623.4,-189.8,44.3,-97.1,4.2,25,691.075,598.352,263.371,40.4767,-69.0676,0.705928,
2026_06_10_20_16_47.742,3.869,30.3,0,0.76,0,0,0,0, ,0,0,0,0,0, ,735.1,624.7,-200.8,38.9,-98.2,4.4,25,693.325,599.918,235.421,40.5452,-70.8093,0.924942,
2026_06_10_20_16_47.762,3.869,30.4,0,0.758,0,0,0,0, ,0,0,0,0,0, ,740.8,623.9,-231.5,33.5,-90.3,4.4,25,696.045,601.404,207.903,40.2804,-72.2378,1.1367,
2026_06_10_20_16_47.782,3.869,30.4,0,0.757,0,0,0,0, ,0,0,0,0,0, ,759.5,619,-290.5,31.2,-80.9,6.1,25,699.342,602.625,179.33,39.7971,-73.052,1.38736,
2026_06_10_20_16_47.801,3.869,30.5,0,0.76,0,0,0,0, ,0,0,0,0,0, ,751.8,608.5,-336.1,34.5,-76.1,8.7,25,702.773,603.303,149.31,39.3738,-73.384,1.75375,
2026_06_10_20_16_47.822,3.869,30.4,0,0.76,0,0,0,0, ,0,0,0,0,0, ,733.1,612,-374.8,37.9,-74.7,10.1,25,705.191,603.727,118.551,39.1804,-73.5068,2.2197,
2026_06_10_20_16_47.842,3.869,30.4,0,0.759,0,0,0,0, ,0,0,0,0,0, ,718.1,598.2,-389,39.8,-73.2,10,25,706.434,603.81,88.055,39.1602,-73.5339,2.69686,
2026_06_10_20_16_47.862,3.869,30.4,0,0.759,0,0,0,0, ,0,0,0,0,0, ,708.3,588,-410,38.4,-70.5,10.3,25,706.847,603.158,58.3446,39.1566,-73.4312,3.15103,
2026_06_10_20_16_47.882,3.869,30.2,0,0.759,0,0,0,0, ,0,0,0,0,0, ,702,576.7,-459.9,41.4,-65.8,10.8,25,706.743,601.89,28.2845,39.2019,-73.1094,3.60191,
2026_06_10_20_16_47.901,3.869,30.4,0,0.759,0,0,0,0, ,0,0,0,0,0, ,682.7,567.8,-488.7,44.9,-67.3,13.4,25,705.866,600.084,-2.34178,39.4425,-72.7097,4.11976,
2026_06_10_20_16_47.921,3.869,30.4,0,0.758,0,0,0,0, ,0,0,0,0,0, ,668.2,557.3,-491.4,47.6,-75,12.7,25,704.013,597.796,-32.0615,39.8573,-72.6147,4.66394,
2026_06_10_20_16_47.940,3.869,30.4,0,0.76,0,0,0,0, ,0,0,0,0,0, ,670.1,540.5,-501.4,47.9,-76.3,12.6,25,701.888,594.817,-60.3571,40.3383,-72.7996,5.1506,
