UTC_Time,Vin,TC1,TC2,Rh1,Vh1,Ah1,Acp1,Dty1,Err1,Rh2,Vh2,Ah2,Acp2,Dty2,Err2,Accel_x,Accel_y,Accel_z,gyro_x,gyro_y,gyro_z,Temp_c,Accel_x_h,Accel_y_h,Accel_z_h,gyro_x_h,gyro_y_h,gyro_z_h,
2026_07_06_15_27_00.300,3.847,29.8,0,0.758,0,0,0,0.001, ,0,0,0,0,0, ,-37.9,155.5,987.6,-0.6,-0.5,-1.8,25,-37.9,155.5,987.6,-0.6,-0.5,-1.8,
2026_07_06_15_27_00.319,3.847,29.8,0,0.757,0,0,0,0.001, ,0,0,0,0,0, ,-39.7,157.1,987.5,-0.6,-0.5,-1.8,25,-37.9548,155.549,987.597,-0.6,-0.5,-1.8,
2026_07_06_15_27_00.339,3.847,29.8,0,0.757,0,0,0,0.001, ,0,0,0,0,0, ,-39.1,155.7,988.7,-0.7,-0.5,-1.9,25,-38.0429,155.601,987.628,-0.603047,-0.5,-1.80305,
2026_07_06_15_27_00.359,3.847,29.8,0,0.755,0,0,0,0.001, ,0,0,0,0,0, ,-38.9,156.3,986.4,-0.7,-0.5,-1.9,25,-38.1012,155.625,987.623,-0.608955,-0.5,-1.80895,
2026_07_06_15_27_00.379,3.847,29.7,0,0.759,0,0,0,0.001, ,0,0,0,0,0, ,-39.1,156.7,987.9,-0.7,-0.5,-1.8,25,-38.156,155.678,987.594,-0.614503,-0.5,-1.81146,
2026_07_06_15_27_00.398,3.847,29.7,0,0.758,0,0,0,0.002, ,0,0,0,0,0, ,-38,154.6,987.3,-0.6,-0.4,-1.8,25,-38.18,155.677,987.594,-0.616666,-0.496953,-1.81076,
2026_07_06_15_27_00.420,3.847,29.7,0,0.759,0,0,0,0.002, ,0,0,0,0,0, ,-39.6,156.7,988.8,-0.7,-0.5,-1.9,25,-38.2178,155.675,987.622,-0.618697,-0.494092,-1.81315,
2026_07_06_15_27_00.438,3.847,29.8,0,0.757,0,0,0,0.002, ,0,0,0,0,0, ,-39,156.1,987.5,-0.6,-0.4,-1.9,25,-38.2837,155.719,987.654,-0.620605,-0.491405,-1.81844,
2026_07_06_15_27_00.458,3.847,29.7,0,0.758,0,0,0,0.001, ,0,0,0,0,0, ,-39.4,155.5,988.2,-0.7,-0.5,-1.9,25,-38.3396,155.724,987.666,-0.622396,-0.488882,-1.82341,
2026_07_06_15_27_00.477,3.847,29.7,0,0.758,0,0,0,0.002, ,0,0,0,0,0, ,-38.5,155.7,988.1,-0.7,-0.5,-1.8,25,-38.3768,155.716,987.696,-0.627125,-0.489559,-1.82503,
2026_07_06_15_27_00.498,3.847,29.7,0,0.758,0,0,0,0.002, ,0,0,0,0,0, ,-38.6,156.3,987.5,-0.6,-0.5,-1.9,25,-38.3873,155.734,987.702,-0.628519,-0.490196,-1.82655,
2026_07_06_15_27_00.518,3.847,29.8,0,0.757,0,0,0,0.002, ,0,0,0,0,0, ,-39.4,155.6,987.6,-0.6,-0.5,-1.9,25,-38.4247,155.747,987.693,-0.626781,-0.490793,-1.83103,
2026_07_06_15_27_00.537,3.847,29.8,0,0.757,0,0,0,0.001, ,0,0,0,0,0, ,-38.4,156.6,987.5,-0.6,-0.5,-1.9,25,-38.4536,155.768,987.684,-0.625149,-0.491354,-1.83523,
2026_07_06_15_27_00.558,3.847,29.8,0,0.757,0,0,0,0.001, ,0,0,0,0,0, ,-38.3,155,987.7,-0.6,-0.5,-1.8,25,-38.4473,155.77,987.679,-0.623617,-0.491881,-1.83613,
2026_07_06_15_27_00.577,3.847,29.7,0,0.758,0,0,0,0.001, ,0,0,0,0,0, ,-37.1,156.2,986.8,-0.6,-0.5,-1.8,25,-38.4018,155.76,987.653,-0.622178,-0.492376,-1.83393,
2026_07_06_15_27_00.597,3.847,29.7,0,0.758,0,0,0,0.002, ,0,0,0,0,0, ,-38.3,155.5,988.6,-0.6,-0.4,-1.8,25,-38.359,155.765,987.656,-0.620826,-0.489794,-1.83186,
2026_07_06_15_27_00.617,3.847,29.7,0,0.758,0,0,0,0.002, ,0,0,0,0,0, ,-38.5,157.1,988.2,-0.7,-0.5,-1.9,25,-38.3615,155.798,987.701,-0.622604,-0.487369,-1.83297,
2026_07_06_15_27_00.636,3.847,29.7,0,0.757,0,0,0,0.002, ,0,0,0,0,0, ,-38.5,156.6,987,-0.7,-0.5,-1.8,25,-38.3699,155.862,987.695,-0.62732,-0.488138,-1.83401,
2026_07_06_15_27_00.656,3.847,29.8,0,0.759,0,0,0,0.002, ,0,0,0,0,0, ,-38.4,156.1,986.8,-0.6,-0.4,-1.8,25,-38.3748,155.892,987.646,-0.628702,-0.485814,-1.83193,
2026_07_06_15_27_00.676,3.847,29.7,0,0.758,0,0,0,0.002, ,0,0,0,0,0, ,-39.4,156.2,988.5,-0.7,-0.5,-1.9,25,-38.4068,155.908,987.647,-0.63,-0.483632,-1.83303,
2026_07_06_15_27_00.698,3.847,29.7,0,0.758,0,0,0,0.002, ,0,0,0,0,0, ,-39.1,156.7,987.4,-0.7,-0.5,-1.8,25,-38.4582,155.941,987.665,-0.634266,-0.484629,-1.83407,
2026_07_06_15_27_00.715,3.847,29.8,0,0.758,0,0,0,0.002, ,0,0,0,0,0, ,-39.1,156.1,986,-0.6,-0.5,-1.8,25,-38.4973,155.969,987.606,-0.635225,-0.485566,-1.83199,
2026_07_06_15_27_00.735,3.847,29.7,0,0.758,0,0,0,0.002, ,0,0,0,0,0, ,-39,156.8,989.5,-0.7,-0.5,-1.9,25,-38.531,155.998,987.615,-0.636125,-0.486445,-1.83309,
2026_07_06_15_27_00.755,3.847,29.8,0,0.758,0,0,0,0.003, ,0,0,0,0,0, ,-38.5,156,988.4,-0.7,-0.5,-1.8,25,-38.5443,156.022,987.696,-0.640017,-0.487271,-1.83412,
2026_07_06_15_27_00.775,3.847,29.6,0,0.759,0,0,0,0.002, ,0,0,0,0,0, ,-37.8,155.8,988.6,-0.7,-0.5,-1.8,25,-38.5203,156.015,987.745,-0.643672,-0.488047,-1.83204,
2026_07_06_15_27_00.795,3.847,29.8,0,0.759,0,0,0,0.003, ,0,0,0,0,0, ,-38.3,155.7,987.9,-0.7,-0.4,-1.9,25,-38.4917,155.999,987.776,-0.647105,-0.485729,-1.83314,
2026_07_06_15_27_00.814,3.847,29.7,0,0.758,0,0,0,0.002, ,0,0,0,0,0, ,-39.3,154.7,986.9,-0.6,-0.5,-1.9,25,-38.5104,155.95,987.753,-0.647281,-0.483551,-1.83721,
2026_07_06_15_27_00.834,3.847,29.7,0,0.757,0,0,0,0.003, ,0,0,0,0,0, ,-38.5,156.6,988.2,-0.7,-0.5,-1.9,25,-38.5342,155.932,987.741,-0.647447,-0.484554,-1.84104,
2026_07_06_15_27_00.928,3.847,29.7,0,0.758,0,0,0,0.003, ,0,0,0,0,0, ,-39.4,156.4,985.5,-0.6,-0.4,-1.8,25,-38.5595,155.967,987.687,-0.647603,-0.482448,-1.84158,
2026_07_06_15_27_00.929,3.847,29.7,0,0.759,0,0,0,0.003, ,0,0,0,0,0, ,-38.8,156.4,987.9,-0.6,-0.4,-1.8,25,-38.5925,155.993,987.626,-0.644702,-0.477424,-1.83905,
2026_07_06_15_27_00.930,3.847,29.7,0,0.76,0,0,0,0.003, ,0,0,0,0,0, ,-38.5,157.1,987.5,-0.7,-0.5,-1.8,25,-38.596,156.039,987.631,-0.645025,-0.475753,-1.83667,
2026_07_06_15_27_00.930,3.847,29.8,0,0.757,0,0,0,0.003, ,0,0,0,0,0, ,-37.4,157.2,988.7,-0.7,-0.5,-1.9,25,-38.5566,156.107,987.66,-0.648375,-0.47723,-1.83748,
2026_07_06_15_27_00.939,3.847,29.9,0,0.757,0,0,0,0.002, ,0,0,0,0,0, ,-38.8,157.1,987.6,-0.7,-0.5,-1.8,25,-38.5288,156.17,987.689,-0.651521,-0.478618,-1.83824,
2026_07_06_15_27_00.953,3.847,29.8,0,0.758,0,0,0,0.001, ,0,0,0,0,0, ,-39.6,157.3,988.2,-0.6,-0.5,-1.8,25,-38.5697,156.233,987.702,-0.651428,-0.479921,-1.83591,
2026_07_06_15_27_00.973,3.847,29.8,0,0.758,0,0,0,0.002, ,0,0,0,0,0, ,-38.6,157.2,987.3,-0.7,-0.5,-1.9,25,-38.602,156.295,987.705,-0.651341,-0.481144,-1.83677,
2026_07_06_15_27_00.992,3.847,29.7,0,0.758,0,0,0,0.002, ,0,0,0,0,0, ,-38.8,155.3,987.4,-0.6,-0.5,-1.8,25,-38.608,156.292,987.684,-0.651259,-0.482293,-1.83758,
2026_07_06_15_27_01.012,3.847,29.7,0,0.758,0,0,0,0.003, ,0,0,0,0,0, ,-38.9,156,988.2,-0.6,-0.5,-1.9,25,-38.6227,156.253,987.691,-0.648136,-0.483372,-1.83834,
2026_07_06_15_27_01.032,3.847,29.7,0,0.759,0,0,0,0.003, ,0,0,0,0,0, ,-39.6,157.7,988.1,-0.7,-0.6,-2,25,-38.6609,156.29,987.719,-0.648249,-0.487433,-1.84514,
2026_07_06_15_27_01.052,3.847,29.7,0,0.758,0,0,0,0.003, ,0,0,0,0,0, ,-39.1,156.6,987.9,-0.6,-0.5,-1.9,25,-38.7029,156.342,987.736,-0.648356,-0.491245,-1.85153,
2026_07_06_15_27_01.072,3.847,29.8,0,0.759,0,0,0,0.003, ,0,0,0,0,0, ,-38.2,156.3,987.6,-0.6,-0.4,-1.9,25,-38.6997,156.349,987.737,-0.645409,-0.488732,-1.85448,
2026_07_06_15_27_01.091,3.847,29.7,0,0.758,0,0,0,0.002, ,0,0,0,0,0, ,-38.5,156.7,987.5,-0.6,-0.5,-1.8,25,-38.6784,156.358,987.725,-0.642642,-0.486372,-1.85421,
2026_07_06_15_27_01.111,3.847,29.9,0,0.759,0,0,0,0.003, ,0,0,0,0,0, ,-37.7,156.1,988.7,-0.7,-0.5,-1.8,25,-38.6431,156.36,987.748,-0.64309,-0.487202,-1.85091,
2026_07_06_15_27_01.131,3.847,29.7,0,0.758,0,0,0,0.001, ,0,0,0,0,0, ,-37.5,155.5,987.4,-0.7,-0.5,-1.8,25,-38.5796,156.326,987.766,-0.646558,-0.487982,-1.8478,
2026_07_06_15_27_01.151,3.847,29.8,0,0.76,0,0,0,0.003, ,0,0,0,0,0, ,-39.4,156.3,988.6,-0.6,-0.5,-1.8,25,-38.5717,156.3,987.781,-0.646768,-0.488714,-1.84489,
2026_07_06_15_27_01.170,3.847,29.8,0,0.758,0,0,0,0.002, ,0,0,0,0,0, ,-39.9,157.2,987.3,-0.7,-0.5,-1.9,25,-38.6374,156.328,987.791,-0.646965,-0.489402,-1.8452,
2026_07_06_15_27_01.191,3.847,29.8,0,0.759,0,0,0,0.002, ,0,0,0,0,0, ,-39,157.5,987.6,-0.7,-0.5,-1.8,25,-38.6869,156.39,987.77,-0.650197,-0.490048,-1.84549,
2026_07_06_15_27_01.210,3.847,29.8,0,0.758,0,0,0,0.002, ,0,0,0,0,0, ,-38.9,156.4,988,-0.6,-0.5,-1.9,25,-38.7029,156.424,987.772,-0.650185,-0.490654,-1.84577,
2026_07_06_15_27_01.230,3.847,29.7,0,0.76,0,0,0,0.002, ,0,0,0,0,0, ,-39.7,156,985.9,-0.7,-0.5,-1.9,25,-38.7393,156.41,987.722,-0.650174,-0.491224,-1.84907,
2026_07_06_15_27_01.250,3.847,29.7,0,0.758,0,0,0,0.003, ,0,0,0,0,0, ,-38.2,156.7,987.5,-0.6,-0.5,-1.8,25,-38.7522,156.407,987.66,-0.650163,-0.491759,-1.84913,
2026_07_06_15_27_01.270,3.847,29.8,0,0.758,0,0,0,0.003, ,0,0,0,0,0, ,-38.6,155,987.3,-0.7,-0.5,-1.9,25,-38.7307,156.373,987.644,-0.650153,-0.492261,-1.84918,
2026_07_06_15_27_01.290,3.847,29.8,0,0.759,0,0,0,0.002, ,0,0,0,0,0, ,-38.3,155.3,988.2,-0.7,-0.5,-1.9,25,-38.7136,156.298,987.65,-0.653191,-0.492732,-1.85228,
2026_07_06_15_27_01.309,3.847,29.7,0,0.76,0,0,0,0.002, ,0,0,0,0,0, ,-38.5,156.8,988.1,-0.7,-0.5,-1.8,25,-38.6945,156.283,987.681,-0.656043,-0.493175,-1.85214,
2026_07_06_15_27_01.329,3.847,29.8,0,0.758,0,0,0,0.003, ,0,0,0,0,0, ,-37.9,156.8,986.6,-0.6,-0.4,-1.8,25,-38.6644,156.315,987.661,-0.655675,-0.490544,-1.84896,
2026_07_06_15_27_01.349,3.847,29.7,0,0.76,0,0,0,0.002, ,0,0,0,0,0, ,-38.3,157.5,987.9,-0.7,-0.4,-1.9,25,-38.63,156.366,987.636,-0.655329,-0.485027,-1.84903,
2026_07_06_15_27_01.369,3.847,29.8,0,0.761,0,0,0,0.003, ,0,0,0,0,0, ,-38.6,156.8,987.1,-0.7,-0.4,-1.9,25,-38.619,156.413,987.627,-0.658051,-0.479845,-1.85213,
2026_07_06_15_27_01.389,3.847,29.8,0,0.758,0,0,0,0.003, ,0,0,0,0,0, ,-37.5,157.1,986.5,-0.6,-0.5,-1.9,25,-38.5843,156.446,987.577,-0.657561,-0.478027,-1.85505,
2026_07_06_15_27_01.409,3.847,29.7,0,0.76,0,0,0,0.003, ,0,0,0,0,0, ,-38.3,156.7,988,-0.6,-0.5,-1.9,25,-38.5426,156.474,987.557,-0.654053,-0.479366,-1.85779,
2026_07_06_15_27_01.428,3.847,29.8,0,0.757,0,0,0,0.003, ,0,0,0,0,0, ,-37.9,157.4,987.5,-0.7,-0.5,-1.8,25,-38.5157,156.509,987.569,-0.653806,-0.480623,-1.85731,
2026_07_06_15_27_01.448,3.847,29.7,0,0.76,0,0,0,0.003, ,0,0,0,0,0, ,-39.6,156.1,987.5,-0.6,-0.5,-1.9,25,-38.5299,156.524,987.565,-0.653574,-0.481804,-1.85687,
2026_07_06_15_27_01.468,3.847,29.8,0,0.76,0,0,0,0.003, ,0,0,0,0,0, ,-38.3,156.4,987.4,-0.7,-0.5,-1.9,25,-38.5555,156.507,987.558,-0.653356,-0.482913,-1.8595,
2026_07_06_15_27_01.487,3.847,29.8,0,0.758,0,0,0,0.003, ,0,0,0,0,0, ,-38.4,156.6,987.1,-0.6,-0.4,-1.8,25,-38.543,156.506,987.539,-0.653152,-0.480907,-1.85892,
2026_07_06_15_27_01.507,3.847,29.8,0,0.758,0,0,0,0.003, ,0,0,0,0,0, ,-38.4,156.4,986.9,-0.6,-0.5,-1.9,25,-38.5343,156.506,987.506,-0.649913,-0.479024,-1.85837,
2026_07_06_15_27_01.527,3.847,29.8,0,0.76,0,0,0,0.003, ,0,0,0,0,0, ,-39.1,157.1,988.1,-0.7,-0.4,-1.8,25,-38.5474,156.521,987.506,-0.649918,-0.477255,-1.85786,
2026_07_06_15_27_01.547,3.847,29.9,0,0.758,0,0,0,0.003, ,0,0,0,0,0, ,-37.9,156.3,987.9,-0.6,-0.4,-1.9,25,-38.5445,156.532,987.536,-0.649923,-0.472547,-1.85739,
2026_07_06_15_27_01.566,3.847,29.8,0,0.758,0,0,0,0.002, ,0,0,0,0,0, ,-38.3,154.9,986.4,-0.7,-0.5,-1.8,25,-38.5175,156.475,987.512,-0.649928,-0.471173,-1.85694,
2026_07_06_15_27_01.585,3.847,29.8,0,0.76,0,0,0,0.003, ,0,0,0,0,0, ,-37.3,156.8,987.3,-0.7,-0.5,-1.8,25,-38.4737,156.437,987.472,-0.652979,-0.47293,-1.85347,
2026_07_06_15_27_01.606,3.847,29.8,0,0.76,0,0,0,0.003, ,0,0,0,0,0, ,-38.6,156.9,988.2,-0.7,-0.4,-2,25,-38.4418,156.462,987.489,-0.655844,-0.471533,-1.8563,
2026_07_06_15_27_01.626,3.847,29.8,0,0.76,0,0,0,0.003, ,0,0,0,0,0, ,-38.8,156.2,988.1,-0.7,-0.5,-1.8,25,-38.4576,156.467,987.529,-0.658535,-0.470221,-1.85896,
2026_07_06_15_27_01.646,3.847,29.8,0,0.76,0,0,0,0.003, ,0,0,0,0,0, ,-38.9,155.6,988.4,-0.6,-0.5,-1.9,25,-38.4815,156.433,987.573,-0.658015,-0.472035,-1.85842,
2026_07_06_15_27_01.666,3.847,29.8,0,0.758,0,0,0,0.003, ,0,0,0,0,0, ,-38.8,155.1,987.3,-0.6,-0.5,-1.9,25,-38.5039,156.367,987.59,-0.65448,-0.473739,-1.86095,
2026_07_06_15_27_01.685,3.847,29.8,0,0.761,0,0,0,0.003, ,0,0,0,0,0, ,-38.4,156.8,987.1,-0.6,-0.5,-1.9,25,-38.5098,156.342,987.566,-0.65116,-0.47534,-1.86333,
2026_07_06_15_27_01.705,3.847,29.8,0,0.758,0,0,0,0.003, ,0,0,0,0,0, ,-38.4,156.6,988.2,-0.6,-0.4,-1.9,25,-38.5031,156.363,987.571,-0.648042,-0.473795,-1.86557,
2026_07_06_15_27_01.724,3.847,29.8,0,0.76,0,0,0,0.003, ,0,0,0,0,0, ,-37.8,157.1,987.6,-0.6,-0.4,-1.8,25,-38.4785,156.393,987.591,-0.645115,-0.469299,-1.86462,
2026_07_06_15_27_01.744,3.847,29.8,0,0.76,0,0,0,0.003, ,0,0,0,0,0, ,-38.2,156.1,988,-0.6,-0.4,-1.9,25,-38.4494,156.406,987.604,-0.642366,-0.465076,-1.86373,
2026_07_06_15_27_01.764,3.847,29.7,0,0.76,0,0,0,0.003, ,0,0,0,0,0, ,-38.5,156.7,987,-0.7,-0.5,-1.9,25,-38.4433,156.405,987.598,-0.642831,-0.464157,-1.86594,
2026_07_06_15_27_01.784,3.847,29.7,0,0.758,0,0,0,0.004, ,0,0,0,0,0, ,-38.4,155,988.4,-0.7,-0.5,-1.8,25,-38.4437,156.371,987.604,-0.646315,-0.466341,-1.86497,
2026_07_06_15_27_01.805,3.847,29.7,0,0.76,0,0,0,0.004, ,0,0,0,0,0, ,-39,156.4,988,-0.6,-0.4,-1.8,25,-38.4593,156.331,987.64,-0.646539,-0.465345,-1.86101,
2026_07_06_15_27_01.824,3.847,29.8,0,0.76,0,0,0,0.004, ,0,0,0,0,0, ,-37.8,155.7,987.1,-0.6,-0.5,-1.8,25,-38.4557,156.313,987.635,-0.643703,-0.46441,-1.85729,
2026_07_06_15_27_01.844,3.847,29.8,0,0.757,0,0,0,0.003, ,0,0,0,0,0, ,-38.9,157.9,987.4,-0.7,-0.5,-2,25,-38.4493,156.343,987.611,-0.644087,-0.466579,-1.85989,
2026_07_06_15_27_01.864,3.847,29.7,0,0.758,0,0,0,0.003, ,0,0,0,0,0, ,-38.2,156.3,988,-0.6,-0.5,-1.9,25,-38.4554,156.389,987.617,-0.644447,-0.468616,-1.86538,
2026_07_06_15_27_01.883,3.847,29.8,0,0.758,0,0,0,0.004, ,0,0,0,0,0, ,-39.5,156.2,987.4,-0.6,-0.5,-1.8,25,-38.4795,156.381,987.622,-0.641739,-0.470528,-1.86445,
2026_07_06_15_27_01.909,3.847,29.8,0,0.758,0,0,0,0.003, ,0,0,0,0,0, ,-38.6,155.8,986.4,-0.7,-0.4,-1.9,25,-38.5142,156.358,987.578,-0.642242,-0.469277,-1.86357,
2026_07_06_15_27_01.923,3.847,29.8,0,0.754,0,0,0,0.003, ,0,0,0,0,0, ,-38.4,157.1,987.3,-0.7,-0.5,-1.8,25,-38.5134,156.363,987.533,-0.645762,-0.468102,-1.86274,
2026_07_06_15_27_01.943,3.847,29.8,0,0.758,0,0,0,0.003, ,0,0,0,0,0, ,-39,156.9,989,-0.6,-0.5,-1.9,25,-38.5247,156.402,987.571,-0.64602,-0.470046,-1.86196,
2026_07_06_15_27_01.962,3.847,29.8,0,0.76,0,0,0,0.003, ,0,0,0,0,0, ,-39.6,156.6,987.6,-0.7,-0.4,-1.8,25,-38.572,156.423,987.615,-0.646263,-0.468825,-1.86123,
2026_07_06_15_27_01.982,3.847,29.8,0,0.758,0,0,0,0.003, ,0,0,0,0,0, ,-38.3,157.9,987.7,-0.7,-0.5,-1.8,25,-38.595,156.474,987.618,-0.649537,-0.467678,-1.8575,
2026_07_06_15_27_02.002,3.847,29.9,0,0.758,0,0,0,0.003, ,0,0,0,0,0, ,-38.9,156.1,987.7,-0.7,-0.5,-1.8,25,-38.5953,156.506,987.623,-0.652612,-0.469647,-1.854,
2026_07_06_15_27_02.022,3.847,29.9,0,0.758,0,0,0,0.002, ,0,0,0,0,0, ,-38.8,157.5,987.5,-0.7,-0.5,-1.8,25,-38.6108,156.524,987.621,-0.6555,-0.471497,-1.85071,
2026_07_06_15_27_02.041,3.847,29.8,0,0.758,0,0,0,0.002, ,0,0,0,0,0, ,-39.1,156.4,987.9,-0.7,-0.4,-1.9,25,-38.6315,156.55,987.626,-0.658212,-0.470187,-1.85066,
2026_07_06_15_27_02.062,3.847,29.9,0,0.76,0,0,0,0.003, ,0,0,0,0,0, ,-39.5,156.9,988.1,-0.7,-0.5,-1.9,25,-38.6722,156.556,987.649,-0.660758,-0.468957,-1.85367,
2026_07_06_15_27_02.081,3.847,29.8,0,0.758,0,0,0,0.002, ,0,0,0,0,0, ,-38.9,156.2,987.7,-0.7,-0.5,-1.9,25,-38.7044,156.555,987.664,-0.663149,-0.470848,-1.85649,
2026_07_06_15_27_02.101,3.847,29.8,0,0.758,0,0,0,0.003, ,0,0,0,0,0, ,-38.6,155.6,988,-0.6,-0.5,-2,25,-38.7072,156.515,987.675,-0.662348,-0.472625,-1.86219,
2026_07_06_15_27_02.121,3.847,29.8,0,0.757,0,0,0,0.003, ,0,0,0,0,0, ,-38.6,156.9,987.4,-0.7,-0.5,-1.9,25,-38.7006,156.499,987.677,-0.661596,-0.474293,-1.86754,
2026_07_06_15_27_02.140,3.847,29.8,0,0.757,0,0,0,0.003, ,0,0,0,0,0, ,-40,155.7,987,-0.7,-0.4,-1.8,25,-38.7372,156.487,987.648,-0.663936,-0.472813,-1.86647,
2026_07_06_15_27_02.160,3.847,29.9,0,0.758,0,0,0,0.003, ,0,0,0,0,0, ,-37.3,156.8,985.7,-0.7,-0.5,-1.9,25,-38.7319,156.473,987.569,-0.666134,-0.471423,-1.86547,
2026_07_06_15_27_02.180,3.847,29.9,0,0.757,0,0,0,0.003, ,0,0,0,0,0, ,-39,157.7,986.5,-0.7,-0.5,-1.9,25,-38.6964,156.52,987.479,-0.668197,-0.473164,-1.86757,
2026_07_06_15_27_02.200,3.847,29.8,0,0.758,0,0,0,0.003, ,0,0,0,0,0, ,-39.5,156.9,987.9,-0.6,-0.4,-1.9,25,-38.7301,156.568,987.462,-0.667088,-0.471752,-1.86955,
2026_07_06_15_27_02.220,3.847,29.9,0,0.758,0,0,0,0.003, ,0,0,0,0,0, ,-37.5,157.2,987.5,-0.7,-0.5,-1.8,25,-38.7161,156.597,987.477,-0.666047,-0.470427,-1.86836,
2026_07_06_15_27_02.240,3.847,29.8,0,0.758,0,0,0,0.003, ,0,0,0,0,0, ,-38.9,156.6,987.3,-0.6,-0.5,-1.8,25,-38.6847,156.615,987.472,-0.665069,-0.472229,-1.86419,
2026_07_06_15_27_02.259,3.847,29.8,0,0.758,0,0,0,0.003, ,0,0,0,0,0, ,-38.9,155.2,987.6,-0.7,-0.4,-1.8,25,-38.6978,156.572,987.471,-0.664151,-0.470874,-1.86028,
2026_07_06_15_27_02.281,3.847,29.8,0,0.759,0,0,0,0.003, ,0,0,0,0,0, ,-39.6,158.3,987.6,-0.6,-0.4,-1.9,25,-38.7314,156.583,987.479,-0.663289,-0.466555,-1.85965,
2026_07_06_15_27_02.299,3.847,29.8,0,0.76,0,0,0,0.003, ,0,0,0,0,0, ,-39.3,156,988,-0.7,-0.4,-2,25,-38.7752,156.617,987.498,-0.662479,-0.4625,-1.86516,
2026_07_06_15_27_02.319,3.847,29.8,0,0.759,0,0,0,0.003, ,0,0,0,0,0, ,-39,156.7,986.9,-0.7,-0.5,-1.8,25,-38.7981,156.601,987.495,-0.664765,-0.461738,-1.86728,
2026_07_06_15_27_02.339,3.847,29.9,0,0.758,0,0,0,0.003, ,0,0,0,0,0, ,-39,157.3,988.1,-0.7,-0.5,-1.9,25,-38.8104,156.625,987.496,-0.666912,-0.46407,-1.86623,
2026_07_06_15_27_02.359,3.847,29.8,0,0.76,0,0,0,0.003, ,0,0,0,0,0, ,-38.4,156.7,987.1,-0.5,-0.5,-1.9,25,-38.8036,156.648,987.502,-0.662835,-0.466259,-1.86829,
2026_07_06_15_27_02.378,3.847,29.8,0,0.757,0,0,0,0.003, ,0,0,0,0,0, ,-37.2,156.7,986.6,-0.6,-0.4,-1.8,25,-38.7425,156.651,987.462,-0.655959,-0.465268,-1.86717,
2026_07_06_15_27_02.398,3.847,29.9,0,0.757,0,0,0,0.004, ,0,0,0,0,0, ,-38.5,157.3,988.4,-0.6,-0.4,-1.8,25,-38.6881,156.673,987.464,-0.652549,-0.461291,-1.86308,
2026_07_06_15_27_02.417,3.847,29.9,0,0.76,0,0,0,0.003, ,0,0,0,0,0, ,-38.6,156.7,988.5,-0.6,-0.4,-1.9,25,-38.6797,156.692,987.525,-0.649347,-0.457556,-1.86228,
2026_07_06_15_27_02.438,3.847,29.8,0,0.758,0,0,0,0.003, ,0,0,0,0,0, ,-38.9,156.3,987.5,-0.7,-0.5,-1.9,25,-38.684,156.681,987.554,-0.649387,-0.457096,-1.86458,
2026_07_06_15_27_02.458,3.847,29.7,0,0.757,0,0,0,0.004, ,0,0,0,0,0, ,-38.2,157.2,988.2,-0.6,-0.4,-1.8,25,-38.6758,156.685,987.572,-0.649424,-0.456663,-1.86369,
2026_07_06_15_27_02.478,3.847,29.9,0,0.757,0,0,0,0.004, ,0,0,0,0,0, ,-39.1,156,987.1,-0.6,-0.5,-1.9,25,-38.6742,156.68,987.576,-0.646412,-0.456257,-1.86286,
2026_07_06_15_27_02.497,3.847,29.9,0,0.759,0,0,0,0.003, ,0,0,0,0,0, ,-39.6,156,987.5,-0.7,-0.5,-1.8,25,-38.7154,156.638,987.56,-0.646631,-0.458923,-1.86207,
2026_07_06_15_27_02.517,3.847,29.9,0,0.758,0,0,0,0.003, ,0,0,0,0,0, ,-39.4,155.8,986.2,-0.7,-0.5,-1.8,25,-38.7632,156.593,987.516,-0.649883,-0.461426,-1.85829,
2026_07_06_15_27_02.536,3.847,29.8,0,0.758,0,0,0,0.003, ,0,0,0,0,0, ,-39.4,155.6,987.7,-0.6,-0.4,-1.9,25,-38.802,156.539,987.482,-0.64989,-0.46073,-1.85779,
2026_07_06_15_27_02.557,3.847,29.9,0,0.758,0,0,0,0.004, ,0,0,0,0,0, ,-38.9,157.1,988,-0.6,-0.5,-1.9,25,-38.8232,156.527,987.504,-0.64685,-0.460076,-1.86036,
2026_07_06_15_27_02.577,3.847,29.8,0,0.758,0,0,0,0.003, ,0,0,0,0,0, ,-39.4,156.2,986.6,-0.7,-0.4,-1.8,25,-38.8431,156.535,987.492,-0.647042,-0.459462,-1.85973,
2026_07_06_15_27_02.596,3.847,29.9,0,0.757,0,0,0,0.004, ,0,0,0,0,0, ,-37.2,156.3,987.4,-0.6,-0.5,-1.9,25,-38.81,156.518,987.462,-0.647222,-0.458885,-1.85914,
2026_07_06_15_27_02.616,3.847,29.8,0,0.76,0,0,0,0.003, ,0,0,0,0,0, ,-38.8,156.9,986.4,-0.5,-0.5,-1.8,25,-38.7607,156.523,987.428,-0.641298,-0.461391,-1.85858,
2026_07_06_15_27_02.636,3.847,29.9,0,0.76,0,0,0,0.004, ,0,0,0,0,0, ,-39.6,156.4,986.5,-0.7,-0.4,-1.8,25,-38.7875,156.53,987.368,-0.638781,-0.460697,-1.85501,
2026_07_06_15_27_02.655,3.847,29.8,0,0.758,0,0,0,0.003, ,0,0,0,0,0, ,-39.3,157.4,987.3,-0.7,-0.5,-1.9,25,-38.8278,156.553,987.339,-0.642512,-0.460045,-1.8547,
2026_07_06_15_27_02.675,3.847,29.9,0,0.759,0,0,0,0.004, ,0,0,0,0,0, ,-38.9,155.3,987.4,-0.7,-0.5,-1.9,25,-38.8444,156.54,987.34,-0.646015,-0.46248,-1.85746,
2026_07_06_15_27_02.695,3.847,29.8,0,0.76,0,0,0,0.003, ,0,0,0,0,0, ,-38.3,156.9,988.7,-0.6,-0.4,-2,25,-38.8295,156.514,987.383,-0.646258,-0.461719,-1.8631,
2026_07_06_15_27_02.715,3.847,29.8,0,0.758,0,0,0,0.004, ,0,0,0,0,0, ,-38.3,156.3,986.5,-0.7,-0.4,-1.8,25,-38.7973,156.519,987.397,-0.646486,-0.457958,-1.86535,
2026_07_06_15_27_02.735,3.847,29.9,0,0.758,0,0,0,0.004, ,0,0,0,0,0, ,-38.9,156.4,987.4,-0.7,-0.5,-1.8,25,-38.7852,156.509,987.369,-0.649747,-0.457473,-1.86137,
2026_07_06_15_27_02.755,3.847,29.9,0,0.758,0,0,0,0.003, ,0,0,0,0,0, ,-37.7,155.7,987.6,-0.6,-0.4,-1.8,25,-38.7557,156.481,987.377,-0.649762,-0.457018,-1.85763,
2026_07_06_15_27_02.780,3.847,29.9,0,0.76,0,0,0,0.003, ,0,0,0,0,0, ,-38.5,156,986.9,-0.6,-0.4,-1.9,25,-38.7157,156.442,987.37,-0.64673,-0.453543,-1.85716,
2026_07_06_15_27_02.794,3.847,29.9,0,0.757,0,0,0,0.003, ,0,0,0,0,0, ,-39,156.2,987.7,-0.7,-0.4,-1.9,25,-38.7178,156.421,987.365,-0.646929,-0.45028,-1.85977,
2026_07_06_15_27_02.814,3.847,29.8,0,0.758,0,0,0,0.003, ,0,0,0,0,0, ,-39.1,156.4,986.6,-0.6,-0.4,-1.9,25,-38.738,156.414,987.352,-0.647116,-0.447216,-1.86223,
2026_07_06_15_27_02.834,3.847,29.8,0,0.761,0,0,0,0.004, ,0,0,0,0,0, ,-38.2,156.8,988,-0.6,-0.5,-1.8,25,-38.7327,156.425,987.349,-0.644245,-0.447386,-1.86148,
2026_07_06_15_27_02.854,3.847,29.8,0,0.758,0,0,0,0.004, ,0,0,0,0,0, ,-39.5,156.7,986.5,-0.7,-0.5,-1.9,25,-38.7398,156.445,987.343,-0.644596,-0.450592,-1.86078,
2026_07_06_15_27_02.874,3.847,29.9,0,0.758,0,0,0,0.004, ,0,0,0,0,0, ,-38.6,157.4,987.6,-0.7,-0.5,-1.9,25,-38.7587,156.482,987.325,-0.647972,-0.453603,-1.86317,
2026_07_06_15_27_02.893,3.847,29.8,0,0.757,0,0,0,0.003, ,0,0,0,0,0, ,-38.2,155.8,987.4,-0.6,-0.5,-1.8,25,-38.7369,156.489,987.336,-0.648096,-0.45643,-1.86237,
2026_07_06_15_27_02.913,3.847,29.9,0,0.759,0,0,0,0.004, ,0,0,0,0,0, ,-37.7,157.4,987.9,-0.6,-0.5,-1.9,25,-38.6889,156.496,987.355,-0.645165,-0.459085,-1.86161,
2026_07_06_15_27_02.932,3.847,29.9,0,0.757,0,0,0,0.003, ,0,0,0,0,0, ,-39.6,156.9,988.1,-0.7,-0.5,-1.9,25,-38.6865,156.536,987.394,-0.645459,-0.461579,-1.86395,
2026_07_06_15_27_02.953,3.847,29.8,0,0.757,0,0,0,0.003, ,0,0,0,0,0, ,-38.5,156.4,987.6,-0.6,-0.5,-1.8,25,-38.7087,156.543,987.422,-0.645736,-0.46392,-1.8631,
2026_07_06_15_27_02.972,3.847,29.9,0,0.758,0,0,0,0.004, ,0,0,0,0,0, ,-38.4,156.8,986.8,-0.6,-0.5,-1.8,25,-38.6929,156.546,987.408,-0.642949,-0.466119,-1.85926,
2026_07_06_15_27_02.992,3.847,29.9,0,0.76,0,0,0,0.003, ,0,0,0,0,0, ,-39.1,156.8,987,-0.6,-0.5,-1.9,25,-38.6964,156.562,987.378,-0.640332,-0.468183,-1.85869,
2026_07_06_15_27_03.012,3.847,29.8,0,0.758,0,0,0,0.003, ,0,0,0,0,0, ,-38.2,155.8,988.2,-0.7,-0.5,-1.9,25,-38.6936,156.546,987.391,-0.640921,-0.470122,-1.86121,
2026_07_06_15_27_03.038,3.847,29.9,0,0.76,0,0,0,0.004, ,0,0,0,0,0, ,-36.9,156,986.8,-0.6,-0.5,-1.8,25,-38.6239,156.506,987.398,-0.641474,-0.471943,-1.86053,
2026_07_06_15_27_03.052,3.847,29.9,0,0.76,0,0,0,0.003, ,0,0,0,0,0, ,-37.5,157.1,986.8,-0.7,-0.5,-1.8,25,-38.5371,156.509,987.361,-0.641994,-0.473652,-1.85684,
2026_07_06_15_27_03.072,3.847,30,0,0.759,0,0,0,0.003, ,0,0,0,0,0, ,-37.2,156.6,986.5,-0.6,-0.4,-1.8,25,-38.4648,156.53,987.318,-0.642482,-0.472211,-1.85338,
2026_07_06_15_27_03.091,3.847,29.9,0,0.758,0,0,0,0.002, ,0,0,0,0,0, ,-39,156.1,988,-0.6,-0.5,-1.9,25,-38.4426,156.519,987.314,-0.639893,-0.470858,-1.85317,
2026_07_06_15_27_03.110,3.847,29.9,0,0.76,0,0,0,0, ,0,0,0,0,0, ,-38.9,156,986.8,-0.7,-0.4,-1.9,25,-38.4735,156.49,987.319,-0.640509,-0.469587,-1.85602,
2026_07_06_15_27_03.132,3.847,29.9,0,0.76,0,0,0,0, ,0,0,0,0,0, ,-38.6,156.6,987.6,-0.6,-0.4,-1.8,25,-38.4903,156.479,987.312,-0.641087,-0.465346,-1.85566,
2026_07_06_15_27_03.151,3.847,29.9,0,0.756,0,0,0,0, ,0,0,0,0,0, ,-38.5,155.8,987.4,-0.7,-0.5,-1.8,25,-38.494,156.462,987.323,-0.64163,-0.464411,-1.85227,
2026_07_06_15_27_03.171,3.847,29.9,0,0.76,0,0,0,0, ,0,0,0,0,0, ,-38.2,156.3,987.7,-0.6,-0.5,-1.9,25,-38.4852,156.437,987.337,-0.64214,-0.46658,-1.85213,
2026_07_06_15_27_03.189,3.847,30,0,0.758,0,0,0,0, ,0,0,0,0,0, ,-40,156.3,987.5,-0.7,-0.5,-1.9,25,-38.5227,156.428,987.353,-0.642619,-0.468616,-1.85504,
2026_07_06_15_27_03.220,3.847,29.9,0,0.76,0,0,0,0, ,0,0,0,0,0, ,-38.2,156.4,986.4,-0.6,-0.5,-1.9,25,-38.5578,156.424,987.329,-0.643069,-0.470529,-1.85778,
2026_07_06_15_27_03.248,3.847,29.9,0,0.756,0,0,0,0, ,0,0,0,0,0, ,-38.4,155.8,987.1,-0.7,-0.4,-1.8,25,-38.5421,156.404,987.293,-0.643491,-0.469278,-1.85731,
2026_07_06_15_27_03.254,3.847,29.9,0,0.757,0,0,0,0, ,0,0,0,0,0, ,-38.5,156.9,986.3,-0.6,-0.5,-1.8,25,-38.5365,156.401,987.257,-0.643888,-0.468103,-1.85382,
2026_07_06_15_27_03.269,3.847,30,0,0.759,0,0,0,0, ,0,0,0,0,0, ,-38.8,156.6,987.4,-0.6,-0.4,-1.8,25,-38.5434,156.422,987.232,-0.641214,-0.467,-1.85054,
2026_07_06_15_27_03.290,3.847,29.9,0,0.76,0,0,0,0, ,0,0,0,0,0, ,-38.2,156.9,988.1,-0.7,-0.5,-1.8,25,-38.5408,156.442,987.264,-0.641749,-0.465964,-1.84746,
2026_07_06_15_27_03.309,3.847,30,0,0.758,0,0,0,0, ,0,0,0,0,0, ,-38.8,155.7,987.5,-0.6,-0.5,-1.8,25,-38.5383,156.433,987.297,-0.642252,-0.468038,-1.84457,
2026_07_06_15_27_03.329,3.847,29.9,0,0.76,0,0,0,0, ,0,0,0,0,0, ,-38.9,156.1,986.6,-0.6,-0.5,-1.8,25,-38.5573,156.401,987.282,-0.639677,-0.469986,-1.84185,
2026_07_06_15_27_03.349,3.847,29.9,0,0.76,0,0,0,0, ,0,0,0,0,0, ,-39,156.4,987.6,-0.7,-0.5,-1.8,25,-38.5812,156.392,987.27,-0.640306,-0.471815,-1.8393,
2026_07_06_15_27_03.369,3.847,29.9,0,0.758,0,0,0,0, ,0,0,0,0,0, ,-38.9,156,987.7,-0.7,-0.5,-1.8,25,-38.6037,156.38,987.294,-0.643944,-0.473532,-1.83691,
2026_07_06_15_27_03.388,3.847,30,0,0.758,0,0,0,0, ,0,0,0,0,0, ,-38.5,155.6,987.5,-0.6,-0.5,-1.9,25,-38.6096,156.345,987.312,-0.644313,-0.475145,-1.8377,
2026_07_06_15_27_03.408,3.847,29.9,0,0.76,0,0,0,0, ,0,0,0,0,0, ,-39,156,987.9,-0.6,-0.5,-1.8,25,-38.6181,156.311,987.336,-0.641612,-0.47666,-1.83845,
2026_07_06_15_27_03.428,3.847,29.9,0,0.76,0,0,0,0, ,0,0,0,0,0, ,-38.3,156.4,987.1,-0.7,-0.5,-1.8,25,-38.6201,156.305,987.346,-0.642124,-0.478082,-1.83611,
2026_07_06_15_27_03.448,3.847,29.9,0,0.76,0,0,0,0, ,0,0,0,0,0, ,-38.5,155.8,985.9,-0.7,-0.5,-1.8,25,-38.6067,156.292,987.294,-0.64565,-0.479418,-1.83391,
2026_07_06_15_27_03.467,3.847,29.9,0,0.758,0,0,0,0, ,0,0,0,0,0, ,-39,156.2,987.1,-0.6,-0.4,-1.8,25,-38.6154,156.274,987.246,-0.645916,-0.477625,-1.83184,
2026_07_06_15_27_03.487,3.847,29.9,0,0.76,0,0,0,0, ,0,0,0,0,0, ,-39,155.6,987.7,-0.6,-0.5,-1.9,25,-38.6388,156.251,987.255,-0.643118,-0.475942,-1.83295,
2026_07_06_15_27_03.507,3.847,29.8,0,0.758,0,0,0,0, ,0,0,0,0,0, ,-38.8,156.7,988.2,-0.7,-0.5,-1.8,25,-38.6547,156.245,987.298,-0.643537,-0.477408,-1.83399,
2026_07_06_15_27_03.533,3.847,29.9,0,0.76,0,0,0,0.001, ,0,0,0,0,0, ,-38.8,155.7,989.2,-0.7,-0.5,-2,25,-38.6636,156.243,987.383,-0.646978,-0.478784,-1.83801,
2026_07_06_15_27_03.547,3.847,29.9,0,0.758,0,0,0,0.001, ,0,0,0,0,0, ,-38.8,156.7,988.2,-0.6,-0.5,-1.9,25,-38.6719,156.24,987.463,-0.647162,-0.480077,-1.84484,
2026_07_06_15_27_03.567,3.847,29.9,0,0.76,0,0,0,0.001, ,0,0,0,0,0, ,-40.7,156.6,986.9,-0.7,-0.5,-1.8,25,-38.7376,156.265,987.469,-0.647335,-0.481291,-1.84515,
2026_07_06_15_27_03.587,3.847,29.9,0,0.758,0,0,0,0.001, ,0,0,0,0,0, ,-38.9,156.1,987.1,-0.6,-0.4,-1.9,25,-38.8023,156.27,987.44,-0.647497,-0.479384,-1.84545,
2026_07_06_15_27_03.606,3.847,29.9,0,0.758,0,0,0,0.001, ,0,0,0,0,0, ,-39.1,156.3,987.5,-0.6,-0.5,-1.9,25,-38.8144,156.266,987.432,-0.644603,-0.477594,-1.84877,
2026_07_06_15_27_03.626,3.847,30,0,0.76,0,0,0,0.001, ,0,0,0,0,0, ,-39.3,155.8,987.3,-0.7,-0.5,-1.9,25,-38.8379,156.253,987.43,-0.644932,-0.478959,-1.85189,
2026_07_06_15_27_03.645,3.847,30,0,0.76,0,0,0,0, ,0,0,0,0,0, ,-39,155,988.8,-0.6,-0.4,-1.9,25,-38.8569,156.201,987.467,-0.645241,-0.477195,-1.85482,
2026_07_06_15_27_03.666,3.847,29.9,0,0.76,0,0,0,0, ,0,0,0,0,0, ,-38.5,155.1,988.4,-0.7,-0.5,-1.8,25,-38.8504,156.131,987.536,-0.645531,-0.475537,-1.85453,
2026_07_06_15_27_03.685,3.847,29.9,0,0.76,0,0,0,0.001, ,0,0,0,0,0, ,-37.9,156.4,986.3,-0.6,-0.5,-1.9,25,-38.8108,156.107,987.525,-0.645803,-0.477028,-1.85425,
2026_07_06_15_27_03.706,3.847,29.9,0,0.757,0,0,0,0.001, ,0,0,0,0,0, ,-39,156.3,987.6,-0.6,-0.5,-1.8,25,-38.7888,156.122,987.49,-0.643012,-0.478428,-1.85399,
2026_07_06_15_27_03.724,3.847,29.9,0,0.76,0,0,0,0.001, ,0,0,0,0,0, ,-39.7,157.5,986.9,-0.7,-0.5,-1.8,25,-38.823,156.17,987.475,-0.643438,-0.479742,-1.8507,
2026_07_06_15_27_03.745,3.847,30,0,0.761,0,0,0,0.001, ,0,0,0,0,0, ,-38.5,155.2,986.5,-0.6,-0.5,-1.8,25,-38.8399,156.181,987.428,-0.643838,-0.480977,-1.84761,
2026_07_06_15_27_03.764,3.847,30,0,0.76,0,0,0,0, ,0,0,0,0,0, ,-37.9,156.4,987.3,-0.6,-0.5,-1.8,25,-38.8009,156.157,987.396,-0.641166,-0.482136,-1.84471,
2026_07_06_15_27_03.784,3.847,29.9,0,0.761,0,0,0,0, ,0,0,0,0,0, ,-39.4,156.1,987.4,-0.6,-0.5,-1.9,25,-38.7917,156.163,987.393,-0.638658,-0.483225,-1.84503,
2026_07_06_15_27_03.804,3.847,29.9,0,0.76,0,0,0,0.001, ,0,0,0,0,0, ,-38.2,156,988.5,-0.6,-0.5,-1.8,25,-38.7922,156.156,987.427,-0.636302,-0.484247,-1.84534,
2026_07_06_15_27_03.823,3.847,29.9,0,0.759,0,0,0,0.001, ,0,0,0,0,0, ,-37.7,155.7,987.5,-0.7,-0.5,-1.9,25,-38.7409,156.137,987.462,-0.637137,-0.485207,-1.84562,
2026_07_06_15_27_03.843,3.847,30,0,0.758,0,0,0,0.001, ,0,0,0,0,0, ,-38.2,156.2,986.9,-0.6,-0.4,-1.8,25,-38.6927,156.126,987.446,-0.637921,-0.483061,-1.84589,
2026_07_06_15_27_03.863,3.847,29.9,0,0.758,0,0,0,0, ,0,0,0,0,0, ,-39.3,156.4,986.8,-0.6,-0.4,-1.9,25,-38.6962,156.137,987.41,-0.63561,-0.478,-1.84614,
2026_07_06_15_27_03.883,3.847,30,0,0.758,0,0,0,0.001, ,0,0,0,0,0, ,-38.6,156.1,988,-0.6,-0.4,-1.9,25,-38.7116,156.144,987.409,-0.63344,-0.473247,-1.84942,
2026_07_06_15_27_03.903,3.847,29.9,0,0.761,0,0,0,0, ,0,0,0,0,0, ,-39.5,155.8,987.6,-0.6,-0.4,-1.8,25,-38.7322,156.132,987.433,-0.631402,-0.468783,-1.84946,
2026_07_06_15_27_03.923,3.847,29.9,0,0.76,0,0,0,0.001, ,0,0,0,0,0, ,-37.9,156.8,989.2,-0.6,-0.5,-1.9,25,-38.7303,156.142,987.492,-0.629488,-0.467639,-1.84949,
2026_07_06_15_27_03.943,3.847,29.9,0,0.758,0,0,0,0.001, ,0,0,0,0,0, ,-39.1,156.8,986.5,-0.7,-0.5,-1.9,25,-38.7162,156.182,987.514,-0.630738,-0.469611,-1.85257,
2026_07_06_15_27_03.962,3.847,30,0,0.759,0,0,0,0.001, ,0,0,0,0,0, ,-38.5,156.3,986.6,-0.7,-0.5,-1.8,25,-38.7214,156.205,987.455,-0.634959,-0.471463,-1.85241,
2026_07_06_15_27_03.982,3.847,30,0,0.76,0,0,0,0, ,0,0,0,0,0, ,-39.1,155.6,986.8,-0.7,-0.5,-1.9,25,-38.7261,156.189,987.409,-0.638922,-0.473202,-1.85226,
2026_07_06_15_27_04.001,3.847,30,0,0.759,0,0,0,0, ,0,0,0,0,0, ,-38.3,156.6,987.7,-0.6,-0.4,-1.8,25,-38.7246,156.184,987.399,-0.639598,-0.471788,-1.85213,
2026_07_06_15_27_04.021,3.847,29.9,0,0.76,0,0,0,0, ,0,0,0,0,0, ,-39.3,156.4,988,-0.6,-0.5,-1.8,25,-38.7291,156.203,987.427,-0.637185,-0.47046,-1.84895,
2026_07_06_15_27_04.041,3.847,29.9,0,0.759,0,0,0,0.001, ,0,0,0,0,0, ,-39.9,154.9,988.4,-0.7,-0.4,-1.9,25,-38.7822,156.169,987.474,-0.637965,-0.469213,-1.84901,
2026_07_06_15_27_04.061,3.847,29.9,0,0.76,0,0,0,0.001, ,0,0,0,0,0, ,-38.4,155.3,987.6,-0.6,-0.5,-1.8,25,-38.8046,156.104,987.506,-0.638699,-0.468042,-1.84907,
2026_07_06_15_27_04.082,3.847,29.9,0,0.759,0,0,0,0.001, ,0,0,0,0,0, ,-37.7,156.6,987.4,-0.7,-0.5,-1.8,25,-38.7586,156.095,987.506,-0.639387,-0.46999,-1.84608,
