UTC_Time,Vin,TC1,TC2,Rh1,Vh1,Ah1,Acp1,Dty1,Err1,Rh2,Vh2,Ah2,Acp2,Dty2,Err2,Accel_x,Accel_y,Accel_z,gyro_x,gyro_y,gyro_z,Temp_c,Accel_x_h,Accel_y_h,Accel_z_h,gyro_x_h,gyro_y_h,gyro_z_h,
2026_07_06_15_03_00.666,0,28.6,0,0.756,0,0,0,0.012, ,0,0,0,0,0, ,-7.6,-317.7,948.7,-0.8,1.6,-1.8,25,-7.6,-317.7,948.7,-0.8,1.6,-1.8,
2026_07_06_15_03_00.686,0,28.5,0,0.756,0,0,0,0.011, ,0,0,0,0,0, ,-7,-316.6,945.1,0,-1.9,-1.4,25,-7.58172,-317.666,948.59,-0.775625,1.49336,-1.78781,
2026_07_06_15_03_00.706,0,28.5,0,0.756,0,0,0,0.012, ,0,0,0,0,0, ,-3.4,-317.8,950,0.8,-4.2,-0.9,25,-7.43658,-317.638,948.527,-0.703985,1.2165,-1.74895,
2026_07_06_15_03_00.726,0,28.5,0,0.757,0,0,0,0.012, ,0,0,0,0,0, ,-2.6,-314.8,960.6,0.7,-3.6,-1.1,25,-7.16623,-317.557,948.94,-0.615383,0.904712,-1.70331,
2026_07_06_15_03_00.746,0,28.5,0,0.757,0,0,0,0.012, ,0,0,0,0,0, ,9.7,-312.2,973.9,-1.3,1.6,-1.8,25,-6.51321,-317.309,950.055,-0.596164,0.788644,-1.68787,
2026_07_06_15_03_00.765,0,28.5,0,0.758,0,0,0,0.012, ,0,0,0,0,0, ,-4.2,-317.2,948.3,-2.4,5.5,-2.1,25,-5.94873,-317.15,950.728,-0.67257,0.956914,-1.70384,
2026_07_06_15_03_00.785,0,28.5,0,0.757,0,0,0,0.013, ,0,0,0,0,0, ,-16.1,-318.3,931.5,-0.4,-0.5,-1.6,25,-6.20475,-317.187,950.069,-0.716898,1.05095,-1.71275,
2026_07_06_15_03_00.805,0,28.5,0,0.757,0,0,0,0.013, ,0,0,0,0,0, ,-4,-314.8,951.7,1,-4.9,-1.8,25,-6.43907,-317.148,949.553,-0.654931,0.822372,-1.71197,
2026_07_06_15_03_00.825,0,28.6,0,0.757,0,0,0,0.013, ,0,0,0,0,0, ,2.6,-313.5,964.9,0,-3.1,-1.8,25,-6.08934,-316.965,950.086,-0.584552,0.528509,-1.71734,
2026_07_06_15_03_00.845,0,28.4,0,0.757,0,0,0,0.012, ,0,0,0,0,0, ,11.1,-315.4,960.2,-0.9,0.1,-1.8,25,-5.30085,-316.812,950.845,-0.576353,0.404897,-1.72238,
2026_07_06_15_03_00.865,0,28.6,0,0.757,0,0,0,0.014, ,0,0,0,0,0, ,0.1,-313.7,961.5,-1.9,4.9,-1.5,25,-4.63658,-316.674,951.455,-0.626544,0.532567,-1.71796,
2026_07_06_15_03_00.885,0,28.6,0,0.756,0,0,0,0.013, ,0,0,0,0,0, ,-13,-318.7,937.2,-1.4,2.3,-1.3,25,-4.74709,-316.645,951.327,-0.688911,0.719489,-1.69859,
2026_07_06_15_03_00.905,0,28.5,0,0.758,0,0,0,0.013, ,0,0,0,0,0, ,-12.4,-319,937.3,-0.3,-0.5,-1.3,25,-5.23172,-316.78,950.469,-0.698727,0.730489,-1.6743,
2026_07_06_15_03_00.924,0,28.5,0,0.757,0,0,0,0.014, ,0,0,0,0,0, ,-7.2,-315.3,952.8,0.5,-3.1,-1.5,25,-5.5101,-316.802,950.139,-0.650055,0.576287,-1.65758,
2026_07_06_15_03_00.944,0,28.6,0,0.758,0,0,0,0.014, ,0,0,0,0,0, ,-2.5,-314.2,957.3,0,-2.9,-1.7,25,-5.46987,-316.677,950.438,-0.595208,0.358357,-1.65408,
2026_07_06_15_03_00.963,0,28.5,0,0.757,0,0,0,0.013, ,0,0,0,0,0, ,3,-316,952.8,-0.3,-2.4,-1.5,25,-5.12132,-316.581,950.719,-0.568078,0.175035,-1.65078,
2026_07_06_15_03_00.986,0,28.6,0,0.757,0,0,0,0.014, ,0,0,0,0,0, ,2.3,-314.2,961.5,-0.7,0.8,-1.1,25,-4.64775,-316.491,951.111,-0.563929,0.115619,-1.6294,
2026_07_06_15_03_01.003,0,28.6,0,0.757,0,0,0,0.013, ,0,0,0,0,0, ,-5.7,-315.7,951.5,-1.3,2.7,-1.9,25,-4.46812,-316.397,951.439,-0.590502,0.215214,-1.62152,
2026_07_06_15_03_01.023,0,28.6,0,0.758,0,0,0,0.013, ,0,0,0,0,0, ,-5.8,-316,948.7,-1.2,1.2,-1.8,25,-4.54624,-316.364,951.358,-0.63069,0.320928,-1.63544,
2026_07_06_15_03_01.043,0,28.5,0,0.758,0,0,0,0.014, ,0,0,0,0,0, ,-5.6,-318.8,942.9,0,-1.1,-1.5,25,-4.61655,-316.427,951.019,-0.62882,0.304418,-1.63633,
2026_07_06_15_03_01.063,0,28.6,0,0.757,0,0,0,0.015, ,0,0,0,0,0, ,-8.7,-313.5,953.7,0.3,-3.3,-1.3,25,-4.77093,-316.41,950.853,-0.581361,0.151805,-1.62193,
2026_07_06_15_03_01.083,0,28.6,0,0.757,0,0,0,0.014, ,0,0,0,0,0, ,0.2,-315.6,960.8,0,-2.1,-2.4,25,-4.73918,-316.297,951.243,-0.536794,-0.0219768,-1.63583,
2026_07_06_15_03_01.103,0,28.6,0,0.758,0,0,0,0.014, ,0,0,0,0,0, ,7.9,-315.4,963.1,-1.6,2.4,-2.2,25,-4.20359,-316.248,951.896,-0.552833,-0.0114969,-1.6763,
2026_07_06_15_03_01.122,0,28.6,0,0.756,0,0,0,0.014, ,0,0,0,0,0, ,-3.6,-319.3,941,-1.4,1.9,-1.7,25,-3.81642,-316.315,951.905,-0.610551,0.120219,-1.69298,
2026_07_06_15_03_01.142,0,28.7,0,0.758,0,0,0,0.014, ,0,0,0,0,0, ,-5.4,-317.2,945,0.4,-1.7,-1.2,25,-3.85808,-316.433,951.362,-0.603814,0.118987,-1.67817,
2026_07_06_15_03_01.162,0,28.6,0,0.758,0,0,0,0.014, ,0,0,0,0,0, ,-1.3,-314.9,960.8,0.3,-1.5,-1.2,25,-3.82712,-316.41,951.456,-0.545691,0.0142364,-1.64903,
2026_07_06_15_03_01.181,0,28.7,0,0.756,0,0,0,0.015, ,0,0,0,0,0, ,-4.2,-315,953.6,-0.8,-0.2,-1.5,25,-3.76148,-316.321,951.806,-0.527672,-0.038428,-1.63081,
2026_07_06_15_03_01.202,0,28.6,0,0.756,0,0,0,0.014, ,0,0,0,0,0, ,-1.7,-315.9,956.7,-0.8,1.1,-2.1,25,-3.71203,-316.268,952.01,-0.544267,-0.00866444,-1.64112,
2026_07_06_15_03_01.221,0,28.6,0,0.758,0,0,0,0.015, ,0,0,0,0,0, ,-4.2,-314,953.7,-1.3,1.9,-2.1,25,-3.66559,-316.187,952.204,-0.575085,0.0832698,-1.66908,
2026_07_06_15_03_01.242,0,28.6,0,0.758,0,0,0,0.015, ,0,0,0,0,0, ,-2.8,-316.5,944.5,-0.6,-0.3,-1.9,25,-3.6555,-316.13,952.015,-0.597932,0.126946,-1.68925,
2026_07_06_15_03_01.261,0,28.7,0,0.758,0,0,0,0.015, ,0,0,0,0,0, ,-3.4,-316.7,951.9,0,-1.6,-1.3,25,-3.62165,-316.159,951.783,-0.579777,0.0613192,-1.68381,
2026_07_06_15_03_01.281,0,28.7,0,0.758,0,0,0,0.014, ,0,0,0,0,0, ,-6.2,-313.5,953.2,-0.2,-2,-1.4,25,-3.69346,-316.094,951.829,-0.55054,-0.052105,-1.66347,
2026_07_06_15_03_01.301,0,28.6,0,0.756,0,0,0,0.015, ,0,0,0,0,0, ,-3.9,-316.2,953.6,0,-2.3,-1.7,25,-3.77612,-316.019,951.925,-0.523085,-0.179945,-1.65655,
2026_07_06_15_03_01.321,0,28.7,0,0.758,0,0,0,0.016, ,0,0,0,0,0, ,6.3,-313.8,966.4,-1,0.9,-2,25,-3.47289,-315.956,952.417,-0.521679,-0.211636,-1.66834,
2026_07_06_15_03_01.341,0,28.6,0,0.758,0,0,0,0.015, ,0,0,0,0,0, ,-3.1,-316.1,947.5,-1.6,2.7,-2,25,-3.16376,-315.895,952.693,-0.569108,-0.0890522,-1.68855,
2026_07_06_15_03_01.360,0,28.6,0,0.76,0,0,0,0.016, ,0,0,0,0,0, ,-6.1,-318.2,939.9,-0.2,-0.6,-1.4,25,-3.25128,-315.972,952.145,-0.589271,-0.0196412,-1.68925,
2026_07_06_15_03_01.380,0,28.7,0,0.756,0,0,0,0.016, ,0,0,0,0,0, ,-6.8,-314.2,955,0.4,-2.2,-1.6,25,-3.4462,-315.986,951.859,-0.547269,-0.103757,-1.67772,
2026_07_06_15_03_01.400,0,28.7,0,0.756,0,0,0,0.015, ,0,0,0,0,0, ,-6.3,-314.8,956.5,-0.3,-1.9,-1.8,25,-3.63534,-315.895,952.096,-0.510873,-0.222356,-1.67908,
2026_07_06_15_03_01.420,0,28.7,0,0.759,0,0,0,0.015, ,0,0,0,0,0, ,2.6,-315.3,956.7,-0.4,-1.6,-1.9,25,-3.52655,-315.844,952.371,-0.50107,-0.315447,-1.68949,
2026_07_06_15_03_01.440,0,28.6,0,0.759,0,0,0,0.016, ,0,0,0,0,0, ,2.3,-313.5,963.2,-1.5,2.8,-2,25,-3.16235,-315.756,952.833,-0.528426,-0.259662,-1.70537,
2026_07_06_15_03_01.459,0,28.8,0,0.76,0,0,0,0.017, ,0,0,0,0,0, ,-6.7,-317.3,942.9,-1.9,2.8,-2.1,25,-3.10371,-315.734,952.846,-0.599819,-0.0732136,-1.72637,
2026_07_06_15_03_01.479,0,28.8,0,0.759,0,0,0,0.015, ,0,0,0,0,0, ,-5.2,-320.3,938.8,0.1,-2,-1.5,25,-3.27715,-315.921,952.115,-0.618111,-0.0443772,-1.73085,
2026_07_06_15_03_01.499,0,28.8,0,0.758,0,0,0,0.015, ,0,0,0,0,0, ,-0.9,-313.9,957.5,0.8,-3.9,-0.9,25,-3.26331,-315.993,951.873,-0.553023,-0.221439,-1.69851,
2026_07_06_15_03_01.525,0,28.8,0,0.759,0,0,0,0.015, ,0,0,0,0,0, ,-2,-311.4,963.1,-0.3,-1.3,-1.6,25,-3.15281,-315.789,952.387,-0.504089,-0.366382,-1.67117,
2026_07_06_15_03_01.539,0,28.8,0,0.759,0,0,0,0.015, ,0,0,0,0,0, ,2.6,-313.7,964.3,-1.6,2.7,-2.3,25,-2.94241,-315.592,953.076,-0.531262,-0.301399,-1.68817,
2026_07_06_15_03_01.559,0,28.8,0,0.76,0,0,0,0.016, ,0,0,0,0,0, ,-3.6,-317.8,944.2,-1.8,3.3,-1.8,25,-2.79357,-315.601,953.148,-0.602482,-0.10022,-1.71021,
2026_07_06_15_03_01.578,0,28.8,0,0.758,0,0,0,0.016, ,0,0,0,0,0, ,-11.8,-319.2,937.5,0,-1,-1.3,25,-3.09256,-315.778,952.398,-0.620612,-0.0240352,-1.70045,
2026_07_06_15_03_01.598,0,28.8,0,0.759,0,0,0,0.016, ,0,0,0,0,0, ,-8.1,-314,955.6,0.6,-3.3,-1.7,25,-3.51043,-315.828,952.042,-0.564512,-0.153586,-1.68824,
2026_07_06_15_03_01.618,0,28.9,0,0.76,0,0,0,0.016, ,0,0,0,0,0, ,-2.3,-313.7,960.5,-0.5,-2.2,-1.9,25,-3.61339,-315.707,952.408,-0.527065,-0.311805,-1.69505,
2026_07_06_15_03_01.637,0,28.8,0,0.759,0,0,0,0.015, ,0,0,0,0,0, ,4.7,-318.2,951.4,-0.8,-0.1,-1.9,25,-3.32008,-315.722,952.624,-0.534557,-0.362883,-1.70754,
2026_07_06_15_03_01.663,0,28.8,0,0.76,0,0,0,0.016, ,0,0,0,0,0, ,-0.1,-316.6,949.3,-0.5,0,-1.4,25,-2.9776,-315.824,952.485,-0.541591,-0.343816,-1.70403,
2026_07_06_15_03_01.678,0,28.9,0,0.759,0,0,0,0.016, ,0,0,0,0,0, ,-1.8,-307.3,963.2,-0.7,1.4,-1.8,25,-2.85404,-315.588,952.715,-0.545151,-0.280209,-1.69769,
2026_07_06_15_03_01.698,0,28.9,0,0.76,0,0,0,0.016, ,0,0,0,0,0, ,-4.1,-317.1,950.3,-1.4,2.7,-2.1,25,-2.85989,-315.382,952.961,-0.575915,-0.138212,-1.71307,
2026_07_06_15_03_01.717,0,29.1,0,0.76,0,0,0,0.016, ,0,0,0,0,0, ,-9.7,-320.1,940,-0.4,-0.9,-1.8,25,-3.10609,-315.578,952.485,-0.595664,-0.0749457,-1.7275,
2026_07_06_15_03_01.737,0,28.9,0,0.759,0,0,0,0.014, ,0,0,0,0,0, ,-4.1,-314.5,952.3,0.4,-3.7,-1.6,25,-3.33728,-315.683,952.099,-0.559366,-0.210535,-1.72583,
2026_07_06_15_03_01.756,0,28.9,0,0.758,0,0,0,0.016, ,0,0,0,0,0, ,0,-312.5,967.1,-1,-0.8,-2.2,25,-3.25883,-315.55,952.562,-0.54356,-0.334815,-1.73644,
2026_07_06_15_03_01.777,0,28.9,0,0.759,0,0,0,0.016, ,0,0,0,0,0, ,0.8,-318.9,947.1,-1.5,0.6,-2.3,25,-3.03587,-315.559,952.838,-0.586609,-0.320506,-1.76774,
2026_07_06_15_03_01.802,0,29.1,0,0.76,0,0,0,0.016, ,0,0,0,0,0, ,3.1,-312.8,949.9,-0.4,0,-1.6,25,-2.73205,-315.577,952.574,-0.608753,-0.282694,-1.77884,
2026_07_06_15_03_01.817,0,28.9,0,0.759,0,0,0,0.015, ,0,0,0,0,0, ,-3.6,-319.8,949.9,-0.3,-1,-1.3,25,-2.5808,-315.621,952.411,-0.592985,-0.295936,-1.7588,
2026_07_06_15_03_01.836,0,28.9,0,0.758,0,0,0,0.016, ,0,0,0,0,0, ,-5.6,-315.9,952.3,-0.1,-1.4,-1.3,25,-2.70384,-315.757,952.331,-0.569038,-0.351027,-1.73085,
2026_07_06_15_03_01.856,0,28.9,0,0.761,0,0,0,0.016, ,0,0,0,0,0, ,-5.3,-312.3,955.3,-0.1,-1.1,-1.9,25,-2.87119,-315.656,952.421,-0.540456,-0.405808,-1.72287,
2026_07_06_15_03_01.876,0,28.9,0,0.761,0,0,0,0.016, ,0,0,0,0,0, ,-0.2,-317.9,957.2,-0.6,-1,-1.9,25,-2.8638,-315.622,952.654,-0.52885,-0.445064,-1.73367,
2026_07_06_15_03_01.896,0,28.9,0,0.76,0,0,0,0.017, ,0,0,0,0,0, ,3,-314.8,960.9,-1.4,1.7,-1.7,25,-2.60398,-315.666,953.044,-0.557561,-0.396615,-1.73771,
2026_07_06_15_03_01.915,0,29.1,0,0.758,0,0,0,0.017, ,0,0,0,0,0, ,-9.6,-317,942.5,-1.2,1.1,-1.8,25,-2.64639,-315.68,952.962,-0.602803,-0.287133,-1.73846,
2026_07_06_15_03_01.936,0,29.1,0,0.758,0,0,0,0.015, ,0,0,0,0,0, ,-1.3,-318.2,940.1,0.1,-1.8,-1.7,25,-2.81724,-315.797,952.251,-0.599585,-0.290964,-1.73916,
2026_07_06_15_03_01.955,0,29.1,0,0.758,0,0,0,0.015, ,0,0,0,0,0, ,2.1,-315.7,956.1,0.8,-2.7,-1.1,25,-2.62119,-315.868,951.998,-0.535626,-0.410343,-1.71849,
2026_07_06_15_03_01.975,0,29.1,0,0.759,0,0,0,0.015, ,0,0,0,0,0, ,-3.9,-314.3,961.3,-0.1,-0.6,-1.6,25,-2.5163,-315.815,952.407,-0.481658,-0.485885,-1.69604,
2026_07_06_15_03_01.994,0,29.1,0,0.759,0,0,0,0.015, ,0,0,0,0,0, ,-3,-313.7,960.5,-1.3,1.5,-2.4,25,-2.5732,-315.704,952.924,-0.494964,-0.428854,-1.71456,
2026_07_06_15_03_02.015,0,29.1,0,0.758,0,0,0,0.016, ,0,0,0,0,0, ,-2.8,-315.7,954.2,-1.8,2.9,-2.5,25,-2.59311,-315.643,953.194,-0.559255,-0.268658,-1.75938,
2026_07_06_15_03_02.034,0,29.2,0,0.759,0,0,0,0.016, ,0,0,0,0,0, ,-1.9,-318.7,940.1,-1.1,0.9,-2.2,25,-2.5783,-315.738,952.826,-0.613535,-0.136506,-1.79537,
2026_07_06_15_03_02.054,0,29.1,0,0.76,0,0,0,0.015, ,0,0,0,0,0, ,-2,-317.1,947.5,0.3,-2.5,-1.1,25,-2.54001,-315.87,952.276,-0.600522,-0.176937,-1.78651,
2026_07_06_15_03_02.074,0,29.2,0,0.759,0,0,0,0.016, ,0,0,0,0,0, ,-4.6,-313.3,957.2,0.3,-2.5,-1.3,25,-2.58632,-315.829,952.28,-0.545647,-0.318499,-1.75077,
2026_07_06_15_03_02.094,0,29.1,0,0.759,0,0,0,0.015, ,0,0,0,0,0, ,-0.9,-312.6,964.7,-0.5,0,-1.9,25,-2.5963,-315.653,952.808,-0.51849,-0.375262,-1.74158,
2026_07_06_15_03_02.113,0,29.2,0,0.758,0,0,0,0.016, ,0,0,0,0,0, ,2.8,-316.4,953.6,-1.6,2.6,-2,25,-2.38019,-315.583,953.195,-0.550879,-0.273176,-1.75428,
2026_07_06_15_03_02.133,0,29.1,0,0.759,0,0,0,0.015, ,0,0,0,0,0, ,-4.2,-317.5,943.9,-0.9,0.8,-1.3,25,-2.27781,-315.666,952.924,-0.593482,-0.152936,-1.74793,
2026_07_06_15_03_02.153,0,29.2,0,0.759,0,0,0,0.016, ,0,0,0,0,0, ,-8.1,-316.1,950.3,0.1,-1.6,-1.2,25,-2.51377,-315.735,952.569,-0.581691,-0.167991,-1.71758,
2026_07_06_15_03_02.173,0,29.2,0,0.76,0,0,0,0.015, ,0,0,0,0,0, ,-7.3,-314.4,954.4,0,-2.2,-1.6,25,-2.82981,-315.706,952.556,-0.543198,-0.273535,-1.69823,
2026_07_06_15_03_02.193,0,29.2,0,0.758,0,0,0,0.015, ,0,0,0,0,0, ,-3.9,-316.4,952.6,-0.1,-2.5,-1.8,25,-2.99861,-315.687,952.613,-0.513144,-0.40007,-1.69834,
2026_07_06_15_03_02.213,0,29.3,0,0.76,0,0,0,0.016, ,0,0,0,0,0, ,0.7,-313.9,958.4,-0.3,-1.5,-1.9,25,-2.91339,-315.655,952.789,-0.494061,-0.497566,-1.70758,
2026_07_06_15_03_02.233,0,29.3,0,0.759,0,0,0,0.015, ,0,0,0,0,0, ,3,-315.6,960.6,-1.3,1.6,-2.2,25,-2.62312,-315.599,953.198,-0.512705,-0.464198,-1.72845,
2026_07_06_15_03_02.252,0,29.3,0,0.759,0,0,0,0.015, ,0,0,0,0,0, ,-3.5,-316,944.4,-1.2,1.1,-1.4,25,-2.47851,-315.612,953.156,-0.557633,-0.353646,-1.73281,
2026_07_06_15_03_02.272,0,29.3,0,0.759,0,0,0,0.015, ,0,0,0,0,0, ,-7,-316.1,947,0.1,-1.6,-1.4,25,-2.64739,-315.638,952.701,-0.557168,-0.34733,-1.71253,
2026_07_06_15_03_02.292,0,29.2,0,0.759,0,0,0,0.015, ,0,0,0,0,0, ,-2.8,-315.5,958,0.1,-2.6,-1.5,25,-2.78466,-315.648,952.689,-0.517122,-0.454133,-1.69653,
2026_07_06_15_03_02.312,0,29.3,0,0.758,0,0,0,0.016, ,0,0,0,0,0, ,-2.8,-315.5,958.7,-0.5,-0.8,-1.9,25,-2.7856,-315.639,953.034,-0.497797,-0.530053,-1.69674,
2026_07_06_15_03_02.332,0,29.3,0,0.76,0,0,0,0.015, ,0,0,0,0,0, ,2.6,-315,958.6,-0.9,0.9,-2.3,25,-2.62194,-315.615,953.376,-0.510119,-0.494706,-1.72131,
2026_07_06_15_03_02.352,0,29.2,0,0.759,0,0,0,0.015, ,0,0,0,0,0, ,-3.4,-315,950.1,-1.4,1.5,-1.9,25,-2.48654,-315.578,953.436,-0.549112,-0.391435,-1.74439,
2026_07_06_15_03_02.375,0,29.4,0,0.758,0,0,0,0.016, ,0,0,0,0,0, ,-4.8,-316.8,943.9,-0.3,-1,-1.6,25,-2.58486,-315.598,953.043,-0.567447,-0.352348,-1.74473,
2026_07_06_15_03_02.391,0,29.4,0,0.759,0,0,0,0.015, ,0,0,0,0,0, ,-0.7,-315.3,955,0,-1.8,-1.6,25,-2.59493,-315.625,952.824,-0.542009,-0.416189,-1.73591,
2026_07_06_15_03_02.411,0,29.3,0,0.76,0,0,0,0.015, ,0,0,0,0,0, ,-2.4,-314.6,955.6,-0.4,-0.6,-1.8,25,-2.53125,-315.584,952.975,-0.521168,-0.463952,-1.73372,
2026_07_06_15_03_02.431,0,29.4,0,0.758,0,0,0,0.016, ,0,0,0,0,0, ,-2.5,-315.9,954.2,-0.5,0.4,-1.9,25,-2.5263,-315.564,953.093,-0.516831,-0.441774,-1.74081,
2026_07_06_15_03_02.450,0,29.4,0,0.759,0,0,0,0.015, ,0,0,0,0,0, ,-1.7,-314,953.8,-0.6,0.3,-1.8,25,-2.50032,-315.526,953.148,-0.518852,-0.393525,-1.74746,
2026_07_06_15_03_02.471,0,29.4,0,0.758,0,0,0,0.015, ,0,0,0,0,0, ,-2.8,-315.5,950.8,-0.7,-0.2,-1.9,25,-2.48507,-315.479,953.096,-0.526844,-0.366498,-1.75371,
2026_07_06_15_03_02.490,0,29.4,0,0.76,0,0,0,0.015, ,0,0,0,0,0, ,-2.5,-314.6,949.5,-0.1,-1.3,-1.5,25,-2.49512,-315.453,952.917,-0.519115,-0.389868,-1.75044,
2026_07_06_15_03_02.510,0,29.5,0,0.759,0,0,0,0.015, ,0,0,0,0,0, ,-2,-313.4,960.4,-0.2,-0.7,-1.7,25,-2.48018,-315.364,953.041,-0.496622,-0.427048,-1.74127,
2026_07_06_15_03_02.530,0,29.4,0,0.759,0,0,0,0.014, ,0,0,0,0,0, ,-0.2,-315,954.3,-1,0.5,-1.7,25,-2.39608,-315.293,953.303,-0.502921,-0.407118,-1.73876,
2026_07_06_15_03_02.550,0,29.5,0,0.76,0,0,0,0.015, ,0,0,0,0,0, ,-5.2,-318.2,946.4,-0.5,0.5,-1.8,25,-2.4146,-315.373,953.123,-0.517978,-0.351841,-1.73944,
2026_07_06_15_03_02.570,0,29.4,0,0.759,0,0,0,0.014, ,0,0,0,0,0, ,-7.4,-315.1,953.1,0,-1.5,-1.7,25,-2.65136,-315.451,952.918,-0.501648,-0.360869,-1.74009,
2026_07_06_15_03_02.589,0,29.5,0,0.759,0,0,0,0.015, ,0,0,0,0,0, ,-3.2,-314,956,-0.4,-1.8,-2.2,25,-2.81277,-315.396,953.017,-0.483266,-0.439425,-1.75288,
2026_07_06_15_03_02.609,0,29.5,0,0.76,0,0,0,0.014, ,0,0,0,0,0, ,2,-314.5,954.2,-0.4,-0.9,-2,25,-2.67792,-315.326,953.144,-0.478192,-0.494914,-1.77403,
2026_07_06_15_03_02.629,0,29.5,0,0.76,0,0,0,0.015, ,0,0,0,0,0, ,5.4,-314.6,958.4,-0.6,0.1,-1.6,25,-2.28927,-315.279,953.336,-0.479521,-0.48913,-1.77561,
2026_07_06_15_03_02.649,0,29.5,0,0.758,0,0,0,0.015, ,0,0,0,0,0, ,1.9,-315,956.6,-1.4,2.2,-1.6,25,-1.92735,-315.25,953.59,-0.511238,-0.389245,-1.76491,
2026_07_06_15_03_02.669,0,29.4,0,0.759,0,0,0,0.015, ,0,0,0,0,0, ,-7,-315.7,944.7,-1,1.6,-1.5,25,-1.96529,-315.256,953.411,-0.553209,-0.249744,-1.75181,
2026_07_06_15_03_02.688,0,29.5,0,0.759,0,0,0,0.015, ,0,0,0,0,0, ,-11.3,-315.5,947.3,-0.1,-1.8,-1.7,25,-2.40311,-315.277,952.959,-0.553014,-0.240619,-1.74256,
2026_07_06_15_03_02.708,0,29.5,0,0.759,0,0,0,0.015, ,0,0,0,0,0, ,-2.4,-313.1,955.5,-0.1,-3,-1.9,25,-2.67409,-315.217,952.864,-0.525408,-0.372207,-1.74606,
2026_07_06_15_03_02.728,0,29.6,0,0.76,0,0,0,0.015, ,0,0,0,0,0, ,2.6,-313.4,959.4,-0.7,-1.4,-2.2,25,-2.50504,-315.097,953.144,-0.517766,-0.483588,-1.76458,
2026_07_06_15_03_02.748,0,29.6,0,0.76,0,0,0,0.014, ,0,0,0,0,0, ,3.4,-314.8,955.2,-1.1,-0.9,-1.6,25,-2.16958,-315.037,953.397,-0.541058,-0.524197,-1.77284,
2026_07_06_15_03_02.767,0,29.6,0,0.759,0,0,0,0.014, ,0,0,0,0,0, ,-0.8,-312.1,953.1,-1.1,-0.6,-1.5,25,-1.95815,-314.94,953.443,-0.575119,-0.537957,-1.75926,
2026_07_06_15_03_02.787,0,29.5,0,0.76,0,0,0,0.014, ,0,0,0,0,0, ,-7.9,-300,953,-0.4,-0.5,-2,25,-2.10391,-314.398,953.419,-0.585776,-0.538691,-1.75869,
2026_07_06_15_03_02.808,0,29.5,0,0.76,0,0,0,0.015, ,0,0,0,0,0, ,1.8,-318.4,950.3,-0.3,0,-2.7,25,-2.16156,-314.081,953.311,-0.571408,-0.521099,-1.79473,
2026_07_06_15_03_02.828,0,29.5,0,0.76,0,0,0,0.015, ,0,0,0,0,0, ,1.2,-325.6,946.2,-0.3,-0.8,-1.6,25,-1.93843,-314.564,953.003,-0.554869,-0.513719,-1.81638,
2026_07_06_15_03_02.848,0,29.5,0,0.759,0,0,0,0.015, ,0,0,0,0,0, ,-0.1,-315.9,954.1,0,-0.7,-1.3,25,-1.78679,-314.941,952.829,-0.530197,-0.528118,-1.79405,
2026_07_06_15_03_02.867,0,29.6,0,0.759,0,0,0,0.015, ,0,0,0,0,0, ,-3,-313.4,956.7,-0.5,0.3,-2.1,25,-1.77236,-314.923,952.986,-0.513123,-0.508123,-1.78832,
2026_07_06_15_03_02.887,0,29.5,0,0.76,0,0,0,0.014, ,0,0,0,0,0, ,-1.5,-317.8,949.3,-0.5,0.6,-2.1,25,-1.80147,-314.964,952.986,-0.512323,-0.449737,-1.80731,
2026_07_06_15_03_02.907,0,29.6,0,0.759,0,0,0,0.015, ,0,0,0,0,0, ,-2.6,-316.7,952.5,-0.2,-0.3,-2,25,-1.81661,-315.104,952.859,-0.502432,-0.413191,-1.8221,
2026_07_06_15_03_02.927,0,29.5,0,0.76,0,0,0,0.014, ,0,0,0,0,0, ,-1,-323.4,954.8,-0.7,-0.2,-1.9,25,-1.8156,-315.405,952.908,-0.499237,-0.403247,-1.82989,
2026_07_06_15_03_02.947,0,29.6,0,0.76,0,0,0,0.015, ,0,0,0,0,0, ,-3.1,-314.6,949.9,-0.6,-0.9,-1.6,25,-1.82989,-315.624,952.874,-0.508424,-0.412189,-1.82503,
2026_07_06_15_03_02.967,0,29.6,0,0.759,0,0,0,0.015, ,0,0,0,0,0, ,2.3,-313.7,953.4,-0.3,-0.8,-2.3,25,-1.74275,-315.534,952.799,-0.504864,-0.438868,-1.83264,
2026_07_06_15_03_02.986,0,29.6,0,0.759,0,0,0,0.015, ,0,0,0,0,0, ,3.2,-314.9,953,-0.3,0,-2.1,25,-1.46897,-315.459,952.823,-0.49238,-0.4365,-1.85503,
2026_07_06_15_03_03.006,0,29.6,0,0.761,0,0,0,0.015, ,0,0,0,0,0, ,2.8,-313.8,954.2,-0.1,0.5,-1.7,25,-1.19665,-315.392,952.871,-0.474563,-0.394666,-1.85777,
2026_07_06_15_03_03.026,0,29.6,0,0.759,0,0,0,0.015, ,0,0,0,0,0, ,-3,-313.1,955,-0.4,0.5,-1.6,25,-1.12982,-315.273,952.976,-0.460879,-0.340148,-1.84511,
2026_07_06_15_03_03.046,0,29.6,0,0.759,0,0,0,0.015, ,0,0,0,0,0, ,-6.3,-313.4,950.1,-0.4,-0.6,-1.6,25,-1.34433,-315.15,952.95,-0.457169,-0.322467,-1.83017,
2026_07_06_15_03_03.065,0,29.6,0,0.759,0,0,0,0.015, ,0,0,0,0,0, ,-3.7,-314,953.1,-0.1,-1.8,-1.7,25,-1.5671,-315.062,952.868,-0.444544,-0.375941,-1.81919,
2026_07_06_15_03_03.085,0,29.6,0,0.76,0,0,0,0.015, ,0,0,0,0,0, ,-0.8,-314.9,957.3,-0.5,-1.1,-2,25,-1.60871,-315.024,953.01,-0.435736,-0.441392,-1.82107,
2026_07_06_15_03_03.107,0,29.6,0,0.759,0,0,0,0.015, ,0,0,0,0,0, ,0.4,-314.6,955.6,-1.1,0.3,-2.1,25,-1.52287,-315.008,953.22,-0.457934,-0.43887,-1.83502,
2026_07_06_15_03_03.125,0,29.6,0,0.758,0,0,0,0.015, ,0,0,0,0,0, ,-0.4,-316.2,948.9,-0.8,-0.6,-2,25,-1.43007,-315.031,953.161,-0.487919,-0.421267,-1.84812,
2026_07_06_15_03_03.145,0,29.6,0,0.758,0,0,0,0.015, ,0,0,0,0,0, ,4.5,-314.6,952.7,-0.6,-0.5,-1.8,25,-1.218,-315.054,953.017,-0.500843,-0.429111,-1.85128,
2026_07_06_15_03_03.165,0,29.6,0,0.758,0,0,0,0.015, ,0,0,0,0,0, ,-0.7,-315.4,953.6,-0.6,0.5,-1.7,25,-1.028,-315.051,953.025,-0.506885,-0.402962,-1.84511,
2026_07_06_15_03_03.184,0,29.6,0,0.759,0,0,0,0.015, ,0,0,0,0,0, ,-3.2,-315.9,949.4,-0.5,-1.2,-1.4,25,-1.08418,-315.087,952.932,-0.509512,-0.399735,-1.82713,
2026_07_06_15_03_03.204,0,29.6,0,0.76,0,0,0,0.015, ,0,0,0,0,0, ,-2.3,-315.6,950.9,-0.2,-1.7,-1.6,25,-1.18569,-315.128,952.762,-0.499792,-0.463735,-1.80719,
2026_07_06_15_03_03.224,0,29.6,0,0.759,0,0,0,0.015, ,0,0,0,0,0, ,0,-313.3,956.1,-0.2,-0.7,-2,25,-1.18352,-315.086,952.807,-0.481523,-0.508602,-1.80675,
2026_07_06_15_03_03.244,0,29.6,0,0.758,0,0,0,0.015, ,0,0,0,0,0, ,1,-315.9,953.6,-0.5,-0.2,-1.9,25,-1.08093,-315.057,952.932,-0.473509,-0.50503,-1.81548,
2026_07_06_15_03_03.264,0,29.6,0,0.758,0,0,0,0.015, ,0,0,0,0,0, ,-1.9,-316.4,950.4,-0.2,-1,-1.6,25,-1.04248,-315.123,952.875,-0.465982,-0.510818,-1.81149,
2026_07_06_15_03_03.283,0,29.7,0,0.759,0,0,0,0.015, ,0,0,0,0,0, ,-0.8,-311.4,958.9,-0.7,-0.3,-2.1,25,-1.06122,-315.049,952.983,-0.465008,-0.519299,-1.81384,
2026_07_06_15_03_03.303,0,29.6,0,0.76,0,0,0,0.014, ,0,0,0,0,0, ,0,-314.4,951.6,-0.9,-0.3,-1.8,25,-1.02093,-314.918,953.121,-0.485422,-0.505936,-1.82214,
2026_07_06_15_03_03.323,0,29.6,0,0.759,0,0,0,0.015, ,0,0,0,0,0, ,1.5,-316.6,951.7,-0.3,-0.9,-1.4,25,-0.913013,-314.953,953.032,-0.492404,-0.511668,-1.8086,
2026_07_06_15_03_03.343,0,29.7,0,0.759,0,0,0,0.015, ,0,0,0,0,0, ,-0.8,-313.2,959.1,-0.7,0,-1.8,25,-0.836048,-314.95,953.176,-0.492867,-0.50791,-1.79589,
2026_07_06_15_03_03.362,0,29.8,0,0.759,0,0,0,0.014, ,0,0,0,0,0, ,-2,-315.1,949.9,-0.9,0.6,-2.2,25,-0.870414,-314.901,953.257,-0.511583,-0.458678,-1.80833,
2026_07_06_15_03_03.382,0,29.7,0,0.76,0,0,0,0.014, ,0,0,0,0,0, ,-2.5,-316.4,947.2,-0.3,-1,-2.1,25,-0.954482,-314.953,952.97,-0.516971,-0.442915,-1.82915,
2026_07_06_15_03_03.403,0,29.7,0,0.76,0,0,0,0.015, ,0,0,0,0,0, ,2.8,-315.1,955.2,-0.1,-1.8,-1.9,25,-0.887178,-315.002,952.862,-0.497655,-0.501237,-1.83956,
2026_07_06_15_03_03.423,0,29.7,0,0.759,0,0,0,0.015, ,0,0,0,0,0, ,0.6,-313.2,957.2,-0.7,-0.5,-2,25,-0.729522,-314.95,953.065,-0.491705,-0.540771,-1.84629,
2026_07_06_15_03_03.442,0,29.8,0,0.76,0,0,0,0.015, ,0,0,0,0,0, ,-2.4,-313.4,953.3,-1.1,-0.3,-2.3,25,-0.73991,-314.849,953.199,-0.516585,-0.532193,-1.8648,
2026_07_06_15_03_03.462,0,29.9,0,0.759,0,0,0,0.014, ,0,0,0,0,0, ,0.1,-319,953.8,-0.7,-0.8,-2.5,25,-0.7649,-314.931,953.22,-0.539949,-0.533278,-1.89741,
2026_07_06_15_03_03.482,0,29.8,0,0.759,0,0,0,0.013, ,0,0,0,0,0, ,4.8,-312.8,962.2,-1.4,-1.1,-2.3,25,-0.568992,-314.99,953.511,-0.571031,-0.558672,-1.92804,
2026_07_06_15_03_03.502,0,29.7,0,0.759,0,0,0,0.014, ,0,0,0,0,0, ,6.5,-316.2,949.5,-1.6,0.9,-2.3,25,-0.190022,-314.961,953.654,-0.62764,-0.530722,-1.9507,
2026_07_06_15_03_03.522,0,29.7,0,0.76,0,0,0,0.015, ,0,0,0,0,0, ,-6.3,-311,942.7,0,0.7,-2.3,25,-0.172349,-314.878,953.193,-0.638143,-0.449631,-1.97199,
2026_07_06_15_03_03.542,0,29.8,0,0.76,0,0,0,0.015, ,0,0,0,0,0, ,8.1,-320.8,950.6,-0.1,-2.6,-1.7,25,-0.107003,-314.94,952.795,-0.602303,-0.480122,-1.9737,
2026_07_06_15_03_03.561,0,29.8,0,0.76,0,0,0,0.014, ,0,0,0,0,0, ,-6.4,-313.2,957.7,-0.6,-1.6,-1.7,25,-0.0486855,-315.066,952.877,-0.586928,-0.578833,-1.95702,
2026_07_06_15_03_03.581,0,29.8,0,0.76,0,0,0,0.014, ,0,0,0,0,0, ,1.4,-314.9,950.6,-0.4,-1.2,-2.6,25,-0.198062,-315.004,952.955,-0.581631,-0.628873,-1.96878,
2026_07_06_15_03_03.601,0,29.9,0,0.76,0,0,0,0.014, ,0,0,0,0,0, ,10.1,-316.2,953.8,-0.4,-1.1,-1.9,25,0.164398,-315.037,952.909,-0.570563,-0.660629,-1.98591,
2026_07_06_15_03_03.620,0,29.9,0,0.759,0,0,0,0.013, ,0,0,0,0,0, ,7,-315.6,955.3,-0.5,0.1,-1.8,25,0.675395,-315.09,953.009,-0.563216,-0.650841,-1.97763,
2026_07_06_15_03_03.641,0,29.8,0,0.759,0,0,0,0.013, ,0,0,0,0,0, ,7.9,-317,949.3,-0.6,0.5,-1.7,25,1.08822,-315.163,952.966,-0.562411,-0.592899,-1.96376,
2026_07_06_15_03_03.660,0,29.8,0,0.759,0,0,0,0.014, ,0,0,0,0,0, ,-1.7,-315.3,949.3,0,-0.3,-1.2,25,1.21082,-315.223,952.742,-0.54642,-0.550676,-1.93245,
2026_07_06_15_03_03.680,0,29.9,0,0.759,0,0,0,0.014, ,0,0,0,0,0, ,-6.3,-312.5,956.1,-0.1,-1.2,-1.7,25,0.893281,-315.143,952.74,-0.516169,-0.562822,-1.90305,
2026_07_06_15_03_03.699,0,29.9,0,0.758,0,0,0,0.013, ,0,0,0,0,0, ,5.9,-313.2,960.2,-0.7,0,-2.5,25,0.826659,-315.003,953.069,-0.50909,-0.565087,-1.91505,
2026_07_06_15_03_03.719,0,29.9,0,0.758,0,0,0,0.013, ,0,0,0,0,0, ,5.6,-316.2,948.9,-1.2,1,-2,25,1.12668,-314.985,953.16,-0.535958,-0.500184,-1.93547,
2026_07_06_15_03_03.739,0,29.9,0,0.76,0,0,0,0.013, ,0,0,0,0,0, ,6.4,-315.6,947.6,-0.4,0,-1.6,25,1.42364,-315.04,952.86,-0.552048,-0.439235,-1.92721,
2026_07_06_15_03_03.759,0,29.9,0,0.76,0,0,0,0.013, ,0,0,0,0,0, ,3.4,-316.1,955.2,0,-1.1,-0.8,25,1.63548,-315.09,952.771,-0.530595,-0.445985,-1.8829,
2026_07_06_15_03_03.779,0,29.9,0,0.759,0,0,0,0.013, ,0,0,0,0,0, ,-2.6,-313.4,955.5,-0.6,-0.4,-1.2,25,1.5602,-315.069,952.929,-0.516544,-0.464511,-1.82909,
2026_07_06_15_03_03.799,0,29.9,0,0.76,0,0,0,0.013, ,0,0,0,0,0, ,-0.8,-314.4,950.9,-0.5,0,-2,25,1.36153,-314.998,952.945,-0.518582,-0.448392,-1.81513,
2026_07_06_15_03_03.818,0,30,0,0.759,0,0,0,0.013, ,0,0,0,0,0, ,2.1,-315.7,953,-0.6,-1,-2,25,1.31817,-315.001,952.884,-0.520497,-0.451537,-1.8264,
2026_07_06_15_03_03.839,0,29.9,0,0.758,0,0,0,0.013, ,0,0,0,0,0, ,3.4,-315.9,953.4,-0.5,-1.1,-2,25,1.40542,-315.05,952.904,-0.522295,-0.488006,-1.83698,
2026_07_06_15_03_03.858,0,30,0,0.759,0,0,0,0, ,0,0,0,0,0, ,1.7,-314.2,952.8,-0.4,-0.7,-2,25,1.47517,-315.05,952.916,-0.517889,-0.513112,-1.84691,
2026_07_06_15_03_03.878,0,30,0,0.76,0,0,0,0, ,0,0,0,0,0, ,3.5,-317.7,951.7,-0.3,-1.5,-2,25,1.54371,-315.105,952.875,-0.507658,-0.548875,-1.85624,
2026_07_06_15_03_03.898,0,30,0,0.758,0,0,0,0, ,0,0,0,0,0, ,2.4,-314.8,956,-0.2,-1.6,-1.5,25,1.62941,-315.174,952.935,-0.491957,-0.609881,-1.84977,
2026_07_06_15_03_03.918,0,30,0,0.759,0,0,0,0, ,0,0,0,0,0, ,0.1,-314.3,956.4,-0.9,-0.5,-2.2,25,1.60629,-315.136,953.134,-0.495494,-0.636701,-1.84978,
2026_07_06_15_03_03.937,0,30.1,0,0.759,0,0,0,0, ,0,0,0,0,0, ,6.8,-315.6,950.4,-0.8,-0.5,-2.3,25,1.71864,-315.125,953.15,-0.517097,-0.628371,-1.87417,
2026_07_06_15_03_03.957,0,30,0,0.76,0,0,0,0, ,0,0,0,0,0, ,7.2,-316.8,950.1,-0.5,-0.8,-2,25,2.04047,-315.19,952.973,-0.525196,-0.629689,-1.89098,
2026_07_06_15_03_03.977,0,30,0,0.76,0,0,0,0, ,0,0,0,0,0, ,6.9,-314.2,954.1,-0.2,-1.2,-2,25,2.34574,-315.209,952.92,-0.51452,-0.652255,-1.89762,
2026_07_06_15_03_03.997,0,30,0,0.76,0,0,0,0, ,0,0,0,0,0, ,9.7,-315.5,955.5,0,-0.5,-1.6,25,2.70858,-315.187,953.034,-0.48926,-0.664305,-1.89167,
2026_07_06_15_03_04.017,0,30,0,0.757,0,0,0,0, ,0,0,0,0,0, ,1.3,-314,953.8,-0.2,-0.2,-1.3,25,2.87868,-315.161,953.133,-0.465539,-0.645152,-1.86476,
2026_07_06_15_03_04.037,0,30,0,0.758,0,0,0,0, ,0,0,0,0,0, ,-2.8,-312.8,954.2,-0.3,-0.6,-1.9,25,2.65756,-315.053,953.186,-0.452405,-0.630213,-1.84862,
2026_07_06_15_03_04.056,0,30,0,0.759,0,0,0,0, ,0,0,0,0,0, ,4,-315.1,954.4,-0.4,-1.3,-1.7,25,2.53218,-314.986,953.254,-0.446165,-0.6497,-1.84566,
2026_07_06_15_03_04.076,0,30,0,0.76,0,0,0,0, ,0,0,0,0,0, ,4.3,-314,955.9,-0.6,-0.7,-1.9,25,2.63076,-314.96,953.369,-0.449445,-0.671046,-1.84288,
2026_07_06_15_03_04.096,0,30.1,0,0.761,0,0,0,0, ,0,0,0,0,0, ,7,-314.6,952.8,-0.4,-0.4,-2,25,2.81475,-314.919,953.429,-0.452526,-0.66367,-1.84941,
2026_07_06_15_03_04.115,0,30,0,0.76,0,0,0,0, ,0,0,0,0,0, ,7.4,-314.2,952.3,-0.5,-0.5,-1.6,25,3.08197,-314.888,953.375,-0.452372,-0.650649,-1.8464,
2026_07_06_15_03_04.136,0,30,0,0.759,0,0,0,0, ,0,0,0,0,0, ,4.8,-313.8,953.6,-0.2,-0.1,-2.1,25,3.26588,-314.834,953.349,-0.446134,-0.629282,-1.84662,
2026_07_06_15_03_04.155,0,30,0,0.76,0,0,0,0, ,0,0,0,0,0, ,3,-313.7,952.8,-0.5,-0.3,-1.7,25,3.30453,-314.768,953.34,-0.440276,-0.603122,-1.84987,
2026_07_06_15_03_04.175,0,30,0,0.761,0,0,0,0, ,0,0,0,0,0, ,2.4,-312.1,954.8,-0.5,-0.5,-2.3,25,3.26769,-314.654,953.368,-0.443915,-0.590745,-1.85902,
2026_07_06_15_03_04.195,0,30,0,0.759,0,0,0,0, ,0,0,0,0,0, ,6.7,-314.6,955.4,-1,-0.1,-2.3,25,3.34583,-314.574,953.474,-0.462567,-0.573027,-1.88589,
2026_07_06_15_03_04.215,0,30,0,0.759,0,0,0,0, ,0,0,0,0,0, ,5.8,-313.7,955.4,-1,0.2,-2.3,25,3.5228,-314.549,953.591,-0.495317,-0.535062,-1.91112,
2026_07_06_15_03_04.235,0,30,0,0.759,0,0,0,0, ,0,0,0,0,0, ,3.9,-315.5,951.2,-1,0.6,-2.5,25,3.60368,-314.552,953.574,-0.526071,-0.478081,-1.94092,
2026_07_06_15_03_04.255,0,30,0,0.76,0,0,0,0, ,0,0,0,0,0, ,8,-316.1,948.8,-0.6,-0.4,-2.1,25,3.74666,-314.628,953.356,-0.542764,-0.442855,-1.9628,
2026_07_06_15_03_04.274,0,30,0,0.76,0,0,0,0, ,0,0,0,0,0, ,6.7,-313.8,951.7,-0.3,-0.7,-1.7,25,3.96624,-314.647,953.166,-0.537111,-0.449384,-1.95897,
2026_07_06_15_03_04.294,0,30.1,0,0.759,0,0,0,0, ,0,0,0,0,0, ,6.1,-313.3,957,-0.3,0,-1.9,25,4.11454,-314.581,953.239,-0.522662,-0.443328,-1.94928,
2026_07_06_15_03_04.314,0,30,0,0.758,0,0,0,0, ,0,0,0,0,0, ,3.4,-314.2,954.5,-0.7,0.4,-2.1,25,4.15327,-314.53,953.392,-0.521281,-0.404125,-1.95237,
2026_07_06_15_03_04.335,0,30,0,0.759,0,0,0,0, ,0,0,0,0,0, ,4.6,-314.6,949.2,-0.6,-0.3,-1.9,25,4.14393,-314.522,953.298,-0.529125,-0.376452,-1.95528,
2026_07_06_15_03_04.354,0,30.1,0,0.761,0,0,0,0, ,0,0,0,0,0, ,7.2,-314.3,952,0,-1.5,-1.4,25,4.25094,-314.518,953.133,-0.515162,-0.408355,-1.93667,
2026_07_06_15_03_04.373,0,30.1,0,0.76,0,0,0,0, ,0,0,0,0,0, ,6.4,-313.5,957.3,-0.5,-0.4,-1.6,25,4.40627,-314.48,953.226,-0.499004,-0.441362,-1.91006,
2026_07_06_15_03_04.393,0,30.2,0,0.759,0,0,0,0, ,0,0,0,0,0, ,5.1,-312.9,952.8,-0.7,0.1,-1.7,25,4.48815,-314.402,953.337,-0.505159,-0.423607,-1.89422,
2026_07_06_15_03_04.412,0,29.9,0,0.76,0,0,0,0, ,0,0,0,0,0, ,3.7,-315.3,950.4,-0.2,-0.2,-1.7,25,4.48278,-314.384,953.231,-0.501797,-0.40084,-1.88238,
2026_07_06_15_03_04.433,0,30,0,0.76,0,0,0,0, ,0,0,0,0,0, ,3.6,-315.5,954.7,-0.4,-0.5,-1.6,25,4.43203,-314.445,953.19,-0.4895,-0.397742,-1.86822,
2026_07_06_15_03_04.453,0,30.1,0,0.76,0,0,0,0, ,0,0,0,0,0, ,4.6,-312.9,954.9,-0.6,0,-2,25,4.4118,-314.431,953.288,-0.49014,-0.388739,-1.86406,
2026_07_06_15_03_04.472,0,30.1,0,0.76,0,0,0,0, ,0,0,0,0,0, ,7.8,-313.7,953.7,-0.7,-0.5,-1.3,25,4.52077,-314.362,953.349,-0.499882,-0.380285,-1.85102,
2026_07_06_15_03_04.492,0,30.1,0,0.76,0,0,0,0, ,0,0,0,0,0, ,2.3,-314,951,-0.5,-0.6,-1.3,25,4.55302,-314.33,953.288,-0.505983,-0.390627,-1.81744,
2026_07_06_15_03_04.512,0,30.1,0,0.757,0,0,0,0, ,0,0,0,0,0, ,5.7,-314.5,952.8,-0.1,-0.2,-1.7,25,4.51932,-314.326,953.204,-0.493431,-0.391198,-1.7981,
2026_07_06_15_03_04.532,0,30,0,0.758,0,0,0,0, ,0,0,0,0,0, ,-2,-313.2,955.3,-0.8,-0.5,-1.8,25,4.35666,-314.297,953.255,-0.490784,-0.388687,-1.79517,
2026_07_06_15_03_04.552,0,30.1,0,0.76,0,0,0,0, ,0,0,0,0,0, ,5.7,-313.9,950.5,-0.5,-1.2,-2.3,25,4.20391,-314.251,953.234,-0.500486,-0.416799,-1.81069,
2026_07_06_15_03_04.571,0,30.2,0,0.759,0,0,0,0, ,0,0,0,0,0, ,10.4,-314.6,952,-0.2,-0.9,-1.6,25,4.43828,-314.251,953.113,-0.491316,-0.455384,-1.81918,
2026_07_06_15_03_04.591,0,30.1,0,0.759,0,0,0,0, ,0,0,0,0,0, ,7.9,-314,956.7,-0.4,0,-1.7,25,4.7254,-314.254,953.188,-0.479658,-0.455056,-1.80887,
2026_07_06_15_03_04.611,0,30,0,0.759,0,0,0,0, ,0,0,0,0,0, ,4.8,-315.3,955.5,-0.7,0.2,-1.6,25,4.8244,-314.278,953.366,-0.483944,-0.421232,-1.79919,
2026_07_06_15_03_04.631,0,30.1,0,0.758,0,0,0,0, ,0,0,0,0,0, ,0.3,-313.1,955.2,-1,0.9,-1.9,25,4.6858,-314.273,953.487,-0.506251,-0.362048,-1.7962,
2026_07_06_15_03_04.650,0,30.1,0,0.76,0,0,0,0, ,0,0,0,0,0, ,1.7,-314.4,948.9,-0.9,0,-2.4,25,4.4612,-314.241,953.399,-0.533292,-0.312564,-1.81776,
2026_07_06_15_03_04.671,0,30.1,0,0.761,0,0,0,0, ,0,0,0,0,0, ,6.3,-315.1,950.8,-0.4,-1.1,-2.2,25,4.4331,-314.272,953.183,-0.540404,-0.327033,-1.84714,
2026_07_06_15_03_04.697,0,30.1,0,0.759,0,0,0,0, ,0,0,0,0,0, ,6.1,-314,953.6,-0.5,-0.9,-1.9,25,4.54077,-314.289,953.123,-0.534895,-0.368042,-1.8595,
2026_07_06_15_03_04.711,0,30.1,0,0.76,0,0,0,0, ,0,0,0,0,0, ,10.9,-315,952.6,-0.3,-0.7,-1.9,25,4.78203,-314.302,953.122,-0.526674,-0.394364,-1.86197,
2026_07_06_15_03_04.731,0,30.1,0,0.76,0,0,0,0, ,0,0,0,0,0, ,6.1,-313.1,954.7,-0.4,-0.6,-1,25,5.0086,-314.287,953.154,-0.515908,-0.409942,-1.83687,
2026_07_06_15_03_04.750,0,30,0,0.761,0,0,0,0, ,0,0,0,0,0, ,4.8,-313.5,953.9,-0.4,-0.5,-1.6,25,5.03549,-314.227,953.224,-0.508845,-0.418477,-1.80415,
2026_07_06_15_03_04.770,0,30.1,0,0.758,0,0,0,0, ,0,0,0,0,0, ,4,-313.1,954.9,-0.6,0,-1.5,25,4.99677,-314.17,953.295,-0.508306,-0.40821,-1.78866,
2026_07_06_15_03_04.789,0,30.1,0,0.76,0,0,0,0, ,0,0,0,0,0, ,4.8,-316,948.4,-0.8,-0.2,-1.7,25,4.9604,-314.193,953.195,-0.519988,-0.389429,-1.77717,
2026_07_06_15_03_04.809,0,30,0,0.757,0,0,0,0, ,0,0,0,0,0, ,7.3,-314.6,951.2,-0.2,-1.1,-1.3,25,5.0268,-314.261,952.988,-0.51877,-0.405307,-1.76028,
2026_07_06_15_03_04.829,0,30.1,0,0.759,0,0,0,0, ,0,0,0,0,0, ,2.1,-314,956.2,-0.4,-0.3,-1.6,25,5.00689,-314.263,953.032,-0.505438,-0.423265,-1.74137,
2026_07_06_15_03_04.849,0,30,0,0.759,0,0,0,0, ,0,0,0,0,0, ,5.1,-314.5,955.3,-0.8,0.4,-1.9,25,4.92115,-314.262,953.197,-0.511201,-0.394425,-1.7419,
2026_07_06_15_03_04.870,0,30.1,0,0.76,0,0,0,0, ,0,0,0,0,0, ,4,-315.3,948.7,-0.6,0.2,-1.8,25,4.89854,-314.301,953.124,-0.522706,-0.352109,-1.74848,
2026_07_06_15_03_04.889,0,30.1,0,0.759,0,0,0,0, ,0,0,0,0,0, ,3.5,-314.6,951.2,-0.3,-0.6,-1.8,25,4.82855,-314.341,952.931,-0.518275,-0.34284,-1.75162,
2026_07_06_15_03_04.909,0,30,0,0.759,0,0,0,0, ,0,0,0,0,0, ,5.8,-314.8,953.9,-0.5,-0.6,-1.9,25,4.81767,-314.363,952.908,-0.511068,-0.35851,-1.75762,
2026_07_06_15_03_04.929,0,30.1,0,0.76,0,0,0,0, ,0,0,0,0,0, ,3.2,-314.2,954.2,-0.7,-0.1,-1.8,25,4.79831,-314.371,952.977,-0.516487,-0.357992,-1.76325,
2026_07_06_15_03_04.948,0,30.1,0,0.759,0,0,0,0, ,0,0,0,0,0, ,1.2,-314.6,954.1,-0.7,0.3,-2.2,25,4.63997,-314.373,953.049,-0.52767,-0.330083,-1.77767,
2026_07_06_15_03_04.968,0,30.1,0,0.759,0,0,0,0, ,0,0,0,0,0, ,7.2,-314.9,951.4,-0.9,0,-2.4,25,4.61316,-314.396,953.03,-0.544265,-0.300828,-1.8095,
2026_07_06_15_03_04.988,0,30,0,0.76,0,0,0,0, ,0,0,0,0,0, ,10,-316.6,950.3,-0.2,0,-1.9,25,4.85611,-314.478,952.898,-0.544614,-0.282496,-1.83025,
2026_07_06_15_03_05.008,0,30.1,0,0.759,0,0,0,0, ,0,0,0,0,0, ,11.7,-317.3,951.6,0,-0.6,-1.2,25,5.22136,-314.629,952.779,-0.517521,-0.283563,-1.81317,
2026_07_06_15_03_05.034,0,30.1,0,0.758,0,0,0,0, ,0,0,0,0,0, ,0,-310.7,958,-0.2,-0.3,-1,25,5.25967,-314.591,952.902,-0.492078,-0.293705,-1.76972,
2026_07_06_15_03_05.047,0,30.1,0,0.758,0,0,0,0, ,0,0,0,0,0, ,-0.1,-313.3,952.2,-0.5,0.1,-2,25,4.93611,-314.433,953.036,-0.48342,-0.281901,-1.75328,
2026_07_06_15_03_05.067,0,30.1,0,0.761,0,0,0,0, ,0,0,0,0,0, ,2.9,-313.7,952.3,-0.4,-0.2,-1.8,25,4.72063,-314.376,952.988,-0.481384,-0.26777,-1.76222,
2026_07_06_15_03_05.087,0,30.1,0,0.76,0,0,0,0, ,0,0,0,0,0, ,2.5,-314.9,950.9,-0.4,-0.7,-2,25,4.5975,-314.371,952.904,-0.476424,-0.278874,-1.77062,
2026_07_06_15_03_05.107,0,30.2,0,0.76,0,0,0,0, ,0,0,0,0,0, ,11.9,-314.8,953,-0.4,-0.8,-1.7,25,4.75609,-314.4,952.845,-0.471767,-0.307584,-1.77545,
2026_07_06_15_03_05.127,0,30.2,0,0.759,0,0,0,0, ,0,0,0,0,0, ,4,-312.3,952.3,-0.6,-0.9,-1.2,25,4.95072,-314.349,952.834,-0.473488,-0.340637,-1.75562,
2026_07_06_15_03_05.146,0,30,0,0.76,0,0,0,0, ,0,0,0,0,0, ,5.4,-312.7,954.9,-0.4,-0.6,-1.7,25,4.93544,-314.236,952.88,-0.475103,-0.365583,-1.737,
2026_07_06_15_03_05.166,0,30.2,0,0.759,0,0,0,0, ,0,0,0,0,0, ,6.8,-315.6,955.9,-0.7,-0.5,-1.4,25,5.00641,-314.231,953.034,-0.479667,-0.376821,-1.7256,
2026_07_06_15_03_05.186,0,30.1,0,0.76,0,0,0,0, ,0,0,0,0,0, ,4.2,-313.3,955,-0.8,-0.5,-1.3,25,5.03648,-314.244,953.181,-0.496141,-0.384327,-1.70271,
2026_07_06_15_03_05.205,0,30.2,0,0.76,0,0,0,0, ,0,0,0,0,0, ,0.3,-314.6,949.9,-1.3,0.2,-1.8,25,4.86668,-314.226,953.136,-0.529891,-0.370048,-1.69341,
2026_07_06_15_03_05.226,0,30.1,0,0.759,0,0,0,0, ,0,0,0,0,0, ,7.6,-311.7,953.2,-1,-0.8,-2.3,25,4.81082,-314.161,953.04,-0.567679,-0.365779,-1.71514,
2026_07_06_15_03_05.246,0,30.1,0,0.758,0,0,0,0, ,0,0,0,0,0, ,7.6,-315.4,951.1,-0.3,-0.1,-1.8,25,4.98079,-314.123,952.986,-0.572696,-0.370911,-1.73554,
2026_07_06_15_03_05.265,0,30.1,0,0.759,0,0,0,0, ,0,0,0,0,0, ,3.9,-315.4,954.2,-0.5,0,-1.7,25,5.02766,-314.201,952.965,-0.562172,-0.351356,-1.73642,
2026_07_06_15_03_05.286,0,30.2,0,0.759,0,0,0,0, ,0,0,0,0,0, ,0.6,-311.6,953.9,-0.9,-0.6,-2,25,4.8584,-314.158,953.031,-0.570571,-0.348226,-1.74335,
2026_07_06_15_03_05.305,0,30.2,0,0.759,0,0,0,0, ,0,0,0,0,0, ,7.8,-313.9,955.5,-0.2,-0.7,-2.4,25,4.81828,-314.073,953.133,-0.569317,-0.366616,-1.77117,
2026_07_06_15_03_05.324,0,30.1,0,0.76,0,0,0,0, ,0,0,0,0,0, ,17,-317.2,953.2,-0.7,-0.2,-1.9,25,5.28029,-314.163,953.207,-0.562047,-0.371697,-1.79426,
2026_07_06_15_03_05.345,0,30.1,0,0.76,0,0,0,0, ,0,0,0,0,0, ,9.5,-313.7,948.1,-0.3,-0.6,-0.1,25,5.76594,-314.241,953.051,-0.558266,-0.373422,-1.74586,
2026_07_06_15_03_05.365,0,30.1,0,0.76,0,0,0,0, ,0,0,0,0,0, ,4.3,-313.8,956.4,-0.1,0.7,-1.4,25,5.83505,-314.211,953.002,-0.536434,-0.347619,-1.68517,
2026_07_06_15_03_05.386,0,30.1,0,0.76,0,0,0,0, ,0,0,0,0,0, ,0.4,-314.4,951.5,-0.5,0.7,-1.1,25,5.62268,-314.204,953.06,-0.522026,-0.28378,-1.65865,
2026_07_06_15_03_05.404,0,30.1,0,0.759,0,0,0,0, ,0,0,0,0,0, ,1.3,-315.6,951.5,-0.3,-0.3,-1.7,25,5.33184,-314.253,952.965,-0.51459,-0.2543,-1.64289,
2026_07_06_15_03_05.424,0,30,0,0.759,0,0,0,0, ,0,0,0,0,0, ,0.6,-314,952.1,-0.3,-0.2,-1.7,25,5.06483,-314.286,952.894,-0.501514,-0.254038,-1.64637,
2026_07_06_15_03_05.443,0,30.2,0,0.759,0,0,0,0, ,0,0,0,0,0, ,1.9,-312.3,954.7,-0.3,-0.7,-2.1,25,4.83236,-314.217,952.925,-0.489234,-0.265979,-1.66183,
2026_07_06_15_03_05.463,0,30.2,0,0.759,0,0,0,0, ,0,0,0,0,0, ,6.8,-313.4,955.2,-0.5,-0.7,-2.1,25,4.80297,-314.134,953.048,-0.483796,-0.292427,-1.68853,
2026_07_06_15_03_05.483,0,30.1,0,0.761,0,0,0,0, ,0,0,0,0,0, ,8.7,-315.7,953.9,-0.5,-0.1,-2,25,4.98255,-314.159,953.14,-0.484784,-0.298982,-1.71056,
2026_07_06_15_03_05.503,0,30.1,0,0.758,0,0,0,0, ,0,0,0,0,0, ,3.7,-315.3,951.5,-0.2,0,-1.2,25,5.05674,-314.241,953.113,-0.47657,-0.28381,-1.70382,
2026_07_06_15_03_05.522,0,30.2,0,0.759,0,0,0,0, ,0,0,0,0,0, ,2.3,-312.2,957.8,-0.6,-0.1,-1.8,25,4.93141,-314.211,953.207,-0.471904,-0.269562,-1.6914,
2026_07_06_15_03_05.543,0,30,0,0.759,0,0,0,0, ,0,0,0,0,0, ,4.6,-313.4,952,-0.8,0,-2.1,25,4.84113,-314.125,953.31,-0.485804,-0.256183,-1.70716,
2026_07_06_15_03_05.562,0,30.1,0,0.76,0,0,0,0, ,0,0,0,0,0, ,10.3,-316.6,950.1,0,-0.3,-1.5,25,5.00011,-314.178,953.172,-0.480575,-0.249712,-1.71282,
2026_07_06_15_03_05.583,0,30.1,0,0.76,0,0,0,0, ,0,0,0,0,0, ,4.7,-313.1,957.7,-0.1,0.5,-1.3,25,5.15245,-314.219,953.217,-0.454337,-0.228402,-1.69375,
2026_07_06_15_03_05.602,0,30.1,0,0.759,0,0,0,0, ,0,0,0,0,0, ,-2.3,-313.9,955.2,-0.5,0.9,-1.8,25,4.9116,-314.175,953.414,-0.444932,-0.171827,-1.68499,
2026_07_06_15_03_05.622,0,30,0,0.759,0,0,0,0, ,0,0,0,0,0, ,0.4,-314.9,950.8,-0.9,0,-2,25,4.5544,-314.189,953.388,-0.460475,-0.133935,-1.69809,
2026_07_06_15_03_05.642,0,30.1,0,0.758,0,0,0,0, ,0,0,0,0,0, ,3.4,-311.4,954.3,-0.5,-1.3,-1.9,25,4.39265,-314.126,953.337,-0.475071,-0.165382,-1.71345,
2026_07_06_15_03_05.662,0,30,0,0.76,0,0,0,0, ,0,0,0,0,0, ,6.2,-314.4,956.9,-0.9,0,-2,25,4.41747,-314.051,953.475,-0.488778,-0.194914,-1.72786,
2026_07_06_15_03_05.682,0,30.1,0,0.76,0,0,0,0, ,0,0,0,0,0, ,6.3,-315,948.9,-0.7,-0.1,-1.9,25,4.52914,-314.091,953.44,-0.507743,-0.186083,-1.7414,
2026_07_06_15_03_05.702,0,30.1,0,0.76,0,0,0,0, ,0,0,0,0,0, ,7.8,-315.7,951.1,-0.3,-0.8,-1.5,25,4.68276,-314.167,953.23,-0.507271,-0.202165,-1.73887,
2026_07_06_15_03_05.726,0,30.1,0,0.759,0,0,0,0, ,0,0,0,0,0, ,0.7,-312,958,-0.5,-0.3,-1.3,25,4.65639,-314.148,953.311,-0.500734,-0.223362,-1.71822,
2026_07_06_15_03_05.741,0,30.1,0,0.759,0,0,0,0, ,0,0,0,0,0, ,0,-312.3,953.2,-1,0.3,-1.9,25,4.39397,-314.026,953.45,-0.515924,-0.209751,-1.71102,
2026_07_06_15_03_05.761,0,30,0,0.76,0,0,0,0, ,0,0,0,0,0, ,-0.3,-314.4,952.6,-0.7,-0.7,-2,25,4.11707,-313.985,953.417,-0.536282,-0.209156,-1.72558,
2026_07_06_15_03_05.780,0,30.1,0,0.76,0,0,0,0, ,0,0,0,0,0, ,4.7,-315.4,953.3,-1,-0.8,-2.1,25,4.00025,-314.041,953.388,-0.555399,-0.242114,-1.74535,
2026_07_06_15_03_05.801,0,30,0,0.76,0,0,0,0, ,0,0,0,0,0, ,10.6,-314.3,951.5,-0.9,-0.9,-1.6,25,4.22265,-314.09,953.328,-0.579445,-0.279157,-1.75173,
2026_07_06_15_03_05.821,0,30,0,0.759,0,0,0,0, ,0,0,0,0,0, ,7.4,-315.9,952.1,-0.5,-0.4,-1.3,25,4.51377,-314.152,953.235,-0.586791,-0.301755,-1.73334,
2026_07_06_15_03_05.840,0,30.1,0,0.759,0,0,0,0, ,0,0,0,0,0, ,4.6,-314.8,954.4,-0.4,0.4,-1.3,25,4.60434,-314.225,953.236,-0.578455,-0.283367,-1.70694,
2026_07_06_15_03_05.860,0,30,0,0.76,0,0,0,0, ,0,0,0,0,0, ,0.7,-314.6,951,-0.7,0,-1.6,25,4.48525,-314.254,953.203,-0.576721,-0.253912,-1.69128,
2026_07_06_15_03_05.880,0,30.1,0,0.76,0,0,0,0, ,0,0,0,0,0, ,1,-319.2,952.7,-0.6,-1,-1.8,25,4.26373,-314.415,953.121,-0.581187,-0.268908,-1.69181,
2026_07_06_15_03_05.909,0,30.2,0,0.76,0,0,0,0, ,0,0,0,0,0, ,1.5,-312,960.2,-0.9,0.3,-1.7,25,4.08008,-314.487,953.324,-0.591474,-0.273849,-1.69536,
2026_07_06_15_03_05.923,0,30,0,0.759,0,0,0,0, ,0,0,0,0,0, ,-0.7,-313.2,946.6,-1.2,0.3,-2,25,3.85582,-314.372,953.328,-0.619415,-0.23888,-1.70478,
2026_07_06_15_03_05.946,0,30.1,0,0.76,0,0,0,0, ,0,0,0,0,0, ,4.1,-313.2,951.5,-0.4,-0.4,-2.6,25,3.72445,-314.301,953.068,-0.63042,-0.227371,-1.74105,
2026_07_06_15_03_05.962,0,30.1,0,0.758,0,0,0,0, ,0,0,0,0,0, ,5.7,-316.1,954.9,-0.4,-0.7,-1.6,25,3.79609,-314.322,953.076,-0.616379,-0.247031,-1.76292,
2026_07_06_15_03_05.979,0,30,0,0.761,0,0,0,0, ,0,0,0,0,0, ,9.1,-316,949.5,-0.4,-0.4,-1.8,25,4.0157,-314.427,953.022,-0.603193,-0.265493,-1.75909,
2026_07_06_15_03_05.999,0,30.2,0,0.759,0,0,0,0, ,0,0,0,0,0, ,5.8,-313.4,957.8,-0.1,0.4,-1.3,25,4.22498,-314.444,953.061,-0.58167,-0.249315,-1.74635,
2026_07_06_15_03_06.018,0,30.2,0,0.76,0,0,0,0, ,0,0,0,0,0, ,0,-313.8,953,-0.5,0.6,-1.6,25,4.14424,-314.392,953.203,-0.564506,-0.203653,-1.72829,
2026_07_06_15_03_06.038,0,30.1,0,0.759,0,0,0,0, ,0,0,0,0,0, ,-1.8,-314.5,950,-0.3,-0.1,-1.7,25,3.83685,-314.378,953.099,-0.554481,-0.176009,-1.72352,
2026_07_06_15_03_06.058,0,30.1,0,0.759,0,0,0,0, ,0,0,0,0,0, ,1.5,-315.3,954.4,-0.3,-0.4,-2.2,25,3.5939,-314.41,953.045,-0.538974,-0.180518,-1.73732,
2026_07_06_15_03_06.077,0,30.1,0,0.759,0,0,0,0, ,0,0,0,0,0, ,3.6,-314,953.7,-0.5,-1.1,-1.8,25,3.53029,-314.424,953.106,-0.530505,-0.21522,-1.75333,
2026_07_06_15_03_06.098,0,30.1,0,0.76,0,0,0,0, ,0,0,0,0,0, ,8.3,-315.3,953,-0.4,-0.6,-1.8,25,3.67774,-314.438,953.121,-0.525599,-0.253902,-1.75617,
2026_07_06_15_03_06.117,0,30.2,0,0.759,0,0,0,0, ,0,0,0,0,0, ,2.8,-314.3,953.9,-0.5,0,-1.5,25,3.79183,-314.46,953.141,-0.520993,-0.256711,-1.7497,
2026_07_06_15_03_06.138,0,30.2,0,0.758,0,0,0,0, ,0,0,0,0,0, ,4.3,-314.4,955.6,-0.7,0,-1.8,25,3.7771,-314.453,953.239,-0.525807,-0.241068,-1.74363,
2026_07_06_15_03_06.161,0,30.1,0,0.761,0,0,0,0, ,0,0,0,0,0, ,2.1,-314.6,951.9,-0.4,0.5,-1.8,25,3.74193,-314.456,953.27,-0.527281,-0.211144,-1.74706,
2026_07_06_15_03_06.181,0,30.2,0,0.759,0,0,0,0, ,0,0,0,0,0, ,3.1,-315.1,950.8,-0.5,-0.5,-1.6,25,3.67234,-314.48,953.153,-0.522572,-0.198277,-1.74419,
2026_07_06_15_03_06.197,0,30.2,0,0.759,0,0,0,0, ,0,0,0,0,0, ,2.4,-312.8,955,-0.3,-0.4,-1.8,25,3.61614,-314.448,953.138,-0.515103,-0.213616,-1.7415,
2026_07_06_15_03_06.217,0,30.1,0,0.76,0,0,0,0, ,0,0,0,0,0, ,2.6,-313.9,953.4,-0.5,-0.3,-1.6,25,3.54812,-314.381,953.202,-0.508089,-0.221927,-1.73897,
2026_07_06_15_03_06.236,0,30.1,0,0.761,0,0,0,0, ,0,0,0,0,0, ,2.5,-313.3,953.1,-0.3,-0.5,-1.5,25,3.4873,-314.333,953.205,-0.501502,-0.232779,-1.72746,
2026_07_06_15_03_06.256,0,30.1,0,0.76,0,0,0,0, ,0,0,0,0,0, ,4.2,-313.8,954.2,-0.5,-0.7,-1.5,25,3.47893,-314.286,953.232,-0.495317,-0.255156,-1.7136,
2026_07_06_15_03_06.276,0,30.2,0,0.76,0,0,0,0, ,0,0,0,0,0, ,2.1,-314.2,955.5,-0.7,0,-1.6,25,3.45889,-314.268,953.331,-0.501696,-0.260936,-1.70363,
2026_07_06_15_03_06.296,0,30.1,0,0.759,0,0,0,0, ,0,0,0,0,0, ,2.4,-316.8,953.2,-0.7,0.3,-1.9,25,3.38522,-314.343,953.393,-0.51378,-0.235894,-1.70645,
2026_07_06_15_03_06.315,0,30.1,0,0.76,0,0,0,0, ,0,0,0,0,0, ,-1,-315,952,-0.4,0,-1.8,25,3.22159,-314.438,953.345,-0.515987,-0.212379,-1.7152,
2026_07_06_15_03_06.336,0,30.1,0,0.76,0,0,0,0, ,0,0,0,0,0, ,0.7,-312.6,953.2,-0.3,-1.1,-2,25,3.01614,-314.399,953.299,-0.505872,-0.232953,-1.72646,
2026_07_06_15_03_06.355,0,30.1,0,0.76,0,0,0,0, ,0,0,0,0,0, ,4.5,-312.9,954.5,-0.5,-1.6,-1.7,25,2.99078,-314.299,953.333,-0.499421,-0.301023,-1.73399,
2026_07_06_15_03_06.377,0,30,0,0.76,0,0,0,0, ,0,0,0,0,0, ,3.6,-314.8,954.1,-0.5,-0.7,-1.8,25,3.05532,-314.271,953.392,-0.499456,-0.352757,-1.73496,
2026_07_06_15_03_06.395,0,30.1,0,0.76,0,0,0,0, ,0,0,0,0,0, ,4.8,-312.9,956.4,-1,-0.1,-1.8,25,3.12508,-314.246,953.505,-0.514724,-0.355636,-1.73893,
2026_07_06_15_03_06.415,0,30.1,0,0.76,0,0,0,0, ,0,0,0,0,0, ,5,-315.7,953.2,-0.9,1.3,-2,25,3.23324,-314.249,953.584,-0.541248,-0.297402,-1.74874,
2026_07_06_15_03_06.434,0,30.2,0,0.759,0,0,0,0, ,0,0,0,0,0, ,4.7,-316.2,947.3,-0.5,0.2,-1.6,25,3.33176,-314.353,953.381,-0.550922,-0.233576,-1.75187,
2026_07_06_15_03_06.454,0,30.1,0,0.761,0,0,0,0, ,0,0,0,0,0, ,2.1,-313.1,955.4,0,-1.3,-1.2,25,3.33592,-314.371,953.257,-0.532585,-0.252858,-1.73042,
2026_07_06_15_03_06.474,0,30.2,0,0.759,0,0,0,0, ,0,0,0,0,0, ,-0.2,-312.1,956.2,-0.6,-0.2,-1.7,25,3.19052,-314.263,953.412,-0.518412,-0.283153,-1.71334,
2026_07_06_15_03_06.494,0,30.1,0,0.759,0,0,0,0, ,0,0,0,0,0, ,0.9,-316,951.9,-0.6,0,-2.1,25,3.01743,-314.25,953.451,-0.523383,-0.271992,-1.72471,
2026_07_06_15_03_06.514,0,30.1,0,0.759,0,0,0,0, ,0,0,0,0,0, ,4.7,-313.7,950.9,-0.5,-0.6,-2.1,25,3.00418,-314.286,953.326,-0.525005,-0.273699,-1.74758,
2026_07_06_15_03_06.533,0,30,0,0.759,0,0,0,0, ,0,0,0,0,0, ,4.6,-314,961,-0.3,0.2,-1.4,25,3.10447,-314.26,953.486,-0.517388,-0.269208,-1.74773,
2026_07_06_15_03_06.559,0,30,0,0.76,0,0,0,0, ,0,0,0,0,0, ,-0.1,-316,949.4,-1.2,0.3,-2,25,3.0524,-314.305,953.59,-0.531563,-0.237568,-1.74482,
2026_07_06_15_03_06.575,0,30.1,0,0.759,0,0,0,0, ,0,0,0,0,0, ,3.5,-316.2,948.6,-0.2,-0.1,-1.6,25,2.96999,-314.414,953.311,-0.541827,-0.216998,-1.74818,
2026_07_06_15_03_06.593,0,30,0,0.759,0,0,0,0, ,0,0,0,0,0, ,3.1,-313.1,958.1,-0.2,-0.6,-1.7,25,2.9901,-314.429,953.313,-0.520997,-0.225103,-1.7422,
2026_07_06_15_03_06.613,0,30.1,0,0.761,0,0,0,0, ,0,0,0,0,0, ,5.2,-313.8,955.5,-0.6,0.7,-1.6,25,3.06078,-314.369,953.525,-0.513623,-0.208339,-1.73658,
2026_07_06_15_03_06.632,0,30.1,0,0.76,0,0,0,0, ,0,0,0,0,0, ,-1,-312.6,953.9,-0.8,0.9,-1.8,25,3.00223,-314.298,953.597,-0.524981,-0.146893,-1.73435,
2026_07_06_15_03_06.653,0,30.1,0,0.759,0,0,0,0, ,0,0,0,0,0, ,-2,-314.6,950.9,-0.8,-0.1,-2,25,2.72788,-314.255,953.524,-0.54174,-0.113567,-1.74445,
2026_07_06_15_03_06.673,0,30.1,0,0.759,0,0,0,0, ,0,0,0,0,0, ,4,-316,951.2,-0.4,-0.6,-1.9,25,2.62259,-314.319,953.373,-0.54529,-0.127974,-1.75697,
2026_07_06_15_03_06.692,0,30.2,0,0.759,0,0,0,0, ,0,0,0,0,0, ,2.6,-314.5,953,-0.4,-0.4,-1.6,25,2.66387,-314.376,953.296,-0.536436,-0.150645,-1.75655,
2026_07_06_15_03_06.723,0,30.1,0,0.758,0,0,0,0, ,0,0,0,0,0, ,0.4,-313.4,956.7,-0.5,-0.7,-1.6,25,2.59294,-314.35,953.39,-0.531169,-0.17498,-1.74701,
2026_07_06_15_03_06.751,0,30.1,0,0.758,0,0,0,0, ,0,0,0,0,0, ,-0.8,-312.7,958.7,-1,0,-2.1,25,2.42275,-314.271,953.653,-0.544504,-0.185646,-1.75328,
2026_07_06_15_03_06.752,0,30,0,0.76,0,0,0,0, ,0,0,0,0,0, ,5.1,-314.3,950.4,-0.9,-0.1,-2.1,25,2.40613,-314.224,953.708,-0.569214,-0.17738,-1.77441,
2026_07_06_15_03_06.773,0,30.1,0,0.76,0,0,0,0, ,0,0,0,0,0, ,9.6,-317.3,948.9,-0.2,-0.4,-1.3,25,2.7074,-314.32,953.46,-0.568043,-0.181805,-1.76988,
2026_07_06_15_03_06.798,0,30.1,0,0.759,0,0,0,0, ,0,0,0,0,0, ,1.4,-312.8,955.9,-0.1,-0.4,-0.6,25,2.87757,-314.364,953.396,-0.542569,-0.195101,-1.71992,
2026_07_06_15_03_06.814,0,30.1,0,0.76,0,0,0,0, ,0,0,0,0,0, ,-5.3,-311,955,-0.5,-0.2,-1.6,25,2.58339,-314.214,953.521,-0.527787,-0.201493,-1.68214,
2026_07_06_15_03_06.831,0,30.1,0,0.759,0,0,0,0, ,0,0,0,0,0, ,0.9,-315.1,954.8,-0.2,0.2,-1.9,25,2.2919,-314.143,953.605,-0.516953,-0.189215,-1.68627,
2026_07_06_15_03_06.851,0,30.1,0,0.758,0,0,0,0, ,0,0,0,0,0, ,0.6,-313.8,955.6,-0.7,0,-2.1,25,2.19794,-314.162,953.702,-0.512873,-0.171591,-1.70539,
2026_07_06_15_03_06.870,0,30.1,0,0.759,0,0,0,0, ,0,0,0,0,0, ,1,-313.9,951.9,-0.6,0.1,-2,25,2.11276,-314.143,953.705,-0.521229,-0.158088,-1.72639,
2026_07_06_15_03_06.890,0,30.1,0,0.76,0,0,0,0, ,0,0,0,0,0, ,-0.4,-314.2,955.4,-0.8,0,-2.1,25,2.00229,-314.137,953.702,-0.532123,-0.145407,-1.74611,
2026_07_06_15_03_06.911,0,30.1,0,0.759,0,0,0,0, ,0,0,0,0,0, ,3.4,-317.7,951,-0.7,-1.1,-1.5,25,1.97168,-314.248,953.671,-0.5454,-0.170062,-1.7494,
2026_07_06_15_03_06.929,0,30.1,0,0.761,0,0,0,0, ,0,0,0,0,0, ,-1.7,-313.8,951.2,-0.3,-1.1,-2.2,25,1.90333,-314.339,953.515,-0.542634,-0.22673,-1.75553,
2026_07_06_15_03_06.950,0,30.2,0,0.759,0,0,0,0, ,0,0,0,0,0, ,0.3,-313.8,954.2,-0.1,-0.7,-2.8,25,1.74469,-314.306,953.465,-0.521754,-0.267758,-1.80089,
2026_07_06_15_03_06.968,0,30,0,0.759,0,0,0,0, ,0,0,0,0,0, ,9.6,-315.9,956.2,-0.3,0,-1.9,25,1.94001,-314.339,953.571,-0.502147,-0.272769,-1.83435,
2026_07_06_15_03_06.995,0,30.1,0,0.76,0,0,0,0, ,0,0,0,0,0, ,4.8,-312.7,956.1,-1,1.6,-1.6,25,2.26054,-314.337,953.728,-0.511157,-0.207397,-1.82921,
2026_07_06_15_03_07.013,0,30.1,0,0.757,0,0,0,0, ,0,0,0,0,0, ,-5.7,-312.3,947,-0.6,0.4,-1.7,25,2.09537,-314.225,953.595,-0.528759,-0.133822,-1.81829,
2026_07_06_15_03_07.029,0,30,0,0.759,0,0,0,0, ,0,0,0,0,0, ,1.3,-315.4,955,0.1,-0.9,-1.8,25,1.83362,-314.202,953.437,-0.511772,-0.140901,-1.81413,
2026_07_06_15_03_07.048,0,30.1,0,0.759,0,0,0,0, ,0,0,0,0,0, ,2.9,-313.2,959.4,-0.6,-0.3,-1.5,25,1.84985,-314.208,953.666,-0.49582,-0.168878,-1.80413,
2026_07_06_15_03_07.069,0,30.1,0,0.76,0,0,0,0, ,0,0,0,0,0, ,0.3,-314.3,951.9,-0.3,-0.1,-1.7,25,1.83463,-314.18,953.787,-0.493028,-0.170774,-1.79169,
2026_07_06_15_03_07.088,0,30.2,0,0.759,0,0,0,0, ,0,0,0,0,0, ,2.5,-315.1,953.1,-0.5,0.1,-1.8,25,1.80814,-314.212,953.709,-0.487359,-0.160368,-1.78915,
2026_07_06_15_03_07.108,0,30.1,0,0.758,0,0,0,0, ,0,0,0,0,0, ,0.9,-313.4,954.2,-0.4,0.4,-1.8,25,1.80155,-314.214,953.705,-0.485082,-0.135361,-1.78981,
2026_07_06_15_03_07.128,0,30.1,0,0.759,0,0,0,0, ,0,0,0,0,0, ,-4.1,-313.4,954.2,-0.6,0.3,-1.8,25,1.59427,-314.165,953.735,-0.485991,-0.105784,-1.79043,
2026_07_06_15_03_07.147,0,30.1,0,0.759,0,0,0,0, ,0,0,0,0,0, ,-1.2,-314.6,952,-0.5,-0.5,-2,25,1.33564,-314.155,953.697,-0.489892,-0.105432,-1.79711,
2026_07_06_15_03_07.168,0,30.1,0,0.758,0,0,0,0, ,0,0,0,0,0, ,-1.3,-313.7,953.8,-0.5,-1.5,-2,25,1.17807,-314.154,953.648,-0.490508,-0.159944,-1.80947,
2026_07_06_15_03_07.188,0,30.1,0,0.76,0,0,0,0, ,0,0,0,0,0, ,7.6,-314.4,958.2,-0.6,-0.1,-2.2,25,1.29824,-314.148,953.791,-0.494133,-0.198948,-1.82718,
2026_07_06_15_03_07.212,0,30.2,0,0.759,0,0,0,0, ,0,0,0,0,0, ,4.5,-312.9,949.5,-0.9,0.8,-1.8,25,1.5878,-314.118,953.795,-0.509725,-0.165496,-1.83771,
2026_07_06_15_03_07.227,0,30.1,0,0.76,0,0,0,0, ,0,0,0,0,0, ,3.5,-314.3,951.1,-0.1,0.5,-1.5,25,1.73479,-314.086,953.582,-0.509132,-0.115802,-1.82627,
2026_07_06_15_03_07.246,0,30.1,0,0.76,0,0,0,0, ,0,0,0,0,0, ,-1.8,-315,954.4,-0.3,-0.3,-1.2,25,1.68087,-314.12,953.531,-0.490295,-0.102652,-1.79725,
2026_07_06_15_03_07.267,0,30.2,0,0.759,0,0,0,0, ,0,0,0,0,0, ,-4,-314.2,952.8,-0.3,0,-1.8,25,1.40173,-314.15,953.535,-0.478699,-0.105537,-1.77913,
2026_07_06_15_03_07.286,0,30.1,0,0.76,0,0,0,0, ,0,0,0,0,0, ,-1,-316.2,957.5,-0.5,0.1,-1.8,25,1.16397,-314.214,953.634,-0.473903,-0.0960588,-1.7804,
2026_07_06_15_03_07.306,0,30.1,0,0.759,0,0,0,0, ,0,0,0,0,0, ,-1.9,-307.7,951.5,-0.8,-0.2,-1.7,25,1.00468,-314.076,953.687,-0.484634,-0.0932521,-1.77855,
2026_07_06_15_03_07.326,0,30.1,0,0.758,0,0,0,0, ,0,0,0,0,0, ,1.5,-314.6,953,-0.3,-0.3,-2.1,25,0.931267,-313.897,953.599,-0.488617,-0.102804,-1.78595,
2026_07_06_15_03_07.346,0,30.1,0,0.758,0,0,0,0, ,0,0,0,0,0, ,0.1,-313.5,955.6,-0.7,0,-1.9,25,0.923268,-313.907,953.642,-0.489311,-0.10568,-1.799,
2026_07_06_15_03_07.365,0,30.1,0,0.76,0,0,0,0, ,0,0,0,0,0, ,1,-316.8,954.5,-0.8,0.4,-2,25,0.900522,-313.983,953.728,-0.505197,-0.0870526,-1.8082,
2026_07_06_15_03_07.386,0,30.1,0,0.759,0,0,0,0, ,0,0,0,0,0, ,2.8,-313.3,949.9,-0.7,0.4,-1.7,25,0.961428,-314.048,953.635,-0.520114,-0.0573728,-1.81075,
2026_07_06_15_03_07.406,0,30.1,0,0.759,0,0,0,0, ,0,0,0,0,0, ,-0.4,-314.2,953.8,-0.2,-0.3,-1.6,25,0.975966,-314.029,953.526,-0.515842,-0.0508298,-1.80095,
2026_07_06_15_03_07.425,0,30.1,0,0.759,0,0,0,0, ,0,0,0,0,0, ,-1,-310,957,-0.4,-0.4,-1.3,25,0.873837,-313.912,953.64,-0.502689,-0.0690605,-1.77956,
2026_07_06_15_03_07.445,0,30.1,0,0.76,0,0,0,0, ,0,0,0,0,0, ,-2.3,-314.6,953.7,-0.7,-0.3,-1.7,25,0.72004,-313.814,953.744,-0.505572,-0.0861802,-1.76253,
2026_07_06_15_03_07.465,0,30.1,0,0.761,0,0,0,0, ,0,0,0,0,0, ,-0.3,-313.7,953.1,-0.3,0,-1.8,25,0.596944,-313.834,953.723,-0.505232,-0.0900692,-1.76176,
2026_07_06_15_03_07.485,0,30.1,0,0.759,0,0,0,0, ,0,0,0,0,0, ,-2.4,-315,952.1,-0.4,0,-2,25,0.478302,-313.866,953.655,-0.495773,-0.0845807,-1.77019,
2026_07_06_15_03_07.504,0,30.1,0,0.76,0,0,0,0, ,0,0,0,0,0, ,1.8,-313.8,952.6,-0.3,-0.8,-1.8,25,0.430875,-313.898,953.575,-0.48689,-0.103802,-1.7781,
2026_07_06_15_03_07.524,0,30.1,0,0.759,0,0,0,0, ,0,0,0,0,0, ,2.3,-314.3,955.5,-0.1,-0.2,-1.6,25,0.52954,-313.907,953.604,-0.469407,-0.127945,-1.77334,
2026_07_06_15_03_07.544,0,30.1,0,0.76,0,0,0,0, ,0,0,0,0,0, ,-2,-310.5,956,-0.6,-0.2,-1,25,0.506412,-313.816,953.735,-0.462131,-0.132336,-1.7445,
2026_07_06_15_03_07.564,0,30.1,0,0.759,0,0,0,0, ,0,0,0,0,0, ,-2.9,-315.3,950,-0.5,-0.3,-2.1,25,0.326255,-313.76,953.69,-0.467486,-0.139506,-1.73264,
2026_07_06_15_03_07.584,0,30.1,0,0.76,0,0,0,0, ,0,0,0,0,0, ,2.3,-310.9,954.8,-0.4,-0.5,-1.6,25,0.288093,-313.72,953.612,-0.46642,-0.15538,-1.73979,
2026_07_06_15_03_07.603,0,30.1,0,0.76,0,0,0,0, ,0,0,0,0,0, ,-0.4,-313.5,953.6,-0.2,0,-1.7,25,0.328428,-313.627,953.647,-0.456279,-0.161146,-1.73432,
2026_07_06_15_03_07.625,0,30.1,0,0.759,0,0,0,0, ,0,0,0,0,0, ,-3.5,-313.9,956.2,-0.9,1,-1.8,25,0.189586,-313.631,953.724,-0.46199,-0.120857,-1.73528,
2026_07_06_15_03_07.643,0,30.1,0,0.76,0,0,0,0, ,0,0,0,0,0, ,-7.4,-311.4,949.8,-0.7,0,-2.1,25,-0.154076,-313.572,953.68,-0.482587,-0.0830236,-1.74836,
2026_07_06_15_03_07.663,0,30.1,0,0.759,0,0,0,0, ,0,0,0,0,0, ,1.5,-314.8,952.3,-0.4,-0.8,-2,25,-0.324453,-313.543,953.519,-0.486695,-0.102339,-1.76674,
2026_07_06_15_03_07.683,0,30.1,0,0.76,0,0,0,0, ,0,0,0,0,0, ,4,-311.7,955.2,-0.4,-0.7,-1.8,25,-0.137103,-313.525,953.533,-0.481412,-0.141806,-1.77486,
2026_07_06_15_03_07.702,0,30.1,0,0.76,0,0,0,0, ,0,0,0,0,0, ,0.9,-314.2,957.6,-0.7,0,-1.5,25,0.0205484,-313.49,953.708,-0.485592,-0.154493,-1.76726,
2026_07_06_15_03_07.722,0,30.1,0,0.76,0,0,0,0, ,0,0,0,0,0, ,-1.4,-313.5,951.7,-1,0.2,-1.6,25,0.00406189,-313.512,953.766,-0.507798,-0.138985,-1.75402,
2026_07_06_15_03_07.742,0,30.1,0,0.759,0,0,0,0, ,0,0,0,0,0, ,-3.6,-315.7,946.2,-0.3,-1,-1.3,25,-0.148529,-313.578,953.472,-0.516463,-0.15489,-1.73549,
2026_07_06_15_03_07.762,0,30.1,0,0.758,0,0,0,0, ,0,0,0,0,0, ,-3.2,-312.3,955.9,0,-1.2,-1.4,25,-0.346666,-313.604,953.324,-0.494132,-0.212483,-1.712,
2026_07_06_15_03_07.782,0,30.1,0,0.76,0,0,0,0, ,0,0,0,0,0, ,0.3,-313.2,961.1,-0.7,0.4,-1.9,25,-0.4139,-313.552,953.64,-0.485349,-0.22391,-1.70822,
2026_07_06_15_03_07.803,0,30.1,0,0.76,0,0,0,0, ,0,0,0,0,0, ,-4.2,-313.3,948.6,-1,0.7,-1.8,25,-0.507506,-313.533,953.714,-0.50757,-0.17675,-1.71686,
2026_07_06_15_03_07.822,0,30.1,0,0.758,0,0,0,0, ,0,0,0,0,0, ,-0.1,-315.5,948.4,-0.2,-0.8,-1.8,25,-0.607596,-313.586,953.396,-0.513202,-0.169026,-1.72193,
2026_07_06_15_03_07.847,0,30.1,0,0.76,0,0,0,0, ,0,0,0,0,0, ,-0.6,-312.8,957.1,-0.1,-0.9,-1.3,25,-0.591899,-313.621,953.357,-0.49107,-0.210523,-1.71145,
2026_07_06_15_03_07.861,0,30.1,0,0.759,0,0,0,0, ,0,0,0,0,0, ,-5.1,-312.5,956.9,-0.8,-0.2,-1.8,25,-0.729502,-313.561,953.579,-0.488567,-0.23121,-1.70161,
2026_07_06_15_03_07.881,0,30.1,0,0.759,0,0,0,0, ,0,0,0,0,0, ,-2.8,-314.6,947.5,-0.6,-0.7,-2,25,-0.925751,-313.561,953.495,-0.501451,-0.244542,-1.7137,
2026_07_06_15_03_07.901,0,30.1,0,0.76,0,0,0,0, ,0,0,0,0,0, ,-0.4,-312.2,953.8,-0.1,-1,-2,25,-0.966838,-313.551,953.321,-0.492222,-0.281437,-1.73115,
2026_07_06_15_03_07.920,0,30.1,0,0.76,0,0,0,0, ,0,0,0,0,0, ,1.4,-313.5,958.4,-0.5,0,-2.1,25,-0.877452,-313.508,953.491,-0.480509,-0.294756,-1.75058,
2026_07_06_15_03_07.940,0,30.1,0,0.759,0,0,0,0, ,0,0,0,0,0, ,-2.6,-312.6,953.2,-0.9,0.5,-2,25,-0.860545,-313.48,953.631,-0.493884,-0.26156,-1.76882,
2026_07_06_15_03_07.960,0,30.1,0,0.759,0,0,0,0, ,0,0,0,0,0, ,-0.8,-316.8,948.7,-0.2,-0.2,-2.1,25,-0.911699,-313.555,953.468,-0.497304,-0.23648,-1.78596,
2026_07_06_15_03_07.980,0,30,0,0.758,0,0,0,0, ,0,0,0,0,0, ,1.5,-313.3,955.6,-0.3,-1,-1.4,25,-0.834815,-313.646,953.388,-0.482233,-0.258632,-1.78377,
2026_07_06_15_03_08.000,0,30.1,0,0.759,0,0,0,0, ,0,0,0,0,0, ,-2.8,-314.2,951.7,-0.4,-0.1,-1.7,25,-0.823552,-313.652,953.404,-0.474175,-0.276388,-1.76952,
2026_07_06_15_03_08.019,0,30.1,0,0.76,0,0,0,0, ,0,0,0,0,0, ,-2.1,-311.6,956.7,-0.4,0,-1.7,25,-0.922664,-313.606,953.452,-0.469655,-0.262592,-1.76529,
2026_07_06_15_03_08.040,0,30.2,0,0.761,0,0,0,0, ,0,0,0,0,0, ,-4.8,-313.1,957.3,-0.7,0,-2.1,25,-1.07667,-313.53,953.668,-0.474551,-0.24659,-1.77349,
2026_07_06_15_03_08.059,0,30.2,0,0.76,0,0,0,0, ,0,0,0,0,0, ,-2,-316.7,945.9,-0.4,-0.3,-2,25,-1.21825,-313.613,953.542,-0.479149,-0.240704,-1.79034,
2026_07_06_15_03_08.079,0,30.2,0,0.759,0,0,0,0, ,0,0,0,0,0, ,2.3,-311.8,954.8,0.2,-1.8,-1.6,25,-1.13487,-313.652,953.348,-0.456045,-0.290021,-1.79093,
2026_07_06_15_03_08.099,0,30.2,0,0.759,0,0,0,0, ,0,0,0,0,0, ,-0.7,-310.9,957.5,-0.5,-0.5,-1.6,25,-1.01697,-313.512,953.519,-0.437395,-0.342426,-1.7793,
2026_07_06_15_03_08.119,0,30.2,0,0.76,0,0,0,0, ,0,0,0,0,0, ,-0.6,-314.5,957.1,-0.7,0.9,-2.1,25,-0.994605,-313.462,953.749,-0.447304,-0.309372,-1.78361,
2026_07_06_15_03_08.139,0,30.2,0,0.76,0,0,0,0, ,0,0,0,0,0, ,0.8,-314.4,947,-0.4,-0.4,-1.4,25,-0.927903,-313.522,953.645,-0.453562,-0.275285,-1.78156,
2026_07_06_15_03_08.158,0,30.2,0,0.76,0,0,0,0, ,0,0,0,0,0, ,-3.4,-311.8,954.9,-0.1,-0.4,-1.3,25,-0.950577,-313.497,953.481,-0.441157,-0.282885,-1.75526,
2026_07_06_15_03_08.178,0,30.2,0,0.76,0,0,0,0, ,0,0,0,0,0, ,-4.8,-312.6,953,-0.5,0,-1.8,25,-1.1425,-313.418,953.51,-0.432556,-0.277834,-1.74275,
2026_07_06_15_03_08.198,0,30.2,0,0.759,0,0,0,0, ,0,0,0,0,0, ,-3.4,-311.4,952.5,-0.6,-0.9,-1.8,25,-1.32272,-313.331,953.463,-0.439712,-0.288325,-1.74624,
2026_07_06_15_03_08.217,0,30.2,0,0.759,0,0,0,0, ,0,0,0,0,0, ,-3,-312.9,954.7,-0.5,-0.2,-2.3,25,-1.43711,-313.259,953.472,-0.446433,-0.304271,-1.76475,
2026_07_06_15_03_08.237,0,30.2,0,0.758,0,0,0,0, ,0,0,0,0,0, ,4,-312.9,953.4,-0.7,0.1,-2.2,25,-1.31907,-313.237,953.507,-0.455791,-0.288777,-1.79432,
2026_07_06_15_03_08.258,0,30.2,0,0.76,0,0,0,0, ,0,0,0,0,0, ,1.8,-313.5,950,-0.4,-0.7,-1.3,25,-1.06197,-313.235,953.397,-0.461532,-0.289461,-1.79162,
2026_07_06_15_03_08.282,0,30.2,0,0.76,0,0,0,0, ,0,0,0,0,0, ,-3,-311.6,957.7,-0.4,-0.4,-1.4,25,-1.03382,-313.193,953.424,-0.457782,-0.305337,-1.76471,
2026_07_06_15_03_08.296,0,30.2,0,0.758,0,0,0,0, ,0,0,0,0,0, ,-5,-312.2,954.4,-0.8,0,-1.8,25,-1.21457,-313.115,953.584,-0.466449,-0.298918,-1.75467,
2026_07_06_15_03_08.317,0,30.2,0,0.759,0,0,0,0, ,0,0,0,0,0, ,-1.8,-313.4,949.9,-0.8,-0.3,-1.7,25,-1.34775,-313.095,953.497,-0.486774,-0.289843,-1.75439,
2026_07_06_15_03_08.336,0,30.2,0,0.758,0,0,0,0, ,0,0,0,0,0, ,-2.6,-312.9,953,-0.5,-1,-1.5,25,-1.39968,-313.099,953.372,-0.496721,-0.311791,-1.74498,
2026_07_06_15_03_08.356,0,30.2,0,0.76,0,0,0,0, ,0,0,0,0,0, ,-4.8,-308.2,952.2,-0.4,-0.8,-1.9,25,-1.53986,-312.943,953.325,-0.493874,-0.347635,-1.74224,
2026_07_06_15_03_08.376,0,30.2,0,0.76,0,0,0,0, ,0,0,0,0,0, ,1.3,-318.8,957.8,-0.4,-0.4,-2.7,25,-1.55266,-312.977,953.427,-0.488153,-0.363013,-1.77623,
2026_07_06_15_03_08.397,0,30.2,0,0.76,0,0,0,0, ,0,0,0,0,0, ,3.4,-314.3,954.2,-1,0.1,-1.5,25,-1.31484,-313.195,953.584,-0.501063,-0.350033,-1.79596,
2026_07_06_15_03_08.416,0,30.1,0,0.76,0,0,0,0, ,0,0,0,0,0, ,-2.5,-313.8,949.4,-0.4,0.1,-1.5,25,-1.2073,-313.247,953.475,-0.513186,-0.322609,-1.77792,
2026_07_06_15_03_08.436,0,30.2,0,0.759,0,0,0,0, ,0,0,0,0,0, ,-3.9,-312.7,951,-0.2,-0.2,-1.2,25,-1.32873,-313.247,953.276,-0.500195,-0.305997,-1.75185,
2026_07_06_15_03_08.456,0,30.2,0,0.758,0,0,0,0, ,0,0,0,0,0, ,-6.7,-311.7,954.8,-0.5,-0.9,-1.8,25,-1.57073,-313.184,953.253,-0.491042,-0.320866,-1.7365,
2026_07_06_15_03_08.475,0,30.1,0,0.759,0,0,0,0, ,0,0,0,0,0, ,-1.9,-310.9,955.8,-0.6,-0.9,-2.1,25,-1.73704,-313.069,953.378,-0.494635,-0.356157,-1.74951,
2026_07_06_15_03_08.495,0,30.1,0,0.759,0,0,0,0, ,0,0,0,0,0, ,2.4,-314.5,952.2,-0.4,0,-2.2,25,-1.61596,-313.046,953.416,-0.494962,-0.361875,-1.77391,
2026_07_06_15_03_08.516,0,30.1,0,0.759,0,0,0,0, ,0,0,0,0,0, ,1.8,-312.9,956.1,-0.4,0.2,-1.6,25,-1.38952,-313.086,953.46,-0.489175,-0.33373,-1.7816,
2026_07_06_15_03_08.534,0,30.2,0,0.758,0,0,0,0, ,0,0,0,0,0, ,-3,-313.7,957.8,-1.2,1.2,-1.7,25,-1.34141,-313.099,953.673,-0.508116,-0.270737,-1.77358,
2026_07_06_15_03_08.554,0,30.2,0,0.759,0,0,0,0, ,0,0,0,0,0, ,-3.7,-314.8,947.8,-0.8,0.3,-1.7,25,-1.4638,-313.169,953.62,-0.53809,-0.208536,-1.76909,
2026_07_06_15_03_08.575,0,30.1,0,0.76,0,0,0,0, ,0,0,0,0,0, ,-2.4,-312.1,951.7,-0.4,-1.3,-1.2,25,-1.56046,-313.186,953.384,-0.541863,-0.226297,-1.74965,
2026_07_06_15_03_08.595,0,30.1,0,0.76,0,0,0,0, ,0,0,0,0,0, ,-5.9,-309.9,959.4,-0.4,-0.7,-1.9,25,-1.71826,-313.053,953.516,-0.533218,-0.273444,-1.73748,
2026_07_06_15_03_08.614,0,30.1,0,0.758,0,0,0,0, ,0,0,0,0,0, ,-2.6,-305.6,953.4,-0.7,0,-2.5,25,-1.87254,-312.73,953.692,-0.534241,-0.278109,-1.76567,
2026_07_06_15_03_08.634,0,30.1,0,0.758,0,0,0,0, ,0,0,0,0,0, ,1.9,-313.8,952.1,-0.2,0.4,-2.4,25,-1.77976,-312.545,953.634,-0.529107,-0.248975,-1.80737,
2026_07_06_15_03_08.654,0,30.1,0,0.759,0,0,0,0, ,0,0,0,0,0, ,-3,-314.9,953,-0.5,-0.6,-1.7,25,-1.70482,-312.655,953.568,-0.518193,-0.239896,-1.82215,
2026_07_06_15_03_08.674,0,30.1,0,0.759,0,0,0,0, ,0,0,0,0,0, ,-3.5,-308.7,953.3,-0.6,-0.9,-1.7,25,-1.79898,-312.603,953.543,-0.520131,-0.270981,-1.81471,
2026_07_06_15_03_08.693,0,30.1,0,0.761,0,0,0,0, ,0,0,0,0,0, ,-0.6,-316,953.1,-0.1,-0.4,-2.2,25,-1.81428,-312.588,953.522,-0.509764,-0.294077,-1.82296,
2026_07_06_15_03_08.714,0,30.2,0,0.759,0,0,0,0, ,0,0,0,0,0, ,1.5,-314.6,956.6,-0.7,-1,-1.5,25,-1.6763,-312.753,953.603,-0.503075,-0.318813,-1.8246,
2026_07_06_15_03_08.733,0,30.2,0,0.759,0,0,0,0, ,0,0,0,0,0, ,-0.9,-313.7,952.5,-0.7,-0.1,-1.5,25,-1.55587,-312.838,953.661,-0.515075,-0.332901,-1.80482,
2026_07_06_15_03_08.753,0,30.1,0,0.761,0,0,0,0, ,0,0,0,0,0, ,-3.9,-310.7,950.3,-0.4,-0.8,-1.5,25,-1.60731,-312.799,953.523,-0.517203,-0.340037,-1.78625,
2026_07_06_15_03_08.773,0,30.1,0,0.759,0,0,0,0, ,0,0,0,0,0, ,-1.9,-313.3,955.3,-0.3,-1.4,-1.9,25,-1.68608,-312.751,953.479,-0.507014,-0.386347,-1.78099,
2026_07_06_15_03_08.793,0,30.1,0,0.759,0,0,0,0, ,0,0,0,0,0, ,0.6,-312.8,952,-0.5,-0.2,-1.7,25,-1.62294,-312.769,953.489,-0.500493,-0.411554,-1.78215,
2026_07_06_15_03_08.812,0,30.2,0,0.758,0,0,0,0, ,0,0,0,0,0, ,-1.3,-313.9,952,-0.1,0.1,-2,25,-1.54537,-312.804,953.398,-0.488276,-0.389522,-1.78628,
2026_07_06_15_03_08.831,0,30.1,0,0.759,0,0,0,0, ,0,0,0,0,0, ,-2.3,-312.6,953.4,-0.3,-0.2,-1.8,25,-1.56089,-312.831,953.356,-0.470709,-0.368832,-1.79321,
2026_07_06_15_03_08.851,0,30.1,0,0.76,0,0,0,0, ,0,0,0,0,0, ,-2.4,-311.5,961.1,-0.8,1.1,-2.2,25,-1.60898,-312.784,953.593,-0.475541,-0.318935,-1.80582,
2026_07_06_15_03_08.872,0,30.1,0,0.758,0,0,0,0, ,0,0,0,0,0, ,-4.8,-313.4,946.7,-1.2,-0.3,-1.7,25,-1.7303,-312.763,953.612,-0.5075,-0.275125,-1.8146,
2026_07_06_15_03_08.892,0,30.1,0,0.759,0,0,0,0, ,0,0,0,0,0, ,-1.4,-312,954.4,-0.2,-2.5,-2,25,-1.81377,-312.76,953.425,-0.51923,-0.343672,-1.81676,
2026_07_06_15_03_08.912,0,30.2,0,0.759,0,0,0,0, ,0,0,0,0,0, ,1.5,-309.9,961.5,-1.7,-2.7,-1.8,25,-1.7002,-312.649,953.701,-0.54548,-0.481167,-1.82183,
2026_07_06_15_03_08.931,0,30.2,0,0.758,0,0,0,0, ,0,0,0,0,0, ,0,-310.4,977.7,-3,-2.4,-1.9,25,-1.55089,-312.497,954.67,-0.655443,-0.607236,-1.82355,
2026_07_06_15_03_08.957,0,30.3,0,0.759,0,0,0,0, ,0,0,0,0,0, ,-11.9,-310.4,975.8,-7,1.2,-1.6,25,-1.81896,-312.369,956.015,-0.92019,-0.606795,-1.81907,
2026_07_06_15_03_08.971,0,30.1,0,0.759,0,0,0,0, ,0,0,0,0,0, ,7.8,-317.9,951.2,-8,-0.5,-4,25,-1.83304,-312.478,956.471,-1.32115,-0.548491,-1.87884,
2026_07_06_15_03_08.990,0,30.2,0,0.76,0,0,0,0, ,0,0,0,0,0, ,50.1,-331,957,-7.8,-3.1,-1.1,25,0.042803,-313.207,956.327,-1.72205,-0.624754,-1.91974,
2026_07_06_15_03_09.010,0,30.2,0,0.759,0,0,0,0, ,0,0,0,0,0, ,45.6,-331,946,-11.9,-8.9,4.3,25,2.95605,-314.292,956.033,-2.21734,-0.952308,-1.70526,
2026_07_06_15_03_09.031,0,30.1,0,0.759,0,0,0,0, ,0,0,0,0,0, ,9.6,-374.5,913.4,-12.5,-19.2,5.2,25,4.45779,-316.635,954.428,-2.82566,-1.75045,-1.31189,
2026_07_06_15_03_09.050,0,30.1,0,0.758,0,0,0,0, ,0,0,0,0,0, ,3.4,-320.6,972.2,-9.9,-12.2,5.9,25,4.58224,-318.519,953.72,-3.33597,-2.6005,-0.893743,
2026_07_06_15_03_09.071,0,30.1,0,0.76,0,0,0,0, ,0,0,0,0,0, ,32.2,-288.3,950.4,-6.1,8.9,0.6,25,5.3877,-317.662,954.181,-3.62019,-2.54258,-0.641233,
2026_07_06_15_03_09.089,0,30.2,0,0.759,0,0,0,0, ,0,0,0,0,0, ,13.3,-289,921.1,-4.7,6.1,-7.2,25,6.44571,-315.894,953.058,-3.72864,-1.93061,-0.803252,
2026_07_06_15_03_09.110,0,30.2,0,0.758,0,0,0,0, ,0,0,0,0,0, ,23.9,-304.8,963.8,-3.9,-12.3,-10.7,25,7.18637,-314.736,952.412,-3.76346,-2.00187,-1.29969,
2026_07_06_15_03_09.129,0,30.2,0,0.76,0,0,0,0, ,0,0,0,0,0, ,4.3,-321.2,926.8,-3.1,-3.4,-7.8,25,7.60766,-314.631,951.978,-3.74741,-2.35824,-1.78417,
2026_07_06_15_03_09.149,0,30.2,0,0.759,0,0,0,0, ,0,0,0,0,0, ,-32.5,-308.8,913.2,4.4,-2.5,-11.2,25,6.28485,-314.653,950.03,-3.47944,-2.3943,-2.25435,
2026_07_06_15_03_09.171,0,30.2,0,0.758,0,0,0,0, ,0,0,0,0,0, ,-28.1,-309.2,926.2,6.7,-7,-13.1,25,4.05546,-314.309,948.182,-2.92921,-2.53785,-2.85737,
2026_07_06_15_03_09.191,0,30.2,0,0.761,0,0,0,0, ,0,0,0,0,0, ,-14.7,-311.7,974.7,6.6,-7,-16.5,25,2.50427,-314.073,948.32,-2.34547,-2.80976,-3.58512,
2026_07_06_15_03_09.208,0,30,0,0.758,0,0,0,0, ,0,0,0,0,0, ,111.9,-312.6,1103.1,-18.7,-29.2,-42.1,25,5.31323,-313.956,953.84,-2.57122,-3.74151,-5.15212,
2026_07_06_15_03_09.229,0,30.2,0,0.758,0,0,0,0, ,0,0,0,0,0, ,153.6,-390,1053.1,-47.4,-61.8,-43.1,25,13.0789,-316.232,961.412,-4.42852,-6.28617,-7.4341,
2026_07_06_15_03_09.248,0,30.1,0,0.76,0,0,0,0, ,0,0,0,0,0, ,163.6,-402.8,956.2,-34.6,-37.2,-22.7,25,21.9466,-321.117,964.046,-6.65709,-8.91951,-8.98593,
2026_07_06_15_03_09.268,0,30.2,0,0.759,0,0,0,0, ,0,0,0,0,0, ,94.3,-396.3,948.8,-25.8,-19.4,-19.3,25,28.4671,-325.897,963.343,-8.09174,-10.1005,-9.71804,
2026_07_06_15_03_09.288,0,30.2,0,0.76,0,0,0,0, ,0,0,0,0,0, ,99.2,-396.7,924.8,-24.6,-15.2,-18.9,25,32.6281,-330.199,961.725,-9.13427,-10.5392,-10.2897,
2026_07_06_15_03_09.308,0,30.2,0,0.76,0,0,0,0, ,0,0,0,0,0, ,43.4,-371.2,1051.2,-29.8,-18.2,-8.1,25,34.9847,-333.474,963.327,-10.2352,-10.9147,-10.4854,
2026_07_06_15_03_09.328,0,30.1,0,0.761,0,0,0,0, ,0,0,0,0,0, ,151.4,-408.5,981,-36.8,-20,-34.1,25,38.7881,-336.91,966.542,-11.6407,-11.4134,-11.1322,
2026_07_06_15_03_09.348,0,30.1,0,0.758,0,0,0,0, ,0,0,0,0,0, ,115.1,-537.1,790.4,13.7,-51.3,-30.3,25,44.5444,-345.191,961.616,-11.6351,-12.8904,-12.416,
2026_07_06_15_03_09.367,0,30.1,0,0.758,0,0,0,0, ,0,0,0,0,0, ,165.1,-437.9,981.5,-13.2,-66.2,-1.6,25,50.3673,-353.863,957.005,-10.9109,-15.6849,-12.6314,
2026_07_06_15_03_09.388,0,30.1,0,0.759,0,0,0,0, ,0,0,0,0,0, ,91.7,-376.3,889.7,-12.8,-47.8,-1.1,25,55.1224,-357.107,955.701,-11.0382,-18.2026,-11.9439,
2026_07_06_15_03_09.408,0,30.1,0,0.759,0,0,0,0, ,0,0,0,0,0, ,74.9,-348.7,866.2,-6,-50.1,-6.5,25,56.8395,-357.435,950.963,-10.9384,-20.0762,-11.4476,
2026_07_06_15_03_09.429,0,30.2,0,0.758,0,0,0,0, ,0,0,0,0,0, ,143.4,-374.3,852.5,-13,-61.2,-12.3,25,60.0272,-357.683,945.38,-10.8507,-22.244,-11.3229,
2026_07_06_15_03_09.447,0,30.1,0,0.758,0,0,0,0, ,0,0,0,0,0, ,195,-404.6,838.2,-23.1,-74.3,-16.9,25,66.6799,-359.619,939.285,-11.2894,-25.017,-11.5226,
2026_07_06_15_03_09.467,0,30.1,0,0.759,0,0,0,0, ,0,0,0,0,0, ,231.6,-371.9,797.1,-25.1,-84.8,-12.5,25,75.6145,-361.364,931.873,-12.0701,-28.3401,-11.7162,
2026_07_06_15_03_09.486,0,30.2,0,0.76,0,0,0,0, ,0,0,0,0,0, ,256.3,-366.2,818.2,-13.8,-81.9,4.7,25,85.8725,-361.832,924.303,-12.5198,-31.6923,-11.2399,
2026_07_06_15_03_09.507,0,30.1,0,0.76,0,0,0,0, ,0,0,0,0,0, ,281.9,-351.9,822.8,-5.6,-70.4,12.9,25,97.0379,-361.662,917.977,-12.348,-34.4014,-10.0187,
2026_07_06_15_03_09.526,0,30.2,0,0.761,0,0,0,0, ,0,0,0,0,0, ,258.3,-388.9,766.3,5.2,-48.6,-5.6,25,107.584,-362.195,910.456,-11.6077,-35.9309,-9.18577,
2026_07_06_15_03_09.546,0,30.2,0,0.76,0,0,0,0, ,0,0,0,0,0, ,371.2,-480.1,781.6,-15.1,-41,-34.6,25,120.208,-366.601,902.138,-11.202,-36.4713,-9.85086,
2026_07_06_15_03_09.566,0,30.2,0,0.759,0,0,0,0, ,0,0,0,0,0, ,444.2,-454.9,817.2,-21.9,-62.6,-39.2,25,137.727,-372.75,895.877,-11.6467,-37.4054,-11.4992,
2026_07_06_15_03_09.586,0,30.2,0,0.759,0,0,0,0, ,0,0,0,0,0, ,411.3,-424,827.8,10.8,-64.9,-11.5,25,155.4,-376.814,891.406,-11.2752,-39.0108,-12.3432,
2026_07_06_15_03_09.605,0,30.1,0,0.759,0,0,0,0, ,0,0,0,0,0, ,310.5,-433.3,884,-11.4,-69.4,-5.6,25,167.923,-379.973,889.242,-10.6064,-40.7255,-12.1121,
2026_07_06_15_03_09.626,0,30.1,0,0.759,0,0,0,0, ,0,0,0,0,0, ,350.8,-442.5,858,-20.9,-68.1,-15,25,177.839,-383.503,888.13,-10.9442,-42.4333,-12.0016,
2026_07_06_15_03_09.648,0,30.2,0,0.76,0,0,0,0, ,0,0,0,0,0, ,381.7,-442.3,824.2,-34.1,-61,-19,25,189.32,-387.092,885.264,-11.9531,-43.781,-12.3062,
2026_07_06_15_03_09.668,0,30.1,0,0.758,0,0,0,0, ,0,0,0,0,0, ,420,-481.3,829.1,-28.2,-57.1,-24.9,25,202.211,-391.644,881.693,-13.1229,-44.7115,-12.8939,
2026_07_06_15_03_09.685,0,30.2,0,0.758,0,0,0,0, ,0,0,0,0,0, ,418.7,-440.9,805.7,-22.4,-68.3,-30.3,25,215.442,-395.877,877.775,-13.8649,-45.8076,-13.79,
2026_07_06_15_03_09.706,0,30.2,0,0.76,0,0,0,0, ,0,0,0,0,0, ,435.6,-454.7,787.1,-25.5,-65.8,-33.1,25,228.343,-399.041,872.816,-14.4795,-47.1021,-14.8814,
2026_07_06_15_03_09.723,0,30.1,0,0.759,0,0,0,0, ,0,0,0,0,0, ,525.7,-443.3,784.9,-26.3,-71.1,-36.5,25,243.718,-402.085,867.526,-15.1754,-48.403,-16.0952,
2026_07_06_15_03_09.745,0,30.1,0,0.76,0,0,0,0, ,0,0,0,0,0, ,572.7,-469.9,759.1,-20.9,-71.8,-31.1,25,262.334,-405.407,861.705,-15.6888,-49.8074,-17.1741,
2026_07_06_15_03_09.763,0,30.1,0,0.758,0,0,0,0, ,0,0,0,0,0, ,560.5,-439.9,773.5,-23.5,-60.9,-29,25,280.875,-408.423,855.891,-16.0856,-50.8155,-17.9587,
2026_07_06_15_03_09.786,0,30,0,0.758,0,0,0,0, ,0,0,0,0,0, ,502,-331.6,701.9,-13.8,-53.4,-34.7,25,296.132,-407.042,848.689,-16.2418,-51.2015,-18.8052,
2026_07_06_15_03_09.803,0,30.1,0,0.759,0,0,0,0, ,0,0,0,0,0, ,618.4,-503.1,671.3,-8.7,-61.7,-51.9,25,312.224,-407.67,838.811,-15.9377,-51.5884,-20.2979,
2026_07_06_15_03_09.824,0,30,0,0.758,0,0,0,0, ,0,0,0,0,0, ,636.3,-412.9,705.8,-31.3,-74.3,-30.5,25,331.427,-410.737,829.655,-16.1852,-52.5884,-21.5716,
2026_07_06_15_03_09.843,0,30.1,0,0.759,0,0,0,0, ,0,0,0,0,0, ,627.9,-419.3,665.1,-30.1,-84,-35.3,25,349.749,-411.064,820.867,-17.0697,-54.207,-22.2619,
2026_07_06_15_03_09.865,0,30.2,0,0.76,0,0,0,0, ,0,0,0,0,0, ,661.4,-428.2,670.2,-25.5,-80.1,-39.9,25,367.72,-411.837,811.531,-17.7236,-55.9037,-23.1966,
2026_07_06_15_03_09.882,0,30.1,0,0.76,0,0,0,0, ,0,0,0,0,0, ,680.4,-422.8,629.3,-24.4,-77,-31.9,25,386.195,-412.669,801.672,-18.1639,-57.2837,-23.9707,
2026_07_06_15_03_09.909,0,30.2,0,0.76,0,0,0,0, ,0,0,0,0,0, ,688.4,-417.6,619,-20.5,-75,-28.8,25,404.366,-413.128,790.854,-18.4251,-58.4242,-24.3594,
2026_07_06_15_03_09.922,0,30.1,0,0.76,0,0,0,0, ,0,0,0,0,0, ,684.2,-422.1,571.7,-8.7,-68.4,-29.8,25,421.547,-413.538,778.941,-18.192,-59.2332,-24.6605,
2026_07_06_15_03_09.943,0,30.1,0,0.759,0,0,0,0, ,0,0,0,0,0, ,652.5,-380.8,516.3,-8.3,-78.5,-36.2,25,436.586,-412.801,764.624,-17.6014,-60.0996,-25.1687,
2026_07_06_15_03_09.962,0,30.1,0,0.759,0,0,0,0, ,0,0,0,0,0, ,713.6,-372.6,499.5,-31,-99,-46.1,25,451.605,-410.601,748.98,-17.7263,-61.8455,-26.1426,
2026_07_06_15_03_09.982,0,30.2,0,0.759,0,0,0,0, ,0,0,0,0,0, ,783.3,-419.9,424.8,-26.4,-102.5,-48.4,25,469.694,-409.727,731.501,-18.395,-64.2162,-27.4288,
2026_07_06_15_03_10.001,0,30.1,0,0.758,0,0,0,0, ,0,0,0,0,0, ,826,-358.6,435.3,-34.7,-97.4,-39,25,490.106,-408.479,713.132,-19.1357,-66.3937,-28.4203,
2026_07_06_15_03_10.022,0,30,0,0.759,0,0,0,0, ,0,0,0,0,0, ,852.5,-415.7,432.2,-30.2,-91.1,-35.3,25,511.382,-407.179,696.107,-19.947,-68.0912,-28.9523,
2026_07_06_15_03_10.041,0,30.2,0,0.759,0,0,0,0, ,0,0,0,0,0, ,821.5,-404.4,397,-24.4,-101.1,-28.5,25,531.224,-407.354,678.952,-20.3951,-69.798,-29.1319,
2026_07_06_15_03_10.062,0,30.2,0,0.759,0,0,0,0, ,0,0,0,0,0, ,804.5,-358.7,360.9,-20.9,-104.7,-23.9,25,548.395,-405.782,660.671,-20.5325,-71.8152,-28.9532,
2026_07_06_15_03_10.081,0,30.1,0,0.759,0,0,0,0, ,0,0,0,0,0, ,812.1,-357.1,333.2,-7.8,-94,-51,25,564.233,-402.864,641.56,-20.1557,-73.4931,-29.471,
2026_07_06_15_03_10.102,0,30.2,0,0.759,0,0,0,0, ,0,0,0,0,0, ,913.9,-383.5,296.3,-19.5,-86.5,-43.2,25,582.439,-400.88,621.645,-19.7593,-74.5142,-30.5453,
2026_07_06_15_03_10.120,0,30.1,0,0.759,0,0,0,0, ,0,0,0,0,0, ,1010.6,-349.8,236.9,-18.2,-71.8,-30.3,25,605.584,-398.794,600.009,-19.7039,-74.7967,-30.9234,
2026_07_06_15_03_10.142,0,30.1,0,0.76,0,0,0,0, ,0,0,0,0,0, ,987.9,-360.2,231.2,-26.7,-66,-29.7,25,629.573,-396.125,577.709,-19.8712,-74.4374,-30.8671,
2026_07_06_15_03_10.160,0,30.1,0,0.759,0,0,0,0, ,0,0,0,0,0, ,903.4,-348.2,198.4,-42.6,-70.4,-21.3,25,648.834,-393.57,555.594,-20.7718,-74.0573,-30.5401,
2026_07_06_15_03_10.182,0,30.2,0,0.758,0,0,0,0, ,0,0,0,0,0, ,829.8,-325,204.1,-52.1,-69.7,-19.3,25,662.104,-390.099,534.001,-22.3914,-73.8131,-29.9161,
2026_07_06_15_03_10.199,0,30.2,0,0.76,0,0,0,0, ,0,0,0,0,0, ,812.3,-369,216.9,-46.7,-69.9,-21,25,671.789,-387.472,514.288,-24.0373,-73.5685,-29.3209,
2026_07_06_15_03_10.222,0,30.1,0,0.76,0,0,0,0, ,0,0,0,0,0, ,858.7,-337.1,181,-39.5,-79.9,-18.5,25,681.766,-385.375,495.072,-25.1989,-73.6497,-28.7377,
2026_07_06_15_03_10.239,0,30.1,0,0.76,0,0,0,0, ,0,0,0,0,0, ,962.1,-312.8,96.5,-27.4,-64.6,-23.9,25,695.698,-381.693,473.358,-25.7017,-73.5644,-28.2784,
2026_07_06_15_03_10.260,0,30.1,0,0.76,0,0,0,0, ,0,0,0,0,0, ,937.5,-327.6,61.7,-8.8,-58.5,-28.5,25,711.182,-377.945,449.333,-25.2385,-72.8322,-28.1517,
2026_07_06_15_03_10.279,0,30.1,0,0.759,0,0,0,0, ,0,0,0,0,0, ,914.1,-321,98.2,-4.5,-62.4,-27.6,25,724.261,-374.676,426.824,-24.1057,-72.0777,-28.1455,
2026_07_06_15_03_10.301,0,30.1,0,0.759,0,0,0,0, ,0,0,0,0,0, ,871.4,-275.7,46,-14.7,-48.5,-27.8,25,734.528,-370.025,405.208,-23.2218,-71.0645,-28.1184,
2026_07_06_15_03_10.318,0,30.1,0,0.758,0,0,0,0, ,0,0,0,0,0, ,879.5,-271.6,26.4,2,-25,-40,25,743.115,-364.152,382.722,-22.1937,-68.9734,-28.4707,
2026_07_06_15_03_10.341,0,30.1,0,0.759,0,0,0,0, ,0,0,0,0,0, ,907.1,-263.4,28.1,-1,-20.6,-38.3,25,752.267,-358.263,361.06,-20.8108,-66.1597,-29.1215,
2026_07_06_15_03_10.357,0,30.2,0,0.76,0,0,0,0, ,0,0,0,0,0, ,1010.3,-276,-13.3,6.9,-27.4,-50,25,764.847,-352.866,339.509,-19.3628,-63.5906,-30.0373,
2026_07_06_15_03_10.380,0,30.2,0,0.759,0,0,0,0, ,0,0,0,0,0, ,1028.6,-248.2,-15.5,16.3,-12.2,-40.5,25,780.362,-347.335,317.943,-17.476,-60.9221,-30.9643,
2026_07_06_15_03_10.398,0,30.2,0,0.759,0,0,0,0, ,0,0,0,0,0, ,963.3,-260.2,7.3,1.3,-17.3,-18.9,25,793.499,-341.659,298.318,-15.8749,-58.1085,-30.8872,
2026_07_06_15_03_10.420,0,30.1,0,0.757,0,0,0,0, ,0,0,0,0,0, ,912.1,-221.4,-22.2,-1.2,-16.7,-20.7,25,802.286,-335.513,279.685,-14.9044,-55.6035,-30.2116,
2026_07_06_15_03_10.437,0,30.2,0,0.759,0,0,0,0, ,0,0,0,0,0, ,918.7,-204.5,-41,2.3,-8.2,-27.2,25,809.179,-328.045,260.716,-13.9627,-52.9738,-29.8301,
2026_07_06_15_03_10.459,0,30.1,0,0.759,0,0,0,0, ,0,0,0,0,0, ,940.6,-220.3,-18.4,16.7,-12.2,-32.7,25,816.52,-320.997,243.019,-12.5329,-50.3673,-29.8374,
2026_07_06_15_03_10.478,0,30.1,0,0.759,0,0,0,0, ,0,0,0,0,0, ,973.1,-223.7,22.9,11.6,-24.8,-33.2,25,825.072,-314.965,228.347,-10.9069,-48.4254,-30.027,
2026_07_06_15_03_10.500,0,30.1,0,0.759,0,0,0,0, ,0,0,0,0,0, ,976.8,-185,-11.7,7.7,-33.4,-31.9,25,834.205,-308.224,214.774,-9.65424,-47.2477,-30.1808,
2026_07_06_15_03_10.516,0,30.1,0,0.759,0,0,0,0, ,0,0,0,0,0, ,971.9,-109.1,-57.8,1.9,-40.3,-23.1,25,842.745,-298.403,199.568,-8.77344,-46.6141,-30.0174,
2026_07_06_15_03_10.540,0,30.1,0,0.757,0,0,0,0, ,0,0,0,0,0, ,939.5,-143.3,-32.5,21.1,-29,-27.8,25,849.628,-287.909,184.656,-7.53802,-45.885,-29.7391,
2026_07_06_15_03_10.556,0,30.2,0,0.759,0,0,0,0, ,0,0,0,0,0, ,974.2,-187.6,-12.8,6.1,-13.6,-42.8,25,856.162,-280.447,172.023,-6.24993,-44.3869,-30.078,
2026_07_06_15_03_10.578,0,30.1,0,0.758,0,0,0,0, ,0,0,0,0,0, ,1006.7,-182.3,-55.9,-0.3,-18.9,-32.1,25,864.345,-274.627,159.447,-5.69235,-42.6723,-30.5272,
2026_07_06_15_03_10.596,0,30.1,0,0.759,0,0,0,0, ,0,0,0,0,0, ,1000.3,-148.5,-90.2,-9.3,-26.6,-20.2,25,872.825,-267.971,145.279,-5.63797,-41.4583,-30.2605,
2026_07_06_15_03_10.618,0,30.1,0,0.759,0,0,0,0, ,0,0,0,0,0, ,950.9,-106.3,-83.2,-12.6,-39.3,-19.7,25,879.088,-259.405,131.143,-5.96168,-40.9398,-29.6322,
2026_07_06_15_03_10.635,0,30.1,0,0.758,0,0,0,0, ,0,0,0,0,0, ,940.3,-131.3,-61.2,-11,-42.1,-24.8,25,883.141,-250.837,118.752,-6.31745,-40.9252,-29.1823,
2026_07_06_15_03_10.658,0,30.1,0,0.759,0,0,0,0, ,0,0,0,0,0, ,947.6,-127,-60.3,-15.8,-39,-29.6,25,886.846,-243.422,107.814,-6.74904,-40.9023,-29.0615,
2026_07_06_15_03_10.675,0,30.2,0,0.76,0,0,0,0, ,0,0,0,0,0, ,1031.2,-117.1,-109.3,-26,-21.8,-17,25,893.096,-236.026,96.0762,-7.61137,-40.2623,-28.7104,
2026_07_06_15_03_10.698,0,30.1,0,0.761,0,0,0,0, ,0,0,0,0,0, ,1022.5,-102.6,-153.4,-21.8,-10.1,0.3,25,901.246,-228.337,82.2174,-8.60395,-38.7808,-27.4697,
2026_07_06_15_03_10.714,0,30.1,0,0.759,0,0,0,0, ,0,0,0,0,0, ,997.4,-131.3,-117,-31.2,-18.4,1.9,25,907.871,-221.549,68.9685,-9.69449,-37.286,-25.7287,
2026_07_06_15_03_10.737,0,30.1,0,0.759,0,0,0,0, ,0,0,0,0,0, ,964.7,-114.7,-110.1,-27.2,-14.7,-1.8,25,912.33,-215.544,57.8463,-10.8831,-36.0224,-24.1579,
2026_07_06_15_03_10.754,0,30.1,0,0.761,0,0,0,0, ,0,0,0,0,0, ,921.7,-102.5,-113,-10.5,-18.6,-40,25,914.211,-209.027,47.5237,-11.3686,-34.8419,-23.9593,
2026_07_06_15_03_10.776,0,30.1,0,0.758,0,0,0,0, ,0,0,0,0,0, ,944.7,-114.6,-132.4,-22,-12.6,-26.3,25,915.368,-202.904,37.1507,-11.6661,-33.6693,-24.5194,
2026_07_06_15_03_10.793,0,30.2,0,0.758,0,0,0,0, ,0,0,0,0,0, ,1026.8,-77.6,-199.8,-18,5.2,-20.2,25,919.657,-196.396,24.7651,-12.1739,-31.8431,-24.442,
2026_07_06_15_03_10.817,0,30.2,0,0.759,0,0,0,0, ,0,0,0,0,0, ,1005,-87.5,-139.1,-12.5,-4,-14,25,925.522,-189.458,12.9301,-12.3614,-29.8661,-23.9946,
2026_07_06_15_03_10.833,0,30.1,0,0.759,0,0,0,0, ,0,0,0,0,0, ,937.7,-62.3,-146.6,-11.2,-6.6,-10.2,25,928.315,-182.477,3.43728,-12.3302,-28.3691,-23.2698,
2026_07_06_15_03_10.856,0,30.2,0,0.758,0,0,0,0, ,0,0,0,0,0, ,943.4,-82.7,-128.9,-8.6,-2.5,-16.4,25,929.06,-175.776,-5.16631,-12.1821,-26.9176,-22.6623,
2026_07_06_15_03_10.873,0,30.1,0,0.76,0,0,0,0, ,0,0,0,0,0, ,929.9,-58.1,-145.8,-7.5,-9.5,-20.2,25,929.523,-169.354,-13.2213,-11.9303,-25.6429,-22.3964,
2026_07_06_15_03_10.896,0,30.2,0,0.759,0,0,0,0, ,0,0,0,0,0, ,926.6,-52.8,-126.9,-4.9,-17.6,-26,25,929.445,-162.413,-20.7244,-11.5811,-24.906,-22.4393,
2026_07_06_15_03_10.912,0,30.1,0,0.76,0,0,0,0, ,0,0,0,0,0, ,967.8,-70.4,-129.7,-3.2,-22.6,-33.9,25,930.527,-156.27,-27.2798,-11.1222,-24.6131,-22.897,
2026_07_06_15_03_10.936,0,30.2,0,0.76,0,0,0,0, ,0,0,0,0,0, ,1037.4,-43.5,-160.6,0.5,-22.4,-28.3,25,934.919,-150.218,-34.4625,-10.5267,-24.4844,-23.3969,
2026_07_06_15_03_10.953,0,30.1,0,0.758,0,0,0,0, ,0,0,0,0,0, ,1042.1,-64,-180,7.7,-14.1,-23.6,25,941.307,-144.339,-42.7401,-9.63538,-24.1045,-23.5524,
2026_07_06_15_03_10.977,0,30.2,0,0.759,0,0,0,0, ,0,0,0,0,0, ,981.4,27.8,-194.8,11.4,-9.5,-25.2,25,945.6,-136.646,-51.5553,-8.46627,-23.3547,-23.6041,
2026_07_06_15_03_10.991,0,30.2,0,0.759,0,0,0,0, ,0,0,0,0,0, ,927.1,16.9,-168.4,0.3,-9.7,-29,25,946.127,-126.958,-59.4799,-7.59387,-22.5165,-23.8171,
2026_07_06_15_03_11.015,0,30.2,0,0.758,0,0,0,0, ,0,0,0,0,0, ,948.4,-12.9,-173.8,1,-16,-32.8,25,945.616,-119.099,-66.2818,-7.09151,-21.9274,-24.2487,
2026_07_06_15_03_11.031,0,30.1,0,0.759,0,0,0,0, ,0,0,0,0,0, ,986.6,12,-191.8,14.1,-18.1,-27.2,25,946.95,-111.869,-73.3821,-6.19929,-21.6302,-24.5992,
2026_07_06_15_03_11.054,0,30.1,0,0.759,0,0,0,0, ,0,0,0,0,0, ,1038.6,10.8,-220,6.9,-13.4,-32.3,25,950.95,-104.357,-81.4574,-5.18168,-21.2719,-24.9131,
2026_07_06_15_03_11.071,0,30.2,0,0.761,0,0,0,0, ,0,0,0,0,0, ,989,56.7,-207.3,12.3,-3.2,-26.8,25,954.78,-95.9415,-89.5129,-4.28092,-20.4814,-25.1956,
2026_07_06_15_03_11.094,0,30.1,0,0.761,0,0,0,0, ,0,0,0,0,0, ,969.6,54.4,-189.4,1.7,-9.5,-22.5,25,956.275,-86.71,-96.1452,-3.59349,-19.6203,-25.1624,
2026_07_06_15_03_11.110,0,30.1,0,0.759,0,0,0,0, ,0,0,0,0,0, ,997.8,36.8,-200.6,1.7,-3,-15.6,25,957.946,-78.6473,-102.169,-3.27092,-18.8055,-24.7899,
2026_07_06_15_03_11.134,0,30.1,0,0.759,0,0,0,0, ,0,0,0,0,0, ,996.7,34.6,-222.5,-2,6.4,-11,25,960.341,-71.6793,-108.835,-3.08074,-17.556,-24.0898,
2026_07_06_15_03_11.150,0,30.1,0,0.759,0,0,0,0, ,0,0,0,0,0, ,975.4,35,-212.7,-7.4,8.3,-7.3,25,961.908,-65.1907,-115.462,-3.17941,-16.0383,-23.1794,
2026_07_06_15_03_11.173,0,30.1,0,0.759,0,0,0,0, ,0,0,0,0,0, ,957.5,50.4,-210.9,-4.6,6.4,-9.4,25,962.184,-58.6161,-121.333,-3.35129,-14.613,-22.2757,
2026_07_06_15_03_11.190,0,30.2,0,0.758,0,0,0,0, ,0,0,0,0,0, ,957.8,61.5,-197.9,12,4.6,-8.3,25,961.908,-51.6347,-126.395,-2.9216,-13.3874,-21.4576,
2026_07_06_15_03_11.214,0,30.1,0,0.759,0,0,0,0, ,0,0,0,0,0, ,976.4,66.2,-207.1,14.2,4,-9.3,25,962.224,-44.5974,-131.033,-1.94529,-12.3096,-20.6862,
2026_07_06_15_03_11.230,0,30.1,0,0.759,0,0,0,0, ,0,0,0,0,0, ,985.9,62.6,-213.8,-5,5.4,-7.4,25,963.378,-37.9554,-135.872,-1.54643,-11.2731,-19.9345,
2026_07_06_15_03_11.254,0,30.1,0,0.76,0,0,0,0, ,0,0,0,0,0, ,992.4,69,-202.5,2,11.9,-3.8,25,964.948,-31.6328,-140.276,-1.5436,-10.059,-19.061,
2026_07_06_15_03_11.273,0,30.1,0,0.759,0,0,0,0, ,0,0,0,0,0, ,985.8,66,-210.5,19.8,24.2,0.7,25,966.42,-25.5919,-144.312,-0.785322,-8.34611,-17.9939,
2026_07_06_15_03_11.296,0,30.1,0,0.757,0,0,0,0, ,0,0,0,0,0, ,998,34.9,-178.4,0,31.2,-3.8,25,967.973,-20.9581,-147.367,-0.134186,-6.14955,-16.9919,
2026_07_06_15_03_11.309,0,30,0,0.759,0,0,0,0, ,0,0,0,0,0, ,992.1,40,-109.7,3.9,14.9,-0.5,25,969.623,-17.3988,-147.165,-0.00718049,-4.3702,-16.0874,
2026_07_06_15_03_11.332,0,30.1,0,0.759,0,0,0,0, ,0,0,0,0,0, ,984.3,44.4,-142.4,2.7,5.8,-1.1,25,970.755,-13.767,-145.878,0.194351,-3.47319,-15.1559,
2026_07_06_15_03_11.348,0,30.1,0,0.759,0,0,0,0, ,0,0,0,0,0, ,972.4,59.8,-140.6,3,3.6,-3.8,25,971.218,-9.75325,-145.612,0.356179,-2.97514,-14.3816,
2026_07_06_15_03_11.372,0,30.1,0,0.759,0,0,0,0, ,0,0,0,0,0, ,977,53.7,-146.7,1.8,2.1,-4,25,971.43,-5.70071,-145.492,0.480725,-2.62017,-13.7429,
2026_07_06_15_03_11.388,0,30.1,0,0.759,0,0,0,0, ,0,0,0,0,0, ,988.4,56.7,-157.1,0.8,4.9,-3.3,25,972.117,-1.98957,-145.883,0.530649,-2.24722,-13.1278,
2026_07_06_15_03_11.412,0,30.1,0,0.761,0,0,0,0, ,0,0,0,0,0, ,994.1,52.4,-153.1,0.1,9.4,-0.1,25,973.282,1.45581,-146.444,0.525735,-1.67458,-12.4315,
2026_07_06_15_03_11.428,0,30.1,0,0.761,0,0,0,0, ,0,0,0,0,0, ,975.9,40.8,-130.4,0.8,5.7,3,25,973.997,4.20678,-146.158,0.52112,-1.11245,-11.5856,
2026_07_06_15_03_11.451,0,30.1,0,0.758,0,0,0,0, ,0,0,0,0,0, ,955.3,52.7,-147.5,1.1,1.9,1,25,973.485,6.79926,-145.719,0.547255,-0.813101,-10.7577,
2026_07_06_15_03_11.467,0,30.1,0,0.759,0,0,0,0, ,0,0,0,0,0, ,946.2,68.7,-157.7,0.7,0.5,-5.6,25,972.099,10.0838,-146.138,0.56875,-0.690428,-10.2423,
2026_07_06_15_03_11.492,0,30.1,0,0.76,0,0,0,0, ,0,0,0,0,0, ,972.4,45.4,-163.5,1.4,-1.3,-6.7,25,971.319,12.9458,-147.02,0.598076,-0.67273,-9.99292,
2026_07_06_15_03_11.507,0,30,0,0.76,0,0,0,0, ,0,0,0,0,0, ,990.2,53.9,-150.2,1,1.4,-4.2,25,971.928,15.1825,-147.619,0.634756,-0.628688,-9.71609,
2026_07_06_15_03_11.531,0,30.1,0,0.759,0,0,0,0, ,0,0,0,0,0, ,999,60.6,-148.8,-0.1,5.4,-1.6,25,973.309,17.746,-147.733,0.623497,-0.38319,-9.30074,
2026_07_06_15_03_11.547,0,30,0,0.758,0,0,0,0, ,0,0,0,0,0, ,986.9,53.8,-144.6,1.8,7.9,-1.2,25,974.506,20.1502,-147.67,0.6373,0.0453947,-8.81928,
2026_07_06_15_03_11.572,0,30,0,0.757,0,0,0,0, ,0,0,0,0,0, ,967.2,56,-140,3,2.4,-3.4,25,974.661,22.2678,-147.343,0.744714,0.356457,-8.42202,
2026_07_06_15_03_11.586,0,30.1,0,0.76,0,0,0,0, ,0,0,0,0,0, ,973.9,54.6,-142.7,4,-3.2,-5.2,25,974.411,24.2807,-146.978,0.912615,0.31036,-8.17083,
2026_07_06_15_03_11.612,0,30.1,0,0.76,0,0,0,0, ,0,0,0,0,0, ,993.1,58.3,-149.1,3.5,-4.3,-4.4,25,974.965,26.241,-146.912,1.08552,0.0629318,-7.96542,
2026_07_06_15_03_11.626,0,30.1,0,0.759,0,0,0,0, ,0,0,0,0,0, ,1002.1,57.7,-135.8,3.1,1.1,-2.1,25,976.344,28.1763,-146.64,1.22046,-0.0384031,-7.67807,
2026_07_06_15_03_11.651,0,30.1,0,0.76,0,0,0,0, ,0,0,0,0,0, ,998.5,58.1,-136.5,2,4,0.4,25,977.804,29.9876,-146.001,1.30148,0.119328,-7.26199,
2026_07_06_15_03_11.666,0,30.1,0,0.758,0,0,0,0, ,0,0,0,0,0, ,986.4,54.6,-139.7,3,6.8,1.3,25,978.696,31.5941,-145.519,1.37452,0.441119,-6.76766,
2026_07_06_15_03_11.690,0,30.1,0,0.758,0,0,0,0, ,0,0,0,0,0, ,967.2,55.4,-127.5,3.5,1.3,1.2,25,978.581,33.0204,-144.793,1.4888,0.661035,-6.27909,
2026_07_06_15_03_11.705,0,30.1,0,0.76,0,0,0,0, ,0,0,0,0,0, ,963,53.5,-145.1,3.9,-2.4,-1.8,25,977.759,34.3262,-144.276,1.62355,0.587237,-5.91474,
2026_07_06_15_03_11.730,0,30.1,0,0.759,0,0,0,0, ,0,0,0,0,0, ,979.6,52.3,-134.1,2.2,-1.1,-2.1,25,977.366,35.4581,-143.991,1.71047,0.444812,-5.67314,
2026_07_06_15_03_11.744,0,30,0,0.759,0,0,0,0, ,0,0,0,0,0, ,983.3,49.1,-132,0.5,1.6,-0.7,25,977.614,36.3869,-143.324,1.68851,0.432941,-5.41274,
2026_07_06_15_03_11.769,0,30.1,0,0.76,0,0,0,0, ,0,0,0,0,0, ,976.1,51.1,-144.1,0.1,2.7,-0.5,25,977.742,37.2225,-143.003,1.60389,0.537574,-5.11947,
2026_07_06_15_03_11.784,0,30.1,0,0.759,0,0,0,0, ,0,0,0,0,0, ,970.3,48.7,-137.4,0.6,2.6,-0.6,25,977.465,37.995,-142.865,1.52749,0.6663,-4.84101,
2026_07_06_15_03_11.808,0,30.1,0,0.76,0,0,0,0, ,0,0,0,0,0, ,969.1,51.3,-134.3,0,1.2,-1.5,25,976.992,38.7266,-142.438,1.45269,0.741479,-4.61,
2026_07_06_15_03_11.824,0,30.2,0,0.76,0,0,0,0, ,0,0,0,0,0, ,974.6,49,-138.5,0.9,-0.8,-2.9,25,976.678,39.4227,-142.07,1.39158,0.708482,-4.46314,
2026_07_06_15_03_11.849,0,30,0,0.758,0,0,0,0, ,0,0,0,0,0, ,991.5,47.3,-140.5,1.8,-2.9,-2,25,977.067,39.9545,-141.913,1.38905,0.552575,-4.34046,
2026_07_06_15_03_11.863,0,30.1,0,0.759,0,0,0,0, ,0,0,0,0,0, ,990.7,52,-133.5,2.2,-0.7,-0.3,25,977.922,40.5453,-141.614,1.42628,0.409215,-4.14604,
2026_07_06_15_03_11.889,0,30.1,0,0.76,0,0,0,0, ,0,0,0,0,0, ,971.5,56.1,-132.3,1.3,2.1,-1.2,25,978.115,41.3683,-141.083,1.44601,0.426934,-3.9391,
2026_07_06_15_03_11.906,0,30.1,0,0.76,0,0,0,0, ,0,0,0,0,0, ,968.8,52.4,-138.7,0.6,4.3,-4.2,25,977.63,42.1533,-140.743,1.41578,0.595918,-3.86359,
2026_07_06_15_03_11.931,0,30.1,0,0.758,0,0,0,0, ,0,0,0,0,0, ,980.9,50.5,-137.2,1,2.4,-4.3,25,977.461,42.7198,-140.573,1.37826,0.763745,-3.88714,
2026_07_06_15_03_11.943,0,30,0,0.759,0,0,0,0, ,0,0,0,0,0, ,986.6,51.6,-130.7,1.5,-1.1,-3.1,25,977.844,43.2274,-140.169,1.37044,0.756814,-3.87573,
2026_07_06_15_03_11.968,0,30.1,0,0.76,0,0,0,0, ,0,0,0,0,0, ,987.7,47.3,-129.3,2,-3.3,-1.2,25,978.411,43.6066,-139.549,1.39357,0.576633,-3.77057,
2026_07_06_15_03_11.982,0,30.2,0,0.759,0,0,0,0, ,0,0,0,0,0, ,975.8,57.9,-126.9,1.4,-4,-0.2,25,978.614,44.1546,-138.852,1.41224,0.319072,-3.58346,
2026_07_06_15_03_12.008,0,30.1,0,0.758,0,0,0,0, ,0,0,0,0,0, ,972.7,54.5,-127.6,-0.3,-0.3,-2.7,25,978.348,44.8886,-138.145,1.3597,0.168613,-3.45345,
2026_07_06_15_03_12.022,0,30.2,0,0.758,0,0,0,0, ,0,0,0,0,0, ,987.3,46.8,-136.7,-1.1,1.3,-2.4,25,978.449,45.2397,-137.779,1.23419,0.188807,-3.3984,
2026_07_06_15_03_12.048,0,30.1,0,0.758,0,0,0,0, ,0,0,0,0,0, ,982.5,49.5,-141.3,0,1.6,-0.6,25,978.842,45.4171,-137.854,1.12546,0.265661,-3.28271,
2026_07_06_15_03_12.062,0,30.1,0,0.758,0,0,0,0, ,0,0,0,0,0, ,971.6,50.5,-140.2,1.3,-1.1,-0.7,25,978.733,45.6963,-138.03,1.09649,0.264707,-3.12228,
2026_07_06_15_03_12.087,0,30.2,0,0.758,0,0,0,0, ,0,0,0,0,0, ,972.5,52.3,-132.5,1.4,-3,-1.6,25,978.326,46.0439,-137.928,1.11194,0.123654,-3.0021,
2026_07_06_15_03_12.101,0,30.1,0,0.759,0,0,0,0, ,0,0,0,0,0, ,971.8,53.8,-131.9,1.4,-2.9,-2.6,25,977.949,46.4708,-137.579,1.12949,-0.0636465,-2.94713,
2026_07_06_15_03_12.126,0,30.1,0,0.759,0,0,0,0, ,0,0,0,0,0, ,979,51.8,-123.4,-0.3,-0.6,-3.6,25,977.794,46.8565,-136.974,1.09418,-0.166409,-2.95644,
2026_07_06_15_03_12.141,0,30.1,0,0.758,0,0,0,0, ,0,0,0,0,0, ,983.5,51.3,-138,-1.5,1.1,-3.1,25,978.005,47.1425,-136.591,0.972659,-0.141034,-2.98042,
2026_07_06_15_03_12.167,0,30.1,0,0.759,0,0,0,0, ,0,0,0,0,0, ,986.5,54.3,-133.6,-0.9,1.1,-2.9,25,978.431,47.4873,-136.543,0.840263,-0.0654083,-2.98162,
2026_07_06_15_03_12.181,0,30.1,0,0.76,0,0,0,0, ,0,0,0,0,0, ,991.3,53.4,-137.5,0,-0.2,-2.5,25,979.069,47.875,-136.483,0.761637,-0.0340006,-2.96446,
2026_07_06_15_03_12.207,0,30.1,0,0.758,0,0,0,0, ,0,0,0,0,0, ,987.4,56.2,-135,0.4,-1,-1.4,25,979.695,48.297,-136.469,0.727413,-0.0684912,-2.90264,
2026_07_06_15_03_12.221,0,30.1,0,0.759,0,0,0,0, ,0,0,0,0,0, ,976.9,56.8,-128.5,-0.7,1.9,-2,25,979.845,48.7969,-136.181,0.673945,-0.0368956,-2.82935,
2026_07_06_15_03_12.254,0,30.1,0,0.759,0,0,0,0, ,0,0,0,0,0, ,981.2,50.6,-138.9,-0.4,0.8,-2.1,25,979.797,49.0957,-136.03,0.599361,0.0476183,-2.78186,
2026_07_06_15_03_12.260,0,30.1,0,0.758,0,0,0,0, ,0,0,0,0,0, ,980.9,53.4,-132.9,0.8,0.3,-2.5,25,979.873,49.2726,-136.022,0.575025,0.0782322,-2.7525,
2026_07_06_15_03_12.286,0,30.1,0,0.758,0,0,0,0, ,0,0,0,0,0, ,979,52.3,-133.9,0.5,-2.2,-1.8,25,979.878,49.4906,-135.862,0.579594,0.0155743,-2.71578,
2026_07_06_15_03_12.300,0,30.1,0,0.76,0,0,0,0, ,0,0,0,0,0, ,972.4,54.4,-136.8,0.9,-2.5,-2.2,25,979.623,49.7258,-135.831,0.586931,-0.128578,-2.67216,
2026_07_06_15_03_12.327,0,30.1,0,0.758,0,0,0,0, ,0,0,0,0,0, ,976.1,56.7,-123.1,-0.5,-0.3,-3.4,25,979.296,50.0807,-135.473,0.563352,-0.206055,-2.67995,
2026_07_06_15_03_12.339,0,30.1,0,0.759,0,0,0,0, ,0,0,0,0,0, ,985.7,53.4,-131.2,-1.2,0.6,-3.5,25,979.393,50.3835,-134.965,0.477226,-0.184358,-2.72688,
2026_07_06_15_03_12.367,0,30,0,0.758,0,0,0,0, ,0,0,0,0,0, ,977.7,49.4,-145,-0.2,-0.1,-2.8,25,979.534,50.4455,-135.156,0.405489,-0.157889,-2.75266,
2026_07_06_15_03_12.379,0,30.1,0,0.759,0,0,0,0, ,0,0,0,0,0, ,972.5,53.7,-140.7,1.1,-4.1,-2.7,25,979.264,50.5128,-135.625,0.408201,-0.276237,-2.7525,
2026_07_06_15_03_12.404,0,30,0,0.759,0,0,0,0, ,0,0,0,0,0, ,985.5,59.6,-130.9,1.1,-5.2,-3.4,25,979.248,50.8868,-135.636,0.450358,-0.542763,-2.77063,
2026_07_06_15_03_12.418,0,30,0,0.758,0,0,0,0, ,0,0,0,0,0, ,991.5,56.7,-133.7,-0.1,-0.5,-2.2,25,979.812,51.3294,-135.433,0.453383,-0.68336,-2.77242,
2026_07_06_15_03_12.443,0,30.2,0,0.76,0,0,0,0, ,0,0,0,0,0, ,984.2,51,-123.6,-1.8,3.7,-0.7,25,980.301,51.483,-135.019,0.367864,-0.544218,-2.69183,
2026_07_06_15_03_12.458,0,30,0,0.759,0,0,0,0, ,0,0,0,0,0, ,965.4,55.4,-138.4,-2.1,2.8,-1.5,25,979.966,51.5876,-134.774,0.22662,-0.313008,-2.59483,
2026_07_06_15_03_12.483,0,30.1,0,0.759,0,0,0,0, ,0,0,0,0,0, ,977,59.6,-143.5,-0.9,-1.2,-3.8,25,979.432,51.9479,-135.151,0.121404,-0.245184,-2.59819,
2026_07_06_15_03_12.497,0,30.1,0,0.759,0,0,0,0, ,0,0,0,0,0, ,991,56.3,-140.1,0,-1.1,-2.6,25,979.71,52.3137,-135.556,0.0865837,-0.300321,-2.63487,
2026_07_06_15_03_12.523,0,30,0,0.758,0,0,0,0, ,0,0,0,0,0, ,980.3,55.6,-122.9,-1,1,-1.3,25,980.072,52.5352,-135.309,0.0508388,-0.285067,-2.59313,
2026_07_06_15_03_12.538,0,30,0,0.758,0,0,0,0, ,0,0,0,0,0, ,971.9,54.8,-133.3,-2.8,2.3,-1.6,25,979.83,52.6976,-134.869,-0.0680404,-0.167149,-2.52347,
2026_07_06_15_03_12.563,0,30,0,0.759,0,0,0,0, ,0,0,0,0,0, ,971,58.2,-140,-2.9,2.3,-2.9,25,979.32,52.9293,-134.978,-0.237566,-0.0168071,-2.50681,
2026_07_06_15_03_12.583,0,30.1,0,0.759,0,0,0,0, ,0,0,0,0,0, ,986.3,56.3,-141.2,-1.8,0.6,-3.1,25,979.279,53.1926,-135.321,-0.366293,0.0725764,-2.53686,
2026_07_06_15_03_12.607,0,30.1,0,0.763,0,0,0,0, ,0,0,0,0,0, ,986.3,57.1,-143.3,0.5,-1.6,-1.7,25,979.707,53.4064,-135.743,-0.383581,0.0376851,-2.52852,
2026_07_06_15_03_12.616,0,30,0,0.76,0,0,0,0, ,0,0,0,0,0, ,972.4,56.5,-136.7,1.5,-2.7,-1.3,25,979.685,53.6132,-136.002,-0.299269,-0.095627,-2.46585,
2026_07_06_15_03_12.641,0,30.1,0,0.759,0,0,0,0, ,0,0,0,0,0, ,976,66.7,-134.1,0.4,-2.1,-2.7,25,979.351,54.0999,-135.966,-0.223142,-0.23605,-2.43746,
2026_07_06_15_03_12.657,0,30.1,0,0.759,0,0,0,0, ,0,0,0,0,0, ,989.5,62.6,-124,-0.4,-0.6,-3.1,25,979.558,54.7428,-135.544,-0.209544,-0.303931,-2.46564,
2026_07_06_15_03_12.682,0,30.1,0,0.76,0,0,0,0, ,0,0,0,0,0, ,992.1,53.5,-129.3,-1,0.7,-2.5,25,980.243,54.9443,-135.002,-0.239431,-0.282363,-2.48602,
2026_07_06_15_03_12.695,0,30,0,0.759,0,0,0,0, ,0,0,0,0,0, ,986.3,56,-127.4,-0.6,0.4,-1.4,25,980.789,54.9324,-134.597,-0.273591,-0.231641,-2.45336,
2026_07_06_15_03_12.722,0,30,0,0.758,0,0,0,0, ,0,0,0,0,0, ,988.6,58.9,-140.3,0,-0.9,-1.5,25,981.195,55.0859,-134.551,-0.2752,-0.23276,-2.39221,
2026_07_06_15_03_12.735,0,30,0,0.758,0,0,0,0, ,0,0,0,0,0, ,986.2,58.8,-128.1,0.6,-0.3,-1.5,25,981.573,55.3152,-134.53,-0.240149,-0.255139,-2.33784,
2026_07_06_15_03_12.761,0,30,0,0.759,0,0,0,0, ,0,0,0,0,0, ,978.2,53.4,-122.4,0,0.2,-1.2,25,981.611,55.3631,-133.964,-0.207234,-0.242638,-2.27765,
2026_07_06_15_03_12.776,0,30,0,0.76,0,0,0,0, ,0,0,0,0,0, ,969.7,53.2,-132.8,-1.2,0.2,-1.1,25,981.144,55.2373,-133.577,-0.231168,-0.215665,-2.20893,
2026_07_06_15_03_12.802,0,30,0,0.759,0,0,0,0, ,0,0,0,0,0, ,970.2,55.6,-141.1,-1.4,0.3,-2,25,980.462,55.1863,-133.782,-0.2963,-0.187288,-2.16878,
2026_07_06_15_03_12.814,0,30.2,0,0.76,0,0,0,0, ,0,0,0,0,0, ,975.9,61.2,-141.7,-0.6,0.2,-2.8,25,980.01,55.3822,-134.246,-0.339181,-0.160641,-2.18287,
2026_07_06_15_03_12.840,0,30,0,0.759,0,0,0,0, ,0,0,0,0,0, ,982,59.5,-135.6,0.7,-1.7,-2.7,25,979.946,55.6849,-134.515,-0.315466,-0.196555,-2.21743,
2026_07_06_15_03_12.854,0,30.1,0,0.758,0,0,0,0, ,0,0,0,0,0, ,983.8,57.3,-131.5,0.8,-2,-2.4,25,980.126,55.8503,-134.456,-0.250539,-0.297312,-2.23769,
2026_07_06_15_03_12.882,0,30,0,0.759,0,0,0,0, ,0,0,0,0,0, ,983.7,58.4,-126.9,0.5,-1.6,-1.8,25,980.347,55.9722,-134.136,-0.195662,-0.388882,-2.2293,
2026_07_06_15_03_12.894,0,30.1,0,0.759,0,0,0,0, ,0,0,0,0,0, ,982,59.9,-134.2,0,-0.7,-1.6,25,980.499,56.1658,-133.917,-0.168505,-0.435263,-2.19705,
2026_07_06_15_03_12.921,0,30.1,0,0.759,0,0,0,0, ,0,0,0,0,0, ,982,60.4,-133.9,0,0.2,-1.6,25,980.591,56.4086,-133.925,-0.158236,-0.423973,-2.16067,
2026_07_06_15_03_12.939,0,30,0,0.758,0,0,0,0, ,0,0,0,0,0, ,972.6,64.2,-138.5,0,-1,-1.7,25,980.39,56.7676,-134.064,-0.148594,-0.422512,-2.12955,
2026_07_06_15_03_12.966,0,30.2,0,0.761,0,0,0,0, ,0,0,0,0,0, ,975.7,56.5,-134.6,0.5,-3.4,-2.9,25,980.01,56.9859,-134.215,-0.124305,-0.530828,-2.13993,
2026_07_06_15_03_12.973,0,30.1,0,0.76,0,0,0,0, ,0,0,0,0,0, ,976.3,58.4,-134.3,0.5,-5.1,-2.9,25,979.765,57.0142,-134.23,-0.0862611,-0.757465,-2.18625,
2026_07_06_15_03_13.000,0,30.1,0,0.76,0,0,0,0, ,0,0,0,0,0, ,989.3,62.2,-136.1,0.5,-4.5,-2.8,25,979.95,57.2144,-134.289,-0.0505358,-1.00381,-2.2267,
2026_07_06_15_03_13.013,0,30,0,0.759,0,0,0,0, ,0,0,0,0,0, ,989.3,63.8,-133.6,0.1,-3.7,-1.5,25,980.52,57.567,-134.323,-0.029175,-1.19248,-2.22202,
2026_07_06_15_03_13.040,0,30.1,0,0.758,0,0,0,0, ,0,0,0,0,0, ,989.3,61.1,-131.2,-0.1,-4,-0.7,25,981.055,57.8645,-134.206,-0.0273972,-1.35442,-2.15365,
2026_07_06_15_03_13.053,0,30.2,0,0.76,0,0,0,0, ,0,0,0,0,0, ,980.2,58.7,-147.4,-0.1,-1.1,-0.9,25,981.28,57.9886,-134.516,-0.0318214,-1.42728,-2.07116,
2026_07_06_15_03_13.080,0,30.1,0,0.759,0,0,0,0, ,0,0,0,0,0, ,975.3,58.1,-145.3,0.1,0.3,-1.1,25,981.065,58.0137,-135.237,-0.0298823,-1.36468,-2.00589,
2026_07_06_15_03_13.092,0,30.1,0,0.76,0,0,0,0, ,0,0,0,0,0, ,975.3,57.2,-138,0.5,-1.5,-1,25,980.714,57.9915,-135.628,-0.00978009,-1.31808,-1.94764,
2026_07_06_15_03_13.119,0,30,0,0.758,0,0,0,0, ,0,0,0,0,0, ,974.3,59.3,-143.3,0.3,-1.4,-1.3,25,980.353,58.0072,-135.934,0.0151909,-1.32612,-1.89903,
2026_07_06_15_03_13.131,0,30.1,0,0.76,0,0,0,0, ,0,0,0,0,0, ,973.7,62.2,-146.4,-0.1,-0.9,-2,25,979.966,58.1744,-136.477,0.0203589,-1.31539,-1.88386,
2026_07_06_15_03_13.159,0,30.1,0,0.759,0,0,0,0, ,0,0,0,0,0, ,979.3,59.3,-146.1,0.2,0,-2.6,25,979.755,58.3313,-137.073,0.0221652,-1.26265,-1.90922,
2026_07_06_15_03_13.171,0,30,0,0.759,0,0,0,0, ,0,0,0,0,0, ,983.6,59.6,-144.7,0.2,0.2,-1.8,25,979.858,58.3995,-137.58,0.033002,-1.17962,-1.92694,
2026_07_06_15_03_13.201,0,30.1,0,0.759,0,0,0,0, ,0,0,0,0,0, ,978.2,57.1,-134,0.1,0.4,-1.6,25,979.922,58.3965,-137.688,0.0401316,-1.08945,-1.91311,
2026_07_06_15_03_13.211,0,30.1,0,0.759,0,0,0,0, ,0,0,0,0,0, ,979.8,60,-142.7,0.2,-0.6,-2,25,979.866,58.4058,-137.729,0.0468267,-1.02916,-1.90621,
2026_07_06_15_03_13.237,0,30.1,0,0.76,0,0,0,0, ,0,0,0,0,0, ,984.8,57.9,-147.5,1.3,-1,-1.9,25,980.014,58.439,-138.178,0.0896763,-1.01519,-1.90888,
2026_07_06_15_03_13.250,0,30.1,0,0.759,0,0,0,0, ,0,0,0,0,0, ,982.7,58.1,-140.8,1.9,-1.5,-0.7,25,980.242,58.4123,-138.542,0.181712,-1.0295,-1.87178,
2026_07_06_15_03_13.276,0,30.1,0,0.757,0,0,0,0, ,0,0,0,0,0, ,979,58.4,-136.3,1.8,-0.5,-0.5,25,980.279,58.4024,-138.542,0.283373,-1.0277,-1.79428,
2026_07_06_15_03_13.290,0,30.1,0,0.757,0,0,0,0, ,0,0,0,0,0, ,973.5,60.9,-138.1,0.8,1,-0.8,25,980.033,58.4784,-138.46,0.345324,-0.949844,-1.72455,
2026_07_06_15_03_13.318,0,30,0,0.76,0,0,0,0, ,0,0,0,0,0, ,976.6,59,-140.6,0.3,0.7,-1.2,25,979.73,58.5681,-138.515,0.357796,-0.840166,-1.6804,
2026_07_06_15_03_13.330,0,30,0,0.759,0,0,0,0, ,0,0,0,0,0, ,974.7,58.4,-139.7,0.3,-1.9,-1.6,25,979.481,58.5761,-138.614,0.354274,-0.825531,-1.66331,
2026_07_06_15_03_13.357,0,30,0,0.759,0,0,0,0, ,0,0,0,0,0, ,978.7,55.4,-135,-0.4,-0.9,-2.1,25,979.312,58.474,-138.537,0.329639,-0.860538,-1.67469,
2026_07_06_15_03_13.370,0,30,0,0.759,0,0,0,0, ,0,0,0,0,0, ,986.3,56.7,-145.3,-1.1,1.7,-1.6,25,979.506,58.3263,-138.636,0.263848,-0.783724,-1.68537,
2026_07_06_15_03_13.396,0,30,0,0.759,0,0,0,0, ,0,0,0,0,0, ,982.7,54,-143.6,-0.1,1.6,-0.8,25,979.81,58.1449,-138.99,0.211207,-0.635419,-1.65579,
2026_07_06_15_03_13.409,0,30,0,0.759,0,0,0,0, ,0,0,0,0,0, ,977,55.1,-140.6,0.8,-1.1,-0.7,25,979.813,57.9258,-139.179,0.219665,-0.581464,-1.6006,
2026_07_06_15_03_13.437,0,30.1,0,0.76,0,0,0,0, ,0,0,0,0,0, ,969.1,63.5,-133.4,0.7,-3.6,-2.2,25,979.4,58.0096,-139.047,0.251982,-0.689234,-1.59142,
2026_07_06_15_03_13.449,0,30,0,0.759,0,0,0,0, ,0,0,0,0,0, ,986.3,58.2,-140.7,-0.5,-2.6,-2.8,25,979.297,58.1827,-138.925,0.242721,-0.83614,-1.64679,
2026_07_06_15_03_13.476,0,30,0,0.76,0,0,0,0, ,0,0,0,0,0, ,985.2,54.9,-137.6,-1.2,1.3,-1.7,25,979.69,58.0832,-138.939,0.176133,-0.824797,-1.68354,
2026_07_06_15_03_13.489,0,30.1,0,0.76,0,0,0,0, ,0,0,0,0,0, ,974.2,54.5,-135.9,-1.9,2.9,-0.9,25,979.691,57.877,-138.805,0.0709471,-0.646567,-1.66017,
2026_07_06_15_03_13.515,0,30,0,0.759,0,0,0,0, ,0,0,0,0,0, ,974.4,56,-144.7,-1.7,1.6,-1.6,25,979.362,57.7169,-138.896,-0.0430638,-0.470058,-1.63518,
2026_07_06_15_03_13.528,0,30,0,0.759,0,0,0,0, ,0,0,0,0,0, ,987.9,60.5,-148.5,-0.9,0.5,-0.7,25,979.471,57.7494,-139.366,-0.119658,-0.377429,-1.60561,
2026_07_06_15_03_13.555,0,30.1,0,0.76,0,0,0,0, ,0,0,0,0,0, ,987.5,58.4,-143.3,0,2.2,-0.4,25,979.973,57.853,-139.764,-0.139788,-0.272164,-1.54129,
2026_07_06_15_03_13.567,0,30.1,0,0.759,0,0,0,0, ,0,0,0,0,0, ,982.5,55.9,-145.9,0.2,2.9,-0.2,25,980.279,57.8102,-140.059,-0.125176,-0.100188,-1.46564,
2026_07_06_15_03_13.594,0,30,0,0.759,0,0,0,0, ,0,0,0,0,0, ,971.1,56.3,-137.9,0,4.7,-1.1,25,980.067,57.706,-140.171,-0.111455,0.137479,-1.41594,
2026_07_06_15_03_13.607,0,30,0,0.759,0,0,0,0, ,0,0,0,0,0, ,981.2,55,-129.5,-0.6,5.6,-1.9,25,979.828,57.5807,-139.777,-0.122944,0.44293,-1.42106,
2026_07_06_15_03_13.635,0,30.1,0,0.759,0,0,0,0, ,0,0,0,0,0, ,991.3,56.6,-136.2,-0.7,5.1,-0.7,25,980.22,57.4722,-139.354,-0.155062,0.741954,-1.41369,
2026_07_06_15_03_13.647,0,30,0,0.758,0,0,0,0, ,0,0,0,0,0, ,981.6,55.4,-133.3,0,4.4,0.7,25,980.599,57.3825,-139.074,-0.166941,0.986195,-1.32754,
2026_07_06_15_03_13.673,0,30,0,0.759,0,0,0,0, ,0,0,0,0,0, ,971.4,54.9,-125.9,-0.2,2.9,-0.1,25,980.349,57.2464,-138.497,-0.162861,1.14852,-1.22836,
2026_07_06_15_03_13.692,0,30.1,0,0.76,0,0,0,0, ,0,0,0,0,0, ,974.6,57.1,-119.3,-1.1,2.3,-1.5,25,979.902,57.1705,-137.528,-0.192546,1.23697,-1.20226,
2026_07_06_15_03_13.720,0,30,0,0.76,0,0,0,0, ,0,0,0,0,0, ,987.9,52.7,-116.5,-2.6,2.7,-1.8,25,979.984,57.0321,-136.332,-0.293548,1.31394,-1.22954,
2026_07_06_15_03_13.726,0,30,0,0.759,0,0,0,0, ,0,0,0,0,0, ,992,48.7,-125.1,-3.3,4.1,0.2,25,980.591,56.6463,-135.385,-0.455425,1.44106,-1.20337,
2026_07_06_15_03_13.755,0,30.1,0,0.758,0,0,0,0, ,0,0,0,0,0, ,986.8,49.6,-123.1,-3.4,5.7,2.4,25,981.128,56.1895,-134.698,-0.631813,1.65183,-1.05082,
2026_07_06_15_03_13.766,0,30,0,0.759,0,0,0,0, ,0,0,0,0,0, ,973.6,59.3,-139.4,-2,6.9,2.1,25,981.071,56.0835,-134.488,-0.757843,1.93508,-0.849675,
2026_07_06_15_03_13.793,0,30,0,0.76,0,0,0,0, ,0,0,0,0,0, ,983.1,53.4,-121.3,-0.5,2.4,-0.3,25,980.905,56.0997,-134.235,-0.787834,2.10052,-0.743054,
2026_07_06_15_03_13.805,0,30,0,0.76,0,0,0,0, ,0,0,0,0,0, ,994.2,48.8,-122.6,0.5,-0.6,0.2,25,981.377,55.795,-133.487,-0.739826,2.02737,-0.700821,
2026_07_06_15_03_13.833,0,29.9,0,0.758,0,0,0,0, ,0,0,0,0,0, ,990.7,44.5,-122.8,0.5,1.3,2,25,982.052,55.2378,-132.829,-0.664274,1.92515,-0.591084,
2026_07_06_15_03_13.844,0,30,0,0.759,0,0,0,0, ,0,0,0,0,0, ,974.8,44.1,-125.3,0.1,6.6,2,25,982.095,54.5712,-132.294,-0.605513,2.04854,-0.433189,
2026_07_06_15_03_13.873,0,30.1,0,0.758,0,0,0,0, ,0,0,0,0,0, ,960.3,48.8,-122.6,0.2,7.5,0.2,25,981.208,54.0763,-131.786,-0.559474,2.35332,-0.339761,
2026_07_06_15_03_13.884,0,30.1,0,0.76,0,0,0,0, ,0,0,0,0,0, ,970.9,46.5,-113.1,0.4,2.3,-2.3,25,980.257,53.6847,-130.937,-0.5071,2.50851,-0.383041,
2026_07_06_15_03_13.911,0,30.1,0,0.759,0,0,0,0, ,0,0,0,0,0, ,988.2,39.7,-117.9,0.8,-0.2,-1.7,25,980.214,53.0397,-129.996,-0.439636,2.41963,-0.481574,
2026_07_06_15_03_13.925,0,30,0,0.76,0,0,0,0, ,0,0,0,0,0, ,979.8,46,-109.1,1,1.7,-1.3,25,980.445,52.4188,-128.991,-0.358002,2.31788,-0.543635,
2026_07_06_15_03_13.953,0,30,0,0.759,0,0,0,0, ,0,0,0,0,0, ,978.3,44.7,-98.3,0,1.4,-2.5,25,980.36,51.988,-127.45,-0.305718,2.27109,-0.626288,
2026_07_06_15_03_13.964,0,30.1,0,0.759,0,0,0,0, ,0,0,0,0,0, ,992.1,46.9,-102.7,-0.9,0.8,-2.6,25,980.655,51.611,-125.807,-0.31451,2.19973,-0.743514,
2026_07_06_15_03_13.992,0,29.9,0,0.757,0,0,0,0, ,0,0,0,0,0, ,994.8,46.2,-113.2,-0.7,2.4,-1.1,25,981.434,51.3026,-124.719,-0.344094,2.16318,-0.810941,
2026_07_06_15_03_14.003,0,30,0,0.758,0,0,0,0, ,0,0,0,0,0, ,979.6,45.5,-112,-0.6,3.2,-0.2,25,981.786,50.9703,-123.981,-0.362735,2.20199,-0.801133,
2026_07_06_15_03_14.031,0,30,0,0.758,0,0,0,0, ,0,0,0,0,0, ,970.4,42.1,-108.6,-1.3,2.8,-0.3,25,981.372,50.5334,-123.147,-0.398522,2.25062,-0.767549,
2026_07_06_15_03_14.042,0,30.1,0,0.759,0,0,0,0, ,0,0,0,0,0, ,972.4,42.2,-110.8,-1.7,2.2,-0.9,25,980.765,50.0225,-122.328,-0.465643,2.26581,-0.757339,
2026_07_06_15_03_14.072,0,29.9,0,0.759,0,0,0,0, ,0,0,0,0,0, ,975.4,43.9,-110.4,-2.5,2.8,-0.4,25,980.346,49.5976,-121.613,-0.565237,2.28008,-0.750798,
2026_07_06_15_03_14.083,0,30.1,0,0.761,0,0,0,0, ,0,0,0,0,0, ,975.4,43.3,-114.8,-2,1.7,0,25,980.045,49.2321,-121.064,-0.667902,2.27825,-0.717234,
2026_07_06_15_03_14.111,0,30,0,0.758,0,0,0,0, ,0,0,0,0,0, ,993.8,42.4,-113.1,-0.2,0.6,-0.3,25,980.322,48.8432,-120.63,-0.694233,2.2095,-0.682668,
2026_07_06_15_03_14.124,0,30.1,0,0.759,0,0,0,0, ,0,0,0,0,0, ,994.9,48.2,-106.2,0.9,2.1,-0.2,25,981.177,48.6273,-119.961,-0.6306,2.15712,-0.656302,
2026_07_06_15_03_14.152,0,30.1,0,0.758,0,0,0,0, ,0,0,0,0,0, ,993.8,41.7,-99.4,1.4,4.1,-1.3,25,981.98,48.4032,-118.915,-0.522095,2.21458,-0.662012,
2026_07_06_15_03_14.161,0,30,0,0.759,0,0,0,0, ,0,0,0,0,0, ,994.8,42.8,-99.6,0.9,4.9,0,25,982.731,48.0283,-117.732,-0.420201,2.35385,-0.66128,
2026_07_06_15_03_14.189,0,30.1,0,0.758,0,0,0,0, ,0,0,0,0,0, ,996.5,42.6,-95.2,1.2,6.1,0.9,25,983.518,47.7036,-116.493,-0.330611,2.54557,-0.593561,
2026_07_06_15_03_14.201,0,30.1,0,0.759,0,0,0,0, ,0,0,0,0,0, ,997.8,44.3,-99.3,1.7,6.3,2,25,984.349,47.4444,-115.321,-0.222105,2.76826,-0.469032,
2026_07_06_15_03_14.231,0,30.1,0,0.759,0,0,0,0, ,0,0,0,0,0, ,991.8,41.2,-95.5,2.3,7.1,2.6,25,984.986,47.1583,-114.229,-0.0866956,3.00785,-0.300294,
2026_07_06_15_03_14.242,0,30.1,0,0.759,0,0,0,0, ,0,0,0,0,0, ,985.7,41.2,-81.6,2.1,7.6,1.2,25,985.215,46.7952,-112.664,0.0526499,3.27245,-0.166213,
2026_07_06_15_03_14.273,0,30.1,0,0.759,0,0,0,0, ,0,0,0,0,0, ,1001.9,36.4,-82.3,1.2,7.6,1.7,25,985.738,46.308,-110.792,0.149988,3.53616,-0.0677255,
2026_07_06_15_03_14.281,0,30.1,0,0.757,0,0,0,0, ,0,0,0,0,0, ,1005.2,35.2,-86.7,1.5,9,2.4,25,986.824,45.6677,-109.19,0.223114,3.82646,0.0613234,
2026_07_06_15_03_14.318,0,30.1,0,0.759,0,0,0,0, ,0,0,0,0,0, ,998.5,34,-84.1,2.1,11.5,4.3,25,987.739,44.9932,-107.74,0.319206,4.21789,0.261727,
2026_07_06_15_03_14.325,0,30.1,0,0.759,0,0,0,0, ,0,0,0,0,0, ,989.9,19.7,-68.7,2.1,11.8,3.9,25,988.133,43.8876,-105.83,0.427723,4.67078,0.495622,
2026_07_06_15_03_14.354,0,30,0,0.758,0,0,0,0, ,0,0,0,0,0, ,982.6,24.1,-60.9,0.7,11.7,4.3,25,988.018,42.5478,-103.33,0.486971,5.10217,0.715264,
2026_07_06_15_03_14.359,0,30,0,0.759,0,0,0,0, ,0,0,0,0,0, ,983.6,25.6,-69.5,-0.3,11.5,3.7,25,987.718,41.4693,-101.007,0.469484,5.49813,0.915427,
2026_07_06_15_03_14.388,0,30.1,0,0.76,0,0,0,0, ,0,0,0,0,0, ,978.5,22.5,-68.7,-0.3,11.5,3.4,25,987.312,40.4078,-99.0623,0.422593,5.86387,1.07597,
2026_07_06_15_03_14.399,0,30.1,0,0.76,0,0,0,0, ,0,0,0,0,0, ,979.8,24.9,-65.3,-0.1,11.1,3,25,986.815,39.3897,-97.1085,0.384654,6.19514,1.2054,
2026_07_06_15_03_14.428,0,30,0,0.76,0,0,0,0, ,0,0,0,0,0, ,989.6,25.3,-58.8,-0.4,10.5,2.1,25,986.686,38.5189,-94.9722,0.34598,6.47575,1.28734,
2026_07_06_15_03_14.439,0,30,0,0.759,0,0,0,0, ,0,0,0,0,0, ,992.9,23,-48.7,-0.1,11,1.8,25,986.964,37.6433,-92.4602,0.309662,6.73621,1.32772,
2026_07_06_15_03_14.468,0,30,0,0.757,0,0,0,0, ,0,0,0,0,0, ,1001.5,20.1,-33.8,6.9,13.6,4.5,25,987.588,36.6626,-89.3396,0.49798,7.07525,1.43877,
2026_07_06_15_03_14.478,0,30,0,0.758,0,0,0,0, ,0,0,0,0,0, ,1007.2,10.2,-25.8,-3.9,16.3,3.6,25,988.609,35.3517,-85.7114,0.55904,7.55512,1.59789,
2026_07_06_15_03_14.508,0,30.1,0,0.76,0,0,0,0, ,0,0,0,0,0, ,999.1,13.9,-41.5,0.5,20.1,6.1,25,989.495,33.9317,-82.5389,0.42138,8.20379,1.79606,
2026_07_06_15_03_14.518,0,30.1,0,0.76,0,0,0,0, ,0,0,0,0,0, ,999.3,5.4,-31.9,-3.2,22.1,4.5,25,990.087,32.4521,-79.7456,0.313437,8.98965,2.00959,
2026_07_06_15_03_14.547,0,30.1,0,0.759,0,0,0,0, ,0,0,0,0,0, ,995.6,6.5,-22.4,0.9,20.4,6.2,25,990.535,30.8371,-76.5405,0.224258,9.73677,2.21314,
2026_07_06_15_03_14.557,0,30,0,0.76,0,0,0,0, ,0,0,0,0,0, ,996.9,2.4,-11.9,-1.2,21.6,6.6,25,990.884,29.2291,-72.9214,0.201452,10.4231,2.46828,
2026_07_06_15_03_14.587,0,30,0,0.759,0,0,0,0, ,0,0,0,0,0, ,995.9,7.8,-15.2,-2.5,28.2,8.3,25,991.22,27.7588,-69.3035,0.0764417,11.3053,2.77185,
2026_07_06_15_03_14.597,0,30,0,0.759,0,0,0,0, ,0,0,0,0,0, ,980.8,2.4,-8.3,-2,33.2,7.8,25,991.045,26.378,-65.7963,-0.0653259,12.4872,3.09349,
2026_07_06_15_03_14.627,0,30,0,0.759,0,0,0,0, ,0,0,0,0,0, ,976.8,1.2,12.5,-0.6,33.5,6.9,25,990.299,24.8803,-61.6589,-0.140564,13.7585,3.35287,
2026_07_06_15_03_14.644,0,30.1,0,0.758,0,0,0,0, ,0,0,0,0,0, ,994.1,-5.6,25.6,-1.6,35.9,7.1,25,990.003,23.2301,-56.7407,-0.199029,15.0346,3.57512,
2026_07_06_15_03_14.673,0,30,0,0.759,0,0,0,0, ,0,0,0,0,0, ,1000.8,-7.9,35.6,0.9,37.1,8.3,25,990.457,21.4032,-51.4184,-0.208229,16.3427,3.82648,
2026_07_06_15_03_14.678,0,30.1,0,0.759,0,0,0,0, ,0,0,0,0,0, ,998.4,-16.7,52.4,-0.8,34.7,7.7,25,991.014,19.3494,-45.6038,-0.192493,17.5344,4.0808,
2026_07_06_15_03_14.707,0,30,0,0.757,0,0,0,0, ,0,0,0,0,0, ,994.3,-16.9,76.6,-0.9,34.1,9.8,25,991.339,17.1465,-38.8944,-0.23256,18.5622,4.36533,
2026_07_06_15_03_14.716,0,30,0,0.759,0,0,0,0, ,0,0,0,0,0, ,979,-19,98.6,-2.5,41.1,9.1,25,991.054,15.0078,-31.1861,-0.321982,19.7223,4.67518,
2026_07_06_15_03_14.745,0,30,0,0.758,0,0,0,0, ,0,0,0,0,0, ,970.9,-24.2,104,-3,43.4,6.2,25,990.072,12.777,-23.1127,-0.46994,21.0951,4.85646,
2026_07_06_15_03_14.756,0,30,0,0.759,0,0,0,0, ,0,0,0,0,0, ,973.1,-29.6,99.9,-3,39.8,4.7,25,988.971,10.3592,-15.4917,-0.624115,22.3446,4.89262,
2026_07_06_15_03_14.786,0,30,0,0.76,0,0,0,0, ,0,0,0,0,0, ,975.7,-33.6,108.3,-2.1,34.7,4.8,25,988.083,7.80233,-8.2041,-0.741474,23.2529,4.88393,
2026_07_06_15_03_14.795,0,29.9,0,0.76,0,0,0,0, ,0,0,0,0,0, ,968.6,-34.6,135.4,-2.3,32.1,5.5,25,987.112,5.24891,-0.278932,-0.830353,23.8712,4.90015,
2026_07_06_15_03_14.824,0,30,0,0.759,0,0,0,0, ,0,0,0,0,0, ,961,-36.6,149.1,-3.9,32.8,4.8,25,985.752,2.75968,8.40642,-0.968659,24.394,4.91537,
2026_07_06_15_03_14.835,0,30,0,0.758,0,0,0,0, ,0,0,0,0,0, ,958.1,-36.6,141.4,-3.8,35.2,3.6,25,984.156,0.3612,16.7453,-1.14424,24.9794,4.87178,
2026_07_06_15_03_14.870,0,30,0,0.759,0,0,0,0, ,0,0,0,0,0, ,955,-41.7,148.1,-3.1,37.1,3.2,25,982.474,-2.04651,24.5456,-1.28475,25.6601,4.78209,
2026_07_06_15_03_14.876,0,30.1,0,0.759,0,0,0,0, ,0,0,0,0,0, ,958,-38.3,191.4,-1.8,42.6,2.1,25,980.891,-4.3593,33.394,-1.35576,26.5248,4.65217,
2026_07_06_15_03_14.905,0,30.1,0,0.762,0,0,0,0, ,0,0,0,0,0, ,971.8,-39.7,237.4,-4.8,54.9,2.7,25,979.916,-6.47022,44.4241,-1.47423,27.8791,4.51493,
2026_07_06_15_03_14.914,0,30,0,0.758,0,0,0,0, ,0,0,0,0,0, ,991.4,-43.8,249,-6.2,77.6,4.1,25,980.019,-8.62008,56.537,-1.71955,30.2174,4.44699,
2026_07_06_15_03_14.944,0,30.1,0,0.759,0,0,0,0, ,0,0,0,0,0, ,991.4,-52.7,262.3,-5.7,92.1,6.5,25,980.712,-11.035,68.6704,-1.97735,33.5465,4.49897,
2026_07_06_15_03_14.954,0,30.1,0,0.759,0,0,0,0, ,0,0,0,0,0, ,981.6,-70.3,275.1,-5.6,99.1,10.5,25,981.065,-14.1102,80.8597,-2.20115,37.3279,4.74278,
2026_07_06_15_03_14.983,0,30,0,0.758,0,0,0,0, ,0,0,0,0,0, ,942,-74.7,288.2,-7.5,105.6,15.2,25,979.891,-17.6684,93.0954,-2.46616,41.2902,5.23681,
2026_07_06_15_03_14.993,0,30.1,0,0.758,0,0,0,0, ,0,0,0,0,0, ,903.8,-70.4,307.2,-6.7,121.6,16.5,25,976.418,-21.0127,105.563,-2.74853,45.6966,5.88355,
2026_07_06_15_03_15.024,0,30.1,0,0.759,0,0,0,0, ,0,0,0,0,0, ,889.2,-67.5,333.2,-5.4,131.7,16.9,25,971.548,-23.9339,118.643,-2.94971,50.6297,6.54268,
2026_07_06_15_03_15.033,0,30,0,0.759,0,0,0,0, ,0,0,0,0,0, ,881.3,-58.2,390.7,0.4,149.3,17.6,25,966.289,-26.3053,133.469,-2.92231,56.1061,7.19516,
2026_07_06_15_03_15.063,0,30.1,0,0.758,0,0,0,0, ,0,0,0,0,0, ,849.3,-66.8,459.5,3.7,144.2,15.8,25,960.135,-28.511,151.241,-2.61931,61.6298,7.77436,
2026_07_06_15_03_15.073,0,30.2,0,0.759,0,0,0,0, ,0,0,0,0,0, ,845.4,-79.8,506.1,2.3,126.8,14.2,25,953.263,-31.2403,171.445,-2.27688,66.1312,8.21467,
2026_07_06_15_03_15.102,0,30.1,0,0.759,0,0,0,0, ,0,0,0,0,0, ,856.8,-100,530.3,1.4,128.6,18,25,947.037,-34.8149,192.575,-2.0254,69.8831,8.69518,
2026_07_06_15_03_15.112,0,30,0,0.759,0,0,0,0, ,0,0,0,0,0, ,826.2,-109.2,551.8,1.6,143.6,23.7,25,940.606,-39.0674,213.811,-1.81057,73.9182,9.43587,
2026_07_06_15_03_15.144,0,30.1,0,0.759,0,0,0,0, ,0,0,0,0,0, ,768.3,-108.1,559.9,5.2,154.1,26.1,25,931.87,-43.3076,234.654,-1.49305,78.4843,10.3782,
2026_07_06_15_03_15.152,0,30.1,0,0.759,0,0,0,0, ,0,0,0,0,0, ,721.9,-96.1,634.8,9.8,150.9,25,25,920.489,-46.8902,256.755,-0.945039,82.9947,11.3027,
2026_07_06_15_03_15.181,0,30,0,0.759,0,0,0,0, ,0,0,0,0,0, ,739.2,-111.9,701,12.1,149,30.4,25,908.914,-50.3704,281.81,-0.220185,87.0747,12.302,
2026_07_06_15_03_15.194,0,30,0,0.76,0,0,0,0, ,0,0,0,0,0, ,673.8,-120.3,736.9,11.9,150,36.6,25,896.58,-54.3758,308.448,0.524482,90.8788,13.5937,
2026_07_06_15_03_15.223,0,30,0,0.761,0,0,0,0, ,0,0,0,0,0, ,578.1,-116,752.4,10.9,143.2,35.7,25,880.088,-58.262,335.029,1.18721,94.2743,14.9682,
2026_07_06_15_03_15.231,0,30,0,0.759,0,0,0,0, ,0,0,0,0,0, ,532.9,-106.2,775,12.3,128.9,29.3,25,860.309,-61.4818,361.151,1.82174,96.82,16.0366,
2026_07_06_15_03_15.261,0,30,0,0.759,0,0,0,0, ,0,0,0,0,0, ,521.1,-120.4,839.3,13.9,115.9,26.6,25,839.998,-64.6395,388.329,2.50901,98.3788,16.7625,
2026_07_06_15_03_15.271,0,30,0,0.76,0,0,0,0, ,0,0,0,0,0, ,496.2,-132.3,867.3,12.9,120,29,25,819.806,-68.4,416.663,3.17268,99.5714,17.4351,
2026_07_06_15_03_15.301,0,30,0,0.759,0,0,0,0, ,0,0,0,0,0, ,435.7,-126,858.3,14.2,138.8,28.2,25,798.243,-72.1019,443.85,3.80505,101.389,18.1155,
2026_07_06_15_03_15.311,0,30.1,0,0.759,0,0,0,0, ,0,0,0,0,0, ,414.6,-119.8,850,16.3,141.3,24.5,25,775.508,-75.1974,468.852,4.50247,103.745,18.6173,
2026_07_06_15_03_15.341,0,29.9,0,0.758,0,0,0,0, ,0,0,0,0,0, ,399.1,-125.6,878.5,18.8,124.4,27.6,25,753.043,-78.0921,492.947,5.29756,105.519,19.0702,
2026_07_06_15_03_15.350,0,30.1,0,0.76,0,0,0,0, ,0,0,0,0,0, ,361.6,-120.4,904.5,22.5,114.1,34.7,25,730.332,-80.8287,517.234,6.2331,106.355,19.8063,
2026_07_06_15_03_15.381,0,30.1,0,0.759,0,0,0,0, ,0,0,0,0,0, ,270.7,-118.7,940.6,21.6,109.8,39.6,25,705.093,-83.1883,541.933,7.19694,106.696,20.8632,
2026_07_06_15_03_15.389,0,30.1,0,0.76,0,0,0,0, ,0,0,0,0,0, ,223.1,-99.1,951.2,23,108.4,34.1,25,677.171,-84.7551,566.549,8.11728,106.843,21.8374,
2026_07_06_15_03_15.422,0,30,0,0.758,0,0,0,0, ,0,0,0,0,0, ,207.3,-98.7,972.9,23.5,103.2,28.9,25,649.02,-85.617,590.65,9.03943,106.779,22.4262,
2026_07_06_15_03_15.430,0,30.1,0,0.758,0,0,0,0, ,0,0,0,0,0, ,195.3,-107.5,973.8,21.9,94.7,32,25,621.737,-86.6824,613.971,9.87187,106.302,22.9152,
2026_07_06_15_03_15.460,0,30,0,0.759,0,0,0,0, ,0,0,0,0,0, ,155.3,-97.1,972,21.5,96.3,36.7,25,594.532,-87.6341,635.843,10.5926,105.644,23.612,
2026_07_06_15_03_15.469,0,30,0,0.758,0,0,0,0, ,0,0,0,0,0, ,80.5,-85.8,980.5,21.3,93.5,35.7,25,565.488,-87.8666,656.587,11.2512,104.989,24.3791,
2026_07_06_15_03_15.498,0,30,0,0.76,0,0,0,0, ,0,0,0,0,0, ,37.1,-89.2,1005.3,20.9,82.8,35.7,25,534.611,-87.8443,677.081,11.8514,103.963,25.0689,
2026_07_06_15_03_15.509,0,30,0,0.76,0,0,0,0, ,0,0,0,0,0, ,54.8,-73.2,1024.9,24.7,77.4,29.8,25,504.833,-87.4394,697.679,12.5186,102.509,25.537,
2026_07_06_15_03_15.539,0,30,0,0.759,0,0,0,0, ,0,0,0,0,0, ,46.3,-68.3,1008.9,21.4,81.4,29.6,25,477.151,-86.4224,717.131,13.1603,101.101,25.7907,
2026_07_06_15_03_15.549,0,30,0,0.758,0,0,0,0, ,0,0,0,0,0, ,-26.3,-54.6,1010.8,20.4,77.9,30,25,448.684,-84.9006,734.969,13.632,99.7935,26.035,
2026_07_06_15_03_15.578,0,30.1,0,0.759,0,0,0,0, ,0,0,0,0,0, ,-47.1,-47.7,1034.3,18.1,61.2,27.2,25,419.106,-82.844,752.493,13.9743,97.9505,26.1913,
2026_07_06_15_03_15.588,0,29.9,0,0.76,0,0,0,0, ,0,0,0,0,0, ,-33.9,-48.2,1042.7,15.9,49,26,25,391.098,-80.7176,769.922,14.1587,95.3393,26.2162,
2026_07_06_15_03_15.617,0,30,0,0.757,0,0,0,0, ,0,0,0,0,0, ,-43,-46.1,1022.5,12,49.4,29.1,25,364.923,-78.6721,785.929,14.146,92.5277,26.2975,
2026_07_06_15_03_15.628,0,30.2,0,0.757,0,0,0,0, ,0,0,0,0,0, ,-120.4,-114.5,992.6,20.8,47.4,33.8,25,337.707,-78.7713,799.434,14.2833,89.8387,26.6115,
2026_07_06_15_03_15.657,0,30,0,0.758,0,0,0,0, ,0,0,0,0,0, ,-153.3,0.6,1001.7,15.6,34.3,31,25,308.788,-77.4416,811.482,14.522,86.8534,26.9642,
2026_07_06_15_03_15.668,0,30.1,0,0.76,0,0,0,0, ,0,0,0,0,0, ,-126.2,10.3,1013.4,11.6,22.2,19.1,25,281.456,-72.3903,823.43,14.4658,83.2823,26.8476,
2026_07_06_15_03_15.697,0,30.1,0,0.759,0,0,0,0, ,0,0,0,0,0, ,-105.7,-22.7,1011.4,6.1,18.1,18.5,25,257.239,-68.3569,834.945,14.1236,79.4352,26.3572,
2026_07_06_15_03_15.711,0,30.1,0,0.759,0,0,0,0, ,0,0,0,0,0, ,-138.7,-13.5,980.5,5.9,22.6,18.8,25,234.117,-65.2943,844.757,13.6286,75.8347,25.8875,
2026_07_06_15_03_15.742,0,30,0,0.758,0,0,0,0, ,0,0,0,0,0, ,-159.6,-10.2,980.2,6.5,24.1,16.5,25,210.761,-62.0376,853.019,13.1759,72.6364,25.3855,
2026_07_06_15_03_15.747,0,30,0,0.759,0,0,0,0, ,0,0,0,0,0, ,-173.7,-13.1,977.2,10.1,20.8,10.3,25,187.763,-58.9671,860.678,12.8788,69.5782,24.6552,
2026_07_06_15_03_15.777,0,30.1,0,0.76,0,0,0,0, ,0,0,0,0,0, ,-155.5,1,993.8,12.1,15.7,7.7,25,166.291,-55.7425,868.284,12.7704,66.4503,23.7012,
2026_07_06_15_03_15.786,0,30.1,0,0.759,0,0,0,0, ,0,0,0,0,0, ,-156.9,5.7,1008,9,12.1,6.2,25,146.639,-52.1415,876.366,12.6351,63.2481,22.6804,
2026_07_06_15_03_15.817,0,30.1,0,0.76,0,0,0,0, ,0,0,0,0,0, ,-168.9,3,1000.7,5.9,6.2,5.1,25,127.776,-48.6991,884.165,12.3191,59.9515,21.6426,
2026_07_06_15_03_15.826,0,30.1,0,0.76,0,0,0,0, ,0,0,0,0,0, ,-152.8,-0.4,1004.6,4.9,3.1,3.1,25,110.188,-45.6522,891.385,11.8975,56.5815,20.5736,
2026_07_06_15_03_15.856,0,30.1,0,0.759,0,0,0,0, ,0,0,0,0,0, ,-141.7,-1.3,1002.4,5.3,2.7,4.7,25,94.5006,-42.9221,898.217,11.4832,53.3103,19.5576,
2026_07_06_15_03_15.865,0,30.1,0,0.758,0,0,0,0, ,0,0,0,0,0, ,-170.6,7.4,1008.7,3.9,1.6,3.6,25,79.2266,-40.1207,904.758,11.0638,50.1927,18.6187,
2026_07_06_15_03_15.896,0,30,0,0.759,0,0,0,0, ,0,0,0,0,0, ,-166.7,-3,995.2,4,-1.9,1.3,25,64.1216,-37.5418,910.68,10.6303,47.125,17.6334,
2026_07_06_15_03_15.905,0,30.1,0,0.759,0,0,0,0, ,0,0,0,0,0, ,-136.2,4,984.9,6,-1.9,2.4,25,50.9852,-35.2236,915.517,10.2872,44.1375,16.6716,
2026_07_06_15_03_15.935,0,30,0,0.757,0,0,0,0, ,0,0,0,0,0, ,-131.1,15.1,988.2,6.4,-0.2,5.2,25,39.734,-32.4952,919.845,10.0381,41.3839,15.8872,
2026_07_06_15_03_15.945,0,30.1,0,0.759,0,0,0,0, ,0,0,0,0,0, ,-151,10.1,1004.2,5.4,-1.4,5.6,25,28.7175,-29.7472,924.498,9.78597,38.8133,15.2482,
2026_07_06_15_03_15.976,0,30,0,0.759,0,0,0,0, ,0,0,0,0,0, ,-161.7,15.6,992.4,4.6,-3.7,4.8,25,17.4399,-27.1514,928.996,9.49433,36.2927,14.6358,
2026_07_06_15_03_15.984,0,30.1,0,0.758,0,0,0,0, ,0,0,0,0,0, ,-165.6,16.3,987.5,6.7,-5.5,5.7,25,6.40476,-24.525,932.71,9.26007,33.8008,14.0639,
2026_07_06_15_03_16.014,0,30.1,0,0.758,0,0,0,0, ,0,0,0,0,0, ,-165.6,8.1,1001.9,6,-5.1,11.1,25,-4.07678,-22.287,936.487,9.08273,31.4181,13.7188,
2026_07_06_15_03_16.024,0,30.1,0,0.759,0,0,0,0, ,0,0,0,0,0, ,-134.7,31.6,1010,10,-4.5,13.2,25,-12.9781,-19.7193,940.72,9.01675,29.2111,13.6232,
2026_07_06_15_03_16.054,0,30.1,0,0.759,0,0,0,0, ,0,0,0,0,0, ,-162.9,18.9,1019,6.4,-8.2,12.9,25,-21.2548,-16.979,945.216,8.96698,27.0441,13.5882,
2026_07_06_15_03_16.063,0,30,0,0.759,0,0,0,0, ,0,0,0,0,0, ,-160.2,32.5,1016.3,4.9,-11.9,13.5,25,-29.804,-14.3782,949.63,8.76485,24.7837,13.5646,
2026_07_06_15_03_16.094,0,30,0,0.759,0,0,0,0, ,0,0,0,0,0, ,-147.5,46.6,1009.6,2.1,-12.1,9.3,25,-37.3631,-11.092,953.489,8.44403,22.5422,13.4327,
2026_07_06_15_03_16.103,0,30,0,0.758,0,0,0,0, ,0,0,0,0,0, ,-125,40.7,999.8,2.1,-11,6.3,25,-43.389,-7.75614,956.609,8.05744,20.4647,13.0894,
2026_07_06_15_03_16.135,0,30.1,0,0.758,0,0,0,0, ,0,0,0,0,0, ,-111.4,35.8,984.2,4.4,-7.4,8.7,25,-47.9478,-4.95264,958.766,7.76449,18.657,12.7488,
2026_07_06_15_03_16.143,0,30,0,0.758,0,0,0,0, ,0,0,0,0,0, ,-124.7,43.9,1008.9,7.2,-6.7,11.9,25,-52.2196,-2.22248,961.069,7.64477,17.0905,12.5996,
2026_07_06_15_03_16.174,0,30,0,0.759,0,0,0,0, ,0,0,0,0,0, ,-134.5,61.8,1020.8,4.9,-8.3,8.2,25,-56.935,1.1335,964.346,7.54759,15.592,12.4442,
2026_07_06_15_03_16.182,0,30,0,0.76,0,0,0,0, ,0,0,0,0,0, ,-121.9,63.5,1023.8,0.2,-5,2.7,25,-61.2777,4.88216,967.877,7.24305,14.2366,12.018,
2026_07_06_15_03_16.212,0,30,0,0.759,0,0,0,0, ,0,0,0,0,0, ,-118.7,45.7,1001.9,-2.4,0.1,0.1,25,-64.8744,7.91184,970.618,6.73465,13.2198,11.371,
2026_07_06_15_03_16.222,0,30.1,0,0.758,0,0,0,0, ,0,0,0,0,0, ,-122.1,41.7,982.1,-1,2.4,0.1,25,-68.258,10.0927,971.921,6.22066,12.4904,10.6842,
2026_07_06_15_03_16.253,0,30,0,0.759,0,0,0,0, ,0,0,0,0,0, ,-125.7,42.6,990.9,1.6,1,0.9,25,-71.6487,12.0462,972.809,5.85987,11.8328,10.0636,
2026_07_06_15_03_16.261,0,30,0,0.758,0,0,0,0, ,0,0,0,0,0, ,-123.6,45,1004.6,1.6,0.2,0.7,25,-74.8784,13.9812,974.329,5.60029,11.1483,9.49906,
2026_07_06_15_03_16.300,0,30.1,0,0.759,0,0,0,0, ,0,0,0,0,0, ,-124,47.6,1000.1,0.1,0.3,0.6,25,-77.8596,15.9506,976.037,5.31081,10.4842,8.95982,
2026_07_06_15_03_16.304,0,30,0,0.759,0,0,0,0, ,0,0,0,0,0, ,-121.8,44.6,983.2,0,-1,0.9,25,-80.6042,17.7878,976.988,4.99023,9.824,8.45954,
2026_07_06_15_03_16.336,0,30.1,0,0.758,0,0,0,0, ,0,0,0,0,0, ,-126.3,43.4,976.8,1,-2,1.2,25,-83.2517,19.3851,977.172,4.71661,9.13394,8.00802,
