UTC_Time,Vin,TC1,TC2,Rh1,Vh1,Ah1,Acp1,Dty1,Err1,Rh2,Vh2,Ah2,Acp2,Dty2,Err2,Accel_x,Accel_y,Accel_z,gyro_x,gyro_y,gyro_z,Temp_c,Accel_x_h,Accel_y_h,Accel_z_h,gyro_x_h,gyro_y_h,gyro_z_h,
2026_07_06_19_16_09.737,3.863,33.3,0,0.76,0,0,0,0, ,0,0,0,0,0, ,-39.1,352,938.8,-0.1,-0.5,-1.6,25,-39.1,352,938.8,-0.1,-0.5,-1.6,
2026_07_06_19_16_09.757,3.863,33.2,0,0.76,0,0,0,0, ,0,0,0,0,0, ,-40.2,350.4,936.1,-0.3,-0.4,-1.7,25,-39.1335,351.951,938.718,-0.106094,-0.496953,-1.60305,
2026_07_06_19_16_09.776,3.863,33.2,0,0.76,0,0,0,0, ,0,0,0,0,0, ,-40.4,349.4,936.5,-0.3,-0.4,-1.6,25,-39.2046,351.826,938.57,-0.11791,-0.491045,-1.60591,
2026_07_06_19_16_09.797,3.863,33.2,0,0.76,0,0,0,0, ,0,0,0,0,0, ,-39.9,349.2,937.3,-0.5,-0.4,-1.6,25,-39.2622,351.672,938.469,-0.1351,-0.485497,-1.60555,
2026_07_06_19_16_09.816,3.863,33.2,0,0.763,0,0,0,0, ,0,0,0,0,0, ,-39.3,350.8,937.6,-0.5,-0.4,-1.6,25,-39.2828,351.57,938.407,-0.157336,-0.480287,-1.60521,
2026_07_06_19_16_09.836,3.863,33.3,0,0.761,0,0,0,0, ,0,0,0,0,0, ,-39.3,350.9,937.6,-0.6,-0.4,-1.6,25,-39.2838,351.527,938.357,-0.181264,-0.475395,-1.60489,
2026_07_06_19_16_09.855,3.863,33.2,0,0.763,0,0,0,0, ,0,0,0,0,0, ,-38.9,352.1,935.6,-0.6,-0.5,-1.6,25,-39.2726,351.525,938.25,-0.206781,-0.473847,-1.60459,
2026_07_06_19_16_09.875,3.863,33.2,0,0.762,0,0,0,0, ,0,0,0,0,0, ,-39.5,349.1,938.2,-0.2,-0.5,-1.7,25,-39.2682,351.469,938.168,-0.218555,-0.475441,-1.60736,
2026_07_06_19_16_09.895,3.863,33.2,0,0.761,0,0,0,0, ,0,0,0,0,0, ,-38.6,349.7,938.2,-0.4,-0.4,-1.7,25,-39.2549,351.342,938.17,-0.223518,-0.47389,-1.61301,
2026_07_06_19_16_09.915,3.863,33.2,0,0.76,0,0,0,0, ,0,0,0,0,0, ,-38.9,350.7,935.4,-0.5,-0.4,-1.6,25,-39.2241,351.273,938.086,-0.237319,-0.469388,-1.61526,
2026_07_06_19_16_09.934,3.863,33.2,0,0.761,0,0,0,0, ,0,0,0,0,0, ,-37.8,350.7,937.8,-0.6,-0.4,-1.7,25,-39.1709,351.238,937.996,-0.256373,-0.465159,-1.61738,
2026_07_06_19_16_09.954,3.863,33.3,0,0.76,0,0,0,0, ,0,0,0,0,0, ,-38.9,351.9,937.5,-0.5,-0.5,-1.6,25,-39.1209,351.242,937.975,-0.274266,-0.464236,-1.61937,
2026_07_06_19_16_09.974,3.863,33.2,0,0.761,0,0,0,0, ,0,0,0,0,0, ,-38.8,352.7,938.8,-0.4,-0.4,-1.6,25,-39.1044,351.306,937.985,-0.284975,-0.463368,-1.61819,
2026_07_06_19_16_09.994,3.863,33.2,0,0.761,0,0,0,0, ,0,0,0,0,0, ,-38.8,352,938.2,-0.5,-0.4,-1.6,25,-39.0858,351.37,938.017,-0.295031,-0.459507,-1.61708,
2026_07_06_19_16_10.014,3.863,33.2,0,0.76,0,0,0,0, ,0,0,0,0,0, ,-38,350.5,937.2,-0.2,-0.4,-1.7,25,-39.044,351.363,937.998,-0.298381,-0.45588,-1.61908,
2026_07_06_19_16_10.033,3.863,33.1,0,0.76,0,0,0,0, ,0,0,0,0,0, ,-38,350.7,937,-0.2,-0.5,-1.6,25,-38.9804,351.316,937.943,-0.292386,-0.455522,-1.62097,
2026_07_06_19_16_10.053,3.863,33.2,0,0.76,0,0,0,0, ,0,0,0,0,0, ,-38.4,350.7,936.8,-0.1,-0.4,-1.7,25,-38.9328,351.279,937.879,-0.283709,-0.455186,-1.62274,
2026_07_06_19_16_10.073,3.863,33.2,0,0.761,0,0,0,0, ,0,0,0,0,0, ,-38.9,350.2,938.3,-0.2,-0.5,-1.6,25,-38.9156,351.228,937.859,-0.275561,-0.45487,-1.6244,
2026_07_06_19_16_10.093,3.863,33.2,0,0.761,0,0,0,0, ,0,0,0,0,0, ,-38.4,351.3,935,-0.4,-0.4,-1.7,25,-38.8994,351.199,937.786,-0.27705,-0.454573,-1.62596,
2026_07_06_19_16_10.113,3.863,33.2,0,0.761,0,0,0,0, ,0,0,0,0,0, ,-38.8,351.8,937.9,-0.5,-0.4,-1.7,25,-38.8812,351.22,937.704,-0.28759,-0.451247,-1.63047,
2026_07_06_19_16_10.132,3.863,33.2,0,0.761,0,0,0,0, ,0,0,0,0,0, ,-38.5,351.3,938.8,-0.5,-0.5,-1.6,25,-38.8671,351.24,937.744,-0.300533,-0.451171,-1.63166,
2026_07_06_19_16_10.153,3.863,33.2,0,0.761,0,0,0,0, ,0,0,0,0,0, ,-38.2,351.4,938.8,-0.5,-0.5,-1.7,25,-38.8356,351.247,937.808,-0.312688,-0.454147,-1.63278,
2026_07_06_19_16_10.172,3.863,33.2,0,0.761,0,0,0,0, ,0,0,0,0,0, ,-39.7,352.5,938.3,-0.5,-0.4,-1.6,25,-38.8425,351.29,937.853,-0.324103,-0.453894,-1.63383,
2026_07_06_19_16_10.192,3.863,33.2,0,0.761,0,0,0,0, ,0,0,0,0,0, ,-39.3,352,936.1,-0.3,-0.4,-1.7,25,-38.8826,351.348,937.813,-0.328728,-0.45061,-1.63481,
2026_07_06_19_16_10.211,3.863,33.2,0,0.761,0,0,0,0, ,0,0,0,0,0, ,-38.5,350.3,937.3,-0.2,-0.4,-1.6,25,-38.8837,351.336,937.745,-0.32393,-0.447526,-1.63574,
2026_07_06_19_16_10.231,3.863,33.2,0,0.761,0,0,0,0, ,0,0,0,0,0, ,-38.5,350,937.3,-0.1,-0.4,-1.7,25,-38.8603,351.264,937.718,-0.313331,-0.44463,-1.63661,
2026_07_06_19_16_10.257,3.863,33.2,0,0.761,0,0,0,0, ,0,0,0,0,0, ,-39.4,351.5,938.2,-0.2,-0.4,-1.7,25,-38.8658,351.233,937.72,-0.303378,-0.44191,-1.64047,
2026_07_06_19_16_10.271,3.863,33.2,0,0.762,0,0,0,0, ,0,0,0,0,0, ,-39,350.5,936.7,-0.3,-0.4,-1.7,25,-38.8861,351.219,937.704,-0.300126,-0.439356,-1.6441,
2026_07_06_19_16_10.290,3.863,33.2,0,0.76,0,0,0,0, ,0,0,0,0,0, ,-38.9,349.1,938.1,-0.5,-0.4,-1.6,25,-38.89,351.132,937.685,-0.306212,-0.436958,-1.64446,
2026_07_06_19_16_10.310,3.863,33.2,0,0.761,0,0,0,0, ,0,0,0,0,0, ,-40.4,349.7,937.1,-0.4,-0.4,-1.7,25,-38.9363,351.027,937.68,-0.314974,-0.434706,-1.6448,
2026_07_06_19_16_10.330,3.863,33.2,0,0.761,0,0,0,0, ,0,0,0,0,0, ,-38.3,350.8,939.5,-0.5,-0.5,-1.6,25,-38.9615,350.979,937.718,-0.323202,-0.435638,-1.64511,
2026_07_06_19_16_10.350,3.863,33.2,0,0.761,0,0,0,0, ,0,0,0,0,0, ,-37.8,351.1,936,-0.5,-0.5,-1.6,25,-38.906,350.977,937.72,-0.333976,-0.43956,-1.64236,
2026_07_06_19_16_10.370,3.863,33.2,0,0.761,0,0,0,0, ,0,0,0,0,0, ,-38.2,352,937,-0.5,-0.5,-1.7,25,-38.8508,351.012,937.645,-0.344093,-0.443243,-1.64283,
2026_07_06_19_16_10.390,3.863,33.2,0,0.76,0,0,0,0, ,0,0,0,0,0, ,-38.3,352.5,936.4,-0.3,-0.5,-1.6,25,-38.8142,351.088,937.588,-0.347499,-0.446702,-1.64327,
2026_07_06_19_16_10.413,3.863,33.1,0,0.76,0,0,0,0, ,0,0,0,0,0, ,-39.7,351,936.2,-0.1,-0.5,-1.6,25,-38.8255,351.128,937.509,-0.338511,-0.44995,-1.64063,
2026_07_06_19_16_10.430,3.863,33.1,0,0.761,0,0,0,0, ,0,0,0,0,0, ,-38.6,350.5,936.4,-0.1,-0.5,-1.6,25,-38.8453,351.105,937.436,-0.323977,-0.452999,-1.63815,
2026_07_06_19_16_10.449,3.863,33.2,0,0.761,0,0,0,0, ,0,0,0,0,0, ,-38.8,350.9,936.2,-0.3,-0.4,-1.6,25,-38.8364,351.08,937.366,-0.316422,-0.452817,-1.63583,
2026_07_06_19_16_10.469,3.863,33.2,0,0.762,0,0,0,0, ,0,0,0,0,0, ,-39,350.7,936.7,-0.4,-0.4,-1.7,25,-38.8403,351.063,937.311,-0.318468,-0.449598,-1.63669,
2026_07_06_19_16_10.489,3.863,33.2,0,0.761,0,0,0,0, ,0,0,0,0,0, ,-39.1,349.4,936.5,-0.5,-0.4,-1.7,25,-38.8531,351.002,937.267,-0.326483,-0.446576,-1.64055,
2026_07_06_19_16_10.508,3.863,33.1,0,0.761,0,0,0,0, ,0,0,0,0,0, ,-38.4,350.9,937.8,-0.5,-0.5,-1.6,25,-38.8468,350.95,937.26,-0.337057,-0.446784,-1.64113,
2026_07_06_19_16_10.528,3.863,33.2,0,0.761,0,0,0,0, ,0,0,0,0,0, ,-38.3,351.5,937.6,-0.5,-0.4,-1.7,25,-38.8165,350.965,937.287,-0.346986,-0.44698,-1.64167,
2026_07_06_19_16_10.548,3.863,33.2,0,0.761,0,0,0,0, ,0,0,0,0,0, ,-38.6,349.4,938.2,-0.1,-0.4,-1.6,25,-38.7942,350.934,937.324,-0.344123,-0.444118,-1.64217,
2026_07_06_19_16_10.570,3.863,33.1,0,0.762,0,0,0,0, ,0,0,0,0,0, ,-39.9,350.3,937.2,-0.3,-0.4,-1.7,25,-38.822,350.868,937.347,-0.335341,-0.441429,-1.64265,
2026_07_06_19_16_10.587,3.863,33.2,0,0.76,0,0,0,0, ,0,0,0,0,0, ,-38.2,351.9,936,-0.4,-0.5,-1.6,25,-38.8359,350.882,937.302,-0.336234,-0.441951,-1.6431,
2026_07_06_19_16_10.607,3.863,33.3,0,0.76,0,0,0,0, ,0,0,0,0,0, ,-38.5,350.8,937.1,-0.6,-0.4,-1.7,25,-38.8062,350.91,937.256,-0.346214,-0.442442,-1.64352,
2026_07_06_19_16_10.627,3.863,33.2,0,0.762,0,0,0,0, ,0,0,0,0,0, ,-39.9,349.6,937.2,-0.6,-0.4,-1.7,25,-38.8302,350.867,937.249,-0.361679,-0.439856,-1.64696,
2026_07_06_19_16_10.649,3.863,33.2,0,0.762,0,0,0,0, ,0,0,0,0,0, ,-39.5,351.9,937.9,-0.5,-0.4,-1.6,25,-38.8832,350.86,937.268,-0.373154,-0.437427,-1.64715,
2026_07_06_19_16_10.666,3.863,33.1,0,0.761,0,0,0,0, ,0,0,0,0,0, ,-39.9,352.5,938.7,-0.4,-0.4,-1.7,25,-38.933,350.941,937.331,-0.377837,-0.435146,-1.64732,
2026_07_06_19_16_10.686,3.863,33.2,0,0.76,0,0,0,0, ,0,0,0,0,0, ,-39.5,352.5,938.1,-0.3,-0.5,-1.6,25,-38.9798,351.036,937.396,-0.376141,-0.436051,-1.64748,
2026_07_06_19_16_10.707,3.863,33.1,0,0.761,0,0,0,0, ,0,0,0,0,0, ,-39.3,350.8,936.1,-0.3,-0.5,-1.6,25,-39.0054,351.074,937.378,-0.371501,-0.439948,-1.64459,
2026_07_06_19_16_10.726,3.863,33.2,0,0.76,0,0,0,0, ,0,0,0,0,0, ,-39,351.8,937.8,-0.2,-0.5,-1.7,25,-39.0142,351.088,937.352,-0.364097,-0.443608,-1.64492,
2026_07_06_19_16_10.746,3.863,33.2,0,0.761,0,0,0,0, ,0,0,0,0,0, ,-38.8,349.8,936,-0.1,-0.5,-1.6,25,-39.0072,351.07,937.324,-0.351051,-0.447044,-1.64523,
2026_07_06_19_16_10.765,3.863,33.3,0,0.76,0,0,0,0, ,0,0,0,0,0, ,-39.1,349.9,936.6,-0.3,-0.5,-1.7,25,-39.0037,350.996,937.262,-0.341846,-0.450271,-1.64552,
2026_07_06_19_16_10.785,3.863,33.3,0,0.761,0,0,0,0, ,0,0,0,0,0, ,-38,349.1,937.2,-0.5,-0.5,-1.6,25,-38.9761,350.905,937.24,-0.34539,-0.453301,-1.64579,
2026_07_06_19_16_10.806,3.863,33.3,0,0.762,0,0,0,0, ,0,0,0,0,0, ,-39,350,937.8,-0.6,-0.4,-1.6,25,-38.9471,350.822,937.256,-0.357858,-0.4531,-1.643,
2026_07_06_19_16_10.826,3.863,33.2,0,0.761,0,0,0,0, ,0,0,0,0,0, ,-39.7,350.5,937.6,-0.5,-0.5,-1.7,25,-38.9716,350.787,937.283,-0.369567,-0.452911,-1.64343,
2026_07_06_19_16_10.845,3.863,33.1,0,0.761,0,0,0,0, ,0,0,0,0,0, ,-39,351.4,937.6,-0.5,-0.4,-1.7,25,-38.9947,350.797,937.302,-0.377515,-0.452734,-1.64688,
2026_07_06_19_16_10.865,3.863,33.2,0,0.759,0,0,0,0, ,0,0,0,0,0, ,-39.6,352.4,937.6,-0.3,-0.4,-1.6,25,-39.0133,350.864,937.32,-0.378885,-0.44952,-1.64707,
2026_07_06_19_16_10.885,3.863,33.1,0,0.761,0,0,0,0, ,0,0,0,0,0, ,-39.5,352.2,937,-0.3,-0.4,-1.7,25,-39.046,350.952,937.319,-0.374078,-0.446503,-1.64725,
2026_07_06_19_16_10.905,3.863,33.2,0,0.761,0,0,0,0, ,0,0,0,0,0, ,-37.8,350.5,937.2,-0.2,-0.4,-1.7,25,-39.0219,350.976,937.306,-0.366517,-0.443669,-1.65046,
2026_07_06_19_16_10.927,3.863,33.1,0,0.761,0,0,0,0, ,0,0,0,0,0, ,-38.5,349.4,937.3,-0.2,-0.4,-1.6,25,-38.9687,350.914,937.302,-0.35637,-0.441008,-1.65043,
2026_07_06_19_16_10.944,3.863,33.2,0,0.76,0,0,0,0, ,0,0,0,0,0, ,-39.5,351.3,938.5,-0.2,-0.4,-1.7,25,-38.9706,350.879,937.339,-0.346841,-0.438509,-1.65041,
2026_07_06_19_16_10.963,3.863,33.2,0,0.761,0,0,0,0, ,0,0,0,0,0, ,-38.8,350.5,937.2,-0.3,-0.4,-1.6,25,-38.9816,350.88,937.37,-0.34094,-0.436162,-1.65038,
2026_07_06_19_16_10.984,3.863,33.2,0,0.76,0,0,0,0, ,0,0,0,0,0, ,-37.9,349.6,937.5,-0.4,-0.4,-1.8,25,-38.9431,350.83,937.369,-0.341492,-0.433959,-1.6534,
2026_07_06_19_16_11.003,3.863,33.1,0,0.761,0,0,0,0, ,0,0,0,0,0, ,-38.8,350,937.2,-0.6,-0.5,-1.7,25,-38.9069,350.767,937.367,-0.351151,-0.434936,-1.65929,
2026_07_06_19_16_11.023,3.863,33.2,0,0.762,0,0,0,0, ,0,0,0,0,0, ,-39.6,349.9,937.2,-0.4,-0.4,-1.6,25,-38.9248,350.717,937.357,-0.360222,-0.435854,-1.65872,
2026_07_06_19_16_11.047,3.863,33.2,0,0.761,0,0,0,0, ,0,0,0,0,0, ,-38.8,351,938.9,-0.4,-0.5,-1.6,25,-38.9416,350.701,937.399,-0.362646,-0.436716,-1.65515,
2026_07_06_19_16_11.063,3.863,33.1,0,0.761,0,0,0,0, ,0,0,0,0,0, ,-39,352.6,936.4,-0.4,-0.5,-1.6,25,-38.939,350.768,937.415,-0.364922,-0.440573,-1.65179,
2026_07_06_19_16_11.083,3.863,33.2,0,0.761,0,0,0,0, ,0,0,0,0,0, ,-38.3,351.5,936.2,-0.2,-0.4,-1.7,25,-38.9214,350.846,937.347,-0.360966,-0.441147,-1.65168,
2026_07_06_19_16_11.102,3.863,33.1,0,0.76,0,0,0,0, ,0,0,0,0,0, ,-37.8,350.5,937.2,-0.1,-0.4,-1.6,25,-38.8683,350.855,937.307,-0.34811,-0.43864,-1.65157,
2026_07_06_19_16_11.122,3.863,33.1,0,0.762,0,0,0,0, ,0,0,0,0,0, ,-40.1,349.3,938.2,-0.1,-0.4,-1.7,25,-38.8733,350.797,937.331,-0.332991,-0.436285,-1.65148,
2026_07_06_19_16_11.141,3.863,33.2,0,0.761,0,0,0,0, ,0,0,0,0,0, ,-38.6,349.8,936.4,-0.2,-0.5,-1.7,25,-38.9023,350.721,937.329,-0.32184,-0.437121,-1.65444,
2026_07_06_19_16_11.162,3.863,33.2,0,0.761,0,0,0,0, ,0,0,0,0,0, ,-39.7,350.2,936.1,-0.4,-0.5,-1.6,25,-38.9174,350.677,937.264,-0.320509,-0.440952,-1.65417,
2026_07_06_19_16_11.181,3.863,33.2,0,0.76,0,0,0,0, ,0,0,0,0,0, ,-39,349.1,936,-0.5,-0.5,-1.7,25,-38.9438,350.615,937.19,-0.3284,-0.444551,-1.65391,
2026_07_06_19_16_11.214,3.863,33.1,0,0.76,0,0,0,0, ,0,0,0,0,0, ,-38.5,349.9,936.5,-0.5,-0.5,-1.6,25,-38.932,350.547,937.132,-0.338857,-0.44793,-1.65367,
2026_07_06_19_16_11.228,3.863,33.2,0,0.763,0,0,0,0, ,0,0,0,0,0, ,-38,350.9,936.1,-0.2,-0.4,-1.7,25,-38.8904,350.538,937.082,-0.339536,-0.448056,-1.65345,
2026_07_06_19_16_11.245,3.863,33.2,0,0.761,0,0,0,0, ,0,0,0,0,0, ,-39,349.3,938.1,-0.3,-0.5,-1.6,25,-38.8666,350.511,937.083,-0.33408,-0.448174,-1.65324,
2026_07_06_19_16_11.260,3.863,33.2,0,0.761,0,0,0,0, ,0,0,0,0,0, ,-39.6,349.2,936.8,-0.4,-0.5,-1.7,25,-38.893,350.434,937.105,-0.33505,-0.451332,-1.65304,
2026_07_06_19_16_11.281,3.863,33.2,0,0.763,0,0,0,0, ,0,0,0,0,0, ,-38.5,351.1,937.2,-0.4,-0.4,-1.7,25,-38.9026,350.417,937.099,-0.339008,-0.451251,-1.6559,
2026_07_06_19_16_11.301,3.863,33.1,0,0.761,0,0,0,0, ,0,0,0,0,0, ,-39.7,351.3,938.5,-0.6,-0.4,-1.7,25,-38.9146,350.465,937.145,-0.348818,-0.448128,-1.65859,
2026_07_06_19_16_11.320,3.863,33.2,0,0.76,0,0,0,0, ,0,0,0,0,0, ,-39.5,351.4,936.6,-0.5,-0.5,-1.7,25,-38.9564,350.519,937.169,-0.361078,-0.448242,-1.66111,
2026_07_06_19_16_11.339,3.863,33.2,0,0.76,0,0,0,0, ,0,0,0,0,0, ,-39.3,350.7,936.7,-0.5,-0.5,-1.6,25,-38.9834,350.551,937.138,-0.369543,-0.451396,-1.66044,
2026_07_06_19_16_11.363,3.863,33.1,0,0.76,0,0,0,0, ,0,0,0,0,0, ,-38.8,352.1,937.7,-0.3,-0.5,-1.6,25,-38.9875,350.603,937.141,-0.371399,-0.454358,-1.65675,
2026_07_06_19_16_11.379,3.863,33.2,0,0.762,0,0,0,0, ,0,0,0,0,0, ,-39.6,352.7,937.7,-0.2,-0.4,-1.6,25,-39.0004,350.712,937.175,-0.364001,-0.454092,-1.6533,
2026_07_06_19_16_11.400,3.863,33.1,0,0.76,0,0,0,0, ,0,0,0,0,0, ,-38.9,351.3,938.3,-0.2,-0.4,-1.6,25,-39.0156,350.791,937.226,-0.354008,-0.450796,-1.65005,
2026_07_06_19_16_11.419,3.863,33.1,0,0.76,0,0,0,0, ,0,0,0,0,0, ,-38.8,350.4,936.7,-0.2,-0.5,-1.6,25,-39.0056,350.794,937.242,-0.344623,-0.450748,-1.647,
2026_07_06_19_16_11.439,3.863,33.2,0,0.759,0,0,0,0, ,0,0,0,0,0, ,-38.6,349.6,935.1,-0.3,-0.4,-1.6,25,-38.9869,350.746,937.161,-0.338857,-0.450702,-1.64413,
2026_07_06_19_16_11.459,3.863,33.1,0,0.761,0,0,0,0, ,0,0,0,0,0, ,-38.3,351.6,937.6,-0.3,-0.4,-1.7,25,-38.9542,350.737,937.111,-0.336489,-0.447612,-1.64449,
2026_07_06_19_16_11.479,3.863,33.1,0,0.761,0,0,0,0, ,0,0,0,0,0, ,-39.1,351.1,936.8,-0.5,-0.4,-1.6,25,-38.9387,350.774,937.117,-0.340359,-0.444711,-1.64483,
2026_07_06_19_16_11.499,3.863,33.1,0,0.76,0,0,0,0, ,0,0,0,0,0, ,-39.7,351.9,938.4,-0.6,-0.5,-1.7,25,-38.9668,350.819,937.146,-0.353134,-0.445033,-1.64514,
2026_07_06_19_16_11.518,3.863,33.1,0,0.762,0,0,0,0, ,0,0,0,0,0, ,-40.1,350.7,935.6,-0.5,-0.5,-1.7,25,-39.0237,350.848,937.137,-0.365131,-0.448383,-1.64849,
2026_07_06_19_16_11.538,3.863,33.1,0,0.76,0,0,0,0, ,0,0,0,0,0, ,-39.1,351.4,936.6,-0.5,-0.5,-1.6,25,-39.0588,350.86,937.074,-0.373349,-0.451528,-1.64858,
2026_07_06_19_16_11.564,3.863,33.1,0,0.762,0,0,0,0, ,0,0,0,0,0, ,-39,352.7,937.7,-0.3,-0.4,-1.7,25,-39.0583,350.933,937.079,-0.374973,-0.451435,-1.64866,
2026_07_06_19_16_11.577,3.863,33.2,0,0.762,0,0,0,0, ,0,0,0,0,0, ,-38.9,350.9,937.9,-0.1,-0.4,-1.6,25,-39.0517,350.986,937.123,-0.364311,-0.448301,-1.64875,
2026_07_06_19_16_11.597,3.863,33.1,0,0.761,0,0,0,0, ,0,0,0,0,0, ,-38.9,351.6,936.2,-0.2,-0.4,-1.6,25,-39.0424,351.002,937.118,-0.351251,-0.445357,-1.64578,
2026_07_06_19_16_11.618,3.863,33.1,0,0.761,0,0,0,0, ,0,0,0,0,0, ,-39.6,350.8,936.5,-0.2,-0.4,-1.6,25,-39.0551,351.014,937.071,-0.342034,-0.442594,-1.64299,
2026_07_06_19_16_11.636,3.863,33.1,0,0.76,0,0,0,0, ,0,0,0,0,0, ,-39.3,349.4,937.6,-0.2,-0.4,-1.6,25,-39.0792,350.958,937.07,-0.333379,-0.439998,-1.64037,
2026_07_06_19_16_11.656,3.863,33.1,0,0.76,0,0,0,0, ,0,0,0,0,0, ,-39.7,349.6,937.5,-0.3,-0.4,-1.8,25,-39.1048,350.869,937.099,-0.328298,-0.437561,-1.644,
2026_07_06_19_16_11.676,3.863,33.1,0,0.761,0,0,0,0, ,0,0,0,0,0, ,-38.6,351.8,937.7,-0.5,-0.5,-1.6,25,-39.1076,350.859,937.13,-0.332668,-0.438319,-1.64741,
2026_07_06_19_16_11.697,3.863,33.1,0,0.762,0,0,0,0, ,0,0,0,0,0, ,-38.3,350,936.4,-0.6,-0.5,-1.6,25,-39.0675,350.861,937.125,-0.345911,-0.442077,-1.64452,
2026_07_06_19_16_11.716,3.863,33.1,0,0.761,0,0,0,0, ,0,0,0,0,0, ,-39.4,350.8,937,-0.5,-0.4,-1.7,25,-39.0542,350.833,937.099,-0.358348,-0.44256,-1.64486,
2026_07_06_19_16_11.735,3.863,33.1,0,0.76,0,0,0,0, ,0,0,0,0,0, ,-39.1,353,937.8,-0.4,-0.5,-1.6,25,-39.0662,350.898,937.117,-0.363933,-0.443013,-1.64517,
2026_07_06_19_16_11.757,3.863,33.1,0,0.761,0,0,0,0, ,0,0,0,0,0, ,-37.8,350.5,937.8,-0.1,-0.4,-1.6,25,-39.0286,350.95,937.159,-0.35699,-0.443439,-1.64242,
2026_07_06_19_16_11.775,3.863,33.1,0,0.76,0,0,0,0, ,0,0,0,0,0, ,-38.9,350.7,937.3,-0.1,-0.4,-1.7,25,-38.9873,350.929,937.183,-0.34133,-0.440792,-1.64288,
2026_07_06_19_16_11.795,3.863,33.2,0,0.762,0,0,0,0, ,0,0,0,0,0, ,-39.7,349.4,937.7,-0.3,-0.5,-1.7,25,-39.0063,350.875,937.202,-0.332718,-0.441353,-1.64636,
2026_07_06_19_16_11.814,3.863,33.1,0,0.76,0,0,0,0, ,0,0,0,0,0, ,-38.9,349.6,936.4,-0.5,-0.4,-1.6,25,-39.0242,350.792,937.193,-0.336818,-0.44188,-1.64658,
2026_07_06_19_16_11.835,3.863,33.1,0,0.762,0,0,0,0, ,0,0,0,0,0, ,-37.9,349.6,935.3,-0.3,-0.4,-1.6,25,-38.9862,350.719,937.111,-0.340668,-0.439328,-1.64374,
2026_07_06_19_16_11.854,3.863,33.2,0,0.762,0,0,0,0, ,0,0,0,0,0, ,-37.9,350,938.3,-0.4,-0.5,-1.6,25,-38.92,350.663,937.092,-0.341236,-0.439978,-1.64108,
2026_07_06_19_16_11.874,3.863,33.1,0,0.76,0,0,0,0, ,0,0,0,0,0, ,-39.3,351,937,-0.6,-0.4,-1.6,25,-38.9005,350.653,937.126,-0.350911,-0.440589,-1.63858,
2026_07_06_19_16_11.894,3.863,33.1,0,0.761,0,0,0,0, ,0,0,0,0,0, ,-39.1,350.3,938.1,-0.6,-0.4,-1.6,25,-38.9187,350.653,937.152,-0.36609,-0.438116,-1.63622,
2026_07_06_19_16_11.914,3.863,33.1,0,0.76,0,0,0,0, ,0,0,0,0,0, ,-38.6,349.8,937.6,-0.1,-0.4,-1.6,25,-38.9145,350.616,937.194,-0.365109,-0.435793,-1.63402,
2026_07_06_19_16_11.934,3.863,33.1,0,0.76,0,0,0,0, ,0,0,0,0,0, ,-39.1,349.8,937.6,-0.3,-0.5,-1.6,25,-38.9106,350.566,937.219,-0.355048,-0.436659,-1.63194,
2026_07_06_19_16_11.953,3.863,33.1,0,0.76,0,0,0,0, ,0,0,0,0,0, ,-38.8,348.2,937,-0.5,-0.4,-1.8,25,-38.913,350.471,937.224,-0.357787,-0.437472,-1.63609,
2026_07_06_19_16_11.975,3.863,33.1,0,0.761,0,0,0,0, ,0,0,0,0,0, ,-38.4,349.9,936,-0.5,-0.4,-1.7,25,-38.8939,350.384,937.18,-0.366453,-0.435188,-1.64303,
2026_07_06_19_16_11.993,3.863,33.1,0,0.76,0,0,0,0, ,0,0,0,0,0, ,-37.7,351.5,937.9,-0.5,-0.4,-1.7,25,-38.8425,350.404,937.166,-0.374591,-0.433044,-1.6465,
2026_07_06_19_16_12.013,3.863,33.2,0,0.76,0,0,0,0, ,0,0,0,0,0, ,-38.9,351.8,937.6,-0.5,-0.4,-1.6,25,-38.8095,350.48,937.202,-0.382234,-0.43103,-1.64672,
2026_07_06_19_16_12.032,3.863,33.1,0,0.761,0,0,0,0, ,0,0,0,0,0, ,-39.5,352.9,937.3,-0.4,-0.4,-1.6,25,-38.8333,350.593,937.217,-0.386363,-0.429139,-1.64387,
2026_07_06_19_16_12.052,3.863,33.2,0,0.761,0,0,0,0, ,0,0,0,0,0, ,-38.8,351.3,936.1,-0.2,-0.5,-1.7,25,-38.8526,350.685,937.185,-0.3811,-0.430411,-1.64424,
2026_07_06_19_16_12.072,3.863,33.1,0,0.761,0,0,0,0, ,0,0,0,0,0, ,-40.2,349.6,935.4,-0.1,-0.5,-1.5,25,-38.892,350.671,937.098,-0.367018,-0.434651,-1.64155,
2026_07_06_19_16_12.092,3.863,33.2,0,0.762,0,0,0,0, ,0,0,0,0,0, ,-38.6,350.9,936.7,-0.2,-0.4,-1.7,25,-38.923,350.645,937.034,-0.353793,-0.435587,-1.63902,
2026_07_06_19_16_12.112,3.863,33.1,0,0.76,0,0,0,0, ,0,0,0,0,0, ,-39.3,350.8,936.8,-0.3,-0.5,-1.7,25,-38.9246,350.658,937.017,-0.347468,-0.436465,-1.64273,
2026_07_06_19_16_12.132,3.863,33.1,0,0.761,0,0,0,0, ,0,0,0,0,0, ,-37.5,350.3,939,-0.4,-0.4,-1.6,25,-38.8926,350.651,937.07,-0.347623,-0.43729,-1.64317,
2026_07_06_19_16_12.152,3.863,33.1,0,0.76,0,0,0,0, ,0,0,0,0,0, ,-38.2,349.2,937.2,-0.6,-0.5,-1.6,25,-38.8291,350.596,937.133,-0.356908,-0.438064,-1.64054,
2026_07_06_19_16_12.171,3.863,33.1,0,0.761,0,0,0,0, ,0,0,0,0,0, ,-38,350.9,937,-0.5,-0.4,-1.6,25,-38.7847,350.563,937.131,-0.368675,-0.438792,-1.63807,
2026_07_06_19_16_12.193,3.863,33,0,0.761,0,0,0,0, ,0,0,0,0,0, ,-39.5,351,938.4,-0.4,-0.5,-1.7,25,-38.7826,350.587,937.166,-0.37363,-0.439475,-1.6388,
2026_07_06_19_16_12.210,3.863,33.1,0,0.761,0,0,0,0, ,0,0,0,0,0, ,-39.1,352.5,937,-0.3,-0.5,-1.6,25,-38.8141,350.657,937.198,-0.37219,-0.443163,-1.63948,
2026_07_06_19_16_12.231,3.863,33.1,0,0.762,0,0,0,0, ,0,0,0,0,0, ,-39,351.8,937.5,-0.3,-0.5,-1.7,25,-38.8285,350.748,937.202,-0.367791,-0.446626,-1.64012,
2026_07_06_19_16_12.250,3.863,33.2,0,0.761,0,0,0,0, ,0,0,0,0,0, ,-38.3,351.6,937,-0.2,-0.5,-1.7,25,-38.8176,350.806,937.204,-0.360613,-0.449879,-1.64377,
2026_07_06_19_16_12.270,3.863,33.1,0,0.76,0,0,0,0, ,0,0,0,0,0, ,-40,350.8,935.7,-0.1,-0.4,-1.7,25,-38.8379,350.83,937.152,-0.347779,-0.449886,-1.6472,
2026_07_06_19_16_12.289,3.863,33.1,0,0.761,0,0,0,0, ,0,0,0,0,0, ,-40,350,936.7,-0.3,-0.4,-1.6,25,-38.9087,350.804,937.094,-0.338774,-0.446846,-1.64737,
2026_07_06_19_16_12.309,3.863,33.1,0,0.761,0,0,0,0, ,0,0,0,0,0, ,-39.5,351.1,937.6,-0.5,-0.4,-1.7,25,-38.9599,350.789,937.098,-0.342505,-0.443992,-1.64753,
2026_07_06_19_16_12.329,3.863,33.1,0,0.761,0,0,0,0, ,0,0,0,0,0, ,-38.4,351.3,937.3,-0.5,-0.4,-1.6,25,-38.9593,350.814,937.119,-0.352102,-0.441311,-1.64768,
2026_07_06_19_16_12.349,3.863,33.2,0,0.762,0,0,0,0, ,0,0,0,0,0, ,-38.9,350,936.5,-0.5,-0.4,-1.6,25,-38.9405,350.804,937.106,-0.361115,-0.438793,-1.64477,
2026_07_06_19_16_12.376,3.863,33.1,0,0.761,0,0,0,0, ,0,0,0,0,0, ,-38.3,351.6,937.1,-0.4,-0.4,-1.7,25,-38.9197,350.804,937.087,-0.366531,-0.436429,-1.64509,
2026_07_06_19_16_12.394,3.863,33.1,0,0.761,0,0,0,0, ,0,0,0,0,0, ,-39.6,353.1,937.6,-0.3,-0.4,-1.7,25,-38.9216,350.898,937.103,-0.365524,-0.43421,-1.64844,
2026_07_06_19_16_12.409,3.863,33.1,0,0.76,0,0,0,0, ,0,0,0,0,0, ,-38.4,352,937.5,-0.2,-0.5,-1.7,25,-38.9264,350.998,937.13,-0.358484,-0.435172,-1.65158,
2026_07_06_19_16_12.429,3.863,33.2,0,0.761,0,0,0,0, ,0,0,0,0,0, ,-39.3,351.4,935.9,-0.1,-0.4,-1.7,25,-38.9217,351.041,937.104,-0.34578,-0.436075,-1.65453,
2026_07_06_19_16_12.448,3.863,33.1,0,0.76,0,0,0,0, ,0,0,0,0,0, ,-39.9,350.8,936.2,-0.2,-0.4,-1.6,25,-38.963,351.045,937.04,-0.333849,-0.433877,-1.65426,
2026_07_06_19_16_12.468,3.863,33.1,0,0.761,0,0,0,0, ,0,0,0,0,0, ,-39,348.9,937.3,-0.3,-0.4,-1.6,25,-38.9927,350.972,937.022,-0.32874,-0.431813,-1.65095,
2026_07_06_19_16_12.488,3.863,33.1,0,0.76,0,0,0,0, ,0,0,0,0,0, ,-38.9,349.4,937.9,-0.4,-0.4,-1.7,25,-38.9901,350.861,937.058,-0.330035,-0.429874,-1.65089,
2026_07_06_19_16_12.507,3.863,33.2,0,0.761,0,0,0,0, ,0,0,0,0,0, ,-38.8,349.8,937.9,-0.5,-0.4,-1.7,25,-38.9816,350.784,937.109,-0.337346,-0.428054,-1.65388,
2026_07_06_19_16_12.527,3.863,33.1,0,0.759,0,0,0,0, ,0,0,0,0,0, ,-39,351.6,937.5,-0.6,-0.4,-1.6,25,-38.9766,350.779,937.145,-0.350304,-0.426344,-1.65365,
2026_07_06_19_16_12.548,3.863,33.1,0,0.76,0,0,0,0, ,0,0,0,0,0, ,-38.5,351.4,935.5,-0.5,-0.5,-1.7,25,-38.9628,350.823,937.106,-0.362473,-0.427786,-1.65343,
2026_07_06_19_16_12.568,3.863,33.1,0,0.761,0,0,0,0, ,0,0,0,0,0, ,-38,352,937.2,-0.2,-0.4,-1.6,25,-38.9194,350.876,937.06,-0.361713,-0.429139,-1.65322,
2026_07_06_19_16_12.588,3.863,33.1,0,0.761,0,0,0,0, ,0,0,0,0,0, ,-38.8,350.9,937.8,-0.5,-0.5,-1.8,25,-38.8877,350.911,937.086,-0.360999,-0.430411,-1.65607,
2026_07_06_19_16_12.607,3.863,33.2,0,0.762,0,0,0,0, ,0,0,0,0,0, ,-37.9,349.7,935.5,-0.6,-0.4,-1.7,25,-38.8549,350.874,937.06,-0.372517,-0.431604,-1.66179,
2026_07_06_19_16_12.626,3.863,33.1,0,0.761,0,0,0,0, ,0,0,0,0,0, ,-39.5,350.2,938.5,-0.7,-0.4,-1.6,25,-38.8455,350.818,937.056,-0.389426,-0.429678,-1.66107,
2026_07_06_19_16_12.647,3.863,33.1,0,0.761,0,0,0,0, ,0,0,0,0,0, ,-39.3,352.2,937.1,-0.4,-0.4,-1.6,25,-38.8793,350.841,937.101,-0.399211,-0.42787,-1.65735,
2026_07_06_19_16_12.666,3.863,33.1,0,0.761,0,0,0,0, ,0,0,0,0,0, ,-37.4,352,938.3,-0.2,-0.5,-1.7,25,-38.847,350.918,937.138,-0.393165,-0.429218,-1.6569,
2026_07_06_19_16_12.686,3.863,33,0,0.762,0,0,0,0, ,0,0,0,0,0, ,-37.7,351.4,936.2,-0.3,-0.4,-1.6,25,-38.768,350.965,937.145,-0.384441,-0.430485,-1.65648,
2026_07_06_19_16_12.705,3.863,33.2,0,0.759,0,0,0,0, ,0,0,0,0,0, ,-38.5,350.8,937.3,-0.2,-0.4,-1.7,25,-38.7273,350.974,937.121,-0.376248,-0.428627,-1.65609,
2026_07_06_19_16_12.725,3.863,33.1,0,0.762,0,0,0,0, ,0,0,0,0,0, ,-39.4,350.5,936.8,-0.1,-0.4,-1.7,25,-38.7409,350.954,937.116,-0.362461,-0.426883,-1.65876,
2026_07_06_19_16_12.745,3.863,33.1,0,0.76,0,0,0,0, ,0,0,0,0,0, ,-38.6,350.4,937.3,-0.2,-0.4,-1.7,25,-38.7567,350.923,937.112,-0.349515,-0.425244,-1.66128,
2026_07_06_19_16_12.764,3.863,33.1,0,0.76,0,0,0,0, ,0,0,0,0,0, ,-37.7,349.7,936.6,-0.4,-0.5,-1.7,25,-38.7197,350.87,937.102,-0.346497,-0.426753,-1.66364,
2026_07_06_19_16_12.785,3.863,33.2,0,0.761,0,0,0,0, ,0,0,0,0,0, ,-38.5,350.4,936.7,-0.6,-0.4,-1.6,25,-38.6819,350.82,937.075,-0.355851,-0.42817,-1.66281,
2026_07_06_19_16_12.804,3.863,33.1,0,0.761,0,0,0,0, ,0,0,0,0,0, ,-38.6,350.9,935.9,-0.6,-0.4,-1.7,25,-38.6739,350.81,937.028,-0.370729,-0.426453,-1.66202,
2026_07_06_19_16_12.825,3.863,33.1,0,0.762,0,0,0,0, ,0,0,0,0,0, ,-39.5,351,938.3,-0.5,-0.5,-1.7,25,-38.6968,350.818,937.032,-0.381653,-0.427888,-1.66434,
2026_07_06_19_16_12.844,3.863,33.1,0,0.762,0,0,0,0, ,0,0,0,0,0, ,-38.6,350.9,937.3,-0.3,-0.4,-1.7,25,-38.7183,350.826,937.079,-0.382771,-0.429235,-1.66651,
2026_07_06_19_16_12.864,3.863,33.1,0,0.761,0,0,0,0, ,0,0,0,0,0, ,-39,351.8,937.3,-0.2,-0.4,-1.6,25,-38.7233,350.858,937.092,-0.374681,-0.427454,-1.66551,
2026_07_06_19_16_12.883,3.863,33.1,0,0.761,0,0,0,0, ,0,0,0,0,0, ,-38.9,352.1,937,-0.2,-0.4,-1.7,25,-38.7371,350.925,937.096,-0.364036,-0.425781,-1.66456,
2026_07_06_19_16_12.903,3.863,33,0,0.761,0,0,0,0, ,0,0,0,0,0, ,-39.3,349.7,936.2,-0.2,-0.4,-1.7,25,-38.7592,350.923,937.066,-0.35404,-0.42421,-1.66672,
2026_07_06_19_16_12.923,3.863,33.1,0,0.762,0,0,0,0, ,0,0,0,0,0, ,-38.3,350.5,935.6,-0.3,-0.4,-1.6,25,-38.7617,350.873,936.995,-0.3477,-0.422735,-1.6657,
2026_07_06_19_16_12.943,3.863,33.1,0,0.76,0,0,0,0, ,0,0,0,0,0, ,-39.3,348.9,937.3,-0.4,-0.5,-1.7,25,-38.764,350.802,936.961,-0.34784,-0.424396,-1.66474,
2026_07_06_19_16_12.963,3.863,33.1,0,0.761,0,0,0,0, ,0,0,0,0,0, ,-38.9,350.7,937.5,-0.4,-0.4,-1.6,25,-38.7845,350.741,936.988,-0.351019,-0.425956,-1.66385,
2026_07_06_19_16_12.983,3.863,33.1,0,0.761,0,0,0,0, ,0,0,0,0,0, ,-38.2,351.8,937.8,-0.6,-0.4,-1.7,25,-38.7702,350.772,937.028,-0.360097,-0.424375,-1.663,
2026_07_06_19_16_13.003,3.863,33.2,0,0.761,0,0,0,0, ,0,0,0,0,0, ,-38.4,351.4,935.7,-0.5,-0.5,-1.7,25,-38.7416,350.822,937.012,-0.37167,-0.425936,-1.66526,
2026_07_06_19_16_13.022,3.863,33.1,0,0.76,0,0,0,0, ,0,0,0,0,0, ,-39.3,351.5,937.7,-0.4,-0.4,-1.6,25,-38.7482,350.86,936.993,-0.376443,-0.427403,-1.66433,
2026_07_06_19_16_13.045,3.863,33.1,0,0.76,0,0,0,0, ,0,0,0,0,0, ,-40,351.3,938.2,-0.1,-0.4,-1.8,25,-38.8031,350.893,937.051,-0.368738,-0.425733,-1.6665,
2026_07_06_19_16_13.061,3.863,33.2,0,0.761,0,0,0,0, ,0,0,0,0,0, ,-38.8,353,938.4,-0.1,-0.4,-1.6,25,-38.8395,350.97,937.127,-0.352362,-0.424165,-1.66854,
2026_07_06_19_16_13.082,3.863,33.1,0,0.761,0,0,0,0, ,0,0,0,0,0, ,-38.9,351.6,937.1,-0.1,-0.4,-1.7,25,-38.8401,351.051,937.165,-0.336983,-0.422692,-1.66741,
2026_07_06_19_16_13.101,3.863,33.1,0,0.76,0,0,0,0, ,0,0,0,0,0, ,-38.2,349.2,937.8,-0.3,-0.5,-1.7,25,-38.8225,351.011,937.182,-0.328636,-0.424356,-1.6694,
2026_07_06_19_16_13.121,3.863,33.1,0,0.76,0,0,0,0, ,0,0,0,0,0, ,-39.1,350.3,936.2,-0.4,-0.4,-1.6,25,-38.812,350.934,937.171,-0.329938,-0.425919,-1.66822,
2026_07_06_19_16_13.141,3.863,33.1,0,0.761,0,0,0,0, ,0,0,0,0,0, ,-38.9,351,937.9,-0.5,-0.4,-1.7,25,-38.8234,350.917,937.164,-0.337254,-0.424339,-1.66711,
2026_07_06_19_16_13.161,3.863,33.1,0,0.761,0,0,0,0, ,0,0,0,0,0, ,-38,349.9,938.4,-0.6,-0.5,-1.7,25,-38.8007,350.889,937.224,-0.350218,-0.425903,-1.66911,
2026_07_06_19_16_13.181,3.863,33.1,0,0.762,0,0,0,0, ,0,0,0,0,0, ,-39.7,352.1,936.7,-0.5,-0.5,-1.7,25,-38.8037,350.895,937.244,-0.362392,-0.430418,-1.67099,
2026_07_06_19_16_13.201,3.863,33.1,0,0.76,0,0,0,0, ,0,0,0,0,0, ,-38.2,351.9,936.6,-0.4,-0.4,-1.6,25,-38.8126,350.963,937.208,-0.367731,-0.431612,-1.66971,
2026_07_06_19_16_13.220,3.863,33.1,0,0.761,0,0,0,0, ,0,0,0,0,0, ,-38,351.6,937.2,-0.2,-0.4,-1.6,25,-38.7692,351.011,937.189,-0.363604,-0.429685,-1.66547,
2026_07_06_19_16_13.239,3.863,33.1,0,0.76,0,0,0,0, ,0,0,0,0,0, ,-38.5,350.2,937.5,-0.1,-0.4,-1.7,25,-38.7375,351.004,937.199,-0.350587,-0.427876,-1.66452,
2026_07_06_19_16_13.259,3.863,33,0,0.761,0,0,0,0, ,0,0,0,0,0, ,-39.1,350.4,937.6,-0.7,-0.5,-1.6,25,-38.7413,350.961,937.22,-0.353598,-0.429225,-1.66364,
2026_07_06_19_16_13.279,3.863,33.1,0,0.761,0,0,0,0, ,0,0,0,0,0, ,-39.5,351.5,936.6,-0.5,-0.4,-1.7,25,-38.7754,350.96,937.213,-0.368613,-0.430491,-1.66281,
2026_07_06_19_16_13.299,3.863,33.1,0,0.761,0,0,0,0, ,0,0,0,0,0, ,-39.1,352.6,937.7,-0.3,-0.4,-1.6,25,-38.8073,351.027,937.209,-0.370526,-0.428633,-1.66203,
2026_07_06_19_16_13.319,3.863,33.2,0,0.76,0,0,0,0, ,0,0,0,0,0, ,-38.4,351.4,937.5,-0.2,-0.4,-1.6,25,-38.8039,351.086,937.233,-0.363181,-0.426888,-1.65825,
2026_07_06_19_16_13.339,3.863,33.1,0,0.762,0,0,0,0, ,0,0,0,0,0, ,-39.1,351.4,936.2,-0.3,-0.5,-1.6,25,-38.8006,351.105,937.209,-0.356284,-0.428296,-1.6547,
2026_07_06_19_16_13.359,3.863,33.1,0,0.762,0,0,0,0, ,0,0,0,0,0, ,-38.8,350.5,937.5,-0.2,-0.5,-1.6,25,-38.8097,351.096,937.188,-0.349808,-0.432666,-1.65136,
2026_07_06_19_16_13.378,3.863,33.1,0,0.761,0,0,0,0, ,0,0,0,0,0, ,-38.8,349.4,936.2,-0.2,-0.4,-1.7,25,-38.8091,351.026,937.167,-0.340679,-0.433722,-1.65128,
2026_07_06_19_16_13.398,3.863,33.1,0,0.761,0,0,0,0, ,0,0,0,0,0, ,-39.3,349.1,938.5,-0.4,-0.4,-1.7,25,-38.8238,350.918,937.178,-0.3382,-0.431667,-1.65425,
2026_07_06_19_16_13.417,3.863,33.1,0,0.76,0,0,0,0, ,0,0,0,0,0, ,-38.8,349.9,937.5,-0.4,-0.5,-1.6,25,-38.8376,350.831,937.228,-0.341966,-0.432784,-1.65399,
2026_07_06_19_16_13.437,3.863,33.1,0,0.762,0,0,0,0, ,0,0,0,0,0, ,-38.9,350.4,937.6,-0.7,-0.4,-1.6,25,-38.8383,350.79,937.248,-0.354643,-0.433833,-1.6507,
2026_07_06_19_16_13.457,3.863,33.1,0,0.762,0,0,0,0, ,0,0,0,0,0, ,-38.9,352.1,937.2,-0.5,-0.4,-1.7,25,-38.8421,350.818,937.257,-0.369594,-0.431772,-1.65066,
2026_07_06_19_16_13.478,3.863,33.1,0,0.763,0,0,0,0, ,0,0,0,0,0, ,-38.8,352.7,936.4,-0.3,-0.4,-1.7,25,-38.8426,350.914,937.229,-0.371447,-0.429835,-1.65366,
2026_07_06_19_16_13.500,3.863,33.1,0,0.762,0,0,0,0, ,0,0,0,0,0, ,-39.1,352.5,938.3,-0.1,-0.4,-1.6,25,-38.8491,351.017,937.237,-0.361,-0.428017,-1.65344,
2026_07_06_19_16_13.517,3.863,33.1,0,0.76,0,0,0,0, ,0,0,0,0,0, ,-38.8,351.9,937.7,-0.1,-0.5,-1.6,25,-38.8552,351.089,937.283,-0.345095,-0.429357,-1.65019,
2026_07_06_19_16_13.537,3.863,33.1,0,0.76,0,0,0,0, ,0,0,0,0,0, ,-39.5,351.5,938.1,-0.2,-0.5,-1.7,25,-38.8732,351.126,937.321,-0.333206,-0.433662,-1.65017,
2026_07_06_19_16_13.558,3.863,33.1,0,0.76,0,0,0,0, ,0,0,0,0,0, ,-39,349.2,937.2,-0.4,-0.4,-1.6,25,-38.8962,351.079,937.341,-0.331183,-0.434657,-1.65016,
2026_07_06_19_16_13.576,3.863,33.1,0,0.762,0,0,0,0, ,0,0,0,0,0, ,-39.3,349.6,938.8,-0.3,-0.4,-1.7,25,-38.9116,350.977,937.381,-0.33233,-0.432545,-1.65015,
2026_07_06_19_16_13.596,3.863,33.1,0,0.762,0,0,0,0, ,0,0,0,0,0, ,-38.2,349.9,938.7,-0.4,-0.5,-1.6,25,-38.9018,350.902,937.464,-0.333406,-0.433609,-1.65014,
2026_07_06_19_16_13.615,3.863,33.1,0,0.76,0,0,0,0, ,0,0,0,0,0, ,-39,352,937,-0.5,-0.4,-1.6,25,-38.8834,350.905,937.488,-0.340511,-0.434608,-1.64709,
2026_07_06_19_16_13.636,3.863,33.2,0,0.761,0,0,0,0, ,0,0,0,0,0, ,-39.4,352.1,937.8,-0.5,-0.4,-1.6,25,-38.9027,350.975,937.483,-0.35023,-0.432499,-1.64422,
2026_07_06_19_16_13.656,3.863,33.1,0,0.76,0,0,0,0, ,0,0,0,0,0, ,-39.5,352.2,939,-0.5,-0.4,-1.6,25,-38.936,351.046,937.538,-0.359357,-0.430519,-1.64152,
2026_07_06_19_16_13.675,3.863,33.1,0,0.762,0,0,0,0, ,0,0,0,0,0, ,-40.2,351,938.2,-0.2,-0.4,-1.7,25,-38.9917,351.08,937.603,-0.358787,-0.428659,-1.64204,
2026_07_06_19_16_13.696,3.863,33.1,0,0.761,0,0,0,0, ,0,0,0,0,0, ,-38.9,351.9,937.9,-0.1,-0.4,-1.7,25,-39.0258,351.103,937.63,-0.346064,-0.426912,-1.64557,
2026_07_06_19_16_13.715,3.863,33,0,0.761,0,0,0,0, ,0,0,0,0,0, ,-39.4,352.2,937.3,-0.1,-0.4,-1.6,25,-39.0333,351.16,937.629,-0.331069,-0.425272,-1.64584,
2026_07_06_19_16_13.734,3.863,33.1,0,0.76,0,0,0,0, ,0,0,0,0,0, ,-39,348.8,935.6,-0.3,-0.4,-1.6,25,-39.0435,351.12,937.557,-0.323082,-0.423732,-1.64305,
2026_07_06_19_16_13.755,3.863,33.1,0,0.76,0,0,0,0, ,0,0,0,0,0, ,-39,348.9,937,-0.4,-0.5,-1.7,25,-39.0408,350.982,937.48,-0.324722,-0.425333,-1.64347,
2026_07_06_19_16_13.775,3.863,33.1,0,0.76,0,0,0,0, ,0,0,0,0,0, ,-39.3,349.8,938.2,-0.5,-0.4,-1.6,25,-39.0475,350.882,937.487,-0.332357,-0.426836,-1.64387,
2026_07_06_19_16_13.794,3.863,33.1,0,0.762,0,0,0,0, ,0,0,0,0,0, ,-39.7,350.4,936.8,-0.5,-0.5,-1.7,25,-39.0751,350.835,937.488,-0.342572,-0.428248,-1.64424,
2026_07_06_19_16_13.814,3.863,33.1,0,0.76,0,0,0,0, ,0,0,0,0,0, ,-38.8,351.5,937.8,-0.4,-0.5,-1.7,25,-39.0857,350.842,937.477,-0.349119,-0.43262,-1.64764,
2026_07_06_19_16_13.834,3.863,33.1,0,0.76,0,0,0,0, ,0,0,0,0,0, ,-38.4,351.4,936.1,-0.5,-0.4,-1.6,25,-39.0561,350.879,937.445,-0.355266,-0.433679,-1.64779,
2026_07_06_19_16_13.853,3.863,33.1,0,0.76,0,0,0,0, ,0,0,0,0,0, ,-39,352.2,937,-0.3,-0.5,-1.7,25,-39.0344,350.935,937.39,-0.357992,-0.434674,-1.64792,
2026_07_06_19_16_13.873,3.863,33.1,0,0.76,0,0,0,0, ,0,0,0,0,0, ,-38.9,351.1,937,-0.2,-0.4,-1.7,25,-39.0293,350.978,937.366,-0.351411,-0.435608,-1.65109,
2026_07_06_19_16_13.893,3.863,33.1,0,0.761,0,0,0,0, ,0,0,0,0,0, ,-38.9,351.4,937.8,-0.1,-0.5,-1.7,25,-39.0214,350.995,937.368,-0.339138,-0.436485,-1.65407,
2026_07_06_19_16_13.912,3.863,33.1,0,0.762,0,0,0,0, ,0,0,0,0,0, ,-39.3,350.9,936.8,-0.2,-0.5,-1.7,25,-39.0262,351.004,937.364,-0.327612,-0.440355,-1.65687,
2026_07_06_19_16_13.933,3.863,33.1,0,0.76,0,0,0,0, ,0,0,0,0,0, ,-39.3,351.9,937.5,-0.5,-0.4,-1.7,25,-39.0429,351.029,937.351,-0.328976,-0.440943,-1.6595,
2026_07_06_19_16_13.953,3.863,33.1,0,0.759,0,0,0,0, ,0,0,0,0,0, ,-38.8,351.9,938.7,-0.3,-0.4,-1.6,25,-39.0433,351.082,937.397,-0.333304,-0.438448,-1.65892,
2026_07_06_19_16_13.972,3.863,33.1,0,0.761,0,0,0,0, ,0,0,0,0,0, ,-39.4,352.6,938.3,-0.1,-0.5,-1.6,25,-39.0468,351.153,937.464,-0.325181,-0.439152,-1.65533,
2026_07_06_19_16_13.993,3.863,33.1,0,0.761,0,0,0,0, ,0,0,0,0,0, ,-38.4,350.9,937.2,-0.2,-0.3,-1.6,25,-39.0378,351.189,937.481,-0.314506,-0.436766,-1.65196,
2026_07_06_19_16_14.012,3.863,33.1,0,0.76,0,0,0,0, ,0,0,0,0,0, ,-38,350.5,937.7,-0.2,-0.4,-1.6,25,-38.9868,351.159,937.48,-0.307528,-0.431479,-1.64879,
2026_07_06_19_16_14.031,3.863,33.1,0,0.759,0,0,0,0, ,0,0,0,0,0, ,-39,348.6,936.7,-0.3,-0.4,-1.7,25,-38.9571,351.061,937.462,-0.304023,-0.429561,-1.64887,
2026_07_06_19_16_14.051,3.863,33.1,0,0.761,0,0,0,0, ,0,0,0,0,0, ,-39.9,349.8,937.6,-0.3,-0.5,-1.7,25,-38.9871,350.948,937.443,-0.303778,-0.430806,-1.65198,
2026_07_06_19_16_14.071,3.863,33.1,0,0.761,0,0,0,0, ,0,0,0,0,0, ,-39.7,349.8,938.1,-0.6,-0.4,-1.6,25,-39.0367,350.878,937.468,-0.312688,-0.431976,-1.65186,
2026_07_06_19_16_14.091,3.863,33.1,0,0.761,0,0,0,0, ,0,0,0,0,0, ,-39.4,352,935.7,-0.6,-0.5,-1.6,25,-39.068,350.879,937.434,-0.330196,-0.433074,-1.6487,
2026_07_06_19_16_14.111,3.863,33.1,0,0.761,0,0,0,0, ,0,0,0,0,0, ,-38.2,351.3,936.7,-0.5,-0.4,-1.6,25,-39.0516,350.926,937.358,-0.34359,-0.434106,-1.64573,
2026_07_06_19_16_14.131,3.863,33,0,0.762,0,0,0,0, ,0,0,0,0,0, ,-39.5,351.1,937.5,-0.4,-0.4,-1.7,25,-39.0393,350.943,937.343,-0.350075,-0.432027,-1.64599,
2026_07_06_19_16_14.150,3.863,33.1,0,0.76,0,0,0,0, ,0,0,0,0,0, ,-39.9,351.9,938.7,-0.3,-0.4,-1.7,25,-39.0796,350.977,937.389,-0.35007,-0.430076,-1.64928,
2026_07_06_19_16_14.173,3.863,33,0,0.759,0,0,0,0, ,0,0,0,0,0, ,-40.1,351.1,936.7,-0.3,-0.5,-1.7,25,-39.1357,351.009,937.408,-0.347019,-0.43129,-1.65238,
2026_07_06_19_16_14.190,3.863,33.1,0,0.761,0,0,0,0, ,0,0,0,0,0, ,-39.9,351.9,937.3,-0.3,-0.4,-1.7,25,-39.1884,351.039,937.383,-0.344154,-0.43243,-1.65528,
2026_07_06_19_16_14.210,3.863,33.1,0,0.76,0,0,0,0, ,0,0,0,0,0, ,-39,349.9,936.4,-0.1,-0.4,-1.7,25,-39.2043,351.03,937.35,-0.335369,-0.430454,-1.658,
2026_07_06_19_16_14.229,3.863,33.1,0,0.759,0,0,0,0, ,0,0,0,0,0, ,-39,350.3,936.6,-0.2,-0.4,-1.7,25,-39.1918,350.974,937.299,-0.324074,-0.428598,-1.66056,
2026_07_06_19_16_14.249,3.863,33,0,0.76,0,0,0,0, ,0,0,0,0,0, ,-38,349.2,936.7,-0.4,-0.4,-1.6,25,-39.1497,350.899,937.259,-0.322607,-0.426855,-1.65992,
2026_07_06_19_16_14.269,3.863,33.1,0,0.761,0,0,0,0, ,0,0,0,0,0, ,-39.1,351,937,-0.5,-0.4,-1.6,25,-39.1131,350.85,937.234,-0.33037,-0.425219,-1.65627,
2026_07_06_19_16_14.289,3.863,33.1,0,0.76,0,0,0,0, ,0,0,0,0,0, ,-39.5,350.4,937,-0.6,-0.4,-1.7,25,-39.1245,350.841,937.22,-0.343753,-0.423682,-1.65589,
2026_07_06_19_16_14.309,3.863,33,0,0.762,0,0,0,0, ,0,0,0,0,0, ,-40,350.3,939.2,-0.5,-0.5,-1.7,25,-39.1626,350.811,937.274,-0.356321,-0.425286,-1.65857,
2026_07_06_19_16_14.328,3.863,33.1,0,0.76,0,0,0,0, ,0,0,0,0,0, ,-39.5,351.6,937.3,-0.3,-0.4,-1.7,25,-39.1984,350.82,937.333,-0.358983,-0.426792,-1.6611,
2026_07_06_19_16_14.348,3.863,33,0,0.76,0,0,0,0, ,0,0,0,0,0, ,-39.4,352.1,938.3,-0.3,-0.5,-1.6,25,-39.2138,350.882,937.362,-0.355389,-0.428206,-1.66042,
2026_07_06_19_16_14.368,3.863,33,0,0.76,0,0,0,0, ,0,0,0,0,0, ,-38.5,351.1,936.6,-0.2,-0.4,-1.7,25,-39.1977,350.926,937.367,-0.348967,-0.429534,-1.65979,
2026_07_06_19_16_14.388,3.863,33,0,0.761,0,0,0,0, ,0,0,0,0,0, ,-39.5,349.7,937,-0.3,-0.4,-1.7,25,-39.1856,350.894,937.332,-0.342936,-0.427734,-1.66224,
2026_07_06_19_16_14.414,3.863,33.1,0,0.76,0,0,0,0, ,0,0,0,0,0, ,-39.1,349.9,936.6,-0.1,-0.5,-1.7,25,-39.1926,350.827,937.3,-0.334226,-0.429091,-1.66454,
2026_07_06_19_16_14.427,3.863,33.1,0,0.761,0,0,0,0, ,0,0,0,0,0, ,-38.4,349.4,936.2,-0.2,-0.5,-1.6,25,-39.1656,350.756,937.245,-0.323,-0.433412,-1.66365,
2026_07_06_19_16_14.447,3.863,33.1,0,0.76,0,0,0,0, ,0,0,0,0,0, ,-39.7,350,936.8,-0.5,-0.5,-1.6,25,-39.1586,350.691,937.2,-0.324645,-0.43747,-1.65977,
2026_07_06_19_16_14.467,3.863,33.1,0,0.761,0,0,0,0, ,0,0,0,0,0, ,-39.6,351,936,-0.6,-0.4,-1.7,25,-39.1885,350.68,937.151,-0.338377,-0.438233,-1.65918,
2026_07_06_19_16_14.487,3.863,33,0,0.759,0,0,0,0, ,0,0,0,0,0, ,-39.5,350.8,937.1,-0.6,-0.4,-1.6,25,-39.2106,350.693,937.114,-0.35432,-0.435904,-1.65862,
2026_07_06_19_16_14.506,3.863,33.1,0,0.761,0,0,0,0, ,0,0,0,0,0, ,-38.5,351.6,937.2,-0.5,-0.4,-1.6,25,-39.1977,350.724,937.116,-0.366244,-0.433716,-1.65505,
2026_07_06_19_16_14.527,3.863,33.1,0,0.761,0,0,0,0, ,0,0,0,0,0, ,-39.9,351.9,937.3,-0.3,-0.4,-1.7,25,-39.1979,350.787,937.125,-0.368301,-0.431661,-1.65474,
2026_07_06_19_16_14.547,3.863,33,0,0.761,0,0,0,0, ,0,0,0,0,0, ,-39,352.1,938.1,-0.3,-0.5,-1.6,25,-39.2132,350.86,937.16,-0.364139,-0.432779,-1.65445,
2026_07_06_19_16_14.566,3.863,33.1,0,0.759,0,0,0,0, ,0,0,0,0,0, ,-38.9,350.5,938.2,-0.2,-0.5,-1.7,25,-39.1972,350.887,937.22,-0.357184,-0.436875,-1.65418,
2026_07_06_19_16_14.586,3.863,33.1,0,0.76,0,0,0,0, ,0,0,0,0,0, ,-39.1,351.4,936.1,-0.1,-0.4,-1.6,25,-39.1852,350.891,937.216,-0.344559,-0.437675,-1.65392,
2026_07_06_19_16_14.606,3.863,33.1,0,0.761,0,0,0,0, ,0,0,0,0,0, ,-40.2,352.9,938.3,-0.6,-0.4,-1.6,25,-39.2135,350.968,937.215,-0.34489,-0.435379,-1.65064,
2026_07_06_19_16_14.625,3.863,33.1,0,0.761,0,0,0,0, ,0,0,0,0,0, ,-39.3,351.5,936.4,-0.4,-0.5,-1.6,25,-39.2462,351.043,937.223,-0.354342,-0.43627,-1.64755,
2026_07_06_19_16_14.645,3.863,33,0,0.761,0,0,0,0, ,0,0,0,0,0, ,-37.9,352.6,937.9,-0.4,-0.4,-1.7,25,-39.2068,351.104,937.219,-0.357124,-0.437107,-1.6477,
2026_07_06_19_16_14.665,3.863,33.1,0,0.76,0,0,0,0, ,0,0,0,0,0, ,-38.6,350.7,938.9,-0.1,-0.3,-1.7,25,-39.1485,351.138,937.291,-0.350597,-0.431799,-1.65089,
2026_07_06_19_16_14.685,3.863,33.1,0,0.759,0,0,0,0, ,0,0,0,0,0, ,-38.5,351.1,937.3,-0.1,-0.4,-1.7,25,-39.112,351.123,937.34,-0.335326,-0.426814,-1.65388,
2026_07_06_19_16_14.704,3.863,33,0,0.761,0,0,0,0, ,0,0,0,0,0, ,-38.8,349.9,937,-0.2,-0.5,-1.6,25,-39.0839,351.085,937.328,-0.324033,-0.428227,-1.65364,
2026_07_06_19_16_14.725,3.863,33,0,0.76,0,0,0,0, ,0,0,0,0,0, ,-37.8,349.9,935.6,-0.3,-0.4,-1.8,25,-39.0361,351.013,937.266,-0.319521,-0.429554,-1.65647,
2026_07_06_19_16_14.745,3.863,33.1,0,0.76,0,0,0,0, ,0,0,0,0,0, ,-39.9,347.4,934,-0.2,-0.4,-1.7,25,-39.0248,350.869,937.115,-0.315285,-0.427753,-1.66217,
2026_07_06_19_16_14.765,3.863,33.1,0,0.76,0,0,0,0, ,0,0,0,0,0, ,-38.2,348.1,938.4,0,-0.4,-1.7,25,-39.0263,350.679,937.06,-0.302166,-0.426062,-1.66447,
2026_07_06_19_16_14.784,3.863,33.1,0,0.761,0,0,0,0, ,0,0,0,0,0, ,-38.9,350.3,940.3,-0.4,-0.4,-1.7,25,-38.9973,350.589,937.199,-0.29594,-0.424473,-1.66664,
2026_07_06_19_16_14.804,3.863,33,0,0.76,0,0,0,0, ,0,0,0,0,0, ,-39.1,349.9,937.6,-0.6,-0.5,-1.7,25,-38.9975,350.559,937.306,-0.308375,-0.426029,-1.66867,
2026_07_06_19_16_14.823,3.863,33,0,0.761,0,0,0,0, ,0,0,0,0,0, ,-38.8,349.4,937,-0.9,-0.5,-1.8,25,-38.9946,350.504,937.306,-0.335287,-0.430537,-1.67363,
2026_07_06_19_16_14.843,3.863,33.1,0,0.762,0,0,0,0, ,0,0,0,0,0, ,-38.5,362.6,935.6,7.9,-0.2,-1.3,25,-38.9736,350.838,937.244,-0.101574,-0.425629,-1.66609,
2026_07_06_19_16_14.863,3.863,33,0,0.762,0,0,0,0, ,0,0,0,0,0, ,-38.5,357.4,935.5,-1,-0.5,-1.7,25,-38.9447,351.397,937.141,0.11485,-0.42102,-1.65597,
2026_07_06_19_16_14.883,3.863,33,0,0.759,0,0,0,0, ,0,0,0,0,0, ,-39.9,350.4,937.8,2,-0.5,-1.6,25,-38.9603,351.549,937.111,0.13832,-0.425833,-1.65561,
2026_07_06_19_16_14.902,3.863,33.1,0,0.76,0,0,0,0, ,0,0,0,0,0, ,-37.3,356.4,936,-1,-0.5,-1.7,25,-38.9383,351.662,937.098,0.16036,-0.430353,-1.65527,
2026_07_06_19_16_14.923,3.863,32.9,0,0.762,0,0,0,0, ,0,0,0,0,0, ,-37.2,346.4,938.4,-6.7,0,-0.2,25,-38.8354,351.646,937.104,-0.0840211,-0.419362,-1.61229,
2026_07_06_19_16_14.942,3.863,33.1,0,0.76,0,0,0,0, ,0,0,0,0,0, ,-77,317.3,940.9,9.6,1.6,3.9,25,-39.9484,350.44,937.26,0.0094583,-0.345057,-1.40131,
2026_07_06_19_16_14.962,3.863,33.1,0,0.76,0,0,0,0, ,0,0,0,0,0, ,-15.3,365.2,928.5,17.4,1.9,4.1,25,-40.3263,349.88,937.104,0.831538,-0.21739,-1.07216,
2026_07_06_19_16_14.982,3.863,33,0,0.76,0,0,0,0, ,0,0,0,0,0, ,-39.1,385.3,936.7,65.6,3.5,12.3,25,-39.5264,351.426,936.829,3.30977,-0.0396115,-0.507142,
2026_07_06_19_16_15.002,3.863,33,0,0.761,0,0,0,0, ,0,0,0,0,0, ,-27.4,471.1,1173.5,3.8,-22.7,13.5,25,-39.144,356.104,944.036,5.22261,-0.622198,0.309855,
2026_07_06_19_16_15.021,3.863,33.1,0,0.76,0,0,0,0, ,0,0,0,0,0, ,6.4,449.3,1137.6,-52,-74.1,23.2,25,-37.3985,362.448,956.925,3.43577,-3.53366,1.40918,
2026_07_06_19_16_15.041,3.863,33,0,0.76,0,0,0,0, ,0,0,0,0,0, ,-46.1,458,1082.3,-8.9,-95.2,16.2,25,-36.3291,368.005,966.25,1.37085,-8.47668,2.52377,
2026_07_06_19_16_15.062,3.863,33,0,0.76,0,0,0,0, ,0,0,0,0,0, ,-18.7,429.1,895,-77.2,-109,28.8,25,-36.0897,372.609,967.615,-1.33604,-14.1819,3.74107,
2026_07_06_19_16_15.081,3.863,33,0,0.76,0,0,0,0, ,0,0,0,0,0, ,11.9,296,892.7,-30.4,-89.5,22.2,25,-34.0977,371.996,963.12,-4.53306,-19.3657,5.06701,
2026_07_06_19_16_15.100,3.863,33,0,0.76,0,0,0,0, ,0,0,0,0,0, ,132.3,403.5,990.2,-48.3,-68.1,-1.8,25,-27.6262,370.64,961.8,-6.65472,-22.9875,5.3798,
2026_07_06_19_16_15.120,3.863,33,0,0.761,0,0,0,0, ,0,0,0,0,0, ,183.3,369.5,1031.6,-65.1,-45.9,-24.1,25,-16.3268,371.607,964.792,-9.70435,-25.0601,4.26283,
2026_07_06_19_16_15.144,3.863,33,0,0.76,0,0,0,0, ,0,0,0,0,0, ,46.2,249.3,1051.3,-86.8,-40.2,-25.8,25,-8.33934,367.816,969.463,-13.7412,-26.1564,2.48267,
2026_07_06_19_16_15.163,3.863,33,0,0.76,0,0,0,0, ,0,0,0,0,0, ,50.7,196.2,941.6,-70.2,-33.7,-25.1,25,-4.87874,358.976,971.108,-17.6874,-26.8141,0.780525,
2026_07_06_19_16_15.180,3.863,33.1,0,0.76,0,0,0,0, ,0,0,0,0,0, ,86.9,241.3,932,-65.8,-31.5,-40.9,25,-0.388943,350.431,969.017,-20.7534,-27.1667,-1.27798,
2026_07_06_19_16_15.199,3.863,33,0,0.76,0,0,0,0, ,0,0,0,0,0, ,96.4,33.3,915.1,-54.2,-33.4,-58.9,25,5.21968,337.443,966.246,-23.145,-27.4886,-4.24088,
2026_07_06_19_16_15.218,3.863,32.9,0,0.761,0,0,0,0, ,0,0,0,0,0, ,151,145.8,953.9,-36.7,-44.5,-65.8,25,12.4396,322.337,964.312,-24.5042,-28.1871,-7.7819,
2026_07_06_19_16_15.240,3.863,33,0,0.762,0,0,0,0, ,0,0,0,0,0, ,230.9,510.3,791.5,-7.3,-42.1,-51.9,25,23.3176,322.685,958.729,-24.3516,-29.108,-10.8939,
2026_07_06_19_16_15.259,3.863,33,0,0.76,0,0,0,0, ,0,0,0,0,0, ,168.4,545.7,839.7,20.2,-37,-34.7,25,34.0628,335.197,950.007,-22.4746,-29.7443,-12.8686,
2026_07_06_19_16_15.279,3.863,33,0,0.761,0,0,0,0, ,0,0,0,0,0, ,207.2,391.8,917.1,36.8,-45.1,-28.1,25,43.4312,343.335,945.644,-19.3683,-30.4333,-13.9979,
2026_07_06_19_16_15.299,3.863,33,0,0.76,0,0,0,0, ,0,0,0,0,0, ,218.7,253.9,981.8,14.6,-53,-39.6,25,53.7612,342.087,945.876,-16.622,-31.5677,-15.2076,
2026_07_06_19_16_15.318,3.863,33.1,0,0.759,0,0,0,0, ,0,0,0,0,0, ,233.3,171,1044.6,-14.4,-63.4,-63,25,64.257,334.187,949.978,-15.603,-33.1906,-17.407,
2026_07_06_19_16_15.338,3.863,33.1,0,0.761,0,0,0,0, ,0,0,0,0,0, ,230.3,101,1032.3,-32.4,-53.6,-74.5,25,74.4667,322.11,955.369,-16.0781,-34.7329,-20.5357,
2026_07_06_19_16_15.358,3.863,33,0,0.76,0,0,0,0, ,0,0,0,0,0, ,210.6,141.4,1004.5,-37.3,-34.9,-72.7,25,83.3625,309.867,959.21,-17.222,-35.3129,-23.7693,
2026_07_06_19_16_15.377,3.863,33,0,0.76,0,0,0,0, ,0,0,0,0,0, ,195.5,216,892.4,-50.8,-15.7,-67.4,25,90.656,301.874,958.555,-18.8569,-34.7027,-26.5895,
2026_07_06_19_16_15.398,3.863,33.1,0,0.76,0,0,0,0, ,0,0,0,0,0, ,206,191.2,854,-48.9,-3.9,-70.5,25,97.3648,295.886,953.353,-20.7455,-33.1852,-29.1709,
2026_07_06_19_16_15.418,3.863,33,0,0.76,0,0,0,0, ,0,0,0,0,0, ,230.4,142.7,866,-48.8,-5.1,-83.4,25,104.728,288.029,947.665,-22.4581,-31.4372,-32.0824,
2026_07_06_19_16_15.437,3.863,33,0,0.761,0,0,0,0, ,0,0,0,0,0, ,254.2,90.2,835.9,-47.6,-1.1,-90.7,25,113.112,277.573,941.771,-24.0268,-29.7104,-35.432,
2026_07_06_19_16_15.457,3.863,33.1,0,0.76,0,0,0,0, ,0,0,0,0,0, ,232.6,141.4,901.6,-36,6.7,-77.8,25,121.051,267.715,937.321,-25.1098,-27.7293,-38.4069,
2026_07_06_19_16_15.477,3.863,33,0,0.759,0,0,0,0, ,0,0,0,0,0, ,238,173.4,924,-50,3,-72.4,25,128.013,260.993,935.827,-26.2,-25.744,-40.6428,
2026_07_06_19_16_15.497,3.863,33,0,0.761,0,0,0,0, ,0,0,0,0,0, ,228.7,167.1,882.8,-51.5,2.4,-77.5,25,134.432,255.463,933.851,-27.696,-24.0107,-42.7334,
2026_07_06_19_16_15.516,3.863,33.1,0,0.761,0,0,0,0, ,0,0,0,0,0, ,222.1,179.4,866.2,-40.2,3,-79.6,25,139.975,250.453,930.234,-28.8023,-22.383,-44.916,
2026_07_06_19_16_15.536,3.863,33,0,0.76,0,0,0,0, ,0,0,0,0,0, ,268.7,116.3,952.3,-32.8,1.4,-84.5,25,146.4,244.201,928.956,-29.2714,-20.885,-47.1789,
2026_07_06_19_16_15.556,3.863,33.1,0,0.76,0,0,0,0, ,0,0,0,0,0, ,461.4,-50.9,592.7,21.9,-6.1,-67.8,25,159.724,231.312,919.422,-27.8197,-19.7555,-48.9443,
2026_07_06_19_16_15.576,3.863,33,0,0.76,0,0,0,0, ,0,0,0,0,0, ,264.5,215.9,1149.7,-1,-71.5,-9.4,25,172.108,222.244,916.483,-25.4877,-20.916,-48.3139,
2026_07_06_19_16_15.595,3.863,33.1,0,0.76,0,0,0,0, ,0,0,0,0,0, ,269.6,144.7,996.5,-38.7,-149.5,-8.8,25,177.893,219.688,926.027,-25.1441,-26.375,-45.9243,
2026_07_06_19_16_15.615,3.863,33,0,0.761,0,0,0,0, ,0,0,0,0,0, ,363.5,123,881.3,-29.4,-179.6,-2.7,25,186.343,214.457,926.811,-25.6868,-34.7951,-43.4762,
2026_07_06_19_16_15.635,3.863,33.1,0,0.762,0,0,0,0, ,0,0,0,0,0, ,373.2,80.2,971.3,2.3,-128.4,-16.6,25,197.434,207.58,926.78,-24.9472,-42.0591,-41.4149,
2026_07_06_19_16_15.662,3.863,33.1,0,0.761,0,0,0,0, ,0,0,0,0,0, ,424.3,124.1,896.3,2.1,-55.9,-43,25,209.701,201.156,927.208,-23.293,-45.1115,-40.7071,
2026_07_06_19_16_15.682,3.863,33,0,0.761,0,0,0,0, ,0,0,0,0,0, ,520.9,139,863.6,10.7,-26.1,-50.6,25,225.722,196.914,924.328,-21.4835,-44.861,-41.0784,
2026_07_06_19_16_15.695,3.863,33,0,0.76,0,0,0,0, ,0,0,0,0,0, ,397.9,344.4,942.3,30.9,-28.4,5.8,25,239.962,199.643,923.025,-18.9069,-43.7878,-39.9402,
2026_07_06_19_16_15.715,3.863,33.1,0,0.762,0,0,0,0, ,0,0,0,0,0, ,544.1,109.7,994.6,16.2,-77.3,145.7,25,254.041,201.313,925.794,-16.3197,-44.3401,-32.8903,
2026_07_06_19_16_15.734,3.863,33.1,0,0.761,0,0,0,0, ,0,0,0,0,0, ,448.4,223.3,957.6,28.6,-156.7,217.2,25,268.8,199.192,928.859,-13.9602,-48.7678,-19.829,
2026_07_06_19_16_15.754,3.863,33,0,0.762,0,0,0,0, ,0,0,0,0,0, ,411.3,-41.9,729.7,25.7,-215.2,202.3,25,278.614,192.581,923.667,-11.455,-57.1273,-5.83901,
2026_07_06_19_16_15.773,3.863,32.9,0,0.761,0,0,0,0, ,0,0,0,0,0, ,710.6,91,744.5,97.9,-184.1,136.6,25,295.819,182.341,912.298,-6.99107,-65.8123,4.84267,
2026_07_06_19_16_15.795,3.863,33.1,0,0.759,0,0,0,0, ,0,0,0,0,0, ,794,99.8,806.8,115.1,-126.7,87.6,25,323.636,177.043,903.971,-0.0752049,-71.2715,11.3787,
2026_07_06_19_16_15.814,3.863,33,0,0.759,0,0,0,0, ,0,0,0,0,0, ,720.4,139.4,821.6,61.5,-81.8,71.9,25,350.056,173.543,898.5,5.31016,-73.2812,15.545,
2026_07_06_19_16_15.833,3.863,33.1,0,0.76,0,0,0,0, ,0,0,0,0,0, ,668.7,73.9,771.8,38.2,-51.5,93.8,25,371.049,169.466,892.297,8.0243,-72.8771,19.6464,
2026_07_06_19_16_15.853,3.863,33.1,0,0.761,0,0,0,0, ,0,0,0,0,0, ,673.7,21.3,686.2,17.6,-45.6,94.3,25,389.339,162.04,882.346,9.23548,-71.3946,24.1804,
2026_07_06_19_16_15.876,3.863,33,0,0.762,0,0,0,0, ,0,0,0,0,0, ,635.6,4.8,652.4,0.3,-70.7,60.9,25,405.507,152.961,869.364,9.21808,-70.5875,27.4357,
2026_07_06_19_16_15.893,3.863,33,0,0.762,0,0,0,0, ,0,0,0,0,0, ,592.8,26,567.3,-10.8,-90.5,31.7,25,418.224,144.579,853.549,8.33643,-71.1977,28.5852,
2026_07_06_19_16_15.913,3.863,33,0,0.761,0,0,0,0, ,0,0,0,0,0, ,695.9,0.7,573.9,-27.9,-98.7,7.8,25,432.003,136.582,836.307,6.64929,-72.6238,28.0468,
2026_07_06_19_16_15.932,3.863,33.1,0,0.758,0,0,0,0, ,0,0,0,0,0, ,755.4,-12.3,605.8,-37.6,-103.5,-11,25,449.897,127.905,821.289,4.2484,-74.359,26.2402,
2026_07_06_19_16_15.952,3.863,33,0,0.76,0,0,0,0, ,0,0,0,0,0, ,678.3,204.2,405,-9.9,-86,-2.7,25,466.165,125.958,802.039,2.54225,-75.6016,24.2238,
2026_07_06_19_16_15.972,3.863,33.1,0,0.763,0,0,0,0, ,0,0,0,0,0, ,854.2,-21.1,483.3,-11.7,-35.5,-4.6,25,484.451,123.861,780.23,1.7292,-74.6966,22.5252,
2026_07_06_19_16_15.992,3.863,33,0,0.759,0,0,0,0, ,0,0,0,0,0, ,903.9,-140.8,619.2,-11,-21.2,-18.3,25,508.497,111.381,766.277,0.93219,-71.8723,20.4548,
2026_07_06_19_16_16.011,3.863,33,0,0.759,0,0,0,0, ,0,0,0,0,0, ,810.7,28.1,602.5,-14.2,-26.6,-36,25,529.752,101.16,756.806,0.107572,-68.949,17.5539,
2026_07_06_19_16_16.032,3.863,33.1,0,0.761,0,0,0,0, ,0,0,0,0,0, ,857.2,-10.7,593.1,-10.6,-34.6,-23.6,25,548.289,95.5253,747.116,-0.654608,-66.6121,14.6683,
2026_07_06_19_16_16.051,3.863,33,0,0.762,0,0,0,0, ,0,0,0,0,0, ,847.9,39,558.8,-15.2,-53,-21.5,25,566.83,90.5665,736.686,-1.40081,-65.222,12.4003,
2026_07_06_19_16_16.071,3.863,33,0,0.762,0,0,0,0, ,0,0,0,0,0, ,898.9,72.6,450.6,-20.2,-76.2,-13.4,25,585.512,88.4479,722.549,-2.39404,-65.1841,10.5813,
2026_07_06_19_16_16.090,3.863,33,0,0.761,0,0,0,0, ,0,0,0,0,0, ,901.7,91.4,450.4,-3,-74.2,-10.2,25,604.694,88.055,705.971,-2.95503,-65.7945,9.21745,
2026_07_06_19_16_16.111,3.863,33,0,0.76,0,0,0,0, ,0,0,0,0,0, ,898.5,95.8,472.5,-2.9,-79.8,-7.5,25,622.696,88.3929,691.071,-2.95472,-66.4773,8.11646,
2026_07_06_19_16_16.130,3.863,33,0,0.76,0,0,0,0, ,0,0,0,0,0, ,932.9,45.7,441.5,0.5,-81.8,-10.1,25,640.55,87.3178,676.807,-2.8478,-67.3501,7.08561,
2026_07_06_19_16_16.150,3.863,33,0,0.76,0,0,0,0, ,0,0,0,0,0, ,943.6,36.8,427.9,2.4,-92,-8.4,25,658.692,84.5105,662.054,-2.5859,-68.5414,6.09016,
2026_07_06_19_16_16.170,3.863,33,0,0.762,0,0,0,0, ,0,0,0,0,0, ,946.8,50.9,419.7,2,-95,-3.4,25,676.151,82.0328,647.535,-2.29426,-70.0623,5.35951,
2026_07_06_19_16_16.192,3.863,33,0,0.761,0,0,0,0, ,0,0,0,0,0, ,918.5,50.2,406,-0.2,-83.1,1,25,691.781,80.1143,633.234,-2.09961,-71.2194,4.95979,
2026_07_06_19_16_16.209,3.863,33,0,0.761,0,0,0,0, ,0,0,0,0,0, ,939.9,41.2,334.4,0.3,-73.8,-1.9,25,706.249,78.0172,617.205,-1.96862,-71.66,4.63013,
2026_07_06_19_16_16.230,3.863,33.1,0,0.762,0,0,0,0, ,0,0,0,0,0, ,927.4,35.1,293.8,4.2,-72.2,-1.8,25,720.106,75.5878,598.735,-1.71154,-71.7417,4.23525,
2026_07_06_19_16_16.249,3.863,33,0,0.761,0,0,0,0, ,0,0,0,0,0, ,954.2,24,293.8,3.8,-84.9,2.9,25,733.555,72.7824,580.153,-1.3635,-72.1565,4.01068,
2026_07_06_19_16_16.270,3.863,33,0,0.76,0,0,0,0, ,0,0,0,0,0, ,939.3,39,237.9,3.3,-93.9,-2.2,25,746.546,70.2667,561,-1.06408,-73.2073,3.78761,
2026_07_06_19_16_16.289,3.863,33,0,0.761,0,0,0,0, ,0,0,0,0,0, ,934.5,50.9,184.8,0.3,-85.8,-4.7,25,758.146,68.724,539.693,-0.889551,-74.2215,3.34657,
2026_07_06_19_16_16.311,3.863,33.1,0,0.761,0,0,0,0, ,0,0,0,0,0, ,929.9,36.8,198.2,4.3,-59.8,1.8,25,768.752,67.2082,518.475,-0.695188,-74.1349,3.05428,
2026_07_06_19_16_16.328,3.863,33,0,0.763,0,0,0,0, ,0,0,0,0,0, ,897.7,49.1,208.2,10.9,-46.8,5.2,25,777.591,65.73,499.263,-0.1897,-72.8652,3.08144,
2026_07_06_19_16_16.349,3.863,32.9,0,0.759,0,0,0,0, ,0,0,0,0,0, ,924.9,34.9,148.5,15,-52.4,8.6,25,785.739,64.2839,479.707,0.611,-71.4475,3.31413,
2026_07_06_19_16_16.373,3.863,33,0,0.761,0,0,0,0, ,0,0,0,0,0, ,957.8,24.2,92.7,12.2,-53,7.4,25,795.222,62.1673,457.824,1.40252,-70.3051,3.59968,
2026_07_06_19_16_16.395,3.863,33,0,0.761,0,0,0,0, ,0,0,0,0,0, ,949.7,24,107,9.9,-41.7,-1.2,25,804.882,59.8476,436.01,1.99041,-68.9063,3.56923,
2026_07_06_19_16_16.408,3.863,32.9,0,0.761,0,0,0,0, ,0,0,0,0,0, ,964.4,57.7,110.2,-0.1,-24.5,-8.1,25,814.155,58.6899,416.059,2.16771,-66.7243,3.06837,
2026_07_06_19_16_16.428,3.863,33,0,0.759,0,0,0,0, ,0,0,0,0,0, ,972.6,19,142.9,-16.6,-25.9,6.4,25,823.56,57.4505,398.417,1.52679,-64.1939,2.82959,
2026_07_06_19_16_16.447,3.863,33.1,0,0.763,0,0,0,0, ,0,0,0,0,0, ,1059.3,12.2,90.5,-6.3,-44.8,8.7,25,835.284,54.9002,381.25,0.736018,-62.4362,3.11724,
2026_07_06_19_16_16.468,3.863,33,0,0.759,0,0,0,0, ,0,0,0,0,0, ,1095.8,35.6,20.1,7.1,-59.2,19.3,25,850.047,53.0111,361.387,0.715541,-61.8003,3.78041,
2026_07_06_19_16_16.486,3.863,33,0,0.759,0,0,0,0, ,0,0,0,0,0, ,992.3,30.3,44,13.9,-70.4,37,25,861.869,51.7887,341.318,1.31178,-61.9831,5.26543,
2026_07_06_19_16_16.509,3.863,33,0,0.762,0,0,0,0, ,0,0,0,0,0, ,901,127.9,-41.3,42.2,-70,18.6,25,867.035,53.4529,320.601,2.94114,-62.4838,6.63863,
2026_07_06_19_16_16.526,3.863,33,0,0.761,0,0,0,0, ,0,0,0,0,0, ,1085.2,-84.8,26.3,60.3,-91.2,39.4,25,874.717,51.5089,300.608,5.88496,-63.5878,8.00128,
2026_07_06_19_16_16.547,3.863,33,0,0.761,0,0,0,0, ,0,0,0,0,0, ,1026.8,-39.3,25,40.7,-38.6,61.3,25,885.764,44.5889,283.852,8.60369,-63.6677,10.5819,
2026_07_06_19_16_16.566,3.863,33,0,0.761,0,0,0,0, ,0,0,0,0,0, ,1009.8,-108.1,45.2,12.5,19.2,35.2,25,893.841,37.3806,268.694,9.70034,-60.3791,12.8773,
2026_07_06_19_16_16.587,3.863,32.9,0,0.76,0,0,0,0, ,0,0,0,0,0, ,1017.4,-38.6,-63.2,-18.6,15.1,1.6,25,901.139,30.633,251.772,8.92337,-55.6546,13.2138,
2026_07_06_19_16_16.605,3.863,33,0,0.761,0,0,0,0, ,0,0,0,0,0, ,955.9,-40.8,-68.2,-14.7,4.6,5,25,906.349,26.3471,232.426,7.36499,-51.6629,12.6097,
2026_07_06_19_16_16.627,3.863,32.9,0,0.761,0,0,0,0, ,0,0,0,0,0, ,947.1,-44,-24.6,-8.5,2.2,-0.9,25,909.101,22.1578,215.435,6.20931,-48.3076,11.9662,
2026_07_06_19_16_16.645,3.863,33,0,0.762,0,0,0,0, ,0,0,0,0,0, ,972.9,-42.2,-44.9,-7.2,1.4,-8.8,25,912.202,18.1812,200.19,5.35257,-45.2541,10.9415,
2026_07_06_19_16_16.666,3.863,33,0,0.76,0,0,0,0, ,0,0,0,0,0, ,1003,-67.2,6.3,-7.2,1.4,-12,25,916.818,13.74,186.814,4.58765,-42.4111,9.641,
2026_07_06_19_16_16.684,3.863,33,0,0.76,0,0,0,0, ,0,0,0,0,0, ,1031.7,-76.7,26,-8.1,2.8,-15.8,25,922.944,8.51823,176.415,3.84192,-39.6987,8.20647,
2026_07_06_19_16_16.707,3.863,32.9,0,0.761,0,0,0,0, ,0,0,0,0,0, ,984.6,-36.9,4.6,-12.3,10.7,-15.9,25,928.137,4.5379,166.597,2.98624,-36.8683,6.74053,
2026_07_06_19_16_16.724,3.863,33,0,0.76,0,0,0,0, ,0,0,0,0,0, ,963.8,-26.3,-11.4,-10.2,9.6,-13,25,930.944,2.33575,156.237,2.11872,-34.0031,5.44923,
2026_07_06_19_16_16.746,3.863,33,0,0.761,0,0,0,0, ,0,0,0,0,0, ,985.9,-22.7,-32.8,-4.9,5.3,-14.2,25,933.619,0.700445,145.37,1.52953,-31.477,4.28842,
2026_07_06_19_16_16.764,3.863,33,0,0.761,0,0,0,0, ,0,0,0,0,0, ,986.5,23.1,-5.9,17.3,1,-10.3,25,936.823,0.669949,135.332,1.81414,-29.367,3.28061,
2026_07_06_19_16_16.784,3.863,33,0,0.761,0,0,0,0, ,0,0,0,0,0, ,1025.3,-23.1,18.6,2.1,-5.3,-14.1,25,941.033,0.629124,127.473,2.29468,-27.7084,2.33726,
2026_07_06_19_16_16.803,3.863,33,0,0.76,0,0,0,0, ,0,0,0,0,0, ,1016.7,-17.2,23.3,-4.8,4.4,-11.5,25,945.906,-0.637104,120.981,2.07258,-26.0474,1.41483,
2026_07_06_19_16_16.826,3.863,33,0,0.761,0,0,0,0, ,0,0,0,0,0, ,1001,-11.8,-6.1,1,9.9,-12,25,949.741,-1.48187,114.133,1.8305,-24.0244,0.6126,
2026_07_06_19_16_16.843,3.863,33,0,0.76,0,0,0,0, ,0,0,0,0,0, ,1001.2,-13.4,-24.6,3.9,9.9,-8.9,25,952.871,-2.15938,106.243,1.86826,-21.9571,-0.0615274,
2026_07_06_19_16_16.864,3.863,33,0,0.762,0,0,0,0, ,0,0,0,0,0, ,991.6,-5.8,-18.1,5.8,4,-7.3,25,955.524,-2.6128,98.4675,2.04996,-20.1956,-0.551372,
2026_07_06_19_16_16.883,3.863,32.9,0,0.76,0,0,0,0, ,0,0,0,0,0, ,993.7,1.8,-7.9,6.2,1.4,-5.4,25,957.786,-2.57545,91.675,2.29066,-18.8004,-0.904726,
2026_07_06_19_16_16.903,3.863,32.9,0,0.761,0,0,0,0, ,0,0,0,0,0, ,981.4,-10,8.1,4.1,2.6,-5.9,25,959.6,-2.66836,86.0946,2.4649,-17.5329,-1.19389,
2026_07_06_19_16_16.921,3.863,33,0,0.761,0,0,0,0, ,0,0,0,0,0, ,979,-2.5,-2.9,0.7,1.3,-4.9,25,960.855,-2.88661,81.0067,2.46095,-16.3456,-1.4502,
2026_07_06_19_16_16.944,3.863,33,0,0.762,0,0,0,0, ,0,0,0,0,0, ,980.1,-0.9,15.8,-1.7,0.8,-3.9,25,961.994,-2.8143,76.4634,2.28051,-15.2856,-1.62995,
2026_07_06_19_16_16.962,3.863,33,0,0.761,0,0,0,0, ,0,0,0,0,0, ,979.2,4.5,8.6,-2.1,3.3,-5.1,25,963.07,-2.53312,72.5473,2.02576,-14.2292,-1.80485,
2026_07_06_19_16_16.983,3.863,33,0,0.762,0,0,0,0, ,0,0,0,0,0, ,979.4,-3.7,-5.9,-1.8,4.8,-7.1,25,964.059,-2.35438,68.2087,1.78349,-13.1153,-2.06658,
2026_07_06_19_16_17.001,3.863,33,0,0.76,0,0,0,0, ,0,0,0,0,0, ,981.9,-2.3,-18.1,-2.6,0.1,-8.5,25,965.07,-2.39373,63.321,1.54075,-12.1668,-2.41596,
2026_07_06_19_16_17.024,3.863,33,0,0.76,0,0,0,0, ,0,0,0,0,0, ,995.1,-1.2,11.7,-2.4,-0.3,-8.7,25,966.498,-2.3545,59.2674,1.29451,-11.4315,-2.7928,
2026_07_06_19_16_17.040,3.863,32.9,0,0.759,0,0,0,0, ,0,0,0,0,0, ,1002.5,3.2,19.6,-1.5,3.6,-5.8,25,968.466,-2.15008,56.6094,1.0968,-10.6343,-3.06441,
2026_07_06_19_16_17.064,3.863,33.1,0,0.76,0,0,0,0, ,0,0,0,0,0, ,998.1,6.3,0.4,2.5,6.1,-3.3,25,970.406,-1.72961,53.7692,1.06043,-9.69076,-3.15494,
2026_07_06_19_16_17.080,3.863,33,0,0.76,0,0,0,0, ,0,0,0,0,0, ,988,4.8,-3.5,4.7,3.4,-2.2,25,971.786,-1.28601,50.3982,1.21519,-8.81077,-3.13027,
2026_07_06_19_16_17.102,3.863,32.9,0,0.761,0,0,0,0, ,0,0,0,0,0, ,985.8,4.2,13.6,4,0.4,-2,25,972.707,-0.933424,47.6348,1.40622,-8.15809,-3.06748,
2026_07_06_19_16_17.120,3.863,33,0,0.761,0,0,0,0, ,0,0,0,0,0, ,986.5,6.3,11.9,2.8,2,-3.6,25,973.526,-0.556621,45.509,1.52771,-7.58783,-3.05118,
2026_07_06_19_16_17.143,3.863,32.9,0,0.761,0,0,0,0, ,0,0,0,0,0, ,987,3.4,13.7,5.1,3.6,-2.7,25,974.332,-0.227155,43.5158,1.67532,-6.95482,-3.05721,
2026_07_06_19_16_17.160,3.863,32.9,0,0.761,0,0,0,0, ,0,0,0,0,0, ,1000.7,1.4,24.1,-1.6,-3.8,-7.2,25,975.521,-0.067063,42.0158,1.67987,-6.5371,-3.17255,
2026_07_06_19_16_17.188,3.863,32.9,0,0.76,0,0,0,0, ,0,0,0,0,0, ,996.8,7.9,22.2,-0.9,-4.4,-4.7,25,976.937,0.220383,40.8661,1.50133,-6.38859,-3.3418,
2026_07_06_19_16_17.199,3.863,33,0,0.76,0,0,0,0, ,0,0,0,0,0, ,996.3,10.7,25.5,-1.5,0.2,-4.7,25,978.132,0.773672,39.8292,1.33672,-6.12726,-3.42456,
2026_07_06_19_16_17.221,3.863,33,0,0.761,0,0,0,0, ,0,0,0,0,0, ,994.1,12.8,10.2,-2.3,1.4,-4.6,25,979.172,1.44254,38.4898,1.13948,-5.70513,-3.49924,
2026_07_06_19_16_17.239,3.863,32.9,0,0.759,0,0,0,0, ,0,0,0,0,0, ,1000.4,14,12.5,-1.2,1.3,-4.1,25,980.274,2.1712,36.836,0.963405,-5.27521,-3.55108,
2026_07_06_19_16_17.261,3.863,33.1,0,0.76,0,0,0,0, ,0,0,0,0,0, ,990.2,15.1,16.9,-1,1.2,-3.3,25,981.189,2.92553,35.4871,0.837666,-4.87758,-3.56016,
2026_07_06_19_16_17.278,3.863,33,0,0.76,0,0,0,0, ,0,0,0,0,0, ,999,13.7,3.9,-2.5,-2.6,-2.8,25,982.007,3.62476,33.9584,0.67998,-4.623,-3.52907,
2026_07_06_19_16_17.301,3.863,33.1,0,0.76,0,0,0,0, ,0,0,0,0,0, ,993.8,12.2,3.9,-1.5,-2.9,-2.2,25,982.884,4.19301,32.1267,0.516669,-4.50887,-3.46636,
2026_07_06_19_16_17.318,3.863,33,0,0.761,0,0,0,0, ,0,0,0,0,0, ,988.8,13,8.9,-1,-1.5,-2.5,25,983.397,4.70532,30.559,0.409012,-4.36817,-3.39833,
2026_07_06_19_16_17.341,3.863,33,0,0.761,0,0,0,0, ,0,0,0,0,0, ,982,15.7,13.6,-1.4,0.7,-3.8,25,983.519,5.29304,29.3823,0.310963,-4.12636,-3.3832,
2026_07_06_19_16_17.358,3.863,32.9,0,0.761,0,0,0,0, ,0,0,0,0,0, ,986.5,17.4,13.3,-1.2,0.4,-4.4,25,983.563,5.97901,28.4114,0.212795,-3.8414,-3.42688,
2026_07_06_19_16_17.381,3.863,33.1,0,0.759,0,0,0,0, ,0,0,0,0,0, ,997.3,16.9,0.1,0,0.3,-1.1,25,984.071,6.65974,27.0884,0.163265,-3.58598,-3.38563,
2026_07_06_19_16_17.398,3.863,33,0,0.761,0,0,0,0, ,0,0,0,0,0, ,996,10.2,13.3,0,0,-2.9,25,984.838,7.07962,25.846,0.153316,-3.35832,-3.3012,
2026_07_06_19_16_17.421,3.863,32.9,0,0.76,0,0,0,0, ,0,0,0,0,0, ,982.2,15.8,19.8,-0.7,0,-2.8,25,985.098,7.44039,25.2795,0.122646,-3.15367,-3.2737,
2026_07_06_19_16_17.436,3.863,32.9,0,0.76,0,0,0,0, ,0,0,0,0,0, ,980.7,17.8,18,-0.7,0.2,-3.5,25,984.875,8.01074,24.8908,0.0725157,-2.9554,-3.26616,
2026_07_06_19_16_17.459,3.863,33,0,0.761,0,0,0,0, ,0,0,0,0,0, ,1003,15.8,7.3,0,0.2,-4.1,25,985.3,8.54634,24.1448,0.0467686,-2.76312,-3.29869,
2026_07_06_19_16_17.476,3.863,33,0,0.76,0,0,0,0, ,0,0,0,0,0, ,1009.5,14.6,13.4,-0.7,1,-3.1,25,986.577,8.95179,23.3042,0.0225905,-2.55818,-3.31705,
2026_07_06_19_16_17.499,3.863,32.9,0,0.761,0,0,0,0, ,0,0,0,0,0, ,990.8,14,26.7,-2.1,2.3,-2.1,25,987.404,9.2777,23.1059,-0.0640986,-2.30174,-3.27336,
2026_07_06_19_16_17.515,3.863,33,0,0.76,0,0,0,0, ,0,0,0,0,0, ,988,17.7,15.8,-2.8,1.9,-2.4,25,987.526,9.6782,22.9928,-0.209489,-2.03351,-3.211,
2026_07_06_19_16_17.545,3.863,32.9,0,0.759,0,0,0,0, ,0,0,0,0,0, ,988.6,20.9,6.9,-2,1.6,-3.4,25,987.573,10.2645,22.2833,-0.342974,-1.80296,-3.19205,
2026_07_06_19_16_17.556,3.863,33,0,0.76,0,0,0,0, ,0,0,0,0,0, ,984.1,18.7,15.7,-0.5,-1,-4.2,25,987.498,10.8456,21.614,-0.398246,-1.67481,-3.22909,
2026_07_06_19_16_17.580,3.863,33,0,0.761,0,0,0,0, ,0,0,0,0,0, ,986.8,17.7,27.4,-0.7,-1.7,-4.9,25,987.373,11.2938,21.6101,-0.41054,-1.65501,-3.30959,
2026_07_06_19_16_17.595,3.863,32.9,0,0.761,0,0,0,0, ,0,0,0,0,0, ,1004.2,17.2,23.1,-2.9,-0.3,-3.3,25,987.869,11.6689,21.8319,-0.49521,-1.6151,-3.35775,
2026_07_06_19_16_17.618,3.863,33,0,0.762,0,0,0,0, ,0,0,0,0,0, ,998.2,24.1,17.8,-2.7,1.7,-1.9,25,988.681,12.2162,21.7477,-0.635658,-1.47402,-3.31158,
2026_07_06_19_16_17.634,3.863,33,0,0.759,0,0,0,0, ,0,0,0,0,0, ,983,21.9,15.9,-1.8,0.2,-2,25,988.798,12.8733,21.4493,-0.734032,-1.32631,-3.22861,
2026_07_06_19_16_17.661,3.863,32.9,0,0.761,0,0,0,0, ,0,0,0,0,0, ,984.2,22.8,18.5,-2.1,-1.3,-3.5,25,988.481,13.4508,21.1903,-0.80813,-1.279,-3.19944,
2026_07_06_19_16_17.674,3.863,33,0,0.76,0,0,0,0, ,0,0,0,0,0, ,1000.4,24.1,15.3,-1.8,0,-4,25,988.714,14.0601,20.9289,-0.877713,-1.24067,-3.23299,
2026_07_06_19_16_17.698,3.863,33,0,0.761,0,0,0,0, ,0,0,0,0,0, ,1001.4,20.8,16.7,-2.3,2,-2.1,25,989.457,14.5714,20.6285,-0.949149,-1.10413,-3.22184,
2026_07_06_19_16_17.714,3.863,33,0,0.761,0,0,0,0, ,0,0,0,0,0, ,987.4,21.9,16.3,-2.2,0.6,-1.3,25,989.758,14.9845,20.377,-1.02842,-0.95763,-3.1291,
2026_07_06_19_16_17.737,3.863,33,0,0.761,0,0,0,0, ,0,0,0,0,0, ,979.2,26.9,18.9,-1.3,-3.2,-2.9,25,989.364,15.5582,20.2077,-1.07239,-0.978493,-3.06639,
2026_07_06_19_16_17.753,3.863,32.9,0,0.76,0,0,0,0, ,0,0,0,0,0, ,995.2,24,19.5,-0.9,-2.9,-4.2,25,989.232,16.161,20.1463,-1.07407,-1.10473,-3.09586,
2026_07_06_19_16_17.777,3.863,32.9,0,0.76,0,0,0,0, ,0,0,0,0,0, ,1004.7,24.1,18.7,-1,-1.5,-2.6,25,989.885,16.6417,20.0826,-1.06651,-1.17147,-3.11439,
2026_07_06_19_16_17.793,3.863,33,0,0.758,0,0,0,0, ,0,0,0,0,0, ,993,22,16.7,-1.3,1.1,-1.2,25,990.432,17.0322,19.9374,-1.0716,-1.11227,-3.04039,
2026_07_06_19_16_17.815,3.863,33,0,0.761,0,0,0,0, ,0,0,0,0,0, ,979.8,24,8.7,-1.8,0.3,-1.7,25,990.186,17.3959,19.4963,-1.10075,-1.00183,-2.94348,
2026_07_06_19_16_17.835,3.863,33,0,0.761,0,0,0,0, ,0,0,0,0,0, ,984.6,25,17.5,-0.8,-0.3,-3.2,25,989.699,17.8288,19.1066,-1.11289,-0.940785,-2.91341,
2026_07_06_19_16_17.860,3.863,33,0,0.762,0,0,0,0, ,0,0,0,0,0, ,995.1,25.3,23.6,-0.5,0.8,-4.2,25,989.709,18.2749,19.1945,-1.08469,-0.868222,-2.96134,
2026_07_06_19_16_17.872,3.863,33,0,0.762,0,0,0,0, ,0,0,0,0,0, ,998.2,21.8,17.8,-0.9,0.1,-2.3,25,990.132,18.5964,19.2863,-1.06124,-0.787893,-2.97893,
2026_07_06_19_16_17.896,3.863,33,0,0.76,0,0,0,0, ,0,0,0,0,0, ,989.3,23.4,18.4,-0.8,-0.6,-1.7,25,990.352,18.8404,19.214,-1.04837,-0.755115,-2.91928,
2026_07_06_19_16_17.913,3.863,32.9,0,0.759,0,0,0,0, ,0,0,0,0,0, ,983.2,26.2,24.9,-0.9,-0.9,-2.6,25,990.102,19.2035,19.3624,-1.03628,-0.754803,-2.8724,
2026_07_06_19_16_17.938,3.863,32.9,0,0.762,0,0,0,0, ,0,0,0,0,0, ,990.4,27.5,24.1,-1.4,-0.1,-3.9,25,989.901,19.6695,19.6755,-1.04321,-0.739276,-2.89541,
2026_07_06_19_16_17.951,3.863,32.9,0,0.762,0,0,0,0, ,0,0,0,0,0, ,997.8,25,9.5,-1.4,0.5,-3.6,25,990.157,20.0705,19.5003,-1.06496,-0.682039,-2.94749,
2026_07_06_19_16_17.975,3.863,33,0,0.76,0,0,0,0, ,0,0,0,0,0, ,990.8,22.7,15.1,-1,-0.3,-2.3,25,990.409,20.3008,19.0615,-1.07318,-0.634383,-2.94764,
2026_07_06_19_16_17.990,3.863,32.9,0,0.76,0,0,0,0, ,0,0,0,0,0, ,981.5,22.9,23,-1.3,-1.2,-2.5,25,990.15,20.4531,19.0608,-1.07787,-0.641429,-2.91427,
2026_07_06_19_16_18.015,3.863,33,0,0.759,0,0,0,0, ,0,0,0,0,0, ,985.5,28.9,21.3,-1.9,-1.6,-3.5,25,989.744,20.785,19.2491,-1.10968,-0.687654,-2.91949,
2026_07_06_19_16_18.030,3.863,32.9,0,0.761,0,0,0,0, ,0,0,0,0,0, ,991.2,30.1,19,-1.8,-0.4,-4,25,989.66,21.3161,19.304,-1.1548,-0.706688,-2.9701,
2026_07_06_19_16_18.053,3.863,32.9,0,0.762,0,0,0,0, ,0,0,0,0,0, ,1000.3,31.8,14.7,-1.4,0.2,-3.6,25,990.031,21.9032,19.1544,-1.18193,-0.669718,-3.02067,
2026_07_06_19_16_18.070,3.863,33,0,0.76,0,0,0,0, ,0,0,0,0,0, ,1000.2,29.7,14,-1,-1.2,-1.8,25,990.653,22.4423,18.8616,-1.18303,-0.659376,-3.00113,
2026_07_06_19_16_18.096,3.863,32.9,0,0.76,0,0,0,0, ,0,0,0,0,0, ,992.5,31.9,21.1,-1.2,0.3,-2,25,991.001,22.9516,18.7817,-1.17797,-0.646617,-2.93403,
2026_07_06_19_16_18.110,3.863,33,0,0.759,0,0,0,0, ,0,0,0,0,0, ,995.3,34.9,15.9,-1.2,1.3,-2.5,25,991.177,23.5883,18.7646,-1.17931,-0.558464,-2.89235,
2026_07_06_19_16_18.133,3.863,32.9,0,0.762,0,0,0,0, ,0,0,0,0,0, ,1001.2,32.3,6.2,-0.9,0.1,-1.3,25,991.608,24.1983,18.2944,-1.17143,-0.481776,-2.83188,
2026_07_06_19_16_18.149,3.863,33,0,0.763,0,0,0,0, ,0,0,0,0,0, ,990.7,31.4,20.6,-0.3,1.4,-1.1,25,991.873,24.6646,17.9962,-1.13661,-0.406715,-2.73243,
2026_07_06_19_16_18.173,3.863,33,0,0.761,0,0,0,0, ,0,0,0,0,0, ,985.2,31.3,26.6,-0.9,0.3,-2,25,991.634,25.072,18.3377,-1.10391,-0.330134,-2.66038,
2026_07_06_19_16_18.189,3.863,32.9,0,0.761,0,0,0,0, ,0,0,0,0,0, ,990.8,28.8,17.2,-0.7,-1.5,-2.3,25,991.412,25.3754,18.5548,-1.08539,-0.346579,-2.62928,
2026_07_06_19_16_18.212,3.863,33,0,0.76,0,0,0,0, ,0,0,0,0,0, ,991.4,27.7,22.8,-0.2,-1.3,-1.8,25,991.393,25.5505,18.6428,-1.04667,-0.410771,-2.59398,
2026_07_06_19_16_18.229,3.863,33,0,0.761,0,0,0,0, ,0,0,0,0,0, ,990.3,23.9,27.3,-1.3,0.5,-1.6,25,991.36,25.5657,19.0333,-1.02859,-0.410115,-2.5395,
2026_07_06_19_16_18.253,3.863,32.9,0,0.762,0,0,0,0, ,0,0,0,0,0, ,989.7,26.7,19.6,-1.6,1.7,-1.6,25,991.277,25.5495,19.3024,-1.05427,-0.318092,-2.48225,
2026_07_06_19_16_18.274,3.863,33,0,0.761,0,0,0,0, ,0,0,0,0,0, ,982.4,28,11.3,-1,0.7,-1.9,25,990.959,25.6593,19.0676,-1.06925,-0.225584,-2.43763,
2026_07_06_19_16_18.299,3.863,32.9,0,0.76,0,0,0,0, ,0,0,0,0,0, ,973.3,27.8,23,0.3,-3.8,-3.6,25,990.16,25.7958,18.9508,-1.02542,-0.30629,-2.45666,
2026_07_06_19_16_18.308,3.863,32.9,0,0.76,0,0,0,0, ,0,0,0,0,0, ,976.3,29.1,30.6,-0.5,-3,-3.7,25,989.224,25.9575,19.4291,-0.969024,-0.494813,-2.52938,
2026_07_06_19_16_18.332,3.863,32.9,0,0.761,0,0,0,0, ,0,0,0,0,0, ,1001.3,28.1,32.3,-1.4,0,-4.4,25,989.198,26.1186,20.1616,-0.967865,-0.556067,-2.62205,
2026_07_06_19_16_18.348,3.863,33,0,0.761,0,0,0,0, ,0,0,0,0,0, ,1003.2,36.3,5.1,-2.3,2,-2.5,25,989.993,26.4892,20.0726,-1.02162,-0.461244,-2.6725,
2026_07_06_19_16_18.372,3.863,32.9,0,0.761,0,0,0,0, ,0,0,0,0,0, ,987.6,38,7.2,-0.3,0.1,-2.6,25,990.323,27.1388,19.2242,-1.03858,-0.369153,-2.66503,
2026_07_06_19_16_18.387,3.863,32.9,0,0.761,0,0,0,0, ,0,0,0,0,0, ,990.1,34,27.9,0.4,-2.6,-3.7,25,990.233,27.6788,19.1221,-0.972248,-0.422829,-2.69459,
2026_07_06_19_16_18.411,3.863,32.9,0,0.761,0,0,0,0, ,0,0,0,0,0, ,1000.4,33.9,32.4,-0.8,-1,-3.3,25,990.539,28.0609,19.7941,-0.925189,-0.506751,-2.74367,
2026_07_06_19_16_18.427,3.863,33,0,0.761,0,0,0,0, ,0,0,0,0,0, ,1005.7,36.7,11.3,-1.4,0.1,-1.2,25,991.301,28.5021,19.9194,-0.935842,-0.503292,-2.71358,
2026_07_06_19_16_18.451,3.863,33,0,0.761,0,0,0,0, ,0,0,0,0,0, ,992.4,36.4,3.2,-0.2,0.5,-0.5,25,991.773,28.9925,19.1474,-0.927564,-0.454342,-2.60002,
2026_07_06_19_16_18.466,3.863,33,0,0.761,0,0,0,0, ,0,0,0,0,0, ,980.7,30.5,15,0.6,-0.7,-1.7,25,991.455,29.2641,18.5351,-0.858853,-0.432749,-2.50861,
2026_07_06_19_16_18.490,3.863,32.9,0,0.76,0,0,0,0, ,0,0,0,0,0, ,978.2,32.2,31.7,0.7,-0.8,-3.2,25,990.724,29.3912,18.8285,-0.766907,-0.452081,-2.50504,
2026_07_06_19_16_18.505,3.863,32.9,0,0.76,0,0,0,0, ,0,0,0,0,0, ,990.1,34,25.5,-0.3,0,-3.1,25,990.323,29.6172,19.424,-0.707986,-0.448908,-2.54434,
2026_07_06_19_16_18.531,3.863,33,0,0.76,0,0,0,0, ,0,0,0,0,0, ,991.5,34,12.2,-0.6,-0.1,-1.3,25,990.352,29.8843,19.389,-0.692265,-0.424599,-2.52336,
2026_07_06_19_16_18.545,3.863,33,0,0.761,0,0,0,0, ,0,0,0,0,0, ,985.9,35.8,18.6,-0.2,-1.2,-3.1,25,990.251,30.1899,19.1459,-0.674456,-0.438335,-2.50366,
2026_07_06_19_16_18.569,3.863,33,0,0.761,0,0,0,0, ,0,0,0,0,0, ,991.4,35.6,24.1,-0.1,-3.1,-3.3,25,990.154,30.5257,19.2802,-0.642497,-0.542639,-2.54609,
2026_07_06_19_16_18.585,3.863,32.9,0,0.761,0,0,0,0, ,0,0,0,0,0, ,998.9,36.8,21.1,-0.3,-1.7,-3.1,25,990.458,30.8715,19.4825,-0.615532,-0.655822,-2.58594,
2026_07_06_19_16_18.612,3.863,33,0,0.759,0,0,0,0, ,0,0,0,0,0, ,999.3,34.7,20.9,-0.7,0,-2.3,25,990.985,31.1688,19.575,-0.608492,-0.667655,-2.59289,
2026_07_06_19_16_18.624,3.863,32.9,0,0.761,0,0,0,0, ,0,0,0,0,0, ,992.4,35.6,19.7,-0.5,-0.2,-1.8,25,991.281,31.4114,19.6192,-0.607974,-0.633063,-2.55981,
2026_07_06_19_16_18.649,3.863,33,0,0.761,0,0,0,0, ,0,0,0,0,0, ,984.2,36.8,18.4,-1.3,-0.4,-2.3,25,991.1,31.7032,19.5845,-0.62577,-0.612767,-2.52874,
2026_07_06_19_16_18.664,3.863,32.9,0,0.761,0,0,0,0, ,0,0,0,0,0, ,987.7,39.7,13,-1.1,-1.9,-3.2,25,990.786,32.1021,19.3478,-0.660762,-0.645505,-2.54222,
2026_07_06_19_16_18.695,3.863,32.9,0,0.761,0,0,0,0, ,0,0,0,0,0, ,992.1,39.5,17,-0.5,-0.6,-3.2,25,990.732,32.559,19.0828,-0.669247,-0.682341,-2.58231,
2026_07_06_19_16_18.704,3.863,33,0,0.761,0,0,0,0, ,0,0,0,0,0, ,992.6,36.8,20.8,-0.4,-1,-2.6,25,990.83,32.8997,19.0717,-0.655886,-0.689511,-2.60167,
2026_07_06_19_16_18.728,3.863,32.9,0,0.763,0,0,0,0, ,0,0,0,0,0, ,987.6,34.1,22.2,-0.7,-2,-2.7,25,990.786,33.0551,19.2197,-0.649434,-0.7389,-2.60461,
2026_07_06_19_16_18.743,3.863,32.9,0,0.76,0,0,0,0, ,0,0,0,0,0, ,985.1,38.8,17.4,-1.6,-1.1,-3.1,25,990.516,33.262,19.255,-0.679937,-0.788327,-2.62261,
2026_07_06_19_16_18.770,3.863,32.9,0,0.759,0,0,0,0, ,0,0,0,0,0, ,988.2,41.3,7.2,-1,-2,-3.2,25,990.28,33.6757,18.8312,-0.717722,-0.834741,-2.65475,
2026_07_06_19_16_18.783,3.863,32.9,0,0.761,0,0,0,0, ,0,0,0,0,0, ,996.8,38,12.3,0.2,-2.4,-3,25,990.415,34.0397,18.2778,-0.698361,-0.917937,-2.68188,
2026_07_06_19_16_18.808,3.863,33,0,0.761,0,0,0,0, ,0,0,0,0,0, ,993.4,35.6,28.9,-0.2,-1.3,-2.7,25,990.701,34.2079,18.4193,-0.655805,-0.974734,-2.69213,
2026_07_06_19_16_18.822,3.863,32.9,0,0.761,0,0,0,0, ,0,0,0,0,0, ,993.7,39,23.9,-1.4,0.6,-2.1,25,990.874,34.3963,18.9057,-0.664591,-0.936665,-2.67432,
2026_07_06_19_16_18.848,3.863,32.9,0,0.76,0,0,0,0, ,0,0,0,0,0, ,986.3,41.3,11.3,-1.6,1.6,-2.2,25,990.821,34.747,18.8261,-0.715499,-0.812555,-2.64237,
2026_07_06_19_16_18.862,3.863,33,0,0.759,0,0,0,0, ,0,0,0,0,0, ,981.2,40,17.5,0.2,-7.5,-2.6,25,990.39,35.1067,18.5564,-0.714555,-0.942806,-2.6276,
2026_07_06_19_16_18.886,3.863,32.9,0,0.763,0,0,0,0, ,0,0,0,0,0, ,983.3,39.1,20.5,0.8,-14.5,-3.4,25,989.894,35.3774,18.5834,-0.640543,-1.55567,-2.6503,
2026_07_06_19_16_18.901,3.863,32.9,0,0.76,0,0,0,0, ,0,0,0,0,0, ,999.2,43,14.4,-0.3,-10.9,-3.5,25,989.977,35.7231,18.5143,-0.586275,-2.23477,-2.69903,
2026_07_06_19_16_18.926,3.863,32.9,0,0.76,0,0,0,0, ,0,0,0,0,0, ,998.9,42.4,2.9,-0.7,-4.4,-2.3,25,990.53,36.1483,17.9132,-0.581018,-2.56476,-2.71128,
2026_07_06_19_16_18.940,3.863,33,0,0.761,0,0,0,0, ,0,0,0,0,0, ,979.7,37.8,3.6,1.5,-19,-0.5,25,990.455,36.3891,17.0197,-0.521237,-3.12144,-2.63137,
2026_07_06_19_16_18.966,3.863,32.9,0,0.761,0,0,0,0, ,0,0,0,0,0, ,1032.4,15,36,18.3,-31.6,-8.7,25,991.405,35.7804,17.1891,0.113807,-4.47295,-2.75133,
2026_07_06_19_16_18.980,3.863,32.9,0,0.761,0,0,0,0, ,0,0,0,0,0, ,1018,38.8,14.5,10.1,-50.1,-6.4,25,993.465,35.2392,17.6803,0.972184,-6.68967,-3.04375,
2026_07_06_19_16_19.007,3.863,32.9,0,0.761,0,0,0,0, ,0,0,0,0,0, ,1060.7,39.4,-51.1,5.7,-53.5,-2.8,25,996.261,35.4745,15.4878,1.39435,-9.43858,-3.13859,
2026_07_06_19_16_19.020,3.863,32.9,0,0.761,0,0,0,0, ,0,0,0,0,0, ,1045.6,31.1,-18.5,10,-41.7,-0.1,25,999.727,35.4608,12.4234,1.78774,-11.764,-3.03569,
2026_07_06_19_16_19.045,3.863,33,0,0.761,0,0,0,0, ,0,0,0,0,0, ,1050.9,44,-51.5,18.4,-49.1,2.1,25,1002.68,35.5881,9.53351,2.54411,-13.8137,-2.78976,
2026_07_06_19_16_19.059,3.863,33,0,0.761,0,0,0,0, ,0,0,0,0,0, ,1006.3,38.2,-86.9,27.5,-47.6,11.4,25,1004.26,35.924,4.73568,3.78759,-15.9183,-2.20843,
2026_07_06_19_16_19.086,3.863,33.1,0,0.761,0,0,0,0, ,0,0,0,0,0, ,991.4,31.3,-128,38.1,-60.6,24,25,1003.93,35.8525,-2.10063,5.55554,-18.245,-0.995263,
2026_07_06_19_16_19.101,3.863,32.9,0,0.759,0,0,0,0, ,0,0,0,0,0, ,947.7,70.3,-207.1,14.2,-59.8,34,25,1001.84,36.7633,-12.1827,6.81051,-20.8016,0.832573,
2026_07_06_19_16_19.129,3.863,32.9,0,0.762,0,0,0,0, ,0,0,0,0,0, ,1044.9,22.8,-259.7,24.3,-85,33.1,25,1001.5,37.3597,-25.6631,7.56854,-23.9459,2.82629,
2026_07_06_19_16_19.139,3.863,32.9,0,0.761,0,0,0,0, ,0,0,0,0,0, ,985.3,33.3,-264.4,13.8,-118.2,26.6,25,1002.33,36.7924,-40.068,8.2682,-28.6779,4.47305,
2026_07_06_19_16_19.165,3.863,32.9,0,0.76,0,0,0,0, ,0,0,0,0,0, ,984,16.3,-249.6,0,-123,26.3,25,1001.25,36.0616,-53.2872,8.18482,-34.2794,5.81227,
2026_07_06_19_16_19.179,3.863,32.9,0,0.761,0,0,0,0, ,0,0,0,0,0, ,986.4,4.7,-290,-10.2,-123.1,20.2,25,1000.27,34.5039,-66.481,7.37528,-39.6889,6.87488,
2026_07_06_19_16_19.203,3.863,32.8,0,0.759,0,0,0,0, ,0,0,0,0,0, ,909.6,-19.6,-290,-28,-134.1,2.2,25,997.089,31.9474,-80.1017,5.76194,-45.1069,7.13844,
2026_07_06_19_16_19.218,3.863,32.9,0,0.76,0,0,0,0, ,0,0,0,0,0, ,895.6,-19,-387.6,-38.7,-158.3,-9,25,991.331,28.8245,-95.8661,3.37856,-51.2673,6.49626,
2026_07_06_19_16_19.244,3.863,32.9,0,0.761,0,0,0,0, ,0,0,0,0,0, ,919.1,16.3,-410.7,-27.7,-171.2,-0.7,25,986.213,26.9857,-114.347,1.14955,-58.1826,5.80484,
2026_07_06_19_16_19.257,3.863,32.9,0,0.762,0,0,0,0, ,0,0,0,0,0, ,827.8,31.3,-468,39.9,-165,22.7,25,979.342,26.7916,-134.152,1.45122,-64.8807,6.12142,
2026_07_06_19_16_19.284,3.863,33,0,0.762,0,0,0,0, ,0,0,0,0,0, ,796.6,5.1,-570.6,106.2,-175.8,35.6,25,969.156,26.268,-157.622,5.81427,-71.3108,7.52473,
2026_07_06_19_16_19.297,3.863,33.1,0,0.761,0,0,0,0, ,0,0,0,0,0, ,775,-75.5,-516.8,134.2,-182.2,31.7,25,957.983,22.5223,-181.149,12.7846,-77.8731,9.11674,
2026_07_06_19_16_19.322,3.863,32.9,0,0.759,0,0,0,0, ,0,0,0,0,0, ,753,-129,-552.6,136,-188.9,10.6,25,946.162,14.919,-202.693,20.2382,-84.4347,9.85001,
2026_07_06_19_16_19.336,3.863,33.1,0,0.76,0,0,0,0, ,0,0,0,0,0, ,732.6,-271.3,-422.2,93.8,-166.1,24,25,933.77,1.81326,-220.043,26.0067,-90.1058,10.304,
2026_07_06_19_16_19.362,3.863,32.8,0,0.76,0,0,0,0, ,0,0,0,0,0, ,664.6,-177.3,-587.5,22.2,-63.6,43.3,25,919.439,-11.9655,-237.398,27.9563,-91.6137,11.7266,
2026_07_06_19_16_19.376,3.863,32.9,0,0.761,0,0,0,0, ,0,0,0,0,0, ,649.6,-221.4,-583.4,7.4,-43,27.3,25,903.453,-23.3843,-258.608,27.1546,-89.2789,13.1631,
2026_07_06_19_16_19.400,3.863,33,0,0.761,0,0,0,0, ,0,0,0,0,0, ,663.9,-184.3,-647.7,-23.7,-30.7,7,25,888.419,-34.3204,-280.359,25.0032,-86.0841,13.4061,
2026_07_06_19_16_19.416,3.863,33,0,0.76,0,0,0,0, ,0,0,0,0,0, ,622.6,-165.4,-684.9,-21.7,-31.3,-3.2,25,873.479,-42.884,-303.877,22.0963,-82.7274,12.7049,
2026_07_06_19_16_19.442,3.863,32.9,0,0.761,0,0,0,0, ,0,0,0,0,0, ,680.2,-165.1,-705.9,-16.5,-43.3,-8.8,25,859.946,-50.3406,-327.735,19.5859,-79.9591,11.5651,
2026_07_06_19_16_19.456,3.863,32.9,0,0.759,0,0,0,0, ,0,0,0,0,0, ,673.9,-164.7,-790.5,-11.9,-44.8,1.2,25,848.801,-57.3216,-353.358,17.5271,-77.7709,10.6288,
2026_07_06_19_16_19.481,3.863,32.9,0,0.759,0,0,0,0, ,0,0,0,0,0, ,641.8,-146.6,-782.5,-9.1,-61.8,6.3,25,837.165,-63.3135,-379.752,15.8192,-76.2797,10.2096,
2026_07_06_19_16_19.495,3.863,32.9,0,0.761,0,0,0,0, ,0,0,0,0,0, ,609.9,-151.2,-772.7,0.3,-79.1,8.1,25,824.288,-68.5289,-403.996,14.5871,-75.9245,10.0262,
2026_07_06_19_16_19.521,3.863,33.1,0,0.761,0,0,0,0, ,0,0,0,0,0, ,578.1,-143.6,-814.5,23,-89.3,9.1,25,810.255,-73.3351,-427.737,14.4081,-76.4288,9.93931,
2026_07_06_19_16_19.535,3.863,33,0,0.761,0,0,0,0, ,0,0,0,0,0, ,586,-159.6,-843.3,26.9,-92,11.5,25,796.349,-78.1044,-452.183,15.0505,-77.2954,9.96129,
2026_07_06_19_16_19.563,3.863,32.9,0,0.762,0,0,0,0, ,0,0,0,0,0, ,552.4,-184.2,-818.4,34.7,-98.6,11.7,25,782.507,-83.8201,-475.258,16.0102,-78.3925,10.0611,
2026_07_06_19_16_19.579,3.863,33,0,0.761,0,0,0,0, ,0,0,0,0,0, ,536.4,-206.2,-858.2,35.7,-99.9,9.7,25,767.997,-90.6073,-497.381,17.1796,-79.6635,10.1001,
2026_07_06_19_16_19.607,3.863,33,0,0.762,0,0,0,0, ,0,0,0,0,0, ,464.9,-193.1,-903,39.1,-97.3,9.9,25,751.706,-97.2521,-520.734,18.4118,-80.8175,10.0818,
2026_07_06_19_16_19.616,3.863,33,0,0.761,0,0,0,0, ,0,0,0,0,0, ,435.4,-193.4,-935,48.5,-108.2,8.8,25,733.33,-103.102,-545.003,19.9589,-82.154,10.0372,
2026_07_06_19_16_19.645,3.863,33,0,0.761,0,0,0,0, ,0,0,0,0,0, ,459.1,-227.2,-868.5,60.3,-118.5,8.5,25,715.897,-109.634,-566.742,22.0576,-84.055,9.95267,
2026_07_06_19_16_19.654,3.863,33,0,0.763,0,0,0,0, ,0,0,0,0,0, ,437.7,-281.4,-864.7,49.8,-102.6,7.8,25,699.596,-118.45,-585.015,24.0681,-85.6695,9.84282,
2026_07_06_19_16_19.681,3.863,33,0,0.76,0,0,0,0, ,0,0,0,0,0, ,366.9,-285,-945.1,48.3,-99.6,14.5,25,681.48,-128.489,-604.508,25.5904,-86.6098,9.92247,
2026_07_06_19_16_19.693,3.863,33.1,0,0.76,0,0,0,0, ,0,0,0,0,0, ,320.1,-292.6,-909.4,57.8,-110.1,15,25,660.884,-138.258,-624.175,27.2637,-87.7213,10.2167,
2026_07_06_19_16_19.721,3.863,33.1,0,0.761,0,0,0,0, ,0,0,0,0,0, ,271.7,-301.8,-854.3,45.3,-105.2,8.5,25,638.643,-147.944,-639.877,28.7437,-88.9357,10.3101,
2026_07_06_19_16_19.732,3.863,33,0,0.761,0,0,0,0, ,0,0,0,0,0, ,261.5,-332.2,-853.8,33.4,-92.9,10,25,615.971,-158.246,-652.928,29.39,-89.5521,10.2455,
2026_07_06_19_16_19.759,3.863,33,0,0.761,0,0,0,0, ,0,0,0,0,0, ,264.5,-371.4,-916.5,34.7,-88.3,3.9,25,594.462,-170.04,-667.079,29.674,-89.6159,10.0447,
2026_07_06_19_16_19.772,3.863,32.9,0,0.761,0,0,0,0, ,0,0,0,0,0, ,220.2,-361.6,-905.1,43.9,-78.5,-9.2,25,573.005,-182.012,-681.931,30.2606,-89.2372,9.27109,
2026_07_06_19_16_19.800,3.863,33,0,0.761,0,0,0,0, ,0,0,0,0,0, ,162.5,-347.4,-912.1,40.9,-78.5,-10.8,25,549.748,-192.523,-695.744,31.0003,-88.5829,8.09676,
2026_07_06_19_16_19.811,3.863,33,0,0.759,0,0,0,0, ,0,0,0,0,0, ,143.5,-383.9,-928.5,43.9,-93.9,-9.7,25,525.571,-203.073,-709.427,31.695,-88.4377,6.97875,
2026_07_06_19_16_19.838,3.863,33,0,0.761,0,0,0,0, ,0,0,0,0,0, ,109.6,-399.1,-881.9,46.5,-84.5,-15.4,25,501.256,-214.555,-721.357,32.5179,-88.4841,5.78872,
2026_07_06_19_16_19.851,3.863,32.8,0,0.761,0,0,0,0, ,0,0,0,0,0, ,91.1,-398.9,-856.4,26.7,-67.3,-9.8,25,476.826,-225.795,-730.363,32.7667,-87.7173,4.66816,
2026_07_06_19_16_19.879,3.863,32.9,0,0.762,0,0,0,0, ,0,0,0,0,0, ,134.7,-426.2,-841.9,20.8,-66.6,-7.8,25,454.649,-237.175,-737.602,32.2172,-86.4518,3.84744,
2026_07_06_19_16_19.891,3.863,33,0,0.761,0,0,0,0, ,0,0,0,0,0, ,66.8,-441.5,-906.4,21.5,-59.3,-7.1,25,433.083,-249.16,-745.923,31.5428,-85.0196,3.159,
2026_07_06_19_16_19.917,3.863,33,0,0.761,0,0,0,0, ,0,0,0,0,0, ,3.6,-406.7,-898.5,21.4,-58.4,-11.3,25,408.837,-259.821,-755.461,30.9278,-83.4249,2.40588,
2026_07_06_19_16_19.930,3.863,33,0,0.761,0,0,0,0, ,0,0,0,0,0, ,25.6,-428.9,-847.6,13.9,-55.6,-14.9,25,384.814,-269.447,-762.627,30.1187,-81.8146,1.46099,
2026_07_06_19_16_19.959,3.863,32.9,0,0.759,0,0,0,0, ,0,0,0,0,0, ,61.4,-446.4,-807.4,6.2,-45.3,-12.4,25,364.015,-279.697,-766.58,28.8957,-79.9034,0.540162,
2026_07_06_19_16_19.970,3.863,33,0,0.76,0,0,0,0, ,0,0,0,0,0, ,13,-447.9,-887.9,3.9,-32,-7.4,25,344.099,-289.901,-771.52,27.4426,-77.3895,-0.0960355,
2026_07_06_19_16_19.999,3.863,32.9,0,0.761,0,0,0,0, ,0,0,0,0,0, ,-14.8,-443.8,-910.4,12.7,-26.3,-4.7,25,323.076,-299.405,-779.298,26.2761,-74.4499,-0.458855,
2026_07_06_19_16_20.010,3.863,33,0,0.761,0,0,0,0, ,0,0,0,0,0, ,-22.2,-437.2,-877.8,8.3,-18,-7.6,25,302.261,-308.003,-786.293,25.3148,-71.2629,-0.805659,
2026_07_06_19_16_20.036,3.863,32.8,0,0.761,0,0,0,0, ,0,0,0,0,0, ,7.5,-438.1,-836.9,-4.1,-13.7,-1.8,25,283.394,-315.903,-790.623,23.9001,-67.8861,-1.04297,
2026_07_06_19_16_20.049,3.863,33.1,0,0.761,0,0,0,0, ,0,0,0,0,0, ,4.7,-433.4,-838.5,-10.7,-9.7,1.6,25,266.497,-323.206,-793.492,21.9928,-64.4623,-0.985508,
2026_07_06_19_16_20.078,3.863,32.9,0,0.76,0,0,0,0, ,0,0,0,0,0, ,-17.4,-444.5,-891.2,-14.1,1.3,4,25,249.87,-330.259,-797.841,19.897,-60.7901,-0.754829,
2026_07_06_19_16_20.089,3.863,32.9,0,0.76,0,0,0,0, ,0,0,0,0,0, ,-58.7,-445.5,-989.1,-5.8,-3.3,0.4,25,232.325,-337.251,-806.513,18.0782,-57.1466,-0.574769,
2026_07_06_19_16_20.117,3.863,33,0,0.761,0,0,0,0, ,0,0,0,0,0, ,-36.2,-445.8,-951.9,0.5,-11.6,0.5,25,215.276,-343.857,-816.506,16.815,-54.1182,-0.512322,
2026_07_06_19_16_20.128,3.863,33,0,0.761,0,0,0,0, ,0,0,0,0,0, ,-7.6,-436.6,-888.9,-2.6,-5.5,1.5,25,200.823,-349.789,-822.837,15.7264,-51.3414,-0.420165,
2026_07_06_19_16_20.165,3.863,33,0,0.76,0,0,0,0, ,0,0,0,0,0, ,-32.2,-428.9,-884.5,-6.2,2.4,1.6,25,187.373,-354.844,-826.728,14.4999,-48.3072,-0.300108,
2026_07_06_19_16_20.174,3.863,32.9,0,0.761,0,0,0,0, ,0,0,0,0,0, ,-47.6,-435.5,-923.2,-3.3,-0.9,1.5,25,173.524,-359.558,-831.428,13.3269,-45.3178,-0.187367,
2026_07_06_19_16_20.201,3.863,33,0,0.762,0,0,0,0, ,0,0,0,0,0, ,-53.9,-434,-930.7,0.4,-3.7,-1.5,25,159.857,-364.14,-837.249,12.4264,-42.6964,-0.17595,
2026_07_06_19_16_20.208,3.863,33,0,0.761,0,0,0,0, ,0,0,0,0,0, ,-30.7,-433.2,-904.9,-0.4,-2.9,-2.6,25,147.538,-368.373,-842.157,11.6692,-40.2957,-0.290149,
2026_07_06_19_16_20.236,3.863,32.9,0,0.761,0,0,0,0, ,0,0,0,0,0, ,-28.1,-429.4,-898.8,-0.1,-2,-1.2,25,136.756,-372.207,-845.795,10.9429,-37.9895,-0.38825,
2026_07_06_19_16_20.247,3.863,33,0,0.761,0,0,0,0, ,0,0,0,0,0, ,-34.3,-433.4,-897.8,1.5,-0.2,-0.5,25,126.521,-375.814,-848.994,10.3187,-35.7415,-0.416388,
2026_07_06_19_16_20.276,3.863,32.8,0,0.761,0,0,0,0, ,0,0,0,0,0, ,-30.2,-436.2,-898.6,-0.1,2.8,-2.7,25,116.846,-379.409,-851.993,9.73256,-33.4843,-0.488514,
2026_07_06_19_16_20.287,3.863,33,0,0.761,0,0,0,0, ,0,0,0,0,0, ,-33.6,-440.9,-918.9,2,1.7,-3,25,107.782,-383.013,-855.451,9.19737,-31.3068,-0.632417,
2026_07_06_19_16_20.316,3.863,33,0,0.76,0,0,0,0, ,0,0,0,0,0, ,-37.4,-433.7,-917.2,1.4,0.4,-3.7,25,99.0504,-386.321,-859.266,8.7405,-29.335,-0.79802,
2026_07_06_19_16_20.326,3.863,32.9,0,0.761,0,0,0,0, ,0,0,0,0,0, ,-16.9,-429.3,-882.9,-1.1,-0.3,-3.1,25,91.3601,-389.074,-861.751,8.21702,-27.5444,-0.956578,
2026_07_06_19_16_20.353,3.863,32.9,0,0.761,0,0,0,0, ,0,0,0,0,0, ,-17.5,-428.8,-883.3,-3.8,-1,-0.3,25,84.7447,-391.51,-863.052,7.567,-25.9055,-1.00188,
2026_07_06_19_16_20.365,3.863,33,0,0.761,0,0,0,0, ,0,0,0,0,0, ,-23.5,-431.2,-898.1,-2.9,-2,-0.3,25,78.3314,-393.856,-864.737,6.90174,-24.4183,-0.959109,
2026_07_06_19_16_20.394,3.863,32.9,0,0.76,0,0,0,0, ,0,0,0,0,0, ,-36.2,-431.1,-901.2,-3.9,0.8,-1.5,25,71.7391,-396.128,-866.865,6.27398,-22.9669,-0.955507,
2026_07_06_19_16_20.406,3.863,32.9,0,0.76,0,0,0,0, ,0,0,0,0,0, ,-40.4,-427.7,-909.5,-2.5,-2.3,-2.5,25,65.0336,-398.156,-869.21,5.69666,-21.613,-1.01916,
2026_07_06_19_16_20.436,3.863,32.9,0,0.761,0,0,0,0, ,0,0,0,0,0, ,-30.8,-431.8,-909.7,0.3,-5.8,-3.1,25,58.9012,-400.081,-871.671,5.28249,-20.5428,-1.12768,
2026_07_06_19_16_20.445,3.863,32.9,0,0.76,0,0,0,0, ,0,0,0,0,0, ,-29,-433.3,-896.4,-0.7,-3.1,-0.5,25,53.4899,-402.06,-873.583,4.9484,-19.5621,-1.16865,
2026_07_06_19_16_20.475,3.863,32.9,0,0.761,0,0,0,0, ,0,0,0,0,0, ,-46.2,-425.1,-913.3,-2.1,-0.4,-2.6,25,47.9391,-403.713,-875.489,4.56154,-18.4767,-1.19188,
2026_07_06_19_16_20.484,3.863,33,0,0.761,0,0,0,0, ,0,0,0,0,0, ,-38.8,-424.1,-902.8,-1.2,-2,-2.4,25,42.428,-404.986,-877.473,4.18303,-17.4239,-1.2716,
2026_07_06_19_16_20.513,3.863,32.8,0,0.759,0,0,0,0, ,0,0,0,0,0, ,-20.5,-428.2,-900.1,-0.8,-3.9,-2.4,25,38.0357,-406.276,-878.934,3.86719,-16.5419,-1.34036,
2026_07_06_19_16_20.524,3.863,33,0,0.76,0,0,0,0, ,0,0,0,0,0, ,-18.7,-436.6,-908.6,1,-1,-1.4,25,34.5235,-407.868,-880.483,3.63762,-15.6832,-1.37446,
2026_07_06_19_16_20.553,3.863,32.9,0,0.762,0,0,0,0, ,0,0,0,0,0, ,-41.9,-426.6,-904.4,1.2,1,-1.3,25,30.5734,-409.314,-882.068,3.48299,-14.7275,-1.37297,
2026_07_06_19_16_20.564,3.863,32.9,0,0.759,0,0,0,0, ,0,0,0,0,0, ,-45.6,-420,-889.2,-0.4,0.1,-2.7,25,26.0443,-410.166,-882.966,3.29512,-13.7965,-1.41118,
2026_07_06_19_16_20.593,3.863,33,0,0.761,0,0,0,0, ,0,0,0,0,0, ,-25.8,-425.6,-900,-1.4,-1.8,-3,25,22.2817,-410.936,-883.675,3.03948,-13.0076,-1.49886,
2026_07_06_19_16_20.603,3.863,32.8,0,0.76,0,0,0,0, ,0,0,0,0,0, ,-30,-434.2,-913.9,0.1,-1.3,-2.5,25,19.2238,-412.092,-885.093,2.81465,-12.3094,-1.5751,
2026_07_06_19_16_20.633,3.863,33,0,0.76,0,0,0,0, ,0,0,0,0,0, ,-40.1,-433.5,-918,-0.2,0.5,-3.4,25,15.9165,-413.418,-886.973,2.64009,-11.5836,-1.65888,
2026_07_06_19_16_20.642,3.863,32.8,0,0.761,0,0,0,0, ,0,0,0,0,0, ,-38.4,-422.9,-901.7,-0.1,0.4,-4.1,25,12.5548,-414.318,-888.367,2.47006,-10.8503,-1.78631,
2026_07_06_19_16_20.670,3.863,33,0,0.762,0,0,0,0, ,0,0,0,0,0, ,-20.9,-430.1,-903.9,-1,-3.3,-2.4,25,9.98291,-415.061,-889.247,2.28603,-10.2775,-1.8755,
2026_07_06_19_16_20.682,3.863,33,0,0.761,0,0,0,0, ,0,0,0,0,0, ,-20,-429.8,-895.2,-1,-0.7,-2.2,25,8.12841,-415.968,-889.875,2.08579,-9.7731,-1.90137,
2026_07_06_19_16_20.711,3.863,32.9,0,0.763,0,0,0,0, ,0,0,0,0,0, ,-27.3,-422.8,-890.1,-1.3,2.4,-2.9,25,6.19191,-416.598,-890.044,1.88861,-9.12576,-1.9409,
2026_07_06_19_16_20.722,3.863,33,0,0.763,0,0,0,0, ,0,0,0,0,0, ,-32.3,-424.5,-896.2,-1.3,3.6,-3.7,25,3.99866,-417.027,-890.233,1.6943,-8.38685,-2.02372,
2026_07_06_19_16_20.752,3.863,33,0,0.761,0,0,0,0, ,0,0,0,0,0, ,-35.1,-424.5,-907.5,-1.3,2.3,-3.7,25,1.70139,-417.483,-890.941,1.51184,-7.69601,-2.12587,
2026_07_06_19_16_20.762,3.863,32.9,0,0.759,0,0,0,0, ,0,0,0,0,0, ,-30.5,-429,-910.6,1,0,-2.9,25,-0.401035,-418.047,-892.045,1.41057,-7.15695,-2.19742,
2026_07_06_19_16_20.792,3.863,32.9,0,0.76,0,0,0,0, ,0,0,0,0,0, ,-17.3,-427.7,-886.7,1.2,0.8,-1.9,25,-1.833,-418.675,-892.447,1.39164,-6.69645,-2.20976,
2026_07_06_19_16_20.807,3.863,32.9,0,0.76,0,0,0,0, ,0,0,0,0,0, ,-26.4,-420.1,-882.4,-0.2,5.7,-2.9,25,-3.05279,-418.994,-891.966,1.33731,-6.09034,-2.22135,
2026_07_06_19_16_20.837,3.863,32.9,0,0.761,0,0,0,0, ,0,0,0,0,0, ,-35.1,-420.2,-910,-0.1,3.4,-3.5,25,-4.74059,-419.064,-892.224,1.24667,-5.44194,-2.28099,
2026_07_06_19_16_20.844,3.863,33,0,0.761,0,0,0,0, ,0,0,0,0,0, ,-28.3,-431.1,-917.1,-0.7,0,-3,25,-6.38343,-419.465,-893.523,1.14633,-5.00673,-2.34004,
2026_07_06_19_16_20.874,3.863,33,0,0.76,0,0,0,0, ,0,0,0,0,0, ,-17.4,-429.8,-909,-1.2,1.5,-4.1,25,-7.38686,-420.135,-894.713,1.01859,-4.65593,-2.41377,
2026_07_06_19_16_20.881,3.863,32.9,0,0.759,0,0,0,0, ,0,0,0,0,0, ,-12,-424.1,-892.4,-1.5,3.5,-3.3,25,-7.8325,-420.55,-895.078,0.87425,-4.21987,-2.49215,
2026_07_06_19_16_20.910,3.863,33,0,0.761,0,0,0,0, ,0,0,0,0,0, ,-22.4,-418.8,-899.7,1,1.9,-1.9,25,-8.40333,-420.605,-895.137,0.805741,-3.79819,-2.49872,
2026_07_06_19_16_20.920,3.863,32.8,0,0.761,0,0,0,0, ,0,0,0,0,0, ,-23,-430.5,-918.5,1.8,1.8,-3.6,25,-9.27454,-420.851,-895.988,0.841953,-3.454,-2.51403,
2026_07_06_19_16_20.950,3.863,33,0,0.76,0,0,0,0, ,0,0,0,0,0, ,-31.2,-432,-915.1,2.7,2.2,-5.5,25,-10.3608,-421.485,-897.256,0.927756,-3.12165,-2.6381,
2026_07_06_19_16_20.960,3.863,32.9,0,0.763,0,0,0,0, ,0,0,0,0,0, ,-12.2,-433.2,-892.3,0.4,2.4,-4.2,25,-11.0518,-422.162,-897.649,0.965674,-2.79127,-2.77289,
2026_07_06_19_16_20.990,3.863,32.9,0,0.761,0,0,0,0, ,0,0,0,0,0, ,-9.2,-428.5,-893.9,-1.3,2.3,-1.6,25,-11.0303,-422.692,-897.372,0.879407,-2.47797,-2.78063,
2026_07_06_19_16_21.000,3.863,33,0,0.76,0,0,0,0, ,0,0,0,0,0, ,-25.1,-424.1,-905.5,-2.7,2.3,-2.1,25,-11.4032,-422.912,-897.514,0.703943,-2.18681,-2.72392,
2026_07_06_19_16_21.032,3.863,32.9,0,0.763,0,0,0,0, ,0,0,0,0,0, ,-16.8,-428.4,-910.8,-2.1,0.4,-2.8,25,-11.985,-423.115,-898.162,0.514796,-1.97129,-2.70723,
2026_07_06_19_16_21.041,3.863,32.9,0,0.761,0,0,0,0, ,0,0,0,0,0, ,-0.9,-436,-905.3,-0.6,3.6,-4.9,25,-11.794,-423.669,-898.764,0.40116,-1.72929,-2.77687,
2026_07_06_19_16_21.071,3.863,32.9,0,0.761,0,0,0,0, ,0,0,0,0,0, ,-4.1,-422.4,-893,-1.3,8.2,-7,25,-11.2276,-424.006,-898.788,0.318824,-1.26438,-2.97023,
2026_07_06_19_16_21.078,3.863,33,0,0.762,0,0,0,0, ,0,0,0,0,0, ,-3.5,-427.8,-900.5,-2,6.2,-4.6,25,-10.775,-424.072,-898.664,0.198849,-0.74858,-3.14267,
2026_07_06_19_16_21.107,3.863,33,0,0.759,0,0,0,0, ,0,0,0,0,0, ,-6.4,-426.8,-901.7,-2.3,6.7,-7.1,25,-10.42,-424.269,-898.812,0.0557158,-0.309917,-3.30765,
2026_07_06_19_16_21.118,3.863,33,0,0.76,0,0,0,0, ,0,0,0,0,0, ,-1.5,-425,-894.6,-4.9,11.4,-10.5,25,-10.0258,-424.369,-898.772,-0.167054,0.260453,-3.64234,
2026_07_06_19_16_21.150,3.863,33,0,0.762,0,0,0,0, ,0,0,0,0,0, ,19.2,-427.2,-900,-7.4,17.4,-15.8,25,-8.87552,-424.474,-898.682,-0.53164,1.12208,-4.22171,
2026_07_06_19_16_21.158,3.863,33,0,0.763,0,0,0,0, ,0,0,0,0,0, ,30.6,-427.1,-897.8,-10,26,-18.5,25,-6.81732,-424.637,-898.695,-1.0294,2.37605,-5.00953,
2026_07_06_19_16_21.188,3.863,33,0,0.76,0,0,0,0, ,0,0,0,0,0, ,39.1,-424.6,-919.4,-9.4,34.5,-23.7,25,-4.27822,-424.711,-899.299,-1.55776,4.07462,-5.99004,
2026_07_06_19_16_21.197,3.863,32.9,0,0.761,0,0,0,0, ,0,0,0,0,0, ,60.3,-417.8,-910.8,-9.4,39.4,-26.3,25,-0.988924,-424.497,-900.262,-2.03565,6.07796,-7.14846,
2026_07_06_19_16_21.228,3.863,33,0,0.761,0,0,0,0, ,0,0,0,0,0, ,86.7,-437.5,-938.3,-9.5,45,-27.3,25,3.55024,-424.689,-901.742,-2.48746,8.27915,-8.34598,
2026_07_06_19_16_21.237,3.863,33,0,0.762,0,0,0,0, ,0,0,0,0,0, ,100.7,-437,-950.9,-4.5,59,-32.7,25,9.04374,-425.455,-904.354,-2.76244,10.9434,-9.66552,
2026_07_06_19_16_21.267,3.863,32.9,0,0.76,0,0,0,0, ,0,0,0,0,0, ,124.3,-387.5,-878.7,-1.5,82.8,-40.5,25,15.3481,-424.65,-904.99,-2.77692,14.597,-11.3068,
2026_07_06_19_16_21.277,3.863,33,0,0.763,0,0,0,0, ,0,0,0,0,0, ,157.9,-391.1,-871.3,-5.8,98.9,-50.2,25,23.0111,-422.496,-903.163,-2.83012,19.2437,-13.3813,
2026_07_06_19_16_21.307,3.863,33,0,0.762,0,0,0,0, ,0,0,0,0,0, ,224.3,-391.8,-854.6,-3.3,97.1,-50.1,25,33.254,-420.604,-900.712,-2.93493,24.0429,-15.6219,
2026_07_06_19_16_21.316,3.863,32.9,0,0.763,0,0,0,0, ,0,0,0,0,0, ,220,-390.1,-899.2,-4.4,105.1,-54.3,25,44.7649,-418.797,-899.261,-2.99069,28.7385,-17.8509,
2026_07_06_19_16_21.346,3.863,32.9,0,0.761,0,0,0,0, ,0,0,0,0,0, ,277.5,-408.4,-960.9,0.7,117.5,-66.5,25,57.1952,-417.606,-901.137,-2.92118,33.7696,-20.4437,
2026_07_06_19_16_21.356,3.863,32.9,0,0.763,0,0,0,0, ,0,0,0,0,0, ,323.2,-384.3,-908.8,20,130.2,-73,25,72.0125,-416.311,-903.192,-2.11247,39.2589,-23.4483,
2026_07_06_19_16_21.385,3.863,33,0,0.76,0,0,0,0, ,0,0,0,0,0, ,359.2,-385.8,-831.5,8.6,116.7,-44.4,25,88.4161,-414.406,-901.178,-1.11233,44.3893,-25.5965,
2026_07_06_19_16_21.395,3.863,32.8,0,0.763,0,0,0,0, ,0,0,0,0,0, ,395,-355.4,-752.8,-16.7,108.1,-21.4,25,106.008,-411.736,-894.534,-1.29135,48.5337,-26.0415,
2026_07_06_19_16_21.425,3.863,32.9,0,0.76,0,0,0,0, ,0,0,0,0,0, ,422.1,-345.8,-750,-25.9,112.6,-18.7,25,124.444,-408.011,-885.812,-2.51062,52.3006,-25.6764,
2026_07_06_19_16_21.434,3.863,33,0,0.761,0,0,0,0, ,0,0,0,0,0, ,418.7,-350.7,-821.4,-27.3,123.3,-24.7,25,142.479,-404.369,-879.711,-3.97857,56.3011,-25.4341,
2026_07_06_19_16_21.464,3.863,33,0,0.761,0,0,0,0, ,0,0,0,0,0, ,454.7,-363.8,-892.7,-14.7,122.7,-29,25,160.408,-401.498,-878.331,-5.01581,60.3656,-25.5204,
2026_07_06_19_16_21.474,3.863,32.9,0,0.763,0,0,0,0, ,0,0,0,0,0, ,514.4,-350,-839.7,-1.7,124,-33.1,25,180.16,-398.78,-877.591,-5.20985,64.2037,-25.8574,
2026_07_06_19_16_21.505,3.863,33,0,0.762,0,0,0,0, ,0,0,0,0,0, ,567.8,-339.9,-739.2,3.8,117.7,-30.6,25,202.155,-395.5,-872.22,-4.82839,67.6556,-26.2225,
2026_07_06_19_16_21.514,3.863,32.9,0,0.762,0,0,0,0, ,0,0,0,0,0, ,553.8,-314.9,-684,0.3,117.3,-30.8,25,224.01,-391.35,-862.432,-4.40924,70.693,-26.4954,
2026_07_06_19_16_21.544,3.863,32.9,0,0.763,0,0,0,0, ,0,0,0,0,0, ,572.3,-308.4,-687.7,-6.5,133.8,-35.5,25,244.67,-386.493,-851.672,-4.32946,74.0358,-26.9009,
2026_07_06_19_16_21.553,3.863,32.9,0,0.761,0,0,0,0, ,0,0,0,0,0, ,649.7,-312.6,-679.4,-9.4,138.8,-38.6,25,266.993,-381.862,-841.427,-4.55008,77.8301,-27.5194,
2026_07_06_19_16_21.584,3.863,32.9,0,0.761,0,0,0,0, ,0,0,0,0,0, ,716,-317.9,-661.2,-2.9,130.3,-38.2,25,292.335,-377.803,-830.999,-4.64758,81.2864,-28.1824,
2026_07_06_19_16_21.593,3.863,32.8,0,0.763,0,0,0,0, ,0,0,0,0,0, ,726.9,-300.6,-619.5,2.7,119.6,-35.6,25,318.484,-373.626,-819.381,-4.37046,83.9472,-28.7136,
2026_07_06_19_16_21.623,3.863,33,0,0.762,0,0,0,0, ,0,0,0,0,0, ,747.1,-281.6,-554,7.2,118.3,-40.4,25,343.987,-368.597,-805.205,-3.8025,86.0802,-29.2795,
2026_07_06_19_16_21.640,3.863,32.9,0,0.76,0,0,0,0, ,0,0,0,0,0, ,781.4,-284.4,-509,4.3,125.5,-38.7,25,369.597,-363.381,-788.526,-3.22039,88.2629,-29.9054,
2026_07_06_19_16_21.671,3.863,33,0,0.761,0,0,0,0, ,0,0,0,0,0, ,814.2,-266.2,-477.5,0.5,139.9,-32,25,395.691,-358.013,-770.533,-2.8779,90.9708,-30.2372,
2026_07_06_19_16_21.678,3.863,33,0,0.761,0,0,0,0, ,0,0,0,0,0, ,859.8,-272.2,-460.5,3.2,140.8,-36.8,25,422.583,-352.601,-752.158,-2.58979,93.9799,-30.4908,
2026_07_06_19_16_21.709,3.863,32.9,0,0.761,0,0,0,0, ,0,0,0,0,0, ,896.4,-264.2,-429,7,123.8,-32.8,25,450.341,-347.458,-733.426,-2.12119,96.315,-30.7534,
2026_07_06_19_16_21.717,3.863,32.9,0,0.76,0,0,0,0, ,0,0,0,0,0, ,947.1,-254.2,-381.5,0.6,116.8,-22.4,25,479.067,-342.08,-713.427,-1.76037,97.7766,-30.5613,
2026_07_06_19_16_21.749,3.863,32.9,0,0.76,0,0,0,0, ,0,0,0,0,0, ,929.9,-242.3,-348.3,0,126.7,-21.2,25,507.064,-336.362,-692.189,-1.63482,99.2375,-30.0274,
2026_07_06_19_16_21.755,3.863,32.9,0,0.762,0,0,0,0, ,0,0,0,0,0, ,908.8,-229.1,-323.6,-7.3,124.7,-24.6,25,532.188,-330.228,-670.481,-1.75762,100.85,-29.593,
2026_07_06_19_16_21.786,3.863,32.9,0,0.761,0,0,0,0, ,0,0,0,0,0, ,920.7,-210.8,-272.9,-1.5,112.6,-26.5,25,555.5,-323.508,-647.798,-1.91864,101.935,-29.3467,
2026_07_06_19_16_21.794,3.863,32.9,0,0.761,0,0,0,0, ,0,0,0,0,0, ,970.2,-214.1,-207.2,-2.9,107.8,-21.3,25,579.263,-316.74,-622.951,-1.93578,102.438,-29.0148,
2026_07_06_19_16_21.825,3.863,33,0,0.761,0,0,0,0, ,0,0,0,0,0, ,946.6,-203.2,-179.5,-0.8,109,-22.7,25,602.366,-310.154,-596.772,-1.93056,102.802,-28.5873,
2026_07_06_19_16_21.833,3.863,32.8,0,0.76,0,0,0,0, ,0,0,0,0,0, ,922.8,-190.6,-155.6,-2.6,102.1,-25.5,25,622.618,-303.252,-570.616,-1.91651,102.969,-28.3139,
2026_07_06_19_16_21.863,3.863,32.9,0,0.76,0,0,0,0, ,0,0,0,0,0, ,926.6,-185.9,-99.8,-6.3,93.1,-26.5,25,641.026,-296.244,-543.626,-2.07089,102.642,-28.1729,
2026_07_06_19_16_21.870,3.863,32.9,0,0.762,0,0,0,0, ,0,0,0,0,0, ,951.9,-173,-63.2,-10,93.6,-27.6,25,659.199,-289.127,-515.465,-2.44134,102.076,-28.1044,
2026_07_06_19_16_21.902,3.863,32.9,0,0.762,0,0,0,0, ,0,0,0,0,0, ,956.9,-171.8,-57.6,-11.6,90.9,-30.9,25,677.188,-282.014,-487.735,-2.95069,101.477,-28.1742,
2026_07_06_19_16_21.909,3.863,32.9,0,0.761,0,0,0,0, ,0,0,0,0,0, ,957.2,-173.4,-50,-12.3,79.3,-26.1,25,694.242,-275.347,-461.292,-3.49909,100.479,-28.1941,
2026_07_06_19_16_21.940,3.863,33,0,0.761,0,0,0,0, ,0,0,0,0,0, ,972.6,-176,-19.2,-10.4,69.6,-21.5,25,710.735,-269.213,-435.29,-3.9775,98.8929,-27.9263,
2026_07_06_19_16_21.949,3.863,32.9,0,0.76,0,0,0,0, ,0,0,0,0,0, ,968,-157.8,-0.4,-6.3,70.9,-21.3,25,726.552,-262.979,-409.362,-4.24395,97.1474,-27.5286,
2026_07_06_19_16_21.979,3.863,32.9,0,0.76,0,0,0,0, ,0,0,0,0,0, ,970.7,-149.7,33.4,-4.2,73.6,-24.8,25,741.348,-256.323,-383.411,-4.30526,95.6302,-27.2557,
2026_07_06_19_16_21.989,3.863,32.9,0,0.761,0,0,0,0, ,0,0,0,0,0, ,962.6,-132.8,57.3,-3.2,67.3,-26.2,25,755.077,-249.31,-357.283,-4.26838,94.0958,-27.1487,
2026_07_06_19_16_22.020,3.863,32.9,0,0.761,0,0,0,0, ,0,0,0,0,0, ,968.5,-130.7,62.6,-2.2,64.2,-27.3,25,767.903,-242.147,-331.858,-4.1728,92.3685,-27.1244,
2026_07_06_19_16_22.028,3.863,32.9,0,0.761,0,0,0,0, ,0,0,0,0,0, ,972,-121.2,94.8,-0.8,59.2,-25.7,25,780.233,-235.066,-306.84,-4.00993,90.4996,-27.0864,
2026_07_06_19_16_22.060,3.863,32.9,0,0.76,0,0,0,0, ,0,0,0,0,0, ,958.1,-102.7,139.8,-1.8,45.6,-22.2,25,791.496,-227.563,-280.994,-3.84479,88.1779,-26.8953,
2026_07_06_19_16_22.068,3.863,32.9,0,0.76,0,0,0,0, ,0,0,0,0,0, ,957.8,-95.4,163.9,-3.5,45.4,-24.6,25,801.639,-219.732,-254.617,-3.77198,85.5773,-26.6823,
2026_07_06_19_16_22.100,3.863,32.9,0,0.76,0,0,0,0, ,0,0,0,0,0, ,958.4,-88.3,182.3,-4.7,47.3,-26.4,25,811.173,-211.939,-228.553,-3.79197,83.1868,-26.6102,
2026_07_06_19_16_22.108,3.863,32.9,0,0.76,0,0,0,0, ,0,0,0,0,0, ,970,-83.4,193.7,-6.1,40.6,-25.7,25,820.498,-204.256,-203.17,-3.88996,80.7959,-26.5761,
2026_07_06_19_16_22.140,3.863,32.9,0,0.761,0,0,0,0, ,0,0,0,0,0, ,951,-72.6,191.7,-8.9,21,-23.4,25,829.03,-196.562,-179.046,-4.10995,77.7492,-26.4526,
2026_07_06_19_16_22.148,3.863,32.9,0,0.761,0,0,0,0, ,0,0,0,0,0, ,962.6,-80.8,176.1,-11.7,3.8,-19.1,25,836.816,-189.258,-156.929,-4.48716,73.767,-26.1356,
2026_07_06_19_16_22.179,3.863,32.8,0,0.761,0,0,0,0, ,0,0,0,0,0, ,1007.8,-90.2,191,-10.2,-1.9,-14.7,25,845.858,-182.935,-136.181,-4.88098,69.3297,-25.5728,
2026_07_06_19_16_22.187,3.863,32.9,0,0.763,0,0,0,0, ,0,0,0,0,0, ,1010.6,-88.3,200.9,-5,5.3,-6.3,25,855.812,-177.226,-115.942,-5.04667,65.2085,-24.6543,
2026_07_06_19_16_22.219,3.863,32.9,0,0.761,0,0,0,0, ,0,0,0,0,0, ,953.3,-68.4,194.5,-1.2,7.8,-8,25,863.498,-171.201,-96.8296,-4.92805,61.634,-23.5876,
2026_07_06_19_16_22.227,3.863,32.8,0,0.76,0,0,0,0, ,0,0,0,0,0, ,927.3,-57.4,206.7,-0.9,5.3,-15.3,25,868.178,-164.601,-78.7049,-4.69173,58.2774,-22.8602,
2026_07_06_19_16_22.257,3.863,32.9,0,0.76,0,0,0,0, ,0,0,0,0,0, ,943.4,-58.7,215.2,-3,-1.9,-18.5,25,872.272,-158.108,-61.0541,-4.52466,54.8297,-22.497,
2026_07_06_19_16_22.266,3.863,32.9,0,0.762,0,0,0,0, ,0,0,0,0,0, ,946.6,-54.5,200.3,-5.6,-10.3,-18.4,25,876.703,-151.923,-44.6738,-4.51097,51.1168,-22.2504,
2026_07_06_19_16_22.295,3.863,32.9,0,0.761,0,0,0,0, ,0,0,0,0,0, ,954.8,-56.7,176.6,-6.4,-15.2,-15.9,25,881.213,-146.053,-30.4679,-4.6017,47.2249,-21.9396,
2026_07_06_19_16_22.305,3.863,32.8,0,0.761,0,0,0,0, ,0,0,0,0,0, ,962.7,-52.7,167.9,-5.6,-18.4,-14.7,25,885.938,-140.486,-18.1147,-4.68691,43.3234,-21.535,
2026_07_06_19_16_22.338,3.863,32.9,0,0.761,0,0,0,0, ,0,0,0,0,0, ,983.8,-51,170.8,-4.2,-21.7,-12.3,25,891.258,-135.085,-6.69111,-4.6999,39.4616,-21.0453,
2026_07_06_19_16_22.346,3.863,32.8,0,0.76,0,0,0,0, ,0,0,0,0,0, ,989.5,-37.3,164.1,-3,-17.4,-10.6,25,897.071,-129.544,3.92061,-4.63287,35.8655,-20.4606,
2026_07_06_19_16_22.378,3.863,33,0,0.76,0,0,0,0, ,0,0,0,0,0, ,986.4,-29.1,152.9,-2.8,-15.3,-12,25,902.609,-123.673,13.3403,-4.52728,32.6837,-19.9024,
2026_07_06_19_16_22.387,3.863,32.9,0,0.761,0,0,0,0, ,0,0,0,0,0, ,983.8,-29.2,142.8,-2.4,-18.5,-11.6,25,907.636,-117.913,21.537,-4.40983,29.6622,-19.4087,
2026_07_06_19_16_22.418,3.863,32.9,0,0.76,0,0,0,0, ,0,0,0,0,0, ,1002,-27.4,143.9,-2.6,-20,-9.6,25,912.832,-112.452,28.96,-4.29345,26.6816,-18.8719,
2026_07_06_19_16_22.425,3.863,32.8,0,0.761,0,0,0,0, ,0,0,0,0,0, ,1016.1,-22.3,145,-4,-16.5,-7.6,25,918.695,-107.114,35.9976,-4.23291,23.9436,-18.2459,
2026_07_06_19_16_22.456,3.863,32.9,0,0.761,0,0,0,0, ,0,0,0,0,0, ,1013.7,-18.9,136.1,-4.9,-5.7,-8.2,25,924.557,-101.842,42.3688,-4.24614,21.8081,-17.6155,
2026_07_06_19_16_22.464,3.863,32.9,0,0.761,0,0,0,0, ,0,0,0,0,0, ,1007.9,-26.6,129.6,-3.4,-4.2,-7.1,25,929.813,-97.0221,47.8825,-4.24028,20.1775,-17.0082,
2026_07_06_19_16_22.495,3.863,32.9,0,0.761,0,0,0,0, ,0,0,0,0,0, ,989.9,-23.1,128.9,-0.7,-9.9,-5.4,25,934.023,-92.6241,52.8408,-4.10681,18.5183,-16.3526,
2026_07_06_19_16_22.503,3.863,32.9,0,0.761,0,0,0,0, ,0,0,0,0,0, ,988.5,-16.6,134,0.1,-13.6,-3.3,25,937.385,-88.1895,57.6311,-3.87484,16.6739,-15.6212,
2026_07_06_19_16_22.536,3.863,32.9,0,0.76,0,0,0,0, ,0,0,0,0,0, ,1006.9,-14.5,142,-3.1,-8.6,-3,25,941.061,-83.763,62.5285,-3.73012,14.9814,-14.8613,
2026_07_06_19_16_22.545,3.863,32.9,0,0.76,0,0,0,0, ,0,0,0,0,0, ,1009.7,-20.7,130.6,-5.4,-2.7,-1.9,25,945.158,-79.7312,67.024,-3.7618,13.7242,-14.1049,
2026_07_06_19_16_22.578,3.863,32.9,0,0.76,0,0,0,0, ,0,0,0,0,0, ,988.1,-20.2,117.7,-2.7,-2.7,-1.6,25,948.433,-76.1187,70.5051,-3.77936,12.7233,-13.3521,
2026_07_06_19_16_22.586,3.863,32.9,0,0.761,0,0,0,0, ,0,0,0,0,0, ,974.7,-20.9,115.4,-0.8,-5.3,-2.8,25,950.442,-72.7325,73.311,-3.6557,11.7042,-12.6725,
2026_07_06_19_16_22.617,3.863,32.8,0,0.761,0,0,0,0, ,0,0,0,0,0, ,977.5,-17.5,114.5,-0.4,-7,-3.2,25,952.005,-69.4704,75.8483,-3.46949,10.6162,-12.0831,
2026_07_06_19_16_22.625,3.863,32.8,0,0.76,0,0,0,0, ,0,0,0,0,0, ,992.4,-23.6,126.7,-0.5,-5.3,-3.2,25,954.013,-66.4893,78.5754,-3.28549,9.59456,-11.5418,
2026_07_06_19_16_22.656,3.863,32.9,0,0.761,0,0,0,0, ,0,0,0,0,0, ,995.4,-21.2,140.5,-2,-0.1,-2.1,25,956.444,-63.8026,81.9285,-3.16145,8.84536,-10.9999,
2026_07_06_19_16_22.664,3.863,32.9,0,0.761,0,0,0,0, ,0,0,0,0,0, ,985.1,-19,122.1,-3.3,1.5,-1.9,25,958.504,-61.1395,84.937,-3.13029,8.349,-10.4515,
2026_07_06_19_16_22.697,3.863,32.9,0,0.761,0,0,0,0, ,0,0,0,0,0, ,972.4,-18.4,104,-1.1,0.7,-2.7,25,959.737,-58.5533,86.6502,-3.0736,7.90726,-9.95475,
2026_07_06_19_16_22.704,3.863,32.9,0,0.761,0,0,0,0, ,0,0,0,0,0, ,979,-20.5,109.9,1.4,-0.4,-3.8,25,960.71,-56.1705,87.8872,-2.87716,7.43455,-9.54618,
2026_07_06_19_16_22.736,3.863,32.8,0,0.763,0,0,0,0, ,0,0,0,0,0, ,991.4,-23,115.9,1.3,-2.7,-2.8,25,962.202,-54.073,89.4114,-2.61957,6.88706,-9.16555,
2026_07_06_19_16_22.744,3.863,32.9,0,0.761,0,0,0,0, ,0,0,0,0,0, ,992.7,-18.4,123.1,-0.2,-2.4,-1.4,25,964.021,-52.0393,91.2449,-2.42642,6.31199,-8.735,
2026_07_06_19_16_22.775,3.863,32.9,0,0.761,0,0,0,0, ,0,0,0,0,0, ,983.3,-15.5,128.6,-1.3,-2.7,-1.2,25,965.483,-49.9011,93.3537,-2.32426,5.77196,-8.28193,
2026_07_06_19_16_22.782,3.863,33,0,0.761,0,0,0,0, ,0,0,0,0,0, ,981.8,-14.5,121.7,-1.5,-3.9,-1.4,25,966.523,-47.7743,95.2913,-2.26794,5.21914,-7.85647,
2026_07_06_19_16_22.815,3.863,32.9,0,0.76,0,0,0,0, ,0,0,0,0,0, ,984,-19.1,109.3,-0.8,-3.9,-2.1,25,967.521,-45.8868,96.5227,-2.19982,4.66344,-7.48435,
2026_07_06_19_16_22.828,3.863,32.9,0,0.761,0,0,0,0, ,0,0,0,0,0, ,981.9,-18.6,119.5,0.6,-2.7,-2.7,25,968.461,-44.2392,97.6121,-2.07186,4.17817,-7.17452,
2026_07_06_19_16_22.859,3.863,32.8,0,0.761,0,0,0,0, ,0,0,0,0,0, ,981,-12.4,132.8,0.7,-2.6,-3.1,25,969.252,-42.4879,99.3512,-1.906,3.76208,-6.91405,
2026_07_06_19_16_22.867,3.863,32.8,0,0.761,0,0,0,0, ,0,0,0,0,0, ,987.4,-11.7,124.5,-1.2,0,-4.4,25,970.163,-40.6331,101.137,-1.80508,3.45361,-6.72124,
2026_07_06_19_16_22.901,3.863,32.9,0,0.761,0,0,0,0, ,0,0,0,0,0, ,988.5,-16.1,114.2,-1.4,1.6,-4.4,25,971.247,-39.0041,102.246,-1.77431,3.2919,-6.57979,
2026_07_06_19_16_22.901,3.863,32.9,0,0.761,0,0,0,0, ,0,0,0,0,0, ,987.1,-20,103.8,-0.7,-0.9,-3.8,25,972.256,-37.7272,102.658,-1.73017,3.11263,-6.42867,
2026_07_06_19_16_22.934,3.863,32.8,0,0.76,0,0,0,0, ,0,0,0,0,0, ,987.3,-15.3,108.6,2.1,-5.2,-2.9,25,973.166,-36.5037,102.874,-1.58208,2.7371,-6.24107,
2026_07_06_19_16_22.941,3.863,32.9,0,0.761,0,0,0,0, ,0,0,0,0,0, ,995.4,-10.7,110.8,3.9,-6.1,-2.4,25,974.274,-35.0715,103.29,-1.30286,2.22601,-6.02224,
2026_07_06_19_16_22.974,3.863,32.8,0,0.76,0,0,0,0, ,0,0,0,0,0, ,988.6,-16.3,115.1,4.2,-3.5,-1.7,25,975.355,-33.757,103.878,-0.97667,1.79786,-5.78018,
2026_07_06_19_16_22.983,3.863,32.8,0,0.761,0,0,0,0, ,0,0,0,0,0, ,979,-15.2,121,2.6,-2.7,-1.8,25,975.869,-32.6597,104.742,-0.709966,1.4994,-5.53459,
2026_07_06_19_16_23.016,3.863,32.9,0,0.761,0,0,0,0, ,0,0,0,0,0, ,976.5,-9.5,113.5,1.7,-5,-1.9,25,975.984,-31.422,105.504,-0.535687,1.17342,-5.31006,
2026_07_06_19_16_23.023,3.863,32.8,0,0.761,0,0,0,0, ,0,0,0,0,0, ,984,-8.4,107.9,1.4,-5.9,-2.7,25,976.244,-30.0526,105.821,-0.408591,0.769803,-5.12663,
2026_07_06_19_16_23.056,3.863,32.8,0,0.761,0,0,0,0, ,0,0,0,0,0, ,991.3,-11.8,96.5,0.8,-6.2,-2.8,25,976.939,-28.8368,105.6,-0.316661,0.354221,-4.98181,
2026_07_06_19_16_23.065,3.863,32.9,0,0.761,0,0,0,0, ,0,0,0,0,0, ,983.6,-12.5,91.4,1.2,-9.4,-1.6,25,977.579,-27.8199,104.89,-0.236427,-0.142677,-4.81229,
2026_07_06_19_16_23.099,3.863,32.8,0,0.761,0,0,0,0, ,0,0,0,0,0, ,980.3,-11.4,100.4,1.9,-11.3,-1.6,25,977.846,-26.8529,104.342,-0.127566,-0.764685,-4.61654,
2026_07_06_19_16_23.099,3.863,32.9,0,0.761,0,0,0,0, ,0,0,0,0,0, ,986.3,-2.9,123.6,0.7,-7,-2.1,25,978.178,-25.6522,104.809,-0.0405741,-1.27567,-4.44796,
2026_07_06_19_16_23.131,3.863,32.8,0,0.761,0,0,0,0, ,0,0,0,0,0, ,990.1,-6.8,114.1,-1.3,2.1,-4.7,25,978.789,-24.3846,105.665,-0.0563829,-1.34723,-4.3841,
2026_07_06_19_16_23.139,3.863,32.9,0,0.761,0,0,0,0, ,0,0,0,0,0, ,983.6,-12,94.4,-1.4,1.8,-4.5,25,979.28,-23.4715,105.578,-0.135213,-1.1463,-4.39725,
2026_07_06_19_16_23.173,3.863,32.9,0,0.763,0,0,0,0, ,0,0,0,0,0, ,991,-14.1,81.7,-0.3,-3.8,-2.8,25,979.769,-22.8364,104.51,-0.17877,-1.13739,-4.35172,
2026_07_06_19_16_23.180,3.863,32.8,0,0.76,0,0,0,0, ,0,0,0,0,0, ,1001.3,-13.3,77.2,1,-6.7,-1.8,25,980.767,-22.2797,102.983,-0.146548,-1.388,-4.22669,
2026_07_06_19_16_23.213,3.863,32.9,0,0.761,0,0,0,0, ,0,0,0,0,0, ,994.8,-9.8,86.1,1,-8.6,-0.9,25,981.82,-21.6258,101.683,-0.0766803,-1.76959,-4.05139,
2026_07_06_19_16_23.221,3.863,32.8,0,0.759,0,0,0,0, ,0,0,0,0,0, ,984.3,-4.2,102.7,0.9,-8.1,-0.5,25,982.291,-20.7346,101.239,-0.014117,-2.17058,-3.84717,
2026_07_06_19_16_23.254,3.863,32.8,0,0.76,0,0,0,0, ,0,0,0,0,0, ,990.1,-3.7,111,0.5,-4.6,-1.4,25,982.59,-19.7117,101.581,0.0293995,-2.42527,-3.67062,
2026_07_06_19_16_23.261,3.863,32.9,0,0.761,0,0,0,0, ,0,0,0,0,0, ,999.1,-8.7,94.1,-0.1,0.7,-2.3,25,983.322,-18.8884,101.64,0.0397955,-2.3963,-3.55968,
2026_07_06_19_16_23.295,3.863,32.9,0,0.76,0,0,0,0, ,0,0,0,0,0, ,981.9,-9.3,87.5,0.5,1.3,-2,25,983.76,-18.2858,100.98,0.0495579,-2.18934,-3.47378,
2026_07_06_19_16_23.295,3.863,32.9,0,0.763,0,0,0,0, ,0,0,0,0,0, ,979,-5.4,95.9,0.8,-2.2,-2.6,25,983.558,-17.6194,100.414,0.0861474,-2.08335,-3.40225,
2026_07_06_19_16_23.328,3.863,32.8,0,0.762,0,0,0,0, ,0,0,0,0,0, ,992.9,-11.7,95,0.2,-2.1,-2.4,25,983.704,-17.0667,100.112,0.111367,-2.08741,-3.34727,
2026_07_06_19_16_23.336,3.863,32.9,0,0.759,0,0,0,0, ,0,0,0,0,0, ,991.2,-10.9,90.5,-0.3,-1.1,-1.6,25,984.212,-16.7153,99.6631,0.101533,-2.05771,-3.26517,
2026_07_06_19_16_23.369,3.863,32.8,0,0.76,0,0,0,0, ,0,0,0,0,0, ,981.8,-6.1,88.6,0.1,-2.4,-2,25,984.352,-16.2147,99.0469,0.0892523,-2.03896,-3.17588,
2026_07_06_19_16_23.377,3.863,32.9,0,0.761,0,0,0,0, ,0,0,0,0,0, ,994.3,-4.7,92.4,0.7,-2.2,-2.9,25,984.577,-15.5557,98.5261,0.108188,-2.05487,-3.13165,
2026_07_06_19_16_23.411,3.863,32.8,0,0.759,0,0,0,0, ,0,0,0,0,0, ,1000.7,-10.4,88.9,1,1.2,-2.8,25,985.365,-15.0678,98.0461,0.153393,-1.96012,-3.11449,
2026_07_06_19_16_23.419,3.863,32.9,0,0.762,0,0,0,0, ,0,0,0,0,0, ,992.6,-5.4,87.2,0.9,1.4,-2,25,986.052,-14.631,97.437,0.201936,-1.76145,-3.07095,
2026_07_06_19_16_23.451,3.863,32.8,0,0.762,0,0,0,0, ,0,0,0,0,0, ,983,-3.4,89.1,0.5,0.3,-2.4,25,986.159,-14.0076,96.871,0.232287,-1.60232,-3.01788,
2026_07_06_19_16_23.459,3.863,32.8,0,0.762,0,0,0,0, ,0,0,0,0,0, ,982.9,-6.4,79.7,-0.6,-1.4,-3.3,25,985.963,-13.4526,96.1111,0.215085,-1.53819,-3.00765,
2026_07_06_19_16_23.493,3.863,32.8,0,0.76,0,0,0,0, ,0,0,0,0,0, ,986.8,-5.8,80.6,-0.2,-2.4,-3,25,985.895,-13.0045,95.1385,0.177603,-1.56024,-3.01632,
2026_07_06_19_16_23.493,3.863,32.8,0,0.762,0,0,0,0, ,0,0,0,0,0, ,1001.9,-8.3,91.1,0.1,-1,-2.5,25,986.411,-12.6417,94.5724,0.163734,-1.56876,-3.00009,
2026_07_06_19_16_23.526,3.863,32.8,0,0.761,0,0,0,0, ,0,0,0,0,0, ,990.2,-5,89.3,0,2,-1.7,25,986.998,-12.2766,94.306,0.156803,-1.44269,-2.94524,
2026_07_06_19_16_23.533,3.863,32.9,0,0.762,0,0,0,0, ,0,0,0,0,0, ,974.2,-2.6,84.9,-0.8,0.5,-2,25,986.706,-11.76,93.8669,0.122873,-1.27861,-2.8785,
2026_07_06_19_16_23.566,3.863,32.8,0,0.76,0,0,0,0, ,0,0,0,0,0, ,984.1,-5.4,80.6,-0.1,-2.2,-2.4,25,986.245,-11.2872,93.1894,0.0879633,-1.25249,-2.83715,
2026_07_06_19_16_23.574,3.863,32.9,0,0.76,0,0,0,0, ,0,0,0,0,0, ,994.1,-4.1,91.4,0.4,-1.5,-2.1,25,986.419,-10.8888,92.7513,0.0917437,-1.2889,-2.80137,
2026_07_06_19_16_23.608,3.863,32.9,0,0.76,0,0,0,0, ,0,0,0,0,0, ,991.6,-4.8,93.8,-1.7,-0.7,-1.6,25,986.811,-10.4964,92.7421,0.0465437,-1.27739,-2.7434,
2026_07_06_19_16_23.615,3.863,32.9,0,0.76,0,0,0,0, ,0,0,0,0,0, ,980.2,-5.9,83,-2.9,-1.5,-1.2,25,986.756,-10.1828,92.4775,-0.0964488,-1.26658,-2.66154,
2026_07_06_19_16_23.648,3.863,32.8,0,0.762,0,0,0,0, ,0,0,0,0,0, ,978,-6.8,74.9,-1.6,-4.2,-1.5,25,986.289,-9.94926,91.6532,-0.227681,-1.36307,-2.58162,
2026_07_06_19_16_23.655,3.863,32.9,0,0.761,0,0,0,0, ,0,0,0,0,0, ,984.3,-7,78.8,0,-6.1,-2.2,25,985.976,-9.76345,90.7511,-0.262557,-1.59383,-2.53703,
2026_07_06_19_16_23.688,3.863,32.9,0,0.761,0,0,0,0, ,0,0,0,0,0, ,986.3,-6.1,90.2,0,-5.3,-3.1,25,985.935,-9.56763,90.3702,-0.246557,-1.84405,-2.54392,
2026_07_06_19_16_23.695,3.863,32.8,0,0.762,0,0,0,0, ,0,0,0,0,0, ,988.6,2.5,100.7,-0.8,-2.6,-2.9,25,986.027,-9.09429,90.6797,-0.255907,-1.97238,-2.57171,
2026_07_06_19_16_23.727,3.863,32.8,0,0.763,0,0,0,0, ,0,0,0,0,0, ,998,-0.8,91.1,-2.3,0,-3.8,25,986.47,-8.48831,90.9979,-0.334766,-1.93141,-2.61914,
2026_07_06_19_16_23.736,3.863,32.8,0,0.762,0,0,0,0, ,0,0,0,0,0, ,994,-2.8,73.1,-2.2,1,-3.7,25,987.051,-8.08074,90.4556,-0.451476,-1.78325,-2.68805,
2026_07_06_19_16_23.770,3.863,32.8,0,0.76,0,0,0,0, ,0,0,0,0,0, ,986.9,-1.3,78.1,-0.8,0.3,-3.8,25,987.258,-7.71324,89.5504,-0.51537,-1.63497,-2.75276,
2026_07_06_19_16_23.771,3.863,32.8,0,0.76,0,0,0,0, ,0,0,0,0,0, ,991.6,-0.1,78.7,-0.9,-3.8,-4.2,25,987.379,-7.28587,88.8709,-0.535762,-1.64198,-2.82876,
2026_07_06_19_16_23.806,3.863,32.9,0,0.764,0,0,0,0, ,0,0,0,0,0, ,1004.7,-2.4,74.9,-1.5,-3.8,-3.5,25,988.036,-6.91806,88.1353,-0.576239,-1.77349,-2.891,
2026_07_06_19_16_23.814,3.863,32.9,0,0.76,0,0,0,0, ,0,0,0,0,0, ,1006.1,-5.1,72,-0.2,-3.8,-2.4,25,989.094,-6.72501,87.2404,-0.592921,-1.89698,-2.89459,
2026_07_06_19_16_23.848,3.863,32.9,0,0.759,0,0,0,0, ,0,0,0,0,0, ,995.7,3.4,67.1,1.8,-6.9,-1.7,25,989.813,-6.367,86.1624,-0.50804,-2.10739,-2.84312,
2026_07_06_19_16_23.855,3.863,32.8,0,0.762,0,0,0,0, ,0,0,0,0,0, ,964.8,21.8,65.5,8.3,-8.6,-4.9,25,989.231,-5.2112,84.9521,-0.169347,-2.45124,-2.87097,
2026_07_06_19_16_23.888,3.863,32.8,0,0.76,0,0,0,0, ,0,0,0,0,0, ,950.6,35.1,70.8,9.3,-3.8,-16.4,25,987.309,-3.15997,83.9282,0.377223,-2.67968,-3.345,
2026_07_06_19_16_23.889,3.863,32.9,0,0.76,0,0,0,0, ,0,0,0,0,0, ,967.4,54.6,76.6,6.6,-5,-21,25,985.584,-0.234361,83.3049,0.838689,-2.78451,-4.2807,
2026_07_06_19_16_23.925,3.863,32.8,0,0.762,0,0,0,0, ,0,0,0,0,0, ,1032.2,35.1,88.7,4.3,-10.9,-23.1,25,986.45,2.51297,83.265,1.11969,-3.09928,-5.36351,
2026_07_06_19_16_23.933,3.863,32.9,0,0.761,0,0,0,0, ,0,0,0,0,0, ,1041.3,48,71.6,1.3,-8.5,-24.1,25,989.516,4.89179,83.0752,1.22208,-3.50152,-6.4748,
2026_07_06_19_16_23.968,3.863,32.9,0,0.763,0,0,0,0, ,0,0,0,0,0, ,1056.6,69.7,62.2,-10.2,1.9,-18.4,25,993.137,8.17986,82.0895,0.876442,-3.48924,-7.37516,
2026_07_06_19_16_23.976,3.863,32.8,0,0.762,0,0,0,0, ,0,0,0,0,0, ,1023.8,31,56.7,-13.1,7.6,-19.9,25,996.005,10.7496,80.7099,0.113112,-2.98716,-8.09269,
2026_07_06_19_16_24.011,3.863,32.9,0,0.762,0,0,0,0, ,0,0,0,0,0, ,970.7,52.2,59.8,-1.8,11.2,-23.3,25,996.081,12.6296,79.3413,-0.347765,-2.23232,-8.91579,
2026_07_06_19_16_24.011,3.863,32.8,0,0.76,0,0,0,0, ,0,0,0,0,0, ,983.3,52.2,86,-0.9,18.1,-28.1,25,994.918,15.0409,78.9487,-0.408839,-1.20355,-9.93858,
2026_07_06_19_16_24.044,3.863,32.8,0,0.762,0,0,0,0, ,0,0,0,0,0, ,1003.1,44.3,107.6,3.1,18.7,-34,25,994.814,17.0646,80.0366,-0.316894,-0.00895785,-11.2251,
2026_07_06_19_16_24.051,3.863,32.8,0,0.763,0,0,0,0, ,0,0,0,0,0, ,1017.9,64.2,122,1.1,5.4,-37.1,25,995.769,19.3305,82.155,-0.169615,0.725885,-12.7074,
2026_07_06_19_16_24.086,3.863,32.9,0,0.759,0,0,0,0, ,0,0,0,0,0, ,989.3,93.7,137.9,-1.5,-4.3,-30,25,996.247,22.9636,85.0675,-0.171466,0.715167,-13.9775,
2026_07_06_19_16_24.095,3.863,32.8,0,0.759,0,0,0,0, ,0,0,0,0,0, ,989.8,109.2,117.4,-8,5.1,-30.4,25,995.839,27.7464,87.6623,-0.450471,0.695961,-14.966,
2026_07_06_19_16_24.129,3.863,32.8,0,0.762,0,0,0,0, ,0,0,0,0,0, ,923.4,104.7,60,-15.4,19.2,-39.4,25,993.447,32.5728,87.7256,-1.13599,1.39394,-16.1807,
2026_07_06_19_16_24.131,3.863,32.9,0,0.76,0,0,0,0, ,0,0,0,0,0, ,939.5,89.3,132.6,-13,36.3,-48.5,25,989.669,36.4989,88.2481,-1.93208,3.00001,-17.8729,
2026_07_06_19_16_24.165,3.863,32.8,0,0.762,0,0,0,0, ,0,0,0,0,0, ,903.8,120.8,106.8,-5.4,26.1,-46.9,25,985.525,40.6762,90.1647,-2.37497,4.71845,-19.6905,
2026_07_06_19_16_24.172,3.863,32.8,0,0.761,0,0,0,0, ,0,0,0,0,0, ,904.9,168.2,58.3,-6.8,12.8,-62.1,25,980.578,47.003,89.7007,-2.60196,5.61615,-21.8117,
2026_07_06_19_16_24.207,3.863,32.8,0,0.761,0,0,0,0, ,0,0,0,0,0, ,910.4,148.9,56.8,-9.7,1.4,-69.9,25,976.134,53.8004,87.7415,-2.94614,5.70658,-24.5044,
2026_07_06_19_16_24.207,3.863,32.7,0,0.761,0,0,0,0, ,0,0,0,0,0, ,921.6,154,73.7,2.8,-20.7,-69,25,972.47,59.7509,86.3709,-2.97684,4.77078,-27.2433,
2026_07_06_19_16_24.241,3.863,32.9,0,0.761,0,0,0,0, ,0,0,0,0,0, ,1012.3,269.6,39.9,-4.5,-21.4,-64.4,25,972.133,69.0164,84.5689,-2.84724,3.19733,-29.6477,
2026_07_06_19_16_24.249,3.863,32.8,0,0.761,0,0,0,0, ,0,0,0,0,0, ,1075.4,202.6,90.3,-2.4,-18,-80.3,25,976.503,79.198,83.3825,-2.88397,1.80202,-32.2499,
2026_07_06_19_16_24.293,3.863,32.9,0,0.76,0,0,0,0, ,0,0,0,0,0, ,904.1,259.8,83.6,-3.9,-19.8,-89.5,25,977.311,88.4607,83.5999,-2.90018,0.540495,-35.4582,
2026_07_06_19_16_24.293,3.863,32.8,0,0.761,0,0,0,0, ,0,0,0,0,0, ,947.8,250.2,87.6,-16.3,-25,-92.7,25,974.181,98.6091,83.7218,-3.33892,-0.857441,-38.8489,
2026_07_06_19_16_24.328,3.863,32.8,0,0.761,0,0,0,0, ,0,0,0,0,0, ,958.6,275.3,127.5,5.3,-16.8,-103,25,972.902,108.611,85.1738,-3.47061,-2.07878,-42.4443,
2026_07_06_19_16_24.329,3.863,32.8,0,0.761,0,0,0,0, ,0,0,0,0,0, ,920.8,341.7,100.2,8.5,-37.4,-99.4,25,970.879,120.792,86.9213,-2.83865,-3.60351,-46.0247,
2026_07_06_19_16_24.364,3.863,32.8,0,0.761,0,0,0,0, ,0,0,0,0,0, ,882,419.5,75.1,10.4,-51.1,-105,25,966.645,136.624,86.9657,-2.08981,-6.08041,-49.4479,
2026_07_06_19_16_24.365,3.863,32.8,0,0.761,0,0,0,0, ,0,0,0,0,0, ,907.1,437.7,58.3,9.9,-63.5,-108.5,25,962.252,154.416,85.7308,-1.34395,-9.2016,-52.9397,
2026_07_06_19_16_24.398,3.863,32.8,0,0.761,0,0,0,0, ,0,0,0,0,0, ,884.7,470.2,27,10.3,-58.5,-110.6,25,958.209,172.669,83.1055,-0.646582,-12.3581,-56.3894,
2026_07_06_19_16_24.405,3.863,32.8,0,0.761,0,0,0,0, ,0,0,0,0,0, ,798.7,485.5,31,23.5,-42.8,-112.7,25,951.109,191.266,79.8085,0.422663,-14.6915,-59.7569,
2026_07_06_19_16_24.441,3.863,32.9,0,0.763,0,0,0,0, ,0,0,0,0,0, ,705,555.7,26.1,27,-43.1,-119.2,25,938.966,211.335,76.6849,1.93558,-16.4135,-63.1811,
2026_07_06_19_16_24.449,3.863,32.8,0,0.761,0,0,0,0, ,0,0,0,0,0, ,703.8,603.8,-21.1,19,-47.6,-131.4,25,924.673,233.785,72.1643,3.21919,-18.1768,-66.9665,
2026_07_06_19_16_24.483,3.863,32.8,0,0.761,0,0,0,0, ,0,0,0,0,0, ,710.9,611.2,-47.4,2.9,-45.5,-140.1,25,911.429,256.559,65.6796,3.69029,-19.9058,-71.158,
2026_07_06_19_16_24.483,3.863,32.8,0,0.761,0,0,0,0, ,0,0,0,0,0, ,681.2,637.3,-69.4,-4.9,-49,-143.5,25,898.305,278.965,58.1185,3.40447,-21.5721,-75.4627,
2026_07_06_19_16_24.518,3.863,32.7,0,0.761,0,0,0,0, ,0,0,0,0,0, ,625,701.9,-131.3,-10.3,-50.9,-146.2,25,883.363,302.769,48.4619,2.73389,-23.3014,-79.691,
2026_07_06_19_16_24.526,3.863,32.8,0,0.763,0,0,0,0, ,0,0,0,0,0, ,609.3,747,-146.9,-12.9,-35.4,-146.9,25,867.14,328.465,37.0323,1.86042,-24.5109,-83.7653,
2026_07_06_19_16_24.561,3.863,32.9,0,0.761,0,0,0,0, ,0,0,0,0,0, ,574.7,787.5,-103.6,-22,-25.8,-147.2,25,850.374,355.204,27.1432,0.683689,-24.8819,-87.6217,
2026_07_06_19_16_24.568,3.863,32.8,0,0.76,0,0,0,0, ,0,0,0,0,0, ,580.3,847.6,-111.8,-29.8,-30.5,-143.3,25,833.746,383.378,18.9262,-0.936255,-25.0811,-91.1334,
2026_07_06_19_16_24.604,3.863,32.9,0,0.76,0,0,0,0, ,0,0,0,0,0, ,627.9,850.2,-150.6,-28.7,-31.4,-139.1,25,819.752,411.746,9.77791,-2.66162,-25.4387,-94.1843,
2026_07_06_19_16_24.605,3.863,32.8,0,0.76,0,0,0,0, ,0,0,0,0,0, ,600,834.5,-147.8,-15.7,-21.8,-134.1,25,807.211,437.986,0.090197,-3.85224,-25.5095,-96.769,
2026_07_06_19_16_24.641,3.863,32.9,0,0.76,0,0,0,0, ,0,0,0,0,0, ,537.2,897.3,-160.8,-8.9,-22.2,-121.3,25,792.67,464.062,-9.31795,-4.36703,-25.2956,-98.6539,
2026_07_06_19_16_24.641,3.863,32.8,0,0.761,0,0,0,0, ,0,0,0,0,0, ,496.7,940.9,-155.8,-3.9,-19,-108.8,25,775.869,491.791,-18.3965,-4.49091,-25.0095,-99.653,
2026_07_06_19_16_24.676,3.863,32.8,0,0.764,0,0,0,0, ,0,0,0,0,0, ,494,927,-78.7,8,-3.9,-101.4,25,758.774,518.735,-24.4204,-4.09233,-24.1832,-99.9849,
2026_07_06_19_16_24.683,3.863,32.7,0,0.761,0,0,0,0, ,0,0,0,0,0, ,455.4,875.8,-36.1,14,7.2,-96.4,25,741.464,542.053,-26.4301,-3.17264,-22.609,-99.9188,
2026_07_06_19_16_24.719,3.863,32.9,0,0.76,0,0,0,0, ,0,0,0,0,0, ,380.6,883.3,-22.5,13.6,8.1,-82.7,25,721.753,562.62,-26.605,-2.13837,-20.7651,-99.287,
2026_07_06_19_16_24.727,3.863,32.7,0,0.761,0,0,0,0, ,0,0,0,0,0, ,301.6,993.4,-56.1,7,-2.2,-72.6,25,698.557,585.516,-27.3786,-1.3804,-19.32,-97.9685,
2026_07_06_19_16_24.763,3.863,32.9,0,0.763,0,0,0,0, ,0,0,0,0,0, ,244.7,1014,-23.8,3.7,-3,-81.3,25,672.633,610.999,-28.1447,-0.97027,-18.3011,-96.6877,
2026_07_06_19_16_24.763,3.863,32.9,0,0.763,0,0,0,0, ,0,0,0,0,0, ,232.5,954.2,-8.1,3.1,6.1,-89.4,25,646.184,633.735,-27.4016,-0.703957,-17.0914,-95.9968,
2026_07_06_19_16_24.800,3.863,32.8,0,0.761,0,0,0,0, ,0,0,0,0,0, ,231.4,933.4,-25.6,2,9.2,-88.5,25,620.942,652.629,-26.7586,-0.505669,-15.5837,-95.5674,
2026_07_06_19_16_24.801,3.863,32.8,0,0.763,0,0,0,0, ,0,0,0,0,0, ,230.4,970.3,-66,1.2,1.5,-82.8,25,597.174,670.863,-27.9189,-0.377355,-14.3081,-94.963,
2026_07_06_19_16_24.836,3.863,32.8,0,0.761,0,0,0,0, ,0,0,0,0,0, ,275.1,994.1,-101.5,0.6,-8.7,-77.4,25,576.186,689.835,-31.3211,-0.299516,-13.6556,-94.0573,
2026_07_06_19_16_24.843,3.863,32.8,0,0.761,0,0,0,0, ,0,0,0,0,0, ,294.5,947.6,-109.3,2.9,-7.3,-67.5,25,558.429,706.959,-35.8353,-0.174624,-13.3109,-92.7406,
2026_07_06_19_16_24.879,3.863,32.8,0,0.764,0,0,0,0, ,0,0,0,0,0, ,249.5,897,-109.7,10.7,1.7,-58.8,25,540.975,720.082,-40.3242,0.250392,-12.6704,-90.9374,
2026_07_06_19_16_24.880,3.863,32.9,0,0.761,0,0,0,0, ,0,0,0,0,0, ,133.6,953.7,-139.7,23.1,3.9,-54.8,25,519.682,732.59,-45.4659,1.26498,-11.7277,-88.8572,
2026_07_06_19_16_24.914,3.863,32.7,0,0.763,0,0,0,0, ,0,0,0,0,0, ,53.3,1023.8,-149.4,32.1,-2.7,-62.5,25,493.708,748.2,-51.5038,2.86977,-10.9765,-87.0164,
2026_07_06_19_16_24.921,3.863,32.9,0,0.761,0,0,0,0, ,0,0,0,0,0, ,83,1003.5,-95,32.5,-7.6,-69.7,25,467.776,764.376,-55.8119,4.66317,-10.6214,-85.7418,
2026_07_06_19_16_24.956,3.863,32.9,0,0.761,0,0,0,0, ,0,0,0,0,0, ,94.8,944.8,-61,24,-9,-66,25,444.688,777.159,-57.164,6.10049,-10.48,-84.6516,
2026_07_06_19_16_24.964,3.863,32.8,0,0.761,0,0,0,0, ,0,0,0,0,0, ,115.8,931.2,-72,18.8,-10,-59.8,25,424.007,786.96,-57.7329,7.03281,-10.4202,-83.3261,
2026_07_06_19_16_25.000,3.863,32.8,0,0.76,0,0,0,0, ,0,0,0,0,0, ,62.9,1007.6,-114,6,-12.2,-55.7,25,403.614,798.078,-59.882,7.35987,-10.4617,-81.7675,
2026_07_06_19_16_25.000,3.863,32.9,0,0.761,0,0,0,0, ,0,0,0,0,0, ,44.9,1024.1,-94.4,-0.3,-5.5,-63.4,25,382.303,811.348,-62.5826,7.08505,-10.3634,-80.4136,
2026_07_06_19_16_25.035,3.863,32.7,0,0.761,0,0,0,0, ,0,0,0,0,0, ,50.2,979.2,-82.6,0.5,0.8,-64.8,25,361.904,822.945,-64.1619,6.6594,-9.87513,-79.4195,
2026_07_06_19_16_25.043,3.863,32.8,0,0.761,0,0,0,0, ,0,0,0,0,0, ,5.9,937,-53.1,-33.6,5.3,-74.1,25,341.56,831.181,-64.3867,5.24508,-9.08751,-78.812,
2026_07_06_19_16_25.080,3.863,32.8,0,0.763,0,0,0,0, ,0,0,0,0,0, ,-10.4,1005.4,-172.9,-34.9,4.9,-54.5,25,320.609,839.713,-67.3491,2.83835,-8.22295,-77.9277,
2026_07_06_19_16_25.080,3.863,32.8,0,0.76,0,0,0,0, ,0,0,0,0,0, ,14.5,983.8,-154.5,-18.4,-7.3,-23.4,25,301.197,849.152,-73.2204,1.0414,-7.79499,-75.5525,
2026_07_06_19_16_25.117,3.863,32.8,0,0.759,0,0,0,0, ,0,0,0,0,0, ,18,955.4,-144.5,-20.4,4.9,-32.7,25,283.833,856.491,-77.8687,-0.204248,-7.39311,-72.6578,
2026_07_06_19_16_25.117,3.863,32.8,0,0.761,0,0,0,0, ,0,0,0,0,0, ,-70.5,960.6,-153.3,-9.8,-0.2,-35.3,25,264.937,862.677,-82.1972,-1.11196,-6.79939,-70.3021,
2026_07_06_19_16_25.153,3.863,32.9,0,0.763,0,0,0,0, ,0,0,0,0,0, ,-65.5,976,-177.3,-0.4,-7.8,-21.6,25,244.649,869.113,-87.2613,-1.35498,-6.6288,-67.7517,
2026_07_06_19_16_25.161,3.863,32.8,0,0.761,0,0,0,0, ,0,0,0,0,0, ,-139.4,973.1,-137.6,9.8,-4.5,-20.8,25,223.497,875.538,-91.5384,-0.986004,-6.59962,-64.915,
2026_07_06_19_16_25.196,3.863,32.8,0,0.76,0,0,0,0, ,0,0,0,0,0, ,-77,925,-126.3,14.1,-6.7,-9.4,25,203.285,880.018,-94.001,-0.197716,-6.53871,-61.8794,
2026_07_06_19_16_25.196,3.863,32.9,0,0.761,0,0,0,0, ,0,0,0,0,0, ,-136.4,974.9,-98.2,15.8,-13.5,-8.3,25,184.395,884.28,-95.113,0.725348,-6.75573,-58.6479,
2026_07_06_19_16_25.230,3.863,32.8,0,0.76,0,0,0,0, ,0,0,0,0,0, ,-136.3,1024.4,-101.8,14.8,-16.7,-13.4,25,164.849,891.31,-95.4108,1.61349,-7.26421,-55.7352,
2026_07_06_19_16_25.238,3.863,32.8,0,0.761,0,0,0,0, ,0,0,0,0,0, ,-91.7,1025,-114.1,11.4,-13.3,-15.1,25,147.857,899.438,-96.1749,2.31345,-7.73561,-53.2072,
2026_07_06_19_16_25.274,3.863,32.8,0,0.761,0,0,0,0, ,0,0,0,0,0, ,-68.4,1001.3,-105.2,8.3,-10.7,-11.1,25,133.969,906.368,-96.9961,2.77271,-7.99547,-50.7632,
2026_07_06_19_16_25.274,3.863,32.7,0,0.761,0,0,0,0, ,0,0,0,0,0, ,-82,1005.8,-98.1,3.9,-10.2,-6.2,25,121.223,912.29,-97.2797,2.97547,-8.14504,-48.1969,
2026_07_06_19_16_25.313,3.863,32.9,0,0.761,0,0,0,0, ,0,0,0,0,0, ,-115.1,1009,-115.8,-0.3,-9.4,-6.2,25,107.83,918.086,-97.869,2.90384,-8.24589,-45.6377,
2026_07_06_19_16_25.320,3.863,32.8,0,0.76,0,0,0,0, ,0,0,0,0,0, ,-118.2,994.1,-148,-1.4,-8.5,-9.2,25,94.1511,923.172,-99.9427,2.67509,-8.2888,-43.3259,
2026_07_06_19_16_25.357,3.863,32.8,0,0.76,0,0,0,0, ,0,0,0,0,0, ,-120.4,972.5,-153.6,1.1,-8.4,-7.6,25,81.1439,926.836,-103.042,2.50293,-8.29862,-41.1976,
