UTC_Time,Vin,TC1,TC2,Rh1,Vh1,Ah1,Acp1,Dty1,Err1,Rh2,Vh2,Ah2,Acp2,Dty2,Err2,Accel_x,Accel_y,Accel_z,gyro_x,gyro_y,gyro_z,Temp_c,Accel_x_h,Accel_y_h,Accel_z_h,gyro_x_h,gyro_y_h,gyro_z_h,
2026_07_06_17_50_23.076,3.868,41.5,0,0.767,0,0,0,0, ,0,0,0,0,0, ,-316,-305.4,-911.6,-5.8,5.7,2.4,25,-316,-305.4,-911.6,-5.8,5.7,2.4,
2026_07_06_17_50_23.096,3.868,41.5,0,0.766,0,0,0,0, ,0,0,0,0,0, ,-338.6,-306.1,-908.4,-3.4,6.6,4.6,25,-316.689,-305.421,-911.502,-5.72688,5.72742,2.46703,
2026_07_06_17_50_23.116,3.868,41.4,0,0.767,0,0,0,0, ,0,0,0,0,0, ,-355.4,-301.2,-892.2,-0.5,3.3,2.8,25,-318.536,-305.313,-910.82,-5.49672,5.68005,2.54217,
2026_07_06_17_50_23.137,3.868,41.4,0,0.766,0,0,0,0, ,0,0,0,0,0, ,-342.7,-288.2,-892.3,-1,1.3,1.9,25,-320.395,-304.667,-909.688,-5.20747,5.47408,2.53046,
2026_07_06_17_50_23.155,3.868,41.3,0,0.768,0,0,0,0, ,0,0,0,0,0, ,-336.6,-284.9,-893.5,-2.8,3.8,2.4,25,-321.569,-303.563,-908.665,-5.00592,5.29589,2.50727,
2026_07_06_17_50_23.175,3.868,41.3,0,0.768,0,0,0,0, ,0,0,0,0,0, ,-330.4,-302,-918.4,-1.7,8,2.4,25,-322.296,-302.946,-908.5,-4.83798,5.3327,2.50073,
2026_07_06_17_50_23.194,3.868,41.3,0,0.767,0,0,0,0, ,0,0,0,0,0, ,-412.8,-312.2,-936.7,0.4,12.3,4.2,25,-325.3,-303.2,-909.661,-4.58278,5.62626,2.54944,
2026_07_06_17_50_23.214,3.868,41.3,0,0.767,0,0,0,0, ,0,0,0,0,0, ,-212.7,-329.7,-876.5,12.8,23.2,19.4,25,-324.535,-304.281,-909.474,-3.90133,6.36505,3.11315,
2026_07_06_17_50_23.234,3.868,41.3,0,0.767,0,0,0,0, ,0,0,0,0,0, ,-362.7,-264.2,-849.9,8.8,11.7,0.7,25,-322.291,-303.834,-906.654,-3.00546,7.04054,3.53586,
2026_07_06_17_50_23.254,3.868,41.4,0,0.767,0,0,0,0, ,0,0,0,0,0, ,-363.4,-277.7,-911,-6.8,10.2,-0.7,25,-324.774,-301.831,-905.057,-2.76138,7.27877,3.32039,
2026_07_06_17_50_23.274,3.868,41.2,0,0.768,0,0,0,0, ,0,0,0,0,0, ,-279.6,-285.6,-869.9,4.5,16.8,10.1,25,-324.575,-300.601,-904.167,-2.66319,7.65788,3.40446,
2026_07_06_17_50_23.294,3.868,41.4,0,0.766,0,0,0,0, ,0,0,0,0,0, ,-319.2,-319.2,-853.3,6.5,6.1,1.4,25,-323.041,-300.71,-901.573,-2.16574,7.88896,3.54739,
2026_07_06_17_50_23.314,3.868,41.3,0,0.767,0,0,0,0, ,0,0,0,0,0, ,-319.4,-298.5,-869.7,-2,-1.3,-2.3,25,-322.813,-301.206,-899.131,-1.89666,7.55447,3.3038,
2026_07_06_17_50_23.334,3.868,41.3,0,0.765,0,0,0,0, ,0,0,0,0,0, ,-332.2,-279.1,-868.4,-2.4,-5,-3.8,25,-322.995,-300.45,-897.298,-1.91514,6.90217,2.91662,
2026_07_06_17_50_23.353,3.868,41.2,0,0.767,0,0,0,0, ,0,0,0,0,0, ,-316.8,-263.7,-891.8,-6.5,-6.6,-2.2,25,-323.087,-298.68,-896.25,-2.06961,6.12813,2.55607,
2026_07_06_17_50_23.373,3.868,41.3,0,0.767,0,0,0,0, ,0,0,0,0,0, ,-302.6,-278.6,-920.4,-3,-3.4,0.8,25,-322.271,-297.003,-896.851,-2.23295,5.45001,2.35766,
2026_07_06_17_50_23.393,3.868,41.3,0,0.767,0,0,0,0, ,0,0,0,0,0, ,-298.5,-289.4,-926.6,-3.6,1.6,0.7,25,-320.947,-296.21,-898.474,-2.29797,5.06306,2.25969,
2026_07_06_17_50_23.413,3.868,41.3,0,0.768,0,0,0,0, ,0,0,0,0,0, ,-322.9,-285.8,-923.7,-3.1,3.8,1.2,25,-320.323,-295.686,-900.1,-2.36208,4.91906,2.17988,
2026_07_06_17_50_23.433,3.868,41.3,0,0.767,0,0,0,0, ,0,0,0,0,0, ,-344.3,-285.6,-914.3,-3.4,2,-0.2,25,-321.132,-295.077,-901.252,-2.41619,4.79602,2.07751,
2026_07_06_17_50_23.452,3.868,41.3,0,0.767,0,0,0,0, ,0,0,0,0,0, ,-340.6,-294,-906.3,-3.8,-1.1,-3.5,25,-322.431,-294.755,-901.803,-2.48833,4.53119,1.83818,
2026_07_06_17_50_23.473,3.868,41.3,0,0.767,0,0,0,0, ,0,0,0,0,0, ,-327.7,-277.9,-906,-2.7,-3.7,-1.7,25,-323.145,-294.219,-902.068,-2.53474,4.10882,1.56773,
2026_07_06_17_50_23.492,3.868,41.3,0,0.767,0,0,0,0, ,0,0,0,0,0, ,-328.1,-275.1,-902.5,-2.5,-3,1.3,25,-323.435,-293.139,-902.201,-2.53872,3.6543,1.46001,
2026_07_06_17_50_23.512,3.868,41.4,0,0.768,0,0,0,0, ,0,0,0,0,0, ,-333.2,-285.4,-913.4,-3,-0.7,-1.2,25,-323.874,-292.354,-902.551,-2.55159,3.31888,1.37409,
2026_07_06_17_50_23.532,3.868,41.2,0,0.767,0,0,0,0, ,0,0,0,0,0, ,-325,-288,-910.8,-1.6,1.3,-1.4,25,-324.193,-292.009,-903.133,-2.53626,3.13492,1.21113,
2026_07_06_17_50_23.551,3.868,41.1,0,0.767,0,0,0,0, ,0,0,0,0,0, ,-323.8,-287.7,-900.1,-1,1.1,-1.4,25,-324.206,-291.756,-903.274,-2.46093,3.01701,1.05202,
2026_07_06_17_50_23.571,3.868,41.2,0,0.767,0,0,0,0, ,0,0,0,0,0, ,-335,-266.7,-901.7,-2.3,0,-1.9,25,-324.522,-290.869,-903.13,-2.41151,2.86667,0.887364,
2026_07_06_17_50_23.591,3.868,41.3,0,0.767,0,0,0,0, ,0,0,0,0,0, ,-326.1,-267.2,-906.7,-6,-1.7,-2.2,25,-324.889,-289.411,-903.195,-2.51745,2.64019,0.708368,
2026_07_06_17_50_23.611,3.868,41.3,0,0.767,0,0,0,0, ,0,0,0,0,0, ,-326.4,-279.7,-909,-7.3,-1.4,-2.4,25,-324.972,-288.439,-903.479,-2.76928,2.38485,0.525046,
2026_07_06_17_50_23.630,3.868,41.2,0,0.765,0,0,0,0, ,0,0,0,0,0, ,-323.8,-281,-909.7,-5.6,-2.1,-2.7,25,-324.98,-287.946,-903.836,-2.99357,2.13288,0.33766,
2026_07_06_17_50_23.650,3.868,41.2,0,0.766,0,0,0,0, ,0,0,0,0,0, ,-330.3,-273.9,-912.8,-5.2,-5.3,-3.2,25,-325.106,-287.306,-904.288,-3.14021,1.77744,0.137318,
2026_07_06_17_50_23.671,3.868,41.2,0,0.767,0,0,0,0, ,0,0,0,0,0, ,-320.3,-270.7,-914.9,-3.4,-7.2,-2.9,25,-325.118,-286.392,-904.871,-3.21089,1.28827,-0.0569088,
2026_07_06_17_50_23.690,3.868,41.4,0,0.767,0,0,0,0, ,0,0,0,0,0, ,-305.2,-262,-916.6,0.4,-4.8,0.6,25,-324.364,-285.17,-905.534,-3.10663,0.84414,-0.123519,
2026_07_06_17_50_23.710,3.868,41.2,0,0.766,0,0,0,0, ,0,0,0,0,0, ,-303.3,-265.6,-919.4,-1.2,-2.7,1.1,25,-323.139,-283.868,-906.293,-2.94169,0.564184,-0.0641952,
2026_07_06_17_50_23.730,3.868,41.3,0,0.767,0,0,0,0, ,0,0,0,0,0, ,-320.5,-274,-913.8,-1,0.9,1.3,25,-322.454,-283.011,-906.921,-2.82947,0.47496,0.0128417,
2026_07_06_17_50_23.750,3.868,41.3,0,0.769,0,0,0,0, ,0,0,0,0,0, ,-338.8,-282.9,-913,-0.4,0.4,0.5,25,-322.892,-282.733,-907.316,-2.6997,0.485627,0.0669029,
2026_07_06_17_50_23.769,3.868,41.4,0,0.766,0,0,0,0, ,0,0,0,0,0, ,-341.6,-274,-910.8,-0.1,-2.3,0.2,25,-323.947,-282.472,-907.596,-2.55042,0.398143,0.0841541,
2026_07_06_17_50_23.789,3.868,41.3,0,0.767,0,0,0,0, ,0,0,0,0,0, ,-330.8,-268.3,-899,-2.1,-2.9,-1,25,-324.694,-281.782,-907.431,-2.46204,0.215444,0.054651,
2026_07_06_17_50_23.809,3.868,41.2,0,0.769,0,0,0,0, ,0,0,0,0,0, ,-325.8,-278.5,-904.7,-1.1,-2.6,0.5,25,-324.913,-281.271,-907.091,-2.40951,0.0347374,0.0360863,
2026_07_06_17_50_23.829,3.868,41.4,0,0.767,0,0,0,0, ,0,0,0,0,0, ,-322.9,-274,-910.2,-0.6,-0.8,-0.1,25,-324.879,-280.965,-907.113,-2.31448,-0.0709732,0.0460748,
2026_07_06_17_50_23.849,3.868,41.2,0,0.767,0,0,0,0, ,0,0,0,0,0, ,-323.7,-268.7,-903.9,0,1,-0.9,25,-324.783,-280.379,-907.109,-2.19172,-0.0605545,0.0127983,
2026_07_06_17_50_23.870,3.868,41.3,0,0.769,0,0,0,0, ,0,0,0,0,0, ,-329.5,-254.6,-890.8,-2.3,-0.6,-1.6,25,-324.894,-279.238,-906.515,-2.12824,-0.044677,-0.0641534,
2026_07_06_17_50_23.889,3.868,41.2,0,0.767,0,0,0,0, ,0,0,0,0,0, ,-333.7,-259.8,-888.3,-4.4,-2.9,-1,25,-325.302,-277.895,-905.481,-2.20269,-0.148595,-0.139463,
2026_07_06_17_50_23.908,3.868,41.1,0,0.767,0,0,0,0, ,0,0,0,0,0, ,-327.1,-268.7,-905.6,-0.9,-3.8,1,25,-325.613,-277.064,-904.961,-2.22995,-0.343681,-0.130964,
2026_07_06_17_50_23.928,3.868,41.1,0,0.769,0,0,0,0, ,0,0,0,0,0, ,-324.7,-277.7,-916,0.2,-3.3,0.5,25,-325.63,-276.828,-905.317,-2.11539,-0.539066,-0.0772805,
2026_07_06_17_50_23.949,3.868,41.2,0,0.767,0,0,0,0, ,0,0,0,0,0, ,-329.7,-267.9,-910.1,-0.8,-2.7,0,25,-325.726,-276.583,-905.788,-2.00476,-0.689029,-0.0573369,
2026_07_06_17_50_23.969,3.868,41.2,0,0.766,0,0,0,0, ,0,0,0,0,0, ,-339.3,-260.3,-913.5,-1.2,-3,-0.4,25,-326.261,-275.822,-906.154,-1.94354,-0.820713,-0.0660304,
2026_07_06_17_50_23.987,3.868,41.1,0,0.769,0,0,0,0, ,0,0,0,0,0, ,-333,-268.5,-915.6,-0.2,-2.7,-0.4,25,-326.863,-275.126,-906.666,-1.86776,-0.944373,-0.0863817,
2026_07_06_17_50_24.009,3.868,41.2,0,0.767,0,0,0,0, ,0,0,0,0,0, ,-330.4,-277.5,-914.1,-1.7,-1,-0.5,25,-327.158,-274.996,-907.165,-1.81183,-0.999559,-0.10854,
2026_07_06_17_50_24.027,3.868,41.1,0,0.768,0,0,0,0, ,0,0,0,0,0, ,-333.8,-274,-907.8,-1.6,0,-0.2,25,-327.459,-275.042,-907.395,-1.80197,-0.969117,-0.123254,
2026_07_06_17_50_24.047,3.868,41.2,0,0.768,0,0,0,0, ,0,0,0,0,0, ,-345.9,-270.1,-907.8,0,0.1,-0.6,25,-328.214,-274.86,-907.42,-1.74091,-0.907015,-0.140118,
2026_07_06_17_50_24.068,3.868,41.2,0,0.768,0,0,0,0, ,0,0,0,0,0, ,-350.4,-261.5,-900.8,-1.3,-1.4,-1.6,25,-329.429,-274.308,-907.23,-1.67443,-0.891353,-0.198611,
2026_07_06_17_50_24.087,3.868,41.1,0,0.765,0,0,0,0, ,0,0,0,0,0, ,-341,-272.7,-899.9,-1.1,-2.5,-1.4,25,-330.421,-273.869,-906.811,-1.64552,-0.955864,-0.277914,
2026_07_06_17_50_24.106,3.868,41.1,0,0.766,0,0,0,0, ,0,0,0,0,0, ,-332.1,-281.9,-896.9,-0.8,-1.6,-1.2,25,-330.794,-274.078,-906.298,-1.60314,-1.02254,-0.340197,
2026_07_06_17_50_24.126,3.868,41.2,0,0.769,0,0,0,0, ,0,0,0,0,0, ,-331.7,-271.9,-902.4,-1.8,-0.5,-1.7,25,-330.862,-274.25,-905.893,-1.58467,-1.02421,-0.407826,
2026_07_06_17_50_24.151,3.868,41.2,0,0.767,0,0,0,0, ,0,0,0,0,0, ,-329.7,-248.6,-891.4,-3.5,-0.1,-1.7,25,-330.852,-273.397,-905.345,-1.64959,-0.98008,-0.486568,
2026_07_06_17_50_24.165,3.868,41.1,0,0.765,0,0,0,0, ,0,0,0,0,0, ,-343,-239.2,-893.6,-5.1,-1.3,-1.1,25,-331.187,-271.599,-904.562,-1.8111,-0.963013,-0.54223,
2026_07_06_17_50_24.185,3.868,41.1,0,0.768,0,0,0,0, ,0,0,0,0,0, ,-345.3,-267.4,-903.9,-3.7,-2.9,-1.1,25,-331.977,-270.484,-904.208,-1.96886,-1.0323,-0.576219,
2026_07_06_17_50_24.206,3.868,41.1,0,0.77,0,0,0,0, ,0,0,0,0,0, ,-340.9,-282.3,-923,-2,-4.2,-1.7,25,-332.655,-270.75,-904.771,-2.02255,-1.18572,-0.626418,
2026_07_06_17_50_24.225,3.868,41.1,0,0.766,0,0,0,0, ,0,0,0,0,0, ,-328.4,-269.7,-925.9,0,-3.3,-0.6,25,-332.776,-271.07,-905.97,-1.96024,-1.34198,-0.658324,
2026_07_06_17_50_24.245,3.868,41.1,0,0.768,0,0,0,0, ,0,0,0,0,0, ,-333.6,-252,-911.9,-1.1,-0.5,-1.3,25,-332.668,-270.447,-906.758,-1.8743,-1.37599,-0.676098,
2026_07_06_17_50_24.265,3.868,41.2,0,0.768,0,0,0,0, ,0,0,0,0,0, ,-347.5,-255.4,-902.7,-1.9,0.1,-1.1,25,-333.148,-269.427,-906.791,-1.85149,-1.30432,-0.708023,
2026_07_06_17_50_24.284,3.868,41.1,0,0.768,0,0,0,0, ,0,0,0,0,0, ,-346.6,-276.7,-900,-1.1,-1,-2,25,-333.995,-269.221,-906.46,-1.83008,-1.25226,-0.759331,
2026_07_06_17_50_24.303,3.868,41.2,0,0.768,0,0,0,0, ,0,0,0,0,0, ,-337.7,-272.8,-901.2,-0.1,-3.5,-1.7,25,-334.492,-269.558,-906.103,-1.75512,-1.31306,-0.825794,
2026_07_06_17_50_24.327,3.868,41.1,0,0.768,0,0,0,0, ,0,0,0,0,0, ,-331.4,-257.2,-906.2,-0.1,-3.9,-0.7,25,-334.496,-269.28,-905.956,-1.65426,-1.45852,-0.848597,
2026_07_06_17_50_24.344,3.868,41.1,0,0.769,0,0,0,0, ,0,0,0,0,0, ,-336.7,-251.4,-911.7,-0.8,-1.4,0.4,25,-334.469,-268.367,-906.139,-1.58087,-1.53112,-0.806026,
2026_07_06_17_50_24.364,3.868,41.3,0,0.768,0,0,0,0, ,0,0,0,0,0, ,-348.2,-274.9,-911.8,-2.2,0.3,-1.7,25,-334.955,-268.049,-906.481,-1.57595,-1.47134,-0.796519,
2026_07_06_17_50_24.384,3.868,41,0,0.766,0,0,0,0, ,0,0,0,0,0, ,-345.2,-271.6,-905.3,-2.1,-2,-2.1,25,-335.671,-268.366,-906.607,-1.61093,-1.43347,-0.863762,
2026_07_06_17_50_24.403,3.868,41.2,0,0.768,0,0,0,0, ,0,0,0,0,0, ,-345.9,-263.9,-906.8,-1,-4.1,-1.4,25,-336.273,-268.329,-906.573,-1.60721,-1.53198,-0.917767,
2026_07_06_17_50_24.424,3.868,41.1,0,0.766,0,0,0,0, ,0,0,0,0,0, ,-341.1,-263.9,-910.7,-0.7,-4.3,-1.6,25,-336.713,-268.059,-906.705,-1.56107,-1.69456,-0.953247,
2026_07_06_17_50_24.443,3.868,41,0,0.768,0,0,0,0, ,0,0,0,0,0, ,-333.8,-260.7,-915.8,-1.2,-2.5,-1,25,-336.758,-267.708,-907.104,-1.52383,-1.79849,-0.974377,
2026_07_06_17_50_24.463,3.868,41.1,0,0.766,0,0,0,0, ,0,0,0,0,0, ,-334.4,-268.1,-911.3,-2.2,1.1,-1.2,25,-336.596,-267.506,-907.497,-1.53457,-1.73155,-0.982032,
2026_07_06_17_50_24.483,3.868,41.2,0,0.768,0,0,0,0, ,0,0,0,0,0, ,-348.9,-271.1,-897.9,-1.9,0.8,-2.4,25,-336.904,-267.634,-907.321,-1.56598,-1.56814,-1.03188,
2026_07_06_17_50_24.509,3.868,41,0,0.768,0,0,0,0, ,0,0,0,0,0, ,-346.8,-258.9,-894.8,-1,-2.7,-1.4,25,-337.571,-267.473,-906.652,-1.55891,-1.53047,-1.08478,
2026_07_06_17_50_24.522,3.868,41.1,0,0.768,0,0,0,0, ,0,0,0,0,0, ,-338.5,-262.9,-902.3,-1.1,-3.3,-1.1,25,-337.881,-267.073,-906.158,-1.5279,-1.62002,-1.09485,
2026_07_06_17_50_24.543,3.868,41.1,0,0.768,0,0,0,0, ,0,0,0,0,0, ,-336,-274,-916.2,-0.5,-0.5,-1.1,25,-337.842,-267.157,-906.347,-1.48354,-1.63708,-1.09516,
2026_07_06_17_50_24.562,3.868,41.1,0,0.768,0,0,0,0, ,0,0,0,0,0, ,-341.9,-256.1,-905.7,-1,0,-1.1,25,-337.91,-267.028,-906.627,-1.43884,-1.55256,-1.09546,
2026_07_06_17_50_24.582,3.868,41.1,0,0.766,0,0,0,0, ,0,0,0,0,0, ,-340.3,-255.8,-900.7,-2.1,-0.4,-1.1,25,-338.104,-266.353,-906.418,-1.44562,-1.47014,-1.09573,
2026_07_06_17_50_24.602,3.868,41.1,0,0.768,0,0,0,0, ,0,0,0,0,0, ,-349.3,-268.7,-908.8,-2.1,-1.7,-0.9,25,-338.512,-266.103,-906.317,-1.48549,-1.44454,-1.0899,
2026_07_06_17_50_24.621,3.868,41.1,0,0.765,0,0,0,0, ,0,0,0,0,0, ,-345.9,-262.6,-907.8,-1.8,-1.8,-1.7,25,-339.066,-266.076,-906.438,-1.5138,-1.46315,-1.1027,
2026_07_06_17_50_24.640,3.868,41.1,0,0.768,0,0,0,0, ,0,0,0,0,0, ,-340.9,-263,-909.6,0.5,-1.3,-0.8,25,-339.33,-265.876,-906.575,-1.46116,-1.46844,-1.11168,
2026_07_06_17_50_24.662,3.868,41,0,0.768,0,0,0,0, ,0,0,0,0,0, ,-345.2,-254.3,-906.8,-0.8,-0.6,-1.2,25,-339.557,-265.436,-906.674,-1.38126,-1.43685,-1.10487,
2026_07_06_17_50_24.683,3.868,41,0,0.769,0,0,0,0, ,0,0,0,0,0, ,-344.9,-255.1,-895.7,-2.4,-0.6,-1.5,25,-339.891,-264.781,-906.344,-1.39459,-1.38585,-1.11981,
2026_07_06_17_50_24.700,3.868,41,0,0.766,0,0,0,0, ,0,0,0,0,0, ,-346.5,-261.3,-900.2,-0.8,-2.7,0,25,-340.245,-264.38,-905.832,-1.40711,-1.40195,-1.09727,
2026_07_06_17_50_24.721,3.868,41,0,0.768,0,0,0,0, ,0,0,0,0,0, ,-349.1,-258.9,-909.1,-0.3,-1.7,-1.4,25,-340.706,-264.12,-905.76,-1.35488,-1.45058,-1.07307,
2026_07_06_17_50_24.740,3.868,41.1,0,0.769,0,0,0,0, ,0,0,0,0,0, ,-353.7,-258.5,-909.6,-0.4,-1.5,-1.3,25,-341.357,-263.789,-905.979,-1.29364,-1.45969,-1.08994,
2026_07_06_17_50_24.760,3.868,41,0,0.769,0,0,0,0, ,0,0,0,0,0, ,-346,-266.2,-908.5,0,-1.9,-1,25,-341.875,-263.702,-906.166,-1.227,-1.47433,-1.0936,
2026_07_06_17_50_24.780,3.868,40.9,0,0.767,0,0,0,0, ,0,0,0,0,0, ,-350.8,-265.2,-906.9,1.5,-0.3,-1,25,-342.273,-263.823,-906.26,-1.10653,-1.45152,-1.0879,
2026_07_06_17_50_24.799,3.868,41,0,0.768,0,0,0,0, ,0,0,0,0,0, ,-357.2,-258.4,-902,-1.4,-0.4,-1.6,25,-342.987,-263.7,-906.149,-1.03605,-1.3844,-1.10082,
2026_07_06_17_50_24.819,3.868,41,0,0.768,0,0,0,0, ,0,0,0,0,0, ,-348,-262.8,-900.7,-1.6,-1,-2.1,25,-343.573,-263.511,-905.857,-1.06432,-1.34269,-1.14648,
2026_07_06_17_50_24.839,3.868,41.1,0,0.766,0,0,0,0, ,0,0,0,0,0, ,-342.4,-264.8,-903.1,0,0,-1.5,25,-343.672,-263.529,-905.616,-1.04822,-1.29134,-1.1863,
2026_07_06_17_50_24.859,3.868,41,0,0.767,0,0,0,0, ,0,0,0,0,0, ,-346.5,-260.8,-897.5,0,0,-1.9,25,-343.72,-263.484,-905.292,-0.98434,-1.21265,-1.2176,
2026_07_06_17_50_24.878,3.868,41,0,0.767,0,0,0,0, ,0,0,0,0,0, ,-349.3,-263,-902.4,-1.4,0.2,-2.2,25,-343.974,-263.388,-904.966,-0.967013,-1.13266,-1.26833,
2026_07_06_17_50_24.898,3.868,41,0,0.766,0,0,0,0, ,0,0,0,0,0, ,-342.1,-255.2,-895.6,-1.3,0.2,-2.1,25,-344.079,-263.127,-904.603,-0.990351,-1.05145,-1.32205,
2026_07_06_17_50_24.919,3.868,41.2,0,0.766,0,0,0,0, ,0,0,0,0,0, ,-327.1,-250.3,-888.7,-3,1.6,-2.1,25,-343.502,-262.494,-903.844,-1.06102,-0.932533,-1.36946,
2026_07_06_17_50_24.939,3.868,40.9,0,0.767,0,0,0,0, ,0,0,0,0,0, ,-327.8,-253,-893.1,-5.4,4.5,-1.4,25,-342.524,-261.833,-903.055,-1.2523,-0.689848,-1.39265,
2026_07_06_17_50_24.958,3.868,40.9,0,0.767,0,0,0,0, ,0,0,0,0,0, ,-328.4,-269.7,-910.4,-5,8.8,-1.4,25,-341.645,-261.804,-902.976,-1.49286,-0.242576,-1.3931,
2026_07_06_17_50_24.978,3.868,41.1,0,0.767,0,0,0,0, ,0,0,0,0,0, ,-320.3,-263.5,-919.1,-3.6,14.8,-1.1,25,-340.591,-262.096,-903.693,-1.66392,0.491269,-1.38438,
2026_07_06_17_50_24.998,3.868,41.1,0,0.767,0,0,0,0, ,0,0,0,0,0, ,-278.4,-277.3,-953.4,-11.4,25.6,-3,25,-338.078,-262.602,-905.677,-2.01956,1.69227,-1.42494,
2026_07_06_17_50_25.018,3.868,41,0,0.766,0,0,0,0, ,0,0,0,0,0, ,-244.3,-270.1,-984,-10.8,45.2,0.5,25,-333.402,-263.278,-909.518,-2.5729,3.74633,-1.41428,
2026_07_06_17_50_25.036,3.868,41.1,0,0.768,0,0,0,0, ,0,0,0,0,0, ,-203.7,-229.8,-984.1,-22.7,75.9,-5,25,-326.735,-262.466,-914.059,-3.43681,7.20781,-1.46521,
2026_07_06_17_50_25.057,3.868,41.1,0,0.768,0,0,0,0, ,0,0,0,0,0, ,-151.4,-238.6,-974.9,-37.3,121.7,-11.5,25,-317.644,-260.744,-918.047,-5.05551,12.7892,-1.87865,
2026_07_06_17_50_25.077,3.868,40.9,0,0.766,0,0,0,0, ,0,0,0,0,0, ,-170.8,-277.8,-1000.1,-48,163.4,-12.9,25,-308.105,-260.589,-922.279,-7.34642,20.6965,-2.50761,
2026_07_06_17_50_25.097,3.868,41,0,0.769,0,0,0,0, ,0,0,0,0,0, ,-230.5,-289.9,-976.1,-57.6,180.6,-19.1,25,-301.557,-262.006,-926.29,-10.1162,29.9166,-3.3298,
2026_07_06_17_50_25.117,3.868,41.1,0,0.768,0,0,0,0, ,0,0,0,0,0, ,-196.2,-251.5,-987,-51.8,172.1,-23.5,25,-296.182,-262.536,-929.658,-12.8331,38.8398,-4.42486,
2026_07_06_17_50_25.136,3.868,40.9,0,0.765,0,0,0,0, ,0,0,0,0,0, ,-65.5,-200.3,-1026.7,-38.7,163,-20.2,25,-286.107,-260.304,-934.362,-14.8085,46.6831,-5.48671,
2026_07_06_17_50_25.157,3.868,41.1,0,0.766,0,0,0,0, ,0,0,0,0,0, ,-29.2,-164.9,-1048.7,-33.2,166.4,-21.3,25,-271.558,-255.568,-940.659,-16.0968,53.8748,-6.41681,
2026_07_06_17_50_25.176,3.868,41,0,0.768,0,0,0,0, ,0,0,0,0,0, ,24.9,-145.7,-1035.2,-39.2,173.6,-30.8,25,-255.141,-249.458,-946.831,-17.3218,60.9512,-7.61321,
2026_07_06_17_50_25.196,3.868,41,0,0.767,0,0,0,0, ,0,0,0,0,0, ,107.9,-162.1,-1057.8,-37.7,177,-31.8,25,-235.547,-243.635,-952.905,-18.6093,67.9193,-9.05662,
2026_07_06_17_50_25.216,3.868,41,0,0.769,0,0,0,0, ,0,0,0,0,0, ,165.4,-180.7,-1037.2,-33,179.5,-33.7,25,-212.866,-239.233,-958.669,-19.6295,74.6426,-10.5004,
2026_07_06_17_50_25.235,3.868,41.1,0,0.766,0,0,0,0, ,0,0,0,0,0, ,211.3,-123.7,-998.5,-30.1,177,-37,25,-188.417,-233.93,-962.276,-20.3559,80.9561,-12.0147,
2026_07_06_17_50_25.256,3.868,41.1,0,0.767,0,0,0,0, ,0,0,0,0,0, ,295.6,-104,-968.2,-24.3,173.6,-36.7,25,-161.491,-226.612,-963.56,-20.7729,86.7052,-13.5281,
2026_07_06_17_50_25.275,3.868,41.1,0,0.769,0,0,0,0, ,0,0,0,0,0, ,354.2,-58.5,-931,-18.8,171.3,-40.6,25,-131.851,-217.754,-962.709,-20.8203,91.9303,-15.059,
2026_07_06_17_50_25.295,3.868,41,0,0.766,0,0,0,0, ,0,0,0,0,0, ,414.7,-44,-905.5,-22.9,165.8,-41.4,25,-100.389,-207.608,-960,-20.8221,96.5993,-16.6398,
2026_07_06_17_50_25.314,3.868,41,0,0.768,0,0,0,0, ,0,0,0,0,0, ,462.6,-29.6,-861.8,-25.3,163.9,-43.4,25,-67.5414,-197.199,-955.347,-21.0218,100.758,-18.2095,
2026_07_06_17_50_25.335,3.868,41,0,0.766,0,0,0,0, ,0,0,0,0,0, ,516.7,-38.3,-839.5,-27.5,160.3,-41.8,25,-33.5876,-187.251,-948.967,-21.3496,104.496,-19.6958,
2026_07_06_17_50_25.354,3.868,41,0,0.768,0,0,0,0, ,0,0,0,0,0, ,560.5,-7.4,-825.5,-29.6,161.9,-42.1,25,1.28009,-177.233,-941.87,-21.7884,107.946,-21.0519,
2026_07_06_17_50_25.374,3.868,40.9,0,0.766,0,0,0,0, ,0,0,0,0,0, ,625.2,-18.4,-810.7,-34.1,170.2,-42.7,25,37.3289,-167.219,-934.328,-22.4015,111.486,-22.3528,
2026_07_06_17_50_25.394,3.868,40.9,0,0.767,0,0,0,0, ,0,0,0,0,0, ,651.1,-12.6,-800.6,-37.7,178.8,-48.4,25,73.9414,-157.974,-926.487,-23.224,115.326,-23.7664,
2026_07_06_17_50_25.413,3.868,41,0,0.767,0,0,0,0, ,0,0,0,0,0, ,667.2,-11.1,-748.2,-46.3,182.2,-54.5,25,109.603,-149.069,-917.219,-24.3682,119.298,-25.4534,
2026_07_06_17_50_25.433,3.868,41.1,0,0.767,0,0,0,0, ,0,0,0,0,0, ,714.4,28.6,-680.4,-49.5,184,-56.1,25,145.019,-139.452,-904.853,-25.8022,123.186,-27.2722,
2026_07_06_17_50_25.454,3.868,41.1,0,0.766,0,0,0,0, ,0,0,0,0,0, ,739.6,80,-587.4,-49.9,184.4,-55,25,180.484,-127.645,-888.342,-27.2584,126.904,-28.9953,
2026_07_06_17_50_25.473,3.868,40.9,0,0.768,0,0,0,0, ,0,0,0,0,0, ,738.7,114.6,-505.7,-56,178.3,-57.1,25,214.527,-113.938,-867.514,-28.824,130.222,-30.644,
2026_07_06_17_50_25.493,3.868,40.9,0,0.769,0,0,0,0, ,0,0,0,0,0, ,759.6,117.5,-470.2,-55.5,153.3,-51.6,25,247.106,-99.923,-844.385,-30.4648,132.39,-32.0886,
2026_07_06_17_50_25.512,3.868,41,0,0.768,0,0,0,0, ,0,0,0,0,0, ,804.3,134.6,-438.3,-40.8,124.9,-37,25,279.698,-86.1528,-820.611,-31.5425,132.799,-32.8327,
2026_07_06_17_50_25.534,3.868,40.9,0,0.768,0,0,0,0, ,0,0,0,0,0, ,849.4,169.4,-390,-35.1,114.7,-31.9,25,313.04,-71.6403,-795.842,-31.933,132.006,-32.9313,
2026_07_06_17_50_25.552,3.868,40.9,0,0.768,0,0,0,0, ,0,0,0,0,0, ,883.9,200.8,-361,-50,125.3,-41.9,25,346.776,-55.9952,-770.227,-32.58,131.275,-33.1731,
2026_07_06_17_50_25.572,3.868,41.1,0,0.768,0,0,0,0, ,0,0,0,0,0, ,880.9,203.3,-336.5,-68.4,131,-49.5,25,379.415,-40.2706,-744.544,-34.2021,131.084,-33.9365,
2026_07_06_17_50_25.593,3.868,40.9,0,0.768,0,0,0,0, ,0,0,0,0,0, ,891.8,193.8,-308.4,-69.8,124,-45.7,25,410.307,-25.7175,-718.822,-36.3287,130.866,-34.7691,
2026_07_06_17_50_25.616,3.868,41,0,0.766,0,0,0,0, ,0,0,0,0,0, ,917.2,213.9,-271.3,-58.2,118,-37.3,25,440.422,-11.7282,-692.682,-38.0149,130.265,-35.1792,
2026_07_06_17_50_25.631,3.868,40.9,0,0.768,0,0,0,0, ,0,0,0,0,0, ,930.7,244.9,-220.9,-56.1,120.7,-35,25,469.887,2.96555,-665.468,-39.181,129.6,-35.2384,
2026_07_06_17_50_25.652,3.868,40.9,0,0.768,0,0,0,0, ,0,0,0,0,0, ,937.5,246.7,-193.7,-62.2,131,-42,25,498.175,17.7633,-637.549,-40.3978,129.371,-35.4372,
2026_07_06_17_50_25.671,3.868,40.9,0,0.766,0,0,0,0, ,0,0,0,0,0, ,943.4,263.4,-157.7,-62.8,136,-44,25,525.126,32.2229,-609.405,-41.7447,129.623,-35.898,
2026_07_06_17_50_25.691,3.868,41,0,0.766,0,0,0,0, ,0,0,0,0,0, ,909.3,253.5,-96.5,-60.7,139.3,-41.2,25,549.575,46.0086,-580.014,-42.9638,130.112,-36.3064,
2026_07_06_17_50_25.711,3.868,41,0,0.768,0,0,0,0, ,0,0,0,0,0, ,884.1,288.3,-20.1,-57.6,137.2,-46.9,25,570.728,59.713,-548.222,-43.9501,130.608,-36.7783,
2026_07_06_17_50_25.730,3.868,41,0,0.767,0,0,0,0, ,0,0,0,0,0, ,915.2,332.2,39.9,-52.9,125.7,-42.8,25,590.772,74.9801,-514.212,-44.6387,130.659,-37.2702,
2026_07_06_17_50_25.750,3.868,40.9,0,0.768,0,0,0,0, ,0,0,0,0,0, ,956,357.7,76.5,-48.8,116.1,-35.6,25,611.785,91.4314,-479.33,-45.0172,130.064,-37.3878,
2026_07_06_17_50_25.772,3.868,40.8,0,0.768,0,0,0,0, ,0,0,0,0,0, ,943.7,357.7,111.6,-51.2,123,-36.3,25,632.386,107.657,-444.39,-45.3208,129.424,-37.3001,
2026_07_06_17_50_25.790,3.868,40.9,0,0.766,0,0,0,0, ,0,0,0,0,0, ,880.3,331.2,160,-54.2,134.6,-40.9,25,649.425,122.087,-409.035,-45.7705,129.386,-37.3794,
2026_07_06_17_50_25.817,3.868,40.9,0,0.766,0,0,0,0, ,0,0,0,0,0, ,810.6,303.7,221.4,-45.3,133,-42.9,25,661.37,133.992,-372.488,-46.013,129.655,-37.6548,
2026_07_06_17_50_25.830,3.868,40.9,0,0.766,0,0,0,0, ,0,0,0,0,0, ,811.6,341.5,271.9,-24.9,111.4,-37.8,25,670.494,145.485,-334.76,-45.348,129.2,-37.8191,
2026_07_06_17_50_25.850,3.868,40.9,0,0.766,0,0,0,0, ,0,0,0,0,0, ,853.7,381.2,294.6,-18.9,102.7,-32.1,25,680.376,158.639,-297.1,-43.9191,127.851,-37.6442,
2026_07_06_17_50_25.870,3.868,41,0,0.766,0,0,0,0, ,0,0,0,0,0, ,819.7,369.6,324.2,-16,105.7,-31.3,25,689.902,171.848,-260.141,-42.3062,126.409,-37.282,
2026_07_06_17_50_25.889,3.868,41,0,0.766,0,0,0,0, ,0,0,0,0,0, ,788.2,357.1,349.9,-12.3,107.5,-34,25,696.851,183.518,-223.75,-40.5904,125.202,-36.9997,
2026_07_06_17_50_25.909,3.868,40.8,0,0.766,0,0,0,0, ,0,0,0,0,0, ,746.9,365.1,397.7,-5.7,104.4,-37.6,25,701.16,194.339,-187.337,-38.6654,124.029,-36.9266,
2026_07_06_17_50_25.929,3.868,40.9,0,0.77,0,0,0,0, ,0,0,0,0,0, ,757.8,414.3,432.6,-1.4,97.5,-36.7,25,704.279,206.244,-150.623,-36.5255,122.623,-36.9402,
2026_07_06_17_50_25.949,3.868,40.8,0,0.766,0,0,0,0, ,0,0,0,0,0, ,782.7,462,465.6,-4.2,91.7,-33.6,25,708.299,220.376,-114.077,-34.4704,120.915,-36.8312,
2026_07_06_17_50_25.968,3.868,41,0,0.768,0,0,0,0, ,0,0,0,0,0, ,781.8,466.4,494,-9.9,90.7,-29.9,25,712.805,235.234,-77.8876,-32.7994,119.104,-36.5215,
2026_07_06_17_50_25.988,3.868,40.8,0,0.768,0,0,0,0, ,0,0,0,0,0, ,731.8,441.5,526.3,-9.4,87.4,-28,25,715.486,248.562,-42.0541,-31.3888,117.273,-36.0601,
2026_07_06_17_50_26.015,3.868,40.8,0,0.768,0,0,0,0, ,0,0,0,0,0, ,694.5,434.5,549.9,-3.5,79.2,-25,25,715.344,260.106,-6.70093,-29.8691,115.203,-35.4776,
2026_07_06_17_50_26.028,3.868,40.9,0,0.768,0,0,0,0, ,0,0,0,0,0, ,692.8,457.3,569,2.4,71.1,-20.1,25,714.022,271.428,27.7989,-28.0824,112.762,-34.6898,
2026_07_06_17_50_26.048,3.868,40.9,0,0.768,0,0,0,0, ,0,0,0,0,0, ,678.5,470.3,593.2,1.4,67.3,-15.4,25,712.293,283.15,61.5157,-26.2554,110.107,-33.6575,
2026_07_06_17_50_26.068,3.868,40.8,0,0.768,0,0,0,0, ,0,0,0,0,0, ,637.5,473.7,624.3,-1.8,64.4,-15.6,25,708.985,294.658,94.8628,-24.6676,107.41,-32.551,
2026_07_06_17_50_26.087,3.868,40.9,0,0.768,0,0,0,0, ,0,0,0,0,0, ,612,466.4,640.3,-4.4,59.8,-12.3,25,703.852,305.346,127.613,-23.3534,104.649,-31.4175,
2026_07_06_17_50_26.107,3.868,40.8,0,0.768,0,0,0,0, ,0,0,0,0,0, ,586.7,439.6,648,-0.6,53.7,-11.9,25,697.484,314.344,159.089,-22.0826,101.73,-30.2404,
2026_07_06_17_50_26.127,3.868,40.7,0,0.768,0,0,0,0, ,0,0,0,0,0, ,580.6,452.2,654,1.9,45,-11.8,25,690.547,322.361,189.065,-20.6973,98.5386,-29.1197,
2026_07_06_17_50_26.148,3.868,40.9,0,0.768,0,0,0,0, ,0,0,0,0,0, ,588.1,467.4,653.6,-1.1,44.7,-11.6,25,684.075,330.736,217.385,-19.4117,95.2669,-28.0582,
2026_07_06_17_50_26.167,3.868,40.9,0,0.768,0,0,0,0, ,0,0,0,0,0, ,579.8,470.3,672.2,-6.2,48.2,-12.4,25,677.974,339.152,244.533,-18.4512,92.2921,-27.0797,
2026_07_06_17_50_26.187,3.868,40.8,0,0.766,0,0,0,0, ,0,0,0,0,0, ,577.8,463.8,682.1,-9.4,46.2,-14.1,25,671.931,346.946,270.896,-17.8022,89.5443,-26.2369,
2026_07_06_17_50_26.206,3.868,40.8,0,0.768,0,0,0,0, ,0,0,0,0,0, ,594.1,478.8,678.4,-10,41.7,-13.7,25,666.691,354.524,295.841,-17.3084,86.7659,-25.4851,
2026_07_06_17_50_26.227,3.868,40.8,0,0.766,0,0,0,0, ,0,0,0,0,0, ,590.2,458.1,676.2,-13,43.2,-11.2,25,662.149,361.466,319.086,-16.9545,84.0654,-24.6908,
2026_07_06_17_50_26.246,3.868,40.8,0,0.769,0,0,0,0, ,0,0,0,0,0, ,560.4,450,690.6,-12,47.8,-11.4,25,656.856,367.108,341.287,-16.6831,81.7153,-23.8748,
2026_07_06_17_50_26.265,3.868,40.8,0,0.766,0,0,0,0, ,0,0,0,0,0, ,532.4,468.2,719.1,-19.8,56,-17.6,25,650.126,372.714,363.441,-16.6353,79.8985,-23.3035,
2026_07_06_17_50_26.286,3.868,40.7,0,0.768,0,0,0,0, ,0,0,0,0,0, ,481.2,423.3,728.2,-26.2,59.8,-25.8,25,641.392,377.164,385.391,-17.0232,78.5579,-23.2058,
2026_07_06_17_50_26.305,3.868,40.7,0,0.766,0,0,0,0, ,0,0,0,0,0, ,465.8,424.1,749,-16.8,46.7,-26,25,631.161,380,406.915,-17.296,77.0157,-23.37,
2026_07_06_17_50_26.326,3.868,40.9,0,0.768,0,0,0,0, ,0,0,0,0,0, ,490.2,441.6,754.7,-7.5,29.2,-18.7,25,621.828,383.221,427.935,-16.9824,74.6352,-23.3078,
2026_07_06_17_50_26.345,3.868,40.8,0,0.768,0,0,0,0, ,0,0,0,0,0, ,525.3,479.8,742.7,-3.8,26.1,-15.3,25,614.876,387.942,447.481,-16.2918,71.772,-22.9234,
2026_07_06_17_50_26.365,3.868,40.8,0,0.768,0,0,0,0, ,0,0,0,0,0, ,498.7,477.1,762.4,-7.2,33.2,-13.5,25,608.607,393.457,466.071,-15.6342,69.2052,-22.4041,
2026_07_06_17_50_26.385,3.868,40.8,0,0.769,0,0,0,0, ,0,0,0,0,0, ,455.8,465,781.9,-9.8,28.8,-15.3,25,600.602,398.186,484.723,-15.1995,66.8771,-21.9163,
2026_07_06_17_50_26.405,3.868,40.8,0,0.769,0,0,0,0, ,0,0,0,0,0, ,449.4,461.5,780.8,-5.8,20,-12.3,25,591.583,402.151,502.799,-14.7486,64.2886,-21.4217,
2026_07_06_17_50_26.424,3.868,40.8,0,0.768,0,0,0,0, ,0,0,0,0,0, ,432.2,480.7,781,-3.6,15,-6.1,25,582.395,406.352,519.745,-14.1362,61.4374,-20.677,
2026_07_06_17_50_26.444,3.868,40.7,0,0.766,0,0,0,0, ,0,0,0,0,0, ,404.1,455.6,785.5,-2.3,12.2,-5.4,25,572.386,410.118,535.803,-13.4546,58.5224,-19.7673,
2026_07_06_17_50_26.464,3.868,40.7,0,0.766,0,0,0,0, ,0,0,0,0,0, ,412.8,463.6,802.9,-1,8.3,-9,25,562.397,413.133,551.549,-12.7352,55.5808,-19.0015,
2026_07_06_17_50_26.483,3.868,40.7,0,0.768,0,0,0,0, ,0,0,0,0,0, ,445.8,501,801.1,-4.3,6.1,-9,25,554.286,417.348,566.811,-12.1207,52.6326,-18.3921,
2026_07_06_17_50_26.503,3.868,40.7,0,0.768,0,0,0,0, ,0,0,0,0,0, ,450.4,474.8,779.5,-6.8,7.6,-4.6,25,547.815,421.647,580.43,-11.7203,49.8427,-17.6857,
2026_07_06_17_50_26.523,3.868,40.7,0,0.768,0,0,0,0, ,0,0,0,0,0, ,428.3,453.8,786.7,-4.6,7.2,-2.6,25,541.206,424.246,592.78,-11.3534,47.2563,-16.8273,
2026_07_06_17_50_26.543,3.868,40.7,0,0.767,0,0,0,0, ,0,0,0,0,0, ,420.1,449,798.4,-3.8,3.7,-3.4,25,534.076,425.901,604.953,-10.9175,44.7088,-15.9847,
2026_07_06_17_50_26.563,3.868,40.7,0,0.766,0,0,0,0, ,0,0,0,0,0, ,426.6,462.5,798,-2.9,1.7,-5,25,527.328,427.72,616.729,-10.4563,42.1488,-15.2666,
2026_07_06_17_50_26.582,3.868,40.8,0,0.767,0,0,0,0, ,0,0,0,0,0, ,437.6,489.5,789.4,-5.2,3.5,-4.2,25,521.525,430.662,627.513,-10.066,39.7388,-14.6166,
2026_07_06_17_50_26.603,3.868,40.8,0,0.766,0,0,0,0, ,0,0,0,0,0, ,426.3,474.8,785.4,-6.4,3.8,-2.4,25,516.067,433.8,637.257,-9.806,37.5397,-13.927,
2026_07_06_17_50_26.622,3.868,40.7,0,0.768,0,0,0,0, ,0,0,0,0,0, ,417.6,457.1,778.9,-4.6,4.1,-1,25,510.332,435.759,646.086,-9.5436,35.4928,-13.1819,
2026_07_06_17_50_26.642,3.868,40.7,0,0.768,0,0,0,0, ,0,0,0,0,0, ,394.6,443.9,798.8,-3.8,2.7,-3,25,503.98,436.657,654.786,-9.21798,33.5372,-12.5005,
2026_07_06_17_50_26.662,3.868,40.7,0,0.767,0,0,0,0, ,0,0,0,0,0, ,396.3,455.3,800.7,-3.5,-3.1,-2.8,25,497.366,437.446,663.619,-8.87868,31.4813,-11.9155,
2026_07_06_17_50_26.681,3.868,40.6,0,0.767,0,0,0,0, ,0,0,0,0,0, ,414,451,784.1,-3.2,-3.6,-1.6,25,491.747,438.403,671.467,-8.54178,29.3588,-11.3234,
2026_07_06_17_50_26.701,3.868,40.7,0,0.767,0,0,0,0, ,0,0,0,0,0, ,430.6,453.4,792.9,-0.7,-5.5,0.2,25,487.515,439.244,678.599,-8.14009,27.2924,-10.6761,
2026_07_06_17_50_26.720,3.868,40.7,0,0.768,0,0,0,0, ,0,0,0,0,0, ,441.4,456.1,802.4,1.1,-9.9,2.3,25,484.376,440.188,685.853,-7.63187,25.1601,-9.94933,
2026_07_06_17_50_26.741,3.868,40.7,0,0.768,0,0,0,0, ,0,0,0,0,0, ,429.1,447.8,805.7,3.9,-19.1,4.1,25,481.382,440.905,693.056,-7.01446,22.7433,-9.14804,
2026_07_06_17_50_26.762,3.868,40.8,0,0.767,0,0,0,0, ,0,0,0,0,0, ,433.8,476.5,858.6,13.7,-41.3,14.7,25,478.34,442.2,701.532,-6.05076,19.5171,-8.01777,
2026_07_06_17_50_26.780,3.868,40.6,0,0.768,0,0,0,0, ,0,0,0,0,0, ,498,528.3,859,14.9,-60.9,24.1,25,477.581,445.868,711.116,-4.81064,15.2138,-6.347,
2026_07_06_17_50_26.801,3.868,40.7,0,0.767,0,0,0,0, ,0,0,0,0,0, ,542.8,510.9,821.2,7.4,-64.4,26.9,25,480.191,450.361,718.976,-3.83804,10.469,-4.40632,
2026_07_06_17_50_26.821,3.868,40.8,0,0.767,0,0,0,0, ,0,0,0,0,0, ,555.9,467.8,796.2,6,-68.6,25,25,484.405,452.737,724.443,-3.19587,5.77872,-2.55649,
2026_07_06_17_50_26.840,3.868,40.7,0,0.768,0,0,0,0, ,0,0,0,0,0, ,531.9,460.3,802.4,11.6,-89.6,25.8,25,488.031,453.427,729.005,-2.46488,0.606424,-0.852887,
2026_07_06_17_50_26.861,3.868,40.7,0,0.766,0,0,0,0, ,0,0,0,0,0, ,589.7,531.2,748.1,23,-123.1,38.6,25,492.465,456.006,731.823,-1.26045,-5.91123,1.16127,
2026_07_06_17_50_26.880,3.868,40.7,0,0.767,0,0,0,0, ,0,0,0,0,0, ,677.1,538.5,673.3,21,-130,67.5,25,501.053,460.81,730.536,0.15698,-13.2627,4.32324,
2026_07_06_17_50_26.901,3.868,40.7,0,0.768,0,0,0,0, ,0,0,0,0,0, ,646.9,435.4,636.7,17.9,-125.8,70.1,25,510.861,462.403,725.933,1.33265,-20.2484,8.25229,
2026_07_06_17_50_26.919,3.868,40.6,0,0.768,0,0,0,0, ,0,0,0,0,0, ,649.9,388.1,607.6,22.3,-133,65.6,25,519.242,459.316,719.608,2.47628,-26.8998,11.884,
2026_07_06_17_50_26.940,3.868,40.7,0,0.768,0,0,0,0, ,0,0,0,0,0, ,631.3,346.9,555.5,31,-151.4,59.2,25,526.637,453.721,711.195,3.94937,-33.9259,14.9623,
2026_07_06_17_50_26.960,3.868,40.7,0,0.768,0,0,0,0, ,0,0,0,0,0, ,731.5,425.5,463.2,43.2,-156.6,57.9,25,536.068,449.607,698.896,5.96949,-41.2429,17.6185,
2026_07_06_17_50_26.979,3.868,40.7,0,0.766,0,0,0,0, ,0,0,0,0,0, ,818.8,434.2,431.7,36.2,-137.5,76.3,25,550.637,448.403,683.573,8.02494,-47.6905,20.6337,
2026_07_06_17_50_26.999,3.868,40.6,0,0.768,0,0,0,0, ,0,0,0,0,0, ,770.9,339.8,414.9,28.3,-120,66.9,25,565.519,444.661,667.713,9.50115,-52.6301,23.7395,
2026_07_06_17_50_27.024,3.868,40.7,0,0.767,0,0,0,0, ,0,0,0,0,0, ,763.4,311,378,25.9,-112.9,52.8,25,577.806,437.394,651.183,10.5736,-56.5191,25.94,
2026_07_06_17_50_27.039,3.868,40.7,0,0.768,0,0,0,0, ,0,0,0,0,0, ,761.8,273,336.5,28.4,-115.6,39.4,25,589.067,428.534,633.271,11.5837,-60.0371,27.1685,
2026_07_06_17_50_27.057,3.868,40.7,0,0.767,0,0,0,0, ,0,0,0,0,0, ,810,344.6,304.4,32.9,-113.9,35.7,25,601.061,421.237,614.209,12.7456,-63.3712,27.8011,
2026_07_06_17_50_27.078,3.868,40.7,0,0.767,0,0,0,0, ,0,0,0,0,0, ,851.3,363.5,280.8,30,-116.1,46,25,615.052,417.143,594.611,13.8854,-66.5173,28.5963,
2026_07_06_17_50_27.097,3.868,40.7,0,0.768,0,0,0,0, ,0,0,0,0,0, ,868.4,320.6,243.4,25,-105.8,46.2,25,629.969,412.567,574.348,14.715,-69.2249,29.6629,
2026_07_06_17_50_27.117,3.868,40.6,0,0.767,0,0,0,0, ,0,0,0,0,0, ,840.4,274.2,213.3,20.9,-97.1,36.3,25,643.646,405.549,553.264,15.2168,-71.1886,30.369,
2026_07_06_17_50_27.139,3.868,40.7,0,0.767,0,0,0,0, ,0,0,0,0,0, ,806.2,236.3,171.7,25.8,-102.7,27.4,25,654.593,396.39,531.28,15.7124,-72.9382,30.4592,
2026_07_06_17_50_27.157,3.868,40.6,0,0.769,0,0,0,0, ,0,0,0,0,0, ,833.1,253.1,139.8,37.2,-113,24.9,25,664.651,387.147,508.396,16.6745,-75.0657,30.1967,
2026_07_06_17_50_27.177,3.868,40.6,0,0.767,0,0,0,0, ,0,0,0,0,0, ,874.7,276.4,89.3,43,-114.3,27.2,25,676.184,379.688,484.396,18.102,-77.4169,29.944,
2026_07_06_17_50_27.197,3.868,40.7,0,0.768,0,0,0,0, ,0,0,0,0,0, ,905,276.4,52,34.7,-100.6,21.2,25,689.204,373.394,459.183,19.3663,-79.247,29.5939,
2026_07_06_17_50_27.217,3.868,40.6,0,0.765,0,0,0,0, ,0,0,0,0,0, ,876.2,241.4,27.3,24.1,-81.9,6.9,25,701.477,366.417,433.618,19.9777,-79.9785,28.6467,
2026_07_06_17_50_27.237,3.868,40.7,0,0.766,0,0,0,0, ,0,0,0,0,0, ,832.7,199.4,2.6,26.3,-78.6,-6.3,25,710.798,357.519,408.105,20.296,-79.995,26.9194,
2026_07_06_17_50_27.255,3.868,40.7,0,0.766,0,0,0,0, ,0,0,0,0,0, ,872.9,268.5,-22.9,39.1,-82.8,-3.8,25,719.452,349.989,382.618,21.0518,-80.038,24.9712,
2026_07_06_17_50_27.276,3.868,40.6,0,0.767,0,0,0,0, ,0,0,0,0,0, ,906.2,317.9,-20.3,38.6,-84.5,13.8,25,729.817,346.529,357.986,22.1364,-80.2581,23.7542,
2026_07_06_17_50_27.296,3.868,40.7,0,0.768,0,0,0,0, ,0,0,0,0,0, ,895,295.5,-34.3,27.3,-82,14.9,25,740.224,344.102,334.508,22.7954,-80.4404,23.1812,
2026_07_06_17_50_27.316,3.868,40.6,0,0.766,0,0,0,0, ,0,0,0,0,0, ,894.6,287.4,-46,19.5,-78.6,9,25,749.644,340.893,311.677,22.8322,-80.4318,22.4968,
2026_07_06_17_50_27.335,3.868,40.6,0,0.766,0,0,0,0, ,0,0,0,0,0, ,880.4,257.9,-81.9,6.7,-74.8,-3.4,25,758.044,336.735,288.787,22.2392,-80.2044,21.2965,
2026_07_06_17_50_27.355,3.868,40.6,0,0.768,0,0,0,0, ,0,0,0,0,0, ,893.5,225.9,-156.6,1,-71.4,-15,25,765.899,330.956,263.922,21.1186,-79.7715,19.4381,
2026_07_06_17_50_27.375,3.868,40.6,0,0.766,0,0,0,0, ,0,0,0,0,0, ,958,257.2,-226.8,6.6,-61.7,-11.3,25,775.64,325.507,236.158,20.0632,-78.9658,17.4523,
2026_07_06_17_50_27.395,3.868,40.7,0,0.768,0,0,0,0, ,0,0,0,0,0, ,976,266.7,-241.5,11.6,-48.7,-1.6,25,787.301,321.634,207.499,19.3951,-77.5176,15.9957,
2026_07_06_17_50_27.414,3.868,40.6,0,0.768,0,0,0,0, ,0,0,0,0,0, ,952.7,273.6,-233.2,9.1,-40.3,-6,25,798.09,318.497,180.391,18.844,-75.5056,14.7894,
2026_07_06_17_50_27.435,3.868,40.6,0,0.767,0,0,0,0, ,0,0,0,0,0, ,960.6,284.5,-256.3,3.5,-40.2,-10.4,25,807.752,316.093,154.484,18.0796,-73.3572,13.3885,
2026_07_06_17_50_27.454,3.868,40.6,0,0.767,0,0,0,0, ,0,0,0,0,0, ,943.8,271.2,-279.7,2.9,-46.8,-11,25,816.555,313.763,128.738,17.1728,-71.5378,11.9206,
2026_07_06_17_50_27.475,3.868,40.7,0,0.766,0,0,0,0, ,0,0,0,0,0, ,946,261.2,-302.4,10.7,-56,-5,25,824.376,310.864,103.158,16.5407,-70.3106,10.7067,
2026_07_06_17_50_27.495,3.868,40.7,0,0.767,0,0,0,0, ,0,0,0,0,0, ,933.4,269.4,-318.3,16.7,-63.6,0.9,25,831.403,308.088,77.9595,16.3676,-69.6701,9.92934,
2026_07_06_17_50_27.514,3.868,40.6,0,0.768,0,0,0,0, ,0,0,0,0,0, ,913.5,256.5,-327.1,17.8,-71.1,3.1,25,837.012,305.337,53.5443,16.4214,-69.5288,9.44614,
2026_07_06_17_50_27.534,3.868,40.5,0,0.768,0,0,0,0, ,0,0,0,0,0, ,931.1,267.7,-363.7,20.4,-75.5,2.7,25,842.21,302.702,29.2337,16.5846,-69.7586,9.04724,
2026_07_06_17_50_27.554,3.868,40.5,0,0.767,0,0,0,0, ,0,0,0,0,0, ,948.1,276.8,-411.8,16.3,-66.7,5.5,25,848.144,300.847,3.82372,16.6922,-69.8403,8.74577,
2026_07_06_17_50_27.573,3.868,40.6,0,0.767,0,0,0,0, ,0,0,0,0,0, ,928.4,250.1,-428.4,10.3,-52.2,6.6,25,853.635,298.568,-22.0091,16.4855,-69.2071,8.58149,
2026_07_06_17_50_27.593,3.868,40.6,0,0.768,0,0,0,0, ,0,0,0,0,0, ,884.7,223.8,-432,9.5,-43.5,4.1,25,856.86,294.813,-46.8833,16.0842,-67.9057,8.38457,
2026_07_06_17_50_27.613,3.868,40.6,0,0.766,0,0,0,0, ,0,0,0,0,0, ,852.1,216.5,-433.9,13.6,-46.6,2.5,25,857.563,290.263,-70.4092,15.8079,-66.5129,8.07473,
2026_07_06_17_50_27.633,3.868,40.6,0,0.768,0,0,0,0, ,0,0,0,0,0, ,850.4,228.1,-444.5,16.1,-52.2,0.1,25,857.178,286.122,-92.8824,15.7495,-65.4701,7.6619,
2026_07_06_17_50_27.652,3.868,40.7,0,0.768,0,0,0,0, ,0,0,0,0,0, ,875.7,249.7,-478.1,19.3,-51.4,4.8,25,857.536,283.244,-115.333,15.8684,-64.6371,7.3443,
2026_07_06_17_50_27.671,3.868,40.7,0,0.766,0,0,0,0, ,0,0,0,0,0, ,865.9,233.5,-481,15.6,-45.1,7.7,25,858.344,280.707,-137.527,15.9648,-63.6385,7.27761,
2026_07_06_17_50_27.697,3.868,40.5,0,0.766,0,0,0,0, ,0,0,0,0,0, ,835.6,222.9,-484,10.3,-38.2,3.9,25,857.881,277.507,-158.549,15.781,-62.2986,7.18757,
2026_07_06_17_50_27.713,3.868,40.6,0,0.768,0,0,0,0, ,0,0,0,0,0, ,818.3,215.3,-491.6,6.5,-36.4,-1.3,25,855.997,273.948,-178.613,15.3313,-60.7752,6.8288,
2026_07_06_17_50_27.732,3.868,40.7,0,0.768,0,0,0,0, ,0,0,0,0,0, ,818.2,202.8,-524.5,6.8,-38.8,-5.4,25,853.696,269.993,-198.688,14.8022,-59.363,6.20853,
2026_07_06_17_50_27.751,3.868,40.5,0,0.768,0,0,0,0, ,0,0,0,0,0, ,864.9,228.5,-550.9,9.9,-31.4,-0.3,25,852.956,266.681,-219.346,14.4091,-57.8845,5.65652,
2026_07_06_17_50_27.772,3.868,40.6,0,0.767,0,0,0,0, ,0,0,0,0,0, ,852.6,236.9,-559.9,10.2,-23.4,5,25,853.309,264.611,-239.825,14.1434,-56.0268,5.45503,
2026_07_06_17_50_27.791,3.868,40.5,0,0.767,0,0,0,0, ,0,0,0,0,0, ,833.7,226.8,-549,7.4,-16.9,0.2,25,852.69,262.614,-258.997,13.8178,-53.8406,5.28105,
2026_07_06_17_50_27.810,3.868,40.6,0,0.767,0,0,0,0, ,0,0,0,0,0, ,831.1,224.4,-551.8,5.7,-16,-1,25,851.454,260.359,-276.755,13.3749,-51.5621,4.93486,
2026_07_06_17_50_27.831,3.868,40.5,0,0.767,0,0,0,0, ,0,0,0,0,0, ,807,207.3,-561.5,7.4,-19.7,-2,25,849.479,257.647,-293.811,12.959,-49.5078,4.54274,
2026_07_06_17_50_27.850,3.868,40.5,0,0.768,0,0,0,0, ,0,0,0,0,0, ,796.7,201.6,-566.7,10.7,-26.2,-3.8,25,846.577,254.405,-310.281,12.7208,-47.8894,4.0892,
2026_07_06_17_50_27.870,3.868,40.6,0,0.769,0,0,0,0, ,0,0,0,0,0, ,798.7,213.1,-569.3,15.2,-34.3,0,25,843.598,251.537,-325.986,12.7348,-46.8145,3.72423,
2026_07_06_17_50_27.889,3.868,40.6,0,0.768,0,0,0,0, ,0,0,0,0,0, ,764.8,202.3,-571.6,21.5,-48.3,-0.2,25,839.829,248.866,-340.883,13.077,-46.4785,3.49119,
2026_07_06_17_50_27.910,3.868,40.6,0,0.768,0,0,0,0, ,0,0,0,0,0, ,746.9,190.6,-569.5,29.7,-67.4,-1.7,25,834.712,245.672,-354.878,13.8401,-47.1714,3.22056,
2026_07_06_17_50_27.930,3.868,40.5,0,0.768,0,0,0,0, ,0,0,0,0,0, ,719.4,155.7,-595.3,40.9,-88.4,-2.4,25,828.523,241.253,-368.743,15.1478,-49.0439,2.89938,
2026_07_06_17_50_27.948,3.868,40.6,0,0.766,0,0,0,0, ,0,0,0,0,0, ,693.2,172.9,-631.2,50.8,-107.6,-7.8,25,821.075,236.563,-383.643,17.0187,-52.0272,2.41192,
2026_07_06_17_50_27.970,3.868,40.7,0,0.768,0,0,0,0, ,0,0,0,0,0, ,757.2,235.5,-661.8,55.2,-112.2,5.6,25,815.233,234.591,-399.661,19.2113,-55.5538,2.19791,
2026_07_06_17_50_27.990,3.868,40.5,0,0.768,0,0,0,0, ,0,0,0,0,0, ,741.4,207.8,-692.7,53.9,-110,24.8,25,811.215,233.803,-416.576,21.3648,-58.9387,2.99023,
2026_07_06_17_50_28.009,3.868,40.6,0,0.768,0,0,0,0, ,0,0,0,0,0, ,667.6,148.5,-711.5,53.4,-111.7,24.8,25,804.712,230.411,-433.975,23.3322,-62.102,4.31926,
2026_07_06_17_50_28.029,3.868,40.6,0,0.767,0,0,0,0, ,0,0,0,0,0, ,632.3,122.1,-727.1,55.3,-115.1,23,25,795.281,224.615,-451.362,25.2223,-65.228,5.51246,
2026_07_06_17_50_28.049,3.868,40.6,0,0.766,0,0,0,0, ,0,0,0,0,0, ,580.2,80,-725.8,60.7,-128.2,19.7,25,783.762,217.086,-468.125,27.2197,-68.6662,6.47756,
2026_07_06_17_50_28.069,3.868,40.5,0,0.768,0,0,0,0, ,0,0,0,0,0, ,570,75.6,-783.4,64.4,-136.3,23.1,25,771.047,208.598,-485.582,29.3726,-72.5408,7.3869,
2026_07_06_17_50_28.088,3.868,40.5,0,0.768,0,0,0,0, ,0,0,0,0,0, ,573.4,64.5,-821.8,65.8,-129.4,34.4,25,758.899,200.155,-504.901,31.5498,-76.2159,8.68871,
2026_07_06_17_50_28.109,3.868,40.5,0,0.766,0,0,0,0, ,0,0,0,0,0, ,520.2,54.3,-831.4,63.9,-125.2,35.8,25,745.974,191.578,-524.504,33.579,-79.3289,10.2981,
2026_07_06_17_50_28.127,3.868,40.7,0,0.768,0,0,0,0, ,0,0,0,0,0, ,491.6,36.7,-856.9,56.5,-121.9,34.5,25,731.345,182.676,-543.983,35.2012,-82.0236,11.8126,
2026_07_06_17_50_28.152,3.868,40.5,0,0.768,0,0,0,0, ,0,0,0,0,0, ,468.7,0.7,-882.2,50.3,-113.5,33.7,25,716.038,172.684,-563.822,36.3102,-84.1976,13.1707,
2026_07_06_17_50_28.167,3.868,40.6,0,0.767,0,0,0,0, ,0,0,0,0,0, ,444.2,-28.9,-893.1,45.5,-98.9,35.9,25,700.219,161.302,-583.555,37.0165,-85.5384,14.4887,
2026_07_06_17_50_28.187,3.868,40.5,0,0.767,0,0,0,0, ,0,0,0,0,0, ,387.9,-40.8,-911.1,41.1,-88.5,37.7,25,682.902,149.349,-602.967,37.3994,-86.0357,15.8483,
2026_07_06_17_50_28.207,3.868,40.5,0,0.767,0,0,0,0, ,0,0,0,0,0, ,358.2,-57.2,-927.2,36.1,-84.3,36.5,25,664.021,137.262,-622.234,37.4725,-86.0579,17.1434,
2026_07_06_17_50_28.227,3.868,40.5,0,0.766,0,0,0,0, ,0,0,0,0,0, ,349.2,-76.5,-941.2,31.2,-74.6,34,25,645.111,124.824,-641.244,37.2396,-85.6553,18.2467,
2026_07_06_17_50_28.247,3.868,40.5,0,0.768,0,0,0,0, ,0,0,0,0,0, ,328.4,-87.6,-933.2,21.2,-58.5,29.4,25,626.445,112.218,-659.279,36.5669,-84.491,19.0665,
2026_07_06_17_50_28.265,3.868,40.5,0,0.768,0,0,0,0, ,0,0,0,0,0, ,280.8,-110.4,-932.2,15.5,-48.9,29.3,25,606.832,99.3465,-675.941,35.4568,-82.6147,19.6932,
2026_07_06_17_50_28.285,3.868,40.5,0,0.768,0,0,0,0, ,0,0,0,0,0, ,248.9,-124.6,-942.9,16.6,-47.7,33.9,25,585.993,86.1324,-691.883,34.2742,-80.5237,20.4188,
2026_07_06_17_50_28.306,3.868,40.5,0,0.768,0,0,0,0, ,0,0,0,0,0, ,240.3,-136.2,-954.5,10.2,-41.6,29.7,25,565.189,72.9374,-707.532,33.0022,-78.3376,21.1123,
2026_07_06_17_50_28.325,3.868,40.5,0,0.767,0,0,0,0, ,0,0,0,0,0, ,235.1,-154.1,-970.7,1.5,-25.8,22.1,25,545.233,59.6477,-723.076,31.3476,-75.6175,21.404,
2026_07_06_17_50_28.346,3.868,40.5,0,0.767,0,0,0,0, ,0,0,0,0,0, ,218.7,-156.1,-974.3,-7,-12.4,19.2,25,525.834,46.5616,-738.275,29.2698,-72.1735,21.3581,
2026_07_06_17_50_28.366,3.868,40.5,0,0.767,0,0,0,0, ,0,0,0,0,0, ,225.3,-168,-1002.4,-8,-1.2,19.6,25,507.32,33.8493,-753.514,27.0291,-68.1898,21.2388,
2026_07_06_17_50_28.385,3.868,40.5,0,0.767,0,0,0,0, ,0,0,0,0,0, ,227.6,-181.7,-1002.1,-13.2,13.7,15.7,25,490.204,21.1317,-768.671,24.7361,-63.6536,21.0201,
2026_07_06_17_50_28.405,3.868,40.3,0,0.768,0,0,0,0, ,0,0,0,0,0, ,199.7,-166.9,-992.9,-21.1,26.1,9,25,473.352,9.22256,-782.615,22.1836,-58.562,20.4918,
2026_07_06_17_50_28.424,3.868,40.3,0,0.768,0,0,0,0, ,0,0,0,0,0, ,194.7,-168.3,-1004.8,-21.4,30.8,5,25,456.524,-1.55256,-795.792,19.5369,-53.2598,19.6696,
2026_07_06_17_50_28.444,3.868,40.3,0,0.766,0,0,0,0, ,0,0,0,0,0, ,254.6,-178.8,-1045.5,-21.1,43.1,-6.1,25,442.394,-12.0337,-809.769,17.0515,-47.7626,18.4375,
2026_07_06_17_50_28.464,3.868,40.5,0,0.767,0,0,0,0, ,0,0,0,0,0, ,323.9,-153.6,-1064.6,-21.7,69.4,-9.8,25,433.062,-21.4282,-824.716,14.7083,-41.4243,16.8295,
2026_07_06_17_50_28.484,3.868,40.5,0,0.767,0,0,0,0, ,0,0,0,0,0, ,330.3,-134.2,-1056.2,-24.2,96.5,-15.3,25,426.605,-28.8913,-839.078,12.4135,-33.8453,15.0392,
2026_07_06_17_50_28.503,3.868,40.5,0,0.767,0,0,0,0, ,0,0,0,0,0, ,354.3,-105.9,-1034.7,-30,119.3,-21.5,25,421.467,-34.4463,-851.653,10.0057,-25.2077,13.0015,
2026_07_06_17_50_28.524,3.868,40.3,0,0.768,0,0,0,0, ,0,0,0,0,0, ,401.7,-95.3,-1025,-37.9,142.9,-27.5,25,418.818,-38.4775,-862.512,7.32711,-15.6827,10.7162,
2026_07_06_17_50_28.544,3.868,40.3,0,0.766,0,0,0,0, ,0,0,0,0,0, ,457.8,-103.2,-1007.2,-44.4,165.4,-31.7,25,419.485,-42.1808,-871.871,4.37304,-5.33349,8.25946,
2026_07_06_17_50_28.562,3.868,40.5,0,0.766,0,0,0,0, ,0,0,0,0,0, ,499.5,-83.6,-963,-40.6,178.3,-34.2,25,423.09,-45.302,-878.771,1.51671,5.46363,5.74825,
2026_07_06_17_50_28.583,3.868,40.3,0,0.768,0,0,0,0, ,0,0,0,0,0, ,547.9,-19.2,-869,-36.7,183.1,-37.8,25,429.221,-45.6736,-881.04,-0.930946,16.1421,3.20422,
2026_07_06_17_50_28.603,3.868,40.3,0,0.768,0,0,0,0, ,0,0,0,0,0, ,605.3,57,-820,-43.8,184.5,-35.3,25,438.202,-41.7387,-878.813,-3.32695,26.3587,0.781698,
2026_07_06_17_50_28.623,3.868,40.2,0,0.766,0,0,0,0, ,0,0,0,0,0, ,632.4,62.1,-811.4,-55.8,185.6,-32.2,25,449.21,-35.5664,-874.967,-6.1589,36.029,-1.32258,
2026_07_06_17_50_28.643,3.868,40.3,0,0.767,0,0,0,0, ,0,0,0,0,0, ,681.2,3.2,-794.6,-67.2,178.6,-34,25,461.86,-31.4094,-870.582,-9.53125,44.9302,-3.25901,
2026_07_06_17_50_28.663,3.868,40.5,0,0.768,0,0,0,0, ,0,0,0,0,0, ,723.7,0.4,-728.3,-57,175.1,-36.4,25,476.521,-29.3857,-863.932,-12.7347,52.9691,-5.20542,
2026_07_06_17_50_28.682,3.868,40.3,0,0.767,0,0,0,0, ,0,0,0,0,0, ,783.8,89.7,-655.2,-51.1,183.2,-40.3,25,493.415,-24.8498,-853.439,-15.2523,60.6582,-7.22517,
2026_07_06_17_50_28.703,3.868,40.3,0,0.767,0,0,0,0, ,0,0,0,0,0, ,810.9,140.2,-617.7,-64.8,201.7,-41.2,25,511.936,-16.3308,-840.217,-17.8542,68.6893,-9.26808,
2026_07_06_17_50_28.723,3.868,40.3,0,0.767,0,0,0,0, ,0,0,0,0,0, ,797.2,111.9,-581.2,-83,205.2,-44.2,25,529.736,-7.65444,-825.545,-21.2695,76.9012,-11.3053,
2026_07_06_17_50_28.741,3.868,40.5,0,0.767,0,0,0,0, ,0,0,0,0,0, ,793,94.3,-539.5,-86.2,203.6,-46.5,25,545.907,-0.905338,-809.385,-25.1287,84.6707,-13.3799,
2026_07_06_17_50_28.762,3.868,40.3,0,0.767,0,0,0,0, ,0,0,0,0,0, ,805.5,93.9,-438.1,-82.4,196.4,-49.6,25,561.345,4.88405,-789.849,-28.7344,91.6986,-15.4926,
2026_07_06_17_50_28.782,3.868,40.3,0,0.769,0,0,0,0, ,0,0,0,0,0, ,815.4,140.6,-355.4,-66.9,185.6,-47.5,25,576.525,11.7313,-765.894,-31.5324,97.7498,-17.5071,
2026_07_06_17_50_28.802,3.868,40.5,0,0.767,0,0,0,0, ,0,0,0,0,0, ,839.8,174.8,-305.5,-62.9,173.4,-44.6,25,591.825,20.6263,-739.36,-33.5658,102.731,-19.2464,
2026_07_06_17_50_28.821,3.868,40.3,0,0.768,0,0,0,0, ,0,0,0,0,0, ,876.7,196,-259,-61.4,165.9,-42.5,25,608.06,30.6672,-711.504,-35.3076,106.809,-20.7274,
2026_07_06_17_50_28.841,3.868,40.3,0,0.767,0,0,0,0, ,0,0,0,0,0, ,889.1,220.9,-199.8,-61.8,166.5,-43.4,25,624.808,41.5008,-682.126,-36.9098,110.428,-22.0816,
2026_07_06_17_50_28.862,3.868,40.3,0,0.768,0,0,0,0, ,0,0,0,0,0, ,891.7,236.3,-144.4,-65.5,166.9,-47.9,25,640.993,52.9022,-651.046,-38.5393,113.857,-23.5178,
2026_07_06_17_50_28.881,3.868,40.3,0,0.767,0,0,0,0, ,0,0,0,0,0, ,903.3,246.9,-94.3,-66,169.8,-52.8,25,656.624,64.401,-618.646,-40.1974,117.178,-25.1529,
2026_07_06_17_50_28.900,3.868,40.3,0,0.767,0,0,0,0, ,0,0,0,0,0, ,896.2,269.5,-32.2,-61.5,173.4,-52.7,25,671.439,76.2106,-584.802,-41.6327,120.494,-26.8346,
2026_07_06_17_50_28.920,3.868,40.2,0,0.767,0,0,0,0, ,0,0,0,0,0, ,875.1,280,40.7,-56.5,171.7,-50.2,25,684.493,88.3091,-548.906,-42.691,123.667,-28.3346,
2026_07_06_17_50_28.941,3.868,40.3,0,0.766,0,0,0,0, ,0,0,0,0,0, ,866.2,301.1,98.3,-52.8,164.3,-49.6,25,695.837,100.633,-511.222,-43.4197,126.368,-29.6487,
2026_07_06_17_50_28.960,3.868,40.3,0,0.766,0,0,0,0, ,0,0,0,0,0, ,853.7,312.3,158.9,-51.5,163.5,-49.5,25,705.837,113.19,-472.233,-43.9517,128.655,-30.8615,
2026_07_06_17_50_28.980,3.868,40.3,0,0.767,0,0,0,0, ,0,0,0,0,0, ,826.4,312.2,226,-34.2,162.9,-45.3,25,714.016,125.321,-431.729,-43.8846,130.76,-31.8693,
2026_07_06_17_50_29.000,3.868,40.2,0,0.767,0,0,0,0, ,0,0,0,0,0, ,792.8,329.5,286.9,-26.6,148.7,-43.3,25,719.84,137.236,-389.793,-43.0629,132.286,-32.6268,
2026_07_06_17_50_29.020,3.868,40.3,0,0.767,0,0,0,0, ,0,0,0,0,0, ,792.4,359.2,342,-14.7,131.8,-34.6,25,724.274,149.857,-346.878,-41.6971,132.771,-33.0121,
2026_07_06_17_50_29.038,3.868,40.3,0,0.768,0,0,0,0, ,0,0,0,0,0, ,779.1,380.7,396.2,-2.7,114.7,-24,25,728.02,163.269,-303.248,-39.6863,132.191,-32.7859,
2026_07_06_17_50_29.058,3.868,40.3,0,0.767,0,0,0,0, ,0,0,0,0,0, ,781.7,396.7,426.6,-1.4,107,-20.1,25,731.212,177.006,-259.699,-37.3929,130.891,-32.1317,
2026_07_06_17_50_29.078,3.868,40.2,0,0.768,0,0,0,0, ,0,0,0,0,0, ,759.8,384.2,455.3,-4.4,107.1,-22.9,25,733.622,190.013,-217.004,-35.291,129.438,-31.4838,
2026_07_06_17_50_29.099,3.868,40.2,0,0.766,0,0,0,0, ,0,0,0,0,0, ,731.3,375.4,480.2,-3.2,104.1,-24,25,734.349,201.578,-175.276,-33.372,127.985,-30.9942,
2026_07_06_17_50_29.117,3.868,40.3,0,0.766,0,0,0,0, ,0,0,0,0,0, ,719.8,413.4,514.4,-3.3,103.6,-23.2,25,733.812,213.328,-134.291,-31.5364,126.515,-30.5437,
2026_07_06_17_50_29.138,3.868,40.3,0,0.768,0,0,0,0, ,0,0,0,0,0, ,668.7,398.3,556.3,-12.9,107.5,-21.8,25,731.402,225.06,-93.4851,-30.1083,125.237,-30.0535,
2026_07_06_17_50_29.158,3.868,40.3,0,0.768,0,0,0,0, ,0,0,0,0,0, ,608,382.3,603,-15.5,97.5,-23.9,25,725.731,235.129,-52.4659,-29.1389,123.852,-29.6145,
2026_07_06_17_50_29.177,3.868,40.2,0,0.768,0,0,0,0, ,0,0,0,0,0, ,604.8,396.6,623,-10.1,78.9,-22.7,25,718.459,244.533,-11.9141,-28.1432,121.679,-29.2297,
2026_07_06_17_50_29.198,3.868,40.2,0,0.768,0,0,0,0, ,0,0,0,0,0, ,605.5,409.5,620.8,-9.5,71.9,-19.2,25,711.555,254.193,26.7089,-27.0254,118.859,-28.7252,
2026_07_06_17_50_29.217,3.868,40.2,0,0.767,0,0,0,0, ,0,0,0,0,0, ,586.7,395.1,627.3,-7.4,70.1,-16.3,25,704.519,263.218,63.1094,-25.8935,115.942,-28.0564,
2026_07_06_17_50_29.238,3.868,40.3,0,0.767,0,0,0,0, ,0,0,0,0,0, ,591.6,402.5,643,0.3,66.7,-15.1,25,697.489,271.48,97.9681,-24.5319,113.045,-27.3034,
2026_07_06_17_50_29.257,3.868,40.3,0,0.767,0,0,0,0, ,0,0,0,0,0, ,587.4,380.9,637.9,0.9,68.6,-17.4,25,690.908,278.806,131.026,-23.0005,110.279,-26.6299,
2026_07_06_17_50_29.276,3.868,40.2,0,0.766,0,0,0,0, ,0,0,0,0,0, ,566.4,369.9,633.5,4.5,73,-19.4,25,683.961,284.692,161.779,-21.4343,107.873,-26.1284,
2026_07_06_17_50_29.297,3.868,40.3,0,0.769,0,0,0,0, ,0,0,0,0,0, ,563.3,405.2,645.8,7.6,75.6,-19.2,25,676.703,290.96,190.899,-19.7595,105.827,-25.7123,
2026_07_06_17_50_29.315,3.868,40.2,0,0.768,0,0,0,0, ,0,0,0,0,0, ,516.2,400.3,690.7,4.8,75.3,-18.7,25,668.357,297.772,219.988,-18.1776,103.976,-25.3002,
2026_07_06_17_50_29.336,3.868,40.3,0,0.766,0,0,0,0, ,0,0,0,0,0, ,494.5,412.4,686.8,0.7,72.4,-20.9,25,658.424,304.389,248.553,-16.9023,102.14,-24.965,
2026_07_06_17_50_29.355,3.868,40.2,0,0.767,0,0,0,0, ,0,0,0,0,0, ,484,404.9,676,-2.5,78.8,-21.1,25,648.115,310.742,274.93,-15.9272,100.523,-24.7234,
2026_07_06_17_50_29.376,3.868,40.2,0,0.765,0,0,0,0, ,0,0,0,0,0, ,448.1,409,686.5,0.8,85.2,-24.1,25,637.02,316.605,299.69,-15.0084,99.3944,-24.594,
2026_07_06_17_50_29.396,3.868,40.2,0,0.766,0,0,0,0, ,0,0,0,0,0, ,399.2,425.4,732.5,11.6,84.2,-24.6,25,624.018,322.735,324.663,-13.716,98.499,-24.5791,
2026_07_06_17_50_29.416,3.868,40.3,0,0.767,0,0,0,0, ,0,0,0,0,0, ,336.9,459.4,812.7,23.5,64.4,-19.7,25,608.42,330.027,351.959,-11.8108,97.0244,-24.4311,
2026_07_06_17_50_29.435,3.868,40.2,0,0.768,0,0,0,0, ,0,0,0,0,0, ,312.8,494,842.2,23.7,46.8,-17.1,25,591.14,338.965,380.934,-9.65291,94.5001,-24.0636,
2026_07_06_17_50_29.454,3.868,40.2,0,0.768,0,0,0,0, ,0,0,0,0,0, ,312,505.3,844.8,26,42.9,-15.5,25,574.154,348.756,409.122,-7.55039,91.4745,-23.5905,
2026_07_06_17_50_29.475,3.868,40.3,0,0.768,0,0,0,0, ,0,0,0,0,0, ,306.1,550.2,871.4,24.9,41.4,-13.3,25,557.999,359.664,436.481,-5.53943,88.4688,-23.0304,
2026_07_06_17_50_29.494,3.868,40.2,0,0.767,0,0,0,0, ,0,0,0,0,0, ,282.5,551.7,906.7,24.6,33.7,-11.9,25,541.93,371.32,464.06,-3.69367,85.3659,-22.3948,
2026_07_06_17_50_29.514,3.868,40.1,0,0.767,0,0,0,0, ,0,0,0,0,0, ,322.8,639.5,1170.4,23.2,21,-12.5,25,527.349,384.987,499.068,-2.01218,81.8306,-21.7736,
2026_07_06_17_50_29.534,3.868,40.2,0,0.767,0,0,0,0, ,0,0,0,0,0, ,313.5,762.8,1063.8,-50.2,3.1,3.5,25,514.601,404.254,536.729,-2.71222,77.5783,-20.721,
2026_07_06_17_50_29.554,3.868,40.2,0,0.767,0,0,0,0, ,0,0,0,0,0, ,293.2,294.7,730.1,9.8,-28.7,-0.9,25,501.728,411.84,558.68,-3.77788,72.0709,-19.3791,
2026_07_06_17_50_29.574,3.868,40.2,0,0.768,0,0,0,0, ,0,0,0,0,0, ,406.6,500.4,807.4,19,-5.8,14.8,25,492.476,410.969,571.481,-2.67016,66.6279,-17.7747,
2026_07_06_17_50_29.594,3.868,40.2,0,0.767,0,0,0,0, ,0,0,0,0,0, ,298,472.4,827.1,-4.3,4.3,-3.9,25,483.934,415.566,586.458,-2.05956,62.5221,-16.3594,
2026_07_06_17_50_29.613,3.868,40.3,0,0.766,0,0,0,0, ,0,0,0,0,0, ,293.3,459.9,794,-15.9,-2.1,-12.7,25,472.46,418.648,600.113,-2.54952,58.7792,-15.8683,
2026_07_06_17_50_29.634,3.868,40.2,0,0.766,0,0,0,0, ,0,0,0,0,0, ,361.8,463.6,729.6,-7.3,-10,-5,25,463.63,421.275,609.966,-3.10104,54.8286,-15.4406,
2026_07_06_17_50_29.653,3.868,40.2,0,0.768,0,0,0,0, ,0,0,0,0,0, ,356.2,478.6,763,0.1,1.3,-1.8,25,457.254,424.311,618.274,-3.13144,51.2224,-14.7069,
2026_07_06_17_50_29.673,3.868,40.2,0,0.768,0,0,0,0, ,0,0,0,0,0, ,312.6,473.8,810.7,-2.2,4.3,-8.7,25,449.768,427.473,628.547,-3.00461,48.2717,-14.1306,
2026_07_06_17_50_29.693,3.868,40.1,0,0.768,0,0,0,0, ,0,0,0,0,0, ,321,473.7,813.9,-2.3,-8.7,-10.2,25,441.665,430.293,639.744,-2.95862,45.1961,-13.8454,
2026_07_06_17_50_29.713,3.868,40.2,0,0.768,0,0,0,0, ,0,0,0,0,0, ,382.5,500.1,772,0,-18.1,-6.2,25,436.186,433.743,649.08,-2.84841,41.6254,-13.5014,
2026_07_06_17_50_29.733,3.868,40.2,0,0.766,0,0,0,0, ,0,0,0,0,0, ,437.3,521.9,772.4,-4.9,-4.6,-4.2,25,434.584,438.45,656.583,-2.82413,38.3972,-12.9955,
2026_07_06_17_50_29.751,3.868,40.2,0,0.767,0,0,0,0, ,0,0,0,0,0, ,407.2,500.8,795,-7.7,5.5,-4.5,25,433.832,442.893,664.329,-3.03594,36.0848,-12.4687,
2026_07_06_17_50_29.772,3.868,40.2,0,0.767,0,0,0,0, ,0,0,0,0,0, ,381.9,479.6,791,-2.6,-3,-2.8,25,431.439,445.775,672.17,-3.16477,33.962,-11.9313,
2026_07_06_17_50_29.792,3.868,40.1,0,0.768,0,0,0,0, ,0,0,0,0,0, ,380.1,481.8,773.4,-3.1,-5.3,-4.4,25,428.365,447.904,678.875,-3.14559,31.6396,-11.4236,
2026_07_06_17_50_29.818,3.868,40.2,0,0.767,0,0,0,0, ,0,0,0,0,0, ,392.4,501.7,755.8,-4.7,0.2,-4.2,25,425.799,450.576,684.099,-3.19156,29.5562,-10.9895,
2026_07_06_17_50_29.831,3.868,40.2,0,0.766,0,0,0,0, ,0,0,0,0,0, ,379,493.1,770.3,-3.9,4.8,-1.2,25,423.355,453.429,688.91,-3.2591,27.9074,-10.4844,
2026_07_06_17_50_29.851,3.868,40.1,0,0.767,0,0,0,0, ,0,0,0,0,0, ,355.3,496.8,800.5,-3,3.3,-1.4,25,419.93,455.959,694.79,-3.27074,26.4536,-9.92468,
2026_07_06_17_50_29.872,3.868,40.2,0,0.767,0,0,0,0, ,0,0,0,0,0, ,338.3,482.7,803.2,-1.9,-2.6,-1.9,25,415.474,458.018,701.314,-3.22072,24.8629,-9.42044,
2026_07_06_17_50_29.891,3.868,40.2,0,0.767,0,0,0,0, ,0,0,0,0,0, ,349.9,495.9,792.8,-2.2,-3.5,-3.5,25,411.124,459.925,707.205,-3.14938,23.162,-9.01092,
2026_07_06_17_50_29.910,3.868,40.1,0,0.767,0,0,0,0, ,0,0,0,0,0, ,352,486.6,788.4,-2.6,0.3,-2.5,25,407.457,461.833,712.287,-3.10372,21.6531,-8.64463,
2026_07_06_17_50_29.930,3.868,40.1,0,0.767,0,0,0,0, ,0,0,0,0,0, ,359.4,485.1,800.9,-1,-0.4,-1.4,25,404.304,463.297,717.306,-3.02427,20.3305,-8.23667,
2026_07_06_17_50_29.950,3.868,40.2,0,0.767,0,0,0,0, ,0,0,0,0,0, ,359.2,474.2,796,-0.2,-2.5,-1.2,25,401.561,464.293,722.251,-2.87654,19.0033,-7.81397,
2026_07_06_17_50_29.971,3.868,40.1,0,0.767,0,0,0,0, ,0,0,0,0,0, ,353,479.7,802.3,0.9,-4.1,-2.9,25,398.791,465.065,726.937,-2.67992,17.6442,-7.46273,
2026_07_06_17_50_29.990,3.868,40.1,0,0.768,0,0,0,0, ,0,0,0,0,0, ,349.8,496.5,806.2,2.7,-5.3,-5.3,25,395.903,466.468,731.648,-2.40693,16.2826,-7.25781,
2026_07_06_17_50_30.010,3.868,40.1,0,0.768,0,0,0,0, ,0,0,0,0,0, ,362.5,503.6,802.9,4.6,-3.6,-3.5,25,393.481,468.515,736.091,-2.03784,15.0192,-7.08366,
2026_07_06_17_50_30.029,3.868,40.1,0,0.768,0,0,0,0, ,0,0,0,0,0, ,350.7,520.2,834.1,3.1,-6.3,-2.3,25,391.233,471.159,741.113,-1.67905,13.8023,-6.82872,
2026_07_06_17_50_30.049,3.868,40.1,0,0.767,0,0,0,0, ,0,0,0,0,0, ,352.6,505.4,837.6,-1,-11.1,-3.3,25,388.821,473.696,746.886,-1.51274,12.4311,-6.58322,
2026_07_06_17_50_30.077,3.868,40.1,0,0.767,0,0,0,0, ,0,0,0,0,0, ,351.6,494.3,840.5,4.6,-26.6,0.2,25,386.583,475.29,752.502,-1.31087,10.5249,-6.27651,
2026_07_06_17_50_30.094,3.868,40.2,0,0.767,0,0,0,0, ,0,0,0,0,0, ,387.9,530.8,839.8,9.1,-36.9,2.6,25,385.558,477.56,757.843,-0.813571,7.94876,-5.80872,
2026_07_06_17_50_30.109,3.868,40.2,0,0.767,0,0,0,0, ,0,0,0,0,0, ,419.5,563.2,840.2,3.6,-33,6.3,25,386.663,481.792,762.849,-0.377041,5.33461,-5.18358,
2026_07_06_17_50_30.129,3.868,40.1,0,0.768,0,0,0,0, ,0,0,0,0,0, ,385.1,557.7,874.8,0.2,-33.9,8.9,25,387.616,486.585,768.617,-0.238284,2.97118,-4.40458,
2026_07_06_17_50_30.148,3.868,40.2,0,0.768,0,0,0,0, ,0,0,0,0,0, ,363.5,578.7,938.9,1.1,-60.2,17.6,25,386.805,491.559,777.041,-0.184154,-0.0769892,-3.32876,
2026_07_06_17_50_30.168,3.868,40.1,0,0.767,0,0,0,0, ,0,0,0,0,0, ,372.1,553.7,922.7,1.1,-76.6,20.5,25,385.646,496.107,786.41,-0.105901,-4.24042,-1.96505,
2026_07_06_17_50_30.188,3.868,40.1,0,0.768,0,0,0,0, ,0,0,0,0,0, ,418.2,504.6,815.3,6.4,-93.1,16.5,25,386.226,498.121,791.443,0.129068,-9.15257,-0.717962,
2026_07_06_17_50_30.208,3.868,40.1,0,0.767,0,0,0,0, ,0,0,0,0,0, ,501.3,579.5,784.3,13,-86.6,12.4,25,390.706,500.797,791.952,0.712297,-14.0701,0.206336,
2026_07_06_17_50_30.227,3.868,40.1,0,0.768,0,0,0,0, ,0,0,0,0,0, ,539.5,640.9,853.5,7.4,-79.9,27.8,25,398.609,507.464,793.595,1.29045,-18.2857,1.41861,
2026_07_06_17_50_30.249,3.868,40.1,0,0.767,0,0,0,0, ,0,0,0,0,0, ,482.2,606.2,872.4,-6.3,-98.7,41.7,25,405.449,514.538,797.821,1.24533,-22.6132,3.44974,
2026_07_06_17_50_30.267,3.868,40.1,0,0.767,0,0,0,0, ,0,0,0,0,0, ,481.8,488,782.3,-12,-129.3,44.2,25,410.114,516.522,799.62,0.611867,-28.182,5.85678,
2026_07_06_17_50_30.287,3.868,40.2,0,0.767,0,0,0,0, ,0,0,0,0,0, ,530.8,435.1,653.6,0.7,-148.1,40.9,25,415.975,513.173,794.644,0.230284,-34.9167,8.09278,
2026_07_06_17_50_30.306,3.868,40,0,0.767,0,0,0,0, ,0,0,0,0,0, ,642.3,487.3,593.7,11.8,-148.6,53.4,25,426.369,510.005,784.224,0.597111,-41.8291,10.4728,
2026_07_06_17_50_30.326,3.868,40,0,0.767,0,0,0,0, ,0,0,0,0,0, ,674.4,510.4,609.7,13.2,-148,79,25,440.506,509.326,773.101,1.32244,-48.3171,13.8687,
2026_07_06_17_50_30.346,3.868,40.1,0,0.767,0,0,0,0, ,0,0,0,0,0, ,645.2,406.6,549,6.5,-152.4,83.4,25,453.869,506.228,761.294,1.84209,-54.5256,17.9717,
2026_07_06_17_50_30.366,3.868,40.1,0,0.766,0,0,0,0, ,0,0,0,0,0, ,663.4,319.4,432.9,4.2,-154,76.3,25,466.083,497.5,744.82,2.05585,-60.5386,21.7424,
2026_07_06_17_50_30.386,3.868,40,0,0.768,0,0,0,0, ,0,0,0,0,0, ,722.5,289.1,338.8,6.5,-141.4,69,25,479.907,485.724,722.946,2.25659,-65.85,24.8446,
2026_07_06_17_50_30.405,3.868,40.2,0,0.767,0,0,0,0, ,0,0,0,0,0, ,756.7,283.4,289.7,6.5,-120.2,65.7,25,495.733,473.569,698.041,2.51517,-69.8079,27.4348,
2026_07_06_17_50_30.426,3.868,40,0,0.769,0,0,0,0, ,0,0,0,0,0, ,756.9,268.4,262.9,3.1,-99.2,67,25,511.641,461.523,672.341,2.65441,-72.2388,29.8062,
2026_07_06_17_50_30.446,3.868,40,0,0.767,0,0,0,0, ,0,0,0,0,0, ,698.2,190.1,268.1,4.5,-94.3,59.5,25,524.798,447.369,647.549,2.72422,-73.7325,31.8441,
2026_07_06_17_50_30.466,3.868,40.1,0,0.768,0,0,0,0, ,0,0,0,0,0, ,683.5,162.4,243.5,12,-101.7,48.5,25,534.917,430.848,623.677,3.06094,-75.2113,33.1943,
2026_07_06_17_50_30.487,3.868,40,0,0.767,0,0,0,0, ,0,0,0,0,0, ,721.6,170.7,204.5,15.7,-108.8,46.2,25,545.132,414.742,599.321,3.7184,-77.0417,34.0569,
2026_07_06_17_50_30.505,3.868,40.1,0,0.767,0,0,0,0, ,0,0,0,0,0, ,779.5,174.6,134,21,-102.6,47.6,25,557.65,399.99,573.114,4.61001,-78.7881,34.8395,
2026_07_06_17_50_30.525,3.868,40.1,0,0.768,0,0,0,0, ,0,0,0,0,0, ,791.7,153.4,111.8,25.6,-95.6,42.5,25,571.541,385.609,545.679,5.74893,-80.0259,35.4617,
2026_07_06_17_50_30.546,3.868,40.1,0,0.766,0,0,0,0, ,0,0,0,0,0, ,796.5,145.8,91.7,27.7,-91.4,34.7,25,585.103,371.227,518.627,7.02259,-80.8469,35.653,
2026_07_06_17_50_30.564,3.868,40,0,0.767,0,0,0,0, ,0,0,0,0,0, ,839.1,148.1,56,29.7,-88,23.5,25,599.283,357.56,491.524,8.34356,-81.3864,35.2536,
2026_07_06_17_50_30.584,3.868,40.1,0,0.768,0,0,0,0, ,0,0,0,0,0, ,906.6,210.6,54.5,25.1,-76,13.6,25,615.953,346.701,464.938,9.50481,-81.4238,34.2358,
2026_07_06_17_50_30.603,3.868,40.1,0,0.767,0,0,0,0, ,0,0,0,0,0, ,990.1,227,88.6,17.8,-64.6,12.9,25,636.209,338.907,440.966,10.2327,-80.746,32.9569,
2026_07_06_17_50_30.624,3.868,40,0,0.768,0,0,0,0, ,0,0,0,0,0, ,961.5,228.2,52.8,17.7,-65.9,10.1,25,656.902,332.124,418.403,10.6908,-79.8017,31.6494,
2026_07_06_17_50_30.643,3.868,40.1,0,0.767,0,0,0,0, ,0,0,0,0,0, ,1009.5,234.8,3.6,28.3,-70.2,4,25,676.926,325.992,394.625,11.4409,-79.0856,30.1504,
2026_07_06_17_50_30.663,3.868,40,0,0.767,0,0,0,0, ,0,0,0,0,0, ,1077.3,287.1,-6.1,24.9,-63.2,7,25,699.258,322.029,370.501,12.3647,-78.3308,28.6482,
2026_07_06_17_50_30.683,3.868,40.2,0,0.767,0,0,0,0, ,0,0,0,0,0, ,1112.3,284,-67.9,0.7,-48.3,8.2,25,723.362,319.806,345.669,12.3912,-76.9548,27.3656,
2026_07_06_17_50_30.703,3.868,40.1,0,0.767,0,0,0,0, ,0,0,0,0,0, ,1135,261.2,-101,-7.6,-30.9,2.8,25,747.754,316.929,319.459,11.4259,-74.6785,26.0332,
2026_07_06_17_50_30.723,3.868,40,0,0.766,0,0,0,0, ,0,0,0,0,0, ,1125.7,245.8,-100.9,-11.4,-13,-1.1,25,771.069,313.064,293.84,10.1507,-71.4653,24.4986,
2026_07_06_17_50_30.742,3.868,39.9,0,0.768,0,0,0,0, ,0,0,0,0,0, ,1071.7,232.1,-73.1,-9.7,-5.4,-1.6,25,791.034,308.548,270.633,8.88924,-67.671,22.9234,
2026_07_06_17_50_30.762,3.868,40,0,0.766,0,0,0,0, ,0,0,0,0,0, ,1029.5,238.1,-50.4,-5,-15.2,2.3,25,806.851,304.072,250.378,7.89967,-64.175,21.5479,
2026_07_06_17_50_30.782,3.868,40,0,0.768,0,0,0,0, ,0,0,0,0,0, ,1045.8,262.9,-46.7,0.1,-28.2,9.9,25,820.915,300.807,232.162,7.26898,-61.5867,20.6065,
2026_07_06_17_50_30.802,3.868,40.1,0,0.767,0,0,0,0, ,0,0,0,0,0, ,1060.5,282.5,-56.5,-1.7,-29.6,18.4,25,835.067,299.095,214.87,6.77728,-59.5948,20.2131,
2026_07_06_17_50_30.822,3.868,40,0,0.767,0,0,0,0, ,0,0,0,0,0, ,1045.8,233.7,-67.7,-1.6,-23,16.2,25,848.357,296.597,197.993,6.26374,-57.5659,20.0356,
2026_07_06_17_50_30.842,3.868,39.9,0,0.768,0,0,0,0, ,0,0,0,0,0, ,1029.7,193.6,-82.6,-5.2,-15.7,13.2,25,859.898,291.542,181.348,5.67486,-55.2372,19.7104,
2026_07_06_17_50_30.863,3.868,40,0,0.767,0,0,0,0, ,0,0,0,0,0, ,1039.5,188.4,-95.4,-2.6,-11.1,10.9,25,870.544,285.415,164.874,5.09139,-52.6877,19.2436,
2026_07_06_17_50_30.883,3.868,40,0,0.766,0,0,0,0, ,0,0,0,0,0, ,1067.6,219.9,-79.9,1,-8.3,11,25,881.696,280.463,149.485,4.73238,-50.0681,18.7382,
2026_07_06_17_50_30.901,3.868,40,0,0.767,0,0,0,0, ,0,0,0,0,0, ,1120.1,273.8,-10,8.4,-11.6,21,25,894.624,278.415,137.637,4.73041,-47.6234,18.5714,
2026_07_06_17_50_30.920,3.868,40.1,0,0.766,0,0,0,0, ,0,0,0,0,0, ,1158.9,293.8,46.5,10.9,-32.1,36.6,25,909.546,278.743,130.362,5.0302,-46.0529,19.1947,
2026_07_06_17_50_30.941,3.868,40,0,0.767,0,0,0,0, ,0,0,0,0,0, ,1195.8,255.6,9.6,5.3,-48,48,25,925.865,278.497,124.127,5.21726,-45.6871,20.6026,
2026_07_06_17_50_30.961,3.868,40,0,0.766,0,0,0,0, ,0,0,0,0,0, ,1239.3,227.1,-60.1,2.8,-50.6,53.2,25,943.64,276.233,115.025,5.14613,-45.9072,22.4306,
2026_07_06_17_50_30.980,3.868,40.1,0,0.766,0,0,0,0, ,0,0,0,0,0, ,1286.9,224.4,-111.5,5.8,-45.8,58.5,25,963.107,273.157,102.787,5.09457,-46.0469,24.4671,
2026_07_06_17_50_31.001,3.868,40,0,0.766,0,0,0,0, ,0,0,0,0,0, ,1315.5,242.5,-138.1,8,-36.3,74.7,25,983.709,270.737,88.9183,5.20459,-45.7424,27.0346,
2026_07_06_17_50_31.019,3.868,40,0,0.767,0,0,0,0, ,0,0,0,0,0, ,1317.2,201.1,-106.4,2.3,-24.2,86,25,1003.98,267.755,76.0502,5.20126,-44.7984,30.2835,
2026_07_06_17_50_31.040,3.868,40,0,0.768,0,0,0,0, ,0,0,0,0,0, ,1232.5,154.4,-76.7,-1.2,-9,90.3,25,1020.49,262.27,65.8371,4.91783,-43.08,33.8097,
2026_07_06_17_50_31.059,3.868,40,0,0.767,0,0,0,0, ,0,0,0,0,0, ,1149.2,98.3,-82.1,-11.9,-3.3,84.3,25,1030.87,253.988,56.9867,4.21901,-40.8296,37.0693,
2026_07_06_17_50_31.080,3.868,40,0,0.766,0,0,0,0, ,0,0,0,0,0, ,1105.7,72.5,-108.8,-16.4,-8.9,79.4,25,1036.75,243.714,47.6976,3.09965,-38.7133,39.7981,
2026_07_06_17_50_31.099,3.868,39.9,0,0.766,0,0,0,0, ,0,0,0,0,0, ,1112.9,107.4,-113.2,-14,-20.7,105.8,25,1041.17,234.344,38.027,1.98451,-37.2561,43.0157,
2026_07_06_17_50_31.119,3.868,39.9,0,0.766,0,0,0,0, ,0,0,0,0,0, ,1061.2,52.3,-123.9,-13.1,-39.4,128.1,25,1043.97,224.93,28.4855,1.03788,-36.8169,47.5211,
2026_07_06_17_50_31.139,3.868,39.9,0,0.767,0,0,0,0, ,0,0,0,0,0, ,1000.1,-28.1,-136.4,-16.3,-46,132.2,25,1043.16,211.96,18.8187,0.0788499,-37.1754,52.5563,
2026_07_06_17_50_31.159,3.868,39.9,0,0.766,0,0,0,0, ,0,0,0,0,0, ,932.1,-124.5,-146.4,-16.4,-50.5,130.5,25,1038.46,194.395,9.05537,-0.922283,-37.8503,57.3578,
2026_07_06_17_50_31.178,3.868,39.9,0,0.767,0,0,0,0, ,0,0,0,0,0, ,860.9,-181.7,-203.3,-12.1,-60.4,122.6,25,1029.81,173.219,-2.15136,-1.73444,-38.9228,61.5742,
2026_07_06_17_50_31.199,3.868,39.9,0,0.767,0,0,0,0, ,0,0,0,0,0, ,883.3,-145.5,-268.1,-8.3,-61.4,134.3,25,1020.2,152.694,-16.3832,-2.25031,-40.262,65.6494,
2026_07_06_17_50_31.218,3.868,40,0,0.766,0,0,0,0, ,0,0,0,0,0, ,804.5,-237,-270,-7,-64.2,148.9,25,1009.46,131.735,-31.7801,-2.57935,-41.6354,70.2777,
2026_07_06_17_50_31.237,3.868,39.9,0,0.768,0,0,0,0, ,0,0,0,0,0, ,727.1,-316.5,-255.8,-1.3,-69.1,143.8,25,994.609,106.843,-45.864,-2.67507,-43.1597,74.9133,
2026_07_06_17_50_31.258,3.868,40.1,0,0.766,0,0,0,0, ,0,0,0,0,0, ,694.8,-350.4,-280.2,5.6,-72.9,138.2,25,977.324,80.0127,-59.4004,-2.38104,-44.8563,78.9405,
2026_07_06_17_50_31.278,3.868,39.9,0,0.766,0,0,0,0, ,0,0,0,0,0, ,670.8,-395.5,-319.8,4.1,-67,128.3,25,959.376,52.4103,-74.0619,-1.9404,-46.3854,82.25,
2026_07_06_17_50_31.296,3.868,39.9,0,0.767,0,0,0,0, ,0,0,0,0,0, ,672.6,-398.8,-351.4,4.2,-51.8,125.6,25,941.846,25.0152,-89.9994,-1.56926,-47.1785,84.9739,
2026_07_06_17_50_31.317,3.868,39.9,0,0.766,0,0,0,0, ,0,0,0,0,0, ,616.5,-430,-335,0,-46.1,124.1,25,923.73,-1.76162,-105.429,-1.34567,-47.2864,87.4038,
2026_07_06_17_50_31.336,3.868,40,0,0.767,0,0,0,0, ,0,0,0,0,0, ,578.4,-463.1,-319.4,1.3,-55,123,25,903.847,-28.8659,-118.943,-1.22406,-47.4853,89.6065,
2026_07_06_17_50_31.358,3.868,40,0,0.768,0,0,0,0, ,0,0,0,0,0, ,583.8,-474.8,-336.7,-1.8,-58.8,115.1,25,884.18,-55.6835,-131.685,-1.1647,-48.059,91.4007,
2026_07_06_17_50_31.377,3.868,40,0,0.769,0,0,0,0, ,0,0,0,0,0, ,566.7,-542.9,-401.7,-7.4,-48.7,104.3,25,865.354,-83.2984,-146.159,-1.37404,-48.4058,92.5158,
2026_07_06_17_50_31.397,3.868,40,0,0.766,0,0,0,0, ,0,0,0,0,0, ,532.8,-553.8,-416.7,-2.3,-43,107.4,25,846.122,-111.637,-162.188,-1.58585,-48.2501,93.3284,
2026_07_06_17_50_31.417,3.868,40,0,0.768,0,0,0,0, ,0,0,0,0,0, ,475.7,-569,-396.2,8.7,-49.7,116.4,25,825.289,-139.045,-177.073,-1.29422,-48.1343,94.4601,
2026_07_06_17_50_31.437,3.868,39.9,0,0.767,0,0,0,0, ,0,0,0,0,0, ,441.8,-592,-402.8,1.2,-49.9,112.4,25,802.953,-165.946,-190.627,-0.91371,-48.2358,95.6752,
2026_07_06_17_50_31.456,3.868,39.9,0,0.766,0,0,0,0, ,0,0,0,0,0, ,397.8,-656.1,-433.2,-11,-36.8,97,25,779.605,-193.862,-204.482,-1.15662,-47.9381,96.2251,
2026_07_06_17_50_31.475,3.868,39.9,0,0.767,0,0,0,0, ,0,0,0,0,0, ,337.6,-712.4,-457.7,-14.8,-25.1,82.5,25,754.504,-223.745,-219.166,-1.87224,-46.9029,95.8305,
2026_07_06_17_50_31.495,3.868,40,0,0.766,0,0,0,0, ,0,0,0,0,0, ,282.5,-730.2,-472.4,-7.6,-27.3,74.8,25,727.42,-254.065,-234.15,-2.44065,-45.6413,94.7836,
2026_07_06_17_50_31.516,3.868,39.9,0,0.767,0,0,0,0, ,0,0,0,0,0, ,268,-718.3,-493.6,-3,-30.5,72.8,25,699.866,-282.716,-249.314,-2.61489,-44.6211,93.5049,
2026_07_06_17_50_31.534,3.868,39.9,0,0.767,0,0,0,0, ,0,0,0,0,0, ,278.5,-740.6,-507.8,-7.2,-22.7,65.5,25,673.869,-309.939,-264.633,-2.76633,-43.5229,92.0208,
2026_07_06_17_50_31.557,3.868,39.9,0,0.766,0,0,0,0, ,0,0,0,0,0, ,252.1,-778.6,-504,-16.1,-6.2,47.3,25,648.972,-337.34,-279.335,-3.30767,-41.7513,89.8501,
2026_07_06_17_50_31.573,3.868,39.9,0,0.768,0,0,0,0, ,0,0,0,0,0, ,237,-794.3,-489.8,-18.5,0,37.9,25,624.328,-364.708,-292.593,-4.16033,-39.396,86.9708,
2026_07_06_17_50_31.596,3.868,39.9,0,0.767,0,0,0,0, ,0,0,0,0,0, ,222.1,-788.3,-471.3,-14.1,-0.6,26.6,25,600.271,-390.704,-304.047,-4.90009,-37.0136,83.6363,
2026_07_06_17_50_31.615,3.868,39.9,0,0.767,0,0,0,0, ,0,0,0,0,0, ,254.2,-758.3,-461.3,-9,-8.7,22.9,25,578.204,-414.018,-313.934,-5.30532,-35.0414,80.0479,
2026_07_06_17_50_31.636,3.868,39.9,0,0.767,0,0,0,0, ,0,0,0,0,0, ,293.4,-744.8,-484.4,-7.6,-9.6,21.5,25,559.655,-434.586,-323.618,-5.48781,-33.4637,76.5228,
2026_07_06_17_50_31.654,3.868,39.9,0,0.768,0,0,0,0, ,0,0,0,0,0, ,294.1,-761.5,-491.4,-8.3,-8.7,18.7,25,543.451,-453.999,-333.629,-5.63785,-31.9821,73.0845,
2026_07_06_17_50_31.673,3.868,39.9,0,0.766,0,0,0,0, ,0,0,0,0,0, ,289.4,-787.1,-486.5,-6.2,-11.8,15.4,25,528.113,-473.517,-343.094,-5.73609,-30.6578,69.6699,
2026_07_06_17_50_31.693,3.868,39.9,0,0.767,0,0,0,0, ,0,0,0,0,0, ,307.6,-781.6,-491.4,-3,-11.7,9.5,25,514.121,-492.459,-351.982,-5.66686,-29.5056,66.1831,
2026_07_06_17_50_31.715,3.868,39.9,0,0.768,0,0,0,0, ,0,0,0,0,0, ,324.2,-780.1,-500.3,-5.1,-6.8,5.1,25,502.042,-510.032,-360.749,-5.56833,-28.2712,62.5949,
2026_07_06_17_50_31.733,3.868,39.8,0,0.767,0,0,0,0, ,0,0,0,0,0, ,331,-781,-508.3,-6.7,-1.2,1.6,25,491.412,-526.517,-369.497,-5.58854,-26.7922,58.9847,
2026_07_06_17_50_31.752,3.868,40,0,0.766,0,0,0,0, ,0,0,0,0,0, ,335.5,-776.7,-495.1,-8.1,-3.2,1.3,25,481.774,-541.894,-377.553,-5.69893,-25.2936,55.4786,
2026_07_06_17_50_31.772,3.868,39.9,0,0.767,0,0,0,0, ,0,0,0,0,0, ,356,-776.7,-504.7,-6.5,-6,1.2,25,473.485,-556.202,-385.008,-5.79649,-24.0326,52.1741,
2026_07_06_17_50_31.793,3.868,40,0,0.766,0,0,0,0, ,0,0,0,0,0, ,367.5,-788,-528,-9.5,1.1,-2.9,25,466.676,-569.983,-393.012,-5.93077,-22.7174,48.9429,
2026_07_06_17_50_31.812,3.868,39.9,0,0.767,0,0,0,0, ,0,0,0,0,0, ,362.3,-800.4,-539.6,-12.9,6,-6.7,25,460.474,-583.646,-401.591,-6.25186,-21.1167,45.668,
2026_07_06_17_50_31.833,3.868,39.8,0,0.767,0,0,0,0, ,0,0,0,0,0, ,362.4,-786.1,-523.4,-12.5,6.3,-6.3,25,454.495,-596.419,-409.507,-6.6448,-19.4552,42.489,
2026_07_06_17_50_31.854,3.868,39.9,0,0.767,0,0,0,0, ,0,0,0,0,0, ,364.8,-766.4,-509,-10.3,5.4,-3.3,25,448.956,-607.377,-416.009,-6.93457,-17.9131,39.6073,
2026_07_06_17_50_31.875,3.868,39.8,0,0.767,0,0,0,0, ,0,0,0,0,0, ,376,-769.7,-504.7,-8.3,3,-0.4,25,444.169,-617.168,-421.545,-7.07871,-16.5656,37.081,
2026_07_06_17_50_31.891,3.868,40,0,0.768,0,0,0,0, ,0,0,0,0,0, ,381.7,-778.5,-513.9,-7,1.1,0.3,25,440.188,-626.731,-426.892,-7.11352,-15.4312,34.8183,
2026_07_06_17_50_31.912,3.868,39.8,0,0.766,0,0,0,0, ,0,0,0,0,0, ,365.6,-789.3,-524.4,-5.9,1.6,-0.4,25,436.134,-636.309,-432.514,-7.07309,-14.4086,32.6936,
2026_07_06_17_50_31.931,3.868,39.9,0,0.767,0,0,0,0, ,0,0,0,0,0, ,355.7,-789,-516.7,-3.4,-2.5,0.5,25,431.534,-645.623,-437.879,-6.92543,-13.558,30.7043,
2026_07_06_17_50_31.951,3.868,39.9,0,0.767,0,0,0,0, ,0,0,0,0,0, ,367.9,-753.9,-515.7,-1.5,-4.2,2.4,25,427.285,-653.29,-442.652,-6.65271,-12.936,28.9216,
2026_07_06_17_50_31.971,3.868,39.8,0,0.766,0,0,0,0, ,0,0,0,0,0, ,380,-754,-527.7,-5.3,3.2,2,25,424.034,-659.424,-447.469,-6.4545,-12.1782,27.2933,
2026_07_06_17_50_31.994,3.868,39.8,0,0.767,0,0,0,0, ,0,0,0,0,0, ,362.5,-782.4,-525.5,-7.1,7.4,1.2,25,420.818,-666.053,-452.291,-6.43899,-11.1131,25.7276,
2026_07_06_17_50_32.009,3.868,39.9,0,0.767,0,0,0,0, ,0,0,0,0,0, ,346.5,-789.5,-520.1,-4.1,5.4,-0.5,25,416.777,-673.359,-456.587,-6.38786,-10.0459,24.1812,
2026_07_06_17_50_32.032,3.868,39.9,0,0.767,0,0,0,0, ,0,0,0,0,0, ,344.6,-767.5,-507.6,-3,1.8,-1.9,25,412.436,-679.766,-460.077,-6.21493,-9.21433,22.6345,
2026_07_06_17_50_32.054,3.868,39.8,0,0.768,0,0,0,0, ,0,0,0,0,0, ,365.3,-756.1,-507.4,-3.1,-1.2,-1.7,25,408.933,-684.765,-462.967,-6.02207,-8.63455,21.1455,
2026_07_06_17_50_32.074,3.868,39.9,0,0.767,0,0,0,0, ,0,0,0,0,0, ,379,-757.9,-522.2,-2.8,2,-1,25,406.692,-689.167,-466.125,-5.83487,-8.08401,19.7747,
2026_07_06_17_50_32.089,3.868,39.8,0,0.766,0,0,0,0, ,0,0,0,0,0, ,365.4,-761.3,-513.3,-4.1,6.4,-2.1,25,404.59,-693.459,-469.271,-5.68954,-7.33545,18.4752,
2026_07_06_17_50_32.110,3.868,39.9,0,0.767,0,0,0,0, ,0,0,0,0,0, ,346.5,-771.2,-503.7,-3.7,5.6,-2.5,25,401.626,-697.894,-471.662,-5.58049,-6.52282,17.2092,
2026_07_06_17_50_32.130,3.868,39.9,0,0.766,0,0,0,0, ,0,0,0,0,0, ,347.6,-782.8,-509.8,-1.5,-0.1,-1.8,25,398.3,-702.715,-473.8,-5.39886,-5.95776,16.0295,
2026_07_06_17_50_32.151,3.868,39.8,0,0.766,0,0,0,0, ,0,0,0,0,0, ,356.8,-775.5,-514,-1.7,-0.6,-3.4,25,395.491,-707.373,-476.122,-5.16737,-5.61604,14.8943,
2026_07_06_17_50_32.169,3.868,39.8,0,0.767,0,0,0,0, ,0,0,0,0,0, ,347.9,-780.2,-512.8,-2.9,-0.6,-4.3,25,392.862,-711.667,-478.393,-4.99264,-5.31037,13.7521,
2026_07_06_17_50_32.190,3.868,39.9,0,0.766,0,0,0,0, ,0,0,0,0,0, ,350.3,-788.3,-525.8,0.1,-3.4,-3.1,25,390.195,-716.09,-480.886,-4.77371,-5.10865,12.6886,
2026_07_06_17_50_32.209,3.868,39.9,0,0.767,0,0,0,0, ,0,0,0,0,0, ,376.8,-762.9,-533.3,1.4,-1,-2.7,25,388.572,-719.717,-483.851,-4.43711,-4.9314,11.7387,
2026_07_06_17_50_32.232,3.868,39.9,0,0.767,0,0,0,0, ,0,0,0,0,0, ,387.6,-762.3,-522.8,-0.5,3.1,-2.9,25,388.183,-722.33,-486.545,-4.1393,-4.56691,10.8527,
2026_07_06_17_50_32.247,3.868,39.8,0,0.767,0,0,0,0, ,0,0,0,0,0, ,384.1,-764.7,-515.5,-2.7,3.5,-3.4,25,388.041,-724.839,-488.532,-3.98457,-4.08752,9.99941,
2026_07_06_17_50_32.269,3.868,39.8,0,0.767,0,0,0,0, ,0,0,0,0,0, ,370.9,-764.2,-507.5,-4.6,1.1,-4.2,25,387.399,-727.253,-489.931,-3.96418,-3.69828,9.15851,
2026_07_06_17_50_32.288,3.868,39.8,0,0.768,0,0,0,0, ,0,0,0,0,0, ,364.9,-763.5,-507.9,-4.8,-2.6,-3.3,25,386.211,-729.483,-491.014,-4.00902,-3.51862,8.3719,
2026_07_06_17_50_32.310,3.868,39.8,0,0.768,0,0,0,0, ,0,0,0,0,0, ,385.9,-766.2,-529.2,-1.9,-8.4,-0.9,25,385.552,-731.638,-492.692,-3.96886,-3.63936,7.73377,
2026_07_06_17_50_32.328,3.868,39.8,0,0.765,0,0,0,0, ,0,0,0,0,0, ,409.9,-762.9,-554.3,-1.5,-1.6,-2.3,25,386.304,-733.644,-495.682,-3.8306,-3.72227,7.16499,
2026_07_06_17_50_32.347,3.868,39.8,0,0.766,0,0,0,0, ,0,0,0,0,0, ,394.8,-767.7,-544.3,-4.7,7.6,-3.5,25,387.282,-735.573,-498.949,-3.78608,-3.31264,6.55166,
2026_07_06_17_50_32.369,3.868,39.9,0,0.766,0,0,0,0, ,0,0,0,0,0, ,371.7,-775.3,-526.2,-4.3,5.8,-3.8,25,387.036,-737.762,-501.161,-3.82958,-2.70249,5.92999,
2026_07_06_17_50_32.392,3.868,39.8,0,0.766,0,0,0,0, ,0,0,0,0,0, ,364.3,-767.3,-521.7,-2.8,0.8,-2,25,385.876,-739.806,-502.55,-3.81255,-2.33671,5.39192,
2026_07_06_17_50_32.407,3.868,39.8,0,0.767,0,0,0,0, ,0,0,0,0,0, ,369.6,-755.3,-515.2,-2.3,-2.7,-1.5,25,384.723,-741.115,-503.519,-3.73561,-2.25221,4.95671,
2026_07_06_17_50_32.429,3.868,39.8,0,0.766,0,0,0,0, ,0,0,0,0,0, ,372.8,-760.1,-526.7,-2,-2.6,-1.4,25,383.899,-742.126,-504.581,-3.63899,-2.27645,4.5663,
2026_07_06_17_50_32.446,3.868,39.8,0,0.765,0,0,0,0, ,0,0,0,0,0, ,376,-764.6,-530.5,-0.9,-1,-1.8,25,383.32,-743.358,-506.045,-3.5056,-2.24742,4.19054,
2026_07_06_17_50_32.467,3.868,39.8,0,0.766,0,0,0,0, ,0,0,0,0,0, ,366.9,-765,-522.3,-0.1,0,-1.3,25,382.597,-744.665,-507.285,-3.32244,-2.14093,3.84072,
2026_07_06_17_50_32.486,3.868,39.9,0,0.766,0,0,0,0, ,0,0,0,0,0, ,358.2,-769.6,-519,-0.4,-1.6,-1.4,25,381.375,-746.044,-508.099,-3.13521,-2.05922,3.52441,
2026_07_06_17_50_32.508,3.868,39.8,0,0.768,0,0,0,0, ,0,0,0,0,0, ,361.5,-768.7,-519.8,-0.3,-4.4,-1.2,25,380.063,-747.452,-508.788,-2.96549,-2.11655,3.23043,
2026_07_06_17_50_32.525,3.868,39.8,0,0.766,0,0,0,0, ,0,0,0,0,0, ,370.9,-761.3,-528.5,-0.8,-3.9,-2.3,25,379.219,-748.522,-509.724,-2.8183,-2.24046,2.92693,
2026_07_06_17_50_32.549,3.868,39.9,0,0.766,0,0,0,0, ,0,0,0,0,0, ,366.5,-767.8,-526.9,-2.9,-0.5,-3,25,378.578,-749.498,-510.82,-2.75929,-2.238,2.58709,
2026_07_06_17_50_32.565,3.868,39.9,0,0.767,0,0,0,0, ,0,0,0,0,0, ,360.7,-781.3,-536.1,-0.9,-0.8,-2.2,25,377.665,-751.025,-512.08,-2.70693,-2.14123,2.271,
2026_07_06_17_50_32.586,3.868,39.8,0,0.766,0,0,0,0, ,0,0,0,0,0, ,367.4,-771.4,-527.8,1.7,-3,-2,25,376.835,-752.568,-513.291,-2.5176,-2.12653,2.00464,
2026_07_06_17_50_32.605,3.868,39.9,0,0.766,0,0,0,0, ,0,0,0,0,0, ,379,-757.5,-514.2,1.5,-2.5,-3.3,25,376.614,-753.292,-513.76,-2.26668,-2.16452,1.721,
2026_07_06_17_50_32.627,3.868,39.9,0,0.767,0,0,0,0, ,0,0,0,0,0, ,375.4,-754.1,-512.9,-0.2,0.2,-4.8,25,376.65,-753.445,-513.748,-2.08895,-2.1027,1.36933,
2026_07_06_17_50_32.644,3.868,39.7,0,0.767,0,0,0,0, ,0,0,0,0,0, ,373.4,-754.7,-513,-1.8,-0.5,-4,25,376.512,-753.503,-513.699,-2.02259,-1.98371,1.01776,
2026_07_06_17_50_32.666,3.868,39.8,0,0.767,0,0,0,0, ,0,0,0,0,0, ,381.4,-762.2,-510.6,-1.6,-3.1,-1.5,25,376.567,-753.805,-513.583,-2.00293,-1.97251,0.788163,
2026_07_06_17_50_32.685,3.868,39.9,0,0.768,0,0,0,0, ,0,0,0,0,0, ,387.6,-761.7,-517.3,-1.4,-2.9,-1.1,25,377.05,-754.301,-513.606,-1.97229,-2.03512,0.660916,
2026_07_06_17_50_32.706,3.868,39.9,0,0.765,0,0,0,0, ,0,0,0,0,0, ,384.3,-762.3,-527,-1.1,-1.2,-1.1,25,377.592,-754.77,-514.126,-1.92827,-2.03603,0.55361,
2026_07_06_17_50_32.723,3.868,39.8,0,0.767,0,0,0,0, ,0,0,0,0,0, ,380.3,-765.8,-527.3,0,-1.3,-1.2,25,377.879,-755.336,-514.92,-1.84428,-1.98813,0.449796,
2026_07_06_17_50_32.746,3.868,39.7,0,0.767,0,0,0,0, ,0,0,0,0,0, ,378,-767.8,-531.7,-0.4,-0.7,-1.8,25,377.957,-756.034,-515.808,-1.74408,-1.92792,0.33098,
2026_07_06_17_50_32.762,3.868,39.8,0,0.767,0,0,0,0, ,0,0,0,0,0, ,380.1,-769.5,-529,-1.6,2,-2.1,25,378.023,-756.803,-516.694,-1.69874,-1.77083,0.191983,
2026_07_06_17_50_32.785,3.868,39.8,0,0.768,0,0,0,0, ,0,0,0,0,0, ,370.1,-761.8,-516.3,-2.5,1.9,-1.9,25,377.845,-757.342,-517.057,-1.72015,-1.54409,0.0584092,
2026_07_06_17_50_32.802,3.868,39.9,0,0.767,0,0,0,0, ,0,0,0,0,0, ,377,-758.7,-520,-1.9,-0.7,-0.6,25,377.583,-757.519,-517.124,-1.74939,-1.41343,-0.021322,
2026_07_06_17_50_32.824,3.868,39.6,0,0.766,0,0,0,0, ,0,0,0,0,0, ,379.2,-758.9,-530.8,-1.5,0.4,-0.9,25,377.615,-757.597,-517.628,-1.74638,-1.33644,-0.0657258,
2026_07_06_17_50_32.843,3.868,39.9,0,0.766,0,0,0,0, ,0,0,0,0,0, ,371.5,-772,-526.1,-2.2,0.5,-1.4,25,377.477,-758.076,-518.288,-1.75269,-1.22758,-0.131799,
2026_07_06_17_50_32.865,3.868,39.7,0,0.766,0,0,0,0, ,0,0,0,0,0, ,366.8,-777.7,-536.3,0.4,-1.6,0.5,25,376.969,-759.098,-519.075,-1.70073,-1.18629,-0.151189,
2026_07_06_17_50_32.882,3.868,39.8,0,0.766,0,0,0,0, ,0,0,0,0,0, ,366.2,-765.9,-524.4,1,0.3,-0.9,25,376.331,-759.872,-519.762,-1.55444,-1.15361,-0.154164,
2026_07_06_17_50_32.904,3.868,39.7,0,0.767,0,0,0,0, ,0,0,0,0,0, ,359.3,-759.7,-515.8,-3.3,4,-2.8,25,375.504,-760.051,-519.782,-1.52979,-0.952297,-0.257504,
2026_07_06_17_50_32.921,3.868,39.8,0,0.767,0,0,0,0, ,0,0,0,0,0, ,350.7,-767.2,-512.4,-4.4,1.2,-3.1,25,374.254,-760.258,-519.436,-1.67118,-0.735829,-0.421578,
2026_07_06_17_50_32.944,3.868,39.8,0,0.766,0,0,0,0, ,0,0,0,0,0, ,355.2,-782.1,-511.2,-2.5,-3.2,-1.7,25,372.956,-761.135,-518.971,-1.77958,-0.751927,-0.542138,
2026_07_06_17_50_32.961,3.868,39.8,0,0.766,0,0,0,0, ,0,0,0,0,0, ,356.2,-767.9,-526.6,0.6,-3.4,-2.8,25,371.905,-761.98,-518.966,-1.72902,-0.9072,-0.646211,
2026_07_06_17_50_32.985,3.868,39.9,0,0.766,0,0,0,0, ,0,0,0,0,0, ,360.5,-762.3,-530.7,-0.6,-1.3,-3.8,25,371.079,-762.17,-519.557,-1.62366,-0.995121,-0.807926,
2026_07_06_17_50_33.000,3.868,39.7,0,0.767,0,0,0,0, ,0,0,0,0,0, ,362.3,-761.1,-531.1,-0.5,-0.6,-4.4,25,370.489,-762.141,-520.248,-1.55824,-0.992371,-1.00854,
2026_07_06_17_50_33.023,3.868,39.7,0,0.766,0,0,0,0, ,0,0,0,0,0, ,360.8,-751.8,-519.8,-1.8,1.6,-5.8,25,369.944,-761.794,-520.565,-1.53336,-0.90143,-1.25786,
2026_07_06_17_50_33.040,3.868,39.8,0,0.765,0,0,0,0, ,0,0,0,0,0, ,350.2,-753.6,-509.5,-4,2.5,-7.8,25,369.064,-761.24,-520.204,-1.61664,-0.721577,-1.59558,
2026_07_06_17_50_33.065,3.868,39.8,0,0.766,0,0,0,0, ,0,0,0,0,0, ,329.7,-744.2,-501.8,-4,1.9,-9.4,25,367.29,-760.488,-519.317,-1.76187,-0.543544,-2.02242,
2026_07_06_17_50_33.080,3.868,39.7,0,0.767,0,0,0,0, ,0,0,0,0,0, ,313.3,-736.4,-508,-2.8,0.9,-11.5,25,364.499,-759.258,-518.439,-1.8617,-0.425109,-2.53597,
2026_07_06_17_50_33.104,3.868,39.8,0,0.766,0,0,0,0, ,0,0,0,0,0, ,258,-751.7,-528,-4.9,10.9,-20.1,25,359.695,-758.331,-518.412,-1.98286,-0.0396726,-3.34425,
2026_07_06_17_50_33.119,3.868,39.7,0,0.767,0,0,0,0, ,0,0,0,0,0, ,159.1,-777.3,-533,-9.7,21.8,-33.1,25,350.484,-758.707,-519.149,-2.30687,0.959073,-4.7614,
2026_07_06_17_50_33.142,3.868,39.8,0,0.767,0,0,0,0, ,0,0,0,0,0, ,53.5,-795.4,-522,-7.9,22,-45.6,25,335.604,-760.392,-519.658,-2.70255,2.23516,-6.86914,
2026_07_06_17_50_33.159,3.868,39.8,0,0.767,0,0,0,0, ,0,0,0,0,0, ,-18.7,-789.9,-498.6,-0.5,14.7,-58.2,25,316.214,-762.357,-519.087,-2.7938,3.21716,-9.61321,
2026_07_06_17_50_33.184,3.868,39.7,0,0.767,0,0,0,0, ,0,0,0,0,0, ,-1.8,-743.4,-489.9,3.9,21.7,-79.7,25,296.32,-762.619,-517.574,-2.51996,4.13018,-13.229,
2026_07_06_17_50_33.198,3.868,39.7,0,0.766,0,0,0,0, ,0,0,0,0,0, ,34.9,-680.7,-476.9,-9.4,60.5,-120.3,25,279.271,-759.537,-515.491,-2.53398,6.38302,-18.5166,
2026_07_06_17_50_33.221,3.868,39.7,0,0.767,0,0,0,0, ,0,0,0,0,0, ,62.3,-657.8,-478.8,-30.1,88.9,-156.5,25,265.215,-754.036,-513.198,-3.58308,10.5461,-25.822,
2026_07_06_17_50_33.238,3.868,39.7,0,0.766,0,0,0,0, ,0,0,0,0,0, ,122.5,-626.2,-492.4,-22.9,77.1,-164.8,25,254.684,-747.208,-511.516,-4.97958,14.9612,-34.0381,
2026_07_06_17_50_33.262,3.868,39.7,0,0.766,0,0,0,0, ,0,0,0,0,0, ,222,-541,-466.1,6.1,48.3,-158,25,249.661,-737.238,-509.55,-5.18801,17.8703,-41.7992,
2026_07_06_17_50_33.277,3.868,39.7,0,0.768,0,0,0,0, ,0,0,0,0,0, ,331.7,-452.1,-436.5,16.7,47.2,-167.9,25,251.317,-722.572,-506,-4.17718,19.6911,-49.1819,
2026_07_06_17_50_33.301,3.868,39.8,0,0.766,0,0,0,0, ,0,0,0,0,0, ,430.6,-369.7,-422.2,5.4,60.7,-185.8,25,259.229,-703.579,-501.329,-3.24927,21.7788,-56.9616,
2026_07_06_17_50_33.318,3.868,39.7,0,0.767,0,0,0,0, ,0,0,0,0,0, ,517.5,-333.3,-434.2,0.7,62.5,-189.2,25,272.32,-682.124,-496.873,-2.86541,24.2054,-64.9163,
2026_07_06_17_50_33.341,3.868,39.7,0,0.766,0,0,0,0, ,0,0,0,0,0, ,584.8,-311.2,-453.9,12.9,54.1,-179.6,25,289.311,-660.194,-493.654,-2.27642,26.283,-72.1973,
2026_07_06_17_50_33.363,3.868,39.6,0,0.766,0,0,0,0, ,0,0,0,0,0, ,690,-239.7,-399.1,29.2,44.8,-173.8,25,310.523,-636.749,-489.562,-0.85497,27.6948,-78.5655,
2026_07_06_17_50_33.386,3.868,39.7,0,0.765,0,0,0,0, ,0,0,0,0,0, ,806.6,-122.9,-339.4,26.1,51.3,-176.7,25,337.2,-608.995,-482.23,0.882052,28.9352,-84.4572,
2026_07_06_17_50_33.397,3.868,39.7,0,0.767,0,0,0,0, ,0,0,0,0,0, ,835,-91.6,-296.7,12.9,71.9,-178.9,25,366.669,-578.42,-472.226,2.01658,30.9257,-90.1453,
2026_07_06_17_50_33.421,3.868,39.6,0,0.765,0,0,0,0, ,0,0,0,0,0, ,806.6,-40.2,-300.9,7.2,72.1,-174,25,394.343,-547.188,-461.657,2.50612,33.4286,-95.4045,
2026_07_06_17_50_33.437,3.868,39.7,0,0.766,0,0,0,0, ,0,0,0,0,0, ,955.5,-33,-321.8,28,30.9,-154.2,25,424.001,-516.074,-452.498,3.4259,34.5299,-99.5906,
2026_07_06_17_50_33.461,3.868,39.7,0,0.766,0,0,0,0, ,0,0,0,0,0, ,1159.1,126.2,-351.9,55.4,13.1,-132.8,25,462.593,-481.786,-445.451,5.75823,33.7663,-102.266,
2026_07_06_17_50_33.477,3.868,39.7,0,0.767,0,0,0,0, ,0,0,0,0,0, ,1269.1,229.2,-279.2,29.6,63.6,-137.4,25,508.388,-441.599,-437.535,7.99718,34.0456,-104.267,
2026_07_06_17_50_33.500,3.868,39.7,0,0.767,0,0,0,0, ,0,0,0,0,0, ,1231.5,153.1,-198.4,-4.7,109.2,-150.7,25,553.598,-403.041,-425.425,8.26852,37.236,-106.691,
2026_07_06_17_50_33.515,3.868,39.6,0,0.768,0,0,0,0, ,0,0,0,0,0, ,1133.5,164.3,-103.6,18.2,65.9,-119.4,25,591.922,-368.81,-408.702,8.17599,40.302,-108.419,
2026_07_06_17_50_33.539,3.868,39.7,0,0.767,0,0,0,0, ,0,0,0,0,0, ,1190.3,233,-121.2,57.4,-18.6,-69.2,25,626.655,-334.23,-390.646,9.9812,39.2873,-107.559,
2026_07_06_17_50_33.555,3.868,39.6,0,0.766,0,0,0,0, ,0,0,0,0,0, ,1337.6,348.9,-125.1,59.6,-27.2,-43.6,25,665.49,-296.133,-374.345,12.9378,35.4977,-104.442,
2026_07_06_17_50_33.578,3.868,39.7,0,0.765,0,0,0,0, ,0,0,0,0,0, ,1315.3,304.9,-100.2,21.8,10.5,-49.4,25,705.767,-258.167,-358.398,14.6296,32.8258,-100.911,
2026_07_06_17_50_33.596,3.868,39.7,0,0.767,0,0,0,0, ,0,0,0,0,0, ,1190.1,212.8,-89.9,0.2,29,-56.2,25,739.096,-226.661,-342.351,14.4084,32.029,-97.979,
2026_07_06_17_50_33.619,3.868,39.7,0,0.767,0,0,0,0, ,0,0,0,0,0, ,1088.3,152.2,-108.8,0.5,9.8,-46.5,25,763.477,-201.728,-327.543,13.5517,31.2594,-95.1376,
2026_07_06_17_50_33.634,3.868,39.6,0,0.767,0,0,0,0, ,0,0,0,0,0, ,1119.5,162.8,-202.2,11,-9.8,-32.6,25,784.222,-179.838,-317.059,13.0763,29.3545,-91.7502,
2026_07_06_17_50_33.658,3.868,39.7,0,0.767,0,0,0,0, ,0,0,0,0,0, ,1187.5,199.7,-263.5,2.3,9.2,-31.1,25,806.725,-157.834,-311.927,12.6847,27.5474,-88.1,
2026_07_06_17_50_33.675,3.868,39.7,0,0.767,0,0,0,0, ,0,0,0,0,0, ,1172.2,161.4,-271.1,-17.5,50.3,-42.2,25,829.462,-137.214,-309.208,11.4486,27.6817,-84.9648,
2026_07_06_17_50_33.698,3.868,39.6,0,0.766,0,0,0,0, ,0,0,0,0,0, ,1078,124.8,-229,-14.4,61.7,-44.3,25,847.478,-120.132,-305.603,9.77899,29.4073,-82.4228,
2026_07_06_17_50_33.720,3.868,39.5,0,0.766,0,0,0,0, ,0,0,0,0,0, ,1051.1,141.9,-180.5,-0.6,42.7,-32.5,25,860.705,-104.685,-299.457,8.72606,30.7962,-79.7402,
2026_07_06_17_50_33.744,3.868,39.6,0,0.766,0,0,0,0, ,0,0,0,0,0, ,1060,187.2,-137.4,19.2,-1.9,-8.2,25,872.579,-88.2789,-290.895,8.76103,30.1627,-76.1211,
2026_07_06_17_50_33.753,3.868,39.6,0,0.766,0,0,0,0, ,0,0,0,0,0, ,1072.7,157.4,-57.6,12.3,-0.8,-2.5,25,884.387,-72.3999,-279.11,9.18692,28.2424,-71.8085,
2026_07_06_17_50_33.778,3.868,39.7,0,0.767,0,0,0,0, ,0,0,0,0,0, ,1045.2,175.5,-56.2,-14.7,10.5,-19.8,25,895.024,-57.845,-265.569,8.55397,26.8169,-68.1121,
2026_07_06_17_50_33.793,3.868,39.5,0,0.766,0,0,0,0, ,0,0,0,0,0, ,1078.9,155.1,-128.9,-22.7,-8.5,-18.1,25,905.202,-44.2471,-255.026,6.89318,25.2437,-65.1163,
2026_07_06_17_50_33.817,3.868,39.6,0,0.766,0,0,0,0, ,0,0,0,0,0, ,1101,152.4,-245.8,-8.1,-32.1,-0.6,25,916.46,-32.1817,-250.902,5.53469,22.4684,-61.718,
2026_07_06_17_50_33.834,3.868,39.6,0,0.766,0,0,0,0, ,0,0,0,0,0, ,1125.7,172.4,-325.1,3.6,-25.7,13.9,25,928.458,-20.3243,-253.007,5.06031,19.3381,-57.5518,
2026_07_06_17_50_33.859,3.868,39.7,0,0.767,0,0,0,0, ,0,0,0,0,0, ,1073.8,113.2,-302,-2.9,6.6,6.7,25,938.896,-10.384,-256.696,4.77327,17.5778,-53.4171,
2026_07_06_17_50_33.872,3.868,39.7,0,0.766,0,0,0,0, ,0,0,0,0,0, ,978.1,128.6,-221.3,-9.1,35.6,-9.2,25,944.201,-2.38384,-256.998,4.11678,17.7924,-50.2382,
2026_07_06_17_50_33.897,3.868,39.5,0,0.766,0,0,0,0, ,0,0,0,0,0, ,910.6,126.3,-125.2,-5.6,28.3,-8.2,25,944.21,5.52791,-251.895,3.41802,18.6551,-47.707,
2026_07_06_17_50_33.912,3.868,39.6,0,0.768,0,0,0,0, ,0,0,0,0,0, ,903.3,135.6,-102.6,3.4,10.7,-5,25,941.94,13.1708,-243.486,3.1427,18.7066,-45.202,
2026_07_06_17_50_33.937,3.868,39.6,0,0.766,0,0,0,0, ,0,0,0,0,0, ,911.6,144.4,-105.8,-1.5,3.7,-2.3,25,939.838,20.8995,-234.998,3.00909,18.0054,-42.6699,
2026_07_06_17_50_33.952,3.868,39.7,0,0.767,0,0,0,0, ,0,0,0,0,0, ,937.8,130.3,-138.3,-5.3,-1.3,-6.6,25,938.916,27.9957,-228.115,2.61853,16.9813,-40.3409,
2026_07_06_17_50_33.976,3.868,39.7,0,0.765,0,0,0,0, ,0,0,0,0,0, ,980.4,132.8,-161.6,-4.9,-6,-7,25,940.146,34.306,-223.352,2.14819,15.7241,-38.297,
2026_07_06_17_50_33.990,3.868,39.6,0,0.767,0,0,0,0, ,0,0,0,0,0, ,1001.3,153.8,-176.2,-3.1,-9.5,-3.9,25,943.235,40.9478,-220.034,1.77353,14.2937,-36.2954,
2026_07_06_17_50_34.014,3.868,39.7,0,0.767,0,0,0,0, ,0,0,0,0,0, ,1016.7,147.9,-193.3,-6.6,-3,-3.7,25,947.243,47.645,-217.884,1.36991,13.0418,-34.3152,
2026_07_06_17_50_34.031,3.868,39.6,0,0.767,0,0,0,0, ,0,0,0,0,0, ,1012.9,133.7,-205.6,-8,5.6,-6.1,25,951.36,53.3216,-216.761,0.841586,12.3263,-32.5227,
2026_07_06_17_50_34.055,3.868,39.6,0,0.767,0,0,0,0, ,0,0,0,0,0, ,986.6,137.6,-196.5,-5.1,5.9,-5.1,25,954.308,58.3385,-215.803,0.391162,11.9255,-30.8821,
2026_07_06_17_50_34.073,3.868,39.6,0,0.767,0,0,0,0, ,0,0,0,0,0, ,974.8,151.9,-175.1,-1.1,0,-2.1,25,955.917,63.6042,-213.975,0.178419,11.3786,-29.2196,
2026_07_06_17_50_34.097,3.868,39.6,0,0.766,0,0,0,0, ,0,0,0,0,0, ,990.3,155.3,-188.4,0.6,0.1,-2,25,957.54,69.0883,-212.011,0.152312,10.6883,-27.564,
2026_07_06_17_50_34.112,3.868,39.6,0,0.766,0,0,0,0, ,0,0,0,0,0, ,987.9,153.8,-191.7,-2.1,6,-1.8,25,959.463,74.2962,-210.673,0.0973275,10.2228,-26.0001,
2026_07_06_17_50_34.134,3.868,39.6,0,0.767,0,0,0,0, ,0,0,0,0,0, ,972.4,145,-183.8,-1.2,6.1,-2.1,25,960.723,78.8728,-209.276,-0.00915025,9.96852,-24.5345,
2026_07_06_17_50_34.149,3.868,39.6,0,0.767,0,0,0,0, ,0,0,0,0,0, ,959.7,138.9,-173.4,3.3,3.6,-2.8,25,961.048,82.7166,-207.407,0.0553917,9.65661,-23.1887,
2026_07_06_17_50_34.175,3.868,39.5,0,0.767,0,0,0,0, ,0,0,0,0,0, ,986.5,183.9,-158,3.8,4.1,-2.5,25,961.782,87.5113,-204.865,0.268344,9.30277,-21.9372,
2026_07_06_17_50_34.190,3.868,39.6,0,0.766,0,0,0,0, ,0,0,0,0,0, ,1008,187.7,-150.8,-0.7,8.1,0.1,25,963.944,93.5008,-201.79,0.346445,9.1076,-20.6735,
2026_07_06_17_50_34.214,3.868,39.7,0,0.767,0,0,0,0, ,0,0,0,0,0, ,992.4,168.9,-139.8,-2.1,7.4,0.2,25,966.153,98.6682,-198.348,0.240021,9.02487,-19.4046,
2026_07_06_17_50_34.229,3.868,39.6,0,0.767,0,0,0,0, ,0,0,0,0,0, ,980.1,158.4,-124,-1.1,2.7,1.9,25,967.378,102.628,-194.298,0.127895,8.78265,-18.1581,
2026_07_06_17_50_34.256,3.868,39.6,0,0.767,0,0,0,0, ,0,0,0,0,0, ,1014.2,169.5,-129.8,0.5,-2,2.8,25,969.192,106.365,-190.191,0.10182,8.26879,-16.9084,
2026_07_06_17_50_34.268,3.868,39.5,0,0.766,0,0,0,0, ,0,0,0,0,0, ,1076,193.4,-139.6,-1.3,1,5.7,25,973.818,110.94,-186.81,0.0712405,7.73444,-15.6191,
2026_07_06_17_50_34.292,3.868,39.5,0,0.767,0,0,0,0, ,0,0,0,0,0, ,1147.2,235.3,-124.2,-4.2,10,7,25,982.214,117.242,-183.464,-0.100679,7.59828,-14.2803,
2026_07_06_17_50_34.308,3.868,39.5,0,0.769,0,0,0,0, ,0,0,0,0,0, ,1198.4,259.1,-68.6,-9.1,14.8,8.9,25,993.828,125.161,-178.158,-0.499778,7.89088,-12.9257,
2026_07_06_17_50_34.333,3.868,39.5,0,0.766,0,0,0,0, ,0,0,0,0,0, ,1267.9,281.8,-12.4,-9.4,6.2,16.7,25,1008.41,134.015,-169.77,-1.03299,8.04987,-11.358,
2026_07_06_17_50_34.347,3.868,39.5,0,0.767,0,0,0,0, ,0,0,0,0,0, ,1357,337.7,8.4,-9,-8.9,36.5,25,1026.94,144.724,-159.546,-1.53067,7.47707,-9.04493,
2026_07_06_17_50_34.371,3.868,39.5,0,0.765,0,0,0,0, ,0,0,0,0,0, ,1421.8,358.7,-6.2,-12.1,-22.1,63.6,25,1049.03,157.123,-149.757,-2.08029,6.0769,-5.44383,
2026_07_06_17_50_34.387,3.868,39.6,0,0.767,0,0,0,0, ,0,0,0,0,0, ,1368.1,275.8,-55.4,-20.7,-27.9,89.1,25,1070.11,166.881,-142.508,-2.95289,4.18316,-0.459523,
2026_07_06_17_50_34.413,3.868,39.5,0,0.769,0,0,0,0, ,0,0,0,0,0, ,1334.7,210.3,-112.5,-22.3,-26.5,100.1,25,1087.25,171.522,-138.94,-4.08311,2.27075,5.33317,
2026_07_06_17_50_34.427,3.868,39.5,0,0.768,0,0,0,0, ,0,0,0,0,0, ,1285.4,153.8,-146.6,-25.1,-19,106.1,25,1100.82,172.164,-138.367,-5.27851,0.746044,11.2908,
2026_07_06_17_50_34.453,3.868,39.6,0,0.767,0,0,0,0, ,0,0,0,0,0, ,1262.8,124,-146.6,-25.8,-14.7,108.5,25,1111.38,170.137,-138.869,-6.50771,-0.326215,17.1414,
2026_07_06_17_50_34.467,3.868,39.5,0,0.766,0,0,0,0, ,0,0,0,0,0, ,1232.7,107.1,-146.6,-31,-2.8,112,25,1119.69,166.81,-139.34,-7.84177,-0.839539,22.8152,
2026_07_06_17_50_34.491,3.868,39.6,0,0.767,0,0,0,0, ,0,0,0,0,0, ,1136.3,43.8,-161,-40.5,7.2,118.9,25,1123.64,161.243,-140.221,-9.54243,-0.654317,28.4601,
2026_07_06_17_50_34.508,3.868,39.5,0,0.766,0,0,0,0, ,0,0,0,0,0, ,1044.7,-27.5,-146.3,-40.6,-3.1,126.5,25,1121.62,151.914,-141.04,-11.432,-0.489523,34.2029,
2026_07_06_17_50_34.533,3.868,39.5,0,0.768,0,0,0,0, ,0,0,0,0,0, ,1009.1,-55.6,-171.1,-37.1,-14,128.5,25,1115.85,140.125,-142.116,-13.1027,-0.980708,39.8882,
2026_07_06_17_50_34.546,3.868,39.5,0,0.767,0,0,0,0, ,0,0,0,0,0, ,979,-65.7,-176.5,-39.5,-13,127.8,25,1108.43,127.89,-144.047,-14.6382,-1.7436,45.2666,
2026_07_06_17_50_34.573,3.868,39.5,0,0.766,0,0,0,0, ,0,0,0,0,0, ,917.8,-78.8,-187.7,-43.7,-12.7,136.6,25,1098.68,115.694,-146.365,-16.2812,-2.4204,50.5641,
2026_07_06_17_50_34.586,3.868,39.5,0,0.766,0,0,0,0, ,0,0,0,0,0, ,802,-181.5,-193.6,-43.3,-21.9,145.1,25,1084.13,100.713,-149.064,-17.9398,-3.32712,56.0659,
2026_07_06_17_50_34.611,3.868,39.5,0,0.766,0,0,0,0, ,0,0,0,0,0, ,725.9,-252.1,-194.2,-31.1,-39.4,146.9,25,1064.62,81.3645,-151.796,-19.1135,-4.99211,61.5463,
2026_07_06_17_50_34.625,3.868,39.5,0,0.768,0,0,0,0, ,0,0,0,0,0, ,681.7,-287.3,-218.1,-21.6,-52.5,148.1,25,1042.63,59.9715,-155.108,-19.5545,-7.48798,66.7841,
2026_07_06_17_50_34.652,3.868,39.5,0,0.766,0,0,0,0, ,0,0,0,0,0, ,630.4,-313.1,-232.2,-17.5,-54.8,143.4,25,1019.07,38.0236,-159.377,-19.5542,-10.301,71.5961,
2026_07_06_17_50_34.665,3.868,39.5,0,0.767,0,0,0,0, ,0,0,0,0,0, ,583.7,-360.3,-268.4,-19.2,-51.1,141.5,25,993.964,15.1888,-164.917,-19.4808,-12.8999,75.9137,
2026_07_06_17_50_34.690,3.868,39.5,0,0.766,0,0,0,0, ,0,0,0,0,0, ,522.8,-425.2,-276.1,-16.7,-51.4,137.8,25,967.108,-9.66993,-171.458,-19.3875,-15.2369,79.7977,
2026_07_06_17_50_34.704,3.868,39.6,0,0.767,0,0,0,0, ,0,0,0,0,0, ,465.2,-498.5,-271.3,-8,-61,134.1,25,938.278,-37.2247,-177.688,-18.9587,-17.7331,83.2194,
2026_07_06_17_50_34.731,3.868,39.6,0,0.767,0,0,0,0, ,0,0,0,0,0, ,471.9,-495.2,-291.3,-1.9,-68.1,124.9,25,909.654,-65.2331,-184.002,-18.105,-20.586,86.0397,
2026_07_06_17_50_34.744,3.868,39.5,0,0.767,0,0,0,0, ,0,0,0,0,0, ,484.7,-510.3,-332,-9.9,-56.6,111.4,25,883.368,-91.8943,-191.781,-17.3613,-23.131,87.9964,
2026_07_06_17_50_34.769,3.868,39.5,0,0.766,0,0,0,0, ,0,0,0,0,0, ,438.3,-566.6,-358.5,-19.4,-40,97.5,25,857.66,-119.106,-201.133,-17.1961,-24.6647,88.999,
2026_07_06_17_50_34.783,3.868,39.5,0,0.766,0,0,0,0, ,0,0,0,0,0, ,399,-617.1,-356.6,-18,-38.2,87.8,25,830.908,-147.914,-210.664,-17.2877,-25.5443,89.2215,
2026_07_06_17_50_34.807,3.868,39.6,0,0.767,0,0,0,0, ,0,0,0,0,0, ,404.2,-611.9,-359.2,-13,-41.7,80.4,25,804.747,-176.347,-219.636,-17.1788,-26.4222,88.9094,
2026_07_06_17_50_34.824,3.868,39.6,0,0.766,0,0,0,0, ,0,0,0,0,0, ,425.7,-625.1,-377.6,-14.9,-36.3,70.9,25,780.994,-203.29,-228.702,-16.982,-27.1887,88.1014,
2026_07_06_17_50_34.849,3.868,39.5,0,0.766,0,0,0,0, ,0,0,0,0,0, ,413.8,-648.9,-382.5,-21.3,-20.4,56.5,25,758.981,-229.72,-237.925,-17.0501,-27.2594,86.6145,
2026_07_06_17_50_34.863,3.868,39.5,0,0.767,0,0,0,0, ,0,0,0,0,0, ,382.5,-674.4,-387.2,-27.5,-14.7,44.3,25,736.993,-256.04,-246.878,-17.498,-26.6678,84.4076,
2026_07_06_17_50_34.889,3.868,39.4,0,0.766,0,0,0,0, ,0,0,0,0,0, ,397.9,-685.4,-416.5,-24.9,-21.9,39,25,715.86,-281.869,-256.321,-18.0283,-26.1578,81.8021,
2026_07_06_17_50_34.904,3.868,39.5,0,0.766,0,0,0,0, ,0,0,0,0,0, ,426.1,-695.6,-440.4,-16.8,-27.4,36.3,25,697.343,-306.77,-266.811,-18.2003,-26.066,79.1116,
2026_07_06_17_50_34.929,3.868,39.5,0,0.767,0,0,0,0, ,0,0,0,0,0, ,435.6,-703.3,-465.6,-14.6,-29,36.9,25,681.104,-330.699,-278.156,-18.0479,-26.196,76.521,
2026_07_06_17_50_34.943,3.868,39.5,0,0.767,0,0,0,0, ,0,0,0,0,0, ,424.8,-733.6,-489.7,-9.7,-29.4,37.7,25,665.815,-354.328,-290.313,-17.6885,-26.3791,74.131,
2026_07_06_17_50_34.968,3.868,39.4,0,0.767,0,0,0,0, ,0,0,0,0,0, ,421.3,-744.1,-497.6,-2.3,-31.3,37.3,25,651.021,-377.759,-302.704,-16.9762,-26.621,71.8988,
2026_07_06_17_50_34.982,3.868,39.5,0,0.766,0,0,0,0, ,0,0,0,0,0, ,423.8,-755.4,-492.4,0.7,-28.1,33.9,25,637.099,-400.428,-314.422,-15.9905,-26.8087,69.6868,
2026_07_06_17_50_35.007,3.868,39.5,0,0.766,0,0,0,0, ,0,0,0,0,0, ,411.4,-777.2,-486.4,-2.6,-21.5,25.8,25,623.723,-422.723,-325.085,-15.074,-26.6863,67.2593,
2026_07_06_17_50_35.021,3.868,39.5,0,0.767,0,0,0,0, ,0,0,0,0,0, ,410.6,-777.4,-498,-6.9,-13.5,17.2,25,610.76,-444.33,-335.268,-14.4448,-26.1265,64.4708,
2026_07_06_17_50_35.047,3.868,39.4,0,0.766,0,0,0,0, ,0,0,0,0,0, ,398.3,-784.7,-498.9,-9.8,-7.8,12.5,25,598.188,-464.849,-345.212,-14.0734,-25.1834,61.4471,
2026_07_06_17_50_35.061,3.868,39.5,0,0.767,0,0,0,0, ,0,0,0,0,0, ,386.4,-800.7,-494.3,-8.5,-9,11.2,25,585.645,-484.827,-354.437,-13.7734,-24.1606,58.4247,
2026_07_06_17_50_35.090,3.868,39.5,0,0.766,0,0,0,0, ,0,0,0,0,0, ,398.1,-791.1,-508.1,-3.8,-11.2,10.2,25,573.86,-503.783,-363.381,-13.3089,-23.3038,55.5165,
2026_07_06_17_50_35.100,3.868,39.5,0,0.767,0,0,0,0, ,0,0,0,0,0, ,415.6,-787.7,-518.6,-3.2,-6.8,5.6,25,563.683,-521.188,-372.519,-12.7111,-22.4322,52.6149,
2026_07_06_17_50_35.125,3.868,39.5,0,0.767,0,0,0,0, ,0,0,0,0,0, ,405.5,-786.9,-502.3,-6.4,0.1,0,25,554.351,-537.404,-380.925,-12.229,-21.2694,49.5793,
2026_07_06_17_50_35.141,3.868,39.5,0,0.767,0,0,0,0, ,0,0,0,0,0, ,385.7,-773,-488.8,-6.3,-3.8,0.9,25,544.677,-552.184,-387.91,-11.8708,-20.086,46.5855,
2026_07_06_17_50_35.167,3.868,39.5,0,0.766,0,0,0,0, ,0,0,0,0,0, ,389.5,-771.2,-501.5,-3.6,-7.3,3.7,25,535.105,-565.586,-394.445,-11.4491,-19.2002,43.8868,
2026_07_06_17_50_35.179,3.868,39.5,0,0.766,0,0,0,0, ,0,0,0,0,0, ,407.3,-786.9,-507.9,-0.3,-9.2,5.3,25,526.775,-578.594,-401.163,-10.8702,-18.5329,41.4867,
2026_07_06_17_50_35.205,3.868,39.4,0,0.766,0,0,0,0, ,0,0,0,0,0, ,414,-768.9,-490.7,-4.3,-3.4,0.2,25,519.699,-590.739,-407.143,-10.348,-17.7875,39.1262,
2026_07_06_17_50_35.220,3.868,39.4,0,0.767,0,0,0,0, ,0,0,0,0,0, ,413.4,-757.8,-482.7,-6.6,-2.7,-1,25,513.239,-601.257,-411.991,-10.0495,-16.8894,36.7175,
2026_07_06_17_50_35.248,3.868,39.5,0,0.767,0,0,0,0, ,0,0,0,0,0, ,429.8,-755.8,-493.1,-3.5,-4.3,0,25,507.655,-610.736,-416.617,-9.74484,-16.0735,34.4496,
2026_07_06_17_50_35.259,3.868,39.4,0,0.766,0,0,0,0, ,0,0,0,0,0, ,435.9,-749,-483.1,-3,-3.8,0.5,25,503.097,-619.368,-420.973,-9.34906,-15.3408,32.3656,
2026_07_06_17_50_35.285,3.868,39.4,0,0.765,0,0,0,0, ,0,0,0,0,0, ,430.4,-752.5,-479.9,-2.1,-2.2,1.7,25,498.834,-627.374,-424.661,-8.93474,-14.5888,30.4603,
2026_07_06_17_50_35.298,3.868,39.4,0,0.766,0,0,0,0, ,0,0,0,0,0, ,427.3,-745.8,-479.1,-1.2,-1.3,0,25,494.57,-634.795,-428.003,-8.49083,-13.8064,28.6559,
2026_07_06_17_50_35.324,3.868,39.4,0,0.765,0,0,0,0, ,0,0,0,0,0, ,430.4,-741.8,-477.2,-2.1,-1.3,-0.8,25,490.565,-641.438,-431.059,-8.07396,-13.0443,26.8853,
2026_07_06_17_50_35.343,3.868,39.4,0,0.766,0,0,0,0, ,0,0,0,0,0, ,429.4,-751.2,-479,-1.1,-1.8,0.7,25,486.868,-647.84,-433.926,-7.67946,-12.3439,25.244,
2026_07_06_17_50_35.371,3.868,39.4,0,0.767,0,0,0,0, ,0,0,0,0,0, ,426.1,-744.5,-490.2,-1.2,-1.4,0.9,25,483.265,-653.934,-437.014,-7.28157,-11.6892,23.7544,
2026_07_06_17_50_35.378,3.868,39.4,0,0.766,0,0,0,0, ,0,0,0,0,0, ,417.7,-757.3,-500.8,-1.2,-1.1,1.6,25,479.526,-659.843,-440.578,-6.91097,-11.053,22.3831,
2026_07_06_17_50_35.405,3.868,39.5,0,0.766,0,0,0,0, ,0,0,0,0,0, ,406.1,-769,-497.3,-0.9,-1.9,0.9,25,475.405,-666.138,-444.141,-6.55382,-10.4709,21.0953,
2026_07_06_17_50_35.418,3.868,39.4,0,0.767,0,0,0,0, ,0,0,0,0,0, ,402.9,-765.6,-493.5,-1.8,-1.4,-0.9,25,471.084,-672.303,-447.264,-6.23671,-9.93338,19.8098,
2026_07_06_17_50_35.445,3.868,39.4,0,0.766,0,0,0,0, ,0,0,0,0,0, ,409.1,-753.4,-495.1,-2.7,-2.6,-1.4,25,467.118,-677.616,-450.131,-5.99377,-9.44994,18.5325,
2026_07_06_17_50_35.457,3.868,39.4,0,0.767,0,0,0,0, ,0,0,0,0,0, ,420.4,-749.5,-501.4,-2.5,-2,0.5,25,463.927,-682.116,-453.063,-5.78696,-9.01424,17.3758,
2026_07_06_17_50_35.484,3.868,39.4,0,0.766,0,0,0,0, ,0,0,0,0,0, ,406.7,-763,-486.3,-3.3,0,-1.5,25,460.857,-686.633,-455.548,-5.61104,-8.52588,16.2865,
2026_07_06_17_50_35.497,3.868,39.3,0,0.767,0,0,0,0, ,0,0,0,0,0, ,398.6,-757,-480.3,-4.4,-1.5,-3,25,457.31,-691.104,-457.239,-5.50373,-8.05203,15.1569,
2026_07_06_17_50_35.522,3.868,39.4,0,0.766,0,0,0,0, ,0,0,0,0,0, ,414,-764.4,-499.5,-2.6,-4.1,-3.2,25,454.202,-695.345,-459.23,-5.38162,-7.73199,14.0444,
2026_07_06_17_50_35.537,3.868,39.4,0,0.766,0,0,0,0, ,0,0,0,0,0, ,432.6,-757,-505.8,-2.7,-1.8,-3.6,25,452.319,-699.328,-461.876,-5.21517,-7.44058,12.9814,
2026_07_06_17_50_35.563,3.868,39.5,0,0.766,0,0,0,0, ,0,0,0,0,0, ,445.1,-750.8,-498.5,-4.7,2,-4.9,25,451.498,-702.653,-464.33,-5.12284,-6.98108,11.9313,
2026_07_06_17_50_35.576,3.868,39.4,0,0.766,0,0,0,0, ,0,0,0,0,0, ,430.9,-751.2,-496.7,-5.4,1.2,-3,25,450.675,-705.599,-466.357,-5.1184,-6.45817,10.9636,
2026_07_06_17_50_35.602,3.868,39.4,0,0.766,0,0,0,0, ,0,0,0,0,0, ,416.2,-761.2,-485.8,-4.4,-1.6,-2.2,25,449.022,-708.683,-467.874,-5.10509,-6.07681,10.137,
2026_07_06_17_50_35.615,3.868,39.3,0,0.766,0,0,0,0, ,0,0,0,0,0, ,412.5,-756.3,-485.9,-3.7,-3.4,-1.9,25,446.91,-711.734,-468.97,-5.04079,-5.85885,9.39438,
2026_07_06_17_50_35.644,3.868,39.4,0,0.767,0,0,0,0, ,0,0,0,0,0, ,418.4,-752.5,-491.5,-4.1,-2.9,-2.9,25,444.993,-714.334,-470.172,-4.97128,-5.69378,8.67566,
2026_07_06_17_50_35.656,3.868,39.4,0,0.767,0,0,0,0, ,0,0,0,0,0, ,420.2,-749.3,-494.6,-5.1,2.3,-2.8,25,443.427,-716.562,-471.566,-4.94865,-5.3651,7.97332,
2026_07_06_17_50_35.682,3.868,39.4,0,0.767,0,0,0,0, ,0,0,0,0,0, ,411.4,-749.8,-481.8,-5.7,4,-3.9,25,441.743,-718.572,-472.58,-4.97616,-4.84621,7.2833,
2026_07_06_17_50_35.695,3.868,39.3,0,0.767,0,0,0,0, ,0,0,0,0,0, ,413.4,-750.7,-488,-5.2,1.9,-4.3,25,439.955,-720.503,-473.33,-5.00503,-4.37113,6.58963,
2026_07_06_17_50_35.722,3.868,39.3,0,0.767,0,0,0,0, ,0,0,0,0,0, ,422.1,-747.5,-498.7,-4.8,-1.4,-3.8,25,438.602,-722.245,-474.55,-5.00472,-4.08953,5.94128,
2026_07_06_17_50_35.734,3.868,39.4,0,0.766,0,0,0,0, ,0,0,0,0,0, ,432.8,-751.9,-518,-4.7,-2.5,-3.8,25,437.923,-723.918,-476.61,-4.9892,-3.95915,5.34767,
2026_07_06_17_50_35.762,3.868,39.4,0,0.765,0,0,0,0, ,0,0,0,0,0, ,443.1,-756.5,-531.3,-3.5,-1.1,-3,25,437.924,-725.763,-479.537,-4.93502,-3.82758,4.81461,
2026_07_06_17_50_35.774,3.868,39.3,0,0.765,0,0,0,0, ,0,0,0,0,0, ,444.3,-753.5,-527.8,-1.8,0.2,-1.1,25,438.276,-727.545,-482.585,-4.79577,-3.62176,4.3963,
2026_07_06_17_50_35.801,3.868,39.4,0,0.767,0,0,0,0, ,0,0,0,0,0, ,435.7,-749,-514.5,-2.6,2.5,-2.2,25,438.381,-728.99,-484.935,-4.63759,-3.31879,4.02785,
2026_07_06_17_50_35.817,3.868,39.3,0,0.767,0,0,0,0, ,0,0,0,0,0, ,427.2,-747.9,-506.4,-3.5,2,-3,25,437.959,-730.175,-486.49,-4.54085,-2.97944,3.62397,
2026_07_06_17_50_35.845,3.868,39.4,0,0.766,0,0,0,0, ,0,0,0,0,0, ,418.8,-749.1,-499.2,-2.8,-1.1,-2.1,25,437.047,-731.292,-487.484,-4.45609,-2.77046,3.24774,
2026_07_06_17_50_35.853,3.868,39.4,0,0.768,0,0,0,0, ,0,0,0,0,0, ,427.8,-747.5,-501.8,-1.4,-3,-0.7,25,436.21,-732.329,-488.277,-4.31252,-2.72656,2.96452,
2026_07_06_17_50_35.879,3.868,39.4,0,0.766,0,0,0,0, ,0,0,0,0,0, ,424.4,-752.4,-504.6,-0.6,-2.6,-0.2,25,435.594,-733.402,-489.186,-4.11066,-2.73103,2.75645,
2026_07_06_17_50_35.893,3.868,39.3,0,0.766,0,0,0,0, ,0,0,0,0,0, ,408.6,-748,-496.5,-0.8,-2.2,-0.9,25,434.43,-734.426,-489.879,-3.90283,-2.71086,2.55496,
2026_07_06_17_50_35.921,3.868,39.4,0,0.766,0,0,0,0, ,0,0,0,0,0, ,398,-756.2,-495.8,-0.5,-3.7,-1.2,25,432.533,-735.503,-490.261,-3.70461,-2.72543,2.33528,
2026_07_06_17_50_35.932,3.868,39.3,0,0.766,0,0,0,0, ,0,0,0,0,0, ,411.6,-754,-501,1.4,-6.8,-1.5,25,430.843,-736.697,-490.757,-3.45144,-2.87927,2.11071,
2026_07_06_17_50_35.960,3.868,39.4,0,0.766,0,0,0,0, ,0,0,0,0,0, ,440.5,-734.1,-517.3,0.7,-5.4,-1.8,25,430.551,-737.145,-491.878,-3.17713,-3.07554,1.88154,
2026_07_06_17_50_35.971,3.868,39.3,0,0.765,0,0,0,0, ,0,0,0,0,0, ,441.5,-743.6,-529.6,-2.3,0.7,-1,25,431.188,-737.249,-493.802,-3.03227,-3.03132,1.68157,
2026_07_06_17_50_35.997,3.868,39.4,0,0.766,0,0,0,0, ,0,0,0,0,0, ,422.2,-758,-513.9,-3.5,0.4,-1.7,25,431.228,-738.075,-495.505,-3.02421,-2.81309,1.49684,
2026_07_06_17_50_36.012,3.868,39.3,0,0.766,0,0,0,0, ,0,0,0,0,0, ,420.7,-750.2,-508,-2.3,-2.7,-0.7,25,430.632,-739.051,-496.446,-3.01664,-2.71174,1.3325,
2026_07_06_17_50_36.038,3.868,39.3,0,0.766,0,0,0,0, ,0,0,0,0,0, ,416.2,-755.4,-504.8,-1,-3.1,-0.9,25,429.89,-739.889,-497.053,-2.93336,-2.72321,1.20255,
2026_07_06_17_50_36.051,3.868,39.2,0,0.766,0,0,0,0, ,0,0,0,0,0, ,415.5,-738.8,-507.5,-0.2,-1.8,-2,25,429.034,-740.329,-497.607,-2.79117,-2.70657,1.04091,
2026_07_06_17_50_36.080,3.868,39.3,0,0.767,0,0,0,0, ,0,0,0,0,0, ,413.3,-746.2,-514,-0.4,-0.5,-1.9,25,428.143,-740.461,-498.408,-2.63937,-2.61171,0.858652,
2026_07_06_17_50_36.090,3.868,39.3,0,0.766,0,0,0,0, ,0,0,0,0,0, ,401.8,-757.9,-504.6,-0.8,0.5,-2.8,25,426.888,-741.167,-499.072,-2.51509,-2.45256,0.663124,
2026_07_06_17_50_36.120,3.868,39.3,0,0.766,0,0,0,0, ,0,0,0,0,0, ,392.5,-756.7,-499.2,-0.9,-1.5,-2.8,25,425.076,-742.15,-499.244,-2.41363,-2.33358,0.45209,
2026_07_06_17_50_36.131,3.868,39.4,0,0.766,0,0,0,0, ,0,0,0,0,0, ,396.1,-744.3,-508.7,0.1,-2.4,-3.5,25,423.2,-742.659,-499.531,-2.29092,-2.3102,0.232588,
2026_07_06_17_50_36.160,3.868,39.3,0,0.766,0,0,0,0, ,0,0,0,0,0, ,392.4,-732.2,-510.7,-0.2,1,-5.3,25,421.436,-742.39,-500.15,-2.15437,-2.21208,-0.0497103,
2026_07_06_17_50_36.170,3.868,39.3,0,0.765,0,0,0,0, ,0,0,0,0,0, ,372.9,-736.9,-509.3,0,2.7,-7.6,25,419.072,-741.913,-500.751,-2.02918,-1.96455,-0.439728,
2026_07_06_17_50_36.197,3.868,39.3,0,0.766,0,0,0,0, ,0,0,0,0,0, ,352.1,-743.6,-526,4.2,-0.1,-8.5,25,415.625,-741.811,-501.78,-1.77756,-1.76561,-0.903479,
2026_07_06_17_50_36.209,3.868,39.2,0,0.767,0,0,0,0, ,0,0,0,0,0, ,329.5,-732.4,-527.3,6.7,-1.2,-12.8,25,411.065,-741.579,-503.296,-1.33713,-1.69763,-1.49741,
2026_07_06_17_50_36.237,3.868,39.3,0,0.767,0,0,0,0, ,0,0,0,0,0, ,287.2,-716.7,-519.2,7.6,2.2,-19.1,25,404.806,-740.541,-504.512,-0.819943,-1.56371,-2.37811,
2026_07_06_17_50_36.250,3.868,39.3,0,0.766,0,0,0,0, ,0,0,0,0,0, ,229.3,-721.3,-512.3,4.6,10.5,-31.9,25,395.875,-739.229,-505.197,-0.398259,-1.08147,-3.7871,
2026_07_06_17_50_36.277,3.868,39.3,0,0.766,0,0,0,0, ,0,0,0,0,0, ,188.9,-738.7,-512.4,1.6,17.1,-46,25,384.494,-738.666,-505.633,-0.185084,-0.174632,-5.92984,
2026_07_06_17_50_36.289,3.868,39.3,0,0.766,0,0,0,0, ,0,0,0,0,0, ,149.6,-733.1,-498.9,3.2,17.4,-58.7,25,371.377,-738.498,-505.634,-0.0275553,0.887181,-8.75857,
2026_07_06_17_50_36.318,3.868,39.3,0,0.766,0,0,0,0, ,0,0,0,0,0, ,147.5,-704.4,-486.4,7.7,17,-71.4,25,357.799,-737.294,-504.842,0.306233,1.88124,-12.1888,
2026_07_06_17_50_36.330,3.868,39.4,0,0.765,0,0,0,0, ,0,0,0,0,0, ,142.9,-673,-420.5,6.7,28.2,-91.4,25,344.844,-734.333,-501.711,0.726322,3.14379,-16.4064,
2026_07_06_17_50_36.359,3.868,39.3,0,0.766,0,0,0,0, ,0,0,0,0,0, ,133.6,-636.7,-354.9,-1.8,44.9,-114.2,25,332.254,-729.49,-494.763,0.831359,5.17948,-21.671,
2026_07_06_17_50_36.369,3.868,39.3,0,0.766,0,0,0,0, ,0,0,0,0,0, ,127.1,-608.5,-338.8,-9.6,58.9,-141.5,25,319.951,-722.976,-485.75,0.433354,8.02651,-28.1413,
2026_07_06_17_50_36.396,3.868,39.3,0,0.766,0,0,0,0, ,0,0,0,0,0, ,135.3,-584.3,-369.3,-8.3,44.5,-154.5,25,308.449,-715.263,-477.724,-0.138444,10.6879,-35.4452,
2026_07_06_17_50_36.409,3.868,39.2,0,0.766,0,0,0,0, ,0,0,0,0,0, ,237.1,-555.1,-438.5,13,8.1,-150.2,25,300.999,-706.393,-473.226,0.0131955,11.6392,-42.5691,
2026_07_06_17_50_36.436,3.868,39.3,0,0.767,0,0,0,0, ,0,0,0,0,0, ,385.6,-471.4,-488.6,26,14.7,-159.3,25,301.63,-694.623,-472.636,1.20067,11.6247,-49.4051,
2026_07_06_17_50_36.448,3.868,39.3,0,0.766,0,0,0,0, ,0,0,0,0,0, ,425.7,-422.9,-457.2,3.7,72.4,-196.7,25,307.969,-679.543,-472.652,2.03243,13.5701,-57.2413,
2026_07_06_17_50_36.476,3.868,39.2,0,0.766,0,0,0,0, ,0,0,0,0,0, ,464.5,-382.2,-449.5,-12.4,87.4,-218.8,25,316.325,-662.663,-471.476,1.6435,17.6121,-66.413,
2026_07_06_17_50_36.488,3.868,39.3,0,0.766,0,0,0,0, ,0,0,0,0,0, ,586,-314.6,-474.1,4.1,55.7,-212.8,25,329.057,-643.513,-470.886,1.29046,20.8989,-75.5162,
2026_07_06_17_50_36.514,3.868,39.2,0,0.767,0,0,0,0, ,0,0,0,0,0, ,873.5,-104.8,-480.4,15.7,52.5,-218.4,25,353.474,-617.077,-471.274,1.8151,22.9221,-84.0526,
2026_07_06_17_50_36.527,3.868,39.3,0,0.766,0,0,0,0, ,0,0,0,0,0, ,1230.2,142,-464.9,-12.1,106.9,-236.1,25,396.031,-578.341,-471.358,1.81418,26.382,-92.7787,
2026_07_06_17_50_36.558,3.868,39.3,0,0.766,0,0,0,0, ,0,0,0,0,0, ,1415.7,214.8,-377.8,-50.6,174,-232.4,25,452.515,-532.227,-468.311,-0.206761,33.333,-101.4,
2026_07_06_17_50_36.566,3.868,39.4,0,0.766,0,0,0,0, ,0,0,0,0,0, ,1292.6,158,-244.8,-51.5,203.8,-210.5,25,507.459,-488.436,-458.743,-3.30502,42.8129,-108.715,
2026_07_06_17_50_36.595,3.868,39.3,0,0.766,0,0,0,0, ,0,0,0,0,0, ,1216.6,121.2,-163.8,-39.7,198.7,-194.7,25,552.987,-450.165,-443.238,-5.88237,52.4677,-114.436,
2026_07_06_17_50_36.606,3.868,39.2,0,0.766,0,0,0,0, ,0,0,0,0,0, ,1142.8,121.5,-34.4,0.5,160.8,-159.6,25,591.178,-415.338,-422.267,-6.71829,60.2239,-118.258,
2026_07_06_17_50_36.636,3.868,39.2,0,0.767,0,0,0,0, ,0,0,0,0,0, ,1219.8,238,30.1,19.4,125.4,-130,25,627.138,-379.075,-396.666,-5.70256,65.2742,-119.875,
2026_07_06_17_50_36.646,3.868,39.3,0,0.767,0,0,0,0, ,0,0,0,0,0, ,1270,300.4,60.9,4.2,134.1,-119.4,25,664.783,-339.571,-369.721,-4.636,69.2032,-120.169,
2026_07_06_17_50_36.674,3.868,39.3,0,0.767,0,0,0,0, ,0,0,0,0,0, ,1166.8,252.3,132.4,-15.9,157.4,-116,25,698.519,-302.038,-341.302,-4.70998,73.8677,-120.019,
2026_07_06_17_50_36.686,3.868,39.3,0,0.766,0,0,0,0, ,0,0,0,0,0, ,1022.5,204.4,243.4,-10.7,130.7,-94.9,25,722.658,-269.717,-309.054,-5.23343,78.1445,-119.131,
2026_07_06_17_50_36.714,3.868,39.3,0,0.766,0,0,0,0, ,0,0,0,0,0, ,942.1,184.9,281.3,16.4,57.7,-59.1,25,738.48,-241.42,-274.234,-4.74085,79.1229,-116.564,
2026_07_06_17_50_36.724,3.868,39.3,0,0.767,0,0,0,0, ,0,0,0,0,0, ,976,209.5,231.9,41.3,0.5,-33,25,751.921,-214.692,-241.886,-2.69391,76.0746,-112.267,
2026_07_06_17_50_36.754,3.868,39.3,0,0.767,0,0,0,0, ,0,0,0,0,0, ,1052.8,261.5,183.8,37.6,-6.3,-27.2,25,767.916,-187.258,-214.48,-0.125764,71.2621,-107.26,
2026_07_06_17_50_36.764,3.868,39.3,0,0.766,0,0,0,0, ,0,0,0,0,0, ,1024.5,252.4,186.5,19.1,22.4,-37.5,25,784.414,-160.189,-190.128,1.60948,67.4101,-102.695,
2026_07_06_17_50_36.794,3.868,39.3,0,0.767,0,0,0,0, ,0,0,0,0,0, ,919.7,206.1,202.1,9.1,36.8,-46.8,25,795.851,-136.458,-166.702,2.37062,65.106,-99.0054,
2026_07_06_17_50_36.804,3.868,39.3,0,0.766,0,0,0,0, ,0,0,0,0,0, ,814.6,170.2,207.6,15.9,18.9,-43,25,800.196,-116.677,-144.06,2.98788,62.8358,-95.7084,
2026_07_06_17_50_36.833,3.868,39.3,0,0.765,0,0,0,0, ,0,0,0,0,0, ,832.7,168.8,180.9,25.6,-8.7,-38.6,25,801.625,-99.238,-123.445,4.07026,59.3175,-92.3624,
2026_07_06_17_50_36.851,3.868,39.2,0,0.765,0,0,0,0, ,0,0,0,0,0, ,939.5,269.8,197.6,20,-5.5,-49.1,25,806.773,-79.8271,-104.39,5.2116,55.2702,-89.4062,
2026_07_06_17_50_36.881,3.868,39.2,0,0.766,0,0,0,0, ,0,0,0,0,0, ,984,349.1,220.4,-2.5,11.4,-67.2,25,816.217,-56.1056,-85.2925,5.42722,52.0819,-87.5015,
2026_07_06_17_50_36.885,3.868,39.2,0,0.766,0,0,0,0, ,0,0,0,0,0, ,973.8,360.3,202.5,-15.9,4,-69.3,25,826.13,-31.0721,-67.2098,4.53588,49.3774,-86.3284,
2026_07_06_17_50_36.916,3.868,39.3,0,0.765,0,0,0,0, ,0,0,0,0,0, ,992.6,380.8,127.6,-7.7,-21,-56.2,25,835.702,-6.59825,-53.0564,3.54041,45.8505,-84.8916,
2026_07_06_17_50_36.922,3.868,39.2,0,0.765,0,0,0,0, ,0,0,0,0,0, ,1084.2,458.3,39.5,-0.7,-30.3,-45.7,25,848.054,19.3702,-44.732,3.06873,41.4934,-82.8233,
2026_07_06_17_50_36.953,3.868,39.2,0,0.766,0,0,0,0, ,0,0,0,0,0, ,1154.6,514.4,58.9,-3.2,3.7,-44.8,25,864.589,47.8267,-39.008,2.7629,38.1544,-80.5336,
2026_07_06_17_50_36.961,3.868,39.2,0,0.766,0,0,0,0, ,0,0,0,0,0, ,1099.8,518.1,127.9,-14.1,43.1,-47.8,25,880.592,76.3713,-30.9394,2.06743,37.2553,-78.4475,
2026_07_06_17_50_36.991,3.868,39.2,0,0.766,0,0,0,0, ,0,0,0,0,0, ,996.3,472.7,197.2,-16.5,50.3,-43.4,25,890.796,101.906,-19.1486,1.0091,37.8309,-76.4459,
2026_07_06_17_50_37.002,3.868,39.2,0,0.766,0,0,0,0, ,0,0,0,0,0, ,951.6,453.1,220.9,-3.6,20.8,-28.8,25,895.863,123.904,-5.24279,0.335184,37.6919,-73.9873,
2026_07_06_17_50_37.030,3.868,39.1,0,0.765,0,0,0,0, ,0,0,0,0,0, ,962.6,453.1,204.9,6.3,-6.1,-15.8,25,899.595,143.964,8.05029,0.397024,35.8429,-70.8376,
2026_07_06_17_50_37.042,3.868,39.2,0,0.766,0,0,0,0, ,0,0,0,0,0, ,994.6,474.4,176,5.1,-10.3,-10.2,25,904.409,163.451,19.1653,0.720175,33.1591,-67.3131,
2026_07_06_17_50_37.071,3.868,39.3,0,0.766,0,0,0,0, ,0,0,0,0,0, ,996.3,465.8,147.7,-1.8,-2.2,-9.3,25,909.957,182.138,27.8601,0.776836,30.7576,-63.8054,
2026_07_06_17_50_37.082,3.868,39.1,0,0.767,0,0,0,0, ,0,0,0,0,0, ,975.9,447.5,136.8,-3.3,1.1,-7.3,25,914.597,198.866,34.8308,0.574107,28.8498,-60.423,
2026_07_06_17_50_37.110,3.868,39.1,0,0.766,0,0,0,0, ,0,0,0,0,0, ,934.9,431.5,137.2,-0.5,-1.1,-1.8,25,917.083,213.529,41.0567,0.423341,27.0917,-57.0183,
2026_07_06_17_50_37.121,3.868,39.3,0,0.766,0,0,0,0, ,0,0,0,0,0, ,901.6,416.1,143,0.3,-2.2,1,25,917.155,226.343,47.0921,0.39145,25.3403,-53.5681,
2026_07_06_17_50_37.149,3.868,39.2,0,0.767,0,0,0,0, ,0,0,0,0,0, ,891.7,410,135.4,1.1,-3.3,0,25,915.905,237.72,52.705,0.410252,23.6285,-50.2733,
2026_07_06_17_50_37.160,3.868,39.2,0,0.767,0,0,0,0, ,0,0,0,0,0, ,903,413.8,125.3,-1.5,-3,0.2,25,914.774,248.334,57.4365,0.373065,21.9967,-47.2037,
2026_07_06_17_50_37.189,3.868,39.2,0,0.766,0,0,0,0, ,0,0,0,0,0, ,886.5,413,124.8,-1.8,-1,-0.9,25,913.554,258.393,61.5567,0.249784,20.5344,-44.3485,
2026_07_06_17_50_37.199,3.868,39.3,0,0.766,0,0,0,0, ,0,0,0,0,0, ,876.3,411.9,123.9,-1,-1.8,-2.2,25,911.595,267.781,65.3831,0.149251,19.1978,-41.7405,
2026_07_06_17_50_37.228,3.868,39.2,0,0.767,0,0,0,0, ,0,0,0,0,0, ,881.7,416,122.1,1.4,-5.1,-1.5,25,909.608,276.688,68.8942,0.152343,17.8177,-39.3097,
2026_07_06_17_50_37.240,3.868,39.2,0,0.766,0,0,0,0, ,0,0,0,0,0, ,896.3,425.7,120.8,1.7,-6.2,-0.3,25,908.353,285.473,72.0968,0.237513,16.3876,-36.9691,
2026_07_06_17_50_37.269,3.868,39.2,0,0.766,0,0,0,0, ,0,0,0,0,0, ,904,428.9,124.2,-1.1,-1.4,-0.8,25,907.853,294.115,75.1682,0.241321,15.1574,-34.7498,
2026_07_06_17_50_37.279,3.868,39.1,0,0.767,0,0,0,0, ,0,0,0,0,0, ,899,425.1,129.6,-3.7,2.2,-2.1,25,907.466,302.213,78.3206,0.0803652,14.2582,-32.7206,
2026_07_06_17_50_37.307,3.868,39.1,0,0.766,0,0,0,0, ,0,0,0,0,0, ,886.8,408.8,137.2,-6.3,5.4,-3.8,25,906.578,309.205,81.677,-0.22922,13.6209,-30.9064,
2026_07_06_17_50_37.319,3.868,39.1,0,0.765,0,0,0,0, ,0,0,0,0,0, ,883.1,404.6,138.6,-0.9,-0.8,-2.5,25,905.26,315.146,85.1031,-0.434626,12.931,-29.215,
2026_07_06_17_50_37.348,3.868,39.1,0,0.767,0,0,0,0, ,0,0,0,0,0, ,902.2,416,136.5,0.6,-7.6,0,25,904.492,320.944,88.2991,-0.417282,11.8871,-27.5109,
2026_07_06_17_50_37.359,3.868,39.2,0,0.768,0,0,0,0, ,0,0,0,0,0, ,908.6,422.3,128.2,-2.2,-5.5,0.7,25,904.547,326.929,90.9834,-0.440604,10.7636,-25.8131,
2026_07_06_17_50_37.388,3.868,39.2,0,0.767,0,0,0,0, ,0,0,0,0,0, ,913.2,410.8,123.5,-4.2,0.1,-0.4,25,904.934,332.39,93.1081,-0.608755,9.94314,-24.231,
2026_07_06_17_50_37.397,3.868,39.1,0,0.767,0,0,0,0, ,0,0,0,0,0, ,903.8,407.2,126.5,-5,2.8,-1,25,905.151,337.059,95.0515,-0.851971,9.42559,-22.7971,
2026_07_06_17_50_37.429,3.868,39.1,0,0.766,0,0,0,0, ,0,0,0,0,0, ,890.7,398.5,127.4,-3.6,-1.7,0.1,25,904.67,341.068,96.9953,-1.06209,8.88473,-21.4353,
2026_07_06_17_50_37.440,3.868,39.1,0,0.765,0,0,0,0, ,0,0,0,0,0, ,891.6,397.9,118.5,-1.1,-4.6,0.3,25,903.846,344.549,98.577,-1.14057,8.15136,-20.1169,
2026_07_06_17_50_37.469,3.868,39.2,0,0.767,0,0,0,0, ,0,0,0,0,0, ,902.3,408.2,121,-1.8,-1.9,0,25,903.426,348.114,99.8672,-1.15942,7.45659,-18.8819,
2026_07_06_17_50_37.477,3.868,39.1,0,0.767,0,0,0,0, ,0,0,0,0,0, ,906.9,408.9,116.6,-4.2,0.7,-0.3,25,903.497,351.797,101.021,-1.27158,6.96565,-17.7404,
2026_07_06_17_50_37.508,3.868,39.1,0,0.767,0,0,0,0, ,0,0,0,0,0, ,898.9,398,108.1,-3,-0.1,0.5,25,903.461,354.945,101.711,-1.41347,6.55946,-16.6533,
2026_07_06_17_50_37.517,3.868,39.1,0,0.767,0,0,0,0, ,0,0,0,0,0, ,885.1,386.1,107.5,-0.8,-2.4,0.6,25,902.763,357.206,102.082,-1.44312,6.08357,-15.605,
2026_07_06_17_50_37.545,3.868,39.2,0,0.766,0,0,0,0, ,0,0,0,0,0, ,894.6,398.3,111.3,0.2,-1.7,-1.2,25,901.976,359.338,102.528,-1.37346,5.58793,-14.6723,
2026_07_06_17_50_37.557,3.868,39.1,0,0.765,0,0,0,0, ,0,0,0,0,0, ,904,413.6,122.5,-1.5,2.1,-0.6,25,901.813,362.179,103.404,-1.32937,5.2596,-13.8331,
2026_07_06_17_50_37.587,3.868,39.1,0,0.766,0,0,0,0, ,0,0,0,0,0, ,900.3,404.1,125.2,-3,4.1,-0.8,25,901.833,365.023,104.65,-1.38548,5.128,-13.0328,
2026_07_06_17_50_37.596,3.868,39.1,0,0.767,0,0,0,0, ,0,0,0,0,0, ,886.4,385.4,132.5,-2.2,2.8,-0.8,25,901.316,366.834,106.125,-1.45949,5.02575,-12.2873,
2026_07_06_17_50_37.627,3.868,39.2,0,0.766,0,0,0,0, ,0,0,0,0,0, ,879.7,392.2,148.6,0,0,-1.6,25,900.203,368.173,108.222,-1.43758,4.8048,-11.6117,
2026_07_06_17_50_37.635,3.868,39.2,0,0.766,0,0,0,0, ,0,0,0,0,0, ,905.8,418.4,163.5,-1.4,-2,-2.9,25,899.749,370.435,111.137,-1.39263,4.45107,-11.0412,
2026_07_06_17_50_37.664,3.868,39.1,0,0.767,0,0,0,0, ,0,0,0,0,0, ,942.6,444.4,162.2,-4.3,-0.3,-1.2,25,901.239,374.15,114.288,-1.48144,4.10976,-10.4933,
2026_07_06_17_50_37.676,3.868,39.1,0,0.765,0,0,0,0, ,0,0,0,0,0, ,967.4,459.3,179,-6.1,3,0.5,25,904.515,378.885,117.72,-1.70804,3.94159,-9.8752,
2026_07_06_17_50_37.704,3.868,39.1,0,0.765,0,0,0,0, ,0,0,0,0,0, ,1001.9,497.3,214.7,-5.7,2.5,1.9,25,909.398,384.943,122.542,-1.96349,3.86897,-9.20031,
2026_07_06_17_50_37.714,3.868,39.1,0,0.765,0,0,0,0, ,0,0,0,0,0, ,1047.1,532.8,252.5,-9.7,-1.4,6.9,25,916.412,392.871,129.309,-2.31306,3.66672,-8.37154,
2026_07_06_17_50_37.747,3.868,39.1,0,0.765,0,0,0,0, ,0,0,0,0,0, ,1095.3,557.4,256.8,-14.5,-5.1,14.7,25,925.845,402.148,136.947,-2.90945,3.24524,-7.20327,
2026_07_06_17_50_37.754,3.868,39.1,0,0.766,0,0,0,0, ,0,0,0,0,0, ,1144.5,571.7,278.9,-16.3,-9,27.1,25,937.67,412.044,144.924,-3.67059,2.61787,-5.49073,
2026_07_06_17_50_37.785,3.868,39.1,0,0.767,0,0,0,0, ,0,0,0,0,0, ,1177.4,573.4,291.5,-14.2,-18.4,41.8,25,951.276,421.825,153.472,-4.37621,1.6235,-3.05684,
2026_07_06_17_50_37.795,3.868,39.1,0,0.767,0,0,0,0, ,0,0,0,0,0, ,1187.5,566.2,286.8,-10.6,-35.2,60.3,25,965.363,430.842,161.74,-4.86516,-0.108557,0.240292,
2026_07_06_17_50_37.825,3.868,39.1,0,0.767,0,0,0,0, ,0,0,0,0,0, ,1182.6,544.5,269.8,-9.4,-45.6,74.9,25,978.75,438.429,168.843,-5.17807,-2.56382,4.34502,
2026_07_06_17_50_37.834,3.868,39.1,0,0.767,0,0,0,0, ,0,0,0,0,0, ,1161.6,511.9,252.6,-10.3,-53.8,88.6,25,990.533,443.9,174.471,-5.46276,-5.43618,9.06189,
2026_07_06_17_50_37.866,3.868,39.1,0,0.767,0,0,0,0, ,0,0,0,0,0, ,1147,468.8,210.4,-15.3,-63.2,103.6,25,1000.51,446.73,177.946,-5.90987,-8.66975,14.3658,
2026_07_06_17_50_37.873,3.868,39,0,0.766,0,0,0,0, ,0,0,0,0,0, ,1152.3,423.3,142.4,-14.1,-67,114.8,25,1009.6,446.689,177.852,-6.44552,-12.1085,20.1447,
2026_07_06_17_50_37.904,3.868,39,0,0.767,0,0,0,0, ,0,0,0,0,0, ,1133.5,390.7,117.6,-10.1,-70.9,125.5,25,1017.72,444.27,174.936,-6.79009,-15.5723,26.2388,
2026_07_06_17_50_37.912,3.868,39.1,0,0.767,0,0,0,0, ,0,0,0,0,0, ,1102.7,270,80.3,-7.5,-82.9,138.4,25,1023.84,437.328,170.306,-6.91257,-19.3094,32.6806,
2026_07_06_17_50_37.943,3.868,39.1,0,0.766,0,0,0,0, ,0,0,0,0,0, ,1060,175.9,-2.4,0.9,-91.6,145.9,25,1027.34,424.265,162.301,-6.69243,-23.4495,39.3514,
2026_07_06_17_50_37.953,3.868,39.1,0,0.767,0,0,0,0, ,0,0,0,0,0, ,1017.4,156.8,-29.7,11.5,-86.1,152.6,25,1028.04,408.548,151.433,-5.9068,-27.4349,46.0483,
2026_07_06_17_50_37.981,3.868,39.1,0,0.767,0,0,0,0, ,0,0,0,0,0, ,1019.8,108.7,-44.9,10.7,-86.8,156.3,25,1027.46,391.742,139.932,-4.87045,-31.0311,52.654,
2026_07_06_17_50_37.993,3.868,39.1,0,0.766,0,0,0,0, ,0,0,0,0,0, ,952.2,68.4,-43.8,10.5,-88.4,162.7,25,1024.93,373.266,128.702,-3.92772,-34.4783,59.165,
2026_07_06_17_50_38.023,3.868,39.1,0,0.767,0,0,0,0, ,0,0,0,0,0, ,884.1,10.2,-70.1,-2.6,-88.8,164.1,25,1018.43,352.915,117.389,-3.44767,-37.7763,65.5168,
2026_07_06_17_50_38.032,3.868,39.1,0,0.767,0,0,0,0, ,0,0,0,0,0, ,845.7,-47.7,-111.9,-18.8,-75.1,154.5,25,1009.07,330.266,104.69,-3.88961,-40.4682,71.2317,
2026_07_06_17_50_38.063,3.868,39.1,0,0.766,0,0,0,0, ,0,0,0,0,0, ,765.7,-148.4,-171.6,-31.1,-63.2,144.6,25,996.679,304.166,89.6729,-5.17297,-42.216,76.0042,
2026_07_06_17_50_38.077,3.868,39,0,0.766,0,0,0,0, ,0,0,0,0,0, ,704.1,-237.1,-202.3,-24.3,-66.2,143.3,25,980.727,273.885,72.8162,-6.54571,-43.5861,80.1447,
2026_07_06_17_50_38.108,3.868,39,0,0.766,0,0,0,0, ,0,0,0,0,0, ,643.4,-303.9,-238.2,-11,-73.1,144.9,25,962.021,240.712,54.9575,-7.22238,-45.1743,84.0419,
2026_07_06_17_50_38.113,3.868,39,0,0.767,0,0,0,0, ,0,0,0,0,0, ,582.8,-369.5,-255.9,-6.1,-73.8,136.4,25,940.758,205.526,36.5539,-7.30328,-46.8974,87.4915,
2026_07_06_17_50_38.143,3.868,39.1,0,0.766,0,0,0,0, ,0,0,0,0,0, ,570.6,-387.6,-265.6,-6.1,-71.2,123.8,25,918.573,169.934,18.4369,-7.22996,-48.4576,90.088,
2026_07_06_17_50_38.151,3.868,39,0,0.765,0,0,0,0, ,0,0,0,0,0, ,576,-410,-289.7,-6.7,-67.2,114.7,25,897.533,135.276,0.394132,-7.17938,-49.7215,91.865,
2026_07_06_17_50_38.182,3.868,39.1,0,0.765,0,0,0,0, ,0,0,0,0,0, ,601.1,-439,-310.6,-7,-62.1,105.4,25,878.705,101.165,-17.9203,-7.15931,-50.6312,92.9732,
2026_07_06_17_50_38.190,3.868,39.1,0,0.766,0,0,0,0, ,0,0,0,0,0, ,598.7,-457.1,-330,-9.3,-52.9,95.2,25,861.715,67.6972,-36.3465,-7.21968,-51.0498,93.4196,
2026_07_06_17_50_38.223,3.868,39,0,0.766,0,0,0,0, ,0,0,0,0,0, ,566.2,-487.4,-335.6,-9.6,-48.8,87.5,25,844.697,34.7942,-54.4117,-7.35559,-51.0376,93.2935,
2026_07_06_17_50_38.229,3.868,39,0,0.766,0,0,0,0, ,0,0,0,0,0, ,566.8,-502.6,-325.1,-6.6,-53,80.5,25,827.745,2.50984,-71.2267,-7.40095,-51.0292,92.7272,
2026_07_06_17_50_38.263,3.868,39.1,0,0.767,0,0,0,0, ,0,0,0,0,0, ,591.9,-497.9,-367.3,-5,-53.7,78,25,812.608,-28.1271,-87.9828,-7.3034,-51.1707,91.9059,
2026_07_06_17_50_38.269,3.868,39,0,0.767,0,0,0,0, ,0,0,0,0,0, ,555.5,-538.4,-380.8,-1,-56.5,78.6,25,798.05,-57.9879,-105.415,-7.04116,-51.4101,91.0768,
2026_07_06_17_50_38.299,3.868,39,0,0.767,0,0,0,0, ,0,0,0,0,0, ,517,-567.2,-378.9,6.8,-66.1,77.6,25,782.096,-88.1405,-122.138,-6.43537,-52.0128,90.286,
2026_07_06_17_50_38.309,3.868,39,0,0.766,0,0,0,0, ,0,0,0,0,0, ,528.1,-581.7,-394,7.4,-71,73.8,25,766.28,-117.775,-138.245,-5.61056,-53.0205,89.3972,
2026_07_06_17_50_38.339,3.868,39.1,0,0.767,0,0,0,0, ,0,0,0,0,0, ,514.7,-614.1,-448.9,-0.3,-57.6,63.8,25,751.358,-147.033,-155.503,-5.05234,-53.7079,88.1421,
2026_07_06_17_50_38.350,3.868,39.1,0,0.766,0,0,0,0, ,0,0,0,0,0, ,491.5,-648.3,-468.9,-6.9,-44,52.8,25,736.23,-176.537,-173.991,-4.96383,-53.5307,86.3236,
2026_07_06_17_50_38.381,3.868,39.1,0,0.767,0,0,0,0, ,0,0,0,0,0, ,471.9,-672.3,-471.3,-6.6,-42.4,47.4,25,720.719,-206.016,-192.035,-5.07268,-52.9011,84.1162,
2026_07_06_17_50_38.389,3.868,39,0,0.767,0,0,0,0, ,0,0,0,0,0, ,480.8,-663.3,-491.8,-2,-46.1,47.2,25,705.828,-234.156,-209.677,-5.02559,-52.374,81.8727,
2026_07_06_17_50_38.419,3.868,39,0,0.767,0,0,0,0, ,0,0,0,0,0, ,483.5,-671.9,-522.5,-4.4,-37.2,42.5,25,692.198,-260.569,-227.805,-4.91435,-51.7205,79.6166,
2026_07_06_17_50_38.427,3.868,39,0,0.766,0,0,0,0, ,0,0,0,0,0, ,456.2,-710.4,-514.1,-10.2,-25.2,32.5,25,678.648,-286.807,-245.507,-5.05972,-50.47,77.0502,
2026_07_06_17_50_38.458,3.868,39,0,0.766,0,0,0,0, ,0,0,0,0,0, ,423.5,-706.5,-500,-8.4,-23,24,25,664.096,-312.501,-261.445,-5.31811,-48.8631,74.0764,
2026_07_06_17_50_38.468,3.868,39,0,0.766,0,0,0,0, ,0,0,0,0,0, ,431.1,-708.4,-501.7,-10.1,-26.7,20,25,649.667,-336.568,-276.033,-5.55771,-47.3998,70.903,
2026_07_06_17_50_38.500,3.868,39,0,0.766,0,0,0,0, ,0,0,0,0,0, ,458.3,-713.5,-541.2,-8.4,-22.7,17.6,25,637.177,-359.382,-290.988,-5.78271,-46.0165,67.728,
2026_07_06_17_50_38.507,3.868,39,0,0.766,0,0,0,0, ,0,0,0,0,0, ,476.9,-714.8,-545.7,-3,-17.2,13.5,25,626.843,-381.001,-306.373,-5.77767,-44.4281,64.5484,
2026_07_06_17_50_38.539,3.868,39,0,0.766,0,0,0,0, ,0,0,0,0,0, ,479.3,-705.3,-539.4,-3,-13.2,10.6,25,617.779,-401.052,-320.765,-5.60841,-42.647,61.3493,
2026_07_06_17_50_38.547,3.868,38.9,0,0.767,0,0,0,0, ,0,0,0,0,0, ,471.6,-713.9,-537.4,0,-13,8.5,25,609.106,-419.854,-334.027,-5.35805,-40.8465,58.1927,
