UTC_Time,Vin,TC1,TC2,Rh1,Vh1,Ah1,Acp1,Dty1,Err1,Rh2,Vh2,Ah2,Acp2,Dty2,Err2,Accel_x,Accel_y,Accel_z,gyro_x,gyro_y,gyro_z,Temp_c,Accel_x_h,Accel_y_h,Accel_z_h,gyro_x_h,gyro_y_h,gyro_z_h,
2026_06_10_18_58_36.807,3.875,29.6,0,0.758,3.811,5.027,18.2,0.95, ,0,0,0,0,0, ,990.6,-116,146.6,12.1,7.6,10.8,25,990.597,-116,146.6,12.1,7.59997,10.8,
2026_06_10_18_58_36.833,3.864,29.5,0,0.762,3.887,5.101,18.83,0.95, ,0,0,0,0,0, ,943.9,-104.4,115.1,41.2,23.8,-6.1,25,989.174,-115.646,145.64,12.9866,8.09357,10.285,
2026_06_10_18_58_36.850,3.864,29.7,0,0.762,0,0,0,0.004, ,0,0,0,0,0, ,946.8,-154.1,216.6,32.7,64.4,-6.6,25,986.503,-116.475,146.871,14.4469,10.2877,9.27135,
2026_06_10_18_58_36.866,3.864,29.8,0,0.761,0,0,0,0.002, ,0,0,0,0,0, ,1094.4,-184.9,213.9,28.3,91.5,1.6,25,988.581,-119.706,151.038,15.4251,14.4109,8.55403,
2026_06_10_18_58_36.886,3.864,29.9,0,0.759,0,0,0,0.001, ,0,0,0,0,0, ,1150,-221.5,139.7,20.7,114.1,22.4,25,996.724,-124.794,152.608,15.9781,19.7971,8.76402,
2026_06_10_18_58_36.913,3.864,30,0,0.758,0,0,0,0, ,0,0,0,0,0, ,1100.7,-221.9,148.3,29.1,150.5,40.4,25,1004.56,-130.699,152.083,16.5218,26.6527,10.1434,
2026_06_10_18_58_36.929,3.864,30.1,0,0.758,0,0,0,0, ,0,0,0,0,0, ,1003,-212.8,140.7,-3.8,166,46.8,25,1007.44,-135.98,151.621,16.2859,34.6719,12.1822,
2026_06_10_18_58_36.945,3.864,30.2,0,0.759,0,0,0,0, ,0,0,0,0,0, ,938.2,-175,108.3,8.5,174.8,47.7,25,1005.2,-139.509,149.969,15.4366,42.9429,14.3191,
2026_06_10_18_58_36.964,3.864,30.2,0,0.759,0,0,0,0, ,0,0,0,0,0, ,785,-175.5,190.7,1.8,184.4,31.9,25,996.448,-141.687,149.94,14.8098,51.2704,15.8718,
2026_06_10_18_58_36.993,3.864,30.2,0,0.759,0,0,0,0, ,0,0,0,0,0, ,903.9,-218.3,441.5,-30.6,195.5,25.2,25,987.185,-145.052,160.065,13.0298,59.7212,16.6444,
2026_06_10_18_58_37.008,3.864,30.2,0,0.76,0,0,0,0, ,0,0,0,0,0, ,751.8,-234.7,609.8,-63.6,190.4,30.6,25,977.476,-150.015,182.343,9.36566,67.8398,17.3303,
2026_06_10_18_58_37.025,3.864,30.3,0,0.759,0,0,0,0, ,0,0,0,0,0, ,779,-308.8,613.7,-57.1,207.9,43.3,25,964.553,-157.433,208.51,5.11736,75.8415,18.5259,
2026_06_10_18_58_37.041,3.864,30.2,0,0.759,0,0,0,0, ,0,0,0,0,0, ,586.4,-303.1,621.8,-35,222.5,44.1,25,947.377,-166.483,233.448,1.99935,84.3337,20.0599,
2026_06_10_18_58_37.072,3.864,30.3,0,0.76,0,0,0,0, ,0,0,0,0,0, ,602.6,-254.6,594.7,-23.7,239.5,70.9,25,925.874,-173.331,256.288,0.0890017,93.2712,22.3414,
2026_06_10_18_58_37.088,3.864,30.3,0,0.759,0,0,0,0, ,0,0,0,0,0, ,506.1,-274.9,571.6,-3.8,203.2,73.7,25,903.234,-178.902,276.206,-0.754312,101.076,25.3858,
2026_06_10_18_58_37.103,3.864,30.3,0,0.759,0,0,0,0, ,0,0,0,0,0, ,392.7,-222.4,591.9,-4.5,170.8,64.4,25,875.578,-183.152,294.825,-0.961237,106.312,28.0466,
2026_06_10_18_58_37.119,3.864,30.3,0,0.761,0,0,0,0, ,0,0,0,0,0, ,356,-262.4,735.8,-14,146.2,55.1,25,845.035,-186.762,317.312,-1.46633,109.492,29.9785,
2026_06_10_18_58_37.151,3.864,30.4,0,0.76,0,0,0,0, ,0,0,0,0,0, ,345.5,-265.2,836.9,-21.9,122.1,54,25,814.914,-191.457,345.894,-2.47081,110.995,31.4758,
2026_06_10_18_58_37.167,3.864,30.4,0,0.757,0,0,0,0, ,0,0,0,0,0, ,369.9,-319.5,857,-9.4,98,54.1,25,787.053,-197.605,376.428,-3.27391,110.937,32.8514,
2026_06_10_18_58_37.183,3.864,30.5,0,0.757,0,0,0,0, ,0,0,0,0,0, ,367.4,-327.6,851.8,6.5,87.4,51.4,25,761.556,-205.28,405.554,-3.16277,109.826,34.064,
2026_06_10_18_58_37.199,3.864,30.4,0,0.759,0,0,0,0, ,0,0,0,0,0, ,307.3,-312.2,871.7,25.9,65.5,40.8,25,735.706,-212.264,433.353,-1.98285,107.792,34.7975,
2026_06_10_18_58_37.215,3.864,30.4,0,0.759,0,0,0,0, ,0,0,0,0,0, ,247.9,-276.7,889.6,41.2,63.1,35.6,25,707.791,-217.273,460.611,0.182432,105.142,35.0048,
2026_06_10_18_58_37.249,3.864,30.4,0,0.759,0,0,0,0, ,0,0,0,0,0, ,184,-259.2,906.9,50.5,64.3,27.9,25,677.819,-220.361,487.279,2.9653,102.616,34.8065,
2026_06_10_18_58_37.263,3.864,30.5,0,0.759,0,0,0,0, ,0,0,0,0,0, ,174.4,-248.1,977.1,47.3,57.3,25.3,25,647.434,-222.389,514.989,5.76445,100.068,34.3064,
2026_06_10_18_58_37.279,3.864,30.5,0,0.758,0,0,0,0, ,0,0,0,0,0, ,156.8,-219.2,900.3,43.4,73.5,14.3,25,618.073,-223.076,540.809,8.17669,97.9556,33.4224,
2026_06_10_18_58_37.295,3.864,30.4,0,0.76,0,0,0,0, ,0,0,0,0,0, ,180,-264.2,1000,49.6,68.9,7.8,25,590.671,-224.21,565.753,10.512,96.3252,32.0591,
2026_06_10_18_58_37.328,3.864,30.5,0,0.759,0,0,0,0, ,0,0,0,0,0, ,170.7,-250.7,1080.5,45.2,53.9,20.7,25,565.362,-226.236,594.668,12.7599,94.1969,30.9738,
2026_06_10_18_58_37.343,3.864,30.7,0,0.76,0,0,0,0, ,0,0,0,0,0, ,61.1,-184.8,1028.5,48.6,65,22.3,25,537.973,-225.719,622.689,14.8403,92.0795,30.3965,
2026_06_10_18_58_37.359,3.864,30.5,0,0.76,0,0,0,0, ,0,0,0,0,0, ,4,-176.3,1037.9,56.5,57.8,10.4,25,507.174,-222.966,647.704,17.1382,90.21,29.5406,
2026_06_10_18_58_37.378,3.864,30.4,0,0.757,0,0,0,0, ,0,0,0,0,0, ,60.5,-244.6,1051.2,62.7,13.4,5.3,25,478.233,-222.204,671.887,19.7257,86.8822,28.2188,
2026_06_10_18_58_37.407,3.864,30.7,0,0.759,0,0,0,0, ,0,0,0,0,0, ,62.2,-160.4,1049.1,44.1,-5.7,-14.6,25,452.829,-221.003,694.937,21.7778,81.8224,26.2159,
2026_06_10_18_58_37.423,3.864,30.5,0,0.759,0,0,0,0, ,0,0,0,0,0, ,61.8,-160.6,1045,31.8,11.3,-8.4,25,429.013,-217.316,716.394,22.7633,77.007,23.9175,
2026_06_10_18_58_37.439,3.864,30.7,0,0.759,0,0,0,0, ,0,0,0,0,0, ,142.2,-158.3,1076,30.6,50.1,-20.4,25,409.086,-213.79,737.363,23.2774,74.1852,21.5826,
2026_06_10_18_58_37.455,3.864,30.7,0,0.76,0,0,0,0, ,0,0,0,0,0, ,40.4,187.6,1236.9,-8.1,54.3,-28.6,25,389.721,-199.869,762.901,22.5445,72.8454,18.7744,
2026_06_10_18_58_37.487,3.864,30.5,0,0.757,0,0,0,0, ,0,0,0,0,0, ,58.4,-239.9,921.5,-10.4,35.3,-20.2,25,368.982,-189.283,782.176,20.607,71.1364,16.1435,
2026_06_10_18_58_37.502,3.864,30.5,0,0.759,0,0,0,0, ,0,0,0,0,0, ,173.4,-302,930.7,17,43.6,-18.1,25,353.56,-194.26,790.946,19.5523,69.2055,13.9928,
2026_06_10_18_58_37.518,3.864,30.7,0,0.759,0,0,0,0, ,0,0,0,0,0, ,33.8,-96.6,965.8,21.6,49.5,-4.7,25,338.328,-194.567,800.532,19.537,67.825,12.4454,
2026_06_10_18_58_37.534,3.864,30.8,0,0.76,0,0,0,0, ,0,0,0,0,0, ,23.8,-98.5,937,22.4,47.4,-12,25,319.466,-188.655,809.725,19.6871,66.6443,11.1782,
2026_06_10_18_58_37.566,3.864,30.7,0,0.759,0,0,0,0, ,0,0,0,0,0, ,11.3,-115.4,947.9,28.1,48.8,-18,25,301.068,-183.676,817.813,20.026,65.5143,9.58295,
2026_06_10_18_58_37.582,3.864,30.5,0,0.759,0,0,0,0, ,0,0,0,0,0, ,45.1,-114.9,1016.9,20.5,32.2,-22.5,25,284.44,-179.5,827.843,20.2865,63.99,7.76501,
2026_06_10_18_58_37.598,3.864,30.7,0,0.759,0,0,0,0, ,0,0,0,0,0, ,-0.1,-116.6,1004.6,15.9,25.7,-22.8,25,268.478,-175.616,838.989,20.1593,61.8547,5.91159,
2026_06_10_18_58_37.615,3.864,30.7,0,0.759,0,0,0,0, ,0,0,0,0,0, ,4.6,-123,912.8,14.4,26.9,-32.1,25,252.255,-172.214,846.284,19.8541,59.6881,3.87862,
2026_06_10_18_58_37.645,3.864,30.8,0,0.76,0,0,0,0, ,0,0,0,0,0, ,50,-126.3,1038.2,23.5,29.3,-27.1,25,238.547,-169.316,854.158,19.799,57.7632,1.83852,
2026_06_10_18_58_37.661,3.864,30.8,0,0.759,0,0,0,0, ,0,0,0,0,0, ,6.8,-117.7,995.3,15.2,-16.1,-7.7,25,225.741,-166.433,864.066,19.7716,54.6454,0.666169,
2026_06_10_18_58_37.679,3.864,30.8,0,0.759,0,0,0,0, ,0,0,0,0,0, ,-22.5,-103.7,1008.4,13.7,-0.4,-12.7,25,211.507,-163.036,872.462,19.4473,50.8127,0.00401202,
2026_06_10_18_58_37.693,3.864,30.8,0,0.759,0,0,0,0, ,0,0,0,0,0, ,-5.3,-178.8,1220.3,5.5,30.7,7.3,25,197.771,-161.709,887.202,18.8473,48.6395,-0.160764,
2026_06_10_18_58_37.725,3.864,30.8,0,0.76,0,0,0,0, ,0,0,0,0,0, ,-23.9,-117.7,1175,-3.9,25.6,-0.5,25,184.83,-160.889,906.12,17.7475,47.391,0.0562203,
2026_06_10_18_58_37.741,3.864,30.7,0,0.759,0,0,0,0, ,0,0,0,0,0, ,-40.7,-65.4,1008.4,-10.3,21.6,-3.4,25,171.598,-156.663,917.429,16.2334,45.9412,-0.0660337,
2026_06_10_18_58_37.757,3.864,30.7,0,0.759,0,0,0,0, ,0,0,0,0,0, ,-37.2,-110.8,985.3,-2,2.1,-8.7,25,158.768,-152.485,922.268,14.8694,43.8638,-0.430682,
2026_06_10_18_58_37.779,3.864,30.8,0,0.759,0,0,0,0, ,0,0,0,0,0, ,-46.2,-112.4,981.5,1.2,-11.5,-7.2,25,146.552,-149.994,925.994,13.9389,40.9044,-0.88889,
2026_06_10_18_58_37.789,3.864,30.8,0,0.761,0,0,0,0, ,0,0,0,0,0, ,-37.1,-105.4,988.1,5.1,-16.3,-8.8,25,135.083,-147.49,929.577,13.2815,37.5648,-1.32222,
2026_06_10_18_58_37.821,3.864,30.7,0,0.759,0,0,0,0, ,0,0,0,0,0, ,-20.6,-110.7,985.3,5.3,-13,-8.4,25,125.094,-145.086,933.058,12.789,34.3829,-1.76571,
2026_06_10_18_58_37.837,3.864,30.8,0,0.757,0,0,0,0, ,0,0,0,0,0, ,17.7,-73.6,1019,5.3,-6.5,-10.4,25,117.382,-141.86,937.268,12.3326,31.6936,-2.23093,
2026_06_10_18_58_37.853,3.864,30.8,0,0.759,0,0,0,0, ,0,0,0,0,0, ,53.7,-79.1,1034.6,1.9,-3.7,-8.2,25,112.405,-137.868,942.724,11.8005,29.4515,-2.6617,
2026_06_10_18_58_37.880,3.864,30.8,0,0.76,0,0,0,0, ,0,0,0,0,0, ,25.7,-99.3,1008.3,0.5,-0.3,-1.9,25,107.974,-134.903,947.522,11.1545,27.5349,-2.80724,
2026_06_10_18_58_37.901,3.864,30.8,0,0.759,0,0,0,0, ,0,0,0,0,0, ,-11.3,-107.5,1002.9,1.1,-1.2,0,25,101.834,-132.983,951.061,10.5235,25.8113,-2.69406,
2026_06_10_18_58_37.918,3.864,30.8,0,0.759,0,0,0,0, ,0,0,0,0,0, ,-84.2,-101.4,994.5,3.4,-3.5,-6.8,25,92.7183,-131.244,953.964,10.0194,24.0952,-2.73708,
2026_06_10_18_58_37.934,3.864,30.8,0,0.759,0,0,0,0, ,0,0,0,0,0, ,-59,-90.6,986.3,5.1,-5.8,-16.9,25,82.7051,-129.097,956.184,9.6678,22.3436,-3.2924,
2026_06_10_18_58_37.950,3.864,30.7,0,0.758,0,0,0,0, ,0,0,0,0,0, ,17.3,-88,995.3,5.4,-12.5,-15.6,25,76.3948,-126.671,958.293,9.39859,20.4244,-4.082,
2026_06_10_18_58_37.980,3.864,30.7,0,0.757,0,0,0,0, ,0,0,0,0,0, ,19,-104.1,1003.5,6.2,-14.4,-9.2,25,72.8455,-124.805,960.798,9.1793,18.3602,-4.58888,
2026_06_10_18_58_37.996,3.864,30.8,0,0.759,0,0,0,0, ,0,0,0,0,0, ,16.3,-96.4,1011.5,5.2,-11.3,-5.3,25,69.482,-123.309,963.644,8.96728,16.4583,-4.75104,
2026_06_10_18_58_38.012,3.864,30.9,0,0.761,0,0,0,0, ,0,0,0,0,0, ,8.5,-86.9,1027,1.2,-5.9,-3.9,25,66.0036,-121.38,967.033,8.61584,14.9313,-4.74184,
2026_06_10_18_58_38.028,3.864,30.9,0,0.759,0,0,0,0, ,0,0,0,0,0, ,12.2,-66.7,993,-2.1,-2.8,-5.1,25,62.6122,-118.663,969.651,8.06339,13.7564,-4.7271,
2026_06_10_18_58_38.059,3.864,30.7,0,0.76,0,0,0,0, ,0,0,0,0,0, ,51,-77.2,994.9,-1,-3.5,-4,25,60.7224,-115.817,971.132,7.47757,12.7261,-4.71631,
2026_06_10_18_58_38.080,3.864,30.7,0,0.759,0,0,0,0, ,0,0,0,0,0, ,39.1,-92.8,1004.3,-0.3,-2.2,0.7,25,59.7673,-113.939,972.867,6.9823,11.777,-4.52945,
2026_06_10_18_58_38.092,3.864,30.8,0,0.758,0,0,0,0, ,0,0,0,0,0, ,8.6,-88.7,1001.7,-0.7,-1.7,2.5,25,57.5786,-112.526,974.703,6.52635,10.9405,-4.15594,
2026_06_10_18_58_38.107,3.864,30.8,0,0.758,0,0,0,0, ,0,0,0,0,0, ,-8.6,-77.2,997,-0.7,-4.6,0.1,25,54.0699,-110.723,976.205,6.08599,10.0818,-3.82347,
2026_06_10_18_58_38.139,3.864,30.9,0,0.758,0,0,0,0, ,0,0,0,0,0, ,10.7,-75.1,1000.8,-0.6,-6,-3.2,25,50.839,-108.617,977.588,5.67552,9.14451,-3.68493,
2026_06_10_18_58_38.155,3.864,30.9,0,0.759,0,0,0,0, ,0,0,0,0,0, ,31.7,-88.9,1013.5,-1.9,-4.3,-3.7,25,49.0329,-106.995,979.389,5.25349,8.27344,-3.67061,
2026_06_10_18_58_38.181,3.864,30.7,0,0.759,0,0,0,0, ,0,0,0,0,0, ,41.6,-93.8,1003.7,-3.2,-0.7,-2.8,25,48.2783,-106.041,981.169,4.77797,7.61693,-3.64498,
2026_06_10_18_58_38.187,3.864,30.8,0,0.76,0,0,0,0, ,0,0,0,0,0, ,33.8,-99.2,995.9,-2.7,1.4,-1.4,25,47.6337,-105.46,982.305,4.30705,7.17411,-3.55084,
2026_06_10_18_58_38.219,3.864,30.7,0,0.758,0,0,0,0, ,0,0,0,0,0, ,7.5,-96.6,995.6,-2.2,-0.1,-1.2,25,45.9894,-104.999,983.124,3.89529,6.77654,-3.41368,
2026_06_10_18_58_38.235,3.864,30.8,0,0.757,0,0,0,0, ,0,0,0,0,0, ,10.2,-96.9,998.2,-1.6,-1.3,-2.2,25,43.7262,-104.497,983.963,3.54214,6.32094,-3.30925,
2026_06_10_18_58_38.250,3.864,30.8,0,0.759,0,0,0,0, ,0,0,0,0,0, ,18.7,-87,999.7,-2.1,-0.9,-2.7,25,41.9422,-103.732,984.877,3.21355,5.86873,-3.25689,
2026_06_10_18_58_38.266,3.864,30.9,0,0.76,0,0,0,0, ,0,0,0,0,0, ,34.7,-89.9,1001,-2,0.3,-2,25,41.0134,-102.801,985.82,2.89281,5.49282,-3.20162,
2026_06_10_18_58_38.298,3.864,30.9,0,0.759,0,0,0,0, ,0,0,0,0,0, ,14.2,-94.3,993.2,-2.3,0.5,-0.1,25,40.004,-102.149,986.507,2.58551,5.18248,-3.07051,
2026_06_10_18_58_38.314,3.864,30.7,0,0.757,0,0,0,0, ,0,0,0,0,0, ,18.4,-110.9,1002.6,-0.1,-1.1,-4.1,25,38.5596,-102.176,987.201,2.35483,4.84839,-3.01137,
2026_06_10_18_58_38.330,3.864,30.8,0,0.757,0,0,0,0, ,0,0,0,0,0, ,8.3,-89.5,996.9,-1,-2.5,-2.5,25,37.0234,-102.056,987.966,2.17782,4.44325,-3.02896,
2026_06_10_18_58_38.346,3.864,30.8,0,0.759,0,0,0,0, ,0,0,0,0,0, ,25.7,-96.9,1001.4,-0.4,-2.6,-4,25,35.8032,-101.516,988.647,2.00245,4.0171,-3.04243,
2026_06_10_18_58_38.378,3.864,30.9,0,0.759,0,0,0,0, ,0,0,0,0,0, ,23.8,-84.2,991.8,0,-2,-2.8,25,35.1296,-100.848,989.132,1.86824,3.63215,-3.06422,
2026_06_10_18_58_38.395,3.864,30.9,0,0.759,0,0,0,0, ,0,0,0,0,0, ,22.2,-84.2,1003.6,0.4,-2.4,-3.5,25,34.3905,-99.8334,989.654,1.76658,3.27676,-3.06944,
2026_06_10_18_58_38.410,3.864,30.8,0,0.759,0,0,0,0, ,0,0,0,0,0, ,31.6,-88.6,1004.1,-0.1,-1.4,-3,25,33.934,-99.0148,990.519,1.66807,2.9613,-3.08045,
2026_06_10_18_58_38.426,3.864,30.9,0,0.76,0,0,0,0, ,0,0,0,0,0, ,27.2,-88.2,1005.4,-0.6,-0.1,-2,25,33.6577,-98.3679,991.386,1.54509,2.73514,-3.04508,
2026_06_10_18_58_38.458,3.864,30.8,0,0.76,0,0,0,0, ,0,0,0,0,0, ,22.5,-89.5,1000,-0.8,0.6,-1.1,25,33.121,-97.7879,992.076,1.40828,2.5837,-2.95397,
2026_06_10_18_58_38.474,3.864,30.8,0,0.759,0,0,0,0, ,0,0,0,0,0, ,11.3,-93.8,995.8,-0.3,-0.5,-0.8,25,32.1325,-97.4139,992.431,1.28895,2.4293,-2.83185,
2026_06_10_18_58_38.490,3.864,30.9,0,0.759,0,0,0,0, ,0,0,0,0,0, ,14.6,-87.1,997.9,0.2,-1.9,-1.3,25,30.9636,-96.9896,992.7,1.20736,2.20814,-2.72327,
2026_06_10_18_58_38.506,3.864,30.8,0,0.759,0,0,0,0, ,0,0,0,0,0, ,20,-84.1,1002.4,0.3,-2.8,-1.8,25,30.131,-96.2955,993.154,1.14902,1.93038,-2.65178,
2026_06_10_18_58_38.538,3.864,30.8,0,0.761,0,0,0,0, ,0,0,0,0,0, ,27.4,-80,1004,0,-1.8,-1.6,25,29.7391,-95.4274,993.766,1.08814,1.67259,-2.59378,
2026_06_10_18_58_38.554,3.864,30.8,0,0.759,0,0,0,0, ,0,0,0,0,0, ,29.7,-88.2,1000.8,-0.2,-0.9,-1.4,25,29.6666,-94.7372,994.292,1.01574,1.4884,-2.52712,
2026_06_10_18_58_38.570,3.864,30.9,0,0.759,0,0,0,0, ,0,0,0,0,0, ,19.1,-85.9,995.6,0.1,-1.3,-0.8,25,29.3457,-94.2687,994.53,0.950796,1.33067,-2.44016,
2026_06_10_18_58_38.586,3.864,30.7,0,0.757,0,0,0,0, ,0,0,0,0,0, ,15.3,-86,1000.7,0.9,-2.6,-2.9,25,28.6056,-93.7618,994.751,0.923326,1.13076,-2.4042,
2026_06_10_18_58_38.618,3.864,30.8,0,0.759,0,0,0,0, ,0,0,0,0,0, ,33.9,-84.5,1006.4,0.4,-2.7,-2.6,25,28.3615,-93.2431,995.287,0.90667,0.900367,-2.42527,
2026_06_10_18_58_38.633,3.864,30.7,0,0.759,0,0,0,0, ,0,0,0,0,0, ,36.9,-82.6,1004.5,0,-2.2,-1.9,25,28.7904,-92.6524,995.906,0.863607,0.696204,-2.41459,
2026_06_10_18_58_38.650,3.864,30.9,0,0.759,0,0,0,0, ,0,0,0,0,0, ,29.4,-80.6,998.1,-0.5,-0.3,-1.3,25,29.0561,-91.9789,996.235,0.795747,0.577608,-2.36495,
2026_06_10_18_58_38.676,3.864,30.8,0,0.759,0,0,0,0, ,0,0,0,0,0, ,28.4,-86.1,1001.3,-0.5,0.1,-1.7,25,29.0465,-91.4531,996.446,0.716787,0.536316,-2.31224,
2026_06_10_18_58_38.682,3.864,30.8,0,0.757,0,0,0,0, ,0,0,0,0,0, ,23.4,-90.8,996.7,-0.5,0.1,-0.6,25,28.8548,-91.2701,996.602,0.642639,0.509728,-2.24142,
2026_06_10_18_58_38.713,3.864,30.8,0,0.76,0,0,0,0, ,0,0,0,0,0, ,14.2,-87.4,998.7,-0.2,-1,-1.7,25,28.2421,-91.1379,996.669,0.58215,0.451244,-2.17491,
2026_06_10_18_58_38.729,3.864,30.8,0,0.757,0,0,0,0, ,0,0,0,0,0, ,37.4,-84.9,1001.4,-0.7,-1,-2.1,25,28.0933,-90.8339,996.875,0.519254,0.362809,-2.15816,
2026_06_10_18_58_38.744,3.864,30.8,0,0.759,0,0,0,0, ,0,0,0,0,0, ,26.7,-84.4,1001.4,-1,-0.4,-0.9,25,28.3344,-90.4571,997.151,0.435815,0.298044,-2.11805,
2026_06_10_18_58_38.773,3.864,30.9,0,0.757,0,0,0,0, ,0,0,0,0,0, ,24.4,-83.6,1000.9,-1.1,0,-1.5,25,28.1647,-90.0636,997.394,0.345273,0.267695,-2.06211,
2026_06_10_18_58_38.792,3.864,30.9,0,0.757,0,0,0,0, ,0,0,0,0,0, ,21.3,-87.7,994.6,-0.8,-0.5,-1.1,25,27.8408,-89.7946,997.416,0.266342,0.236148,-2.01567,
2026_06_10_18_58_38.808,3.864,30.8,0,0.759,0,0,0,0, ,0,0,0,0,0, ,13.9,-86.6,998.7,0,-1.4,-2.3,25,27.2168,-89.6335,997.369,0.225737,0.163867,-1.99643,
2026_06_10_18_58_38.824,3.864,30.9,0,0.759,0,0,0,0, ,0,0,0,0,0, ,30.8,-83,1002.6,-0.4,-1.7,-3.6,25,26.9202,-89.3389,997.569,0.199794,0.0594281,-2.05454,
2026_06_10_18_58_38.840,3.864,30.8,0,0.757,0,0,0,0, ,0,0,0,0,0, ,40.4,-80,1004.3,-1.3,-0.2,-2.1,25,27.4491,-88.8613,997.928,0.135822,-0.00208395,-2.10301,
2026_06_10_18_58_38.872,3.864,30.8,0,0.759,0,0,0,0, ,0,0,0,0,0, ,37.3,-87.2,1001.8,-1.7,1.5,-1.2,25,28.1439,-88.5407,998.24,0.036139,0.0376524,-2.07541,
2026_06_10_18_58_38.888,3.864,30.9,0,0.759,0,0,0,0, ,0,0,0,0,0, ,22.8,-81.5,998,-1.4,1.7,-0.3,25,28.26,-88.2853,998.341,-0.0605164,0.132858,-1.99464,
2026_06_10_18_58_38.904,3.864,30.8,0,0.759,0,0,0,0, ,0,0,0,0,0, ,8.9,-88.7,998.4,-1.2,0.1,-1.1,25,27.5038,-88.0912,998.332,-0.136047,0.179606,-1.91575,
2026_06_10_18_58_38.920,3.864,30.9,0,0.759,0,0,0,0, ,0,0,0,0,0, ,21.7,-90.3,1000.7,-0.9,-1,-2.4,25,26.7601,-88.177,998.407,-0.191741,0.141239,-1.90565,
2026_06_10_18_58_38.951,3.864,30.8,0,0.76,0,0,0,0, ,0,0,0,0,0, ,26.4,-85.8,997.6,-0.9,-1,-2.2,25,26.595,-88.1693,998.452,-0.234901,0.0716948,-1.92968,
2026_06_10_18_58_38.973,3.864,30.8,0,0.76,0,0,0,0, ,0,0,0,0,0, ,26.6,-84.7,1001,-0.6,-0.7,-1.8,25,26.5892,-87.9914,998.504,-0.26629,0.0155291,-1.93396,
2026_06_10_18_58_38.983,3.864,30.8,0,0.759,0,0,0,0, ,0,0,0,0,0, ,28.8,-83.1,1001.2,-0.8,-0.5,-2,25,26.6569,-87.7421,998.662,-0.292719,-0.0219797,-1.93189,
2026_06_10_18_58_38.998,3.864,30.8,0,0.757,0,0,0,0, ,0,0,0,0,0, ,29.1,-86,1002.9,-1.2,-0.1,-1.2,25,26.7966,-87.5476,998.868,-0.335819,-0.0389216,-1.91167,
2026_06_10_18_58_39.030,3.864,30.9,0,0.757,0,0,0,0, ,0,0,0,0,0, ,21.9,-85.8,1000,-1,0,-1.4,25,26.7176,-87.4472,999.026,-0.382386,-0.0395967,-1.8744,
2026_06_10_18_58_39.046,3.864,30.7,0,0.758,0,0,0,0, ,0,0,0,0,0, ,21.1,-86.6,999.7,-0.6,-0.6,-1.2,25,26.3997,-87.3712,999.076,-0.407835,-0.055465,-1.83939,
2026_06_10_18_58_39.062,3.864,30.8,0,0.759,0,0,0,0, ,0,0,0,0,0, ,27.9,-86.7,1001.4,-0.7,-0.3,-1.7,25,26.2839,-87.3272,999.166,-0.422591,-0.079507,-1.81566,
2026_06_10_18_58_39.083,3.864,30.8,0,0.759,0,0,0,0, ,0,0,0,0,0, ,29.9,-85,1000.8,-0.8,0.3,-1.1,25,26.4433,-87.2372,999.283,-0.442543,-0.074662,-1.79033,
2026_06_10_18_58_39.109,3.864,30.8,0,0.76,0,0,0,0, ,0,0,0,0,0, ,20.2,-83.2,1002.4,-0.9,0.2,-1.8,25,26.3584,-87.046,999.425,-0.467372,-0.0548779,-1.7696,
2026_06_10_18_58_39.125,3.864,30.9,0,0.76,0,0,0,0, ,0,0,0,0,0, ,30,-86.9,1000.2,-0.9,0.4,-1.7,25,26.2817,-86.9244,999.539,-0.493736,-0.0332526,-1.7684,
2026_06_10_18_58_39.141,3.864,30.9,0,0.76,0,0,0,0, ,0,0,0,0,0, ,24.1,-86.3,998.4,-0.8,0.2,-1.1,25,26.3285,-86.9046,999.524,-0.515445,-0.012945,-1.74595,
2026_06_10_18_58_39.157,3.864,30.8,0,0.759,0,0,0,0, ,0,0,0,0,0, ,24.6,-86,997.9,-0.8,0.2,-1.4,25,26.208,-86.8586,999.441,-0.532785,3.13431e-05,-1.71573,
2026_06_10_18_58_39.189,3.864,30.8,0,0.76,0,0,0,0, ,0,0,0,0,0, ,21.9,-88.7,999,-0.5,-0.1,-1.2,25,26.0277,-86.8886,999.38,-0.539928,0.00307631,-1.6904,
2026_06_10_18_58_39.205,3.864,30.8,0,0.758,0,0,0,0, ,0,0,0,0,0, ,20.2,-89.2,1000.1,-0.4,-0.5,-1.6,25,25.7244,-87.0142,999.391,-0.534448,-0.0153924,-1.6727,
2026_06_10_18_58_39.221,3.864,30.9,0,0.76,0,0,0,0, ,0,0,0,0,0, ,31.3,-109,1002.1,0,-0.7,-2,25,25.726,-87.7507,999.495,-0.514068,-0.0510169,-1.68046,
2026_06_10_18_58_39.239,3.864,30.8,0,0.758,0,0,0,0, ,0,0,0,0,0, ,22.8,-69.9,992.5,-0.4,0,-1.6,25,25.8066,-87.8542,999.361,-0.494929,-0.0692362,-1.68774,
2026_06_10_18_58_39.270,3.864,30.9,0,0.76,0,0,0,0, ,0,0,0,0,0, ,26.1,-88.7,1005.7,-0.2,0.3,-2.3,25,25.724,-87.333,999.345,-0.483051,-0.0558765,-1.70372,
2026_06_10_18_58_39.287,3.864,30.7,0,0.759,0,0,0,0, ,0,0,0,0,0, ,22.9,-83.4,1000.2,-0.5,0.1,-0.8,25,25.6494,-87.2548,999.565,-0.474943,-0.040284,-1.69436,
2026_06_10_18_58_39.301,3.864,30.8,0,0.757,0,0,0,0, ,0,0,0,0,0, ,16.3,-83.7,999.3,-0.3,-0.2,-1.3,25,25.2808,-87.029,999.576,-0.470376,-0.0408761,-1.65509,
2026_06_10_18_58_39.317,3.864,30.8,0,0.759,0,0,0,0, ,0,0,0,0,0, ,20.8,-83.9,1004.1,-0.6,-0.6,-1.4,25,24.8706,-86.8322,999.706,-0.469135,-0.0627602,-1.6365,
2026_06_10_18_58_39.349,3.864,30.9,0,0.759,0,0,0,0, ,0,0,0,0,0, ,24.2,-81.6,1000.7,-0.7,-0.4,-1.8,25,24.7261,-86.5835,999.87,-0.480156,-0.0894045,-1.63428,
2026_06_10_18_58_39.365,3.864,30.8,0,0.759,0,0,0,0, ,0,0,0,0,0, ,22.3,-79.1,1000.6,-0.6,-0.4,-1.4,25,24.6362,-86.2036,999.917,-0.490506,-0.108331,-1.63219,
2026_06_10_18_58_39.383,3.864,30.8,0,0.759,0,0,0,0, ,0,0,0,0,0, ,23.6,-85.6,1000.4,-0.9,-0.2,-1.8,25,24.5334,-85.9688,999.953,-0.506319,-0.120011,-1.63023,
2026_06_10_18_58_39.397,3.864,30.8,0,0.759,0,0,0,0, ,0,0,0,0,0, ,21.1,-88.9,998.2,-0.7,-0.2,-1.6,25,24.4004,-86.0469,999.913,-0.524215,-0.124886,-1.63448,
2026_06_10_18_58_39.429,3.864,30.8,0,0.758,0,0,0,0, ,0,0,0,0,0, ,20.6,-86.3,1001.9,-0.8,-0.6,-1.7,25,24.184,-86.1415,999.921,-0.537974,-0.14165,-1.63542,
2026_06_10_18_58_39.445,3.864,30.8,0,0.758,0,0,0,0, ,0,0,0,0,0, ,30.1,-83.7,998.7,-0.7,-0.5,-1.7,25,24.2551,-86.072,999.944,-0.550894,-0.166534,-1.63936,
2026_06_10_18_58_39.461,3.864,30.8,0,0.758,0,0,0,0, ,0,0,0,0,0, ,21.7,-84.3,1001.7,-0.7,-0.5,-0.9,25,24.3553,-85.9457,999.96,-0.55998,-0.186855,-1.61868,
2026_06_10_18_58_39.484,3.864,30.9,0,0.759,0,0,0,0, ,0,0,0,0,0, ,17.5,-85.3,1000.3,-0.6,-0.4,-1.8,25,24.0655,-85.8759,1000.02,-0.565466,-0.20289,-1.60231,
2026_06_10_18_58_39.493,3.864,30.8,0,0.759,0,0,0,0, ,0,0,0,0,0, ,22.2,-85.6,999.7,-0.8,-0.5,-1.6,25,23.8087,-85.8499,1000.02,-0.573664,-0.217948,-1.60826,
2026_06_10_18_58_39.525,3.864,30.8,0,0.759,0,0,0,0, ,0,0,0,0,0, ,25.2,-83.8,998,-0.5,-0.6,-2,25,23.802,-85.7799,999.951,-0.578316,-0.238183,-1.61994,
2026_06_10_18_58_39.547,3.864,30.8,0,0.76,0,0,0,0, ,0,0,0,0,0, ,23.5,-83.7,1001.7,-0.5,-0.7,-2,25,23.8354,-85.6562,999.944,-0.573543,-0.263278,-1.6431,
2026_06_10_18_58_39.556,3.864,30.8,0,0.759,0,0,0,0, ,0,0,0,0,0, ,26,-85.4,1002.1,-0.7,0,-1.6,25,23.8912,-85.5888,1000.06,-0.575156,-0.268563,-1.65266,
2026_06_10_18_58_39.588,3.864,30.7,0,0.76,0,0,0,0, ,0,0,0,0,0, ,20.7,-85.8,1000.8,-0.9,0.5,-1.4,25,23.8582,-85.5894,1000.15,-0.588857,-0.236963,-1.64336,
2026_06_10_18_58_39.604,3.864,30.8,0,0.76,0,0,0,0, ,0,0,0,0,0, ,21.2,-86.7,999,-0.8,0,-1.5,25,23.681,-85.6297,1000.13,-0.60477,-0.207288,-1.63158,
2026_06_10_18_58_39.620,3.864,30.7,0,0.758,0,0,0,0, ,0,0,0,0,0, ,20.3,-86.3,997.9,-0.6,-0.9,-1.9,25,23.5024,-85.6827,1000.03,-0.610573,-0.222079,-1.63575,
2026_06_10_18_58_39.636,3.864,30.8,0,0.76,0,0,0,0, ,0,0,0,0,0, ,29,-89.9,1003.4,-0.7,-1.4,-0.2,25,23.5723,-85.83,1000.07,-0.612976,-0.278624,-1.60005,
2026_06_10_18_58_39.652,3.864,30.8,0,0.758,0,0,0,0, ,0,0,0,0,0, ,2.3,-78.1,1001.5,-0.7,-1.4,-1.3,25,23.0895,-85.7185,1000.21,-0.618279,-0.346958,-1.54825,
2026_06_10_18_58_39.684,3.864,30.9,0,0.758,0,0,0,0, ,0,0,0,0,0, ,14.2,-79.4,1002.1,-0.4,-2.3,-4.8,25,22.1852,-85.2939,1000.31,-0.614118,-0.438549,-1.63977,
2026_06_10_18_58_39.700,3.864,30.5,0,0.76,0,0,0,0, ,0,0,0,0,0, ,37.5,-83.7,1005.6,-1.5,-2.2,-4.9,25,22.4086,-85.0657,1000.53,-0.634586,-0.548935,-1.83539,
2026_06_10_18_58_39.719,3.864,30.7,0,0.759,0,0,0,0, ,0,0,0,0,0, ,37.4,-85.3,1004.1,-3.1,-1.4,-1.6,25,23.3252,-85.0313,1000.79,-0.736072,-0.625171,-1.92159,
2026_06_10_18_58_39.732,3.864,30.7,0,0.759,0,0,0,0, ,0,0,0,0,0, ,17.8,-87.7,1007.3,-4,-0.7,-1.6,25,23.5857,-85.1208,1001.09,-0.907546,-0.651059,-1.902,
2026_06_10_18_58_39.764,3.864,30.9,0,0.757,0,0,0,0, ,0,0,0,0,0, ,24.2,-84.2,991.4,-2.9,-1.7,-3.2,25,23.4281,-85.1713,1000.98,-1.06248,-0.68451,-1.93234,
2026_06_10_18_58_39.785,3.864,30.8,0,0.758,0,0,0,0, ,0,0,0,0,0, ,37.1,-84.8,1003.6,-1.9,0.5,-2.8,25,23.8682,-85.1304,1000.77,-1.14398,-0.679361,-1.9974,
2026_06_10_18_58_39.795,3.864,30.8,0,0.758,0,0,0,0, ,0,0,0,0,0, ,33.8,-86.4,1006.1,-2.9,2,-1.7,25,24.5739,-85.159,1001.02,-1.22052,-0.56179,-2.0128,
2026_06_10_18_58_39.810,3.864,30.7,0,0.758,0,0,0,0, ,0,0,0,0,0, ,29.7,-87.8,998.9,-3.7,2.4,0.1,25,25.0112,-85.2773,1001.11,-1.34724,-0.393494,-1.93889,
2026_06_10_18_58_39.842,3.864,30.7,0,0.759,0,0,0,0, ,0,0,0,0,0, ,24.7,-91.5,993.4,-2.3,2,1.3,25,25.1446,-85.5437,1000.81,-1.44795,-0.235453,-1.77808,
2026_06_10_18_58_39.858,3.864,30.8,0,0.76,0,0,0,0, ,0,0,0,0,0, ,-120.6,-90.8,986,0.1,-4.9,-5.9,25,20.6904,-85.8854,1000.13,-1.42675,-0.309464,-1.80989,
2026_06_10_18_58_39.885,3.864,30.8,0,0.759,0,0,0,0, ,0,0,0,0,0, ,142.2,-99.2,1018.3,-0.5,-3.6,-5.5,25,20.0877,-86.4408,1000.25,-1.352,-0.54959,-2.04694,
2026_06_10_18_58_39.891,3.864,30.8,0,0.757,0,0,0,0, ,0,0,0,0,0, ,-25,-89.9,987.1,-1.8,-0.8,2.4,25,22.4346,-86.9349,1000.4,-1.33969,-0.650162,-2.01666,
2026_06_10_18_58_39.922,3.864,30.7,0,0.76,0,0,0,0, ,0,0,0,0,0, ,46.6,-84.5,1008.5,-0.6,-2,-5,25,21.7256,-86.9511,1000.24,-1.33117,-0.695855,-1.97299,
2026_06_10_18_58_39.941,3.864,30.8,0,0.759,0,0,0,0, ,0,0,0,0,0, ,33.6,-90.6,998.5,-1.8,0,1,25,22.8453,-86.9876,1000.44,-1.32318,-0.714389,-1.97463,
2026_06_10_18_58_39.954,3.864,30.7,0,0.758,0,0,0,0, ,0,0,0,0,0, ,12.6,-87.6,1006.1,-1.1,-0.3,-2.2,25,22.8608,-87.1163,1000.56,-1.33091,-0.679997,-1.89087,
2026_06_10_18_58_39.970,3.864,30.7,0,0.758,0,0,0,0, ,0,0,0,0,0, ,35.6,-96,996.2,-2.1,0.2,-1,25,22.9363,-87.4017,1000.59,-1.34731,-0.641606,-1.87314,
2026_06_10_18_58_40.003,3.864,30.7,0,0.758,0,0,0,0, ,0,0,0,0,0, ,15.9,-91.4,993.2,-1.9,-1.8,0,25,23.1078,-87.7855,1000.23,-1.38708,-0.651259,-1.78947,
2026_06_10_18_58_40.019,3.864,30.8,0,0.758,0,0,0,0, ,0,0,0,0,0, ,12.8,-90.3,998.6,-0.1,-4.5,-3.2,25,22.5741,-87.9723,999.969,-1.36349,-0.803526,-1.77792,
2026_06_10_18_58_40.035,3.864,30.7,0,0.758,0,0,0,0, ,0,0,0,0,0, ,54.5,-90.6,1005.8,-0.8,-3.2,-1.1,25,23.249,-88.1233,1000.1,-1.30783,-0.98917,-1.80059,
2026_06_10_18_58_40.051,3.864,30.7,0,0.759,0,0,0,0, ,0,0,0,0,0, ,44.9,-92.8,1001,-1.6,-2,1.1,25,24.8609,-88.3412,1000.31,-1.30126,-1.08733,-1.69087,
2026_06_10_18_58_40.083,3.864,30.8,0,0.76,0,0,0,0, ,0,0,0,0,0, ,12,-92.1,999.3,-2.1,-2.5,0.6,25,25.0796,-88.5916,1000.3,-1.33469,-1.15818,-1.53604,
2026_06_10_18_58_40.099,3.864,30.9,0,0.759,0,0,0,0, ,0,0,0,0,0, ,14.8,-87.6,998.5,-1.5,-3.7,-2.5,25,24.3679,-88.6683,1000.21,-1.36305,-1.27651,-1.50032,
2026_06_10_18_58_40.115,3.864,30.7,0,0.757,0,0,0,0, ,0,0,0,0,0, ,31.1,-90.3,999,-1,-3.2,-4.5,25,24.2815,-88.6854,1000.12,-1.35616,-1.40896,-1.62218,
2026_06_10_18_58_40.131,3.864,30.5,0,0.759,0,0,0,0, ,0,0,0,0,0, ,55,-89.3,1002,-1.2,-2.1,-2.3,25,25.4252,-88.7534,1000.14,-1.34055,-1.48458,-1.73052,
2026_06_10_18_58_40.147,3.864,30.7,0,0.758,0,0,0,0, ,0,0,0,0,0, ,33.5,-89.8,996.8,-1.6,-1.9,-0.2,25,26.5723,-88.8019,1000.1,-1.34417,-1.51599,-1.70123,
2026_06_10_18_58_40.179,3.864,30.8,0,0.758,0,0,0,0, ,0,0,0,0,0, ,29.2,-90.9,1002.3,-1.5,-1.5,-1.8,25,26.8635,-88.8962,1000.07,-1.35672,-1.5272,-1.6585,
2026_06_10_18_58_40.195,3.864,30.8,0,0.759,0,0,0,0, ,0,0,0,0,0, ,29.9,-91.1,1001.4,-1.3,-0.5,-3,25,27.0272,-89.0244,1000.17,-1.35935,-1.49508,-1.70369,
2026_06_10_18_58_40.211,3.864,30.7,0,0.759,0,0,0,0, ,0,0,0,0,0, ,40.5,-92.5,997.4,-2,0.8,-2.4,25,27.5252,-89.1936,1000.13,-1.37706,-1.39483,-1.7644,
2026_06_10_18_58_40.227,3.864,30.8,0,0.759,0,0,0,0, ,0,0,0,0,0, ,37.9,-92.4,1002.6,-2.5,1.5,-1.4,25,28.2366,-89.392,1000.12,-1.43026,-1.23976,-1.77266,
2026_06_10_18_58_40.258,3.864,30.8,0,0.759,0,0,0,0, ,0,0,0,0,0, ,27.3,-94.3,994.8,-2.2,1.3,-1.3,25,28.5025,-89.6332,1000.03,-1.48631,-1.0789,-1.74691,
2026_06_10_18_58_40.274,3.864,30.7,0,0.759,0,0,0,0, ,0,0,0,0,0, ,26.2,-92.7,999.2,-1.7,0.8,-2.1,25,28.3957,-89.8688,999.848,-1.51456,-0.949166,-1.74405,
2026_06_10_18_58_40.290,3.864,30.8,0,0.758,0,0,0,0, ,0,0,0,0,0, ,33.2,-96,997.8,-1.3,-0.3,-1.8,25,28.4752,-90.1419,999.766,-1.51367,-0.876091,-1.7566,
2026_06_10_18_58_40.306,3.864,30.7,0,0.758,0,0,0,0, ,0,0,0,0,0, ,24,-94.1,996.9,-1.4,-1,-2.2,25,28.4828,-90.441,999.619,-1.5037,-0.862314,-1.77143,
2026_06_10_18_58_40.338,3.864,30.5,0,0.758,0,0,0,0, ,0,0,0,0,0, ,22.5,-95.2,1000.1,-1.5,-1,-3.4,25,28.1639,-90.6975,999.551,-1.50043,-0.870704,-1.83411,
2026_06_10_18_58_40.354,3.864,30.7,0,0.758,0,0,0,0, ,0,0,0,0,0, ,35.7,-92.8,1000.8,-1.9,0.3,-4.3,25,28.221,-90.8987,999.606,-1.51259,-0.838974,-1.95695,
2026_06_10_18_58_40.371,3.864,30.7,0,0.759,0,0,0,0, ,0,0,0,0,0, ,37.2,-95,1000.2,-2.4,1.5,-3.3,25,28.7224,-91.0816,999.66,-1.55143,-0.733005,-2.06926,
2026_06_10_18_58_40.386,3.864,30.7,0,0.759,0,0,0,0, ,0,0,0,0,0, ,33.3,-96.8,996.3,-1.8,1.1,-2.3,25,29.1202,-91.3752,999.574,-1.58486,-0.609119,-2.11379,
2026_06_10_18_58_40.418,3.864,30.7,0,0.761,0,0,0,0, ,0,0,0,0,0, ,29.6,-100,996.2,-1.1,0.7,-1.6,25,29.2622,-91.8033,999.372,-1.57664,-0.517157,-2.10381,
2026_06_10_18_58_40.433,3.864,30.7,0,0.76,0,0,0,0, ,0,0,0,0,0, ,29,-94.6,997.6,-1.4,1.1,-0.9,25,29.2645,-92.1383,999.221,-1.55674,-0.430799,-2.05178,
2026_06_10_18_58_40.449,3.864,30.5,0,0.758,0,0,0,0, ,0,0,0,0,0, ,25.1,-94.6,998.5,-1.4,0.6,-2.1,25,29.1295,-92.2883,999.15,-1.54719,-0.35275,-2.01816,
2026_06_10_18_58_40.465,3.864,30.7,0,0.757,0,0,0,0, ,0,0,0,0,0, ,34.9,-96.1,997.3,-1,0,-2,25,29.1826,-92.4749,999.073,-1.52603,-0.312973,-2.0201,
2026_06_10_18_58_40.497,3.864,30.8,0,0.758,0,0,0,0, ,0,0,0,0,0, ,30.6,-98.6,998.9,-1.1,0.1,-0.1,25,29.4,-92.7719,999.014,-1.49702,-0.290855,-1.96098,
2026_06_10_18_58_40.513,3.864,30.8,0,0.757,0,0,0,0, ,0,0,0,0,0, ,21.1,-99.4,998.1,-1,0.2,-0.5,25,29.1836,-93.1515,998.983,-1.46978,-0.26399,-1.85977,
2026_06_10_18_58_40.529,3.864,30.7,0,0.758,0,0,0,0, ,0,0,0,0,0, ,25.3,-98.5,992.7,-0.3,-0.3,-0.9,25,28.819,-93.5048,998.764,-1.41983,-0.25095,-1.78909,
2026_06_10_18_58_40.558,3.864,30.7,0,0.759,0,0,0,0, ,0,0,0,0,0, ,27.3,-98.2,996.5,0.4,-1.9,-0.6,25,28.6655,-93.8001,998.511,-1.33026,-0.302689,-1.72577,
2026_06_10_18_58_40.577,3.864,30.7,0,0.759,0,0,0,0, ,0,0,0,0,0, ,31.9,-95.3,998.5,0.6,-1.8,-0.4,25,28.7225,-93.9798,998.449,-1.21873,-0.396978,-1.65108,
2026_06_10_18_58_40.597,3.864,30.7,0,0.759,0,0,0,0, ,0,0,0,0,0, ,35.6,-95.7,998.6,0.3,-1.8,0.9,25,29.0288,-94.0725,998.455,-1.11704,-0.482475,-1.53523,
2026_06_10_18_58_40.617,3.864,30.8,0,0.76,0,0,0,0, ,0,0,0,0,0, ,22.7,-97.1,1003.5,-0.6,-2.5,1.1,25,29.0362,-94.2143,998.613,-1.05811,-0.58409,-1.38074,
2026_06_10_18_58_40.637,3.864,30.7,0,0.76,0,0,0,0, ,0,0,0,0,0, ,51.6,-134.6,1007.2,2.3,-3.5,-1.3,25,29.5306,-95.5327,999.024,-0.941835,-0.731309,-1.3027,
2026_06_10_18_58_40.660,3.864,30.7,0,0.758,0,0,0,0, ,0,0,0,0,0, ,23.1,-81,1003.4,-1.4,-6.2,3.4,25,30.0071,-96.2803,999.406,-0.85702,-0.982292,-1.15933,
2026_06_10_18_58_40.676,3.864,30.8,0,0.759,0,0,0,0, ,0,0,0,0,0, ,52.3,-94.9,991.6,-3.1,-10.3,1.3,25,30.4759,-95.7726,999.29,-0.941904,-1.42517,-0.945479,
2026_06_10_18_58_40.696,3.864,30.5,0,0.759,0,0,0,0, ,0,0,0,0,0, ,36.1,-79.7,1014.7,-3.2,-8,1.7,25,31.3122,-95.2563,999.525,-1.07646,-1.8959,-0.796457,
2026_06_10_18_58_40.716,3.864,30.7,0,0.76,0,0,0,0, ,0,0,0,0,0, ,40.7,-92.4,1002.8,-4.6,-8.3,0.5,25,31.7441,-94.6953,1000.09,-1.24852,-2.27701,-0.680892,
2026_06_10_18_58_40.735,3.864,30.7,0,0.758,0,0,0,0, ,0,0,0,0,0, ,55.4,-92.1,1002.9,-5,-6.6,1.2,25,32.7378,-94.5463,1000.26,-1.46494,-2.59224,-0.587603,
2026_06_10_18_58_40.756,3.864,30.8,0,0.759,0,0,0,0, ,0,0,0,0,0, ,54.8,-96.9,998.6,-5.4,-6.2,1.4,25,34.1005,-94.5435,1000.29,-1.69254,-2.82427,-0.472578,
2026_06_10_18_58_40.776,3.864,30.5,0,0.759,0,0,0,0, ,0,0,0,0,0, ,46.5,-101.9,1005.9,-6.9,-6.3,2.3,25,35.109,-94.8394,1000.41,-1.96417,-3.03303,-0.331045,
2026_06_10_18_58_40.796,3.864,30.5,0,0.757,0,0,0,0, ,0,0,0,0,0, ,52.7,-128.1,1006.8,-7.9,-5.1,0.6,25,35.992,-96.068,1000.77,-2.29542,-3.19555,-0.222513,
2026_06_10_18_58_40.815,3.864,30.7,0,0.759,0,0,0,0, ,0,0,0,0,0, ,51.3,-92.8,1000.9,-8.3,-2.6,-1,25,36.9675,-96.9444,1000.96,-2.64913,-3.23543,-0.221141,
2026_06_10_18_58_40.834,3.864,30.5,0,0.759,0,0,0,0, ,0,0,0,0,0, ,53.9,-111,976.9,-7.1,-0.6,1.6,25,37.9201,-97.2464,1000.22,-2.95692,-3.13577,-0.189384,
2026_06_10_18_58_40.854,3.864,30.7,0,0.758,0,0,0,0, ,0,0,0,0,0, ,50.4,-115.9,990.7,-4.9,0,2,25,38.7872,-98.2338,999.22,-3.14236,-2.96296,-0.068156,
2026_06_10_18_58_40.874,3.864,30.8,0,0.757,0,0,0,0, ,0,0,0,0,0, ,44.1,-99.7,986.8,-2.9,-0.3,1.9,25,39.3029,-98.8167,998.582,-3.18853,-2.79155,0.0548254,
2026_06_10_18_58_40.894,3.864,30.8,0,0.759,0,0,0,0, ,0,0,0,0,0, ,44.7,-119.2,993.2,-0.6,-1.2,3.2,25,39.6135,-99.4647,998.059,-3.10087,-2.66714,0.206875,
2026_06_10_18_58_40.914,3.864,30.8,0,0.759,0,0,0,0, ,0,0,0,0,0, ,24.6,-112.7,1002.5,-0.9,-2.7,1.4,25,39.3111,-100.469,998.047,-2.95761,-2.62344,0.334425,
2026_06_10_18_58_40.938,3.864,30.7,0,0.761,0,0,0,0, ,0,0,0,0,0, ,27.5,-116.8,982.4,0,-11.1,0.9,25,38.503,-101.339,997.706,-2.8048,-2.88404,0.384124,
2026_06_10_18_58_40.954,3.864,30.5,0,0.759,0,0,0,0, ,0,0,0,0,0, ,30.6,-113.5,987.5,2.3,-18.1,-0.5,25,37.9269,-102.181,996.928,-2.56381,-3.59799,0.372904,
2026_06_10_18_58_40.974,3.864,30.7,0,0.758,0,0,0,0, ,0,0,0,0,0, ,41.7,-110.8,995.1,3.7,-22.3,-3.3,25,37.8187,-102.789,996.585,-2.22476,-4.60967,0.234399,
2026_06_10_18_58_40.994,3.864,30.5,0,0.759,0,0,0,0, ,0,0,0,0,0, ,65.4,-114.7,1015.5,6,-31.5,-9.7,25,38.7773,-103.396,997.116,-1.79364,-5.96799,-0.175979,
2026_06_10_18_58_41.013,3.864,30.5,0,0.759,0,0,0,0, ,0,0,0,0,0, ,139.5,-98,1028.5,4.7,-40.4,-13.7,25,42.6573,-103.576,998.633,-1.35833,-7.79502,-0.878224,
2026_06_10_18_58_41.032,3.864,30.9,0,0.757,0,0,0,0, ,0,0,0,0,0, ,210.4,-105.8,1009.1,2.1,-56.2,-9,25,50.7189,-103.473,999.862,-1.06837,-10.2633,-1.51635,
2026_06_10_18_58_41.052,3.864,30.5,0,0.759,0,0,0,0, ,0,0,0,0,0, ,211.7,-92,956.6,10,-60.1,-4,25,60.4891,-103.195,998.825,-0.634592,-13.1814,-1.82004,
2026_06_10_18_58_41.073,3.864,30.7,0,0.758,0,0,0,0, ,0,0,0,0,0, ,211.4,-78,955.2,8.2,-69.4,2.1,25,69.6944,-102.086,996.209,-0.0413906,-16.3238,-1.76702,
2026_06_10_18_58_41.092,3.864,30.5,0,0.758,0,0,0,0, ,0,0,0,0,0, ,193.3,-68.3,997.4,8.3,-73,2.4,25,77.7781,-100.323,994.996,0.463866,-19.6679,-1.52223,
2026_06_10_18_58_41.112,3.864,30.8,0,0.759,0,0,0,0, ,0,0,0,0,0, ,169,-92.7,1092.1,12.6,-60.5,-1,25,84.0773,-99.1148,998.028,1.0724,-22.5369,-1.38682,
2026_06_10_18_58_41.132,3.864,30.5,0,0.758,0,0,0,0, ,0,0,0,0,0, ,188.3,-106.9,1045.4,9.1,-42.5,-2.6,25,89.8403,-99.1566,1002.34,1.66822,-24.3019,-1.41199,
2026_06_10_18_58_41.151,3.864,30.7,0,0.759,0,0,0,0, ,0,0,0,0,0, ,91.9,-242.3,915,21.4,-37.6,3.7,25,92.903,-103.754,1000.99,2.49586,-25.2615,-1.29244,
2026_06_10_18_58_41.171,3.864,30.7,0,0.758,0,0,0,0, ,0,0,0,0,0, ,299,-44.6,991.3,29.6,-54.1,17.8,25,99.152,-106.173,998.073,3.89767,-26.5161,-0.5586,
2026_06_10_18_58_41.191,3.864,30.5,0,0.758,0,0,0,0, ,0,0,0,0,0, ,258.3,-51.2,983,30.3,-48.5,14.8,25,110.09,-102.622,997.408,5.48524,-28.0264,0.468721,
2026_06_10_18_58_41.211,3.864,30.8,0,0.759,0,0,0,0, ,0,0,0,0,0, ,282.4,-44.7,1030.5,21.7,-45.9,12.7,25,119.856,-99.2903,997.977,6.73535,-29.1948,1.27805,
2026_06_10_18_58_41.231,3.864,30.7,0,0.759,0,0,0,0, ,0,0,0,0,0, ,273.1,-23,1022.7,8.1,-35,10.1,25,129.478,-95.3025,999.721,7.23289,-29.8807,1.89486,
2026_06_10_18_58_41.251,3.864,30.7,0,0.758,0,0,0,0, ,0,0,0,0,0, ,284.4,-41.1,1007.3,-2.1,-28.1,5.9,25,138.574,-91.4481,1000.65,6.97495,-29.9824,2.26689,
2026_06_10_18_58_41.271,3.864,30.8,0,0.759,0,0,0,0, ,0,0,0,0,0, ,317.5,-75.4,1010.6,-10.3,-29.2,3.5,25,148.469,-89.4251,1001.16,6.1721,-29.9012,2.41516,
2026_06_10_18_58_41.291,3.864,30.7,0,0.758,0,0,0,0, ,0,0,0,0,0, ,334.1,-100.8,998.5,-16.9,-36.1,5,25,159.275,-89.3443,1001.36,4.96724,-30.0687,2.52697,
2026_06_10_18_58_41.310,3.864,30.8,0,0.759,0,0,0,0, ,0,0,0,0,0, ,372.1,-103.1,986.4,-19.9,-42.4,11.9,25,171.086,-90.1125,1000.82,3.5433,-30.6282,2.8879,
2026_06_10_18_58_41.335,3.864,30.8,0,0.759,0,0,0,0, ,0,0,0,0,0, ,372.5,-85.8,938.8,-19.7,-51.7,21,25,183.348,-90.3768,998.492,2.12081,-31.6289,3.71434,
2026_06_10_18_58_41.350,3.864,30.7,0,0.757,0,0,0,0, ,0,0,0,0,0, ,363.7,-114.1,924.8,-11.7,-62.3,23.4,25,194.606,-90.9602,994.428,1.03486,-33.1749,4.84081,
2026_06_10_18_58_41.369,3.864,30.7,0,0.758,0,0,0,0, ,0,0,0,0,0, ,348,-80,962.6,-12.7,-69.4,25.9,25,204.432,-91.3313,991.337,0.228359,-35.1661,6.04793,
2026_06_10_18_58_41.389,3.864,30.7,0,0.758,0,0,0,0, ,0,0,0,0,0, ,349.2,-47.7,962.1,-20.7,-60.3,16.7,25,213.217,-89.6566,989.571,-0.803213,-36.9749,6.97736,
2026_06_10_18_58_41.409,3.864,30.7,0,0.76,0,0,0,0, ,0,0,0,0,0, ,337.4,-60.9,911.2,-27.5,-51.4,4.8,25,221.144,-87.5021,986.346,-2.22286,-38.1251,7.20725,
2026_06_10_18_58_41.429,3.864,30.7,0,0.76,0,0,0,0, ,0,0,0,0,0, ,383.1,-135.2,856.8,-23.8,-61.7,-5.7,25,229.621,-88.1449,980.109,-3.65045,-39.2479,6.74064,
2026_06_10_18_58_41.449,3.864,30.7,0,0.76,0,0,0,0, ,0,0,0,0,0, ,445.1,-145.8,878.9,-21.5,-73.1,-4.4,25,240.862,-91.3352,973.268,-4.80824,-40.9634,6.02215,
2026_06_10_18_58_41.470,3.864,30.7,0,0.758,0,0,0,0, ,0,0,0,0,0, ,454.1,-142,880.9,-21.8,-74.9,-3.5,25,253.582,-94.5384,967.579,-5.83453,-42.9766,5.41447,
2026_06_10_18_58_41.488,3.864,30.7,0,0.76,0,0,0,0, ,0,0,0,0,0, ,450.9,-146.2,868.1,-21.9,-75.5,-2.4,25,265.704,-97.5586,961.907,-6.81047,-44.9402,4.90476,
2026_06_10_18_58_41.508,3.864,30.5,0,0.757,0,0,0,0, ,0,0,0,0,0, ,444.5,-130.3,845.5,-20,-73.5,-5,25,276.794,-100.038,955.502,-7.6721,-46.7415,4.38041,
2026_06_10_18_58_41.528,3.864,30.7,0,0.759,0,0,0,0, ,0,0,0,0,0, ,473.2,-132.2,814.8,-16.5,-70.9,-10,25,287.888,-101.94,947.863,-8.31669,-48.2929,3.65644,
2026_06_10_18_58_41.548,3.864,30.7,0,0.759,0,0,0,0, ,0,0,0,0,0, ,522.9,-140.8,800.6,-13.6,-71.4,-13.8,25,300.695,-104.046,939.322,-8.727,-49.6857,2.70847,
2026_06_10_18_58_41.568,3.864,30.7,0,0.759,0,0,0,0, ,0,0,0,0,0, ,566.5,-149.9,789.9,-11.9,-78.6,-14.6,25,315.564,-106.563,930.543,-8.97215,-51.2283,1.67811,
2026_06_10_18_58_41.587,3.864,30.7,0,0.759,0,0,0,0, ,0,0,0,0,0, ,596.4,-156.3,780.8,-12.2,-88.3,-14.3,25,331.766,-109.399,921.695,-9.15971,-53.1918,0.695306,
2026_06_10_18_58_41.607,3.864,30.7,0,0.758,0,0,0,0, ,0,0,0,0,0, ,594.3,-145.3,760.8,-10.9,-88.6,-13.2,25,347.829,-111.922,912.5,-9.30537,-55.3404,-0.184954,
2026_06_10_18_58_41.627,3.864,30.8,0,0.759,0,0,0,0, ,0,0,0,0,0, ,595.3,-137.8,752,-8.5,-81.1,-14,25,362.878,-113.727,902.987,-9.32942,-57.1386,-1.00243,
2026_06_10_18_58_41.647,3.864,30.7,0,0.759,0,0,0,0, ,0,0,0,0,0, ,629.3,-150.5,740.2,-8.3,-70.8,-15.3,25,378.078,-115.581,893.427,-9.27278,-58.2849,-1.83408,
2026_06_10_18_58_41.666,3.864,30.7,0,0.759,0,0,0,0, ,0,0,0,0,0, ,689.8,-161.3,739.3,-10.9,-61.3,-12.1,25,395.23,-118.038,884.062,-9.29272,-58.7581,-2.55716,
2026_06_10_18_58_41.686,3.864,30.7,0,0.758,0,0,0,0, ,0,0,0,0,0, ,728.8,-162.1,704.1,-14.1,-56.2,-4.8,25,414.368,-120.699,874.168,-9.48816,-58.7576,-2.91626,
2026_06_10_18_58_41.706,3.864,30.8,0,0.758,0,0,0,0, ,0,0,0,0,0, ,701.5,-141.1,667.7,-14.4,-55.5,-0.1,25,432.697,-122.582,862.696,-9.77834,-58.5804,-2.88784,
2026_06_10_18_58_41.725,3.864,30.7,0,0.758,0,0,0,0, ,0,0,0,0,0, ,697.8,-134.2,654.2,-14.1,-58.2,-3.1,25,448.965,-123.5,850.402,-10.0508,-58.475,-2.80937,
2026_06_10_18_58_41.747,3.864,30.7,0,0.759,0,0,0,0, ,0,0,0,0,0, ,724.7,-141.8,636.7,-13,-59.3,-6,25,464.948,-124.384,837.913,-10.2641,-58.4918,-2.91544,
2026_06_10_18_58_41.766,3.864,30.8,0,0.757,0,0,0,0, ,0,0,0,0,0, ,762.8,-158.9,629.8,-10.6,-56.7,-3,25,481.937,-125.966,825.441,-10.3577,-58.4618,-3.012,
2026_06_10_18_58_41.786,3.864,30.7,0,0.759,0,0,0,0, ,0,0,0,0,0, ,776.8,-154.7,618.6,-12.9,-56.5,2,25,499.479,-127.845,813.178,-10.4425,-58.3483,-2.85892,
2026_06_10_18_58_41.805,3.864,30.7,0,0.759,0,0,0,0, ,0,0,0,0,0, ,762.4,-141.8,589.8,-15.2,-60.8,1.4,25,515.939,-129.088,800.443,-10.6623,-58.3667,-2.58111,
2026_06_10_18_58_41.825,3.864,30.7,0,0.759,0,0,0,0, ,0,0,0,0,0, ,759.3,-129.7,563.9,-12.3,-61.8,-1.7,25,530.864,-129.494,786.818,-10.8505,-58.5455,-2.43297,
2026_06_10_18_58_41.844,3.864,30.7,0,0.758,0,0,0,0, ,0,0,0,0,0, ,791.8,-143.9,554.4,-7.8,-56.9,-2.6,25,545.774,-129.939,772.945,-10.8017,-58.5945,-2.41572,
2026_06_10_18_58_41.865,3.864,30.5,0,0.758,0,0,0,0, ,0,0,0,0,0, ,819.4,-149.5,542.3,-7.1,-51.6,0.5,25,561.607,-130.961,759.258,-10.5975,-58.3297,-2.3325,
2026_06_10_18_58_41.888,3.864,30.5,0,0.759,0,0,0,0, ,0,0,0,0,0, ,825,-137.2,512.6,-9.1,-49.9,3.2,25,577.487,-131.716,745.133,-10.4453,-57.8679,-2.07763,
2026_06_10_18_58_41.905,3.864,30.7,0,0.759,0,0,0,0, ,0,0,0,0,0, ,805.2,-138.6,491,-7.6,-55.1,0,25,591.967,-132.093,730.304,-10.3176,-57.5408,-1.85352,
2026_06_10_18_58_41.925,3.864,30.7,0,0.759,0,0,0,0, ,0,0,0,0,0, ,803.2,-147.2,493.5,-5.1,-56.1,-4.5,25,604.9,-132.751,715.798,-10.0758,-57.4225,-1.87768,
2026_06_10_18_58_41.944,3.864,30.7,0,0.759,0,0,0,0, ,0,0,0,0,0, ,829.4,-166.7,494.3,-4.6,-51,-4.7,25,617.782,-134.226,702.276,-9.75737,-57.1865,-2.04357,
2026_06_10_18_58_41.964,3.864,30.7,0,0.757,0,0,0,0, ,0,0,0,0,0, ,857.2,-170.7,476.4,-0.2,-41.7,-3.6,25,631.524,-136.327,689.057,-9.30903,-56.5262,-2.17193,
2026_06_10_18_58_41.983,3.864,30.7,0,0.758,0,0,0,0, ,0,0,0,0,0, ,864.3,-166,467.2,1.8,-40.5,-3.2,25,645.493,-138.278,675.818,-8.69301,-55.5861,-2.24677,
2026_06_10_18_58_42.004,3.864,30.7,0,0.758,0,0,0,0, ,0,0,0,0,0, ,843.3,-175,466.7,25.5,-41.7,-6.9,25,658.187,-140.242,663.09,-7.33149,-54.7034,-2.41759,
2026_06_10_18_58_42.023,3.864,30.7,0,0.759,0,0,0,0, ,0,0,0,0,0, ,868,-168.4,440.9,11.6,-39.7,-9.6,25,670.219,-142.159,650.337,-5.75433,-53.85,-2.773,
2026_06_10_18_58_42.043,3.864,30.7,0,0.757,0,0,0,0, ,0,0,0,0,0, ,891.4,-159.4,428.8,6.1,-40.9,-9,25,682.985,-143.483,637.205,-4.86438,-53.0243,-3.17074,
2026_06_10_18_58_42.063,3.864,30.7,0,0.758,0,0,0,0, ,0,0,0,0,0, ,899.9,-159.7,412.8,1.8,-45.7,-8,25,695.944,-144.462,624.018,-4.32725,-52.4318,-3.49549,
2026_06_10_18_58_42.083,3.864,30.7,0,0.758,0,0,0,0, ,0,0,0,0,0, ,901.2,-152.9,410.4,6.2,-44.7,-10.2,25,708.412,-145.184,611.074,-3.81981,-51.9911,-3.83702,
2026_06_10_18_58_42.102,3.864,30.7,0,0.759,0,0,0,0, ,0,0,0,0,0, ,898,-159,389.4,6.9,-38.3,-8.5,25,720.063,-145.84,598.205,-3.1879,-51.3518,-4.17297,
2026_06_10_18_58_42.122,3.864,30.5,0,0.759,0,0,0,0, ,0,0,0,0,0, ,880.7,-158.8,389,7,-34.2,-10.3,25,730.379,-146.636,585.469,-2.57012,-50.4315,-4.49149,
2026_06_10_18_58_42.142,3.864,30.4,0,0.758,0,0,0,0, ,0,0,0,0,0, ,877.9,-146.9,377.4,6.6,-30.8,-13.1,25,739.454,-147.014,573.143,-1.99913,-49.3388,-4.93076,
2026_06_10_18_58_42.162,3.864,30.8,0,0.758,0,0,0,0, ,0,0,0,0,0, ,920.1,-140.7,368,5.6,-30.1,-14.5,25,749.176,-146.819,560.929,-1.50559,-48.1878,-5.47123,
2026_06_10_18_58_42.181,3.864,30.7,0,0.759,0,0,0,0, ,0,0,0,0,0, ,944.7,-150.8,344.3,8.5,-34.5,-12,25,760.341,-146.753,548.45,-0.984235,-47.2196,-5.94525,
2026_06_10_18_58_42.202,3.864,30.7,0,0.758,0,0,0,0, ,0,0,0,0,0, ,930.5,-142.3,335.3,10,-39.7,-11.6,25,771.143,-146.741,535.736,-0.360586,-46.603,-6.30202,
2026_06_10_18_58_42.222,3.864,30.7,0,0.759,0,0,0,0, ,0,0,0,0,0, ,898.5,-118.6,331,1.2,-48.1,-13.2,25,779.879,-145.748,523.391,0.00263702,-46.4382,-6.67362,
2026_06_10_18_58_42.241,3.864,30.7,0,0.758,0,0,0,0, ,0,0,0,0,0, ,909.1,-124.6,341.7,2.4,-44.9,-15.2,25,787.43,-144.277,511.993,0.112164,-46.442,-7.13225,
2026_06_10_18_58_42.261,3.864,30.5,0,0.759,0,0,0,0, ,0,0,0,0,0, ,945.1,-132.6,333,2.5,-33.5,-14.2,25,795.941,-143.321,501.35,0.254626,-46.0007,-7.59341,
2026_06_10_18_58_42.281,3.864,30.7,0,0.758,0,0,0,0, ,0,0,0,0,0, ,957.2,-127.8,312.2,2.4,-25.8,-8.9,25,805.399,-142.522,490.458,0.388406,-45.0043,-7.83452,
2026_06_10_18_58_42.301,3.864,30.7,0,0.758,0,0,0,0, ,0,0,0,0,0, ,939,-111.8,283.5,3.6,-27.3,-6.7,25,814.095,-141.137,478.721,0.54755,-43.8798,-7.83241,
2026_06_10_18_58_42.321,3.864,30.7,0,0.758,0,0,0,0, ,0,0,0,0,0, ,926.1,-99.7,268.1,4.8,-33.8,-10.2,25,821.313,-138.981,466.355,0.770121,-43.0675,-7.87005,
2026_06_10_18_58_42.340,3.864,30.7,0,0.759,0,0,0,0, ,0,0,0,0,0, ,948.4,-94.9,263.4,1.5,-37.5,-13.8,25,828.378,-136.441,454.131,0.915145,-42.6155,-8.12172,
2026_06_10_18_58_42.360,3.864,30.7,0,0.759,0,0,0,0, ,0,0,0,0,0, ,973.2,-106.3,259.1,-1.2,-31.4,-10.7,25,836.448,-134.257,442.377,0.868519,-42.1179,-8.37328,
2026_06_10_18_58_42.380,3.864,30.5,0,0.758,0,0,0,0, ,0,0,0,0,0, ,964.9,-105.9,259.8,0,-20.5,-6,25,844.528,-132.541,431.23,0.779031,-41.1327,-8.37187,
2026_06_10_18_58_42.399,3.864,30.5,0,0.758,0,0,0,0, ,0,0,0,0,0, ,932.3,-88.5,240.4,2.5,-20.8,-3.2,25,850.87,-130.387,420.193,0.807731,-39.8845,-8.14202,
2026_06_10_18_58_42.419,3.864,30.7,0,0.758,0,0,0,0, ,0,0,0,0,0, ,925.7,-91.4,215,5.8,-33.7,-10.1,25,855.631,-127.923,408.463,1.0114,-39.1146,-8.0511,
2026_06_10_18_58_42.441,3.864,30.4,0,0.76,0,0,0,0, ,0,0,0,0,0, ,949.5,-95.8,212.6,-6.3,-41.8,-12.9,25,860.626,-125.832,396.6,0.934534,-39.0314,-8.26127,
2026_06_10_18_58_42.459,3.864,30.7,0,0.759,0,0,0,0, ,0,0,0,0,0, ,981.2,-97.4,215.6,6.2,-33.1,-11.6,25,867.008,-124.05,385.479,0.874539,-38.9351,-8.50433,
2026_06_10_18_58_42.479,3.864,30.7,0,0.76,0,0,0,0, ,0,0,0,0,0, ,1001.2,-93.2,214.8,5.1,-24.7,-4.6,25,874.576,-122.298,375.103,1.16554,-38.3236,-8.47969,
2026_06_10_18_58_42.498,3.864,30.7,0,0.759,0,0,0,0, ,0,0,0,0,0, ,989.1,-85.3,186.1,5.5,-20.8,-0.3,25,881.923,-120.285,364.46,1.41749,-37.3745,-8.11226,
2026_06_10_18_58_42.518,3.864,30.4,0,0.757,0,0,0,0, ,0,0,0,0,0, ,965,-75.9,149.6,8.6,-20.8,-0.5,25,887.72,-117.866,352.479,1.76072,-36.3645,-7.64229,
2026_06_10_18_58_42.538,3.864,30.5,0,0.759,0,0,0,0, ,0,0,0,0,0, ,953.6,-77.2,153.3,10.9,-29,-3.2,25,892.082,-115.349,340.229,2.24756,-35.6659,-7.28932,
2026_06_10_18_58_42.558,3.864,30.7,0,0.757,0,0,0,0, ,0,0,0,0,0, ,966.1,-85,179.3,11.2,-33.5,-5,25,896.211,-113.262,329.63,2.78396,-35.3968,-7.09497,
2026_06_10_18_58_42.578,3.864,30.7,0,0.758,0,0,0,0, ,0,0,0,0,0, ,970.4,-87.2,182.3,12.2,-29.9,-5.2,25,900.601,-111.606,320.561,3.32728,-35.1715,-6.9734,
2026_06_10_18_58_42.598,3.864,30.5,0,0.758,0,0,0,0, ,0,0,0,0,0, ,973.1,-80,151.4,11.2,-23,-5.3,25,904.937,-109.9,311.194,3.8375,-34.6401,-6.86838,
2026_06_10_18_58_42.617,3.864,30.5,0,0.758,0,0,0,0, ,0,0,0,0,0, ,973.1,-70.3,123.4,8,-19.4,-5.8,25,909.091,-107.782,300.603,4.18865,-33.8211,-6.78805,
2026_06_10_18_58_42.637,3.864,30.7,0,0.758,0,0,0,0, ,0,0,0,0,0, ,971.3,-70.5,120.2,7.6,-20.9,-6.7,25,912.936,-105.504,289.708,4.40872,-32.988,-6.75526,
2026_06_10_18_58_42.657,3.864,30.5,0,0.759,0,0,0,0, ,0,0,0,0,0, ,968.9,-69.4,121.8,9.4,-24.8,-9.7,25,916.42,-103.338,279.427,4.65803,-32.3702,-6.8433,
2026_06_10_18_58_42.677,3.864,30.4,0,0.758,0,0,0,0, ,0,0,0,0,0, ,988.8,-68.6,116.5,9.2,-24.3,-11.8,25,920.224,-101.245,269.66,4.9409,-31.8937,-7.08136,
2026_06_10_18_58_42.696,3.864,30.5,0,0.761,0,0,0,0, ,0,0,0,0,0, ,993.2,-65.6,107.5,7.6,-16.7,-10.1,25,924.537,-99.1645,260.053,5.15169,-31.1994,-7.31711,
2026_06_10_18_58_42.717,3.864,30.7,0,0.759,0,0,0,0, ,0,0,0,0,0, ,962.1,-59.8,96.8,8.7,-17.2,-10.5,25,927.774,-96.9424,250.43,5.3344,-30.331,-7.49888,
2026_06_10_18_58_42.737,3.864,30.5,0,0.758,0,0,0,0, ,0,0,0,0,0, ,963.8,-53.7,95.5,11.5,-26.9,-14.2,25,929.917,-94.4932,241.029,5.6248,-29.8264,-7.79449,
2026_06_10_18_58_42.756,3.864,30.5,0,0.759,0,0,0,0, ,0,0,0,0,0, ,1012.9,-61.1,91.3,9.8,-33.3,-12.8,25,933.478,-92.2328,232.033,5.93102,-29.8431,-8.14217,
2026_06_10_18_58_42.776,3.864,30.5,0,0.759,0,0,0,0, ,0,0,0,0,0, ,1009,-44.6,67.1,5.5,-33.7,-9.8,25,938.199,-89.8329,222.72,6.03577,-30.0659,-8.3346,
2026_06_10_18_58_42.796,3.864,30.4,0,0.758,0,0,0,0, ,0,0,0,0,0, ,994.5,-47.1,55.6,5.4,-26.3,-7.8,25,942.072,-87.1527,212.886,6.00008,-30.0619,-8.36296,
2026_06_10_18_58_42.815,3.864,30.7,0,0.759,0,0,0,0, ,0,0,0,0,0, ,981.4,-45,56.2,3.9,-18.4,-7.1,25,944.867,-84.648,203.32,5.91781,-29.592,-8.30733,
2026_06_10_18_58_42.835,3.864,30.5,0,0.759,0,0,0,0, ,0,0,0,0,0, ,1002.5,-37.3,41.6,3.4,-17.3,-6.6,25,947.736,-81.9974,193.91,5.77961,-28.8764,-8.21852,
2026_06_10_18_58_42.855,3.864,30.5,0,0.759,0,0,0,0, ,0,0,0,0,0, ,990.8,-39.4,23.5,7.6,-24.7,-4.9,25,950.717,-79.3376,184.077,5.76257,-28.3965,-8.0681,
2026_06_10_18_58_42.875,3.864,30.5,0,0.758,0,0,0,0, ,0,0,0,0,0, ,960.3,-33.8,26.2,10,-39.6,-7.4,25,952.23,-76.7333,174.374,5.94767,-28.6252,-7.95121,
2026_06_10_18_58_42.895,3.864,30.4,0,0.759,0,0,0,0, ,0,0,0,0,0, ,971.4,-34.9,37.8,9.8,-38.6,-10,25,953.06,-74.1505,165.698,6.18851,-29.2635,-7.99684,
2026_06_10_18_58_42.915,3.864,30.5,0,0.759,0,0,0,0, ,0,0,0,0,0, ,987.3,-36.3,27.5,9.7,-33.2,-11,25,954.662,-71.8014,157.591,6.40554,-29.6679,-8.14938,
2026_06_10_18_58_42.934,3.864,30.5,0,0.759,0,0,0,0, ,0,0,0,0,0, ,1006.5,-30.5,-5.8,-1.8,-19.2,-8.5,25,957.236,-69.4613,148.649,6.25591,-29.4566,-8.24692,
2026_06_10_18_58_42.954,3.864,30.4,0,0.759,0,0,0,0, ,0,0,0,0,0, ,997,-28.1,-14.1,-2,-8.7,-5.3,25,959.949,-67.014,138.984,5.75891,-28.5117,-8.16484,
2026_06_10_18_58_42.974,3.864,30.5,0,0.758,0,0,0,0, ,0,0,0,0,0, ,978.8,-24.4,-31.3,-0.8,-7.5,-5.9,25,961.652,-64.5299,129.131,5.32266,-27.2678,-8.00854,
2026_06_10_18_58_42.994,3.864,30.5,0,0.759,0,0,0,0, ,0,0,0,0,0, ,964.2,-14.5,-38.5,0,-22.7,-11.9,25,962.252,-61.7828,119.136,4.97394,-26.5263,-8.06287,
2026_06_10_18_58_43.013,3.864,30.5,0,0.759,0,0,0,0, ,0,0,0,0,0, ,995.1,-20.3,-24.4,-1.4,-29.5,-15.4,25,963.312,-59.0783,109.959,4.62818,-26.5004,-8.40333,
2026_06_10_18_58_43.034,3.864,30.5,0,0.759,0,0,0,0, ,0,0,0,0,0, ,1011.4,-29,1,-2.2,-18.6,-12.8,25,965.746,-56.9803,102.546,4.23646,-26.351,-8.75047,
2026_06_10_18_58_43.053,3.864,30.5,0,0.759,0,0,0,0, ,0,0,0,0,0, ,996.5,-16.8,-15.6,-4.2,-5.3,-10.2,25,968.074,-54.9035,95.852,3.7833,-25.4735,-8.91802,
2026_06_10_18_58_43.073,3.864,30.7,0,0.759,0,0,0,0, ,0,0,0,0,0, ,1003.4,-3.9,-42.6,-3.4,0.6,-10.4,25,970.016,-52.1885,88.2377,3.3212,-24.0644,-9.00224,
2026_06_10_18_58_43.092,3.864,30.5,0,0.759,0,0,0,0, ,0,0,0,0,0, ,1025.3,-12.9,-51.6,-1.7,1.2,-8.2,25,972.718,-49.5202,79.9906,2.96342,-22.5431,-9.02038,
2026_06_10_18_58_43.112,3.864,30.4,0,0.757,0,0,0,0, ,0,0,0,0,0, ,1009.5,-15.8,-44.5,-0.7,-1,-4.7,25,975.441,-47.377,72.1881,2.70971,-21.1633,-8.86375,
2026_06_10_18_58_43.132,3.864,30.4,0,0.758,0,0,0,0, ,0,0,0,0,0, ,990.1,-0.7,-33.5,-1,-1.1,-5.9,25,976.925,-44.9927,65.4126,2.49279,-19.9377,-8.64658,
2026_06_10_18_58_43.152,3.864,30.5,0,0.759,0,0,0,0, ,0,0,0,0,0, ,1011.9,2,-36.9,-0.6,0,-7.3,25,978.392,-42.2113,59.2815,2.29214,-18.7562,-8.52187,
2026_06_10_18_58_43.172,3.864,30.5,0,0.759,0,0,0,0, ,0,0,0,0,0, ,1019,-4.3,-42.9,-0.5,0.1,-5,25,980.651,-39.7092,53.2376,2.11894,-17.6102,-8.37733,
2026_06_10_18_58_43.192,3.864,30.7,0,0.759,0,0,0,0, ,0,0,0,0,0, ,993.4,-3.1,-35.4,0.4,1.9,-3.2,25,982.207,-37.5149,47.6078,1.98677,-16.4762,-8.11668,
2026_06_10_18_58_43.212,3.864,30.7,0,0.757,0,0,0,0, ,0,0,0,0,0, ,980.5,5.3,-25.7,-0.1,1.9,-4.4,25,982.496,-35.1618,42.845,1.87485,-15.3564,-7.85364,
2026_06_10_18_58_43.232,3.864,30.4,0,0.758,0,0,0,0, ,0,0,0,0,0, ,984,5.4,-25,-1.3,1,-5.2,25,982.481,-32.6931,38.6894,1.71794,-14.3322,-7.66755,
2026_06_10_18_58_43.252,3.864,30.5,0,0.758,0,0,0,0, ,0,0,0,0,0, ,988.6,-1.9,-33.4,-1.1,2.6,-5.1,25,982.714,-30.5942,34.5524,1.54013,-13.3492,-7.51414,
2026_06_10_18_58_43.272,3.864,30.5,0,0.76,0,0,0,0, ,0,0,0,0,0, ,962,-0.9,-27.2,-0.9,4,-5.7,25,982.262,-28.8152,30.6005,1.38534,-12.3346,-7.38531,
2026_06_10_18_58_43.291,3.864,30.5,0,0.759,0,0,0,0, ,0,0,0,0,0, ,1194.7,-14.1,-41.1,1.9,4.5,-1.4,25,988.118,-27.5163,26.6547,1.33139,-11.324,-7.1516,
2026_06_10_18_58_43.311,3.864,30.5,0,0.759,0,0,0,0, ,0,0,0,0,0, ,989.9,7.3,-38.4,0.3,2.8,-1.2,25,994.466,-26.0467,22.6082,1.31729,-10.4115,-6.79502,
2026_06_10_18_58_43.331,3.864,30.4,0,0.758,0,0,0,0, ,0,0,0,0,0, ,993,3.4,-21.8,-0.8,3.1,-1,25,994.282,-24.1335,19.3963,1.22178,-9.59729,-6.44798,
2026_06_10_18_58_43.350,3.864,30.7,0,0.758,0,0,0,0, ,0,0,0,0,0, ,990.4,4.6,-41.6,-0.5,5.6,-1,25,994.125,-22.4191,16.2826,1.10772,-8.74738,-6.11599,
2026_06_10_18_58_43.370,3.864,30.5,0,0.757,0,0,0,0, ,0,0,0,0,0, ,990.9,-0.1,-10.9,-1.7,6.9,-1,25,993.913,-20.9158,13.6908,0.973188,-7.83347,-5.80423,
2026_06_10_18_58_43.390,3.864,30.5,0,0.758,0,0,0,0, ,0,0,0,0,0, ,992.5,13.5,-3.5,-2.1,4.6,-0.6,25,993.778,-19.233,12.4177,0.798103,-7.00573,-5.49929,
2026_06_10_18_58_43.409,3.864,30.7,0,0.759,0,0,0,0, ,0,0,0,0,0, ,992.1,5.6,-28.8,-3,4.8,0.1,25,993.688,-17.479,10.6769,0.594078,-6.29241,-5.17941,
2026_06_10_18_58_43.430,3.864,30.4,0,0.758,0,0,0,0, ,0,0,0,0,0, ,994.8,72.8,18.6,-2.9,5.4,6.5,25,993.674,-14.0251,9.71549,0.378111,-5.59819,-4.6627,
2026_06_10_18_58_43.450,3.864,30.4,0,0.758,0,0,0,0, ,0,0,0,0,0, ,989.8,-69,-50.9,-4.6,7.8,1.6,25,993.59,-13.0547,8.13931,0.126554,-4.85486,-4.13177,
2026_06_10_18_58_43.470,3.864,30.4,0,0.757,0,0,0,0, ,0,0,0,0,0, ,992.1,-6.8,-2.9,-2.3,11.6,-0.5,25,993.429,-14.5687,6.0041,-0.0913921,-3.96792,-3.84647,
2026_06_10_18_58_43.489,3.864,30.7,0,0.758,0,0,0,0, ,0,0,0,0,0, ,991.4,-12,19.2,-9.4,8.8,-0.9,25,993.327,-14.2537,6.13487,-0.442307,-3.10457,-3.65473,
2026_06_10_18_58_43.509,3.864,30.4,0,0.76,0,0,0,0, ,0,0,0,0,0, ,993.4,14,2.8,-18.8,6,-1,25,993.27,-13.3242,6.43134,-1.27457,-2.46444,-3.48991,
2026_06_10_18_58_43.533,3.864,30.4,0,0.759,0,0,0,0, ,0,0,0,0,0, ,992.7,1.5,-30.1,-14.4,9,1,25,993.257,-12.04,5.20763,-2.20847,-1.85724,-3.27725,
2026_06_10_18_58_43.548,3.864,30.5,0,0.759,0,0,0,0, ,0,0,0,0,0, ,992.6,-6.9,-17.2,-4.6,14.4,1.4,25,993.22,-11.4708,3.44912,-2.65279,-1.03109,-3.00441,
2026_06_10_18_58_43.568,3.864,30.5,0,0.76,0,0,0,0, ,0,0,0,0,0, ,990.1,-5,-4,1.5,23.5,-0.5,25,993.106,-11.1344,2.593,-2.58559,0.186505,-2.79391,
2026_06_10_18_58_43.588,3.864,30.5,0,0.758,0,0,0,0, ,0,0,0,0,0, ,990.2,-43,47.6,-2.3,16.2,-2.3,25,992.926,-11.9184,3.76343,-2.45241,1.38475,-2.70897,
2026_06_10_18_58_43.608,3.864,30.5,0,0.76,0,0,0,0, ,0,0,0,0,0, ,990.9,-5.4,64.3,-5.8,13.4,-3.7,25,992.781,-12.6668,6.94355,-2.54976,2.20224,-2.7267,
2026_06_10_18_58_43.627,3.864,30.5,0,0.759,0,0,0,0, ,0,0,0,0,0, ,989.9,0.3,63.8,-6.4,5.5,-3.4,25,992.636,-12.0503,10.4235,-2.7661,2.6439,-2.77687,
2026_06_10_18_58_43.647,3.864,30.5,0,0.759,0,0,0,0, ,0,0,0,0,0, ,989.8,9.8,67.3,-1.6,-0.9,0.6,25,992.466,-11.0083,13.7827,-2.84129,2.62294,-2.69297,
2026_06_10_18_58_43.671,3.864,30.5,0,0.758,0,0,0,0, ,0,0,0,0,0, ,992.4,-6.7,26.1,-1.9,-0.5,-2.5,25,992.383,-10.243,15.7886,-2.77479,2.42045,-2.58676,
2026_06_10_18_58_43.687,3.864,30.4,0,0.759,0,0,0,0, ,0,0,0,0,0, ,988.4,-33.2,28.6,-5.2,0.2,-5.9,25,992.262,-10.8345,16.4932,-2.82203,2.26382,-2.68507,
2026_06_10_18_58_43.706,3.864,30.4,0,0.759,0,0,0,0, ,0,0,0,0,0, ,991.4,-2.3,29.7,-7,-0.1,-7.4,25,992.118,-11.2559,17.2644,-3.02178,2.12891,-2.92668,
2026_06_10_18_58_43.726,3.864,30.5,0,0.759,0,0,0,0, ,0,0,0,0,0, ,990.2,-2.4,29.1,-9,-0.1,-7.7,25,992.038,-10.7132,18.0039,-3.32514,1.99309,-3.20841,
2026_06_10_18_58_43.746,3.864,30.5,0,0.758,0,0,0,0, ,0,0,0,0,0, ,992.6,-5.3,15.9,-8.1,0.1,-8,25,991.999,-10.295,18.2779,-3.64353,1.87163,-3.49126,
2026_06_10_18_58_43.766,3.864,30.7,0,0.757,0,0,0,0, ,0,0,0,0,0, ,991.4,-3.9,20.1,-3.6,1.6,-8.7,25,991.999,-9.94797,18.261,-3.77799,1.80938,-3.78734,
2026_06_10_18_58_43.786,3.864,30.7,0,0.758,0,0,0,0, ,0,0,0,0,0, ,993.6,3,24,-1.1,2.7,-9.6,25,992.03,-9.36919,18.4919,-3.69097,1.83013,-4.11413,
2026_06_10_18_58_43.807,3.864,30.5,0,0.758,0,0,0,0, ,0,0,0,0,0, ,993.7,19,35.1,-1,3.1,-7.5,25,992.128,-8.12794,19.1657,-3.53004,1.89533,-4.38444,
2026_06_10_18_58_43.825,3.864,30.7,0,0.759,0,0,0,0, ,0,0,0,0,0, ,993,21.9,42.9,-0.9,1.6,-5.2,25,992.203,-6.38647,20.3744,-3.37282,1.92304,-4.50421,
2026_06_10_18_58_43.845,3.864,30.5,0,0.759,0,0,0,0, ,0,0,0,0,0, ,992.3,25.2,45.6,-1,0.1,-3.3,25,992.23,-4.56222,21.8293,-3.22518,1.85765,-4.48872,
2026_06_10_18_58_43.865,3.864,30.5,0,0.76,0,0,0,0, ,0,0,0,0,0, ,992.9,3,27.9,-0.9,0.1,-2.4,25,992.253,-3.42499,22.7385,-3.08653,1.75054,-4.38886,
2026_06_10_18_58_43.885,3.864,30.5,0,0.759,0,0,0,0, ,0,0,0,0,0, ,992.5,10,38,-0.9,-0.4,-2.2,25,992.28,-2.82018,23.3608,-2.95329,1.63473,-4.26157,
2026_06_10_18_58_43.905,3.864,30.7,0,0.758,0,0,0,0, ,0,0,0,0,0, ,990.9,8.7,32.8,-0.8,-0.5,-2.2,25,992.245,-2.07856,24.0944,-2.82512,1.50769,-4.13595,
2026_06_10_18_58_43.925,3.864,30.5,0,0.758,0,0,0,0, ,0,0,0,0,0, ,991.8,13.5,34.7,-0.9,-0.7,-2.2,25,992.19,-1.2755,24.6828,-2.70476,1.37925,-4.01797,
2026_06_10_18_58_43.946,3.864,30.7,0,0.759,0,0,0,0, ,0,0,0,0,0, ,990.2,14,33.4,-1,-1,-1.6,25,992.117,-0.359879,25.2536,-2.59783,1.24341,-3.88891,
2026_06_10_18_58_43.964,3.864,30.4,0,0.759,0,0,0,0, ,0,0,0,0,0, ,992,7.5,30.1,-1,-0.9,-1.3,25,992.055,0.317129,25.6495,-2.50046,1.10975,-3.74029,
2026_06_10_18_58_43.984,3.864,30.5,0,0.759,0,0,0,0, ,0,0,0,0,0, ,991.2,7.3,31.6,-1,-0.6,-1.8,25,992.028,0.748741,25.9664,-2.40903,0.996418,-3.60682,
2026_06_10_18_58_44.004,3.864,30.5,0,0.759,0,0,0,0, ,0,0,0,0,0, ,992.5,9.1,33.2,-1,-0.7,-1.8,25,992.017,1.2028,26.3585,-2.32317,0.896089,-3.49671,
2026_06_10_18_58_44.024,3.864,30.7,0,0.758,0,0,0,0, ,0,0,0,0,0, ,991.8,13.3,35.6,-0.9,-0.9,-1.7,25,992.025,1.81201,26.8485,-2.23949,0.792734,-3.39027,
2026_06_10_18_58_44.043,3.864,30.4,0,0.757,0,0,0,0, ,0,0,0,0,0, ,992.1,6.7,32.4,-1,-0.9,-1.8,25,992.02,2.31096,27.2843,-2.16091,0.689583,-3.29032,
2026_06_10_18_58_44.063,3.864,30.7,0,0.76,0,0,0,0, ,0,0,0,0,0, ,990.7,9.7,31.3,-1,-0.7,-2.3,25,991.983,2.66983,27.5625,-2.09017,0.598811,-3.21474,
2026_06_10_18_58_44.084,3.864,30.4,0,0.758,0,0,0,0, ,0,0,0,0,0, ,991.6,13.6,32.3,-1,-0.6,-2.1,25,991.932,3.21705,27.8207,-2.02374,0.522712,-3.1529,
2026_06_10_18_58_44.103,3.864,30.4,0,0.759,0,0,0,0, ,0,0,0,0,0, ,993.1,12.4,34.1,-1,-0.7,-1.6,25,991.957,3.8132,28.1485,-1.96135,0.45125,-3.07351,
2026_06_10_18_58_44.123,3.864,30.4,0,0.759,0,0,0,0, ,0,0,0,0,0, ,990.6,10.2,32.9,-1,-0.9,-1.5,25,991.951,4.26943,28.4746,-1.90277,0.375002,-2.98067,
2026_06_10_18_58_44.142,3.864,30.4,0,0.758,0,0,0,0, ,0,0,0,0,0, ,991.8,7.5,31.4,-1,-0.8,-1.7,25,991.905,4.54856,28.6986,-1.84776,0.300353,-2.89653,
2026_06_10_18_58_44.162,3.864,30.4,0,0.759,0,0,0,0, ,0,0,0,0,0, ,991.5,9.3,33.5,-0.9,-0.8,-1.9,25,991.89,4.78326,28.9272,-1.79305,0.2333,-2.82971,
2026_06_10_18_58_44.182,3.864,30.4,0,0.759,0,0,0,0, ,0,0,0,0,0, ,992.3,10,31.9,-0.9,-1,-1.9,25,991.89,5.07982,29.1571,-1.73863,0.16424,-2.77306,
2026_06_10_18_58_44.202,3.864,30.4,0,0.759,0,0,0,0, ,0,0,0,0,0, ,992.3,9.7,32.4,-1,-0.9,-1.7,25,991.915,5.37051,29.3395,-1.69057,0.0963409,-2.71376,
2026_06_10_18_58_44.221,3.864,30.5,0,0.758,0,0,0,0, ,0,0,0,0,0, ,991.6,5.8,31.8,-0.9,-0.4,-2.1,25,991.917,5.51551,29.5077,-1.64544,0.0508608,-2.66417,
2026_06_10_18_58_44.241,3.864,30.5,0,0.758,0,0,0,0, ,0,0,0,0,0, ,992.6,10.9,35.2,-0.8,-0.3,-2.3,25,991.928,5.68823,29.751,-1.59697,0.0264333,-2.63589,
2026_06_10_18_58_44.261,3.864,30.4,0,0.758,0,0,0,0, ,0,0,0,0,0, ,991.9,11.7,35,-0.9,-0.6,-2.1,25,991.948,6.0302,30.0769,-1.55145,-0.00259935,-2.60933,
2026_06_10_18_58_44.281,3.864,30.4,0,0.759,0,0,0,0, ,0,0,0,0,0, ,991.3,10.4,33.4,-0.9,-0.9,-1.9,25,991.927,6.33609,30.3282,-1.51176,-0.0481441,-2.5722,
2026_06_10_18_58_44.301,3.864,30.5,0,0.759,0,0,0,0, ,0,0,0,0,0, ,993.1,10.4,31.2,-0.9,-0.9,-2,25,991.943,6.58374,30.4483,-1.47448,-0.100054,-2.53428,
2026_06_10_18_58_44.321,3.864,30.5,0,0.759,0,0,0,0, ,0,0,0,0,0, ,991.8,9.8,31.1,-0.9,-0.7,-2.1,25,991.974,6.79801,30.4911,-1.43947,-0.142707,-2.50477,
2026_06_10_18_58_44.341,3.864,30.5,0,0.759,0,0,0,0, ,0,0,0,0,0, ,993,10.4,32.5,-1,-0.3,-1.8,25,992,6.99923,30.5709,-1.40964,-0.16448,-2.47096,
2026_06_10_18_58_44.360,3.864,30.5,0,0.759,0,0,0,0, ,0,0,0,0,0, ,991.8,9.1,34,-0.9,-0.4,-1.9,25,992.025,7.16685,30.7341,-1.38163,-0.175785,-2.43312,
2026_06_10_18_58_44.380,3.864,30.4,0,0.76,0,0,0,0, ,0,0,0,0,0, ,991.5,9.8,35.8,-1,-0.7,-1.9,25,992.002,7.30598,30.988,-1.35533,-0.198588,-2.40064,
2026_06_10_18_58_44.400,3.864,30.5,0,0.759,0,0,0,0, ,0,0,0,0,0, ,991.6,10.6,35.2,-1,-0.8,-2,25,991.974,7.48233,31.2629,-1.33368,-0.23219,-2.37318,
2026_06_10_18_58_44.420,3.864,30.4,0,0.759,0,0,0,0, ,0,0,0,0,0, ,991.6,11.4,32.5,-1,-1.1,-1.7,25,991.951,7.69669,31.4206,-1.31334,-0.275932,-2.3413,
2026_06_10_18_58_44.440,3.864,30.5,0,0.759,0,0,0,0, ,0,0,0,0,0, ,992.5,9.5,26.1,-1,-0.6,-1.6,25,991.957,7.86447,31.2914,-1.29425,-0.310914,-2.29917,
2026_06_10_18_58_44.459,3.864,30.4,0,0.758,0,0,0,0, ,0,0,0,0,0, ,991.8,7.6,30.8,-1,-0.5,-1.9,25,991.969,7.90625,31.1182,-1.27632,-0.325483,-2.2657,
2026_06_10_18_58_44.479,3.864,30.5,0,0.758,0,0,0,0, ,0,0,0,0,0, ,991.5,10.7,33.2,-1,-0.7,-1.9,25,991.95,7.98204,31.1719,-1.25948,-0.342212,-2.24342,
2026_06_10_18_58_44.499,3.864,30.5,0,0.759,0,0,0,0, ,0,0,0,0,0, ,992.5,11.1,32.7,-1,-0.7,-1.9,25,991.953,8.15985,31.2803,-1.24367,-0.364014,-2.22249,
2026_06_10_18_58_44.519,3.864,30.5,0,0.76,0,0,0,0, ,0,0,0,0,0, ,992.4,9.1,34.6,-1,-0.8,-1.7,25,991.983,8.27808,31.4247,-1.22882,-0.387535,-2.19675,
2026_06_10_18_58_44.538,3.864,30.4,0,0.76,0,0,0,0, ,0,0,0,0,0, ,991.9,8.7,32.8,-1,-0.9,-1.9,25,991.993,8.31598,31.5634,-1.21488,-0.415717,-2.17257,
2026_06_10_18_58_44.558,3.864,30.5,0,0.758,0,0,0,0, ,0,0,0,0,0, ,991.9,10.3,31.7,-1,-0.7,-1.9,25,991.988,8.38813,31.6052,-1.20178,-0.439134,-2.15596,
2026_06_10_18_58_44.578,3.864,30.5,0,0.759,0,0,0,0, ,0,0,0,0,0, ,991,11.2,30.7,-1,-0.5,-1.8,25,991.955,8.53205,31.5805,-1.18949,-0.448937,-2.13732,
2026_06_10_18_58_44.598,3.864,30.4,0,0.759,0,0,0,0, ,0,0,0,0,0, ,992,9.7,33.9,-1,-0.4,-1.6,25,991.927,8.64893,31.6243,-1.17794,-0.449002,-2.11067,
2026_06_10_18_58_44.621,3.864,30.5,0,0.758,0,0,0,0, ,0,0,0,0,0, ,990.9,7,33.3,-1,-0.4,-1.9,25,991.898,8.63071,31.7447,-1.1671,-0.446016,-2.08869,
2026_06_10_18_58_44.637,3.864,30.4,0,0.759,0,0,0,0, ,0,0,0,0,0, ,991.8,10.3,33,-0.9,-0.5,-2.2,25,991.865,8.63189,31.8304,-1.15387,-0.446258,-2.08633,
2026_06_10_18_58_44.657,3.864,30.4,0,0.76,0,0,0,0, ,0,0,0,0,0, ,991.4,11.4,33.6,-0.9,-0.9,-2.2,25,991.849,8.76705,31.9199,-1.1384,-0.461721,-2.09326,
2026_06_10_18_58_44.677,3.864,30.4,0,0.758,0,0,0,0, ,0,0,0,0,0, ,992,13.1,30.5,-1,-0.7,-2.2,25,991.839,8.9793,31.9279,-1.12692,-0.482335,-2.09976,
2026_06_10_18_58_44.696,3.864,30.5,0,0.758,0,0,0,0, ,0,0,0,0,0, ,990.7,9.3,31.6,-1,-0.3,-2,25,991.81,9.11462,31.8744,-1.11918,-0.483411,-2.09978,
2026_06_10_18_58_44.717,3.864,30.5,0,0.76,0,0,0,0, ,0,0,0,0,0, ,991.5,10.9,33,-1,-0.3,-2.1,25,991.766,9.17467,31.9003,-1.11192,-0.472234,-2.09674,
2026_06_10_18_58_44.736,3.864,30.5,0,0.757,0,0,0,0, ,0,0,0,0,0, ,990.9,11.4,34.3,-1,-0.6,-2,25,991.732,9.29504,32.0069,-1.1051,-0.47088,-2.0939,
2026_06_10_18_58_44.761,3.864,30.4,0,0.757,0,0,0,0, ,0,0,0,0,0, ,992,9.3,33.6,-1,-0.8,-2.1,25,991.715,9.35933,32.1253,-1.0987,-0.484842,-2.09122,
2026_06_10_18_58_44.776,3.864,30.4,0,0.758,0,0,0,0, ,0,0,0,0,0, ,992,11.7,32.5,-1.2,-0.6,-2.3,25,991.732,9.42884,32.1817,-1.09877,-0.497953,-2.09785,
2026_06_10_18_58_44.795,3.864,30.5,0,0.759,0,0,0,0, ,0,0,0,0,0, ,992.1,11.2,31.4,-2,-0.7,-2.2,25,991.751,9.552,32.1676,-1.12932,-0.507218,-2.10712,
2026_06_10_18_58_44.815,3.864,30.4,0,0.758,0,0,0,0, ,0,0,0,0,0, ,991.9,11.7,31.2,-7.2,-0.7,-3,25,991.767,9.66766,32.1147,-1.34081,-0.518966,-2.13716,
2026_06_10_18_58_44.836,3.864,30.5,0,0.757,0,0,0,0, ,0,0,0,0,0, ,992.5,11.5,37.3,-15,-1.2,-4.4,25,991.793,9.78541,32.2448,-1.93551,-0.545232,-2.23239,
2026_06_10_18_58_44.855,3.864,30.5,0,0.757,0,0,0,0, ,0,0,0,0,0, ,992.4,9.7,39.9,-17.5,-3.4,-5.6,25,991.833,9.83505,32.6321,-2.8078,-0.652163,-2.40104,
2026_06_10_18_58_44.875,3.864,30.4,0,0.759,0,0,0,0, ,0,0,0,0,0, ,991.2,2,41.8,-25.2,-5.5,-7,25,991.831,9.59221,33.1329,-3.93772,-0.883594,-2.63864,
2026_06_10_18_58_44.898,3.864,30.4,0,0.758,0,0,0,0, ,0,0,0,0,0, ,994.1,11.9,22.2,-16.1,-5.1,-8.2,25,991.881,9.4312,33.0638,-4.95612,-1.15272,-2.94097,
2026_06_10_18_58_44.915,3.864,30.4,0,0.758,0,0,0,0, ,0,0,0,0,0, ,993.4,7.9,22.9,-20.1,-4.2,-10.2,25,991.995,9.45977,32.4231,-5.75708,-1.36583,-3.32238,
2026_06_10_18_58_44.934,3.864,30.3,0,0.757,0,0,0,0, ,0,0,0,0,0, ,994.3,7,20.6,-15.2,-2.3,-12.4,25,992.108,9.3373,31.7727,-6.4818,-1.48065,-3.80851,
2026_06_10_18_58_44.954,3.864,30.5,0,0.757,0,0,0,0, ,0,0,0,0,0, ,993.5,13.9,23.5,-11.8,-1.5,-14.5,25,992.217,9.4051,31.1803,-6.90947,-1.5062,-4.39604,
2026_06_10_18_58_44.974,3.864,30.5,0,0.759,0,0,0,0, ,0,0,0,0,0, ,994.8,4.1,18.3,-8,0,-17.6,25,992.335,9.38042,30.5538,-7.09171,-1.46012,-5.10621,
2026_06_10_18_58_44.994,3.864,30.3,0,0.757,0,0,0,0, ,0,0,0,0,0, ,994.2,6.5,39.1,-5.8,0,-23.1,25,992.467,9.13177,30.4408,-7.08003,-1.37115,-6.03512,
2026_06_10_18_58_45.013,3.864,30.5,0,0.759,0,0,0,0, ,0,0,0,0,0, ,993.8,14.2,37.1,-5.7,-1,-25.5,25,992.56,9.206,30.9076,-6.99898,-1.31806,-7.14814,
2026_06_10_18_58_45.033,3.864,30.4,0,0.759,0,0,0,0, ,0,0,0,0,0, ,991.2,30,32.9,-4.9,-2,-29.5,25,992.557,9.99173,31.157,-6.89545,-1.32915,-8.38833,
2026_06_10_18_58_45.053,3.864,30.4,0,0.757,0,0,0,0, ,0,0,0,0,0, ,990.4,39.7,27.7,-2.5,-1.9,-32.9,25,992.45,11.5065,31.1047,-6.70072,-1.36698,-9.77842,
2026_06_10_18_58_45.073,3.864,30.5,0,0.757,0,0,0,0, ,0,0,0,0,0, ,991.3,49.3,27,-4.1,-1.8,-36.7,25,992.352,13.5171,30.8759,-6.49349,-1.39642,-11.3032,
2026_06_10_18_58_45.093,3.864,30.5,0,0.757,0,0,0,0, ,0,0,0,0,0, ,986.8,68.1,36.3,-7.4,-3.5,-40.6,25,992.151,16.2704,30.9231,-6.44819,-1.47281,-12.9696,
2026_06_10_18_58_45.113,3.864,30.4,0,0.757,0,0,0,0, ,0,0,0,0,0, ,984.1,93.8,26.8,-12.1,-5.5,-42.6,25,991.743,20.2118,30.9613,-6.64939,-1.65728,-14.7143,
2026_06_10_18_58_45.133,3.864,30.4,0,0.761,0,0,0,0, ,0,0,0,0,0, ,984.8,97.4,23,-14.9,-5,-44.9,25,991.298,24.8058,30.5919,-7.06685,-1.87621,-16.4836,
2026_06_10_18_58_45.152,3.864,30.4,0,0.758,0,0,0,0, ,0,0,0,0,0, ,981.4,109.2,34.6,-16,-5.9,-48.1,25,990.799,29.589,30.4827,-7.5777,-2.09399,-18.3128,
2026_06_10_18_58_45.174,3.864,30.2,0,0.759,0,0,0,0, ,0,0,0,0,0, ,977.1,134.7,34.9,-17.9,-8,-50.1,25,990.095,35.2173,30.7428,-8.14882,-2.3899,-20.1889,
2026_06_10_18_58_45.192,3.864,30.4,0,0.758,0,0,0,0, ,0,0,0,0,0, ,975.8,144.8,25.8,-18.1,-10,-51.6,25,989.263,41.5872,30.7188,-8.74913,-2.7927,-22.0573,
2026_06_10_18_58_45.212,3.864,30.4,0,0.758,0,0,0,0, ,0,0,0,0,0, ,973.8,163.4,2.5,-14.8,-8.4,-53.5,25,988.382,48.4435,29.7092,-9.2184,-3.18315,-23.9154,
2026_06_10_18_58_45.231,3.864,30.4,0,0.759,0,0,0,0, ,0,0,0,0,0, ,969.7,191.7,-5,-9.1,-4.1,-54.5,25,987.368,56.3109,27.8226,-9.38486,-3.37003,-25.7487,
2026_06_10_18_58_45.251,3.864,30.5,0,0.758,0,0,0,0, ,0,0,0,0,0, ,962.4,227.6,-2.1,-6.1,0.3,-53.8,25,986.069,65.655,25.9108,-9.27609,-3.28045,-27.4794,
2026_06_10_18_58_45.272,3.864,30.4,0,0.759,0,0,0,0, ,0,0,0,0,0, ,960.5,241.4,-0.6,-2,4.4,-51.5,25,984.569,75.944,24.2496,-8.95763,-2.93735,-29.0132,
2026_06_10_18_58_45.291,3.864,30.3,0,0.759,0,0,0,0, ,0,0,0,0,0, ,956,251.2,12.3,0,7.1,-50.4,25,982.965,86.3251,23.1284,-8.47271,-2.40796,-30.35,
2026_06_10_18_58_45.310,3.864,30.4,0,0.758,0,0,0,0, ,0,0,0,0,0, ,950.9,270.1,16.8,-3.4,7.5,-49.6,25,981.167,96.948,22.6057,-8.06,-1.81638,-31.5474,
2026_06_10_18_58_45.330,3.864,30.3,0,0.761,0,0,0,0, ,0,0,0,0,0, ,946.5,288.2,18.6,-3.3,8.9,-49,25,979.188,108.051,22.3067,-7.77298,-1.20601,-32.6292,
2026_06_10_18_58_45.350,3.864,30.4,0,0.758,0,0,0,0, ,0,0,0,0,0, ,943.3,303.7,3.9,2.9,13,-47.1,25,977.099,119.501,21.633,-7.3115,-0.465253,-33.5689,
2026_06_10_18_58_45.370,3.864,30.4,0,0.759,0,0,0,0, ,0,0,0,0,0, ,936.4,322.9,22.7,6.9,17.2,-45.2,25,974.829,131.311,21.1252,-6.56736,0.483255,-34.3356,
2026_06_10_18_58_45.390,3.864,30.4,0,0.76,0,0,0,0, ,0,0,0,0,0, ,930.6,335,53.5,4.1,16.8,-43.3,25,972.31,143.354,22.1596,-5.83201,1.48974,-34.9398,
2026_06_10_18_58_45.410,3.864,30.3,0,0.759,0,0,0,0, ,0,0,0,0,0, ,924.6,339.5,82,-2.2,10.4,-42.1,25,969.586,155.17,24.9377,-5.41873,2.22771,-35.4126,
2026_06_10_18_58_45.430,3.864,30.3,0,0.758,0,0,0,0, ,0,0,0,0,0, ,925.4,341,50.7,-6.7,6,-43.9,25,966.869,166.448,27.4613,-5.3597,2.59165,-35.875,
2026_06_10_18_58_45.450,3.864,30.4,0,0.757,0,0,0,0, ,0,0,0,0,0, ,917.3,366.5,49.8,-3.8,7.2,-44.2,25,964.095,177.862,28.85,-5.35301,2.83591,-36.3732,
2026_06_10_18_58_45.468,3.864,30.4,0,0.758,0,0,0,0, ,0,0,0,0,0, ,910.5,384.8,66,-1.8,6,-43.4,25,961.036,189.915,30.6202,-5.19744,3.06528,-36.8257,
2026_06_10_18_58_45.488,3.864,30.4,0,0.758,0,0,0,0, ,0,0,0,0,0, ,905.3,409.3,57.3,-3.1,4.3,-41,25,957.798,202.537,32.5111,-5.03002,3.19232,-37.1532,
2026_06_10_18_58_45.508,3.864,30.4,0,0.758,0,0,0,0, ,0,0,0,0,0, ,898.5,421.8,63.2,-4.3,4.2,-37.3,25,954.392,215.517,34.2014,-4.94897,3.25677,-37.2749,
2026_06_10_18_58_45.529,3.864,30.4,0,0.758,0,0,0,0, ,0,0,0,0,0, ,895.5,420.5,74.8,-7,2.3,-35.2,25,950.895,228.048,36.322,-4.99169,3.25636,-37.2125,
2026_06_10_18_58_45.548,3.864,30.4,0,0.757,0,0,0,0, ,0,0,0,0,0, ,892.9,408.5,87.5,-4.2,-0.7,-35.8,25,947.44,239.41,39.0537,-5.02876,3.10667,-37.1081,
2026_06_10_18_58_45.568,3.864,30.3,0,0.757,0,0,0,0, ,0,0,0,0,0, ,887.8,415.2,81.9,-1.7,-5.1,-39.2,25,943.961,249.918,41.8352,-4.90208,2.74064,-37.132,
2026_06_10_18_58_45.588,3.864,30.3,0,0.758,0,0,0,0, ,0,0,0,0,0, ,879.1,456.1,65.7,-4,-7.5,-40,25,940.274,261.236,43.7831,-4.77703,2.18973,-37.2824,
2026_06_10_18_58_45.608,3.864,30.4,0,0.76,0,0,0,0, ,0,0,0,0,0, ,874,465.9,60.3,-5.2,-7.7,-38.4,25,936.39,273.409,44.9541,-4.76625,1.59317,-37.3992,
2026_06_10_18_58_45.628,3.864,30.4,0,0.758,0,0,0,0, ,0,0,0,0,0, ,869.2,465,71.8,-6.6,-9.4,-38,25,932.442,285.112,46.2397,-4.83533,0.975068,-37.448,
2026_06_10_18_58_45.647,3.864,30.4,0,0.758,0,0,0,0, ,0,0,0,0,0, ,864.7,466,61.1,-6.7,-11.9,-40.1,25,928.451,296.104,47.4712,-4.94592,0.266666,-37.5456,
2026_06_10_18_58_45.667,3.864,30.5,0,0.757,0,0,0,0, ,0,0,0,0,0, ,858.7,491.2,45.6,-5.5,-10.5,-41.4,25,924.384,307.225,47.8295,-5.01624,-0.432084,-37.7409,
2026_06_10_18_58_45.687,3.864,30.4,0,0.756,0,0,0,0, ,0,0,0,0,0, ,848.9,506.5,45.2,1.3,-8.5,-40.9,25,920.083,318.902,47.6814,-4.83853,-0.98466,-37.9487,
2026_06_10_18_58_45.707,3.864,30.4,0,0.757,0,0,0,0, ,0,0,0,0,0, ,845.4,508.4,39.4,6.5,-7,-40.9,25,915.638,330.392,47.3535,-4.30603,-1.39692,-38.1285,
2026_06_10_18_58_45.727,3.864,30.4,0,0.758,0,0,0,0, ,0,0,0,0,0, ,853.2,478.2,-29.6,2.5,-2.6,-44.8,25,911.596,340.319,44.7665,-3.76941,-1.6043,-38.4162,
2026_06_10_18_58_45.746,3.864,30.3,0,0.759,0,0,0,0, ,0,0,0,0,0, ,834.2,512.9,57.4,2.7,-3.4,-45.2,25,907.458,349.778,42.8856,-3.38128,-1.68935,-38.8174,
2026_06_10_18_58_45.766,3.864,30.5,0,0.758,0,0,0,0, ,0,0,0,0,0, ,822.8,550.9,48.2,2.1,-6.4,-46,25,902.647,360.876,43.4897,-3.02898,-1.885,-39.2307,
2026_06_10_18_58_45.786,3.864,30.5,0,0.757,0,0,0,0, ,0,0,0,0,0, ,815,563.8,33.3,6.3,-5.5,-45,25,897.543,372.849,43.3228,-2.58846,-2.13271,-39.6128,
2026_06_10_18_58_45.806,3.864,30.4,0,0.759,0,0,0,0, ,0,0,0,0,0, ,808.9,581.1,5.3,8.1,-2.1,-43.7,25,892.328,385.012,41.8589,-1.99198,-2.23431,-39.9014,
2026_06_10_18_58_45.826,3.864,30.4,0,0.758,0,0,0,0, ,0,0,0,0,0, ,799.5,585.4,20.9,9.2,2.2,-43.1,25,886.957,397.092,40.1064,-1.34348,-2.09511,-40.1146,
2026_06_10_18_58_45.846,3.864,30.4,0,0.758,0,0,0,0, ,0,0,0,0,0, ,786.4,601.1,51,10,2.2,-42.5,25,881.229,409.046,39.8531,-0.676616,-1.83338,-40.2783,
2026_06_10_18_58_45.865,3.864,30.5,0,0.758,0,0,0,0, ,0,0,0,0,0, ,776.8,626.2,50.9,6,-2.4,-41.1,25,875.158,421.514,40.5293,-0.147884,-1.72775,-40.371,
2026_06_10_18_58_45.885,3.864,30.5,0,0.76,0,0,0,0, ,0,0,0,0,0, ,772.7,630.3,19.4,3.8,-2.7,-38,25,869.039,434.112,40.2015,0.159721,-1.77785,-40.321,
2026_06_10_18_58_45.905,3.864,30.3,0,0.759,0,0,0,0, ,0,0,0,0,0, ,764.6,641.4,28.9,5.1,-1.3,-35.4,25,862.922,446.405,39.2234,0.42116,-1.79139,-40.1003,
2026_06_10_18_58_45.925,3.864,30.3,0,0.758,0,0,0,0, ,0,0,0,0,0, ,757.5,652.2,26.1,3.4,-1.7,-33.5,25,856.714,458.617,38.509,0.65448,-1.77363,-39.756,
2026_06_10_18_58_45.945,3.864,30.3,0,0.759,0,0,0,0, ,0,0,0,0,0, ,750.9,661.9,27.7,2.2,-2.1,-30.4,25,850.467,470.709,37.8016,0.785222,-1.78134,-39.2803,
2026_06_10_18_58_45.964,3.864,30.5,0,0.758,0,0,0,0, ,0,0,0,0,0, ,745.8,663.9,29,1.2,-2.9,-27.9,25,844.244,482.42,37.2256,0.840967,-1.82513,-38.663,
2026_06_10_18_58_45.984,3.864,30.3,0,0.758,0,0,0,0, ,0,0,0,0,0, ,742,658.3,19.4,3.6,-2.6,-26.7,25,838.129,493.309,36.4319,0.93597,-1.88149,-37.9706,
2026_06_10_18_58_46.004,3.864,30.4,0,0.758,0,0,0,0, ,0,0,0,0,0, ,735.8,672.7,28.3,3.1,-2.5,-26.2,25,832.083,503.802,35.6652,1.08308,-1.92223,-37.2685,
2026_06_10_18_58_46.024,3.864,30.5,0,0.758,0,0,0,0, ,0,0,0,0,0, ,727.7,691.8,31.7,3.1,-4,-24.3,25,825.969,514.676,35.3199,1.20598,-2.00314,-36.5362,
2026_06_10_18_58_46.044,3.864,30.4,0,0.758,0,0,0,0, ,0,0,0,0,0, ,725,697,15.9,4.1,-3.8,-20,25,819.898,525.628,34.6179,1.35187,-2.11873,-35.6595,
2026_06_10_18_58_46.063,3.864,30.4,0,0.757,0,0,0,0, ,0,0,0,0,0, ,722.7,682.3,22.3,3,-3.8,-18.2,25,814.045,535.623,33.6723,1.48582,-2.22118,-34.6504,
2026_06_10_18_58_46.083,3.864,30.3,0,0.758,0,0,0,0, ,0,0,0,0,0, ,717.7,681.8,31,-1.2,-6.9,-19.5,25,808.326,544.546,33.2444,1.45012,-2.41184,-33.6876,
2026_06_10_18_58_46.103,3.864,30.4,0,0.757,0,0,0,0, ,0,0,0,0,0, ,713.9,701.5,5.8,-1.9,-7.9,-19,25,802.688,553.51,32.3398,1.2673,-2.71581,-32.8078,
2026_06_10_18_58_46.123,3.864,30.4,0,0.757,0,0,0,0, ,0,0,0,0,0, ,711.5,699.8,-4.2,0.4,-4.9,-16.6,25,797.204,562.476,30.4179,1.14437,-2.94031,-31.8932,
2026_06_10_18_58_46.143,3.864,30.4,0,0.758,0,0,0,0, ,0,0,0,0,0, ,708.9,689.8,7.2,4.1,-2.2,-16.7,25,791.903,570.54,28.6557,1.21174,-2.97747,-30.9644,
2026_06_10_18_58_46.162,3.864,30.3,0,0.758,0,0,0,0, ,0,0,0,0,0, ,702.7,699,28.3,4.8,-3.6,-18.6,25,786.656,578.087,27.9911,1.40907,-2.97275,-30.153,
2026_06_10_18_58_46.182,3.864,30.4,0,0.759,0,0,0,0, ,0,0,0,0,0, ,694.7,732.9,17.7,0.7,-7.6,-16.6,25,781.296,586.488,27.687,1.49079,-3.13284,-29.3881,
2026_06_10_18_58_46.202,3.864,30.4,0,0.759,0,0,0,0, ,0,0,0,0,0, ,695.4,729.3,-4.3,-0.5,-7.7,-11.6,25,776.04,595.301,26.4081,1.40604,-3.40811,-28.4565,
2026_06_10_18_58_46.222,3.864,30.4,0,0.758,0,0,0,0, ,0,0,0,0,0, ,696.2,705.2,-8.7,2.5,-5.4,-10.5,25,771.151,602.732,24.4027,1.38129,-3.59957,-27.3957,
2026_06_10_18_58_46.241,3.864,30.4,0,0.757,0,0,0,0, ,0,0,0,0,0, ,692.6,715.8,6.9,3,-4.6,-11.5,25,766.474,609.299,22.8608,1.4647,-3.68491,-26.3966,
2026_06_10_18_58_46.261,3.864,30.4,0,0.759,0,0,0,0, ,0,0,0,0,0, ,687.6,735.8,2.3,-0.9,-6.1,-9.7,25,761.82,616.398,21.7481,1.43943,-3.78637,-25.434,
2026_06_10_18_58_46.281,3.864,30.4,0,0.758,0,0,0,0, ,0,0,0,0,0, ,686.4,734.9,-10,-0.5,-5.4,-6.5,25,757.26,623.647,20.1882,1.30906,-3.90603,-24.3777,
2026_06_10_18_58_46.301,3.864,30.4,0,0.758,0,0,0,0, ,0,0,0,0,0, ,688.4,717,-17.4,0.1,-3.1,-5.3,25,753.003,629.881,18.1231,1.2171,-3.92699,-23.2517,
2026_06_10_18_58_46.321,3.864,30.4,0,0.76,0,0,0,0, ,0,0,0,0,0, ,685.9,723.5,-3,0.3,-1.7,-5.2,25,748.99,635.388,16.3972,1.15512,-3.83394,-22.1548,
2026_06_10_18_58_46.341,3.864,30.3,0,0.758,0,0,0,0, ,0,0,0,0,0, ,683.7,735.3,1.8,-2.5,-2.8,-3.6,25,745.079,641.117,15.3614,1.0177,-3.73742,-21.0728,
2026_06_10_18_58_46.360,3.864,30.4,0,0.759,0,0,0,0, ,0,0,0,0,0, ,684.5,725.7,8.5,-4,-4.3,-2.2,25,741.363,646.564,14.7392,0.757635,-3.726,-19.9654,
2026_06_10_18_58_46.380,3.864,30.4,0,0.76,0,0,0,0, ,0,0,0,0,0, ,687,718.7,-10.6,-4.5,-5.5,-2.2,25,737.974,651.173,13.777,0.452482,-3.79754,-18.8828,
2026_06_10_18_58_46.399,3.864,30.4,0,0.759,0,0,0,0, ,0,0,0,0,0, ,686.5,727.2,-20.2,-4.2,-2.9,-2,25,734.852,655.547,11.999,0.159831,-3.82206,-17.8601,
2026_06_10_18_58_46.420,3.864,30.3,0,0.759,0,0,0,0, ,0,0,0,0,0, ,686.5,727.4,-18.4,-4.6,-1.6,-1.4,25,731.906,659.919,10.0918,-0.118034,-3.72627,-16.8754,
2026_06_10_18_58_46.440,3.864,30.4,0,0.758,0,0,0,0, ,0,0,0,0,0, ,687,716.3,-7.4,-3.6,0.3,-1.3,25,729.154,663.693,8.6907,-0.360685,-3.53881,-15.9293,
2026_06_10_18_58_46.459,3.864,30.4,0,0.759,0,0,0,0, ,0,0,0,0,0, ,688.2,713.8,-0.3,-0.7,0.9,-2.2,25,726.622,666.823,7.9265,-0.469721,-3.2866,-15.0653,
2026_06_10_18_58_46.479,3.864,30.4,0,0.759,0,0,0,0, ,0,0,0,0,0, ,683.9,726.4,10.3,0,0,-2.2,25,724.15,670.069,7.74816,-0.462426,-3.0589,-14.2813,
2026_06_10_18_58_46.498,3.864,30.4,0,0.76,0,0,0,0, ,0,0,0,0,0, ,684,724.4,5.7,-1,-2.1,-1.4,25,721.7,673.441,7.76351,-0.464715,-2.93648,-13.5207,
2026_06_10_18_58_46.519,3.864,30.4,0,0.758,0,0,0,0, ,0,0,0,0,0, ,686.8,725.8,-8.3,-3.9,-2.2,-0.7,25,719.488,676.589,7.2112,-0.585694,-2.88856,-12.7608,
2026_06_10_18_58_46.539,3.864,30.4,0,0.758,0,0,0,0, ,0,0,0,0,0, ,690.3,705.3,-2.4,-1.7,-1.2,-1.3,25,717.603,678.963,6.44575,-0.720628,-2.81613,-12.0441,
2026_06_10_18_58_46.559,3.864,30.3,0,0.757,0,0,0,0, ,0,0,0,0,0, ,687.1,711,-2.9,1.7,-0.4,-3.8,25,715.841,680.742,5.89148,-0.676715,-2.69327,-11.4655,
2026_06_10_18_58_46.578,3.864,30.4,0,0.758,0,0,0,0, ,0,0,0,0,0, ,683.2,739.9,1.9,-1,-1.1,-3.3,25,713.971,683.466,5.502,-0.614149,-2.57485,-10.9832,
2026_06_10_18_58_46.598,3.864,30.4,0,0.757,0,0,0,0, ,0,0,0,0,0, ,685.7,723.8,3.5,-4.1,-2.3,-1,25,712.172,686.414,5.33125,-0.732115,-2.52154,-10.4449,
2026_06_10_18_58_46.618,3.864,30.3,0,0.759,0,0,0,0, ,0,0,0,0,0, ,688.4,703.9,-6.4,-1.5,-2.2,-2.3,25,710.641,688.086,4.91802,-0.858127,-2.50499,-9.90898,
2026_06_10_18_58_46.638,3.864,30.3,0,0.758,0,0,0,0, ,0,0,0,0,0, ,688.2,709.8,-13.3,2,0,-4.6,25,709.28,689.23,4.0181,-0.7906,-2.41938,-9.51539,
2026_06_10_18_58_46.657,3.864,30.4,0,0.758,0,0,0,0, ,0,0,0,0,0, ,684.3,733.8,4.1,0.1,-0.2,-4.4,25,707.877,691.214,3.49293,-0.678439,-2.27804,-9.20976,
2026_06_10_18_58_46.677,3.864,30.3,0,0.758,0,0,0,0, ,0,0,0,0,0, ,683.9,722.7,4.3,-0.9,-1.9,-3.2,25,706.428,693.471,3.53602,-0.661471,-2.20321,-8.8801,
2026_06_10_18_58_46.697,3.864,30.3,0,0.758,0,0,0,0, ,0,0,0,0,0, ,685.5,719.1,-9.5,0.3,-2.1,-3.7,25,705.104,695.143,3.1621,-0.639444,-2.19082,-8.54921,
2026_06_10_18_58_46.717,3.864,30.3,0,0.757,0,0,0,0, ,0,0,0,0,0, ,683.2,728.5,-8.3,1.6,-0.7,-3.4,25,703.839,696.889,2.42707,-0.542587,-2.14263,-8.24457,
2026_06_10_18_58_46.736,3.864,30.4,0,0.758,0,0,0,0, ,0,0,0,0,0, ,682.3,728.8,-2.9,-0.2,-1,-2.5,25,702.554,698.824,1.93792,-0.466867,-2.06386,-7.92193,
2026_06_10_18_58_46.756,3.864,30.3,0,0.76,0,0,0,0, ,0,0,0,0,0, ,683.5,720.7,-5.4,0.2,-1.1,-2.5,25,701.356,700.404,1.56694,-0.438418,-2.00208,-7.59153,
2026_06_10_18_58_46.776,3.864,30.4,0,0.758,0,0,0,0, ,0,0,0,0,0, ,682.2,725.8,-0.4,1,-1.4,-2.9,25,700.228,701.796,1.29473,-0.375139,-1.95625,-7.29345,
2026_06_10_18_58_46.796,3.864,30.3,0,0.758,0,0,0,0, ,0,0,0,0,0, ,681.8,726.9,-2.6,-0.2,-2.5,-2.4,25,699.118,703.293,1.12443,-0.327904,-1.95587,-7.01049,
2026_06_10_18_58_46.815,3.864,30.4,0,0.759,0,0,0,0, ,0,0,0,0,0, ,682,722.2,-2.3,-0.2,-3,-2.5,25,698.068,704.588,0.906613,-0.32011,-2.00426,-6.73259,
2026_06_10_18_58_46.835,3.864,30.3,0,0.759,0,0,0,0, ,0,0,0,0,0, ,681,725.4,-3.4,-2,-4,-2.9,25,697.059,705.759,0.677694,-0.367634,-2.09541,-6.48685,
2026_06_10_18_58_46.855,3.864,30.3,0,0.758,0,0,0,0, ,0,0,0,0,0, ,681.2,726.3,-5.3,-1.6,-4.5,-2.6,25,696.086,706.983,0.371319,-0.454919,-2.2267,-6.25914,
2026_06_10_18_58_46.875,3.864,30.4,0,0.759,0,0,0,0, ,0,0,0,0,0, ,681.3,720.5,-6.7,0.7,-5.1,-3,25,695.182,707.984,-0.0169333,-0.454619,-2.38351,-6.04835,
2026_06_10_18_58_46.895,3.864,30.3,0,0.759,0,0,0,0, ,0,0,0,0,0, ,681.5,722.5,-10.6,2.1,-5.3,-3.3,25,694.342,708.807,-0.543011,-0.341604,-2.55514,-5.87173,
2026_06_10_18_58_46.915,3.864,30.4,0,0.758,0,0,0,0, ,0,0,0,0,0, ,681.7,723.5,-11.9,2.9,-5,-3.9,25,693.566,709.672,-1.19547,-0.168443,-2.71327,-5.7333,
2026_06_10_18_58_46.935,3.864,30.4,0,0.758,0,0,0,0, ,0,0,0,0,0, ,680,731.5,-22.5,0.8,-5.1,-3.7,25,692.791,710.758,-2.17074,-0.0454445,-2.85566,-5.61549,
2026_06_10_18_58_46.960,3.864,30.4,0,0.761,0,0,0,0, ,0,0,0,0,0, ,678.3,731.3,-16.6,0.4,-4.3,-2.8,25,691.96,712.016,-3.22979,-0.00611269,-2.96805,-5.47134,
2026_06_10_18_58_46.974,3.864,30.4,0,0.758,0,0,0,0, ,0,0,0,0,0, ,678.9,730.7,-22.4,-0.7,-3.9,-2.3,25,691.146,713.173,-4.22126,-0.0148808,-3.03703,-5.29332,
2026_06_10_18_58_46.994,3.864,30.4,0,0.758,0,0,0,0, ,0,0,0,0,0, ,679.9,728.6,-27.7,-0.7,-2.8,-2,25,690.43,714.177,-5.49051,-0.0566303,-3.0561,-5.10177,
2026_06_10_18_58_47.014,3.864,30.3,0,0.758,0,0,0,0, ,0,0,0,0,0, ,680.7,728.6,-29.2,0,-0.7,-1.9,25,689.813,715.056,-6.8896,-0.0745075,-2.97651,-4.90971,
2026_06_10_18_58_47.034,3.864,30.3,0,0.759,0,0,0,0, ,0,0,0,0,0, ,679.8,730.4,-20.7,0,0.4,-1.8,25,689.23,715.936,-7.99016,-0.0699672,-2.80427,-4.72326,
2026_06_10_18_58_47.054,3.864,30.4,0,0.761,0,0,0,0, ,0,0,0,0,0, ,678.4,727.7,-16.6,0.2,0.5,-1.4,25,688.613,716.735,-8.63974,-0.0596098,-2.60596,-4.53294,
2026_06_10_18_58_47.073,3.864,30.4,0,0.757,0,0,0,0, ,0,0,0,0,0, ,680.2,721.8,-11.5,1.2,0.2,-2.2,25,688.045,717.224,-8.96943,-0.0133211,-2.42583,-4.3664,
2026_06_10_18_58_47.094,3.864,30.4,0,0.759,0,0,0,0, ,0,0,0,0,0, ,677.7,731.4,-2.8,1.8,-1.8,-2.1,25,687.491,717.795,-8.85856,0.0788969,-2.32676,-4.23134,
2026_06_10_18_58_47.113,3.864,30.3,0,0.758,0,0,0,0, ,0,0,0,0,0, ,678.1,726.5,-17.4,0.5,-3.6,-1.8,25,686.906,718.475,-8.93421,0.144167,-2.3495,-4.09232,
2026_06_10_18_58_47.133,3.864,30.2,0,0.757,0,0,0,0, ,0,0,0,0,0, ,679.8,721.9,-32.9,1.1,-2.7,-2.4,25,686.422,718.824,-9.92236,0.184132,-2.39828,-3.97091,
2026_06_10_18_58_47.153,3.864,30.3,0,0.759,0,0,0,0, ,0,0,0,0,0, ,680.2,726,-39.6,1.2,-1.2,-2.7,25,686.03,719.136,-11.5267,0.24299,-2.37097,-3.88432,
2026_06_10_18_58_47.172,3.864,30.3,0,0.758,0,0,0,0, ,0,0,0,0,0, ,677.1,738.7,-28.5,1.9,0.9,-2.1,25,685.581,719.941,-12.8992,0.322636,-2.23563,-3.79387,
2026_06_10_18_58_47.192,3.864,30.4,0,0.758,0,0,0,0, ,0,0,0,0,0, ,677.3,727.4,-18.4,-1.2,0.4,-1.3,25,685.07,720.74,-13.5422,0.324303,-2.05978,-3.66628,
2026_06_10_18_58_47.212,3.864,30.3,0,0.758,0,0,0,0, ,0,0,0,0,0, ,680,722,-19.6,0.4,0.2,-2.1,25,684.679,720.981,-13.8747,0.280166,-1.91598,-3.54646,
2026_06_10_18_58_47.235,3.864,30.3,0,0.758,0,0,0,0, ,0,0,0,0,0, ,677.1,732.2,-12,1.2,-0.5,-2.3,25,684.305,721.354,-13.9921,0.311843,-1.80837,-3.46441,
2026_06_10_18_58_47.252,3.864,30.2,0,0.758,0,0,0,0, ,0,0,0,0,0, ,676,739.7,-17.9,-1.5,-2.5,-0.8,25,683.833,722.244,-14.0504,0.2837,-1.78958,-3.34775,
2026_06_10_18_58_47.271,3.864,30.4,0,0.758,0,0,0,0, ,0,0,0,0,0, ,680.7,723.7,-32.7,-3,-2.3,-0.1,25,683.499,722.82,-14.736,0.129302,-1.82678,-3.17117,
2026_06_10_18_58_47.292,3.864,30.3,0,0.758,0,0,0,0, ,0,0,0,0,0, ,682.7,718.8,-35.8,-0.5,0.2,-0.9,25,683.389,722.724,-15.9251,0.0147824,-1.77944,-3.00839,
2026_06_10_18_58_47.311,3.864,30.3,0,0.758,0,0,0,0, ,0,0,0,0,0, ,677.7,727.7,-20.8,2.6,2,-1.3,25,683.195,722.756,-16.6792,0.077866,-1.60398,-2.8921,
