UTC_Time,Vin,TC1,TC2,Rh1,Vh1,Ah1,Acp1,Dty1,Err1,Rh2,Vh2,Ah2,Acp2,Dty2,Err2,Accel_x,Accel_y,Accel_z,gyro_x,gyro_y,gyro_z,Temp_c,Accel_x_h,Accel_y_h,Accel_z_h,gyro_x_h,gyro_y_h,gyro_z_h,
2026_07_06_15_22_09.029,3.847,46.4,0,0.77,0,0,0,0, ,0,0,0,0,0, ,-38.4,156.8,988.7,-0.6,-0.4,-1.8,25,-38.4,156.8,988.7,-0.6,-0.4,-1.8,
2026_07_06_15_22_09.049,3.847,46.4,0,0.771,0,0,0,0, ,0,0,0,0,0, ,-39.1,156,988.2,-0.6,-0.4,-1.8,25,-38.4213,156.776,988.685,-0.6,-0.4,-1.8,
2026_07_06_15_22_09.061,3.847,46.4,0,0.771,0,0,0,0, ,0,0,0,0,0, ,-37.8,155.1,988.6,-0.6,-0.4,-1.8,25,-38.4231,156.701,988.667,-0.6,-0.4,-1.8,
2026_07_06_15_22_09.094,3.847,46.4,0,0.77,0,0,0,0, ,0,0,0,0,0, ,-37.5,155.3,986.8,-0.5,-0.5,-1.8,25,-38.376,156.609,988.608,-0.596953,-0.403047,-1.8,
2026_07_06_15_22_09.108,3.847,46.3,0,0.77,0,0,0,0, ,0,0,0,0,0, ,-37.7,157.7,989,-0.6,-0.4,-1.8,25,-38.3287,156.603,988.565,-0.594092,-0.405908,-1.8,
2026_07_06_15_22_09.124,3.847,46.3,0,0.771,0,0,0,0, ,0,0,0,0,0, ,-38.9,156.4,988.5,-0.7,-0.3,-1.8,25,-38.3269,156.63,988.577,-0.597499,-0.402501,-1.8,
2026_07_06_15_22_09.140,3.847,46.2,0,0.771,0,0,0,0, ,0,0,0,0,0, ,-37.8,155.7,987.3,-0.6,-0.4,-1.8,25,-38.3283,156.595,988.535,-0.600698,-0.399302,-1.8,
2026_07_06_15_22_09.172,3.847,46.3,0,0.771,0,0,0,0, ,0,0,0,0,0, ,-36.9,156.6,988.8,-0.6,-0.4,-1.7,25,-38.2687,156.568,988.506,-0.600656,-0.399344,-1.79695,
2026_07_06_15_22_09.188,3.847,46.3,0,0.771,0,0,0,0, ,0,0,0,0,0, ,-40,157.4,988.8,-0.7,-0.5,-1.8,25,-38.2798,156.594,988.524,-0.603663,-0.402431,-1.79409,
2026_07_06_15_22_09.204,3.847,46.3,0,0.771,0,0,0,0, ,0,0,0,0,0, ,-37.1,156.3,987.1,-0.6,-0.4,-1.9,25,-38.2962,156.61,988.489,-0.606486,-0.40533,-1.7975,
2026_07_06_15_22_09.220,3.847,46.3,0,0.77,0,0,0,0, ,0,0,0,0,0, ,-36.9,156,987.5,-0.5,-0.4,-1.7,25,-38.2172,156.582,988.416,-0.603044,-0.405005,-1.79765,
2026_07_06_15_22_09.251,3.847,46.2,0,0.77,0,0,0,0, ,0,0,0,0,0, ,-37.9,157.3,987.9,-0.5,-0.4,-1.8,25,-38.1674,156.586,988.373,-0.596765,-0.4047,-1.79475,
2026_07_06_15_22_09.267,3.847,46.2,0,0.771,0,0,0,0, ,0,0,0,0,0, ,-38.2,157.3,988.8,-0.6,-0.4,-1.8,25,-38.1603,156.629,988.371,-0.593915,-0.404414,-1.79507,
2026_07_06_15_22_09.283,3.847,46.3,0,0.77,0,0,0,0, ,0,0,0,0,0, ,-38.5,156.6,988.6,-0.6,-0.4,-1.8,25,-38.1718,156.649,988.391,-0.594286,-0.404145,-1.79537,
2026_07_06_15_22_09.299,3.847,46.2,0,0.77,0,0,0,0, ,0,0,0,0,0, ,-38.5,155.7,988.8,-0.5,-0.5,-1.8,25,-38.1918,156.618,988.41,-0.591587,-0.406939,-1.79565,
2026_07_06_15_22_09.331,3.847,46.1,0,0.771,0,0,0,0, ,0,0,0,0,0, ,-38.6,156.2,987.9,-0.5,-0.4,-1.8,25,-38.2137,156.578,988.406,-0.586006,-0.409563,-1.79592,
2026_07_06_15_22_09.347,3.847,46.2,0,0.767,0,0,0,0, ,0,0,0,0,0, ,-38.9,156,988.8,-0.6,-0.4,-1.8,25,-38.2464,156.549,988.403,-0.583812,-0.40898,-1.79616,
2026_07_06_15_22_09.362,3.847,46.1,0,0.771,0,0,0,0, ,0,0,0,0,0, ,-38,155.6,989,-0.6,-0.4,-1.7,25,-38.2588,156.503,988.433,-0.584798,-0.408433,-1.79335,
2026_07_06_15_22_09.380,3.847,46.2,0,0.77,0,0,0,0, ,0,0,0,0,0, ,-37.9,156,988.1,-0.6,-0.4,-1.9,25,-38.2399,156.46,988.44,-0.585725,-0.407919,-1.79376,
2026_07_06_15_22_09.410,3.847,46.2,0,0.77,0,0,0,0, ,0,0,0,0,0, ,-37.7,156.9,987.9,-0.6,-0.4,-1.9,25,-38.2131,156.459,988.414,-0.586595,-0.407437,-1.80023,
2026_07_06_15_22_09.426,3.847,46.1,0,0.77,0,0,0,0, ,0,0,0,0,0, ,-39.3,156.1,988,-0.5,-0.4,-1.8,25,-38.2306,156.462,988.385,-0.584365,-0.406983,-1.80326,
2026_07_06_15_22_09.442,3.847,46.2,0,0.772,0,0,0,0, ,0,0,0,0,0, ,-38.4,156.4,987.3,-0.5,-0.4,-1.7,25,-38.2684,156.449,988.341,-0.579224,-0.406558,-1.80002,
2026_07_06_15_22_09.458,3.847,46.1,0,0.769,0,0,0,0, ,0,0,0,0,0, ,-38.4,156.8,988.2,-0.6,-0.4,-1.8,25,-38.2764,156.458,988.305,-0.577443,-0.406158,-1.79697,
2026_07_06_15_22_09.490,3.847,46,0,0.771,0,0,0,0, ,0,0,0,0,0, ,-38,156,987.7,-0.6,-0.5,-1.9,25,-38.2717,156.455,988.283,-0.578817,-0.40883,-1.8002,
2026_07_06_15_22_09.507,3.847,46,0,0.772,0,0,0,0, ,0,0,0,0,0, ,-38.4,154.6,987.5,-0.7,-0.4,-1.8,25,-38.2674,156.384,988.241,-0.583155,-0.411339,-1.80324,
2026_07_06_15_22_09.522,3.847,46.1,0,0.771,0,0,0,0, ,0,0,0,0,0, ,-38.2,156.2,989.6,-0.6,-0.4,-1.8,25,-38.2693,156.324,988.26,-0.587229,-0.410648,-1.80304,
2026_07_06_15_22_09.538,3.847,46,0,0.771,0,0,0,0, ,0,0,0,0,0, ,-38.9,156.1,987,-0.6,-0.3,-1.8,25,-38.2865,156.314,988.263,-0.588007,-0.406952,-1.80285,
2026_07_06_15_22_09.554,3.847,46.1,0,0.771,0,0,0,0, ,0,0,0,0,0, ,-38.8,156.3,989.8,-0.5,-0.4,-1.8,25,-38.3208,156.307,988.271,-0.585691,-0.403482,-1.80268,
2026_07_06_15_22_09.586,3.847,46,0,0.769,0,0,0,0, ,0,0,0,0,0, ,-38.3,156,987.1,-0.6,-0.4,-1.8,25,-38.3348,156.297,988.282,-0.583516,-0.403269,-1.80252,
2026_07_06_15_22_09.602,3.847,46,0,0.769,0,0,0,0, ,0,0,0,0,0, ,-38.3,157.4,987.9,-0.6,-0.4,-1.8,25,-38.3326,156.322,988.234,-0.58452,-0.40307,-1.80236,
2026_07_06_15_22_09.618,3.847,46.1,0,0.77,0,0,0,0, ,0,0,0,0,0, ,-37.8,157.1,990.8,-0.6,-0.4,-1.9,25,-38.3154,156.378,988.302,-0.585464,-0.402883,-1.80527,
2026_07_06_15_22_09.633,3.847,46.1,0,0.771,0,0,0,0, ,0,0,0,0,0, ,-39,156,988.4,-0.6,-0.4,-1.8,25,-38.3206,156.389,988.381,-0.586349,-0.402707,-1.80799,
2026_07_06_15_22_09.665,3.847,46,0,0.771,0,0,0,0, ,0,0,0,0,0, ,-37.7,155.3,988,-0.5,-0.4,-1.8,25,-38.3224,156.344,988.37,-0.584134,-0.402542,-1.8075,
2026_07_06_15_22_09.681,3.847,46,0,0.77,0,0,0,0, ,0,0,0,0,0, ,-38.4,156.8,987.9,-0.5,-0.4,-1.8,25,-38.3058,156.326,988.345,-0.579007,-0.402387,-1.80705,
2026_07_06_15_22_09.697,3.847,46,0,0.77,0,0,0,0, ,0,0,0,0,0, ,-38.4,156.1,988.7,-0.6,-0.3,-1.8,25,-38.3115,156.333,988.342,-0.57724,-0.399195,-1.80662,
2026_07_06_15_22_09.728,3.847,46,0,0.77,0,0,0,0, ,0,0,0,0,0, ,-38.6,156.2,986.4,-0.5,-0.4,-1.8,25,-38.323,156.322,988.294,-0.57558,-0.396197,-1.80621,
2026_07_06_15_22_09.744,3.847,45.9,0,0.77,0,0,0,0, ,0,0,0,0,0, ,-39.3,156.3,989.2,-0.5,-0.4,-1.8,25,-38.3612,156.318,988.264,-0.570974,-0.396429,-1.80584,
2026_07_06_15_22_09.760,3.847,45.9,0,0.771,0,0,0,0, ,0,0,0,0,0, ,-37.9,156,988.4,-0.6,-0.4,-1.7,25,-38.3758,156.308,988.296,-0.569696,-0.396647,-1.80243,
2026_07_06_15_22_09.781,3.847,45.9,0,0.77,0,0,0,0, ,0,0,0,0,0, ,-37.8,155.5,989,-0.6,-0.4,-1.8,25,-38.3437,156.274,988.321,-0.571543,-0.396851,-1.79924,
2026_07_06_15_22_09.792,3.847,45.9,0,0.77,0,0,0,0, ,0,0,0,0,0, ,-37.3,157.4,987.9,-0.5,-0.3,-1.8,25,-38.2954,156.284,988.329,-0.57023,-0.393996,-1.79928,
2026_07_06_15_22_09.824,3.847,45.9,0,0.77,0,0,0,0, ,0,0,0,0,0, ,-38.4,155.7,987.6,-0.5,-0.4,-1.8,25,-38.2682,156.301,988.293,-0.56595,-0.391315,-1.79933,
2026_07_06_15_22_09.840,3.847,45.9,0,0.771,0,0,0,0, ,0,0,0,0,0, ,-38.9,156.9,988.6,-0.6,-0.4,-1.8,25,-38.2915,156.301,988.282,-0.564978,-0.391844,-1.79937,
2026_07_06_15_22_09.856,3.847,45.9,0,0.771,0,0,0,0, ,0,0,0,0,0, ,-39,155.7,989.2,-0.5,-0.4,-1.8,25,-38.3316,156.301,988.319,-0.564066,-0.392341,-1.79941,
2026_07_06_15_22_09.881,3.847,45.9,0,0.771,0,0,0,0, ,0,0,0,0,0, ,-39.3,154.9,988.5,-0.6,-0.4,-1.8,25,-38.3815,156.24,988.352,-0.563209,-0.392808,-1.79944,
2026_07_06_15_22_09.904,3.847,45.9,0,0.771,0,0,0,0, ,0,0,0,0,0, ,-39.4,155.3,987.4,-0.6,-0.4,-1.7,25,-38.4405,156.17,988.327,-0.565451,-0.393246,-1.79643,
2026_07_06_15_22_09.920,3.847,45.9,0,0.771,0,0,0,0, ,0,0,0,0,0, ,-36.8,154.6,989.2,-0.6,-0.5,-1.8,25,-38.4197,156.096,988.326,-0.567556,-0.396705,-1.7936,
2026_07_06_15_22_09.936,3.847,45.8,0,0.77,0,0,0,0, ,0,0,0,0,0, ,-37.9,155.2,986.9,-0.6,-0.4,-1.8,25,-38.3546,156.023,988.309,-0.569533,-0.399952,-1.79399,
2026_07_06_15_22_09.953,3.847,45.9,0,0.769,0,0,0,0, ,0,0,0,0,0, ,-37.8,155.6,988.8,-0.5,-0.4,-1.8,25,-38.3238,155.985,988.281,-0.568343,-0.399955,-1.79436,
2026_07_06_15_22_09.984,3.847,45.8,0,0.77,0,0,0,0, ,0,0,0,0,0, ,-37.4,156.9,986.6,-0.6,-0.4,-1.8,25,-38.2797,156.001,988.245,-0.567225,-0.399958,-1.7947,
2026_07_06_15_22_10.000,3.847,45.8,0,0.77,0,0,0,0, ,0,0,0,0,0, ,-37.8,156.4,988.1,-0.6,-0.5,-1.8,25,-38.2383,156.041,988.191,-0.569222,-0.403007,-1.79502,
2026_07_06_15_22_10.016,3.847,45.8,0,0.77,0,0,0,0, ,0,0,0,0,0, ,-37.5,156.4,988.5,-0.6,-0.4,-1.7,25,-38.2024,156.063,988.197,-0.571098,-0.405871,-1.79228,
2026_07_06_15_22_10.032,3.847,45.8,0,0.771,0,0,0,0, ,0,0,0,0,0, ,-38.6,156.2,986.8,-0.6,-0.4,-1.7,25,-38.1931,156.077,988.164,-0.572859,-0.405513,-1.78666,
2026_07_06_15_22_10.064,3.847,45.9,0,0.77,0,0,0,0, ,0,0,0,0,0, ,-38.3,155.2,988.5,-0.6,-0.4,-1.8,25,-38.2088,156.054,988.133,-0.574513,-0.405177,-1.78442,
2026_07_06_15_22_10.081,3.847,45.8,0,0.769,0,0,0,0, ,0,0,0,0,0, ,-39.4,156.7,987.5,-0.5,-0.5,-1.8,25,-38.2479,156.048,988.125,-0.573019,-0.407909,-1.78537,
2026_07_06_15_22_10.096,3.847,45.8,0,0.771,0,0,0,0, ,0,0,0,0,0, ,-38.8,156,987.6,-0.6,-0.4,-1.8,25,-38.2998,156.066,988.09,-0.571616,-0.410474,-1.78626,
2026_07_06_15_22_10.112,3.847,45.8,0,0.77,0,0,0,0, ,0,0,0,0,0, ,-38.8,156.2,987.3,-0.5,-0.4,-1.9,25,-38.3303,156.068,988.051,-0.570299,-0.409835,-1.79015,
2026_07_06_15_22_10.143,3.847,45.8,0,0.77,0,0,0,0, ,0,0,0,0,0, ,-38.5,156,989.3,-0.6,-0.5,-1.8,25,-38.3498,156.07,988.066,-0.569062,-0.412283,-1.7938,
2026_07_06_15_22_10.161,3.847,45.8,0,0.77,0,0,0,0, ,0,0,0,0,0, ,-38.8,155.7,988.2,-0.5,-0.4,-1.8,25,-38.3681,156.057,988.108,-0.567901,-0.414581,-1.79417,
2026_07_06_15_22_10.181,3.847,45.7,0,0.77,0,0,0,0, ,0,0,0,0,0, ,-38.9,156.9,987.9,-0.5,-0.5,-1.8,25,-38.3974,156.072,988.104,-0.563763,-0.41674,-1.79453,
2026_07_06_15_22_10.191,3.847,45.7,0,0.77,0,0,0,0, ,0,0,0,0,0, ,-38.6,155.5,987.9,-0.6,-0.4,-1.7,25,-38.4189,156.079,988.092,-0.562924,-0.418766,-1.79181,
2026_07_06_15_22_10.222,3.847,45.7,0,0.77,0,0,0,0, ,0,0,0,0,0, ,-39.5,154.5,989.5,-0.6,-0.5,-1.8,25,-38.4574,156.014,988.129,-0.565183,-0.42067,-1.78927,
2026_07_06_15_22_10.238,3.847,45.8,0,0.77,0,0,0,0, ,0,0,0,0,0, ,-39.1,156.4,988.7,-0.6,-0.4,-1.8,25,-38.5087,155.979,988.188,-0.567305,-0.422457,-1.78992,
2026_07_06_15_22_10.254,3.847,45.7,0,0.769,0,0,0,0, ,0,0,0,0,0, ,-38.3,155.7,987.9,-0.6,-0.4,-1.8,25,-38.5204,155.984,988.195,-0.569297,-0.421089,-1.79054,
2026_07_06_15_22_10.282,3.847,45.8,0,0.77,0,0,0,0, ,0,0,0,0,0, ,-38.3,155.7,988.4,-0.6,-0.4,-1.8,25,-38.5069,155.966,988.192,-0.571168,-0.419803,-1.79111,
2026_07_06_15_22_10.302,3.847,45.7,0,0.771,0,0,0,0, ,0,0,0,0,0, ,-38.4,156.8,987.7,-0.6,-0.5,-1.8,25,-38.4974,155.984,988.183,-0.572925,-0.421644,-1.79165,
2026_07_06_15_22_10.319,3.847,45.6,0,0.769,0,0,0,0, ,0,0,0,0,0, ,-38.6,156.1,988.2,-0.6,-0.4,-1.8,25,-38.4975,156.012,988.169,-0.574575,-0.423372,-1.79216,
2026_07_06_15_22_10.335,3.847,45.7,0,0.77,0,0,0,0, ,0,0,0,0,0, ,-38.6,156.2,987.9,-0.6,-0.4,-1.7,25,-38.5038,156.02,988.162,-0.576125,-0.421947,-1.78959,
2026_07_06_15_22_10.351,3.847,45.7,0,0.771,0,0,0,0, ,0,0,0,0,0, ,-38.6,155.6,988.4,-0.6,-0.4,-1.8,25,-38.5096,156.013,988.161,-0.577579,-0.42061,-1.78718,
2026_07_06_15_22_10.465,3.847,45.7,0,0.769,0,0,0,0, ,0,0,0,0,0, ,-38.3,156.3,987,-0.5,-0.3,-1.8,25,-38.506,156.009,988.133,-0.575899,-0.416307,-1.78796,
2026_07_06_15_22_10.465,3.847,45.6,0,0.77,0,0,0,0, ,0,0,0,0,0, ,-37.5,156.3,988.1,-0.6,-0.4,-1.8,25,-38.4691,156.027,988.098,-0.574321,-0.412267,-1.78869,
2026_07_06_15_22_10.465,3.847,45.6,0,0.771,0,0,0,0, ,0,0,0,0,0, ,-38.3,157.5,987,-0.6,-0.5,-1.8,25,-38.4344,156.08,988.064,-0.575885,-0.414566,-1.78938,
2026_07_06_15_22_10.465,3.847,45.6,0,0.769,0,0,0,0, ,0,0,0,0,0, ,-37.9,155.6,988.2,-0.6,-0.4,-1.8,25,-38.414,156.109,988.036,-0.577355,-0.416725,-1.79003,
2026_07_06_15_22_10.465,3.847,45.6,0,0.77,0,0,0,0, ,0,0,0,0,0, ,-38.6,156,987.7,-0.5,-0.4,-1.8,25,-38.404,156.09,988.031,-0.575688,-0.415706,-1.79064,
2026_07_06_15_22_10.481,3.847,45.6,0,0.77,0,0,0,0, ,0,0,0,0,0, ,-38.9,156.1,987.1,-0.6,-0.4,-1.8,25,-38.4251,156.088,987.992,-0.574123,-0.414749,-1.79121,
2026_07_06_15_22_10.499,3.847,45.6,0,0.769,0,0,0,0, ,0,0,0,0,0, ,-39.7,156.4,987.9,-0.6,-0.3,-1.8,25,-38.4784,156.097,987.962,-0.5757,-0.410803,-1.79174,
2026_07_06_15_22_10.516,3.847,45.6,0,0.769,0,0,0,0, ,0,0,0,0,0, ,-39.7,155.6,988,-0.6,-0.4,-1.8,25,-38.5529,156.091,987.961,-0.57718,-0.407098,-1.79225,
2026_07_06_15_22_10.534,3.847,45.5,0,0.77,0,0,0,0, ,0,0,0,0,0, ,-37.5,156.4,988.1,-0.6,-0.4,-1.8,25,-38.5557,156.086,987.967,-0.578571,-0.406666,-1.79272,
2026_07_06_15_22_10.548,3.847,45.5,0,0.77,0,0,0,0, ,0,0,0,0,0, ,-38.2,156.4,988.2,-0.6,-0.4,-1.8,25,-38.5127,156.105,987.978,-0.579877,-0.406259,-1.79316,
2026_07_06_15_22_10.581,3.847,45.7,0,0.771,0,0,0,0, ,0,0,0,0,0, ,-39.4,155.8,987.7,-0.6,-0.4,-1.9,25,-38.5302,156.105,987.976,-0.581103,-0.405878,-1.79663,
2026_07_06_15_22_10.599,3.847,45.5,0,0.77,0,0,0,0, ,0,0,0,0,0, ,-38.4,154.9,987.3,-0.5,-0.5,-1.9,25,-38.5528,156.059,987.947,-0.579208,-0.408567,-1.80293,
2026_07_06_15_22_10.616,3.847,45.5,0,0.769,0,0,0,0, ,0,0,0,0,0, ,-38.3,155.8,989.3,-0.5,-0.4,-1.8,25,-38.5404,156.016,987.969,-0.574381,-0.411091,-1.80579,
2026_07_06_15_22_10.632,3.847,45.5,0,0.77,0,0,0,0, ,0,0,0,0,0, ,-37.7,156.4,989.1,-0.6,-0.5,-1.8,25,-38.5075,156.021,988.044,-0.572895,-0.413462,-1.80544,
2026_07_06_15_22_10.656,3.847,45.6,0,0.77,0,0,0,0, ,0,0,0,0,0, ,-38,156.1,987.9,-0.5,-0.4,-1.8,25,-38.4674,156.035,988.072,-0.5715,-0.415689,-1.80511,
2026_07_06_15_22_10.667,3.847,45.5,0,0.771,0,0,0,0, ,0,0,0,0,0, ,-38.2,154.2,987.9,-0.5,-0.4,-1.7,25,-38.445,155.981,988.061,-0.567143,-0.414733,-1.80175,
2026_07_06_15_22_10.700,3.847,45.5,0,0.77,0,0,0,0, ,0,0,0,0,0, ,-38.9,154.5,989.1,-0.5,-0.4,-1.8,25,-38.4514,155.881,988.088,-0.563051,-0.413835,-1.7986,
2026_07_06_15_22_10.716,3.847,45.5,0,0.77,0,0,0,0, ,0,0,0,0,0, ,-38.8,155.3,987.7,-0.5,-0.4,-1.8,25,-38.4757,155.822,988.107,-0.559209,-0.412992,-1.79868,
2026_07_06_15_22_10.734,3.847,45.5,0,0.769,0,0,0,0, ,0,0,0,0,0, ,-38.4,155.3,989.1,-0.6,-0.4,-1.8,25,-38.4833,155.79,988.125,-0.558648,-0.4122,-1.79876,
2026_07_06_15_22_10.749,3.847,45.3,0,0.769,0,0,0,0, ,0,0,0,0,0, ,-39.4,156.3,988.4,-0.6,-0.5,-1.8,25,-38.5087,155.79,988.163,-0.561168,-0.414504,-1.79884,
2026_07_06_15_22_10.767,3.847,45.5,0,0.769,0,0,0,0, ,0,0,0,0,0, ,-38,155,988.5,-0.5,-0.4,-1.8,25,-38.5203,155.782,988.18,-0.560487,-0.416667,-1.79891,
2026_07_06_15_22_10.799,3.847,45.5,0,0.77,0,0,0,0, ,0,0,0,0,0, ,-39,155,988.2,-0.5,-0.4,-1.7,25,-38.5191,155.734,988.191,-0.556801,-0.415651,-1.79593,
2026_07_06_15_22_10.815,3.847,45.3,0,0.771,0,0,0,0, ,0,0,0,0,0, ,-39.3,155.7,988.5,-0.6,-0.4,-1.8,25,-38.5575,155.711,988.2,-0.556387,-0.414697,-1.79313,
2026_07_06_15_22_10.832,3.847,45.3,0,0.77,0,0,0,0, ,0,0,0,0,0, ,-38.8,155.7,988,-0.6,-0.4,-1.9,25,-38.5876,155.71,988.203,-0.559045,-0.413802,-1.7966,
2026_07_06_15_22_10.849,3.847,45.3,0,0.77,0,0,0,0, ,0,0,0,0,0, ,-37.1,158,987.6,-0.5,-0.3,-1.8,25,-38.5487,155.78,988.179,-0.558494,-0.409914,-1.79985,
2026_07_06_15_22_10.867,3.847,45.3,0,0.769,0,0,0,0, ,0,0,0,0,0, ,-39.7,156.7,986.6,-0.5,-0.4,-1.8,25,-38.5396,155.875,988.113,-0.554929,-0.406263,-1.79986,
2026_07_06_15_22_10.897,3.847,45.3,0,0.769,0,0,0,0, ,0,0,0,0,0, ,-38.2,156.2,988.1,-0.6,-0.5,-1.8,25,-38.5646,155.91,988.067,-0.554629,-0.408928,-1.79987,
2026_07_06_15_22_10.916,3.847,45.2,0,0.771,0,0,0,0, ,0,0,0,0,0, ,-38.3,155.6,988.5,-0.5,-0.4,-1.8,25,-38.5455,155.91,988.081,-0.554347,-0.411431,-1.79988,
2026_07_06_15_22_10.932,3.847,45.3,0,0.769,0,0,0,0, ,0,0,0,0,0, ,-38,157.3,988.8,-0.6,-0.4,-1.8,25,-38.5214,155.943,988.116,-0.554082,-0.410734,-1.79988,
2026_07_06_15_22_10.949,3.847,45.3,0,0.77,0,0,0,0, ,0,0,0,0,0, ,-38.3,155.6,989.6,-0.6,-0.5,-1.8,25,-38.4987,155.974,988.182,-0.55688,-0.413127,-1.79989,
2026_07_06_15_22_10.965,3.847,45.3,0,0.769,0,0,0,0, ,0,0,0,0,0, ,-37.7,155.1,988,-0.6,-0.4,-1.8,25,-38.4684,155.936,988.219,-0.559508,-0.415374,-1.7999,
2026_07_06_15_22_10.983,3.847,45.2,0,0.769,0,0,0,0, ,0,0,0,0,0, ,-38.6,155.3,988.2,-0.5,-0.4,-1.8,25,-38.449,155.891,988.212,-0.558928,-0.414437,-1.7999,
2026_07_06_15_22_11.016,3.847,45.3,0,0.769,0,0,0,0, ,0,0,0,0,0, ,-38.4,156.8,988.6,-0.6,-0.3,-1.8,25,-38.4521,155.9,988.223,-0.558384,-0.410511,-1.79991,
2026_07_06_15_22_11.032,3.847,45.3,0,0.77,0,0,0,0, ,0,0,0,0,0, ,-37.2,155.5,988.7,-0.6,-0.4,-1.9,25,-38.4123,155.916,988.249,-0.56092,-0.406823,-1.80296,
2026_07_06_15_22_11.050,3.847,45.2,0,0.771,0,0,0,0, ,0,0,0,0,0, ,-39,156,986.8,-0.6,-0.4,-1.8,25,-38.3933,155.906,988.219,-0.563302,-0.406407,-1.80583,
2026_07_06_15_22_11.066,3.847,45.2,0,0.77,0,0,0,0, ,0,0,0,0,0, ,-38.5,156.9,987.4,-0.6,-0.4,-1.8,25,-38.415,155.939,988.151,-0.565538,-0.406017,-1.80547,
2026_07_06_15_22_11.091,3.847,45.2,0,0.769,0,0,0,0, ,0,0,0,0,0, ,-38.8,156.3,987.6,-0.6,-0.4,-1.8,25,-38.4294,155.979,988.111,-0.567638,-0.40565,-1.80514,
2026_07_06_15_22_11.116,3.847,45.1,0,0.769,0,0,0,0, ,0,0,0,0,0, ,-38.8,157.2,986.4,-0.6,-0.5,-1.8,25,-38.4519,156.026,988.043,-0.56961,-0.408353,-1.80483,
2026_07_06_15_22_11.133,3.847,45.2,0,0.769,0,0,0,0, ,0,0,0,0,0, ,-38.5,156.8,989.2,-0.6,-0.4,-1.7,25,-38.464,156.085,988.029,-0.571462,-0.410891,-1.80149,
2026_07_06_15_22_11.150,3.847,45.1,0,0.769,0,0,0,0, ,0,0,0,0,0, ,-39,157.1,987.6,-0.5,-0.4,-1.8,25,-38.4814,156.138,988.051,-0.570154,-0.410227,-1.79835,
2026_07_06_15_22_11.166,3.847,45.2,0,0.77,0,0,0,0, ,0,0,0,0,0, ,-38.5,157.4,988.7,-0.6,-0.4,-1.9,25,-38.4978,156.206,988.057,-0.568926,-0.409604,-1.8015,
2026_07_06_15_22_11.182,3.847,45.2,0,0.772,0,0,0,0, ,0,0,0,0,0, ,-39.6,156.4,987,-0.5,-0.4,-1.8,25,-38.5314,156.248,988.045,-0.567773,-0.409019,-1.80445,
2026_07_06_15_22_11.214,3.847,45.1,0,0.771,0,0,0,0, ,0,0,0,0,0, ,-38.2,156.1,986.9,-0.7,-0.4,-1.8,25,-38.5539,156.248,987.978,-0.569736,-0.408469,-1.80418,
2026_07_06_15_22_11.233,3.847,45.1,0,0.77,0,0,0,0, ,0,0,0,0,0, ,-37.1,155.8,987.7,-0.5,-0.5,-1.8,25,-38.4988,156.23,987.937,-0.571581,-0.411,-1.80393,
2026_07_06_15_22_11.249,3.847,45.2,0,0.769,0,0,0,0, ,0,0,0,0,0, ,-38.4,156.4,987.3,-0.5,-0.4,-1.8,25,-38.4532,156.222,987.91,-0.567219,-0.413376,-1.80369,
2026_07_06_15_22_11.265,3.847,45.1,0,0.768,0,0,0,0, ,0,0,0,0,0, ,-39,156.3,989.2,-0.7,-0.4,-1.8,25,-38.4682,156.23,987.931,-0.569216,-0.412561,-1.80346,
2026_07_06_15_22_11.284,3.847,45.1,0,0.77,0,0,0,0, ,0,0,0,0,0, ,-38.9,156.4,988.1,-0.7,-0.5,-1.8,25,-38.4976,156.237,987.975,-0.577186,-0.414843,-1.80325,
2026_07_06_15_22_11.313,3.847,45.1,0,0.771,0,0,0,0, ,0,0,0,0,0, ,-38.5,155.8,989.8,-0.7,-0.5,-1.8,25,-38.5099,156.229,988.034,-0.58467,-0.420032,-1.80305,
2026_07_06_15_22_11.334,3.847,45.1,0,0.77,0,0,0,0, ,0,0,0,0,0, ,-38.3,157.2,988.1,-0.5,-0.4,-1.8,25,-38.5032,156.245,988.09,-0.585604,-0.421858,-1.80287,
2026_07_06_15_22_11.353,3.847,45.1,0,0.77,0,0,0,0, ,0,0,0,0,0, ,-37.2,157.8,988.1,-0.6,-0.4,-1.8,25,-38.4573,156.322,988.09,-0.583434,-0.420526,-1.80269,
2026_07_06_15_22_11.372,3.847,45.1,0,0.769,0,0,0,0, ,0,0,0,0,0, ,-37.9,156.6,989,-0.6,-0.4,-1.9,25,-38.402,156.375,988.118,-0.584444,-0.419275,-1.80557,
2026_07_06_15_22_11.392,3.847,45,0,0.769,0,0,0,0, ,0,0,0,0,0, ,-38.4,156.3,987.1,-0.5,-0.4,-1.8,25,-38.3867,156.38,988.114,-0.582345,-0.418101,-1.80828,
2026_07_06_15_22_11.412,3.847,45.1,0,0.77,0,0,0,0, ,0,0,0,0,0, ,-37.8,155.7,987.1,-0.6,-0.4,-1.8,25,-38.3692,156.357,988.052,-0.580374,-0.416998,-1.80778,
2026_07_06_15_22_11.432,3.847,44.9,0,0.771,0,0,0,0, ,0,0,0,0,0, ,-38.8,155.8,987.7,-0.6,-0.4,-1.9,25,-38.365,156.32,988.013,-0.58157,-0.415962,-1.81035,
2026_07_06_15_22_11.452,3.847,45,0,0.77,0,0,0,0, ,0,0,0,0,0, ,-38.8,157.3,987.7,-0.6,-0.4,-1.8,25,-38.3915,156.334,987.994,-0.582693,-0.414989,-1.81277,
2026_07_06_15_22_11.472,3.847,45,0,0.768,0,0,0,0, ,0,0,0,0,0, ,-37.8,155.1,987.7,-0.6,-0.4,-1.8,25,-38.3859,156.326,987.976,-0.583748,-0.414076,-1.81199,
2026_07_06_15_22_11.482,3.847,45,0,0.769,0,0,0,0, ,0,0,0,0,0, ,-39.1,156.6,988.1,-0.6,-0.4,-1.8,25,-38.3898,156.297,987.971,-0.584738,-0.413218,-1.81126,
2026_07_06_15_22_11.511,3.847,45,0,0.77,0,0,0,0, ,0,0,0,0,0, ,-38.2,155.3,988.4,-0.6,-0.4,-1.9,25,-38.4057,156.276,987.988,-0.585668,-0.412413,-1.81362,
2026_07_06_15_22_11.530,3.847,45.1,0,0.771,0,0,0,0, ,0,0,0,0,0, ,-38.5,154.9,987.5,-0.6,-0.5,-1.8,25,-38.4023,156.204,987.986,-0.586541,-0.414703,-1.81584,
2026_07_06_15_22_11.550,3.847,44.9,0,0.77,0,0,0,0, ,0,0,0,0,0, ,-38.8,156.2,987.9,-0.6,-0.4,-1.8,25,-38.4174,156.164,987.968,-0.587362,-0.416854,-1.81487,
2026_07_06_15_22_11.571,3.847,44.9,0,0.77,0,0,0,0, ,0,0,0,0,0, ,-38.4,155.5,988.5,-0.5,-0.4,-1.8,25,-38.4285,156.145,987.983,-0.585085,-0.415827,-1.81396,
2026_07_06_15_22_11.583,3.847,44.9,0,0.769,0,0,0,0, ,0,0,0,0,0, ,-39.1,155.7,987.7,-0.6,-0.4,-1.8,25,-38.4481,156.112,987.99,-0.582947,-0.414863,-1.81311,
2026_07_06_15_22_11.596,3.847,45,0,0.769,0,0,0,0, ,0,0,0,0,0, ,-38.5,156.2,988.7,-0.6,-0.4,-1.7,25,-38.4695,156.102,988.002,-0.583986,-0.413957,-1.80927,
2026_07_06_15_22_11.631,3.847,45,0,0.77,0,0,0,0, ,0,0,0,0,0, ,-38.2,155.5,987.1,-0.6,-0.5,-1.8,25,-38.4623,156.087,987.996,-0.584962,-0.416153,-1.80566,
2026_07_06_15_22_11.649,3.847,44.9,0,0.771,0,0,0,0, ,0,0,0,0,0, ,-37.5,156.1,988.6,-0.5,-0.5,-1.8,25,-38.425,156.069,987.987,-0.582831,-0.421263,-1.80531,
2026_07_06_15_22_11.669,3.847,44.9,0,0.769,0,0,0,0, ,0,0,0,0,0, ,-39.5,155.3,989.2,-0.6,-0.4,-1.8,25,-38.4295,156.047,988.043,-0.580831,-0.423014,-1.80499,
2026_07_06_15_22_11.690,3.847,44.9,0,0.77,0,0,0,0, ,0,0,0,0,0, ,-37.5,155.8,988,-0.6,-0.4,-1.8,25,-38.4338,156.016,988.077,-0.581999,-0.421611,-1.80468,
2026_07_06_15_22_11.708,3.847,44.9,0,0.769,0,0,0,0, ,0,0,0,0,0, ,-39,156.1,988.5,-0.5,-0.5,-1.9,25,-38.4226,156.012,988.087,-0.580049,-0.423341,-1.80745,
2026_07_06_15_22_11.729,3.847,44.9,0,0.769,0,0,0,0, ,0,0,0,0,0, ,-37.5,155.6,989,-0.6,-0.5,-1.8,25,-38.4121,156.002,988.128,-0.578218,-0.428013,-1.81004,
2026_07_06_15_22_11.749,3.847,44.9,0,0.77,0,0,0,0, ,0,0,0,0,0, ,-37.9,155.7,989,-0.5,-0.4,-1.9,25,-38.3687,155.981,988.181,-0.576498,-0.429353,-1.81247,
2026_07_06_15_22_11.769,3.847,44.9,0,0.77,0,0,0,0, ,0,0,0,0,0, ,-38.4,154.5,988.2,-0.6,-0.4,-1.8,25,-38.3554,155.927,988.206,-0.574884,-0.427564,-1.81476,
2026_07_06_15_22_11.789,3.847,44.9,0,0.77,0,0,0,0, ,0,0,0,0,0, ,-37.8,156.2,988,-0.5,-0.4,-1.8,25,-38.3398,155.892,988.2,-0.573367,-0.425884,-1.81386,
2026_07_06_15_22_11.808,3.847,44.9,0,0.77,0,0,0,0, ,0,0,0,0,0, ,-38,156,987.5,-0.6,-0.4,-1.8,25,-38.313,155.905,988.173,-0.571943,-0.424307,-1.81302,
2026_07_06_15_22_11.828,3.847,44.8,0,0.77,0,0,0,0, ,0,0,0,0,0, ,-37.9,155.7,989,-0.7,-0.5,-1.8,25,-38.2909,155.901,988.177,-0.5767,-0.425873,-1.81222,
2026_07_06_15_22_11.848,3.847,44.8,0,0.769,0,0,0,0, ,0,0,0,0,0, ,-37.5,156.4,987.9,-0.6,-0.4,-1.8,25,-38.2549,155.91,988.194,-0.581167,-0.427343,-1.81148,
2026_07_06_15_22_11.868,3.847,44.9,0,0.768,0,0,0,0, ,0,0,0,0,0, ,-38.8,156.2,988.5,-0.6,-0.4,-1.8,25,-38.2485,155.934,988.194,-0.582314,-0.425677,-1.81078,
2026_07_06_15_22_11.888,3.847,44.9,0,0.771,0,0,0,0, ,0,0,0,0,0, ,-38.4,155.2,989,-0.7,-0.5,-1.8,25,-38.2699,155.92,988.228,-0.586439,-0.427159,-1.81012,
2026_07_06_15_22_11.909,3.847,44.8,0,0.77,0,0,0,0, ,0,0,0,0,0, ,-38,155.2,988,-0.6,-0.5,-1.8,25,-38.2657,155.876,988.245,-0.590312,-0.431598,-1.80951,
2026_07_06_15_22_11.913,3.847,44.9,0,0.769,0,0,0,0, ,0,0,0,0,0, ,-38.6,156.4,987.5,-0.6,-0.4,-1.9,25,-38.2677,155.871,988.215,-0.590902,-0.432719,-1.81197,
2026_07_06_15_22_11.947,3.847,44.8,0,0.769,0,0,0,0, ,0,0,0,0,0, ,-38.2,156.4,987.9,-0.6,-0.4,-1.8,25,-38.2758,155.904,988.183,-0.591457,-0.430725,-1.81429,
2026_07_06_15_22_11.967,3.847,44.8,0,0.769,0,0,0,0, ,0,0,0,0,0, ,-38.9,155.1,986.9,-0.5,-0.4,-1.8,25,-38.2925,155.894,988.135,-0.588931,-0.428853,-1.81342,
2026_07_06_15_22_11.984,3.847,44.8,0,0.769,0,0,0,0, ,0,0,0,0,0, ,-37.7,155.3,987.6,-0.5,-0.4,-1.8,25,-38.293,155.852,988.082,-0.583511,-0.427095,-1.8126,
2026_07_06_15_22_12.006,3.847,44.7,0,0.769,0,0,0,0, ,0,0,0,0,0, ,-38.3,155.6,988.1,-0.6,-0.4,-1.8,25,-38.2751,155.827,988.067,-0.581469,-0.425444,-1.81183,
2026_07_06_15_22_12.017,3.847,44.7,0,0.77,0,0,0,0, ,0,0,0,0,0, ,-37.2,156.2,987.9,-0.6,-0.4,-1.8,25,-38.2431,155.832,988.063,-0.582598,-0.423893,-1.81111,
2026_07_06_15_22_12.046,3.847,44.8,0,0.769,0,0,0,0, ,0,0,0,0,0, ,-37.5,156.3,988.1,-0.7,-0.4,-1.8,25,-38.1887,155.857,988.059,-0.586706,-0.422437,-1.81044,
2026_07_06_15_22_12.065,3.847,44.8,0,0.77,0,0,0,0, ,0,0,0,0,0, ,-38.9,154.9,988.7,-0.7,-0.4,-1.8,25,-38.1894,155.842,988.08,-0.59361,-0.42107,-1.8098,
2026_07_06_15_22_12.086,3.847,44.7,0,0.769,0,0,0,0, ,0,0,0,0,0, ,-37.8,156.1,986.3,-0.5,-0.4,-1.8,25,-38.1992,155.821,988.045,-0.593999,-0.419786,-1.8092,
2026_07_06_15_22_12.106,3.847,44.8,0,0.769,0,0,0,0, ,0,0,0,0,0, ,-37.8,156.6,988.8,-0.6,-0.4,-1.8,25,-38.1748,155.853,988.015,-0.591318,-0.41858,-1.80864,
2026_07_06_15_22_12.125,3.847,44.8,0,0.769,0,0,0,0, ,0,0,0,0,0, ,-38.4,157.4,987.4,-0.6,-0.4,-1.7,25,-38.1703,155.923,988.02,-0.591847,-0.417448,-1.80507,
2026_07_06_15_22_12.145,3.847,44.8,0,0.77,0,0,0,0, ,0,0,0,0,0, ,-38.5,155.3,989.1,-0.6,-0.5,-1.8,25,-38.1873,155.949,988.034,-0.592344,-0.419432,-1.80171,
2026_07_06_15_22_12.165,3.847,44.7,0,0.769,0,0,0,0, ,0,0,0,0,0, ,-38.3,155.7,987.6,-0.6,-0.4,-1.8,25,-38.2003,155.922,988.053,-0.59281,-0.421294,-1.80161,
2026_07_06_15_22_12.184,3.847,44.6,0,0.768,0,0,0,0, ,0,0,0,0,0, ,-39,156.8,987.4,-0.6,-0.4,-1.8,25,-38.2277,155.942,988.019,-0.593248,-0.419997,-1.80151,
2026_07_06_15_22_12.205,3.847,44.7,0,0.768,0,0,0,0, ,0,0,0,0,0, ,-38.2,156,988.4,-0.7,-0.4,-1.8,25,-38.2504,155.97,988.012,-0.596707,-0.418778,-1.80142,
2026_07_06_15_22_12.226,3.847,44.6,0,0.77,0,0,0,0, ,0,0,0,0,0, ,-38.5,156.1,987.4,-0.6,-0.4,-1.8,25,-38.2565,155.974,988.005,-0.599954,-0.417634,-1.80133,
2026_07_06_15_22_12.244,3.847,44.7,0,0.769,0,0,0,0, ,0,0,0,0,0, ,-38.2,156,988.1,-0.5,-0.4,-1.8,25,-38.2622,155.979,987.99,-0.59691,-0.416559,-1.80125,
2026_07_06_15_22_12.263,3.847,44.7,0,0.771,0,0,0,0, ,0,0,0,0,0, ,-38.2,156.9,988.2,-0.5,-0.4,-1.7,25,-38.2584,156.008,988,-0.591005,-0.41555,-1.79813,
2026_07_06_15_22_12.284,3.847,44.7,0,0.77,0,0,0,0, ,0,0,0,0,0, ,-38.4,155.7,988.5,-0.5,-0.4,-1.8,25,-38.2609,156.026,988.021,-0.585459,-0.414603,-1.79519,
2026_07_06_15_22_12.301,3.847,44.6,0,0.77,0,0,0,0, ,0,0,0,0,0, ,-38.2,157.4,987.6,-0.5,-0.4,-1.8,25,-38.2633,156.058,988.023,-0.580251,-0.413713,-1.79549,
2026_07_06_15_22_12.318,3.847,44.6,0,0.769,0,0,0,0, ,0,0,0,0,0, ,-39.4,156,986.9,-0.5,-0.5,-1.7,25,-38.296,156.097,987.976,-0.575361,-0.415924,-1.79272,
2026_07_06_15_22_12.334,3.847,44.6,0,0.769,0,0,0,0, ,0,0,0,0,0, ,-37.7,156.7,986.4,-0.6,-0.5,-1.9,25,-38.3115,156.112,987.895,-0.573816,-0.421047,-1.79316,
2026_07_06_15_22_12.363,3.847,44.6,0,0.77,0,0,0,0, ,0,0,0,0,0, ,-37.2,155,989.2,-0.7,-0.5,-1.8,25,-38.259,156.096,987.889,-0.578458,-0.425859,-1.79662,
2026_07_06_15_22_12.382,3.847,44.6,0,0.77,0,0,0,0, ,0,0,0,0,0, ,-37.5,156.1,988,-0.6,-0.4,-1.7,25,-38.2036,156.063,987.932,-0.582818,-0.42733,-1.79378,
2026_07_06_15_22_12.403,3.847,44.6,0,0.768,0,0,0,0, ,0,0,0,0,0, ,-38.4,156.3,988.8,-0.6,-0.5,-1.8,25,-38.1881,156.071,987.961,-0.583865,-0.428711,-1.79111,
2026_07_06_15_22_12.422,3.847,44.6,0,0.77,0,0,0,0, ,0,0,0,0,0, ,-38.9,156.7,988.5,-0.6,-0.4,-1.8,25,-38.2163,156.097,988.003,-0.584848,-0.430008,-1.79166,
2026_07_06_15_22_12.443,3.847,44.7,0,0.769,0,0,0,0, ,0,0,0,0,0, ,-38.2,156.4,988,-0.6,-0.5,-1.8,25,-38.2366,156.125,988.018,-0.585771,-0.431227,-1.79216,
2026_07_06_15_22_12.461,3.847,44.6,0,0.768,0,0,0,0, ,0,0,0,0,0, ,-38,155,986.8,-0.6,-0.5,-1.8,25,-38.2283,156.099,987.98,-0.586638,-0.435418,-1.79264,
2026_07_06_15_22_12.482,3.847,44.6,0,0.769,0,0,0,0, ,0,0,0,0,0, ,-38.5,157.3,986.5,-0.6,-0.4,-1.8,25,-38.2296,156.102,987.899,-0.587453,-0.436306,-1.79309,
2026_07_06_15_22_12.502,3.847,44.5,0,0.769,0,0,0,0, ,0,0,0,0,0, ,-39.3,157.5,988.1,-0.6,-0.4,-1.9,25,-38.2705,156.181,987.863,-0.588217,-0.434094,-1.79656,
2026_07_06_15_22_12.521,3.847,44.5,0,0.77,0,0,0,0, ,0,0,0,0,0, ,-38.8,155.2,986.3,-0.6,-0.5,-1.8,25,-38.318,156.192,987.822,-0.588935,-0.435063,-1.79981,
2026_07_06_15_22_12.541,3.847,44.6,0,0.768,0,0,0,0, ,0,0,0,0,0, ,-38,156.6,986.9,-0.6,-0.4,-1.8,25,-38.323,156.174,987.748,-0.58961,-0.435973,-1.79983,
2026_07_06_15_22_12.561,3.847,44.5,0,0.771,0,0,0,0, ,0,0,0,0,0, ,-38.9,157.1,986.5,-0.6,-0.4,-1.8,25,-38.3307,156.215,987.684,-0.590243,-0.433781,-1.79984,
2026_07_06_15_22_12.582,3.847,44.6,0,0.769,0,0,0,0, ,0,0,0,0,0, ,-37.7,155.3,988.5,-0.5,-0.4,-1.7,25,-38.3288,156.214,987.673,-0.58779,-0.431723,-1.7968,
2026_07_06_15_22_12.598,3.847,44.5,0,0.769,0,0,0,0, ,0,0,0,0,0, ,-38.3,155.1,987.6,-0.6,-0.3,-1.8,25,-38.3088,156.152,987.696,-0.585488,-0.426743,-1.79395,
2026_07_06_15_22_12.621,3.847,44.6,0,0.769,0,0,0,0, ,0,0,0,0,0, ,-39,155.2,989,-0.5,-0.4,-1.8,25,-38.3296,156.091,987.733,-0.583325,-0.422066,-1.79432,
2026_07_06_15_22_12.641,3.847,44.5,0,0.77,0,0,0,0, ,0,0,0,0,0, ,-38.2,155.7,989,-0.5,-0.5,-1.8,25,-38.3461,156.052,987.81,-0.578247,-0.423768,-1.79466,
2026_07_06_15_22_12.660,3.847,44.5,0,0.769,0,0,0,0, ,0,0,0,0,0, ,-37.9,156.2,987.4,-0.6,-0.5,-1.8,25,-38.328,156.046,987.834,-0.576526,-0.428414,-1.79499,
2026_07_06_15_22_12.681,3.847,44.5,0,0.768,0,0,0,0, ,0,0,0,0,0, ,-37.7,156.4,987.5,-0.5,-0.4,-1.8,25,-38.2958,156.061,987.81,-0.57491,-0.429729,-1.79529,
2026_07_06_15_22_12.700,3.847,44.5,0,0.769,0,0,0,0, ,0,0,0,0,0, ,-39,158.4,987.1,-0.6,-0.4,-1.8,25,-38.2991,156.143,987.779,-0.573392,-0.427918,-1.79558,
2026_07_06_15_22_12.719,3.847,44.4,0,0.768,0,0,0,0, ,0,0,0,0,0, ,-39,156.4,987.6,-0.7,-0.5,-1.8,25,-38.3419,156.22,987.753,-0.57806,-0.429263,-1.79585,
2026_07_06_15_22_12.739,3.847,44.5,0,0.767,0,0,0,0, ,0,0,0,0,0, ,-39.1,155.8,988.6,-0.5,-0.4,-1.8,25,-38.385,156.212,987.774,-0.579397,-0.430527,-1.7961,
2026_07_06_15_22_12.759,3.847,44.4,0,0.769,0,0,0,0, ,0,0,0,0,0, ,-38.8,157.5,987.3,-0.5,-0.3,-1.7,25,-38.4194,156.239,987.785,-0.574559,-0.42562,-1.79329,
2026_07_06_15_22_12.780,3.847,44.4,0,0.769,0,0,0,0, ,0,0,0,0,0, ,-38.2,156.8,988,-0.6,-0.4,-1.8,25,-38.4243,156.294,987.777,-0.573062,-0.421012,-1.79065,
2026_07_06_15_22_12.799,3.847,44.5,0,0.769,0,0,0,0, ,0,0,0,0,0, ,-38.4,154.5,986.8,-0.7,-0.4,-1.8,25,-38.4168,156.255,987.754,-0.577751,-0.419731,-1.79122,
2026_07_06_15_22_12.814,3.847,44.4,0,0.768,0,0,0,0, ,0,0,0,0,0, ,-38,156.1,987,-0.5,-0.5,-1.8,25,-38.4036,156.197,987.702,-0.579106,-0.421576,-1.79176,
2026_07_06_15_22_12.829,3.847,44.5,0,0.769,0,0,0,0, ,0,0,0,0,0, ,-38.8,155.8,986.4,-0.5,-0.5,-1.8,25,-38.4033,156.182,987.641,-0.574286,-0.426355,-1.79226,
2026_07_06_15_22_12.847,3.847,44.4,0,0.769,0,0,0,0, ,0,0,0,0,0, ,-38.9,156.8,988.1,-0.6,-0.4,-1.8,25,-38.4306,156.189,987.617,-0.572806,-0.427796,-1.79273,
2026_07_06_15_22_12.877,3.847,44.4,0,0.77,0,0,0,0, ,0,0,0,0,0, ,-38.6,155.8,988.4,-0.6,-0.5,-1.8,25,-38.45,156.196,987.655,-0.574463,-0.429149,-1.79318,
2026_07_06_15_22_12.893,3.847,44.3,0,0.768,0,0,0,0, ,0,0,0,0,0, ,-39,155,988.7,-0.5,-0.4,-1.8,25,-38.4714,156.147,987.71,-0.572972,-0.430419,-1.79359,
2026_07_06_15_22_12.909,3.847,44.4,0,0.769,0,0,0,0, ,0,0,0,0,0, ,-38.2,155.7,989.5,-0.6,-0.3,-1.8,25,-38.4792,156.099,987.795,-0.571572,-0.425519,-1.79398,
2026_07_06_15_22_12.925,3.847,44.4,0,0.77,0,0,0,0, ,0,0,0,0,0, ,-38.5,155.5,987.4,-0.7,-0.4,-1.9,25,-38.4713,156.068,987.835,-0.576352,-0.420917,-1.7974,
2026_07_06_15_22_12.956,3.847,44.4,0,0.769,0,0,0,0, ,0,0,0,0,0, ,-38.9,156.6,988.7,-0.6,-0.4,-1.8,25,-38.4853,156.067,987.848,-0.58084,-0.419642,-1.8006,
2026_07_06_15_22_12.977,3.847,44.4,0,0.769,0,0,0,0, ,0,0,0,0,0, ,-38.5,155.1,986.9,-0.7,-0.4,-1.8,25,-38.4983,156.054,987.845,-0.585054,-0.418445,-1.80056,
2026_07_06_15_22_12.997,3.847,44.4,0,0.768,0,0,0,0, ,0,0,0,0,0, ,-38.3,156.8,987.7,-0.6,-0.5,-1.8,25,-38.4923,156.048,987.812,-0.589012,-0.420368,-1.80053,
2026_07_06_15_22_13.016,3.847,44.4,0,0.768,0,0,0,0, ,0,0,0,0,0, ,-38.6,156,987.3,-0.7,-0.4,-1.7,25,-38.4898,156.069,987.793,-0.592728,-0.422174,-1.79745,
2026_07_06_15_22_13.037,3.847,44.4,0,0.77,0,0,0,0, ,0,0,0,0,0, ,-38,156.1,987.7,-0.7,-0.4,-1.8,25,-38.4782,156.068,987.775,-0.599265,-0.420823,-1.79456,
2026_07_06_15_22_13.056,3.847,44.3,0,0.769,0,0,0,0, ,0,0,0,0,0, ,-38.8,155.1,989,-0.5,-0.4,-1.8,25,-38.4734,156.039,987.81,-0.59931,-0.419554,-1.79489,
2026_07_06_15_22_13.077,3.847,44.3,0,0.769,0,0,0,0, ,0,0,0,0,0, ,-39.1,156.9,988.4,-0.6,-0.4,-1.9,25,-38.5025,156.037,987.864,-0.596305,-0.418362,-1.79825,
2026_07_06_15_22_13.096,3.847,44.3,0,0.767,0,0,0,0, ,0,0,0,0,0, ,-40.2,157.4,988.1,-0.7,-0.4,-1.8,25,-38.5724,156.105,987.888,-0.599577,-0.417243,-1.8014,
2026_07_06_15_22_13.115,3.847,44.3,0,0.77,0,0,0,0, ,0,0,0,0,0, ,-37.7,154.9,986.8,-0.5,-0.4,-1.8,25,-38.5954,156.108,987.861,-0.599603,-0.416192,-1.80132,
2026_07_06_15_22_13.136,3.847,44.3,0,0.767,0,0,0,0, ,0,0,0,0,0, ,-37.8,154.4,988.5,-0.5,-0.4,-1.7,25,-38.5439,156.019,987.848,-0.593533,-0.415206,-1.79819,
2026_07_06_15_22_13.148,3.847,44.2,0,0.768,0,0,0,0, ,0,0,0,0,0, ,-38.9,155.6,987.4,-0.5,-0.5,-1.8,25,-38.5321,155.957,987.854,-0.587834,-0.417326,-1.79525,
2026_07_06_15_22_13.176,3.847,44.3,0,0.769,0,0,0,0, ,0,0,0,0,0, ,-38,154.6,988.2,-0.6,-0.4,-1.8,25,-38.5271,155.905,987.851,-0.585528,-0.419317,-1.79554,
2026_07_06_15_22_13.189,3.847,44.2,0,0.768,0,0,0,0, ,0,0,0,0,0, ,-37.4,156.2,987.6,-0.5,-0.4,-1.8,25,-38.4767,155.874,987.854,-0.583363,-0.41814,-1.79581,
2026_07_06_15_22_13.212,3.847,44.2,0,0.768,0,0,0,0, ,0,0,0,0,0, ,-38.2,156.1,988.5,-0.5,-0.5,-1.8,25,-38.4354,155.891,987.866,-0.578283,-0.420081,-1.79607,
2026_07_06_15_22_13.235,3.847,44.2,0,0.769,0,0,0,0, ,0,0,0,0,0, ,-38.2,155,988.8,-0.6,-0.4,-1.8,25,-38.4211,155.87,987.914,-0.57656,-0.421905,-1.79631,
2026_07_06_15_22_13.247,3.847,44.2,0,0.769,0,0,0,0, ,0,0,0,0,0, ,-38.9,155.7,987.6,-0.6,-0.4,-1.8,25,-38.429,155.838,987.931,-0.577988,-0.42057,-1.79653,
2026_07_06_15_22_13.274,3.847,44.3,0,0.769,0,0,0,0, ,0,0,0,0,0, ,-38.3,157.2,988,-0.5,-0.4,-1.8,25,-38.4394,155.875,987.923,-0.576283,-0.419316,-1.79675,
2026_07_06_15_22_13.295,3.847,44.3,0,0.769,0,0,0,0, ,0,0,0,0,0, ,-38.6,156.1,988,-0.5,-0.4,-1.8,25,-38.44,155.923,987.928,-0.571634,-0.418139,-1.79694,
2026_07_06_15_22_13.315,3.847,44.3,0,0.77,0,0,0,0, ,0,0,0,0,0, ,-38.6,156.9,987,-0.6,-0.4,-1.8,25,-38.4498,155.958,987.902,-0.570316,-0.417034,-1.79713,
2026_07_06_15_22_13.333,3.847,44.2,0,0.77,0,0,0,0, ,0,0,0,0,0, ,-37.7,155.7,988,-0.6,-0.4,-1.8,25,-38.4315,155.979,987.877,-0.572125,-0.415996,-1.7973,
2026_07_06_15_22_13.347,3.847,44.3,0,0.768,0,0,0,0, ,0,0,0,0,0, ,-38.6,156.2,987.9,-0.5,-0.5,-1.9,25,-38.4144,155.977,987.882,-0.570776,-0.418068,-1.80052,
2026_07_06_15_22_13.374,3.847,44.2,0,0.769,0,0,0,0, ,0,0,0,0,0, ,-38.2,155.5,987.3,-0.7,-0.4,-1.8,25,-38.4135,155.969,987.865,-0.572557,-0.420014,-1.80353,
2026_07_06_15_22_13.393,3.847,44.1,0,0.769,0,0,0,0, ,0,0,0,0,0, ,-38.4,155.2,987.7,-0.6,-0.5,-1.9,25,-38.4066,155.931,987.842,-0.577276,-0.421841,-1.80636,
2026_07_06_15_22_13.413,3.847,44.2,0,0.769,0,0,0,0, ,0,0,0,0,0, ,-37.3,157.3,988.4,-0.5,-0.3,-1.9,25,-38.3726,155.951,987.855,-0.575614,-0.42051,-1.81207,
2026_07_06_15_22_13.429,3.847,44.1,0,0.77,0,0,0,0, ,0,0,0,0,0, ,-38.2,156.8,988.4,-0.6,-0.5,-1.8,25,-38.3347,156.018,987.888,-0.574053,-0.41926,-1.81438,
2026_07_06_15_22_13.445,3.847,44.1,0,0.769,0,0,0,0, ,0,0,0,0,0, ,-38.9,155.3,988.1,-0.6,-0.4,-1.8,25,-38.3478,156.02,987.91,-0.575635,-0.421134,-1.8135,
2026_07_06_15_22_13.467,3.847,44.1,0,0.769,0,0,0,0, ,0,0,0,0,0, ,-38.8,155.7,988,-0.6,-0.4,-1.8,25,-38.3784,155.988,987.919,-0.577119,-0.419846,-1.81268,
2026_07_06_15_22_13.480,3.847,44.1,0,0.768,0,0,0,0, ,0,0,0,0,0, ,-38.4,156,987.3,-0.6,-0.4,-1.8,25,-38.3919,155.98,987.902,-0.578514,-0.418636,-1.81191,
2026_07_06_15_22_13.512,3.847,44.2,0,0.769,0,0,0,0, ,0,0,0,0,0, ,-39.1,155.6,988.4,-0.6,-0.4,-1.8,25,-38.4137,155.969,987.899,-0.579823,-0.417501,-1.81118,
2026_07_06_15_22_13.530,3.847,44.2,0,0.769,0,0,0,0, ,0,0,0,0,0, ,-38.4,155.7,987.9,-0.6,-0.4,-1.8,25,-38.4342,155.949,987.914,-0.581052,-0.416434,-1.8105,
2026_07_06_15_22_13.552,3.847,44.2,0,0.769,0,0,0,0, ,0,0,0,0,0, ,-38.4,156.8,987.7,-0.5,-0.4,-1.8,25,-38.4322,155.968,987.907,-0.57916,-0.415433,-1.80986,
2026_07_06_15_22_13.564,3.847,44.2,0,0.769,0,0,0,0, ,0,0,0,0,0, ,-38.2,157.5,988,-0.6,-0.4,-1.8,25,-38.4241,156.04,987.904,-0.577383,-0.414492,-1.80926,
2026_07_06_15_22_13.580,3.847,44.1,0,0.769,0,0,0,0, ,0,0,0,0,0, ,-38.4,156.1,987,-0.6,-0.5,-1.8,25,-38.4165,156.086,987.879,-0.578761,-0.416656,-1.8087,
2026_07_06_15_22_13.613,3.847,44.1,0,0.769,0,0,0,0, ,0,0,0,0,0, ,-38.8,156.2,986.4,-0.6,-0.5,-1.8,25,-38.4277,156.09,987.808,-0.580056,-0.421735,-1.80817,
2026_07_06_15_22_13.627,3.847,44.1,0,0.767,0,0,0,0, ,0,0,0,0,0, ,-39,156.3,987.6,-0.6,-0.4,-1.8,25,-38.4565,156.1,987.758,-0.581271,-0.423457,-1.80767,
2026_07_06_15_22_13.643,3.847,44.1,0,0.768,0,0,0,0, ,0,0,0,0,0, ,-38.5,156,988.8,-0.6,-0.4,-1.8,25,-38.4744,156.103,987.785,-0.582412,-0.422028,-1.8072,
2026_07_06_15_22_13.670,3.847,44.1,0,0.769,0,0,0,0, ,0,0,0,0,0, ,-38.2,156.8,988.4,-0.6,-0.4,-1.8,25,-38.4668,156.121,987.835,-0.583484,-0.420686,-1.80676,
2026_07_06_15_22_13.680,3.847,44.1,0,0.77,0,0,0,0, ,0,0,0,0,0, ,-38.6,156.3,988,-0.6,-0.4,-1.8,25,-38.4627,156.147,987.857,-0.584491,-0.419425,-1.80635,
2026_07_06_15_22_13.717,3.847,44.1,0,0.769,0,0,0,0, ,0,0,0,0,0, ,-38.8,155.7,988.6,-0.5,-0.4,-1.8,25,-38.4772,156.138,987.884,-0.582389,-0.418241,-1.80596,
2026_07_06_15_22_13.731,3.847,44,0,0.768,0,0,0,0, ,0,0,0,0,0, ,-37.7,155.1,987.5,-0.6,-0.4,-1.8,25,-38.4633,156.093,987.894,-0.580415,-0.41713,-1.8056,
2026_07_06_15_22_13.747,3.847,44,0,0.768,0,0,0,0, ,0,0,0,0,0, ,-38.5,156.1,987.7,-0.6,-0.4,-1.8,25,-38.4412,156.063,987.876,-0.581609,-0.416086,-1.80526,
2026_07_06_15_22_13.762,3.847,44.1,0,0.768,0,0,0,0, ,0,0,0,0,0, ,-39.1,155.7,987.3,-0.5,-0.4,-1.8,25,-38.4631,156.053,987.853,-0.579682,-0.415106,-1.80494,
2026_07_06_15_22_13.790,3.847,44.1,0,0.769,0,0,0,0, ,0,0,0,0,0, ,-38.6,156.1,988.6,-0.6,-0.4,-1.8,25,-38.4866,156.044,987.859,-0.577874,-0.414185,-1.80464,
2026_07_06_15_22_13.810,3.847,44,0,0.769,0,0,0,0, ,0,0,0,0,0, ,-38.5,157.4,987,-0.6,-0.4,-1.8,25,-38.4905,156.087,987.856,-0.579222,-0.413321,-1.80435,
2026_07_06_15_22_13.831,3.847,44.1,0,0.769,0,0,0,0, ,0,0,0,0,0, ,-39.4,155.5,989.1,-0.7,-0.4,-1.8,25,-38.5185,156.109,987.867,-0.583535,-0.412509,-1.80409,
2026_07_06_15_22_13.847,3.847,44.1,0,0.769,0,0,0,0, ,0,0,0,0,0, ,-38.4,154.1,986.9,-0.4,-0.5,-1.8,25,-38.5418,156.029,987.876,-0.581491,-0.414794,-1.80384,
2026_07_06_15_22_13.863,3.847,44,0,0.768,0,0,0,0, ,0,0,0,0,0, ,-38,158.2,988.1,-0.5,-0.4,-1.8,25,-38.5209,156.037,987.853,-0.573479,-0.416939,-1.80361,
2026_07_06_15_22_13.879,3.847,44,0,0.767,0,0,0,0, ,0,0,0,0,0, ,-39.9,157.3,988.1,-0.7,-0.5,-1.8,25,-38.5471,156.141,987.868,-0.575095,-0.418954,-1.80339,
2026_07_06_15_22_13.896,3.847,44.1,0,0.768,0,0,0,0, ,0,0,0,0,0, ,-38.5,155.5,988,-0.8,-0.4,-1.9,25,-38.5869,156.157,987.879,-0.585753,-0.420846,-1.80623,
2026_07_06_15_22_13.929,3.847,44,0,0.767,0,0,0,0, ,0,0,0,0,0, ,-37.9,153.5,987.9,-0.4,-0.5,-1.8,25,-38.5633,156.056,987.883,-0.586621,-0.422622,-1.80889,
2026_07_06_15_22_13.943,3.847,44,0,0.77,0,0,0,0, ,0,0,0,0,0, ,-39.1,157.2,988,-0.3,-0.4,-1.8,25,-38.5594,156.013,987.887,-0.572202,-0.42429,-1.80835,
2026_07_06_15_22_13.960,3.847,44,0,0.769,0,0,0,0, ,0,0,0,0,0, ,-38.5,157.4,988.4,-0.7,-0.4,-1.9,25,-38.5741,156.091,987.906,-0.567802,-0.42281,-1.81089,
2026_07_06_15_22_13.988,3.847,43.9,0,0.769,0,0,0,0, ,0,0,0,0,0, ,-38.8,157.1,988,-0.6,-0.4,-1.8,25,-38.5787,156.162,987.924,-0.572811,-0.42142,-1.81327,
2026_07_06_15_22_14.007,3.847,43.9,0,0.769,0,0,0,0, ,0,0,0,0,0, ,-39.5,155.3,987.6,-0.5,-0.4,-1.8,25,-38.6135,156.164,987.917,-0.571421,-0.420115,-1.81246,
2026_07_06_15_22_14.013,3.847,43.9,0,0.768,0,0,0,0, ,0,0,0,0,0, ,-38.2,155.7,987.6,-0.6,-0.4,-1.8,25,-38.6279,156.124,987.897,-0.570116,-0.418889,-1.81171,
2026_07_06_15_22_14.045,3.847,43.9,0,0.769,0,0,0,0, ,0,0,0,0,0, ,-38.4,156,987.9,-0.7,-0.4,-1.8,25,-38.608,156.107,987.888,-0.574984,-0.417738,-1.81099,
2026_07_06_15_22_14.060,3.847,43.9,0,0.768,0,0,0,0, ,0,0,0,0,0, ,-38.6,155.6,988.2,-0.5,-0.4,-1.8,25,-38.6014,156.088,987.898,-0.576508,-0.416657,-1.81032,
2026_07_06_15_22_14.088,3.847,43.9,0,0.768,0,0,0,0, ,0,0,0,0,0, ,-38.8,157.2,989.3,-0.5,-0.4,-1.8,25,-38.6074,156.107,987.95,-0.571846,-0.415642,-1.80969,
2026_07_06_15_22_14.103,3.847,43.9,0,0.768,0,0,0,0, ,0,0,0,0,0, ,-39.3,156.4,987.9,-0.6,-0.3,-1.8,25,-38.6344,156.15,987.99,-0.570515,-0.411642,-1.8091,
2026_07_06_15_22_14.113,3.847,43.9,0,0.769,0,0,0,0, ,0,0,0,0,0, ,-39,155.5,987.5,-0.6,-0.4,-1.8,25,-38.6658,156.137,987.972,-0.572312,-0.407886,-1.80855,
2026_07_06_15_22_14.147,3.847,43.9,0,0.769,0,0,0,0, ,0,0,0,0,0, ,-39.1,155.3,988.6,-0.5,-0.4,-1.8,25,-38.6892,156.092,987.977,-0.570952,-0.407405,-1.80803,
2026_07_06_15_22_14.161,3.847,43.9,0,0.768,0,0,0,0, ,0,0,0,0,0, ,-39.1,156.7,987.5,-0.6,-0.4,-1.7,25,-38.7142,156.087,987.981,-0.569675,-0.406954,-1.80449,
2026_07_06_15_22_14.194,3.847,43.9,0,0.769,0,0,0,0, ,0,0,0,0,0, ,-36.6,156.1,987.5,-0.6,-0.4,-1.8,25,-38.6616,156.106,987.952,-0.571523,-0.40653,-1.80117,
2026_07_06_15_22_14.206,3.847,43.7,0,0.769,0,0,0,0, ,0,0,0,0,0, ,-37.5,156.4,987.7,-0.6,-0.4,-1.7,25,-38.5634,156.115,987.931,-0.573258,-0.406132,-1.79805,
2026_07_06_15_22_14.213,3.847,43.7,0,0.768,0,0,0,0, ,0,0,0,0,0, ,-38.3,156.1,988.4,-0.6,-0.4,-1.8,25,-38.5229,156.123,987.938,-0.574888,-0.405759,-1.79512,
2026_07_06_15_22_14.245,3.847,43.7,0,0.767,0,0,0,0, ,0,0,0,0,0, ,-39,155.6,988.6,-0.5,-0.4,-1.8,25,-38.5307,156.106,987.972,-0.573371,-0.405408,-1.79542,
2026_07_06_15_22_14.262,3.847,43.7,0,0.768,0,0,0,0, ,0,0,0,0,0, ,-38.9,155,988,-0.6,-0.4,-1.8,25,-38.5562,156.057,987.992,-0.571947,-0.405078,-1.7957,
2026_07_06_15_22_14.278,3.847,43.7,0,0.768,0,0,0,0, ,0,0,0,0,0, ,-38.8,155.2,987.6,-0.6,-0.5,-1.8,25,-38.5741,155.999,987.98,-0.573657,-0.407816,-1.79596,
2026_07_06_15_22_14.297,3.847,43.9,0,0.769,0,0,0,0, ,0,0,0,0,0, ,-38.6,155.1,987.4,-0.6,-0.4,-1.8,25,-38.5818,155.947,987.951,-0.575262,-0.410386,-1.79621,
2026_07_06_15_22_14.325,3.847,43.7,0,0.769,0,0,0,0, ,0,0,0,0,0, ,-37.7,157.5,987.5,-0.6,-0.4,-1.8,25,-38.5555,155.969,987.921,-0.576769,-0.409753,-1.79644,
2026_07_06_15_22_14.344,3.847,43.7,0,0.768,0,0,0,0, ,0,0,0,0,0, ,-38.3,156.8,986.4,-0.7,-0.4,-1.8,25,-38.5216,156.041,987.861,-0.581232,-0.409159,-1.79666,
2026_07_06_15_22_14.357,3.847,43.7,0,0.769,0,0,0,0, ,0,0,0,0,0, ,-39.1,156.4,986.9,-0.6,-0.4,-1.8,25,-38.5325,156.075,987.788,-0.585422,-0.408601,-1.79686,
2026_07_06_15_22_14.376,3.847,43.6,0,0.768,0,0,0,0, ,0,0,0,0,0, ,-39.4,156.8,987.3,-0.6,-0.4,-1.8,25,-38.5762,156.107,987.746,-0.586311,-0.408077,-1.79705,
2026_07_06_15_22_14.397,3.847,43.7,0,0.769,0,0,0,0, ,0,0,0,0,0, ,-38.2,157.4,989,-0.6,-0.5,-1.8,25,-38.5899,156.167,987.77,-0.587145,-0.410631,-1.79723,
2026_07_06_15_22_14.427,3.847,43.7,0,0.77,0,0,0,0, ,0,0,0,0,0, ,-38.4,157.9,987.9,-0.5,-0.5,-1.8,25,-38.5722,156.258,987.812,-0.584881,-0.416077,-1.7974,
2026_07_06_15_22_14.443,3.847,43.7,0,0.768,0,0,0,0, ,0,0,0,0,0, ,-38.5,155.8,989,-0.6,-0.4,-1.8,25,-38.5648,156.294,987.851,-0.582756,-0.418144,-1.79756,
2026_07_06_15_22_14.464,3.847,43.7,0,0.769,0,0,0,0, ,0,0,0,0,0, ,-38.3,156.2,988.2,-0.6,-0.4,-1.8,25,-38.5547,156.276,987.896,-0.583807,-0.417039,-1.79771,
2026_07_06_15_22_14.483,3.847,43.6,0,0.769,0,0,0,0, ,0,0,0,0,0, ,-39,155.6,987.9,-0.6,-0.4,-1.8,25,-38.5605,156.253,987.906,-0.584793,-0.416001,-1.79785,
2026_07_06_15_22_14.504,3.847,43.7,0,0.768,0,0,0,0, ,0,0,0,0,0, ,-38.3,155.5,986.6,-0.6,-0.4,-1.8,25,-38.566,156.21,987.866,-0.58572,-0.415025,-1.79798,
2026_07_06_15_22_14.523,3.847,43.7,0,0.769,0,0,0,0, ,0,0,0,0,0, ,-39.3,155.2,988.7,-0.6,-0.4,-1.8,25,-38.5802,156.158,987.853,-0.58659,-0.41411,-1.7981,
2026_07_06_15_22_14.543,3.847,43.6,0,0.769,0,0,0,0, ,0,0,0,0,0, ,-38.8,155.6,989.1,-0.5,-0.4,-1.8,25,-38.6089,156.111,987.916,-0.584361,-0.41325,-1.79822,
2026_07_06_15_22_14.564,3.847,43.6,0,0.769,0,0,0,0, ,0,0,0,0,0, ,-39.5,155.7,988.2,-0.6,-0.4,-1.8,25,-38.6418,156.083,987.961,-0.582267,-0.412443,-1.79833,
2026_07_06_15_22_14.582,3.847,43.5,0,0.769,0,0,0,0, ,0,0,0,0,0, ,-37.4,156,989.2,-0.6,-0.5,-1.8,25,-38.6301,156.069,988.006,-0.583347,-0.414731,-1.79843,
2026_07_06_15_22_14.602,3.847,43.5,0,0.769,0,0,0,0, ,0,0,0,0,0, ,-37.4,155.2,987.9,-0.6,-0.4,-1.8,25,-38.5552,156.041,988.039,-0.584362,-0.41688,-1.79852,
2026_07_06_15_22_14.622,3.847,43.6,0,0.768,0,0,0,0, ,0,0,0,0,0, ,-38.9,155.5,987.1,-0.6,-0.4,-1.8,25,-38.5305,155.998,988.006,-0.585315,-0.415852,-1.79861,
2026_07_06_15_22_14.641,3.847,43.6,0,0.768,0,0,0,0, ,0,0,0,0,0, ,-38.4,154.9,988.7,-0.6,-0.4,-1.8,25,-38.5378,155.95,988,-0.58621,-0.414886,-1.7987,
2026_07_06_15_22_14.661,3.847,43.6,0,0.768,0,0,0,0, ,0,0,0,0,0, ,-38.4,155.8,987.3,-0.6,-0.4,-1.8,25,-38.5294,155.913,988,-0.58705,-0.413979,-1.79878,
2026_07_06_15_22_14.681,3.847,43.5,0,0.768,0,0,0,0, ,0,0,0,0,0, ,-38.5,156.7,987.4,-0.6,-0.4,-1.8,25,-38.5245,155.934,987.96,-0.587839,-0.413127,-1.79885,
2026_07_06_15_22_14.701,3.847,43.5,0,0.768,0,0,0,0, ,0,0,0,0,0, ,-40.4,156.6,989.3,-0.6,-0.4,-1.8,25,-38.5809,155.977,987.984,-0.58858,-0.412327,-1.79892,
2026_07_06_15_22_14.721,3.847,43.5,0,0.769,0,0,0,0, ,0,0,0,0,0, ,-38.2,155.3,987.9,-0.6,-0.4,-1.8,25,-38.6248,155.976,988.022,-0.589276,-0.411576,-1.79899,
2026_07_06_15_22_14.738,3.847,43.6,0,0.768,0,0,0,0, ,0,0,0,0,0, ,-37.4,156.1,988.6,-0.6,-0.4,-1.8,25,-38.5745,155.959,988.036,-0.58993,-0.41087,-1.79905,
2026_07_06_15_22_14.760,3.847,43.6,0,0.768,0,0,0,0, ,0,0,0,0,0, ,-38.4,156.9,987.5,-0.5,-0.5,-1.8,25,-38.5334,155.992,988.036,-0.587497,-0.413255,-1.79911,
2026_07_06_15_22_14.782,3.847,43.6,0,0.768,0,0,0,0, ,0,0,0,0,0, ,-37.8,157.1,987.6,-0.6,-0.5,-1.8,25,-38.507,156.053,988.007,-0.585212,-0.418541,-1.79916,
2026_07_06_15_22_14.800,3.847,43.5,0,0.768,0,0,0,0, ,0,0,0,0,0, ,-38.5,155.8,988.7,-0.6,-0.4,-1.8,25,-38.4852,156.078,988.015,-0.586113,-0.420458,-1.79921,
2026_07_06_15_22_14.819,3.847,43.5,0,0.767,0,0,0,0, ,0,0,0,0,0, ,-37.5,155.6,987.6,-0.5,-0.4,-1.8,25,-38.4557,156.055,988.024,-0.583912,-0.419211,-1.79926,
2026_07_06_15_22_14.840,3.847,43.4,0,0.769,0,0,0,0, ,0,0,0,0,0, ,-36.8,156.6,987.4,-0.5,-0.5,-1.8,25,-38.3761,156.057,987.992,-0.578799,-0.421087,-1.79931,
2026_07_06_15_22_14.859,3.847,43.5,0,0.769,0,0,0,0, ,0,0,0,0,0, ,-38.3,155.2,987.6,-0.6,-0.4,-1.8,25,-38.3258,156.048,987.962,-0.577044,-0.422849,-1.79935,
2026_07_06_15_22_14.879,3.847,43.4,0,0.769,0,0,0,0, ,0,0,0,0,0, ,-39.3,157.4,987,-0.5,-0.4,-1.8,25,-38.3547,156.063,987.921,-0.575396,-0.421457,-1.79939,
2026_07_06_15_22_14.899,3.847,43.5,0,0.769,0,0,0,0, ,0,0,0,0,0, ,-39.3,156.4,988.5,-0.6,-0.5,-1.8,25,-38.4123,156.114,987.911,-0.573848,-0.423196,-1.79942,
2026_07_06_15_22_14.919,3.847,43.5,0,0.768,0,0,0,0, ,0,0,0,0,0, ,-37.8,157.9,987.6,-0.5,-0.4,-1.8,25,-38.4207,156.177,987.919,-0.572395,-0.42483,-1.79946,
2026_07_06_15_22_14.940,3.847,43.4,0,0.768,0,0,0,0, ,0,0,0,0,0, ,-39.3,157.1,987.9,-0.7,-0.4,-1.8,25,-38.4285,156.258,987.909,-0.574077,-0.423317,-1.79949,
2026_07_06_15_22_14.958,3.847,43.5,0,0.769,0,0,0,0, ,0,0,0,0,0, ,-38.9,156.3,987.5,-0.6,-0.4,-1.8,25,-38.4695,156.285,987.896,-0.578704,-0.421896,-1.79952,
2026_07_06_15_22_14.978,3.847,43.4,0,0.769,0,0,0,0, ,0,0,0,0,0, ,-39.3,156.8,988.5,-0.6,-0.3,-1.9,25,-38.5079,156.301,987.903,-0.580002,-0.417515,-1.8026,
2026_07_06_15_22_14.998,3.847,43.4,0,0.768,0,0,0,0, ,0,0,0,0,0, ,-36.9,155.7,988.8,-0.5,-0.4,-1.8,25,-38.483,156.298,987.948,-0.578173,-0.4134,-1.80549,
2026_07_06_15_22_15.017,3.847,43.4,0,0.769,0,0,0,0, ,0,0,0,0,0, ,-39,157.3,987.7,-0.6,-0.4,-1.8,25,-38.4505,156.31,987.967,-0.576456,-0.412584,-1.80515,
2026_07_06_15_22_15.031,3.847,43.3,0,0.77,0,0,0,0, ,0,0,0,0,0, ,-37.9,156,987.5,-0.6,-0.5,-1.7,25,-38.4505,156.331,987.944,-0.577891,-0.414864,-1.80179,
2026_07_06_15_22_15.047,3.847,43.4,0,0.77,0,0,0,0, ,0,0,0,0,0, ,-38.8,156,988.7,-0.5,-0.4,-1.8,25,-38.4444,156.311,987.954,-0.576192,-0.417005,-1.79864,
2026_07_06_15_22_15.064,3.847,43.3,0,0.769,0,0,0,0, ,0,0,0,0,0, ,-38.4,156.3,988.5,-0.6,-0.4,-1.9,25,-38.4539,156.301,987.993,-0.574596,-0.415969,-1.80177,
2026_07_06_15_22_15.096,3.847,43.4,0,0.769,0,0,0,0, ,0,0,0,0,0, ,-38.3,155.6,988.2,-0.6,-0.4,-1.8,25,-38.4475,156.28,988.015,-0.576144,-0.414996,-1.80471,
2026_07_06_15_22_15.114,3.847,43.4,0,0.768,0,0,0,0, ,0,0,0,0,0, ,-39.5,156,988.6,-0.6,-0.4,-1.8,25,-38.4751,156.25,988.038,-0.577597,-0.414082,-1.80442,
2026_07_06_15_22_15.132,3.847,43.3,0,0.767,0,0,0,0, ,0,0,0,0,0, ,-38.5,157.9,987.7,-0.6,-0.5,-1.8,25,-38.5071,156.293,988.045,-0.578963,-0.416271,-1.80415,
2026_07_06_15_22_15.147,3.847,43.5,0,0.77,0,0,0,0, ,0,0,0,0,0, ,-37.9,156.7,986.8,-0.6,-0.4,-1.8,25,-38.4884,156.354,987.997,-0.580244,-0.418326,-1.8039,
2026_07_06_15_22_15.175,3.847,43.4,0,0.768,0,0,0,0, ,0,0,0,0,0, ,-38.3,156.4,987.5,-0.5,-0.4,-1.8,25,-38.4647,156.366,987.945,-0.578401,-0.417209,-1.80366,
2026_07_06_15_22_15.198,3.847,43.3,0,0.768,0,0,0,0, ,0,0,0,0,0, ,-38.6,155,988.2,-0.5,-0.4,-1.7,25,-38.4638,156.326,987.939,-0.573624,-0.416161,-1.80039,
2026_07_06_15_22_15.214,3.847,43.4,0,0.768,0,0,0,0, ,0,0,0,0,0, ,-38.6,156.1,987.5,-0.5,-0.5,-1.8,25,-38.4721,156.278,987.934,-0.569137,-0.418223,-1.79732,
2026_07_06_15_22_15.231,3.847,43.3,0,0.77,0,0,0,0, ,0,0,0,0,0, ,-38.5,156.3,987.3,-0.6,-0.4,-1.8,25,-38.4769,156.274,987.901,-0.567971,-0.420159,-1.79748,
2026_07_06_15_22_15.248,3.847,43.4,0,0.77,0,0,0,0, ,0,0,0,0,0, ,-38.3,157.3,987.4,-0.6,-0.4,-1.8,25,-38.4722,156.306,987.868,-0.569923,-0.418931,-1.79764,
2026_07_06_15_22_15.265,3.847,43.3,0,0.768,0,0,0,0, ,0,0,0,0,0, ,-38.8,156.1,986.9,-0.5,-0.4,-1.9,25,-38.4769,156.33,987.824,-0.568709,-0.417777,-1.80083,
2026_07_06_15_22_15.296,3.847,43.3,0,0.768,0,0,0,0, ,0,0,0,0,0, ,-39.9,155.3,987.3,-0.6,-0.3,-1.8,25,-38.5301,156.291,987.78,-0.567569,-0.413647,-1.80382,
2026_07_06_15_22_15.314,3.847,43.3,0,0.768,0,0,0,0, ,0,0,0,0,0, ,-39,156.4,989.2,-0.5,-0.4,-1.8,25,-38.5862,156.264,987.809,-0.566498,-0.409768,-1.80359,
2026_07_06_15_22_15.335,3.847,43.2,0,0.77,0,0,0,0, ,0,0,0,0,0, ,-38.4,156,987.4,-0.6,-0.4,-1.8,25,-38.5931,156.261,987.838,-0.565493,-0.409173,-1.80337,
2026_07_06_15_22_15.351,3.847,43.2,0,0.769,0,0,0,0, ,0,0,0,0,0, ,-37.5,155.6,988.1,-0.6,-0.4,-1.8,25,-38.5539,156.232,987.833,-0.567596,-0.408614,-1.80317,
2026_07_06_15_22_15.382,3.847,43.3,0,0.768,0,0,0,0, ,0,0,0,0,0, ,-38,155,987.4,-0.5,-0.4,-1.8,25,-38.5049,156.176,987.828,-0.566523,-0.408089,-1.80297,
2026_07_06_15_22_15.382,3.847,43.3,0,0.767,0,0,0,0, ,0,0,0,0,0, ,-38.8,156.6,987.3,-0.6,-0.4,-1.9,25,-38.4985,156.153,987.799,-0.565517,-0.407596,-1.80584,
2026_07_06_15_22_15.416,3.847,43.3,0,0.768,0,0,0,0, ,0,0,0,0,0, ,-38,156.9,989.5,-0.6,-0.4,-1.8,25,-38.4925,156.189,987.836,-0.567618,-0.407133,-1.80853,
2026_07_06_15_22_15.433,3.847,43.3,0,0.767,0,0,0,0, ,0,0,0,0,0, ,-38.6,156,986.6,-0.5,-0.3,-1.8,25,-38.4808,156.205,987.849,-0.566544,-0.403652,-1.80801,
2026_07_06_15_22_15.455,3.847,43.2,0,0.77,0,0,0,0, ,0,0,0,0,0, ,-37.9,156.2,987.9,-0.6,-0.4,-1.8,25,-38.4667,156.199,987.812,-0.565536,-0.400382,-1.80752,
2026_07_06_15_22_15.466,3.847,43.3,0,0.768,0,0,0,0, ,0,0,0,0,0, ,-37.8,156.2,989.2,-0.6,-0.4,-1.9,25,-38.4292,156.199,987.857,-0.567636,-0.400359,-1.81011,
2026_07_06_15_22_15.482,3.847,43.3,0,0.768,0,0,0,0, ,0,0,0,0,0, ,-37.5,156.6,988.1,-0.6,-0.4,-1.8,25,-38.3817,156.211,987.905,-0.569608,-0.400337,-1.81254,
2026_07_06_15_22_15.499,3.847,43.3,0,0.767,0,0,0,0, ,0,0,0,0,0, ,-38.4,156.8,988.2,-0.5,-0.4,-1.8,25,-38.3554,156.241,987.92,-0.568414,-0.400317,-1.81178,
2026_07_06_15_22_15.532,3.847,43.2,0,0.768,0,0,0,0, ,0,0,0,0,0, ,-37.7,155.7,988.6,-0.5,-0.4,-1.8,25,-38.3368,156.241,987.95,-0.564245,-0.400297,-1.81106,
2026_07_06_15_22_15.549,3.847,43.2,0,0.77,0,0,0,0, ,0,0,0,0,0, ,-38.9,156.4,987.9,-0.6,-0.5,-1.9,25,-38.3345,156.23,987.968,-0.563377,-0.403326,-1.81343,
2026_07_06_15_22_15.571,3.847,43.3,0,0.768,0,0,0,0, ,0,0,0,0,0, ,-38.6,156.2,989,-0.6,-0.3,-1.8,25,-38.3598,156.234,987.997,-0.565608,-0.403123,-1.81566,
2026_07_06_15_22_15.582,3.847,43.3,0,0.767,0,0,0,0, ,0,0,0,0,0, ,-39.1,156.4,988,-0.6,-0.4,-1.8,25,-38.3897,156.238,988.028,-0.567704,-0.399886,-1.81471,
2026_07_06_15_22_15.610,3.847,43.2,0,0.767,0,0,0,0, ,0,0,0,0,0, ,-38.9,156.7,987.7,-0.6,-0.4,-1.8,25,-38.4269,156.257,988.017,-0.569672,-0.399893,-1.81381,
2026_07_06_15_22_15.632,3.847,43.2,0,0.769,0,0,0,0, ,0,0,0,0,0, ,-39,155.6,989.7,-0.6,-0.5,-1.8,25,-38.4588,156.25,988.059,-0.57152,-0.402947,-1.81297,
2026_07_06_15_22_15.649,3.847,43.2,0,0.77,0,0,0,0, ,0,0,0,0,0, ,-37.9,156,987.6,-0.7,-0.4,-1.8,25,-38.4582,156.223,988.095,-0.576303,-0.405814,-1.81218,
2026_07_06_15_22_15.666,3.847,43.2,0,0.767,0,0,0,0, ,0,0,0,0,0, ,-37.7,156.8,987.1,-0.5,-0.5,-1.8,25,-38.4181,156.234,988.049,-0.577747,-0.408506,-1.81144,
2026_07_06_15_22_15.683,3.847,43.1,0,0.77,0,0,0,0, ,0,0,0,0,0, ,-38.9,155.8,989,-0.5,-0.5,-1.7,25,-38.4109,156.238,988.049,-0.573009,-0.414082,-1.80769,
2026_07_06_15_22_15.700,3.847,43.2,0,0.768,0,0,0,0, ,0,0,0,0,0, ,-38.4,156.4,986.9,-0.6,-0.4,-1.8,25,-38.4255,156.229,988.043,-0.571607,-0.416271,-1.80418,
2026_07_06_15_22_15.731,3.847,43.2,0,0.77,0,0,0,0, ,0,0,0,0,0, ,-37.5,156.1,986.8,-0.5,-0.5,-1.8,25,-38.3965,156.231,987.971,-0.57029,-0.418326,-1.80392,
2026_07_06_15_22_15.749,3.847,43.3,0,0.768,0,0,0,0, ,0,0,0,0,0, ,-37.5,156.6,987.9,-0.6,-0.4,-1.8,25,-38.3419,156.238,987.933,-0.569054,-0.420256,-1.80368,
2026_07_06_15_22_15.765,3.847,43.1,0,0.769,0,0,0,0, ,0,0,0,0,0, ,-39.4,156.6,987.9,-0.6,-0.4,-1.8,25,-38.3485,156.26,987.931,-0.57094,-0.419022,-1.80346,
2026_07_06_15_22_15.782,3.847,43.2,0,0.768,0,0,0,0, ,0,0,0,0,0, ,-38.8,156.6,986.9,-0.5,-0.5,-1.8,25,-38.3943,156.281,987.898,-0.569664,-0.42091,-1.80325,
2026_07_06_15_22_15.800,3.847,43.2,0,0.769,0,0,0,0, ,0,0,0,0,0, ,-37.2,155.6,988.1,-0.6,-0.4,-1.8,25,-38.3702,156.27,987.874,-0.568465,-0.422682,-1.80305,
2026_07_06_15_22_15.830,3.847,43.2,0,0.769,0,0,0,0, ,0,0,0,0,0, ,-37.8,155.8,988.1,-0.6,-0.4,-1.8,25,-38.3172,156.235,987.888,-0.570387,-0.4213,-1.80286,
2026_07_06_15_22_15.849,3.847,43.2,0,0.769,0,0,0,0, ,0,0,0,0,0, ,-39,154.7,986.6,-0.5,-0.4,-1.8,25,-38.3223,156.175,987.855,-0.569145,-0.420002,-1.80269,
2026_07_06_15_22_15.866,3.847,43.1,0,0.768,0,0,0,0, ,0,0,0,0,0, ,-40,156.7,987.7,-0.6,-0.3,-1.9,25,-38.394,156.146,987.812,-0.567978,-0.415736,-1.80557,
2026_07_06_15_22_15.882,3.847,43,0,0.768,0,0,0,0, ,0,0,0,0,0, ,-37.9,155.6,987.7,-0.6,-0.4,-1.8,25,-38.4279,156.146,987.805,-0.569929,-0.41173,-1.80828,
2026_07_06_15_22_15.900,3.847,43.1,0,0.768,0,0,0,0, ,0,0,0,0,0, ,-38.5,155.3,988.7,-0.6,-0.5,-1.8,25,-38.414,156.104,987.829,-0.571762,-0.414063,-1.80778,
2026_07_06_15_22_15.930,3.847,43.2,0,0.769,0,0,0,0, ,0,0,0,0,0, ,-39.5,156.1,986.4,-0.6,-0.4,-1.8,25,-38.4497,156.079,987.812,-0.573483,-0.416252,-1.8073,
2026_07_06_15_22_15.949,3.847,43.1,0,0.77,0,0,0,0, ,0,0,0,0,0, ,-39,157.2,988.5,-0.6,-0.4,-1.8,25,-38.4985,156.114,987.79,-0.575098,-0.415262,-1.80686,
2026_07_06_15_22_15.985,3.847,43.2,0,0.769,0,0,0,0, ,0,0,0,0,0, ,-38.6,155.3,987.6,-0.5,-0.4,-1.8,25,-38.5169,156.122,987.806,-0.573569,-0.414332,-1.80644,
2026_07_06_15_22_15.989,3.847,43,0,0.768,0,0,0,0, ,0,0,0,0,0, ,-38.2,156.4,987.7,-0.6,-0.5,-1.8,25,-38.5097,156.106,987.797,-0.572133,-0.416506,-1.80605,
2026_07_06_15_22_16.009,3.847,43.1,0,0.768,0,0,0,0, ,0,0,0,0,0, ,-38.4,157.7,988.2,-0.6,-0.5,-1.8,25,-38.497,156.163,987.806,-0.573831,-0.421594,-1.80568,
2026_07_06_15_22_16.027,3.847,43.1,0,0.768,0,0,0,0, ,0,0,0,0,0, ,-38.9,156.2,988,-0.6,-0.4,-1.8,25,-38.5063,156.211,987.824,-0.575426,-0.423325,-1.80533,
2026_07_06_15_22_16.048,3.847,43.1,0,0.769,0,0,0,0, ,0,0,0,0,0, ,-38.4,156.7,988,-0.6,-0.4,-1.8,25,-38.515,156.226,987.835,-0.576923,-0.421903,-1.80501,
2026_07_06_15_22_16.065,3.847,43.2,0,0.769,0,0,0,0, ,0,0,0,0,0, ,-39.5,155.3,988.2,-0.5,-0.5,-1.8,25,-38.5416,156.212,987.851,-0.575282,-0.423615,-1.8047,
2026_07_06_15_22_16.082,3.847,43.1,0,0.769,0,0,0,0, ,0,0,0,0,0, ,-39,155.6,986.6,-0.5,-0.5,-1.8,25,-38.5847,156.166,987.823,-0.570695,-0.42827,-1.80442,
2026_07_06_15_22_16.107,3.847,43.1,0,0.769,0,0,0,0, ,0,0,0,0,0, ,-37.8,157.2,988,-0.5,-0.4,-1.8,25,-38.5735,156.18,987.791,-0.566387,-0.429594,-1.80415,
2026_07_06_15_22_16.127,3.847,43,0,0.767,0,0,0,0, ,0,0,0,0,0, ,-38.4,156,988.5,-0.5,-0.5,-1.8,25,-38.5446,156.205,987.819,-0.562342,-0.430838,-1.80389,
2026_07_06_15_22_16.147,3.847,43.1,0,0.768,0,0,0,0, ,0,0,0,0,0, ,-37.8,156.7,987,-0.5,-0.3,-1.8,25,-38.5175,156.214,987.815,-0.558543,-0.428959,-1.80366,
2026_07_06_15_22_16.162,3.847,43.2,0,0.768,0,0,0,0, ,0,0,0,0,0, ,-39.3,156.2,988.5,-0.5,-0.4,-1.9,25,-38.5195,156.229,987.811,-0.554975,-0.424147,-1.80648,
2026_07_06_15_22_16.178,3.847,43.1,0,0.769,0,0,0,0, ,0,0,0,0,0, ,-40.1,155,988.2,-0.5,-0.4,-1.8,25,-38.5914,156.19,987.844,-0.551625,-0.422676,-1.80913,
2026_07_06_15_22_16.200,3.847,43,0,0.767,0,0,0,0, ,0,0,0,0,0, ,-38.6,154.9,988.2,-0.5,-0.4,-1.8,25,-38.6377,156.115,987.866,-0.548479,-0.421294,-1.80858,
2026_07_06_15_22_16.227,3.847,43,0,0.769,0,0,0,0, ,0,0,0,0,0, ,-38.2,156,989.5,-0.6,-0.4,-1.8,25,-38.6232,156.074,987.926,-0.548572,-0.419996,-1.80805,
2026_07_06_15_22_16.246,3.847,43,0,0.768,0,0,0,0, ,0,0,0,0,0, ,-38.2,155.7,987.5,-0.5,-0.5,-1.8,25,-38.5974,156.061,987.961,-0.548659,-0.421825,-1.80756,
2026_07_06_15_22_16.264,3.847,43.1,0,0.767,0,0,0,0, ,0,0,0,0,0, ,-37.7,156.1,989.6,-0.6,-0.4,-1.8,25,-38.5579,156.051,987.997,-0.548741,-0.423541,-1.8071,
2026_07_06_15_22_16.280,3.847,42.9,0,0.767,0,0,0,0, ,0,0,0,0,0, ,-38.3,155.8,988,-0.6,-0.4,-1.8,25,-38.5239,156.045,988.046,-0.551864,-0.422107,-1.80667,
2026_07_06_15_22_16.300,3.847,43.1,0,0.768,0,0,0,0, ,0,0,0,0,0, ,-37.9,156.1,988,-0.6,-0.4,-1.7,25,-38.4981,156.039,988.043,-0.554798,-0.42076,-1.80322,
2026_07_06_15_22_16.313,3.847,43,0,0.768,0,0,0,0, ,0,0,0,0,0, ,-38.5,156.3,988.1,-0.6,-0.4,-1.8,25,-38.4799,156.049,988.043,-0.557552,-0.419495,-1.79997,
2026_07_06_15_22_16.343,3.847,43,0,0.769,0,0,0,0, ,0,0,0,0,0, ,-38,156.3,987.6,-0.6,-0.5,-1.8,25,-38.4659,156.064,988.031,-0.560139,-0.421354,-1.79997,
2026_07_06_15_22_16.359,3.847,43.1,0,0.768,0,0,0,0, ,0,0,0,0,0, ,-37.5,156.4,988.1,-0.6,-0.4,-1.7,25,-38.4223,156.081,988.02,-0.562568,-0.423099,-1.79693,
2026_07_06_15_22_16.375,3.847,43,0,0.767,0,0,0,0, ,0,0,0,0,0, ,-38.6,155.6,988,-0.5,-0.4,-1.8,25,-38.3996,156.076,988.022,-0.561802,-0.421692,-1.79407,
2026_07_06_15_22_16.401,3.847,42.9,0,0.768,0,0,0,0, ,0,0,0,0,0, ,-38.2,155.7,987.9,-0.6,-0.4,-1.8,25,-38.3996,156.05,988.018,-0.561083,-0.42037,-1.79443,
2026_07_06_15_22_16.423,3.847,43,0,0.768,0,0,0,0, ,0,0,0,0,0, ,-38.3,155.7,988,-0.6,-0.4,-1.8,25,-38.3905,156.029,988.014,-0.563454,-0.419129,-1.79477,
2026_07_06_15_22_16.439,3.847,43,0,0.768,0,0,0,0, ,0,0,0,0,0, ,-37.1,155.6,987.4,-0.6,-0.4,-1.8,25,-38.3484,156.006,987.995,-0.565681,-0.417963,-1.79509,
2026_07_06_15_22_16.455,3.847,43,0,0.769,0,0,0,0, ,0,0,0,0,0, ,-37.5,157.2,987.9,-0.7,-0.4,-1.8,25,-38.2846,156.03,987.974,-0.570819,-0.416868,-1.79539,
2026_07_06_15_22_16.471,3.847,42.9,0,0.768,0,0,0,0, ,0,0,0,0,0, ,-37.9,155.6,987.5,-0.6,-0.4,-1.9,25,-38.2489,156.053,987.957,-0.575645,-0.41584,-1.79872,
2026_07_06_15_22_16.504,3.847,42.9,0,0.766,0,0,0,0, ,0,0,0,0,0, ,-38.6,156.4,987.4,-0.6,-0.5,-1.8,25,-38.249,156.049,987.926,-0.577129,-0.417922,-1.80184,
2026_07_06_15_22_16.524,3.847,43,0,0.768,0,0,0,0, ,0,0,0,0,0, ,-37.7,157.8,988.8,-0.6,-0.4,-1.8,25,-38.243,156.113,987.937,-0.578522,-0.419877,-1.80173,
2026_07_06_15_22_16.543,3.847,43,0,0.767,0,0,0,0, ,0,0,0,0,0, ,-38,155.6,987,-0.5,-0.4,-1.8,25,-38.219,156.149,987.934,-0.576784,-0.418665,-1.80162,
2026_07_06_15_22_16.563,3.847,42.9,0,0.768,0,0,0,0, ,0,0,0,0,0, ,-36.9,157.8,988.4,-0.6,-0.4,-1.7,25,-38.1722,156.183,987.92,-0.575152,-0.417528,-1.79848,
2026_07_06_15_22_16.583,3.847,42.9,0,0.768,0,0,0,0, ,0,0,0,0,0, ,-39,156.2,988.2,-0.6,-0.3,-1.8,25,-38.1586,156.233,987.943,-0.576666,-0.413413,-1.79552,
2026_07_06_15_22_16.602,3.847,43,0,0.767,0,0,0,0, ,0,0,0,0,0, ,-39.1,155.5,987.5,-0.6,-0.4,-1.9,25,-38.2129,156.209,987.938,-0.578088,-0.409549,-1.79884,
2026_07_06_15_22_16.615,3.847,42.9,0,0.767,0,0,0,0, ,0,0,0,0,0, ,-37.5,155.6,985.8,-0.5,-0.4,-1.8,25,-38.2182,156.169,987.859,-0.576377,-0.408967,-1.80196,
2026_07_06_15_22_16.650,3.847,42.9,0,0.768,0,0,0,0, ,0,0,0,0,0, ,-37.5,156.1,988.2,-0.6,-0.4,-1.9,25,-38.1745,156.15,987.807,-0.574769,-0.408421,-1.80489,
2026_07_06_15_22_16.650,3.847,42.9,0,0.769,0,0,0,0, ,0,0,0,0,0, ,-39,155.7,987.3,-0.5,-0.4,-1.8,25,-38.1791,156.134,987.803,-0.57326,-0.407907,-1.80764,
2026_07_06_15_22_16.682,3.847,42.9,0,0.768,0,0,0,0, ,0,0,0,0,0, ,-38.9,154.9,988.8,-0.5,-0.4,-1.8,25,-38.2261,156.084,987.818,-0.568796,-0.407426,-1.80717,
2026_07_06_15_22_16.701,3.847,42.9,0,0.768,0,0,0,0, ,0,0,0,0,0, ,-37.9,155.8,987.4,-0.6,-0.4,-1.8,25,-38.2367,156.039,987.835,-0.56765,-0.406973,-1.80673,
2026_07_06_15_22_16.715,3.847,42.9,0,0.768,0,0,0,0, ,0,0,0,0,0, ,-38.4,155.6,989,-0.6,-0.4,-1.8,25,-38.2314,156.018,987.858,-0.569622,-0.406548,-1.80632,
2026_07_06_15_22_16.732,3.847,42.8,0,0.767,0,0,0,0, ,0,0,0,0,0, ,-38.2,156.4,988.1,-0.6,-0.4,-1.8,25,-38.2356,156.017,987.9,-0.571473,-0.406149,-1.80594,
2026_07_06_15_22_16.763,3.847,42.8,0,0.768,0,0,0,0, ,0,0,0,0,0, ,-38.9,156.7,988.7,-0.5,-0.4,-1.8,25,-38.2547,156.05,987.93,-0.570164,-0.405774,-1.80558,
2026_07_06_15_22_16.781,3.847,42.9,0,0.769,0,0,0,0, ,0,0,0,0,0, ,-37.8,156.1,989.2,-0.5,-0.4,-1.8,25,-38.2605,156.071,987.992,-0.565889,-0.405423,-1.80524,
2026_07_06_15_22_16.802,3.847,43,0,0.768,0,0,0,0, ,0,0,0,0,0, ,-38.8,155,988.1,-0.6,-0.5,-1.8,25,-38.2629,156.039,988.033,-0.56492,-0.408139,-1.80492,
2026_07_06_15_22_16.815,3.847,42.9,0,0.769,0,0,0,0, ,0,0,0,0,0, ,-37.9,155.6,988.6,-0.6,-0.5,-1.8,25,-38.2682,155.994,988.052,-0.567058,-0.413737,-1.80462,
2026_07_06_15_22_16.840,3.847,42.8,0,0.769,0,0,0,0, ,0,0,0,0,0, ,-39,155.5,987,-0.6,-0.4,-1.9,25,-38.2793,155.967,988.037,-0.569065,-0.415947,-1.80738,
2026_07_06_15_22_16.848,3.847,42.8,0,0.768,0,0,0,0, ,0,0,0,0,0, ,-38.3,155.7,989,-0.5,-0.5,-1.8,25,-38.3019,155.945,988.034,-0.567904,-0.418022,-1.80998,
2026_07_06_15_22_16.881,3.847,42.7,0,0.767,0,0,0,0, ,0,0,0,0,0, ,-39,157.8,987,-0.5,-0.4,-1.7,25,-38.3231,155.994,988.032,-0.563766,-0.41997,-1.80633,
2026_07_06_15_22_16.899,3.847,42.7,0,0.767,0,0,0,0, ,0,0,0,0,0, ,-37.4,155.2,988.7,-0.6,-0.4,-1.8,25,-38.3156,156.025,988.021,-0.562927,-0.418753,-1.80289,
2026_07_06_15_22_16.916,3.847,42.8,0,0.767,0,0,0,0, ,0,0,0,0,0, ,-38.8,156.4,988,-0.6,-0.4,-1.8,25,-38.3025,156.011,988.041,-0.565186,-0.417611,-1.80272,
2026_07_06_15_22_16.932,3.847,42.8,0,0.769,0,0,0,0, ,0,0,0,0,0, ,-39.5,155.8,989.1,-0.6,-0.5,-1.8,25,-38.3541,156.016,988.072,-0.567308,-0.419584,-1.80255,
2026_07_06_15_22_16.948,3.847,42.8,0,0.768,0,0,0,0, ,0,0,0,0,0, ,-38.3,156.3,987.7,-0.5,-0.4,-1.9,25,-38.3874,156.018,988.092,-0.566253,-0.421438,-1.80544,
2026_07_06_15_22_16.965,3.847,42.7,0,0.768,0,0,0,0, ,0,0,0,0,0, ,-39,158.4,987.5,-0.5,-0.4,-1.8,25,-38.4034,156.1,988.062,-0.562216,-0.420131,-1.80816,
2026_07_06_15_22_17.002,3.847,42.8,0,0.768,0,0,0,0, ,0,0,0,0,0, ,-38,156.2,988.1,-0.5,-0.4,-1.8,25,-38.4093,156.173,988.046,-0.558424,-0.418905,-1.80766,
2026_07_06_15_22_17.016,3.847,42.7,0,0.77,0,0,0,0, ,0,0,0,0,0, ,-38,155.7,987.9,-0.6,-0.5,-1.8,25,-38.3843,156.159,988.043,-0.557911,-0.4208,-1.80719,
2026_07_06_15_22_17.032,3.847,42.7,0,0.767,0,0,0,0, ,0,0,0,0,0, ,-37.9,157.5,986.5,-0.6,-0.4,-1.8,25,-38.3579,156.186,987.992,-0.560476,-0.422579,-1.80676,
2026_07_06_15_22_17.049,3.847,42.8,0,0.768,0,0,0,0, ,0,0,0,0,0, ,-38.4,155.8,988.2,-0.6,-0.4,-1.8,25,-38.3452,156.214,987.953,-0.562884,-0.421203,-1.80634,
2026_07_06_15_22_17.066,3.847,42.7,0,0.768,0,0,0,0, ,0,0,0,0,0, ,-40,156.8,987.9,-0.6,-0.4,-1.8,25,-38.3973,156.219,987.959,-0.565146,-0.419911,-1.80596,
2026_07_06_15_22_17.098,3.847,42.8,0,0.768,0,0,0,0, ,0,0,0,0,0, ,-39.3,155.3,987.3,-0.6,-0.4,-1.9,25,-38.4736,156.209,987.937,-0.56727,-0.418698,-1.80864,
2026_07_06_15_22_17.115,3.847,42.8,0,0.768,0,0,0,0, ,0,0,0,0,0, ,-39.6,157.1,988,-0.6,-0.4,-1.8,25,-38.5331,156.209,987.919,-0.569264,-0.417558,-1.81116,
2026_07_06_15_22_17.132,3.847,42.8,0,0.767,0,0,0,0, ,0,0,0,0,0, ,-37.2,156.4,988.2,-0.6,-0.4,-1.8,25,-38.525,156.242,987.93,-0.571137,-0.416488,-1.81048,
2026_07_06_15_22_17.149,3.847,42.6,0,0.767,0,0,0,0, ,0,0,0,0,0, ,-38.9,156.1,988.2,-0.5,-0.4,-1.8,25,-38.4961,156.242,987.947,-0.569849,-0.415484,-1.80984,
2026_07_06_15_22_17.165,3.847,42.7,0,0.768,0,0,0,0, ,0,0,0,0,0, ,-40.4,155.8,988.7,-0.5,-0.4,-1.8,25,-38.5664,156.224,987.978,-0.565593,-0.41454,-1.80924,
2026_07_06_15_22_17.199,3.847,42.8,0,0.769,0,0,0,0, ,0,0,0,0,0, ,-39,156.6,988.8,-0.6,-0.4,-1.8,25,-38.6355,156.223,988.025,-0.564643,-0.413654,-1.80868,
2026_07_06_15_22_17.215,3.847,42.8,0,0.768,0,0,0,0, ,0,0,0,0,0, ,-38.2,156.2,987.7,-0.5,-0.4,-1.8,25,-38.6333,156.234,988.038,-0.56375,-0.412822,-1.80815,
2026_07_06_15_22_17.238,3.847,42.6,0,0.769,0,0,0,0, ,0,0,0,0,0, ,-37.8,157.1,987.6,-0.6,-0.4,-1.9,25,-38.5947,156.259,988.015,-0.562912,-0.412041,-1.8107,
2026_07_06_15_22_17.249,3.847,42.6,0,0.767,0,0,0,0, ,0,0,0,0,0, ,-39.6,155,988.1,-0.6,-0.4,-1.8,25,-38.6011,156.246,988.005,-0.565173,-0.411307,-1.8131,
2026_07_06_15_22_17.265,3.847,42.7,0,0.766,0,0,0,0, ,0,0,0,0,0, ,-38.5,155,988.2,-0.6,-0.4,-1.8,25,-38.6285,156.17,988.013,-0.567295,-0.410618,-1.8123,
2026_07_06_15_22_17.297,3.847,42.7,0,0.767,0,0,0,0, ,0,0,0,0,0, ,-40.1,156.1,988,-0.5,-0.4,-1.8,25,-38.6694,156.133,988.019,-0.566241,-0.409971,-1.81155,
2026_07_06_15_22_17.315,3.847,42.7,0,0.766,0,0,0,0, ,0,0,0,0,0, ,-38,154.7,988.1,-0.5,-0.4,-1.8,25,-38.6926,156.088,988.021,-0.562204,-0.409363,-1.81084,
2026_07_06_15_22_17.332,3.847,42.7,0,0.769,0,0,0,0, ,0,0,0,0,0, ,-39.1,156.8,988.5,-0.6,-0.4,-1.9,25,-38.6839,156.067,988.038,-0.561461,-0.408793,-1.81323,
2026_07_06_15_22_17.348,3.847,42.6,0,0.77,0,0,0,0, ,0,0,0,0,0, ,-39.1,155.5,986.5,-0.6,-0.4,-1.9,25,-38.7093,156.072,988.005,-0.563809,-0.408257,-1.81852,
2026_07_06_15_22_17.365,3.847,42.6,0,0.768,0,0,0,0, ,0,0,0,0,0, ,-38.6,156.1,988.5,-0.6,-0.4,-1.8,25,-38.7178,156.056,987.974,-0.566015,-0.407754,-1.82044,
2026_07_06_15_22_17.395,3.847,42.6,0,0.767,0,0,0,0, ,0,0,0,0,0, ,-38,155.8,987.5,-0.6,-0.3,-1.8,25,-38.6924,156.049,987.976,-0.568086,-0.404234,-1.81919,
2026_07_06_15_22_17.415,3.847,42.5,0,0.768,0,0,0,0, ,0,0,0,0,0, ,-38.4,155.7,988.8,-0.6,-0.5,-1.8,25,-38.6624,156.031,987.986,-0.57003,-0.403976,-1.81802,
2026_07_06_15_22_17.431,3.847,42.7,0,0.767,0,0,0,0, ,0,0,0,0,0, ,-39.6,155.2,987.4,-0.6,-0.4,-1.8,25,-38.6829,155.996,987.993,-0.571857,-0.406781,-1.81692,
2026_07_06_15_22_17.447,3.847,42.6,0,0.767,0,0,0,0, ,0,0,0,0,0, ,-38.9,154.6,987.4,-0.6,-0.4,-1.8,25,-38.7175,155.929,987.957,-0.573572,-0.406368,-1.81589,
2026_07_06_15_22_17.473,3.847,42.7,0,0.768,0,0,0,0, ,0,0,0,0,0, ,-37.9,156.1,988.4,-0.6,-0.4,-1.8,25,-38.6982,155.894,987.954,-0.575182,-0.40598,-1.81492,
