UTC_Time,Vin,TC1,TC2,Rh1,Vh1,Ah1,Acp1,Dty1,Err1,Rh2,Vh2,Ah2,Acp2,Dty2,Err2,Accel_x,Accel_y,Accel_z,gyro_x,gyro_y,gyro_z,Temp_c,Accel_x_h,Accel_y_h,Accel_z_h,gyro_x_h,gyro_y_h,gyro_z_h,
2026_07_06_17_14_55.029,3.871,49.6,0,0.773,0,0,0,0, ,0,0,0,0,0, ,-861.3,206.6,476.3,-0.6,-0.5,-1.9,25,-861.3,206.6,476.3,-0.6,-0.5,-1.9,
2026_07_06_17_14_55.049,3.871,49.3,0,0.773,0,0,0,0, ,0,0,0,0,0, ,-860.3,203.6,477.6,-0.4,-0.3,-1.9,25,-861.27,206.509,476.34,-0.593906,-0.493906,-1.9,
2026_07_06_17_14_55.069,3.871,49.4,0,0.77,0,0,0,0, ,0,0,0,0,0, ,-861.9,206.4,472.4,-0.3,-0.3,-1.2,25,-861.259,206.417,476.258,-0.579043,-0.48209,-1.87867,
2026_07_06_17_14_55.089,3.871,49.4,0,0.773,0,0,0,0, ,0,0,0,0,0, ,-861.4,209.9,475.3,-0.2,-0.6,-1.8,25,-861.283,206.522,476.111,-0.558992,-0.480135,-1.8556,
2026_07_06_17_14_55.109,3.871,49.4,0,0.772,0,0,0,0, ,0,0,0,0,0, ,-861.5,207.7,475.2,-0.6,-0.6,-1.8,25,-861.293,206.661,476.059,-0.549304,-0.487439,-1.85221,
2026_07_06_17_14_55.129,3.871,49.3,0,0.774,0,0,0,0, ,0,0,0,0,0, ,-862.3,206.6,476.3,-0.7,-0.5,-1.9,25,-861.33,206.691,476.04,-0.55544,-0.491251,-1.85207,
2026_07_06_17_14_55.152,3.871,49.3,0,0.774,0,0,0,0, ,0,0,0,0,0, ,-861.2,206.5,473.7,-0.4,-0.7,-1.9,25,-861.356,206.682,475.977,-0.555108,-0.497878,-1.85499,
2026_07_06_17_14_55.168,3.871,49.4,0,0.773,0,0,0,0, ,0,0,0,0,0, ,-861.8,205.2,475,-0.3,-0.8,-1.8,25,-861.365,206.632,475.877,-0.54261,-0.513242,-1.85469,
2026_07_06_17_14_55.188,3.871,49.3,0,0.773,0,0,0,0, ,0,0,0,0,0, ,-861.8,207.2,477.9,-0.3,-0.7,-1.8,25,-861.391,206.605,475.912,-0.527825,-0.527669,-1.85136,
2026_07_06_17_14_55.208,3.871,49.3,0,0.773,0,0,0,0, ,0,0,0,0,0, ,-861.4,206,477.6,-0.4,-0.4,-1.6,25,-861.404,206.605,476.024,-0.516989,-0.52903,-1.84213,
2026_07_06_17_14_55.228,3.871,49.3,0,0.774,0,0,0,0, ,0,0,0,0,0, ,-860.3,208.8,476.1,-0.3,-0.3,-2,25,-861.37,206.653,476.075,-0.506813,-0.51812,-1.83957,
2026_07_06_17_14_55.247,3.871,49.4,0,0.772,0,0,0,0, ,0,0,0,0,0, ,-862.5,206.5,474.3,-0.5,-0.3,-1.7,25,-861.372,206.714,476.021,-0.500304,-0.504829,-1.8402,
2026_07_06_17_14_55.267,3.871,49.3,0,0.773,0,0,0,0, ,0,0,0,0,0, ,-860.9,209.1,473.6,-0.5,-0.6,-1.9,25,-861.392,206.78,475.895,-0.500286,-0.501488,-1.83775,
2026_07_06_17_14_55.288,3.871,49.3,0,0.773,0,0,0,0, ,0,0,0,0,0, ,-861.9,207.2,477.5,-0.7,-0.7,-2.1,25,-861.392,206.864,475.874,-0.506362,-0.510538,-1.84764,
2026_07_06_17_14_55.307,3.871,49.2,0,0.773,0,0,0,0, ,0,0,0,0,0, ,-861.5,207.8,478.7,-1,-0.6,-2.1,25,-861.411,206.903,476.01,-0.527303,-0.519036,-1.86302,
2026_07_06_17_14_55.327,3.871,49.3,0,0.774,0,0,0,0, ,0,0,0,0,0, ,-861.6,203.1,477.7,-1,-0.1,-1.7,25,-861.42,206.814,476.143,-0.556108,-0.508735,-1.86527,
2026_07_06_17_14_55.347,3.871,49.3,0,0.774,0,0,0,0, ,0,0,0,0,0, ,-862.4,207.5,474.6,-0.1,0,-1.4,25,-861.455,206.722,476.144,-0.555735,-0.480781,-1.84606,
2026_07_06_17_14_55.366,3.871,49.2,0,0.774,0,0,0,0, ,0,0,0,0,0, ,-861,207.7,475,0.1,0,-1.5,25,-861.47,206.775,476.062,-0.52187,-0.451484,-1.82192,
2026_07_06_17_14_55.386,3.871,49.3,0,0.773,0,0,0,0, ,0,0,0,0,0, ,-861.6,208.9,473.8,-0.1,-0.3,-1.7,25,-861.46,206.868,475.96,-0.490069,-0.433112,-1.8084,
2026_07_06_17_14_55.406,3.871,49.2,0,0.774,0,0,0,0, ,0,0,0,0,0, ,-862.4,207.3,473.6,-0.4,-0.4,-1.8,25,-861.492,206.943,475.823,-0.47544,-0.428047,-1.80484,
2026_07_06_17_14_55.425,3.871,49.2,0,0.774,0,0,0,0, ,0,0,0,0,0, ,-862.1,207.3,474.1,-0.9,-0.7,-2.2,25,-861.539,206.965,475.703,-0.486077,-0.435479,-1.81673,
2026_07_06_17_14_55.445,3.871,49.2,0,0.772,0,0,0,0, ,0,0,0,0,0, ,-862,208.8,474.1,-1.1,-0.9,-2.1,25,-861.57,207.031,475.605,-0.517394,-0.457692,-1.83704,
2026_07_06_17_14_55.465,3.871,49.2,0,0.774,0,0,0,0, ,0,0,0,0,0, ,-859.8,204.5,479.1,-1,-0.9,-2.3,25,-861.529,207.008,475.666,-0.54985,-0.484645,-1.85916,
2026_07_06_17_14_55.485,3.871,49.2,0,0.773,0,0,0,0, ,0,0,0,0,0, ,-860.9,204.3,479,-0.7,-0.6,-1.6,25,-861.457,206.849,475.872,-0.56814,-0.500815,-1.8647,
2026_07_06_17_14_55.505,3.871,49.2,0,0.774,0,0,0,0, ,0,0,0,0,0, ,-861.9,203.8,475.4,-0.3,-0.1,-1.3,25,-861.454,206.678,475.953,-0.563988,-0.491625,-1.83943,
2026_07_06_17_14_55.524,3.871,49.2,0,0.773,0,0,0,0, ,0,0,0,0,0, ,-861.5,208.6,472.7,-0.1,-0.1,-1.1,25,-861.469,206.649,475.837,-0.541807,-0.46776,-1.80046,
2026_07_06_17_14_55.544,3.871,49.1,0,0.773,0,0,0,0, ,0,0,0,0,0, ,-860.4,214.1,474.8,-0.2,-0.4,-1.7,25,-861.437,206.936,475.71,-0.517932,-0.45449,-1.77606,
2026_07_06_17_14_55.564,3.871,49.1,0,0.773,0,0,0,0, ,0,0,0,0,0, ,-862.4,207.3,475.5,-0.3,-0.5,-2.3,25,-861.435,207.165,475.675,-0.501605,-0.454217,-1.7897,
2026_07_06_17_14_55.585,3.871,49.2,0,0.773,0,0,0,0, ,0,0,0,0,0, ,-861.3,203.6,476.3,-0.7,-0.3,-2.1,25,-861.46,207.061,475.689,-0.501507,-0.450913,-1.81471,
2026_07_06_17_14_55.604,3.871,49.2,0,0.773,0,0,0,0, ,0,0,0,0,0, ,-861.8,204.9,475.5,-0.6,-0.2,-1.6,25,-861.466,206.889,475.702,-0.510556,-0.43867,-1.81686,
2026_07_06_17_14_55.624,3.871,49.2,0,0.773,0,0,0,0, ,0,0,0,0,0, ,-860.9,209.1,473.8,-0.3,-0.4,-1.5,25,-861.459,206.896,475.638,-0.506865,-0.43022,-1.8006,
2026_07_06_17_14_55.644,3.871,49.1,0,0.773,0,0,0,0, ,0,0,0,0,0, ,-863.1,207.1,471.8,-0.2,-0.3,-1.5,25,-861.492,206.969,475.465,-0.491213,-0.425331,-1.78228,
2026_07_06_17_14_55.663,3.871,49.2,0,0.774,0,0,0,0, ,0,0,0,0,0, ,-861.6,207.7,474.1,0,-0.6,-1.6,25,-861.544,206.996,475.312,-0.467373,-0.426834,-1.76812,
2026_07_06_17_14_55.683,3.871,49.1,0,0.774,0,0,0,0, ,0,0,0,0,0, ,-860.5,206.5,475.8,0,-0.7,-1.4,25,-861.514,207.002,475.29,-0.438893,-0.440434,-1.75178,
2026_07_06_17_14_55.703,3.871,49.2,0,0.773,0,0,0,0, ,0,0,0,0,0, ,-861.3,208.3,474.6,0,-0.7,-1.2,25,-861.476,207.026,475.284,-0.412148,-0.456251,-1.72425,
2026_07_06_17_14_55.723,3.871,49.1,0,0.773,0,0,0,0, ,0,0,0,0,0, ,-861,210.8,477.5,-0.1,-0.6,-1.7,25,-861.456,207.18,475.331,-0.390079,-0.468058,-1.70754,
2026_07_06_17_14_55.743,3.871,49.2,0,0.773,0,0,0,0, ,0,0,0,0,0, ,-861.9,210.4,478.7,-0.5,-0.4,-1.9,25,-861.456,207.388,475.5,-0.38459,-0.470004,-1.71318,
2026_07_06_17_14_55.762,3.871,49.1,0,0.771,0,0,0,0, ,0,0,0,0,0, ,-860.9,205,476.8,-0.9,0,-2,25,-861.453,207.407,475.637,-0.40381,-0.453551,-1.72761,
2026_07_06_17_14_55.782,3.871,49.1,0,0.772,0,0,0,0, ,0,0,0,0,0, ,-862.7,212,471.6,-0.8,-0.1,-1.6,25,-861.474,207.474,475.549,-0.431,-0.428959,-1.73202,
2026_07_06_17_14_55.802,3.871,49.1,0,0.774,0,0,0,0, ,0,0,0,0,0, ,-862.7,206.7,471.6,-0.6,-0.7,-1.9,25,-861.549,207.588,475.309,-0.447392,-0.427195,-1.73311,
2026_07_06_17_14_55.822,3.871,49.1,0,0.773,0,0,0,0, ,0,0,0,0,0, ,-862,210.9,475.5,-1.1,-1,-1.9,25,-861.597,207.662,475.201,-0.471926,-0.452959,-1.74328,
2026_07_06_17_14_55.847,3.871,49.1,0,0.774,0,0,0,0, ,0,0,0,0,0, ,-860.1,203.9,478.5,-0.8,-0.9,-1.8,25,-861.564,207.646,475.311,-0.501059,-0.483248,-1.74979,
2026_07_06_17_14_55.862,3.871,49.1,0,0.773,0,0,0,0, ,0,0,0,0,0, ,-859.8,209.7,476.6,-0.2,-0.5,-1.5,25,-861.466,207.595,475.447,-0.500994,-0.496456,-1.74371,
2026_07_06_17_14_55.881,3.871,49,0,0.773,0,0,0,0, ,0,0,0,0,0, ,-861.9,209.3,474.2,-0.2,-0.4,-1.6,25,-861.428,207.711,475.445,-0.482652,-0.493625,-1.7319,
2026_07_06_17_14_55.905,3.871,49.1,0,0.773,0,0,0,0, ,0,0,0,0,0, ,-860.4,208.4,477.2,-0.5,-0.4,-2.1,25,-861.411,207.78,475.46,-0.474569,-0.48792,-1.7391,
2026_07_06_17_14_55.921,3.871,49.1,0,0.772,0,0,0,0, ,0,0,0,0,0, ,-863.2,205.9,474.7,-0.7,-0.1,-1.8,25,-861.435,207.742,475.49,-0.482212,-0.473422,-1.75195,
2026_07_06_17_14_55.940,3.871,49.2,0,0.775,0,0,0,0, ,0,0,0,0,0, ,-863.7,206.6,472.7,-0.4,-0.1,-1.7,25,-861.558,207.651,475.381,-0.486343,-0.450666,-1.75183,
2026_07_06_17_14_55.960,3.871,49.1,0,0.773,0,0,0,0, ,0,0,0,0,0, ,-862.6,209.2,469.9,-0.5,-0.9,-1.6,25,-861.655,207.666,475.132,-0.484128,-0.453672,-1.74563,
2026_07_06_17_14_55.980,3.871,49.1,0,0.773,0,0,0,0, ,0,0,0,0,0, ,-861.2,207.6,475.7,-0.6,-1.3,-1.9,25,-861.67,207.711,474.99,-0.488143,-0.493058,-1.74589,
2026_07_06_17_14_56.006,3.871,49.1,0,0.773,0,0,0,0, ,0,0,0,0,0, ,-860.9,208.3,477.4,-0.5,-0.9,-1.9,25,-861.632,207.725,475.085,-0.491912,-0.530044,-1.75528,
2026_07_06_17_14_56.020,3.871,49.1,0,0.774,0,0,0,0, ,0,0,0,0,0, ,-859.7,208.9,477.7,-0.3,-0.8,-1.9,25,-861.551,207.779,475.235,-0.486311,-0.549541,-1.7641,
2026_07_06_17_14_56.040,3.871,49.1,0,0.773,0,0,0,0, ,0,0,0,0,0, ,-861,203.6,477.5,-0.2,-0.3,-1.8,25,-861.478,207.685,475.379,-0.471911,-0.549569,-1.76934,
2026_07_06_17_14_56.060,3.871,49.1,0,0.773,0,0,0,0, ,0,0,0,0,0, ,-861.9,208.7,471.6,-0.4,-0.3,-1.6,25,-861.476,207.592,475.329,-0.461435,-0.534361,-1.76511,
2026_07_06_17_14_56.079,3.871,49.1,0,0.773,0,0,0,0, ,0,0,0,0,0, ,-861.8,208.3,473,-0.5,-0.7,-1.8,25,-861.499,207.647,475.144,-0.460738,-0.532267,-1.76114,
2026_07_06_17_14_56.099,3.871,49.1,0,0.772,0,0,0,0, ,0,0,0,0,0, ,-861.4,211.1,475.2,-0.8,-0.8,-2,25,-861.505,207.772,475.081,-0.472271,-0.545535,-1.76961,
2026_07_06_17_14_56.120,3.871,49,0,0.773,0,0,0,0, ,0,0,0,0,0, ,-861.5,206.4,477.1,-0.8,-0.5,-2,25,-861.502,207.832,475.146,-0.492242,-0.551901,-1.78365,
2026_07_06_17_14_56.139,3.871,49,0,0.774,0,0,0,0, ,0,0,0,0,0, ,-861.9,204.3,475.3,-0.5,-0.4,-1.7,25,-861.514,207.681,475.21,-0.501856,-0.545691,-1.78769,
2026_07_06_17_14_56.158,3.871,49.1,0,0.773,0,0,0,0, ,0,0,0,0,0, ,-861.3,206.9,473.8,-0.3,-0.5,-1.5,25,-861.519,207.554,475.17,-0.495649,-0.53986,-1.77625,
2026_07_06_17_14_56.184,3.871,49.1,0,0.774,0,0,0,0, ,0,0,0,0,0, ,-862.7,213,473.2,-0.3,-0.9,-1.8,25,-861.548,207.7,475.068,-0.483727,-0.549619,-1.76856,
2026_07_06_17_14_56.197,3.871,49,0,0.774,0,0,0,0, ,0,0,0,0,0, ,-861.6,207.3,477.7,-0.5,-0.7,-2.1,25,-861.585,207.849,475.091,-0.478624,-0.564876,-1.77961,
2026_07_06_17_14_56.218,3.871,49,0,0.773,0,0,0,0, ,0,0,0,0,0, ,-860.9,205,475.4,-0.4,-0.6,-1.8,25,-861.564,207.746,475.18,-0.47688,-0.570063,-1.79,
2026_07_06_17_14_56.238,3.871,48.9,0,0.773,0,0,0,0, ,0,0,0,0,0, ,-859.7,209.2,476.8,-0.3,-0.5,-1.7,25,-861.487,207.706,475.236,-0.469148,-0.568841,-1.78756,
2026_07_06_17_14_56.257,3.871,49,0,0.773,0,0,0,0, ,0,0,0,0,0, ,-860.5,208.2,477.1,-0.7,-0.3,-1.6,25,-861.403,207.767,475.341,-0.471028,-0.558552,-1.77918,
2026_07_06_17_14_56.277,3.871,49,0,0.772,0,0,0,0, ,0,0,0,0,0, ,-860.9,208.3,479.6,-1.1,0,-1.8,25,-861.36,207.796,475.524,-0.497169,-0.533656,-1.77435,
2026_07_06_17_14_56.297,3.871,49,0,0.773,0,0,0,0, ,0,0,0,0,0, ,-860.9,205.3,473.1,-0.9,0.1,-1.7,25,-861.332,207.736,475.574,-0.52781,-0.498089,-1.77287,
2026_07_06_17_14_56.317,3.871,49,0,0.774,0,0,0,0, ,0,0,0,0,0, ,-861.9,208.1,472,-0.2,-0.2,-1.8,25,-861.336,207.672,475.39,-0.529162,-0.470784,-1.77148,
2026_07_06_17_14_56.337,3.871,49,0,0.774,0,0,0,0, ,0,0,0,0,0, ,-861.9,204.5,471.9,0.2,-0.7,-1.4,25,-861.371,207.589,475.181,-0.496916,-0.469517,-1.76103,
2026_07_06_17_14_56.358,3.871,48.9,0,0.775,0,0,0,0, ,0,0,0,0,0, ,-860.5,209.2,474.6,0.4,-1,-1.3,25,-861.36,207.544,475.063,-0.448354,-0.492703,-1.73598,
2026_07_06_17_14_56.376,3.871,49,0,0.773,0,0,0,0, ,0,0,0,0,0, ,-861.4,210.4,476.6,0,-1.1,-1.8,25,-861.335,207.681,475.096,-0.408845,-0.526663,-1.72465,
2026_07_06_17_14_56.396,3.871,49,0,0.773,0,0,0,0, ,0,0,0,0,0, ,-859.8,214.1,474.9,-1,-0.9,-2.1,25,-861.29,207.96,475.135,-0.4144,-0.555507,-1.73838,
2026_07_06_17_14_56.416,3.871,49,0,0.774,0,0,0,0, ,0,0,0,0,0, ,-861.3,206.1,476,-1.3,-0.7,-2.4,25,-861.245,208.09,475.155,-0.459226,-0.570406,-1.76956,
2026_07_06_17_14_56.432,3.871,49,0,0.773,0,0,0,0, ,0,0,0,0,0, ,-861.4,204.9,475.7,-1.1,-0.5,-2,25,-861.252,207.932,475.197,-0.504367,-0.572209,-1.79579,
2026_07_06_17_14_56.455,3.871,48.9,0,0.772,0,0,0,0, ,0,0,0,0,0, ,-862.9,202.2,474.9,-0.6,-0.5,-1.4,25,-861.306,207.665,475.203,-0.525429,-0.567809,-1.78995,
2026_07_06_17_14_56.476,3.871,48.9,0,0.772,0,0,0,0, ,0,0,0,0,0, ,-861.3,206.1,472.9,-0.3,-0.7,-1.6,25,-861.355,207.451,475.124,-0.520832,-0.569771,-1.77228,
2026_07_06_17_14_56.495,3.871,48.9,0,0.773,0,0,0,0, ,0,0,0,0,0, ,-860.9,211.4,478.3,-0.6,-0.7,-1.4,25,-861.339,207.53,475.153,-0.516516,-0.577707,-1.75569,
2026_07_06_17_14_56.515,3.871,48.9,0,0.773,0,0,0,0, ,0,0,0,0,0, ,-861.6,203.7,477.6,-0.2,-0.3,-1.7,25,-861.334,207.531,475.323,-0.509416,-0.572971,-1.74315,
2026_07_06_17_14_56.535,3.871,48.9,0,0.772,0,0,0,0, ,0,0,0,0,0, ,-861.5,211.4,473.3,0.3,-0.6,-1.6,25,-861.347,207.533,475.331,-0.475326,-0.565478,-1.73748,
2026_07_06_17_14_56.555,3.871,49,0,0.772,0,0,0,0, ,0,0,0,0,0, ,-861.4,206.7,476.6,0,-0.6,-1.6,25,-861.353,207.625,475.308,-0.43722,-0.567582,-1.7291,
2026_07_06_17_14_56.575,3.871,48.9,0,0.773,0,0,0,0, ,0,0,0,0,0, ,-861.6,209.5,476,-0.7,-0.5,-1.7,25,-861.362,207.654,475.368,-0.431905,-0.56651,-1.72428,
2026_07_06_17_14_56.595,3.871,48.9,0,0.773,0,0,0,0, ,0,0,0,0,0, ,-861.4,205.9,476.9,-0.8,-0.3,-1.6,25,-861.371,207.657,475.434,-0.451289,-0.556363,-1.71975,
2026_07_06_17_14_56.615,3.871,48.9,0,0.774,0,0,0,0, ,0,0,0,0,0, ,-860.1,212,473.7,-0.7,-0.5,-1.7,25,-861.333,207.736,475.426,-0.469492,-0.546835,-1.7155,
2026_07_06_17_14_56.633,3.871,48.7,0,0.774,0,0,0,0, ,0,0,0,0,0, ,-861.9,212.6,475,-0.6,-0.9,-1.9,25,-861.312,208.014,475.36,-0.480492,-0.556169,-1.72065,
2026_07_06_17_14_56.654,3.871,48.9,0,0.774,0,0,0,0, ,0,0,0,0,0, ,-860.5,206.1,478.1,-0.7,-0.5,-1.8,25,-861.306,208.095,475.433,-0.490821,-0.564933,-1.72853,
2026_07_06_17_14_56.673,3.871,48.9,0,0.773,0,0,0,0, ,0,0,0,0,0, ,-860.8,204.5,475.7,-0.3,-0.1,-1.7,25,-861.266,207.925,475.522,-0.49138,-0.548789,-1.72984,
2026_07_06_17_14_56.694,3.871,48.7,0,0.774,0,0,0,0, ,0,0,0,0,0, ,-862.5,205.9,473.5,-0.1,-0.2,-1.5,25,-861.289,207.759,475.466,-0.473624,-0.524488,-1.72193,
2026_07_06_17_14_56.713,3.871,48.9,0,0.773,0,0,0,0, ,0,0,0,0,0, ,-861.6,207.8,470.8,-0.1,-0.4,-1.4,25,-861.335,207.703,475.264,-0.450857,-0.510808,-1.70536,
2026_07_06_17_14_56.737,3.871,48.9,0,0.773,0,0,0,0, ,0,0,0,0,0, ,-861.6,218.3,472.4,-0.4,-1.4,-2.1,25,-861.352,208.029,475.041,-0.438617,-0.534524,-1.70808,
2026_07_06_17_14_56.752,3.871,48.9,0,0.773,0,0,0,0, ,0,0,0,0,0, ,-859.6,204.5,478,-1,-1.3,-2.4,25,-861.306,208.235,475.05,-0.454545,-0.584217,-1.7411,
2026_07_06_17_14_56.773,3.871,48.7,0,0.773,0,0,0,0, ,0,0,0,0,0, ,-860.2,206.6,478.6,-1.2,-1,-2,25,-861.22,208.071,475.249,-0.493877,-0.618695,-1.76907,
2026_07_06_17_14_56.793,3.871,48.9,0,0.773,0,0,0,0, ,0,0,0,0,0, ,-859.9,201.4,478.2,-0.6,-0.7,-1.4,25,-861.149,207.823,475.441,-0.518626,-0.63279,-1.76486,
2026_07_06_17_14_56.813,3.871,48.9,0,0.773,0,0,0,0, ,0,0,0,0,0, ,-860.3,210.8,476.3,-0.2,-0.6,-1.6,25,-861.085,207.718,475.551,-0.511397,-0.633839,-1.74872,
2026_07_06_17_14_56.832,3.871,48.9,0,0.773,0,0,0,0, ,0,0,0,0,0, ,-861,208.8,477.2,-0.5,-0.7,-1.8,25,-861.058,207.845,475.624,-0.501562,-0.634824,-1.74575,
2026_07_06_17_14_56.853,3.871,48.9,0,0.774,0,0,0,0, ,0,0,0,0,0, ,-860.5,208.1,475.8,-0.6,-0.5,-1.8,25,-861.04,207.882,475.677,-0.504513,-0.632701,-1.74906,
2026_07_06_17_14_56.870,3.871,48.9,0,0.773,0,0,0,0, ,0,0,0,0,0, ,-860.8,206.6,474.7,-0.5,-0.7,-1.9,25,-861.016,207.849,475.651,-0.507285,-0.630709,-1.75521,
2026_07_06_17_14_56.892,3.871,48.7,0,0.774,0,0,0,0, ,0,0,0,0,0, ,-860.5,207.1,476,-0.7,-0.8,-2,25,-860.994,207.788,475.633,-0.512935,-0.637978,-1.76708,
2026_07_06_17_14_56.911,3.871,48.7,0,0.773,0,0,0,0, ,0,0,0,0,0, ,-860.8,204.5,476.1,-0.6,-0.7,-1.4,25,-860.973,207.667,475.658,-0.521287,-0.644804,-1.76299,
2026_07_06_17_14_56.931,3.871,48.7,0,0.772,0,0,0,0, ,0,0,0,0,0, ,-861.3,210,477.4,-0.2,-0.5,-1.6,25,-860.977,207.642,475.725,-0.513896,-0.642074,-1.74696,
2026_07_06_17_14_56.951,3.871,48.7,0,0.772,0,0,0,0, ,0,0,0,0,0, ,-860.8,208.2,475,-0.4,-0.4,-1.8,25,-860.982,207.731,475.754,-0.500862,-0.63037,-1.7441,
2026_07_06_17_14_56.970,3.871,48.7,0,0.773,0,0,0,0, ,0,0,0,0,0, ,-860.8,205.8,477.7,-0.7,-0.3,-1.6,25,-860.971,207.686,475.79,-0.503857,-0.613285,-1.74141,
2026_07_06_17_14_56.991,3.871,48.9,0,0.773,0,0,0,0, ,0,0,0,0,0, ,-861.2,208.7,478.6,-0.3,0,-1.4,25,-860.972,207.66,475.934,-0.503622,-0.585053,-1.7267,
2026_07_06_17_14_57.010,3.871,48.7,0,0.773,0,0,0,0, ,0,0,0,0,0, ,-861.6,207.8,482.2,-1.5,0.7,-1.3,25,-860.999,207.696,476.206,-0.527776,-0.528073,-1.70375,
2026_07_06_17_14_57.030,3.871,48.7,0,0.773,0,0,0,0, ,0,0,0,0,0, ,-861.5,208.9,469.9,-3.2,0.7,-1.5,25,-861.032,207.735,476.197,-0.638818,-0.453238,-1.68524,
2026_07_06_17_14_57.050,3.871,48.7,0,0.772,0,0,0,0, ,0,0,0,0,0, ,-854.6,186.8,478.6,-3,-1.1,-0.3,25,-860.85,207.133,476.078,-0.788796,-0.437806,-1.63739,
2026_07_06_17_14_57.070,3.871,48.9,0,0.772,0,0,0,0, ,0,0,0,0,0, ,-859.6,190.4,514.1,-11.2,-3.8,1.4,25,-860.622,206.004,477.313,-1.17338,-0.560424,-1.50409,
2026_07_06_17_14_57.095,3.871,48.6,0,0.771,0,0,0,0, ,0,0,0,0,0, ,-907.7,233.1,497.3,-17.9,-1,1.8,25,-862.025,206.354,479.043,-1.98852,-0.672523,-1.31494,
2026_07_06_17_14_57.109,3.871,48.7,0,0.773,0,0,0,0, ,0,0,0,0,0, ,-882.9,216.9,430.6,-16.8,-8.1,-0.4,25,-864.053,207.49,478.123,-2.92461,-0.908807,-1.19215,
2026_07_06_17_14_57.129,3.871,48.6,0,0.774,0,0,0,0, ,0,0,0,0,0, ,-873,216,407.2,-11.8,-19.4,-0.5,25,-864.9,208.036,474.514,-3.6178,-1.69132,-1.14693,
2026_07_06_17_14_57.149,3.871,48.7,0,0.773,0,0,0,0, ,0,0,0,0,0, ,-890.2,208.6,441.5,-15.9,-34.1,-2,25,-865.917,208.296,471.458,-4.24132,-3.21833,-1.15321,
2026_07_06_17_14_57.168,3.871,48.6,0,0.773,0,0,0,0, ,0,0,0,0,0, ,-898.5,215.3,455.5,-23.8,-51.9,-2.8,25,-867.65,208.519,470.059,-5.19248,-5.64253,-1.22919,
2026_07_06_17_14_57.187,3.871,48.6,0,0.773,0,0,0,0, ,0,0,0,0,0, ,-883.7,209.1,457,-32,-83,-3.8,25,-869.079,208.743,469.217,-6.57622,-9.40892,-1.35538,
2026_07_06_17_14_57.209,3.871,48.7,0,0.772,0,0,0,0, ,0,0,0,0,0, ,-888.9,347.6,521.2,-49,-142.7,-4.5,25,-870.128,212.985,470.429,-8.64345,-15.7124,-1.52567,
2026_07_06_17_14_57.228,3.871,48.6,0,0.773,0,0,0,0, ,0,0,0,0,0, ,-922.4,357.2,698.4,-74.6,-168.3,-40,25,-872.293,221.48,478.922,-11.8827,-24.2307,-2.78856,
2026_07_06_17_14_57.247,3.871,48.5,0,0.773,0,0,0,0, ,0,0,0,0,0, ,-828.8,192.9,750.2,-86.9,-161.5,-47.4,25,-872.494,224.745,493.874,-16.0793,-32.8027,-5.2816,
2026_07_06_17_14_57.267,3.871,48.6,0,0.773,0,0,0,0, ,0,0,0,0,0, ,-725.9,107,774.2,-81.2,-158.9,-47.3,25,-866.697,220.187,510.225,-20.2212,-40.566,-7.84514,
2026_07_06_17_14_57.287,3.871,48.6,0,0.773,0,0,0,0, ,0,0,0,0,0, ,-627,-4.6,817.2,-79.3,-164.1,-43.4,25,-855.103,209.889,527.622,-23.8792,-47.9354,-10.1306,
2026_07_06_17_14_57.307,3.871,48.6,0,0.773,0,0,0,0, ,0,0,0,0,0, ,-583.3,34.1,837.8,-90.8,-166.1,-36.2,25,-839.872,197.998,545.895,-27.6068,-55.0751,-11.9386,
2026_07_06_17_14_57.327,3.871,48.6,0,0.773,0,0,0,0, ,0,0,0,0,0, ,-554.9,49.9,807.1,-94.3,-163.9,-46.6,25,-823.372,188.492,562.748,-31.5643,-61.7737,-13.7339,
2026_07_06_17_14_57.347,3.871,48.6,0,0.773,0,0,0,0, ,0,0,0,0,0, ,-487.9,-40.6,818.1,-88.7,-161.2,-45.9,25,-804.97,177.289,577.973,-35.2166,-67.9147,-15.7153,
2026_07_06_17_14_57.366,3.871,48.7,0,0.773,0,0,0,0, ,0,0,0,0,0, ,-416.1,-85.4,844.1,-85,-157,-39.2,25,-783.461,162.646,593.398,-38.363,-73.4713,-17.3506,
2026_07_06_17_14_57.386,3.871,48.6,0,0.774,0,0,0,0, ,0,0,0,0,0, ,-405.2,-130.1,864.9,-79.9,-148.7,-38.6,25,-760.743,146.169,609.309,-41.0496,-78.3085,-18.6637,
2026_07_06_17_14_57.406,3.871,48.7,0,0.771,0,0,0,0, ,0,0,0,0,0, ,-325.5,-136.2,868.2,-75,-142.1,-33.5,25,-736.649,129.148,624.985,-43.2677,-82.3968,-19.7232,
2026_07_06_17_14_57.426,3.871,48.6,0,0.774,0,0,0,0, ,0,0,0,0,0, ,-331,-138.3,880.1,-67.7,-127.8,-27.4,25,-711.762,112.914,640.168,-44.979,-85.5993,-20.3769,
2026_07_06_17_14_57.446,3.871,48.6,0,0.772,0,0,0,0, ,0,0,0,0,0, ,-316.6,-135.8,916.7,-56.2,-112.4,-26.7,25,-688.121,97.6822,655.904,-46.0132,-87.7017,-20.7835,
2026_07_06_17_14_57.471,3.871,48.6,0,0.774,0,0,0,0, ,0,0,0,0,0, ,-259.8,-213,945.8,-44,-100.3,-22.7,25,-663.75,81.1022,672.683,-46.2622,-88.8381,-21.0222,
2026_07_06_17_14_57.486,3.871,48.6,0,0.773,0,0,0,0, ,0,0,0,0,0, ,-230.7,-224.3,947.6,-35,-82.3,-15.4,25,-638.248,62.8361,689.381,-45.8501,-88.9881,-20.902,
2026_07_06_17_14_57.505,3.871,48.6,0,0.773,0,0,0,0, ,0,0,0,0,0, ,-208.1,-222,925.9,-21.6,-64.3,-8.7,25,-612.724,45.4088,704.455,-44.7807,-88.0321,-20.3626,
2026_07_06_17_14_57.526,3.871,48.5,0,0.773,0,0,0,0, ,0,0,0,0,0, ,-197.1,-205.6,911.8,-9.5,-50.5,-4.1,25,-587.733,29.6133,717.52,-42.9994,-86.1655,-19.5117,
2026_07_06_17_14_57.545,3.871,48.6,0,0.772,0,0,0,0, ,0,0,0,0,0, ,-201.4,-203.1,903.9,-4.5,-42.7,-9.2,25,-564.059,15.3561,729.118,-40.8057,-83.7544,-18.728,
2026_07_06_17_14_57.565,3.871,48.5,0,0.773,0,0,0,0, ,0,0,0,0,0, ,-158,-227.9,901.2,-7.1,-40.9,-7.8,25,-540.637,1.28832,739.687,-38.6726,-81.1978,-18.1047,
2026_07_06_17_14_57.584,3.871,48.6,0,0.773,0,0,0,0, ,0,0,0,0,0, ,-159.1,-210,906.3,-9.2,-43.5,-6.3,25,-517.354,-12.1324,749.684,-36.8126,-78.8214,-17.4311,
2026_07_06_17_14_57.604,3.871,48.6,0,0.773,0,0,0,0, ,0,0,0,0,0, ,-156.2,-221.6,942.9,-7.3,-43,-8,25,-495.435,-24.5434,760.343,-35.0721,-76.6538,-16.8046,
2026_07_06_17_14_57.624,3.871,48.6,0,0.772,0,0,0,0, ,0,0,0,0,0, ,-142.8,-236.8,958,-3.7,-32.1,-7.4,25,-474.354,-37.0147,771.928,-33.27,-74.2709,-16.2498,
2026_07_06_17_14_57.644,3.871,48.6,0,0.773,0,0,0,0, ,0,0,0,0,0, ,-136.7,-245.8,948.3,2.6,-18.6,-4.1,25,-453.964,-49.4633,782.971,-31.2761,-71.2898,-15.6099,
2026_07_06_17_14_57.664,3.871,48.4,0,0.774,0,0,0,0, ,0,0,0,0,0, ,-120.8,-237.9,925.5,8.9,-12.1,-1.2,25,-434.147,-61.1869,792.351,-29.0199,-67.8809,-14.8202,
2026_07_06_17_14_57.683,3.871,48.7,0,0.773,0,0,0,0, ,0,0,0,0,0, ,-101,-237.9,916.5,13.1,-11.4,-0.9,25,-414.449,-71.9553,800.191,-26.5811,-64.4605,-13.9811,
2026_07_06_17_14_57.704,3.871,48.5,0,0.772,0,0,0,0, ,0,0,0,0,0, ,-88.8,-242.5,954.5,11.7,-12.4,-1.2,25,-394.976,-82.2078,808.436,-24.2057,-61.2576,-13.1931,
2026_07_06_17_14_57.724,3.871,48.5,0,0.773,0,0,0,0, ,0,0,0,0,0, ,-95.2,-231.3,949.9,15.3,-10.6,2.1,25,-376.514,-91.6343,817.197,-21.908,-58.2255,-12.3617,
2026_07_06_17_14_57.743,3.871,48.5,0,0.774,0,0,0,0, ,0,0,0,0,0, ,-94.1,-213.7,948.9,18.5,-9.3,2.3,25,-359.338,-99.6089,825.253,-19.5432,-55.2837,-11.4743,
2026_07_06_17_14_57.763,3.871,48.5,0,0.773,0,0,0,0, ,0,0,0,0,0, ,-92,-188.3,951.2,18.7,-10.9,3.5,25,-343.111,-105.787,832.858,-17.2188,-52.5303,-10.5984,
2026_07_06_17_14_57.783,3.871,48.4,0,0.774,0,0,0,0, ,0,0,0,0,0, ,-108.6,-178.3,971,14.7,-13.6,2.2,25,-328.314,-110.511,840.672,-15.1519,-50.0757,-9.77889,
2026_07_06_17_14_57.802,3.871,48.5,0,0.772,0,0,0,0, ,0,0,0,0,0, ,-116.4,-165.2,982.4,9.2,-13.2,0.7,25,-315.163,-114.243,848.962,-13.5004,-47.8408,-9.09463,
2026_07_06_17_14_57.822,3.871,48.4,0,0.772,0,0,0,0, ,0,0,0,0,0, ,-113.2,-159.1,990.4,6.5,-12.1,0.4,25,-302.954,-117.162,857.337,-12.1993,-45.6964,-8.50691,
2026_07_06_17_14_57.843,3.871,48.5,0,0.773,0,0,0,0, ,0,0,0,0,0, ,-111.8,-170.5,1005.4,6.5,-11.5,-0.3,25,-291.348,-120.065,865.902,-11.0598,-43.6308,-7.98548,
2026_07_06_17_14_57.862,3.871,48.4,0,0.773,0,0,0,0, ,0,0,0,0,0, ,-115.2,-167.7,1009.3,5.5,-8.7,-0.8,25,-280.51,-123.053,874.522,-10.0203,-41.5875,-7.53238,
2026_07_06_17_14_57.882,3.871,48.6,0,0.774,0,0,0,0, ,0,0,0,0,0, ,-106.8,-166,1000.8,3.4,-6.9,-1.6,25,-270.181,-125.722,882.476,-9.13848,-39.5286,-7.1465,
2026_07_06_17_14_57.902,3.871,48.5,0,0.773,0,0,0,0, ,0,0,0,0,0, ,-98.1,-166,999,0.9,-8.6,-2.3,25,-259.96,-128.176,889.631,-8.45059,-37.5921,-6.82984,
2026_07_06_17_14_57.922,3.871,48.5,0,0.773,0,0,0,0, ,0,0,0,0,0, ,-87.2,-165.8,1007.6,0.1,-11.7,-1.5,25,-249.764,-130.475,896.558,-7.90516,-35.9198,-6.52942,
2026_07_06_17_14_57.941,3.871,48.4,0,0.773,0,0,0,0, ,0,0,0,0,0, ,-99.2,-164.4,1010.9,2.4,-11.2,-1.2,25,-240.224,-132.585,903.425,-7.34727,-34.4287,-6.2138,
2026_07_06_17_14_57.960,3.871,48.5,0,0.773,0,0,0,0, ,0,0,0,0,0, ,-90.3,-166.5,1019,1.7,-6.9,-1.8,25,-231.359,-134.588,910.221,-6.77462,-32.8822,-5.92656,
2026_07_06_17_14_57.981,3.871,48.5,0,0.773,0,0,0,0, ,0,0,0,0,0, ,-93.6,-164,1016.6,-2.9,-4.6,-3.2,25,-222.863,-136.456,916.777,-6.39836,-31.2288,-5.71775,
2026_07_06_17_14_58.000,3.871,48.5,0,0.772,0,0,0,0, ,0,0,0,0,0, ,-80,-160.8,1010.8,-6.1,-5.1,-3.9,25,-214.572,-138.037,922.683,-6.28268,-29.6214,-5.58565,
2026_07_06_17_14_58.020,3.871,48.4,0,0.774,0,0,0,0, ,0,0,0,0,0, ,-83.6,-167.6,1004.3,-4.8,-5,-3.3,25,-206.481,-139.631,927.855,-6.23194,-28.124,-5.46465,
2026_07_06_17_14_58.040,3.871,48.5,0,0.773,0,0,0,0, ,0,0,0,0,0, ,-93,-149.6,1006.2,-6.9,-8.4,-3.7,25,-199.28,-140.787,932.571,-6.20866,-26.8185,-5.34493,
2026_07_06_17_14_58.060,3.871,48.4,0,0.773,0,0,0,0, ,0,0,0,0,0, ,-103.5,-139.1,1016.2,-14.2,-11,-7.3,25,-193.123,-141.004,937.362,-6.47321,-25.7754,-5.35438,
2026_07_06_17_14_58.080,3.871,48.4,0,0.773,0,0,0,0, ,0,0,0,0,0, ,-93.5,-166.1,1037.1,-18.1,-10.8,-8.6,25,-187.357,-141.711,942.803,-7.06289,-24.8689,-5.51255,
2026_07_06_17_14_58.100,3.871,48.4,0,0.773,0,0,0,0, ,0,0,0,0,0, ,-85.8,-180.7,1042.3,-15.8,-9.8,-6.7,25,-181.403,-143.642,948.708,-7.66539,-23.9811,-5.6428,
2026_07_06_17_14_58.119,3.871,48.4,0,0.774,0,0,0,0, ,0,0,0,0,0, ,-86.6,-178.8,1044.7,-14.7,-10.3,-6.2,25,-175.602,-145.842,954.484,-8.12757,-23.1322,-5.69199,
2026_07_06_17_14_58.138,3.871,48.4,0,0.774,0,0,0,0, ,0,0,0,0,0, ,-111.9,-165.1,1043.5,-15.8,-12.8,-8.4,25,-170.949,-147.433,959.945,-8.5616,-22.4264,-5.78998,
2026_07_06_17_14_58.158,3.871,48.4,0,0.772,0,0,0,0, ,0,0,0,0,0, ,-98.8,-177.6,1052.1,-20.6,-13.7,-12.2,25,-166.951,-148.891,965.299,-9.14894,-21.8672,-6.06481,
2026_07_06_17_14_58.178,3.871,48.4,0,0.772,0,0,0,0, ,0,0,0,0,0, ,-79.3,-195.5,1052.2,-24,-13.4,-14.5,25,-162.204,-151.186,970.591,-9.95033,-21.3604,-6.50875,
2026_07_06_17_14_58.199,3.871,48.4,0,0.773,0,0,0,0, ,0,0,0,0,0, ,-78.6,-195.1,1068.6,-27.7,-15.9,-16.2,25,-157.131,-153.874,976.064,-10.9192,-20.9515,-7.04751,
2026_07_06_17_14_58.218,3.871,48.4,0,0.773,0,0,0,0, ,0,0,0,0,0, ,-72.9,-210.4,1067.5,-34.1,-14.5,-19,25,-152.172,-156.852,981.67,-12.1368,-20.601,-7.69056,
2026_07_06_17_14_58.237,3.871,48.4,0,0.773,0,0,0,0, ,0,0,0,0,0, ,-57.3,-219.7,1026.6,-36.9,-9.3,-18.5,25,-146.866,-160.399,985.654,-13.5605,-20.0708,-8.36449,
2026_07_06_17_14_58.262,3.871,48.4,0,0.772,0,0,0,0, ,0,0,0,0,0, ,-79.9,-207.1,983.5,-34.9,-16.2,-19.3,25,-142.097,-163.628,986.836,-14.9218,-19.6246,-9.0065,
2026_07_06_17_14_58.278,3.871,48.3,0,0.772,0,0,0,0, ,0,0,0,0,0, ,-96.1,-221.3,976.3,-38.7,-29.2,-27,25,-138.8,-166.71,986.413,-16.255,-19.8121,-9.86837,
2026_07_06_17_14_58.298,3.871,48.4,0,0.775,0,0,0,0, ,0,0,0,0,0, ,-92.6,-254.8,968.2,-41.6,-35.5,-33,25,-136.091,-171.057,985.55,-17.7111,-20.5761,-11.0951,
2026_07_06_17_14_58.317,3.871,48.4,0,0.772,0,0,0,0, ,0,0,0,0,0, ,-41.9,-299.9,965.9,-41.5,-31.6,-36.7,25,-131.896,-177.535,984.423,-19.1638,-21.3667,-12.5427,
2026_07_06_17_14_58.337,3.871,48.4,0,0.772,0,0,0,0, ,0,0,0,0,0, ,-3,-297.3,951.1,-38.1,-29.5,-38,25,-125.227,-184.912,982.843,-20.4213,-21.9263,-14.0544,
2026_07_06_17_14_58.357,3.871,48.4,0,0.773,0,0,0,0, ,0,0,0,0,0, ,13.4,-331,956.2,-36.8,-32.7,-38.2,25,-117.279,-192.787,981.064,-21.459,-22.4853,-15.5197,
2026_07_06_17_14_58.377,3.871,48.4,0,0.773,0,0,0,0, ,0,0,0,0,0, ,-2.5,-316.4,891.7,-36.9,-35.3,-40.4,25,-109.8,-200.765,977.584,-22.3969,-23.187,-16.9688,
2026_07_06_17_14_58.396,3.871,48.4,0,0.772,0,0,0,0, ,0,0,0,0,0, ,1.4,-278.9,847.2,-34.6,-43.1,-49.3,25,-103.143,-206.669,970.994,-23.2106,-24.1628,-18.6678,
2026_07_06_17_14_58.416,3.871,48.4,0,0.773,0,0,0,0, ,0,0,0,0,0, ,56.6,-317.1,881.7,-32,-48.2,-57.9,25,-95.0904,-212.234,964.502,-23.8254,-25.4722,-20.7965,
2026_07_06_17_14_58.437,3.871,48.4,0,0.773,0,0,0,0, ,0,0,0,0,0, ,140,-362.6,922.6,-35,-46.5,-61.4,25,-83.3057,-220.011,960.702,-24.415,-26.8053,-23.1641,
2026_07_06_17_14_58.456,3.871,48.4,0,0.773,0,0,0,0, ,0,0,0,0,0, ,183.8,-353.3,932.2,-38.4,-49.4,-60.9,25,-68.3635,-228.417,958.673,-25.1636,-28.0938,-25.4789,
2026_07_06_17_14_58.475,3.871,48.4,0,0.774,0,0,0,0, ,0,0,0,0,0, ,186.4,-334.8,939.4,-38.6,-47.3,-63.4,25,-52.918,-235.463,957.279,-25.9763,-29.3282,-27.7135,
2026_07_06_17_14_58.496,3.871,48.3,0,0.772,0,0,0,0, ,0,0,0,0,0, ,255.9,-387.2,939.8,-35,-34.5,-62.2,25,-36.217,-243.113,956.202,-26.6358,-30.0334,-29.8516,
2026_07_06_17_14_58.515,3.871,48.3,0,0.773,0,0,0,0, ,0,0,0,0,0, ,304.9,-419.6,900.3,-30.3,-23.3,-52.8,25,-16.9232,-252.88,953.999,-27.0023,-29.9643,-31.5364,
2026_07_06_17_14_58.535,3.871,48.3,0,0.774,0,0,0,0, ,0,0,0,0,0, ,277.5,-350.5,837.7,-26,-26.2,-46.8,25,1.85308,-260.935,948.819,-27.0723,-29.6465,-32.6494,
2026_07_06_17_14_58.555,3.871,48.3,0,0.771,0,0,0,0, ,0,0,0,0,0, ,260.3,-334.7,822.5,-28.1,-36.9,-54.4,25,18.1262,-265.911,941.585,-27.0709,-29.7625,-33.7432,
2026_07_06_17_14_58.575,3.871,48.3,0,0.773,0,0,0,0, ,0,0,0,0,0, ,278.5,-390.8,843.9,-32.2,-27,-51.3,25,33.4382,-271.812,934.98,-27.2585,-29.8958,-34.9076,
2026_07_06_17_14_58.594,3.871,48.3,0,0.773,0,0,0,0, ,0,0,0,0,0, ,283.4,-371.9,797.6,-29.5,-14.9,-49.9,25,48.521,-278.487,928.019,-27.4774,-29.3507,-35.8638,
2026_07_06_17_14_58.614,3.871,48.3,0,0.773,0,0,0,0, ,0,0,0,0,0, ,322.2,-394.4,749,-23.5,-11.6,-52.3,25,64.0161,-284.865,918.591,-27.4178,-28.3696,-36.7923,
2026_07_06_17_14_58.634,3.871,48.3,0,0.774,0,0,0,0, ,0,0,0,0,0, ,376.7,-431.1,724.9,-21.7,-19.3,-47.6,25,81.4097,-292.658,907.522,-27.1242,-27.5823,-37.5941,
2026_07_06_17_14_58.654,3.871,48.3,0,0.774,0,0,0,0, ,0,0,0,0,0, ,374.7,-410.2,723.7,-23.1,-31,-43.2,25,99.343,-300.457,896.357,-26.8364,-27.4341,-38.0697,
2026_07_06_17_14_58.674,3.871,48.2,0,0.772,0,0,0,0, ,0,0,0,0,0, ,361,-407.8,750.1,-21.7,-36,-45.6,25,115.705,-307.072,886.64,-26.566,-27.8037,-38.4555,
2026_07_06_17_14_58.695,3.871,48.4,0,0.773,0,0,0,0, ,0,0,0,0,0, ,398.1,-477.1,795.5,-20.5,-32.6,-42.6,25,131.783,-315.321,879.703,-26.2329,-28.1996,-38.7995,
2026_07_06_17_14_58.713,3.871,48.4,0,0.773,0,0,0,0, ,0,0,0,0,0, ,432.9,-490.1,809,-28.6,-30.7,-35.3,25,149.072,-325.576,874.983,-26.1304,-28.4098,-38.8086,
2026_07_06_17_14_58.734,3.871,48.3,0,0.773,0,0,0,0, ,0,0,0,0,0, ,429.3,-451.1,786.7,-34.5,-29.9,-29.4,25,166.258,-334.413,870.283,-26.4606,-28.525,-38.4151,
2026_07_06_17_14_58.753,3.871,48.2,0,0.773,0,0,0,0, ,0,0,0,0,0, ,395.5,-419.4,755.4,-25.5,-31.6,-26.6,25,181.258,-340.558,864.236,-26.6763,-28.6606,-37.7804,
2026_07_06_17_14_58.773,3.871,48.2,0,0.771,0,0,0,0, ,0,0,0,0,0, ,398.6,-477.2,781.6,-13,-36.8,-22.1,25,194.407,-347.124,858.402,-26.2238,-28.9982,-36.962,
2026_07_06_17_14_58.792,3.871,48.3,0,0.773,0,0,0,0, ,0,0,0,0,0, ,531.9,-464.2,491.2,-13.5,-56.4,-24.2,25,210.912,-354.654,844.874,-25.4332,-30.0708,-36.1203,
2026_07_06_17_14_58.813,3.871,48.3,0,0.773,0,0,0,0, ,0,0,0,0,0, ,490.4,-513.1,725.3,-11.1,-111,-18.2,25,229.208,-362.819,830.454,-24.6329,-33.3388,-35.2111,
2026_07_06_17_14_58.832,3.871,48.3,0,0.774,0,0,0,0, ,0,0,0,0,0, ,468.3,-427.7,753.2,-23.4,-95.2,-19.6,25,244.451,-369.375,824.897,-24.183,-37.5899,-34.2171,
2026_07_06_17_14_58.852,3.871,48.2,0,0.773,0,0,0,0, ,0,0,0,0,0, ,377.4,-412.1,810.6,-37.3,-43.1,-24.9,25,255.322,-372.454,822.277,-24.5588,-39.5131,-33.4879,
2026_07_06_17_14_58.872,3.871,48.2,0,0.773,0,0,0,0, ,0,0,0,0,0, ,426,-544.4,744.9,-27.7,-16,-24.7,25,264.242,-378.901,819.563,-25.0427,-38.9059,-32.9585,
2026_07_06_17_14_58.892,3.871,48.2,0,0.772,0,0,0,0, ,0,0,0,0,0, ,463.8,-489.5,790.6,-30.1,-14.1,-18,25,275.251,-387.313,816.406,-25.2778,-37.4522,-32.2511,
2026_07_06_17_14_58.912,3.871,48.2,0,0.773,0,0,0,0, ,0,0,0,0,0, ,465.3,-490.8,825.4,-56.3,-20.8,-15.2,25,286.786,-393.58,815.894,-26.3699,-36.2333,-31.2973,
2026_07_06_17_14_58.931,3.871,48.3,0,0.773,0,0,0,0, ,0,0,0,0,0, ,454.5,-519.2,754.6,-71.7,-25.4,-7,25,297.335,-400.37,814.316,-28.663,-35.433,-30.0666,
2026_07_06_17_14_58.952,3.871,48.2,0,0.773,0,0,0,0, ,0,0,0,0,0, ,504.2,-582.8,747,-88.9,-31.9,-5.1,25,308.427,-409.549,810.445,-31.8096,-35.0197,-28.6031,
2026_07_06_17_14_58.971,3.871,48.2,0,0.774,0,0,0,0, ,0,0,0,0,0, ,431.1,-561.4,765.8,-100,-33.8,-12.9,25,318.129,-419.454,807.152,-35.6268,-34.8875,-27.4085,
2026_07_06_17_14_58.990,3.871,48.2,0,0.773,0,0,0,0, ,0,0,0,0,0, ,521.9,-673.2,813.9,-89.1,-53.9,-11.2,25,327.78,-431.51,806.098,-39.2174,-35.4336,-26.4726,
2026_07_06_17_14_59.011,3.871,48.3,0,0.772,0,0,0,0, ,0,0,0,0,0, ,469.4,-234.9,680,-17.5,-88.8,32.2,25,338.01,-432.884,802.493,-40.0756,-37.6223,-24.2196,
2026_07_06_17_14_59.030,3.871,48.3,0,0.773,0,0,0,0, ,0,0,0,0,0, ,580.8,-541.7,591.1,-27.3,-88.2,58.4,25,349.41,-430.167,792.32,-38.9985,-40.7226,-19.9832,
2026_07_06_17_14_59.052,3.871,48.2,0,0.773,0,0,0,0, ,0,0,0,0,0, ,604.4,-620.3,474.2,-28.6,-51.8,17.1,25,364.23,-439.358,776.496,-38.3252,-42.5067,-16.4651,
2026_07_06_17_14_59.070,3.871,48.2,0,0.773,0,0,0,0, ,0,0,0,0,0, ,576.1,-738,561.2,-27.7,-22.3,-15.4,25,378.003,-453.971,760.726,-37.7051,-42.1742,-15.41,
2026_07_06_17_14_59.090,3.871,48.2,0,0.772,0,0,0,0, ,0,0,0,0,0, ,526.6,-714.1,740.4,17.8,-32.9,-41.4,25,388.566,-470.55,754.027,-35.7091,-41.2861,-16.2015,
2026_07_06_17_14_59.109,3.871,48.2,0,0.773,0,0,0,0, ,0,0,0,0,0, ,589.5,-614,759.3,59.2,-70.5,-53.9,25,398.894,-482.342,753.773,-31.187,-41.9207,-18.1179,
2026_07_06_17_14_59.129,3.871,48.2,0,0.772,0,0,0,0, ,0,0,0,0,0, ,641.9,-631.2,674.6,57.6,-81,-58.2,25,412.106,-490.889,751.529,-25.7278,-43.9822,-20.4294,
2026_07_06_17_14_59.149,3.871,48.2,0,0.773,0,0,0,0, ,0,0,0,0,0, ,644,-608.8,561,30.6,-91.2,-74.1,25,426.173,-498.757,743.38,-21.4727,-46.5487,-23.2155,
2026_07_06_17_14_59.169,3.871,48.2,0,0.773,0,0,0,0, ,0,0,0,0,0, ,628,-543.5,409.1,16.2,-88.9,-78.9,25,438.959,-503.473,727.638,-18.7382,-49.1996,-26.4625,
2026_07_06_17_14_59.189,3.871,48.2,0,0.772,0,0,0,0, ,0,0,0,0,0, ,684.3,-526.6,417.3,9,-67.4,-73.8,25,452.194,-505.397,708.477,-16.8286,-50.9637,-29.5026,
2026_07_06_17_14_59.209,3.871,48.1,0,0.771,0,0,0,0, ,0,0,0,0,0, ,664.6,-454.1,413.6,4.4,-72.1,-80.1,25,465.738,-504.48,690.621,-15.3948,-52.1085,-32.3939,
2026_07_06_17_14_59.229,3.871,48.2,0,0.773,0,0,0,0, ,0,0,0,0,0, ,730.2,-311.4,336.3,-1.8,-77.4,-87.8,25,479.855,-497.062,671.384,-14.3775,-53.4882,-35.5356,
2026_07_06_17_14_59.256,3.871,48.1,0,0.773,0,0,0,0, ,0,0,0,0,0, ,758.7,-193.3,302.1,16.4,-59,-84.9,25,495.979,-482.15,649.923,-13.0565,-54.3847,-38.6321,
2026_07_06_17_14_59.269,3.871,48.2,0,0.774,0,0,0,0, ,0,0,0,0,0, ,785.4,-123.2,373.5,22.1,-49.4,-68.6,25,512.802,-462.412,630.903,-11.0878,-54.3735,-40.9549,
2026_07_06_17_14_59.288,3.871,48.2,0,0.771,0,0,0,0, ,0,0,0,0,0, ,796.5,-97,441.4,22.3,-46.1,-43,25,529.751,-440.943,617.286,-9.05933,-53.9699,-41.8595,
2026_07_06_17_14_59.308,3.871,48.1,0,0.773,0,0,0,0, ,0,0,0,0,0, ,807.2,-180.5,437,20.2,-42.3,-17.4,25,546.332,-422.528,606.434,-7.21236,-53.3745,-41.149,
2026_07_06_17_14_59.328,3.871,48.1,0,0.772,0,0,0,0, ,0,0,0,0,0, ,793.4,-295.1,332.2,32.9,-28.7,5,25,561.809,-411.271,592.916,-5.15496,-52.2853,-39.0193,
2026_07_06_17_14_59.347,3.871,48.1,0,0.773,0,0,0,0, ,0,0,0,0,0, ,763.4,-386.9,223,31.7,-7.5,18.9,25,575.007,-406.989,573.702,-2.87255,-50.2021,-35.9134,
2026_07_06_17_14_59.367,3.871,48.2,0,0.772,0,0,0,0, ,0,0,0,0,0, ,768.4,-363.6,173.2,7.8,22.8,23.8,25,586.64,-405.055,550.813,-1.49399,-46.6768,-32.4239,
2026_07_06_17_14_59.387,3.871,48.1,0,0.773,0,0,0,0, ,0,0,0,0,0, ,345.8,-992.3,1286.4,-47.2,13.8,1.6,25,584.84,-421.685,561.72,-2.60342,-42.7172,-29.6742,
2026_07_06_17_14_59.407,3.871,48.1,0,0.772,0,0,0,0, ,0,0,0,0,0, ,759.3,-317.3,457.8,-22.2,-108.1,-76.1,25,582.872,-435.89,580.634,-4.5593,-42.9874,-30.1358,
2026_07_06_17_14_59.427,3.871,48.1,0,0.772,0,0,0,0, ,0,0,0,0,0, ,716.4,-325.4,477.5,24.9,-137.7,-21.9,25,592.316,-428.91,573.749,-4.19921,-47.857,-31.2853,
2026_07_06_17_14_59.447,3.871,48,0,0.772,0,0,0,0, ,0,0,0,0,0, ,949.3,-311.7,440.9,-12.3,-129.6,-21.7,25,606.973,-422.185,566.769,-3.55941,-53.085,-30.7073,
2026_07_06_17_14_59.472,3.871,48.1,0,0.772,0,0,0,0, ,0,0,0,0,0, ,791.6,-522.9,17,-2.5,-201.6,12.9,25,623.029,-421.888,546.183,-3.79345,-59.9414,-29.1042,
2026_07_06_17_14_59.486,3.871,48,0,0.772,0,0,0,0, ,0,0,0,0,0, ,1006.4,-232.6,-360.8,-42.9,-250.1,66.7,25,639.846,-419.198,502.425,-4.94556,-70.0515,-24.9054,
2026_07_06_17_14_59.505,3.871,48,0,0.772,0,0,0,0, ,0,0,0,0,0, ,1409.3,-446.2,-98.7,-43,-250.1,48.1,25,674.459,-414.335,457.808,-7.26146,-81.0232,-19.8899,
2026_07_06_17_14_59.525,3.871,48,0,0.772,0,0,0,0, ,0,0,0,0,0, ,1329.2,-477.7,33.8,-17.9,-250.1,54.5,25,716.798,-417.237,427.933,-8.67451,-91.3263,-15.5518,
2026_07_06_17_14_59.546,3.871,48.1,0,0.772,0,0,0,0, ,0,0,0,0,0, ,1044.7,-334.5,-14.1,20.3,-131.7,4.8,25,745.448,-416.558,402.456,-8.07278,-97.3941,-12.7973,
2026_07_06_17_14_59.566,3.871,48.1,0,0.773,0,0,0,0, ,0,0,0,0,0, ,860.9,-372.1,-196.8,43.5,-131.3,-11,25,758.083,-412.703,371.505,-5.63694,-99.4724,-12.2063,
2026_07_06_17_14_59.585,3.871,48.1,0,0.771,0,0,0,0, ,0,0,0,0,0, ,793.7,-340,-283.3,60.4,-96.8,-21.2,25,762.301,-409.251,334.239,-2.12774,-100.361,-12.4436,
2026_07_06_17_14_59.605,3.871,48.1,0,0.773,0,0,0,0, ,0,0,0,0,0, ,757.5,-334.7,-217.2,71.1,-82.1,-35,25,763.111,-404.87,298.622,2.00856,-99.6959,-13.3977,
2026_07_06_17_14_59.624,3.871,48,0,0.774,0,0,0,0, ,0,0,0,0,0, ,719.6,-286.2,-66.7,62.7,-41.4,-56.7,25,761.615,-399.116,271.774,5.96288,-97.3835,-15.3752,
2026_07_06_17_14_59.644,3.871,48,0,0.772,0,0,0,0, ,0,0,0,0,0, ,724.6,-237,10.8,47.3,-7.6,-80.1,25,759.207,-390.736,253.51,8.95108,-92.9422,-18.6064,
2026_07_06_17_14_59.664,3.871,48,0,0.773,0,0,0,0, ,0,0,0,0,0, ,898.6,-254.5,40,27.9,25,-87.8,25,762.399,-381.901,239.609,10.6969,-86.7484,-22.5883,
2026_07_06_17_14_59.684,3.871,48.1,0,0.773,0,0,0,0, ,0,0,0,0,0, ,998.6,-277.9,-4.6,16.1,62.5,-75.6,25,773.746,-374.85,226.087,11.3857,-78.7961,-26.1904,
2026_07_06_17_14_59.704,3.871,48.1,0,0.773,0,0,0,0, ,0,0,0,0,0, ,963.5,-239.2,-13.3,15.1,85.2,-60.9,25,786.379,-367.763,211.764,11.6425,-69.4943,-28.7534,
2026_07_06_17_14_59.724,3.871,48.1,0,0.773,0,0,0,0, ,0,0,0,0,0, ,916.7,-187,47.1,22.4,86.7,-60.8,25,795.746,-358.339,199.89,12.0756,-60.0219,-30.7093,
2026_07_06_17_14_59.743,3.871,48,0,0.773,0,0,0,0, ,0,0,0,0,0, ,876.5,-171.5,65.9,22.1,83,-78.2,25,801.892,-347.425,191.152,12.6956,-51.1937,-33.0731,
2026_07_06_17_14_59.763,3.871,48,0,0.772,0,0,0,0, ,0,0,0,0,0, ,884.3,-165.2,109.4,19,65.4,-87.5,25,806.676,-336.513,184.845,13.1742,-43.5526,-36.1064,
2026_07_06_17_14_59.785,3.871,48,0,0.772,0,0,0,0, ,0,0,0,0,0, ,1045.1,-133.7,164.6,10,51.4,-64,25,816.305,-325.114,181.929,13.255,-37.3398,-38.5222,
2026_07_06_17_14_59.803,3.871,48,0,0.773,0,0,0,0, ,0,0,0,0,0, ,1069.5,-92.1,168.4,0.8,34.3,-40.8,25,830.991,-312.182,180.989,12.7763,-32.4533,-39.3679,
2026_07_06_17_14_59.823,3.871,48,0,0.772,0,0,0,0, ,0,0,0,0,0, ,1040.7,-63.9,142.9,-16.5,26.9,-36.2,25,844.648,-297.912,179.445,11.5194,-28.611,-39.315,
2026_07_06_17_14_59.843,3.871,48,0,0.772,0,0,0,0, ,0,0,0,0,0, ,1062.6,-59.9,135.1,-24.5,33.8,-33.7,25,857.262,-283.53,176.98,9.56824,-25.018,-39.049,
2026_07_06_17_14_59.863,3.871,48,0,0.772,0,0,0,0, ,0,0,0,0,0, ,1076.9,-87,53.1,-22.2,45.3,-28.3,25,870.21,-270.728,171.93,7.56229,-21.0834,-38.5585,
2026_07_06_17_14_59.882,3.871,47.9,0,0.771,0,0,0,0, ,0,0,0,0,0, ,1065.7,-95,64.4,2.1,59.8,-31,25,882.464,-259.776,165.033,6.48904,-16.5964,-38.0156,
2026_07_06_17_14_59.906,3.871,48,0,0.772,0,0,0,0, ,0,0,0,0,0, ,973.3,-78.2,150.7,10.9,44.1,-22.4,25,890.815,-249.223,161.53,6.48971,-12.4193,-37.3261,
2026_07_06_17_14_59.923,3.871,48,0,0.772,0,0,0,0, ,0,0,0,0,0, ,947,-51.3,218.6,11.7,8.7,-26.2,25,895.04,-237.982,162.939,6.78283,-10.0538,-36.5323,
2026_07_06_17_14_59.941,3.871,48,0,0.773,0,0,0,0, ,0,0,0,0,0, ,1048.5,-70.5,209.1,14.9,-15.8,-24.1,25,901.299,-227.191,166.041,7.17997,-9.65745,-35.8387,
2026_07_06_17_14_59.961,3.871,47.9,0,0.771,0,0,0,0, ,0,0,0,0,0, ,1097.5,-51.7,188.7,8.5,-23.2,-11.2,25,911.762,-217.069,168.044,7.45541,-10.2572,-34.7303,
2026_07_06_17_14_59.981,3.871,47.9,0,0.773,0,0,0,0, ,0,0,0,0,0, ,1104.3,-68.8,182.7,4.6,-8.9,-1.1,25,923.288,-207.513,169.12,7.40024,-10.6102,-32.9887,
2026_07_06_17_15_00.001,3.871,47.9,0,0.772,0,0,0,0, ,0,0,0,0,0, ,1039.1,-67.8,164,0.2,5.8,0.5,25,932.331,-199.03,169.377,7.09554,-10.0581,-30.9967,
2026_07_06_17_15_00.020,3.871,48,0,0.773,0,0,0,0, ,0,0,0,0,0, ,990.9,-65.5,141.6,-5,6.8,-1.7,25,937.369,-190.963,168.367,6.5169,-9.0613,-29.1444,
2026_07_06_17_15_00.041,3.871,48,0,0.772,0,0,0,0, ,0,0,0,0,0, ,962,-58.1,133.1,-4.8,-7.8,-4.1,25,939.751,-183.092,166.477,5.82118,-8.53959,-27.5452,
2026_07_06_17_15_00.060,3.871,48,0,0.773,0,0,0,0, ,0,0,0,0,0, ,979.1,-80.4,134,0.8,-27,-3.9,25,941.627,-176.155,164.471,5.34458,-9.07952,-26.1104,
2026_07_06_17_15_00.080,3.871,48,0,0.772,0,0,0,0, ,0,0,0,0,0, ,1050,-104.9,116.3,7.6,-33.3,2.4,25,946.071,-171.066,162.074,5.27483,-10.3635,-24.565,
2026_07_06_17_15_00.100,3.871,48,0,0.772,0,0,0,0, ,0,0,0,0,0, ,1029,-101.5,127.3,6.9,-23.3,8.9,25,951.764,-166.931,159.62,5.3952,-11.4565,-22.7238,
2026_07_06_17_15_00.124,3.871,48,0,0.772,0,0,0,0, ,0,0,0,0,0, ,959.5,-64.9,116.2,4.3,-11.6,4.9,25,954.353,-161.828,157.313,5.40768,-11.8217,-20.9186,
2026_07_06_17_15_00.140,3.871,47.9,0,0.772,0,0,0,0, ,0,0,0,0,0, ,919.1,-69,105.5,0.6,0,-2.7,25,953.436,-156.047,154.481,5.22744,-11.4548,-19.5768,
2026_07_06_17_15_00.160,3.871,48,0,0.772,0,0,0,0, ,0,0,0,0,0, ,939.2,-76,114.7,-3.1,3.9,-7.4,25,951.956,-150.956,151.777,4.83272,-10.6379,-18.6916,
2026_07_06_17_15_00.178,3.871,47.8,0,0.772,0,0,0,0, ,0,0,0,0,0, ,982.2,-89.8,96.8,0.1,-1.8,-6.9,25,952.489,-146.808,148.972,4.44682,-9.9257,-17.9883,
2026_07_06_17_15_00.199,3.871,48,0,0.771,0,0,0,0, ,0,0,0,0,0, ,982,-93.7,69.7,6.1,-10.4,-3.9,25,954.293,-143.453,144.967,4.36475,-9.69257,-17.2212,
2026_07_06_17_15_00.218,3.871,47.9,0,0.773,0,0,0,0, ,0,0,0,0,0, ,975.7,-82.7,74,6.5,-12.7,-4.1,25,955.79,-140.086,140.511,4.48268,-9.80576,-16.4155,
2026_07_06_17_15_00.238,3.871,47.9,0,0.773,0,0,0,0, ,0,0,0,0,0, ,963.1,-80.3,75.5,3.3,-15,-7.4,25,956.619,-136.516,136.504,4.50811,-10.0522,-15.7656,
2026_07_06_17_15_00.258,3.871,48,0,0.772,0,0,0,0, ,0,0,0,0,0, ,990.7,-79.3,76,1.6,-16.6,-6.9,25,957.855,-133.06,132.802,4.38269,-10.4025,-15.2406,
2026_07_06_17_15_00.278,3.871,47.9,0,0.772,0,0,0,0, ,0,0,0,0,0, ,1007.9,-77.6,101.1,1.8,-10.5,-5.2,25,960.381,-129.732,130.105,4.21922,-10.5943,-14.6805,
2026_07_06_17_15_00.299,3.871,47.9,0,0.773,0,0,0,0, ,0,0,0,0,0, ,981.4,-52,104.9,-0.7,-3.3,-5.4,25,962.469,-125.775,128.454,3.99562,-10.3691,-14.1089,
2026_07_06_17_15_00.317,3.871,47.9,0,0.772,0,0,0,0, ,0,0,0,0,0, ,969.2,-63.9,74,-5.3,-0.5,-9.8,25,963.251,-121.642,126.077,3.56933,-9.85306,-13.7123,
2026_07_06_17_15_00.337,3.871,47.9,0,0.772,0,0,0,0, ,0,0,0,0,0, ,1008,-68.8,61.1,-5.4,-4.3,-10.2,25,964.796,-118.273,122.51,3.02581,-9.39889,-13.486,
2026_07_06_17_15_00.356,3.871,47.8,0,0.772,0,0,0,0, ,0,0,0,0,0, ,1044.3,-71.1,39.7,1.2,-10,-5.3,25,968.534,-115.328,118.116,2.71345,-9.26185,-13.1365,
2026_07_06_17_15_00.377,3.871,48,0,0.773,0,0,0,0, ,0,0,0,0,0, ,1039.6,-71,79.9,5.6,-7.5,-1.4,25,973.008,-112.63,114.562,2.75529,-9.23065,-12.5401,
2026_07_06_17_15_00.397,3.871,47.9,0,0.772,0,0,0,0, ,0,0,0,0,0, ,986.2,-55.4,85.4,6.2,-6.1,-0.7,25,975.439,-109.618,112.618,2.94692,-9.08254,-11.84,
2026_07_06_17_15_00.416,3.871,47.9,0,0.771,0,0,0,0, ,0,0,0,0,0, ,950.8,-52.7,79.1,4.2,-6.3,-2.7,25,975.016,-106.232,110.767,3.08422,-8.90688,-11.2221,
2026_07_06_17_15_00.437,3.871,47.8,0,0.773,0,0,0,0, ,0,0,0,0,0, ,943.1,-60,65.1,2.4,-5.3,-6.1,25,973.306,-103.192,108.411,3.09737,-8.71756,-10.8063,
2026_07_06_17_15_00.456,3.871,47.9,0,0.773,0,0,0,0, ,0,0,0,0,0, ,944.5,-57.4,65.9,2.7,-3.5,-7.5,25,971.508,-100.481,105.796,3.06401,-8.45446,-10.5622,
2026_07_06_17_15_00.476,3.871,47.9,0,0.772,0,0,0,0, ,0,0,0,0,0, ,947,-55.5,48.3,6.4,-6.9,-10.2,25,969.938,-97.7977,102.829,3.15456,-8.25614,-10.4579,
2026_07_06_17_15_00.497,3.871,47.9,0,0.772,0,0,0,0, ,0,0,0,0,0, ,972.4,-49,52.1,10,-13.3,-10,25,969.314,-95.0222,99.6216,3.46202,-8.3685,-10.4361,
2026_07_06_17_15_00.515,3.871,47.9,0,0.773,0,0,0,0, ,0,0,0,0,0, ,979.8,-48.8,53.9,11,-15.1,-10.7,25,969.728,-92.2116,96.7806,3.8909,-8.72385,-10.4308,
2026_07_06_17_15_00.535,3.871,47.9,0,0.773,0,0,0,0, ,0,0,0,0,0, ,972,-35.5,57.8,9,-11.4,-12.2,25,970.104,-89.161,94.2864,4.26317,-8.99967,-10.4929,
2026_07_06_17_15_00.555,3.871,47.8,0,0.772,0,0,0,0, ,0,0,0,0,0, ,992.3,-41.5,64.8,4.1,-9,-13.6,25,970.838,-86.0738,92.2763,4.40252,-9.07281,-10.6396,
2026_07_06_17_15_00.575,3.871,47.9,0,0.771,0,0,0,0, ,0,0,0,0,0, ,998.4,-49.3,21.6,2.8,-5.8,-13,25,972.332,-83.5953,89.2857,4.34448,-8.97087,-10.8017,
2026_07_06_17_15_00.595,3.871,47.9,0,0.772,0,0,0,0, ,0,0,0,0,0, ,999.1,-6.4,-0.4,5.8,1.3,-7.5,25,973.942,-80.1983,84.4908,4.34177,-8.56132,-10.7681,
2026_07_06_17_15_00.614,3.871,47.8,0,0.773,0,0,0,0, ,0,0,0,0,0, ,983.7,-62.9,64.4,5.4,5.5,0.3,25,975.005,-77.4227,81.2921,4.41844,-7.83243,-10.3313,
2026_07_06_17_15_00.635,3.871,47.8,0,0.772,0,0,0,0, ,0,0,0,0,0, ,987.7,-29.7,61.2,-0.6,2.1,-2.2,25,975.657,-75.5262,80.1653,4.29544,-7.12358,-9.75962,
2026_07_06_17_15_00.655,3.871,47.9,0,0.772,0,0,0,0, ,0,0,0,0,0, ,988.4,-34.9,48.5,-0.2,1.1,-2.1,25,976.412,-72.8921,78.6226,4.00932,-6.59198,-9.29591,
2026_07_06_17_15_00.675,3.871,47.8,0,0.772,0,0,0,0, ,0,0,0,0,0, ,989,-38,56.6,-1,0.7,-2.4,25,977.161,-70.6714,77.0338,3.72844,-6.13544,-8.86655,
2026_07_06_17_15_00.694,3.871,47.8,0,0.772,0,0,0,0, ,0,0,0,0,0, ,986.9,-41.6,52.4,0.5,-0.5,-2.5,25,977.819,-68.7901,75.6607,3.486,-5.75547,-8.47554,
2026_07_06_17_15_00.714,3.871,47.9,0,0.772,0,0,0,0, ,0,0,0,0,0, ,988.8,-33.5,53.5,3.6,-1,-3.4,25,978.43,-66.8865,74.2767,3.39849,-5.45045,-8.13883,
2026_07_06_17_15_00.733,3.871,47.8,0,0.774,0,0,0,0, ,0,0,0,0,0, ,987.3,-24.6,59.8,3.1,-1.6,-2.3,25,979.016,-64.5808,73.2026,3.39554,-5.19753,-7.81654,
2026_07_06_17_15_00.753,3.871,47.9,0,0.772,0,0,0,0, ,0,0,0,0,0, ,987,-25.2,71,0.4,-4.5,-0.5,25,979.512,-62.1627,72.7271,3.29526,-5.06667,-7.42553,
2026_07_06_17_15_00.774,3.871,47.8,0,0.772,0,0,0,0, ,0,0,0,0,0, ,987,-34.1,60.5,2.6,-8.3,0.8,25,979.968,-60.1815,72.302,3.18586,-5.14792,-6.9639,
2026_07_06_17_15_00.793,3.871,47.8,0,0.772,0,0,0,0, ,0,0,0,0,0, ,988.2,-32.1,58.3,16,-11.6,3.1,25,980.433,-58.5312,71.5158,3.55844,-5.44054,-6.42071,
2026_07_06_17_15_00.819,3.871,47.7,0,0.773,0,0,0,0, ,0,0,0,0,0, ,989.8,-36.3,51.6,13,-14.1,2.7,25,980.955,-57.0485,70.5063,4.2252,-5.89206,-5.85273,
2026_07_06_17_15_00.832,3.871,47.8,0,0.773,0,0,0,0, ,0,0,0,0,0, ,989.7,-35,34,9.1,-14.2,2.3,25,981.491,-55.7446,68.8179,4.64108,-6.39528,-5.34373,
2026_07_06_17_15_00.853,3.871,47.8,0,0.771,0,0,0,0, ,0,0,0,0,0, ,990.4,-41.9,35.1,10,-15.2,3.2,25,982.013,-54.6907,66.7297,4.94022,-6.90134,-4.85052,
2026_07_06_17_15_00.872,3.871,47.8,0,0.773,0,0,0,0, ,0,0,0,0,0, ,986.4,-33.8,62.5,7.6,-17.6,2.7,25,982.402,-53.6644,65.6371,5.17542,-7.48017,-4.37518,
2026_07_06_17_15_00.892,3.871,47.8,0,0.773,0,0,0,0, ,0,0,0,0,0, ,990.8,-51.2,16.8,10.2,-23.6,3.5,25,982.78,-52.9841,64.0535,5.40239,-8.27966,-3.91966,
2026_07_06_17_15_00.912,3.871,47.8,0,0.773,0,0,0,0, ,0,0,0,0,0, ,992.6,-64.4,-50.5,17.3,-16.5,1.1,25,983.323,-53.2776,59.1235,5.91107,-8.99691,-3.54065,
2026_07_06_17_15_00.931,3.871,47.8,0,0.772,0,0,0,0, ,0,0,0,0,0, ,995.9,-70.9,-88.5,19.6,-10.4,-0.6,25,983.989,-54.1534,51.2855,6.67516,-9.26827,-3.30965,
2026_07_06_17_15_00.951,3.871,47.8,0,0.773,0,0,0,0, ,0,0,0,0,0, ,990.1,-26.7,60,13.8,-4.6,-2.6,25,984.538,-53.8272,47.2919,7.28605,-9.16052,-3.20547,
2026_07_06_17_15_00.971,3.871,47.8,0,0.773,0,0,0,0, ,0,0,0,0,0, ,990.7,44,171.8,14.6,-22,11.6,25,984.895,-50.02,51.4727,7.70737,-9.41277,-2.73592,
2026_07_06_17_15_00.991,3.871,47.8,0,0.772,0,0,0,0, ,0,0,0,0,0, ,987.7,-48.3,171.2,10.4,-57.6,25.2,25,985.158,-47.1029,58.7869,7.99942,-11.2645,-1.44795,
2026_07_06_17_15_01.010,3.871,47.7,0,0.772,0,0,0,0, ,0,0,0,0,0, ,915.4,-7.6,-81.9,-35,-131.7,94.8,25,983.11,-45.9358,57.9254,6.76243,-16.3458,2.29653,
2026_07_06_17_15_01.030,3.871,47.8,0,0.773,0,0,0,0, ,0,0,0,0,0, ,1228.5,-150.8,-269.8,-80.7,-180.1,97.1,25,988.523,-47.9628,43.6797,2.82511,-24.8499,8.00354,
2026_07_06_17_15_01.051,3.871,47.8,0,0.772,0,0,0,0, ,0,0,0,0,0, ,1340,-232.1,-348.1,-23.5,-176.8,67.4,25,1006.54,-56.7066,22.1914,-0.521892,-34.2099,12.5279,
2026_07_06_17_15_01.070,3.871,47.7,0,0.773,0,0,0,0, ,0,0,0,0,0, ,1241.5,-214.2,-230.9,-5.2,-140.5,66.2,25,1023.86,-66.8492,3.19767,-1.36454,-41.793,15.8351,
2026_07_06_17_15_01.090,3.871,47.7,0,0.775,0,0,0,0, ,0,0,0,0,0, ,1062.7,-178.8,-247.8,-11.9,-128.5,65.5,25,1031.68,-74.7498,-11.5826,-1.80241,-47.4423,18.8829,
2026_07_06_17_15_01.110,3.871,47.8,0,0.772,0,0,0,0, ,0,0,0,0,0, ,865.1,-174.9,-338.8,-8.9,-136.6,56.5,25,1027.55,-80.9715,-28.7497,-2.32632,-52.6285,21.4494,
2026_07_06_17_15_01.130,3.871,47.7,0,0.771,0,0,0,0, ,0,0,0,0,0, ,796.8,-181.5,-462.4,-10.3,-162.8,63.1,25,1015.57,-86.8964,-51.4094,-2.76956,-58.5438,23.7864,
2026_07_06_17_15_01.149,3.871,47.7,0,0.773,0,0,0,0, ,0,0,0,0,0, ,762.6,-212.1,-516.1,-2.4,-198.8,62.1,25,1001.19,-93.5936,-78.0903,-2.98774,-65.9938,26.1516,
2026_07_06_17_15_01.169,3.871,47.7,0,0.77,0,0,0,0, ,0,0,0,0,0, ,749.1,-215.6,-466.7,17.7,-233.3,49.1,25,986.243,-100.922,-103.276,-2.33951,-75.1379,27.9461,
2026_07_06_17_15_01.190,3.871,47.7,0,0.772,0,0,0,0, ,0,0,0,0,0, ,701.5,-242.3,-445,18.1,-217.9,41.3,25,970.342,-108.723,-124.761,-1.10616,-84.3066,28.9975,
2026_07_06_17_15_01.209,3.871,47.7,0,0.772,0,0,0,0, ,0,0,0,0,0, ,538.2,-218,-511.3,27.2,-196.1,11.9,25,948.984,-116.123,-146.296,0.341479,-91.7833,28.8514,
2026_07_06_17_15_01.229,3.871,47.8,0,0.772,0,0,0,0, ,0,0,0,0,0, ,432.8,-236.3,-643.4,16.5,-181.6,11.9,25,920.74,-122.889,-172.563,1.65215,-97.6983,27.8185,
2026_07_06_17_15_01.248,3.871,47.8,0,0.772,0,0,0,0, ,0,0,0,0,0, ,543.2,-232.5,-743.6,60.4,-239.7,-17.1,25,894.37,-129.684,-204.308,3.89452,-104.581,25.9648,
2026_07_06_17_15_01.268,3.871,47.7,0,0.772,0,0,0,0, ,0,0,0,0,0, ,618.8,-382.8,-622,61.5,-250.1,-6.5,25,875.274,-140.529,-233.466,7.37134,-113.132,23.6635,
2026_07_06_17_15_01.288,3.871,47.7,0,0.771,0,0,0,0, ,0,0,0,0,0, ,512.9,-308.8,-673.4,-7.5,-120.3,67,25,856.419,-153.037,-258.708,8.56746,-117.524,24.0649,
2026_07_06_17_15_01.308,3.871,47.6,0,0.771,0,0,0,0, ,0,0,0,0,0, ,301.6,-251.7,-629.3,-5.9,-114.6,27.2,25,829.048,-160.789,-282.635,7.6371,-117.519,25.4686,
2026_07_06_17_15_01.328,3.871,47.6,0,0.772,0,0,0,0, ,0,0,0,0,0, ,378.5,-293.2,-651.1,-29.3,-97.9,31,25,799.249,-167.594,-304.424,6.09922,-116.832,25.6899,
2026_07_06_17_15_01.347,3.871,47.6,0,0.771,0,0,0,0, ,0,0,0,0,0, ,392.2,-299.8,-705.3,-32.5,-83.9,17.7,25,774.027,-175.449,-327.201,3.84458,-115.252,25.6082,
2026_07_06_17_15_01.367,3.871,47.6,0,0.772,0,0,0,0, ,0,0,0,0,0, ,360.5,-296.8,-842.8,-26.6,-73.6,9.1,25,749.794,-182.935,-354.431,1.80959,-113.028,24.8643,
2026_07_06_17_15_01.386,3.871,47.7,0,0.773,0,0,0,0, ,0,0,0,0,0, ,388.3,-302.4,-817.9,-27.8,-69.1,6.9,25,726.918,-190.044,-383.432,0.0418224,-110.488,23.8366,
2026_07_06_17_15_01.407,3.871,47.7,0,0.772,0,0,0,0, ,0,0,0,0,0, ,395.1,-286.9,-762.8,-32,-64.5,4.4,25,706.491,-196.419,-408.229,-1.78276,-107.826,22.7284,
2026_07_06_17_15_01.428,3.871,47.6,0,0.773,0,0,0,0, ,0,0,0,0,0, ,411.3,-291.8,-790.4,-50,-60.1,9.5,25,688.009,-202.082,-430.676,-4.17256,-105.052,21.7669,
2026_07_06_17_15_01.446,3.871,47.8,0,0.772,0,0,0,0, ,0,0,0,0,0, ,394.4,-280.7,-833,-62.4,-54,16.2,25,670.632,-207.211,-453.895,-7.34298,-102.126,21.2235,
2026_07_06_17_15_01.466,3.871,47.7,0,0.77,0,0,0,0, ,0,0,0,0,0, ,393.6,-271.8,-879.5,-71.4,-66.3,25.9,25,653.775,-211.418,-478.414,-10.9722,-99.5685,21.2129,
2026_07_06_17_15_01.486,3.871,47.7,0,0.772,0,0,0,0, ,0,0,0,0,0, ,410.6,-268.5,-920.1,-63.7,-63.9,34.7,25,638.439,-214.997,-504.092,-14.4199,-97.4681,21.7667,
2026_07_06_17_15_01.506,3.871,47.6,0,0.772,0,0,0,0, ,0,0,0,0,0, ,387.3,-259.7,-975,-60.6,-35.7,39.7,25,623.845,-217.989,-531.115,-17.3285,-94.5633,22.7072,
2026_07_06_17_15_01.525,3.871,47.6,0,0.772,0,0,0,0, ,0,0,0,0,0, ,264.8,-222.7,-1024.4,-52.3,-18,33,25,605.698,-219.404,-559.669,-19.7125,-90.4371,23.5385,
2026_07_06_17_15_01.545,3.871,47.5,0,0.772,0,0,0,0, ,0,0,0,0,0, ,213.5,-204.9,-1030.3,-44.8,-30.1,24,25,583.361,-219.062,-588.169,-21.4697,-86.3916,23.8409,
2026_07_06_17_15_01.565,3.871,47.7,0,0.773,0,0,0,0, ,0,0,0,0,0, ,213.2,-195.5,-1000.3,-42.3,-49.6,18.6,25,560.814,-217.913,-614.197,-22.8153,-83.5555,23.686,
2026_07_06_17_15_01.585,3.871,47.6,0,0.773,0,0,0,0, ,0,0,0,0,0, ,216.1,-194.4,-1014,-42.8,-60.6,16.7,25,539.719,-216.513,-638.143,-24.0178,-81.8215,23.3182,
2026_07_06_17_15_01.605,3.871,47.6,0,0.773,0,0,0,0, ,0,0,0,0,0, ,231.2,-205.8,-1052.2,-39.6,-49.6,11.5,25,520.459,-215.513,-662.21,-25.0649,-80.1931,22.7565,
2026_07_06_17_15_01.624,3.871,47.6,0,0.773,0,0,0,0, ,0,0,0,0,0, ,242.3,-199,-1057.7,-34.1,-35.3,10.8,25,503.17,-214.714,-686.143,-25.783,-77.8932,22.0492,
2026_07_06_17_15_01.645,3.871,47.6,0,0.772,0,0,0,0, ,0,0,0,0,0, ,211,-180,-1087.2,-19.4,-5.2,5.6,25,486.32,-213.178,-709.683,-25.842,-74.3805,21.2053,
2026_07_06_17_15_01.665,3.871,47.6,0,0.775,0,0,0,0, ,0,0,0,0,0, ,172.4,-156.7,-1057.1,-9,-1.4,2,25,468.367,-210.446,-731.771,-25.1325,-70.0491,20.1446,
2026_07_06_17_15_01.684,3.871,47.6,0,0.772,0,0,0,0, ,0,0,0,0,0, ,171.7,-141.4,-974.6,-5.9,-6.7,-0.7,25,450.31,-206.705,-749.082,-24.055,-66.0272,18.9567,
2026_07_06_17_15_01.704,3.871,47.5,0,0.772,0,0,0,0, ,0,0,0,0,0, ,180,-141.7,-952.1,-11.8,-8.5,-2.9,25,433.585,-202.734,-762.139,-23.1284,-62.4668,17.6918,
2026_07_06_17_15_01.723,3.871,47.6,0,0.772,0,0,0,0, ,0,0,0,0,0, ,164.6,-135.9,-984.2,-14.3,-14,-3,25,417.663,-198.838,-774.693,-22.5143,-59.3458,16.434,
2026_07_06_17_15_01.743,3.871,47.6,0,0.772,0,0,0,0, ,0,0,0,0,0, ,170.1,-147.2,-1048.4,-12.8,-13.8,-2.8,25,402.409,-195.347,-789.416,-21.968,-56.5765,15.2558,
2026_07_06_17_15_01.763,3.871,47.6,0,0.773,0,0,0,0, ,0,0,0,0,0, ,162.7,-140.2,-1058.9,-5,-7.5,-0.5,25,388.028,-192.2,-805.518,-21.1717,-53.7778,14.2256,
2026_07_06_17_15_01.783,3.871,47.6,0,0.773,0,0,0,0, ,0,0,0,0,0, ,157.4,-120.7,-990.4,-0.7,-0.8,-2,25,374.135,-188.437,-818.871,-20.0552,-50.7536,13.2826,
2026_07_06_17_15_01.808,3.871,47.6,0,0.772,0,0,0,0, ,0,0,0,0,0, ,153,-124.1,-971.4,-1.4,1.4,-2.8,25,360.794,-184.413,-828.745,-18.8971,-47.6425,12.3269,
2026_07_06_17_15_01.822,3.871,47.6,0,0.772,0,0,0,0, ,0,0,0,0,0, ,145.6,-128,-1005.2,-0.8,6.9,-4.6,25,347.906,-180.856,-838.468,-17.8126,-44.4864,11.3503,
2026_07_06_17_15_01.843,3.871,47.6,0,0.772,0,0,0,0, ,0,0,0,0,0, ,166.2,-131.5,-1017,5.3,16,-6.7,25,336.206,-177.742,-848.987,-16.59,-41.0778,10.3143,
2026_07_06_17_15_01.863,3.871,47.6,0,0.772,0,0,0,0, ,0,0,0,0,0, ,161,-122.1,-980.5,5,18.1,-8.4,25,325.687,-174.638,-858.114,-15.2652,-37.5356,9.2257,
2026_07_06_17_15_01.883,3.871,47.6,0,0.772,0,0,0,0, ,0,0,0,0,0, ,185.4,-131.1,-960.3,3.4,17,-7.4,25,316.395,-171.711,-864.956,-14.0791,-34.1789,8.1821,
2026_07_06_17_15_01.901,3.871,47.6,0,0.773,0,0,0,0, ,0,0,0,0,0, ,201.7,-140.6,-972.6,3.8,26.5,-7,25,308.909,-169.525,-871.141,-13.0018,-30.7707,7.24475,
2026_07_06_17_15_01.922,3.871,47.6,0,0.772,0,0,0,0, ,0,0,0,0,0, ,180.1,-135.7,-1002.4,7.2,33.7,-8.1,25,301.718,-167.613,-878.231,-11.8743,-27.0614,6.3432,
2026_07_06_17_15_01.941,3.871,47.6,0,0.775,0,0,0,0, ,0,0,0,0,0, ,198.6,-137.5,-994.7,13.6,28.4,-9.7,25,294.871,-165.724,-885.563,-10.517,-23.5202,5.41432,
2026_07_06_17_15_01.961,3.871,47.5,0,0.772,0,0,0,0, ,0,0,0,0,0, ,240.9,-152.7,-1006.7,11.8,29.9,-7.6,25,290.293,-164.467,-892.579,-9.10218,-20.3106,4.55727,
2026_07_06_17_15_01.981,3.871,47.4,0,0.771,0,0,0,0, ,0,0,0,0,0, ,252.6,-155.5,-1003.1,15.4,52.9,-10,25,287.64,-163.835,-899.424,-7.71876,-16.5501,3.74331,
2026_07_06_17_15_02.000,3.871,47.5,0,0.772,0,0,0,0, ,0,0,0,0,0, ,276.8,-164.3,-987,23.2,72.5,-11.3,25,286.242,-163.595,-905.251,-6.07231,-11.7208,2.86622,
2026_07_06_17_15_02.021,3.871,47.5,0,0.771,0,0,0,0, ,0,0,0,0,0, ,302.7,-167.7,-977.4,25.6,61,-3,25,286.456,-163.742,-909.94,-4.2154,-6.93902,2.25586,
2026_07_06_17_15_02.041,3.871,47.6,0,0.773,0,0,0,0, ,0,0,0,0,0, ,326.6,-174,-1011.4,25.4,63.3,1.5,25,288.174,-164.175,-915.087,-2.40462,-2.72891,2.07269,
2026_07_06_17_15_02.059,3.871,47.5,0,0.772,0,0,0,0, ,0,0,0,0,0, ,415.7,-190.1,-1038.4,38.6,83.2,4.1,25,293.23,-165.264,-921.779,-0.308089,1.90106,2.11701,
2026_07_06_17_15_02.080,3.871,47.5,0,0.771,0,0,0,0, ,0,0,0,0,0, ,460.6,-221.3,-1080.6,60.5,118.8,3.2,25,302.061,-167.728,-930.171,2.73014,7.9399,2.21043,
2026_07_06_17_15_02.100,3.871,47.5,0,0.772,0,0,0,0, ,0,0,0,0,0, ,485.2,-238.6,-1043,78.6,161,-5.3,25,312.472,-171.52,-938.192,6.80197,15.9812,2.01174,
2026_07_06_17_15_02.120,3.871,47.5,0,0.772,0,0,0,0, ,0,0,0,0,0, ,528.1,-262.5,-983.1,89,192.3,-11.7,25,324.304,-176.336,-942.754,11.494,25.772,1.37118,
2026_07_06_17_15_02.139,3.871,47.5,0,0.773,0,0,0,0, ,0,0,0,0,0, ,574.3,-289.3,-903.6,94.7,214.1,-16.5,25,338.131,-182.403,-942.79,16.3907,36.584,0.428409,
2026_07_06_17_15_02.159,3.871,47.5,0,0.773,0,0,0,0, ,0,0,0,0,0, ,645.6,-298.3,-808.1,95.3,229.8,-23.1,25,354.695,-189.191,-937.492,21.181,47.8797,-0.804259,
2026_07_06_17_15_02.179,3.871,47.5,0,0.77,0,0,0,0, ,0,0,0,0,0, ,690.7,-322,-701.6,89,241.1,-20.5,25,373.796,-196.562,-926.363,25.5057,59.3098,-2.08369,
2026_07_06_17_15_02.199,3.871,47.5,0,0.772,0,0,0,0, ,0,0,0,0,0, ,679,-295.2,-572.5,78.2,244.7,-24.8,25,392.751,-203.389,-908.733,29.0458,70.4973,-3.33695,
2026_07_06_17_15_02.219,3.871,47.4,0,0.77,0,0,0,0, ,0,0,0,0,0, ,666.6,-308.4,-494.9,62.7,236.4,-36,25,409.816,-209.386,-885.879,31.5688,80.8599,-4.9861,
2026_07_06_17_15_02.238,3.871,47.5,0,0.772,0,0,0,0, ,0,0,0,0,0, ,666.6,-304.4,-411,49.4,224.1,-49.7,25,425.464,-215.298,-859.497,33.0607,89.9634,-7.29343,
2026_07_06_17_15_02.258,3.871,47.5,0,0.772,0,0,0,0, ,0,0,0,0,0, ,709.9,-287.5,-351.6,40.7,206,-59.4,25,441.478,-220.213,-830.357,33.7913,97.5858,-10.1731,
2026_07_06_17_15_02.278,3.871,47.5,0,0.771,0,0,0,0, ,0,0,0,0,0, ,823.3,-288.3,-331.5,26.4,191.7,-64.8,25,461.29,-224.338,-800.571,33.7766,103.757,-13.3374,
2026_07_06_17_15_02.304,3.871,47.4,0,0.772,0,0,0,0, ,0,0,0,0,0, ,871.3,-304.4,-305.9,22.1,187.1,-66,25,484.812,-228.726,-771.207,33.196,108.976,-16.51,
2026_07_06_17_15_02.323,3.871,47.4,0,0.773,0,0,0,0, ,0,0,0,0,0, ,903.5,-296,-264.2,14.4,181.8,-51.8,25,509.345,-233.081,-741.581,32.2853,113.575,-19.0931,
2026_07_06_17_15_02.337,3.871,47.5,0,0.773,0,0,0,0, ,0,0,0,0,0, ,839.3,-261.8,-218.8,8.1,172.9,-41.6,25,531.408,-235.873,-711.108,31.0034,117.461,-20.7754,
2026_07_06_17_15_02.358,3.871,47.5,0,0.772,0,0,0,0, ,0,0,0,0,0, ,774.7,-234.8,-130.3,12.6,155.9,-51.2,25,548.202,-236.631,-678.411,29.7449,120.321,-22.3369,
2026_07_06_17_15_02.378,3.871,47.4,0,0.772,0,0,0,0, ,0,0,0,0,0, ,741.5,-211.4,-76.9,16.3,133.5,-68.1,25,560.992,-235.806,-643.384,28.8128,121.807,-24.6107,
2026_07_06_17_15_02.397,3.871,47.4,0,0.773,0,0,0,0, ,0,0,0,0,0, ,807.6,-189.2,-36.1,-1.1,97.8,-69.6,25,574.006,-233.642,-607.62,27.5202,121.432,-27.3065,
2026_07_06_17_15_02.417,3.871,47.5,0,0.771,0,0,0,0, ,0,0,0,0,0, ,901.1,-198.3,-35,-7.2,67.6,-60.2,25,591.089,-231.211,-572.76,25.5903,119.072,-29.5974,
2026_07_06_17_15_02.436,3.871,47.4,0,0.773,0,0,0,0, ,0,0,0,0,0, ,966,-207.2,-36.3,-5.7,56,-45.9,25,611.958,-229.477,-540.03,23.6378,115.582,-31.0265,
2026_07_06_17_15_02.456,3.871,47.5,0,0.773,0,0,0,0, ,0,0,0,0,0, ,917.3,-183.2,-33,-2.2,54.7,-33.6,25,632.049,-227.388,-509.233,21.9567,111.911,-31.5581,
2026_07_06_17_15_02.475,3.871,47.4,0,0.773,0,0,0,0, ,0,0,0,0,0, ,928.2,-161.1,-11.7,10.6,56.9,-40.4,25,649.763,-224.022,-479.564,20.8746,108.492,-31.8897,
2026_07_06_17_15_02.495,3.871,47.4,0,0.773,0,0,0,0, ,0,0,0,0,0, ,951.4,-145.9,7.4,27.7,65.7,-55.9,25,667.437,-219.725,-450.471,20.7695,105.616,-32.8806,
2026_07_06_17_15_02.515,3.871,47.4,0,0.773,0,0,0,0, ,0,0,0,0,0, ,985.8,-130.2,32.4,29.7,63.9,-54.9,25,685.789,-214.748,-421.808,21.2528,103.129,-34.2529,
2026_07_06_17_15_02.536,3.871,47.4,0,0.772,0,0,0,0, ,0,0,0,0,0, ,968,-116,47.6,13.8,48.4,-44.6,25,703.529,-209.163,-393.667,21.2831,100.266,-35.1972,
2026_07_06_17_15_02.555,3.871,47.4,0,0.771,0,0,0,0, ,0,0,0,0,0, ,961.3,-100.2,55.6,16.9,23.6,-33.2,25,719.441,-203.004,-366.533,20.9216,96.3499,-35.4229,
2026_07_06_17_15_02.575,3.871,47.4,0,0.773,0,0,0,0, ,0,0,0,0,0, ,975,-72,70.5,12.4,0,-24.9,25,734.597,-195.881,-340.356,20.5394,91.1977,-35.0345,
2026_07_06_17_15_02.594,3.871,47.4,0,0.772,0,0,0,0, ,0,0,0,0,0, ,1007.9,-64,88,9.5,-15.5,-19.4,25,750.249,-188.088,-314.786,19.955,85.1681,-34.2494,
2026_07_06_17_15_02.614,3.871,47.4,0,0.772,0,0,0,0, ,0,0,0,0,0, ,1022.5,-59.4,94.3,9.9,-18.1,-13.3,25,766.394,-180.386,-290.049,19.3301,78.9544,-33.1586,
2026_07_06_17_15_02.635,3.871,47.4,0,0.772,0,0,0,0, ,0,0,0,0,0, ,989.6,-49,104,11.4,-11.8,-15.5,25,780.998,-172.697,-266.332,18.8012,73.2321,-32.0155,
2026_07_06_17_15_02.654,3.871,47.4,0,0.772,0,0,0,0, ,0,0,0,0,0, ,996.2,-39.1,120.7,9,-4.5,-17.4,25,793.911,-164.857,-243.256,18.277,68.2729,-31.067,
2026_07_06_17_15_02.673,3.871,47.4,0,0.772,0,0,0,0, ,0,0,0,0,0, ,1004.1,-36.2,124.1,9.2,10.4,-21.7,25,806.479,-157.106,-220.974,17.7178,64.2922,-30.3652,
2026_07_06_17_15_02.694,3.871,47.3,0,0.773,0,0,0,0, ,0,0,0,0,0, ,992.3,-42.9,122.3,8.5,22.9,-24.3,25,818.162,-149.942,-200.001,17.1774,61.389,-29.9164,
2026_07_06_17_15_02.713,3.871,47.4,0,0.771,0,0,0,0, ,0,0,0,0,0, ,984.9,-37.7,114.1,2.8,19.4,-20.7,25,828.548,-143.261,-180.611,16.475,58.937,-29.4644,
2026_07_06_17_15_02.733,3.871,47.3,0,0.773,0,0,0,0, ,0,0,0,0,0, ,1051.8,-42.6,122.3,-1.2,12.1,-7.3,25,840.114,-136.977,-162.402,15.5198,56.3053,-28.5221,
2026_07_06_17_15_02.752,3.871,47.4,0,0.772,0,0,0,0, ,0,0,0,0,0, ,1071.4,-32.2,145.2,-0.1,18.6,1.2,25,853.611,-130.909,-144.355,14.5344,53.8096,-26.9699,
2026_07_06_17_15_02.773,3.871,47.3,0,0.773,0,0,0,0, ,0,0,0,0,0, ,991,-16.9,149.2,1.6,18.1,1.9,25,864.433,-124.428,-126.589,13.6944,51.6487,-25.2319,
2026_07_06_17_15_02.793,3.871,47.4,0,0.772,0,0,0,0, ,0,0,0,0,0, ,1017.8,-30,169.4,-1.9,12,0.5,25,872.962,-118.275,-109.167,12.8508,49.4185,-23.6212,
2026_07_06_17_15_02.813,3.871,47.4,0,0.772,0,0,0,0, ,0,0,0,0,0, ,986.9,-30.6,169.3,-5.7,7.2,-2,25,880.846,-112.914,-92.195,11.8361,46.9921,-22.2275,
2026_07_06_17_15_02.832,3.871,47.3,0,0.771,0,0,0,0, ,0,0,0,0,0, ,962.8,-41.1,158.6,-11.7,4.6,-7.5,25,886.575,-108.218,-76.5862,10.5847,44.488,-21.1625,
2026_07_06_17_15_02.853,3.871,47.3,0,0.771,0,0,0,0, ,0,0,0,0,0, ,944.5,-37.2,156.1,-13.1,1.8,-7.9,25,890.662,-104.009,-62.3307,9.18409,41.972,-20.3421,
2026_07_06_17_15_02.874,3.871,47.3,0,0.771,0,0,0,0, ,0,0,0,0,0, ,900.6,-26.3,148.4,-10.3,-1.8,-8,25,892.605,-99.6056,-49.2547,7.91147,39.4144,-19.587,
2026_07_06_17_15_02.891,3.871,47.3,0,0.772,0,0,0,0, ,0,0,0,0,0, ,908.4,-23,169.5,-7.1,-3.7,-8,25,893.33,-95.038,-36.5672,6.89921,36.845,-18.8809,
2026_07_06_17_15_02.913,3.871,47.3,0,0.771,0,0,0,0, ,0,0,0,0,0, ,930.5,-17,168.2,-10.2,-5.9,-8.2,25,894.922,-90.4654,-24.0496,5.95168,34.3072,-18.2239,
2026_07_06_17_15_02.932,3.871,47.4,0,0.771,0,0,0,0, ,0,0,0,0,0, ,1373.7,-51.2,221.9,-17.1,-10,-5.1,25,910.594,-87.0306,-10.6982,4.7572,31.7322,-17.5186,
2026_07_06_17_15_02.950,3.871,47.3,0,0.772,0,0,0,0, ,0,0,0,0,0, ,986.8,31.1,68.2,-2.8,-13.7,-4.4,25,927.026,-82.3396,-1.20733,3.86098,29.0764,-16.7406,
2026_07_06_17_15_02.971,3.871,47.3,0,0.773,0,0,0,0, ,0,0,0,0,0, ,983,-36.2,143.4,6.8,-9.3,0,25,930.552,-77.4774,5.31343,3.74758,26.6038,-15.8545,
2026_07_06_17_15_02.990,3.871,47.2,0,0.773,0,0,0,0, ,0,0,0,0,0, ,979.2,-8.6,135.8,3.5,-10.1,-0.6,25,933.633,-74.1212,13.4965,3.83304,24.3915,-14.9066,
2026_07_06_17_15_03.010,3.871,47.2,0,0.773,0,0,0,0, ,0,0,0,0,0, ,982.6,-25.7,123.5,-3,-11.6,-1.4,25,936.513,-70.6495,20.5746,3.61469,22.244,-14.0592,
2026_07_06_17_15_03.031,3.871,47.4,0,0.772,0,0,0,0, ,0,0,0,0,0, ,985.5,-25.5,109.7,-2.3,-10.4,-1.7,25,939.41,-67.9043,26.4262,3.23294,20.2182,-13.2969,
2026_07_06_17_15_03.050,3.871,47.3,0,0.771,0,0,0,0, ,0,0,0,0,0, ,988.1,-28.9,91.6,-1.4,-7.2,-2.1,25,942.298,-65.4239,30.9492,2.9232,18.4499,-12.6024,
2026_07_06_17_15_03.070,3.871,47.3,0,0.772,0,0,0,0, ,0,0,0,0,0, ,988.5,-27.9,89.2,2.1,-2.4,-2.8,25,945.101,-63.1677,34.572,2.76639,17.0331,-11.9838,
2026_07_06_17_15_03.089,3.871,47.3,0,0.773,0,0,0,0, ,0,0,0,0,0, ,983.5,-19,111.4,4.8,1,-2.6,25,947.593,-60.7474,38.5773,2.80805,15.9525,-11.418,
2026_07_06_17_15_03.110,3.871,47.2,0,0.772,0,0,0,0, ,0,0,0,0,0, ,980.2,-17.2,140,4.7,-0.6,-1.8,25,949.681,-58.1486,43.8863,2.92639,14.9926,-10.8563,
2026_07_06_17_15_03.134,3.871,47.3,0,0.77,0,0,0,0, ,0,0,0,0,0, ,979.1,-22.4,131.3,3.1,-4.3,-2.1,25,951.507,-55.8117,49.4782,2.98572,13.9297,-10.3136,
2026_07_06_17_15_03.154,3.871,47.3,0,0.772,0,0,0,0, ,0,0,0,0,0, ,980.7,-24.5,121.5,1.1,-6.5,-2.7,25,953.237,-53.8397,54.1656,2.93174,12.7518,-9.83134,
2026_07_06_17_15_03.169,3.871,47.2,0,0.774,0,0,0,0, ,0,0,0,0,0, ,980.8,-21.4,124.5,-0.9,-8.8,-3.3,25,954.914,-51.9573,58.3602,2.75919,11.5085,-9.41506,
2026_07_06_17_15_03.189,3.871,47.3,0,0.773,0,0,0,0, ,0,0,0,0,0, ,984.6,-23.1,107.5,-1.2,-10.2,-3.6,25,956.607,-50.1471,61.8726,2.52706,10.2283,-9.05156,
2026_07_06_17_15_03.209,3.871,47.3,0,0.773,0,0,0,0, ,0,0,0,0,0, ,983,-24.1,112.4,-0.6,-11.1,-4.3,25,958.264,-48.5293,64.8023,2.31823,8.95605,-8.74069,
2026_07_06_17_15_03.230,3.871,47.2,0,0.772,0,0,0,0, ,0,0,0,0,0, ,983.1,-22.2,107.1,-0.7,-12.5,-5.3,25,959.774,-46.9828,67.5413,2.13735,7.69122,-8.50055,
2026_07_06_17_15_03.248,3.871,47.3,0,0.771,0,0,0,0, ,0,0,0,0,0, ,983,-9.8,107,-0.7,-14.6,-4.8,25,961.193,-45.0948,69.9489,1.96445,6.39684,-8.29028,
2026_07_06_17_15_03.268,3.871,47.3,0,0.772,0,0,0,0, ,0,0,0,0,0, ,984.7,-14.8,97.5,-0.3,-15.9,-4,25,962.573,-43.0963,71.9172,1.81427,5.07773,-8.05322,
2026_07_06_17_15_03.288,3.871,47.3,0,0.772,0,0,0,0, ,0,0,0,0,0, ,987.4,-20.9,77,1.1,-15.7,-4.2,25,964.004,-41.5579,72.8516,1.72809,3.8055,-7.81232,
2026_07_06_17_15_03.308,3.871,47.3,0,0.772,0,0,0,0, ,0,0,0,0,0, ,986.8,-14.7,77.7,2.9,-15.2,-4.4,25,965.411,-40.1101,73.1257,1.74466,2.63211,-7.59829,
2026_07_06_17_15_03.327,3.871,47.2,0,0.772,0,0,0,0, ,0,0,0,0,0, ,986.5,-17.8,78.7,2.8,-15.5,-5,25,966.706,-38.6562,73.4349,1.81202,1.53633,-7.42167,
2026_07_06_17_15_03.347,3.871,47.2,0,0.772,0,0,0,0, ,0,0,0,0,0, ,985.5,-18.1,72.1,2.8,-16,-5.5,25,967.881,-37.3944,73.5547,1.87222,0.482944,-7.28934,
2026_07_06_17_15_03.366,3.871,47.2,0,0.772,0,0,0,0, ,0,0,0,0,0, ,986.3,-16.1,67.9,3,-16.7,-6.3,25,968.979,-36.1577,73.338,1.93485,-0.542814,-7.20467,
2026_07_06_17_15_03.389,3.871,47.3,0,0.772,0,0,0,0, ,0,0,0,0,0, ,985.5,-4,66,0.7,-17.7,-6.7,25,970.011,-34.5668,72.9488,1.92968,-1.55786,-7.16173,
2026_07_06_17_15_03.408,3.871,47.2,0,0.772,0,0,0,0, ,0,0,0,0,0, ,987.6,-4.7,62,-1.8,-18.9,-6.1,25,971.018,-32.7254,72.4035,1.77858,-2.57808,-7.11531,
2026_07_06_17_15_03.434,3.871,47.3,0,0.772,0,0,0,0, ,0,0,0,0,0, ,990.9,-9,34.4,-4.9,-19.5,-7,25,972.129,-31.1486,70.9286,1.46605,-3.59098,-7.08087,
2026_07_06_17_15_03.447,3.871,47.2,0,0.772,0,0,0,0, ,0,0,0,0,0, ,993.7,-2.6,8.6,-3.4,-16.7,-7.8,25,973.359,-29.604,67.9165,1.12382,-4.47513,-7.10031,
2026_07_06_17_15_03.466,3.871,47.2,0,0.773,0,0,0,0, ,0,0,0,0,0, ,995.6,-3.1,11.1,-0.7,-12,-7.1,25,974.656,-27.9736,64.3781,0.93042,-5.07688,-7.12162,
2026_07_06_17_15_03.486,3.871,47.2,0,0.773,0,0,0,0, ,0,0,0,0,0, ,993.4,-3.9,4.6,0.8,-7.6,-6.8,25,975.865,-26.4823,60.9334,0.876769,-5.36469,-7.11116,
2026_07_06_17_15_03.506,3.871,47.2,0,0.772,0,0,0,0, ,0,0,0,0,0, ,990.3,-1.2,26.3,0.8,-5.4,-7.4,25,976.839,-25.0239,58.1618,0.872091,-5.43387,-7.11048,
2026_07_06_17_15_03.525,3.871,47.2,0,0.772,0,0,0,0, ,0,0,0,0,0, ,991.6,9.2,28.3,0.2,-6.3,-7.2,25,977.699,-23.2553,56.2811,0.849417,-5.45923,-7.12203,
2026_07_06_17_15_03.546,3.871,47.2,0,0.771,0,0,0,0, ,0,0,0,0,0, ,994,3.4,-0.3,4,-4.3,-6.9,25,978.619,-21.4542,53.7046,0.925624,-5.44953,-7.11764,
2026_07_06_17_15_03.565,3.871,47.2,0,0.772,0,0,0,0, ,0,0,0,0,0, ,992.9,5.3,22.5,2.4,1.9,-5.5,25,979.523,-19.8818,51.1084,1.06422,-5.19057,-7.06172,
2026_07_06_17_15_03.585,3.871,47.2,0,0.772,0,0,0,0, ,0,0,0,0,0, ,989.5,20.5,39.4,4.2,1,-3.6,25,980.235,-17.8842,49.88,1.20046,-4.78591,-6.90867,
2026_07_06_17_15_03.603,3.871,47.2,0,0.772,0,0,0,0, ,0,0,0,0,0, ,989.1,13.6,26.1,4.9,-0.4,-2.3,25,980.787,-15.7554,48.8361,1.40457,-4.47599,-6.66743,
2026_07_06_17_15_03.625,3.871,47.2,0,0.772,0,0,0,0, ,0,0,0,0,0, ,990.9,7.9,22.5,3.2,0.2,-2.2,25,981.349,-14.1402,47.341,1.56578,-4.20933,-6.39825,
2026_07_06_17_15_03.644,3.871,47,0,0.772,0,0,0,0, ,0,0,0,0,0, ,989.9,4.7,30,1.6,0.2,-2.9,25,981.9,-12.8946,46.0557,1.61662,-3.94064,-6.16374,
2026_07_06_17_15_03.668,3.871,47.2,0,0.772,0,0,0,0, ,0,0,0,0,0, ,988.6,6.9,34.6,1.4,-0.8,-3.2,25,982.348,-11.7554,45.2175,1.60951,-3.71878,-5.974,
2026_07_06_17_15_03.684,3.871,47,0,0.772,0,0,0,0, ,0,0,0,0,0, ,989.2,10.4,31,0.2,-1.6,-3.5,25,982.747,-10.512,44.4608,1.56018,-3.5653,-5.8141,
2026_07_06_17_15_03.705,3.871,47.2,0,0.771,0,0,0,0, ,0,0,0,0,0, ,990.9,9.1,23.4,-0.2,-2,-3.6,25,983.192,-9.27724,43.409,1.46511,-3.45772,-5.67613,
2026_07_06_17_15_03.723,3.871,47.2,0,0.772,0,0,0,0, ,0,0,0,0,0, ,991.2,16.2,17,-0.5,-1.2,-3.2,25,983.671,-7.94105,41.9947,1.3545,-3.34452,-5.53743,
2026_07_06_17_15_03.743,3.871,47.2,0,0.775,0,0,0,0, ,0,0,0,0,0, ,990.9,16.8,20.9,-0.1,0.3,-2.5,25,984.121,-6.45167,40.5904,1.25368,-3.16813,-5.37367,
2026_07_06_17_15_03.763,3.871,47.2,0,0.772,0,0,0,0, ,0,0,0,0,0, ,989.3,14.8,26.9,1.4,0.1,-1.8,25,984.485,-5.09571,39.5733,1.21689,-2.96289,-5.17722,
2026_07_06_17_15_03.785,3.871,47,0,0.773,0,0,0,0, ,0,0,0,0,0, ,988.4,17,33,1.4,-0.7,-1.4,25,984.751,-3.81629,38.9869,1.22805,-2.80062,-4.95924,
2026_07_06_17_15_03.802,3.871,47,0,0.772,0,0,0,0, ,0,0,0,0,0, ,990.6,14.5,21.8,1.4,-0.9,-0.6,25,985.04,-2.62397,38.2808,1.23853,-2.67871,-4.71797,
2026_07_06_17_15_03.823,3.871,47.2,0,0.77,0,0,0,0, ,0,0,0,0,0, ,990.7,10,18.1,1.2,0,-0.5,25,985.382,-1.71758,37.1638,1.24227,-2.54289,-4.46398,
2026_07_06_17_15_03.841,3.871,47.2,0,0.771,0,0,0,0, ,0,0,0,0,0, ,991.8,10.8,21.9,-0.3,1,-0.8,25,985.74,-0.979168,36.1179,1.19399,-2.35747,-4.23157,
2026_07_06_17_15_03.863,3.871,47,0,0.772,0,0,0,0, ,0,0,0,0,0, ,989.7,8.4,27,-0.4,1,-0.8,25,986.045,-0.3345,35.4069,1.09991,-2.15287,-4.02246,
2026_07_06_17_15_03.882,3.871,47,0,0.773,0,0,0,0, ,0,0,0,0,0, ,990.8,7.9,26.8,-0.6,0.2,-1.2,25,986.301,0.182524,34.8885,1.00241,-1.98512,-3.83828,
2026_07_06_17_15_03.904,3.871,47.2,0,0.772,0,0,0,0, ,0,0,0,0,0, ,990.2,7.5,29,-0.6,0,-1.9,25,986.557,0.64062,34.4626,0.904765,-1.85806,-3.69884,
2026_07_06_17_15_03.921,3.871,47.2,0,0.772,0,0,0,0, ,0,0,0,0,0, ,990.8,10.9,26.7,-0.7,-0.1,-2,25,986.798,1.16221,34.0597,0.810022,-1.74788,-3.59227,
2026_07_06_17_15_03.941,3.871,46.9,0,0.771,0,0,0,0, ,0,0,0,0,0, ,991.4,9.2,14.2,-1.5,0.3,-2,25,987.06,1.70381,33.2303,0.69363,-1.63527,-3.49524,
2026_07_06_17_15_03.961,3.871,47.2,0,0.771,0,0,0,0, ,0,0,0,0,0, ,1002.1,12,-27.2,-10,5.6,-4.5,25,987.65,2.24592,30.8093,0.300971,-1.35586,-3.48029,
2026_07_06_17_15_03.982,3.871,47,0,0.77,0,0,0,0, ,0,0,0,0,0, ,1021.2,5,-114,-10.4,24.7,-5.3,25,989.113,2.62703,24.6296,-0.338932,-0.350032,-3.56681,
2026_07_06_17_15_04.005,3.871,47,0,0.772,0,0,0,0, ,0,0,0,0,0, ,1014,27.4,-82.7,2,50.7,-2.9,25,990.849,3.45413,17.1356,-0.574215,1.96864,-3.5993,
2026_07_06_17_15_04.027,3.871,46.9,0,0.772,0,0,0,0, ,0,0,0,0,0, ,1004.3,41.1,-32.2,20.1,71.4,3.8,25,991.964,5.33075,12.5905,0.134135,5.56891,-3.35254,
2026_07_06_17_15_04.041,3.871,47.2,0,0.771,0,0,0,0, ,0,0,0,0,0, ,1030.7,35,17.5,29.4,109.4,0.8,25,993.52,7.32458,11.3754,1.63416,10.7383,-3.00809,
2026_07_06_17_15_04.061,3.871,47,0,0.772,0,0,0,0, ,0,0,0,0,0, ,1230.8,-16.7,72.7,7.5,121.2,10.6,25,1001.88,7.43582,13.4305,2.65888,17.11,-2.47744,
2026_07_06_17_15_04.079,3.871,46.9,0,0.772,0,0,0,0, ,0,0,0,0,0, ,1156.9,25,123.1,3.9,145,10.1,25,1013.58,7.23559,18.5778,2.8442,24.1782,-1.69577,
2026_07_06_17_15_04.101,3.871,47,0,0.772,0,0,0,0, ,0,0,0,0,0, ,1106.2,14.5,229,12.8,212.2,-10.4,25,1020.77,7.99819,28.1738,3.17971,33.5883,-1.60158,
2026_07_06_17_15_04.118,3.871,47,0,0.771,0,0,0,0, ,0,0,0,0,0, ,994.3,22.2,322.1,22.6,232.7,3.6,25,1022.57,8.629,43.2483,4.06454,45.097,-1.71117,
2026_07_06_17_15_04.140,3.871,47,0,0.772,0,0,0,0, ,0,0,0,0,0, ,892.9,10.6,371.2,16,238.4,8.9,25,1017.75,9.10254,61.7368,4.99295,56.7027,-1.22603,
2026_07_06_17_15_04.159,3.871,47,0,0.772,0,0,0,0, ,0,0,0,0,0, ,817.7,3.1,436.2,7.4,223.2,11.6,25,1007.85,8.96528,82.5752,5.40166,67.3118,-0.526712,
2026_07_06_17_15_04.180,3.871,47,0,0.772,0,0,0,0, ,0,0,0,0,0, ,772.9,-4.7,485.7,4.1,201.4,19.8,25,994.902,8.37021,105.632,5.42289,76.147,0.462103,
2026_07_06_17_15_04.198,3.871,47,0,0.772,0,0,0,0, ,0,0,0,0,0, ,717.5,-17.5,520.8,2.7,192.9,28.7,25,979.686,7.18374,129.862,5.29962,83.5206,1.91168,
2026_07_06_17_15_04.220,3.871,46.9,0,0.772,0,0,0,0, ,0,0,0,0,0, ,619.5,-25.8,532.7,7.1,198.9,24.6,25,960.723,5.42669,154.048,5.27527,90.3687,3.41917,
2026_07_06_17_15_04.238,3.871,46.9,0,0.771,0,0,0,0, ,0,0,0,0,0, ,531.4,-28.8,546.2,13.2,200.5,9.1,25,937.245,3.4324,177.533,5.57232,97.0311,4.23761,
2026_07_06_17_15_04.258,3.871,47,0,0.772,0,0,0,0, ,0,0,0,0,0, ,500,-33.6,595.3,18.1,194.6,-0.3,25,911.557,1.32199,201.495,6.18643,103.156,4.24751,
2026_07_06_17_15_04.277,3.871,46.9,0,0.771,0,0,0,0, ,0,0,0,0,0, ,481.5,-28.3,644.6,24.5,190.1,-1.8,25,885.914,-0.644582,226.994,7.10741,108.592,3.92469,
2026_07_06_17_15_04.298,3.871,47,0,0.77,0,0,0,0, ,0,0,0,0,0, ,445.4,-16.4,692.6,28.7,180.5,0.1,25,860.17,-1.96726,253.905,8.29524,113.266,3.63373,
2026_07_06_17_15_04.318,3.871,46.9,0,0.772,0,0,0,0, ,0,0,0,0,0, ,404.2,3.6,751.5,29,163.4,3,25,833.64,-2.23738,282.432,9.5478,116.842,3.50675,
2026_07_06_17_15_04.339,3.871,47,0,0.771,0,0,0,0, ,0,0,0,0,0, ,380.7,21.8,822.8,29.3,142.6,6.5,25,806.755,-1.32713,313.188,10.7423,119.046,3.58251,
2026_07_06_17_15_04.356,3.871,46.9,0,0.771,0,0,0,0, ,0,0,0,0,0, ,377.5,17,854.3,27.8,133.6,9,25,780.695,-0.0640702,345.203,11.8275,120.207,3.83647,
2026_07_06_17_15_04.377,3.871,47,0,0.771,0,0,0,0, ,0,0,0,0,0, ,365.9,28.5,884.5,28.9,123.1,14.2,25,755.772,1.32616,377.146,12.8343,120.703,4.30956,
2026_07_06_17_15_04.396,3.871,46.8,0,0.771,0,0,0,0, ,0,0,0,0,0, ,339.8,34.1,913.6,31.9,108.6,15.6,25,731.219,3.15269,408.949,13.9047,120.407,4.95492,
2026_07_06_17_15_04.418,3.871,47,0,0.772,0,0,0,0, ,0,0,0,0,0, ,312.9,46.8,960.2,38.4,92.5,21.8,25,706.547,5.4255,441.121,15.1993,119.197,5.79251,
2026_07_06_17_15_04.437,3.871,47,0,0.772,0,0,0,0, ,0,0,0,0,0, ,256.9,80.5,999,34.4,75.3,30,25,680.853,8.97355,473.935,16.4913,117.046,7.01781,
2026_07_06_17_15_04.458,3.871,47,0,0.772,0,0,0,0, ,0,0,0,0,0, ,216.5,77.5,992,34.3,62,32.4,25,653.787,13.2408,505.718,17.5795,114.097,8.49141,
2026_07_06_17_15_04.476,3.871,46.9,0,0.772,0,0,0,0, ,0,0,0,0,0, ,174.4,95,994.6,36.7,50.1,28.4,25,625.857,17.6898,535.43,18.6716,110.56,9.82646,
2026_07_06_17_15_04.498,3.871,46.9,0,0.772,0,0,0,0, ,0,0,0,0,0, ,174,118.8,1034.6,34.6,39.6,24.3,25,598.334,23.126,564.629,19.7062,106.556,10.8334,
2026_07_06_17_15_04.515,3.871,46.9,0,0.771,0,0,0,0, ,0,0,0,0,0, ,169.4,130,1040.6,34.3,37.9,18.9,25,572.336,29.2974,593.451,20.6046,102.424,11.4895,
2026_07_06_17_15_04.537,3.871,46.9,0,0.771,0,0,0,0, ,0,0,0,0,0, ,156,131.3,1064,31.9,42.1,15.8,25,547.374,35.4736,621.412,21.3661,98.6198,11.8466,
2026_07_06_17_15_04.555,3.871,46.9,0,0.772,0,0,0,0, ,0,0,0,0,0, ,260.4,164,1348.7,18,53.9,31.3,25,526.706,42.3093,657.057,21.5845,95.5351,12.5598,
2026_07_06_17_15_04.577,3.871,46.9,0,0.772,0,0,0,0, ,0,0,0,0,0, ,172.9,195.9,1223.2,13.8,45,7.7,25,507.812,50.6968,695.38,21.2381,92.7268,12.9827,
2026_07_06_17_15_04.593,3.871,46.8,0,0.771,0,0,0,0, ,0,0,0,0,0, ,109.9,148.4,1046.5,2.6,26.3,-3.9,25,485.484,58.0979,722.16,20.4436,89.2487,12.3073,
2026_07_06_17_15_04.617,3.871,46.8,0,0.771,0,0,0,0, ,0,0,0,0,0, ,90.4,112.6,920.8,2.1,0.9,1.7,25,462.002,62.5099,738.095,19.341,84.6389,11.4903,
2026_07_06_17_15_04.636,3.871,46.9,0,0.77,0,0,0,0, ,0,0,0,0,0, ,102.7,114.2,856.8,9.4,4.7,1,25,439.733,65.611,747.278,18.5128,79.6518,10.8724,
2026_07_06_17_15_04.657,3.871,46.9,0,0.772,0,0,0,0, ,0,0,0,0,0, ,108.1,115.4,885.6,17,21.5,-5.3,25,419.359,68.6084,754.83,18.189,75.5963,10.0788,
2026_07_06_17_15_04.674,3.871,46.8,0,0.772,0,0,0,0, ,0,0,0,0,0, ,149,132.9,975.8,20.9,39.6,-8,25,401.638,71.993,765.547,18.2354,72.8513,9.05943,
2026_07_06_17_15_04.695,3.871,46.9,0,0.771,0,0,0,0, ,0,0,0,0,0, ,180.7,150.5,1081.9,15,48.9,-9.3,25,387.209,76.2408,781.592,18.218,71.1084,7.98026,
2026_07_06_17_15_04.713,3.871,46.9,0,0.772,0,0,0,0, ,0,0,0,0,0, ,135.3,153.4,1059.6,6.6,29.3,-6,25,373.241,80.8543,799.212,17.766,69.1579,7.02779,
2026_07_06_17_15_04.738,3.871,46.9,0,0.771,0,0,0,0, ,0,0,0,0,0, ,104.9,139,975.2,5.6,11.3,-0.9,25,357.815,84.8363,812.508,17.0551,66.1806,6.3893,
2026_07_06_17_15_04.752,3.871,46.9,0,0.772,0,0,0,0, ,0,0,0,0,0, ,78.3,140.5,958.9,7.3,12.3,-1,25,341.593,88.1826,821.926,16.4088,62.8668,5.94206,
2026_07_06_17_15_04.775,3.871,46.9,0,0.771,0,0,0,0, ,0,0,0,0,0, ,53.2,153.5,983.1,6.8,15.4,-2.8,25,324.784,91.7668,831.01,15.8385,59.8798,5.46419,
2026_07_06_17_15_04.793,3.871,46.8,0,0.772,0,0,0,0, ,0,0,0,0,0, ,48.2,158.3,1000.4,4,12,-4.2,25,308.082,95.6749,840.805,15.2024,57.0658,4.91793,
2026_07_06_17_15_04.816,3.871,46.9,0,0.772,0,0,0,0, ,0,0,0,0,0, ,71,158.6,989.8,1.4,6.4,-4.7,25,292.94,99.5003,850.207,14.4406,54.1489,4.34707,
2026_07_06_17_15_04.832,3.871,46.8,0,0.771,0,0,0,0, ,0,0,0,0,0, ,85.4,158.8,989.7,1.8,2.3,-3.3,25,279.854,103.108,858.711,13.6581,51.1143,3.83842,
2026_07_06_17_15_04.854,3.871,46.9,0,0.771,0,0,0,0, ,0,0,0,0,0, ,79.8,159.7,995.6,0.7,1.7,-2.9,25,267.834,106.529,866.873,12.902,48.1214,3.41561,
2026_07_06_17_15_04.872,3.871,46.8,0,0.772,0,0,0,0, ,0,0,0,0,0, ,76.4,159.4,988.7,-0.9,1.9,-3.7,25,256.272,109.76,874.507,12.1097,45.2987,3.00638,
2026_07_06_17_15_04.895,3.871,46.9,0,0.772,0,0,0,0, ,0,0,0,0,0, ,81.1,155.7,978.8,-1.4,1.4,-4.8,25,245.454,112.672,881.164,11.3017,42.6389,2.5642,
2026_07_06_17_15_04.911,3.871,46.8,0,0.772,0,0,0,0, ,0,0,0,0,0, ,98.3,154.6,986,-0.8,-0.7,-4.4,25,235.963,115.261,887.333,10.5459,40.0619,2.12763,
2026_07_06_17_15_04.934,3.871,46.8,0,0.772,0,0,0,0, ,0,0,0,0,0, ,99.3,154.9,979.2,-0.1,0.5,-3.4,25,227.605,117.667,893.138,9.87587,37.6145,1.76032,
2026_07_06_17_15_04.950,3.871,46.9,0,0.772,0,0,0,0, ,0,0,0,0,0, ,91.1,155.2,982.4,0.1,4.3,-4,25,219.536,119.945,898.48,9.27406,35.4686,1.42758,
2026_07_06_17_15_04.973,3.871,46.9,0,0.771,0,0,0,0, ,0,0,0,0,0, ,82.8,154.7,985.3,-0.9,3.7,-3.9,25,211.457,122.078,903.682,8.68454,33.551,1.09988,
2026_07_06_17_15_04.991,3.871,46.8,0,0.772,0,0,0,0, ,0,0,0,0,0, ,80.3,153.9,986.9,-1.8,-0.6,-2.8,25,203.541,124.042,908.705,8.07306,31.601,0.82872,
2026_07_06_17_15_05.013,3.871,46.8,0,0.772,0,0,0,0, ,0,0,0,0,0, ,78,152,994,-1.7,-2.7,-2.1,25,195.961,125.803,913.686,7.47447,29.5747,0.628923,
2026_07_06_17_15_05.030,3.871,46.8,0,0.772,0,0,0,0, ,0,0,0,0,0, ,77.6,148.1,974.7,-0.9,0.6,-3.5,25,188.76,127.281,917.992,6.93978,27.7085,0.419973,
2026_07_06_17_15_05.053,3.871,46.8,0,0.773,0,0,0,0, ,0,0,0,0,0, ,82.3,147.4,968.6,0,2.1,-4,25,182.13,128.528,921.262,6.48946,26.1023,0.165865,
2026_07_06_17_15_05.070,3.871,46.9,0,0.771,0,0,0,0, ,0,0,0,0,0, ,85.6,153.8,980.5,0.4,1.8,-2.3,25,176.147,129.873,924.509,6.1062,24.6305,-0.0361951,
2026_07_06_17_15_05.093,3.871,46.8,0,0.773,0,0,0,0, ,0,0,0,0,0, ,75.1,158,987.9,-0.1,-1.9,-1.2,25,170.309,131.459,928.146,5.74324,23.1266,-0.14063,
2026_07_06_17_15_05.108,3.871,46.7,0,0.771,0,0,0,0, ,0,0,0,0,0, ,69,160.8,995.2,-0.8,-8.1,-0.3,25,164.321,133.162,932.01,5.36584,21.4126,-0.177764,
2026_07_06_17_15_05.131,3.871,46.8,0,0.772,0,0,0,0, ,0,0,0,0,0, ,68.9,158.5,993.1,-0.5,-7.9,-0.5,25,158.51,134.776,935.797,4.99925,19.6203,-0.191306,
2026_07_06_17_15_05.150,3.871,46.8,0,0.772,0,0,0,0, ,0,0,0,0,0, ,78.9,150.3,966.5,0.4,-1.2,-3.1,25,153.354,135.972,938.478,4.69156,18.1474,-0.289336,
2026_07_06_17_15_05.173,3.871,46.8,0,0.771,0,0,0,0, ,0,0,0,0,0, ,102.1,155.5,989.9,0.5,-4.4,-1.8,25,149.524,137.003,940.899,4.43309,16.8709,-0.421001,
2026_07_06_17_15_05.188,3.871,46.7,0,0.772,0,0,0,0, ,0,0,0,0,0, ,139,158.9,1021.1,-1.7,-8.5,1.5,25,147.758,138.234,944.835,4.12639,15.4498,-0.404487,
2026_07_06_17_15_05.211,3.871,46.7,0,0.771,0,0,0,0, ,0,0,0,0,0, ,136.4,161.9,1022,-5.4,-13.2,9.8,25,147.145,139.585,949.51,3.65861,13.8471,-0.0355419,
2026_07_06_17_15_05.228,3.871,46.7,0,0.772,0,0,0,0, ,0,0,0,0,0, ,72.7,174.5,998.5,-6.8,-16.5,12.9,25,144.55,141.329,953.212,3.06394,12.0984,0.658264,
2026_07_06_17_15_05.251,3.871,46.8,0,0.772,0,0,0,0, ,0,0,0,0,0, ,73.1,194.2,1028,-10.3,-15.9,7.1,25,140.183,143.95,956.87,2.35622,10.374,1.22753,
2026_07_06_17_15_05.267,3.871,46.7,0,0.772,0,0,0,0, ,0,0,0,0,0, ,115.9,181.5,1114.8,-22.7,-23.3,2.8,25,137.4,146.625,963.849,1.20717,8.54744,1.45436,
2026_07_06_17_15_05.291,3.871,46.7,0,0.771,0,0,0,0, ,0,0,0,0,0, ,190.6,129,1139.7,-38.5,-30,7.7,25,138.365,147.151,973.807,-0.731081,6.4026,1.68566,
2026_07_06_17_15_05.309,3.871,46.8,0,0.772,0,0,0,0, ,0,0,0,0,0, ,209.2,111.6,1093.5,-39.5,-16.9,21.7,25,142.115,145.515,982.508,-3.06309,4.58345,2.47872,
2026_07_06_17_15_05.332,3.871,46.7,0,0.773,0,0,0,0, ,0,0,0,0,0, ,137.5,120.9,1030.2,-39.3,-13.7,22.5,25,144.019,143.731,987.343,-5.27737,3.37181,3.67439,
2026_07_06_17_15_05.346,3.871,46.8,0,0.772,0,0,0,0, ,0,0,0,0,0, ,111.4,106.2,1012.9,-35.8,-21.2,19.4,25,142.826,141.892,989.427,-7.24399,2.10298,4.72713,
2026_07_06_17_15_05.370,3.871,46.8,0,0.771,0,0,0,0, ,0,0,0,0,0, ,97.9,112.3,1073.4,-40,-39.9,20.1,25,140.5,139.903,992.701,-9.11209,0.113187,5.64258,
2026_07_06_17_15_05.385,3.871,46.7,0,0.771,0,0,0,0, ,0,0,0,0,0, ,88.9,120.2,1119.5,-52,-72.1,22,25,137.63,138.462,999.023,-11.3599,-3.30621,6.58147,
2026_07_06_17_15_05.410,3.871,46.7,0,0.772,0,0,0,0, ,0,0,0,0,0, ,125,87.1,1066.5,-63.1,-107.1,25.6,25,135.76,136.34,1004.75,-14.1746,-8.56474,7.63073,
2026_07_06_17_15_05.426,3.871,46.8,0,0.771,0,0,0,0, ,0,0,0,0,0, ,158.3,43.8,984.2,-64.7,-123.3,26.9,25,136.119,132.02,1006.01,-17.2048,-15.0628,8.76534,
2026_07_06_17_15_05.450,3.871,46.7,0,0.771,0,0,0,0, ,0,0,0,0,0, ,168.5,13,938.4,-61.1,-133.4,19.1,25,137.781,125.706,1003.28,-19.9893,-21.9663,9.63276,
2026_07_06_17_15_05.466,3.871,46.6,0,0.773,0,0,0,0, ,0,0,0,0,0, ,227,-11.8,912.8,-58,-147.6,10.4,25,141.436,118.082,998.547,-22.4001,-29.1894,9.94459,
2026_07_06_17_15_05.489,3.871,46.7,0,0.772,0,0,0,0, ,0,0,0,0,0, ,310.3,-35.7,882.5,-58.6,-165.4,5.2,25,149.188,109.44,992.399,-24.5877,-36.9474,9.81391,
2026_07_06_17_15_05.505,3.871,46.6,0,0.771,0,0,0,0, ,0,0,0,0,0, ,380.7,-61.4,822.8,-63.1,-189,10.2,25,161.151,99.812,983.883,-26.7975,-45.494,9.68509,
2026_07_06_17_15_05.529,3.871,46.7,0,0.772,0,0,0,0, ,0,0,0,0,0, ,448.2,-90.6,759.1,-57.8,-191.8,17.2,25,176.586,89.0985,972.126,-28.8482,-54.3242,9.92975,
2026_07_06_17_15_05.545,3.871,46.7,0,0.771,0,0,0,0, ,0,0,0,0,0, ,474.6,-110.8,717,-47.2,-170,9.4,25,193.942,77.5326,957.862,-30.2894,-62.0375,10.1351,
2026_07_06_17_15_05.569,3.871,46.7,0,0.771,0,0,0,0, ,0,0,0,0,0, ,491.4,-118.2,702.3,-35.4,-145,-6.9,25,211.556,65.8307,942.737,-30.9604,-67.8547,9.59369,
2026_07_06_17_15_05.583,3.871,46.7,0,0.772,0,0,0,0, ,0,0,0,0,0, ,532.1,-122.9,660,-31.4,-134.9,-20.7,25,229.849,54.4731,926.796,-31.1091,-72.248,8.16813,
2026_07_06_17_15_05.608,3.871,46.6,0,0.773,0,0,0,0, ,0,0,0,0,0, ,633.3,-133.6,623.1,-27,-135.1,-25.2,25,251.351,43.3384,909.414,-30.9927,-76.072,6.27187,
2026_07_06_17_15_05.623,3.871,46.6,0,0.771,0,0,0,0, ,0,0,0,0,0, ,726.3,-147.4,604.9,-15.7,-131.3,-16.3,25,277.46,32.1357,891.412,-30.4051,-79.5532,4.62523,
2026_07_06_17_15_05.646,3.871,46.7,0,0.771,0,0,0,0, ,0,0,0,0,0, ,734.6,-149.6,603.6,-19.2,-124.7,-5.3,25,305.064,21.1283,873.913,-29.6157,-82.5054,3.68525,
2026_07_06_17_15_05.663,3.871,46.7,0,0.771,0,0,0,0, ,0,0,0,0,0, ,704.1,-139.6,590.2,-23.9,-134.3,-2,25,330.31,11.0292,857.033,-29.1242,-85.3692,3.23826,
2026_07_06_17_15_05.696,3.871,46.6,0,0.77,0,0,0,0, ,0,0,0,0,0, ,724.7,-147.7,527.9,-31.1,-148.4,-1.6,25,353.715,1.60343,838.875,-29.0252,-88.7805,2.93124,
2026_07_06_17_15_05.703,3.871,46.7,0,0.772,0,0,0,0, ,0,0,0,0,0, ,755,-152.7,501.4,-32.2,-149.6,-2.2,25,377.245,-7.64709,819.117,-29.1851,-92.4501,2.63684,
2026_07_06_17_15_05.724,3.871,46.6,0,0.772,0,0,0,0, ,0,0,0,0,0, ,821,-159,475.5,-28.5,-138.6,-4.5,25,402.275,-16.6782,798.967,-29.2561,-95.5975,2.27202,
2026_07_06_17_15_05.743,3.871,46.7,0,0.772,0,0,0,0, ,0,0,0,0,0, ,862.3,-158.6,453.3,-25.7,-120.5,-5.5,25,429.05,-25.3388,778.579,-29.1247,-97.6665,1.82888,
2026_07_06_17_15_05.766,3.871,46.7,0,0.771,0,0,0,0, ,0,0,0,0,0, ,882.2,-164.1,423.7,-24.7,-106.7,-5,25,456.057,-33.6269,757.856,-28.8856,-98.6375,1.39751,
2026_07_06_17_15_05.781,3.871,46.7,0,0.771,0,0,0,0, ,0,0,0,0,0, ,893.9,-168.5,378.1,-23.4,-99.2,-3.7,25,482.382,-41.7117,736.104,-28.5909,-98.9003,1.04727,
2026_07_06_17_15_05.807,3.871,46.6,0,0.771,0,0,0,0, ,0,0,0,0,0, ,915.4,-170.7,353.1,-20,-87.5,-4,25,508.114,-49.5049,713.526,-28.171,-98.562,0.748842,
2026_07_06_17_15_05.822,3.871,46.6,0,0.771,0,0,0,0, ,0,0,0,0,0, ,943.1,-169.4,349.3,-19.9,-74.9,-7.7,25,533.777,-56.8506,691.447,-27.67,-97.504,0.346725,
2026_07_06_17_15_05.845,3.871,46.6,0,0.771,0,0,0,0, ,0,0,0,0,0, ,948.8,-172.2,330.3,-23.6,-71.8,-6.9,25,558.894,-63.7944,670.018,-27.3093,-96.0321,-0.119247,
2026_07_06_17_15_05.860,3.871,46.7,0,0.77,0,0,0,0, ,0,0,0,0,0, ,923.8,-156,308.3,-25.8,-77.9,1.4,25,581.892,-69.9068,648.647,-27.1503,-94.7414,-0.279559,
2026_07_06_17_15_05.886,3.871,46.6,0,0.77,0,0,0,0, ,0,0,0,0,0, ,906.8,-161.6,261.5,-24.8,-80.9,-5.7,25,602.209,-75.3237,626.481,-27.0375,-93.8065,-0.393539,
2026_07_06_17_15_05.903,3.871,46.6,0,0.771,0,0,0,0, ,0,0,0,0,0, ,941.1,-169,244.7,-20.8,-75.5,-8.7,25,621.815,-80.8066,603.728,-26.7793,-92.8555,-0.808307,
2026_07_06_17_15_05.927,3.871,46.7,0,0.771,0,0,0,0, ,0,0,0,0,0, ,963,-168,223,-16.3,-66.7,-9.3,25,641.939,-86.1504,581.188,-26.2778,-91.5298,-1.30749,
2026_07_06_17_15_05.940,3.871,46.5,0,0.772,0,0,0,0, ,0,0,0,0,0, ,992.3,-160.8,193.7,-13.1,-52.7,-8.4,25,662.396,-90.9188,558.469,-25.5723,-89.5901,-1.76711,
2026_07_06_17_15_05.964,3.871,46.5,0,0.771,0,0,0,0, ,0,0,0,0,0, ,1019.1,-172.7,164.7,-14.4,-38.7,-5.2,25,683.316,-95.5397,535.357,-24.8519,-86.9156,-2.0738,
2026_07_06_17_15_05.979,3.871,46.6,0,0.772,0,0,0,0, ,0,0,0,0,0, ,1009,-173.3,153.3,-13.6,-35.5,-4.6,25,703.47,-100.26,512.423,-24.1906,-83.8799,-2.24602,
2026_07_06_17_15_06.006,3.871,46.6,0,0.771,0,0,0,0, ,0,0,0,0,0, ,1000.9,-170.2,145.5,-12.2,-32.5,-5.5,25,721.842,-104.616,490.301,-23.5026,-80.8404,-2.41689,
2026_07_06_17_15_06.020,3.871,46.6,0,0.772,0,0,0,0, ,0,0,0,0,0, ,1010.3,-171.5,142.7,-9.2,-25,-5.2,25,739.133,-108.653,469.204,-22.7224,-77.6661,-2.59563,
2026_07_06_17_15_06.044,3.871,46.6,0,0.771,0,0,0,0, ,0,0,0,0,0, ,983.3,-162.1,146.9,-8.9,-14.1,-9.4,25,754.835,-112.196,449.436,-21.8893,-74.1247,-2.8823,
2026_07_06_17_15_06.059,3.871,46.6,0,0.771,0,0,0,0, ,0,0,0,0,0, ,956.9,-163.4,135.4,-11.8,-5.9,-13.9,25,767.953,-115.277,430.65,-21.1861,-70.2171,-3.41658,
2026_07_06_17_15_06.084,3.871,46.6,0,0.771,0,0,0,0, ,0,0,0,0,0, ,932.3,-162.1,116.9,-11.1,-3.5,-13.1,25,778.717,-118.169,412.094,-20.5928,-66.2246,-4.03104,
2026_07_06_17_15_06.098,3.871,46.6,0,0.77,0,0,0,0, ,0,0,0,0,0, ,924.4,-157.3,94.7,-10.6,-3.3,-14.1,25,787.835,-120.7,393.43,-19.9991,-62.3963,-4.61415,
2026_07_06_17_15_06.122,3.871,46.6,0,0.771,0,0,0,0, ,0,0,0,0,0, ,930.9,-148.3,93.1,-9.6,-3.2,-15,25,796.355,-122.656,375.177,-19.3959,-58.792,-5.21961,
2026_07_06_17_15_06.139,3.871,46.6,0,0.771,0,0,0,0, ,0,0,0,0,0, ,949.3,-138,101.8,-7.2,-5.7,-16.1,25,805.115,-123.905,358.253,-18.7258,-55.4806,-5.84912,
2026_07_06_17_15_06.162,3.871,46.6,0,0.772,0,0,0,0, ,0,0,0,0,0, ,961.5,-139.2,103.1,-4,-12.2,-13.4,25,814.273,-124.801,342.665,-17.9259,-52.6451,-6.39152,
2026_07_06_17_15_06.178,3.871,46.6,0,0.773,0,0,0,0, ,0,0,0,0,0, ,971,-135.7,119.1,-2.1,-18.5,-11,25,823.534,-125.571,328.554,-17.0194,-50.3724,-6.74547,
2026_07_06_17_15_06.202,3.871,46.6,0,0.772,0,0,0,0, ,0,0,0,0,0, ,992.1,-134.3,135.2,19.5,-17.8,-11.5,25,833.163,-126.146,316.281,-15.4522,-48.4089,-7.01997,
2026_07_06_17_15_06.217,3.871,46.6,0,0.772,0,0,0,0, ,0,0,0,0,0, ,1014.2,-131.3,118.4,16.3,-14.2,-11.4,25,843.521,-126.551,304.734,-13.4198,-46.434,-7.28992,
2026_07_06_17_15_06.242,3.871,46.5,0,0.772,0,0,0,0, ,0,0,0,0,0, ,1019,-134.6,105.5,-1.4,-10.9,-7.6,25,854.068,-126.941,292.987,-12.148,-44.3692,-7.4246,
2026_07_06_17_15_06.257,3.871,46.6,0,0.771,0,0,0,0, ,0,0,0,0,0, ,1009.6,-131.7,102,-3.5,-8.1,-6.9,25,863.833,-127.32,281.455,-11.557,-42.2443,-7.41396,
2026_07_06_17_15_06.281,3.871,46.6,0,0.772,0,0,0,0, ,0,0,0,0,0, ,1011.8,-132.5,95.2,2,-4.5,-7.5,25,872.782,-127.611,270.312,-10.8985,-40.054,-7.40092,
2026_07_06_17_15_06.297,3.871,46.6,0,0.772,0,0,0,0, ,0,0,0,0,0, ,996.8,-126.5,99.1,0.6,-2.3,-6.7,25,880.797,-127.726,259.76,-10.1551,-37.8204,-7.38258,
2026_07_06_17_15_06.323,3.871,46.5,0,0.771,0,0,0,0, ,0,0,0,0,0, ,980.4,-122.4,96.6,-3.4,-3.7,-5.2,25,887.366,-127.526,249.894,-9.62163,-35.6985,-7.29529,
2026_07_06_17_15_06.336,3.871,46.5,0,0.771,0,0,0,0, ,0,0,0,0,0, ,974.7,-123.5,85.4,-2.4,-4.3,-3.2,25,892.862,-127.248,240.211,-9.21203,-33.7669,-7.10667,
2026_07_06_17_15_06.361,3.871,46.6,0,0.77,0,0,0,0, ,0,0,0,0,0, ,952.6,-113.4,85.6,-1.3,-4.2,-2.8,25,897.175,-126.711,230.784,-8.76341,-31.9682,-6.85642,
2026_07_06_17_15_06.376,3.871,46.5,0,0.772,0,0,0,0, ,0,0,0,0,0, ,948.2,-112.4,83.4,-1.1,-5.2,-3.8,25,900.419,-125.87,221.869,-8.30251,-30.3065,-6.6397,
2026_07_06_17_15_06.401,3.871,46.5,0,0.772,0,0,0,0, ,0,0,0,0,0, ,961.1,-114.3,83.7,-0.2,-7,-5.3,25,903.723,-125.107,213.441,-7.83619,-28.8314,-6.51236,
2026_07_06_17_15_06.415,3.871,46.6,0,0.772,0,0,0,0, ,0,0,0,0,0, ,975.2,-116.3,82,1.2,-5.2,-6.5,25,907.649,-124.509,205.483,-7.3282,-27.4462,-6.47504,
2026_07_06_17_15_06.447,3.871,46.5,0,0.771,0,0,0,0, ,0,0,0,0,0, ,978.5,-114.1,83.1,0.7,-4.3,-5.8,25,911.866,-123.942,197.991,-6.82375,-26.0632,-6.45523,
2026_07_06_17_15_06.455,3.871,46.5,0,0.771,0,0,0,0, ,0,0,0,0,0, ,984.6,-113.6,80.2,0.3,-3.8,-4.9,25,916.113,-123.327,190.902,-6.37746,-24.7218,-6.38788,
2026_07_06_17_15_06.479,3.871,46.5,0,0.771,0,0,0,0, ,0,0,0,0,0, ,987.9,-114.7,85.5,-0.7,-2.3,-4.6,25,920.387,-122.768,184.317,-6.00102,-23.4011,-6.28808,
2026_07_06_17_15_06.495,3.871,46.5,0,0.772,0,0,0,0, ,0,0,0,0,0, ,987.1,-107.4,101.9,-1.6,-2.8,-5,25,924.476,-122.054,178.795,-5.70541,-22.1305,-6.1974,
2026_07_06_17_15_06.520,3.871,46.5,0,0.77,0,0,0,0, ,0,0,0,0,0, ,1003.6,-108.1,94.9,-0.6,-1.3,-7.4,25,928.795,-121.182,173.896,-5.42477,-20.9069,-6.19755,
2026_07_06_17_15_06.533,3.871,46.5,0,0.77,0,0,0,0, ,0,0,0,0,0, ,1042.9,-115.1,92.2,1.8,2.6,-8.9,25,934.551,-120.598,169,-5.05763,-19.5932,-6.31653,
2026_07_06_17_15_06.560,3.871,46.5,0,0.771,0,0,0,0, ,0,0,0,0,0, ,1042.7,-103,95.7,2.7,5.1,-8.3,25,941.147,-119.894,164.427,-4.61232,-18.1647,-6.45568,
2026_07_06_17_15_06.573,3.871,46.5,0,0.773,0,0,0,0, ,0,0,0,0,0, ,1053.7,-86.3,117.9,7.6,7.1,-14.3,25,947.671,-118.356,160.915,-4.01743,-16.686,-6.75088,
2026_07_06_17_15_06.599,3.871,46.5,0,0.771,0,0,0,0, ,0,0,0,0,0, ,1065.7,-60.4,156.1,14.6,0.4,-19.5,25,954.498,-115.614,159.458,-3.09621,-15.4407,-7.36934,
2026_07_06_17_15_06.612,3.871,46.5,0,0.771,0,0,0,0, ,0,0,0,0,0, ,1074.2,-41.7,170.2,24.6,1.4,-36,25,961.533,-111.679,159.683,-1.71316,-14.445,-8.61129,
2026_07_06_17_15_06.639,3.871,46.5,0,0.771,0,0,0,0, ,0,0,0,0,0, ,1095.8,-28.9,176.7,26,-10,-38.1,25,969.057,-107.025,160.522,-0.0670484,-13.8268,-10.3443,
2026_07_06_17_15_06.653,3.871,46.5,0,0.771,0,0,0,0, ,0,0,0,0,0, ,1107.7,-17.8,153.1,17.2,-39,-29.9,25,977.143,-101.926,160.789,1.25329,-14.4772,-11.7858,
2026_07_06_17_15_06.679,3.871,46.5,0,0.771,0,0,0,0, ,0,0,0,0,0, ,1027.5,-19.2,52.1,16.5,-59.5,-28.3,25,982.655,-96.8422,157.243,2.20371,-16.5961,-12.8409,
2026_07_06_17_15_06.692,3.871,46.5,0,0.772,0,0,0,0, ,0,0,0,0,0, ,930,1.2,8.3,21.4,-65.8,-46,25,982.417,-91.4893,149.501,3.22419,-19.4025,-14.3222,
2026_07_06_17_15_06.718,3.871,46.4,0,0.771,0,0,0,0, ,0,0,0,0,0, ,887.9,62,52.4,19.8,-73.6,-70.5,25,977.94,-83.9886,142.24,4.28303,-22.4675,-16.9991,
2026_07_06_17_15_06.732,3.871,46.4,0,0.771,0,0,0,0, ,0,0,0,0,0, ,871.5,120.3,17.7,15.4,-84,-92.9,25,971.954,-73.316,135.708,5.09453,-25.9003,-20.9418,
2026_07_06_17_15_06.757,3.871,46.5,0,0.771,0,0,0,0, ,0,0,0,0,0, ,992,153.5,1.7,16.6,-76.3,-113,25,969.504,-60.506,128.03,5.75908,-29.2061,-25.9392,
2026_07_06_17_15_06.772,3.871,46.4,0,0.772,0,0,0,0, ,0,0,0,0,0, ,936.4,164.1,-66,21.5,-45.9,-136.8,25,969.181,-47.142,118.269,6.569,-31.1497,-31.9696,
2026_07_06_17_15_06.797,3.871,46.5,0,0.769,0,0,0,0, ,0,0,0,0,0, ,895,196.2,-83.2,18.2,-24.1,-145.6,25,965.922,-33.2914,106.516,7.37831,-31.3843,-38.6258,
2026_07_06_17_15_06.811,3.871,46.4,0,0.77,0,0,0,0, ,0,0,0,0,0, ,828.1,264.1,-65.9,9.7,-7.5,-155.3,25,959.561,-17.238,95.4822,7.77877,-30.4346,-45.4401,
2026_07_06_17_15_06.838,3.871,46.5,0,0.772,0,0,0,0, ,0,0,0,0,0, ,810.3,295.4,-45.1,1,-2.9,-168.2,25,951.008,0.859724,86.2817,7.63077,-28.8969,-52.5277,
2026_07_06_17_15_06.854,3.871,46.4,0,0.77,0,0,0,0, ,0,0,0,0,0, ,823.8,335.6,-23.9,-11.4,-22.7,-158.4,25,942.845,20.0331,78.9216,6.84889,-27.916,-59.2779,
2026_07_06_17_15_06.880,3.871,46.4,0,0.771,0,0,0,0, ,0,0,0,0,0, ,803.4,389.1,-81.1,-23.8,-41,-154.1,25,934.969,40.893,70.9131,5.35904,-28.1557,-65.1871,
2026_07_06_17_15_06.890,3.871,46.4,0,0.771,0,0,0,0, ,0,0,0,0,0, ,784.5,381.5,-114,-29.3,-34.5,-167.8,25,926.376,61.8803,60.6474,3.41458,-28.7404,-71.0227,
2026_07_06_17_15_06.917,3.871,46.4,0,0.771,0,0,0,0, ,0,0,0,0,0, ,808.3,425.9,-71.5,-37.2,-35.6,-153.5,25,918.455,82.71,51.2997,1.18033,-29.1249,-76.4844,
2026_07_06_17_15_06.930,3.871,46.5,0,0.772,0,0,0,0, ,0,0,0,0,0, ,779.7,484.6,-95.2,-51.3,-39.9,-137.6,25,910.871,105.412,43.0945,-1.58808,-29.6505,-80.693,
2026_07_06_17_15_06.956,3.871,46.4,0,0.772,0,0,0,0, ,0,0,0,0,0, ,735.9,572.2,-134.1,-51.8,-27.9,-155.5,25,901.544,131.187,33.4819,-4.63263,-29.9094,-84.7062,
2026_07_06_17_15_06.970,3.871,46.4,0,0.771,0,0,0,0, ,0,0,0,0,0, ,723.1,586,-155.6,-48.5,-21.4,-166.7,25,891.06,158.482,22.6148,-7.40635,-29.5889,-89.3615,
2026_07_06_17_15_06.996,3.871,46.4,0,0.771,0,0,0,0, ,0,0,0,0,0, ,791.3,607.5,-142.8,-49.8,-28,-150.5,25,882.903,185.189,12.1449,-9.9501,-29.291,-93.5807,
2026_07_06_17_15_07.009,3.871,46.5,0,0.771,0,0,0,0, ,0,0,0,0,0, ,812.9,669,-106.3,-53.5,-46.4,-122.7,25,877.979,212.797,3.81503,-12.4912,-29.773,-96.2022,
2026_07_06_17_15_07.036,3.871,46.4,0,0.771,0,0,0,0, ,0,0,0,0,0, ,693.2,693.1,-115.3,-56.5,-44.1,-129.2,25,870.366,241.332,-3.16933,-15.0816,-30.7161,-98.0149,
2026_07_06_17_15_07.048,3.871,46.4,0,0.771,0,0,0,0, ,0,0,0,0,0, ,669.6,694.5,-151.8,-58.7,-30.6,-127.8,25,858.851,268.904,-11.1144,-17.6725,-31.1203,-99.8726,
2026_07_06_17_15_07.075,3.871,46.4,0,0.772,0,0,0,0, ,0,0,0,0,0, ,683.8,685.6,-126.3,-60.2,-33.1,-118.7,25,847.751,294.568,-18.9105,-20.2183,-31.1648,-101.297,
2026_07_06_17_15_07.089,3.871,46.4,0,0.772,0,0,0,0, ,0,0,0,0,0, ,699,715.6,-145.9,-47,-41.8,-110.1,25,838.223,319.31,-26.0517,-22.2525,-31.5478,-102.096,
2026_07_06_17_15_07.114,3.871,46.3,0,0.771,0,0,0,0, ,0,0,0,0,0, ,637.5,770.2,-137.6,-45.9,-29.2,-106.3,25,827.866,345.123,-33.1021,-23.7271,-31.7886,-102.468,
2026_07_06_17_15_07.128,3.871,46.4,0,0.77,0,0,0,0, ,0,0,0,0,0, ,646.1,749.5,-107.9,-33.4,-25,-95.9,25,816.527,370.395,-38.565,-24.6974,-31.5029,-102.384,
2026_07_06_17_15_07.153,3.871,46.4,0,0.771,0,0,0,0, ,0,0,0,0,0, ,631.3,793.4,-123.4,-26,-11.5,-90.8,25,805.691,394.834,-43.2624,-25.0022,-30.6953,-101.834,
2026_07_06_17_15_07.168,3.871,46.4,0,0.772,0,0,0,0, ,0,0,0,0,0, ,602.5,785.1,-110.4,-11.2,-3.3,-89.8,25,794.186,418.869,-47.7497,-24.6121,-29.2758,-101.131,
2026_07_06_17_15_07.194,3.871,46.4,0,0.772,0,0,0,0, ,0,0,0,0,0, ,627.6,796.5,-96.5,-1.3,-9.9,-66.3,25,783.27,441.534,-51.1439,-23.4932,-27.894,-99.7244,
2026_07_06_17_15_07.207,3.871,46.4,0,0.771,0,0,0,0, ,0,0,0,0,0, ,533.6,842.5,-94.1,5,-14.7,-57.4,25,770.92,464.566,-53.8347,-21.9488,-26.9437,-97.4164,
2026_07_06_17_15_07.234,3.871,46.3,0,0.771,0,0,0,0, ,0,0,0,0,0, ,508.1,843.7,-76.6,9.9,-13.4,-55.2,25,755.681,487.633,-55.7551,-20.1573,-26.158,-94.9109,
2026_07_06_17_15_07.246,3.871,46.4,0,0.772,0,0,0,0, ,0,0,0,0,0, ,482,866.5,-81.5,15.2,-0.3,-50,25,739.799,510.025,-57.1747,-18.1642,-24.9814,-92.3326,
2026_07_06_17_15_07.272,3.871,46.3,0,0.77,0,0,0,0, ,0,0,0,0,0, ,473.8,889.8,-57.9,14.9,-7.7,-41.4,25,723.84,532.458,-57.9379,-16.1402,-23.7029,-89.4909,
2026_07_06_17_15_07.286,3.871,46.4,0,0.772,0,0,0,0, ,0,0,0,0,0, ,444,907.3,-49.8,10.6,-12.7,-33.3,25,707.695,554.767,-57.6888,-14.3797,-22.88,-86.3136,
2026_07_06_17_15_07.314,3.871,46.3,0,0.771,0,0,0,0, ,0,0,0,0,0, ,451.9,918.2,-50.6,8.3,-13.7,-28.7,25,691.867,576.581,-57.2325,-12.9276,-22.2902,-82.9429,
2026_07_06_17_15_07.326,3.871,46.4,0,0.771,0,0,0,0, ,0,0,0,0,0, ,418.8,951,-66.8,4,-10.2,-24.1,25,676.235,598.398,-57.3219,-11.7651,-21.6601,-79.4973,
2026_07_06_17_15_07.354,3.871,46.3,0,0.771,0,0,0,0, ,0,0,0,0,0, ,404,953.7,-77.1,-0.2,-7.1,-23.2,25,660.097,619.967,-58.2133,-10.9323,-20.8673,-76.0941,
2026_07_06_17_15_07.366,3.871,46.3,0,0.771,0,0,0,0, ,0,0,0,0,0, ,393.5,942.7,-81.5,-0.8,-2.1,-22.4,25,644.171,639.969,-59.4983,-10.2966,-19.876,-72.8465,
2026_07_06_17_15_07.392,3.871,46.3,0,0.771,0,0,0,0, ,0,0,0,0,0, ,405.1,936.5,-90,-1,-3.8,-13.8,25,629.249,658.227,-61.098,-9.72402,-18.8445,-69.5104,
2026_07_06_17_15_07.405,3.871,46.3,0,0.772,0,0,0,0, ,0,0,0,0,0, ,415.8,967.2,-111.6,-1.3,-9.8,0.1,25,615.916,676.12,-63.5173,-9.20154,-18.1106,-65.692,
2026_07_06_17_15_07.433,3.871,46.3,0,0.772,0,0,0,0, ,0,0,0,0,0, ,384.1,977.2,-112.1,1.7,-8,1.6,25,602.756,694.162,-66.4626,-8.62863,-17.5493,-61.6371,
2026_07_06_17_15_07.445,3.871,46.3,0,0.77,0,0,0,0, ,0,0,0,0,0, ,338.8,956.2,-91.6,2.3,1.9,-4.6,25,588.051,710.77,-68.619,-7.98095,-16.6658,-57.9725,
2026_07_06_17_15_07.470,3.871,46.3,0,0.771,0,0,0,0, ,0,0,0,0,0, ,339.2,947,-67.1,0.9,-1,-8.2,25,572.875,725.446,-69.2729,-7.39711,-15.6228,-54.8298,
2026_07_06_17_15_07.484,3.871,46.3,0,0.772,0,0,0,0, ,0,0,0,0,0, ,397.9,958.1,-90.4,-1,-7.9,-1.2,25,560.424,739.285,-69.8504,-6.9494,-14.9419,-51.775,
2026_07_06_17_15_07.513,3.871,46.3,0,0.772,0,0,0,0, ,0,0,0,0,0, ,453.7,951.4,-104.4,-1.2,-7.9,13.4,25,552.22,752.415,-71.5292,-6.59295,-14.5128,-48.2483,
2026_07_06_17_15_07.524,3.871,46.2,0,0.772,0,0,0,0, ,0,0,0,0,0, ,450.5,940.5,-98.7,-1.5,-8.2,26.8,25,546.119,764.208,-73.3586,-6.27346,-14.119,-44.0833,
2026_07_06_17_15_07.551,3.871,46.3,0,0.772,0,0,0,0, ,0,0,0,0,0, ,435.5,937.9,-108,-0.1,-4.4,31.9,25,539.835,774.872,-75.1862,-5.93992,-13.6425,-39.6085,
2026_07_06_17_15_07.563,3.871,46.3,0,0.772,0,0,0,0, ,0,0,0,0,0, ,456.9,944.7,-97.2,0,-7.7,41.2,25,534.129,785.014,-76.8568,-5.581,-13.1798,-34.9676,
2026_07_06_17_15_07.590,3.871,46.4,0,0.769,0,0,0,0, ,0,0,0,0,0, ,537.4,939.8,-84.3,-1.8,-13.8,57.2,25,531.876,794.595,-77.7034,-5.29575,-13.0318,-29.8386,
2026_07_06_17_15_07.603,3.871,46.3,0,0.771,0,0,0,0, ,0,0,0,0,0, ,638.9,933.2,-105.2,-5.8,-17.2,81.1,25,535.305,803.243,-78.7422,-5.2046,-13.1822,-23.8065,
2026_07_06_17_15_07.630,3.871,46.3,0,0.771,0,0,0,0, ,0,0,0,0,0, ,742.5,908.8,-139.7,-9,-18.6,115,25,544.774,810.418,-81.4056,-5.33839,-13.4697,-16.3809,
2026_07_06_17_15_07.643,3.871,46.2,0,0.771,0,0,0,0, ,0,0,0,0,0, ,778.4,879.3,-162.7,-12.2,-11.7,152,25,557.917,815.515,-85.6587,-5.65902,-13.5721,-7.24749,
2026_07_06_17_15_07.670,3.871,46.2,0,0.772,0,0,0,0, ,0,0,0,0,0, ,717.4,869.5,-156.7,-9.6,1.4,174.3,25,569.494,819.103,-90.1706,-5.97839,-13.0588,3.13611,
2026_07_06_17_15_07.683,3.871,46.3,0,0.771,0,0,0,0, ,0,0,0,0,0, ,758.9,801.2,-138.1,11.4,14.2,192,25,579.772,820.093,-93.658,-5.55924,-11.7878,14.1057,
2026_07_06_17_15_07.709,3.871,46.4,0,0.77,0,0,0,0, ,0,0,0,0,0, ,804,765,-158,0.2,18.5,195.8,25,592.061,817.839,-96.9725,-4.86703,-10.0731,25.0619,
2026_07_06_17_15_07.722,3.871,46.3,0,0.771,0,0,0,0, ,0,0,0,0,0, ,841.5,707.2,-154,-13,20.1,216.8,25,606.119,812.858,-100.57,-4.96045,-8.28319,36.1061,
2026_07_06_17_15_07.748,3.871,46.3,0,0.771,0,0,0,0, ,0,0,0,0,0, ,801.6,686,-170.1,-2.9,20.7,228.2,25,619.247,805.773,-104.316,-5.14262,-6.53531,47.4645,
2026_07_06_17_15_07.762,3.871,46.3,0,0.772,0,0,0,0, ,0,0,0,0,0, ,776.8,664.6,-168,9.2,16.9,227.6,25,629.603,797.823,-108.261,-4.63729,-4.99144,58.4598,
2026_07_06_17_15_07.789,3.871,46.2,0,0.771,0,0,0,0, ,0,0,0,0,0, ,762,617.7,-122,15.8,13.9,216.4,25,638.122,788.275,-110.5,-3.59299,-3.74884,68.4255,
2026_07_06_17_15_07.802,3.871,46.2,0,0.772,0,0,0,0, ,0,0,0,0,0, ,761.7,556.5,-116.3,19.5,10.8,205.2,25,645.662,776.016,-111.027,-2.29849,-2.76781,77.1015,
2026_07_06_17_15_07.828,3.871,46.2,0,0.771,0,0,0,0, ,0,0,0,0,0, ,775.7,492.7,-95.3,17.3,16.3,188.6,25,653.16,760.696,-110.708,-1.03718,-1.77345,84.4017,
2026_07_06_17_15_07.841,3.871,46.3,0,0.772,0,0,0,0, ,0,0,0,0,0, ,794.3,417.1,-39.4,8.1,20.1,169,25,661.194,742.061,-108.066,-0.200071,-0.556316,90.1541,
2026_07_06_17_15_07.869,3.871,46.2,0,0.771,0,0,0,0, ,0,0,0,0,0, ,808.4,353.2,-3.7,6.7,20.3,153.3,25,669.734,720.312,-102.794,0.263059,0.708522,94.4804,
2026_07_06_17_15_07.879,3.871,46.2,0,0.772,0,0,0,0, ,0,0,0,0,0, ,823.8,304.3,25.2,8.3,15.6,141.4,25,678.653,696.451,-95.8749,0.70406,1.75917,97.7021,
2026_07_06_17_15_07.907,3.871,46.3,0,0.771,0,0,0,0, ,0,0,0,0,0, ,819.7,258.4,-25.6,15.7,7.5,134.5,25,687.373,671.156,-90.0447,1.39241,2.3558,100.155,
2026_07_06_17_15_07.921,3.871,46.3,0,0.77,0,0,0,0, ,0,0,0,0,0, ,833.8,204.7,-58.2,5.2,9.9,129.2,25,695.867,644.367,-87.1109,1.94435,2.7424,102.086,
2026_07_06_17_15_07.947,3.871,46.2,0,0.771,0,0,0,0, ,0,0,0,0,0, ,859.2,124.7,-66.6,7.4,14.8,114.6,25,705.046,615.138,-85.605,2.20978,3.32786,103.294,
2026_07_06_17_15_07.959,3.871,46.3,0,0.773,0,0,0,0, ,0,0,0,0,0, ,836.5,90.6,-73.8,11.9,17.7,98.5,25,713.748,584.213,-84.6663,2.66316,4.11531,103.492,
2026_07_06_17_15_07.987,3.871,46.2,0,0.771,0,0,0,0, ,0,0,0,0,0, ,815.5,63.1,-58.7,12.9,8.9,81.4,25,720.588,553.295,-83.544,3.2565,4.675,102.667,
2026_07_06_17_15_07.999,3.871,46.2,0,0.772,0,0,0,0, ,0,0,0,0,0, ,814.3,24.5,-64.9,12.4,-0.4,65.2,25,726.335,522.248,-82.219,3.82892,4.6491,100.877,
2026_07_06_17_15_08.028,3.871,46.3,0,0.77,0,0,0,0, ,0,0,0,0,0, ,871.2,-15.7,-50,14.5,-1.3,54.5,25,733.429,490.692,-80.7097,4.4152,4.314,98.3772,
2026_07_06_17_15_08.039,3.871,46.2,0,0.771,0,0,0,0, ,0,0,0,0,0, ,905.2,-8.6,-20.6,20.4,5.9,46,25,742.861,460.05,-77.9425,5.20951,4.19127,95.4444,
2026_07_06_17_15_08.068,3.871,46.2,0,0.771,0,0,0,0, ,0,0,0,0,0, ,937.2,-25.2,-21.1,25.8,12.2,36.6,25,753.728,430.986,-74.4634,6.29971,4.48735,92.145,
2026_07_06_17_15_08.078,3.871,46.2,0,0.772,0,0,0,0, ,0,0,0,0,0, ,919.3,-37.9,-68.7,23.5,16.3,27.4,25,764.363,402.8,-72.6619,7.41793,5.08226,88.4799,
2026_07_06_17_15_08.107,3.871,46.2,0,0.772,0,0,0,0, ,0,0,0,0,0, ,937.8,-52.6,-76.9,12.8,22.3,20.5,25,774.368,375.497,-72.6703,8.07192,5.94866,84.5476,
2026_07_06_17_15_08.117,3.871,46.2,0,0.771,0,0,0,0, ,0,0,0,0,0, ,961.4,-40.1,-29.5,10.7,18.3,14.9,25,785.047,349.79,-71.4839,8.29605,6.82319,80.4741,
2026_07_06_17_15_08.145,3.871,46.2,0,0.772,0,0,0,0, ,0,0,0,0,0, ,990.4,-48.2,-6.3,20.4,2.6,8.7,25,796.677,325.785,-68.2186,8.73809,7.0442,76.2893,
2026_07_06_17_15_08.157,3.871,46.2,0,0.771,0,0,0,0, ,0,0,0,0,0, ,1040.1,-70.5,-15.2,32.3,-2.3,6.7,25,809.996,302.316,-64.7166,9.81131,6.62408,72.1096,
2026_07_06_17_15_08.186,3.871,46.3,0,0.771,0,0,0,0, ,0,0,0,0,0, ,1038.3,-75.4,6.5,30.2,3.9,6.9,25,823.963,279.448,-61.038,11.1177,6.26918,68.1298,
2026_07_06_17_15_08.197,3.871,46.2,0,0.771,0,0,0,0, ,0,0,0,0,0, ,1001.9,-53.2,32.7,17.7,8.7,5.9,25,835.915,258.501,-56.1241,11.8997,6.27106,64.3681,
2026_07_06_17_15_08.225,3.871,46.2,0,0.772,0,0,0,0, ,0,0,0,0,0, ,1012.3,-58.2,34.4,9.2,10.7,0,25,846.347,239.354,-50.6596,11.9942,6.48001,60.6255,
2026_07_06_17_15_08.244,3.871,46.1,0,0.772,0,0,0,0, ,0,0,0,0,0, ,1036.3,-70,43.9,9.4,13.4,-5,25,857.191,220.862,-45.1868,11.83,6.81943,56.7788,
2026_07_06_17_15_08.272,3.871,46.2,0,0.772,0,0,0,0, ,0,0,0,0,0, ,1042.1,-71.2,44.1,14.4,12.5,-6.6,25,868.282,203.101,-39.752,11.8343,7.19301,52.9654,
2026_07_06_17_15_08.277,3.871,46.3,0,0.771,0,0,0,0, ,0,0,0,0,0, ,1026.1,-64.6,34.1,15.9,8.1,-8,25,878.387,186.587,-34.947,12.0363,7.38234,49.2929,
2026_07_06_17_15_08.304,3.871,46.2,0,0.771,0,0,0,0, ,0,0,0,0,0, ,1024.5,-67.8,24,13.3,5.9,-10.9,25,887.339,171.183,-31.0472,12.1925,7.35904,45.7133,
2026_07_06_17_15_08.316,3.871,46.2,0,0.772,0,0,0,0, ,0,0,0,0,0, ,1063.2,-75,54.6,8.5,7,-9.5,25,896.876,156.401,-26.7604,12.1138,7.30365,42.3061,
2026_07_06_17_15_08.345,3.871,46.2,0,0.771,0,0,0,0, ,0,0,0,0,0, ,1076,-78.9,69.4,5.9,6.5,-3.1,25,907.402,142.181,-21.3515,11.8143,7.26991,39.3441,
2026_07_06_17_15_08.356,3.871,46.2,0,0.77,0,0,0,0, ,0,0,0,0,0, ,1055,-72.3,60.5,3.2,4.2,1.9,25,917.036,128.91,-16.0925,11.3717,7.15292,36.9101,
2026_07_06_17_15_08.384,3.871,46.2,0,0.77,0,0,0,0, ,0,0,0,0,0, ,1046.8,-77.6,54.3,-1.2,1.9,2.9,25,925.193,116.487,-11.6141,10.7396,6.9029,34.8071,
2026_07_06_17_15_08.395,3.871,46.1,0,0.77,0,0,0,0, ,0,0,0,0,0, ,1079.7,-92.2,54.6,-3.7,-1,7.3,25,933.606,104.215,-7.58831,9.9359,6.50967,32.9968,
2026_07_06_17_15_08.425,3.871,46.2,0,0.772,0,0,0,0, ,0,0,0,0,0, ,1081.9,-95.4,49.9,-4.7,-2.5,13.6,25,942.576,92.1485,-3.94192,9.0745,6.00635,31.6229,
2026_07_06_17_15_08.435,3.871,46.1,0,0.772,0,0,0,0, ,0,0,0,0,0, ,1072.8,-95,49,-4.5,-2.3,15.9,25,950.789,80.732,-0.688345,8.24121,5.49409,30.5947,
2026_07_06_17_15_08.461,3.871,46.1,0,0.771,0,0,0,0, ,0,0,0,0,0, ,1073.2,-107.5,51.2,-3.2,1,19.1,25,958.236,69.6424,2.40657,7.5044,5.11968,29.7967,
2026_07_06_17_15_08.474,3.871,46.1,0,0.771,0,0,0,0, ,0,0,0,0,0, ,1057.9,-117.6,41.5,-2.5,2.8,24.1,25,964.775,58.5401,5.08437,6.87343,4.92348,29.2972,
2026_07_06_17_15_08.504,3.871,46.1,0,0.769,0,0,0,0, ,0,0,0,0,0, ,1028,-118.7,19.1,-2,-0.8,30.9,25,969.539,47.773,6.62095,6.31747,4.68439,29.1877,
2026_07_06_17_15_08.513,3.871,46.1,0,0.772,0,0,0,0, ,0,0,0,0,0, ,1045.6,-135.4,5.7,-1,-11.4,40.7,25,973.638,37.1198,6.97311,5.84109,4.02722,29.5907,
2026_07_06_17_15_08.542,3.871,46.1,0,0.771,0,0,0,0, ,0,0,0,0,0, ,1034.6,-140.7,13.5,-3.2,-24.7,51.4,25,977.688,26.4454,7.13319,5.35718,2.68189,30.5936,
2026_07_06_17_15_08.554,3.871,46,0,0.769,0,0,0,0, ,0,0,0,0,0, ,1064.2,-160,32.3,-4.8,-36.9,59.8,25,982.058,15.6719,8.09398,4.78698,0.641588,32.1175,
2026_07_06_17_15_08.583,3.871,46.1,0,0.772,0,0,0,0, ,0,0,0,0,0, ,1069.2,-174.5,43.7,-1.1,-45.5,71.6,25,987.216,4.52509,9.91637,4.31551,-1.90813,34.1639,
2026_07_06_17_15_08.592,3.871,46,0,0.771,0,0,0,0, ,0,0,0,0,0, ,1101.6,-189.8,80.6,0.5,-51.9,83.4,25,993.199,-6.85042,13.0994,4.03425,-4.75951,36.8047,
2026_07_06_17_15_08.620,3.871,46.1,0,0.771,0,0,0,0, ,0,0,0,0,0, ,1111,-223,37.2,2.9,-54.6,96.6,25,1000.09,-19.0105,15.8903,3.89201,-7.7144,40.0463,
2026_07_06_17_15_08.633,3.871,46.1,0,0.771,0,0,0,0, ,0,0,0,0,0, ,1074.7,-241.2,-14.6,0.2,-48.2,102.8,25,1005.74,-31.9956,15.6106,3.74929,-10.3765,43.6814,
2026_07_06_17_15_08.661,3.871,46.1,0,0.77,0,0,0,0, ,0,0,0,0,0, ,1134.5,-279.7,-6.9,-1.5,-38.1,107.1,25,1011.77,-45.9171,14.0043,3.48121,-12.3736,47.415,
2026_07_06_17_15_08.673,3.871,46.1,0,0.771,0,0,0,0, ,0,0,0,0,0, ,1161.3,-350.2,8.3,-8.7,-27.8,127.8,25,1020.06,-62.3112,13.1935,2.95829,-13.6275,51.6827,
2026_07_06_17_15_08.702,3.871,46.1,0,0.772,0,0,0,0, ,0,0,0,0,0, ,997.1,-369.9,-28.5,-15.4,-18,138.5,25,1023.67,-80.4547,11.7741,2.04372,-14.1925,56.6472,
2026_07_06_17_15_08.712,3.871,46.1,0,0.771,0,0,0,0, ,0,0,0,0,0, ,807.9,-377.9,-79.1,-17,-17.2,126.3,25,1016.28,-98.3365,7.77816,0.931997,-14.4002,61.2633,
2026_07_06_17_15_08.739,3.871,46.2,0,0.772,0,0,0,0, ,0,0,0,0,0, ,893.1,-435.3,-80,-4.6,-23.2,111.6,25,1006.18,-117.121,2.45661,0.217078,-14.7536,64.7786,
2026_07_06_17_15_08.757,3.871,46,0,0.771,0,0,0,0, ,0,0,0,0,0, ,975.9,-499.3,-102.7,-0.5,-32.9,122.3,25,1001.81,-138.46,-3.25973,0.0484593,-15.5639,67.9578,
2026_07_06_17_15_08.788,3.871,46.1,0,0.771,0,0,0,0, ,0,0,0,0,0, ,858.5,-512.3,-113.7,-8.9,-39.1,135,25,996.657,-160.845,-9.65453,-0.2409,-16.8092,71.6562,
2026_07_06_17_15_08.793,3.871,46.1,0,0.769,0,0,0,0, ,0,0,0,0,0, ,721.6,-525.7,-112.9,-12.9,-40.6,130.5,25,984.066,-182.67,-15.9704,-0.890439,-18.2132,75.3791,
2026_07_06_17_15_08.821,3.871,46.1,0,0.77,0,0,0,0, ,0,0,0,0,0, ,744.6,-554.5,-97.7,-4.4,-40.9,119.2,25,968.773,-204.451,-21.4139,-1.36329,-19.5866,78.3938,
2026_07_06_17_15_08.831,3.871,46.1,0,0.772,0,0,0,0, ,0,0,0,0,0, ,827,-600.3,-127.3,2.5,-37.1,115.5,25,957.623,-227.178,-26.9645,-1.3381,-20.7696,80.7677,
2026_07_06_17_15_08.860,3.871,46,0,0.771,0,0,0,0, ,0,0,0,0,0, ,811,-663.6,-204.9,5.6,-33.8,127.6,25,949.176,-251.843,-35.4431,-1.00976,-21.6642,83.2528,
2026_07_06_17_15_08.869,3.871,46.1,0,0.771,0,0,0,0, ,0,0,0,0,0, ,696.6,-667.9,-209.7,11,-39.3,137.3,25,937.27,-277.066,-45.9156,-0.442451,-22.5713,86.2508,
2026_07_06_17_15_08.900,3.871,46.1,0,0.771,0,0,0,0, ,0,0,0,0,0, ,640.2,-694.3,-165.4,19,-35.8,128.4,25,920.886,-301.687,-54.5464,0.498573,-23.484,89.0904,
2026_07_06_17_15_08.910,3.871,46,0,0.771,0,0,0,0, ,0,0,0,0,0, ,683.1,-720.2,-107.9,22,-32.2,119.1,25,905.089,-326.401,-59.5496,1.71741,-24.1249,91.2025,
2026_07_06_17_15_08.938,3.871,46.1,0,0.77,0,0,0,0, ,0,0,0,0,0, ,768.4,-746.2,-118.2,29.3,-9.8,123.2,25,894.16,-351.19,-62.8098,3.1758,-23.9344,93.0274,
2026_07_06_17_15_08.950,3.871,46.1,0,0.771,0,0,0,0, ,0,0,0,0,0, ,719.9,-799.8,-187,25.8,7.5,136.2,25,885.019,-376.894,-68.2814,4.6611,-22.546,95.2622,
2026_07_06_17_15_08.978,3.871,46.1,0,0.771,0,0,0,0, ,0,0,0,0,0, ,522.5,-823.9,-139.8,21.4,-5.8,147.7,25,868.943,-403.399,-74.0777,5.81519,-21.1203,98.1072,
2026_07_06_17_15_08.989,3.871,45.9,0,0.772,0,0,0,0, ,0,0,0,0,0, ,449.3,-841.7,-84.9,13.8,-15.3,141.7,25,845.601,-429.566,-76.4099,6.53333,-20.4762,100.946,
2026_07_06_17_15_09.019,3.871,46,0,0.77,0,0,0,0, ,0,0,0,0,0, ,468.3,-864.2,-95.5,10.9,0.9,132.8,25,822.03,-455.366,-77.2502,6.88778,-19.6672,103.159,
2026_07_06_17_15_09.029,3.871,46.1,0,0.771,0,0,0,0, ,0,0,0,0,0, ,430.2,-863.8,-151.8,10.9,11.7,136.4,25,799.314,-480.267,-80.0777,7.13228,-18.0848,105.075,
2026_07_06_17_15_09.059,3.871,46,0,0.771,0,0,0,0, ,0,0,0,0,0, ,368.8,-881.8,-147.3,10.6,18.9,134.7,25,774.95,-504.187,-84.3112,7.35273,-16.0504,106.932,
2026_07_06_17_15_09.067,3.871,46.1,0,0.772,0,0,0,0, ,0,0,0,0,0, ,207.3,-906.8,-118,7.8,30.1,127,25,745.28,-527.959,-87.2568,7.4653,-13.5794,108.389,
2026_07_06_17_15_09.097,3.871,46,0,0.77,0,0,0,0, ,0,0,0,0,0, ,87.5,-908,-125,2.5,34.5,109.2,25,708.846,-551.082,-89.3435,7.32421,-10.7836,108.981,
2026_07_06_17_15_09.108,3.871,46,0,0.772,0,0,0,0, ,0,0,0,0,0, ,139.5,-908.2,-145.1,2.2,37.6,102.5,25,672.568,-572.837,-92.1288,7.0211,-7.92967,108.79,
2026_07_06_17_15_09.136,3.871,46.1,0,0.77,0,0,0,0, ,0,0,0,0,0, ,150.5,-907.7,-194.9,4,47.7,98.8,25,640.419,-593.258,-96.874,6.78215,-4.84747,108.294,
2026_07_06_17_15_09.147,3.871,46,0,0.771,0,0,0,0, ,0,0,0,0,0, ,92.1,-902.8,-186.5,7.5,49.6,93.5,25,608.785,-612.27,-102.592,6.71926,-1.58747,107.554,
2026_07_06_17_15_09.174,3.871,46.1,0,0.771,0,0,0,0, ,0,0,0,0,0, ,-13.6,-902.4,-173.2,7.1,46.1,87.4,25,574.079,-629.962,-107.299,6.75465,1.42512,106.512,
2026_07_06_17_15_09.188,3.871,46,0,0.771,0,0,0,0, ,0,0,0,0,0, ,-61.4,-884.2,-153.1,4,38.8,77.4,25,536.811,-646.009,-110.703,6.68124,3.92508,105.043,
2026_07_06_17_15_09.217,3.871,46,0,0.771,0,0,0,0, ,0,0,0,0,0, ,-66.6,-882.9,-166,1.7,38.2,70,25,500.199,-660.485,-113.68,6.44777,6.03199,103.133,
2026_07_06_17_15_09.226,3.871,46,0,0.771,0,0,0,0, ,0,0,0,0,0, ,-54.6,-880.1,-181.2,-1,37.4,66.5,25,466.025,-673.953,-117.331,6.07619,7.96785,101.007,
2026_07_06_17_15_09.258,3.871,46,0,0.771,0,0,0,0, ,0,0,0,0,0, ,-145.3,-900.8,-184.2,-4.9,28.3,65.8,25,431.536,-687.145,-121.314,5.52616,9.48411,98.8828,
2026_07_06_17_15_09.267,3.871,46,0,0.771,0,0,0,0, ,0,0,0,0,0, ,-200.9,-915.4,-169.7,-6.3,16.8,57.6,25,394.691,-700.61,-124.705,4.84816,10.2803,96.617,
2026_07_06_17_15_09.296,3.871,46.1,0,0.771,0,0,0,0, ,0,0,0,0,0, ,-188.3,-901.2,-177.9,-1.9,20.2,44,25,358.781,-713.266,-127.696,4.30288,10.7812,93.825,
2026_07_06_17_15_09.305,3.871,45.9,0,0.772,0,0,0,0, ,0,0,0,0,0, ,-155.8,-898,-213.5,1,26.9,35.6,25,326.434,-724.621,-131.84,4.01325,11.5593,90.5329,
2026_07_06_17_15_09.336,3.871,46,0,0.771,0,0,0,0, ,0,0,0,0,0, ,-188.5,-903.5,-204.7,3.5,18.8,35.7,25,296.051,-735.354,-136.548,3.9058,12.2473,87.1885,
2026_07_06_17_15_09.345,3.871,46,0,0.772,0,0,0,0, ,0,0,0,0,0, ,-252,-930.7,-174.4,2.6,13.3,29.6,25,264.589,-746.429,-139.778,3.85365,12.479,83.865,
2026_07_06_17_15_09.376,3.871,45.9,0,0.771,0,0,0,0, ,0,0,0,0,0, ,-268.4,-931,-169.1,3.4,16.6,14.4,25,232.61,-757.667,-141.726,3.80163,12.6296,80.0951,
2026_07_06_17_15_09.385,3.871,46,0,0.771,0,0,0,0, ,0,0,0,0,0, ,-222.4,-920.6,-187.3,8.5,22.7,2.7,25,203.481,-767.913,-143.949,3.93255,13.0574,75.7353,
2026_07_06_17_15_09.415,3.871,46,0,0.771,0,0,0,0, ,0,0,0,0,0, ,-169.6,-916.5,-191.5,12.9,22.3,1.9,25,179.138,-777.092,-146.719,4.34494,13.6328,71.2604,
2026_07_06_17_15_09.424,3.871,46,0,0.771,0,0,0,0, ,0,0,0,0,0, ,-206.6,-921.9,-159.5,10.6,12.2,3.2,25,156.759,-785.752,-148.473,4.79618,13.8533,67.0733,
2026_07_06_17_15_09.453,3.871,46,0,0.772,0,0,0,0, ,0,0,0,0,0, ,-275,-920.6,-131.5,7.5,0.8,-1,25,132.533,-794.009,-148.291,5.0554,13.4052,63.0531,
2026_07_06_17_15_09.464,3.871,45.9,0,0.771,0,0,0,0, ,0,0,0,0,0, ,-281.6,-920,-137.2,2.8,-3.1,-14,25,107.498,-801.705,-147.442,5.06117,12.5182,58.7538,
2026_07_06_17_15_09.493,3.871,45.9,0,0.77,0,0,0,0, ,0,0,0,0,0, ,-173.3,-922.2,-174.9,11.5,8.5,-26.9,25,87.0869,-808.98,-147.966,5.18845,11.9199,53.9273,
2026_07_06_17_15_09.504,3.871,46,0,0.771,0,0,0,0, ,0,0,0,0,0, ,-131.2,-937,-179.4,18.6,16.7,-27,25,72.5024,-816.33,-149.745,5.78939,11.9614,48.9988,
2026_07_06_17_15_09.534,3.871,46,0,0.771,0,0,0,0, ,0,0,0,0,0, ,-184.5,-941.4,-142.3,14.9,1.8,-23.6,25,58.4653,-823.818,-150.422,6.4573,11.7961,44.4712,
2026_07_06_17_15_09.543,3.871,46,0,0.771,0,0,0,0, ,0,0,0,0,0, ,-198.6,-951.6,-128.9,12.5,-7.3,-29.2,25,43.23,-831.294,-149.518,6.89866,10.9097,40.1525,
2026_07_06_17_15_09.574,3.871,45.9,0,0.771,0,0,0,0, ,0,0,0,0,0, ,-213.8,-952.7,-135.7,13.7,-3.7,-42.9,25,28.0303,-838.658,-148.469,7.27655,9.90976,35.5089,
2026_07_06_17_15_09.582,3.871,45.9,0,0.771,0,0,0,0, ,0,0,0,0,0, ,-184.5,-946.5,-148.9,20.1,1.8,-56.7,25,14.1865,-845.419,-148.093,7.86298,9.24799,30.3104,
2026_07_06_17_15_09.613,3.871,45.9,0,0.77,0,0,0,0, ,0,0,0,0,0, ,-43.2,-942.3,-174.6,27.6,7.8,-59,25,6.38429,-851.451,-148.925,8.83719,8.97694,24.9381,
2026_07_06_17_15_09.622,3.871,45.9,0,0.771,0,0,0,0, ,0,0,0,0,0, ,-40.1,-940.4,-164.9,35.3,7.5,-55.6,25,3.4572,-856.929,-150.194,10.2152,8.89608,19.9268,
2026_07_06_17_15_09.651,3.871,45.8,0,0.772,0,0,0,0, ,0,0,0,0,0, ,-131.7,-946.7,-140.9,40.1,3.2,-60.3,25,-1.988,-862.207,-150.359,11.89,8.67999,15.1811,
2026_07_06_17_15_09.662,3.871,45.9,0,0.771,0,0,0,0, ,0,0,0,0,0, ,-215.8,-950.6,-139.5,49.2,7.5,-82.6,25,-12.4547,-867.475,-149.74,13.8863,8.47707,9.90206,
2026_07_06_17_15_09.692,3.871,45.9,0,0.77,0,0,0,0, ,0,0,0,0,0, ,-145.9,-895.9,-126.8,69.3,29.7,-113.5,25,-22.7163,-870.874,-148.729,16.6507,9.09394,3.32373,
2026_07_06_17_15_09.702,3.871,45.9,0,0.771,0,0,0,0, ,0,0,0,0,0, ,141.3,-882.6,-149.9,91.4,61,-121.6,25,-21.4722,-871.994,-148.097,20.5324,11.3033,-4.04201,
2026_07_06_17_15_09.732,3.871,45.9,0,0.771,0,0,0,0, ,0,0,0,0,0, ,175.9,-876.7,-134.5,107.8,73.4,-114.9,25,-10.4991,-872.46,-147.737,25.3505,14.7095,-11.0016,
2026_07_06_17_15_09.741,3.871,45.9,0,0.77,0,0,0,0, ,0,0,0,0,0, ,129,-902,-48.2,91.2,67.7,-115.6,25,-0.569353,-873.489,-144.301,29.869,18.1123,-17.3542,
2026_07_06_17_15_09.772,3.871,45.9,0,0.77,0,0,0,0, ,0,0,0,0,0, ,17.9,-867.1,44.6,132,64.1,-114.7,25,3.9412,-874.163,-135.618,34.8495,21.0243,-23.3136,
2026_07_06_17_15_09.781,3.871,45.9,0,0.771,0,0,0,0, ,0,0,0,0,0, ,10.2,-831,171,115.3,45.8,-136.5,25,4.55721,-872.633,-120.784,40.2608,23.0917,-29.5467,
2026_07_06_17_15_09.812,3.871,45.9,0,0.771,0,0,0,0, ,0,0,0,0,0, ,107.4,-784.6,203.4,104.9,37.4,-148.4,25,7.86263,-868.682,-102.017,44.5166,24.2195,-36.4267,
2026_07_06_17_15_09.820,3.871,45.9,0,0.771,0,0,0,0, ,0,0,0,0,0, ,333.3,-762.5,266.1,105.9,37.7,-159,25,20.8111,-862.885,-81.4949,48.2267,25.0319,-43.5731,
2026_07_06_17_15_09.851,3.871,45.8,0,0.77,0,0,0,0, ,0,0,0,0,0, ,403.6,-754.6,282.7,108.4,44.1,-161.5,25,41.9953,-856.527,-59.8075,51.8173,25.9988,-50.6831,
2026_07_06_17_15_09.860,3.871,45.9,0,0.77,0,0,0,0, ,0,0,0,0,0, ,354.6,-675,318.3,108.5,35.2,-171.1,25,62.5376,-847.891,-37.8513,55.2684,26.8307,-57.7285,
2026_07_06_17_15_09.891,3.871,45.8,0,0.77,0,0,0,0, ,0,0,0,0,0, ,402.5,-586.3,415,89.7,-14.3,-175.3,25,81.7946,-834.653,-13.202,57.9394,25.8325,-64.765,
2026_07_06_17_15_09.900,3.871,45.9,0,0.771,0,0,0,0, ,0,0,0,0,0, ,603.7,-520,513.7,57.3,-56.9,-171.4,25,107.468,-817.499,15.8988,58.8876,22.089,-71.3819,
2026_07_06_17_15_09.930,3.871,45.8,0,0.771,0,0,0,0, ,0,0,0,0,0, ,788.2,-530.7,560.7,35.7,-44.6,-161.8,25,143.329,-799.696,47.6656,58.1327,17.6503,-77.1843,
2026_07_06_17_15_09.938,3.871,45.9,0,0.771,0,0,0,0, ,0,0,0,0,0, ,773.4,-540.8,557.4,46.6,-1.5,-161,25,182.174,-783.612,78.8281,57.0978,15.1702,-82.3162,
2026_07_06_17_15_09.970,3.871,45.8,0,0.772,0,0,0,0, ,0,0,0,0,0, ,745.8,-494.8,496.7,53,26.8,-161.7,25,217.361,-767.414,106.142,56.6531,15.0166,-87.1323,
2026_07_06_17_15_09.978,3.871,45.9,0,0.771,0,0,0,0, ,0,0,0,0,0, ,907.4,-453.6,472.5,52,6.1,-141.7,25,254.487,-749.546,129.204,56.4,15.1039,-91.0669,
2026_07_06_17_15_10.010,3.871,45.9,0,0.77,0,0,0,0, ,0,0,0,0,0, ,1062.9,-484.8,493.5,43.1,-41.9,-90.1,25,299.012,-732.462,150.763,55.8607,13.0928,-92.5802,
2026_07_06_17_15_10.022,3.871,45.8,0,0.771,0,0,0,0, ,0,0,0,0,0, ,945.6,-473,522.9,30,-60.8,-43.6,25,341.987,-717.011,172.545,54.684,9.16577,-91.0122,
2026_07_06_17_15_10.054,3.871,45.8,0,0.772,0,0,0,0, ,0,0,0,0,0, ,792.3,-476.1,581.4,25.2,-33.9,-47,25,374.099,-702.236,195.677,53.0336,5.72184,-88.2266,
2026_07_06_17_15_10.058,3.871,45.8,0,0.772,0,0,0,0, ,0,0,0,0,0, ,666,-466.9,602.9,15.6,-9.8,-76.3,25,395.735,-688.175,219.837,51.045,4.04169,-86.6071,
2026_07_06_17_15_10.088,3.871,45.8,0,0.77,0,0,0,0, ,0,0,0,0,0, ,716.7,-395,552.7,6.4,-4.6,-106.5,25,413.749,-672.501,241.65,48.6047,3.35665,-86.8992,
2026_07_06_17_15_10.097,3.871,45.9,0,0.771,0,0,0,0, ,0,0,0,0,0, ,987.9,-426.2,476.5,2.7,-10.8,-100.5,25,440.473,-656.541,258.283,45.9201,2.68288,-87.9108,
2026_07_06_17_15_10.129,3.871,45.9,0,0.771,0,0,0,0, ,0,0,0,0,0, ,1046.7,-421.7,376.3,4,-22.1,-58.5,25,475.623,-642.368,268.528,43.326,1.51697,-87.3983,
2026_07_06_17_15_10.136,3.871,45.8,0,0.771,0,0,0,0, ,0,0,0,0,0, ,927.6,-421.8,374.7,3.4,-25.4,-32.1,25,506.795,-628.924,275.046,40.9113,-0.0227349,-84.8329,
2026_07_06_17_15_10.167,3.871,45.8,0,0.772,0,0,0,0, ,0,0,0,0,0, ,823.2,-401.6,403.5,10.3,-16.6,-38.7,25,529.256,-615.687,281.997,38.8357,-1.30104,-81.8206,
2026_07_06_17_15_10.177,3.871,45.8,0,0.771,0,0,0,0, ,0,0,0,0,0, ,764.4,-372.6,414.1,12.1,-6.7,-55.8,25,545.377,-601.757,289.724,37.1516,-1.93168,-79.7139,
2026_07_06_17_15_10.207,3.871,45.8,0,0.77,0,0,0,0, ,0,0,0,0,0, ,815.6,-323.7,397.8,9.6,-13.3,-67.5,25,560.284,-586.303,296.806,35.5489,-2.42334,-78.6132,
2026_07_06_17_15_10.217,3.871,45.8,0,0.77,0,0,0,0, ,0,0,0,0,0, ,935.1,-306.3,372.1,9.5,-24.5,-61.6,25,579.483,-569.771,302.177,33.9646,-3.42739,-77.7562,
2026_07_06_17_15_10.248,3.871,45.8,0,0.771,0,0,0,0, ,0,0,0,0,0, ,975.2,-289.1,397.8,18.3,-20.5,-48.5,25,602.375,-553.191,307.221,32.7419,-4.58962,-76.3725,
2026_07_06_17_15_10.256,3.871,45.8,0,0.772,0,0,0,0, ,0,0,0,0,0, ,900.3,-269,445.1,20.3,-11.1,-49.2,25,622.812,-536.486,314.182,31.9228,-5.27276,-74.6954,
2026_07_06_17_15_10.287,3.871,45.9,0,0.772,0,0,0,0, ,0,0,0,0,0, ,844.7,-257.5,458.9,12.8,-15.3,-58.5,25,638.028,-519.835,322.58,30.986,-5.75582,-73.4251,
2026_07_06_17_15_10.295,3.871,45.8,0,0.77,0,0,0,0, ,0,0,0,0,0, ,883,-216.3,423.7,3.4,-25.7,-63.8,25,651.789,-502.594,329.815,29.5914,-6.6543,-72.6771,
2026_07_06_17_15_10.327,3.871,45.8,0,0.77,0,0,0,0, ,0,0,0,0,0, ,1169.7,-236.6,413.6,10.6,-12.3,-50.2,25,674.613,-485.767,335.228,28.2147,-7.40661,-71.7218,
2026_07_06_17_15_10.334,3.871,45.8,0,0.771,0,0,0,0, ,0,0,0,0,0, ,1082.1,-238.2,453.4,34.2,15,-35.8,25,702.114,-470.632,341.217,27.8604,-6.87301,-69.9715,
2026_07_06_17_15_10.365,3.871,45.7,0,0.772,0,0,0,0, ,0,0,0,0,0, ,878.6,-217,441.1,18.2,6.9,-30,25,719.069,-455.822,347.678,27.7592,-5.78692,-67.7125,
2026_07_06_17_15_10.375,3.871,45.8,0,0.772,0,0,0,0, ,0,0,0,0,0, ,864.2,-208.8,425.7,15.5,-10.5,-32,25,728.351,-441.019,352.902,27.0944,-5.54396,-65.4753,
2026_07_06_17_15_10.406,3.871,45.8,0,0.771,0,0,0,0, ,0,0,0,0,0, ,857.7,-201.7,396.7,9.2,-10.9,-49.4,25,736.432,-426.652,356.454,26.1959,-5.85816,-63.9656,
2026_07_06_17_15_10.414,3.871,45.8,0,0.771,0,0,0,0, ,0,0,0,0,0, ,836,-190.4,352.7,0.3,-15,-51.3,25,743.16,-412.599,357.566,24.8891,-6.29032,-63.1359,
2026_07_06_17_15_10.443,3.871,45.8,0,0.77,0,0,0,0, ,0,0,0,0,0, ,927.4,-165.4,307.3,-1.2,-22,-45.6,25,751.603,-398.297,355.886,23.345,-7.03435,-62.241,
2026_07_06_17_15_10.454,3.871,45.8,0,0.77,0,0,0,0, ,0,0,0,0,0, ,966.4,-175.7,300.6,-0.3,-24.8,-39.7,25,763.503,-384.419,352.722,21.8767,-8.03163,-61.0471,
2026_07_06_17_15_10.485,3.871,45.7,0,0.773,0,0,0,0, ,0,0,0,0,0, ,906.1,-139.4,288.3,11.2,-14.6,-27.4,25,774.03,-370.594,349.171,20.8757,-8.74267,-59.3715,
2026_07_06_17_15_10.493,3.871,45.7,0,0.771,0,0,0,0, ,0,0,0,0,0, ,873.4,-116.9,324.8,13.6,-5.6,-35.1,25,781.082,-355.82,346.573,20.3592,-8.82538,-57.6579,
2026_07_06_17_15_10.525,3.871,45.8,0,0.772,0,0,0,0, ,0,0,0,0,0, ,909,-95.7,377.6,10.8,-10.9,-34.9,25,787.792,-340.615,346.855,19.862,-8.79032,-56.2772,
2026_07_06_17_15_10.533,3.871,45.7,0,0.77,0,0,0,0, ,0,0,0,0,0, ,968.8,-84.2,404,7.2,-14.4,-28.5,25,797,-325.34,349.533,19.2001,-9.02552,-54.7795,
2026_07_06_17_15_10.564,3.871,45.8,0,0.77,0,0,0,0, ,0,0,0,0,0, ,1001.5,-87.4,400.7,-0.8,-15.9,-19.4,25,808.466,-310.743,352.752,18.2251,-9.39873,-52.9008,
