UTC_Time,Vin,TC1,TC2,Rh1,Vh1,Ah1,Acp1,Dty1,Err1,Rh2,Vh2,Ah2,Acp2,Dty2,Err2,Accel_x,Accel_y,Accel_z,gyro_x,gyro_y,gyro_z,Temp_c,Accel_x_h,Accel_y_h,Accel_z_h,gyro_x_h,gyro_y_h,gyro_z_h,
2026_07_06_21_38_13.707,3.858,46.6,0,0.772,0,0,0,0, ,0,0,0,0,0, ,-40.6,430.1,901.4,-0.5,-0.5,-1.7,25,-40.6,430.1,901.4,-0.5,-0.5,-1.7,
2026_07_06_21_38_13.726,3.858,46.4,0,0.77,0,0,0,0, ,0,0,0,0,0, ,-41.2,429.3,902.9,-0.4,-0.5,-1.7,25,-40.6183,430.076,901.446,-0.496953,-0.5,-1.7,
2026_07_06_21_38_13.746,3.858,46.4,0,0.774,0,0,0,0, ,0,0,0,0,0, ,-42.1,428.8,902.3,-0.7,-0.5,-1.7,25,-40.6812,430.013,901.516,-0.500186,-0.5,-1.7,
2026_07_06_21_38_13.765,3.858,46.4,0,0.771,0,0,0,0, ,0,0,0,0,0, ,-42.1,429.9,902.9,-0.6,-0.5,-1.7,25,-40.7676,429.973,901.582,-0.509315,-0.5,-1.7,
2026_07_06_21_38_13.786,3.858,46.4,0,0.77,0,0,0,0, ,0,0,0,0,0, ,-40.7,429.3,902.8,-0.5,-0.5,-1.7,25,-40.8061,429.95,901.659,-0.511794,-0.5,-1.7,
2026_07_06_21_38_13.805,3.858,46.4,0,0.771,0,0,0,0, ,0,0,0,0,0, ,-41.8,429.4,901.4,-0.6,-0.5,-1.8,25,-40.8332,429.913,901.686,-0.514122,-0.5,-1.70305,
2026_07_06_21_38_13.825,3.858,46.3,0,0.772,0,0,0,0, ,0,0,0,0,0, ,-41.8,430.9,901.1,-0.6,-0.5,-1.6,25,-40.8921,429.928,901.66,-0.519356,-0.5,-1.70286,
2026_07_06_21_38_13.845,3.858,46.3,0,0.771,0,0,0,0, ,0,0,0,0,0, ,-40.8,430.5,902.3,-0.5,-0.5,-1.7,25,-40.917,429.975,901.662,-0.521223,-0.5,-1.69964,
2026_07_06_21_38_13.865,3.858,46.3,0,0.77,0,0,0,0, ,0,0,0,0,0, ,-41,430.1,902,-0.5,-0.5,-1.7,25,-40.9159,429.995,901.692,-0.51993,-0.5,-1.69966,
2026_07_06_21_38_13.884,3.858,46.4,0,0.769,0,0,0,0, ,0,0,0,0,0, ,-41.8,430,901.4,-0.7,-0.4,-1.7,25,-40.9454,429.998,901.692,-0.524809,-0.496953,-1.69968,
2026_07_06_21_38_13.910,3.858,46.3,0,0.771,0,0,0,0, ,0,0,0,0,0, ,-40.4,431.6,901.6,-0.6,-0.5,-1.7,25,-40.9548,430.047,901.681,-0.532438,-0.494092,-1.6997,
2026_07_06_21_38_13.924,3.858,46.4,0,0.769,0,0,0,0, ,0,0,0,0,0, ,-41.9,430.5,902.5,-0.5,-0.5,-1.7,25,-40.9667,430.108,901.703,-0.533508,-0.494452,-1.69972,
2026_07_06_21_38_13.944,3.858,46.4,0,0.771,0,0,0,0, ,0,0,0,0,0, ,-42.2,431.3,903.5,-0.6,-0.4,-1.8,25,-41.0328,430.156,901.782,-0.534513,-0.491743,-1.70278,
2026_07_06_21_38_13.964,3.858,46.3,0,0.77,0,0,0,0, ,0,0,0,0,0, ,-40.8,430.6,902.2,-0.7,-0.5,-1.7,25,-41.0612,430.205,901.847,-0.54155,-0.489199,-1.70566,
2026_07_06_21_38_13.984,3.858,46.3,0,0.771,0,0,0,0, ,0,0,0,0,0, ,-40.4,430.5,902,-0.5,-0.5,-1.7,25,-41.0331,430.226,901.863,-0.545112,-0.489858,-1.70532,
2026_07_06_21_38_14.004,3.858,46.4,0,0.769,0,0,0,0, ,0,0,0,0,0, ,-41.9,429.4,901.3,-0.5,-0.4,-1.7,25,-41.0402,430.209,901.85,-0.542363,-0.487429,-1.70499,
2026_07_06_21_38_14.024,3.858,46.3,0,0.77,0,0,0,0, ,0,0,0,0,0, ,-41.2,430.7,902.2,-0.5,-0.5,-1.7,25,-41.0713,430.199,901.844,-0.539782,-0.485148,-1.70469,
2026_07_06_21_38_14.043,3.858,46.2,0,0.772,0,0,0,0, ,0,0,0,0,0, ,-40.8,429.4,901.1,-0.6,-0.5,-1.7,25,-41.067,430.19,901.832,-0.540404,-0.486053,-1.7044,
2026_07_06_21_38_14.063,3.858,46.3,0,0.77,0,0,0,0, ,0,0,0,0,0, ,-42.3,430.4,901,-0.5,-0.5,-1.7,25,-41.0964,430.172,901.784,-0.540989,-0.486903,-1.70413,
2026_07_06_21_38_14.083,3.858,46.3,0,0.77,0,0,0,0, ,0,0,0,0,0, ,-41.5,429.9,901.1,-0.4,-0.5,-1.6,25,-41.1454,430.171,901.739,-0.535444,-0.487701,-1.70084,
2026_07_06_21_38_14.103,3.858,46.2,0,0.77,0,0,0,0, ,0,0,0,0,0, ,-41,430,902.5,-0.6,-0.5,-1.7,25,-41.1517,430.158,901.743,-0.533285,-0.48845,-1.69774,
2026_07_06_21_38_14.123,3.858,46.2,0,0.771,0,0,0,0, ,0,0,0,0,0, ,-41.3,431.5,901.7,-0.5,-0.5,-1.7,25,-41.1516,430.194,901.765,-0.534303,-0.489154,-1.69788,
2026_07_06_21_38_14.142,3.858,46.2,0,0.772,0,0,0,0, ,0,0,0,0,0, ,-41.6,428.3,901.8,-0.5,-0.5,-1.7,25,-41.1698,430.176,901.764,-0.532213,-0.489815,-1.698,
2026_07_06_21_38_14.162,3.858,46.3,0,0.772,0,0,0,0, ,0,0,0,0,0, ,-40.5,429.8,903.9,-0.6,-0.5,-1.7,25,-41.1625,430.107,901.83,-0.533297,-0.490436,-1.69813,
2026_07_06_21_38_14.181,3.858,46.3,0,0.771,0,0,0,0, ,0,0,0,0,0, ,-42.2,430.5,902.3,-0.4,-0.5,-1.8,25,-41.1739,430.11,901.908,-0.531268,-0.491019,-1.70129,
2026_07_06_21_38_14.201,3.858,46.3,0,0.772,0,0,0,0, ,0,0,0,0,0, ,-41.6,429.9,903.6,-0.7,-0.5,-1.8,25,-41.2182,430.115,901.971,-0.532409,-0.491566,-1.7073,
2026_07_06_21_38_14.221,3.858,46.2,0,2.979,0,0,0,0, ,0,0,0,0,0, ,-41.7,429.9,902.3,-0.6,-0.5,-1.7,25,-41.2445,430.102,902.031,-0.539575,-0.49208,-1.7099,
2026_07_06_21_38_14.241,3.858,46.2,0,0.77,0,0,0,0, ,0,0,0,0,0, ,-41.5,430,903,-0.6,-0.5,-1.6,25,-41.2662,430.093,902.068,-0.543257,-0.492563,-1.70625,
2026_07_06_21_38_14.261,3.858,46.3,0,0.772,0,0,0,0, ,0,0,0,0,0, ,-40.8,430.1,901.4,-0.6,-0.5,-1.7,25,-41.2591,430.09,902.076,-0.546715,-0.493016,-1.70283,
2026_07_06_21_38_14.281,3.858,46.2,0,0.769,0,0,0,0, ,0,0,0,0,0, ,-41.3,431.1,903.4,-0.6,-0.5,-1.7,25,-41.2463,430.121,902.096,-0.549962,-0.493441,-1.70265,
2026_07_06_21_38_14.308,3.858,46.2,0,0.77,0,0,0,0, ,0,0,0,0,0, ,-40.5,430.6,903.4,-0.4,-0.5,-1.7,25,-41.2252,430.166,902.176,-0.546917,-0.493841,-1.70249,
2026_07_06_21_38_14.320,3.858,46.2,0,0.77,0,0,0,0, ,0,0,0,0,0, ,-41.1,429.8,902.7,-0.6,-0.6,-1.8,25,-41.1993,430.168,902.229,-0.544058,-0.497263,-1.70539,
2026_07_06_21_38_14.340,3.858,46.1,0,0.771,0,0,0,0, ,0,0,0,0,0, ,-42.4,430.4,901.7,-0.5,-0.5,-1.6,25,-41.2329,430.164,902.227,-0.54442,-0.500477,-1.70506,
2026_07_06_21_38_14.360,3.858,46.2,0,0.77,0,0,0,0, ,0,0,0,0,0, ,-40.8,429.6,903.3,-0.4,-0.5,-1.7,25,-41.2553,430.154,902.244,-0.538667,-0.500448,-1.7017,
2026_07_06_21_38_14.380,3.858,46.2,0,0.77,0,0,0,0, ,0,0,0,0,0, ,-41.1,428.3,902,-0.6,-0.5,-1.7,25,-41.2367,430.08,902.269,-0.53631,-0.500421,-1.7016,
2026_07_06_21_38_14.399,3.858,46.2,0,0.771,0,0,0,0, ,0,0,0,0,0, ,-41.6,431,903.4,-0.5,-0.5,-1.6,25,-41.2436,430.054,902.295,-0.537145,-0.500395,-1.69846,
2026_07_06_21_38_14.419,3.858,46.1,0,0.77,0,0,0,0, ,0,0,0,0,0, ,-42.8,428.9,900.7,-0.5,-0.5,-1.6,25,-41.3018,430.048,902.28,-0.534881,-0.500371,-1.69246,
2026_07_06_21_38_14.441,3.858,46.2,0,0.77,0,0,0,0, ,0,0,0,0,0, ,-40.7,430.6,902.9,-0.5,-0.5,-1.6,25,-41.3292,430.03,902.251,-0.532756,-0.500348,-1.68682,
2026_07_06_21_38_14.459,3.858,46.1,0,0.77,0,0,0,0, ,0,0,0,0,0, ,-41.1,429.6,900.8,-0.6,-0.5,-1.7,25,-41.303,430.034,902.226,-0.533806,-0.500327,-1.68458,
2026_07_06_21_38_14.478,3.858,46.2,0,0.771,0,0,0,0, ,0,0,0,0,0, ,-41.5,430.6,903.3,-0.6,-0.5,-1.7,25,-41.3028,430.038,902.216,-0.53784,-0.500307,-1.68552,
2026_07_06_21_38_14.498,3.858,46.1,0,0.77,0,0,0,0, ,0,0,0,0,0, ,-42.1,431,901.4,-0.7,-0.5,-1.7,25,-41.3331,430.084,902.224,-0.544675,-0.500288,-1.6864,
2026_07_06_21_38_14.518,3.858,46.2,0,0.77,0,0,0,0, ,0,0,0,0,0, ,-40.7,430,901.6,-0.5,-0.5,-1.7,25,-41.3372,430.11,902.18,-0.548046,-0.500271,-1.68723,
2026_07_06_21_38_14.538,3.858,46.2,0,0.77,0,0,0,0, ,0,0,0,0,0, ,-41.9,430.2,901.9,-0.5,-0.6,-1.7,25,-41.3349,430.109,902.153,-0.545118,-0.503301,-1.68801,
2026_07_06_21_38_14.558,3.858,46.2,0,0.772,0,0,0,0, ,0,0,0,0,0, ,-40.5,430.1,903.5,-0.7,-0.5,-1.7,25,-41.3267,430.112,902.187,-0.548463,-0.506147,-1.68874,
2026_07_06_21_38_14.587,3.858,46.1,0,0.77,0,0,0,0, ,0,0,0,0,0, ,-42.6,431.1,901.9,-0.6,-0.5,-1.7,25,-41.3403,430.141,902.218,-0.55465,-0.505772,-1.68942,
2026_07_06_21_38_14.598,3.858,46.2,0,0.77,0,0,0,0, ,0,0,0,0,0, ,-42.3,430.7,903.1,-0.5,-0.5,-1.7,25,-41.4079,430.188,902.235,-0.554367,-0.505421,-1.69007,
2026_07_06_21_38_14.618,3.858,46.1,0,0.772,0,0,0,0, ,0,0,0,0,0, ,-41.5,429.6,901.2,-0.6,-0.5,-1.7,25,-41.4379,430.185,902.23,-0.554101,-0.50509,-1.69067,
2026_07_06_21_38_14.637,3.858,46.1,0,0.77,0,0,0,0, ,0,0,0,0,0, ,-41.7,430.6,903,-0.6,-0.5,-1.7,25,-41.4478,430.18,902.222,-0.556898,-0.50478,-1.69124,
2026_07_06_21_38_14.657,3.858,46.2,0,0.77,0,0,0,0, ,0,0,0,0,0, ,-41.7,431.1,902,-0.5,-0.4,-1.7,25,-41.4632,430.221,902.239,-0.556477,-0.501442,-1.69178,
2026_07_06_21_38_14.677,3.858,46.1,0,0.769,0,0,0,0, ,0,0,0,0,0, ,-40.8,430.6,902.7,-0.5,-0.4,-1.7,25,-41.4502,430.259,902.246,-0.553036,-0.49526,-1.69228,
2026_07_06_21_38_14.696,3.858,46.1,0,0.772,0,0,0,0, ,0,0,0,0,0, ,-40.8,429.5,901.9,-0.5,-0.5,-1.6,25,-41.4106,430.247,902.249,-0.549804,-0.492502,-1.6897,
2026_07_06_21_38_14.717,3.858,46.2,0,0.772,0,0,0,0, ,0,0,0,0,0, ,-40.6,432.2,903.3,-0.6,-0.5,-1.8,25,-41.3673,430.283,902.27,-0.549816,-0.492959,-1.69033,
2026_07_06_21_38_14.737,3.858,46.2,0,0.772,0,0,0,0, ,0,0,0,0,0, ,-41.2,431.2,901.9,-0.5,-0.5,-1.7,25,-41.3388,430.37,902.291,-0.549827,-0.493388,-1.69396,
2026_07_06_21_38_14.756,3.858,46.1,0,0.77,0,0,0,0, ,0,0,0,0,0, ,-41.8,429.4,902.9,-0.4,-0.5,-1.7,25,-41.3486,430.365,902.297,-0.543744,-0.493791,-1.69433,
2026_07_06_21_38_14.776,3.858,46,0,0.772,0,0,0,0, ,0,0,0,0,0, ,-41.2,430.5,901.1,-0.6,-0.5,-1.7,25,-41.3578,430.34,902.279,-0.541078,-0.494169,-1.69468,
2026_07_06_21_38_14.796,3.858,46.1,0,0.772,0,0,0,0, ,0,0,0,0,0, ,-41.5,430.6,901.1,-0.5,-0.5,-1.6,25,-41.3574,430.353,902.207,-0.541622,-0.494525,-1.69196,
2026_07_06_21_38_14.815,3.858,46.1,0,0.77,0,0,0,0, ,0,0,0,0,0, ,-41.1,429.9,902.3,-0.4,-0.5,-1.6,25,-41.3539,430.347,902.176,-0.536039,-0.494858,-1.68635,
2026_07_06_21_38_14.835,3.858,46.1,0,0.77,0,0,0,0, ,0,0,0,0,0, ,-41,429.9,900.5,-0.5,-0.5,-1.7,25,-41.3353,430.319,902.129,-0.530796,-0.495172,-1.68414,
2026_07_06_21_38_14.855,3.858,46.2,0,0.77,0,0,0,0, ,0,0,0,0,0, ,-42.1,429.8,900.7,-0.5,-0.5,-1.7,25,-41.3484,430.291,902.036,-0.528919,-0.495466,-1.6851,
2026_07_06_21_38_14.875,3.858,46.1,0,0.77,0,0,0,0, ,0,0,0,0,0, ,-41.3,431.6,902.4,-0.5,-0.5,-1.6,25,-41.3698,430.316,902.006,-0.527157,-0.495742,-1.68296,
2026_07_06_21_38_14.894,3.858,46.1,0,0.77,0,0,0,0, ,0,0,0,0,0, ,-41.9,430.7,903.8,-0.5,-0.5,-1.6,25,-41.3839,430.367,902.073,-0.525502,-0.496002,-1.67791,
2026_07_06_21_38_14.914,3.858,46.1,0,0.769,0,0,0,0, ,0,0,0,0,0, ,-41.3,429.5,902.9,-0.5,-0.5,-1.7,25,-41.397,430.35,902.151,-0.523948,-0.496245,-1.67621,
2026_07_06_21_38_14.935,3.858,46.1,0,0.77,0,0,0,0, ,0,0,0,0,0, ,-41,430.5,902.2,-0.5,-0.5,-1.7,25,-41.382,430.329,902.175,-0.522489,-0.496474,-1.67766,
2026_07_06_21_38_14.954,3.858,46.1,0,0.77,0,0,0,0, ,0,0,0,0,0, ,-41.6,429.8,900.5,-0.5,-0.5,-1.7,25,-41.377,430.318,902.125,-0.521118,-0.496689,-1.67902,
2026_07_06_21_38_14.974,3.858,46,0,0.77,0,0,0,0, ,0,0,0,0,0, ,-41.6,429.8,903,-0.5,-0.5,-1.7,25,-41.3906,430.286,902.102,-0.519831,-0.496891,-1.6803,
2026_07_06_21_38_14.994,3.858,46,0,0.773,0,0,0,0, ,0,0,0,0,0, ,-41.3,430,902.9,-0.5,-0.5,-1.7,25,-41.3942,430.263,902.154,-0.518623,-0.49708,-1.6815,
2026_07_06_21_38_15.013,3.858,46.1,0,0.773,0,0,0,0, ,0,0,0,0,0, ,-40.6,430.1,901.2,-0.5,-0.5,-1.6,25,-41.3671,430.25,902.147,-0.517488,-0.497258,-1.67958,
2026_07_06_21_38_15.034,3.858,46,0,0.77,0,0,0,0, ,0,0,0,0,0, ,-41.1,429.1,902.2,-0.4,-0.5,-1.7,25,-41.3356,430.21,902.12,-0.513375,-0.497425,-1.67778,
2026_07_06_21_38_15.053,3.858,46.1,0,0.771,0,0,0,0, ,0,0,0,0,0, ,-42.3,430.2,902,-0.5,-0.5,-1.6,25,-41.3578,430.176,902.119,-0.509514,-0.497582,-1.67608,
2026_07_06_21_38_15.073,3.858,46,0,0.773,0,0,0,0, ,0,0,0,0,0, ,-41.5,431.3,901.7,-0.5,-0.5,-1.7,25,-41.3909,430.211,902.102,-0.508934,-0.497729,-1.67449,
2026_07_06_21_38_15.092,3.858,46,0,0.77,0,0,0,0, ,0,0,0,0,0, ,-41,429.1,901.6,-0.5,-0.6,-1.7,25,-41.3823,430.21,902.075,-0.508389,-0.500915,-1.67605,
2026_07_06_21_38_15.112,3.858,46,0,0.771,0,0,0,0, ,0,0,0,0,0, ,-41.8,430,901,-0.5,-0.5,-1.7,25,-41.3834,430.17,902.028,-0.507878,-0.503906,-1.67751,
2026_07_06_21_38_15.132,3.858,46,0,0.77,0,0,0,0, ,0,0,0,0,0, ,-41.9,428.1,902.4,-0.6,-0.5,-1.6,25,-41.4118,430.102,902.008,-0.510445,-0.503668,-1.67583,
2026_07_06_21_38_15.152,3.858,46,0,0.769,0,0,0,0, ,0,0,0,0,0, ,-42.2,430.1,901.1,-0.6,-0.5,-1.8,25,-41.4507,430.041,901.992,-0.515902,-0.503444,-1.6773,
2026_07_06_21_38_15.172,3.858,46.1,0,0.771,0,0,0,0, ,0,0,0,0,0, ,-41.5,430.1,902.8,-0.5,-0.5,-1.6,25,-41.475,430.045,901.989,-0.51798,-0.503234,-1.67869,
2026_07_06_21_38_15.191,3.858,46,0,0.77,0,0,0,0, ,0,0,0,0,0, ,-42.1,429.3,903.3,-0.7,-0.5,-1.6,25,-41.4948,430.024,902.054,-0.522978,-0.503037,-1.67389,
2026_07_06_21_38_15.211,3.858,46,0,0.769,0,0,0,0, ,0,0,0,0,0, ,-41.9,430.4,900.8,-0.7,-0.5,-1.7,25,-41.5256,430.013,902.054,-0.533765,-0.502852,-1.67244,
2026_07_06_21_38_15.232,3.858,45.9,0,0.77,0,0,0,0, ,0,0,0,0,0, ,-40.4,431,902.4,-0.5,-0.5,-1.7,25,-41.5027,430.055,902.026,-0.537802,-0.502678,-1.67412,
2026_07_06_21_38_15.251,3.858,46,0,0.771,0,0,0,0, ,0,0,0,0,0, ,-41.1,431.1,902.4,-0.6,-0.5,-1.8,25,-41.4568,430.115,902.049,-0.538545,-0.502515,-1.67874,
2026_07_06_21_38_15.275,3.858,45.9,0,0.773,0,0,0,0, ,0,0,0,0,0, ,-41.3,431,902.8,-0.6,-0.5,-1.7,25,-41.4412,430.172,902.083,-0.54229,-0.502362,-1.68308,
2026_07_06_21_38_15.290,3.858,46,0,0.769,0,0,0,0, ,0,0,0,0,0, ,-42.2,429.9,901.6,-0.5,-0.5,-1.7,25,-41.46,430.189,902.09,-0.54276,-0.502218,-1.68411,
2026_07_06_21_38_15.311,3.858,45.9,0,0.771,0,0,0,0, ,0,0,0,0,0, ,-40.7,430.4,902.7,-0.7,-0.5,-1.7,25,-41.4594,430.187,902.093,-0.546248,-0.502083,-1.68508,
2026_07_06_21_38_15.331,3.858,45.9,0,0.77,0,0,0,0, ,0,0,0,0,0, ,-41.8,430.6,902.8,-0.6,-0.5,-1.7,25,-41.4466,430.206,902.133,-0.55257,-0.501956,-1.68599,
2026_07_06_21_38_15.349,3.858,46,0,0.772,0,0,0,0, ,0,0,0,0,0, ,-41,429.9,901.8,-0.4,-0.5,-1.8,25,-41.4438,430.209,902.144,-0.549367,-0.501837,-1.68989,
2026_07_06_21_38_15.371,3.858,46,0,0.772,0,0,0,0, ,0,0,0,0,0, ,-41.6,430.1,903.4,-0.6,-0.5,-1.7,25,-41.435,430.196,902.171,-0.546358,-0.501725,-1.69355,
2026_07_06_21_38_15.389,3.858,46,0,0.771,0,0,0,0, ,0,0,0,0,0, ,-41.9,430,901.7,-0.5,-0.5,-1.7,25,-41.4542,430.187,902.194,-0.54658,-0.50162,-1.69395,
2026_07_06_21_38_15.409,3.858,46,0,0.769,0,0,0,0, ,0,0,0,0,0, ,-41.5,428.5,902.4,-0.5,-0.5,-1.7,25,-41.4692,430.13,902.186,-0.543742,-0.501521,-1.69432,
2026_07_06_21_38_15.430,3.858,45.9,0,0.771,0,0,0,0, ,0,0,0,0,0, ,-41.5,427.9,901.4,-0.5,-0.5,-1.7,25,-41.4711,430.012,902.168,-0.541076,-0.501428,-1.69466,
2026_07_06_21_38_15.450,3.858,45.9,0,0.77,0,0,0,0, ,0,0,0,0,0, ,-40.6,429.4,902.4,-0.5,-0.4,-1.6,25,-41.4454,429.929,902.152,-0.538573,-0.498294,-1.69194,
2026_07_06_21_38_15.469,3.858,45.9,0,0.772,0,0,0,0, ,0,0,0,0,0, ,-41.5,431.7,900.3,-0.5,-0.5,-1.7,25,-41.4213,429.967,902.103,-0.536223,-0.495351,-1.68938,
2026_07_06_21_38_15.488,3.858,46,0,0.772,0,0,0,0, ,0,0,0,0,0, ,-40.4,431.5,900.7,-0.5,-0.5,-1.7,25,-41.3926,430.067,902.005,-0.534015,-0.495635,-1.69003,
2026_07_06_21_38_15.509,3.858,45.9,0,0.769,0,0,0,0, ,0,0,0,0,0, ,-43.2,429,902.3,-0.5,-0.5,-1.7,25,-41.4174,430.078,901.975,-0.531943,-0.495901,-1.69064,
2026_07_06_21_38_15.528,3.858,45.9,0,0.77,0,0,0,0, ,0,0,0,0,0, ,-41.2,430.5,902.7,-0.6,-0.5,-1.7,25,-41.4651,430.058,902.007,-0.533043,-0.496151,-1.69121,
2026_07_06_21_38_15.549,3.858,45.9,0,0.77,0,0,0,0, ,0,0,0,0,0, ,-41.2,430.4,902.7,-0.5,-0.5,-1.6,25,-41.449,430.082,902.049,-0.534076,-0.496385,-1.6887,
2026_07_06_21_38_15.568,3.858,46,0,0.77,0,0,0,0, ,0,0,0,0,0, ,-40.7,429.3,902.8,-0.5,-0.5,-1.6,25,-41.4186,430.068,902.092,-0.532,-0.496605,-1.68329,
2026_07_06_21_38_15.588,3.858,45.9,0,0.772,0,0,0,0, ,0,0,0,0,0, ,-41.2,430.9,903.5,-0.5,-0.5,-1.7,25,-41.39,430.07,902.156,-0.53005,-0.496812,-1.68126,
2026_07_06_21_38_15.607,3.858,45.9,0,0.77,0,0,0,0, ,0,0,0,0,0, ,-41.8,429.6,901,-0.4,-0.5,-1.7,25,-41.3967,430.081,902.162,-0.525172,-0.497007,-1.68241,
2026_07_06_21_38_15.627,3.858,45.9,0,0.77,0,0,0,0, ,0,0,0,0,0, ,-40.7,430.1,902.2,-0.5,-0.5,-1.7,25,-41.3878,430.067,902.128,-0.520591,-0.497189,-1.68348,
2026_07_06_21_38_15.647,3.858,45.9,0,0.771,0,0,0,0, ,0,0,0,0,0, ,-42.2,430.2,901.4,-0.6,-0.5,-1.7,25,-41.3916,430.072,902.108,-0.522383,-0.49736,-1.68449,
2026_07_06_21_38_15.666,3.858,45.9,0,0.771,0,0,0,0, ,0,0,0,0,0, ,-41.8,429.8,900.7,-0.5,-0.5,-1.7,25,-41.4286,430.067,902.043,-0.524066,-0.497521,-1.68543,
2026_07_06_21_38_15.686,3.858,45.9,0,0.77,0,0,0,0, ,0,0,0,0,0, ,-41.2,430.1,900.8,-0.6,-0.5,-1.7,25,-41.433,430.06,901.964,-0.525646,-0.497672,-1.68632,
2026_07_06_21_38_15.708,3.858,46,0,0.769,0,0,0,0, ,0,0,0,0,0, ,-41.3,429.5,901.7,-0.5,-0.5,-1.7,25,-41.4218,430.044,901.921,-0.52713,-0.497814,-1.68715,
2026_07_06_21_38_15.726,3.858,45.9,0,0.771,0,0,0,0, ,0,0,0,0,0, ,-41.1,429.3,902.9,-0.4,-0.5,-1.7,25,-41.4083,430.005,901.944,-0.52243,-0.497947,-1.68794,
2026_07_06_21_38_15.747,3.858,45.8,0,0.771,0,0,0,0, ,0,0,0,0,0, ,-40.2,430.5,903.3,-0.7,-0.6,-1.8,25,-41.3621,429.999,902.014,-0.52411,-0.501119,-1.69172,
2026_07_06_21_38_15.766,3.858,45.8,0,0.769,0,0,0,0, ,0,0,0,0,0, ,-41.2,430.5,901.2,-0.5,-0.5,-1.6,25,-41.3218,430.029,902.029,-0.528735,-0.504098,-1.69222,
2026_07_06_21_38_15.785,3.858,45.9,0,0.77,0,0,0,0, ,0,0,0,0,0, ,-41.6,428.8,902.4,-0.5,-0.5,-1.8,25,-41.3265,430.006,902.015,-0.526984,-0.503848,-1.6927,
2026_07_06_21_38_15.806,3.858,45.8,0,0.77,0,0,0,0, ,0,0,0,0,0, ,-40,430.5,902.4,-0.7,-0.5,-1.7,25,-41.2944,429.984,902.038,-0.531433,-0.503614,-1.69619,
2026_07_06_21_38_15.826,3.858,45.8,0,0.77,0,0,0,0, ,0,0,0,0,0, ,-40.8,430.5,902,-0.6,-0.5,-1.7,25,-41.2399,430.016,902.048,-0.538658,-0.503393,-1.69642,
2026_07_06_21_38_15.846,3.858,45.9,0,0.772,0,0,0,0, ,0,0,0,0,0, ,-41.6,429.5,900.6,-0.6,-0.5,-1.7,25,-41.2375,430.015,902.003,-0.542396,-0.503187,-1.69664,
2026_07_06_21_38_15.865,3.858,45.8,0,0.77,0,0,0,0, ,0,0,0,0,0, ,-41.8,430.2,901.2,-0.6,-0.5,-1.6,25,-41.2657,430.005,901.935,-0.545907,-0.502992,-1.6938,
2026_07_06_21_38_15.885,3.858,45.9,0,0.769,0,0,0,0, ,0,0,0,0,0, ,-41.7,430.1,901.7,-0.7,-0.5,-1.7,25,-41.2952,430.014,901.906,-0.55225,-0.50281,-1.69113,
2026_07_06_21_38_15.904,3.858,45.9,0,0.769,0,0,0,0, ,0,0,0,0,0, ,-41.7,430.4,902.5,-0.6,-0.5,-1.7,25,-41.3199,430.028,901.918,-0.558206,-0.502639,-1.69167,
2026_07_06_21_38_15.924,3.858,45.8,0,0.771,0,0,0,0, ,0,0,0,0,0, ,-41.7,431.2,903,-0.6,-0.5,-1.7,25,-41.343,430.075,901.968,-0.560753,-0.502478,-1.69218,
2026_07_06_21_38_15.944,3.858,45.8,0,0.771,0,0,0,0, ,0,0,0,0,0, ,-42.1,429.8,902,-0.5,-0.5,-1.7,25,-41.377,430.101,902.001,-0.560098,-0.502327,-1.69265,
2026_07_06_21_38_15.964,3.858,45.8,0,0.77,0,0,0,0, ,0,0,0,0,0, ,-40.5,430.5,902.9,-0.5,-0.5,-1.7,25,-41.3723,430.104,902.028,-0.556436,-0.502185,-1.6931,
2026_07_06_21_38_15.983,3.858,45.8,0,0.77,0,0,0,0, ,0,0,0,0,0, ,-41.5,428.4,901.6,-0.5,-0.5,-1.7,25,-41.3496,430.064,902.042,-0.552997,-0.502052,-1.69352,
2026_07_06_21_38_16.003,3.858,45.8,0,0.771,0,0,0,0, ,0,0,0,0,0, ,-42.1,431.2,904.4,-0.6,-0.5,-1.7,25,-41.377,430.048,902.1,-0.552814,-0.501927,-1.69392,
2026_07_06_21_38_16.023,3.858,45.8,0,0.77,0,0,0,0, ,0,0,0,0,0, ,-41.3,429.4,901.9,-0.4,-0.5,-1.7,25,-41.3967,430.063,902.164,-0.549596,-0.50181,-1.69429,
2026_07_06_21_38_16.043,3.858,45.8,0,0.77,0,0,0,0, ,0,0,0,0,0, ,-41.2,429.9,903.5,-0.5,-0.5,-1.7,25,-41.3878,430.038,902.197,-0.543527,-0.501699,-1.69463,
2026_07_06_21_38_16.062,3.858,45.8,0,0.77,0,0,0,0, ,0,0,0,0,0, ,-41,430.9,902.4,-0.6,-0.5,-1.7,25,-41.3702,430.06,902.243,-0.543921,-0.501596,-1.69496,
2026_07_06_21_38_16.082,3.858,45.8,0,0.771,0,0,0,0, ,0,0,0,0,0, ,-40.7,430.1,901.9,-0.4,-0.5,-1.7,25,-41.3385,430.087,902.237,-0.541245,-0.501499,-1.69527,
2026_07_06_21_38_16.103,3.858,45.8,0,0.77,0,0,0,0, ,0,0,0,0,0, ,-40.7,428.5,902.3,-0.4,-0.5,-1.7,25,-41.2996,430.039,902.229,-0.532638,-0.501407,-1.69556,
2026_07_06_21_38_16.123,3.858,45.8,0,0.771,0,0,0,0, ,0,0,0,0,0, ,-41.5,429.5,901.9,-0.5,-0.5,-1.7,25,-41.2875,429.976,902.221,-0.527602,-0.501321,-1.69583,
2026_07_06_21_38_16.143,3.858,45.8,0,0.77,0,0,0,0, ,0,0,0,0,0, ,-40.6,429.8,902.9,-0.5,-0.5,-1.7,25,-41.273,429.956,902.232,-0.52592,-0.501241,-1.69608,
2026_07_06_21_38_16.162,3.858,45.7,0,0.77,0,0,0,0, ,0,0,0,0,0, ,-42.4,429.8,902.3,-0.5,-0.5,-1.7,25,-41.2868,429.946,902.254,-0.52434,-0.501165,-1.69632,
2026_07_06_21_38_16.182,3.858,45.8,0,0.771,0,0,0,0, ,0,0,0,0,0, ,-41.9,429.9,902.5,-0.4,-0.5,-1.7,25,-41.3394,429.941,902.263,-0.51981,-0.501094,-1.69654,
2026_07_06_21_38_16.201,3.858,45.8,0,0.77,0,0,0,0, ,0,0,0,0,0, ,-42.3,429.8,901.9,-0.7,-0.5,-1.7,25,-41.3858,429.935,902.259,-0.52165,-0.501028,-1.69676,
2026_07_06_21_38_16.221,3.858,45.8,0,0.77,0,0,0,0, ,0,0,0,0,0, ,-40.8,430,900.8,-0.6,-0.5,-1.7,25,-41.3958,429.933,902.204,-0.529471,-0.500965,-1.69695,
2026_07_06_21_38_16.246,3.858,45.8,0,0.769,0,0,0,0, ,0,0,0,0,0, ,-40.2,430.7,903.8,-0.5,-0.5,-1.7,25,-41.3412,429.958,902.21,-0.530722,-0.500906,-1.69714,
2026_07_06_21_38_16.260,3.858,45.7,0,0.77,0,0,0,0, ,0,0,0,0,0, ,-41.9,430,902.7,-0.6,-0.5,-1.7,25,-41.3235,429.982,902.273,-0.531897,-0.500851,-1.69731,
2026_07_06_21_38_16.281,3.858,45.8,0,0.773,0,0,0,0, ,0,0,0,0,0, ,-42.3,431.1,902.4,-0.5,-0.5,-1.7,25,-41.3708,430.017,902.29,-0.533,-0.500799,-1.69748,
2026_07_06_21_38_16.301,3.858,45.8,0,0.77,0,0,0,0, ,0,0,0,0,0, ,-41,430,902.5,-0.5,-0.5,-1.7,25,-41.3878,430.049,902.3,-0.530989,-0.50075,-1.69763,
2026_07_06_21_38_16.320,3.858,45.7,0,0.772,0,0,0,0, ,0,0,0,0,0, ,-41.8,429,902.4,-0.5,-0.5,-1.7,25,-41.3885,430.016,902.309,-0.529101,-0.500705,-1.69778,
2026_07_06_21_38_16.340,3.858,45.7,0,0.77,0,0,0,0, ,0,0,0,0,0, ,-41.1,429.6,903.3,-0.5,-0.5,-1.7,25,-41.3923,429.972,902.342,-0.527327,-0.500662,-1.69791,
2026_07_06_21_38_16.360,3.858,45.8,0,0.77,0,0,0,0, ,0,0,0,0,0, ,-42.1,430.9,901.4,-0.4,-0.5,-1.6,25,-41.4049,429.989,902.342,-0.522615,-0.500621,-1.69499,
2026_07_06_21_38_16.381,3.858,45.7,0,0.771,0,0,0,0, ,0,0,0,0,0, ,-41.1,428.9,901.4,-0.5,-0.5,-1.6,25,-41.4168,429.984,902.285,-0.51819,-0.500584,-1.6892,
2026_07_06_21_38_16.399,3.858,45.7,0,0.769,0,0,0,0, ,0,0,0,0,0, ,-42.4,430.1,902.4,-0.7,-0.5,-1.7,25,-41.4371,429.954,902.261,-0.523176,-0.500548,-1.68681,
2026_07_06_21_38_16.419,3.858,45.7,0,0.77,0,0,0,0, ,0,0,0,0,0, ,-40.7,430.6,900.3,-0.5,-0.4,-1.6,25,-41.444,429.978,902.206,-0.527857,-0.497468,-1.68457,
2026_07_06_21_38_16.439,3.858,45.7,0,0.771,0,0,0,0, ,0,0,0,0,0, ,-40.6,428.4,901,-0.4,-0.5,-1.6,25,-41.3956,429.949,902.111,-0.523113,-0.494575,-1.67942,
2026_07_06_21_38_16.459,3.858,45.6,0,0.771,0,0,0,0, ,0,0,0,0,0, ,-41.3,430.1,903.5,-0.7,-0.5,-1.6,25,-41.3685,429.907,902.12,-0.524751,-0.494906,-1.67458,
2026_07_06_21_38_16.479,3.858,45.6,0,0.771,0,0,0,0, ,0,0,0,0,0, ,-40.5,428.8,901.6,-0.6,-0.5,-1.7,25,-41.3399,429.879,902.146,-0.532383,-0.495216,-1.67308,
2026_07_06_21_38_16.499,3.858,45.6,0,0.77,0,0,0,0, ,0,0,0,0,0, ,-42.1,428.8,901.7,-0.4,-0.4,-1.7,25,-41.3375,429.813,902.116,-0.53041,-0.492461,-1.67472,
2026_07_06_21_38_16.519,3.858,45.6,0,0.77,0,0,0,0, ,0,0,0,0,0, ,-42.9,428.9,900.5,-0.6,-0.5,-1.7,25,-41.4083,429.754,902.054,-0.528557,-0.489873,-1.67626,
2026_07_06_21_38_16.539,3.858,45.7,0,3.383,0,0,0,0, ,0,0,0,0,0, ,-41.5,430.4,902.2,-0.6,-0.5,-1.7,25,-41.4566,429.748,902.011,-0.532911,-0.49049,-1.67771,
2026_07_06_21_38_16.558,3.858,45.7,0,0.77,0,0,0,0, ,0,0,0,0,0, ,-40.6,430.6,902.9,-0.5,-0.5,-1.7,25,-41.4318,429.794,902.044,-0.533952,-0.49107,-1.67907,
2026_07_06_21_38_16.578,3.858,45.6,0,0.769,0,0,0,0, ,0,0,0,0,0, ,-41.6,431.3,900.7,-0.7,-0.5,-1.7,25,-41.4116,429.864,902.029,-0.537977,-0.491614,-1.68034,
2026_07_06_21_38_16.598,3.858,45.7,0,0.77,0,0,0,0, ,0,0,0,0,0, ,-42.4,430.9,901.8,-0.5,-0.5,-1.7,25,-41.4474,429.94,901.981,-0.541756,-0.492125,-1.68154,
2026_07_06_21_38_16.618,3.858,45.7,0,0.769,0,0,0,0, ,0,0,0,0,0, ,-41.5,430.2,903,-0.6,-0.5,-1.8,25,-41.4781,429.977,902.007,-0.542259,-0.492605,-1.68571,
2026_07_06_21_38_16.637,3.858,45.7,0,0.77,0,0,0,0, ,0,0,0,0,0, ,-41.1,430.7,901.6,-0.6,-0.5,-1.7,25,-41.4672,430.006,902.025,-0.545777,-0.493056,-1.68963,
2026_07_06_21_38_16.657,3.858,45.6,0,0.771,0,0,0,0, ,0,0,0,0,0, ,-41.1,430.2,902.2,-0.5,-0.5,-1.7,25,-41.4448,430.033,902.017,-0.546035,-0.493479,-1.69026,
2026_07_06_21_38_16.677,3.858,45.6,0,0.77,0,0,0,0, ,0,0,0,0,0, ,-41.2,430.4,901.7,-0.5,-0.4,-1.7,25,-41.4269,430.049,902.013,-0.543229,-0.490829,-1.69085,
2026_07_06_21_38_16.696,3.858,45.7,0,0.769,0,0,0,0, ,0,0,0,0,0, ,-40.2,430.1,902.4,-0.6,-0.5,-1.8,25,-41.3826,430.061,902.015,-0.543642,-0.488341,-1.69446,
2026_07_06_21_38_16.716,3.858,45.7,0,0.77,0,0,0,0, ,0,0,0,0,0, ,-41.2,430.4,904,-0.5,-0.5,-1.6,25,-41.341,430.073,902.087,-0.544029,-0.489052,-1.6948,
2026_07_06_21_38_16.735,3.858,45.7,0,0.773,0,0,0,0, ,0,0,0,0,0, ,-42.3,429.5,901.6,-0.6,-0.6,-1.7,25,-41.3659,430.065,902.131,-0.544393,-0.492766,-1.69207,
2026_07_06_21_38_16.755,3.858,45.7,0,0.773,0,0,0,0, ,0,0,0,0,0, ,-41.8,430.1,901.6,-0.5,-0.5,-1.6,25,-41.4076,430.049,902.099,-0.544735,-0.496253,-1.6895,
2026_07_06_21_38_16.776,3.858,45.7,0,0.772,0,0,0,0, ,0,0,0,0,0, ,-41,430.2,902.9,-0.6,-0.5,-1.6,25,-41.4071,430.055,902.108,-0.545056,-0.496482,-1.68405,
2026_07_06_21_38_16.796,3.858,45.6,0,0.77,0,0,0,0, ,0,0,0,0,0, ,-40.6,430.5,900.3,-0.4,-0.5,-1.7,25,-41.3701,430.073,902.077,-0.54231,-0.496696,-1.68197,
2026_07_06_21_38_16.816,3.858,45.6,0,0.771,0,0,0,0, ,0,0,0,0,0, ,-41.7,429.4,903.5,-0.5,-0.5,-1.7,25,-41.3567,430.066,902.066,-0.536685,-0.496898,-1.68307,
2026_07_06_21_38_16.835,3.858,45.7,0,0.771,0,0,0,0, ,0,0,0,0,0, ,-41.7,429.8,902.8,-0.5,-0.5,-1.7,25,-41.3776,430.037,902.132,-0.534449,-0.497087,-1.6841,
2026_07_06_21_38_16.855,3.858,45.6,0,0.77,0,0,0,0, ,0,0,0,0,0, ,-41,430.4,903,-0.5,-0.5,-1.6,25,-41.3759,430.041,902.179,-0.53235,-0.497264,-1.68203,
2026_07_06_21_38_16.875,3.858,45.6,0,0.77,0,0,0,0, ,0,0,0,0,0, ,-42.2,430.4,901,-0.5,-0.5,-1.8,25,-41.3896,430.063,902.168,-0.530379,-0.497431,-1.68312,
2026_07_06_21_38_16.894,3.858,45.6,0,0.769,0,0,0,0, ,0,0,0,0,0, ,-40.8,431,903.1,-0.5,-0.4,-1.7,25,-41.3963,430.102,902.161,-0.528528,-0.494541,-1.6872,
2026_07_06_21_38_16.920,3.858,45.7,0,0.77,0,0,0,0, ,0,0,0,0,0, ,-41.3,430,902.2,-0.5,-0.6,-1.7,25,-41.3752,430.126,902.191,-0.526789,-0.494873,-1.68798,
2026_07_06_21_38_16.934,3.858,45.7,0,0.771,0,0,0,0, ,0,0,0,0,0, ,-42.3,429.5,901.1,-0.5,-0.6,-1.7,25,-41.4011,430.103,902.158,-0.525157,-0.501279,-1.68871,
2026_07_06_21_38_16.954,3.858,45.6,0,0.77,0,0,0,0, ,0,0,0,0,0, ,-41.1,430.9,902.7,-0.6,-0.5,-1.7,25,-41.4193,430.109,902.142,-0.526671,-0.504248,-1.6894,
2026_07_06_21_38_16.973,3.858,45.6,0,0.769,0,0,0,0, ,0,0,0,0,0, ,-41.1,430.2,901.7,-0.5,-0.5,-1.6,25,-41.3999,430.136,902.146,-0.528092,-0.503989,-1.687,
2026_07_06_21_38_16.994,3.858,45.6,0,0.769,0,0,0,0, ,0,0,0,0,0, ,-42.7,429.1,902.8,-0.5,-0.5,-1.7,25,-41.4303,430.106,902.152,-0.52638,-0.503746,-1.68474,
2026_07_06_21_38_17.013,3.858,45.6,0,0.773,0,0,0,0, ,0,0,0,0,0, ,-41.9,430.5,902.2,-0.5,-0.5,-1.7,25,-41.4833,430.088,902.173,-0.524773,-0.503518,-1.68567,
2026_07_06_21_38_17.033,3.858,45.7,0,0.771,0,0,0,0, ,0,0,0,0,0, ,-41.2,429.3,902.9,-0.5,-0.5,-1.6,25,-41.4874,430.076,902.196,-0.523263,-0.503304,-1.6835,
2026_07_06_21_38_17.053,3.858,45.6,0,0.768,0,0,0,0, ,0,0,0,0,0, ,-41.8,431.5,901.7,-0.5,-0.5,-1.6,25,-41.4882,430.096,902.202,-0.521846,-0.503102,-1.67841,
2026_07_06_21_38_17.073,3.858,45.6,0,0.773,0,0,0,0, ,0,0,0,0,0, ,-41.9,429.5,902.4,-0.5,-0.5,-1.7,25,-41.5102,430.121,902.193,-0.520514,-0.502913,-1.67668,
2026_07_06_21_38_17.093,3.858,45.6,0,0.771,0,0,0,0, ,0,0,0,0,0, ,-42.2,428.3,902.5,-0.5,-0.5,-1.6,25,-41.5431,430.046,902.209,-0.519264,-0.502736,-1.67505,
2026_07_06_21_38_17.112,3.858,45.5,0,0.771,0,0,0,0, ,0,0,0,0,0, ,-41.7,431.3,901.4,-0.5,-0.5,-1.6,25,-41.5679,430.031,902.193,-0.51809,-0.502569,-1.67048,
2026_07_06_21_38_17.132,3.858,45.5,0,0.77,0,0,0,0, ,0,0,0,0,0, ,-41.3,429.1,900.5,-0.5,-0.5,-1.7,25,-41.5638,430.041,902.117,-0.516988,-0.502412,-1.66923,
2026_07_06_21_38_17.151,3.858,45.5,0,0.769,0,0,0,0, ,0,0,0,0,0, ,-42.2,430,901.8,-0.5,-0.5,-1.7,25,-41.5751,430.012,902.058,-0.515953,-0.502265,-1.67111,
2026_07_06_21_38_17.171,3.858,45.6,0,0.77,0,0,0,0, ,0,0,0,0,0, ,-41.2,430.1,901.8,-0.5,-0.5,-1.7,25,-41.5827,430.014,902.043,-0.514981,-0.502127,-1.67287,
2026_07_06_21_38_17.191,3.858,45.5,0,0.773,0,0,0,0, ,0,0,0,0,0, ,-41.6,429.3,903,-0.5,-0.5,-1.7,25,-41.5716,429.995,902.064,-0.514068,-0.501998,-1.67452,
2026_07_06_21_38_17.211,3.858,45.6,0,0.772,0,0,0,0, ,0,0,0,0,0, ,-40.8,429.1,902.8,-0.6,-0.5,-1.7,25,-41.5489,429.946,902.115,-0.516257,-0.501876,-1.67607,
2026_07_06_21_38_17.231,3.858,45.6,0,0.77,0,0,0,0, ,0,0,0,0,0, ,-42.7,430,902.7,-0.5,-0.6,-1.7,25,-41.5612,429.922,902.154,-0.518314,-0.504809,-1.67753,
2026_07_06_21_38_17.251,3.858,45.6,0,0.77,0,0,0,0, ,0,0,0,0,0, ,-41.8,430.1,902,-0.6,-0.5,-1.7,25,-41.6032,429.93,902.166,-0.520245,-0.507562,-1.6789,
2026_07_06_21_38_17.270,3.858,45.5,0,0.773,0,0,0,0, ,0,0,0,0,0, ,-41.6,428.8,900.8,-0.7,-0.4,-1.7,25,-41.6091,429.901,902.119,-0.528151,-0.504055,-1.68019,
2026_07_06_21_38_17.290,3.858,45.5,0,0.773,0,0,0,0, ,0,0,0,0,0, ,-42.3,430.6,901.3,-0.7,-0.5,-1.6,25,-41.6298,429.888,902.054,-0.538624,-0.500761,-1.67835,
2026_07_06_21_38_17.310,3.858,45.6,0,0.77,0,0,0,0, ,0,0,0,0,0, ,-41.7,428.4,902,-0.6,-0.5,-1.7,25,-41.6524,429.865,902.029,-0.545411,-0.500714,-1.67662,
2026_07_06_21_38_17.330,3.858,45.6,0,0.77,0,0,0,0, ,0,0,0,0,0, ,-41.1,430,903,-0.6,-0.5,-1.7,25,-41.637,429.824,902.058,-0.548737,-0.500671,-1.67804,
2026_07_06_21_38_17.349,3.858,45.6,0,0.771,0,0,0,0, ,0,0,0,0,0, ,-41.1,429.9,903.9,-0.7,-0.6,-1.6,25,-41.6043,429.832,902.143,-0.554908,-0.503677,-1.67634,
2026_07_06_21_38_17.369,3.858,45.6,0,0.772,0,0,0,0, ,0,0,0,0,0, ,-41.7,430.5,901.3,-0.6,-0.5,-1.7,25,-41.5918,429.854,902.171,-0.560702,-0.5065,-1.67473,
2026_07_06_21_38_17.389,3.858,45.5,0,0.771,0,0,0,0, ,0,0,0,0,0, ,-41.1,430.1,902.8,-0.4,-0.5,-1.6,25,-41.5802,429.882,902.163,-0.557003,-0.506104,-1.67322,
2026_07_06_21_38_17.409,3.858,45.5,0,0.771,0,0,0,0, ,0,0,0,0,0, ,-41,430.5,901.2,-0.7,-0.4,-1.7,25,-41.5479,429.907,902.153,-0.556577,-0.502685,-1.67181,
2026_07_06_21_38_17.429,3.858,45.6,0,0.771,0,0,0,0, ,0,0,0,0,0, ,-40.2,431.1,901.8,-0.6,-0.5,-1.7,25,-41.4901,429.961,902.114,-0.56227,-0.499474,-1.67353,
2026_07_06_21_38_17.449,3.858,45.6,0,0.771,0,0,0,0, ,0,0,0,0,0, ,-41.2,429.8,902,-0.5,-0.5,-1.7,25,-41.4419,429.991,902.101,-0.561522,-0.499506,-1.67514,
2026_07_06_21_38_17.469,3.858,45.5,0,0.768,0,0,0,0, ,0,0,0,0,0, ,-41.9,430.5,901.7,-0.6,-0.5,-1.7,25,-41.4485,430.001,902.085,-0.56082,-0.499536,-1.67665,
2026_07_06_21_38_17.488,3.858,45.5,0,0.771,0,0,0,0, ,0,0,0,0,0, ,-40.8,430,903,-0.5,-0.5,-1.7,25,-41.4425,430.016,902.101,-0.56016,-0.499565,-1.67808,
2026_07_06_21_38_17.508,3.858,45.5,0,0.771,0,0,0,0, ,0,0,0,0,0, ,-42.1,429.9,902.3,-0.6,-0.5,-1.7,25,-41.443,430.012,902.135,-0.559541,-0.499591,-1.67941,
2026_07_06_21_38_17.528,3.858,45.5,0,0.77,0,0,0,0, ,0,0,0,0,0, ,-41.9,430.5,902.8,-0.5,-0.5,-1.7,25,-41.4769,430.024,902.16,-0.55896,-0.499616,-1.68067,
2026_07_06_21_38_17.547,3.858,45.5,0,0.77,0,0,0,0, ,0,0,0,0,0, ,-41.7,430.6,902.2,-0.5,-0.5,-1.8,25,-41.4966,430.056,902.181,-0.555367,-0.49964,-1.68489,
2026_07_06_21_38_17.567,3.858,45.5,0,0.772,0,0,0,0, ,0,0,0,0,0, ,-41.2,429.1,902.4,-0.5,-0.5,-1.7,25,-41.4938,430.043,902.188,-0.551993,-0.499661,-1.68886,
2026_07_06_21_38_17.587,3.858,45.3,0,0.772,0,0,0,0, ,0,0,0,0,0, ,-41.1,429.9,902.4,-0.5,-0.5,-1.7,25,-41.4728,430.01,902.201,-0.548825,-0.499682,-1.68954,
2026_07_06_21_38_17.607,3.858,45.3,0,0.771,0,0,0,0, ,0,0,0,0,0, ,-42.1,430,902.3,-0.4,-0.5,-1.7,25,-41.4806,430.006,902.21,-0.542803,-0.499701,-1.69018,
2026_07_06_21_38_17.627,3.858,45.5,0,0.773,0,0,0,0, ,0,0,0,0,0, ,-41.3,429.8,901.3,-0.5,-0.5,-1.7,25,-41.4939,430,902.185,-0.537147,-0.49972,-1.69077,
2026_07_06_21_38_17.646,3.858,45.3,0,0.773,0,0,0,0, ,0,0,0,0,0, ,-41.2,431.3,903.1,-0.7,-0.5,-1.7,25,-41.4791,430.033,902.186,-0.540978,-0.499737,-1.69134,
2026_07_06_21_38_17.666,3.858,45.3,0,0.773,0,0,0,0, ,0,0,0,0,0, ,-42.2,431.3,901.1,-0.5,-0.5,-1.7,25,-41.4925,430.111,902.181,-0.544574,-0.499753,-1.69186,
2026_07_06_21_38_17.686,3.858,45.3,0,0.77,0,0,0,0, ,0,0,0,0,0, ,-41.1,430.1,904.2,-0.5,-0.5,-1.7,25,-41.5021,430.146,902.209,-0.541858,-0.499768,-1.69236,
2026_07_06_21_38_17.706,3.858,45.5,0,0.77,0,0,0,0, ,0,0,0,0,0, ,-41.7,430.7,902.8,-0.7,-0.5,-1.7,25,-41.4959,430.162,902.288,-0.545401,-0.499782,-1.69283,
2026_07_06_21_38_17.732,3.858,45.5,0,0.77,0,0,0,0, ,0,0,0,0,0, ,-42.1,429.9,903.8,-0.5,-0.5,-1.6,25,-41.5205,430.17,902.35,-0.548728,-0.499795,-1.69022,
2026_07_06_21_38_17.746,3.858,45.3,0,0.769,0,0,0,0, ,0,0,0,0,0, ,-43.3,429.6,902.2,-0.4,-0.6,-1.7,25,-41.5924,430.145,902.389,-0.542712,-0.502855,-1.68777,
2026_07_06_21_38_17.766,3.858,45.5,0,0.77,0,0,0,0, ,0,0,0,0,0, ,-41.5,431,901.9,-0.6,-0.5,-1.6,25,-41.6416,430.154,902.369,-0.540109,-0.505728,-1.68546,
2026_07_06_21_38_17.785,3.858,45.3,0,0.77,0,0,0,0, ,0,0,0,0,0, ,-41.3,430.5,903,-0.5,-0.5,-1.6,25,-41.6269,430.19,902.374,-0.540712,-0.505379,-1.68026,
2026_07_06_21_38_17.805,3.858,45.3,0,0.77,0,0,0,0, ,0,0,0,0,0, ,-40.8,429.9,901.6,-0.4,-0.5,-1.7,25,-41.5917,430.191,902.369,-0.535184,-0.505051,-1.67841,
2026_07_06_21_38_17.825,3.858,45.3,0,0.771,0,0,0,0, ,0,0,0,0,0, ,-42.3,429.8,901.6,-0.5,-0.5,-1.7,25,-41.5892,430.17,902.322,-0.529993,-0.504743,-1.67973,
2026_07_06_21_38_17.845,3.858,45.3,0,0.769,0,0,0,0, ,0,0,0,0,0, ,-42.2,430.5,901.1,-0.5,-0.5,-1.7,25,-41.6295,430.169,902.263,-0.528166,-0.504454,-1.68096,
2026_07_06_21_38_17.864,3.858,45.3,0,0.769,0,0,0,0, ,0,0,0,0,0, ,-41.2,429.3,901.7,-0.4,-0.5,-1.6,25,-41.6338,430.153,902.21,-0.523402,-0.504183,-1.67908,
2026_07_06_21_38_17.884,3.858,45.3,0,0.772,0,0,0,0, ,0,0,0,0,0, ,-42.3,430.4,903,-0.4,-0.5,-1.7,25,-41.6408,430.134,902.219,-0.515882,-0.503928,-1.6773,
2026_07_06_21_38_17.905,3.858,45.3,0,0.769,0,0,0,0, ,0,0,0,0,0, ,-40.6,428.2,903.1,-0.5,-0.5,-1.7,25,-41.6292,430.083,902.27,-0.511868,-0.503688,-1.67869,
2026_07_06_21_38_17.925,3.858,45.3,0,0.77,0,0,0,0, ,0,0,0,0,0, ,-41.9,429.3,902,-0.6,-0.5,-1.6,25,-41.6061,430.002,902.287,-0.514191,-0.503464,-1.67694,
2026_07_06_21_38_17.944,3.858,45.3,0,0.772,0,0,0,0, ,0,0,0,0,0, ,-42.1,430.7,900.7,-0.4,-0.5,-1.7,25,-41.6301,430.002,902.23,-0.513327,-0.503253,-1.6753,
2026_07_06_21_38_17.964,3.858,45.3,0,3.788,0,0,0,0, ,0,0,0,0,0, ,-41.6,429.3,902.7,-0.5,-0.5,-1.7,25,-41.6435,430.002,902.197,-0.509468,-0.503054,-1.6768,
2026_07_06_21_38_17.984,3.858,45.3,0,0.771,0,0,0,0, ,0,0,0,0,0, ,-41,429,900.6,-0.5,-0.5,-1.7,25,-41.6226,429.95,902.164,-0.508891,-0.502868,-1.67822,
2026_07_06_21_38_18.008,3.858,45.3,0,0.772,0,0,0,0, ,0,0,0,0,0, ,-41.1,428.7,901.3,-0.6,-0.5,-1.7,25,-41.5877,429.883,902.09,-0.511396,-0.502693,-1.67954,
2026_07_06_21_38_18.023,3.858,45.3,0,0.771,0,0,0,0, ,0,0,0,0,0, ,-41.2,429.5,901.8,-0.6,-0.5,-1.6,25,-41.561,429.835,902.057,-0.516795,-0.502529,-1.67774,
2026_07_06_21_38_18.043,3.858,45.2,0,0.77,0,0,0,0, ,0,0,0,0,0, ,-41.7,429.8,902.7,-0.4,-0.5,-1.6,25,-41.5543,429.824,902.069,-0.515772,-0.502375,-1.67301,
2026_07_06_21_38_18.063,3.858,45.2,0,0.771,0,0,0,0, ,0,0,0,0,0, ,-41.1,429.8,902.4,-0.7,-0.5,-1.7,25,-41.5449,429.822,902.098,-0.517857,-0.50223,-1.6716,
2026_07_06_21_38_18.083,3.858,45.3,0,0.772,0,0,0,0, ,0,0,0,0,0, ,-40.7,430.2,900.8,-0.6,-0.6,-1.7,25,-41.5056,429.833,902.068,-0.52591,-0.505141,-1.67333,
2026_07_06_21_38_18.102,3.858,45.3,0,0.77,0,0,0,0, ,0,0,0,0,0, ,-42.7,429.1,901.6,-0.6,-0.5,-1.6,25,-41.5174,429.822,902.015,-0.530425,-0.507875,-1.67191,
2026_07_06_21_38_18.121,3.858,45.2,0,0.771,0,0,0,0, ,0,0,0,0,0, ,-41.5,429.5,902,-0.6,-0.5,-1.7,25,-41.5529,429.79,902.002,-0.534665,-0.507395,-1.67058,
2026_07_06_21_38_18.143,3.858,45.2,0,0.77,0,0,0,0, ,0,0,0,0,0, ,-41.2,428.9,902,-0.6,-0.5,-1.7,25,-41.5405,429.754,902.002,-0.538646,-0.506944,-1.67237,
2026_07_06_21_38_18.161,3.858,45.3,0,0.771,0,0,0,0, ,0,0,0,0,0, ,-42.4,430.2,903.1,-0.5,-0.5,-1.7,25,-41.5564,429.742,902.035,-0.539338,-0.506521,-1.67405,
2026_07_06_21_38_18.181,3.858,45.2,0,0.77,0,0,0,0, ,0,0,0,0,0, ,-42.3,429.5,902.4,-0.7,-0.5,-1.6,25,-41.6047,429.748,902.079,-0.543034,-0.506124,-1.67259,
2026_07_06_21_38_18.201,3.858,45.3,0,0.771,0,0,0,0, ,0,0,0,0,0, ,-41.8,431.8,902.9,-0.6,-0.5,-1.8,25,-41.6319,429.803,902.113,-0.549553,-0.505751,-1.67426,
2026_07_06_21_38_18.221,3.858,45.2,0,0.77,0,0,0,0, ,0,0,0,0,0, ,-40.7,429.9,901.4,-0.5,-0.6,-1.7,25,-41.6086,429.867,902.116,-0.54958,-0.508447,-1.67887,
2026_07_06_21_38_18.241,3.858,45.2,0,0.769,0,0,0,0, ,0,0,0,0,0, ,-42.1,430.7,903.3,-0.6,-0.5,-1.6,25,-41.5959,429.894,902.13,-0.549605,-0.510979,-1.67711,
2026_07_06_21_38_18.261,3.858,45.2,0,0.772,0,0,0,0, ,0,0,0,0,0, ,-42.2,431.8,901.2,-0.6,-0.5,-1.7,25,-41.6296,429.976,902.137,-0.552676,-0.51031,-1.67546,
2026_07_06_21_38_18.281,3.858,45.3,0,0.772,0,0,0,0, ,0,0,0,0,0, ,-40.7,429.3,902.7,-0.3,-0.5,-1.6,25,-41.6187,430.011,902.126,-0.54642,-0.509682,-1.67391,
2026_07_06_21_38_18.300,3.858,45.3,0,0.769,0,0,0,0, ,0,0,0,0,0, ,-40.8,428.8,901.8,-0.6,-0.5,-1.6,25,-41.5658,429.953,902.133,-0.540544,-0.509092,-1.66941,
2026_07_06_21_38_18.320,3.858,45.1,0,0.772,0,0,0,0, ,0,0,0,0,0, ,-41.9,429.9,900.7,-0.4,-0.4,-1.6,25,-41.5526,429.916,902.08,-0.538073,-0.505491,-1.66518,
2026_07_06_21_38_18.340,3.858,45.2,0,0.772,0,0,0,0, ,0,0,0,0,0, ,-42.1,429.3,901.7,-0.7,-0.5,-1.7,25,-41.5799,429.897,902.026,-0.5388,-0.50211,-1.66425,
2026_07_06_21_38_18.359,3.858,45.2,0,0.772,0,0,0,0, ,0,0,0,0,0, ,-41.3,429.4,902.5,-0.7,-0.5,-1.7,25,-41.5872,429.863,902.031,-0.548623,-0.501981,-1.66643,
2026_07_06_21_38_18.379,3.858,45.2,0,0.771,0,0,0,0, ,0,0,0,0,0, ,-42.1,428.5,902.4,-0.6,-0.5,-1.7,25,-41.5941,429.808,902.056,-0.554801,-0.50186,-1.66848,
2026_07_06_21_38_18.399,3.858,45.3,0,0.77,0,0,0,0, ,0,0,0,0,0, ,-39.6,429.3,902.9,-0.5,-0.5,-1.6,25,-41.5487,429.752,902.092,-0.554508,-0.501747,-1.66735,
2026_07_06_21_38_18.419,3.858,45.1,0,0.772,0,0,0,0, ,0,0,0,0,0, ,-41.2,429.5,901.1,-0.6,-0.5,-1.7,25,-41.4787,429.731,902.087,-0.554234,-0.50164,-1.66629,
2026_07_06_21_38_18.439,3.858,45.2,0,0.77,0,0,0,0, ,0,0,0,0,0, ,-41.6,430.6,901.2,-0.6,-0.5,-1.7,25,-41.4739,429.75,902.03,-0.557022,-0.501541,-1.66835,
2026_07_06_21_38_18.459,3.858,45.3,0,0.77,0,0,0,0, ,0,0,0,0,0, ,-41.2,429.9,901.4,-0.6,-0.4,-1.6,25,-41.4694,429.781,901.985,-0.559641,-0.4984,-1.66723,
2026_07_06_21_38_18.478,3.858,45.2,0,0.77,0,0,0,0, ,0,0,0,0,0, ,-42.3,430.5,902.2,-0.6,-0.5,-1.6,25,-41.4865,429.806,901.974,-0.562101,-0.49545,-1.66313,
2026_07_06_21_38_18.498,3.858,45.2,0,0.77,0,0,0,0, ,0,0,0,0,0, ,-41.8,431,901.9,-0.5,-0.6,-1.7,25,-41.5209,429.864,901.978,-0.561363,-0.498775,-1.66233,
2026_07_06_21_38_18.518,3.858,45.2,0,0.772,0,0,0,0, ,0,0,0,0,0, ,-41.5,431.1,901.8,-0.6,-0.5,-1.7,25,-41.5287,429.936,901.971,-0.560671,-0.501896,-1.66463,
2026_07_06_21_38_18.542,3.858,45.1,0,0.77,0,0,0,0, ,0,0,0,0,0, ,-41,430.9,902.3,-0.6,-0.5,-1.7,25,-41.5117,430.001,901.975,-0.563068,-0.501781,-1.66678,
2026_07_06_21_38_18.557,3.858,45.2,0,0.768,0,0,0,0, ,0,0,0,0,0, ,-41.3,429.4,902.8,-0.6,-0.5,-1.7,25,-41.4897,430.01,902.011,-0.565318,-0.501672,-1.66881,
2026_07_06_21_38_18.577,3.858,45.2,0,0.77,0,0,0,0, ,0,0,0,0,0, ,-41.2,429.1,903.1,-0.5,-0.5,-1.6,25,-41.4751,429.964,902.068,-0.564385,-0.50157,-1.66766,
2026_07_06_21_38_18.596,3.858,45.1,0,0.77,0,0,0,0, ,0,0,0,0,0, ,-40.6,428.8,903.9,-0.7,-0.5,-1.6,25,-41.44,429.902,902.155,-0.566555,-0.501474,-1.66354,
2026_07_06_21_38_18.617,3.858,45.2,0,0.772,0,0,0,0, ,0,0,0,0,0, ,-41.9,431.1,903,-0.5,-0.5,-1.7,25,-41.4285,429.905,902.234,-0.568593,-0.501385,-1.66271,
2026_07_06_21_38_18.637,3.858,45.1,0,0.772,0,0,0,0, ,0,0,0,0,0, ,-41.6,428.4,901.9,-0.5,-0.5,-1.6,25,-41.4481,429.895,902.247,-0.564413,-0.5013,-1.66194,
2026_07_06_21_38_18.657,3.858,45.2,0,0.768,0,0,0,0, ,0,0,0,0,0, ,-41.1,428.8,902.8,-0.5,-0.5,-1.7,25,-41.4421,429.816,902.253,-0.560488,-0.501221,-1.66121,
2026_07_06_21_38_18.677,3.858,45.2,0,0.768,0,0,0,0, ,0,0,0,0,0, ,-41.3,430.9,902,-0.6,-0.5,-1.7,25,-41.4273,429.819,902.262,-0.559849,-0.501147,-1.66357,
2026_07_06_21_38_18.696,3.858,45.2,0,0.772,0,0,0,0, ,0,0,0,0,0, ,-41.1,430.1,902.7,-0.4,-0.4,-1.8,25,-41.4135,429.86,902.268,-0.556202,-0.49803,-1.66884,
2026_07_06_21_38_18.716,3.858,45.1,0,0.77,0,0,0,0, ,0,0,0,0,0, ,-41.3,428.7,901.9,-0.5,-0.4,-1.7,25,-41.4005,429.832,902.27,-0.54973,-0.492056,-1.67379,
2026_07_06_21_38_18.735,3.858,45.1,0,0.77,0,0,0,0, ,0,0,0,0,0, ,-41.6,430.1,901.7,-0.6,-0.5,-1.8,25,-41.4035,429.806,902.241,-0.549747,-0.489493,-1.67843,
2026_07_06_21_38_18.755,3.858,45.1,0,0.77,0,0,0,0, ,0,0,0,0,0, ,-40.8,430.2,901.3,-0.5,-0.5,-1.6,25,-41.3911,429.827,902.196,-0.549762,-0.490134,-1.67975,
2026_07_06_21_38_18.775,3.858,45.2,0,0.77,0,0,0,0, ,0,0,0,0,0, ,-41.6,429.1,903.1,-0.5,-0.5,-1.7,25,-41.3794,429.816,902.196,-0.54673,-0.490735,-1.67793,
2026_07_06_21_38_18.794,3.858,45.1,0,0.77,0,0,0,0, ,0,0,0,0,0, ,-42.3,429,901.9,-0.5,-0.5,-1.7,25,-41.4142,429.769,902.215,-0.543882,-0.491299,-1.67928,
2026_07_06_21_38_18.820,3.858,45.1,0,0.77,0,0,0,0, ,0,0,0,0,0, ,-41.7,429.5,902.7,-0.6,-0.6,-1.7,25,-41.4499,429.738,902.22,-0.544255,-0.494877,-1.68054,
2026_07_06_21_38_18.835,3.858,45.1,0,0.77,0,0,0,0, ,0,0,0,0,0, ,-42.2,429.3,901.1,-0.5,-0.5,-1.6,25,-41.4804,429.717,902.2,-0.544605,-0.498236,-1.67868,
2026_07_06_21_38_18.854,3.858,45.1,0,0.77,0,0,0,0, ,0,0,0,0,0, ,-41.7,428.8,901.2,-0.5,-0.5,-1.7,25,-41.509,429.676,902.136,-0.541887,-0.498343,-1.67693,
2026_07_06_21_38_18.874,3.858,45.1,0,0.77,0,0,0,0, ,0,0,0,0,0, ,-41.5,430.7,902.4,-0.6,-0.6,-1.7,25,-41.5145,429.681,902.116,-0.542381,-0.501491,-1.67834,
2026_07_06_21_38_18.894,3.858,45.1,0,0.77,0,0,0,0, ,0,0,0,0,0, ,-41.6,429.3,901.6,-0.5,-0.5,-1.7,25,-41.5167,429.7,902.109,-0.542846,-0.504447,-1.67966,
2026_07_06_21_38_18.914,3.858,45.1,0,0.77,0,0,0,0, ,0,0,0,0,0, ,-42.3,430.1,902.3,-0.5,-0.5,-1.6,25,-41.5431,429.7,902.099,-0.540235,-0.504176,-1.67785,
2026_07_06_21_38_18.934,3.858,45.1,0,0.77,0,0,0,0, ,0,0,0,0,0, ,-41.8,429.4,902.4,-0.6,-0.5,-1.7,25,-41.574,429.703,902.114,-0.54083,-0.503922,-1.67615,
2026_07_06_21_38_18.953,3.858,45,0,0.77,0,0,0,0, ,0,0,0,0,0, ,-40.7,429.6,903.5,-0.5,-0.5,-1.7,25,-41.5543,429.691,902.165,-0.541389,-0.503683,-1.67761,
2026_07_06_21_38_18.974,3.858,45,0,0.77,0,0,0,0, ,0,0,0,0,0, ,-40.8,428.8,903.4,-0.6,-0.5,-1.7,25,-41.5052,429.661,902.244,-0.541913,-0.503458,-1.67897,
2026_07_06_21_38_18.993,3.858,45,0,0.77,0,0,0,0, ,0,0,0,0,0, ,-41.5,430,903,-0.7,-0.5,-1.7,25,-41.4836,429.645,902.302,-0.5485,-0.503247,-1.68025,
2026_07_06_21_38_19.013,3.858,45.1,0,0.77,0,0,0,0, ,0,0,0,0,0, ,-41.9,428.7,901.6,-0.5,-0.5,-1.7,25,-41.4968,429.627,902.302,-0.551638,-0.50305,-1.68146,
2026_07_06_21_38_19.033,3.858,45.1,0,0.768,0,0,0,0, ,0,0,0,0,0, ,-41.2,429.5,902.2,-0.6,-0.5,-1.6,25,-41.5,429.595,902.277,-0.551538,-0.502864,-1.67954,
2026_07_06_21_38_19.052,3.858,45.1,0,0.768,0,0,0,0, ,0,0,0,0,0, ,-40,432.1,902.9,-0.5,-0.5,-1.6,25,-41.4452,429.668,902.294,-0.551445,-0.502689,-1.67469,
2026_07_06_21_38_19.072,3.858,45,0,0.772,0,0,0,0, ,0,0,0,0,0, ,-41.3,429.8,903.3,-0.4,-0.5,-1.6,25,-41.3967,429.747,902.343,-0.545263,-0.502525,-1.67014,
2026_07_06_21_38_19.091,3.858,45.1,0,0.774,0,0,0,0, ,0,0,0,0,0, ,-40.6,430.1,901.9,-0.5,-0.5,-1.7,25,-41.3695,429.759,902.359,-0.539458,-0.502371,-1.66891,
2026_07_06_21_38_19.112,3.858,45.1,0,0.771,0,0,0,0, ,0,0,0,0,0, ,-41.6,428.4,901.3,-0.5,-0.5,-1.7,25,-41.3531,429.728,902.312,-0.537053,-0.502227,-1.67081,
2026_07_06_21_38_19.132,3.858,45.1,0,0.77,0,0,0,0, ,0,0,0,0,0, ,-40.7,429.6,902.3,-0.6,-0.5,-1.7,25,-41.3407,429.684,902.281,-0.537842,-0.502091,-1.67259,
2026_07_06_21_38_19.152,3.858,45,0,0.768,0,0,0,0, ,0,0,0,0,0, ,-41.8,430,902.4,-0.5,-0.5,-1.7,25,-41.3352,429.691,902.285,-0.538583,-0.501964,-1.67426,
2026_07_06_21_38_19.171,3.858,45.1,0,0.768,0,0,0,0, ,0,0,0,0,0, ,-41.1,429.8,903.3,-0.4,-0.5,-1.6,25,-41.3422,429.703,902.32,-0.533185,-0.501844,-1.67278,
2026_07_06_21_38_19.191,3.858,45,0,0.771,0,0,0,0, ,0,0,0,0,0, ,-40.7,430.2,902.5,-0.6,-0.5,-1.7,25,-41.3152,429.721,902.355,-0.531163,-0.501732,-1.67139,
2026_07_06_21_38_19.212,3.858,45.1,0,0.772,0,0,0,0, ,0,0,0,0,0, ,-41.1,429.3,901.7,-0.5,-0.5,-1.6,25,-41.2899,429.723,902.34,-0.532311,-0.501626,-1.67009,
2026_07_06_21_38_19.231,3.858,45,0,0.772,0,0,0,0, ,0,0,0,0,0, ,-41.5,429.6,902.4,-0.4,-0.5,-1.7,25,-41.2905,429.707,902.322,-0.527295,-0.501527,-1.66886,
2026_07_06_21_38_19.251,3.858,45,0,0.768,0,0,0,0, ,0,0,0,0,0, ,-41.1,429.6,903.1,-0.6,-0.6,-1.6,25,-41.2911,429.7,902.348,-0.525632,-0.504481,-1.66771,
2026_07_06_21_38_19.271,3.858,45,0,0.77,0,0,0,0, ,0,0,0,0,0, ,-41.1,431.5,902.8,-0.7,-0.5,-1.7,25,-41.2795,429.752,902.385,-0.53321,-0.507255,-1.66663,
2026_07_06_21_38_19.290,3.858,45,0,0.768,0,0,0,0, ,0,0,0,0,0, ,-41.5,428.5,900.6,-0.4,-0.5,-1.7,25,-41.2807,429.767,902.343,-0.534233,-0.506813,-1.66867,
2026_07_06_21_38_19.310,3.858,45,0,0.77,0,0,0,0, ,0,0,0,0,0, ,-41.1,427.9,901.8,-0.6,-0.4,-1.8,25,-41.2819,429.672,902.273,-0.532147,-0.503351,-1.67362,
2026_07_06_21_38_19.329,3.858,45.1,0,0.77,0,0,0,0, ,0,0,0,0,0, ,-41.3,429.9,902.3,-0.8,-0.6,-1.7,25,-41.2769,429.624,902.26,-0.542376,-0.503146,-1.67828,
2026_07_06_21_38_19.355,3.858,45,0,0.773,0,0,0,0, ,0,0,0,0,0, ,-41.5,429.1,900.8,-0.5,-0.5,-1.7,25,-41.2844,429.617,902.216,-0.548934,-0.506002,-1.6796,
2026_07_06_21_38_19.369,3.858,45.1,0,0.77,0,0,0,0, ,0,0,0,0,0, ,-41.5,428.3,903.5,-0.5,-0.5,-1.7,25,-41.2975,429.561,902.212,-0.545952,-0.505636,-1.68084,
2026_07_06_21_38_19.389,3.858,44.9,0,0.772,0,0,0,0, ,0,0,0,0,0, ,-42.1,430.1,901.4,-0.6,-0.5,-1.6,25,-41.3282,429.539,902.227,-0.546199,-0.505292,-1.67896,
2026_07_06_21_38_19.409,3.858,45,0,0.772,0,0,0,0, ,0,0,0,0,0, ,-41.5,430.6,903,-0.5,-0.5,-1.7,25,-41.3569,429.588,902.225,-0.546431,-0.50497,-1.6772,
2026_07_06_21_38_19.429,3.858,45,0,0.77,0,0,0,0, ,0,0,0,0,0, ,-42.3,429.9,902,-0.6,-0.5,-1.6,25,-41.39,429.629,902.242,-0.546648,-0.504667,-1.67554,
2026_07_06_21_38_19.449,3.858,45,0,0.77,0,0,0,0, ,0,0,0,0,0, ,-41.3,430.1,901.6,-0.6,-0.5,-1.7,25,-41.415,429.651,902.215,-0.549899,-0.504383,-1.67399,
2026_07_06_21_38_19.469,3.858,45,0,0.77,0,0,0,0, ,0,0,0,0,0, ,-42.3,430.2,901.7,-0.5,-0.5,-1.7,25,-41.4385,429.682,902.181,-0.549905,-0.504116,-1.67557,
2026_07_06_21_38_19.488,3.858,45,0,0.77,0,0,0,0, ,0,0,0,0,0, ,-40.5,430.6,904.1,-0.6,-0.6,-1.7,25,-41.4361,429.726,902.224,-0.549911,-0.506912,-1.67706,
2026_07_06_21_38_19.508,3.858,45,0,0.77,0,0,0,0, ,0,0,0,0,0, ,-41.3,428.9,902.7,-0.6,-0.5,-1.6,25,-41.4034,429.727,902.296,-0.552963,-0.509537,-1.67541,
2026_07_06_21_38_19.528,3.858,44.9,0,0.769,0,0,0,0, ,0,0,0,0,0, ,-41.1,430.5,902,-0.6,-0.5,-1.6,25,-41.391,429.725,902.299,-0.55583,-0.508956,-1.67082,
2026_07_06_21_38_19.548,3.858,45,0,0.771,0,0,0,0, ,0,0,0,0,0, ,-41.7,428.8,902.5,-0.5,-0.5,-1.8,25,-41.3916,429.721,902.296,-0.555474,-0.50841,-1.67259,
2026_07_06_21_38_19.567,3.858,44.9,0,0.77,0,0,0,0, ,0,0,0,0,0, ,-41.5,430.9,902.3,-0.5,-0.5,-1.7,25,-41.4043,429.729,902.303,-0.552094,-0.507898,-1.67731,
2026_07_06_21_38_19.587,3.858,45,0,0.77,0,0,0,0, ,0,0,0,0,0, ,-41.1,430.5,904,-0.5,-0.6,-1.6,25,-41.3979,429.788,902.354,-0.54892,-0.510464,-1.67565,
2026_07_06_21_38_19.607,3.858,44.9,0,0.771,0,0,0,0, ,0,0,0,0,0, ,-41.6,429.9,901,-0.4,-0.5,-1.6,25,-41.395,429.813,902.363,-0.542892,-0.512873,-1.67104,
2026_07_06_21_38_19.628,3.858,45,0,0.772,0,0,0,0, ,0,0,0,0,0, ,-41.9,429.4,902.4,-0.5,-0.5,-1.7,25,-41.4166,429.803,902.323,-0.537231,-0.512088,-1.66975,
2026_07_06_21_38_19.647,3.858,44.9,0,0.77,0,0,0,0, ,0,0,0,0,0, ,-40.7,429.9,902.2,-0.6,-0.4,-1.7,25,-41.4095,429.794,902.321,-0.538009,-0.508305,-1.6716,
2026_07_06_21_38_19.667,3.858,45,0,0.77,0,0,0,0, ,0,0,0,0,0, ,-40.1,430.2,901.7,-0.5,-0.6,-1.7,25,-41.348,429.809,902.299,-0.53874,-0.507799,-1.67333,
2026_07_06_21_38_19.687,3.858,45,0,0.772,0,0,0,0, ,0,0,0,0,0, ,-41,429.3,902.9,-0.4,-0.5,-1.7,25,-41.2994,429.806,902.299,-0.533332,-0.51037,-1.67495,
2026_07_06_21_38_19.706,3.858,45,0,0.77,0,0,0,0, ,0,0,0,0,0, ,-41.3,429.1,902.3,-0.5,-0.5,-1.6,25,-41.2903,429.769,902.317,-0.528254,-0.509738,-1.67343,
2026_07_06_21_38_19.726,3.858,45,0,0.77,0,0,0,0, ,0,0,0,0,0, ,-41.8,428.8,902.7,-0.5,-0.4,-1.7,25,-41.3061,429.719,902.328,-0.526532,-0.506098,-1.67201,
2026_07_06_21_38_19.746,3.858,45,0,0.769,0,0,0,0, ,0,0,0,0,0, ,-42.1,429.6,903.9,-0.6,-0.5,-1.7,25,-41.3453,429.687,902.388,-0.527963,-0.50268,-1.67371,
2026_07_06_21_38_19.766,3.858,44.9,0,0.768,0,0,0,0, ,0,0,0,0,0, ,-41.5,430.6,901,-0.5,-0.5,-1.7,25,-41.3731,429.712,902.391,-0.529305,-0.502516,-1.67531,
2026_07_06_21_38_19.785,3.858,44.9,0,0.769,0,0,0,0, ,0,0,0,0,0, ,-41.7,430.1,901.4,-0.5,-0.5,-1.7,25,-41.3869,429.751,902.319,-0.52752,-0.502363,-1.67682,
2026_07_06_21_38_19.805,3.858,45,0,0.77,0,0,0,0, ,0,0,0,0,0, ,-42.2,429.9,901.9,-0.7,-0.5,-1.7,25,-41.4212,429.766,902.278,-0.531936,-0.502219,-1.67823,
2026_07_06_21_38_19.826,3.858,44.9,0,0.769,0,0,0,0, ,0,0,0,0,0, ,-41.7,430.6,902.2,-0.5,-0.5,-1.7,25,-41.4534,429.796,902.264,-0.536084,-0.502084,-1.67956,
2026_07_06_21_38_19.845,3.858,44.9,0,0.77,0,0,0,0, ,0,0,0,0,0, ,-41.3,428.9,901.4,-0.6,-0.6,-1.7,25,-41.4563,429.793,902.236,-0.536932,-0.505004,-1.6808,
2026_07_06_21_38_19.865,3.858,44.8,0,0.77,0,0,0,0, ,0,0,0,0,0, ,-41.8,430.9,901.2,-0.7,-0.5,-1.6,25,-41.462,429.8,902.179,-0.543822,-0.507746,-1.67893,
2026_07_06_21_38_19.884,3.858,44.8,0,0.768,0,0,0,0, ,0,0,0,0,0, ,-41.3,430.4,901.7,-0.5,-0.5,-1.7,25,-41.4673,429.851,902.134,-0.547245,-0.507274,-1.67716,
2026_07_06_21_38_19.904,3.858,44.9,0,0.771,0,0,0,0, ,0,0,0,0,0, ,-41.8,430.4,902.4,-0.4,-0.5,-1.7,25,-41.4724,429.885,902.129,-0.54132,-0.50683,-1.67855,
2026_07_06_21_38_19.923,3.858,44.8,0,0.769,0,0,0,0, ,0,0,0,0,0, ,-42.3,428.9,901,-0.6,-0.5,-1.7,25,-41.5076,429.871,902.103,-0.538802,-0.506414,-1.67986,
2026_07_06_21_38_19.943,3.858,44.9,0,0.77,0,0,0,0, ,0,0,0,0,0, ,-41,430.4,901.9,-0.6,-0.5,-1.7,25,-41.5163,429.857,902.063,-0.542531,-0.506023,-1.68109,
2026_07_06_21_38_19.963,3.858,44.9,0,0.771,0,0,0,0, ,0,0,0,0,0, ,-41.5,430.7,903.8,-0.5,-0.5,-1.7,25,-41.5,429.899,902.111,-0.542986,-0.505656,-1.68224,
2026_07_06_21_38_19.983,3.858,45,0,0.767,0,0,0,0, ,0,0,0,0,0, ,-40.8,429.9,901.1,-0.3,-0.5,-1.6,25,-41.4787,429.924,902.132,-0.534273,-0.505312,-1.68028,
2026_07_06_21_38_20.003,3.858,44.9,0,0.77,0,0,0,0, ,0,0,0,0,0, ,-41.5,428.4,903.4,-0.6,-0.5,-1.7,25,-41.4587,429.877,902.139,-0.529137,-0.504988,-1.67843,
2026_07_06_21_38_20.023,3.858,44.8,0,0.77,0,0,0,0, ,0,0,0,0,0, ,-41.6,429.6,901.9,-0.7,-0.5,-1.7,25,-41.4642,429.823,902.17,-0.536503,-0.504684,-1.67975,
2026_07_06_21_38_20.042,3.858,44.9,0,0.773,0,0,0,0, ,0,0,0,0,0, ,-40.6,430.1,902.5,-0.3,-0.5,-1.7,25,-41.442,429.825,902.172,-0.534278,-0.504399,-1.68098,
2026_07_06_21_38_20.062,3.858,44.8,0,0.769,0,0,0,0, ,0,0,0,0,0, ,-40.8,428.3,902.9,-0.5,-0.5,-1.6,25,-41.3968,429.787,902.204,-0.526096,-0.504131,-1.67909,
2026_07_06_21_38_20.082,3.858,44.9,0,0.77,0,0,0,0, ,0,0,0,0,0, ,-41.8,430,904.1,-0.6,-0.5,-1.7,25,-41.3909,429.748,902.283,-0.527552,-0.503879,-1.67732,
2026_07_06_21_38_20.102,3.858,44.8,0,0.772,0,0,0,0, ,0,0,0,0,0, ,-42.6,429.4,901.2,-0.4,-0.5,-1.7,25,-41.4402,429.745,902.306,-0.525873,-0.503642,-1.6787,
2026_07_06_21_38_20.122,3.858,44.9,0,0.771,0,0,0,0, ,0,0,0,0,0, ,-41.1,428.8,902,-0.4,-0.5,-1.7,25,-41.4652,429.706,902.263,-0.518203,-0.50342,-1.68,
2026_07_06_21_38_20.142,3.858,44.9,0,0.772,0,0,0,0, ,0,0,0,0,0, ,-40.6,428.3,902.4,-0.7,-0.5,-1.7,25,-41.4277,429.635,902.259,-0.520141,-0.503212,-1.68122,
2026_07_06_21_38_20.161,3.858,44.8,0,0.77,0,0,0,0, ,0,0,0,0,0, ,-40.5,430.9,903.6,-0.5,-0.6,-1.6,25,-41.3742,429.633,902.304,-0.525007,-0.506063,-1.67932,
2026_07_06_21_38_20.181,3.858,44.8,0,0.77,0,0,0,0, ,0,0,0,0,0, ,-41.7,430.6,902.8,-0.4,-0.5,-1.6,25,-41.3575,429.701,902.358,-0.520436,-0.508741,-1.67448,
2026_07_06_21_38_20.201,3.858,44.8,0,0.772,0,0,0,0, ,0,0,0,0,0, ,-41.3,428.5,901.6,-0.5,-0.5,-1.7,25,-41.3662,429.692,902.349,-0.516144,-0.508208,-1.67299,
2026_07_06_21_38_20.221,3.858,44.8,0,0.771,0,0,0,0, ,0,0,0,0,0, ,-41,430.1,901.1,-0.5,-0.5,-1.6,25,-41.353,429.668,902.288,-0.51516,-0.507708,-1.67159,
2026_07_06_21_38_20.241,3.858,44.8,0,0.772,0,0,0,0, ,0,0,0,0,0, ,-40.2,428.9,903,-0.5,-0.5,-1.7,25,-41.3071,429.658,902.273,-0.514236,-0.507238,-1.67027,
2026_07_06_21_38_20.260,3.858,44.8,0,0.769,0,0,0,0, ,0,0,0,0,0, ,-41.3,429.8,901.7,-0.5,-0.5,-1.7,25,-41.2732,429.639,902.278,-0.513369,-0.506797,-1.67209,
2026_07_06_21_38_20.280,3.858,44.8,0,0.769,0,0,0,0, ,0,0,0,0,0, ,-41.1,430.2,903.4,-0.5,-0.6,-1.7,25,-41.2687,429.661,902.295,-0.512554,-0.50943,-1.67379,
2026_07_06_21_38_20.303,3.858,44.8,0,0.77,0,0,0,0, ,0,0,0,0,0, ,-41.7,428.9,902.8,-0.5,-0.5,-1.6,25,-41.2767,429.654,902.344,-0.511789,-0.511902,-1.67234,
2026_07_06_21_38_20.320,3.858,44.9,0,0.77,0,0,0,0, ,0,0,0,0,0, ,-41.5,429.6,902.7,-0.5,-0.6,-1.7,25,-41.2964,429.63,902.369,-0.511071,-0.514224,-1.67098,
2026_07_06_21_38_20.339,3.858,44.8,0,0.769,0,0,0,0, ,0,0,0,0,0, ,-42.9,428.8,903.3,-0.6,-0.5,-1.6,25,-41.3515,429.603,902.407,-0.513443,-0.516404,-1.6697,
2026_07_06_21_38_20.360,3.858,44.9,0,0.77,0,0,0,0, ,0,0,0,0,0, ,-41.8,430.9,902.4,-0.5,-0.6,-1.7,25,-41.4123,429.619,902.434,-0.515671,-0.518451,-1.6685,
2026_07_06_21_38_20.379,3.858,44.8,0,0.771,0,0,0,0, ,0,0,0,0,0, ,-41.9,429.4,902.8,-0.5,-0.5,-1.8,25,-41.439,429.651,902.444,-0.514716,-0.520373,-1.67346,
2026_07_06_21_38_20.400,3.858,44.8,0,0.77,0,0,0,0, ,0,0,0,0,0, ,-39.7,429.5,903.4,-0.6,-0.5,-1.7,25,-41.4001,429.639,902.484,-0.516866,-0.519132,-1.67813,
2026_07_06_21_38_20.419,3.858,44.7,0,0.771,0,0,0,0, ,0,0,0,0,0, ,-40.8,430,903.1,-0.5,-0.4,-1.7,25,-41.33,429.645,902.531,-0.518885,-0.514919,-1.67946,
2026_07_06_21_38_20.445,3.858,44.8,0,0.77,0,0,0,0, ,0,0,0,0,0, ,-42.1,429,902,-0.5,-0.5,-1.7,25,-41.3373,429.637,902.532,-0.517734,-0.510963,-1.68071,
2026_07_06_21_38_20.459,3.858,44.8,0,0.771,0,0,0,0, ,0,0,0,0,0, ,-41.7,430.2,902.9,-0.5,-0.5,-1.6,25,-41.3716,429.634,902.527,-0.516654,-0.510295,-1.67884,
2026_07_06_21_38_20.478,3.858,44.7,0,0.769,0,0,0,0, ,0,0,0,0,0, ,-40.5,429.9,900.7,-0.5,-0.5,-1.6,25,-41.355,429.66,902.483,-0.515639,-0.509668,-1.67404,
2026_07_06_21_38_20.498,3.858,44.8,0,0.77,0,0,0,0, ,0,0,0,0,0, ,-41,429,901.7,-0.4,-0.5,-1.6,25,-41.3182,429.647,902.404,-0.511639,-0.509079,-1.66952,
2026_07_06_21_38_20.518,3.858,44.8,0,0.772,0,0,0,0, ,0,0,0,0,0, ,-41.5,429.8,902.4,-0.5,-0.5,-1.7,25,-41.314,429.632,902.383,-0.507883,-0.508525,-1.66833,
2026_07_06_21_38_20.537,3.858,44.8,0,0.771,0,0,0,0, ,0,0,0,0,0, ,-41.3,429,902.7,-0.5,-0.5,-1.6,25,-41.3193,429.618,902.393,-0.507402,-0.508006,-1.66722,
2026_07_06_21_38_20.557,3.858,44.8,0,0.771,0,0,0,0, ,0,0,0,0,0, ,-41.7,430.2,902.8,-0.4,-0.5,-1.7,25,-41.3303,429.617,902.415,-0.503904,-0.507518,-1.66617,
2026_07_06_21_38_20.582,3.858,44.8,0,0.771,0,0,0,0, ,0,0,0,0,0, ,-41.5,428.8,901.8,-0.5,-0.5,-1.7,25,-41.3467,429.61,902.408,-0.50062,-0.50706,-1.66823,
2026_07_06_21_38_20.598,3.858,44.8,0,0.77,0,0,0,0, ,0,0,0,0,0, ,-41.8,430.2,902.3,-0.6,-0.5,-1.7,25,-41.3652,429.603,902.386,-0.503629,-0.50663,-1.67017,
2026_07_06_21_38_20.617,3.858,44.8,0,0.77,0,0,0,0, ,0,0,0,0,0, ,-41.7,429.8,901.8,-0.5,-0.5,-1.7,25,-41.3886,429.627,902.366,-0.506454,-0.506226,-1.67198,
2026_07_06_21_38_20.636,3.858,44.7,0,0.771,0,0,0,0, ,0,0,0,0,0, ,-41.1,429,902.4,-0.5,-0.5,-1.7,25,-41.3893,429.613,902.349,-0.506061,-0.505846,-1.67369,
2026_07_06_21_38_20.656,3.858,44.8,0,0.771,0,0,0,0, ,0,0,0,0,0, ,-42.6,429.3,902.4,-0.5,-0.5,-1.7,25,-41.4174,429.585,902.352,-0.505692,-0.50549,-1.67529,
2026_07_06_21_38_20.676,3.858,44.8,0,0.771,0,0,0,0, ,0,0,0,0,0, ,-41.1,429.9,903.3,-0.5,-0.5,-1.7,25,-41.4438,429.586,902.383,-0.505345,-0.505156,-1.6768,
2026_07_06_21_38_20.696,3.858,44.8,0,0.769,0,0,0,0, ,0,0,0,0,0, ,-41.6,429.1,901.1,-0.6,-0.6,-1.7,25,-41.438,429.581,902.372,-0.508066,-0.507888,-1.67821,
2026_07_06_21_38_20.719,3.858,44.8,0,0.769,0,0,0,0, ,0,0,0,0,0, ,-41.7,429.1,902.9,-0.5,-0.4,-1.6,25,-41.451,429.551,902.349,-0.510621,-0.507408,-1.67649,
2026_07_06_21_38_20.736,3.858,44.7,0,0.771,0,0,0,0, ,0,0,0,0,0, ,-41.2,428.9,902.8,-0.5,-0.5,-1.6,25,-41.4509,429.518,902.38,-0.509974,-0.503909,-1.67183,
2026_07_06_21_38_20.755,3.858,44.7,0,0.771,0,0,0,0, ,0,0,0,0,0, ,-41.6,429.4,903.1,-0.6,-0.5,-1.7,25,-41.4478,429.495,902.414,-0.512413,-0.503671,-1.6705,
2026_07_06_21_38_20.775,3.858,44.7,0,0.77,0,0,0,0, ,0,0,0,0,0, ,-42.4,429,902.9,-0.6,-0.4,-1.6,25,-41.4815,429.477,902.45,-0.517751,-0.5004,-1.66925,
2026_07_06_21_38_20.795,3.858,44.7,0,0.771,0,0,0,0, ,0,0,0,0,0, ,-40.8,428.5,903,-0.6,-0.4,-1.7,25,-41.4887,429.433,902.48,-0.522763,-0.494282,-1.66808,
2026_07_06_21_38_20.815,3.858,44.7,0,0.767,0,0,0,0, ,0,0,0,0,0, ,-40.8,430.2,902.5,-0.6,-0.5,-1.6,25,-41.4467,429.428,902.497,-0.527469,-0.491584,-1.66698,
2026_07_06_21_38_20.835,3.858,44.6,0,0.77,0,0,0,0, ,0,0,0,0,0, ,-41.6,428.9,902,-0.7,-0.4,-1.6,25,-41.4317,429.435,902.482,-0.534936,-0.48905,-1.6629,
2026_07_06_21_38_20.854,3.858,44.8,0,0.77,0,0,0,0, ,0,0,0,0,0, ,-41.9,429.5,902.3,-0.6,-0.5,-1.8,25,-41.4511,429.421,902.462,-0.541948,-0.48667,-1.66516,
2026_07_06_21_38_20.874,3.858,44.7,0,5.224,0,0,0,0, ,0,0,0,0,0, ,-42.9,431,903.1,-0.5,-0.5,-1.6,25,-41.5089,429.472,902.476,-0.542438,-0.487483,-1.66728,
2026_07_06_21_38_20.894,3.858,44.7,0,0.77,0,0,0,0, ,0,0,0,0,0, ,-40.5,429.9,902,-0.6,-0.5,-1.7,25,-41.5205,429.531,902.481,-0.542899,-0.488245,-1.66623,
2026_07_06_21_38_20.914,3.858,44.7,0,0.771,0,0,0,0, ,0,0,0,0,0, ,-41,429.3,901.1,-0.7,-0.5,-1.7,25,-41.4736,429.535,902.424,-0.549426,-0.488962,-1.66829,
2026_07_06_21_38_20.934,3.858,44.7,0,0.769,0,0,0,0, ,0,0,0,0,0, ,-41,430.7,903.1,-0.5,-0.5,-1.6,25,-41.4447,429.564,902.404,-0.552508,-0.489634,-1.66717,
2026_07_06_21_38_20.954,3.858,44.7,0,0.77,0,0,0,0, ,0,0,0,0,0, ,-41.3,430.1,902.8,-0.5,-0.5,-1.6,25,-41.4268,429.615,902.437,-0.549308,-0.490266,-1.66308,
2026_07_06_21_38_20.974,3.858,44.7,0,0.769,0,0,0,0, ,0,0,0,0,0, ,-42.4,429.5,902.4,-0.7,-0.5,-1.7,25,-41.4526,429.626,902.447,-0.552397,-0.490859,-1.66228,
2026_07_06_21_38_20.994,3.858,44.6,0,0.768,0,0,0,0, ,0,0,0,0,0, ,-42.1,430.6,902.8,-0.6,-0.5,-1.6,25,-41.5012,429.652,902.457,-0.558345,-0.491416,-1.66153,
2026_07_06_21_38_21.014,3.858,44.7,0,0.772,0,0,0,0, ,0,0,0,0,0, ,-41.8,429.9,903,-0.5,-0.5,-1.7,25,-41.5285,429.688,902.484,-0.557836,-0.491939,-1.66083,
2026_07_06_21_38_21.033,3.858,44.8,0,0.771,0,0,0,0, ,0,0,0,0,0, ,-40.2,428.2,902.4,-0.5,-0.5,-1.7,25,-41.4963,429.649,902.497,-0.554312,-0.49243,-1.66322,
2026_07_06_21_38_21.053,3.858,44.7,0,0.769,0,0,0,0, ,0,0,0,0,0, ,-41.2,429.8,901.8,-0.7,-0.5,-1.7,25,-41.4478,429.61,902.473,-0.557096,-0.492892,-1.66546,
2026_07_06_21_38_21.073,3.858,44.7,0,0.769,0,0,0,0, ,0,0,0,0,0, ,-41.2,430,902.2,-0.5,-0.5,-1.7,25,-41.4327,429.627,902.444,-0.55971,-0.493325,-1.66756,
2026_07_06_21_38_21.093,3.858,44.6,0,0.77,0,0,0,0, ,0,0,0,0,0, ,-41.7,429.6,903,-0.5,-0.5,-1.7,25,-41.4337,429.638,902.453,-0.556072,-0.493732,-1.66954,
2026_07_06_21_38_21.113,3.858,44.6,0,0.77,0,0,0,0, ,0,0,0,0,0, ,-41.9,430.2,901.7,-0.5,-0.5,-1.7,25,-41.4561,429.654,902.447,-0.552655,-0.494114,-1.6714,
2026_07_06_21_38_21.132,3.858,44.6,0,0.77,0,0,0,0, ,0,0,0,0,0, ,-41.2,429.3,903.1,-0.3,-0.6,-1.8,25,-41.4618,429.66,902.444,-0.543352,-0.497519,-1.67619,
2026_07_06_21_38_21.152,3.858,44.7,0,0.771,0,0,0,0, ,0,0,0,0,0, ,-41,428.4,902.8,-0.6,-0.5,-1.7,25,-41.4397,429.61,902.475,-0.537664,-0.500717,-1.68068,
2026_07_06_21_38_21.172,3.858,44.6,0,0.77,0,0,0,0, ,0,0,0,0,0, ,-41.6,430.1,902.4,-0.6,-0.5,-1.7,25,-41.4312,429.588,902.483,-0.541462,-0.500674,-1.68186,
2026_07_06_21_38_21.191,3.858,44.7,0,0.77,0,0,0,0, ,0,0,0,0,0, ,-41.6,429.5,902.3,-0.4,-0.5,-1.7,25,-41.4415,429.601,902.475,-0.538936,-0.500632,-1.68297,
2026_07_06_21_38_21.211,3.858,44.6,0,0.769,0,0,0,0, ,0,0,0,0,0, ,-41.5,428.9,900.7,-0.5,-0.5,-1.6,25,-41.4481,429.577,902.415,-0.533516,-0.500594,-1.68096,
2026_07_06_21_38_21.231,3.858,44.6,0,0.77,0,0,0,0, ,0,0,0,0,0, ,-41,430.7,901.8,-0.5,-0.5,-1.7,25,-41.436,429.591,902.344,-0.531474,-0.500558,-1.67907,
2026_07_06_21_38_21.251,3.858,44.6,0,0.771,0,0,0,0, ,0,0,0,0,0, ,-42.1,429.4,901,-0.6,-0.5,-1.6,25,-41.443,429.619,902.287,-0.532603,-0.500524,-1.6773,
2026_07_06_21_38_21.271,3.858,44.6,0,0.769,0,0,0,0, ,0,0,0,0,0, ,-42.6,429.9,901.3,-0.5,-0.5,-1.7,25,-41.4983,429.62,902.217,-0.533663,-0.500492,-1.67564,
2026_07_06_21_38_21.290,3.858,44.6,0,0.77,0,0,0,0, ,0,0,0,0,0, ,-41.2,428.3,901.2,-0.5,-0.5,-1.7,25,-41.5227,429.589,902.158,-0.531612,-0.500462,-1.67712,
2026_07_06_21_38_21.310,3.858,44.6,0,0.77,0,0,0,0, ,0,0,0,0,0, ,-41.5,428.3,902.9,-0.7,-0.5,-1.7,25,-41.5122,429.51,902.152,-0.535779,-0.500434,-1.67851,
2026_07_06_21_38_21.330,3.858,44.6,0,0.77,0,0,0,0, ,0,0,0,0,0, ,-41.7,429.9,902.3,-0.6,-0.5,-1.7,25,-41.5176,429.485,902.179,-0.542739,-0.500407,-1.67982,
2026_07_06_21_38_21.350,3.858,44.6,0,0.77,0,0,0,0, ,0,0,0,0,0, ,-41.5,429.3,901.2,-0.6,-0.5,-1.7,25,-41.5226,429.492,902.153,-0.546229,-0.500382,-1.68105,
2026_07_06_21_38_21.369,3.858,44.7,0,0.77,0,0,0,0, ,0,0,0,0,0, ,-40.7,429,902.2,-0.6,-0.5,-1.7,25,-41.4968,429.471,902.125,-0.549505,-0.500359,-1.68221,
2026_07_06_21_38_21.395,3.858,44.6,0,0.771,0,0,0,0, ,0,0,0,0,0, ,-42.3,429.3,902.8,-0.6,-0.5,-1.7,25,-41.497,429.452,902.148,-0.552582,-0.500337,-1.68329,
2026_07_06_21_38_21.409,3.858,44.6,0,0.772,0,0,0,0, ,0,0,0,0,0, ,-41.2,429.4,903.3,-0.5,-0.5,-1.6,25,-41.5124,429.446,902.203,-0.552425,-0.500317,-1.68126,
2026_07_06_21_38_21.429,3.858,44.7,0,0.769,0,0,0,0, ,0,0,0,0,0, ,-40.5,429.4,902,-0.6,-0.5,-1.7,25,-41.4721,429.443,902.23,-0.552277,-0.500297,-1.67936,
2026_07_06_21_38_21.450,3.858,44.6,0,0.767,0,0,0,0, ,0,0,0,0,0, ,-42.3,428.5,902.2,-0.7,-0.5,-1.6,25,-41.4677,429.413,902.222,-0.558232,-0.500279,-1.67757,
2026_07_06_21_38_21.469,3.858,44.6,0,0.772,0,0,0,0, ,0,0,0,0,0, ,-42.1,429.9,900.8,-0.6,-0.5,-1.7,25,-41.5123,429.4,902.178,-0.563824,-0.500262,-1.67589,
2026_07_06_21_38_21.488,3.858,44.6,0,0.772,0,0,0,0, ,0,0,0,0,0, ,-40.2,430.5,902.8,-0.6,-0.5,-1.7,25,-41.4902,429.449,902.155,-0.566029,-0.500246,-1.67736,
2026_07_06_21_38_21.508,3.858,44.6,0,0.772,0,0,0,0, ,0,0,0,0,0, ,-41.2,429.4,902.4,-0.6,-0.5,-1.8,25,-41.4421,429.479,902.182,-0.568099,-0.500231,-1.68179,
2026_07_06_21_38_21.530,3.858,44.6,0,0.77,0,0,0,0, ,0,0,0,0,0, ,-39.9,430.2,902.3,-0.5,-0.5,-1.6,25,-41.3877,429.499,902.193,-0.566996,-0.500217,-1.6829,
2026_07_06_21_38_21.547,3.858,44.6,0,0.769,0,0,0,0, ,0,0,0,0,0, ,-41.9,429.9,902.5,-0.6,-0.6,-1.7,25,-41.358,429.532,902.205,-0.56596,-0.503251,-1.68089,
2026_07_06_21_38_21.567,3.858,44.6,0,0.77,0,0,0,0, ,0,0,0,0,0, ,-41.6,431.2,901.9,-0.6,-0.5,-1.7,25,-41.3819,429.594,902.205,-0.568035,-0.5061,-1.68206,
2026_07_06_21_38_21.587,3.858,44.6,0,0.771,0,0,0,0, ,0,0,0,0,0, ,-42.6,430.7,902.9,-0.6,-0.5,-1.6,25,-41.4256,429.677,902.217,-0.569983,-0.505728,-1.6801,
2026_07_06_21_38_21.607,3.858,44.5,0,0.771,0,0,0,0, ,0,0,0,0,0, ,-41.2,429.8,902.2,-0.5,-0.5,-1.7,25,-41.4545,429.712,902.237,-0.568765,-0.505379,-1.67827,
2026_07_06_21_38_21.627,3.858,44.5,0,0.771,0,0,0,0, ,0,0,0,0,0, ,-41.9,429.3,902,-0.7,-0.5,-1.6,25,-41.4604,429.702,902.229,-0.570668,-0.505051,-1.67654,
2026_07_06_21_38_21.647,3.858,44.5,0,0.77,0,0,0,0, ,0,0,0,0,0, ,-40.8,429.9,901.1,-0.6,-0.5,-1.7,25,-41.4536,429.696,902.187,-0.575502,-0.504743,-1.67493,
2026_07_06_21_38_21.667,3.858,44.6,0,0.769,0,0,0,0, ,0,0,0,0,0, ,-40.6,430.2,902.7,-0.6,-0.5,-1.7,25,-41.4077,429.717,902.17,-0.576995,-0.504454,-1.67646,
2026_07_06_21_38_21.686,3.858,44.5,0,0.769,0,0,0,0, ,0,0,0,0,0, ,-40.7,428.9,903.1,-0.6,-0.5,-1.6,25,-41.3615,429.707,902.214,-0.578397,-0.504183,-1.67484,
2026_07_06_21_38_21.706,3.858,44.5,0,0.769,0,0,0,0, ,0,0,0,0,0, ,-41.5,430.4,902.4,-0.6,-0.5,-1.6,25,-41.3456,429.704,902.247,-0.579714,-0.503928,-1.67028,
2026_07_06_21_38_21.725,3.858,44.5,0,0.771,0,0,0,0, ,0,0,0,0,0, ,-41.3,429.1,902.3,-0.4,-0.5,-1.7,25,-41.3489,429.706,902.253,-0.574856,-0.503689,-1.66905,
2026_07_06_21_38_21.745,3.858,44.5,0,0.771,0,0,0,0, ,0,0,0,0,0, ,-41.7,429.4,902.9,-0.4,-0.5,-1.7,25,-41.3581,429.679,902.274,-0.564201,-0.503464,-1.67093,
2026_07_06_21_38_21.765,3.858,44.5,0,0.771,0,0,0,0, ,0,0,0,0,0, ,-41.2,428.7,902.8,-0.5,-0.6,-1.6,25,-41.3637,429.64,902.31,-0.557242,-0.5063,-1.66966,
2026_07_06_21_38_21.786,3.858,44.5,0,0.77,0,0,0,0, ,0,0,0,0,0, ,-41.3,429.5,901.7,-0.5,-0.5,-1.7,25,-41.3568,429.607,902.306,-0.553753,-0.508963,-1.66846,
2026_07_06_21_38_21.805,3.858,44.5,0,0.769,0,0,0,0, ,0,0,0,0,0, ,-40.5,429.6,903.3,-0.5,-0.5,-1.7,25,-41.329,429.604,902.318,-0.550478,-0.508416,-1.67038,
2026_07_06_21_38_21.825,3.858,44.5,0,0.771,0,0,0,0, ,0,0,0,0,0, ,-41.5,428.2,901.7,-0.5,-0.5,-1.7,25,-41.3089,429.561,902.329,-0.547402,-0.507904,-1.67219,
2026_07_06_21_38_21.845,3.858,44.5,0,0.772,0,0,0,0, ,0,0,0,0,0, ,-42.2,427.7,902.3,-0.7,-0.5,-1.7,25,-41.3419,429.463,902.309,-0.550607,-0.507422,-1.67388,
2026_07_06_21_38_21.864,3.858,44.5,0,0.77,0,0,0,0, ,0,0,0,0,0, ,-42.3,428.9,902.3,-0.5,-0.5,-1.7,25,-41.3972,429.392,902.308,-0.553617,-0.50697,-1.67547,
2026_07_06_21_38_21.884,3.858,44.5,0,0.77,0,0,0,0, ,0,0,0,0,0, ,-42.2,428.2,901.9,-0.5,-0.5,-1.6,25,-41.4492,429.341,902.296,-0.55035,-0.506545,-1.67392,
2026_07_06_21_38_21.904,3.858,44.6,0,0.77,0,0,0,0, ,0,0,0,0,0, ,-40.5,429.9,901.8,-0.5,-0.5,-1.7,25,-41.4431,429.323,902.268,-0.547281,-0.506146,-1.67246,
2026_07_06_21_38_21.923,3.858,44.5,0,0.767,0,0,0,0, ,0,0,0,0,0, ,-41.5,429.4,902.5,-0.7,-0.5,-1.7,25,-41.4161,429.343,902.261,-0.550494,-0.505772,-1.67414,
2026_07_06_21_38_21.944,3.858,44.5,0,0.77,0,0,0,0, ,0,0,0,0,0, ,-42.3,429.3,903,-0.5,-0.5,-1.7,25,-41.4456,429.343,902.291,-0.553511,-0.50542,-1.67572,
2026_07_06_21_38_21.964,3.858,44.5,0,0.769,0,0,0,0, ,0,0,0,0,0, ,-41.7,429.6,904.5,-0.6,-0.5,-1.7,25,-41.4794,429.35,902.38,-0.553297,-0.50509,-1.6772,
2026_07_06_21_38_21.983,3.858,44.5,0,0.769,0,0,0,0, ,0,0,0,0,0, ,-42.6,429.1,902,-0.6,-0.5,-1.7,25,-41.5203,429.35,902.433,-0.556143,-0.504779,-1.67859,
2026_07_06_21_38_22.003,3.858,44.4,0,0.767,0,0,0,0, ,0,0,0,0,0, ,-41.7,430.6,901.6,-0.5,-0.5,-1.7,25,-41.5586,429.38,902.394,-0.555769,-0.504488,-1.67989,
2026_07_06_21_38_22.023,3.858,44.6,0,0.77,0,0,0,0, ,0,0,0,0,0, ,-40.7,428.5,901.3,-0.5,-0.4,-1.6,25,-41.5368,429.391,902.337,-0.55237,-0.501168,-1.67807,
2026_07_06_21_38_22.042,3.858,44.5,0,0.769,0,0,0,0, ,0,0,0,0,0, ,-40.4,429,902.9,-0.9,-0.6,-1.7,25,-41.4767,429.352,902.322,-0.561366,-0.501097,-1.67636,
2026_07_06_21_38_22.063,3.858,44.5,0,0.769,0,0,0,0, ,0,0,0,0,0, ,-41.6,431.2,903,-0.6,-0.5,-1.7,25,-41.4476,429.397,902.361,-0.572861,-0.504077,-1.6778,
2026_07_06_21_38_22.086,3.858,44.5,0,0.769,0,0,0,0, ,0,0,0,0,0, ,-41.3,428.9,902,-0.4,-0.5,-1.7,25,-41.4478,429.437,902.369,-0.568421,-0.503828,-1.67915,
2026_07_06_21_38_22.104,3.858,44.4,0,0.769,0,0,0,0, ,0,0,0,0,0, ,-42.3,428.9,903,-0.7,-0.5,-1.7,25,-41.4692,429.404,902.377,-0.567299,-0.503595,-1.68042,
2026_07_06_21_38_22.122,3.858,44.5,0,0.77,0,0,0,0, ,0,0,0,0,0, ,-41.2,428.8,901.1,-0.7,-0.5,-1.7,25,-41.4863,429.371,902.357,-0.575385,-0.503376,-1.68162,
2026_07_06_21_38_22.142,3.858,44.4,0,0.77,0,0,0,0, ,0,0,0,0,0, ,-42.1,428.9,902.7,-0.6,-0.5,-1.6,25,-41.4963,429.339,902.329,-0.579932,-0.50317,-1.67969,
2026_07_06_21_38_22.162,3.858,44.5,0,0.769,0,0,0,0, ,0,0,0,0,0, ,-41.5,429.4,902.3,-0.5,-0.5,-1.6,25,-41.5148,429.327,902.34,-0.578108,-0.502977,-1.67483,
2026_07_06_21_38_22.182,3.858,44.5,0,0.772,0,0,0,0, ,0,0,0,0,0, ,-41,429.1,902.2,-0.6,-0.6,-1.6,25,-41.4987,429.323,902.334,-0.576395,-0.505842,-1.67027,
2026_07_06_21_38_22.201,3.858,44.4,0,0.771,0,0,0,0, ,0,0,0,0,0, ,-39.6,431.7,904.2,-0.7,-0.5,-1.6,25,-41.4256,429.388,902.387,-0.58088,-0.508533,-1.66599,
2026_07_06_21_38_22.227,3.858,44.5,0,0.77,0,0,0,0, ,0,0,0,0,0, ,-40.6,429.3,899.7,-0.5,-0.5,-1.7,25,-41.3449,429.456,902.36,-0.582046,-0.508013,-1.66502,
2026_07_06_21_38_22.241,3.858,44.4,0,0.771,0,0,0,0, ,0,0,0,0,0, ,-41.3,429.6,902.2,-0.5,-0.5,-1.7,25,-41.3208,429.456,902.274,-0.577046,-0.507525,-1.66715,
2026_07_06_21_38_22.261,3.858,44.5,0,0.772,0,0,0,0, ,0,0,0,0,0, ,-41.1,428.5,902.5,-0.7,-0.5,-1.6,25,-41.3134,429.431,902.279,-0.578445,-0.507066,-1.6661,
2026_07_06_21_38_22.281,3.858,44.4,0,0.771,0,0,0,0, ,0,0,0,0,0, ,-41.5,430.2,901.9,-0.7,-0.5,-1.6,25,-41.3126,429.426,902.274,-0.585852,-0.506636,-1.66208,
2026_07_06_21_38_22.300,3.858,44.5,0,0.77,0,0,0,0, ,0,0,0,0,0, ,-40.8,430.4,902,-0.5,-0.5,-1.7,25,-41.3027,429.479,902.254,-0.586714,-0.506231,-1.66134,
2026_07_06_21_38_22.319,3.858,44.4,0,0.769,0,0,0,0, ,0,0,0,0,0, ,-40.4,430,902.4,-0.5,-0.5,-1.7,25,-41.2599,429.523,902.251,-0.58143,-0.505852,-1.6637,
2026_07_06_21_38_22.340,3.858,44.4,0,0.769,0,0,0,0, ,0,0,0,0,0, ,-41.2,429.6,902.5,-0.7,-0.6,-1.6,25,-41.2319,429.54,902.263,-0.582562,-0.508542,-1.66286,
2026_07_06_21_38_22.359,3.858,44.4,0,0.77,0,0,0,0, ,0,0,0,0,0, ,-40.4,427.6,903.5,-0.7,-0.5,-1.7,25,-41.2055,429.483,902.308,-0.589718,-0.511068,-1.66208,
2026_07_06_21_38_22.379,3.858,44.4,0,0.77,0,0,0,0, ,0,0,0,0,0, ,-42.1,430.5,901.1,-0.5,-0.5,-1.8,25,-41.2082,429.456,902.308,-0.590345,-0.510394,-1.66743,
2026_07_06_21_38_22.400,3.858,44.4,0,0.769,0,0,0,0, ,0,0,0,0,0, ,-40.7,428.8,902.2,-0.4,-0.6,-1.7,25,-41.2199,429.468,902.268,-0.581792,-0.512807,-1.67247,
2026_07_06_21_38_22.419,3.858,44.4,0,0.77,0,0,0,0, ,0,0,0,0,0, ,-40.2,430.1,902.9,-0.6,-0.5,-1.8,25,-41.173,429.467,902.285,-0.576808,-0.515074,-1.67719,
2026_07_06_21_38_22.439,3.858,44.4,0,0.769,0,0,0,0, ,0,0,0,0,0, ,-41.6,431.2,902.5,-0.7,-0.5,-1.6,25,-41.1564,429.539,902.31,-0.581268,-0.514155,-1.67858,
2026_07_06_21_38_22.458,3.858,44.4,0,0.77,0,0,0,0, ,0,0,0,0,0, ,-41.8,430.5,903,-0.6,-0.5,-1.7,25,-41.1895,429.619,902.337,-0.585457,-0.513293,-1.67684,
2026_07_06_21_38_22.478,3.858,44.4,0,0.772,0,0,0,0, ,0,0,0,0,0, ,-41.3,429.5,901.7,-0.5,-0.5,-1.7,25,-41.2115,429.642,902.338,-0.583296,-0.512483,-1.67825,
2026_07_06_21_38_22.498,3.858,44.4,0,0.771,0,0,0,0, ,0,0,0,0,0, ,-41.8,429.5,902.7,-0.5,-0.5,-1.7,25,-41.2321,429.634,902.329,-0.57822,-0.511722,-1.67958,
2026_07_06_21_38_22.518,3.858,44.4,0,0.769,0,0,0,0, ,0,0,0,0,0, ,-41.7,429.1,901.1,-0.4,-0.5,-1.7,25,-41.2637,429.613,902.303,-0.570407,-0.511008,-1.68082,
2026_07_06_21_38_22.539,3.858,44.4,0,0.768,0,0,0,0, ,0,0,0,0,0, ,-41.3,429.3,901.3,-0.5,-0.5,-1.7,25,-41.2781,429.588,902.236,-0.563069,-0.510337,-1.68199,
2026_07_06_21_38_22.558,3.858,44.4,0,0.771,0,0,0,0, ,0,0,0,0,0, ,-41,430,903.9,-0.5,-0.5,-1.6,25,-41.2703,429.592,902.258,-0.559226,-0.509707,-1.68004,
2026_07_06_21_38_22.577,3.858,44.4,0,0.771,0,0,0,0, ,0,0,0,0,0, ,-40.8,429,901.8,-0.5,-0.5,-1.7,25,-41.2477,429.586,902.294,-0.555617,-0.509115,-1.67821,
2026_07_06_21_38_22.597,3.858,44.4,0,0.771,0,0,0,0, ,0,0,0,0,0, ,-40.7,428.5,902.9,-0.5,-0.5,-1.7,25,-41.2174,429.535,902.298,-0.552228,-0.50856,-1.67954,
2026_07_06_21_38_22.617,3.858,44.3,0,0.77,0,0,0,0, ,0,0,0,0,0, ,-41,430.5,901.7,-0.5,-0.5,-1.7,25,-41.195,429.533,902.298,-0.549045,-0.508038,-1.68078,
2026_07_06_21_38_22.637,3.858,44.4,0,0.769,0,0,0,0, ,0,0,0,0,0, ,-40.2,428.7,902.2,-0.5,-0.5,-1.6,25,-41.1587,429.537,902.277,-0.546057,-0.507549,-1.67891,
2026_07_06_21_38_22.657,3.858,44.3,0,0.769,0,0,0,0, ,0,0,0,0,0, ,-42.6,428.1,902,-0.5,-0.5,-1.7,25,-41.1734,429.468,902.266,-0.54325,-0.507089,-1.67715,
2026_07_06_21_38_22.676,3.858,44.4,0,0.769,0,0,0,0, ,0,0,0,0,0, ,-41.9,428.9,902.5,-0.6,-0.5,-1.8,25,-41.239,429.409,902.265,-0.543661,-0.506657,-1.68159,
2026_07_06_21_38_22.696,3.858,44.3,0,0.77,0,0,0,0, ,0,0,0,0,0, ,-41.3,429.3,902.7,-0.5,-0.5,-1.7,25,-41.261,429.39,902.285,-0.544048,-0.506251,-1.68576,
2026_07_06_21_38_22.716,3.858,44.4,0,0.769,0,0,0,0, ,0,0,0,0,0, ,-40.4,429.1,901.3,-0.5,-0.5,-1.6,25,-41.236,429.379,902.268,-0.541363,-0.50587,-1.68358,
2026_07_06_21_38_22.735,3.858,44.3,0,0.769,0,0,0,0, ,0,0,0,0,0, ,-41.7,429.5,902.2,-0.5,-0.5,-1.7,25,-41.2246,429.374,902.236,-0.538843,-0.505512,-1.68153,
2026_07_06_21_38_22.755,3.858,44.3,0,0.769,0,0,0,0, ,0,0,0,0,0, ,-40.6,430.7,903.9,-0.5,-0.5,-1.7,25,-41.2201,429.418,902.286,-0.536476,-0.505176,-1.68266,
2026_07_06_21_38_22.775,3.858,44.3,0,0.772,0,0,0,0, ,0,0,0,0,0, ,-40.8,429.1,901.7,-0.5,-0.5,-1.6,25,-41.1884,429.447,902.317,-0.534253,-0.504861,-1.68067,
2026_07_06_21_38_22.795,3.858,44.3,0,0.77,0,0,0,0, ,0,0,0,0,0, ,-41.9,428.3,903.1,-0.5,-0.6,-1.7,25,-41.1983,429.402,902.322,-0.532166,-0.507612,-1.6788,
2026_07_06_21_38_22.815,3.858,44.4,0,0.769,0,0,0,0, ,0,0,0,0,0, ,-41.7,429.8,902.4,-0.6,-0.6,-1.6,25,-41.2349,429.38,902.348,-0.533253,-0.513242,-1.67704,
2026_07_06_21_38_22.835,3.858,44.3,0,0.77,0,0,0,0, ,0,0,0,0,0, ,-42.2,429.1,902.5,-0.5,-0.5,-1.6,25,-41.2785,429.385,902.355,-0.534273,-0.515482,-1.67235,
2026_07_06_21_38_22.854,3.858,44.3,0,0.77,0,0,0,0, ,0,0,0,0,0, ,-41.1,428.5,902.7,-0.5,-0.5,-1.7,25,-41.3011,429.349,902.369,-0.532185,-0.514538,-1.67099,
2026_07_06_21_38_22.874,3.858,44.3,0,0.77,0,0,0,0, ,0,0,0,0,0, ,-41.5,429.1,902.5,-0.5,-0.5,-1.7,25,-41.3011,429.316,902.384,-0.530223,-0.513652,-1.67275,
2026_07_06_21_38_22.899,3.858,44.3,0,0.771,0,0,0,0, ,0,0,0,0,0, ,-40.4,430.6,901.6,-0.4,-0.6,-1.7,25,-41.2797,429.348,902.363,-0.525335,-0.515867,-1.67441,
2026_07_06_21_38_22.914,3.858,44.4,0,0.771,0,0,0,0, ,0,0,0,0,0, ,-41.8,429.8,902.7,-0.5,-0.5,-1.7,25,-41.2687,429.4,902.35,-0.520744,-0.517947,-1.67597,
2026_07_06_21_38_22.934,3.858,44.5,0,0.769,0,0,0,0, ,0,0,0,0,0, ,-41.6,428.8,903.4,-0.5,-0.5,-1.7,25,-41.295,429.394,902.393,-0.51948,-0.516853,-1.67744,
2026_07_06_21_38_22.954,3.858,44.3,0,0.771,0,0,0,0, ,0,0,0,0,0, ,-41.2,429.6,904,-0.7,-0.6,-1.6,25,-41.3014,429.382,902.473,-0.524387,-0.518873,-1.67577,
2026_07_06_21_38_22.973,3.858,44.2,0,0.772,0,0,0,0, ,0,0,0,0,0, ,-41.3,430,901.7,-0.5,-0.5,-1.7,25,-41.2983,429.408,902.496,-0.528994,-0.52077,-1.6742,
2026_07_06_21_38_22.993,3.858,44.3,0,0.771,0,0,0,0, ,0,0,0,0,0, ,-41.1,428.7,902.5,-0.4,-0.5,-1.7,25,-41.2923,429.404,902.471,-0.524181,-0.519504,-1.67577,
2026_07_06_21_38_23.013,3.858,44.3,0,0.771,0,0,0,0, ,0,0,0,0,0, ,-41.1,429,901.9,-0.5,-0.5,-1.7,25,-41.2806,429.37,902.455,-0.51966,-0.518316,-1.67724,
2026_07_06_21_38_23.032,3.858,44.3,0,0.769,0,0,0,0, ,0,0,0,0,0, ,-41.1,428.5,903.3,-0.7,-0.5,-1.7,25,-41.2696,429.333,902.464,-0.524556,-0.5172,-1.67863,
2026_07_06_21_38_23.052,3.858,44.3,0,0.771,0,0,0,0, ,0,0,0,0,0, ,-40.6,429.8,902,-0.5,-0.5,-1.7,25,-41.244,429.321,902.475,-0.529153,-0.516152,-1.67993,
2026_07_06_21_38_23.073,3.858,44.2,0,0.772,0,0,0,0, ,0,0,0,0,0, ,-40.2,428.3,901.3,-0.6,-0.5,-1.7,25,-41.1926,429.305,902.425,-0.530424,-0.515167,-1.68116,
2026_07_06_21_38_23.092,3.858,44.2,0,0.773,0,0,0,0, ,0,0,0,0,0, ,-41.6,430.5,903.5,-0.6,-0.5,-1.7,25,-41.1747,429.311,902.423,-0.534663,-0.514243,-1.6823,
2026_07_06_21_38_23.113,3.858,44.4,0,0.769,0,0,0,0, ,0,0,0,0,0, ,-40.8,428.2,901.6,-0.5,-0.4,-1.7,25,-41.1763,429.313,902.431,-0.535598,-0.510328,-1.68338,
2026_07_06_21_38_23.132,3.858,44.3,0,0.767,0,0,0,0, ,0,0,0,0,0, ,-41.3,429.4,902.7,-0.7,-0.6,-1.7,25,-41.1686,429.282,902.414,-0.539523,-0.509699,-1.6844,
2026_07_06_21_38_23.152,3.858,44.2,0,0.769,0,0,0,0, ,0,0,0,0,0, ,-40.8,429.5,902.5,-0.5,-0.5,-1.7,25,-41.1614,429.292,902.425,-0.543208,-0.512155,-1.68535,
2026_07_06_21_38_23.173,3.858,44.4,0,0.769,0,0,0,0, ,0,0,0,0,0, ,-40.8,429.5,902.3,-0.5,-0.5,-1.7,25,-41.1393,429.305,902.424,-0.540575,-0.511414,-1.68624,
2026_07_06_21_38_23.191,3.858,44.2,0,0.769,0,0,0,0, ,0,0,0,0,0, ,-40.5,430.7,903.5,-0.7,-0.5,-1.8,25,-41.1095,429.353,902.453,-0.544196,-0.510719,-1.69012,
2026_07_06_21_38_23.211,3.858,44.2,0,0.771,0,0,0,0, ,0,0,0,0,0, ,-41.6,430,902,-0.5,-0.5,-1.7,25,-41.1059,429.414,902.471,-0.547597,-0.510065,-1.69377,
2026_07_06_21_38_23.231,3.858,44.3,0,0.769,0,0,0,0, ,0,0,0,0,0, ,-42.8,431.1,902.9,-0.6,-0.5,-1.6,25,-41.1726,429.483,902.47,-0.547743,-0.509452,-1.69111,
2026_07_06_21_38_23.251,3.858,44.2,0,0.769,0,0,0,0, ,0,0,0,0,0, ,-42.1,431,902.3,-0.6,-0.5,-1.7,25,-41.2504,429.579,902.478,-0.550928,-0.508876,-1.6886,
2026_07_06_21_38_23.270,3.858,44.4,0,0.771,0,0,0,0, ,0,0,0,0,0, ,-41.7,429.6,901.6,-0.3,-0.5,-1.7,25,-41.29,429.623,902.445,-0.544777,-0.508335,-1.6893,
2026_07_06_21_38_23.290,3.858,44.4,0,0.772,0,0,0,0, ,0,0,0,0,0, ,-42.3,428.2,903.1,-0.6,-0.5,-1.8,25,-41.3333,429.579,902.44,-0.539002,-0.507827,-1.69299,
2026_07_06_21_38_23.310,3.858,44.3,0,0.769,0,0,0,0, ,0,0,0,0,0, ,-41.5,430.4,903,-0.7,-0.5,-1.6,25,-41.3678,429.562,902.477,-0.545766,-0.50735,-1.69342,
2026_07_06_21_38_23.329,3.858,44.2,0,0.77,0,0,0,0, ,0,0,0,0,0, ,-41.6,430.4,902.3,-0.4,-0.5,-1.7,25,-41.3789,429.613,902.487,-0.546024,-0.506902,-1.69078,
2026_07_06_21_38_23.349,3.858,44.2,0,0.771,0,0,0,0, ,0,0,0,0,0, ,-41.6,428.9,902.5,-0.6,-0.5,-1.6,25,-41.3924,429.615,902.482,-0.543219,-0.506482,-1.68829,
2026_07_06_21_38_23.369,3.858,44.2,0,0.771,0,0,0,0, ,0,0,0,0,0, ,-42.3,429,903.3,-0.5,-0.5,-1.7,25,-41.4263,429.574,902.507,-0.543632,-0.506087,-1.68596,
2026_07_06_21_38_23.389,3.858,44.2,0,0.769,0,0,0,0, ,0,0,0,0,0, ,-42.1,429.5,903,-0.4,-0.6,-1.6,25,-41.4735,429.555,902.547,-0.537927,-0.508763,-1.68377,
2026_07_06_21_38_23.409,3.858,44.2,0,0.769,0,0,0,0, ,0,0,0,0,0, ,-42.1,429.9,902.8,-0.5,-0.5,-1.6,25,-41.5117,429.564,902.568,-0.532569,-0.511276,-1.67866,
2026_07_06_21_38_23.436,3.858,44.1,0,0.769,0,0,0,0, ,0,0,0,0,0, ,-40.7,430.6,903.8,-0.5,-0.5,-1.6,25,-41.5049,429.605,902.613,-0.530584,-0.510589,-1.67387,
2026_07_06_21_38_23.449,3.858,44.2,0,0.77,0,0,0,0, ,0,0,0,0,0, ,-40.4,429.5,903.3,-0.4,-0.5,-1.7,25,-41.4467,429.632,902.67,-0.525673,-0.509943,-1.67241,
2026_07_06_21_38_23.469,3.858,44.3,0,0.769,0,0,0,0, ,0,0,0,0,0, ,-40,427.8,902.9,-0.5,-0.5,-1.6,25,-41.3707,429.573,902.696,-0.521062,-0.509337,-1.67105,
2026_07_06_21_38_23.488,3.858,44.2,0,0.77,0,0,0,0, ,0,0,0,0,0, ,-39.9,429.9,902.2,-0.6,-0.5,-1.7,25,-41.2841,429.529,902.687,-0.522825,-0.508768,-1.66977,
2026_07_06_21_38_23.508,3.858,44.2,0,0.769,0,0,0,0, ,0,0,0,0,0, ,-42.2,430.4,903.3,-0.5,-0.5,-1.7,25,-41.2699,429.566,902.691,-0.524481,-0.508234,-1.67161,
2026_07_06_21_38_23.528,3.858,44.3,0,0.769,0,0,0,0, ,0,0,0,0,0, ,-41,429.1,901.6,-0.4,-0.5,-1.6,25,-41.29,429.578,902.676,-0.519943,-0.507732,-1.67029,
2026_07_06_21_38_23.547,3.858,44.3,0,0.77,0,0,0,0, ,0,0,0,0,0, ,-41.5,429,903.8,-0.5,-0.5,-1.7,25,-41.2875,429.545,902.678,-0.515681,-0.507261,-1.66905,
2026_07_06_21_38_23.567,3.858,44.1,0,0.769,0,0,0,0, ,0,0,0,0,0, ,-41.7,430.1,902.8,-0.5,-0.5,-1.7,25,-41.3066,429.546,902.716,-0.514725,-0.506819,-1.67094,
2026_07_06_21_38_23.587,3.858,44.2,0,0.773,0,0,0,0, ,0,0,0,0,0, ,-41.3,429.4,901.3,-0.4,-0.6,-1.7,25,-41.3184,429.558,902.675,-0.510781,-0.50945,-1.67271,
2026_07_06_21_38_23.608,3.858,44.2,0,0.77,0,0,0,0, ,0,0,0,0,0, ,-41.1,429.3,903.9,-0.5,-0.5,-1.7,25,-41.3112,429.545,902.671,-0.507077,-0.511921,-1.67437,
2026_07_06_21_38_23.627,3.858,44.2,0,0.77,0,0,0,0, ,0,0,0,0,0, ,-41.2,428.7,902.8,-0.6,-0.5,-1.7,25,-41.3013,429.512,902.712,-0.509693,-0.511195,-1.67594,
2026_07_06_21_38_23.647,3.858,44.2,0,0.769,0,0,0,0, ,0,0,0,0,0, ,-40.4,429.1,902.3,-0.4,-0.5,-1.6,25,-41.2708,429.475,902.702,-0.509102,-0.510512,-1.67436,
2026_07_06_21_38_23.666,3.858,44.1,0,0.771,0,0,0,0, ,0,0,0,0,0, ,-42.4,429.8,901.8,-0.4,-0.5,-1.7,25,-41.2787,429.473,902.662,-0.502454,-0.509872,-1.67287,
2026_07_06_21_38_23.687,3.858,44.2,0,0.771,0,0,0,0, ,0,0,0,0,0, ,-41.3,429.4,903,-0.6,-0.5,-1.7,25,-41.3135,429.481,902.646,-0.502304,-0.50927,-1.67452,
2026_07_06_21_38_23.706,3.858,44.1,0,0.77,0,0,0,0, ,0,0,0,0,0, ,-42.6,428.8,901.3,-0.6,-0.5,-1.6,25,-41.3523,429.458,902.616,-0.508257,-0.508705,-1.67303,
2026_07_06_21_38_23.726,3.858,44.2,0,0.769,0,0,0,0, ,0,0,0,0,0, ,-42.2,429.5,902.2,-0.4,-0.6,-1.7,25,-41.4161,429.439,902.563,-0.507754,-0.511222,-1.67163,
2026_07_06_21_38_23.746,3.858,44.1,0,0.769,0,0,0,0, ,0,0,0,0,0, ,-41.8,429.5,901.2,-0.4,-0.4,-1.7,25,-41.4517,429.443,902.511,-0.501188,-0.510538,-1.67336,
2026_07_06_21_38_23.765,3.858,44.1,0,0.772,0,0,0,0, ,0,0,0,0,0, ,-40.6,429.1,902.2,-0.5,-0.5,-1.7,25,-41.4364,429.434,902.461,-0.498069,-0.506849,-1.67498,
2026_07_06_21_38_23.785,3.858,44.1,0,0.771,0,0,0,0, ,0,0,0,0,0, ,-42.1,430.5,902,-0.5,-0.5,-1.7,25,-41.4311,429.456,902.439,-0.498186,-0.506432,-1.6765,
2026_07_06_21_38_23.806,3.858,44.1,0,0.77,0,0,0,0, ,0,0,0,0,0, ,-41.3,428.5,901.8,-0.4,-0.5,-1.7,25,-41.4475,429.459,902.406,-0.49525,-0.50604,-1.67794,
2026_07_06_21_38_23.825,3.858,44.2,0,0.769,0,0,0,0, ,0,0,0,0,0, ,-42.3,429.4,902,-0.5,-0.6,-1.6,25,-41.469,429.428,902.376,-0.492493,-0.508718,-1.67623,
2026_07_06_21_38_23.852,3.858,44.1,0,0.769,0,0,0,0, ,0,0,0,0,0, ,-41.3,429.4,902.7,-0.5,-0.6,-1.7,25,-41.4891,429.426,902.374,-0.49295,-0.514281,-1.67463,
2026_07_06_21_38_23.865,3.858,44.2,0,0.769,0,0,0,0, ,0,0,0,0,0, ,-41.9,428.9,903.1,-0.5,-0.5,-1.7,25,-41.4959,429.41,902.406,-0.49338,-0.516458,-1.67618,
2026_07_06_21_38_23.885,3.858,44.2,0,0.77,0,0,0,0, ,0,0,0,0,0, ,-42.8,429.6,903.4,-0.5,-0.5,-1.6,25,-41.5479,429.4,902.457,-0.493783,-0.515455,-1.67459,
2026_07_06_21_38_23.904,3.858,44.3,0,0.769,0,0,0,0, ,0,0,0,0,0, ,-41.3,429.3,903.6,-0.6,-0.5,-1.7,25,-41.5785,429.403,902.521,-0.497209,-0.514513,-1.67309,
2026_07_06_21_38_23.924,3.858,44.2,0,0.769,0,0,0,0, ,0,0,0,0,0, ,-42.1,429.6,903.5,-0.6,-0.5,-1.8,25,-41.5859,429.406,902.584,-0.503473,-0.513629,-1.67777,
2026_07_06_21_38_23.943,3.858,44.1,0,0.771,0,0,0,0, ,0,0,0,0,0, ,-42.3,429.3,901.6,-0.5,-0.4,-1.7,25,-41.6234,429.408,902.582,-0.506308,-0.509751,-1.68218,
2026_07_06_21_38_23.963,3.858,44.2,0,0.769,0,0,0,0, ,0,0,0,0,0, ,-41.8,429.9,901.3,-0.6,-0.5,-1.6,25,-41.6494,429.42,902.513,-0.50897,-0.50611,-1.68021,
2026_07_06_21_38_23.983,3.858,44.2,0,0.77,0,0,0,0, ,0,0,0,0,0, ,-40.8,429.5,901.1,-0.6,-0.5,-1.6,25,-41.6281,429.437,902.433,-0.514518,-0.505738,-1.67533,
2026_07_06_21_38_24.003,3.858,44.1,0,0.769,0,0,0,0, ,0,0,0,0,0, ,-41.5,430.4,902.8,-0.5,-0.5,-1.8,25,-41.5989,429.468,902.403,-0.51668,-0.505388,-1.67683,
2026_07_06_21_38_24.023,3.858,44.1,0,0.769,0,0,0,0, ,0,0,0,0,0, ,-42.4,430,902.3,-0.5,-0.5,-1.6,25,-41.6203,429.513,902.412,-0.515663,-0.50506,-1.67824,
2026_07_06_21_38_24.043,3.858,44.2,0,0.769,0,0,0,0, ,0,0,0,0,0, ,-40.7,430,902.9,-0.6,-0.5,-1.7,25,-41.616,429.543,902.424,-0.517756,-0.504751,-1.67652,
2026_07_06_21_38_24.062,3.858,44.1,0,0.769,0,0,0,0, ,0,0,0,0,0, ,-40.1,429.9,901.2,-0.5,-0.5,-1.6,25,-41.5419,429.567,902.401,-0.519721,-0.504462,-1.6749,
2026_07_06_21_38_24.082,3.858,44,0,0.769,0,0,0,0, ,0,0,0,0,0, ,-41.7,429.5,901.9,-0.7,-0.5,-1.7,25,-41.5028,429.576,902.349,-0.524613,-0.50419,-1.67339,
2026_07_06_21_38_24.102,3.858,44,0,0.769,0,0,0,0, ,0,0,0,0,0, ,-41.1,430.1,901.6,-0.5,-0.5,-1.7,25,-41.4966,429.589,902.313,-0.529207,-0.503935,-1.67501,
2026_07_06_21_38_24.122,3.858,44.2,0,0.772,0,0,0,0, ,0,0,0,0,0, ,-41,427.6,902.4,-0.4,-0.6,-1.6,25,-41.4693,429.544,902.294,-0.52438,-0.506742,-1.67348,
2026_07_06_21_38_24.141,3.858,44.2,0,0.77,0,0,0,0, ,0,0,0,0,0, ,-40.8,429,902.9,-0.8,-0.5,-1.7,25,-41.4346,429.468,902.315,-0.528988,-0.509378,-1.67205,
2026_07_06_21_38_24.162,3.858,44.1,0,0.769,0,0,0,0, ,0,0,0,0,0, ,-40.7,431.1,901.8,-0.8,-0.5,-1.6,25,-41.3929,429.504,902.317,-0.545503,-0.508806,-1.67071,
2026_07_06_21_38_24.182,3.858,44.1,0,0.769,0,0,0,0, ,0,0,0,0,0, ,-41.8,431.1,901.9,-0.3,-0.5,-1.7,25,-41.3842,429.601,902.289,-0.545777,-0.50827,-1.66945,
2026_07_06_21_38_24.201,3.858,44.1,0,0.769,0,0,0,0, ,0,0,0,0,0, ,-40.8,429.1,902.7,-0.5,-0.6,-1.7,25,-41.3791,429.631,902.29,-0.536894,-0.510813,-1.67131,
2026_07_06_21_38_24.221,3.858,44,0,0.77,0,0,0,0, ,0,0,0,0,0, ,-41.7,430,903.6,-0.6,-0.5,-1.7,25,-41.3712,429.627,902.342,-0.537692,-0.513201,-1.67306,
2026_07_06_21_38_24.241,3.858,44.1,0,0.77,0,0,0,0, ,0,0,0,0,0, ,-41.7,428.3,902.4,-0.5,-0.5,-1.7,25,-41.3913,429.597,902.382,-0.538442,-0.512396,-1.6747,
2026_07_06_21_38_24.261,3.858,44,0,0.769,0,0,0,0, ,0,0,0,0,0, ,-41.2,429.8,904.2,-0.6,-0.5,-1.7,25,-41.3948,429.564,902.438,-0.539147,-0.511641,-1.67624,
2026_07_06_21_38_24.280,3.858,44.1,0,0.768,0,0,0,0, ,0,0,0,0,0, ,-41.2,430.5,903.4,-0.5,-0.5,-1.6,25,-41.383,429.6,902.521,-0.539808,-0.510931,-1.67464,
2026_07_06_21_38_24.300,3.858,44.1,0,0.771,0,0,0,0, ,0,0,0,0,0, ,-41.5,429.3,903.6,-0.6,-0.5,-1.7,25,-41.381,429.618,902.581,-0.540429,-0.510265,-1.67314,
2026_07_06_21_38_24.319,3.858,44,0,0.77,0,0,0,0, ,0,0,0,0,0, ,-42.4,431,904.5,-0.7,-0.5,-1.8,25,-41.4156,429.651,902.67,-0.547106,-0.50964,-1.67782,
2026_07_06_21_38_24.339,3.858,44.1,0,0.77,0,0,0,0, ,0,0,0,0,0, ,-42.1,430.5,901.8,-0.4,-0.5,-1.7,25,-41.4665,429.718,902.699,-0.547282,-0.509052,-1.68222,
2026_07_06_21_38_24.359,3.858,44.2,0,0.769,0,0,0,0, ,0,0,0,0,0, ,-40.6,428.5,903.8,-0.5,-0.5,-1.7,25,-41.4594,429.704,902.706,-0.541354,-0.508501,-1.68331,
2026_07_06_21_38_24.380,3.858,44,0,0.769,0,0,0,0, ,0,0,0,0,0, ,-40.6,429.5,901.7,-0.7,-0.5,-1.8,25,-41.407,429.661,902.708,-0.544928,-0.507983,-1.68737,
2026_07_06_21_38_24.405,3.858,44.1,0,0.77,0,0,0,0, ,0,0,0,0,0, ,-41.9,431.1,902.2,-0.5,-0.5,-1.7,25,-41.3974,429.7,902.662,-0.548284,-0.507496,-1.69119,
2026_07_06_21_38_24.418,3.858,44.1,0,0.77,0,0,0,0, ,0,0,0,0,0, ,-40.1,429.1,903.3,-0.5,-0.5,-1.7,25,-41.3732,429.725,902.667,-0.545342,-0.507039,-1.69172,
2026_07_06_21_38_24.439,3.858,44,0,0.771,0,0,0,0, ,0,0,0,0,0, ,-41,430.1,902,-0.6,-0.5,-1.6,25,-41.3231,429.717,902.666,-0.545625,-0.506611,-1.68918,
2026_07_06_21_38_24.459,3.858,44,0,0.77,0,0,0,0, ,0,0,0,0,0, ,-41.3,428.3,902.2,-0.6,-0.6,-1.6,25,-41.3125,429.686,902.632,-0.548939,-0.509255,-1.68375,
2026_07_06_21_38_24.478,3.858,44,0,0.771,0,0,0,0, ,0,0,0,0,0, ,-42.6,429.5,903.3,-0.6,-0.5,-1.7,25,-41.3514,429.638,902.639,-0.55205,-0.511737,-1.68169,
2026_07_06_21_38_24.498,3.858,44,0,0.771,0,0,0,0, ,0,0,0,0,0, ,-41.7,430.2,902.4,-0.5,-0.5,-1.8,25,-41.4,429.651,902.652,-0.551925,-0.511022,-1.68585,
2026_07_06_21_38_24.517,3.858,44,0,0.769,0,0,0,0, ,0,0,0,0,0, ,-41.1,430.1,901.9,-0.5,-0.5,-1.6,25,-41.4,429.681,902.621,-0.548761,-0.510351,-1.68671,
2026_07_06_21_38_24.539,3.858,44,0,0.769,0,0,0,0, ,0,0,0,0,0, ,-39.5,430,903,-0.5,-0.6,-1.6,25,-41.333,429.704,902.611,-0.54579,-0.512767,-1.68143,
2026_07_06_21_38_24.557,3.858,44,0,0.771,0,0,0,0, ,0,0,0,0,0, ,-42.4,429.8,902.9,-0.7,-0.5,-1.7,25,-41.3097,429.715,902.632,-0.549093,-0.515036,-1.67952,
2026_07_06_21_38_24.578,3.858,44,0,0.771,0,0,0,0, ,0,0,0,0,0, ,-40.7,429.5,903.1,-0.5,-0.5,-1.6,25,-41.3243,429.711,902.654,-0.552195,-0.514119,-1.67772,
2026_07_06_21_38_24.597,3.858,44.1,0,0.771,0,0,0,0, ,0,0,0,0,0, ,-41.2,428.9,901.9,-0.6,-0.5,-1.7,25,-41.3015,429.68,902.645,-0.552062,-0.513259,-1.67603,
2026_07_06_21_38_24.616,3.858,44,0,0.769,0,0,0,0, ,0,0,0,0,0, ,-41.8,429,902.2,-0.5,-0.4,-1.6,25,-41.3136,429.636,902.608,-0.551936,-0.509404,-1.67444,
2026_07_06_21_38_24.636,3.858,44,0,0.769,0,0,0,0, ,0,0,0,0,0, ,-41,428.7,901.9,-0.4,-0.5,-1.7,25,-41.3189,429.588,902.574,-0.545724,-0.505784,-1.67295,
2026_07_06_21_38_24.656,3.858,44,0,0.769,0,0,0,0, ,0,0,0,0,0, ,-42.2,430.1,903.5,-0.5,-0.5,-1.7,25,-41.336,429.576,902.582,-0.539891,-0.505432,-1.6746,
2026_07_06_21_38_24.679,3.858,44.1,0,0.769,0,0,0,0, ,0,0,0,0,0, ,-41.6,430.2,902.7,-0.5,-0.5,-1.7,25,-41.3704,429.611,902.614,-0.53746,-0.505101,-1.67615,
2026_07_06_21_38_24.697,3.858,44,0,0.772,0,0,0,0, ,0,0,0,0,0, ,-41.6,429.6,902,-0.6,-0.5,-1.6,25,-41.3843,429.629,902.598,-0.538224,-0.50479,-1.67455,
2026_07_06_21_38_24.716,3.858,44,0,0.77,0,0,0,0, ,0,0,0,0,0, ,-41.8,429.4,902.2,-0.5,-0.5,-1.7,25,-41.4036,429.621,902.567,-0.538942,-0.504498,-1.67306,
2026_07_06_21_38_24.736,3.858,44.1,0,0.769,0,0,0,0, ,0,0,0,0,0, ,-40.4,427.7,901.7,-0.4,-0.5,-1.7,25,-41.3851,429.556,902.53,-0.533522,-0.504224,-1.6747,
2026_07_06_21_38_24.756,3.858,44,0,0.77,0,0,0,0, ,0,0,0,0,0, ,-42.8,429,901.3,-0.6,-0.5,-1.7,25,-41.3982,429.482,902.467,-0.531479,-0.503967,-1.67624,
2026_07_06_21_38_24.776,3.858,44,0,0.769,0,0,0,0, ,0,0,0,0,0, ,-41.3,429.5,902.5,-0.5,-0.5,-1.7,25,-41.4379,429.468,902.432,-0.532608,-0.503725,-1.67769,
2026_07_06_21_38_24.795,3.858,44,0,0.768,0,0,0,0, ,0,0,0,0,0, ,-41.8,427.8,903.1,-0.5,-0.5,-1.7,25,-41.4447,429.418,902.455,-0.530621,-0.503498,-1.67905,
2026_07_06_21_38_24.814,3.858,44,0,0.77,0,0,0,0, ,0,0,0,0,0, ,-41.5,428.3,902.4,-0.4,-0.5,-1.7,25,-41.4572,429.335,902.473,-0.525708,-0.503285,-1.68033,
2026_07_06_21_38_24.834,3.858,44,0,0.769,0,0,0,0, ,0,0,0,0,0, ,-41.7,428.9,902.7,-0.5,-0.5,-1.7,25,-41.4659,429.29,902.477,-0.521095,-0.503085,-1.68152,
2026_07_06_21_38_24.854,3.858,43.9,0,0.769,0,0,0,0, ,0,0,0,0,0, ,-43.5,429.3,902,-0.5,-0.5,-1.7,25,-41.535,429.279,902.47,-0.519809,-0.502897,-1.68265,
2026_07_06_21_38_24.874,3.858,44,0,0.769,0,0,0,0, ,0,0,0,0,0, ,-42.1,429.8,901,-0.4,-0.5,-1.7,25,-41.6121,429.295,902.411,-0.515555,-0.50272,-1.68371,
2026_07_06_21_38_24.893,3.858,43.9,0,0.769,0,0,0,0, ,0,0,0,0,0, ,-42.3,430.1,902.8,-0.6,-0.5,-1.7,25,-41.648,429.335,902.379,-0.514607,-0.502554,-1.6847,
2026_07_06_21_38_24.914,3.858,44,0,0.767,0,0,0,0, ,0,0,0,0,0, ,-41.8,429,902.7,-0.5,-0.5,-1.6,25,-41.6725,429.348,902.402,-0.516764,-0.502399,-1.68259,
2026_07_06_21_38_24.934,3.858,44,0,0.77,0,0,0,0, ,0,0,0,0,0, ,-41.6,428.9,901.8,-0.5,-0.5,-1.6,25,-41.6741,429.324,902.393,-0.515742,-0.502252,-1.67755,
2026_07_06_21_38_24.953,3.858,43.9,0,0.77,0,0,0,0, ,0,0,0,0,0, ,-41.5,430,902.4,-0.5,-0.5,-1.6,25,-41.6666,429.332,902.375,-0.514783,-0.502115,-1.67283,
2026_07_06_21_38_24.973,3.858,44,0,0.77,0,0,0,0, ,0,0,0,0,0, ,-40.5,429.3,902.7,-0.4,-0.5,-1.7,25,-41.6259,429.351,902.386,-0.510835,-0.501986,-1.67144,
2026_07_06_21_38_24.993,3.858,44.1,0,0.768,0,0,0,0, ,0,0,0,0,0, ,-41.5,428.8,903.5,-0.4,-0.5,-1.7,25,-41.5878,429.333,902.429,-0.504081,-0.501865,-1.67318,
2026_07_06_21_38_25.013,3.858,44,0,0.769,0,0,0,0, ,0,0,0,0,0, ,-40.6,430.5,904,-0.7,-0.5,-1.6,25,-41.555,429.352,902.51,-0.50688,-0.501752,-1.67176,
2026_07_06_21_38_25.033,3.858,43.9,0,0.769,0,0,0,0, ,0,0,0,0,0, ,-42.1,430.2,900.6,-0.3,-0.5,-1.7,25,-41.5425,429.413,902.497,-0.50646,-0.501645,-1.67044,
2026_07_06_21_38_25.052,3.858,43.9,0,0.769,0,0,0,0, ,0,0,0,0,0, ,-41.7,428.3,901.7,-0.4,-0.5,-1.7,25,-41.5643,429.403,902.415,-0.496926,-0.501545,-1.67224,
2026_07_06_21_38_25.072,3.858,44,0,0.769,0,0,0,0, ,0,0,0,0,0, ,-39.9,428.3,902.9,-0.6,-0.5,-1.6,25,-41.5177,429.336,902.408,-0.497113,-0.501451,-1.67088,
2026_07_06_21_38_25.094,3.858,43.9,0,0.77,0,0,0,0, ,0,0,0,0,0, ,-40.7,430.1,901.8,-0.6,-0.6,-1.7,25,-41.4435,429.327,902.404,-0.503383,-0.504409,-1.66961,
2026_07_06_21_38_25.112,3.858,43.9,0,0.768,0,0,0,0, ,0,0,0,0,0, ,-41.8,430.2,902.7,-0.3,-0.5,-1.7,25,-41.4317,429.378,902.395,-0.50013,-0.507187,-1.67146,
2026_07_06_21_38_25.132,3.858,43.9,0,0.77,0,0,0,0, ,0,0,0,0,0, ,-40.4,428.3,903.9,-0.5,-0.5,-1.6,25,-41.4115,429.37,902.45,-0.494028,-0.506749,-1.67016,
2026_07_06_21_38_25.152,3.858,43.7,0,0.769,0,0,0,0, ,0,0,0,0,0, ,-42.1,429.5,902.3,-0.5,-0.6,-1.7,25,-41.4017,429.341,902.49,-0.494392,-0.509385,-1.66893,
2026_07_06_21_38_25.172,3.858,43.7,0,0.769,0,0,0,0, ,0,0,0,0,0, ,-40.6,430.1,903,-0.5,-0.5,-1.7,25,-41.3985,429.369,902.499,-0.494734,-0.51186,-1.67082,
2026_07_06_21_38_25.191,3.858,43.9,0,0.769,0,0,0,0, ,0,0,0,0,0, ,-41.2,429.4,902.9,-0.5,-0.5,-1.6,25,-41.3682,429.392,902.527,-0.495055,-0.511137,-1.66955,
2026_07_06_21_38_25.210,3.858,43.9,0,0.769,0,0,0,0, ,0,0,0,0,0, ,-40.7,430.1,903.6,-0.5,-0.5,-1.6,25,-41.3427,429.414,902.571,-0.495356,-0.510458,-1.66531,
2026_07_06_21_38_25.231,3.858,43.9,0,0.769,0,0,0,0, ,0,0,0,0,0, ,-41.2,428.9,902.4,-0.4,-0.5,-1.8,25,-41.3187,429.419,902.597,-0.492592,-0.509821,-1.66743,
2026_07_06_21_38_25.251,3.858,43.9,0,0.768,0,0,0,0, ,0,0,0,0,0, ,-40.8,428.9,902.5,-0.4,-0.5,-1.7,25,-41.2993,429.388,902.588,-0.48695,-0.509223,-1.67246,
2026_07_06_21_38_25.270,3.858,43.9,0,0.768,0,0,0,0, ,0,0,0,0,0, ,-41.1,430.2,902.3,-0.5,-0.5,-1.6,25,-41.278,429.398,902.577,-0.484698,-0.508661,-1.67109,
2026_07_06_21_38_25.290,3.858,44,0,0.769,0,0,0,0, ,0,0,0,0,0, ,-41.1,428.8,903.1,-0.6,-0.5,-1.6,25,-41.2672,429.404,902.584,-0.488678,-0.508133,-1.66676,
2026_07_06_21_38_25.309,3.858,43.7,0,0.768,0,0,0,0, ,0,0,0,0,0, ,-40.7,430.6,902.3,-0.6,-0.5,-1.8,25,-41.2448,429.422,902.591,-0.495461,-0.507637,-1.66878,
2026_07_06_21_38_25.329,3.858,43.7,0,0.77,0,0,0,0, ,0,0,0,0,0, ,-41.6,430,902.7,-0.6,-0.5,-1.7,25,-41.239,429.475,902.586,-0.501832,-0.507172,-1.67373,
2026_07_06_21_38_25.350,3.858,43.7,0,0.769,0,0,0,0, ,0,0,0,0,0, ,-41.8,429.6,901.7,-0.5,-0.5,-1.7,25,-41.2671,429.495,902.562,-0.504767,-0.506735,-1.67533,
2026_07_06_21_38_25.369,3.858,43.9,0,0.768,0,0,0,0, ,0,0,0,0,0, ,-41.5,429,902.7,-0.6,-0.6,-1.7,25,-41.2905,429.483,902.54,-0.507523,-0.509371,-1.67684,
2026_07_06_21_38_25.389,3.858,43.9,0,0.77,0,0,0,0, ,0,0,0,0,0, ,-41.2,429.3,903.4,-0.6,-0.5,-1.6,25,-41.2941,429.463,902.571,-0.513159,-0.511847,-1.6752,
2026_07_06_21_38_25.408,3.858,44,0,0.771,0,0,0,0, ,0,0,0,0,0, ,-40.8,429.3,901.8,-0.5,-0.5,-1.8,25,-41.2762,429.453,902.573,-0.515404,-0.511125,-1.67671,
2026_07_06_21_38_25.428,3.858,43.7,0,0.769,0,0,0,0, ,0,0,0,0,0, ,-41.1,429.4,901.3,-0.5,-0.5,-1.7,25,-41.2563,429.447,902.511,-0.514465,-0.510447,-1.68118,
2026_07_06_21_38_25.448,3.858,44,0,0.768,0,0,0,0, ,0,0,0,0,0, ,-40.6,428.9,902.4,-0.7,-0.5,-1.7,25,-41.2315,429.429,902.47,-0.519677,-0.509811,-1.68233,
2026_07_06_21_38_25.468,3.858,43.7,0,0.769,0,0,0,0, ,0,0,0,0,0, ,-40.4,429.3,903.4,-0.7,-0.5,-1.7,25,-41.187,429.409,902.497,-0.530666,-0.509213,-1.6834,
2026_07_06_21_38_25.492,3.858,43.7,0,0.769,0,0,0,0, ,0,0,0,0,0, ,-41.7,429.9,901.1,-0.5,-0.5,-1.7,25,-41.1786,429.42,902.481,-0.534891,-0.508651,-1.68441,
2026_07_06_21_38_25.507,3.858,43.7,0,0.77,0,0,0,0, ,0,0,0,0,0, ,-42.7,428.7,903,-0.6,-0.5,-1.7,25,-41.2408,429.413,902.455,-0.535811,-0.508124,-1.68536,
2026_07_06_21_38_25.528,3.858,43.7,0,0.769,0,0,0,0, ,0,0,0,0,0, ,-41.2,429.4,903.9,-0.7,-0.5,-1.6,25,-41.2841,429.391,902.516,-0.54277,-0.507629,-1.68321,
2026_07_06_21_38_25.547,3.858,43.9,0,0.769,0,0,0,0, ,0,0,0,0,0, ,-41.5,428.9,903.1,-0.6,-0.4,-1.6,25,-41.2881,429.376,902.576,-0.549304,-0.504117,-1.67814,
2026_07_06_21_38_25.567,3.858,43.9,0,0.769,0,0,0,0, ,0,0,0,0,0, ,-41.9,428.7,902.3,-0.5,-0.5,-1.7,25,-41.3132,429.341,902.583,-0.549347,-0.50082,-1.67642,
2026_07_06_21_38_25.587,3.858,43.9,0,0.767,0,0,0,0, ,0,0,0,0,0, ,-42.1,429.3,901.9,-0.6,-0.5,-1.7,25,-41.355,429.32,902.554,-0.549386,-0.50077,-1.67786,
2026_07_06_21_38_25.607,3.858,43.7,0,0.768,0,0,0,0, ,0,0,0,0,0, ,-41.6,430,903.6,-0.7,-0.5,-1.8,25,-41.3852,429.34,902.566,-0.555518,-0.500723,-1.68226,
2026_07_06_21_38_25.632,3.858,43.7,0,0.771,0,0,0,0, ,0,0,0,0,0, ,-41.8,431.2,902.9,-0.5,-0.5,-1.6,25,-41.4044,429.417,902.608,-0.558228,-0.500679,-1.68334,
2026_07_06_21_38_25.646,3.858,43.7,0,0.771,0,0,0,0, ,0,0,0,0,0, ,-41.9,429.6,902,-0.5,-0.5,-1.7,25,-41.4315,429.477,902.598,-0.55468,-0.500637,-1.68131,
2026_07_06_21_38_25.666,3.858,43.9,0,0.769,0,0,0,0, ,0,0,0,0,0, ,-41.2,429.6,903.4,-0.7,-0.5,-1.8,25,-41.4388,429.485,902.604,-0.557442,-0.500598,-1.68549,
2026_07_06_21_38_25.686,3.858,43.9,0,0.768,0,0,0,0, ,0,0,0,0,0, ,-42.2,430.1,902.8,-0.6,-0.5,-1.7,25,-41.4547,429.507,902.634,-0.563082,-0.500562,-1.68942,
2026_07_06_21_38_25.706,3.858,43.9,0,0.769,0,0,0,0, ,0,0,0,0,0, ,-40.8,430.2,902.3,-0.6,-0.5,-1.7,25,-41.4574,429.546,902.629,-0.565332,-0.500528,-1.69007,
2026_07_06_21_38_25.726,3.858,43.6,0,0.768,0,0,0,0, ,0,0,0,0,0, ,-41.8,429.5,902.9,-0.5,-0.5,-1.8,25,-41.4478,429.565,902.627,-0.564397,-0.500496,-1.69372,
2026_07_06_21_38_25.746,3.858,43.7,0,0.771,0,0,0,0, ,0,0,0,0,0, ,-41.1,429.1,903.1,-0.5,-0.5,-1.7,25,-41.448,429.548,902.65,-0.560473,-0.500465,-1.69715,
2026_07_06_21_38_25.767,3.858,43.7,0,0.771,0,0,0,0, ,0,0,0,0,0, ,-41.9,429.5,901.1,-0.6,-0.5,-1.7,25,-41.4511,429.533,902.617,-0.559835,-0.500437,-1.69732,
2026_07_06_21_38_25.785,3.858,43.9,0,0.768,0,0,0,0, ,0,0,0,0,0, ,-41.3,430.1,902.2,-0.6,-0.5,-1.7,25,-41.4602,429.55,902.558,-0.562282,-0.50041,-1.69749,
2026_07_06_21_38_25.805,3.858,43.9,0,0.769,0,0,0,0, ,0,0,0,0,0, ,-41.6,430.1,902.7,-0.5,-0.6,-1.7,25,-41.4596,429.583,902.551,-0.561534,-0.503432,-1.69764,
2026_07_06_21_38_25.825,3.858,43.7,0,0.768,0,0,0,0, ,0,0,0,0,0, ,-41.8,429.4,903.6,-0.6,-0.5,-1.7,25,-41.4742,429.593,902.588,-0.560831,-0.50627,-1.69778,
2026_07_06_21_38_25.844,3.858,43.6,0,0.768,0,0,0,0, ,0,0,0,0,0, ,-40.8,429.4,903.4,-0.6,-0.5,-1.7,25,-41.4636,429.581,902.643,-0.563218,-0.505888,-1.69792,
2026_07_06_21_38_25.864,3.858,43.9,0,0.771,0,0,0,0, ,0,0,0,0,0, ,-41.9,429.9,901.8,-0.5,-0.6,-1.7,25,-41.4567,429.586,902.641,-0.562413,-0.508576,-1.69805,
2026_07_06_21_38_25.884,3.858,43.6,0,0.771,0,0,0,0, ,0,0,0,0,0, ,-41.9,429.6,902.4,-0.5,-0.5,-1.7,25,-41.4837,429.596,902.608,-0.558609,-0.5111,-1.69816,
2026_07_06_21_38_25.905,3.858,43.9,0,0.769,0,0,0,0, ,0,0,0,0,0, ,-41.7,430.1,902.5,-0.6,-0.6,-1.8,25,-41.503,429.611,902.598,-0.558085,-0.513471,-1.70132,
2026_07_06_21_38_25.923,3.858,43.9,0,0.768,0,0,0,0, ,0,0,0,0,0, ,-41,429.9,902.8,-0.5,-0.5,-1.6,25,-41.4937,429.635,902.601,-0.557592,-0.515697,-1.70124,
2026_07_06_21_38_25.943,3.858,43.7,0,0.768,0,0,0,0, ,0,0,0,0,0, ,-41.8,429.5,902.8,-0.5,-0.5,-1.7,25,-41.488,429.639,902.613,-0.554082,-0.51474,-1.69812,
2026_07_06_21_38_25.963,3.858,43.9,0,0.769,0,0,0,0, ,0,0,0,0,0, ,-41.8,430.4,903.1,-0.4,-0.5,-1.6,25,-41.507,429.658,902.634,-0.54774,-0.513842,-1.69519,
2026_07_06_21_38_25.982,3.858,43.7,0,0.769,0,0,0,0, ,0,0,0,0,0, ,-42.6,429.6,902.7,-0.5,-0.5,-1.7,25,-41.5492,429.679,902.65,-0.541784,-0.512998,-1.69243,
2026_07_06_21_38_26.003,3.858,43.9,0,0.77,0,0,0,0, ,0,0,0,0,0, ,-40.7,429.9,902.7,-0.5,-0.4,-1.7,25,-41.5553,429.683,902.653,-0.539238,-0.50916,-1.69289,
2026_07_06_21_38_26.023,3.858,43.9,0,0.77,0,0,0,0, ,0,0,0,0,0, ,-40.8,428.9,903,-0.4,-0.5,-1.7,25,-41.5063,429.666,902.665,-0.5338,-0.505554,-1.69333,
2026_07_06_21_38_26.042,3.858,43.7,0,0.769,0,0,0,0, ,0,0,0,0,0, ,-42.3,429.1,903.1,-0.5,-0.5,-1.7,25,-41.5089,429.625,902.689,-0.528693,-0.505216,-1.69373,
2026_07_06_21_38_26.062,3.858,43.7,0,0.771,0,0,0,0, ,0,0,0,0,0, ,-41.9,429.4,902.8,-0.6,-0.6,-1.7,25,-41.545,429.602,902.704,-0.529992,-0.507945,-1.69412,
2026_07_06_21_38_26.082,3.858,43.6,0,0.77,0,0,0,0, ,0,0,0,0,0, ,-41.6,429.4,903.3,-0.4,-0.6,-1.6,25,-41.5574,429.59,902.726,-0.528164,-0.513555,-1.69143,
2026_07_06_21_38_26.102,3.858,43.7,0,0.768,0,0,0,0, ,0,0,0,0,0, ,-41.2,428.5,903.6,-0.3,-0.5,-1.7,25,-41.5479,429.551,902.77,-0.517307,-0.515776,-1.6889,
2026_07_06_21_38_26.122,3.858,43.9,0,0.769,0,0,0,0, ,0,0,0,0,0, ,-40,429.3,902.7,-0.5,-0.5,-1.7,25,-41.4901,429.511,902.793,-0.510159,-0.514814,-1.68958,
2026_07_06_21_38_26.142,3.858,43.7,0,0.769,0,0,0,0, ,0,0,0,0,0, ,-41.5,430,902,-0.5,-0.5,-1.6,25,-41.445,429.52,902.766,-0.50954,-0.513911,-1.68717,
2026_07_06_21_38_26.161,3.858,43.7,0,0.768,0,0,0,0, ,0,0,0,0,0, ,-41.2,429.1,903,-0.4,-0.5,-1.7,25,-41.4392,429.522,902.75,-0.505911,-0.513064,-1.6849,
2026_07_06_21_38_26.181,3.858,43.7,0,0.769,0,0,0,0, ,0,0,0,0,0, ,-41.1,428.8,903.1,-0.4,-0.6,-1.7,25,-41.4216,429.487,902.768,-0.499458,-0.515315,-1.68582,
2026_07_06_21_38_26.201,3.858,43.6,0,0.77,0,0,0,0, ,0,0,0,0,0, ,-41.5,429.9,904,-0.6,-0.5,-1.6,25,-41.4142,429.478,902.816,-0.499491,-0.517428,-1.68364,
2026_07_06_21_38_26.220,3.858,43.6,0,0.769,0,0,0,0, ,0,0,0,0,0, ,-41.5,430,902.3,-0.5,-0.5,-1.7,25,-41.4194,429.507,902.836,-0.502568,-0.516366,-1.68159,
2026_07_06_21_38_26.240,3.858,43.6,0,0.769,0,0,0,0, ,0,0,0,0,0, ,-41.3,430,901.8,-0.4,-0.6,-1.7,25,-41.4182,429.537,902.788,-0.499365,-0.518416,-1.68271,
2026_07_06_21_38_26.260,3.858,43.7,0,0.769,0,0,0,0, ,0,0,0,0,0, ,-40.8,429.4,901,-0.4,-0.5,-1.7,25,-41.3958,429.547,902.704,-0.49331,-0.52034,-1.68377,
2026_07_06_21_38_26.280,3.858,43.6,0,0.768,0,0,0,0, ,0,0,0,0,0, ,-40.4,430.5,902.3,-0.5,-0.5,-1.7,25,-41.3473,429.572,902.639,-0.490671,-0.519101,-1.68475,
2026_07_06_21_38_26.299,3.858,43.7,0,0.768,0,0,0,0, ,0,0,0,0,0, ,-41.6,430,902.8,-0.5,-0.5,-1.7,25,-41.3261,429.613,902.634,-0.491239,-0.517937,-1.68568,
2026_07_06_21_38_26.319,3.858,43.6,0,0.768,0,0,0,0, ,0,0,0,0,0, ,-41.5,429.6,902.5,-0.4,-0.5,-1.8,25,-41.3398,429.624,902.635,-0.488726,-0.516844,-1.6896,
2026_07_06_21_38_26.339,3.858,43.6,0,0.769,0,0,0,0, ,0,0,0,0,0, ,-40.6,429,903.3,-0.4,-0.5,-1.8,25,-41.3221,429.605,902.651,-0.48332,-0.515817,-1.69633,
2026_07_06_21_38_26.359,3.858,43.6,0,0.768,0,0,0,0, ,0,0,0,0,0, ,-40.4,429.8,902.7,-0.5,-0.5,-1.6,25,-41.272,429.592,902.672,-0.481289,-0.514854,-1.69655,
2026_07_06_21_38_26.379,3.858,43.7,0,0.769,0,0,0,0, ,0,0,0,0,0, ,-41.1,430,902.3,-0.5,-0.6,-1.7,25,-41.2402,429.611,902.662,-0.482429,-0.516995,-1.69372,
2026_07_06_21_38_26.399,3.858,43.7,0,0.768,0,0,0,0, ,0,0,0,0,0, ,-41.6,430.1,902.5,-0.4,-0.5,-1.7,25,-41.2469,429.638,902.646,-0.480453,-0.519007,-1.6941,
2026_07_06_21_38_26.418,3.858,43.6,0,0.769,0,0,0,0, ,0,0,0,0,0, ,-40.4,429.1,902.7,-0.4,-0.5,-1.7,25,-41.2318,429.635,902.643,-0.475551,-0.517848,-1.69446,
2026_07_06_21_38_26.444,3.858,43.6,0,0.768,0,0,0,0, ,0,0,0,0,0, ,-41.1,428.5,903,-0.6,-0.4,-1.7,25,-41.2025,429.584,902.656,-0.47704,-0.513714,-1.6948,
2026_07_06_21_38_26.458,3.858,43.7,0,0.771,0,0,0,0, ,0,0,0,0,0, ,-41.8,428.3,901.7,-0.5,-0.5,-1.7,25,-41.2176,429.512,902.637,-0.481486,-0.509831,-1.69511,
2026_07_06_21_38_26.478,3.858,43.6,0,0.769,0,0,0,0, ,0,0,0,0,0, ,-41.9,429.1,902.7,-0.5,-0.6,-1.7,25,-41.2561,429.463,902.61,-0.482615,-0.512279,-1.69541,
2026_07_06_21_38_26.498,3.858,43.7,0,0.768,0,0,0,0, ,0,0,0,0,0, ,-42.3,429.4,902.3,-0.5,-0.5,-1.7,25,-41.3075,429.45,902.604,-0.483674,-0.514578,-1.69569,
2026_07_06_21_38_26.518,3.858,43.6,0,0.768,0,0,0,0, ,0,0,0,0,0, ,-41.6,427.9,902.3,-0.5,-0.5,-1.7,25,-41.3467,429.401,902.585,-0.484669,-0.513689,-1.69595,
2026_07_06_21_38_26.538,3.858,43.7,0,0.769,0,0,0,0, ,0,0,0,0,0, ,-41.1,428.2,902.8,-0.5,-0.4,-1.7,25,-41.3469,429.319,902.583,-0.485603,-0.509808,-1.6962,
2026_07_06_21_38_26.557,3.858,43.7,0,0.769,0,0,0,0, ,0,0,0,0,0, ,-41.3,430.4,902.7,-0.5,-0.5,-1.6,25,-41.3379,429.318,902.593,-0.48648,-0.506164,-1.69339,
2026_07_06_21_38_26.582,3.858,43.7,0,0.771,0,0,0,0, ,0,0,0,0,0, ,-41.8,428.5,902.4,-0.4,-0.5,-1.7,25,-41.3509,429.326,902.591,-0.484257,-0.505788,-1.69074,
2026_07_06_21_38_26.597,3.858,43.7,0,0.768,0,0,0,0, ,0,0,0,0,0, ,-41.1,429.6,902.4,-0.5,-0.6,-1.7,25,-41.3569,429.309,902.579,-0.48217,-0.508482,-1.69131,
2026_07_06_21_38_26.617,3.858,43.6,0,0.769,0,0,0,0, ,0,0,0,0,0, ,-40.4,430.1,902.7,-0.6,-0.5,-1.7,25,-41.3199,429.342,902.577,-0.486303,-0.511012,-1.69184,
2026_07_06_21_38_26.636,3.858,43.6,0,0.773,0,0,0,0, ,0,0,0,0,0, ,-42.7,428.5,902.9,-0.4,-0.5,-1.6,25,-41.3339,429.339,902.591,-0.487138,-0.510341,-1.68929,
2026_07_06_21_38_26.656,3.858,43.6,0,0.771,0,0,0,0, ,0,0,0,0,0, ,-41.2,429.4,903.4,-0.6,-0.5,-1.7,25,-41.3715,429.316,902.625,-0.487922,-0.509711,-1.68689,
2026_07_06_21_38_26.676,3.858,43.6,0,0.771,0,0,0,0, ,0,0,0,0,0, ,-40.1,429.8,902.3,-0.6,-0.6,-1.7,25,-41.3275,429.333,902.639,-0.494751,-0.512166,-1.68769,
2026_07_06_21_38_26.695,3.858,43.7,0,0.768,0,0,0,0, ,0,0,0,0,0, ,-41.8,430,903,-0.5,-0.5,-1.7,25,-41.3045,429.367,902.639,-0.498118,-0.514472,-1.68844,
2026_07_06_21_38_26.717,3.858,43.5,0,0.769,0,0,0,0, ,0,0,0,0,0, ,-41.2,429.3,901.6,-0.5,-0.5,-1.7,25,-41.3164,429.385,902.619,-0.498233,-0.51359,-1.68915,
2026_07_06_21_38_26.735,3.858,43.7,0,0.77,0,0,0,0, ,0,0,0,0,0, ,-40.2,429.8,902.4,-0.7,-0.5,-1.7,25,-41.2789,429.395,902.581,-0.504434,-0.512762,-1.68981,
2026_07_06_21_38_26.755,3.858,43.5,0,0.771,0,0,0,0, ,0,0,0,0,0, ,-39.9,430.1,903.3,-0.6,-0.5,-1.6,25,-41.204,429.429,902.597,-0.513305,-0.511984,-1.68738,
2026_07_06_21_38_26.775,3.858,43.5,0,0.771,0,0,0,0, ,0,0,0,0,0, ,-40.6,430.6,902.2,-0.5,-0.6,-1.7,25,-41.1458,429.485,902.607,-0.515541,-0.514301,-1.6851,
2026_07_06_21_38_26.795,3.858,43.5,0,0.769,0,0,0,0, ,0,0,0,0,0, ,-41.2,428.8,904,-0.5,-0.5,-1.7,25,-41.1309,429.498,902.637,-0.514594,-0.516476,-1.68601,
2026_07_06_21_38_26.814,3.858,43.7,0,0.769,0,0,0,0, ,0,0,0,0,0, ,-41,429.8,902.2,-0.6,-0.5,-1.6,25,-41.129,429.486,902.665,-0.516751,-0.515472,-1.68382,
2026_07_06_21_38_26.834,3.858,43.6,0,0.769,0,0,0,0, ,0,0,0,0,0, ,-41.1,430.2,902.9,-0.5,-0.5,-1.7,25,-41.1242,429.517,902.658,-0.518777,-0.514529,-1.68176,
2026_07_06_21_38_26.855,3.858,43.5,0,0.768,0,0,0,0, ,0,0,0,0,0, ,-41.5,431.2,904.2,-0.5,-0.5,-1.7,25,-41.1349,429.589,902.712,-0.517633,-0.513644,-1.68287,
2026_07_06_21_38_26.874,3.858,43.6,0,0.771,0,0,0,0, ,0,0,0,0,0, ,-40,429.1,902.2,-0.5,-0.5,-1.7,25,-41.1114,429.623,902.742,-0.516559,-0.512812,-1.68391,
2026_07_06_21_38_26.893,3.858,43.5,0,0.771,0,0,0,0, ,0,0,0,0,0, ,-41,429.1,902.9,-0.6,-0.5,-1.7,25,-41.0742,429.591,902.73,-0.518596,-0.512032,-1.68489,
2026_07_06_21_38_26.913,3.858,43.7,0,0.772,0,0,0,0, ,0,0,0,0,0, ,-41,430.1,903.5,-0.6,-0.5,-1.7,25,-41.0696,429.592,902.759,-0.523557,-0.511298,-1.68581,
2026_07_06_21_38_26.933,3.858,43.5,0,0.769,0,0,0,0, ,0,0,0,0,0, ,-41.5,430.5,902.3,-0.5,-0.5,-1.7,25,-41.0806,429.635,902.768,-0.525168,-0.51061,-1.68668,
2026_07_06_21_38_26.953,3.858,43.5,0,0.769,0,0,0,0, ,0,0,0,0,0, ,-41,429,901.8,-0.5,-0.5,-1.6,25,-41.091,429.642,902.724,-0.523635,-0.509963,-1.68444,
2026_07_06_21_38_26.973,3.858,43.4,0,0.768,0,0,0,0, ,0,0,0,0,0, ,-41,430.1,903.1,-0.6,-0.5,-1.7,25,-41.0854,429.637,902.707,-0.525241,-0.509356,-1.68234,
2026_07_06_21_38_26.993,3.858,43.6,0,0.769,0,0,0,0, ,0,0,0,0,0, ,-41.3,430.5,902.5,-0.6,-0.5,-1.6,25,-41.0894,429.677,902.713,-0.529797,-0.508786,-1.68037,
2026_07_06_21_38_27.013,3.858,43.6,0,0.769,0,0,0,0, ,0,0,0,0,0, ,-41.5,431,903.6,-0.4,-0.4,-1.8,25,-41.1083,429.742,902.733,-0.527981,-0.505204,-1.68157,
2026_07_06_21_38_27.033,3.858,43.6,0,0.768,0,0,0,0, ,0,0,0,0,0, ,-41.1,430,902.4,-0.5,-0.6,-1.7,25,-41.12,429.789,902.75,-0.523229,-0.504887,-1.68574,
2026_07_06_21_38_27.052,3.858,43.4,0,0.768,0,0,0,0, ,0,0,0,0,0, ,-42.2,429.3,903.4,-0.5,-0.5,-1.6,25,-41.1523,429.78,902.759,-0.521814,-0.507636,-1.68356,
2026_07_06_21_38_27.072,3.858,43.6,0,0.769,0,0,0,0, ,0,0,0,0,0, ,-41.5,431,902.4,-0.5,-0.5,-1.6,25,-41.1948,429.803,902.767,-0.520484,-0.507171,-1.67847,
2026_07_06_21_38_27.092,3.858,43.6,0,0.771,0,0,0,0, ,0,0,0,0,0, ,-42.8,428.4,902.5,-0.5,-0.5,-1.6,25,-41.253,429.796,902.748,-0.519236,-0.506734,-1.67369,
2026_07_06_21_38_27.112,3.858,43.5,0,0.77,0,0,0,0, ,0,0,0,0,0, ,-40.6,430.2,903.6,-0.6,-0.5,-1.6,25,-41.2802,429.766,902.766,-0.521111,-0.506323,-1.6692,
2026_07_06_21_38_27.131,3.858,43.5,0,0.769,0,0,0,0, ,0,0,0,0,0, ,-41.9,430.7,902.9,-0.5,-0.5,-1.7,25,-41.2784,429.808,902.796,-0.522871,-0.505938,-1.66803,
2026_07_06_21_38_27.151,3.858,43.5,0,0.77,0,0,0,0, ,0,0,0,0,0, ,-41.2,429.4,904.4,-0.6,-0.5,-1.7,25,-41.2949,429.823,902.848,-0.524524,-0.505576,-1.66998,
2026_07_06_21_38_27.171,3.858,43.6,0,0.769,0,0,0,0, ,0,0,0,0,0, ,-41.3,430.1,902.4,-0.6,-0.5,-1.8,25,-41.2922,429.818,902.882,-0.529124,-0.505236,-1.67485,
2026_07_06_21_38_27.190,3.858,43.5,0,0.77,0,0,0,0, ,0,0,0,0,0, ,-41.3,429.1,902.5,-0.3,-0.5,-1.7,25,-41.2927,429.805,902.855,-0.524302,-0.504917,-1.67943,
2026_07_06_21_38_27.211,3.858,43.4,0,0.769,0,0,0,0, ,0,0,0,0,0, ,-40.7,428.8,903.4,-0.5,-0.5,-1.6,25,-41.2748,429.753,902.861,-0.516727,-0.504618,-1.67764,
2026_07_06_21_38_27.230,3.858,43.5,0,0.768,0,0,0,0, ,0,0,0,0,0, ,-41.7,429.9,903.3,-0.5,-0.5,-1.7,25,-41.2703,429.728,902.891,-0.515708,-0.504336,-1.67595,
2026_07_06_21_38_27.250,3.858,43.4,0,0.768,0,0,0,0, ,0,0,0,0,0, ,-41.1,431.7,902.3,-0.5,-0.5,-1.8,25,-41.2782,429.794,902.885,-0.514751,-0.504072,-1.68047,
2026_07_06_21_38_27.270,3.858,43.4,0,0.771,0,0,0,0, ,0,0,0,0,0, ,-41,430.6,903.5,-0.4,-0.6,-1.6,25,-41.2643,429.876,902.886,-0.510805,-0.506871,-1.68166,
2026_07_06_21_38_27.290,3.858,43.5,0,0.769,0,0,0,0, ,0,0,0,0,0, ,-42.2,428.9,902.4,-0.5,-0.5,-1.6,25,-41.2847,429.868,902.89,-0.5071,-0.509499,-1.67668,
2026_07_06_21_38_27.309,3.858,43.5,0,0.769,0,0,0,0, ,0,0,0,0,0, ,-41.9,428.7,902.3,-0.5,-0.5,-1.8,25,-41.3314,429.803,902.857,-0.506667,-0.50892,-1.6781,
2026_07_06_21_38_27.330,3.858,43.5,0,0.769,0,0,0,0, ,0,0,0,0,0, ,-40.5,429.5,902.9,-0.6,-0.5,-1.7,25,-41.3234,429.761,902.842,-0.509308,-0.508376,-1.68248,
2026_07_06_21_38_27.350,3.858,43.4,0,0.771,0,0,0,0, ,0,0,0,0,0, ,-40.8,429.3,904,-0.5,-0.5,-1.7,25,-41.2823,429.739,902.879,-0.511787,-0.507866,-1.68355,
2026_07_06_21_38_27.369,3.858,43.4,0,0.771,0,0,0,0, ,0,0,0,0,0, ,-41.2,430.5,902.7,-0.7,-0.5,-1.6,25,-41.2651,429.748,902.907,-0.517163,-0.507387,-1.68151,
2026_07_06_21_38_27.388,3.858,43.4,0,0.768,0,0,0,0, ,0,0,0,0,0, ,-41.3,430,902.8,-0.5,-0.5,-1.6,25,-41.2642,429.779,902.898,-0.522211,-0.506937,-1.67654,
2026_07_06_21_38_27.409,3.858,43.4,0,0.768,0,0,0,0, ,0,0,0,0,0, ,-41.2,429.3,902.7,-0.5,-0.5,-1.7,25,-41.2633,429.771,902.889,-0.520857,-0.506514,-1.67492,
2026_07_06_21_38_27.429,3.858,43.5,0,0.771,0,0,0,0, ,0,0,0,0,0, ,-41.5,428.5,903.5,-0.6,-0.5,-1.7,25,-41.2686,429.718,902.902,-0.522633,-0.506117,-1.67645,
2026_07_06_21_38_27.448,3.858,43.4,0,0.771,0,0,0,0, ,0,0,0,0,0, ,-42.1,430.5,903.8,-0.7,-0.5,-1.7,25,-41.301,429.705,902.947,-0.530395,-0.505744,-1.67788,
2026_07_06_21_38_27.468,3.858,43.5,0,0.768,0,0,0,0, ,0,0,0,0,0, ,-42.1,431.6,902,-0.4,-0.5,-1.7,25,-41.3497,429.787,902.944,-0.531589,-0.505394,-1.67923,
2026_07_06_21_38_27.489,3.858,43.4,0,0.77,0,0,0,0, ,0,0,0,0,0, ,-40.1,428.2,903.4,-0.5,-0.6,-1.7,25,-41.3345,429.794,902.929,-0.526617,-0.508112,-1.6805,
2026_07_06_21_38_27.507,3.858,43.4,0,0.767,0,0,0,0, ,0,0,0,0,0, ,-41.3,427.4,901.6,-0.6,-0.5,-1.7,25,-41.2958,429.672,902.903,-0.528042,-0.510665,-1.68169,
2026_07_06_21_38_27.533,3.858,43.4,0,0.768,0,0,0,0, ,0,0,0,0,0, ,-41.6,428.8,902.4,-0.7,-0.5,-1.7,25,-41.3052,429.576,902.848,-0.535474,-0.510015,-1.6828,
2026_07_06_21_38_27.547,3.858,43.4,0,0.768,0,0,0,0, ,0,0,0,0,0, ,-41.6,430.6,902.7,-0.5,-0.4,-1.7,25,-41.3232,429.584,902.83,-0.539406,-0.506358,-1.68385,
2026_07_06_21_38_27.567,3.858,43.4,0,0.771,0,0,0,0, ,0,0,0,0,0, ,-41.1,427,902.4,-0.6,-0.5,-1.7,25,-41.3248,429.536,902.813,-0.540052,-0.502923,-1.68483,
2026_07_06_21_38_27.586,3.858,43.4,0,0.768,0,0,0,0, ,0,0,0,0,0, ,-42.2,430.6,904,-0.7,-0.5,-1.6,25,-41.3446,429.491,902.837,-0.546752,-0.502745,-1.68271,
2026_07_06_21_38_27.607,3.858,43.4,0,0.768,0,0,0,0, ,0,0,0,0,0, ,-40.5,430.2,901.9,-0.7,-0.6,-1.7,25,-41.345,429.547,902.843,-0.55609,-0.505625,-1.68072,
2026_07_06_21_38_27.626,3.858,43.5,0,0.769,0,0,0,0, ,0,0,0,0,0, ,-41.5,430.2,901.9,-0.5,-0.5,-1.7,25,-41.3239,429.586,902.786,-0.558766,-0.508329,-1.68189,
2026_07_06_21_38_27.646,3.858,43.6,0,0.768,0,0,0,0, ,0,0,0,0,0, ,-40.7,429.9,903,-0.5,-0.5,-1.7,25,-41.3103,429.615,902.766,-0.555185,-0.507821,-1.683,
2026_07_06_21_38_27.670,3.858,43.4,0,0.768,0,0,0,0, ,0,0,0,0,0, ,-41.8,429.3,902.7,-0.7,-0.5,-1.7,25,-41.3066,429.614,902.771,-0.557916,-0.507345,-1.68403,
2026_07_06_21_38_27.686,3.858,43.5,0,0.77,0,0,0,0, ,0,0,0,0,0, ,-41,429.3,903.1,-0.7,-0.5,-1.7,25,-41.3123,429.595,902.779,-0.566574,-0.506897,-1.68501,
2026_07_06_21_38_27.705,3.858,43.4,0,0.77,0,0,0,0, ,0,0,0,0,0, ,-41,430,902,-0.6,-0.5,-1.6,25,-41.2933,429.598,902.765,-0.571658,-0.506477,-1.68287,
2026_07_06_21_38_27.726,3.858,43.3,0,0.77,0,0,0,0, ,0,0,0,0,0, ,-41.1,428.8,902,-0.5,-0.5,-1.7,25,-41.2784,429.586,902.718,-0.570338,-0.506082,-1.68087,
2026_07_06_21_38_27.745,3.858,43.4,0,0.769,0,0,0,0, ,0,0,0,0,0, ,-42.1,429.4,902.9,-0.5,-0.5,-1.7,25,-41.298,429.556,902.702,-0.566052,-0.505712,-1.68204,
2026_07_06_21_38_27.765,3.858,43.3,0,0.769,0,0,0,0, ,0,0,0,0,0, ,-41.1,430,903.3,-0.6,-0.5,-1.7,25,-41.3164,429.565,902.726,-0.565074,-0.505364,-1.68313,
2026_07_06_21_38_27.785,3.858,43.3,0,0.769,0,0,0,0, ,0,0,0,0,0, ,-41.6,429.6,902.4,-0.6,-0.5,-1.7,25,-41.3185,429.579,902.734,-0.567202,-0.505037,-1.68416,
2026_07_06_21_38_27.804,3.858,43.4,0,0.768,0,0,0,0, ,0,0,0,0,0, ,-41.2,427.9,901.7,-0.5,-0.4,-1.7,25,-41.3235,429.529,902.692,-0.566154,-0.501683,-1.68512,
2026_07_06_21_38_27.824,3.858,43.4,0,0.771,0,0,0,0, ,0,0,0,0,0, ,-40.7,430.4,903.5,-0.7,-0.6,-1.7,25,-41.3007,429.506,902.686,-0.568216,-0.50158,-1.68603,
2026_07_06_21_38_27.844,3.858,43.3,0,0.769,0,0,0,0, ,0,0,0,0,0, ,-42.2,429,902.9,-0.5,-0.5,-1.7,25,-41.3098,429.518,902.718,-0.570153,-0.504531,-1.68688,
2026_07_06_21_38_27.863,3.858,43.5,0,0.769,0,0,0,0, ,0,0,0,0,0, ,-41.5,428.9,902.8,-0.7,-0.5,-1.7,25,-41.3427,429.483,902.726,-0.571972,-0.504255,-1.68768,
2026_07_06_21_38_27.883,3.858,43.4,0,0.769,0,0,0,0, ,0,0,0,0,0, ,-41.8,429.9,901.3,-0.5,-0.5,-1.8,25,-41.3614,429.478,902.684,-0.57368,-0.503996,-1.69148,
2026_07_06_21_38_27.903,3.858,43.3,0,0.768,0,0,0,0, ,0,0,0,0,0, ,-41.3,429.6,902.8,-0.6,-0.5,-1.7,25,-41.3729,429.495,902.646,-0.572237,-0.503752,-1.69504,
2026_07_06_21_38_27.923,3.858,43.4,0,0.769,0,0,0,0, ,0,0,0,0,0, ,-41.6,428.7,904.2,-0.6,-0.5,-1.7,25,-41.3776,429.474,902.698,-0.573929,-0.503523,-1.69535,
2026_07_06_21_38_27.944,3.858,43.4,0,0.769,0,0,0,0, ,0,0,0,0,0, ,-40.4,431,902.3,-0.7,-0.5,-1.6,25,-41.3546,429.496,902.732,-0.578564,-0.503309,-1.69258,
2026_07_06_21_38_27.963,3.858,43.3,0,0.771,0,0,0,0, ,0,0,0,0,0, ,-42.7,430.4,902,-0.5,-0.6,-1.6,25,-41.3665,429.57,902.696,-0.579871,-0.506154,-1.68694,
2026_07_06_21_38_27.982,3.858,43.4,0,0.769,0,0,0,0, ,0,0,0,0,0, ,-40.2,429.5,902.7,-0.6,-0.6,-1.6,25,-41.3716,429.593,902.675,-0.57805,-0.511873,-1.68164,
2026_07_06_21_38_28.003,3.858,43.4,0,0.767,0,0,0,0, ,0,0,0,0,0, ,-41.6,428.9,901,-0.7,-0.5,-1.7,25,-41.3429,429.569,902.625,-0.582435,-0.514196,-1.67972,
2026_07_06_21_38_28.022,3.858,43.3,0,0.769,0,0,0,0, ,0,0,0,0,0, ,-41.3,427.6,903.1,-0.5,-0.5,-1.7,25,-41.3494,429.489,902.59,-0.583505,-0.513331,-1.68095,
2026_07_06_21_38_28.042,3.858,43.4,0,0.768,0,0,0,0, ,0,0,0,0,0, ,-40.8,429.1,901.6,-0.5,-0.5,-1.6,25,-41.3312,429.419,902.575,-0.578417,-0.512519,-1.67907,
2026_07_06_21_38_28.065,3.858,43.4,0,0.768,0,0,0,0, ,0,0,0,0,0, ,-40.8,430,902.9,-0.6,-0.5,-1.7,25,-41.2988,429.427,902.555,-0.576685,-0.511756,-1.67729,
2026_07_06_21_38_28.081,3.858,43.4,0,0.77,0,0,0,0, ,0,0,0,0,0, ,-41.3,430.2,902.3,-0.5,-0.5,-1.7,25,-41.2836,429.468,902.558,-0.575059,-0.511039,-1.67868,
2026_07_06_21_38_28.102,3.858,43.4,0,0.771,0,0,0,0, ,0,0,0,0,0, ,-41.5,430.5,901.7,-0.3,-0.6,-1.7,25,-41.2907,429.522,902.524,-0.564391,-0.513414,-1.67998,
2026_07_06_21_38_28.121,3.858,43.3,0,0.77,0,0,0,0, ,0,0,0,0,0, ,-41,428.9,902.7,-0.5,-0.5,-1.7,25,-41.2882,429.533,902.504,-0.554374,-0.515643,-1.6812,
2026_07_06_21_38_28.141,3.858,43.4,0,0.77,0,0,0,0, ,0,0,0,0,0, ,-41.9,428.7,904,-0.5,-0.5,-1.6,25,-41.2981,429.488,902.556,-0.55106,-0.51469,-1.6793,
2026_07_06_21_38_28.160,3.858,43.4,0,0.769,0,0,0,0, ,0,0,0,0,0, ,-41.2,429.8,902.5,-0.6,-0.5,-1.6,25,-41.3134,429.474,902.598,-0.550996,-0.513795,-1.67446,
2026_07_06_21_38_28.180,3.858,43.4,0,0.767,0,0,0,0, ,0,0,0,0,0, ,-41.7,429.5,902.7,-0.4,-0.5,-1.7,25,-41.3218,429.484,902.598,-0.547888,-0.512954,-1.67297,
2026_07_06_21_38_28.202,3.858,43.3,0,0.767,0,0,0,0, ,0,0,0,0,0, ,-41.8,427.8,902.7,-0.4,-0.4,-1.6,25,-41.3479,429.434,902.604,-0.538876,-0.509118,-1.67157,
2026_07_06_21_38_28.220,3.858,43.4,0,0.77,0,0,0,0, ,0,0,0,0,0, ,-40.8,429,904.1,-0.5,-0.5,-1.7,25,-41.3449,429.371,902.653,-0.53346,-0.505515,-1.67026,
2026_07_06_21_38_28.240,3.858,43.3,0,0.771,0,0,0,0, ,0,0,0,0,0, ,-40.5,430.5,901.2,-0.5,-0.5,-1.7,25,-41.3026,429.394,902.653,-0.531421,-0.505179,-1.67207,
2026_07_06_21_38_28.259,3.858,43.3,0,0.77,0,0,0,0, ,0,0,0,0,0, ,-40.8,428.8,902.3,-0.4,-0.5,-1.7,25,-41.2628,429.409,902.598,-0.52646,-0.504864,-1.67377,
2026_07_06_21_38_28.280,3.858,43.3,0,0.768,0,0,0,0, ,0,0,0,0,0, ,-40.4,429.1,902.3,-0.4,-0.5,-1.7,25,-41.2224,429.381,902.58,-0.518753,-0.504567,-1.67537,
2026_07_06_21_38_28.299,3.858,43.3,0,0.769,0,0,0,0, ,0,0,0,0,0, ,-40.7,428.2,902.4,-0.6,-0.5,-1.7,25,-41.1815,429.337,902.566,-0.517611,-0.504289,-1.67687,
2026_07_06_21_38_28.319,3.858,43.3,0,0.768,0,0,0,0, ,0,0,0,0,0, ,-42.2,430.2,902.3,-0.5,-0.5,-1.7,25,-41.1978,429.328,902.552,-0.519584,-0.504028,-1.67828,
2026_07_06_21_38_28.340,3.858,43.4,0,0.769,0,0,0,0, ,0,0,0,0,0, ,-41.2,429.6,903.5,-0.4,-0.5,-1.6,25,-41.2284,429.363,902.574,-0.515344,-0.503782,-1.67656,
2026_07_06_21_38_28.359,3.858,43.2,0,0.771,0,0,0,0, ,0,0,0,0,0, ,-41.6,430.1,901.8,-0.4,-0.5,-1.7,25,-41.2389,429.393,902.578,-0.508315,-0.503552,-1.67494,
2026_07_06_21_38_28.379,3.858,43.4,0,0.769,0,0,0,0, ,0,0,0,0,0, ,-42.4,429.1,902.3,-0.6,-0.5,-1.7,25,-41.2853,429.406,902.546,-0.507809,-0.503335,-1.67647,
2026_07_06_21_38_28.398,3.858,43.3,0,0.77,0,0,0,0, ,0,0,0,0,0, ,-40.4,429.4,903.3,-0.6,-0.5,-1.7,25,-41.2923,429.396,902.562,-0.513427,-0.503132,-1.6779,
2026_07_06_21_38_28.418,3.858,43.3,0,0.77,0,0,0,0, ,0,0,0,0,0, ,-41.9,430,902,-0.4,-0.6,-1.6,25,-41.2836,429.415,902.567,-0.512608,-0.505988,-1.6762,
2026_07_06_21_38_28.438,3.858,43.3,0,0.769,0,0,0,0, ,0,0,0,0,0, ,-41.2,429.6,901.4,-0.4,-0.5,-1.7,25,-41.2998,429.438,902.514,-0.505746,-0.50867,-1.6746,
2026_07_06_21_38_28.457,3.858,43.3,0,0.769,0,0,0,0, ,0,0,0,0,0, ,-41.7,427.6,903.9,-0.5,-0.5,-1.6,25,-41.309,429.387,902.522,-0.502349,-0.508142,-1.6731,
2026_07_06_21_38_28.480,3.858,43.4,0,0.769,0,0,0,0, ,0,0,0,0,0, ,-41.9,427.9,903.3,-0.5,-0.6,-1.7,25,-41.3389,429.287,902.588,-0.502206,-0.510692,-1.6717,
2026_07_06_21_38_28.497,3.858,43.3,0,0.769,0,0,0,0, ,0,0,0,0,0, ,-41.7,429.3,902.5,-0.5,-0.5,-1.7,25,-41.367,429.245,902.607,-0.502072,-0.513088,-1.67342,
2026_07_06_21_38_28.517,3.858,43.3,0,0.772,0,0,0,0, ,0,0,0,0,0, ,-41.6,430,902.9,-0.4,-0.4,-1.7,25,-41.3842,429.27,902.613,-0.498899,-0.509243,-1.67504,
2026_07_06_21_38_28.537,3.858,43.2,0,0.77,0,0,0,0, ,0,0,0,0,0, ,-41.1,428.3,902.9,-0.5,-0.5,-1.7,25,-41.3822,429.263,902.63,-0.495919,-0.505633,-1.67656,
2026_07_06_21_38_28.556,3.858,43.2,0,0.768,0,0,0,0, ,0,0,0,0,0, ,-40.8,429.3,903.1,-0.5,-0.5,-1.6,25,-41.3558,429.235,902.653,-0.496167,-0.50529,-1.67494,
2026_07_06_21_38_28.576,3.858,43.3,0,0.769,0,0,0,0, ,0,0,0,0,0, ,-41.6,429.8,903.6,-0.5,-0.5,-1.7,25,-41.3463,429.254,902.695,-0.496401,-0.504968,-1.67342,
2026_07_06_21_38_28.596,3.858,43.3,0,0.769,0,0,0,0, ,0,0,0,0,0, ,-42.2,429.9,902.9,-0.4,-0.5,-1.7,25,-41.3801,429.29,902.729,-0.493573,-0.504665,-1.67504,
2026_07_06_21_38_28.616,3.858,43.2,0,0.768,0,0,0,0, ,0,0,0,0,0, ,-41.3,427.1,902.8,-0.5,-0.5,-1.7,25,-41.4026,429.242,902.736,-0.490918,-0.504381,-1.67656,
2026_07_06_21_38_28.636,3.858,43.3,0,0.77,0,0,0,0, ,0,0,0,0,0, ,-40.7,429.8,902.8,-0.5,-0.5,-1.7,25,-41.3781,429.194,902.74,-0.491472,-0.504114,-1.67799,
2026_07_06_21_38_28.656,3.858,43.3,0,5.223,0,0,0,0, ,0,0,0,0,0, ,-41.9,428.8,902.7,-0.5,-0.5,-1.7,25,-41.3733,429.2,902.741,-0.491991,-0.503863,-1.67933,
2026_07_06_21_38_28.675,3.858,43.1,0,0.769,0,0,0,0, ,0,0,0,0,0, ,-41.1,429.1,901.4,-0.4,-0.5,-1.6,25,-41.381,429.185,902.699,-0.489432,-0.503628,-1.67755,
2026_07_06_21_38_28.695,3.858,43.4,0,0.769,0,0,0,0, ,0,0,0,0,0, ,-41.9,429.8,904.2,-0.4,-0.5,-1.6,25,-41.3883,429.201,902.705,-0.483983,-0.503407,-1.67282,
2026_07_06_21_38_28.715,3.858,43.2,0,0.769,0,0,0,0, ,0,0,0,0,0, ,-40.7,428.5,901.7,-0.5,-0.5,-1.7,25,-41.3829,429.198,902.72,-0.481912,-0.503199,-1.67143,
2026_07_06_21_38_28.735,3.858,43.3,0,0.769,0,0,0,0, ,0,0,0,0,0, ,-41,430.7,901.8,-0.5,-0.5,-1.6,25,-41.3504,429.222,902.661,-0.483014,-0.503004,-1.67012,
2026_07_06_21_38_28.755,3.858,43.3,0,0.768,0,0,0,0, ,0,0,0,0,0, ,-40.6,427.9,902.7,-0.6,-0.5,-1.6,25,-41.3169,429.227,902.636,-0.487096,-0.502821,-1.66585,
2026_07_06_21_38_28.776,3.858,43.4,0,0.769,0,0,0,0, ,0,0,0,0,0, ,-40.5,428.5,902.2,-0.6,-0.5,-1.7,25,-41.2702,429.165,902.624,-0.493976,-0.502649,-1.66488,
2026_07_06_21_38_28.795,3.858,43.2,0,0.768,0,0,0,0, ,0,0,0,0,0, ,-40.2,430.5,902,-0.7,-0.5,-1.6,25,-41.2141,429.185,902.592,-0.503484,-0.502488,-1.66398,
2026_07_06_21_38_28.814,3.858,43.3,0,0.768,0,0,0,0, ,0,0,0,0,0, ,-41.2,428.5,901.8,-0.5,-0.5,-1.7,25,-41.1828,429.204,902.55,-0.509365,-0.502336,-1.66313,
2026_07_06_21_38_28.834,3.858,43.3,0,0.769,0,0,0,0, ,0,0,0,0,0, ,-41.3,429.8,903.5,-0.6,-0.5,-1.7,25,-41.1869,429.201,902.556,-0.511841,-0.502194,-1.66537,
2026_07_06_21_38_28.853,3.858,43.3,0,0.769,0,0,0,0, ,0,0,0,0,0, ,-41.5,430.5,903.3,-0.6,-0.5,-1.7,25,-41.1998,429.259,902.608,-0.517214,-0.50206,-1.66748,
2026_07_06_21_38_28.874,3.858,43.2,0,0.77,0,0,0,0, ,0,0,0,0,0, ,-40.7,428.9,903.1,-0.7,-0.6,-1.7,25,-41.1938,429.286,902.644,-0.525305,-0.504981,-1.66946,
2026_07_06_21_38_28.894,3.858,43.2,0,0.769,0,0,0,0, ,0,0,0,0,0, ,-40.5,429,902.5,-0.6,-0.5,-1.7,25,-41.1576,429.265,902.653,-0.532904,-0.507725,-1.67133,
2026_07_06_21_38_28.913,3.858,43.2,0,0.769,0,0,0,0, ,0,0,0,0,0, ,-41.5,428.9,901.8,-0.6,-0.5,-1.6,25,-41.148,429.246,902.623,-0.536993,-0.507254,-1.67003,
2026_07_06_21_38_28.933,3.858,43.2,0,0.768,0,0,0,0, ,0,0,0,0,0, ,-41.7,429.1,903.1,-0.6,-0.5,-1.7,25,-41.1755,429.231,902.612,-0.540832,-0.506812,-1.66881,
2026_07_06_21_38_28.952,3.858,43.2,0,0.769,0,0,0,0, ,0,0,0,0,0, ,-41.6,429.1,902.8,-0.6,-0.5,-1.6,25,-41.2044,429.223,902.633,-0.544438,-0.506397,-1.66766,
2026_07_06_21_38_28.972,3.858,43.2,0,0.771,0,0,0,0, ,0,0,0,0,0, ,-41.2,429.8,901.8,-0.6,-0.5,-1.7,25,-41.2164,429.237,902.612,-0.547823,-0.506007,-1.66658,
2026_07_06_21_38_28.992,3.858,43.2,0,0.77,0,0,0,0, ,0,0,0,0,0, ,-42.3,429.6,901.3,-0.5,-0.5,-1.7,25,-41.2489,429.265,902.548,-0.547956,-0.505641,-1.66862,
2026_07_06_21_38_29.012,3.858,43.1,0,0.768,0,0,0,0, ,0,0,0,0,0, ,-41.7,427.6,904.2,-0.7,-0.5,-1.6,25,-41.2946,429.225,902.56,-0.551128,-0.505297,-1.66749,
2026_07_06_21_38_29.033,3.858,43.3,0,0.768,0,0,0,0, ,0,0,0,0,0, ,-41.6,429.6,903.5,-0.6,-0.5,-1.7,25,-41.3163,429.186,902.639,-0.557153,-0.504974,-1.66642,
2026_07_06_21_38_29.051,3.858,43.2,0,0.771,0,0,0,0, ,0,0,0,0,0, ,-41,429.6,902.7,-0.5,-0.5,-1.7,25,-41.3153,429.212,902.667,-0.556717,-0.504671,-1.66847,
2026_07_06_21_38_29.071,3.858,43.3,0,0.771,0,0,0,0, ,0,0,0,0,0, ,-41.6,429.1,903.8,-0.5,-0.5,-1.6,25,-41.3144,429.22,902.702,-0.553261,-0.504387,-1.66734,
