UTC_Time,Vin,TC1,TC2,Rh1,Vh1,Ah1,Acp1,Dty1,Err1,Rh2,Vh2,Ah2,Acp2,Dty2,Err2,Accel_x,Accel_y,Accel_z,gyro_x,gyro_y,gyro_z,Temp_c,Accel_x_h,Accel_y_h,Accel_z_h,gyro_x_h,gyro_y_h,gyro_z_h,
2026_07_06_17_00_05.601,3.869,33.1,0,0.76,0,0,0,0, ,0,0,0,0,0, ,718.9,22.4,689.3,-0.5,-0.1,-1.8,25,718.9,22.4,689.3,-0.5,-0.1,-1.8,
2026_07_06_17_00_05.621,3.869,33.1,0,0.76,0,0,0,0, ,0,0,0,0,0, ,716.9,22,688.9,-0.5,-0.1,-1.6,25,718.839,22.3878,689.288,-0.5,-0.1,-1.79391,
2026_07_06_17_00_05.641,3.869,33.1,0,0.762,0,0,0,0, ,0,0,0,0,0, ,717.7,21.9,687.3,-0.4,-0.2,-1.9,25,718.745,22.3611,689.215,-0.496953,-0.103047,-1.79123,
2026_07_06_17_00_05.660,3.869,33.1,0,0.762,0,0,0,0, ,0,0,0,0,0, ,717.5,23.8,692.6,-0.4,-0.3,-1.7,25,718.676,22.3909,689.26,-0.491045,-0.112002,-1.79177,
2026_07_06_17_00_05.683,3.869,33.1,0,0.76,0,0,0,0, ,0,0,0,0,0, ,716.6,23.4,692.1,-0.7,-0.7,-1.9,25,718.576,22.4646,689.448,-0.494638,-0.135645,-1.79227,
2026_07_06_17_00_05.700,3.869,33.1,0,0.762,0,0,0,0, ,0,0,0,0,0, ,716.9,22.9,692.6,-0.8,-0.7,-1.9,25,718.465,22.5064,689.625,-0.510199,-0.170036,-1.79883,
2026_07_06_17_00_05.720,3.869,33.1,0,0.76,0,0,0,0, ,0,0,0,0,0, ,717.2,23,687.2,-0.9,-1,-1.7,25,718.379,22.5334,689.642,-0.530905,-0.211471,-1.7989,
2026_07_06_17_00_05.740,3.869,33.1,0,0.76,0,0,0,0, ,0,0,0,0,0, ,718.5,21.9,686.5,-0.5,-0.5,-1.8,25,718.347,22.5283,689.472,-0.54121,-0.244288,-1.79592,
2026_07_06_17_00_05.760,3.869,33.1,0,0.759,0,0,0,0, ,0,0,0,0,0, ,718,20.6,686.4,-0.5,-0.2,-1.7,25,718.341,22.4504,689.288,-0.538698,-0.25073,-1.79312,
2026_07_06_17_00_05.780,3.869,33,0,0.762,0,0,0,0, ,0,0,0,0,0, ,718,22.3,689.6,-0.2,0.1,-2,25,718.32,22.3895,689.209,-0.5272,-0.238498,-1.79659,
2026_07_06_17_00_05.799,3.869,33.2,0,0.76,0,0,0,0, ,0,0,0,0,0, ,717.8,23.4,693.4,-0.4,-0.2,-1.8,25,718.294,22.4175,689.349,-0.513355,-0.227011,-1.80289,
2026_07_06_17_00_05.819,3.869,33.1,0,0.762,0,0,0,0, ,0,0,0,0,0, ,714.5,23,690.4,-0.7,-0.7,-1.7,25,718.164,22.4652,689.504,-0.515588,-0.240599,-1.79967,
2026_07_06_17_00_05.839,3.869,33.3,0,0.76,0,0,0,0, ,0,0,0,0,0, ,715.9,21.9,690.4,-0.9,-1.1,-1.9,25,717.983,22.4643,689.559,-0.532919,-0.280782,-1.79969,
2026_07_06_17_00_05.859,3.869,33.1,0,0.76,0,0,0,0, ,0,0,0,0,0, ,718.9,23.4,689.4,-0.6,-1.3,-1.8,25,717.948,22.4756,689.58,-0.546147,-0.336797,-1.80275,
2026_07_06_17_00_05.878,3.869,33.1,0,0.762,0,0,0,0, ,0,0,0,0,0, ,718.6,23.4,688.3,-0.5,-0.9,-1.6,25,717.997,22.5319,689.535,-0.546382,-0.383304,-1.79649,
2026_07_06_17_00_05.898,3.869,33.1,0,0.762,0,0,0,0, ,0,0,0,0,0, ,717.7,22.9,686.7,-0.5,-0.5,-1.8,25,718.006,22.5696,689.411,-0.543556,-0.402603,-1.79061,
2026_07_06_17_00_05.917,3.869,33.1,0,0.76,0,0,0,0, ,0,0,0,0,0, ,717.5,23.5,690.7,-0.5,-0.5,-1.8,25,717.981,22.608,689.368,-0.540902,-0.408538,-1.79119,
2026_07_06_17_00_05.937,3.869,33.2,0,0.761,0,0,0,0, ,0,0,0,0,0, ,718.1,22.2,689.6,-0.7,-0.6,-2,25,717.97,22.6228,689.416,-0.544503,-0.417158,-1.79782,
2026_07_06_17_00_05.958,3.869,33.1,0,0.76,0,0,0,0, ,0,0,0,0,0, ,717.5,22.5,688.7,-0.6,-0.9,-1.7,25,717.96,22.6061,689.399,-0.550932,-0.437441,-1.801,
2026_07_06_17_00_05.977,3.869,33.1,0,0.76,0,0,0,0, ,0,0,0,0,0, ,717.8,20.8,687.6,-0.5,-0.7,-1.8,25,717.941,22.5479,689.323,-0.550875,-0.459534,-1.79789,
2026_07_06_17_00_05.997,3.869,33.1,0,0.76,0,0,0,0, ,0,0,0,0,0, ,717.8,23.3,687.7,-0.2,-0.6,-1.6,25,717.932,22.5175,689.221,-0.538634,-0.471141,-1.79192,
2026_07_06_17_00_06.017,3.869,33.1,0,0.762,0,0,0,0, ,0,0,0,0,0, ,716,23,686.6,-0.2,-0.3,-1.7,25,717.869,22.5561,689.095,-0.517999,-0.469853,-1.78327,
2026_07_06_17_00_06.037,3.869,33.2,0,0.763,0,0,0,0, ,0,0,0,0,0, ,719.2,23.1,684.5,-0.1,0,-1.7,25,717.853,22.5862,688.879,-0.495574,-0.450362,-1.7782,
2026_07_06_17_00_06.056,3.869,33.1,0,0.76,0,0,0,0, ,0,0,0,0,0, ,717.7,22.8,687.7,-0.3,0.3,-1.9,25,717.889,22.6083,688.71,-0.477562,-0.413777,-1.77953,
2026_07_06_17_00_06.076,3.869,33.1,0,0.758,0,0,0,0, ,0,0,0,0,0, ,717.4,24.7,693.7,-0.3,0.1,-1.8,25,717.869,22.6779,688.831,-0.466742,-0.376375,-1.78382,
2026_07_06_17_00_06.095,3.869,33.1,0,0.76,0,0,0,0, ,0,0,0,0,0, ,718,23,692.7,-0.4,-0.5,-1.7,25,717.858,22.7493,689.097,-0.459628,-0.365627,-1.78176,
2026_07_06_17_00_06.115,3.869,33.1,0,0.762,0,0,0,0, ,0,0,0,0,0, ,716.4,22,694.8,-0.6,-0.9,-1.8,25,717.818,22.7341,689.381,-0.462088,-0.386003,-1.77983,
2026_07_06_17_00_06.135,3.869,33.1,0,0.762,0,0,0,0, ,0,0,0,0,0, ,715.8,19.7,689.3,-0.8,-1.2,-1.9,25,717.714,22.6193,689.543,-0.476586,-0.426465,-1.7841,
2026_07_06_17_00_06.155,3.869,33.2,0,0.76,0,0,0,0, ,0,0,0,0,0, ,718.1,21.3,684.6,-0.5,-1,-1.8,25,717.667,22.4902,689.385,-0.487153,-0.467509,-1.78812,
2026_07_06_17_00_06.174,3.869,33.1,0,0.76,0,0,0,0, ,0,0,0,0,0, ,718.8,23.1,685.3,-0.4,-0.5,-1.7,25,717.715,22.4725,689.115,-0.484889,-0.484723,-1.7858,
2026_07_06_17_00_06.195,3.869,33.1,0,0.76,0,0,0,0, ,0,0,0,0,0, ,719.3,24.9,690.7,-0.6,-0.3,-1.7,25,717.796,22.5656,689.047,-0.48581,-0.47956,-1.78057,
2026_07_06_17_00_06.215,3.869,33.1,0,0.76,0,0,0,0, ,0,0,0,0,0, ,716.3,24.2,687.8,-0.5,0.1,-1.6,25,717.796,22.6865,689.059,-0.489722,-0.456431,-1.77261,
2026_07_06_17_00_06.234,3.869,33,0,0.762,0,0,0,0, ,0,0,0,0,0, ,716.4,21.6,686.5,-0.1,0.6,-1.8,25,717.708,22.6995,688.943,-0.478161,-0.407289,-1.76819,
2026_07_06_17_00_06.254,3.869,33,0,0.76,0,0,0,0, ,0,0,0,0,0, ,714.9,23.1,693.1,-0.1,0.6,-1.8,25,717.583,22.6782,688.995,-0.455116,-0.345907,-1.77012,
2026_07_06_17_00_06.274,3.869,33.1,0,0.76,0,0,0,0, ,0,0,0,0,0, ,716.1,25.2,696.4,-0.4,-0.1,-1.7,25,717.456,22.7679,689.346,-0.442617,-0.309594,-1.7689,
2026_07_06_17_00_06.294,3.869,33,0,0.761,0,0,0,0, ,0,0,0,0,0, ,717.4,22.9,697.7,-0.8,-1.3,-1.7,25,717.413,22.846,689.815,-0.452208,-0.333385,-1.7647,
2026_07_06_17_00_06.314,3.869,33.1,0,0.762,0,0,0,0, ,0,0,0,0,0, ,713.6,22.3,692.9,-0.9,-2.3,-1.6,25,717.296,22.831,690.15,-0.476448,-0.422756,-1.75771,
2026_07_06_17_00_06.333,3.869,33,0,0.761,0,0,0,0, ,0,0,0,0,0, ,716,22.2,685.1,-0.6,-2.3,-2,25,717.144,22.7956,690.08,-0.493118,-0.537151,-1.76029,
2026_07_06_17_00_06.353,3.869,33,0,0.761,0,0,0,0, ,0,0,0,0,0, ,721.1,21.7,681.2,-0.4,-1.5,-1.7,25,717.23,22.7441,689.657,-0.493537,-0.6202,-1.76575,
2026_07_06_17_00_06.372,3.869,33.1,0,0.758,0,0,0,0, ,0,0,0,0,0, ,721.8,22.5,681.7,-0.4,-0.8,-1.8,25,717.487,22.7049,689.157,-0.487837,-0.652484,-1.76479,
2026_07_06_17_00_06.393,3.869,33.1,0,0.762,0,0,0,0, ,0,0,0,0,0, ,718.2,23.3,684.5,-0.2,0,-1.7,25,717.64,22.7167,688.788,-0.476391,-0.637098,-1.76389,
2026_07_06_17_00_06.413,3.869,33.2,0,0.762,0,0,0,0, ,0,0,0,0,0, ,716.7,21.6,689.6,-0.1,0.1,-1.7,25,717.629,22.7005,688.682,-0.456501,-0.595228,-1.76,
2026_07_06_17_00_06.435,3.869,33.1,0,0.76,0,0,0,0, ,0,0,0,0,0, ,715.5,21.2,690.3,-0.1,0,-1.8,25,717.535,22.6212,688.759,-0.434777,-0.55591,-1.75939,
2026_07_06_17_00_06.452,3.869,33.1,0,0.758,0,0,0,0, ,0,0,0,0,0, ,717.5,22.9,691.5,-0.4,-0.2,-1.9,25,717.472,22.5864,688.89,-0.423517,-0.528128,-1.76491,
2026_07_06_17_00_06.472,3.869,33.1,0,0.761,0,0,0,0, ,0,0,0,0,0, ,716,23.6,690.6,-0.8,-0.7,-1.7,25,717.428,22.6269,689.022,-0.434272,-0.523367,-1.76705,
2026_07_06_17_00_06.492,3.869,33,0,0.76,0,0,0,0, ,0,0,0,0,0, ,719.1,22.2,687,-0.7,-0.8,-1.8,25,717.436,22.6435,689.008,-0.453511,-0.537177,-1.76601,
2026_07_06_17_00_06.512,3.869,33.1,0,0.762,0,0,0,0, ,0,0,0,0,0, ,716.5,23.6,686.2,-0.3,-0.3,-1.6,25,717.458,22.6591,688.861,-0.456344,-0.537959,-1.76199,
2026_07_06_17_00_06.532,3.869,33.1,0,0.76,0,0,0,0, ,0,0,0,0,0, ,717.5,25.2,687.6,-0.2,0.1,-1.9,25,717.43,22.7652,688.742,-0.44377,-0.511271,-1.76126,
2026_07_06_17_00_06.551,3.869,33.2,0,0.76,0,0,0,0, ,0,0,0,0,0, ,718.6,24.4,693.3,-0.3,0,-1.7,25,717.468,22.8892,688.846,-0.431962,-0.477068,-1.76362,
2026_07_06_17_00_06.571,3.869,33.1,0,0.761,0,0,0,0, ,0,0,0,0,0, ,716.1,21.4,693.1,-0.5,-0.5,-1.8,25,717.461,22.8899,689.111,-0.430015,-0.463231,-1.76279,
2026_07_06_17_00_06.591,3.869,33.1,0,0.76,0,0,0,0, ,0,0,0,0,0, ,715.9,21.2,694.4,-0.7,-1.1,-1.8,25,717.372,22.793,689.394,-0.440373,-0.483753,-1.76506,
2026_07_06_17_00_06.611,3.869,33.1,0,0.762,0,0,0,0, ,0,0,0,0,0, ,716.4,23.4,687.1,-0.9,-1.7,-1.8,25,717.297,22.763,689.477,-0.462288,-0.539587,-1.76719,
2026_07_06_17_00_06.633,3.869,33.1,0,0.761,0,0,0,0, ,0,0,0,0,0, ,719.3,21.7,685.1,-0.9,-1.2,-1.9,25,717.331,22.75,689.271,-0.488961,-0.595065,-1.77223,
2026_07_06_17_00_06.650,3.869,33.1,0,0.761,0,0,0,0, ,0,0,0,0,0, ,716.6,21.4,686.7,-0.7,-0.6,-1.8,25,717.369,22.6769,689.065,-0.507915,-0.613647,-1.77697,
2026_07_06_17_00_06.669,3.869,33.1,0,0.761,0,0,0,0, ,0,0,0,0,0, ,718.5,21.7,686.4,-0.5,-0.2,-1.8,25,717.38,22.6082,688.912,-0.513526,-0.600628,-1.77837,
2026_07_06_17_00_06.690,3.869,33.1,0,0.762,0,0,0,0, ,0,0,0,0,0, ,717.8,24.6,686.6,-0.5,0.2,-1.8,25,717.427,22.6412,688.765,-0.512702,-0.564027,-1.77969,
2026_07_06_17_00_06.710,3.869,33.1,0,0.761,0,0,0,0, ,0,0,0,0,0, ,718.9,23.3,689.5,-0.3,0.4,-1.7,25,717.483,22.721,688.722,-0.505834,-0.511376,-1.77788,
2026_07_06_17_00_06.730,3.869,33.1,0,0.761,0,0,0,0, ,0,0,0,0,0, ,713.1,23.8,696.1,-0.2,0,-1.8,25,717.392,22.7715,688.97,-0.490244,-0.468026,-1.77618,
2026_07_06_17_00_06.749,3.869,33,0,0.763,0,0,0,0, ,0,0,0,0,0, ,715.4,22.8,694.2,-0.5,-0.8,-1.8,25,717.201,22.8037,689.347,-0.481698,-0.463881,-1.77764,
2026_07_06_17_00_06.769,3.869,33.1,0,0.761,0,0,0,0, ,0,0,0,0,0, ,715.3,22.2,691.1,-0.7,-1.4,-1.7,25,717.088,22.7852,689.548,-0.488907,-0.502644,-1.77595,
2026_07_06_17_00_06.788,3.869,33.1,0,0.761,0,0,0,0, ,0,0,0,0,0, ,718.2,22.3,688.9,-0.5,-1.8,-1.8,25,717.068,22.7526,689.575,-0.495677,-0.569514,-1.77437,
2026_07_06_17_00_06.808,3.869,33.1,0,0.76,0,0,0,0, ,0,0,0,0,0, ,717.8,21.6,685.7,-0.6,-1.7,-1.7,25,717.124,22.7037,689.437,-0.498987,-0.64145,-1.77288,
2026_07_06_17_00_06.828,3.869,33.1,0,0.761,0,0,0,0, ,0,0,0,0,0, ,720.4,23.4,684.8,-0.7,-1.2,-1.8,25,717.245,22.6912,689.182,-0.50819,-0.690721,-1.77149,
2026_07_06_17_00_06.847,3.869,33.1,0,0.761,0,0,0,0, ,0,0,0,0,0, ,717.1,22.5,685.3,-0.5,-0.7,-1.6,25,717.337,22.707,688.93,-0.513784,-0.706521,-1.76713,
2026_07_06_17_00_06.868,3.869,33.1,0,0.761,0,0,0,0, ,0,0,0,0,0, ,717.8,22.2,687.2,-0.3,-0.2,-1.8,25,717.343,22.6853,688.767,-0.506851,-0.690889,-1.76304,
2026_07_06_17_00_06.888,3.869,33,0,0.76,0,0,0,0, ,0,0,0,0,0, ,716.7,21.6,686.5,-0.2,0,-1.6,25,717.338,22.6374,688.65,-0.491199,-0.654882,-1.7592,
2026_07_06_17_00_06.907,3.869,33.1,0,0.759,0,0,0,0, ,0,0,0,0,0, ,716.4,21.8,688.7,-0.2,0,-1.8,25,717.29,22.5803,688.586,-0.473454,-0.614975,-1.75559,
2026_07_06_17_00_06.927,3.869,33.1,0,0.762,0,0,0,0, ,0,0,0,0,0, ,718,23.4,691.8,-0.2,-0.1,-1.7,25,717.284,22.5815,688.687,-0.45679,-0.580547,-1.75525,
2026_07_06_17_00_06.947,3.869,33,0,0.761,0,0,0,0, ,0,0,0,0,0, ,716.9,22.8,691.6,-0.5,-0.6,-1.7,25,717.294,22.6131,688.871,-0.450283,-0.566498,-1.75189,
2026_07_06_17_00_06.966,3.869,33.1,0,0.762,0,0,0,0, ,0,0,0,0,0, ,716.4,23.8,692.2,-0.7,-0.9,-1.9,25,717.255,22.6549,689.055,-0.459406,-0.57768,-1.75482,
2026_07_06_17_00_06.986,3.869,33.1,0,0.761,0,0,0,0, ,0,0,0,0,0, ,718,23.1,687.6,-0.7,-1.1,-1.8,25,717.252,22.7034,689.107,-0.474067,-0.603415,-1.76062,
2026_07_06_17_00_07.007,3.869,33.1,0,0.761,0,0,0,0, ,0,0,0,0,0, ,718.2,23.1,686.7,-0.5,-0.8,-1.7,25,717.303,22.7276,688.988,-0.481741,-0.624535,-1.75997,
2026_07_06_17_00_07.025,3.869,33.1,0,0.761,0,0,0,0, ,0,0,0,0,0, ,717.2,22.5,687.2,-0.3,-0.4,-1.7,25,717.328,22.732,688.863,-0.47676,-0.62304,-1.75632,
2026_07_06_17_00_07.048,3.869,33.1,0,0.762,0,0,0,0, ,0,0,0,0,0, ,716.9,21.3,687.1,-0.4,-0.2,-1.8,25,717.311,22.6813,688.759,-0.469036,-0.603355,-1.75593,
2026_07_06_17_00_07.065,3.869,33.1,0,0.762,0,0,0,0, ,0,0,0,0,0, ,718.5,21.8,687.1,-0.4,0,-1.8,25,717.334,22.6123,688.658,-0.464829,-0.572682,-1.75862,
2026_07_06_17_00_07.085,3.869,33.1,0,0.761,0,0,0,0, ,0,0,0,0,0, ,716.9,22.7,689.2,-0.4,0,-1.9,25,717.357,22.5903,688.627,-0.460878,-0.537784,-1.76419,
2026_07_06_17_00_07.106,3.869,33.1,0,0.76,0,0,0,0, ,0,0,0,0,0, ,717,25,691.2,-0.4,-0.2,-1.7,25,717.332,22.667,688.723,-0.457169,-0.511106,-1.76637,
2026_07_06_17_00_07.124,3.869,33.1,0,0.76,0,0,0,0, ,0,0,0,0,0, ,716,23.4,694.3,-0.4,-0.5,-1.6,25,717.281,22.7604,688.968,-0.453685,-0.501289,-1.75928,
2026_07_06_17_00_07.145,3.869,33.1,0,0.761,0,0,0,0, ,0,0,0,0,0, ,717,23,688.4,-0.7,-0.6,-1.6,25,717.234,22.7872,689.113,-0.459554,-0.504257,-1.74957,
2026_07_06_17_00_07.165,3.869,33.1,0,0.761,0,0,0,0, ,0,0,0,0,0, ,717.5,22.8,687.2,-0.6,-0.3,-1.8,25,717.235,22.7941,689.033,-0.471159,-0.500951,-1.74655,
2026_07_06_17_00_07.184,3.869,33.1,0,0.761,0,0,0,0, ,0,0,0,0,0, ,716.4,23.6,691.8,-0.3,-0.2,-1.7,25,717.217,22.8188,689.062,-0.46987,-0.485659,-1.74676,
2026_07_06_17_00_07.203,3.869,33.1,0,0.761,0,0,0,0, ,0,0,0,0,0, ,716.1,22.8,693.1,-0.6,-1.1,-1.8,25,717.158,22.8421,689.268,-0.468659,-0.495673,-1.74696,
2026_07_06_17_00_07.231,3.869,33.1,0,0.761,0,0,0,0, ,0,0,0,0,0, ,716.9,23,689.6,-0.9,-1.6,-1.8,25,717.118,22.8456,689.395,-0.485803,-0.547734,-1.75019,
2026_07_06_17_00_07.244,3.869,33.1,0,0.762,0,0,0,0, ,0,0,0,0,0, ,716.3,22,687.3,-0.7,-1.6,-1.7,25,717.087,22.8245,689.338,-0.50495,-0.611856,-1.75018,
2026_07_06_17_00_07.263,3.869,33.1,0,0.761,0,0,0,0, ,0,0,0,0,0, ,717.6,22,685.7,-0.3,-1.3,-1.7,25,717.078,22.7743,689.165,-0.504648,-0.662931,-1.74712,
2026_07_06_17_00_07.284,3.869,33.1,0,0.762,0,0,0,0, ,0,0,0,0,0, ,718.3,23.5,686.5,-0.2,-0.9,-1.7,25,717.131,22.7728,688.978,-0.48913,-0.689565,-1.74425,
2026_07_06_17_00_07.303,3.869,33.2,0,0.761,0,0,0,0, ,0,0,0,0,0, ,718.8,22.2,683.3,-0.5,-0.5,-1.8,25,717.218,22.7775,688.729,-0.480652,-0.6902,-1.7446,
2026_07_06_17_00_07.324,3.869,33.1,0,0.761,0,0,0,0, ,0,0,0,0,0, ,718,22.9,687.8,-0.4,-0.1,-1.7,25,717.29,22.7636,688.536,-0.478784,-0.666423,-1.74493,
2026_07_06_17_00_07.343,3.869,33.1,0,0.76,0,0,0,0, ,0,0,0,0,0, ,717.6,22.7,689.4,-0.2,-0.1,-1.7,25,717.321,22.7659,688.54,-0.46789,-0.631906,-1.74219,
2026_07_06_17_00_07.363,3.869,33.1,0,0.76,0,0,0,0, ,0,0,0,0,0, ,715.3,21.8,691.4,-0.1,-0.4,-1.7,25,717.268,22.7344,688.653,-0.448518,-0.608634,-1.73962,
2026_07_06_17_00_07.382,3.869,33.1,0,0.762,0,0,0,0, ,0,0,0,0,0, ,717.8,22.4,688.5,-0.2,-0.8,-1.8,25,717.224,22.6958,688.732,-0.430327,-0.608108,-1.74025,
2026_07_06_17_00_07.403,3.869,33,0,0.762,0,0,0,0, ,0,0,0,0,0, ,718.2,24.2,686.6,-0.5,-0.6,-1.8,25,717.271,22.7326,688.66,-0.425432,-0.613707,-1.74389,
2026_07_06_17_00_07.422,3.869,33.2,0,0.761,0,0,0,0, ,0,0,0,0,0, ,720,25.6,686.4,-0.5,-0.1,-1.8,25,717.383,22.8647,688.528,-0.429976,-0.597638,-1.74731,
2026_07_06_17_00_07.441,3.869,33.1,0,0.762,0,0,0,0, ,0,0,0,0,0, ,716.7,24.5,688.8,-0.2,0,-1.6,25,717.442,22.9978,688.472,-0.425103,-0.564266,-1.74443,
2026_07_06_17_00_07.463,3.869,33.1,0,0.761,0,0,0,0, ,0,0,0,0,0, ,716.5,23,690.6,-0.2,-0.2,-1.8,25,717.391,23.0437,688.547,-0.411386,-0.535975,-1.74172,
2026_07_06_17_00_07.482,3.869,33.1,0,0.762,0,0,0,0, ,0,0,0,0,0, ,719.4,23.3,691.1,-0.4,-0.2,-1.8,25,717.425,23.0501,688.687,-0.404598,-0.515501,-1.74527,
2026_07_06_17_00_07.500,3.869,33.1,0,0.762,0,0,0,0, ,0,0,0,0,0, ,715.4,23.1,694.2,-0.7,-0.7,-1.7,25,717.423,23.0593,688.928,-0.413458,-0.51151,-1.74556,
2026_07_06_17_00_07.521,3.869,33.1,0,0.76,0,0,0,0, ,0,0,0,0,0, ,715.8,21.1,690.3,-0.8,-1.2,-1.8,25,717.312,23.0008,689.131,-0.433966,-0.53823,-1.74583,
2026_07_06_17_00_07.540,3.869,33.1,0,0.762,0,0,0,0, ,0,0,0,0,0, ,719.4,22.4,683.1,-0.9,-1.1,-1.8,25,717.33,22.9246,688.983,-0.459318,-0.57551,-1.74913,
2026_07_06_17_00_07.561,3.869,33.1,0,0.763,0,0,0,0, ,0,0,0,0,0, ,720,23.1,686,-0.5,-0.5,-1.8,25,717.474,22.914,688.713,-0.473985,-0.58919,-1.75223,
2026_07_06_17_00_07.580,3.869,33,0,0.761,0,0,0,0, ,0,0,0,0,0, ,716.9,23.6,687.5,-0.7,-0.2,-1.7,25,717.533,22.9405,688.593,-0.481664,-0.574614,-1.7521,
2026_07_06_17_00_07.600,3.869,33.1,0,0.76,0,0,0,0, ,0,0,0,0,0, ,716.9,22.7,687.2,-0.6,-0.3,-1.8,25,717.495,22.9533,688.517,-0.491922,-0.554833,-1.75197,
2026_07_06_17_00_07.620,3.869,33,0,0.761,0,0,0,0, ,0,0,0,0,0, ,716.7,22.7,690.9,-0.6,-0.4,-1.8,25,717.453,22.9379,688.55,-0.498508,-0.542351,-1.7549,
2026_07_06_17_00_07.640,3.869,33,0,0.762,0,0,0,0, ,0,0,0,0,0, ,716.4,22.8,690.9,-0.4,-0.5,-1.9,25,717.398,22.9264,688.693,-0.498599,-0.536723,-1.76069,
2026_07_06_17_00_07.660,3.869,33.1,0,0.761,0,0,0,0, ,0,0,0,0,0, ,718,24.4,689.6,-0.6,-0.8,-1.8,25,717.386,22.9675,688.788,-0.498684,-0.543626,-1.76613,
2026_07_06_17_00_07.680,3.869,33.1,0,0.761,0,0,0,0, ,0,0,0,0,0, ,717.7,23,690.9,-0.5,-1,-1.6,25,717.414,23.0121,688.877,-0.501811,-0.565343,-1.7621,
2026_07_06_17_00_07.700,3.869,33.1,0,0.761,0,0,0,0, ,0,0,0,0,0, ,716.9,21.3,689.9,-0.6,-1.1,-1.5,25,717.407,22.9596,688.97,-0.504748,-0.594877,-1.74918,
2026_07_06_17_00_07.720,3.869,33.1,0,0.761,0,0,0,0, ,0,0,0,0,0, ,718.6,22.5,685.9,-0.4,-1,-1.8,25,717.428,22.895,688.905,-0.504459,-0.622611,-1.74313,
2026_07_06_17_00_07.738,3.869,33,0,0.76,0,0,0,0, ,0,0,0,0,0, ,717.8,22.2,686.6,-0.3,-0.9,-1.8,25,717.475,22.8618,688.743,-0.495046,-0.642561,-1.7466,
2026_07_06_17_00_07.759,3.869,33,0,0.762,0,0,0,0, ,0,0,0,0,0, ,719.1,23.8,689.8,-0.6,-0.9,-1.8,25,717.534,22.8702,688.71,-0.492301,-0.658249,-1.74985,
2026_07_06_17_00_07.778,3.869,33.1,0,0.762,0,0,0,0, ,0,0,0,0,0, ,719.4,22.4,687.1,-0.6,-0.7,-1.7,25,717.639,22.8842,688.694,-0.498864,-0.666887,-1.74986,
2026_07_06_17_00_07.799,3.869,33.1,0,0.761,0,0,0,0, ,0,0,0,0,0, ,718.8,21.8,682.4,-0.2,-0.4,-1.6,25,717.728,22.8364,688.454,-0.49284,-0.659764,-1.74378,
2026_07_06_17_00_07.818,3.869,33,0,0.761,0,0,0,0, ,0,0,0,0,0, ,716.7,23.5,687.5,0,0,-1.8,25,717.729,22.8251,688.24,-0.468901,-0.631747,-1.74111,
2026_07_06_17_00_07.838,3.869,33,0,0.762,0,0,0,0, ,0,0,0,0,0, ,717.1,24.5,689.5,-0.4,-0.3,-1.7,25,717.679,22.8967,688.256,-0.452515,-0.602391,-1.74165,
2026_07_06_17_00_07.858,3.869,33.2,0,0.761,0,0,0,0, ,0,0,0,0,0, ,717.1,22.9,692.7,-0.5,-0.7,-1.8,25,717.643,22.9456,688.429,-0.452362,-0.596151,-1.74216,
2026_07_06_17_00_07.877,3.869,33.1,0,0.761,0,0,0,0, ,0,0,0,0,0, ,719.1,21.8,685.5,-0.7,-1,-1.8,25,717.671,22.9093,688.47,-0.461358,-0.61162,-1.74568,
2026_07_06_17_00_07.898,3.869,33.1,0,0.761,0,0,0,0, ,0,0,0,0,0, ,717.5,23,687.8,-0.3,-0.7,-1.7,25,717.71,22.8783,688.359,-0.463713,-0.626146,-1.74595,
2026_07_06_17_00_07.916,3.869,33.1,0,0.762,0,0,0,0, ,0,0,0,0,0, ,718.3,22.8,687.5,-0.4,-0.6,-1.6,25,717.721,22.8796,688.316,-0.456784,-0.6276,-1.7401,
2026_07_06_17_00_07.937,3.869,33.1,0,0.762,0,0,0,0, ,0,0,0,0,0, ,717.6,23.5,684.5,-0.4,-0.2,-1.8,25,717.735,22.8961,688.175,-0.453323,-0.613731,-1.73766,
2026_07_06_17_00_07.957,3.869,33.2,0,0.762,0,0,0,0, ,0,0,0,0,0, ,718.9,24.6,689,-0.5,0,-1.8,25,717.766,22.9664,688.088,-0.453121,-0.582425,-1.74146,
2026_07_06_17_00_07.980,3.869,33.2,0,0.761,0,0,0,0, ,0,0,0,0,0, ,717.8,25,689,-0.5,0,-1.8,25,717.802,23.0781,688.144,-0.455978,-0.546934,-1.74502,
2026_07_06_17_00_07.996,3.869,33.1,0,0.761,0,0,0,0, ,0,0,0,0,0, ,715.3,21.7,692.1,-0.6,-0.3,-1.7,25,717.726,23.0947,688.29,-0.461707,-0.522745,-1.74533,
2026_07_06_17_00_08.016,3.869,33.1,0,0.761,0,0,0,0, ,0,0,0,0,0, ,717.8,22.5,686.8,-0.6,-0.4,-1.8,25,717.654,23.0341,688.361,-0.470134,-0.512219,-1.74561,
2026_07_06_17_00_08.036,3.869,33.1,0,0.762,0,0,0,0, ,0,0,0,0,0, ,716.6,24.9,695,-0.6,-0.6,-1.7,25,717.626,23.0747,688.516,-0.478048,-0.511474,-1.74588,
2026_07_06_17_00_08.056,3.869,33.1,0,0.761,0,0,0,0, ,0,0,0,0,0, ,717.2,24.6,688.5,-0.8,-0.9,-1.7,25,717.582,23.1768,688.713,-0.491573,-0.526009,-1.74308,
2026_07_06_17_00_08.074,3.869,33.2,0,0.761,0,0,0,0, ,0,0,0,0,0, ,718,22.5,685.9,-0.5,-0.4,-1.7,25,717.583,23.1995,688.621,-0.501227,-0.533565,-1.74046,
2026_07_06_17_00_08.095,3.869,33.2,0,0.761,0,0,0,0, ,0,0,0,0,0, ,720,23,685.5,-0.4,0.1,-1.7,25,717.67,23.1721,688.443,-0.498106,-0.510192,-1.73799,
2026_07_06_17_00_08.114,3.869,33.1,0,0.761,0,0,0,0, ,0,0,0,0,0, ,716.5,23.3,694.2,-0.5,0.1,-1.7,25,717.705,23.1708,688.528,-0.495174,-0.473008,-1.73568,
2026_07_06_17_00_08.135,3.869,33.1,0,0.761,0,0,0,0, ,0,0,0,0,0, ,715.4,22.5,693.9,-0.8,-0.6,-1.7,25,717.598,23.1543,688.865,-0.504609,-0.459418,-1.7335,
2026_07_06_17_00_08.157,3.869,33.1,0,0.762,0,0,0,0, ,0,0,0,0,0, ,715.9,20.6,690.4,-1,-1.3,-1.8,25,717.479,23.0565,689.065,-0.528703,-0.489313,-1.73451,
2026_07_06_17_00_08.175,3.869,33.1,0,0.762,0,0,0,0, ,0,0,0,0,0, ,716.6,22.8,688.3,-0.5,-1.7,-1.7,25,717.404,22.9738,689.082,-0.542188,-0.550902,-1.73545,
2026_07_06_17_00_08.194,3.869,33.1,0,0.761,0,0,0,0, ,0,0,0,0,0, ,718.7,22.3,684,-0.6,-1.5,-1.8,25,717.419,22.948,688.904,-0.542664,-0.614831,-1.73634,
2026_07_06_17_00_08.214,3.869,33.1,0,0.761,0,0,0,0, ,0,0,0,0,0, ,718.6,22.4,685,-0.4,-0.7,-1.7,25,717.494,22.9116,688.635,-0.540064,-0.644396,-1.73717,
2026_07_06_17_00_08.234,3.869,33.1,0,0.761,0,0,0,0, ,0,0,0,0,0, ,720.4,23.4,685.4,-0.5,-0.2,-1.8,25,717.617,22.9109,688.426,-0.534576,-0.63255,-1.73795,
2026_07_06_17_00_08.253,3.869,33.1,0,0.761,0,0,0,0, ,0,0,0,0,0, ,718.6,22.5,687.2,-0.2,0,-1.6,25,717.731,22.9133,688.296,-0.523329,-0.600098,-1.73564,
2026_07_06_17_00_08.273,3.869,33.1,0,0.761,0,0,0,0, ,0,0,0,0,0, ,714.1,21.1,688.1,-0.2,0,-1.8,25,717.647,22.8454,688.257,-0.503626,-0.56353,-1.73347,
2026_07_06_17_00_08.293,3.869,33.1,0,0.762,0,0,0,0, ,0,0,0,0,0, ,716.9,21.8,692.8,-0.2,-0.4,-2,25,717.516,22.7604,688.391,-0.485124,-0.541377,-1.74362,
2026_07_06_17_00_08.314,3.869,33.1,0,0.761,0,0,0,0, ,0,0,0,0,0, ,719.2,23.4,690,-0.4,-0.6,-1.8,25,717.549,22.7506,688.574,-0.473843,-0.538856,-1.75315,
2026_07_06_17_00_08.333,3.869,33,0,0.761,0,0,0,0, ,0,0,0,0,0, ,718.8,23.1,687.5,-0.5,-0.5,-1.7,25,717.637,22.781,688.585,-0.47239,-0.539535,-1.75295,
2026_07_06_17_00_08.353,3.869,33.1,0,0.761,0,0,0,0, ,0,0,0,0,0, ,718,24.2,685.7,-0.3,0.1,-1.8,25,717.684,22.834,688.464,-0.467978,-0.518844,-1.75277,
2026_07_06_17_00_08.372,3.869,33.1,0,0.762,0,0,0,0, ,0,0,0,0,0, ,716.3,23,685.5,0,0.8,-1.8,25,717.651,22.8807,688.289,-0.448602,-0.459805,-1.75565,
2026_07_06_17_00_08.393,3.869,33,0,0.761,0,0,0,0, ,0,0,0,0,0, ,715.5,24.2,693.7,0,0.7,-1.9,25,717.545,22.9245,688.369,-0.421265,-0.386083,-1.7614,
2026_07_06_17_00_08.412,3.869,33.1,0,0.761,0,0,0,0, ,0,0,0,0,0, ,715.3,25,696,-0.4,0.2,-1.8,25,717.414,23.0266,688.764,-0.407782,-0.335134,-1.7668,
2026_07_06_17_00_08.431,3.869,33.1,0,0.761,0,0,0,0, ,0,0,0,0,0, ,714.9,25.2,696.2,-0.7,-0.2,-1.8,25,717.273,23.153,689.211,-0.416448,-0.314712,-1.76882,
2026_07_06_17_00_08.451,3.869,33.2,0,0.76,0,0,0,0, ,0,0,0,0,0, ,711.4,22.4,693.7,-0.8,-1.1,-1.9,25,717.022,23.1924,689.561,-0.436774,-0.335143,-1.77377,
2026_07_06_17_00_08.472,3.869,33.1,0,0.762,0,0,0,0, ,0,0,0,0,0, ,716.9,22.5,695.1,-0.9,-1.8,-2,25,716.847,23.1471,689.856,-0.461955,-0.40308,-1.78451,
2026_07_06_17_00_08.490,3.869,33.1,0,0.76,0,0,0,0, ,0,0,0,0,0, ,723,23.3,688.8,-1.1,-1.9,-1.7,25,717.036,23.1321,689.983,-0.494742,-0.491252,-1.7885,
2026_07_06_17_00_08.511,3.869,33.2,0,0.76,0,0,0,0, ,0,0,0,0,0, ,728.1,22.7,692,-1.2,-2.2,-0.7,25,717.555,23.124,690.009,-0.534672,-0.586238,-1.75264,
2026_07_06_17_00_08.530,3.869,33.1,0,0.761,0,0,0,0, ,0,0,0,0,0, ,714.8,22.9,714.9,-0.9,-5.4,1.3,25,717.792,23.1043,690.828,-0.566075,-0.782077,-1.62756,
2026_07_06_17_00_08.553,3.869,33.1,0,0.761,0,0,0,0, ,0,0,0,0,0, ,704.8,46.3,758.6,-2.9,-13.4,0.5,25,717.305,23.8048,693.626,-0.647361,-1.30723,-1.47353,
2026_07_06_17_00_08.570,3.869,33.1,0,0.761,0,0,0,0, ,0,0,0,0,0, ,773.5,54.1,775.2,-9.6,-24.6,1.6,25,718.636,25.4133,698.091,-0.988771,-2.38538,-1.31976,
2026_07_06_17_00_08.590,3.869,33.1,0,0.761,0,0,0,0, ,0,0,0,0,0, ,865.3,67.7,712.7,2.7,-33.4,-12.9,25,724.776,27.5757,700.886,-1.13875,-4.00721,-1.58363,
2026_07_06_17_00_08.610,3.869,33.1,0,0.761,0,0,0,0, ,0,0,0,0,0, ,1016.9,11.2,693.9,0.8,-65.2,2.7,25,737.959,28.2993,701.033,-0.962719,-6.76724,-1.79791,
2026_07_06_17_00_08.630,3.869,33.1,0,0.761,0,0,0,0, ,0,0,0,0,0, ,1002.4,25.1,671.7,2.4,-88,34.1,25,754.515,27.6809,699.922,-0.806554,-11.0227,-0.567098,
2026_07_06_17_00_08.650,3.869,33.2,0,0.761,0,0,0,0, ,0,0,0,0,0, ,940,41.6,676.5,6.8,-90.5,44.6,25,767.719,28.0263,698.348,-0.477092,-15.7897,1.86535,
2026_07_06_17_00_08.669,3.869,33.1,0,0.761,0,0,0,0, ,0,0,0,0,0, ,875,48.4,707.7,7.9,-100.4,47.8,25,776.237,29.0606,697.968,-0.000128336,-20.644,4.56699,
2026_07_06_17_00_08.690,3.869,33.1,0,0.762,0,0,0,0, ,0,0,0,0,0, ,855.5,42.2,678.4,6.3,-114.3,44.2,25,781.661,30.0502,697.668,0.432536,-25.9276,7.09182,
2026_07_06_17_00_08.708,3.869,33.1,0,0.762,0,0,0,0, ,0,0,0,0,0, ,908.4,0,632.8,6.5,-123.1,44.3,25,787.773,29.5048,695.104,0.796178,-31.5809,9.35614,
2026_07_06_17_00_08.728,3.869,33.1,0,0.761,0,0,0,0, ,0,0,0,0,0, ,935.9,-28.3,530.8,5.4,-136.5,50.3,25,795.961,26.8446,688.2,1.11024,-37.5661,11.6683,
2026_07_06_17_00_08.753,3.869,33.1,0,0.761,0,0,0,0, ,0,0,0,0,0, ,908.2,-35.1,460.3,8,-160.6,57.4,25,803.645,23.2771,676.46,1.45087,-44.3292,14.2388,
2026_07_06_17_00_08.769,3.869,33.1,0,0.761,0,0,0,0, ,0,0,0,0,0, ,857.6,-46.9,381.5,8.7,-188.2,57.4,25,808.474,19.3602,660.887,1.87128,-52.2554,16.8689,
2026_07_06_17_00_08.788,3.869,33.1,0,0.76,0,0,0,0, ,0,0,0,0,0, ,856,-71.1,328.1,9,-219.4,51.4,25,811.419,14.5851,642.235,2.29655,-61.4902,19.156,
2026_07_06_17_00_08.808,3.869,33.1,0,0.762,0,0,0,0, ,0,0,0,0,0, ,906.9,-153.5,262.6,21.4,-242.9,46.2,25,815.687,6.85304,621.097,3.08285,-71.8288,20.9624,
2026_07_06_17_00_08.829,3.869,33,0,0.762,0,0,0,0, ,0,0,0,0,0, ,868.4,-88.9,152.3,36.2,-241.2,43.3,25,820.072,-0.950195,595.89,4.64999,-82.2017,22.412,
2026_07_06_17_00_08.849,3.869,33.1,0,0.761,0,0,0,0, ,0,0,0,0,0, ,882.8,-127.4,126,30.5,-237.2,50.6,25,823.456,-7.48268,568.057,6.3989,-91.7687,23.9073,
2026_07_06_17_00_08.867,3.869,33.1,0,0.761,0,0,0,0, ,0,0,0,0,0, ,868,-162.5,83.4,19.6,-215.1,42.8,25,826.621,-15.8596,539.822,7.53545,-99.9576,25.2962,
2026_07_06_17_00_08.887,3.869,33.1,0,0.762,0,0,0,0, ,0,0,0,0,0, ,835.9,-161.4,-1.8,19.3,-208.4,34.4,25,828.165,-24.762,509.412,8.26149,-106.77,26.1069,
2026_07_06_17_00_08.907,3.869,33.1,0,0.762,0,0,0,0, ,0,0,0,0,0, ,845.7,-176.6,-64.2,11.2,-223.9,34.9,25,828.935,-33.5515,476.359,8.68735,-113.435,26.6275,
2026_07_06_17_00_08.926,3.869,33.1,0,0.762,0,0,0,0, ,0,0,0,0,0, ,879.2,-206.6,-111.9,-6.3,-206.8,32.5,25,830.977,-43.1826,441.966,8.30726,-119.646,27.0585,
2026_07_06_17_00_08.951,3.869,33.2,0,0.762,0,0,0,0, ,0,0,0,0,0, ,861.2,-235.5,-145,-15.7,-165.9,26.2,25,833.367,-54.0214,407.206,7.13073,-123.711,27.1981,
2026_07_06_17_00_08.966,3.869,33.1,0,0.761,0,0,0,0, ,0,0,0,0,0, ,775.7,-244.7,-231.2,-11.9,-141.8,20.3,25,832.458,-65.3605,370.929,5.85526,-125.547,26.9575,
2026_07_06_17_00_08.986,3.869,33.2,0,0.761,0,0,0,0, ,0,0,0,0,0, ,716,-235.1,-281.4,-11.4,-154.6,14.4,25,827.18,-75.9965,332.708,4.78854,-126.928,26.3721,
2026_07_06_17_00_09.005,3.869,33.2,0,0.761,0,0,0,0, ,0,0,0,0,0, ,710.5,-219.4,-344.1,-20.6,-178.5,8.2,25,820.238,-85.2135,293.375,3.52173,-129.342,25.4536,
2026_07_06_17_00_09.025,3.869,33.1,0,0.763,0,0,0,0, ,0,0,0,0,0, ,723.8,-247.1,-347.9,11.4,-173.4,-25.4,25,813.956,-94.2345,254.413,3.02682,-132.182,23.3785,
2026_07_06_17_00_09.045,3.869,33.1,0,0.761,0,0,0,0, ,0,0,0,0,0, ,723.6,-237.6,-440.1,-26.5,-140,-6.8,25,808.456,-103.26,214.9,2.38229,-133.676,20.9727,
2026_07_06_17_00_09.066,3.869,33,0,0.761,0,0,0,0, ,0,0,0,0,0, ,532.1,-154.5,-656,-20.7,-142.3,-19.6,25,797.45,-108.915,168.408,0.798995,-134.132,18.8903,
2026_07_06_17_00_09.085,3.869,33.2,0,0.761,0,0,0,0, ,0,0,0,0,0, ,687,-211.4,-590.5,27.1,-238.1,-66.5,25,786,-113.426,120.167,0.945307,-137.548,15.1159,
2026_07_06_17_00_09.104,3.869,33.1,0,0.761,0,0,0,0, ,0,0,0,0,0, ,688.8,-220.5,-656.3,18.9,-250.1,-58,25,780.022,-119.674,74.8554,2.28926,-144.041,10.4014,
2026_07_06_17_00_09.124,3.869,33.1,0,0.761,0,0,0,0, ,0,0,0,0,0, ,736.4,-221.8,-673.3,-8.6,-211.8,-25.6,25,775.914,-125.857,29.7827,2.46359,-149.337,7.22035,
2026_07_06_17_00_09.144,3.869,33,0,0.762,0,0,0,0, ,0,0,0,0,0, ,646.3,-234.1,-726.9,-10.9,-134.8,-11.7,25,770.76,-132.079,-14.6945,1.71932,-150.798,5.64388,
2026_07_06_17_00_09.165,3.869,33.1,0,0.761,0,0,0,0, ,0,0,0,0,0, ,607.4,-113.2,-722.2,-27.4,-93.8,5.7,25,761.991,-134.612,-57.9514,0.4476,-148.573,5.11714,
2026_07_06_17_00_09.184,3.869,33.1,0,0.762,0,0,0,0, ,0,0,0,0,0, ,517.5,-100.2,-783.8,-42.9,-103.8,3.7,25,749.831,-132.911,-100.306,-1.72163,-145.54,5.09172,
2026_07_06_17_00_09.204,3.869,33.1,0,0.762,0,0,0,0, ,0,0,0,0,0, ,525,-116.8,-827.2,-41,-117.9,-5,25,735.902,-131.424,-143.279,-4.17304,-143.426,4.74184,
2026_07_06_17_00_09.224,3.869,33.1,0,0.761,0,0,0,0, ,0,0,0,0,0, ,536.6,-140.1,-886.1,-44.2,-83.4,0.2,25,723.404,-131.242,-186.75,-6.51469,-140.82,4.30663,
2026_07_06_17_00_09.242,3.869,33.1,0,0.76,0,0,0,0, ,0,0,0,0,0, ,520.2,-110.5,-937.6,-36.4,-44.6,2.3,25,711.521,-130.88,-230.935,-8.57348,-136.139,4.12037,
2026_07_06_17_00_09.264,3.869,33.1,0,0.761,0,0,0,0, ,0,0,0,0,0, ,503.5,-91.4,-932.4,-30.3,-9.1,1.9,25,699.353,-129.056,-273.839,-10.0833,-129.479,3.99725,
2026_07_06_17_00_09.283,3.869,33.1,0,0.761,0,0,0,0, ,0,0,0,0,0, ,476.5,-78.8,-910.6,-33.2,-5.8,3.2,25,686.596,-126.378,-313.306,-11.4036,-122.043,3.90906,
2026_07_06_17_00_09.303,3.869,33.1,0,0.761,0,0,0,0, ,0,0,0,0,0, ,462.5,-71.7,-917.1,-33.2,-15.2,3.3,25,673.367,-123.262,-349.902,-12.7318,-115.246,3.8689,
2026_07_06_17_00_09.323,3.869,33.1,0,0.76,0,0,0,0, ,0,0,0,0,0, ,452.1,-64,-942.9,-26.2,-13.9,-2.2,25,660.2,-119.885,-385.252,-13.7658,-109.109,3.66665,
2026_07_06_17_00_09.342,3.869,33.1,0,0.761,0,0,0,0, ,0,0,0,0,0, ,457.2,-65,-979.2,-17.6,-5.1,-6.3,25,647.674,-116.51,-420.339,-14.2615,-103.039,3.18423,
2026_07_06_17_00_09.362,3.869,33.2,0,0.763,0,0,0,0, ,0,0,0,0,0, ,480.3,-69.7,-952.6,-8.4,3.5,-6.9,25,636.771,-113.515,-453.584,-14.1846,-96.8092,2.588,
2026_07_06_17_00_09.382,3.869,33.1,0,0.761,0,0,0,0, ,0,0,0,0,0, ,512.8,-71,-922.6,-4.9,10.5,-2.4,25,628.226,-110.884,-483.079,-13.7255,-90.4834,2.14694,
2026_07_06_17_00_09.402,3.869,33.1,0,0.761,0,0,0,0, ,0,0,0,0,0, ,494.8,-56.5,-893,-6.5,9.8,2.9,25,620.644,-108.012,-508.961,-13.2364,-84.351,2.03134,
2026_07_06_17_00_09.421,3.869,33.1,0,0.761,0,0,0,0, ,0,0,0,0,0, ,435.1,-49,-921.6,-6.6,0.8,0.1,25,611.157,-104.645,-533.234,-12.829,-78.8879,1.99897,
2026_07_06_17_00_09.442,3.869,33,0,0.761,0,0,0,0, ,0,0,0,0,0, ,455.9,-52.1,-918.2,-5.6,-12,-4.3,25,601.062,-101.348,-556.797,-12.4189,-74.4219,1.74918,
2026_07_06_17_00_09.461,3.869,33.1,0,0.761,0,0,0,0, ,0,0,0,0,0, ,521.6,-64.2,-905.3,-1.6,-0.6,-5.1,25,594.218,-98.7158,-578.427,-11.8815,-70.2708,1.35619,
2026_07_06_17_00_09.481,3.869,33.2,0,0.761,0,0,0,0, ,0,0,0,0,0, ,548.4,-67.1,-879.3,-1.2,26.9,-0.1,25,590.609,-96.7009,-597.553,-11.2428,-65.1873,1.11511,
2026_07_06_17_00_09.501,3.869,33.1,0,0.761,0,0,0,0, ,0,0,0,0,0, ,542.3,-59.2,-842.6,-3.9,46.6,6.9,25,587.851,-94.6563,-613.604,-10.7131,-58.9755,1.25434,
2026_07_06_17_00_09.521,3.869,33.1,0,0.76,0,0,0,0, ,0,0,0,0,0, ,538,-57.8,-838.8,-7,66,8.8,25,584.944,-92.4531,-627.443,-10.3924,-51.9509,1.65627,
2026_07_06_17_00_09.541,3.869,33,0,0.761,0,0,0,0, ,0,0,0,0,0, ,547.7,-62.7,-856.5,-4.1,81.9,5.8,25,582.379,-90.4907,-640.862,-10.0973,-44.2788,2.00018,
2026_07_06_17_00_09.560,3.869,33.1,0,0.76,0,0,0,0, ,0,0,0,0,0, ,587.6,-63.9,-853.2,0.2,97.4,6.6,25,581.482,-88.8338,-653.902,-9.60082,-36.1175,2.25611,
2026_07_06_17_00_09.580,3.869,33.2,0,0.76,0,0,0,0, ,0,0,0,0,0, ,646.8,-68.9,-823.4,2.8,123.9,5.7,25,583.658,-87.4667,-665.138,-8.92436,-27.1739,2.49339,
2026_07_06_17_00_09.600,3.869,33,0,0.761,0,0,0,0, ,0,0,0,0,0, ,689.4,-65,-780.1,3.9,166.6,0.7,25,588.804,-86.2165,-673.463,-8.17639,-16.6668,2.53645,
2026_07_06_17_00_09.619,3.869,33.1,0,0.76,0,0,0,0, ,0,0,0,0,0, ,701.1,-51.1,-735.3,3.8,201.4,-2.1,25,595.291,-84.5001,-678.596,-7.44353,-4.43867,2.33923,
2026_07_06_17_00_09.639,3.869,33.1,0,0.76,0,0,0,0, ,0,0,0,0,0, ,765.3,-72,-704.1,0.5,225.4,0,25,603.694,-83.1016,-681.101,-6.85893,8.83587,2.1327,
2026_07_06_17_00_09.660,3.869,33.1,0,0.762,0,0,0,0, ,0,0,0,0,0, ,764.7,-82.3,-674,-1.2,247.2,-1.2,25,613.524,-82.7389,-681.585,-6.46229,22.697,1.96617,
2026_07_06_17_00_09.678,3.869,33.1,0,0.76,0,0,0,0, ,0,0,0,0,0, ,811.8,-88.5,-589.3,0.6,250.1,-2.4,25,624.171,-82.901,-678.542,-6.08678,36.466,1.73667,
2026_07_06_17_00_09.699,3.869,33,0,0.761,0,0,0,0, ,0,0,0,0,0, ,849.9,-83.3,-480.3,-1.4,250.1,-2.4,25,636.766,-83.0838,-669.783,-5.74024,49.4843,1.48459,
2026_07_06_17_00_09.718,3.869,33.1,0,0.76,0,0,0,0, ,0,0,0,0,0, ,852.5,-66.4,-394.5,-8.4,250.1,-1.8,25,649.833,-82.582,-655.622,-5.68904,61.7093,1.26616,
2026_07_06_17_00_09.739,3.869,33.1,0,0.76,0,0,0,0, ,0,0,0,0,0, ,871.2,-61.7,-353.7,-17.9,250.1,-5.6,25,662.753,-81.4528,-638.467,-6.14369,73.1894,0.963533,
2026_07_06_17_00_09.758,3.869,33.1,0,0.761,0,0,0,0, ,0,0,0,0,0, ,902,-53.5,-283.6,-18.4,250.1,-12.4,25,676.393,-79.9992,-618.978,-6.87532,83.9699,0.35638,
2026_07_06_17_00_09.777,3.869,33.2,0,0.762,0,0,0,0, ,0,0,0,0,0, ,893.5,-56.1,-247.1,-17,250.1,-17.7,25,689.882,-78.4636,-597.429,-7.53495,94.0934,-0.582446,
2026_07_06_17_00_09.798,3.869,33.1,0,0.761,0,0,0,0, ,0,0,0,0,0, ,901.2,-42.9,-147.4,-13.7,250.1,-24.1,25,702.525,-76.6987,-573.043,-8.01118,103.6,-1.82055,
2026_07_06_17_00_09.818,3.869,33.1,0,0.76,0,0,0,0, ,0,0,0,0,0, ,939.4,-67.9,3.6,-10.9,250.1,-22.4,25,715.796,-75.4008,-542.505,-8.27253,112.527,-3.1264,
2026_07_06_17_00_09.837,3.869,33.1,0,0.762,0,0,0,0, ,0,0,0,0,0, ,933.9,-61.1,79.1,-4.6,250.1,-19.9,25,729.254,-74.7365,-506.926,-8.24069,120.911,-4.22472,
2026_07_06_17_00_09.856,3.869,33.2,0,0.76,0,0,0,0, ,0,0,0,0,0, ,888.4,-62.8,140.3,3.9,250.1,-15.2,25,740.338,-73.9573,-469.35,-7.75985,128.783,-5.03673,
2026_07_06_17_00_09.877,3.869,33.1,0,0.761,0,0,0,0, ,0,0,0,0,0, ,827.1,-42.3,225.5,12.3,241.2,-9.2,25,747.493,-72.6528,-429.604,-6.79339,135.905,-5.47324,
2026_07_06_17_00_09.896,3.869,33.1,0,0.761,0,0,0,0, ,0,0,0,0,0, ,791,-32.4,338.5,22,218.6,-13,25,751.244,-70.5016,-386.241,-5.33434,141.633,-5.81612,
2026_07_06_17_00_09.916,3.869,33.1,0,0.761,0,0,0,0, ,0,0,0,0,0, ,788.2,-23.8,456.7,25.5,209.6,-14.6,25,753.581,-67.9177,-338.475,-3.56201,146.049,-6.30264,
2026_07_06_17_00_09.935,3.869,33.1,0,0.761,0,0,0,0, ,0,0,0,0,0, ,748.2,-19.1,517.5,26.9,202,-11.8,25,754.472,-65.0861,-288.167,-1.74839,149.69,-6.72294,
2026_07_06_17_00_09.956,3.869,33.1,0,0.761,0,0,0,0, ,0,0,0,0,0, ,695.5,-4.5,588.8,28,186.6,-6.5,25,752.484,-61.839,-236.899,0.0308857,152.408,-6.87084,
2026_07_06_17_00_09.982,3.869,33.1,0,0.76,0,0,0,0, ,0,0,0,0,0, ,697.6,2.4,650.6,28.6,187.9,-2.7,25,749.076,-58.1346,-184.7,1.75353,154.531,-6.73246,
2026_07_06_17_00_09.996,3.869,33.2,0,0.761,0,0,0,0, ,0,0,0,0,0, ,671.7,10,711.6,31.3,200.3,1.7,25,745.15,-54.2143,-131.94,3.47176,156.943,-6.35267,
2026_07_06_17_00_10.015,3.869,33.1,0,0.761,0,0,0,0, ,0,0,0,0,0, ,627.1,12.9,755.4,32.2,210,8.9,25,739.315,-50.2128,-79.2026,5.19496,159.88,-5.64259,
2026_07_06_17_00_10.035,3.869,33.1,0,0.761,0,0,0,0, ,0,0,0,0,0, ,538,29.9,789.9,34.9,205.8,14.5,25,729.762,-45.8489,-27.2928,6.92285,162.806,-4.58577,
2026_07_06_17_00_10.055,3.869,33.1,0,0.761,0,0,0,0, ,0,0,0,0,0, ,466.9,49.6,847.4,38.5,185.7,18.9,25,715.91,-40.6327,24.2568,8.73739,164.814,-3.28867,
2026_07_06_17_00_10.075,3.869,33,0,0.762,0,0,0,0, ,0,0,0,0,0, ,405.2,64.8,923.4,39.4,162.3,22.2,25,698.856,-34.6711,76.7327,10.5785,165.374,-1.836,
2026_07_06_17_00_10.095,3.869,33,0,0.762,0,0,0,0, ,0,0,0,0,0, ,351.1,89.8,971.3,37.2,150.2,23.3,25,679.313,-27.8478,129.786,12.2678,164.818,-0.337794,
2026_07_06_17_00_10.115,3.869,33.2,0,0.761,0,0,0,0, ,0,0,0,0,0, ,308.3,106.2,1018.3,36,148.9,21.7,25,658.009,-20.179,182.498,13.7505,163.887,1.05388,
2026_07_06_17_00_10.134,3.869,33.1,0,0.761,0,0,0,0, ,0,0,0,0,0, ,237,101.3,1062.9,28.5,137.7,19.9,25,634.526,-12.6271,234.788,14.8778,162.633,2.25716,
2026_07_06_17_00_10.154,3.869,33.2,0,0.76,0,0,0,0, ,0,0,0,0,0, ,197.8,129.7,1083.4,25.5,109.5,18.8,25,609.107,-4.81931,285.876,15.6165,160.254,3.29876,
2026_07_06_17_00_10.174,3.869,33.1,0,0.761,0,0,0,0, ,0,0,0,0,0, ,171,117.3,1083.9,16.3,84.5,20.5,25,583.227,3.00014,334.49,15.9385,156.4,4.29516,
2026_07_06_17_00_10.201,3.869,33.2,0,0.761,0,0,0,0, ,0,0,0,0,0, ,137.8,119.2,1060.4,11,78.6,20.9,25,557.095,10.0232,379.441,15.799,151.839,5.29483,
2026_07_06_17_00_10.215,3.869,33.3,0,0.761,0,0,0,0, ,0,0,0,0,0, ,84.9,113.8,1061.6,10.5,75.6,15.1,25,529.933,16.5116,420.974,15.4913,147.284,6.06905,
2026_07_06_17_00_10.232,3.869,33.2,0,0.761,0,0,0,0, ,0,0,0,0,0, ,61.5,104.1,1066,6.8,58.9,11.5,25,502.1,22.1446,460.146,15.0744,142.407,6.50969,
2026_07_06_17_00_10.253,3.869,33.1,0,0.761,0,0,0,0, ,0,0,0,0,0, ,51,109.2,1034.4,3.5,41.5,8,25,474.931,27.2941,496.103,14.4697,136.788,6.70714,
2026_07_06_17_00_10.273,3.869,33.3,0,0.761,0,0,0,0, ,0,0,0,0,0, ,52.1,102,1012.4,3.5,26.7,7.5,25,449.132,32.0659,528.235,13.8012,130.531,6.77069,
2026_07_06_17_00_10.293,3.869,33.2,0,0.761,0,0,0,0, ,0,0,0,0,0, ,43.8,93.2,1026,3.4,26.3,7.9,25,424.685,36.0594,558.153,13.1704,124.191,6.82732,
2026_07_06_17_00_10.312,3.869,33.2,0,0.76,0,0,0,0, ,0,0,0,0,0, ,26,98.3,1024,2.6,38,1.4,25,400.932,39.6968,586.601,12.5507,118.582,6.69464,
2026_07_06_17_00_10.331,3.869,33.1,0,0.76,0,0,0,0, ,0,0,0,0,0, ,16.1,86.6,1011.1,2.4,35,-2.4,25,377.783,42.9114,612.862,11.9382,113.581,6.25622,
2026_07_06_17_00_10.352,3.869,33.1,0,0.761,0,0,0,0, ,0,0,0,0,0, ,24.2,85.6,998.9,1.5,21.6,0.3,25,355.99,45.5432,636.758,11.3296,108.384,5.811,
2026_07_06_17_00_10.371,3.869,33.1,0,0.762,0,0,0,0, ,0,0,0,0,0, ,22.9,86.1,997.9,2.6,21,1.2,25,335.732,47.9994,658.796,10.7641,103.077,5.50259,
2026_07_06_17_00_10.392,3.869,33.1,0,0.761,0,0,0,0, ,0,0,0,0,0, ,17.5,90.6,1015.5,3.8,23.9,0,25,316.504,50.4583,679.996,10.3031,98.1639,5.20384,
2026_07_06_17_00_10.412,3.869,33.2,0,0.761,0,0,0,0, ,0,0,0,0,0, ,13.9,91.9,1016.7,2.5,28,-0.9,25,298.174,52.944,700.478,9.86725,93.7634,4.85931,
2026_07_06_17_00_10.432,3.869,33.2,0,0.761,0,0,0,0, ,0,0,0,0,0, ,16.9,91.9,990.9,3,34.5,-1.8,25,280.942,55.3179,718.961,9.43354,89.954,4.48093,
2026_07_06_17_00_10.450,3.869,33.2,0,0.761,0,0,0,0, ,0,0,0,0,0, ,5.6,101.6,979.4,5.2,32.8,-1,25,264.508,57.8427,735.182,9.10853,86.523,4.12256,
2026_07_06_17_00_10.470,3.869,33.2,0,0.761,0,0,0,0, ,0,0,0,0,0, ,-9.6,115.6,981.6,3.8,28.1,0.4,25,248.268,60.9357,750.131,8.8277,83.106,3.85306,
2026_07_06_17_00_10.490,3.869,33.2,0,0.762,0,0,0,0, ,0,0,0,0,0, ,-7.2,106.9,1004.2,5.3,16.4,0.9,25,232.627,64.0017,764.925,8.56703,79.3976,3.65787,
2026_07_06_17_00_10.511,3.869,33.2,0,0.76,0,0,0,0, ,0,0,0,0,0, ,-8.4,111.3,1019,3.8,13.3,1.5,25,217.976,66.7499,779.957,8.32224,75.4642,3.5081,
2026_07_06_17_00_10.530,3.869,33.2,0,0.761,0,0,0,0, ,0,0,0,0,0, ,-18.1,116.8,1005.2,2.4,22.4,-1.7,25,203.886,69.6323,794.103,8.00401,71.9534,3.28823,
2026_07_06_17_00_10.550,3.869,33.2,0,0.761,0,0,0,0, ,0,0,0,0,0, ,-26.8,118.2,995.6,3.3,25.2,-5.3,25,190.093,72.5492,806.674,7.68994,69.019,2.87457,
2026_07_06_17_00_10.570,3.869,33,0,0.76,0,0,0,0, ,0,0,0,0,0, ,-4.8,112,998.1,3.1,15.6,-4.9,25,177.547,75.1421,818.263,7.41633,66.0563,2.38862,
2026_07_06_17_00_10.591,3.869,33.1,0,0.761,0,0,0,0, ,0,0,0,0,0, ,5.6,117.6,996.8,2.9,4.9,-0.9,25,166.752,77.5588,829.182,7.14721,62.6556,2.06635,
2026_07_06_17_00_10.609,3.869,33,0,0.761,0,0,0,0, ,0,0,0,0,0, ,-15.7,117.4,1003,1.9,-5.8,4.1,25,156.283,79.9927,839.585,6.85793,58.8101,2.03793,
2026_07_06_17_00_10.630,3.869,33.1,0,0.761,0,0,0,0, ,0,0,0,0,0, ,-27.5,121.3,994.5,1.6,0.3,2.7,25,145.443,82.391,849.284,6.54666,55.0588,2.12093,
2026_07_06_17_00_10.651,3.869,33.2,0,0.762,0,0,0,0, ,0,0,0,0,0, ,-42.9,120.9,985.1,2.6,9.1,-2.7,25,134.435,84.7499,857.847,6.27569,51.99,1.99168,
2026_07_06_17_00_10.672,3.869,33,0,0.76,0,0,0,0, ,0,0,0,0,0, ,-26.2,113.8,1002.4,1.4,0.1,-1.3,25,124.137,86.7364,866.129,6.01514,49.1022,1.74844,
2026_07_06_17_00_10.687,3.869,33.2,0,0.761,0,0,0,0, ,0,0,0,0,0, ,-8.1,117.7,997.3,1.1,-0.3,0,25,115.528,88.5044,874.277,5.72477,46.104,1.60229,
2026_07_06_17_00_10.709,3.869,33.2,0,0.762,0,0,0,0, ,0,0,0,0,0, ,-22.8,120.1,1003.7,0.8,8.3,-0.3,25,107.546,90.3567,881.969,5.43381,43.5382,1.49551,
2026_07_06_17_00_10.728,3.869,33.1,0,0.762,0,0,0,0, ,0,0,0,0,0, ,-43.4,114.6,987.6,0.7,6.6,-0.7,25,98.9756,92.0016,888.896,5.14839,41.3391,1.37391,
2026_07_06_17_00_10.748,3.869,33.2,0,0.76,0,0,0,0, ,0,0,0,0,0, ,-38.3,117,992.1,2.1,-1.4,0.6,25,90.455,93.4518,895.048,4.91997,38.9785,1.28714,
2026_07_06_17_00_10.768,3.869,33.1,0,0.761,0,0,0,0, ,0,0,0,0,0, ,-33.4,120.2,1005,1.2,1.3,-0.5,25,82.7583,94.9843,901.355,4.72071,36.6002,1.21175,
2026_07_06_17_00_10.788,3.869,33.1,0,0.759,0,0,0,0, ,0,0,0,0,0, ,-32.2,120.2,998.5,-0.2,5.1,-0.6,25,75.7165,96.5208,907.473,4.46351,34.5648,1.10439,
2026_07_06_17_00_10.808,3.869,33.2,0,0.761,0,0,0,0, ,0,0,0,0,0, ,-36.4,120.8,990.8,0.1,11,-0.6,25,69.0123,97.9821,912.786,4.18846,32.9491,1.00053,
2026_07_06_17_00_10.828,3.869,33.1,0,0.761,0,0,0,0, ,0,0,0,0,0, ,-51.1,123.7,1001.9,-0.5,12.3,-0.8,25,62.1409,99.4609,917.878,3.92104,31.6512,0.896904,
2026_07_06_17_00_10.847,3.869,33.1,0,0.76,0,0,0,0, ,0,0,0,0,0, ,-48.2,121,996.9,-0.8,9.2,-1,25,55.3286,100.856,922.846,3.64249,30.3775,0.787405,
2026_07_06_17_00_10.867,3.869,33.2,0,0.761,0,0,0,0, ,0,0,0,0,0, ,-51,122.5,993.7,-0.3,7,-0.1,25,48.9345,102.129,927.261,3.38701,29.02,0.705907,
2026_07_06_17_00_10.888,3.869,33.2,0,0.76,0,0,0,0, ,0,0,0,0,0, ,-49.8,124.3,1000.8,-1.1,11.8,-0.5,25,42.8813,103.425,931.526,3.13796,27.8244,0.64461,
2026_07_06_17_00_10.906,3.869,33.1,0,0.761,0,0,0,0, ,0,0,0,0,0, ,-53.8,119.5,993.7,-2.5,17.5,-1,25,37.1117,104.551,935.531,2.83706,27.0216,0.559626,
2026_07_06_17_00_10.927,3.869,33,0,0.762,0,0,0,0, ,0,0,0,0,0, ,-65.5,113.4,973.1,-1.8,15,-1.4,25,31.2153,105.276,938.448,2.53316,26.3652,0.452399,
2026_07_06_17_00_10.946,3.869,33.2,0,0.762,0,0,0,0, ,0,0,0,0,0, ,-68.1,109.3,970.7,1,7.2,0.3,25,25.2425,105.646,940.486,2.35442,25.435,0.391315,
2026_07_06_17_00_10.966,3.869,33.1,0,0.761,0,0,0,0, ,0,0,0,0,0, ,-69.7,119.2,986.5,1.5,6.1,2,25,19.5057,106.17,942.809,2.28712,24.2902,0.437547,
2026_07_06_17_00_10.986,3.869,33.1,0,0.76,0,0,0,0, ,0,0,0,0,0, ,-78.6,121.8,1000.8,0.5,13.9,-0.8,25,13.7985,107.044,945.907,2.20868,23.4194,0.447447,
2026_07_06_17_00_11.006,3.869,33.1,0,0.761,0,0,0,0, ,0,0,0,0,0, ,-81.1,123.5,996,-1,14.5,-2.3,25,8.09182,107.995,949.106,2.05886,22.8576,0.325727,
2026_07_06_17_00_11.026,3.869,33.1,0,0.76,0,0,0,0, ,0,0,0,0,0, ,-81.9,122.5,986.5,-1,8.3,-1.5,25,2.63232,108.909,951.674,1.87246,22.1594,0.190097,
2026_07_06_17_00_11.046,3.869,33.1,0,0.761,0,0,0,0, ,0,0,0,0,0, ,-80.6,126.9,995.6,-1.5,6.5,-0.9,25,-2.47926,109.871,954.073,1.68218,21.26,0.105388,
2026_07_06_17_00_11.064,3.869,33.1,0,0.761,0,0,0,0, ,0,0,0,0,0, ,-81.2,129.2,1000.2,-3.2,14.3,-1.4,25,-7.25802,110.979,956.744,1.43647,20.5982,0.0288879,
2026_07_06_17_00_11.085,3.869,33.1,0,0.761,0,0,0,0, ,0,0,0,0,0, ,-85.4,97.7,1005.4,-3.6,26,-4.3,25,-11.8918,111.13,959.551,1.14175,20.5709,-0.146544,
2026_07_06_17_00_11.104,3.869,33.1,0,0.761,0,0,0,0, ,0,0,0,0,0, ,-94.6,141.4,974.7,-2.4,28.7,-3.7,25,-16.6515,111.643,961.409,0.889362,20.984,-0.381364,
2026_07_06_17_00_11.124,3.869,33.2,0,0.763,0,0,0,0, ,0,0,0,0,0, ,-117.3,107,969.4,-0.6,14,1.2,25,-22.0932,112.408,962.058,0.74376,21.0063,-0.434297,
2026_07_06_17_00_11.144,3.869,33.1,0,0.761,0,0,0,0, ,0,0,0,0,0, ,-93.2,125.6,986.3,0.3,18.9,1.8,25,-27.1605,112.645,963.02,0.689297,20.7287,-0.316426,
2026_07_06_17_00_11.164,3.869,33.2,0,0.761,0,0,0,0, ,0,0,0,0,0, ,-66.2,140.6,983.6,0,43.5,-3.4,25,-30.3622,113.892,964.356,0.656433,21.3668,-0.345893,
2026_07_06_17_00_11.184,3.869,33.1,0,0.762,0,0,0,0, ,0,0,0,0,0, ,-106.6,110.4,990.8,6.7,87.6,-9.9,25,-33.777,114.599,965.748,0.820572,24.0592,-0.73005,
2026_07_06_17_00_11.205,3.869,33.2,0,0.761,0,0,0,0, ,0,0,0,0,0, ,-220,130.9,983,12,63.4,-2.6,25,-41.6698,114.968,967.037,1.34033,27.1939,-1.06642,
2026_07_06_17_00_11.223,3.869,33.1,0,0.761,0,0,0,0, ,0,0,0,0,0, ,-241.3,119.2,935.4,-2.5,28.5,2.8,25,-53.1858,115.582,966.56,1.54811,28.3368,-0.995343,
2026_07_06_17_00_11.244,3.869,33.1,0,0.761,0,0,0,0, ,0,0,0,0,0, ,-240.3,104.3,972.5,1.7,18.4,2.6,25,-64.6185,115.349,965.791,1.4294,28.039,-0.770158,
2026_07_06_17_00_11.264,3.869,33.1,0,0.76,0,0,0,0, ,0,0,0,0,0, ,-235.3,126.8,979.2,-0.1,18,-1.8,25,-75.1717,115.361,966.404,1.39104,27.4395,-0.698851,
2026_07_06_17_00_11.283,3.869,33.1,0,0.761,0,0,0,0, ,0,0,0,0,0, ,-220.3,121.3,975.3,0.2,25,-5.2,25,-84.4725,115.89,967.065,1.30932,27.0775,-0.869546,
2026_07_06_17_00_11.302,3.869,33.1,0,0.761,0,0,0,0, ,0,0,0,0,0, ,-212.8,120.3,964.4,1.1,22.7,-3.8,25,-92.521,116.19,967.235,1.26915,26.8808,-1.09078,
2026_07_06_17_00_11.322,3.869,33.1,0,0.762,0,0,0,0, ,0,0,0,0,0, ,-231.5,115.9,974.2,1.1,0.8,3.4,25,-100.42,116.306,967.361,1.25884,25.9588,-1.0365,
2026_07_06_17_00_11.343,3.869,33.1,0,0.76,0,0,0,0, ,0,0,0,0,0, ,-234.8,130.7,965.4,1.8,0,2.8,25,-108.508,116.732,967.509,1.27049,24.4013,-0.784428,
2026_07_06_17_00_11.361,3.869,33.1,0,0.761,0,0,0,0, ,0,0,0,0,0, ,-246.9,130.7,973.6,1.8,-0.9,0.4,25,-116.573,117.583,967.631,1.30276,22.8869,-0.639127,
2026_07_06_17_00_11.382,3.869,33.2,0,0.761,0,0,0,0, ,0,0,0,0,0, ,-245.7,132.2,973.2,2,-8.5,-0.6,25,-124.478,118.428,967.982,1.33915,21.2059,-0.606274,
2026_07_06_17_00_11.401,3.869,33.2,0,0.762,0,0,0,0, ,0,0,0,0,0, ,-233.8,138.5,986.6,1.9,-3,-4.5,25,-131.503,119.46,968.708,1.37637,19.5632,-0.72472,
2026_07_06_17_00_11.422,3.869,33.1,0,0.761,0,0,0,0, ,0,0,0,0,0, ,-218.1,140.8,985.4,-0.4,6.9,-5.8,25,-137.258,120.69,969.762,1.3382,18.4899,-0.994385,
2026_07_06_17_00_11.440,3.869,33.1,0,0.762,0,0,0,0, ,0,0,0,0,0, ,-215.5,122,960.6,-0.6,-3.9,-3,25,-142.105,121.343,969.959,1.22619,17.4546,-1.20191,
2026_07_06_17_00_11.461,3.869,33.1,0,0.762,0,0,0,0, ,0,0,0,0,0, ,-207,125.3,955.6,1.3,-21.1,4,25,-146.319,121.483,969.237,1.1728,15.6293,-1.0982,
2026_07_06_17_00_11.480,3.869,33.1,0,0.761,0,0,0,0, ,0,0,0,0,0, ,-230.9,138.9,972.1,0.4,-7.2,2.5,25,-150.745,122.13,968.909,1.15313,13.8146,-0.833236,
2026_07_06_17_00_11.500,3.869,33.1,0,0.76,0,0,0,0, ,0,0,0,0,0, ,-236.4,134.8,977.2,-1.6,6.6,-6.5,25,-155.797,123.027,969.258,1.04629,12.9545,-0.904335,
2026_07_06_17_00_11.520,3.869,33.1,0,0.761,0,0,0,0, ,0,0,0,0,0, ,-210.5,126.9,948.2,-1,0.8,-6.8,25,-159.919,123.504,968.859,0.903317,12.3905,-1.25446,
2026_07_06_17_00_11.540,3.869,33.1,0,0.763,0,0,0,0, ,0,0,0,0,0, ,-190,127.6,950.6,2.8,-7.1,-1.8,25,-162.377,123.732,967.673,0.903115,11.4435,-1.44005,
2026_07_06_17_00_11.560,3.869,33.1,0,0.762,0,0,0,0, ,0,0,0,0,0, ,-207.2,136.8,979.6,1.9,-5.9,2.1,25,-164.584,124.248,967.516,0.991284,10.3501,-1.34316,
2026_07_06_17_00_11.581,3.869,33.1,0,0.761,0,0,0,0, ,0,0,0,0,0, ,-219.6,140,984.6,-0.9,3.3,-1.2,25,-167.559,125.11,968.405,0.961347,9.64017,-1.23389,
2026_07_06_17_00_11.599,3.869,33.1,0,0.761,0,0,0,0, ,0,0,0,0,0, ,-224.2,132.2,968.7,-1.9,1.7,-2.6,25,-170.87,125.78,968.907,0.817452,9.20506,-1.27448,
2026_07_06_17_00_11.619,3.869,33.1,0,0.761,0,0,0,0, ,0,0,0,0,0, ,-215.6,132.4,960.5,0,-7.1,-0.6,25,-173.858,126.177,968.645,0.709748,8.4796,-1.29431,
2026_07_06_17_00_11.639,3.869,33.1,0,0.76,0,0,0,0, ,0,0,0,0,0, ,-213.6,141.6,978.2,0.5,-3.8,-0.4,25,-176.341,126.837,968.688,0.681732,7.63076,-1.24591,
2026_07_06_17_00_11.659,3.869,33.1,0,0.761,0,0,0,0, ,0,0,0,0,0, ,-216.6,137.3,979,-1.2,3.9,-3.6,25,-178.703,127.606,969.292,0.618861,7.16881,-1.29186,
2026_07_06_17_00_11.678,3.869,33.1,0,0.762,0,0,0,0, ,0,0,0,0,0, ,-211,128.6,961.7,-1.5,-1,-2.9,25,-180.841,127.931,969.356,0.498884,6.82032,-1.41119,
2026_07_06_17_00_11.698,3.869,33.1,0,0.762,0,0,0,0, ,0,0,0,0,0, ,-202.5,126.4,964.2,-0.1,-11.8,1.4,25,-182.42,127.905,968.966,0.419733,6.01471,-1.3709,
2026_07_06_17_00_11.719,3.869,33.1,0,0.761,0,0,0,0, ,0,0,0,0,0, ,-210.3,139,973.6,0.2,-9.6,2,25,-183.882,128.197,968.962,0.397202,4.99615,-1.18376,
2026_07_06_17_00_11.739,3.869,33.1,0,0.761,0,0,0,0, ,0,0,0,0,0, ,-210.6,138.5,986.4,0,-13.9,1.2,25,-185.501,128.84,969.635,0.379091,3.97569,-1.01413,
2026_07_06_17_00_11.758,3.869,33.1,0,0.761,0,0,0,0, ,0,0,0,0,0, ,-180.7,140.2,987.7,0.1,-29.8,5.3,25,-186.119,129.481,970.696,0.359037,2.40193,-0.754282,
2026_07_06_17_00_11.777,3.869,33.1,0,0.762,0,0,0,0, ,0,0,0,0,0, ,-160.2,143.9,984.1,1.9,-49.9,11.7,25,-185.164,130.247,971.622,0.398096,-0.172794,-0.190349,
2026_07_06_17_00_11.799,3.869,33.1,0,0.761,0,0,0,0, ,0,0,0,0,0, ,-159.3,152,997.4,3.6,-71.2,17.8,25,-183.616,131.325,972.788,0.541415,-3.85203,0.720078,
2026_07_06_17_00_11.818,3.869,33.1,0,0.761,0,0,0,0, ,0,0,0,0,0, ,-134.5,173.4,1023,7.4,-98.3,22.5,25,-181.378,133.237,975.068,0.843579,-8.78175,1.90409,
2026_07_06_17_00_11.837,3.869,33.1,0,0.761,0,0,0,0, ,0,0,0,0,0, ,-108.5,186.1,1123.6,-2.3,-115.8,30.5,25,-177.729,136.072,981.054,0.947564,-14.77,3.4029,
2026_07_06_17_00_11.857,3.869,33.1,0,0.761,0,0,0,0, ,0,0,0,0,0, ,-90.2,158.5,1130.9,-6.7,-111.8,29.4,25,-172.953,138.279,989.963,0.615603,-20.8046,5.02062,
2026_07_06_17_00_11.878,3.869,33.1,0,0.76,0,0,0,0, ,0,0,0,0,0, ,-51.5,225.8,1120.9,-1.3,-93.7,20.5,25,-166.731,141.562,998.246,0.33434,-25.7982,6.23506,
2026_07_06_17_00_11.898,3.869,33.1,0,0.762,0,0,0,0, ,0,0,0,0,0, ,-10.7,187.2,1069.4,-4,-102.9,21.6,25,-158.466,145.519,1004.15,0.152482,-30.2162,7.13785,
2026_07_06_17_00_11.916,3.869,33.1,0,0.761,0,0,0,0, ,0,0,0,0,0, ,-3.6,169.3,1058.4,-4.6,-129.3,28.2,25,-149.245,147.514,1007.79,-0.118841,-35.4498,8.22023,
2026_07_06_17_00_11.936,3.869,33.1,0,0.761,0,0,0,0, ,0,0,0,0,0, ,69.8,157.1,1088.5,-7,-143.4,34.1,25,-138.134,148.47,1011.79,-0.465037,-41.5984,9.61751,
2026_07_06_17_00_11.956,3.869,33.1,0,0.761,0,0,0,0, ,0,0,0,0,0, ,118.4,162.8,1098.8,-15.7,-138.5,34.1,25,-123.982,149.169,1016.78,-1.12834,-47.6526,11.1094,
2026_07_06_17_00_11.976,3.869,33.1,0,0.763,0,0,0,0, ,0,0,0,0,0, ,147.5,146.2,1067.5,-22.4,-132.8,31.2,25,-108.325,149.494,1020.83,-2.22044,-53.015,12.422,
2026_07_06_17_00_11.995,3.869,33.1,0,0.761,0,0,0,0, ,0,0,0,0,0, ,191,135.6,1016.4,-29.3,-124.1,25.6,25,-91.4104,148.97,1022.11,-3.66037,-57.6118,13.3957,
2026_07_06_17_00_12.015,3.869,33.1,0,0.761,0,0,0,0, ,0,0,0,0,0, ,233,121.7,975.4,-31.2,-112.3,17.9,25,-72.9213,147.732,1020.52,-5.28067,-61.3039,13.9048,
2026_07_06_17_00_12.036,3.869,33.1,0,0.761,0,0,0,0, ,0,0,0,0,0, ,276.9,114.8,941.6,-31.9,-107.2,12.5,25,-52.9417,145.936,1016.74,-6.88146,-64.2561,13.9837,
2026_07_06_17_00_12.055,3.869,33.1,0,0.761,0,0,0,0, ,0,0,0,0,0, ,343,88.1,910.2,-32.7,-112.7,14.4,25,-30.828,143.225,1011.2,-8.4304,-67.0405,13.9512,
2026_07_06_17_00_12.076,3.869,33.1,0,0.759,0,0,0,0, ,0,0,0,0,0, ,382.4,71.6,885.4,-31.6,-121.7,18.8,25,-6.84737,139.363,1004.29,-9.87581,-70.0971,14.1126,
2026_07_06_17_00_12.094,3.869,33.1,0,0.761,0,0,0,0, ,0,0,0,0,0, ,402.3,58.8,851.4,-31.5,-138.9,22.3,25,17.4787,134.844,996.01,-11.1966,-73.7657,14.5049,
2026_07_06_17_00_12.114,3.869,33,0,0.761,0,0,0,0, ,0,0,0,0,0, ,450.4,42.8,824.3,-30.3,-146.6,24.6,25,42.3943,129.722,986.372,-12.3973,-77.9695,15.05,
2026_07_06_17_00_12.134,3.869,33.1,0,0.761,0,0,0,0, ,0,0,0,0,0, ,483.7,25.6,818.3,-26.8,-150.2,24.7,25,68.2718,123.901,976.313,-13.3816,-82.2613,15.635,
2026_07_06_17_00_12.154,3.869,33,0,0.761,0,0,0,0, ,0,0,0,0,0, ,514.1,9.1,811.1,-28.2,-158.3,23.8,25,94.5132,117.408,966.465,-14.2419,-86.6481,16.16,
2026_07_06_17_00_12.174,3.869,33.1,0,0.759,0,0,0,0, ,0,0,0,0,0, ,554.9,-8.5,767.7,-29.9,-167.4,22.4,25,121.325,110.272,955.675,-15.1443,-91.2917,16.5829,
2026_07_06_17_00_12.194,3.869,33.1,0,0.761,0,0,0,0, ,0,0,0,0,0, ,592.2,-20.3,725.4,-28.1,-172.5,22.6,25,148.882,102.675,942.931,-15.9886,-96.0849,16.9434,
2026_07_06_17_00_12.213,3.869,33.1,0,0.762,0,0,0,0, ,0,0,0,0,0, ,624.1,-22.8,685.5,-27.8,-185.8,23,25,176.869,95.1048,928.46,-16.7175,-101.147,17.3003,
2026_07_06_17_00_12.233,3.869,33.2,0,0.761,0,0,0,0, ,0,0,0,0,0, ,692.6,-36,660.5,-26.8,-182.1,22.6,25,206.209,87.5178,912.893,-17.3624,-106.193,17.6355,
2026_07_06_17_00_12.253,3.869,33.1,0,0.762,0,0,0,0, ,0,0,0,0,0, ,739.5,-49.6,656,-23.4,-162.4,16.9,25,237.278,79.5766,897.375,-17.8339,-110.218,17.7643,
2026_07_06_17_00_12.273,3.869,33.1,0,0.762,0,0,0,0, ,0,0,0,0,0, ,770.2,-62.9,610.2,-25.8,-144.8,11.7,25,268.817,71.2996,881.271,-18.2462,-112.862,17.5532,
2026_07_06_17_00_12.293,3.869,33,0,0.761,0,0,0,0, ,0,0,0,0,0, ,767.9,-70.6,551.7,-30.1,-141.8,8.7,25,299.3,62.8872,862.97,-18.8375,-114.716,17.1051,
2026_07_06_17_00_12.312,3.869,33.1,0,0.76,0,0,0,0, ,0,0,0,0,0, ,787.5,-78.1,479.8,-31.9,-145.1,4.7,25,328.453,54.5244,841.812,-19.5787,-116.467,16.4711,
2026_07_06_17_00_12.332,3.869,33,0,0.762,0,0,0,0, ,0,0,0,0,0, ,851.6,-86.4,393.9,-30,-142.1,2.6,25,358.379,46.1897,817.134,-20.2716,-118.121,15.6898,
2026_07_06_17_00_12.352,3.869,33.2,0,0.762,0,0,0,0, ,0,0,0,0,0, ,890.8,-100.7,322.8,-20.3,-139.3,4.2,25,389.629,37.6743,789.177,-20.5689,-119.497,14.9409,
2026_07_06_17_00_12.372,3.869,33.1,0,0.76,0,0,0,0, ,0,0,0,0,0, ,900.5,-108,301.2,-12.2,-146.8,10.3,25,420.465,29.0197,760.099,-20.3057,-120.932,14.4722,
2026_07_06_17_00_12.391,3.869,33,0,0.759,0,0,0,0, ,0,0,0,0,0, ,886.5,-112.7,288,-11.1,-152.9,13.5,25,449.29,20.5268,731.733,-19.7783,-122.694,14.3155,
2026_07_06_17_00_12.411,3.869,33.2,0,0.763,0,0,0,0, ,0,0,0,0,0, ,866.3,-108.5,244.9,-13.6,-156.7,7.3,25,475.317,12.5363,703.38,-19.3256,-124.651,14.0769,
2026_07_06_17_00_12.432,3.869,33.1,0,0.76,0,0,0,0, ,0,0,0,0,0, ,865.7,-112.9,156.3,-12.2,-166.8,-0.5,25,499.124,5.02659,672.741,-18.934,-126.911,13.4262,
2026_07_06_17_00_12.451,3.869,33.1,0,0.762,0,0,0,0, ,0,0,0,0,0, ,892.9,-112.4,95,-6.8,-183.4,-1.7,25,522.291,-2.14433,639.403,-18.3591,-129.848,12.541,
2026_07_06_17_00_12.470,3.869,33.1,0,0.761,0,0,0,0, ,0,0,0,0,0, ,941.8,-115.8,75.5,-5.3,-196.1,0.2,25,546.365,-8.96663,605.634,-17.6091,-133.498,11.7311,
2026_07_06_17_00_12.489,3.869,33,0,0.761,0,0,0,0, ,0,0,0,0,0, ,957.3,-111.3,25.5,-9.7,-184.9,0.3,25,570.934,-15.3397,571.806,-16.993,-136.972,11.0315,
2026_07_06_17_00_12.510,3.869,33,0,0.761,0,0,0,0, ,0,0,0,0,0, ,954.5,-139,-65.6,-0.6,-161.1,-2,25,594.393,-22.0312,535.74,-16.2714,-139.167,10.3075,
2026_07_06_17_00_12.530,3.869,33.2,0,0.761,0,0,0,0, ,0,0,0,0,0, ,907.7,-144.4,-94.9,18.5,-159.8,-7.4,25,614.911,-29.3236,498.203,-14.7344,-140.464,9.39295,
2026_07_06_17_00_12.550,3.869,33.1,0,0.761,0,0,0,0, ,0,0,0,0,0, ,849.8,-88.5,-133.6,-0.2,-210.9,-5,25,630.989,-34.6328,460.881,-13.279,-143.199,8.44275,
2026_07_06_17_00_12.570,3.869,33.2,0,0.761,0,0,0,0, ,0,0,0,0,0, ,924.9,-101.9,-210.6,-21.8,-235.6,0.8,25,646.611,-38.3236,422.309,-13.1401,-148.077,7.80031,
2026_07_06_17_00_12.589,3.869,33.2,0,0.761,0,0,0,0, ,0,0,0,0,0, ,998.5,-109.1,-307.1,-18.6,-184.2,-6.1,25,665.812,-42.4172,380.801,-13.5703,-151.845,7.16349,
2026_07_06_17_00_12.609,3.869,33.1,0,0.761,0,0,0,0, ,0,0,0,0,0, ,985.9,-115.7,-342.6,-16.8,-112.4,-9.4,25,685.701,-46.6818,337.8,-13.822,-151.629,6.2547,
2026_07_06_17_00_12.628,3.869,33.1,0,0.761,0,0,0,0, ,0,0,0,0,0, ,913.5,-103,-378.2,-20.2,-77.4,-5.2,25,701.788,-50.5006,295.254,-14.107,-148.172,5.42871,
2026_07_06_17_00_12.649,3.869,33,0,0.762,0,0,0,0, ,0,0,0,0,0, ,831.5,-83.7,-422.4,-22,-82.7,-7.1,25,712.191,-53.1118,252.869,-14.5332,-144.021,4.72313,
2026_07_06_17_00_12.668,3.869,33.1,0,0.761,0,0,0,0, ,0,0,0,0,0, ,851,-79.4,-482.5,-26.5,-96.5,-8.4,25,720.056,-54.8447,209.888,-15.1253,-140.704,3.96305,
2026_07_06_17_00_12.687,3.869,33.1,0,0.761,0,0,0,0, ,0,0,0,0,0, ,897.3,-77.8,-531.7,-22.2,-71.8,-9.6,25,729.446,-56.2923,166.197,-15.6874,-137.258,3.17312,
2026_07_06_17_00_12.708,3.869,33.2,0,0.763,0,0,0,0, ,0,0,0,0,0, ,902,-78.2,-522.9,-16.4,-29.6,-9.7,25,739.818,-57.6151,123.937,-15.9076,-131.983,2.39171,
2026_07_06_17_00_12.728,3.869,33.1,0,0.761,0,0,0,0, ,0,0,0,0,0, ,838.7,-67.9,-550.9,-10.3,1.4,-12.6,25,747.772,-58.5557,83.667,-15.7517,-124.8,1.56651,
2026_07_06_17_00_12.748,3.869,33.1,0,0.76,0,0,0,0, ,0,0,0,0,0, ,816.2,-57.9,-558.7,-5.7,-22.5,-14.9,25,752.627,-58.8204,44.7604,-15.2793,-117.838,0.633159,
2026_07_06_17_00_12.768,3.869,33.1,0,0.76,0,0,0,0, ,0,0,0,0,0, ,859.9,-53.2,-555.2,-5.7,-53.7,-10.1,25,757.833,-58.6211,8.09372,-14.6956,-112.979,-0.167143,
2026_07_06_17_00_12.787,3.869,33.1,0,0.761,0,0,0,0, ,0,0,0,0,0, ,910,-53.5,-539.1,-5.2,-39.5,-9,25,765.579,-58.2999,-25.7414,-14.1322,-108.934,-0.73891,
2026_07_06_17_00_12.807,3.869,33.2,0,0.761,0,0,0,0, ,0,0,0,0,0, ,913.6,-49.3,-528.4,-7.6,-4.6,-5.9,25,774.489,-57.8794,-56.6982,-13.661,-103.639,-1.14787,
2026_07_06_17_00_12.834,3.869,33.1,0,0.761,0,0,0,0, ,0,0,0,0,0, ,884,-37.9,-502.8,-15,31,-4.3,25,782.064,-57.0093,-84.6625,-13.5171,-96.5195,-1.3887,
2026_07_06_17_00_12.852,3.869,33.2,0,0.761,0,0,0,0, ,0,0,0,0,0, ,850.8,-38.6,-526.6,-13,45.5,-6.6,25,787.265,-55.8661,-110.868,-13.5466,-88.3069,-1.63619,
2026_07_06_17_00_12.866,3.869,33.1,0,0.763,0,0,0,0, ,0,0,0,0,0, ,820.4,-40.5,-543.8,-9.4,21.2,-7.5,25,790.21,-54.8719,-136.726,-13.4036,-80.8935,-1.96609,
2026_07_06_17_00_12.887,3.869,33.1,0,0.761,0,0,0,0, ,0,0,0,0,0, ,846,-44.6,-545.4,-6.3,-10.1,-4.9,25,792.83,-54.121,-161.581,-13.0651,-75.6258,-2.22409,
2026_07_06_17_00_12.905,3.869,33.1,0,0.762,0,0,0,0, ,0,0,0,0,0, ,871,-46,-522,-1.8,-15.7,-4.2,25,796.832,-53.5835,-184.257,-12.5158,-71.8035,-2.36583,
2026_07_06_17_00_12.926,3.869,33.1,0,0.761,0,0,0,0, ,0,0,0,0,0, ,892.5,-48,-493.7,-0.9,-1.3,-3.3,25,802.006,-53.1823,-203.976,-11.8354,-67.9459,-2.45018,
2026_07_06_17_00_12.946,3.869,33.1,0,0.76,0,0,0,0, ,0,0,0,0,0, ,879.5,-41.6,-467.2,-4,13,-1.6,25,807.125,-52.6715,-220.823,-11.2635,-63.449,-2.45017,
2026_07_06_17_00_12.965,3.869,33.1,0,0.761,0,0,0,0, ,0,0,0,0,0, ,855.1,-37.1,-482.5,-6.6,17.5,-1.5,25,810.792,-51.8597,-236.303,-10.9001,-58.6533,-2.39531,
2026_07_06_17_00_12.986,3.869,33.2,0,0.762,0,0,0,0, ,0,0,0,0,0, ,828.6,-35.5,-510.2,-5.4,9.8,-4.4,25,812.684,-50.9116,-252.15,-10.6015,-54.2473,-2.42911,
2026_07_06_17_00_13.005,3.869,33.1,0,0.761,0,0,0,0, ,0,0,0,0,0, ,846,-33.5,-499.3,-2.1,-3.7,-5,25,814.184,-49.9115,-267.542,-10.1839,-50.7557,-2.5675,
2026_07_06_17_00_13.025,3.869,33.2,0,0.762,0,0,0,0, ,0,0,0,0,0, ,874.7,-41.1,-481.3,-2,-4,-4.9,25,816.997,-49.143,-281.117,-9.68828,-47.8974,-2.71268,
2026_07_06_17_00_13.046,3.869,33.2,0,0.762,0,0,0,0, ,0,0,0,0,0, ,883.9,-36.7,-465.8,-1.8,5.4,-2.9,25,820.794,-48.5188,-292.843,-9.21368,-44.936,-2.78503,
2026_07_06_17_00_13.065,3.869,33.1,0,0.76,0,0,0,0, ,0,0,0,0,0, ,888.1,-29.6,-456.9,-7.2,14.7,-2.4,25,824.767,-47.5822,-303.111,-8.92644,-41.5853,-2.7768,
2026_07_06_17_00_13.084,3.869,33.2,0,0.76,0,0,0,0, ,0,0,0,0,0, ,846.8,-30.3,-503.4,-3.8,13.5,-4,25,827.368,-46.5078,-313.9,-8.71765,-38.192,-2.80259,
2026_07_06_17_00_13.104,3.869,33.1,0,0.761,0,0,0,0, ,0,0,0,0,0, ,846.9,-30.5,-505.1,2.1,-11.1,-3,25,828.556,-45.5262,-325.499,-8.23821,-35.7915,-2.84509,
2026_07_06_17_00_13.124,3.869,33,0,0.762,0,0,0,0, ,0,0,0,0,0, ,883.3,-35.5,-495.4,2.6,-21.1,-3.6,25,830.783,-44.7629,-336.148,-7.59299,-34.5916,-2.87281,
2026_07_06_17_00_13.144,3.869,33,0,0.76,0,0,0,0, ,0,0,0,0,0, ,897,-31.3,-469.7,2,-10.5,-2.5,25,834.4,-44.0705,-345.069,-6.99014,-33.4465,-2.88361,
2026_07_06_17_00_13.163,3.869,33,0,0.761,0,0,0,0, ,0,0,0,0,0, ,893,-28.1,-446,-0.7,5.9,-1.3,25,838.093,-43.1948,-351.942,-6.52457,-31.5485,-2.82367,
2026_07_06_17_00_13.184,3.869,33.1,0,0.76,0,0,0,0, ,0,0,0,0,0, ,874.1,-24.1,-451.6,-4.9,15,-1.1,25,840.863,-42.1531,-357.844,-6.2976,-28.9892,-2.72473,
2026_07_06_17_00_13.202,3.869,33.2,0,0.76,0,0,0,0, ,0,0,0,0,0, ,864.5,-26.7,-462.5,-6.4,15.6,-1.4,25,842.596,-41.1322,-363.89,-6.25814,-26.2903,-2.63486,
2026_07_06_17_00_13.223,3.869,33.1,0,0.761,0,0,0,0, ,0,0,0,0,0, ,850.8,-29.1,-479.6,-8.3,8.1,-2.3,25,843.513,-40.3258,-370.42,-6.32467,-23.9661,-2.58703,
2026_07_06_17_00_13.242,3.869,33.1,0,0.762,0,0,0,0, ,0,0,0,0,0, ,857.6,-33.8,-486.9,-6.9,-0.8,-3.1,25,844.165,-39.785,-377.295,-6.40239,-22.2833,-2.59392,
2026_07_06_17_00_13.262,3.869,33.1,0,0.762,0,0,0,0, ,0,0,0,0,0, ,867.4,-34.3,-478.7,-4.7,-4,-3.1,25,845.282,-39.4355,-383.725,-6.36568,-21.0716,-2.62476,
2026_07_06_17_00_13.281,3.869,33.2,0,0.762,0,0,0,0, ,0,0,0,0,0, ,867.1,-30.1,-464.4,0.1,-0.3,-0.9,25,846.621,-38.9946,-389.076,-6.11793,-19.9186,-2.58669,
2026_07_06_17_00_13.301,3.869,33.2,0,0.76,0,0,0,0, ,0,0,0,0,0, ,878.6,-25,-465.8,-7.6,4.9,-0.6,25,848.219,-38.2972,-393.709,-5.97363,-18.5647,-2.47476,
2026_07_06_17_00_13.322,3.869,33.2,0,0.759,0,0,0,0, ,0,0,0,0,0, ,892.8,-27.9,-457.3,-11.3,10.9,0.3,25,850.503,-37.5752,-397.843,-6.18547,-16.952,-2.3331,
2026_07_06_17_00_13.341,3.869,33.1,0,0.759,0,0,0,0, ,0,0,0,0,0, ,883.1,-24.5,-458.4,-12.8,16.7,2,25,852.785,-36.8821,-401.5,-6.54284,-15.078,-2.12085,
2026_07_06_17_00_13.361,3.869,33.1,0,0.761,0,0,0,0, ,0,0,0,0,0, ,861.4,-20.5,-460.5,-12.8,12.7,3.5,25,853.971,-36.0057,-405.031,-6.92414,-13.2634,-1.82403,
2026_07_06_17_00_13.381,3.869,33.2,0,0.761,0,0,0,0, ,0,0,0,0,0, ,850.3,-30.6,-483.5,-10.3,-4.7,1.2,25,854.085,-35.3685,-409.112,-7.20603,-12.2114,-1.56967,
2026_07_06_17_00_13.402,3.869,33.1,0,0.761,0,0,0,0, ,0,0,0,0,0, ,793.9,-14.1,-508.1,1.8,-24.9,-0.3,25,852.136,-34.5752,-414.395,-7.02589,-12.3692,-1.4466,
2026_07_06_17_00_13.421,3.869,33.1,0,0.761,0,0,0,0, ,0,0,0,0,0, ,890.5,-36.9,-496.5,5.7,-42,1.2,25,851.531,-34.0222,-419.751,-6.36924,-13.6538,-1.33103,
2026_07_06_17_00_13.441,3.869,33.1,0,0.762,0,0,0,0, ,0,0,0,0,0, ,880.1,-37.8,-496.9,2.8,-47.1,4.9,25,853.589,-34.225,-424.44,-5.72213,-15.5365,-1.06406,
2026_07_06_17_00_13.460,3.869,33.1,0,0.762,0,0,0,0, ,0,0,0,0,0, ,808.5,-36,-537.2,9,-56.9,3.9,25,853.023,-34.388,-430.084,-5.01391,-17.7585,-0.731092,
2026_07_06_17_00_13.480,3.869,33.1,0,0.762,0,0,0,0, ,0,0,0,0,0, ,808.3,-33.6,-531.8,4.6,-87.4,6.3,25,850.303,-34.4131,-436.447,-4.294,-21.073,-0.37576,
2026_07_06_17_00_13.499,3.869,33.1,0,0.76,0,0,0,0, ,0,0,0,0,0, ,802,-28.1,-549.8,5.5,-103.5,8.4,25,847.552,-34.196,-442.806,-3.7246,-25.6053,0.0950289,
2026_07_06_17_00_13.520,3.869,33.2,0,0.76,0,0,0,0, ,0,0,0,0,0, ,801.7,-30.5,-571,7.4,-87.8,2.6,25,844.767,-33.8976,-449.972,-3.10458,-29.8737,0.424394,
2026_07_06_17_00_13.539,3.869,33.2,0,0.76,0,0,0,0, ,0,0,0,0,0, ,797.2,-42.4,-613,14.9,-74.7,-3,25,842.005,-34.0531,-458.626,-2.23594,-33.0044,0.386345,
2026_07_06_17_00_13.558,3.869,33.2,0,0.76,0,0,0,0, ,0,0,0,0,0, ,777.4,-55,-652.8,13.2,-101.9,3.6,25,838.672,-34.9457,-469.246,-1.24352,-36.374,0.381084,
2026_07_06_17_00_13.579,3.869,33.1,0,0.761,0,0,0,0, ,0,0,0,0,0, ,715,-55.1,-711.3,13.8,-124.3,4.1,25,833.037,-36.1708,-482.214,-0.345085,-41.0495,0.592471,
2026_07_06_17_00_13.599,3.869,33.2,0,0.76,0,0,0,0, ,0,0,0,0,0, ,727.1,-70.8,-717.5,10.1,-126.6,10.5,25,826.213,-37.8027,-496.363,0.404146,-46.1927,1.00121,
2026_07_06_17_00_13.618,3.869,33,0,0.761,0,0,0,0, ,0,0,0,0,0, ,718.3,-72.7,-731.2,13.9,-106.6,11.1,25,819.905,-39.8713,-510.256,1.11077,-50.4831,1.59832,
2026_07_06_17_00_13.644,3.869,33.1,0,0.761,0,0,0,0, ,0,0,0,0,0, ,633.6,-62.2,-813.2,15.3,-113.2,8,25,811.133,-41.5519,-526.218,1.93277,-54.1038,2.08288,
2026_07_06_17_00_13.658,3.869,33.1,0,0.76,0,0,0,0, ,0,0,0,0,0, ,652.7,-67.8,-776,18.3,-125.5,6,25,800.896,-42.9808,-542.573,2.83874,-58.0798,2.38252,
2026_07_06_17_00_13.678,3.869,33.2,0,0.76,0,0,0,0, ,0,0,0,0,0, ,648.4,-73.6,-779.5,18.3,-118.5,4.9,25,791.734,-44.6699,-556.904,3.78091,-61.9749,2.56944,
2026_07_06_17_00_13.699,3.869,33.2,0,0.761,0,0,0,0, ,0,0,0,0,0, ,565.3,-83.9,-813.1,23.1,-103.4,-4.4,25,780.468,-46.7467,-571.492,4.81192,-64.9593,2.4281,
2026_07_06_17_00_13.720,3.869,33.2,0,0.762,0,0,0,0, ,0,0,0,0,0, ,501,-88.1,-826.7,19,-114.7,-6.3,25,765.397,-49.1387,-586.629,5.80143,-67.6461,1.95412,
2026_07_06_17_00_13.737,3.869,33.2,0,0.761,0,0,0,0, ,0,0,0,0,0, ,509.6,-102.1,-831.4,10.4,-126.9,-2.1,25,749.547,-51.9394,-601.402,6.34368,-70.8852,1.57911,
2026_07_06_17_00_13.757,3.869,33.1,0,0.763,0,0,0,0, ,0,0,0,0,0, ,491.3,-114.6,-842,1.2,-108.3,0.3,25,734.368,-55.3769,-615.74,6.31055,-73.7318,1.42804,
2026_07_06_17_00_13.777,3.869,33.1,0,0.76,0,0,0,0, ,0,0,0,0,0, ,439.5,-122.4,-872.4,-1.4,-83.5,5.5,25,717.978,-59.2235,-630.454,5.91991,-75.0827,1.51773,
2026_07_06_17_00_13.797,3.869,33.1,0,0.76,0,0,0,0, ,0,0,0,0,0, ,363.2,-95.8,-890.7,-6.1,-77.8,7.6,25,698.683,-62.2629,-645.755,5.33065,-75.422,1.82439,
2026_07_06_17_00_13.816,3.869,33.1,0,0.76,0,0,0,0, ,0,0,0,0,0, ,345.5,-94.1,-893.7,-6.4,-85,3.2,25,677.701,-64.2547,-660.773,4.62495,-75.7863,2.04228,
2026_07_06_17_00_13.836,3.869,33.2,0,0.763,0,0,0,0, ,0,0,0,0,0, ,337.4,-103.2,-913.6,-6,-83.8,-1.4,25,657.21,-66.3507,-675.573,3.96531,-76.3112,1.97267,
2026_07_06_17_00_13.857,3.869,33.1,0,0.763,0,0,0,0, ,0,0,0,0,0, ,318.3,-110.3,-938.8,-6.9,-78.9,0.1,25,637.14,-68.8125,-690.846,3.33062,-76.6182,1.81285,
2026_07_06_17_00_13.876,3.869,33.1,0,0.761,0,0,0,0, ,0,0,0,0,0, ,303.8,-109,-954.1,-6.4,-74.7,1.6,25,617.269,-71.3011,-706.422,2.72243,-76.6293,1.75418,
2026_07_06_17_00_13.895,3.869,33,0,0.761,0,0,0,0, ,0,0,0,0,0, ,296,-99.4,-974.4,-3.6,-70.8,3.5,25,597.929,-73.3058,-722.133,2.25185,-76.3929,1.80267,
2026_07_06_17_00_13.917,3.869,33.2,0,0.761,0,0,0,0, ,0,0,0,0,0, ,277.3,-93.6,-974.8,0,-75.9,5.7,25,578.961,-74.7192,-737.518,2.00494,-76.2075,1.97313,
2026_07_06_17_00_13.936,3.869,33.1,0,0.76,0,0,0,0, ,0,0,0,0,0, ,246.2,-101.3,-968.3,0,-80.9,6,25,559.631,-76.1044,-751.779,1.88276,-76.3411,2.20938,
2026_07_06_17_00_13.956,3.869,33.2,0,0.76,0,0,0,0, ,0,0,0,0,0, ,221.9,-99.2,-954.5,-3.6,-79.7,5.1,25,539.79,-77.5758,-764.553,1.65834,-76.5823,2.41295,
2026_07_06_17_00_13.974,3.869,33.2,0,0.761,0,0,0,0, ,0,0,0,0,0, ,218.6,-97.4,-967.6,-4.8,-71.5,5.8,25,520.318,-78.8386,-776.527,1.30135,-76.5225,2.59802,
2026_07_06_17_00_13.996,3.869,33.1,0,0.761,0,0,0,0, ,0,0,0,0,0, ,201.4,-99.6,-993.7,-4.3,-61.7,9.3,25,501.408,-80.0368,-788.966,0.944783,-75.9178,2.89978,
2026_07_06_17_00_14.014,3.869,33.1,0,0.76,0,0,0,0, ,0,0,0,0,0, ,155.8,-97.6,-1008,-2.7,-62.3,14.5,25,481.737,-81.168,-801.877,0.673929,-75.0697,3.44823,
2026_07_06_17_00_14.034,3.869,33.1,0,0.761,0,0,0,0, ,0,0,0,0,0, ,137.4,-102.7,-994.7,-0.4,-62.2,15.4,25,461.315,-82.3247,-814.033,0.538408,-74.2885,4.14912,
2026_07_06_17_00_14.054,3.869,33.1,0,0.762,0,0,0,0, ,0,0,0,0,0, ,96.9,-96.1,-974.4,-0.7,-55.1,13.6,25,440.342,-83.3652,-824.424,0.472083,-73.3355,4.77988,
2026_07_06_17_00_14.074,3.869,33.2,0,0.761,0,0,0,0, ,0,0,0,0,0, ,70.8,-95.5,-998.1,-2.6,-54.3,12.2,25,418.619,-84.1229,-834.285,0.342769,-72.1999,5.2747,
2026_07_06_17_00_14.094,3.869,33.2,0,0.761,0,0,0,0, ,0,0,0,0,0, ,78.1,-108.7,-1008,0,-46.6,11,25,397.646,-85.2184,-844.569,0.242663,-70.8745,5.66015,
2026_07_06_17_00_14.114,3.869,33.1,0,0.76,0,0,0,0, ,0,0,0,0,0, ,57.8,-100.3,-977.4,-0.8,-36.1,13.3,25,377.555,-86.3934,-853.596,0.2035,-69.0754,6.05562,
2026_07_06_17_00_14.133,3.869,33.2,0,0.761,0,0,0,0, ,0,0,0,0,0, ,6.8,-87.7,-986,-5.3,-35.2,16.9,25,356.516,-86.8569,-861.402,0.00524015,-67.0385,6.60676,
2026_07_06_17_00_14.153,3.869,33.2,0,0.761,0,0,0,0, ,0,0,0,0,0, ,-25,-74.7,-1019.6,-3.1,-44,15.2,25,334.236,-86.5122,-870.019,-0.251017,-65.3665,7.18221,
2026_07_06_17_00_14.173,3.869,33.1,0,0.761,0,0,0,0, ,0,0,0,0,0, ,1.2,-98.1,-996.8,-1.3,-50.7,12.3,25,313.144,-86.5054,-878.439,-0.369783,-64.2686,7.58243,
2026_07_06_17_00_14.194,3.869,33.1,0,0.76,0,0,0,0, ,0,0,0,0,0, ,12.9,-102.2,-979.8,-2.9,-44,11.6,25,294.491,-87.3368,-885.134,-0.475218,-63.2376,7.84858,
2026_07_06_17_00_14.215,3.869,33,0,0.761,0,0,0,0, ,0,0,0,0,0, ,-14.4,-103.6,-994,-3,-22.4,11.5,25,276.5,-88.2852,-891.335,-0.626025,-61.4072,8.07414,
2026_07_06_17_00_14.241,3.869,33.1,0,0.761,0,0,0,0, ,0,0,0,0,0, ,-51.1,-83.8,-1003.7,-5.5,-8.9,7.3,25,257.655,-88.6152,-897.887,-0.846861,-58.6189,8.15493,
2026_07_06_17_00_14.252,3.869,33.1,0,0.761,0,0,0,0, ,0,0,0,0,0, ,-53.7,-71.7,-984.9,-3.9,-13.8,3.5,25,238.761,-87.9531,-903.762,-1.08166,-55.7384,7.98705,
2026_07_06_17_00_14.272,3.869,33,0,0.76,0,0,0,0, ,0,0,0,0,0, ,-31.4,-102.2,-995.9,-6.8,-18.5,3,25,221.619,-87.892,-909.041,-1.34176,-53.326,7.69839,
2026_07_06_17_00_14.292,3.869,33.1,0,0.76,0,0,0,0, ,0,0,0,0,0, ,-35.8,-98.9,-1005,-3.3,-6.9,2.3,25,206.066,-88.6633,-914.612,-1.56773,-50.8504,7.39075,
2026_07_06_17_00_14.313,3.869,33.1,0,0.761,0,0,0,0, ,0,0,0,0,0, ,-43,-95.7,-1000.9,0,4.4,1.7,25,191.108,-89.1896,-919.995,-1.57275,-47.8278,7.06225,
2026_07_06_17_00_14.331,3.869,33,0,0.761,0,0,0,0, ,0,0,0,0,0, ,-58.7,-86.3,-1002.3,0,10.5,-2,25,176.364,-89.2999,-924.968,-1.47691,-44.4594,6.62276,
2026_07_06_17_00_14.352,3.869,33.2,0,0.76,0,0,0,0, ,0,0,0,0,0, ,-45.1,-79.1,-993,0.9,3.4,-1.3,25,162.454,-88.8977,-929.397,-1.35949,-41.3266,6.11864,
2026_07_06_17_00_14.371,3.869,33.1,0,0.762,0,0,0,0, ,0,0,0,0,0, ,-40.2,-90,-992.1,-2.7,-1.6,-0.4,25,149.955,-88.6328,-933.245,-1.33149,-38.7534,5.69399,
2026_07_06_17_00_14.392,3.869,33.1,0,0.762,0,0,0,0, ,0,0,0,0,0, ,-41.2,-90.8,-998.5,-3,-0.8,0.5,25,138.337,-88.7405,-937.027,-1.42402,-36.465,5.35006,
2026_07_06_17_00_14.411,3.869,33.1,0,0.762,0,0,0,0, ,0,0,0,0,0, ,-43.2,-88.2,-1004.7,-1.2,5,-1.1,25,127.336,-88.7868,-940.962,-1.46521,-34.1149,5.00575,
2026_07_06_17_00_14.432,3.869,33.1,0,0.761,0,0,0,0, ,0,0,0,0,0, ,-35.4,-91.3,-990.1,1.8,11,-2.2,25,117.181,-88.8455,-944.401,-1.35765,-31.5486,4.60017,
2026_07_06_17_00_14.449,3.869,33.2,0,0.762,0,0,0,0, ,0,0,0,0,0, ,-37.1,-86.6,-990.3,-0.6,5.9,0,25,107.832,-88.8518,-947.192,-1.23835,-29.1112,4.25282,
2026_07_06_17_00_14.472,3.869,33.2,0,0.761,0,0,0,0, ,0,0,0,0,0, ,-18.9,-90.2,-997.5,-2,1.9,0.4,25,99.5545,-88.8243,-950.038,-1.24211,-27.0995,4.00585,
2026_07_06_17_00_14.490,3.869,33.2,0,0.761,0,0,0,0, ,0,0,0,0,0, ,-18.4,-87.8,-1003.4,-1.5,9.1,0.9,25,92.3514,-88.835,-953.11,-1.27306,-25.113,3.80135,
2026_07_06_17_00_14.510,3.869,33.1,0,0.762,0,0,0,0, ,0,0,0,0,0, ,-29.6,-88.2,-1001.7,-0.4,14.3,0.9,25,85.2612,-88.7841,-956.123,-1.25337,-22.8697,3.62455,
2026_07_06_17_00_14.534,3.869,33.1,0,0.762,0,0,0,0, ,0,0,0,0,0, ,-16.3,-96.5,-994.1,1.3,17.7,-1.6,25,78.6671,-89.0014,-958.668,-1.14957,-20.5011,3.38235,
2026_07_06_17_00_14.554,3.869,33.2,0,0.761,0,0,0,0, ,0,0,0,0,0, ,4.7,-98.7,-991,1.4,21.9,-0.3,25,73.5199,-89.5254,-960.733,-0.997255,-18.0452,3.11835,
2026_07_06_17_00_14.569,3.869,33.1,0,0.762,0,0,0,0, ,0,0,0,0,0, ,-18.5,-75.1,-989.7,-1,21.1,2.6,25,68.6193,-89.3654,-962.538,-0.924297,-15.6355,2.9984,
2026_07_06_17_00_14.591,3.869,33.1,0,0.763,0,0,0,0, ,0,0,0,0,0, ,-10.3,-92,-984.1,-2.4,18.8,1.5,25,63.5603,-89.011,-964.022,-0.971567,-13.467,2.94061,
2026_07_06_17_00_14.608,3.869,33.1,0,0.761,0,0,0,0, ,0,0,0,0,0, ,-11.7,-86.3,-983.1,-2.3,13.8,0.7,25,59.0168,-89.0195,-965.215,-1.05556,-11.653,2.82845,
2026_07_06_17_00_14.630,3.869,33.2,0,0.76,0,0,0,0, ,0,0,0,0,0, ,0,-88.5,-974.1,-3.2,17.5,-0.1,25,55.064,-88.9208,-966.031,-1.15882,-9.98926,2.67437,
2026_07_06_17_00_14.648,3.869,33.2,0,0.761,0,0,0,0, ,0,0,0,0,0, ,11.3,-89.2,-977.6,-2.8,25.2,-1.5,25,52.0528,-88.9165,-966.629,-1.27102,-8.07953,2.46265,
2026_07_06_17_00_14.669,3.869,33.1,0,0.761,0,0,0,0, ,0,0,0,0,0, ,12.9,-85.4,-987.5,-4,29.9,0.5,25,49.6182,-88.818,-967.6,-1.40075,-5.90835,2.28211,
2026_07_06_17_00_14.688,3.869,33.1,0,0.761,0,0,0,0, ,0,0,0,0,0, ,-24,-72.3,-994.8,-4.8,21.5,-2.5,25,46.2564,-88.2106,-969.035,-1.58352,-3.98222,2.08211,
2026_07_06_17_00_14.710,3.869,33,0,0.762,0,0,0,0, ,0,0,0,0,0, ,-26.3,-71.5,-1010.9,-6.3,-3.6,-6.5,25,41.9051,-87.2166,-971.095,-1.82523,-3.19416,1.68101,
2026_07_06_17_00_14.727,3.869,33.1,0,0.762,0,0,0,0, ,0,0,0,0,0, ,30.1,-83.8,-1008,-5.1,-20,-9,25,39.4673,-86.6337,-973.433,-2.06134,-3.71858,1.10631,
2026_07_06_17_00_14.749,3.869,33.1,0,0.761,0,0,0,0, ,0,0,0,0,0, ,84.8,-91,-1004,-2.7,-4.6,-6.9,25,40.5631,-86.6804,-975.417,-2.17339,-4.24151,0.554441,
2026_07_06_17_00_14.766,3.869,33.1,0,0.761,0,0,0,0, ,0,0,0,0,0, ,82.5,-82.3,-984.7,-1.6,18.9,-1.9,25,43.1887,-86.6785,-976.571,-2.17196,-3.54734,0.25253,
2026_07_06_17_00_14.788,3.869,33,0,0.76,0,0,0,0, ,0,0,0,0,0, ,26.7,-62.1,-996.9,-3.5,27.7,-0.2,25,43.8841,-85.7962,-977.438,-2.195,-1.91133,0.173157,
2026_07_06_17_00_14.806,3.869,33.2,0,0.761,0,0,0,0, ,0,0,0,0,0, ,22.4,-67.7,-1005.8,-5.8,12.4,-2.2,25,42.7059,-84.5229,-978.895,-2.3446,-0.573062,0.0894803,
2026_07_06_17_00_14.827,3.869,33.1,0,0.763,0,0,0,0, ,0,0,0,0,0, ,49.9,-79.8,-1021.1,-3.9,2.9,-4.3,25,42.3064,-83.8664,-981.001,-2.49727,-0.0719693,-0.114019,
2026_07_06_17_00_14.845,3.869,33.1,0,0.761,0,0,0,0, ,0,0,0,0,0, ,91,-83.6,-1010.1,-0.2,12.2,-3.4,25,44.0214,-83.7344,-983.109,-2.47002,0.392494,-0.341681,
2026_07_06_17_00_14.867,3.869,33.1,0,0.76,0,0,0,0, ,0,0,0,0,0, ,108,-87,-996.4,2.2,25.2,0,25,47.4021,-83.8298,-984.336,-2.25856,1.50811,-0.424453,
2026_07_06_17_00_14.885,3.869,33,0,0.762,0,0,0,0, ,0,0,0,0,0, ,97.2,-75.6,-988.4,4,42.3,1.4,25,50.7657,-83.6756,-984.828,-1.93203,3.47285,-0.355932,
2026_07_06_17_00_14.909,3.869,33.1,0,0.761,0,0,0,0, ,0,0,0,0,0, ,83.2,-61.5,-994.9,4.8,54.1,1,25,53.1688,-82.7539,-985.244,-1.54617,6.19841,-0.261117,
2026_07_06_17_00_14.925,3.869,33.2,0,0.762,0,0,0,0, ,0,0,0,0,0, ,125.2,-72,-1006.5,9.6,54.1,6.3,25,56.2785,-81.7787,-986.185,-1.0132,9.11741,-0.0227835,
2026_07_06_17_00_14.947,3.869,33.1,0,0.762,0,0,0,0, ,0,0,0,0,0, ,119.3,-98.9,-957.7,3.8,45.2,7,25,60.2986,-82.0024,-985.937,-0.543176,11.5874,0.383839,
2026_07_06_17_00_14.965,3.869,33.2,0,0.761,0,0,0,0, ,0,0,0,0,0, ,148.8,-87.4,-986.4,0.9,47.4,2.7,25,64.7928,-82.6817,-985.09,-0.366873,13.7027,0.655996,
2026_07_06_17_00_14.986,3.869,33.1,0,0.762,0,0,0,0, ,0,0,0,0,0, ,177,-84.4,-985.1,-0.2,54.3,4.7,25,70.7712,-82.8778,-985.13,-0.323188,15.9663,0.84149,
2026_07_06_17_00_15.004,3.869,33.2,0,0.76,0,0,0,0, ,0,0,0,0,0, ,180.2,-84.3,-983.3,1.1,60.2,4.4,25,77.3421,-82.9675,-985.074,-0.276072,18.4821,1.06748,
2026_07_06_17_00_15.026,3.869,33.1,0,0.761,0,0,0,0, ,0,0,0,0,0, ,183.8,-82.7,-980.8,3.1,60.2,2.4,25,83.7197,-83,-984.89,-0.13128,21.0242,1.20962,
2026_07_06_17_00_15.043,3.869,33.2,0,0.761,0,0,0,0, ,0,0,0,0,0, ,197.9,-80.3,-984.8,3,51.2,0,25,90.2479,-82.9086,-984.762,0.0625789,23.1373,1.20903,
2026_07_06_17_00_15.066,3.869,33.2,0,0.761,0,0,0,0, ,0,0,0,0,0, ,238.6,-89.4,-982.1,1.7,43.4,0,25,98.048,-83.0269,-984.682,0.201969,24.6097,1.13535,
2026_07_06_17_00_15.083,3.869,33.2,0,0.761,0,0,0,0, ,0,0,0,0,0, ,269.2,-94.4,-969.7,2.9,43.2,1.1,25,107.545,-83.5676,-984.147,0.329817,25.7487,1.09968,
2026_07_06_17_00_15.106,3.869,33.2,0,0.761,0,0,0,0, ,0,0,0,0,0, ,281,-92.5,-961.4,2.7,44.9,3.4,25,117.756,-84.1698,-983.014,0.480344,26.8639,1.16978,
2026_07_06_17_00_15.122,3.869,33.2,0,0.762,0,0,0,0, ,0,0,0,0,0, ,292.8,-90.8,-968.7,3.1,52.3,2.3,25,128.063,-84.6256,-981.919,0.627792,28.1884,1.27217,
2026_07_06_17_00_15.144,3.869,33.1,0,0.76,0,0,0,0, ,0,0,0,0,0, ,321.4,-101.3,-976,7.1,62.6,2.2,25,138.973,-85.3218,-981.336,0.900317,29.9716,1.33176,
2026_07_06_17_00_15.162,3.869,33.2,0,0.76,0,0,0,0, ,0,0,0,0,0, ,393.7,-83.8,-1020.1,22.8,80.5,8.1,25,152.292,-85.7623,-982.355,1.75647,32.5052,1.56443,
2026_07_06_17_00_15.184,3.869,33.2,0,0.761,0,0,0,0, ,0,0,0,0,0, ,365.1,-101.5,-926.5,16.8,92.9,0.9,25,166.132,-86.182,-981.803,2.856,35.8077,1.74332,
2026_07_06_17_00_15.201,3.869,33.2,0,0.76,0,0,0,0, ,0,0,0,0,0, ,409.5,-114.6,-907.4,14.6,99.1,0.8,25,179.609,-87.5146,-977.851,3.63868,39.4757,1.68888,
2026_07_06_17_00_15.224,3.869,33.2,0,0.761,0,0,0,0, ,0,0,0,0,0, ,409.7,-113.1,-910,10.6,101.3,3.6,25,193.624,-89.1194,-973.637,4.18476,43.1761,1.72003,
2026_07_06_17_00_15.242,3.869,33.1,0,0.763,0,0,0,0, ,0,0,0,0,0, ,442.2,-129,-919.7,10.8,104.8,5,25,207.782,-91.0652,-970.055,4.58178,46.8247,1.87724,
2026_07_06_17_00_15.265,3.869,33.2,0,0.76,0,0,0,0, ,0,0,0,0,0, ,486,-140.7,-899.6,13.9,102.9,8,25,223.401,-93.7333,-966.374,5.05516,50.2996,2.15894,
2026_07_06_17_00_15.280,3.869,33.2,0,0.762,0,0,0,0, ,0,0,0,0,0, ,493.8,-139,-896.9,16.6,128.5,10,25,239.641,-96.5435,-962.222,5.67641,54.285,2.57582,
2026_07_06_17_00_15.304,3.869,33.1,0,0.76,0,0,0,0, ,0,0,0,0,0, ,534.1,-130.6,-849.9,26.3,178.7,-7.2,25,256.357,-98.8748,-956.81,6.63761,60.337,2.50417,
2026_07_06_17_00_15.321,3.869,33.2,0,0.762,0,0,0,0, ,0,0,0,0,0, ,609.9,-136.7,-763.9,26.7,198.2,-19.5,25,275.591,-100.994,-947.675,7.84797,68.1439,1.53806,
2026_07_06_17_00_15.342,3.869,33.1,0,0.761,0,0,0,0, ,0,0,0,0,0, ,650.8,-139.4,-691,17.3,189,-16.7,25,297.209,-103.252,-934.255,8.71036,75.7888,0.341361,
2026_07_06_17_00_15.359,3.869,33.2,0,0.763,0,0,0,0, ,0,0,0,0,0, ,694.9,-141.3,-678.4,9.2,183.1,-13.1,25,320.1,-105.513,-919.047,8.987,82.5079,-0.587409,
2026_07_06_17_00_15.382,3.869,33.1,0,0.76,0,0,0,0, ,0,0,0,0,0, ,719.1,-147,-669.7,8.1,176.1,-13.5,25,343.677,-107.867,-904.118,8.96646,88.4244,-1.36208,
2026_07_06_17_00_15.399,3.869,33.2,0,0.762,0,0,0,0, ,0,0,0,0,0, ,758.5,-145.1,-620.9,9.4,170.6,-10.7,25,367.754,-110.194,-888.346,8.95327,93.5996,-2.01642,
2026_07_06_17_00_15.422,3.869,33.2,0,0.761,0,0,0,0, ,0,0,0,0,0, ,813.4,-135.7,-555.4,10.9,168.4,-14.9,25,393.238,-112.035,-870.053,9.0262,98.2248,-2.67355,
2026_07_06_17_00_15.439,3.869,33.2,0,0.761,0,0,0,0, ,0,0,0,0,0, ,812.5,-115.8,-489.9,-11.2,168.7,-16.6,25,418.814,-112.87,-848.883,8.46702,102.51,-3.47039,
2026_07_06_17_00_15.462,3.869,33.2,0,0.761,0,0,0,0, ,0,0,0,0,0, ,890.1,-142.5,-438.2,-0.1,173.1,-16.6,25,445.169,-113.862,-825.432,7.60677,106.678,-4.27048,
2026_07_06_17_00_15.478,3.869,33.2,0,0.761,0,0,0,0, ,0,0,0,0,0, ,898.4,-140.6,-411.9,-3.1,174.2,-12.9,25,472.535,-115.55,-801.034,7.04573,110.759,-4.90908,
2026_07_06_17_00_15.502,3.869,33.1,0,0.762,0,0,0,0, ,0,0,0,0,0, ,892.2,-123.6,-358.7,-4,162.9,-12.3,25,498.297,-116.558,-775.7,6.40005,114.28,-5.37774,
2026_07_06_17_00_15.518,3.869,33.1,0,0.76,0,0,0,0, ,0,0,0,0,0, ,912.7,-113.1,-276.7,-9.4,143.5,-11,25,522.925,-116.667,-747.791,5.60177,116.652,-5.75996,
2026_07_06_17_00_15.541,3.869,33.2,0,0.761,0,0,0,0, ,0,0,0,0,0, ,940.1,-110.5,-239.7,-15.4,130.5,-9.5,25,547.512,-116.371,-717.956,4.50478,117.892,-6.03357,
2026_07_06_17_00_15.558,3.869,33.2,0,0.762,0,0,0,0, ,0,0,0,0,0, ,948.1,-105.8,-213.2,-20,122.9,-9.2,25,571.679,-115.87,-688.005,3.15168,118.429,-6.23566,
2026_07_06_17_00_15.580,3.869,33.2,0,0.762,0,0,0,0, ,0,0,0,0,0, ,972.1,-109.6,-171,-20.7,117.8,-9.2,25,595.348,-115.372,-657.786,1.71955,118.546,-6.4163,
2026_07_06_17_00_15.598,3.869,33.1,0,0.762,0,0,0,0, ,0,0,0,0,0, ,988.8,-109.8,-136.1,-21.5,121.4,-6.5,25,618.816,-115.026,-627.059,0.328981,118.61,-6.50367,
2026_07_06_17_00_15.621,3.869,33.2,0,0.762,0,0,0,0, ,0,0,0,0,0, ,989.9,-107.9,-97.4,-16.9,132.9,-8.3,25,641.395,-114.65,-595.962,-0.861066,119.131,-6.55829,
2026_07_06_17_00_15.636,3.869,33.2,0,0.762,0,0,0,0, ,0,0,0,0,0, ,973.7,-104.9,-59.4,-14.7,139,-12.1,25,662.138,-114.147,-564.423,-1.77141,120.155,-6.78021,
2026_07_06_17_00_15.659,3.869,33.2,0,0.761,0,0,0,0, ,0,0,0,0,0, ,964.9,-98.2,-28.4,-12.6,129.6,-14.5,25,680.856,-113.38,-532.704,-2.49526,121.017,-7.17751,
2026_07_06_17_00_15.677,3.869,33.2,0,0.76,0,0,0,0, ,0,0,0,0,0, ,973.3,-100.9,-8.6,-13.7,109.9,-12.9,25,698.421,-112.537,-501.37,-3.14453,120.94,-7.57497,
2026_07_06_17_00_15.700,3.869,33.2,0,0.761,0,0,0,0, ,0,0,0,0,0, ,994.6,-115.7,24,-7.5,92.8,-7.5,25,715.82,-112.279,-470.348,-3.59885,119.746,-7.73493,
2026_07_06_17_00_15.716,3.869,33.2,0,0.763,0,0,0,0, ,0,0,0,0,0, ,965.9,-104.1,72.5,2,82.9,-5.6,25,731.934,-112.134,-438.746,-3.54712,117.803,-7.66273,
2026_07_06_17_00_15.738,3.869,33.2,0,0.761,0,0,0,0, ,0,0,0,0,0, ,944,-91.1,119.2,6.6,74.4,-7.3,25,745.524,-111.248,-406.169,-3.06894,115.417,-7.58883,
2026_07_06_17_00_15.757,3.869,33.2,0,0.76,0,0,0,0, ,0,0,0,0,0, ,937.8,-86.1,157.4,5.1,61.4,-9.5,25,757.43,-109.868,-372.991,-2.52544,112.521,-7.63826,
2026_07_06_17_00_15.780,3.869,33.2,0,0.761,0,0,0,0, ,0,0,0,0,0, ,942.8,-84.7,172.7,3.5,49.1,-11.7,25,768.573,-108.377,-340.204,-2.10952,109.031,-7.81874,
2026_07_06_17_00_15.796,3.869,33.2,0,0.76,0,0,0,0, ,0,0,0,0,0, ,935,-79.9,201.4,3.5,41.1,-10.1,25,778.953,-106.788,-308.074,-1.76769,105.135,-8.0065,
2026_07_06_17_00_15.820,3.869,33.1,0,0.762,0,0,0,0, ,0,0,0,0,0, ,948.3,-82.8,209.8,4.6,44.8,-9.3,25,788.867,-105.238,-276.772,-1.41317,101.346,-8.1097,
2026_07_06_17_00_15.835,3.869,33.1,0,0.762,0,0,0,0, ,0,0,0,0,0, ,946.2,-75.9,222.9,5.8,52.6,-11,25,798.519,-103.66,-246.723,-1.01018,98.1379,-8.23403,
2026_07_06_17_00_15.864,3.869,33.1,0,0.761,0,0,0,0, ,0,0,0,0,0, ,920,-71,240.8,5.5,40.5,-12.4,25,806.72,-101.819,-217.56,-0.604326,94.9943,-8.44524,
2026_07_06_17_00_15.875,3.869,33.2,0,0.761,0,0,0,0, ,0,0,0,0,0, ,917.7,-67.1,239.9,5.2,17.2,-12.1,25,813.553,-99.8224,-189.656,-0.241484,90.9636,-8.67709,
2026_07_06_17_00_15.899,3.869,33.1,0,0.762,0,0,0,0, ,0,0,0,0,0, ,926.3,-67,242.9,5.5,5.4,-11.5,25,820.161,-97.8253,-163.388,0.0992466,86.1091,-8.86739,
2026_07_06_17_00_15.914,3.869,33.2,0,0.76,0,0,0,0, ,0,0,0,0,0, ,947.8,-66.4,268.4,5.3,-7.4,-8.9,25,827.284,-95.9286,-137.853,0.422261,80.8009,-8.9486,
2026_07_06_17_00_15.936,3.869,33.2,0,0.76,0,0,0,0, ,0,0,0,0,0, ,977,-77.5,277.4,8.4,0.1,-7.3,25,835.518,-94.4674,-112.823,0.813952,75.6547,-8.89689,
2026_07_06_17_00_15.953,3.869,33.2,0,0.761,0,0,0,0, ,0,0,0,0,0, ,968.7,-69.9,292.7,11.4,9.4,-7.6,25,843.886,-93.2019,-88.5775,1.36763,71.3339,-8.80872,
2026_07_06_17_00_15.978,3.869,33.2,0,0.763,0,0,0,0, ,0,0,0,0,0, ,939.3,-60.6,288.3,9.8,1,-5.6,25,850.596,-91.4986,-65.4774,1.93023,67.3039,-8.67412,
2026_07_06_17_00_15.994,3.869,33.2,0,0.762,0,0,0,0, ,0,0,0,0,0, ,917.3,-50.9,278.8,8.8,-16.9,-5.5,25,855.331,-89.3202,-44.2086,2.37933,62.7181,-8.48375,
2026_07_06_17_00_16.018,3.869,33.1,0,0.76,0,0,0,0, ,0,0,0,0,0, ,913.8,-38.5,278.8,9.3,-33,-6.1,25,859.001,-86.6011,-24.5252,2.78582,57.3758,-8.32021,
2026_07_06_17_00_16.033,3.869,33.1,0,0.761,0,0,0,0, ,0,0,0,0,0, ,943.9,-44.6,282.3,11,-42.5,-9.2,25,863.257,-83.8558,-5.93472,3.23457,51.5791,-8.27937,
2026_07_06_17_00_16.057,3.869,33.2,0,0.761,0,0,0,0, ,0,0,0,0,0, ,961.4,-41.6,292.7,11.9,-44.9,-9.8,25,868.705,-81.3723,11.9465,3.7352,45.773,-8.35375,
2026_07_06_17_00_16.073,3.869,33.2,0,0.762,0,0,0,0, ,0,0,0,0,0, ,983.1,-34,290.2,5.2,-38.9,-10.7,25,875.015,-78.7171,28.9787,4.0286,40.4305,-8.4693,
2026_07_06_17_00_16.095,3.869,33.1,0,0.761,0,0,0,0, ,0,0,0,0,0, ,1000,-29.2,270,-0.2,-27.8,-11.2,25,882.116,-75.8459,44.2814,3.93545,35.9345,-8.62047,
2026_07_06_17_00_16.113,3.869,33.2,0,0.76,0,0,0,0, ,0,0,0,0,0, ,1024.5,-32.2,238.5,-3.7,-12.1,-10.2,25,890.046,-73.0948,57.0764,3.57681,32.529,-8.74719,
2026_07_06_17_00_16.136,3.869,33.2,0,0.762,0,0,0,0, ,0,0,0,0,0, ,1011.9,-35.6,206.4,-5.2,-2.4,-7.3,25,897.855,-70.7064,67.1538,3.08768,30.105,-8.74736,
2026_07_06_17_00_16.151,3.869,33.1,0,0.761,0,0,0,0, ,0,0,0,0,0, ,958.8,-34,212.7,-7.7,-3.4,-5,25,903.187,-68.5183,75.8311,2.50647,28.0937,-8.58908,
2026_07_06_17_00_16.176,3.869,33.1,0,0.762,0,0,0,0, ,0,0,0,0,0, ,981.2,-6.1,171.2,-6.5,-7.6,-5,25,907.258,-65.5648,82.9071,1.92108,26.0466,-8.37037,
2026_07_06_17_00_16.193,3.869,33.1,0,0.762,0,0,0,0, ,0,0,0,0,0, ,984.8,-14.5,201.2,-4.2,-14.7,-6.2,25,911.874,-62.1971,89.2015,1.478,23.78,-8.20156,
2026_07_06_17_00_16.216,3.869,33.1,0,0.761,0,0,0,0, ,0,0,0,0,0, ,995.6,-18.9,189.5,-4.5,-9,-7,25,916.647,-59.4246,95.6699,1.12285,21.6088,-8.10396,
2026_07_06_17_00_16.231,3.869,33.2,0,0.761,0,0,0,0, ,0,0,0,0,0, ,988.8,-25.5,187.9,-4.3,-3.2,-7,25,921.251,-57.1562,101.339,0.786305,19.9202,-8.03669,
2026_07_06_17_00_16.253,3.869,33.1,0,0.761,0,0,0,0, ,0,0,0,0,0, ,979.2,-21.2,176.2,-4.2,-0.2,-4.6,25,925.075,-55.0962,106.257,0.479405,18.6028,-7.90039,
2026_07_06_17_00_16.270,3.869,33.1,0,0.762,0,0,0,0, ,0,0,0,0,0, ,980.2,-25.1,171.9,-3.7,-1.4,-4.2,25,928.403,-53.1495,110.388,0.209489,17.4204,-7.68708,
2026_07_06_17_00_16.294,3.869,33.3,0,0.761,0,0,0,0, ,0,0,0,0,0, ,984.2,-24,182.7,-3.1,0.7,-4.1,25,931.682,-51.4067,114.466,-0.0104646,16.3375,-7.47154,
2026_07_06_17_00_16.310,3.869,33.2,0,0.761,0,0,0,0, ,0,0,0,0,0, ,977.6,-22,176.2,-2.5,3.1,-4,25,934.681,-49.6756,118.426,-0.180452,15.4577,-7.26304,
2026_07_06_17_00_16.332,3.869,33.2,0,0.761,0,0,0,0, ,0,0,0,0,0, ,963.3,-21.8,183.7,-2.1,1.6,-4.2,25,936.861,-47.9831,122.175,-0.309612,14.659,-7.0703,
2026_07_06_17_00_16.350,3.869,33.2,0,0.762,0,0,0,0, ,0,0,0,0,0, ,959.2,-19,178.3,-1.4,-2.3,-3.8,25,938.347,-46.3022,125.76,-0.397385,13.7444,-6.8832,
2026_07_06_17_00_16.373,3.869,33.2,0,0.761,0,0,0,0, ,0,0,0,0,0, ,964.8,-21.3,178.8,-0.8,-3.6,-4.6,25,939.788,-44.7086,128.976,-0.440201,12.7271,-6.71969,
2026_07_06_17_00_16.391,3.869,33.2,0,0.762,0,0,0,0, ,0,0,0,0,0, ,965.4,-20.6,186.2,-0.5,-2.5,-4.8,25,941.331,-43.2608,132.238,-0.452986,11.7656,-6.59662,
2026_07_06_17_00_16.424,3.869,33.2,0,0.761,0,0,0,0, ,0,0,0,0,0, ,968.2,-13.3,184.4,-0.8,-1,-5.6,25,942.883,-41.6575,135.472,-0.464991,10.942,-6.51151,
2026_07_06_17_00_16.432,3.869,33,0,0.762,0,0,0,0, ,0,0,0,0,0, ,973.6,-19.7,193.6,-1,-3.2,-5.3,25,944.59,-40.1244,138.733,-0.4915,10.1473,-6.44682,
2026_07_06_17_00_16.456,3.869,33.1,0,0.76,0,0,0,0, ,0,0,0,0,0, ,978.6,-14.2,191,-2.1,-5.6,-5.4,25,946.51,-38.7122,141.998,-0.556002,9.26081,-6.37999,
2026_07_06_17_00_16.469,3.869,33.1,0,0.761,0,0,0,0, ,0,0,0,0,0, ,988.4,-16.3,192.2,-1.8,-1.4,-4.8,25,948.764,-37.2825,145.02,-0.640949,8.4832,-6.30199,
2026_07_06_17_00_16.492,3.869,33.1,0,0.759,0,0,0,0, ,0,0,0,0,0, ,979.2,-13.6,189,-1.8,2.1,-4.4,25,950.899,-35.9216,147.798,-0.711578,7.98758,-6.19827,
2026_07_06_17_00_16.508,3.869,33.1,0,0.762,0,0,0,0, ,0,0,0,0,0, ,969.7,-8.4,181.5,-2.7,0.6,-4.1,25,952.334,-34.403,150.08,-0.805326,7.58311,-6.07955,
2026_07_06_17_00_16.533,3.869,33.2,0,0.761,0,0,0,0, ,0,0,0,0,0, ,973.9,-10.7,184.9,-2.5,-1.9,-4.5,25,953.521,-32.8885,152.098,-0.914689,7.0814,-5.97111,
2026_07_06_17_00_16.548,3.869,33.2,0,0.762,0,0,0,0, ,0,0,0,0,0, ,986.5,-12.4,180.2,-2.2,-0.6,-3.7,25,955.146,-31.5882,153.954,-1.00215,6.57371,-5.85709,
2026_07_06_17_00_16.573,3.869,33.2,0,0.76,0,0,0,0, ,0,0,0,0,0, ,979.2,-11.1,177.8,-1.7,0.8,-3.3,25,956.834,-30.3793,155.48,-1.05991,6.17922,-5.71345,
2026_07_06_17_00_16.593,3.869,33.1,0,0.76,0,0,0,0, ,0,0,0,0,0, ,975.9,-10.8,178.9,-0.7,1.9,-2.5,25,958.097,-29.1953,156.874,-1.06845,5.88494,-5.54201,
2026_07_06_17_00_16.618,3.869,33.2,0,0.76,0,0,0,0, ,0,0,0,0,0, ,965.5,-12.2,176.7,-1,0.5,-2.3,25,958.865,-28.117,158.149,-1.05514,5.59945,-5.35054,
2026_07_06_17_00_16.626,3.869,33.1,0,0.762,0,0,0,0, ,0,0,0,0,0, ,962.5,-4.5,176.2,-0.1,-1.2,-2.6,25,959.178,-26.9125,159.264,-1.02436,5.2369,-5.17379,
2026_07_06_17_00_16.650,3.869,33.2,0,0.76,0,0,0,0, ,0,0,0,0,0, ,974.4,-11.8,189.8,0,-1,-3.3,25,959.743,-25.7691,160.711,-0.964981,4.85075,-5.03828,
2026_07_06_17_00_16.667,3.869,33.2,0,0.76,0,0,0,0, ,0,0,0,0,0, ,983.6,-8.1,179.1,-0.1,1.2,-2.8,25,960.916,-24.8051,162.157,-0.909224,4.56125,-4.91712,
2026_07_06_17_00_16.691,3.869,33.2,0,0.761,0,0,0,0, ,0,0,0,0,0, ,979.9,-11.4,177.3,0.8,5.2,-1.8,25,962.186,-23.8877,163.135,-0.83249,4.4783,-4.75764,
2026_07_06_17_00_16.705,3.869,33.1,0,0.762,0,0,0,0, ,0,0,0,0,0, ,971.6,-9.6,176.1,1.6,7.8,-1.8,25,963.012,-23.0719,163.961,-0.708635,4.6015,-4.57741,
2026_07_06_17_00_16.730,3.869,33.2,0,0.761,0,0,0,0, ,0,0,0,0,0, ,958.9,-7.3,176.1,2.2,6,-2.4,25,963.149,-22.1809,164.701,-0.549672,4.74156,-4.42644,
2026_07_06_17_00_16.745,3.869,33.2,0,0.76,0,0,0,0, ,0,0,0,0,0, ,964.9,-4.7,190.3,2.6,3,-3,25,963.073,-21.1949,165.828,-0.369926,4.72684,-4.32123,
2026_07_06_17_00_16.771,3.869,33.1,0,0.762,0,0,0,0, ,0,0,0,0,0, ,971.1,-5.6,196.5,2.5,2,-3.1,25,963.373,-20.2171,167.509,-0.191993,4.59114,-4.24377,
2026_07_06_17_00_16.785,3.869,33.2,0,0.761,0,0,0,0, ,0,0,0,0,0, ,973.3,-4.1,195.1,2.7,3.7,-3,25,963.911,-19.2807,169.233,-0.021856,4.48504,-4.17102,
2026_07_06_17_00_16.809,3.869,33.2,0,0.762,0,0,0,0, ,0,0,0,0,0, ,971.9,-2.1,200.4,2.7,3.7,-2.9,25,964.44,-18.2947,170.97,0.144007,4.4372,-4.09662,
2026_07_06_17_00_16.825,3.869,33.2,0,0.761,0,0,0,0, ,0,0,0,0,0, ,971.3,-0.3,212.7,1.8,1.8,-3.3,25,964.877,-17.253,173.138,0.272341,4.33439,-4.03589,
2026_07_06_17_00_16.848,3.869,33.2,0,0.761,0,0,0,0, ,0,0,0,0,0, ,969.8,-2.8,219.6,0.7,-0.3,-3.6,25,965.222,-16.2961,175.76,0.331917,4.11597,-4.00018,
2026_07_06_17_00_16.864,3.869,33.2,0,0.762,0,0,0,0, ,0,0,0,0,0, ,984.8,-9.3,205,0.4,-0.8,-3.8,25,965.958,-15.6717,177.986,0.345207,3.83163,-3.98189,
2026_07_06_17_00_16.887,3.869,33.1,0,0.762,0,0,0,0, ,0,0,0,0,0, ,982.4,-6.1,208.6,1.6,0.7,-2.2,25,967.033,-15.1859,179.742,0.385108,3.5951,-3.92206,
2026_07_06_17_00_16.904,3.869,33.1,0,0.764,0,0,0,0, ,0,0,0,0,0, ,971.6,-1.9,214.9,1.6,0.3,-1.4,25,967.641,-14.5043,181.693,0.45914,3.40649,-3.79274,
2026_07_06_17_00_16.928,3.869,33,0,0.761,0,0,0,0, ,0,0,0,0,0, ,964.8,1.3,225.3,0.4,-0.1,-2,25,967.675,-13.6387,184.033,0.492099,3.205,-3.66522,
2026_07_06_17_00_16.944,3.869,33.2,0,0.761,0,0,0,0, ,0,0,0,0,0, ,971.3,0.8,224.1,-1.2,0,-3,25,967.698,-12.7436,186.511,0.437737,3.00665,-3.59421,
2026_07_06_17_00_16.969,3.869,33.1,0,0.761,0,0,0,0, ,0,0,0,0,0, ,973.8,-1.3,213.9,-1.9,0,-2.9,25,967.993,-11.9823,188.491,0.316609,2.82343,-3.55496,
2026_07_06_17_00_16.983,3.869,33.1,0,0.761,0,0,0,0, ,0,0,0,0,0, ,973.9,-3.9,198.3,-1.8,0.7,-2.2,25,968.35,-11.4106,189.564,0.184581,2.67271,-3.49372,
2026_07_06_17_00_17.007,3.869,33.2,0,0.762,0,0,0,0, ,0,0,0,0,0, ,966.7,-3.7,195.9,-0.8,1.5,-1.7,25,968.469,-10.9468,190.023,0.0941147,2.57687,-3.39965,
2026_07_06_17_00_17.022,3.869,33.2,0,0.762,0,0,0,0, ,0,0,0,0,0, ,968.3,-4.2,198.7,-0.5,0.2,-1.8,25,968.41,-10.5204,190.467,0.0487702,2.47164,-3.29912,
2026_07_06_17_00_17.048,3.869,33.3,0,0.761,0,0,0,0, ,0,0,0,0,0, ,972.1,-1.4,208.7,-0.5,-0.3,-1.7,25,968.519,-10.05,191.273,0.0153296,2.31798,-3.20472,
2026_07_06_17_00_17.062,3.869,33.2,0,0.761,0,0,0,0, ,0,0,0,0,0, ,974.6,2,203,-1,-0.9,-1.8,25,968.813,-9.41926,192.161,-0.0313077,2.14016,-3.11607,
2026_07_06_17_00_17.088,3.869,33.2,0,0.761,0,0,0,0, ,0,0,0,0,0, ,972.9,-1.5,201.4,-1,1.7,-1.4,25,969.114,-8.83004,192.773,-0.0903374,2.03412,-3.02369,
2026_07_06_17_00_17.101,3.869,33.2,0,0.762,0,0,0,0, ,0,0,0,0,0, ,964.7,-0.6,202.1,-0.8,0.3,-1.8,25,969.095,-8.35594,193.32,-0.139676,1.9711,-2.93693,
2026_07_06_17_00_17.125,3.869,33.1,0,0.761,0,0,0,0, ,0,0,0,0,0, ,968.8,-3.2,201.2,-0.4,-1.6,-2.3,25,968.952,-7.96253,193.828,-0.167727,1.81138,-2.88288,
2026_07_06_17_00_17.142,3.869,33.1,0,0.761,0,0,0,0, ,0,0,0,0,0, ,977.1,-3.6,207.2,-0.2,1.3,-0.9,25,969.196,-7.6845,194.46,-0.175788,1.69186,-2.80471,
2026_07_06_17_00_17.166,3.869,33.2,0,0.762,0,0,0,0, ,0,0,0,0,0, ,967.4,-0.8,205.9,-0.7,3,-1.1,25,969.382,-7.35029,195.196,-0.192497,1.71978,-2.69473,
2026_07_06_17_00_17.180,3.869,33.2,0,0.761,0,0,0,0, ,0,0,0,0,0, ,959.3,-1.5,211.6,-0.8,2.1,-2.3,25,969.014,-6.97246,196.022,-0.22647,1.77037,-2.63412,
2026_07_06_17_00_17.208,3.869,33.1,0,0.761,0,0,0,0, ,0,0,0,0,0, ,966.9,-3.1,204.3,-0.5,-0.8,-3,25,968.654,-6.68773,196.749,-0.252279,1.7021,-2.63509,
2026_07_06_17_00_17.220,3.869,33.2,0,0.762,0,0,0,0, ,0,0,0,0,0, ,970.5,-0.6,209.8,-0.4,-2,-2.5,25,968.657,-6.39293,197.377,-0.264328,1.51306,-2.64209,
2026_07_06_17_00_17.244,3.869,33.2,0,0.763,0,0,0,0, ,0,0,0,0,0, ,971.8,-1.5,220.5,0,-1.7,-2.3,25,968.809,-6.06735,198.46,-0.260408,1.30813,-2.62734,
2026_07_06_17_00_17.261,3.869,33.2,0,0.762,0,0,0,0, ,0,0,0,0,0, ,968.7,0.3,222.5,-0.2,-1.5,-2.4,25,968.897,-5.73418,199.864,-0.250633,1.13091,-2.61044,
2026_07_06_17_00_17.288,3.869,33.1,0,0.761,0,0,0,0, ,0,0,0,0,0, ,966.3,-0.6,216.3,-0.8,-0.7,-3.1,25,968.811,-5.3939,201.054,-0.265829,0.994965,-2.61894,
