UTC_Time,Vin,TC1,TC2,Rh1,Vh1,Ah1,Acp1,Dty1,Err1,Rh2,Vh2,Ah2,Acp2,Dty2,Err2,Accel_x,Accel_y,Accel_z,gyro_x,gyro_y,gyro_z,Temp_c,Accel_x_h,Accel_y_h,Accel_z_h,gyro_x_h,gyro_y_h,gyro_z_h,
2026_06_26_17_04_29.478,3.861,31.5,0,0.759,0,0,0,0, ,0,0,0,0,0, ,591.9,32.9,-797.4,0.3,2.4,-4.4,25,591.9,32.9,-797.4,0.3,2.4,-4.4,
2026_06_26_17_04_29.491,3.861,31.4,0,0.758,0,0,0,0, ,0,0,0,0,0, ,591.3,36.4,-795.7,-0.1,1.9,-4.1,25,591.882,33.0066,-797.348,0.287813,2.38477,-4.39086,
2026_06_26_17_04_29.522,3.861,31.4,0,0.758,0,0,0,0, ,0,0,0,0,0, ,592.8,36.4,-798.3,-0.5,1,-3.9,25,591.892,33.2134,-797.327,0.251993,2.3278,-4.36704,
2026_06_26_17_04_29.539,3.861,31.5,0,0.757,0,0,0,0, ,0,0,0,0,0, ,592.7,35.8,-807.4,0.3,1.7,-3.2,25,591.944,33.3893,-797.664,0.230543,2.26822,-4.31725,
2026_06_26_17_04_29.555,3.861,31.4,0,0.758,0,0,0,0, ,0,0,0,0,0, ,593,33.5,-805.9,1.1,2.9,-2.7,25,591.999,33.4661,-798.211,0.259151,2.27016,-4.23394,
2026_06_26_17_04_29.586,3.861,31.4,0,0.759,0,0,0,0, ,0,0,0,0,0, ,595.2,30.6,-797.6,0.7,3.6,-2.4,25,592.127,33.3799,-798.427,0.298202,2.32986,-4.13132,
2026_06_26_17_04_29.602,3.861,31.4,0,0.76,0,0,0,0, ,0,0,0,0,0, ,596.1,29.5,-801.1,0.5,3.3,-2.6,25,592.342,33.1769,-798.483,0.316593,2.39812,-4.03191,
2026_06_26_17_04_29.618,3.861,31.4,0,0.758,0,0,0,0, ,0,0,0,0,0, ,598,31.2,-791.5,0.3,3.4,-2.5,25,592.629,33.0047,-798.35,0.321676,2.45613,-3.94161,
2026_06_26_17_04_29.634,3.861,31.4,0,0.759,0,0,0,0, ,0,0,0,0,0, ,598.1,35.1,-784.4,0.7,1.8,-1.9,25,592.959,33.0135,-797.716,0.332542,2.46489,-3.83548,
2026_06_26_17_04_29.650,3.861,31.3,0,0.76,0,0,0,0, ,0,0,0,0,0, ,599.8,29.7,-791.2,1.2,0.6,-1.6,25,593.324,32.9761,-797.112,0.370169,2.38782,-3.7084,
2026_06_26_17_04_29.682,3.861,31.4,0,0.758,0,0,0,0, ,0,0,0,0,0, ,598.3,27.5,-801.8,0.4,1.2,-2,25,593.673,32.7095,-797.075,0.396362,2.29715,-3.5921,
2026_06_26_17_04_29.698,3.861,31.4,0,0.758,0,0,0,0, ,0,0,0,0,0, ,600.2,28.3,-791.3,0,1.6,-2.3,25,594.013,32.4164,-797.043,0.384396,2.24248,-3.50422,
2026_06_26_17_04_29.714,3.861,31.4,0,0.76,0,0,0,0, ,0,0,0,0,0, ,600.3,32.1,-788.5,-0.5,1,-2.2,25,594.393,32.2813,-796.607,0.345737,2.18505,-3.4278,
2026_06_26_17_04_29.730,3.861,31.5,0,0.761,0,0,0,0, ,0,0,0,0,0, ,600.8,32.5,-794.6,0.2,0.7,-2.1,25,594.768,32.2825,-796.299,0.315528,2.10369,-3.34993,
2026_06_26_17_04_29.761,3.861,31.4,0,0.758,0,0,0,0, ,0,0,0,0,0, ,599.9,29.9,-794.6,1.2,1.1,-2.1,25,595.109,32.2165,-796.196,0.338957,2.03034,-3.27376,
2026_06_26_17_04_29.777,3.861,31.4,0,0.761,0,0,0,0, ,0,0,0,0,0, ,600.4,27.5,-796.8,0.6,1.7,-2.5,25,595.416,32.0022,-796.166,0.373146,1.99193,-3.21442,
2026_06_26_17_04_29.793,3.861,31.3,0,0.758,0,0,0,0, ,0,0,0,0,0, ,601.5,28.5,-788.5,-0.9,1.4,-2.6,25,595.753,31.7583,-795.951,0.341266,1.965,-3.17394,
2026_06_26_17_04_29.810,3.861,31.4,0,0.758,0,0,0,0, ,0,0,0,0,0, ,604.2,34.7,-784,-0.9,0.4,-2.2,25,596.185,31.7487,-795.36,0.265627,1.9001,-3.12677,
2026_06_26_17_04_29.841,3.861,31.4,0,0.759,0,0,0,0, ,0,0,0,0,0, ,604.9,33.5,-783.3,1,-1,-1.5,25,596.695,31.892,-794.647,0.252487,1.76604,-3.04897,
2026_06_26_17_04_29.857,3.861,31.5,0,0.758,0,0,0,0, ,0,0,0,0,0, ,603.2,28.3,-786.4,1,-2,-1.3,25,597.143,31.8315,-794.05,0.298039,1.56701,-2.94849,
2026_06_26_17_04_29.873,3.861,31.4,0,0.76,0,0,0,0, ,0,0,0,0,0, ,600.8,27.4,-796.1,0,-2,-1.3,25,597.439,31.5889,-793.879,0.310346,1.34965,-2.84803,
2026_06_26_17_04_29.889,3.861,31.4,0,0.76,0,0,0,0, ,0,0,0,0,0, ,601.9,28.3,-795,-1.2,-1.7,-1.5,25,597.678,31.3611,-793.981,0.254871,1.15467,-2.75979,
2026_06_26_17_04_29.921,3.861,31.4,0,0.758,0,0,0,0, ,0,0,0,0,0, ,601.8,29.4,-794.7,-1.2,-1.4,-1.3,25,597.932,31.208,-794.034,0.166215,0.989852,-2.67693,
2026_06_26_17_04_29.936,3.861,31.4,0,0.758,0,0,0,0, ,0,0,0,0,0, ,601.9,31,-794.6,0.7,-0.7,-0.9,25,598.171,31.1466,-794.071,0.140852,0.865549,-2.58084,
2026_06_26_17_04_29.952,3.861,31.4,0,0.758,0,0,0,0, ,0,0,0,0,0, ,602.9,23.6,-792.3,1.3,0.2,-1,25,598.428,30.9122,-794.033,0.193206,0.79757,-2.48146,
2026_06_26_17_04_29.971,3.861,31.3,0,0.76,0,0,0,0, ,0,0,0,0,0, ,601.1,25.1,-785.7,0.3,0.1,-1.6,25,598.646,30.5123,-793.727,0.230183,0.758109,-2.40946,
2026_06_26_17_04_29.999,3.861,31.4,0,0.76,0,0,0,0, ,0,0,0,0,0, ,602.9,27.5,-792.9,0.1,-1.1,-1.6,25,598.85,30.2556,-793.457,0.228344,0.681443,-2.36013,
2026_06_26_17_04_30.015,3.861,31.4,0,0.76,0,0,0,0, ,0,0,0,0,0, ,601.6,29.5,-783.8,0,-1.8,-1.2,25,599.058,30.1487,-793.146,0.217476,0.551558,-2.30163,
2026_06_26_17_04_30.031,3.861,31.4,0,0.758,0,0,0,0, ,0,0,0,0,0, ,601.3,26.7,-796.3,0.7,-2.8,-0.9,25,599.203,30.0238,-792.957,0.225552,0.377791,-2.22536,
2026_06_26_17_04_30.047,3.861,31.4,0,0.758,0,0,0,0, ,0,0,0,0,0, ,600.2,18,-794.6,-0.1,-1.4,-1.2,25,599.298,29.5562,-793.109,0.230088,0.226801,-2.15373,
2026_06_26_17_04_30.079,3.861,31.4,0,0.761,0,0,0,0, ,0,0,0,0,0, ,600,22.7,-793.4,-0.2,-1.2,-1.6,25,599.346,28.9952,-793.163,0.206927,0.133761,-2.1078,
2026_06_26_17_04_30.095,3.861,31.4,0,0.758,0,0,0,0, ,0,0,0,0,0, ,601.5,24.2,-793.4,-1.2,-1.8,-1.8,25,599.432,28.6573,-793.178,0.151661,0.0342041,-2.08295,
2026_06_26_17_04_30.120,3.861,31.4,0,0.76,0,0,0,0, ,0,0,0,0,0, ,599.4,25.7,-795,-0.2,-1.3,-2,25,599.494,28.4314,-793.24,0.0997627,-0.0623334,-2.0718,
2026_06_26_17_04_30.127,3.861,31.3,0,0.76,0,0,0,0, ,0,0,0,0,0, ,601.5,26.6,-795.2,0.3,-0.7,-2,25,599.552,28.2923,-793.353,0.0967303,-0.119472,-2.06743,
2026_06_26_17_04_30.159,3.861,31.4,0,0.76,0,0,0,0, ,0,0,0,0,0, ,600.3,26.9,-797.7,-0.9,-0.3,-1.9,25,599.634,28.1984,-793.542,0.0725545,-0.142661,-2.06027,
2026_06_26_17_04_30.175,3.861,31.4,0,0.758,0,0,0,0, ,0,0,0,0,0, ,600.5,24.7,-794.6,-1.8,-0.1,-1.8,25,599.681,28.0522,-793.701,-0.0141324,-0.146155,-2.04746,
2026_06_26_17_04_30.191,3.861,31.4,0,0.76,0,0,0,0, ,0,0,0,0,0, ,600.3,24.9,-796.7,-0.8,0.5,-2.1,25,599.725,27.854,-793.82,-0.0924899,-0.125061,-2.04152,
2026_06_26_17_04_30.207,3.861,31.4,0,0.76,0,0,0,0, ,0,0,0,0,0, ,601.8,26.6,-795.7,0.3,1.7,-2.5,25,599.806,27.7258,-793.965,-0.102088,-0.050409,-2.05727,
2026_06_26_17_04_30.238,3.861,31.4,0,0.758,0,0,0,0, ,0,0,0,0,0, ,602.4,28.1,-789.1,-0.2,1.3,-2.1,25,599.945,27.7029,-793.869,-0.0928203,0.0440691,-2.07206,
2026_06_26_17_04_30.254,3.861,31.4,0,0.758,0,0,0,0, ,0,0,0,0,0, ,602.1,27.9,-788.2,0,0.6,-1.7,25,600.086,27.721,-793.551,-0.0932578,0.0992742,-2.06158,
2026_06_26_17_04_30.272,3.861,31.4,0,0.76,0,0,0,0, ,0,0,0,0,0, ,602.7,26.6,-795.7,0.7,0.9,-1.7,25,600.227,27.6923,-793.454,-0.0662468,0.138928,-2.03954,
2026_06_26_17_04_30.286,3.861,31.3,0,0.76,0,0,0,0, ,0,0,0,0,0, ,604.8,29.5,-795.1,0.7,1,-2.2,25,600.442,27.7141,-793.572,-0.0195537,0.188353,-2.03409,
2026_06_26_17_04_30.318,3.861,31.3,0,0.758,0,0,0,0, ,0,0,0,0,0, ,598.7,5.1,-803.8,2.4,4.2,-2.5,25,600.521,27.0795,-793.931,0.076091,0.335312,-2.05334,
2026_06_26_17_04_30.335,3.861,31.4,0,0.758,0,0,0,0, ,0,0,0,0,0, ,605.2,24.9,-779.4,1,3.6,-2.8,25,600.608,26.3434,-793.789,0.175048,0.552535,-2.0897,
2026_06_26_17_04_30.350,3.861,31.4,0,0.758,0,0,0,0, ,0,0,0,0,0, ,605.5,27.4,-780.2,1.4,2.1,-2.6,25,600.897,26.3316,-792.936,0.237506,0.692537,-2.12689,
2026_06_26_17_04_30.372,3.861,31.4,0,0.76,0,0,0,0, ,0,0,0,0,0, ,606.5,28,-780.3,0.5,0.3,-2.2,25,601.208,26.415,-792.163,0.280924,0.723461,-2.14353,
2026_06_26_17_04_30.397,3.861,31.4,0,0.76,0,0,0,0, ,0,0,0,0,0, ,607.1,26.2,-785.5,-0.6,0.1,-2.4,25,601.549,26.4567,-791.599,0.260758,0.691562,-2.15306,
2026_06_26_17_04_30.413,3.861,31.4,0,0.757,0,0,0,0, ,0,0,0,0,0, ,606.6,25.2,-788.4,-1.2,0,-2.3,25,601.872,26.4106,-791.315,0.190024,0.652467,-2.16507,
2026_06_26_17_04_30.429,3.861,31.4,0,0.759,0,0,0,0, ,0,0,0,0,0, ,605.9,26.4,-792.6,-1.2,0,-2.2,25,602.139,26.3734,-791.266,0.10532,0.612707,-2.17024,
2026_06_26_17_04_30.445,3.861,31.4,0,0.76,0,0,0,0, ,0,0,0,0,0, ,607.5,29,-788.5,-0.4,0,-1.9,25,602.417,26.4543,-791.222,0.0501517,0.575371,-2.16291,
2026_06_26_17_04_30.472,3.861,31.3,0,0.759,0,0,0,0, ,0,0,0,0,0, ,608.3,32.9,-790.2,0,0.3,-3.3,25,602.751,26.7282,-791.108,0.0349081,0.54945,-2.18955,
2026_06_26_17_04_30.495,3.861,31.4,0,0.76,0,0,0,0, ,0,0,0,0,0, ,607.4,27,-781.6,-0.9,0.2,-3.6,25,603.062,26.9245,-790.791,0.00535902,0.531202,-2.26636,
2026_06_26_17_04_30.509,3.861,31.4,0,0.759,0,0,0,0, ,0,0,0,0,0, ,607.2,23.4,-784,-0.1,-0.5,-2.1,25,603.32,26.8195,-790.304,-0.0254363,0.489691,-2.30192,
2026_06_26_17_04_30.524,3.861,31.4,0,0.761,0,0,0,0, ,0,0,0,0,0, ,608.1,27.3,-785.4,-0.2,-1.2,-1.5,25,603.584,26.7299,-789.962,-0.0330269,0.408054,-2.27134,
2026_06_26_17_04_30.549,3.861,31.4,0,0.759,0,0,0,0, ,0,0,0,0,0, ,608.7,28.8,-792.1,-0.2,-1.6,-2,25,603.877,26.8104,-789.888,-0.0432018,0.297875,-2.23957,
2026_06_26_17_04_30.572,3.861,31.5,0,0.757,0,0,0,0, ,0,0,0,0,0, ,608.2,27.2,-784,0.2,-1.8,-2.2,25,604.156,26.8828,-789.776,-0.0405692,0.17613,-2.23106,
2026_06_26_17_04_30.588,3.861,31.5,0,0.76,0,0,0,0, ,0,0,0,0,0, ,606.9,22,-787.9,1.5,-2.1,-1.4,25,604.363,26.7437,-789.543,0.0136999,0.0465689,-2.2048,
2026_06_26_17_04_30.604,3.861,31.5,0,0.76,0,0,0,0, ,0,0,0,0,0, ,605.9,22.9,-785.1,1.2,-2.7,-1.3,25,604.487,26.4821,-789.358,0.0951306,-0.102519,-2.15271,
2026_06_26_17_04_30.620,3.861,31.4,0,0.76,0,0,0,0, ,0,0,0,0,0, ,605.9,23.4,-792.1,-0.7,-3.4,-1.2,25,604.573,26.279,-789.312,0.104568,-0.282131,-2.0977,
2026_06_26_17_04_30.652,3.861,31.3,0,0.759,0,0,0,0, ,0,0,0,0,0, ,603.7,23,-803.8,0.1,-2.3,-1.3,25,604.587,26.0914,-789.838,0.0799146,-0.438611,-2.04604,
2026_06_26_17_04_30.672,3.861,31.3,0,0.76,0,0,0,0, ,0,0,0,0,0, ,604.2,24.1,-793.7,1.1,-0.8,-1.4,25,604.548,25.9365,-790.381,0.111607,-0.506336,-2.00363,
2026_06_26_17_04_30.684,3.861,31.4,0,0.76,0,0,0,0, ,0,0,0,0,0, ,604,24.6,-791.3,1.1,-1.1,-1.3,25,604.521,25.8399,-790.51,0.171838,-0.533372,-1.9638,
2026_06_26_17_04_30.703,3.861,31.4,0,0.76,0,0,0,0, ,0,0,0,0,0, ,604.1,19.4,-799.8,0.2,-0.7,-1.5,25,604.492,25.6059,-790.817,0.200976,-0.555713,-1.92944,
2026_06_26_17_04_30.731,3.861,31.4,0,0.757,0,0,0,0, ,0,0,0,0,0, ,604.8,25.7,-793.2,0,0.2,-1.7,25,604.489,25.4197,-791.164,0.194822,-0.537084,-1.90936,
2026_06_26_17_04_30.747,3.861,31.4,0,0.759,0,0,0,0, ,0,0,0,0,0, ,605.2,20.7,-793.4,-0.1,0.3,-1.8,25,604.521,25.2844,-791.294,0.179903,-0.489121,-1.89965,
2026_06_26_17_04_30.773,3.861,31.4,0,0.76,0,0,0,0, ,0,0,0,0,0, ,605.3,19.7,-793.4,-0.5,0.7,-2.4,25,604.565,24.9746,-791.422,0.150659,-0.428846,-1.91186,
2026_06_26_17_04_30.781,3.861,31.4,0,0.759,0,0,0,0, ,0,0,0,0,0, ,605.7,23,-794.7,-0.4,1.8,-2.9,25,604.622,24.7537,-791.582,0.114057,-0.326542,-1.95684,
2026_06_26_17_04_30.811,3.861,31.5,0,0.759,0,0,0,0, ,0,0,0,0,0, ,608,26.6,-792.8,-0.1,2.5,-2.7,25,604.758,24.7565,-791.714,0.091872,-0.175627,-2.00822,
2026_06_26_17_04_30.827,3.861,31.4,0,0.757,0,0,0,0, ,0,0,0,0,0, ,607.7,29.6,-777.2,-0.3,1.8,-2.4,25,604.946,24.9603,-791.305,0.074086,-0.0339094,-2.04124,
2026_06_26_17_04_30.843,3.861,31.4,0,0.76,0,0,0,0, ,0,0,0,0,0, ,607.7,25.6,-779.2,-0.3,-0.3,-1.8,25,605.114,25.1211,-790.507,0.0512902,0.0138601,-2.04482,
2026_06_26_17_04_30.860,3.861,31.3,0,0.76,0,0,0,0, ,0,0,0,0,0, ,608.5,21.2,-788.3,-0.1,-0.5,-1.6,25,605.296,25.0162,-790.095,0.0359772,-0.0113595,-2.02381,
2026_06_26_17_04_30.891,3.861,31.4,0,0.76,0,0,0,0, ,0,0,0,0,0, ,608.1,23.4,-790.4,-0.3,-0.1,-2,25,605.479,24.8507,-790.049,0.0215973,-0.0289485,-2.01017,
2026_06_26_17_04_30.911,3.861,31.4,0,0.759,0,0,0,0, ,0,0,0,0,0, ,607.9,24.2,-786.4,-0.6,-0.5,-1.9,25,605.633,24.7867,-789.949,-0.00714065,-0.0454657,-2.0065,
2026_06_26_17_04_30.931,3.861,31.4,0,0.762,0,0,0,0, ,0,0,0,0,0, ,609.1,23.4,-792.3,-0.1,-0.4,-1.7,25,605.807,24.7266,-789.912,-0.0280336,-0.070117,-1.99392,
2026_06_26_17_04_30.951,3.861,31.5,0,0.76,0,0,0,0, ,0,0,0,0,0, ,608,20.7,-794.4,0.6,0.3,-2,25,605.975,24.5635,-790.122,-0.011091,-0.0688912,-1.98515,
2026_06_26_17_04_30.970,3.861,31.4,0,0.761,0,0,0,0, ,0,0,0,0,0, ,607.4,22.8,-788.4,-0.2,0.6,-2.3,25,606.08,24.392,-790.2,0.00177239,-0.0372712,-1.99519,
2026_06_26_17_04_30.990,3.861,31.4,0,0.757,0,0,0,0, ,0,0,0,0,0, ,609,25.6,-785.1,-1,0.3,-2.3,25,606.209,24.3803,-789.99,-0.0348981,-0.00757814,-2.01377,
2026_06_26_17_04_31.009,3.861,31.4,0,0.759,0,0,0,0, ,0,0,0,0,0, ,608.5,29.6,-792.3,0,0,-1.6,25,606.364,24.5765,-789.911,-0.0632403,0.00202428,-2.00988,
2026_06_26_17_04_31.029,3.861,31.4,0,0.759,0,0,0,0, ,0,0,0,0,0, ,607.9,22.8,-797.9,1.5,1.5,-1.4,25,606.476,24.6754,-790.227,-0.0136834,0.047604,-1.97881,
2026_06_26_17_04_31.050,3.861,31.5,0,0.76,0,0,0,0, ,0,0,0,0,0, ,609.6,19.4,-797.8,1.9,3.4,-2,25,606.614,24.4576,-790.692,0.0907441,0.194,-1.96182,
2026_06_26_17_04_31.071,3.861,31.4,0,0.759,0,0,0,0, ,0,0,0,0,0, ,613.1,20.9,-778.4,1.8,4.2,-2.3,25,606.903,24.1951,-790.534,0.197949,0.413741,-1.97329,
2026_06_26_17_04_31.089,3.861,31.4,0,0.759,0,0,0,0, ,0,0,0,0,0, ,612.6,26.1,-765.1,1.5,2.9,-2.1,25,607.265,24.1527,-789.389,0.286433,0.604856,-1.9871,
2026_06_26_17_04_31.109,3.861,31.4,0,0.759,0,0,0,0, ,0,0,0,0,0, ,612,23.9,-769.8,1,-0.2,-1.3,25,607.572,24.2043,-788.052,0.34515,0.650264,-1.96961,
2026_06_26_17_04_31.129,3.861,31.4,0,0.759,0,0,0,0, ,0,0,0,0,0, ,612.3,21.7,-794.6,1.2,-0.5,-0.9,25,607.851,24.1188,-787.696,0.391149,0.58931,-1.91662,
2026_06_26_17_04_31.148,3.861,31.5,0,0.758,0,0,0,0, ,0,0,0,0,0, ,611.9,14.5,-791.2,0.1,0.6,-2,25,608.11,23.752,-788.013,0.406923,0.556446,-1.88818,
2026_06_26_17_04_31.169,3.861,31.4,0,0.759,0,0,0,0, ,0,0,0,0,0, ,613.8,17.9,-791.3,-0.4,2,-2.5,25,608.399,23.2918,-788.21,0.372985,0.601756,-1.91023,
2026_06_26_17_04_31.188,3.861,31.4,0,0.759,0,0,0,0, ,0,0,0,0,0, ,614.2,20.6,-785.8,-0.6,2.8,-2.7,25,608.74,23.0455,-788.231,0.319788,0.711337,-1.95226,
2026_06_26_17_04_31.212,3.861,31.4,0,0.757,0,0,0,0, ,0,0,0,0,0, ,614.8,22,-779,-0.3,3.2,-2.8,25,609.091,22.9391,-787.875,0.272879,0.850802,-2.00087,
2026_06_26_17_04_31.228,3.861,31.4,0,0.759,0,0,0,0, ,0,0,0,0,0, ,616.6,20.8,-786.9,-0.3,3.5,-2.9,25,609.494,22.8453,-787.575,0.237969,1.0031,-2.05262,
2026_06_26_17_04_31.248,3.861,31.3,0,0.76,0,0,0,0, ,0,0,0,0,0, ,618,22.3,-785.5,-1.6,4.2,-4.3,25,609.969,22.7664,-787.491,0.165577,1.17658,-2.14691,
2026_06_26_17_04_31.267,3.861,31.3,0,0.759,0,0,0,0, ,0,0,0,0,0, ,617.9,28.4,-771.4,-1.4,4.2,-3.7,25,610.456,22.9238,-786.941,0.0640811,1.36082,-2.25983,
2026_06_26_17_04_31.287,3.861,31.4,0,0.76,0,0,0,0, ,0,0,0,0,0, ,620.7,28,-766.7,-0.3,1.9,-2.4,25,610.995,23.2454,-785.85,0.00837931,1.46375,-2.30799,
2026_06_26_17_04_31.307,3.861,31.4,0,0.761,0,0,0,0, ,0,0,0,0,0, ,620.4,21.6,-778,0.9,0.1,-1.8,25,611.577,23.3401,-785.028,0.0261499,1.43549,-2.29531,
2026_06_26_17_04_31.327,3.861,31.4,0,0.76,0,0,0,0, ,0,0,0,0,0, ,620.3,24.6,-770.7,1.2,-0.5,-1.6,25,612.112,23.3255,-784.377,0.0885408,1.33583,-2.25903,
2026_06_26_17_04_31.347,3.861,31.4,0,0.761,0,0,0,0, ,0,0,0,0,0, ,621.8,24.1,-766.4,0.1,-2,-1.2,25,612.656,23.3879,-783.413,0.122755,1.17826,-2.20669,
2026_06_26_17_04_31.366,3.861,31.4,0,0.759,0,0,0,0, ,0,0,0,0,0, ,621,25.1,-771.8,-0.4,-3.6,-1,25,613.189,23.4618,-782.54,0.106134,0.935832,-2.13925,
2026_06_26_17_04_31.386,3.861,31.5,0,0.761,0,0,0,0, ,0,0,0,0,0, ,619.1,23.9,-773.5,0.1,-4.8,-0.4,25,613.607,23.525,-781.938,0.0905256,0.622867,-2.05154,
2026_06_26_17_04_31.406,3.861,31.3,0,0.761,0,0,0,0, ,0,0,0,0,0, ,617.7,17.9,-787.4,1.1,-4.3,-0.3,25,613.899,23.3651,-781.847,0.121572,0.307646,-1.94786,
2026_06_26_17_04_31.426,3.861,31.4,0,0.76,0,0,0,0, ,0,0,0,0,0, ,617.3,15.2,-791.9,0.6,-2.5,-1.4,25,614.119,22.9498,-782.322,0.16596,0.0817111,-1.88096,
2026_06_26_17_04_31.445,3.861,31.4,0,0.757,0,0,0,0, ,0,0,0,0,0, ,615.8,15.1,-789.6,-0.9,-0.8,-2.2,25,614.267,22.4745,-782.836,0.146706,-0.023815,-1.87602,
2026_06_26_17_04_31.465,3.861,31.4,0,0.759,0,0,0,0, ,0,0,0,0,0, ,616.9,19.6,-787.4,-2,0.5,-2.9,25,614.394,22.1622,-783.181,0.0494072,-0.0315044,-1.91709,
2026_06_26_17_04_31.485,3.861,31.4,0,0.761,0,0,0,0, ,0,0,0,0,0, ,616.6,20.7,-785.7,-1.8,0.9,-2.9,25,614.537,22.0396,-783.386,-0.0693848,0.0130716,-1.97699,
2026_06_26_17_04_31.511,3.861,31.3,0,0.76,0,0,0,0, ,0,0,0,0,0, ,616.5,24.2,-788.9,-1.2,1.8,-2.7,25,614.66,22.0646,-783.625,-0.156563,0.0945407,-2.02714,
2026_06_26_17_04_31.525,3.861,31.3,0,0.76,0,0,0,0, ,0,0,0,0,0, ,619.3,23,-788.3,-0.1,3.4,-2.6,25,614.857,22.1582,-783.928,-0.186632,0.247217,-2.0651,
2026_06_26_17_04_31.544,3.861,31.4,0,0.759,0,0,0,0, ,0,0,0,0,0, ,621,23.6,-776.6,0.3,4.2,-2.4,25,615.18,22.2277,-783.838,-0.169165,0.463715,-2.0916,
2026_06_26_17_04_31.564,3.861,31.5,0,0.758,0,0,0,0, ,0,0,0,0,0, ,621.9,24.2,-775.1,0.6,4,-2.2,25,615.562,22.3296,-783.351,-0.131435,0.685301,-2.1043,
2026_06_26_17_04_31.584,3.861,31.3,0,0.759,0,0,0,0, ,0,0,0,0,0, ,622.5,25.7,-761.4,0.1,2.4,-2,25,615.967,22.4893,-782.431,-0.102097,0.83854,-2.10404,
2026_06_26_17_04_31.603,3.861,31.3,0,0.76,0,0,0,0, ,0,0,0,0,0, ,624.3,23.3,-765,-0.1,0.3,-1.5,25,616.42,22.6118,-781.259,-0.0958758,0.869707,-2.08246,
2026_06_26_17_04_31.623,3.861,31.4,0,0.76,0,0,0,0, ,0,0,0,0,0, ,624.1,23.4,-769.2,-0.5,-1.2,-1.6,25,616.894,22.6568,-780.396,-0.108315,0.789288,-2.05001,
2026_06_26_17_04_31.643,3.861,31.4,0,0.757,0,0,0,0, ,0,0,0,0,0, ,624.3,22,-773,-1.4,-2.3,-1.5,25,617.339,22.6595,-779.83,-0.159605,0.63455,-2.01955,
2026_06_26_17_04_31.667,3.861,31.4,0,0.757,0,0,0,0, ,0,0,0,0,0, ,622.4,19.5,-778.3,-0.9,-2.7,-1.7,25,617.705,22.5431,-779.575,-0.219957,0.443538,-1.99398,
2026_06_26_17_04_31.683,3.861,31.4,0,0.76,0,0,0,0, ,0,0,0,0,0, ,622.4,22,-775.5,-0.8,-3,-1.6,25,617.991,22.4338,-779.412,-0.25835,0.242838,-1.97302,
2026_06_26_17_04_31.703,3.861,31.4,0,0.76,0,0,0,0, ,0,0,0,0,0, ,620.3,22.5,-782.1,-0.4,-2.4,-1.8,25,618.196,22.4226,-779.375,-0.27917,0.0635091,-1.95638,
2026_06_26_17_04_31.722,3.861,31.4,0,0.759,0,0,0,0, ,0,0,0,0,0, ,620.6,22.4,-785,-0.8,-2,-2,25,618.333,22.4243,-779.629,-0.29872,-0.0744234,-1.95295,
2026_06_26_17_04_31.742,3.861,31.5,0,0.758,0,0,0,0, ,0,0,0,0,0, ,619.9,21.9,-776,-1,-1.3,-2.1,25,618.45,22.4076,-779.682,-0.335361,-0.170435,-1.95886,
2026_06_26_17_04_31.762,3.861,31.4,0,0.759,0,0,0,0, ,0,0,0,0,0, ,620.8,21.2,-776.9,-1.5,-1.6,-2,25,618.566,22.3553,-779.485,-0.391096,-0.248409,-1.96441,
2026_06_26_17_04_31.782,3.861,31.4,0,0.76,0,0,0,0, ,0,0,0,0,0, ,619.6,24.7,-784.9,-0.9,-0.8,-1.7,25,618.665,22.3916,-779.572,-0.440389,-0.306396,-1.95744,
2026_06_26_17_04_31.802,3.861,31.4,0,0.759,0,0,0,0, ,0,0,0,0,0, ,621.7,28,-781.7,0,0.6,-2,25,618.786,22.6328,-779.799,-0.440975,-0.293819,-1.95089,
2026_06_26_17_04_31.821,3.861,31.4,0,0.759,0,0,0,0, ,0,0,0,0,0, ,620.6,18.7,-771.2,0,0.2,-2.4,25,618.93,22.6765,-779.595,-0.414103,-0.251539,-1.96607,
2026_06_26_17_04_31.841,3.861,31.4,0,0.76,0,0,0,0, ,0,0,0,0,0, ,620.8,18.9,-771.3,-1,-1.6,-2.1,25,619.038,22.4403,-779.086,-0.419337,-0.278867,-1.98338,
2026_06_26_17_04_31.861,3.861,31.4,0,0.76,0,0,0,0, ,0,0,0,0,0, ,620.8,23.9,-773.5,-0.9,-2.5,-1.6,25,619.146,22.3769,-778.679,-0.451674,-0.386796,-1.97525,
2026_06_26_17_04_31.881,3.861,31.4,0,0.76,0,0,0,0, ,0,0,0,0,0, ,620.3,25,-785.6,0,-2.4,-1.4,25,619.231,22.5032,-778.732,-0.451572,-0.512522,-1.94629,
2026_06_26_17_04_31.901,3.861,31.3,0,0.76,0,0,0,0, ,0,0,0,0,0, ,620.3,26.3,-777.5,-0.3,-1.4,-1.1,25,619.296,22.695,-778.904,-0.433195,-0.597072,-1.90386,
2026_06_26_17_04_31.921,3.861,31.3,0,0.757,0,0,0,0, ,0,0,0,0,0, ,618.7,23.9,-781.9,-1.3,-0.8,-2.9,25,619.309,22.8415,-778.952,-0.455547,-0.627719,-1.90972,
2026_06_26_17_04_31.941,3.861,31.4,0,0.761,0,0,0,0, ,0,0,0,0,0, ,617.6,14.2,-781.9,-0.1,-0.8,-1.3,25,619.238,22.6105,-779.132,-0.470444,-0.638217,-1.92131,
2026_06_26_17_04_31.960,3.861,31.4,0,0.761,0,0,0,0, ,0,0,0,0,0, ,620.1,20.6,-784.6,-0.6,0.1,-1.9,25,619.214,22.293,-779.383,-0.463104,-0.620654,-1.90173,
2026_06_26_17_04_31.980,3.861,31.4,0,0.759,0,0,0,0, ,0,0,0,0,0, ,620.1,23.6,-768.7,-1.4,-0.3,-1.8,25,619.268,22.2812,-779.216,-0.495821,-0.588927,-1.89858,
2026_06_26_17_04_32.000,3.861,31.4,0,0.759,0,0,0,0, ,0,0,0,0,0, ,619.7,24.6,-774.9,-1,-2.1,-1.8,25,619.307,22.392,-778.764,-0.538732,-0.626164,-1.89257,
2026_06_26_17_04_32.020,3.861,31.4,0,0.76,0,0,0,0, ,0,0,0,0,0, ,619.1,20.9,-785.4,-0.3,-1.9,-2,25,619.313,22.4138,-778.849,-0.545513,-0.709882,-1.89302,
2026_06_26_17_04_32.039,3.861,31.5,0,0.762,0,0,0,0, ,0,0,0,0,0, ,618.8,22.8,-784.1,-0.9,-1.2,-2.4,25,619.29,22.3795,-779.208,-0.548833,-0.761077,-1.91173,
2026_06_26_17_04_32.059,3.861,31.4,0,0.759,0,0,0,0, ,0,0,0,0,0, ,619.5,26.1,-782.8,-0.8,-0.3,-2.3,25,619.282,22.5057,-779.467,-0.567185,-0.760402,-1.93844,
2026_06_26_17_04_32.079,3.861,31.4,0,0.759,0,0,0,0, ,0,0,0,0,0, ,618.6,25.5,-778,-0.4,0,-1.9,25,619.268,22.7064,-779.524,-0.569185,-0.723205,-1.94828,
2026_06_26_17_04_32.099,3.861,31.4,0,0.759,0,0,0,0, ,0,0,0,0,0, ,619.1,27.5,-773.5,-0.4,-0.5,-2.1,25,619.242,22.9376,-779.294,-0.558875,-0.694369,-1.95143,
2026_06_26_17_04_32.124,3.861,31.4,0,0.757,0,0,0,0, ,0,0,0,0,0, ,619.7,24.4,-780.1,-1.8,-1.7,-1.7,25,619.252,23.1211,-779.142,-0.59185,-0.719088,-1.9483,
2026_06_26_17_04_32.138,3.861,31.4,0,0.76,0,0,0,0, ,0,0,0,0,0, ,618.1,20.2,-779,-2,-1.3,-1.7,25,619.23,23.0711,-779.167,-0.671565,-0.766674,-1.93317,
2026_06_26_17_04_32.158,3.861,31.4,0,0.759,0,0,0,0, ,0,0,0,0,0, ,618.2,26.2,-777.7,-1.6,-1.1,-1.6,25,619.165,23.079,-779.117,-0.740329,-0.79308,-1.91591,
2026_06_26_17_04_32.178,3.861,31.3,0,0.76,0,0,0,0, ,0,0,0,0,0, ,617.5,25.3,-778,-0.5,-1.6,-1.7,25,619.085,23.2417,-779.04,-0.7592,-0.827017,-1.89971,
2026_06_26_17_04_32.198,3.861,31.4,0,0.76,0,0,0,0, ,0,0,0,0,0, ,618,21.6,-775,-0.9,-2.1,-1.8,25,619.003,23.2544,-778.885,-0.755592,-0.889355,-1.89059,
2026_06_26_17_04_32.218,3.861,31.4,0,0.761,0,0,0,0, ,0,0,0,0,0, ,616.6,27.8,-771.1,-2.2,-3.7,-2.1,25,618.899,23.3425,-778.529,-0.804002,-1.01188,-1.89421,
2026_06_26_17_04_32.237,3.861,31.4,0,0.76,0,0,0,0, ,0,0,0,0,0, ,615.2,28.9,-766.8,-3.7,-6.2,-1.4,25,618.717,23.6477,-777.946,-0.934773,-1.25186,-1.88542,
2026_06_26_17_04_32.257,3.861,31.4,0,0.759,0,0,0,0, ,0,0,0,0,0, ,614.3,26,-790,-3.5,-7.1,-1.6,25,618.475,23.8794,-777.973,-1.09719,-1.58081,-1.86193,
2026_06_26_17_04_32.277,3.861,31.4,0,0.759,0,0,0,0, ,0,0,0,0,0, ,612.5,26,-798.8,-1.7,-4.6,-2.6,25,618.166,24.0086,-778.974,-1.18876,-1.84096,-1.87644,
2026_06_26_17_04_32.296,3.861,31.5,0,0.76,0,0,0,0, ,0,0,0,0,0, ,611.3,24,-787.1,0,-3.1,-2.2,25,617.784,24.069,-779.826,-1.16812,-1.96339,-1.90834,
2026_06_26_17_04_32.316,3.861,31.4,0,0.759,0,0,0,0, ,0,0,0,0,0, ,610.7,25,-798.8,0,-1.6,-2.6,25,617.37,24.0953,-780.626,-1.09694,-1.98695,-1.93831,
2026_06_26_17_04_32.337,3.861,31.4,0,0.761,0,0,0,0, ,0,0,0,0,0, ,610.8,31.3,-773,-0.6,-0.7,-2,25,616.967,24.3424,-780.947,-1.04837,-1.93595,-1.96035,
2026_06_26_17_04_32.356,3.861,31.4,0,0.76,0,0,0,0, ,0,0,0,0,0, ,610.4,32.4,-786.2,-1.8,-2.9,-1.3,25,616.579,24.7998,-780.865,-1.05761,-1.92766,-1.94143,
2026_06_26_17_04_32.376,3.861,31.4,0,0.759,0,0,0,0, ,0,0,0,0,0, ,609.2,22.5,-806.3,-0.4,-0.5,-1.9,25,616.166,24.9613,-781.803,-1.0602,-1.91379,-1.92063,
2026_06_26_17_04_32.396,3.861,31.4,0,0.759,0,0,0,0, ,0,0,0,0,0, ,609.4,23.6,-798.4,0.2,2.7,-2.9,25,615.748,24.8449,-783.055,-1.00168,-1.73014,-1.94984,
2026_06_26_17_04_32.415,3.861,31.4,0,0.759,0,0,0,0, ,0,0,0,0,0, ,612.4,28.1,-780,0.4,3.9,-3,25,615.452,24.9061,-783.429,-0.922363,-1.42361,-2.01079,
2026_06_26_17_04_32.441,3.861,31.4,0,0.76,0,0,0,0, ,0,0,0,0,0, ,613.6,34.5,-769.6,-0.5,1.7,-2.5,25,615.303,25.2957,-782.903,-0.869204,-1.16623,-2.05583,
2026_06_26_17_04_32.456,3.861,31.5,0,0.754,0,0,0,0, ,0,0,0,0,0, ,614,34.7,-768.9,-0.7,0.6,-2,25,615.211,25.8627,-782.071,-0.852799,-1.02509,-2.06766,
2026_06_26_17_04_32.475,3.861,31.5,0,0.761,0,0,0,0, ,0,0,0,0,0, ,614.5,27.4,-781.9,-1.2,-0.7,-1.8,25,615.153,26.1788,-781.665,-0.858722,-0.96567,-2.05745,
2026_06_26_17_04_32.495,3.861,31.4,0,0.759,0,0,0,0, ,0,0,0,0,0, ,613,27.5,-783.6,0,-0.3,-1.8,25,615.067,26.2563,-781.731,-0.842957,-0.937293,-2.04176,
2026_06_26_17_04_32.515,3.861,31.4,0,0.76,0,0,0,0, ,0,0,0,0,0, ,613.2,27.3,-787.2,-0.4,-0.1,-2.5,25,614.947,26.326,-781.954,-0.803776,-0.892364,-2.04836,
2026_06_26_17_04_32.534,3.861,31.4,0,0.759,0,0,0,0, ,0,0,0,0,0, ,615.4,30.3,-776.2,-0.4,0,-2.4,25,614.908,26.4767,-781.939,-0.779171,-0.841033,-2.07283,
2026_06_26_17_04_32.554,3.861,31.4,0,0.76,0,0,0,0, ,0,0,0,0,0, ,614.7,30.5,-781.3,-1.3,-0.8,-1.7,25,614.916,26.7158,-781.745,-0.783487,-0.814157,-2.07144,
2026_06_26_17_04_32.574,3.861,31.4,0,0.76,0,0,0,0, ,0,0,0,0,0, ,613.2,25.7,-788.8,-0.3,-0.6,-1.7,25,614.858,26.8002,-781.946,-0.784494,-0.807201,-2.0488,
2026_06_26_17_04_32.594,3.861,31.5,0,0.761,0,0,0,0, ,0,0,0,0,0, ,614.1,26.6,-790.6,0.1,0.6,-2.2,25,614.784,26.7605,-782.419,-0.742782,-0.758012,-2.04278,
2026_06_26_17_04_32.614,3.861,31.4,0,0.76,0,0,0,0, ,0,0,0,0,0, ,614.2,28,-779.6,0,0.8,-2.2,25,614.745,26.7934,-782.582,-0.694472,-0.669164,-2.05236,
2026_06_26_17_04_32.634,3.861,31.4,0,0.759,0,0,0,0, ,0,0,0,0,0, ,615.3,28.6,-771.9,-0.9,-0.6,-2.2,25,614.746,26.8852,-782.166,-0.679575,-0.622294,-2.06136,
2026_06_26_17_04_32.653,3.861,31.4,0,0.759,0,0,0,0, ,0,0,0,0,0, ,614.1,30.7,-773.6,-1.2,-2.4,-1.8,25,614.743,27.0537,-781.592,-0.702147,-0.675779,-2.05762,
2026_06_26_17_04_32.672,3.861,31.4,0,0.761,0,0,0,0, ,0,0,0,0,0, ,613.7,31.2,-779.7,-1.8,-3.2,-1.4,25,614.691,27.2911,-781.291,-0.750767,-0.805223,-2.02974,
2026_06_26_17_04_32.693,3.861,31.4,0,0.76,0,0,0,0, ,0,0,0,0,0, ,613.6,30.3,-790.6,-1.8,-2.8,-1.2,25,614.628,27.5019,-781.526,-0.814704,-0.938968,-1.98527,
2026_06_26_17_04_32.712,3.861,31.4,0,0.761,0,0,0,0, ,0,0,0,0,0, ,612.7,27.5,-805,-0.4,-0.2,-1.4,25,614.538,27.5871,-782.518,-0.832089,-0.973156,-1.94351,
2026_06_26_17_04_32.732,3.861,31.4,0,0.76,0,0,0,0, ,0,0,0,0,0, ,612.4,25.2,-789.4,0.6,1.8,-2.2,25,614.417,27.5117,-783.412,-0.77529,-0.865104,-1.93476,
2026_06_26_17_04_32.752,3.861,31.5,0,0.759,0,0,0,0, ,0,0,0,0,0, ,615.1,31,-786.9,0.4,2.8,-3,25,614.376,27.5476,-783.701,-0.697577,-0.67223,-1.9753,
2026_06_26_17_04_32.775,3.861,31.4,0,0.76,0,0,0,0, ,0,0,0,0,0, ,615.8,30.6,-772.8,-0.5,2.5,-2.9,25,614.442,27.7458,-783.466,-0.658115,-0.469782,-2.0347,
2026_06_26_17_04_32.792,3.861,31.4,0,0.76,0,0,0,0, ,0,0,0,0,0, ,616.3,29.9,-776.8,-2.3,0.5,-2.2,25,614.54,27.8984,-782.938,-0.703324,-0.349748,-2.0661,
2026_06_26_17_04_32.811,3.861,31.4,0,0.759,0,0,0,0, ,0,0,0,0,0, ,615.1,27.3,-787.1,-1.4,0.5,-2.2,25,614.61,27.9411,-782.878,-0.7732,-0.297967,-2.07426,
2026_06_26_17_04_32.832,3.861,31.4,0,0.76,0,0,0,0, ,0,0,0,0,0, ,615.6,30.2,-785.1,0,1.1,-2.4,25,614.655,27.9904,-783.074,-0.768739,-0.23106,-2.08801,
2026_06_26_17_04_32.851,3.861,31.4,0,0.76,0,0,0,0, ,0,0,0,0,0, ,616.9,31.7,-773.1,0.1,0.3,-2.3,25,614.753,28.1708,-782.832,-0.718847,-0.174323,-2.10398,
2026_06_26_17_04_32.871,3.861,31.4,0,0.761,0,0,0,0, ,0,0,0,0,0, ,616.8,33.4,-774.1,-0.9,-1,-2,25,614.88,28.4376,-782.27,-0.699417,-0.185028,-2.10678,
2026_06_26_17_04_32.891,3.861,31.4,0,0.76,0,0,0,0, ,0,0,0,0,0, ,618.1,32.9,-770.6,-2,-2.7,-1.3,25,615.037,28.7248,-781.665,-0.745156,-0.286488,-2.07895,
2026_06_26_17_04_32.911,3.861,31.4,0,0.76,0,0,0,0, ,0,0,0,0,0, ,615.9,36.9,-788,-1,-2.5,-0.8,25,615.157,29.1011,-781.521,-0.791154,-0.427467,-2.01625,
2026_06_26_17_04_32.936,3.861,31.4,0,0.758,0,0,0,0, ,0,0,0,0,0, ,616.4,35.8,-768.3,0.2,-3.5,0,25,615.217,29.5428,-781.316,-0.767318,-0.584231,-1.91776,
2026_06_26_17_04_32.950,3.861,31.4,0,0.757,0,0,0,0, ,0,0,0,0,0, ,614.3,29.6,-782.2,0,-4.4,0.3,25,615.225,29.7352,-780.946,-0.714466,-0.789333,-1.79175,
2026_06_26_17_04_32.970,3.861,31.5,0,0.758,0,0,0,0, ,0,0,0,0,0, ,612.1,24.6,-798.2,-0.6,-3.2,-0.6,25,615.102,29.5746,-781.51,-0.68921,-0.972795,-1.69171,
2026_06_26_17_04_32.990,3.861,31.4,0,0.758,0,0,0,0, ,0,0,0,0,0, ,613.4,29.9,-798.9,0.1,0,-1.4,25,614.959,29.433,-782.548,-0.662445,-1.01102,-1.64956,
2026_06_26_17_04_33.010,3.861,31.5,0,0.759,0,0,0,0, ,0,0,0,0,0, ,615.1,31.7,-773.8,-0.1,0.4,-1.4,25,614.915,29.5163,-782.78,-0.622078,-0.937219,-1.63435,
2026_06_26_17_04_33.030,3.861,31.5,0,0.76,0,0,0,0, ,0,0,0,0,0, ,613.4,24.9,-784.9,-1.8,-0.8,-1.8,25,614.875,29.4422,-782.571,-0.64206,-0.892295,-1.63226,
2026_06_26_17_04_33.049,3.861,31.4,0,0.761,0,0,0,0, ,0,0,0,0,0, ,612.7,25.1,-789.1,-2.4,-0.1,-3,25,614.764,29.1715,-782.841,-0.730903,-0.865342,-1.67904,
2026_06_26_17_04_33.069,3.861,31.4,0,0.759,0,0,0,0, ,0,0,0,0,0, ,614.3,33.2,-780,-2.2,1.2,-3.3,25,614.687,29.1702,-782.945,-0.82652,-0.779095,-1.76868,
2026_06_26_17_04_33.088,3.861,31.4,0,0.759,0,0,0,0, ,0,0,0,0,0, ,614.2,40,-783.3,-2.8,0.6,-2.4,25,614.66,29.6229,-782.866,-0.928498,-0.676775,-1.83457,
2026_06_26_17_04_33.108,3.861,31.4,0,0.759,0,0,0,0, ,0,0,0,0,0, ,615.4,38.2,-782.3,-1.1,0.5,-1,25,614.669,30.2004,-782.862,-0.990746,-0.602019,-1.82637,
2026_06_26_17_04_33.128,3.861,31.4,0,0.761,0,0,0,0, ,0,0,0,0,0, ,616.3,31.9,-782.2,0.1,0.9,-0.7,25,614.741,30.4959,-782.825,-0.960841,-0.522677,-1.76687,
2026_06_26_17_04_33.148,3.861,31.4,0,0.761,0,0,0,0, ,0,0,0,0,0, ,615.9,28.4,-781.9,-0.2,0.9,-1.2,25,614.823,30.4749,-782.778,-0.905337,-0.435982,-1.71709,
2026_06_26_17_04_33.168,3.861,31.5,0,0.759,0,0,0,0, ,0,0,0,0,0, ,617.1,25.2,-785,-2.4,0.9,-4.1,25,614.926,30.2509,-782.818,-0.929386,-0.354571,-1.77394,
2026_06_26_17_04_33.188,3.861,31.4,0,0.758,0,0,0,0, ,0,0,0,0,0, ,616,31.4,-770.6,-1.1,0.3,-1.9,25,615.025,30.132,-782.513,-0.979392,-0.296402,-1.84866,
2026_06_26_17_04_33.208,3.861,31.4,0,0.759,0,0,0,0, ,0,0,0,0,0, ,615.8,37.4,-770.9,-0.6,-1.3,-1.6,25,615.078,30.3921,-781.796,-0.971508,-0.308809,-1.84264,
2026_06_26_17_04_33.228,3.861,31.4,0,0.76,0,0,0,0, ,0,0,0,0,0, ,616.3,36.7,-784,-0.4,-2.2,-1.5,25,615.137,30.7978,-781.531,-0.942775,-0.396631,-1.82481,
2026_06_26_17_04_33.247,3.861,31.4,0,0.759,0,0,0,0, ,0,0,0,0,0, ,615.2,26,-792.4,-1.5,-0.9,-2.9,25,615.174,30.8315,-781.937,-0.943215,-0.466915,-1.84767,
2026_06_26_17_04_33.267,3.861,31.4,0,0.76,0,0,0,0, ,0,0,0,0,0, ,616.5,30.2,-781.8,-2.1,0.1,-3.6,25,615.216,30.665,-782.252,-0.995426,-0.462837,-1.93313,
2026_06_26_17_04_33.287,3.861,31.4,0,0.76,0,0,0,0, ,0,0,0,0,0, ,616.6,36.3,-768.9,-2.3,-0.9,-2.5,25,615.297,30.8226,-781.831,-1.06883,-0.459008,-2.00119,
2026_06_26_17_04_33.306,3.861,31.5,0,0.76,0,0,0,0, ,0,0,0,0,0, ,615.2,38.3,-776.7,-1.5,-2.2,-1.8,25,615.334,31.2173,-781.281,-1.11948,-0.52549,-2.01026,
2026_06_26_17_04_33.326,3.861,31.5,0,0.762,0,0,0,0, ,0,0,0,0,0, ,616,40.2,-772.2,-0.1,-3.3,-1.2,25,615.35,31.7068,-780.865,-1.10001,-0.661046,-1.97916,
2026_06_26_17_04_33.345,3.861,31.4,0,0.759,0,0,0,0, ,0,0,0,0,0, ,615.1,37.5,-773.8,-0.8,-5.3,-0.7,25,615.362,32.1421,-780.386,-1.0604,-0.882795,-1.91645,
2026_06_26_17_04_33.365,3.861,31.5,0,0.759,0,0,0,0, ,0,0,0,0,0, ,613.1,33.3,-787.3,-0.9,-5.3,-0.8,25,615.285,32.3406,-780.396,-1.04758,-1.15197,-1.84537,
2026_06_26_17_04_33.386,3.861,31.4,0,0.758,0,0,0,0, ,0,0,0,0,0, ,611.4,32.7,-793,-1.4,-4.2,-0.9,25,615.1,32.3808,-780.99,-1.05382,-1.37122,-1.78471,
2026_06_26_17_04_33.405,3.861,31.4,0,0.76,0,0,0,0, ,0,0,0,0,0, ,611.4,29,-801.3,0,-1.5,-1.6,25,614.875,32.2875,-781.975,-1.03226,-1.46134,-1.75213,
2026_06_26_17_04_33.425,3.861,31.4,0,0.759,0,0,0,0, ,0,0,0,0,0, ,611.4,31.4,-792.6,0.2,0.6,-2.5,25,614.663,32.1603,-782.887,-0.963263,-1.39971,-1.77028,
2026_06_26_17_04_33.447,3.861,31.4,0,0.759,0,0,0,0, ,0,0,0,0,0, ,611.6,35.7,-785.2,-0.2,1.4,-2.4,25,614.47,32.245,-783.254,-0.904564,-1.25348,-1.8117,
2026_06_26_17_04_33.465,3.861,31.4,0,0.759,0,0,0,0, ,0,0,0,0,0, ,611,33,-779.5,-1.5,0.4,-2.5,25,614.277,32.3732,-783.199,-0.901239,-1.12225,-1.8506,
2026_06_26_17_04_33.485,3.861,31.4,0,0.76,0,0,0,0, ,0,0,0,0,0, ,613.2,34.6,-789,-1.2,0.3,-2.8,25,614.144,32.4602,-783.263,-0.928585,-1.03253,-1.89931,
2026_06_26_17_04_33.505,3.861,31.4,0,0.759,0,0,0,0, ,0,0,0,0,0, ,612.7,36,-776.7,-1.1,0.2,-2.9,25,614.072,32.6332,-783.238,-0.942078,-0.954379,-1.95724,
2026_06_26_17_04_33.524,3.861,31.4,0,0.76,0,0,0,0, ,0,0,0,0,0, ,612.1,38,-787.2,-1.6,-0.1,-2.8,25,613.97,32.8993,-783.159,-0.966935,-0.893175,-2.01165,
2026_06_26_17_04_33.544,3.861,31.5,0,0.759,0,0,0,0, ,0,0,0,0,0, ,612.5,45.4,-793.5,-0.3,1.4,-2,25,613.868,33.4356,-783.597,-0.965903,-0.799137,-2.03531,
2026_06_26_17_04_33.564,3.861,31.4,0,0.76,0,0,0,0, ,0,0,0,0,0, ,614.8,37.1,-782.4,0.5,2,-1.4,25,613.855,33.9118,-783.863,-0.90095,-0.646846,-2.01488,
2026_06_26_17_04_33.584,3.861,31.4,0,0.76,0,0,0,0, ,0,0,0,0,0, ,613.5,39.5,-774.5,0.5,1.3,-1.4,25,613.873,34.1792,-783.533,-0.81558,-0.506882,-1.97741,
2026_06_26_17_04_33.603,3.861,31.5,0,0.762,0,0,0,0, ,0,0,0,0,0, ,614.2,33,-784.7,-0.6,0.8,-2,25,613.871,34.3054,-783.293,-0.768927,-0.41201,-1.9605,
2026_06_26_17_04_33.623,3.861,31.5,0,0.76,0,0,0,0, ,0,0,0,0,0, ,615.4,31.7,-792.1,-1.1,2,-3,25,613.928,34.1863,-783.604,-0.773867,-0.30159,-1.99338,
2026_06_26_17_04_33.643,3.861,31.5,0,0.759,0,0,0,0, ,0,0,0,0,0, ,615.2,39.6,-770.3,-1.7,2.5,-4,25,614.012,34.2754,-783.458,-0.812022,-0.146103,-2.08519,
2026_06_26_17_04_33.663,3.861,31.4,0,0.759,0,0,0,0, ,0,0,0,0,0, ,617.9,39.7,-762.5,-1.8,-0.1,-2.6,25,614.166,34.603,-782.418,-0.86918,-0.0640747,-2.15922,
2026_06_26_17_04_33.683,3.861,31.4,0,0.76,0,0,0,0, ,0,0,0,0,0, ,616.4,40.5,-773,0.1,-1.7,-2,25,614.348,34.9379,-781.524,-0.868012,-0.115014,-2.1678,
2026_06_26_17_04_33.703,3.861,31.5,0,0.761,0,0,0,0, ,0,0,0,0,0, ,615.4,39,-774.9,-0.5,-2.7,-1.9,25,614.443,35.2312,-781.063,-0.827305,-0.242068,-2.15452,
2026_06_26_17_04_33.722,3.861,31.3,0,0.761,0,0,0,0, ,0,0,0,0,0, ,616.9,39.9,-774.9,-1,-3.5,-1.7,25,614.547,35.4883,-780.687,-0.822594,-0.416223,-2.13292,
2026_06_26_17_04_33.742,3.861,31.4,0,0.761,0,0,0,0, ,0,0,0,0,0, ,614.1,38.9,-782.4,-1.5,-4.5,-0.8,25,614.605,35.7266,-780.563,-0.848639,-0.634609,-2.07912,
2026_06_26_17_04_33.763,3.861,31.4,0,0.76,0,0,0,0, ,0,0,0,0,0, ,613.4,41.1,-796.8,-0.8,-2.9,-0.6,25,614.553,35.987,-781.114,-0.867003,-0.821407,-1.99508,
2026_06_26_17_04_33.787,3.861,31.4,0,0.76,0,0,0,0, ,0,0,0,0,0, ,614.2,36.4,-789.1,0.4,-1.2,-0.8,25,614.507,36.1554,-781.835,-0.826358,-0.896274,-1.91616,
2026_06_26_17_04_33.801,3.861,31.5,0,0.76,0,0,0,0, ,0,0,0,0,0, ,613,34.3,-784.6,0.3,-0.7,-1.5,25,614.452,36.1063,-782.141,-0.754673,-0.899548,-1.86947,
2026_06_26_17_04_33.821,3.861,31.4,0,0.76,0,0,0,0, ,0,0,0,0,0, ,613.1,36.1,-786.1,0.1,-0.3,-1.6,25,614.366,36.0511,-782.336,-0.696498,-0.8752,-1.85,
2026_06_26_17_04_33.841,3.861,31.4,0,0.76,0,0,0,0, ,0,0,0,0,0, ,612.5,36.2,-787.1,-0.3,0,-1.6,25,614.271,36.0571,-782.596,-0.660149,-0.831009,-1.83477,
2026_06_26_17_04_33.861,3.861,31.4,0,0.759,0,0,0,0, ,0,0,0,0,0, ,613.2,39.1,-781.6,-0.6,0.2,-1.4,25,614.184,36.1542,-782.703,-0.647343,-0.774275,-1.81437,
2026_06_26_17_04_33.882,3.861,31.4,0,0.759,0,0,0,0, ,0,0,0,0,0, ,613,35,-788.4,-0.1,0.7,-1.4,25,614.118,36.2088,-782.843,-0.629224,-0.699671,-1.78912,
2026_06_26_17_04_33.901,3.861,31.4,0,0.76,0,0,0,0, ,0,0,0,0,0, ,613,32.5,-786.2,-0.1,1.3,-2.2,25,614.05,36.0589,-783.115,-0.596974,-0.596097,-1.78978,
2026_06_26_17_04_33.921,3.861,31.4,0,0.76,0,0,0,0, ,0,0,0,0,0, ,615.7,34.6,-783.6,-1.1,1.9,-2.8,25,614.068,35.9061,-783.223,-0.597158,-0.462273,-1.83306,
2026_06_26_17_04_33.941,3.861,31.5,0,0.759,0,0,0,0, ,0,0,0,0,0, ,615.4,40.8,-784,-1,2.1,-2.6,25,614.159,36.0154,-783.258,-0.624753,-0.312228,-1.88589,
2026_06_26_17_04_33.961,3.861,31.4,0,0.759,0,0,0,0, ,0,0,0,0,0, ,616.3,44.5,-761.9,-0.4,0.3,-1.7,25,614.262,36.4197,-782.63,-0.629339,-0.220077,-1.90198,
2026_06_26_17_04_33.980,3.861,31.4,0,0.759,0,0,0,0, ,0,0,0,0,0, ,616.4,38.9,-771.9,0,-2.1,-1,25,614.389,36.7414,-781.672,-0.603176,-0.261509,-1.86835,
2026_06_26_17_04_34.000,3.861,31.4,0,0.76,0,0,0,0, ,0,0,0,0,0, ,615.2,32.3,-786.7,-0.1,-2.4,-1.6,25,614.475,36.6719,-781.527,-0.569467,-0.382683,-1.83371,
2026_06_26_17_04_34.019,3.861,31.4,0,0.76,0,0,0,0, ,0,0,0,0,0, ,616.2,31,-789.1,-0.9,-1.2,-2.7,25,614.55,36.3659,-781.916,-0.565234,-0.469051,-1.85299,
2026_06_26_17_04_34.040,3.861,31.3,0,0.759,0,0,0,0, ,0,0,0,0,0, ,614.9,38.6,-784.7,-0.7,0.3,-2.9,25,614.61,36.2704,-782.219,-0.57954,-0.46789,-1.9107,
2026_06_26_17_04_34.059,3.861,31.4,0,0.76,0,0,0,0, ,0,0,0,0,0, ,615.6,43,-774.7,-0.7,-0.1,-2.5,25,614.649,36.5465,-782.066,-0.58688,-0.433284,-1.95879,
2026_06_26_17_04_34.079,3.861,31.5,0,0.76,0,0,0,0, ,0,0,0,0,0, ,614.6,37.5,-786.2,0,-0.2,-2.1,25,614.677,36.7721,-781.967,-0.572445,-0.416021,-1.97959,
2026_06_26_17_04_34.098,3.861,31.5,0,0.76,0,0,0,0, ,0,0,0,0,0, ,614.5,36.6,-785.6,-0.6,0.2,-2.8,25,614.669,36.7891,-782.207,-0.555843,-0.39067,-2.00825,
2026_06_26_17_04_34.118,3.861,31.4,0,0.76,0,0,0,0, ,0,0,0,0,0, ,615.7,35.2,-788,-1.4,0.9,-3.5,25,614.695,36.7349,-782.487,-0.582909,-0.333348,-2.07783,
2026_06_26_17_04_34.138,3.861,31.4,0,0.76,0,0,0,0, ,0,0,0,0,0, ,616,40.7,-781,-1.5,1.2,-2.8,25,614.766,36.8089,-782.61,-0.635747,-0.24905,-2.14316,
2026_06_26_17_04_34.160,3.861,31.4,0,0.76,0,0,0,0, ,0,0,0,0,0, ,617,44,-778.3,-1.3,0.7,-2.2,25,614.871,37.1466,-782.429,-0.682319,-0.175983,-2.16491,
2026_06_26_17_04_34.178,3.861,31.3,0,0.76,0,0,0,0, ,0,0,0,0,0, ,617.7,44.9,-763.6,-0.9,-0.9,-1.4,25,615.022,37.5917,-781.73,-0.707771,-0.171353,-2.14267,
2026_06_26_17_04_34.198,3.861,31.6,0,0.76,0,0,0,0, ,0,0,0,0,0, ,616.6,40.1,-778.6,-0.1,-2.2,-1.5,25,615.152,37.8908,-781.082,-0.69511,-0.255364,-2.10046,
2026_06_26_17_04_34.218,3.861,31.5,0,0.76,0,0,0,0, ,0,0,0,0,0, ,617.3,39.4,-768.7,-1.1,-2.9,-2.1,25,615.262,38.0041,-780.629,-0.689315,-0.395194,-2.08215,
2026_06_26_17_04_34.238,3.861,31.4,0,0.759,0,0,0,0, ,0,0,0,0,0, ,616.3,41.5,-789,-1.4,-3.2,-1.2,25,615.355,38.1531,-780.521,-0.723481,-0.556971,-2.05582,
2026_06_26_17_04_34.257,3.861,31.4,0,0.76,0,0,0,0, ,0,0,0,0,0, ,614.8,39.9,-781.7,-0.7,-2.1,-1.3,25,615.367,38.3083,-780.815,-0.743379,-0.684515,-2.00671,
2026_06_26_17_04_34.277,3.861,31.5,0,0.762,0,0,0,0, ,0,0,0,0,0, ,613.1,35.4,-796,-0.6,-1.2,-2.7,25,615.281,38.2682,-781.305,-0.737688,-0.743349,-2.0063,
2026_06_26_17_04_34.297,3.861,31.5,0,0.76,0,0,0,0, ,0,0,0,0,0, ,614.1,37.1,-794.9,-0.3,1.9,-4.7,25,615.178,38.1452,-782.167,-0.720157,-0.676723,-2.10951,
2026_06_26_17_04_34.316,3.861,31.4,0,0.76,0,0,0,0, ,0,0,0,0,0, ,615.2,39.9,-776.2,-0.2,2,-2.9,25,615.146,38.1668,-782.373,-0.691507,-0.516657,-2.21253,
2026_06_26_17_04_34.336,3.861,31.5,0,0.76,0,0,0,0, ,0,0,0,0,0, ,615.9,43.7,-780,-0.7,2,-2.3,25,615.171,38.3882,-782.112,-0.67679,-0.363298,-2.23614,
2026_06_26_17_04_34.356,3.861,31.4,0,0.762,0,0,0,0, ,0,0,0,0,0, ,617.4,45.5,-769.5,-0.4,1.2,-1.7,25,615.261,38.7668,-781.664,-0.669064,-0.24366,-2.22175,
2026_06_26_17_04_34.376,3.861,31.4,0,0.76,0,0,0,0, ,0,0,0,0,0, ,617.7,42.6,-779.4,-0.6,-0.2,-1.6,25,615.401,39.0887,-781.224,-0.658762,-0.198343,-2.18691,
2026_06_26_17_04_34.396,3.861,31.4,0,0.76,0,0,0,0, ,0,0,0,0,0, ,617.7,41.5,-779.6,0.1,0.4,-1.4,25,615.541,39.2692,-781.119,-0.633853,-0.180163,-2.14505,
2026_06_26_17_04_34.415,3.861,31.5,0,0.758,0,0,0,0, ,0,0,0,0,0, ,617.6,40.8,-780.8,0.6,0.7,-1.6,25,615.669,39.3838,-781.063,-0.573899,-0.135669,-2.10574,
2026_06_26_17_04_34.436,3.861,31.5,0,0.762,0,0,0,0, ,0,0,0,0,0, ,619.3,42.2,-764.5,0.4,-0.5,-1.3,25,615.839,39.5127,-780.55,-0.508459,-0.121308,-2.06578,
2026_06_26_17_04_34.455,3.861,31.4,0,0.761,0,0,0,0, ,0,0,0,0,0, ,618.1,43.5,-770.1,-0.2,-2.3,-0.7,25,616.013,39.7161,-779.743,-0.471381,-0.199228,-2.00084,
2026_06_26_17_04_34.475,3.861,31.5,0,0.76,0,0,0,0, ,0,0,0,0,0, ,617.1,40.1,-783.2,-0.6,-2.9,-0.3,25,616.11,39.8431,-779.554,-0.467031,-0.345525,-1.90938,
2026_06_26_17_04_34.499,3.861,31.5,0,0.761,0,0,0,0, ,0,0,0,0,0, ,616.3,34.9,-790,0.9,-1.2,-0.9,25,616.146,39.7003,-779.984,-0.429431,-0.449391,-1.82959,
2026_06_26_17_04_34.515,3.861,31.4,0,0.76,0,0,0,0, ,0,0,0,0,0, ,615.9,37.2,-780.2,0.4,-0.9,-1.8,25,616.143,39.4779,-780.296,-0.363653,-0.485991,-1.80036,
2026_06_26_17_04_34.535,3.861,31.4,0,0.76,0,0,0,0, ,0,0,0,0,0, ,617.7,39.3,-769.1,-0.9,-2.4,-1.9,25,616.183,39.403,-779.952,-0.356727,-0.556923,-1.80339,
2026_06_26_17_04_34.555,3.861,31.5,0,0.76,0,0,0,0, ,0,0,0,0,0, ,616.2,39.5,-786.3,-2,-3.2,-2.5,25,616.23,39.4029,-779.814,-0.423348,-0.69361,-1.82756,
2026_06_26_17_04_34.574,3.861,31.4,0,0.76,0,0,0,0, ,0,0,0,0,0, ,614.6,43.5,-787.3,-3.1,-2.5,-3.3,25,616.179,39.5306,-780.24,-0.552941,-0.825015,-1.89291,
2026_06_26_17_04_34.595,3.861,31.4,0,0.759,0,0,0,0, ,0,0,0,0,0, ,615.2,36.8,-786.7,-1.3,-2,-2,25,616.101,39.5684,-780.652,-0.653309,-0.91185,-1.93904,
2026_06_26_17_04_34.614,3.861,31.4,0,0.758,0,0,0,0, ,0,0,0,0,0, ,614.7,36,-791.9,0.2,0,-2.3,25,616.031,39.3753,-781.179,-0.647013,-0.917222,-1.9519,
2026_06_26_17_04_34.634,3.861,31.4,0,0.76,0,0,0,0, ,0,0,0,0,0, ,616,39.3,-772.5,-0.4,0.2,-2.4,25,615.99,39.2702,-781.241,-0.61368,-0.855235,-1.97616,
2026_06_26_17_04_34.654,3.861,31.4,0,0.761,0,0,0,0, ,0,0,0,0,0, ,615.8,41.2,-781.4,-0.7,0,-2.1,25,615.984,39.3299,-780.98,-0.609799,-0.797025,-1.99285,
2026_06_26_17_04_34.674,3.861,31.4,0,0.761,0,0,0,0, ,0,0,0,0,0, ,614.3,40.6,-783.4,-0.8,0.1,-2.1,25,615.927,39.4256,-781.066,-0.618343,-0.74541,-1.99938,
2026_06_26_17_04_34.693,3.861,31.5,0,0.76,0,0,0,0, ,0,0,0,0,0, ,616.5,41.9,-785,0,0.9,-2,25,615.895,39.5367,-781.257,-0.605038,-0.669518,-2.00246,
2026_06_26_17_04_34.713,3.861,31.4,0,0.76,0,0,0,0, ,0,0,0,0,0, ,618.1,40.5,-778.4,-0.3,0.9,-2.1,25,615.981,39.6381,-781.284,-0.577309,-0.573875,-2.00536,
2026_06_26_17_04_34.733,3.861,31.5,0,0.76,0,0,0,0, ,0,0,0,0,0, ,617.4,41,-772,-0.6,0.2,-2.1,25,616.088,39.7059,-780.913,-0.569551,-0.505389,-2.01112,
2026_06_26_17_04_34.752,3.861,31.4,0,0.761,0,0,0,0, ,0,0,0,0,0, ,617.5,42.2,-773.8,-1,-1.1,-1.9,25,616.171,39.8213,-780.425,-0.583594,-0.502014,-2.01045,
2026_06_26_17_04_34.772,3.861,31.4,0,0.76,0,0,0,0, ,0,0,0,0,0, ,616.9,42.2,-779.2,-0.5,-1.5,-1.6,25,616.234,39.9662,-780.186,-0.593734,-0.550641,-1.99458,
2026_06_26_17_04_34.792,3.861,31.5,0,0.759,0,0,0,0, ,0,0,0,0,0, ,617,39.7,-784.5,-0.7,-1.6,-1.4,25,616.278,40.0262,-780.287,-0.594116,-0.611539,-1.96444,
2026_06_26_17_04_34.811,3.861,31.5,0,0.759,0,0,0,0, ,0,0,0,0,0, ,616.5,38.8,-784.5,-0.1,-0.8,-2,25,616.307,39.9789,-780.544,-0.582287,-0.647399,-1.94832,
2026_06_26_17_04_34.831,3.861,31.4,0,0.76,0,0,0,0, ,0,0,0,0,0, ,615.1,40.1,-788.2,-0.7,-0.3,-2.6,25,616.276,39.9467,-780.898,-0.571179,-0.641463,-1.96975,
2026_06_26_17_04_34.852,3.861,31.6,0,0.76,0,0,0,0, ,0,0,0,0,0, ,616.8,46.3,-777.8,0,0,-2.2,25,616.256,40.1449,-781.026,-0.557701,-0.611515,-1.99597,
2026_06_26_17_04_34.872,3.861,31.5,0,0.761,0,0,0,0, ,0,0,0,0,0, ,616.4,41,-781.3,-0.1,-0.8,-1.8,25,616.277,40.3585,-780.936,-0.526763,-0.598626,-1.99622,
2026_06_26_17_04_34.891,3.861,31.5,0,0.759,0,0,0,0, ,0,0,0,0,0, ,616.6,41.5,-782.1,-0.1,0.2,-2.1,25,616.29,40.4128,-780.983,-0.500757,-0.580428,-1.9934,
2026_06_26_17_04_34.911,3.861,31.4,0,0.76,0,0,0,0, ,0,0,0,0,0, ,616,42.2,-780.7,-0.3,0.4,-2,25,616.291,40.5004,-781.008,-0.48243,-0.526777,-1.99685,
2026_06_26_17_04_34.931,3.861,31.4,0,0.762,0,0,0,0, ,0,0,0,0,0, ,618,39.6,-781.1,0,0.4,-1.6,25,616.334,40.5247,-781.001,-0.462172,-0.470302,-1.98485,
2026_06_26_17_04_34.951,3.861,31.4,0,0.76,0,0,0,0, ,0,0,0,0,0, ,617.6,41.3,-776.6,-0.1,0,-1.3,25,616.423,40.5202,-780.87,-0.437055,-0.429455,-1.95226,
