UTC_Time,Vin,TC1,TC2,Rh1,Vh1,Ah1,Acp1,Dty1,Err1,Rh2,Vh2,Ah2,Acp2,Dty2,Err2,Accel_x,Accel_y,Accel_z,gyro_x,gyro_y,gyro_z,Temp_c,Accel_x_h,Accel_y_h,Accel_z_h,gyro_x_h,gyro_y_h,gyro_z_h,
2026_07_06_15_39_14.074,3.847,27.3,0,0.756,0,0,0,0.022, ,0,0,0,0,0, ,-38,155.6,987.7,-0.5,-0.4,-1.7,25,-38,155.6,987.7,-0.5,-0.4,-1.7,
2026_07_06_15_39_14.094,3.847,27.3,0,0.757,0,0,0,0.022, ,0,0,0,0,0, ,-39.5,154.7,988.1,-0.5,-0.4,-1.8,25,-38.0457,155.573,987.712,-0.5,-0.4,-1.70305,
2026_07_06_15_39_14.114,3.847,27.3,0,0.757,0,0,0,0.022, ,0,0,0,0,0, ,-38.5,156.8,987.5,-0.5,-0.5,-1.8,25,-38.1039,155.583,987.718,-0.5,-0.403047,-1.70895,
2026_07_06_15_39_14.133,3.847,27.2,0,0.755,0,0,0,0.022, ,0,0,0,0,0, ,-38.8,156.9,985.7,-0.6,-0.5,-1.8,25,-38.1371,155.661,987.649,-0.503047,-0.408955,-1.7145,
2026_07_06_15_39_14.153,3.847,27.3,0,0.757,0,0,0,0.023, ,0,0,0,0,0, ,-39.6,156.2,987.5,-0.5,-0.4,-1.8,25,-38.2019,155.715,987.585,-0.505908,-0.411456,-1.71971,
2026_07_06_15_39_14.173,3.847,27.3,0,0.758,0,0,0,0.023, ,0,0,0,0,0, ,-38.5,155.7,988.8,-0.5,-0.5,-1.8,25,-38.2536,155.729,987.62,-0.505548,-0.413805,-1.72461,
2026_07_06_15_39_14.193,3.847,27.3,0,0.757,0,0,0,0.023, ,0,0,0,0,0, ,-38.6,156.4,988.7,-0.5,-0.4,-1.8,25,-38.2716,155.749,987.689,-0.50521,-0.416011,-1.7292,
2026_07_06_15_39_14.212,3.847,27.3,0,0.758,0,0,0,0.023, ,0,0,0,0,0, ,-39.1,157.3,988.6,-0.5,-0.5,-1.9,25,-38.3069,155.816,987.747,-0.504892,-0.418082,-1.73656,
2026_07_06_15_39_14.232,3.847,27.3,0,0.758,0,0,0,0.024, ,0,0,0,0,0, ,-38.3,155.5,988.8,-0.6,-0.4,-1.8,25,-38.3308,155.851,987.805,-0.507641,-0.420027,-1.74347,
2026_07_06_15_39_14.253,3.847,27.3,0,0.758,0,0,0,0.024, ,0,0,0,0,0, ,-38.2,156.4,989.5,-0.5,-0.4,-1.8,25,-38.3259,155.857,987.887,-0.510222,-0.418806,-1.74692,
2026_07_06_15_39_14.272,3.847,27.3,0,0.758,0,0,0,0.024, ,0,0,0,0,0, ,-37.5,155.8,988.7,-0.5,-0.4,-1.8,25,-38.2969,155.872,987.961,-0.5096,-0.41766,-1.75015,
2026_07_06_15_39_14.291,3.847,27.3,0,0.757,0,0,0,0.024, ,0,0,0,0,0, ,-38,156.3,988.4,-0.5,-0.4,-1.8,25,-38.2636,155.883,987.997,-0.509015,-0.416584,-1.75319,
2026_07_06_15_39_14.311,3.847,27.5,0,0.757,0,0,0,0.025, ,0,0,0,0,0, ,-38.9,155.2,989.5,-0.6,-0.4,-1.9,25,-38.2749,155.875,988.055,-0.511512,-0.415574,-1.75909,
2026_07_06_15_39_14.331,3.847,27.6,0,0.757,0,0,0,0.023, ,0,0,0,0,0, ,-39.9,155.3,988.2,-0.5,-0.3,-1.8,25,-38.3435,155.837,988.104,-0.513857,-0.411578,-1.76463,
2026_07_06_15_39_14.351,3.847,27.5,0,0.758,0,0,0,0.023, ,0,0,0,0,0, ,-38.6,156.4,988.1,-0.5,-0.5,-1.8,25,-38.3987,155.838,988.106,-0.513013,-0.410872,-1.76679,
2026_07_06_15_39_14.371,3.847,27.3,0,0.759,0,0,0,0.024, ,0,0,0,0,0, ,-37.9,156.2,988.1,-0.6,-0.4,-1.8,25,-38.3897,155.866,988.106,-0.515267,-0.413257,-1.76881,
2026_07_06_15_39_14.391,3.847,27.5,0,0.757,0,0,0,0.026, ,0,0,0,0,0, ,-38.3,155.1,988.1,-0.5,-0.4,-1.8,25,-38.372,155.853,988.106,-0.517383,-0.412449,-1.77071,
2026_07_06_15_39_14.411,3.847,27.5,0,0.759,0,0,0,0.024, ,0,0,0,0,0, ,-38.9,157.8,987.3,-0.5,-0.4,-1.8,25,-38.3859,155.889,988.081,-0.516324,-0.41169,-1.77249,
2026_07_06_15_39_14.430,3.847,27.6,0,0.758,0,0,0,0.025, ,0,0,0,0,0, ,-37.9,156,988.6,-0.5,-0.5,-1.8,25,-38.3868,155.951,988.073,-0.515329,-0.414025,-1.77417,
2026_07_06_15_39_14.450,3.847,27.5,0,0.757,0,0,0,0.024, ,0,0,0,0,0, ,-38.4,155.7,988.1,-0.5,-0.5,-1.8,25,-38.3724,155.945,988.09,-0.514395,-0.419264,-1.77574,
2026_07_06_15_39_14.470,3.847,27.6,0,0.756,0,0,0,0.025, ,0,0,0,0,0, ,-38.6,154.2,987.9,-0.5,-0.4,-1.8,25,-38.3801,155.884,988.084,-0.513518,-0.421137,-1.77722,
2026_07_06_15_39_14.490,3.847,27.6,0,0.758,0,0,0,0.024, ,0,0,0,0,0, ,-39.1,156.4,988.1,-0.5,-0.4,-1.7,25,-38.4088,155.848,988.079,-0.512694,-0.419849,-1.77556,
2026_07_06_15_39_14.510,3.847,27.5,0,0.757,0,0,0,0.025, ,0,0,0,0,0, ,-37.8,155.6,987.4,-0.5,-0.5,-1.7,25,-38.4113,155.858,988.059,-0.511921,-0.421686,-1.77096,
2026_07_06_15_39_14.530,3.847,27.5,0,0.759,0,0,0,0.026, ,0,0,0,0,0, ,-37.9,156.8,988.1,-0.6,-0.4,-1.8,25,-38.3771,155.878,988.04,-0.514241,-0.423411,-1.76968,
2026_07_06_15_39_14.549,3.847,27.6,0,0.756,0,0,0,0.026, ,0,0,0,0,0, ,-38.6,156.4,986.6,-0.5,-0.4,-1.8,25,-38.3693,155.922,987.998,-0.51642,-0.421985,-1.77153,
2026_07_06_15_39_14.570,3.847,27.5,0,0.757,0,0,0,0.025, ,0,0,0,0,0, ,-39.4,154.7,987.3,-0.6,-0.4,-1.8,25,-38.4078,155.9,987.934,-0.518467,-0.420645,-1.77326,
2026_07_06_15_39_14.589,3.847,27.7,0,0.758,0,0,0,0.026, ,0,0,0,0,0, ,-37.8,156,989.3,-0.6,-0.5,-1.8,25,-38.4195,155.866,987.957,-0.523435,-0.422434,-1.77489,
2026_07_06_15_39_14.609,3.847,27.6,0,0.759,0,0,0,0.025, ,0,0,0,0,0, ,-38.8,154.7,992.1,-0.6,-0.4,-1.8,25,-38.4122,155.835,988.124,-0.528101,-0.424114,-1.77642,
2026_07_06_15_39_14.629,3.847,27.6,0,0.757,0,0,0,0.026, ,0,0,0,0,0, ,-38.9,154.1,989.2,-0.6,-0.4,-1.8,25,-38.4389,155.747,988.278,-0.532482,-0.422644,-1.77786,
2026_07_06_15_39_14.648,3.847,27.7,0,0.758,0,0,0,0.026, ,0,0,0,0,0, ,-39.1,155.8,987.7,-0.5,-0.5,-1.8,25,-38.4731,155.699,988.288,-0.53355,-0.424311,-1.77921,
2026_07_06_15_39_14.668,3.847,27.6,0,0.758,0,0,0,0.026, ,0,0,0,0,0, ,-38.4,155.7,989.6,-0.6,-0.4,-1.8,25,-38.4899,155.702,988.31,-0.534552,-0.425877,-1.78048,
2026_07_06_15_39_14.687,3.847,27.7,0,0.757,0,0,0,0.027, ,0,0,0,0,0, ,-37.9,155.5,988.8,-0.6,-0.4,-1.8,25,-38.4692,155.696,988.365,-0.53854,-0.4243,-1.78167,
2026_07_06_15_39_14.711,3.847,27.6,0,0.757,0,0,0,0.026, ,0,0,0,0,0, ,-38.8,155.7,987.1,-0.6,-0.4,-1.8,25,-38.462,155.69,988.339,-0.542285,-0.422819,-1.78278,
2026_07_06_15_39_14.727,3.847,27.7,0,0.758,0,0,0,0.027, ,0,0,0,0,0, ,-37.7,156.3,987,-0.6,-0.5,-1.8,25,-38.449,155.709,988.261,-0.545802,-0.424475,-1.78383,
2026_07_06_15_39_14.748,3.847,27.7,0,0.758,0,0,0,0.027, ,0,0,0,0,0, ,-37.5,155.2,988.5,-0.6,-0.5,-1.8,25,-38.3973,155.711,988.23,-0.549105,-0.429078,-1.78482,
2026_07_06_15_39_14.766,3.847,27.7,0,0.758,0,0,0,0.027, ,0,0,0,0,0, ,-38.8,156.1,988,-0.5,-0.4,-1.8,25,-38.3822,155.708,988.231,-0.54916,-0.430353,-1.78574,
2026_07_06_15_39_14.811,3.847,27.7,0,0.758,0,0,0,0.027, ,0,0,0,0,0, ,-38.2,156.6,987.6,-0.5,-0.4,-1.8,25,-38.3894,155.747,988.205,-0.546164,-0.428503,-1.78661,
2026_07_06_15_39_14.811,3.847,27.8,0,0.758,0,0,0,0.027, ,0,0,0,0,0, ,-38.9,155.8,987.9,-0.5,-0.5,-1.8,25,-38.3992,155.774,988.177,-0.543351,-0.429813,-1.78743,
2026_07_06_15_39_14.827,3.847,27.8,0,0.756,0,0,0,0.027, ,0,0,0,0,0, ,-39.4,156.1,988.6,-0.6,-0.4,-1.8,25,-38.445,155.785,988.181,-0.543756,-0.431043,-1.78819,
2026_07_06_15_39_14.847,3.847,27.7,0,0.759,0,0,0,0.027, ,0,0,0,0,0, ,-39.3,154.6,988.1,-0.7,-0.4,-1.8,25,-38.5001,155.758,988.192,-0.55023,-0.429151,-1.78891,
2026_07_06_15_39_14.867,3.847,27.9,0,0.758,0,0,0,0.028, ,0,0,0,0,0, ,-39,156.3,988.7,-0.6,-0.4,-1.7,25,-38.5397,155.74,988.204,-0.55631,-0.427375,-1.78654,
2026_07_06_15_39_14.886,3.847,27.8,0,0.758,0,0,0,0.027, ,0,0,0,0,0, ,-37.3,155.6,988,-0.5,-0.4,-1.8,25,-38.516,155.753,988.213,-0.555925,-0.425707,-1.78431,
2026_07_06_15_39_14.911,3.847,27.9,0,0.757,0,0,0,0.028, ,0,0,0,0,0, ,-39.5,156.6,987.3,-0.5,-0.4,-1.8,25,-38.5089,155.774,988.179,-0.552518,-0.42414,-1.78527,
2026_07_06_15_39_14.925,3.847,27.9,0,0.757,0,0,0,0.027, ,0,0,0,0,0, ,-39,154.7,988.6,-0.5,-0.4,-1.8,25,-38.5541,155.766,988.165,-0.549317,-0.422669,-1.78617,
2026_07_06_15_39_14.945,3.847,27.9,0,0.759,0,0,0,0.027, ,0,0,0,0,0, ,-38.8,156.1,987.7,-0.5,-0.4,-1.8,25,-38.5751,155.744,988.164,-0.546312,-0.421288,-1.78701,
2026_07_06_15_39_14.965,3.847,27.9,0,0.757,0,0,0,0.028, ,0,0,0,0,0, ,-37.7,157.4,988.6,-0.5,-0.4,-1.8,25,-38.5553,155.805,988.163,-0.54349,-0.419991,-1.7878,
2026_07_06_15_39_14.985,3.847,28,0,0.757,0,0,0,0.028, ,0,0,0,0,0, ,-39.4,156.9,987,-0.5,-0.4,-1.8,25,-38.555,155.887,988.141,-0.54084,-0.418772,-1.78855,
2026_07_06_15_39_15.004,3.847,28,0,0.758,0,0,0,0.027, ,0,0,0,0,0, ,-38.6,155,989.8,-0.5,-0.5,-1.8,25,-38.5821,155.891,988.157,-0.538351,-0.420675,-1.78924,
2026_07_06_15_39_15.024,3.847,28,0,0.759,0,0,0,0.027, ,0,0,0,0,0, ,-36.9,155.3,988.7,-0.5,-0.4,-1.8,25,-38.5314,155.846,988.223,-0.536014,-0.422462,-1.7899,
2026_07_06_15_39_15.044,3.847,28.1,0,0.759,0,0,0,0.028, ,0,0,0,0,0, ,-38.4,156.4,989.7,-0.5,-0.4,-1.8,25,-38.4777,155.846,988.283,-0.533819,-0.421094,-1.79051,
2026_07_06_15_39_15.064,3.847,28,0,0.758,0,0,0,0.027, ,0,0,0,0,0, ,-38.2,155.1,988.5,-0.5,-0.5,-1.8,25,-38.4669,155.84,988.333,-0.531759,-0.422855,-1.79109,
2026_07_06_15_39_15.084,3.847,28,0,0.759,0,0,0,0.028, ,0,0,0,0,0, ,-37.3,156.3,985.5,-0.5,-0.5,-1.8,25,-38.4232,155.832,988.252,-0.529823,-0.427556,-1.79164,
2026_07_06_15_39_15.104,3.847,28.1,0,0.758,0,0,0,0.028, ,0,0,0,0,0, ,-37.4,154.9,988.5,-0.5,-0.5,-1.8,25,-38.3578,155.818,988.175,-0.528006,-0.431971,-1.79215,
2026_07_06_15_39_15.123,3.847,28.1,0,0.757,0,0,0,0.028, ,0,0,0,0,0, ,-39.4,156,989,-0.6,-0.5,-1.7,25,-38.3604,155.795,988.21,-0.529346,-0.436116,-1.78958,
2026_07_06_15_39_15.144,3.847,28,0,0.759,0,0,0,0.028, ,0,0,0,0,0, ,-38.8,155.5,990.2,-0.7,-0.4,-1.8,25,-38.4054,155.792,988.295,-0.536698,-0.436962,-1.78717,
2026_07_06_15_39_15.163,3.847,28.1,0,0.757,0,0,0,0.029, ,0,0,0,0,0, ,-38.4,156.2,988.7,-0.5,-0.4,-1.8,25,-38.4173,155.796,988.365,-0.540556,-0.43471,-1.78795,
2026_07_06_15_39_15.183,3.847,28.1,0,0.757,0,0,0,0.028, ,0,0,0,0,0, ,-39.3,156.6,988,-0.5,-0.5,-1.8,25,-38.4437,155.833,988.364,-0.538085,-0.435642,-1.78868,
2026_07_06_15_39_15.210,3.847,28.1,0,0.757,0,0,0,0.028, ,0,0,0,0,0, ,-38,156.6,988.2,-0.6,-0.4,-1.9,25,-38.4562,155.879,988.348,-0.538811,-0.436517,-1.79242,
2026_07_06_15_39_15.223,3.847,28.2,0,0.757,0,0,0,0.029, ,0,0,0,0,0, ,-38.6,156.2,988.5,-0.6,-0.4,-1.8,25,-38.4467,155.911,988.348,-0.542539,-0.434291,-1.79593,
2026_07_06_15_39_15.242,3.847,28.2,0,0.758,0,0,0,0.028, ,0,0,0,0,0, ,-38.8,156.1,988.1,-0.5,-0.4,-1.8,25,-38.4621,155.926,988.345,-0.542994,-0.432202,-1.79618,
2026_07_06_15_39_15.262,3.847,28.2,0,0.757,0,0,0,0.028, ,0,0,0,0,0, ,-39.1,157.3,988.4,-0.5,-0.4,-1.8,25,-38.4919,155.973,988.34,-0.540374,-0.430239,-1.79641,
2026_07_06_15_39_15.282,3.847,28.1,0,0.758,0,0,0,0.028, ,0,0,0,0,0, ,-38,155.5,988.1,-0.6,-0.5,-1.8,25,-38.4954,155.999,988.334,-0.540961,-0.431444,-1.79663,
2026_07_06_15_39_15.302,3.847,28.3,0,0.758,0,0,0,0.029, ,0,0,0,0,0, ,-37.8,156.3,987.6,-0.5,-0.5,-1.8,25,-38.4591,155.993,988.305,-0.541511,-0.435621,-1.79683,
2026_07_06_15_39_15.321,3.847,28.1,0,0.759,0,0,0,0.028, ,0,0,0,0,0, ,-38.6,157.1,988.4,-0.4,-0.4,-1.8,25,-38.4433,156.036,988.286,-0.535935,-0.436497,-1.79703,
2026_07_06_15_39_15.342,3.847,28.1,0,0.759,0,0,0,0.03, ,0,0,0,0,0, ,-39.1,156,989.3,-0.5,-0.4,-1.8,25,-38.4681,156.067,988.32,-0.530698,-0.434273,-1.79721,
2026_07_06_15_39_15.361,3.847,28.1,0,0.758,0,0,0,0.03, ,0,0,0,0,0, ,-39.7,154.4,988,-0.5,-0.4,-1.7,25,-38.5249,156.014,988.341,-0.528828,-0.432185,-1.79433,
2026_07_06_15_39_15.381,3.847,28.2,0,0.758,0,0,0,0.03, ,0,0,0,0,0, ,-37.5,155.5,988.2,-0.5,-0.4,-1.8,25,-38.5295,155.95,988.326,-0.527071,-0.430224,-1.79163,
2026_07_06_15_39_15.400,3.847,28.2,0,0.758,0,0,0,0.029, ,0,0,0,0,0, ,-39.1,154,988.4,-0.6,-0.4,-1.8,25,-38.5155,155.877,988.324,-0.528468,-0.428382,-1.79214,
2026_07_06_15_39_15.420,3.847,28.4,0,0.759,0,0,0,0.03, ,0,0,0,0,0, ,-38.4,154.9,989.1,-0.6,-0.4,-1.8,25,-38.5298,155.79,988.35,-0.532827,-0.426652,-1.79262,
2026_07_06_15_39_15.441,3.847,28.3,0,0.757,0,0,0,0.028, ,0,0,0,0,0, ,-38.8,154.9,987.6,-0.5,-0.5,-1.8,25,-38.5341,155.735,988.35,-0.533874,-0.428075,-1.79307,
2026_07_06_15_39_15.461,3.847,28.3,0,0.758,0,0,0,0.029, ,0,0,0,0,0, ,-38.8,155.8,988.5,-0.6,-0.5,-1.8,25,-38.5503,155.712,988.332,-0.534856,-0.432458,-1.79349,
2026_07_06_15_39_15.480,3.847,28.4,0,0.758,0,0,0,0.029, ,0,0,0,0,0, ,-38.3,156.3,989.3,-0.6,-0.4,-1.8,25,-38.5503,155.732,988.367,-0.538826,-0.433527,-1.79389,
2026_07_06_15_39_15.500,3.847,28.3,0,0.759,0,0,0,0.029, ,0,0,0,0,0, ,-38.5,156.9,986.5,-0.5,-0.4,-1.7,25,-38.5411,155.785,988.338,-0.539507,-0.431484,-1.79121,
2026_07_06_15_39_15.520,3.847,28.3,0,0.758,0,0,0,0.03, ,0,0,0,0,0, ,-37.3,156.7,987.7,-0.5,-0.4,-1.7,25,-38.502,155.847,988.263,-0.537099,-0.429565,-1.78565,
2026_07_06_15_39_15.540,3.847,28.3,0,0.758,0,0,0,0.03, ,0,0,0,0,0, ,-38.8,155,988.8,-0.5,-0.4,-1.7,25,-38.4745,155.847,988.262,-0.534839,-0.427764,-1.78043,
2026_07_06_15_39_15.559,3.847,28.4,0,0.758,0,0,0,0.03, ,0,0,0,0,0, ,-39.4,156.3,989.3,-0.5,-0.4,-1.8,25,-38.5126,155.835,988.31,-0.532716,-0.426072,-1.77858,
2026_07_06_15_39_15.579,3.847,28.3,0,0.759,0,0,0,0.029, ,0,0,0,0,0, ,-39,155.3,988.1,-0.5,-0.4,-1.8,25,-38.5545,155.833,988.334,-0.530722,-0.424483,-1.77989,
2026_07_06_15_39_15.599,3.847,28.5,0,0.758,0,0,0,0.03, ,0,0,0,0,0, ,-38.8,156.2,988,-0.5,-0.5,-1.7,25,-38.5755,155.828,988.316,-0.52885,-0.426038,-1.77806,
2026_07_06_15_39_15.619,3.847,28.5,0,0.758,0,0,0,0.029, ,0,0,0,0,0, ,-38.4,154.7,987,-0.5,-0.4,-1.8,25,-38.577,155.805,988.267,-0.527092,-0.427498,-1.77635,
2026_07_06_15_39_15.638,3.847,28.4,0,0.761,0,0,0,0.029, ,0,0,0,0,0, ,-38.8,157.3,989.2,-0.5,-0.4,-1.8,25,-38.5784,155.817,988.257,-0.525441,-0.425823,-1.7778,
2026_07_06_15_39_15.658,3.847,28.4,0,0.758,0,0,0,0.03, ,0,0,0,0,0, ,-38,156.2,988.7,-0.5,-0.4,-1.8,25,-38.5676,155.874,988.299,-0.523891,-0.424249,-1.77915,
2026_07_06_15_39_15.678,3.847,28.4,0,0.758,0,0,0,0.03, ,0,0,0,0,0, ,-38.8,156.7,987.9,-0.6,-0.4,-1.8,25,-38.5574,155.909,988.299,-0.525482,-0.422771,-1.78042,
2026_07_06_15_39_15.698,3.847,28.5,0,0.757,0,0,0,0.03, ,0,0,0,0,0, ,-38.8,156.8,987.6,-0.6,-0.4,-1.8,25,-38.5721,155.96,988.265,-0.530023,-0.421384,-1.78161,
2026_07_06_15_39_15.718,3.847,28.4,0,0.758,0,0,0,0.03, ,0,0,0,0,0, ,-37.7,156.3,988.2,-0.5,-0.4,-1.8,25,-38.5525,155.996,988.243,-0.53124,-0.420081,-1.78273,
2026_07_06_15_39_15.737,3.847,28.5,0,0.759,0,0,0,0.031, ,0,0,0,0,0, ,-39.4,156.3,988.1,-0.5,-0.4,-1.9,25,-38.5524,156.015,988.237,-0.529336,-0.418857,-1.78683,
2026_07_06_15_39_15.756,3.847,28.7,0,0.759,0,0,0,0.03, ,0,0,0,0,0, ,-38.6,157.5,988.4,-0.5,-0.5,-1.8,25,-38.5796,156.069,988.238,-0.527549,-0.420755,-1.79068,
2026_07_06_15_39_15.777,3.847,28.6,0,0.758,0,0,0,0.028, ,0,0,0,0,0, ,-39,157.2,987.5,-0.5,-0.5,-1.7,25,-38.5931,156.147,988.221,-0.52587,-0.425584,-1.7882,
2026_07_06_15_39_15.797,3.847,28.7,0,0.758,0,0,0,0.029, ,0,0,0,0,0, ,-38,156.3,986.4,-0.6,-0.4,-1.8,25,-38.5874,156.183,988.143,-0.52734,-0.427072,-1.78587,
2026_07_06_15_39_15.817,3.847,28.6,0,0.757,0,0,0,0.029, ,0,0,0,0,0, ,-39.9,155.2,988.4,-0.5,-0.5,-1.8,25,-38.6095,156.157,988.098,-0.528721,-0.428469,-1.78673,
2026_07_06_15_39_15.837,3.847,28.6,0,0.759,0,0,0,0.03, ,0,0,0,0,0, ,-38,155,988.6,-0.5,-0.4,-1.8,25,-38.6302,156.093,988.122,-0.526971,-0.429781,-1.78754,
2026_07_06_15_39_15.860,3.847,28.7,0,0.758,0,0,0,0.03, ,0,0,0,0,0, ,-39,155.3,988.1,-0.5,-0.4,-1.8,25,-38.6223,156.035,988.136,-0.525327,-0.427966,-1.7883,
2026_07_06_15_39_15.876,3.847,28.7,0,0.759,0,0,0,0.029, ,0,0,0,0,0, ,-37.9,155.7,987.3,-0.5,-0.4,-1.8,25,-38.6118,156.003,988.11,-0.523784,-0.426262,-1.78902,
2026_07_06_15_39_15.896,3.847,28.7,0,0.759,0,0,0,0.029, ,0,0,0,0,0, ,-37.7,156.4,988.7,-0.6,-0.4,-1.8,25,-38.5623,156.005,988.103,-0.525382,-0.424662,-1.78968,
2026_07_06_15_39_15.916,3.847,28.7,0,0.758,0,0,0,0.029, ,0,0,0,0,0, ,-38.6,155.1,989.2,-0.6,-0.4,-1.8,25,-38.5372,155.99,988.155,-0.529929,-0.423159,-1.79031,
2026_07_06_15_39_15.936,3.847,28.8,0,0.759,0,0,0,0.03, ,0,0,0,0,0, ,-38.8,156,989,-0.6,-0.5,-1.8,25,-38.5471,155.963,988.212,-0.534199,-0.424794,-1.7909,
2026_07_06_15_39_15.956,3.847,28.7,0,0.759,0,0,0,0.029, ,0,0,0,0,0, ,-39.4,156.9,988.4,-0.6,-0.4,-1.8,25,-38.5808,155.993,988.242,-0.538208,-0.42633,-1.79146,
2026_07_06_15_39_15.974,3.847,28.8,0,0.759,0,0,0,0.03, ,0,0,0,0,0, ,-39,156.7,986.9,-0.6,-0.4,-1.8,25,-38.6185,156.042,988.206,-0.541974,-0.424726,-1.79198,
2026_07_06_15_39_15.994,3.847,28.7,0,0.758,0,0,0,0.029, ,0,0,0,0,0, ,-39.5,156.2,988.6,-0.6,-0.4,-1.8,25,-38.657,156.067,988.178,-0.54551,-0.423219,-1.79247,
2026_07_06_15_39_16.014,3.847,28.9,0,0.758,0,0,0,0.03, ,0,0,0,0,0, ,-38.4,157.4,989.6,-0.6,-0.4,-1.8,25,-38.6749,156.111,988.234,-0.54883,-0.421804,-1.79293,
2026_07_06_15_39_16.035,3.847,28.8,0,0.757,0,0,0,0.029, ,0,0,0,0,0, ,-38.4,157.9,987.7,-0.5,-0.4,-1.8,25,-38.6581,156.205,988.26,-0.548902,-0.420476,-1.79336,
2026_07_06_15_39_16.055,3.847,28.9,0,0.759,0,0,0,0.029, ,0,0,0,0,0, ,-39.1,156.6,988.1,-0.6,-0.4,-1.8,25,-38.6637,156.269,988.238,-0.548969,-0.419228,-1.79376,
2026_07_06_15_39_16.074,3.847,28.8,0,0.759,0,0,0,0.029, ,0,0,0,0,0, ,-38.3,156.1,987.9,-0.5,-0.5,-1.8,25,-38.6659,156.274,988.223,-0.549031,-0.421103,-1.79414,
2026_07_06_15_39_16.094,3.847,28.9,0,0.76,0,0,0,0.03, ,0,0,0,0,0, ,-39.1,155.5,989.7,-0.5,-0.4,-1.8,25,-38.668,156.245,988.258,-0.546044,-0.422864,-1.7945,
2026_07_06_15_39_16.114,3.847,28.9,0,0.76,0,0,0,0.029, ,0,0,0,0,0, ,-39.1,156.1,988.6,-0.5,-0.4,-1.8,25,-38.6943,156.218,988.313,-0.543238,-0.421471,-1.79483,
2026_07_06_15_39_16.133,3.847,28.9,0,0.76,0,0,0,0.029, ,0,0,0,0,0, ,-37.4,155.1,987.6,-0.5,-0.3,-1.8,25,-38.6673,156.18,988.3,-0.540603,-0.417115,-1.79515,
2026_07_06_15_39_16.153,3.847,29.1,0,0.76,0,0,0,0.029, ,0,0,0,0,0, ,-38.4,156.8,988.6,-0.5,-0.4,-1.9,25,-38.6205,156.166,988.288,-0.538129,-0.413026,-1.79849,
2026_07_06_15_39_16.173,3.847,29.1,0,0.759,0,0,0,0.028, ,0,0,0,0,0, ,-38.8,155.7,989,-0.5,-0.5,-1.8,25,-38.6193,156.171,988.319,-0.535805,-0.415279,-1.80163,
2026_07_06_15_39_16.192,3.847,28.9,0,0.758,0,0,0,0.028, ,0,0,0,0,0, ,-39.4,156.4,988.1,-0.6,-0.5,-1.9,25,-38.6486,156.164,988.333,-0.53667,-0.420441,-1.80458,
2026_07_06_15_39_16.212,3.847,29.1,0,0.76,0,0,0,0.03, ,0,0,0,0,0, ,-37.1,156.1,987.1,-0.5,-0.4,-1.8,25,-38.6243,156.169,988.288,-0.537483,-0.422243,-1.80735,
2026_07_06_15_39_16.232,3.847,29.1,0,0.761,0,0,0,0.028, ,0,0,0,0,0, ,-40.5,155.3,987.7,-0.5,-0.5,-1.8,25,-38.635,156.141,988.234,-0.535198,-0.423934,-1.8069,
2026_07_06_15_39_16.253,3.847,29.2,0,0.757,0,0,0,0.028, ,0,0,0,0,0, ,-39.6,157.2,988.5,-0.6,-0.4,-1.9,25,-38.7212,156.147,988.226,-0.5361,-0.425522,-1.80952,
2026_07_06_15_39_16.270,3.847,29.2,0,0.759,0,0,0,0.027, ,0,0,0,0,0, ,-39.5,156.4,987.3,-0.5,-0.4,-1.8,25,-38.7717,156.187,988.206,-0.536947,-0.423967,-1.81199,
2026_07_06_15_39_16.291,3.847,29.2,0,0.76,0,0,0,0.027, ,0,0,0,0,0, ,-38,156.3,988.4,-0.5,-0.5,-1.8,25,-38.7704,156.197,988.184,-0.534696,-0.425554,-1.81126,
2026_07_06_15_39_16.315,3.847,29.2,0,0.76,0,0,0,0.028, ,0,0,0,0,0, ,-40.1,156.9,988.6,-0.5,-0.4,-1.8,25,-38.7874,156.221,988.204,-0.532582,-0.427043,-1.81057,
2026_07_06_15_39_16.332,3.847,29.2,0,0.758,0,0,0,0.028, ,0,0,0,0,0, ,-39.6,155.8,987,-0.5,-0.4,-1.8,25,-38.8522,156.229,988.179,-0.530596,-0.425395,-1.80993,
2026_07_06_15_39_16.352,3.847,29.3,0,0.759,0,0,0,0.028, ,0,0,0,0,0, ,-39.6,156,989.2,-0.6,-0.5,-1.9,25,-38.8977,156.209,988.174,-0.531779,-0.426895,-1.81237,
2026_07_06_15_39_16.371,3.847,29.3,0,0.759,0,0,0,0.027, ,0,0,0,0,0, ,-38.8,155.3,989.1,-0.5,-0.5,-1.8,25,-38.9162,156.175,988.234,-0.532889,-0.43135,-1.81466,
2026_07_06_15_39_16.391,3.847,29.3,0,0.76,0,0,0,0.027, ,0,0,0,0,0, ,-37.8,155.2,987.9,-0.5,-0.5,-1.7,25,-38.8786,156.119,988.25,-0.530885,-0.435533,-1.81072,
2026_07_06_15_39_16.410,3.847,29.3,0,0.759,0,0,0,0.027, ,0,0,0,0,0, ,-38.6,156.2,988.4,-0.5,-0.4,-1.8,25,-38.8373,156.093,988.244,-0.529003,-0.436414,-1.80702,
2026_07_06_15_39_16.431,3.847,29.3,0,0.76,0,0,0,0.027, ,0,0,0,0,0, ,-37.9,156,988.5,-0.5,-0.4,-1.8,25,-38.8015,156.094,988.256,-0.527235,-0.434195,-1.8066,
2026_07_06_15_39_16.450,3.847,29.4,0,0.759,0,0,0,0.027, ,0,0,0,0,0, ,-38.4,156.4,989,-0.6,-0.5,-1.8,25,-38.7618,156.1,988.286,-0.528623,-0.435159,-1.80619,
2026_07_06_15_39_16.470,3.847,29.4,0,0.758,0,0,0,0.026, ,0,0,0,0,0, ,-38.8,156.6,987.1,-0.6,-0.4,-1.8,25,-38.7519,156.125,988.272,-0.532972,-0.436063,-1.80582,
2026_07_06_15_39_16.490,3.847,29.4,0,0.759,0,0,0,0.027, ,0,0,0,0,0, ,-38.6,157.1,988.6,-0.6,-0.5,-1.8,25,-38.7488,156.169,988.246,-0.537057,-0.436912,-1.80546,
2026_07_06_15_39_16.510,3.847,29.5,0,0.76,0,0,0,0.027, ,0,0,0,0,0, ,-38.4,156.6,988.2,-0.6,-0.4,-1.8,25,-38.7336,156.21,988.256,-0.540892,-0.43771,-1.80513,
2026_07_06_15_39_16.530,3.847,29.5,0,0.76,0,0,0,0.026, ,0,0,0,0,0, ,-38.9,155.7,986.9,-0.6,-0.4,-1.8,25,-38.7285,156.207,988.213,-0.544494,-0.435412,-1.80482,
2026_07_06_15_39_16.549,3.847,29.4,0,0.758,0,0,0,0.026, ,0,0,0,0,0, ,-39.4,155.5,987.4,-0.5,-0.4,-1.8,25,-38.7542,156.17,988.148,-0.54483,-0.433254,-1.80452,
2026_07_06_15_39_16.568,3.847,29.4,0,0.758,0,0,0,0.027, ,0,0,0,0,0, ,-38.2,156.7,987.6,-0.5,-0.4,-1.8,25,-38.757,156.165,988.108,-0.542098,-0.431228,-1.80425,
2026_07_06_15_39_16.589,3.847,29.5,0,0.761,0,0,0,0.027, ,0,0,0,0,0, ,-38.2,156.8,986.9,-0.5,-0.4,-1.8,25,-38.723,156.201,988.056,-0.539533,-0.429325,-1.80399,
2026_07_06_15_39_16.613,3.847,29.5,0,0.759,0,0,0,0.026, ,0,0,0,0,0, ,-38.9,158.3,986.8,-0.5,-0.4,-1.7,25,-38.7125,156.283,987.983,-0.537124,-0.427538,-1.8007,
2026_07_06_15_39_16.628,3.847,29.5,0,0.758,0,0,0,0.026, ,0,0,0,0,0, ,-39.1,156.6,988.2,-0.4,-0.4,-1.7,25,-38.73,156.354,987.953,-0.531814,-0.42586,-1.79456,
2026_07_06_15_39_16.648,3.847,29.5,0,0.758,0,0,0,0.026, ,0,0,0,0,0, ,-38,155.1,988.8,-0.5,-0.4,-1.8,25,-38.719,156.324,987.987,-0.526829,-0.424284,-1.79185,
2026_07_06_15_39_16.668,3.847,29.6,0,0.759,0,0,0,0.026, ,0,0,0,0,0, ,-38.9,154.5,987.3,-0.5,-0.4,-1.7,25,-38.7026,156.231,987.99,-0.525194,-0.422804,-1.7893,
2026_07_06_15_39_16.688,3.847,29.5,0,0.76,0,0,0,0.025, ,0,0,0,0,0, ,-38.5,156.9,987.4,-0.5,-0.4,-1.8,25,-38.7025,156.198,987.951,-0.523659,-0.421414,-1.7869,
2026_07_06_15_39_16.708,3.847,29.6,0,0.76,0,0,0,0.026, ,0,0,0,0,0, ,-37.7,156.1,987.9,-0.4,-0.4,-1.8,25,-38.6658,156.217,987.933,-0.51917,-0.420109,-1.7877,
2026_07_06_15_39_16.727,3.847,29.6,0,0.76,0,0,0,0.026, ,0,0,0,0,0, ,-39.3,156.4,987.1,-0.6,-0.5,-1.7,25,-38.6557,156.219,987.907,-0.518002,-0.421931,-1.7854,
2026_07_06_15_39_16.747,3.847,29.6,0,0.759,0,0,0,0.026, ,0,0,0,0,0, ,-37.8,156,988.6,-0.5,-0.4,-1.8,25,-38.6492,156.218,987.903,-0.519952,-0.423641,-1.78325,
2026_07_06_15_39_16.768,3.847,29.7,0,0.759,0,0,0,0.026, ,0,0,0,0,0, ,-38.6,155,987.5,-0.5,-0.4,-1.9,25,-38.6219,156.174,987.912,-0.518736,-0.422201,-1.78731,
2026_07_06_15_39_16.786,3.847,29.7,0,0.759,0,0,0,0.025, ,0,0,0,0,0, ,-38,156.1,988.7,-0.6,-0.4,-1.7,25,-38.6022,156.136,987.924,-0.520641,-0.420848,-1.78809,
2026_07_06_15_39_16.807,3.847,29.7,0,0.761,0,0,0,0.025, ,0,0,0,0,0, ,-39.5,157.1,988.1,-0.5,-0.5,-1.8,25,-38.6112,156.164,987.953,-0.52243,-0.422624,-1.78577,
2026_07_06_15_39_16.827,3.847,29.7,0,0.758,0,0,0,0.025, ,0,0,0,0,0, ,-39.7,156.2,988,-0.5,-0.5,-1.7,25,-38.6715,156.194,987.959,-0.521063,-0.427339,-1.78359,
2026_07_06_15_39_16.847,3.847,29.7,0,0.759,0,0,0,0.025, ,0,0,0,0,0, ,-38.5,156,987.7,-0.5,-0.4,-1.8,25,-38.6976,156.188,987.952,-0.51978,-0.42872,-1.78154,
2026_07_06_15_39_16.866,3.847,29.8,0,0.76,0,0,0,0.025, ,0,0,0,0,0, ,-37.9,156.4,987.9,-0.6,-0.4,-1.8,25,-38.6673,156.189,987.943,-0.521621,-0.42697,-1.78266,
2026_07_06_15_39_16.886,3.847,29.6,0,0.76,0,0,0,0.024, ,0,0,0,0,0, ,-38,156.3,989.1,-0.6,-0.5,-1.8,25,-38.6236,156.199,987.977,-0.526398,-0.428373,-1.78372,
2026_07_06_15_39_16.912,3.847,29.8,0,0.763,0,0,0,0.026, ,0,0,0,0,0, ,-37.8,156.9,988.1,-0.5,-0.4,-1.9,25,-38.5795,156.223,988.015,-0.527836,-0.429691,-1.78776,
2026_07_06_15_39_16.926,3.847,29.9,0,0.759,0,0,0,0.024, ,0,0,0,0,0, ,-39.6,154.9,987.6,-0.5,-0.4,-1.8,25,-38.5868,156.203,988.005,-0.52614,-0.427882,-1.79155,
2026_07_06_15_39_16.945,3.847,29.9,0,0.76,0,0,0,0.023, ,0,0,0,0,0, ,-38.3,156.3,988.8,-0.5,-0.4,-1.8,25,-38.609,156.167,988.016,-0.524547,-0.426183,-1.79207,
2026_07_06_15_39_16.965,3.847,29.8,0,0.76,0,0,0,0.023, ,0,0,0,0,0, ,-38.5,155.8,987.9,-0.6,-0.4,-1.8,25,-38.5962,156.16,988.037,-0.526098,-0.424587,-1.79255,
2026_07_06_15_39_16.985,3.847,29.8,0,0.76,0,0,0,0.024, ,0,0,0,0,0, ,-39,155.5,987.6,-0.6,-0.4,-1.8,25,-38.6056,156.128,988.019,-0.530601,-0.423089,-1.793,
2026_07_06_15_39_17.005,3.847,29.8,0,0.758,0,0,0,0.024, ,0,0,0,0,0, ,-37.8,155.3,990.4,-0.6,-0.4,-1.8,25,-38.5931,156.084,988.079,-0.53483,-0.421682,-1.79343,
2026_07_06_15_39_17.025,3.847,29.8,0,0.759,0,0,0,0.024, ,0,0,0,0,0, ,-38.9,156.6,988.7,-0.5,-0.4,-1.8,25,-38.5783,156.076,988.169,-0.535755,-0.420361,-1.79383,
2026_07_06_15_39_17.044,3.847,29.9,0,0.758,0,0,0,0.024, ,0,0,0,0,0, ,-39.6,156.1,987.4,-0.6,-0.4,-1.8,25,-38.6192,156.093,988.161,-0.536623,-0.41912,-1.79421,
2026_07_06_15_39_17.064,3.847,30,0,0.759,0,0,0,0.024, ,0,0,0,0,0, ,-39.6,154.9,989,-0.5,-0.4,-1.8,25,-38.679,156.056,988.164,-0.537438,-0.417955,-1.79456,
2026_07_06_15_39_17.084,3.847,29.9,0,0.759,0,0,0,0.023, ,0,0,0,0,0, ,-39,156.6,987.5,-0.5,-0.5,-1.7,25,-38.7168,156.038,988.169,-0.535156,-0.419908,-1.79184,
2026_07_06_15_39_17.104,3.847,29.9,0,0.757,0,0,0,0, ,0,0,0,0,0, ,-38,156.3,988.2,-0.6,-0.4,-1.7,25,-38.7036,156.063,988.15,-0.536061,-0.421742,-1.78625,
2026_07_06_15_39_17.124,3.847,29.9,0,0.758,0,0,0,0, ,0,0,0,0,0, ,-38.6,156.6,987.3,-0.6,-0.5,-1.9,25,-38.679,156.087,988.125,-0.539957,-0.423464,-1.78709,
2026_07_06_15_39_17.143,3.847,29.9,0,0.759,0,0,0,0, ,0,0,0,0,0, ,-39.4,156.1,987.3,-0.5,-0.4,-1.8,25,-38.6986,156.103,988.075,-0.540569,-0.425081,-1.79092,
2026_07_06_15_39_17.163,3.847,29.9,0,0.759,0,0,0,0, ,0,0,0,0,0, ,-38.8,156.8,988.7,-0.6,-0.5,-1.8,25,-38.723,156.124,988.07,-0.541144,-0.426599,-1.79147,
2026_07_06_15_39_17.183,3.847,29.9,0,0.761,0,0,0,0, ,0,0,0,0,0, ,-38.5,156,989.3,-0.6,-0.4,-1.8,25,-38.7186,156.141,988.127,-0.544731,-0.428025,-1.79199,
2026_07_06_15_39_17.202,3.847,29.9,0,0.761,0,0,0,0, ,0,0,0,0,0, ,-39.1,155.8,987.9,-0.5,-0.4,-1.8,25,-38.7235,156.126,988.156,-0.545052,-0.426317,-1.79248,
2026_07_06_15_39_17.222,3.847,30,0,0.759,0,0,0,0, ,0,0,0,0,0, ,-39.5,156,989.7,-0.6,-0.4,-1.8,25,-38.7587,156.112,988.195,-0.545353,-0.424714,-1.79294,
2026_07_06_15_39_17.243,3.847,30,0,0.761,0,0,0,0, ,0,0,0,0,0, ,-38.2,156.6,989.1,-0.5,-0.4,-1.8,25,-38.7642,156.124,988.269,-0.545636,-0.423208,-1.79337,
2026_07_06_15_39_17.262,3.847,30,0,0.759,0,0,0,0, ,0,0,0,0,0, ,-37.1,155.2,987.9,-0.5,-0.4,-1.8,25,-38.6963,156.11,988.283,-0.542855,-0.421793,-1.79377,
2026_07_06_15_39_17.282,3.847,29.9,0,0.759,0,0,0,0, ,0,0,0,0,0, ,-38.6,154.9,987.9,-0.5,-0.5,-1.8,25,-38.6448,156.045,988.259,-0.540244,-0.423512,-1.79415,
2026_07_06_15_39_17.301,3.847,29.9,0,0.759,0,0,0,0, ,0,0,0,0,0, ,-37.2,154.2,988,-0.5,-0.5,-1.8,25,-38.5994,155.954,988.241,-0.537792,-0.428173,-1.79451,
2026_07_06_15_39_17.322,3.847,30,0,0.759,0,0,0,0, ,0,0,0,0,0, ,-37.4,155.2,988.2,-0.6,-0.4,-1.8,25,-38.5202,155.878,988.232,-0.538535,-0.429503,-1.79484,
2026_07_06_15_39_17.341,3.847,30,0,0.758,0,0,0,0, ,0,0,0,0,0, ,-39.1,155.5,987.4,-0.6,-0.5,-1.7,25,-38.5037,155.846,988.206,-0.542281,-0.430752,-1.79211,
2026_07_06_15_39_17.361,3.847,30.1,0,0.759,0,0,0,0, ,0,0,0,0,0, ,-38.8,155.3,988.6,-0.5,-0.4,-1.8,25,-38.5309,155.819,988.193,-0.542751,-0.431925,-1.78954,
2026_07_06_15_39_17.381,3.847,30,0,0.759,0,0,0,0, ,0,0,0,0,0, ,-39.6,155,988.5,-0.6,-0.5,-1.9,25,-38.5717,155.778,988.215,-0.543193,-0.433027,-1.79323,
2026_07_06_15_39_17.400,3.847,30,0,0.761,0,0,0,0, ,0,0,0,0,0, ,-39.1,156,987.9,-0.6,-0.5,-1.8,25,-38.6191,155.761,988.214,-0.546655,-0.437108,-1.79669,
2026_07_06_15_39_17.420,3.847,30,0,0.761,0,0,0,0, ,0,0,0,0,0, ,-39.3,156.3,988.6,-0.5,-0.4,-1.8,25,-38.6545,155.785,988.216,-0.546859,-0.437893,-1.79689,
2026_07_06_15_39_17.441,3.847,30,0,0.759,0,0,0,0, ,0,0,0,0,0, ,-39.4,155.7,988.7,-0.5,-0.4,-1.8,25,-38.6969,155.798,988.243,-0.544003,-0.435584,-1.79708,
2026_07_06_15_39_17.461,3.847,30,0,0.758,0,0,0,0, ,0,0,0,0,0, ,-38.2,158,987.6,-0.6,-0.5,-1.8,25,-38.7032,155.862,988.237,-0.544369,-0.436463,-1.79726,
2026_07_06_15_39_17.481,3.847,30.1,0,0.759,0,0,0,0, ,0,0,0,0,0, ,-38.6,156.4,986.5,-0.6,-0.5,-1.8,25,-38.6847,155.943,988.165,-0.547759,-0.440335,-1.79742,
2026_07_06_15_39_17.500,3.847,30,0,0.758,0,0,0,0, ,0,0,0,0,0, ,-38.3,156.9,988.5,-0.5,-0.4,-1.8,25,-38.6704,155.986,988.124,-0.547895,-0.440924,-1.79758,
2026_07_06_15_39_17.522,3.847,30.1,0,0.759,0,0,0,0, ,0,0,0,0,0, ,-39.1,155.6,987.7,-0.5,-0.4,-1.8,25,-38.6722,156.002,988.123,-0.544977,-0.43843,-1.79773,
2026_07_06_15_39_17.540,3.847,30.1,0,0.759,0,0,0,0, ,0,0,0,0,0, ,-38.6,154.5,989,-0.5,-0.4,-1.8,25,-38.683,155.944,988.136,-0.542236,-0.436088,-1.79787,
2026_07_06_15_39_17.560,3.847,30,0,0.76,0,0,0,0, ,0,0,0,0,0, ,-38.8,155.7,988.5,-0.5,-0.5,-1.8,25,-38.6841,155.893,988.174,-0.539662,-0.436936,-1.798,
2026_07_06_15_39_17.579,3.847,30.1,0,0.761,0,0,0,0, ,0,0,0,0,0, ,-37.7,155.8,988.2,-0.5,-0.5,-1.8,25,-38.6576,155.884,988.185,-0.537245,-0.440779,-1.79812,
2026_07_06_15_39_17.599,3.847,30,0,0.759,0,0,0,0, ,0,0,0,0,0, ,-39.1,155.2,988,-0.5,-0.4,-1.8,25,-38.6419,155.861,988.179,-0.534976,-0.441341,-1.79823,
2026_07_06_15_39_17.619,3.847,30.1,0,0.759,0,0,0,0, ,0,0,0,0,0, ,-38.6,157.5,987.6,-0.6,-0.4,-1.8,25,-38.6546,155.891,988.156,-0.535891,-0.438821,-1.79834,
2026_07_06_15_39_17.638,3.847,30,0,0.758,0,0,0,0, ,0,0,0,0,0, ,-38.5,156.6,988.6,-0.6,-0.4,-1.7,25,-38.6482,155.961,988.153,-0.539798,-0.436456,-1.7954,
2026_07_06_15_39_17.658,3.847,30.1,0,0.759,0,0,0,0, ,0,0,0,0,0, ,-38.5,156.4,988.7,-0.6,-0.4,-1.8,25,-38.6392,155.994,988.183,-0.543466,-0.434234,-1.79263,
2026_07_06_15_39_17.678,3.847,30.2,0,0.758,0,0,0,0, ,0,0,0,0,0, ,-38.5,155.6,988.2,-0.5,-0.4,-1.7,25,-38.6307,155.994,988.199,-0.543864,-0.432148,-1.79003,
2026_07_06_15_39_17.698,3.847,30.1,0,0.759,0,0,0,0, ,0,0,0,0,0, ,-40.7,155.1,988.6,-0.5,-0.4,-1.8,25,-38.6898,155.955,988.212,-0.541191,-0.430189,-1.78759,
2026_07_06_15_39_17.717,3.847,30.1,0,0.757,0,0,0,0, ,0,0,0,0,0, ,-38.6,157.1,986.8,-0.5,-0.4,-1.7,25,-38.7483,155.964,988.18,-0.538681,-0.428349,-1.7853,
2026_07_06_15_39_17.737,3.847,30.1,0,0.759,0,0,0,0, ,0,0,0,0,0, ,-38.9,155.5,989,-0.5,-0.5,-1.8,25,-38.7484,155.985,988.163,-0.536324,-0.429669,-1.78315,
2026_07_06_15_39_17.757,3.847,30.2,0,0.76,0,0,0,0, ,0,0,0,0,0, ,-39,154.4,989.6,-0.5,-0.4,-1.9,25,-38.7607,155.921,988.233,-0.534111,-0.430908,-1.78722,
2026_07_06_15_39_17.777,3.847,30.2,0,0.759,0,0,0,0, ,0,0,0,0,0, ,-38.9,156.7,989.1,-0.5,-0.4,-1.8,25,-38.7722,155.899,988.301,-0.532032,-0.429024,-1.79105,
2026_07_06_15_39_17.797,3.847,30.2,0,0.759,0,0,0,0, ,0,0,0,0,0, ,-38.2,156.4,988.6,-0.5,-0.4,-1.8,25,-38.7587,155.939,988.334,-0.53008,-0.427256,-1.79159,
2026_07_06_15_39_17.824,3.847,30.1,0,0.759,0,0,0,0, ,0,0,0,0,0, ,-38.9,155.6,987.7,-0.6,-0.5,-1.9,25,-38.746,155.942,988.323,-0.531294,-0.428642,-1.79515,
2026_07_06_15_39_17.836,3.847,30.1,0,0.758,0,0,0,0, ,0,0,0,0,0, ,-39,156.8,987.1,-0.6,-0.3,-1.7,25,-38.7584,155.958,988.267,-0.535481,-0.426896,-1.79545,
2026_07_06_15_39_17.856,3.847,30.2,0,0.759,0,0,0,0, ,0,0,0,0,0, ,-38.2,156.4,987.1,-0.5,-0.4,-1.8,25,-38.7487,155.997,988.196,-0.536366,-0.42221,-1.79268,
2026_07_06_15_39_17.876,3.847,30.2,0,0.758,0,0,0,0, ,0,0,0,0,0, ,-38.8,155.8,988.1,-0.5,-0.4,-1.7,25,-38.7336,156.003,988.159,-0.53415,-0.420857,-1.79008,
2026_07_06_15_39_17.895,3.847,30.2,0,0.761,0,0,0,0, ,0,0,0,0,0, ,-38.8,156.4,988.6,-0.6,-0.4,-1.8,25,-38.7376,156.009,988.171,-0.535115,-0.419586,-1.78764,
2026_07_06_15_39_17.915,3.847,30.1,0,0.759,0,0,0,0, ,0,0,0,0,0, ,-37.8,156,986.8,-0.6,-0.5,-1.8,25,-38.711,156.021,988.142,-0.539069,-0.421439,-1.78839,
2026_07_06_15_39_17.935,3.847,30.1,0,0.761,0,0,0,0, ,0,0,0,0,0, ,-37.8,155.5,987.3,-0.5,-0.4,-1.8,25,-38.6555,156.004,988.076,-0.539735,-0.42318,-1.7891,
2026_07_06_15_39_17.955,3.847,30.2,0,0.759,0,0,0,0, ,0,0,0,0,0, ,-39.5,155.2,987.5,-0.5,-0.4,-1.8,25,-38.6551,155.964,988.035,-0.537314,-0.421767,-1.78976,
2026_07_06_15_39_17.976,3.847,30.2,0,0.758,0,0,0,0, ,0,0,0,0,0, ,-37.5,156.2,988.8,-0.5,-0.4,-1.8,25,-38.6457,155.948,988.042,-0.53504,-0.420441,-1.79039,
2026_07_06_15_39_17.995,3.847,30.1,0,0.758,0,0,0,0, ,0,0,0,0,0, ,-38.8,155.2,986.8,-0.5,-0.4,-1.8,25,-38.6155,155.933,988.027,-0.532905,-0.419195,-1.79097,
2026_07_06_15_39_18.015,3.847,30.2,0,0.759,0,0,0,0, ,0,0,0,0,0, ,-39,156.2,988.5,-0.5,-0.4,-1.8,25,-38.6328,155.919,988.004,-0.5309,-0.418025,-1.79152,
2026_07_06_15_39_18.035,3.847,30.2,0,0.76,0,0,0,0, ,0,0,0,0,0, ,-38.2,156.4,988.8,-0.5,-0.4,-1.8,25,-38.6308,155.942,988.043,-0.529017,-0.416927,-1.79204,
2026_07_06_15_39_18.054,3.847,30.1,0,0.759,0,0,0,0, ,0,0,0,0,0, ,-38.2,156.1,987.6,-0.5,-0.4,-1.8,25,-38.6046,155.961,988.053,-0.527249,-0.415896,-1.79252,
2026_07_06_15_39_18.074,3.847,30.2,0,0.761,0,0,0,0, ,0,0,0,0,0, ,-40.2,155.5,989.2,-0.5,-0.4,-1.8,25,-38.6408,155.951,988.074,-0.525588,-0.414927,-1.79298,
2026_07_06_15_39_18.094,3.847,30.2,0,0.758,0,0,0,0, ,0,0,0,0,0, ,-39,155,986.5,-0.5,-0.4,-1.8,25,-38.6993,155.908,988.06,-0.524029,-0.414017,-1.79341,
2026_07_06_15_39_18.113,3.847,30.1,0,0.759,0,0,0,0, ,0,0,0,0,0, ,-38.2,155.3,988.1,-0.5,-0.4,-1.8,25,-38.6932,155.862,988.014,-0.522565,-0.413163,-1.79381,
2026_07_06_15_39_18.133,3.847,30.2,0,0.759,0,0,0,0, ,0,0,0,0,0, ,-39.4,154.6,988.1,-0.5,-0.5,-1.9,25,-38.6997,155.807,988.019,-0.52119,-0.415408,-1.79723,
2026_07_06_15_39_18.154,3.847,30.2,0,0.759,0,0,0,0, ,0,0,0,0,0, ,-39.7,156.1,988.8,-0.5,-0.4,-1.7,25,-38.7516,155.779,988.045,-0.519898,-0.417516,-1.7974,
2026_07_06_15_39_18.173,3.847,30.2,0,0.759,0,0,0,0, ,0,0,0,0,0, ,-37.5,156.9,988.2,-0.6,-0.5,-1.9,25,-38.7423,155.823,988.073,-0.521733,-0.419495,-1.79756,
2026_07_06_15_39_18.193,3.847,30.2,0,0.758,0,0,0,0, ,0,0,0,0,0, ,-39.4,155.8,987.6,-0.6,-0.4,-1.8,25,-38.7245,155.855,988.063,-0.526502,-0.421354,-1.80076,
2026_07_06_15_39_18.213,3.847,30.1,0,0.759,0,0,0,0, ,0,0,0,0,0, ,-39.1,155.7,987.7,-0.7,-0.4,-1.8,25,-38.7565,155.849,988.037,-0.534028,-0.420053,-1.80071,
2026_07_06_15_39_18.232,3.847,30.2,0,0.76,0,0,0,0, ,0,0,0,0,0, ,-38.9,156.7,986.4,-0.5,-0.4,-1.8,25,-38.7714,155.87,987.977,-0.538048,-0.418831,-1.80067,
2026_07_06_15_39_18.253,3.847,30.2,0,0.759,0,0,0,0, ,0,0,0,0,0, ,-38.5,155.3,987.3,-0.5,-0.4,-1.8,25,-38.767,155.878,987.909,-0.535729,-0.417683,-1.80063,
2026_07_06_15_39_18.275,3.847,30.1,0,0.758,0,0,0,0, ,0,0,0,0,0, ,-38.3,156.7,989.1,-0.5,-0.4,-1.8,25,-38.7447,155.885,987.926,-0.533552,-0.416606,-1.80059,
2026_07_06_15_39_18.291,3.847,30.1,0,0.76,0,0,0,0, ,0,0,0,0,0, ,-38.5,155.5,987.6,-0.6,-0.4,-1.8,25,-38.7236,155.898,987.952,-0.534554,-0.415594,-1.80055,
2026_07_06_15_39_18.312,3.847,30.2,0,0.76,0,0,0,0, ,0,0,0,0,0, ,-38.5,156.6,987,-0.5,-0.4,-1.8,25,-38.71,155.908,987.912,-0.535496,-0.414644,-1.80052,
2026_07_06_15_39_18.332,3.847,30.2,0,0.758,0,0,0,0, ,0,0,0,0,0, ,-38.4,156.3,988.7,-0.5,-0.5,-1.8,25,-38.6942,155.941,987.909,-0.533333,-0.416798,-1.80049,
2026_07_06_15_39_18.352,3.847,30.2,0,0.759,0,0,0,0, ,0,0,0,0,0, ,-37.4,156.2,988.8,-0.6,-0.4,-1.8,25,-38.6458,155.96,987.96,-0.534348,-0.418821,-1.80046,
2026_07_06_15_39_18.371,3.847,30.2,0,0.759,0,0,0,0, ,0,0,0,0,0, ,-39.7,155.6,987.3,-0.5,-0.4,-1.8,25,-38.6399,155.956,987.965,-0.535302,-0.417675,-1.80043,
2026_07_06_15_39_18.391,3.847,30.1,0,0.759,0,0,0,0, ,0,0,0,0,0, ,-39.4,156.1,988.4,-0.5,-0.4,-1.8,25,-38.6954,155.949,987.958,-0.533151,-0.416597,-1.8004,
2026_07_06_15_39_18.411,3.847,30.1,0,0.759,0,0,0,0, ,0,0,0,0,0, ,-38.2,157.3,987.9,-0.7,-0.4,-1.8,25,-38.7018,155.995,987.97,-0.537224,-0.415586,-1.80038,
2026_07_06_15_39_18.431,3.847,30.2,0,0.76,0,0,0,0, ,0,0,0,0,0, ,-39.3,155.5,988.6,-0.6,-0.4,-1.7,25,-38.7047,156.02,987.987,-0.544097,-0.414636,-1.79731,
2026_07_06_15_39_18.451,3.847,30.2,0,0.759,0,0,0,0, ,0,0,0,0,0, ,-39.4,156,989,-0.5,-0.4,-1.8,25,-38.744,156.003,988.037,-0.544456,-0.413744,-1.79443,
2026_07_06_15_39_18.471,3.847,30.2,0,0.758,0,0,0,0, ,0,0,0,0,0, ,-39.6,156.4,989,-0.5,-0.4,-1.8,25,-38.7901,156.015,988.095,-0.541747,-0.412907,-1.79477,
2026_07_06_15_39_18.490,3.847,30.2,0,0.758,0,0,0,0, ,0,0,0,0,0, ,-38.8,156.2,987.5,-0.5,-0.4,-1.8,25,-38.8151,156.033,988.105,-0.539203,-0.41212,-1.79508,
2026_07_06_15_39_18.510,3.847,30.2,0,0.759,0,0,0,0, ,0,0,0,0,0, ,-38.3,156.7,987.3,-0.5,-0.4,-1.9,25,-38.7989,156.058,988.062,-0.536814,-0.411382,-1.79843,
2026_07_06_15_39_18.529,3.847,30.1,0,0.759,0,0,0,0, ,0,0,0,0,0, ,-38.9,156.3,988.1,-0.5,-0.4,-1.8,25,-38.7868,156.085,988.04,-0.534571,-0.410688,-1.80157,
2026_07_06_15_39_18.550,3.847,30.1,0,0.759,0,0,0,0, ,0,0,0,0,0, ,-38.3,155,989.2,-0.5,-0.5,-1.8,25,-38.7754,156.059,988.077,-0.532464,-0.413084,-1.80148,
2026_07_06_15_39_18.573,3.847,30.1,0,0.76,0,0,0,0, ,0,0,0,0,0, ,-38.6,156,989.3,-0.5,-0.4,-1.8,25,-38.7556,156.025,988.148,-0.530486,-0.415333,-1.80139,
2026_07_06_15_39_18.589,3.847,30.2,0,0.759,0,0,0,0, ,0,0,0,0,0, ,-37.7,157.1,987.5,-0.6,-0.4,-1.8,25,-38.7187,156.057,988.164,-0.531675,-0.414399,-1.8013,
2026_07_06_15_39_18.609,3.847,30.2,0,0.759,0,0,0,0, ,0,0,0,0,0, ,-38,155.1,988.5,-0.5,-0.4,-1.8,25,-38.6658,156.059,988.154,-0.532792,-0.413522,-1.80122,
2026_07_06_15_39_18.628,3.847,30.1,0,0.76,0,0,0,0, ,0,0,0,0,0, ,-38,156.6,987.6,-0.6,-0.4,-1.8,25,-38.6252,156.046,988.147,-0.533841,-0.412698,-1.80115,
2026_07_06_15_39_18.648,3.847,30.2,0,0.76,0,0,0,0, ,0,0,0,0,0, ,-39.3,156.8,988.4,-0.6,-0.5,-1.8,25,-38.6267,156.086,988.138,-0.537872,-0.414971,-1.80108,
2026_07_06_15_39_18.668,3.847,30.1,0,0.758,0,0,0,0, ,0,0,0,0,0, ,-38,154.7,988,-0.6,-0.5,-1.8,25,-38.6281,156.066,988.142,-0.541658,-0.420152,-1.80101,
2026_07_06_15_39_18.688,3.847,30.1,0,0.758,0,0,0,0, ,0,0,0,0,0, ,-38.9,155.7,988.6,-0.5,-0.4,-1.8,25,-38.6173,156.013,988.152,-0.542166,-0.421971,-1.80095,
2026_07_06_15_39_18.708,3.847,30.2,0,0.76,0,0,0,0, ,0,0,0,0,0, ,-36.7,155.5,988.8,-0.5,-0.4,-1.8,25,-38.5675,155.988,988.185,-0.539597,-0.420632,-1.80089,
2026_07_06_15_39_18.728,3.847,30.1,0,0.758,0,0,0,0, ,0,0,0,0,0, ,-38,156.8,987.6,-0.5,-0.4,-1.8,25,-38.4933,155.998,988.186,-0.537184,-0.419375,-1.80084,
2026_07_06_15_39_18.747,3.847,30.2,0,0.759,0,0,0,0, ,0,0,0,0,0, ,-39,156.4,988.5,-0.5,-0.5,-1.7,25,-38.4937,156.034,988.178,-0.534918,-0.421241,-1.79774,
2026_07_06_15_39_18.767,3.847,30.2,0,0.759,0,0,0,0, ,0,0,0,0,0, ,-38,156.2,988,-0.5,-0.4,-1.8,25,-38.4941,156.051,988.182,-0.53279,-0.422994,-1.79483,
2026_07_06_15_39_18.787,3.847,30.2,0,0.759,0,0,0,0, ,0,0,0,0,0, ,-38.4,156.6,988.2,-0.5,-0.4,-1.8,25,-38.4761,156.072,988.177,-0.530792,-0.421592,-1.79515,
2026_07_06_15_39_18.806,3.847,30.2,0,0.759,0,0,0,0, ,0,0,0,0,0, ,-38.9,157.3,988.2,-0.5,-0.4,-1.7,25,-38.4867,156.125,988.179,-0.528916,-0.420277,-1.7924,
2026_07_06_15_39_18.827,3.847,30.1,0,0.759,0,0,0,0, ,0,0,0,0,0, ,-38.3,156.7,989.6,-0.5,-0.4,-1.8,25,-38.4936,156.179,988.223,-0.527154,-0.419041,-1.78981,
2026_07_06_15_39_18.846,3.847,30.2,0,0.759,0,0,0,0, ,0,0,0,0,0, ,-38.2,155.6,988.2,-0.5,-0.4,-1.8,25,-38.4788,156.177,988.264,-0.525499,-0.417881,-1.79043,
2026_07_06_15_39_18.869,3.847,30.3,0,0.759,0,0,0,0, ,0,0,0,0,0, ,-38.4,156.8,987.9,-0.5,-0.4,-1.8,25,-38.4679,156.178,988.251,-0.523945,-0.416791,-1.79102,
2026_07_06_15_39_18.886,3.847,30.1,0,0.759,0,0,0,0, ,0,0,0,0,0, ,-38.5,156.8,989,-0.6,-0.4,-1.8,25,-38.4668,156.216,988.263,-0.525533,-0.415768,-1.79156,
2026_07_06_15_39_18.906,3.847,30.2,0,0.76,0,0,0,0, ,0,0,0,0,0, ,-38.2,156.2,989.3,-0.5,-0.4,-1.8,25,-38.4597,156.234,988.317,-0.527024,-0.414807,-1.79208,
2026_07_06_15_39_18.925,3.847,30.2,0,0.759,0,0,0,0, ,0,0,0,0,0, ,-37.5,156.1,988.4,-0.5,-0.4,-1.8,25,-38.4225,156.228,988.349,-0.525377,-0.413905,-1.79256,
2026_07_06_15_39_18.946,3.847,30.2,0,0.759,0,0,0,0, ,0,0,0,0,0, ,-38.6,155.8,989.1,-0.5,-0.5,-1.7,25,-38.3998,156.211,988.374,-0.523831,-0.416104,-1.78997,
2026_07_06_15_39_18.965,3.847,30.2,0,0.758,0,0,0,0, ,0,0,0,0,0, ,-37.3,156.2,987.6,-0.6,-0.4,-1.8,25,-38.3724,156.199,988.372,-0.525425,-0.41817,-1.78753,
2026_07_06_15_39_18.985,3.847,30.2,0,0.758,0,0,0,0, ,0,0,0,0,0, ,-38.6,157.7,988.5,-0.5,-0.4,-1.7,25,-38.3467,156.244,988.353,-0.526923,-0.417063,-1.78524,
2026_07_06_15_39_19.012,3.847,30.1,0,0.759,0,0,0,0, ,0,0,0,0,0, ,-38.8,156.1,987.9,-0.5,-0.4,-1.9,25,-38.3682,156.284,988.343,-0.525282,-0.416023,-1.78614,
2026_07_06_15_39_19.025,3.847,30.2,0,0.759,0,0,0,0, ,0,0,0,0,0, ,-39.3,156,988.4,-0.5,-0.4,-1.8,25,-38.4098,156.27,988.332,-0.523742,-0.415046,-1.79003,
2026_07_06_15_39_19.044,3.847,30.1,0,0.758,0,0,0,0, ,0,0,0,0,0, ,-37.9,156,989.3,-0.5,-0.4,-1.8,25,-38.4214,156.254,988.363,-0.522295,-0.41413,-1.79064,
2026_07_06_15_39_19.064,3.847,30.2,0,0.759,0,0,0,0, ,0,0,0,0,0, ,-39.3,154.5,987.4,-0.6,-0.5,-1.7,25,-38.4322,156.192,988.362,-0.523983,-0.416315,-1.78817,
2026_07_06_15_39_19.084,3.847,30.2,0,0.76,0,0,0,0, ,0,0,0,0,0, ,-38,155.7,988.7,-0.6,-0.4,-1.8,25,-38.4455,156.126,988.343,-0.528615,-0.418368,-1.78584,
2026_07_06_15_39_19.104,3.847,30.2,0,0.758,0,0,0,0, ,0,0,0,0,0, ,-38.6,155.7,988.8,-0.6,-0.5,-1.8,25,-38.4366,156.1,988.368,-0.532965,-0.420296,-1.7867,
2026_07_06_15_39_19.124,3.847,30.2,0,0.759,0,0,0,0, ,0,0,0,0,0, ,-38.2,155.8,987.4,-0.6,-0.4,-1.8,25,-38.4344,156.079,988.352,-0.53705,-0.422106,-1.78751,
2026_07_06_15_39_19.144,3.847,30.3,0,0.761,0,0,0,0, ,0,0,0,0,0, ,-39.1,156.6,987.9,-0.6,-0.5,-1.8,25,-38.4475,156.086,988.309,-0.540886,-0.423806,-1.78827,
2026_07_06_15_39_19.168,3.847,30.2,0,0.758,0,0,0,0, ,0,0,0,0,0, ,-38.3,156.3,988.7,-0.6,-0.4,-1.8,25,-38.4629,156.108,988.309,-0.544489,-0.425402,-1.78899,
2026_07_06_15_39_19.184,3.847,30.2,0,0.759,0,0,0,0, ,0,0,0,0,0, ,-39.4,156.7,987.9,-0.6,-0.4,-1.8,25,-38.4865,156.132,988.308,-0.547871,-0.423854,-1.78966,
2026_07_06_15_39_19.203,3.847,30.2,0,0.76,0,0,0,0, ,0,0,0,0,0, ,-39.6,155.8,987.7,-0.5,-0.4,-1.8,25,-38.5483,156.139,988.277,-0.548001,-0.4224,-1.79029,
2026_07_06_15_39_19.223,3.847,30.2,0,0.759,0,0,0,0, ,0,0,0,0,0, ,-39.5,157.4,988,-0.5,-0.5,-1.8,25,-38.6093,156.167,988.251,-0.545076,-0.424082,-1.79088,
2026_07_06_15_39_19.243,3.847,30.1,0,0.759,0,0,0,0, ,0,0,0,0,0, ,-37.5,156.4,988,-0.6,-0.4,-1.8,25,-38.6027,156.212,988.236,-0.545376,-0.425661,-1.79144,
2026_07_06_15_39_19.262,3.847,30.2,0,0.758,0,0,0,0, ,0,0,0,0,0, ,-37.5,156.3,986.9,-0.6,-0.5,-1.8,25,-38.5355,156.22,988.188,-0.548705,-0.427145,-1.79196,
2026_07_06_15_39_19.282,3.847,30.2,0,0.758,0,0,0,0, ,0,0,0,0,0, ,-38,156.3,987.5,-0.5,-0.4,-1.8,25,-38.4876,156.225,988.128,-0.548784,-0.428537,-1.79245,
2026_07_06_15_39_19.303,3.847,30.2,0,0.759,0,0,0,0, ,0,0,0,0,0, ,-38.9,155.7,988,-0.5,-0.4,-1.8,25,-38.4853,156.212,988.105,-0.545811,-0.426798,-1.79291,
2026_07_06_15_39_19.322,3.847,30.2,0,0.758,0,0,0,0, ,0,0,0,0,0, ,-38,156.9,988.2,-0.5,-0.4,-1.8,25,-38.4832,156.217,988.104,-0.543019,-0.425165,-1.79334,
2026_07_06_15_39_19.342,3.847,30.2,0,0.757,0,0,0,0, ,0,0,0,0,0, ,-37.3,156,988,-0.5,-0.4,-1.8,25,-38.4324,156.231,988.104,-0.540398,-0.423632,-1.79375,
2026_07_06_15_39_19.361,3.847,30.2,0,0.758,0,0,0,0, ,0,0,0,0,0, ,-37.4,154.9,989.5,-0.5,-0.4,-1.8,25,-38.3664,156.184,988.143,-0.537936,-0.422192,-1.79413,
2026_07_06_15_39_19.381,3.847,30.2,0,0.759,0,0,0,0, ,0,0,0,0,0, ,-39.1,155.3,988.6,-0.6,-0.5,-1.8,25,-38.3593,156.117,988.199,-0.538671,-0.423886,-1.79449,
2026_07_06_15_39_19.401,3.847,30.1,0,0.759,0,0,0,0, ,0,0,0,0,0, ,-40.1,155.7,988.7,-0.5,-0.4,-1.8,25,-38.4349,156.08,988.226,-0.539362,-0.425478,-1.79482,
2026_07_06_15_39_19.421,3.847,30,0,0.759,0,0,0,0, ,0,0,0,0,0, ,-38.5,155.5,986.2,-0.5,-0.4,-1.7,25,-38.4877,156.051,988.179,-0.536963,-0.423925,-1.79209,
2026_07_06_15_39_19.441,3.847,30.2,0,0.759,0,0,0,0, ,0,0,0,0,0, ,-37.9,156.7,988.2,-0.5,-0.4,-1.8,25,-38.4701,156.054,988.119,-0.534711,-0.422467,-1.78953,
2026_07_06_15_39_19.463,3.847,30.2,0,0.758,0,0,0,0, ,0,0,0,0,0, ,-38.3,156.9,987.5,-0.6,-0.5,-1.8,25,-38.4476,156.099,988.103,-0.535642,-0.424145,-1.79016,
2026_07_06_15_39_19.480,3.847,30.2,0,0.76,0,0,0,0, ,0,0,0,0,0, ,-38.4,155.7,988.7,-0.6,-0.5,-1.9,25,-38.4416,156.111,988.103,-0.539564,-0.428767,-1.79381,
2026_07_06_15_39_19.500,3.847,30,0,0.759,0,0,0,0, ,0,0,0,0,0, ,-39.4,155.2,987.6,-0.5,-0.5,-1.8,25,-38.4696,156.071,988.106,-0.5402,-0.433108,-1.79723,
2026_07_06_15_39_19.519,3.847,30.1,0,0.76,0,0,0,0, ,0,0,0,0,0, ,-39.4,155.8,989.7,-0.6,-0.4,-1.8,25,-38.5263,156.036,988.139,-0.540797,-0.434137,-1.7974,
2026_07_06_15_39_19.540,3.847,30.2,0,0.759,0,0,0,0, ,0,0,0,0,0, ,-38.3,157.4,987.5,-0.6,-0.4,-1.8,25,-38.546,156.071,988.167,-0.544405,-0.432057,-1.79756,
2026_07_06_15_39_19.559,3.847,30.2,0,0.76,0,0,0,0, ,0,0,0,0,0, ,-38.3,156.6,988.1,-0.5,-0.4,-1.8,25,-38.531,156.127,988.144,-0.544746,-0.430104,-1.79771,
2026_07_06_15_39_19.579,3.847,30.2,0,0.759,0,0,0,0, ,0,0,0,0,0, ,-38.6,156,988.6,-0.5,-0.4,-1.8,25,-38.5261,156.138,988.157,-0.542019,-0.428269,-1.79785,
2026_07_06_15_39_19.605,3.847,30,0,0.759,0,0,0,0, ,0,0,0,0,0, ,-39.1,157.2,988,-0.5,-0.4,-1.8,25,-38.5458,156.166,988.166,-0.539459,-0.426547,-1.79798,
2026_07_06_15_39_19.619,3.847,30,0,0.759,0,0,0,0, ,0,0,0,0,0, ,-38.4,156,987.9,-0.5,-0.4,-1.8,25,-38.5582,156.192,988.153,-0.537054,-0.424929,-1.7981,
2026_07_06_15_39_19.638,3.847,30.1,0,0.759,0,0,0,0, ,0,0,0,0,0, ,-38.6,155.6,988.7,-0.5,-0.4,-1.8,25,-38.5547,156.168,988.162,-0.534796,-0.42341,-1.79822,
2026_07_06_15_39_19.659,3.847,30.1,0,0.76,0,0,0,0, ,0,0,0,0,0, ,-37.9,154.9,988.5,-0.5,-0.4,-1.8,25,-38.5361,156.113,988.188,-0.532676,-0.421983,-1.79833,
2026_07_06_15_39_19.678,3.847,30.2,0,0.759,0,0,0,0, ,0,0,0,0,0, ,-37.9,156.4,989.9,-0.5,-0.4,-1.7,25,-38.4974,156.084,988.25,-0.530685,-0.420644,-1.79538,
2026_07_06_15_39_19.698,3.847,30,0,0.759,0,0,0,0, ,0,0,0,0,0, ,-39.1,155.3,989.7,-0.5,-0.5,-1.8,25,-38.4975,156.07,988.344,-0.528815,-0.422433,-1.79262,
2026_07_06_15_39_19.718,3.847,30,0,0.759,0,0,0,0, ,0,0,0,0,0, ,-38.5,155.3,989.7,-0.5,-0.4,-1.8,25,-38.516,156.023,988.427,-0.527059,-0.424112,-1.79307,
2026_07_06_15_39_19.738,3.847,30,0,0.759,0,0,0,0, ,0,0,0,0,0, ,-39.4,157.7,988,-0.6,-0.5,-1.8,25,-38.5424,156.052,988.453,-0.528457,-0.42569,-1.79349,
2026_07_06_15_39_19.758,3.847,30.1,0,0.759,0,0,0,0, ,0,0,0,0,0, ,-38.4,157.3,987.5,-0.5,-0.4,-1.8,25,-38.5642,156.14,988.41,-0.52977,-0.427171,-1.79389,
2026_07_06_15_39_19.777,3.847,30.2,0,0.758,0,0,0,0, ,0,0,0,0,0, ,-38,156.9,988.6,-0.5,-0.4,-1.8,25,-38.542,156.199,988.388,-0.527955,-0.425516,-1.79426,
2026_07_06_15_39_19.797,3.847,30.1,0,0.757,0,0,0,0, ,0,0,0,0,0, ,-39,156,987.7,-0.5,-0.4,-1.8,25,-38.5394,156.214,988.374,-0.526252,-0.423961,-1.79461,
2026_07_06_15_39_19.817,3.847,30.1,0,0.758,0,0,0,0, ,0,0,0,0,0, ,-38.8,156.1,988.8,-0.5,-0.4,-1.8,25,-38.5614,156.204,988.366,-0.524652,-0.422501,-1.79494,
2026_07_06_15_39_19.837,3.847,30.1,0,0.759,0,0,0,0, ,0,0,0,0,0, ,-38.8,156,988.5,-0.5,-0.3,-1.8,25,-38.576,156.195,988.383,-0.52315,-0.418083,-1.79525,
2026_07_06_15_39_19.857,3.847,30,0,0.759,0,0,0,0, ,0,0,0,0,0, ,-38.9,156,987.5,-0.5,-0.4,-1.8,25,-38.5927,156.183,988.36,-0.521739,-0.413934,-1.79554,
2026_07_06_15_39_19.875,3.847,30,0,0.759,0,0,0,0, ,0,0,0,0,0, ,-38.2,156.3,988.2,-0.5,-0.5,-1.8,25,-38.5901,156.181,988.329,-0.520415,-0.416132,-1.79581,
2026_07_06_15_39_19.896,3.847,30.1,0,0.759,0,0,0,0, ,0,0,0,0,0, ,-38.4,155,989.3,-0.5,-0.4,-1.8,25,-38.5724,156.149,988.355,-0.519171,-0.418195,-1.79606,
2026_07_06_15_39_19.916,3.847,30,0,0.759,0,0,0,0, ,0,0,0,0,0, ,-38,155.3,988.2,-0.6,-0.4,-1.7,25,-38.5497,156.088,988.379,-0.521049,-0.417087,-1.79326,
2026_07_06_15_39_19.935,3.847,30.1,0,0.759,0,0,0,0, ,0,0,0,0,0, ,-38.4,156.1,988.2,-0.6,-0.5,-1.8,25,-38.5284,156.064,988.368,-0.52586,-0.419092,-1.79062,
2026_07_06_15_39_19.956,3.847,30.1,0,0.758,0,0,0,0, ,0,0,0,0,0, ,-37.9,155.6,988.7,-0.7,-0.4,-1.8,25,-38.5053,156.051,988.373,-0.533425,-0.420976,-1.79119,
2026_07_06_15_39_19.975,3.847,30.1,0,0.759,0,0,0,0, ,0,0,0,0,0, ,-38.9,156.7,988.2,-0.5,-0.5,-1.8,25,-38.4989,156.057,988.377,-0.537482,-0.422744,-1.79173,
2026_07_06_15_39_19.995,3.847,30.1,0,0.759,0,0,0,0, ,0,0,0,0,0, ,-37.4,156.4,988.1,-0.6,-0.5,-1.9,25,-38.4776,156.087,988.364,-0.538245,-0.427452,-1.79528,
2026_07_06_15_39_20.015,3.847,30.1,0,0.761,0,0,0,0, ,0,0,0,0,0, ,-38.5,156.2,988.4,-0.6,-0.4,-1.9,25,-38.4455,156.1,988.357,-0.542008,-0.428826,-1.80166,
2026_07_06_15_39_20.035,3.847,30.1,0,0.758,0,0,0,0, ,0,0,0,0,0, ,-39.5,155.6,988.2,-0.6,-0.4,-1.8,25,-38.4793,156.088,988.353,-0.545542,-0.42707,-1.80461,
2026_07_06_15_39_20.060,3.847,30.1,0,0.758,0,0,0,0, ,0,0,0,0,0, ,-37.3,156.1,988.8,-0.6,-0.4,-1.7,25,-38.4744,156.073,988.362,-0.54886,-0.42542,-1.80128,
2026_07_06_15_39_20.075,3.847,30.1,0,0.759,0,0,0,0, ,0,0,0,0,0, ,-38.4,156.1,988.5,-0.5,-0.5,-1.8,25,-38.4364,156.075,988.38,-0.54893,-0.426918,-1.79815,
2026_07_06_15_39_20.095,3.847,30,0,0.759,0,0,0,0, ,0,0,0,0,0, ,-39,156.2,989,-0.5,-0.4,-1.8,25,-38.4525,156.08,988.402,-0.545948,-0.428324,-1.79827,
2026_07_06_15_39_20.114,3.847,30.1,0,0.758,0,0,0,0, ,0,0,0,0,0, ,-39.5,157.2,989,-0.5,-0.4,-1.8,25,-38.5011,156.117,988.439,-0.543148,-0.426598,-1.79837,
2026_07_06_15_39_20.134,3.847,30.1,0,0.758,0,0,0,0, ,0,0,0,0,0, ,-38.6,155.6,988.7,-0.5,-0.4,-1.9,25,-38.5345,156.135,988.464,-0.540519,-0.424978,-1.80152,
2026_07_06_15_39_20.153,3.847,30.1,0,0.759,0,0,0,0, ,0,0,0,0,0, ,-39,156.8,988.4,-0.5,-0.4,-1.8,25,-38.5507,156.139,988.469,-0.53805,-0.423456,-1.80447,
2026_07_06_15_39_20.173,3.847,30,0,0.758,0,0,0,0, ,0,0,0,0,0, ,-38,155.1,988,-0.5,-0.4,-1.8,25,-38.5476,156.127,988.453,-0.535731,-0.422026,-1.8042,
2026_07_06_15_39_20.193,3.847,30.1,0,0.759,0,0,0,0, ,0,0,0,0,0, ,-38.3,155.5,989.5,-0.5,-0.4,-1.7,25,-38.5234,156.077,988.471,-0.533554,-0.420684,-1.8009,
2026_07_06_15_39_20.213,3.847,30.1,0,0.759,0,0,0,0, ,0,0,0,0,0, ,-38.5,156.2,989.3,-0.5,-0.4,-1.8,25,-38.5159,156.063,988.527,-0.531509,-0.419424,-1.7978,
2026_07_06_15_39_20.234,3.847,30.1,0,0.761,0,0,0,0, ,0,0,0,0,0, ,-37.8,155.5,989.3,-0.6,-0.5,-1.9,25,-38.4936,156.05,988.574,-0.532636,-0.421287,-1.80098,
2026_07_06_15_39_20.257,3.847,30.1,0,0.759,0,0,0,0, ,0,0,0,0,0, ,-39.4,155.3,989,-0.6,-0.4,-1.7,25,-38.5,156.01,988.61,-0.536741,-0.423037,-1.80092,
2026_07_06_15_39_20.273,3.847,30.1,0,0.759,0,0,0,0, ,0,0,0,0,0, ,-38.6,155.3,988.8,-0.6,-0.4,-1.8,25,-38.5305,155.967,988.627,-0.540596,-0.421633,-1.79781,
2026_07_06_15_39_20.293,3.847,30.1,0,0.761,0,0,0,0, ,0,0,0,0,0, ,-38.5,155.8,987.1,-0.5,-0.4,-1.7,25,-38.5317,155.942,988.586,-0.541169,-0.420314,-1.7949,
2026_07_06_15_39_20.312,3.847,30.1,0,0.759,0,0,0,0, ,0,0,0,0,0, ,-37.8,155.5,988.5,-0.6,-0.5,-1.8,25,-38.5084,155.924,988.538,-0.541707,-0.422123,-1.79216,
2026_07_06_15_39_20.332,3.847,29.9,0,0.759,0,0,0,0, ,0,0,0,0,0, ,-39.4,155.7,989.3,-0.5,-0.4,-1.8,25,-38.514,155.904,988.56,-0.542212,-0.423822,-1.79264,
2026_07_06_15_39_20.352,3.847,30.1,0,0.758,0,0,0,0, ,0,0,0,0,0, ,-38.8,156.8,987.4,-0.5,-0.4,-1.7,25,-38.5497,155.925,988.547,-0.53964,-0.422371,-1.79004,
2026_07_06_15_39_20.371,3.847,30.1,0,0.758,0,0,0,0, ,0,0,0,0,0, ,-38.5,156.4,987.4,-0.6,-0.4,-1.8,25,-38.5558,155.966,988.477,-0.540271,-0.421007,-1.7876,
2026_07_06_15_39_20.391,3.847,30.1,0,0.759,0,0,0,0, ,0,0,0,0,0, ,-37.8,157.4,987.5,-0.6,-0.5,-1.8,25,-38.5311,156.023,988.415,-0.543911,-0.422774,-1.78836,
2026_07_06_15_39_20.411,3.847,30,0,0.758,0,0,0,0, ,0,0,0,0,0, ,-38.4,156,987.9,-0.5,-0.4,-1.7,25,-38.5048,156.064,988.371,-0.544282,-0.424433,-1.78602,
2026_07_06_15_39_20.431,3.847,30.1,0,0.758,0,0,0,0, ,0,0,0,0,0, ,-39.3,155.8,987.9,-0.6,-0.5,-1.8,25,-38.5259,156.054,988.343,-0.54463,-0.425991,-1.78383,
2026_07_06_15_39_20.451,3.847,30.1,0,0.76,0,0,0,0, ,0,0,0,0,0, ,-39,154.9,989.7,-0.5,-0.4,-1.8,25,-38.5639,156.011,988.37,-0.544958,-0.427454,-1.78481,
2026_07_06_15_39_20.471,3.847,30.1,0,0.759,0,0,0,0, ,0,0,0,0,0, ,-38.4,154.9,989,-0.6,-0.4,-1.8,25,-38.5722,155.944,988.43,-0.545265,-0.425781,-1.78574,
2026_07_06_15_39_20.491,3.847,30.1,0,0.759,0,0,0,0, ,0,0,0,0,0, ,-39.5,156.9,988.6,-0.5,-0.4,-1.7,25,-38.5952,155.941,988.453,-0.545554,-0.42421,-1.78356,
2026_07_06_15_39_20.510,3.847,30,0,0.761,0,0,0,0, ,0,0,0,0,0, ,-38.5,156.8,988.5,-0.6,-0.4,-1.8,25,-38.6199,155.996,988.459,-0.545824,-0.422735,-1.78151,
2026_07_06_15_39_20.530,3.847,29.9,0,0.759,0,0,0,0, ,0,0,0,0,0, ,-38.9,156,987.5,-0.7,-0.4,-1.8,25,-38.6248,156.021,988.431,-0.552173,-0.421349,-1.78264,
2026_07_06_15_39_20.558,3.847,30,0,0.758,0,0,0,0, ,0,0,0,0,0, ,-37.3,156.9,987.9,-0.6,-0.4,-1.9,25,-38.5928,156.047,988.386,-0.558134,-0.420048,-1.78675,
2026_07_06_15_39_20.570,3.847,30,0,0.759,0,0,0,0, ,0,0,0,0,0, ,-38.9,155.6,988.2,-0.5,-0.4,-1.8,25,-38.5628,156.06,988.366,-0.557638,-0.418827,-1.7906,
2026_07_06_15_39_20.590,3.847,30,0,0.759,0,0,0,0, ,0,0,0,0,0, ,-38.6,156,988,-0.5,-0.4,-1.7,25,-38.5742,156.044,988.349,-0.554126,-0.417679,-1.78813,
2026_07_06_15_39_20.610,3.847,30,0,0.759,0,0,0,0, ,0,0,0,0,0, ,-38.4,155,988,-0.5,-0.4,-1.8,25,-38.5696,156.011,988.328,-0.550828,-0.416602,-1.7858,
2026_07_06_15_39_20.629,3.847,30.1,0,0.759,0,0,0,0, ,0,0,0,0,0, ,-38.3,155.6,988.2,-0.5,-0.4,-1.8,25,-38.5563,155.967,988.314,-0.54773,-0.41559,-1.78667,
2026_07_06_15_39_20.649,3.847,30.1,0,0.759,0,0,0,0, ,0,0,0,0,0, ,-38.6,155.3,987.9,-0.5,-0.5,-1.8,25,-38.5498,155.936,988.298,-0.544822,-0.417687,-1.78748,
2026_07_06_15_39_20.669,3.847,30.1,0,0.758,0,0,0,0, ,0,0,0,0,0, ,-38,155.5,987.9,-0.5,-0.5,-1.9,25,-38.5346,155.903,988.274,-0.54209,-0.422703,-1.79129,
2026_07_06_15_39_20.688,3.847,30.1,0,0.758,0,0,0,0, ,0,0,0,0,0, ,-37.2,156.8,988.2,-0.6,-0.5,-1.8,25,-38.4776,155.918,988.26,-0.542572,-0.427413,-1.79487,
2026_07_06_15_39_20.710,3.847,29.9,0,0.759,0,0,0,0, ,0,0,0,0,0, ,-38,154.6,988.4,-0.5,-0.4,-1.8,25,-38.4241,155.905,988.263,-0.543025,-0.42879,-1.79518,
2026_07_06_15_39_20.729,3.847,30.1,0,0.759,0,0,0,0, ,0,0,0,0,0, ,-38.5,155.8,987.3,-0.5,-0.5,-1.9,25,-38.4135,155.862,988.238,-0.540403,-0.430082,-1.79852,
2026_07_06_15_39_20.748,3.847,30.1,0,0.759,0,0,0,0, ,0,0,0,0,0, ,-38.9,155.6,989.2,-0.5,-0.4,-1.8,25,-38.431,155.852,988.238,-0.537941,-0.431296,-1.80166,
2026_07_06_15_39_20.767,3.847,30,0,0.759,0,0,0,0, ,0,0,0,0,0, ,-39,155.6,987.6,-0.5,-0.4,-1.7,25,-38.4626,155.837,988.248,-0.535629,-0.429389,-1.79851,
2026_07_06_15_39_20.788,3.847,30,0,0.758,0,0,0,0, ,0,0,0,0,0, ,-39.1,155.5,988,-0.6,-0.4,-1.8,25,-38.4984,155.819,988.221,-0.536505,-0.427598,-1.79555,
2026_07_06_15_39_20.807,3.847,30,0,0.759,0,0,0,0, ,0,0,0,0,0, ,-37.8,155.2,988.1,-0.5,-0.4,-1.8,25,-38.4955,155.791,988.21,-0.537327,-0.425916,-1.79583,
2026_07_06_15_39_20.827,3.847,30,0,0.759,0,0,0,0, ,0,0,0,0,0, ,-38,155.7,989.1,-0.6,-0.5,-1.7,25,-38.4592,155.77,988.234,-0.538099,-0.427384,-1.79303,
2026_07_06_15_39_20.847,3.847,30.1,0,0.758,0,0,0,0, ,0,0,0,0,0, ,-38.5,155.8,987.6,-0.6,-0.4,-1.8,25,-38.4464,155.769,988.241,-0.541872,-0.428762,-1.79041,
2026_07_06_15_39_20.867,3.847,30,0,0.758,0,0,0,0, ,0,0,0,0,0, ,-38.4,156.7,988.1,-0.6,-0.4,-1.9,25,-38.4466,155.798,988.217,-0.545414,-0.427009,-1.79404,
2026_07_06_15_39_20.886,3.847,30,0,0.759,0,0,0,0, ,0,0,0,0,0, ,-38.6,155.3,986.9,-0.5,-0.5,-1.8,25,-38.4499,155.81,988.174,-0.545693,-0.42841,-1.79745,
2026_07_06_15_39_20.907,3.847,30,0,0.759,0,0,0,0, ,0,0,0,0,0, ,-38.3,156.1,987.3,-0.5,-0.5,-1.8,25,-38.4499,155.804,988.108,-0.542909,-0.432773,-1.79761,
2026_07_06_15_39_20.926,3.847,30,0,0.759,0,0,0,0, ,0,0,0,0,0, ,-38.8,156.7,987.7,-0.6,-0.4,-1.9,25,-38.456,155.84,988.071,-0.543341,-0.433823,-1.8008,
2026_07_06_15_39_20.946,3.847,30,0,0.758,0,0,0,0, ,0,0,0,0,0, ,-39.7,155.2,988,-0.5,-0.4,-1.8,25,-38.5044,155.847,988.058,-0.543747,-0.431762,-1.8038,
2026_07_06_15_39_20.966,3.847,30,0,0.759,0,0,0,0, ,0,0,0,0,0, ,-38.9,156.4,987.9,-0.5,-0.4,-1.8,25,-38.5529,155.844,988.051,-0.541081,-0.429826,-1.80357,
2026_07_06_15_39_20.986,3.847,30,0,0.76,0,0,0,0, ,0,0,0,0,0, ,-37.8,156.2,986.4,-0.5,-0.4,-1.7,25,-38.5405,155.872,987.996,-0.538578,-0.428009,-1.8003,
2026_07_06_15_39_21.006,3.847,30,0,0.758,0,0,0,0, ,0,0,0,0,0, ,-39.7,156.6,989.8,-0.5,-0.4,-1.8,25,-38.5533,155.904,988.003,-0.536227,-0.426302,-1.79724,
2026_07_06_15_39_21.025,3.847,30,0,0.759,0,0,0,0, ,0,0,0,0,0, ,-38.8,156.9,988.1,-0.4,-0.4,-1.8,25,-38.5957,155.955,988.06,-0.530972,-0.424699,-1.79741,
2026_07_06_15_39_21.045,3.847,30,0,0.76,0,0,0,0, ,0,0,0,0,0, ,-38.4,155.2,988.5,-0.5,-0.4,-1.8,25,-38.596,155.961,988.075,-0.526038,-0.423194,-1.79756,
2026_07_06_15_39_21.064,3.847,29.9,0,0.758,0,0,0,0, ,0,0,0,0,0, ,-38,155.1,987.9,-0.6,-0.4,-1.8,25,-38.5719,155.912,988.083,-0.527498,-0.421781,-1.79771,
2026_07_06_15_39_21.084,3.847,29.9,0,0.758,0,0,0,0, ,0,0,0,0,0, ,-39.6,154.6,989.6,-0.5,-0.3,-1.9,25,-38.5858,155.847,988.123,-0.528869,-0.417406,-1.8009,
2026_07_06_15_39_21.105,3.847,30,0,0.759,0,0,0,0, ,0,0,0,0,0, ,-38.6,155.8,987.9,-0.5,-0.4,-1.7,25,-38.6171,155.808,988.161,-0.52711,-0.413299,-1.80084,
2026_07_06_15_39_21.124,3.847,30,0,0.759,0,0,0,0, ,0,0,0,0,0, ,-37.4,155.5,988.6,-0.6,-0.4,-1.8,25,-38.5795,155.798,988.167,-0.528505,-0.412488,-1.79775,
2026_07_06_15_39_21.144,3.847,30,0,0.758,0,0,0,0, ,0,0,0,0,0, ,-39.9,156.3,989.2,-0.6,-0.4,-1.8,25,-38.5838,155.804,988.211,-0.532862,-0.411727,-1.79788,
2026_07_06_15_39_21.166,3.847,30.1,0,0.759,0,0,0,0, ,0,0,0,0,0, ,-38.4,157.3,988.8,-0.5,-0.4,-1.8,25,-38.6183,155.865,988.26,-0.533906,-0.411013,-1.79801,
2026_07_06_15_39_21.183,3.847,30,0,0.759,0,0,0,0, ,0,0,0,0,0, ,-39.7,156.1,986.8,-0.5,-0.4,-1.8,25,-38.6446,155.916,988.232,-0.53184,-0.410342,-1.79813,
2026_07_06_15_39_21.204,3.847,30,0,0.759,0,0,0,0, ,0,0,0,0,0, ,-39.4,156.4,987.9,-0.5,-0.4,-1.8,25,-38.6998,155.936,988.178,-0.5299,-0.409712,-1.79825,
2026_07_06_15_39_21.223,3.847,30,0,0.759,0,0,0,0, ,0,0,0,0,0, ,-39.3,155.2,988.1,-0.5,-0.4,-1.9,25,-38.7394,155.928,988.167,-0.528078,-0.40912,-1.8014,
2026_07_06_15_39_21.243,3.847,30,0,0.759,0,0,0,0, ,0,0,0,0,0, ,-39.4,155.8,989.1,-0.5,-0.4,-1.7,25,-38.7766,155.902,988.193,-0.526367,-0.408564,-1.80131,
2026_07_06_15_39_21.263,3.847,29.9,0,0.76,0,0,0,0, ,0,0,0,0,0, ,-38.9,154.9,988,-0.5,-0.4,-1.9,25,-38.7994,155.868,988.215,-0.52476,-0.408042,-1.80123,
2026_07_06_15_39_21.283,3.847,30.1,0,0.759,0,0,0,0, ,0,0,0,0,0, ,-39.4,156,989.1,-0.6,-0.5,-1.8,25,-38.8207,155.843,988.235,-0.526298,-0.410599,-1.80421,
2026_07_06_15_39_21.303,3.847,29.9,0,0.759,0,0,0,0, ,0,0,0,0,0, ,-39.3,155.2,987.9,-0.5,-0.3,-1.8,25,-38.853,155.828,988.252,-0.527742,-0.409953,-1.80395,
2026_07_06_15_39_21.326,3.847,30,0,0.758,0,0,0,0, ,0,0,0,0,0, ,-40.2,156.2,989.2,-0.5,-0.4,-1.8,25,-38.9076,155.82,988.27,-0.526052,-0.4063,-1.80371,
2026_07_06_15_39_21.342,3.847,29.9,0,0.759,0,0,0,0, ,0,0,0,0,0, ,-39.4,156.6,989.8,-0.6,-0.4,-1.8,25,-38.962,155.855,988.345,-0.527511,-0.405916,-1.80348,
2026_07_06_15_39_21.361,3.847,30,0,0.759,0,0,0,0, ,0,0,0,0,0, ,-38.8,155.2,987.6,-0.5,-0.4,-1.8,25,-38.9704,155.858,988.366,-0.528882,-0.405555,-1.80327,
2026_07_06_15_39_21.381,3.847,30,0,0.759,0,0,0,0, ,0,0,0,0,0, ,-36.9,155.5,988.5,-0.6,-0.5,-1.8,25,-38.9022,155.827,988.347,-0.530168,-0.408264,-1.80307,
2026_07_06_15_39_21.401,3.847,30,0,0.759,0,0,0,0, ,0,0,0,0,0, ,-38.6,156.6,988,-0.6,-0.4,-1.8,25,-38.8319,155.841,988.341,-0.534424,-0.410807,-1.80288,
2026_07_06_15_39_21.421,3.847,30,0,0.76,0,0,0,0, ,0,0,0,0,0, ,-39.4,155.7,987.6,-0.6,-0.5,-1.8,25,-38.8422,155.86,988.308,-0.53842,-0.413195,-1.80271,
2026_07_06_15_39_21.441,3.847,30.1,0,0.758,0,0,0,0, ,0,0,0,0,0, ,-39.9,155.6,988.7,-0.6,-0.4,-1.8,25,-38.8914,155.847,988.299,-0.542172,-0.415438,-1.80254,
2026_07_06_15_39_21.460,3.847,30,0,0.76,0,0,0,0, ,0,0,0,0,0, ,-39.1,155,989.1,-0.5,-0.4,-1.8,25,-38.9285,155.814,988.335,-0.542649,-0.414497,-1.80239,
2026_07_06_15_39_21.481,3.847,29.9,0,0.758,0,0,0,0, ,0,0,0,0,0, ,-38.5,156.4,989.1,-0.5,-0.4,-1.9,25,-38.9207,155.807,988.382,-0.54005,-0.413614,-1.80529,
2026_07_06_15_39_21.501,3.847,30,0,0.758,0,0,0,0, ,0,0,0,0,0, ,-39.3,156,988.1,-0.5,-0.5,-1.8,25,-38.9194,155.831,988.395,-0.53761,-0.415831,-1.80801,
2026_07_06_15_39_21.520,3.847,29.9,0,0.759,0,0,0,0, ,0,0,0,0,0, ,-39,155.7,987.6,-0.5,-0.4,-1.8,25,-38.9335,155.832,988.362,-0.535318,-0.417913,-1.80753,
2026_07_06_15_39_21.540,3.847,30,0,0.758,0,0,0,0, ,0,0,0,0,0, ,-38.2,157.3,987.9,-0.6,-0.5,-1.8,25,-38.9131,155.872,988.325,-0.536213,-0.419869,-1.80707,
2026_07_06_15_39_21.560,3.847,29.9,0,0.76,0,0,0,0, ,0,0,0,0,0, ,-38.5,156.1,987.5,-0.5,-0.4,-1.8,25,-38.8788,155.923,988.287,-0.537053,-0.421705,-1.80664,
2026_07_06_15_39_21.580,3.847,29.9,0,0.759,0,0,0,0, ,0,0,0,0,0, ,-38.8,155.8,988,-0.5,-0.4,-1.9,25,-38.8649,155.925,988.254,-0.534795,-0.420382,-1.80928,
2026_07_06_15_39_21.599,3.847,29.9,0,0.759,0,0,0,0, ,0,0,0,0,0, ,-38.4,156.6,988.8,-0.6,-0.4,-1.8,25,-38.8487,155.941,988.263,-0.535722,-0.41914,-1.81176,
2026_07_06_15_39_21.621,3.847,30.1,0,0.76,0,0,0,0, ,0,0,0,0,0, ,-38.8,156.3,989.5,-0.5,-0.5,-1.8,25,-38.8336,155.972,988.317,-0.536592,-0.421021,-1.81104,
2026_07_06_15_39_21.639,3.847,30,0,0.759,0,0,0,0, ,0,0,0,0,0, ,-37.9,155.7,988.4,-0.5,-0.4,-1.8,25,-38.8041,155.974,988.355,-0.534362,-0.422787,-1.81037,
2026_07_06_15_39_21.659,3.847,30,0,0.76,0,0,0,0, ,0,0,0,0,0, ,-39.5,155.1,988.4,-0.6,-0.4,-1.8,25,-38.7978,155.939,988.358,-0.535315,-0.421398,-1.80974,
2026_07_06_15_39_21.679,3.847,30,0,0.759,0,0,0,0, ,0,0,0,0,0, ,-38.8,155.1,988,-0.6,-0.5,-1.8,25,-38.8192,155.888,988.348,-0.539257,-0.423141,-1.80915,
2026_07_06_15_39_21.698,3.847,30,0,0.76,0,0,0,0, ,0,0,0,0,0, ,-37.9,155.3,989.5,-0.6,-0.4,-1.8,25,-38.7906,155.846,988.373,-0.542958,-0.424778,-1.80859,
2026_07_06_15_39_21.718,3.847,29.9,0,0.759,0,0,0,0, ,0,0,0,0,0, ,-37.5,156.9,988.2,-0.7,-0.5,-1.9,25,-38.7242,155.861,988.402,-0.549481,-0.426315,-1.81111,
2026_07_06_15_39_21.738,3.847,29.9,0,0.758,0,0,0,0, ,0,0,0,0,0, ,-37.4,156.2,988,-0.5,-0.5,-1.8,25,-38.6465,155.903,988.384,-0.552559,-0.430805,-1.81348,
2026_07_06_15_39_21.758,3.847,30,0,0.759,0,0,0,0, ,0,0,0,0,0, ,-39.1,156.9,988.7,-0.6,-0.4,-1.7,25,-38.6224,155.943,988.382,-0.552404,-0.431975,-1.80961,
2026_07_06_15_39_21.778,3.847,30,0,0.759,0,0,0,0, ,0,0,0,0,0, ,-37.9,156.1,988,-0.6,-0.5,-1.8,25,-38.6149,155.977,988.38,-0.555304,-0.433073,-1.80598,
2026_07_06_15_39_21.797,3.847,30.1,0,0.759,0,0,0,0, ,0,0,0,0,0, ,-39.5,156.1,988.2,-0.5,-0.5,-1.8,25,-38.6201,155.984,988.363,-0.554981,-0.437151,-1.80562,
2026_07_06_15_39_21.818,3.847,29.9,0,0.759,0,0,0,0, ,0,0,0,0,0, ,-39.4,156.7,989.1,-0.5,-0.4,-1.8,25,-38.6707,156.01,988.38,-0.55163,-0.437934,-1.80527,
2026_07_06_15_39_21.837,3.847,29.9,0,0.76,0,0,0,0, ,0,0,0,0,0, ,-38.2,156.7,987.5,-0.5,-0.4,-1.8,25,-38.6785,156.052,988.375,-0.548484,-0.435623,-1.80495,
2026_07_06_15_39_21.857,3.847,29.9,0,0.759,0,0,0,0, ,0,0,0,0,0, ,-39.5,155.2,989,-0.5,-0.4,-1.8,25,-38.689,156.045,988.368,-0.54553,-0.433452,-1.80465,
2026_07_06_15_39_21.877,3.847,30,0,0.759,0,0,0,0, ,0,0,0,0,0, ,-38.3,155.8,987.3,-0.6,-0.5,-1.8,25,-38.7019,156.012,988.354,-0.545802,-0.43446,-1.80437,
2026_07_06_15_39_21.896,3.847,30,0,0.759,0,0,0,0, ,0,0,0,0,0, ,-37.2,156.4,989,-0.6,-0.4,-1.8,25,-38.6439,156.018,988.342,-0.549105,-0.435407,-1.8041,
2026_07_06_15_39_21.918,3.847,30,0,0.76,0,0,0,0, ,0,0,0,0,0, ,-39.3,156.2,988,-0.6,-0.5,-1.8,25,-38.6199,156.035,988.352,-0.552206,-0.436297,-1.80385,
2026_07_06_15_39_21.935,3.847,29.9,0,0.759,0,0,0,0, ,0,0,0,0,0, ,-37.8,156.4,989,-0.6,-0.5,-1.7,25,-38.6156,156.051,988.361,-0.555119,-0.440178,-1.80057,
2026_07_06_15_39_21.956,3.847,30,0,0.76,0,0,0,0, ,0,0,0,0,0, ,-38.9,154.2,987.7,-0.5,-0.5,-1.7,25,-38.5994,156.005,988.36,-0.554807,-0.443824,-1.79444,
2026_07_06_15_39_21.975,3.847,29.9,0,0.758,0,0,0,0, ,0,0,0,0,0, ,-36.9,156.2,988.7,-0.5,-0.4,-1.7,25,-38.5568,155.956,988.35,-0.551467,-0.4442,-1.78869,
2026_07_06_15_39_21.995,3.847,29.8,0,0.759,0,0,0,0, ,0,0,0,0,0, ,-38.2,155.3,988.8,-0.5,-0.5,-1.8,25,-38.4954,155.944,988.375,-0.548331,-0.444554,-1.78633,
2026_07_06_15_39_22.015,3.847,29.8,0,0.758,0,0,0,0, ,0,0,0,0,0, ,-38.2,156.3,987.5,-0.5,-0.5,-1.8,25,-38.4774,155.935,988.361,-0.545385,-0.447932,-1.78716,
2026_07_06_15_39_22.034,3.847,29.9,0,0.758,0,0,0,0, ,0,0,0,0,0, ,-39.1,157.2,987.6,-0.5,-0.4,-1.7,25,-38.488,155.985,988.311,-0.54262,-0.448058,-1.7849,
2026_07_06_15_39_22.055,3.847,29.9,0,0.759,0,0,0,0, ,0,0,0,0,0, ,-38.2,157.2,988.1,-0.5,-0.5,-1.8,25,-38.4978,156.059,988.283,-0.540023,-0.448177,-1.78277,
2026_07_06_15_39_22.075,3.847,29.9,0,0.76,0,0,0,0, ,0,0,0,0,0, ,-38.2,155.6,987.5,-0.5,-0.5,-1.8,25,-38.4797,156.079,988.254,-0.537584,-0.451335,-1.78382,
2026_07_06_15_39_22.094,3.847,29.8,0,0.759,0,0,0,0, ,0,0,0,0,0, ,-38.5,156.8,987.9,-0.5,-0.5,-1.8,25,-38.4718,156.087,988.22,-0.535294,-0.4543,-1.78481,
2026_07_06_15_39_22.114,3.847,29.9,0,0.758,0,0,0,0, ,0,0,0,0,0, ,-38.4,156.3,989.7,-0.5,-0.4,-1.9,25,-38.4704,156.115,988.255,-0.533143,-0.454038,-1.78878,
2026_07_06_15_39_22.134,3.847,30,0,0.759,0,0,0,0, ,0,0,0,0,0, ,-39.1,155.6,989.1,-0.6,-0.4,-1.7,25,-38.4875,156.105,988.325,-0.53417,-0.450745,-1.78946,
2026_07_06_15_39_22.154,3.847,30,0,0.759,0,0,0,0, ,0,0,0,0,0, ,-38.3,155.6,988.1,-0.5,-0.4,-1.8,25,-38.5004,156.074,988.342,-0.535135,-0.447653,-1.78706,
2026_07_06_15_39_22.173,3.847,29.8,0,0.761,0,0,0,0, ,0,0,0,0,0, ,-38.2,156.6,988.5,-0.5,-0.4,-1.8,25,-38.4852,156.076,988.339,-0.532994,-0.444749,-1.78785,
2026_07_06_15_39_22.194,3.847,29.9,0,0.76,0,0,0,0, ,0,0,0,0,0, ,-39.1,155.7,987.6,-0.6,-0.4,-1.7,25,-38.4952,156.08,988.322,-0.53403,-0.442022,-1.78554,
2026_07_06_15_39_22.214,3.847,29.8,0,0.759,0,0,0,0, ,0,0,0,0,0, ,-39.4,156,988.6,-0.5,-0.5,-1.8,25,-38.5412,156.066,988.308,-0.535003,-0.442508,-1.78337,
2026_07_06_15_39_22.233,3.847,29.9,0,0.758,0,0,0,0, ,0,0,0,0,0, ,-38.4,155.8,986.6,-0.5,-0.4,-1.9,25,-38.5631,156.056,988.265,-0.53287,-0.442965,-1.78743,
2026_07_06_15_39_22.252,3.847,29.9,0,0.759,0,0,0,0, ,0,0,0,0,0, ,-39.6,157.8,989,-0.5,-0.5,-1.8,25,-38.5897,156.101,988.237,-0.530867,-0.443394,-1.79125,
2026_07_06_15_39_22.272,3.847,29.9,0,0.759,0,0,0,0, ,0,0,0,0,0, ,-38.2,155.6,987,-0.8,-0.4,-1.9,25,-38.6086,156.138,988.222,-0.538127,-0.443796,-1.79483,
2026_07_06_15_39_22.292,3.847,29.8,0,0.759,0,0,0,0, ,0,0,0,0,0, ,-40,156.1,987.6,-0.5,-0.4,-1.8,25,-38.6386,156.12,988.166,-0.544944,-0.441127,-1.79819,
2026_07_06_15_39_22.312,3.847,29.9,0,0.758,0,0,0,0, ,0,0,0,0,0, ,-38,156.1,987.9,-0.3,-0.4,-1.7,25,-38.6606,156.119,988.141,-0.536112,-0.438621,-1.79525,
2026_07_06_15_39_22.331,3.847,29.8,0,0.758,0,0,0,0, ,0,0,0,0,0, ,-39.5,157.9,988.1,-0.5,-0.4,-1.8,25,-38.666,156.173,988.132,-0.527817,-0.436268,-1.7925,
2026_07_06_15_39_22.352,3.847,29.9,0,0.76,0,0,0,0, ,0,0,0,0,0, ,-38.8,155.7,988.2,-0.6,-0.4,-1.9,25,-38.6955,156.211,988.133,-0.529169,-0.434058,-1.796,
2026_07_06_15_39_22.371,3.847,29.8,0,0.759,0,0,0,0, ,0,0,0,0,0, ,-38.6,155,989.1,-0.5,-0.4,-1.8,25,-38.6958,156.159,988.165,-0.530438,-0.431982,-1.79929,
2026_07_06_15_39_22.391,3.847,29.8,0,0.757,0,0,0,0, ,0,0,0,0,0, ,-38.3,156.2,988.5,-0.4,-0.4,-1.8,25,-38.6808,156.125,988.203,-0.525537,-0.430033,-1.79933,
2026_07_06_15_39_22.411,3.847,29.9,0,0.758,0,0,0,0, ,0,0,0,0,0, ,-38.8,156.6,988.6,-0.6,-0.4,-1.8,25,-38.6728,156.141,988.225,-0.523981,-0.428203,-1.79937,
2026_07_06_15_39_22.431,3.847,29.9,0,0.759,0,0,0,0, ,0,0,0,0,0, ,-39.1,156.2,987.6,-0.6,-0.4,-1.8,25,-38.6897,156.157,988.217,-0.528613,-0.426485,-1.79941,
2026_07_06_15_39_22.450,3.847,29.8,0,0.757,0,0,0,0, ,0,0,0,0,0, ,-37.8,154.7,988.4,-0.5,-0.4,-1.8,25,-38.6751,156.114,988.204,-0.529916,-0.424871,-1.79945,
2026_07_06_15_39_22.471,3.847,29.9,0,0.759,0,0,0,0, ,0,0,0,0,0, ,-38.6,156,988.2,-0.5,-0.4,-1.8,25,-38.6462,156.067,988.21,-0.528093,-0.423355,-1.79948,
2026_07_06_15_39_22.490,3.847,29.9,0,0.758,0,0,0,0, ,0,0,0,0,0, ,-37.7,155.6,987,-0.6,-0.4,-1.7,25,-38.6159,156.051,988.172,-0.529428,-0.421932,-1.79647,
2026_07_06_15_39_22.515,3.847,29.8,0,0.759,0,0,0,0, ,0,0,0,0,0, ,-38.6,154.2,989.2,-0.6,-0.4,-1.8,25,-38.5875,155.981,988.168,-0.533729,-0.420595,-1.79363,
2026_07_06_15_39_22.530,3.847,29.9,0,0.759,0,0,0,0, ,0,0,0,0,0, ,-38.4,154.6,987.9,-0.5,-0.4,-1.8,25,-38.5822,155.885,988.191,-0.53472,-0.41934,-1.79402,
2026_07_06_15_39_22.550,3.847,29.9,0,0.76,0,0,0,0, ,0,0,0,0,0, ,-38.6,154.7,987.4,-0.5,-0.4,-1.8,25,-38.5772,155.809,988.158,-0.532604,-0.418162,-1.79439,
2026_07_06_15_39_22.569,3.847,29.8,0,0.759,0,0,0,0, ,0,0,0,0,0, ,-39.4,156.1,988.6,-0.5,-0.4,-1.8,25,-38.603,155.784,988.149,-0.530618,-0.417055,-1.79473,
2026_07_06_15_39_22.589,3.847,29.9,0,0.757,0,0,0,0, ,0,0,0,0,0, ,-39,156.2,988.8,-0.5,-0.4,-1.8,25,-38.6393,155.807,988.182,-0.528752,-0.416016,-1.79505,
2026_07_06_15_39_22.609,3.847,29.8,0,0.758,0,0,0,0, ,0,0,0,0,0, ,-38.5,156.4,987.3,-0.5,-0.5,-1.8,25,-38.6461,155.837,988.174,-0.527,-0.418087,-1.79535,
2026_07_06_15_39_22.630,3.847,29.8,0,0.758,0,0,0,0, ,0,0,0,0,0, ,-38.5,154.2,988.7,-0.5,-0.4,-1.8,25,-38.6372,155.804,988.164,-0.525354,-0.420031,-1.79564,
2026_07_06_15_39_22.648,3.847,29.9,0,0.757,0,0,0,0, ,0,0,0,0,0, ,-39,156.1,988.7,-0.6,-0.4,-1.8,25,-38.6441,155.764,988.196,-0.526856,-0.418811,-1.7959,
2026_07_06_15_39_22.674,3.847,29.9,0,0.758,0,0,0,0, ,0,0,0,0,0, ,-38.6,155.2,989.5,-0.5,-0.4,-1.7,25,-38.6536,155.757,988.251,-0.528267,-0.417664,-1.7931,
2026_07_06_15_39_22.688,3.847,29.9,0,0.759,0,0,0,0, ,0,0,0,0,0, ,-38.8,155.5,988.2,-0.6,-0.4,-1.8,25,-38.6564,155.732,988.288,-0.529591,-0.416588,-1.79048,
2026_07_06_15_39_22.708,3.847,29.8,0,0.759,0,0,0,0, ,0,0,0,0,0, ,-38.8,156.9,988.8,-0.6,-0.4,-1.8,25,-38.6651,155.761,988.301,-0.533882,-0.415577,-1.79106,
2026_07_06_15_39_22.728,3.847,29.8,0,0.758,0,0,0,0, ,0,0,0,0,0, ,-38.4,155.5,988.1,-0.6,-0.4,-1.8,25,-38.6612,155.788,988.31,-0.537911,-0.414628,-1.7916,
2026_07_06_15_39_22.747,3.847,29.9,0,0.758,0,0,0,0, ,0,0,0,0,0, ,-37.8,155.6,988.2,-0.6,-0.4,-1.8,25,-38.627,155.773,988.3,-0.541694,-0.413737,-1.79211,
2026_07_06_15_39_22.767,3.847,29.9,0,0.759,0,0,0,0, ,0,0,0,0,0, ,-39.1,156.7,988.5,-0.5,-0.4,-1.8,25,-38.6162,155.796,988.303,-0.5422,-0.4129,-1.79259,
2026_07_06_15_39_22.787,3.847,29.9,0,0.759,0,0,0,0, ,0,0,0,0,0, ,-38.8,155.7,989.6,-0.5,-0.4,-1.8,25,-38.6365,155.821,988.349,-0.539629,-0.412113,-1.79305,
2026_07_06_15_39_22.807,3.847,29.8,0,0.759,0,0,0,0, ,0,0,0,0,0, ,-38.3,158,988.8,-0.6,-0.5,-1.8,25,-38.6313,155.883,988.401,-0.540261,-0.414422,-1.79347,
2026_07_06_15_39_22.826,3.847,29.8,0,0.758,0,0,0,0, ,0,0,0,0,0, ,-39.7,156.3,989.2,-0.5,-0.4,-1.8,25,-38.6537,155.961,988.437,-0.540854,-0.41659,-1.79387,
2026_07_06_15_39_22.846,3.847,29.8,0,0.759,0,0,0,0, ,0,0,0,0,0, ,-39.5,156.6,988.4,-0.5,-0.4,-1.9,25,-38.7114,155.99,988.459,-0.538365,-0.415579,-1.79729,
2026_07_06_15_39_22.866,3.847,29.8,0,0.759,0,0,0,0, ,0,0,0,0,0, ,-38.3,156.1,988.6,-0.6,-0.4,-1.8,25,-38.7229,156.012,988.462,-0.539074,-0.41463,-1.8005,
2026_07_06_15_39_22.886,3.847,29.8,0,0.759,0,0,0,0, ,0,0,0,0,0, ,-37.4,155.5,988.5,-0.5,-0.4,-1.8,25,-38.6697,155.999,988.467,-0.53974,-0.413738,-1.80047,
2026_07_06_15_39_22.905,3.847,29.9,0,0.759,0,0,0,0, ,0,0,0,0,0, ,-37.9,156,989.2,-0.5,-0.5,-1.8,25,-38.6076,155.984,988.49,-0.537318,-0.415948,-1.80044,
2026_07_06_15_39_22.925,3.847,29.9,0,0.758,0,0,0,0, ,0,0,0,0,0, ,-39.5,156,986.4,-0.6,-0.5,-1.8,25,-38.6132,155.985,988.448,-0.538091,-0.42107,-1.80041,
2026_07_06_15_39_22.945,3.847,29.8,0,0.758,0,0,0,0, ,0,0,0,0,0, ,-38.4,155.3,989.2,-0.5,-0.4,-1.8,25,-38.6337,155.965,988.409,-0.538816,-0.422833,-1.80039,
2026_07_06_15_39_22.966,3.847,29.9,0,0.759,0,0,0,0, ,0,0,0,0,0, ,-38.8,156.2,989.5,-0.6,-0.5,-1.7,25,-38.6317,155.952,988.466,-0.539498,-0.424488,-1.79732,
2026_07_06_15_39_22.986,3.847,29.8,0,0.758,0,0,0,0, ,0,0,0,0,0, ,-39.4,156.1,988.8,-0.5,-0.4,-1.8,25,-38.6602,155.964,988.508,-0.540138,-0.426043,-1.79444,
2026_07_06_15_39_23.006,3.847,29.9,0,0.758,0,0,0,0, ,0,0,0,0,0, ,-37.9,156.6,989.5,-0.6,-0.4,-1.8,25,-38.6596,155.987,988.547,-0.540739,-0.424456,-1.79477,
2026_07_06_15_39_23.025,3.847,29.8,0,0.759,0,0,0,0, ,0,0,0,0,0, ,-38.5,156.2,988.1,-0.6,-0.4,-1.8,25,-38.6316,156.012,988.562,-0.54435,-0.422966,-1.79509,
2026_07_06_15_39_23.044,3.847,29.8,0,0.758,0,0,0,0, ,0,0,0,0,0, ,-39.6,156.1,989.2,-0.5,-0.4,-1.9,25,-38.6571,156.021,988.568,-0.544694,-0.421566,-1.79844,
2026_07_06_15_39_23.064,3.847,29.8,0,0.761,0,0,0,0, ,0,0,0,0,0, ,-39.1,157.4,988.6,-0.6,-0.4,-1.8,25,-38.6993,156.065,988.588,-0.545018,-0.420252,-1.80158,
2026_07_06_15_39_23.084,3.847,29.8,0,0.758,0,0,0,0, ,0,0,0,0,0, ,-38.5,155.5,989,-0.6,-0.4,-1.8,25,-38.7054,156.089,988.601,-0.548368,-0.419018,-1.80148,
2026_07_06_15_39_23.104,3.847,29.8,0,0.759,0,0,0,0, ,0,0,0,0,0, ,-38.9,155.5,989.5,-0.4,-0.5,-1.8,25,-38.7051,156.053,988.64,-0.545421,-0.420906,-1.80139,
2026_07_06_15_39_23.124,3.847,29.8,0,0.757,0,0,0,0, ,0,0,0,0,0, ,-39.3,156.1,988.2,-0.5,-0.4,-1.8,25,-38.7292,156.037,988.653,-0.539606,-0.422679,-1.80131,
2026_07_06_15_39_23.144,3.847,29.8,0,0.758,0,0,0,0, ,0,0,0,0,0, ,-38.4,157.1,987.3,-0.5,-0.4,-1.8,25,-38.7365,156.072,988.598,-0.537193,-0.421297,-1.80123,
2026_07_06_15_39_23.163,3.847,29.9,0,0.761,0,0,0,0, ,0,0,0,0,0, ,-39.7,155.3,988.5,-0.5,-0.4,-1.7,25,-38.7556,156.08,988.556,-0.534926,-0.419999,-1.79811,
2026_07_06_15_39_23.183,3.847,29.9,0,0.758,0,0,0,0, ,0,0,0,0,0, ,-39.6,155.7,987.7,-0.5,-0.4,-1.8,25,-38.8101,156.044,988.528,-0.532798,-0.41878,-1.79518,
2026_07_06_15_39_23.203,3.847,29.8,0,0.759,0,0,0,0, ,0,0,0,0,0, ,-37.9,155.1,988.6,-0.6,-0.5,-1.8,25,-38.8065,156.005,988.505,-0.533846,-0.420683,-1.79547,
2026_07_06_15_39_23.223,3.847,29.9,0,0.759,0,0,0,0, ,0,0,0,0,0, ,-38.3,155.2,988.5,-0.5,-0.5,-1.8,25,-38.7634,155.953,988.508,-0.53483,-0.425516,-1.79575,
2026_07_06_15_39_23.243,3.847,29.8,0,0.758,0,0,0,0, ,0,0,0,0,0, ,-37.8,156.6,988.4,-0.6,-0.4,-1.8,25,-38.7199,155.95,988.504,-0.535755,-0.427008,-1.79601,
2026_07_06_15_39_23.262,3.847,29.8,0,0.759,0,0,0,0, ,0,0,0,0,0, ,-38.2,155.6,989.6,-0.5,-0.4,-1.8,25,-38.6761,155.959,988.534,-0.536623,-0.425362,-1.79625,
2026_07_06_15_39_23.282,3.847,29.7,0,0.758,0,0,0,0, ,0,0,0,0,0, ,-38.5,155.6,989.9,-0.6,-0.4,-1.8,25,-38.6562,155.937,988.608,-0.537438,-0.423817,-1.79648,
2026_07_06_15_39_23.302,3.847,29.8,0,0.759,0,0,0,0.001, ,0,0,0,0,0, ,-38.8,155.1,990.2,-0.5,-0.4,-1.7,25,-38.6558,155.901,988.696,-0.538204,-0.422366,-1.79364,
2026_07_06_15_39_23.324,3.847,29.8,0,0.76,0,0,0,0, ,0,0,0,0,0, ,-38.5,156.1,990.3,-0.5,-0.4,-1.8,25,-38.6555,155.883,988.791,-0.535876,-0.421003,-1.79099,
2026_07_06_15_39_23.341,3.847,29.9,0,0.758,0,0,0,0, ,0,0,0,0,0, ,-39.5,157.3,987.9,-0.5,-0.5,-1.8,25,-38.6765,155.933,988.81,-0.533689,-0.42277,-1.79153,
2026_07_06_15_39_23.361,3.847,29.8,0,0.758,0,0,0,0, ,0,0,0,0,0, ,-38,155,989.6,-0.6,-0.4,-1.8,25,-38.6809,155.946,988.806,-0.534683,-0.424429,-1.79205,
2026_07_06_15_39_23.381,3.847,29.8,0,0.758,0,0,0,0, ,0,0,0,0,0, ,-38.9,155.3,990.2,-0.5,-0.5,-1.9,25,-38.6669,155.897,988.873,-0.535617,-0.425987,-1.79558,
2026_07_06_15_39_23.401,3.847,29.8,0,0.76,0,0,0,0, ,0,0,0,0,0, ,-37.9,156.2,991.2,-0.5,-0.5,-1.8,25,-38.6506,155.888,988.984,-0.533446,-0.430497,-1.7989,
2026_07_06_15_39_23.421,3.847,29.9,0,0.758,0,0,0,0, ,0,0,0,0,0, ,-38.3,156.8,987,-0.6,-0.4,-1.7,25,-38.6171,155.926,988.991,-0.534455,-0.431686,-1.79592,
2026_07_06_15_39_23.441,3.847,29.8,0,0.758,0,0,0,0, ,0,0,0,0,0, ,-40,157.1,989.9,-0.5,-0.4,-1.8,25,-38.6495,155.988,988.958,-0.535402,-0.429755,-1.79312,
2026_07_06_15_39_23.461,3.847,29.9,0,0.758,0,0,0,0, ,0,0,0,0,0, ,-38.2,155.5,988.8,-0.5,-0.4,-1.8,25,-38.677,156.007,988.982,-0.533245,-0.427942,-1.79354,
2026_07_06_15_39_23.480,3.847,29.8,0,0.758,0,0,0,0, ,0,0,0,0,0, ,-39.1,155.5,990.3,-0.5,-0.4,-1.8,25,-38.6753,155.976,989.017,-0.531219,-0.426239,-1.79393,
2026_07_06_15_39_23.500,3.847,29.9,0,0.759,0,0,0,0, ,0,0,0,0,0, ,-38,154.6,989.8,-0.7,-0.4,-1.8,25,-38.6677,155.92,989.08,-0.53541,-0.42464,-1.7943,
2026_07_06_15_39_23.521,3.847,29.8,0,0.759,0,0,0,0, ,0,0,0,0,0, ,-38.5,155.8,989.7,-0.6,-0.4,-1.8,25,-38.6422,155.876,989.121,-0.542393,-0.423139,-1.79465,
2026_07_06_15_39_23.540,3.847,29.8,0,0.759,0,0,0,0, ,0,0,0,0,0, ,-38.2,156.6,988.7,-0.5,-0.5,-1.8,25,-38.6244,155.896,989.125,-0.542857,-0.424775,-1.79498,
2026_07_06_15_39_23.559,3.847,29.7,0,0.758,0,0,0,0, ,0,0,0,0,0, ,-38.2,157.1,989.2,-0.5,-0.5,-1.8,25,-38.5986,155.954,989.115,-0.540245,-0.429359,-1.79528,
2026_07_06_15_39_23.579,3.847,29.8,0,0.759,0,0,0,0.001, ,0,0,0,0,0, ,-38.8,156.3,988.1,-0.6,-0.4,-1.8,25,-38.5926,155.999,989.086,-0.54084,-0.430617,-1.79557,
2026_07_06_15_39_23.598,3.847,29.8,0,0.759,0,0,0,0, ,0,0,0,0,0, ,-38.6,156.1,988.2,-0.6,-0.4,-1.8,25,-38.5991,156.012,989.029,-0.544445,-0.428752,-1.79584,
2026_07_06_15_39_23.624,3.847,29.8,0,0.759,0,0,0,0, ,0,0,0,0,0, ,-39.7,155.7,989,-0.4,-0.4,-1.8,25,-38.6327,156.005,989.003,-0.541736,-0.426999,-1.79609,
2026_07_06_15_39_23.638,3.847,29.8,0,0.758,0,0,0,0.001, ,0,0,0,0,0, ,-38.8,156.9,989,-0.6,-0.4,-1.7,25,-38.6703,156.023,989.003,-0.539193,-0.425354,-1.79328,
2026_07_06_15_39_23.659,3.847,29.8,0,0.758,0,0,0,0.001, ,0,0,0,0,0, ,-37.9,156.4,990.7,-0.6,-0.4,-1.8,25,-38.6508,156.061,989.055,-0.542898,-0.423809,-1.79065,
2026_07_06_15_39_23.678,3.847,29.9,0,0.758,0,0,0,0.001, ,0,0,0,0,0, ,-37.4,156.3,987.9,-0.5,-0.4,-1.9,25,-38.5898,156.079,989.07,-0.543331,-0.422358,-1.79426,
2026_07_06_15_39_23.697,3.847,29.8,0,0.759,0,0,0,0, ,0,0,0,0,0, ,-39.9,156.3,989.5,-0.5,-0.4,-1.8,25,-38.5935,156.092,989.047,-0.540691,-0.420996,-1.79766,
2026_07_06_15_39_23.717,3.847,29.8,0,0.759,0,0,0,0.001, ,0,0,0,0,0, ,-38.4,155.8,989.8,-0.5,-0.5,-1.7,25,-38.6274,156.089,989.084,-0.538211,-0.422763,-1.79476,
2026_07_06_15_39_23.737,3.847,29.8,0,0.76,0,0,0,0.001, ,0,0,0,0,0, ,-37.8,156.1,988.2,-0.5,-0.5,-1.9,25,-38.5952,156.081,989.079,-0.535883,-0.42747,-1.79508,
2026_07_06_15_39_23.757,3.847,29.8,0,0.759,0,0,0,0.001, ,0,0,0,0,0, ,-37.4,155.6,987.1,-0.6,-0.5,-1.8,25,-38.5346,156.067,988.992,-0.536743,-0.43189,-1.79842,
2026_07_06_15_39_23.777,3.847,29.9,0,0.757,0,0,0,0.001, ,0,0,0,0,0, ,-38.3,156.4,988.5,-0.5,-0.5,-1.8,25,-38.4929,156.063,988.919,-0.537551,-0.43604,-1.79852,
2026_07_06_15_39_23.797,3.847,29.8,0,0.759,0,0,0,0, ,0,0,0,0,0, ,-39.4,156.1,988.6,-0.6,-0.4,-1.8,25,-38.5146,156.074,988.896,-0.538309,-0.436891,-1.79861,
2026_07_06_15_39_23.816,3.847,29.8,0,0.759,0,0,0,0.001, ,0,0,0,0,0, ,-38.6,155.1,988.7,-0.6,-0.4,-1.8,25,-38.5442,156.045,988.881,-0.542069,-0.434643,-1.79869,
2026_07_06_15_39_23.836,3.847,29.7,0,0.759,0,0,0,0.001, ,0,0,0,0,0, ,-38.3,156.6,989,-0.6,-0.4,-1.8,25,-38.5385,156.033,988.88,-0.545599,-0.432532,-1.79877,
2026_07_06_15_39_23.856,3.847,29.8,0,0.76,0,0,0,0.002, ,0,0,0,0,0, ,-38.4,155.8,988.7,-0.6,-0.5,-1.8,25,-38.527,156.044,988.878,-0.548914,-0.433596,-1.79885,
2026_07_06_15_39_23.876,3.847,29.8,0,0.759,0,0,0,0.001, ,0,0,0,0,0, ,-38.6,154.6,987.4,-0.5,-0.4,-1.8,25,-38.5253,155.992,988.827,-0.54898,-0.434596,-1.79892,
2026_07_06_15_39_23.895,3.847,29.9,0,0.759,0,0,0,0.001, ,0,0,0,0,0, ,-37.5,156.7,987.7,-0.6,-0.4,-1.8,25,-38.4964,155.971,988.749,-0.549042,-0.432488,-1.79898,
2026_07_06_15_39_23.917,3.847,29.8,0,0.759,0,0,0,0, ,0,0,0,0,0, ,-37.9,156.3,989.7,-0.5,-0.4,-1.8,25,-38.4478,156.004,988.746,-0.549101,-0.430508,-1.79905,
2026_07_06_15_39_23.934,3.847,29.8,0,0.756,0,0,0,0.001, ,0,0,0,0,0, ,-38.2,156.1,988.2,-0.6,-0.4,-1.8,25,-38.4236,156.016,988.759,-0.549155,-0.428649,-1.7991,
2026_07_06_15_39_23.955,3.847,29.8,0,0.759,0,0,0,0.001, ,0,0,0,0,0, ,-38.8,156.4,988.4,-0.6,-0.4,-1.8,25,-38.4283,156.03,988.731,-0.552254,-0.426903,-1.79916,
2026_07_06_15_39_23.975,3.847,29.9,0,0.76,0,0,0,0.001, ,0,0,0,0,0, ,-39.5,156.4,988.2,-0.6,-0.4,-1.8,25,-38.4722,156.052,988.705,-0.555163,-0.425264,-1.79921,
2026_07_06_15_39_23.995,3.847,29.8,0,0.759,0,0,0,0, ,0,0,0,0,0, ,-38.9,156.7,988.5,-0.6,-0.4,-1.8,25,-38.5166,156.083,988.683,-0.557896,-0.423724,-1.79926,
2026_07_06_15_39_24.015,3.847,29.7,0,0.759,0,0,0,0.001, ,0,0,0,0,0, ,-38.5,156.7,988.7,-0.5,-0.4,-1.8,25,-38.5278,156.12,988.678,-0.557414,-0.422278,-1.7993,
2026_07_06_15_39_24.035,3.847,29.8,0,0.758,0,0,0,0.002, ,0,0,0,0,0, ,-38.5,156.1,990.1,-0.6,-0.5,-1.8,25,-38.5261,156.137,988.722,-0.556963,-0.423968,-1.79935,
2026_07_06_15_39_24.053,3.847,29.8,0,0.759,0,0,0,0.001, ,0,0,0,0,0, ,-38.3,156.7,988.2,-0.6,-0.4,-1.8,25,-38.5184,156.153,988.748,-0.559585,-0.425554,-1.79939,
2026_07_06_15_39_24.075,3.847,29.9,0,0.758,0,0,0,0.001, ,0,0,0,0,0, ,-39.3,156.2,988,-0.5,-0.4,-1.8,25,-38.5356,156.171,988.709,-0.559001,-0.423997,-1.79942,
2026_07_06_15_39_24.094,3.847,29.8,0,0.758,0,0,0,0, ,0,0,0,0,0, ,-37.9,155.1,987.4,-0.6,-0.4,-1.8,25,-38.5395,156.14,988.647,-0.558453,-0.422535,-1.79946,
2026_07_06_15_39_24.114,3.847,29.8,0,0.758,0,0,0,0.001, ,0,0,0,0,0, ,-39,156.3,989.2,-0.5,-0.5,-1.8,25,-38.534,156.113,988.626,-0.557938,-0.424208,-1.79949,
2026_07_06_15_39_24.134,3.847,29.7,0,0.759,0,0,0,0.001, ,0,0,0,0,0, ,-38.4,157.9,989.1,-0.5,-0.4,-1.8,25,-38.5441,156.173,988.658,-0.554407,-0.42578,-1.79952,
2026_07_06_15_39_24.153,3.847,29.7,0,0.758,0,0,0,0.002, ,0,0,0,0,0, ,-39.3,157.5,988,-0.5,-0.4,-1.8,25,-38.5628,156.266,988.651,-0.551092,-0.424209,-1.79955,
2026_07_06_15_39_24.172,3.847,29.7,0,0.759,0,0,0,0.002, ,0,0,0,0,0, ,-39.1,156.4,989.2,-0.6,-0.5,-1.8,25,-38.6016,156.308,988.648,-0.551025,-0.425781,-1.79958,
2026_07_06_15_39_24.193,3.847,29.8,0,0.759,0,0,0,0.002, ,0,0,0,0,0, ,-38,155.1,988.8,-0.5,-0.4,-1.8,25,-38.5985,156.274,988.67,-0.550963,-0.427256,-1.7996,
2026_07_06_15_39_24.213,3.847,29.8,0,0.76,0,0,0,0.001, ,0,0,0,0,0, ,-38.4,155.6,988.6,-0.5,-0.5,-1.8,25,-38.5742,156.217,988.671,-0.547857,-0.428642,-1.79963,
2026_07_06_15_39_24.232,3.847,29.8,0,0.758,0,0,0,0.001, ,0,0,0,0,0, ,-38.6,155.5,988.2,-0.5,-0.4,-1.8,25,-38.5697,156.177,988.655,-0.544941,-0.429944,-1.79965,
2026_07_06_15_39_24.252,3.847,29.8,0,0.76,0,0,0,0.001, ,0,0,0,0,0, ,-39.7,154.5,989.6,-0.5,-0.4,-1.9,25,-38.605,156.105,988.67,-0.542202,-0.428119,-1.80272,
2026_07_06_15_39_24.271,3.847,29.8,0,0.76,0,0,0,0.001, ,0,0,0,0,0, ,-38.4,156.4,988.2,-0.6,-0.4,-1.8,25,-38.6321,156.065,988.684,-0.542677,-0.426406,-1.8056,
2026_07_06_15_39_24.291,3.847,29.8,0,0.758,0,0,0,0.001, ,0,0,0,0,0, ,-37.4,155.5,988.4,-0.6,-0.5,-1.8,25,-38.5875,156.058,988.66,-0.54617,-0.427843,-1.80526,
2026_07_06_15_39_24.311,3.847,29.7,0,0.759,0,0,0,0.001, ,0,0,0,0,0, ,-39.1,156.2,989,-0.6,-0.4,-1.8,25,-38.567,156.045,988.663,-0.549451,-0.429194,-1.80494,
2026_07_06_15_39_24.331,3.847,29.8,0,0.758,0,0,0,0.002, ,0,0,0,0,0, ,-38,154.6,989.9,-0.5,-0.5,-1.8,25,-38.5659,156.006,988.711,-0.549484,-0.430462,-1.80464,
2026_07_06_15_39_24.350,3.847,29.8,0,0.759,0,0,0,0.001, ,0,0,0,0,0, ,-39.1,155.7,989.3,-0.6,-0.4,-1.8,25,-38.565,155.954,988.765,-0.549516,-0.431652,-1.80436,
2026_07_06_15_39_24.375,3.847,29.8,0,0.759,0,0,0,0.001, ,0,0,0,0,0, ,-38.8,156.6,989,-0.6,-0.4,-1.8,25,-38.5884,155.966,988.789,-0.552592,-0.429723,-1.80409,
2026_07_06_15_39_24.391,3.847,29.8,0,0.759,0,0,0,0.001, ,0,0,0,0,0, ,-38.9,156.6,987.6,-0.5,-0.4,-1.8,25,-38.6044,156.005,988.759,-0.552434,-0.427912,-1.80384,
2026_07_06_15_39_24.411,3.847,29.8,0,0.758,0,0,0,0.001, ,0,0,0,0,0, ,-38.5,156.8,987.4,-0.6,-0.4,-1.8,25,-38.6102,156.047,988.682,-0.552286,-0.426211,-1.80361,
2026_07_06_15_39_24.430,3.847,29.8,0,0.759,0,0,0,0.001, ,0,0,0,0,0, ,-39,156.4,988.5,-0.5,-0.4,-1.8,25,-38.6187,156.081,988.637,-0.552146,-0.424614,-1.80339,
2026_07_06_15_39_24.450,3.847,29.8,0,0.758,0,0,0,0.001, ,0,0,0,0,0, ,-38.8,156.3,987.9,-0.6,-0.5,-1.8,25,-38.6358,156.097,988.611,-0.552016,-0.426161,-1.80318,
2026_07_06_15_39_24.469,3.847,29.8,0,0.758,0,0,0,0.001, ,0,0,0,0,0, ,-39.7,156.1,988.5,-0.5,-0.4,-1.8,25,-38.6733,156.103,988.586,-0.551893,-0.427614,-1.80299,
2026_07_06_15_39_24.489,3.847,29.8,0,0.759,0,0,0,0.001, ,0,0,0,0,0, ,-38.5,156.1,987.9,-0.5,-0.3,-1.8,25,-38.6993,156.103,988.562,-0.548731,-0.422884,-1.8028,
2026_07_06_15_39_24.509,3.847,29.8,0,0.759,0,0,0,0.001, ,0,0,0,0,0, ,-39.7,156.3,988.1,-0.5,-0.5,-1.8,25,-38.7237,156.109,988.528,-0.545761,-0.42149,-1.80263,
2026_07_06_15_39_24.529,3.847,29.8,0,0.759,0,0,0,0.001, ,0,0,0,0,0, ,-38.3,156,988.1,-0.5,-0.3,-1.8,25,-38.7405,156.112,988.502,-0.542973,-0.42018,-1.80247,
2026_07_06_15_39_24.549,3.847,29.8,0,0.759,0,0,0,0.001, ,0,0,0,0,0, ,-36.9,156,988,-0.6,-0.4,-1.8,25,-38.671,156.105,988.474,-0.543401,-0.415903,-1.80232,
2026_07_06_15_39_24.569,3.847,29.8,0,0.76,0,0,0,0.001, ,0,0,0,0,0, ,-38.8,155.8,989.1,-0.5,-0.4,-1.8,25,-38.621,156.092,988.479,-0.543803,-0.414934,-1.80218,
2026_07_06_15_39_24.588,3.847,29.8,0,0.76,0,0,0,0.001, ,0,0,0,0,0, ,-38.9,155.7,988.2,-0.5,-0.4,-1.9,25,-38.635,156.071,988.489,-0.541134,-0.414024,-1.80509,
2026_07_06_15_39_24.608,3.847,29.8,0,0.758,0,0,0,0.002, ,0,0,0,0,0, ,-38.8,155,987.1,-0.5,-0.5,-1.7,25,-38.6481,156.027,988.438,-0.538627,-0.416217,-1.80478,
2026_07_06_15_39_24.628,3.847,29.8,0,0.759,0,0,0,0.002, ,0,0,0,0,0, ,-38.4,155.2,988.5,-0.6,-0.5,-1.8,25,-38.6451,155.971,988.399,-0.53932,-0.421322,-1.80145,
2026_07_06_15_39_24.648,3.847,29.7,0,0.759,0,0,0,0.002, ,0,0,0,0,0, ,-38.5,156.1,988.1,-0.5,-0.4,-1.8,25,-38.6332,155.951,988.393,-0.539971,-0.42307,-1.80136,
2026_07_06_15_39_24.672,3.847,29.8,0,0.759,0,0,0,0.002, ,0,0,0,0,0, ,-38.3,156.3,988.1,-0.5,-0.4,-1.8,25,-38.619,155.967,988.375,-0.537535,-0.421664,-1.80128,
2026_07_06_15_39_24.687,3.847,29.7,0,0.759,0,0,0,0.002, ,0,0,0,0,0, ,-37.8,156.2,987.7,-0.5,-0.4,-1.8,25,-38.5844,155.984,988.346,-0.535248,-0.420344,-1.8012,
2026_07_06_15_39_24.707,3.847,29.8,0,0.758,0,0,0,0.002, ,0,0,0,0,0, ,-39.5,157.1,988.7,-0.5,-0.4,-1.8,25,-38.5884,156.024,988.338,-0.5331,-0.419104,-1.80112,
2026_07_06_15_39_24.727,3.847,29.8,0,0.76,0,0,0,0.002, ,0,0,0,0,0, ,-39.1,155.8,989.2,-0.5,-0.4,-1.8,25,-38.6317,156.05,988.375,-0.531083,-0.41794,-1.80106,
2026_07_06_15_39_24.747,3.847,29.7,0,0.76,0,0,0,0.002, ,0,0,0,0,0, ,-37.7,156.6,988.6,-0.6,-0.4,-1.8,25,-38.6176,156.059,988.407,-0.532236,-0.416847,-1.80099,
2026_07_06_15_39_24.767,3.847,29.7,0,0.758,0,0,0,0.002, ,0,0,0,0,0, ,-38.3,156.4,988.7,-0.5,-0.4,-1.9,25,-38.58,156.086,988.422,-0.533318,-0.41582,-1.80398,
2026_07_06_15_39_24.787,3.847,29.8,0,0.758,0,0,0,0.003, ,0,0,0,0,0, ,-39,155,989.2,-0.6,-0.5,-1.8,25,-38.5842,156.063,988.454,-0.534335,-0.417903,-1.80678,
2026_07_06_15_39_24.806,3.847,29.7,0,0.759,0,0,0,0.002, ,0,0,0,0,0, ,-38,156.8,987.7,-0.5,-0.5,-1.8,25,-38.5791,156.053,988.454,-0.535289,-0.422906,-1.80637,
2026_07_06_15_39_24.826,3.847,29.8,0,0.759,0,0,0,0.003, ,0,0,0,0,0, ,-40,156,988.7,-0.5,-0.5,-1.8,25,-38.6047,156.074,988.438,-0.533139,-0.427604,-1.80598,
2026_07_06_15_39_24.846,3.847,29.7,0,0.758,0,0,0,0.002, ,0,0,0,0,0, ,-38.2,155.3,986.8,-0.6,-0.5,-1.8,25,-38.6349,156.048,988.396,-0.534166,-0.432015,-1.80562,
2026_07_06_15_39_24.865,3.847,29.8,0,0.759,0,0,0,0.003, ,0,0,0,0,0, ,-39.5,154.9,989,-0.6,-0.4,-1.8,25,-38.648,155.99,988.366,-0.538178,-0.433111,-1.80527,
2026_07_06_15_39_24.885,3.847,29.8,0,0.758,0,0,0,0.002, ,0,0,0,0,0, ,-38.5,155.3,987.6,-0.5,-0.4,-1.8,25,-38.6695,155.936,988.362,-0.538899,-0.431093,-1.80495,
2026_07_06_15_39_24.904,3.847,29.8,0,0.758,0,0,0,0.002, ,0,0,0,0,0, ,-39.4,156.3,988.1,-0.6,-0.5,-1.8,25,-38.6866,155.928,988.331,-0.539575,-0.432246,-1.80465,
2026_07_06_15_39_24.924,3.847,29.7,0,0.758,0,0,0,0.002, ,0,0,0,0,0, ,-38.5,156.2,988.2,-0.5,-0.4,-1.8,25,-38.7026,155.947,988.32,-0.54021,-0.433328,-1.80437,
2026_07_06_15_39_24.945,3.847,29.8,0,0.759,0,0,0,0.003, ,0,0,0,0,0, ,-38.9,155.8,987.1,-0.5,-0.4,-1.8,25,-38.7025,155.951,988.279,-0.53776,-0.431297,-1.8041,
2026_07_06_15_39_24.965,3.847,29.7,0,0.758,0,0,0,0.002, ,0,0,0,0,0, ,-38.2,155.8,987.7,-0.6,-0.4,-1.8,25,-38.6932,155.941,988.225,-0.538506,-0.429389,-1.80385,
2026_07_06_15_39_24.984,3.847,29.8,0,0.758,0,0,0,0.003, ,0,0,0,0,0, ,-38.5,156,988.4,-0.6,-0.5,-1.8,25,-38.6723,155.939,988.215,-0.542253,-0.430645,-1.80362,
2026_07_06_15_39_25.004,3.847,29.8,0,0.759,0,0,0,0.002, ,0,0,0,0,0, ,-39.5,157.2,987.5,-0.5,-0.4,-1.8,25,-38.6922,155.979,988.199,-0.542725,-0.431825,-1.8034,
2026_07_06_15_39_25.024,3.847,29.7,0,0.759,0,0,0,0.002, ,0,0,0,0,0, ,-38.4,155.1,988.5,-0.5,-0.5,-1.8,25,-38.7079,155.99,988.186,-0.540122,-0.432932,-1.80319,
2026_07_06_15_39_25.044,3.847,29.7,0,0.758,0,0,0,0.003, ,0,0,0,0,0, ,-38,155.5,988.4,-0.5,-0.5,-1.8,25,-38.677,155.948,988.203,-0.537677,-0.437019,-1.803,
2026_07_06_15_39_25.064,3.847,29.9,0,0.759,0,0,0,0.003, ,0,0,0,0,0, ,-38.9,155.1,988.6,-0.5,-0.5,-1.8,25,-38.6632,155.908,988.221,-0.535381,-0.440857,-1.80281,
2026_07_06_15_39_25.083,3.847,29.8,0,0.759,0,0,0,0.001, ,0,0,0,0,0, ,-39,156.1,988.1,-0.5,-0.5,-1.8,25,-38.6806,155.889,988.229,-0.533225,-0.444461,-1.80264,
2026_07_06_15_39_25.103,3.847,29.8,0,0.758,0,0,0,0.002, ,0,0,0,0,0, ,-37.7,155.5,989.6,-0.5,-0.5,-1.8,25,-38.6605,155.884,988.266,-0.5312,-0.447846,-1.80248,
2026_07_06_15_39_25.124,3.847,29.7,0,0.758,0,0,0,0.002, ,0,0,0,0,0, ,-39.3,155.6,989.6,-0.5,-0.4,-1.8,25,-38.6507,155.864,988.348,-0.529299,-0.447977,-1.80233,
2026_07_06_15_39_25.142,3.847,29.7,0,0.759,0,0,0,0.003, ,0,0,0,0,0, ,-38.6,155.7,988.2,-0.5,-0.4,-1.9,25,-38.6689,155.851,988.381,-0.527514,-0.445053,-1.80523,
