UTC_Time,Vin,TC1,TC2,Rh1,Vh1,Ah1,Acp1,Dty1,Err1,Rh2,Vh2,Ah2,Acp2,Dty2,Err2,Accel_x,Accel_y,Accel_z,gyro_x,gyro_y,gyro_z,Temp_c,Accel_x_h,Accel_y_h,Accel_z_h,gyro_x_h,gyro_y_h,gyro_z_h,
2026_07_06_17_31_34.728,3.875,30.7,0,0.76,0,0,0,0, ,0,0,0,0,0, ,-37.8,335.5,943.3,-0.5,-0.5,-1.7,25,-37.8,335.5,943.3,-0.5,-0.5,-1.7,
2026_07_06_17_31_34.748,3.875,30.5,0,0.76,0,0,0,0, ,0,0,0,0,0, ,-38.5,335.2,941.7,-0.5,-0.5,-1.8,25,-37.8213,335.491,943.251,-0.5,-0.5,-1.70305,
2026_07_06_17_31_34.767,3.875,30.5,0,0.76,0,0,0,0, ,0,0,0,0,0, ,-37.3,336.3,942,-0.6,-0.5,-1.8,25,-37.8261,335.507,943.166,-0.503047,-0.5,-1.70895,
2026_07_06_17_31_34.787,3.875,30.4,0,0.76,0,0,0,0, ,0,0,0,0,0, ,-38.5,335.4,941.6,-0.6,-0.6,-1.8,25,-37.8306,335.528,943.083,-0.508955,-0.503047,-1.7145,
2026_07_06_17_31_34.808,3.875,30.5,0,0.76,0,0,0,0, ,0,0,0,0,0, ,-38.8,334.7,942.7,-0.4,-0.5,-1.8,25,-37.8806,335.498,943.026,-0.508409,-0.505908,-1.71971,
2026_07_06_17_31_34.827,3.875,30.5,0,0.758,0,0,0,0, ,0,0,0,0,0, ,-38.5,336.6,941.7,-0.5,-0.6,-1.8,25,-37.9274,335.508,942.975,-0.50485,-0.508595,-1.72461,
2026_07_06_17_31_34.847,3.875,30.7,0,0.76,0,0,0,0, ,0,0,0,0,0, ,-37.5,335.5,941.2,-0.6,-0.5,-1.8,25,-37.9319,335.541,942.883,-0.507601,-0.511118,-1.7292,
2026_07_06_17_31_34.867,3.875,30.5,0,0.761,0,0,0,0, ,0,0,0,0,0, ,-39.1,336.5,943.3,-0.6,-0.6,-1.8,25,-37.9543,335.569,942.844,-0.513232,-0.513487,-1.73351,
2026_07_06_17_31_34.886,3.875,30.5,0,0.76,0,0,0,0, ,0,0,0,0,0, ,-37.4,335.8,944.2,-0.6,-0.5,-1.8,25,-37.9723,335.604,942.899,-0.518519,-0.515712,-1.73757,
2026_07_06_17_31_34.906,3.875,30.5,0,0.759,0,0,0,0, ,0,0,0,0,0, ,-36.9,337.2,942.8,-0.6,-0.6,-1.7,25,-37.9222,335.659,942.936,-0.523485,-0.517802,-1.73832,
2026_07_06_17_31_34.929,3.875,30.4,0,0.759,0,0,0,0, ,0,0,0,0,0, ,-38.5,337.1,942.3,-0.6,-0.5,-1.8,25,-37.9087,335.75,942.912,-0.528147,-0.519764,-1.73903,
2026_07_06_17_31_34.946,3.875,30.5,0,0.759,0,0,0,0, ,0,0,0,0,0, ,-39.5,335.8,943.2,-0.5,-0.5,-1.7,25,-37.9752,335.792,942.902,-0.529479,-0.51856,-1.7397,
2026_07_06_17_31_34.966,3.875,30.4,0,0.76,0,0,0,0, ,0,0,0,0,0, ,-38.2,336.1,941.6,-0.6,-0.6,-1.7,25,-38.0285,335.802,942.872,-0.530729,-0.520475,-1.73728,
2026_07_06_17_31_34.986,3.875,30.5,0,0.759,0,0,0,0, ,0,0,0,0,0, ,-38.4,335.5,943.3,-0.5,-0.5,-1.7,25,-38.045,335.802,942.846,-0.531904,-0.522275,-1.73501,
2026_07_06_17_31_35.005,3.875,30.5,0,0.76,0,0,0,0, ,0,0,0,0,0, ,-38.2,335.6,942.8,-0.5,-0.5,-1.7,25,-38.0606,335.786,942.858,-0.52996,-0.520917,-1.73288,
2026_07_06_17_31_35.025,3.875,30.5,0,0.759,0,0,0,0, ,0,0,0,0,0, ,-38.8,335.2,942.3,-0.5,-0.6,-1.8,25,-38.0873,335.763,942.84,-0.528134,-0.522689,-1.73392,
2026_07_06_17_31_35.045,3.875,30.5,0,0.759,0,0,0,0, ,0,0,0,0,0, ,-39.1,338,942.1,-0.7,-0.6,-1.7,25,-38.1399,335.814,942.801,-0.532513,-0.527401,-1.7349,
2026_07_06_17_31_35.068,3.875,30.4,0,0.761,0,0,0,0, ,0,0,0,0,0, ,-39,336.4,941.6,-0.6,-0.6,-1.8,25,-38.1954,335.898,942.743,-0.539673,-0.531825,-1.73582,
2026_07_06_17_31_35.085,3.875,30.5,0,0.76,0,0,0,0, ,0,0,0,0,0, ,-38.4,337.1,942.1,-0.6,-0.6,-1.8,25,-38.2261,335.95,942.688,-0.543349,-0.535979,-1.73973,
2026_07_06_17_31_35.104,3.875,30.5,0,0.759,0,0,0,0, ,0,0,0,0,0, ,-38,336.1,943.3,-0.6,-0.5,-1.8,25,-38.2245,335.99,942.689,-0.546801,-0.536833,-1.7434,
2026_07_06_17_31_35.124,3.875,30.5,0,0.759,0,0,0,0, ,0,0,0,0,0, ,-38.3,335.9,941.7,-0.5,-0.5,-1.7,25,-38.22,335.99,942.678,-0.546996,-0.534589,-1.74381,
2026_07_06_17_31_35.143,3.875,30.5,0,0.762,0,0,0,0, ,0,0,0,0,0, ,-38.3,335.6,942.1,-0.6,-0.6,-1.7,25,-38.2249,335.976,942.63,-0.547179,-0.535528,-1.74114,
2026_07_06_17_31_35.163,3.875,30.5,0,0.76,0,0,0,0, ,0,0,0,0,0, ,-38,336.3,942.8,-0.6,-0.6,-1.7,25,-38.2203,335.974,942.619,-0.550398,-0.539457,-1.73863,
2026_07_06_17_31_35.183,3.875,30.5,0,0.76,0,0,0,0, ,0,0,0,0,0, ,-38.8,336.5,942.9,-0.6,-0.5,-1.8,25,-38.2313,336,942.633,-0.55342,-0.540099,-1.73932,
2026_07_06_17_31_35.207,3.875,30.7,0,0.76,0,0,0,0, ,0,0,0,0,0, ,-39.3,335.8,941,-0.5,-0.5,-1.8,25,-38.2811,336.009,942.592,-0.553212,-0.537656,-1.74302,
2026_07_06_17_31_35.223,3.875,30.5,0,0.761,0,0,0,0, ,0,0,0,0,0, ,-38.5,335.6,941.1,-0.5,-0.5,-1.7,25,-38.3189,335.99,942.498,-0.549969,-0.535361,-1.74345,
2026_07_06_17_31_35.243,3.875,30.7,0,0.758,0,0,0,0, ,0,0,0,0,0, ,-37.9,335,943.4,-0.5,-0.5,-1.7,25,-38.3116,335.948,942.483,-0.546924,-0.533206,-1.7408,
2026_07_06_17_31_35.262,3.875,30.5,0,0.76,0,0,0,0, ,0,0,0,0,0, ,-39,336.5,941.7,-0.4,-0.5,-1.7,25,-38.32,335.936,942.487,-0.541018,-0.531183,-1.73831,
2026_07_06_17_31_35.282,3.875,30.5,0,0.759,0,0,0,0, ,0,0,0,0,0, ,-38.5,337,941.8,-0.5,-0.6,-1.8,25,-38.3462,335.986,942.442,-0.535472,-0.532329,-1.73902,
2026_07_06_17_31_35.302,3.875,30.5,0,0.759,0,0,0,0, ,0,0,0,0,0, ,-37.3,335.6,942.6,-0.4,-0.6,-1.7,25,-38.3191,336.005,942.427,-0.530263,-0.536453,-1.73969,
2026_07_06_17_31_35.322,3.875,30.5,0,0.759,0,0,0,0, ,0,0,0,0,0, ,-38.9,335.3,942.8,-0.5,-0.7,-1.8,25,-38.3057,335.971,942.444,-0.525372,-0.543372,-1.74032,
2026_07_06_17_31_35.347,3.875,30.5,0,0.759,0,0,0,0, ,0,0,0,0,0, ,-38.5,336,942.7,-0.5,-0.5,-1.8,25,-38.3297,335.952,942.462,-0.523826,-0.546823,-1.74396,
2026_07_06_17_31_35.361,3.875,30.5,0,0.759,0,0,0,0, ,0,0,0,0,0, ,-37.8,336.5,943.8,-0.5,-0.5,-1.7,25,-38.3188,335.97,942.51,-0.522374,-0.54397,-1.74433,
2026_07_06_17_31_35.381,3.875,30.5,0,0.76,0,0,0,0, ,0,0,0,0,0, ,-38.8,335.9,941.8,-0.5,-0.6,-1.8,25,-38.3176,335.984,942.528,-0.521011,-0.544337,-1.74467,
2026_07_06_17_31_35.401,3.875,30.7,0,0.759,0,0,0,0, ,0,0,0,0,0, ,-37.7,335.3,941.5,-0.6,-0.6,-1.8,25,-38.3135,335.96,942.475,-0.522777,-0.547729,-1.74804,
2026_07_06_17_31_35.421,3.875,30.4,0,0.76,0,0,0,0, ,0,0,0,0,0, ,-39,334.8,941.4,-0.6,-0.6,-1.7,25,-38.3157,335.905,942.412,-0.527483,-0.550914,-1.74816,
2026_07_06_17_31_35.440,3.875,30.4,0,0.76,0,0,0,0, ,0,0,0,0,0, ,-37.7,336,943.8,-0.6,-0.5,-1.8,25,-38.3178,335.874,942.424,-0.531902,-0.550859,-1.74827,
2026_07_06_17_31_35.460,3.875,30.3,0,0.762,0,0,0,0, ,0,0,0,0,0, ,-38.9,336.1,940.4,-0.5,-0.5,-1.7,25,-38.3167,335.885,942.404,-0.533005,-0.54776,-1.74838,
2026_07_06_17_31_35.480,3.875,30.4,0,0.76,0,0,0,0, ,0,0,0,0,0, ,-38.3,335.8,942,-0.5,-0.5,-1.8,25,-38.334,335.889,942.33,-0.530994,-0.544849,-1.74848,
2026_07_06_17_31_35.500,3.875,30.4,0,0.759,0,0,0,0, ,0,0,0,0,0, ,-37.7,336.5,943.8,-0.6,-0.6,-1.7,25,-38.3136,335.905,942.365,-0.532152,-0.545163,-1.74857,
2026_07_06_17_31_35.520,3.875,30.4,0,0.76,0,0,0,0, ,0,0,0,0,0, ,-38.2,336.1,942.3,-0.5,-0.5,-1.7,25,-38.2915,335.929,942.407,-0.533239,-0.545458,-1.74561,
2026_07_06_17_31_35.540,3.875,30.5,0,0.76,0,0,0,0, ,0,0,0,0,0, ,-37.9,335.5,942.1,-0.5,-0.5,-1.7,25,-38.2768,335.921,942.394,-0.531214,-0.542688,-1.74283,
2026_07_06_17_31_35.559,3.875,30.4,0,0.761,0,0,0,0, ,0,0,0,0,0, ,-37.9,335.3,942.5,-0.5,-0.5,-1.7,25,-38.2538,335.889,942.389,-0.529312,-0.540086,-1.74022,
2026_07_06_17_31_35.578,3.875,30.4,0,0.76,0,0,0,0, ,0,0,0,0,0, ,-37.8,336.6,941.7,-0.5,-0.5,-1.8,25,-38.2292,335.893,942.371,-0.527526,-0.537644,-1.74082,
2026_07_06_17_31_35.599,3.875,30.5,0,0.76,0,0,0,0, ,0,0,0,0,0, ,-38.9,337.1,941.7,-0.6,-0.6,-1.8,25,-38.2366,335.951,942.33,-0.528895,-0.538397,-1.74442,
2026_07_06_17_31_35.619,3.875,30.4,0,0.759,0,0,0,0, ,0,0,0,0,0, ,-38.6,336.3,942.8,-0.5,-0.5,-1.7,25,-38.2679,335.997,942.325,-0.530181,-0.539104,-1.74476,
2026_07_06_17_31_35.638,3.875,30.5,0,0.759,0,0,0,0, ,0,0,0,0,0, ,-38.9,335.6,942.6,-0.5,-0.6,-1.8,25,-38.2972,335.994,942.348,-0.528342,-0.539768,-1.74508,
2026_07_06_17_31_35.658,3.875,30.4,0,0.759,0,0,0,0, ,0,0,0,0,0, ,-37.5,337.1,942.7,-0.5,-0.6,-1.7,25,-38.2913,336.016,942.366,-0.526615,-0.543438,-1.74538,
2026_07_06_17_31_35.678,3.875,30.4,0,0.761,0,0,0,0, ,0,0,0,0,0, ,-37.4,336.3,942.3,-0.4,-0.5,-1.8,25,-38.24,336.057,942.375,-0.521946,-0.543838,-1.74566,
2026_07_06_17_31_35.697,3.875,30.4,0,0.76,0,0,0,0, ,0,0,0,0,0, ,-38.2,334.7,942.5,-0.6,-0.6,-1.8,25,-38.2132,336.023,942.376,-0.520609,-0.544213,-1.74898,
2026_07_06_17_31_35.717,3.875,30.4,0,0.759,0,0,0,0, ,0,0,0,0,0, ,-38.4,336.7,942.1,-0.6,-0.5,-1.8,25,-38.2185,336.004,942.371,-0.525447,-0.544566,-1.75208,
2026_07_06_17_31_35.737,3.875,30.4,0,0.759,0,0,0,0, ,0,0,0,0,0, ,-37.7,336.3,942.9,-0.5,-0.6,-1.7,25,-38.2082,336.034,942.379,-0.526943,-0.544897,-1.75196,
2026_07_06_17_31_35.757,3.875,30.4,0,0.759,0,0,0,0, ,0,0,0,0,0, ,-39.3,335.8,941.6,-0.5,-0.5,-1.8,25,-38.226,336.035,942.371,-0.525301,-0.545208,-1.75184,
2026_07_06_17_31_35.777,3.875,30.4,0,0.76,0,0,0,0, ,0,0,0,0,0, ,-38.9,337,941,-0.5,-0.6,-1.8,25,-38.2793,336.057,942.306,-0.523759,-0.5455,-1.75477,
2026_07_06_17_31_35.796,3.875,30.4,0,0.76,0,0,0,0, ,0,0,0,0,0, ,-37.5,337.7,941.6,-0.5,-0.6,-1.8,25,-38.2745,336.136,942.245,-0.522312,-0.548821,-1.75753,
2026_07_06_17_31_35.818,3.875,30.5,0,0.76,0,0,0,0, ,0,0,0,0,0, ,-37.9,336.4,943.2,-0.4,-0.6,-1.8,25,-38.2394,336.192,942.254,-0.517905,-0.55194,-1.76012,
2026_07_06_17_31_35.836,3.875,30.5,0,0.759,0,0,0,0, ,0,0,0,0,0, ,-37.7,336.6,942.6,-0.5,-0.5,-1.8,25,-38.2127,336.21,942.294,-0.513767,-0.551822,-1.76255,
2026_07_06_17_31_35.856,3.875,30.5,0,0.761,0,0,0,0, ,0,0,0,0,0, ,-38.2,336.5,941.2,-0.5,-0.5,-1.8,25,-38.1967,336.231,942.27,-0.512928,-0.548664,-1.76483,
2026_07_06_17_31_35.876,3.875,30.5,0,0.761,0,0,0,0, ,0,0,0,0,0, ,-37.8,336.3,941.7,-0.5,-0.6,-1.8,25,-38.1847,336.241,942.22,-0.51214,-0.548745,-1.76697,
2026_07_06_17_31_35.895,3.875,30.4,0,0.761,0,0,0,0, ,0,0,0,0,0, ,-38,336,941.7,-0.5,-0.6,-1.7,25,-38.1673,336.236,942.188,-0.511401,-0.551869,-1.76594,
2026_07_06_17_31_35.915,3.875,30.5,0,0.761,0,0,0,0, ,0,0,0,0,0, ,-37.9,336.1,941.8,-0.5,-0.6,-1.8,25,-38.1541,336.225,942.161,-0.510706,-0.554802,-1.76497,
2026_07_06_17_31_35.935,3.875,30.4,0,0.759,0,0,0,0, ,0,0,0,0,0, ,-38.8,334.5,941.7,-0.6,-0.6,-1.8,25,-38.166,336.168,942.136,-0.5131,-0.557556,-1.7671,
2026_07_06_17_31_35.954,3.875,30.5,0,0.758,0,0,0,0, ,0,0,0,0,0, ,-37.7,336,942.8,-0.6,-0.6,-1.8,25,-38.1711,336.112,942.143,-0.518396,-0.560142,-1.76911,
2026_07_06_17_31_35.975,3.875,30.5,0,0.761,0,0,0,0, ,0,0,0,0,0, ,-37.1,336,942.6,-0.6,-0.5,-1.8,25,-38.1242,336.105,942.177,-0.523369,-0.559524,-1.77099,
2026_07_06_17_31_35.996,3.875,30.5,0,0.76,0,0,0,0, ,0,0,0,0,0, ,-37.2,335.9,942.6,-0.5,-0.5,-1.7,25,-38.0648,336.096,942.203,-0.524991,-0.555897,-1.76971,
2026_07_06_17_31_36.014,3.875,30.5,0,0.76,0,0,0,0, ,0,0,0,0,0, ,-37.7,335.6,942.3,-0.6,-0.6,-1.7,25,-38.0273,336.075,942.218,-0.526515,-0.555538,-1.76546,
2026_07_06_17_31_36.033,3.875,30.4,0,0.76,0,0,0,0, ,0,0,0,0,0, ,-38.6,336.7,941,-0.6,-0.5,-1.7,25,-38.0348,336.079,942.183,-0.530993,-0.5552,-1.76147,
2026_07_06_17_31_36.056,3.875,30.5,0,0.759,0,0,0,0, ,0,0,0,0,0, ,-37.9,336.3,941.7,-0.6,-0.6,-1.8,25,-38.0479,336.105,942.133,-0.535198,-0.554883,-1.76077,
2026_07_06_17_31_36.073,3.875,30.4,0,0.759,0,0,0,0, ,0,0,0,0,0, ,-38.6,337.7,942,-0.5,-0.7,-1.6,25,-38.0602,336.16,942.115,-0.5361,-0.56068,-1.75707,
2026_07_06_17_31_36.093,3.875,30.4,0,0.76,0,0,0,0, ,0,0,0,0,0, ,-37.8,336.4,942.2,-0.5,-0.6,-1.8,25,-38.0687,336.214,942.114,-0.533901,-0.566122,-1.75359,
2026_07_06_17_31_36.113,3.875,30.5,0,0.76,0,0,0,0, ,0,0,0,0,0, ,-37.9,336,942,-0.5,-0.6,-1.7,25,-38.0554,336.213,942.114,-0.531835,-0.568187,-1.75337,
2026_07_06_17_31_36.134,3.875,30.5,0,0.76,0,0,0,0, ,0,0,0,0,0, ,-38.2,337.7,941.6,-0.5,-0.5,-1.8,25,-38.0551,336.252,942.094,-0.529895,-0.567079,-1.75317,
2026_07_06_17_31_36.152,3.875,30.5,0,0.76,0,0,0,0, ,0,0,0,0,0, ,-39.1,335.6,942.5,-0.5,-0.6,-1.8,25,-38.0913,336.276,942.092,-0.528073,-0.566038,-1.75602,
2026_07_06_17_31_36.172,3.875,30.5,0,0.761,0,0,0,0, ,0,0,0,0,0, ,-39,336.5,941.5,-0.6,-0.6,-1.9,25,-38.1498,336.262,942.086,-0.529409,-0.568107,-1.76175,
2026_07_06_17_31_36.199,3.875,30.5,0,0.76,0,0,0,0, ,0,0,0,0,0, ,-38.5,336.5,942.8,-0.5,-0.6,-1.8,25,-38.1863,336.277,942.09,-0.530664,-0.570051,-1.76713,
2026_07_06_17_31_36.212,3.875,30.5,0,0.758,0,0,0,0, ,0,0,0,0,0, ,-38,336.3,942.3,-0.5,-0.6,-1.8,25,-38.1902,336.284,942.118,-0.528795,-0.571876,-1.76913,
2026_07_06_17_31_36.232,3.875,30.5,0,0.76,0,0,0,0, ,0,0,0,0,0, ,-38.5,335.3,943.3,-0.5,-0.5,-1.8,25,-38.1939,336.255,942.16,-0.527041,-0.570543,-1.77101,
2026_07_06_17_31_36.251,3.875,30.5,0,0.76,0,0,0,0, ,0,0,0,0,0, ,-37.4,336.5,942.6,-0.5,-0.6,-1.8,25,-38.179,336.233,942.208,-0.525393,-0.569291,-1.77278,
2026_07_06_17_31_36.271,3.875,30.5,0,0.76,0,0,0,0, ,0,0,0,0,0, ,-37.8,336.1,941.8,-0.5,-0.5,-1.8,25,-38.1437,336.237,942.207,-0.523846,-0.568116,-1.77444,
2026_07_06_17_31_36.291,3.875,30.5,0,0.759,0,0,0,0, ,0,0,0,0,0, ,-38.8,336,941.6,-0.5,-0.5,-1.8,25,-38.1532,336.226,942.176,-0.522392,-0.563965,-1.77599,
2026_07_06_17_31_36.311,3.875,30.4,0,0.76,0,0,0,0, ,0,0,0,0,0, ,-38.2,336.6,942.2,-0.5,-0.5,-1.6,25,-38.1744,336.23,942.16,-0.521028,-0.560067,-1.77136,
2026_07_06_17_31_36.330,3.875,30.5,0,0.761,0,0,0,0, ,0,0,0,0,0, ,-37.9,336,943.2,-0.5,-0.6,-1.9,25,-38.1668,336.235,942.192,-0.519747,-0.559453,-1.77006,
2026_07_06_17_31_36.351,3.875,30.5,0,0.761,0,0,0,0, ,0,0,0,0,0, ,-37.7,335.9,943.1,-0.6,-0.6,-1.7,25,-38.1444,336.217,942.251,-0.52159,-0.561924,-1.77189,
2026_07_06_17_31_36.372,3.875,30.5,0,0.76,0,0,0,0, ,0,0,0,0,0, ,-38.4,334.5,941.7,-0.6,-0.6,-1.8,25,-38.1387,336.155,942.26,-0.526368,-0.564244,-1.77055,
2026_07_06_17_31_36.390,3.875,30.4,0,0.76,0,0,0,0, ,0,0,0,0,0, ,-37.7,335.5,942.1,-0.4,-0.5,-1.7,25,-38.1333,336.085,942.238,-0.524761,-0.563376,-1.7693,
2026_07_06_17_31_36.410,3.875,30.5,0,0.761,0,0,0,0, ,0,0,0,0,0, ,-38.5,336.1,942.1,-0.5,-0.6,-1.7,25,-38.1313,336.068,942.23,-0.520206,-0.562561,-1.76508,
2026_07_06_17_31_36.429,3.875,30.5,0,0.761,0,0,0,0, ,0,0,0,0,0, ,-37.7,336.9,942.1,-0.5,-0.6,-1.8,25,-38.1293,336.094,942.222,-0.518974,-0.564843,-1.76416,
2026_07_06_17_31_36.450,3.875,30.5,0,0.758,0,0,0,0, ,0,0,0,0,0, ,-38.3,336.9,941.4,-0.4,-0.6,-1.8,25,-38.1215,336.143,942.193,-0.514771,-0.566985,-1.76634,
2026_07_06_17_31_36.469,3.875,30.5,0,0.76,0,0,0,0, ,0,0,0,0,0, ,-38.3,336.5,941.8,-0.5,-0.6,-1.8,25,-38.1323,336.177,942.157,-0.510824,-0.568997,-1.76839,
2026_07_06_17_31_36.489,3.875,30.5,0,0.76,0,0,0,0, ,0,0,0,0,0, ,-39.6,336.4,941.2,-0.5,-0.5,-1.8,25,-38.1822,336.194,942.117,-0.510165,-0.567839,-1.77032,
2026_07_06_17_31_36.509,3.875,30.5,0,0.76,0,0,0,0, ,0,0,0,0,0, ,-38.3,336.4,942.2,-0.5,-0.5,-1.7,25,-38.229,336.206,942.091,-0.509545,-0.563705,-1.76908,
2026_07_06_17_31_36.529,3.875,30.5,0,0.758,0,0,0,0, ,0,0,0,0,0, ,-37.8,336.3,941.4,-0.5,-0.6,-1.8,25,-38.2181,336.215,942.074,-0.508964,-0.56287,-1.76792,
2026_07_06_17_31_36.549,3.875,30.4,0,0.761,0,0,0,0, ,0,0,0,0,0, ,-38.8,336.5,942.7,-0.5,-0.5,-1.8,25,-38.223,336.226,942.072,-0.508417,-0.562086,-1.76987,
2026_07_06_17_31_36.571,3.875,30.5,0,0.759,0,0,0,0, ,0,0,0,0,0, ,-38.8,335.5,942.6,-0.6,-0.6,-1.8,25,-38.2582,336.212,942.107,-0.510951,-0.561349,-1.77171,
2026_07_06_17_31_36.588,3.875,30.5,0,0.759,0,0,0,0, ,0,0,0,0,0, ,-38.2,336.4,942.9,-0.5,-0.5,-1.8,25,-38.2729,336.196,942.147,-0.513331,-0.560658,-1.77343,
2026_07_06_17_31_36.607,3.875,30.5,0,0.758,0,0,0,0, ,0,0,0,0,0, ,-38.3,334.8,941,-0.6,-0.6,-1.8,25,-38.2715,336.16,942.135,-0.515565,-0.560008,-1.77505,
2026_07_06_17_31_36.628,3.875,30.5,0,0.76,0,0,0,0, ,0,0,0,0,0, ,-38.4,337,942.9,-0.5,-0.6,-1.7,25,-38.2763,336.144,942.123,-0.517664,-0.562445,-1.77353,
2026_07_06_17_31_36.647,3.875,30.7,0,0.76,0,0,0,0, ,0,0,0,0,0, ,-38,336.4,943.6,-0.5,-0.6,-1.8,25,-38.2717,336.178,942.192,-0.516587,-0.564734,-1.77209,
2026_07_06_17_31_36.667,3.875,30.5,0,0.759,0,0,0,0, ,0,0,0,0,0, ,-38.4,336,941.2,-0.5,-0.5,-1.7,25,-38.2673,336.179,942.205,-0.515577,-0.563836,-1.77075,
2026_07_06_17_31_36.686,3.875,30.7,0,0.76,0,0,0,0, ,0,0,0,0,0, ,-38.9,335.2,943.6,-0.5,-0.6,-1.7,25,-38.2906,336.144,942.217,-0.514627,-0.562993,-1.76643,
2026_07_06_17_31_36.707,3.875,30.5,0,0.759,0,0,0,0, ,0,0,0,0,0, ,-38.6,336.4,942,-0.5,-0.6,-1.8,25,-38.3186,336.123,942.252,-0.513736,-0.565248,-1.76543,
2026_07_06_17_31_36.727,3.875,30.7,0,0.759,0,0,0,0, ,0,0,0,0,0, ,-37.4,335.8,942.7,-0.6,-0.5,-1.7,25,-38.2992,336.122,942.258,-0.515946,-0.564319,-1.76449,
2026_07_06_17_31_36.746,3.875,30.4,0,0.759,0,0,0,0, ,0,0,0,0,0, ,-38.5,336,942.3,-0.6,-0.6,-1.8,25,-38.2779,336.108,942.273,-0.521068,-0.563446,-1.76361,
2026_07_06_17_31_36.767,3.875,30.5,0,0.761,0,0,0,0, ,0,0,0,0,0, ,-39.4,336,941.5,-0.5,-0.6,-1.7,25,-38.3189,336.102,942.25,-0.522831,-0.565674,-1.76278,
2026_07_06_17_31_36.786,3.875,30.5,0,0.76,0,0,0,0, ,0,0,0,0,0, ,-38.3,335,941.5,-0.6,-0.5,-1.8,25,-38.3512,336.065,942.204,-0.524487,-0.564719,-1.762,
2026_07_06_17_31_36.806,3.875,30.5,0,0.76,0,0,0,0, ,0,0,0,0,0, ,-37.5,336.3,942.5,-0.6,-0.6,-1.8,25,-38.3237,336.04,942.192,-0.529088,-0.563822,-1.76432,
2026_07_06_17_31_36.827,3.875,30.4,0,0.76,0,0,0,0, ,0,0,0,0,0, ,-38.5,335.5,941.8,-0.5,-0.5,-1.7,25,-38.304,336.031,942.189,-0.530362,-0.562979,-1.76344,
2026_07_06_17_31_36.852,3.875,30.4,0,0.76,0,0,0,0, ,0,0,0,0,0, ,-37.4,335.8,940.6,-0.5,-0.6,-1.7,25,-38.2824,336.008,942.129,-0.528512,-0.562189,-1.75958,
2026_07_06_17_31_36.878,3.875,30.7,0,0.76,0,0,0,0, ,0,0,0,0,0, ,-39.3,335.8,941.5,-0.4,-0.6,-1.8,25,-38.2866,335.995,942.063,-0.523728,-0.564493,-1.75899,
2026_07_06_17_31_36.889,3.875,30.5,0,0.76,0,0,0,0, ,0,0,0,0,0, ,-38.5,336.4,941.5,-0.5,-0.6,-1.8,25,-38.3239,336.002,942.029,-0.519235,-0.566656,-1.76149,
2026_07_06_17_31_36.905,3.875,30.5,0,0.761,0,0,0,0, ,0,0,0,0,0, ,-37.1,336,940.9,-0.5,-0.5,-1.8,25,-38.292,336.014,941.978,-0.518063,-0.565641,-1.76384,
2026_07_06_17_31_36.925,3.875,30.5,0,0.76,0,0,0,0, ,0,0,0,0,0, ,-38,335,941.7,-0.4,-0.6,-1.8,25,-38.2468,335.982,941.937,-0.513915,-0.564688,-1.76604,
2026_07_06_17_31_36.945,3.875,30.4,0,0.759,0,0,0,0, ,0,0,0,0,0, ,-38.8,336.9,941.2,-0.5,-0.6,-1.8,25,-38.2561,335.98,941.907,-0.510021,-0.56684,-1.76811,
2026_07_06_17_31_36.965,3.875,30.7,0,0.76,0,0,0,0, ,0,0,0,0,0, ,-38.5,336.4,941.4,-0.5,-0.6,-1.7,25,-38.2801,336.021,941.87,-0.50941,-0.568861,-1.76701,
2026_07_06_17_31_36.984,3.875,30.4,0,0.762,0,0,0,0, ,0,0,0,0,0, ,-38.4,335.9,943.1,-0.5,-0.5,-1.8,25,-38.2905,336.029,941.894,-0.508836,-0.567711,-1.76597,
2026_07_06_17_31_37.005,3.875,30.4,0,0.76,0,0,0,0, ,0,0,0,0,0, ,-38.2,336.4,941.7,-0.5,-0.6,-1.7,25,-38.2911,336.036,941.924,-0.508298,-0.566632,-1.765,
2026_07_06_17_31_37.024,3.875,30.4,0,0.76,0,0,0,0, ,0,0,0,0,0, ,-37.7,335.4,942.8,-0.5,-0.6,-1.8,25,-38.2703,336.028,941.944,-0.507792,-0.568665,-1.76409,
2026_07_06_17_31_37.045,3.875,30.5,0,0.759,0,0,0,0, ,0,0,0,0,0, ,-37.7,336.6,941.7,-0.5,-0.6,-1.7,25,-38.2355,336.026,941.963,-0.507318,-0.570575,-1.76323,
2026_07_06_17_31_37.064,3.875,30.4,0,0.76,0,0,0,0, ,0,0,0,0,0, ,-38.6,335.9,942.9,-0.5,-0.5,-1.7,25,-38.2303,336.04,941.983,-0.506872,-0.569321,-1.75937,
2026_07_06_17_31_37.083,3.875,30.4,0,0.761,0,0,0,0, ,0,0,0,0,0, ,-38,335.6,941.7,-0.5,-0.6,-1.7,25,-38.2346,336.022,942.003,-0.506453,-0.568144,-1.75576,
2026_07_06_17_31_37.103,3.875,30.3,0,0.76,0,0,0,0, ,0,0,0,0,0, ,-37.8,336.5,942.8,-0.5,-0.6,-1.8,25,-38.2142,336.024,942.018,-0.50606,-0.570085,-1.75541,
2026_07_06_17_31_37.122,3.875,30.4,0,0.758,0,0,0,0, ,0,0,0,0,0, ,-38.4,336.3,942,-0.5,-0.6,-1.8,25,-38.2072,336.047,942.041,-0.50569,-0.571908,-1.75812,
2026_07_06_17_31_37.142,3.875,30.4,0,0.76,0,0,0,0, ,0,0,0,0,0, ,-38.6,336,941.2,-0.5,-0.5,-1.8,25,-38.2251,336.053,942.014,-0.505344,-0.570573,-1.76067,
2026_07_06_17_31_37.166,3.875,30.4,0,0.76,0,0,0,0, ,0,0,0,0,0, ,-39,335.4,942.1,-0.5,-0.5,-1.8,25,-38.2601,336.032,941.992,-0.505018,-0.566272,-1.76307,
2026_07_06_17_31_37.182,3.875,30.4,0,0.76,0,0,0,0, ,0,0,0,0,0, ,-39.3,335.8,942.3,-0.4,-0.5,-1.8,25,-38.3143,336.005,942.005,-0.501665,-0.562234,-1.76532,
2026_07_06_17_31_37.201,3.875,30.4,0,0.76,0,0,0,0, ,0,0,0,0,0, ,-38.8,335.3,942.1,-0.5,-0.5,-1.8,25,-38.3592,335.978,942.017,-0.498517,-0.558442,-1.76743,
2026_07_06_17_31_37.221,3.875,30.4,0,0.761,0,0,0,0, ,0,0,0,0,0, ,-37.8,335.4,941.7,-0.5,-0.5,-1.7,25,-38.3556,335.939,942.009,-0.498607,-0.55488,-1.76637,
2026_07_06_17_31_37.243,3.875,30.5,0,0.761,0,0,0,0, ,0,0,0,0,0, ,-37.4,336.5,943.7,-0.5,-0.5,-1.8,25,-38.3095,335.94,942.052,-0.498692,-0.551536,-1.76537,
2026_07_06_17_31_37.261,3.875,30.5,0,0.758,0,0,0,0, ,0,0,0,0,0, ,-39.5,336.5,942.9,-0.5,-0.5,-1.8,25,-38.3181,335.974,942.128,-0.498772,-0.548396,-1.76748,
2026_07_06_17_31_37.281,3.875,30.5,0,0.76,0,0,0,0, ,0,0,0,0,0, ,-39.5,337,942.6,-0.5,-0.5,-1.8,25,-38.3901,336.021,942.166,-0.498847,-0.545446,-1.76947,
2026_07_06_17_31_37.300,3.875,30.5,0,0.758,0,0,0,0, ,0,0,0,0,0, ,-38.6,336.1,941.2,-0.3,-0.5,-1.8,25,-38.4303,336.054,942.149,-0.492823,-0.542677,-1.77133,
2026_07_06_17_31_37.320,3.875,30.4,0,0.76,0,0,0,0, ,0,0,0,0,0, ,-39,334.7,943.3,-0.5,-0.5,-1.7,25,-38.4528,336.014,942.156,-0.487167,-0.540076,-1.77003,
2026_07_06_17_31_37.340,3.875,30.5,0,0.761,0,0,0,0, ,0,0,0,0,0, ,-39,335.6,941,-0.5,-0.5,-1.8,25,-38.4862,335.961,942.155,-0.487949,-0.537634,-1.76881,
2026_07_06_17_31_37.359,3.875,30.5,0,0.76,0,0,0,0, ,0,0,0,0,0, ,-39.6,336.1,941.2,-0.4,-0.5,-1.8,25,-38.5358,335.954,942.091,-0.485636,-0.535341,-1.77071,
2026_07_06_17_31_37.379,3.875,30.4,0,0.761,0,0,0,0, ,0,0,0,0,0, ,-38.9,337.7,940.3,-0.5,-0.6,-1.8,25,-38.5793,336.012,942.009,-0.483465,-0.536234,-1.77249,
2026_07_06_17_31_37.398,3.875,30.5,0,0.758,0,0,0,0, ,0,0,0,0,0, ,-38.9,333.6,937,-0.5,-0.5,-1.7,25,-38.5988,335.99,941.804,-0.484472,-0.537073,-1.77112,
2026_07_06_17_31_37.419,3.875,30.4,0,0.761,0,0,0,0, ,0,0,0,0,0, ,-38.4,335.2,945.4,-1,-0.5,-1.8,25,-38.602,335.893,941.768,-0.500653,-0.534814,-1.76983,
2026_07_06_17_31_37.439,3.875,30.5,0,0.758,0,0,0,0, ,0,0,0,0,0, ,-39.1,337.7,940.7,-0.7,-0.6,-1.8,25,-38.611,335.927,941.846,-0.521941,-0.535739,-1.77167,
2026_07_06_17_31_37.459,3.875,30.5,0,0.758,0,0,0,0, ,0,0,0,0,0, ,-37.1,335.8,943.8,-0.5,-0.5,-1.8,25,-38.5798,335.977,941.87,-0.526698,-0.536608,-1.7734,
2026_07_06_17_31_37.479,3.875,30.5,0,0.76,0,0,0,0, ,0,0,0,0,0, ,-38,338.2,940.9,-0.8,-0.6,-1.8,25,-38.5171,336.04,941.9,-0.534212,-0.537424,-1.77502,
2026_07_06_17_31_37.498,3.875,30.5,0,0.76,0,0,0,0, ,0,0,0,0,0, ,-38.5,335.6,942.9,-0.3,-0.6,-1.7,25,-38.5008,336.092,941.9,-0.535174,-0.541238,-1.7735,
2026_07_06_17_31_37.518,3.875,30.5,0,0.761,0,0,0,0, ,0,0,0,0,0, ,-38.8,335.9,942.3,-0.4,-0.6,-1.8,25,-38.5099,336.071,941.942,-0.52389,-0.544818,-1.77206,
2026_07_06_17_31_37.537,3.875,30.5,0,0.759,0,0,0,0, ,0,0,0,0,0, ,-38.6,336.7,942.1,-0.6,-0.6,-1.7,25,-38.5215,336.085,941.958,-0.522434,-0.548181,-1.77072,
2026_07_06_17_31_37.558,3.875,30.5,0,0.76,0,0,0,0, ,0,0,0,0,0, ,-38.4,337.1,940.6,-0.5,-0.5,-1.7,25,-38.5202,336.135,941.921,-0.524114,-0.548292,-1.76641,
2026_07_06_17_31_37.577,3.875,30.5,0,0.76,0,0,0,0, ,0,0,0,0,0, ,-38.9,337.1,942,-0.4,-0.6,-1.7,25,-38.5281,336.194,941.883,-0.519598,-0.548396,-1.76236,
2026_07_06_17_31_37.597,3.875,30.5,0,0.76,0,0,0,0, ,0,0,0,0,0, ,-38.9,336,941.6,-0.5,-0.6,-1.8,25,-38.5507,336.215,941.878,-0.515356,-0.551541,-1.76161,
2026_07_06_17_31_37.618,3.875,30.5,0,0.76,0,0,0,0, ,0,0,0,0,0, ,-39.7,337,941.4,-0.5,-0.6,-1.8,25,-38.5964,336.233,941.855,-0.514421,-0.554494,-1.76395,
2026_07_06_17_31_37.637,3.875,30.5,0,0.759,0,0,0,0, ,0,0,0,0,0, ,-39.5,337.5,941.6,-0.6,-0.7,-1.7,25,-38.6576,336.295,941.833,-0.516589,-0.560314,-1.7631,
2026_07_06_17_31_37.657,3.875,30.5,0,0.759,0,0,0,0, ,0,0,0,0,0, ,-38.4,336.4,941.6,-0.5,-0.5,-1.8,25,-38.6754,336.335,941.819,-0.518625,-0.562732,-1.7623,
2026_07_06_17_31_37.676,3.875,30.5,0,0.76,0,0,0,0, ,0,0,0,0,0, ,-38,336.6,941.4,-0.7,-0.7,-1.8,25,-38.6464,336.345,941.8,-0.523584,-0.565003,-1.7646,
2026_07_06_17_31_37.696,3.875,30.5,0,0.759,0,0,0,0, ,0,0,0,0,0, ,-39.3,337,940.9,-0.5,-0.5,-1.7,25,-38.6466,336.372,941.76,-0.52824,-0.567136,-1.76371,
2026_07_06_17_31_37.715,3.875,30.4,0,0.761,0,0,0,0, ,0,0,0,0,0, ,-37.9,336.3,941.8,-0.6,-0.6,-1.7,25,-38.6438,336.389,941.735,-0.529566,-0.566091,-1.75983,
2026_07_06_17_31_37.736,3.875,30.7,0,0.76,0,0,0,0, ,0,0,0,0,0, ,-39,337.5,940.4,-0.4,-0.6,-1.8,25,-38.632,336.42,941.696,-0.527764,-0.568158,-1.75923,
2026_07_06_17_31_37.756,3.875,30.5,0,0.76,0,0,0,0, ,0,0,0,0,0, ,-38.5,336.1,941.7,-0.6,-0.5,-1.8,25,-38.6392,336.444,941.657,-0.526073,-0.567051,-1.76171,
2026_07_06_17_31_37.775,3.875,30.5,0,0.759,0,0,0,0, ,0,0,0,0,0, ,-39,337.1,940.7,-0.6,-0.5,-1.8,25,-38.6459,336.453,941.629,-0.530578,-0.562965,-1.76405,
2026_07_06_17_31_37.795,3.875,30.5,0,0.76,0,0,0,0, ,0,0,0,0,0, ,-37.4,336.6,940.7,-0.5,-0.6,-1.8,25,-38.6188,336.477,941.573,-0.531761,-0.562175,-1.76624,
2026_07_06_17_31_37.815,3.875,30.4,0,0.759,0,0,0,0, ,0,0,0,0,0, ,-38.3,336.7,941.8,-0.6,-0.5,-1.7,25,-38.5719,336.488,941.553,-0.532873,-0.561433,-1.76525,
2026_07_06_17_31_37.835,3.875,30.5,0,0.758,0,0,0,0, ,0,0,0,0,0, ,-38,336.6,942,-0.6,-0.6,-1.8,25,-38.5462,336.498,941.574,-0.536963,-0.560737,-1.76432,
2026_07_06_17_31_37.855,3.875,30.5,0,0.759,0,0,0,0, ,0,0,0,0,0, ,-37.5,335.2,942.1,-0.5,-0.6,-1.8,25,-38.4977,336.461,941.603,-0.537758,-0.563129,-1.76649,
2026_07_06_17_31_37.874,3.875,30.4,0,0.759,0,0,0,0, ,0,0,0,0,0, ,-38,335.6,942.9,-0.5,-0.6,-1.8,25,-38.4521,336.397,941.658,-0.535457,-0.565376,-1.76853,
2026_07_06_17_31_37.894,3.875,30.5,0,0.76,0,0,0,0, ,0,0,0,0,0, ,-38,335.6,941.7,-0.6,-0.6,-1.7,25,-38.4246,336.348,941.697,-0.536343,-0.567486,-1.7674,
2026_07_06_17_31_37.913,3.875,30.5,0,0.76,0,0,0,0, ,0,0,0,0,0, ,-38.6,337.2,942.1,-0.5,-0.6,-1.8,25,-38.417,336.351,941.709,-0.537175,-0.569467,-1.76634,
2026_07_06_17_31_37.934,3.875,30.5,0,0.76,0,0,0,0, ,0,0,0,0,0, ,-40,336.3,939,-0.4,-0.5,-1.7,25,-38.4708,336.376,941.639,-0.531863,-0.568281,-1.76535,
2026_07_06_17_31_37.953,3.875,30.5,0,0.759,0,0,0,0, ,0,0,0,0,0, ,-38.6,334.4,944.8,-0.7,-0.6,-1.8,25,-38.5213,336.313,941.655,-0.532968,-0.567167,-1.76441,
2026_07_06_17_31_37.972,3.875,30.7,0,0.76,0,0,0,0, ,0,0,0,0,0, ,-38.8,339.4,939.9,-0.8,-0.6,-1.8,25,-38.5322,336.349,941.697,-0.546194,-0.569168,-1.76658,
2026_07_06_17_31_37.993,3.875,30.4,0,0.76,0,0,0,0, ,0,0,0,0,0, ,-39,326.9,943.9,9.3,-0.4,-1.6,25,-38.5546,336.154,941.709,-0.253926,-0.564953,-1.76252,
2026_07_06_17_31_38.012,3.875,30.4,0,0.759,0,0,0,0, ,0,0,0,0,0, ,-39,330.5,946.6,3.4,-1.2,-1.2,25,-38.5818,335.7,941.925,0.148501,-0.579276,-1.74043,
2026_07_06_17_31_38.032,3.875,30.7,0,0.76,0,0,0,0, ,0,0,0,0,0, ,-47.1,278.6,965.5,-46.7,-0.5,-0.5,25,-38.854,333.801,942.786,-1.17984,-0.595773,-1.68617,
2026_07_06_17_31_38.052,3.875,30.5,0,0.759,0,0,0,0, ,0,0,0,0,0, ,-36.4,405.3,925.5,-28.1,5.3,12.1,25,-39.0305,334.298,942.951,-3.38701,-0.413218,-1.22998,
2026_07_06_17_31_38.072,3.875,30.4,0,0.759,0,0,0,0, ,0,0,0,0,0, ,-39.5,365.6,934.8,2.3,-0.2,-2,25,-38.9647,337.415,942.171,-3.96671,-0.232647,-0.847297,
2026_07_06_17_31_38.090,3.875,30.5,0,0.76,0,0,0,0, ,0,0,0,0,0, ,-38.3,299.6,950.6,7.3,-0.3,-1.6,25,-38.9607,337.122,942.203,-3.43249,-0.233705,-0.905352,
2026_07_06_17_31_38.111,3.875,30.5,0,0.76,0,0,0,0, ,0,0,0,0,0, ,-37.1,322.1,944.2,-2.8,-0.9,-2.1,25,-38.8839,335.521,942.52,-3.08621,-0.256026,-0.962917,
2026_07_06_17_31_38.131,3.875,30.5,0,0.76,0,0,0,0, ,0,0,0,0,0, ,-47.8,347.9,939,-12.6,-1.4,-3.4,25,-39.1012,335.489,942.464,-3.36736,-0.310502,-1.07182,
2026_07_06_17_31_38.151,3.875,30.4,0,0.76,0,0,0,0, ,0,0,0,0,0, ,-128.6,302.2,917.2,25.5,3.4,7.3,25,-42.0932,334.853,941.589,-2.76912,-0.230644,-0.887675,
2026_07_06_17_31_38.171,3.875,30.7,0,0.76,0,0,0,0, ,0,0,0,0,0, ,-90.5,417.9,1135.7,24.6,-4.5,29,25,-46.2038,336.388,946.76,-1.07389,-0.250104,0.272433,
2026_07_06_17_31_38.190,3.875,30.5,0,0.759,0,0,0,0, ,0,0,0,0,0, ,94.6,473.2,1097.7,-23.5,-50.8,4.8,25,-43.2634,343.04,957.116,-0.974935,-1.91979,1.28568,
2026_07_06_17_31_38.211,3.875,30.4,0,0.76,0,0,0,0, ,0,0,0,0,0, ,51.3,67.1,1163.2,-3.9,-83.8,8.3,25,-36.1816,338.599,967.678,-1.75037,-5.90389,1.60647,
2026_07_06_17_31_38.231,3.875,30.4,0,0.76,0,0,0,0, ,0,0,0,0,0, ,75.5,651.3,1232.7,-14.1,-139,13,25,-30.1133,339.854,981.71,-2.19214,-12.3326,2.15756,
2026_07_06_17_31_38.250,3.875,30.5,0,0.761,0,0,0,0, ,0,0,0,0,0, ,246.5,422.4,1023.4,-62.4,-181.2,33,25,-18.4674,351.858,990.628,-4.38942,-21.3371,3.42765,
2026_07_06_17_31_38.270,3.875,30.5,0,0.759,0,0,0,0, ,0,0,0,0,0, ,190,376.7,965.9,-45.8,-195.4,58,25,-4.04242,354.765,990.873,-7.41866,-31.5114,5.99143,
2026_07_06_17_31_38.290,3.875,30.5,0,0.761,0,0,0,0, ,0,0,0,0,0, ,121.2,354.3,953.2,-70.1,-196.5,67.6,25,5.68579,355.419,988.964,-10.4979,-41.5319,9.4532,
2026_07_06_17_31_38.309,3.875,30.5,0,0.76,0,0,0,0, ,0,0,0,0,0, ,176.2,287.3,1038.5,-60.8,-189.1,68.7,25,14.4007,353.309,989.384,-13.8466,-50.7498,13.03,
2026_07_06_17_31_38.329,3.875,30.4,0,0.759,0,0,0,0, ,0,0,0,0,0, ,310.6,307.4,1067.9,-97.1,-177.5,43.1,25,28.3554,349.899,993.273,-17.8138,-58.8271,15.6424,
2026_07_06_17_31_38.349,3.875,30.5,0,0.76,0,0,0,0, ,0,0,0,0,0, ,415.5,674.4,691.1,-111.8,-134.1,18.9,25,48.7508,358.491,986.34,-23.0932,-64.7364,16.5783,
2026_07_06_17_31_38.369,3.875,30.5,0,0.76,0,0,0,0, ,0,0,0,0,0, ,277.4,176.8,456.7,-94.1,-34.6,27.4,25,66.8919,362.581,961.207,-27.9595,-65.9316,16.9787,
2026_07_06_17_31_38.389,3.875,30.5,0,0.76,0,0,0,0, ,0,0,0,0,0, ,401.8,53.4,794.5,37,42.6,20.1,25,83.51,347.5,940.756,-27.9954,-61.6701,17.3914,
2026_07_06_17_31_38.408,3.875,30.5,0,0.76,0,0,0,0, ,0,0,0,0,0, ,379,-13.6,1141.3,72.7,43.6,-23.8,25,102.211,327.537,942.41,-22.9471,-55.2857,16.2188,
2026_07_06_17_31_38.428,3.875,30.5,0,0.76,0,0,0,0, ,0,0,0,0,0, ,273.1,162.4,1061,-51.4,5.3,-51.9,25,115.851,312.111,952.083,-20.8997,-50.4268,12.924,
2026_07_06_17_31_38.448,3.875,30.5,0,0.76,0,0,0,0, ,0,0,0,0,0, ,276.1,197.1,954.1,-50.5,-10.3,-54.8,25,125.525,304.046,955.463,-22.7309,-47.5063,8.88545,
2026_07_06_17_31_38.468,3.875,30.4,0,0.76,0,0,0,0, ,0,0,0,0,0, ,315.4,237,896.7,-51.9,-32.6,-46.2,25,135.898,298.744,953.631,-24.4658,-45.9185,5.26665,
2026_07_06_17_31_38.487,3.875,30.5,0,0.759,0,0,0,0, ,0,0,0,0,0, ,300.1,352.4,724.8,-71.2,-31.4,-13.8,25,146.37,298.498,944.924,-26.7256,-45.0703,3.11759,
2026_07_06_17_31_38.507,3.875,30.4,0,0.76,0,0,0,0, ,0,0,0,0,0, ,378,-454.7,490.8,20.6,-12.4,21.3,25,158.112,277.191,924.381,-26.6387,-43.6584,3.15613,
2026_07_06_17_31_38.526,3.875,30.5,0,0.759,0,0,0,0, ,0,0,0,0,0, ,435.6,540.1,831.2,34.3,-21.1,28.2,25,173.266,262.902,908.331,-23.3427,-42.0186,4.472,
2026_07_06_17_31_38.547,3.875,30.5,0,0.76,0,0,0,0, ,0,0,0,0,0, ,294.4,329.7,984.6,-21.8,-47.1,11.9,25,184.95,273.383,908.305,-21.5394,-41.5361,5.42129,
2026_07_06_17_31_38.571,3.875,30.5,0,0.76,0,0,0,0, ,0,0,0,0,0, ,244.8,-92.1,1088.1,-40.4,-67.1,11.7,25,190.108,263.963,916.107,-22.122,-42.4845,5.80999,
2026_07_06_17_31_38.586,3.875,30.5,0,0.759,0,0,0,0, ,0,0,0,0,0, ,358.7,-49.9,966,-94.7,-72.3,-18.5,25,196.912,243.551,922.868,-24.8902,-44.143,5.24876,
2026_07_06_17_31_38.606,3.875,30.5,0,0.761,0,0,0,0, ,0,0,0,0,0, ,484.4,0.2,889.4,-59.2,-47.2,-44.5,25,210.6,227.196,923.162,-28.0626,-45.094,3.00938,
2026_07_06_17_31_38.626,3.875,30.7,0,0.76,0,0,0,0, ,0,0,0,0,0, ,525.7,46.5,822.6,-86.9,-5.8,-64.6,25,228.543,214.774,919.07,-30.8041,-43.9609,-0.498145,
2026_07_06_17_31_38.646,3.875,30.5,0,0.76,0,0,0,0, ,0,0,0,0,0, ,487.1,27.2,848.2,-86.2,41.8,-74.1,25,245.475,203.932,913.971,-34.2011,-40.1852,-4.6938,
2026_07_06_17_31_38.666,3.875,30.5,0,0.76,0,0,0,0, ,0,0,0,0,0, ,310.7,-2.3,764.8,-99.5,62.2,-95.3,25,254.825,192.263,907.422,-37.775,-34.5677,-9.56918,
2026_07_06_17_31_38.686,3.875,30.5,0,0.76,0,0,0,0, ,0,0,0,0,0, ,575.8,56.5,973.2,21,-74.8,-94.8,25,266.307,182.199,905.081,-37.8649,-32.8451,-14.7782,
2026_07_06_17_31_38.705,3.875,30.5,0,0.759,0,0,0,0, ,0,0,0,0,0, ,508,179.5,799.6,-114.8,-250.1,-54.6,25,283.101,178.286,903.942,-38.4154,-40.7429,-18.4297,
2026_07_06_17_31_38.724,3.875,30.5,0,0.759,0,0,0,0, ,0,0,0,0,0, ,718.3,117.1,586.1,-122.8,-250.1,-22.2,25,303.213,176.459,891.079,-43.3139,-53.5006,-19.6466,
2026_07_06_17_31_38.745,3.875,30.5,0,0.76,0,0,0,0, ,0,0,0,0,0, ,860.9,77.6,516.6,-66.4,-250.1,-14.9,25,332.852,171.638,870.377,-46.4391,-65.4809,-19.5798,
2026_07_06_17_31_38.765,3.875,30.5,0,0.761,0,0,0,0, ,0,0,0,0,0, ,927.3,37.2,480.4,72.4,-250.1,62.9,25,367.053,164.677,847.715,-43.4264,-76.7311,-16.9241,
2026_07_06_17_31_38.784,3.875,30.5,0,0.76,0,0,0,0, ,0,0,0,0,0, ,1002.9,-90.4,411.9,81.8,-214.8,110.7,25,403.497,153.021,823.245,-36.0819,-86.2202,-10.6034,
2026_07_06_17_31_38.803,3.875,30.5,0,0.759,0,0,0,0, ,0,0,0,0,0, ,949.9,-94.2,285.8,41.2,-119.1,89.6,25,438.408,138.072,794.337,-30.1355,-91.1397,-3.85441,
2026_07_06_17_31_38.824,3.875,30.5,0,0.76,0,0,0,0, ,0,0,0,0,0, ,887.3,8.6,394,59.5,-81.3,30.2,25,467.67,127.05,766.644,-25.2309,-91.6918,0.0306281,
2026_07_06_17_31_38.844,3.875,30.5,0,0.759,0,0,0,0, ,0,0,0,0,0, ,902.5,80.5,355.7,49.7,-80.2,8.9,25,493.704,122.023,742.769,-20.3662,-91.025,1.22009,
2026_07_06_17_31_38.863,3.875,30.5,0,0.76,0,0,0,0, ,0,0,0,0,0, ,897.7,69.7,310.9,36.8,-69.7,23.5,25,518.469,119.163,717.817,-16.4896,-90.0455,2.13293,
2026_07_06_17_31_38.883,3.875,30.5,0,0.76,0,0,0,0, ,0,0,0,0,0, ,857,-5.2,291.6,29.8,-40.3,38.6,25,540.338,113.867,692.433,-13.4555,-87.9099,3.89506,
2026_07_06_17_31_38.902,3.875,30.5,0,0.761,0,0,0,0, ,0,0,0,0,0, ,873.5,-126.7,276.4,21.2,-17.2,36.1,25,560.138,102.909,667.544,-11.0817,-84.3048,5.93372,
2026_07_06_17_31_38.923,3.875,30.5,0,0.759,0,0,0,0, ,0,0,0,0,0, ,860.8,-91.9,200.9,9.4,-34.4,4.3,25,578.846,89.9779,641.408,-9.47404,-80.7397,6.80307,
2026_07_06_17_31_38.942,3.875,30.7,0,0.761,0,0,0,0, ,0,0,0,0,0, ,807.7,-28.3,175.2,12,-62.4,-7.4,25,594.41,80.8325,613.782,-8.24468,-78.769,6.29406,
2026_07_06_17_31_38.962,3.875,30.5,0,0.76,0,0,0,0, ,0,0,0,0,0, ,844.8,43.3,247.1,-11.1,-108,-25.8,25,608.538,76.3638,589.246,-7.71485,-79.1609,4.89895,
2026_07_06_17_31_38.987,3.875,30.5,0,0.76,0,0,0,0, ,0,0,0,0,0, ,832.2,17.7,374.8,-4.8,-120.2,-30.5,25,622.551,73.569,572.288,-7.72918,-81.29,2.88503,
2026_07_06_17_31_39.001,3.875,30.7,0,0.76,0,0,0,0, ,0,0,0,0,0, ,984.2,-91.1,303.7,-27.7,-118.7,-12,25,639.958,66.8495,558.087,-8.24842,-83.6154,1.4143,
2026_07_06_17_31_39.021,3.875,30.5,0,0.76,0,0,0,0, ,0,0,0,0,0, ,1089.2,-100.8,172.1,-29.2,-77.5,-19.6,25,664.134,56.9289,538.576,-9.47945,-84.498,0.365306,
2026_07_06_17_31_39.041,3.875,30.5,0,0.76,0,0,0,0, ,0,0,0,0,0, ,999.3,97.6,102.5,20.5,-61.1,-37.7,25,687.297,53.3623,514.123,-9.16688,-83.5719,-1.40281,
2026_07_06_17_31_39.061,3.875,30.5,0,0.759,0,0,0,0, ,0,0,0,0,0, ,971.8,-75.9,79.3,27.8,-119.4,-40.3,25,705.472,50.7717,488.333,-7.13663,-83.9788,-3.69389,
2026_07_06_17_31_39.082,3.875,30.5,0,0.76,0,0,0,0, ,0,0,0,0,0, ,934.3,18.3,231.8,34.1,-127.5,-33.3,25,720.559,45.9228,468.054,-4.81572,-86.3841,-5.7113,
2026_07_06_17_31_39.100,3.875,30.7,0,0.76,0,0,0,0, ,0,0,0,0,0, ,907.2,-0.8,-23.4,35.2,-105.8,-45,25,732.758,43.6576,445.881,-2.41078,-88.2284,-7.74897,
2026_07_06_17_31_39.120,3.875,30.5,0,0.758,0,0,0,0, ,0,0,0,0,0, ,901.1,51.1,31,42.2,-124.7,-56.1,25,743.202,42.5298,418.942,0.0944059,-89.8751,-10.3572,
2026_07_06_17_31_39.140,3.875,30.5,0,0.76,0,0,0,0, ,0,0,0,0,0, ,990.8,63.2,-46.1,35.2,-102.8,-60.2,25,755.557,43.4207,392.953,2.44693,-91.3299,-13.2695,
2026_07_06_17_31_39.161,3.875,30.4,0,0.76,0,0,0,0, ,0,0,0,0,0, ,1110.8,90.4,-119.7,10.4,-58.3,-49.4,25,773.549,45.4547,363.955,3.6872,-90.673,-15.8003,
2026_07_06_17_31_39.180,3.875,30.5,0,0.759,0,0,0,0, ,0,0,0,0,0, ,1072.9,125.8,-114.6,-1.3,-16,-17.4,25,792.945,49.2722,334.638,3.73978,-87.4115,-16.8728,
2026_07_06_17_31_39.204,3.875,30.5,0,0.76,0,0,0,0, ,0,0,0,0,0, ,1041.8,107.2,-142.9,8.6,3.7,-15.2,25,809.057,53.3689,306.4,3.73431,-82.4596,-16.8379,
2026_07_06_17_31_39.220,3.875,30.5,0,0.76,0,0,0,0, ,0,0,0,0,0, ,1036.9,131.9,-189.5,2.4,-1.2,-15.4,25,823.091,57.4018,277.601,3.8419,-77.3586,-16.7442,
2026_07_06_17_31_39.238,3.875,30.4,0,0.759,0,0,0,0, ,0,0,0,0,0, ,1082,117.1,-181.1,7.8,-9,-4.8,25,837.494,61.4906,249.393,3.91857,-72.9553,-16.3393,
2026_07_06_17_31_39.260,3.875,30.5,0,0.759,0,0,0,0, ,0,0,0,0,0, ,1057.8,99.9,-125,6.7,-5.1,3.2,25,851.656,64.3552,224.869,4.12158,-68.9392,-15.3924,
2026_07_06_17_31_39.279,3.875,30.5,0,0.76,0,0,0,0, ,0,0,0,0,0, ,1000,117.4,-82.3,2.5,7.7,2.2,25,862.457,67.0544,204.85,4.15073,-64.659,-14.2899,
2026_07_06_17_31_39.298,3.875,30.7,0,0.76,0,0,0,0, ,0,0,0,0,0, ,987.5,113.4,-93.9,-3.1,16.3,-0.3,25,870.458,70.0005,186.999,3.87951,-59.9876,-13.3612,
2026_07_06_17_31_39.318,3.875,30.7,0,0.761,0,0,0,0, ,0,0,0,0,0, ,985.4,115.6,-118.5,-3.2,20.5,-1.3,25,877.526,72.7122,169.132,3.45115,-55.2108,-12.5957,
2026_07_06_17_31_39.337,3.875,30.5,0,0.76,0,0,0,0, ,0,0,0,0,0, ,970,110.7,-100.3,-1.2,20.1,2.4,25,883.63,75.1764,152.159,3.10679,-50.6094,-11.7947,
2026_07_06_17_31_39.358,3.875,30.7,0,0.76,0,0,0,0, ,0,0,0,0,0, ,998.9,91.7,-73.6,-0.1,24.3,-2.9,25,889.774,76.7622,137.588,2.87786,-46.1726,-11.0912,
2026_07_06_17_31_39.378,3.875,30.5,0,0.76,0,0,0,0, ,0,0,0,0,0, ,988.4,90.9,-88.5,-2.2,19.7,0.6,25,896.104,77.6481,124.265,2.63241,-42.0183,-10.4854,
2026_07_06_17_31_39.397,3.875,30.5,0,0.761,0,0,0,0, ,0,0,0,0,0, ,1052.1,96.9,-108,0.5,10.7,2,25,903.669,78.6384,110.705,2.4202,-38.5316,-9.7672,
2026_07_06_17_31_39.417,3.875,30.7,0,0.76,0,0,0,0, ,0,0,0,0,0, ,981.9,102.2,-56.7,1.4,6.1,0.8,25,910.575,79.9127,98.941,2.33061,-35.6717,-9.0867,
2026_07_06_17_31_39.439,3.875,30.5,0,0.76,0,0,0,0, ,0,0,0,0,0, ,981.6,103.6,-45.7,0.5,0,-1.5,25,914.912,81.3135,89.7918,2.24648,-33.3121,-8.5543,
2026_07_06_17_31_39.457,3.875,30.7,0,0.759,0,0,0,0, ,0,0,0,0,0, ,982.6,112,-71.4,-1.2,-16.6,-1.2,25,919.007,82.9275,80.7522,2.08826,-31.7879,-8.11529,
2026_07_06_17_31_39.476,3.875,30.7,0,0.76,0,0,0,0, ,0,0,0,0,0, ,1001.2,99.8,-92.5,0.7,-23,-2.1,25,923.449,84.3274,70.8375,1.94577,-31.0574,-7.72131,
2026_07_06_17_31_39.497,3.875,30.5,0,0.76,0,0,0,0, ,0,0,0,0,0, ,997.3,106.5,-83.7,3.2,-29.9,-1.7,25,928.068,85.4744,61.1523,1.94603,-30.7766,-7.36658,
2026_07_06_17_31_39.516,3.875,30.7,0,0.761,0,0,0,0, ,0,0,0,0,0, ,1064.2,70.1,-93.6,3.3,-49,1,25,934.325,85.6466,52.0237,2.02549,-31.3052,-6.939,
2026_07_06_17_31_39.536,3.875,30.7,0,0.76,0,0,0,0, ,0,0,0,0,0, ,1092.8,109.9,-98.1,-4.3,-69.4,-0.5,25,943.111,85.9119,43.0127,1.87159,-33.005,-6.50092,
2026_07_06_17_31_39.555,3.875,30.5,0,0.76,0,0,0,0, ,0,0,0,0,0, ,864.9,-15.2,-101.5,-6.1,-107.8,13.7,25,945.288,83.562,34.31,1.44067,-36.3928,-5.70259,
2026_07_06_17_31_39.576,3.875,30.7,0,0.76,0,0,0,0, ,0,0,0,0,0, ,1051,205.8,-308.7,-0.6,-154,17.4,25,946.06,84.2773,19.721,1.14873,-42.1519,-4.40751,
2026_07_06_17_31_39.597,3.875,30.5,0,0.76,0,0,0,0, ,0,0,0,0,0, ,1100.7,66.1,-316.7,21.6,-197.2,-1.5,25,953.969,87.4261,-0.535935,1.71858,-50.2839,-3.65447,
2026_07_06_17_31_39.615,3.875,30.7,0,0.76,0,0,0,0, ,0,0,0,0,0, ,1019,136.1,-305,26.5,-202.5,2.4,25,960.421,88.2594,-19.4457,3.0794,-59.398,-3.40436,
2026_07_06_17_31_39.635,3.875,30.5,0,0.762,0,0,0,0, ,0,0,0,0,0, ,945.9,97.2,-405,42.9,-199.8,23.7,25,961.764,89.9894,-39.8935,5.00628,-68.036,-2.40167,
2026_07_06_17_31_39.654,3.875,30.7,0,0.76,0,0,0,0, ,0,0,0,0,0, ,975.9,35.1,-374,30.3,-193.3,26.1,25,961.711,88.5367,-61.1977,6.93152,-75.8674,-0.737973,
2026_07_06_17_31_39.675,3.875,30.5,0,0.761,0,0,0,0, ,0,0,0,0,0, ,941.2,106.2,-512.2,35.4,-181.9,33.1,25,961.518,87.4467,-84.4698,8.51093,-82.6761,1.11075,
2026_07_06_17_31_39.694,3.875,30.7,0,0.761,0,0,0,0, ,0,0,0,0,0, ,785.6,70.3,-624.3,52.6,-183.7,34.3,25,955.539,87.4957,-113.95,10.6735,-88.7774,3.09665,
2026_07_06_17_31_39.714,3.875,30.7,0,0.76,0,0,0,0, ,0,0,0,0,0, ,722.1,64,-585.2,63.4,-190.8,28.3,25,943.249,86.2559,-143.858,13.5575,-94.778,4.8153,
2026_07_06_17_31_39.734,3.875,30.5,0,0.759,0,0,0,0, ,0,0,0,0,0, ,682.1,-46.5,-503.7,57.9,-171,29,25,928.554,81.5329,-168.269,16.4272,-100.026,6.26772,
2026_07_06_17_31_39.753,3.875,30.5,0,0.76,0,0,0,0, ,0,0,0,0,0, ,710.9,-44.9,-611.4,22.1,-144.4,17.1,25,914.413,73.7796,-191.991,17.8637,-103.541,7.29039,
2026_07_06_17_31_39.774,3.875,30.7,0,0.759,0,0,0,0, ,0,0,0,0,0, ,622.9,-35,-712.2,49.6,-133.8,-1.6,25,899.33,66.8492,-220.62,18.9597,-105.708,7.3184,
2026_07_06_17_31_39.794,3.875,30.7,0,0.76,0,0,0,0, ,0,0,0,0,0, ,590.2,-52.8,-739.5,51.2,-157.4,-15.1,25,881.489,60.1004,-251.408,20.8756,-108.138,6.36361,
2026_07_06_17_31_39.813,3.875,30.8,0,0.76,0,0,0,0, ,0,0,0,0,0, ,542.3,-65.1,-742.4,52.8,-177.8,-22.5,25,862.279,52.8458,-281.239,22.7722,-111.762,4.8302,
2026_07_06_17_31_39.832,3.875,30.7,0,0.76,0,0,0,0, ,0,0,0,0,0, ,536.1,-84.1,-746.3,45.7,-190,-30.8,25,842.591,45.0796,-309.46,24.3857,-116.158,2.91188,
2026_07_06_17_31_39.852,3.875,30.7,0,0.759,0,0,0,0, ,0,0,0,0,0, ,495.4,-36.8,-773.1,60.3,-193.3,-15.7,25,822.675,38.6489,-336.896,26.1294,-120.758,1.31764,
2026_07_06_17_31_39.872,3.875,30.7,0,0.759,0,0,0,0, ,0,0,0,0,0, ,439.9,-157.9,-691.5,39.8,-150.7,14.9,25,801.04,30.3614,-360.991,27.5871,-123.881,1.21297,
2026_07_06_17_31_39.892,3.875,30.7,0,0.759,0,0,0,0, ,0,0,0,0,0, ,391.9,-152.5,-970.8,24.4,-141.2,11.9,25,777.571,19.0538,-389.642,27.8621,-125.226,1.95561,
2026_07_06_17_31_39.913,3.875,30.7,0,0.76,0,0,0,0, ,0,0,0,0,0, ,350.5,-130.7,-970.7,32.7,-137.3,-0.3,25,752.808,9.26394,-425.053,27.904,-126.08,2.18988,
2026_07_06_17_31_39.932,3.875,30.7,0,0.758,0,0,0,0, ,0,0,0,0,0, ,278,-144.1,-926.1,25.9,-121.6,-5.8,25,726.083,0.326607,-456.944,27.9891,-126.285,1.87058,
2026_07_06_17_31_39.951,3.875,30.5,0,0.76,0,0,0,0, ,0,0,0,0,0, ,239.6,-151.6,-843.3,22.1,-120.8,-2.5,25,697.608,-8.7029,-483.011,27.746,-125.976,1.5037,
2026_07_06_17_31_39.972,3.875,30.5,0,0.76,0,0,0,0, ,0,0,0,0,0, ,217.8,-164.3,-783.5,5,-100.4,-0.3,25,669.034,-17.7976,-503.144,26.8809,-125.039,1.32675,
2026_07_06_17_31_39.991,3.875,30.5,0,0.76,0,0,0,0, ,0,0,0,0,0, ,240.6,-172.4,-1042.6,11.6,-82.9,-12.5,25,642.231,-26.9719,-528.122,25.7486,-123.004,0.855905,
2026_07_06_17_31_40.011,3.875,30.5,0,0.759,0,0,0,0, ,0,0,0,0,0, ,230.2,-200.6,-1026.1,20.9,-102.1,-19.8,25,617.44,-36.6932,-558.971,25.1698,-121.145,-0.180392,
2026_07_06_17_31_40.031,3.875,30.5,0,0.761,0,0,0,0, ,0,0,0,0,0, ,152.4,-179,-858.3,21.1,-92.9,-1.5,25,591.472,-46.0231,-582.324,24.9157,-119.704,-0.818384,
2026_07_06_17_31_40.051,3.875,30.7,0,0.761,0,0,0,0, ,0,0,0,0,0, ,168.3,-181,-866,-1,-60.9,6.1,25,565.201,-54.1873,-599.376,24.0098,-117.096,-0.628357,
2026_07_06_17_31_40.070,3.875,30.5,0,0.76,0,0,0,0, ,0,0,0,0,0, ,185.4,-196.5,-926.8,-19.9,-42.4,6.7,25,541.536,-62.3872,-617.476,21.9099,-113.108,-0.200067,
2026_07_06_17_31_40.090,3.875,30.7,0,0.76,0,0,0,0, ,0,0,0,0,0, ,152.5,-187.9,-1028.4,-14.3,-30,1.4,25,518.831,-70.2977,-639.421,19.5328,-108.421,0.0589214,
2026_07_06_17_31_40.110,3.875,30.5,0,0.76,0,0,0,0, ,0,0,0,0,0, ,90.8,-171.5,-1062.3,-5.5,-19.3,-5.9,25,494.628,-76.9644,-664.157,17.7392,-103.316,-0.0817784,
2026_07_06_17_31_40.130,3.875,30.7,0,0.76,0,0,0,0, ,0,0,0,0,0, ,101.1,-158.5,-1021.3,-6.7,-13.6,-4,25,470.334,-82.3291,-687.17,16.2865,-98.023,-0.378436,
2026_07_06_17_31_40.150,3.875,30.7,0,0.76,0,0,0,0, ,0,0,0,0,0, ,120.8,-170.2,-974.1,-10.6,-14.1,2,25,448.434,-87.3272,-706.093,14.7669,-92.8937,-0.416312,
2026_07_06_17_31_40.168,3.875,30.7,0,0.76,0,0,0,0, ,0,0,0,0,0, ,113.6,-164.5,-988.8,-13.8,-3.8,10.4,25,428.249,-92.2036,-722.872,13.1236,-87.7784,-0.0131308,
2026_07_06_17_31_40.189,3.875,30.5,0,0.76,0,0,0,0, ,0,0,0,0,0, ,73.7,-147.7,-1038.8,-10.3,12,7.6,25,407.859,-96.0973,-740.601,11.5896,-82.1796,0.536107,
2026_07_06_17_31_40.210,3.875,30.5,0,0.759,0,0,0,0, ,0,0,0,0,0, ,76.4,-138.5,-1031.1,-2.4,19.4,1.4,25,387.579,-98.9615,-758.537,10.4964,-76.215,0.777657,
2026_07_06_17_31_40.228,3.875,30.8,0,0.758,0,0,0,0, ,0,0,0,0,0, ,86,-137.4,-1035.1,1,19.9,3.1,25,368.909,-101.337,-775.269,9.81415,-70.3732,0.867377,
2026_07_06_17_31_40.248,3.875,30.7,0,0.759,0,0,0,0, ,0,0,0,0,0, ,104,-147.9,-1003.4,2.1,23,6,25,352.218,-103.855,-790.136,9.31055,-64.7778,1.09179,
2026_07_06_17_31_40.267,3.875,30.7,0,0.762,0,0,0,0, ,0,0,0,0,0, ,109.9,-160.1,-988.6,3.1,26.5,7.9,25,337.272,-106.911,-802.681,8.90163,-59.3222,1.44877,
2026_07_06_17_31_40.288,3.875,30.5,0,0.76,0,0,0,0, ,0,0,0,0,0, ,106.5,-154.7,-992.7,6.4,41.4,9.1,25,323.313,-109.987,-814.135,8.64864,-53.6384,1.87846,
2026_07_06_17_31_40.307,3.875,30.5,0,0.76,0,0,0,0, ,0,0,0,0,0, ,148.4,-139.4,-1108.5,27,69.8,7.9,25,311.377,-112.246,-828.545,9.13927,-46.9817,2.28196,
2026_07_06_17_31_40.327,3.875,30.7,0,0.76,0,0,0,0, ,0,0,0,0,0, ,189.5,-170.7,-1078.7,30.2,83.3,-1.5,25,302.698,-114.854,-844.697,10.3252,-39.454,2.3379,
2026_07_06_17_31_40.349,3.875,30.7,0,0.759,0,0,0,0, ,0,0,0,0,0, ,227.2,-205.5,-908.3,37.3,133.8,-6.1,25,296.949,-119.318,-853.764,11.7526,-30.435,1.96387,
2026_07_06_17_31_40.368,3.875,30.7,0,0.761,0,0,0,0, ,0,0,0,0,0, ,270.7,-158.3,-892.4,18.3,179.3,-21.7,25,294.024,-123.131,-856.603,12.7305,-19.0406,0.997167,
2026_07_06_17_31_40.387,3.875,30.7,0,0.76,0,0,0,0, ,0,0,0,0,0, ,317.1,-198.8,-913.2,4.8,205.2,-25.6,25,294.016,-126.508,-859.418,12.6586,-6.16506,-0.50477,
2026_07_06_17_31_40.408,3.875,30.7,0,0.76,0,0,0,0, ,0,0,0,0,0, ,330.2,-138.6,-925,5.6,199.8,-35,25,295.822,-129.079,-863.055,12.2041,6.55046,-2.32042,
2026_07_06_17_31_40.426,3.875,30.5,0,0.759,0,0,0,0, ,0,0,0,0,0, ,473.3,-185.3,-954.1,3.5,178.5,-30,25,302.277,-131.082,-867.717,11.7376,17.6776,-4.15948,
2026_07_06_17_31_40.446,3.875,30.8,0,0.759,0,0,0,0, ,0,0,0,0,0, ,530.6,-177.9,-910.2,11.3,164.1,-18.4,25,314.445,-134.161,-871.643,11.4733,27.039,-5.3807,
2026_07_06_17_31_40.466,3.875,30.7,0,0.76,0,0,0,0, ,0,0,0,0,0, ,576.2,-176.1,-814.8,10.8,145.8,-9.5,25,329.006,-136.771,-871.086,11.4475,34.8336,-5.90289,
2026_07_06_17_31_40.486,3.875,30.5,0,0.761,0,0,0,0, ,0,0,0,0,0, ,589.7,-163.3,-741.6,-1.4,125.8,-7.7,25,344.481,-138.778,-865.426,11.0363,40.9862,-6.06725,
2026_07_06_17_31_40.506,3.875,30.7,0,0.76,0,0,0,0, ,0,0,0,0,0, ,627.8,-170.5,-750.4,-10.2,113.6,-10,25,360.585,-140.492,-858.148,10.0104,45.7828,-6.23682,
2026_07_06_17_31_40.525,3.875,30.5,0,0.759,0,0,0,0, ,0,0,0,0,0, ,680.2,-178.9,-780.5,-10.5,113.3,-8.2,25,378.465,-142.576,-852.499,8.76966,49.9063,-6.4113,
2026_07_06_17_31_40.545,3.875,30.5,0,0.76,0,0,0,0, ,0,0,0,0,0, ,736.9,-179.3,-763.3,5.5,120.5,-4.9,25,398.579,-144.802,-847.588,8.08292,53.9887,-6.41975,
2026_07_06_17_31_40.566,3.875,30.5,0,0.76,0,0,0,0, ,0,0,0,0,0, ,729,-164.5,-685.5,15.3,121.1,-2.6,25,418.955,-146.453,-840.081,8.22412,58.06,-6.25706,
2026_07_06_17_31_40.585,3.875,30.5,0,0.76,0,0,0,0, ,0,0,0,0,0, ,761.3,-164.5,-590.2,6.9,138.9,-0.3,25,438.832,-147.553,-827.758,8.39937,62.4439,-5.96413,
2026_07_06_17_31_40.609,3.875,30.5,0,0.759,0,0,0,0, ,0,0,0,0,0, ,796,-177.6,-557.9,-0.2,160.2,-4.8,25,459.54,-148.985,-812.297,8.09167,67.7519,-5.75608,
2026_07_06_17_31_40.626,3.875,30.5,0,0.001,0,0,0,0, ,0,0,0,0,0, ,787.5,-145.9,-559.9,11.5,170.2,-13.1,25,479.784,-149.763,-796.856,7.94288,73.6901,-5.95071,
2026_07_06_17_31_40.644,3.875,30.5,0,0.76,0,0,0,0, ,0,0,0,0,0, ,852.7,-165.2,-492.4,-2.8,173.3,-12.6,25,500.522,-150.115,-780.36,7.72394,79.6657,-6.37114,
2026_07_06_17_31_40.664,3.875,30.7,0,0.76,0,0,0,0, ,0,0,0,0,0, ,891.8,-196.4,-435,-10.2,190.6,-4.6,25,523.174,-151.985,-761.063,6.85717,85.8986,-6.50696,
2026_07_06_17_31_40.684,3.875,30.7,0,0.76,0,0,0,0, ,0,0,0,0,0, ,842.5,-160.5,-412.8,-10.4,198.6,-5.7,25,544.135,-153.598,-740.517,5.81165,92.5226,-6.42427,
2026_07_06_17_31_40.704,3.875,30.7,0,0.76,0,0,0,0, ,0,0,0,0,0, ,833.8,-156.6,-365.7,-12,179.8,-12.8,25,562.052,-153.9,-719.112,4.77501,98.4139,-6.59646,
2026_07_06_17_31_40.724,3.875,30.5,0,0.761,0,0,0,0, ,0,0,0,0,0, ,867.4,-150.8,-340.2,-3.5,151.3,-17.2,25,579.635,-153.887,-696.799,4.01176,102.505,-7.10855,
2026_07_06_17_31_40.742,3.875,30.7,0,0.759,0,0,0,0, ,0,0,0,0,0, ,870.4,-140.8,-309.4,4.5,128.1,-22.1,25,597.262,-153.395,-674.13,3.79777,104.772,-7.8728,
2026_07_06_17_31_40.763,3.875,30.5,0,0.76,0,0,0,0, ,0,0,0,0,0, ,865.3,-153.4,-249.8,-0.3,109.8,-26.2,25,613.751,-153.011,-650.089,3.69431,105.636,-8.86469,
2026_07_06_17_31_40.782,3.875,30.5,0,0.759,0,0,0,0, ,0,0,0,0,0, ,863.7,-131.7,-199,1.2,99.8,-28.3,25,629.031,-152.374,-624.148,3.49661,105.585,-9.98504,
2026_07_06_17_31_40.802,3.875,30.5,0,0.76,0,0,0,0, ,0,0,0,0,0, ,831.6,-117,-166.2,-0.4,92.1,-40.4,25,642.353,-150.666,-597.241,3.30791,104.998,-11.4698,
2026_07_06_17_31_40.823,3.875,30.7,0,0.76,0,0,0,0, ,0,0,0,0,0, ,863.5,-80.8,-105.8,-3.2,79,-49.8,25,654.857,-147.511,-569.135,2.99664,103.812,-13.5191,
2026_07_06_17_31_40.842,3.875,30.7,0,0.761,0,0,0,0, ,0,0,0,0,0, ,967,-114.5,-66.5,-6.1,70.9,-53.2,25,670.725,-144.473,-539.703,2.53068,102.054,-15.8336,
2026_07_06_17_31_40.867,3.875,30.7,0,0.761,0,0,0,0, ,0,0,0,0,0, ,1049.1,-85.2,-90.3,-8.8,60.4,-39.9,25,691.281,-141.754,-511.592,1.92248,99.8353,-17.7054,
2026_07_06_17_31_40.881,3.875,30.7,0,0.76,0,0,0,0, ,0,0,0,0,0, ,1018.3,-83.9,-51.7,-3.6,29.6,-36.3,25,712.147,-138.268,-484.743,1.42752,96.4938,-18.9482,
2026_07_06_17_31_40.901,3.875,30.7,0,0.76,0,0,0,0, ,0,0,0,0,0, ,1015.7,-67,-78.9,-0.8,13,-34.3,25,730.724,-134.44,-459.184,1.20646,91.9117,-19.9446,
2026_07_06_17_31_40.921,3.875,30.7,0,0.76,0,0,0,0, ,0,0,0,0,0, ,1029.2,-70,-60.6,-0.6,8.6,-32.6,25,748.501,-130.422,-435.453,1.09029,86.9689,-20.7676,
2026_07_06_17_31_40.940,3.875,30.7,0,0.76,0,0,0,0, ,0,0,0,0,0, ,1041.5,-64.3,-15.5,-0.5,0.2,-26.3,25,765.981,-126.566,-411.236,0.990334,81.9374,-21.2967,
2026_07_06_17_31_40.960,3.875,30.7,0,0.76,0,0,0,0, ,0,0,0,0,0, ,1044.7,-60.4,7.3,-0.8,3.1,-18.8,25,782.868,-122.653,-386.426,0.890377,77.0449,-21.373,
2026_07_06_17_31_40.980,3.875,30.5,0,0.759,0,0,0,0, ,0,0,0,0,0, ,1012.3,-48.3,5.3,-4.3,6.8,-12.6,25,797.836,-118.491,-362.494,0.680729,72.6516,-21.0273,
2026_07_06_17_31_41.000,3.875,30.7,0,0.76,0,0,0,0, ,0,0,0,0,0, ,993.2,-29.5,-33,-6.4,-1.5,-8.9,25,810.323,-113.641,-341.249,0.313231,68.3859,-20.4011,
2026_07_06_17_31_41.019,3.875,30.7,0,0.76,0,0,0,0, ,0,0,0,0,0, ,991.3,-19.5,-40.7,-4.3,-5.8,-5,25,821.409,-108.209,-322.699,-0.031872,63.9962,-19.5814,
2026_07_06_17_31_41.039,3.875,30.5,0,0.76,0,0,0,0, ,0,0,0,0,0, ,996.4,-25.6,-16.9,-3.6,-5.4,-4.3,25,831.917,-102.989,-304.79,-0.270633,59.7552,-18.6715,
2026_07_06_17_31_41.059,3.875,30.7,0,0.76,0,0,0,0, ,0,0,0,0,0, ,993.5,-19.2,-31.4,-6,-0.6,-5.7,25,841.852,-98.078,-287.688,-0.546641,55.931,-17.8384,
2026_07_06_17_31_41.079,3.875,30.7,0,0.76,0,0,0,0, ,0,0,0,0,0, ,997.6,-16.7,-31.3,-7.1,3.4,-7.6,25,851.218,-93.1952,-272.068,-0.912471,52.608,-17.1566,
2026_07_06_17_31_41.099,3.875,30.5,0,0.76,0,0,0,0, ,0,0,0,0,0, ,1042.2,-8,27.3,-11.5,12.4,-5.6,25,861.497,-88.2687,-255.611,-1.42359,49.8836,-16.5133,
2026_07_06_17_31_41.119,3.875,30.5,0,0.76,0,0,0,0, ,0,0,0,0,0, ,1098.5,-17.9,68.2,-21,42.2,-2.7,25,874.224,-83.6789,-237.125,-2.32707,48.5074,-15.7599,
2026_07_06_17_31_41.138,3.875,30.5,0,0.76,0,0,0,0, ,0,0,0,0,0, ,1088.2,-24.1,34.9,-24.2,82.7,5,25,887.577,-79.8594,-219.533,-3.56245,49.3571,-14.7295,
2026_07_06_17_31_41.157,3.875,30.5,0,0.76,0,0,0,0, ,0,0,0,0,0, ,1012.6,-41.8,64.2,-32.1,103.5,12.5,25,897.499,-77.0009,-203.136,-5.06076,52.0227,-13.2987,
2026_07_06_17_31_41.178,3.875,30.7,0,0.76,0,0,0,0, ,0,0,0,0,0, ,1086.3,-94.6,68.4,-28.6,118.8,16.1,25,906.759,-76.4646,-186.717,-6.60182,55.6257,-11.6169,
2026_07_06_17_31_41.197,3.875,30.7,0,0.76,0,0,0,0, ,0,0,0,0,0, ,1094.1,-66.8,102.7,-27.6,154.5,29.4,25,917.937,-76.7227,-170.126,-7.91186,60.5631,-9.52267,
2026_07_06_17_31_41.217,3.875,30.7,0,0.761,0,0,0,0, ,0,0,0,0,0, ,1054.9,-82.7,91,-21.5,194.2,38.7,25,927.478,-76.6025,-153.857,-8.92575,67.497,-6.86746,
2026_07_06_17_31_41.237,3.875,30.7,0,0.761,0,0,0,0, ,0,0,0,0,0, ,966.3,-53.3,133.4,-3.8,208.1,33.8,25,932.543,-76.0783,-137.644,-9.1527,75.6415,-4.23999,
2026_07_06_17_31_41.257,3.875,30.7,0,0.76,0,0,0,0, ,0,0,0,0,0, ,933.3,-55.6,199.3,1.3,190.1,29.7,25,933.594,-74.7603,-119.12,-8.67113,83.1648,-2.04685,
2026_07_06_17_31_41.276,3.875,30.7,0,0.761,0,0,0,0, ,0,0,0,0,0, ,948.1,-102.1,283.5,4.3,168.1,34.4,25,934.027,-75.0095,-97.1506,-7.9721,89.0108,0.0309249,
2026_07_06_17_31_41.297,3.875,30.7,0,0.759,0,0,0,0, ,0,0,0,0,0, ,917.1,-117.7,349.1,6.9,164.8,41.5,25,933.94,-77.1356,-71.9559,-7.14505,93.7298,2.34162,
2026_07_06_17_31_41.316,3.875,30.7,0,0.76,0,0,0,0, ,0,0,0,0,0, ,833.8,-121,413.9,23,167.1,44.1,25,930.376,-79.7081,-44.3235,-5.79864,98.1307,4.80705,
2026_07_06_17_31_41.336,3.875,30.7,0,0.76,0,0,0,0, ,0,0,0,0,0, ,753.1,-93.1,467.4,34.1,157.9,36.5,25,922.032,-81.3742,-14.7704,-3.70552,102.053,6.9699,
2026_07_06_17_31_41.360,3.875,30.5,0,0.76,0,0,0,0, ,0,0,0,0,0, ,713,-88.2,526.1,32.7,143.6,30.6,25,910.516,-81.9395,16.4004,-1.4444,105.021,8.58963,
2026_07_06_17_31_41.380,3.875,30.7,0,0.76,0,0,0,0, ,0,0,0,0,0, ,678.2,-119,606.5,27.2,139.6,27.7,25,897.42,-83.2594,49.9099,0.468696,107.25,9.84252,
2026_07_06_17_31_41.395,3.875,30.7,0,0.76,0,0,0,0, ,0,0,0,0,0, ,657.5,-126.8,646.9,36.1,142.6,23.4,25,883.43,-85.675,85.058,2.36881,109.312,10.7997,
2026_07_06_17_31_41.416,3.875,30.7,0,0.76,0,0,0,0, ,0,0,0,0,0, ,623.6,-106.8,673,34.6,132.8,16.3,25,868.63,-87.5717,120.091,4.3786,111.042,11.3512,
2026_07_06_17_31_41.435,3.875,30.7,0,0.76,0,0,0,0, ,0,0,0,0,0, ,625.9,-116.9,686.1,32.8,119,14.4,25,853.768,-89.0511,154.183,6.16537,111.948,11.5949,
2026_07_06_17_31_41.455,3.875,30.5,0,0.76,0,0,0,0, ,0,0,0,0,0, ,638.7,-122.6,739.1,31.4,119.2,17,25,840.273,-90.9219,188.211,7.74576,112.384,11.845,
2026_07_06_17_31_41.475,3.875,30.7,0,0.759,0,0,0,0, ,0,0,0,0,0, ,617.4,-147.5,755.9,33.8,133.1,24,25,827.34,-93.6109,222.293,9.26032,113.222,12.3724,
2026_07_06_17_31_41.495,3.875,30.7,0,0.759,0,0,0,0, ,0,0,0,0,0, ,526.3,-108.5,758.9,39.3,145.2,21.1,25,811.771,-95.7065,254.901,10.9233,114.802,12.9926,
2026_07_06_17_31_41.515,3.875,30.7,0,0.76,0,0,0,0, ,0,0,0,0,0, ,481.3,-80.5,759.8,42.6,141.9,13.6,25,793.004,-95.633,285.641,12.753,116.554,13.2582,
2026_07_06_17_31_41.534,3.875,30.7,0,0.76,0,0,0,0, ,0,0,0,0,0, ,469.4,-88.5,777.7,48.5,133,16.4,25,773.647,-94.9546,315.08,14.7516,117.828,13.3643,
2026_07_06_17_31_41.554,3.875,30.7,0,0.761,0,0,0,0, ,0,0,0,0,0, ,453.8,-83.3,800.5,50.7,130,20,25,754.632,-94.4028,343.966,16.8752,118.661,13.659,
2026_07_06_17_31_41.574,3.875,30.5,0,0.76,0,0,0,0, ,0,0,0,0,0, ,404,-65.5,848.3,52,128.4,23.7,25,734.783,-93.1839,373.242,18.976,119.303,14.1581,
2026_07_06_17_31_41.594,3.875,30.7,0,0.76,0,0,0,0, ,0,0,0,0,0, ,334.5,-35.1,884.1,53.4,121,17.8,25,712.508,-90.5706,403.282,21.031,119.632,14.5598,
2026_07_06_17_31_41.613,3.875,30.7,0,0.76,0,0,0,0, ,0,0,0,0,0, ,308.2,-25.2,928.1,50.8,110.9,16.4,25,688.672,-86.8888,433.922,22.9243,119.407,14.7146,
2026_07_06_17_31_41.635,3.875,30.7,0,0.76,0,0,0,0, ,0,0,0,0,0, ,278.4,-10.8,950.6,54.5,114.5,14.3,25,664.579,-82.6909,464.722,24.7357,118.999,14.7533,
2026_07_06_17_31_41.652,3.875,30.7,0,0.76,0,0,0,0, ,0,0,0,0,0, ,216.3,18,957.5,52.1,109,8.9,25,639.154,-77.4325,494.54,26.4764,118.557,14.5612,
2026_07_06_17_31_41.671,3.875,30.7,0,0.76,0,0,0,0, ,0,0,0,0,0, ,186.8,39.9,976.3,47.7,87.5,5.8,25,612.487,-70.9498,523.325,27.9037,117.32,14.1217,
2026_07_06_17_31_41.692,3.875,30.7,0,0.76,0,0,0,0, ,0,0,0,0,0, ,168.9,25.3,1011.2,47.6,69.4,8.3,25,586.002,-64.6398,551.991,29.107,114.951,13.6908,
2026_07_06_17_31_41.712,3.875,30.7,0,0.758,0,0,0,0, ,0,0,0,0,0, ,153,79.7,1005.4,50.8,52.2,10.8,25,560.1,-57.5016,579.798,30.3314,111.651,13.4385,
2026_07_06_17_31_41.732,3.875,30.8,0,0.76,0,0,0,0, ,0,0,0,0,0, ,133.6,109.6,1010,44,37,6.8,25,534.701,-48.2298,605.873,31.3715,107.565,13.1558,
2026_07_06_17_31_41.752,3.875,30.7,0,0.76,0,0,0,0, ,0,0,0,0,0, ,124,79.8,1020.7,37.5,33.4,6.4,25,509.967,-39.52,630.825,31.943,103.155,12.7563,
2026_07_06_17_31_41.772,3.875,30.7,0,0.76,0,0,0,0, ,0,0,0,0,0, ,116.6,126.2,1082.8,38.5,32.7,4.8,25,486.221,-30.8352,656.475,32.3121,98.8834,12.3202,
2026_07_06_17_31_41.791,3.875,30.7,0,0.76,0,0,0,0, ,0,0,0,0,0, ,107,143.3,1095.2,25.5,34.3,2.6,25,463.405,-20.7449,682.832,32.2931,94.8991,11.7949,
2026_07_06_17_31_41.811,3.875,30.7,0,0.76,0,0,0,0, ,0,0,0,0,0, ,112.3,127.5,1046.7,13.1,30.1,0.2,25,441.848,-11.2298,706.483,31.5014,91.0784,11.1615,
2026_07_06_17_31_41.830,3.875,30.7,0,0.761,0,0,0,0, ,0,0,0,0,0, ,117.7,119.5,1023.6,14.4,27.9,1.4,25,421.931,-3.0197,726.511,30.4196,87.2955,10.5301,
2026_07_06_17_31_41.850,3.875,30.7,0,0.76,0,0,0,0, ,0,0,0,0,0, ,91.1,124.3,1022,9.3,26,1.5,25,402.581,4.5926,744.567,29.288,83.6182,9.97678,
2026_07_06_17_31_41.871,3.875,30.7,0,0.761,0,0,0,0, ,0,0,0,0,0, ,72.3,129.2,1003.2,8,21.2,1.8,25,383.028,12.0366,760.9,28.0304,79.9608,9.46936,
2026_07_06_17_31_41.889,3.875,30.7,0,0.761,0,0,0,0, ,0,0,0,0,0, ,63.2,138.5,1012.3,10.4,19.3,1.1,25,363.815,19.4596,775.942,26.8829,76.3222,8.98068,
2026_07_06_17_31_41.910,3.875,30.7,0,0.76,0,0,0,0, ,0,0,0,0,0, ,54.9,145.5,1035.7,12.5,11.5,0.1,25,345.244,26.9269,791.058,25.9425,72.6097,8.46999,
2026_07_06_17_31_41.929,3.875,30.7,0,0.76,0,0,0,0, ,0,0,0,0,0, ,37.2,171.2,1022.3,4.3,-2.6,2.1,25,327.012,34.9355,805.558,24.8735,68.4563,8.02088,
2026_07_06_17_31_41.949,3.875,30.7,0,0.761,0,0,0,0, ,0,0,0,0,0, ,43,134.3,1053.9,0.1,-25.4,3.6,25,309.528,42.1148,819.728,23.4918,63.4316,7.70578,
2026_07_06_17_31_41.969,3.875,30.7,0,0.761,0,0,0,0, ,0,0,0,0,0, ,75.9,164.4,1067.9,-4.1,-43.7,5.7,25,294.289,48.6494,834.425,21.9384,57.4608,7.51957,
2026_07_06_17_31_41.989,3.875,30.7,0,0.76,0,0,0,0, ,0,0,0,0,0, ,124.6,156.4,1092.1,-6.7,-59.4,11,25,282.465,55.4592,849.39,20.2725,50.818,7.57017,
2026_07_06_17_31_42.009,3.875,30.7,0,0.76,0,0,0,0, ,0,0,0,0,0, ,129.1,155.1,1098.9,-13.3,-73.3,18.1,25,272.982,61.5707,864.387,18.4278,43.6781,7.9955,
2026_07_06_17_31_42.030,3.875,30.7,0,0.759,0,0,0,0, ,0,0,0,0,0, ,137.9,137.6,1080.5,-23.9,-97.9,19.3,25,264.482,66.7369,878.117,16.1714,35.8002,8.64781,
2026_07_06_17_31_42.048,3.875,30.5,0,0.76,0,0,0,0, ,0,0,0,0,0, ,178.5,115.1,1036.3,-35.7,-134,21.6,25,258.006,70.3696,889.103,13.37,26.5529,9.367,
2026_07_06_17_31_42.068,3.875,30.7,0,0.76,0,0,0,0, ,0,0,0,0,0, ,250,92,979.4,-38.4,-161.7,22.2,25,255.339,72.3915,896.339,10.2975,15.9252,10.1307,
2026_07_06_17_31_42.088,3.875,30.7,0,0.76,0,0,0,0, ,0,0,0,0,0, ,339.7,110.9,964.7,-42.6,-181.6,28.8,25,257.747,74.1623,900.953,7.20205,4.49486,11.0673,
2026_07_06_17_31_42.107,3.875,30.8,0,0.76,0,0,0,0, ,0,0,0,0,0, ,393.5,45.5,943.6,-42.8,-167.7,33.2,25,264.38,74.4083,904.194,4.16115,-6.42178,12.2819,
2026_07_06_17_31_42.129,3.875,30.7,0,0.762,0,0,0,0, ,0,0,0,0,0, ,410,58.8,925.4,-42.2,-137.4,27.9,25,272.751,73.052,906.041,1.31774,-15.3265,13.3952,
2026_07_06_17_31_42.147,3.875,30.7,0,0.761,0,0,0,0, ,0,0,0,0,0, ,417.6,18,865.6,-42.3,-126.3,19.9,25,281.346,70.9404,905.399,-1.33717,-22.4271,14.0353,
2026_07_06_17_31_42.169,3.875,30.7,0,0.759,0,0,0,0, ,0,0,0,0,0, ,466.1,12,810,-29.6,-141.2,12.2,25,291.127,67.5315,901.279,-3.44639,-29.2109,14.1581,
2026_07_06_17_31_42.187,3.875,30.7,0,0.761,0,0,0,0, ,0,0,0,0,0, ,485.4,17.5,783.2,-30.5,-153.1,12,25,302.377,64.3151,894.901,-5.06755,-36.3978,14.0327,
2026_07_06_17_31_42.206,3.875,30.7,0,0.76,0,0,0,0, ,0,0,0,0,0, ,588.8,1.8,756.8,-44.8,-170.5,17.7,25,316.681,60.984,887.289,-7.05304,-44.0395,14.0825,
2026_07_06_17_31_42.226,3.875,30.7,0,0.758,0,0,0,0, ,0,0,0,0,0, ,668.3,-64.8,770,-37.4,-163.6,23.2,25,335.685,55.3482,879.74,-9.12778,-51.5354,14.4705,
2026_07_06_17_31_42.247,3.875,30.7,0,0.76,0,0,0,0, ,0,0,0,0,0, ,686.5,-66.7,760.3,-31.1,-151.5,27.6,25,356.509,47.9688,872.757,-10.6587,-57.9957,15.1365,
2026_07_06_17_31_42.266,3.875,30.7,0,0.761,0,0,0,0, ,0,0,0,0,0, ,691,-68.4,718.9,-34.4,-147.6,29.3,25,376.755,40.9294,864.643,-12.0049,-63.5748,15.9478,
2026_07_06_17_31_42.286,3.875,30.7,0,0.761,0,0,0,0, ,0,0,0,0,0, ,690.3,-60.4,665.8,-36.3,-154,26.3,25,395.883,34.5109,854.144,-13.4274,-68.8901,16.67,
2026_07_06_17_31_42.306,3.875,30.7,0,0.759,0,0,0,0, ,0,0,0,0,0, ,732.1,-72.1,629.5,-40.3,-168.1,22.4,25,415.097,28.3708,841.561,-14.9431,-74.5061,17.138,
2026_07_06_17_31_42.327,3.875,30.7,0,0.759,0,0,0,0, ,0,0,0,0,0, ,798.8,-84.7,594.9,-44.4,-169.8,19.2,25,436.447,21.8644,827.584,-16.6132,-80.2612,17.3612,
2026_07_06_17_31_42.345,3.875,30.7,0,0.759,0,0,0,0, ,0,0,0,0,0, ,851,-109,571.8,-41.7,-154,16.5,25,460.118,14.6303,812.701,-18.2242,-85.2361,17.391,
2026_07_06_17_31_42.365,3.875,30.7,0,0.76,0,0,0,0, ,0,0,0,0,0, ,879.1,-156.7,519.8,-41.3,-137.2,17.8,25,484.794,5.64318,796.437,-19.6426,-88.9145,17.3763,
2026_07_06_17_31_42.385,3.875,30.7,0,0.759,0,0,0,0, ,0,0,0,0,0, ,856.2,-150.6,459.7,-43.8,-143.5,18.9,25,508.124,-4.06375,777.748,-21.0385,-92.0489,17.4356,
2026_07_06_17_31_42.404,3.875,30.7,0,0.76,0,0,0,0, ,0,0,0,0,0, ,858,-149,378.2,-46.5,-160.5,19.5,25,529.39,-12.9445,755.884,-22.5078,-95.7021,17.5431,
2026_07_06_17_31_42.424,3.875,30.7,0,0.76,0,0,0,0, ,0,0,0,0,0, ,859.8,-150.6,320.9,-45.6,-158.9,10.9,25,549.469,-21.2842,731.123,-23.9424,-99.602,17.4004,
2026_07_06_17_31_42.445,3.875,30.7,0,0.76,0,0,0,0, ,0,0,0,0,0, ,896.4,-165.6,261.5,-43.4,-153.2,5,25,569.495,-29.6214,704.315,-25.1951,-103.042,16.8245,
2026_07_06_17_31_42.467,3.875,30.7,0,0.76,0,0,0,0, ,0,0,0,0,0, ,908,-192.7,202.1,-35.6,-145.6,5.1,25,589.769,-38.7333,675.521,-26.0668,-105.867,16.107,
2026_07_06_17_31_42.486,3.875,30.8,0,0.761,0,0,0,0, ,0,0,0,0,0, ,898.4,-199.4,180.1,-27.4,-135.8,4.2,25,608.869,-48.3198,646.002,-26.3979,-107.989,15.4088,
2026_07_06_17_31_42.502,3.875,30.7,0,0.76,0,0,0,0, ,0,0,0,0,0, ,834.7,-181.8,151,-27.2,-136.6,-1.1,25,624.572,-56.99,616.724,-26.4529,-109.708,14.5643,
2026_07_06_17_31_42.523,3.875,30.7,0,0.76,0,0,0,0, ,0,0,0,0,0, ,839.4,-180.9,97.7,-24.6,-135,-12.9,25,637.519,-64.5682,586.72,-26.4192,-111.298,13.2502,
2026_07_06_17_31_42.546,3.875,30.7,0,0.761,0,0,0,0, ,0,0,0,0,0, ,937.2,-229.8,65.1,-7.8,-115.8,-21.9,25,652.801,-73.1471,555.927,-25.7965,-112.158,11.3825,
2026_07_06_17_31_42.566,3.875,30.5,0,0.759,0,0,0,0, ,0,0,0,0,0, ,871.5,-185.9,-6.2,19.3,-97.8,-34.7,25,668.13,-81.3555,523.845,-23.8741,-111.831,8.96432,
2026_07_06_17_31_42.582,3.875,30.7,0,0.76,0,0,0,0, ,0,0,0,0,0, ,1048.8,-172.4,-7.5,-5.7,-77.6,-23.3,25,685.925,-87.3149,491.506,-22.0049,-110.361,6.65087,
2026_07_06_17_31_42.601,3.875,30.8,0,0.761,0,0,0,0, ,0,0,0,0,0, ,956.6,-234.2,-4.8,0.5,-60.5,-12.4,25,705.229,-94.3827,461.18,-20.8224,-107.843,5.15784,
2026_07_06_17_31_42.621,3.875,30.7,0,0.761,0,0,0,0, ,0,0,0,0,0, ,880.2,-142.4,-51.8,-5.3,-58.9,-15.6,25,718.219,-100.106,431.352,-19.6998,-104.91,3.99041,
2026_07_06_17_31_42.641,3.875,30.8,0,0.76,0,0,0,0, ,0,0,0,0,0, ,905.7,-160,-78.3,-16.4,-50.6,-11.7,25,728.866,-103.219,401.103,-19.1605,-101.853,2.91545,
2026_07_06_17_31_42.660,3.875,30.8,0,0.76,0,0,0,0, ,0,0,0,0,0, ,969.3,-134.1,-101.4,-16.9,-29.8,-20.1,25,741.58,-105.89,371.185,-19.0075,-98.0961,1.76888,
2026_07_06_17_31_42.682,3.875,30.7,0,0.761,0,0,0,0, ,0,0,0,0,0, ,1059.9,-162.5,-78,-20.5,-11.2,-13.7,25,758.217,-108.475,343.1,-18.9888,-93.3676,0.631249,
2026_07_06_17_31_42.700,3.875,30.5,0,0.76,0,0,0,0, ,0,0,0,0,0, ,1130.2,-195.9,-41.6,-21.4,7.1,-2.8,25,778.743,-112.784,318.548,-19.1083,-87.8029,0.0900481,
2026_07_06_17_31_42.719,3.875,30.7,0,0.76,0,0,0,0, ,0,0,0,0,0, ,1108.6,-139.5,-31.6,-34.2,17.7,17.3,25,799.502,-116.131,296.906,-19.638,-81.6968,0.526358,
2026_07_06_17_31_42.740,3.875,30.7,0,0.76,0,0,0,0, ,0,0,0,0,0, ,1286.9,-260,-7.9,-39.9,12.3,46.9,25,823.77,-121.226,277.61,-20.699,-75.8043,2.45038,
2026_07_06_17_31_42.760,3.875,30.7,0,0.76,0,0,0,0, ,0,0,0,0,0, ,1438.8,-222.5,-60,-33.8,18.5,77.6,25,856.62,-128.54,258.625,-21.6832,-70.2466,6.09442,
2026_07_06_17_31_42.784,3.875,30.7,0,0.76,0,0,0,0, ,0,0,0,0,0, ,1343.8,-209.8,-123.4,-46.5,22.7,116.2,25,889.202,-133.879,237.277,-22.8085,-64.7106,11.6279,
2026_07_06_17_31_42.803,3.875,30.5,0,0.759,0,0,0,0, ,0,0,0,0,0, ,1249.6,-244.6,-129.5,-29.6,27.7,132.7,25,914.034,-139.566,215.112,-23.7373,-59.2317,18.503,
2026_07_06_17_31_42.819,3.875,30.5,0,0.76,0,0,0,0, ,0,0,0,0,0, ,1203.6,-258.6,-130.7,-26.6,30.4,136.6,25,933.081,-146.393,194.076,-24.0031,-53.852,25.5807,
2026_07_06_17_31_42.838,3.875,30.5,0,0.76,0,0,0,0, ,0,0,0,0,0, ,1211.3,-278.9,-120.6,-16.9,37.5,139.2,25,949.8,-153.849,174.592,-23.8658,-48.5016,32.4251,
2026_07_06_17_31_42.858,3.875,30.5,0,0.761,0,0,0,0, ,0,0,0,0,0, ,1192.8,-313.2,-123,-14.5,44.7,151.4,25,965.172,-162.514,156.531,-23.3682,-43.0415,39.3035,
2026_07_06_17_31_42.879,3.875,30.5,0,0.76,0,0,0,0, ,0,0,0,0,0, ,1053.5,-339.4,-118.5,-11.3,61,163.8,25,974.799,-172.495,139.634,-22.7303,-37.1981,46.5121,
2026_07_06_17_31_42.898,3.875,30.7,0,0.761,0,0,0,0, ,0,0,0,0,0, ,1071.7,-372.6,-101.4,5.3,57.2,154.7,25,980.149,-183.677,124.425,-21.528,-31.3299,53.3821,
2026_07_06_17_31_42.920,3.875,30.7,0,0.761,0,0,0,0, ,0,0,0,0,0, ,996.3,-409,-11.8,5,24.5,147.8,25,983.431,-196.299,113.394,-19.9023,-26.9315,59.3459,
2026_07_06_17_31_42.938,3.875,30.8,0,0.76,0,0,0,0, ,0,0,0,0,0, ,1172.3,-515.2,73.8,-9.3,8.9,176.6,25,989.577,-212.496,108.373,-18.8205,-24.2727,65.6136,
2026_07_06_17_31_42.959,3.875,30.7,0,0.761,0,0,0,0, ,0,0,0,0,0, ,1026.2,-548.2,21.9,-7.5,21.7,199,25,996.261,-231.948,104.685,-18.1855,-21.8612,73.0593,
2026_07_06_17_31_42.978,3.875,30.5,0,0.76,0,0,0,0, ,0,0,0,0,0, ,755.1,-541.9,-61,8.3,27.6,190.1,25,989.825,-251.027,97.1144,-17.053,-19.0269,80.4627,
2026_07_06_17_31_43.000,3.875,30.8,0,0.76,0,0,0,0, ,0,0,0,0,0, ,755.6,-588.5,42.8,9.5,14.1,169,25,975.537,-270.172,90.6419,-15.4715,-16.5969,86.5008,
2026_07_06_17_31_43.017,3.875,30.7,0,0.76,0,0,0,0, ,0,0,0,0,0, ,842.6,-646.4,66.8,4.6,6.9,189.1,25,964.785,-291.334,88.4578,-14.0991,-14.9457,92.1405,
2026_07_06_17_31_43.038,3.875,30.7,0,0.76,0,0,0,0, ,0,0,0,0,0, ,589.3,-648.4,-8,3.3,10.7,198.7,25,949.622,-313.032,84.859,-12.9992,-13.4987,98.3415,
2026_07_06_17_31_43.057,3.875,30.7,0,0.761,0,0,0,0, ,0,0,0,0,0, ,565.1,-666.9,50.7,6.2,-2.9,193.9,25,926.927,-334.032,80.9889,-11.9176,-12.4385,104.311,
2026_07_06_17_31_43.079,3.875,30.7,0,0.76,0,0,0,0, ,0,0,0,0,0, ,406.6,-699.7,131.3,-3.7,-8.8,190.5,25,900.049,-355.316,81.5989,-11.1152,-12.037,109.667,
2026_07_06_17_31_43.096,3.875,30.7,0,0.76,0,0,0,0, ,0,0,0,0,0, ,324.2,-698.7,128.4,-5.1,1.1,174.7,25,867.469,-376.271,84.5392,-10.706,-11.5381,114.111,
2026_07_06_17_31_43.117,3.875,30.7,0,0.761,0,0,0,0, ,0,0,0,0,0, ,293.9,-729.1,42.1,-12.4,-7.2,166.4,25,833.44,-396.846,84.5826,-10.5868,-11.0209,117.55,
2026_07_06_17_31_43.136,3.875,30.7,0,0.76,0,0,0,0, ,0,0,0,0,0, ,167.2,-765,25,-24.9,-30,161,25,796.702,-418.186,81.4728,-11.0782,-11.4827,120.362,
2026_07_06_17_31_43.157,3.875,30.5,0,0.76,0,0,0,0, ,0,0,0,0,0, ,79.1,-793.9,38.2,-34.9,-33.9,146,25,755.657,-440.201,78.4336,-12.2251,-12.7299,122.382,
2026_07_06_17_31_43.176,3.875,30.7,0,0.759,0,0,0,0, ,0,0,0,0,0, ,61.6,-842,38.8,-30.7,-6.4,126.5,25,713.896,-463.22,76.0002,-13.4789,-13.1821,123.227,
2026_07_06_17_31_43.197,3.875,30.7,0,0.76,0,0,0,0, ,0,0,0,0,0, ,-55.7,-809.6,-44.3,-13.7,15.7,101.1,25,670.573,-485.314,71.2013,-14.0103,-12.0955,122.652,
2026_07_06_17_31_43.215,3.875,30.7,0,0.76,0,0,0,0, ,0,0,0,0,0, ,-70.4,-828.6,-140.9,-33.1,-6.4,92.1,25,625.868,-505.655,61.2197,-14.5825,-11.075,121.065,
2026_07_06_17_31_43.235,3.875,30.7,0,0.76,0,0,0,0, ,0,0,0,0,0, ,-128.5,-818.9,-133.9,-42.7,-15.7,79.8,25,581.669,-525.038,49.1163,-16.0034,-11.0735,118.925,
2026_07_06_17_31_43.254,3.875,30.7,0,0.759,0,0,0,0, ,0,0,0,0,0, ,-127.4,-855.3,-138.9,-32.5,-2.8,58.8,25,538.426,-544.055,37.8114,-17.3195,-10.9624,115.901,
2026_07_06_17_31_43.275,3.875,30.7,0,0.759,0,0,0,0, ,0,0,0,0,0, ,-94.9,-898.5,-156.2,-20.7,7.8,45.4,25,498.843,-564.337,26.516,-17.885,-10.142,112.013,
2026_07_06_17_31_43.294,3.875,30.7,0,0.76,0,0,0,0, ,0,0,0,0,0, ,-127.6,-910,-175.7,-7.9,10.9,35.9,25,461.665,-585.051,14.7876,-17.6665,-8.95422,107.664,
2026_07_06_17_31_43.315,3.875,30.7,0,0.76,0,0,0,0, ,0,0,0,0,0, ,-123.7,-906.7,-201.6,-7.1,8.4,25.2,25,425.876,-604.752,2.39059,-17.047,-7.82053,102.965,
2026_07_06_17_31_43.334,3.875,30.7,0,0.761,0,0,0,0, ,0,0,0,0,0, ,-134.5,-899.4,-199.9,-11.8,-0.9,19,25,392.057,-622.929,-9.98829,-16.5841,-7.11545,98.0376,
2026_07_06_17_31_43.355,3.875,30.8,0,0.759,0,0,0,0, ,0,0,0,0,0, ,-173.8,-885.6,-190.6,-12.1,-6.4,10.7,25,358.772,-639.356,-21.2777,-16.3017,-6.90427,92.9683,
2026_07_06_17_31_43.373,3.875,30.7,0,0.758,0,0,0,0, ,0,0,0,0,0, ,-176.2,-898.5,-204.7,-0.9,-3.1,-1.5,25,326.246,-654.755,-32.0254,-15.7044,-6.773,87.5834,
2026_07_06_17_31_43.394,3.875,30.5,0,0.759,0,0,0,0, ,0,0,0,0,0, ,-189.4,-890.3,-228.6,18.4,5,-14.6,25,295.226,-669.358,-43.2759,-14.2142,-6.30238,81.7557,
2026_07_06_17_31_43.417,3.875,30.7,0,0.76,0,0,0,0, ,0,0,0,0,0, ,-249.3,-869,-217.7,20.1,-2.1,-29.6,25,263.869,-682.173,-54.237,-12.175,-5.82997,75.427,
2026_07_06_17_31_43.438,3.875,30.7,0,0.762,0,0,0,0, ,0,0,0,0,0, ,-274,-862.4,-190.3,18.1,-12.8,-52.2,25,231.845,-693.357,-63.3632,-10.2692,-5.92869,68.3383,
2026_07_06_17_31_43.452,3.875,30.7,0,0.759,0,0,0,0, ,0,0,0,0,0, ,-297.7,-845.8,-151.9,14.9,-16.7,-82.9,25,200.298,-703.152,-69.9284,-8.63792,-6.46624,60.0576,
2026_07_06_17_31_43.473,3.875,30.7,0,0.759,0,0,0,0, ,0,0,0,0,0, ,-261.1,-834.7,-128,16.3,-15.2,-99.9,25,171.066,-711.506,-74.1953,-7.16092,-7.04415,50.8282,
2026_07_06_17_31_43.492,3.875,30.7,0,0.76,0,0,0,0, ,0,0,0,0,0, ,-78.6,-846,-101.9,29.7,-2.7,-127.4,25,150.292,-719.358,-76.6788,-5.32299,-7.16029,40.8053,
2026_07_06_17_31_43.514,3.875,30.7,0,0.76,0,0,0,0, ,0,0,0,0,0, ,-4.2,-857.7,-89.5,49.1,18.2,-149.8,25,138.611,-727.431,-77.8379,-2.59768,-6.25169,29.8728,
2026_07_06_17_31_43.531,3.875,30.7,0,0.76,0,0,0,0, ,0,0,0,0,0, ,-105.2,-799.9,-20.9,55.7,22.4,-180.8,25,126.831,-733.609,-76.4584,0.753739,-4.6337,17.9795,
2026_07_06_17_31_43.551,3.875,30.7,0,0.76,0,0,0,0, ,0,0,0,0,0, ,-162.4,-677,-3.4,39.1,-1.1,-226.2,25,110.948,-733.904,-72.5396,3.59624,-3.70235,4.48305,
2026_07_06_17_31_43.571,3.875,30.8,0,0.76,0,0,0,0, ,0,0,0,0,0, ,67.1,-544,42.2,-0.2,-17.5,-250.1,25,101.284,-726.384,-66.9371,4.56233,-4.04346,-10.3024,
2026_07_06_17_31_43.592,3.875,30.7,0,0.76,0,0,0,0, ,0,0,0,0,0, ,486.4,-544.7,48.5,2.5,14.7,-250.1,25,111.976,-715.291,-60.0946,4.35439,-3.88237,-24.9151,
2026_07_06_17_31_43.610,3.875,30.7,0,0.76,0,0,0,0, ,0,0,0,0,0, ,640.2,-526.9,-53.3,16.9,60.1,-250.1,25,139.479,-704.353,-56.5788,4.68014,-1.36673,-38.6373,
2026_07_06_17_31_43.632,3.875,30.7,0,0.761,0,0,0,0, ,0,0,0,0,0, ,691.6,-483.3,-68.7,26.3,66.9,-250.1,25,171.558,-692.211,-56.8482,5.7112,2.58609,-51.5233,
2026_07_06_17_31_43.650,3.875,30.8,0,0.76,0,0,0,0, ,0,0,0,0,0, ,799.6,-470.7,62.6,13.7,32.4,-250.1,25,206.538,-679.097,-53.5699,6.58192,5.45405,-63.624,
2026_07_06_17_31_43.672,3.875,30.7,0,0.76,0,0,0,0, ,0,0,0,0,0, ,1143.6,-598.2,75.5,1.2,22.2,-214.1,25,253.159,-670.282,-46.0977,6.63482,6.78528,-73.8906,
2026_07_06_17_31_43.689,3.875,30.7,0,0.761,0,0,0,0, ,0,0,0,0,0, ,1019.1,-585.8,64.9,24,8.8,-166.6,25,303.627,-665.512,-39.0109,6.99832,7.31634,-80.9873,
2026_07_06_17_31_43.713,3.875,30.7,0,0.76,0,0,0,0, ,0,0,0,0,0, ,837,-456.7,90.2,16.8,-14.1,-156.7,25,341.678,-656.721,-31.9079,7.81499,6.70901,-85.9027,
2026_07_06_17_31_43.729,3.875,30.7,0,0.759,0,0,0,0, ,0,0,0,0,0, ,783.5,-351.8,122,5.7,-41.7,-168.1,25,370.232,-641.336,-23.4981,8.02431,4.60003,-90.5642,
2026_07_06_17_31_43.751,3.875,30.8,0,0.76,0,0,0,0, ,0,0,0,0,0, ,1113.6,-321.8,60.1,-4.6,-52.3,-164.7,25,405.473,-622.779,-16.5178,7.56884,1.45565,-95.1855,
2026_07_06_17_31_43.768,3.875,30.7,0,0.76,0,0,0,0, ,0,0,0,0,0, ,1431.5,-441.6,-6.1,2.1,-11.4,-120.8,25,458.31,-608.088,-13.8659,7.03144,-0.573913,-98.0839,
2026_07_06_17_31_43.789,3.875,30.7,0,0.76,0,0,0,0, ,0,0,0,0,0, ,1315.9,-395,90,45,27.6,-88,25,514.092,-596.523,-10.4646,8.03804,-0.0453464,-98.4688,
2026_07_06_17_31_43.809,3.875,30.7,0,0.76,0,0,0,0, ,0,0,0,0,0, ,1072.8,-300.5,172.8,39.4,6.3,-78,25,555.545,-581.363,-1.81977,10.1198,0.990307,-97.5262,
2026_07_06_17_31_43.831,3.875,30.7,0,0.76,0,0,0,0, ,0,0,0,0,0, ,932.7,-251.9,153.9,16.1,-30.4,-86.7,25,582.797,-562.767,8.24526,11.1941,0.195664,-96.6014,
2026_07_06_17_31_43.847,3.875,30.7,0,0.759,0,0,0,0, ,0,0,0,0,0, ,1036.4,-145.1,123.6,2.8,-47.6,-99,25,607.278,-540.57,16.1979,11.0878,-2.19282,-96.3728,
2026_07_06_17_31_43.868,3.875,30.7,0,0.76,0,0,0,0, ,0,0,0,0,0, ,1333.4,-236.9,110.3,2.9,-9.6,-89,25,642.477,-519.268,22.3375,10.5859,-3.80201,-96.2282,
2026_07_06_17_31_43.887,3.875,30.7,0,0.76,0,0,0,0, ,0,0,0,0,0, ,1296.1,-211.6,146.6,20.8,20.5,-66.5,25,683.444,-501.29,28.8037,10.6629,-3.23821,-95.1022,
2026_07_06_17_31_43.910,3.875,30.7,0,0.76,0,0,0,0, ,0,0,0,0,0, ,1136.2,-192.2,127.3,18.9,13.1,-56.3,25,715.906,-483.046,35.3939,11.2227,-2.01714,-93.0485,
2026_07_06_17_31_43.926,3.875,30.8,0,0.76,0,0,0,0, ,0,0,0,0,0, ,1045.8,-127.5,102.9,10.3,-16.3,-58.4,25,738.763,-463.351,40.251,11.4285,-1.99172,-90.8731,
2026_07_06_17_31_43.949,3.875,30.7,0,0.76,0,0,0,0, ,0,0,0,0,0, ,1038.4,-61.2,123.9,40.2,-34.3,-88,25,757.248,-440.865,44.7085,12.2708,-3.41207,-89.7961,
2026_07_06_17_31_43.965,3.875,30.7,0,0.76,0,0,0,0, ,0,0,0,0,0, ,996.9,207.2,179.3,-32.5,-48.8,-92.8,25,773.116,-409.552,51.2222,11.7576,-5.7361,-89.8329,
2026_07_06_17_31_43.988,3.875,30.7,0,0.76,0,0,0,0, ,0,0,0,0,0, ,1439.9,-138.1,162.2,-51.7,-25.6,-84.6,25,800.25,-382.489,58.5059,8.47568,-7.65343,-89.7639,
2026_07_06_17_31_44.005,3.875,30.7,0,0.76,0,0,0,0, ,0,0,0,0,0, ,1177.3,6.3,5.4,33.1,13,-98,25,831.228,-363.197,60.0473,7.39248,-7.57095,-89.8575,
2026_07_06_17_31_44.030,3.875,30.8,0,0.76,0,0,0,0, ,0,0,0,0,0, ,907.1,19.5,-100.2,87.7,8.5,-122.1,25,844.084,-340.279,53.4997,10.6226,-6.45452,-91.088,
2026_07_06_17_31_44.046,3.875,30.8,0,0.76,0,0,0,0, ,0,0,0,0,0, ,793,252.9,-42.7,107.9,-52.3,-141,25,844.448,-311.243,45.8856,15.935,-7.39573,-93.5536,
2026_07_06_17_31_44.074,3.875,30.8,0,0.759,0,0,0,0, ,0,0,0,0,0, ,854.7,317,-72.8,14.6,-119.9,-138.3,25,843.192,-274.913,39.5703,18.6964,-12.1918,-96.3626,
2026_07_06_17_31_44.085,3.875,30.8,0,0.761,0,0,0,0, ,0,0,0,0,0, ,870.1,333.7,-92.8,-40.1,-138.8,-133.2,25,844.363,-238.334,32.1133,16.7801,-19.3311,-98.7628,
2026_07_06_17_31_44.107,3.875,30.7,0,0.759,0,0,0,0, ,0,0,0,0,0, ,940.3,329.5,-114.8,-30.5,-124.7,-146.4,25,848.07,-203.604,23.8311,13.6065,-26.1816,-101.264,
2026_07_06_17_31_44.124,3.875,30.8,0,0.759,0,0,0,0, ,0,0,0,0,0, ,1067.6,276.7,-143.5,-1.6,-87.4,-166.2,25,857.569,-172.727,14.5088,11.7993,-31.0486,-104.617,
2026_07_06_17_31_44.148,3.875,30.7,0,0.76,0,0,0,0, ,0,0,0,0,0, ,976.3,353.6,-213.5,-4.7,-54.3,-163.9,25,867.586,-142.997,2.74737,10.8883,-33.474,-108.3,
2026_07_06_17_31_44.163,3.875,30.7,0,0.76,0,0,0,0, ,0,0,0,0,0, ,864.8,389,-174.8,-3.4,-37.3,-171.5,25,870.814,-111.657,-9.25107,9.97801,-34.2251,-111.92,
2026_07_06_17_31_44.186,3.875,30.7,0,0.759,0,0,0,0, ,0,0,0,0,0, ,811.2,327.5,-188.5,-22.2,-51.7,-166.5,25,868.814,-83.0217,-19.7566,8.58998,-34.8512,-115.398,
2026_07_06_17_31_44.203,3.875,30.7,0,0.759,0,0,0,0, ,0,0,0,0,0, ,743,494.7,-233.7,-43.2,-87.9,-139.3,25,863.225,-52.9112,-31.4166,6.07387,-36.9809,-117.683,
2026_07_06_17_31_44.227,3.875,30.7,0,0.759,0,0,0,0, ,0,0,0,0,0, ,697.7,528.8,-246,-44.3,-105,-157.1,25,854.519,-18.5021,-44.118,3.03773,-40.6048,-119.543,
2026_07_06_17_31_44.244,3.875,30.7,0,0.759,0,0,0,0, ,0,0,0,0,0, ,634.7,543.2,-260,-37.8,-77,-195.4,25,843.043,15.2879,-56.8468,0.351134,-43.6758,-122.998,
2026_07_06_17_31_44.265,3.875,30.7,0,0.76,0,0,0,0, ,0,0,0,0,0, ,690.7,610.5,-319.8,-120.7,-56.2,-208.9,25,832.053,49.508,-71.0484,-4.49956,-45.0727,-127.822,
2026_07_06_17_31_44.282,3.875,30.8,0,0.76,0,0,0,0, ,0,0,0,0,0, ,879.8,540.4,-184.5,-151.6,-44.7,-189.8,25,829.201,81.5576,-82.0843,-12.522,-45.4004,-132.18,
2026_07_06_17_31_44.305,3.875,30.8,0,0.76,0,0,0,0, ,0,0,0,0,0, ,894.5,634.3,-275,-178.9,-52.5,-158.7,25,832.733,112.379,-91.0827,-21.8289,-45.5954,-134.744,
2026_07_06_17_31_44.322,3.875,30.7,0,0.758,0,0,0,0, ,0,0,0,0,0, ,919.4,550.5,-301.3,-131,-31.6,-147.5,25,837.255,141.631,-103.091,-29.9409,-45.3793,-135.863,
2026_07_06_17_31_44.345,3.875,30.8,0,0.759,0,0,0,0, ,0,0,0,0,0, ,889.7,810.4,-305.9,-114.4,-20.7,-133.7,25,841.356,174.465,-115.31,-35.5934,-44.2075,-136.151,
2026_07_06_17_31_44.362,3.875,30.7,0,0.761,0,0,0,0, ,0,0,0,0,0, ,905.1,613.7,-226.9,-115.7,16.2,-135.6,25,844.771,207.224,-124.517,-40.4353,-41.6508,-136.06,
2026_07_06_17_31_44.384,3.875,30.7,0,0.76,0,0,0,0, ,0,0,0,0,0, ,782.4,640,-226.8,-17.9,40.3,-105.4,25,844.709,232.795,-130.753,-42.0419,-37.3912,-135.112,
2026_07_06_17_31_44.403,3.875,30.5,0,0.761,0,0,0,0, ,0,0,0,0,0, ,564.4,728.2,-177.2,-0.8,34.7,-58.3,25,834.27,260.296,-135.095,-40.0498,-32.8275,-131.866,
2026_07_06_17_31_44.427,3.875,30.7,0,0.759,0,0,0,0, ,0,0,0,0,0, ,401.8,745.8,-145,13.8,24.5,-67.2,25,812.87,289.345,-136.679,-37.2131,-29.0233,-127.654,
2026_07_06_17_31_44.441,3.875,30.7,0,0.76,0,0,0,0, ,0,0,0,0,0, ,374.1,774.9,-112.4,33,19.9,-69.6,25,786.977,318.047,-136.193,-33.5195,-25.9019,-124.043,
2026_07_06_17_31_44.465,3.875,30.8,0,0.76,0,0,0,0, ,0,0,0,0,0, ,420,866,-37.1,38.9,5,-67.2,25,763.216,348.662,-132.449,-29.2862,-23.5648,-120.653,
2026_07_06_17_31_44.480,3.875,30.8,0,0.759,0,0,0,0, ,0,0,0,0,0, ,533.3,871.4,18.4,27.2,3.8,-63.9,25,745.753,380.352,-124.948,-25.4876,-21.8607,-117.295,
2026_07_06_17_31_44.504,3.875,30.7,0,0.76,0,0,0,0, ,0,0,0,0,0, ,557.3,883.4,25.6,12.7,10.7,-45.6,25,733.538,410.641,-115.993,-22.7188,-20.0868,-113.484,
2026_07_06_17_31_44.520,3.875,30.7,0,0.76,0,0,0,0, ,0,0,0,0,0, ,507,1000.9,-42.4,1.8,7.2,-33.1,25,721.266,443.03,-109.436,-20.8925,-18.3174,-108.966,
2026_07_06_17_31_44.545,3.875,30.8,0,0.76,0,0,0,0, ,0,0,0,0,0, ,490.9,983.8,-99.2,0,4.2,-29.2,25,707.718,476.504,-107.082,-19.5646,-16.8538,-104.224,
2026_07_06_17_31_44.560,3.875,30.7,0,0.759,0,0,0,0, ,0,0,0,0,0, ,570.1,938.4,-127,7.7,-6.3,-9.4,25,696.919,506.034,-107.449,-18.1377,-15.8908,-99.0491,
2026_07_06_17_31_44.583,3.875,30.7,0,0.759,0,0,0,0, ,0,0,0,0,0, ,629.6,960.9,-130,12.4,-16.2,20.9,25,691.004,533.067,-108.732,-16.42,-15.608,-92.6629,
2026_07_06_17_31_44.599,3.875,30.7,0,0.761,0,0,0,0, ,0,0,0,0,0, ,560.1,952.2,-144.2,10.5,-16.3,42.3,25,685.145,558.873,-110.46,-14.7217,-15.6471,-85.0906,
2026_07_06_17_31_44.622,3.875,30.8,0,0.76,0,0,0,0, ,0,0,0,0,0, ,558.7,951.5,-137.2,7,-23,63,25,677.482,582.82,-112.303,-13.2914,-15.891,-76.697,
2026_07_06_17_31_44.639,3.875,30.8,0,0.76,0,0,0,0, ,0,0,0,0,0, ,600.4,910.8,-43,-5.1,-30.7,86.2,25,671.514,604.046,-110.95,-12.4236,-16.5588,-67.4774,
2026_07_06_17_31_44.665,3.875,30.7,0,0.76,0,0,0,0, ,0,0,0,0,0, ,677.9,878.9,8.1,-22.7,-39,116.3,25,669.542,621.767,-105.252,-12.5135,-17.6734,-57.1955,
2026_07_06_17_31_44.679,3.875,30.8,0,0.76,0,0,0,0, ,0,0,0,0,0, ,784.1,856.6,-38.2,-40.1,-29.2,145.9,25,673.287,636.757,-99.7556,-13.6644,-18.6744,-45.7213,
2026_07_06_17_31_44.702,3.875,30.8,0,0.76,0,0,0,0, ,0,0,0,0,0, ,795.1,857.6,-84.1,-97,-26.1,181,25,680.375,650.184,-97.4031,-17.009,-19.2214,-32.9749,
2026_07_06_17_31_44.718,3.875,30.8,0,0.76,0,0,0,0, ,0,0,0,0,0, ,820.6,819.9,-128.1,-95.9,-30.7,199.8,25,688.143,661.675,-97.9331,-21.85,-19.7807,-19.363,
2026_07_06_17_31_44.741,3.875,30.8,0,0.76,0,0,0,0, ,0,0,0,0,0, ,766.8,747,-90.9,-73.1,-25.7,198.8,25,694.575,669.095,-98.6379,-25.6677,-20.2938,-6.03823,
2026_07_06_17_31_44.757,3.875,30.7,0,0.76,0,0,0,0, ,0,0,0,0,0, ,757.5,722.1,-106.3,-64.3,-22.6,201.4,25,698.693,673.084,-98.6356,-28.29,-20.5288,6.52332,
2026_07_06_17_31_44.782,3.875,30.7,0,0.76,0,0,0,0, ,0,0,0,0,0, ,737.4,639.1,-126.9,-52.3,-17.5,210.6,25,701.664,673.542,-99.7303,-30.1187,-20.4996,18.6789,
2026_07_06_17_31_44.802,3.875,30.7,0,0.76,0,0,0,0, ,0,0,0,0,0, ,771.2,611,-102.7,-31.1,-33.9,229.6,25,704.872,670.587,-100.649,-30.8244,-20.8165,30.953,
2026_07_06_17_31_44.826,3.875,30.8,0,0.76,0,0,0,0, ,0,0,0,0,0, ,806.3,607.7,-136.8,-28.5,-45,241.3,25,709.983,666.855,-101.813,-30.762,-21.952,43.4146,
2026_07_06_17_31_44.836,3.875,30.7,0,0.759,0,0,0,0, ,0,0,0,0,0, ,753.6,575.5,-152.4,-11,-24.5,211.8,25,714.247,662.27,-104.42,-30.091,-22.7318,54.5744,
2026_07_06_17_31_44.860,3.875,30.8,0,0.761,0,0,0,0, ,0,0,0,0,0, ,732.7,482.1,-135.4,22.3,6.1,164,25,716.008,654.136,-106.826,-27.913,-21.9072,62.6989,
2026_07_06_17_31_44.877,3.875,30.7,0,0.76,0,0,0,0, ,0,0,0,0,0, ,755.7,420.8,-84.5,46.8,12,142.4,25,717.726,641.785,-107.016,-24.1067,-20.0208,68.2138,
2026_07_06_17_31_44.902,3.875,30.8,0,0.759,0,0,0,0, ,0,0,0,0,0, ,678.8,473.3,-125.3,34.5,-3.6,149.3,25,717.697,629.918,-106.887,-20.1606,-18.5448,72.9448,
2026_07_06_17_31_44.916,3.875,30.7,0,0.761,0,0,0,0, ,0,0,0,0,0, ,944.5,340.9,-72.1,89.7,-16.5,128.9,25,723.422,616.34,-106.388,-15.1478,-18.0272,76.9761,
2026_07_06_17_31_44.940,3.875,30.7,0,0.761,0,0,0,0, ,0,0,0,0,0, ,906.1,270.2,-91.5,82.3,-5.7,124.1,25,735.724,597.402,-104.89,-8.98411,-17.6051,79.994,
2026_07_06_17_31_44.955,3.875,30.7,0,0.759,0,0,0,0, ,0,0,0,0,0, ,920,189.9,-75.5,48.8,19.8,113.7,25,746.53,575.016,-103.587,-4.44219,-16.1026,82.3648,
2026_07_06_17_31_44.980,3.875,30.8,0,0.76,0,0,0,0, ,0,0,0,0,0, ,924.6,192.2,-99.3,46.6,36.3,96.2,25,757.241,551.618,-102.6,-1.26478,-13.4121,83.7411,
2026_07_06_17_31_44.995,3.875,30.7,0,0.759,0,0,0,0, ,0,0,0,0,0, ,1039.1,127.3,-126.3,55.7,34.5,96.8,25,770.928,527.739,-103.222,1.92925,-10.4376,84.5186,
2026_07_06_17_31_45.019,3.875,30.8,0,0.76,0,0,0,0, ,0,0,0,0,0, ,841.7,105.2,-114.3,57.7,32,89,25,781.255,502.664,-104.262,5.26684,-7.77539,85.0293,
2026_07_06_17_31_45.035,3.875,30.8,0,0.759,0,0,0,0, ,0,0,0,0,0, ,806.7,85.4,-64.6,58,33.1,70.7,25,783.872,477.84,-103.36,8.47113,-5.31806,84.7137,
2026_07_06_17_31_45.059,3.875,30.8,0,0.761,0,0,0,0, ,0,0,0,0,0, ,881.2,44.4,-48.7,54.5,20.6,54.3,25,787.533,452.676,-100.513,11.3827,-3.35782,83.3601,
2026_07_06_17_31_45.073,3.875,30.8,0,0.76,0,0,0,0, ,0,0,0,0,0, ,902.3,14.1,-84.5,48.4,14.1,52.5,25,793.884,426.874,-98.4468,13.8243,-2.09593,81.5344,
2026_07_06_17_31_45.099,3.875,30.8,0,0.76,0,0,0,0, ,0,0,0,0,0, ,873.6,-6.7,-41.5,35.6,25.4,36.9,25,799.616,401.087,-96.2868,15.5412,-0.764698,79.2898,
2026_07_06_17_31_45.114,3.875,30.7,0,0.76,0,0,0,0, ,0,0,0,0,0, ,829.9,8.1,2.4,29.5,41,20,25,802.793,376.688,-91.6106,16.5777,1.30503,76.1917,
2026_07_06_17_31_45.139,3.875,30.8,0,0.761,0,0,0,0, ,0,0,0,0,0, ,780.2,4.5,1.2,22.7,43.9,6.6,25,802.931,354.118,-85.9184,17.158,3.8123,72.3593,
2026_07_06_17_31_45.152,3.875,30.7,0,0.76,0,0,0,0, ,0,0,0,0,0, ,794.5,-17.2,-35,22.8,34.1,-12.4,25,801.981,332.152,-81.7126,17.4987,5.95655,67.7732,
2026_07_06_17_31_45.178,3.875,30.8,0,0.758,0,0,0,0, ,0,0,0,0,0, ,807.2,-28.6,-57.4,27.5,17.4,-30.1,25,801.912,310.516,-79.5486,17.965,7.16271,62.3483,
2026_07_06_17_31_45.197,3.875,30.5,0,0.759,0,0,0,0, ,0,0,0,0,0, ,830.8,-3.7,-0.4,29,1,-37.8,25,802.953,290.609,-76.4622,18.5917,7.28686,56.4801,
2026_07_06_17_31_45.222,3.875,30.7,0,0.761,0,0,0,0, ,0,0,0,0,0, ,915.4,45.5,34.3,25,-17,-45.3,25,807.228,274.174,-70.7699,19.1041,6.35532,50.5064,
2026_07_06_17_31_45.231,3.875,30.7,0,0.759,0,0,0,0, ,0,0,0,0,0, ,1070.9,45,56.8,16.4,-28,-47.9,25,818.558,260.224,-63.6816,19.2013,4.59694,44.589,
2026_07_06_17_31_45.259,3.875,30.8,0,0.759,0,0,0,0, ,0,0,0,0,0, ,1063.1,-3.6,83.4,2.4,-22.6,-43.4,25,833.697,245.628,-55.5293,18.6041,2.7751,39.0901,
2026_07_06_17_31_45.271,3.875,30.7,0,0.759,0,0,0,0, ,0,0,0,0,0, ,1223.9,42.1,35.7,-0.1,-3.6,-40.3,25,852.576,231.833,-48.5167,17.5405,1.80771,34.1578,
2026_07_06_17_31_45.297,3.875,30.8,0,0.759,0,0,0,0, ,0,0,0,0,0, ,1159.9,46.5,45.2,-6.3,0.6,-29.9,25,873.253,220.405,-43.0952,16.2766,1.60615,29.9374,
2026_07_06_17_31_45.312,3.875,30.7,0,0.761,0,0,0,0, ,0,0,0,0,0, ,1171,73.1,20.8,-3.7,2.7,-19.5,25,891.059,210.618,-38.4582,14.9801,1.60882,26.6079,
2026_07_06_17_31_45.337,3.875,30.8,0,0.76,0,0,0,0, ,0,0,0,0,0, ,984.3,-49.8,-15.7,-5.9,26.8,6.3,25,902.429,198.494,-35.9593,13.7747,2.40961,24.5843,
2026_07_06_17_31_45.351,3.875,30.8,0,0.76,0,0,0,0, ,0,0,0,0,0, ,993.5,114.6,46,-2,23.6,11.1,25,907.699,188.372,-32.8448,12.6946,3.7984,23.6164,
2026_07_06_17_31_45.376,3.875,30.7,0,0.76,0,0,0,0, ,0,0,0,0,0, ,993.6,85.5,28.8,-5.1,2,-2.7,25,912.93,182.99,-28.5642,11.7047,4.34693,22.4332,
2026_07_06_17_31_45.390,3.875,30.8,0,0.759,0,0,0,0, ,0,0,0,0,0, ,990.3,46.6,12.2,-2.6,-1.4,-3,25,917.746,175.864,-25.5744,10.7568,4.10032,20.8925,
2026_07_06_17_31_45.417,3.875,30.7,0,0.76,0,0,0,0, ,0,0,0,0,0, ,988.7,39.6,-4.5,-0.6,1.7,-2.3,25,922.118,167.774,-23.7813,10.0038,3.8596,19.4579,
2026_07_06_17_31_45.429,3.875,30.7,0,0.762,0,0,0,0, ,0,0,0,0,0, ,987.1,44.7,35.4,2.6,-0.2,-0.8,25,926.127,160.119,-21.3907,9.45517,3.67011,18.1777,
2026_07_06_17_31_45.454,3.875,30.8,0,0.76,0,0,0,0, ,0,0,0,0,0, ,990.9,41.2,28.8,1.7,-2.7,-0.4,25,929.958,152.979,-18.1311,9.01001,3.3581,17.0334,
2026_07_06_17_31_45.470,3.875,30.8,0,0.76,0,0,0,0, ,0,0,0,0,0, ,989.9,38.9,9.8,1.4,-3.2,-0.3,25,933.641,146.097,-15.8501,8.55542,2.9737,15.9741,
2026_07_06_17_31_45.495,3.875,30.5,0,0.76,0,0,0,0, ,0,0,0,0,0, ,989.7,40.6,24.7,2.5,-4,0,25,937.063,139.617,-13.8331,8.1529,2.57312,14.9916,
2026_07_06_17_31_45.508,3.875,30.7,0,0.76,0,0,0,0, ,0,0,0,0,0, ,989.5,41.9,20.8,1.1,-6.3,0.2,25,940.265,133.622,-11.6038,7.76577,2.10249,14.0841,
2026_07_06_17_31_45.534,3.875,30.7,0,0.759,0,0,0,0, ,0,0,0,0,0, ,990.3,38.3,15.2,0.1,-7.8,0.5,25,943.289,127.923,-9.79984,7.32911,1.54476,13.2472,
2026_07_06_17_31_45.549,3.875,30.7,0,0.758,0,0,0,0, ,0,0,0,0,0, ,989.3,20.5,-6.1,-0.3,-3.5,-0.7,25,946.124,121.92,-8.92539,6.87639,1.10633,12.4338,
2026_07_06_17_31_45.573,3.875,30.7,0,0.76,0,0,0,0, ,0,0,0,0,0, ,990.1,30.5,-21.1,-0.4,-2.2,-0.2,25,948.779,116.044,-9.21025,6.43604,0.865242,11.6487,
2026_07_06_17_31_45.588,3.875,30.7,0,0.759,0,0,0,0, ,0,0,0,0,0, ,991.3,30.2,-11.5,2.3,-0.2,-0.7,25,951.334,110.822,-9.64228,6.10173,0.739391,10.9115,
2026_07_06_17_31_45.613,3.875,30.7,0,0.76,0,0,0,0, ,0,0,0,0,0, ,990.9,9.2,-5.6,4.4,4.5,1.2,25,953.757,105.269,-9.57572,5.93405,0.82535,10.2618,
2026_07_06_17_31_45.629,3.875,30.7,0,0.759,0,0,0,0, ,0,0,0,0,0, ,994.6,20.8,-0.9,2.1,11.2,2.4,25,956.133,99.7685,-9.19025,5.77049,1.25341,9.74614,
2026_07_06_17_31_45.654,3.875,30.7,0,0.76,0,0,0,0, ,0,0,0,0,0, ,993.1,24,-15.5,4,11.7,2.3,25,958.431,95.0539,-9.1299,5.60471,1.87477,9.29544,
2026_07_06_17_31_45.666,3.875,30.8,0,0.76,0,0,0,0, ,0,0,0,0,0, ,991.3,16.3,-6.3,3.8,14.7,0.5,25,960.489,90.4894,-9.23777,5.50083,2.5649,8.81431,
2026_07_06_17_31_45.691,3.875,30.7,0,0.76,0,0,0,0, ,0,0,0,0,0, ,993.6,26.4,-1.5,10.8,22.7,5.3,25,962.437,86.2762,-8.9125,5.61046,3.54813,8.45391,
2026_07_06_17_31_45.706,3.875,30.7,0,0.76,0,0,0,0, ,0,0,0,0,0, ,989.3,14.4,-0.9,14.2,21.8,8.9,25,964.205,82.2619,-8.44252,6.0303,4.68778,8.3714,
2026_07_06_17_31_45.733,3.875,30.7,0,0.76,0,0,0,0, ,0,0,0,0,0, ,1006.2,-2,5.1,13.4,26.9,6.2,25,966.249,77.6269,-7.80008,6.50376,5.88594,8.32135,
2026_07_06_17_31_45.746,3.875,30.7,0,0.759,0,0,0,0, ,0,0,0,0,0, ,996.7,23.8,-13.3,20.6,33.6,1.4,25,968.394,73.5607,-7.57461,7.14338,7.37063,8.04583,
2026_07_06_17_31_45.771,3.875,30.7,0,0.76,0,0,0,0, ,0,0,0,0,0, ,973.8,24.2,41.6,13.7,31.8,0.4,25,969.421,70.5406,-6.25077,7.75316,8.91414,7.61038,
2026_07_06_17_31_45.786,3.875,30.5,0,0.76,0,0,0,0, ,0,0,0,0,0, ,985.1,48.7,94.6,15.8,25.8,0.4,25,970.032,68.4632,-1.72002,8.17953,10.1259,7.171,
2026_07_06_17_31_45.812,3.875,30.7,0,0.76,0,0,0,0, ,0,0,0,0,0, ,973.5,51.1,142.2,16.6,32.8,-6.2,25,970.597,67.332,5.59979,8.66827,11.2944,6.5573,
2026_07_06_17_31_45.825,3.875,30.7,0,0.759,0,0,0,0, ,0,0,0,0,0, ,937.1,56.8,312.7,-6.2,12.7,-5.7,25,969.665,66.5166,19.1188,8.45693,11.9924,5.79513,
2026_07_06_17_31_45.851,3.875,30.7,0,0.759,0,0,0,0, ,0,0,0,0,0, ,986.3,21.8,94.4,-1.4,-3,-0.5,25,969.18,64.858,30.3576,7.71002,11.5572,5.25309,
2026_07_06_17_31_45.865,3.875,30.7,0,0.761,0,0,0,0, ,0,0,0,0,0, ,996.5,26.4,57,3,6.9,-0.3,25,970.534,62.3744,33.1206,7.28894,10.9717,4.9086,
2026_07_06_17_31_45.891,3.875,30.7,0,0.759,0,0,0,0, ,0,0,0,0,0, ,955.3,127.1,232.1,-8.6,-9.4,5,25,970.861,63.2504,39.9108,6.67414,10.227,4.75269,
2026_07_06_17_31_45.904,3.875,30.8,0,0.758,0,0,0,0, ,0,0,0,0,0, ,972,33.4,165.6,-10.1,-24.6,22.7,25,970.421,64.2863,49.5962,5.69767,8.56784,5.30705,
2026_07_06_17_31_45.931,3.875,30.7,0,0.76,0,0,0,0, ,0,0,0,0,0, ,995.8,1.3,39.3,-10.2,-26.7,18.9,25,971.243,61.4261,52.817,4.73196,6.48269,6.25116,
2026_07_06_17_31_45.943,3.875,30.7,0,0.761,0,0,0,0, ,0,0,0,0,0, ,989.9,-16.2,85.9,-6.5,-23.1,16.8,25,972.559,57.229,53.4131,3.93477,4.57031,6.95796,
2026_07_06_17_31_45.969,3.875,30.7,0,0.759,0,0,0,0, ,0,0,0,0,0, ,990.8,-32.8,71.8,-5.4,-25.9,14.9,25,973.643,52.2486,54.9632,3.33242,2.79884,7.49982,
2026_07_06_17_31_45.983,3.875,30.7,0,0.76,0,0,0,0, ,0,0,0,0,0, ,994.8,-61.5,6.4,-2.5,-21,4.6,25,974.811,46.1915,53.9965,2.88865,1.1993,7.63694,
2026_07_06_17_31_46.009,3.875,30.7,0,0.761,0,0,0,0, ,0,0,0,0,0, ,1000.7,-50.7,-5.8,-0.2,-15.7,2,25,976.209,39.9581,50.7244,2.63036,0.00801475,7.37266,
2026_07_06_17_31_46.023,3.875,30.7,0,0.759,0,0,0,0, ,0,0,0,0,0, ,993.5,-19.1,31.4,-6,-8.2,-2.7,25,977.482,35.3965,48.4134,2.28116,-0.720677,6.90206,
2026_07_06_17_31_46.050,3.875,30.7,0,0.761,0,0,0,0, ,0,0,0,0,0, ,986.2,-13.4,57.7,-4.3,-7.5,-2.3,25,978.235,32.2492,48.178,1.82833,-1.15512,6.32912,
2026_07_06_17_31_46.062,3.875,30.7,0,0.76,0,0,0,0, ,0,0,0,0,0, ,983.5,-27.8,69,2.5,-12.1,-4.3,25,978.638,29.0287,49.1025,1.66207,-1.68192,5.74235,
2026_07_06_17_31_46.087,3.875,30.7,0,0.759,0,0,0,0, ,0,0,0,0,0, ,982.4,15.8,19.1,10,-16.2,-8.8,25,978.901,26.8942,48.7946,1.94165,-2.44169,4.99328,
2026_07_06_17_31_46.102,3.875,30.7,0,0.759,0,0,0,0, ,0,0,0,0,0, ,1001.8,17.5,-15.7,7,-11.2,-8.7,25,979.705,26.2699,45.9248,2.3413,-3.12774,4.1558,
2026_07_06_17_31_46.128,3.875,30.7,0,0.759,0,0,0,0, ,0,0,0,0,0, ,991.2,5.4,27.4,0.2,-5.5,-1.9,25,980.729,25.3668,43.4827,2.418,-3.44598,3.57959,
2026_07_06_17_31_46.142,3.875,30.8,0,0.76,0,0,0,0, ,0,0,0,0,0, ,991.5,-12.5,24.9,-3.1,-4.5,-2.1,25,981.376,23.6047,42.4265,2.18229,-3.54067,3.23958,
2026_07_06_17_31_46.168,3.875,30.7,0,0.76,0,0,0,0, ,0,0,0,0,0, ,993.6,4.5,13.6,-1.6,-3,-1.7,25,982.057,21.9226,41.0142,1.90611,-3.55343,2.92639,
2026_07_06_17_31_46.181,3.875,30.7,0,0.76,0,0,0,0, ,0,0,0,0,0, ,997.3,-14,-29.4,4.5,2.4,-1.4,25,982.873,20.2972,38.0335,1.87831,-3.35517,2.65361,
2026_07_06_17_31_46.206,3.875,30.5,0,0.76,0,0,0,0, ,0,0,0,0,0, ,977,42.1,28.9,7.2,9.2,-4.6,25,983.134,19.9165,35.7006,2.12034,-2.79728,2.30909,
2026_07_06_17_31_46.220,3.875,30.7,0,0.761,0,0,0,0, ,0,0,0,0,0, ,1006.2,1.8,108,0.9,-1.9,-27.7,25,983.65,20.0404,37.6963,2.23792,-2.4044,1.18424,
2026_07_06_17_31_46.246,3.875,30.7,0,0.759,0,0,0,0, ,0,0,0,0,0, ,978.5,-33.8,53.2,11.3,-8.3,-3.6,25,984.18,17.8442,40.3107,2.47327,-2.56866,0.158404,
2026_07_06_17_31_46.260,3.875,30.8,0,0.76,0,0,0,0, ,0,0,0,0,0, ,993.4,-55.9,2.3,6.5,-2.5,1.2,25,984.288,14.0238,39.5453,2.8649,-2.7412,0.0756262,
2026_07_06_17_31_46.290,3.875,30.7,0,0.76,0,0,0,0, ,0,0,0,0,0, ,988.6,25.3,44.5,-0.7,-0.3,-2.9,25,984.697,12.2369,38.5614,2.86704,-2.65947,0.0192208,
2026_07_06_17_31_46.308,3.875,30.8,0,0.76,0,0,0,0, ,0,0,0,0,0, ,990.9,16.9,35.5,-0.1,0.6,-2.3,25,985.005,12.777,38.6491,2.66795,-2.48827,-0.140388,
2026_07_06_17_31_46.337,3.875,30.7,0,0.761,0,0,0,0, ,0,0,0,0,0, ,990.1,15.8,33.8,-0.3,-1.2,-1.2,25,985.34,12.9947,38.4054,2.49319,-2.35492,-0.238474,
2026_07_06_17_31_46.342,3.875,30.7,0,0.76,0,0,0,0, ,0,0,0,0,0, ,991.5,12.2,30,-1.6,-0.6,-1.1,25,985.672,13.056,38.009,2.28337,-2.26626,-0.29402,
2026_07_06_17_31_46.368,3.875,30.8,0,0.761,0,0,0,0, ,0,0,0,0,0, ,987.3,11.8,46.1,-2.8,-1.7,-1.5,25,985.899,12.9916,38.0115,2.01016,-2.19824,-0.355322,
2026_07_06_17_31_46.378,3.875,30.7,0,0.759,0,0,0,0, ,0,0,0,0,0, ,992.7,0.9,7.5,0.3,-2.2,-1,25,986.149,12.5869,37.3283,1.8115,-2.18311,-0.409841,
2026_07_06_17_31_46.406,3.875,30.8,0,0.759,0,0,0,0, ,0,0,0,0,0, ,992.5,9.3,28,-0.1,-0.9,-2,25,986.542,12.1307,36.1352,1.7072,-2.14453,-0.476273,
2026_07_06_17_31_46.419,3.875,30.7,0,0.761,0,0,0,0, ,0,0,0,0,0, ,992.9,11.2,20.2,-0.2,0.1,-2.2,25,986.918,12.0161,35.4018,1.59403,-2.03822,-0.575219,
2026_07_06_17_31_46.443,3.875,30.7,0,0.76,0,0,0,0, ,0,0,0,0,0, ,990.7,13.4,28.4,-0.2,-0.5,-1.3,25,987.215,12.0334,34.7253,1.48471,-1.92621,-0.646807,
2026_07_06_17_31_46.458,3.875,30.7,0,0.76,0,0,0,0, ,0,0,0,0,0, ,990.2,9,23.1,-0.4,-0.1,-1.5,25,987.412,11.9826,34.1784,1.37595,-1.82711,-0.692705,
2026_07_06_17_31_46.484,3.875,30.8,0,0.761,0,0,0,0, ,0,0,0,0,0, ,990.3,11.2,34.9,-4.4,-0.4,-2.2,25,987.585,11.8679,33.8628,1.14585,-1.731,-0.763227,
2026_07_06_17_31_46.497,3.875,30.7,0,0.761,0,0,0,0, ,0,0,0,0,0, ,991.8,5.7,19.7,-1.5,-0.8,-2,25,987.796,11.6596,33.4629,0.896262,-1.66208,-0.844687,
2026_07_06_17_31_46.524,3.875,30.7,0,0.76,0,0,0,0, ,0,0,0,0,0, ,990.7,9.3,23.9,-0.4,0.3,-2.4,25,988.007,11.4061,32.7522,0.783755,-1.57603,-0.927276,
2026_07_06_17_31_46.537,3.875,30.7,0,0.76,0,0,0,0, ,0,0,0,0,0, ,991.4,13.4,30.7,-0.2,0.1,-2.4,25,988.192,11.4027,32.4199,0.717714,-1.46781,-1.01702,
2026_07_06_17_31_46.564,3.875,30.7,0,0.76,0,0,0,0, ,0,0,0,0,0, ,990.3,12.3,30.8,-0.1,0,-2.2,25,988.354,11.4909,32.3182,0.664838,-1.37532,-1.0952,
2026_07_06_17_31_46.577,3.875,30.7,0,0.76,0,0,0,0, ,0,0,0,0,0, ,991.9,12.4,28.3,-0.1,-0.5,-1.8,25,988.522,11.5432,32.1495,0.61823,-1.30674,-1.15034,
2026_07_06_17_31_46.602,3.875,30.8,0,0.759,0,0,0,0, ,0,0,0,0,0, ,989.8,12.8,30.1,-0.2,-0.7,-1.8,25,988.663,11.6076,31.9698,0.571416,-1.26368,-1.18993,
2026_07_06_17_31_46.615,3.875,30.8,0,0.759,0,0,0,0, ,0,0,0,0,0, ,991.2,11.2,27.3,-0.2,-0.7,-1.6,25,988.775,11.6315,31.7705,0.524408,-1.22933,-1.22101,
2026_07_06_17_31_46.642,3.875,30.7,0,0.761,0,0,0,0, ,0,0,0,0,0, ,989.7,9.7,27,-0.2,-0.6,-1.7,25,988.877,11.5595,31.489,0.480264,-1.19402,-1.24715,
2026_07_06_17_31_46.655,3.875,30.8,0,0.761,0,0,0,0, ,0,0,0,0,0, ,991.6,9.7,27,-0.1,-0.6,-1.8,25,988.985,11.4462,31.2154,0.441858,-1.15783,-1.27779,
2026_07_06_17_31_46.683,3.875,30.8,0,0.759,0,0,0,0, ,0,0,0,0,0, ,991.3,11.1,26.6,-0.2,-0.1,-2,25,989.136,11.3825,30.9463,0.405791,-1.1086,-1.31571,
2026_07_06_17_31_46.694,3.875,30.7,0,0.761,0,0,0,0, ,0,0,0,0,0, ,992.3,10.2,27.9,-0.1,-0.4,-1.7,25,989.298,11.3378,30.7211,0.371923,-1.05628,-1.34827,
2026_07_06_17_31_46.722,3.875,30.8,0,0.759,0,0,0,0, ,0,0,0,0,0, ,989.6,13.7,31.9,-0.1,-0.1,-1.9,25,989.399,11.3751,30.6711,0.343165,-1.00715,-1.37579,
2026_07_06_17_31_46.735,3.875,30.7,0,0.758,0,0,0,0, ,0,0,0,0,0, ,991.4,11.9,29.5,0,-1,-1.2,25,989.466,11.462,30.6728,0.319207,-0.979288,-1.38641,
2026_07_06_17_31_46.761,3.875,30.7,0,0.76,0,0,0,0, ,0,0,0,0,0, ,990.4,6.5,25.8,0,-0.6,-1.7,25,989.553,11.3241,30.4886,0.299755,-0.968362,-1.39029,
2026_07_06_17_31_46.775,3.875,30.7,0,0.76,0,0,0,0, ,0,0,0,0,0, ,990.4,10.3,27.9,-0.1,0,-2.3,25,989.605,11.1459,30.2669,0.278442,-0.927634,-1.42744,
2026_07_06_17_31_46.802,3.875,30.7,0,0.76,0,0,0,0, ,0,0,0,0,0, ,990.9,11.4,28.4,-0.1,0,-2,25,989.668,11.1279,30.1379,0.25538,-0.871106,-1.47147,
2026_07_06_17_31_46.814,3.875,30.8,0,0.761,0,0,0,0, ,0,0,0,0,0, ,991.4,13.7,28.9,0,-0.5,-1.7,25,989.759,11.2146,30.0472,0.236771,-0.833258,-1.49454,
2026_07_06_17_31_46.840,3.875,30.7,0,0.761,0,0,0,0, ,0,0,0,0,0, ,990.9,13.6,31,0,-0.6,-1.3,25,989.844,11.363,30.0413,0.222343,-0.815997,-1.49487,
2026_07_06_17_31_46.852,3.875,30.7,0,0.76,0,0,0,0, ,0,0,0,0,0, ,991.4,6.2,24.6,0,-0.7,-1.3,25,989.923,11.2738,29.9047,0.208794,-0.805881,-1.483,
2026_07_06_17_31_46.882,3.875,30.7,0,0.758,0,0,0,0, ,0,0,0,0,0, ,990.9,8.6,28.6,-0.1,-0.3,-2,25,989.998,11.0378,29.7033,0.193024,-0.787242,-1.49317,
2026_07_06_17_31_46.893,3.875,30.7,0,0.759,0,0,0,0, ,0,0,0,0,0, ,990.3,2.9,26.8,-0.1,0,-2.9,25,990.035,10.7155,29.5813,0.175168,-0.74841,-1.55148,
2026_07_06_17_31_46.922,3.875,30.7,0,0.76,0,0,0,0, ,0,0,0,0,0, ,989.2,40.2,45.1,0,0,-2.3,25,990.017,11.3758,29.9694,0.161447,-0.702804,-1.61537,
2026_07_06_17_31_46.932,3.875,30.7,0,0.759,0,0,0,0, ,0,0,0,0,0, ,990.7,13.6,29.5,-0.1,-0.7,-1.2,25,990.013,12.3218,30.4161,0.148561,-0.681305,-1.62358,
2026_07_06_17_31_46.959,3.875,30.7,0,0.761,0,0,0,0, ,0,0,0,0,0, ,991.9,10.7,28.1,-0.1,-0.5,-1.4,25,990.092,12.3113,30.3176,0.133415,-0.67635,-1.60386,
2026_07_06_17_31_46.973,3.875,30.7,0,0.761,0,0,0,0, ,0,0,0,0,0, ,990.8,9.5,26.2,-0.1,-0.5,-1.8,25,990.168,12.1766,30.1246,0.119191,-0.665604,-1.60362,
