UTC_Time,Vin,TC1,TC2,Rh1,Vh1,Ah1,Acp1,Dty1,Err1,Rh2,Vh2,Ah2,Acp2,Dty2,Err2,Accel_x,Accel_y,Accel_z,gyro_x,gyro_y,gyro_z,Temp_c,Accel_x_h,Accel_y_h,Accel_z_h,gyro_x_h,gyro_y_h,gyro_z_h,
2026_07_07_10_51_56.585,0,24.1,0,0.754,0,0,0,0, ,0,0,0,0,0, ,-42.1,145.5,996,-0.2,-0.3,-1.5,25,-42.1,145.5,996,-0.2,-0.3,-1.5,
2026_07_07_10_51_56.605,0,24.1,0,0.755,0,0,0,0, ,0,0,0,0,0, ,-42.1,145.5,995.8,-0.3,-0.3,-1.4,25,-42.1,145.5,995.994,-0.203047,-0.3,-1.49695,
2026_07_07_10_51_56.625,0,24,0,0.755,0,0,0,0, ,0,0,0,0,0, ,-41.6,145,995.3,-0.2,-0.3,-1.4,25,-42.0848,145.485,995.967,-0.205908,-0.3,-1.49105,
2026_07_07_10_51_56.645,0,24.1,0,0.754,0,0,0,0, ,0,0,0,0,0, ,-42.6,145.9,995.1,-0.2,-0.3,-1.5,25,-42.0857,145.483,995.92,-0.205548,-0.3,-1.48854,
2026_07_07_10_51_56.664,0,24,0,0.754,0,0,0,0, ,0,0,0,0,0, ,-42.1,144.8,996.8,-0.2,-0.4,-1.4,25,-42.1018,145.475,995.922,-0.20521,-0.303047,-1.4862,
2026_07_07_10_51_56.684,0,23.9,0,0.755,0,0,0,0, ,0,0,0,0,0, ,-41.5,145.6,994.2,-0.3,-0.3,-1.4,25,-42.0834,145.458,995.896,-0.207939,-0.305908,-1.48094,
2026_07_07_10_51_56.704,0,24,0,0.753,0,0,0,0, ,0,0,0,0,0, ,-41.6,147,995.8,-0.2,-0.3,-1.4,25,-42.0509,145.509,995.842,-0.210502,-0.305548,-1.47601,
2026_07_07_10_51_56.724,0,24.3,0,0.756,0,0,0,0, ,0,0,0,0,0, ,-42.4,145.2,995.1,-0.2,-0.3,-1.4,25,-42.0478,145.545,995.818,-0.209862,-0.30521,-1.47138,
2026_07_07_10_51_56.744,0,24,0,0.754,0,0,0,0, ,0,0,0,0,0, ,-41.2,145,996,-0.2,-0.3,-1.4,25,-42.0327,145.518,995.801,-0.209261,-0.304893,-1.46703,
2026_07_07_10_51_56.763,0,24,0,0.755,0,0,0,0, ,0,0,0,0,0, ,-41.5,146.1,995.4,-0.3,-0.3,-1.5,25,-41.9911,145.52,995.795,-0.211744,-0.304594,-1.46599,
2026_07_07_10_51_56.783,0,24.1,0,0.753,0,0,0,0, ,0,0,0,0,0, ,-41.3,145.3,994.6,-0.2,-0.3,-1.4,25,-41.9551,145.531,995.747,-0.214075,-0.304314,-1.46502,
2026_07_07_10_51_56.809,0,24,0,0.754,0,0,0,0, ,0,0,0,0,0, ,-41.9,146.1,995.4,-0.2,-0.3,-1.5,25,-41.9334,145.541,995.701,-0.213217,-0.304051,-1.4641,
2026_07_07_10_51_56.822,0,24,0,0.755,0,0,0,0, ,0,0,0,0,0, ,-42.2,146.2,996.2,-0.2,-0.3,-1.5,25,-41.9405,145.578,995.707,-0.212412,-0.303805,-1.46629,
2026_07_07_10_51_56.843,0,24,0,0.753,0,0,0,0, ,0,0,0,0,0, ,-42.8,146.6,997.1,-0.2,-0.3,-1.4,25,-41.9746,145.628,995.765,-0.211656,-0.303573,-1.4653,
2026_07_07_10_51_56.862,0,24,0,0.755,0,0,0,0, ,0,0,0,0,0, ,-41.7,146.2,995.6,-0.2,-0.3,-1.4,25,-41.9914,145.675,995.8,-0.210945,-0.303355,-1.46132,
2026_07_07_10_51_56.882,0,24.1,0,0.755,0,0,0,0, ,0,0,0,0,0, ,-41.2,145.6,996,-0.2,-0.3,-1.4,25,-41.9584,145.689,995.8,-0.210278,-0.303151,-1.45758,
2026_07_07_10_51_56.902,0,24,0,0.756,0,0,0,0, ,0,0,0,0,0, ,-41.9,145.7,995.3,-0.2,-0.3,-1.6,25,-41.9335,145.687,995.791,-0.209652,-0.302959,-1.46017,
2026_07_07_10_51_56.922,0,24.1,0,0.754,0,0,0,0, ,0,0,0,0,0, ,-41.7,146.9,995.3,-0.2,-0.2,-1.4,25,-41.9254,145.724,995.761,-0.209064,-0.299731,-1.46259,
2026_07_07_10_51_56.942,0,24.1,0,0.754,0,0,0,0, ,0,0,0,0,0, ,-42.6,144.7,994,-0.2,-0.3,-1.5,25,-41.9391,145.729,995.694,-0.208512,-0.296701,-1.46183,
2026_07_07_10_51_56.961,0,24.1,0,0.754,0,0,0,0, ,0,0,0,0,0, ,-42.2,147.7,994.9,-0.3,-0.3,-1.4,25,-41.9672,145.757,995.618,-0.21104,-0.296902,-1.46111,
2026_07_07_10_51_56.982,0,24.1,0,0.754,0,0,0,0, ,0,0,0,0,0, ,-40,145.9,995.6,-0.2,-0.5,-1.4,25,-41.9143,145.821,995.595,-0.213414,-0.303185,-1.45738,
2026_07_07_10_51_57.002,0,24,0,0.754,0,0,0,0, ,0,0,0,0,0, ,-41.5,145.5,996.2,-0.2,-0.2,-1.5,25,-41.8434,145.814,995.614,-0.212597,-0.306037,-1.45693,
2026_07_07_10_51_57.021,0,24.1,0,0.755,0,0,0,0, ,0,0,0,0,0, ,-40.7,145.7,995.1,-0.3,-0.2,-1.5,25,-41.7981,145.801,995.616,-0.214876,-0.299576,-1.45956,
2026_07_07_10_51_57.041,0,24.1,0,0.754,0,0,0,0, ,0,0,0,0,0, ,-40.8,146.3,996.5,-0.3,-0.3,-1.5,25,-41.7342,145.813,995.627,-0.220063,-0.296555,-1.46202,
2026_07_07_10_51_57.061,0,24,0,0.754,0,0,0,0, ,0,0,0,0,0, ,-41.9,145.3,996.7,-0.2,-0.3,-1.4,25,-41.7108,145.812,995.687,-0.221887,-0.296765,-1.46129,
2026_07_07_10_51_57.080,0,24.1,0,0.755,0,0,0,0, ,0,0,0,0,0, ,-41.5,146.1,995.9,-0.1,-0.4,-1.5,25,-41.7101,145.805,995.724,-0.217507,-0.300009,-1.4606,
2026_07_07_10_51_57.101,0,24.1,0,0.754,0,0,0,0, ,0,0,0,0,0, ,-41.5,146.4,994.6,-0.3,-0.3,-1.4,25,-41.6973,145.832,995.695,-0.21644,-0.303055,-1.45995,
2026_07_07_10_51_57.120,0,24,0,0.753,0,0,0,0, ,0,0,0,0,0, ,-41.9,145.3,997,-0.2,-0.3,-1.5,25,-41.6975,145.833,995.701,-0.218485,-0.302869,-1.45935,
2026_07_07_10_51_57.141,0,24.1,0,0.757,0,0,0,0, ,0,0,0,0,0, ,-42.8,145.5,995.4,-0.3,-0.3,-1.4,25,-41.7373,145.807,995.732,-0.220405,-0.302694,-1.45878,
2026_07_07_10_51_57.160,0,24,0,0.757,0,0,0,0, ,0,0,0,0,0, ,-41,145.9,994.5,-0.2,-0.4,-1.4,25,-41.7472,145.8,995.684,-0.222209,-0.305577,-1.4552,
2026_07_07_10_51_57.180,0,24,0,0.754,0,0,0,0, ,0,0,0,0,0, ,-41.3,145.8,994.3,-0.3,-0.3,-1.4,25,-41.7108,145.803,995.606,-0.223902,-0.308284,-1.45183,
2026_07_07_10_51_57.200,0,24.1,0,0.755,0,0,0,0, ,0,0,0,0,0, ,-41.1,146.3,994.9,-0.2,-0.3,-1.4,25,-41.6797,145.818,995.545,-0.225493,-0.307779,-1.44867,
2026_07_07_10_51_57.219,0,24.1,0,0.754,0,0,0,0, ,0,0,0,0,0, ,-41.5,146.6,995.9,-0.3,-0.2,-1.5,25,-41.6565,145.857,995.536,-0.226986,-0.304258,-1.44876,
2026_07_07_10_51_57.239,0,24.1,0,0.752,0,0,0,0, ,0,0,0,0,0, ,-41.1,145.2,994.5,-0.2,-0.3,-1.5,25,-41.6348,145.86,995.515,-0.228388,-0.300952,-1.45188,
2026_07_07_10_51_57.259,0,24.1,0,0.753,0,0,0,0, ,0,0,0,0,0, ,-41.8,146.8,996.7,-0.2,-0.3,-1.5,25,-41.6235,145.868,995.521,-0.226659,-0.300894,-1.45481,
2026_07_07_10_51_57.279,0,24.1,0,0.755,0,0,0,0, ,0,0,0,0,0, ,-41.3,146.8,993.1,-0.3,-0.2,-1.4,25,-41.6191,145.925,995.483,-0.228081,-0.297792,-1.45452,
2026_07_07_10_51_57.299,0,24.1,0,0.754,0,0,0,0, ,0,0,0,0,0, ,-41.1,146.6,994.9,-0.2,-0.3,-1.5,25,-41.5935,145.972,995.392,-0.229417,-0.29488,-1.45424,
2026_07_07_10_51_57.319,0,24.1,0,0.754,0,0,0,0, ,0,0,0,0,0, ,-40.6,146.3,994.1,-0.2,-0.2,-1.5,25,-41.5482,146.001,995.338,-0.227624,-0.292145,-1.45703,
2026_07_07_10_51_57.339,0,24,0,0.755,0,0,0,0, ,0,0,0,0,0, ,-41.2,145.9,995.1,-0.1,-0.5,-1.5,25,-41.5087,146.007,995.293,-0.222894,-0.295671,-1.45965,
2026_07_07_10_51_57.358,0,24,0,0.755,0,0,0,0, ,0,0,0,0,0, ,-41.3,146.7,995.9,-0.2,-0.3,-1.4,25,-41.4929,146.025,995.306,-0.218452,-0.302028,-1.45906,
2026_07_07_10_51_57.378,0,24,0,0.754,0,0,0,0, ,0,0,0,0,0, ,-40.8,145.7,996.3,-0.2,-0.3,-1.5,25,-41.466,146.036,995.354,-0.217327,-0.301905,-1.45851,
2026_07_07_10_51_57.398,0,24.1,0,0.754,0,0,0,0, ,0,0,0,0,0, ,-41.3,145,995.2,-0.3,-0.2,-1.4,25,-41.4406,145.994,995.378,-0.219318,-0.298742,-1.45799,
2026_07_07_10_51_57.418,0,24.1,0,0.754,0,0,0,0, ,0,0,0,0,0, ,-40.8,146.6,994,-0.2,-0.3,-1.4,25,-41.4168,145.982,995.331,-0.221188,-0.295772,-1.45446,
2026_07_07_10_51_57.438,0,24,0,0.755,0,0,0,0, ,0,0,0,0,0, ,-41.7,145.9,995.2,-0.2,-0.3,-1.4,25,-41.4066,145.998,995.286,-0.219897,-0.296029,-1.45114,
2026_07_07_10_51_57.458,0,24.1,0,0.753,0,0,0,0, ,0,0,0,0,0, ,-41,146.6,994.3,-0.2,-0.3,-1.5,25,-41.4032,146.014,995.254,-0.218684,-0.296271,-1.45107,
2026_07_07_10_51_57.478,0,24.1,0,0.752,0,0,0,0, ,0,0,0,0,0, ,-40.4,146.6,994.3,-0.2,-0.2,-1.5,25,-41.3603,146.05,995.195,-0.217546,-0.293452,-1.45405,
2026_07_07_10_51_57.497,0,24.1,0,0.754,0,0,0,0, ,0,0,0,0,0, ,-41.3,145,994.1,-0.2,-0.3,-1.5,25,-41.3292,146.034,995.135,-0.216477,-0.290804,-1.45685,
2026_07_07_10_51_57.519,0,24,0,0.755,0,0,0,0, ,0,0,0,0,0, ,-41.8,146.2,994.8,-0.2,-0.3,-1.5,25,-41.3427,146.008,995.093,-0.215473,-0.291364,-1.45948,
2026_07_07_10_51_57.537,0,24,0,0.755,0,0,0,0, ,0,0,0,0,0, ,-40.8,145.9,994.5,-0.4,-0.3,-1.5,25,-41.3401,146.01,995.066,-0.220624,-0.29189,-1.46195,
2026_07_07_10_51_57.556,0,24,0,0.753,0,0,0,0, ,0,0,0,0,0, ,-41.1,145.6,996,-0.2,-0.2,-1.6,25,-41.3163,145.995,995.077,-0.225461,-0.289338,-1.46731,
2026_07_07_10_51_57.576,0,24,0,0.755,0,0,0,0, ,0,0,0,0,0, ,-41.9,146.2,994.9,-0.3,-0.2,-1.5,25,-41.3275,145.989,995.1,-0.226956,-0.283894,-1.47235,
2026_07_07_10_51_57.596,0,24,0,0.754,0,0,0,0, ,0,0,0,0,0, ,-40.5,145.3,995.4,-0.3,-0.3,-1.6,25,-41.3197,145.974,995.103,-0.231407,-0.281828,-1.47708,
2026_07_07_10_51_57.617,0,24,0,0.755,0,0,0,0, ,0,0,0,0,0, ,-40.5,146.4,996.9,-0.4,-0.3,-1.4,25,-41.2698,145.967,995.167,-0.238634,-0.282936,-1.47848,
2026_07_07_10_51_57.636,0,24,0,0.757,0,0,0,0, ,0,0,0,0,0, ,-41.7,146.7,996,-0.2,-0.3,-1.6,25,-41.2594,146.002,995.245,-0.242373,-0.283975,-1.47979,
2026_07_07_10_51_57.656,0,24,0,0.753,0,0,0,0, ,0,0,0,0,0, ,-42.4,145.6,996.4,-0.3,-0.3,-1.5,25,-41.3076,146.011,995.303,-0.242838,-0.284952,-1.48407,
2026_07_07_10_51_57.676,0,24.1,0,0.756,0,0,0,0, ,0,0,0,0,0, ,-41,145.5,996.7,-0.3,-0.4,-1.4,25,-41.3315,145.983,995.379,-0.246321,-0.288916,-1.48199,
2026_07_07_10_51_57.696,0,24.1,0,0.753,0,0,0,0, ,0,0,0,0,0, ,-42.1,147.2,995.2,-0.3,-0.3,-1.5,25,-41.3448,146.005,995.414,-0.249592,-0.292638,-1.48004,
2026_07_07_10_51_57.715,0,24.1,0,0.753,0,0,0,0, ,0,0,0,0,0, ,-41.7,146.8,995.8,-0.2,-0.3,-1.5,25,-41.3787,146.066,995.419,-0.249617,-0.293087,-1.48126,
2026_07_07_10_51_57.735,0,24,0,0.753,0,0,0,0, ,0,0,0,0,0, ,-42.8,146.9,995.2,-0.3,-0.3,-1.5,25,-41.4318,146.114,995.424,-0.249641,-0.293508,-1.4824,
2026_07_07_10_51_57.755,0,24.1,0,0.755,0,0,0,0, ,0,0,0,0,0, ,-41.5,145.5,995.1,-0.2,-0.3,-1.5,25,-41.4755,146.119,995.407,-0.249662,-0.293904,-1.48348,
2026_07_07_10_51_57.775,0,24.1,0,0.756,0,0,0,0, ,0,0,0,0,0, ,-41.9,145,995.7,-0.3,-0.2,-1.5,25,-41.4892,146.066,995.407,-0.249683,-0.291228,-1.48448,
2026_07_07_10_51_57.794,0,24.1,0,0.756,0,0,0,0, ,0,0,0,0,0, ,-41.2,147.2,995.8,-0.3,-0.3,-1.4,25,-41.4929,146.068,995.428,-0.252749,-0.288716,-1.48238,
2026_07_07_10_51_57.814,0,24.1,0,0.756,0,0,0,0, ,0,0,0,0,0, ,-41.9,145.5,995.8,-0.2,-0.3,-1.5,25,-41.4964,146.085,995.451,-0.252582,-0.289404,-1.48041,
2026_07_07_10_51_57.834,0,24,0,0.756,0,0,0,0, ,0,0,0,0,0, ,-42.2,146.1,995.3,-0.3,-0.2,-1.5,25,-41.5301,146.068,995.457,-0.252424,-0.287002,-1.4816,
2026_07_07_10_51_57.854,0,24.1,0,0.756,0,0,0,0, ,0,0,0,0,0, ,-41.7,145.5,995.9,-0.2,-0.4,-1.5,25,-41.5557,146.052,995.465,-0.252277,-0.287794,-1.48272,
2026_07_07_10_51_57.874,0,24.3,0,0.756,0,0,0,0, ,0,0,0,0,0, ,-41.6,146.1,994.6,-0.2,-0.4,-1.6,25,-41.5615,146.036,995.452,-0.249091,-0.294632,-1.48682,
2026_07_07_10_51_57.894,0,24.3,0,0.754,0,0,0,0, ,0,0,0,0,0, ,-41.1,145.6,995.2,-0.3,-0.3,-1.4,25,-41.5486,146.025,995.419,-0.249146,-0.298006,-1.48763,
2026_07_07_10_51_57.913,0,24.1,0,0.755,0,0,0,0, ,0,0,0,0,0, ,-40.7,146.6,994.1,-0.3,-0.3,-1.5,25,-41.5091,146.03,995.372,-0.252245,-0.298127,-1.48533,
2026_07_07_10_51_57.934,0,24.1,0,0.753,0,0,0,0, ,0,0,0,0,0, ,-42.6,145.6,996.4,-0.2,-0.4,-1.5,25,-41.5176,146.034,995.364,-0.252108,-0.301288,-1.48623,
2026_07_07_10_51_57.953,0,24.1,0,0.755,0,0,0,0, ,0,0,0,0,0, ,-40,146.4,994.8,-0.2,-0.3,-1.5,25,-41.5044,146.032,995.379,-0.248933,-0.304257,-1.48707,
2026_07_07_10_51_57.972,0,24.1,0,0.755,0,0,0,0, ,0,0,0,0,0, ,-41,144.7,994.9,-0.3,-0.3,-1.5,25,-41.4432,146.002,995.346,-0.248998,-0.303997,-1.48785,
2026_07_07_10_51_57.993,0,24.1,0,0.755,0,0,0,0, ,0,0,0,0,0, ,-41.5,145.7,996.4,-0.2,-0.3,-1.5,25,-41.4314,145.954,995.365,-0.249059,-0.303754,-1.48859,
2026_07_07_10_51_58.012,0,24.1,0,0.757,0,0,0,0, ,0,0,0,0,0, ,-40.6,146.3,995.3,-0.2,-0.3,-1.5,25,-41.4082,145.956,995.395,-0.24607,-0.303525,-1.48929,
2026_07_07_10_51_58.032,0,24.3,0,0.755,0,0,0,0, ,0,0,0,0,0, ,-41,146.8,995.2,-0.3,-0.2,-1.5,25,-41.3711,145.993,995.386,-0.246309,-0.300263,-1.48994,
2026_07_07_10_51_58.052,0,24.1,0,0.755,0,0,0,0, ,0,0,0,0,0, ,-41.8,145.9,995.3,-0.3,-0.3,-1.5,25,-41.3729,146.014,995.377,-0.249581,-0.2972,-1.49055,
2026_07_07_10_51_58.072,0,24.1,0,0.755,0,0,0,0, ,0,0,0,0,0, ,-41.6,146.1,994.2,-0.2,-0.4,-1.4,25,-41.3928,146.013,995.339,-0.249606,-0.300418,-1.48808,
2026_07_07_10_51_58.093,0,24.1,0,0.755,0,0,0,0, ,0,0,0,0,0, ,-42.6,145.3,995.3,-0.3,-0.2,-1.6,25,-41.4359,145.994,995.303,-0.24963,-0.300392,-1.48881,
2026_07_07_10_51_58.111,0,24.1,0,0.756,0,0,0,0, ,0,0,0,0,0, ,-41.9,147.3,995.8,-0.2,-0.4,-1.4,25,-41.4855,146.013,995.318,-0.249653,-0.300369,-1.48949,
2026_07_07_10_51_58.132,0,24.1,0,0.753,0,0,0,0, ,0,0,0,0,0, ,-41.7,146.3,996,-0.2,-0.3,-1.5,25,-41.5047,146.061,995.354,-0.246627,-0.303393,-1.48709,
2026_07_07_10_51_58.152,0,24.1,0,0.755,0,0,0,0, ,0,0,0,0,0, ,-40,145.8,994.8,-0.3,-0.3,-1.5,25,-41.4648,146.06,995.357,-0.246833,-0.303186,-1.48787,
2026_07_07_10_51_58.172,0,24.1,0,0.755,0,0,0,0, ,0,0,0,0,0, ,-41.9,145.3,995.9,-0.3,-0.3,-1.5,25,-41.4334,146.029,995.356,-0.250073,-0.302992,-1.48861,
2026_07_07_10_51_58.191,0,24.1,0,0.755,0,0,0,0, ,0,0,0,0,0, ,-41.1,146.2,995.8,-0.3,-0.3,-1.4,25,-41.4375,146.012,995.386,-0.253115,-0.30281,-1.48626,
2026_07_07_10_51_58.211,0,24.1,0,0.755,0,0,0,0, ,0,0,0,0,0, ,-41.2,147.5,996,-0.2,-0.3,-1.4,25,-41.4199,146.063,995.418,-0.252925,-0.302639,-1.481,
2026_07_07_10_51_58.236,0,24.1,0,0.756,0,0,0,0, ,0,0,0,0,0, ,-42.8,147,995.1,-0.3,-0.2,-1.5,25,-41.4553,146.136,995.426,-0.252747,-0.299431,-1.47911,
2026_07_07_10_51_58.250,0,24.1,0,0.755,0,0,0,0, ,0,0,0,0,0, ,-40.2,146.8,994.8,-0.3,-0.3,-1.4,25,-41.458,146.182,995.397,-0.255626,-0.296419,-1.47734,
2026_07_07_10_51_58.270,0,24.3,0,0.755,0,0,0,0, ,0,0,0,0,0, ,-41.1,146.1,993.5,-0.2,-0.2,-1.5,25,-41.4088,146.198,995.321,-0.255284,-0.29359,-1.47567,
2026_07_07_10_51_58.290,0,24.1,0,0.756,0,0,0,0, ,0,0,0,0,0, ,-40.8,146.7,995.9,-0.2,-0.4,-1.5,25,-41.3808,146.211,995.283,-0.251915,-0.293981,-1.47716,
2026_07_07_10_51_58.310,0,24.3,0,0.755,0,0,0,0, ,0,0,0,0,0, ,-41,146.9,996.5,-0.3,-0.4,-1.5,25,-41.3515,146.247,995.339,-0.251798,-0.300441,-1.47855,
2026_07_07_10_51_58.330,0,24.3,0,0.755,0,0,0,0, ,0,0,0,0,0, ,-41.2,145.9,995.4,-0.2,-0.3,-1.5,25,-41.3362,146.256,995.376,-0.251689,-0.303461,-1.47985,
2026_07_07_10_51_58.349,0,24.1,0,0.755,0,0,0,0, ,0,0,0,0,0, ,-40.5,146.6,996.2,-0.3,-0.2,-1.5,25,-41.3066,146.256,995.402,-0.251586,-0.300203,-1.48108,
2026_07_07_10_51_58.370,0,24.1,0,0.756,0,0,0,0, ,0,0,0,0,0, ,-42.6,145.9,994.8,-0.3,-0.2,-1.5,25,-41.3214,146.255,995.408,-0.254536,-0.294097,-1.48223,
2026_07_07_10_51_58.389,0,24.3,0,0.755,0,0,0,0, ,0,0,0,0,0, ,-41.5,145.7,996,-0.2,-0.3,-1.4,25,-41.3658,146.228,995.407,-0.254259,-0.29141,-1.48027,
2026_07_07_10_51_58.409,0,24.3,0,0.755,0,0,0,0, ,0,0,0,0,0, ,-40.4,147.3,995.7,-0.2,-0.3,-1.4,25,-41.3405,146.244,995.434,-0.250953,-0.291934,-1.47538,
2026_07_07_10_51_58.429,0,24.1,0,0.755,0,0,0,0, ,0,0,0,0,0, ,-40.6,147,997.6,-0.3,-0.3,-1.5,25,-41.2892,146.299,995.508,-0.250895,-0.292425,-1.47383,
2026_07_07_10_51_58.448,0,24.3,0,0.755,0,0,0,0, ,0,0,0,0,0, ,-39.6,146.8,994.8,-0.3,-0.2,-1.4,25,-41.2168,146.336,995.551,-0.253887,-0.28984,-1.47238,
2026_07_07_10_51_58.469,0,24.3,0,0.756,0,0,0,0, ,0,0,0,0,0, ,-41.2,146.3,994.5,-0.3,-0.2,-1.5,25,-41.167,146.349,995.496,-0.256697,-0.284365,-1.47102,
2026_07_07_10_51_58.493,0,24.1,0,0.757,0,0,0,0, ,0,0,0,0,0, ,-41.7,146.9,993.8,-0.3,-0.4,-1.5,25,-41.1842,146.364,995.414,-0.259336,-0.285318,-1.47278,
2026_07_07_10_51_58.509,0,24.1,0,0.755,0,0,0,0, ,0,0,0,0,0, ,-42.1,145.7,995.3,-0.3,-0.3,-1.5,25,-41.2279,146.36,995.361,-0.261814,-0.289259,-1.47444,
2026_07_07_10_51_58.528,0,24.1,0,0.754,0,0,0,0, ,0,0,0,0,0, ,-42.3,146.4,995.3,-0.3,-0.3,-1.5,25,-41.2871,146.341,995.357,-0.264141,-0.289914,-1.476,
2026_07_07_10_51_58.549,0,24,0,0.755,0,0,0,0, ,0,0,0,0,0, ,-41.3,146.2,994.6,-0.3,-0.3,-1.4,25,-41.3184,146.339,995.332,-0.266326,-0.290529,-1.47441,
2026_07_07_10_51_58.568,0,24.3,0,0.755,0,0,0,0, ,0,0,0,0,0, ,-41.9,146.2,996.3,-0.3,-0.3,-1.5,25,-41.3355,146.33,995.34,-0.268378,-0.291106,-1.47293,
2026_07_07_10_51_58.588,0,24.3,0,0.754,0,0,0,0, ,0,0,0,0,0, ,-40.7,145.7,994.3,-0.3,-0.3,-1.6,25,-41.3334,146.307,995.337,-0.270305,-0.291648,-1.47762,
2026_07_07_10_51_58.607,0,24.3,0,0.758,0,0,0,0, ,0,0,0,0,0, ,-41.1,147.3,994,-0.3,-0.4,-1.5,25,-41.3069,146.319,995.265,-0.272115,-0.295204,-1.48203,
2026_07_07_10_51_58.627,0,24.1,0,0.756,0,0,0,0, ,0,0,0,0,0, ,-39.3,146.1,993.5,-0.3,-0.3,-1.5,25,-41.2395,146.342,995.173,-0.273814,-0.298543,-1.48313,
2026_07_07_10_51_58.647,0,24.1,0,0.757,0,0,0,0, ,0,0,0,0,0, ,-41,145.5,995.3,-0.3,-0.4,-1.5,25,-41.1731,146.309,995.126,-0.27541,-0.301678,-1.48416,
2026_07_07_10_51_58.667,0,24.1,0,0.755,0,0,0,0, ,0,0,0,0,0, ,-40.4,145.6,993.8,-0.3,-0.3,-1.4,25,-41.1443,146.263,995.09,-0.276908,-0.304623,-1.48208,
2026_07_07_10_51_58.687,0,24.3,0,0.754,0,0,0,0, ,0,0,0,0,0, ,-40.4,145.8,995.1,-0.2,-0.3,-1.5,25,-41.0989,146.229,995.051,-0.275268,-0.304341,-1.48012,
2026_07_07_10_51_58.707,0,24.1,0,0.754,0,0,0,0, ,0,0,0,0,0, ,-41.1,147.3,995.6,-0.3,-0.3,-1.4,25,-41.0777,146.248,995.07,-0.273729,-0.304077,-1.47829,
2026_07_07_10_51_58.726,0,24.1,0,0.755,0,0,0,0, ,0,0,0,0,0, ,-41.1,147.5,994.3,-0.3,-0.3,-1.5,25,-41.079,146.318,995.062,-0.27533,-0.303828,-1.47656,
2026_07_07_10_51_58.746,0,24.1,0,0.754,0,0,0,0, ,0,0,0,0,0, ,-40.8,146.1,996.5,-0.2,-0.3,-1.5,25,-41.0712,146.348,995.083,-0.273786,-0.303595,-1.47799,
2026_07_07_10_51_58.766,0,24.3,0,0.755,0,0,0,0, ,0,0,0,0,0, ,-41.8,147.3,994.7,-0.2,-0.3,-1.5,25,-41.0851,146.369,995.114,-0.26929,-0.303376,-1.47933,
2026_07_07_10_51_58.786,0,24.3,0,0.755,0,0,0,0, ,0,0,0,0,0, ,-40.2,146.4,993.5,-0.3,-0.3,-1.4,25,-41.0799,146.399,995.053,-0.268114,-0.30317,-1.47754,
2026_07_07_10_51_58.805,0,24.1,0,0.756,0,0,0,0, ,0,0,0,0,0, ,-40.8,146.4,994.7,-0.2,-0.3,-1.5,25,-41.0446,146.399,994.995,-0.26701,-0.302977,-1.47587,
2026_07_07_10_51_58.825,0,24.4,0,0.755,0,0,0,0, ,0,0,0,0,0, ,-42.2,145.2,996.5,-0.2,-0.4,-1.5,25,-41.0723,146.362,995.031,-0.262927,-0.305843,-1.47734,
2026_07_07_10_51_58.846,0,24.3,0,0.756,0,0,0,0, ,0,0,0,0,0, ,-40.4,146.2,995.9,-0.3,-0.4,-1.4,25,-41.0862,146.322,995.103,-0.262139,-0.31158,-1.47567,
2026_07_07_10_51_58.865,0,24.3,0,0.755,0,0,0,0, ,0,0,0,0,0, ,-40.2,145.5,995.1,-0.3,-0.2,-1.5,25,-41.0383,146.293,995.127,-0.264446,-0.310875,-1.47411,
2026_07_07_10_51_58.885,0,24.3,0,0.756,0,0,0,0, ,0,0,0,0,0, ,-42.8,145.6,994.7,-0.3,-0.2,-1.5,25,-41.0664,146.248,995.113,-0.266613,-0.304118,-1.47568,
2026_07_07_10_51_58.905,0,24.3,0,0.755,0,0,0,0, ,0,0,0,0,0, ,-41.5,146.3,994.9,-0.2,-0.3,-1.4,25,-41.1325,146.23,995.094,-0.265601,-0.30082,-1.47412,
2026_07_07_10_51_58.924,0,24.3,0,0.756,0,0,0,0, ,0,0,0,0,0, ,-40.7,145.8,993.5,-0.2,-0.3,-1.5,25,-41.1305,146.219,995.039,-0.261603,-0.30077,-1.47265,
2026_07_07_10_51_58.945,0,24.3,0,0.756,0,0,0,0, ,0,0,0,0,0, ,-41.6,146.1,995.7,-0.2,-0.4,-1.5,25,-41.1317,146.202,995.013,-0.257849,-0.30377,-1.47432,
2026_07_07_10_51_58.964,0,24.1,0,0.755,0,0,0,0, ,0,0,0,0,0, ,-41.1,145.7,994.6,-0.3,-0.3,-1.5,25,-41.145,146.184,995.021,-0.257371,-0.306587,-1.47588,
2026_07_07_10_51_58.984,0,24.3,0,0.754,0,0,0,0, ,0,0,0,0,0, ,-39.6,145.8,994.6,-0.3,-0.3,-1.6,25,-41.0965,146.157,994.995,-0.259968,-0.306186,-1.4804,
2026_07_07_10_51_59.003,0,24.3,0,0.755,0,0,0,0, ,0,0,0,0,0, ,-41,146.2,995.3,-0.2,-0.4,-1.5,25,-41.048,146.148,994.993,-0.259361,-0.308856,-1.48464,
2026_07_07_10_51_59.023,0,24.1,0,0.755,0,0,0,0, ,0,0,0,0,0, ,-40.7,146.4,995.9,-0.3,-0.4,-1.5,25,-41.0359,146.157,995.03,-0.258791,-0.31441,-1.48557,
2026_07_07_10_51_59.043,0,24.3,0,0.756,0,0,0,0, ,0,0,0,0,0, ,-40.5,145.9,995.6,-0.3,-0.3,-1.4,25,-41.0094,146.157,995.074,-0.261302,-0.316579,-1.48341,
2026_07_07_10_51_59.063,0,24.3,0,0.756,0,0,0,0, ,0,0,0,0,0, ,-41.2,147.3,995.6,-0.3,-0.2,-1.4,25,-40.9997,146.184,995.106,-0.26366,-0.312522,-1.47832,
2026_07_07_10_51_59.083,0,24.3,0,0.755,0,0,0,0, ,0,0,0,0,0, ,-41,145.9,995.9,-0.3,-0.3,-1.5,25,-41.0058,146.209,995.145,-0.265874,-0.308712,-1.4766,
2026_07_07_10_51_59.103,0,24.1,0,0.756,0,0,0,0, ,0,0,0,0,0, ,-41.9,146.2,994.8,-0.3,-0.4,-1.5,25,-41.0328,146.199,995.157,-0.267954,-0.311228,-1.47802,
2026_07_07_10_51_59.123,0,24.3,0,0.756,0,0,0,0, ,0,0,0,0,0, ,-41.2,146.1,994,-0.2,-0.3,-1.5,25,-41.0644,146.196,995.111,-0.26686,-0.31359,-1.47936,
2026_07_07_10_51_59.142,0,24.3,0,0.755,0,0,0,0, ,0,0,0,0,0, ,-40,146.3,993,-0.3,-0.3,-1.5,25,-41.0361,146.197,995.013,-0.265832,-0.312762,-1.48062,
2026_07_07_10_51_59.162,0,24.3,0,0.755,0,0,0,0, ,0,0,0,0,0, ,-40.2,145.8,994.3,-0.3,-0.3,-1.4,25,-40.979,146.188,994.93,-0.267915,-0.311985,-1.47876,
2026_07_07_10_51_59.182,0,24.3,0,0.754,0,0,0,0, ,0,0,0,0,0, ,-41,147,996.8,-0.2,-0.3,-1.4,25,-40.9559,146.201,994.968,-0.266823,-0.311254,-1.47396,
2026_07_07_10_51_59.203,0,24.3,0,0.755,0,0,0,0, ,0,0,0,0,0, ,-40.7,145.5,992.5,-0.2,-0.3,-1.5,25,-40.9495,146.204,994.948,-0.262751,-0.310568,-1.4725,
2026_07_07_10_51_59.222,0,24.3,0,0.755,0,0,0,0, ,0,0,0,0,0, ,-40.7,145.6,995.2,-0.3,-0.2,-1.5,25,-40.9343,146.164,994.881,-0.261974,-0.306878,-1.47417,
2026_07_07_10_51_59.241,0,24.3,0,0.755,0,0,0,0, ,0,0,0,0,0, ,-41.5,146.4,994,-0.3,-0.3,-1.4,25,-40.9444,146.154,994.864,-0.264291,-0.303412,-1.4727,
2026_07_07_10_51_59.261,0,24.1,0,0.756,0,0,0,0, ,0,0,0,0,0, ,-41.7,146.4,995.9,-0.2,-0.3,-1.5,25,-40.9843,146.169,994.87,-0.26342,-0.303204,-1.47132,
2026_07_07_10_51_59.281,0,24.3,0,0.754,0,0,0,0, ,0,0,0,0,0, ,-40.8,148.9,995.2,-0.2,-0.4,-1.5,25,-41.0005,146.259,994.911,-0.259556,-0.306055,-1.47306,
2026_07_07_10_51_59.301,0,24.3,0,0.755,0,0,0,0, ,0,0,0,0,0, ,-40.2,146.4,994.9,-0.4,-0.3,-1.5,25,-40.97,146.344,994.919,-0.26202,-0.308733,-1.47471,
2026_07_07_10_51_59.321,0,24.3,0,0.756,0,0,0,0, ,0,0,0,0,0, ,-40.2,145.9,994.1,-0.3,-0.3,-1.5,25,-40.9231,146.332,994.894,-0.267381,-0.308201,-1.47625,
2026_07_07_10_51_59.345,0,24.4,0,0.754,0,0,0,0, ,0,0,0,0,0, ,-41.3,146.3,994.7,-0.2,-0.3,-1.5,25,-40.9125,146.318,994.864,-0.266322,-0.307701,-1.47769,
2026_07_07_10_51_59.360,0,24.1,0,0.752,0,0,0,0, ,0,0,0,0,0, ,-40.7,147.5,995.3,-0.2,-0.4,-1.5,25,-40.9179,146.353,994.872,-0.262281,-0.310279,-1.47905,
2026_07_07_10_51_59.380,0,24.3,0,0.755,0,0,0,0, ,0,0,0,0,0, ,-40.7,146.7,995.6,-0.3,-0.3,-1.4,25,-40.9046,146.399,994.907,-0.261532,-0.312699,-1.47728,
2026_07_07_10_51_59.400,0,24.3,0,0.755,0,0,0,0, ,0,0,0,0,0, ,-42.2,147.4,995.2,-0.3,-0.2,-1.6,25,-40.9378,146.439,994.937,-0.263876,-0.308879,-1.47867,
2026_07_07_10_51_59.420,0,24.4,0,0.756,0,0,0,0, ,0,0,0,0,0, ,-40.6,146.2,995.2,-0.1,-0.3,-1.5,25,-40.966,146.461,994.953,-0.259984,-0.305291,-1.48301,
2026_07_07_10_51_59.440,0,24.3,0,0.755,0,0,0,0, ,0,0,0,0,0, ,-40.2,145.6,993.5,-0.3,-0.2,-1.5,25,-40.9315,146.426,994.917,-0.256329,-0.301921,-1.48405,
2026_07_07_10_51_59.459,0,24.4,0,0.755,0,0,0,0, ,0,0,0,0,0, ,-40,145.9,994.1,-0.2,-0.3,-1.5,25,-40.8808,146.385,994.849,-0.255943,-0.298757,-1.48502,
2026_07_07_10_51_59.479,0,24.4,0,0.756,0,0,0,0, ,0,0,0,0,0, ,-41.5,146.8,995.1,-0.3,-0.4,-1.6,25,-40.8729,146.383,994.833,-0.255581,-0.30188,-1.48898,
2026_07_07_10_51_59.499,0,24.3,0,0.755,0,0,0,0, ,0,0,0,0,0, ,-39.6,146.2,994.8,-0.2,-0.3,-1.5,25,-40.8532,146.39,994.841,-0.255241,-0.304812,-1.4927,
2026_07_07_10_51_59.519,0,24.4,0,0.755,0,0,0,0, ,0,0,0,0,0, ,-41.3,147.5,993.7,-0.2,-0.3,-1.4,25,-40.8286,146.418,994.805,-0.251875,-0.304519,-1.4901,
2026_07_07_10_51_59.539,0,24.3,0,0.754,0,0,0,0, ,0,0,0,0,0, ,-40.5,146.2,994.8,-0.2,-0.3,-1.5,25,-40.833,146.444,994.771,-0.248713,-0.304244,-1.48765,
2026_07_07_10_51_59.559,0,24.3,0,0.756,0,0,0,0, ,0,0,0,0,0, ,-41.9,145.1,993.5,-0.5,-0.5,-1.2,25,-40.8553,146.396,994.733,-0.254886,-0.310079,-1.47927,
2026_07_07_10_51_59.579,0,24.4,0,0.755,0,0,0,0, ,0,0,0,0,0, ,-45.7,147.4,994.1,0.7,-1.3,-0.8,25,-41.0348,146.387,994.676,-0.23326,-0.346027,-1.45006,
2026_07_07_10_51_59.598,0,24.4,0,0.756,0,0,0,0, ,0,0,0,0,0, ,-38.9,144.7,992.4,0.6,-1.3,0,25,-41.1119,146.367,994.589,-0.179436,-0.40416,-1.38607,
2026_07_07_10_51_59.618,0,24.4,0,0.755,0,0,0,0, ,0,0,0,0,0, ,-44.5,146.1,997.6,0.5,-1.2,-1.3,25,-41.1477,146.308,994.614,-0.134986,-0.455703,-1.34122,
2026_07_07_10_51_59.638,0,24.3,0,0.756,0,0,0,0, ,0,0,0,0,0, ,-23.6,143.6,998.7,-2,-1.2,1.4,25,-40.7152,146.219,994.83,-0.172464,-0.501059,-1.25644,
2026_07_07_10_51_59.658,0,24.4,0,0.754,0,0,0,0, ,0,0,0,0,0, ,-44.4,150.6,979,0.3,-3.6,0,25,-40.306,146.273,994.465,-0.213751,-0.616776,-1.13722,
2026_07_07_10_51_59.681,0,24.4,0,0.755,0,0,0,0, ,0,0,0,0,0, ,-32.4,145.9,1012.5,0.2,-2.2,-0.8,25,-40.1898,146.393,994.544,-0.185491,-0.75591,-1.0923,
2026_07_07_10_51_59.698,0,24.3,0,0.756,0,0,0,0, ,0,0,0,0,0, ,-31,148.9,1002.5,-0.6,1.8,2.2,25,-39.6725,146.454,995.333,-0.186375,-0.722034,-0.983078,
2026_07_07_10_51_59.717,0,24.3,0,0.755,0,0,0,0, ,0,0,0,0,0, ,-37.1,145.7,998,-2.2,4.4,-1.8,25,-39.3299,146.506,995.633,-0.26033,-0.489129,-0.910984,
2026_07_07_10_51_59.737,0,24.4,0,0.754,0,0,0,0, ,0,0,0,0,0, ,-40.2,150.7,1008.5,0.6,5.6,-4.2,25,-39.2884,146.609,996.097,-0.293217,-0.154635,-1.03828,
2026_07_07_10_51_59.757,0,24.4,0,0.754,0,0,0,0, ,0,0,0,0,0, ,-37.9,149.2,1006.9,-3.2,10.7,-2.3,25,-39.2739,146.813,996.804,-0.354567,0.351429,-1.17306,
2026_07_07_10_51_59.777,0,24.4,0,0.755,0,0,0,0, ,0,0,0,0,0, ,-13.3,143.4,962.1,2.1,2.9,-1.6,25,-38.4407,146.782,996.054,-0.366477,0.744388,-1.2204,
2026_07_07_10_51_59.796,0,24.3,0,0.753,0,0,0,0, ,0,0,0,0,0, ,-54.6,154.1,1026.7,2.4,5.5,1.2,25,-38.167,146.901,995.953,-0.207035,0.954965,-1.15822,
2026_07_07_10_51_59.816,0,24.3,0,0.755,0,0,0,0, ,0,0,0,0,0, ,-70.6,161.3,1031.6,0.9,8.2,-1.1,25,-39.6559,147.56,997.976,-0.093872,1.31419,-1.0846,
2026_07_07_10_51_59.836,0,24.3,0,0.755,0,0,0,0, ,0,0,0,0,0, ,-41,154.4,1058.5,-8.9,16.1,4.6,25,-40.6397,148.187,1000.84,-0.331902,1.9745,-0.911864,
2026_07_07_10_51_59.856,0,24.4,0,0.755,0,0,0,0, ,0,0,0,0,0, ,-31.2,157.5,1054.9,-15.4,27.8,14.4,25,-40.363,148.66,1004.25,-1.05207,3.19176,-0.277391,
2026_07_07_10_51_59.876,0,24.3,0,0.755,0,0,0,0, ,0,0,0,0,0, ,-96.6,38.4,1119.9,-11,40.5,17.6,25,-41.7973,145.57,1009.32,-1.79233,5.07827,0.714512,
2026_07_07_10_51_59.895,0,24.3,0,0.755,0,0,0,0, ,0,0,0,0,0, ,-103.1,134.1,1129.5,-29.4,60.3,-9.9,25,-45.3349,141.955,1016.35,-2.91405,7.84007,0.905581,
2026_07_07_10_51_59.915,0,24.3,0,0.756,0,0,0,0, ,0,0,0,0,0, ,-178.4,133.7,1079.7,-24.5,76.3,-25.8,25,-51.1493,141.464,1021.72,-4.37874,11.5243,-0.237337,
2026_07_07_10_51_59.935,0,24.3,0,0.755,0,0,0,0, ,0,0,0,0,0, ,-87.5,95.5,1008.1,-47.8,85.5,-44.7,25,-56.134,139.827,1023.08,-6.3148,15.7519,-2.37092,
2026_07_07_10_51_59.955,0,24.4,0,0.756,0,0,0,0, ,0,0,0,0,0, ,-156.8,96.3,992.9,-37.7,84,-55.6,25,-60.1568,137.15,1021.7,-8.53507,19.9565,-5.28246,
2026_07_07_10_51_59.975,0,24.3,0,0.755,0,0,0,0, ,0,0,0,0,0, ,-310.7,142.5,966.5,-54.1,90,-51.5,25,-70.7352,136.068,1019.14,-10.812,24.042,-8.22376,
2026_07_07_10_51_59.995,0,24.3,0,0.755,0,0,0,0, ,0,0,0,0,0, ,-286.4,7.2,882.4,-36.7,81.4,-20.9,25,-84.6176,132.338,1013.37,-12.9197,27.7992,-9.92856,
2026_07_07_10_52_00.015,0,24.4,0,0.755,0,0,0,0, ,0,0,0,0,0, ,-317.6,68.2,1006.7,-49.2,47.6,-42.5,25,-97.8644,126.571,1009.18,-14.7497,30.0357,-11.2553,
2026_07_07_10_52_00.034,0,24.4,0,0.755,0,0,0,0, ,0,0,0,0,0, ,-304.1,26.8,1050.7,-33.7,15.1,-41.7,25,-110.843,121.753,1010.37,-16.3767,30.1158,-13.1349,
2026_07_07_10_52_00.054,0,24.4,0,0.754,0,0,0,0, ,0,0,0,0,0, ,-292.2,-9.7,1020.5,-42.8,-1.1,-37.6,25,-122.257,114.854,1011.9,-17.7096,28.7072,-14.7506,
2026_07_07_10_52_00.074,0,24.3,0,0.755,0,0,0,0, ,0,0,0,0,0, ,-216.4,146.6,939.3,-15,2.1,-35.6,25,-130.304,112.027,1009.95,-18.3915,26.9883,-16.0821,
2026_07_07_10_52_00.094,0,24.3,0,0.755,0,0,0,0, ,0,0,0,0,0, ,-145.9,-53.1,988,21.5,25.8,-27.2,25,-133.402,108.049,1007.13,-17.0728,26.1938,-17.0155,
2026_07_07_10_52_00.114,0,24.4,0,0.755,0,0,0,0, ,0,0,0,0,0, ,-340.3,-59.5,1007.6,7.1,47.8,-31.5,25,-140.087,98.0337,1006.56,-15.161,26.8401,-17.7671,
2026_07_07_10_52_00.133,0,24.4,0,0.755,0,0,0,0, ,0,0,0,0,0, ,-369.1,-48,967.7,-0.6,65.8,-54.8,25,-153.165,88.7844,1005.41,-14.0391,28.6658,-19.3139,
2026_07_07_10_52_00.153,0,24.4,0,0.755,0,0,0,0, ,0,0,0,0,0, ,-396.6,-138.3,892.5,29.5,75,-82.9,25,-167.161,77.6978,1000.82,-12.303,31.209,-22.3325,
2026_07_07_10_52_00.180,0,24.4,0,0.755,0,0,0,0, ,0,0,0,0,0, ,-366.8,100.3,916.2,44.8,81.9,-77.7,25,-180.235,71.8053,994.943,-9.28947,34.0877,-25.8649,
2026_07_07_10_52_00.193,0,24.4,0,0.755,0,0,0,0, ,0,0,0,0,0, ,-331.7,287.7,902,19.9,74.3,-61.3,25,-190.534,79.2515,989.712,-6.75206,36.7697,-28.5239,
2026_07_07_10_52_00.213,0,24.4,0,0.755,0,0,0,0, ,0,0,0,0,0, ,-432.1,25.1,917.7,-0.9,61,-54.9,25,-202.195,83.9528,984.845,-5.7617,38.6515,-30.3262,
2026_07_07_10_52_00.233,0,24.4,0,0.755,0,0,0,0, ,0,0,0,0,0, ,-393.6,22.2,1010.9,-2.5,38.6,-69.9,25,-215.032,80.2781,983.593,-5.51419,39.3308,-32.2807,
2026_07_07_10_52_00.253,0,24.4,0,0.756,0,0,0,0, ,0,0,0,0,0, ,-378,-8.5,982.9,-36.5,22.2,-65.6,25,-225.438,75.8035,984.404,-6.36645,38.7866,-34.4421,
2026_07_07_10_52_00.272,0,24.3,0,0.756,0,0,0,0, ,0,0,0,0,0, ,-418,-25.6,917.4,-48.1,17.3,-50.3,25,-235.954,70.1453,982.317,-8.55615,37.6266,-35.8746,
2026_07_07_10_52_00.292,0,24.4,0,0.756,0,0,0,0, ,0,0,0,0,0, ,-390.9,0.1,872.1,-60.4,12,-21.1,25,-246.222,65.0938,976.981,-11.3406,36.2264,-35.864,
2026_07_07_10_52_00.312,0,24.4,0,0.755,0,0,0,0, ,0,0,0,0,0, ,-387.2,-136.2,879.2,-58.3,0.6,-23.8,25,-254.925,56.9804,970.806,-14.2662,34.4028,-35.0466,
2026_07_07_10_52_00.333,0,24.4,0,0.754,0,0,0,0, ,0,0,0,0,0, ,-411.1,-81.7,904.4,-55.5,-5,-31.5,25,-263.714,46.869,965.992,-16.8642,32.1723,-34.5958,
2026_07_07_10_52_00.352,0,24.4,0,0.755,0,0,0,0, ,0,0,0,0,0, ,-369.9,-36.2,841.3,-52.4,-1.6,-24.2,25,-271.44,40.4207,960.316,-19.1241,30.0107,-34.1848,
2026_07_07_10_52_00.372,0,24.4,0,0.754,0,0,0,0, ,0,0,0,0,0, ,-349.7,-73.4,809.5,-53.8,2.2,-19.8,25,-276.824,34.6182,952.094,-21.1945,28.2002,-33.4423,
2026_07_07_10_52_00.391,0,24.5,0,0.755,0,0,0,0, ,0,0,0,0,0, ,-400.5,-168.3,802.9,-50.5,7.2,-13.3,25,-282.813,25.1443,943.204,-23.0809,26.7682,-32.4129,
2026_07_07_10_52_00.411,0,24.4,0,0.754,0,0,0,0, ,0,0,0,0,0, ,-445.8,-217.8,850.9,-40.4,1.3,-8,25,-291.365,11.8481,936.117,-24.444,25.396,-31.0867,
2026_07_07_10_52_00.431,0,24.4,0,0.755,0,0,0,0, ,0,0,0,0,0, ,-443.3,-325.5,702,-13,-12.7,-7,25,-300.699,-5.42756,926.387,-24.5815,23.5011,-29.6494,
2026_07_07_10_52_00.451,0,24.4,0,0.756,0,0,0,0, ,0,0,0,0,0, ,-393,-220.4,815.9,-6.4,-42.9,1.2,25,-307.857,-21.7297,916.184,-23.6746,20.3749,-28.0194,
2026_07_07_10_52_00.471,0,24.4,0,0.755,0,0,0,0, ,0,0,0,0,0, ,-373.9,-122.5,812.8,-2.9,-62.3,-10.2,25,-312.463,-30.8533,909.978,-22.5153,15.928,-26.5861,
2026_07_07_10_52_00.490,0,24.5,0,0.755,0,0,0,0, ,0,0,0,0,0, ,-397.7,-281.8,845.5,-9.9,-77.5,0.7,25,-316.932,-41.2917,905.053,-21.5333,10.6979,-25.2555,
2026_07_07_10_52_00.510,0,24.4,0,0.755,0,0,0,0, ,0,0,0,0,0, ,-326.4,-199.4,945.8,-18.9,-92.7,8.2,25,-319.681,-53.437,904.48,-21.0986,4.86017,-23.4453,
2026_07_07_10_52_00.535,0,24.4,0,0.754,0,0,0,0, ,0,0,0,0,0, ,-268,-216.3,918.3,-27,-100.4,21.6,25,-318.311,-62.8466,906.16,-21.2114,-1.31951,-21.1087,
2026_07_07_10_52_00.550,0,24.4,0,0.756,0,0,0,0, ,0,0,0,0,0, ,-340.9,-264.2,962.7,-32.7,-128.9,8.1,25,-317.467,-73.6571,908.252,-21.7378,-8.22559,-18.9174,
2026_07_07_10_52_00.570,0,24.4,0,0.754,0,0,0,0, ,0,0,0,0,0, ,-284.1,-168.8,917.7,-28.5,-152.6,-11.2,25,-317.164,-82.3616,910.199,-22.2779,-16.3013,-17.8591,
2026_07_07_10_52_00.589,0,24.4,0,0.754,0,0,0,0, ,0,0,0,0,0, ,-281.4,-206,1018.7,-16.9,-140.5,1.3,25,-315.067,-88.7624,913.734,-22.3036,-24.2383,-17.0725,
2026_07_07_10_52_00.609,0,24.4,0,0.754,0,0,0,0, ,0,0,0,0,0, ,-151.9,-235.9,1006.7,-27.8,-108.3,17.3,25,-309.07,-96.8175,919.764,-22.3064,-30.3419,-15.4654,
2026_07_07_10_52_00.629,0,24.4,0,0.754,0,0,0,0, ,0,0,0,0,0, ,-23.5,-249.7,1011.5,-41.5,-87.2,29.6,25,-295.58,-105.713,925.208,-23.0586,-34.4496,-13.094,
2026_07_07_10_52_00.648,0,24.4,0,0.756,0,0,0,0, ,0,0,0,0,0, ,-15.8,-194.2,949.8,-75.2,-91.7,44.4,25,-278.766,-112.797,928.587,-25.2092,-37.8012,-10.0414,
2026_07_07_10_52_00.669,0,24.4,0,0.755,0,0,0,0, ,0,0,0,0,0, ,-143.5,-238.1,945.9,-109.4,-109.8,60.3,25,-266.632,-119.095,929.761,-29.2975,-41.6371,-6.2394,
2026_07_07_10_52_00.689,0,24.4,0,0.755,0,0,0,0, ,0,0,0,0,0, ,-270.1,-422.7,982.1,-78.6,-129.8,31.3,25,-262.986,-131.971,931.847,-33.2403,-46.4002,-3.06825,
2026_07_07_10_52_00.708,0,24.4,0,0.754,0,0,0,0, ,0,0,0,0,0, ,-114.9,-311.4,884.2,-32.4,-111.8,-18.2,25,-258.691,-146.296,931.927,-34.5968,-50.9339,-2.48214,
2026_07_07_10_52_00.728,0,24.4,0,0.754,0,0,0,0, ,0,0,0,0,0, ,51.6,-337.4,917.6,2.9,-92.8,-25.8,25,-244.855,-157.149,930.036,-33.3874,-54.064,-3.67151,
2026_07_07_10_52_00.748,0,24.5,0,0.757,0,0,0,0, ,0,0,0,0,0, ,146.4,-370.7,985.1,17.2,-90.1,-3.9,25,-223.902,-169.148,931.335,-30.7404,-56.3422,-4.3527,
2026_07_07_10_52_00.768,0,24.4,0,0.755,0,0,0,0, ,0,0,0,0,0, ,179.4,-388.6,899.2,17.4,-78.6,18.1,25,-200.331,-181.975,931.994,-27.8129,-58.049,-3.6548,
2026_07_07_10_52_00.787,0,24.4,0,0.755,0,0,0,0, ,0,0,0,0,0, ,119.6,-349.6,888.5,3.5,-68,10,25,-179.013,-193.378,929.669,-25.4813,-58.9783,-2.57591,
2026_07_07_10_52_00.807,0,24.4,0,0.755,0,0,0,0, ,0,0,0,0,0, ,41.9,-325.6,844.2,33.9,-67.7,-2.4,25,-163.184,-202.167,925.811,-22.789,-59.5189,-2.18738,
2026_07_07_10_52_00.827,0,24.4,0,0.755,0,0,0,0, ,0,0,0,0,0, ,29.2,-295.5,950.1,42.6,-90.5,-19,25,-151.074,-208.771,924.064,-19.0694,-60.7122,-2.70612,
2026_07_07_10_52_00.847,0,24.4,0,0.756,0,0,0,0, ,0,0,0,0,0, ,248.4,-310.3,1007.9,30.8,-117.3,-12.8,25,-133.409,-214.507,927.412,-15.671,-63.3439,-3.51012,
2026_07_07_10_52_00.867,0,24.4,0,0.756,0,0,0,0, ,0,0,0,0,0, ,358.5,-340.2,931.8,18.8,-128.4,11.3,25,-106.788,-221.256,929.998,-13.2048,-66.9701,-3.34192,
2026_07_07_10_52_00.887,0,24.4,0,0.755,0,0,0,0, ,0,0,0,0,0, ,263.9,-277.7,882.6,21.2,-127.9,11,25,-81.3171,-226.6,928.609,-11.1814,-70.6982,-2.45882,
2026_07_07_10_52_00.911,0,24.4,0,0.755,0,0,0,0, ,0,0,0,0,0, ,241,-256.8,881.2,11.1,-125.7,2.9,25,-60.9781,-229.077,925.762,-9.51586,-74.1169,-1.88547,
2026_07_07_10_52_00.926,0,24.5,0,0.755,0,0,0,0, ,0,0,0,0,0, ,317.9,-293,883.4,5.8,-120.5,-4.2,25,-40.2333,-231.869,923.114,-8.42107,-77.1018,-1.81019,
2026_07_07_10_52_00.946,0,24.5,0,0.755,0,0,0,0, ,0,0,0,0,0, ,426.2,-259.6,880.4,13.5,-119.6,-12.4,25,-15.1098,-234.577,920.602,-7.31986,-79.719,-2.20566,
2026_07_07_10_52_00.966,0,24.5,0,0.755,0,0,0,0, ,0,0,0,0,0, ,406.1,-323.2,828,19.4,-134.1,-9,25,11.1701,-238.039,916.556,-5.87138,-82.591,-2.72328,
2026_07_07_10_52_00.985,0,24.5,0,0.755,0,0,0,0, ,0,0,0,0,0, ,532.3,-226.8,851.5,29.9,-154.3,1.4,25,39.0813,-240.292,911.876,-4.01149,-86.3453,-2.7889,
2026_07_07_10_52_01.005,0,24.5,0,0.755,0,0,0,0, ,0,0,0,0,0, ,575.1,-213.5,779.7,15.4,-134.6,-10.5,25,70.4409,-239.064,906.009,-2.3868,-89.8861,-2.89621,
2026_07_07_10_52_01.026,0,24.5,0,0.756,0,0,0,0, ,0,0,0,0,0, ,589.5,-243.5,809.9,6.5,-131.6,-19.2,25,101.632,-238.42,899.232,-1.57409,-92.5194,-3.62465,
2026_07_07_10_52_01.046,0,24.5,0,0.755,0,0,0,0, ,0,0,0,0,0, ,625,-239.9,778.5,8.3,-140.1,-14,25,132.443,-238.62,892.832,-1.02723,-95.1599,-4.41533,
2026_07_07_10_52_01.064,0,24.5,0,0.755,0,0,0,0, ,0,0,0,0,0, ,636.4,-213,772.3,7.7,-127.9,-19,25,162.806,-237.879,885.676,-0.477136,-97.5267,-5.15174,
2026_07_07_10_52_01.088,0,24.5,0,0.755,0,0,0,0, ,0,0,0,0,0, ,677.9,-237.5,739,2.6,-115,-17.1,25,192.93,-237.109,877.752,-0.134233,-98.9845,-5.93773,
2026_07_07_10_52_01.104,0,24.5,0,0.755,0,0,0,0, ,0,0,0,0,0, ,687,-250.9,709.8,1.8,-114.5,-13.7,25,222.76,-237.541,868.407,0.00800939,-99.9452,-6.51434,
2026_07_07_10_52_01.124,0,24.5,0,0.756,0,0,0,0, ,0,0,0,0,0, ,720.5,-227.2,674.6,7.5,-116,-11.5,25,252.07,-237.633,857.67,0.290881,-100.878,-6.88518,
2026_07_07_10_52_01.145,0,24.5,0,0.755,0,0,0,0, ,0,0,0,0,0, ,786.3,-236.5,670.4,5.9,-108.7,-8.6,25,282.62,-237.281,846.386,0.681436,-101.577,-7.07804,
2026_07_07_10_52_01.164,0,24.5,0,0.755,0,0,0,0, ,0,0,0,0,0, ,788.2,-227.9,669.4,1.8,-90.8,-2.9,25,313.371,-236.971,835.631,0.874521,-101.466,-6.99711,
2026_07_07_10_52_01.184,0,24.5,0,0.755,0,0,0,0, ,0,0,0,0,0, ,758.4,-231.3,638.5,-7.9,-79.6,-2,25,341.398,-236.522,824.56,0.63537,-100.474,-6.72002,
2026_07_07_10_52_01.204,0,24.5,0,0.755,0,0,0,0, ,0,0,0,0,0, ,737.9,-222.7,583,-11.1,-76.6,-7.4,25,366.184,-235.942,811.531,0.0177461,-99.111,-6.59693,
2026_07_07_10_52_01.223,0,24.5,0,0.756,0,0,0,0, ,0,0,0,0,0, ,797.4,-214.3,557.7,-15.5,-76.3,-13.4,25,390.649,-234.879,796.834,-0.793804,-97.7301,-6.82868,
2026_07_07_10_52_01.243,0,24.5,0,0.754,0,0,0,0, ,0,0,0,0,0, ,886.3,-234.6,499.5,-11.6,-75.7,-9.3,25,418.144,-234.243,780.489,-1.57113,-96.4059,-7.10419,
2026_07_07_10_52_01.263,0,24.5,0,0.756,0,0,0,0, ,0,0,0,0,0, ,875,-229.9,448.1,-4.9,-79.6,-2,25,446.328,-234.122,761.8,-1.97813,-95.263,-7.01558,
2026_07_07_10_52_01.282,0,24.5,0,0.756,0,0,0,0, ,0,0,0,0,0, ,852.5,-232.2,408.8,3.6,-84.9,-1,25,471.764,-233.935,741.486,-1.8972,-94.47,-6.67947,
2026_07_07_10_52_01.302,0,24.5,0,0.756,0,0,0,0, ,0,0,0,0,0, ,827.7,-241.3,433.9,5.3,-85.3,-4.2,25,494.21,-234.106,721.978,-1.51041,-93.899,-6.43088,
2026_07_07_10_52_01.323,0,24.5,0,0.755,0,0,0,0, ,0,0,0,0,0, ,835.9,-233.5,428.9,-0.3,-68.2,-5.1,25,514.782,-234.307,704.271,-1.26603,-92.854,-6.32236,
2026_07_07_10_52_01.342,0,24.5,0,0.755,0,0,0,0, ,0,0,0,0,0, ,846.3,-223.5,402.2,0,-59.7,-4.5,25,534.667,-233.953,686.677,-1.19802,-91.0927,-6.22959,
2026_07_07_10_52_01.363,0,24.5,0,0.755,0,0,0,0, ,0,0,0,0,0, ,855.9,-212.1,369.5,4.8,-52.7,-5.5,25,553.949,-232.969,668.345,-0.978766,-88.9664,-6.15466,
2026_07_07_10_52_01.381,0,24.5,0,0.754,0,0,0,0, ,0,0,0,0,0, ,876.4,-227.9,309.2,10.4,-36.2,-5.4,25,572.974,-232.178,648.297,-0.455998,-86.2537,-6.11172,
2026_07_07_10_52_01.401,0,24.5,0,0.755,0,0,0,0, ,0,0,0,0,0, ,857.1,-213.1,312.6,13.6,-49.9,-8.1,25,590.876,-231.467,627.737,0.30304,-83.6209,-6.15062,
2026_07_07_10_52_01.421,0,24.5,0,0.756,0,0,0,0, ,0,0,0,0,0, ,870.2,-213.8,308.1,15,-56.4,-12.6,25,607.498,-230.369,608.396,1.15598,-81.7641,-6.40652,
2026_07_07_10_52_01.441,0,24.5,0,0.755,0,0,0,0, ,0,0,0,0,0, ,879.6,-217,321.2,17.4,-40.1,-14.8,25,623.793,-229.457,590.496,2.07272,-79.7219,-6.85096,
2026_07_07_10_52_01.467,0,24.5,0,0.755,0,0,0,0, ,0,0,0,0,0, ,937.6,-226.6,359.7,13,-17.2,-16.5,25,641.148,-228.99,575.259,2.87267,-76.6097,-7.38715,
2026_07_07_10_52_01.481,0,24.6,0,0.755,0,0,0,0, ,0,0,0,0,0, ,973.8,-214.3,336.4,10.8,-3,-15.3,25,660.316,-228.47,561.413,3.42277,-72.5567,-7.90591,
2026_07_07_10_52_01.501,0,24.6,0,0.756,0,0,0,0, ,0,0,0,0,0, ,1007.5,-204.3,317.9,15.2,-2.5,-17.2,25,680.446,-227.302,547.138,4.00638,-68.3029,-8.41437,
2026_07_07_10_52_01.521,0,24.4,0,0.754,0,0,0,0, ,0,0,0,0,0, ,1042.1,-218.6,274.1,21.3,-5.8,-13.8,25,701.43,-226.336,531.834,4.87435,-64.3936,-8.84615,
2026_07_07_10_52_01.540,0,24.4,0,0.756,0,0,0,0, ,0,0,0,0,0, ,986.2,-203.1,260.4,27.6,-32.9,-7.5,25,720.487,-225.392,515.711,6.06724,-61.6487,-8.95608,
2026_07_07_10_52_01.560,0,24.6,0,0.754,0,0,0,0, ,0,0,0,0,0, ,917.9,-185.5,323.7,24.7,-52.5,-12.8,25,734.597,-223.497,502.082,7.29104,-60.494,-9.02883,
2026_07_07_10_52_01.580,0,24.6,0,0.755,0,0,0,0, ,0,0,0,0,0, ,919.4,-170,380.9,15.7,-46.5,-17.2,25,745.813,-220.71,492.954,8.07768,-59.8241,-9.3927,
2026_07_07_10_52_01.600,0,24.6,0,0.755,0,0,0,0, ,0,0,0,0,0, ,968.7,-173.8,331.9,9.3,-26.7,-15.3,25,757.893,-217.735,484.633,8.34716,-58.4089,-9.81057,
2026_07_07_10_52_01.620,0,24.6,0,0.754,0,0,0,0, ,0,0,0,0,0, ,969.8,-130.6,191.1,12.9,-23,-10.7,25,770.773,-213.742,471.036,8.51491,-56.3639,-10.0049,
2026_07_07_10_52_01.646,0,24.6,0,0.755,0,0,0,0, ,0,0,0,0,0, ,931.3,-116.5,189.9,25.4,-79.9,-18.3,25,781.728,-208.246,453.941,9.16299,-56.0644,-10.2788,
2026_07_07_10_52_01.662,0,24.6,0,0.755,0,0,0,0, ,0,0,0,0,0, ,989.7,-116.6,282.1,17.6,-121.1,-23.7,25,792.622,-202.658,440.66,9.91478,-58.7722,-10.9322,
2026_07_07_10_52_01.679,0,24.6,0,0.756,0,0,0,0, ,0,0,0,0,0, ,1021.2,-141.8,291.3,6,-89.8,-18.7,25,805.591,-198.182,431.278,10.0297,-61.6167,-11.5579,
2026_07_07_10_52_01.699,0,24.6,0,0.755,0,0,0,0, ,0,0,0,0,0, ,963.2,-121.5,206,1.9,-45.6,-11.5,25,816.963,-194.127,420.149,9.65918,-61.9874,-11.7737,
2026_07_07_10_52_01.719,0,24.6,0,0.755,0,0,0,0, ,0,0,0,0,0, ,924.6,-109.7,157.9,7.2,-37.2,-15.3,25,824.698,-189.342,405.634,9.34784,-60.7328,-11.8728,
2026_07_07_10_52_01.739,0,24.5,0,0.754,0,0,0,0, ,0,0,0,0,0, ,954.3,-94.8,137.9,7.9,-54.2,-20.8,25,831.691,-184.035,389.928,9.23828,-59.8168,-12.2492,
2026_07_07_10_52_01.758,0,24.6,0,0.755,0,0,0,0, ,0,0,0,0,0, ,1008.1,-79.8,143,1.3,-63.6,-22.5,25,840.801,-178.14,374.726,8.95564,-59.7609,-12.8221,
2026_07_07_10_52_01.778,0,24.5,0,0.754,0,0,0,0, ,0,0,0,0,0, ,997.9,-93.6,136.5,-5.8,-47.9,-15.3,25,850.685,-172.568,360.407,8.27279,-59.5165,-13.1925,
2026_07_07_10_52_01.798,0,24.6,0,0.757,0,0,0,0, ,0,0,0,0,0, ,942.7,-93.7,127,-7.8,-13,-14.1,25,857.974,-167.759,346.473,7.35429,-57.7452,-13.2843,
2026_07_07_10_52_01.817,0,24.5,0,0.755,0,0,0,0, ,0,0,0,0,0, ,905.8,-77.1,50.4,-8.3,13.1,-16.5,25,862.013,-162.74,330.765,6.4156,-54.2233,-13.4072,
2026_07_07_10_52_01.843,0,24.6,0,0.754,0,0,0,0, ,0,0,0,0,0, ,878.5,-80.9,11.8,-2.3,15.2,-22.2,25,863.849,-157.637,312.504,5.70168,-50.0568,-13.7693,
2026_07_07_10_52_01.860,0,24.6,0,0.755,0,0,0,0, ,0,0,0,0,0, ,869.8,-56.1,41.2,7.6,0.6,-34.1,25,864.477,-152.205,295.076,5.51571,-46.5251,-14.6456,
2026_07_07_10_52_01.877,0,24.6,0,0.753,0,0,0,0, ,0,0,0,0,0, ,942.1,-73.4,117.7,5.4,-10.9,-42.3,25,867.004,-146.876,281.936,5.57569,-44.0038,-16.081,
2026_07_07_10_52_01.897,0,24.6,0,0.755,0,0,0,0, ,0,0,0,0,0, ,1041.9,-62.2,148.1,-0.9,-4,-33.5,25,874.621,-142.057,272.854,5.37303,-41.7763,-17.4106,
2026_07_07_10_52_01.916,0,24.6,0,0.755,0,0,0,0, ,0,0,0,0,0, ,1058.9,-67,198.7,-11.3,30,-17.2,25,885.333,-137.337,266.794,4.6739,-38.4384,-17.8944,
2026_07_07_10_52_01.937,0,24.6,0,0.755,0,0,0,0, ,0,0,0,0,0, ,992,-41.7,180.9,-19.7,67.1,-7.2,25,893.871,-132.28,262.102,3.44455,-33.1375,-17.5474,
2026_07_07_10_52_01.957,0,24.6,0,0.754,0,0,0,0, ,0,0,0,0,0, ,944.8,-9.7,123.7,-19.2,79.2,-8.6,25,898.413,-125.786,255.411,2.04941,-26.6606,-16.9595,
2026_07_07_10_52_01.977,0,24.6,0,0.753,0,0,0,0, ,0,0,0,0,0, ,950.8,-7,120.6,-9.5,63.4,-14,25,901.422,-118.629,247.29,1.05007,-20.6912,-16.6146,
2026_07_07_10_52_01.997,0,24.6,0,0.755,0,0,0,0, ,0,0,0,0,0, ,1000.2,-14.5,177.3,-1.6,35.8,-14.9,25,905.936,-112.055,241.298,0.647882,-16.4078,-16.4827,
2026_07_07_10_52_02.016,0,24.6,0,0.755,0,0,0,0, ,0,0,0,0,0, ,1029.7,-25.2,197.3,-0.7,17.1,-8.6,25,912.579,-106.437,238.007,0.538324,-13.7961,-16.1943,
2026_07_07_10_52_02.042,0,24.6,0,0.756,0,0,0,0, ,0,0,0,0,0, ,983.2,-29.7,221,0,15.2,-2.7,25,918.3,-101.623,236.249,0.484192,-11.9713,-15.5518,
2026_07_07_10_52_02.059,0,24.6,0,0.756,0,0,0,0, ,0,0,0,0,0, ,944.4,-25.2,249.1,-4.9,24.4,-1.5,25,921.072,-97.1035,236.176,0.305389,-10.0352,-14.732,
2026_07_07_10_52_02.075,0,24.7,0,0.755,0,0,0,0, ,0,0,0,0,0, ,932.9,-6.8,246.7,-9.8,30.5,-4.3,25,922.143,-92.1613,236.89,-0.161111,-7.75098,-14.011,
2026_07_07_10_52_02.095,0,24.6,0,0.755,0,0,0,0, ,0,0,0,0,0, ,969.4,-19,254.6,-12.8,32.7,-3.1,25,923.911,-87.3313,237.729,-0.839887,-5.35303,-13.3827,
2026_07_07_10_52_02.115,0,24.6,0,0.755,0,0,0,0, ,0,0,0,0,0, ,944.5,-21.9,262.2,-15.8,40.9,-2.8,25,925.924,-83.2557,238.988,-1.66011,-2.78433,-12.747,
2026_07_07_10_52_02.135,0,24.5,0,0.755,0,0,0,0, ,0,0,0,0,0, ,942.9,-25.7,283.3,-19.7,50.6,-3.2,25,927.008,-79.6326,241.046,-2.64059,0.173233,-12.153,
2026_07_07_10_52_02.154,0,24.6,0,0.755,0,0,0,0, ,0,0,0,0,0, ,942,-24.9,304.8,-22.3,63.6,-2.7,25,927.949,-76.3217,244.276,-3.75937,3.64221,-11.5922,
2026_07_07_10_52_02.175,0,24.6,0,0.753,0,0,0,0, ,0,0,0,0,0, ,938.4,-28.8,319.7,-22.3,80.5,-2,25,928.695,-73.307,248.418,-4.88919,7.81081,-11.029,
2026_07_07_10_52_02.194,0,24.6,0,0.754,0,0,0,0, ,0,0,0,0,0, ,912.7,-5.4,360.9,-30.1,86.3,-3.9,25,928.504,-69.8819,254.017,-6.18781,12.417,-10.5367,
2026_07_07_10_52_02.214,0,24.5,0,0.755,0,0,0,0, ,0,0,0,0,0, ,909.6,-26.8,383.7,-37.2,78.9,-9,25,927.446,-66.6046,261.225,-7.86129,16.6938,-10.2877,
2026_07_07_10_52_02.233,0,24.7,0,0.753,0,0,0,0, ,0,0,0,0,0, ,917.6,-42.6,413.8,-35.1,73.1,-15.6,25,926.602,-64.6604,269.605,-9.58513,20.3078,-10.4103,
2026_07_07_10_52_02.256,0,24.6,0,0.754,0,0,0,0, ,0,0,0,0,0, ,918.9,-26.3,413.3,-33.8,79.4,-15.2,25,926.093,-62.8195,278.377,-11.1003,23.7167,-10.7143,
2026_07_07_10_52_02.274,0,24.6,0,0.756,0,0,0,0, ,0,0,0,0,0, ,922.4,-28.6,395.2,-32.8,92.3,-11.6,25,925.762,-60.6641,286.047,-12.4531,27.503,-10.878,
2026_07_07_10_52_02.293,0,24.5,0,0.756,0,0,0,0, ,0,0,0,0,0, ,902.9,-52.8,428.3,-28.9,102.2,-12.7,25,924.963,-59.4476,293.707,-13.5742,31.7532,-10.9555,
2026_07_07_10_52_02.313,0,24.7,0,0.755,0,0,0,0, ,0,0,0,0,0, ,847.5,-34.9,518.1,-34.7,98.2,-16.5,25,921.93,-58.4971,304.645,-14.6848,35.9242,-11.1776,
2026_07_07_10_52_02.333,0,24.6,0,0.754,0,0,0,0, ,0,0,0,0,0, ,889.6,-48.3,574.7,-40.7,104.7,-17.5,25,918.677,-57.4674,319.377,-16.0873,39.9172,-11.5324,
2026_07_07_10_52_02.353,0,24.6,0,0.753,0,0,0,0, ,0,0,0,0,0, ,894.7,-43.5,561.1,-37.4,115.3,-15.3,25,917.061,-56.7625,334.521,-17.4866,44.1878,-11.829,
2026_07_07_10_52_02.373,0,24.6,0,0.753,0,0,0,0, ,0,0,0,0,0, ,827.2,-45.4,547.2,-44.4,106.9,-15.2,25,913.642,-56.0122,347.905,-18.9134,48.2653,-12.0375,
2026_07_07_10_52_02.393,0,24.6,0,0.755,0,0,0,0, ,0,0,0,0,0, ,751.7,-47.2,584.2,-41.4,87.4,-21.6,25,906.074,-55.4204,361.177,-20.375,51.2442,-12.4252,
2026_07_07_10_52_02.412,0,24.7,0,0.755,0,0,0,0, ,0,0,0,0,0, ,762.4,-57.7,649.6,-42.3,81.7,-27.3,25,896.993,-55.2394,376.76,-21.6837,53.2738,-13.158,
2026_07_07_10_52_02.432,0,24.6,0,0.753,0,0,0,0, ,0,0,0,0,0, ,790.7,-72.8,654.6,-43.8,87.1,-26.5,25,889.653,-55.8494,393.539,-22.9857,55.1705,-13.9954,
2026_07_07_10_52_02.452,0,24.7,0,0.753,0,0,0,0, ,0,0,0,0,0, ,790.6,-69,650.6,-43.3,85.7,-18.8,25,883.62,-56.7666,409.325,-24.2388,57.0736,-14.5228,
2026_07_07_10_52_02.471,0,24.6,0,0.755,0,0,0,0, ,0,0,0,0,0, ,766.3,-71,650.6,-38.2,74.7,-13.4,25,877.211,-57.573,424.028,-25.245,58.4828,-14.6189,
2026_07_07_10_52_02.491,0,24.6,0,0.756,0,0,0,0, ,0,0,0,0,0, ,725.7,-72.1,645.6,-31.4,64.7,-11.5,25,869.216,-58.4247,437.682,-25.8272,59.1664,-14.4867,
2026_07_07_10_52_02.511,0,24.6,0,0.755,0,0,0,0, ,0,0,0,0,0, ,658.2,-59.6,665.8,-22.3,49.4,-13.4,25,858.413,-58.8772,450.968,-25.8896,59.0374,-14.3626,
2026_07_07_10_52_02.532,0,24.7,0,0.755,0,0,0,0, ,0,0,0,0,0, ,636.5,-71.5,713.7,-13.7,36.8,-17.2,25,845.552,-59.2838,465.518,-25.4088,58.0662,-14.4197,
2026_07_07_10_52_02.551,0,24.7,0,0.755,0,0,0,0, ,0,0,0,0,0, ,676.7,-113.1,770,-11.5,38.3,-15.1,25,834.038,-61.2957,482.357,-24.6282,56.816,-14.5252,
2026_07_07_10_52_02.570,0,24.6,0,0.756,0,0,0,0, ,0,0,0,0,0, ,681.8,-122.4,773.6,-12.5,39.8,-12,25,824.605,-64.7359,499.995,-23.8587,55.7334,-14.4657,
2026_07_07_10_52_02.590,0,24.7,0,0.755,0,0,0,0, ,0,0,0,0,0, ,659.4,-125,759.7,-14.8,44.1,-4.9,25,815.22,-68.329,516.245,-23.2366,54.8935,-14.0991,
2026_07_07_10_52_02.610,0,24.6,0,0.757,0,0,0,0, ,0,0,0,0,0, ,593.2,-83.1,708.6,-14.9,46.4,-6.5,25,803.708,-70.5058,529.523,-22.7256,54.3058,-13.5873,
2026_07_07_10_52_02.630,0,24.6,0,0.755,0,0,0,0, ,0,0,0,0,0, ,547.4,-105.3,727.4,-7.1,49.6,-20.5,25,789.485,-71.9496,541.008,-22.011,53.9216,-13.582,
2026_07_07_10_52_02.650,0,24.6,0,0.756,0,0,0,0, ,0,0,0,0,0, ,595.5,-103.5,792.4,-10.9,48.9,-27.2,25,776.198,-73.9271,554.347,-21.2182,53.6369,-14.2077,
2026_07_07_10_52_02.669,0,24.7,0,0.753,0,0,0,0, ,0,0,0,0,0, ,719.9,-152.9,782.2,-16.8,52.1,-19.1,25,768.977,-77.2343,568.543,-20.7692,53.4457,-14.7526,
2026_07_07_10_52_02.689,0,24.6,0,0.756,0,0,0,0, ,0,0,0,0,0, ,722.7,-141.6,745.7,-20.7,55.1,-0.7,25,766.072,-81.5009,580.45,-20.6461,53.4551,-14.4569,
2026_07_07_10_52_02.709,0,24.6,0,0.755,0,0,0,0, ,0,0,0,0,0, ,623.2,-106.9,742.6,-17.9,39.9,6.4,25,760.397,-84.1059,590.426,-20.5641,53.0922,-13.4023,
2026_07_07_10_52_02.729,0,24.6,0,0.754,0,0,0,0, ,0,0,0,0,0, ,559,-108.2,749.3,-9.6,21.7,-3,25,750.081,-85.5346,599.903,-20.1489,51.7338,-12.482,
2026_07_07_10_52_02.749,0,24.6,0,0.755,0,0,0,0, ,0,0,0,0,0, ,591.6,-135.1,790.6,-0.7,8.1,-8.6,25,739.43,-87.7353,610.265,-19.2349,49.4893,-12.0748,
2026_07_07_10_52_02.769,0,24.6,0,0.755,0,0,0,0, ,0,0,0,0,0, ,635.1,-114,832.3,-13.7,-3.5,1.3,25,731.747,-89.9787,622.525,-18.5015,46.6137,-11.5614,
2026_07_07_10_52_02.789,0,24.6,0,0.757,0,0,0,0, ,0,0,0,0,0, ,613.2,-153.4,822.7,-11.7,-1.7,12.5,25,725.19,-92.643,635.016,-18.148,43.6147,-10.4364,
2026_07_07_10_52_02.809,0,24.7,0,0.756,0,0,0,0, ,0,0,0,0,0, ,538.8,-102.2,824.7,-9.1,13.5,11.1,25,716.099,-94.7854,646.514,-17.6758,41.3165,-9.08139,
2026_07_07_10_52_02.828,0,24.6,0,0.755,0,0,0,0, ,0,0,0,0,0, ,498.1,-119.9,846.1,-7.8,20.8,13.2,25,704.055,-95.7765,658.024,-17.1136,39.8438,-7.78761,
2026_07_07_10_52_02.849,0,24.6,0,0.754,0,0,0,0, ,0,0,0,0,0, ,502.8,-124.7,881.4,-14.4,28.3,9.1,25,691.648,-97.3928,670.56,-16.7472,38.9119,-6.6336,
2026_07_07_10_52_02.872,0,24.8,0,0.753,0,0,0,0, ,0,0,0,0,0, ,554,-186.1,870.2,-1.1,39.9,4.8,25,681.7,-100.928,683.067,-16.1989,38.6186,-5.80585,
2026_07_07_10_52_02.890,0,24.6,0,0.756,0,0,0,0, ,0,0,0,0,0, ,579.3,-139.8,865.9,2.7,40.7,4.1,25,674.689,-104.707,694.339,-15.163,38.7211,-5.18088,
2026_07_07_10_52_02.907,0,24.8,0,0.754,0,0,0,0, ,0,0,0,0,0, ,631.3,-143.7,867.5,-7.2,31.9,14.9,25,670.461,-106.964,704.843,-14.3762,38.5736,-4.28626,
2026_07_07_10_52_02.927,0,24.7,0,0.755,0,0,0,0, ,0,0,0,0,0, ,605.2,-122.6,892.4,-12.6,31.2,17.8,25,667.279,-108.56,715.513,-14.1034,38.1456,-3.02874,
2026_07_07_10_52_02.947,0,24.7,0,0.754,0,0,0,0, ,0,0,0,0,0, ,535.7,-149.4,866.4,-6.9,39.1,17.2,25,661.378,-110.232,725.5,-13.8381,37.963,-1.77777,
2026_07_07_10_52_02.967,0,24.6,0,0.755,0,0,0,0, ,0,0,0,0,0, ,479.1,-84.1,866.9,-2.2,49.8,17.6,25,651.995,-110.629,734.101,-13.2721,38.3583,-0.609126,
2026_07_07_10_52_02.987,0,24.6,0,0.753,0,0,0,0, ,0,0,0,0,0, ,476.8,-90.3,893.3,-9,58.3,29.4,25,641.39,-109.202,742.998,-12.8046,39.3145,0.860024,
2026_07_07_10_52_03.006,0,24.7,0,0.755,0,0,0,0, ,0,0,0,0,0, ,487.6,-136.4,944.8,-16.5,63.4,43.1,25,631.689,-109.454,753.726,-12.8013,40.6268,3.0166,
2026_07_07_10_52_03.027,0,24.8,0,0.756,0,0,0,0, ,0,0,0,0,0, ,460.9,-141.7,952.7,-35.1,57.8,59.1,25,622.095,-111.258,765.611,-13.5934,41.844,5.94668,
2026_07_07_10_52_03.046,0,24.7,0,0.753,0,0,0,0, ,0,0,0,0,0, ,380,-138.1,928.3,-38.9,50.6,55.1,25,609.807,-113.003,776.268,-15.0197,42.5969,9.06384,
2026_07_07_10_52_03.066,0,24.7,0,0.754,0,0,0,0, ,0,0,0,0,0, ,369.7,-148.8,904.2,-38.4,45.6,53.1,25,595.49,-114.859,784.798,-16.4597,42.9322,11.8082,
2026_07_07_10_52_03.085,0,24.7,0,0.756,0,0,0,0, ,0,0,0,0,0, ,344.3,-140.3,901.6,-33.6,47.7,59.5,25,580.957,-116.668,791.995,-17.6504,43.1588,14.5194,
2026_07_07_10_52_03.106,0,24.7,0,0.755,0,0,0,0, ,0,0,0,0,0, ,366.5,-250.8,908.4,-14.8,58.7,66.4,25,567.212,-121.475,798.881,-18.0495,43.7707,17.4707,
2026_07_07_10_52_03.125,0,24.6,0,0.755,0,0,0,0, ,0,0,0,0,0, ,289.7,-204.7,928.5,-11.7,60.7,65.3,25,552.641,-127.951,806.167,-17.7571,44.7414,20.4188,
2026_07_07_10_52_03.145,0,24.7,0,0.754,0,0,0,0, ,0,0,0,0,0, ,243.1,-239.1,990.6,-10.9,48,62.2,25,535.198,-133.676,815.514,-17.3636,45.3269,23.0593,
2026_07_07_10_52_03.164,0,24.7,0,0.757,0,0,0,0, ,0,0,0,0,0, ,242.5,-237.1,974.2,-21.5,24.2,61.4,25,517.38,-140.039,825.684,-17.2927,44.7646,25.4201,
2026_07_07_10_52_03.184,0,24.7,0,0.755,0,0,0,0, ,0,0,0,0,0, ,191.5,-164,920.5,-44.6,0.7,54.8,25,499.076,-143.727,833.098,-18.2529,42.7955,27.4115,
2026_07_07_10_52_03.204,0,24.7,0,0.753,0,0,0,0, ,0,0,0,0,0, ,194.8,-242.5,922.7,-35.8,-15.4,49.6,25,480.433,-147.354,838.491,-19.5903,39.7397,28.922,
2026_07_07_10_52_03.224,0,24.6,0,0.754,0,0,0,0, ,0,0,0,0,0, ,221.5,-270.8,955.8,-15.9,-27.9,45.2,25,463.841,-154.014,844.631,-19.9717,35.9988,30.048,
2026_07_07_10_52_03.244,0,24.6,0,0.753,0,0,0,0, ,0,0,0,0,0, ,243.7,-321.2,993.2,-14.7,-52.4,42.5,25,449.75,-162.666,852.545,-19.6871,31.3585,30.8891,
2026_07_07_10_52_03.264,0,24.7,0,0.753,0,0,0,0, ,0,0,0,0,0, ,237,-357,1024.9,-22.1,-69.4,49.3,25,436.989,-173.418,862.082,-19.6086,25.7365,31.8038,
2026_07_07_10_52_03.284,0,24.7,0,0.756,0,0,0,0, ,0,0,0,0,0, ,230.5,-323.7,1008.9,-33,-68.2,50.7,25,424.605,-183.59,871.516,-20.0926,19.9757,32.9127,
2026_07_07_10_52_03.310,0,24.7,0,0.755,0,0,0,0, ,0,0,0,0,0, ,260.1,-322.7,1035.5,-36.7,-65,48.9,25,413.678,-192.098,880.698,-20.9918,14.7,33.9417,
2026_07_07_10_52_03.328,0,24.6,0,0.757,0,0,0,0, ,0,0,0,0,0, ,404,-318.6,1040,-47,-51.1,57,25,408.704,-199.931,890.269,-22.2629,10.2668,35.1,
2026_07_07_10_52_03.343,0,24.7,0,0.754,0,0,0,0, ,0,0,0,0,0, ,439.3,-438.4,1008.1,-55.4,-45.1,76.4,25,409.493,-210.813,898.421,-24.0262,6.71003,37.0257,
2026_07_07_10_52_03.363,0,24.8,0,0.755,0,0,0,0, ,0,0,0,0,0, ,355.8,-426.7,960.8,-69.2,-53,84.9,25,408.765,-224.325,903.663,-26.3585,3.31215,39.684,
2026_07_07_10_52_03.383,0,24.7,0,0.755,0,0,0,0, ,0,0,0,0,0, ,350.4,-458.3,938.8,-61,-55.2,84.1,25,405.373,-237.62,906.475,-28.7194,-0.186398,42.415,
2026_07_07_10_52_03.403,0,24.6,0,0.755,0,0,0,0, ,0,0,0,0,0, ,301.5,-492.6,869.5,-56.8,-50.5,85.9,25,400.533,-252.113,906.333,-30.5585,-3.39559,45.01,
2026_07_07_10_52_03.423,0,24.7,0,0.754,0,0,0,0, ,0,0,0,0,0, ,262.6,-471.4,811.5,-49.9,-52.7,74.4,25,393.313,-266.122,902.321,-31.9473,-6.33304,47.1514,
2026_07_07_10_52_03.442,0,24.7,0,0.755,0,0,0,0, ,0,0,0,0,0, ,284.6,-455,746.2,-53,-63.7,69,25,386.018,-278.131,894.797,-33.1358,-9.49368,48.6473,
2026_07_07_10_52_03.462,0,24.8,0,0.756,0,0,0,0, ,0,0,0,0,0, ,395.6,-545,740.9,-62.6,-85.4,78,25,383.22,-291.651,885.581,-34.6388,-13.4581,50.1618,
2026_07_07_10_52_03.481,0,24.8,0,0.755,0,0,0,0, ,0,0,0,0,0, ,235.3,-546.2,717.8,-65.7,-98.5,76.9,25,379.09,-307.126,876.06,-36.4371,-18.2412,51.8246,
2026_07_07_10_52_03.502,0,24.7,0,0.756,0,0,0,0, ,0,0,0,0,0, ,200.8,-546.5,660.8,-64.7,-90.2,54.3,25,369.277,-321.704,864.68,-38.1898,-22.879,52.6641,
2026_07_07_10_52_03.522,0,24.7,0,0.754,0,0,0,0, ,0,0,0,0,0, ,344.4,-627.1,617.9,-56.5,-76.3,55.9,25,363.386,-337.858,850.949,-39.5555,-26.5579,52.8125,
2026_07_07_10_52_03.543,0,24.8,0,0.754,0,0,0,0, ,0,0,0,0,0, ,222.6,-614.6,604.3,-47.8,-66.5,53.4,25,358.518,-355.103,836.333,-40.3229,-29.2905,52.9245,
2026_07_07_10_52_03.563,0,24.7,0,0.755,0,0,0,0, ,0,0,0,0,0, ,262.8,-664,615.6,-44.1,-66.4,39.2,25,351.46,-372.421,822.538,-40.6658,-31.5549,52.5208,
2026_07_07_10_52_03.581,0,24.8,0,0.755,0,0,0,0, ,0,0,0,0,0, ,282.8,-691.2,614.3,-43.4,-56.1,30.7,25,346.667,-391.018,809.888,-40.8538,-33.3644,51.4501,
2026_07_07_10_52_03.601,0,24.8,0,0.756,0,0,0,0, ,0,0,0,0,0, ,302.9,-725.4,547.6,-37.9,-36.3,23,25,343.387,-410.352,795.937,-40.8414,-34.1466,49.951,
2026_07_07_10_52_03.621,0,24.8,0,0.755,0,0,0,0, ,0,0,0,0,0, ,290.5,-739.5,513,-27.5,-24.7,14.1,25,340.542,-429.98,779.75,-40.3452,-33.9244,48.0375,
2026_07_07_10_52_03.640,0,24.8,0,0.755,0,0,0,0, ,0,0,0,0,0, ,322.1,-768.5,536.7,-25.4,-26.3,7.1,25,338.456,-449.725,764.217,-39.4985,-33.411,45.7562,
2026_07_07_10_52_03.660,0,24.8,0,0.755,0,0,0,0, ,0,0,0,0,0, ,334.1,-779.1,542.4,-22.7,-31.5,-2.4,25,337.824,-469.473,750.526,-38.5571,-33.1361,43.1111,
2026_07_07_10_52_03.679,0,24.7,0,0.755,0,0,0,0, ,0,0,0,0,0, ,351.3,-769,543.7,-18.2,-28.4,-13.2,25,338.122,-488.034,737.883,-37.4537,-32.942,40.0087,
2026_07_07_10_52_03.700,0,24.8,0,0.754,0,0,0,0, ,0,0,0,0,0, ,412.5,-777.9,578.2,-14.9,-13.4,-17.3,25,340.789,-505.426,727.101,-36.1799,-32.2082,36.6414,
2026_07_07_10_52_03.720,0,24.8,0,0.755,0,0,0,0, ,0,0,0,0,0, ,484.3,-797.6,621.8,-18,4.8,-11.7,25,347.347,-522.63,719.356,-34.9776,-30.5075,33.525,
2026_07_07_10_52_03.739,0,24.8,0,0.754,0,0,0,0, ,0,0,0,0,0, ,470.4,-750.7,541.7,-22.2,9.2,-5,25,355.269,-537.957,710.971,-34.071,-28.2219,30.9732,
2026_07_07_10_52_03.759,0,24.8,0,0.755,0,0,0,0, ,0,0,0,0,0, ,431.2,-722.1,517.9,-22.2,-0.6,-12.5,25,361.09,-550.05,699.931,-33.3476,-26.2401,28.5526,
2026_07_07_10_52_03.785,0,24.7,0,0.755,0,0,0,0, ,0,0,0,0,0, ,410.6,-705.2,514.7,-21.1,-11.7,-23.8,25,364.735,-560.019,688.741,-32.6348,-25.0158,25.7066,
2026_07_07_10_52_03.804,0,24.7,0,0.754,0,0,0,0, ,0,0,0,0,0, ,393.3,-673.3,494.2,-15.6,-9,-27.2,25,367.003,-567.894,677.51,-31.7643,-24.1221,22.5862,
2026_07_07_10_52_03.819,0,24.7,0,0.756,0,0,0,0, ,0,0,0,0,0, ,376.3,-686,519.5,-10.5,1.6,-26.1,25,368.087,-574.704,667.111,-30.6239,-22.8777,19.5859,
2026_07_07_10_52_03.838,0,24.7,0,0.754,0,0,0,0, ,0,0,0,0,0, ,367.9,-670.5,533,-8,13.2,-26.1,25,368.332,-581.014,658.527,-29.3214,-21.0326,16.8019,
2026_07_07_10_52_03.859,0,24.7,0,0.755,0,0,0,0, ,0,0,0,0,0, ,346.5,-663.5,505.3,-2.1,26.7,-29.5,25,367.653,-586.254,650.034,-27.8424,-18.5353,14.084,
2026_07_07_10_52_03.878,0,24.6,0,0.755,0,0,0,0, ,0,0,0,0,0, ,354.6,-634,508.1,-0.1,23.4,-34.6,25,366.611,-590.062,641.299,-26.2128,-15.8793,11.2727,
2026_07_07_10_52_03.898,0,24.8,0,0.753,0,0,0,0, ,0,0,0,0,0, ,424.1,-612.5,545.2,-1.5,18.2,-38.8,25,367.997,-592.085,634.313,-24.6642,-13.6441,8.34936,
2026_07_07_10_52_03.919,0,24.6,0,0.757,0,0,0,0, ,0,0,0,0,0, ,455.8,-632,554.9,-4.5,10.7,-40.3,25,372.382,-593.923,629.178,-23.344,-11.9321,5.43049,
2026_07_07_10_52_03.937,0,24.8,0,0.755,0,0,0,0, ,0,0,0,0,0, ,434,-620.3,536.8,2.2,5.2,-36.3,25,376.801,-595.887,624.1,-21.9916,-10.7206,2.76566,
2026_07_07_10_52_03.959,0,24.7,0,0.754,0,0,0,0, ,0,0,0,0,0, ,426.3,-690.3,531.3,5.6,0.1,-34.3,25,380.052,-599.507,618.613,-20.4138,-9.90581,0.446037,
2026_07_07_10_52_03.977,0,24.7,0,0.758,0,0,0,0, ,0,0,0,0,0, ,446.5,-686.4,532.2,4.5,-7.6,-24.1,25,383.485,-604.921,613.32,-18.8621,-9.53069,-1.36052,
2026_07_07_10_52_03.997,0,24.7,0,0.754,0,0,0,0, ,0,0,0,0,0, ,458.8,-659.7,561.1,6,-15.3,-19.6,25,387.7,-609.073,609.257,-17.3928,-9.64765,-2.6091,
2026_07_07_10_52_04.017,0,24.8,0,0.755,0,0,0,0, ,0,0,0,0,0, ,449.5,-631.7,552.8,7.7,-22.2,-19.5,25,391.749,-611.305,606.07,-15.9155,-10.2023,-3.64143,
2026_07_07_10_52_04.038,0,24.7,0,0.757,0,0,0,0, ,0,0,0,0,0, ,468.8,-662.1,561.1,-1.9,-23.1,-24.2,25,395.857,-613.474,603.076,-14.7689,-10.9609,-4.75102,
2026_07_07_10_52_04.056,0,24.7,0,0.755,0,0,0,0, ,0,0,0,0,0, ,506.3,-675.7,570.1,0.7,-13.4,-22.8,25,401.444,-616.851,600.793,-13.9055,-11.405,-5.89353,
2026_07_07_10_52_04.078,0,24.9,0,0.755,0,0,0,0, ,0,0,0,0,0, ,507.5,-665.8,555.1,2.4,-0.7,-15.6,25,407.87,-620.136,598.465,-12.9637,-11.1396,-6.7044,
2026_07_07_10_52_04.096,0,24.7,0,0.755,0,0,0,0, ,0,0,0,0,0, ,487.3,-674.3,522.3,3.9,1.4,-13.7,25,413.326,-623.177,594.823,-11.9817,-10.4395,-7.18858,
2026_07_07_10_52_04.117,0,24.7,0,0.755,0,0,0,0, ,0,0,0,0,0, ,503.4,-679.1,541.7,5.7,-7.3,-12.4,25,418.324,-626.439,590.995,-10.9591,-9.98311,-7.54576,
2026_07_07_10_52_04.135,0,24.8,0,0.755,0,0,0,0, ,0,0,0,0,0, ,532.2,-690.9,583.1,7.4,-13,-10.4,25,424.386,-630.007,589.252,-9.89215,-9.99328,-7.78063,
2026_07_07_10_52_04.155,0,24.7,0,0.754,0,0,0,0, ,0,0,0,0,0, ,518.1,-695.3,561.7,16,-11.8,-12.1,25,430.526,-633.852,588.226,-8.57638,-10.1399,-7.99204,
2026_07_07_10_52_04.175,0,24.7,0,0.754,0,0,0,0, ,0,0,0,0,0, ,497.8,-670.2,543.4,22,-11.4,-9.5,25,435.244,-636.832,586.052,-6.89594,-10.2289,-8.16315,
2026_07_07_10_52_04.196,0,24.7,0,0.755,0,0,0,0, ,0,0,0,0,0, ,488.6,-656.7,531.7,20.9,-8,-8.9,25,438.776,-638.454,583.096,-5.16861,-10.1967,-8.22634,
2026_07_07_10_52_04.214,0,24.8,0,0.756,0,0,0,0, ,0,0,0,0,0, ,511.8,-658.6,552.1,17.5,-5.6,-6.9,25,442.519,-639.624,580.586,-3.68365,-9.98969,-8.20645,
2026_07_07_10_52_04.234,0,24.8,0,0.755,0,0,0,0, ,0,0,0,0,0, ,527.2,-655.1,561.1,14.8,-12.6,-4.4,25,447.21,-640.673,579.124,-2.47504,-9.93548,-8.05067,
2026_07_07_10_52_04.254,0,24.7,0,0.758,0,0,0,0, ,0,0,0,0,0, ,520.9,-683.7,557,13.8,-26,-6.5,25,451.893,-642.424,577.901,-1.45281,-10.5061,-7.89219,
2026_07_07_10_52_04.274,0,24.8,0,0.755,0,0,0,0, ,0,0,0,0,0, ,512.4,-643.9,564.9,7.5,-47.8,-12.2,25,455.839,-643.727,576.868,-0.715294,-12.1145,-7.98102,
2026_07_07_10_52_04.294,0,24.8,0,0.756,0,0,0,0, ,0,0,0,0,0, ,512.6,-601.3,528.6,6.7,-47.8,-11.4,25,459.292,-642.439,575.032,-0.23905,-14.2891,-8.21374,
2026_07_07_10_52_04.315,0,24.8,0,0.756,0,0,0,0, ,0,0,0,0,0, ,554.4,-637.5,536.8,6.9,-41.7,-7.4,25,463.814,-641.035,572.453,0.189892,-16.1453,-8.28603,
2026_07_07_10_52_04.333,0,24.7,0,0.755,0,0,0,0, ,0,0,0,0,0, ,610.3,-649.4,524.1,4.9,-41.4,-2.9,25,471.037,-641.182,569.893,0.537852,-17.6934,-8.09493,
2026_07_07_10_52_04.353,0,24.7,0,0.755,0,0,0,0, ,0,0,0,0,0, ,598.5,-629.6,537.1,2.6,-52.3,-3,25,479.164,-641.08,567.499,0.733592,-19.4701,-7.78141,
2026_07_07_10_52_04.373,0,24.7,0,0.754,0,0,0,0, ,0,0,0,0,0, ,588.3,-617.3,524,-1.4,-59.9,-5.1,25,486.125,-640.006,565.247,0.725452,-21.7023,-7.55403,
2026_07_07_10_52_04.393,0,24.7,0,0.755,0,0,0,0, ,0,0,0,0,0, ,571.1,-610.8,551.7,0.6,-50.6,-3.4,25,491.827,-638.424,563.578,0.656869,-23.7466,-7.35269,
2026_07_07_10_52_04.413,0,24.6,0,0.754,0,0,0,0, ,0,0,0,0,0, ,595.5,-627.5,556.8,-1.3,-48.8,-10.1,25,497.401,-637.249,563.009,0.595513,-25.3281,-7.31596,
2026_07_07_10_52_04.434,0,24.8,0,0.757,0,0,0,0, ,0,0,0,0,0, ,625.1,-567.2,473.3,1.6,-32.1,-5.7,25,504.281,-634.818,560.087,0.568365,-26.2496,-7.35155,
2026_07_07_10_52_04.452,0,24.7,0,0.756,0,0,0,0, ,0,0,0,0,0, ,625.9,-615.3,457.8,2.3,-7.1,0.7,25,511.668,-632.163,554.326,0.652558,-25.8444,-7.05591,
2026_07_07_10_52_04.472,0,24.7,0,0.754,0,0,0,0, ,0,0,0,0,0, ,600.2,-607.2,449.4,3.3,6.7,-3,25,517.846,-630.889,548.188,0.783418,-24.2817,-6.69602,
2026_07_07_10_52_04.492,0,24.8,0,0.755,0,0,0,0, ,0,0,0,0,0, ,573.3,-604.2,440.3,5,10,-4.7,25,522.045,-629.354,541.891,0.988569,-22.2932,-6.52259,
2026_07_07_10_52_04.514,0,24.7,0,0.755,0,0,0,0, ,0,0,0,0,0, ,597,-617.4,445.3,1.7,9.4,-5.4,25,525.89,-628.223,535.853,1.13247,-20.3436,-6.43285,
2026_07_07_10_52_04.532,0,24.8,0,0.755,0,0,0,0, ,0,0,0,0,0, ,636.1,-624.6,455.4,-0.3,5.6,-3.2,25,531.415,-627.783,530.642,1.10612,-18.6469,-6.30288,
2026_07_07_10_52_04.551,0,24.8,0,0.754,0,0,0,0, ,0,0,0,0,0, ,637.4,-627.8,466.1,0.3,3.2,-1.2,25,537.834,-627.686,526.383,1.03871,-17.2425,-6.05286,
2026_07_07_10_52_04.571,0,24.7,0,0.755,0,0,0,0, ,0,0,0,0,0, ,609.7,-637.5,492.5,0.7,1.6,-1.6,25,543.057,-627.989,523.514,1.00588,-16.0455,-5.76933,
2026_07_07_10_52_04.591,0,24.8,0,0.755,0,0,0,0, ,0,0,0,0,0, ,605.4,-631.9,515.2,1.6,2,-4,25,546.987,-628.398,522.316,1.01467,-14.958,-5.58839,
2026_07_07_10_52_04.611,0,24.8,0,0.754,0,0,0,0, ,0,0,0,0,0, ,624.6,-629.7,513,1.2,4.6,-3,25,551.132,-628.544,521.815,1.03815,-13.8454,-5.46112,
2026_07_07_10_52_04.631,0,24.8,0,0.755,0,0,0,0, ,0,0,0,0,0, ,613,-630.1,520.3,1,6,-2.8,25,555.255,-628.627,521.5,1.04192,-12.6788,-5.30506,
2026_07_07_10_52_04.650,0,24.8,0,0.755,0,0,0,0, ,0,0,0,0,0, ,621.7,-633.4,492.7,2.1,3.2,-3.6,25,559.039,-628.817,520.586,1.07288,-11.6258,-5.17678,
2026_07_07_10_52_04.671,0,24.7,0,0.755,0,0,0,0, ,0,0,0,0,0, ,624.8,-627.9,498.2,-3.1,-2,-2.4,25,562.952,-628.929,519.055,0.97703,-10.8808,-5.04413,
2026_07_07_10_52_04.690,0,24.7,0,0.756,0,0,0,0, ,0,0,0,0,0, ,626.2,-620.4,523.3,-4.1,-2.8,-3.4,25,566.763,-628.638,518.548,0.698117,-10.364,-4.91347,
2026_07_07_10_52_04.710,0,24.8,0,0.758,0,0,0,0, ,0,0,0,0,0, ,624,-633,515.2,-0.5,3.2,-2.5,25,570.318,-628.52,518.591,0.51542,-9.72029,-4.79382,
2026_07_07_10_52_04.726,0,24.8,0,0.755,0,0,0,0, ,0,0,0,0,0, ,604.8,-615.2,509.3,0.3,4.6,-3.6,25,573.005,-628.25,518.205,0.477918,-8.8903,-4.68756,
2026_07_07_10_52_04.751,0,24.8,0,0.755,0,0,0,0, ,0,0,0,0,0, ,606.6,-607.1,499.7,-2.1,1,-3,25,574.997,-627.208,517.37,0.393951,-8.17792,-4.60301,
2026_07_07_10_52_04.770,0,24.7,0,0.756,0,0,0,0, ,0,0,0,0,0, ,615.1,-629.8,500.2,-4.3,-1.4,-3.5,25,577.182,-626.675,516.308,0.174944,-7.69177,-4.52056,
2026_07_07_10_52_04.790,0,24.7,0,0.755,0,0,0,0, ,0,0,0,0,0, ,622,-616,502,-2.5,-3.2,-3.7,25,579.703,-626.445,515.381,-0.0429038,-7.36321,-4.46446,
2026_07_07_10_52_04.810,0,24.8,0,0.756,0,0,0,0, ,0,0,0,0,0, ,623.7,-611.8,502.8,-2.2,-1.5,-3.3,25,582.332,-625.68,514.59,-0.183492,-7.05772,-4.40569,
2026_07_07_10_52_04.829,0,24.7,0,0.754,0,0,0,0, ,0,0,0,0,0, ,618.6,-607.4,492.7,-1.5,0.9,-2.2,25,584.697,-624.7,513.564,-0.285045,-6.64592,-4.3048,
2026_07_07_10_52_04.849,0,24.7,0,0.754,0,0,0,0, ,0,0,0,0,0, ,618.7,-614.6,486.4,-1.8,1.2,-2.4,25,586.766,-623.865,512.101,-0.368222,-6.17695,-4.18263,
2026_07_07_10_52_04.870,0,24.7,0,0.755,0,0,0,0, ,0,0,0,0,0, ,610.4,-605.5,478.8,-0.6,1.8,-1.6,25,588.459,-623.023,510.303,-0.418909,-5.70913,-4.04962,
2026_07_07_10_52_04.888,0,24.7,0,0.756,0,0,0,0, ,0,0,0,0,0, ,606.8,-600.9,479.2,-1,2.1,-1.6,25,589.687,-621.815,508.396,-0.442131,-5.24241,-3.90035,
2026_07_07_10_52_04.909,0,24.8,0,0.756,0,0,0,0, ,0,0,0,0,0, ,597.7,-605.7,487.9,-1.1,2.3,-2.3,25,590.452,-620.687,506.882,-0.479173,-4.78888,-3.7815,
2026_07_07_10_52_04.928,0,24.8,0,0.755,0,0,0,0, ,0,0,0,0,0, ,590.3,-605.2,483.5,1.4,3.8,-3.5,25,590.668,-619.759,505.591,-0.440833,-4.3112,-3.72778,
2026_07_07_10_52_04.948,0,24.8,0,0.756,0,0,0,0, ,0,0,0,0,0, ,595.7,-607.5,493.5,-0.2,1,-5.4,25,590.811,-618.942,504.549,-0.377407,-3.90224,-3.77179,
2026_07_07_10_52_04.966,0,24.8,0,0.754,0,0,0,0, ,0,0,0,0,0, ,604.2,-604.9,500.3,-0.6,1.4,-6.4,25,591.367,-618.165,504.083,-0.378784,-3.59132,-3.90148,
2026_07_07_10_52_04.988,0,24.8,0,0.755,0,0,0,0, ,0,0,0,0,0, ,620.6,-615.2,497.1,1.9,3.7,-5.7,25,592.649,-617.671,503.755,-0.316093,-3.21708,-4.03241,
2026_07_07_10_52_05.008,0,24.8,0,0.756,0,0,0,0, ,0,0,0,0,0, ,620.3,-620.8,475.4,-0.1,1.8,-5.6,25,594.343,-617.691,502.688,-0.241987,-2.85346,-4.13098,
2026_07_07_10_52_05.029,0,24.7,0,0.754,0,0,0,0, ,0,0,0,0,0, ,614.8,-607.5,486.3,-1.1,-1,-5.6,25,595.757,-617.475,501.358,-0.263803,-2.65521,-4.2205,
2026_07_07_10_52_05.047,0,24.8,0,0.755,0,0,0,0, ,0,0,0,0,0, ,637.4,-623.9,491.8,1.2,0.4,-5.4,25,597.606,-617.367,500.608,-0.244681,-2.51169,-4.29847,
2026_07_07_10_52_05.068,0,24.8,0,0.755,0,0,0,0, ,0,0,0,0,0, ,643.1,-614.5,494.3,2.4,-2.5,-3.8,25,600.205,-617.479,500.147,-0.120083,-2.42261,-4.31684,
2026_07_07_10_52_05.087,0,24.8,0,0.754,0,0,0,0, ,0,0,0,0,0, ,652,-631.3,497.6,-2.1,-4.6,-2.4,25,603.09,-617.809,499.891,-0.103625,-2.49131,-4.24269,
2026_07_07_10_52_05.116,0,24.8,0,0.754,0,0,0,0, ,0,0,0,0,0, ,655.6,-622.9,503.2,-0.1,-3.4,0.1,25,606.18,-618.375,499.922,-0.164342,-2.58325,-4.05423,
2026_07_07_10_52_05.126,0,24.9,0,0.755,0,0,0,0, ,0,0,0,0,0, ,629,-609.8,501.7,-0.3,-1.6,1.8,25,608.381,-618.252,500.076,-0.166515,-2.57818,-3.74928,
2026_07_07_10_52_05.147,0,24.9,0,0.756,0,0,0,0, ,0,0,0,0,0, ,616.2,-613.6,499.2,-1.1,-0.9,0,25,609.248,-617.852,500.099,-0.199024,-2.49724,-3.46597,
2026_07_07_10_52_05.166,0,24.8,0,0.755,0,0,0,0, ,0,0,0,0,0, ,609.9,-610.3,480.4,2.1,-2.1,-0.9,25,609.479,-617.493,499.472,-0.156427,-2.43647,-3.28218,
2026_07_07_10_52_05.187,0,24.8,0,0.755,0,0,0,0, ,0,0,0,0,0, ,611.6,-604.8,479.1,1.6,-10.9,-1.9,25,609.557,-616.887,498.27,-0.0341604,-2.68409,-3.16749,
2026_07_07_10_52_05.205,0,24.8,0,0.755,0,0,0,0, ,0,0,0,0,0, ,612.7,-606,494.1,-0.9,-18.2,-5,25,609.715,-616.187,497.559,-0.0107506,-3.40717,-3.1847,
2026_07_07_10_52_05.228,0,24.8,0,0.754,0,0,0,0, ,0,0,0,0,0, ,611,-603.8,489,0.5,-22.8,-7.4,25,609.845,-615.499,497.192,-0.022283,-4.44877,-3.36845,
2026_07_07_10_52_05.245,0,24.8,0,0.756,0,0,0,0, ,0,0,0,0,0, ,621.8,-607.9,496,1,-31.9,-10.7,25,610.244,-614.911,496.907,0.024778,-5.84431,-3.71467,
2026_07_07_10_52_05.267,0,24.8,0,0.755,0,0,0,0, ,0,0,0,0,0, ,646.3,-590.9,448.9,-5.2,-45.7,-13.2,25,611.695,-613.966,495.416,-0.104701,-7.85255,-4.21651,
2026_07_07_10_52_05.285,0,24.8,0,0.755,0,0,0,0, ,0,0,0,0,0, ,662.8,-604.1,453,-3.2,-40.8,-10.9,25,614.307,-612.962,492.707,-0.354258,-10.0096,-4.69386,
2026_07_07_10_52_05.307,0,24.8,0,0.754,0,0,0,0, ,0,0,0,0,0, ,656.6,-600,452.3,1.2,-44.4,-10.6,25,617.073,-612.298,490.266,-0.393608,-11.9956,-5.06291,
2026_07_07_10_52_05.324,0,24.8,0,0.754,0,0,0,0, ,0,0,0,0,0, ,663,-585.8,426,2.7,-42.1,-12.9,25,619.676,-611.115,487.151,-0.250794,-13.9001,-5.4704,
2026_07_07_10_52_05.346,0,24.8,0,0.754,0,0,0,0, ,0,0,0,0,0, ,685,-595.7,425.5,0.5,-44.2,-11.2,25,622.987,-609.874,483.409,-0.138011,-15.6825,-5.87135,
2026_07_07_10_52_05.364,0,24.8,0,0.754,0,0,0,0, ,0,0,0,0,0, ,693.1,-591.3,402.5,7.4,-34.9,-7.8,25,627.012,-608.877,479.18,0.111102,-17.137,-6.09247,
2026_07_07_10_52_05.387,0,24.8,0,0.755,0,0,0,0, ,0,0,0,0,0, ,715.4,-585.4,381.4,6.1,-30.7,-5.1,25,631.719,-607.626,473.864,0.51566,-18.0914,-6.11425,
2026_07_07_10_52_05.403,0,24.8,0,0.755,0,0,0,0, ,0,0,0,0,0, ,697.6,-582.2,360.9,12.9,-35.3,-3,25,636.276,-606.174,467.605,1.06314,-18.9999,-5.98846,
2026_07_07_10_52_05.425,0,24.7,0,0.754,0,0,0,0, ,0,0,0,0,0, ,701.4,-579.9,383.1,12,-51.2,-6.1,25,640.129,-604.643,461.779,1.75703,-20.4777,-5.90081,
2026_07_07_10_52_05.443,0,24.8,0,0.755,0,0,0,0, ,0,0,0,0,0, ,745.8,-589.7,364.3,11.4,-57.3,-4.7,25,645.215,-603.434,456.412,2.36293,-22.5357,-5.87029,
2026_07_07_10_52_05.465,0,24.8,0,0.755,0,0,0,0, ,0,0,0,0,0, ,745.7,-585.2,358.3,13.3,-57.6,-0.8,25,651.342,-602.46,450.616,2.97152,-24.6633,-5.68015,
2026_07_07_10_52_05.483,0,24.8,0,0.755,0,0,0,0, ,0,0,0,0,0, ,738.6,-576.1,370.7,12.9,-50.1,-0.9,25,656.875,-601.131,445.368,3.58872,-26.4418,-5.38581,
2026_07_07_10_52_05.505,0,24.8,0,0.755,0,0,0,0, ,0,0,0,0,0, ,732.4,-562.9,375.9,14.6,-36.3,1.4,25,661.666,-599.203,440.976,4.20792,-27.463,-5.04238,
2026_07_07_10_52_05.523,0,25,0,0.755,0,0,0,0, ,0,0,0,0,0, ,719.8,-574.9,391.2,13.8,-33.3,2.1,25,665.593,-597.357,437.477,4.81682,-27.9101,-4.62847,
2026_07_07_10_52_05.544,0,24.8,0,0.753,0,0,0,0, ,0,0,0,0,0, ,733.8,-579.2,371.5,9.2,-44.6,-0.7,25,669.323,-596.119,434.057,5.22407,-28.5829,-4.30376,
2026_07_07_10_52_05.562,0,24.8,0,0.753,0,0,0,0, ,0,0,0,0,0, ,759.7,-575.5,330,14,-52.7,0.5,25,674.041,-594.975,428.98,5.61261,-29.8057,-4.0476,
2026_07_07_10_52_05.583,0,24.9,0,0.755,0,0,0,0, ,0,0,0,0,0, ,756.5,-568.7,329.7,14.6,-55.4,1.1,25,679.163,-593.581,422.94,6.14199,-31.2831,-3.7522,
2026_07_07_10_52_05.601,0,24.8,0,0.756,0,0,0,0, ,0,0,0,0,0, ,728.7,-551.6,353.6,12.4,-51.5,5.1,25,683.029,-591.544,417.986,6.59037,-32.6339,-3.33464,
2026_07_07_10_52_05.624,0,24.9,0,0.755,0,0,0,0, ,0,0,0,0,0, ,727.5,-577.1,360.1,3.9,-44.7,7.8,25,685.775,-589.887,414.26,6.68541,-33.5764,-2.73839,
2026_07_07_10_52_05.641,0,24.8,0,0.755,0,0,0,0, ,0,0,0,0,0, ,738.4,-599.1,336.9,5.8,-42,3,25,688.65,-589.778,410.253,6.57357,-34.1719,-2.24246,
2026_07_07_10_52_05.663,0,24.8,0,0.754,0,0,0,0, ,0,0,0,0,0, ,763.6,-583.7,272.8,5.3,-46.5,4.2,25,692.45,-589.877,403.83,6.51119,-34.7861,-1.88643,
2026_07_07_10_52_05.681,0,24.9,0,0.755,0,0,0,0, ,0,0,0,0,0, ,755,-546.7,226.8,8.5,-57.2,1.2,25,696.523,-588.373,394.444,6.53489,-35.8259,-1.60695,
2026_07_07_10_52_05.704,0,24.9,0,0.754,0,0,0,0, ,0,0,0,0,0, ,751.9,-560,254.1,8.4,-63,5.6,25,699.992,-586.239,385.06,6.65159,-37.3051,-1.30184,
2026_07_07_10_52_05.720,0,24.8,0,0.754,0,0,0,0, ,0,0,0,0,0, ,752.8,-591.3,296.2,5.9,-50.9,6.9,25,703.183,-585.594,378.362,6.68196,-38.5022,-0.841645,
2026_07_07_10_52_05.743,0,24.9,0,0.755,0,0,0,0, ,0,0,0,0,0, ,756.3,-599.2,284.7,10.5,-26.2,5.4,25,706.313,-586.182,373.005,6.77447,-38.5051,-0.415592,
2026_07_07_10_52_05.759,0,24.9,0,0.755,0,0,0,0, ,0,0,0,0,0, ,788.6,-588.7,201,6.9,-17.8,1,25,710.343,-586.656,365.074,6.8918,-37.4993,-0.195267,
2026_07_07_10_52_05.783,0,24.8,0,0.753,0,0,0,0, ,0,0,0,0,0, ,801.6,-586.4,188.1,-0.6,-28.1,0.2,25,715.508,-586.71,354.683,6.66379,-36.6127,-0.146805,
2026_07_07_10_52_05.800,0,24.9,0,0.754,0,0,0,0, ,0,0,0,0,0, ,784.3,-585.3,216.6,-1,-29.1,-0.9,25,720.227,-586.658,345.4,6.20896,-36.1245,-0.159187,
2026_07_07_10_52_05.822,0,24.9,0,0.754,0,0,0,0, ,0,0,0,0,0, ,773.3,-589.3,227.6,5.9,-20.6,-1.7,25,723.796,-586.697,337.886,5.9799,-35.4374,-0.228706,
2026_07_07_10_52_05.840,0,24.8,0,0.755,0,0,0,0, ,0,0,0,0,0, ,750.6,-564.4,206.7,13.4,-13.2,-10,25,726.121,-586.097,330.529,6.20355,-34.3078,-0.571253,
2026_07_07_10_52_05.861,0,24.9,0,0.754,0,0,0,0, ,0,0,0,0,0, ,822.7,-600.3,206.7,3.5,-13.1,-5.1,25,729.81,-585.868,322.983,6.34044,-33.0185,-0.996521,
2026_07_07_10_52_05.880,0,24.9,0,0.756,0,0,0,0, ,0,0,0,0,0, ,781.2,-598.8,227.1,-3.8,-3.4,1.2,25,734.206,-586.702,316.519,5.94493,-31.5092,-1.05462,
2026_07_07_10_52_05.903,0,24.9,0,0.757,0,0,0,0, ,0,0,0,0,0, ,773.5,-579.2,188.5,3.4,-2.2,-3.7,25,736.835,-586.842,309.894,5.57047,-29.7597,-1.06653,
2026_07_07_10_52_05.919,0,24.8,0,0.754,0,0,0,0, ,0,0,0,0,0, ,787.5,-575.9,208,-0.3,-0.7,-3.8,25,739.496,-586.276,303.09,5.32547,-28.0346,-1.23005,
2026_07_07_10_52_05.941,0,24.9,0,0.754,0,0,0,0, ,0,0,0,0,0, ,795.7,-583.1,209.9,-0.8,2.6,-1.6,25,742.671,-585.863,297.354,4.96744,-26.2683,-1.31963,
2026_07_07_10_52_05.958,0,24.8,0,0.755,0,0,0,0, ,0,0,0,0,0, ,796.6,-576.4,205.3,2.3,-5.1,-1.5,25,745.93,-585.491,291.884,4.71044,-24.7438,-1.33367,
2026_07_07_10_52_05.988,0,24.9,0,0.758,0,0,0,0, ,0,0,0,0,0, ,784.4,-574.9,200.6,0,-7.4,-2.2,25,748.646,-584.891,286.465,4.49347,-23.6168,-1.36513,
2026_07_07_10_52_05.998,0,24.8,0,0.754,0,0,0,0, ,0,0,0,0,0, ,791.3,-574.7,203.7,3.1,3.8,-6.8,25,751.035,-584.276,281.327,4.31411,-22.2874,-1.55616,
2026_07_07_10_52_06.023,0,24.8,0,0.755,0,0,0,0, ,0,0,0,0,0, ,797.7,-572,212.4,9.3,13.2,-8.3,25,753.684,-583.61,276.862,4.42903,-20.4112,-1.92141,
2026_07_07_10_52_06.038,0,24.8,0,0.757,0,0,0,0, ,0,0,0,0,0, ,786.4,-556.2,181.5,2.3,14.8,-5.6,25,756.021,-582.421,271.992,4.51257,-18.3143,-2.22784,
2026_07_07_10_52_06.060,0,24.9,0,0.755,0,0,0,0, ,0,0,0,0,0, ,792.8,-566.7,200.5,-5.8,24.9,-5.3,25,758.068,-581.143,267.057,4.13095,-15.9887,-2.42419,
2026_07_07_10_52_06.077,0,24.8,0,0.755,0,0,0,0, ,0,0,0,0,0, ,801,-579.5,234.1,2,35.1,-3.4,25,760.434,-580.653,264.024,3.76344,-13.1862,-2.54154,
2026_07_07_10_52_06.099,0,24.8,0,0.754,0,0,0,0, ,0,0,0,0,0, ,745.7,-559.5,287.9,9.3,10.3,-1.9,25,761.221,-579.974,263.84,3.8784,-10.9994,-2.54815,
2026_07_07_10_52_06.117,0,24.9,0,0.754,0,0,0,0, ,0,0,0,0,0, ,782.4,-571.2,234.3,-5.5,-3.1,-7.3,25,761.393,-579.082,263.673,3.75784,-10.1098,-2.67319,
2026_07_07_10_52_06.141,0,24.9,0,0.754,0,0,0,0, ,0,0,0,0,0, ,791.6,-567.3,244.3,-2.4,2.7,-5.1,25,762.954,-578.483,262.188,3.28814,-9.5059,-2.8881,
2026_07_07_10_52_06.157,0,24.9,0,0.755,0,0,0,0, ,0,0,0,0,0, ,776.2,-539,216.4,7.7,13.3,-2.9,25,764.23,-576.939,260.248,3.24926,-8.43913,-2.95586,
2026_07_07_10_52_06.179,0,25,0,0.757,0,0,0,0, ,0,0,0,0,0, ,784.3,-578,238.5,-4.9,19.3,-3,25,765.206,-575.816,258.249,3.13657,-6.93159,-2.9555,
2026_07_07_10_52_06.196,0,24.9,0,0.756,0,0,0,0, ,0,0,0,0,0, ,768.1,-583.8,279,-4.9,5.8,-2.4,25,765.876,-576.126,258.28,2.64684,-5.74443,-2.93993,
2026_07_07_10_52_06.218,0,24.9,0,0.755,0,0,0,0, ,0,0,0,0,0, ,792.4,-561.1,237.6,0.8,0.5,-6.2,25,766.752,-575.902,258.281,2.36063,-5.20243,-3.02281,
2026_07_07_10_52_06.235,0,24.9,0,0.754,0,0,0,0, ,0,0,0,0,0, ,789.6,-560.7,235.1,0.9,1.2,-2.1,25,768.23,-574.988,256.945,2.26857,-4.83361,-3.0915,
2026_07_07_10_52_06.260,0,25,0,0.754,0,0,0,0, ,0,0,0,0,0, ,793.3,-560.1,233.1,-2.7,7.3,-3.6,25,769.645,-574.099,255.552,2.07549,-4.28007,-3.07678,
2026_07_07_10_52_06.276,0,24.9,0,0.755,0,0,0,0, ,0,0,0,0,0, ,781.1,-546.3,230.8,-0.6,11.1,-1,25,770.715,-572.825,254.114,1.84846,-3.45863,-3.02945,
2026_07_07_10_52_06.300,0,24.9,0,0.755,0,0,0,0, ,0,0,0,0,0, ,806.2,-588.3,246.8,-2.1,17,-0.4,25,772.112,-572.488,253.181,1.65356,-2.3917,-2.8875,
2026_07_07_10_52_06.315,0,25,0,0.755,0,0,0,0, ,0,0,0,0,0, ,774.6,-571.8,285.1,-1.8,7.7,0.3,25,773.227,-572.949,253.959,1.43397,-1.49338,-2.71459,
2026_07_07_10_52_06.339,0,24.9,0,0.756,0,0,0,0, ,0,0,0,0,0, ,784.6,-567,253.7,-1.6,0.5,-1.1,25,773.615,-572.733,254.9,1.24299,-1.15253,-2.57354,
2026_07_07_10_52_06.355,0,24.9,0,0.756,0,0,0,0, ,0,0,0,0,0, ,782.1,-570.9,255.3,0.7,2.7,-1.1,25,774.208,-572.502,254.876,1.13982,-0.984799,-2.48375,
2026_07_07_10_52_06.378,0,24.9,0,0.755,0,0,0,0, ,0,0,0,0,0, ,762.8,-563.5,249,-1.5,4.3,-1.4,25,774.101,-572.179,254.71,1.04599,-0.711506,-2.40857,
2026_07_07_10_52_06.394,0,25,0,0.755,0,0,0,0, ,0,0,0,0,0, ,769.5,-567,265,-1.6,7.5,-3.2,25,773.617,-571.757,254.849,0.887798,-0.308618,-2.40195,
2026_07_07_10_52_06.419,0,24.9,0,0.754,0,0,0,0, ,0,0,0,0,0, ,789.5,-566.1,260.9,-0.2,7.9,-3.1,25,773.975,-571.44,255.343,0.778854,0.179407,-2.44754,
2026_07_07_10_52_06.434,0,24.9,0,0.755,0,0,0,0, ,0,0,0,0,0, ,787.8,-566.2,257.8,1,2.1,-1.3,25,774.869,-571.117,255.587,0.755767,0.473162,-2.43245,
2026_07_07_10_52_06.458,0,24.8,0,0.755,0,0,0,0, ,0,0,0,0,0, ,767.3,-561.4,257.3,-0.8,0.5,-1.7,25,775.033,-570.671,255.707,0.715807,0.523548,-2.37563,
2026_07_07_10_52_06.474,0,24.9,0,0.755,0,0,0,0, ,0,0,0,0,0, ,778.3,-567.3,263.6,0.6,1.3,-3.2,25,774.897,-570.286,255.996,0.666093,0.546488,-2.38016,
2026_07_07_10_52_06.498,0,24.9,0,0.755,0,0,0,0, ,0,0,0,0,0, ,782.2,-559.9,258.6,1.8,3.1,-2.5,25,775.223,-569.879,256.307,0.698628,0.647249,-2.40879,
2026_07_07_10_52_06.513,0,25,0,0.755,0,0,0,0, ,0,0,0,0,0, ,766.3,-564.6,259.6,1.7,2.4,-2.3,25,775.164,-569.414,256.477,0.762696,0.775385,-2.40826,
2026_07_07_10_52_06.538,0,24.9,0,0.755,0,0,0,0, ,0,0,0,0,0, ,757.4,-565.9,264.6,6.3,-1.6,-7.4,25,774.352,-569.16,256.82,0.959969,0.75251,-2.55705,
2026_07_07_10_52_06.553,0,24.9,0,0.754,0,0,0,0, ,0,0,0,0,0, ,807.1,-577,271.4,5.4,-3,-3.2,25,774.834,-569.3,257.501,1.25796,0.566498,-2.7242,
2026_07_07_10_52_06.577,0,24.9,0,0.756,0,0,0,0, ,0,0,0,0,0, ,774.7,-558.3,272.4,0.4,0.4,0.9,25,775.813,-569.199,258.378,1.35802,0.452758,-2.62827,
2026_07_07_10_52_06.593,0,24.8,0,0.754,0,0,0,0, ,0,0,0,0,0, ,760.6,-562.6,279.7,1,0.3,-1.3,25,775.315,-568.666,259.455,1.31792,0.446496,-2.4803,
2026_07_07_10_52_06.617,0,24.8,0,0.754,0,0,0,0, ,0,0,0,0,0, ,767.7,-561.2,275.8,2.8,-0.6,-3,25,774.635,-568.254,260.57,1.35339,0.410147,-2.46017,
2026_07_07_10_52_06.634,0,24.9,0,0.754,0,0,0,0, ,0,0,0,0,0, ,768.7,-561.5,273.9,0,-0.1,-2.7,25,774.243,-567.833,261.44,1.35623,0.363826,-2.48393,
2026_07_07_10_52_06.658,0,24.9,0,0.755,0,0,0,0, ,0,0,0,0,0, ,779.6,-561.5,270.9,0.4,0.9,-2,25,774.237,-567.447,262.108,1.28577,0.36603,-2.47576,
2026_07_07_10_52_06.671,0,24.8,0,0.755,0,0,0,0, ,0,0,0,0,0, ,776.6,-557.2,272,1.7,-1.6,-1.2,25,774.472,-566.954,262.677,1.27141,0.322397,-2.4224,
2026_07_07_10_52_06.696,0,25,0,0.754,0,0,0,0, ,0,0,0,0,0, ,777.9,-560.9,284.6,0,-1.2,-1.6,25,774.642,-566.472,263.629,1.24573,0.217438,-2.3601,
2026_07_07_10_52_06.712,0,24.9,0,0.757,0,0,0,0, ,0,0,0,0,0, ,775.8,-544.6,286.6,2.8,0.9,-1.2,25,774.776,-565.636,264.968,1.25513,0.195048,-2.30159,
2026_07_07_10_52_06.739,0,24.8,0,0.755,0,0,0,0, ,0,0,0,0,0, ,794.5,-605.1,274.6,-4.3,-0.6,-2.7,25,775.408,-566.197,265.921,1.13294,0.192303,-2.28016,
2026_07_07_10_52_06.751,0,25,0,0.755,0,0,0,0, ,0,0,0,0,0, ,773.5,-557.9,279.5,-1.5,-1.5,-2.3,25,775.932,-567.13,266.599,0.887182,0.1166,-2.29356,
2026_07_07_10_52_06.774,0,25,0,0.759,0,0,0,0, ,0,0,0,0,0, ,775.8,-559.6,270.1,-1.4,-0.5,-2.5,25,775.854,-566.619,267.099,0.74476,0.0485569,-2.30005,
2026_07_07_10_52_06.790,0,24.9,0,0.755,0,0,0,0, ,0,0,0,0,0, ,777.2,-557.3,261.7,-0.9,0.3,-2.8,25,775.893,-566.121,267.026,0.629298,0.0395043,-2.32137,
2026_07_07_10_52_06.814,0,25,0,0.755,0,0,0,0, ,0,0,0,0,0, ,791,-554.8,257.5,-2.5,-1,-2.5,25,776.393,-565.508,266.573,0.487357,0.0157688,-2.3414,
2026_07_07_10_52_06.831,0,24.9,0,0.755,0,0,0,0, ,0,0,0,0,0, ,808.5,-559.3,260.6,-0.3,-1.5,-0.3,25,777.817,-564.992,266.115,0.372346,-0.0613639,-2.28403,
2026_07_07_10_52_06.857,0,25,0,0.755,0,0,0,0, ,0,0,0,0,0, ,769.8,-556.3,271.3,0,-0.4,0.3,25,778.507,-564.554,266.105,0.340516,-0.115515,-2.14485,
2026_07_07_10_52_06.869,0,24.9,0,0.754,0,0,0,0, ,0,0,0,0,0, ,763.6,-553.5,265.1,-0.2,0.9,-1.8,25,777.788,-563.966,266.232,0.313672,-0.0932416,-2.05985,
2026_07_07_10_52_06.894,0,24.9,0,0.755,0,0,0,0, ,0,0,0,0,0, ,776.7,-545,269,0.8,0.2,-2.2,25,777.322,-563.069,266.282,0.312839,-0.0540441,-2.0562,
2026_07_07_10_52_06.910,0,25,0,0.755,0,0,0,0, ,0,0,0,0,0, ,778.6,-588.5,267.9,-5.4,-0.1,-2.7,25,777.342,-563.293,266.414,0.153619,-0.0477039,-2.0802,
2026_07_07_10_52_06.933,0,24.9,0,0.753,0,0,0,0, ,0,0,0,0,0, ,772.5,-535.7,257.6,3.9,0.3,-0.6,25,777.233,-563.221,266.191,0.0985544,-0.0387032,-2.05398,
2026_07_07_10_52_06.950,0,25,0,0.754,0,0,0,0, ,0,0,0,0,0, ,784.9,-562.1,281.2,-1.3,-1.3,-4,25,777.322,-562.348,266.387,0.171767,-0.0668135,-2.06898,
2026_07_07_10_52_06.973,0,24.9,0,0.755,0,0,0,0, ,0,0,0,0,0, ,771.8,-567.6,282.2,-2.1,-0.3,-1.9,25,777.385,-562.5,267.32,0.0577067,-0.111492,-2.12266,
2026_07_07_10_52_06.988,0,24.9,0,0.754,0,0,0,0, ,0,0,0,0,0, ,788.8,-552.8,274.9,0.9,0.6,-4.7,25,777.563,-562.36,268.004,0.0176277,-0.0955573,-2.19441,
2026_07_07_10_52_07.012,0,25,0,0.754,0,0,0,0, ,0,0,0,0,0, ,796.9,-566.4,273,-1,0.3,-2.7,25,778.494,-562.192,268.366,0.0135066,-0.0623124,-2.28615,
2026_07_07_10_52_07.028,0,25,0,0.754,0,0,0,0, ,0,0,0,0,0, ,783.5,-550.6,275.2,0,0.3,-2.3,25,779.208,-561.967,268.716,-0.0177852,-0.040234,-2.29919,
2026_07_07_10_52_07.053,0,24.9,0,0.755,0,0,0,0, ,0,0,0,0,0, ,801.6,-567.9,270.2,-1.4,-1.1,-2.2,25,780.021,-561.801,268.959,-0.0593576,-0.0621573,-2.29619,
2026_07_07_10_52_07.068,0,25,0,0.754,0,0,0,0, ,0,0,0,0,0, ,783.2,-552.7,256.3,0.9,-0.9,-0.9,25,780.775,-561.71,268.611,-0.0709749,-0.119307,-2.25072,
2026_07_07_10_52_07.092,0,24.9,0,0.753,0,0,0,0, ,0,0,0,0,0, ,775.8,-557.7,263.1,0.3,-0.5,-1.7,25,780.697,-561.313,268.068,-0.0300874,-0.154693,-2.19278,
2026_07_07_10_52_07.108,0,25,0,0.755,0,0,0,0, ,0,0,0,0,0, ,779.4,-558.9,269.1,0.7,0.8,-1.5,25,780.509,-561.13,267.948,0.00221482,-0.136126,-2.15666,
2026_07_07_10_52_07.132,0,25,0,0.755,0,0,0,0, ,0,0,0,0,0, ,777.7,-553.3,266.9,1.2,-0.7,-1.1,25,780.389,-560.823,267.951,0.0599705,-0.124784,-2.10446,
2026_07_07_10_52_07.147,0,24.9,0,0.757,0,0,0,0, ,0,0,0,0,0, ,776.3,-560.4,282.2,-0.4,-1.4,-1.4,25,780.183,-560.581,268.353,0.080691,-0.181164,-2.05239,
2026_07_07_10_52_07.171,0,24.9,0,0.755,0,0,0,0, ,0,0,0,0,0, ,767.4,-556.3,275.1,0.1,0.1,-2.1,25,779.675,-560.445,268.981,0.0666333,-0.209734,-2.03396,
2026_07_07_10_52_07.187,0,24.9,0,0.755,0,0,0,0, ,0,0,0,0,0, ,769.7,-557.2,274.9,1.3,1,-3.1,25,778.997,-560.22,269.347,0.105229,-0.163438,-2.06846,
2026_07_07_10_52_07.212,0,24.9,0,0.753,0,0,0,0, ,0,0,0,0,0, ,769,-557,277.8,-0.6,0,-3.8,25,778.409,-560.03,269.774,0.120145,-0.123009,-2.15264,
2026_07_07_10_52_07.227,0,25,0,0.755,0,0,0,0, ,0,0,0,0,0, ,782.5,-558.1,275,-0.7,-1.1,-3.9,25,778.247,-559.879,270.178,0.0732141,-0.149029,-2.25608,
2026_07_07_10_52_07.250,0,24.9,0,0.755,0,0,0,0, ,0,0,0,0,0, ,787.4,-556.3,272.2,0.7,-1.1,-3.5,25,778.656,-559.715,270.386,0.0687526,-0.206979,-2.34406,
2026_07_07_10_52_07.267,0,24.9,0,0.755,0,0,0,0, ,0,0,0,0,0, ,784.3,-554.8,271.9,1,0.4,-2.9,25,779.094,-559.462,270.488,0.11636,-0.215694,-2.39622,
2026_07_07_10_52_07.291,0,24.9,0,0.755,0,0,0,0, ,0,0,0,0,0, ,774.6,-549.5,274.4,-0.1,0.5,-3.1,25,779.116,-559.016,270.65,0.136691,-0.175128,-2.43302,
2026_07_07_10_52_07.306,0,24.9,0,0.757,0,0,0,0, ,0,0,0,0,0, ,782.2,-551,282.4,-0.5,0,-3.7,25,779.072,-558.482,271.122,0.11008,-0.149222,-2.49194,
2026_07_07_10_52_07.331,0,25,0,0.755,0,0,0,0, ,0,0,0,0,0, ,781,-551,281.3,0.1,1.6,-3.8,25,779.226,-558.026,271.776,0.0911847,-0.091379,-2.5686,
2026_07_07_10_52_07.346,0,24.9,0,0.755,0,0,0,0, ,0,0,0,0,0, ,784.6,-548.3,276.8,-0.5,1.3,-3.6,25,779.444,-557.516,272.219,0.0734406,0.0025488,-2.63755,
2026_07_07_10_52_07.370,0,25,0,0.754,0,0,0,0, ,0,0,0,0,0, ,787.2,-549.4,270.3,-0.6,0.3,-2.5,25,779.837,-556.987,272.3,0.0354497,0.0511435,-2.66268,
2026_07_07_10_52_07.385,0,24.9,0,0.755,0,0,0,0, ,0,0,0,0,0, ,774.7,-551.2,266.3,-0.5,-0.8,-2.7,25,779.905,-556.58,272.057,-0.000226121,0.0327926,-2.65886,
2026_07_07_10_52_07.410,0,24.9,0,0.753,0,0,0,0, ,0,0,0,0,0, ,773.1,-552.3,274.7,-1,-0.1,-3.6,25,779.539,-556.286,271.962,-0.0459155,0.00337238,-2.68879,
2026_07_07_10_52_07.425,0,24.9,0,0.755,0,0,0,0, ,0,0,0,0,0, ,787.1,-551,281,-0.2,0.5,-4.3,25,779.573,-556.003,272.321,-0.07968,0.0153544,-2.76565,
2026_07_07_10_52_07.450,0,24.9,0,0.756,0,0,0,0, ,0,0,0,0,0, ,797.8,-546.6,273.3,0.5,0.1,-3.5,25,780.358,-555.564,272.615,-0.0656839,0.0327,-2.83477,
2026_07_07_10_52_07.465,0,24.9,0,0.755,0,0,0,0, ,0,0,0,0,0, ,793,-548.5,272,-0.2,-1.1,-2.7,25,781.275,-555.076,272.617,-0.0525406,0.000238566,-2.85093,
2026_07_07_10_52_07.491,0,25,0,0.753,0,0,0,0, ,0,0,0,0,0, ,790.8,-548.8,276.6,0,-0.9,-3,25,781.922,-554.684,272.72,-0.0554327,-0.0607135,-2.85088,
2026_07_07_10_52_07.504,0,24.8,0,0.754,0,0,0,0, ,0,0,0,0,0, ,795.4,-543.8,273.5,0.9,0.4,-2.8,25,782.603,-554.173,272.862,-0.0246329,-0.0722481,-2.85387,
2026_07_07_10_52_07.529,0,24.9,0,0.757,0,0,0,0, ,0,0,0,0,0, ,793.9,-545.2,278.4,1,1.8,-1.6,25,783.337,-553.584,273.05,0.0347588,-0.000814251,-2.81402,
2026_07_07_10_52_07.544,0,24.9,0,0.755,0,0,0,0, ,0,0,0,0,0, ,784.4,-548.2,276.8,0.6,0.8,-1.9,25,783.692,-553.164,273.327,0.0813907,0.0784541,-2.74919,
2026_07_07_10_52_07.568,0,24.9,0,0.754,0,0,0,0, ,0,0,0,0,0, ,781.3,-544.4,273.6,-0.9,-1,-2.5,25,783.64,-552.746,273.441,0.0672903,0.0675796,-2.71572,
2026_07_07_10_52_07.583,0,24.9,0,0.755,0,0,0,0, ,0,0,0,0,0, ,794.7,-544.9,269.4,-0.5,-0.1,-2.6,25,783.906,-552.253,273.323,0.0205336,0.0299458,-2.70562,
2026_07_07_10_52_07.608,0,24.9,0,0.754,0,0,0,0, ,0,0,0,0,0, ,789.3,-545.6,268.7,0.2,-0.7,-1.9,25,784.399,-551.826,273.062,0.0101417,0.00374599,-2.67786,
2026_07_07_10_52_07.623,0,24.9,0,0.754,0,0,0,0, ,0,0,0,0,0, ,774.6,-542.4,272.7,-0.7,0,-2.5,25,784.25,-551.349,272.919,-0.0057107,-0.0178104,-2.64874,
2026_07_07_10_52_07.649,0,25,0,0.755,0,0,0,0, ,0,0,0,0,0, ,787.3,-544.6,278.3,-0.1,0,-3.2,25,784.049,-550.871,273.076,-0.0297377,-0.0167251,-2.661,
2026_07_07_10_52_07.662,0,25,0,0.755,0,0,0,0, ,0,0,0,0,0, ,789.6,-545.2,278.9,0.1,-0.7,-3.4,25,784.317,-550.507,273.412,-0.0279256,-0.037034,-2.69994,
2026_07_07_10_52_07.689,0,24.9,0,0.754,0,0,0,0, ,0,0,0,0,0, ,789.9,-544.1,279,0,-1,-3.3,25,784.648,-550.15,273.75,-0.023177,-0.0865741,-2.73955,
2026_07_07_10_52_07.702,0,25,0,0.755,0,0,0,0, ,0,0,0,0,0, ,796.2,-542.4,280,0.2,0,-3.3,25,785.16,-549.73,274.1,-0.0156709,-0.111767,-2.77371,
2026_07_07_10_52_07.727,0,24.9,0,0.754,0,0,0,0, ,0,0,0,0,0, ,808.1,-543.9,278.9,1.5,0.4,-1.4,25,786.195,-549.329,274.426,0.0370809,-0.0927689,-2.74789,
2026_07_07_10_52_07.742,0,25,0,0.755,0,0,0,0, ,0,0,0,0,0, ,787.3,-544.4,292.2,-0.2,-1,-0.9,25,786.896,-549.013,275.104,0.0744307,-0.105397,-2.65052,
2026_07_07_10_52_07.767,0,25,0,0.758,0,0,0,0, ,0,0,0,0,0, ,786.2,-545.2,288.3,-0.4,-1.2,-1.4,25,786.888,-548.756,276.027,0.0516138,-0.166006,-2.55908,
2026_07_07_10_52_07.781,0,25.1,0,0.755,0,0,0,0, ,0,0,0,0,0, ,783,-540.5,280.5,0,-1.7,-2.1,25,786.748,-548.396,276.537,0.0362811,-0.244249,-2.50977,
2026_07_07_10_52_07.807,0,25,0,0.753,0,0,0,0, ,0,0,0,0,0, ,784.5,-541.3,276,0,-0.1,-2.3,25,786.565,-547.94,276.642,0.0340702,-0.284209,-2.4909,
2026_07_07_10_52_07.821,0,25,0,0.755,0,0,0,0, ,0,0,0,0,0, ,788.3,-541.1,267,-0.1,-0.1,-2,25,786.555,-547.529,276.328,0.0289472,-0.272984,-2.47012,
2026_07_07_10_52_07.846,0,25,0,0.754,0,0,0,0, ,0,0,0,0,0, ,779.4,-541.8,270.7,-1.2,-1.7,-2,25,786.391,-547.158,275.873,-0.0124261,-0.311192,-2.44148,
2026_07_07_10_52_07.861,0,25,0,0.755,0,0,0,0, ,0,0,0,0,0, ,786.7,-543.4,278.4,-1,-0.8,-2.8,25,786.187,-546.881,275.792,-0.0787002,-0.368401,-2.43895,
2026_07_07_10_52_07.886,0,25,0,0.755,0,0,0,0, ,0,0,0,0,0, ,792.1,-541.7,276.2,-0.4,-1,-2.8,25,786.383,-546.617,275.884,-0.116561,-0.400795,-2.46095,
2026_07_07_10_52_07.900,0,25,0,0.755,0,0,0,0, ,0,0,0,0,0, ,793.3,-542.2,283.8,-0.4,0,-2.7,25,786.768,-546.332,276.135,-0.133833,-0.406841,-2.47856,
2026_07_07_10_52_07.925,0,24.9,0,0.755,0,0,0,0, ,0,0,0,0,0, ,802.3,-542.4,278.1,-0.3,0.1,-1.2,25,787.44,-546.087,276.428,-0.147005,-0.379002,-2.44635,
2026_07_07_10_52_07.940,0,25,0,0.753,0,0,0,0, ,0,0,0,0,0, ,789.4,-543.3,279.5,0.6,0.3,-0.7,25,787.952,-545.889,276.573,-0.128907,-0.343719,-2.35517,
2026_07_07_10_52_07.967,0,25,0,0.755,0,0,0,0, ,0,0,0,0,0, ,772,-537.8,268.9,0.3,-0.1,-1.5,25,787.511,-545.564,276.428,-0.0936295,-0.31668,-2.27868,
2026_07_07_10_52_07.981,0,25,0,0.756,0,0,0,0, ,0,0,0,0,0, ,780.6,-542.7,276.2,-0.8,-1,-2.9,25,786.827,-545.24,276.192,-0.103158,-0.330898,-2.27389,
2026_07_07_10_52_08.013,0,25,0,0.755,0,0,0,0, ,0,0,0,0,0, ,787.9,-540.7,273.6,-0.5,-0.7,-2.3,25,786.67,-545.025,276.113,-0.136482,-0.362531,-2.29376,
2026_07_07_10_52_08.019,0,24.9,0,0.755,0,0,0,0, ,0,0,0,0,0, ,793.3,-541,273,-0.1,-0.1,-2.2,25,786.91,-544.77,275.942,-0.146446,-0.364814,-2.29109,
2026_07_07_10_52_08.045,0,25,0,0.755,0,0,0,0, ,0,0,0,0,0, ,788,-540,267,0.4,0.8,-1.5,25,787.138,-544.51,275.58,-0.128381,-0.321255,-2.26422,
2026_07_07_10_52_08.059,0,25,0,0.755,0,0,0,0, ,0,0,0,0,0, ,784.1,-542.2,284.6,-1.1,-0.3,-2.2,25,787.071,-544.302,275.593,-0.141886,-0.286444,-2.23897,
2026_07_07_10_52_08.083,0,25,0,0.757,0,0,0,0, ,0,0,0,0,0, ,793,-540.6,282.4,-0.7,-0.3,-2.5,25,787.162,-544.125,276.075,-0.188084,-0.28727,-2.24574,
2026_07_07_10_52_08.099,0,25,0,0.757,0,0,0,0, ,0,0,0,0,0, ,795.2,-542.3,283.4,0,-0.3,-1.9,25,787.584,-543.962,276.491,-0.19795,-0.288046,-2.24295,
2026_07_07_10_52_08.125,0,25,0,0.753,0,0,0,0, ,0,0,0,0,0, ,797.1,-544.4,273.8,0.8,1.8,-1.1,25,788.106,-543.925,276.619,-0.161513,-0.22479,-2.19768,
2026_07_07_10_52_08.138,0,24.9,0,0.755,0,0,0,0, ,0,0,0,0,0, ,783.3,-539.5,277,-0.1,0.7,-0.9,25,788.234,-543.805,276.545,-0.130343,-0.13492,-2.1247,
2026_07_07_10_52_08.164,0,24.9,0,0.755,0,0,0,0, ,0,0,0,0,0, ,775.8,-540.2,279.1,-0.5,-0.1,-2,25,787.705,-543.564,276.637,-0.140681,-0.108417,-2.08358,
2026_07_07_10_52_08.177,0,25,0,0.755,0,0,0,0, ,0,0,0,0,0, ,784.7,-542.4,277.7,-0.4,-2,-3.4,25,787.25,-543.426,276.744,-0.15953,-0.165795,-2.12114,
2026_07_07_10_52_08.203,0,25,0,0.757,0,0,0,0, ,0,0,0,0,0, ,803.5,-540.6,280,0.1,-0.5,-2.7,25,787.668,-543.308,276.872,-0.158949,-0.231863,-2.17775,
2026_07_07_10_52_08.217,0,24.9,0,0.757,0,0,0,0, ,0,0,0,0,0, ,793.8,-537.3,285.2,-0.6,0.3,-1.7,25,788.337,-543.043,277.222,-0.164498,-0.223828,-2.1791,
2026_07_07_10_52_08.243,0,25,0,0.754,0,0,0,0, ,0,0,0,0,0, ,790.8,-537.3,279,-0.5,0,-1.8,25,788.579,-542.693,277.519,-0.187989,-0.201048,-2.15295,
2026_07_07_10_52_08.256,0,25,0,0.755,0,0,0,0, ,0,0,0,0,0, ,788.8,-536.9,273,-0.1,-1,-2.4,25,788.653,-542.352,277.426,-0.194815,-0.219265,-2.14973,
2026_07_07_10_52_08.283,0,25,0,0.755,0,0,0,0, ,0,0,0,0,0, ,794.1,-540.4,279,-0.9,-1.1,-2.3,25,788.823,-542.126,277.339,-0.213412,-0.269888,-2.16193,
2026_07_07_10_52_08.296,0,25.1,0,0.755,0,0,0,0, ,0,0,0,0,0, ,801.5,-539.6,276.8,-1.3,0.5,-1.4,25,789.37,-541.997,277.373,-0.267439,-0.271723,-2.14292,
2026_07_07_10_52_08.323,0,25,0,0.755,0,0,0,0, ,0,0,0,0,0, ,786.6,-535,280.6,-0.9,0.2,-1.3,25,789.656,-541.711,277.454,-0.318173,-0.233837,-2.0946,
2026_07_07_10_52_08.336,0,25,0,0.757,0,0,0,0, ,0,0,0,0,0, ,791.1,-541.8,281.4,-0.9,0.2,-2.2,25,789.607,-541.509,277.67,-0.353628,-0.2074,-2.0736,
2026_07_07_10_52_08.362,0,25,0,0.754,0,0,0,0, ,0,0,0,0,0, ,783.6,-536.4,262.3,0.4,0,-1.9,25,789.469,-541.362,277.316,-0.347313,-0.188668,-2.07217,
2026_07_07_10_52_08.379,0,25.1,0,0.755,0,0,0,0, ,0,0,0,0,0, ,770.6,-521.2,272.3,0.7,-0.5,-2.6,25,788.715,-540.597,276.705,-0.292633,-0.192405,-2.083,
2026_07_07_10_52_08.405,0,25,0,0.757,0,0,0,0, ,0,0,0,0,0, ,811.2,-584.3,269.7,-9.1,-2.6,-3.4,25,788.848,-541.337,276.358,-0.530738,-0.275134,-2.13888,
2026_07_07_10_52_08.415,0,25,0,0.755,0,0,0,0, ,0,0,0,0,0, ,779,-517.5,268.5,3.6,-0.5,-1.3,25,789.229,-541.92,275.915,-0.665975,-0.352821,-2.15175,
2026_07_07_10_52_08.441,0,25.1,0,0.755,0,0,0,0, ,0,0,0,0,0, ,798.9,-544.5,285.5,0,-1,-4.4,25,789.212,-541.254,275.982,-0.515704,-0.377024,-2.1943,
2026_07_07_10_52_08.456,0,25.1,0,0.754,0,0,0,0, ,0,0,0,0,0, ,788,-522.9,283.2,1.1,0.1,-1.5,25,789.471,-540.794,276.491,-0.450763,-0.381471,-2.24035,
2026_07_07_10_52_08.482,0,25,0,0.755,0,0,0,0, ,0,0,0,0,0, ,795.4,-554,272.3,-8.1,-2.9,-7.3,25,789.606,-540.651,276.568,-0.636576,-0.443537,-2.37195,
2026_07_07_10_52_08.495,0,25,0,0.755,0,0,0,0, ,0,0,0,0,0, ,784.3,-498,273.9,-4,-4.6,-8.8,25,789.621,-539.758,276.357,-0.966456,-0.645025,-2.71796,
2026_07_07_10_52_08.521,0,25,0,0.757,0,0,0,0, ,0,0,0,0,0, ,821.1,-573.7,286.4,-12.2,-4.1,-10.9,25,790.418,-539.52,276.588,-1.40116,-0.870797,-3.15257,
2026_07_07_10_52_08.534,0,24.9,0,0.757,0,0,0,0, ,0,0,0,0,0, ,817.8,-512.6,275.2,-4.4,-1.8,-10.5,25,792.187,-539.741,276.845,-1.82155,-0.997498,-3.61249,
2026_07_07_10_52_08.561,0,24.9,0,0.755,0,0,0,0, ,0,0,0,0,0, ,803.3,-535,244.9,-2.9,6.1,-18,25,793.306,-538.77,275.821,-1.93298,-0.805698,-4.26071,
2026_07_07_10_52_08.574,0,25,0,0.755,0,0,0,0, ,0,0,0,0,0, ,766.2,-505.7,285.4,7.1,11.9,-21.7,25,792.785,-537.648,275.171,-1.68722,-0.208163,-5.21068,
2026_07_07_10_52_08.599,0,25,0,0.757,0,0,0,0, ,0,0,0,0,0, ,753.1,-524,305.5,1.4,12.5,-27.6,25,790.766,-536.258,276.407,-1.32542,0.547959,-6.39527,
2026_07_07_10_52_08.614,0,25,0,0.755,0,0,0,0, ,0,0,0,0,0, ,714.5,-513.6,308.4,0.4,4.9,-36.2,25,787.294,-535.194,278.268,-1.18981,1.04472,-7.94946,
2026_07_07_10_52_08.640,0,25,0,0.757,0,0,0,0, ,0,0,0,0,0, ,699.3,-459.4,307.4,0.5,-2.5,-48.5,25,782.395,-532.227,280.074,-1.08988,1.05419,-10.0457,
2026_07_07_10_52_08.653,0,25,0,0.757,0,0,0,0, ,0,0,0,0,0, ,745.7,-482.5,332.7,-1.7,-13.1,-61.9,25,778.746,-528.493,282.51,-1.06003,0.514634,-12.7973,
2026_07_07_10_52_08.680,0,25,0,0.755,0,0,0,0, ,0,0,0,0,0, ,739.9,-421.9,274,0.6,-26.7,-71.7,25,776.555,-523.844,283.78,-1.02895,-0.729382,-16.0881,
2026_07_07_10_52_08.693,0,25,0,0.755,0,0,0,0, ,0,0,0,0,0, ,736.8,-389.2,266.3,1,-42.7,-87.6,25,774.227,-516.635,282.949,-0.917497,-2.79947,-19.9614,
2026_07_07_10_52_08.720,0,24.9,0,0.755,0,0,0,0, ,0,0,0,0,0, ,833.9,-389.5,280.5,5.2,-43.9,-97.8,25,774.905,-508.879,282.367,-0.672681,-5.26747,-24.3939,
2026_07_07_10_52_08.733,0,25.1,0,0.755,0,0,0,0, ,0,0,0,0,0, ,904.5,-341.3,207,2,-43.6,-96.3,25,780.651,-500.136,280.014,-0.412314,-7.6125,-28.8214,
2026_07_07_10_52_08.759,0,25.1,0,0.754,0,0,0,0, ,0,0,0,0,0, ,868.4,-321.5,178.1,4.3,-44.8,-98.9,25,787.098,-489.853,274.684,-0.195236,-9.84205,-33.0126,
2026_07_07_10_52_08.772,0,25,0,0.755,0,0,0,0, ,0,0,0,0,0, ,903.5,-303.7,188.1,7.9,-29.2,-97.5,25,793.122,-479.052,269.103,0.18838,-11.497,-36.985,
2026_07_07_10_52_08.801,0,25,0,0.755,0,0,0,0, ,0,0,0,0,0, ,934.6,-248.7,178.1,2.7,-15.9,-98.2,25,800.796,-466.691,263.862,0.49987,-12.1705,-40.6939,
2026_07_07_10_52_08.812,0,25,0,0.755,0,0,0,0, ,0,0,0,0,0, ,933.5,-247.5,203.8,-3.3,-8.3,-92.9,25,808.916,-453.37,259.419,0.451128,-12.1662,-44.0367,
2026_07_07_10_52_08.839,0,25.1,0,0.757,0,0,0,0, ,0,0,0,0,0, ,972.2,-214.8,213.3,-10.9,-1.4,-81.4,25,817.687,-439.829,256.319,-0.00901924,-11.7204,-46.6639,
2026_07_07_10_52_08.852,0,24.9,0,0.755,0,0,0,0, ,0,0,0,0,0, ,994.2,-184.5,176.2,-13.3,0.8,-73.8,25,827.773,-425.193,252.568,-0.745813,-11.0245,-48.5491,
2026_07_07_10_52_08.878,0,25.1,0,0.755,0,0,0,0, ,0,0,0,0,0, ,949.9,-163.4,179.4,-13.4,-3.2,-73.4,25,836.565,-409.883,248.011,-1.51388,-10.4258,-50.0756,
2026_07_07_10_52_08.891,0,25,0,0.755,0,0,0,0, ,0,0,0,0,0, ,922.2,-154,213.9,-9.6,-1.9,-73.6,25,842.627,-394.576,244.882,-2.12241,-9.94586,-51.5031,
2026_07_07_10_52_08.917,0,25.1,0,0.756,0,0,0,0, ,0,0,0,0,0, ,960.5,-123,204.8,-7.4,-3,-70,25,848.643,-378.972,242.716,-2.51104,-9.48908,-52.7399,
2026_07_07_10_52_08.930,0,25.1,0,0.754,0,0,0,0, ,0,0,0,0,0, ,981.3,-110.4,174.9,-10.5,-5.5,-66.5,25,856.093,-362.99,239.495,-2.90342,-9.16982,-53.685,
2026_07_07_10_52_08.958,0,25.1,0,0.755,0,0,0,0, ,0,0,0,0,0, ,980.2,-71.1,187.2,-21.9,-11.6,-58.5,25,863.689,-346.4,235.933,-3.71368,-9.13205,-54.2222,
2026_07_07_10_52_08.970,0,25,0,0.755,0,0,0,0, ,0,0,0,0,0, ,986.3,-32.5,210.4,-30.1,-10.5,-60.5,25,870.975,-328.448,233.671,-5.07175,-9.24893,-54.5438,
2026_07_07_10_52_08.998,0,25.1,0,0.757,0,0,0,0, ,0,0,0,0,0, ,1024.9,-57.1,192.1,-16.8,-4.2,-65.8,25,879.179,-311.163,231.695,-6.19168,-9.13321,-55.0683,
2026_07_07_10_52_09.010,0,25.1,0,0.755,0,0,0,0, ,0,0,0,0,0, ,1075.6,-35,183.3,-8.1,-4.4,-58,25,889.603,-295.008,229.014,-6.57304,-8.83869,-55.4846,
2026_07_07_10_52_09.037,0,25,0,0.755,0,0,0,0, ,0,0,0,0,0, ,1076.5,-37.1,181.1,-12,-5.5,-46.1,25,900.965,-279.227,226.161,-6.78492,-8.60172,-55.2753,
2026_07_07_10_52_09.050,0,25,0,0.757,0,0,0,0, ,0,0,0,0,0, ,1030.8,7.6,186,-10.9,-3.8,-35.6,25,910.269,-263.111,223.565,-7.0692,-8.36091,-54.3962,
2026_07_07_10_52_09.077,0,25.1,0,0.755,0,0,0,0, ,0,0,0,0,0, ,1009,47.6,169.5,-12.9,-2.6,-43.6,25,916.95,-245.396,220.773,-7.36357,-8.04642,-53.4946,
2026_07_07_10_52_09.089,0,25,0,0.754,0,0,0,0, ,0,0,0,0,0, ,1003.9,1.9,170.2,-5.3,3.9,-48.5,25,922.404,-228.934,217.67,-7.46939,-7.51648,-53.0409,
2026_07_07_10_52_09.117,0,25,0,0.758,0,0,0,0, ,0,0,0,0,0, ,1011.5,12.3,186,-0.5,2.8,-39.7,25,927.601,-214.55,215.258,-7.19094,-6.85431,-52.4961,
2026_07_07_10_52_09.129,0,25,0,0.755,0,0,0,0, ,0,0,0,0,0, ,1010.2,41.8,177.7,-2.9,0.4,-29.8,25,932.674,-199.828,213.223,-6.85634,-6.33912,-51.4147,
2026_07_07_10_52_09.156,0,25.1,0,0.756,0,0,0,0, ,0,0,0,0,0, ,1014.7,51.8,179.1,-1.8,-1,-25.7,25,937.536,-184.799,211.101,-6.58173,-5.97111,-49.9726,
2026_07_07_10_52_09.168,0,25.1,0,0.755,0,0,0,0, ,0,0,0,0,0, ,1007.2,68.3,178.3,5.1,-1.2,-23.3,25,942.009,-169.878,209.126,-6.08011,-5.67428,-48.4204,
2026_07_07_10_52_09.202,0,25.1,0,0.755,0,0,0,0, ,0,0,0,0,0, ,1010.7,77.6,175.5,4.7,-1.4,-19.8,25,946.089,-155.081,207.162,-5.41101,-5.40772,-46.783,
2026_07_07_10_52_09.209,0,25,0,0.755,0,0,0,0, ,0,0,0,0,0, ,994.8,89.1,183.2,-1.4,-2.3,-20.9,25,949.541,-140.552,205.468,-4.98073,-5.19092,-45.1722,
2026_07_07_10_52_09.236,0,25,0,0.757,0,0,0,0, ,0,0,0,0,0, ,994.9,74.8,184.3,-1.3,-0.8,-20.4,25,952.302,-126.993,204.144,-4.75948,-4.96905,-43.6779,
2026_07_07_10_52_09.247,0,25.1,0,0.754,0,0,0,0, ,0,0,0,0,0, ,992.6,83.3,188.5,0.7,-2.3,-17.5,25,954.828,-114.437,203.063,-4.48773,-4.76071,-42.171,
2026_07_07_10_52_09.275,0,25,0,0.756,0,0,0,0, ,0,0,0,0,0, ,995.8,108.5,183.5,-4,-4.5,-13.3,25,957.227,-101.62,202.023,-4.31481,-4.67779,-40.5397,
2026_07_07_10_52_09.287,0,25,0,0.754,0,0,0,0, ,0,0,0,0,0, ,1009.5,93.7,182.4,-4.5,-3.3,-11.3,25,959.995,-89.2666,200.861,-4.31086,-4.63039,-38.8188,
2026_07_07_10_52_09.315,0,25,0,0.757,0,0,0,0, ,0,0,0,0,0, ,997.6,110.5,162.8,-3,0.5,-7.3,25,962.649,-77.6052,199.139,-4.27668,-4.43354,-37.02,
2026_07_07_10_52_09.326,0,25.1,0,0.755,0,0,0,0, ,0,0,0,0,0, ,974.9,100.3,171.2,0.1,1.7,-5.5,25,964.088,-66.4533,197.18,-4.10443,-4.09634,-35.1541,
2026_07_07_10_52_09.354,0,25.1,0,0.755,0,0,0,0, ,0,0,0,0,0, ,980.1,111.5,167.2,0.6,-0.1,-4.4,25,964.905,-55.9505,195.475,-3.83299,-3.79797,-33.3136,
2026_07_07_10_52_09.366,0,25,0,0.757,0,0,0,0, ,0,0,0,0,0, ,977,106.3,174.9,3.6,0,-4.3,25,965.736,-45.905,193.987,-3.47145,-3.56958,-31.5486,
2026_07_07_10_52_09.396,0,25,0,0.755,0,0,0,0, ,0,0,0,0,0, ,974.4,109.9,172.6,1,-0.6,-3.8,25,966.344,-36.5203,192.754,-3.11975,-3.37034,-29.8729,
2026_07_07_10_52_09.406,0,25.1,0,0.756,0,0,0,0, ,0,0,0,0,0, ,964.2,120.4,173.3,-0.7,0.1,-5.8,25,966.524,-27.2779,191.547,-2.9205,-3.18019,-28.345,
2026_07_07_10_52_09.433,0,25,0,0.754,0,0,0,0, ,0,0,0,0,0, ,971.1,101.8,184.4,0.2,0.4,-7.9,25,966.592,-18.8455,190.773,-2.75777,-2.97116,-27.0352,
2026_07_07_10_52_09.445,0,25.1,0,0.755,0,0,0,0, ,0,0,0,0,0, ,974.6,105.2,182.3,-0.5,0,-5.5,25,966.974,-11.39,190.321,-2.59886,-2.77792,-25.796,
2026_07_07_10_52_09.479,0,25.1,0,0.755,0,0,0,0, ,0,0,0,0,0, ,957.3,121.4,176,-0.8,0,-2.4,25,966.911,-3.79175,189.64,-2.4801,-2.60864,-24.4647,
2026_07_07_10_52_09.486,0,25.1,0,0.755,0,0,0,0, ,0,0,0,0,0, ,968.2,112.4,170,-2.7,0,-6.7,25,966.658,3.5629,188.626,-2.43561,-2.44968,-23.2512,
2026_07_07_10_52_09.513,0,25.2,0,0.756,0,0,0,0, ,0,0,0,0,0, ,959.9,123.6,176.2,-1.4,-0.2,-7.9,25,966.499,10.5364,187.68,-2.41211,-2.30649,-22.2792,
2026_07_07_10_52_09.525,0,25.1,0,0.755,0,0,0,0, ,0,0,0,0,0, ,967.1,116.8,188.1,-5.6,-1.3,-11.1,25,966.316,17.219,187.343,-2.4784,-2.21165,-21.5004,
2026_07_07_10_52_09.553,0,25,0,0.755,0,0,0,0, ,0,0,0,0,0, ,974.3,103.3,189.3,-3,-0.8,-10.7,25,966.583,22.8759,187.426,-2.58941,-2.14086,-20.8545,
2026_07_07_10_52_09.565,0,25,0,0.755,0,0,0,0, ,0,0,0,0,0, ,981,122.4,185,-1.2,-1.6,-4.1,25,967.258,28.3587,187.409,-2.55958,-2.08352,-20.0346,
2026_07_07_10_52_09.593,0,25,0,0.757,0,0,0,0, ,0,0,0,0,0, ,994.8,116.3,172.3,-2.6,-3.1,-1.4,25,968.515,33.9035,186.875,-2.51939,-2.09976,-18.9813,
2026_07_07_10_52_09.605,0,24.9,0,0.754,0,0,0,0, ,0,0,0,0,0, ,975.9,118.5,177.1,-0.8,-3.9,-1.1,25,969.541,38.9916,186.133,-2.46946,-2.18509,-17.9008,
2026_07_07_10_52_09.634,0,25.1,0,0.757,0,0,0,0, ,0,0,0,0,0, ,960,143.9,169.3,-1.1,-2.3,-3.7,25,969.444,44.6105,185.345,-2.37687,-2.24084,-16.9562,
2026_07_07_10_52_09.651,0,25.2,0,0.756,0,0,0,0, ,0,0,0,0,0, ,964.3,122.5,180,-2.1,-0.1,-6.1,25,969,50.0089,184.693,-2.32953,-2.17742,-16.2216,
2026_07_07_10_52_09.678,0,25,0,0.755,0,0,0,0, ,0,0,0,0,0, ,977.9,115.6,175.2,-3,1,-5.1,25,969.128,54.2161,184.261,-2.34296,-2.01731,-15.5743,
2026_07_07_10_52_09.684,0,25.1,0,0.755,0,0,0,0, ,0,0,0,0,0, ,980.3,123.6,167.1,-2.9,-0.1,-1.5,25,969.736,58.2005,183.462,-2.37995,-1.86696,-14.8263,
2026_07_07_10_52_09.711,0,25.1,0,0.757,0,0,0,0, ,0,0,0,0,0, ,960,134.7,165.6,-1.9,-1.1,-1.5,25,969.761,62.5239,182.419,-2.38117,-1.78975,-14.0143,
2026_07_07_10_52_09.723,0,25.1,0,0.757,0,0,0,0, ,0,0,0,0,0, ,968.8,128.1,176.5,-1.5,-2,-3.3,25,969.434,66.7211,181.727,-2.33966,-1.77514,-13.3065,
2026_07_07_10_52_09.753,0,25.2,0,0.755,0,0,0,0, ,0,0,0,0,0, ,969.4,123.9,174.6,-0.5,0,-3.4,25,969.414,70.3334,181.35,-2.25803,-1.72791,-12.6998,
2026_07_07_10_52_09.763,0,25.1,0,0.753,0,0,0,0, ,0,0,0,0,0, ,933.5,135.8,173.2,-1,0,-3.7,25,968.319,73.9602,180.896,-2.16613,-1.62261,-12.1422,
2026_07_07_10_52_09.790,0,25.1,0,0.755,0,0,0,0, ,0,0,0,0,0, ,955.3,117.9,185.9,-5.6,-0.6,-7,25,966.862,77.1832,180.814,-2.23523,-1.54201,-11.7283,
2026_07_07_10_52_09.802,0,25.1,0,0.757,0,0,0,0, ,0,0,0,0,0, ,981,122.8,181,-1.8,-1,-4.5,25,966.94,79.8136,180.975,-2.32449,-1.4968,-11.364,
2026_07_07_10_52_09.830,0,25.1,0,0.755,0,0,0,0, ,0,0,0,0,0, ,1001.3,138.7,169.3,-2.1,-0.8,-2,25,968.415,82.9176,180.62,-2.30167,-1.46043,-10.8696,
2026_07_07_10_52_09.842,0,25.1,0,0.755,0,0,0,0, ,0,0,0,0,0, ,963.1,138.3,173.2,0.2,-1.1,-3.3,25,969.255,86.3046,180.049,-2.2193,-1.42933,-10.3687,
2026_07_07_10_52_09.870,0,25.1,0,0.755,0,0,0,0, ,0,0,0,0,0, ,955.9,141.2,175,1,-0.5,-3.9,25,968.661,89.5614,179.686,-2.0475,-1.39098,-9.95623,
2026_07_07_10_52_09.882,0,25.1,0,0.755,0,0,0,0, ,0,0,0,0,0, ,983.1,132.4,173.5,-1.4,0.7,-4.9,25,968.712,92.44,179.355,-1.93492,-1.30012,-9.61764,
2026_07_07_10_52_09.910,0,25,0,0.757,0,0,0,0, ,0,0,0,0,0, ,974.8,121.3,173.2,-2.7,1.6,-1.8,25,969.336,94.5369,178.989,-1.94193,-1.15082,-9.23571,
2026_07_07_10_52_09.921,0,25.1,0,0.754,0,0,0,0, ,0,0,0,0,0, ,968.8,132.3,174,-1.7,-0.2,-2.3,25,969.486,96.5029,178.661,-1.95766,-1.03803,-8.79783,
2026_07_07_10_52_09.951,0,25.1,0,0.757,0,0,0,0, ,0,0,0,0,0, ,976.8,133.6,177.9,1.7,-0.3,-2.1,25,969.688,98.7239,178.496,-1.83836,-0.990012,-8.39577,
2026_07_07_10_52_09.961,0,25.2,0,0.755,0,0,0,0, ,0,0,0,0,0, ,964.9,142.4,178.5,0.6,0.2,-2,25,969.759,101.117,178.478,-1.65626,-0.93273,-8.00908,
2026_07_07_10_52_09.989,0,25.1,0,0.756,0,0,0,0, ,0,0,0,0,0, ,963.5,132,184,0.4,1.5,-5.8,25,969.42,103.316,178.646,-1.52486,-0.824095,-7.75868,
2026_07_07_10_52_10.000,0,25,0,0.753,0,0,0,0, ,0,0,0,0,0, ,968.9,134,186.8,1.3,1.8,-4.1,25,969.224,105.125,179.058,-1.38014,-0.673329,-7.58753,
2026_07_07_10_52_10.030,0,25.1,0,0.755,0,0,0,0, ,0,0,0,0,0, ,987.6,135,184.2,-0.7,0,-3.8,25,969.774,106.915,179.451,-1.27776,-0.577455,-7.36587,
2026_07_07_10_52_10.040,0,25.1,0,0.758,0,0,0,0, ,0,0,0,0,0, ,986.9,146.8,181,0.1,-1.2,-1.7,25,970.839,108.986,179.642,-1.21818,-0.578829,-7.08459,
2026_07_07_10_52_10.069,0,25.1,0,0.757,0,0,0,0, ,0,0,0,0,0, ,974.7,144.1,181,3.2,2.4,-2.9,25,971.446,111.208,179.725,-1.0434,-0.506994,-6.79303,
2026_07_07_10_52_10.080,0,25.1,0,0.757,0,0,0,0, ,0,0,0,0,0, ,971.8,138.1,187.7,3.1,3.4,-3.8,25,971.556,113.03,180.007,-0.787863,-0.29938,-6.58322,
2026_07_07_10_52_10.110,0,25,0,0.755,0,0,0,0, ,0,0,0,0,0, ,967.2,133.5,188.7,0.8,1.3,-3.3,25,971.43,114.417,180.506,-0.621024,-0.137933,-6.39838,
2026_07_07_10_52_10.120,0,25.1,0,0.753,0,0,0,0, ,0,0,0,0,0, ,963.1,131.3,178.7,0.5,0.5,-1.7,25,971.048,115.513,180.701,-0.543571,-0.0746844,-6.16082,
2026_07_07_10_52_10.148,0,25.1,0,0.756,0,0,0,0, ,0,0,0,0,0, ,959.4,142.2,172.3,4.1,0.7,-3.2,25,970.451,116.807,180.384,-0.370291,-0.0335708,-5.93469,
2026_07_07_10_52_10.159,0,25,0,0.755,0,0,0,0, ,0,0,0,0,0, ,971.1,142.9,176.8,6.1,1.4,-4.6,25,970.134,118.376,180.028,-0.0369452,0.0324593,-5.81071,
2026_07_07_10_52_10.188,0,25.1,0,0.755,0,0,0,0, ,0,0,0,0,0, ,968,146.8,183.7,4.2,1.4,-4.8,25,970.098,119.989,180.042,0.279134,0.115794,-5.74302,
2026_07_07_10_52_10.199,0,25.1,0,0.755,0,0,0,0, ,0,0,0,0,0, ,971.9,139.5,184.8,0.3,1.2,-4.2,25,970.089,121.4,180.298,0.399234,0.187956,-5.66728,
2026_07_07_10_52_10.228,0,25,0,0.755,0,0,0,0, ,0,0,0,0,0, ,967,143.7,180.1,3,2.8,-4.1,25,970.05,122.631,180.43,0.475452,0.298378,-5.57482,
2026_07_07_10_52_10.239,0,25,0,0.757,0,0,0,0, ,0,0,0,0,0, ,960.8,143,179.6,9.1,3.4,-6.6,25,969.675,123.894,180.394,0.815151,0.469102,-5.56112,
2026_07_07_10_52_10.268,0,25.1,0,0.755,0,0,0,0, ,0,0,0,0,0, ,975.9,140.6,180.6,8.4,2.9,-5.8,25,969.595,124.985,180.376,1.29868,0.632469,-5.60005,
2026_07_07_10_52_10.278,0,25.2,0,0.757,0,0,0,0, ,0,0,0,0,0, ,965.6,145.8,183.5,4.2,3.4,-4.3,25,969.665,126.095,180.478,1.60345,0.785881,-5.56653,
2026_07_07_10_52_10.306,0,25.1,0,0.755,0,0,0,0, ,0,0,0,0,0, ,954.8,141.8,184.8,5,3.6,-4,25,969.088,127.174,180.702,1.78605,0.951273,-5.48021,
2026_07_07_10_52_10.318,0,25.2,0,0.755,0,0,0,0, ,0,0,0,0,0, ,950.1,152.2,179.5,9.6,3,-6.7,25,968.074,128.382,180.79,2.12206,1.0944,-5.47228,
2026_07_07_10_52_10.348,0,25.2,0,0.755,0,0,0,0, ,0,0,0,0,0, ,967.4,160.5,197.7,12.1,3.9,-9.7,25,967.506,130.086,181.266,2.65392,1.23794,-5.6385,
2026_07_07_10_52_10.357,0,25.2,0,0.755,0,0,0,0, ,0,0,0,0,0, ,975.8,159,199.5,11.4,6.8,-10,25,967.756,131.894,182.322,3.20821,1.48852,-5.89513,
2026_07_07_10_52_10.386,0,25.2,0,0.757,0,0,0,0, ,0,0,0,0,0, ,965.9,156.1,197.6,8.1,7.8,-7.9,25,967.944,133.457,183.311,3.60685,1.84266,-6.08129,
2026_07_07_10_52_10.397,0,25.2,0,0.757,0,0,0,0, ,0,0,0,0,0, ,953.8,165.6,172.8,8.9,5.4,-7.7,25,967.451,135.127,183.426,3.90503,2.13256,-6.18602,
2026_07_07_10_52_10.428,0,25.2,0,0.755,0,0,0,0, ,0,0,0,0,0, ,957.8,174.4,200.5,10.9,4.1,-10.1,25,966.741,137.252,183.623,4.27034,2.29206,-6.35141,
2026_07_07_10_52_10.437,0,25.1,0,0.755,0,0,0,0, ,0,0,0,0,0, ,970.7,191.8,216.1,18.2,12.5,-14.4,25,966.589,140.046,185.127,4.89676,2.65817,-6.71085,
2026_07_07_10_52_10.466,0,25.1,0,0.753,0,0,0,0, ,0,0,0,0,0, ,1014.2,162.8,210.9,13.6,15.5,-14.8,25,968.165,142.316,186.856,5.56727,3.34931,-7.1916,
2026_07_07_10_52_10.477,0,25.2,0,0.756,0,0,0,0, ,0,0,0,0,0, ,985.5,212.7,233.1,18.5,15.4,-19,25,970.096,145.084,188.997,6.20606,4.0867,-7.7832,
2026_07_07_10_52_10.508,0,25.2,0,0.755,0,0,0,0, ,0,0,0,0,0, ,978.6,218.3,310.9,1.9,15.9,-16.7,25,970.824,149.375,194.055,6.44944,4.79133,-8.39665,
2026_07_07_10_52_10.516,0,25.1,0,0.756,0,0,0,0, ,0,0,0,0,0, ,989.7,201.9,229.8,10.3,11.8,-23.5,25,971.636,153.076,198.704,6.42815,5.34335,-9.10982,
2026_07_07_10_52_10.547,0,25.1,0,0.756,0,0,0,0, ,0,0,0,0,0, ,997.1,217.2,209.9,11.7,8.5,-15.4,25,972.963,156.517,199.993,6.70675,5.63625,-9.73993,
2026_07_07_10_52_10.556,0,25.1,0,0.755,0,0,0,0, ,0,0,0,0,0, ,995.2,208.3,311,0.3,8.9,-0.7,25,974.376,159.944,203.677,6.66368,5.82295,-9.63695,
2026_07_07_10_52_10.584,0,25.1,0,0.755,0,0,0,0, ,0,0,0,0,0, ,1006.9,231.8,305.1,-4,0.9,1.3,25,976.001,163.607,210.037,6.14488,5.76671,-9.03141,
2026_07_07_10_52_10.595,0,25.1,0,0.755,0,0,0,0, ,0,0,0,0,0, ,1016.4,240.6,303.7,-14.7,-9.8,6.6,25,978.173,168.03,215.788,5.20066,5.14413,-8.24036,
2026_07_07_10_52_10.624,0,25.1,0,0.757,0,0,0,0, ,0,0,0,0,0, ,1006.7,278,278.6,-19.1,-4.3,-2.5,25,980.207,173.592,220.38,3.8539,4.40105,-7.61329,
2026_07_07_10_52_10.635,0,25.1,0,0.755,0,0,0,0, ,0,0,0,0,0, ,1083.9,304.3,291,-19.1,10.7,-15.7,25,984.174,180.756,224.306,2.45515,4.32786,-7.70389,
2026_07_07_10_52_10.665,0,25.2,0,0.753,0,0,0,0, ,0,0,0,0,0, ,1181.2,285.6,280.3,-25.2,16.5,-12.6,25,993.216,187.714,228.044,0.955769,4.89288,-8.0967,
2026_07_07_10_52_10.678,0,25.1,0,0.755,0,0,0,0, ,0,0,0,0,0, ,1217.2,302.8,221,-22.2,14,-3.6,25,1005.77,194.203,229.421,-0.546691,5.52402,-8.0969,
2026_07_07_10_52_10.707,0,25.1,0,0.758,0,0,0,0, ,0,0,0,0,0, ,1214.7,292.4,249.1,-20.6,4.7,5.5,25,1018.58,200.504,229.764,-1.81744,5.75716,-7.5456,
2026_07_07_10_52_10.714,0,25.1,0,0.755,0,0,0,0, ,0,0,0,0,0, ,1191,275.2,271.8,-23.6,-1.6,12.2,25,1029.8,205.58,231.634,-3.05341,5.50079,-6.5465,
2026_07_07_10_52_10.744,0,25.2,0,0.757,0,0,0,0, ,0,0,0,0,0, ,1185.9,279.6,278.8,-26.8,1,15.2,25,1039.47,209.956,234.295,-4.40297,5.1473,-5.31272,
2026_07_07_10_52_10.753,0,25.1,0,0.756,0,0,0,0, ,0,0,0,0,0, ,1170.4,287.8,293.8,-34.4,15,15.8,25,1047.92,214.45,237.464,-5.99935,5.32114,-4.04445,
2026_07_07_10_52_10.783,0,25.1,0,0.755,0,0,0,0, ,0,0,0,0,0, ,1133.6,268.4,319.4,-41.6,29.8,12.8,25,1054.27,218.329,241.677,-7.94939,6.36188,-2.92658,
2026_07_07_10_52_10.793,0,25.1,0,0.755,0,0,0,0, ,0,0,0,0,0, ,1119.9,235.3,158.4,-34.7,15.8,15.8,25,1058.68,220.372,241.508,-9.78974,7.36358,-1.87684,
2026_07_07_10_52_10.823,0,25.1,0,0.757,0,0,0,0, ,0,0,0,0,0, ,1086.4,194,247.6,-13.4,6.9,25,25,1061.39,220.023,239.161,-10.6587,7.6065,-0.519345,
2026_07_07_10_52_10.833,0,25.1,0,0.756,0,0,0,0, ,0,0,0,0,0, ,1043,207.6,288.3,-6.1,3.2,23.9,25,1061.59,218.852,240.916,-10.6033,7.45072,1.00222,
2026_07_07_10_52_10.863,0,25.1,0,0.756,0,0,0,0, ,0,0,0,0,0, ,1067.2,221.1,337.4,-7.9,7.5,23,25,1061.2,218.577,245.299,-10.3838,7.3227,2.37014,
2026_07_07_10_52_10.874,0,25.1,0,0.755,0,0,0,0, ,0,0,0,0,0, ,1060.6,185.5,351.4,-14.6,18.3,23.8,25,1061.36,217.646,251.338,-10.4366,7.66257,3.65164,
2026_07_07_10_52_10.905,0,25.1,0,0.755,0,0,0,0, ,0,0,0,0,0, ,1000.9,155.7,320.5,-18.2,13.9,29.1,25,1059.5,214.779,256.494,-10.8,8.17673,5.04092,
2026_07_07_10_52_10.912,0,25.1,0,0.755,0,0,0,0, ,0,0,0,0,0, ,956.9,140.7,257.5,-9.7,-1.2,31.1,25,1054.59,210.722,258.475,-10.9919,8.06541,6.56796,
2026_07_07_10_52_10.942,0,25.1,0,0.755,0,0,0,0, ,0,0,0,0,0, ,957,141.9,284.3,-2.4,-8.9,32.9,25,1048.64,206.492,259.232,-10.6908,7.26619,8.11772,
2026_07_07_10_52_10.952,0,25.1,0,0.757,0,0,0,0, ,0,0,0,0,0, ,954.7,116.2,337.4,-9.4,-8.7,33.9,25,1042.98,201.773,262.378,-10.3988,6.28716,9.65836,
2026_07_07_10_52_10.984,0,25.1,0,0.756,0,0,0,0, ,0,0,0,0,0, ,932.1,91.4,326.2,-17.9,-6.5,39,25,1036.91,195.802,266.608,-10.5969,5.44091,11.291,
2026_07_07_10_52_10.991,0,25.2,0,0.756,0,0,0,0, ,0,0,0,0,0, ,892.7,59.6,276.9,-11,-8.7,36.6,25,1029.33,188.472,268.737,-10.8317,4.64623,12.9064,
2026_07_07_10_52_11.021,0,25.2,0,0.755,0,0,0,0, ,0,0,0,0,0, ,851,38.9,246.4,-1.4,-7.2,28.5,25,1019.73,179.988,268.305,-10.5495,3.87864,14.1034,
2026_07_07_10_52_11.031,0,25.2,0,0.755,0,0,0,0, ,0,0,0,0,0, ,833.7,18.7,223.7,2.5,2.1,22.4,25,1008.92,170.775,266.279,-9.87312,3.4869,14.7948,
2026_07_07_10_52_11.061,0,25.1,0,0.756,0,0,0,0, ,0,0,0,0,0, ,855.9,-13.9,230.9,2,2.8,18.1,25,998.92,160.514,263.904,-9.13436,3.42371,15.1273,
2026_07_07_10_52_11.070,0,25.2,0,0.755,0,0,0,0, ,0,0,0,0,0, ,897.9,-22.9,204.1,3.3,-12.2,21.3,25,991.484,149.612,261.076,-8.41625,2.92867,15.4059,
2026_07_07_10_52_11.100,0,25.1,0,0.755,0,0,0,0, ,0,0,0,0,0, ,877.3,-26,198.9,9.9,-24.7,22.5,25,985.154,139.005,257.445,-7.5012,1.62591,15.8016,
2026_07_07_10_52_11.110,0,25.1,0,0.757,0,0,0,0, ,0,0,0,0,0, ,834.7,-35.7,208.3,15,-20.3,18.4,25,977.283,128.654,254.164,-6.28542,0.155739,16.0849,
2026_07_07_10_52_11.141,0,25.3,0,0.755,0,0,0,0, ,0,0,0,0,0, ,837.8,-48.5,248,15,-11.9,10.9,25,968.689,118.249,252.579,-4.98834,-0.834845,15.9975,
2026_07_07_10_52_11.150,0,25.2,0,0.755,0,0,0,0, ,0,0,0,0,0, ,862.4,-53.2,256.2,13.1,-18.9,8.4,25,961.463,107.945,252.55,-3.8282,-1.72241,15.6107,
2026_07_07_10_52_11.181,0,25.2,0,0.755,0,0,0,0, ,0,0,0,0,0, ,924.4,-40.1,232.1,2.6,-38.8,11.5,25,957.315,98.524,252.038,-3.11656,-3.3755,15.2657,
2026_07_07_10_52_11.190,0,25.1,0,0.755,0,0,0,0, ,0,0,0,0,0, ,933.8,-12.9,188.8,-3.2,-47.6,15.9,25,955.596,90.9053,249.504,-2.94492,-5.8023,15.1703,
2026_07_07_10_52_11.220,0,25.2,0,0.756,0,0,0,0, ,0,0,0,0,0, ,884.6,-35.8,221.4,2.3,-32.2,11,25,952.768,83.8819,246.798,-2.79289,-7.88013,15.0655,
2026_07_07_10_52_11.229,0,25.2,0,0.755,0,0,0,0, ,0,0,0,0,0, ,853,-42.6,234.4,-3.8,-2,3.7,25,947.652,76.3816,245.646,-2.6684,-8.44197,14.5953,
2026_07_07_10_52_11.259,0,25.2,0,0.753,0,0,0,0, ,0,0,0,0,0, ,813.9,-48.5,206.7,-9.4,15.5,-4.3,25,940.692,68.9514,244.117,-2.90798,-7.51621,13.6876,
2026_07_07_10_52_11.268,0,25.1,0,0.756,0,0,0,0, ,0,0,0,0,0, ,895.5,-47.8,197.8,-24.8,3.9,-8.2,25,935.452,61.8156,241.566,-3.77281,-6.46709,12.4727,
2026_07_07_10_52_11.300,0,25.1,0,0.756,0,0,0,0, ,0,0,0,0,0, ,1042.8,-73.8,202.5,-24.8,-7,4.3,25,937.506,54.3437,239.042,-5.05415,-6.16746,11.5938,
2026_07_07_10_52_11.309,0,25.1,0,0.755,0,0,0,0, ,0,0,0,0,0, ,984.1,-26,193.6,12.1,10.3,3.6,25,942.134,47.9913,236.544,-5.13312,-5.69108,11.128,
2026_07_07_10_52_11.346,0,25.3,0,0.755,0,0,0,0, ,0,0,0,0,0, ,846.4,-25.5,198.7,13.3,20.3,4.1,25,940.495,43.4977,234.082,-4.04641,-4.41194,10.6845,
2026_07_07_10_52_11.352,0,25.2,0,0.755,0,0,0,0, ,0,0,0,0,0, ,850.5,-55.4,208.8,21.9,10.3,-7.5,25,934.886,38.3821,232.234,-2.72733,-3.21074,9.92982,
2026_07_07_10_52_11.384,0,25.1,0,0.757,0,0,0,0, ,0,0,0,0,0, ,976.6,-35.5,220.2,16.7,-13.3,-4.2,25,933.586,33.2736,231.153,-1.38504,-3.10649,8.96824,
2026_07_07_10_52_11.389,0,25.2,0,0.756,0,0,0,0, ,0,0,0,0,0, ,1009.6,-13.6,188.8,11.8,-10,0,25,937.213,29.75,229.529,-0.432282,-3.62711,8.29377,
2026_07_07_10_52_11.419,0,25.1,0,0.756,0,0,0,0, ,0,0,0,0,0, ,999.7,-14.5,144.5,11.4,-4.9,-1.7,25,941.322,27.0809,225.698,0.300935,-3.86007,7.73657,
2026_07_07_10_52_11.428,0,25.2,0,0.755,0,0,0,0, ,0,0,0,0,0, ,1041.1,-38.3,192.3,14.7,-7.7,-3.3,25,946.141,23.8219,222.206,1.07783,-4.00875,7.11278,
2026_07_07_10_52_11.461,0,25.1,0,0.756,0,0,0,0, ,0,0,0,0,0, ,1057.6,-27.9,207.6,12,-13.6,-0.7,25,952.43,20.3533,220.85,1.82567,-4.41345,6.55747,
2026_07_07_10_52_11.467,0,25.1,0,0.756,0,0,0,0, ,0,0,0,0,0, ,1045.1,-16.6,206.6,11.4,-14.6,-0.5,25,958.458,17.7571,220.012,2.42738,-5.00373,6.12131,
2026_07_07_10_52_11.497,0,25.2,0,0.757,0,0,0,0, ,0,0,0,0,0, ,1018.3,-0.8,180.1,9.3,-15.2,-3.9,25,962.921,16.1449,218.387,2.91017,-5.60678,5.61423,
2026_07_07_10_52_11.507,0,25.1,0,0.755,0,0,0,0, ,0,0,0,0,0, ,1070.6,-7.4,162.5,18,-25.3,-4.7,25,967.89,14.9112,215.518,3.56463,-6.4991,5.01008,
2026_07_07_10_52_11.538,0,25.2,0,0.756,0,0,0,0, ,0,0,0,0,0, ,1015.7,47.6,183.7,20.7,-35.7,-5,25,972.476,15.2274,212.933,4.52655,-7.96166,4.40923,
2026_07_07_10_52_11.546,0,25.1,0,0.756,0,0,0,0, ,0,0,0,0,0, ,949.7,61.2,218.1,16.4,-22,-21.7,25,973.099,17.6145,212.2,5.3811,-9.23454,3.32703,
2026_07_07_10_52_11.577,0,25.1,0,0.756,0,0,0,0, ,0,0,0,0,0, ,943.8,31.9,184.8,15.2,-6.8,-29.5,25,971.493,19.3778,211.545,6.016,-9.54931,1.56429,
2026_07_07_10_52_11.586,0,25.2,0,0.753,0,0,0,0, ,0,0,0,0,0, ,1014,40.8,167.8,20,-8.1,-25.3,25,971.945,20.412,209.397,6.7219,-9.42138,-0.200721,
2026_07_07_10_52_11.617,0,25.1,0,0.753,0,0,0,0, ,0,0,0,0,0, ,1049.5,77.8,161.6,24.2,-17.2,-8.9,25,975.589,22.7817,206.673,7.65901,-9.61813,-1.23052,
2026_07_07_10_52_11.625,0,25.2,0,0.758,0,0,0,0, ,0,0,0,0,0, ,976.8,89.7,191.6,26.2,-14.2,-5.7,25,977.878,26.497,204.841,8.72791,-9.98874,-1.60038,
2026_07_07_10_52_11.656,0,25.1,0,0.756,0,0,0,0, ,0,0,0,0,0, ,891.4,100.5,206,25.4,-9.4,-13.1,25,975.21,30.6775,204.473,9.76824,-10.0991,-2.07567,
2026_07_07_10_52_11.665,0,25.2,0,0.756,0,0,0,0, ,0,0,0,0,0, ,952.1,72.3,253.5,18.7,-5,-19.1,25,971.952,34.0731,206.013,10.5167,-9.92245,-2.93028,
2026_07_07_10_52_11.696,0,25.2,0,0.756,0,0,0,0, ,0,0,0,0,0, ,1034.5,71.6,190.9,6.7,-6.4,-6.4,25,973.253,36.3812,206.999,10.6497,-9.66515,-3.52867,
2026_07_07_10_52_11.704,0,25.3,0,0.755,0,0,0,0, ,0,0,0,0,0, ,982,84.2,160.2,6.5,-1.6,6.5,25,975.386,38.9113,205.083,10.4029,-9.31993,-3.31059,
2026_07_07_10_52_11.735,0,25.2,0,0.756,0,0,0,0, ,0,0,0,0,0, ,846.9,82.5,171,7.9,12,-4.5,25,971.673,41.6192,202.677,10.2077,-8.43512,-3.04791,
2026_07_07_10_52_11.744,0,25.2,0,0.757,0,0,0,0, ,0,0,0,0,0, ,934.4,-3.7,175.1,6.8,9.7,-12.7,25,966.735,41.484,200.871,10.0336,-7.25993,-3.38624,
2026_07_07_10_52_11.775,0,25.2,0,0.755,0,0,0,0, ,0,0,0,0,0, ,1033.5,24.1,118.5,-2.5,2.7,-2.6,25,967.784,39.5776,197.576,9.5532,-6.43972,-3.64607,
2026_07_07_10_52_11.784,0,25.3,0,0.756,0,0,0,0, ,0,0,0,0,0, ,964.8,32.4,93.5,-4.5,3.9,0.6,25,969.696,38.8874,191.996,8.75777,-5.8462,-3.48482,
2026_07_07_10_52_11.815,0,25.3,0,0.756,0,0,0,0, ,0,0,0,0,0, ,898.5,61.1,72.5,5.2,-7.2,-8.4,25,967.377,39.3665,185.354,8.24542,-5.5905,-3.51012,
2026_07_07_10_52_11.824,0,25.2,0,0.757,0,0,0,0, ,0,0,0,0,0, ,954.2,19,121.7,10.1,-10.5,-14.9,25,964.877,39.4081,179.976,8.20914,-5.78912,-4.00615,
2026_07_07_10_52_11.855,0,25.2,0,0.755,0,0,0,0, ,0,0,0,0,0, ,1003.5,22.9,119.1,4.1,-14.1,-6.4,25,965.729,38.2833,176.346,8.14155,-6.18588,-4.41101,
2026_07_07_10_52_11.863,0,25.2,0,0.756,0,0,0,0, ,0,0,0,0,0, ,989.9,24,125.8,3.3,-12.9,4.3,25,967.616,37.3794,173.061,7.87089,-6.63158,-4.20619,
2026_07_07_10_52_11.894,0,25.3,0,0.757,0,0,0,0, ,0,0,0,0,0, ,975.3,43.4,194.3,1.7,-5.4,3.8,25,968.529,37.1552,172.269,7.5436,-6.78505,-3.70308,
2026_07_07_10_52_11.902,0,25.2,0,0.756,0,0,0,0, ,0,0,0,0,0, ,933.7,40.5,181.6,-8.9,-1.6,-3.2,25,967.674,37.4474,173.224,6.86454,-6.58487,-3.45914,
2026_07_07_10_52_11.934,0,25.2,0,0.755,0,0,0,0, ,0,0,0,0,0, ,914.6,64.8,118.1,-10.2,7.7,-15.3,25,965.022,38.3738,171.8,5.86428,-5.99774,-3.81203,
2026_07_07_10_52_11.942,0,25.3,0,0.756,0,0,0,0, ,0,0,0,0,0, ,968.2,-6.4,205.9,8,5.2,-16.9,25,963.582,37.8148,171.203,5.43989,-5.23921,-4.56082,
2026_07_07_10_52_11.975,0,25.2,0,0.755,0,0,0,0, ,0,0,0,0,0, ,984,-32.5,300.4,1,-6.7,-3.4,25,964.345,34.3252,176.196,5.38262,-4.96565,-4.90141,
2026_07_07_10_52_11.982,0,25.3,0,0.756,0,0,0,0, ,0,0,0,0,0, ,1001.5,-29.2,270.8,-4.8,-1.5,18.3,25,966.076,30.3536,182.863,4.93883,-4.9129,-4.14875,
2026_07_07_10_52_12.014,0,25.2,0,0.756,0,0,0,0, ,0,0,0,0,0, ,909.4,35.1,222.2,-15.2,-8.8,21,25,965.429,28.6837,186.741,4.0285,-4.92734,-2.69851,
2026_07_07_10_52_12.026,0,25.2,0,0.756,0,0,0,0, ,0,0,0,0,0, ,835.8,48.4,137.4,-21.6,-24.7,0.5,25,959.772,29.4799,186.318,2.66176,-5.64779,-1.87899,
2026_07_07_10_52_12.057,0,25.3,0,0.755,0,0,0,0, ,0,0,0,0,0, ,850.5,21.2,120.2,-7.1,-15,-11,25,952.665,29.8041,182.813,1.62511,-6.51324,-2.08442,
2026_07_07_10_52_12.063,0,25.2,0,0.755,0,0,0,0, ,0,0,0,0,0, ,900.2,-16.7,203,-4.3,-4.2,-6.8,25,947.954,28.125,181.52,1.17873,-6.70133,-2.49974,
2026_07_07_10_52_12.095,0,25.2,0,0.758,0,0,0,0, ,0,0,0,0,0, ,965.2,-15.2,172.8,-14,0,2.2,25,947.024,25.4392,181.909,0.549328,-6.42094,-2.48757,
2026_07_07_10_52_12.100,0,25.2,0,0.757,0,0,0,0, ,0,0,0,0,0, ,996.4,23.1,67.6,-9,-5.4,17.7,25,949.082,24.1297,178.149,-0.184928,-6.1942,-1.72965,
2026_07_07_10_52_12.132,0,25.2,0,0.755,0,0,0,0, ,0,0,0,0,0, ,965.3,63.7,22.4,-4.8,-29.9,17.7,25,951.018,25.304,170.035,-0.594128,-6.89228,-0.54566,
2026_07_07_10_52_12.140,0,25.1,0,0.756,0,0,0,0, ,0,0,0,0,0, ,885.1,85.9,50.9,6.5,-31.2,15.4,25,949.445,28.3202,161.907,-0.506126,-8.33393,0.496107,
2026_07_07_10_52_12.173,0,25.2,0,0.756,0,0,0,0, ,0,0,0,0,0, ,874.6,-12.8,151.7,9.2,-13.2,6.3,25,945.204,28.8217,158.214,0.003075,-9.17889,1.12705,
2026_07_07_10_52_12.180,0,25.2,0,0.756,0,0,0,0, ,0,0,0,0,0, ,886.1,-30.1,174.3,3,-5.3,8.1,25,941.252,25.7582,158.505,0.374606,-9.18322,1.49712,
2026_07_07_10_52_12.212,0,25.2,0,0.755,0,0,0,0, ,0,0,0,0,0, ,920.6,-66.8,179.4,-7.4,-1.4,13.6,25,938.942,21.2362,159.623,0.217716,-8.82776,2.06706,
2026_07_07_10_52_12.220,0,25.2,0,0.756,0,0,0,0, ,0,0,0,0,0, ,880.1,-7,71,-20.9,-12.5,16,25,936.591,17.6935,157.525,-0.657816,-8.71334,2.84297,
2026_07_07_10_52_12.252,0,25.2,0,0.755,0,0,0,0, ,0,0,0,0,0, ,871,8.1,49.5,-16.7,-15.2,5.6,25,932.871,16.6488,151.598,-1.76336,-9.02635,3.32785,
2026_07_07_10_52_12.259,0,25.2,0,0.755,0,0,0,0, ,0,0,0,0,0, ,904,18.7,12.5,-9.8,-9.7,-0.7,25,930.106,16.4508,144.249,-2.46332,-9.23498,3.27436,
2026_07_07_10_52_12.290,0,25.2,0,0.756,0,0,0,0, ,0,0,0,0,0, ,897.3,-5.4,23.4,-10.3,1.9,-1.4,25,928.311,15.8536,136.552,-2.92564,-8.90988,3.01084,
2026_07_07_10_52_12.298,0,25.2,0,0.757,0,0,0,0, ,0,0,0,0,0, ,945.4,-19.4,-21.1,-6.7,0.1,-0.7,25,927.887,14.1319,128.301,-3.26532,-8.306,2.76339,
2026_07_07_10_52_12.330,0,25.2,0,0.756,0,0,0,0, ,0,0,0,0,0, ,963.9,6.2,-21.3,-1.8,-8.2,2.4,25,929.518,12.8685,119.191,-3.32533,-8.04665,2.64679,
2026_07_07_10_52_12.338,0,25.2,0,0.756,0,0,0,0, ,0,0,0,0,0, ,940.1,30,-13.1,4.5,-11.2,-2.7,25,930.888,13.1873,110.88,-3.04042,-8.1474,2.47636,
2026_07_07_10_52_12.375,0,25.1,0,0.756,0,0,0,0, ,0,0,0,0,0, ,926.6,9.1,41.8,13.8,-7.2,-5.4,25,931.038,13.5751,104.998,-2.29757,-8.21154,2.07866,
2026_07_07_10_52_12.385,0,25.3,0,0.756,0,0,0,0, ,0,0,0,0,0, ,964.3,0.3,90.2,10.4,0.1,0.6,25,931.916,13.0342,102.621,-1.42022,-7.92748,1.80574,
2026_07_07_10_52_12.416,0,25.3,0,0.757,0,0,0,0, ,0,0,0,0,0, ,968.9,-5.4,74,2,4.2,5,25,934.03,12.0846,101.371,-0.955862,-7.31338,1.86633,
2026_07_07_10_52_12.422,0,25,0,0.756,0,0,0,0, ,0,0,0,0,0, ,959.5,5.7,69.8,2.8,-2.1,0.7,25,935.868,11.3573,99.5747,-0.751364,-6.80374,1.92627,
2026_07_07_10_52_12.455,0,25.2,0,0.756,0,0,0,0, ,0,0,0,0,0, ,957.7,1.9,109.3,1,-8.7,-2.1,25,937.253,10.8968,98.9639,-0.589797,-6.7182,1.76623,
2026_07_07_10_52_12.460,0,25.2,0,0.757,0,0,0,0, ,0,0,0,0,0, ,938.7,-32.8,81.1,-1.2,-2.1,-1.8,25,937.92,9.29128,98.7345,-0.55995,-6.63787,1.53978,
2026_07_07_10_52_12.493,0,25.2,0,0.756,0,0,0,0, ,0,0,0,0,0, ,967.5,-43,42.3,1.1,3.9,-4.7,25,938.845,6.41556,96.4777,-0.528875,-6.17853,1.2479,
2026_07_07_10_52_12.499,0,25.2,0,0.755,0,0,0,0, ,0,0,0,0,0, ,1018.5,8.4,24,7,0.5,-4,25,942.146,4.9704,92.6187,-0.249849,-5.66796,0.906777,
2026_07_07_10_52_12.532,0,25.3,0,0.756,0,0,0,0, ,0,0,0,0,0, ,1014.7,6.8,74.2,9.9,-4.8,3.8,25,946.683,5.13064,89.9668,0.280298,-5.45359,0.845426,
2026_07_07_10_52_12.537,0,25.3,0,0.756,0,0,0,0, ,0,0,0,0,0, ,905.2,-2.8,119.6,1.1,-8.4,-1,25,947.491,4.93986,90.3893,0.598373,-5.52345,0.87922,
