UTC_Time,Vin,TC1,TC2,Rh1,Vh1,Ah1,Acp1,Dty1,Err1,Rh2,Vh2,Ah2,Acp2,Dty2,Err2,Accel_x,Accel_y,Accel_z,gyro_x,gyro_y,gyro_z,Temp_c,Accel_x_h,Accel_y_h,Accel_z_h,gyro_x_h,gyro_y_h,gyro_z_h,
2026_07_06_20_58_16.476,3.868,272.8,0,0.758,3.812,5.029,18.21,0.95, ,0,0,0,0,0, ,-39.5,332.3,943.9,0,-0.5,-1.6,25,-39.5,332.3,943.9,0,-0.5,-1.6,
2026_07_06_20_58_16.495,3.868,28.8,0,0.76,0,0,0,0, ,0,0,0,0,0, ,-39.4,331.6,944.3,-0.1,-0.5,-1.6,25,-39.497,332.279,943.912,-0.00304687,-0.5,-1.6,
2026_07_06_20_58_16.515,3.868,29.1,0,0.761,0,0,0,0, ,0,0,0,0,0, ,-39.7,331.5,944.5,-0.4,-0.5,-1.6,25,-39.5002,332.234,943.942,-0.0180956,-0.5,-1.6,
2026_07_06_20_58_16.535,3.868,28.9,0,0.759,0,0,0,0.007, ,0,0,0,0,0, ,-40.2,333.7,946.2,-0.5,-0.5,-1.6,25,-39.5276,332.257,944.028,-0.0444148,-0.5,-1.6,
2026_07_06_20_58_16.555,3.868,29.2,0,0.759,0,0,0,0.009, ,0,0,0,0,0, ,-40.4,333,943.9,-0.4,-0.5,-1.6,25,-39.5747,332.323,944.09,-0.0691301,-0.5,-1.6,
2026_07_06_20_58_16.575,3.868,29.2,0,0.759,0,0,0,0.006, ,0,0,0,0,0, ,-39,333.7,943.9,-0.2,-0.5,-1.6,25,-39.5823,332.386,944.078,-0.0831987,-0.5,-1.6,
2026_07_06_20_58_16.595,3.868,29.3,0,0.759,0,0,0,0.006, ,0,0,0,0,0, ,-40.1,332.7,943.2,-0.1,-0.5,-1.6,25,-39.5803,332.435,944.046,-0.0872694,-0.5,-1.6,
2026_07_06_20_58_16.614,3.868,29.3,0,0.759,0,0,0,0.006, ,0,0,0,0,0, ,-38.5,332.1,945.1,-0.4,-0.5,-1.5,25,-39.5633,332.433,944.053,-0.0971858,-0.5,-1.59695,
2026_07_06_20_58_16.634,3.868,29.3,0,0.756,0,0,0,0.006, ,0,0,0,0,0, ,-38.6,333.4,944.7,-0.4,-0.5,-1.6,25,-39.5015,332.453,944.104,-0.115639,-0.5,-1.59409,
2026_07_06_20_58_16.654,3.868,29.3,0,0.758,0,0,0,0.006, ,0,0,0,0,0, ,-39.9,334.3,943.7,-0.3,-0.5,-1.6,25,-39.4862,332.538,944.11,-0.12992,-0.5,-1.59445,
2026_07_06_20_58_16.673,3.868,29.3,0,0.76,0,0,0,0.006, ,0,0,0,0,0, ,-39.5,333.4,944.5,0,-0.5,-1.5,25,-39.4992,332.618,944.109,-0.131144,-0.5,-1.59174,
2026_07_06_20_58_16.693,3.868,29.3,0,0.761,0,0,0,0.006, ,0,0,0,0,0, ,-39.6,331.4,944.4,0,-0.5,-1.6,25,-39.5023,332.604,944.13,-0.123152,-0.5,-1.5892,
2026_07_06_20_58_16.713,3.868,29.3,0,0.761,0,0,0,0.006, ,0,0,0,0,0, ,-39.5,332,942.8,-0.1,-0.5,-1.6,25,-39.5052,332.549,944.098,-0.118694,-0.5,-1.58986,
2026_07_06_20_58_16.732,3.868,29.4,0,0.759,0,0,0,0.006, ,0,0,0,0,0, ,-39.5,330.5,944.5,-0.3,-0.5,-1.5,25,-39.5049,332.47,944.071,-0.123649,-0.5,-1.58743,
2026_07_06_20_58_16.753,3.868,29.3,0,0.759,0,0,0,0.005, ,0,0,0,0,0, ,-39.6,331.4,945,-0.4,-0.5,-1.6,25,-39.5076,332.377,944.112,-0.137442,-0.5,-1.58515,
2026_07_06_20_58_16.773,3.868,29.4,0,0.76,0,0,0,0.006, ,0,0,0,0,0, ,-40.2,333.6,943.9,-0.4,-0.5,-1.6,25,-39.5316,332.385,944.133,-0.153442,-0.5,-1.58605,
2026_07_06_20_58_16.793,3.868,29.4,0,0.76,0,0,0,0.005, ,0,0,0,0,0, ,-40,333.3,943.8,-0.2,-0.5,-1.6,25,-39.5662,332.45,944.115,-0.162373,-0.5,-1.5869,
2026_07_06_20_58_16.812,3.868,29.4,0,0.759,0,0,0,0.005, ,0,0,0,0,0, ,-40.1,332.7,943.4,-0.1,-0.5,-1.6,25,-39.5957,332.483,944.084,-0.161619,-0.5,-1.5877,
2026_07_06_20_58_16.832,3.868,29.5,0,0.759,0,0,0,0.005, ,0,0,0,0,0, ,-39.9,332,944.2,0,-0.5,-1.5,25,-39.6203,332.475,944.067,-0.154817,-0.5,-1.5854,
2026_07_06_20_58_16.852,3.868,29.4,0,0.759,0,0,0,0.005, ,0,0,0,0,0, ,-39.6,330.4,943.3,0,-0.5,-1.6,25,-39.6282,332.398,944.047,-0.145383,-0.5,-1.58325,
2026_07_06_20_58_16.871,3.868,29.5,0,0.76,0,0,0,0.006, ,0,0,0,0,0, ,-38.4,331.5,943.9,-0.1,-0.5,-1.6,25,-39.5899,332.309,944.02,-0.13957,-0.5,-1.58427,
2026_07_06_20_58_16.891,3.868,29.5,0,0.759,0,0,0,0.005, ,0,0,0,0,0, ,-40.8,330.4,943.9,-0.3,-0.5,-1.5,25,-39.5905,332.226,944.013,-0.143253,-0.5,-1.58218,
2026_07_06_20_58_16.911,3.868,29.5,0,0.759,0,0,0,0.005, ,0,0,0,0,0, ,-41,332.1,943.6,-0.5,-0.5,-1.6,25,-39.6703,332.167,943.997,-0.158898,-0.5,-1.58022,
2026_07_06_20_58_16.931,3.868,29.5,0,0.759,0,0,0,0.005, ,0,0,0,0,0, ,-39.3,333.9,945.5,-0.3,-0.5,-1.6,25,-39.6996,332.218,944.03,-0.17359,-0.5,-1.58142,
2026_07_06_20_58_16.951,3.868,29.4,0,0.759,0,0,0,0.005, ,0,0,0,0,0, ,-39.1,333.7,944.9,-0.3,-0.5,-1.6,25,-39.6691,332.314,944.102,-0.181294,-0.5,-1.58256,
2026_07_06_20_58_16.970,3.868,29.5,0,0.758,0,0,0,0.006, ,0,0,0,0,0, ,-40,333.4,944.3,0,-0.5,-1.5,25,-39.6619,332.389,944.132,-0.179387,-0.5,-1.58057,
2026_07_06_20_58_16.990,3.868,29.5,0,0.758,0,0,0,0.005, ,0,0,0,0,0, ,-40.4,331.9,943.8,0,-0.5,-1.6,25,-39.6947,332.405,944.127,-0.168455,-0.5,-1.57871,
2026_07_06_20_58_17.010,3.868,29.5,0,0.758,0,0,0,0.005, ,0,0,0,0,0, ,-39,332.1,945.9,-0.1,-0.5,-1.6,25,-39.695,332.381,944.171,-0.161237,-0.5,-1.58001,
2026_07_06_20_58_17.030,3.868,29.5,0,0.76,0,0,0,0.005, ,0,0,0,0,0, ,-39.3,331.9,943.9,-0.3,-0.6,-1.6,25,-39.6618,332.357,944.216,-0.163599,-0.503047,-1.58122,
2026_07_06_20_58_17.050,3.868,29.5,0,0.76,0,0,0,0.005, ,0,0,0,0,0, ,-39,333,943.6,-0.4,-0.5,-1.6,25,-39.6306,332.363,944.187,-0.174958,-0.505908,-1.58237,
2026_07_06_20_58_17.069,3.868,29.5,0,0.759,0,0,0,0.005, ,0,0,0,0,0, ,-39.3,334.3,945.4,-0.5,-0.5,-1.6,25,-39.6013,332.442,944.206,-0.191718,-0.505548,-1.58344,
2026_07_06_20_58_17.090,3.868,29.5,0,0.759,0,0,0,0.005, ,0,0,0,0,0, ,-39.6,333.9,943.7,-0.2,-0.5,-1.5,25,-39.5921,332.543,944.227,-0.201363,-0.50521,-1.58141,
2026_07_06_20_58_17.110,3.868,29.6,0,0.759,0,0,0,0.005, ,0,0,0,0,0, ,-40.7,333.9,943.6,0,-0.5,-1.6,25,-39.6261,332.625,944.192,-0.195187,-0.504892,-1.57949,
2026_07_06_20_58_17.130,3.868,29.5,0,0.759,0,0,0,0.005, ,0,0,0,0,0, ,-40.1,332.6,943.9,0,-0.5,-1.5,25,-39.6732,332.663,944.165,-0.183292,-0.504594,-1.57769,
2026_07_06_20_58_17.149,3.868,29.6,0,0.76,0,0,0,0.005, ,0,0,0,0,0, ,-40.1,331.7,944,-0.1,-0.5,-1.6,25,-39.6992,332.632,944.152,-0.17517,-0.504314,-1.57601,
2026_07_06_20_58_17.168,3.868,29.6,0,0.76,0,0,0,0.005, ,0,0,0,0,0, ,-39.4,330.8,944.3,-0.3,-0.6,-1.6,25,-39.7023,332.548,944.152,-0.176683,-0.507098,-1.57747,
2026_07_06_20_58_17.188,3.868,29.6,0,0.759,0,0,0,0.005, ,0,0,0,0,0, ,-39.1,331,945.8,-0.4,-0.5,-1.6,25,-39.6748,332.447,944.207,-0.187245,-0.509713,-1.57884,
2026_07_06_20_58_17.208,3.868,29.5,0,0.758,0,0,0,0.005, ,0,0,0,0,0, ,-38.6,332.2,943.6,-0.4,-0.6,-1.6,25,-39.6245,332.396,944.237,-0.200209,-0.512168,-1.58013,
2026_07_06_20_58_17.228,3.868,29.5,0,0.759,0,0,0,0.006, ,0,0,0,0,0, ,-39,334.3,944.5,-0.3,-0.6,-1.6,25,-39.5743,332.448,944.225,-0.209337,-0.51752,-1.58134,
2026_07_06_20_58_17.247,3.868,29.6,0,0.759,0,0,0,0.006, ,0,0,0,0,0, ,-40.7,333.2,944.8,-0.2,-0.5,-1.6,25,-39.5911,332.527,944.251,-0.211815,-0.519499,-1.58248,
2026_07_06_20_58_17.268,3.868,29.6,0,0.759,0,0,0,0.005, ,0,0,0,0,0, ,-38.6,333.6,942.5,0,-0.5,-1.6,25,-39.5947,332.58,944.215,-0.205001,-0.518311,-1.58355,
2026_07_06_20_58_17.288,3.868,29.6,0,0.759,0,0,0,0.005, ,0,0,0,0,0, ,-39.1,332,942.8,0,-0.5,-1.5,25,-39.5493,332.594,944.119,-0.192509,-0.517195,-1.5815,
2026_07_06_20_58_17.307,3.868,29.6,0,0.76,0,0,0,0.005, ,0,0,0,0,0, ,-40.1,330.4,944,-0.1,-0.5,-1.6,25,-39.5524,332.509,944.075,-0.183825,-0.516147,-1.57958,
2026_07_06_20_58_17.327,3.868,29.6,0,0.758,0,0,0,0.005, ,0,0,0,0,0, ,-38.8,333,942.7,-0.1,-0.5,-1.5,25,-39.5461,332.46,944.031,-0.178717,-0.515163,-1.57778,
2026_07_06_20_58_17.347,3.868,29.7,0,0.759,0,0,0,0.005, ,0,0,0,0,0, ,-39.5,334.1,943.4,0,-0.6,-1.5,25,-39.522,332.526,943.971,-0.170873,-0.517286,-1.57304,
2026_07_06_20_58_17.371,3.868,29.7,0,0.758,0,0,0,0.004, ,0,0,0,0,0, ,-39.5,333.2,943.2,0,-0.5,-1.5,25,-39.5207,332.594,943.93,-0.160461,-0.51928,-1.56859,
2026_07_06_20_58_17.386,3.868,29.7,0,0.76,0,0,0,0.004, ,0,0,0,0,0, ,-39.5,331.1,944.4,-0.1,-0.5,-1.6,25,-39.5194,332.567,943.923,-0.153729,-0.518105,-1.56746,
2026_07_06_20_58_17.406,3.868,29.6,0,0.759,0,0,0,0.004, ,0,0,0,0,0, ,-39.6,331.5,945,-0.3,-0.5,-1.7,25,-39.5213,332.49,943.97,-0.156549,-0.517002,-1.57249,
2026_07_06_20_58_17.426,3.868,29.7,0,0.76,0,0,0,0.005, ,0,0,0,0,0, ,-39.5,333.2,944.4,-0.3,-0.5,-1.6,25,-39.523,332.482,944.014,-0.165291,-0.515966,-1.57721,
2026_07_06_20_58_17.446,3.868,29.7,0,0.759,0,0,0,0.004, ,0,0,0,0,0, ,-39,334.3,944.3,-0.4,-0.5,-1.6,25,-39.5064,332.559,944.035,-0.176546,-0.514993,-1.5786,
2026_07_06_20_58_17.466,3.868,29.7,0,0.759,0,0,0,0.004, ,0,0,0,0,0, ,-39.4,335.4,942.7,-0.2,-0.5,-1.5,25,-39.4877,332.699,944.002,-0.184069,-0.514079,-1.57686,
2026_07_06_20_58_17.485,3.868,29.7,0,0.758,0,0,0,0.005, ,0,0,0,0,0, ,-39.7,333.2,943.4,-0.1,-0.5,-1.6,25,-39.4915,332.796,943.944,-0.181993,-0.513221,-1.57522,
2026_07_06_20_58_17.505,3.868,29.7,0,0.76,0,0,0,0.005, ,0,0,0,0,0, ,-39.5,331.5,944.3,0,-0.5,-1.6,25,-39.4981,332.769,943.938,-0.17395,-0.512415,-1.57673,
2026_07_06_20_58_17.525,3.868,29.8,0,0.759,0,0,0,0.005, ,0,0,0,0,0, ,-39.3,332.5,943.7,0,-0.6,-1.5,25,-39.4921,332.722,943.942,-0.16335,-0.514706,-1.5751,
2026_07_06_20_58_17.545,3.868,29.7,0,0.759,0,0,0,0.004, ,0,0,0,0,0, ,-40.4,331.2,944,-0.2,-0.5,-1.6,25,-39.5139,332.669,943.937,-0.159489,-0.516856,-1.57357,
2026_07_06_20_58_17.565,3.868,29.7,0,0.758,0,0,0,0.005, ,0,0,0,0,0, ,-39.5,332,943.8,-0.4,-0.5,-1.6,25,-39.5405,332.604,943.934,-0.168052,-0.515829,-1.57518,
2026_07_06_20_58_17.585,3.868,29.7,0,0.759,0,0,0,0.005, ,0,0,0,0,0, ,-39.1,333.1,944.3,-0.4,-0.6,-1.6,25,-39.5259,332.601,943.941,-0.182186,-0.517912,-1.57669,
2026_07_06_20_58_17.605,3.868,29.7,0,0.76,0,0,0,0.005, ,0,0,0,0,0, ,-38.8,334.2,944.9,-0.3,-0.5,-1.6,25,-39.4908,332.664,943.982,-0.192412,-0.519867,-1.57811,
2026_07_06_20_58_17.624,3.868,29.7,0,0.76,0,0,0,0.005, ,0,0,0,0,0, ,-39.1,333.1,942.9,-0.2,-0.5,-1.6,25,-39.4578,332.725,943.977,-0.195922,-0.518656,-1.57945,
2026_07_06_20_58_17.644,3.868,29.7,0,0.759,0,0,0,0.005, ,0,0,0,0,0, ,-39.9,333.8,944.3,0,-0.6,-1.6,25,-39.4604,332.769,943.954,-0.190076,-0.520566,-1.5807,
2026_07_06_20_58_17.664,3.868,29.8,0,0.757,0,0,0,0.005, ,0,0,0,0,0, ,-38.4,331.7,941.8,0,-0.5,-1.6,25,-39.4415,332.768,943.899,-0.178494,-0.52236,-1.58188,
2026_07_06_20_58_17.683,3.868,29.7,0,0.76,0,0,0,0.004, ,0,0,0,0,0, ,-39.6,331.4,943.9,-0.1,-0.5,-1.5,25,-39.4146,332.693,943.835,-0.170663,-0.520997,-1.57993,
2026_07_06_20_58_17.704,3.868,29.8,0,0.76,0,0,0,0.005, ,0,0,0,0,0, ,-39.1,332,943.2,-0.4,-0.5,-1.6,25,-39.4106,332.633,943.817,-0.175498,-0.519718,-1.57811,
2026_07_06_20_58_17.723,3.868,29.9,0,0.76,0,0,0,0.004, ,0,0,0,0,0, ,-40.4,333,944.2,-0.5,-0.5,-1.6,25,-39.4313,332.625,943.81,-0.192225,-0.518516,-1.57944,
2026_07_06_20_58_17.743,3.868,29.8,0,0.76,0,0,0,0.003, ,0,0,0,0,0, ,-38.6,332.3,943.2,-0.3,-0.5,-1.6,25,-39.4355,332.626,943.803,-0.204887,-0.517388,-1.5807,
2026_07_06_20_58_17.762,3.868,29.8,0,0.76,0,0,0,0.004, ,0,0,0,0,0, ,-40.4,333.1,943.9,-0.3,-0.5,-1.6,25,-39.4394,332.631,943.788,-0.210683,-0.516328,-1.58187,
2026_07_06_20_58_17.782,3.868,29.7,0,0.759,0,0,0,0.004, ,0,0,0,0,0, ,-38.2,333.1,943.2,-0.1,-0.5,-1.6,25,-39.4309,332.659,943.774,-0.210032,-0.515333,-1.58298,
2026_07_06_20_58_17.803,3.868,29.6,0,0.76,0,0,0,0.005, ,0,0,0,0,0, ,-39.3,332.7,942.6,-0.1,-0.5,-1.6,25,-39.3894,332.674,943.72,-0.203327,-0.514399,-1.58401,
2026_07_06_20_58_17.823,3.868,29.7,0,0.76,0,0,0,0.006, ,0,0,0,0,0, ,-39.9,332,942.7,-0.1,-0.5,-1.6,25,-39.4023,332.654,943.655,-0.19703,-0.513522,-1.58499,
2026_07_06_20_58_17.841,3.868,29.6,0,0.76,0,0,0,0.005, ,0,0,0,0,0, ,-40.7,330.8,944,-0.3,-0.5,-1.6,25,-39.457,332.578,943.636,-0.197211,-0.512698,-1.5859,
2026_07_06_20_58_17.862,3.868,29.8,0,0.758,0,0,0,0.006, ,0,0,0,0,0, ,-39.4,331.9,944.2,-0.4,-0.5,-1.6,25,-39.4931,332.503,943.665,-0.206522,-0.511924,-1.58676,
2026_07_06_20_58_17.881,3.868,29.6,0,0.759,0,0,0,0.004, ,0,0,0,0,0, ,-38.9,333.6,944.4,-0.4,-0.6,-1.6,25,-39.4722,332.518,943.703,-0.218312,-0.514244,-1.58757,
2026_07_06_20_58_17.902,3.868,29.7,0,0.759,0,0,0,0.006, ,0,0,0,0,0, ,-38.9,334.9,944,-0.3,-0.5,-1.6,25,-39.4373,332.624,943.734,-0.226337,-0.516423,-1.58833,
2026_07_06_20_58_17.921,3.868,29.7,0,0.759,0,0,0,0.005, ,0,0,0,0,0, ,-40,333,943.1,-0.1,-0.6,-1.6,25,-39.4381,332.704,943.723,-0.224732,-0.518469,-1.58904,
2026_07_06_20_58_17.941,3.868,29.8,0,0.759,0,0,0,0.005, ,0,0,0,0,0, ,-39.5,332.7,943.6,0,-0.5,-1.6,25,-39.4571,332.713,943.7,-0.214084,-0.52039,-1.58971,
2026_07_06_20_58_17.960,3.868,29.8,0,0.759,0,0,0,0.004, ,0,0,0,0,0, ,-38.6,332.8,944.2,-0.1,-0.5,-1.6,25,-39.4323,332.716,943.712,-0.204085,-0.519148,-1.59033,
2026_07_06_20_58_17.980,3.868,29.8,0,0.759,0,0,0,0.004, ,0,0,0,0,0, ,-40.8,332,943.4,-0.2,-0.5,-1.6,25,-39.4486,332.696,943.717,-0.200789,-0.517981,-1.59092,
2026_07_06_20_58_18.000,3.868,29.8,0,0.759,0,0,0,0.004, ,0,0,0,0,0, ,-39.5,333.3,943.9,-0.2,-0.5,-1.6,25,-39.4914,332.694,943.713,-0.200741,-0.516885,-1.59148,
2026_07_06_20_58_18.019,3.868,29.8,0,0.76,0,0,0,0.004, ,0,0,0,0,0, ,-39.6,333.9,943.7,-0.1,-0.5,-1.7,25,-39.4949,332.749,943.719,-0.197649,-0.515856,-1.59504,
2026_07_06_20_58_18.047,3.868,29.6,0,0.759,0,0,0,0.004, ,0,0,0,0,0, ,-40.2,332.1,944.4,0,-0.5,-1.4,25,-39.5196,332.764,943.739,-0.188652,-0.51489,-1.5923,
2026_07_06_20_58_18.059,3.868,29.7,0,0.759,0,0,0,0.006, ,0,0,0,0,0, ,-40.1,332.1,944.5,-0.1,-0.5,-1.6,25,-39.558,332.724,943.782,-0.180203,-0.513983,-1.58667,
2026_07_06_20_58_18.079,3.868,29.7,0,0.759,0,0,0,0.005, ,0,0,0,0,0, ,-40.2,330.4,943.6,-0.3,-0.5,-1.6,25,-39.5941,332.634,943.798,-0.181409,-0.513131,-1.58748,
2026_07_06_20_58_18.099,3.868,29.8,0,0.76,0,0,0,0.005, ,0,0,0,0,0, ,-39.7,332.1,943.1,-0.4,-0.6,-1.6,25,-39.6158,332.549,943.771,-0.191683,-0.515377,-1.58825,
2026_07_06_20_58_18.119,3.868,29.8,0,0.759,0,0,0,0.005, ,0,0,0,0,0, ,-39.6,333.2,943.3,-0.5,-0.6,-1.6,25,-39.6179,332.556,943.736,-0.207424,-0.520534,-1.58896,
2026_07_06_20_58_18.139,3.868,29.8,0,0.76,0,0,0,0.005, ,0,0,0,0,0, ,-39.6,333.7,944.5,-0.3,-0.5,-1.5,25,-39.6168,332.61,943.746,-0.219159,-0.52233,-1.58659,
2026_07_06_20_58_18.159,3.868,29.8,0,0.759,0,0,0,0.005, ,0,0,0,0,0, ,-38.9,333.9,943.9,-0.1,-0.6,-1.6,25,-39.5944,332.683,943.774,-0.217991,-0.524016,-1.58436,
2026_07_06_20_58_18.179,3.868,29.8,0,0.759,0,0,0,0.005, ,0,0,0,0,0, ,-39,333.1,944.2,0,-0.5,-1.5,25,-39.5552,332.732,943.791,-0.207754,-0.525599,-1.58227,
2026_07_06_20_58_18.202,3.868,29.7,0,0.759,0,0,0,0.005, ,0,0,0,0,0, ,-38.8,331.6,943.6,-0.1,-0.5,-1.6,25,-39.5152,332.709,943.797,-0.198141,-0.524039,-1.5803,
2026_07_06_20_58_18.218,3.868,29.8,0,0.76,0,0,0,0.005, ,0,0,0,0,0, ,-39.1,330.8,945.1,-0.2,-0.5,-1.6,25,-39.4808,332.617,943.831,-0.195208,-0.522574,-1.5815,
2026_07_06_20_58_18.238,3.868,29.8,0,0.759,0,0,0,0.005, ,0,0,0,0,0, ,-39.6,331.1,944.3,-0.4,-0.6,-1.5,25,-39.4728,332.516,943.884,-0.201593,-0.524246,-1.57958,
2026_07_06_20_58_18.258,3.868,29.8,0,0.759,0,0,0,0.005, ,0,0,0,0,0, ,-40.2,333.4,943.8,-0.4,-0.5,-1.6,25,-39.4989,332.499,943.894,-0.213684,-0.525815,-1.57778,
2026_07_06_20_58_18.278,3.868,29.8,0,0.758,0,0,0,0.005, ,0,0,0,0,0, ,-40.8,332.7,945.6,-0.3,-0.5,-1.6,25,-39.5599,332.533,943.943,-0.221991,-0.524242,-1.57913,
2026_07_06_20_58_18.297,3.868,29.8,0,0.76,0,0,0,0.005, ,0,0,0,0,0, ,-39.6,333.8,944.2,-0.2,-0.4,-1.5,25,-39.5989,332.577,944.002,-0.223697,-0.519718,-1.57736,
2026_07_06_20_58_18.318,3.868,29.9,0,0.76,0,0,0,0.005, ,0,0,0,0,0, ,-39.7,333.7,942.6,0,-0.5,-1.5,25,-39.602,332.648,943.965,-0.21616,-0.515469,-1.57264,
2026_07_06_20_58_18.337,3.868,29.8,0,0.76,0,0,0,0.004, ,0,0,0,0,0, ,-39,332,946,0,-0.5,-1.6,25,-39.5866,332.66,943.985,-0.202987,-0.514527,-1.57126,
2026_07_06_20_58_18.357,3.868,29.8,0,0.76,0,0,0,0.005, ,0,0,0,0,0, ,-39.3,331,944.7,-0.1,-0.5,-1.6,25,-39.56,332.59,944.068,-0.193665,-0.513642,-1.57301,
2026_07_06_20_58_18.376,3.868,29.8,0,0.761,0,0,0,0.005, ,0,0,0,0,0, ,-39.9,331.2,943.6,-0.3,-0.5,-1.6,25,-39.5625,332.499,944.073,-0.194051,-0.51281,-1.57466,
2026_07_06_20_58_18.396,3.868,29.8,0,0.76,0,0,0,0.005, ,0,0,0,0,0, ,-38.3,330.9,944.8,-0.4,-0.5,-1.6,25,-39.5343,332.411,944.081,-0.203554,-0.51203,-1.5762,
2026_07_06_20_58_18.416,3.868,29.8,0,0.759,0,0,0,0.005, ,0,0,0,0,0, ,-39.3,332.8,944.2,-0.4,-0.5,-1.6,25,-39.4895,332.376,944.107,-0.215525,-0.511297,-1.57765,
2026_07_06_20_58_18.436,3.868,29.8,0,0.759,0,0,0,0.005, ,0,0,0,0,0, ,-40,332.6,944.2,-0.3,-0.5,-1.6,25,-39.4993,332.396,944.112,-0.223719,-0.510608,-1.57901,
2026_07_06_20_58_18.457,3.868,29.8,0,0.76,0,0,0,0.005, ,0,0,0,0,0, ,-39.4,333.4,943.6,-0.2,-0.5,-1.6,25,-39.5115,332.433,944.099,-0.225321,-0.509962,-1.58029,
2026_07_06_20_58_18.476,3.868,29.8,0,0.759,0,0,0,0.005, ,0,0,0,0,0, ,-39.6,334.2,943.3,-0.1,-0.5,-1.5,25,-39.5108,332.516,944.06,-0.220731,-0.509355,-1.57845,
2026_07_06_20_58_18.496,3.868,29.8,0,0.759,0,0,0,0.005, ,0,0,0,0,0, ,-40.5,332.1,942.8,0,-0.5,-1.4,25,-39.5437,332.555,943.998,-0.210327,-0.508785,-1.57062,
2026_07_06_20_58_18.515,3.868,29.8,0,0.761,0,0,0,0.005, ,0,0,0,0,0, ,-39.4,331.5,944,-0.1,-0.5,-1.6,25,-39.5685,332.509,943.962,-0.200557,-0.508249,-1.56632,
2026_07_06_20_58_18.536,3.868,29.9,0,0.759,0,0,0,0.005, ,0,0,0,0,0, ,-38.2,330.8,944,-0.2,-0.6,-1.5,25,-39.5216,332.426,943.964,-0.197476,-0.510794,-1.56532,
2026_07_06_20_58_18.555,3.868,29.8,0,0.759,0,0,0,0.004, ,0,0,0,0,0, ,-39.3,331.4,943.4,-0.3,-0.5,-1.6,25,-39.4746,332.345,943.948,-0.200677,-0.513183,-1.56439,
2026_07_06_20_58_18.575,3.868,29.8,0,0.759,0,0,0,0.005, ,0,0,0,0,0, ,-40.5,331.5,944.5,-0.4,-0.6,-1.6,25,-39.5005,332.291,943.948,-0.209776,-0.515426,-1.56656,
2026_07_06_20_58_18.595,3.868,29.9,0,0.759,0,0,0,0.005, ,0,0,0,0,0, ,-39.9,333.8,943.9,-0.3,-0.5,-1.6,25,-39.5432,332.313,943.964,-0.218321,-0.517533,-1.5686,
2026_07_06_20_58_18.615,3.868,29.8,0,0.759,0,0,0,0.004, ,0,0,0,0,0, ,-40.1,333.6,943.1,-0.1,-0.5,-1.6,25,-39.571,332.397,943.935,-0.217205,-0.516465,-1.57051,
2026_07_06_20_58_18.635,3.868,29.9,0,0.761,0,0,0,0.005, ,0,0,0,0,0, ,-40.5,331.2,943.3,0,-0.5,-1.6,25,-39.6154,332.397,943.89,-0.207016,-0.515461,-1.57231,
2026_07_06_20_58_18.661,3.868,29.8,0,0.76,0,0,0,0.004, ,0,0,0,0,0, ,-39.6,331.4,944.9,-0.1,-0.5,-1.5,25,-39.6419,332.33,943.903,-0.197448,-0.514519,-1.57095,
2026_07_06_20_58_18.673,3.868,29.8,0,0.758,0,0,0,0.005, ,0,0,0,0,0, ,-39.9,331.2,943.4,-0.1,-0.5,-1.6,25,-39.6485,332.268,943.918,-0.191509,-0.513634,-1.56967,
2026_07_06_20_58_18.693,3.868,29.9,0,0.759,0,0,0,0.005, ,0,0,0,0,0, ,-40,333.9,944.7,-0.2,-0.6,-1.6,25,-39.6669,332.285,943.926,-0.18898,-0.51585,-1.57152,
2026_07_06_20_58_18.713,3.868,29.8,0,0.759,0,0,0,0.004, ,0,0,0,0,0, ,-39.7,333.8,942.7,0,-0.5,-1.6,25,-39.678,332.38,943.913,-0.183558,-0.517931,-1.57326,
2026_07_06_20_58_18.733,3.868,29.9,0,0.76,0,0,0,0.005, ,0,0,0,0,0, ,-40.2,332,944.5,-0.1,-0.5,-1.5,25,-39.6946,332.412,943.893,-0.175419,-0.516839,-1.57184,
2026_07_06_20_58_18.753,3.868,29.9,0,0.759,0,0,0,0.004, ,0,0,0,0,0, ,-41.3,331.4,943.3,-0.1,-0.5,-1.6,25,-39.7589,332.369,943.894,-0.170823,-0.515813,-1.57051,
2026_07_06_20_58_18.772,3.868,29.9,0,0.76,0,0,0,0.004, ,0,0,0,0,0, ,-40,331.6,944,-0.3,-0.5,-1.6,25,-39.8132,332.316,943.879,-0.172601,-0.514849,-1.5723,
2026_07_06_20_58_18.792,3.868,29.9,0,0.76,0,0,0,0.004, ,0,0,0,0,0, ,-39.5,332.5,942.7,-0.4,-0.5,-1.6,25,-39.8094,332.299,943.847,-0.183411,-0.513944,-1.57399,
2026_07_06_20_58_18.812,3.868,29.9,0,0.759,0,0,0,0.004, ,0,0,0,0,0, ,-40.6,332.7,943.6,-0.4,-0.5,-1.6,25,-39.824,332.318,943.804,-0.19661,-0.513094,-1.57558,
2026_07_06_20_58_18.832,3.868,29.9,0,0.758,0,0,0,0.004, ,0,0,0,0,0, ,-41,333,944.5,-0.3,-0.5,-1.6,25,-39.8835,332.35,943.819,-0.205957,-0.512297,-1.57707,
2026_07_06_20_58_18.851,3.868,29.9,0,0.759,0,0,0,0.004, ,0,0,0,0,0, ,-39.9,333.9,942.5,-0.1,-0.5,-1.5,25,-39.918,332.417,943.8,-0.205594,-0.511547,-1.57542,
2026_07_06_20_58_18.871,3.868,30,0,0.759,0,0,0,0.004, ,0,0,0,0,0, ,-38.9,333.3,944.3,0,-0.5,-1.6,25,-39.8864,332.489,943.775,-0.196112,-0.510844,-1.57387,
2026_07_06_20_58_18.891,3.868,29.9,0,0.76,0,0,0,0.004, ,0,0,0,0,0, ,-40.7,332.6,943.3,0,-0.5,-1.6,25,-39.8812,332.517,943.777,-0.184162,-0.510183,-1.57546,
2026_07_06_20_58_18.911,3.868,29.9,0,0.76,0,0,0,0.004, ,0,0,0,0,0, ,-40,330.6,944.4,-0.1,-0.5,-1.6,25,-39.9097,332.461,943.781,-0.175986,-0.509562,-1.57696,
2026_07_06_20_58_18.931,3.868,30,0,0.76,0,0,0,0.004, ,0,0,0,0,0, ,-40.5,331.9,944.4,-0.3,-0.5,-1.6,25,-39.9305,332.388,943.819,-0.17745,-0.50898,-1.57836,
2026_07_06_20_58_18.951,3.868,30,0,0.758,0,0,0,0.004, ,0,0,0,0,0, ,-40.1,332.3,943.1,-0.4,-0.5,-1.5,25,-39.953,332.37,943.815,-0.187964,-0.508432,-1.57663,
2026_07_06_20_58_18.970,3.868,29.9,0,0.759,0,0,0,0.004, ,0,0,0,0,0, ,-39.6,332.3,945,-0.5,-0.5,-1.6,25,-39.9467,332.366,943.829,-0.203932,-0.507919,-1.57501,
2026_07_06_20_58_18.994,3.868,30,0,0.762,0,0,0,0.004, ,0,0,0,0,0, ,-39.9,334.1,943.2,-0.2,-0.5,-1.6,25,-39.9347,332.417,943.846,-0.212833,-0.507436,-1.57653,
2026_07_06_20_58_19.010,3.868,29.9,0,0.758,0,0,0,0.004, ,0,0,0,0,0, ,-39.9,333.9,943.9,-0.1,-0.5,-1.6,25,-39.9326,332.513,943.828,-0.209004,-0.506983,-1.57796,
2026_07_06_20_58_19.030,3.868,29.9,0,0.76,0,0,0,0.004, ,0,0,0,0,0, ,-40.1,333.4,944.5,0,-0.5,-1.6,25,-39.9367,332.582,943.85,-0.199315,-0.506557,-1.5793,
2026_07_06_20_58_19.049,3.868,29.9,0,0.759,0,0,0,0.004, ,0,0,0,0,0, ,-39.5,330.6,944.4,0,-0.5,-1.6,25,-39.9284,332.547,943.887,-0.187169,-0.506158,-1.58057,
2026_07_06_20_58_19.070,3.868,30,0,0.76,0,0,0,0.004, ,0,0,0,0,0, ,-39.7,330.2,944.2,-0.3,-0.6,-1.6,25,-39.9084,332.416,943.912,-0.184904,-0.508829,-1.58175,
2026_07_06_20_58_19.089,3.868,30,0,0.759,0,0,0,0.004, ,0,0,0,0,0, ,-39.6,332.2,944.9,-0.3,-0.5,-1.6,25,-39.8926,332.342,943.951,-0.191918,-0.511338,-1.58286,
2026_07_06_20_58_19.109,3.868,30,0,0.76,0,0,0,0.004, ,0,0,0,0,0, ,-38.6,332.8,942.9,-0.4,-0.5,-1.6,25,-39.8443,332.352,943.948,-0.201551,-0.510647,-1.58391,
2026_07_06_20_58_19.129,3.868,30,0,0.76,0,0,0,0.004, ,0,0,0,0,0, ,-40.5,331.9,945,-0.3,-0.5,-1.6,25,-39.8264,332.352,943.948,-0.210597,-0.509998,-1.58489,
2026_07_06_20_58_19.150,3.868,30,0,0.759,0,0,0,0.004, ,0,0,0,0,0, ,-40.1,333.3,944,-0.2,-0.5,-1.6,25,-39.8553,332.367,943.982,-0.212998,-0.509389,-1.58581,
2026_07_06_20_58_19.168,3.868,30,0,0.759,0,0,0,0.004, ,0,0,0,0,0, ,-39.9,332.5,943.8,-0.1,-0.4,-1.6,25,-39.8641,332.399,943.977,-0.209159,-0.50577,-1.58667,
2026_07_06_20_58_19.189,3.868,30,0,0.76,0,0,0,0.004, ,0,0,0,0,0, ,-39.6,333.2,943.9,0,-0.5,-1.6,25,-39.8571,332.427,943.969,-0.199461,-0.502372,-1.58748,
2026_07_06_20_58_19.208,3.868,30,0,0.761,0,0,0,0.004, ,0,0,0,0,0, ,-40.5,332.2,944.5,-0.1,-0.5,-1.5,25,-39.8689,332.443,943.983,-0.190353,-0.502227,-1.5852,
2026_07_06_20_58_19.227,3.868,30,0,0.759,0,0,0,0.004, ,0,0,0,0,0, ,-39.4,331.2,944.5,-0.3,-0.5,-1.6,25,-39.8738,332.398,944.015,-0.190941,-0.502091,-1.58306,
2026_07_06_20_58_19.248,3.868,30,0,0.759,0,0,0,0.004, ,0,0,0,0,0, ,-39.6,332.5,944.4,-0.4,-0.5,-1.6,25,-39.851,332.365,944.041,-0.200633,-0.501964,-1.58409,
2026_07_06_20_58_19.268,3.868,30,0,0.759,0,0,0,0.004, ,0,0,0,0,0, ,-39.6,332.5,944.5,-0.4,-0.5,-1.6,25,-39.8357,332.373,944.066,-0.212782,-0.501844,-1.58506,
2026_07_06_20_58_19.288,3.868,30,0,0.758,0,0,0,0.004, ,0,0,0,0,0, ,-39.5,332.8,944,-0.3,-0.5,-1.5,25,-39.8183,332.39,944.077,-0.221144,-0.501732,-1.58292,
2026_07_06_20_58_19.309,3.868,30.1,0,0.758,0,0,0,0.004, ,0,0,0,0,0, ,-40.6,334.7,942.7,-0.2,-0.5,-1.6,25,-39.8325,332.473,944.033,-0.222902,-0.501626,-1.58092,
2026_07_06_20_58_19.327,3.868,30,0,0.759,0,0,0,0.003, ,0,0,0,0,0, ,-40.7,333,943.7,-0.1,-0.5,-1.5,25,-39.8823,332.557,943.982,-0.21846,-0.501527,-1.57903,
2026_07_06_20_58_19.347,3.868,30.1,0,0.76,0,0,0,0.004, ,0,0,0,0,0, ,-40.1,332,943.1,0,-0.5,-1.5,25,-39.9138,332.553,943.947,-0.208194,-0.501434,-1.57422,
2026_07_06_20_58_19.366,3.868,30,0,0.759,0,0,0,0.003, ,0,0,0,0,0, ,-39.6,332,943.7,-0.1,-0.5,-1.6,25,-39.9099,332.519,943.913,-0.198554,-0.501347,-1.57274,
2026_07_06_20_58_19.386,3.868,30,0,0.759,0,0,0,0.004, ,0,0,0,0,0, ,-40.4,334.7,943.9,-0.3,-0.5,-1.6,25,-39.9154,332.57,943.906,-0.198642,-0.501265,-1.5744,
2026_07_06_20_58_19.406,3.868,30,0,0.759,0,0,0,0.004, ,0,0,0,0,0, ,-39.4,333.6,944.5,-0.1,-0.5,-1.6,25,-39.9145,332.666,943.924,-0.198725,-0.501188,-1.57596,
2026_07_06_20_58_19.425,3.868,30,0,0.759,0,0,0,0.004, ,0,0,0,0,0, ,-40.7,332.2,943.1,0,-0.5,-1.6,25,-39.9227,332.681,943.917,-0.189662,-0.501115,-1.57743,
2026_07_06_20_58_19.447,3.868,30,0,0.76,0,0,0,0.004, ,0,0,0,0,0, ,-38.8,331.6,943.7,-0.2,-0.5,-1.5,25,-39.9122,332.633,943.885,-0.184198,-0.501047,-1.57575,
2026_07_06_20_58_19.472,3.868,30,0,0.76,0,0,0,0.004, ,0,0,0,0,0, ,-39.5,331.1,942.6,-0.1,-0.5,-1.6,25,-39.8658,332.555,943.84,-0.182115,-0.500984,-1.57419,
2026_07_06_20_58_19.485,3.868,30,0,0.759,0,0,0,0.004, ,0,0,0,0,0, ,-39.3,332.3,943.4,-0.3,-0.5,-1.6,25,-39.8374,332.503,943.789,-0.183204,-0.500924,-1.57576,
2026_07_06_20_58_19.505,3.868,30,0,0.758,0,0,0,0.004, ,0,0,0,0,0, ,-39.6,332.6,942.3,-0.3,-0.5,-1.6,25,-39.8138,332.5,943.732,-0.190322,-0.500867,-1.57724,
2026_07_06_20_58_19.526,3.868,30,0,0.76,0,0,0,0.004, ,0,0,0,0,0, ,-40.6,333.1,943.4,-0.3,-0.5,-1.6,25,-39.8312,332.521,943.678,-0.197005,-0.500814,-1.57862,
2026_07_06_20_58_19.545,3.868,29.9,0,0.76,0,0,0,0.004, ,0,0,0,0,0, ,-40.2,333,943.7,-0.2,-0.5,-1.6,25,-39.8659,332.553,943.67,-0.200235,-0.500765,-1.57993,
2026_07_06_20_58_19.564,3.868,30.1,0,0.76,0,0,0,0.004, ,0,0,0,0,0, ,-40,332.5,944.7,-0.1,-0.5,-1.6,25,-39.8801,332.565,943.703,-0.197173,-0.500718,-1.58115,
2026_07_06_20_58_19.584,3.868,30.1,0,0.759,0,0,0,0.003, ,0,0,0,0,0, ,-39.3,333,942.9,0,-0.5,-1.5,25,-39.8661,332.576,943.709,-0.188205,-0.500674,-1.57925,
2026_07_06_20_58_19.604,3.868,30.1,0,0.76,0,0,0,0.003, ,0,0,0,0,0, ,-39.3,331.5,943.6,0,-0.6,-1.6,25,-39.8316,332.556,943.681,-0.176736,-0.50368,-1.57747,
2026_07_06_20_58_19.624,3.868,30,0,0.759,0,0,0,0.003, ,0,0,0,0,0, ,-40.6,331.1,943.6,-0.3,-0.5,-1.6,25,-39.8388,332.48,943.676,-0.175107,-0.506503,-1.57884,
2026_07_06_20_58_19.644,3.868,30.1,0,0.759,0,0,0,0.004, ,0,0,0,0,0, ,-39.6,331.4,944.9,-0.3,-0.5,-1.6,25,-39.8548,332.405,943.711,-0.182718,-0.506107,-1.58013,
2026_07_06_20_58_19.664,3.868,30.1,0,0.759,0,0,0,0.003, ,0,0,0,0,0, ,-39.7,331.5,944,-0.4,-0.5,-1.6,25,-39.8423,332.347,943.756,-0.192911,-0.505734,-1.58134,
2026_07_06_20_58_19.683,3.868,30.1,0,0.761,0,0,0,0.003, ,0,0,0,0,0, ,-39.7,333.2,944.4,-0.3,-0.5,-1.5,25,-39.8336,332.347,943.783,-0.202484,-0.505385,-1.57943,
2026_07_06_20_58_19.703,3.868,30,0,0.759,0,0,0,0.003, ,0,0,0,0,0, ,-39.1,333.7,942.6,-0.2,-0.5,-1.7,25,-39.8072,332.414,943.766,-0.20538,-0.505057,-1.58068,
2026_07_06_20_58_19.723,3.868,30,0,0.758,0,0,0,0.004, ,0,0,0,0,0, ,-40,333.9,944.2,0,-0.5,-1.6,25,-39.7915,332.499,943.743,-0.198958,-0.504749,-1.58491,
2026_07_06_20_58_19.743,3.868,30,0,0.759,0,0,0,0.004, ,0,0,0,0,0, ,-39.6,331.6,943.8,0,-0.5,-1.6,25,-39.792,332.514,943.759,-0.186834,-0.504459,-1.58583,
2026_07_06_20_58_19.763,3.868,30,0,0.759,0,0,0,0.004, ,0,0,0,0,0, ,-39.9,330.9,942.9,-0.1,-0.5,-1.6,25,-39.7895,332.437,943.734,-0.178496,-0.504188,-1.58669,
2026_07_06_20_58_19.782,3.868,30.1,0,0.759,0,0,0,0.004, ,0,0,0,0,0, ,-39.4,330.5,944.4,-0.3,-0.5,-1.6,25,-39.781,332.331,943.729,-0.179806,-0.503932,-1.5875,
2026_07_06_20_58_19.806,3.868,30.1,0,0.761,0,0,0,0.003, ,0,0,0,0,0, ,-39,331.6,943.9,-0.3,-0.5,-1.6,25,-39.7456,332.253,943.755,-0.18713,-0.503693,-1.58826,
2026_07_06_20_58_19.822,3.868,30,0,0.759,0,0,0,0.003, ,0,0,0,0,0, ,-39,333.9,945.6,-0.5,-0.5,-1.5,25,-39.7001,332.283,943.815,-0.200102,-0.503468,-1.58593,
2026_07_06_20_58_19.842,3.868,30,0,0.759,0,0,0,0.004, ,0,0,0,0,0, ,-39.6,334.5,942.3,-0.3,-0.5,-1.6,25,-39.6757,332.4,943.823,-0.212283,-0.503256,-1.58374,
2026_07_06_20_58_19.862,3.868,30,0,0.759,0,0,0,0.004, ,0,0,0,0,0, ,-39,334.1,943.2,-0.1,-0.4,-1.6,25,-39.6529,332.516,943.758,-0.211535,-0.500011,-1.58473,
2026_07_06_20_58_19.881,3.868,30,0,0.761,0,0,0,0.004, ,0,0,0,0,0, ,-39.4,332.8,942.7,0,-0.5,-1.6,25,-39.6253,332.573,943.709,-0.201691,-0.496964,-1.58566,
2026_07_06_20_58_19.901,3.868,30.2,0,0.759,0,0,0,0.004, ,0,0,0,0,0, ,-38.6,330.8,944.7,0,-0.6,-1.6,25,-39.5872,332.526,943.708,-0.189401,-0.500195,-1.58654,
2026_07_06_20_58_19.922,3.868,30,0,0.76,0,0,0,0.002, ,0,0,0,0,0, ,-40.2,330.3,943.8,-0.2,-0.5,-1.6,25,-39.5757,332.405,943.741,-0.183953,-0.50323,-1.58736,
2026_07_06_20_58_19.941,3.868,30.1,0,0.76,0,0,0,0.004, ,0,0,0,0,0, ,-39.4,330.8,944.8,-0.4,-0.5,-1.6,25,-39.5894,332.292,943.775,-0.191025,-0.503034,-1.58813,
2026_07_06_20_58_19.960,3.868,30.1,0,0.759,0,0,0,0.003, ,0,0,0,0,0, ,-38.8,331.6,944.5,-0.5,-0.6,-1.6,25,-39.5596,332.226,943.829,-0.206806,-0.505896,-1.58885,
2026_07_06_20_58_19.980,3.868,30,0,0.759,0,0,0,0.003, ,0,0,0,0,0, ,-39.1,333.4,944.8,-0.4,-0.5,-1.6,25,-39.5224,332.242,943.879,-0.221626,-0.508583,-1.58953,
2026_07_06_20_58_20.000,3.868,30,0,0.76,0,0,0,0.004, ,0,0,0,0,0, ,-41,323.4,946.6,1.6,-0.5,-1.4,25,-39.5546,332.008,943.99,-0.171558,-0.50806,-1.58408,
2026_07_06_20_58_20.019,3.868,30.1,0,0.759,0,0,0,0.004, ,0,0,0,0,0, ,-296.7,217.4,974.6,-0.6,2.8,6.3,25,-47.4335,328.254,945.002,-0.130635,-0.407022,-1.33825,
2026_07_06_20_58_20.039,3.868,30.1,0,0.759,0,0,0,0.003, ,0,0,0,0,0, ,-409.3,329.9,938.4,-8.4,-1.6,-5.5,25,-66.054,324.927,945.703,-0.396893,-0.345657,-1.23232,
2026_07_06_20_58_20.059,3.868,30.1,0,0.759,0,0,0,0.003, ,0,0,0,0,0, ,-221.4,259.8,935,-11.6,-10.8,-29.5,25,-81.2455,323.094,945.154,-0.982082,-0.702406,-2.22364,
2026_07_06_20_58_20.080,3.868,30.1,0,0.76,0,0,0,0.003, ,0,0,0,0,0, ,-88.6,343.5,947.6,14.5,-16.2,-46.1,25,-85.7399,321.787,944.919,-0.833877,-1.48226,-4.39157,
2026_07_06_20_58_20.099,3.868,30.1,0,0.76,0,0,0,0.003, ,0,0,0,0,0, ,471.1,587.5,882.5,28,-23.3,-66.2,25,-68.8608,330.545,943.099,0.511859,-2.59545,-7.5456,
2026_07_06_20_58_20.119,3.868,30.1,0,0.76,0,0,0,0.003, ,0,0,0,0,0, ,81.1,275.7,938.3,80.4,-0.3,-4.6,25,-47.8398,336.703,941.106,3.78348,-3.15635,-9.24298,
2026_07_06_20_58_20.140,3.868,30,0,0.759,0,0,0,0.003, ,0,0,0,0,0, ,-132.6,414.5,908.9,22.7,-4,-1.7,25,-46.4937,337.214,940.04,6.69425,-3.09503,-8.87169,
2026_07_06_20_58_20.159,3.868,30.1,0,0.761,0,0,0,0.003, ,0,0,0,0,0, ,-341.4,346.6,1223.8,-13.9,-24.2,-21.8,25,-58.1026,339.855,947.737,6.55445,-3.76564,-9.04708,
2026_07_06_20_58_20.179,3.868,30.1,0,0.759,0,0,0,0.003, ,0,0,0,0,0, ,-15.6,498.5,1071.7,-17.1,-78.3,-41.1,25,-65.4394,344.894,959.925,5.2105,-6.65922,-10.4123,
2026_07_06_20_58_20.198,3.868,30.1,0,0.76,0,0,0,0.003, ,0,0,0,0,0, ,334.9,622,993.4,-35.2,-100.5,-18.9,25,-51.723,358.018,964.351,3.29947,-11.7012,-11.6059,
2026_07_06_20_58_20.218,3.868,30.1,0,0.76,0,0,0,0.003, ,0,0,0,0,0, ,106.6,246.2,1077,-66.1,-103.6,40.4,25,-35.1192,362.654,968.668,0.0119271,-17.2069,-10.2436,
2026_07_06_20_58_20.238,3.868,30.1,0,0.76,0,0,0,0.003, ,0,0,0,0,0, ,188.8,507.3,1062.1,-120.9,-121.3,64.5,25,-23.9786,363.513,974.815,-5.68646,-23.0107,-6.42319,
2026_07_06_20_58_20.257,3.868,30.1,0,0.76,0,0,0,0.003, ,0,0,0,0,0, ,204.4,391.9,995.3,-79.4,-42.5,-39.5,25,-10.5371,368.759,978.099,-11.4428,-26.5993,-5.27006,
2026_07_06_20_58_20.278,3.868,30.1,0,0.76,0,0,0,0.003, ,0,0,0,0,0, ,103.6,231.2,971.8,-100.4,61.3,-69,25,-0.510628,365.273,978.431,-16.2238,-24.4056,-8.25477,
2026_07_06_20_58_20.298,3.868,30.1,0,0.759,0,0,0,0.003, ,0,0,0,0,0, ,117.6,272.4,972.1,-111.2,107.5,-71.5,25,6.26018,358.358,978.036,-21.6824,-17.7753,-12.0326,
2026_07_06_20_58_20.322,3.868,30.1,0,0.759,0,0,0,0.003, ,0,0,0,0,0, ,-50.2,311.6,866.3,-127.4,94.2,-71.2,25,7.93229,354.314,974.451,-27.6309,-10.5465,-15.6473,
2026_07_06_20_58_20.337,3.868,30.1,0,0.76,0,0,0,0.003, ,0,0,0,0,0, ,-154,79.5,1040.2,-114.8,93.7,-108.6,25,1.2272,344.639,973.159,-33.3267,-4.17878,-20.172,
2026_07_06_20_58_20.356,3.868,30.1,0,0.76,0,0,0,0.003, ,0,0,0,0,0, ,48.7,-64.5,1169.3,-136.5,113.7,-111,25,-2.05594,324.095,981.178,-38.9527,2.39509,-25.6337,
2026_07_06_20_58_20.376,3.868,30.1,0,0.76,0,0,0,0.003, ,0,0,0,0,0, ,70.4,54.3,1079.3,-138.2,98.5,-83.9,25,1.69817,304.035,989.899,-44.9487,8.7146,-30.01,
2026_07_06_20_58_20.396,3.868,30.1,0,0.76,0,0,0,0.003, ,0,0,0,0,0, ,-70.4,46.3,960.5,-112.6,44.1,-68.7,25,1.59469,288.573,991.727,-49.8512,12.5284,-32.8308,
2026_07_06_20_58_20.416,3.868,30.2,0,0.76,0,0,0,0.003, ,0,0,0,0,0, ,-207.1,-45,1065.7,-86.9,-24.9,-43.5,25,-6.95757,271.027,993.03,-52.8919,12.35,-34.2488,
2026_07_06_20_58_20.435,3.868,30.2,0,0.759,0,0,0,0.002, ,0,0,0,0,0, ,-205.3,-294.4,1158,-69.4,-9.1,-13.9,25,-19.0989,244.171,1000.27,-54.4311,10.5614,-33.9107,
2026_07_06_20_58_20.456,3.868,30.1,0,0.759,0,0,0,0.002, ,0,0,0,0,0, ,-215,-224.7,1255.2,-39.6,39,-18.8,25,-30.7411,213.475,1012.84,-54.4353,10.8289,-32.8406,
2026_07_06_20_58_20.476,3.868,30.1,0,0.76,0,0,0,0.003, ,0,0,0,0,0, ,-144.7,-159.9,1196.8,-44.4,88.7,-29.3,25,-39.8274,188.748,1025.83,-53.6775,14.0598,-32.3049,
2026_07_06_20_58_20.496,3.868,30.1,0,0.759,0,0,0,0.003, ,0,0,0,0,0, ,-167.8,-173.7,993.1,-18.2,61.7,-39.3,25,-46.9219,167.082,1030.04,-52.3139,17.7856,-32.4265,
2026_07_06_20_58_20.515,3.868,30.1,0,0.759,0,0,0,0.002, ,0,0,0,0,0, ,-64.4,-92.2,1069.9,53.3,-46.8,-26.7,25,-51.1374,148.799,1030.13,-48.0566,17.1557,-32.4614,
2026_07_06_20_58_20.535,3.868,30.2,0,0.761,0,0,0,0.002, ,0,0,0,0,0, ,-139.6,-46.2,1234.2,77.6,-14.5,-26.8,25,-54.2369,135.515,1037.56,-41.1398,14.2426,-32.1134,
2026_07_06_20_58_20.554,3.868,30.2,0,0.76,0,0,0,0.002, ,0,0,0,0,0, ,-179.4,-129.3,1313.3,13.8,-9.4,-22.8,25,-60.6514,121.909,1051.96,-35.848,12.6465,-31.6677,
2026_07_06_20_58_20.574,3.868,30.1,0,0.76,0,0,0,0.002, ,0,0,0,0,0, ,-151.1,-100.8,1395.8,-8.9,7.8,-27.5,25,-67.0253,107.47,1070.39,-33.5142,11.8271,-31.2705,
2026_07_06_20_58_20.594,3.868,30.2,0,0.759,0,0,0,0.002, ,0,0,0,0,0, ,-151.6,-106,1305.5,-21.1,5,-30.1,25,-72.1639,94.6198,1087.47,-32.386,11.4964,-31.12,
2026_07_06_20_58_20.614,3.868,30.1,0,0.759,0,0,0,0.002, ,0,0,0,0,0, ,-215.4,-28.4,1301.5,-6.1,-10,-36.6,25,-78.9484,84.7589,1100.64,-31.2412,10.6435,-31.2559,
2026_07_06_20_58_20.633,3.868,30.1,0,0.759,0,0,0,0.002, ,0,0,0,0,0, ,-185.3,-91.7,1216.9,-28.7,-106,-57.1,25,-86.3463,75.9346,1110.3,-30.3978,6.4605,-32.2062,
2026_07_06_20_58_20.659,3.868,30.1,0,0.759,0,0,0,0.002, ,0,0,0,0,0, ,-32.4,-81.1,1206.9,-42.2,-181.4,-38.6,25,-87.7176,66.0423,1116.49,-30.7056,-2.6899,-33.1595,
2026_07_06_20_58_20.673,3.868,30.1,0,0.76,0,0,0,0.002, ,0,0,0,0,0, ,-42.7,-119.7,1133.5,-37.4,-177.6,-34.5,25,-84.6605,55.8998,1119.76,-31.2598,-13.4643,-33.3661,
2026_07_06_20_58_20.693,3.868,30.2,0,0.758,0,0,0,0.002, ,0,0,0,0,0, ,-71.4,-35.2,1157.1,4.1,-154.5,-36.5,25,-82.978,47.7738,1121.32,-30.3695,-22.7625,-33.4961,
2026_07_06_20_58_20.713,3.868,30.1,0,0.759,0,0,0,0.002, ,0,0,0,0,0, ,5.4,-77.5,1068.9,23.2,-69,-37.7,25,-79.9325,41.4287,1120.81,-27.6871,-28.1851,-33.7157,
2026_07_06_20_58_20.732,3.868,30.1,0,0.76,0,0,0,0.002, ,0,0,0,0,0, ,-17.2,-170.2,1096.9,15.7,-33.9,-44.6,25,-75.4211,31.357,1118.5,-24.8147,-29.6028,-34.1687,
2026_07_06_20_58_20.753,3.868,30.1,0,0.76,0,0,0,0.002, ,0,0,0,0,0, ,-51.3,-202.3,1077.8,3.4,-56.6,-53.8,25,-72.9123,18.0966,1116.6,-22.7206,-30.5563,-35.0847,
2026_07_06_20_58_20.772,3.868,30.2,0,0.76,0,0,0,0.002, ,0,0,0,0,0, ,-55.2,-144.7,1090.9,-3.1,-59.2,-64.5,25,-71.7141,6.4212,1114.64,-21.3269,-32.2226,-36.5512,
2026_07_06_20_58_20.792,3.868,30.1,0,0.76,0,0,0,0.002, ,0,0,0,0,0, ,23.1,-41.3,975.8,-15.5,-21.5,-54,25,-68.3221,0.362717,1109.69,-20.594,-32.7179,-37.9344,
2026_07_06_20_58_20.812,3.868,30.1,0,0.76,0,0,0,0.002, ,0,0,0,0,0, ,11.3,-35.4,914.4,-19,-10.8,-38.9,25,-63.1106,-1.99634,1099.66,-20.3902,-31.7083,-38.4533,
2026_07_06_20_58_20.837,3.868,30.2,0,0.76,0,0,0,0.002, ,0,0,0,0,0, ,80,-75.4,938.4,2.4,-30.8,-47.7,25,-56.483,-5.25062,1089.1,-19.6535,-31.0435,-38.7487,
2026_07_06_20_58_20.851,3.868,30.1,0,0.759,0,0,0,0.001, ,0,0,0,0,0, ,152.3,-133,962.5,8,-42.8,-42.2,25,-45.9632,-11.2804,1080.65,-18.139,-31.3943,-39.1266,
2026_07_06_20_58_20.871,3.868,30.2,0,0.76,0,0,0,0.002, ,0,0,0,0,0, ,142.4,-72.7,1025.3,3.5,-49.2,-27.3,25,-34.1831,-16.8604,1075.36,-16.6832,-32.2843,-38.8599,
2026_07_06_20_58_20.891,3.868,30.1,0,0.759,0,0,0,0.001, ,0,0,0,0,0, ,118.5,-116.4,956.2,-9.2,-36.5,-2.7,25,-24.1508,-21.5946,1070.21,-15.8403,-32.9282,-37.4059,
2026_07_06_20_58_20.910,3.868,30.2,0,0.76,0,0,0,0.002, ,0,0,0,0,0, ,126,-119.9,979.1,-16.8,-52.5,-3.4,25,-15.2295,-27.4784,1063.96,-15.6672,-33.6334,-35.3123,
2026_07_06_20_58_20.931,3.868,30.2,0,0.76,0,0,0,0.001, ,0,0,0,0,0, ,189,-214.8,914.6,-20.2,-47.3,-6.7,25,-4.7038,-36.0019,1056.82,-15.8398,-34.6246,-33.4682,
2026_07_06_20_58_20.951,3.868,30.2,0,0.759,0,0,0,0.001, ,0,0,0,0,0, ,114.8,-199.2,856.8,-27.9,-54.3,-18.3,25,4.83924,-46.4221,1046.39,-16.3401,-35.6103,-32.1905,
2026_07_06_20_58_20.970,3.868,30,0,0.759,0,0,0,0.001, ,0,0,0,0,0, ,133.9,-134.1,838.7,-29,-36.4,-25.3,25,12.1219,-53.7484,1034.29,-17.0781,-36.2038,-31.5573,
2026_07_06_20_58_20.990,3.868,30.2,0,0.76,0,0,0,0.003, ,0,0,0,0,0, ,176.6,-165.4,749.1,-37.1,-15.1,-16.9,25,20.8438,-59.5985,1019.64,-18.0514,-35.5668,-30.9201,
2026_07_06_20_58_21.012,3.868,30.2,0,0.759,0,0,0,0.001, ,0,0,0,0,0, ,238,-159.9,759.7,-17,-13.5,-21.2,25,32.206,-65.8782,1003.48,-18.5997,-34.2708,-30.1967,
2026_07_06_20_58_21.029,3.868,30.2,0,0.76,0,0,0,0.001, ,0,0,0,0,0, ,331.5,-156.8,826.6,-24.2,-34.1,-17.4,25,47.5954,-71.5132,990.66,-18.7216,-33.6328,-29.5327,
2026_07_06_20_58_21.049,3.868,30.2,0,0.76,0,0,0,0.001, ,0,0,0,0,0, ,307.9,-239.8,795.5,-33,-50.9,-4.2,25,64.1767,-79.2393,979.715,-19.3236,-34.1731,-28.3912,
2026_07_06_20_58_21.070,3.868,30.2,0,0.759,0,0,0,0.001, ,0,0,0,0,0, ,268.1,-191.7,689.5,-31.1,-39.4,-8.1,25,77.816,-87.5579,965.26,-20.0991,-34.842,-27.0359,
2026_07_06_20_58_21.089,3.868,30.1,0,0.759,0,0,0,0.001, ,0,0,0,0,0, ,249.3,-116.6,628.7,-6.8,-29.2,-14.8,25,88.8386,-91.6159,946.603,-20.0291,-34.809,-26.0861,
2026_07_06_20_58_21.109,3.868,30.1,0,0.759,0,0,0,0.002, ,0,0,0,0,0, ,312.3,-158.8,717.8,7.4,-32.5,-11,25,100.536,-94.4241,929.946,-18.7903,-34.5677,-25.2826,
2026_07_06_20_58_21.129,3.868,30.2,0,0.76,0,0,0,0.002, ,0,0,0,0,0, ,332.8,-233.3,781.1,13.3,-46.1,-11.4,25,114.065,-100.617,918.947,-17.0145,-34.8561,-24.4244,
2026_07_06_20_58_21.149,3.868,30.1,0,0.76,0,0,0,0.001, ,0,0,0,0,0, ,367.7,-268.6,799.1,-2.9,-46,-11.6,25,128.458,-109.778,911.095,-15.6608,-35.5382,-23.6368,
2026_07_06_20_58_21.168,3.868,30.2,0,0.76,0,0,0,0.002, ,0,0,0,0,0, ,339.7,-190.6,771.6,-24.6,-31.1,-7.5,25,142.183,-117.08,903.432,-15.5444,-35.7218,-22.7784,
2026_07_06_20_58_21.188,3.868,30.1,0,0.759,0,0,0,0.001, ,0,0,0,0,0, ,317,-212.1,675.6,-26.8,-24.8,-2.9,25,153.528,-122.215,892.474,-16.1633,-35.2482,-21.7072,
2026_07_06_20_58_21.208,3.868,30.1,0,0.759,0,0,0,0.002, ,0,0,0,0,0, ,397.4,-254.6,652,-6.7,-32.4,-10,25,165.939,-128.987,878.539,-16.199,-34.843,-20.7775,
2026_07_06_20_58_21.228,3.868,30.1,0,0.759,0,0,0,0.002, ,0,0,0,0,0, ,458.6,-215.3,677.2,-2.7,-41.2,-11.5,25,181.909,-135.444,865.502,-15.4983,-34.9623,-20.1664,
2026_07_06_20_58_21.248,3.868,30.3,0,0.76,0,0,0,0.002, ,0,0,0,0,0, ,438.2,-178.3,660.5,-15,-42,-11,25,198.148,-139.183,853.519,-15.0932,-35.3668,-19.6231,
2026_07_06_20_58_21.267,3.868,30.1,0,0.76,0,0,0,0, ,0,0,0,0,0, ,405.6,-169.4,602.9,-19.6,-30.8,-13.8,25,211.783,-141.296,840.002,-15.2276,-35.4297,-19.1829,
2026_07_06_20_58_21.287,3.868,30.1,0,0.759,0,0,0,0.002, ,0,0,0,0,0, ,471,-153.4,590.9,-14.9,-16.9,-20.3,25,225.586,-142.521,825.188,-15.3509,-34.7241,-19.053,
2026_07_06_20_58_21.307,3.868,30.2,0,0.76,0,0,0,0.002, ,0,0,0,0,0, ,530.3,-141.8,637.5,-17.1,-8.2,-17,25,242.348,-142.83,812.331,-15.3904,-33.3729,-19.0284,
2026_07_06_20_58_21.327,3.868,30.2,0,0.759,0,0,0,0.001, ,0,0,0,0,0, ,581.5,-129.8,679,-12.5,-12.6,-11,25,261.455,-142.402,802.941,-15.3544,-31.973,-18.722,
2026_07_06_20_58_21.347,3.868,30.2,0,0.76,0,0,0,0.001, ,0,0,0,0,0, ,529.1,-127.6,681.5,-4.1,-18.3,-11,25,279.361,-141.567,795.465,-14.9246,-30.9661,-18.2514,
2026_07_06_20_58_21.366,3.868,30.2,0,0.759,0,0,0,0.001, ,0,0,0,0,0, ,530,-152.9,718.5,-1.3,-13.5,-13,25,294.607,-141.487,789.647,-14.1796,-30.048,-17.8705,
2026_07_06_20_58_21.391,3.868,30.2,0,0.76,0,0,0,0.001, ,0,0,0,0,0, ,544,-172.1,734.9,-8.1,-6,-9.9,25,309.378,-142.767,785.812,-13.602,-28.8111,-17.4792,
2026_07_06_20_58_21.406,3.868,30.2,0,0.758,0,0,0,0.001, ,0,0,0,0,0, ,544.3,-171.5,715.5,-11.5,-5.3,-8.9,25,323.684,-144.536,782.118,-13.3703,-27.3997,-16.9869,
2026_07_06_20_58_21.425,3.868,30.1,0,0.76,0,0,0,0.001, ,0,0,0,0,0, ,552.6,-145.9,729.7,-6.8,-2.5,-8.6,25,337.381,-145.399,778.491,-13.1131,-25.9677,-16.485,
2026_07_06_20_58_21.445,3.868,30.2,0,0.759,0,0,0,0.002, ,0,0,0,0,0, ,558.5,-131.9,775.7,-2.7,-6,-4,25,350.676,-145.003,776.92,-12.6035,-24.6443,-15.8643,
2026_07_06_20_58_21.465,3.868,30.2,0,0.759,0,0,0,0.001, ,0,0,0,0,0, ,554.1,-136.2,777.2,-0.9,-7.4,-1.5,25,363.206,-144.336,776.891,-11.9451,-23.5508,-15.0652,
2026_07_06_20_58_21.485,3.868,30.2,0,0.76,0,0,0,0.001, ,0,0,0,0,0, ,541.3,-153.5,770.8,2.9,-10.2,-0.9,25,374.448,-144.367,776.715,-11.1563,-22.6519,-14.2203,
2026_07_06_20_58_21.505,3.868,30.2,0,0.759,0,0,0,0.001, ,0,0,0,0,0, ,517.4,-156.8,758.5,3.7,-7.7,-0.3,25,383.888,-145.024,775.98,-10.2754,-21.817,-13.3903,
2026_07_06_20_58_21.525,3.868,30.2,0,0.759,0,0,0,0.001, ,0,0,0,0,0, ,506.4,-160.4,756.2,5.2,0.6,-0.1,25,391.688,-145.852,774.844,-9.37805,-20.7038,-12.5865,
2026_07_06_20_58_21.545,3.868,30.3,0,0.758,0,0,0,0.001, ,0,0,0,0,0, ,524.7,-171.7,802.9,3.8,2.7,-0.2,25,399.236,-147.082,775.131,-8.53235,-19.3416,-11.8286,
2026_07_06_20_58_21.571,3.868,30.3,0,0.76,0,0,0,0, ,0,0,0,0,0, ,522,-201.7,793.8,0.9,1.6,0.1,25,406.799,-149.497,776.546,-7.86921,-18.032,-11.1109,
2026_07_06_20_58_21.586,3.868,30.2,0,0.759,0,0,0,0, ,0,0,0,0,0, ,502.9,-186.2,787.2,1.2,-0.8,-0.7,25,413.238,-152.205,777.396,-7.32569,-16.9088,-10.4521,
2026_07_06_20_58_21.604,3.868,30.2,0,0.759,0,0,0,0.001, ,0,0,0,0,0, ,482.4,-162.8,787.7,1.3,0.3,-1.7,25,418.077,-153.564,778.009,-6.80311,-15.8936,-9.8883,
2026_07_06_20_58_21.624,3.868,30.3,0,0.759,0,0,0,0.001, ,0,0,0,0,0, ,487.5,-164.5,781.6,-0.2,3,-2.4,25,422.152,-154.179,778.414,-6.35503,-14.8246,-9.41065,
2026_07_06_20_58_21.643,3.868,30.2,0,0.76,0,0,0,0, ,0,0,0,0,0, ,490.1,-197.3,749.6,-1.8,0.8,-3,25,426.213,-155.807,777.633,-6.02871,-13.8054,-9.00172,
2026_07_06_20_58_21.663,3.868,30.2,0,0.759,0,0,0,0.001, ,0,0,0,0,0, ,502.8,-201.2,702.3,-1.5,2.3,-6.6,25,430.493,-158.454,774.483,-5.76188,-12.8697,-8.74568,
2026_07_06_20_58_21.683,3.868,30.2,0,0.76,0,0,0,0.001, ,0,0,0,0,0, ,511.1,-172.8,696.5,-3.5,8.8,-6.5,25,435.152,-160.194,769.908,-5.56311,-11.7473,-8.61188,
2026_07_06_20_58_21.703,3.868,30.3,0,0.761,0,0,0,0.001, ,0,0,0,0,0, ,487.7,-139,681.1,-2.9,11.1,-6,25,439.067,-159.932,764.965,-5.41911,-10.4251,-8.46795,
2026_07_06_20_58_21.723,3.868,30.2,0,0.759,0,0,0,0, ,0,0,0,0,0, ,452.7,-142.8,621.4,5,6.8,-6,25,440.965,-158.772,758.036,-5.0249,-9.24441,-8.31756,
2026_07_06_20_58_21.743,3.868,30.3,0,0.759,0,0,0,0.001, ,0,0,0,0,0, ,498.9,-153.5,601.8,15,11.8,-6,25,443.087,-158.125,749.112,-4.10932,-8.11436,-8.17634,
2026_07_06_20_58_21.762,3.868,30.3,0,0.759,0,0,0,0, ,0,0,0,0,0, ,520.2,-119.6,663.2,18.3,17.9,-4,25,447.137,-156.81,742.006,-2.8443,-6.71497,-7.98278,
2026_07_06_20_58_21.782,3.868,30.2,0,0.76,0,0,0,0, ,0,0,0,0,0, ,473.8,-73.7,700.5,22.4,14.1,-0.5,25,450.176,-153.144,738.341,-1.4309,-5.33077,-7.63344,
2026_07_06_20_58_21.801,3.868,30.3,0,0.76,0,0,0,0.001, ,0,0,0,0,0, ,389.5,-77.8,655,34.5,0.3,-0.4,25,449.047,-148.428,734.648,0.389971,-4.56718,-7.1957,
2026_07_06_20_58_21.821,3.868,30.2,0,0.758,0,0,0,0, ,0,0,0,0,0, ,435.6,-131.4,635.2,49.9,0.4,-7.2,25,446.823,-145.757,729.192,2.93777,-4.26754,-6.98877,
2026_07_06_20_58_21.841,3.868,30.3,0,0.759,0,0,0,0.001, ,0,0,0,0,0, ,469.7,-102.2,667.4,49.2,11.6,-6.4,25,447.178,-143.993,724.445,5.7782,-3.64186,-6.97727,
2026_07_06_20_58_21.861,3.868,30.2,0,0.759,0,0,0,0, ,0,0,0,0,0, ,389.8,-33.8,740.9,46,16.3,-3.7,25,446.116,-139.362,723.208,8.32672,-2.56986,-6.85982,
2026_07_06_20_58_21.881,3.868,30.2,0,0.759,0,0,0,0, ,0,0,0,0,0, ,260.6,9,796.6,40.3,6.6,-9.2,25,438.748,-131.625,725.983,10.4488,-1.71552,-6.83485,
2026_07_06_20_58_21.901,3.868,30.2,0,0.758,0,0,0,0, ,0,0,0,0,0, ,328.2,-72.5,702.7,36.9,9,-21.7,25,429.952,-125.539,727.426,12.1642,-1.13567,-7.35984,
2026_07_06_20_58_21.921,3.868,30.2,0,0.76,0,0,0,0, ,0,0,0,0,0, ,427.9,-102.6,659.7,16.4,31.3,-18.8,25,426.789,-123.224,724.609,13.047,0.161425,-8.14533,
2026_07_06_20_58_21.940,3.868,30.1,0,0.76,0,0,0,0, ,0,0,0,0,0, ,343.7,-35.2,654.6,11.1,34.4,-14.9,25,424.291,-119.914,720.498,13.0898,2.15338,-8.67577,
2026_07_06_20_58_21.960,3.868,30.2,0,0.76,0,0,0,0.001, ,0,0,0,0,0, ,196.8,69.8,721.5,15.6,8.9,-18.2,25,414.904,-111.552,718.521,13.1057,3.34146,-9.15561,
2026_07_06_20_58_21.980,3.868,30.3,0,0.761,0,0,0,0, ,0,0,0,0,0, ,256.8,26.8,630.6,21.5,12.6,-21.9,25,403.442,-101.811,715.933,13.4374,3.79292,-9.81948,
2026_07_06_20_58_22.000,3.868,30.3,0,0.76,0,0,0,0, ,0,0,0,0,0, ,344.7,-35.7,625.2,20.2,33.3,-22.4,25,397.184,-95.8783,710.568,13.8891,4.9603,-10.5709,
2026_07_06_20_58_22.020,3.868,30.1,0,0.76,0,0,0,0, ,0,0,0,0,0, ,344.9,-14.7,714.9,15.2,38.6,-15.3,25,393.992,-91.5714,708.099,14.1213,6.84874,-11.0754,
2026_07_06_20_58_22.039,3.868,30.2,0,0.759,0,0,0,0.001, ,0,0,0,0,0, ,258.5,40.8,821.1,0.9,17.2,-8,25,388.368,-85.196,711.749,13.7514,8.13155,-11.1104,
2026_07_06_20_58_22.060,3.868,30.2,0,0.76,0,0,0,0, ,0,0,0,0,0, ,360.9,-8.7,803.3,-7.8,30.1,-2.6,25,383.574,-79.0263,717.871,12.7032,9.0772,-10.7563,
2026_07_06_20_58_22.079,3.868,30.1,0,0.759,0,0,0,0, ,0,0,0,0,0, ,370.9,-42.6,758.7,-5.5,48,-2.8,25,382.497,-75.7737,721.717,11.5238,10.9037,-10.2654,
2026_07_06_20_58_22.099,3.868,30.2,0,0.759,0,0,0,0.001, ,0,0,0,0,0, ,313.9,-13.9,878.1,-5.4,54,-4.2,25,380.053,-72.8777,727.609,10.4895,13.347,-9.85313,
2026_07_06_20_58_22.119,3.868,30.1,0,0.76,0,0,0,0, ,0,0,0,0,0, ,315,-30.2,904.9,-24.5,52.9,3.6,25,376.056,-69.7804,737.596,8.93927,15.7908,-9.27099,
2026_07_06_20_58_22.139,3.868,30.1,0,0.758,0,0,0,0.001, ,0,0,0,0,0, ,390.2,-120.2,879.1,-24.8,68.6,6.7,25,374.626,-70.1107,747.005,6.89242,18.5305,-8.39221,
2026_07_06_20_58_22.158,3.868,30.2,0,0.759,0,0,0,0.001, ,0,0,0,0,0, ,421.8,-159.4,890.5,-20.4,70.8,5.2,25,376.538,-74.3574,755.402,5.09523,21.6487,-7.51823,
2026_07_06_20_58_22.178,3.868,30.1,0,0.76,0,0,0,0, ,0,0,0,0,0, ,396.6,-172.2,986.8,-23.1,73.2,11.2,25,378.529,-79.9296,766.569,3.45935,24.7169,-6.5604,
2026_07_06_20_58_22.198,3.868,30.2,0,0.76,0,0,0,0.001, ,0,0,0,0,0, ,282.4,-178.8,1041,-33.1,76.3,18.4,25,376.15,-85.7535,781.64,1.5362,27.7658,-5.25875,
2026_07_06_20_58_22.217,3.868,30.1,0,0.758,0,0,0,0, ,0,0,0,0,0, ,205.9,-205.5,1017.4,-33.4,71.6,15.6,25,368.106,-92.237,796.726,-0.583583,30.5802,-3.90236,
2026_07_06_20_58_22.237,3.868,30.1,0,0.759,0,0,0,0.001, ,0,0,0,0,0, ,121.8,-218.8,997.9,-30.3,67.9,14.2,25,355.66,-99.5442,809.579,-2.48888,32.9671,-2.75659,
2026_07_06_20_58_22.257,3.868,30.2,0,0.759,0,0,0,0.001, ,0,0,0,0,0, ,63.4,-245.2,1025.5,-25.6,72.3,13.8,25,339.629,-107.616,821.896,-4.04042,35.2299,-1.73548,
2026_07_06_20_58_22.277,3.868,30.1,0,0.759,0,0,0,0, ,0,0,0,0,0, ,47.9,-293.8,1049.1,-16.9,76,13.8,25,322.324,-117.481,835.022,-5.08913,37.6016,-0.788791,
2026_07_06_20_58_22.297,3.868,30.2,0,0.759,0,0,0,0.001, ,0,0,0,0,0, ,42.8,-319,1057.7,-8.6,72.7,8,25,305.446,-128.993,848.33,-5.55596,39.8409,-0.0765055,
2026_07_06_20_58_22.317,3.868,30.1,0,0.759,0,0,0,0, ,0,0,0,0,0, ,1,-250.8,1146.1,-4.6,59.9,0,25,288.168,-138.493,863.782,-5.61958,41.4533,0.171906,
2026_07_06_20_58_22.336,3.868,30.2,0,0.76,0,0,0,0.001, ,0,0,0,0,0, ,1.2,-179,1224.9,-0.6,57.9,4.7,25,270.674,-143.149,883.386,-5.43558,42.5164,0.304634,
2026_07_06_20_58_22.356,3.868,30.2,0,0.759,0,0,0,0, ,0,0,0,0,0, ,5.2,-197.6,1267.8,10.7,52.1,5,25,254.375,-145.901,905.504,-4.79661,43.2772,0.581617,
2026_07_06_20_58_22.376,3.868,30.2,0,0.759,0,0,0,0, ,0,0,0,0,0, ,-21.7,-221.1,1259.3,13.9,34.9,1.6,25,238.372,-149.767,927.323,-3.75479,43.2907,0.747269,
2026_07_06_20_58_22.396,3.868,30.1,0,0.758,0,0,0,0, ,0,0,0,0,0, ,-59.5,-157.7,1303.3,16.2,23.8,-3.2,25,221.372,-152.182,948.893,-2.60887,42.4412,0.652982,
2026_07_06_20_58_22.416,3.868,30.2,0,0.759,0,0,0,0.001, ,0,0,0,0,0, ,26.8,-99.6,1344.9,19.6,25,-6.2,25,206.886,-150.748,971.757,-1.35911,41.3418,0.326785,
2026_07_06_20_58_22.435,3.868,30.2,0,0.759,0,0,0,0, ,0,0,0,0,0, ,68.2,-123.5,1329.4,17.3,18.1,2.9,25,197.173,-148.36,994.024,-0.151993,40.1358,0.206324,
2026_07_06_20_58_22.455,3.868,30.2,0,0.76,0,0,0,0, ,0,0,0,0,0, ,8.6,-139.6,1224.6,15.5,2.6,6.5,25,187.498,-147.335,1011.27,0.856644,38.3207,0.480158,
2026_07_06_20_58_22.474,3.868,30.1,0,0.76,0,0,0,0, ,0,0,0,0,0, ,-42.7,-17.5,1227,29.6,-11.3,-3,25,175.033,-143.144,1024.34,2.17858,35.7205,0.557539,
2026_07_06_20_58_22.495,3.868,30.3,0,0.76,0,0,0,0.001, ,0,0,0,0,0, ,63.1,-51,1282.4,37.5,-1.3,-2.4,25,164.989,-136.508,1038.38,4.09028,33.1598,0.359032,
2026_07_06_20_58_22.515,3.868,30.2,0,0.759,0,0,0,0, ,0,0,0,0,0, ,86.1,-98,1326.9,31.8,-5.4,-2.8,25,159.481,-132.729,1054.6,5.95251,30.935,0.178716,
2026_07_06_20_58_22.534,3.868,30.2,0,0.758,0,0,0,0, ,0,0,0,0,0, ,81.7,-117.6,1277.8,17.9,-14.3,-2.1,25,154.875,-131.21,1069.7,7.10408,28.4497,0.0185291,
2026_07_06_20_58_22.554,3.868,30.2,0,0.758,0,0,0,0, ,0,0,0,0,0, ,27.3,-18.1,1222.6,13.4,-19.2,-1,25,148.758,-127.349,1080.7,7.62484,25.6953,-0.0770532,
2026_07_06_20_58_22.574,3.868,30.2,0,0.761,0,0,0,0, ,0,0,0,0,0, ,0.2,21.8,1187,21.6,-4.3,-6.4,25,140.531,-119.476,1088.26,8.22661,23.4135,-0.297826,
2026_07_06_20_58_22.593,3.868,30.2,0,0.76,0,0,0,0, ,0,0,0,0,0, ,60.6,15.6,1217.5,17.6,-4.7,-5.6,25,133.82,-111.056,1095.21,8.91968,21.7125,-0.645303,
2026_07_06_20_58_22.613,3.868,30.1,0,0.76,0,0,0,0, ,0,0,0,0,0, ,85.8,-20.8,1193.1,7.1,-9.4,-0.9,25,130.126,-104.447,1101.92,9.12871,19.9598,-0.804026,
2026_07_06_20_58_22.633,3.868,30.2,0,0.76,0,0,0,0.001, ,0,0,0,0,0, ,87.4,-16.3,1130.3,0.9,-14.6,-1.8,25,127.474,-99.2127,1105.56,8.81618,18.0123,-0.837297,
2026_07_06_20_58_22.652,3.868,30.2,0,0.759,0,0,0,0, ,0,0,0,0,0, ,66.1,-15,1061.5,-1.2,-12.4,-4,25,124.383,-94.1206,1104.97,8.2698,16.092,-0.962993,
2026_07_06_20_58_22.673,3.868,30.2,0,0.76,0,0,0,0, ,0,0,0,0,0, ,30.2,-31.2,1006.7,3.3,-4,-8.1,25,119.737,-89.7928,1100.65,7.82985,14.6117,-1.27298,
2026_07_06_20_58_22.693,3.868,30.1,0,0.76,0,0,0,0, ,0,0,0,0,0, ,43.5,-15.6,1043.3,6.4,-1.6,-10.9,25,114.686,-85.747,1096.04,7.64826,13.5507,-1.77432,
2026_07_06_20_58_22.713,3.868,30.2,0,0.761,0,0,0,0.001, ,0,0,0,0,0, ,83,11.7,1092,2.2,0.9,-11.1,25,111.552,-80.6406,1094.31,7.44423,12.7036,-2.33651,
2026_07_06_20_58_22.733,3.868,30.1,0,0.76,0,0,0,0, ,0,0,0,0,0, ,95.5,30.5,1071.2,-3.9,-1,-9.1,25,110.193,-74.4408,1093.54,6.9388,11.9264,-2.80959,
2026_07_06_20_58_22.752,3.868,30.1,0,0.762,0,0,0,0, ,0,0,0,0,0, ,91,24.9,1023.4,-3,-2.1,-7.6,25,109.16,-68.2166,1090.72,6.30573,11.1052,-3.14721,
2026_07_06_20_58_22.772,3.868,30.1,0,0.76,0,0,0,0.001, ,0,0,0,0,0, ,90.3,30.3,1006.9,-0.1,-3.7,-5.6,25,108.032,-62.3777,1086.12,5.82702,10.2518,-3.35762,
2026_07_06_20_58_22.792,3.868,30.1,0,0.759,0,0,0,0, ,0,0,0,0,0, ,84.5,25.3,1014.7,-0.9,-2.7,-5.1,25,106.775,-56.8825,1081.53,5.44147,9.43204,-3.47903,
2026_07_06_20_58_22.811,3.868,30.1,0,0.76,0,0,0,0, ,0,0,0,0,0, ,91.1,-0.8,1005.7,-6.2,-0.5,-4.6,25,105.619,-52.6698,1077.18,4.89355,8.75977,-3.56257,
2026_07_06_20_58_22.832,3.868,30.2,0,0.76,0,0,0,0, ,0,0,0,0,0, ,86.3,-16.2,974.9,-6.2,0.9,-4.3,25,104.588,-49.9782,1071.89,4.21754,8.23816,-3.61665,
2026_07_06_20_58_22.851,3.868,30.1,0,0.76,0,0,0,0, ,0,0,0,0,0, ,82,-9.2,975.8,-5.1,0.3,-3.6,25,103.342,-47.7065,1066,3.61624,7.77271,-3.63696,
2026_07_06_20_58_22.871,3.868,30.2,0,0.76,0,0,0,0, ,0,0,0,0,0, ,66.5,0.3,977.2,-3.1,0.5,-2.8,25,101.57,-45.0706,1060.55,3.14603,7.32344,-3.61033,
2026_07_06_20_58_22.891,3.868,30.2,0,0.759,0,0,0,0, ,0,0,0,0,0, ,75.6,-7.8,994,-1.9,0.4,-3,25,99.7098,-42.5526,1055.98,2.80197,6.90459,-3.56705,
2026_07_06_20_58_22.910,3.868,30.2,0,0.759,0,0,0,0, ,0,0,0,0,0, ,77,-15.2,1004.3,0.1,-1.6,-2,25,98.2833,-40.6604,1052.52,2.57638,6.44728,-3.50203,
2026_07_06_20_58_22.930,3.868,30.3,0,0.758,0,0,0,0, ,0,0,0,0,0, ,63.8,-21.2,988.4,2.2,-2.5,-2.3,25,96.5842,-39.2917,1049.1,2.48946,5.92947,-3.41964,
2026_07_06_20_58_22.951,3.868,30.1,0,0.759,0,0,0,0, ,0,0,0,0,0, ,67.7,-27.9,987.1,3.6,-0.7,-2.5,25,94.7052,-38.3934,1045.36,2.51448,5.47065,-3.3575,
2026_07_06_20_58_22.970,3.868,30.2,0,0.76,0,0,0,0, ,0,0,0,0,0, ,64.8,-30.1,991.6,-0.6,-0.1,-1.6,25,92.9712,-37.8209,1041.94,2.45266,5.1129,-3.27783,
2026_07_06_20_58_22.990,3.868,30.1,0,0.761,0,0,0,0, ,0,0,0,0,0, ,68.2,-39.1,979,-4.5,2.4,0,25,91.3581,-37.6247,1038.49,2.14781,4.87142,-3.12683,
2026_07_06_20_58_23.010,3.868,30.2,0,0.76,0,0,0,0, ,0,0,0,0,0, ,66,-48.5,969.7,-2.8,3.3,0.1,25,89.8799,-38.001,1034.58,1.79451,4.74824,-2.93325,
2026_07_06_20_58_23.029,3.868,30.2,0,0.761,0,0,0,0, ,0,0,0,0,0, ,57.2,-44.1,976,-0.7,0.9,-0.4,25,88.1566,-38.5067,1030.82,1.57851,4.58686,-2.76364,
2026_07_06_20_58_23.049,3.868,30.2,0,0.759,0,0,0,0, ,0,0,0,0,0, ,59,-42.8,988.6,1.4,1.7,-2.9,25,86.325,-38.8079,1027.87,1.50365,4.38657,-2.69578,
2026_07_06_20_58_23.069,3.868,30.2,0,0.759,0,0,0,0, ,0,0,0,0,0, ,58.7,-36,1002.4,0.1,0.4,-2.4,25,84.6508,-38.844,1025.89,1.45773,4.18324,-2.69299,
2026_07_06_20_58_23.089,3.868,30.2,0,0.759,0,0,0,0, ,0,0,0,0,0, ,60.6,-27.3,998.4,-0.7,0.6,-2.1,25,83.1273,-38.4056,1024.34,1.35061,3.9588,-2.66599,
2026_07_06_20_58_23.108,3.868,30.2,0,0.759,0,0,0,0, ,0,0,0,0,0, ,63.9,-25.1,996.5,-0.9,2.2,-1.9,25,81.8551,-37.6618,1022.7,1.21956,3.80287,-2.62541,
2026_07_06_20_58_23.128,3.868,30.2,0,0.76,0,0,0,0, ,0,0,0,0,0, ,68.2,-31,1000.7,1,2,-2.3,25,80.8919,-37.0761,1021.23,1.14829,3.6991,-2.59339,
2026_07_06_20_58_23.154,3.868,30.2,0,0.76,0,0,0,0, ,0,0,0,0,0, ,81,-20.1,1037.8,1.7,-0.7,-1.2,25,80.5085,-36.3738,1021.11,1.16058,3.5133,-2.542,
2026_07_06_20_58_23.172,3.868,30.1,0,0.759,0,0,0,0, ,0,0,0,0,0, ,80.4,-37.9,1088.3,0.9,-19,0.2,25,80.5202,-35.9244,1023.67,1.16908,2.69897,-2.41756,
2026_07_06_20_58_23.188,3.868,30.2,0,0.759,0,0,0,0, ,0,0,0,0,0, ,9.2,-26.7,981.5,-1.4,-3.6,0,25,78.3435,-35.7036,1024.35,1.0826,1.84591,-2.26415,
2026_07_06_20_58_23.208,3.868,30.2,0,0.759,0,0,0,0, ,0,0,0,0,0, ,46.6,-31.6,1003.2,-0.4,1.7,-5.2,25,75.2696,-35.3042,1022.4,0.961789,1.67553,-2.28462,
2026_07_06_20_58_23.227,3.868,30.1,0,0.759,0,0,0,0, ,0,0,0,0,0, ,88.2,-29.1,1006.3,-1,0.9,-5,25,74.79,-35.0023,1021.33,0.860523,1.65265,-2.45618,
2026_07_06_20_58_23.248,3.868,30.2,0,0.759,0,0,0,0, ,0,0,0,0,0, ,84.3,-22.4,985.1,0.2,-0.9,-3.3,25,75.4884,-34.4385,1019.76,0.78371,1.55194,-2.5594,
2026_07_06_20_58_23.267,3.868,30.2,0,0.76,0,0,0,0, ,0,0,0,0,0, ,75.1,-8.5,984,3.9,-1.4,-2.5,25,75.745,-33.2814,1017.62,0.860875,1.38729,-2.58015,
2026_07_06_20_58_23.287,3.868,30.1,0,0.759,0,0,0,0, ,0,0,0,0,0, ,67.1,-13.4,1006.8,5.3,-0.3,-3.4,25,75.462,-31.9206,1016.26,1.08873,1.25096,-2.60269,
2026_07_06_20_58_23.307,3.868,30.1,0,0.759,0,0,0,0, ,0,0,0,0,0, ,68.9,-22.8,1013.1,2.2,1.4,-3.6,25,75.0073,-31.0784,1015.88,1.2509,1.20824,-2.65737,
2026_07_06_20_58_23.326,3.868,30.2,0,0.76,0,0,0,0, ,0,0,0,0,0, ,67.8,-16.9,1008.4,-0.2,1.6,-3.6,25,74.6016,-30.3941,1015.57,1.23561,1.22602,-2.71481,
2026_07_06_20_58_23.347,3.868,30.2,0,0.759,0,0,0,0, ,0,0,0,0,0, ,77.7,-17.3,998.1,-1.6,0.7,-3.1,25,74.4888,-29.584,1014.82,1.10547,1.22139,-2.75352,
2026_07_06_20_58_23.366,3.868,30.2,0,0.76,0,0,0,0, ,0,0,0,0,0, ,73.4,-17.5,986,-0.3,-2.1,-1.6,25,74.5534,-28.8416,1013.43,0.980216,1.1043,-2.72893,
2026_07_06_20_58_23.386,3.868,30.2,0,0.759,0,0,0,0, ,0,0,0,0,0, ,57,-11.3,990.1,2.1,-3.1,-1.3,25,73.9834,-27.9615,1011.88,0.975328,0.878572,-2.65099,
2026_07_06_20_58_23.405,3.868,30.2,0,0.76,0,0,0,0, ,0,0,0,0,0, ,69.7,-13.7,1007.2,2.1,-1.5,-2.8,25,73.3355,-27.0193,1011.08,1.04386,0.684878,-2.61437,
2026_07_06_20_58_23.425,3.868,30.2,0,0.759,0,0,0,0, ,0,0,0,0,0, ,67.2,-20.2,1012,0.5,-1,-2.1,25,73.0378,-26.4057,1010.99,1.05947,0.566972,-2.60435,
2026_07_06_20_58_23.445,3.868,30.2,0,0.759,0,0,0,0, ,0,0,0,0,0, ,68.3,-27.9,997.8,-0.3,0.4,-2.4,25,72.7155,-26.2622,1010.62,1.001,0.51414,-2.58276,
2026_07_06_20_58_23.465,3.868,30.2,0,0.759,0,0,0,0, ,0,0,0,0,0, ,72.7,-21.8,997,-0.1,-2,-2.4,25,72.5805,-26.1761,1009.81,0.927817,0.43406,-2.57162,
2026_07_06_20_58_23.485,3.868,30.2,0,0.759,0,0,0,0, ,0,0,0,0,0, ,66,-17.7,997.4,0.4,-2,-2.5,25,72.3837,-25.7845,1009.04,0.880419,0.285735,-2.56421,
2026_07_06_20_58_23.505,3.868,30.2,0,0.759,0,0,0,0, ,0,0,0,0,0, ,67.1,-11.1,1010,0.6,0,-2.8,25,72.0282,-25.0908,1008.72,0.857237,0.207385,-2.56944,
2026_07_06_20_58_23.524,3.868,30.1,0,0.759,0,0,0,0, ,0,0,0,0,0, ,69.4,-12,1000,-0.6,2.2,-3,25,71.7979,-24.2657,1008.49,0.804999,0.261779,-2.58958,
2026_07_06_20_58_23.544,3.868,30.2,0,0.76,0,0,0,0, ,0,0,0,0,0, ,75.8,-18.3,994.6,-0.6,2.7,-3.1,25,71.8468,-23.7102,1007.81,0.719382,0.395124,-2.61764,
2026_07_06_20_58_23.565,3.868,30.2,0,0.76,0,0,0,0, ,0,0,0,0,0, ,73.6,-22.7,996,0.7,-0.1,-2.9,25,72.0207,-23.5145,1007.05,0.678591,0.450264,-2.64094,
2026_07_06_20_58_23.584,3.868,30.1,0,0.761,0,0,0,0, ,0,0,0,0,0, ,70.8,-17.9,1001.3,1.1,-0.3,-3.2,25,72.0316,-23.3187,1006.53,0.692084,0.410639,-2.66587,
2026_07_06_20_58_23.604,3.868,30.2,0,0.759,0,0,0,0, ,0,0,0,0,0, ,69.8,-10.6,1004.3,0.4,0,-2.2,25,71.9261,-22.766,1006.31,0.695613,0.376475,-2.66795,
2026_07_06_20_58_23.624,3.868,30.2,0,0.76,0,0,0,0, ,0,0,0,0,0, ,69.4,-6.4,997.1,0.3,0.7,-2.2,25,71.7844,-21.8967,1005.96,0.674552,0.374862,-2.63943,
2026_07_06_20_58_23.644,3.868,30.2,0,0.76,0,0,0,0, ,0,0,0,0,0, ,71.1,-14.2,996.3,1.6,0.9,-2.2,25,71.6909,-21.19,1005.4,0.691337,0.400769,-2.61265,
2026_07_06_20_58_23.663,3.868,30.1,0,0.761,0,0,0,0, ,0,0,0,0,0, ,64.9,-19.4,1001.5,1.1,0.1,-2.6,25,71.4659,-20.9225,1005,0.731474,0.406815,-2.5997,
2026_07_06_20_58_23.684,3.868,30.2,0,0.759,0,0,0,0, ,0,0,0,0,0, ,66.1,-20.7,1004.5,0,0,-2.5,25,71.1024,-20.8693,1004.88,0.720416,0.385072,-2.59667,
2026_07_06_20_58_23.703,3.868,30.1,0,0.76,0,0,0,0, ,0,0,0,0,0, ,68.4,-10.8,997.3,-0.8,-0.5,-1.3,25,70.8676,-20.5574,1004.64,0.652141,0.346372,-2.55421,
2026_07_06_20_58_23.723,3.868,30.1,0,0.76,0,0,0,0, ,0,0,0,0,0, ,62.9,-9.2,990.1,1,0.2,-1.1,25,70.5497,-19.914,1003.97,0.618494,0.316125,-2.47169,
2026_07_06_20_58_23.742,3.868,30.2,0,0.759,0,0,0,0, ,0,0,0,0,0, ,63.3,-18.5,996,2.5,0.1,-1.7,25,70.0957,-19.5445,1003.31,0.687446,0.306001,-2.40639,
2026_07_06_20_58_23.762,3.868,30.1,0,0.76,0,0,0,0, ,0,0,0,0,0, ,59.4,-17.3,1017.2,1.7,-1,-2.6,25,69.5628,-19.4443,1003.51,0.773523,0.259933,-2.39076,
2026_07_06_20_58_23.782,3.868,30.2,0,0.759,0,0,0,0, ,0,0,0,0,0, ,71.4,-9.5,1008.4,-0.8,1.2,-2.9,25,69.3091,-19.076,1004.07,0.753808,0.250187,-2.41265,
2026_07_06_20_58_23.802,3.868,30.1,0,0.759,0,0,0,0, ,0,0,0,0,0, ,69.3,-0.3,999.8,-1.6,1.1,-1.7,25,69.3725,-18.2121,1004.08,0.634748,0.305019,-2.40579,
2026_07_06_20_58_23.821,3.868,30.2,0,0.76,0,0,0,0, ,0,0,0,0,0, ,70,-3.7,985.5,0.9,1.2,-2,25,69.3894,-17.2242,1003.38,0.57474,0.35651,-2.37192,
2026_07_06_20_58_23.841,3.868,30.1,0,0.76,0,0,0,0, ,0,0,0,0,0, ,68.8,-8.1,1001.4,2.1,0,-1.9,25,69.3901,-16.5341,1002.77,0.631123,0.371348,-2.34621,
2026_07_06_20_58_23.861,3.868,30.2,0,0.76,0,0,0,0, ,0,0,0,0,0, ,58.3,-17.3,1011.9,1,-0.1,-2.4,25,69.0342,-16.3005,1003.01,0.687117,0.345672,-2.33425,
2026_07_06_20_58_23.881,3.868,30.2,0,0.759,0,0,0,0, ,0,0,0,0,0, ,61.1,-6.8,1011.7,-1.2,0,-3.5,25,68.4654,-16.0415,1003.55,0.639152,0.321561,-2.37177,
2026_07_06_20_58_23.901,3.868,30.1,0,0.76,0,0,0,0, ,0,0,0,0,0, ,52.6,-4.1,985.5,-0.6,2,-3.3,25,67.7576,-15.3961,1003.24,0.54536,0.362903,-2.43443,
2026_07_06_20_58_23.921,3.868,30.2,0,0.76,0,0,0,0, ,0,0,0,0,0, ,70,0,997.5,1.3,0.8,-3.5,25,67.3641,-14.5828,1002.53,0.533455,0.426101,-2.49327,
2026_07_06_20_58_23.941,3.868,30.1,0,0.76,0,0,0,0, ,0,0,0,0,0, ,75.4,-7.3,1005.3,0.4,0.7,-2,25,67.6892,-13.9166,1002.46,0.552745,0.445839,-2.50892,
2026_07_06_20_58_23.960,3.868,30.2,0,0.759,0,0,0,0, ,0,0,0,0,0, ,65.3,-7.4,994.2,-0.7,-1.1,-1.7,25,67.8514,-13.5164,1002.3,0.509921,0.406483,-2.46876,
2026_07_06_20_58_23.980,3.868,30.2,0,0.76,0,0,0,0, ,0,0,0,0,0, ,57.2,-5,997.4,0.5,-0.1,-1.9,25,67.4491,-13.0706,1001.9,0.472754,0.34515,-2.42801,
2026_07_06_20_58_24.000,3.868,30.1,0,0.759,0,0,0,0, ,0,0,0,0,0, ,65.9,-8.7,1010.1,0.2,0,-1.6,25,67.0896,-12.6915,1002.01,0.465274,0.321071,-2.38669,
2026_07_06_20_58_24.019,3.868,30.2,0,0.76,0,0,0,0, ,0,0,0,0,0, ,67.7,-10.6,1004.8,-1.3,0.8,-1.7,25,67.072,-12.5062,1002.34,0.403406,0.325881,-2.3418,
2026_07_06_20_58_24.039,3.868,30.1,0,0.76,0,0,0,0, ,0,0,0,0,0, ,63.9,-12,990.4,-0.9,0.7,-1.4,25,66.9945,-12.4327,1002.05,0.311792,0.351725,-2.29355,
2026_07_06_20_58_24.059,3.868,30.1,0,0.76,0,0,0,0, ,0,0,0,0,0, ,59.5,-12.6,1002.6,0.5,-1.6,-1.3,25,66.6718,-12.4246,1001.72,0.280605,0.30287,-2.23605,
2026_07_06_20_58_24.079,3.868,30.2,0,0.759,0,0,0,0, ,0,0,0,0,0, ,53.4,-13.5,1007.9,0.3,-0.8,-2,25,66.0489,-12.4627,1001.93,0.28788,0.211289,-2.20034,
2026_07_06_20_58_24.100,3.868,30.2,0,0.76,0,0,0,0, ,0,0,0,0,0, ,61.2,-14.5,1005.1,-1.1,-0.6,-1.3,25,65.5158,-12.5564,1002.21,0.245963,0.155757,-2.1668,
2026_07_06_20_58_24.121,3.868,30.2,0,0.759,0,0,0,0, ,0,0,0,0,0, ,61.2,-13.3,990.4,-0.3,-2.2,-1.6,25,65.2528,-12.6382,1001.94,0.188318,0.0609535,-2.12312,
2026_07_06_20_58_24.138,3.868,30.2,0,0.76,0,0,0,0, ,0,0,0,0,0, ,54.6,1.2,996.4,3.1,-2.6,-1.8,25,64.8048,-12.2368,1001.42,0.262155,-0.0890109,-2.09734,
2026_07_06_20_58_24.158,3.868,30.1,0,0.76,0,0,0,0, ,0,0,0,0,0, ,54.4,6.8,1005.7,4.4,-0.1,-2.7,25,64.1768,-11.2473,1001.4,0.474695,-0.165852,-2.10664,
2026_07_06_20_58_24.178,3.868,30.2,0,0.759,0,0,0,0, ,0,0,0,0,0, ,65,4.2,1016.7,2.5,1.6,-2.9,25,63.904,-10.2268,1001.99,0.656003,-0.110043,-2.14889,
2026_07_06_20_58_24.197,3.868,30.2,0,0.758,0,0,0,0, ,0,0,0,0,0, ,72.1,10.1,1009.8,-0.2,3.1,-2.5,25,64.1871,-9.16791,1002.68,0.686106,0.0398662,-2.18248,
2026_07_06_20_58_24.217,3.868,30.1,0,0.76,0,0,0,0, ,0,0,0,0,0, ,81.2,11.4,1002.3,-1.5,1.3,-1.7,25,64.9466,-7.95416,1002.88,0.592499,0.171499,-2.17745,
2026_07_06_20_58_24.237,3.868,30.1,0,0.759,0,0,0,0, ,0,0,0,0,0, ,83.1,7.9,1000.8,-1.6,0.2,-0.5,25,65.9949,-6.88141,1002.8,0.461941,0.206752,-2.11179,
2026_07_06_20_58_24.263,3.868,30.3,0,0.759,0,0,0,0, ,0,0,0,0,0, ,64.9,2.6,988.4,-0.8,-2,-0.2,25,66.4827,-6.14215,1002.3,0.360666,0.139309,-2.00443,
2026_07_06_20_58_24.282,3.868,30.2,0,0.759,0,0,0,0, ,0,0,0,0,0, ,55.4,-1.4,990.3,0.8,-1.5,-0.7,25,66.0968,-5.7313,1001.51,0.338688,0.0241793,-1.90971,
2026_07_06_20_58_24.296,3.868,30.1,0,0.76,0,0,0,0, ,0,0,0,0,0, ,62.6,-9.5,1005.9,0.2,-1.3,-0.7,25,65.6644,-5.71416,1001.31,0.348518,-0.0626066,-1.83599,
2026_07_06_20_58_24.317,3.868,30.2,0,0.76,0,0,0,0, ,0,0,0,0,0, ,64.2,-6.5,1010,-0.7,-2.9,-0.6,25,65.5264,-5.85345,1001.71,0.312046,-0.18676,-1.76372,
2026_07_06_20_58_24.336,3.868,30.2,0,0.759,0,0,0,0, ,0,0,0,0,0, ,58.8,0.3,1004.5,-0.2,-3.3,-1,25,65.281,-5.68566,1002.05,0.265609,-0.364286,-1.705,
2026_07_06_20_58_24.357,3.868,30.1,0,0.76,0,0,0,0, ,0,0,0,0,0, ,63.4,-3,1006.4,-0.3,-2.6,-1.2,25,65.0262,-5.42146,1002.26,0.234189,-0.521853,-1.66813,
2026_07_06_20_58_24.376,3.868,30.2,0,0.759,0,0,0,0, ,0,0,0,0,0, ,64.2,-11.7,995.9,-1.6,-2.9,-1.1,25,64.9515,-5.53898,1002.19,0.162027,-0.65763,-1.63656,
2026_07_06_20_58_24.396,3.868,30.1,0,0.759,0,0,0,0, ,0,0,0,0,0, ,48.9,-12.4,976.1,-1,-1.7,-1.5,25,64.4395,-5.93574,1001.2,0.0729351,-0.757712,-1.61605,
2026_07_06_20_58_24.416,3.868,30.1,0,0.759,0,0,0,0, ,0,0,0,0,0, ,52.1,-11.8,983.5,1.1,-0.2,-2.4,25,63.5901,-6.31138,999.897,0.0715375,-0.76943,-1.6364,
2026_07_06_20_58_24.436,3.868,30.2,0,0.759,0,0,0,0, ,0,0,0,0,0, ,63.9,-11.4,1002.1,0.7,0.4,-2.8,25,63.2495,-6.63365,999.465,0.122022,-0.716449,-1.69512,
2026_07_06_20_58_24.455,3.868,30.2,0,0.759,0,0,0,0, ,0,0,0,0,0, ,72.8,-7.3,1006.9,-1.1,-1,-2.7,25,63.5603,-6.79918,999.772,0.102399,-0.691072,-1.7594,
2026_07_06_20_58_24.475,3.868,30.3,0,0.759,0,0,0,0, ,0,0,0,0,0, ,57.6,-1.2,982.6,-1,-0.6,-3,25,63.6602,-6.64384,999.466,0.0321745,-0.697709,-1.82586,
2026_07_06_20_58_24.499,3.868,30.1,0,0.759,0,0,0,0, ,0,0,0,0,0, ,59.3,5.2,987.1,0.5,0,-3,25,63.3427,-6.11711,998.575,0.0149795,-0.673474,-1.89741,
2026_07_06_20_58_24.520,3.868,30.1,0,0.759,0,0,0,0, ,0,0,0,0,0, ,74.2,1.3,1003.9,0.8,0.2,-2.9,25,63.5503,-5.5463,998.388,0.053676,-0.62634,-1.96155,
2026_07_06_20_58_24.534,3.868,30.2,0,0.759,0,0,0,0, ,0,0,0,0,0, ,77.6,-0.1,1004.5,-0.1,-1.6,-2.3,25,64.3029,-5.17176,998.742,0.0717333,-0.630829,-2.00045,
2026_07_06_20_58_24.553,3.868,30.1,0,0.758,0,0,0,0, ,0,0,0,0,0, ,67.1,8.5,996.5,-0.6,-2.1,-2.1,25,64.7933,-4.60067,998.849,0.0460339,-0.705122,-2.01261,
2026_07_06_20_58_24.574,3.868,30.1,0,0.759,0,0,0,0, ,0,0,0,0,0, ,55.1,6.9,987.5,0.5,-0.2,-2.1,25,64.5682,-3.8511,998.432,0.0401818,-0.732232,-2.01794,
2026_07_06_20_58_24.594,3.868,30.1,0,0.76,0,0,0,0, ,0,0,0,0,0, ,58.4,4.2,987.3,2,1.1,-2.7,25,64.0918,-3.27822,997.759,0.113905,-0.66019,-2.04122,
2026_07_06_20_58_24.613,3.868,30.2,0,0.76,0,0,0,0, ,0,0,0,0,0, ,79.8,3.9,1025,2.6,-0.5,-2.9,25,64.397,-2.83165,998.271,0.24712,-0.601678,-2.08746,
2026_07_06_20_58_24.634,3.868,30.1,0,0.759,0,0,0,0, ,0,0,0,0,0, ,76.1,9.6,1042.3,0.6,-4.9,-2.2,25,65.2229,-2.24777,1000.43,0.329561,-0.729545,-2.11565,
2026_07_06_20_58_24.653,3.868,30.2,0,0.759,0,0,0,0, ,0,0,0,0,0, ,57.4,4.8,996.2,-2.3,1.1,-1.8,25,65.3159,-1.67205,1001.57,0.257682,-0.800869,-2.1086,
2026_07_06_20_58_24.673,3.868,30.2,0,0.759,0,0,0,0, ,0,0,0,0,0, ,69.8,7,993,-1.3,0.6,-2,25,65.2114,-1.21063,1001.15,0.132292,-0.700269,-2.09589,
2026_07_06_20_58_24.692,3.868,30.2,0,0.759,0,0,0,0, ,0,0,0,0,0, ,69.3,6.2,988.7,0.3,0,-2,25,65.4757,-0.734666,1000.52,0.0937616,-0.639316,-2.09004,
2026_07_06_20_58_24.713,3.868,30.2,0,0.759,0,0,0,0, ,0,0,0,0,0, ,62.1,-1,995.1,1.9,-0.3,-1.9,25,65.4894,-0.53146,999.996,0.155079,-0.609498,-2.08151,
2026_07_06_20_58_24.732,3.868,30.1,0,0.759,0,0,0,0, ,0,0,0,0,0, ,66.1,-0.7,1011.2,0.7,-0.6,-2.3,25,65.4047,-0.550871,1000.19,0.224848,-0.599778,-2.08264,
2026_07_06_20_58_24.759,3.868,30.2,0,0.759,0,0,0,0, ,0,0,0,0,0, ,61.6,1.8,1006.3,-1,-0.4,-1.8,25,65.31,-0.483787,1000.71,0.202006,-0.593698,-2.08065,
2026_07_06_20_58_24.772,3.868,30.1,0,0.759,0,0,0,0, ,0,0,0,0,0, ,61.7,5.3,996.2,-1.1,-0.7,-2.9,25,65.087,-0.237978,1000.74,0.125711,-0.591035,-2.09706,
2026_07_06_20_58_24.792,3.868,30,0,0.761,0,0,0,0, ,0,0,0,0,0, ,63.7,6.7,984.2,-1,1,-2.6,25,64.9415,0.142149,1000.1,0.0540666,-0.545879,-2.13685,
2026_07_06_20_58_24.811,3.868,30.1,0,0.759,0,0,0,0, ,0,0,0,0,0, ,76.2,4.5,995.2,0,-0.2,-2.3,25,65.2467,0.474737,999.466,0.0203031,-0.488239,-2.15593,
2026_07_06_20_58_24.831,3.868,30.1,0,0.759,0,0,0,0, ,0,0,0,0,0, ,79.2,9.5,1012.3,0.5,-3.2,-1.6,25,66.0056,0.87237,999.727,0.0343003,-0.562081,-2.14338,
2026_07_06_20_58_24.851,3.868,30.1,0,0.76,0,0,0,0, ,0,0,0,0,0, ,59.2,8.9,1001.5,-0.1,-2,-0.9,25,66.2002,1.37983,1000.16,0.0443976,-0.686266,-2.08894,
2026_07_06_20_58_24.873,3.868,30.1,0,0.759,0,0,0,0, ,0,0,0,0,0, ,64.8,7,998.7,-0.6,-0.3,-1.2,25,65.9443,1.7802,1000.16,0.020364,-0.714525,-2.02563,
2026_07_06_20_58_24.891,3.868,30.1,0,0.759,0,0,0,0, ,0,0,0,0,0, ,65.9,3.4,995.7,0,-0.5,-2.2,25,65.9081,1.9886,999.98,0.000841822,-0.695359,-2.00579,
2026_07_06_20_58_24.911,3.868,30.1,0,0.76,0,0,0,0, ,0,0,0,0,0, ,67.9,3.2,1008.9,0.8,-0.6,-2.4,25,65.9685,2.06851,1000.12,0.0251655,-0.686501,-2.02372,
2026_07_06_20_58_24.931,3.868,30.1,0,0.76,0,0,0,0, ,0,0,0,0,0, ,69.7,2.5,1013.3,0.4,-0.7,-2.4,25,66.1411,2.11613,1000.79,0.0601945,-0.684277,-2.04665,
2026_07_06_20_58_24.951,3.868,30.1,0,0.76,0,0,0,0, ,0,0,0,0,0, ,74.4,8.6,1010.4,-2,-0.6,-1.9,25,66.5011,2.32538,1001.46,0.0077764,-0.682188,-2.05295,
2026_07_06_20_58_24.970,3.868,30.1,0,0.76,0,0,0,0, ,0,0,0,0,0, ,63.4,8.9,983.6,-1.8,-0.8,-1.3,25,66.6473,2.71688,1001.19,-0.108479,-0.683273,-2.02534,
2026_07_06_20_58_24.991,3.868,30.1,0,0.759,0,0,0,0, ,0,0,0,0,0, ,67.7,8.6,984.6,1.1,-1.2,-1.8,25,66.5805,3.08453,1000.15,-0.123196,-0.702574,-1.99638,
2026_07_06_20_58_25.009,3.868,30.2,0,0.759,0,0,0,0, ,0,0,0,0,0, ,65.7,8.3,1002.5,1.7,-0.6,-2,25,66.5877,3.41149,999.749,-0.0303766,-0.714605,-1.9905,
2026_07_06_20_58_25.030,3.868,30,0,0.759,0,0,0,0, ,0,0,0,0,0, ,76.6,6.9,1023.5,-0.2,-0.5,-2.3,25,66.8658,3.66672,1000.56,0.0171776,-0.704574,-2.00022,
2026_07_06_20_58_25.049,3.868,30.1,0,0.759,0,0,0,0, ,0,0,0,0,0, ,74.2,4.7,1000.9,-2.8,0,-1.3,25,67.3858,3.79672,1001.27,-0.0752754,-0.676873,-1.98802,
2026_07_06_20_58_25.071,3.868,30.1,0,0.76,0,0,0,0, ,0,0,0,0,0, ,66.2,4.3,981.6,-1.2,0,-1.3,25,67.5573,3.83958,1000.66,-0.192563,-0.635626,-1.9461,
2026_07_06_20_58_25.089,3.868,30.1,0,0.759,0,0,0,0, ,0,0,0,0,0, ,65,4.2,990.6,1.3,-1.7,-1.4,25,67.438,3.86459,999.768,-0.177782,-0.64869,-1.90977,
2026_07_06_20_58_25.110,3.868,30.1,0,0.76,0,0,0,0, ,0,0,0,0,0, ,65.9,4,1010.6,0.8,-1.7,-1.2,25,67.3169,3.87893,999.819,-0.102964,-0.712754,-1.87261,
2026_07_06_20_58_25.128,3.868,30.1,0,0.759,0,0,0,0, ,0,0,0,0,0, ,64.5,5.4,1006.8,-0.6,-0.8,-1.9,25,67.1879,3.92897,1000.36,-0.090596,-0.745492,-1.85295,
2026_07_06_20_58_25.148,3.868,30.1,0,0.759,0,0,0,0, ,0,0,0,0,0, ,65.9,5.4,999.2,-1.2,-0.3,-2.2,25,67.0667,4.01861,1000.52,-0.139919,-0.73358,-1.86496,
2026_07_06_20_58_25.167,3.868,30.1,0,0.759,0,0,0,0, ,0,0,0,0,0, ,71.7,11.1,995.1,-0.5,-1.7,-1.8,25,67.1724,4.27646,1000.32,-0.18319,-0.749815,-1.87319,
2026_07_06_20_58_25.188,3.868,30,0,0.759,0,0,0,0, ,0,0,0,0,0, ,68.2,12.2,994.6,0.6,-1.3,-1.8,25,67.3416,4.72578,999.983,-0.16898,-0.795529,-1.86873,
2026_07_06_20_58_25.207,3.868,30.1,0,0.76,0,0,0,0, ,0,0,0,0,0, ,68.2,10.7,1006.9,0.5,-1.3,-1.6,25,67.3939,5.13554,1000.03,-0.125167,-0.82627,-1.85845,
2026_07_06_20_58_25.229,3.868,30.1,0,0.76,0,0,0,0, ,0,0,0,0,0, ,70.6,6.4,1004,-0.9,-0.5,-2.2,25,67.5162,5.34361,1000.36,-0.129727,-0.830763,-1.86098,
2026_07_06_20_58_25.247,3.868,30.1,0,0.759,0,0,0,0, ,0,0,0,0,0, ,75.1,9.8,995.9,-1.1,-0.5,-1.6,25,67.8412,5.51158,1000.33,-0.182759,-0.810607,-1.86336,
2026_07_06_20_58_25.270,3.868,30.1,0,0.76,0,0,0,0, ,0,0,0,0,0, ,73.6,10.4,995.9,0.1,-1.7,-1.7,25,68.2378,5.79118,1000.06,-0.202091,-0.828242,-1.85036,
2026_07_06_20_58_25.287,3.868,30.1,0,0.761,0,0,0,0, ,0,0,0,0,0, ,73.4,15.6,999.7,0.2,-0.3,-1.4,25,68.5585,6.23047,999.927,-0.180636,-0.838709,-1.83205,
2026_07_06_20_58_25.310,3.868,30.1,0,0.76,0,0,0,0, ,0,0,0,0,0, ,71.6,7.5,1001.3,0.1,-0.5,-1.4,25,68.7987,6.55463,999.961,-0.160487,-0.811975,-1.80573,
2026_07_06_20_58_25.326,3.868,30.1,0,0.76,0,0,0,0, ,0,0,0,0,0, ,69.3,5.2,998.9,-0.5,-0.7,-1.6,25,68.8993,6.54216,999.97,-0.162895,-0.799058,-1.7871,
2026_07_06_20_58_25.348,3.868,30.1,0,0.758,0,0,0,0, ,0,0,0,0,0, ,74.4,3,1002.5,-1.1,-0.9,-1.6,25,69.0791,6.39334,1000.01,-0.201719,-0.799115,-1.77569,
2026_07_06_20_58_25.366,3.868,30.1,0,0.758,0,0,0,0, ,0,0,0,0,0, ,69,9.2,1002.4,-1.3,-1,-1.6,25,69.2388,6.37546,1000.16,-0.262552,-0.80831,-1.76499,
2026_07_06_20_58_25.387,3.868,30.1,0,0.759,0,0,0,0, ,0,0,0,0,0, ,61.8,6.8,996,-1,0,-1.4,25,69.0049,6.47446,1000.1,-0.31663,-0.789522,-1.74884,
2026_07_06_20_58_25.406,3.868,30.1,0,0.76,0,0,0,0, ,0,0,0,0,0, ,71.2,12.5,1001.3,-0.2,0.1,-1.6,25,68.8523,6.66797,1000.02,-0.333898,-0.738364,-1.73368,
2026_07_06_20_58_25.428,3.868,30.2,0,0.759,0,0,0,0, ,0,0,0,0,0, ,72.7,5.6,997.5,0,-0.3,-1.6,25,69.041,6.81312,999.978,-0.319645,-0.699463,-1.72553,
2026_07_06_20_58_25.445,3.868,30.1,0,0.76,0,0,0,0, ,0,0,0,0,0, ,72.1,5.6,996.5,-0.2,-1.1,-1.7,25,69.2457,6.7392,999.797,-0.30626,-0.699496,-1.72093,
2026_07_06_20_58_25.467,3.868,30,0,0.758,0,0,0,0, ,0,0,0,0,0, ,70.6,6.8,999.3,0,-1.5,-1.7,25,69.3739,6.70634,999.681,-0.293691,-0.736089,-1.71965,
2026_07_06_20_58_25.484,3.868,30.2,0,0.76,0,0,0,0, ,0,0,0,0,0, ,72.7,9.8,1004.5,-0.5,-2.5,-1.5,25,69.5126,6.80346,999.816,-0.291029,-0.813109,-1.71236,
2026_07_06_20_58_25.506,3.868,30.1,0,0.759,0,0,0,0, ,0,0,0,0,0, ,68.8,24.6,994.8,-0.6,0.1,-1.4,25,69.588,7.437,999.806,-0.30681,-0.836685,-1.69637,
2026_07_06_20_58_25.525,3.868,30.1,0,0.76,0,0,0,0, ,0,0,0,0,0, ,74.5,12.3,997.8,0.2,0.8,-1.7,25,69.7137,8.1081,999.592,-0.300301,-0.758278,-1.68745,
2026_07_06_20_58_25.545,3.868,30.1,0,0.76,0,0,0,0, ,0,0,0,0,0, ,76.7,7,1000,-1,-0.3,-1.2,25,70.0724,8.20206,999.55,-0.306377,-0.696836,-1.67298,
2026_07_06_20_58_25.565,3.868,30.1,0,0.761,0,0,0,0, ,0,0,0,0,0, ,73.8,4.2,993.2,-0.7,-1.5,-0.6,25,70.3879,8.0435,999.37,-0.339504,-0.709216,-1.62588,
2026_07_06_20_58_25.588,3.868,30.1,0,0.76,0,0,0,0, ,0,0,0,0,0, ,71.2,6.7,996.2,0.5,-2.8,-0.5,25,70.5166,7.88546,999.086,-0.324909,-0.797014,-1.56032,
2026_07_06_20_58_25.603,3.868,30.1,0,0.76,0,0,0,0, ,0,0,0,0,0, ,64.8,13,1005.9,-0.1,-2.5,-0.9,25,70.3633,8.00517,999.206,-0.292922,-0.90993,-1.50789,
2026_07_06_20_58_25.625,3.868,30.2,0,0.76,0,0,0,0, ,0,0,0,0,0, ,64,10.6,1003.9,-0.4,-1.6,-1.5,25,69.9999,8.23642,999.553,-0.290307,-0.979403,-1.48913,
2026_07_06_20_58_25.643,3.868,30.1,0,0.76,0,0,0,0, ,0,0,0,0,0, ,69.8,12.2,1001.2,-0.8,0.3,-2.1,25,69.811,8.4292,999.735,-0.309179,-0.95933,-1.50807,
2026_07_06_20_58_25.667,3.868,30.1,0,0.759,0,0,0,0, ,0,0,0,0,0, ,74.5,6.3,1001.2,-0.5,0,-2.3,25,69.9535,8.47922,999.824,-0.329948,-0.89173,-1.55024,
2026_07_06_20_58_25.683,3.868,30.1,0,0.759,0,0,0,0, ,0,0,0,0,0, ,78.2,8.7,999,-0.5,0,-2.3,25,70.3433,8.41954,999.841,-0.34031,-0.837391,-1.59593,
2026_07_06_20_58_25.704,3.868,30,0,0.76,0,0,0,0, ,0,0,0,0,0, ,84.5,10.9,1001,-0.6,-1,-1.5,25,71.014,8.50367,999.851,-0.353088,-0.816831,-1.61446,
2026_07_06_20_58_25.722,3.868,30.1,0,0.76,0,0,0,0, ,0,0,0,0,0, ,72.6,13.9,992.1,-0.5,-1.6,-1.3,25,71.4732,8.7411,999.65,-0.365087,-0.846274,-1.60139,
2026_07_06_20_58_25.744,3.868,30,0,0.758,0,0,0,0, ,0,0,0,0,0, ,63.9,16.1,999.3,0,-1,-1.2,25,71.2768,9.1225,999.409,-0.358074,-0.873923,-1.57998,
2026_07_06_20_58_25.766,3.868,30.1,0,0.758,0,0,0,0, ,0,0,0,0,0, ,65.1,10,1004.2,-0.1,0.4,-2.7,25,70.8639,9.36183,999.552,-0.339301,-0.838949,-1.60252,
2026_07_06_20_58_25.788,3.868,30.1,0,0.76,0,0,0,0, ,0,0,0,0,0, ,79.7,8.4,1002.4,-1.1,0.4,-1.5,25,70.9575,9.35197,999.78,-0.355187,-0.763451,-1.63284,
2026_07_06_20_58_25.802,3.868,30.1,0,0.76,0,0,0,0, ,0,0,0,0,0, ,73.9,10.4,992.6,-0.3,-1,-2.1,25,71.3135,9.3549,999.641,-0.376199,-0.735209,-1.64303,
2026_07_06_20_58_25.824,3.868,30.1,0,0.76,0,0,0,0, ,0,0,0,0,0, ,69,14.5,1003.6,0.5,-1.4,-1.8,25,71.3218,9.54351,999.547,-0.347181,-0.763533,-1.66173,
2026_07_06_20_58_25.841,3.868,30,0,0.759,0,0,0,0, ,0,0,0,0,0, ,70.3,9.8,1003.9,-0.6,0.1,-2.1,25,71.2199,9.70234,999.803,-0.329071,-0.756614,-1.6793,
2026_07_06_20_58_25.862,3.868,30,0,0.76,0,0,0,0, ,0,0,0,0,0, ,80.8,10.7,1003,-1.4,-0.4,-1.5,25,71.4838,9.73571,1000.03,-0.369956,-0.719649,-1.68665,
2026_07_06_20_58_25.881,3.868,30.1,0,0.759,0,0,0,0, ,0,0,0,0,0, ,74.4,14.4,989.7,-0.4,-1,-1.3,25,71.8565,9.90721,999.802,-0.402256,-0.718451,-1.66919,
2026_07_06_20_58_25.905,3.868,30.1,0,0.759,0,0,0,0, ,0,0,0,0,0, ,69,13.1,1001.9,0.9,-0.6,-2.3,25,71.847,10.1414,999.558,-0.362509,-0.723421,-1.67716,
2026_07_06_20_58_25.920,3.868,30.1,0,0.76,0,0,0,0, ,0,0,0,0,0, ,80.6,10.9,1009.5,-1.2,0.3,-1.8,25,72.0269,10.2546,999.932,-0.349559,-0.688478,-1.69988,
2026_07_06_20_58_25.942,3.868,30.2,0,0.759,0,0,0,0, ,0,0,0,0,0, ,68.8,8.9,992.6,-1.6,-0.1,-1.7,25,72.1898,10.233,1000,-0.41357,-0.64043,-1.70293,
2026_07_06_20_58_25.960,3.868,30.1,0,0.76,0,0,0,0, ,0,0,0,0,0, ,73.6,13.1,996.2,0,-0.9,-1.9,25,72.1295,10.2798,999.659,-0.437118,-0.631873,-1.70885,
2026_07_06_20_58_25.982,3.868,30.1,0,0.76,0,0,0,0, ,0,0,0,0,0, ,71.7,10,1001.8,0.2,-0.4,-1.9,25,72.1612,10.3572,999.619,-0.404388,-0.632977,-1.72049,
2026_07_06_20_58_25.999,3.868,30,0,0.759,0,0,0,0, ,0,0,0,0,0, ,70.1,8.9,1001.4,-0.2,-0.5,-2.1,25,72.0844,10.3019,999.74,-0.379745,-0.621827,-1.73753,
2026_07_06_20_58_26.021,3.868,30.1,0,0.76,0,0,0,0, ,0,0,0,0,0, ,69.9,14.2,999.7,-0.4,-0.3,-2.3,25,71.9573,10.3779,999.789,-0.374886,-0.608309,-1.76571,
2026_07_06_20_58_26.040,3.868,30.1,0,0.76,0,0,0,0, ,0,0,0,0,0, ,80.4,15.2,1005.4,-1,-0.3,-2.3,25,72.1519,10.6413,999.957,-0.394698,-0.589522,-1.79827,
2026_07_06_20_58_26.062,3.868,30.1,0,0.76,0,0,0,0, ,0,0,0,0,0, ,78.3,16.1,992.4,-1.6,-0.2,-1.5,25,72.5905,10.9465,999.893,-0.449864,-0.568832,-1.80447,
2026_07_06_20_58_26.078,3.868,30.1,0,0.759,0,0,0,0, ,0,0,0,0,0, ,69.4,13.9,989.8,-0.2,-1.5,-1.3,25,72.6673,11.1935,999.357,-0.477295,-0.585966,-1.77982,
2026_07_06_20_58_26.101,3.868,30.1,0,0.76,0,0,0,0, ,0,0,0,0,0, ,72.7,9.8,1005.3,0.1,-1.1,-1.9,25,72.5687,11.2335,999.247,-0.451256,-0.629477,-1.76886,
2026_07_06_20_58_26.118,3.868,30,0,0.759,0,0,0,0, ,0,0,0,0,0, ,82.7,9.6,1011.3,-2.3,-0.4,-1.1,25,72.8814,11.1401,999.798,-0.490789,-0.636822,-1.75248,
2026_07_06_20_58_26.141,3.868,30.1,0,0.759,0,0,0,0, ,0,0,0,0,0, ,70.5,7.9,991.5,-1.9,-0.5,-1,25,73.108,10.9945,999.896,-0.58885,-0.625437,-1.70967,
2026_07_06_20_58_26.158,3.868,30.2,0,0.76,0,0,0,0, ,0,0,0,0,0, ,67,11.4,991.8,0.7,-0.8,-1.9,25,72.8424,10.9125,999.394,-0.58953,-0.626934,-1.69385,
2026_07_06_20_58_26.180,3.868,30.1,0,0.759,0,0,0,0, ,0,0,0,0,0, ,70.6,7.6,1008.6,0.9,-0.5,-2.1,25,72.5961,10.8264,999.443,-0.504855,-0.62834,-1.7125,
2026_07_06_20_58_26.198,3.868,30.1,0,0.759,0,0,0,0, ,0,0,0,0,0, ,70,10.8,999.1,-0.8,0.5,-2.1,25,72.4562,10.7273,999.711,-0.471044,-0.59005,-1.73612,
2026_07_06_20_58_26.221,3.868,30.2,0,0.758,0,0,0,0, ,0,0,0,0,0, ,73.2,9.5,995.4,-0.1,-0.5,-2.3,25,72.404,10.6922,999.561,-0.469761,-0.554094,-1.76438,
2026_07_06_20_58_26.237,3.868,30.1,0,0.76,0,0,0,0, ,0,0,0,0,0, ,76.6,15.8,999.5,0,-1.4,-1.9,25,72.5561,10.8115,999.433,-0.444182,-0.57822,-1.78484,
2026_07_06_20_58_26.260,3.868,30.1,0,0.761,0,0,0,0, ,0,0,0,0,0, ,73.2,18.3,1000.4,-0.2,-1,-1.9,25,72.6989,11.1916,999.464,-0.423209,-0.616109,-1.79185,
2026_07_06_20_58_26.276,3.868,30.1,0,0.759,0,0,0,0, ,0,0,0,0,0, ,72.3,24.5,999.3,-1.5,-0.2,-1.4,25,72.7021,11.8137,999.488,-0.449216,-0.615128,-1.78321,
2026_07_06_20_58_26.300,3.868,30,0,0.761,0,0,0,0, ,0,0,0,0,0, ,71,16.9,989.8,-1.3,0.6,-1.6,25,72.6379,12.3552,999.187,-0.507155,-0.565456,-1.76595,
2026_07_06_20_58_26.321,3.868,30,0,0.759,0,0,0,0, ,0,0,0,0,0, ,79.5,11.2,1001.2,-0.5,-1,-1.6,25,72.7971,12.4585,998.962,-0.531094,-0.543186,-1.75584,
2026_07_06_20_58_26.343,3.868,30.1,0,0.76,0,0,0,0, ,0,0,0,0,0, ,76.6,9,1001.8,-0.6,-1.4,-1.3,25,73.1172,12.3148,999.117,-0.532246,-0.58321,-1.7372,
2026_07_06_20_58_26.355,3.868,30.1,0,0.76,0,0,0,0, ,0,0,0,0,0, ,71.1,11.1,999.8,-0.6,-0.5,-1.8,25,73.1619,12.1768,999.219,-0.536375,-0.605562,-1.72579,
2026_07_06_20_58_26.378,3.868,30.2,0,0.759,0,0,0,0, ,0,0,0,0,0, ,76.6,15.6,1005.2,-0.7,-0.5,-1.6,25,73.2038,12.2482,999.419,-0.543299,-0.599129,-1.72422,
2026_07_06_20_58_26.395,3.868,30.1,0,0.759,0,0,0,0, ,0,0,0,0,0, ,73.7,12.6,992.6,-0.2,0.5,-2,25,73.3224,12.3611,999.388,-0.537613,-0.56262,-1.72884,
2026_07_06_20_58_26.418,3.868,30.1,0,0.759,0,0,0,0, ,0,0,0,0,0, ,75.5,9.1,1001.3,-0.3,-0.1,-1.6,25,73.4003,12.269,999.239,-0.520087,-0.516147,-1.73318,
2026_07_06_20_58_26.435,3.868,30.1,0,0.76,0,0,0,0, ,0,0,0,0,0, ,76.9,8,1002.5,-1.7,-0.8,-1.2,25,73.5709,12.0424,999.401,-0.549331,-0.512117,-1.71287,
2026_07_06_20_58_26.458,3.868,30.1,0,0.761,0,0,0,0, ,0,0,0,0,0, ,69.5,14.7,994.1,-1.6,-1.8,-1,25,73.5483,12.0002,999.334,-0.616403,-0.560128,-1.67553,
2026_07_06_20_58_26.474,3.868,30.1,0,0.759,0,0,0,0, ,0,0,0,0,0, ,67.7,14,996.7,0.3,-0.6,-2,25,73.2467,12.1434,999.094,-0.618451,-0.59912,-1.66483,
2026_07_06_20_58_26.499,3.868,30.1,0,0.759,0,0,0,0, ,0,0,0,0,0, ,76.2,13.5,1006.8,-0.3,-0.3,-1.7,25,73.1677,12.2413,999.256,-0.580764,-0.590033,-1.67611,
2026_07_06_20_58_26.514,3.868,30.1,0,0.76,0,0,0,0, ,0,0,0,0,0, ,72.9,13.6,997.3,-0.8,-0.4,-1.9,25,73.2519,12.321,999.426,-0.578889,-0.575406,-1.68366,
2026_07_06_20_58_26.537,3.868,30,0,0.76,0,0,0,0, ,0,0,0,0,0, ,73.4,19,998.6,0,-0.7,-2.1,25,73.2457,12.5635,999.336,-0.567988,-0.573858,-1.70294,
2026_07_06_20_58_26.554,3.868,30.1,0,0.759,0,0,0,0, ,0,0,0,0,0, ,74.3,15,999.2,-0.1,0.2,-2.7,25,73.2826,12.8338,999.31,-0.536423,-0.554123,-1.74542,
2026_07_06_20_58_26.577,3.868,30.1,0,0.759,0,0,0,0, ,0,0,0,0,0, ,79.3,19,1002.6,-1.2,0.1,-1.6,25,73.4969,13.0877,999.407,-0.543344,-0.511216,-1.77007,
2026_07_06_20_58_26.593,3.868,30.1,0,0.76,0,0,0,0, ,0,0,0,0,0, ,76.9,16.9,990.2,-1.1,0,-1.5,25,73.7774,13.384,999.224,-0.580312,-0.477016,-1.75666,
2026_07_06_20_58_26.624,3.868,30.1,0,0.76,0,0,0,0, ,0,0,0,0,0, ,73.6,14.1,994,0.4,-0.5,-1.3,25,73.8671,13.513,998.789,-0.566278,-0.463183,-1.73493,
2026_07_06_20_58_26.633,3.868,30.1,0,0.76,0,0,0,0, ,0,0,0,0,0, ,70.4,1.9,1005.3,0.8,-0.9,-2.1,25,73.7534,13.177,998.842,-0.495208,-0.477614,-1.7328,
2026_07_06_20_58_26.657,3.868,30.1,0,0.759,0,0,0,0, ,0,0,0,0,0, ,74.8,7.6,1012.4,-1.2,-1.2,-1.7,25,73.6831,12.6635,999.452,-0.477219,-0.512494,-1.74299,
2026_07_06_20_58_26.673,3.868,30.1,0,0.759,0,0,0,0, ,0,0,0,0,0, ,73.3,17,995.2,-1.4,-0.6,-1.9,25,73.7054,12.6413,999.717,-0.527357,-0.536107,-1.74646,
2026_07_06_20_58_26.697,3.868,30.1,0,0.76,0,0,0,0, ,0,0,0,0,0, ,74.9,19,993.1,0,-0.2,-2.1,25,73.7295,12.9679,999.378,-0.537877,-0.527813,-1.76191,
2026_07_06_20_58_26.712,3.868,30.1,0,0.76,0,0,0,0, ,0,0,0,0,0, ,79.8,14.1,1001.7,0.4,-0.3,-1.7,25,73.9501,13.1862,999.257,-0.492913,-0.510884,-1.77033,
2026_07_06_20_58_26.736,3.868,30.1,0,0.76,0,0,0,0, ,0,0,0,0,0, ,72.8,11.8,1003,-0.2,-0.7,-1.6,25,74.0933,13.1718,999.445,-0.456782,-0.510221,-1.76299,
2026_07_06_20_58_26.751,3.868,30.1,0,0.759,0,0,0,0, ,0,0,0,0,0, ,73.4,16.2,1003,-0.7,-0.1,-2,25,74.0328,13.2223,999.662,-0.456369,-0.503504,-1.76525,
2026_07_06_20_58_26.776,3.868,30.1,0,0.759,0,0,0,0, ,0,0,0,0,0, ,74.3,13.6,997.6,-1.2,0.5,-1.9,25,74.0216,13.3245,999.701,-0.48645,-0.460634,-1.77651,
2026_07_06_20_58_26.791,3.868,30.1,0,0.759,0,0,0,0, ,0,0,0,0,0, ,77.1,16.4,997.4,-0.6,-0.4,-1.8,25,74.1239,13.4266,999.567,-0.51165,-0.429518,-1.78099,
2026_07_06_20_58_26.815,3.868,30.1,0,0.76,0,0,0,0, ,0,0,0,0,0, ,71.8,13.5,990.7,0.1,-0.5,-1.6,25,74.1438,13.5194,999.231,-0.495706,-0.430766,-1.77605,
2026_07_06_20_58_26.831,3.868,30.1,0,0.759,0,0,0,0, ,0,0,0,0,0, ,73.3,19.1,1004.2,0.1,-1.2,-1.6,25,74.0467,13.6889,999.122,-0.459405,-0.456313,-1.76532,
2026_07_06_20_58_26.856,3.868,30.2,0,0.76,0,0,0,0, ,0,0,0,0,0, ,76.1,15.6,1005.6,-0.8,0.1,-1.6,25,74.0865,13.912,999.474,-0.452738,-0.462022,-1.75525,
2026_07_06_20_58_26.870,3.868,30.1,0,0.76,0,0,0,0, ,0,0,0,0,0, ,80.2,14.7,1005.6,-2.3,0.3,-1.1,25,74.3341,13.9874,999.848,-0.519603,-0.42168,-1.73055,
2026_07_06_20_58_26.894,3.868,30.1,0,0.759,0,0,0,0, ,0,0,0,0,0, ,76,15.3,997.4,-2.5,-0.2,-0.6,25,74.5636,14.0491,999.948,-0.634189,-0.392937,-1.67689,
2026_07_06_20_58_26.912,3.868,30.1,0,0.759,0,0,0,0, ,0,0,0,0,0, ,64,5.6,983.5,-0.6,-0.4,-0.5,25,74.2855,13.8298,999.369,-0.689997,-0.387274,-1.60822,
2026_07_06_20_58_26.937,3.868,30.1,0,0.76,0,0,0,0, ,0,0,0,0,0, ,69.3,4,998.7,1.8,-1.7,-1.7,25,73.8202,13.2795,998.866,-0.611387,-0.427658,-1.57725,
2026_07_06_20_58_26.949,3.868,30.1,0,0.76,0,0,0,0, ,0,0,0,0,0, ,75.4,8.9,1003.9,1.4,-2.5,-1.8,25,73.7306,12.8634,999.014,-0.476631,-0.529567,-1.58778,
2026_07_06_20_58_26.974,3.868,30.1,0,0.759,0,0,0,0, ,0,0,0,0,0, ,74.5,22.8,1005,0.8,-1.8,-2.1,25,73.8049,13.0454,999.345,-0.380555,-0.628312,-1.60985,
2026_07_06_20_58_26.990,3.868,30.1,0,0.76,0,0,0,0, ,0,0,0,0,0, ,80.5,33.5,1002.3,0.7,-0.4,-2.4,25,74.0301,13.9658,999.607,-0.311662,-0.657055,-1.64886,
2026_07_06_20_58_27.014,3.868,30,0,0.759,0,0,0,0, ,0,0,0,0,0, ,79.2,27.5,1003.1,1,0.2,-2.5,25,74.3847,14.9734,999.796,-0.240873,-0.62311,-1.69768,
2026_07_06_20_58_27.029,3.868,30.1,0,0.759,0,0,0,0, ,0,0,0,0,0, ,83,21.6,1004.3,-1,0.5,-1.6,25,74.7939,15.5569,1000.03,-0.226195,-0.563811,-1.71915,
2026_07_06_20_58_27.053,3.868,30,0,0.76,0,0,0,0, ,0,0,0,0,0, ,70.8,18.6,989.3,-1.6,-0.2,-0.8,25,74.9223,15.8338,999.837,-0.29163,-0.520313,-1.68752,
2026_07_06_20_58_27.068,3.868,30.1,0,0.76,0,0,0,0, ,0,0,0,0,0, ,67.6,15.1,994.3,0.6,0.1,-2,25,74.5736,15.8957,999.347,-0.304327,-0.491653,-1.67,
2026_07_06_20_58_27.092,3.868,30.1,0,0.76,0,0,0,0, ,0,0,0,0,0, ,72,13.7,1012.8,0.2,-0.3,-2,25,74.2827,15.8046,999.603,-0.261407,-0.467787,-1.6901,
2026_07_06_20_58_27.108,3.868,30,0,0.76,0,0,0,0, ,0,0,0,0,0, ,75,12.9,1007.4,-2.5,0.2,-1.9,25,74.235,15.6519,1000.24,-0.315556,-0.442328,-1.70594,
2026_07_06_20_58_27.132,3.868,30.1,0,0.761,0,0,0,0, ,0,0,0,0,0, ,74.4,17.5,985.3,-1.8,-0.4,-1.9,25,74.2633,15.6244,1000.01,-0.427343,-0.421468,-1.71777,
2026_07_06_20_58_27.148,3.868,30.1,0,0.758,0,0,0,0, ,0,0,0,0,0, ,75.3,20.5,986.9,2,-1.5,-1.6,25,74.2991,15.8301,999.158,-0.395208,-0.453675,-1.71973,
2026_07_06_20_58_27.173,3.868,30.1,0,0.761,0,0,0,0, ,0,0,0,0,0, ,80.4,15,1014,2,-1.8,-1.8,25,74.5155,15.9471,999.237,-0.24925,-0.526576,-1.71853,
2026_07_06_20_58_27.188,3.868,30.1,0,0.76,0,0,0,0, ,0,0,0,0,0, ,73.4,17.4,1014.6,-1.2,0.6,-1.9,25,74.6608,15.9625,1000.15,-0.209686,-0.53105,-1.72654,
2026_07_06_20_58_27.212,3.868,30,0,0.76,0,0,0,0, ,0,0,0,0,0, ,81.2,18.1,1001.9,-2.3,1.7,-2.1,25,74.8216,16.0714,1000.65,-0.303549,-0.428611,-1.7432,
2026_07_06_20_58_27.226,3.868,30,0,0.759,0,0,0,0, ,0,0,0,0,0, ,75.5,17.7,987.4,-1.6,-0.1,-1.1,25,75.0366,16.1829,1000.28,-0.403879,-0.353743,-1.73448,
2026_07_06_20_58_27.253,3.868,30.1,0,0.759,0,0,0,0, ,0,0,0,0,0, ,67.3,13.6,985.9,0.4,-0.3,-1,25,74.815,16.1504,999.452,-0.415831,-0.344374,-1.69277,
2026_07_06_20_58_27.267,3.868,30.1,0,0.76,0,0,0,0, ,0,0,0,0,0, ,70.8,10.2,1003.6,1,-1.4,-1.5,25,74.4637,15.8914,999.165,-0.347835,-0.375186,-1.66579,
2026_07_06_20_58_27.291,3.868,30.1,0,0.76,0,0,0,0, ,0,0,0,0,0, ,71.5,10.9,1011.4,0,-1.4,-1.9,25,74.2618,15.5659,999.673,-0.29617,-0.437635,-1.66787,
2026_07_06_20_58_27.306,3.868,30.1,0,0.759,0,0,0,0, ,0,0,0,0,0, ,70.8,18.4,997.4,-1.5,-0.4,-2,25,74.0722,15.5101,999.961,-0.323825,-0.465811,-1.68506,
2026_07_06_20_58_27.334,3.868,30.1,0,0.76,0,0,0,0, ,0,0,0,0,0, ,76.4,29.9,995.6,-0.9,-1.8,-1.9,25,74.0434,16.0366,999.75,-0.377217,-0.504457,-1.70121,
2026_07_06_20_58_27.345,3.868,30.1,0,0.759,0,0,0,0, ,0,0,0,0,0, ,77.1,26.8,994.7,0.1,0,-2.2,25,74.2083,16.7869,999.47,-0.378605,-0.52856,-1.72246,
2026_07_06_20_58_27.371,3.868,30.1,0,0.76,0,0,0,0, ,0,0,0,0,0, ,77.7,21.1,1011.1,-0.6,-0.7,-1.6,25,74.4028,17.2234,999.679,-0.370768,-0.517679,-1.73328,
2026_07_06_20_58_27.386,3.868,30.1,0,0.76,0,0,0,0, ,0,0,0,0,0, ,70,18.4,998.7,-1.7,1.4,-1.9,25,74.3691,17.3774,999.997,-0.418253,-0.464805,-1.7343,
2026_07_06_20_58_27.409,3.868,30,0,0.76,0,0,0,0, ,0,0,0,0,0, ,76.2,22.9,994.3,-1,1.1,-1.8,25,74.2918,17.5768,999.784,-0.475031,-0.360309,-1.74135,
2026_07_06_20_58_27.425,3.868,30.1,0,0.759,0,0,0,0, ,0,0,0,0,0, ,80.8,24.1,995.1,0,0.7,-1.4,25,74.5482,17.9378,999.474,-0.476553,-0.283509,-1.73274,
2026_07_06_20_58_27.450,3.868,30.1,0,0.76,0,0,0,0, ,0,0,0,0,0, ,71.4,12.4,1002.8,-0.6,0.2,-0.9,25,74.6428,17.9568,999.442,-0.465794,-0.238811,-1.69723,
2026_07_06_20_58_27.465,3.868,30.1,0,0.759,0,0,0,0, ,0,0,0,0,0, ,72.9,10.3,1005.8,-1.9,-0.5,-1.4,25,74.4909,17.5542,999.738,-0.513582,-0.233399,-1.66388,
2026_07_06_20_58_27.490,3.868,30.1,0,0.76,0,0,0,0, ,0,0,0,0,0, ,67.1,13.6,990.9,-1.8,-0.5,-0.8,25,74.2172,17.2127,999.654,-0.59502,-0.249645,-1.62952,
2026_07_06_20_58_27.505,3.868,30.1,0,0.761,0,0,0,0, ,0,0,0,0,0, ,67.8,14.2,995.4,0.4,-1.3,-1.5,25,73.8048,17.0108,999.257,-0.601417,-0.289276,-1.6003,
2026_07_06_20_58_27.527,3.868,30.1,0,0.759,0,0,0,0, ,0,0,0,0,0, ,71.5,14,1007.5,0.2,-0.9,-1.9,25,73.5517,16.8334,999.391,-0.546487,-0.338679,-1.60637,
2026_07_06_20_58_27.543,3.868,30.1,0,0.759,0,0,0,0, ,0,0,0,0,0, ,73.9,17.9,1006.4,-0.9,0,-1.9,25,73.4998,16.7796,999.852,-0.534513,-0.345463,-1.62427,
2026_07_06_20_58_27.576,3.868,30.1,0,0.759,0,0,0,0, ,0,0,0,0,0, ,73.3,17.9,994.7,-1.2,-0.6,-2,25,73.5059,16.8479,999.894,-0.565926,-0.342692,-1.64412,
2026_07_06_20_58_27.584,3.868,30.1,0,0.759,0,0,0,0, ,0,0,0,0,0, ,73.7,20.6,992,-0.2,-1.1,-1.7,25,73.5055,16.9943,999.495,-0.574096,-0.373607,-1.65666,
2026_07_06_20_58_27.609,3.868,30.1,0,0.759,0,0,0,0, ,0,0,0,0,0, ,68.3,21.9,997.3,0.3,-1.4,-1.6,25,73.3528,17.2536,999.2,-0.536065,-0.427012,-1.65626,
2026_07_06_20_58_27.623,3.868,30.1,0,0.759,0,0,0,0, ,0,0,0,0,0, ,78.1,25.5,1009.3,-0.2,-0.4,-1.7,25,73.3435,17.6464,999.45,-0.500352,-0.455834,-1.65587,
2026_07_06_20_58_27.648,3.868,30.1,0,0.76,0,0,0,0, ,0,0,0,0,0, ,73.9,20.9,999.8,-1.5,0.3,-1.6,25,73.5054,17.9848,999.761,-0.521658,-0.431104,-1.65552,
2026_07_06_20_58_27.663,3.868,30.1,0,0.76,0,0,0,0, ,0,0,0,0,0, ,68.6,15.7,988.4,-0.4,-0.7,-1.7,25,73.368,18.004,999.416,-0.54776,-0.417021,-1.65518,
2026_07_06_20_58_27.688,3.868,30.1,0,0.76,0,0,0,0, ,0,0,0,0,0, ,70,16.2,992.5,0.4,-1.3,-1.8,25,73.1201,17.8789,998.869,-0.514381,-0.452546,-1.66096,
2026_07_06_20_58_27.702,3.868,30.1,0,0.76,0,0,0,0, ,0,0,0,0,0, ,69.3,20.6,1007.2,0.4,-1.6,-2,25,72.9086,17.9106,998.929,-0.458661,-0.513329,-1.67553,
2026_07_06_20_58_27.727,3.868,30.1,0,0.76,0,0,0,0, ,0,0,0,0,0, ,76.4,18.5,1005.1,-1.2,0,-2,25,72.905,18.0105,999.369,-0.455087,-0.530798,-1.6953,
2026_07_06_20_58_27.742,3.868,30.1,0,0.759,0,0,0,0, ,0,0,0,0,0, ,80.5,20.3,997.6,-1.1,-0.5,-1.6,25,73.2429,18.0952,999.49,-0.497433,-0.513687,-1.70168,
2026_07_06_20_58_27.768,3.868,30.1,0,0.759,0,0,0,0, ,0,0,0,0,0, ,77.2,18.6,994,-0.4,-0.4,-1.4,25,73.5846,18.1778,999.265,-0.512824,-0.509806,-1.68939,
2026_07_06_20_58_27.781,3.868,30.1,0,0.759,0,0,0,0, ,0,0,0,0,0, ,66.1,20.5,999,-0.4,-1.3,-1.4,25,73.4667,18.2614,999.097,-0.505948,-0.530536,-1.67175,
2026_07_06_20_58_27.808,3.868,30.1,0,0.759,0,0,0,0, ,0,0,0,0,0, ,68.1,14.4,1001.4,-0.4,0.1,-2.2,25,73.0788,18.2119,999.164,-0.499492,-0.534769,-1.67957,
2026_07_06_20_58_27.820,3.868,30.1,0,0.76,0,0,0,0, ,0,0,0,0,0, ,76.6,14.7,1006.1,-0.5,-0.3,-2.3,25,73.0343,17.9888,999.443,-0.496476,-0.508275,-1.71433,
2026_07_06_20_58_27.847,3.868,30.1,0,0.76,0,0,0,0, ,0,0,0,0,0, ,75.4,18.6,995.3,-0.4,0.6,-1.9,25,73.2151,17.9072,999.52,-0.493644,-0.468162,-1.73783,
2026_07_06_20_58_27.860,3.868,30.1,0,0.76,0,0,0,0, ,0,0,0,0,0, ,82.5,25.2,998.9,-0.5,-0.1,-1.5,25,73.5645,18.1505,999.372,-0.490985,-0.424399,-1.73553,
2026_07_06_20_58_27.885,3.868,30.2,0,0.759,0,0,0,0, ,0,0,0,0,0, ,68.2,18.6,988.2,0.3,0.6,-1.2,25,73.6733,18.379,999.018,-0.467159,-0.383303,-1.71203,
2026_07_06_20_58_27.900,3.868,30.1,0,0.759,0,0,0,0, ,0,0,0,0,0, ,71.2,14.7,1004.1,2,-0.4,-1.6,25,73.4312,18.2736,998.843,-0.368613,-0.353851,-1.69302,
2026_07_06_20_58_27.932,3.868,30.1,0,0.76,0,0,0,0, ,0,0,0,0,0, ,72.2,17.2,1010.6,1.4,-0.2,-2.2,25,73.3257,18.132,999.361,-0.242557,-0.35057,-1.70563,
2026_07_06_20_58_27.939,3.868,30.1,0,0.76,0,0,0,0, ,0,0,0,0,0, ,74.4,20.3,1000.1,-0.3,0.9,-2.5,25,73.3241,18.1697,999.726,-0.194261,-0.307879,-1.7449,
2026_07_06_20_58_27.966,3.868,30.1,0,0.76,0,0,0,0, ,0,0,0,0,0, ,79.7,29.5,997.6,-0.5,-1.1,-2.1,25,73.5512,18.5798,999.673,-0.206798,-0.295211,-1.77872,
2026_07_06_20_58_27.979,3.868,30.1,0,0.76,0,0,0,0, ,0,0,0,0,0, ,66.7,30.5,990.3,0,-0.5,-1.5,25,73.5298,19.2757,999.324,-0.209431,-0.325972,-1.78002,
2026_07_06_20_58_28.006,3.868,30.1,0,0.759,0,0,0,0, ,0,0,0,0,0, ,68.7,21.9,993.4,0.9,0,-1.7,25,73.1745,19.6977,998.869,-0.169247,-0.321342,-1.76905,
2026_07_06_20_58_28.019,3.868,30.2,0,0.759,0,0,0,0, ,0,0,0,0,0, ,75.8,21.4,1007.3,0.2,-0.7,-1.9,25,73.1182,19.8167,998.959,-0.125418,-0.323089,-1.77094,
2026_07_06_20_58_28.044,3.868,30.1,0,0.762,0,0,0,0, ,0,0,0,0,0, ,74.5,18.4,1006.9,-1.1,-0.2,-2.1,25,73.242,19.8217,999.455,-0.145197,-0.330822,-1.7849,
2026_07_06_20_58_28.059,3.868,30.2,0,0.759,0,0,0,0, ,0,0,0,0,0, ,75.9,24.4,998.1,-2.4,0.2,-1.7,25,73.3613,19.9179,999.641,-0.242989,-0.310663,-1.79191,
2026_07_06_20_58_28.084,3.868,30.1,0,0.759,0,0,0,0, ,0,0,0,0,0, ,69.9,25,988.7,-1,-0.4,-1.5,25,73.3332,20.2093,999.26,-0.331776,-0.297826,-1.78021,
2026_07_06_20_58_28.098,3.868,30,0,0.759,0,0,0,0, ,0,0,0,0,0, ,67.1,20.2,995.8,0.7,-1.2,-1.6,25,73.0387,20.355,998.833,-0.320699,-0.328427,-1.76619,
2026_07_06_20_58_28.124,3.868,30.1,0,0.759,0,0,0,0, ,0,0,0,0,0, ,66.8,14.4,1005.1,0.3,-0.1,-2,25,72.6677,20.1688,998.932,-0.270688,-0.348023,-1.76825,
2026_07_06_20_58_28.137,3.868,30.1,0,0.76,0,0,0,0, ,0,0,0,0,0, ,72.7,17.4,1011.5,-0.7,-0.5,-2,25,72.4899,19.9087,999.502,-0.26638,-0.345096,-1.78237,
2026_07_06_20_58_28.164,3.868,30.1,0,0.759,0,0,0,0, ,0,0,0,0,0, ,69.7,25.6,996.5,-0.8,0.3,-2.4,25,72.4113,20.0057,999.777,-0.295851,-0.330161,-1.80782,
2026_07_06_20_58_28.177,3.868,30.1,0,0.76,0,0,0,0, ,0,0,0,0,0, ,71.7,25.1,992.1,0.1,0.4,-2.3,25,72.307,20.3313,999.443,-0.29915,-0.288713,-1.84086,
2026_07_06_20_58_28.203,3.868,30.1,0,0.76,0,0,0,0, ,0,0,0,0,0, ,76.6,23.6,994.3,0.4,-0.3,-1.5,25,72.4193,20.5762,999.062,-0.265687,-0.268073,-1.84446,
2026_07_06_20_58_28.217,3.868,30.1,0,0.759,0,0,0,0, ,0,0,0,0,0, ,71.5,20.2,1005.8,0.1,-0.3,-0.7,25,72.5187,20.6569,999.123,-0.234262,-0.270019,-1.7991,
2026_07_06_20_58_28.243,3.868,30.1,0,0.76,0,0,0,0, ,0,0,0,0,0, ,71,20.9,1002.6,-0.3,0,-2.1,25,72.4414,20.6504,999.432,-0.22608,-0.262705,-1.77478,
2026_07_06_20_58_28.258,3.868,30.1,0,0.76,0,0,0,0, ,0,0,0,0,0, ,79.2,25.7,1004,-1.7,-0.2,-1.3,25,72.6034,20.8118,999.668,-0.273241,-0.25279,-1.77022,
2026_07_06_20_58_28.284,3.868,30.1,0,0.76,0,0,0,0, ,0,0,0,0,0, ,69.2,25.1,988.2,-1.1,0,-1.9,25,72.7007,21.0914,999.45,-0.341903,-0.24348,-1.75985,
2026_07_06_20_58_28.295,3.868,30.1,0,0.76,0,0,0,0, ,0,0,0,0,0, ,74.8,25.6,999.8,0.3,-1,-1.7,25,72.658,21.3509,999.118,-0.345443,-0.259111,-1.76229,
2026_07_06_20_58_28.322,3.868,30.1,0,0.76,0,0,0,0, ,0,0,0,0,0, ,69.4,18.4,1005.4,0,-0.7,-1.5,25,72.624,21.3905,999.33,-0.315252,-0.295119,-1.7524,
2026_07_06_20_58_28.335,3.868,30.1,0,0.76,0,0,0,0, ,0,0,0,0,0, ,67.8,21.6,1007.4,-0.8,-0.7,-1.9,25,72.3788,21.3058,999.761,-0.320417,-0.319791,-1.74921,
2026_07_06_20_58_28.361,3.868,30,0,0.76,0,0,0,0, ,0,0,0,0,0, ,68.3,23.4,1000,-1.2,-0.1,-2.3,25,72.115,21.3785,1000,-0.361829,-0.324679,-1.77059,
2026_07_06_20_58_28.376,3.868,30.1,0,0.759,0,0,0,0, ,0,0,0,0,0, ,79.1,27.8,1002,-2,-0.5,-2,25,72.2116,21.6358,1000.06,-0.43728,-0.323175,-1.79371,
2026_07_06_20_58_28.404,3.868,30.1,0,0.759,0,0,0,0, ,0,0,0,0,0, ,72.5,29.5,986.8,-1.8,-0.6,-1.2,25,72.4302,22.0632,999.717,-0.526414,-0.336997,-1.7819,
2026_07_06_20_58_28.415,3.868,30.1,0,0.76,0,0,0,0, ,0,0,0,0,0, ,66.1,25.3,991.9,0,-0.7,-1.4,25,72.2395,22.3884,999.085,-0.54918,-0.356071,-1.75254,
2026_07_06_20_58_28.441,3.868,30.1,0,0.76,0,0,0,0, ,0,0,0,0,0, ,71.1,21.7,1003.4,0.3,-0.1,-1.5,25,72.0177,22.4562,998.998,-0.506573,-0.358748,-1.7341,
2026_07_06_20_58_28.456,3.868,30,0,0.76,0,0,0,0, ,0,0,0,0,0, ,73.1,17.5,1010.6,-1.3,-0.2,-1.8,25,72.0227,22.2821,999.485,-0.506173,-0.346027,-1.72898,
2026_07_06_20_58_28.484,3.868,30.2,0,0.76,0,0,0,0, ,0,0,0,0,0, ,72.3,23.3,999.8,-2.4,-0.5,-1.9,25,72.064,22.1674,999.834,-0.588062,-0.346269,-1.73635,
2026_07_06_20_58_28.494,3.868,30.1,0,0.759,0,0,0,0, ,0,0,0,0,0, ,71.6,24.4,989,-1.6,0,-1.7,25,72.057,22.27,999.503,-0.674102,-0.340403,-1.74023,
2026_07_06_20_58_28.519,3.868,30.1,0,0.759,0,0,0,0, ,0,0,0,0,0, ,73.3,26.3,993.2,0.2,-0.8,-1.4,25,72.081,22.4576,998.991,-0.67568,-0.344034,-1.72864,
2026_07_06_20_58_28.533,3.868,30,0,0.76,0,0,0,0, ,0,0,0,0,0, ,67.5,17.7,1002,0.8,-0.6,-1.6,25,71.9786,22.4298,998.906,-0.604037,-0.365726,-1.71471,
2026_07_06_20_58_28.561,3.868,30.1,0,0.758,0,0,0,0, ,0,0,0,0,0, ,68.8,17.2,1010.2,-0.9,-0.1,-1.6,25,71.7452,22.1263,999.344,-0.570276,-0.364768,-1.70772,
2026_07_06_20_58_28.573,3.868,30,0,0.759,0,0,0,0, ,0,0,0,0,0, ,74.5,18.5,1000.7,-1.9,0,-1.8,25,71.7394,21.8657,999.716,-0.620837,-0.345587,-1.70725,
2026_07_06_20_58_28.599,3.868,30.1,0,0.759,0,0,0,0, ,0,0,0,0,0, ,72,22.3,991.3,-1.2,-0.7,-1.7,25,71.8315,21.7764,999.49,-0.677458,-0.345856,-1.70985,
2026_07_06_20_58_28.613,3.868,30.1,0,0.76,0,0,0,0, ,0,0,0,0,0, ,70.1,25.6,999.3,0.1,-1.6,-1.6,25,71.7839,21.9089,999.234,-0.669691,-0.394858,-1.7062,
2026_07_06_20_58_28.644,3.868,30.2,0,0.759,0,0,0,0, ,0,0,0,0,0, ,68.9,24.2,1002.1,-0.2,-0.7,-1.7,25,71.6447,22.0911,999.324,-0.631928,-0.440875,-1.70278,
2026_07_06_20_58_28.653,3.868,30.1,0,0.76,0,0,0,0, ,0,0,0,0,0, ,71,22.9,1002.5,-1,-0.4,-1.7,25,71.5414,22.18,999.505,-0.629983,-0.447524,-1.70261,
2026_07_06_20_58_28.679,3.868,30.1,0,0.761,0,0,0,0, ,0,0,0,0,0, ,73.4,26.2,998.4,-1.7,-0.8,-1.6,25,71.5816,22.3244,999.563,-0.673859,-0.456816,-1.6994,
2026_07_06_20_58_28.692,3.868,30.1,0,0.76,0,0,0,0, ,0,0,0,0,0, ,72.9,30.1,995.3,-1.3,-1.1,-1.7,25,71.6771,22.6794,999.397,-0.724202,-0.486869,-1.69639,
2026_07_06_20_58_28.719,3.868,30.1,0,0.759,0,0,0,0, ,0,0,0,0,0, ,67,26.3,997.3,-0.2,0.1,-1.9,25,71.5719,23.0158,999.209,-0.725774,-0.487669,-1.70271,
2026_07_06_20_58_28.731,3.868,30.1,0,0.759,0,0,0,0, ,0,0,0,0,0, ,71.2,23.5,1004.5,-0.1,0.5,-1.7,25,71.4213,23.1307,999.312,-0.690688,-0.439671,-1.70864,
2026_07_06_20_58_28.758,3.868,30.1,0,0.76,0,0,0,0, ,0,0,0,0,0, ,69.3,22.5,995.9,-0.8,1,-1.4,25,71.3499,23.1227,999.366,-0.676021,-0.367175,-1.69897,
2026_07_06_20_58_28.771,3.868,30.1,0,0.76,0,0,0,0, ,0,0,0,0,0, ,72,22.2,998.4,-0.2,0.4,-1.7,25,71.3072,23.0756,999.231,-0.665295,-0.302144,-1.68989,
2026_07_06_20_58_28.799,3.868,30,0,0.76,0,0,0,0, ,0,0,0,0,0, ,68.9,16.7,999.7,0.2,0.2,-1.5,25,71.255,22.8547,999.22,-0.624753,-0.265451,-1.68441,
2026_07_06_20_58_28.811,3.868,30.1,0,0.76,0,0,0,0, ,0,0,0,0,0, ,71.1,16.4,1004.7,0,-0.1,-1.6,25,71.1785,22.4705,999.401,-0.580589,-0.246228,-1.67622,
2026_07_06_20_58_28.838,3.868,30,0,0.76,0,0,0,0, ,0,0,0,0,0, ,74.5,19.6,1000.6,-0.6,-0.5,-1.9,25,71.2773,22.1981,999.599,-0.56349,-0.249505,-1.68072,
2026_07_06_20_58_28.850,3.868,30.1,0,0.76,0,0,0,0, ,0,0,0,0,0, ,73.2,23.5,1000.1,-0.5,-1.1,-1.7,25,71.4341,22.1586,999.645,-0.562668,-0.283051,-1.68799,
2026_07_06_20_58_28.878,3.868,30.1,0,0.759,0,0,0,0, ,0,0,0,0,0, ,75.6,26.4,1001.7,-0.8,-0.9,-1.8,25,71.6148,22.3287,999.722,-0.56799,-0.32674,-1.69177,
2026_07_06_20_58_28.890,3.868,30.1,0,0.759,0,0,0,0, ,0,0,0,0,0, ,69.4,27.5,1000.8,-1,-0.9,-1.7,25,71.6688,22.6103,999.815,-0.588222,-0.361673,-1.69531,
2026_07_06_20_58_28.917,3.868,30.1,0,0.759,0,0,0,0, ,0,0,0,0,0, ,72,25.1,999.5,-0.9,0,-1.7,25,71.6097,22.8351,999.835,-0.610268,-0.367055,-1.6956,
2026_07_06_20_58_28.929,3.868,30.1,0,0.758,0,0,0,0, ,0,0,0,0,0, ,70.6,22.3,996.7,-0.4,-0.3,-1.7,25,71.5909,22.8878,999.729,-0.612689,-0.353829,-1.69587,
2026_07_06_20_58_28.957,3.868,30.1,0,0.76,0,0,0,0, ,0,0,0,0,0, ,69.7,23.4,998.2,-0.1,-1,-1.6,25,71.5031,22.8855,999.591,-0.590587,-0.371876,-1.69307,
2026_07_06_20_58_28.969,3.868,30,0,0.76,0,0,0,0, ,0,0,0,0,0, ,72.7,27.5,1006.5,-0.8,-0.9,-1.6,25,71.4846,23.0418,999.759,-0.58202,-0.407106,-1.6874,
2026_07_06_20_58_28.997,3.868,30.1,0,0.76,0,0,0,0, ,0,0,0,0,0, ,69.5,22.4,997.3,-1.6,-0.2,-1.5,25,71.4612,23.1581,999.889,-0.619679,-0.415814,-1.67903,
2026_07_06_20_58_29.009,3.868,30.1,0,0.76,0,0,0,0, ,0,0,0,0,0, ,71,24.1,991.6,-0.9,-1.2,-1.6,25,71.3874,23.1637,999.558,-0.658089,-0.433131,-1.67117,
2026_07_06_20_58_29.037,3.868,30,0,0.76,0,0,0,0, ,0,0,0,0,0, ,67.1,24,995.3,0.6,-1.7,-1.4,25,71.2449,23.2177,999.186,-0.627127,-0.495097,-1.66074,
2026_07_06_20_58_29.048,3.868,30.1,0,0.759,0,0,0,0, ,0,0,0,0,0, ,63.2,27.3,997,1.1,-1.8,-1.2,25,70.8735,23.3659,999.001,-0.537115,-0.571567,-1.63875,
2026_07_06_20_58_29.075,3.868,30.1,0,0.758,0,0,0,0, ,0,0,0,0,0, ,65,22.3,997.9,1.8,-1,-1.7,25,70.4608,23.4533,998.906,-0.416025,-0.62205,-1.62725,
2026_07_06_20_58_29.090,3.868,30,0,0.759,0,0,0,0, ,0,0,0,0,0, ,69.9,21.8,1003.7,1.9,-0.8,-2.6,25,70.2773,23.3678,999.021,-0.277939,-0.638987,-1.65911,
2026_07_06_20_58_29.120,3.868,30,0,0.761,0,0,0,0, ,0,0,0,0,0, ,77.6,26.6,1011.1,0.8,0,-2.9,25,70.4889,23.4185,999.532,-0.178736,-0.624424,-1.72558,
2026_07_06_20_58_29.128,3.868,30.1,0,0.759,0,0,0,0, ,0,0,0,0,0, ,84.3,30.8,1005.4,-1.4,0.8,-2.4,25,71.1264,23.7403,1000.06,-0.186126,-0.561998,-1.78191,
2026_07_06_20_58_29.155,3.868,30.1,0,0.759,0,0,0,0, ,0,0,0,0,0, ,82.5,32.7,996,-2.1,0.1,-1.6,25,71.8743,24.2284,1000.1,-0.281425,-0.50033,-1.7952,
2026_07_06_20_58_29.167,3.868,30.1,0,0.758,0,0,0,0, ,0,0,0,0,0, ,71.1,30,990.3,-1.2,-0.3,-1,25,72.1745,24.6624,999.678,-0.364822,-0.475935,-1.76503,
2026_07_06_20_58_29.194,3.868,30,0,0.76,0,0,0,0, ,0,0,0,0,0, ,68.1,18.4,1002,0,-1.4,-1.2,25,72.0176,24.6342,999.463,-0.379153,-0.498729,-1.7245,
2026_07_06_20_58_29.206,3.868,30.1,0,0.76,0,0,0,0, ,0,0,0,0,0, ,62.1,13.3,1006.8,-0.7,-1,-1.9,25,71.596,24.0989,999.764,-0.377377,-0.541463,-1.71387,
2026_07_06_20_58_29.234,3.868,30.1,0,0.759,0,0,0,0, ,0,0,0,0,0, ,68.2,17.3,1005.1,-1.4,-1,-2.6,25,71.2032,23.5628,1000.14,-0.418365,-0.569405,-1.74654,
2026_07_06_20_58_29.246,3.868,30.1,0,0.759,0,0,0,0, ,0,0,0,0,0, ,74.2,30.1,994.5,-1.6,-0.7,-2.5,25,71.203,23.5711,1000.12,-0.484277,-0.586504,-1.7955,
2026_07_06_20_58_29.275,3.868,30,0,0.759,0,0,0,0, ,0,0,0,0,0, ,76,36,991.5,-0.4,-0.4,-2,25,71.4405,24.1487,999.687,-0.515704,-0.584279,-1.8232,
2026_07_06_20_58_29.286,3.868,30.1,0,0.76,0,0,0,0, ,0,0,0,0,0, ,70,28,997.3,0.3,-0.4,-1.5,25,71.5355,24.6272,999.364,-0.487325,-0.57305,-1.81874,
2026_07_06_20_58_29.313,3.868,30.1,0,0.76,0,0,0,0, ,0,0,0,0,0, ,75.9,22.5,1008.4,-0.7,-0.3,-2,25,71.6217,24.6651,999.577,-0.469816,-0.559458,-1.81455,
2026_07_06_20_58_29.326,3.868,30.1,0,0.759,0,0,0,0, ,0,0,0,0,0, ,72.7,28,1002.3,-2,-0.2,-1.5,25,71.7849,24.7008,999.929,-0.523452,-0.5406,-1.81061,
2026_07_06_20_58_29.353,3.868,30,0,0.759,0,0,0,0, ,0,0,0,0,0, ,72.8,30,996.2,-1.2,0.3,-1.8,25,71.8437,24.9627,999.887,-0.589054,-0.50461,-1.80083,
2026_07_06_20_58_29.365,3.868,30.1,0,0.759,0,0,0,0, ,0,0,0,0,0, ,80.2,26,1001.3,-0.8,0.1,-1.3,25,72.1275,25.1478,999.818,-0.614096,-0.461673,-1.78554,
2026_07_06_20_58_29.393,3.868,30.1,0,0.759,0,0,0,0, ,0,0,0,0,0, ,70.4,20.7,994.7,-0.5,-0.7,-1.1,25,72.3208,25.0383,999.707,-0.616284,-0.451821,-1.74986,
2026_07_06_20_58_29.405,3.868,30,0,0.759,0,0,0,0, ,0,0,0,0,0, ,63.4,18.9,997.6,0.2,-1.3,-1.8,25,71.9905,24.7191,999.49,-0.58787,-0.485226,-1.73159,
2026_07_06_20_58_29.433,3.868,30.1,0,0.76,0,0,0,0, ,0,0,0,0,0, ,66.4,19.1,1005.1,0.1,-0.9,-2.1,25,71.5584,24.3706,999.604,-0.542906,-0.522689,-1.7449,
2026_07_06_20_58_29.444,3.868,30.1,0,0.759,0,0,0,0, ,0,0,0,0,0, ,73.7,26.1,1001.2,-0.6,-0.6,-1.9,25,71.4665,24.2627,999.82,-0.525057,-0.53654,-1.76044,
2026_07_06_20_58_29.473,3.868,30.1,0,0.76,0,0,0,0, ,0,0,0,0,0, ,77.2,33.6,997.3,-0.8,-0.9,-1.8,25,71.7092,24.6031,999.785,-0.535718,-0.549548,-1.7659,
2026_07_06_20_58_29.490,3.868,30.1,0,0.76,0,0,0,0, ,0,0,0,0,0, ,70.1,32.9,997.1,-0.7,-0.1,-1.7,25,71.8275,25.1301,999.628,-0.548776,-0.546529,-1.76493,
2026_07_06_20_58_29.518,3.868,30,0,0.76,0,0,0,0, ,0,0,0,0,0, ,75.3,29,1005,-1.4,0.3,-1.9,25,71.8807,25.4847,999.714,-0.579319,-0.507131,-1.76707,
2026_07_06_20_58_29.523,3.868,30,0,0.76,0,0,0,0, ,0,0,0,0,0, ,74.9,24.1,994.8,-1.9,0.1,-1.5,25,72.0768,25.5496,999.726,-0.644564,-0.46404,-1.76298,
2026_07_06_20_58_29.552,3.868,30.1,0,0.759,0,0,0,0, ,0,0,0,0,0, ,71.7,27.8,996.5,-0.6,-1.5,-1.4,25,72.1514,25.574,999.477,-0.681457,-0.478419,-1.74391,
2026_07_06_20_58_29.564,3.868,30,0,0.76,0,0,0,0, ,0,0,0,0,0, ,69.3,25.6,997.8,0.4,-0.1,-1.7,25,72.0507,25.6426,999.335,-0.646025,-0.498015,-1.73209,
2026_07_06_20_58_29.591,3.868,30.2,0,0.759,0,0,0,0, ,0,0,0,0,0, ,73.8,22.7,1010.8,-0.8,-0.6,-1.8,25,72.0202,25.5517,999.638,-0.618845,-0.488996,-1.73318,
2026_07_06_20_58_29.603,3.868,30.1,0,0.76,0,0,0,0, ,0,0,0,0,0, ,73.7,23.4,996.2,-2,0,-1.6,25,72.1256,25.3992,999.873,-0.666447,-0.477479,-1.73116,
2026_07_06_20_58_29.631,3.868,30,0,0.758,0,0,0,0, ,0,0,0,0,0, ,71.8,25.3,998.4,-0.6,-1,-1.7,25,72.1637,25.3353,999.716,-0.705054,-0.478851,-1.72622,
2026_07_06_20_58_29.642,3.868,30,0,0.759,0,0,0,0, ,0,0,0,0,0, ,70.5,24.4,997.8,-0.1,0.7,-2,25,72.1019,25.3057,999.618,-0.683418,-0.458812,-1.73376,
2026_07_06_20_58_29.671,3.868,30.1,0,0.759,0,0,0,0, ,0,0,0,0,0, ,72.3,19.6,1006.9,-1.2,-0.4,-1.5,25,72.0591,25.1043,999.784,-0.681381,-0.421712,-1.73475,
2026_07_06_20_58_29.683,3.868,30.1,0,0.758,0,0,0,0, ,0,0,0,0,0, ,68.6,21.9,992,-1.8,-0.4,-1.6,25,71.9611,24.8389,999.764,-0.731266,-0.420389,-1.72349,
2026_07_06_20_58_29.712,3.868,30.1,0,0.759,0,0,0,0, ,0,0,0,0,0, ,66.6,25.1,993.1,0,-0.9,-1.6,25,71.6953,24.7574,999.324,-0.741548,-0.434381,-1.71597,
2026_07_06_20_58_29.723,3.868,30.1,0,0.76,0,0,0,0, ,0,0,0,0,0, ,72.9,25.5,1007.3,0.5,-0.4,-2.1,25,71.5768,24.7904,999.378,-0.681126,-0.44752,-1.72413,
2026_07_06_20_58_29.752,3.868,30.1,0,0.758,0,0,0,0, ,0,0,0,0,0, ,75.6,25.8,1004.5,-1.1,0.1,-1.6,25,71.7397,24.8428,999.775,-0.657901,-0.42939,-1.7318,
2026_07_06_20_58_29.761,3.868,30.1,0,0.759,0,0,0,0, ,0,0,0,0,0, ,76.1,28.3,1003.4,-1.6,0.2,-1.5,25,71.9902,24.9773,1000.03,-0.700076,-0.394084,-1.72072,
2026_07_06_20_58_29.789,3.868,30.1,0,0.76,0,0,0,0, ,0,0,0,0,0, ,74.4,26.1,991.3,-1.7,-0.2,-1.4,25,72.1888,25.1127,999.866,-0.757962,-0.370069,-1.70423,
2026_07_06_20_58_29.801,3.868,30.1,0,0.758,0,0,0,0, ,0,0,0,0,0, ,68.2,26.9,998.5,-0.8,-1.9,-1.4,25,72.1346,25.1973,999.564,-0.787945,-0.411502,-1.68569,
2026_07_06_20_58_29.829,3.868,30,0,0.76,0,0,0,0, ,0,0,0,0,0, ,65.9,21.4,1001.3,-0.5,-0.9,-1.8,25,71.8248,25.1335,999.584,-0.779539,-0.471739,-1.68047,
2026_07_06_20_58_29.840,3.868,30.1,0,0.759,0,0,0,0, ,0,0,0,0,0, ,77.3,22.3,1006.9,-1.5,-1.3,-1.8,25,71.8111,24.9334,999.859,-0.792974,-0.510024,-1.68775,
2026_07_06_20_58_29.870,3.868,30.1,0,0.76,0,0,0,0, ,0,0,0,0,0, ,77,24.7,994.8,-2.1,-1.8,-1.5,25,72.1364,24.846,999.92,-0.854339,-0.573397,-1.68545,
2026_07_06_20_58_29.881,3.868,30.1,0,0.759,0,0,0,0, ,0,0,0,0,0, ,69,31.1,993.8,-0.9,-2,-1.4,25,72.1891,25.0321,999.577,-0.893684,-0.654237,-1.6711,
2026_07_06_20_58_29.910,3.868,30.1,0,0.76,0,0,0,0, ,0,0,0,0,0, ,68.4,26.7,1000.8,0,0.3,-2,25,71.9764,25.2678,999.439,-0.866647,-0.666166,-1.67286,
2026_07_06_20_58_29.926,3.868,30,0,0.759,0,0,0,0, ,0,0,0,0,0, ,77.3,19.4,1009.7,-0.6,0.4,-2,25,72.0297,25.1327,999.793,-0.832117,-0.604244,-1.6928,
2026_07_06_20_58_29.955,3.868,30.1,0,0.76,0,0,0,0, ,0,0,0,0,0, ,75.8,21.4,998.9,-1.6,0.5,-1.5,25,72.3051,24.8443,1000.07,-0.848441,-0.540001,-1.69628,
2026_07_06_20_58_29.959,3.868,30,0,0.759,0,0,0,0, ,0,0,0,0,0, ,73.6,24,995.8,-0.9,-0.3,-1.6,25,72.4511,24.7136,999.902,-0.872911,-0.501001,-1.68737,
2026_07_06_20_58_29.988,3.868,30.1,0,0.759,0,0,0,0, ,0,0,0,0,0, ,68.8,20.1,993.8,0,-0.4,-1.1,25,72.3748,24.5513,999.591,-0.84714,-0.491799,-1.66681,
2026_07_06_20_58_29.999,3.868,30.1,0,0.759,0,0,0,0, ,0,0,0,0,0, ,71.5,18.5,1003.1,0.3,-1.6,-1.7,25,72.2393,24.2313,999.521,-0.786377,-0.522768,-1.65055,
2026_07_06_20_58_30.028,3.868,30.1,0,0.759,0,0,0,0, ,0,0,0,0,0, ,70.5,21.1,1006.1,-0.6,-0.8,-1.9,25,72.1637,23.9613,999.831,-0.747598,-0.564036,-1.65966,
2026_07_06_20_58_30.039,3.868,30,0,0.76,0,0,0,0, ,0,0,0,0,0, ,71.7,28.3,997.6,-0.9,-0.2,-1.9,25,72.0989,24.0063,999.954,-0.747744,-0.560134,-1.67431,
2026_07_06_20_58_30.068,3.868,30.1,0,0.759,0,0,0,0, ,0,0,0,0,0, ,75.6,27.7,997.6,0,-0.3,-2,25,72.1934,24.2497,999.81,-0.7296,-0.541235,-1.69111,
2026_07_06_20_58_30.078,3.868,30.1,0,0.76,0,0,0,0, ,0,0,0,0,0, ,76,25.6,1000,-0.2,-0.2,-1.7,25,72.4132,24.3959,999.749,-0.691234,-0.523488,-1.70079,
2026_07_06_20_58_30.107,3.868,30,0,0.76,0,0,0,0, ,0,0,0,0,0, ,72.2,26.6,999.5,-0.9,-0.2,-1.4,25,72.516,24.4998,999.749,-0.682628,-0.503776,-1.6916,
2026_07_06_20_58_30.118,3.868,30.1,0,0.759,0,0,0,0, ,0,0,0,0,0, ,66.8,25.2,993.1,0,0.3,-1.8,25,72.3322,24.5851,999.539,-0.668452,-0.47003,-1.68602,
2026_07_06_20_58_30.146,3.868,30.2,0,0.758,0,0,0,0, ,0,0,0,0,0, ,72,19.5,1010.7,0,-1,-1.6,25,72.1535,24.4489,999.683,-0.627718,-0.462716,-1.68687,
2026_07_06_20_58_30.158,3.868,30.1,0,0.759,0,0,0,0, ,0,0,0,0,0, ,68.9,23.3,998.7,-1.5,-0.1,-1.4,25,72.0497,24.2631,999.988,-0.63517,-0.468035,-1.67548,
2026_07_06_20_58_30.186,3.868,30.1,0,0.76,0,0,0,0, ,0,0,0,0,0, ,76.1,29.9,991.9,-0.9,-0.4,-1.6,25,72.0772,24.4055,999.703,-0.669589,-0.454748,-1.66479,
2026_07_06_20_58_30.197,3.868,30.1,0,0.76,0,0,0,0, ,0,0,0,0,0, ,75.5,26.6,990.1,0.8,-2,-0.8,25,72.304,24.6398,999.172,-0.631833,-0.500162,-1.63647,
2026_07_06_20_58_30.227,3.868,30,0,0.76,0,0,0,0, ,0,0,0,0,0, ,82.3,21.7,1003.9,0.9,-1.8,-0.4,25,72.706,24.6099,999.04,-0.541534,-0.585464,-1.57331,
2026_07_06_20_58_30.236,3.868,30,0,0.76,0,0,0,0, ,0,0,0,0,0, ,73.3,23.8,1002.3,0.2,-2.5,-0.4,25,73.0164,24.4966,999.287,-0.475018,-0.680803,-1.50181,
2026_07_06_20_58_30.267,3.868,30.1,0,0.759,0,0,0,0, ,0,0,0,0,0, ,73.7,27,987.6,1.6,-1.5,-0.5,25,73.0459,24.5516,999.023,-0.391228,-0.761192,-1.43771,
2026_07_06_20_58_30.277,3.868,30.1,0,0.76,0,0,0,0, ,0,0,0,0,0, ,61.6,22.7,1005,2.6,-2.1,-1.4,25,72.717,24.5698,998.857,-0.239419,-0.824494,-1.40799,
2026_07_06_20_58_30.306,3.868,30.1,0,0.759,0,0,0,0, ,0,0,0,0,0, ,73.3,21.4,1005.7,1.6,-0.7,-1.9,25,72.3961,24.4163,999.253,-0.0968606,-0.859564,-1.42274,
2026_07_06_20_58_30.316,3.868,30,0,0.758,0,0,0,0, ,0,0,0,0,0, ,72.7,30.2,1010.4,-0.6,0,-1.9,25,72.4329,24.5006,999.789,-0.0604894,-0.828513,-1.45182,
2026_07_06_20_58_30.347,3.868,30,0,0.76,0,0,0,0, ,0,0,0,0,0, ,76.7,33.2,1001.5,-1.4,1,-2.7,25,72.571,24.9393,1000.16,-0.117741,-0.747556,-1.50351,
2026_07_06_20_58_30.356,3.868,30,0,0.759,0,0,0,0, ,0,0,0,0,0, ,82.6,36.4,992,-1.8,0.5,-2.1,25,73.0024,25.5402,999.956,-0.208066,-0.656299,-1.55814,
2026_07_06_20_58_30.385,3.868,30.1,0,0.76,0,0,0,0, ,0,0,0,0,0, ,75.4,33.4,988.1,-0.7,0,-1.3,25,73.3679,26.1106,999.353,-0.271559,-0.601071,-1.56678,
2026_07_06_20_58_30.395,3.868,30.1,0,0.759,0,0,0,0, ,0,0,0,0,0, ,74.3,28.6,995.9,0.6,-0.8,-1.7,25,73.4582,26.4085,998.905,-0.258058,-0.588819,-1.56271,
2026_07_06_20_58_30.434,3.868,30,0,0.759,0,0,0,0, ,0,0,0,0,0, ,77.2,23.5,1012,-0.6,-1.3,-1.7,25,73.5979,26.3867,999.212,-0.242332,-0.616922,-1.57108,
2026_07_06_20_58_30.435,3.868,30.1,0,0.759,0,0,0,0, ,0,0,0,0,0, ,71.6,28.5,999.3,-2.2,-0.4,-1.8,25,73.6467,26.3631,999.604,-0.312878,-0.631125,-1.58198,
2026_07_06_20_58_30.466,3.868,30,0,0.76,0,0,0,0, ,0,0,0,0,0, ,74.3,33.8,992.7,-1,0.4,-2.1,25,73.6043,26.6548,999.385,-0.391312,-0.592666,-1.60441,
2026_07_06_20_58_30.474,3.868,30,0,0.76,0,0,0,0, ,0,0,0,0,0, ,79.9,29.6,997.5,-0.4,0.4,-2.1,25,73.8173,26.9622,999.124,-0.410122,-0.532175,-1.63461,
2026_07_06_20_58_30.503,3.868,30,0,0.76,0,0,0,0, ,0,0,0,0,0, ,79.1,24,1006.1,-0.6,-0.2,-1.4,25,74.1636,26.9524,999.287,-0.415599,-0.493652,-1.64164,
2026_07_06_20_58_30.514,3.868,30,0,0.76,0,0,0,0, ,0,0,0,0,0, ,74.5,24.7,1000.7,-2.3,-0.7,-1,25,74.3242,26.7938,999.537,-0.478633,-0.490992,-1.61473,
2026_07_06_20_58_30.544,3.868,30.1,0,0.759,0,0,0,0, ,0,0,0,0,0, ,71.4,31.6,994.2,-2.4,-1.5,-1,25,74.2405,26.8764,999.41,-0.592669,-0.528103,-1.57727,
2026_07_06_20_58_30.553,3.868,30.1,0,0.76,0,0,0,0, ,0,0,0,0,0, ,67.6,28.1,990.9,-1,-1.1,-1,25,73.9516,27.0576,998.992,-0.660147,-0.575141,-1.54209,
2026_07_06_20_58_30.584,3.868,30.1,0,0.76,0,0,0,0, ,0,0,0,0,0, ,73.4,21.7,1002.8,0,-0.7,-1.7,25,73.7413,26.9261,998.862,-0.650388,-0.594937,-1.53039,
2026_07_06_20_58_30.593,3.868,30.1,0,0.76,0,0,0,0, ,0,0,0,0,0, ,75.6,19.7,1004.3,-0.9,-1.4,-1.8,25,73.7875,26.5467,999.147,-0.638177,-0.622667,-1.54377,
2026_07_06_20_58_30.624,3.868,30.1,0,0.759,0,0,0,0, ,0,0,0,0,0, ,80.5,29.7,1000.3,-1.4,-1,-2.2,25,74.0473,26.4342,999.339,-0.669366,-0.657849,-1.57157,
2026_07_06_20_58_30.633,3.868,30.1,0,0.759,0,0,0,0, ,0,0,0,0,0, ,76.9,37.5,993.2,-0.3,-0.9,-2.1,25,74.3308,26.8709,999.182,-0.680374,-0.675652,-1.60682,
2026_07_06_20_58_30.663,3.868,30.1,0,0.759,0,0,0,0, ,0,0,0,0,0, ,76.1,36.4,995.8,0.6,0.7,-1.8,25,74.463,27.4851,998.896,-0.629773,-0.640573,-1.62773,
2026_07_06_20_58_30.673,3.868,30,0,0.761,0,0,0,0, ,0,0,0,0,0, ,80,25.5,1002.6,-0.2,0.3,-1.5,25,74.6816,27.6962,998.915,-0.579209,-0.571069,-1.62909,
2026_07_06_20_58_30.702,3.868,30.1,0,0.759,0,0,0,0, ,0,0,0,0,0, ,74.5,22.2,995.8,-0.7,-0.2,-1.3,25,74.8381,27.4618,998.932,-0.571335,-0.533223,-1.61513,
2026_07_06_20_58_30.712,3.868,30.1,0,0.76,0,0,0,0, ,0,0,0,0,0, ,68.8,23.6,999.5,-0.5,-1.1,-1.6,25,74.6438,27.1838,998.854,-0.573082,-0.540339,-1.60507,
2026_07_06_20_58_30.742,3.868,30.1,0,0.759,0,0,0,0, ,0,0,0,0,0, ,65.3,22.8,999,-0.3,-0.3,-2,25,74.1811,26.9411,998.878,-0.562535,-0.550068,-1.61694,
2026_07_06_20_58_30.752,3.868,30,0,0.759,0,0,0,0, ,0,0,0,0,0, ,77.3,25.2,1004,-0.2,-0.3,-1.9,25,74.0055,26.7619,999.038,-0.543489,-0.53483,-1.63724,
2026_07_06_20_58_30.783,3.868,30.1,0,0.76,0,0,0,0, ,0,0,0,0,0, ,80,28.1,1000,-0.9,-0.3,-1.6,25,74.2885,26.755,999.218,-0.543886,-0.52052,-1.64411,
2026_07_06_20_58_30.791,3.868,30,0,0.76,0,0,0,0, ,0,0,0,0,0, ,74.7,29.4,995.6,-0.6,-0.3,-1.6,25,74.4751,26.8766,999.132,-0.556446,-0.507082,-1.64142,
2026_07_06_20_58_30.821,3.868,30.1,0,0.76,0,0,0,0, ,0,0,0,0,0, ,72.8,29.5,996.9,-0.3,-0.7,-1.8,25,74.4309,27.0334,998.956,-0.54996,-0.50665,-1.64499,
2026_07_06_20_58_30.831,3.868,30,0,0.761,0,0,0,0, ,0,0,0,0,0, ,74.4,28,1001.3,-0.1,-0.6,-2,25,74.3803,27.138,998.965,-0.528634,-0.515386,-1.66053,
2026_07_06_20_58_30.862,3.868,30.1,0,0.761,0,0,0,0, ,0,0,0,0,0, ,76.1,28.9,1002,-0.7,-0.7,-1.7,25,74.4333,27.218,999.129,-0.520795,-0.523589,-1.67208,
2026_07_06_20_58_30.870,3.868,30.1,0,0.76,0,0,0,0, ,0,0,0,0,0, ,73.2,31.4,997.9,-0.9,-0.3,-1.9,25,74.4465,27.3966,999.179,-0.537809,-0.522151,-1.67987,
2026_07_06_20_58_30.901,3.868,30,0,0.759,0,0,0,0, ,0,0,0,0,0, ,76.7,30.1,996,-0.6,-0.4,-1.7,25,74.4772,27.601,999.043,-0.55074,-0.511661,-1.68719,
2026_07_06_20_58_30.910,3.868,30,0,0.759,0,0,0,0, ,0,0,0,0,0, ,72.9,29.9,995.9,-0.5,-0.5,-1.9,25,74.4968,27.7472,998.855,-0.550695,-0.507903,-1.69407,
2026_07_06_20_58_30.941,3.868,30.1,0,0.76,0,0,0,0, ,0,0,0,0,0, ,78.6,30.1,1003.1,-0.7,-0.2,-2,25,74.5732,27.8845,998.894,-0.553699,-0.498281,-1.70966,
2026_07_06_20_58_30.954,3.868,30.1,0,0.76,0,0,0,0, ,0,0,0,0,0, ,77.2,29.7,1000.8,-1.2,0,-1.9,25,74.7759,28.0073,999.08,-0.577849,-0.474011,-1.72431,
2026_07_06_20_58_30.983,3.868,30.1,0,0.76,0,0,0,0, ,0,0,0,0,0, ,73.2,25.7,999.7,-0.7,0.3,-2,25,74.8018,27.9886,999.151,-0.600527,-0.435985,-1.73806,
2026_07_06_20_58_30.990,3.868,30,0,0.759,0,0,0,0, ,0,0,0,0,0, ,75,22.3,1003.2,-1,0.2,-2.3,25,74.759,27.7455,999.291,-0.615729,-0.394183,-1.76316,
2026_07_06_20_58_31.021,3.868,30.1,0,0.759,0,0,0,0, ,0,0,0,0,0, ,72.8,22.3,997.6,-1.6,0.2,-1.7,25,74.7067,27.4137,999.359,-0.657427,-0.357975,-1.7776,
2026_07_06_20_58_31.029,3.868,30,0,0.76,0,0,0,0, ,0,0,0,0,0, ,73.6,25.8,994.9,-0.8,-0.2,-1.9,25,74.6148,27.2087,999.17,-0.69049,-0.336161,-1.77896,
2026_07_06_20_58_31.059,3.868,30.2,0,0.759,0,0,0,0, ,0,0,0,0,0, ,70.3,27,995.4,0,-1,-1.9,25,74.4525,27.1594,998.925,-0.672788,-0.352239,-1.78634,
2026_07_06_20_58_31.069,3.868,30.1,0,0.76,0,0,0,0, ,0,0,0,0,0, ,75.6,30.6,1002.6,0,-0.6,-0.9,25,74.3609,27.2594,998.929,-0.63179,-0.379524,-1.7628,
2026_07_06_20_58_31.101,3.868,30.1,0,0.76,0,0,0,0, ,0,0,0,0,0, ,69.5,27.5,994.8,0.5,1.6,2.7,25,74.2505,27.3685,998.915,-0.578056,-0.325928,-1.60053,
2026_07_06_20_58_31.109,3.868,30.1,0,0.76,0,0,0,0, ,0,0,0,0,0, ,85.4,38.9,996.8,1.8,3.4,5.4,25,74.4455,27.7239,998.725,-0.472753,-0.153723,-1.2562,
2026_07_06_20_58_31.140,3.868,30.1,0,0.76,0,0,0,0, ,0,0,0,0,0, ,82.8,29.1,993.1,0,0,0,25,75.0338,28.1063,998.495,-0.389101,-0.0407618,-1.01512,
2026_07_06_20_58_31.148,3.868,30,0,0.76,0,0,0,0, ,0,0,0,0,0, ,67.5,26,998.2,0.5,-1.4,-1.8,25,75.0409,28.0724,998.322,-0.350155,-0.0809341,-1.00811,
2026_07_06_20_58_31.179,3.868,30,0,0.761,0,0,0,0, ,0,0,0,0,0, ,61.6,22.9,1000.2,0.1,-1.6,-2.1,25,74.4016,27.8517,998.375,-0.310537,-0.167408,-1.0655,
2026_07_06_20_58_31.187,3.868,30,0,0.759,0,0,0,0, ,0,0,0,0,0, ,67.6,24.7,1008,0,-2.4,-3.3,25,73.8043,27.6048,998.724,-0.288566,-0.279082,-1.1651,
2026_07_06_20_58_31.217,3.868,30.1,0,0.759,0,0,0,0, ,0,0,0,0,0, ,73.3,25.1,1005.8,-1.4,-3.1,-4.8,25,73.5999,27.44,999.222,-0.313638,-0.429654,-1.3409,
2026_07_06_20_58_31.226,3.868,30.1,0,0.76,0,0,0,0, ,0,0,0,0,0, ,74,36,998,-2.5,-3.5,-3.5,25,73.603,27.6295,999.386,-0.413354,-0.604565,-1.51208,
2026_07_06_20_58_31.257,3.868,30.1,0,0.76,0,0,0,0, ,0,0,0,0,0, ,82.5,41.2,990.2,-1.9,-1.1,-3.1,25,73.8862,28.298,999.064,-0.522228,-0.707881,-1.62103,
2026_07_06_20_58_31.265,3.868,30,0,0.76,0,0,0,0, ,0,0,0,0,0, ,85.6,33.8,998.4,-1.3,-2.3,-2.3,25,74.5055,28.8587,998.773,-0.587904,-0.768338,-1.68678,
2026_07_06_20_58_31.297,3.868,30.1,0,0.761,0,0,0,0, ,0,0,0,0,0, ,73.6,27.7,1003.9,-2.1,-1.1,-1.5,25,74.816,28.974,998.918,-0.655673,-0.825111,-1.69978,
2026_07_06_20_58_31.306,3.868,30,0,0.76,0,0,0,0, ,0,0,0,0,0, ,69.2,26.8,999.2,-2.4,-0.1,-1.9,25,74.6078,28.8689,999.078,-0.752827,-0.811394,-1.69979,
2026_07_06_20_58_31.339,3.868,30,0,0.76,0,0,0,0, ,0,0,0,0,0, ,70.6,24.9,999.1,-1.9,0,-2.2,25,74.3209,28.685,999.083,-0.837967,-0.764996,-1.72113,
2026_07_06_20_58_31.345,3.868,30.1,0,0.761,0,0,0,0, ,0,0,0,0,0, ,77.3,25.5,995.2,-1.8,-0.1,-2.2,25,74.2983,28.4726,998.965,-0.899638,-0.721426,-1.75031,
2026_07_06_20_58_31.376,3.868,30,0,0.759,0,0,0,0, ,0,0,0,0,0, ,74.8,22,995.7,-1.2,-1.4,-2.4,25,74.4051,28.1848,998.751,-0.936222,-0.723167,-1.78381,
2026_07_06_20_58_31.385,3.868,30.1,0,0.759,0,0,0,0, ,0,0,0,0,0, ,73.9,19,998.9,-1.2,-1.4,-2.5,25,74.4017,27.7165,998.662,-0.952296,-0.764412,-1.8244,
2026_07_06_20_58_31.417,3.868,30,0,0.759,0,0,0,0, ,0,0,0,0,0, ,76.6,20.7,1003,-2,-2,-2.4,25,74.4534,27.2372,998.802,-0.991766,-0.821424,-1.86253,
2026_07_06_20_58_31.425,3.868,30,0,0.759,0,0,0,0, ,0,0,0,0,0, ,80,25.3,999.1,-1.7,-1.2,-2.1,25,74.6878,26.979,998.939,-1.04406,-0.868869,-1.88614,
2026_07_06_20_58_31.455,3.868,30,0,0.759,0,0,0,0, ,0,0,0,0,0, ,78.9,27.2,994,-0.4,-1.7,-1.9,25,74.978,26.9345,998.793,-1.04443,-0.904281,-1.89308,
2026_07_06_20_58_31.464,3.868,30.1,0,0.759,0,0,0,0, ,0,0,0,0,0, ,78.9,25.1,1002.9,0.2,-1.1,-1.9,25,75.217,26.8867,998.772,-0.986875,-0.934489,-1.8935,
2026_07_06_20_58_31.497,3.868,30,0,0.76,0,0,0,0, ,0,0,0,0,0, ,77.3,24.6,1004.6,-1,-0.5,-1.8,25,75.3927,26.7626,999.076,-0.951113,-0.926294,-1.89085,
2026_07_06_20_58_31.504,3.868,30.1,0,0.761,0,0,0,0, ,0,0,0,0,0, ,79.8,28.8,993.7,-1.1,0,-2,25,75.5851,26.7588,999.08,-0.957138,-0.885082,-1.89141,
2026_07_06_20_58_31.534,3.868,30,0,0.761,0,0,0,0, ,0,0,0,0,0, ,81.2,27.7,998.9,0,-0.8,-2.1,25,75.8846,26.8497,998.911,-0.932328,-0.855522,-1.90107,
2026_07_06_20_58_31.544,3.868,30,0,0.76,0,0,0,0, ,0,0,0,0,0, ,75.6,25.5,1000,-0.5,-0.5,-1.7,25,76.0379,26.8345,998.944,-0.890749,-0.842998,-1.901,
2026_07_06_20_58_31.574,3.868,30.1,0,0.759,0,0,0,0, ,0,0,0,0,0, ,76.1,21.7,996.7,-0.5,-0.8,-1.7,25,76.0264,26.6374,998.907,-0.866938,-0.831238,-1.88876,
2026_07_06_20_58_31.588,3.868,30,0,0.759,0,0,0,0, ,0,0,0,0,0, ,78.4,26.1,995.2,0,-2,-2,25,76.101,26.4705,998.727,-0.829343,-0.865896,-1.88639,
2026_07_06_20_58_31.619,3.868,30,0,0.76,0,0,0,0, ,0,0,0,0,0, ,80.9,29.2,999.6,0.1,-2.3,-1.7,25,76.3172,26.5424,998.646,-0.775758,-0.944147,-1.88418,
2026_07_06_20_58_31.624,3.868,30.1,0,0.76,0,0,0,0, ,0,0,0,0,0, ,75.4,31.8,1000.3,-0.4,-0.9,-1.8,25,76.4289,26.7836,998.726,-0.737626,-0.984113,-1.876,
2026_07_06_20_58_31.656,3.868,30.1,0,0.76,0,0,0,0, ,0,0,0,0,0, ,78.9,29.2,1001.7,-0.9,0,-1.9,25,76.4729,27.0101,998.864,-0.732286,-0.951565,-1.87442,
2026_07_06_20_58_31.662,3.868,30,0,0.76,0,0,0,0, ,0,0,0,0,0, ,81.5,30.6,997.1,-1.2,0.4,-2,25,76.7,27.1862,998.897,-0.751647,-0.881392,-1.87902,
2026_07_06_20_58_31.694,3.868,30.1,0,0.759,0,0,0,0, ,0,0,0,0,0, ,81.5,29.2,998.1,-0.8,0.2,-1.8,25,76.9925,27.3515,998.818,-0.766781,-0.809401,-1.8803,
2026_07_06_20_58_31.702,3.868,30.1,0,0.76,0,0,0,0, ,0,0,0,0,0, ,81.5,24,997.3,-0.7,0.1,-1.5,25,77.2672,27.3057,998.75,-0.765758,-0.750937,-1.86627,
2026_07_06_20_58_31.733,3.868,30,0,0.76,0,0,0,0, ,0,0,0,0,0, ,81.6,22.9,1001.2,-0.5,-0.9,-1.8,25,77.5282,27.0708,998.78,-0.755658,-0.729552,-1.85309,
2026_07_06_20_58_31.741,3.868,30.1,0,0.76,0,0,0,0, ,0,0,0,0,0, ,71.1,24,996.3,0,-0.7,-1.9,25,77.4564,26.8501,998.778,-0.724844,-0.733845,-1.8529,
2026_07_06_20_58_31.772,3.868,30.1,0,0.759,0,0,0,0, ,0,0,0,0,0, ,78.6,21.9,1004.1,0.3,0,-2.4,25,77.2975,26.6125,998.865,-0.671533,-0.710454,-1.871,
2026_07_06_20_58_31.781,3.868,30,0,0.76,0,0,0,0, ,0,0,0,0,0, ,84.7,21.9,1003.6,-1,-0.3,-2,25,77.5628,26.3253,999.169,-0.65194,-0.676302,-1.89105,
2026_07_06_20_58_31.812,3.868,30,0,0.759,0,0,0,0, ,0,0,0,0,0, ,76.5,27.7,993.7,-1.2,-0.7,-1.4,25,77.7478,26.2324,999.137,-0.679243,-0.665558,-1.87941,
2026_07_06_20_58_31.821,3.868,30,0,0.76,0,0,0,0, ,0,0,0,0,0, ,76.7,26.9,994.7,0.1,-0.8,-1.9,25,77.6779,26.2974,998.836,-0.671368,-0.670704,-1.86543,
2026_07_06_20_58_31.852,3.868,30,0,0.758,0,0,0,0, ,0,0,0,0,0, ,77.5,24.6,1002.5,0,-0.6,-1.9,25,77.6427,26.2641,998.822,-0.627409,-0.672489,-1.86754,
2026_07_06_20_58_31.860,3.868,30.1,0,0.759,0,0,0,0, ,0,0,0,0,0, ,76.6,23.1,1002.6,-0.5,-0.7,-1.8,25,77.6066,26.117,999.049,-0.604411,-0.671119,-1.86647,
2026_07_06_20_58_31.894,3.868,30.1,0,0.759,0,0,0,0, ,0,0,0,0,0, ,75.5,30.5,996,-0.5,-0.7,-2,25,77.5117,26.1586,999.064,-0.598048,-0.672879,-1.86851,
2026_07_06_20_58_31.900,3.868,30.1,0,0.76,0,0,0,0, ,0,0,0,0,0, ,83.2,35.6,1003.4,-0.4,-0.6,-2.1,25,77.6237,26.5785,999.103,-0.589027,-0.671484,-1.87957,
2026_07_06_20_58_31.932,3.868,30.1,0,0.759,0,0,0,0, ,0,0,0,0,0, ,79.3,30.2,997.8,-0.5,0.3,-1.9,25,77.8447,26.9637,999.194,-0.580555,-0.639707,-1.88691,
2026_07_06_20_58_31.939,3.868,30.1,0,0.759,0,0,0,0, ,0,0,0,0,0, ,79.5,26.2,995.9,-0.2,-0.1,-1.8,25,77.9395,27.0391,999.052,-0.566505,-0.594631,-1.88466,
2026_07_06_20_58_31.971,3.868,30.1,0,0.758,0,0,0,0, ,0,0,0,0,0, ,75.1,29.2,996.8,0,-0.5,-1.7,25,77.9005,27.0793,998.887,-0.538078,-0.576677,-1.87645,
2026_07_06_20_58_31.979,3.868,30.1,0,0.761,0,0,0,0, ,0,0,0,0,0, ,80.5,32.3,999.2,0.4,-0.3,-1.9,25,77.8944,27.303,998.833,-0.493101,-0.56591,-1.8718,
2026_07_06_20_58_32.011,3.868,30.1,0,0.759,0,0,0,0, ,0,0,0,0,0, ,84.9,28.5,1002.6,0,-0.3,-1.9,25,78.1872,27.4917,998.959,-0.450865,-0.549706,-1.87351,
2026_07_06_20_58_32.019,3.868,30,0,0.76,0,0,0,0, ,0,0,0,0,0, ,82.6,27.7,999.8,-0.6,-0.9,-1.4,25,78.5262,27.5288,999.095,-0.441672,-0.552771,-1.85989,
2026_07_06_20_58_32.051,3.868,30,0,0.76,0,0,0,0, ,0,0,0,0,0, ,75.4,26.4,994.3,-0.3,-0.9,-1.4,25,78.5551,27.4996,998.971,-0.442179,-0.57393,-1.83187,
