UTC_Time,Vin,TC1,TC2,Rh1,Vh1,Ah1,Acp1,Dty1,Err1,Rh2,Vh2,Ah2,Acp2,Dty2,Err2,Accel_x,Accel_y,Accel_z,gyro_x,gyro_y,gyro_z,Temp_c,Accel_x_h,Accel_y_h,Accel_z_h,gyro_x_h,gyro_y_h,gyro_z_h,
2026_06_09_01_28_52.803,3.853,28.5,0,0.758,0,0,0,0.011, ,0,0,0,0,0, ,992,12,26.8,-0.7,-0.5,-1.8,25,35.8,0.433064,0.967177,-0.0252621,-0.0180444,-0.0649597,
2026_06_09_01_28_52.823,3.853,28.6,0,0.755,0,0,0,0.012, ,0,0,0,0,0, ,991,11.1,25.3,-0.6,-0.5,-1.7,25,34.4357,0.394788,0.894199,-0.0218645,-0.0173691,-0.0600765,
2026_06_09_01_28_52.843,3.853,28.6,0,0.757,0,0,0,0.011, ,0,0,0,0,0, ,991.9,10.7,26.4,-0.6,-0.5,-1.8,25,32.9661,0.324565,0.810585,-0.0160737,-0.0166413,-0.0551367,
2026_06_09_01_28_52.862,3.853,28.6,0,0.759,0,0,0,0.011, ,0,0,0,0,0, ,992.7,12.6,25.8,-0.6,-0.5,-1.7,25,31.4479,0.292969,0.739337,-0.0104876,-0.0158672,-0.0501674,
2026_06_09_01_28_52.882,3.853,28.6,0,0.758,0,0,0,0.011, ,0,0,0,0,0, ,992.1,11.9,28.8,-0.6,-0.4,-1.8,25,29.854,0.290904,0.726792,-0.0051238,-0.0126007,-0.0451946,
2026_06_09_01_28_52.903,3.853,28.5,0,0.758,0,0,0,0.012, ,0,0,0,0,0, ,991.2,10.9,26.1,-0.6,-0.5,-1.8,25,28.1544,0.245821,0.718636,2.18659e-06,-0.00943232,-0.0426951,
2026_06_09_01_28_52.922,3.853,28.5,0,0.758,0,0,0,0.013, ,0,0,0,0,0, ,990.2,11.3,27.4,-0.7,-0.5,-1.8,25,26.3528,0.187024,0.673009,0.00242461,-0.00882499,-0.0401078,
2026_06_09_01_28_52.941,3.853,28.5,0,0.756,0,0,0,0.013, ,0,0,0,0,0, ,990.8,11.4,27,-0.6,-0.5,-1.7,25,24.4998,0.142449,0.648372,0.00471628,-0.00820396,-0.0349976,
2026_06_09_01_28_52.962,3.853,28.6,0,0.755,0,0,0,0.013, ,0,0,0,0,0, ,991.2,10.1,22.8,-0.7,-0.3,-1.9,25,22.6415,0.0699332,0.508949,0.00687232,-0.00266863,-0.0324176,
2026_06_09_01_28_52.981,3.853,28.6,0,0.757,0,0,0,0.012, ,0,0,0,0,0, ,991.4,11.7,27,-0.6,-0.5,-1.9,25,20.7775,0.00798527,0.373855,0.00888875,0.00260838,-0.0347088,
2026_06_09_01_28_53.000,3.853,28.6,0,0.756,0,0,0,0.012, ,0,0,0,0,0, ,990.2,12.5,26.1,-0.6,-0.5,-1.7,25,18.878,0.00788795,0.324465,0.0132146,0.00270941,-0.0318122,
2026_06_09_01_28_53.021,3.853,28.6,0,0.757,0,0,0,0.012, ,0,0,0,0,0, ,992,10.4,26,-0.6,-0.5,-1.8,25,16.9933,-0.0241216,0.251377,0.0172632,0.00279214,-0.0264487,
2026_06_09_01_28_53.040,3.853,28.6,0,0.758,0,0,0,0.013, ,0,0,0,0,0, ,990.8,10.9,26.4,-0.6,-0.4,-1.9,25,15.132,-0.093677,0.187991,0.0210282,0.0053092,-0.0261222,
2026_06_09_01_28_53.061,3.853,28.6,0,0.756,0,0,0,0.013, ,0,0,0,0,0, ,992.1,11.8,27.2,-0.6,-0.5,-1.7,25,13.2899,-0.125029,0.156213,0.0245049,0.00767666,-0.0232309,
2026_06_09_01_28_53.081,3.853,28.5,0,0.757,0,0,0,0.013, ,0,0,0,0,0, ,990.6,11.2,26.7,-0.6,-0.5,-1.9,25,11.4677,-0.146871,0.13258,0.0276903,0.00743802,-0.0203669,
2026_06_09_01_28_53.100,3.853,28.6,0,0.758,0,0,0,0.014, ,0,0,0,0,0, ,991.6,12.6,26.4,-0.6,-0.4,-2,25,9.66613,-0.147301,0.0898361,0.0305831,0.00962658,-0.0248994,
2026_06_09_01_28_53.120,3.853,28.6,0,0.757,0,0,0,0.013, ,0,0,0,0,0, ,990.7,11.7,27,-0.6,-0.6,-1.7,25,7.9077,-0.134723,0.0561017,0.0331832,0.0092082,-0.0241826,
2026_06_09_01_28_53.140,3.853,28.6,0,0.757,0,0,0,0.013, ,0,0,0,0,0, ,991.4,12.4,25.3,-0.6,-0.6,-1.7,25,6.19164,-0.127002,-0.00322842,0.0354923,0.00386064,-0.0160253,
2026_06_09_01_28_53.160,3.853,28.7,0,0.757,0,0,0,0.013, ,0,0,0,0,0, ,990.7,10.9,26.6,-0.6,-0.5,-1.7,25,4.52922,-0.138651,-0.0694416,0.0375132,0.00120848,-0.00818911,
2026_06_09_01_28_53.179,3.853,28.6,0,0.757,0,0,0,0.013, ,0,0,0,0,0, ,992.4,11.8,26.9,-0.7,-0.5,-1.7,25,2.95054,-0.163758,-0.0928306,0.036798,0.0011326,-0.000696853,
2026_06_09_01_28_53.202,3.853,28.5,0,0.758,0,0,0,0.014, ,0,0,0,0,0, ,991.6,11.4,24.9,-0.6,-0.4,-1.8,25,1.45681,-0.174566,-0.156302,0.0359365,0.00350701,0.00397923,
2026_06_09_01_28_53.219,3.853,28.6,0,0.757,0,0,0,0.015, ,0,0,0,0,0, ,991.9,12.5,26.3,-0.6,-0.4,-1.9,25,0.0168924,-0.166819,-0.230603,0.0373923,0.00819985,0.00350206,
2026_06_09_01_28_53.239,3.853,28.7,0,0.758,0,0,0,0.014, ,0,0,0,0,0, ,990.6,11.7,26.4,-0.6,-0.5,-1.9,25,-1.37701,-0.151273,-0.263341,0.0385924,0.01017,0.000578869,
2026_06_09_01_28_53.259,3.853,28.7,0,0.758,0,0,0,0.013, ,0,0,0,0,0, ,992,13.7,26.9,-0.6,-0.5,-1.8,25,-2.69331,-0.106318,-0.278463,0.0395435,0.00954119,0.000248348,
2026_06_09_01_28_53.279,3.853,28.8,0,0.758,0,0,0,0.013, ,0,0,0,0,0, ,991.6,11.3,26,-0.6,-0.5,-1.7,25,-3.90727,-0.0728528,-0.301279,0.040253,0.00889622,0.00483713,
2026_06_09_01_28_53.298,3.853,28.6,0,0.758,0,0,0,0.013, ,0,0,0,0,0, ,991.2,10.9,24.5,-0.6,-0.5,-1.8,25,-5.06204,-0.10933,-0.380344,0.0407294,0.00823904,0.00917703,
2026_06_09_01_28_53.318,3.853,28.7,0,0.758,0,0,0,0.014, ,0,0,0,0,0, ,991.3,13.1,27.2,-0.6,-0.4,-1.7,25,-6.14259,-0.0993405,-0.42423,0.0409817,0.0100256,0.0132589,
2026_06_09_01_28_53.338,3.853,28.7,0,0.757,0,0,0,0.014, ,0,0,0,0,0, ,990.4,11.8,27.4,-0.7,-0.5,-1.8,25,-7.1595,-0.0672819,-0.392761,0.0385675,0.0116752,0.0170752,
2026_06_09_01_28_53.358,3.853,28.6,0,0.758,0,0,0,0.014, ,0,0,0,0,0, ,991.4,11.5,27.4,-0.6,-0.6,-1.7,25,-8.08879,-0.0756986,-0.355996,0.0360816,0.00828204,0.0206201,
2026_06_09_01_28_53.378,3.853,28.7,0,0.757,0,0,0,0.015, ,0,0,0,0,0, ,990.9,12.6,27,-0.6,-0.5,-1.7,25,-8.92038,-0.0637121,-0.329087,0.035992,0.00501445,0.0263418,
2026_06_09_01_28_53.398,3.853,28.7,0,0.758,0,0,0,0.014, ,0,0,0,0,0, ,990.7,12.9,26.3,-0.6,-0.6,-1.7,25,-9.6844,-0.0176692,-0.32885,0.0357293,0.0018824,0.031653,
2026_06_09_01_28_53.417,3.853,28.7,0,0.759,0,0,0,0.014, ,0,0,0,0,0, ,990.9,11.8,26.3,-0.6,-0.7,-1.8,25,-10.3632,0.00658534,-0.34417,0.0353035,-0.00600964,0.0340956,
2026_06_09_01_28_53.437,3.853,28.7,0,0.757,0,0,0,0.014, ,0,0,0,0,0, ,992.4,12.2,25.7,-0.6,-0.6,-1.6,25,-10.916,0.0124528,-0.371754,0.0347246,-0.013485,0.0387026,
2026_06_09_01_28_53.457,3.853,28.7,0,0.757,0,0,0,0.015, ,0,0,0,0,0, ,990.7,11.9,26.6,-0.6,-0.5,-1.7,25,-11.3927,0.0204233,-0.388798,0.0340029,-0.015623,0.045345,
2026_06_09_01_28_53.477,3.853,28.7,0,0.757,0,0,0,0.015, ,0,0,0,0,0, ,991,11.3,26.6,-0.6,-0.4,-1.8,25,-11.8243,0.00583278,-0.381019,0.0331491,-0.0126748,0.0465339,
2026_06_09_01_28_53.505,3.853,28.8,0,0.757,0,0,0,0.015, ,0,0,0,0,0, ,991.5,12.4,27.8,-0.7,-0.4,-1.9,25,-12.1568,0.00418989,-0.342319,0.0297216,-0.00735656,0.0425308,
2026_06_09_01_28_53.517,3.853,28.8,0,0.759,0,0,0,0.014, ,0,0,0,0,0, ,991.6,12.6,26.7,-0.6,-0.5,-1.8,25,-12.3984,0.034485,-0.301378,0.0263157,-0.00471506,0.0385144,
2026_06_09_01_28_53.536,3.853,28.8,0,0.758,0,0,0,0.014, ,0,0,0,0,0, ,991.2,12.6,26.1,-0.7,-0.5,-1.8,25,-12.5744,0.0680288,-0.302645,0.0229472,-0.00463203,0.0369573,
2026_06_09_01_28_53.556,3.853,28.8,0,0.757,0,0,0,0.014, ,0,0,0,0,0, ,989.6,11.9,26.3,-0.6,-0.4,-1.8,25,-12.7288,0.082427,-0.312168,0.0196308,-0.00207808,0.0352945,
2026_06_09_01_28_53.576,3.853,28.8,0,0.757,0,0,0,0.015, ,0,0,0,0,0, ,992.6,12.4,26.1,-0.7,-0.3,-2,25,-12.7786,0.0908086,-0.319685,0.0163802,0.00526517,0.028635,
2026_06_09_01_28_53.596,3.853,28.9,0,0.757,0,0,0,0.015, ,0,0,0,0,0, ,990.8,14.1,28.1,-0.6,-0.4,-1.9,25,-12.7335,0.152279,-0.28112,0.0132084,0.0122223,0.0197088,
2026_06_09_01_28_53.616,3.853,28.8,0,0.758,0,0,0,0.014, ,0,0,0,0,0, ,991,11.7,27.8,-0.6,-0.5,-1.7,25,-12.6672,0.192819,-0.201373,0.0125792,0.0138738,0.0184797,
2026_06_09_01_28_53.636,3.853,28.8,0,0.76,0,0,0,0.015, ,0,0,0,0,0, ,991.5,11.5,26.1,-0.6,-0.6,-1.7,25,-12.5245,0.166665,-0.173588,0.0119188,0.0104715,0.0221241,
2026_06_09_01_28_53.656,3.853,28.9,0,0.758,0,0,0,0.015, ,0,0,0,0,0, ,989.3,12,26.4,-0.6,-0.5,-1.7,25,-12.3687,0.148328,-0.180641,0.0112321,0.00718446,0.0254808,
2026_06_09_01_28_53.675,3.853,28.8,0,0.758,0,0,0,0.014, ,0,0,0,0,0, ,990.3,14.1,27.7,-0.6,-0.5,-1.8,25,-12.1891,0.193916,-0.147223,0.0105238,0.0064754,0.0260951,
2026_06_09_01_28_53.695,3.853,28.9,0,0.757,0,0,0,0.015, ,0,0,0,0,0, ,990.8,12.5,28.1,-0.5,-0.7,-1.4,25,-11.9214,0.248573,-0.0730313,0.0122504,0.000864875,0.0339071,
2026_06_09_01_28_53.715,3.853,28.9,0,0.76,0,0,0,0.015, ,0,0,0,0,0, ,990.8,11.8,25.6,-0.6,-0.7,-1.5,25,-11.5959,0.242925,-0.0536139,0.013832,-0.00937907,0.0485254,
2026_06_09_01_28_53.735,3.853,28.8,0,0.758,0,0,0,0.015, ,0,0,0,0,0, ,991.2,11.4,25.6,-0.6,-0.7,-1.6,25,-11.2193,0.209383,-0.0961886,0.0128157,-0.0190744,0.0572833,
2026_06_09_01_28_53.754,3.853,28.9,0,0.758,0,0,0,0.016, ,0,0,0,0,0, ,992.7,11.4,25.8,-0.7,-0.7,-1.7,25,-10.7593,0.166645,-0.131297,0.00933398,-0.0282002,0.0604251,
2026_06_09_01_28_53.775,3.853,28.8,0,0.757,0,0,0,0.015, ,0,0,0,0,0, ,992,10.3,26.4,-0.5,-0.5,-1.8,25,-10.2493,0.0982086,-0.144419,0.00842913,-0.0318352,0.0582107,
2026_06_09_01_28_53.794,3.853,28.9,0,0.757,0,0,0,0.016, ,0,0,0,0,0, ,991.3,12.9,26.6,-0.5,-0.4,-1.8,25,-9.74806,0.0694266,-0.136569,0.0124314,-0.0277785,0.0533658,
2026_06_09_01_28_53.814,3.853,28.8,0,0.758,0,0,0,0.015, ,0,0,0,0,0, ,991.8,12.4,27,-0.6,-0.5,-1.7,25,-9.22828,0.0932095,-0.113717,0.013724,-0.0237839,0.0509477,
2026_06_09_01_28_53.834,3.853,28.9,0,0.757,0,0,0,0.016, ,0,0,0,0,0, ,991.6,12,25.7,-0.6,-0.6,-1.7,25,-8.68116,0.0932971,-0.113496,0.0124334,-0.0247723,0.0508493,
2026_06_09_01_28_53.854,3.853,28.9,0,0.757,0,0,0,0.015, ,0,0,0,0,0, ,991.2,11.1,24.7,-0.6,-0.4,-1.8,25,-8.13281,0.0610426,-0.169125,0.0111449,-0.023138,0.0480529,
2026_06_09_01_28_53.873,3.853,28.9,0,0.76,0,0,0,0.015, ,0,0,0,0,0, ,990.1,12.6,26.1,-0.6,-0.5,-1.8,25,-7.60805,0.0447821,-0.211384,0.00986456,-0.0190176,0.0427047,
2026_06_09_01_28_53.894,3.853,28.9,0,0.758,0,0,0,0.016, ,0,0,0,0,0, ,991,11.9,26.3,-0.6,-0.4,-1.9,25,-7.07643,0.0487156,-0.211294,0.00859843,-0.0150056,0.0349562,
2026_06_09_01_28_53.913,3.853,29.1,0,0.758,0,0,0,0.016, ,0,0,0,0,0, ,991.4,11.4,28.8,-0.7,-0.3,-1.8,25,-6.50413,0.0227902,-0.14396,0.00489986,-0.00621209,0.0274154,
2026_06_09_01_28_53.933,3.853,28.9,0,0.76,0,0,0,0.014, ,0,0,0,0,0, ,989.2,11.8,26.6,-0.6,-0.5,-1.8,25,-5.97199,-0.00442819,-0.071861,0.00135853,-0.000271375,0.0225615,
2026_06_09_01_28_53.953,3.853,29.1,0,0.76,0,0,0,0.016, ,0,0,0,0,0, ,990.7,10.8,25.2,-0.8,-0.5,-1.9,25,-5.45367,-0.0450029,-0.0912219,-0.00446798,0.000475003,0.0153822,
2026_06_09_01_28_53.973,3.853,29.1,0,0.758,0,0,0,0.014, ,0,0,0,0,0, ,990.9,12.2,26.1,-0.6,-0.4,-1.8,25,-4.89221,-0.0735572,-0.121445,-0.00998672,0.0036346,0.00847931,
2026_06_09_01_28_53.993,3.853,29.1,0,0.758,0,0,0,0.014, ,0,0,0,0,0, ,991.3,12.9,25.2,-0.6,-0.6,-1.7,25,-4.31947,-0.0488533,-0.149587,-0.0102813,0.00416916,0.00677745,
2026_06_09_01_28_54.012,3.853,29.1,0,0.761,0,0,0,0.015, ,0,0,0,0,0, ,991.6,13,26.2,-0.6,-0.5,-1.7,25,-3.73636,-0.00550282,-0.173159,-0.0105107,0.0022048,0.00757781,
2026_06_09_01_28_54.032,3.853,29.1,0,0.758,0,0,0,0.015, ,0,0,0,0,0, ,991.5,12.8,24.5,-0.6,-0.4,-1.7,25,-3.15853,0.0332965,-0.211887,-0.0106771,0.00523023,0.00830158,
2026_06_09_01_28_54.052,3.853,29.1,0,0.757,0,0,0,0.015, ,0,0,0,0,0, ,990.1,12.6,27.4,-0.6,-0.5,-1.6,25,-2.63026,0.0602203,-0.218246,-0.0107827,0.00808151,0.0114011,
2026_06_09_01_28_54.072,3.853,29.2,0,0.756,0,0,0,0.015, ,0,0,0,0,0, ,991.9,11.5,26.4,-0.6,-0.6,-1.7,25,-2.10512,0.0536488,-0.176626,-0.0108299,0.00584881,0.0142924,
2026_06_09_01_28_54.092,3.853,29.1,0,0.758,0,0,0,0.014, ,0,0,0,0,0, ,990.7,12.6,26.2,-0.6,-0.5,-1.8,25,-1.58065,0.0471352,-0.165602,-0.0108215,0.00369678,0.0120672,
2026_06_09_01_28_54.112,3.853,29.1,0,0.758,0,0,0,0.015, ,0,0,0,0,0, ,990.9,12.4,26.8,-0.6,-0.4,-1.7,25,-1.09863,0.0627781,-0.144495,-0.0107602,0.00653639,0.00989161,
2026_06_09_01_28_54.131,3.853,29.1,0,0.76,0,0,0,0.015, ,0,0,0,0,0, ,989.7,12.9,25.2,-0.7,-0.5,-1.8,25,-0.659358,0.084701,-0.148232,-0.013101,0.00920453,0.00777398,
2026_06_09_01_28_54.152,3.853,29.1,0,0.759,0,0,0,0.015, ,0,0,0,0,0, ,990.7,11.5,24.5,-0.7,-0.4,-1.8,25,-0.243286,0.0830618,-0.207455,-0.0177146,0.0116965,0.00326974,
2026_06_09_01_28_54.171,3.853,29.2,0,0.761,0,0,0,0.015, ,0,0,0,0,0, ,991.4,13.5,26.4,-0.7,-0.4,-1.7,25,0.195268,0.0958067,-0.233326,-0.0220146,0.0164607,0.00142244,
2026_06_09_01_28_54.191,3.853,29.2,0,0.758,0,0,0,0.015, ,0,0,0,0,0, ,992.6,12.3,26.3,-0.6,-0.5,-1.6,25,0.657941,0.127072,-0.212639,-0.0235431,0.018458,0.00456306,
2026_06_09_01_28_54.211,3.853,29.2,0,0.76,0,0,0,0.015, ,0,0,0,0,0, ,991,12.5,26.3,-0.7,-0.6,-1.8,25,1.08487,0.131655,-0.19437,-0.0248806,0.015362,0.005075,
2026_06_09_01_28_54.231,3.853,29.3,0,0.76,0,0,0,0.015, ,0,0,0,0,0, ,992.1,12.3,24.9,-0.6,-0.4,-1.8,25,1.47326,0.135365,-0.21037,-0.0260299,0.0147944,0.000632498,
2026_06_09_01_28_54.251,3.853,29.2,0,0.758,0,0,0,0.014, ,0,0,0,0,0, ,989.9,12.2,28.3,-0.5,-0.6,-1.7,25,1.80836,0.13087,-0.175505,-0.0220902,0.0141816,-0.00114308,
2026_06_09_01_28_54.270,3.853,29.2,0,0.758,0,0,0,0.015, ,0,0,0,0,0, ,991.8,12.3,26.3,-0.7,-0.6,-1.6,25,2.11076,0.12595,-0.107155,-0.020687,0.00862472,0.00207837,
2026_06_09_01_28_54.290,3.853,29.2,0,0.758,0,0,0,0.015, ,0,0,0,0,0, ,990.7,10.4,24.6,-0.7,-0.5,-1.8,25,2.40754,0.0765117,-0.132359,-0.0241551,0.00575001,0.00267943,
2026_06_09_01_28_54.310,3.853,29.2,0,0.758,0,0,0,0.015, ,0,0,0,0,0, ,991.6,11.5,26.6,-0.7,-0.4,-1.9,25,2.673,0.00950363,-0.148318,-0.0273339,0.00789226,-0.00411868,
2026_06_09_01_28_54.330,3.853,29.2,0,0.76,0,0,0,0.015, ,0,0,0,0,0, ,990.8,10.7,25.6,-0.6,-0.5,-1.7,25,2.91472,-0.0469085,-0.138242,-0.0277701,0.00989056,-0.00811092,
2026_06_09_01_28_54.349,3.853,29.2,0,0.759,0,0,0,0.015, ,0,0,0,0,0, ,991.5,12.6,26.4,-0.6,-0.5,-1.8,25,3.12777,-0.073349,-0.132882,-0.0255958,0.00928995,-0.00941524,
2026_06_09_01_28_54.369,3.853,29.2,0,0.76,0,0,0,0.015, ,0,0,0,0,0, ,989.5,13.1,26.3,-0.8,-0.6,-1.7,25,3.28308,-0.0392794,-0.109966,-0.0283063,0.00622085,-0.0106092,
2026_06_09_01_28_54.389,3.853,29.3,0,0.76,0,0,0,0.015, ,0,0,0,0,0, ,991.6,10.4,25.6,-0.8,-0.5,-1.8,25,3.41704,-0.0606347,-0.107249,-0.0356487,0.00327162,-0.0116923,
2026_06_09_01_28_54.409,3.853,29.3,0,0.758,0,0,0,0.015, ,0,0,0,0,0, ,992,11.2,26.4,-0.6,-0.3,-1.8,25,3.58889,-0.127235,-0.101685,-0.037551,0.00780738,-0.0151168,
2026_06_09_01_28_54.429,3.853,29.3,0,0.759,0,0,0,0.015, ,0,0,0,0,0, ,992.1,13.9,29.4,-0.6,-0.5,-1.7,25,3.7469,-0.104116,-0.00270988,-0.0342706,0.0120822,-0.0158468,
2026_06_09_01_28_54.449,3.853,29.3,0,0.759,0,0,0,0.015, ,0,0,0,0,0, ,992.5,12.5,27,-0.6,-0.7,-1.5,25,3.89094,-0.0497399,0.106137,-0.0309822,0.00627921,-0.00910629,
2026_06_09_01_28_54.469,3.853,29.3,0,0.76,0,0,0,0.015, ,0,0,0,0,0, ,991.2,10,23.4,-0.6,-0.4,-1.8,25,3.98668,-0.0934197,0.0619934,-0.0277024,0.00318202,-0.00510369,
2026_06_09_01_28_54.488,3.853,29.3,0,0.759,0,0,0,0.015, ,0,0,0,0,0, ,991.9,9.7,26.1,-0.7,-0.3,-1.8,25,4.04337,-0.203157,-0.00236045,-0.0268991,0.0100297,-0.00862872,
2026_06_09_01_28_54.508,3.853,29.4,0,0.76,0,0,0,0.015, ,0,0,0,0,0, ,991.6,10.7,25,-0.7,-0.4,-1.9,25,4.08715,-0.289347,-0.024312,-0.0284548,0.0164921,-0.0143905,
2026_06_09_01_28_54.528,3.853,29.4,0,0.758,0,0,0,0.014, ,0,0,0,0,0, ,992.1,11.2,26,-0.9,-0.4,-1.9,25,4.11355,-0.333101,-0.0475192,-0.0346982,0.0201041,-0.0222509,
2026_06_09_01_28_54.548,3.853,29.4,0,0.759,0,0,0,0.014, ,0,0,0,0,0, ,990.4,13.3,25.3,-0.8,-0.5,-1.9,25,4.08895,-0.309311,-0.0619977,-0.0429167,0.0209878,-0.0296162,
2026_06_09_01_28_54.567,3.853,29.3,0,0.758,0,0,0,0.014, ,0,0,0,0,0, ,990.7,12.8,26.1,-0.7,-0.6,-1.7,25,4.01108,-0.245929,-0.0730084,-0.0456162,0.0168203,-0.03157,
2026_06_09_01_28_54.587,3.853,29.4,0,0.758,0,0,0,0.015, ,0,0,0,0,0, ,992.1,11.2,24.9,-0.6,-0.7,-1.6,25,3.95895,-0.235939,-0.0929279,-0.0430542,0.00787004,-0.0259159,
2026_06_09_01_28_54.608,3.853,29.4,0,0.762,0,0,0,0.014, ,0,0,0,0,0, ,991.3,12.3,26.9,-0.7,-0.6,-1.5,25,3.90458,-0.237537,-0.0917953,-0.0404057,-0.000680071,-0.0155071,
2026_06_09_01_28_54.627,3.853,29.4,0,0.76,0,0,0,0.015, ,0,0,0,0,0, ,990.1,11.2,25.8,-0.8,-0.5,-1.7,25,3.78458,-0.237886,-0.0681963,-0.0425922,-0.00390319,-0.00798447,
2026_06_09_01_28_54.647,3.853,29.4,0,0.76,0,0,0,0.015, ,0,0,0,0,0, ,991.3,10.9,26.6,-0.7,-0.5,-1.7,25,3.65182,-0.271376,-0.0527752,-0.0444617,-0.00449683,-0.00569575,
2026_06_09_01_28_54.667,3.853,29.4,0,0.759,0,0,0,0.015, ,0,0,0,0,0, ,992.4,10.7,24.5,-0.7,-0.5,-1.8,25,3.56398,-0.314147,-0.0697283,-0.0435681,-0.0050392,-0.00594337,
2026_06_09_01_28_54.687,3.853,29.5,0,0.761,0,0,0,0.015, ,0,0,0,0,0, ,991.6,12,26.2,-0.7,-0.3,-1.9,25,3.47023,-0.326298,-0.0953149,-0.0425037,-0.00062582,-0.0110539,
2026_06_09_01_28_54.706,3.853,29.4,0,0.759,0,0,0,0.014, ,0,0,0,0,0, ,990.8,12.9,27.3,-0.7,-0.5,-1.8,25,3.32475,-0.282297,-0.0505165,-0.041282,0.0035742,-0.0158593,
2026_06_09_01_28_54.726,3.853,29.4,0,0.759,0,0,0,0.015, ,0,0,0,0,0, ,993.2,11.2,26.2,-0.6,-0.5,-1.8,25,3.20924,-0.258681,-0.00766617,-0.0374646,0.00264631,-0.0178987,
2026_06_09_01_28_54.746,3.853,29.4,0,0.76,0,0,0,0.015, ,0,0,0,0,0, ,991.5,11.2,26.1,-0.7,-0.7,-1.6,25,3.10076,-0.276634,0.00369451,-0.0336498,-0.00315345,-0.0148455,
2026_06_09_01_28_54.773,3.853,29.4,0,0.758,0,0,0,0.015, ,0,0,0,0,0, ,991.4,9.2,25.3,-0.7,-0.4,-1.7,25,2.93817,-0.341387,-0.00758967,-0.0323083,-0.00620106,-0.00941678,
2026_06_09_01_28_54.786,3.853,29.5,0,0.759,0,0,0,0.015, ,0,0,0,0,0, ,991,11.7,26.4,-0.7,-0.5,-1.7,25,2.75682,-0.389021,-0.0109266,-0.0308735,-0.00416432,-0.00666004,
2026_06_09_01_28_54.805,3.853,29.3,0,0.759,0,0,0,0.014, ,0,0,0,0,0, ,991,11.8,25.8,-0.7,-0.6,-1.8,25,2.56096,-0.368646,-0.00178515,-0.0293569,-0.00711128,-0.00645784,
2026_06_09_01_28_54.825,3.853,29.4,0,0.76,0,0,0,0.016, ,0,0,0,0,0, ,991,10.8,25.7,-0.8,-0.5,-1.8,25,2.36209,-0.369522,-0.0102484,-0.0302221,-0.00987865,-0.00868588,
2026_06_09_01_28_54.845,3.853,29.5,0,0.758,0,0,0,0.015, ,0,0,0,0,0, ,989.5,12.9,25.8,-1,-0.3,-1.8,25,2.12455,-0.341561,-0.018246,-0.0382525,-0.00510514,-0.0107618,
2026_06_09_01_28_54.865,3.853,29.5,0,0.76,0,0,0,0.014, ,0,0,0,0,0, ,991.9,12.9,24.9,-0.9,-0.4,-1.7,25,1.91026,-0.261792,-0.0453788,-0.0481526,0.00191158,-0.0102308,
2026_06_09_01_28_54.885,3.853,29.5,0,0.761,0,0,0,0.014, ,0,0,0,0,0, ,992.1,11.8,24.9,-0.7,-0.5,-1.8,25,1.76082,-0.211619,-0.0930267,-0.0499734,0.00367044,-0.00967539,
2026_06_09_01_28_54.905,3.853,29.4,0,0.758,0,0,0,0.015, ,0,0,0,0,0, ,990.7,13.4,26.7,-0.6,-0.5,-1.7,25,1.5806,-0.150603,-0.0937405,-0.0441022,0.00287279,-0.00909953,
2026_06_09_01_28_54.924,3.853,29.5,0,0.76,0,0,0,0.015, ,0,0,0,0,0, ,991,9.6,24.2,-0.7,-0.5,-1.7,25,1.37446,-0.145784,-0.111122,-0.0383015,0.0021001,-0.00605491,
2026_06_09_01_28_54.944,3.853,29.5,0,0.76,0,0,0,0.015, ,0,0,0,0,0, ,989.2,10.7,24.7,-0.7,-0.4,-2,25,1.13488,-0.206692,-0.176147,-0.0350488,0.00380711,-0.0104863,
2026_06_09_01_28_54.964,3.853,29.5,0,0.758,0,0,0,0.015, ,0,0,0,0,0, ,990.4,13.3,26.9,-0.7,-0.4,-1.9,25,0.886737,-0.172864,-0.170907,-0.0317828,0.00786381,-0.0195529,
2026_06_09_01_28_54.984,3.853,29.5,0,0.76,0,0,0,0.015, ,0,0,0,0,0, ,990.8,11.2,25.2,-0.7,-0.5,-1.8,25,0.685628,-0.127582,-0.15282,-0.0285204,0.00923063,-0.0231742,
2026_06_09_01_28_55.003,3.853,29.6,0,0.76,0,0,0,0.015, ,0,0,0,0,0, ,990.4,11.9,24.1,-0.6,-0.3,-1.8,25,0.491004,-0.118223,-0.203528,-0.0228252,0.0129371,-0.0240515,
2026_06_09_01_28_55.023,3.853,29.5,0,0.758,0,0,0,0.014, ,0,0,0,0,0, ,991.3,12,27.5,-0.7,-0.6,-1.6,25,0.315766,-0.0891228,-0.194346,-0.0172969,0.0139459,-0.019863,
2026_06_09_01_28_55.043,3.853,29.5,0,0.758,0,0,0,0.015, ,0,0,0,0,0, ,992.5,10.4,24.6,-0.7,-0.6,-1.6,25,0.199061,-0.0977929,-0.172396,-0.0144066,0.00747995,-0.0108777,
2026_06_09_01_28_55.063,3.853,29.6,0,0.76,0,0,0,0.015, ,0,0,0,0,0, ,990.8,10.1,26,-0.7,-0.4,-1.7,25,0.074837,-0.152147,-0.187455,-0.0115871,0.0061986,-0.00473156,
2026_06_09_01_28_55.082,3.853,29.7,0,0.76,0,0,0,0.014, ,0,0,0,0,0, ,990.4,10.4,26.3,-0.8,-0.5,-1.8,25,-0.0951579,-0.203085,-0.159165,-0.0113009,0.0074017,-0.00376787,
2026_06_09_01_28_55.102,3.853,29.6,0,0.76,0,0,0,0.013, ,0,0,0,0,0, ,990.3,12.3,26.6,-0.7,-0.6,-1.9,25,-0.268608,-0.196577,-0.116766,-0.010973,0.003605,-0.0077372,
2026_06_09_01_28_55.122,3.853,29.6,0,0.759,0,0,0,0.014, ,0,0,0,0,0, ,989.8,14,24.9,-0.6,-0.6,-1.7,25,-0.446941,-0.101142,-0.1102,-0.00570286,-0.00247542,-0.00902157,
2026_06_09_01_28_55.142,3.853,29.5,0,0.76,0,0,0,0.014, ,0,0,0,0,0, ,990.6,11.8,24.7,-0.7,-0.6,-1.6,25,-0.606969,-0.0221489,-0.150004,-0.000663042,-0.00824545,-0.00284201,
2026_06_09_01_28_55.162,3.853,29.6,0,0.758,0,0,0,0.015, ,0,0,0,0,0, ,991,10.3,25,-0.9,-0.4,-1.8,25,-0.726731,-0.037651,-0.184665,-0.00322361,-0.00878753,0.000596333,
2026_06_09_01_28_55.182,3.853,29.6,0,0.76,0,0,0,0.014, ,0,0,0,0,0, ,990.1,13.4,26.8,-0.9,-0.4,-2,25,-0.8493,-0.0129728,-0.165221,-0.010547,-0.0043554,-0.00594553,
2026_06_09_01_28_55.202,3.853,29.7,0,0.759,0,0,0,0.014, ,0,0,0,0,0, ,990.4,11.8,25.8,-0.8,-0.6,-1.8,25,-0.976383,0.0473415,-0.126298,-0.0150071,-0.00502349,-0.0121373,
2026_06_09_01_28_55.222,3.853,29.6,0,0.759,0,0,0,0.014, ,0,0,0,0,0, ,990.7,12.9,24.4,-0.8,-0.7,-1.7,25,-1.07771,0.0922037,-0.147514,-0.0167224,-0.0129905,-0.010609,
2026_06_09_01_28_55.242,3.853,29.7,0,0.76,0,0,0,0.014, ,0,0,0,0,0, ,991.8,11.2,24.4,-1,-0.7,-1.7,25,-1.13442,0.119698,-0.201293,-0.0231755,-0.022955,-0.00665131,
2026_06_09_01_28_55.261,3.853,29.7,0,0.76,0,0,0,0.014, ,0,0,0,0,0, ,992.1,11.4,24.7,-1.1,-0.4,-1.8,25,-1.14844,0.108472,-0.244085,-0.0365543,-0.0249612,-0.00530706,
2026_06_09_01_28_55.281,3.853,29.6,0,0.76,0,0,0,0.014, ,0,0,0,0,0, ,990.4,11.9,26.7,-1,-0.2,-1.7,25,-1.19043,0.114427,-0.227176,-0.0490968,-0.0144851,-0.00400259,
2026_06_09_01_28_55.301,3.853,29.7,0,0.759,0,0,0,0.015, ,0,0,0,0,0, ,992.5,11.5,27.3,-1.4,-0.7,-1.8,25,-1.21469,0.121978,-0.146221,-0.0681388,-0.0118079,-0.00274237,
2026_06_09_01_28_55.321,3.853,29.8,0,0.76,0,0,0,0.014, ,0,0,0,0,0, ,990.8,10.4,24.4,-2,-0.8,-1.8,25,-1.22197,0.0917756,-0.124915,-0.110433,-0.0239168,-0.00398259,
2026_06_09_01_28_55.341,3.853,29.7,0,0.76,0,0,0,0.013, ,0,0,0,0,0, ,990.4,11.8,25.5,-1.2,-0.6,-1.9,25,-1.27436,0.0699583,-0.148178,-0.145204,-0.0328618,-0.00759453,
2026_06_09_01_28_55.360,3.853,29.7,0,0.76,0,0,0,0.014, ,0,0,0,0,0, ,991.4,10.9,27.7,-0.9,-0.5,-1.8,25,-1.30319,0.0611271,-0.0886477,-0.15058,-0.0338497,-0.0109919,
2026_06_09_01_28_55.380,3.853,29.7,0,0.759,0,0,0,0.014, ,0,0,0,0,0, ,991.4,12.8,25.6,-0.7,-0.6,-1.9,25,-1.29966,0.0769493,-0.0291481,-0.14269,-0.0346223,-0.0141685,
2026_06_09_01_28_55.400,3.853,29.7,0,0.761,0,0,0,0.014, ,0,0,0,0,0, ,991.6,13.3,24.7,-0.8,-0.8,-1.7,25,-1.285,0.150468,-0.0459877,-0.132031,-0.0425429,-0.0146673,
2026_06_09_01_28_55.420,3.853,29.8,0,0.756,0,0,0,0.014, ,0,0,0,0,0, ,991.8,11.5,24.1,-1,-0.7,-1.5,25,-1.25491,0.187762,-0.0985572,-0.128601,-0.0523175,-0.00526068,
2026_06_09_01_28_55.439,3.853,29.7,0,0.759,0,0,0,0.013, ,0,0,0,0,0, ,990.2,10.1,23.5,-0.9,-0.3,-1.7,25,-1.25445,0.143832,-0.177489,-0.127158,-0.0490941,0.0037105,
2026_06_09_01_28_55.459,3.853,29.8,0,0.76,0,0,0,0.014, ,0,0,0,0,0, ,991,12.2,27.2,-1.1,-0.3,-1.7,25,-1.26744,0.118513,-0.175658,-0.127611,-0.0359782,0.0073191,
2026_06_09_01_28_55.479,3.853,29.8,0,0.76,0,0,0,0.013, ,0,0,0,0,0, ,990.9,10.6,27,-1,-0.4,-2,25,-1.25638,0.106112,-0.0872249,-0.129865,-0.0257804,0.00335817,
2026_06_09_01_28_55.499,3.853,29.9,0,0.759,0,0,0,0.013, ,0,0,0,0,0, ,990.8,13.3,25.8,-0.8,-0.8,-1.9,25,-1.24458,0.12077,-0.0370296,-0.124011,-0.0282165,-0.00532937,
2026_06_09_01_28_55.519,3.853,29.8,0,0.758,0,0,0,0.012, ,0,0,0,0,0, ,990.9,12.5,23.9,-0.9,-0.6,-1.8,25,-1.22722,0.180706,-0.0651306,-0.115382,-0.0352983,-0.00866026,
2026_06_09_01_28_55.539,3.853,29.8,0,0.76,0,0,0,0.013, ,0,0,0,0,0, ,990.8,11.3,25.5,-0.8,-0.4,-1.7,25,-1.20467,0.187768,-0.0988889,-0.106607,-0.0320503,-0.00688079,
2026_06_09_01_28_55.559,3.853,29.8,0,0.76,0,0,0,0.013, ,0,0,0,0,0, ,990.3,11.2,27.5,-0.8,-0.3,-1.8,25,-1.192,0.16168,-0.0422265,-0.095285,-0.0214471,-0.00515469,
2026_06_09_01_28_55.578,3.853,29.8,0,0.76,0,0,0,0.013, ,0,0,0,0,0, ,991.9,12.2,24.1,-0.7,-0.4,-1.8,25,-1.1471,0.158145,-0.022465,-0.0815965,-0.0112582,-0.00593999,
2026_06_09_01_28_55.598,3.853,29.8,0,0.76,0,0,0,0.013, ,0,0,0,0,0, ,991.4,12.3,25.2,-0.7,-0.5,-1.7,25,-1.07178,0.180977,-0.0599617,-0.065725,-0.00641787,-0.00420534,
2026_06_09_01_28_55.624,3.853,29.9,0,0.759,0,0,0,0.013, ,0,0,0,0,0, ,991.8,11.5,26.6,-0.7,-0.5,-1.5,25,-0.997316,0.184632,-0.03402,-0.050308,-0.00423544,0.00482144,
2026_06_09_01_28_55.638,3.853,29.8,0,0.76,0,0,0,0.013, ,0,0,0,0,0, ,992.1,10.1,24.1,-0.9,-0.7,-1.6,25,-0.90443,0.133251,-0.0361566,-0.0403034,-0.00704349,0.0158339,
2026_06_09_01_28_55.662,3.853,29.8,0,0.761,0,0,0,0.013, ,0,0,0,0,0, ,989.7,12.4,26.1,-0.9,-0.7,-1.7,25,-0.863136,0.105802,-0.050271,-0.0354952,-0.0145834,0.0213239,
2026_06_09_01_28_55.678,3.853,29.9,0,0.761,0,0,0,0.013, ,0,0,0,0,0, ,990.9,11.1,25.3,-1,-0.7,-1.8,25,-0.849039,0.1037,-0.0340196,-0.0332001,-0.0216817,0.0215353,
2026_06_09_01_28_55.697,3.853,29.9,0,0.759,0,0,0,0.013, ,0,0,0,0,0, ,990.2,11.3,24.5,-1.1,-0.8,-1.7,25,-0.819188,0.0742155,-0.0576321,-0.0357582,-0.0307772,0.0216302,
2026_06_09_01_28_55.717,3.853,30,0,0.759,0,0,0,0.013, ,0,0,0,0,0, ,992,13,23.9,-1,-0.4,-1.6,25,-0.75979,0.0924027,-0.114133,-0.0380147,-0.0319184,0.0265181,
2026_06_09_01_28_55.737,3.853,29.9,0,0.76,0,0,0,0.012, ,0,0,0,0,0, ,990.2,11.4,25,-1.1,-0.4,-1.6,25,-0.699561,0.111695,-0.155039,-0.0399731,-0.0230378,0.0334878,
2026_06_09_01_28_55.756,3.853,30,0,0.759,0,0,0,0, ,0,0,0,0,0, ,990.8,10.7,26.1,-0.8,-0.5,-1.8,25,-0.668265,0.0730904,-0.139228,-0.0367341,-0.0169313,0.0350463,
2026_06_09_01_28_55.777,3.853,30,0,0.761,0,0,0,0, ,0,0,0,0,0, ,992,12,24.9,-0.7,-0.6,-1.7,25,-0.591071,0.0507321,-0.125958,-0.0236644,-0.0159451,0.0339036,
2026_06_09_01_28_55.796,3.853,29.9,0,0.758,0,0,0,0, ,0,0,0,0,0, ,992,11.2,25.3,-0.6,-0.4,-1.7,25,-0.485324,0.0414812,-0.132335,-0.00621464,-0.0124766,0.0351019,
2026_06_09_01_28_55.816,3.853,30,0,0.759,0,0,0,0, ,0,0,0,0,0, ,990.7,12.4,26.2,-0.6,-0.6,-1.8,25,-0.414249,0.0422881,-0.10587,0.0128621,-0.00911667,0.0336163,
2026_06_09_01_28_55.836,3.853,29.9,0,0.76,0,0,0,0, ,0,0,0,0,0, ,992,11.3,27.7,-0.8,-0.9,-1.6,25,-0.344619,0.0452993,-0.0213284,0.0260355,-0.0181374,0.03449,
2026_06_09_01_28_55.856,3.853,30,0,0.76,0,0,0,0, ,0,0,0,0,0, ,990.7,10.9,20.9,-1,-0.4,-1.7,25,-0.276705,0.0111571,-0.0707927,0.0286259,-0.021722,0.0376031,
2026_06_09_01_28_55.876,3.853,30,0,0.758,0,0,0,0, ,0,0,0,0,0, ,990.6,12.2,24.6,-1,-0.3,-1.7,25,-0.245089,0.000703747,-0.193499,0.0260439,-0.0103109,0.037926,
2026_06_09_01_28_55.896,3.853,30,0,0.76,0,0,0,0, ,0,0,0,0,0, ,991.3,11.1,23.9,-1.4,-0.3,-1.6,25,-0.199103,-0.00433602,-0.235669,0.0136515,0.00304366,0.0404984,
2026_06_09_01_28_55.915,3.853,29.9,0,0.761,0,0,0,0, ,0,0,0,0,0, ,990.6,12.2,25.1,-1.3,0,-1.8,25,-0.154391,-0.00910726,-0.262349,-0.00555685,0.0230847,0.0402928,
2026_06_09_01_28_55.935,3.853,30,0,0.76,0,0,0,0, ,0,0,0,0,0, ,991.2,10.6,28,-1.1,-0.4,-1.9,25,-0.113563,-0.0258604,-0.185889,-0.0164393,0.039577,0.0325423,
2026_06_09_01_28_55.955,3.853,30,0,0.759,0,0,0,0, ,0,0,0,0,0, ,991.3,11.9,25.3,-0.9,-0.6,-1.9,25,-0.0570114,-0.049021,-0.107358,-0.0168984,0.0403524,0.0225593,
2026_06_09_01_28_55.975,3.853,29.9,0,0.76,0,0,0,0, ,0,0,0,0,0, ,991.2,11.8,28.9,-0.8,-0.8,-1.9,25,-0.00295287,-0.0413782,-0.01008,-0.00989526,0.0310822,0.0129548,
2026_06_09_01_28_55.994,3.853,30,0,0.76,0,0,0,0, ,0,0,0,0,0, ,991.2,11.1,22.4,-1.2,-0.9,-1.8,25,0.0460175,-0.0535235,0.0113641,-0.0105433,0.0147571,0.00620958,
2026_06_09_01_28_56.014,3.853,30,0,0.76,0,0,0,0, ,0,0,0,0,0, ,991.3,11.1,21.3,-1.1,-0.3,-1.8,25,0.094811,-0.0819746,-0.154664,-0.018464,0.0114206,0.00221676,
2026_06_09_01_28_56.034,3.853,30,0,0.76,0,0,0,0, ,0,0,0,0,0, ,991,13.1,25.8,-0.8,-0.2,-1.8,25,0.13584,-0.0595831,-0.228413,-0.0160966,0.0253567,-0.00159117,
2026_06_09_01_28_56.053,3.853,30,0,0.759,0,0,0,0, ,0,0,0,0,0, ,991.2,12.5,27.5,-0.9,-0.3,-1.7,25,0.171735,-0.00366586,-0.145386,-0.00886174,0.0384842,-0.00275235,
2026_06_09_01_28_56.074,3.853,30,0,0.76,0,0,0,0, ,0,0,0,0,0, ,991.3,10.6,28.8,-0.6,-0.5,-1.6,25,0.21238,-0.011777,0.00785024,0.00296633,0.0434219,0.0010613,
2026_06_09_01_28_56.094,3.853,30,0,0.761,0,0,0,0, ,0,0,0,0,0, ,990.7,11.4,24.2,-0.7,-0.7,-1.7,25,0.237724,-0.046406,0.0726115,0.019104,0.0380947,0.00468269,
2026_06_09_01_28_56.113,3.853,30,0,0.76,0,0,0,0, ,0,0,0,0,0, ,992,11.9,24,-0.8,-0.5,-1.6,25,0.277819,-0.0472299,0.0161351,0.0294518,0.0328411,0.0081034,
2026_06_09_01_28_56.133,3.853,30,0,0.76,0,0,0,0, ,0,0,0,0,0, ,991.4,11.9,24,-0.7,-0.3,-1.7,25,0.331743,-0.0355199,-0.0425554,0.0391469,0.0374919,0.0113164,
2026_06_09_01_28_56.152,3.853,30,0,0.762,0,0,0,0, ,0,0,0,0,0, ,990.6,13.5,26.7,-0.7,-0.5,-1.7,25,0.347058,0.0150255,-0.0319494,0.0506258,0.0417298,0.0118639,
2026_06_09_01_28_56.173,3.853,30,0,0.76,0,0,0,0, ,0,0,0,0,0, ,991,10.3,22.4,-1,-0.7,-1.6,25,0.350101,0.0237833,-0.0609407,0.0539358,0.0357456,0.0147783,
2026_06_09_01_28_56.192,3.853,30,0,0.759,0,0,0,0, ,0,0,0,0,0, ,991.3,10.7,25.5,-0.8,-0.5,-1.8,25,0.368436,-0.0366661,-0.117636,0.0543654,0.0298787,0.0150247,
2026_06_09_01_28_56.213,3.853,30,0,0.759,0,0,0,0, ,0,0,0,0,0, ,990.9,11.4,22.8,-0.7,-0.6,-1.8,25,0.381604,-0.0669963,-0.161162,0.0618626,0.0266045,0.0102807,
2026_06_09_01_28_56.232,3.853,30,0,0.759,0,0,0,0, ,0,0,0,0,0, ,991.2,12.6,22.8,-0.7,-0.2,-1.7,25,0.389794,-0.0489179,-0.267968,0.0711393,0.0307162,0.00817078,
2026_06_09_01_28_56.252,3.853,30,0,0.761,0,0,0,0, ,0,0,0,0,0, ,991.3,11.5,24.4,-0.7,-0.2,-1.7,25,0.405469,-0.0290328,-0.32898,0.0796105,0.0442835,0.00857628,
2026_06_09_01_28_56.272,3.853,30.1,0,0.76,0,0,0,0, ,0,0,0,0,0, ,990.9,13.3,27.4,-0.6,-0.5,-1.8,25,0.41102,0.00718524,-0.272579,0.089726,0.0496107,0.00646746,
2026_06_09_01_28_56.292,3.853,30.1,0,0.761,0,0,0,0, ,0,0,0,0,0, ,991,11.1,28.1,-0.7,-0.8,-1.6,25,0.406918,0.031783,-0.126871,0.0989033,0.0397192,0.00688235,
2026_06_09_01_28_56.311,3.853,30.1,0,0.76,0,0,0,0, ,0,0,0,0,0, ,991.8,9.5,22.7,-0.8,-0.6,-1.8,25,0.42308,-0.0381644,-0.102936,0.102239,0.0276649,0.00724298,
2026_06_09_01_28_56.331,3.853,30.1,0,0.759,0,0,0,0, ,0,0,0,0,0, ,991.5,10.9,26.7,-0.8,-0.3,-1.7,25,0.448625,-0.109398,-0.113997,0.102454,0.0283262,0.00509806,
2026_06_09_01_28_56.351,3.853,30,0,0.76,0,0,0,0, ,0,0,0,0,0, ,990.6,11.5,23.1,-1.1,-0.2,-1.9,25,0.44128,-0.127555,-0.114145,0.0947983,0.0386242,0.000581053,
2026_06_09_01_28_56.371,3.853,30,0,0.759,0,0,0,0, ,0,0,0,0,0, ,991.3,10.7,22.8,-0.9,-0.1,-1.8,25,0.427216,-0.149097,-0.209358,0.0845983,0.0531311,-0.00616945,
2026_06_09_01_28_56.391,3.853,30.1,0,0.759,0,0,0,0, ,0,0,0,0,0, ,990.8,12.6,26.2,-0.8,-0.6,-1.7,25,0.416641,-0.141875,-0.222853,0.081838,0.056856,-0.00765416,
2026_06_09_01_28_56.410,3.853,30.1,0,0.759,0,0,0,0, ,0,0,0,0,0, ,991.6,9.6,24.7,-0.8,-1,-1.7,25,0.411887,-0.161281,-0.187996,0.081262,0.0380486,-0.00657618,
2026_06_09_01_28_56.430,3.853,30,0,0.76,0,0,0,0, ,0,0,0,0,0, ,992,12,22.9,-0.7,-0.4,-1.8,25,0.434763,-0.193653,-0.234844,0.0827659,0.0248803,-0.00797081,
2026_06_09_01_28_56.450,3.853,30,0,0.762,0,0,0,0, ,0,0,0,0,0, ,991.6,11.9,25.6,-0.8,-0.4,-1.6,25,0.454375,-0.167084,-0.256167,0.0837881,0.0269483,-0.0068056,
2026_06_09_01_28_56.472,3.853,30,0,0.759,0,0,0,0, ,0,0,0,0,0, ,990.9,11.3,24.7,-0.7,-0.2,-1.8,25,0.443812,-0.15816,-0.231043,0.0843473,0.0336863,-0.005664,
2026_06_09_01_28_56.489,3.853,30,0,0.76,0,0,0,0, ,0,0,0,0,0, ,990.9,11.3,27.2,-0.6,-0.7,-1.8,25,0.414416,-0.163607,-0.166778,0.0893677,0.0325714,-0.00945479,
2026_06_09_01_28_56.509,3.853,30.1,0,0.76,0,0,0,0, ,0,0,0,0,0, ,991.6,10.8,22.5,-0.7,-0.5,-1.8,25,0.401583,-0.180241,-0.15879,0.0937014,0.0239941,-0.0130131,
2026_06_09_01_28_56.529,3.853,30.1,0,0.761,0,0,0,0, ,0,0,0,0,0, ,991.8,11.9,26.2,-0.7,-0.3,-1.7,25,0.409469,-0.180458,-0.174933,0.0949087,0.0255279,-0.0138806,
2026_06_09_01_28_56.549,3.853,30,0,0.76,0,0,0,0, ,0,0,0,0,0, ,991.6,11.3,25.7,-0.7,-0.5,-1.7,25,0.41495,-0.167514,-0.110954,0.095589,0.0268607,-0.0121849,
2026_06_09_01_28_56.569,3.853,30,0,0.759,0,0,0,0, ,0,0,0,0,0, ,991.3,12.9,24.9,-0.7,-0.2,-1.8,25,0.405857,-0.129858,-0.081443,0.0957649,0.0304479,-0.0129646,
2026_06_09_01_28_56.589,3.853,30,0,0.759,0,0,0,0, ,0,0,0,0,0, ,992.6,11.5,27.5,-0.7,-0.4,-1.7,25,0.419731,-0.0885046,-0.00883928,0.0954601,0.0361612,-0.0136421,
2026_06_09_01_28_56.608,3.853,30.1,0,0.76,0,0,0,0, ,0,0,0,0,0, ,991.6,10.3,27.2,-0.7,-0.6,-1.8,25,0.438212,-0.112499,0.116647,0.0946999,0.0316075,-0.0142191,
2026_06_09_01_28_56.628,3.853,30,0,0.76,0,0,0,0, ,0,0,0,0,0, ,990.9,13.5,28.1,-0.8,-0.8,-1.6,25,0.411941,-0.0857193,0.250117,0.0910581,0.0173128,-0.0122456,
2026_06_09_01_28_56.644,3.853,30,0,0.76,0,0,0,0, ,0,0,0,0,0, ,990.9,9.3,23.3,-1,-0.5,-1.8,25,0.367765,-0.0843519,0.280174,0.0797896,0.00608588,-0.0103086,
2026_06_09_01_28_56.668,3.853,30,0,0.76,0,0,0,0, ,0,0,0,0,0, ,990.6,12.8,24.6,-0.7,-0.2,-1.9,25,0.316586,-0.099801,0.221551,0.0711327,0.0100926,-0.0157722,
2026_06_09_01_28_56.692,3.853,30.1,0,0.759,0,0,0,0, ,0,0,0,0,0, ,991,14.2,27.7,-0.8,-0.1,-1.7,25,0.268808,0.00615526,0.272606,0.0674542,0.0236617,-0.018438,
2026_06_09_01_28_56.707,3.853,30,0,0.76,0,0,0,0, ,0,0,0,0,0, ,989.8,9.6,23.4,-0.8,-0.6,-1.6,25,0.202431,0.0284156,0.290388,0.0611714,0.02664,-0.0135257,
2026_06_09_01_28_56.727,3.853,30.1,0,0.76,0,0,0,0, ,0,0,0,0,0, ,992.4,10.7,23.8,-0.8,-0.4,-1.8,25,0.172642,-0.0363814,0.210232,0.0548953,0.0219846,-0.0112398,
2026_06_09_01_28_56.748,3.853,30,0,0.759,0,0,0,0, ,0,0,0,0,0, ,991,11.9,29.4,-0.9,-0.6,-1.7,25,0.17289,-0.0414216,0.280101,0.0462044,0.0174491,-0.0114628,
2026_06_09_01_28_56.767,3.853,30.1,0,0.76,0,0,0,0, ,0,0,0,0,0, ,992.1,10,22.7,-1.1,-0.5,-1.8,25,0.164917,-0.0631756,0.31819,0.0303554,0.0105979,-0.0116184,
2026_06_09_01_28_56.787,3.853,30.1,0,0.759,0,0,0,0, ,0,0,0,0,0, ,991.2,13.4,24.1,-0.9,-0.2,-1.8,25,0.161426,-0.0467689,0.222877,0.0151341,0.0138391,-0.0141612,
2026_06_09_01_28_56.807,3.853,30,0,0.761,0,0,0,0, ,0,0,0,0,0, ,991.2,11.2,25.2,-0.8,-0.3,-1.7,25,0.135242,-0.00151049,0.192445,0.00794127,0.0217574,-0.0140574,
2026_06_09_01_28_56.827,3.853,30,0,0.761,0,0,0,0, ,0,0,0,0,0, ,991.8,12.2,26.4,-0.6,-0.6,-1.8,25,0.124388,0.0121098,0.218956,0.00841851,0.0193716,-0.0138893,
2026_06_09_01_28_56.846,3.853,30.1,0,0.759,0,0,0,0, ,0,0,0,0,0, ,989.7,12.4,23.6,-0.6,-0.8,-1.6,25,0.076671,0.0544284,0.203854,0.0137352,0.00474647,-0.011209,
2026_06_09_01_28_56.865,3.853,30,0,0.758,0,0,0,0, ,0,0,0,0,0, ,991.2,10.3,24.4,-0.6,-0.5,-1.5,25,0.016204,0.0478123,0.139444,0.0187234,-0.00673261,-0.0012483,
2026_06_09_01_28_56.885,3.853,30,0,0.76,0,0,0,0, ,0,0,0,0,0, ,991.2,10.2,25,-0.6,-0.6,-1.6,25,-0.00459497,-0.0126625,0.111836,0.0233747,-0.0127112,0.00823,
2026_06_09_01_28_56.906,3.853,30.1,0,0.759,0,0,0,0, ,0,0,0,0,0, ,991.3,10.4,25.7,-0.6,-0.6,-1.7,25,-0.0218997,-0.0676569,0.11691,0.0276827,-0.0207861,0.0122986,
2026_06_09_01_28_56.925,3.853,30,0,0.759,0,0,0,0, ,0,0,0,0,0, ,990.2,11.3,22.9,-0.7,-0.5,-1.8,25,-0.0627693,-0.092647,0.0696623,0.0291909,-0.0259104,0.0112027,
2026_06_09_01_28_56.945,3.853,30,0,0.759,0,0,0,0, ,0,0,0,0,0, ,990.1,11.7,24.7,-0.6,-0.4,-1.9,25,-0.130752,-0.0840768,-0.000132638,0.0304812,-0.0257514,0.00520101,
2026_06_09_01_28_56.965,3.853,30.1,0,0.761,0,0,0,0, ,0,0,0,0,0, ,990.6,13.4,26.3,-0.6,-0.4,-1.8,25,-0.184948,-0.0240172,0.0168695,0.0340101,-0.0230211,-0.000531959,
2026_06_09_01_28_56.985,3.853,30,0,0.761,0,0,0,0, ,0,0,0,0,0, ,990.2,11.1,27,-0.6,-0.6,-1.6,25,-0.233121,0.0185023,0.0893543,0.0371984,-0.0252156,0.00137534,
2026_06_09_01_28_57.005,3.853,30,0,0.761,0,0,0,0, ,0,0,0,0,0, ,991,10.7,23.5,-0.6,-0.5,-1.6,25,-0.267974,-0.00736296,0.0891834,0.040047,-0.0296303,0.00808664,
2026_06_09_01_28_57.024,3.853,30,0,0.759,0,0,0,0, ,0,0,0,0,0, ,991,9.6,25.5,-0.6,-0.4,-1.9,25,-0.28018,-0.0687059,0.0517989,0.0425586,-0.0287782,0.00707246,
2026_06_09_01_28_57.044,3.853,30,0,0.759,0,0,0,0, ,0,0,0,0,0, ,990.7,11.3,24.9,-0.6,-0.4,-1.9,25,-0.297762,-0.111989,0.0503228,0.0447372,-0.0253738,-0.00128331,
2026_06_09_01_28_57.064,3.853,30,0,0.76,0,0,0,0, ,0,0,0,0,0, ,990.9,11.9,27.2,-0.6,-0.4,-1.8,25,-0.315467,-0.0961973,0.0903579,0.0465885,-0.0220114,-0.00677081,
2026_06_09_01_28_57.084,3.853,30.1,0,0.759,0,0,0,0, ,0,0,0,0,0, ,990.6,11.4,25.1,-0.6,-0.7,-1.8,25,-0.333201,-0.0782541,0.132889,0.0481194,-0.0260619,-0.00950365,
2026_06_09_01_28_57.108,3.853,30,0,0.759,0,0,0,0, ,0,0,0,0,0, ,991.2,12.6,23.3,-0.7,-0.5,-1.7,25,-0.341068,-0.0436401,0.0770442,0.0468859,-0.0322375,-0.00960347,
2026_06_09_01_28_57.124,3.853,30.1,0,0.76,0,0,0,0, ,0,0,0,0,0, ,990.8,13,25.7,-0.7,-0.3,-1.7,25,-0.341963,0.028726,0.0382719,0.0430297,-0.0281426,-0.0071989,
2026_06_09_01_28_57.143,3.853,30,0,0.76,0,0,0,0, ,0,0,0,0,0, ,990.9,10.6,26,-0.6,-0.4,-1.7,25,-0.348485,0.0483582,0.0674208,0.0416027,-0.0216578,-0.00487679,
2026_06_09_01_28_57.163,3.853,30,0,0.759,0,0,0,0, ,0,0,0,0,0, ,991.3,13,25.8,-0.7,-0.4,-1.7,25,-0.340709,0.0667893,0.09726,0.0400406,-0.0178364,-0.00264452,
2026_06_09_01_28_57.183,3.853,30,0,0.759,0,0,0,0, ,0,0,0,0,0, ,990.4,10.2,25,-0.6,-0.5,-1.7,25,-0.343896,0.0741787,0.100635,0.0383578,-0.0165667,-0.000508703,
2026_06_09_01_28_57.202,3.853,30,0,0.759,0,0,0,0, ,0,0,0,0,0, ,991.3,10.9,25.5,-0.6,-0.4,-1.8,25,-0.345232,0.0293447,0.0959919,0.0390207,-0.0152776,-0.000927282,
2026_06_09_01_28_57.222,3.853,30.1,0,0.759,0,0,0,0, ,0,0,0,0,0, ,991.8,11.9,25.6,-0.6,-0.5,-1.7,25,-0.310472,0.0282516,0.105816,0.0394588,-0.0139764,-0.00132076,
2026_06_09_01_28_57.242,3.853,30.1,0,0.76,0,0,0,0, ,0,0,0,0,0, ,991.8,10.1,23.6,-0.7,-0.4,-1.8,25,-0.263625,0.00745561,0.0680466,0.0372287,-0.0126702,-0.00168844,
2026_06_09_01_28_57.262,3.853,30,0,0.759,0,0,0,0, ,0,0,0,0,0, ,992.4,11.9,24.4,-0.6,-0.2,-1.9,25,-0.203063,-0.0123572,0.00236787,0.0349246,-0.00400907,-0.00693408,
2026_06_09_01_28_57.282,3.853,30,0,0.76,0,0,0,0, ,0,0,0,0,0, ,990.3,12,26.3,-0.6,-0.3,-1.8,25,-0.181253,0.0154536,0.00610685,0.0350135,0.00669918,-0.0118883,
2026_06_09_01_28_57.302,3.853,30,0,0.759,0,0,0,0, ,0,0,0,0,0, ,991.6,13.7,25.1,-0.6,-0.5,-1.6,25,-0.179238,0.0859632,0.0267975,0.0349255,0.00949276,-0.00918445,
2026_06_09_01_28_57.322,3.853,30,0,0.758,0,0,0,0, ,0,0,0,0,0, ,989.8,11.2,23.8,-0.6,-0.6,-1.6,25,-0.188699,0.132974,-0.0149627,0.0346696,0.00474607,-0.00166363,
2026_06_09_01_28_57.341,3.853,30,0,0.759,0,0,0,0, ,0,0,0,0,0, ,990.8,9.5,24.1,-0.7,-0.4,-1.9,25,-0.216383,0.0740329,-0.0791226,0.0318033,0.00266095,-0.00185994,
2026_06_09_01_28_57.361,3.853,30,0,0.759,0,0,0,0, ,0,0,0,0,0, ,991.3,12.6,26.1,-0.6,-0.2,-2,25,-0.20486,0.051948,-0.0833463,0.0289209,0.0104736,-0.0118461,
2026_06_09_01_28_57.381,3.853,30,0,0.758,0,0,0,0, ,0,0,0,0,0, ,992.3,12.2,24.7,-0.6,-0.4,-1.8,25,-0.156111,0.0968985,-0.0722392,0.0284894,0.0178515,-0.018832,
2026_06_09_01_28_57.401,3.853,30,0,0.76,0,0,0,0, ,0,0,0,0,0, ,990.3,10.7,25.2,-0.6,-0.4,-1.9,25,-0.133504,0.0925759,-0.0833901,0.0279387,0.0198753,-0.0229303,
2026_06_09_01_28_57.421,3.853,30.1,0,0.76,0,0,0,0, ,0,0,0,0,0, ,990.3,11.3,27,-0.7,-0.6,-1.9,25,-0.160392,0.0659396,-0.0371836,0.0248251,0.0167975,-0.0291667,
2026_06_09_01_28_57.440,3.853,30,0,0.76,0,0,0,0, ,0,0,0,0,0, ,990.8,11.7,26.7,-0.7,-0.3,-1.9,25,-0.17291,0.0648063,0.0437225,0.0192898,0.01624,-0.0349536,
2026_06_09_01_28_57.460,3.853,30,0,0.76,0,0,0,0, ,0,0,0,0,0, ,991,11.1,26.3,-0.7,-0.3,-1.8,25,-0.166796,0.0585048,0.10328,0.0139308,0.0229864,-0.0378322,
2026_06_09_01_28_57.480,3.853,30.1,0,0.76,0,0,0,0, ,0,0,0,0,0, ,990.4,12.2,27.5,-0.6,-0.5,-1.7,25,-0.169967,0.0644849,0.179025,0.0112182,0.0243843,-0.0354789,
2026_06_09_01_28_57.500,3.853,30,0,0.76,0,0,0,0, ,0,0,0,0,0, ,991.5,11.9,26.4,-0.6,-0.7,-1.7,25,-0.159885,0.0894712,0.252625,0.0110355,0.0157848,-0.0306139,
2026_06_09_01_28_57.520,3.853,30.1,0,0.759,0,0,0,0, ,0,0,0,0,0, ,990.9,13.1,26.1,-0.6,-0.6,-1.8,25,-0.137249,0.134861,0.28704,0.0108073,0.00507704,-0.0282889,
2026_06_09_01_28_57.544,3.853,30,0,0.76,0,0,0,0, ,0,0,0,0,0, ,991.6,10.6,27.2,-0.6,-0.5,-1.6,25,-0.112594,0.145481,0.33797,0.0105371,-0.000226221,-0.0234863,
2026_06_09_01_28_57.560,3.853,30,0,0.76,0,0,0,0, ,0,0,0,0,0, ,992.5,11.7,26.2,-0.6,-0.5,-1.7,25,-0.0493602,0.120534,0.387189,0.0102282,-0.00281612,-0.0163513,
2026_06_09_01_28_57.579,3.853,30,0,0.758,0,0,0,0, ,0,0,0,0,0, ,991.3,10.9,26,-0.6,-0.5,-1.7,25,0.00365972,0.103572,0.40266,0.00988405,-0.00526513,-0.0119379,
2026_06_09_01_28_57.598,3.853,30,0,0.759,0,0,0,0, ,0,0,0,0,0, ,992.1,11.7,24.9,-0.6,-0.5,-1.7,25,0.0442521,0.086932,0.38351,0.00950807,-0.00756807,-0.00768203,
2026_06_09_01_28_57.618,3.853,30,0,0.76,0,0,0,0, ,0,0,0,0,0, ,991.4,10.2,24.2,-0.6,-0.5,-1.8,25,0.0850887,0.0535145,0.31927,0.00910366,-0.00972078,-0.0060492,
2026_06_09_01_28_57.638,3.853,30,0,0.759,0,0,0,0, ,0,0,0,0,0, ,992,11.7,27.3,-0.6,-0.4,-1.8,25,0.121052,0.0214721,0.315459,0.00867422,-0.00926785,-0.0069188,
2026_06_09_01_28_57.658,3.853,30,0,0.761,0,0,0,0, ,0,0,0,0,0, ,992.3,12.3,26.8,-0.6,-0.6,-1.6,25,0.176723,0.0423907,0.374036,0.0082231,-0.0112436,-0.00280733,
2026_06_09_01_28_57.678,3.853,30,0,0.759,0,0,0,0, ,0,0,0,0,0, ,990.3,10.9,26.2,-0.6,-0.5,-1.7,25,0.187106,0.0424572,0.400923,0.00775357,-0.0155192,0.00356849,
2026_06_09_01_28_57.698,3.853,30,0,0.76,0,0,0,0, ,0,0,0,0,0, ,989.8,11.3,24.2,-0.7,-0.4,-1.9,25,0.134753,0.0177896,0.36076,0.0048167,-0.0146043,0.00225755,
2026_06_09_01_28_57.717,3.853,30.1,0,0.76,0,0,0,0, ,0,0,0,0,0, ,990.3,12.4,25.8,-0.7,-0.5,-1.8,25,0.0843043,0.0310265,0.310979,-0.000452033,-0.0136624,-0.00145238,
2026_06_09_01_28_57.737,3.853,30.1,0,0.76,0,0,0,0, ,0,0,0,0,0, ,991.2,9.6,24,-0.7,-0.7,-1.8,25,0.0702449,0.00177456,0.257204,-0.00546014,-0.0200557,-0.00252104,
2026_06_09_01_28_57.757,3.853,30,0,0.76,0,0,0,0, ,0,0,0,0,0, ,990.7,11.5,25.1,-0.8,-0.4,-1.8,25,0.066338,-0.0481209,0.187633,-0.0126479,-0.0235845,-0.00352487,
2026_06_09_01_28_57.778,3.853,30.1,0,0.76,0,0,0,0, ,0,0,0,0,0, ,991.3,12,25.8,-0.8,-0.3,-1.7,25,0.0647474,-0.0364804,0.164688,-0.021873,-0.0170154,-0.00200994,
2026_06_09_01_28_57.797,3.853,30,0,0.76,0,0,0,0, ,0,0,0,0,0, ,990.3,12.6,25.5,-0.7,-0.5,-1.7,25,0.0531064,0.00174286,0.151865,-0.0280856,-0.0131368,0.00189276,
2026_06_09_01_28_57.816,3.853,30,0,0.759,0,0,0,0, ,0,0,0,0,0, ,990.6,10.6,25,-0.8,-0.5,-1.8,25,0.0246092,0.00375266,0.119306,-0.0338552,-0.0142879,0.00314258,
2026_06_09_01_28_57.836,3.853,30,0,0.759,0,0,0,0, ,0,0,0,0,0, ,990.4,11.3,26.4,-0.8,-0.6,-1.7,25,-0.000158652,-0.0262327,0.109824,-0.0416272,-0.0177643,0.00431561,
2026_06_09_01_28_57.856,3.853,30,0,0.76,0,0,0,0, ,0,0,0,0,0, ,991.6,10.4,24.7,-0.8,-0.7,-1.7,25,0.000810602,-0.0595225,0.0929105,-0.0488128,-0.0258871,0.007862,
2026_06_09_01_28_57.877,3.853,30.1,0,0.76,0,0,0,0, ,0,0,0,0,0, ,991.3,11.2,23.3,-0.6,-0.4,-1.7,25,0.0237969,-0.0933385,0.000351172,-0.0505011,-0.0285795,0.0111957,
2026_06_09_01_28_57.896,3.853,30.1,0,0.759,0,0,0,0, ,0,0,0,0,0, ,991.8,10.1,27.2,-0.5,-0.4,-1.8,25,0.0504432,-0.132393,-0.0263664,-0.0445013,-0.0236426,0.0118586,
2026_06_09_01_28_57.919,3.853,30,0,0.759,0,0,0,0, ,0,0,0,0,0, ,991.3,12.9,26.2,-0.5,-0.5,-1.6,25,0.075534,-0.127192,0.019469,-0.0361242,-0.0212834,0.0148827,
2026_06_09_01_28_57.936,3.853,30,0,0.76,0,0,0,0, ,0,0,0,0,0, ,991,11.8,25.8,-0.5,-0.6,-1.7,25,0.0794051,-0.0799331,0.0286302,-0.02798,-0.0238394,0.0201373,
2026_06_09_01_28_57.955,3.853,30,0,0.76,0,0,0,0, ,0,0,0,0,0, ,991.3,11.5,26.9,-0.5,-0.7,-1.5,25,0.0826951,-0.0689281,0.0543661,-0.0200972,-0.0310569,0.0274871,
2026_06_09_01_28_57.975,3.853,30,0,0.759,0,0,0,0, ,0,0,0,0,0, ,991.5,10.4,24.7,-0.5,-0.7,-1.7,25,0.0976769,-0.0924534,0.0515982,-0.0125021,-0.0402194,0.034341,
2026_06_09_01_28_57.995,3.853,30.1,0,0.76,0,0,0,0, ,0,0,0,0,0, ,991.5,10.3,24.6,-0.6,-0.6,-1.7,25,0.116347,-0.143795,-0.00768795,-0.00766993,-0.0462823,0.0357852,
2026_06_09_01_28_58.017,3.853,30,0,0.76,0,0,0,0, ,0,0,0,0,0, ,990.1,11.4,24.1,-0.6,-0.4,-1.7,25,0.0991976,-0.167389,-0.0787416,-0.00548913,-0.0444632,0.0369822,
2026_06_09_01_28_58.034,3.853,30.1,0,0.759,0,0,0,0, ,0,0,0,0,0, ,991.4,7.5,20.9,-0.5,0.5,-2,25,0.0799487,-0.257661,-0.236652,-0.000936082,-0.0155405,0.0305817,
2026_06_09_01_28_58.054,3.853,30,0,0.76,0,0,0,0, ,0,0,0,0,0, ,990.2,12.5,28.5,-0.5,-0.3,-1.9,25,0.0637028,-0.315262,-0.277757,0.00585045,0.0144925,0.0194402,
2026_06_09_01_28_58.075,3.853,30.1,0,0.76,0,0,0,0, ,0,0,0,0,0, ,991.4,11.7,24.2,-0.6,-0.5,-1.8,25,0.0479397,-0.265494,-0.234556,0.00982315,0.0184596,0.0136535,
2026_06_09_01_28_58.094,3.853,30,0,0.758,0,0,0,0, ,0,0,0,0,0, ,990.2,11.7,25.5,-0.7,-0.4,-1.8,25,0.0327135,-0.236475,-0.265883,0.00864829,0.019689,0.0105355,
2026_06_09_01_28_58.114,3.853,30,0,0.759,0,0,0,0, ,0,0,0,0,0, ,991.4,11.2,26.4,-0.7,-0.3,-1.9,25,0.0180727,-0.219975,-0.240415,0.00503626,0.0256654,0.0050664,
2026_06_09_01_28_58.134,3.853,30,0,0.76,0,0,0,0, ,0,0,0,0,0, ,991.2,12.5,26,-0.7,-0.4,-1.8,25,0.0285826,-0.183583,-0.202751,0.00157656,0.0312222,-0.000159487,
2026_06_09_01_28_58.154,3.853,30,0,0.76,0,0,0,0, ,0,0,0,0,0, ,991.2,11.7,24.5,-0.8,-0.4,-1.9,25,0.0335315,-0.13581,-0.212525,-0.00417339,0.0339004,-0.0051283,
2026_06_09_01_28_58.174,3.853,30,0,0.759,0,0,0,0, ,0,0,0,0,0, ,991.4,10.2,25,-0.8,-0.4,-2,25,0.0429771,-0.146111,-0.245295,-0.0120729,0.0362803,-0.0147325,
2026_06_09_01_28_58.193,3.853,30,0,0.76,0,0,0,0, ,0,0,0,0,0, ,991.4,10.7,26.4,-0.8,-0.4,-1.9,25,0.0566522,-0.179708,-0.228657,-0.0195256,0.0383646,-0.023793,
2026_06_09_01_28_58.213,3.853,30,0,0.76,0,0,0,0, ,0,0,0,0,0, ,989.3,11.8,26.4,-0.8,-0.3,-1.7,25,0.0178812,-0.171536,-0.177379,-0.0265165,0.0426097,-0.0249355,
2026_06_09_01_28_58.233,3.853,30,0,0.76,0,0,0,0, ,0,0,0,0,0, ,992.5,12.3,25.8,-0.7,-0.5,-1.8,25,0.00789674,-0.123686,-0.142454,-0.0305817,0.0439846,-0.0234468,
2026_06_09_01_28_58.256,3.853,30,0,0.759,0,0,0,0, ,0,0,0,0,0, ,990.7,12.6,26.3,-0.7,-0.6,-1.6,25,0.0326938,-0.0579555,-0.110992,-0.0318447,0.0377187,-0.0194635,
2026_06_09_01_28_58.275,3.853,30,0,0.76,0,0,0,0, ,0,0,0,0,0, ,991,13.1,25.3,-0.6,-0.5,-1.7,25,0.0193313,0.0244542,-0.0927864,-0.0304366,0.0315743,-0.0131274,
2026_06_09_01_28_58.293,3.853,30,0,0.761,0,0,0,0, ,0,0,0,0,0, ,989.6,11.5,25.2,-0.6,-0.6,-1.6,25,-0.0204459,0.0757281,-0.10199,-0.0264954,0.0255756,-0.00703741,
2026_06_09_01_28_58.312,3.853,30,0,0.76,0,0,0,0, ,0,0,0,0,0, ,990.2,11.2,25.1,-0.7,-0.5,-1.7,25,-0.0777884,0.077523,-0.115145,-0.0250691,0.019745,-0.00121138,
2026_06_09_01_28_58.332,3.853,30,0,0.759,0,0,0,0, ,0,0,0,0,0, ,991.4,11.1,27.3,-0.6,-0.5,-1.8,25,-0.0877953,0.0690392,-0.075591,-0.0235892,0.0165553,-0.000569432,
2026_06_09_01_28_58.352,3.853,30,0,0.761,0,0,0,0, ,0,0,0,0,0, ,990.3,11.3,26.2,-0.6,-0.6,-1.8,25,-0.0944271,0.0630834,-0.0106309,-0.0196134,0.0109882,-0.00240832,
2026_06_09_01_28_58.371,3.853,30,0,0.759,0,0,0,0, ,0,0,0,0,0, ,992.3,12.3,25.1,-0.7,-0.5,-1.8,25,-0.0781998,0.0865347,-0.00275174,-0.0181882,0.00563999,-0.00414515,
2026_06_09_01_28_58.392,3.853,30,0,0.76,0,0,0,0, ,0,0,0,0,0, ,990.7,11.9,25.6,-0.7,-0.5,-1.7,25,-0.0525737,0.123122,-0.00995842,-0.0191953,0.00297845,-0.00332422,
2026_06_09_01_28_58.410,3.853,30,0,0.759,0,0,0,0, ,0,0,0,0,0, ,990.9,10.2,26.6,-0.6,-0.4,-1.7,25,-0.0622747,0.105814,0.0200198,-0.0176063,0.00288493,-7.50005e-05,
2026_06_09_01_28_58.431,3.853,30,0,0.76,0,0,0,0, ,0,0,0,0,0, ,990.7,11.4,26.3,-0.7,-0.5,-1.7,25,-0.0711929,0.0765713,0.0655943,-0.0160085,0.00278177,0.00301523,
2026_06_09_01_28_58.451,3.853,30,0,0.759,0,0,0,0, ,0,0,0,0,0, ,990.8,11.9,26.8,-0.7,-0.5,-1.8,25,-0.081776,0.0900725,0.113515,-0.0168623,0.000217807,0.00348689,
2026_06_09_01_28_58.471,3.853,30,0,0.759,0,0,0,0, ,0,0,0,0,0, ,991.3,12.5,25.5,-0.7,-0.4,-1.9,25,-0.0767247,0.129441,0.138908,-0.0175911,0.000230674,-0.000986087,
2026_06_09_01_28_58.492,3.853,29.9,0,0.759,0,0,0,0, ,0,0,0,0,0, ,991.3,12.5,26.6,-0.7,-0.4,-1.7,25,-0.0592821,0.180955,0.157467,-0.0181975,0.00269393,-0.00278268,
2026_06_09_01_28_58.510,3.853,30.1,0,0.759,0,0,0,0, ,0,0,0,0,0, ,990.3,10,25.1,-0.7,-0.4,-1.7,25,-0.0669245,0.167746,0.164532,-0.0186845,0.00502311,0.000426878,
2026_06_09_01_28_58.530,3.853,30,0,0.759,0,0,0,0, ,0,0,0,0,0, ,991,9.7,26.2,-0.8,-0.5,-1.8,25,-0.0812184,0.0856974,0.16063,-0.0215076,0.00476114,0.00102476,
2026_06_09_01_28_58.550,3.853,30,0,0.76,0,0,0,0, ,0,0,0,0,0, ,991.5,13,26.9,-0.8,-0.6,-1.8,25,-0.0649848,0.0808154,0.200267,-0.0265385,-0.000415767,-0.000863882,
2026_06_09_01_28_58.569,3.853,30,0,0.76,0,0,0,0, ,0,0,0,0,0, ,991.2,12.3,25.1,-0.8,-0.5,-1.8,25,-0.0443225,0.139531,0.209999,-0.0311919,-0.00533673,-0.00265564,
2026_06_09_01_28_58.589,3.853,30,0,0.759,0,0,0,0, ,0,0,0,0,0, ,989.2,11.5,25.1,-0.7,-0.4,-1.8,25,-0.0808545,0.157897,0.174081,-0.0330111,-0.00508574,-0.00434645,
2026_06_09_01_28_58.609,3.853,30,0,0.76,0,0,0,0, ,0,0,0,0,0, ,991.5,11.7,26.9,-0.6,-0.4,-1.8,25,-0.10784,0.15987,0.183204,-0.0296741,-0.00236983,-0.0059329,
2026_06_09_01_28_58.629,3.853,30.1,0,0.76,0,0,0,0, ,0,0,0,0,0, ,990.2,11.9,25.8,-0.6,-0.6,-1.8,25,-0.108449,0.170768,0.208143,-0.0239024,-0.00467975,-0.00741232,
2026_06_09_01_28_58.648,3.853,30.1,0,0.759,0,0,0,0, ,0,0,0,0,0, ,991.2,11.4,26,-0.7,-0.7,-1.8,25,-0.11585,0.172933,0.208763,-0.0207481,-0.0142098,-0.00878265,
2026_06_09_01_28_58.673,3.853,30,0,0.76,0,0,0,0, ,0,0,0,0,0, ,990.6,12.4,26.3,-0.6,-0.5,-1.7,25,-0.11251,0.186401,0.220585,-0.0176462,-0.0207503,-0.00759033,
2026_06_09_01_28_58.688,3.853,30,0,0.76,0,0,0,0, ,0,0,0,0,0, ,991.8,11.1,25,-0.6,-0.6,-1.6,25,-0.0940659,0.190933,0.206218,-0.0121574,-0.0244156,-0.00151476,
2026_06_09_01_28_58.708,3.853,30,0,0.76,0,0,0,0, ,0,0,0,0,0, ,989.2,11.1,26.1,-0.7,-0.3,-1.8,25,-0.110393,0.162424,0.186635,-0.00932995,-0.0228765,0.00181815,
2026_06_09_01_28_58.728,3.853,30,0,0.758,0,0,0,0, ,0,0,0,0,0, ,991.2,11.2,26.2,-0.6,-0.4,-1.9,25,-0.140087,0.136964,0.196519,-0.00659522,-0.0163958,-0.00237784,
2026_06_09_01_28_58.748,3.853,30.1,0,0.759,0,0,0,0, ,0,0,0,0,0, ,991.6,12.3,24.6,-0.5,-0.5,-1.9,25,-0.108783,0.141505,0.168167,0.000942225,-0.0150565,-0.00880848,
2026_06_09_01_28_58.768,3.853,30,0,0.758,0,0,0,0, ,0,0,0,0,0, ,990.8,14,28.3,-0.7,-0.5,-1.7,25,-0.0882883,0.213785,0.191872,0.0056532,-0.0161608,-0.00997602,
2026_06_09_01_28_58.788,3.853,29.9,0,0.759,0,0,0,0, ,0,0,0,0,0, ,990.6,10,23,-0.6,-0.4,-1.6,25,-0.0928848,0.225068,0.174235,0.00765312,-0.0146791,-0.00368064,
2026_06_09_01_28_58.807,3.853,30,0,0.759,0,0,0,0, ,0,0,0,0,0, ,991.6,13.4,24.1,-0.7,-0.2,-1.7,25,-0.0771812,0.219974,0.0536129,0.00951723,-0.00584127,0.00232412,
2026_06_09_01_28_58.827,3.853,30.1,0,0.759,0,0,0,0, ,0,0,0,0,0, ,990.7,10.9,28.3,-0.7,-0.4,-1.7,25,-0.0594143,0.236116,0.0686069,0.00879086,0.0025919,0.00557078,
2026_06_09_01_28_58.847,3.853,29.9,0,0.76,0,0,0,0, ,0,0,0,0,0, ,991.6,9.5,25.6,-0.6,-0.6,-1.8,25,-0.042226,0.154669,0.11931,0.0105089,0.000790063,0.00617859,
2026_06_09_01_28_58.868,3.853,30,0,0.758,0,0,0,0, ,0,0,0,0,0, ,991.5,12.3,23.8,-0.6,-0.5,-1.9,25,-0.0060555,0.110784,0.0565909,0.0145431,-0.00337946,0.00182183,
2026_06_09_01_28_58.886,3.853,29.9,0,0.76,0,0,0,0, ,0,0,0,0,0, ,990.8,12.6,25,-0.7,-0.6,-1.8,25,0.0087539,0.144522,-0.0180439,0.0158557,-0.00732784,-0.00233024,
2026_06_09_01_28_58.906,3.853,30,0,0.761,0,0,0,0, ,0,0,0,0,0, ,990.6,11.3,26.6,-0.6,-0.5,-1.7,25,0.000723823,0.151372,-0.020269,0.0170257,-0.0110465,-0.00136287,
2026_06_09_01_28_58.926,3.853,30,0,0.759,0,0,0,0, ,0,0,0,0,0, ,992.1,12.5,24.2,-0.7,-0.4,-1.6,25,0.0249618,0.154687,-0.0419023,0.0180544,-0.00962395,0.00446808,
2026_06_09_01_28_58.946,3.853,30,0,0.759,0,0,0,0, ,0,0,0,0,0, ,991.2,10.4,27.8,-0.6,-0.5,-1.6,25,0.0626019,0.135009,-0.0328423,0.0189437,-0.00822378,0.0124432,
2026_06_09_01_28_58.965,3.853,30,0,0.76,0,0,0,0, ,0,0,0,0,0, ,991.4,10,26.2,-0.7,-0.6,-1.7,25,0.0809236,0.0543256,0.0249785,0.019696,-0.0117561,0.0175137,
2026_06_09_01_28_58.985,3.853,30,0,0.759,0,0,0,0, ,0,0,0,0,0, ,991.3,10.4,25.5,-0.9,-0.7,-1.7,25,0.100399,-0.0226682,0.0234408,0.0129578,-0.0199615,0.0197971,
2026_06_09_01_28_59.012,3.853,30,0,0.759,0,0,0,0, ,0,0,0,0,0, ,991,12.5,23.9,-0.9,-0.4,-1.8,25,0.108616,-0.0344703,-0.0345367,0.00158199,-0.0227618,0.0194188,
2026_06_09_01_28_59.032,3.853,30,0,0.755,0,0,0,0, ,0,0,0,0,0, ,990.3,10,26.3,-0.8,-0.2,-1.9,25,0.0913728,-0.0553323,-0.0698834,-0.00679159,-0.0130518,0.014059,
2026_06_09_01_28_59.046,3.853,30,0,0.759,0,0,0,0, ,0,0,0,0,0, ,990.2,12.9,27.8,-0.7,-0.3,-1.8,25,0.054908,-0.0650899,-0.00751785,-0.00981671,-0.00130154,0.00889273,
2026_06_09_01_28_59.066,3.853,30,0,0.76,0,0,0,0, ,0,0,0,0,0, ,990.7,12.3,27.5,-0.6,-0.7,-1.7,25,0.0297701,-0.0176484,0.0812521,-0.00774077,-0.00238193,0.00884037,
2026_06_09_01_28_59.084,3.853,30,0,0.76,0,0,0,0, ,0,0,0,0,0, ,991,11.5,24.6,-0.5,-0.8,-1.6,25,0.0253354,-0.00677686,0.0867989,-0.000824173,-0.0156584,0.0136513,
2026_06_09_01_28_59.104,3.853,30,0,0.759,0,0,0,0, ,0,0,0,0,0, ,990.7,9.5,23.3,-0.5,-0.3,-1.6,25,0.0209933,-0.0650656,-0.0113449,0.00820944,-0.0183979,0.0206112,
2026_06_09_01_28_59.125,3.853,30,0,0.759,0,0,0,0, ,0,0,0,0,0, ,990.7,10.6,26.7,-0.7,-0.3,-1.7,25,0.00940449,-0.142244,-0.0531241,0.0118552,-0.00865163,0.024676,
2026_06_09_01_28_59.144,3.853,30,0,0.759,0,0,0,0, ,0,0,0,0,0, ,989.8,11.4,28.4,-0.7,-0.5,-1.9,25,-0.0237324,-0.168346,0.0324677,0.0103595,-0.00424501,0.0210634,
2026_06_09_01_28_59.164,3.853,30,0,0.759,0,0,0,0, ,0,0,0,0,0, ,990.3,11.9,29.5,-0.6,-0.9,-1.8,25,-0.0649364,-0.16046,0.182362,0.0113382,-0.0147465,0.015072,
2026_06_09_01_28_59.184,3.853,30,0,0.759,0,0,0,0, ,0,0,0,0,0, ,991,12.5,24.2,-1.1,-1.4,-1.8,25,-0.0743733,-0.125196,0.221016,0.00240437,-0.0467298,0.0117523,
2026_06_09_01_28_59.204,3.853,30,0,0.759,0,0,0,0, ,0,0,0,0,0, ,991.3,12.6,22.8,-1.7,-1.2,-1.7,25,-0.0584593,-0.0738794,0.0923902,-0.0330769,-0.0842707,0.0109897,
2026_06_09_01_28_59.224,3.853,30.1,0,0.76,0,0,0,0, ,0,0,0,0,0, ,992.4,11.2,20.2,-1.2,-0.9,-1.7,25,-0.00870682,-0.0565935,-0.128469,-0.0691072,-0.107294,0.0126624,
2026_06_09_01_28_59.243,3.853,30,0,0.759,0,0,0,0, ,0,0,0,0,0, ,990.8,12.4,22.2,-0.9,-0.3,-1.6,25,0.0263877,-0.0447808,-0.352577,-0.0834127,-0.106591,0.0166429,
2026_06_09_01_28_59.263,3.853,30,0,0.76,0,0,0,0, ,0,0,0,0,0, ,990.8,10.6,24.2,-1.1,-0.4,-1.8,25,0.0203956,-0.0480397,-0.465869,-0.0941532,-0.0931353,0.017894,
2026_06_09_01_28_59.288,3.853,30,0,0.761,0,0,0,0, ,0,0,0,0,0, ,991.3,10,24.1,-1.3,-0.5,-1.9,25,0.0268577,-0.109754,-0.524719,-0.113712,-0.0847852,0.011639,
2026_06_09_01_28_59.307,3.853,30,0,0.76,0,0,0,0, ,0,0,0,0,0, ,991.3,12,24.1,-1.2,-0.5,-2,25,0.0451313,-0.13357,-0.580548,-0.134203,-0.078879,0.00072915,
2026_06_09_01_28_59.322,3.853,30,0,0.757,0,0,0,0, ,0,0,0,0,0, ,990.9,12.5,23.6,-1.1,-0.3,-1.8,25,0.0524785,-0.0942562,-0.643039,-0.148123,-0.0679693,-0.00719709,
2026_06_09_01_28_59.342,3.853,30,0,0.76,0,0,0,0, ,0,0,0,0,0, ,991.8,11.3,26.8,-1,-0.2,-1.8,25,0.0714676,-0.0735709,-0.633088,-0.155726,-0.0499032,-0.00979481,
2026_06_09_01_28_59.362,3.853,30,0,0.759,0,0,0,0, ,0,0,0,0,0, ,992.7,10.6,26.4,-1,-0.4,-1.8,25,0.133312,-0.100128,-0.551845,-0.159737,-0.0349294,-0.0122169,
2026_06_09_01_28_59.384,3.853,30,0,0.76,0,0,0,0, ,0,0,0,0,0, ,993.8,10.6,25.3,-0.9,-0.5,-1.7,25,0.240509,-0.142055,-0.508648,-0.160312,-0.0278742,-0.0120078,
2026_06_09_01_28_59.401,3.853,30,0,0.76,0,0,0,0, ,0,0,0,0,0, ,989.3,13.5,26,-0.6,-0.7,-1.7,25,0.25789,-0.110113,-0.474872,-0.15026,-0.0283842,-0.00929758,
2026_06_09_01_28_59.422,3.853,30,0,0.758,0,0,0,0, ,0,0,0,0,0, ,992.5,13.3,24.7,-0.6,-0.6,-1.6,25,0.241269,-0.0129866,-0.455125,-0.132604,-0.0311815,-0.00422233,
2026_06_09_01_28_59.441,3.853,30,0,0.76,0,0,0,0, ,0,0,0,0,0, ,991.6,10.4,26.3,-0.7,-0.5,-1.6,25,0.280674,0.00342363,-0.426747,-0.117612,-0.0287836,0.00307698,
2026_06_09_01_28_59.462,3.853,29.9,0,0.759,0,0,0,0, ,0,0,0,0,0, ,990.8,11.2,23.5,-0.6,-0.5,-1.9,25,0.275076,-0.0324832,-0.427084,-0.102776,-0.0239092,0.00264667,
2026_06_09_01_28_59.480,3.853,29.9,0,0.759,0,0,0,0, ,0,0,0,0,0, ,990.7,12.5,26.4,-0.7,-0.4,-1.8,25,0.246329,-0.0149736,-0.422847,-0.0881611,-0.0167039,-0.0026799,
2026_06_09_01_28_59.501,3.853,30,0,0.76,0,0,0,0, ,0,0,0,0,0, ,990.9,12.5,25.7,-0.7,-0.4,-1.8,25,0.22023,0.0336291,-0.362787,-0.0762806,-0.00731754,-0.00527988,
2026_06_09_01_28_59.520,3.853,30,0,0.76,0,0,0,0, ,0,0,0,0,0, ,991.2,11.3,23.8,-0.6,-0.5,-1.7,25,0.206587,0.0502566,-0.36764,-0.0621547,-0.000807579,-0.00527416,
2026_06_09_01_28_59.540,3.853,30,0,0.758,0,0,0,0, ,0,0,0,0,0, ,990.8,11.9,23.9,-0.6,-0.4,-1.7,25,0.190142,0.051108,-0.414582,-0.0459631,0.00538709,-0.00279057,
2026_06_09_01_28_59.565,3.853,29.9,0,0.76,0,0,0,0, ,0,0,0,0,0, ,991.2,11.9,26.4,-0.8,-0.4,-1.6,25,0.173566,0.0663786,-0.393423,-0.0352434,0.0137036,0.00203713,
2026_06_09_01_28_59.586,3.853,30,0,0.759,0,0,0,0, ,0,0,0,0,0, ,992.1,11.5,28,-0.9,-0.5,-1.7,25,0.188826,0.0707646,-0.270824,-0.0322322,0.0190925,0.00661802,
2026_06_09_01_28_59.599,3.853,30,0,0.759,0,0,0,0, ,0,0,0,0,0, ,991.5,9.3,24.4,-1.1,-0.6,-1.8,25,0.209763,0.0108306,-0.201946,-0.0365663,0.0192187,0.00603732,
2026_06_09_01_28_59.620,3.853,30,0,0.76,0,0,0,0, ,0,0,0,0,0, ,991.6,11.8,24.5,-1.5,-0.6,-2,25,0.216378,-0.038861,-0.221277,-0.0552207,0.0167918,-0.00190114,
2026_06_09_01_28_59.639,3.853,30,0,0.76,0,0,0,0, ,0,0,0,0,0, ,991.4,11.5,24,-1.6,-0.6,-1.9,25,0.219151,-0.0319765,-0.248378,-0.0849488,0.0144012,-0.0118931,
2026_06_09_01_28_59.659,3.853,30,0,0.759,0,0,0,0, ,0,0,0,0,0, ,989.8,12.8,24.9,-1.1,-0.3,-1.9,25,0.176569,-0.000750388,-0.263116,-0.102992,0.0194134,-0.0188842,
2026_06_09_01_28_59.679,3.853,30.1,0,0.759,0,0,0,0, ,0,0,0,0,0, ,990.8,11.7,24.6,-1.2,-0.3,-1.9,25,0.120492,0.0338523,-0.261123,-0.109833,0.0314405,-0.0254394,
2026_06_09_01_28_59.700,3.853,29.9,0,0.76,0,0,0,0, ,0,0,0,0,0, ,990.8,12.2,27,-0.9,-0.5,-1.8,25,0.0910929,0.0518781,-0.206445,-0.110894,0.0378186,-0.0290955,
2026_06_09_01_28_59.719,3.853,29.9,0,0.76,0,0,0,0, ,0,0,0,0,0, ,991,11.8,24,-0.8,-0.8,-1.6,25,0.0675911,0.0712164,-0.168144,-0.101547,0.0314366,-0.0250725,
2026_06_09_01_28_59.739,3.853,30.1,0,0.76,0,0,0,0, ,0,0,0,0,0, ,990.7,11.9,23.3,-0.9,-0.7,-1.7,25,0.0424572,0.0818988,-0.221622,-0.0921588,0.0203084,-0.018671,
2026_06_09_01_28_59.758,3.853,30,0,0.76,0,0,0,0, ,0,0,0,0,0, ,991.8,11.1,24.2,-1,-0.5,-1.7,25,0.0379638,0.0744886,-0.266482,-0.0876807,0.0169824,-0.0149437,
2026_06_09_01_28_59.778,3.853,30,0,0.759,0,0,0,0, ,0,0,0,0,0, ,991.2,10.9,21.7,-1,-0.6,-1.8,25,0.0457644,0.0425531,-0.347062,-0.0854423,0.0161879,-0.0137777,
2026_06_09_01_28_59.797,3.853,29.9,0,0.76,0,0,0,0, ,0,0,0,0,0, ,991.4,10.8,26.1,-0.9,-0.5,-1.8,25,0.0431491,0.00461757,-0.375389,-0.0804405,0.0153526,-0.0150531,
2026_06_09_01_28_59.819,3.853,30,0,0.76,0,0,0,0, ,0,0,0,0,0, ,990.9,9.3,26.3,-1.1,-0.5,-1.8,25,0.0330933,-0.0707148,-0.287678,-0.0777397,0.0169348,-0.0161917,
2026_06_09_01_28_59.838,3.853,30.1,0,0.759,0,0,0,0, ,0,0,0,0,0, ,991,12.4,26.7,-0.8,-0.7,-1.9,25,0.0135584,-0.102769,-0.188137,-0.072336,0.0134516,-0.0196469,
2026_06_09_01_28_59.863,3.853,29.9,0,0.759,0,0,0,0, ,0,0,0,0,0, ,992,10.9,22,-1,-0.5,-1.6,25,0.0218878,-0.0935111,-0.197994,-0.0643887,0.010073,-0.0179315,
2026_06_09_01_28_59.877,3.853,30.1,0,0.76,0,0,0,0, ,0,0,0,0,0, ,990.7,11.7,24.5,-0.9,-0.2,-1.7,25,0.0223447,-0.101411,-0.260339,-0.058966,0.0190712,-0.0113075,
2026_06_09_01_28_59.900,3.853,30.1,0,0.76,0,0,0,0, ,0,0,0,0,0, ,991.4,12.9,27.4,-0.7,-0.3,-1.7,25,0.00795666,-0.0593806,-0.185927,-0.0461622,0.0324384,-0.00740487,
2026_06_09_01_28_59.917,3.853,30,0,0.758,0,0,0,0, ,0,0,0,0,0, ,990.3,9.8,26.6,-0.6,-0.6,-1.8,25,-0.0155742,-0.0657098,-0.062753,-0.0264023,0.0351816,-0.00610926,
2026_06_09_01_28_59.938,3.853,30,0,0.76,0,0,0,0, ,0,0,0,0,0, ,990.8,14.1,25.8,-0.6,-0.7,-1.8,25,-0.0525881,-0.0419789,0.0154551,-0.00502924,0.0278081,-0.00729924,
2026_06_09_01_28_59.956,3.853,30.1,0,0.758,0,0,0,0, ,0,0,0,0,0, ,991.3,11.7,25.1,-0.9,-1.3,-1.5,25,-0.0630059,0.0273862,0.0529691,0.00796392,0.00349418,-0.0010384,
2026_06_09_01_28_59.977,3.853,30.1,0,0.759,0,0,0,0, ,0,0,0,0,0, ,990.8,10.1,23.4,-1.2,-1.2,-1.5,25,-0.0726024,-0.00487207,0.0295303,0.00556764,-0.0319054,0.012277,
