UTC_Time,Vin,TC1,TC2,Rh1,Vh1,Ah1,Acp1,Dty1,Err1,Rh2,Vh2,Ah2,Acp2,Dty2,Err2,Accel_x,Accel_y,Accel_z,gyro_x,gyro_y,gyro_z,Temp_c,Accel_x_h,Accel_y_h,Accel_z_h,gyro_x_h,gyro_y_h,gyro_z_h,
2026_07_06_16_10_47.615,3.866,28.1,0,0.758,3.816,5.034,18.24,0.95, ,0,0,0,0,0, ,-41.2,302.8,952.5,-0.3,-0.5,-1.8,25,-41.2,302.8,952.5,-0.3,-0.5,-1.8,
2026_07_06_16_10_47.635,3.854,28.1,0,0.762,3.878,5.089,18.74,0.95, ,0,0,0,0,0, ,-37.9,303.5,953.4,-0.4,-0.5,-1.7,25,-41.0995,302.821,952.527,-0.303047,-0.5,-1.79695,
2026_07_06_16_10_47.655,3.854,28.3,0,0.761,0,0,0,0.015, ,0,0,0,0,0, ,-39.5,302.7,953.2,-0.3,-0.5,-1.7,25,-40.9532,302.838,952.575,-0.305908,-0.5,-1.79105,
2026_07_06_16_10_47.675,3.854,28.4,0,0.761,0,0,0,0.014, ,0,0,0,0,0, ,-40.8,302.3,952.6,-0.2,-0.5,-1.7,25,-40.9043,302.818,952.594,-0.302501,-0.5,-1.7855,
2026_07_06_16_10_47.694,3.854,28.5,0,0.76,0,0,0,0.013, ,0,0,0,0,0, ,-40.4,302.9,953.8,-0.3,-0.5,-1.7,25,-40.8857,302.804,952.631,-0.299302,-0.5,-1.78029,
2026_07_06_16_10_47.714,3.854,28.5,0,0.76,0,0,0,0.012, ,0,0,0,0,0, ,-39,302,953,-0.3,-0.4,-1.7,25,-40.8135,302.783,952.678,-0.299344,-0.496953,-1.77539,
2026_07_06_16_10_47.733,3.854,28.6,0,0.76,0,0,0,0.012, ,0,0,0,0,0, ,-39.5,303.4,952.8,-0.1,-0.5,-1.6,25,-40.7182,302.778,952.692,-0.293291,-0.494092,-1.76775,
2026_07_06_16_10_47.750,3.854,28.6,0,0.761,0,0,0,0.012, ,0,0,0,0,0, ,-39.4,302.3,952.5,-0.2,-0.5,-1.7,25,-40.6409,302.782,952.689,-0.284559,-0.494452,-1.76058,
2026_07_06_16_10_47.774,3.854,28.8,0,0.76,0,0,0,0.012, ,0,0,0,0,0, ,-38.9,303.1,953.6,-0.2,-0.5,-1.7,25,-40.5501,302.777,952.711,-0.279406,-0.49479,-1.75689,
2026_07_06_16_10_47.793,3.854,28.8,0,0.76,0,0,0,0.01, ,0,0,0,0,0, ,-40,302.4,953.3,-0.3,-0.5,-1.7,25,-40.483,302.776,952.756,-0.277614,-0.495108,-1.75342,
2026_07_06_16_10_47.813,3.854,28.7,0,0.759,0,0,0,0.01, ,0,0,0,0,0, ,-39.4,302.3,952.3,-0.4,-0.5,-1.7,25,-40.4353,302.75,952.759,-0.282025,-0.495406,-1.75016,
2026_07_06_16_10_47.832,3.854,28.7,0,0.76,0,0,0,0.011, ,0,0,0,0,0, ,-39.4,302.6,952.6,-0.4,-0.5,-1.8,25,-40.3722,302.731,952.74,-0.289214,-0.495686,-1.75015,
2026_07_06_16_10_47.853,3.854,28.8,0,0.76,0,0,0,0.012, ,0,0,0,0,0, ,-38.9,302.2,953.6,-0.4,-0.5,-1.7,25,-40.2978,302.711,952.762,-0.295965,-0.495949,-1.75015,
2026_07_06_16_10_47.872,3.854,28.8,0,0.759,0,0,0,0.011, ,0,0,0,0,0, ,-39.5,302.9,952.8,-0.4,-0.5,-1.7,25,-40.2309,302.701,952.789,-0.302305,-0.496195,-1.74709,
2026_07_06_16_10_47.893,3.854,28.9,0,0.759,0,0,0,0.011, ,0,0,0,0,0, ,-39.7,302,953.6,-0.4,-0.5,-1.7,25,-40.1924,302.686,952.814,-0.308258,-0.496427,-1.74422,
2026_07_06_16_10_47.912,3.854,29.1,0,0.758,0,0,0,0.01, ,0,0,0,0,0, ,-38.6,302.6,952.2,-0.4,-0.5,-1.7,25,-40.1289,302.662,952.819,-0.313849,-0.496645,-1.74153,
2026_07_06_16_10_47.931,3.854,28.9,0,0.76,0,0,0,0.009, ,0,0,0,0,0, ,-38.5,303.7,953.9,-0.3,-0.5,-1.7,25,-40.0327,302.692,952.833,-0.316052,-0.496849,-1.73899,
2026_07_06_16_10_47.951,3.854,29.1,0,0.759,0,0,0,0.01, ,0,0,0,0,0, ,-40.1,302.2,953,-0.4,-0.5,-1.7,25,-39.988,302.708,952.871,-0.31812,-0.497041,-1.73662,
2026_07_06_16_10_47.970,3.854,29.1,0,0.759,0,0,0,0.009, ,0,0,0,0,0, ,-40.1,303.4,953.7,-0.3,-0.5,-1.7,25,-39.9949,302.714,952.9,-0.320063,-0.497222,-1.73439,
2026_07_06_16_10_47.994,3.854,29.1,0,0.759,0,0,0,0.009, ,0,0,0,0,0, ,-39.5,302.3,952.1,-0.3,-0.6,-1.6,25,-39.983,302.722,952.9,-0.31884,-0.500438,-1.72924,
2026_07_06_16_10_48.010,3.854,29.1,0,0.76,0,0,0,0.009, ,0,0,0,0,0, ,-38,302.4,953.2,-0.3,-0.5,-1.7,25,-39.9078,302.699,952.885,-0.317692,-0.503458,-1.72442,
2026_07_06_16_10_48.030,3.854,29.2,0,0.76,0,0,0,0.009, ,0,0,0,0,0, ,-39.1,302.9,952.8,-0.2,-0.5,-1.7,25,-39.8251,302.696,952.892,-0.313567,-0.503247,-1.72293,
2026_07_06_16_10_48.050,3.854,29.2,0,0.761,0,0,0,0.008, ,0,0,0,0,0, ,-38.5,303.1,954.5,-0.1,-0.5,-1.7,25,-39.7626,302.715,952.938,-0.3036,-0.503049,-1.72153,
2026_07_06_16_10_48.069,3.854,29.3,0,0.76,0,0,0,0.009, ,0,0,0,0,0, ,-38.9,302,953.2,-0.2,-0.5,-1.7,25,-39.6979,302.705,952.993,-0.29424,-0.502864,-1.72022,
2026_07_06_16_10_48.089,3.854,29.2,0,0.758,0,0,0,0.008, ,0,0,0,0,0, ,-39.9,302,951.9,-0.2,-0.5,-1.7,25,-39.6797,302.662,952.966,-0.288497,-0.502689,-1.71899,
2026_07_06_16_10_48.109,3.854,29.2,0,0.759,0,0,0,0.009, ,0,0,0,0,0, ,-39.1,302,953.8,-0.3,-0.5,-1.7,25,-39.6688,302.621,952.959,-0.286151,-0.502525,-1.71783,
2026_07_06_16_10_48.133,3.854,29.2,0,0.761,0,0,0,0.009, ,0,0,0,0,0, ,-39.3,303.4,952.3,-0.4,-0.5,-1.7,25,-39.6402,302.626,952.965,-0.290042,-0.502371,-1.71674,
2026_07_06_16_10_48.149,3.854,29.2,0,0.758,0,0,0,0.009, ,0,0,0,0,0, ,-39.9,302,953.2,-0.3,-0.5,-1.7,25,-39.6378,302.631,952.952,-0.293696,-0.502227,-1.71572,
2026_07_06_16_10_48.170,3.854,29.3,0,0.759,0,0,0,0.009, ,0,0,0,0,0, ,-38.6,303.7,953,-0.4,-0.5,-1.7,25,-39.6141,302.644,952.961,-0.297127,-0.502091,-1.71476,
2026_07_06_16_10_48.189,3.854,29.3,0,0.76,0,0,0,0.008, ,0,0,0,0,0, ,-39.3,302.1,953.9,-0.4,-0.5,-1.7,25,-39.5737,302.66,952.991,-0.303396,-0.501964,-1.71387,
2026_07_06_16_10_48.208,3.854,29.3,0,0.76,0,0,0,0.008, ,0,0,0,0,0, ,-38.6,303.1,953.4,-0.5,-0.5,-1.7,25,-39.5357,302.656,953.031,-0.312329,-0.501844,-1.71302,
2026_07_06_16_10_48.228,3.854,29.3,0,0.76,0,0,0,0.008, ,0,0,0,0,0, ,-39,304.8,953.8,-0.4,-0.5,-1.8,25,-39.4908,302.735,953.065,-0.320719,-0.501732,-1.71527,
2026_07_06_16_10_48.248,3.854,29.3,0,0.759,0,0,0,0.008, ,0,0,0,0,0, ,-38,302.7,953.6,-0.4,-0.5,-1.7,25,-39.4304,302.797,953.104,-0.32555,-0.501626,-1.71739,
2026_07_06_16_10_48.269,3.854,29.4,0,0.759,0,0,0,0.009, ,0,0,0,0,0, ,-40.5,304.1,953.8,-0.3,-0.5,-1.8,25,-39.4195,302.833,953.14,-0.32704,-0.501527,-1.71938,
2026_07_06_16_10_48.287,3.854,29.4,0,0.76,0,0,0,0.008, ,0,0,0,0,0, ,-38.3,304.3,953.1,-0.3,-0.5,-1.8,25,-39.4183,302.917,953.159,-0.325392,-0.501434,-1.72429,
2026_07_06_16_10_48.308,3.854,29.3,0,0.759,0,0,0,0.008, ,0,0,0,0,0, ,-38.5,302.8,953.2,-0.2,-0.5,-1.7,25,-39.3562,302.955,953.159,-0.320798,-0.501347,-1.72586,
2026_07_06_16_10_48.327,3.854,29.4,0,0.759,0,0,0,0.009, ,0,0,0,0,0, ,-39.3,302,953.4,-0.2,-0.5,-1.7,25,-39.3284,302.922,953.167,-0.313437,-0.501265,-1.72428,
2026_07_06_16_10_48.347,3.854,29.4,0,0.759,0,0,0,0.008, ,0,0,0,0,0, ,-38.5,303.4,952.8,-0.4,-0.5,-1.7,25,-39.3023,302.908,953.163,-0.312618,-0.501188,-1.7228,
2026_07_06_16_10_48.367,3.854,29.5,0,0.759,0,0,0,0.008, ,0,0,0,0,0, ,-39,303.1,954.7,-0.4,-0.5,-1.8,25,-39.2687,302.929,953.199,-0.317943,-0.501115,-1.72446,
2026_07_06_16_10_48.387,3.854,29.4,0,0.76,0,0,0,0.007, ,0,0,0,0,0, ,-39,302.6,953.6,-0.4,-0.5,-1.7,25,-39.2523,302.924,953.257,-0.322943,-0.501047,-1.72602,
2026_07_06_16_10_48.413,3.854,29.6,0,0.759,0,0,0,0.008, ,0,0,0,0,0, ,-39.9,302.8,953.2,-0.4,-0.5,-1.7,25,-39.2643,302.91,953.266,-0.327639,-0.500983,-1.72443,
2026_07_06_16_10_48.426,3.854,29.4,0,0.76,0,0,0,0.007, ,0,0,0,0,0, ,-39,302.6,953.7,-0.3,-0.5,-1.8,25,-39.2756,302.898,953.277,-0.329001,-0.500923,-1.72599,
2026_07_06_16_10_48.446,3.854,29.5,0,0.76,0,0,0,0.008, ,0,0,0,0,0, ,-39.7,303.5,953,-0.3,-0.5,-1.7,25,-39.2802,302.907,953.281,-0.327234,-0.500867,-1.72745,
2026_07_06_16_10_48.466,3.854,29.4,0,0.759,0,0,0,0.008, ,0,0,0,0,0, ,-38.2,304,953.3,-0.2,-0.5,-1.7,25,-39.2601,302.958,953.273,-0.322528,-0.500814,-1.72578,
2026_07_06_16_10_48.485,3.854,29.4,0,0.76,0,0,0,0.008, ,0,0,0,0,0, ,-38.2,303.1,952.6,-0.2,-0.5,-1.8,25,-39.1955,302.994,953.254,-0.315061,-0.500765,-1.72725,
2026_07_06_16_10_48.505,3.854,29.4,0,0.76,0,0,0,0.008, ,0,0,0,0,0, ,-37.9,302.7,952.7,-0.1,-0.5,-1.7,25,-39.1257,302.989,953.217,-0.305003,-0.500718,-1.72864,
2026_07_06_16_10_48.525,3.854,29.4,0,0.759,0,0,0,0.008, ,0,0,0,0,0, ,-39.6,303.5,953.3,-0.2,-0.5,-1.7,25,-39.1028,302.995,953.204,-0.295557,-0.500674,-1.7269,
2026_07_06_16_10_48.545,3.854,29.5,0,0.76,0,0,0,0.009, ,0,0,0,0,0, ,-39.1,301.5,953.4,-0.1,-0.5,-1.7,25,-39.1178,302.965,953.213,-0.286687,-0.500633,-1.72526,
2026_07_06_16_10_48.565,3.854,29.5,0,0.76,0,0,0,0.008, ,0,0,0,0,0, ,-39.7,302,953.7,-0.3,-0.5,-1.8,25,-39.135,302.891,953.233,-0.281405,-0.500595,-1.72676,
2026_07_06_16_10_48.585,3.854,29.5,0,0.758,0,0,0,0.008, ,0,0,0,0,0, ,-38.6,301.7,953.2,-0.3,-0.5,-1.7,25,-39.1359,302.828,953.246,-0.282538,-0.500558,-1.72818,
2026_07_06_16_10_48.605,3.854,29.4,0,0.758,0,0,0,0.008, ,0,0,0,0,0, ,-39.6,300.6,953.9,-0.4,-0.5,-1.7,25,-39.1337,302.725,953.265,-0.286649,-0.500524,-1.72646,
2026_07_06_16_10_48.624,3.854,29.4,0,0.76,0,0,0,0.009, ,0,0,0,0,0, ,-39.4,303.4,953.1,-0.4,-0.5,-1.6,25,-39.1561,302.681,953.279,-0.293556,-0.500492,-1.7218,
2026_07_06_16_10_48.645,3.854,29.5,0,0.76,0,0,0,0.009, ,0,0,0,0,0, ,-38.6,302.4,953.2,-0.4,-0.5,-1.7,25,-39.1466,302.695,953.271,-0.300043,-0.500462,-1.71743,
2026_07_06_16_10_48.664,3.854,29.4,0,0.76,0,0,0,0.008, ,0,0,0,0,0, ,-39.7,303.7,953.4,-0.4,-0.5,-1.8,25,-39.1468,302.716,953.273,-0.306134,-0.500434,-1.71941,
2026_07_06_16_10_48.684,3.854,29.5,0,0.76,0,0,0,0.009, ,0,0,0,0,0, ,-38.5,302.3,954.1,-0.5,-0.6,-1.7,25,-39.1439,302.734,953.302,-0.314901,-0.503455,-1.72128,
2026_07_06_16_10_48.703,3.854,29.6,0,0.76,0,0,0,0.008, ,0,0,0,0,0, ,-39,303.2,953.4,-0.4,-0.5,-1.7,25,-39.1199,302.735,953.329,-0.323133,-0.506291,-1.71998,
2026_07_06_16_10_48.723,3.854,29.6,0,0.76,0,0,0,0.007, ,0,0,0,0,0, ,-38.5,303.3,953.9,-0.4,-0.5,-1.8,25,-39.0974,302.766,953.349,-0.327817,-0.505908,-1.72181,
2026_07_06_16_10_48.743,3.854,29.5,0,0.76,0,0,0,0.007, ,0,0,0,0,0, ,-38,302.9,953.9,-0.3,-0.5,-1.7,25,-39.0457,302.786,953.383,-0.329169,-0.505548,-1.72353,
2026_07_06_16_10_48.762,3.854,29.6,0,0.762,0,0,0,0.008, ,0,0,0,0,0, ,-39.5,303.4,953.6,-0.3,-0.5,-1.8,25,-39.0277,302.808,953.405,-0.327392,-0.50521,-1.72514,
2026_07_06_16_10_48.782,3.854,29.5,0,0.76,0,0,0,0.008, ,0,0,0,0,0, ,-39.6,303.7,953.3,-0.3,-0.5,-1.7,25,-39.0595,302.854,953.408,-0.325722,-0.504892,-1.72666,
2026_07_06_16_10_48.802,3.854,29.6,0,0.76,0,0,0,0.008, ,0,0,0,0,0, ,-38.8,302.6,953.4,-0.2,-0.5,-1.7,25,-39.0681,302.872,953.404,-0.321108,-0.504594,-1.72503,
2026_07_06_16_10_48.822,3.854,29.5,0,0.758,0,0,0,0.008, ,0,0,0,0,0, ,-38.3,302.4,953.4,-0.2,-0.5,-1.7,25,-39.0365,302.849,953.404,-0.313728,-0.504314,-1.72351,
2026_07_06_16_10_48.848,3.854,29.6,0,0.759,0,0,0,0.008, ,0,0,0,0,0, ,-38.4,302.3,952.1,-0.3,-0.5,-1.7,25,-38.9947,302.819,953.364,-0.309845,-0.504051,-1.72207,
2026_07_06_16_10_48.862,3.854,29.6,0,0.76,0,0,0,0.008, ,0,0,0,0,0, ,-38.8,302.4,953.7,-0.3,-0.5,-1.6,25,-38.9706,302.79,953.336,-0.309245,-0.503804,-1.71768,
2026_07_06_16_10_48.882,3.854,29.6,0,0.76,0,0,0,0.008, ,0,0,0,0,0, ,-40.5,302,953.4,-0.3,-0.5,-1.7,25,-39.012,302.754,953.349,-0.308681,-0.503573,-1.71356,
2026_07_06_16_10_48.901,3.854,29.6,0,0.761,0,0,0,0.008, ,0,0,0,0,0, ,-39,302.1,952.1,-0.2,-0.5,-1.8,25,-39.057,302.711,953.312,-0.305106,-0.503355,-1.71578,
2026_07_06_16_10_48.920,3.854,29.6,0,0.759,0,0,0,0.008, ,0,0,0,0,0, ,-39,303.3,952.1,-0.3,-0.5,-1.7,25,-39.0535,302.711,953.238,-0.301748,-0.50315,-1.71786,
2026_07_06_16_10_48.941,3.854,29.6,0,0.759,0,0,0,0.008, ,0,0,0,0,0, ,-39.4,303.1,953,-0.4,-0.5,-1.7,25,-39.0625,302.74,953.197,-0.304688,-0.502958,-1.71677,
2026_07_06_16_10_48.960,3.854,29.7,0,0.76,0,0,0,0.008, ,0,0,0,0,0, ,-39.7,301.3,953.3,-0.5,-0.5,-1.8,25,-39.0922,302.707,953.194,-0.313543,-0.502778,-1.7188,
2026_07_06_16_10_48.980,3.854,29.6,0,0.76,0,0,0,0.007, ,0,0,0,0,0, ,-39.5,302.1,953.1,-0.5,-0.6,-1.8,25,-39.1231,302.646,953.194,-0.324905,-0.505656,-1.72375,
2026_07_06_16_10_49.000,3.854,29.7,0,0.76,0,0,0,0.008, ,0,0,0,0,0, ,-40.4,301.5,953.6,-0.5,-0.5,-1.7,25,-39.1735,302.594,953.204,-0.335575,-0.508358,-1.72535,
2026_07_06_16_10_49.020,3.854,29.6,0,0.759,0,0,0,0.007, ,0,0,0,0,0, ,-39.1,302.1,953.2,-0.2,-0.5,-1.7,25,-39.2086,302.546,953.216,-0.336454,-0.507849,-1.7238,
2026_07_06_16_10_49.039,3.854,29.7,0,0.761,0,0,0,0.008, ,0,0,0,0,0, ,-40.5,301.6,952.8,-0.3,-0.5,-1.7,25,-39.2447,302.504,953.202,-0.331186,-0.50737,-1.72235,
2026_07_06_16_10_49.059,3.854,29.6,0,0.76,0,0,0,0.007, ,0,0,0,0,0, ,-40.2,301.6,953.2,-0.4,-0.5,-1.6,25,-39.312,302.449,953.19,-0.332332,-0.506921,-1.71794,
2026_07_06_16_10_49.079,3.854,29.7,0,0.759,0,0,0,0.008, ,0,0,0,0,0, ,-38.3,302,953,-0.4,-0.5,-1.8,25,-39.3082,302.409,953.185,-0.336456,-0.506499,-1.71685,
2026_07_06_16_10_49.099,3.854,29.7,0,0.76,0,0,0,0.007, ,0,0,0,0,0, ,-38.9,303.7,952.8,-0.4,-0.5,-1.7,25,-39.2651,302.436,953.167,-0.340328,-0.506103,-1.71887,
2026_07_06_16_10_49.119,3.854,29.7,0,0.76,0,0,0,0.007, ,0,0,0,0,0, ,-39.9,303.8,953.8,-0.5,-0.5,-1.7,25,-39.2733,302.516,953.175,-0.347011,-0.505731,-1.71772,
2026_07_06_16_10_49.138,3.854,29.7,0,0.761,0,0,0,0.007, ,0,0,0,0,0, ,-38.5,302.8,951.7,-0.4,-0.6,-1.8,25,-39.2688,302.564,953.149,-0.353287,-0.508429,-1.71969,
2026_07_06_16_10_49.158,3.854,29.6,0,0.76,0,0,0,0.007, ,0,0,0,0,0, ,-38.8,302.8,953.7,-0.4,-0.5,-1.8,25,-39.2311,302.578,953.122,-0.356134,-0.510962,-1.72458,
2026_07_06_16_10_49.178,3.854,29.7,0,0.759,0,0,0,0.008, ,0,0,0,0,0, ,-38.6,302.6,953.7,-0.4,-0.5,-1.7,25,-39.1988,302.586,953.157,-0.358807,-0.510294,-1.72613,
2026_07_06_16_10_49.198,3.854,29.7,0,0.76,0,0,0,0.008, ,0,0,0,0,0, ,-39.6,304,953.8,-0.4,-0.5,-1.6,25,-39.1927,302.629,953.193,-0.361317,-0.509667,-1.72149,
2026_07_06_16_10_49.217,3.854,29.7,0,0.759,0,0,0,0.008, ,0,0,0,0,0, ,-39.5,302.9,954.8,-0.3,-0.5,-1.7,25,-39.2145,302.679,953.261,-0.360627,-0.509078,-1.71713,
2026_07_06_16_10_49.237,3.854,29.8,0,0.759,0,0,0,0.008, ,0,0,0,0,0, ,-39.5,303.9,953.2,-0.1,-0.5,-1.7,25,-39.2319,302.723,953.306,-0.350839,-0.508525,-1.71609,
2026_07_06_16_10_49.257,3.854,29.8,0,0.759,0,0,0,0.007, ,0,0,0,0,0, ,-39.9,302.8,953.4,-0.2,-0.5,-1.7,25,-39.2604,302.761,953.305,-0.3386,-0.508005,-1.71511,
2026_07_06_16_10_49.277,3.854,29.8,0,0.76,0,0,0,0.007, ,0,0,0,0,0, ,-40.6,303.5,952.3,-0.3,-0.5,-1.8,25,-39.3207,302.785,953.278,-0.333201,-0.507517,-1.71724,
2026_07_06_16_10_49.299,3.854,29.8,0,0.76,0,0,0,0.007, ,0,0,0,0,0, ,-40.1,301.8,952.5,-0.2,-0.5,-1.8,25,-39.3835,302.777,953.224,-0.328131,-0.507059,-1.72228,
2026_07_06_16_10_49.316,3.854,29.8,0,0.759,0,0,0,0.007, ,0,0,0,0,0, ,-38.6,302.8,952.2,-0.3,-0.5,-1.8,25,-39.3814,302.748,953.171,-0.32337,-0.506629,-1.72702,
2026_07_06_16_10_49.336,3.854,29.7,0,0.76,0,0,0,0.007, ,0,0,0,0,0, ,-39.3,301.7,953.8,-0.3,-0.5,-1.7,25,-39.3551,302.717,953.161,-0.321946,-0.506225,-1.72842,
2026_07_06_16_10_49.356,3.854,29.7,0,0.76,0,0,0,0.008, ,0,0,0,0,0, ,-38.6,302.1,952.6,-0.4,-0.5,-1.7,25,-39.3304,302.668,953.163,-0.323656,-0.505846,-1.72668,
2026_07_06_16_10_49.376,3.854,29.8,0,0.761,0,0,0,0.008, ,0,0,0,0,0, ,-39.1,302.9,953.9,-0.3,-0.5,-1.7,25,-39.3012,302.657,953.168,-0.325261,-0.50549,-1.72506,
2026_07_06_16_10_49.395,3.854,29.7,0,0.76,0,0,0,0.007, ,0,0,0,0,0, ,-39.9,301.3,952.7,-0.3,-0.5,-1.6,25,-39.3133,302.623,953.176,-0.323722,-0.505155,-1.72048,
2026_07_06_16_10_49.416,3.854,29.8,0,0.759,0,0,0,0.008, ,0,0,0,0,0, ,-40,303.2,951.9,-0.4,-0.5,-1.7,25,-39.3521,302.601,953.123,-0.325323,-0.504841,-1.71619,
2026_07_06_16_10_49.435,3.854,29.8,0,0.76,0,0,0,0.007, ,0,0,0,0,0, ,-38.8,302.2,952.8,-0.4,-0.5,-1.8,25,-39.355,302.607,953.076,-0.329874,-0.504546,-1.71825,
2026_07_06_16_10_49.455,3.854,29.8,0,0.76,0,0,0,0.007, ,0,0,0,0,0, ,-38.3,302.6,953.1,-0.4,-0.4,-1.7,25,-39.3059,302.594,953.068,-0.334147,-0.501222,-1.72018,
2026_07_06_16_10_49.475,3.854,29.7,0,0.76,0,0,0,0.007, ,0,0,0,0,0, ,-38,303.4,952.2,-0.4,-0.4,-1.7,25,-39.2355,302.619,953.043,-0.33816,-0.495054,-1.71895,
2026_07_06_16_10_49.494,3.854,29.8,0,0.759,0,0,0,0.008, ,0,0,0,0,0, ,-39.5,303.2,954.4,-0.4,-0.5,-1.8,25,-39.2059,302.66,953.058,-0.341928,-0.492308,-1.72085,
2026_07_06_16_10_49.515,3.854,29.8,0,0.758,0,0,0,0.007, ,0,0,0,0,0, ,-39.7,302.7,953.3,-0.3,-0.6,-1.7,25,-39.2299,302.678,953.107,-0.34242,-0.495824,-1.72262,
2026_07_06_16_10_49.534,3.854,29.8,0,0.76,0,0,0,0.007, ,0,0,0,0,0, ,-38.6,303.7,952.7,-0.3,-0.5,-1.7,25,-39.2251,302.71,953.1,-0.339835,-0.499125,-1.72124,
2026_07_06_16_10_49.554,3.854,29.8,0,0.76,0,0,0,0.007, ,0,0,0,0,0, ,-39.1,302,954.5,-0.2,-0.6,-1.7,25,-39.2022,302.718,953.131,-0.334361,-0.502225,-1.71995,
2026_07_06_16_10_49.574,3.854,29.8,0,0.76,0,0,0,0.007, ,0,0,0,0,0, ,-39.6,302.3,952.8,-0.2,-0.5,-1.7,25,-39.2112,302.684,953.162,-0.326173,-0.505137,-1.71873,
2026_07_06_16_10_49.600,3.854,29.8,0,0.759,0,0,0,0.007, ,0,0,0,0,0, ,-40.5,302.8,952.2,-0.2,-0.5,-1.7,25,-39.2623,302.676,953.122,-0.318484,-0.504824,-1.71759,
2026_07_06_16_10_49.613,3.854,29.8,0,0.76,0,0,0,0.007, ,0,0,0,0,0, ,-39.5,302.1,953.2,-0.2,-0.6,-1.7,25,-39.3073,302.662,953.096,-0.311264,-0.507577,-1.71652,
2026_07_06_16_10_49.632,3.854,29.9,0,0.759,0,0,0,0.007, ,0,0,0,0,0, ,-39.5,302.7,953.1,-0.2,-0.5,-1.6,25,-39.319,302.646,953.099,-0.304484,-0.510162,-1.71247,
2026_07_06_16_10_49.652,3.854,29.9,0,0.759,0,0,0,0.006, ,0,0,0,0,0, ,-39.1,301.5,953.8,-0.3,-0.5,-1.7,25,-39.3179,302.613,953.121,-0.301164,-0.509543,-1.70866,
2026_07_06_16_10_49.673,3.854,29.9,0,0.759,0,0,0,0.006, ,0,0,0,0,0, ,-39.6,302,953.2,-0.3,-0.5,-1.7,25,-39.3198,302.56,953.144,-0.301093,-0.508961,-1.70813,
2026_07_06_16_10_49.692,3.854,29.9,0,0.759,0,0,0,0.006, ,0,0,0,0,0, ,-40.7,303.7,953,-0.3,-0.5,-1.7,25,-39.3704,302.578,953.141,-0.301026,-0.508415,-1.70764,
2026_07_06_16_10_49.712,3.854,29.9,0,0.76,0,0,0,0.006, ,0,0,0,0,0, ,-38,303.3,952.7,-0.2,-0.5,-1.7,25,-39.3692,302.634,953.123,-0.297917,-0.507902,-1.70717,
2026_07_06_16_10_49.732,3.854,29.9,0,0.76,0,0,0,0.006, ,0,0,0,0,0, ,-38,303.3,952.8,-0.2,-0.5,-1.7,25,-39.2857,302.674,953.101,-0.29195,-0.507421,-1.70673,
2026_07_06_16_10_49.752,3.854,29.9,0,0.76,0,0,0,0.006, ,0,0,0,0,0, ,-38.9,303.8,954.3,-0.2,-0.5,-1.7,25,-39.2348,302.728,953.128,-0.286347,-0.506968,-1.70632,
2026_07_06_16_10_49.771,3.854,29.9,0,0.759,0,0,0,0.006, ,0,0,0,0,0, ,-39.6,303.4,953.4,-0.2,-0.5,-1.7,25,-39.2357,302.781,953.172,-0.281085,-0.506544,-1.70594,
2026_07_06_16_10_49.791,3.854,29.8,0,0.758,0,0,0,0.006, ,0,0,0,0,0, ,-39.3,303.9,952.8,-0.1,-0.5,-1.7,25,-39.2488,302.834,953.168,-0.273097,-0.506145,-1.70558,
2026_07_06_16_10_49.811,3.854,29.8,0,0.759,0,0,0,0.007, ,0,0,0,0,0, ,-39.7,301.8,954.3,-0.1,-0.5,-1.7,25,-39.2641,302.835,953.191,-0.262549,-0.505771,-1.70524,
2026_07_06_16_10_49.830,3.854,29.9,0,0.761,0,0,0,0.007, ,0,0,0,0,0, ,-40.7,302,952.2,-0.2,-0.5,-1.6,25,-39.3211,302.778,953.195,-0.255691,-0.505419,-1.70187,
2026_07_06_16_10_49.850,3.854,30,0,0.76,0,0,0,0.007, ,0,0,0,0,0, ,-40.2,302.4,952,-0.3,-0.5,-1.8,25,-39.3899,302.743,953.128,-0.255344,-0.505089,-1.70176,
2026_07_06_16_10_49.870,3.854,29.9,0,0.758,0,0,0,0.006, ,0,0,0,0,0, ,-38.2,301,953.4,-0.4,-0.5,-1.8,25,-39.3783,302.679,953.102,-0.261112,-0.504779,-1.70774,
2026_07_06_16_10_49.897,3.854,29.9,0,0.76,0,0,0,0, ,0,0,0,0,0, ,-39.7,300.7,952.8,-0.4,-0.5,-1.8,25,-39.3522,302.568,953.102,-0.269575,-0.504487,-1.71337,
2026_07_06_16_10_49.910,3.854,29.8,0,0.759,0,0,0,0, ,0,0,0,0,0, ,-39,302.7,952.5,-0.4,-0.6,-1.7,25,-39.3521,302.515,953.074,-0.277523,-0.507261,-1.7156,
2026_07_06_16_10_49.929,3.854,30,0,0.761,0,0,0,0.001, ,0,0,0,0,0, ,-39.6,302.2,951.9,-0.4,-0.5,-1.7,25,-39.3489,302.511,953.021,-0.284987,-0.509865,-1.71465,
2026_07_06_16_10_49.949,3.854,30,0,0.761,0,0,0,0, ,0,0,0,0,0, ,-39.5,302.7,953.6,-0.5,-0.5,-1.7,25,-39.3612,302.507,953.004,-0.295042,-0.509264,-1.71375,
2026_07_06_16_10_49.969,3.854,30,0,0.758,0,0,0,0, ,0,0,0,0,0, ,-38,302.2,953.8,-0.4,-0.5,-1.7,25,-39.3239,302.504,953.047,-0.304485,-0.5087,-1.71292,
2026_07_06_16_10_49.989,3.854,30,0,0.76,0,0,0,0, ,0,0,0,0,0, ,-39.4,301.6,952.7,-0.5,-0.5,-1.6,25,-39.2859,302.467,953.059,-0.313352,-0.508169,-1.70908,
2026_07_06_16_10_50.008,3.854,29.8,0,0.759,0,0,0,0, ,0,0,0,0,0, ,-39.3,303.2,953.2,-0.4,-0.5,-1.7,25,-39.2898,302.463,953.053,-0.321679,-0.507672,-1.70548,
2026_07_06_16_10_50.028,3.854,29.9,0,0.759,0,0,0,0.001, ,0,0,0,0,0, ,-39,304.5,952.6,-0.4,-0.5,-1.6,25,-39.2813,302.547,953.043,-0.326452,-0.507204,-1.7021,
2026_07_06_16_10_50.050,3.854,30,0,0.76,0,0,0,0, ,0,0,0,0,0, ,-38.2,303.2,953.7,-0.2,-0.6,-1.7,25,-39.2398,302.627,953.05,-0.32484,-0.509812,-1.69893,
2026_07_06_16_10_50.068,3.854,30,0,0.759,0,0,0,0, ,0,0,0,0,0, ,-38.8,303.9,953.4,-0.2,-0.6,-1.7,25,-39.1947,302.683,953.08,-0.317233,-0.515308,-1.69899,
2026_07_06_16_10_50.088,3.854,29.9,0,0.759,0,0,0,0, ,0,0,0,0,0, ,-39.9,303.2,955.3,-0.3,-0.6,-1.7,25,-39.2042,302.736,953.158,-0.313136,-0.520469,-1.69905,
2026_07_06_16_10_50.108,3.854,29.9,0,0.758,0,0,0,0, ,0,0,0,0,0, ,-39.7,302.4,953.8,-0.2,-0.5,-1.7,25,-39.2405,302.74,953.242,-0.309288,-0.522268,-1.69911,
2026_07_06_16_10_50.128,3.854,30,0,0.76,0,0,0,0, ,0,0,0,0,0, ,-38.5,302.4,953.3,-0.2,-0.4,-1.7,25,-39.2319,302.719,953.261,-0.302628,-0.517864,-1.69917,
2026_07_06_16_10_50.147,3.854,29.9,0,0.76,0,0,0,0, ,0,0,0,0,0, ,-39.1,302.6,953.2,-0.2,-0.5,-1.7,25,-39.2056,302.706,953.261,-0.296375,-0.513729,-1.69922,
2026_07_06_16_10_50.167,3.854,30,0,0.76,0,0,0,0, ,0,0,0,0,0, ,-40.1,302.7,952.7,-0.3,-0.5,-1.7,25,-39.2296,302.702,953.242,-0.293549,-0.512892,-1.69926,
2026_07_06_16_10_50.186,3.854,30,0,0.759,0,0,0,0, ,0,0,0,0,0, ,-39.9,302.2,952,-0.3,-0.5,-1.7,25,-39.2766,302.687,953.187,-0.293942,-0.512107,-1.69931,
2026_07_06_16_10_50.207,3.854,30,0,0.76,0,0,0,0, ,0,0,0,0,0, ,-39.3,301.6,952.7,-0.2,-0.5,-1.7,25,-39.2963,302.639,953.136,-0.291264,-0.511369,-1.69935,
2026_07_06_16_10_50.226,3.854,29.9,0,0.76,0,0,0,0, ,0,0,0,0,0, ,-39.3,302.6,952.2,-0.3,-0.5,-1.8,25,-39.2965,302.606,953.094,-0.28875,-0.510676,-1.70244,
2026_07_06_16_10_50.246,3.854,29.9,0,0.76,0,0,0,0, ,0,0,0,0,0, ,-38.6,301.5,951.7,-0.4,-0.5,-1.8,25,-39.2754,302.572,953.025,-0.292482,-0.510026,-1.70838,
2026_07_06_16_10_50.266,3.854,30,0,0.762,0,0,0,0, ,0,0,0,0,0, ,-38.8,301.2,953.8,-0.5,-0.5,-1.7,25,-39.2403,302.498,953.008,-0.302081,-0.509415,-1.71092,
2026_07_06_16_10_50.287,3.854,29.9,0,0.76,0,0,0,0, ,0,0,0,0,0, ,-39.3,302.4,952.8,-0.5,-0.6,-1.7,25,-39.2287,302.455,953.026,-0.314141,-0.511888,-1.71025,
2026_07_06_16_10_50.305,3.854,29.9,0,0.761,0,0,0,0, ,0,0,0,0,0, ,-39.4,302.3,953.6,-0.5,-0.5,-1.7,25,-39.2361,302.449,953.036,-0.325467,-0.51421,-1.70963,
2026_07_06_16_10_50.326,3.854,29.9,0,0.761,0,0,0,0, ,0,0,0,0,0, ,-39.6,301.8,952.8,-0.2,-0.5,-1.7,25,-39.2522,302.425,953.046,-0.326962,-0.513344,-1.70904,
2026_07_06_16_10_50.345,3.854,29.9,0,0.76,0,0,0,0, ,0,0,0,0,0, ,-39.1,300.4,951.6,-0.2,-0.4,-1.7,25,-39.2582,302.344,952.995,-0.319225,-0.509484,-1.70849,
2026_07_06_16_10_50.365,3.854,29.9,0,0.76,0,0,0,0, ,0,0,0,0,0, ,-39.1,301.3,953.4,-0.2,-0.5,-1.6,25,-39.2485,302.253,952.965,-0.31196,-0.505859,-1.70493,
2026_07_06_16_10_50.386,3.854,29.9,0,0.76,0,0,0,0, ,0,0,0,0,0, ,-40,303.8,953.3,-0.3,-0.6,-1.7,25,-39.2669,302.271,952.988,-0.308184,-0.508549,-1.70158,
2026_07_06_16_10_50.404,3.854,29.9,0,0.76,0,0,0,0, ,0,0,0,0,0, ,-39.3,303.7,952.2,-0.4,-0.5,-1.8,25,-39.2902,302.361,952.974,-0.310733,-0.511075,-1.70453,
2026_07_06_16_10_50.424,3.854,29.9,0,0.76,0,0,0,0, ,0,0,0,0,0, ,-39.3,303.1,954.1,-0.4,-0.5,-1.6,25,-39.2908,302.424,952.984,-0.316172,-0.5104,-1.70425,
2026_07_06_16_10_50.444,3.854,29.9,0,0.759,0,0,0,0.001, ,0,0,0,0,0, ,-40.7,302.3,953.6,-0.3,-0.5,-1.7,25,-39.3341,302.441,953.037,-0.318234,-0.509767,-1.70095,
2026_07_06_16_10_50.464,3.854,29.9,0,0.759,0,0,0,0.001, ,0,0,0,0,0, ,-39,302.3,953.3,-0.4,-0.5,-1.7,25,-39.3655,302.433,953.062,-0.320169,-0.509171,-1.70089,
2026_07_06_16_10_50.484,3.854,29.9,0,0.759,0,0,0,0.001, ,0,0,0,0,0, ,-38.6,303.1,953,-0.3,-0.5,-1.7,25,-39.331,302.449,953.068,-0.321987,-0.508613,-1.70084,
2026_07_06_16_10_50.503,3.854,30,0,0.761,0,0,0,0.001, ,0,0,0,0,0, ,-39.7,301.6,952.6,-0.4,-0.5,-1.8,25,-39.32,302.443,953.051,-0.323694,-0.508088,-1.70383,
2026_07_06_16_10_50.528,3.854,29.9,0,0.761,0,0,0,0, ,0,0,0,0,0, ,-38.9,303.3,952.5,-0.4,-0.5,-1.7,25,-39.3188,302.443,953.021,-0.328344,-0.507595,-1.70665,
2026_07_06_16_10_50.543,3.854,29.9,0,0.76,0,0,0,0.001, ,0,0,0,0,0, ,-38.9,303.5,953.4,-0.3,-0.5,-1.7,25,-39.2933,302.502,953.016,-0.329664,-0.507132,-1.70624,
2026_07_06_16_10_50.563,3.854,29.8,0,0.758,0,0,0,0.001, ,0,0,0,0,0, ,-39.9,302.6,952.1,-0.2,-0.5,-1.6,25,-39.2998,302.535,953,-0.324809,-0.506697,-1.70281,
2026_07_06_16_10_50.583,3.854,30,0,0.76,0,0,0,0.001, ,0,0,0,0,0, ,-38.9,303.8,952.5,-0.2,-0.5,-1.8,25,-39.3059,302.575,952.958,-0.317204,-0.506289,-1.70264,
2026_07_06_16_10_50.603,3.854,29.9,0,0.76,0,0,0,0, ,0,0,0,0,0, ,-38.8,303.8,951.6,-0.3,-0.5,-1.7,25,-39.2781,302.65,952.902,-0.313108,-0.505906,-1.70553,
2026_07_06_16_10_50.622,3.854,29.9,0,0.76,0,0,0,0.001, ,0,0,0,0,0, ,-39,302.9,954.1,-0.2,-0.5,-1.7,25,-39.2551,302.693,952.899,-0.309263,-0.505546,-1.70519,
2026_07_06_16_10_50.641,3.854,29.9,0,0.759,0,0,0,0.001, ,0,0,0,0,0, ,-39.1,302.2,954.3,-0.2,-0.5,-1.7,25,-39.2426,302.684,952.978,-0.302605,-0.505208,-1.70487,
2026_07_06_16_10_50.662,3.854,29.9,0,0.758,0,0,0,0.001, ,0,0,0,0,0, ,-39.5,303.2,953.7,-0.3,-0.5,-1.7,25,-39.2461,302.685,953.041,-0.299399,-0.504891,-1.70458,
2026_07_06_16_10_50.681,3.854,29.9,0,0.759,0,0,0,0.001, ,0,0,0,0,0, ,-39.5,302.7,953.7,-0.3,-0.5,-1.7,25,-39.2615,302.701,953.081,-0.299436,-0.504593,-1.7043,
2026_07_06_16_10_50.705,3.854,29.9,0,0.76,0,0,0,0.001, ,0,0,0,0,0, ,-39.6,302.4,953.9,-0.2,-0.5,-1.7,25,-39.2791,302.692,953.125,-0.296423,-0.504313,-1.70404,
2026_07_06_16_10_50.721,3.854,29.9,0,0.759,0,0,0,0.001, ,0,0,0,0,0, ,-38.8,302.4,953.3,-0.2,-0.5,-1.6,25,-39.2743,302.674,953.154,-0.290547,-0.50405,-1.70074,
2026_07_06_16_10_50.740,3.854,29.9,0,0.759,0,0,0,0.001, ,0,0,0,0,0, ,-38.3,302.1,952.1,-0.3,-0.5,-1.7,25,-39.2302,302.648,953.126,-0.288077,-0.503803,-1.69765,
2026_07_06_16_10_50.761,3.854,29.9,0,0.759,0,0,0,0.001, ,0,0,0,0,0, ,-39.4,302.3,952.5,-0.3,-0.5,-1.7,25,-39.207,302.621,953.076,-0.288803,-0.503572,-1.69779,
2026_07_06_16_10_50.781,3.854,29.9,0,0.761,0,0,0,0.001, ,0,0,0,0,0, ,-38.6,301.7,954.4,-0.3,-0.5,-1.7,25,-39.1944,302.583,953.098,-0.289485,-0.503354,-1.69793,
2026_07_06_16_10_50.800,3.854,29.9,0,0.76,0,0,0,0.001, ,0,0,0,0,0, ,-39.4,302.7,953.3,-0.4,-0.5,-1.8,25,-39.1825,302.56,953.144,-0.293173,-0.50315,-1.7011,
2026_07_06_16_10_50.819,3.854,29.9,0,0.76,0,0,0,0.001, ,0,0,0,0,0, ,-39.6,303.4,954.5,-0.3,-0.5,-1.8,25,-39.2019,302.59,953.19,-0.296636,-0.502958,-1.70713,
2026_07_06_16_10_50.839,3.854,30,0,0.759,0,0,0,0.001, ,0,0,0,0,0, ,-40.5,302.4,952.6,-0.5,-0.5,-1.6,25,-39.2536,302.609,953.212,-0.302935,-0.502777,-1.70669,
2026_07_06_16_10_50.860,3.854,30,0,0.76,0,0,0,0, ,0,0,0,0,0, ,-38.6,302.4,953.1,-0.3,-0.5,-1.7,25,-39.2716,302.596,953.19,-0.30885,-0.502608,-1.70324,
2026_07_06_16_10_50.879,3.854,29.9,0,0.759,0,0,0,0, ,0,0,0,0,0, ,-38.8,302.8,954.7,-0.3,-0.4,-1.7,25,-39.2368,302.596,953.233,-0.30831,-0.499402,-1.70304,
2026_07_06_16_10_50.899,3.854,30,0,0.759,0,0,0,0.001, ,0,0,0,0,0, ,-40.5,304.1,950.8,-0.5,-0.5,-1.7,25,-39.262,302.648,953.204,-0.313898,-0.496392,-1.70286,
2026_07_06_16_10_50.918,3.854,30,0,0.761,0,0,0,0, ,0,0,0,0,0, ,-38.6,305.1,952.6,0,-0.5,-1.6,25,-39.2795,302.767,953.112,-0.310004,-0.496612,-1.69964,
2026_07_06_16_10_50.938,3.854,29.9,0,0.761,0,0,0,0, ,0,0,0,0,0, ,-40.5,301.8,953.6,-0.1,-0.5,-1.7,25,-39.296,302.809,953.112,-0.29416,-0.496818,-1.69661,
2026_07_06_16_10_50.960,3.854,29.8,0,0.76,0,0,0,0.001, ,0,0,0,0,0, ,-39,303.2,955.5,-0.4,-0.5,-1.7,25,-39.3237,302.79,953.199,-0.291469,-0.497012,-1.69682,
2026_07_06_16_10_50.978,3.854,29.9,0,0.759,0,0,0,0.002, ,0,0,0,0,0, ,-39.6,301.2,951.4,-0.3,-0.5,-1.7,25,-39.3222,302.754,953.214,-0.295036,-0.497194,-1.69701,
2026_07_06_16_10_50.997,3.854,29.9,0,0.76,0,0,0,0.001, ,0,0,0,0,0, ,-38.5,302.2,952.8,-0.3,-0.5,-1.7,25,-39.3056,302.69,953.147,-0.295338,-0.497365,-1.69719,
2026_07_06_16_10_51.018,3.854,29.9,0,0.759,0,0,0,0.001, ,0,0,0,0,0, ,-38.2,301,952.7,-0.3,-0.6,-1.7,25,-39.2474,302.623,953.122,-0.295622,-0.500573,-1.69736,
2026_07_06_16_10_51.042,3.854,30,0,0.76,0,0,0,0.001, ,0,0,0,0,0, ,-39.9,303.1,952.8,-0.5,-0.5,-1.7,25,-39.2354,302.588,953.1,-0.301983,-0.503585,-1.69753,
2026_07_06_16_10_51.057,3.854,30,0,0.759,0,0,0,0, ,0,0,0,0,0, ,-40.5,302.1,954.3,-0.4,-0.5,-1.8,25,-39.2942,302.589,953.127,-0.311003,-0.503366,-1.70072,
2026_07_06_16_10_51.077,3.854,29.9,0,0.76,0,0,0,0, ,0,0,0,0,0, ,-39.3,304.5,953.8,-0.4,-0.5,-1.7,25,-39.3311,302.632,953.183,-0.316426,-0.503161,-1.70373,
2026_07_06_16_10_51.097,3.854,30,0,0.759,0,0,0,0.001, ,0,0,0,0,0, ,-39.1,302.7,953.7,-0.5,-0.5,-1.7,25,-39.3231,302.691,953.218,-0.324566,-0.502968,-1.7035,
2026_07_06_16_10_51.116,3.854,30,0,0.761,0,0,0,0, ,0,0,0,0,0, ,-40.2,303.9,952,-0.2,-0.5,-1.8,25,-39.343,302.728,953.195,-0.326115,-0.502787,-1.70633,
2026_07_06_16_10_51.136,3.854,30,0,0.758,0,0,0,0, ,0,0,0,0,0, ,-38.2,303.1,952,-0.2,-0.5,-1.7,25,-39.3343,302.775,953.123,-0.31843,-0.502618,-1.70899,
2026_07_06_16_10_51.155,3.854,30,0,0.759,0,0,0,0, ,0,0,0,0,0, ,-38.8,303.3,953.1,-0.1,-0.5,-1.7,25,-39.2835,302.801,953.088,-0.308167,-0.502458,-1.70845,
2026_07_06_16_10_51.175,3.854,29.9,0,0.759,0,0,0,0, ,0,0,0,0,0, ,-40.1,301.8,954.8,-0.3,-0.5,-1.8,25,-39.2936,302.786,953.14,-0.301575,-0.502308,-1.71098,
2026_07_06_16_10_51.196,3.854,29.9,0,0.76,0,0,0,0.001, ,0,0,0,0,0, ,-39.7,302.7,951.6,-0.2,-0.5,-1.7,25,-39.3306,302.753,953.144,-0.298432,-0.502168,-1.71336,
2026_07_06_16_10_51.215,3.854,30,0,0.76,0,0,0,0.001, ,0,0,0,0,0, ,-40.1,300.6,953.6,-0.2,-0.4,-1.8,25,-39.3653,302.686,953.111,-0.292434,-0.498989,-1.71559,
2026_07_06_16_10_51.235,3.854,29.9,0,0.76,0,0,0,0, ,0,0,0,0,0, ,-37.8,303.3,951.6,-0.3,-0.5,-1.8,25,-39.34,302.641,953.08,-0.289848,-0.496003,-1.72073,
2026_07_06_16_10_51.254,3.854,29.9,0,0.76,0,0,0,0.001, ,0,0,0,0,0, ,-37.9,301.6,953.6,-0.2,-0.5,-1.8,25,-39.2492,302.63,953.05,-0.28742,-0.496247,-1.72556,
2026_07_06_16_10_51.274,3.854,29.9,0,0.761,0,0,0,0.001, ,0,0,0,0,0, ,-39,301.3,952.3,-0.3,-0.5,-1.8,25,-39.2005,302.558,953.044,-0.28514,-0.496476,-1.7301,
2026_07_06_16_10_51.294,3.854,29.9,0,0.759,0,0,0,0.001, ,0,0,0,0,0, ,-39,302.9,953.3,-0.3,-0.5,-1.7,25,-39.1882,302.53,953.029,-0.286045,-0.49669,-1.73131,
2026_07_06_16_10_51.314,3.854,29.9,0,0.761,0,0,0,0.001, ,0,0,0,0,0, ,-38.9,302.8,954.2,-0.4,-0.6,-1.7,25,-39.1737,302.549,953.073,-0.289943,-0.499939,-1.7294,
2026_07_06_16_10_51.337,3.854,30,0,0.759,0,0,0,0.001, ,0,0,0,0,0, ,-39.7,303.3,952.7,-0.4,-0.5,-1.8,25,-39.1814,302.58,953.096,-0.296649,-0.50299,-1.73066,
2026_07_06_16_10_51.355,3.854,30,0,0.759,0,0,0,0, ,0,0,0,0,0, ,-38.8,302.7,953.4,-0.3,-0.5,-1.7,25,-39.1856,302.605,953.093,-0.2999,-0.502807,-1.73184,
2026_07_06_16_10_51.373,3.854,29.8,0,0.759,0,0,0,0, ,0,0,0,0,0, ,-38.5,302.9,952.7,-0.4,-0.5,-1.8,25,-39.153,302.617,953.091,-0.302953,-0.502636,-1.73294,
2026_07_06_16_10_51.393,3.854,29.9,0,0.759,0,0,0,0.002, ,0,0,0,0,0, ,-39.9,302.8,952.2,-0.3,-0.4,-1.7,25,-39.1558,302.631,953.052,-0.30582,-0.499429,-1.73398,
2026_07_06_16_10_51.413,3.854,30,0,0.759,0,0,0,0.001, ,0,0,0,0,0, ,-39.1,302.4,952.6,-0.4,-0.5,-1.7,25,-39.1768,302.63,953.012,-0.308512,-0.496417,-1.73191,
2026_07_06_16_10_51.433,3.854,30,0,0.76,0,0,0,0, ,0,0,0,0,0, ,-39,302.7,954.4,-0.4,-0.5,-1.7,25,-39.1691,302.625,953.042,-0.314087,-0.496635,-1.72997,
2026_07_06_16_10_51.453,3.854,29.9,0,0.759,0,0,0,0, ,0,0,0,0,0, ,-39.5,302.1,954.2,-0.4,-0.5,-1.7,25,-39.174,302.611,953.118,-0.319323,-0.49684,-1.72814,
2026_07_06_16_10_51.472,3.854,30,0,0.759,0,0,0,0.001, ,0,0,0,0,0, ,-39.7,304.6,953,-0.3,-0.5,-1.8,25,-39.2,302.656,953.148,-0.321192,-0.497033,-1.72947,
2026_07_06_16_10_51.491,3.854,29.9,0,0.759,0,0,0,0, ,0,0,0,0,0, ,-39.9,302.4,952.7,-0.3,-0.5,-1.7,25,-39.2365,302.707,953.13,-0.319901,-0.497214,-1.73072,
2026_07_06_16_10_51.512,3.854,30,0,0.759,0,0,0,0.001, ,0,0,0,0,0, ,-38.5,304.3,953.2,-0.2,-0.5,-1.7,25,-39.2343,302.747,953.119,-0.315641,-0.497383,-1.72885,
2026_07_06_16_10_51.532,3.854,29.9,0,0.759,0,0,0,0, ,0,0,0,0,0, ,-37.9,302.2,954.1,-0.3,-0.4,-1.8,25,-39.1713,302.777,953.151,-0.311641,-0.494496,-1.73014,
2026_07_06_16_10_51.551,3.854,30,0,0.759,0,0,0,0.001, ,0,0,0,0,0, ,-38.8,302.1,953.2,-0.1,-0.5,-1.7,25,-39.1212,302.739,953.181,-0.304838,-0.491784,-1.73135,
2026_07_06_16_10_51.571,3.854,30,0,0.76,0,0,0,0, ,0,0,0,0,0, ,-39.9,302.3,953.6,-0.2,-0.5,-1.7,25,-39.1352,302.706,953.195,-0.295403,-0.492285,-1.72944,
2026_07_06_16_10_51.595,3.854,29.9,0,0.759,0,0,0,0, ,0,0,0,0,0, ,-38.8,303.8,953.2,-0.3,-0.5,-1.7,25,-39.1483,302.727,953.207,-0.292636,-0.492755,-1.72765,
2026_07_06_16_10_51.611,3.854,29.9,0,0.759,0,0,0,0.001, ,0,0,0,0,0, ,-39.9,303.8,952.3,-0.3,-0.5,-1.8,25,-39.1606,302.793,953.179,-0.293085,-0.493197,-1.72901,
2026_07_06_16_10_51.630,3.854,29.8,0,0.759,0,0,0,0.001, ,0,0,0,0,0, ,-38.5,304.5,952.8,-0.3,-0.5,-1.6,25,-39.163,302.875,953.141,-0.293506,-0.493611,-1.72724,
2026_07_06_16_10_51.650,3.854,29.9,0,0.76,0,0,0,0.002, ,0,0,0,0,0, ,-39.4,302.6,953.4,-0.3,-0.6,-1.8,25,-39.15,302.916,953.139,-0.293902,-0.497047,-1.72558,
2026_07_06_16_10_51.670,3.854,29.9,0,0.76,0,0,0,0.001, ,0,0,0,0,0, ,-37.4,302.1,954.1,-0.3,-0.5,-1.7,25,-39.1043,302.882,953.176,-0.294273,-0.500274,-1.72707,
2026_07_06_16_10_51.690,3.854,29.9,0,0.76,0,0,0,0.001, ,0,0,0,0,0, ,-39,303.8,952.7,-0.2,-0.5,-1.7,25,-39.0492,302.886,953.189,-0.291575,-0.500258,-1.72542,
2026_07_06_16_10_51.710,3.854,29.9,0,0.759,0,0,0,0.001, ,0,0,0,0,0, ,-38.2,304.1,954.7,-0.2,-0.4,-1.7,25,-39.0218,302.951,953.221,-0.285995,-0.497195,-1.72387,
2026_07_06_16_10_51.730,3.854,29.8,0,0.759,0,0,0,0.001, ,0,0,0,0,0, ,-39.1,301.8,952.8,-0.2,-0.4,-1.6,25,-38.9991,302.951,953.253,-0.280755,-0.491272,-1.71937,
2026_07_06_16_10_51.749,3.854,29.9,0,0.759,0,0,0,0.002, ,0,0,0,0,0, ,-38.9,302,953.6,-0.1,-0.5,-1.7,25,-38.9992,302.887,953.25,-0.272787,-0.488757,-1.71514,
2026_07_06_16_10_51.773,3.854,29.9,0,0.758,0,0,0,0.001, ,0,0,0,0,0, ,-40,303.2,952.5,-0.3,-0.5,-1.7,25,-39.0267,302.869,953.237,-0.268351,-0.489442,-1.71422,
2026_07_06_16_10_51.789,3.854,29.9,0,0.759,0,0,0,0.001, ,0,0,0,0,0, ,-38.5,302.7,954.7,-0.2,-0.5,-1.6,25,-39.0403,302.874,953.26,-0.267233,-0.490086,-1.71031,
2026_07_06_16_10_51.808,3.854,29.9,0,0.759,0,0,0,0.001, ,0,0,0,0,0, ,-41,302.1,952.1,-0.3,-0.5,-1.7,25,-39.0835,302.845,953.268,-0.266183,-0.49069,-1.70663,
2026_07_06_16_10_51.828,3.854,29.9,0,0.759,0,0,0,0.001, ,0,0,0,0,0, ,-40.1,303.5,951.7,-0.3,-0.5,-1.8,25,-39.1729,302.843,953.185,-0.268244,-0.491257,-1.70927,
2026_07_06_16_10_51.848,3.854,30,0,0.76,0,0,0,0.001, ,0,0,0,0,0, ,-40.4,303.4,953.3,-0.3,-0.5,-1.8,25,-39.2385,302.88,953.143,-0.270179,-0.49179,-1.7148,
2026_07_06_16_10_51.868,3.854,30,0,0.76,0,0,0,0, ,0,0,0,0,0, ,-39.9,302.4,951.5,-0.4,-0.5,-1.7,25,-39.2941,302.881,953.098,-0.275043,-0.49229,-1.71695,
2026_07_06_16_10_51.887,3.854,29.9,0,0.759,0,0,0,0, ,0,0,0,0,0, ,-40.1,301.6,954.3,-0.4,-0.5,-1.7,25,-39.3371,302.827,953.086,-0.282658,-0.49276,-1.71591,
2026_07_06_16_10_51.907,3.854,29.9,0,0.759,0,0,0,0.001, ,0,0,0,0,0, ,-38.8,301.7,953.3,-0.5,-0.5,-1.8,25,-39.344,302.755,953.129,-0.292855,-0.493201,-1.71799,
2026_07_06_16_10_51.927,3.854,29.9,0,0.76,0,0,0,0.001, ,0,0,0,0,0, ,-39.5,302.8,953.6,-0.4,-0.5,-1.8,25,-39.3321,302.725,953.149,-0.302431,-0.493615,-1.72299,
2026_07_06_16_10_51.947,3.854,29.9,0,0.76,0,0,0,0.001, ,0,0,0,0,0, ,-39,303.5,954.5,-0.3,-0.5,-1.8,25,-39.3271,302.751,953.204,-0.30533,-0.494005,-1.72768,
2026_07_06_16_10_51.970,3.854,29.9,0,0.759,0,0,0,0.001, ,0,0,0,0,0, ,-39.3,303.3,954.5,-0.3,-0.4,-1.7,25,-39.3163,302.79,953.283,-0.305005,-0.491323,-1.72904,
2026_07_06_16_10_51.986,3.854,29.8,0,0.759,0,0,0,0.001, ,0,0,0,0,0, ,-39.4,304.6,952.6,-0.2,-0.5,-1.7,25,-39.3184,302.861,953.299,-0.301653,-0.488805,-1.72727,
2026_07_06_16_10_52.007,3.854,29.9,0,0.759,0,0,0,0.002, ,0,0,0,0,0, ,-38,303.8,953.3,-0.2,-0.5,-1.7,25,-39.2807,302.942,953.278,-0.295459,-0.489487,-1.72561,
2026_07_06_16_10_52.026,3.854,30,0,0.759,0,0,0,0.001, ,0,0,0,0,0, ,-39.5,302.8,953.2,-0.2,-0.4,-1.7,25,-39.2484,302.964,953.276,-0.289642,-0.487081,-1.72405,
2026_07_06_16_10_52.046,3.854,29.9,0,0.759,0,0,0,0, ,0,0,0,0,0, ,-38.8,302.9,953.3,-0.2,-0.5,-1.7,25,-39.2424,302.957,953.274,-0.284179,-0.484821,-1.72258,
2026_07_06_16_10_52.065,3.854,29.8,0,0.761,0,0,0,0.001, ,0,0,0,0,0, ,-39.3,302.6,952.6,-0.2,-0.4,-1.7,25,-39.2307,302.945,953.255,-0.279049,-0.482699,-1.72121,
2026_07_06_16_10_52.085,3.854,29.8,0,0.759,0,0,0,0.002, ,0,0,0,0,0, ,-39.4,302.3,952.6,-0.2,-0.5,-1.7,25,-39.2379,302.914,953.215,-0.274232,-0.480707,-1.71992,
2026_07_06_16_10_52.105,3.854,29.9,0,0.76,0,0,0,0.002, ,0,0,0,0,0, ,-38.9,302.7,954.5,-0.2,-0.5,-1.7,25,-39.2326,302.889,953.235,-0.269709,-0.481882,-1.7187,
2026_07_06_16_10_52.127,3.854,29.9,0,0.759,0,0,0,0.001, ,0,0,0,0,0, ,-39.4,302,952.2,-0.3,-0.5,-1.7,25,-39.2275,302.856,953.242,-0.268508,-0.482986,-1.71756,
2026_07_06_16_10_52.145,3.854,29.9,0,0.76,0,0,0,0.001, ,0,0,0,0,0, ,-39.1,301.7,953.1,-0.5,-0.5,-1.7,25,-39.2289,302.795,953.206,-0.276521,-0.484023,-1.71649,
2026_07_06_16_10_52.165,3.854,29.9,0,0.76,0,0,0,0.001, ,0,0,0,0,0, ,-39,301.1,952.7,-0.4,-0.4,-1.7,25,-39.218,302.71,953.187,-0.287092,-0.48195,-1.71549,
2026_07_06_16_10_52.184,3.854,29.9,0,0.76,0,0,0,0.001, ,0,0,0,0,0, ,-38.6,302.3,953.1,-0.4,-0.5,-1.8,25,-39.1925,302.648,953.17,-0.293972,-0.480003,-1.71759,
2026_07_06_16_10_52.204,3.854,30,0,0.76,0,0,0,0.001, ,0,0,0,0,0, ,-39,303.7,953.4,-0.5,-0.5,-1.6,25,-39.1686,302.67,953.175,-0.30348,-0.481222,-1.71652,
2026_07_06_16_10_52.224,3.854,29.9,0,0.759,0,0,0,0, ,0,0,0,0,0, ,-37.5,302.7,951.5,-0.1,-0.5,-1.6,25,-39.1126,302.702,953.131,-0.303268,-0.482366,-1.70942,
2026_07_06_16_10_52.243,3.854,29.9,0,0.759,0,0,0,0.001, ,0,0,0,0,0, ,-38.3,302.1,953,-0.2,-0.5,-1.7,25,-39.0387,302.684,953.077,-0.293928,-0.48344,-1.7058,
2026_07_06_16_10_52.263,3.854,30,0,0.759,0,0,0,0.001, ,0,0,0,0,0, ,-40,303.1,953.4,-0.3,-0.5,-1.8,25,-39.0455,302.679,953.084,-0.291252,-0.48445,-1.70849,
2026_07_06_16_10_52.283,3.854,30,0,0.76,0,0,0,0, ,0,0,0,0,0, ,-39.4,301.8,953.4,-0.3,-0.5,-1.7,25,-39.0854,302.665,953.104,-0.291785,-0.485397,-1.71102,
2026_07_06_16_10_52.302,3.854,29.8,0,0.76,0,0,0,0, ,0,0,0,0,0, ,-38.3,302.8,953.7,-0.4,-0.5,-1.8,25,-39.0711,302.643,953.131,-0.295332,-0.486287,-1.7134,
2026_07_06_16_10_52.322,3.854,29.9,0,0.76,0,0,0,0.002, ,0,0,0,0,0, ,-40.5,302.6,952.6,-0.3,-0.6,-1.7,25,-39.0911,302.646,953.132,-0.298663,-0.49017,-1.71563,
2026_07_06_16_10_52.343,3.854,29.8,0,0.759,0,0,0,0.001, ,0,0,0,0,0, ,-40.1,302.9,952.6,-0.4,-0.5,-1.7,25,-39.1648,302.652,953.1,-0.301792,-0.493815,-1.71467,
2026_07_06_16_10_52.362,3.854,29.9,0,0.76,0,0,0,0.002, ,0,0,0,0,0, ,-38.6,303.7,954.3,-0.3,-0.5,-1.8,25,-39.1761,302.692,953.121,-0.304729,-0.494192,-1.71683,
2026_07_06_16_10_52.382,3.854,29.9,0,0.76,0,0,0,0.001, ,0,0,0,0,0, ,-39.7,302.6,954.1,-0.4,-0.5,-1.6,25,-39.1745,302.72,953.187,-0.307488,-0.494546,-1.7158,
2026_07_06_16_10_52.402,3.854,29.9,0,0.759,0,0,0,0.001, ,0,0,0,0,0, ,-38.3,303.3,952.3,-0.3,-0.5,-1.7,25,-39.1638,302.734,953.188,-0.310079,-0.494879,-1.71179,
2026_07_06_16_10_52.422,3.854,30,0,0.759,0,0,0,0.001, ,0,0,0,0,0, ,-39.5,303.4,952.3,-0.4,-0.5,-1.7,25,-39.1478,302.771,953.133,-0.312511,-0.495191,-1.71107,
2026_07_06_16_10_52.443,3.854,29.9,0,0.758,0,0,0,0.001, ,0,0,0,0,0, ,-39.1,302.4,953.8,-0.3,-0.5,-1.8,25,-39.157,302.779,953.128,-0.314796,-0.495484,-1.71345,
2026_07_06_16_10_52.461,3.854,29.9,0,0.76,0,0,0,0.001, ,0,0,0,0,0, ,-38,303.3,953.2,-0.3,-0.5,-1.7,25,-39.12,302.783,953.151,-0.313894,-0.495759,-1.71567,
2026_07_06_16_10_52.481,3.854,30,0,0.76,0,0,0,0.001, ,0,0,0,0,0, ,-39.7,302.6,954.3,-0.2,-0.5,-1.7,25,-39.1036,302.794,953.188,-0.310001,-0.496017,-1.71472,
2026_07_06_16_10_52.501,3.854,29.9,0,0.76,0,0,0,0.001, ,0,0,0,0,0, ,-39.7,303.4,953,-0.2,-0.5,-1.7,25,-39.1399,302.806,953.216,-0.303298,-0.49626,-1.71382,
2026_07_06_16_10_52.523,3.854,29.9,0,0.759,0,0,0,0.001, ,0,0,0,0,0, ,-39.1,303.8,953.8,-0.2,-0.5,-1.7,25,-39.1558,302.855,953.227,-0.297003,-0.496488,-1.71298,
2026_07_06_16_10_52.541,3.854,29.8,0,0.76,0,0,0,0.001, ,0,0,0,0,0, ,-38.9,303.8,953,-0.1,-0.5,-1.7,25,-39.1463,302.912,953.237,-0.288045,-0.496702,-1.71219,
2026_07_06_16_10_52.561,3.854,29.9,0,0.76,0,0,0,0.002, ,0,0,0,0,0, ,-39.5,302.8,953.7,-0.2,-0.4,-1.7,25,-39.1496,302.936,953.244,-0.279633,-0.493856,-1.71144,
2026_07_06_16_10_52.580,3.854,29.9,0,0.76,0,0,0,0.001, ,0,0,0,0,0, ,-38.9,301.1,954.1,-0.3,-0.5,-1.8,25,-39.1526,302.876,953.284,-0.277827,-0.491184,-1.71379,
2026_07_06_16_10_52.600,3.854,29.9,0,0.76,0,0,0,0.001, ,0,0,0,0,0, ,-39.6,302.1,953.3,-0.4,-0.5,-1.7,25,-39.1586,302.798,953.31,-0.282225,-0.491721,-1.716,
2026_07_06_16_10_52.619,3.854,29.9,0,0.759,0,0,0,0.001, ,0,0,0,0,0, ,-39.5,302.1,953,-0.4,-0.5,-1.7,25,-39.1824,302.755,953.3,-0.289402,-0.492225,-1.71503,
2026_07_06_16_10_52.638,3.854,30,0,0.758,0,0,0,0.001, ,0,0,0,0,0, ,-38.2,303.7,953,-0.3,-0.5,-1.7,25,-39.1622,302.764,953.282,-0.293095,-0.492699,-1.71411,
2026_07_06_16_10_52.660,3.854,30,0,0.761,0,0,0,0.001, ,0,0,0,0,0, ,-40.7,301.3,953,-0.4,-0.5,-1.7,25,-39.1797,302.748,953.264,-0.296562,-0.493144,-1.71325,
2026_07_06_16_10_52.679,3.854,29.8,0,0.76,0,0,0,0.001, ,0,0,0,0,0, ,-39.1,303.8,954.4,-0.3,-0.5,-1.7,25,-39.2236,302.736,953.291,-0.299819,-0.493562,-1.71244,
2026_07_06_16_10_52.701,3.854,29.9,0,0.76,0,0,0,0.002, ,0,0,0,0,0, ,-40.1,303.8,953.1,-0.4,-0.5,-1.8,25,-39.2465,302.801,953.319,-0.302877,-0.493954,-1.71473,
2026_07_06_16_10_52.718,3.854,29.8,0,0.761,0,0,0,0.001, ,0,0,0,0,0, ,-38.6,304.3,953.7,-0.3,-0.5,-1.7,25,-39.2528,302.877,953.324,-0.305748,-0.494323,-1.71688,
2026_07_06_16_10_52.738,3.854,29.9,0,0.76,0,0,0,0.002, ,0,0,0,0,0, ,-38.5,302.6,953.1,-0.3,-0.5,-1.8,25,-39.21,302.912,953.329,-0.305398,-0.494669,-1.7189,
2026_07_06_16_10_52.758,3.854,29.9,0,0.761,0,0,0,0.002, ,0,0,0,0,0, ,-39.9,304.3,953.3,-0.3,-0.5,-1.7,25,-39.2094,302.945,953.321,-0.305069,-0.494993,-1.72079,
2026_07_06_16_10_52.778,3.854,29.8,0,0.759,0,0,0,0.001, ,0,0,0,0,0, ,-39.3,304.6,954.2,-0.1,-0.5,-1.7,25,-39.2332,303.036,953.347,-0.298666,-0.495298,-1.71953,
2026_07_06_16_10_52.797,3.854,29.8,0,0.759,0,0,0,0.002, ,0,0,0,0,0, ,-39,303.2,953.6,-0.1,-0.5,-1.7,25,-39.2281,303.089,953.381,-0.28656,-0.495585,-1.71834,
2026_07_06_16_10_52.817,3.854,29.9,0,0.759,0,0,0,0.002, ,0,0,0,0,0, ,-38.5,302,953.3,-0.1,-0.5,-1.6,25,-39.199,303.059,953.385,-0.275192,-0.495854,-1.71417,
2026_07_06_16_10_52.838,3.854,29.9,0,0.76,0,0,0,0.002, ,0,0,0,0,0, ,-38.6,303.1,952.6,-0.3,-0.5,-1.7,25,-39.1594,303.028,953.358,-0.27061,-0.496107,-1.71026,
2026_07_06_16_10_52.856,3.854,29.9,0,0.76,0,0,0,0.002, ,0,0,0,0,0, ,-39.3,303.3,952.2,-0.2,-0.5,-1.8,25,-39.1467,303.039,953.3,-0.269354,-0.496344,-1.71268,
2026_07_06_16_10_52.876,3.854,29.9,0,0.76,0,0,0,0.002, ,0,0,0,0,0, ,-38.5,302.9,953.4,-0.3,-0.5,-1.7,25,-39.1317,303.042,953.269,-0.268174,-0.496567,-1.71496,
2026_07_06_16_10_52.900,3.854,29.8,0,0.759,0,0,0,0.002, ,0,0,0,0,0, ,-39.4,303.7,953.2,-0.2,-0.5,-1.7,25,-39.1206,303.058,953.271,-0.267067,-0.496776,-1.71405,
2026_07_06_16_10_52.917,3.854,29.8,0,0.758,0,0,0,0.002, ,0,0,0,0,0, ,-40,304.6,953.9,-0.3,-0.5,-1.7,25,-39.1559,303.125,953.288,-0.266027,-0.496972,-1.71319,
2026_07_06_16_10_52.936,3.854,29.9,0,0.76,0,0,0,0.002, ,0,0,0,0,0, ,-39.6,303.3,953.6,-0.2,-0.5,-1.7,25,-39.1951,303.175,953.316,-0.26505,-0.497157,-1.71239,
2026_07_06_16_10_52.956,3.854,29.9,0,0.76,0,0,0,0.002, ,0,0,0,0,0, ,-39.4,303.3,953.4,-0.2,-0.5,-1.7,25,-39.2137,303.183,953.328,-0.261086,-0.49733,-1.71163,
2026_07_06_16_10_52.975,3.854,29.9,0,0.759,0,0,0,0.002, ,0,0,0,0,0, ,-39.9,302.2,953,-0.2,-0.4,-1.7,25,-39.2403,303.156,953.32,-0.257364,-0.494446,-1.71092,
2026_07_06_16_10_52.995,3.854,30,0,0.759,0,0,0,0.002, ,0,0,0,0,0, ,-39.6,302,953.3,-0.2,-0.5,-1.7,25,-39.2714,303.092,953.309,-0.253868,-0.491738,-1.71026,
2026_07_06_16_10_53.015,3.854,29.9,0,0.759,0,0,0,0.001, ,0,0,0,0,0, ,-39.7,303.1,953.2,-0.1,-0.5,-1.7,25,-39.2944,303.059,953.306,-0.247539,-0.492241,-1.70963,
2026_07_06_16_10_53.035,3.854,29.9,0,0.759,0,0,0,0.002, ,0,0,0,0,0, ,-40.5,301.2,953.2,-0.2,-0.6,-1.7,25,-39.3435,303.003,953.299,-0.241595,-0.495761,-1.70905,
2026_07_06_16_10_53.055,3.854,29.9,0,0.76,0,0,0,0.002, ,0,0,0,0,0, ,-40.7,302,953.4,-0.3,-0.5,-1.7,25,-39.4201,302.918,953.299,-0.242107,-0.499066,-1.70849,
2026_07_06_16_10_53.074,3.854,29.9,0,0.76,0,0,0,0.002, ,0,0,0,0,0, ,-39.1,302.1,953.6,-0.4,-0.5,-1.7,25,-39.4493,302.865,953.312,-0.248682,-0.499123,-1.70798,
2026_07_06_16_10_53.098,3.854,30,0,0.761,0,0,0,0.002, ,0,0,0,0,0, ,-39.4,302.7,953.3,-0.3,-0.5,-1.7,25,-39.4372,302.837,953.32,-0.254856,-0.499176,-1.70749,
2026_07_06_16_10_53.115,3.854,30,0,0.76,0,0,0,0.001, ,0,0,0,0,0, ,-39,302.9,955.2,-0.5,-0.5,-1.7,25,-39.4227,302.834,953.377,-0.263701,-0.499226,-1.70703,
2026_07_06_16_10_53.134,3.854,29.9,0,0.76,0,0,0,0.001, ,0,0,0,0,0, ,-39.3,302.2,953.7,-0.5,-0.6,-1.8,25,-39.4061,302.817,953.442,-0.2781,-0.502321,-1.70965,
2026_07_06_16_10_53.154,3.854,29.9,0,0.761,0,0,0,0.002, ,0,0,0,0,0, ,-39.4,302.8,953.7,-0.4,-0.5,-1.6,25,-39.4027,302.798,953.458,-0.288575,-0.505226,-1.70906,
2026_07_06_16_10_53.173,3.854,29.9,0,0.756,0,0,0,0.002, ,0,0,0,0,0, ,-38.2,303.2,953.2,-0.5,-0.5,-1.7,25,-39.366,302.81,953.457,-0.298412,-0.504908,-1.70546,
2026_07_06_16_10_53.193,3.854,29.9,0,0.759,0,0,0,0.002, ,0,0,0,0,0, ,-39.6,302.9,955.2,-0.3,-0.5,-1.7,25,-39.3376,302.825,953.503,-0.304603,-0.504608,-1.70513,
2026_07_06_16_10_53.213,3.854,29.9,0,0.76,0,0,0,0.002, ,0,0,0,0,0, ,-39.7,303.1,954.2,-0.4,-0.4,-1.7,25,-39.3566,302.835,953.576,-0.307369,-0.501281,-1.70482,
2026_07_06_16_10_53.232,3.854,29.9,0,0.759,0,0,0,0.002, ,0,0,0,0,0, ,-38.9,303.7,953.4,-0.3,-0.6,-1.6,25,-39.3532,302.87,953.589,-0.309967,-0.501203,-1.70148,
2026_07_06_16_10_53.252,3.854,29.9,0,0.758,0,0,0,0.002, ,0,0,0,0,0, ,-40.4,304.5,953.3,-0.3,-0.5,-1.7,25,-39.3713,302.945,953.575,-0.309359,-0.504176,-1.69834,
2026_07_06_16_10_53.272,3.854,29.9,0,0.76,0,0,0,0.002, ,0,0,0,0,0, ,-38.4,304.5,952.2,-0.3,-0.5,-1.7,25,-39.373,303.04,953.524,-0.308789,-0.503922,-1.69844,
2026_07_06_16_10_53.293,3.854,29.9,0,0.761,0,0,0,0.002, ,0,0,0,0,0, ,-38.3,304.1,953.7,-0.2,-0.5,-1.7,25,-39.3107,303.116,953.489,-0.305207,-0.503683,-1.69854,
2026_07_06_16_10_53.312,3.854,29.8,0,0.759,0,0,0,0.002, ,0,0,0,0,0, ,-39.3,300.7,955.3,-0.1,-0.5,-1.7,25,-39.2795,303.073,953.551,-0.295749,-0.503458,-1.69863,
2026_07_06_16_10_53.332,3.854,29.9,0,0.759,0,0,0,0.003, ,0,0,0,0,0, ,-39.6,300.7,952.5,-0.2,-0.5,-1.7,25,-39.2899,302.928,953.572,-0.286867,-0.503248,-1.69871,
2026_07_06_16_10_53.351,3.854,30,0,0.759,0,0,0,0.002, ,0,0,0,0,0, ,-41.2,303.7,954.2,-0.3,-0.5,-1.7,25,-39.3576,302.884,953.559,-0.284621,-0.50305,-1.69879,
2026_07_06_16_10_53.371,3.854,29.9,0,0.758,0,0,0,0.001, ,0,0,0,0,0, ,-39.7,301.2,952.1,-0.3,-0.5,-1.7,25,-39.4241,302.857,953.534,-0.285558,-0.502864,-1.69886,
2026_07_06_16_10_53.391,3.854,29.9,0,0.76,0,0,0,0.002, ,0,0,0,0,0, ,-40,302.7,951.7,-0.3,-0.5,-1.8,25,-39.4501,302.802,953.434,-0.286438,-0.502689,-1.70198,
2026_07_06_16_10_53.410,3.854,29.9,0,0.76,0,0,0,0.002, ,0,0,0,0,0, ,-40,302.1,951.6,-0.3,-0.5,-1.8,25,-39.4836,302.778,953.326,-0.287264,-0.502526,-1.70795,
2026_07_06_16_10_53.430,3.854,29.8,0,0.76,0,0,0,0.002, ,0,0,0,0,0, ,-39.9,303.3,953.6,-0.4,-0.5,-1.6,25,-39.512,302.773,953.281,-0.291087,-0.502372,-1.70747,
2026_07_06_16_10_53.450,3.854,30,0,0.759,0,0,0,0.003, ,0,0,0,0,0, ,-39.6,300.9,952.7,-0.4,-0.5,-1.7,25,-39.5265,302.732,953.273,-0.297724,-0.502227,-1.70397,
2026_07_06_16_10_53.470,3.854,29.9,0,0.758,0,0,0,0.001, ,0,0,0,0,0, ,-39.6,303.9,953.1,-0.4,-0.5,-1.7,25,-39.531,302.712,953.251,-0.303957,-0.502091,-1.70372,
2026_07_06_16_10_53.490,3.854,29.8,0,0.759,0,0,0,0.002, ,0,0,0,0,0, ,-38.6,302.7,953,-0.4,-0.5,-1.7,25,-39.5047,302.747,953.238,-0.309809,-0.501964,-1.7035,
2026_07_06_16_10_53.509,3.854,29.8,0,0.759,0,0,0,0.003, ,0,0,0,0,0, ,-39,302.1,953.6,-0.4,-0.5,-1.8,25,-39.4618,302.726,953.242,-0.315305,-0.501844,-1.70633,
2026_07_06_16_10_53.529,3.854,29.8,0,0.759,0,0,0,0.003, ,0,0,0,0,0, ,-38.6,300.9,952.8,-0.3,-0.6,-1.7,25,-39.4215,302.652,953.24,-0.317419,-0.504779,-1.70899,
2026_07_06_16_10_53.549,3.854,29.9,0,0.759,0,0,0,0.003, ,0,0,0,0,0, ,-39.6,302.3,953.1,-0.3,-0.5,-1.8,25,-39.4019,302.587,953.222,-0.316358,-0.507534,-1.71149,
2026_07_06_16_10_53.568,3.854,30,0,0.759,0,0,0,0.002, ,0,0,0,0,0, ,-39.4,301.1,953.3,-0.3,-0.5,-1.8,25,-39.4079,302.533,953.221,-0.315361,-0.507075,-1.71688,
2026_07_06_16_10_53.588,3.854,29.8,0,0.76,0,0,0,0.001, ,0,0,0,0,0, ,-39.5,303.5,954.7,-0.3,-0.5,-1.7,25,-39.4104,302.519,953.268,-0.314425,-0.506644,-1.7189,
2026_07_06_16_10_53.607,3.854,29.8,0,0.76,0,0,0,0.003, ,0,0,0,0,0, ,-39.9,302.9,952.6,-0.5,-0.5,-1.7,25,-39.4281,302.561,953.291,-0.31964,-0.506239,-1.71775,
2026_07_06_16_10_53.628,3.854,29.9,0,0.76,0,0,0,0.003, ,0,0,0,0,0, ,-39.1,302.3,952.1,-0.4,-0.5,-1.7,25,-39.4325,302.563,953.234,-0.327584,-0.505859,-1.71667,
2026_07_06_16_10_53.648,3.854,29.9,0,0.759,0,0,0,0.002, ,0,0,0,0,0, ,-38.6,303.4,953.6,-0.5,-0.6,-1.8,25,-39.397,302.581,953.211,-0.335043,-0.508549,-1.7187,
2026_07_06_16_10_53.667,3.854,29.9,0,0.759,0,0,0,0.002, ,0,0,0,0,0, ,-39.4,303.7,953.7,-0.5,-0.5,-1.8,25,-39.3728,302.64,953.237,-0.345095,-0.511075,-1.72365,
2026_07_06_16_10_53.687,3.854,29.9,0,0.76,0,0,0,0.002, ,0,0,0,0,0, ,-40.4,302.1,953.8,-0.4,-0.5,-1.7,25,-39.4049,302.655,953.269,-0.351488,-0.5104,-1.72526,
2026_07_06_16_10_53.707,3.854,29.8,0,0.76,0,0,0,0.002, ,0,0,0,0,0, ,-39.6,303.1,953.1,-0.3,-0.5,-1.7,25,-39.4412,302.652,953.28,-0.351397,-0.509766,-1.72372,
2026_07_06_16_10_53.727,3.854,29.9,0,0.76,0,0,0,0.003, ,0,0,0,0,0, ,-39,304,955.8,-0.2,-0.5,-1.7,25,-39.4326,302.707,953.351,-0.345218,-0.509171,-1.72227,
2026_07_06_16_10_53.747,3.854,29.9,0,0.761,0,0,0,0.002, ,0,0,0,0,0, ,-39.9,303.8,953,-0.1,-0.5,-1.8,25,-39.4336,302.78,953.415,-0.333322,-0.508612,-1.72396,
2026_07_06_16_10_53.767,3.854,29.9,0,0.759,0,0,0,0.002, ,0,0,0,0,0, ,-39.9,302.2,952.7,-0.1,-0.5,-1.7,25,-39.462,302.793,953.38,-0.319104,-0.508087,-1.72555,
2026_07_06_16_10_53.786,3.854,29.8,0,0.76,0,0,0,0.002, ,0,0,0,0,0, ,-39.7,303.1,952.5,-0.3,-0.5,-1.7,25,-39.4826,302.784,953.333,-0.311846,-0.507595,-1.72399,
2026_07_06_16_10_53.806,3.854,29.8,0,0.76,0,0,0,0.003, ,0,0,0,0,0, ,-39.7,302,952.6,-0.2,-0.5,-1.7,25,-39.4959,302.77,953.285,-0.308078,-0.507132,-1.72253,
2026_07_06_16_10_53.826,3.854,29.9,0,0.758,0,0,0,0.003, ,0,0,0,0,0, ,-39.7,301.6,952.2,-0.2,-0.5,-1.8,25,-39.5083,302.711,953.231,-0.301492,-0.506697,-1.72421,
2026_07_06_16_10_53.846,3.854,29.9,0,0.759,0,0,0,0.002, ,0,0,0,0,0, ,-38.9,302.4,953.7,-0.3,-0.5,-1.7,25,-39.4956,302.668,953.214,-0.298354,-0.506289,-1.72578,
2026_07_06_16_10_53.866,3.854,29.9,0,0.759,0,0,0,0.002, ,0,0,0,0,0, ,-40.5,302.1,952,-0.3,-0.5,-1.7,25,-39.5081,302.642,953.192,-0.298454,-0.505906,-1.72421,
2026_07_06_16_10_53.888,3.854,29.9,0,0.759,0,0,0,0.002, ,0,0,0,0,0, ,-40.2,302.6,952.3,-0.4,-0.5,-1.7,25,-39.5594,302.624,953.128,-0.301595,-0.505546,-1.72273,
2026_07_06_16_10_53.905,3.854,29.8,0,0.758,0,0,0,0.002, ,0,0,0,0,0, ,-39.4,302.4,954.1,-0.4,-0.6,-1.6,25,-39.574,302.617,953.133,-0.307592,-0.508255,-1.7183,
2026_07_06_16_10_53.924,3.854,29.9,0,0.759,0,0,0,0.003, ,0,0,0,0,0, ,-38.5,303.8,954.3,-0.3,-0.4,-1.6,25,-39.536,302.646,953.198,-0.310176,-0.507752,-1.71109,
2026_07_06_16_10_53.944,3.854,29.8,0,0.76,0,0,0,0.002, ,0,0,0,0,0, ,-39.1,302.3,954.2,-0.4,-0.5,-1.7,25,-39.4912,302.671,953.262,-0.312603,-0.504233,-1.70737,
2026_07_06_16_10_53.964,3.854,29.9,0,0.76,0,0,0,0.003, ,0,0,0,0,0, ,-39.1,302.9,954.2,-0.4,-0.5,-1.7,25,-39.4673,302.666,953.319,-0.317929,-0.503975,-1.70692,
2026_07_06_16_10_53.984,3.854,29.9,0,0.76,0,0,0,0.002, ,0,0,0,0,0, ,-39.3,303.7,954.3,-0.3,-0.5,-1.7,25,-39.451,302.705,953.376,-0.319883,-0.503732,-1.7065,
2026_07_06_16_10_54.003,3.854,29.9,0,0.76,0,0,0,0.002, ,0,0,0,0,0, ,-38.2,304.6,954.2,-0.3,-0.5,-1.7,25,-39.4083,302.793,953.429,-0.318671,-0.503505,-1.7061,
2026_07_06_16_10_54.023,3.854,29.9,0,0.76,0,0,0,0.002, ,0,0,0,0,0, ,-40,304.1,952.7,-0.4,-0.5,-1.7,25,-39.3895,302.888,953.43,-0.32058,-0.503291,-1.70573,
2026_07_06_16_10_54.043,3.854,30,0,0.759,0,0,0,0.002, ,0,0,0,0,0, ,-40.5,302.6,952.3,-0.3,-0.5,-1.7,25,-39.442,302.916,953.374,-0.322373,-0.503091,-1.70538,
2026_07_06_16_10_54.063,3.854,29.9,0,0.758,0,0,0,0.001, ,0,0,0,0,0, ,-39.3,304.8,952.8,-0.3,-0.5,-1.7,25,-39.4699,302.964,953.323,-0.32101,-0.502903,-1.70505,
2026_07_06_16_10_54.086,3.854,29.9,0,0.76,0,0,0,0.002, ,0,0,0,0,0, ,-39.5,304,952.7,-0.3,-0.5,-1.7,25,-39.4656,303.051,953.289,-0.319729,-0.502726,-1.70474,
2026_07_06_16_10_54.103,3.854,29.8,0,0.76,0,0,0,0.002, ,0,0,0,0,0, ,-38,303.2,953.8,-0.2,-0.4,-1.7,25,-39.422,303.085,953.286,-0.31548,-0.499513,-1.70446,
2026_07_06_16_10_54.123,3.854,29.9,0,0.759,0,0,0,0.003, ,0,0,0,0,0, ,-37.2,302,955,-0.3,-0.5,-1.7,25,-39.311,303.055,953.354,-0.31149,-0.496495,-1.70418,
2026_07_06_16_10_54.143,3.854,29.9,0,0.758,0,0,0,0.002, ,0,0,0,0,0, ,-39.1,302,951.7,-0.2,-0.5,-1.7,25,-39.2402,302.991,953.354,-0.307743,-0.496709,-1.70393,
2026_07_06_16_10_54.162,3.854,30,0,0.76,0,0,0,0.002, ,0,0,0,0,0, ,-40.4,302.9,953.9,-0.4,-0.5,-1.7,25,-39.2713,302.958,953.32,-0.307271,-0.49691,-1.70369,
2026_07_06_16_10_54.182,3.854,29.9,0,0.76,0,0,0,0.002, ,0,0,0,0,0, ,-39.3,303.2,951.6,-0.4,-0.5,-1.7,25,-39.3066,302.964,953.285,-0.312922,-0.497098,-1.70346,
2026_07_06_16_10_54.202,3.854,29.8,0,0.759,0,0,0,0.002, ,0,0,0,0,0, ,-41.9,303.1,953.9,-0.3,-0.5,-1.8,25,-39.3854,302.975,953.253,-0.315181,-0.497275,-1.7063,
2026_07_06_16_10_54.221,3.854,29.9,0,0.76,0,0,0,0.003, ,0,0,0,0,0, ,-39.1,302.9,953.7,-0.6,-0.5,-1.7,25,-39.4533,302.977,953.286,-0.323397,-0.497441,-1.70896,
2026_07_06_16_10_54.241,3.854,29.9,0,0.759,0,0,0,0.002, ,0,0,0,0,0, ,-38.6,304.1,953.1,-0.4,-0.5,-1.7,25,-39.4165,303.008,953.293,-0.334159,-0.497597,-1.70842,
2026_07_06_16_10_54.260,3.854,29.9,0,0.759,0,0,0,0.002, ,0,0,0,0,0, ,-40.5,305.4,953.4,-0.1,-0.5,-1.7,25,-39.4247,303.115,953.29,-0.32903,-0.497743,-1.7079,
2026_07_06_16_10_54.280,3.854,29.8,0,0.76,0,0,0,0.002, ,0,0,0,0,0, ,-39.3,302.8,952.5,-0.1,-0.5,-1.7,25,-39.4536,303.175,953.27,-0.315074,-0.497881,-1.70742,
2026_07_06_16_10_54.301,3.854,29.9,0,0.76,0,0,0,0.003, ,0,0,0,0,0, ,-39.5,303.1,954.7,-0.1,-0.5,-1.7,25,-39.4504,303.161,953.29,-0.301968,-0.49801,-1.70697,
2026_07_06_16_10_54.320,3.854,29.9,0,0.758,0,0,0,0.002, ,0,0,0,0,0, ,-38,302.9,953.3,-0.3,-0.4,-1.7,25,-39.4077,303.151,953.333,-0.295754,-0.495084,-1.70655,
2026_07_06_16_10_54.340,3.854,29.9,0,0.759,0,0,0,0.002, ,0,0,0,0,0, ,-38.8,302.1,953.7,-0.5,-0.5,-1.7,25,-39.3463,303.111,953.343,-0.302106,-0.492337,-1.70615,
2026_07_06_16_10_54.360,3.854,29.9,0,0.759,0,0,0,0.002, ,0,0,0,0,0, ,-40.1,302.3,954.8,-0.4,-0.5,-1.8,25,-39.3526,303.056,953.398,-0.311119,-0.492804,-1.70882,
2026_07_06_16_10_54.379,3.854,29.9,0,0.76,0,0,0,0.002, ,0,0,0,0,0, ,-37.9,301.7,952.5,-0.3,-0.5,-1.8,25,-39.3311,302.992,953.414,-0.313488,-0.493242,-1.71438,
2026_07_06_16_10_54.399,3.854,29.9,0,0.76,0,0,0,0.002, ,0,0,0,0,0, ,-39.6,304.9,952.5,-0.1,-0.4,-1.7,25,-39.2957,303.01,953.358,-0.306572,-0.490607,-1.71655,
2026_07_06_16_10_54.419,3.854,29.9,0,0.759,0,0,0,0.002, ,0,0,0,0,0, ,-38.9,302.9,953.8,-0.2,-0.5,-1.8,25,-39.2929,303.065,953.345,-0.297031,-0.488133,-1.71858,
2026_07_06_16_10_54.439,3.854,29.9,0,0.758,0,0,0,0.002, ,0,0,0,0,0, ,-40.5,302.1,953,-0.4,-0.5,-1.8,25,-39.3177,303.03,953.349,-0.297212,-0.488856,-1.72355,
2026_07_06_16_10_54.459,3.854,29.9,0,0.76,0,0,0,0.002, ,0,0,0,0,0, ,-39,301.3,954.5,-0.4,-0.5,-1.7,25,-39.3441,302.949,953.373,-0.303476,-0.489535,-1.72516,
2026_07_06_16_10_54.479,3.854,29.9,0,0.759,0,0,0,0.002, ,0,0,0,0,0, ,-39.7,302.2,953,-0.5,-0.6,-1.7,25,-39.3444,302.876,953.396,-0.312405,-0.49322,-1.72363,
2026_07_06_16_10_54.498,3.854,29.9,0,0.759,0,0,0,0.002, ,0,0,0,0,0, ,-38.8,301.7,954.9,-0.4,-0.4,-1.7,25,-39.3387,302.82,953.43,-0.320789,-0.493633,-1.72219,
2026_07_06_16_10_54.520,3.854,29.9,0,0.759,0,0,0,0.002, ,0,0,0,0,0, ,-40.1,302.6,952.8,-0.5,-0.5,-1.7,25,-39.3455,302.779,953.456,-0.328663,-0.490974,-1.72083,
2026_07_06_16_10_54.539,3.854,29.9,0,0.76,0,0,0,0.003, ,0,0,0,0,0, ,-39.7,304.6,953.1,-0.2,-0.5,-1.8,25,-39.3793,302.829,953.425,-0.329963,-0.491524,-1.72261,
2026_07_06_16_10_54.558,3.854,29.9,0,0.759,0,0,0,0.003, ,0,0,0,0,0, ,-38.9,304.3,953.2,-0.3,-0.5,-1.7,25,-39.3744,302.928,953.408,-0.325091,-0.49204,-1.72428,
2026_07_06_16_10_54.578,3.854,29.9,0,0.759,0,0,0,0.003, ,0,0,0,0,0, ,-39.7,303.1,953.4,-0.2,-0.5,-1.7,25,-39.3699,302.975,953.401,-0.320515,-0.492526,-1.7228,
2026_07_06_16_10_54.597,3.854,29.9,0,0.759,0,0,0,0.003, ,0,0,0,0,0, ,-40,302.3,953.3,-0.3,-0.5,-1.7,25,-39.3991,302.958,953.398,-0.316218,-0.492981,-1.72141,
2026_07_06_16_10_54.618,3.854,30,0,0.761,0,0,0,0.003, ,0,0,0,0,0, ,-39.3,302.7,953.2,-0.2,-0.5,-1.7,25,-39.4144,302.93,953.389,-0.312183,-0.493409,-1.72011,
2026_07_06_16_10_54.637,3.854,29.9,0,0.759,0,0,0,0.002, ,0,0,0,0,0, ,-38.5,303.7,953,-0.2,-0.5,-1.7,25,-39.3831,302.946,953.372,-0.305346,-0.49381,-1.71888,
2026_07_06_16_10_54.657,3.854,29.9,0,0.758,0,0,0,0.003, ,0,0,0,0,0, ,-39.5,301.8,953.1,-0.2,-0.5,-1.7,25,-39.3597,302.935,953.352,-0.298927,-0.494188,-1.71773,
2026_07_06_16_10_54.677,3.854,29.9,0,0.761,0,0,0,0.003, ,0,0,0,0,0, ,-37.9,301,953.3,-0.3,-0.5,-1.7,25,-39.3195,302.841,953.343,-0.295945,-0.494542,-1.71665,
2026_07_06_16_10_54.697,3.854,29.9,0,0.758,0,0,0,0.003, ,0,0,0,0,0, ,-40.1,301.2,954.7,-0.2,-0.5,-1.7,25,-39.3001,302.735,953.383,-0.293146,-0.494874,-1.71564,
2026_07_06_16_10_54.722,3.854,29.9,0,0.76,0,0,0,0.003, ,0,0,0,0,0, ,-40.1,301.7,953.4,-0.3,-0.5,-1.6,25,-39.3488,302.657,953.423,-0.290516,-0.495187,-1.71164,
2026_07_06_16_10_54.740,3.854,29.9,0,0.758,0,0,0,0.003, ,0,0,0,0,0, ,-39.9,303.7,952.8,-0.2,-0.6,-1.7,25,-39.3885,302.659,953.404,-0.288047,-0.498527,-1.70788,
2026_07_06_16_10_54.755,3.854,29.9,0,0.759,0,0,0,0.003, ,0,0,0,0,0, ,-39.5,302.4,951.6,-0.3,-0.5,-1.8,25,-39.4075,302.683,953.33,-0.285729,-0.501664,-1.71045,
2026_07_06_16_10_54.776,3.854,30,0,0.759,0,0,0,0.003, ,0,0,0,0,0, ,-39.3,302.8,952.5,-0.4,-0.5,-1.7,25,-39.407,302.678,953.252,-0.289645,-0.501562,-1.71286,
2026_07_06_16_10_54.797,3.854,29.9,0,0.76,0,0,0,0.002, ,0,0,0,0,0, ,-39.6,302.3,953.8,-0.4,-0.5,-1.7,25,-39.4096,302.67,953.246,-0.29637,-0.501467,-1.71207,
2026_07_06_16_10_54.816,3.854,29.9,0,0.759,0,0,0,0.003, ,0,0,0,0,0, ,-38.8,300.9,954.3,-0.4,-0.5,-1.8,25,-39.3969,302.605,953.295,-0.302685,-0.501378,-1.71438,
2026_07_06_16_10_54.835,3.854,29.9,0,0.759,0,0,0,0.003, ,0,0,0,0,0, ,-39.9,301.6,952.8,-0.2,-0.5,-1.8,25,-39.394,302.522,953.311,-0.302522,-0.501294,-1.7196,
2026_07_06_16_10_54.855,3.854,29.9,0,0.759,0,0,0,0.003, ,0,0,0,0,0, ,-40.1,302.1,953.8,-0.2,-0.5,-1.7,25,-39.4309,302.481,953.31,-0.296274,-0.501215,-1.72145,
2026_07_06_16_10_54.874,3.854,29.8,0,0.759,0,0,0,0.003, ,0,0,0,0,0, ,-39.1,303.7,950.8,-0.2,-0.6,-1.7,25,-39.4412,302.507,953.248,-0.290407,-0.504188,-1.72015,
2026_07_06_16_10_54.894,3.854,30,0,0.76,0,0,0,0.003, ,0,0,0,0,0, ,-39.9,302,954.3,-0.2,-0.5,-1.7,25,-39.4448,302.528,953.206,-0.284898,-0.506979,-1.71892,
2026_07_06_16_10_54.914,3.854,29.9,0,0.761,0,0,0,0.002, ,0,0,0,0,0, ,-39.5,302,954.2,-0.3,-0.5,-1.7,25,-39.4604,302.496,953.27,-0.282772,-0.506554,-1.71777,
2026_07_06_16_10_54.934,3.854,30,0,0.759,0,0,0,0.003, ,0,0,0,0,0, ,-38.8,300.2,953.1,-0.3,-0.5,-1.7,25,-39.4415,302.411,953.293,-0.283821,-0.506155,-1.71668,
2026_07_06_16_10_54.954,3.854,30,0,0.759,0,0,0,0.002, ,0,0,0,0,0, ,-38.8,302.8,952.1,-0.3,-0.5,-1.7,25,-39.4024,302.355,953.25,-0.284807,-0.50578,-1.71567,
2026_07_06_16_10_54.974,3.854,29.9,0,0.759,0,0,0,0.002, ,0,0,0,0,0, ,-39.3,302.3,953.3,-0.5,-0.5,-1.7,25,-39.3809,302.367,953.217,-0.291827,-0.505427,-1.71471,
2026_07_06_16_10_54.993,3.854,30,0,0.761,0,0,0,0.003, ,0,0,0,0,0, ,-39.9,303.1,952.6,-0.4,-0.5,-1.7,25,-39.3942,302.387,953.201,-0.301466,-0.505097,-1.71382,
2026_07_06_16_10_55.014,3.854,29.9,0,0.759,0,0,0,0.002, ,0,0,0,0,0, ,-38.9,302.4,952.6,-0.4,-0.5,-1.8,25,-39.3946,302.409,953.164,-0.30747,-0.504786,-1.71602,
2026_07_06_16_10_55.033,3.854,29.9,0,0.759,0,0,0,0.003, ,0,0,0,0,0, ,-38.3,303.9,954.1,-0.5,-0.5,-1.6,25,-39.3462,302.455,953.175,-0.316155,-0.504494,-1.71504,
2026_07_06_16_10_55.053,3.854,29.9,0,0.759,0,0,0,0.003, ,0,0,0,0,0, ,-39.3,303.3,954.4,-0.4,-0.5,-1.7,25,-39.3129,302.524,953.241,-0.324312,-0.504221,-1.71108,
2026_07_06_16_10_55.073,3.854,29.9,0,0.759,0,0,0,0.003, ,0,0,0,0,0, ,-39.7,304.6,954.7,-0.4,-0.5,-1.8,25,-39.3243,302.611,953.321,-0.328924,-0.503963,-1.71345,
2026_07_06_16_10_55.093,3.854,29.9,0,0.761,0,0,0,0.003, ,0,0,0,0,0, ,-39.7,304.1,951.9,-0.3,-0.5,-1.7,25,-39.3472,302.717,953.319,-0.330208,-0.503722,-1.71568,
2026_07_06_16_10_55.111,3.854,29.9,0,0.759,0,0,0,0.003, ,0,0,0,0,0, ,-39.3,303.9,954.3,-0.2,-0.5,-1.8,25,-39.3565,302.795,953.306,-0.32532,-0.503495,-1.71777,
2026_07_06_16_10_55.133,3.854,29.9,0,0.759,0,0,0,0.003, ,0,0,0,0,0, ,-39.6,303.1,953.6,-0.3,-0.4,-1.7,25,-39.3622,302.838,953.345,-0.320731,-0.500235,-1.71973,
2026_07_06_16_10_55.152,3.854,29.9,0,0.758,0,0,0,0.003, ,0,0,0,0,0, ,-39.9,302.6,952.3,-0.2,-0.5,-1.7,25,-39.3858,302.839,953.321,-0.31642,-0.497174,-1.71853,
2026_07_06_16_10_55.171,3.854,29.9,0,0.76,0,0,0,0.003, ,0,0,0,0,0, ,-40.1,301.1,953.1,-0.2,-0.5,-1.7,25,-39.4233,302.779,953.283,-0.309326,-0.497346,-1.7174,
2026_07_06_16_10_55.191,3.854,30,0,0.76,0,0,0,0.003, ,0,0,0,0,0, ,-37.8,302.4,953.3,-0.2,-0.5,-1.7,25,-39.3944,302.716,953.278,-0.302664,-0.497508,-1.71634,
2026_07_06_16_10_55.212,3.854,30,0,0.76,0,0,0,0.002, ,0,0,0,0,0, ,-38.8,302.3,952.1,-0.2,-0.6,-1.7,25,-39.3277,302.694,953.243,-0.296408,-0.500707,-1.71535,
2026_07_06_16_10_55.231,3.854,30.1,0,0.758,0,0,0,0.002, ,0,0,0,0,0, ,-39.4,303.5,951.7,-0.1,-0.5,-1.7,25,-39.3138,302.706,953.161,-0.287486,-0.50371,-1.71441,
2026_07_06_16_10_55.254,3.854,30,0,0.759,0,0,0,0.001, ,0,0,0,0,0, ,-39.5,302.7,954.8,-0.3,-0.6,-1.7,25,-39.3221,302.73,953.167,-0.282155,-0.506531,-1.71353,
2026_07_06_16_10_55.270,3.854,29.9,0,0.761,0,0,0,0.002, ,0,0,0,0,0, ,-38.4,301.7,952.3,-0.3,-0.5,-1.7,25,-39.2995,302.698,953.19,-0.283242,-0.50918,-1.71271,
2026_07_06_16_10_55.291,3.854,29.9,0,0.759,0,0,0,0.003, ,0,0,0,0,0, ,-38.9,302.7,952.3,-0.4,-0.5,-1.7,25,-39.2599,302.668,953.136,-0.287311,-0.508621,-1.71193,
2026_07_06_16_10_55.309,3.854,30,0,0.76,0,0,0,0.003, ,0,0,0,0,0, ,-39.4,302,954.2,-0.4,-0.5,-1.7,25,-39.2532,302.648,953.143,-0.294178,-0.508095,-1.71121,
2026_07_06_16_10_55.332,3.854,30,0,0.759,0,0,0,0.002, ,0,0,0,0,0, ,-39.4,301.7,952.6,-0.3,-0.5,-1.8,25,-39.2621,302.6,953.158,-0.297579,-0.507602,-1.71357,
2026_07_06_16_10_55.350,3.854,29.9,0,0.759,0,0,0,0.002, ,0,0,0,0,0, ,-39.3,303.1,952.8,-0.4,-0.5,-1.7,25,-39.2675,302.587,953.13,-0.300774,-0.507139,-1.71579,
2026_07_06_16_10_55.372,3.854,29.9,0,0.759,0,0,0,0.003, ,0,0,0,0,0, ,-41.5,301.6,953.7,-0.4,-0.5,-1.8,25,-39.3365,302.573,953.138,-0.30682,-0.506704,-1.71788,
2026_07_06_16_10_55.389,3.854,29.9,0,0.76,0,0,0,0.003, ,0,0,0,0,0, ,-38.8,302.2,953.6,-0.5,-0.5,-1.8,25,-39.3861,302.532,953.169,-0.315545,-0.506295,-1.72288,
2026_07_06_16_10_55.412,3.854,29.9,0,0.759,0,0,0,0.003, ,0,0,0,0,0, ,-38,302.4,954.5,-0.4,-0.6,-1.7,25,-39.326,302.518,953.223,-0.323739,-0.508959,-1.72453,
2026_07_06_16_10_55.432,3.854,30,0,0.76,0,0,0,0.003, ,0,0,0,0,0, ,-38.6,303.8,953.6,-0.4,-0.5,-1.7,25,-39.2635,302.553,953.273,-0.328386,-0.51146,-1.72304,
2026_07_06_16_10_55.453,3.854,30,0,0.759,0,0,0,0.002, ,0,0,0,0,0, ,-39.1,303.5,953,-0.3,-0.5,-1.7,25,-39.2383,302.62,953.275,-0.329703,-0.510761,-1.72163,
2026_07_06_16_10_55.468,3.854,29.9,0,0.76,0,0,0,0.002, ,0,0,0,0,0, ,-40.4,302.8,954.3,-0.2,-0.5,-1.7,25,-39.2695,302.652,953.298,-0.324846,-0.510105,-1.72032,
2026_07_06_16_10_55.489,3.854,29.9,0,0.76,0,0,0,0.003, ,0,0,0,0,0, ,-38.5,302.7,954.1,-0.3,-0.5,-1.7,25,-39.2805,302.658,953.353,-0.320285,-0.50949,-1.71908,
2026_07_06_16_10_55.509,3.854,30,0,0.76,0,0,0,0.003, ,0,0,0,0,0, ,-38.8,302.9,953.1,-0.3,-0.5,-1.8,25,-39.242,302.667,953.368,-0.319049,-0.508911,-1.72096,
2026_07_06_16_10_55.532,3.854,30,0,0.759,0,0,0,0.002, ,0,0,0,0,0, ,-40.2,302.8,954.1,-0.4,-0.5,-1.7,25,-39.2578,302.678,953.382,-0.320935,-0.508368,-1.72273,
2026_07_06_16_10_55.547,3.854,30,0,0.759,0,0,0,0.002, ,0,0,0,0,0, ,-39,303.1,952.1,-0.5,-0.5,-1.8,25,-39.2786,302.695,953.365,-0.3288,-0.507858,-1.72439,
2026_07_06_16_10_55.568,3.854,30,0,0.76,0,0,0,0.002, ,0,0,0,0,0, ,-40.5,302.2,953.4,-0.5,-0.6,-1.7,25,-39.3073,302.692,953.327,-0.339232,-0.510426,-1.72595,
2026_07_06_16_10_55.588,3.854,30,0,0.759,0,0,0,0.002, ,0,0,0,0,0, ,-38.8,303.3,955.5,-0.4,-0.6,-1.7,25,-39.3282,302.696,953.396,-0.345982,-0.515885,-1.72437,
2026_07_06_16_10_55.608,3.854,30,0,0.759,0,0,0,0.002, ,0,0,0,0,0, ,-39.1,302.7,953.9,-0.4,-0.5,-1.8,25,-39.3052,302.714,953.475,-0.349274,-0.517964,-1.72593,
2026_07_06_16_10_55.627,3.854,30,0,0.761,0,0,0,0.002, ,0,0,0,0,0, ,-38.5,302.1,954.9,-0.3,-0.5,-1.7,25,-39.2744,302.695,953.531,-0.349318,-0.516869,-1.7274,
2026_07_06_16_10_55.646,3.854,30,0,0.759,0,0,0,0.002, ,0,0,0,0,0, ,-39.4,303.4,952.3,-0.3,-0.6,-1.6,25,-39.2546,302.698,953.536,-0.346313,-0.518888,-1.72268,
2026_07_06_16_10_55.666,3.854,29.9,0,0.759,0,0,0,0.002, ,0,0,0,0,0, ,-38.9,303.7,954.3,-0.2,-0.5,-1.7,25,-39.2482,302.75,953.521,-0.340444,-0.520784,-1.71825,
2026_07_06_16_10_55.686,3.854,29.9,0,0.76,0,0,0,0.003, ,0,0,0,0,0, ,-38.6,302.7,953.6,-0.2,-0.5,-1.7,25,-39.2179,302.778,953.547,-0.331886,-0.519517,-1.71714,
2026_07_06_16_10_55.709,3.854,30,0,0.759,0,0,0,0.003, ,0,0,0,0,0, ,-41.1,302.2,952.8,-0.1,-0.5,-1.7,25,-39.2564,302.758,953.526,-0.320802,-0.518328,-1.7161,
2026_07_06_16_10_55.730,3.854,30,0,0.76,0,0,0,0.002, ,0,0,0,0,0, ,-39,302.3,954.1,-0.2,-0.5,-1.8,25,-39.3048,302.727,953.522,-0.310394,-0.517211,-1.71816,
2026_07_06_16_10_55.745,3.854,30,0,0.759,0,0,0,0.002, ,0,0,0,0,0, ,-40.4,302.8,953.3,-0.3,-0.5,-1.7,25,-39.3288,302.716,953.532,-0.306713,-0.516162,-1.7201,
2026_07_06_16_10_55.772,3.854,30,0,0.759,0,0,0,0.002, ,0,0,0,0,0, ,-39.4,301.3,953.3,-0.3,-0.5,-1.7,25,-39.3637,302.675,953.518,-0.306304,-0.515177,-1.71888,
2026_07_06_16_10_55.785,3.854,30,0,0.759,0,0,0,0.002, ,0,0,0,0,0, ,-39.1,302.3,952.8,-0.3,-0.5,-1.8,25,-39.3567,302.622,953.49,-0.30592,-0.514253,-1.72077,
2026_07_06_16_10_55.806,3.854,30.1,0,0.758,0,0,0,0.002, ,0,0,0,0,0, ,-37.7,301.6,953.8,-0.4,-0.5,-1.7,25,-39.2984,302.581,953.478,-0.308606,-0.513384,-1.72256,
2026_07_06_16_10_55.824,3.854,30,0,0.759,0,0,0,0.001, ,0,0,0,0,0, ,-39.7,303.2,953.6,-0.3,-0.5,-1.7,25,-39.262,302.57,953.492,-0.311129,-0.512568,-1.72118,
2026_07_06_16_10_55.848,3.854,30,0,0.758,0,0,0,0.002, ,0,0,0,0,0, ,-38.9,301.8,954.2,-0.3,-0.5,-1.8,25,-39.2643,302.566,953.517,-0.310451,-0.511803,-1.72294,
2026_07_06_16_10_55.865,3.854,29.9,0,0.759,0,0,0,0.002, ,0,0,0,0,0, ,-39.3,301.7,953.2,-0.5,-0.5,-1.7,25,-39.2543,302.516,953.528,-0.315907,-0.511083,-1.72459,
2026_07_06_16_10_55.885,3.854,30,0,0.76,0,0,0,0.003, ,0,0,0,0,0, ,-41.2,303.3,953.9,-0.4,-0.5,-1.7,25,-39.3149,302.515,953.529,-0.324079,-0.510408,-1.72309,
2026_07_06_16_10_55.904,3.854,30,0,0.76,0,0,0,0.002, ,0,0,0,0,0, ,-40,304.5,953.9,-0.4,-0.5,-1.6,25,-39.3933,302.599,953.552,-0.328705,-0.509774,-1.71863,
2026_07_06_16_10_55.924,3.854,30.1,0,0.759,0,0,0,0.002, ,0,0,0,0,0, ,-39.5,303.9,953.4,-0.3,-0.4,-1.7,25,-39.415,302.697,953.558,-0.330003,-0.506131,-1.71445,
2026_07_06_16_10_55.943,3.854,30,0,0.758,0,0,0,0.001, ,0,0,0,0,0, ,-39.7,303.4,954.4,-0.2,-0.5,-1.7,25,-39.4263,302.755,953.579,-0.325128,-0.502711,-1.71357,
2026_07_06_16_10_55.965,3.854,30,0,0.758,0,0,0,0.002, ,0,0,0,0,0, ,-39.6,303.1,953.8,-0.2,-0.5,-1.7,25,-39.4399,302.785,953.61,-0.317503,-0.502546,-1.71274,
2026_07_06_16_10_55.982,3.854,29.9,0,0.76,0,0,0,0.002, ,0,0,0,0,0, ,-39.4,302.8,953.8,-0.3,-0.5,-1.7,25,-39.4436,302.795,953.622,-0.313389,-0.50239,-1.71197,
2026_07_06_16_10_56.004,3.854,30,0,0.761,0,0,0,0.003, ,0,0,0,0,0, ,-39,303.7,953,-0.3,-0.5,-1.7,25,-39.4287,302.823,953.608,-0.312573,-0.502245,-1.71124,
2026_07_06_16_10_56.029,3.854,29.9,0,0.76,0,0,0,0.002, ,0,0,0,0,0, ,-40.4,302.2,953.2,-0.2,-0.5,-1.7,25,-39.4453,302.831,953.577,-0.30876,-0.502108,-1.71055,
2026_07_06_16_10_56.050,3.854,30,0,0.76,0,0,0,0.003, ,0,0,0,0,0, ,-39.9,302.9,953.6,-0.1,-0.5,-1.8,25,-39.4882,302.814,953.567,-0.299086,-0.50198,-1.71296,
2026_07_06_16_10_56.062,3.854,30,0,0.76,0,0,0,0.002, ,0,0,0,0,0, ,-40,302,953.6,-0.2,-0.5,-1.7,25,-39.5163,302.791,953.569,-0.290001,-0.501859,-1.71521,
2026_07_06_16_10_56.082,3.854,29.9,0,0.758,0,0,0,0.002, ,0,0,0,0,0, ,-39,302.3,952.6,-0.2,-0.5,-1.7,25,-39.5153,302.752,953.54,-0.284516,-0.501746,-1.71429,
2026_07_06_16_10_56.102,3.854,29.9,0,0.76,0,0,0,0.003, ,0,0,0,0,0, ,-39.5,302.6,953.7,-0.3,-0.5,-1.7,25,-39.4992,302.734,953.516,-0.282413,-0.501639,-1.71342,
2026_07_06_16_10_56.123,3.854,29.9,0,0.76,0,0,0,0.003, ,0,0,0,0,0, ,-39.6,300.5,952.5,-0.4,-0.6,-1.7,25,-39.5023,302.662,953.491,-0.286532,-0.504586,-1.7126,
2026_07_06_16_10_56.140,3.854,29.9,0,0.76,0,0,0,0.003, ,0,0,0,0,0, ,-39.1,301.1,954.4,-0.4,-0.5,-1.6,25,-39.493,302.548,953.488,-0.293446,-0.507354,-1.70878,
2026_07_06_16_10_56.161,3.854,29.9,0,0.759,0,0,0,0.003, ,0,0,0,0,0, ,-40.8,303.1,953.8,-0.5,-0.5,-1.7,25,-39.5208,302.521,953.526,-0.302986,-0.506906,-1.7052,
2026_07_06_16_10_56.181,3.854,29.9,0,0.758,0,0,0,0.003, ,0,0,0,0,0, ,-40.1,303.7,952.8,-0.3,-0.5,-1.8,25,-39.5775,302.575,953.512,-0.308898,-0.506485,-1.70793,
2026_07_06_16_10_56.200,3.854,30.1,0,0.759,0,0,0,0.003, ,0,0,0,0,0, ,-39.1,302.2,952.5,-0.2,-0.5,-1.7,25,-39.5788,302.597,953.459,-0.305309,-0.50609,-1.7105,
2026_07_06_16_10_56.220,3.854,30,0,0.761,0,0,0,0.001, ,0,0,0,0,0, ,-39.1,301.5,953,-0.3,-0.4,-1.7,25,-39.5497,302.552,953.416,-0.301938,-0.502672,-1.70986,
2026_07_06_16_10_56.243,3.854,29.9,0,0.76,0,0,0,0.002, ,0,0,0,0,0, ,-39.6,302.8,952.6,-0.3,-0.5,-1.8,25,-39.5375,302.527,953.379,-0.30182,-0.499462,-1.7123,
2026_07_06_16_10_56.260,3.854,29.9,0,0.76,0,0,0,0.003, ,0,0,0,0,0, ,-39,301.1,953.4,-0.3,-0.6,-1.7,25,-39.523,302.492,953.356,-0.301709,-0.502542,-1.7146,
2026_07_06_16_10_56.280,3.854,29.9,0,0.76,0,0,0,0.003, ,0,0,0,0,0, ,-39.6,303.3,953.4,-0.3,-0.5,-1.8,25,-39.5094,302.474,953.358,-0.301605,-0.505434,-1.71676,
2026_07_06_16_10_56.300,3.854,30,0,0.758,0,0,0,0.003, ,0,0,0,0,0, ,-38.8,303.4,953,-0.3,-0.5,-1.8,25,-39.4906,302.528,953.349,-0.301507,-0.505102,-1.72183,
2026_07_06_16_10_56.320,3.854,30,0,0.759,0,0,0,0.002, ,0,0,0,0,0, ,-40,302.9,954.1,-0.4,-0.6,-1.7,25,-39.4851,302.566,953.361,-0.304462,-0.507838,-1.72355,
2026_07_06_16_10_56.344,3.854,29.9,0,0.76,0,0,0,0.002, ,0,0,0,0,0, ,-39.7,301.7,953.2,-0.4,-0.5,-1.6,25,-39.5073,302.55,953.379,-0.310284,-0.510408,-1.71906,
2026_07_06_16_10_56.364,3.854,30,0,0.759,0,0,0,0.003, ,0,0,0,0,0, ,-39.4,302.7,952.8,-0.4,-0.5,-1.8,25,-39.5099,302.528,953.355,-0.315751,-0.509773,-1.7179,
2026_07_06_16_10_56.378,3.854,30,0,0.759,0,0,0,0.002, ,0,0,0,0,0, ,-40.4,302.6,952.8,-0.4,-0.5,-1.7,25,-39.5337,302.536,953.322,-0.320885,-0.509178,-1.71986,
2026_07_06_16_10_56.399,3.854,30,0,0.759,0,0,0,0.002, ,0,0,0,0,0, ,-38.2,303.2,953.8,-0.3,-0.5,-1.6,25,-39.5194,302.558,953.32,-0.322659,-0.508619,-1.7156,
2026_07_06_16_10_56.419,3.854,30,0,0.76,0,0,0,0.002, ,0,0,0,0,0, ,-40.2,304.5,954.1,-0.4,-0.5,-1.7,25,-39.5,302.637,953.359,-0.324325,-0.508093,-1.7116,
2026_07_06_16_10_56.439,3.854,30,0,0.76,0,0,0,0.002, ,0,0,0,0,0, ,-40,304.3,953.2,-0.3,-0.5,-1.7,25,-39.5365,302.744,953.376,-0.32589,-0.5076,-1.7109,
2026_07_06_16_10_56.457,3.854,30,0,0.76,0,0,0,0.002, ,0,0,0,0,0, ,-42.1,303.2,954.1,-0.3,-0.5,-1.8,25,-39.6288,302.805,953.393,-0.324312,-0.507137,-1.71328,
2026_07_06_16_10_56.480,3.854,30,0,0.76,0,0,0,0.002, ,0,0,0,0,0, ,-38.3,302.3,953.9,-0.1,-0.4,-1.7,25,-39.6636,302.802,953.43,-0.316737,-0.503655,-1.71552,
2026_07_06_16_10_56.497,3.854,29.9,0,0.759,0,0,0,0.002, ,0,0,0,0,0, ,-38.4,302.9,954.1,-0.2,-0.5,-1.7,25,-39.5835,302.79,953.465,-0.306577,-0.500386,-1.71457,
2026_07_06_16_10_56.520,3.854,30,0,0.759,0,0,0,0.003, ,0,0,0,0,0, ,-39.9,302.1,952.5,-0.2,-0.5,-1.7,25,-39.5571,302.772,953.455,-0.300082,-0.500362,-1.71368,
2026_07_06_16_10_56.536,3.854,30,0,0.76,0,0,0,0.002, ,0,0,0,0,0, ,-39.5,302.4,953.3,-0.1,-0.5,-1.7,25,-39.5658,302.74,953.421,-0.290936,-0.50034,-1.71285,
2026_07_06_16_10_56.558,3.854,30,0,0.759,0,0,0,0.002, ,0,0,0,0,0, ,-39,302,953.8,-0.3,-0.5,-1.7,25,-39.5466,302.707,953.429,-0.285395,-0.500319,-1.71207,
2026_07_06_16_10_56.576,3.854,30,0,0.76,0,0,0,0.002, ,0,0,0,0,0, ,-39,302.4,954.2,-0.3,-0.4,-1.7,25,-39.5133,302.676,953.464,-0.286285,-0.497253,-1.71133,
2026_07_06_16_10_56.598,3.854,29.9,0,0.761,0,0,0,0.002, ,0,0,0,0,0, ,-37.7,301.5,953,-0.4,-0.5,-1.6,25,-39.4424,302.632,953.472,-0.290168,-0.494374,-1.70759,
2026_07_06_16_10_56.617,3.854,30,0,0.758,0,0,0,0.003, ,0,0,0,0,0, ,-39.5,302.9,953.2,-0.4,-0.5,-1.7,25,-39.391,302.606,953.449,-0.296861,-0.494716,-1.70408,
2026_07_06_16_10_56.638,3.854,30,0,0.758,0,0,0,0.002, ,0,0,0,0,0, ,-40.6,301.5,954.1,-0.3,-0.5,-1.6,25,-39.4312,302.581,953.461,-0.300099,-0.495038,-1.70079,
2026_07_06_16_10_56.659,3.854,29.9,0,0.76,0,0,0,0.002, ,0,0,0,0,0, ,-39.9,302.1,953.1,-0.5,-0.5,-1.7,25,-39.4811,302.533,953.47,-0.306186,-0.495341,-1.69769,
2026_07_06_16_10_56.680,3.854,29.9,0,0.759,0,0,0,0.003, ,0,0,0,0,0, ,-38.5,303.9,953.6,-0.4,-0.5,-1.8,25,-39.464,302.562,953.463,-0.31495,-0.495625,-1.70088,
2026_07_06_16_10_56.696,3.854,29.9,0,0.76,0,0,0,0.003, ,0,0,0,0,0, ,-39.4,302.9,953.4,-0.4,-0.5,-1.7,25,-39.4326,302.613,953.465,-0.320133,-0.495891,-1.70387,
2026_07_06_16_10_56.716,3.854,30,0,0.759,0,0,0,0.003, ,0,0,0,0,0, ,-38.6,302.9,953.6,-0.3,-0.6,-1.7,25,-39.4063,302.63,953.467,-0.321953,-0.499189,-1.70364,
2026_07_06_16_10_56.734,3.854,29.9,0,0.759,0,0,0,0.002, ,0,0,0,0,0, ,-39.3,303.2,954.2,-0.3,-0.4,-1.7,25,-39.3785,302.656,953.493,-0.320615,-0.499238,-1.70342,
2026_07_06_16_10_56.756,3.854,30,0,0.761,0,0,0,0.003, ,0,0,0,0,0, ,-40,303.9,952.6,-0.3,-0.6,-1.7,25,-39.395,302.71,953.488,-0.319359,-0.499284,-1.70321,
2026_07_06_16_10_56.774,3.854,29.9,0,0.76,0,0,0,0.002, ,0,0,0,0,0, ,-40.2,302.3,953.4,-0.2,-0.5,-1.6,25,-39.438,302.734,953.458,-0.315132,-0.502375,-1.69997,
2026_07_06_16_10_56.797,3.854,30,0,0.761,0,0,0,0.003, ,0,0,0,0,0, ,-39.6,303.9,953.3,-0.2,-0.5,-1.7,25,-39.4661,302.757,953.451,-0.308116,-0.50223,-1.69692,
2026_07_06_16_10_56.814,3.854,30,0,0.758,0,0,0,0.002, ,0,0,0,0,0, ,-39,302.6,953.4,-0.1,-0.5,-1.7,25,-39.456,302.787,953.445,-0.298481,-0.502094,-1.69711,
2026_07_06_16_10_56.835,3.854,30,0,0.758,0,0,0,0.002, ,0,0,0,0,0, ,-38.8,301.6,954.2,-0.3,-0.5,-1.8,25,-39.4221,302.745,953.467,-0.29248,-0.501967,-1.70033,
2026_07_06_16_10_56.853,3.854,30,0,0.76,0,0,0,0.002, ,0,0,0,0,0, ,-39.7,301.5,953.1,-0.2,-0.5,-1.7,25,-39.4116,302.672,953.478,-0.289891,-0.501847,-1.70336,
2026_07_06_16_10_56.876,3.854,30,0,0.76,0,0,0,0.002, ,0,0,0,0,0, ,-40,303.7,955.2,-0.4,-0.4,-1.7,25,-39.4384,302.668,953.519,-0.290507,-0.498687,-1.70315,
2026_07_06_16_10_56.893,3.854,30,0,0.76,0,0,0,0.002, ,0,0,0,0,0, ,-39.7,303.1,953.1,-0.3,-0.5,-1.6,25,-39.4634,302.712,953.557,-0.294133,-0.495721,-1.69991,
2026_07_06_16_10_56.915,3.854,30,0,0.76,0,0,0,0.002, ,0,0,0,0,0, ,-38.4,304.1,953,-0.3,-0.5,-1.6,25,-39.4382,302.766,953.527,-0.29449,-0.495981,-1.69383,
2026_07_06_16_10_56.933,3.854,29.9,0,0.76,0,0,0,0.002, ,0,0,0,0,0, ,-41.7,302.9,954.2,-0.2,-0.5,-1.7,25,-39.4755,302.811,953.531,-0.291779,-0.496226,-1.69116,
2026_07_06_16_10_56.955,3.854,29.9,0,0.76,0,0,0,0.003, ,0,0,0,0,0, ,-40.6,303.3,953.4,-0.2,-0.5,-1.8,25,-39.5776,302.829,953.547,-0.286186,-0.496456,-1.69474,
2026_07_06_16_10_56.972,3.854,30,0,0.758,0,0,0,0.003, ,0,0,0,0,0, ,-40.1,301.6,954.5,-0.3,-0.5,-1.7,25,-39.6246,302.806,953.572,-0.283981,-0.496672,-1.69811,
2026_07_06_16_10_56.995,3.854,30,0,0.76,0,0,0,0.002, ,0,0,0,0,0, ,-39.4,301.2,952.3,-0.2,-0.4,-1.7,25,-39.6323,302.72,953.561,-0.28191,-0.493828,-1.69822,
2026_07_06_16_10_57.012,3.854,30,0,0.76,0,0,0,0.002, ,0,0,0,0,0, ,-39.6,303.4,953.3,-0.3,-0.5,-1.8,25,-39.6242,302.694,953.515,-0.279966,-0.491157,-1.70138,
2026_07_06_16_10_57.035,3.854,30,0,0.759,0,0,0,0.002, ,0,0,0,0,0, ,-38.2,301.7,952.1,-0.2,-0.4,-1.7,25,-39.5801,302.686,953.465,-0.27814,-0.488649,-1.70434,
2026_07_06_16_10_57.051,3.854,29.9,0,0.76,0,0,0,0.002, ,0,0,0,0,0, ,-39,302.8,954.5,-0.3,-0.5,-1.7,25,-39.5204,302.659,953.455,-0.276425,-0.486294,-1.70408,
2026_07_06_16_10_57.073,3.854,30,0,0.758,0,0,0,0.003, ,0,0,0,0,0, ,-39.1,301.5,954.3,-0.4,-0.5,-1.7,25,-39.4917,302.628,953.513,-0.280909,-0.487129,-1.70383,
2026_07_06_16_10_57.092,3.854,30,0,0.759,0,0,0,0.002, ,0,0,0,0,0, ,-39.4,303.1,953.6,-0.4,-0.5,-1.7,25,-39.477,302.608,953.539,-0.288166,-0.487914,-1.7036,
2026_07_06_16_10_57.116,3.854,30.1,0,0.76,0,0,0,0.002, ,0,0,0,0,0, ,-39.3,302.1,952.3,-0.4,-0.5,-1.8,25,-39.4692,302.607,953.504,-0.294981,-0.48865,-1.70642,
2026_07_06_16_10_57.131,3.854,30,0,0.758,0,0,0,0.001, ,0,0,0,0,0, ,-39,302.4,952.7,-0.4,-0.5,-1.7,25,-39.4498,302.586,953.442,-0.30138,-0.489342,-1.70908,
2026_07_06_16_10_57.152,3.854,30,0,0.759,0,0,0,0.002, ,0,0,0,0,0, ,-39.5,293,953.9,1.7,-0.5,-1.5,25,-39.4376,302.288,953.434,-0.243406,-0.489991,-1.70243,
2026_07_06_16_10_57.170,3.854,30.1,0,0.759,0,0,0,0.002, ,0,0,0,0,0, ,-39.5,288,955.9,9.4,1.4,3.9,25,-39.4414,301.57,953.523,0.10963,-0.43271,-1.52556,
2026_07_06_16_10_57.192,3.854,30,0,0.76,0,0,0,0.001, ,0,0,0,0,0, ,-37.7,299.4,950.4,35.5,4.3,12.1,25,-39.3901,301.09,953.5,1.471,-0.23267,-0.945101,
2026_07_06_16_10_57.210,3.854,30,0,0.76,0,0,0,0.002, ,0,0,0,0,0, ,-45.4,369.8,944.3,6.2,1.3,3.1,25,-39.5217,303.132,953.126,2.6519,-0.047867,-0.424384,
2026_07_06_16_10_57.233,3.854,30,0,0.759,0,0,0,0.002, ,0,0,0,0,0, ,-36.9,303.2,948.8,-11.1,-1.5,-3.8,25,-39.621,305.165,952.725,2.34101,-0.0510439,-0.419851,
2026_07_06_16_10_57.249,3.854,30.1,0,0.759,0,0,0,0.002, ,0,0,0,0,0, ,-32.1,320.9,942.6,18.2,-2.8,7.2,25,-39.3089,305.585,952.297,2.41468,-0.178949,-0.290673,
2026_07_06_16_10_57.272,3.854,30,0,0.759,0,0,0,0.001, ,0,0,0,0,0, ,-2.8,374.5,964.9,24.4,0.9,9.9,25,-37.9769,308.151,952.385,3.5655,-0.225935,0.248056,
2026_07_06_16_10_57.289,3.854,29.9,0,0.76,0,0,0,0.002, ,0,0,0,0,0, ,-12.3,361.9,1005.1,-5.7,-10.8,2.6,25,-36.1227,311.811,954.373,3.918,-0.513808,0.613799,
2026_07_06_16_10_57.313,3.854,30,0,0.759,0,0,0,0.003, ,0,0,0,0,0, ,62.1,207.7,1020.5,-4.4,-20.9,7.7,25,-32.4042,310.165,957.933,3.37151,-1.44836,0.890224,
2026_07_06_16_10_57.329,3.854,30,0,0.759,0,0,0,0.002, ,0,0,0,0,0, ,18.1,470.9,1093.2,-7.1,-44.5,-1.8,25,-27.9859,311.94,963.961,2.81567,-3.35275,1.01574,
2026_07_06_16_10_57.351,3.854,30,0,0.759,0,0,0,0.002, ,0,0,0,0,0, ,-52.6,318.9,869.5,-14.6,-44.5,17.1,25,-27.3317,316.995,965.021,1.98292,-5.86016,1.42002,
2026_07_06_16_10_57.369,3.854,30,0,0.759,0,0,0,0.002, ,0,0,0,0,0, ,-87.2,362.4,866.9,-7.1,-24.9,25.2,25,-29.9257,318.437,959.121,1.20091,-7.61759,2.62231,
2026_07_06_16_10_57.390,3.854,30,0,0.759,0,0,0,0.002, ,0,0,0,0,0, ,-40.1,313.5,891.6,-2.5,-20,3.4,25,-31.9808,319.626,954.253,0.83523,-8.52144,3.33392,
2026_07_06_16_10_57.408,3.854,30,0,0.758,0,0,0,0.002, ,0,0,0,0,0, ,6.4,340.6,970.4,5.6,-19.5,-6.5,25,-31.0588,320.078,952.836,0.878786,-9.20568,3.03631,
2026_07_06_16_10_57.431,3.854,30,0,0.76,0,0,0,0.002, ,0,0,0,0,0, ,-44.7,307.6,1044.9,-6.9,-32,-2.4,25,-30.3331,320.323,956.177,0.785626,-10.2139,2.58011,
2026_07_06_16_10_57.447,3.854,29.9,0,0.759,0,0,0,0.002, ,0,0,0,0,0, ,-56.6,294,941.5,-14.2,-36.7,4.9,25,-31.5711,319.134,958.433,0.0948611,-11.6846,2.49906,
2026_07_06_16_10_57.471,3.854,30,0,0.759,0,0,0,0.003, ,0,0,0,0,0, ,34.9,191,796.9,-28.6,-21.8,-7.3,25,-30.3084,314.464,952.995,-1.21498,-12.755,2.27365,
2026_07_06_16_10_57.487,3.854,30,0,0.759,0,0,0,0.002, ,0,0,0,0,0, ,128.9,352.1,838,40.4,2.7,-26.7,25,-23.4707,311.849,944.735,-0.781413,-12.5597,1.09916,
2026_07_06_16_10_57.511,3.854,30,0,0.76,0,0,0,0.002, ,0,0,0,0,0, ,80.3,606,854,88,9.3,-26.5,25,-15.6664,322.038,938.719,3.17839,-11.4287,-0.588759,
2026_07_06_16_10_57.526,3.854,30,0,0.759,0,0,0,0.002, ,0,0,0,0,0, ,68.4,610.3,975.4,111.3,1.3,-0.3,25,-10.1811,339.473,937.255,9.05713,-10.4093,-1.36944,
2026_07_06_16_10_57.549,3.854,30,0,0.761,0,0,0,0.002, ,0,0,0,0,0, ,57.8,546.8,1047.2,84,-9.1,9.1,25,-5.7155,354.041,941.767,14.4558,-10.0127,-1.01787,
2026_07_06_16_10_57.565,3.854,30,0,0.758,0,0,0,0.002, ,0,0,0,0,0, ,121.7,462.7,1087,30.4,-42,11.8,25,0.101933,363.225,949.405,17.0605,-10.9595,-0.319045,
2026_07_06_16_10_57.590,3.854,30,0,0.759,0,0,0,0.002, ,0,0,0,0,0, ,154.6,262.3,1063.5,-15.9,-71,6.8,25,8.51424,363.181,957.073,16.4627,-13.7346,0.267115,
2026_07_06_16_10_57.606,3.854,29.9,0,0.759,0,0,0,0.002, ,0,0,0,0,0, ,172.8,350.9,943.7,-35.6,-80.9,-0.9,25,17.9709,359.733,959.909,13.8903,-17.5259,0.430603,
2026_07_06_16_10_57.631,3.854,30,0,0.759,0,0,0,0.003, ,0,0,0,0,0, ,194.9,431.2,897,5.3,-75.9,14.4,25,28.0791,361.641,957.498,12.1207,-21.2354,0.815692,
2026_07_06_16_10_57.645,3.854,30,0,0.759,0,0,0,0.002, ,0,0,0,0,0, ,151.1,438.3,911,-15.4,-68.5,28.3,25,36.9102,366.097,954.238,11.0743,-24.341,2.067,
2026_07_06_16_10_57.668,3.854,30,0,0.761,0,0,0,0.002, ,0,0,0,0,0, ,107.2,377,946,-12.4,-57.2,33.6,25,42.5311,368.629,952.67,9.55247,-26.6877,3.82706,
2026_07_06_16_10_57.685,3.854,30,0,0.76,0,0,0,0.002, ,0,0,0,0,0, ,112.3,369.5,963.6,-30.5,-49.3,19.2,25,46.6273,368.91,952.799,7.66326,-28.3063,5.2026,
2026_07_06_16_10_57.710,3.854,30,0,0.76,0,0,0,0.002, ,0,0,0,0,0, ,174.9,314,964.4,-37.6,-33,2.4,25,52.5365,367.255,953.482,5.12135,-29.089,5.54369,
2026_07_06_16_10_57.724,3.854,29.9,0,0.76,0,0,0,0.002, ,0,0,0,0,0, ,176.6,297.9,940.9,-36,-13.3,-20,25,60.0448,363.519,953.431,2.56677,-28.7271,4.66962,
2026_07_06_16_10_57.749,3.854,30,0,0.759,0,0,0,0.003, ,0,0,0,0,0, ,167.1,366.4,939.2,-41.5,4.4,-32.1,25,66.858,361.608,952.616,0.0490314,-27.2477,2.79764,
2026_07_06_16_10_57.763,3.854,30,0,0.758,0,0,0,0.002, ,0,0,0,0,0, ,213.1,190.9,830.2,-51.5,5.6,-46.5,25,74.368,356.553,948.477,-2.78755,-25.2826,0.232319,
2026_07_06_16_10_57.788,3.854,30,0,0.761,0,0,0,0.002, ,0,0,0,0,0, ,365.6,333.3,967.4,-27.6,-64.9,-11.3,25,87.4685,350.797,945.45,-5.02776,-25.5487,-1.54293,
2026_07_06_16_10_57.804,3.854,30.1,0,0.759,0,0,0,0.002, ,0,0,0,0,0, ,189.4,351.6,963.9,-87.9,-155.1,11.8,25,99.0485,350.288,946.681,-8.24052,-30.695,-1.43368,
2026_07_06_16_10_57.829,3.854,30,0,0.76,0,0,0,0.001, ,0,0,0,0,0, ,218.3,247,889.2,-81.4,-220.4,11.1,25,105.435,347.181,945.454,-12.8967,-40.2655,-0.648576,
2026_07_06_16_10_57.845,3.854,30,0,0.759,0,0,0,0.002, ,0,0,0,0,0, ,372.6,314.5,855.9,-74.6,-250.1,16.4,25,117.014,343.133,941.012,-16.864,-52.1474,0.228837,
2026_07_06_16_10_57.868,3.854,30,0,0.76,0,0,0,0.002, ,0,0,0,0,0, ,471,188.4,818.4,-67.9,-232.1,26.5,25,135.587,337.546,934.683,-20.1781,-63.6617,1.522,
2026_07_06_16_10_57.883,3.854,30,0,0.758,0,0,0,0.002, ,0,0,0,0,0, ,533,525.7,926.5,-32.8,-151.6,50.8,25,157.915,338.735,930.89,-22.0167,-71.4732,3.78449,
2026_07_06_16_10_57.905,3.854,30,0,0.759,0,0,0,0.002, ,0,0,0,0,0, ,598.3,171.8,966.6,-31.7,-111.4,75.4,25,182.761,339.345,931.844,-22.6403,-75.131,7.39903,
2026_07_06_16_10_57.922,3.854,30,0,0.759,0,0,0,0.002, ,0,0,0,0,0, ,598.7,146.3,817.6,-63.4,-128.6,104.7,25,208.096,328.358,929.423,-24.1582,-77.8652,12.4356,
2026_07_06_16_10_57.948,3.854,30,0,0.759,0,0,0,0.002, ,0,0,0,0,0, ,698.8,132.2,663.2,-21,-165.3,81.3,25,234.948,316.834,917.904,-25.2577,-82.0751,17.345,
2026_07_06_16_10_57.962,3.854,30,0,0.759,0,0,0,0.002, ,0,0,0,0,0, ,727.5,126.2,576.1,-24.7,-166.7,50.3,25,264.088,305.4,899.729,-25.1109,-87.1893,20.2977,
2026_07_06_16_10_57.992,3.854,30,0,0.759,0,0,0,0.002, ,0,0,0,0,0, ,764.4,77.1,612,-23.7,-138.1,51.4,25,293.452,292.984,881.102,-25.0554,-91.1631,22.1595,
2026_07_06_16_10_58.002,3.854,30,0,0.759,0,0,0,0.002, ,0,0,0,0,0, ,794.9,125.6,569.7,-29.4,-111.5,51.5,25,323.079,281.307,863.415,-25.1465,-93.2128,23.9444,
2026_07_06_16_10_58.025,3.854,30,0,0.76,0,0,0,0.002, ,0,0,0,0,0, ,779,-36.6,615.8,-23.3,-99.2,51.3,25,351.347,266.876,846.921,-25.2198,-93.9524,25.6174,
2026_07_06_16_10_58.037,3.854,30.1,0,0.759,0,0,0,0.002, ,0,0,0,0,0, ,694.5,-65.9,641.8,-22.5,-119.5,45.8,25,374.832,247.49,833.629,-25.0785,-94.8907,27.0149,
2026_07_06_16_10_58.065,3.854,30,0,0.76,0,0,0,0.001, ,0,0,0,0,0, ,722.9,31.1,588.8,-28.4,-153.5,26.7,25,395.177,231.349,820.325,-25.1011,-97.4263,27.5777,
2026_07_06_16_10_58.081,3.854,30.1,0,0.758,0,0,0,0.002, ,0,0,0,0,0, ,817.5,-13.4,512.5,-21.9,-173.7,28.4,25,418.03,217.79,803.891,-25.1041,-101.459,27.576,
2026_07_06_16_10_58.106,3.854,30,0,0.761,0,0,0,0.001, ,0,0,0,0,0, ,782.9,-45.5,503.2,-24.9,-175.1,37.9,25,441.319,202.724,785.851,-25.0002,-105.904,27.9156,
2026_07_06_16_10_58.119,3.854,30,0,0.76,0,0,0,0.002, ,0,0,0,0,0, ,927.9,-56.5,281.3,-31.8,-123,33.6,25,466.552,187.263,761.866,-25.2044,-108.533,28.393,
2026_07_06_16_10_58.144,3.854,30,0,0.76,0,0,0,0.002, ,0,0,0,0,0, ,799.4,-110.4,418,-56.2,-85.4,3.3,25,490.75,170.766,736.747,-26.3497,-108.269,27.7871,
2026_07_06_16_10_58.159,3.854,30,0,0.76,0,0,0,0.002, ,0,0,0,0,0, ,827.3,-5.6,276.1,-29.8,-55,-30.4,25,510.408,156.826,713,-27.3644,-105.949,25.2682,
2026_07_06_16_10_58.184,3.854,30.1,0,0.76,0,0,0,0.002, ,0,0,0,0,0, ,942.2,72,127.1,15.1,6.4,-31.4,25,533.22,149.292,681.836,-26.1447,-100.973,21.8454,
2026_07_06_16_10_58.200,3.854,30,0,0.758,0,0,0,0.001, ,0,0,0,0,0, ,795.7,-223,586.4,33,-59.9,-23.1,25,553.678,135.594,662.026,-23.086,-96.4505,18.8537,
2026_07_06_16_10_58.223,3.854,30.1,0,0.759,0,0,0,0.002, ,0,0,0,0,0, ,919.1,-108.2,282.4,45.1,-164.4,-41.2,25,572.186,117.24,648.155,-19.2996,-97.4072,15.7456,
2026_07_06_16_10_58.238,3.854,30,0,0.76,0,0,0,0.001, ,0,0,0,0,0, ,1021.8,-67.5,197.6,31.5,-163.5,-15.6,25,596.456,104.742,623.283,-15.7896,-101.462,13.0555,
2026_07_06_16_10_58.264,3.854,30,0,0.759,0,0,0,0.002, ,0,0,0,0,0, ,1005.9,-0.2,187.9,33.7,-132.3,0.1,25,621.891,96.2968,597.048,-12.8409,-104.292,11.7877,
2026_07_06_16_10_58.278,3.854,30,0,0.759,0,0,0,0.002, ,0,0,0,0,0, ,997.4,46.9,149.5,-6.8,-112.1,4.6,25,645.032,91.8516,570.945,-11.2388,-105.383,11.2126,
2026_07_06_16_10_58.304,3.854,30.1,0,0.76,0,0,0,0.002, ,0,0,0,0,0, ,923.4,10.1,125.6,-15.5,-98.4,3.1,25,664.25,87.9911,544.535,-11.2334,-105.375,10.7639,
2026_07_06_16_10_58.317,3.854,30,0,0.759,0,0,0,0.001, ,0,0,0,0,0, ,906.9,1,14,-2,-103.1,4.1,25,679.539,82.9674,515.606,-11.082,-105.093,10.3274,
2026_07_06_16_10_58.344,3.854,30,0,0.759,0,0,0,0.002, ,0,0,0,0,0, ,961.9,-13.6,-46.6,10.5,-100.5,0,25,695.07,77.5277,483.193,-10.1477,-104.893,9.82295,
2026_07_06_16_10_58.364,3.854,30,0,0.758,0,0,0,0.002, ,0,0,0,0,0, ,1029,58.3,-25.7,17.9,-78.3,18.3,25,713.374,74.1653,451.546,-8.66404,-103.948,9.78194,
2026_07_06_16_10_58.388,3.854,30,0,0.758,0,0,0,0.002, ,0,0,0,0,0, ,1004.3,-27.4,-21.3,5.6,-54.1,30.8,25,731.855,70.5873,422.598,-7.42006,-101.648,10.6819,
2026_07_06_16_10_58.398,3.854,30,0,0.759,0,0,0,0.002, ,0,0,0,0,0, ,962.7,-36.3,-23.9,-0.7,-32.6,21.1,25,747.19,64.345,395.468,-6.8186,-98.0957,11.6123,
2026_07_06_16_10_58.422,3.854,30,0,0.759,0,0,0,0.002, ,0,0,0,0,0, ,959.4,-39.1,-71.4,-10.3,-24.4,13,25,760.222,58.1267,368.466,-6.73825,-93.8547,11.9436,
2026_07_06_16_10_58.437,3.854,30,0,0.76,0,0,0,0.002, ,0,0,0,0,0, ,978.6,-53.2,-75.4,-11.5,-10.8,6.9,25,772.944,51.7723,341.54,-6.99186,-89.2079,11.8221,
2026_07_06_16_10_58.463,3.854,30,0,0.759,0,0,0,0.002, ,0,0,0,0,0, ,1015.9,-24.7,-59.3,-15.5,2.1,3.9,25,786.613,46.2439,316.623,-7.38845,-84.0369,11.4308,
2026_07_06_16_10_58.477,3.854,30.1,0,0.76,0,0,0,0.002, ,0,0,0,0,0, ,975.8,27.9,-87.2,23.1,-29.4,-39.1,25,799.363,43.5234,292.865,-6.70665,-79.7477,9.66173,
2026_07_06_16_10_58.502,3.854,30,0,0.76,0,0,0,0.001, ,0,0,0,0,0, ,1099.4,-159,-69.7,11,-62,23.3,25,813.881,36.8768,270.238,-5.25898,-77.6729,8.59157,
2026_07_06_16_10_58.516,3.854,30.2,0,0.759,0,0,0,0.002, ,0,0,0,0,0, ,970.4,-41.6,-91.9,4.3,-34,27,25,827.349,28.5176,248.847,-4.47234,-75.8647,9.6006,
2026_07_06_16_10_58.540,3.854,30,0,0.759,0,0,0,0.001, ,0,0,0,0,0, ,897.5,-96.1,-86.5,4.6,-15.5,4.5,25,833.845,22.5842,228.247,-3.92864,-72.7499,9.97533,
2026_07_06_16_10_58.556,3.854,30,0,0.759,0,0,0,0.002, ,0,0,0,0,0, ,956.2,-88.3,-149.5,-2.2,-12.2,5.9,25,839.513,15.5896,207.148,-3.61611,-69.1607,9.68433,
2026_07_06_16_10_58.581,3.854,30,0,0.76,0,0,0,0.002, ,0,0,0,0,0, ,973.9,-84.5,-130.4,-2.9,-6.1,-1.9,25,847.162,9.37457,185.996,-3.55114,-65.5038,9.21607,
2026_07_06_16_10_58.595,3.854,30.1,0,0.76,0,0,0,0.002, ,0,0,0,0,0, ,904.5,-39.4,-40.5,-1.5,14.7,-14,25,852.771,5.02823,169.455,-3.46881,-61.2501,8.17001,
2026_07_06_16_10_58.620,3.854,30,0,0.76,0,0,0,0.001, ,0,0,0,0,0, ,951.5,-59.3,-90.6,-6.7,6.8,-13.7,25,857.355,1.71456,155.134,-3.50727,-56.8626,6.82816,
2026_07_06_16_10_58.635,3.854,30.1,0,0.76,0,0,0,0.002, ,0,0,0,0,0, ,972,-74.5,-98.1,-1.3,-3.9,-15.8,25,863.717,-2.46664,139.931,-3.5373,-53.3092,5.51324,
2026_07_06_16_10_58.660,3.854,30.1,0,0.758,0,0,0,0.001, ,0,0,0,0,0, ,1015.5,-60.3,-121,-4.1,4.5,-12.8,25,871.641,-6.42352,124.729,-3.48627,-50.0424,4.30588,
2026_07_06_16_10_58.674,3.854,30.1,0,0.759,0,0,0,0.001, ,0,0,0,0,0, ,1044.9,-20.3,-166,10.1,10.3,-9.4,25,881.303,-8.48786,108.383,-3.09102,-46.542,3.36708,
2026_07_06_16_10_58.701,3.854,30,0,0.761,0,0,0,0.001, ,0,0,0,0,0, ,1040.6,-52.2,-88.5,7.1,1.1,-6.3,25,891.141,-10.1796,94.0246,-2.3786,-43.3585,2.68354,
2026_07_06_16_10_58.713,3.854,30.1,0,0.76,0,0,0,0.002, ,0,0,0,0,0, ,1006.1,-10.1,-67,-1.4,-11.2,-2,25,899.198,-11.4575,83.5571,-2.05998,-41.0241,2.26712,
2026_07_06_16_10_58.739,3.854,30.1,0,0.76,0,0,0,0.001, ,0,0,0,0,0, ,1005.9,-32.9,-44.1,-1.5,-7,-3.8,25,905.706,-12.0695,75.0802,-2.02281,-39.0787,1.95225,
2026_07_06_16_10_58.757,3.854,30.1,0,0.759,0,0,0,0.001, ,0,0,0,0,0, ,1006.3,-32.8,-53.4,-4.1,8.3,-3.9,25,911.824,-13.3358,67.5343,-2.07017,-36.6577,1.59867,
2026_07_06_16_10_58.783,3.854,30.1,0,0.759,0,0,0,0.001, ,0,0,0,0,0, ,1003.7,-36.1,-99.8,-4.3,15.3,-5.6,25,917.502,-14.6224,58.7511,-2.19995,-33.7048,1.2118,
2026_07_06_16_10_58.793,3.854,30.1,0,0.76,0,0,0,0.001, ,0,0,0,0,0, ,993.6,-61.2,-132.4,0.7,18.1,-2.2,25,922.447,-16.696,48.0961,-2.17558,-30.6333,0.900302,
2026_07_06_16_10_58.818,3.854,30,0,0.76,0,0,0,0.001, ,0,0,0,0,0, ,986.6,-40.4,-102.1,0,4.6,3.7,25,926.569,-18.7742,38.0204,-2.02168,-28.0749,0.891143,
2026_07_06_16_10_58.833,3.854,30.1,0,0.761,0,0,0,0.002, ,0,0,0,0,0, ,966.4,-24.4,-98.9,1.6,-3.3,-0.1,25,929.612,-19.6045,29.5793,-1.84973,-26.3245,0.946526,
2026_07_06_16_10_58.859,3.854,30.1,0,0.759,0,0,0,0.001, ,0,0,0,0,0, ,988,-47.3,-57.4,2.8,-3.7,-5.3,25,932.512,-20.5945,23.0145,-1.60295,-24.9336,0.724316,
2026_07_06_16_10_58.873,3.854,30.1,0,0.759,0,0,0,0.001, ,0,0,0,0,0, ,1023.5,-50.2,-50.6,0.1,4,-0.9,25,936.975,-22.3102,18.3215,-1.41691,-23.4051,0.491272,
2026_07_06_16_10_58.898,3.854,30,0,0.76,0,0,0,0.001, ,0,0,0,0,0, ,1026.7,-48.3,-59.6,0,12,1.7,25,942.345,-23.9518,13.8473,-1.32752,-21.4914,0.48571,
2026_07_06_16_10_58.912,3.854,30.1,0,0.76,0,0,0,0.002, ,0,0,0,0,0, ,1004,-51.3,-96.5,7.8,32,4,25,946.794,-25.527,8.24735,-1.00897,-18.8411,0.629784,
2026_07_06_16_10_58.939,3.854,30,0,0.76,0,0,0,0.001, ,0,0,0,0,0, ,930.5,-51.1,-51.1,0.6,25.8,1.6,25,948.04,-27.0914,3.24759,-0.69155,-15.9319,0.762031,
2026_07_06_16_10_58.952,3.854,30,0,0.759,0,0,0,0.002, ,0,0,0,0,0, ,945.6,-41.5,-53.5,1.3,-7.6,-2.2,25,947.431,-28.2619,-0.137344,-0.591518,-14.4065,0.697314,
2026_07_06_16_10_58.977,3.854,30.1,0,0.758,0,0,0,0.002, ,0,0,0,0,0, ,993.7,-47.7,-43.5,2.8,-8.6,-7.1,25,948.785,-29.2575,-3.08444,-0.43055,-14.0222,0.371462,
2026_07_06_16_10_58.991,3.854,30,0,0.759,0,0,0,0.001, ,0,0,0,0,0, ,1016.2,-52.1,-34.4,0,4.5,-4,25,952.208,-30.5154,-5.27,-0.319001,-13.2926,0.0106229,
2026_07_06_16_10_59.017,3.854,30,0,0.76,0,0,0,0.002, ,0,0,0,0,0, ,992.4,-49.9,-56.2,-2,12,-0.3,25,955.382,-31.7637,-7.70933,-0.360499,-11.9799,-0.12104,
2026_07_06_16_10_59.031,3.854,30,0,0.758,0,0,0,0.002, ,0,0,0,0,0, ,978.2,-47.6,-65.7,-0.8,13.6,-1.1,25,957.205,-32.7988,-10.9537,-0.423844,-10.4699,-0.15632,
2026_07_06_16_10_59.056,3.854,30,0,0.76,0,0,0,0.002, ,0,0,0,0,0, ,981.2,-42.8,-62.2,1.5,11.7,-4,25,958.576,-33.5545,-14.1831,-0.376688,-9.061,-0.302185,
2026_07_06_16_10_59.070,3.854,30.1,0,0.759,0,0,0,0.002, ,0,0,0,0,0, ,1001.4,-45.5,-49,-0.1,11,-4.2,25,960.57,-34.2002,-16.707,-0.311077,-7.8172,-0.533615,
2026_07_06_16_10_59.097,3.854,30,0,0.758,0,0,0,0.001, ,0,0,0,0,0, ,998.1,-53.5,-30.6,-1.8,13.1,0,25,962.958,-35.1325,-18.1142,-0.350012,-6.60654,-0.629066,
2026_07_06_16_10_59.110,3.854,30.1,0,0.759,0,0,0,0.002, ,0,0,0,0,0, ,976.4,-43.7,-22.8,-3.7,13.5,0.3,25,964.438,-35.9532,-18.6374,-0.496261,-5.39349,-0.581592,
2026_07_06_16_10_59.135,3.854,30,0,0.761,0,0,0,0.001, ,0,0,0,0,0, ,967.4,-42.9,-35.5,-2.7,7.7,-3,25,964.893,-36.4009,-19.278,-0.66102,-4.41888,-0.628417,
2026_07_06_16_10_59.149,3.854,30.1,0,0.759,0,0,0,0.002, ,0,0,0,0,0, ,987.1,-45.5,-38.3,-1.7,0.9,-5.3,25,965.646,-36.8761,-20.3519,-0.754802,-3.88758,-0.843013,
2026_07_06_16_10_59.176,3.854,30,0,0.76,0,0,0,0.001, ,0,0,0,0,0, ,1003.7,-42.9,-16.2,-2.5,1.6,-4.8,25,967.459,-37.3224,-20.7722,-0.836775,-3.57451,-1.09938,
2026_07_06_16_10_59.191,3.854,30,0,0.758,0,0,0,0.002, ,0,0,0,0,0, ,1016.8,-45.1,-7.2,-2.5,5,-0.7,25,970.067,-37.7294,-20.2194,-0.938127,-3.15559,-1.19996,
2026_07_06_16_10_59.218,3.854,30.1,0,0.761,0,0,0,0.002, ,0,0,0,0,0, ,994.8,-40.2,-19.2,-2.7,6,2.6,25,972.244,-38.0292,-19.7916,-1.0394,-2.62814,-1.06895,
2026_07_06_16_10_59.228,3.854,30.1,0,0.761,0,0,0,0.001, ,0,0,0,0,0, ,967.8,-37.4,-30.5,-2.3,2.6,-1,25,972.796,-38.0762,-20.0999,-1.1284,-2.20596,-0.955059,
2026_07_06_16_10_59.255,3.854,30,0,0.76,0,0,0,0.001, ,0,0,0,0,0, ,981.2,-44.9,-20.1,-1.2,-2.6,-4.4,25,972.9,-38.2635,-20.4168,-1.16628,-2.07153,-1.06139,
2026_07_06_16_10_59.269,3.854,30.1,0,0.759,0,0,0,0.002, ,0,0,0,0,0, ,1002,-51.1,-7,-0.9,-2.3,-2.6,25,974.039,-38.8568,-19.9983,-1.1592,-2.0946,-1.20999,
2026_07_06_16_10_59.294,3.854,30.1,0,0.759,0,0,0,0.001, ,0,0,0,0,0, ,999.6,-47.7,-19.4,-1.8,1.8,0.9,25,975.67,-39.4993,-19.584,-1.17082,-1.98219,-1.18806,
2026_07_06_16_10_59.307,3.854,30.1,0,0.758,0,0,0,0.001, ,0,0,0,0,0, ,992,-43,-19.5,-1.7,2.7,1.4,25,976.897,-39.8558,-19.5759,-1.20612,-1.72429,-1.04558,
2026_07_06_16_10_59.334,3.854,30,0,0.76,0,0,0,0.001, ,0,0,0,0,0, ,1024.9,-91.6,0,-1.5,1,-6.8,25,978.819,-41.5282,-18.9771,-1.23012,-1.50648,-1.1464,
2026_07_06_16_10_59.348,3.854,30.1,0,0.76,0,0,0,0.002, ,0,0,0,0,0, ,983.8,-22.5,-22.4,-1.8,1.8,1.4,25,980.375,-42.4741,-18.5032,-1.25571,-1.32937,-1.24107,
2026_07_06_16_10_59.375,3.854,30.1,0,0.76,0,0,0,0.001, ,0,0,0,0,0, ,979.2,-38.3,-6.2,-1.5,3.6,2,25,980.444,-41.7383,-18.2471,-1.27973,-1.08383,-1.06185,
2026_07_06_16_10_59.387,3.854,30.1,0,0.759,0,0,0,0.001, ,0,0,0,0,0, ,978.3,-41.6,-4.2,-0.7,4.9,-1.8,25,980.341,-41.6293,-17.452,-1.26878,-0.758799,-0.991049,
2026_07_06_16_10_59.413,3.854,30,0,0.759,0,0,0,0.001, ,0,0,0,0,0, ,989.2,-57.3,-27.5,-2.4,13.8,1.8,25,980.548,-42.1059,-17.3544,-1.28592,-0.142794,-0.930657,
2026_07_06_16_10_59.426,3.854,30,0,0.758,0,0,0,0.002, ,0,0,0,0,0, ,1025.2,-51.1,33.3,-4.2,41.5,5.6,25,982.172,-42.8429,-16.1201,-1.40865,1.55083,-0.648476,
2026_07_06_16_10_59.453,3.854,30,0,0.759,0,0,0,0.002, ,0,0,0,0,0, ,1016.2,-41.9,64.4,-4.8,55.8,7.5,25,984.52,-43.0657,-12.161,-1.59703,4.42093,-0.209819,
2026_07_06_16_10_59.466,3.854,30,0,0.76,0,0,0,0.002, ,0,0,0,0,0, ,1010.7,-62.3,67.1,-3.8,70.5,7.1,25,986.283,-43.6163,-7.41331,-1.76174,7.99974,0.247811,
2026_07_06_16_10_59.493,3.854,30,0,0.76,0,0,0,0.002, ,0,0,0,0,0, ,1039.5,-97.7,89.9,-4.3,90.6,10,25,988.648,-45.8334,-2.17797,-1.90118,12.4208,0.753725,
2026_07_06_16_10_59.505,3.854,30.1,0,0.76,0,0,0,0.002, ,0,0,0,0,0, ,1036,-63.4,142.2,0.7,112.9,13.9,25,991.641,-47.9489,5.02654,-1.89502,17.8643,1.436,
2026_07_06_16_10_59.532,3.854,30,0,0.76,0,0,0,0.001, ,0,0,0,0,0, ,1047.9,-82.7,196.8,0.1,150,23.5,25,994.706,-49.4785,15.0491,-1.75516,24.7859,2.48802,
2026_07_06_16_10_59.545,3.854,30,0,0.759,0,0,0,0.002, ,0,0,0,0,0, ,1021.6,-91.3,247.3,-3.4,184.7,33.9,25,997.146,-51.765,27.6633,-1.74876,33.4734,4.08532,
2026_07_06_16_10_59.571,3.854,30.1,0,0.759,0,0,0,0.002, ,0,0,0,0,0, ,991.5,-95.9,277.5,-4.5,193.7,38.8,25,997.72,-54.3143,41.9675,-1.88289,42.963,6.05144,
2026_07_06_16_10_59.584,3.854,30.1,0,0.76,0,0,0,0.001, ,0,0,0,0,0, ,909.5,-85.9,303.7,-7.9,190.5,36.8,25,994.842,-56.5438,57.1186,-2.14597,52.051,7.98612,
2026_07_06_16_10_59.611,3.854,30.1,0,0.759,0,0,0,0.001, ,0,0,0,0,0, ,880.8,-98.7,328,-11.9,173.5,27.6,25,988.767,-58.7226,72.885,-2.61848,59.9698,9.46165,
2026_07_06_16_10_59.624,3.854,30.1,0,0.76,0,0,0,0.001, ,0,0,0,0,0, ,850.9,-101.8,335.5,-9.9,165.5,20.4,25,981.277,-61.2532,88.6596,-3.12313,66.6443,10.3476,
2026_07_06_16_10_59.652,3.854,30,0,0.76,0,0,0,0.001, ,0,0,0,0,0, ,811.4,-116.9,414,-5.2,151.5,9.7,25,972.128,-64.1841,106.093,-3.3929,72.2417,10.6341,
2026_07_06_16_10_59.665,3.854,30.1,0,0.76,0,0,0,0.002, ,0,0,0,0,0, ,804.5,-120.8,467.8,0,148.7,4.1,25,962.124,-67.5153,126.496,-3.34458,76.9862,10.4066,
2026_07_06_16_10_59.693,3.854,30,0,0.759,0,0,0,0.001, ,0,0,0,0,0, ,775.6,-120.2,517,5.6,152.3,-1,25,951.638,-70.7441,148.793,-2.97014,81.466,9.86689,
2026_07_06_16_10_59.704,3.854,30,0,0.76,0,0,0,0.002, ,0,0,0,0,0, ,741.6,-131.2,537.1,2.5,128,-8.2,25,939.875,-74.093,171.843,-2.54235,85.042,8.98531,
2026_07_06_16_10_59.731,3.854,30.1,0,0.759,0,0,0,0.002, ,0,0,0,0,0, ,739.6,-127.1,590.2,1.8,118.9,-8.5,25,927.732,-77.448,195.719,-2.25641,87.3825,7.92894,
2026_07_06_16_10_59.743,3.854,30.1,0,0.759,0,0,0,0.001, ,0,0,0,0,0, ,755.9,-138.6,688.2,1.7,136.3,-5.7,25,916.764,-80.824,222.743,-2.01227,89.8333,7.01312,
2026_07_06_16_10_59.770,3.854,30,0,0.758,0,0,0,0.001, ,0,0,0,0,0, ,744,-155.8,675.4,4.3,162,0.5,25,906.599,-84.8688,250.717,-1.70684,93.4479,6.42732,
2026_07_06_16_10_59.782,3.854,30.1,0,0.76,0,0,0,0.002, ,0,0,0,0,0, ,644.7,-138.1,636.9,10.8,162,3.4,25,893.665,-88.6519,275.423,-1.14275,97.6253,6.15448,
2026_07_06_16_10_59.811,3.854,30,0,0.758,0,0,0,0.001, ,0,0,0,0,0, ,604,-144.6,657.4,23.7,137.7,4.5,25,877.253,-91.8632,298.075,-0.0219408,100.808,6.02015,
2026_07_06_16_10_59.823,3.854,30,0,0.76,0,0,0,0.002, ,0,0,0,0,0, ,601.5,-123.2,726.4,31.2,126.2,10.6,25,860.526,-94.4248,322.074,1.65213,102.705,6.11337,
2026_07_06_16_10_59.850,3.854,30.1,0,0.759,0,0,0,0.002, ,0,0,0,0,0, ,589.7,-124.6,769.6,39.3,146.9,15.6,25,844.382,-96.221,348.029,3.6995,104.768,6.53912,
2026_07_06_16_10_59.863,3.854,30.1,0,0.76,0,0,0,0.001, ,0,0,0,0,0, ,498.6,-100.7,798.2,39.8,149.5,16.6,25,826.087,-97.2221,374.59,5.88414,107.414,7.12174,
2026_07_06_16_10_59.891,3.854,29.9,0,0.761,0,0,0,0.001, ,0,0,0,0,0, ,424.8,-84.1,803.7,41.1,120.4,16.8,25,803.882,-96.9283,400.571,7.9905,109.092,7.70541,
2026_07_06_16_10_59.902,3.854,30.1,0,0.76,0,0,0,0.003, ,0,0,0,0,0, ,382.4,-65,876,40.5,99.9,16.8,25,779.49,-95.5646,427.34,9.98983,109.157,8.25961,
2026_07_06_16_10_59.929,3.854,30.1,0,0.76,0,0,0,0.001, ,0,0,0,0,0, ,409.9,-52.1,916.6,42.3,115.3,13.9,25,756.13,-93.309,455.917,11.9039,109.062,8.69168,
2026_07_06_16_10_59.942,3.854,30.1,0,0.76,0,0,0,0.001, ,0,0,0,0,0, ,388.7,-48.4,932.9,40,117.9,11,25,734.386,-90.6851,484.486,13.6861,109.521,8.92071,
2026_07_06_16_10_59.970,3.854,30,0,0.758,0,0,0,0.001, ,0,0,0,0,0, ,322.2,-28.5,882.5,30.9,82.7,12.6,25,711.294,-87.502,510.276,15.0123,108.959,9.09616,
2026_07_06_16_10_59.981,3.854,30,0,0.759,0,0,0,0.002, ,0,0,0,0,0, ,299.8,-19.8,912.4,29,53.5,12.7,25,686.901,-83.6415,533.869,15.9226,106.47,9.31272,
2026_07_06_16_11_00.009,3.854,30,0,0.76,0,0,0,0.002, ,0,0,0,0,0, ,285.2,-16.2,981.5,28.1,48.4,14.5,25,662.867,-79.6415,559.041,16.6921,103.086,9.57398,
2026_07_06_16_11_00.021,3.854,30.1,0,0.759,0,0,0,0.002, ,0,0,0,0,0, ,251.3,-10.2,1000.6,26.8,50.8,12.4,25,638.82,-75.5927,585.367,17.3476,99.827,9.81018,
2026_07_06_16_11_00.048,3.854,30.1,0,0.76,0,0,0,0.001, ,0,0,0,0,0, ,234.7,-0.3,998,23,46.8,9.6,25,614.7,-71.3062,610.591,17.8078,96.7176,9.88268,
2026_07_06_16_11_00.059,3.854,30,0,0.76,0,0,0,0.001, ,0,0,0,0,0, ,225.2,-14.5,996.2,24.1,47.2,10.4,25,591.254,-67.4119,634.144,18.1578,93.6879,9.88983,
2026_07_06_16_11_00.087,3.854,30.1,0,0.76,0,0,0,0.002, ,0,0,0,0,0, ,184.9,-16.4,1024.9,21,44.1,11.9,25,567.72,-64.2455,657.081,18.4254,90.7606,9.96662,
2026_07_06_16_11_00.100,3.854,30,0,0.759,0,0,0,0.001, ,0,0,0,0,0, ,164.9,15.6,1000.9,16.1,47.9,11.2,25,543.783,-60.3549,678.764,18.433,88.033,10.0631,
2026_07_06_16_11_00.128,3.854,30,0,0.759,0,0,0,0.002, ,0,0,0,0,0, ,139,15.2,968.5,17.5,52.8,7.2,25,519.905,-55.7386,697.407,18.3335,85.7367,10.0105,
2026_07_06_16_11_00.146,3.854,30,0,0.76,0,0,0,0.002, ,0,0,0,0,0, ,128.1,4.1,955.9,17.6,37.7,6,25,496.362,-51.754,713.543,18.2857,83.2695,9.80268,
2026_07_06_16_11_00.173,3.854,30,0,0.76,0,0,0,0.002, ,0,0,0,0,0, ,123.2,3.1,974.7,17.4,23.6,6.2,25,473.772,-48.3808,728.884,18.2379,80.063,9.57705,
2026_07_06_16_11_00.179,3.854,30,0,0.759,0,0,0,0.002, ,0,0,0,0,0, ,110.9,23.4,997.4,14.9,18.4,6.6,25,452.034,-44.6252,744.555,18.1106,76.4639,9.38345,
2026_07_06_16_11_00.207,3.854,30.1,0,0.76,0,0,0,0.002, ,0,0,0,0,0, ,118.1,46.5,970.9,16.1,18.5,3.9,25,431.465,-39.7761,759.155,17.9515,72.9286,9.13157,
2026_07_06_16_11_00.219,3.854,30.1,0,0.759,0,0,0,0.001, ,0,0,0,0,0, ,116.4,49.1,946.4,20.1,11.5,3,25,412.318,-34.4394,771.312,17.9606,69.3986,8.78535,
2026_07_06_16_11_00.247,3.854,30.1,0,0.759,0,0,0,0.001, ,0,0,0,0,0, ,107,44.7,954.2,21.9,1.9,2.7,25,393.999,-29.4828,782.219,18.1458,65.5779,8.42366,
2026_07_06_16_11_00.258,3.854,30.2,0,0.759,0,0,0,0.001, ,0,0,0,0,0, ,101.6,35,1043.7,20.4,-14.5,4.1,25,376.345,-25.2578,795.426,18.3289,61.1979,8.11753,
2026_07_06_16_11_00.287,3.854,30.1,0,0.76,0,0,0,0, ,0,0,0,0,0, ,120.3,47.2,1085.8,1.6,-7.8,4.7,25,360.173,-21.2142,811.838,17.8823,56.7892,7.891,
2026_07_06_16_11_00.297,3.854,30.1,0,0.76,0,0,0,0.001, ,0,0,0,0,0, ,122.3,48.3,1090.8,0.7,11.3,3,25,345.617,-17.0117,828.685,16.8627,53.4352,7.64475,
2026_07_06_16_11_00.327,3.854,30,0,0.759,0,0,0,0.001, ,0,0,0,0,0, ,130.8,73.7,1027.2,5.2,26.3,1.2,25,332.267,-12.2578,842.72,16.0148,51.3246,7.30686,
2026_07_06_16_11_00.337,3.854,30,0,0.759,0,0,0,0.002, ,0,0,0,0,0, ,96.6,70.8,946.2,13.2,19.8,-2,25,318.948,-7.10812,851.494,15.5996,49.6016,6.83723,
2026_07_06_16_11_00.365,3.854,30.1,0,0.759,0,0,0,0.002, ,0,0,0,0,0, ,104.7,66.8,981.6,4.8,-6.2,0.6,25,305.646,-2.48247,858.343,15.1974,46.9934,6.37793,
2026_07_06_16_11_00.377,3.854,30,0,0.76,0,0,0,0.001, ,0,0,0,0,0, ,136.9,44.6,1063.5,-8.4,-11.1,5.6,25,294.382,1.06302,868.35,14.1616,43.6027,6.17818,
2026_07_06_16_11_00.404,3.854,30.1,0,0.76,0,0,0,0.002, ,0,0,0,0,0, ,120.6,42.8,1067.9,-0.7,2.1,4.9,25,284.289,3.66121,880.376,13.0214,40.6714,6.12162,
2026_07_06_16_11_00.416,3.854,30.1,0,0.758,0,0,0,0.001, ,0,0,0,0,0, ,109.2,59.3,1001.4,4.9,6.2,3.4,25,273.966,6.54897,889.777,12.3559,38.4459,6.00147,
2026_07_06_16_11_00.445,3.854,30,0,0.761,0,0,0,0.001, ,0,0,0,0,0, ,99.8,58.8,956,8.2,-3.7,5.7,25,263.64,9.74825,895.196,12.0021,36.1793,5.91302,
2026_07_06_16_11_00.456,3.854,30.1,0,0.758,0,0,0,0.002, ,0,0,0,0,0, ,83.4,69.5,976.1,5.4,-17.4,8.3,25,253.156,13.0634,899.513,11.6851,33.3317,5.97926,
2026_07_06_16_11_00.487,3.854,30.1,0,0.759,0,0,0,0.001, ,0,0,0,0,0, ,81.9,65.3,1053.1,-0.9,-20.7,5.9,25,242.766,16.3745,906.526,11.1101,30.1397,6.04756,
2026_07_06_16_11_00.495,3.854,30.1,0,0.761,0,0,0,0.001, ,0,0,0,0,0, ,87,74.9,1059,1.7,-12.6,2.9,25,233.118,19.6484,915.638,10.4575,27.2884,5.94716,
2026_07_06_16_11_00.525,3.854,30,0,0.759,0,0,0,0.001, ,0,0,0,0,0, ,113.2,82.8,1080.8,3.1,-5.3,-2.7,25,225.013,23.256,925.038,9.96647,25.0802,5.59085,
2026_07_06_16_11_00.536,3.854,30,0,0.76,0,0,0,0.002, ,0,0,0,0,0, ,103.3,80,1036.7,-2.6,-4.7,-4.4,25,217.897,26.7991,933.186,9.37437,23.2471,5.03383,
2026_07_06_16_11_00.563,3.854,30.2,0,0.761,0,0,0,0.002, ,0,0,0,0,0, ,146.3,68.7,1003.9,-1.4,-1.5,-5.9,25,212.224,29.6968,938.495,8.68125,21.6416,4.41325,
2026_07_06_16_11_00.574,3.854,30,0,0.76,0,0,0,0, ,0,0,0,0,0, ,154.9,63.4,982.6,0,3.2,-4.5,25,208.469,31.912,941.832,8.10958,20.3746,3.82744,
2026_07_06_16_11_00.604,3.854,30.1,0,0.759,0,0,0,0.002, ,0,0,0,0,0, ,146.6,62.5,963,-4.8,-1.6,-1.7,25,204.952,33.8034,943.719,7.46915,19.1818,3.4053,
2026_07_06_16_11_00.614,3.854,30,0,0.76,0,0,0,0.001, ,0,0,0,0,0, ,150,60.3,966.6,-6.7,-7.2,-1.1,25,201.499,35.4851,945.003,6.66361,17.7448,3.11248,
2026_07_06_16_11_00.643,3.854,30.1,0,0.759,0,0,0,0.002, ,0,0,0,0,0, ,154.7,57.9,984.6,-3.2,-0.6,-1.6,25,198.504,36.9241,946.868,5.9559,16.4258,2.84055,
2026_07_06_16_11_00.654,3.854,30,0,0.761,0,0,0,0.001, ,0,0,0,0,0, ,151.4,63.3,989.2,4.1,10.3,-2.9,25,195.735,38.3669,949.307,5.62039,15.7204,2.53034,
2026_07_06_16_11_00.684,3.854,30.1,0,0.759,0,0,0,0.002, ,0,0,0,0,0, ,146.1,58.9,963.2,0.6,5.4,-1.3,25,192.871,39.7522,950.946,5.4211,15.2408,2.24818,
2026_07_06_16_11_00.697,3.854,30,0,0.759,0,0,0,0.001, ,0,0,0,0,0, ,145.5,57.7,966.7,-0.1,-2.9,1.3,25,190.003,40.8824,951.799,5.10599,14.3882,2.11118,
2026_07_06_16_11_00.726,3.854,30.1,0,0.759,0,0,0,0.002, ,0,0,0,0,0, ,138.9,56.2,974.4,0.3,-4.4,2.8,25,187.09,41.8615,952.942,4.80093,13.289,2.10745,
2026_07_06_16_11_00.732,3.854,30.1,0,0.759,0,0,0,0.001, ,0,0,0,0,0, ,116.8,64.2,1004.5,1,0.5,2.3,25,183.48,42.979,955.167,4.54799,12.3604,2.13442,
2026_07_06_16_11_00.762,3.854,30.1,0,0.761,0,0,0,0.001, ,0,0,0,0,0, ,106.2,60.3,997.3,2.1,3.9,-0.9,25,179.094,44.1534,957.954,4.3653,11.7413,2.04701,
2026_07_06_16_11_00.773,3.854,30,0,0.76,0,0,0,0.001, ,0,0,0,0,0, ,120.3,60.9,981.2,5.8,6.9,-3.1,25,175.081,45.1556,959.861,4.33999,11.3548,1.8004,
2026_07_06_16_11_00.802,3.854,30.1,0,0.759,0,0,0,0.002, ,0,0,0,0,0, ,108.3,101.4,977.7,1.4,2.5,-1,25,171.378,47.349,961.054,4.2949,10.9493,1.56576,
2026_07_06_16_11_00.811,3.854,30,0,0.76,0,0,0,0.001, ,0,0,0,0,0, ,128.6,52.4,1006.2,2.3,-1.4,-4,25,168.152,49.1498,962.937,4.14591,10.3156,1.31801,
2026_07_06_16_11_00.844,3.854,30,0,0.76,0,0,0,0.002, ,0,0,0,0,0, ,132.5,68.1,1005.3,0,1.5,-1.8,25,165.861,49.8262,965.546,3.96335,9.69004,1.06097,
2026_07_06_16_11_00.853,3.854,30.1,0,0.759,0,0,0,0.002, ,0,0,0,0,0, ,116,66.7,995.7,0.2,2.8,-2.3,25,163.325,50.8971,967.676,3.72792,9.23057,0.871396,
2026_07_06_16_11_00.882,3.854,30.1,0,0.758,0,0,0,0.001, ,0,0,0,0,0, ,120.6,69,982.5,1.8,1.1,-3.2,25,160.582,51.9302,968.982,3.56169,8.78691,0.650717,
2026_07_06_16_11_00.891,3.854,30.1,0,0.76,0,0,0,0.001, ,0,0,0,0,0, ,127.1,71.1,990.1,0.6,-3.3,-2.5,25,158.343,53.0343,970.037,3.41778,8.18442,0.437392,
2026_07_06_16_11_00.921,3.854,30.1,0,0.76,0,0,0,0.001, ,0,0,0,0,0, ,134.1,71,992.7,1,-5.8,-1,25,156.653,54.1322,971.339,3.25825,7.40842,0.304098,
2026_07_06_16_11_00.931,3.854,30.1,0,0.759,0,0,0,0.001, ,0,0,0,0,0, ,125.3,71.7,1001.4,-0.5,-6.1,0,25,155.01,55.1814,972.906,3.07494,6.59439,0.255098,
2026_07_06_16_11_00.961,3.854,30.1,0,0.76,0,0,0,0.001, ,0,0,0,0,0, ,113.6,70.9,1016.9,-1.3,-4.1,0,25,152.843,56.1636,975.114,2.83272,5.88176,0.239553,
2026_07_06_16_11_00.970,3.854,30,0,0.759,0,0,0,0.001, ,0,0,0,0,0, ,110.7,75.5,1008.9,-0.1,-2.2,-3.1,25,150.363,57.2018,977.417,2.61744,5.33139,0.130502,
2026_07_06_16_11_01.000,3.854,30.1,0,0.759,0,0,0,0.002, ,0,0,0,0,0, ,122.6,77.5,1016.3,1.5,-5,-4.7,25,148.309,58.3777,979.561,2.5006,4.78713,-0.115106,
2026_07_06_16_11_01.010,3.854,30.1,0,0.759,0,0,0,0.001, ,0,0,0,0,0, ,122.1,70.6,999.3,3.4,-10.8,-2.9,25,146.727,59.3328,981.282,2.49751,4.01401,-0.339655,
2026_07_06_16_11_01.040,3.854,30.1,0,0.76,0,0,0,0.001, ,0,0,0,0,0, ,156.3,150.3,983.7,-2.3,-21.8,-2.2,25,146.269,62.4477,981.904,2.37884,2.77613,-0.474348,
2026_07_06_16_11_01.049,3.854,30.1,0,0.76,0,0,0,0.001, ,0,0,0,0,0, ,105.5,52.1,987.3,17.7,-38.9,-0.8,25,145.332,64.8092,982.123,2.7031,0.757504,-0.536848,
2026_07_06_16_11_01.079,3.854,30,0,0.759,0,0,0,0.001, ,0,0,0,0,0, ,178.2,76.9,1072.5,-9.3,-64,3.6,25,145.12,64.7904,985.035,2.79431,-2.42389,-0.418822,
2026_07_06_16_11_01.088,3.854,30,0,0.759,0,0,0,0.001, ,0,0,0,0,0, ,205.8,77.6,1040.8,-20.3,-79,3.1,25,147.977,65.5496,989.399,1.72216,-6.63322,-0.189159,
2026_07_06_16_11_01.118,3.854,30.2,0,0.759,0,0,0,0.001, ,0,0,0,0,0, ,210.6,-60.5,1031.8,-12.8,-95.1,1.3,25,151.646,62.0762,992.257,0.608701,-11.5336,-0.0435696,
2026_07_06_16_11_01.129,3.854,30.1,0,0.76,0,0,0,0, ,0,0,0,0,0, ,263.3,145,1041.7,-8.5,-110.8,5.4,25,156.845,60.868,994.968,-0.0773765,-17.1043,0.163226,
2026_07_06_16_11_01.157,3.854,30.1,0,0.76,0,0,0,0.001, ,0,0,0,0,0, ,321.5,28.9,1076,-23.5,-123.9,6.6,25,165.105,62.4574,998.861,-1.04766,-23.213,0.518904,
2026_07_06_16_11_01.169,3.854,30.1,0,0.76,0,0,0,0.001, ,0,0,0,0,0, ,419,2.5,1095.7,-33.5,-118.6,13.6,25,177.606,59.6081,1004.16,-2.72054,-29.1871,1.10275,
2026_07_06_16_11_01.198,3.854,29.9,0,0.759,0,0,0,0.001, ,0,0,0,0,0, ,443.1,28.5,1043.2,-36.5,-103,17.5,25,193.05,56.9203,1008.14,-4.68757,-34.1604,1.98313,
2026_07_06_16_11_01.208,3.854,30.1,0,0.758,0,0,0,0.002, ,0,0,0,0,0, ,379.7,-65.7,916.1,-32,-111,23.8,25,206.356,52.3183,1006.4,-6.48903,-38.5991,3.12064,
2026_07_06_16_11_01.239,3.854,30.1,0,0.759,0,0,0,0.001, ,0,0,0,0,0, ,385,45.8,935.6,-37.8,-143.6,28.9,25,217.081,48.5238,1001.5,-8.22032,-44.0043,4.53618,
2026_07_06_16_11_01.253,3.854,30,0,0.761,0,0,0,0.001, ,0,0,0,0,0, ,455,4.6,855.3,-39.1,-169.2,15.6,25,229.446,47.1025,995.033,-10.0624,-50.8534,5.61562,
2026_07_06_16_11_01.283,3.854,30.2,0,0.757,0,0,0,0.001, ,0,0,0,0,0, ,565.7,-38.3,852.2,-40,-195.9,17.2,25,246.564,43.2054,986.424,-11.8593,-58.8787,6.27279,
2026_07_06_16_11_01.287,3.854,30.1,0,0.759,0,0,0,0, ,0,0,0,0,0, ,628.4,-44,822.9,-45.6,-207,18.9,25,267.921,38.065,977.352,-13.7448,-67.5666,6.99046,
2026_07_06_16_11_01.316,3.854,30.1,0,0.76,0,0,0,0.001, ,0,0,0,0,0, ,667.1,-59.8,692.8,-42.3,-190.6,23.6,25,291.067,32.5828,963.976,-15.5854,-75.5636,7.85941,
2026_07_06_16_11_01.327,3.854,30,0,0.76,0,0,0,0.001, ,0,0,0,0,0, ,671.8,-62,655.8,-28.3,-167.1,24.6,25,314.125,26.8861,946.324,-16.7868,-81.8577,8.84907,
2026_07_06_16_11_01.356,3.854,30,0,0.759,0,0,0,0.001, ,0,0,0,0,0, ,667.1,-63.2,685.9,-25.9,-167.9,17.8,25,335.777,21.4331,929.537,-17.4152,-87.0765,9.6017,
2026_07_06_16_11_01.367,3.854,30,0,0.759,0,0,0,0.001, ,0,0,0,0,0, ,765.3,-97.9,662.3,-33,-182.2,13,25,358.959,15.2185,913.971,-18.1486,-92.4374,9.95504,
2026_07_06_16_11_01.398,3.854,30,0,0.759,0,0,0,0.001, ,0,0,0,0,0, ,830.4,-138,568.9,-28.3,-166.4,13.8,25,385.704,7.10354,895.789,-18.9104,-97.4259,10.165,
2026_07_06_16_11_01.406,3.854,30,0,0.759,0,0,0,0.001, ,0,0,0,0,0, ,803.2,-110.2,454.8,-24.9,-148.9,15.6,25,411.974,-0.891676,872.393,-19.379,-101.096,10.4413,
2026_07_06_16_11_01.437,3.854,30.1,0,0.759,0,0,0,0.001, ,0,0,0,0,0, ,776.6,-109.1,417.9,-21.2,-136.2,12.4,25,435.004,-7.51914,845.822,-19.6027,-103.622,10.6582,
2026_07_06_16_11_01.446,3.854,30.1,0,0.759,0,0,0,0.001, ,0,0,0,0,0, ,800.7,-121.9,408.3,-21.1,-129.3,7.3,25,456.554,-14.0992,819.453,-19.697,-105.397,10.6089,
2026_07_06_16_11_01.477,3.854,30,0,0.76,0,0,0,0.001, ,0,0,0,0,0, ,829.3,-152.3,403.5,-21,-122.3,4.2,25,478.397,-21.5946,794.252,-19.7794,-106.64,10.3128,
2026_07_06_16_11_01.486,3.854,30.1,0,0.761,0,0,0,0.001, ,0,0,0,0,0, ,826.4,-157.3,337.7,-17.4,-131.1,3.1,25,499.692,-29.7118,768.436,-19.7441,-107.863,9.90682,
2026_07_06_16_11_01.515,3.854,30,0,0.759,0,0,0,0.001, ,0,0,0,0,0, ,840.9,-150.6,304.4,-18.6,-132.6,-2.9,25,520.043,-37.2825,741.173,-19.6378,-109.324,9.30922,
2026_07_06_16_11_01.526,3.854,30,0,0.758,0,0,0,0.001, ,0,0,0,0,0, ,898,-163.3,273.1,-17.1,-121.4,-5,25,541.335,-44.5748,713.604,-19.5289,-110.401,8.50123,
2026_07_06_16_11_01.556,3.854,30,0,0.758,0,0,0,0.001, ,0,0,0,0,0, ,906.4,-172.3,248.2,-18.4,-106.2,-3.7,25,563.325,-52.0838,686.002,-19.4205,-110.609,7.71811,
2026_07_06_16_11_01.564,3.854,30.1,0,0.76,0,0,0,0.001, ,0,0,0,0,0, ,871.9,-156.4,156.8,-14.7,-110.3,-3.9,25,583.18,-58.925,656.538,-19.2456,-110.465,7.01623,
2026_07_06_16_11_01.595,3.854,29.9,0,0.76,0,0,0,0.001, ,0,0,0,0,0, ,878.2,-151.7,130.3,-18.1,-103.6,-7.8,25,600.966,-64.7217,625.278,-19.0722,-110.251,6.23219,
2026_07_06_16_11_01.604,3.854,30.2,0,0.76,0,0,0,0.002, ,0,0,0,0,0, ,926.8,-161.6,91.5,-15.3,-82.7,-9.8,25,619.34,-70.3236,593.933,-18.9276,-109.209,5.31617,
2026_07_06_16_11_01.636,3.854,30,0,0.759,0,0,0,0, ,0,0,0,0,0, ,954.7,-163,71.2,-16.9,-70.5,-10.3,25,638.926,-75.9284,562.698,-18.7553,-107.221,4.37979,
2026_07_06_16_11_01.644,3.854,29.9,0,0.759,0,0,0,0.001, ,0,0,0,0,0, ,963.5,-171.2,44.7,-15.4,-54.2,-4.2,25,658.437,-81.4842,531.94,-18.5965,-104.487,3.6711,
2026_07_06_16_11_01.675,3.854,30.1,0,0.759,0,0,0,0.002, ,0,0,0,0,0, ,941.1,-160.1,18.3,-15.8,-50.5,-3.7,25,676.344,-86.613,501.444,-18.4139,-101.31,3.20669,
2026_07_06_16_11_01.683,3.854,30,0,0.76,0,0,0,0.001, ,0,0,0,0,0, ,909.1,-148.1,-26.3,-9.9,-50.2,-6.5,25,691.503,-90.7255,470.644,-18.0749,-98.2046,2.7005,
2026_07_06_16_11_01.713,3.854,30,0,0.76,0,0,0,0.001, ,0,0,0,0,0, ,914.4,-129.2,-68.6,-1.7,-45.5,-12.1,25,704.924,-93.6459,439.072,-17.3269,-95.1362,1.96922,
2026_07_06_16_11_01.722,3.854,29.9,0,0.76,0,0,0,0.001, ,0,0,0,0,0, ,937.6,-144.5,-73.2,7,-37.5,-26.6,25,718.396,-96.2787,407.996,-16.1095,-91.8677,0.67008,
2026_07_06_16_11_01.753,3.854,30,0,0.76,0,0,0,0.002, ,0,0,0,0,0, ,986.2,-137.6,-14.4,-3.4,-33.5,-20.1,25,733.234,-99.0069,380.464,-15.0182,-88.4328,-0.793643,
2026_07_06_16_11_01.762,3.854,30.1,0,0.758,0,0,0,0.001, ,0,0,0,0,0, ,950.5,-104.1,-15.1,-1.5,-32.1,-21.2,25,747.562,-100.338,356.381,-14.2523,-85.0427,-2.00364,
2026_07_06_16_11_01.793,3.854,30,0,0.759,0,0,0,0.001, ,0,0,0,0,0, ,966.7,-112.1,-26.1,-1.1,-27.8,-19.2,25,760.422,-100.811,333.409,-13.463,-81.6855,-3.11248,
2026_07_06_16_11_01.802,3.854,30.1,0,0.76,0,0,0,0.001, ,0,0,0,0,0, ,985.4,-108.3,-49.8,-1.1,-17.6,-19.4,25,773.562,-101.383,310.779,-12.7097,-78.091,-4.09891,
2026_07_06_16_11_01.832,3.854,30,0,0.76,0,0,0,0.001, ,0,0,0,0,0, ,979.3,-92.7,-69.4,-4.2,-10.8,-19.1,25,786.285,-101.329,288.209,-12.0966,-74.1977,-5.02218,
2026_07_06_16_11_01.843,3.854,30.1,0,0.759,0,0,0,0.001, ,0,0,0,0,0, ,994.9,-86.7,-51.8,-4.9,-3.9,-21.6,25,798.522,-100.621,266.954,-11.6368,-70.1241,-5.95622,
2026_07_06_16_11_01.873,3.854,30.1,0,0.759,0,0,0,0.001, ,0,0,0,0,0, ,1020.9,-92.7,-9.2,-6.5,-0.4,-21.1,25,811.281,-99.9552,248.828,-11.275,-65.982,-6.89427,
2026_07_06_16_11_01.882,3.854,30.1,0,0.76,0,0,0,0, ,0,0,0,0,0, ,1028.6,-93.2,-36.7,-6.9,-7.3,-17.3,25,824.289,-99.5283,232.266,-10.9962,-62.1958,-7.64415,
2026_07_06_16_11_01.912,3.854,30.1,0,0.758,0,0,0,0, ,0,0,0,0,0, ,1034,-80.3,-57.6,-7.6,-10.5,-14.2,25,836.904,-98.7496,215.239,-10.7679,-58.9481,-8.1381,
2026_07_06_16_11_01.926,3.854,30,0,0.761,0,0,0,0, ,0,0,0,0,0, ,1044,-78.7,-69.3,-7.3,-2.8,-11.4,25,849.219,-97.5766,198.257,-10.5657,-55.7612,-8.42219,
2026_07_06_16_11_01.957,3.854,30,0,0.759,0,0,0,0.001, ,0,0,0,0,0, ,1053.8,-78.9,-91.4,-5.1,10.9,-8.7,25,861.387,-96.4324,181.279,-10.2997,-52.1164,-8.52138,
2026_07_06_16_11_01.962,3.854,30.1,0,0.759,0,0,0,0.001, ,0,0,0,0,0, ,1029.2,-74.9,-44.3,-4.8,17.7,-5.6,25,872.363,-95.2421,166.098,-9.97371,-48.0692,-8.43782,
2026_07_06_16_11_01.990,3.854,30.1,0,0.761,0,0,0,0, ,0,0,0,0,0, ,994.2,-70.9,-27.3,-4.5,4.3,-1.3,25,880.854,-93.8807,153.795,-9.64929,-44.4697,-8.13387,
2026_07_06_16_11_02.001,3.854,30.1,0,0.76,0,0,0,0, ,0,0,0,0,0, ,981,-62,-83.8,-3.2,-6.7,-2.9,25,887.359,-92.2091,141.038,-9.2959,-41.8329,-7.76618,
2026_07_06_16_11_02.030,3.854,30.1,0,0.761,0,0,0,0, ,0,0,0,0,0, ,997.8,-63.5,-73.9,-0.2,-10.1,-7.2,25,893.577,-90.4139,127.638,-8.83302,-39.7956,-7.60066,
2026_07_06_16_11_02.039,3.854,30,0,0.761,0,0,0,0, ,0,0,0,0,0, ,1002.4,-57.3,-62.3,2.6,-6.7,-4.4,25,900.068,-88.585,115.71,-8.22164,-37.8824,-7.49094,
2026_07_06_16_11_02.070,3.854,30,0,0.759,0,0,0,0.001, ,0,0,0,0,0, ,1022.4,-69.7,-30.6,1.8,4.5,-6,25,906.913,-87.0564,105.829,-7.58657,-35.641,-7.35133,
2026_07_06_16_11_02.080,3.854,30.1,0,0.76,0,0,0,0.001, ,0,0,0,0,0, ,1006.5,-71.4,-15,-0.1,5,-1.5,25,913.466,-86.0505,97.9904,-7.07247,-33.1797,-7.13188,
2026_07_06_16_11_02.116,3.854,30.1,0,0.76,0,0,0,0, ,0,0,0,0,0, ,988.8,-68.8,-27.7,-2.1,-0.8,1.2,25,918.596,-85.0785,90.7181,-6.70852,-31.0298,-6.70642,
2026_07_06_16_11_02.122,3.854,30,0,0.759,0,0,0,0, ,0,0,0,0,0, ,964.2,-66,-61.1,-1.7,-8.4,-1.4,25,922.125,-84.0012,82.4844,-6.4155,-29.4192,-6.30384,
2026_07_06_16_11_02.152,3.854,30.1,0,0.759,0,0,0,0.001, ,0,0,0,0,0, ,977,-67.8,-58.3,-0.7,-11.7,-5.7,25,925.079,-82.9591,73.82,-6.09768,-28.2389,-6.13603,
2026_07_06_16_11_02.159,3.854,30,0,0.76,0,0,0,0, ,0,0,0,0,0, ,990.8,-71.8,-53.7,-1.5,-9.3,-6.9,25,928.663,-82.1572,65.9091,-5.79313,-27.158,-6.14602,
2026_07_06_16_11_02.191,3.854,30,0,0.759,0,0,0,0.001, ,0,0,0,0,0, ,997,-70.4,-26.8,-1.5,-4,-6,25,932.638,-81.4834,59.44,-5.53152,-25.9083,-6.16454,
2026_07_06_16_11_02.198,3.854,30.1,0,0.759,0,0,0,0.001, ,0,0,0,0,0, ,991.6,-67.8,-25,-2.5,-5.4,-2.7,25,936.396,-80.7288,54.2396,-5.31632,-24.6159,-6.05397,
2026_07_06_16_11_02.229,3.854,30.1,0,0.759,0,0,0,0, ,0,0,0,0,0, ,967.1,-64.6,-57.4,-3.8,-9,-3.7,25,939.013,-79.8435,48.4238,-5.18431,-23.5546,-5.88006,
2026_07_06_16_11_02.238,3.854,30,0,0.76,0,0,0,0, ,0,0,0,0,0, ,952.1,-52.8,-77.6,-1.6,-15.2,-10.4,25,940.268,-78.555,41.3597,-5.03292,-22.8566,-5.95135,
2026_07_06_16_11_02.269,3.854,30.1,0,0.759,0,0,0,0.001, ,0,0,0,0,0, ,962.5,-46.3,-67.1,3.6,-17.7,-22.5,25,941.306,-76.7875,34.4305,-4.66529,-22.4662,-6.59111,
2026_07_06_16_11_02.278,3.854,30,0,0.759,0,0,0,0, ,0,0,0,0,0, ,1010.1,-29.6,-51.3,8.2,-14.8,-31.1,25,944.048,-74.4209,28.7249,-4.02147,-22.0874,-7.82259,
2026_07_06_16_11_02.308,3.854,30,0,0.759,0,0,0,0.001, ,0,0,0,0,0, ,1007.9,-15.9,-44.3,16.5,-8.8,-38.3,25,948.006,-71.2722,24.0617,-3.02383,-21.4605,-9.46043,
2026_07_06_16_11_02.316,3.854,29.9,0,0.76,0,0,0,0.001, ,0,0,0,0,0, ,996,-14.8,-48.8,16.9,-9.4,-40.1,25,951.293,-67.8644,19.7588,-1.82191,-20.7073,-11.2727,
2026_07_06_16_11_02.349,3.854,30.1,0,0.76,0,0,0,0.002, ,0,0,0,0,0, ,981.6,11.3,-53.5,9.9,-15.9,-42,25,953.579,-63.8356,15.4378,-0.894326,-20.2163,-13.0872,
2026_07_06_16_11_02.357,3.854,30.1,0,0.758,0,0,0,0, ,0,0,0,0,0, ,993.8,31,-87.6,7.1,-19.6,-48.3,25,955.658,-58.6568,10.1979,-0.321859,-20.066,-15.0411,
2026_07_06_16_11_02.389,3.854,30.1,0,0.759,0,0,0,0, ,0,0,0,0,0, ,1012.9,57.8,-80.8,12.3,-15.1,-59.2,25,958.564,-52.3768,4.4455,0.288848,-19.9005,-17.3999,
2026_07_06_16_11_02.397,3.854,30.1,0,0.759,0,0,0,0, ,0,0,0,0,0, ,910.7,103.2,-69.9,11.1,-10.6,-76.1,25,958.761,-44.2796,-0.417033,0.984215,-19.4709,-20.462,
2026_07_06_16_11_02.428,3.854,30.1,0,0.759,0,0,0,0, ,0,0,0,0,0, ,1072,132,-73.1,-7.2,6.2,-82.2,25,960.747,-34.415,-4.74865,1.04307,-18.4184,-24.0383,
2026_07_06_16_11_02.436,3.854,30.1,0,0.76,0,0,0,0, ,0,0,0,0,0, ,1068.3,86.4,-75.6,3.9,37.3,-76.4,25,967.414,-25.6635,-8.98998,0.878959,-15.9707,-27.4058,
2026_07_06_16_11_02.467,3.854,30.1,0,0.761,0,0,0,0, ,0,0,0,0,0, ,985.3,107.5,-55.2,20,34.4,-74.9,25,971.033,-18.1917,-12.4275,1.5536,-12.8128,-30.3457,
2026_07_06_16_11_02.475,3.854,30,0,0.76,0,0,0,0, ,0,0,0,0,0, ,919.7,164.3,-78.6,28.8,23.7,-78.4,25,969.903,-8.80178,-15.7469,2.9458,-10.2618,-33.1674,
2026_07_06_16_11_02.507,3.854,30.2,0,0.759,0,0,0,0.001, ,0,0,0,0,0, ,871.9,265.1,-60.5,32.5,16.7,-90.2,25,965.388,4.81786,-19.0255,4.63403,-8.40555,-36.2833,
2026_07_06_16_11_02.515,3.854,30,0,0.759,0,0,0,0, ,0,0,0,0,0, ,833.8,335.9,-85.6,17.2,-3.4,-117.8,25,958.53,22.836,-22.3176,5.86594,-7.4881,-40.4097,
2026_07_06_16_11_02.546,3.854,30,0,0.759,0,0,0,0.001, ,0,0,0,0,0, ,950.6,293.7,-91.7,6.9,13.7,-142.7,25,954.488,40.6275,-26.3598,6.24278,-6.71797,-45.8844,
2026_07_06_16_11_02.555,3.854,30,0,0.759,0,0,0,0.001, ,0,0,0,0,0, ,965.4,167.1,-25.7,36.7,31.1,-159.7,25,954.702,52.1918,-28.3305,7.1908,-4.94359,-52.3021,
2026_07_06_16_11_02.584,3.854,30.1,0,0.76,0,0,0,0.001, ,0,0,0,0,0, ,742.4,387.3,-83.7,40.1,-4.4,-137.6,25,948.559,65.9032,-29.9374,9.09261,-3.82883,-58.1733,
2026_07_06_16_11_02.596,3.854,30.1,0,0.759,0,0,0,0, ,0,0,0,0,0, ,806.3,395.3,-101.3,10.1,-23.2,-121.5,25,937.943,85.7321,-33.7498,10.0681,-4.43644,-62.5228,
2026_07_06_16_11_02.630,3.854,30,0,0.759,0,0,0,0, ,0,0,0,0,0, ,785.7,480.4,-121,-1.5,-11.3,-127.5,25,929.294,107.189,-38.4664,9.71657,-5.21727,-66.2995,
2026_07_06_16_11_02.635,3.854,30,0,0.761,0,0,0,0.001, ,0,0,0,0,0, ,770.6,532.7,-38.2,11.4,14.5,-150.4,25,920.083,131.525,-40.9729,9.4261,-4.80184,-70.7267,
2026_07_06_16_11_02.667,3.854,30,0,0.758,0,0,0,0.001, ,0,0,0,0,0, ,749.3,532.8,3.6,10.4,25.4,-165.9,25,910.325,155.975,-39.5304,9.51592,-3.29353,-76.054,
2026_07_06_16_11_02.673,3.854,30,0,0.759,0,0,0,0.001, ,0,0,0,0,0, ,752.8,533.8,-41.7,-10.1,9.5,-158,25,900.619,178.968,-38.2824,8.94518,-2.02947,-81.2883,
2026_07_06_16_11_02.706,3.854,30.1,0,0.759,0,0,0,0.001, ,0,0,0,0,0, ,804.3,592.4,-75.9,-34.8,-10.3,-133.9,25,893.181,202.376,-39.5326,7.03204,-1.93017,-85.2286,
2026_07_06_16_11_02.713,3.854,30.1,0,0.76,0,0,0,0, ,0,0,0,0,0, ,805.4,643.5,-78.4,-36.4,0.2,-131.1,25,887.798,227.7,-41.825,4.43415,-2.12029,-88.1092,
2026_07_06_16_11_02.752,3.854,30.1,0,0.76,0,0,0,0, ,0,0,0,0,0, ,778,678.3,-25.5,-16,19,-138.4,25,881.942,254.098,-42.442,2.56738,-1.40608,-90.9514,
2026_07_06_16_11_02.756,3.854,29.9,0,0.759,0,0,0,0, ,0,0,0,0,0, ,765.7,676,45.7,-2.5,31.5,-138.8,25,875.233,279.878,-39.2402,1.84726,0.218272,-93.855,
2026_07_06_16_11_02.787,3.854,30,0,0.76,0,0,0,0.002, ,0,0,0,0,0, ,777.7,709.2,-8.3,3.1,18.2,-123.9,25,868.924,305.028,-35.7094,1.75297,1.71927,-96.1398,
2026_07_06_16_11_02.793,3.854,30,0,0.759,0,0,0,0.001, ,0,0,0,0,0, ,827.2,755.8,-55.9,-2.2,4.3,-103.6,25,864.874,331.077,-35.4895,1.67357,2.30005,-97.213,
