UTC_Time,Vin,TC1,TC2,Rh1,Vh1,Ah1,Acp1,Dty1,Err1,Rh2,Vh2,Ah2,Acp2,Dty2,Err2,Accel_x,Accel_y,Accel_z,gyro_x,gyro_y,gyro_z,Temp_c,Accel_x_h,Accel_y_h,Accel_z_h,gyro_x_h,gyro_y_h,gyro_z_h,
2026_07_06_16_56_24.997,3.858,32.9,0,0.761,0,0,0,0, ,0,0,0,0,0, ,36.4,-157.3,-987.1,-0.8,-0.5,-1.8,25,36.4,-157.3,-987.1,-0.8,-0.5,-1.8,
2026_07_06_16_56_25.017,3.858,33,0,0.759,0,0,0,0, ,0,0,0,0,0, ,37.9,-157.7,-987.3,-0.9,-0.5,-1.9,25,36.4457,-157.312,-987.106,-0.803047,-0.5,-1.80305,
2026_07_06_16_56_25.037,3.858,33,0,0.76,0,0,0,0, ,0,0,0,0,0, ,38.2,-155.7,-986.3,-0.9,-0.5,-1.9,25,36.5435,-157.275,-987.087,-0.808955,-0.5,-1.80895,
2026_07_06_16_56_25.062,3.858,32.9,0,0.76,0,0,0,0, ,0,0,0,0,0, ,39.1,-158.8,-988.6,-0.8,-0.5,-1.9,25,36.6718,-157.273,-987.11,-0.811456,-0.5,-1.8145,
2026_07_06_16_56_25.076,3.858,32.9,0,0.761,0,0,0,0, ,0,0,0,0,0, ,37.1,-157.5,-986.9,-0.8,-0.5,-1.9,25,36.7589,-157.327,-987.149,-0.810758,-0.5,-1.81971,
2026_07_06_16_56_25.096,3.858,32.9,0,0.761,0,0,0,0, ,0,0,0,0,0, ,37.1,-157.5,-986.2,-0.9,-0.5,-1.9,25,36.7797,-157.337,-987.112,-0.813149,-0.5,-1.82461,
2026_07_06_16_56_25.116,3.858,32.9,0,0.76,0,0,0,0, ,0,0,0,0,0, ,36.8,-156.8,-986.5,-0.8,-0.5,-1.9,25,36.79,-157.326,-987.066,-0.815395,-0.5,-1.8292,
2026_07_06_16_56_25.135,3.858,32.9,0,0.761,0,0,0,0, ,0,0,0,0,0, ,37.8,-157.1,-987.7,-0.9,-0.5,-1.9,25,36.8211,-157.303,-987.068,-0.817504,-0.5,-1.83351,
2026_07_06_16_56_25.155,3.858,32.9,0,0.76,0,0,0,0, ,0,0,0,0,0, ,37.9,-157.5,-987.3,-0.9,-0.6,-1.9,25,36.8838,-157.303,-987.094,-0.822531,-0.503047,-1.83757,
2026_07_06_16_56_25.175,3.858,33,0,0.762,0,0,0,0, ,0,0,0,0,0, ,37.9,-155.2,-986.9,-0.9,-0.5,-1.9,25,36.9457,-157.245,-987.094,-0.827252,-0.505908,-1.84137,
2026_07_06_16_56_25.199,3.858,32.9,0,0.76,0,0,0,0, ,0,0,0,0,0, ,36.9,-156.3,-988,-0.8,-0.5,-1.8,25,36.9734,-157.154,-987.116,-0.828638,-0.505548,-1.8419,
2026_07_06_16_56_25.215,3.858,33,0,0.761,0,0,0,0, ,0,0,0,0,0, ,37.2,-156.4,-987.4,-0.8,-0.5,-1.9,25,36.9781,-157.105,-987.152,-0.826893,-0.50521,-1.84239,
2026_07_06_16_56_25.235,3.858,32.9,0,0.762,0,0,0,0, ,0,0,0,0,0, ,37.4,-158.4,-986.6,-0.9,-0.5,-1.9,25,36.9977,-157.123,-987.142,-0.828301,-0.504892,-1.8459,
2026_07_06_16_56_25.254,3.858,33,0,0.761,0,0,0,0, ,0,0,0,0,0, ,38.2,-157.9,-986.3,-0.8,-0.5,-1.9,25,37.0466,-157.185,-987.1,-0.829623,-0.504594,-1.8492,
2026_07_06_16_56_25.274,3.858,33,0,0.762,0,0,0,0, ,0,0,0,0,0, ,37.4,-157.8,-986.2,-0.9,-0.5,-1.9,25,37.0925,-157.226,-987.048,-0.830865,-0.504314,-1.85229,
2026_07_06_16_56_25.294,3.858,32.9,0,0.759,0,0,0,0, ,0,0,0,0,0, ,37.4,-155,-987,-0.9,-0.6,-1.8,25,37.1112,-157.175,-987.021,-0.835078,-0.507098,-1.85215,
2026_07_06_16_56_25.314,3.858,32.9,0,0.761,0,0,0,0, ,0,0,0,0,0, ,37.4,-155.5,-987.3,-0.8,-0.5,-1.8,25,37.1288,-157.058,-987.029,-0.835987,-0.509713,-1.84898,
2026_07_06_16_56_25.334,3.858,33,0,0.761,0,0,0,0, ,0,0,0,0,0, ,38.8,-157.1,-986.5,-0.8,-0.6,-1.8,25,37.188,-157.012,-987.021,-0.833794,-0.512168,-1.84599,
2026_07_06_16_56_25.354,3.858,32.9,0,0.762,0,0,0,0, ,0,0,0,0,0, ,38.8,-155.8,-987.3,-0.8,-0.5,-1.9,25,37.2862,-156.978,-987.014,-0.831735,-0.514473,-1.84624,
2026_07_06_16_56_25.374,3.858,33,0,0.76,0,0,0,0, ,0,0,0,0,0, ,37.1,-156.3,-986.4,-0.8,-0.5,-1.9,25,37.3267,-156.921,-987.004,-0.829801,-0.513591,-1.84951,
2026_07_06_16_56_25.393,3.858,33.1,0,0.763,0,0,0,0, ,0,0,0,0,0, ,37.5,-156.6,-985.3,-0.9,-0.5,-1.9,25,37.3251,-156.892,-986.933,-0.831032,-0.512763,-1.85259,
2026_07_06_16_56_25.412,3.858,33.1,0,0.761,0,0,0,0, ,0,0,0,0,0, ,36.8,-157.3,-987,-0.8,-0.5,-1.9,25,37.3144,-156.896,-986.886,-0.832188,-0.511985,-1.85548,
2026_07_06_16_56_25.432,3.858,32.9,0,0.761,0,0,0,0, ,0,0,0,0,0, ,37.7,-157.1,-986,-0.8,-0.5,-1.8,25,37.3105,-156.914,-986.862,-0.830226,-0.511255,-1.85514,
2026_07_06_16_56_25.452,3.858,32.9,0,0.763,0,0,0,0, ,0,0,0,0,0, ,36.9,-158.2,-986.9,-0.7,-0.5,-1.8,25,37.3098,-156.959,-986.837,-0.825337,-0.510569,-1.85178,
2026_07_06_16_56_25.472,3.858,33,0,0.761,0,0,0,0, ,0,0,0,0,0, ,38.3,-157.3,-985.7,-0.9,-0.5,-1.9,25,37.3275,-157.007,-986.804,-0.823793,-0.509925,-1.85167,
2026_07_06_16_56_25.492,3.858,33,0,0.76,0,0,0,0, ,0,0,0,0,0, ,36.8,-156.9,-986.8,-0.8,-0.5,-1.9,25,37.3411,-157.013,-986.771,-0.82539,-0.50932,-1.85462,
2026_07_06_16_56_25.512,3.858,32.9,0,0.761,0,0,0,0, ,0,0,0,0,0, ,36.7,-158.3,-986.8,-0.8,-0.5,-1.8,25,37.3051,-157.049,-986.772,-0.823843,-0.508752,-1.85434,
2026_07_06_16_56_25.532,3.858,32.9,0,0.76,0,0,0,0, ,0,0,0,0,0, ,36.9,-156.7,-986.3,-0.8,-0.5,-1.8,25,37.2743,-157.076,-986.759,-0.82239,-0.508219,-1.85103,
2026_07_06_16_56_25.552,3.858,33,0,0.76,0,0,0,0, ,0,0,0,0,0, ,37.8,-158.6,-987.3,-0.8,-0.5,-1.8,25,37.2789,-157.111,-986.761,-0.821026,-0.507718,-1.84792,
2026_07_06_16_56_25.571,3.858,33,0,0.76,0,0,0,0, ,0,0,0,0,0, ,36.9,-157.4,-987.1,-0.9,-0.5,-1.8,25,37.2832,-157.165,-986.788,-0.822791,-0.507248,-1.845,
2026_07_06_16_56_25.590,3.858,33,0,0.76,0,0,0,0, ,0,0,0,0,0, ,36.8,-157.8,-986.9,-0.8,-0.5,-1.9,25,37.2568,-157.192,-986.801,-0.824449,-0.506806,-1.8453,
2026_07_06_16_56_25.611,3.858,33,0,0.762,0,0,0,0, ,0,0,0,0,0, ,37.4,-157.8,-985.4,-0.9,-0.5,-1.9,25,37.2473,-157.229,-986.761,-0.826006,-0.506391,-1.84864,
2026_07_06_16_56_25.630,3.858,33,0,0.761,0,0,0,0, ,0,0,0,0,0, ,38,-156.8,-986.9,-0.9,-0.5,-2,25,37.2749,-157.233,-986.724,-0.830515,-0.506002,-1.85481,
2026_07_06_16_56_25.650,3.858,33,0,0.76,0,0,0,0, ,0,0,0,0,0, ,38.6,-155.7,-986.5,-0.9,-0.5,-1.9,25,37.3373,-157.173,-986.723,-0.83475,-0.505636,-1.86061,
2026_07_06_16_56_25.671,3.858,32.9,0,0.76,0,0,0,0, ,0,0,0,0,0, ,38.6,-158,-986.6,-0.8,-0.6,-1.8,25,37.4143,-157.154,-986.712,-0.835679,-0.50834,-1.85997,
2026_07_06_16_56_25.690,3.858,32.9,0,0.761,0,0,0,0, ,0,0,0,0,0, ,37.4,-158.6,-986.2,-0.8,-0.5,-1.9,25,37.45,-157.224,-986.693,-0.833505,-0.510878,-1.85936,
2026_07_06_16_56_25.709,3.858,33,0,0.761,0,0,0,0, ,0,0,0,0,0, ,36.2,-156.3,-986,-0.9,-0.5,-1.9,25,37.4104,-157.237,-986.657,-0.83451,-0.510215,-1.86184,
2026_07_06_16_56_25.729,3.858,33.1,0,0.761,0,0,0,0, ,0,0,0,0,0, ,38.4,-156.2,-984.6,-0.9,-0.6,-1.8,25,37.4036,-157.177,-986.574,-0.838501,-0.51264,-1.86111,
2026_07_06_16_56_25.749,3.858,32.9,0,0.761,0,0,0,0, ,0,0,0,0,0, ,37.7,-156.2,-987.4,-0.9,-0.5,-1.9,25,37.443,-157.118,-986.539,-0.842248,-0.514916,-1.86044,
2026_07_06_16_56_25.769,3.858,33.1,0,0.761,0,0,0,0, ,0,0,0,0,0, ,36.7,-156.3,-987.3,-0.8,-0.6,-1.8,25,37.4282,-157.065,-986.589,-0.842721,-0.517054,-1.8598,
2026_07_06_16_56_25.790,3.858,32.9,0,0.762,0,0,0,0, ,0,0,0,0,0, ,37.5,-157.1,-985.9,-0.8,-0.5,-1.9,25,37.4082,-157.043,-986.589,-0.840117,-0.519062,-1.8592,
2026_07_06_16_56_25.808,3.858,32.9,0,0.761,0,0,0,0, ,0,0,0,0,0, ,38.6,-156.6,-985.9,-0.8,-0.5,-2,25,37.4473,-157.031,-986.547,-0.837673,-0.5179,-1.86474,
2026_07_06_16_56_25.829,3.858,33,0,0.761,0,0,0,0, ,0,0,0,0,0, ,37.9,-156.7,-985.3,-0.9,-0.5,-1.9,25,37.4962,-157.008,-986.49,-0.838424,-0.51681,-1.86993,
2026_07_06_16_56_25.848,3.858,32.9,0,0.76,0,0,0,0, ,0,0,0,0,0, ,37.9,-156.6,-985.9,-0.8,-0.5,-1.8,25,37.5208,-156.986,-986.435,-0.839129,-0.515785,-1.86872,
2026_07_06_16_56_25.872,3.858,33,0,0.76,0,0,0,0, ,0,0,0,0,0, ,37.8,-156.7,-986.6,-0.8,-0.5,-1.8,25,37.5409,-156.965,-986.424,-0.836745,-0.514823,-1.86453,
2026_07_06_16_56_25.890,3.858,33,0,0.76,0,0,0,0, ,0,0,0,0,0, ,36.3,-156.4,-986.5,-0.8,-0.5,-1.8,25,37.511,-156.94,-986.432,-0.834506,-0.51392,-1.8606,
2026_07_06_16_56_25.908,3.858,32.9,0,0.76,0,0,0,0, ,0,0,0,0,0, ,36.9,-156.1,-985.3,-0.9,-0.5,-1.8,25,37.4555,-156.898,-986.399,-0.83545,-0.513072,-1.85691,
2026_07_06_16_56_25.928,3.858,32.9,0,0.76,0,0,0,0, ,0,0,0,0,0, ,37.1,-157.1,-986.2,-0.8,-0.5,-1.8,25,37.4277,-156.88,-986.36,-0.836337,-0.512275,-1.85344,
2026_07_06_16_56_25.947,3.858,33,0,0.759,0,0,0,0, ,0,0,0,0,0, ,37.7,-157.5,-987.3,-0.8,-0.5,-1.9,25,37.426,-156.905,-986.384,-0.834122,-0.511527,-1.85323,
2026_07_06_16_56_25.968,3.858,32.9,0,0.76,0,0,0,0, ,0,0,0,0,0, ,36.4,-157.1,-986,-0.9,-0.5,-1.9,25,37.4031,-156.929,-986.4,-0.83509,-0.510825,-1.85608,
2026_07_06_16_56_25.987,3.858,33,0,0.761,0,0,0,0, ,0,0,0,0,0, ,36.3,-156.6,-986.8,-0.8,-0.5,-1.8,25,37.3389,-156.925,-986.4,-0.835998,-0.510165,-1.85571,
2026_07_06_16_56_26.006,3.858,33,0,0.762,0,0,0,0, ,0,0,0,0,0, ,38.4,-156.8,-987.4,-0.8,-0.5,-1.9,25,37.3396,-156.911,-986.442,-0.833805,-0.509546,-1.85536,
2026_07_06_16_56_26.026,3.858,33,0,0.76,0,0,0,0, ,0,0,0,0,0, ,38.3,-156.4,-987.5,-0.8,-0.5,-1.9,25,37.4012,-156.892,-986.504,-0.831745,-0.508964,-1.85808,
2026_07_06_16_56_26.048,3.858,32.9,0,0.761,0,0,0,0, ,0,0,0,0,0, ,37.5,-155.1,-986,-0.9,-0.5,-1.9,25,37.4316,-156.822,-986.519,-0.832857,-0.508418,-1.86063,
2026_07_06_16_56_26.066,3.858,32.9,0,0.76,0,0,0,0, ,0,0,0,0,0, ,37.7,-156.9,-985.3,-0.9,-0.5,-1.8,25,37.4418,-156.772,-986.466,-0.836949,-0.507905,-1.85999,
2026_07_06_16_56_26.086,3.858,32.9,0,0.761,0,0,0,0, ,0,0,0,0,0, ,36.3,-157.3,-987,-0.9,-0.4,-1.9,25,37.4149,-156.792,-986.447,-0.840791,-0.504376,-1.85938,
2026_07_06_16_56_26.106,3.858,32.9,0,0.762,0,0,0,0, ,0,0,0,0,0, ,37.9,-156.7,-986.5,-0.9,-0.5,-1.9,25,37.3957,-156.805,-986.465,-0.844399,-0.501063,-1.86185,
2026_07_06_16_56_26.126,3.858,32.9,0,0.762,0,0,0,0, ,0,0,0,0,0, ,37.2,-154.9,-985.3,-0.8,-0.5,-1.9,25,37.4051,-156.744,-986.431,-0.84474,-0.500998,-1.86418,
2026_07_06_16_56_26.146,3.858,32.9,0,0.762,0,0,0,0, ,0,0,0,0,0, ,37.5,-156.8,-986.2,-0.8,-0.5,-1.9,25,37.4018,-156.689,-986.389,-0.842014,-0.500937,-1.86636,
2026_07_06_16_56_26.166,3.858,33,0,0.762,0,0,0,0, ,0,0,0,0,0, ,36.7,-157.2,-986.6,-0.8,-0.5,-1.9,25,37.3834,-156.708,-986.39,-0.839454,-0.50088,-1.86841,
2026_07_06_16_56_26.184,3.858,33,0,0.761,0,0,0,0, ,0,0,0,0,0, ,37.9,-158.3,-986.9,-0.8,-0.5,-1.9,25,37.3783,-156.772,-986.412,-0.83705,-0.500826,-1.87034,
2026_07_06_16_56_26.204,3.858,32.9,0,0.761,0,0,0,0, ,0,0,0,0,0, ,36.6,-157.2,-987.4,-0.8,-0.5,-1.8,25,37.3705,-156.831,-986.457,-0.834792,-0.500776,-1.8691,
2026_07_06_16_56_26.230,3.858,32.9,0,0.761,0,0,0,0, ,0,0,0,0,0, ,37.3,-157.3,-986.5,-0.9,-0.5,-1.9,25,37.3449,-156.857,-986.487,-0.835719,-0.500729,-1.86793,
2026_07_06_16_56_26.244,3.858,32.9,0,0.761,0,0,0,0, ,0,0,0,0,0, ,37.4,-155.7,-985.3,-0.8,-0.5,-1.9,25,37.3452,-156.835,-986.451,-0.836589,-0.500684,-1.86989,
2026_07_06_16_56_26.264,3.858,33,0,0.761,0,0,0,0, ,0,0,0,0,0, ,38.3,-156.1,-986.6,-0.9,-0.5,-1.8,25,37.3759,-156.778,-986.421,-0.837406,-0.500643,-1.86868,
2026_07_06_16_56_26.283,3.858,33,0,0.762,0,0,0,0, ,0,0,0,0,0, ,37.1,-157.1,-985.8,-0.9,-0.5,-1.9,25,37.3957,-156.767,-986.407,-0.84122,-0.500603,-1.86754,
2026_07_06_16_56_26.304,3.858,32.9,0,0.763,0,0,0,0, ,0,0,0,0,0, ,37.1,-157.4,-988.1,-0.9,-0.5,-1.8,25,37.3777,-156.797,-986.44,-0.844802,-0.500567,-1.86647,
2026_07_06_16_56_26.322,3.858,33,0,0.761,0,0,0,0, ,0,0,0,0,0, ,37.1,-158,-986.9,-0.8,-0.5,-1.9,25,37.3607,-156.852,-986.505,-0.845119,-0.500532,-1.86546,
2026_07_06_16_56_26.343,3.858,33,0,0.762,0,0,0,0, ,0,0,0,0,0, ,36.4,-156.8,-987.9,-0.8,-0.5,-1.9,25,37.3235,-156.885,-986.559,-0.84237,-0.5005,-1.86757,
2026_07_06_16_56_26.362,3.858,32.9,0,0.763,0,0,0,0, ,0,0,0,0,0, ,37.9,-157.5,-987.4,-0.8,-0.6,-1.8,25,37.313,-156.901,-986.626,-0.839788,-0.503516,-1.8665,
2026_07_06_16_56_26.383,3.858,32.9,0,0.761,0,0,0,0, ,0,0,0,0,0, ,37.4,-157.4,-987.5,-0.9,-0.6,-1.8,25,37.3335,-156.935,-986.676,-0.84041,-0.509396,-1.86245,
2026_07_06_16_56_26.402,3.858,33,0,0.761,0,0,0,0, ,0,0,0,0,0, ,37.3,-157.8,-986.3,-0.9,-0.6,-1.8,25,37.3345,-156.975,-986.69,-0.844041,-0.514917,-1.85864,
2026_07_06_16_56_26.423,3.858,32.9,0,0.761,0,0,0,0, ,0,0,0,0,0, ,37.4,-156,-986.2,-0.9,-0.5,-1.9,25,37.3354,-156.971,-986.663,-0.847451,-0.517055,-1.85811,
2026_07_06_16_56_26.442,3.858,33,0,0.761,0,0,0,0, ,0,0,0,0,0, ,37.8,-157.2,-987,-0.9,-0.5,-1.9,25,37.3516,-156.948,-986.659,-0.850653,-0.516015,-1.86067,
2026_07_06_16_56_26.461,3.858,33,0,0.762,0,0,0,0, ,0,0,0,0,0, ,37.3,-157.4,-986.3,-0.9,-0.5,-1.8,25,37.3637,-156.969,-986.659,-0.85366,-0.515039,-1.86002,
2026_07_06_16_56_26.482,3.858,33,0,0.761,0,0,0,0, ,0,0,0,0,0, ,36.6,-158,-986.5,-0.8,-0.6,-1.9,25,37.3384,-157.014,-986.643,-0.853437,-0.51717,-1.85941,
2026_07_06_16_56_26.501,3.858,33,0,0.762,0,0,0,0, ,0,0,0,0,0, ,37.5,-156.2,-985.9,-0.8,-0.5,-1.9,25,37.3209,-157.019,-986.616,-0.850181,-0.51917,-1.86188,
2026_07_06_16_56_26.521,3.858,32.9,0,0.761,0,0,0,0, ,0,0,0,0,0, ,37.5,-156.8,-987.9,-0.9,-0.5,-1.9,25,37.3318,-156.988,-986.633,-0.85017,-0.518002,-1.8642,
2026_07_06_16_56_26.542,3.858,33,0,0.761,0,0,0,0, ,0,0,0,0,0, ,37.9,-157.5,-984.8,-0.9,-0.5,-1.8,25,37.3542,-156.998,-986.616,-0.853207,-0.516905,-1.86334,
2026_07_06_16_56_26.561,3.858,33,0,0.761,0,0,0,0, ,0,0,0,0,0, ,38.6,-157.5,-987.4,-0.8,-0.5,-1.8,25,37.4088,-157.028,-986.584,-0.853011,-0.515875,-1.85948,
2026_07_06_16_56_26.586,3.858,33,0,0.762,0,0,0,0, ,0,0,0,0,0, ,37.4,-156.2,-986.3,-0.9,-0.5,-1.9,25,37.4448,-157.017,-986.601,-0.852828,-0.514908,-1.8589,
2026_07_06_16_56_26.599,3.858,32.9,0,0.761,0,0,0,0, ,0,0,0,0,0, ,36.8,-156.4,-986.3,-0.8,-0.5,-1.9,25,37.4238,-156.974,-986.582,-0.852655,-0.513999,-1.8614,
2026_07_06_16_56_26.620,3.858,32.9,0,0.761,0,0,0,0, ,0,0,0,0,0, ,37.2,-156.3,-987.5,-0.8,-0.5,-1.9,25,37.398,-156.936,-986.602,-0.849447,-0.513146,-1.86376,
2026_07_06_16_56_26.640,3.858,32.9,0,0.762,0,0,0,0, ,0,0,0,0,0, ,36,-158,-985.8,-0.8,-0.6,-1.9,25,37.3494,-156.949,-986.605,-0.846434,-0.515392,-1.86597,
2026_07_06_16_56_26.660,3.858,33,0,0.762,0,0,0,0, ,0,0,0,0,0, ,37.4,-156.7,-987.1,-0.9,-0.5,-1.9,25,37.3098,-156.973,-986.595,-0.846651,-0.517501,-1.86804,
2026_07_06_16_56_26.679,3.858,32.9,0,0.762,0,0,0,0, ,0,0,0,0,0, ,37.1,-156.4,-986.5,-0.8,-0.5,-1.8,25,37.3062,-156.947,-986.608,-0.846855,-0.516434,-1.86694,
2026_07_06_16_56_26.699,3.858,33,0,0.762,0,0,0,0, ,0,0,0,0,0, ,36.3,-157.1,-985.9,-0.9,-0.5,-1.8,25,37.2692,-156.935,-986.583,-0.847047,-0.515433,-1.86286,
2026_07_06_16_56_26.718,3.858,32.9,0,0.76,0,0,0,0, ,0,0,0,0,0, ,36.9,-157.3,-986.6,-0.9,-0.5,-1.8,25,37.2284,-156.951,-986.563,-0.850273,-0.514493,-1.85903,
2026_07_06_16_56_26.739,3.858,33,0,0.761,0,0,0,0, ,0,0,0,0,0, ,37.4,-155.8,-986.3,-0.8,-0.5,-1.8,25,37.2237,-156.927,-986.556,-0.850257,-0.513609,-1.85543,
2026_07_06_16_56_26.765,3.858,33,0,0.76,0,0,0,0, ,0,0,0,0,0, ,38.6,-157.1,-985.8,-0.9,-0.5,-1.9,25,37.271,-156.898,-986.525,-0.850241,-0.51278,-1.8551,
2026_07_06_16_56_26.778,3.858,33,0,0.76,0,0,0,0, ,0,0,0,0,0, ,38.2,-157.2,-988.4,-0.9,-0.5,-1.9,25,37.3398,-156.913,-986.56,-0.853273,-0.512001,-1.85784,
2026_07_06_16_56_26.798,3.858,33,0,0.761,0,0,0,0, ,0,0,0,0,0, ,36.4,-156.3,-986.3,-0.8,-0.5,-1.9,25,37.3373,-156.903,-986.608,-0.853074,-0.51127,-1.86041,
2026_07_06_16_56_26.818,3.858,33,0,0.761,0,0,0,0, ,0,0,0,0,0, ,38.8,-156,-987.5,-0.9,-0.6,-1.8,25,37.3533,-156.857,-986.626,-0.852887,-0.51363,-1.85977,
2026_07_06_16_56_26.838,3.858,32.9,0,0.761,0,0,0,0, ,0,0,0,0,0, ,38.2,-155.1,-986.9,-0.8,-0.5,-1.9,25,37.4232,-156.778,-986.661,-0.852711,-0.515846,-1.85918,
2026_07_06_16_56_26.858,3.858,33,0,0.762,0,0,0,0, ,0,0,0,0,0, ,37.5,-156.7,-987.5,-0.8,-0.5,-1.8,25,37.4492,-156.724,-986.694,-0.849499,-0.514881,-1.85862,
2026_07_06_16_56_26.878,3.858,33,0,0.762,0,0,0,0, ,0,0,0,0,0, ,38.4,-157.3,-987.7,-0.9,-0.6,-1.8,25,37.4797,-156.741,-986.749,-0.849529,-0.517021,-1.85505,
2026_07_06_16_56_26.898,3.858,33,0,0.762,0,0,0,0, ,0,0,0,0,0, ,38.3,-157.9,-987.4,-0.9,-0.5,-1.9,25,37.5328,-156.793,-986.798,-0.852605,-0.51903,-1.85474,
2026_07_06_16_56_26.918,3.858,33,0,0.761,0,0,0,0, ,0,0,0,0,0, ,37.8,-158.5,-986,-0.9,-0.5,-1.8,25,37.5643,-156.879,-986.792,-0.855493,-0.517871,-1.85445,
2026_07_06_16_56_26.936,3.858,32.9,0,0.761,0,0,0,0, ,0,0,0,0,0, ,37.4,-156.7,-985.8,-0.8,-0.5,-1.8,25,37.5665,-156.923,-986.737,-0.855158,-0.516782,-1.85113,
2026_07_06_16_56_26.960,3.858,32.9,0,0.761,0,0,0,0, ,0,0,0,0,0, ,37.5,-157.1,-986.9,-0.8,-0.5,-1.8,25,37.5594,-156.922,-986.714,-0.851797,-0.515759,-1.84802,
2026_07_06_16_56_26.977,3.858,33,0,0.761,0,0,0,0, ,0,0,0,0,0, ,37.1,-157.2,-988.8,-0.8,-0.5,-1.8,25,37.5436,-156.936,-986.783,-0.848641,-0.514799,-1.84509,
2026_07_06_16_56_26.996,3.858,33,0,0.761,0,0,0,0, ,0,0,0,0,0, ,36.8,-156.8,-985.7,-0.8,-0.5,-1.9,25,37.5074,-156.939,-986.812,-0.845677,-0.513897,-1.84539,
2026_07_06_16_56_27.016,3.858,33.1,0,0.76,0,0,0,0, ,0,0,0,0,0, ,37.1,-157.2,-985.1,-0.9,-0.5,-1.9,25,37.4734,-156.943,-986.725,-0.84594,-0.51305,-1.84872,
2026_07_06_16_56_27.036,3.858,32.9,0,0.76,0,0,0,0, ,0,0,0,0,0, ,37.5,-157.4,-986.8,-0.9,-0.5,-1.9,25,37.4629,-156.965,-986.678,-0.849234,-0.512255,-1.85184,
2026_07_06_16_56_27.056,3.858,33,0,0.761,0,0,0,0, ,0,0,0,0,0, ,38.3,-157.9,-987.1,-0.8,-0.5,-1.8,25,37.4895,-157.007,-986.695,-0.849281,-0.511508,-1.85173,
2026_07_06_16_56_27.076,3.858,33,0,0.762,0,0,0,0, ,0,0,0,0,0, ,37.4,-156.2,-986.4,-0.8,-0.5,-1.9,25,37.5115,-157.009,-986.698,-0.846278,-0.510807,-1.85162,
2026_07_06_16_56_27.095,3.858,33,0,0.76,0,0,0,0, ,0,0,0,0,0, ,38,-157.5,-987,-0.8,-0.6,-1.9,25,37.523,-157,-986.698,-0.843458,-0.513195,-1.85457,
2026_07_06_16_56_27.115,3.858,33.1,0,0.761,0,0,0,0, ,0,0,0,0,0, ,37.5,-156.6,-985.9,-0.9,-0.5,-1.9,25,37.5368,-157.003,-986.683,-0.843856,-0.515438,-1.85734,
2026_07_06_16_56_27.135,3.858,32.9,0,0.761,0,0,0,0, ,0,0,0,0,0, ,38.3,-157.3,-988.5,-0.9,-0.5,-1.9,25,37.5589,-156.999,-986.715,-0.847278,-0.514497,-1.85994,
2026_07_06_16_56_27.154,3.858,33,0,0.761,0,0,0,0, ,0,0,0,0,0, ,37.1,-156.6,-986.4,-0.7,-0.5,-1.9,25,37.5675,-156.996,-986.759,-0.844397,-0.513614,-1.86238,
2026_07_06_16_56_27.174,3.858,33,0,0.76,0,0,0,0, ,0,0,0,0,0, ,37.2,-156.4,-986.8,-0.9,-0.4,-1.8,25,37.5421,-156.966,-986.75,-0.841691,-0.509737,-1.86163,
2026_07_06_16_56_27.194,3.858,32.9,0,0.761,0,0,0,0, ,0,0,0,0,0, ,37.3,-156.1,-986.2,-0.9,-0.5,-2,25,37.5243,-156.923,-986.735,-0.845244,-0.506097,-1.86397,
2026_07_06_16_56_27.213,3.858,32.9,0,0.762,0,0,0,0, ,0,0,0,0,0, ,37.7,-157.2,-987,-0.9,-0.5,-1.9,25,37.5228,-156.906,-986.726,-0.848581,-0.505726,-1.86921,
2026_07_06_16_56_27.234,3.858,32.9,0,0.762,0,0,0,0, ,0,0,0,0,0, ,37.4,-156.7,-986.8,-0.8,-0.5,-1.9,25,37.5245,-156.909,-986.737,-0.848668,-0.505377,-1.87108,
2026_07_06_16_56_27.253,3.858,33,0,0.762,0,0,0,0, ,0,0,0,0,0, ,37.4,-156.7,-986.4,-0.9,-0.5,-1.8,25,37.5169,-156.896,-986.729,-0.848749,-0.505049,-1.8698,
2026_07_06_16_56_27.273,3.858,33.1,0,0.76,0,0,0,0, ,0,0,0,0,0, ,38,-156.9,-986.3,-0.9,-0.5,-1.9,25,37.528,-156.89,-986.705,-0.851872,-0.504741,-1.86859,
2026_07_06_16_56_27.293,3.858,32.9,0,0.762,0,0,0,0, ,0,0,0,0,0, ,37.4,-156.8,-987.6,-0.9,-0.5,-1.9,25,37.5385,-156.888,-986.72,-0.854805,-0.504452,-1.87051,
2026_07_06_16_56_27.313,3.858,33,0,0.76,0,0,0,0, ,0,0,0,0,0, ,37.5,-156.3,-985.9,-1,-0.5,-1.8,25,37.5331,-156.867,-986.722,-0.860606,-0.504181,-1.86926,
2026_07_06_16_56_27.336,3.858,33.1,0,0.761,0,0,0,0, ,0,0,0,0,0, ,37.1,-157.7,-987.4,-0.9,-0.5,-1.9,25,37.5189,-156.875,-986.718,-0.866053,-0.503926,-1.86808,
2026_07_06_16_56_27.353,3.858,33,0,0.762,0,0,0,0, ,0,0,0,0,0, ,38,-156.6,-986.5,-0.9,-0.5,-1.9,25,37.5208,-156.892,-986.732,-0.868122,-0.503687,-1.87003,
2026_07_06_16_56_27.373,3.858,33,0,0.762,0,0,0,0, ,0,0,0,0,0, ,37.8,-156.1,-986.5,-0.9,-0.5,-1.9,25,37.5439,-156.859,-986.718,-0.870064,-0.503462,-1.87185,
2026_07_06_16_56_27.392,3.858,32.9,0,0.76,0,0,0,0, ,0,0,0,0,0, ,39.1,-155.6,-988.4,-0.8,-0.5,-1.8,25,37.5991,-156.797,-986.762,-0.868842,-0.503251,-1.87052,
2026_07_06_16_56_27.411,3.858,33,0,0.762,0,0,0,0, ,0,0,0,0,0, ,37.2,-155.7,-985.2,-0.8,-0.5,-1.9,25,37.6327,-156.727,-986.765,-0.864647,-0.503053,-1.86927,
2026_07_06_16_56_27.431,3.858,33,0,0.761,0,0,0,0, ,0,0,0,0,0, ,36.2,-154.7,-986.9,-0.8,-0.5,-1.8,25,37.5759,-156.634,-986.721,-0.860707,-0.502867,-1.8681,
2026_07_06_16_56_27.452,3.858,32.9,0,0.761,0,0,0,0, ,0,0,0,0,0, ,38.2,-156.9,-987.6,-0.8,-0.4,-1.8,25,37.553,-156.584,-986.753,-0.857008,-0.499646,-1.86395,
2026_07_06_16_56_27.471,3.858,33,0,0.76,0,0,0,0, ,0,0,0,0,0, ,38.3,-158.3,-986.6,-0.7,-0.5,-1.9,25,37.5954,-156.645,-986.775,-0.850487,-0.49662,-1.8631,
2026_07_06_16_56_27.491,3.858,32.9,0,0.761,0,0,0,0, ,0,0,0,0,0, ,38.3,-156.9,-985.7,-0.9,-0.5,-1.9,25,37.6384,-156.704,-986.736,-0.847411,-0.496826,-1.86535,
2026_07_06_16_56_27.511,3.858,32.9,0,0.762,0,0,0,0, ,0,0,0,0,0, ,37.1,-158.2,-986.9,-0.8,-0.5,-1.9,25,37.6421,-156.755,-986.71,-0.847568,-0.49702,-1.86746,
2026_07_06_16_56_27.530,3.858,32.9,0,0.76,0,0,0,0, ,0,0,0,0,0, ,37.7,-156.4,-985.4,-0.8,-0.4,-1.9,25,37.6274,-156.788,-986.676,-0.84467,-0.494154,-1.86944,
2026_07_06_16_56_27.550,3.858,33,0,0.761,0,0,0,0, ,0,0,0,0,0, ,36.2,-156.3,-985.9,-0.8,-0.5,-1.9,25,37.5861,-156.762,-986.613,-0.841948,-0.491464,-1.8713,
2026_07_06_16_56_27.571,3.858,33,0,0.761,0,0,0,0, ,0,0,0,0,0, ,38.5,-156.7,-987.1,-0.9,-0.5,-1.9,25,37.5717,-156.746,-986.606,-0.842438,-0.491984,-1.87305,
2026_07_06_16_56_27.589,3.858,33,0,0.762,0,0,0,0, ,0,0,0,0,0, ,36.4,-156.3,-986.2,-0.8,-0.5,-1.9,25,37.5643,-156.731,-986.609,-0.842899,-0.492472,-1.87469,
2026_07_06_16_56_27.610,3.858,33,0,0.762,0,0,0,0, ,0,0,0,0,0, ,37.8,-157.2,-985.7,-0.8,-0.5,-1.9,25,37.536,-156.732,-986.569,-0.840285,-0.492931,-1.87624,
2026_07_06_16_56_27.629,3.858,32.9,0,0.761,0,0,0,0, ,0,0,0,0,0, ,38,-156.8,-986.6,-0.8,-0.6,-1.9,25,37.5582,-156.748,-986.543,-0.83783,-0.496409,-1.87768,
2026_07_06_16_56_27.650,3.858,33,0,0.761,0,0,0,0, ,0,0,0,0,0, ,37.9,-155.1,-986.8,-0.8,-0.5,-1.9,25,37.5821,-156.7,-986.553,-0.835525,-0.499674,-1.87904,
2026_07_06_16_56_27.670,3.858,32.9,0,0.761,0,0,0,0, ,0,0,0,0,0, ,38.3,-157.4,-987.7,-0.9,-0.5,-1.9,25,37.6136,-156.672,-986.595,-0.836407,-0.499694,-1.88032,
2026_07_06_16_56_27.690,3.858,33,0,0.761,0,0,0,0, ,0,0,0,0,0, ,37.9,-157.7,-985.7,-0.8,-0.5,-1.8,25,37.6433,-156.726,-986.602,-0.837235,-0.499713,-1.87847,
2026_07_06_16_56_27.708,3.858,32.9,0,0.763,0,0,0,0, ,0,0,0,0,0, ,36.6,-157.2,-986.2,-0.9,-0.5,-1.9,25,37.6193,-156.77,-986.562,-0.838013,-0.49973,-1.87674,
2026_07_06_16_56_27.730,3.858,32.9,0,0.762,0,0,0,0, ,0,0,0,0,0, ,36.9,-155.8,-986.5,-0.8,-0.5,-1.9,25,37.5663,-156.753,-986.549,-0.838744,-0.499747,-1.87816,
2026_07_06_16_56_27.749,3.858,32.9,0,0.759,0,0,0,0, ,0,0,0,0,0, ,36.8,-156.1,-986.2,-0.8,-0.5,-1.9,25,37.5227,-156.704,-986.537,-0.836383,-0.499762,-1.87949,
2026_07_06_16_56_27.768,3.858,32.9,0,0.761,0,0,0,0, ,0,0,0,0,0, ,37.2,-157.5,-987.6,-0.8,-0.5,-1.8,25,37.4908,-156.71,-986.559,-0.834166,-0.499777,-1.87769,
2026_07_06_16_56_27.787,3.858,33,0,0.759,0,0,0,0, ,0,0,0,0,0, ,38.3,-156.2,-987.6,-0.8,-0.5,-1.8,25,37.5066,-156.719,-986.623,-0.832084,-0.49979,-1.87296,
2026_07_06_16_56_27.808,3.858,33,0,0.762,0,0,0,0, ,0,0,0,0,0, ,37.8,-157.4,-985.9,-0.9,-0.5,-1.9,25,37.5397,-156.724,-986.63,-0.833175,-0.499803,-1.87156,
2026_07_06_16_56_27.827,3.858,33.1,0,0.761,0,0,0,0, ,0,0,0,0,0, ,37.7,-158.3,-986.2,-0.9,-0.4,-1.9,25,37.5525,-156.792,-986.595,-0.837247,-0.496768,-1.87329,
2026_07_06_16_56_27.847,3.858,33,0,0.762,0,0,0,0, ,0,0,0,0,0, ,37.1,-155.8,-986.6,-0.8,-0.5,-1.8,25,37.5432,-156.808,-986.583,-0.838025,-0.493918,-1.87187,
2026_07_06_16_56_27.867,3.858,32.9,0,0.762,0,0,0,0, ,0,0,0,0,0, ,36.9,-156.4,-985.7,-0.8,-0.6,-1.9,25,37.5101,-156.765,-986.557,-0.835707,-0.497336,-1.87054,
2026_07_06_16_56_27.887,3.858,32.9,0,0.761,0,0,0,0, ,0,0,0,0,0, ,38.5,-156.7,-988.5,-0.9,-0.5,-1.8,25,37.5217,-156.752,-986.59,-0.836578,-0.500545,-1.86929,
2026_07_06_16_56_27.907,3.858,32.9,0,0.762,0,0,0,0, ,0,0,0,0,0, ,38.3,-157.1,-986.3,-0.8,-0.5,-1.9,25,37.5752,-156.761,-986.639,-0.837396,-0.500512,-1.86811,
2026_07_06_16_56_27.927,3.858,33,0,0.761,0,0,0,0, ,0,0,0,0,0, ,37.3,-155.8,-988.2,-0.9,-0.5,-1.8,25,37.5889,-156.742,-986.676,-0.838164,-0.500481,-1.86701,
2026_07_06_16_56_27.947,3.858,33,0,0.762,0,0,0,0, ,0,0,0,0,0, ,37.2,-156.4,-987,-0.9,-0.5,-1.9,25,37.5683,-156.703,-986.733,-0.841932,-0.500451,-1.86597,
2026_07_06_16_56_27.966,3.858,32.9,0,0.762,0,0,0,0, ,0,0,0,0,0, ,37.5,-156.1,-987.4,-0.8,-0.6,-1.9,25,37.555,-156.675,-986.761,-0.842424,-0.503471,-1.86805,
2026_07_06_16_56_27.987,3.858,32.9,0,0.761,0,0,0,0, ,0,0,0,0,0, ,36.3,-157.3,-986.8,-0.9,-0.5,-1.9,25,37.5151,-156.677,-986.782,-0.842886,-0.506306,-1.86999,
2026_07_06_16_56_28.006,3.858,33,0,0.76,0,0,0,0, ,0,0,0,0,0, ,37.4,-157.9,-986.3,-0.9,-0.6,-1.9,25,37.4745,-156.733,-986.768,-0.846366,-0.508969,-1.87182,
2026_07_06_16_56_28.026,3.858,33,0,0.76,0,0,0,0, ,0,0,0,0,0, ,37.4,-156.2,-987,-0.9,-0.5,-1.8,25,37.47,-156.752,-986.76,-0.849634,-0.511469,-1.87049,
2026_07_06_16_56_28.048,3.858,32.9,0,0.76,0,0,0,0, ,0,0,0,0,0, ,37.3,-156.7,-985.7,-0.9,-0.5,-1.8,25,37.4627,-156.734,-986.735,-0.852704,-0.51077,-1.8662,
2026_07_06_16_56_28.065,3.858,33,0,0.761,0,0,0,0, ,0,0,0,0,0, ,37.1,-157.3,-986,-0.9,-0.6,-1.9,25,37.4467,-156.75,-986.682,-0.855586,-0.513161,-1.86521,
2026_07_06_16_56_28.085,3.858,33,0,0.761,0,0,0,0, ,0,0,0,0,0, ,37.3,-155.2,-985.9,-0.8,-0.5,-1.9,25,37.4316,-156.72,-986.637,-0.855245,-0.515406,-1.86733,
2026_07_06_16_56_28.104,3.858,33,0,0.76,0,0,0,0, ,0,0,0,0,0, ,38.3,-156.7,-987.1,-0.8,-0.5,-1.9,25,37.4541,-156.673,-986.629,-0.851879,-0.514467,-1.86932,
2026_07_06_16_56_28.124,3.858,32.9,0,0.761,0,0,0,0, ,0,0,0,0,0, ,37.3,-156.1,-986.6,-0.9,-0.4,-1.9,25,37.4752,-156.656,-986.642,-0.851764,-0.510538,-1.87119,
2026_07_06_16_56_28.144,3.858,32.9,0,0.761,0,0,0,0, ,0,0,0,0,0, ,38.2,-156.8,-987.1,-0.8,-0.5,-1.9,25,37.4919,-156.644,-986.655,-0.851657,-0.506849,-1.87294,
2026_07_06_16_56_28.164,3.858,33,0,0.762,0,0,0,0, ,0,0,0,0,0, ,37.1,-157.1,-987.6,-0.8,-0.5,-1.9,25,37.5015,-156.662,-986.697,-0.848509,-0.506432,-1.87459,
2026_07_06_16_56_28.184,3.858,32.9,0,0.762,0,0,0,0, ,0,0,0,0,0, ,37.2,-156,-986.6,-0.8,-0.5,-1.9,25,37.4801,-156.655,-986.722,-0.845553,-0.50604,-1.87614,
2026_07_06_16_56_28.203,3.858,33,0,0.762,0,0,0,0, ,0,0,0,0,0, ,36.6,-156,-985.8,-0.9,-0.5,-1.8,25,37.4448,-156.615,-986.69,-0.845824,-0.505672,-1.87455,
2026_07_06_16_56_28.230,3.858,32.9,0,0.761,0,0,0,0, ,0,0,0,0,0, ,37.3,-156.9,-988.5,-0.9,-0.5,-1.9,25,37.4146,-156.605,-986.718,-0.849125,-0.505326,-1.87305,
2026_07_06_16_56_28.244,3.858,33,0,0.76,0,0,0,0, ,0,0,0,0,0, ,37.3,-155.6,-985.5,-0.8,-0.6,-1.9,25,37.4076,-156.584,-986.735,-0.849179,-0.508049,-1.87469,
2026_07_06_16_56_28.264,3.858,33,0,0.762,0,0,0,0, ,0,0,0,0,0, ,37.9,-155.1,-985.9,-0.8,-0.5,-1.9,25,37.4194,-156.509,-986.672,-0.846182,-0.510605,-1.87624,
2026_07_06_16_56_28.283,3.858,32.9,0,0.763,0,0,0,0, ,0,0,0,0,0, ,36.3,-156.2,-986.2,-0.9,-0.5,-1.9,25,37.3999,-156.456,-986.634,-0.846414,-0.509959,-1.87769,
2026_07_06_16_56_28.302,3.858,32.9,0,0.763,0,0,0,0, ,0,0,0,0,0, ,38.8,-156.4,-986,-0.8,-0.6,-1.9,25,37.409,-156.447,-986.602,-0.846633,-0.512399,-1.87904,
2026_07_06_16_56_28.322,3.858,33,0,0.76,0,0,0,0, ,0,0,0,0,0, ,38.3,-156.1,-986.6,-0.8,-0.5,-1.9,25,37.4786,-156.435,-986.583,-0.843791,-0.51469,-1.88032,
2026_07_06_16_56_28.342,3.858,32.9,0,0.761,0,0,0,0, ,0,0,0,0,0, ,36.8,-155.8,-986.8,-0.9,-0.5,-1.9,25,37.4829,-156.405,-986.59,-0.84417,-0.513795,-1.88152,
2026_07_06_16_56_28.362,3.858,33,0,0.76,0,0,0,0, ,0,0,0,0,0, ,37.1,-156.7,-987,-0.8,-0.5,-1.8,25,37.4505,-156.396,-986.609,-0.844525,-0.512954,-1.8796,
2026_07_06_16_56_28.382,3.858,32.9,0,0.761,0,0,0,0, ,0,0,0,0,0, ,38,-157.4,-986,-0.8,-0.5,-1.9,25,37.4565,-156.436,-986.603,-0.841812,-0.512165,-1.8778,
2026_07_06_16_56_28.401,3.858,32.9,0,0.762,0,0,0,0, ,0,0,0,0,0, ,37.7,-157.3,-986.5,-0.9,-0.5,-1.8,25,37.4805,-156.491,-986.581,-0.842311,-0.511424,-1.8761,
2026_07_06_16_56_28.421,3.858,33,0,0.76,0,0,0,0, ,0,0,0,0,0, ,38,-156.7,-986.8,-0.8,-0.5,-1.9,25,37.503,-156.522,-986.585,-0.842779,-0.510727,-1.87451,
2026_07_06_16_56_28.442,3.858,32.9,0,0.761,0,0,0,0, ,0,0,0,0,0, ,37.9,-157.3,-985.4,-0.8,-0.5,-1.9,25,37.5302,-156.551,-986.556,-0.840172,-0.510074,-1.87607,
2026_07_06_16_56_28.461,3.858,32.9,0,0.761,0,0,0,0, ,0,0,0,0,0, ,37.2,-157.8,-986.8,-0.8,-0.5,-1.9,25,37.5315,-156.612,-986.528,-0.837724,-0.50946,-1.87752,
2026_07_06_16_56_28.480,3.858,33,0,0.761,0,0,0,0, ,0,0,0,0,0, ,37.1,-156.3,-986.8,-0.9,-0.6,-1.8,25,37.5082,-156.639,-986.544,-0.838472,-0.51193,-1.87585,
2026_07_06_16_56_28.500,3.858,33,0,0.761,0,0,0,0, ,0,0,0,0,0, ,37.1,-156.9,-986.4,-0.9,-0.5,-1.9,25,37.4833,-156.637,-986.548,-0.842222,-0.51425,-1.87427,
2026_07_06_16_56_28.520,3.858,32.9,0,0.762,0,0,0,0, ,0,0,0,0,0, ,37.1,-155.6,-985.7,-0.8,-0.5,-1.8,25,37.46,-156.613,-986.518,-0.842696,-0.513382,-1.87279,
2026_07_06_16_56_28.540,3.858,33,0,0.762,0,0,0,0, ,0,0,0,0,0, ,37.9,-157.4,-985.8,-0.9,-0.4,-2,25,37.4624,-156.606,-986.471,-0.843141,-0.509519,-1.87445,
2026_07_06_16_56_28.561,3.858,33,0,0.761,0,0,0,0, ,0,0,0,0,0, ,37.3,-156.7,-987.5,-0.8,-0.5,-1.9,25,37.4708,-156.633,-986.482,-0.843559,-0.505893,-1.87905,
2026_07_06_16_56_28.579,3.858,33,0,0.761,0,0,0,0, ,0,0,0,0,0, ,38,-157.4,-986.4,-0.8,-0.5,-1.9,25,37.4817,-156.659,-986.51,-0.840904,-0.505533,-1.88033,
2026_07_06_16_56_28.603,3.858,32.9,0,0.763,0,0,0,0, ,0,0,0,0,0, ,37.2,-157.9,-986.4,-0.8,-0.5,-1.9,25,37.4889,-156.719,-986.504,-0.838412,-0.505196,-1.88153,
2026_07_06_16_56_28.619,3.858,33,0,0.762,0,0,0,0, ,0,0,0,0,0, ,36.8,-158.4,-986.5,-0.9,-0.5,-1.9,25,37.4591,-156.806,-986.5,-0.839118,-0.50488,-1.88265,
2026_07_06_16_56_28.639,3.858,33,0,0.761,0,0,0,0, ,0,0,0,0,0, ,37.4,-157.2,-988.6,-0.9,-0.5,-1.9,25,37.4372,-156.867,-986.564,-0.842828,-0.504582,-1.88371,
2026_07_06_16_56_28.659,3.858,33,0,0.763,0,0,0,0, ,0,0,0,0,0, ,35.7,-156.3,-987,-0.8,-0.5,-1.8,25,37.3832,-156.86,-986.64,-0.843265,-0.504303,-1.88166,
2026_07_06_16_56_28.679,3.858,33,0,0.763,0,0,0,0, ,0,0,0,0,0, ,38.2,-156.8,-987.5,-0.8,-0.5,-1.9,25,37.3568,-156.841,-986.677,-0.840629,-0.504041,-1.87973,
2026_07_06_16_56_28.698,3.858,33,0,0.763,0,0,0,0, ,0,0,0,0,0, ,37.9,-155.5,-985.5,-0.8,-0.5,-1.9,25,37.399,-156.799,-986.666,-0.838153,-0.503795,-1.88096,
2026_07_06_16_56_28.718,3.858,33,0,0.76,0,0,0,0, ,0,0,0,0,0, ,37.2,-156.6,-986.6,-0.8,-0.5,-1.9,25,37.4082,-156.753,-986.628,-0.835828,-0.503563,-1.88212,
2026_07_06_16_56_28.738,3.858,33,0,0.763,0,0,0,0, ,0,0,0,0,0, ,38.4,-159,-986.2,-1.1,-0.6,-1.9,25,37.4321,-156.817,-986.615,-0.842785,-0.506393,-1.88321,
2026_07_06_16_56_28.758,3.858,32.9,0,0.764,0,0,0,0, ,0,0,0,0,0, ,-4.7,-180.4,-967.8,24.9,-2.2,-7.4,25,36.1779,-157.602,-986.029,-0.0662718,-0.560847,-2.05181,
2026_07_06_16_56_28.777,3.858,33,0,0.764,0,0,0,0, ,0,0,0,0,0, ,-143.5,-104,-993.8,-3.9,-10.2,-56.2,25,29.4578,-156.663,-985.71,0.57761,-0.904483,-3.86459,
2026_07_06_16_56_28.798,3.858,33,0,0.765,0,0,0,0, ,0,0,0,0,0, ,106.4,-217.1,-984.6,4.8,-5.4,-34.2,25,26.5323,-156.9,-985.923,0.569834,-1.32468,-6.38347,
2026_07_06_16_56_28.816,3.858,33,0,0.763,0,0,0,0, ,0,0,0,0,0, ,219.9,-76.2,-968.9,1.2,-2.5,-16.4,25,34.8575,-156.276,-985.364,0.717922,-1.48466,-7.5362,
2026_07_06_16_56_28.837,3.858,32.9,0,0.763,0,0,0,0, ,0,0,0,0,0, ,45.5,-181.8,-1006.3,10.7,2.2,4.1,25,40.8198,-154.613,-985.5,1.03675,-1.40333,-7.45172,
2026_07_06_16_56_28.856,3.858,33,0,0.763,0,0,0,0, ,0,0,0,0,0, ,33.6,-182.6,-1096.6,11,10.1,13.7,25,40.7424,-156.295,-989.519,1.63475,-0.943047,-6.45529,
2026_07_06_16_56_28.876,3.858,33,0,0.763,0,0,0,0, ,0,0,0,0,0, ,19.2,-197.6,-1085.2,16.7,23.8,3.3,25,39.8684,-158.355,-995.697,2.37911,0.14731,-5.54395,
2026_07_06_16_56_28.896,3.858,33,0,0.76,0,0,0,0, ,0,0,0,0,0, ,123.5,-208.8,-1094.7,34.7,44.5,-6.8,25,41.7868,-161.087,-1001.44,3.80023,2.21935,-5.31276,
2026_07_06_16_56_28.916,3.858,32.9,0,0.759,0,0,0,0, ,0,0,0,0,0, ,214.1,-218.5,-1189.8,55.6,77.3,-16.7,25,49.5267,-164.29,-1010.02,6.31998,5.7952,-5.70503,
2026_07_06_16_56_28.936,3.858,33,0,0.761,0,0,0,0, ,0,0,0,0,0, ,242.3,-251.9,-1224.4,67.6,97.7,-26,25,60.4146,-168.611,-1022.03,9.68861,10.7741,-6.65839,
2026_07_06_16_56_28.955,3.858,33,0,0.761,0,0,0,0, ,0,0,0,0,0, ,291.6,-220.7,-1130.2,85.5,136.5,-40.8,25,73.0003,-172.736,-1031.49,13.763,17.2533,-8.28796,
2026_07_06_16_56_28.975,3.858,33.1,0,0.763,0,0,0,0, ,0,0,0,0,0, ,241.3,-221.5,-1072.1,84.9,160.9,-52.3,25,84.7887,-175.683,-1035.74,18.1162,25.2634,-10.6196,
2026_07_06_16_56_29.002,3.858,33,0,0.761,0,0,0,0, ,0,0,0,0,0, ,274.7,-273.4,-983.5,87.7,176.9,-61.6,25,95.3437,-180.057,-1035.25,22.2711,34.0162,-13.4428,
2026_07_06_16_56_29.015,3.858,33,0,0.761,0,0,0,0, ,0,0,0,0,0, ,414.7,-427.8,-1043.8,99.4,202.6,-77.1,25,110.539,-190.449,-1033.94,26.6147,43.5062,-16.8497,
2026_07_06_16_56_29.034,3.858,33,0,0.761,0,0,0,0, ,0,0,0,0,0, ,468.6,-377.9,-885.1,116,225.5,-79.3,25,130.716,-203.392,-1029.7,31.5558,53.8987,-20.5882,
2026_07_06_16_56_29.055,3.858,33,0,0.761,0,0,0,0, ,0,0,0,0,0, ,526.9,-350.4,-824.9,93.5,226.2,-61.6,25,153.082,-213.188,-1019.06,36.0161,64.377,-23.6266,
2026_07_06_16_56_29.075,3.858,33,0,0.761,0,0,0,0, ,0,0,0,0,0, ,613.7,-447.9,-828.1,88.5,223.6,-49.5,25,178.506,-224.52,-1007.32,39.3667,74.1589,-25.572,
2026_07_06_16_56_29.094,3.858,33,0,0.764,0,0,0,0, ,0,0,0,0,0, ,583.9,-424.4,-758,76,209,-31.9,25,204.118,-237.417,-994.265,41.9799,82.8206,-26.4938,
2026_07_06_16_56_29.114,3.858,33,0,0.76,0,0,0,0, ,0,0,0,0,0, ,668.2,-411.1,-710.2,59.6,186.3,-16.4,25,229.829,-248.406,-978.412,43.5533,89.818,-26.351,
2026_07_06_16_56_29.134,3.858,33,0,0.761,0,0,0,0, ,0,0,0,0,0, ,690.1,-329.4,-606.8,36.3,164,-7.4,25,257.21,-255.831,-958.917,43.8212,95.0179,-25.4704,
2026_07_06_16_56_29.153,3.858,33,0,0.763,0,0,0,0, ,0,0,0,0,0, ,725.3,-233.8,-539.4,23.8,152,-24.2,25,284.662,-257.401,-935.406,42.982,98.8559,-24.8811,
2026_07_06_16_56_29.173,3.858,33,0,0.763,0,0,0,0, ,0,0,0,0,0, ,748.7,-134.2,-429.8,14.9,149.8,-52.1,25,312.226,-252.928,-907.935,41.5419,102.027,-25.6897,
2026_07_06_16_56_29.194,3.858,33,0,0.76,0,0,0,0, ,0,0,0,0,0, ,636.1,-348.5,-470.3,33.5,153,-89.2,25,335.393,-252.223,-880.033,40.4852,105.036,-28.4295,
2026_07_06_16_56_29.213,3.858,33,0,0.763,0,0,0,0, ,0,0,0,0,0, ,670,-307.3,-399.6,6,129.5,-97.6,25,354.75,-256.834,-852.911,39.2216,107.243,-32.3886,
2026_07_06_16_56_29.233,3.858,33,0,0.763,0,0,0,0, ,0,0,0,0,0, ,853.8,-296.9,-452,-23,115.4,-93.4,25,379.561,-259.593,-826.884,36.3136,108.169,-36.2344,
2026_07_06_16_56_29.253,3.858,33,0,0.761,0,0,0,0, ,0,0,0,0,0, ,881.2,-233.8,-508.4,-45.1,95.9,-99,25,409.295,-259.943,-805.758,32.0258,108.016,-39.8886,
2026_07_06_16_56_29.272,3.858,33,0,0.763,0,0,0,0, ,0,0,0,0,0, ,707.2,-275,-368.6,-41,68.1,-109.5,25,432.75,-259.606,-783.378,27.4509,106.431,-43.8106,
2026_07_06_16_56_29.292,3.858,32.9,0,0.763,0,0,0,0, ,0,0,0,0,0, ,575.1,-252,-322.1,-26,47.6,-125,25,445.449,-259.843,-756.685,23.7367,103.47,-48.2858,
2026_07_06_16_56_29.312,3.858,33.1,0,0.761,0,0,0,0, ,0,0,0,0,0, ,729.4,-246.7,-244.9,0.1,22.5,-128.9,25,458.051,-259.203,-727.851,21.5011,99.3009,-53.0794,
2026_07_06_16_56_29.331,3.858,33,0,0.761,0,0,0,0, ,0,0,0,0,0, ,736.9,-302.4,-225.8,6,14.1,-104.2,25,474.815,-260.139,-697.839,20.3767,94.3649,-56.9472,
2026_07_06_16_56_29.352,3.858,33,0,0.759,0,0,0,0, ,0,0,0,0,0, ,753.5,-72.3,-144.7,-33.8,21.6,-99.8,25,491.291,-255.703,-666.603,18.288,89.7022,-59.6926,
2026_07_06_16_56_29.374,3.858,33,0,0.76,0,0,0,0, ,0,0,0,0,0, ,888.7,3.9,-31.1,-109.4,62.3,-110.4,25,511.389,-242.205,-631.338,12.8104,86.7923,-62.4596,
2026_07_06_16_56_29.391,3.858,33,0,0.761,0,0,0,0, ,0,0,0,0,0, ,835.4,37.4,-419.9,-93.7,56.7,-127.5,25,532.758,-226.188,-606.608,5.8416,85.1292,-65.902,
2026_07_06_16_56_29.411,3.858,32.9,0,0.761,0,0,0,0, ,0,0,0,0,0, ,821.8,-43.2,-239.8,10.6,3.7,-126.4,25,550.785,-212.581,-589.743,2.95367,81.782,-69.6221,
2026_07_06_16_56_29.431,3.858,32.9,0,0.763,0,0,0,0, ,0,0,0,0,0, ,906.9,58.4,-177,97.3,9.1,-109.9,25,569.893,-199.164,-566.505,6.06126,77.1884,-72.5793,
2026_07_06_16_56_29.451,3.858,32.9,0,0.761,0,0,0,0, ,0,0,0,0,0, ,954.3,82,-254.5,38.7,40,-91.9,25,591.874,-182.749,-545.131,9.83565,73.9807,-74.3051,
2026_07_06_16_56_29.471,3.858,32.9,0,0.761,0,0,0,0, ,0,0,0,0,0, ,926.8,181.1,-341.6,-106.7,72.4,-136,25,613.121,-163.597,-530.074,7.16442,72.8972,-76.7209,
2026_07_06_16_56_29.490,3.858,32.9,0,0.761,0,0,0,0, ,0,0,0,0,0, ,1006.9,222,-210.3,-148.8,81.8,-179.3,25,634.677,-141.346,-514.588,-1.05693,73.1533,-81.6525,
2026_07_06_16_56_29.510,3.858,33,0,0.763,0,0,0,0, ,0,0,0,0,0, ,1032.5,198.9,-107.2,-142.4,52.5,-97.2,25,658.139,-119.908,-492.904,-9.86502,72.7875,-85.1014,
2026_07_06_16_56_29.530,3.858,33,0,0.761,0,0,0,0, ,0,0,0,0,0, ,1030,303.5,-147,-73.9,17.4,-31.2,25,680.875,-97.2936,-470.613,-15.8543,70.4818,-83.8278,
2026_07_06_16_56_29.549,3.858,33,0,0.761,0,0,0,0, ,0,0,0,0,0, ,920.8,398.8,-417.9,-50.6,43.8,-9.6,25,698.823,-69.9666,-459.147,-18.6815,68.0515,-79.9626,
2026_07_06_16_56_29.572,3.858,33,0,0.761,0,0,0,0, ,0,0,0,0,0, ,868.1,458,-247.8,-98.1,51.5,-11.7,25,710.744,-39.5974,-451.451,-22.0738,66.8083,-75.7389,
2026_07_06_16_56_29.589,3.858,33.1,0,0.761,0,0,0,0, ,0,0,0,0,0, ,1036.6,115.7,127.6,-136.8,45,-16.4,25,725.467,-19.7045,-427.603,-27.8858,65.6774,-71.9797,
2026_07_06_16_56_29.608,3.858,33,0,0.763,0,0,0,0, ,0,0,0,0,0, ,960.8,240.6,-82.7,-141.4,30.2,-33.6,25,742.117,-7.64775,-400.178,-34.6629,63.9664,-69.1169,
2026_07_06_16_56_29.629,3.858,33,0,0.763,0,0,0,0, ,0,0,0,0,0, ,916.2,234.4,-59,-8.8,39.7,-14.6,25,754.084,7.29094,-380.109,-37.127,62.1982,-66.3737,
2026_07_06_16_56_29.649,3.858,33,0,0.761,0,0,0,0, ,0,0,0,0,0, ,863.5,330.4,-28.1,-15.9,29.4,-25.9,25,762.357,24.0554,-359.6,-35.6172,60.5134,-63.563,
2026_07_06_16_56_29.669,3.858,33,0,0.761,0,0,0,0, ,0,0,0,0,0, ,937.3,356.8,31.6,-14.4,17.8,-6.9,25,770.769,43.5276,-337.581,-34.37,58.264,-60.689,
2026_07_06_16_56_29.688,3.858,33,0,0.761,0,0,0,0, ,0,0,0,0,0, ,951.9,391.9,-70.3,-10.1,24.6,12.6,25,781.362,63.6871,-318.188,-33.022,56.0054,-56.8171,
2026_07_06_16_56_29.707,3.858,33,0,0.763,0,0,0,0, ,0,0,0,0,0, ,988.2,125.3,148.5,-19,17.3,7.8,25,792.86,75.5646,-296.416,-31.8964,53.8692,-52.7333,
2026_07_06_16_56_29.727,3.858,33,0,0.763,0,0,0,0, ,0,0,0,0,0, ,937.9,314.2,20.9,-38.2,8.6,-19,25,803.231,84.3509,-273.192,-31.6955,51.3757,-49.8611,
2026_07_06_16_56_29.748,3.858,32.9,0,0.76,0,0,0,0, ,0,0,0,0,0, ,898.8,251.5,-31.4,-24.7,27,-32,25,810.246,96.447,-256.864,-31.6806,49.3297,-48.3766,
2026_07_06_16_56_29.767,3.858,32.9,0,0.76,0,0,0,0, ,0,0,0,0,0, ,899.9,336,0.4,-24.6,48.5,-58.1,25,815.676,108.47,-242.156,-31.2521,48.624,-48.1739,
2026_07_06_16_56_29.788,3.858,33,0,0.76,0,0,0,0, ,0,0,0,0,0, ,838.9,332.5,61.8,-41.4,52.5,-83,25,818.95,122.229,-225.504,-31.3586,48.7384,-49.5374,
2026_07_06_16_56_29.806,3.858,32.9,0,0.761,0,0,0,0, ,0,0,0,0,0, ,818.6,349.9,49.8,-24.5,20,-85.6,25,819.547,135.572,-208.362,-31.4556,47.9774,-51.6558,
2026_07_06_16_56_29.827,3.858,33.1,0,0.761,0,0,0,0, ,0,0,0,0,0, ,942.2,289.3,82.5,66.3,-16.7,-51.2,25,823.255,146.786,-191.634,-28.2652,45.1543,-52.6761,
2026_07_06_16_56_29.847,3.858,33,0,0.764,0,0,0,0, ,0,0,0,0,0, ,875.9,423.3,127.3,54.4,-29.2,-23.1,25,828.483,159.554,-173.564,-22.8652,41.0042,-51.73,
2026_07_06_16_56_29.867,3.858,32.9,0,0.761,0,0,0,0, ,0,0,0,0,0, ,850.8,592.4,197.8,4.5,-46.2,-26.8,25,830.608,180.778,-153.082,-19.6773,36.2081,-50.0981,
2026_07_06_16_56_29.886,3.858,33,0,0.763,0,0,0,0, ,0,0,0,0,0, ,939.4,592.4,53.1,-40.4,-27.9,-60.1,25,834.538,205.861,-136.109,-19.572,31.744,-49.693,
2026_07_06_16_56_29.906,3.858,32.9,0,0.761,0,0,0,0, ,0,0,0,0,0, ,826,556.5,-59.4,-36.1,-41.2,-96.9,25,837.473,228.322,-128.007,-20.7102,27.7042,-51.4484,
2026_07_06_16_56_29.926,3.858,32.9,0,0.761,0,0,0,0, ,0,0,0,0,0, ,1099.1,511.5,129.8,-10.2,-49.5,-77.1,25,845.095,246.949,-118.062,-20.8589,23.2524,-53.6148,
2026_07_06_16_56_29.945,3.858,33,0,0.76,0,0,0,0, ,0,0,0,0,0, ,1101,635.4,-29.4,-11.3,-14.9,-18.1,25,860.631,266.845,-107.808,-20.2429,19.8733,-53.2483,
2026_07_06_16_56_29.965,3.858,33,0,0.761,0,0,0,0, ,0,0,0,0,0, ,988,689.2,78.4,-11.8,-26,1.9,25,871.836,290.943,-99.7457,-19.7131,17.4161,-50.4971,
2026_07_06_16_56_29.985,3.858,33,0,0.761,0,0,0,0, ,0,0,0,0,0, ,813.8,574,32.5,-37.7,-26.8,2.2,25,873.607,311.702,-90.2884,-20.0201,14.7461,-47.295,
2026_07_06_16_56_30.005,3.858,33,0,0.761,0,0,0,0, ,0,0,0,0,0, ,878.6,568.8,6.8,-18.8,34.8,0.8,25,871.937,327.527,-83.5891,-20.5216,14.0912,-44.3215,
2026_07_06_16_56_30.025,3.858,33,0,0.763,0,0,0,0, ,0,0,0,0,0, ,805.9,437.9,12.8,-14.1,34.4,8.1,25,870.128,338.242,-77.8982,-20.2735,15.341,-41.3495,
2026_07_06_16_56_30.044,3.858,33.2,0,0.763,0,0,0,0, ,0,0,0,0,0, ,830.8,288,276.9,-2.9,13.7,13.1,25,866.972,339.747,-64.3245,-19.556,15.8717,-38.1838,
2026_07_06_16_56_30.064,3.858,33,0,0.761,0,0,0,0, ,0,0,0,0,0, ,791.9,497.5,100.8,-15.5,7.1,10.1,25,863.583,342.977,-48.8966,-18.925,15.5383,-35.1501,
2026_07_06_16_56_30.084,3.858,33,0,0.761,0,0,0,0, ,0,0,0,0,0, ,810.6,480.1,97.9,-19.3,7.5,0.5,25,859.785,351.863,-39.8629,-18.832,15.0362,-32.6852,
2026_07_06_16_56_30.103,3.858,33,0,0.76,0,0,0,0, ,0,0,0,0,0, ,775.3,478.5,32.9,-14.5,-3.9,4.5,25,855.712,359.629,-33.4484,-18.7143,14.2297,-30.5411,
2026_07_06_16_56_30.124,3.858,33,0,0.761,0,0,0,0, ,0,0,0,0,0, ,841.7,507,52,-3.3,7.6,20.3,25,852.835,367.741,-28.8233,-18.1162,13.4753,-27.9244,
2026_07_06_16_56_30.143,3.858,33,0,0.761,0,0,0,0, ,0,0,0,0,0, ,892.8,411.9,137.8,-16.8,8.3,22.4,25,853.713,373.33,-21.284,-17.6247,13.1386,-24.9217,
2026_07_06_16_56_30.163,3.858,33,0,0.761,0,0,0,0, ,0,0,0,0,0, ,911.9,475.8,45.2,-26.5,-3,-6.1,25,856.677,377.627,-14.4112,-17.87,12.4994,-22.9064,
2026_07_06_16_56_30.182,3.858,33,0,0.763,0,0,0,0, ,0,0,0,0,0, ,861,453.2,51.1,-19.4,-0.6,-14.1,25,858.491,382.921,-10.5989,-18.1796,11.6281,-22.126,
2026_07_06_16_56_30.203,3.858,33.1,0,0.763,0,0,0,0, ,0,0,0,0,0, ,899.9,500.4,58.7,-18.3,-4.1,-17.4,25,859.829,388.641,-6.60752,-18.2204,10.7763,-21.7375,
2026_07_06_16_56_30.223,3.858,33,0,0.763,0,0,0,0, ,0,0,0,0,0, ,888.4,483.1,42.7,-14.7,-14.1,-4.1,25,861.921,394.925,-3.11535,-18.1156,9.56506,-21.0679,
2026_07_06_16_56_30.242,3.858,33,0,0.761,0,0,0,0, ,0,0,0,0,0, ,868.7,480.4,42.6,-2.8,-26.8,10.5,25,862.934,400.216,-0.326522,-17.5449,7.73602,-19.5891,
2026_07_06_16_56_30.262,3.858,33,0,0.763,0,0,0,0, ,0,0,0,0,0, ,874.3,453.8,3.6,2.1,-33.9,19.2,25,863.456,404.291,1.10103,-16.497,5.41515,-17.4905,
2026_07_06_16_56_30.282,3.858,33,0,0.761,0,0,0,0, ,0,0,0,0,0, ,876.8,423,-17.8,4.3,-19.9,13.2,25,864.193,406.37,0.601281,-15.2968,3.44594,-15.4375,
2026_07_06_16_56_30.301,3.858,33,0,0.761,0,0,0,0, ,0,0,0,0,0, ,879.1,425.5,-31.1,4.2,-11.3,5.9,25,865.031,407.459,-0.925281,-14.1056,2.28533,-13.9148,
2026_07_06_16_56_30.321,3.858,32.9,0,0.763,0,0,0,0, ,0,0,0,0,0, ,904.4,447.7,-30.3,5.6,-2.3,-0.7,25,866.66,409.235,-2.73968,-12.9475,1.7317,-12.9084,
2026_07_06_16_56_30.342,3.858,33,0,0.761,0,0,0,0, ,0,0,0,0,0, ,885,467.6,8.9,2.3,-0.7,-3,25,868.368,412.185,-3.22476,-11.9178,1.53476,-12.2346,
2026_07_06_16_56_30.361,3.858,33,0,0.763,0,0,0,0, ,0,0,0,0,0, ,905.5,484.9,15.3,2.3,-3,0.5,25,870.006,416.089,-2.29091,-11.0514,1.3285,-11.5652,
2026_07_06_16_56_30.381,3.858,33,0,0.761,0,0,0,0, ,0,0,0,0,0, ,891.1,478.6,8.3,1.4,-1.9,5.3,25,871.731,420.091,-1.43224,-10.2652,1.09825,-10.6837,
2026_07_06_16_56_30.401,3.858,32.9,0,0.763,0,0,0,0, ,0,0,0,0,0, ,886.9,450.9,2.6,0.1,1.4,4,25,872.783,422.812,-1.01286,-9.59397,1.01609,-9.74931,
2026_07_06_16_56_30.420,3.858,33,0,0.763,0,0,0,0, ,0,0,0,0,0, ,870.3,452.2,25.7,0.9,9.2,-2.6,25,873.137,424.563,-0.0888699,-8.97887,1.27714,-9.11256,
2026_07_06_16_56_30.440,3.858,33,0,0.761,0,0,0,0, ,0,0,0,0,0, ,865.1,450,32.5,1.2,9.1,-3.6,25,872.806,426.18,1.68983,-8.36773,1.7569,-8.74617,
2026_07_06_16_56_30.460,3.858,33.1,0,0.763,0,0,0,0, ,0,0,0,0,0, ,870.4,467.1,50.6,2.1,6,-3.4,25,872.498,428.153,4.11881,-7.75728,2.10991,-8.42648,
2026_07_06_16_56_30.480,3.858,33,0,0.763,0,0,0,0, ,0,0,0,0,0, ,879.7,490.3,56.5,1.7,5.7,-2.4,25,872.653,431.233,7.13102,-7.16879,2.33782,-8.08971,
2026_07_06_16_56_30.500,3.858,33,0,0.76,0,0,0,0, ,0,0,0,0,0, ,877,476.3,39.6,-2.8,5.7,-0.6,25,873.001,434.406,9.62452,-6.76545,2.54271,-7.68815,
2026_07_06_16_56_30.519,3.858,32.9,0,0.76,0,0,0,0, ,0,0,0,0,0, ,874.3,466.9,47.2,-7.4,4.9,-1.9,25,873.162,436.672,11.6827,-6.66397,2.71073,-7.29582,
2026_07_06_16_56_30.539,3.858,33,0,0.763,0,0,0,0, ,0,0,0,0,0, ,884,471.9,60.9,-8.3,3.4,-3.1,25,873.527,438.667,14.2645,-6.73624,2.79844,-7.00358,
2026_07_06_16_56_30.559,3.858,33,0,0.761,0,0,0,0, ,0,0,0,0,0, ,891.9,489.3,51.2,-4.7,-0.8,-1.3,25,874.406,441.222,16.8108,-6.72184,2.70712,-6.71086,
2026_07_06_16_56_30.579,3.858,33,0,0.761,0,0,0,0, ,0,0,0,0,0, ,898,493.4,41.8,-4.7,-1.3,1,25,875.658,444.277,18.62,-6.59864,2.47817,-6.31106,
2026_07_06_16_56_30.599,3.858,33,0,0.763,0,0,0,0, ,0,0,0,0,0, ,908.5,473.7,39.1,-4.1,1.6,0.5,25,877.339,446.67,19.9502,-6.46466,2.3363,-5.88077,
2026_07_06_16_56_30.619,3.858,33,0,0.763,0,0,0,0, ,0,0,0,0,0, ,935.7,483.7,25.7,3.9,3.1,3.2,25,880.067,448.622,20.7089,-6.07681,2.33714,-5.40968,
2026_07_06_16_56_30.645,3.858,33,0,0.764,0,0,0,0, ,0,0,0,0,0, ,962.4,546.3,40.7,11.9,10.3,5.5,25,884.27,452.667,21.4701,-5.2251,2.603,-4.81495,
2026_07_06_16_56_30.661,3.858,33,0,0.763,0,0,0,0, ,0,0,0,0,0, ,1037.4,643,-108.8,-9.4,60.5,19.6,25,891.317,461.319,18.0868,-4.83052,4.60157,-3.75677,
2026_07_06_16_56_30.677,3.858,33,0,0.763,0,0,0,0, ,0,0,0,0,0, ,1022.7,590.5,24.6,-0.2,101.2,34,25,899.771,470.79,14.4192,-4.82866,9.24795,-1.89472,
2026_07_06_16_56_30.697,3.858,32.9,0,0.763,0,0,0,0, ,0,0,0,0,0, ,972.6,530,222.7,16,93.3,61.9,25,905.735,476.242,21.0754,-4.05301,14.6106,1.14269,
2026_07_06_16_56_30.717,3.858,33,0,0.761,0,0,0,0, ,0,0,0,0,0, ,1009.3,487,174.3,4,78.4,54.2,25,910.928,478.208,31.8872,-3.19666,18.9517,4.61048,
2026_07_06_16_56_30.737,3.858,33,0,0.761,0,0,0,0, ,0,0,0,0,0, ,1012.9,383.4,146.3,-10.1,84,27.6,25,917.032,475.587,39.7124,-3.18772,22.745,6.82187,
2026_07_06_16_56_30.757,3.858,33,0,0.76,0,0,0,0, ,0,0,0,0,0, ,993.7,408.2,187.8,-17.8,102.8,-3.5,25,922.289,470.725,47.472,-3.84355,27.0505,7.14046,
2026_07_06_16_56_30.776,3.858,33,0,0.763,0,0,0,0, ,0,0,0,0,0, ,964.8,319.2,159.5,-18.8,148,-29.2,25,925.76,464.203,55.161,-4.72449,33.0437,5.70901,
2026_07_06_16_56_30.796,3.858,32.9,0,0.763,0,0,0,0, ,0,0,0,0,0, ,928.5,349.4,211.4,-6.9,192.1,-41.7,25,927.033,456.287,63.1005,-5.21963,41.3925,3.20089,
2026_07_06_16_56_30.816,3.858,33,0,0.761,0,0,0,0, ,0,0,0,0,0, ,874,415.7,293.8,-34.7,225.2,-39.3,25,925.462,451.794,74.6481,-6.16906,51.5848,0.537863,
2026_07_06_16_56_30.837,3.858,33,0,0.761,0,0,0,0, ,0,0,0,0,0, ,757.6,276.1,261.5,-75,242.4,-65.9,25,918.779,445.341,87.0185,-9.13556,62.6885,-2.70023,
2026_07_06_16_56_30.856,3.858,33,0,0.761,0,0,0,0, ,0,0,0,0,0, ,883.6,258.6,301.7,-74.1,240.9,-74.8,25,912.797,434.494,98.8758,-13.1217,73.594,-6.82263,
2026_07_06_16_56_30.875,3.858,33.1,0,0.761,0,0,0,0, ,0,0,0,0,0, ,729.7,211.1,353.1,-61.1,228.3,-47.5,25,906.328,422.329,112.802,-16.4415,83.4053,-10.1332,
2026_07_06_16_56_30.895,3.858,33,0,0.761,0,0,0,0, ,0,0,0,0,0, ,596.6,271.1,345.8,-34.8,186.3,-28.2,25,891.51,411.285,127.222,-18.3616,90.9551,-11.8222,
2026_07_06_16_56_30.915,3.858,32.9,0,0.761,0,0,0,0, ,0,0,0,0,0, ,561.5,234.4,366.2,1.9,141.6,-11.4,25,872.469,401.624,141.163,-18.2451,95.4032,-12.3083,
2026_07_06_16_56_30.934,3.858,33,0,0.763,0,0,0,0, ,0,0,0,0,0, ,360.1,208.8,566.8,-5.3,88,3.5,25,847.383,390.654,160.989,-17.2369,96.5852,-11.799,
2026_07_06_16_56_30.954,3.858,33,0,0.761,0,0,0,0, ,0,0,0,0,0, ,377.1,207.1,608.2,-11.3,67.5,2.8,25,818.207,379.521,186.979,-16.6923,95.4375,-10.8881,
2026_07_06_16_56_30.975,3.858,32.9,0,0.76,0,0,0,0, ,0,0,0,0,0, ,521.6,145.5,474.7,-13.6,52.7,10,25,795.73,367.137,208.58,-16.4338,93.2841,-9.83456,
2026_07_06_16_56_30.994,3.858,33,0,0.761,0,0,0,0, ,0,0,0,0,0, ,411.8,-6.3,371,44.3,39.7,30.6,25,775.68,349.006,221.637,-14.4969,90.4149,-7.99824,
2026_07_06_16_56_31.014,3.858,33,0,0.761,0,0,0,0, ,0,0,0,0,0, ,267,257.2,414.3,96.9,25.1,36.1,25,749.094,335.383,232.058,-9.31134,86.8796,-5.47858,
2026_07_06_16_56_31.034,3.858,33,0,0.761,0,0,0,0, ,0,0,0,0,0, ,387.3,652.8,611.9,58.3,34.7,-8,25,723.382,342.672,249.184,-4.01518,83.4074,-4.28856,
2026_07_06_16_56_31.053,3.858,33,0,0.763,0,0,0,0, ,0,0,0,0,0, ,556.5,672.8,730.4,1.8,60.8,-28.1,25,708.057,362.18,274.897,-1.93934,81.2345,-5.12715,
2026_07_06_16_56_31.078,3.858,33,0,0.763,0,0,0,0, ,0,0,0,0,0, ,427.6,597.5,769.2,8.9,89,-17.1,25,694.894,378.814,303.837,-1.49514,80.8485,-6.1919,
2026_07_06_16_56_31.095,3.858,33,0,0.763,0,0,0,0, ,0,0,0,0,0, ,161,681.5,712.2,35.2,71,-24.4,25,670.483,394.699,330.458,-0.0603607,80.7968,-7.07903,
2026_07_06_16_56_31.113,3.858,33,0,0.761,0,0,0,0, ,0,0,0,0,0, ,358.6,808.3,827.5,58.3,18.4,-54,25,645.457,416.04,357.234,2.79215,78.5972,-9.0364,
2026_07_06_16_56_31.133,3.858,33,0,0.763,0,0,0,0, ,0,0,0,0,0, ,514.8,831,1061.1,19.9,39,-31.2,25,632.736,440.635,393.008,5.00466,75.5566,-11.0817,
2026_07_06_16_56_31.153,3.858,33.1,0,0.763,0,0,0,0, ,0,0,0,0,0, ,316.7,742.4,977.1,-10.6,44.2,-15,25,619.513,461.723,431.16,4.98304,73.4873,-11.8141,
2026_07_06_16_56_31.171,3.858,33,0,0.759,0,0,0,0, ,0,0,0,0,0, ,221.3,623.6,902.3,-23,32.3,-18.5,25,598.154,475.207,462.15,3.65564,71.3401,-12.1148,
2026_07_06_16_56_31.192,3.858,33.1,0,0.762,0,0,0,0, ,0,0,0,0,0, ,335.9,590.8,881.8,-29,34.6,-19.9,25,578.681,483.25,488.347,1.8485,69.0311,-12.5466,
2026_07_06_16_56_31.213,3.858,33,0,0.76,0,0,0,0, ,0,0,0,0,0, ,311.2,498.6,802.3,-31.7,52.6,-18.9,25,563.134,486.995,509.9,-0.113597,67.4814,-12.9642,
2026_07_06_16_56_31.231,3.858,33.1,0,0.763,0,0,0,0, ,0,0,0,0,0, ,212.7,382.6,738.1,-16.1,50.7,-17.5,25,544.781,484.168,525.762,-1.56308,66.5167,-13.2833,
2026_07_06_16_56_31.251,3.858,33.1,0,0.762,0,0,0,0, ,0,0,0,0,0, ,260.1,424.9,746.3,8.3,32.1,-5.2,25,525.989,479.267,538.952,-1.70549,64.9862,-13.1655,
2026_07_06_16_56_31.270,3.858,33,0,0.763,0,0,0,0, ,0,0,0,0,0, ,294.6,448.9,850.9,3.7,20.1,-4.5,25,510.837,476.686,554.774,-1.23593,62.6165,-12.6587,
2026_07_06_16_56_31.291,3.858,33,0,0.762,0,0,0,0, ,0,0,0,0,0, ,295.6,475.4,843.7,-2.4,30,-12.8,25,497.691,475.8,572.6,-1.12101,60.3273,-12.4145,
2026_07_06_16_56_31.310,3.858,33,0,0.762,0,0,0,0, ,0,0,0,0,0, ,326.4,479.3,839.7,-4.6,37.9,-17.9,25,486.314,475.894,588.998,-1.26598,58.7199,-12.5933,
2026_07_06_16_56_31.331,3.858,33.1,0,0.76,0,0,0,0, ,0,0,0,0,0, ,320.1,497.6,861.2,-5,39.1,-13.8,25,476.378,476.659,604.93,-1.48133,57.4878,-12.7918,
2026_07_06_16_56_31.351,3.858,33,0,0.762,0,0,0,0, ,0,0,0,0,0, ,331.9,517.3,912.8,-5.4,23.8,-1.6,25,467.214,478.536,622.119,-1.70794,55.9011,-12.4815,
2026_07_06_16_56_31.370,3.858,33,0,0.762,0,0,0,0, ,0,0,0,0,0, ,277.8,534,858.1,-7.7,12.4,7,25,457.32,481.407,638.166,-2.003,53.5976,-11.5564,
2026_07_06_16_56_31.390,3.858,33,0,0.76,0,0,0,0, ,0,0,0,0,0, ,249.7,450.4,861.4,-4.8,17.8,-3.1,25,445.524,482.064,651.668,-2.2618,51.2517,-10.7333,
2026_07_06_16_56_31.409,3.858,33,0,0.76,0,0,0,0, ,0,0,0,0,0, ,298.5,466.6,849.2,2.2,15.3,-2.3,25,435.078,480.629,664.077,-2.20319,49.137,-10.2438,
2026_07_06_16_56_31.430,3.858,33.1,0,0.762,0,0,0,0, ,0,0,0,0,0, ,308.4,506.2,878.6,7.1,10.6,8.9,25,427.057,480.98,676.254,-1.78558,46.9319,-9.41849,
2026_07_06_16_56_31.450,3.858,33.1,0,0.762,0,0,0,0, ,0,0,0,0,0, ,273.6,501.3,875.9,6.3,6.6,15.8,25,418.766,482.368,688.502,-1.26849,44.596,-8.09197,
2026_07_06_16_56_31.469,3.858,33,0,0.762,0,0,0,0, ,0,0,0,0,0, ,259.5,501.8,864,5.7,7.9,13,25,409.49,483.537,699.559,-0.825565,42.3203,-6.72137,
2026_07_06_16_56_31.488,3.858,33.1,0,0.762,0,0,0,0, ,0,0,0,0,0, ,260.2,549.4,896.8,2.6,10.3,9.2,25,400.372,486.1,710.579,-0.522366,40.2959,-5.63538,
2026_07_06_16_56_31.508,3.858,33,0,0.762,0,0,0,0, ,0,0,0,0,0, ,264.1,526.3,865.4,-2.8,8.5,10,25,391.949,489.253,720.97,-0.496628,38.4132,-4.70697,
2026_07_06_16_56_31.528,3.858,33.1,0,0.76,0,0,0,0, ,0,0,0,0,0, ,228.8,537.4,873.9,-4,11.7,6.1,25,383.082,491.849,730.03,-0.673552,36.6878,-3.92959,
2026_07_06_16_56_31.548,3.858,33,0,0.76,0,0,0,0, ,0,0,0,0,0, ,219.3,529.2,873.2,-5.3,3.2,5.6,25,373.391,494.375,738.776,-0.915867,34.9062,-3.33365,
2026_07_06_16_56_31.568,3.858,33.1,0,0.761,0,0,0,0, ,0,0,0,0,0, ,183.8,532.8,884.2,-7.2,-9.9,4.6,25,362.92,496.607,747.303,-1.24092,32.5749,-2.81972,
2026_07_06_16_56_31.588,3.858,33,0,0.76,0,0,0,0, ,0,0,0,0,0, ,187.5,496.2,857.5,-2.9,-15.8,0.4,25,352.117,497.697,754.831,-1.47303,29.8069,-2.49555,
2026_07_06_16_56_31.608,3.858,32.9,0,0.763,0,0,0,0, ,0,0,0,0,0, ,192.7,532.5,909,1.5,-28.6,0.2,25,342.244,498.712,762.657,-1.42593,26.6377,-2.3252,
2026_07_06_16_56_31.627,3.858,33.1,0,0.761,0,0,0,0, ,0,0,0,0,0, ,191.8,554.9,978.1,0.2,-40.8,3.3,25,333.104,501.453,773.68,-1.28724,22.8999,-2.07687,
2026_07_06_16_56_31.646,3.858,33,0,0.759,0,0,0,0, ,0,0,0,0,0, ,248.5,566,1027.5,-6.7,-72.8,13.9,25,326.221,505.049,787.642,-1.40684,18.0432,-1.42624,
2026_07_06_16_56_31.667,3.858,33,0,0.763,0,0,0,0, ,0,0,0,0,0, ,344.6,532.9,982.7,-9,-106.2,21.2,25,324.413,507.754,800.893,-1.79947,11.4898,-0.26988,
2026_07_06_16_56_31.687,3.858,32.9,0,0.763,0,0,0,0, ,0,0,0,0,0, ,287.5,557,977.5,-1,-128.7,28.9,25,323.903,510.021,811.814,-1.9945,3.63252,1.27305,
2026_07_06_16_56_31.706,3.858,33.1,0,0.763,0,0,0,0, ,0,0,0,0,0, ,385.7,655.6,998.2,0.2,-162.3,33.6,25,324.677,515.888,822.541,-1.89734,-5.45524,3.09977,
2026_07_06_16_56_31.727,3.858,32.9,0,0.76,0,0,0,0, ,0,0,0,0,0, ,568.9,583.2,890.1,-4.3,-158.6,47.1,25,333.978,522.196,829.952,-1.90664,-14.9002,5.36971,
2026_07_06_16_56_31.747,3.858,33,0,0.76,0,0,0,0, ,0,0,0,0,0, ,448.8,455.3,883.4,-11.4,-153.2,57.6,25,344.634,522.016,833.413,-2.26882,-23.4924,8.23257,
2026_07_06_16_56_31.766,3.858,33,0,0.762,0,0,0,0, ,0,0,0,0,0, ,463.5,513.6,821.1,-11.4,-158.9,33.4,25,351.429,519.727,834.561,-2.82525,-31.5701,10.5036,
2026_07_06_16_56_31.785,3.858,33,0,0.762,0,0,0,0, ,0,0,0,0,0, ,447.8,398,772.7,-3.6,-184.5,29.7,25,357.78,515.831,832.266,-3.11011,-40.1093,11.7861,
2026_07_06_16_56_31.806,3.858,33,0,0.763,0,0,0,0, ,0,0,0,0,0, ,543.4,414.1,762.2,-8,-220.7,68.3,25,366.179,509.142,828.316,-3.27403,-50.0111,14.0538,
2026_07_06_16_56_31.825,3.858,33,0,0.762,0,0,0,0, ,0,0,0,0,0, ,519.4,346.3,550.2,-8.1,-250.1,84.4,25,376.247,501.284,817.828,-3.56506,-61.3082,17.85,
2026_07_06_16_56_31.845,3.858,33,0,0.76,0,0,0,0, ,0,0,0,0,0, ,428.1,147.3,445.3,44.8,-250.1,65.4,25,382.188,485.777,798.323,-2.22962,-72.8127,21.3265,
2026_07_06_16_56_31.864,3.858,33,0,0.763,0,0,0,0, ,0,0,0,0,0, ,453.8,204.8,358.6,65.4,-250.1,38.9,25,385.769,466.903,774.169,1.26391,-83.6161,23.2048,
2026_07_06_16_56_31.884,3.858,33,0,0.761,0,0,0,0, ,0,0,0,0,0, ,485.5,305,244.9,81.7,-250.1,22.7,25,390.881,453.984,745.381,5.66884,-93.7613,23.6676,
2026_07_06_16_56_31.905,3.858,33,0,0.761,0,0,0,0, ,0,0,0,0,0, ,685.3,281.3,184.8,87,-250.1,30.2,25,402.734,444.183,713.052,10.4635,-103.288,23.8372,
2026_07_06_16_56_31.923,3.858,33,0,0.761,0,0,0,0, ,0,0,0,0,0, ,757.2,324.2,81,67.8,-250.1,57.1,25,422.144,435.564,677.699,14.5424,-112.234,25.0445,
2026_07_06_16_56_31.944,3.858,33,0,0.762,0,0,0,0, ,0,0,0,0,0, ,956.4,459.3,-115.7,36.3,-237.4,92.1,25,448.631,432.894,635.344,16.828,-120.249,28.0643,
2026_07_06_16_56_31.964,3.858,32.9,0,0.762,0,0,0,0, ,0,0,0,0,0, ,856.3,281.3,-262.3,-2.9,-131,64.8,25,476.523,429.08,585.111,16.8202,-124.146,31.1347,
2026_07_06_16_56_31.983,3.858,33,0,0.76,0,0,0,0, ,0,0,0,0,0, ,739.9,140.2,-293.9,-35.7,-40,-9.8,25,496.119,415.776,532.509,14.6192,-121.791,30.9132,
2026_07_06_16_56_32.004,3.858,33,0,0.762,0,0,0,0, ,0,0,0,0,0, ,737.3,266.4,-186.1,-31.1,-33.7,-26.4,25,510.895,402.828,485.434,11.693,-116.615,27.9264,
2026_07_06_16_56_32.023,3.858,33,0,0.76,0,0,0,0, ,0,0,0,0,0, ,826.2,336.5,-244.7,-34.3,-68.9,0,25,527.4,396.65,442.727,8.98779,-112.635,25.4203,
2026_07_06_16_56_32.043,3.858,33,0,0.762,0,0,0,0, ,0,0,0,0,0, ,909,192.1,-422.1,-26.5,-72.7,6.1,25,548.131,388.585,395.432,6.5876,-110.085,24.0571,
2026_07_06_16_56_32.062,3.858,33,0,0.76,0,0,0,0, ,0,0,0,0,0, ,928.8,271.7,-427.1,-4.3,-58.2,11.6,25,570.725,379.037,345.461,5.24773,-107.365,23.1304,
2026_07_06_16_56_32.082,3.858,33,0,0.76,0,0,0,0, ,0,0,0,0,0, ,934.4,340.5,-439,7.7,-41.7,6.2,25,592.716,374.592,298.021,5.03154,-103.867,22.2633,
2026_07_06_16_56_32.103,3.858,33.1,0,0.763,0,0,0,0, ,0,0,0,0,0, ,966.7,340.4,-359.7,22,-19.4,18,25,614.521,372.512,255.525,5.62985,-99.3989,21.6439,
2026_07_06_16_56_32.122,3.858,32.9,0,0.761,0,0,0,0, ,0,0,0,0,0, ,974.9,338.3,-309.8,31.8,-16.4,21.1,25,636.232,370.491,219.555,6.926,-94.4325,21.5163,
2026_07_06_16_56_32.142,3.858,33,0,0.761,0,0,0,0, ,0,0,0,0,0, ,1061.6,188.7,-354.6,18.8,2.2,18.8,25,659.511,363.971,185.932,8.04567,-89.1107,21.4209,
2026_07_06_16_56_32.162,3.858,33,0,0.76,0,0,0,0, ,0,0,0,0,0, ,1063.1,226.4,-340,14,19.6,12.8,25,684.059,354.439,153.438,8.55476,-83.0163,21.0784,
2026_07_06_16_56_32.182,3.858,33,0,0.762,0,0,0,0, ,0,0,0,0,0, ,1032.2,240.1,-270.2,7,35.1,-0.6,25,706.216,347.054,125.496,8.6733,-76.2908,20.1656,
2026_07_06_16_56_32.200,3.858,33,0,0.76,0,0,0,0, ,0,0,0,0,0, ,990.9,335,-176,7.9,38.6,-6.4,25,724.822,343.428,104.254,8.59875,-69.3963,18.7235,
2026_07_06_16_56_32.221,3.858,33,0,0.762,0,0,0,0, ,0,0,0,0,0, ,998.2,330.4,-156,3.6,23.5,0.8,25,741.258,342.775,87.785,8.42516,-63.2754,17.4119,
2026_07_06_16_56_32.240,3.858,33.1,0,0.761,0,0,0,0, ,0,0,0,0,0, ,985.3,334.7,-161.7,-10.3,17,5.6,25,756.523,342.152,72.7557,7.70761,-58.1856,16.5459,
2026_07_06_16_56_32.266,3.858,33,0,0.76,0,0,0,0, ,0,0,0,0,0, ,971.6,285.6,-157.8,-17,17.7,3.2,25,770.046,340.201,58.5874,6.40613,-53.5826,15.8057,
2026_07_06_16_56_32.286,3.858,32.9,0,0.76,0,0,0,0, ,0,0,0,0,0, ,950.9,261.5,-162.7,-17.3,20.1,-0.7,25,781.698,336.14,45.252,4.97068,-49.1657,14.9187,
2026_07_06_16_56_32.300,3.858,33,0,0.761,0,0,0,0, ,0,0,0,0,0, ,968.7,313.3,-140.3,-14.2,18.7,-3.5,25,792.551,333.17,33.2624,3.70801,-44.9875,13.8817,
2026_07_06_16_56_32.320,3.858,33,0,0.762,0,0,0,0, ,0,0,0,0,0, ,904.6,335.8,-83.9,12.5,3.4,-11.5,25,801.332,332.645,24.4044,3.43026,-41.5727,12.5787,
2026_07_06_16_56_32.340,3.858,33.1,0,0.761,0,0,0,0, ,0,0,0,0,0, ,984.8,316.2,-47.8,3.7,16.3,-19,25,810.069,332.24,18.9045,3.71482,-38.4391,10.8829,
2026_07_06_16_56_32.360,3.858,33,0,0.762,0,0,0,0, ,0,0,0,0,0, ,915.5,361.8,-63.7,-10.1,10.6,-22.2,25,818.605,332.652,14.3552,3.29345,-35.2771,8.96441,
2026_07_06_16_56_32.379,3.858,32.9,0,0.762,0,0,0,0, ,0,0,0,0,0, ,916.3,389.1,-125.9,-7.3,-0.5,-17.9,25,824.534,335.26,7.70359,2.5626,-32.8197,7.19635,
2026_07_06_16_56_32.399,3.858,33,0,0.76,0,0,0,0, ,0,0,0,0,0, ,966.7,302.2,-174.3,-16.7,-7.1,-3.1,25,831.661,335.893,-1.91257,1.67519,-31.0513,6.11798,
2026_07_06_16_56_32.419,3.858,33,0,0.761,0,0,0,0, ,0,0,0,0,0, ,949.9,314.8,-60,-36.5,-16.2,-6.6,25,839.378,334.224,-8.93485,-0.0478299,-29.869,5.44962,
2026_07_06_16_56_32.439,3.858,33,0,0.763,0,0,0,0, ,0,0,0,0,0, ,968.3,251.2,-106.5,-35.6,-34.1,-23,25,846.674,331.102,-13.4634,-2.24171,-29.5815,4.21566,
2026_07_06_16_56_32.459,3.858,33.1,0,0.76,0,0,0,0, ,0,0,0,0,0, ,962.2,275.6,-220.5,-15.7,-52.5,-40.6,25,853.9,326.977,-22.6063,-3.66815,-30.4174,2.02095,
2026_07_06_16_56_32.479,3.858,33,0,0.762,0,0,0,0, ,0,0,0,0,0, ,972.1,385.2,-125.2,-7.7,-62.9,-35.9,25,860.801,327.185,-31.7618,-4.15759,-32.08,-0.433059,
2026_07_06_16_56_32.498,3.858,33,0,0.76,0,0,0,0, ,0,0,0,0,0, ,969.1,394,-194.8,-5.2,-84.1,-11.2,25,867.492,330.989,-39.5763,-4.29729,-34.604,-1.84175,
2026_07_06_16_56_32.518,3.858,33,0,0.763,0,0,0,0, ,0,0,0,0,0, ,836.9,333.2,-261.4,-0.3,-108.3,-16.2,25,869.655,332.976,-51.0644,-4.203,-38.3575,-2.56436,
2026_07_06_16_56_32.538,3.858,33,0,0.761,0,0,0,0, ,0,0,0,0,0, ,856.8,355.8,-178.4,24,-136.5,-46.6,25,868.266,333.678,-61.3529,-3.22477,-43.4789,-4.32153,
2026_07_06_16_56_32.558,3.858,33,0,0.762,0,0,0,0, ,0,0,0,0,0, ,921.6,460.4,-174.1,5.6,-166.6,-35.2,25,869.541,338.213,-68.3544,-2.12639,-50.0644,-6.55053,
2026_07_06_16_56_32.577,3.858,33,0,0.76,0,0,0,0, ,0,0,0,0,0, ,880.2,467.8,-291.9,-18,-164.1,-9.2,25,871.452,345.884,-78.3875,-2.37462,-57.0897,-7.50417,
2026_07_06_16_56_32.597,3.858,32.9,0,0.762,0,0,0,0, ,0,0,0,0,0, ,739,491.6,-336.1,-43.9,-183,3.2,25,867.683,354.039,-92.7451,-4.11593,-64.1865,-7.2297,
2026_07_06_16_56_32.617,3.858,33,0,0.763,0,0,0,0, ,0,0,0,0,0, ,596,589.7,-308.9,-46.2,-215.1,33,25,855.485,365.41,-106.746,-6.61035,-72.4047,-5.68617,
2026_07_06_16_56_32.636,3.858,33,0,0.764,0,0,0,0, ,0,0,0,0,0, ,556.3,186.2,-477.9,-0.5,-235.5,33,25,838.463,366.784,-124.214,-7.63043,-81.7218,-3.32873,
2026_07_06_16_56_32.656,3.858,32.9,0,0.763,0,0,0,0, ,0,0,0,0,0, ,633.4,77.5,-694.8,82.3,-246.7,-6.2,25,823.617,352.468,-152.375,-4.6731,-91.4339,-2.30932,
2026_07_06_16_56_32.676,3.858,33.1,0,0.762,0,0,0,0, ,0,0,0,0,0, ,692.6,143.1,-898.4,154.1,-238.9,-8.1,25,813.83,337.711,-191.633,2.81448,-100.658,-2.6043,
2026_07_06_16_56_32.697,3.858,33,0,0.76,0,0,0,0, ,0,0,0,0,0, ,439.9,-58.8,-537.1,199.9,-250.1,-1.3,25,798.743,319.7,-223.693,13.4289,-109.423,-2.73201,
2026_07_06_16_56_32.715,3.858,33,0,0.76,0,0,0,0, ,0,0,0,0,0, ,457.8,303.9,-696,220.1,-250.1,4.7,25,777.421,307.686,-247.633,25.4075,-117.996,-2.46193,
2026_07_06_16_56_32.735,3.858,33,0,0.76,0,0,0,0, ,0,0,0,0,0, ,395.6,202.6,-832.2,236.1,-250.1,8.8,25,756.049,304.369,-279.105,37.759,-126.046,-1.90058,
2026_07_06_16_56_32.754,3.858,33,0,0.763,0,0,0,0, ,0,0,0,0,0, ,315.6,101.1,-1012,228.7,-250.1,-1.4,25,731.647,295.075,-318.287,49.62,-133.605,-1.5593,
2026_07_06_16_56_32.775,3.858,33.1,0,0.761,0,0,0,0, ,0,0,0,0,0, ,304.3,32.5,-1107.2,205.5,-250.1,-4.5,25,705.95,281.164,-363.461,59.8258,-140.704,-1.64404,
2026_07_06_16_56_32.795,3.858,33,0,0.762,0,0,0,0, ,0,0,0,0,0, ,172.3,-121.7,-1103.2,170.4,-207.3,-4,25,677.452,261.313,-408.661,67.6333,-146.066,-1.80284,
2026_07_06_16_56_32.814,3.858,33.1,0,0.762,0,0,0,0, ,0,0,0,0,0, ,141.4,-124,-1064.4,133,-161.3,-1.5,25,645.728,237.903,-449.802,72.7562,-148.396,-1.86056,
2026_07_06_16_56_32.835,3.858,33,0,0.761,0,0,0,0, ,0,0,0,0,0, ,118.7,-131.8,-1005.4,94,-114,10,25,614.304,215.612,-485.457,75.239,-147.741,-1.4882,
2026_07_06_16_56_32.854,3.858,32.9,0,0.761,0,0,0,0, ,0,0,0,0,0, ,2.6,-181.7,-974.3,61.7,-71.6,1.2,25,580.566,192.921,-516.193,75.3981,-144.393,-1.05626,
2026_07_06_16_56_32.875,3.858,33,0,0.762,0,0,0,0, ,0,0,0,0,0, ,-51.8,-184.3,-884.7,31.3,-62.1,-6.8,25,543.688,170.013,-541.379,73.6371,-139.668,-1.16252,
2026_07_06_16_56_32.894,3.858,33,0,0.759,0,0,0,0, ,0,0,0,0,0, ,-23.4,-184.6,-907.5,21,-58.9,1.2,25,508.266,148.413,-562.995,70.7434,-134.844,-1.2623,
2026_07_06_16_56_32.913,3.858,33.1,0,0.76,0,0,0,0, ,0,0,0,0,0, ,-39.1,-146.7,-869.1,20.1,-55.3,21.4,25,475.389,129.275,-582.818,67.6847,-130.106,-0.496789,
2026_07_06_16_56_32.934,3.858,33,0,0.76,0,0,0,0, ,0,0,0,0,0, ,-79.4,-181.7,-881.4,22.8,-58.1,33.8,25,442.81,111.391,-600.638,64.8673,-125.633,1.21536,
2026_07_06_16_56_32.953,3.858,33.1,0,0.76,0,0,0,0, ,0,0,0,0,0, ,-102.5,-197.2,-909.5,25.1,-56.9,34.5,25,410.284,93.0589,-618.603,62.3739,-121.481,3.22231,
2026_07_06_16_56_32.973,3.858,32.9,0,0.763,0,0,0,0, ,0,0,0,0,0, ,-126.2,-217,-1003.5,28.2,-45.6,29.2,25,378.314,74.768,-639.194,60.197,-117.202,4.96681,
2026_07_06_16_56_32.994,3.858,33.1,0,0.763,0,0,0,0, ,0,0,0,0,0, ,-115.7,-242.5,-1012.2,53.9,-31.9,17.8,25,347.89,56.2114,-661.659,59.0302,-112.421,6.09618,
2026_07_06_16_56_33.013,3.858,33.1,0,0.762,0,0,0,0, ,0,0,0,0,0, ,-133.1,-296.9,-1033.4,32.4,-3.9,23.9,25,319.11,36.3512,-683.666,58.0625,-106.661,6.99524,
2026_07_06_16_56_33.033,3.858,33.1,0,0.762,0,0,0,0, ,0,0,0,0,0, ,-195.3,-284,-961.9,17.4,-3.6,25.2,25,289.658,16.4367,-702.799,56.0417,-100.39,8.06498,
2026_07_06_16_56_33.052,3.858,33,0,0.762,0,0,0,0, ,0,0,0,0,0, ,-193.9,-288,-979.4,16.6,1.3,19.8,25,260.149,-1.993,-719.121,53.6626,-94.3425,8.94462,
2026_07_06_16_56_33.078,3.858,33.1,0,0.762,0,0,0,0, ,0,0,0,0,0, ,-204.7,-277.2,-969.3,8.5,-0.2,16.1,25,232.151,-19.0925,-734.674,51.1573,-88.56,9.49338,
2026_07_06_16_56_33.092,3.858,33.1,0,0.762,0,0,0,0, ,0,0,0,0,0, ,-194.7,-309.5,-989.3,4.9,5.2,9.7,25,205.835,-35.8051,-749.581,48.4481,-83.011,9.70097,
2026_07_06_16_56_33.113,3.858,32.9,0,0.763,0,0,0,0, ,0,0,0,0,0, ,-162.2,-328.1,-1016.6,2.8,7.7,7.9,25,182.418,-53.0501,-765.021,45.7304,-77.5595,9.64607,
2026_07_06_16_56_33.131,3.858,33.1,0,0.76,0,0,0,0, ,0,0,0,0,0, ,-178.4,-250.8,-960.6,0.4,4,14.3,25,160.924,-67.4557,-778.645,43.0412,-72.4767,9.73467,
2026_07_06_16_56_33.151,3.858,33,0,0.762,0,0,0,0, ,0,0,0,0,0, ,-141.1,-253.5,-973.2,-0.8,1.8,13,25,141.383,-78.7105,-790.117,40.4062,-67.8834,9.97326,
2026_07_06_16_56_33.171,3.858,33.1,0,0.76,0,0,0,0, ,0,0,0,0,0, ,-128.2,-251.9,-972,-7.5,9.4,5.9,25,124.562,-89.313,-801.237,37.6911,-63.4055,9.94137,
2026_07_06_16_56_33.191,3.858,33,0,0.762,0,0,0,0, ,0,0,0,0,0, ,-108.3,-236.9,-980.3,-14.6,21.2,1.3,25,109.766,-98.7636,-811.896,34.7209,-58.6094,9.55495,
2026_07_06_16_56_33.211,3.858,33,0,0.761,0,0,0,0, ,0,0,0,0,0, ,-106.9,-210.8,-970.8,-22.8,31.7,5.1,25,96.5201,-106.386,-821.868,31.4656,-53.4261,9.16769,
2026_07_06_16_56_33.232,3.858,33,0,0.763,0,0,0,0, ,0,0,0,0,0, ,-95,-195,-956.1,-28.3,35,16.7,25,84.4868,-112.267,-830.496,27.9912,-48.1382,9.27325,
2026_07_06_16_56_33.250,3.858,33,0,0.762,0,0,0,0, ,0,0,0,0,0, ,-100.3,-225.2,-963.1,-31.2,37.9,18.7,25,73.3878,-118.229,-838.363,24.4726,-42.9836,9.78676,
2026_07_06_16_56_33.270,3.858,33,0,0.762,0,0,0,0, ,0,0,0,0,0, ,-84.1,-262.3,-984.1,-37.1,47.5,10.3,25,63.2973,-125.878,-846.604,20.9003,-37.7623,10.074,
2026_07_06_16_56_33.289,3.858,33,0,0.762,0,0,0,0, ,0,0,0,0,0, ,-2.6,-225.8,-1055.6,-42.5,69,7.5,25,56.7985,-133.079,-857.162,17.2014,-31.9115,10.0024,
2026_07_06_16_56_33.312,3.858,33.1,0,0.762,0,0,0,0, ,0,0,0,0,0, ,93.8,-204.9,-1176.3,-56.5,114.4,15.2,25,56.1161,-138.092,-872.931,13.1367,-24.3789,10.0846,
2026_07_06_16_56_33.329,3.858,33,0,0.764,0,0,0,0, ,0,0,0,0,0, ,158.4,-186.8,-1256.4,-84.3,181.2,16.9,25,60.3807,-141.612,-893.859,8.04623,-13.8868,10.4481,
2026_07_06_16_56_33.350,3.858,33,0,0.763,0,0,0,0, ,0,0,0,0,0, ,210.5,-132.8,-1307.2,-113,250.1,10.9,25,67.9412,-142.72,-917.499,1.54443,0.100617,10.6584,
2026_07_06_16_56_33.368,3.858,33.1,0,0.76,0,0,0,0, ,0,0,0,0,0, ,283.8,-37.4,-1285.4,-142.2,250.1,5.4,25,78.8617,-139.209,-940.582,-6.32531,15.335,10.5056,
2026_07_06_16_56_33.389,3.858,33.1,0,0.76,0,0,0,0, ,0,0,0,0,0, ,417.9,-33.2,-1351.9,-163.1,250.1,-13.6,25,95.436,-132.877,-963.62,-15.242,29.6409,9.61554,
2026_07_06_16_56_33.408,3.858,33,0,0.763,0,0,0,0, ,0,0,0,0,0, ,318.6,79.8,-1024.2,-206.7,250.1,-30.4,25,112.061,-123.36,-977.297,-25.5805,43.0752,7.68897,
2026_07_06_16_56_33.430,3.858,33,0,0.762,0,0,0,0, ,0,0,0,0,0, ,267.5,114,-835.6,-227.3,250.1,-8.9,25,123.09,-109.938,-974.408,-37.2451,55.6907,6.023,
2026_07_06_16_56_33.448,3.858,33,0,0.762,0,0,0,0, ,0,0,0,0,0, ,365.2,-10.7,-904,-196.9,250.1,-3.8,25,134.866,-100.091,-968.034,-47.9003,67.5376,5.26902,
2026_07_06_16_56_33.467,3.858,33.1,0,0.762,0,0,0,0, ,0,0,0,0,0, ,650.5,-102.9,-419,-169.7,250.1,-17.3,25,157.595,-97.4532,-949.354,-56.1513,78.6625,4.30505,
2026_07_06_16_56_33.487,3.858,33,0,0.762,0,0,0,0, ,0,0,0,0,0, ,713.3,172.7,-79.2,-133.5,250.1,-50.8,25,189.545,-89.3879,-906.683,-61.9677,89.1094,1.96779,
2026_07_06_16_56_33.508,3.858,33,0,0.762,0,0,0,0, ,0,0,0,0,0, ,776.6,153.3,-259.8,21.4,250.1,-17.7,25,223.39,-74.008,-861.761,-61.6071,98.9198,-0.239234,
2026_07_06_16_56_33.527,3.858,33.1,0,0.763,0,0,0,0, ,0,0,0,0,0, ,870.6,157.2,-317.5,34.2,249,-6.7,25,259.965,-60.0376,-826.837,-56.1588,108.099,-0.968093,
2026_07_06_16_56_33.549,3.858,33.1,0,0.763,0,0,0,0, ,0,0,0,0,0, ,845.7,195.6,-293.8,-18.1,229.1,-8.6,25,296.417,-45.6297,-795.077,-52.2461,116.079,-1.37527,
2026_07_06_16_56_33.567,3.858,33,0,0.76,0,0,0,0, ,0,0,0,0,0, ,893.3,310.7,-234,-85.4,231.3,5.8,25,331.339,-27.4228,-762.708,-52.2159,123.033,-1.37678,
2026_07_06_16_56_33.590,3.858,33,0,0.762,0,0,0,0, ,0,0,0,0,0, ,810.7,126.7,-99.7,-102,250.1,16.1,25,363.067,-12.4247,-726.398,-54.7438,130.203,-0.625616,
2026_07_06_16_56_33.606,3.858,33,0,0.762,0,0,0,0, ,0,0,0,0,0, ,805.7,42.2,33,-75,250.1,22.1,25,390.192,-6.52142,-684.166,-56.8008,137.509,0.576414,
2026_07_06_16_56_33.627,3.858,32.9,0,0.762,0,0,0,0, ,0,0,0,0,0, ,796.7,30.1,265.5,-2.5,238.8,22.6,25,415.238,-3.92113,-633.379,-55.7008,144.026,1.90324,
2026_07_06_16_56_33.651,3.858,33,0,0.762,0,0,0,0, ,0,0,0,0,0, ,765.5,244.8,303.5,13.6,141.1,-4.6,25,437.533,4.69368,-577.446,-51.9684,146.825,2.3357,
2026_07_06_16_56_33.672,3.858,33,0,0.763,0,0,0,0, ,0,0,0,0,0, ,870.9,210.8,218.6,26.1,96.3,-23.5,25,460.73,18.2892,-526.35,-47.5919,145.111,1.3372,
2026_07_06_16_56_33.685,3.858,33,0,0.762,0,0,0,0, ,0,0,0,0,0, ,847.5,229.1,269.7,38.1,93.4,-36.9,25,485.012,30.5779,-479.398,-42.7357,142.048,-0.584601,
2026_07_06_16_56_33.708,3.858,33.1,0,0.763,0,0,0,0, ,0,0,0,0,0, ,838.8,295.4,406,43.1,79.3,-39.8,25,506.836,44.6954,-429.597,-37.6574,138.654,-2.88593,
2026_07_06_16_56_33.725,3.858,33,0,0.762,0,0,0,0, ,0,0,0,0,0, ,831.1,378.9,510.2,23.4,53.8,-32.5,25,526.83,62.5169,-375.503,-33.3365,134.26,-4.91296,
2026_07_06_16_56_33.745,3.858,33,0,0.763,0,0,0,0, ,0,0,0,0,0, ,808.2,386.8,535.8,2.3,20.7,-27.8,25,544.674,82.0372,-320.75,-30.522,128.349,-6.45084,
2026_07_06_16_56_33.764,3.858,33.1,0,0.762,0,0,0,0, ,0,0,0,0,0, ,831,313.9,437.1,-0.2,-19.1,-12.6,25,561.427,98.3875,-271.561,-28.5981,120.576,-7.28868,
2026_07_06_16_56_33.785,3.858,33,0,0.762,0,0,0,0, ,0,0,0,0,0, ,911.3,378.2,407.3,8.7,-31.8,-8.2,25,580.301,113.479,-229.285,-26.5964,111.678,-7.47828,
2026_07_06_16_56_33.804,3.858,33.1,0,0.761,0,0,0,0, ,0,0,0,0,0, ,953,362,407.5,0.1,-30.2,-5.7,25,601.742,129.117,-190.487,-24.7076,102.983,-7.44608,
2026_07_06_16_56_33.827,3.858,33,0,0.761,0,0,0,0, ,0,0,0,0,0, ,945.5,346.1,392.9,-16.4,-12.9,-18.2,25,622.918,142.824,-154.492,-23.6986,95.3944,-7.72054,
2026_07_06_16_56_33.844,3.858,33,0,0.762,0,0,0,0, ,0,0,0,0,0, ,943.2,279.2,360.9,-14.1,-2.7,-23.5,25,642.505,153.173,-122.111,-23.1838,89.106,-8.52062,
2026_07_06_16_56_33.864,3.858,33,0,0.76,0,0,0,0, ,0,0,0,0,0, ,945.1,317.3,363.4,2.2,-10.5,-7.3,25,660.887,162.013,-92.601,-22.1336,83.2739,-8.93983,
2026_07_06_16_56_33.883,3.858,33.1,0,0.763,0,0,0,0, ,0,0,0,0,0, ,952.6,361.6,348.9,1.3,-14.9,11.7,25,678.434,172.826,-65.2553,-20.6782,77.4255,-8.261,
2026_07_06_16_56_33.905,3.858,33,0,0.762,0,0,0,0, ,0,0,0,0,0, ,930,361.8,383.7,-12,-7.6,10.8,25,694.453,184.336,-38.9574,-19.7441,72.0219,-7.07205,
2026_07_06_16_56_33.928,3.858,33.1,0,0.761,0,0,0,0, ,0,0,0,0,0, ,946.5,300.1,371,-21.9,2.6,-11.2,25,709.309,193.27,-13.5886,-19.5739,67.4807,-6.65328,
2026_07_06_16_56_33.950,3.858,33.1,0,0.763,0,0,0,0, ,0,0,0,0,0, ,977.2,239.3,428.4,-13.8,6.8,-22.9,25,724.698,197.927,11.5961,-19.4688,63.655,-7.28683,
2026_07_06_16_56_33.962,3.858,33,0,0.764,0,0,0,0, ,0,0,0,0,0, ,966.1,389.4,499.8,-20.8,-11.8,-25.5,25,739.747,205.022,39.1706,-19.3366,59.6237,-8.31748,
2026_07_06_16_56_33.984,3.858,33,0,0.76,0,0,0,0, ,0,0,0,0,0, ,1059.3,528.9,342.8,-54.9,-14.6,-19.9,25,756.38,220.508,62.4566,-20.4648,55.186,-9.19391,
2026_07_06_16_56_34.002,3.858,33.1,0,0.76,0,0,0,0, ,0,0,0,0,0, ,1106.8,473.3,383.4,-65.4,13.9,-16.9,25,776.287,237.606,80.777,-22.8831,51.8018,-9.75491,
2026_07_06_16_56_34.023,3.858,33,0,0.761,0,0,0,0, ,0,0,0,0,0, ,1096.6,331.1,404,-58.5,9,4.3,25,796.116,247.636,99.8458,-25.2638,49.3428,-9.54437,
2026_07_06_16_56_34.041,3.858,33.1,0,0.762,0,0,0,0, ,0,0,0,0,0, ,1021.3,261.5,330.2,-67.6,34.8,-0.8,25,812.133,250.602,116.132,-27.5664,47.6705,-8.85612,
2026_07_06_16_56_34.064,3.858,33,0,0.762,0,0,0,0, ,0,0,0,0,0, ,895.9,307.2,486.5,-73.8,67.5,-31.1,25,821.058,252.658,133.939,-30.1948,47.8826,-9.28841,
2026_07_06_16_56_34.081,3.858,33.1,0,0.762,0,0,0,0, ,0,0,0,0,0, ,841.9,376.5,494.9,-97.6,74.2,-69.9,25,823.974,258.093,155.679,-33.5772,49.2821,-11.7997,
2026_07_06_16_56_34.104,3.858,33,0,0.762,0,0,0,0, ,0,0,0,0,0, ,926.5,404.5,582.7,-103.3,77.7,-83.4,25,827.644,266.162,179.025,-37.6522,50.9072,-15.7516,
2026_07_06_16_56_34.121,3.858,33.1,0,0.762,0,0,0,0, ,0,0,0,0,0, ,712,340.2,439.3,-101.6,57.5,-79.5,25,827.132,272.633,199.255,-41.6008,51.9244,-19.755,
2026_07_06_16_56_34.143,3.858,33,0,0.763,0,0,0,0, ,0,0,0,0,0, ,501.7,234.2,413.4,-93.3,43.1,-110.5,25,813.709,273.52,213.094,-45.0041,51.8254,-24.3403,
2026_07_06_16_56_34.160,3.858,33,0,0.763,0,0,0,0, ,0,0,0,0,0, ,391.7,30.7,321.7,-62.9,35.6,-169.7,25,791.344,264.924,222.506,-47.0209,51.0652,-31.3944,
2026_07_06_16_56_34.181,3.858,33,0,0.762,0,0,0,0, ,0,0,0,0,0, ,156.1,39.9,224.3,26.9,-25.6,-250.1,25,759.812,250.931,225.583,-45.2525,48.2581,-42.2721,
2026_07_06_16_56_34.200,3.858,33,0,0.76,0,0,0,0, ,0,0,0,0,0, ,260.3,78.7,194.8,115.1,-119.4,-250.1,25,726.198,239.254,224.606,-38.1683,40.8994,-54.9366,
2026_07_06_16_56_34.222,3.858,33,0,0.763,0,0,0,0, ,0,0,0,0,0, ,311,228.1,-24,179.2,-170.8,-250.1,25,699.353,234.022,216.123,-26.8755,29.5651,-66.8294,
2026_07_06_16_56_34.238,3.858,33,0,0.762,0,0,0,0, ,0,0,0,0,0, ,617.1,672.7,-104.7,207.3,-137.9,-250.1,25,685.014,247.208,199.032,-13.4616,18.3578,-77.9974,
2026_07_06_16_56_34.262,3.858,33,0,0.762,0,0,0,0, ,0,0,0,0,0, ,666.9,578,145.7,186.2,-42.2,-250.1,25,682.393,270.251,188.152,-0.65183,11.7517,-88.4849,
2026_07_06_16_56_34.278,3.858,33,0,0.762,0,0,0,0, ,0,0,0,0,0, ,765.5,639.6,186.7,149.8,14.2,-250.1,25,684.453,290.881,186.815,9.62539,10.1824,-98.3333,
2026_07_06_16_56_34.302,3.858,33,0,0.764,0,0,0,0, ,0,0,0,0,0, ,576,762.6,220.4,101.6,50,-232,25,683.618,315.879,187.834,16.6987,11.518,-107.03,
2026_07_06_16_56_34.318,3.858,33,0,0.762,0,0,0,0, ,0,0,0,0,0, ,349.8,691.1,119.8,104.2,12.3,-143.7,25,670.168,340.922,186.754,21.9516,12.7143,-111.955,
2026_07_06_16_56_34.342,3.858,33,0,0.762,0,0,0,0, ,0,0,0,0,0, ,220.5,726.1,117.1,77.4,11.7,-144.3,25,646.706,363.328,182.591,26.147,12.6708,-113.908,
2026_07_06_16_56_34.358,3.858,33.1,0,0.762,0,0,0,0, ,0,0,0,0,0, ,199.9,927.7,87.7,37.4,14.3,-155,25,620.106,391.577,177.705,28.0515,12.6909,-116.086,
2026_07_06_16_56_34.381,3.858,33,0,0.762,0,0,0,0, ,0,0,0,0,0, ,102.7,1133.1,79.1,11.6,28.5,-117.9,25,591.538,430.505,171.958,27.8351,13.2216,-117.327,
2026_07_06_16_56_34.398,3.858,33,0,0.762,0,0,0,0, ,0,0,0,0,0, ,149.7,1207.5,167.8,-3.9,35.3,-88.2,25,563.182,475.586,169.002,26.3735,14.3598,-116.457,
2026_07_06_16_56_34.420,3.858,33,0,0.762,0,0,0,0, ,0,0,0,0,0, ,111.3,1245.9,186.6,-15.3,51,-77,25,536.815,521.357,169.502,24.1814,16.1142,-114.394,
2026_07_06_16_56_34.437,3.858,33.1,0,0.762,0,0,0,0, ,0,0,0,0,0, ,39,1422.2,221.4,13.5,48.5,-50.6,25,508.683,570.881,171.604,22.653,18.1639,-111.311,
2026_07_06_16_56_34.461,3.858,33.1,0,0.763,0,0,0,0, ,0,0,0,0,0, ,88.5,1402.7,275.8,33,26.9,-26.7,25,481.569,622.164,176.296,22.6893,19.3544,-106.883,
2026_07_06_16_56_34.477,3.858,33.1,0,0.76,0,0,0,0, ,0,0,0,0,0, ,20,1317.3,206.5,16.7,20.2,-10.9,25,455.53,667.126,180.248,22.821,19.61,-101.515,
2026_07_06_16_56_34.499,3.858,33,0,0.762,0,0,0,0, ,0,0,0,0,0, ,58.4,1216.6,170.6,9.9,12.3,8.4,25,430.16,703.677,180.754,22.2408,19.4053,-95.4054,
2026_07_06_16_56_34.516,3.858,33.1,0,0.762,0,0,0,0, ,0,0,0,0,0, ,68.3,1125.6,176.7,12.1,7.3,12.1,25,407.807,732.161,180.321,21.5558,18.82,-88.967,
2026_07_06_16_56_34.539,3.858,33,0,0.762,0,0,0,0, ,0,0,0,0,0, ,72.2,1049.3,172.9,6.5,23.7,4.2,25,387.237,753.811,179.985,20.809,18.6177,-83.0489,
2026_07_06_16_56_34.555,3.858,33,0,0.763,0,0,0,0, ,0,0,0,0,0, ,13.6,992.5,213.3,-1.5,24.3,8.1,25,366.254,770.087,180.784,19.6933,18.9456,-77.6134,
2026_07_06_16_56_34.580,3.858,33.1,0,0.762,0,0,0,0, ,0,0,0,0,0, ,-13.1,902.5,218.3,-6.7,16.9,5.9,25,343.951,780.898,182.918,18.2434,19.0465,-72.4573,
2026_07_06_16_56_34.596,3.858,33,0,0.762,0,0,0,0, ,0,0,0,0,0, ,-10.6,852.4,199.8,-3.2,15.7,-0.5,25,322.269,786.782,184.51,16.83,18.8791,-67.8774,
2026_07_06_16_56_34.618,3.858,33,0,0.763,0,0,0,0, ,0,0,0,0,0, ,-14.6,880.7,216.5,10.9,4.8,2.6,25,301.863,791.643,185.951,16.0391,18.3533,-63.6771,
2026_07_06_16_56_34.635,3.858,33,0,0.763,0,0,0,0, ,0,0,0,0,0, ,19.2,949,201.4,15.8,-9.3,7,25,283.608,799.151,187.352,15.8752,17.0977,-59.5043,
2026_07_06_16_56_34.658,3.858,33.1,0,0.762,0,0,0,0, ,0,0,0,0,0, ,37.2,1077.6,222.7,14.4,-6,-2.2,25,268.045,812.2,188.857,15.828,15.5897,-55.732,
2026_07_06_16_56_34.676,3.858,33.1,0,0.762,0,0,0,0, ,0,0,0,0,0, ,67.6,1221.8,182.1,-0.6,-8.7,8.9,25,254.904,832.767,189.682,15.2839,14.1918,-52.1317,
2026_07_06_16_56_34.698,3.858,33.1,0,0.76,0,0,0,0, ,0,0,0,0,0, ,70.6,981.9,177,21.4,-27.5,19.8,25,243.581,849.164,189.065,14.9863,12.224,-48.0805,
2026_07_06_16_56_34.714,3.858,33,0,0.762,0,0,0,0, ,0,0,0,0,0, ,149.6,992.9,110.8,33.5,-27.4,19.2,25,235.447,857.588,186.313,15.7458,9.80638,-43.9623,
2026_07_06_16_56_34.737,3.858,33,0,0.763,0,0,0,0, ,0,0,0,0,0, ,119.1,1044.3,130,21.2,-6.3,15.1,25,229.287,867.399,182.296,16.4529,8.182,-40.2382,
2026_07_06_16_56_34.754,3.858,33.1,0,0.763,0,0,0,0, ,0,0,0,0,0, ,119.6,1148.5,157.8,4.8,-7.3,30.8,25,222.587,881.354,179.956,16.2425,7.26904,-36.3877,
2026_07_06_16_56_34.777,3.858,33,0,0.762,0,0,0,0, ,0,0,0,0,0, ,184.9,1254.7,164.9,-0.5,-19.7,66.1,25,218.301,900.869,178.823,15.3838,6.00343,-31.2179,
2026_07_06_16_56_34.793,3.858,33,0,0.76,0,0,0,0, ,0,0,0,0,0, ,252.9,1303.8,106.3,-10.2,-4,91.6,25,218.338,923.927,176.189,14.1203,4.91548,-24.5106,
2026_07_06_16_56_34.816,3.858,33,0,0.762,0,0,0,0, ,0,0,0,0,0, ,337.7,1355.1,137.2,-6.7,16.6,134.1,25,223.028,948.638,172.871,12.7449,4.99985,-16.1402,
2026_07_06_16_56_34.833,3.858,33,0,0.762,0,0,0,0, ,0,0,0,0,0, ,303.9,1388.9,171.5,-31.2,18.9,184.1,25,228.986,974.437,171.743,10.8135,5.77681,-5.46153,
2026_07_06_16_56_34.856,3.858,33,0,0.762,0,0,0,0, ,0,0,0,0,0, ,222.2,1415.2,216.4,-69.5,12.5,203,25,231.061,1000.49,173.096,7.08636,6.38151,6.66573,
2026_07_06_16_56_34.879,3.858,33.1,0,0.762,0,0,0,0, ,0,0,0,0,0, ,199.8,1209.4,163.5,-84.8,-9.9,211.2,25,229.839,1019.5,174.123,1.95321,6.07185,18.8797,
2026_07_06_16_56_34.902,3.858,33,0,0.761,0,0,0,0, ,0,0,0,0,0, ,227.7,942.8,145.3,-71.1,-14.9,180.7,25,228.858,1022.94,172.921,-2.91589,4.94622,29.6699,
2026_07_06_16_56_34.912,3.858,32.9,0,0.76,0,0,0,0, ,0,0,0,0,0, ,432.7,973.1,219.1,-12.2,-13.1,194.1,25,235.034,1018.98,173.487,-5.27625,3.79169,39.2816,
2026_07_06_16_56_34.934,3.858,33.1,0,0.762,0,0,0,0, ,0,0,0,0,0, ,434.8,1003.4,242.1,17.1,-31,250.1,25,247.143,1017.11,176.967,-4.80543,2.21696,50.4221,
2026_07_06_16_56_34.952,3.858,33,0,0.762,0,0,0,0, ,0,0,0,0,0, ,453.6,1099.7,295.8,12.6,-35.5,250.1,25,259.151,1019.21,182.572,-3.60768,0.0556937,62.59,
2026_07_06_16_56_34.976,3.858,33,0,0.763,0,0,0,0, ,0,0,0,0,0, ,527,955.8,87.7,-40.7,-0.1,250.1,25,273.237,1019.73,183.131,-4.24401,-1.03239,74.0164,
2026_07_06_16_56_34.992,3.858,33,0,0.762,0,0,0,0, ,0,0,0,0,0, ,488.1,596.6,172.7,-39.1,15.4,233.9,25,287.515,1004.89,179.906,-6.4168,-0.503305,84.2529,
2026_07_06_16_56_35.016,3.858,33,0,0.762,0,0,0,0, ,0,0,0,0,0, ,554.5,565.6,121.7,-19.8,-11.8,240.9,25,301.762,979.065,177.913,-7.82038,-0.362947,93.5853,
2026_07_06_16_56_35.031,3.858,32.9,0,0.762,0,0,0,0, ,0,0,0,0,0, ,617.1,447.1,84.1,-11,-20.2,250.1,25,319.07,950.259,173.342,-8.28226,-1.31583,102.843,
2026_07_06_16_56_35.054,3.858,33,0,0.76,0,0,0,0, ,0,0,0,0,0, ,633.3,390,121.3,15.4,0,250.1,25,337.725,917.858,169.037,-7.6435,-1.85112,111.816,
2026_07_06_16_56_35.071,3.858,33,0,0.762,0,0,0,0, ,0,0,0,0,0, ,654,259.6,197.2,-14.8,2.4,249.4,25,356.367,881.719,168.441,-7.15944,-1.66519,120.221,
2026_07_06_16_56_35.095,3.858,33.1,0,0.762,0,0,0,0, ,0,0,0,0,0, ,719.6,72.6,150.2,-43.3,-12.1,211.2,25,376.503,838.111,168.761,-8.4934,-1.85926,126.929,
2026_07_06_16_56_35.110,3.858,33.1,0,0.762,0,0,0,0, ,0,0,0,0,0, ,760.1,-3.6,115.8,-25.8,-38.2,177.4,25,398.645,789.141,166.582,-10.0812,-3.27854,131.035,
2026_07_06_16_56_35.133,3.858,33,0,0.762,0,0,0,0, ,0,0,0,0,0, ,743.8,-6.7,83.4,-1.8,-50,170,25,420.174,740.739,162.5,-10.3078,-5.7661,133.635,
2026_07_06_16_56_35.150,3.858,33,0,0.762,0,0,0,0, ,0,0,0,0,0, ,705.8,-45.6,123.4,-0.2,-59.2,164.3,25,438.737,694.006,158.899,-9.74064,-8.74191,135.677,
2026_07_06_16_56_35.173,3.858,33,0,0.76,0,0,0,0, ,0,0,0,0,0, ,706.7,-108.1,138.3,-6.1,-66.6,131.5,25,455.039,647.032,157.19,-9.33902,-12.0422,136.422,
2026_07_06_16_56_35.190,3.858,33,0,0.762,0,0,0,0, ,0,0,0,0,0, ,792.8,-182.4,69.5,-25,-60.4,108.4,25,472.998,598.753,153.942,-9.7175,-15.1779,135.418,
2026_07_06_16_56_35.214,3.858,33,0,0.763,0,0,0,0, ,0,0,0,0,0, ,719.4,-271.8,14.6,-22,-51.6,102.3,25,490.249,548.427,147.124,-10.5574,-17.6655,133.586,
2026_07_06_16_56_35.229,3.858,33,0,0.76,0,0,0,0, ,0,0,0,0,0, ,754,-319.8,19.8,-12.8,-49.9,81.4,25,505.267,496.982,139.207,-10.9743,-19.6816,131.043,
2026_07_06_16_56_35.252,3.858,33,0,0.762,0,0,0,0, ,0,0,0,0,0, ,777.2,-356.2,4.5,-13.2,-35.4,46.5,25,521.131,446.1,131.464,-11.0978,-21.0812,126.954,
2026_07_06_16_56_35.268,3.858,33,0,0.76,0,0,0,0, ,0,0,0,0,0, ,721.5,-348.8,-11.3,-20,-23,14.3,25,535.038,397.436,123.246,-11.4331,-21.5759,121.07,
2026_07_06_16_56_35.293,3.858,33,0,0.762,0,0,0,0, ,0,0,0,0,0, ,892.5,-307.4,-76,-12.6,-17,-3.3,25,551.611,353.223,113.076,-11.7297,-21.4799,114.028,
2026_07_06_16_56_35.308,3.858,33,0,0.763,0,0,0,0, ,0,0,0,0,0, ,893.4,-324.8,-58.5,9.4,-20.8,-14.5,25,572.411,312.436,102.087,-11.1124,-21.3227,106.537,
2026_07_06_16_56_35.333,3.858,33.1,0,0.762,0,0,0,0, ,0,0,0,0,0, ,967.4,-303.7,21.1,20.1,-27.9,-24.8,25,594.226,274.248,94.7265,-9.53639,-21.5072,98.8473,
2026_07_06_16_56_35.348,3.858,33.1,0,0.762,0,0,0,0, ,0,0,0,0,0, ,995.7,-190.9,-44,14.6,-14.5,-32.9,25,617.829,242.466,88.2564,-7.898,-21.4885,91.0658,
2026_07_06_16_56_35.373,3.858,33.1,0,0.76,0,0,0,0, ,0,0,0,0,0, ,991.8,-142.4,-2,1.5,-2.9,-47.6,25,640.737,217.535,81.4767,-6.92617,-20.7092,83.0637,
2026_07_06_16_56_35.388,3.858,33.1,0,0.763,0,0,0,0, ,0,0,0,0,0, ,1015.2,-121.7,-9.3,-4.4,-1.7,-56.9,25,662.842,196.233,76.1674,-6.59247,-19.5874,74.818,
2026_07_06_16_56_35.412,3.858,33.1,0,0.762,0,0,0,0, ,0,0,0,0,0, ,994.7,-116,-27.7,-2.3,7.8,-56.8,25,683.69,177.032,70.3986,-6.39488,-18.2079,66.7945,
2026_07_06_16_56_35.427,3.858,33.1,0,0.762,0,0,0,0, ,0,0,0,0,0, ,1065.1,-30,-11.1,14.9,0.3,-53.6,25,704.787,161.796,64.9265,-5.62128,-16.8515,59.3605,
2026_07_06_16_56_35.451,3.858,33,0,0.762,0,0,0,0, ,0,0,0,0,0, ,1149.5,80,-5.6,23.3,10,-37.7,25,729.315,153.46,60.4612,-4.11483,-15.5108,52.9614,
2026_07_06_16_56_35.467,3.858,32.9,0,0.762,0,0,0,0, ,0,0,0,0,0, ,1159.7,124.7,26.7,13.6,14.1,-37.2,25,755.231,150.345,57.4198,-2.73979,-13.8313,47.452,
2026_07_06_16_56_35.491,3.858,33,0,0.762,0,0,0,0, ,0,0,0,0,0, ,1217,181.3,10.6,6.7,21.8,-28.1,25,781.624,150.507,55.0572,-1.95432,-11.8947,42.5707,
2026_07_06_16_56_35.506,3.858,33,0,0.762,0,0,0,0, ,0,0,0,0,0, ,1306.2,169.3,48.7,29.7,5.5,-9.2,25,810.873,152.018,53.509,-0.726162,-10.338,38.8401,
2026_07_06_16_56_35.531,3.858,32.9,0,0.762,0,0,0,0, ,0,0,0,0,0, ,1511.2,351.9,-36.2,51,-5.5,39.1,25,847.303,158.635,50.6291,1.77692,-9.70806,37.3843,
2026_07_06_16_56_35.546,3.858,33,0,0.762,0,0,0,0, ,0,0,0,0,0, ,1494.1,423.2,26.9,37.4,28.1,93.8,25,887.238,172.584,47.2606,4.36207,-8.42789,39.1555,
2026_07_06_16_56_35.571,3.858,33.1,0,0.763,0,0,0,0, ,0,0,0,0,0, ,1344.1,295.8,127.3,-1.9,28.6,117.8,25,919.648,183.974,49.0789,5.1779,-6.18673,43.2166,
2026_07_06_16_56_35.585,3.858,33,0,0.76,0,0,0,0, ,0,0,0,0,0, ,1457.8,221.3,25.5,4.5,11.5,139.8,25,948.978,188.519,50.7438,4.94159,-4.58793,48.4319,
2026_07_06_16_56_35.609,3.858,33.1,0,0.762,0,0,0,0, ,0,0,0,0,0, ,1473.3,180.7,-19.8,43.5,-2.2,194.5,25,980.456,189.279,47.8253,6.10296,-4.025,55.6663,
2026_07_06_16_56_35.625,3.858,33.1,0,0.763,0,0,0,0, ,0,0,0,0,0, ,1432.3,207,-6.2,64.9,1.9,228.9,25,1009.24,189.558,44.1187,9.03387,-3.78886,65.1746,
2026_07_06_16_56_35.650,3.858,33,0,0.763,0,0,0,0, ,0,0,0,0,0, ,1328.9,217.1,124.7,58.9,11.7,250.1,25,1031.87,190.929,45.0408,12.2554,-3.1436,75.7975,
2026_07_06_16_56_35.665,3.858,33.2,0,0.762,0,0,0,0, ,0,0,0,0,0, ,1246.9,90.9,137.4,33,16.3,250.1,25,1047.47,188.678,50.282,14.3087,-2.09892,86.4191,
2026_07_06_16_56_35.690,3.858,33,0,0.76,0,0,0,0, ,0,0,0,0,0, ,1176.1,-39.7,63.9,39.1,16.3,250.1,25,1057.47,178.741,53.3513,15.6335,-0.977732,96.3934,
2026_07_06_16_56_35.704,3.858,33,0,0.763,0,0,0,0, ,0,0,0,0,0, ,965,-124.1,132.8,57.8,2.7,250.1,25,1058.26,162.858,56.0934,17.6333,-0.339246,105.76,
2026_07_06_16_56_35.729,3.858,33.1,0,0.762,0,0,0,0, ,0,0,0,0,0, ,740.2,-207.2,176.2,33.9,-13.5,250.1,25,1045.73,142.839,62.09,19.3527,-0.647635,114.556,
2026_07_06_16_56_35.743,3.858,33,0,0.76,0,0,0,0, ,0,0,0,0,0, ,577.8,-349.8,110.5,2.5,-7.2,250.1,25,1022.16,117.164,67.0418,19.2825,-1.23887,122.815,
2026_07_06_16_56_35.768,3.858,33.1,0,0.764,0,0,0,0, ,0,0,0,0,0, ,403,-498.1,61,-6.2,8,250.1,25,989.761,84.1899,68.1818,17.9947,-1.139,130.572,
2026_07_06_16_56_35.783,3.858,33,0,0.763,0,0,0,0, ,0,0,0,0,0, ,321.1,-522.3,38.5,6.7,31.1,250.1,25,951.509,47.9693,67.0587,16.9134,0.121732,137.856,
2026_07_06_16_56_35.808,3.858,33,0,0.762,0,0,0,0, ,0,0,0,0,0, ,43.8,-589.1,92.8,17.5,45.7,250.1,25,904.645,11.1832,66.9728,16.6201,2.45431,144.695,
2026_07_06_16_56_35.823,3.858,33.1,0,0.762,0,0,0,0, ,0,0,0,0,0, ,-105.4,-629.2,175.5,12.5,40.1,235.4,25,847.641,-26.6184,71.0664,16.5214,4.91897,150.671,
2026_07_06_16_56_35.848,3.858,33,0,0.763,0,0,0,0, ,0,0,0,0,0, ,-246.8,-660.1,149.1,29.7,43.6,208.1,25,785.257,-64.2797,76.626,16.8004,7.16946,155.002,
2026_07_06_16_56_35.862,3.858,33.1,0,0.76,0,0,0,0, ,0,0,0,0,0, ,-319.5,-790.6,137.8,21.3,43.9,189.2,25,720.151,-104.564,80.6981,17.3305,9.39858,157.662,
2026_07_06_16_56_35.888,3.858,33.1,0,0.76,0,0,0,0, ,0,0,0,0,0, ,-472.4,-800,85.3,-8.2,31.5,183.8,25,652.139,-146.655,82.5781,16.6736,11.1232,159.419,
2026_07_06_16_56_35.902,3.858,33.1,0,0.763,0,0,0,0, ,0,0,0,0,0, ,-607.6,-936.5,88.9,6,13.3,188,25,579.493,-190.628,82.8537,15.5905,11.8104,161.033,
2026_07_06_16_56_35.927,3.858,33.1,0,0.762,0,0,0,0, ,0,0,0,0,0, ,-682.3,-1039,104.8,4.9,-1.6,160.6,25,504.878,-239.202,83.7066,14.9726,11.4472,161.841,
2026_07_06_16_56_35.944,3.858,33,0,0.761,0,0,0,0, ,0,0,0,0,0, ,-727.1,-1054.4,96,-12.4,10.5,81.7,25,431.169,-288.409,84.7238,13.8317,11.0208,159.362,
2026_07_06_16_56_35.968,3.858,33,0,0.763,0,0,0,0, ,0,0,0,0,0, ,-670.7,-1120.3,89.3,-5.1,24.7,21,25,362.306,-337.095,85.2068,12.4556,11.4217,152.78,
2026_07_06_16_56_35.981,3.858,33.1,0,0.762,0,0,0,0, ,0,0,0,0,0, ,-435.3,-1036.2,118.6,-7.8,13.8,-11.4,25,306.529,-382.259,86.349,11.3035,11.8987,143.762,
2026_07_06_16_56_36.005,3.858,33.1,0,0.762,0,0,0,0, ,0,0,0,0,0, ,-299,-985.3,163.3,2.2,25.6,-42.7,25,265.477,-420.557,89.6762,10.4441,12.3741,133.353,
2026_07_06_16_56_36.020,3.858,33.1,0,0.762,0,0,0,0, ,0,0,0,0,0, ,-165.4,-1007.5,186.8,4.2,16,-51.8,25,235.15,-455.648,94.8787,10.0027,12.8876,122.348,
2026_07_06_16_56_36.046,3.858,33.1,0,0.763,0,0,0,0, ,0,0,0,0,0, ,-28.1,-985.1,191.1,5.2,1.1,-40.9,25,214.925,-488.594,100.611,9.67953,12.6233,112.068,
2026_07_06_16_56_36.060,3.858,33,0,0.763,0,0,0,0, ,0,0,0,0,0, ,-2.5,-1014.8,192.1,3.8,1.8,-45.3,25,200.895,-519.755,106.156,9.3639,11.9424,102.612,
2026_07_06_16_56_36.085,3.858,33.1,0,0.762,0,0,0,0, ,0,0,0,0,0, ,10.1,-984.6,187.7,2.5,9.7,-58.3,25,188.885,-549.001,111.259,8.98524,11.565,93.2028,
2026_07_06_16_56_36.100,3.858,33.1,0,0.762,0,0,0,0, ,0,0,0,0,0, ,-88.7,-961.7,202.8,-2.5,24.7,-72.9,25,174.98,-574.848,116.377,8.4377,11.9084,83.5257,
2026_07_06_16_56_36.125,3.858,33,0,0.762,0,0,0,0, ,0,0,0,0,0, ,-209.5,-968.8,190.6,-5.5,28.1,-89.1,25,155.231,-598.638,121.272,7.67978,12.7915,73.4999,
2026_07_06_16_56_36.139,3.858,33,0,0.763,0,0,0,0, ,0,0,0,0,0, ,-258.9,-958.8,173.3,-7.1,16.5,-105,25,131.5,-620.89,124.969,6.82789,13.3709,63.107,
2026_07_06_16_56_36.166,3.858,33,0,0.761,0,0,0,0, ,0,0,0,0,0, ,-249.6,-947,174.4,-2.8,15.7,-135.7,25,107.994,-641.122,127.948,6.11017,13.5372,51.9276,
2026_07_06_16_56_36.179,3.858,33,0,0.762,0,0,0,0, ,0,0,0,0,0, ,-250.1,-939.8,171.3,2.9,26.8,-187.3,25,86.1876,-659.542,130.684,5.74088,14.0072,38.9219,
2026_07_06_16_56_36.204,3.858,33.1,0,0.762,0,0,0,0, ,0,0,0,0,0, ,-181.6,-934.3,171,-15.5,15,-213.3,25,67.7822,-676.453,133.15,5.00714,14.4273,24.3443,
2026_07_06_16_56_36.218,3.858,33,0,0.762,0,0,0,0, ,0,0,0,0,0, ,-117,-904.4,161.8,-39.8,-16.6,-220.6,25,54.5537,-691.254,135.176,3.0171,13.4993,9.64043,
2026_07_06_16_56_36.244,3.858,33,0,0.762,0,0,0,0, ,0,0,0,0,0, ,-14.6,-855.2,126,-41,-45.2,-231.8,25,47.2197,-702.744,135.708,0.371366,10.7938,-4.7311,
2026_07_06_16_56_36.258,3.858,33.1,0,0.761,0,0,0,0, ,0,0,0,0,0, ,111.3,-793.3,74.5,-40.9,-46.4,-250.1,25,47.2885,-710.148,133.547,-2.14665,7.34508,-19.1257,
2026_07_06_16_56_36.284,3.858,33,0,0.761,0,0,0,0, ,0,0,0,0,0, ,78,-748.2,83.9,-54.6,-33,-250.1,25,50.1746,-713.841,130.235,-4.92561,4.47827,-33.2007,
2026_07_06_16_56_36.296,3.858,33.1,0,0.761,0,0,0,0, ,0,0,0,0,0, ,263.9,-677.1,-24.5,-57.5,-0.8,-250.1,25,57.5344,-713.768,124.109,-8.041,3.17553,-46.418,
2026_07_06_16_56_36.323,3.858,33,0,0.762,0,0,0,0, ,0,0,0,0,0, ,261.1,-547.9,75.3,-59.5,-3.4,-250.1,25,70.0245,-707.597,118.094,-11.1158,2.85405,-58.8299,
2026_07_06_16_56_36.338,3.858,33,0,0.762,0,0,0,0, ,0,0,0,0,0, ,308.8,-381.3,72,-54.1,-4.3,-250.1,25,83.1215,-692.79,115.386,-13.8997,2.44552,-70.4854,
2026_07_06_16_56_36.364,3.858,33.1,0,0.761,0,0,0,0, ,0,0,0,0,0, ,366.8,-260,-81.4,-37.8,-11.3,-250.1,25,98.641,-670.112,108.068,-15.8528,1.82119,-81.4306,
2026_07_06_16_56_36.377,3.858,33,0,0.762,0,0,0,0, ,0,0,0,0,0, ,511.9,-98.6,-141.4,-11.6,-45,-250.1,25,119.403,-640.203,94.6941,-16.3919,-0.0051826,-91.7089,
2026_07_06_16_56_36.403,3.858,33,0,0.761,0,0,0,0, ,0,0,0,0,0, ,536.1,170.7,-272.3,19.7,-69.3,-250.1,25,144.058,-598.994,76.3188,-15.1462,-3.48744,-101.361,
2026_07_06_16_56_36.416,3.858,33,0,0.762,0,0,0,0, ,0,0,0,0,0, ,657.8,528.6,-221.1,35.5,-71.7,-250.1,25,171.656,-541.186,56.6348,-12.5414,-7.57102,-110.425,
2026_07_06_16_56_36.441,3.858,33,0,0.761,0,0,0,0, ,0,0,0,0,0, ,941.1,967.2,-211.1,18.7,-44.4,-250.1,25,209.912,-462.633,40.015,-10.1257,-10.6471,-118.936,
2026_07_06_16_56_36.456,3.858,33.1,0,0.762,0,0,0,0, ,0,0,0,0,0, ,1246.3,1352,-308.7,32.2,12.6,-250.1,25,263.768,-363.778,21.739,-7.95784,-10.9672,-126.929,
2026_07_06_16_56_36.482,3.858,33,0,0.762,0,0,0,0, ,0,0,0,0,0, ,1225.7,1507.5,-55,86.2,30,-185.4,25,323.014,-254.485,9.33277,-3.86541,-9.0009,-132.463,
2026_07_06_16_56_36.496,3.858,33.1,0,0.761,0,0,0,0, ,0,0,0,0,0, ,1067.7,1548.4,89.3,138.6,-17.7,-8.6,25,373.207,-145.868,9.80913,3.21951,-8.07764,-130.302,
2026_07_06_16_56_36.521,3.858,33,0,0.762,0,0,0,0, ,0,0,0,0,0, ,1000,1371,27.4,146.1,-73.4,87.9,25,413.465,-48.0283,12.7671,11.6978,-10.3611,-119.946,
2026_07_06_16_56_36.534,3.858,33.1,0,0.762,0,0,0,0, ,0,0,0,0,0, ,1022.5,1164.6,1.2,114,-77.8,85.9,25,449.892,32.1549,12.8605,18.9099,-14.3366,-107.341,
2026_07_06_16_56_36.562,3.858,33.1,0,0.763,0,0,0,0, ,0,0,0,0,0, ,1047.9,886.1,-147.2,67.4,-43.4,47.9,25,485.56,92.6778,7.62838,23.2846,-17.1558,-96.7233,
2026_07_06_16_56_36.575,3.858,32.9,0,0.762,0,0,0,0, ,0,0,0,0,0, ,1072.2,651,-246.4,74.2,-12.5,18.9,25,520.568,133.864,-4.82898,26.18,-17.8136,-88.794,
2026_07_06_16_56_36.602,3.858,33.1,0,0.763,0,0,0,0, ,0,0,0,0,0, ,1038.3,527.5,-255.3,45.3,9.4,16.4,25,553.15,161.614,-19.8209,28.2257,-16.8225,-82.3075,
2026_07_06_16_56_36.614,3.858,33,0,0.762,0,0,0,0, ,0,0,0,0,0, ,913,489.5,-243.7,-3.4,14.8,22.3,25,578.896,182.752,-33.817,27.7823,-15.06,-76.1128,
2026_07_06_16_56_36.641,3.858,33.1,0,0.762,0,0,0,0, ,0,0,0,0,0, ,824.7,501.2,-229.4,-25.9,12.1,36,25,596.565,201.801,-46.171,25.1966,-13.3227,-69.6983,
2026_07_06_16_56_36.653,3.858,33,0,0.758,0,0,0,0, ,0,0,0,0,0, ,835.6,462.7,-211.5,-36.3,0.6,47.4,25,610.799,218.873,-56.7911,21.7661,-12.1239,-62.91,
2026_07_06_16_56_36.681,3.858,33.1,0,0.762,0,0,0,0, ,0,0,0,0,0, ,823.4,407.9,-184.4,-20.3,-0.8,42.4,25,624.126,232.061,-65.393,18.7152,-11.3912,-56.3403,
2026_07_06_16_56_36.694,3.858,33,0,0.763,0,0,0,0, ,0,0,0,0,0, ,821.2,359,-194.2,-3.1,1.8,31.9,25,636.202,241.286,-72.9436,16.8617,-10.6666,-50.6433,
2026_07_06_16_56_36.718,3.858,33,0,0.762,0,0,0,0, ,0,0,0,0,0, ,832.6,327.6,-188.9,7.4,7.1,15.5,25,647.823,247.503,-80.1711,15.9652,-9.74541,-46.113,
2026_07_06_16_56_36.736,3.858,33.1,0,0.762,0,0,0,0, ,0,0,0,0,0, ,814,332.5,-187.8,8.3,8.4,1.5,25,658.516,252.533,-86.7633,15.4707,-8.67928,-42.785,
2026_07_06_16_56_36.762,3.858,33,0,0.762,0,0,0,0, ,0,0,0,0,0, ,824.7,342.7,-181.2,3.5,0.1,-4.5,25,668.317,257.717,-92.7191,14.8875,-7.8914,-40.2692,
2026_07_06_16_56_36.773,3.858,33,0,0.762,0,0,0,0, ,0,0,0,0,0, ,871.2,351.3,-172.7,-1.1,-0.2,-7.8,25,679.263,263.158,-97.8519,14.0534,-7.41357,-38.19,
2026_07_06_16_56_36.797,3.858,33.1,0,0.763,0,0,0,0, ,0,0,0,0,0, ,866.4,345.7,-163.9,16.4,10.9,-12.6,25,690.813,268.358,-102.145,13.6632,-6.63579,-36.4844,
2026_07_06_16_56_36.812,3.858,33,0,0.762,0,0,0,0, ,0,0,0,0,0, ,868.2,360.2,-198.2,-17.5,4.4,-17.4,25,701.568,273.513,-106.953,12.7971,-5.76525,-35.1752,
2026_07_06_16_56_36.839,3.858,33,0,0.76,0,0,0,0, ,0,0,0,0,0, ,859.6,353.7,-192.2,-24.9,-4.4,-22.6,25,711.46,278.597,-112.331,10.7254,-5.41393,-34.2505,
2026_07_06_16_56_36.852,3.858,33.1,0,0.76,0,0,0,0, ,0,0,0,0,0, ,886.5,396.2,-200.9,-12.5,-11.2,-16.5,25,721.307,284.469,-117.463,8.93228,-5.55933,-33.3546,
2026_07_06_16_56_36.877,3.858,33,0,0.761,0,0,0,0, ,0,0,0,0,0, ,917.1,427.4,-203.2,0.3,-13.5,-6.9,25,732.306,292.228,-122.617,8.01625,-5.97313,-32.0351,
2026_07_06_16_56_36.892,3.858,33.1,0,0.762,0,0,0,0, ,0,0,0,0,0, ,938.1,468.5,-205.3,16,-6,-0.9,25,744.206,301.717,-127.592,8.0244,-6.20329,-30.3206,
2026_07_06_16_56_36.918,3.858,32.9,0,0.763,0,0,0,0, ,0,0,0,0,0, ,913.4,455.5,-249.7,26.6,1.8,-3.9,25,755.269,311.485,-133.68,8.83338,-5.95324,-28.6192,
2026_07_06_16_56_36.930,3.858,33,0,0.762,0,0,0,0, ,0,0,0,0,0, ,848.3,539.1,-227.2,32.1,-5.7,-6.7,25,762.922,322.808,-140.064,10.0836,-5.7093,-27.1982,
2026_07_06_16_56_36.957,3.858,33,0,0.763,0,0,0,0, ,0,0,0,0,0, ,882.3,591.6,-203.3,22.4,-11.7,-6.8,25,769.16,337.588,-144.646,11.1297,-5.89154,-25.9521,
2026_07_06_16_56_36.971,3.858,33.1,0,0.763,0,0,0,0, ,0,0,0,0,0, ,949.7,540,-238.1,-17,-14.9,0,25,778.109,351.494,-149.281,10.616,-6.34299,-24.5778,
2026_07_06_16_56_36.998,3.858,33,0,0.761,0,0,0,0, ,0,0,0,0,0, ,963.7,494.6,-285.5,-54.4,-8.2,-10,25,788.991,361.598,-156.137,7.79363,-6.6603,-23.3848,
2026_07_06_16_56_37.010,3.858,33.1,0,0.762,0,0,0,0, ,0,0,0,0,0, ,995.3,353.5,-291.8,-70.5,7.5,-28.2,25,800.601,365.404,-164.212,3.51316,-6.27576,-23.1237,
2026_07_06_16_56_37.038,3.858,33,0,0.762,0,0,0,0, ,0,0,0,0,0, ,1044.5,368.7,-333.6,-76.8,37.5,-36.7,25,813.964,365.142,-173.261,-1.18897,-4.52224,-23.692,
2026_07_06_16_56_37.051,3.858,33,0,0.763,0,0,0,0, ,0,0,0,0,0, ,1180.9,316.6,-366.6,-109.8,103.4,-64.1,25,832.168,363.771,-184.037,-6.80199,0.0463805,-25.3195,
2026_07_06_16_56_37.077,3.858,33,0,0.76,0,0,0,0, ,0,0,0,0,0, ,1174.8,331,-340,-146,183.5,-93.9,25,853.233,361.335,-194.351,-14.1814,8.78504,-28.5907,
2026_07_06_16_56_37.089,3.858,33,0,0.762,0,0,0,0, ,0,0,0,0,0, ,1112.6,330.8,-291.6,-175.3,234.2,-89.4,25,870.934,359.481,-201.752,-23.1068,20.9765,-32.4334,
2026_07_06_16_56_37.116,3.858,33,0,0.762,0,0,0,0, ,0,0,0,0,0, ,998.2,343.6,-270.9,-149.4,250.1,-73.5,25,882.175,358.123,-206.596,-31.592,34.4543,-35.4203,
2026_07_06_16_56_37.129,3.858,33,0,0.761,0,0,0,0, ,0,0,0,0,0, ,912.2,433.4,-116.3,-104.4,250.1,-57.8,25,886.625,359.974,-205.805,-37.3998,47.5952,-37.2624,
2026_07_06_16_56_37.155,3.858,33,0,0.762,0,0,0,0, ,0,0,0,0,0, ,839.2,479.7,10.3,-85.2,250.1,-41.4,25,885.959,365.859,-196.493,-40.8976,59.9353,-38.0143,
2026_07_06_16_56_37.169,3.858,33,0,0.762,0,0,0,0, ,0,0,0,0,0, ,712,432,108.7,-65.8,250.1,-32,25,879.234,371.343,-180.893,-43.0062,71.5235,-37.9342,
2026_07_06_16_56_37.194,3.858,33.1,0,0.761,0,0,0,0, ,0,0,0,0,0, ,534.9,491.5,276.7,-35.7,250.1,-2.3,25,863.647,376.852,-158.128,-43.4781,82.4055,-36.6676,
2026_07_06_16_56_37.207,3.858,33,0,0.761,0,0,0,0, ,0,0,0,0,0, ,468.1,533.6,407.7,-19,250.1,28.6,25,841.579,385.121,-127.639,-42.4953,92.6244,-33.6319,
2026_07_06_16_56_37.235,3.858,33,0,0.762,0,0,0,0, ,0,0,0,0,0, ,396.2,529.4,443.3,-15.7,240.8,38.7,25,816.629,394.041,-93.932,-40.963,101.937,-29.5319,
2026_07_06_16_56_37.246,3.858,33,0,0.763,0,0,0,0, ,0,0,0,0,0, ,285.5,448.7,491.8,-18.3,212.6,34.7,25,787.636,399.831,-59.7167,-39.5027,109.54,-25.4959,
2026_07_06_16_56_37.277,3.858,33,0,0.763,0,0,0,0, ,0,0,0,0,0, ,218.1,474.9,493.7,14.9,166.1,42.4,25,754.984,403.607,-26.0507,-37.1991,114.403,-21.5931,
2026_07_06_16_56_37.286,3.858,33,0,0.762,0,0,0,0, ,0,0,0,0,0, ,170.7,495.1,634.7,28.3,156,40.2,25,720.823,408.567,9.91767,-33.6161,117.246,-17.7605,
2026_07_06_16_56_37.314,3.858,33,0,0.761,0,0,0,0, ,0,0,0,0,0, ,178.4,517.4,647.9,17.4,139.3,38.4,25,687.535,414.519,48.3925,-30.1752,119.099,-14.2834,
2026_07_06_16_56_37.326,3.858,33.1,0,0.761,0,0,0,0, ,0,0,0,0,0, ,134.6,468.8,685.9,14.8,107,51.5,25,655.175,419.308,86.0828,-27.3553,119.345,-10.6739,
2026_07_06_16_56_37.352,3.858,33,0,0.762,0,0,0,0, ,0,0,0,0,0, ,124.6,508.7,741.4,17.3,79,54.1,25,623.148,423.54,124.325,-24.7103,117.74,-6.80594,
2026_07_06_16_56_37.366,3.858,33.2,0,0.763,0,0,0,0, ,0,0,0,0,0, ,154.9,506.7,738.8,6.8,71.6,56.9,25,593.691,428.668,161.849,-22.4702,115.154,-3.00917,
2026_07_06_16_56_37.396,3.858,33.1,0,0.762,0,0,0,0, ,0,0,0,0,0, ,97.9,508.6,837.1,15.8,75,47,25,565.215,433.481,200.002,-20.4123,112.603,0.339903,
2026_07_06_16_56_37.406,3.858,33.1,0,0.762,0,0,0,0, ,0,0,0,0,0, ,80.8,562.9,858.1,22.6,72.5,28.9,25,536.217,439.713,239.465,-17.9984,110.236,2.63177,
2026_07_06_16_56_37.433,3.858,33,0,0.762,0,0,0,0, ,0,0,0,0,0, ,95.3,604.1,911.2,28.3,52.6,25.2,25,508.907,448.475,278.781,-15.3508,107.33,4.11975,
2026_07_06_16_56_37.445,3.858,33,0,0.761,0,0,0,0, ,0,0,0,0,0, ,116.9,685.3,1001,25,33.5,21,25,484.361,460.433,320.055,-12.7914,103.413,5.27636,
2026_07_06_16_56_37.473,3.858,33.1,0,0.762,0,0,0,0, ,0,0,0,0,0, ,125.6,685.7,1035.7,6.2,20.8,21.4,25,462.234,474.148,362.607,-11.0613,98.7656,6.24671,
2026_07_06_16_56_37.485,3.858,33,0,0.763,0,0,0,0, ,0,0,0,0,0, ,140.6,639.1,991.5,-2.2,-0.6,22.5,25,442.177,485.619,402.277,-10.2654,93.3625,7.20363,
2026_07_06_16_56_37.512,3.858,33,0,0.76,0,0,0,0, ,0,0,0,0,0, ,186.5,630.9,977,-2.9,-13.5,15.5,25,425.198,494.722,437.741,-9.7952,87.2437,7.92247,
2026_07_06_16_56_37.524,3.858,33,0,0.762,0,0,0,0, ,0,0,0,0,0, ,244.5,666.6,940.5,-9.6,3.1,-4.3,25,412.42,504.108,469.49,-9.57917,81.6104,7.78094,
2026_07_06_16_56_37.552,3.858,33.2,0,0.761,0,0,0,0, ,0,0,0,0,0, ,261.9,621.2,909.4,-7.6,19.2,-6.9,25,402.717,512.627,497.245,-9.5195,77.3167,6.96554,
2026_07_06_16_56_37.563,3.858,33.1,0,0.761,0,0,0,0, ,0,0,0,0,0, ,217,581.7,908.4,-1.7,5.8,6.7,25,392.768,518.039,522.33,-9.22276,73.3669,6.53499,
2026_07_06_16_56_37.591,3.858,33,0,0.761,0,0,0,0, ,0,0,0,0,0, ,214.8,583,926.8,-2.8,-11.2,11.7,25,381.99,521.958,546.417,-8.79786,68.7316,6.69739,
2026_07_06_16_56_37.608,3.858,33.1,0,0.763,0,0,0,0, ,0,0,0,0,0, ,219.4,584.3,922.7,-6.2,-14.7,10.4,25,371.942,525.718,569.471,-8.53596,63.7541,6.96262,
2026_07_06_16_56_37.636,3.858,33,0,0.762,0,0,0,0, ,0,0,0,0,0, ,195.1,569.3,921.7,-8,-13.8,4.1,25,361.906,528.83,590.966,-8.44846,59.0007,6.98014,
2026_07_06_16_56_37.643,3.858,33,0,0.762,0,0,0,0, ,0,0,0,0,0, ,190.1,571.5,968,-6.7,-19.6,-6,25,351.589,531.364,612.531,-8.38152,54.3877,6.49689,
2026_07_06_16_56_37.671,3.858,33,0,0.761,0,0,0,0, ,0,0,0,0,0, ,185.5,567.9,1003.4,-11.9,-38.9,-5.4,25,341.608,533.7,635.271,-8.43749,49.2911,5.75364,
2026_07_06_16_56_37.682,3.858,33,0,0.762,0,0,0,0, ,0,0,0,0,0, ,114.9,637.4,992.3,-17.5,-77.8,15,25,329.944,537.901,657.365,-8.81911,42.7317,5.69553,
2026_07_06_16_56_37.709,3.858,33,0,0.763,0,0,0,0, ,0,0,0,0,0, ,52.6,648.1,900.7,-0.7,-154.7,54.3,25,314.942,544.291,674.984,-8.83623,33.0437,7.45994,
2026_07_06_16_56_37.722,3.858,33.1,0,0.763,0,0,0,0, ,0,0,0,0,0, ,203.3,692.5,1038.8,3.6,-203.1,79.6,25,303.547,551.969,692.947,-8.20941,20.1284,11.0851,
2026_07_06_16_56_37.748,3.858,33,0,0.762,0,0,0,0, ,0,0,0,0,0, ,256.8,622.4,1021.3,-23.4,-188.4,51.2,25,299.068,558.397,713.489,-8.31243,6.97333,14.3949,
2026_07_06_16_56_37.761,3.858,33,0,0.76,0,0,0,0, ,0,0,0,0,0, ,212.4,639.7,823.1,-41.5,-214.4,41.3,25,295.14,562.824,726.207,-9.78331,-5.72442,16.3361,
2026_07_06_16_56_37.789,3.858,33.1,0,0.761,0,0,0,0, ,0,0,0,0,0, ,272.2,569.8,731.5,-51.9,-250.1,41,25,291.92,565.379,729.321,-12.0329,-19.5283,17.8482,
2026_07_06_16_56_37.801,3.858,33,0,0.763,0,0,0,0, ,0,0,0,0,0, ,357.2,446.5,543.3,-48.7,-250.1,53.1,25,293.308,561.892,723.719,-14.3648,-33.5788,19.6277,
2026_07_06_16_56_37.828,3.858,33,0,0.762,0,0,0,0, ,0,0,0,0,0, ,437.6,321.1,382.9,-38.8,-250.1,61.6,25,299.651,551.039,707.838,-16.1555,-46.773,21.9264,
2026_07_06_16_56_37.841,3.858,33.1,0,0.763,0,0,0,0, ,0,0,0,0,0, ,502.9,221.3,220.5,-9.5,-250.1,68,25,310.047,533.987,683.089,-16.6426,-59.1633,24.539,
2026_07_06_16_56_37.868,3.858,33.1,0,0.762,0,0,0,0, ,0,0,0,0,0, ,602,211.1,75.6,9.6,-250.1,75.6,25,324.818,514.621,650.485,-15.6254,-70.7985,27.419,
2026_07_06_16_56_37.880,3.858,33,0,0.762,0,0,0,0, ,0,0,0,0,0, ,710.8,55.6,59.6,40.9,-250.1,58.3,25,345.024,491.388,614.965,-13.1346,-81.7247,29.8279,
2026_07_06_16_56_37.909,3.858,32.9,0,0.76,0,0,0,0, ,0,0,0,0,0, ,859.4,190.3,8.5,29.2,-225,28,25,371.841,468.936,579.566,-10.1983,-91.2203,30.6397,
2026_07_06_16_56_37.920,3.858,33,0,0.76,0,0,0,0, ,0,0,0,0,0, ,811.8,189.3,-79.2,8,-182.3,0,25,400.102,451.926,542.094,-8.44345,-98.0715,29.6257,
2026_07_06_16_56_37.946,3.858,33.1,0,0.763,0,0,0,0, ,0,0,0,0,0, ,842.5,165,-179.3,-1.6,-178.1,-13.9,25,426.125,435.182,501.184,-7.73392,-103.076,27.3969,
2026_07_06_16_56_37.959,3.858,33.1,0,0.761,0,0,0,0, ,0,0,0,0,0, ,863.2,138.7,-236.3,2.7,-180.7,-9,25,452.128,417.917,457.981,-7.22912,-107.727,25.0297,
2026_07_06_16_56_37.986,3.858,33,0,0.762,0,0,0,0, ,0,0,0,0,0, ,955,140,-320.5,17,-163.8,3.3,25,479.975,400.941,413.107,-6.18836,-111.659,23.3307,
2026_07_06_16_56_37.999,3.858,33.1,0,0.762,0,0,0,0, ,0,0,0,0,0, ,1044.6,195.9,-342.1,28.5,-123.4,15.7,25,511.652,386.743,367.745,-4.42493,-113.605,22.4879,
2026_07_06_16_56_38.027,3.858,33.1,0,0.762,0,0,0,0, ,0,0,0,0,0, ,1053.4,239.3,-364.7,26.3,-82.2,16.6,25,544.397,376.436,323.8,-2.4856,-112.947,22.1017,
2026_07_06_16_56_38.038,3.858,33.1,0,0.762,0,0,0,0, ,0,0,0,0,0, ,1033.9,268.6,-371.9,33,-59.8,7.3,25,574.82,368.972,281.625,-0.527338,-110.391,21.4831,
2026_07_06_16_56_38.066,3.858,33,0,0.762,0,0,0,0, ,0,0,0,0,0, ,1035.7,279.5,-392.3,27.5,-48.7,-1.7,25,602.85,363.188,241.18,1.34816,-106.97,20.3446,
2026_07_06_16_56_38.084,3.858,33.1,0,0.763,0,0,0,0, ,0,0,0,0,0, ,1035.7,285.7,-403.8,17.7,-45.7,-8.1,25,629.227,358.277,202.227,2.64319,-103.328,18.8062,
2026_07_06_16_56_38.112,3.858,33,0,0.763,0,0,0,0, ,0,0,0,0,0, ,1053.5,290.4,-380.6,16.5,-39.7,-3.7,25,654.539,353.998,166.004,3.52415,-99.633,17.3007,
2026_07_06_16_56_38.117,3.858,33,0,0.76,0,0,0,0, ,0,0,0,0,0, ,1045,281.6,-369.3,21.5,-30.3,0.1,25,678.591,349.854,133.039,4.46721,-95.6945,16.1368,
2026_07_06_16_56_38.144,3.858,33,0,0.761,0,0,0,0, ,0,0,0,0,0, ,1000.9,269.2,-348.9,19.2,-22.1,-0.9,25,699.576,345.317,103.05,5.43507,-91.4596,15.1291,
2026_07_06_16_56_38.156,3.858,33.1,0,0.763,0,0,0,0, ,0,0,0,0,0, ,979.4,271.2,-322.9,11.7,-14.3,-6.5,25,717.282,340.74,76.3012,6.04535,-86.9954,13.9817,
2026_07_06_16_56_38.186,3.858,33,0,0.761,0,0,0,0, ,0,0,0,0,0, ,967,270.5,-312.1,0.4,-1.8,-7.5,25,732.877,336.481,52.3039,6.04564,-82.1846,12.7031,
2026_07_06_16_56_38.196,3.858,32.9,0,0.763,0,0,0,0, ,0,0,0,0,0, ,953,292.3,-338.9,-7.4,1.1,-5.1,25,746.718,333.124,29.2815,5.46395,-77.1978,11.5451,
2026_07_06_16_56_38.226,3.858,33,0,0.762,0,0,0,0, ,0,0,0,0,0, ,934.2,304.4,-310,-19.1,-4.3,-10.5,25,758.715,331.005,7.72599,4.32357,-72.5911,10.3662,
2026_07_06_16_56_38.236,3.858,33,0,0.762,0,0,0,0, ,0,0,0,0,0, ,936.4,313.4,-281.7,-22.5,-3.3,-13.5,25,769.476,329.658,-10.7732,2.7926,-68.3991,9.0033,
2026_07_06_16_56_38.266,3.858,33,0,0.761,0,0,0,0, ,0,0,0,0,0, ,926.1,293.3,-270.3,-27.7,5.6,-16.8,25,779.334,328.055,-26.9354,1.0929,-64.161,7.53146,
2026_07_06_16_56_38.276,3.858,33,0,0.762,0,0,0,0, ,0,0,0,0,0, ,895.8,286.6,-252.6,-33.5,12,-17.7,25,787.354,325.733,-41.2262,-0.83839,-59.7149,6.02134,
2026_07_06_16_56_38.304,3.858,33,0,0.762,0,0,0,0, ,0,0,0,0,0, ,881.1,303.3,-251.7,-35,14.2,-22.1,25,793.515,323.857,-54.0793,-2.87441,-55.2778,4.44176,
2026_07_06_16_56_38.315,3.858,32.9,0,0.76,0,0,0,0, ,0,0,0,0,0, ,906.7,290.6,-267.5,-21.4,8.6,-21.8,25,799.632,322.217,-66.6032,-4.41769,-51.2146,2.83351,
2026_07_06_16_56_38.344,3.858,33,0,0.762,0,0,0,0, ,0,0,0,0,0, ,918.9,283.5,-247.3,-6.3,6.2,-11.8,25,806.528,320.074,-78.2299,-4.99247,-47.6428,1.6371,
2026_07_06_16_56_38.355,3.858,33,0,0.762,0,0,0,0, ,0,0,0,0,0, ,911.6,309.4,-239,0,7.9,-0.7,25,813.153,318.635,-88.2797,-4.88019,-44.3099,1.15648,
2026_07_06_16_56_38.386,3.858,33,0,0.763,0,0,0,0, ,0,0,0,0,0, ,902.8,333.2,-222,-1.3,8.2,4.3,25,818.884,318.797,-96.9463,-4.62242,-41.1192,1.19569,
2026_07_06_16_56_38.395,3.858,33.1,0,0.761,0,0,0,0, ,0,0,0,0,0, ,889.5,341.7,-204.2,-4.8,8.9,0.4,25,823.593,319.934,-104.024,-4.5266,-38.0925,1.26603,
2026_07_06_16_56_38.424,3.858,33,0,0.761,0,0,0,0, ,0,0,0,0,0, ,885.4,344.6,-192.2,-6.8,13.3,-10.8,25,827.484,321.349,-109.763,-4.6042,-35.0949,0.872007,
2026_07_06_16_56_38.434,3.858,33.1,0,0.762,0,0,0,0, ,0,0,0,0,0, ,883.7,341.4,-199.8,-7,17.4,-20.9,25,830.962,322.668,-115.018,-4.7441,-32.0209,-0.14699,
2026_07_06_16_56_38.464,3.858,33,0,0.762,0,0,0,0, ,0,0,0,0,0, ,882.8,342.2,-199.5,-4.1,14.8,-21.9,25,834.148,323.834,-120.176,-4.79321,-29.0885,-1.4421,
2026_07_06_16_56_38.474,3.858,33,0,0.763,0,0,0,0, ,0,0,0,0,0, ,903.4,350.4,-200.5,2.6,6.2,-13.7,25,837.74,325.203,-125.04,-4.54682,-26.6761,-2.4389,
2026_07_06_16_56_38.502,3.858,33.1,0,0.762,0,0,0,0, ,0,0,0,0,0, ,909.6,356.4,-197.9,10.1,0.6,-1.3,25,841.93,326.921,-129.559,-3.8828,-24.8433,-2.74732,
2026_07_06_16_56_38.512,3.858,33,0,0.76,0,0,0,0, ,0,0,0,0,0, ,907.2,351.8,-202.5,15.8,-0.8,3.2,25,845.981,328.577,-133.864,-2.85705,-23.3355,-2.52201,
2026_07_06_16_56_38.543,3.858,33,0,0.763,0,0,0,0, ,0,0,0,0,0, ,915.5,356.3,-204.1,17,2.4,2.5,25,849.964,330.13,-138.095,-1.68357,-21.8648,-2.19465,
2026_07_06_16_56_38.552,3.858,33,0,0.761,0,0,0,0, ,0,0,0,0,0, ,914.3,373.6,-209.9,13.9,4.2,-0.5,25,853.921,332.251,-142.294,-0.639496,-20.3313,-1.99998,
2026_07_06_16_56_38.581,3.858,33,0,0.761,0,0,0,0, ,0,0,0,0,0, ,906.1,369.1,-204.8,7.3,2.7,-4,25,857.351,334.634,-146.258,0.0454109,-18.8821,-2.01521,
2026_07_06_16_56_38.593,3.858,33.1,0,0.76,0,0,0,0, ,0,0,0,0,0, ,912.8,365.2,-216.5,2.1,0.9,-4.3,25,860.526,336.615,-150.182,0.32905,-17.6218,-2.1453,
2026_07_06_16_56_38.621,3.858,33.1,0,0.762,0,0,0,0, ,0,0,0,0,0, ,909.9,347.4,-222.9,-0.4,-1.8,-1.7,25,863.623,337.815,-154.418,0.360795,-16.5754,-2.19739,
2026_07_06_16_56_38.638,3.858,33.1,0,0.762,0,0,0,0, ,0,0,0,0,0, ,904.7,338.2,-230.5,-0.1,-4.5,0.3,25,866.284,338.119,-158.823,0.323575,-15.7573,-2.10614,
2026_07_06_16_56_38.668,3.858,33.1,0,0.761,0,0,0,0, ,0,0,0,0,0, ,903,339.4,-233.7,-0.6,-5.8,-0.5,25,868.573,338.16,-163.288,0.282529,-15.1109,-1.98389,
2026_07_06_16_56_38.674,3.858,33.1,0,0.762,0,0,0,0, ,0,0,0,0,0, ,911.7,337.7,-228.1,-3.1,-3.4,-2.7,25,870.936,338.184,-167.408,0.152578,-14.4704,-1.9605,
2026_07_06_16_56_38.705,3.858,33.1,0,0.761,0,0,0,0, ,0,0,0,0,0, ,907.5,335.2,-240.8,-5.1,-0.3,-5,25,873.292,338.078,-171.494,-0.106563,-13.7013,-2.07564,
2026_07_06_16_56_38.712,3.858,32.9,0,0.762,0,0,0,0, ,0,0,0,0,0, ,904.6,341.4,-231.3,-4.7,-0.3,-5.8,25,875.289,338.092,-175.428,-0.398663,-12.8847,-2.27822,
2026_07_06_16_56_38.740,3.858,33,0,0.762,0,0,0,0, ,0,0,0,0,0, ,898.8,343.9,-223.8,-4.6,-1.2,-3.5,25,876.898,338.37,-178.604,-0.657729,-12.1452,-2.42275,
2026_07_06_16_56_38.751,3.858,33.1,0,0.762,0,0,0,0, ,0,0,0,0,0, ,901.8,341,-228.1,-4.4,-0.3,-3.9,25,878.324,338.618,-181.489,-0.891868,-11.4508,-2.50058,
2026_07_06_16_56_38.778,3.858,33.1,0,0.762,0,0,0,0, ,0,0,0,0,0, ,894.1,340.6,-227.6,-2.8,-1.8,-3.9,25,879.52,338.751,-184.314,-1.05689,-10.817,-2.58586,
2026_07_06_16_56_38.791,3.858,33.1,0,0.763,0,0,0,0, ,0,0,0,0,0, ,903.1,349.4,-231.8,-3.8,-3,-4.7,25,880.683,339.132,-187.08,-1.19358,-10.3041,-2.69031,
2026_07_06_16_56_38.821,3.858,33,0,0.762,0,0,0,0, ,0,0,0,0,0, ,907.9,345.7,-232.2,-3.8,-3.1,-5,25,882.195,339.645,-189.817,-1.35241,-9.86208,-2.82192,
2026_07_06_16_56_38.830,3.858,33,0,0.763,0,0,0,0, ,0,0,0,0,0, ,903,348,-233.5,-2.5,-2.3,-4.8,25,883.612,340.084,-192.439,-1.46195,-9.42564,-2.94855,
2026_07_06_16_56_38.859,3.858,33,0,0.763,0,0,0,0, ,0,0,0,0,0, ,894.4,343.6,-232.2,-1.8,-2.7,-4.7,25,884.532,340.432,-194.902,-1.50388,-9.00361,-3.05833,
2026_07_06_16_56_38.869,3.858,33,0,0.762,0,0,0,0, ,0,0,0,0,0, ,891.8,347.7,-224.1,-1.2,-3.2,-5.2,25,885.054,340.75,-196.928,-1.50364,-8.63472,-3.1736,
2026_07_06_16_56_38.898,3.858,32.9,0,0.759,0,0,0,0, ,0,0,0,0,0, ,895.3,347.7,-218.9,-1.4,-2.4,-6.4,25,885.571,341.174,-198.425,-1.49123,-8.27916,-3.33365,
2026_07_06_16_56_38.909,3.858,33,0,0.762,0,0,0,0, ,0,0,0,0,0, ,899.4,357.6,-223.9,-1.7,0,-8.1,25,886.289,341.873,-199.825,-1.49482,-7.84778,-3.5723,
2026_07_06_16_56_38.938,3.858,33.1,0,0.762,0,0,0,0, ,0,0,0,0,0, ,899.7,368.5,-220.9,-6.9,3.1,-13.1,25,887.097,343.164,-201.201,-1.66576,-7.2751,-4.00055,
2026_07_06_16_56_38.948,3.858,33,0,0.762,0,0,0,0, ,0,0,0,0,0, ,886.9,373.9,-223.9,-14.2,1.9,-23.4,25,887.475,344.872,-202.493,-2.20714,-6.67943,-4.86888,
2026_07_06_16_56_38.977,3.858,33,0,0.762,0,0,0,0, ,0,0,0,0,0, ,888.7,370.1,-215.9,-19.2,0.4,-29.6,25,887.495,346.525,-203.554,-3.0903,-6.20232,-6.18702,
2026_07_06_16_56_38.987,3.858,33,0,0.762,0,0,0,0, ,0,0,0,0,0, ,885.6,378,-228.7,-19,-1.8,-27.2,25,887.474,348.202,-204.696,-4.06589,-5.86703,-7.54063,
2026_07_06_16_56_39.017,3.858,33.1,0,0.762,0,0,0,0, ,0,0,0,0,0, ,874.2,382.4,-238.7,-15.4,-7.2,-29,25,887.012,350.152,-206.463,-4.86625,-5.78372,-8.79346,
2026_07_06_16_56_39.026,3.858,32.9,0,0.761,0,0,0,0, ,0,0,0,0,0, ,862.6,410.6,-243.7,-8.3,-12.3,-32.6,25,885.878,352.977,-208.58,-5.29182,-6.02542,-10.1345,
2026_07_06_16_56_39.057,3.858,33.1,0,0.761,0,0,0,0, ,0,0,0,0,0, ,808.7,405.2,-291.9,13.1,-32.3,-34.3,25,882.817,356.324,-212.189,-4.8231,-7.01715,-11.5553,
2026_07_06_16_56_39.067,3.858,33,0,0.762,0,0,0,0, ,0,0,0,0,0, ,730.3,433.2,-373.7,95.3,-122.7,-35,25,875.912,360.155,-219.539,-1.22638,-11.3122,-12.9626,
2026_07_06_16_56_39.096,3.858,33.1,0,0.762,0,0,0,0, ,0,0,0,0,0, ,762.4,465.4,-372.9,108.5,-226.6,-16.8,25,868.017,365.587,-228.908,5.05788,-21.2656,-13.751,
2026_07_06_16_56_39.106,3.858,33,0,0.762,0,0,0,0, ,0,0,0,0,0, ,637,507.2,-378.2,155.5,-250.1,20.4,25,857.76,372.943,-237.844,12.7934,-34.4942,-12.8033,
2026_07_06_16_56_39.136,3.858,33.1,0,0.763,0,0,0,0, ,0,0,0,0,0, ,704.7,463.1,-535.7,210,-250.1,62.1,25,846.37,379.781,-251.196,23.1501,-47.6327,-9.50947,
2026_07_06_16_56_39.147,3.858,33,0,0.762,0,0,0,0, ,0,0,0,0,0, ,571.2,458.4,-641.7,226.4,-250.1,133.4,25,833.67,384.715,-271.763,35.036,-59.9705,-2.97335,
2026_07_06_16_56_39.176,3.858,33,0,0.761,0,0,0,0, ,0,0,0,0,0, ,562.2,452,-824.8,225.2,-250.1,193.6,25,817.401,389.01,-299.885,46.6607,-71.5565,7.17112,
2026_07_06_16_56_39.189,3.858,33,0,0.762,0,0,0,0, ,0,0,0,0,0, ,467,335.8,-783.5,193.6,-250.1,214.2,25,798.949,389.308,-330.613,56.5776,-82.4365,19.1593,
2026_07_06_16_56_39.219,3.858,33.1,0,0.762,0,0,0,0, ,0,0,0,0,0, ,361.9,157.1,-718.7,174.8,-250.1,197.8,25,775.519,380.603,-356.237,64.3546,-92.6535,30.5449,
2026_07_06_16_56_39.226,3.858,33,0,0.762,0,0,0,0, ,0,0,0,0,0, ,355.7,-84.5,-810.9,109.8,-250.1,172.4,25,750.125,359.622,-381.134,69.1044,-102.248,39.9631,
2026_07_06_16_56_39.255,3.858,33,0,0.761,0,0,0,0, ,0,0,0,0,0, ,318.9,-291.6,-782.7,143.9,-250.1,75,25,724.969,326.248,-406.463,72.6233,-111.258,45.0658,
2026_07_06_16_56_39.265,3.858,33,0,0.761,0,0,0,0, ,0,0,0,0,0, ,323.1,-428.9,-1019.4,169.8,-216.7,69.1,25,700.352,284.415,-436.602,77.7558,-118.701,46.7102,
2026_07_06_16_56_39.293,3.858,33,0,0.763,0,0,0,0, ,0,0,0,0,0, ,210.5,-403.8,-816,87,-128.4,110.6,25,673.932,241.712,-465.919,80.842,-121.982,49.339,
2026_07_06_16_56_39.304,3.858,32.9,0,0.762,0,0,0,0, ,0,0,0,0,0, ,113.6,-455,-854.7,40.6,-64.5,107.4,25,642.739,200.816,-488.431,79.8035,-120.426,52.9746,
2026_07_06_16_56_39.333,3.858,33.2,0,0.763,0,0,0,0, ,0,0,0,0,0, ,39.3,-382,-895,17.2,-56.7,68.6,25,608.231,163.076,-511.979,76.7015,-116.781,55.1089,
2026_07_06_16_56_39.344,3.858,33.1,0,0.763,0,0,0,0, ,0,0,0,0,0, ,11.4,-410,-950.8,15.9,-41.4,37,25,572.712,129.008,-537.019,73.036,-112.653,54.9682,
2026_07_06_16_56_39.373,3.858,33.1,0,0.761,0,0,0,0, ,0,0,0,0,0, ,11.4,-432.2,-1025.1,22,-7.4,38.6,25,538.507,95.4854,-564.498,69.7402,-107.275,53.9221,
2026_07_06_16_56_39.383,3.858,33,0,0.763,0,0,0,0, ,0,0,0,0,0, ,-30.3,-422.9,-1133,33.1,17.2,45.3,25,505.116,63.6129,-595.853,67.1692,-100.44,53.1925,
2026_07_06_16_56_39.414,3.858,33.2,0,0.761,0,0,0,0, ,0,0,0,0,0, ,-78.8,-385.9,-1011.1,37.9,31.7,38.9,25,471.011,35.0934,-624.871,65.2394,-92.8292,52.5166,
2026_07_06_16_56_39.423,3.858,33.1,0,0.763,0,0,0,0, ,0,0,0,0,0, ,30.1,-411.4,-1097.6,43.1,32.9,29.7,25,440.825,8.66214,-651.043,63.7318,-85.2041,51.4065,
2026_07_06_16_56_39.453,3.858,33.2,0,0.763,0,0,0,0, ,0,0,0,0,0, ,-10.3,-432.6,-1088.2,39.5,52.3,21.7,25,414.566,-17.5813,-677.968,62.3649,-77.4161,49.84,
2026_07_06_16_56_39.463,3.858,33,0,0.762,0,0,0,0, ,0,0,0,0,0, ,4,-400.2,-1041.5,28.9,62.8,5.8,25,389.111,-41.8843,-701.544,60.6486,-69.1916,47.6408,
2026_07_06_16_56_39.493,3.858,33,0,0.763,0,0,0,0, ,0,0,0,0,0, ,148.8,-433.9,-1131.8,23,77.5,1.2,25,370.055,-64.746,-725.011,58.5341,-60.7004,44.9509,
2026_07_06_16_56_39.502,3.858,32.9,0,0.76,0,0,0,0, ,0,0,0,0,0, ,248,-391.8,-1129.5,7.6,127.7,-5.9,25,359.595,-85.9586,-749.73,55.8996,-50.7493,42.0685,
2026_07_06_16_56_39.531,3.858,33,0,0.761,0,0,0,0, ,0,0,0,0,0, ,195.1,-482,-1126.2,-5.4,189.9,-46.4,25,351.183,-107.344,-772.772,52.5602,-37.9799,37.9115,
2026_07_06_16_56_39.543,3.858,33.1,0,0.762,0,0,0,0, ,0,0,0,0,0, ,236,-564,-1119.3,-31.8,231.9,-95.4,25,342.918,-132.673,-794.099,48.2239,-22.8138,31.2808,
2026_07_06_16_56_39.573,3.858,33.1,0,0.763,0,0,0,0, ,0,0,0,0,0, ,335.3,-578.1,-1118.5,-43,250.1,-96,25,339.428,-159.387,-813.891,43.0062,-6.73765,23.5429,
2026_07_06_16_56_39.582,3.858,33.1,0,0.763,0,0,0,0, ,0,0,0,0,0, ,475,-562.7,-1163.3,-58,250.1,-93.9,25,343.433,-184.433,-833.818,37.3081,8.9134,16.3222,
2026_07_06_16_56_39.608,3.858,33.1,0,0.762,0,0,0,0, ,0,0,0,0,0, ,655.3,-503.5,-1179,-32.2,250.1,-96.5,25,356.944,-205.68,-854.374,32.2864,23.6107,9.52634,
2026_07_06_16_56_39.621,3.858,33.1,0,0.762,0,0,0,0, ,0,0,0,0,0, ,659,-453.7,-1225.8,51.1,250.1,-112.7,25,375.238,-222.311,-875.582,30.8948,37.4124,2.57176,
2026_07_06_16_56_39.653,3.858,33.1,0,0.763,0,0,0,0, ,0,0,0,0,0, ,473.2,-425.2,-1339.4,76.2,250.1,-182.9,25,386.868,-235.543,-900.385,32.8908,50.373,-6.59151,
2026_07_06_16_56_39.661,3.858,33.1,0,0.761,0,0,0,0, ,0,0,0,0,0, ,347.2,-183.3,-772.4,-36,250.1,-250.1,25,388.29,-239.73,-909.862,32.1114,62.5439,-19.3828,
2026_07_06_16_56_39.693,3.858,33.1,0,0.761,0,0,0,0, ,0,0,0,0,0, ,570.4,-223.3,-445.3,-120.4,250.1,-250.1,25,392.587,-237.51,-891.519,25.3893,73.9731,-33.4421,
2026_07_06_16_56_39.701,3.858,33.1,0,0.761,0,0,0,0, ,0,0,0,0,0, ,543.9,-158.3,-268.7,-126.3,250.1,-250.1,25,402.615,-234.663,-858.946,16.3255,84.7058,-46.6447,
2026_07_06_16_56_39.730,3.858,33.1,0,0.762,0,0,0,0, ,0,0,0,0,0, ,403.5,-32.3,-147.9,-54.5,250.1,-250.1,25,406.947,-226.171,-819.298,9.8219,94.7845,-59.0428,
2026_07_06_16_56_39.739,3.858,33,0,0.762,0,0,0,0, ,0,0,0,0,0, ,334.2,-84.3,-68.1,-4.9,250.1,-125.6,25,404.625,-215.941,-775.953,7.41354,104.249,-66.892,
2026_07_06_16_56_39.769,3.858,33.1,0,0.761,0,0,0,0, ,0,0,0,0,0, ,373.9,360.1,265.2,-6.1,182.9,-83.3,25,401.543,-194.379,-722.663,6.62662,111.089,-69.1807,
2026_07_06_16_56_39.780,3.858,33.1,0,0.761,0,0,0,0, ,0,0,0,0,0, ,591.5,359.1,225.9,-233.4,94,-115.5,25,406.489,-160.621,-663.662,-1.07445,112.757,-71.0222,
2026_07_06_16_56_39.816,3.858,33,0,0.761,0,0,0,0, ,0,0,0,0,0, ,639.8,268.7,370.4,-127.2,113.5,-145.4,25,419.234,-131.705,-605.052,-11.996,112.208,-74.6435,
2026_07_06_16_56_39.821,3.858,33.2,0,0.761,0,0,0,0, ,0,0,0,0,0, ,663.2,298.3,389.1,3,116.8,-138.8,25,433.388,-106.403,-545.041,-15.0492,112.387,-78.7542,
2026_07_06_16_56_39.852,3.858,33.2,0,0.762,0,0,0,0, ,0,0,0,0,0, ,742.3,388.3,406.3,62.7,82,-119.6,25,449.802,-78.9995,-487.592,-12.1304,111.596,-81.8282,
2026_07_06_16_56_39.861,3.858,33,0,0.761,0,0,0,0, ,0,0,0,0,0, ,837.7,502.1,457.6,51.7,54.7,-81.8,25,470.533,-47.0561,-431.558,-7.90554,108.96,-82.9782,
2026_07_06_16_56_39.891,3.858,33.1,0,0.762,0,0,0,0, ,0,0,0,0,0, ,824,514.4,527.5,21.4,29.8,-44,25,492.49,-13.2171,-375.245,-5.19654,104.895,-81.7547,
2026_07_06_16_56_39.899,3.858,33.1,0,0.763,0,0,0,0, ,0,0,0,0,0, ,830.9,503.2,550.5,24.4,5.6,-16.2,25,512.902,18.5933,-319.533,-3.4844,99.5818,-78.607,
2026_07_06_16_56_39.929,3.858,33.1,0,0.762,0,0,0,0, ,0,0,0,0,0, ,814.9,496.8,552.6,8.3,-18.6,-5.3,25,531.792,47.929,-266.452,-2.27574,93.1174,-74.472,
2026_07_06_16_56_39.938,3.858,33.2,0,0.76,0,0,0,0, ,0,0,0,0,0, ,828.3,525.1,498.1,10.6,-28.7,-2.3,25,549.452,76.1444,-218.201,-1.56121,86.0019,-70.1654,
2026_07_06_16_56_39.968,3.858,33.1,0,0.762,0,0,0,0, ,0,0,0,0,0, ,850.8,544.7,486.4,12.5,-11.1,-4.4,25,567.13,104.1,-174.908,-0.762242,79.5485,-66.0938,
2026_07_06_16_56_39.977,3.858,33,0,0.763,0,0,0,0, ,0,0,0,0,0, ,799.5,515.8,489.3,0.8,0.3,-5.3,25,582.853,130.068,-134.521,-0.310559,74.372,-62.3618,
2026_07_06_16_56_40.007,3.858,33.1,0,0.761,0,0,0,0, ,0,0,0,0,0, ,761.5,489.8,479.9,-3.8,-4.7,-3.2,25,594.897,152.782,-96.7935,-0.38304,69.7059,-58.8206,
2026_07_06_16_56_40.016,3.858,33.2,0,0.761,0,0,0,0, ,0,0,0,0,0, ,743.6,468.5,445.1,0.3,-16.3,1.2,25,604.504,172.67,-62.7116,-0.466339,64.8183,-55.2971,
2026_07_06_16_56_40.045,3.858,33.1,0,0.763,0,0,0,0, ,0,0,0,0,0, ,773.6,473.3,399.6,6.4,-24.6,8.8,25,613.894,190.843,-33.1532,-0.233781,59.6223,-51.6228,
2026_07_06_16_56_40.058,3.858,33.1,0,0.762,0,0,0,0, ,0,0,0,0,0, ,793.9,448.6,376.5,5.8,-12.2,13.1,25,624.245,207.303,-7.48609,0.152183,54.8678,-47.8098,
2026_07_06_16_56_40.088,3.858,33.1,0,0.763,0,0,0,0, ,0,0,0,0,0, ,780.5,442,392.9,0.4,-7.5,3.3,25,634.175,221.806,16.4127,0.331816,50.9241,-44.3967,
2026_07_06_16_56_40.096,3.858,33.1,0,0.762,0,0,0,0, ,0,0,0,0,0, ,799.6,422.9,370.4,5.7,-11.8,-0.6,25,643.674,234.642,38.6694,0.497455,47.2328,-41.609,
2026_07_06_16_56_40.128,3.858,33.2,0,0.76,0,0,0,0, ,0,0,0,0,0, ,799.3,441.4,366.9,-16.3,-22.8,-3.6,25,653.166,246.678,58.7776,0.144173,43.3004,-39.2014,
2026_07_06_16_56_40.136,3.858,33.1,0,0.761,0,0,0,0, ,0,0,0,0,0, ,809,434.2,356,-14.2,-33.8,-1.1,25,662.367,258.324,77.2217,-0.793909,38.9372,-36.9558,
2026_07_06_16_56_40.166,3.858,33.1,0,0.761,0,0,0,0, ,0,0,0,0,0, ,797.8,438.8,381.4,-13.7,-39,-12.5,25,670.961,269.182,94.9836,-1.59561,34.3464,-35.1182,
2026_07_06_16_56_40.175,3.858,33,0,0.762,0,0,0,0, ,0,0,0,0,0, ,740.6,465.5,346.9,-24.9,-55,-49.8,25,676.948,280.331,111.386,-2.67447,29.3893,-34.8763,
2026_07_06_16_56_40.207,3.858,33,0,0.761,0,0,0,0, ,0,0,0,0,0, ,614.5,436.5,360.7,-19.1,-90.4,-116.9,25,676.984,290.731,126.158,-3.85212,23.1682,-37.8302,
2026_07_06_16_56_40.214,3.858,33.1,0,0.762,0,0,0,0, ,0,0,0,0,0, ,578.9,455,283.4,-29.9,-109.3,-221,25,672.092,300.178,138.095,-5.11035,15.6718,-45.8203,
2026_07_06_16_56_40.246,3.858,33,0,0.762,0,0,0,0, ,0,0,0,0,0, ,517.8,477.1,237.1,-29.9,-108.7,-250.1,25,664.551,310.286,145.539,-6.62097,8.07463,-57.382,
2026_07_06_16_56_40.255,3.858,33,0,0.762,0,0,0,0, ,0,0,0,0,0, ,497.9,579.5,171.5,-12.1,-104.3,-250.1,25,655.002,323.571,149.12,-7.49719,1.09274,-69.1257,
2026_07_06_16_56_40.284,3.858,33.1,0,0.762,0,0,0,0, ,0,0,0,0,0, ,515,706.1,100.9,7.4,-106.2,-250.1,25,645.95,343.024,148.332,-7.18353,-5.38752,-80.1538,
2026_07_06_16_56_40.294,3.858,33.2,0,0.761,0,0,0,0, ,0,0,0,0,0, ,628,753.9,183.7,1.8,-106.4,-250.1,25,641.413,366.605,147.965,-6.46547,-11.5369,-90.5099,
2026_07_06_16_56_40.326,3.858,33.1,0,0.762,0,0,0,0, ,0,0,0,0,0, ,536.4,914.6,173.7,-6.6,-88.8,-204.1,25,637.805,395.102,149.838,-6.21773,-16.7813,-98.8334,
2026_07_06_16_56_40.334,3.858,33.2,0,0.763,0,0,0,0, ,0,0,0,0,0, ,387.9,744.9,163.4,4.7,-156,-127.9,25,627.101,421.589,150.978,-5.89673,-23.2175,-102.926,
2026_07_06_16_56_40.366,3.858,33.1,0,0.761,0,0,0,0, ,0,0,0,0,0, ,591.5,885.6,102.4,-10,-157.5,-89,25,618.728,445.577,149.876,-5.69888,-31.3546,-103.263,
2026_07_06_16_56_40.373,3.858,33.1,0,0.762,0,0,0,0, ,0,0,0,0,0, ,677.2,847.6,77.6,-29.2,-86.7,-81,25,619.68,471.234,146.228,-6.54598,-36.8844,-102.15,
2026_07_06_16_56_40.404,3.858,33.1,0,0.762,0,0,0,0, ,0,0,0,0,0, ,539.3,783.3,115.6,-1.7,-34.6,-77.2,25,618.984,492.209,143.204,-7.08857,-38.3326,-100.745,
2026_07_06_16_56_40.413,3.858,33.1,0,0.762,0,0,0,0, ,0,0,0,0,0, ,464.8,974.9,130.2,37.4,-25.9,-58.3,25,611.858,515.785,141.966,-5.56888,-37.8401,-98.7348,
2026_07_06_16_56_40.444,3.858,33.1,0,0.762,0,0,0,0, ,0,0,0,0,0, ,461,1043.5,88.9,36.7,-23.4,-45.1,25,602.781,545.853,139.991,-2.97179,-37.0363,-95.8686,
2026_07_06_16_56_40.452,3.858,33.1,0,0.762,0,0,0,0, ,0,0,0,0,0, ,435.6,1052.3,38.8,18.8,-24,-31.4,25,593.367,576.446,135.351,-1.09968,-36.2236,-92.3575,
2026_07_06_16_56_40.484,3.858,33,0,0.762,0,0,0,0, ,0,0,0,0,0, ,459.9,1041,63.5,11.2,-21.7,-15.9,25,584.494,605.099,130.22,-0.118607,-35.4087,-88.1706,
2026_07_06_16_56_40.491,3.858,33.1,0,0.762,0,0,0,0, ,0,0,0,0,0, ,463.9,998.9,20.2,19.6,-6.4,2.8,25,577.023,630.379,124.835,0.827058,-34.1071,-83.1969,
2026_07_06_16_56_40.523,3.858,33.1,0,0.763,0,0,0,0, ,0,0,0,0,0, ,439.3,1057.2,19.8,33.5,8.1,24.8,25,569.38,654.612,118.447,2.39455,-31.9769,-77.2861,
2026_07_06_16_56_40.531,3.858,33.1,0,0.763,0,0,0,0, ,0,0,0,0,0, ,387,1091.9,38.6,19.2,16.3,29.7,25,559.86,680.202,113.008,3.85433,-29.2849,-70.9159,
2026_07_06_16_56_40.570,3.858,33.2,0,0.761,0,0,0,0, ,0,0,0,0,0, ,357,944.5,9.3,8.3,13,30.6,25,548.412,700.799,107.581,4.45735,-26.6076,-64.7572,
