UTC_Time,Vin,TC1,TC2,Rh1,Vh1,Ah1,Acp1,Dty1,Err1,Rh2,Vh2,Ah2,Acp2,Dty2,Err2,Accel_x,Accel_y,Accel_z,gyro_x,gyro_y,gyro_z,Temp_c,Accel_x_h,Accel_y_h,Accel_z_h,gyro_x_h,gyro_y_h,gyro_z_h,
2026_06_26_17_10_31.091,3.873,0,0,0.768,0,0,0,0, ,0,0,0,0,0, ,796.9,-13.4,591.5,-0.1,-0.2,-1.8,25,796.9,-13.4,591.5,-0.1,-0.2,-1.8,
2026_06_26_17_10_31.111,3.873,43.4,0,0.769,0,0,0,0, ,0,0,0,0,0, ,797.6,-13,589.8,-0.4,0,-2,25,796.921,-13.3878,591.448,-0.109141,-0.193906,-1.80609,
2026_06_26_17_10_31.131,3.873,43.5,0,0.768,0,0,0,0, ,0,0,0,0,0, ,796.7,-12.2,595.2,-0.3,0,-1.9,25,796.935,-13.3398,591.512,-0.123818,-0.18209,-1.81486,
2026_06_26_17_10_31.151,3.873,43.5,0,0.768,0,0,0,0, ,0,0,0,0,0, ,795.5,-10.4,592.4,-0.8,-0.6,-2,25,796.884,-13.2155,591.652,-0.149788,-0.189275,-1.8231,
2026_06_26_17_10_31.170,3.873,43.5,0,0.769,0,0,0,0, ,0,0,0,0,0, ,798.3,-11.3,591.3,-0.7,-0.5,-1.8,25,796.885,-13.0714,591.664,-0.186364,-0.211257,-1.82778,
2026_06_26_17_10_31.190,3.873,43.5,0,0.768,0,0,0,0, ,0,0,0,0,0, ,796.1,-13.7,591.7,-0.8,-0.7,-1.7,25,796.905,-13.0365,591.654,-0.22071,-0.234946,-1.82304,
2026_06_26_17_10_31.210,3.873,43.4,0,0.772,0,0,0,0, ,0,0,0,0,0, ,796.5,-13.6,590,-0.9,-0.5,-2,25,796.868,-13.0739,591.605,-0.259058,-0.257191,-1.82469,
2026_06_26_17_10_31.229,3.873,43.4,0,0.769,0,0,0,0, ,0,0,0,0,0, ,797.1,-13.7,594.2,-0.4,-0.3,-2,25,796.864,-13.109,591.635,-0.282881,-0.265894,-1.83537,
2026_06_26_17_10_31.249,3.873,43.4,0,0.769,0,0,0,0, ,0,0,0,0,0, ,797.1,-11.1,587.5,-0.4,-0.2,-2.1,25,796.878,-13.0658,591.587,-0.290018,-0.264925,-1.84845,
2026_06_26_17_10_31.269,3.873,43.4,0,0.769,0,0,0,0, ,0,0,0,0,0, ,796.7,-10.2,591.9,0,0.4,-1.9,25,796.879,-12.9186,591.472,-0.284532,-0.242688,-1.85768,
2026_06_26_17_10_31.289,3.873,43.4,0,0.769,0,0,0,0, ,0,0,0,0,0, ,795.1,-12,591.4,0,0.6,-1.8,25,796.82,-12.8078,591.483,-0.267194,-0.19743,-1.85722,
2026_06_26_17_10_31.309,3.873,43.5,0,0.769,0,0,0,0, ,0,0,0,0,0, ,796.8,-11.8,596,0.1,0.5,-1.8,25,796.767,-12.7525,591.618,-0.247865,-0.151884,-1.85373,
2026_06_26_17_10_31.328,3.873,43.4,0,0.77,0,0,0,0, ,0,0,0,0,0, ,794.9,-11.8,596.3,-0.3,0,-1.9,25,796.711,-12.6944,591.894,-0.238854,-0.127394,-1.8535,
2026_06_26_17_10_31.350,3.873,43.4,0,0.77,0,0,0,0, ,0,0,0,0,0, ,794,-12,597.5,-0.8,-0.6,-1.9,25,796.573,-12.646,592.199,-0.257815,-0.137912,-1.85634,
2026_06_26_17_10_31.368,3.873,43.5,0,0.77,0,0,0,0, ,0,0,0,0,0, ,796,-11.3,594.1,-1.5,-1.5,-2.1,25,796.477,-12.5853,592.419,-0.312182,-0.193492,-1.86509,
2026_06_26_17_10_31.387,3.873,43.4,0,0.768,0,0,0,0, ,0,0,0,0,0, ,798.2,-12.6,582.8,-0.7,-0.3,-2.3,25,796.515,-12.5466,592.177,-0.36019,-0.236545,-1.8855,
2026_06_26_17_10_31.408,3.873,43.3,0,0.769,0,0,0,0, ,0,0,0,0,0, ,797.3,-11.3,591.6,-0.7,0.2,-2.3,25,796.59,-12.5103,591.874,-0.380897,-0.225178,-1.91076,
2026_06_26_17_10_31.427,3.873,43.4,0,0.769,0,0,0,0, ,0,0,0,0,0, ,793.8,-11.5,598,0,0.1,-2,25,796.527,-12.4426,592.052,-0.379014,-0.202315,-1.92534,
2026_06_26_17_10_31.447,3.873,43.4,0,0.769,0,0,0,0, ,0,0,0,0,0, ,796.8,-10.8,596.5,-0.6,-0.5,-2.1,25,796.452,-12.3638,592.369,-0.374199,-0.202174,-1.93293,
2026_06_26_17_10_31.467,3.873,43.5,0,0.769,0,0,0,0, ,0,0,0,0,0, ,796.1,-13,598.7,-1.4,-1.2,-2.2,25,796.452,-12.3356,592.687,-0.412334,-0.241651,-1.94616,
2026_06_26_17_10_31.492,3.873,43.5,0,0.768,0,0,0,0, ,0,0,0,0,0, ,794.9,-14.4,595.2,-1.2,-1.9,-2.5,25,796.394,-12.4187,592.947,-0.466426,-0.321379,-1.97077,
2026_06_26_17_10_31.506,3.873,43.3,0,0.768,0,0,0,0, ,0,0,0,0,0, ,797.9,-13.9,593.3,-1.6,-2.3,-3.2,25,796.394,-12.5242,593.027,-0.523316,-0.429763,-2.02435,
2026_06_26_17_10_31.527,3.873,43.3,0,0.77,0,0,0,0, ,0,0,0,0,0, ,798.9,-11.1,584.7,-1.2,-1.1,-3.6,25,796.517,-12.5227,592.781,-0.576739,-0.507168,-2.10818,
2026_06_26_17_10_31.546,3.873,43.4,0,0.769,0,0,0,0, ,0,0,0,0,0, ,799.8,-8.1,587.2,-0.9,-0.1,-3.3,25,796.689,-12.3446,592.365,-0.605578,-0.512825,-2.18994,
2026_06_26_17_10_31.566,3.873,43.4,0,0.767,0,0,0,0, ,0,0,0,0,0, ,797.3,-10.1,587.1,-0.7,0.7,-3.1,25,796.803,-12.1469,592.047,-0.617426,-0.463294,-2.25149,
2026_06_26_17_10_31.586,3.873,43.3,0,0.768,0,0,0,0, ,0,0,0,0,0, ,798.4,-10.2,583.4,0.2,2.1,-3.1,25,796.866,-12.0252,591.633,-0.595036,-0.349749,-2.3032,
2026_06_26_17_10_31.606,3.873,43.3,0,0.768,0,0,0,0, ,0,0,0,0,0, ,794.6,-27,601.6,4,2.3,-3.6,25,796.844,-12.4259,591.686,-0.430807,-0.194374,-2.36699,
2026_06_26_17_10_31.631,3.873,43.4,0,0.769,0,0,0,0, ,0,0,0,0,0, ,794.1,-6.9,599.6,0.7,1.4,-3.2,25,796.692,-12.7016,592.229,-0.261352,-0.0697949,-2.42994,
2026_06_26_17_10_31.645,3.873,43.4,0,0.769,0,0,0,0, ,0,0,0,0,0, ,793.4,-5,602.2,-0.3,0.5,-3,25,796.513,-12.2901,592.757,-0.233238,-0.00765115,-2.47077,
2026_06_26_17_10_31.665,3.873,43.4,0,0.769,0,0,0,0, ,0,0,0,0,0, ,793.7,-23.8,599.4,0.3,-0.7,-3.1,25,796.332,-12.4187,593.247,-0.219025,-0.0132787,-2.50607,
2026_06_26_17_10_31.684,3.873,43.4,0,0.768,0,0,0,0, ,0,0,0,0,0, ,795,2.3,595.2,-1.1,-1.5,-3.1,25,796.212,-12.317,593.494,-0.230053,-0.0795007,-2.54226,
2026_06_26_17_10_31.705,3.873,43.3,0,0.768,0,0,0,0, ,0,0,0,0,0, ,796,-19.7,588.2,0.1,-1.3,-3.3,25,796.168,-12.0966,593.385,-0.246503,-0.159969,-2.58234,
2026_06_26_17_10_31.725,3.873,43.3,0,0.769,0,0,0,0, ,0,0,0,0,0, ,796.7,-9.2,586,0.6,0.1,-3.3,25,796.179,-12.24,593.002,-0.210154,-0.186783,-2.62607,
2026_06_26_17_10_31.744,3.873,43.3,0,0.768,0,0,0,0, ,0,0,0,0,0, ,794,2.4,590.3,0.6,1,-3.1,25,796.129,-11.7013,592.706,-0.160785,-0.141885,-2.66105,
2026_06_26_17_10_31.764,3.873,43.3,0,0.77,0,0,0,0, ,0,0,0,0,0, ,796.2,-1.4,594.4,0.4,1.3,-2.5,25,796.066,-10.9578,592.685,-0.120518,-0.0631611,-2.66951,
2026_06_26_17_10_31.784,3.873,43.3,0,0.768,0,0,0,0, ,0,0,0,0,0, ,792.1,3.9,599.1,1.8,1.2,-2.6,25,795.949,-10.2139,592.932,-0.046143,0.0168597,-2.66223,
2026_06_26_17_10_31.803,3.873,43.4,0,0.769,0,0,0,0, ,0,0,0,0,0, ,793.8,-0.4,601.1,0,0.4,-1.6,25,795.767,-9.48485,593.369,0.0115126,0.0645823,-2.62797,
2026_06_26_17_10_31.823,3.873,43.3,0,0.768,0,0,0,0, ,0,0,0,0,0, ,792.2,-2.4,598,-0.4,-0.2,-1.2,25,795.598,-8.99218,593.746,-0.00137646,0.0667405,-2.55314,
2026_06_26_17_10_31.843,3.873,43.3,0,0.768,0,0,0,0, ,0,0,0,0,0, ,792.7,-2.1,598,-0.5,-0.4,-1.4,25,795.406,-8.58133,594.005,-0.0287145,0.0443923,-2.47678,
2026_06_26_17_10_31.863,3.873,43.3,0,0.77,0,0,0,0, ,0,0,0,0,0, ,792.1,-5,598.8,-0.5,-0.4,-1.4,25,795.223,-8.27473,594.273,-0.0574334,0.0173121,-2.41116,
2026_06_26_17_10_31.882,3.873,43.3,0,0.771,0,0,0,0, ,0,0,0,0,0, ,793.8,-5.9,598.8,-0.5,-0.7,-1.6,25,795.084,-8.1026,594.549,-0.0844023,-0.0172584,-2.35564,
2026_06_26_17_10_31.903,3.873,43.3,0,0.768,0,0,0,0, ,0,0,0,0,0, ,794,-3.4,595.2,-0.4,-0.7,-1.6,25,795.012,-7.89221,594.698,-0.106681,-0.058863,-2.30959,
2026_06_26_17_10_31.922,3.873,43.3,0,0.77,0,0,0,0, ,0,0,0,0,0, ,793.4,-1.8,595.5,-0.4,-0.4,-1.6,25,794.932,-7.56971,594.738,-0.124555,-0.0887917,-2.26635,
2026_06_26_17_10_31.942,3.873,43.3,0,0.769,0,0,0,0, ,0,0,0,0,0, ,793.3,-4.5,597.6,-0.5,-0.5,-1.4,25,794.836,-7.30039,594.848,-0.144387,-0.110803,-2.21965,
2026_06_26_17_10_31.961,3.873,43.3,0,0.769,0,0,0,0, ,0,0,0,0,0, ,794,-4.1,594.6,-0.2,-0.3,-1.6,25,794.764,-7.11755,594.925,-0.156916,-0.128426,-2.1758,
2026_06_26_17_10_31.981,3.873,43.3,0,0.77,0,0,0,0, ,0,0,0,0,0, ,794.9,-4.6,595.7,-0.1,0,-2,25,794.744,-6.9489,594.938,-0.156495,-0.12974,-2.1529,
2026_06_26_17_10_32.001,3.873,43.3,0,0.769,0,0,0,0, ,0,0,0,0,0, ,793,-3,595.9,-0.1,0.2,-2,25,794.696,-6.75702,594.991,-0.153052,-0.115741,-2.14358,
2026_06_26_17_10_32.021,3.873,43.2,0,0.769,0,0,0,0, ,0,0,0,0,0, ,793.7,-4.5,595.3,0,0.2,-2,25,794.614,-6.57378,595.028,-0.146773,-0.0965002,-2.13483,
2026_06_26_17_10_32.040,3.873,43.2,0,0.768,0,0,0,0, ,0,0,0,0,0, ,792.3,-3.4,598.8,0,0.1,-1.9,25,794.516,-6.41389,595.151,-0.137829,-0.0814791,-2.12357,
2026_06_26_17_10_32.062,3.873,43.2,0,0.768,0,0,0,0, ,0,0,0,0,0, ,793.7,-1,597.5,-0.4,-0.6,-2,25,794.423,-6.15711,595.334,-0.141617,-0.0917483,-2.11299,
2026_06_26_17_10_32.080,3.873,43.3,0,0.769,0,0,0,0, ,0,0,0,0,0, ,792.7,-2.4,598.2,-0.7,-0.7,-1.7,25,794.349,-5.8855,595.487,-0.166503,-0.125767,-2.09696,
2026_06_26_17_10_32.100,3.873,43.3,0,0.769,0,0,0,0, ,0,0,0,0,0, ,792.3,-2.4,598.7,-0.9,-0.7,-1.8,25,794.236,-5.6731,595.668,-0.205107,-0.160759,-2.07582,
2026_06_26_17_10_32.120,3.873,43.3,0,0.769,0,0,0,0, ,0,0,0,0,0, ,794.4,-4.1,596.6,-0.5,-0.8,-1.8,25,794.182,-5.52545,595.789,-0.235264,-0.196666,-2.05901,
2026_06_26_17_10_32.140,3.873,43.3,0,0.769,0,0,0,0, ,0,0,0,0,0, ,793.4,-2.8,595.5,-0.4,-0.4,-2,25,794.165,-5.39897,595.804,-0.24835,-0.221244,-2.04932,
2026_06_26_17_10_32.159,3.873,43.3,0,0.768,0,0,0,0, ,0,0,0,0,0, ,793.4,-1.2,598.2,-0.8,-0.4,-1.8,25,794.118,-5.19185,595.868,-0.269778,-0.232137,-2.04022,
2026_06_26_17_10_32.179,3.873,43.2,0,0.768,0,0,0,0, ,0,0,0,0,0, ,792.7,-2.4,595.8,-0.4,-0.7,-1.7,25,794.053,-4.98516,595.937,-0.289901,-0.251507,-2.02254,
2026_06_26_17_10_32.199,3.873,43.3,0,0.768,0,0,0,0, ,0,0,0,0,0, ,793,-3.5,595.9,-0.2,-0.5,-1.9,25,793.98,-4.86114,595.932,-0.290517,-0.272743,-2.00898,
2026_06_26_17_10_32.219,3.873,43.2,0,0.768,0,0,0,0, ,0,0,0,0,0, ,792.8,-2.1,596.8,-0.9,-0.8,-2.1,25,793.914,-4.73554,595.957,-0.306329,-0.295732,-2.00843,
2026_06_26_17_10_32.238,3.873,43.2,0,0.771,0,0,0,0, ,0,0,0,0,0, ,791.5,-3,599.7,-1.3,-1.4,-1.9,25,793.807,-4.60236,596.097,-0.354693,-0.344742,-2.00792,
2026_06_26_17_10_32.258,3.873,43.3,0,0.767,0,0,0,0, ,0,0,0,0,0, ,793.5,-3.2,594.3,-1.2,-1.3,-1.9,25,793.727,-4.51081,596.152,-0.409251,-0.406,-2.00134,
2026_06_26_17_10_32.278,3.873,43.3,0,0.77,0,0,0,0, ,0,0,0,0,0, ,794.4,-3,591,-0.6,-0.7,-1.9,25,793.741,-4.42484,595.939,-0.439156,-0.442197,-1.99517,
2026_06_26_17_10_32.298,3.873,43.3,0,0.769,0,0,0,0, ,0,0,0,0,0, ,793.7,-1.2,596.3,-0.2,-0.2,-1.7,25,793.759,-4.28317,595.799,-0.43677,-0.442673,-1.98327,
2026_06_26_17_10_32.318,3.873,43.3,0,0.769,0,0,0,0, ,0,0,0,0,0, ,792.9,-0.8,599.1,-0.6,-0.6,-1.4,25,793.731,-4.0831,595.915,-0.434529,-0.440072,-1.95687,
2026_06_26_17_10_32.338,3.873,43.1,0,0.771,0,0,0,0, ,0,0,0,0,0, ,792.2,-2.6,597.6,-0.8,-0.8,-1.3,25,793.659,-3.93788,596.063,-0.450706,-0.455912,-1.91989,
2026_06_26_17_10_32.358,3.873,43.2,0,0.771,0,0,0,0, ,0,0,0,0,0, ,793.8,-4.5,596.3,-0.8,-0.9,-1.4,25,793.619,-3.91424,596.117,-0.471991,-0.479926,-1.88516,
2026_06_26_17_10_32.377,3.873,43.1,0,0.769,0,0,0,0, ,0,0,0,0,0, ,794.6,-5.3,592.4,-0.1,-0.6,-1.6,25,793.655,-3.97431,596.01,-0.470651,-0.496384,-1.86169,
2026_06_26_17_10_32.397,3.873,43.2,0,0.769,0,0,0,0, ,0,0,0,0,0, ,793.5,-4.8,596.3,-0.4,-0.3,-1.8,25,793.679,-4.03986,595.909,-0.457205,-0.493557,-1.85184,
2026_06_26_17_10_32.416,3.873,43.2,0,0.768,0,0,0,0, ,0,0,0,0,0, ,794.4,-4.1,592.2,-0.4,-0.1,-2.2,25,793.695,-4.06485,595.808,-0.453719,-0.475669,-1.86087,
2026_06_26_17_10_32.436,3.873,43.2,0,0.769,0,0,0,0, ,0,0,0,0,0, ,793.5,-2.4,595.8,-0.4,0.1,-2.2,25,793.711,-4.0152,595.697,-0.450446,-0.446683,-1.88153,
2026_06_26_17_10_32.456,3.873,43.2,0,0.769,0,0,0,0, ,0,0,0,0,0, ,794,-2.4,591.3,-0.3,0.6,-2,25,793.713,-3.91677,595.567,-0.444325,-0.398135,-1.89484,
2026_06_26_17_10_32.476,3.873,43.2,0,0.768,0,0,0,0, ,0,0,0,0,0, ,794,-2.9,598.9,-0.1,0.9,-2,25,793.731,-3.83958,595.538,-0.429436,-0.32817,-1.90125,
2026_06_26_17_10_32.498,3.873,43.3,0,0.772,0,0,0,0, ,0,0,0,0,0, ,791,-1.4,602,-0.3,0.4,-1.8,25,793.656,-3.73662,595.837,-0.415455,-0.268563,-1.90118,
2026_06_26_17_10_32.515,3.873,43.2,0,0.769,0,0,0,0, ,0,0,0,0,0, ,793.2,-3.1,603,-0.5,0,-1.8,25,793.561,-3.64603,596.243,-0.414513,-0.24001,-1.89501,
2026_06_26_17_10_32.535,3.873,43.2,0,0.769,0,0,0,0, ,0,0,0,0,0, ,791.5,-3.9,599.2,-0.5,-0.7,-1.7,25,793.487,-3.63713,596.539,-0.419723,-0.246713,-1.88617,
2026_06_26_17_10_32.555,3.873,43.1,0,0.768,0,0,0,0, ,0,0,0,0,0, ,792.3,-2.3,598.9,-0.9,-1.1,-2,25,793.39,-3.6044,596.692,-0.436802,-0.286522,-1.88397,
2026_06_26_17_10_32.575,3.873,43.2,0,0.771,0,0,0,0, ,0,0,0,0,0, ,792.2,-3,598.3,-1.1,-1.2,-2.1,25,793.321,-3.54624,596.809,-0.471122,-0.33914,-1.89409,
2026_06_26_17_10_32.594,3.873,43.1,0,0.769,0,0,0,0, ,0,0,0,0,0, ,794,-2.3,594.9,-0.5,-1,-1.8,25,793.307,-3.49163,596.796,-0.491163,-0.385505,-1.89749,
2026_06_26_17_10_32.615,3.873,43.1,0,0.768,0,0,0,0, ,0,0,0,0,0, ,792.3,-3.5,595.3,-0.7,-0.6,-1.7,25,793.298,-3.45557,596.693,-0.497795,-0.410764,-1.88851,
2026_06_26_17_10_32.635,3.873,43.2,0,0.768,0,0,0,0, ,0,0,0,0,0, ,793.7,-3.4,594.6,-0.4,-0.3,-1.6,25,793.28,-3.45523,596.586,-0.500976,-0.413155,-1.87397,
2026_06_26_17_10_32.655,3.873,43.1,0,0.769,0,0,0,0, ,0,0,0,0,0, ,791.6,-2.9,598.6,-0.3,-0.3,-1.6,25,793.241,-3.43663,596.587,-0.491776,-0.406259,-1.85728,
2026_06_26_17_10_32.674,3.873,43.2,0,0.768,0,0,0,0, ,0,0,0,0,0, ,793.4,-3.4,596.6,-0.2,-0.3,-1.5,25,793.196,-3.41917,596.649,-0.477043,-0.399784,-1.83855,
2026_06_26_17_10_32.693,3.873,43.1,0,0.768,0,0,0,0, ,0,0,0,0,0, ,792.6,-2.3,599.9,-0.4,-0.4,-1.6,25,793.184,-3.38448,596.746,-0.466255,-0.39675,-1.82097,
2026_06_26_17_10_32.713,3.873,43.1,0,0.769,0,0,0,0, ,0,0,0,0,0, ,791.9,-2.5,601,-0.8,-1.2,-1.5,25,793.127,-3.32449,596.972,-0.474405,-0.421323,-1.80446,
2026_06_26_17_10_32.733,3.873,43.1,0,0.768,0,0,0,0, ,0,0,0,0,0, ,794.1,-4,595.8,-1,-1.6,-1.5,25,793.119,-3.31995,597.059,-0.500339,-0.480961,-1.7859,
2026_06_26_17_10_32.753,3.873,43.1,0,0.771,0,0,0,0, ,0,0,0,0,0, ,792.8,-5.1,595.8,-0.6,-1.4,-1.6,25,793.14,-3.39491,596.982,-0.5186,-0.543059,-1.77153,
2026_06_26_17_10_32.772,3.873,43.1,0,0.768,0,0,0,0, ,0,0,0,0,0, ,795.2,-2.6,589.3,-0.4,-0.8,-1.7,25,793.192,-3.42264,596.712,-0.517467,-0.576998,-1.76412,
2026_06_26_17_10_32.796,3.873,43.1,0,0.769,0,0,0,0, ,0,0,0,0,0, ,793.9,-2.5,592,-0.1,0,-1.7,25,793.275,-3.36946,596.343,-0.501168,-0.566212,-1.76022,
2026_06_26_17_10_32.812,3.873,43,0,0.768,0,0,0,0, ,0,0,0,0,0, ,792.9,-1.4,598.5,-0.3,0,-1.5,25,793.282,-3.28297,596.276,-0.482815,-0.531708,-1.75045,
2026_06_26_17_10_32.832,3.873,43.2,0,0.769,0,0,0,0, ,0,0,0,0,0, ,792.7,-4.6,599.4,-0.4,-0.3,-1.5,25,793.253,-3.26572,596.439,-0.474722,-0.508448,-1.73519,
2026_06_26_17_10_32.852,3.873,43.2,0,0.772,0,0,0,0, ,0,0,0,0,0, ,792.7,-4.3,597.1,-0.6,-0.9,-1.8,25,793.219,-3.33789,596.55,-0.476262,-0.514027,-1.73,
2026_06_26_17_10_32.871,3.873,43.1,0,0.767,0,0,0,0, ,0,0,0,0,0, ,793.7,-5.4,593.3,-0.4,-0.4,-2,25,793.218,-3.43003,596.467,-0.477709,-0.522313,-1.74036,
2026_06_26_17_10_32.891,3.873,43.1,0,0.768,0,0,0,0, ,0,0,0,0,0, ,793.2,-4.1,597.4,-0.1,0,-2,25,793.232,-3.51047,596.399,-0.463833,-0.502672,-1.75618,
2026_06_26_17_10_32.911,3.873,43.1,0,0.767,0,0,0,0, ,0,0,0,0,0, ,793.2,-5,597.4,-0.7,-0.4,-2,25,793.23,-3.57382,596.46,-0.459943,-0.484228,-1.77104,
2026_06_26_17_10_32.931,3.873,43.1,0,0.769,0,0,0,0, ,0,0,0,0,0, ,793.3,-3.7,596.1,-0.6,-0.4,-1.9,25,793.232,-3.62111,596.478,-0.471525,-0.479095,-1.78194,
2026_06_26_17_10_32.950,3.873,43,0,0.769,0,0,0,0, ,0,0,0,0,0, ,791.6,-2,596.8,-0.3,0,-1.7,25,793.184,-3.57412,596.476,-0.470213,-0.462088,-1.78304,
2026_06_26_17_10_32.970,3.873,43,0,0.769,0,0,0,0, ,0,0,0,0,0, ,792.1,-4.5,598.7,-0.3,-0.3,-1.7,25,793.103,-3.55437,596.554,-0.459841,-0.44307,-1.77798,
2026_06_26_17_10_32.990,3.873,43.1,0,0.769,0,0,0,0, ,0,0,0,0,0, ,793.3,-4,596.3,0,-0.1,-1.9,25,793.078,-3.59676,596.611,-0.44096,-0.428258,-1.77933,
2026_06_26_17_10_33.010,3.873,43.1,0,0.768,0,0,0,0, ,0,0,0,0,0, ,791.8,-1.9,598.2,-0.4,-0.2,-2,25,793.046,-3.55735,596.65,-0.426276,-0.411302,-1.78973,
2026_06_26_17_10_33.030,3.873,43.1,0,0.768,0,0,0,0, ,0,0,0,0,0, ,791.2,-1.3,598.2,-0.9,-0.5,-1.7,25,792.952,-3.43807,596.745,-0.439909,-0.407566,-1.7934,
2026_06_26_17_10_33.049,3.873,43.1,0,0.769,0,0,0,0, ,0,0,0,0,0, ,793.2,-4.6,596.6,-0.5,-0.5,-1.7,25,792.906,-3.40833,596.785,-0.455759,-0.413199,-1.78771,
2026_06_26_17_10_33.069,3.873,43.1,0,0.768,0,0,0,0, ,0,0,0,0,0, ,795.8,-3.7,592.1,0.2,0,-1.8,25,793.003,-3.45353,596.636,-0.437126,-0.403254,-1.78541,
2026_06_26_17_10_33.089,3.873,43.1,0,0.769,0,0,0,0, ,0,0,0,0,0, ,792.6,-2.6,599.1,0.3,0.5,-1.8,25,793.076,-3.43503,596.573,-0.395255,-0.363446,-1.7863,
2026_06_26_17_10_33.109,3.873,43.1,0,0.769,0,0,0,0, ,0,0,0,0,0, ,790.4,-1.2,605.5,-0.4,-0.1,-1.5,25,792.98,-3.34149,596.922,-0.374216,-0.329111,-1.77799,
2026_06_26_17_10_33.128,3.873,43.1,0,0.771,0,0,0,0, ,0,0,0,0,0, ,791.7,-2.8,604,-1.2,-1.1,-1.4,25,792.862,-3.25974,597.399,-0.400162,-0.345618,-1.75801,
2026_06_26_17_10_33.148,3.873,43,0,0.768,0,0,0,0, ,0,0,0,0,0, ,791.3,-3.6,601.4,-1.2,-1.6,-1.5,25,792.779,-3.2561,597.722,-0.448902,-0.406823,-1.73924,
2026_06_26_17_10_33.168,3.873,43.1,0,0.769,0,0,0,0, ,0,0,0,0,0, ,794,-3,596.3,-0.6,-1.8,-1.6,25,792.771,-3.25878,597.791,-0.476391,-0.485626,-1.72771,
2026_06_26_17_10_33.188,3.873,43,0,0.769,0,0,0,0, ,0,0,0,0,0, ,795.1,-3.7,592,-0.5,-1.1,-1.7,25,792.88,-3.26434,597.569,-0.480876,-0.544392,-1.72297,
2026_06_26_17_10_33.208,3.873,43,0,0.769,0,0,0,0, ,0,0,0,0,0, ,793.7,-2.3,595,-0.6,-0.7,-1.4,25,792.972,-3.24823,597.321,-0.485089,-0.566062,-1.71243,
2026_06_26_17_10_33.227,3.873,43,0,0.769,0,0,0,0, ,0,0,0,0,0, ,794.4,-4.2,595.5,-0.6,-0.5,-1.4,25,793.038,-3.24834,597.195,-0.492091,-0.56813,-1.69339,
2026_06_26_17_10_33.248,3.873,43,0,0.769,0,0,0,0, ,0,0,0,0,0, ,792.9,-4.7,595.5,-0.2,0,-1.6,25,793.075,-3.32156,597.092,-0.486479,-0.548744,-1.68161,
2026_06_26_17_10_33.268,3.873,43.1,0,0.769,0,0,0,0, ,0,0,0,0,0, ,792.9,-3.6,598.3,0,-0.1,-1.7,25,793.065,-3.37205,597.08,-0.462928,-0.518352,-1.67968,
2026_06_26_17_10_33.287,3.873,43,0,0.768,0,0,0,0, ,0,0,0,0,0, ,792.3,-3,599.1,-0.5,-0.2,-1.8,25,793.036,-3.36766,597.179,-0.449953,-0.495906,-1.68397,
2026_06_26_17_10_33.307,3.873,43,0,0.769,0,0,0,0, ,0,0,0,0,0, ,793.4,-4.3,594.1,-0.7,-0.1,-1.8,25,793.025,-3.38486,597.143,-0.459096,-0.474827,-1.69104,
2026_06_26_17_10_33.326,3.873,43.1,0,0.769,0,0,0,0, ,0,0,0,0,0, ,793.4,-5.1,596.1,-0.1,0.1,-2,25,793.048,-3.465,597.019,-0.455495,-0.445892,-1.70377,
2026_06_26_17_10_33.346,3.873,43,0,0.769,0,0,0,0, ,0,0,0,0,0, ,792.3,-3.2,596,0.2,0.6,-1.9,25,793.036,-3.50674,596.96,-0.424692,-0.397393,-1.71877,
2026_06_26_17_10_33.366,3.873,43,0,0.771,0,0,0,0, ,0,0,0,0,0, ,791.3,-1.7,600.8,0.1,0.5,-1.7,25,792.961,-3.44235,597.048,-0.389671,-0.339661,-1.72372,
2026_06_26_17_10_33.389,3.873,43,0,0.768,0,0,0,0, ,0,0,0,0,0, ,791,-2.3,604.4,-0.4,-0.2,-1.8,25,792.85,-3.35446,597.386,-0.375066,-0.309822,-1.72533,
2026_06_26_17_10_33.406,3.873,43,0,0.767,0,0,0,0, ,0,0,0,0,0, ,792.2,-2.5,598.2,-0.7,-0.7,-1.8,25,792.774,-3.29629,597.624,-0.385726,-0.318364,-1.72988,
2026_06_26_17_10_33.425,3.873,43,0,0.769,0,0,0,0, ,0,0,0,0,0, ,791.8,-5.1,598.5,-0.9,-0.7,-1.8,25,792.727,-3.32699,597.669,-0.410971,-0.34162,-1.73415,
2026_06_26_17_10_33.445,3.873,43,0,0.769,0,0,0,0, ,0,0,0,0,0, ,791.8,-3.7,597.2,-0.6,-0.7,-2.1,25,792.67,-3.39237,597.68,-0.431631,-0.363459,-1.7473,
2026_06_26_17_10_33.465,3.873,43,0,0.768,0,0,0,0, ,0,0,0,0,0, ,793.2,-3,597.4,-0.3,-0.4,-2.1,25,792.66,-3.38979,597.657,-0.43275,-0.374826,-1.76879,
2026_06_26_17_10_33.485,3.873,43,0,0.769,0,0,0,0, ,0,0,0,0,0, ,792.4,-1.2,596.9,-0.5,0,-2.1,25,792.669,-3.3112,597.626,-0.430754,-0.364173,-1.78898,
2026_06_26_17_10_33.505,3.873,43,0,0.769,0,0,0,0, ,0,0,0,0,0, ,792.1,-5,598,-0.4,0,-2.1,25,792.643,-3.29833,597.615,-0.431927,-0.341981,-1.80793,
2026_06_26_17_10_33.524,3.873,42.9,0,0.769,0,0,0,0, ,0,0,0,0,0, ,791.6,-4.1,595.4,-0.2,0.4,-2,25,792.595,-3.3746,597.559,-0.423888,-0.308954,-1.82268,
2026_06_26_17_10_33.544,3.873,42.9,0,0.768,0,0,0,0, ,0,0,0,0,0, ,791.3,-1.5,601,-0.1,0.4,-2,25,792.525,-3.33959,597.598,-0.407198,-0.265752,-1.83349,
2026_06_26_17_10_33.564,3.873,43,0,0.768,0,0,0,0, ,0,0,0,0,0, ,791.2,-0.7,605.2,-0.4,-0.4,-1.8,25,792.447,-3.20311,597.934,-0.397619,-0.249558,-1.83754,
2026_06_26_17_10_33.584,3.873,42.9,0,0.771,0,0,0,0, ,0,0,0,0,0, ,792.3,-3,597.2,-0.4,-0.6,-1.6,25,792.405,-3.12066,598.133,-0.397764,-0.264819,-1.82916,
2026_06_26_17_10_33.603,3.873,43,0,0.771,0,0,0,0, ,0,0,0,0,0, ,791.6,-0.9,603.3,-0.5,-0.9,-1.5,25,792.377,-3.04932,598.262,-0.400947,-0.294385,-1.81215,
2026_06_26_17_10_33.623,3.873,43,0,0.769,0,0,0,0, ,0,0,0,0,0, ,792.7,-3.1,597.7,-0.8,-1.2,-1.6,25,792.363,-2.98538,598.398,-0.416124,-0.34043,-1.79617,
2026_06_26_17_10_33.643,3.873,43,0,0.771,0,0,0,0, ,0,0,0,0,0, ,792.4,-4,597.5,-0.4,-0.8,-1.5,25,792.375,-3.01978,598.349,-0.427328,-0.380623,-1.78117,
2026_06_26_17_10_33.663,3.873,42.9,0,0.768,0,0,0,0, ,0,0,0,0,0, ,793.8,-3.7,594.3,-0.2,-0.3,-1.6,25,792.419,-3.07037,598.2,-0.419569,-0.390944,-1.76708,
2026_06_26_17_10_33.683,3.873,43,0,0.769,0,0,0,0, ,0,0,0,0,0, ,792.1,-2,600.7,0,0,-1.7,25,792.451,-3.05694,598.157,-0.400096,-0.376262,-1.75995,
2026_06_26_17_10_33.702,3.873,43,0,0.769,0,0,0,0, ,0,0,0,0,0, ,792.9,-2.6,598,-0.1,-0.2,-1.7,25,792.454,-3.01082,598.23,-0.378762,-0.359427,-1.7563,
2026_06_26_17_10_33.722,3.873,42.9,0,0.769,0,0,0,0, ,0,0,0,0,0, ,791.8,-3.2,600.4,-0.3,-0.3,-1.7,25,792.448,-3.00407,598.289,-0.367868,-0.352759,-1.75287,
2026_06_26_17_10_33.743,3.873,42.9,0,0.769,0,0,0,0, ,0,0,0,0,0, ,791.3,-3.4,600.7,-0.5,-0.3,-1.8,25,792.393,-3.0221,598.427,-0.369826,-0.349544,-1.75269,
2026_06_26_17_10_33.762,3.873,42.9,0,0.769,0,0,0,0, ,0,0,0,0,0, ,791.5,-3.1,600.7,-0.5,-0.5,-1.9,25,792.333,-3.03599,598.566,-0.377759,-0.352618,-1.75862,
2026_06_26_17_10_33.782,3.873,42.9,0,0.769,0,0,0,0, ,0,0,0,0,0, ,791.6,-3.5,598.7,-0.4,-0.5,-2.1,25,792.285,-3.05208,598.635,-0.382161,-0.361599,-1.77333,
2026_06_26_17_10_33.801,3.873,42.9,0,0.769,0,0,0,0, ,0,0,0,0,0, ,791.2,-2.4,599.4,-0.3,-0.3,-2.2,25,792.231,-3.04585,598.66,-0.380201,-0.36394,-1.79628,
2026_06_26_17_10_33.822,3.873,42.9,0,0.768,0,0,0,0, ,0,0,0,0,0, ,792.7,0.1,597.6,-0.2,-0.1,-1.9,25,792.214,-2.93033,598.65,-0.372267,-0.353949,-1.81174,
2026_06_26_17_10_33.841,3.873,42.9,0,0.769,0,0,0,0, ,0,0,0,0,0, ,791.3,-1.4,603.2,-0.4,0,-1.6,25,792.201,-2.79137,598.757,-0.367863,-0.335428,-1.80798,
2026_06_26_17_10_33.861,3.873,42.9,0,0.768,0,0,0,0, ,0,0,0,0,0, ,792.2,-2.9,601,-0.6,-0.4,-1.7,25,792.173,-2.75229,598.961,-0.375915,-0.327175,-1.79835,
2026_06_26_17_10_33.880,3.873,42.8,0,0.768,0,0,0,0, ,0,0,0,0,0, ,791,-2.1,598.1,-0.5,-0.5,-1.8,25,792.138,-2.73691,598.996,-0.386524,-0.33466,-1.79541,
2026_06_26_17_10_33.901,3.873,42.9,0,0.769,0,0,0,0, ,0,0,0,0,0, ,791.1,-2,599.9,-0.4,-0.3,-1.9,25,792.072,-2.69505,598.997,-0.390392,-0.338641,-1.79873,
2026_06_26_17_10_33.920,3.873,42.9,0,0.77,0,0,0,0, ,0,0,0,0,0, ,790.7,-1.5,598.8,-0.6,-0.5,-1.8,25,792.001,-2.63746,599.018,-0.397071,-0.34238,-1.80186,
2026_06_26_17_10_33.940,3.873,42.9,0,0.769,0,0,0,0, ,0,0,0,0,0, ,792.2,-3.9,595.4,-0.4,-0.5,-1.8,25,791.967,-2.64127,598.901,-0.403343,-0.351985,-1.80175,
2026_06_26_17_10_33.960,3.873,42.9,0,0.771,0,0,0,0, ,0,0,0,0,0, ,793.2,-2.9,595.2,0,0.4,-2,25,792.012,-2.68751,598.682,-0.390952,-0.333583,-1.80773,
2026_06_26_17_10_33.979,3.873,42.9,0,0.769,0,0,0,0, ,0,0,0,0,0, ,790,0.3,602.9,0,0.6,-1.8,25,791.987,-2.60296,598.704,-0.367128,-0.282787,-1.81336,
2026_06_26_17_10_33.999,3.873,42.9,0,0.768,0,0,0,0, ,0,0,0,0,0, ,789.9,-0.3,606,-0.6,-0.5,-1.6,25,791.863,-2.44434,599.054,-0.363038,-0.262507,-1.80645,
2026_06_26_17_10_34.019,3.873,42.9,0,0.769,0,0,0,0, ,0,0,0,0,0, ,789,-2,602.7,-1,-1.3,-1.5,25,791.716,-2.36547,599.377,-0.389665,-0.301355,-1.79082,
2026_06_26_17_10_34.038,3.873,42.8,0,0.769,0,0,0,0, ,0,0,0,0,0, ,790.5,-2.9,600.4,-1,-1.7,-1.6,25,791.596,-2.37062,599.51,-0.426857,-0.374397,-1.77615,
2026_06_26_17_10_34.058,3.873,42.9,0,0.769,0,0,0,0, ,0,0,0,0,0, ,791,-2.8,598.5,-0.9,-1.6,-1.6,25,791.544,-2.39983,599.506,-0.458736,-0.452129,-1.76541,
2026_06_26_17_10_34.079,3.873,42.8,0,0.772,0,0,0,0, ,0,0,0,0,0, ,791.8,-2.8,597.5,-0.8,-1.4,-1.6,25,791.535,-2.42422,599.414,-0.482579,-0.515984,-1.75533,
2026_06_26_17_10_34.098,3.873,42.9,0,0.769,0,0,0,0, ,0,0,0,0,0, ,792.4,-2.3,594.9,-0.7,-1,-1.6,25,791.57,-2.43188,599.218,-0.498875,-0.557666,-1.74587,
2026_06_26_17_10_34.118,3.873,42.9,0,0.769,0,0,0,0, ,0,0,0,0,0, ,791.3,-2.9,596.6,-0.6,-0.6,-1.7,25,791.587,-2.44213,599.007,-0.508084,-0.572433,-1.74002,
2026_06_26_17_10_34.138,3.873,42.9,0,0.77,0,0,0,0, ,0,0,0,0,0, ,792.1,-4,594.1,-0.4,-0.2,-1.7,25,791.594,-2.50354,598.784,-0.507592,-0.561926,-1.73759,
2026_06_26_17_10_34.158,3.873,42.9,0,0.767,0,0,0,0, ,0,0,0,0,0, ,791.7,-2.9,599.4,-0.3,0,-1.9,25,791.612,-2.56122,598.66,-0.497988,-0.533777,-1.74139,
2026_06_26_17_10_34.177,3.873,42.9,0,0.769,0,0,0,0, ,0,0,0,0,0, ,791.7,-3.1,599.2,-0.8,-0.3,-2,25,791.618,-2.58796,598.699,-0.501158,-0.510391,-1.7541,
2026_06_26_17_10_34.197,3.873,42.8,0,0.771,0,0,0,0, ,0,0,0,0,0, ,792.6,-4.3,597,-0.7,-0.3,-2,25,791.65,-2.65572,598.663,-0.516322,-0.49757,-1.76909,
2026_06_26_17_10_34.217,3.873,42.8,0,0.767,0,0,0,0, ,0,0,0,0,0, ,791.6,-2.6,597.9,-0.3,-0.1,-1.8,25,791.678,-2.70412,598.589,-0.515327,-0.479437,-1.77706,
2026_06_26_17_10_34.237,3.873,42.9,0,0.769,0,0,0,0, ,0,0,0,0,0, ,790.6,-2.4,597.7,0,0,-1.8,25,791.642,-2.69168,598.541,-0.493065,-0.453268,-1.77846,
2026_06_26_17_10_34.257,3.873,42.9,0,0.769,0,0,0,0, ,0,0,0,0,0, ,790.7,-1.2,599.2,-0.3,0,-1.8,25,791.582,-2.63735,598.535,-0.472159,-0.425647,-1.77977,
2026_06_26_17_10_34.276,3.873,42.8,0,0.768,0,0,0,0, ,0,0,0,0,0, ,790.1,-0.4,603.1,-0.6,-0.6,-1.5,25,791.51,-2.52538,598.694,-0.470809,-0.41799,-1.77187,
2026_06_26_17_10_34.296,3.873,42.8,0,0.771,0,0,0,0, ,0,0,0,0,0, ,792.2,-3.7,598,-0.5,-0.9,-1.6,25,791.488,-2.49641,598.808,-0.475635,-0.438222,-1.75835,
2026_06_26_17_10_34.316,3.873,42.9,0,0.769,0,0,0,0, ,0,0,0,0,0, ,792.1,-3.9,597.2,-0.6,-0.7,-1.8,25,791.528,-2.57585,598.734,-0.480166,-0.460268,-1.75479,
2026_06_26_17_10_34.336,3.873,42.8,0,0.77,0,0,0,0, ,0,0,0,0,0, ,791.1,-3.1,599.9,-0.9,-0.6,-2,25,791.533,-2.63217,598.723,-0.496609,-0.47183,-1.76364,
2026_06_26_17_10_34.355,3.873,42.9,0,0.77,0,0,0,0, ,0,0,0,0,0, ,792.3,-4.2,596.3,-0.5,-0.4,-2,25,791.543,-2.69419,598.685,-0.509003,-0.473546,-1.77804,
2026_06_26_17_10_34.375,3.873,42.8,0,0.767,0,0,0,0, ,0,0,0,0,0, ,791.6,-4.1,596.8,-0.1,0.1,-2.1,25,791.568,-2.7829,598.555,-0.496267,-0.45383,-1.79461,
2026_06_26_17_10_34.394,3.873,42.9,0,0.769,0,0,0,0, ,0,0,0,0,0, ,792.8,-2.6,599.2,0,0.3,-2,25,791.606,-2.81746,598.521,-0.469073,-0.413988,-1.81018,
2026_06_26_17_10_34.415,3.873,42.8,0,0.769,0,0,0,0, ,0,0,0,0,0, ,790.7,-0.8,600.3,-0.2,0.3,-1.8,25,791.615,-2.74937,598.596,-0.446583,-0.370479,-1.81565,
2026_06_26_17_10_34.435,3.873,42.9,0,0.769,0,0,0,0, ,0,0,0,0,0, ,789.6,-1.5,603.2,-0.4,-0.2,-1.7,25,791.526,-2.65191,598.788,-0.43765,-0.344856,-1.81165,
2026_06_26_17_10_34.454,3.873,42.8,0,0.769,0,0,0,0, ,0,0,0,0,0, ,792.1,-2.3,600.8,-0.5,-0.4,-1.7,25,791.485,-2.60609,598.984,-0.438403,-0.342123,-1.80485,
2026_06_26_17_10_34.474,3.873,42.8,0,0.769,0,0,0,0, ,0,0,0,0,0, ,790.1,-2.1,603.5,-0.4,-0.8,-1.6,25,791.461,-2.58134,599.177,-0.439109,-0.357837,-1.79541,
2026_06_26_17_10_34.494,3.873,42.7,0,0.769,0,0,0,0, ,0,0,0,0,0, ,789.6,0,600,-0.9,-0.9,-1.6,25,791.363,-2.48802,599.334,-0.451961,-0.387828,-1.7835,
2026_06_26_17_10_34.518,3.873,42.8,0,0.769,0,0,0,0, ,0,0,0,0,0, ,790.6,-3.2,600.4,-0.7,-1.2,-1.5,25,791.286,-2.43391,599.386,-0.473169,-0.428179,-1.76927,
2026_06_26_17_10_34.534,3.873,42.8,0,0.769,0,0,0,0, ,0,0,0,0,0, ,791,-2.3,596.9,-0.7,-1.3,-1.4,25,791.256,-2.45317,599.341,-0.486992,-0.478259,-1.74982,
2026_06_26_17_10_34.553,3.873,42.8,0,0.77,0,0,0,0, ,0,0,0,0,0, ,792.2,-2.8,597,-0.7,-1.1,-1.5,25,791.277,-2.45907,599.196,-0.499972,-0.52224,-1.73155,
2026_06_26_17_10_34.573,3.873,42.8,0,0.769,0,0,0,0, ,0,0,0,0,0, ,793.7,-5.2,595.8,-0.7,-0.9,-1.6,25,791.379,-2.55297,599.025,-0.512161,-0.551354,-1.72048,
2026_06_26_17_10_34.593,3.873,42.9,0,0.769,0,0,0,0, ,0,0,0,0,0, ,793.3,-4.1,596,-0.3,-0.3,-1.7,25,791.508,-2.68076,598.835,-0.51142,-0.554318,-1.71619,
2026_06_26_17_10_34.613,3.873,42.8,0,0.769,0,0,0,0, ,0,0,0,0,0, ,791.2,-3,599.4,-0.4,-0.2,-1.8,25,791.554,-2.73373,598.766,-0.501584,-0.535774,-1.71825,
2026_06_26_17_10_34.633,3.873,42.8,0,0.769,0,0,0,0, ,0,0,0,0,0, ,791.1,-3.7,599.3,-0.4,-0.3,-1.8,25,791.529,-2.77128,598.801,-0.495393,-0.518359,-1.72323,
2026_06_26_17_10_34.652,3.873,42.8,0,0.769,0,0,0,0, ,0,0,0,0,0, ,791.2,-3.2,600.4,-0.4,-0.5,-1.9,25,791.506,-2.81264,598.865,-0.48958,-0.511147,-1.73096,
2026_06_26_17_10_34.676,3.873,42.8,0,0.769,0,0,0,0, ,0,0,0,0,0, ,791.2,-3.1,598.6,-0.5,-0.4,-2,25,791.487,-2.8332,598.904,-0.487168,-0.507421,-1.7443,
2026_06_26_17_10_34.692,3.873,42.7,0,0.767,0,0,0,0, ,0,0,0,0,0, ,792.2,-3.1,596.5,-0.4,-0.3,-1.9,25,791.5,-2.84946,598.821,-0.484903,-0.497828,-1.75684,
2026_06_26_17_10_34.712,3.873,42.7,0,0.769,0,0,0,0, ,0,0,0,0,0, ,791.9,-2.5,600.2,-0.5,-0.3,-1.8,25,791.534,-2.84644,598.793,-0.482776,-0.485773,-1.76252,
2026_06_26_17_10_34.731,3.873,42.8,0,0.769,0,0,0,0, ,0,0,0,0,0, ,791.8,-2.5,598.7,-0.6,-0.3,-1.6,25,791.553,-2.82533,598.833,-0.486873,-0.474452,-1.75871,
2026_06_26_17_10_34.751,3.873,42.7,0,0.769,0,0,0,0, ,0,0,0,0,0, ,790.8,-3.9,599.2,-0.4,-0.4,-1.6,25,791.538,-2.84816,598.84,-0.487673,-0.466868,-1.74904,
2026_06_26_17_10_34.770,3.873,42.7,0,0.769,0,0,0,0, ,0,0,0,0,0, ,791.7,-2.4,599.4,-0.1,-0.6,-1.8,25,791.52,-2.86656,598.868,-0.47319,-0.468887,-1.74605,
2026_06_26_17_10_34.791,3.873,42.7,0,0.769,0,0,0,0, ,0,0,0,0,0, ,791.3,-3.6,599.9,-0.2,-0.6,-1.8,25,791.519,-2.87469,598.916,-0.453495,-0.476877,-1.74933,
2026_06_26_17_10_34.810,3.873,42.8,0,0.769,0,0,0,0, ,0,0,0,0,0, ,790.7,-1.8,599.2,-0.9,-0.6,-1.8,25,791.487,-2.86404,598.954,-0.459376,-0.48438,-1.75242,
2026_06_26_17_10_34.830,3.873,42.7,0,0.77,0,0,0,0, ,0,0,0,0,0, ,791.9,-1.8,598.9,-0.8,-0.6,-1.8,25,791.476,-2.7992,598.96,-0.48318,-0.491425,-1.75532,
2026_06_26_17_10_34.853,3.873,42.8,0,0.769,0,0,0,0, ,0,0,0,0,0, ,792.4,-3.7,595.3,-0.1,0,-1.9,25,791.517,-2.79621,598.847,-0.481158,-0.47976,-1.76109,
2026_06_26_17_10_34.869,3.873,42.8,0,0.77,0,0,0,0, ,0,0,0,0,0, ,791.1,-1.7,597.4,0,0.6,-2,25,791.531,-2.79034,598.695,-0.454884,-0.432244,-1.7726,
2026_06_26_17_10_34.889,3.873,42.8,0,0.769,0,0,0,0, ,0,0,0,0,0, ,790,-0.4,605.3,-0.4,0.1,-1.8,25,791.471,-2.68429,598.856,-0.439352,-0.384576,-1.78037,
2026_06_26_17_10_34.910,3.873,42.7,0,0.77,0,0,0,0, ,0,0,0,0,0, ,788,-0.6,607.6,-1.6,-1.5,-1.6,25,791.321,-2.55119,599.319,-0.473517,-0.403797,-1.77547,
2026_06_26_17_10_34.929,3.873,42.7,0,0.769,0,0,0,0, ,0,0,0,0,0, ,791,-3.1,602.7,-1.9,-2.7,-1.5,25,791.21,-2.50846,599.674,-0.551302,-0.507159,-1.76173,
2026_06_26_17_10_34.949,3.873,42.7,0,0.768,0,0,0,0, ,0,0,0,0,0, ,790.4,-3.6,598.2,-1.5,-2.8,-1.6,25,791.179,-2.55974,599.722,-0.621301,-0.643832,-1.74883,
2026_06_26_17_10_34.969,3.873,42.6,0,0.77,0,0,0,0, ,0,0,0,0,0, ,793.3,-3.1,594.4,-1.2,-2.5,-1.6,25,791.22,-2.6079,599.513,-0.665706,-0.766083,-1.73976,
2026_06_26_17_10_34.988,3.873,42.7,0,0.769,0,0,0,0, ,0,0,0,0,0, ,794.4,-3.7,592.7,-1,-1.9,-1.4,25,791.38,-2.65616,599.15,-0.692171,-0.853463,-1.72515,
2026_06_26_17_10_35.008,3.873,42.8,0,0.769,0,0,0,0, ,0,0,0,0,0, ,793.9,-3.7,592.5,-0.9,-1,-1.4,25,791.549,-2.71977,598.751,-0.707882,-0.889814,-1.70533,
2026_06_26_17_10_35.028,3.873,42.7,0,0.77,0,0,0,0, ,0,0,0,0,0, ,794,-5.8,592,-0.3,-0.1,-1.5,25,791.695,-2.84349,598.355,-0.701308,-0.869107,-1.68977,
2026_06_26_17_10_35.048,3.873,42.7,0,0.771,0,0,0,0, ,0,0,0,0,0, ,792.8,-5.9,597.9,-0.1,0.3,-1.7,25,791.799,-3.0267,598.147,-0.67076,-0.810052,-1.6843,
2026_06_26_17_10_35.068,3.873,42.7,0,0.769,0,0,0,0, ,0,0,0,0,0, ,791.8,-4.8,599.7,-0.3,0,-1.9,25,791.829,-3.16828,598.187,-0.642073,-0.751549,-1.69135,
2026_06_26_17_10_35.087,3.873,42.7,0,0.767,0,0,0,0, ,0,0,0,0,0, ,791.6,-4.8,596.8,-0.3,-0.3,-2,25,791.822,-3.26771,598.191,-0.621228,-0.714892,-1.70712,
2026_06_26_17_10_35.107,3.873,42.7,0,0.769,0,0,0,0, ,0,0,0,0,0, ,792.6,-2.8,597.6,-0.2,-0.5,-2,25,791.839,-3.30014,598.13,-0.598606,-0.695703,-1.72496,
2026_06_26_17_10_35.127,3.873,42.7,0,0.769,0,0,0,0, ,0,0,0,0,0, ,792.6,-2.1,595.9,-0.1,-0.2,-2,25,791.885,-3.24834,598.046,-0.571269,-0.674637,-1.74172,
2026_06_26_17_10_35.146,3.873,42.7,0,0.769,0,0,0,0, ,0,0,0,0,0, ,791.3,-1.3,597.4,-0.3,-0.3,-1.8,25,791.889,-3.15399,597.961,-0.548645,-0.64876,-1.75137,
2026_06_26_17_10_35.166,3.873,42.7,0,0.769,0,0,0,0, ,0,0,0,0,0, ,791.6,-3.2,598.8,-0.3,-0.3,-1.7,25,791.862,-3.0989,597.97,-0.533493,-0.627508,-1.75128,
2026_06_26_17_10_35.192,3.873,42.7,0,0.77,0,0,0,0, ,0,0,0,0,0, ,792.8,-3,597.5,-0.4,-0.5,-1.5,25,791.883,-3.09897,597.981,-0.522312,-0.613644,-1.74207,
2026_06_26_17_10_35.206,3.873,42.6,0,0.769,0,0,0,0, ,0,0,0,0,0, ,792.2,-3.6,599.9,-0.4,-0.5,-1.6,25,791.92,-3.11122,598.024,-0.514858,-0.606719,-1.73036,
2026_06_26_17_10_35.226,3.873,42.6,0,0.767,0,0,0,0, ,0,0,0,0,0, ,791.8,-5.4,596.6,-0.4,-0.5,-1.8,25,791.925,-3.19585,598.038,-0.507859,-0.600216,-1.72851,
2026_06_26_17_10_35.245,3.873,42.7,0,0.767,0,0,0,0, ,0,0,0,0,0, ,793,-4.6,594.9,-0.4,-0.2,-2.1,25,791.954,-3.30579,597.899,-0.501286,-0.584968,-1.74201,
2026_06_26_17_10_35.265,3.873,42.7,0,0.767,0,0,0,0, ,0,0,0,0,0, ,792.7,-4.6,593.8,-0.8,0.2,-2.4,25,792.009,-3.38465,597.683,-0.507302,-0.549322,-1.77296,
2026_06_26_17_10_35.284,3.873,42.7,0,0.769,0,0,0,0, ,0,0,0,0,0, ,793.3,-2.9,595.7,-0.6,0.7,-2.3,25,792.069,-3.40692,597.504,-0.519044,-0.488426,-1.80813,
2026_06_26_17_10_35.305,3.873,42.7,0,0.77,0,0,0,0, ,0,0,0,0,0, ,791.8,-2,600.5,-0.3,0.7,-2.2,25,792.098,-3.3486,597.54,-0.514837,-0.416006,-1.83505,
2026_06_26_17_10_35.324,3.873,42.6,0,0.77,0,0,0,0, ,0,0,0,0,0, ,791,-3.1,601.3,-0.4,0.4,-1.8,25,792.056,-3.29994,597.745,-0.504792,-0.35714,-1.84511,
2026_06_26_17_10_35.344,3.873,42.6,0,0.77,0,0,0,0, ,0,0,0,0,0, ,791,-0.4,602.4,-0.8,-0.4,-1.7,25,791.992,-3.20549,597.995,-0.510594,-0.335377,-1.83931,
2026_06_26_17_10_35.364,3.873,42.7,0,0.77,0,0,0,0, ,0,0,0,0,0, ,791.1,-2.9,603.3,-0.6,-0.6,-1.4,25,791.934,-3.1107,598.291,-0.522136,-0.345408,-1.82168,
2026_06_26_17_10_35.384,3.873,42.7,0,0.769,0,0,0,0, ,0,0,0,0,0, ,793,-4.2,599.7,-0.5,-1.1,-1.5,25,791.941,-3.13747,598.486,-0.523834,-0.376157,-1.79903,
2026_06_26_17_10_35.404,3.873,42.7,0,0.77,0,0,0,0, ,0,0,0,0,0, ,791.5,-3.2,603.1,-0.6,-1.3,-1.4,25,791.96,-3.17175,598.664,-0.525428,-0.42636,-1.77776,
2026_06_26_17_10_35.423,3.873,42.6,0,0.77,0,0,0,0, ,0,0,0,0,0, ,792.3,-4.7,595.9,-0.8,-1.4,-1.4,25,791.956,-3.21918,598.715,-0.536066,-0.482644,-1.75474,
2026_06_26_17_10_35.443,3.873,42.5,0,0.77,0,0,0,0, ,0,0,0,0,0, ,792.1,-4.7,594.1,-0.6,-1.1,-1.6,25,791.971,-3.30941,598.489,-0.546056,-0.529405,-1.73922,
2026_06_26_17_10_35.463,3.873,42.6,0,0.769,0,0,0,0, ,0,0,0,0,0, ,793,-2.9,593.7,-0.1,-0.6,-1.4,25,792.006,-3.33931,598.209,-0.534109,-0.548941,-1.72464,
2026_06_26_17_10_35.482,3.873,42.6,0,0.771,0,0,0,0, ,0,0,0,0,0, ,791.2,-5.2,595.5,0.1,0,-1.7,25,792.012,-3.38262,597.989,-0.501562,-0.533771,-1.714,
2026_06_26_17_10_35.503,3.873,42.6,0,0.769,0,0,0,0, ,0,0,0,0,0, ,793,-3.4,597.2,-0.2,0.1,-1.7,25,792.018,-3.43852,597.889,-0.474045,-0.498198,-1.71315,
2026_06_26_17_10_35.523,3.873,42.6,0,0.77,0,0,0,0, ,0,0,0,0,0, ,791.2,-3.9,600.9,-0.3,0,-1.8,25,792.023,-3.45141,597.96,-0.460392,-0.464792,-1.71539,
2026_06_26_17_10_35.543,3.873,42.6,0,0.77,0,0,0,0, ,0,0,0,0,0, ,791.2,-4.3,600.2,-0.1,-0.1,-1.8,25,791.972,-3.49093,598.118,-0.444524,-0.439516,-1.72055,
2026_06_26_17_10_35.562,3.873,42.6,0,0.769,0,0,0,0, ,0,0,0,0,0, ,790.7,-4,598.3,-0.2,-0.3,-2,25,791.91,-3.53109,598.187,-0.426577,-0.42492,-1.73148,
2026_06_26_17_10_35.582,3.873,42.6,0,0.767,0,0,0,0, ,0,0,0,0,0, ,792.2,-2.3,598.5,-0.4,-0.1,-2,25,791.882,-3.50787,598.2,-0.418863,-0.411214,-1.74785,
2026_06_26_17_10_35.602,3.873,42.6,0,0.767,0,0,0,0, ,0,0,0,0,0, ,791.5,-2.6,600,-0.4,-0.3,-2,25,791.88,-3.44341,598.264,-0.417714,-0.398343,-1.76321,
2026_06_26_17_10_35.621,3.873,42.6,0,0.769,0,0,0,0, ,0,0,0,0,0, ,792.4,-3.4,597.2,-0.1,0,-1.8,25,791.884,-3.41639,598.284,-0.407494,-0.38321,-1.77155,
2026_06_26_17_10_35.641,3.873,42.6,0,0.769,0,0,0,0, ,0,0,0,0,0, ,792.7,-1.8,598.3,0,0.2,-1.6,25,791.925,-3.36664,598.252,-0.385709,-0.353764,-1.76719,
2026_06_26_17_10_35.660,3.873,42.5,0,0.771,0,0,0,0, ,0,0,0,0,0, ,791.3,-2.8,603,0,0.1,-1.7,25,791.93,-3.30164,598.398,-0.362205,-0.323066,-1.76005,
2026_06_26_17_10_35.681,3.873,42.6,0,0.769,0,0,0,0, ,0,0,0,0,0, ,790,-3.5,601.9,-0.2,-0.3,-1.7,25,791.852,-3.2924,598.645,-0.346227,-0.309473,-1.75639,
2026_06_26_17_10_35.701,3.873,42.6,0,0.767,0,0,0,0, ,0,0,0,0,0, ,790.5,-3.9,602,-0.5,-0.6,-1.7,25,791.754,-3.31724,598.846,-0.346457,-0.318036,-1.75295,
2026_06_26_17_10_35.720,3.873,42.5,0,0.769,0,0,0,0, ,0,0,0,0,0, ,791.9,-2.3,597.1,-0.8,-0.8,-1.7,25,791.72,-3.304,598.889,-0.364954,-0.341312,-1.74972,
2026_06_26_17_10_35.740,3.873,42.6,0,0.77,0,0,0,0, ,0,0,0,0,0, ,790.6,-2.8,596.8,-0.6,-0.7,-1.7,25,791.692,-3.25805,598.771,-0.385371,-0.366217,-1.74669,
2026_06_26_17_10_35.760,3.873,42.5,0,0.767,0,0,0,0, ,0,0,0,0,0, ,791.9,-4.5,595.3,0,-0.3,-1.8,25,791.665,-3.28194,598.605,-0.380168,-0.374369,-1.7469,
2026_06_26_17_10_35.780,3.873,42.6,0,0.769,0,0,0,0, ,0,0,0,0,0, ,792.1,-2.9,596.3,0.4,0.4,-1.9,25,791.685,-3.30741,598.434,-0.344814,-0.348509,-1.75318,
2026_06_26_17_10_35.800,3.873,42.6,0,0.769,0,0,0,0, ,0,0,0,0,0, ,790.4,-1.3,604,-0.1,0.3,-1.7,25,791.659,-3.23384,598.539,-0.314662,-0.305944,-1.75603,
2026_06_26_17_10_35.819,3.873,42.5,0,0.769,0,0,0,0, ,0,0,0,0,0, ,789.1,-1.5,607.7,-0.8,-0.4,-1.6,25,791.542,-3.12209,598.984,-0.322909,-0.290347,-1.74957,
2026_06_26_17_10_35.839,3.873,42.5,0,0.769,0,0,0,0, ,0,0,0,0,0, ,790.2,-4.2,602.4,-1,-1.4,-1.5,25,791.427,-3.10551,599.354,-0.358075,-0.327498,-1.73741,
2026_06_26_17_10_35.859,3.873,42.5,0,0.77,0,0,0,0, ,0,0,0,0,0, ,790.7,-4.2,601.6,-0.8,-1.6,-1.6,25,791.367,-3.1722,599.515,-0.391099,-0.398947,-1.72599,
2026_06_26_17_10_35.879,3.873,42.6,0,0.769,0,0,0,0, ,0,0,0,0,0, ,790.5,-3.7,598,-0.9,-1.6,-1.7,25,791.321,-3.2196,599.532,-0.419063,-0.472136,-1.72136,
2026_06_26_17_10_35.904,3.873,42.5,0,0.769,0,0,0,0, ,0,0,0,0,0, ,792.6,-4.2,597,-0.8,-1.2,-1.6,25,791.335,-3.26411,599.409,-0.445323,-0.528678,-1.71701,
2026_06_26_17_10_35.919,3.873,42.5,0,0.769,0,0,0,0, ,0,0,0,0,0, ,791.7,-3.7,596.3,-0.7,-0.8,-1.5,25,791.384,-3.3059,599.241,-0.46389,-0.557399,-1.70683,
2026_06_26_17_10_35.938,3.873,42.5,0,0.77,0,0,0,0, ,0,0,0,0,0, ,791.3,-4.5,596.6,-0.4,-0.4,-1.6,25,791.391,-3.35429,599.07,-0.469137,-0.559995,-1.69728,
2026_06_26_17_10_35.957,3.873,42.5,0,0.77,0,0,0,0, ,0,0,0,0,0, ,791.6,-5,597.4,0,0,-1.8,25,791.395,-3.43935,598.944,-0.452736,-0.538058,-1.69744,
2026_06_26_17_10_35.977,3.873,42.5,0,0.767,0,0,0,0, ,0,0,0,0,0, ,790.8,-1.8,599.8,-0.3,0,-2,25,791.383,-3.43695,598.923,-0.434288,-0.50527,-1.70979,
2026_06_26_17_10_35.997,3.873,42.6,0,0.769,0,0,0,0, ,0,0,0,0,0, ,789.6,-2.6,602.7,-0.7,-0.4,-2,25,791.311,-3.36157,599.065,-0.438293,-0.486668,-1.72747,
2026_06_26_17_10_36.017,3.873,42.5,0,0.77,0,0,0,0, ,0,0,0,0,0, ,791.9,-3.2,596.4,-0.6,-0.5,-1.8,25,791.277,-3.33344,599.095,-0.451194,-0.484433,-1.73798,
2026_06_26_17_10_36.037,3.873,42.5,0,0.769,0,0,0,0, ,0,0,0,0,0, ,790.8,-3.7,596.8,0,-0.1,-1.8,25,791.281,-3.34055,598.943,-0.44198,-0.473194,-1.74176,
2026_06_26_17_10_36.056,3.873,42.5,0,0.769,0,0,0,0, ,0,0,0,0,0, ,791,-3.1,602.1,0.1,0,-1.7,25,791.258,-3.34417,598.974,-0.412,-0.447406,-1.74226,
2026_06_26_17_10_36.076,3.873,42.5,0,0.769,0,0,0,0, ,0,0,0,0,0, ,790.4,-1.2,603.3,-0.3,-0.5,-1.7,25,791.224,-3.2714,599.201,-0.392988,-0.435377,-1.73969,
2026_06_26_17_10_36.095,3.873,42.5,0,0.769,0,0,0,0, ,0,0,0,0,0, ,791.6,-3.6,602.6,-0.9,-1.1,-1.6,25,791.21,-3.2183,599.429,-0.405603,-0.457596,-1.73422,
2026_06_26_17_10_36.116,3.873,42.5,0,0.769,0,0,0,0, ,0,0,0,0,0, ,791.7,-4.2,598.3,-0.9,-1.2,-1.6,25,791.237,-3.25984,599.491,-0.43573,-0.499789,-1.72604,
2026_06_26_17_10_36.136,3.873,42.5,0,0.767,0,0,0,0, ,0,0,0,0,0, ,793.3,-5.3,595.4,-0.7,-1,-2,25,791.314,-3.35065,599.33,-0.457928,-0.536364,-1.73055,
2026_06_26_17_10_36.155,3.873,42.4,0,0.769,0,0,0,0, ,0,0,0,0,0, ,793.4,-4.1,594.8,0,0,-2.1,25,791.438,-3.43287,599.073,-0.451351,-0.534149,-1.75002,
2026_06_26_17_10_36.175,3.873,42.5,0,0.767,0,0,0,0, ,0,0,0,0,0, ,791.1,-1.7,601,-0.4,0.2,-2.1,25,791.488,-3.4004,599.001,-0.436034,-0.495505,-1.77134,
2026_06_26_17_10_36.195,3.873,42.5,0,0.769,0,0,0,0, ,0,0,0,0,0, ,791.6,-2.4,598.6,-0.4,0.2,-2,25,791.479,-3.31811,599.05,-0.433838,-0.453123,-1.78833,
2026_06_26_17_10_36.215,3.873,42.5,0,0.767,0,0,0,0, ,0,0,0,0,0, ,790.4,-2.4,601.5,-0.3,0.1,-1.9,25,791.45,-3.26216,599.111,-0.428729,-0.41637,-1.79818,
2026_06_26_17_10_36.235,3.873,42.4,0,0.77,0,0,0,0, ,0,0,0,0,0, ,791.1,-3,601.8,-0.3,-0.1,-1.7,25,791.407,-3.22791,599.265,-0.420885,-0.390997,-1.79829,
2026_06_26_17_10_36.254,3.873,42.5,0,0.769,0,0,0,0, ,0,0,0,0,0, ,789.4,-2.4,600.9,-0.2,-0.3,-1.6,25,791.337,-3.19574,599.393,-0.410472,-0.379359,-1.78925,
2026_06_26_17_10_36.280,3.873,42.4,0,0.769,0,0,0,0, ,0,0,0,0,0, ,789.4,-2.3,604.7,-0.7,-0.9,-1.6,25,791.219,-3.1442,599.6,-0.41288,-0.392804,-1.77772,
2026_06_26_17_10_36.294,3.873,42.4,0,0.769,0,0,0,0, ,0,0,0,0,0, ,790.5,-3,598.2,-0.9,-1.3,-1.6,25,791.142,-3.11408,599.713,-0.43647,-0.435899,-1.76689,
2026_06_26_17_10_36.314,3.873,42.5,0,0.769,0,0,0,0, ,0,0,0,0,0, ,790.7,-2.9,599.9,-0.6,-1.2,-1.5,25,791.109,-3.10409,599.672,-0.455576,-0.485508,-1.75367,
2026_06_26_17_10_36.334,3.873,42.5,0,0.769,0,0,0,0, ,0,0,0,0,0, ,790.4,-4.1,599.3,-0.9,-1.3,-1.5,25,791.074,-3.12821,599.668,-0.473518,-0.532094,-1.73821,
2026_06_26_17_10_36.354,3.873,42.5,0,0.769,0,0,0,0, ,0,0,0,0,0, ,792.8,-4.6,595.7,-0.5,-0.7,-1.6,25,791.107,-3.20266,599.536,-0.487319,-0.560607,-1.72675,
2026_06_26_17_10_36.373,3.873,42.5,0,0.769,0,0,0,0, ,0,0,0,0,0, ,792.6,-3.5,599.7,-0.5,-0.5,-1.7,25,791.204,-3.2543,599.424,-0.488092,-0.563008,-1.72207,
2026_06_26_17_10_36.393,3.873,42.5,0,0.769,0,0,0,0, ,0,0,0,0,0, ,791.8,-4.5,596.3,-0.4,-0.4,-1.7,25,791.264,-3.29974,599.337,-0.48577,-0.556121,-1.72072,
2026_06_26_17_10_36.412,3.873,42.5,0,0.767,0,0,0,0, ,0,0,0,0,0, ,791.6,-2.6,599.6,-0.4,-0.3,-1.7,25,791.291,-3.31499,599.253,-0.480544,-0.543561,-1.71946,
2026_06_26_17_10_36.432,3.873,42.4,0,0.77,0,0,0,0, ,0,0,0,0,0, ,792.9,-4.6,597.9,-0.5,-0.1,-1.6,25,791.349,-3.33236,599.222,-0.478683,-0.522625,-1.71523,
2026_06_26_17_10_36.458,3.873,42.5,0,0.769,0,0,0,0, ,0,0,0,0,0, ,790.8,-4.2,601.1,-0.4,-0.2,-1.8,25,791.38,-3.39742,599.239,-0.476935,-0.499918,-1.7143,
2026_06_26_17_10_36.473,3.873,42.4,0,0.769,0,0,0,0, ,0,0,0,0,0, ,791.6,-4,599.1,-0.3,-0.4,-2,25,791.369,-3.44023,599.292,-0.4692,-0.487736,-1.72562,
2026_06_26_17_10_36.491,3.873,42.4,0,0.769,0,0,0,0, ,0,0,0,0,0, ,791,-3.7,598.7,-0.4,-0.4,-1.9,25,791.365,-3.4652,599.268,-0.461936,-0.482389,-1.73929,
2026_06_26_17_10_36.511,3.873,42.5,0,0.769,0,0,0,0, ,0,0,0,0,0, ,792.8,-2.6,601.5,-0.7,-0.4,-1.9,25,791.397,-3.44599,599.318,-0.467302,-0.477369,-1.74908,
2026_06_26_17_10_36.531,3.873,42.4,0,0.769,0,0,0,0, ,0,0,0,0,0, ,791.1,-4,597.6,-0.6,-0.8,-1.8,25,791.431,-3.4371,599.332,-0.478435,-0.484842,-1.75523,
2026_06_26_17_10_36.551,3.873,42.4,0,0.769,0,0,0,0, ,0,0,0,0,0, ,793.5,-2.6,597,-0.1,-0.4,-1.8,25,791.484,-3.42874,599.209,-0.470609,-0.491859,-1.75796,
2026_06_26_17_10_36.571,3.873,42.4,0,0.769,0,0,0,0, ,0,0,0,0,0, ,791.1,-3.1,598.9,-0.2,-0.1,-1.6,25,791.534,-3.39348,599.132,-0.451072,-0.477121,-1.75443,
2026_06_26_17_10_36.591,3.873,42.5,0,0.769,0,0,0,0, ,0,0,0,0,0, ,791.2,-3.2,598.1,-0.1,0,-1.9,25,791.51,-3.37864,599.093,-0.432725,-0.451093,-1.75416,
2026_06_26_17_10_36.610,3.873,42.4,0,0.769,0,0,0,0, ,0,0,0,0,0, ,790.1,-3,603.3,-0.3,-0.1,-2,25,791.458,-3.36166,599.191,-0.418544,-0.426651,-1.76609,
2026_06_26_17_10_36.630,3.873,42.4,0,0.769,0,0,0,0, ,0,0,0,0,0, ,791,-1.5,599.3,-0.9,-0.5,-1.9,25,791.403,-3.29392,599.32,-0.429601,-0.418934,-1.7773,
2026_06_26_17_10_36.654,3.873,42.4,0,0.767,0,0,0,0, ,0,0,0,0,0, ,790.8,-3.5,598.6,-0.6,-0.6,-1.7,25,791.372,-3.24554,599.297,-0.449125,-0.42692,-1.77868,
2026_06_26_17_10_36.670,3.873,42.4,0,0.77,0,0,0,0, ,0,0,0,0,0, ,792.3,-6.2,596,0.1,-0.1,-1.7,25,791.383,-3.34331,599.176,-0.436991,-0.422233,-1.77389,
2026_06_26_17_10_36.690,3.873,42.4,0,0.769,0,0,0,0, ,0,0,0,0,0, ,792.2,-2.6,597.9,0.4,0.4,-1.8,25,791.436,-3.4077,599.04,-0.395128,-0.387363,-1.77243,
2026_06_26_17_10_36.709,3.873,42.4,0,0.77,0,0,0,0, ,0,0,0,0,0, ,789.7,-0.6,607.5,-0.3,-0.1,-1.7,25,791.406,-3.29755,599.263,-0.368003,-0.354617,-1.77107,
2026_06_26_17_10_36.730,3.873,42.4,0,0.769,0,0,0,0, ,0,0,0,0,0, ,790.1,-2.1,605.4,-1.1,-1.2,-1.5,25,791.314,-3.17887,599.701,-0.388234,-0.372617,-1.76064,
2026_06_26_17_10_36.749,3.873,42.4,0,0.767,0,0,0,0, ,0,0,0,0,0, ,789.6,-4.1,601.9,-1.2,-1.8,-1.5,25,791.225,-3.17406,599.942,-0.434654,-0.441317,-1.74476,
2026_06_26_17_10_36.769,3.873,42.4,0,0.769,0,0,0,0, ,0,0,0,0,0, ,791.5,-4.3,600.8,-0.9,-1.7,-1.6,25,791.184,-3.23658,600.027,-0.472152,-0.521065,-1.73289,
2026_06_26_17_10_36.789,3.873,42.5,0,0.77,0,0,0,0, ,0,0,0,0,0, ,792.6,-4.5,596.1,-0.7,-1.4,-1.6,25,791.237,-3.30748,599.931,-0.49213,-0.583766,-1.72479,
2026_06_26_17_10_36.808,3.873,42.3,0,0.769,0,0,0,0, ,0,0,0,0,0, ,792.8,-4,595,-0.7,-0.9,-1.6,25,791.326,-3.36491,599.664,-0.504797,-0.61827,-1.71719,
2026_06_26_17_10_36.828,3.873,42.3,0,0.769,0,0,0,0, ,0,0,0,0,0, ,791.1,-3.2,599.8,-0.6,-0.6,-1.5,25,791.364,-3.37924,599.526,-0.513645,-0.626298,-1.707,
2026_06_26_17_10_36.848,3.873,42.3,0,0.769,0,0,0,0, ,0,0,0,0,0, ,791.1,-6.1,595.4,-0.3,-0.2,-1.6,25,791.348,-3.45667,599.409,-0.509767,-0.612508,-1.69743,
2026_06_26_17_10_36.868,3.873,42.4,0,0.769,0,0,0,0, ,0,0,0,0,0, ,792.1,-4.7,598.9,0,0,-1.9,25,791.363,-3.57509,599.271,-0.487844,-0.581277,-1.70064,
2026_06_26_17_10_36.888,3.873,42.3,0,0.769,0,0,0,0, ,0,0,0,0,0, ,790.5,-3.4,600.9,-0.4,0,-1.9,25,791.359,-3.60403,599.31,-0.470303,-0.545855,-1.71278,
2026_06_26_17_10_36.907,3.873,42.3,0,0.767,0,0,0,0, ,0,0,0,0,0, ,789.5,-2.6,598.8,-0.7,-0.3,-1.9,25,791.276,-3.56723,599.343,-0.47516,-0.521733,-1.72419,
2026_06_26_17_10_36.927,3.873,42.3,0,0.769,0,0,0,0, ,0,0,0,0,0, ,791.3,-4.7,597.6,-0.3,-0.1,-1.9,25,791.223,-3.57227,599.273,-0.476673,-0.502127,-1.73491,
2026_06_26_17_10_36.947,3.873,42.4,0,0.77,0,0,0,0, ,0,0,0,0,0, ,791.1,-3.4,601,0,0,-1.8,25,791.222,-3.60138,599.275,-0.456767,-0.474576,-1.74192,
2026_06_26_17_10_36.967,3.873,42.4,0,0.769,0,0,0,0, ,0,0,0,0,0, ,790.4,-2.5,601.8,0,-0.2,-1.6,25,791.193,-3.56169,599.404,-0.428932,-0.45175,-1.73937,
2026_06_26_17_10_36.986,3.873,42.4,0,0.769,0,0,0,0, ,0,0,0,0,0, ,790.2,-2,602.9,-0.8,-0.9,-1.6,25,791.139,-3.48176,599.584,-0.427169,-0.457737,-1.73087,
2026_06_26_17_10_37.006,3.873,42.3,0,0.769,0,0,0,0, ,0,0,0,0,0, ,791.1,-3.4,600.9,-1.2,-1.2,-1.5,25,791.109,-3.43412,599.725,-0.462076,-0.493828,-1.71985,
2026_06_26_17_10_37.026,3.873,42.3,0,0.767,0,0,0,0, ,0,0,0,0,0, ,792.1,-6.9,599.2,-1.3,-1.4,-1.8,25,791.139,-3.53868,599.745,-0.51009,-0.542954,-1.71559,
2026_06_26_17_10_37.046,3.873,42.3,0,0.77,0,0,0,0, ,0,0,0,0,0, ,790.8,-6.8,596.8,-1,-1.2,-2,25,791.158,-3.74046,599.638,-0.549085,-0.589087,-1.72683,
2026_06_26_17_10_37.065,3.873,42.3,0,0.77,0,0,0,0, ,0,0,0,0,0, ,792.1,-4.6,598.9,-0.5,-0.9,-2.1,25,791.175,-3.85987,599.529,-0.561328,-0.617174,-1.74652,
2026_06_26_17_10_37.085,3.873,42.4,0,0.77,0,0,0,0, ,0,0,0,0,0, ,792.7,-3,592.5,-0.4,-0.2,-2.2,25,791.25,-3.85622,599.296,-0.554544,-0.61308,-1.77111,
2026_06_26_17_10_37.105,3.873,42.3,0,0.767,0,0,0,0, ,0,0,0,0,0, ,792.4,-3.6,595.7,0,0.6,-2.1,25,791.329,-3.82233,598.979,-0.532939,-0.563533,-1.7942,
2026_06_26_17_10_37.124,3.873,42.3,0,0.769,0,0,0,0, ,0,0,0,0,0, ,790.6,-1.9,599.1,0,0.9,-2,25,791.34,-3.75698,598.883,-0.500463,-0.48349,-1.80979,
2026_06_26_17_10_37.145,3.873,42.3,0,0.769,0,0,0,0, ,0,0,0,0,0, ,790.4,-1.9,605.4,0,0.5,-1.7,25,791.289,-3.64382,599.088,-0.469966,-0.411371,-1.81224,
2026_06_26_17_10_37.164,3.873,42.2,0,0.769,0,0,0,0, ,0,0,0,0,0, ,790.4,-2.4,602.7,-0.2,0,-1.7,25,791.234,-3.55279,599.391,-0.447421,-0.371069,-1.8054,
2026_06_26_17_10_37.185,3.873,42.3,0,0.769,0,0,0,0, ,0,0,0,0,0, ,789.5,-3.5,604.9,-0.5,-0.6,-1.7,25,791.156,-3.51606,599.659,-0.441485,-0.366738,-1.79898,
2026_06_26_17_10_37.204,3.873,42.3,0,0.767,0,0,0,0, ,0,0,0,0,0, ,791.1,-2.1,604.3,-0.8,-1.5,-1.5,25,791.104,-3.47243,599.96,-0.454191,-0.408374,-1.78685,
2026_06_26_17_10_37.224,3.873,42.4,0,0.769,0,0,0,0, ,0,0,0,0,0, ,790,-4.2,601.8,-0.8,-1.7,-1.4,25,791.07,-3.45278,600.149,-0.475264,-0.480989,-1.76632,
2026_06_26_17_10_37.243,3.873,42.3,0,0.77,0,0,0,0, ,0,0,0,0,0, ,791.3,-2.1,599.8,-1,-1.9,-1.4,25,791.045,-3.43433,600.188,-0.501146,-0.561366,-1.744,
2026_06_26_17_10_37.263,3.873,42.3,0,0.767,0,0,0,0, ,0,0,0,0,0, ,792.8,-5.6,593.9,-0.8,-1.4,-1.4,25,791.106,-3.45966,599.985,-0.525451,-0.627705,-1.72304,
2026_06_26_17_10_37.283,3.873,42.3,0,0.77,0,0,0,0, ,0,0,0,0,0, ,792.4,-4.8,595.4,-0.3,-0.6,-1.5,25,791.197,-3.56571,599.66,-0.526947,-0.650391,-1.7064,
2026_06_26_17_10_37.303,3.873,42.3,0,0.769,0,0,0,0, ,0,0,0,0,0, ,791.9,-2.9,602,-0.4,-0.5,-1.5,25,791.255,-3.58303,599.601,-0.516165,-0.644274,-1.69382,
2026_06_26_17_10_37.322,3.873,42.3,0,0.769,0,0,0,0, ,0,0,0,0,0, ,791.6,-2.9,603.7,-1,-1.2,-1.6,25,791.285,-3.54141,599.799,-0.527367,-0.65681,-1.68506,
2026_06_26_17_10_37.342,3.873,42.4,0,0.768,0,0,0,0, ,0,0,0,0,0, ,791.7,-3.5,597.2,-1.4,-1.8,-1.7,25,791.307,-3.52061,599.839,-0.568356,-0.708192,-1.68292,
2026_06_26_17_10_37.362,3.873,42.3,0,0.768,0,0,0,0, ,0,0,0,0,0, ,792.9,-5.9,594.3,-0.6,-0.7,-1.8,25,791.368,-3.59248,599.59,-0.594659,-0.741209,-1.68701,
2026_06_26_17_10_37.382,3.873,42.3,0,0.769,0,0,0,0, ,0,0,0,0,0, ,793.4,-6.2,593.6,-0.3,-0.4,-2.1,25,791.476,-3.74223,599.246,-0.585844,-0.729557,-1.70304,
2026_06_26_17_10_37.402,3.873,42.3,0,0.769,0,0,0,0, ,0,0,0,0,0, ,791.5,-4.2,597.4,-0.1,0.3,-2,25,791.536,-3.83106,599.018,-0.562331,-0.688146,-1.72418,
2026_06_26_17_10_37.422,3.873,42.3,0,0.769,0,0,0,0, ,0,0,0,0,0, ,791.9,-1.8,600.3,-0.2,0.2,-1.9,25,791.546,-3.78042,599.008,-0.537205,-0.630978,-1.73794,
2026_06_26_17_10_37.448,3.873,42.2,0,0.77,0,0,0,0, ,0,0,0,0,0, ,790.7,-3.7,598.3,0,0.1,-1.6,25,791.531,-3.71763,599.025,-0.510563,-0.583387,-1.73867,
2026_06_26_17_10_37.464,3.873,42.3,0,0.768,0,0,0,0, ,0,0,0,0,0, ,791.3,-4.1,599.9,-0.3,0,-1.7,25,791.498,-3.72874,599.03,-0.488591,-0.54479,-1.73327,
2026_06_26_17_10_37.480,3.873,42.2,0,0.769,0,0,0,0, ,0,0,0,0,0, ,791.1,-6.1,600.3,-0.2,-0.2,-1.9,25,791.48,-3.8123,599.095,-0.474052,-0.517686,-1.73734,
2026_06_26_17_10_37.500,3.873,42.3,0,0.769,0,0,0,0, ,0,0,0,0,0, ,790.7,-5.4,597.7,-0.1,0,-2,25,791.445,-3.93038,599.089,-0.454305,-0.492233,-1.7503,
2026_06_26_17_10_37.520,3.873,42.3,0,0.769,0,0,0,0, ,0,0,0,0,0, ,790.6,-0.7,604.1,-0.7,-0.7,-1.9,25,791.396,-3.87673,599.2,-0.450996,-0.483566,-1.76247,
2026_06_26_17_10_37.540,3.873,42.2,0,0.771,0,0,0,0, ,0,0,0,0,0, ,791.6,-3.7,598.2,-1,-1,-1.7,25,791.378,-3.77456,599.319,-0.47531,-0.505895,-1.76475,
2026_06_26_17_10_37.560,3.873,42.3,0,0.77,0,0,0,0, ,0,0,0,0,0, ,793.4,-5.9,595.7,-0.2,-0.5,-1.7,25,791.447,-3.83705,599.174,-0.482908,-0.52077,-1.76081,
2026_06_26_17_10_37.579,3.873,42.3,0,0.769,0,0,0,0, ,0,0,0,0,0, ,793.2,-3.5,595.8,0.1,0.1,-1.6,25,791.56,-3.88963,598.966,-0.456528,-0.501223,-1.75405,
2026_06_26_17_10_37.600,3.873,42.2,0,0.768,0,0,0,0, ,0,0,0,0,0, ,789.9,-2.8,604,0,0,-1.5,25,791.559,-3.84456,599.022,-0.425661,-0.467633,-1.74162,
2026_06_26_17_10_37.619,3.873,42.2,0,0.769,0,0,0,0, ,0,0,0,0,0, ,789.1,-1.7,605.1,-0.9,-1,-1.5,25,791.434,-3.74739,599.359,-0.427145,-0.469606,-1.7269,
2026_06_26_17_10_37.639,3.873,42.3,0,0.769,0,0,0,0, ,0,0,0,0,0, ,790.5,-5.9,601.9,-1.6,-1.8,-1.6,25,791.334,-3.7506,599.612,-0.477287,-0.526302,-1.71612,
2026_06_26_17_10_37.659,3.873,42.2,0,0.769,0,0,0,0, ,0,0,0,0,0, ,790.6,-6.1,600.9,-2.2,-2.1,-1.7,25,791.286,-3.88767,599.721,-0.563984,-0.613058,-1.71209,
2026_06_26_17_10_37.679,3.873,42.3,0,0.77,0,0,0,0, ,0,0,0,0,0, ,793.3,-5.3,591.5,-0.9,-1.5,-1.6,25,791.327,-3.99811,599.506,-0.624069,-0.685387,-1.7083,
2026_06_26_17_10_37.699,3.873,42.2,0,0.77,0,0,0,0, ,0,0,0,0,0, ,793.2,-5,594.7,-0.5,-1.1,-1.7,25,791.444,-4.0683,599.116,-0.628696,-0.72284,-1.70475,
2026_06_26_17_10_37.719,3.873,42,0,0.77,0,0,0,0, ,0,0,0,0,0, ,792.3,-4.7,594.1,-0.9,-0.8,-1.6,25,791.524,-4.11594,598.828,-0.633041,-0.736683,-1.70142,
2026_06_26_17_10_37.738,3.873,42.2,0,0.769,0,0,0,0, ,0,0,0,0,0, ,792.2,-6.1,596.3,-0.7,0,-1.7,25,791.568,-4.19419,598.607,-0.643215,-0.716166,-1.69828,
2026_06_26_17_10_37.758,3.873,42.3,0,0.769,0,0,0,0, ,0,0,0,0,0, ,791.2,-6.7,596.5,-0.7,0.1,-1.8,25,791.576,-4.3286,598.473,-0.646676,-0.669478,-1.70143,
2026_06_26_17_10_37.778,3.873,42.2,0,0.769,0,0,0,0, ,0,0,0,0,0, ,791,-3.6,602.1,-0.9,-0.1,-1.8,25,791.547,-4.37866,598.523,-0.656019,-0.628682,-1.70744,
2026_06_26_17_10_37.797,3.873,42.3,0,0.768,0,0,0,0, ,0,0,0,0,0, ,791.3,-6.4,602.7,-1.6,-1,-1.9,25,791.523,-4.41652,598.759,-0.692215,-0.623887,-1.71613,
2026_06_26_17_10_37.817,3.873,42.2,0,0.771,0,0,0,0, ,0,0,0,0,0, ,792.9,-5.6,595.9,-1.2,-1.1,-2,25,791.558,-4.51301,598.792,-0.735345,-0.649853,-1.73038,
2026_06_26_17_10_37.837,3.873,42.2,0,0.769,0,0,0,0, ,0,0,0,0,0, ,792.9,-5.2,593.3,-0.8,-0.5,-1.9,25,791.64,-4.56706,598.537,-0.751473,-0.659003,-1.74376,
2026_06_26_17_10_37.857,3.873,42.2,0,0.769,0,0,0,0, ,0,0,0,0,0, ,791,-4.3,597.7,-0.5,-0.3,-1.7,25,791.659,-4.57821,598.352,-0.745289,-0.64322,-1.74719,
2026_06_26_17_10_37.877,3.873,41.9,0,0.769,0,0,0,0, ,0,0,0,0,0, ,791.5,-3.7,599.4,-0.5,-0.3,-1.5,25,791.634,-4.54298,598.364,-0.730342,-0.622305,-1.73822,
2026_06_26_17_10_37.896,3.873,42.2,0,0.768,0,0,0,0, ,0,0,0,0,0, ,792.8,-4.1,601.4,-1.7,-0.8,-1.6,25,791.665,-4.50379,598.488,-0.752868,-0.617899,-1.72675,
2026_06_26_17_10_37.916,3.873,42.2,0,0.768,0,0,0,0, ,0,0,0,0,0, ,793,-7.4,596.1,-1.5,-1,-1.7,25,791.74,-4.57974,598.504,-0.80449,-0.635089,-1.72207,
2026_06_26_17_10_37.936,3.873,42.2,0,0.769,0,0,0,0, ,0,0,0,0,0, ,793.5,-7.2,596,-0.4,-0.6,-2,25,791.832,-4.7455,598.354,-0.813357,-0.645139,-1.72987,
2026_06_26_17_10_37.955,3.873,42.2,0,0.77,0,0,0,0, ,0,0,0,0,0, ,792.8,-4.7,594.9,-0.3,0,-2.1,25,791.913,-4.8189,598.177,-0.785121,-0.624107,-1.74938,
2026_06_26_17_10_37.975,3.873,42.3,0,0.769,0,0,0,0, ,0,0,0,0,0, ,791.8,-5.7,597.9,-0.3,0,-2,25,791.936,-4.84212,598.069,-0.755559,-0.586075,-1.7677,
2026_06_26_17_10_37.995,3.873,42.2,0,0.767,0,0,0,0, ,0,0,0,0,0, ,792.9,-5.8,594.7,0,0.3,-2,25,791.961,-4.89745,597.961,-0.718658,-0.541221,-1.78185,
2026_06_26_17_10_38.015,3.873,42,0,0.769,0,0,0,0, ,0,0,0,0,0, ,790.4,-5.2,601.4,-0.2,0.4,-2,25,791.942,-4.93417,597.967,-0.680958,-0.486912,-1.79515,
2026_06_26_17_10_38.034,3.873,42,0,0.768,0,0,0,0, ,0,0,0,0,0, ,792.3,-3.4,600.7,-0.4,-0.2,-1.8,25,791.906,-4.89552,598.155,-0.657744,-0.451147,-1.80153,
2026_06_26_17_10_38.054,3.873,42.2,0,0.769,0,0,0,0, ,0,0,0,0,0, ,790.1,-5.1,603.3,-0.2,-0.5,-1.5,25,791.863,-4.85618,598.389,-0.635944,-0.444983,-1.7923,
2026_06_26_17_10_38.078,3.873,42.2,0,0.768,0,0,0,0, ,0,0,0,0,0, ,791.6,-4.3,599.8,0,-1.2,-1.4,25,791.802,-4.84667,598.582,-0.603285,-0.469664,-1.77144,
2026_06_26_17_10_38.096,3.873,42,0,0.769,0,0,0,0, ,0,0,0,0,0, ,791.6,-6.5,597.7,0,-1,-1.4,25,791.789,-4.88039,598.592,-0.566522,-0.508075,-1.74881,
2026_06_26_17_10_38.114,3.873,42.2,0,0.769,0,0,0,0, ,0,0,0,0,0, ,791.5,-5.2,598.5,-0.2,-0.9,-1.4,25,791.775,-4.93947,598.562,-0.538093,-0.535005,-1.72755,
2026_06_26_17_10_38.133,3.873,42,0,0.77,0,0,0,0, ,0,0,0,0,0, ,793.2,-5,597.5,-0.8,-0.8,-1.4,25,791.81,-4.94925,598.528,-0.535772,-0.5542,-1.70759,
2026_06_26_17_10_38.153,3.873,42,0,0.769,0,0,0,0, ,0,0,0,0,0, ,792.8,-5.7,600.3,-1.2,-1.2,-1.3,25,791.882,-4.97367,598.55,-0.564061,-0.581366,-1.6858,
2026_06_26_17_10_38.173,3.873,42.3,0,0.769,0,0,0,0, ,0,0,0,0,0, ,792.4,-6.7,601.1,-1.4,-1.3,-1.5,25,791.926,-5.0484,598.681,-0.608907,-0.622111,-1.66838,
2026_06_26_17_10_38.193,3.873,42,0,0.769,0,0,0,0, ,0,0,0,0,0, ,792.1,-9.1,598.6,-1.5,-1.4,-1.7,25,791.946,-5.22217,598.753,-0.660161,-0.666466,-1.66422,
2026_06_26_17_10_38.212,3.873,42.2,0,0.769,0,0,0,0, ,0,0,0,0,0, ,793.5,-7.2,596,-0.6,-1,-1.7,25,791.998,-5.40059,598.664,-0.683917,-0.698979,-1.6664,
2026_06_26_17_10_38.232,3.873,42.2,0,0.768,0,0,0,0, ,0,0,0,0,0, ,793.2,-6.4,592.2,-0.3,-0.6,-2,25,792.08,-5.48586,598.386,-0.669663,-0.705135,-1.67759,
2026_06_26_17_10_38.252,3.873,42.2,0,0.766,0,0,0,0, ,0,0,0,0,0, ,793.9,-5.1,590.6,-0.4,0.2,-2,25,792.17,-5.50196,597.96,-0.650183,-0.674353,-1.69723,
2026_06_26_17_10_38.272,3.873,42,0,0.768,0,0,0,0, ,0,0,0,0,0, ,793.9,-6.9,597.6,-0.2,0.7,-1.8,25,792.275,-5.53231,597.725,-0.628844,-0.605838,-1.70959,
2026_06_26_17_10_38.297,3.873,42,0,0.767,0,0,0,0, ,0,0,0,0,0, ,791.5,-6.4,600.2,0,0.7,-1.8,25,792.301,-5.60042,597.797,-0.596618,-0.526263,-1.7151,
2026_06_26_17_10_38.312,3.873,42.2,0,0.769,0,0,0,0, ,0,0,0,0,0, ,791.8,-5.7,601.6,-0.2,0.1,-1.9,25,792.261,-5.62781,597.986,-0.566355,-0.469819,-1.72332,
2026_06_26_17_10_38.331,3.873,41.9,0,0.768,0,0,0,0, ,0,0,0,0,0, ,792.2,-5.2,604.3,-0.4,-0.5,-2,25,792.246,-5.61698,598.288,-0.550124,-0.453377,-1.73713,
2026_06_26_17_10_38.352,3.873,42,0,0.766,0,0,0,0, ,0,0,0,0,0, ,791.7,-3.4,599.8,-0.7,-0.9,-2,25,792.228,-5.53673,598.517,-0.550116,-0.468406,-1.75315,
2026_06_26_17_10_38.371,3.873,42,0,0.769,0,0,0,0, ,0,0,0,0,0, ,794,-5.8,596.1,-0.8,-0.7,-1.8,25,792.265,-5.47964,598.483,-0.562297,-0.488612,-1.7621,
2026_06_26_17_10_38.391,3.873,42,0,0.769,0,0,0,0, ,0,0,0,0,0, ,792.9,-7,597,-0.5,-0.4,-1.8,25,792.338,-5.53573,598.365,-0.567641,-0.492353,-1.76441,
2026_06_26_17_10_38.410,3.873,42,0,0.769,0,0,0,0, ,0,0,0,0,0, ,792.1,-5.8,597.2,0.1,0,-1.8,25,792.348,-5.58839,598.288,-0.545238,-0.474538,-1.76658,
2026_06_26_17_10_38.430,3.873,42.2,0,0.769,0,0,0,0, ,0,0,0,0,0, ,792.3,-5.3,600.4,0.1,0,-1.8,25,792.339,-5.58606,598.319,-0.505919,-0.445621,-1.76861,
2026_06_26_17_10_38.450,3.873,42,0,0.769,0,0,0,0, ,0,0,0,0,0, ,791.5,-5.1,600.8,-0.4,-0.1,-1.6,25,792.312,-5.56253,598.458,-0.48423,-0.421512,-1.76443,
2026_06_26_17_10_38.470,3.873,41.9,0,0.769,0,0,0,0, ,0,0,0,0,0, ,791.9,-6.8,595.8,-0.1,0,-1.6,25,792.275,-5.58614,598.449,-0.469957,-0.398873,-1.75441,
2026_06_26_17_10_38.490,3.873,41.9,0,0.77,0,0,0,0, ,0,0,0,0,0, ,793.2,-5.2,597.5,0.3,0.4,-1.8,25,792.291,-5.61136,598.339,-0.435225,-0.36238,-1.7511,
2026_06_26_17_10_38.512,3.873,42,0,0.771,0,0,0,0, ,0,0,0,0,0, ,790.8,-3.1,605.5,0.1,0.1,-1.8,25,792.274,-5.52231,598.532,-0.396516,-0.325063,-1.75408,
2026_06_26_17_10_38.530,3.873,42.2,0,0.768,0,0,0,0, ,0,0,0,0,0, ,790.5,-2.4,607.7,-1,-1,-1.4,25,792.175,-5.35337,599.023,-0.399775,-0.332676,-1.74469,
2026_06_26_17_10_38.549,3.873,42.2,0,0.768,0,0,0,0, ,0,0,0,0,0, ,789.3,-7.6,601.8,-1.5,-2.2,-1.5,25,792.036,-5.33184,599.372,-0.451586,-0.409904,-1.72673,
2026_06_26_17_10_38.569,3.873,42.2,0,0.77,0,0,0,0, ,0,0,0,0,0, ,793,-8,596.5,-1.3,-2.3,-1.4,25,791.982,-5.48224,599.359,-0.50938,-0.522034,-1.70987,
2026_06_26_17_10_38.589,3.873,42,0,0.769,0,0,0,0, ,0,0,0,0,0, ,794.6,-7.5,592.6,-0.9,-1.5,-1.6,25,792.093,-5.62043,599.066,-0.545371,-0.606004,-1.69708,
2026_06_26_17_10_38.608,3.873,42,0,0.767,0,0,0,0, ,0,0,0,0,0, ,793.3,-6.9,593.2,-0.3,-0.4,-1.5,25,792.206,-5.71669,598.69,-0.5487,-0.626966,-1.68812,
2026_06_26_17_10_38.628,3.873,42,0,0.769,0,0,0,0, ,0,0,0,0,0, ,793.8,-8.3,592.7,-0.1,0.2,-1.5,25,792.288,-5.83145,598.34,-0.527451,-0.594854,-1.67665,
2026_06_26_17_10_38.648,3.873,42,0,0.769,0,0,0,0, ,0,0,0,0,0, ,793.4,-6.8,596.5,0,0.7,-1.6,25,792.368,-5.93618,598.112,-0.498356,-0.531184,-1.66893,
2026_06_26_17_10_38.668,3.873,42.2,0,0.769,0,0,0,0, ,0,0,0,0,0, ,790.6,-5.9,603.3,-0.6,0.4,-1.8,25,792.345,-5.96139,598.221,-0.486269,-0.465299,-1.67083,
2026_06_26_17_10_38.687,3.873,41.9,0,0.771,0,0,0,0, ,0,0,0,0,0, ,790.8,-7.8,602.4,-0.5,-0.4,-1.8,25,792.245,-6.01554,598.503,-0.490152,-0.436945,-1.6787,
2026_06_26_17_10_38.707,3.873,42.2,0,0.77,0,0,0,0, ,0,0,0,0,0, ,791.6,-6.7,601.3,-0.6,-0.9,-1.9,25,792.181,-6.09077,598.707,-0.493799,-0.449928,-1.68914,
2026_06_26_17_10_38.727,3.873,41.9,0,0.768,0,0,0,0, ,0,0,0,0,0, ,792.4,-5.9,594.9,-0.6,-0.7,-2,25,792.17,-6.10352,598.67,-0.500271,-0.47126,-1.70503,
2026_06_26_17_10_38.747,3.873,42.2,0,0.769,0,0,0,0, ,0,0,0,0,0, ,793.9,-6.7,593.2,0,0,-2,25,792.23,-6.11549,598.389,-0.488067,-0.463871,-1.72301,
2026_06_26_17_10_38.767,3.873,42,0,0.768,0,0,0,0, ,0,0,0,0,0, ,791.9,-6.7,598.1,0.5,0.6,-1.9,25,792.271,-6.15111,598.222,-0.443091,-0.417323,-1.73684,
2026_06_26_17_10_38.786,3.873,42,0,0.769,0,0,0,0, ,0,0,0,0,0, ,791.5,-4.3,602.6,0,0.3,-1.6,25,792.236,-6.11143,598.351,-0.400856,-0.36447,-1.73764,
2026_06_26_17_10_38.806,3.873,41.9,0,0.768,0,0,0,0, ,0,0,0,0,0, ,791.9,-5,601.3,-0.3,0,-1.6,25,792.203,-6.02238,598.571,-0.385569,-0.33312,-1.72926,
2026_06_26_17_10_38.826,3.873,41.9,0,0.769,0,0,0,0, ,0,0,0,0,0, ,790.2,-6.8,603.6,-0.5,-0.4,-1.7,25,792.133,-6.01492,598.807,-0.386449,-0.325008,-1.72443,
2026_06_26_17_10_38.846,3.873,42,0,0.769,0,0,0,0, ,0,0,0,0,0, ,791.9,-7.9,599.2,-0.3,-0.6,-1.9,25,792.067,-6.09628,598.965,-0.387274,-0.335671,-1.72903,
2026_06_26_17_10_38.866,3.873,42,0,0.77,0,0,0,0, ,0,0,0,0,0, ,791.2,-6.2,598.7,-0.1,-0.4,-2.2,25,792.036,-6.15439,598.964,-0.375862,-0.345685,-1.74859,
2026_06_26_17_10_38.886,3.873,41.9,0,0.769,0,0,0,0, ,0,0,0,0,0, ,792.2,-5.4,594.3,-0.2,0,-2.2,25,792.015,-6.1328,598.814,-0.362099,-0.336807,-1.7761,
2026_06_26_17_10_38.906,3.873,41.9,0,0.768,0,0,0,0, ,0,0,0,0,0, ,790.8,-3.9,599.6,0,0.3,-2.1,25,791.984,-6.04244,598.7,-0.346127,-0.307143,-1.79888,
2026_06_26_17_10_38.925,3.873,41.9,0,0.768,0,0,0,0, ,0,0,0,0,0, ,791.1,-5.9,599.3,0,0.4,-1.9,25,791.921,-5.97282,598.746,-0.325035,-0.267098,-1.81114,
2026_06_26_17_10_38.945,3.873,41.9,0,0.768,0,0,0,0, ,0,0,0,0,0, ,790.6,-4.1,599.1,0.1,0.5,-1.8,25,791.856,-5.91354,598.774,-0.302181,-0.2234,-1.81351,
2026_06_26_17_10_38.965,3.873,42,0,0.768,0,0,0,0, ,0,0,0,0,0, ,788.6,-4.3,604.1,0,0.4,-1.7,25,791.718,-5.80912,598.946,-0.28072,-0.182365,-1.80964,
2026_06_26_17_10_38.984,3.873,42,0,0.767,0,0,0,0, ,0,0,0,0,0, ,789.4,-3.4,606.8,-0.3,-0.5,-1.5,25,791.552,-5.68974,599.342,-0.272755,-0.174299,-1.79686,
2026_06_26_17_10_39.004,3.873,41.9,0,0.769,0,0,0,0, ,0,0,0,0,0, ,790.8,-4.5,605.5,-0.3,-1,-1.5,25,791.464,-5.58372,599.757,-0.274415,-0.20938,-1.77877,
2026_06_26_17_10_39.024,3.873,41.9,0,0.768,0,0,0,0, ,0,0,0,0,0, ,787.8,-3.9,602.7,-0.7,-1.3,-1.5,25,791.332,-5.4994,600.022,-0.288161,-0.266699,-1.76178,
2026_06_26_17_10_39.044,3.873,41.9,0,0.768,0,0,0,0, ,0,0,0,0,0, ,791.9,-5.4,600.5,-0.7,-1.2,-1.4,25,791.242,-5.44764,600.118,-0.313258,-0.326619,-1.74278,
2026_06_26_17_10_39.064,3.873,41.9,0,0.766,0,0,0,0, ,0,0,0,0,0, ,788.6,-5.9,601.1,-0.6,-0.9,-1.5,25,791.181,-5.45997,600.16,-0.333778,-0.3707,-1.72494,
2026_06_26_17_10_39.083,3.873,42,0,0.766,0,0,0,0, ,0,0,0,0,0, ,790.8,-6.5,596.6,-0.2,-0.8,-1.5,25,791.091,-5.50507,600.08,-0.337813,-0.399908,-1.71124,
2026_06_26_17_10_39.103,3.873,42,0,0.769,0,0,0,0, ,0,0,0,0,0, ,788.8,-4.5,600,0,-0.3,-1.5,25,791.012,-5.50476,599.971,-0.323322,-0.409054,-1.69836,
2026_06_26_17_10_39.123,3.873,41.9,0,0.769,0,0,0,0, ,0,0,0,0,0, ,792.2,-4.2,598,-0.2,-0.2,-1.6,25,790.981,-5.43439,599.912,-0.309713,-0.399361,-1.68932,
2026_06_26_17_10_39.142,3.873,41.9,0,0.767,0,0,0,0, ,0,0,0,0,0, ,791.6,-5.6,601.5,-0.1,0.1,-1.6,25,791.037,-5.40183,599.902,-0.299981,-0.378072,-1.68388,
2026_06_26_17_10_39.162,3.873,42,0,0.768,0,0,0,0, ,0,0,0,0,0, ,790,-5,602.5,-0.2,0,-1.9,25,791.023,-5.39562,600.03,-0.290841,-0.351987,-1.68791,
2026_06_26_17_10_39.187,3.873,41.8,0,0.768,0,0,0,0, ,0,0,0,0,0, ,790.1,-4.6,602,-0.1,-0.2,-1.9,25,790.963,-5.35933,600.165,-0.282259,-0.336631,-1.70083,
2026_06_26_17_10_39.206,3.873,41.9,0,0.769,0,0,0,0, ,0,0,0,0,0, ,789.3,-4.6,600.3,0.1,-0.2,-1.9,25,790.886,-5.31305,600.225,-0.265058,-0.328305,-1.71297,
2026_06_26_17_10_39.221,3.873,41.8,0,0.768,0,0,0,0, ,0,0,0,0,0, ,790.5,-3.4,600.5,0,0,-1.9,25,790.826,-5.23304,600.236,-0.24586,-0.314393,-1.72437,
2026_06_26_17_10_39.241,3.873,41.8,0,0.769,0,0,0,0, ,0,0,0,0,0, ,788.2,-2.5,604,-0.3,0,-1.8,25,790.736,-5.09392,600.359,-0.240018,-0.295235,-1.73202,
2026_06_26_17_10_39.261,3.873,41.9,0,0.766,0,0,0,0, ,0,0,0,0,0, ,789.9,-5.1,603.3,-0.7,-0.5,-1.6,25,790.634,-5.01507,600.559,-0.255861,-0.292478,-1.73007,
2026_06_26_17_10_39.281,3.873,41.9,0,0.77,0,0,0,0, ,0,0,0,0,0, ,789.1,-6.5,600.4,-0.4,-0.3,-1.8,25,790.565,-5.0629,600.638,-0.273785,-0.29903,-1.72824,
2026_06_26_17_10_39.301,3.873,41.9,0,0.769,0,0,0,0, ,0,0,0,0,0, ,790.5,-5.9,601.6,-0.7,-0.4,-2.1,25,790.518,-5.13219,600.66,-0.290617,-0.302136,-1.74175,
2026_06_26_17_10_39.321,3.873,41.8,0,0.768,0,0,0,0, ,0,0,0,0,0, ,789.3,-3.7,597,-0.3,-0.1,-1.9,25,790.48,-5.11195,600.577,-0.303376,-0.298959,-1.75749,
2026_06_26_17_10_39.341,3.873,41.9,0,0.768,0,0,0,0, ,0,0,0,0,0, ,790.2,-3.9,599.9,0,0.4,-1.7,25,790.436,-5.032,600.447,-0.29403,-0.271601,-1.76008,
2026_06_26_17_10_39.360,3.873,41.9,0,0.77,0,0,0,0, ,0,0,0,0,0, ,789.5,-3.5,604.9,-0.2,0,-1.5,25,790.4,-4.95083,600.566,-0.282206,-0.242863,-1.75032,
2026_06_26_17_10_39.380,3.873,41.8,0,0.769,0,0,0,0, ,0,0,0,0,0, ,788.6,-5.3,604,-0.4,-0.3,-1.4,25,790.318,-4.91727,600.803,-0.28329,-0.237204,-1.73202,
2026_06_26_17_10_39.400,3.873,41.9,0,0.769,0,0,0,0, ,0,0,0,0,0, ,788.9,-2.5,605.7,-1,-1,-1.4,25,790.222,-4.85528,601.05,-0.308684,-0.262358,-1.71179,
2026_06_26_17_10_39.423,3.873,41.8,0,0.769,0,0,0,0, ,0,0,0,0,0, ,788.8,-6.2,603.6,-1.2,-1.6,-1.4,25,790.139,-4.82449,601.269,-0.356904,-0.32559,-1.69279,
2026_06_26_17_10_39.443,3.873,41.8,0,0.767,0,0,0,0, ,0,0,0,0,0, ,789.6,-5.7,600.4,-1.1,-1.3,-1.7,25,790.081,-4.89307,601.314,-0.405234,-0.394108,-1.68409,
2026_06_26_17_10_39.459,3.873,41.8,0,0.769,0,0,0,0, ,0,0,0,0,0, ,790.6,-5.3,600.3,-0.8,-1.2,-1.7,25,790.083,-4.93006,601.255,-0.43843,-0.446264,-1.68506,
2026_06_26_17_10_39.479,3.873,41.8,0,0.768,0,0,0,0, ,0,0,0,0,0, ,790.6,-5,596.3,-0.1,-0.3,-1.6,25,790.114,-4.94346,601.075,-0.439135,-0.464773,-1.68292,
2026_06_26_17_10_39.498,3.873,41.8,0,0.769,0,0,0,0, ,0,0,0,0,0, ,790.1,-5.1,599.8,-0.3,0,-1.6,25,790.128,-4.94995,600.891,-0.424563,-0.445592,-1.67787,
2026_06_26_17_10_39.519,3.873,41.9,0,0.769,0,0,0,0, ,0,0,0,0,0, ,790,-4.8,599.7,-0.4,0.3,-1.8,25,790.124,-4.94996,600.821,-0.420019,-0.409298,-1.67922,
2026_06_26_17_10_39.538,3.873,41.8,0,0.768,0,0,0,0, ,0,0,0,0,0, ,788.4,-6.2,604.6,-0.1,0.3,-1.6,25,790.067,-4.98347,600.902,-0.409659,-0.366075,-1.68048,
2026_06_26_17_10_39.558,3.873,41.8,0,0.766,0,0,0,0, ,0,0,0,0,0, ,788.3,-7.5,601.8,0,-0.1,-1.8,25,789.963,-5.09722,601.042,-0.387742,-0.337674,-1.68167,
2026_06_26_17_10_39.578,3.873,41.8,0,0.769,0,0,0,0, ,0,0,0,0,0, ,787.5,-4.3,604.9,0,-0.2,-2,25,789.837,-5.14614,601.183,-0.364114,-0.326237,-1.69498,
2026_06_26_17_10_39.597,3.873,41.9,0,0.768,0,0,0,0, ,0,0,0,0,0, ,790,-4.5,598.8,-0.2,-0.2,-2.1,25,789.771,-5.10067,601.223,-0.34802,-0.318545,-1.71661,
2026_06_26_17_10_39.618,3.873,41.9,0,0.769,0,0,0,0, ,0,0,0,0,0, ,790.4,-2.6,600.2,-0.4,0.2,-1.9,25,789.797,-5.00617,601.118,-0.345093,-0.299133,-1.73388,
2026_06_26_17_10_39.637,3.873,41.9,0,0.769,0,0,0,0, ,0,0,0,0,0, ,788.8,-2.8,603.2,-0.4,0.2,-1.8,25,789.785,-4.86564,601.154,-0.348439,-0.268717,-1.74096,
2026_06_26_17_10_39.661,3.873,41.9,0,0.768,0,0,0,0, ,0,0,0,0,0, ,788.3,-4.7,606.4,-0.6,0,-1.6,25,789.71,-4.79766,601.376,-0.357675,-0.246249,-1.73846,
2026_06_26_17_10_39.681,3.873,41.8,0,0.768,0,0,0,0, ,0,0,0,0,0, ,787.4,-3.4,610.2,-0.5,-0.9,-1.6,25,789.596,-4.7521,601.798,-0.369395,-0.258665,-1.73002,
2026_06_26_17_10_39.696,3.873,41.8,0,0.768,0,0,0,0, ,0,0,0,0,0, ,789.5,-5.6,602.7,-0.6,-1.3,-1.7,25,789.527,-4.73673,602.081,-0.3804,-0.309934,-1.72515,
2026_06_26_17_10_39.716,3.873,41.8,0,0.77,0,0,0,0, ,0,0,0,0,0, ,789.9,-5.2,601.6,-0.5,-1.1,-1.8,25,789.537,-4.77715,602.086,-0.390735,-0.364172,-1.72666,
2026_06_26_17_10_39.736,3.873,41.8,0,0.768,0,0,0,0, ,0,0,0,0,0, ,789.7,-5.9,598.7,-0.6,-0.7,-1.9,25,789.553,-4.82425,601.968,-0.400441,-0.396824,-1.73418,
2026_06_26_17_10_39.756,3.873,41.8,0,0.768,0,0,0,0, ,0,0,0,0,0, ,789.1,-5,600.8,-0.5,-0.4,-2.1,25,789.544,-4.86238,601.832,-0.409554,-0.406158,-1.75038,
2026_06_26_17_10_39.775,3.873,41.8,0,0.771,0,0,0,0, ,0,0,0,0,0, ,789.1,-5,598.3,-0.1,0.1,-1.9,25,789.517,-4.87077,601.693,-0.402878,-0.390549,-1.76559,
2026_06_26_17_10_39.797,3.873,41.7,0,0.77,0,0,0,0, ,0,0,0,0,0, ,789.4,-4,602.1,0,0.2,-1.8,25,789.5,-4.84817,601.602,-0.381375,-0.357609,-1.77073,
2026_06_26_17_10_39.815,3.873,41.8,0,0.768,0,0,0,0, ,0,0,0,0,0, ,788.4,-4.1,602.9,-0.1,0.2,-1.8,25,789.464,-4.79953,601.657,-0.361182,-0.32363,-1.77252,
2026_06_26_17_10_39.835,3.873,41.9,0,0.769,0,0,0,0, ,0,0,0,0,0, ,787.9,-3.4,607.6,-0.5,-0.1,-1.9,25,789.384,-4.73558,601.876,-0.357453,-0.300862,-1.77724,
2026_06_26_17_10_39.855,3.873,41.7,0,0.769,0,0,0,0, ,0,0,0,0,0, ,789,-3,605.1,-1,-0.8,-1.8,25,789.327,-4.642,602.149,-0.381374,-0.30995,-1.78167,
2026_06_26_17_10_39.874,3.873,41.7,0,0.769,0,0,0,0, ,0,0,0,0,0, ,789.7,-5.4,606.2,-0.8,-1.1,-1.7,25,789.328,-4.61507,602.362,-0.412978,-0.348953,-1.77974,
2026_06_26_17_10_39.900,3.873,41.9,0,0.768,0,0,0,0, ,0,0,0,0,0, ,789.4,-2.8,602.2,-0.6,-1.3,-1.5,25,789.342,-4.58368,602.474,-0.430468,-0.400813,-1.76879,
2026_06_26_17_10_39.920,3.873,41.8,0,0.769,0,0,0,0, ,0,0,0,0,0, ,788.3,-2.8,601.5,-0.7,-1.2,-1.5,25,789.312,-4.47499,602.436,-0.443846,-0.452561,-1.75241,
2026_06_26_17_10_39.934,3.873,41.7,0,0.767,0,0,0,0, ,0,0,0,0,0, ,788.3,-3,604.4,-1.1,-1.3,-1.5,25,789.25,-4.37901,602.467,-0.471643,-0.501155,-1.73703,
2026_06_26_17_10_39.954,3.873,41.9,0,0.769,0,0,0,0, ,0,0,0,0,0, ,790.4,-8.4,598.7,-0.9,-1.1,-1.5,25,789.256,-4.45951,602.411,-0.50384,-0.543741,-1.72258,
2026_06_26_17_10_39.973,3.873,41.8,0,0.769,0,0,0,0, ,0,0,0,0,0, ,791.3,-5.1,596.9,-0.3,-0.4,-1.8,25,789.353,-4.59909,602.13,-0.5097,-0.55631,-1.71816,
2026_06_26_17_10_39.994,3.873,41.7,0,0.769,0,0,0,0, ,0,0,0,0,0, ,790.6,-7.2,602.5,-0.2,-0.1,-1.8,25,789.451,-4.6936,601.982,-0.493874,-0.537644,-1.72315,
2026_06_26_17_10_40.013,3.873,41.8,0,0.769,0,0,0,0, ,0,0,0,0,0, ,788.9,-6.7,603.7,-0.4,-0.2,-1.9,25,789.469,-4.8311,602.05,-0.48206,-0.514022,-1.73088,
2026_06_26_17_10_40.033,3.873,41.7,0,0.769,0,0,0,0, ,0,0,0,0,0, ,790.2,-4.6,602.2,-0.5,-0.4,-1.9,25,789.474,-4.881,602.105,-0.480106,-0.50098,-1.74118,
2026_06_26_17_10_40.053,3.873,41.8,0,0.768,0,0,0,0, ,0,0,0,0,0, ,790.1,-5,601.6,-0.4,-0.3,-1.8,25,789.515,-4.87606,602.093,-0.478272,-0.491779,-1.74781,
2026_06_26_17_10_40.073,3.873,41.7,0,0.769,0,0,0,0, ,0,0,0,0,0, ,788.2,-5.6,598,-0.2,0,-2,25,789.493,-4.9019,601.953,-0.467408,-0.470952,-1.75709,
2026_06_26_17_10_40.092,3.873,41.7,0,0.768,0,0,0,0, ,0,0,0,0,0, ,789.1,-3.1,603.2,-0.3,0,-1.9,25,789.441,-4.86826,601.871,-0.45416,-0.442254,-1.76884,
2026_06_26_17_10_40.113,3.873,41.8,0,0.769,0,0,0,0, ,0,0,0,0,0, ,788.8,-4.2,602.6,-0.3,-0.2,-1.9,25,789.412,-4.79403,601.933,-0.444766,-0.421398,-1.77684,
2026_06_26_17_10_40.132,3.873,41.7,0,0.769,0,0,0,0, ,0,0,0,0,0, ,788.4,-5.1,602.1,0.3,-0.1,-2,25,789.362,-4.78525,601.959,-0.417663,-0.404859,-1.78739,
2026_06_26_17_10_40.152,3.873,41.7,0,0.768,0,0,0,0, ,0,0,0,0,0, ,790.6,-5.3,602.4,0.6,-0.1,-2,25,789.37,-4.81052,601.976,-0.36479,-0.386282,-1.80034,
2026_06_26_17_10_40.172,3.873,41.8,0,0.768,0,0,0,0, ,0,0,0,0,0, ,789.4,-1.8,598,0,0.5,-1.8,25,789.409,-4.73371,601.868,-0.324279,-0.350555,-1.80642,
2026_06_26_17_10_40.195,3.873,41.6,0,0.768,0,0,0,0, ,0,0,0,0,0, ,788,-1.9,608.3,-0.5,0.3,-1.6,25,789.366,-4.55798,601.946,-0.319753,-0.304818,-1.79993,
2026_06_26_17_10_40.211,3.873,41.6,0,0.768,0,0,0,0, ,0,0,0,0,0, ,787.9,-4.2,607.7,-1,-0.5,-1.4,25,789.279,-4.46609,602.315,-0.345971,-0.292337,-1.78166,
2026_06_26_17_10_40.232,3.873,41.7,0,0.767,0,0,0,0, ,0,0,0,0,0, ,789,-6.1,607.1,-0.7,-1.1,-1.5,25,789.229,-4.50777,602.625,-0.376685,-0.323273,-1.76145,
2026_06_26_17_10_40.251,3.873,41.8,0,0.768,0,0,0,0, ,0,0,0,0,0, ,787.8,-4.5,607.2,-0.9,-2.1,-1.6,25,789.178,-4.55604,602.901,-0.402481,-0.401074,-1.74856,
2026_06_26_17_10_40.272,3.873,41.7,0,0.768,0,0,0,0, ,0,0,0,0,0, ,790.4,-5.6,601.3,-1.3,-2.5,-1.8,25,789.174,-4.58614,602.983,-0.444986,-0.516789,-1.7456,
2026_06_26_17_10_40.290,3.873,41.6,0,0.768,0,0,0,0, ,0,0,0,0,0, ,790.8,-4.6,594.1,-1.2,-1.6,-1.7,25,789.26,-4.61746,602.661,-0.494041,-0.610219,-1.74587,
2026_06_26_17_10_40.312,3.873,41.6,0,0.768,0,0,0,0, ,0,0,0,0,0, ,790,-4.6,598.8,-1.1,-1.3,-1.7,25,789.33,-4.61639,602.283,-0.534014,-0.661393,-1.74307,
2026_06_26_17_10_40.330,3.873,41.8,0,0.768,0,0,0,0, ,0,0,0,0,0, ,791.6,-4.8,597.1,-0.8,-0.5,-1.4,25,789.42,-4.62149,602.019,-0.559363,-0.675934,-1.73131,
2026_06_26_17_10_40.350,3.873,41.7,0,0.768,0,0,0,0, ,0,0,0,0,0, ,789.1,-4.3,601.9,-0.5,-0.1,-1.4,25,789.476,-4.61713,601.865,-0.564886,-0.653025,-1.71112,
2026_06_26_17_10_40.369,3.873,41.6,0,0.768,0,0,0,0, ,0,0,0,0,0, ,789.7,-5.4,605.7,-0.8,-0.7,-1.4,25,789.472,-4.63132,601.983,-0.570073,-0.637606,-1.69216,
2026_06_26_17_10_40.390,3.873,41.7,0,0.769,0,0,0,0, ,0,0,0,0,0, ,789.4,-5.9,603.6,-0.9,-1.3,-1.6,25,789.476,-4.6934,602.146,-0.587131,-0.65969,-1.68045,
2026_06_26_17_10_40.413,3.873,41.8,0,0.769,0,0,0,0, ,0,0,0,0,0, ,790.1,-7.6,598.3,-0.4,-1.2,-2,25,789.493,-4.81872,602.073,-0.590962,-0.695662,-1.68774,
2026_06_26_17_10_40.434,3.873,41.6,0,0.769,0,0,0,0, ,0,0,0,0,0, ,791.3,-5.3,598,-0.8,-1.1,-2.1,25,789.567,-4.91813,601.834,-0.591513,-0.723348,-1.70981,
2026_06_26_17_10_40.449,3.873,41.7,0,0.769,0,0,0,0, ,0,0,0,0,0, ,791.2,-5.6,595.9,-0.9,-0.6,-2,25,789.669,-4.95054,601.536,-0.607264,-0.731066,-1.73054,
2026_06_26_17_10_40.469,3.873,41.7,0,0.768,0,0,0,0, ,0,0,0,0,0, ,792.2,-7,597.6,-0.3,0,-1.9,25,789.793,-5.03277,601.244,-0.606822,-0.704798,-1.74391,
2026_06_26_17_10_40.488,3.873,41.7,0,0.769,0,0,0,0, ,0,0,0,0,0, ,789.7,-4.6,596.1,0,0.5,-2,25,789.863,-5.07952,600.977,-0.578984,-0.646615,-1.75647,
2026_06_26_17_10_40.508,3.873,41.7,0,0.768,0,0,0,0, ,0,0,0,0,0, ,788.8,-3,601.4,0.1,1.1,-1.6,25,789.826,-5.00155,600.841,-0.540655,-0.558462,-1.75913,
2026_06_26_17_10_40.528,3.873,41.7,0,0.768,0,0,0,0, ,0,0,0,0,0, ,788.2,-4.6,609.7,-0.4,0,-1.7,25,789.745,-4.92833,601.128,-0.51685,-0.490915,-1.75248,
2026_06_26_17_10_40.549,3.873,41.7,0,0.768,0,0,0,0, ,0,0,0,0,0, ,787.1,-5.3,609.6,-0.7,-1,-1.8,25,789.618,-4.92965,601.647,-0.51887,-0.491468,-1.75232,
2026_06_26_17_10_40.567,3.873,41.6,0,0.768,0,0,0,0, ,0,0,0,0,0, ,789.5,-5.3,601.4,-0.8,-1.6,-2,25,789.537,-4.95222,601.882,-0.532954,-0.540738,-1.76132,
2026_06_26_17_10_40.588,3.873,41.7,0,0.769,0,0,0,0, ,0,0,0,0,0, ,790.7,-5.9,597.4,-0.6,-1.1,-2.1,25,789.572,-4.9917,601.731,-0.543134,-0.590053,-1.77891,
2026_06_26_17_10_40.607,3.873,41.7,0,0.769,0,0,0,0, ,0,0,0,0,0, ,791.2,-5.4,597.1,-0.6,-0.6,-2,25,789.656,-5.03181,601.458,-0.546599,-0.605893,-1.79543,
2026_06_26_17_10_40.629,3.873,41.7,0,0.766,0,0,0,0, ,0,0,0,0,0, ,789,-3.5,597.1,-0.1,0,-2,25,789.683,-4.99636,601.192,-0.534619,-0.587253,-1.8079,
2026_06_26_17_10_40.646,3.873,41.7,0,0.768,0,0,0,0, ,0,0,0,0,0, ,790.1,-5.3,601.1,0,0.2,-1.8,25,789.675,-4.96002,601.065,-0.505087,-0.545373,-1.81351,
2026_06_26_17_10_40.667,3.873,41.7,0,0.768,0,0,0,0, ,0,0,0,0,0, ,787.9,-3.2,600.8,0.1,0.4,-1.8,25,789.633,-4.91675,601.058,-0.471262,-0.493858,-1.81269,
2026_06_26_17_10_40.686,3.873,41.8,0,0.77,0,0,0,0, ,0,0,0,0,0, ,789.3,-4.5,608.1,-0.2,0.2,-1.8,25,789.57,-4.85175,601.264,-0.445591,-0.445483,-1.81192,
2026_06_26_17_10_40.707,3.873,41.7,0,0.768,0,0,0,0, ,0,0,0,0,0, ,788.4,-3.2,603,-0.1,-0.3,-1.8,25,789.527,-4.7907,601.526,-0.427578,-0.421383,-1.81119,
2026_06_26_17_10_40.726,3.873,41.7,0,0.769,0,0,0,0, ,0,0,0,0,0, ,789.3,-2.3,605.9,-0.4,-0.7,-1.7,25,789.485,-4.66635,601.704,-0.416757,-0.426174,-1.80746,
2026_06_26_17_10_40.747,3.873,41.7,0,0.768,0,0,0,0, ,0,0,0,0,0, ,789.6,-2.6,603.8,-0.9,-1.2,-1.7,25,789.483,-4.53129,601.895,-0.430971,-0.458094,-1.80091,
2026_06_26_17_10_40.765,3.873,41.7,0,0.769,0,0,0,0, ,0,0,0,0,0, ,789.9,-4.6,604.1,-0.8,-1.4,-1.5,25,789.499,-4.47454,602.021,-0.456505,-0.509398,-1.78867,
2026_06_26_17_10_40.786,3.873,41.6,0,0.769,0,0,0,0, ,0,0,0,0,0, ,788.9,-4.7,602.2,-0.6,-1.4,-1.4,25,789.493,-4.48523,602.089,-0.471343,-0.563669,-1.76803,
2026_06_26_17_10_40.805,3.873,41.7,0,0.768,0,0,0,0, ,0,0,0,0,0, ,790.5,-5.1,596.6,-0.5,-0.9,-1.4,25,789.506,-4.5105,601.926,-0.476136,-0.599399,-1.7456,
2026_06_26_17_10_40.828,3.873,41.7,0,0.766,0,0,0,0, ,0,0,0,0,0, ,789.1,-6.4,602.5,-0.8,-0.5,-1.7,25,789.524,-4.58604,601.781,-0.486731,-0.605529,-1.73369,
2026_06_26_17_10_40.845,3.873,41.7,0,0.768,0,0,0,0, ,0,0,0,0,0, ,789.6,-6.9,599.3,-0.5,-0.4,-1.8,25,789.513,-4.71181,601.727,-0.49668,-0.596051,-1.73468,
2026_06_26_17_10_40.867,3.873,41.7,0,0.768,0,0,0,0, ,0,0,0,0,0, ,791.2,-6.1,599.8,0,0,-1.9,25,789.567,-4.82078,601.594,-0.481648,-0.571917,-1.74171,
2026_06_26_17_10_40.884,3.873,41.7,0,0.768,0,0,0,0, ,0,0,0,0,0, ,787.3,-2.5,604.6,0,0,-1.9,25,789.548,-4.78904,601.631,-0.452298,-0.537066,-1.75135,
2026_06_26_17_10_40.905,3.873,41.7,0,0.769,0,0,0,0, ,0,0,0,0,0, ,789,-2.9,603.8,-0.6,-0.2,-1.9,25,789.463,-4.66174,601.788,-0.443017,-0.510432,-1.76041,
2026_06_26_17_10_40.926,3.873,41.7,0,0.768,0,0,0,0, ,0,0,0,0,0, ,789,-5,603.8,-0.6,-0.7,-1.8,25,789.435,-4.61837,601.911,-0.452583,-0.50675,-1.76587,
2026_06_26_17_10_40.948,3.873,41.6,0,0.768,0,0,0,0, ,0,0,0,0,0, ,788.9,-5.3,598.3,0,-0.1,-1.7,25,789.405,-4.65077,601.858,-0.443285,-0.500245,-1.7649,
2026_06_26_17_10_40.964,3.873,41.7,0,0.769,0,0,0,0, ,0,0,0,0,0, ,790.2,-4.1,602.9,-0.3,-0.2,-1.8,25,789.414,-4.65377,601.781,-0.425413,-0.478902,-1.76399,
2026_06_26_17_10_40.986,3.873,41.7,0,0.769,0,0,0,0, ,0,0,0,0,0, ,788.2,-4.1,601.9,-0.3,-0.1,-1.9,25,789.401,-4.62002,601.819,-0.417771,-0.458859,-1.76924,
2026_06_26_17_10_41.003,3.873,41.7,0,0.77,0,0,0,0, ,0,0,0,0,0, ,788.4,-4.1,606.2,-0.4,-0.3,-2,25,789.334,-4.58833,601.955,-0.413641,-0.443085,-1.78025,
2026_06_26_17_10_41.025,3.873,41.7,0,0.769,0,0,0,0, ,0,0,0,0,0, ,789.7,-2.6,601.1,-0.8,-0.4,-1.9,25,789.316,-4.51287,602.058,-0.424997,-0.437413,-1.7906,
2026_06_26_17_10_41.042,3.873,41.7,0,0.769,0,0,0,0, ,0,0,0,0,0, ,789.3,-5.2,601.1,-0.6,-0.2,-1.7,25,789.328,-4.47552,602,-0.441755,-0.429039,-1.79117,
2026_06_26_17_10_41.064,3.873,41.7,0,0.769,0,0,0,0, ,0,0,0,0,0, ,790,-6.9,600.2,-0.2,-0.3,-1.9,25,789.347,-4.57147,601.918,-0.439211,-0.418129,-1.79171,
2026_06_26_17_10_41.081,3.873,41.6,0,0.768,0,0,0,0, ,0,0,0,0,0, ,790.4,-6.1,598.6,0.4,0,-1.8,25,789.399,-4.68899,601.764,-0.406353,-0.40179,-1.79526,
2026_06_26_17_10_41.104,3.873,41.6,0,0.768,0,0,0,0, ,0,0,0,0,0, ,787.8,-2.9,609.1,-0.3,-0.2,-1.8,25,789.381,-4.67747,601.891,-0.378544,-0.383399,-1.79555,
2026_06_26_17_10_41.121,3.873,41.6,0,0.768,0,0,0,0, ,0,0,0,0,0, ,788.3,-1.9,608.2,-1.3,-1.3,-1.6,25,789.3,-4.53869,602.303,-0.404226,-0.405739,-1.78973,
2026_06_26_17_10_41.144,3.873,41.6,0,0.766,0,0,0,0, ,0,0,0,0,0, ,789,-4.8,604.1,-1.2,-1.7,-1.5,25,789.26,-4.46625,602.538,-0.455765,-0.472421,-1.77512,
2026_06_26_17_10_41.161,3.873,41.7,0,0.768,0,0,0,0, ,0,0,0,0,0, ,790.4,-6.9,598,-1.4,-1.7,-1.6,25,789.287,-4.55058,602.447,-0.507211,-0.547226,-1.7614,
2026_06_26_17_10_41.187,3.873,41.6,0,0.768,0,0,0,0, ,0,0,0,0,0, ,789.7,-6.7,598.3,-0.8,-1.3,-1.7,25,789.334,-4.68765,602.185,-0.543334,-0.605286,-1.75461,
2026_06_26_17_10_41.200,3.873,41.6,0,0.769,0,0,0,0, ,0,0,0,0,0, ,791,-5.3,600.3,-0.5,-1.1,-1.6,25,789.396,-4.76762,602.009,-0.549834,-0.641526,-1.74824,
2026_06_26_17_10_41.222,3.873,41.7,0,0.769,0,0,0,0, ,0,0,0,0,0, ,788.9,-4.2,597.9,-0.7,-0.7,-1.5,25,789.429,-4.76655,601.832,-0.552891,-0.657277,-1.73616,
2026_06_26_17_10_41.240,3.873,41.6,0,0.766,0,0,0,0, ,0,0,0,0,0, ,790.5,-6.3,600.3,-1,-0.5,-1.4,25,789.446,-4.79601,601.666,-0.570996,-0.653787,-1.71872,
2026_06_26_17_10_41.263,3.873,41.6,0,0.768,0,0,0,0, ,0,0,0,0,0, ,789.6,-6.7,602.2,-0.3,-0.4,-1.6,25,789.483,-4.89984,601.64,-0.57581,-0.641368,-1.70539,
2026_06_26_17_10_41.280,3.873,41.7,0,0.768,0,0,0,0, ,0,0,0,0,0, ,789.4,-6.4,601.8,-0.2,-0.6,-1.9,25,789.484,-5.0004,601.662,-0.555956,-0.632754,-1.70811,
2026_06_26_17_10_41.301,3.873,41.6,0,0.769,0,0,0,0, ,0,0,0,0,0, ,791,-6.1,597.5,-0.1,-0.3,-2.1,25,789.527,-5.07655,601.54,-0.531218,-0.621617,-1.7259,
2026_06_26_17_10_41.319,3.873,41.6,0,0.768,0,0,0,0, ,0,0,0,0,0, ,789.3,-6.2,598.5,0,0.1,-2.1,25,789.565,-5.14196,601.324,-0.501894,-0.589831,-1.74869,
2026_06_26_17_10_41.341,3.873,41.5,0,0.769,0,0,0,0, ,0,0,0,0,0, ,790.4,-6.1,600.8,0.1,0.7,-1.9,25,789.583,-5.20339,601.222,-0.468263,-0.529513,-1.76401,
2026_06_26_17_10_41.358,3.873,41.6,0,0.768,0,0,0,0, ,0,0,0,0,0, ,788.2,-3.7,600.9,0.4,1,-1.8,25,789.565,-5.1849,601.199,-0.424494,-0.445449,-1.76925,
2026_06_26_17_10_41.381,3.873,41.6,0,0.769,0,0,0,0, ,0,0,0,0,0, ,788.5,-3.7,609.3,-0.1,0.2,-1.9,25,789.491,-5.09442,601.437,-0.389486,-0.381742,-1.77417,
2026_06_26_17_10_41.398,3.873,41.5,0,0.768,0,0,0,0, ,0,0,0,0,0, ,788.8,-3,607.9,-0.9,-0.9,-1.8,25,789.44,-4.98811,601.873,-0.39622,-0.379808,-1.77879,
2026_06_26_17_10_41.420,3.873,41.6,0,0.768,0,0,0,0, ,0,0,0,0,0, ,787.1,-6.5,605.1,-1.3,-1.8,-1.7,25,789.349,-4.9736,602.155,-0.439107,-0.438929,-1.77703,
2026_06_26_17_10_41.438,3.873,41.6,0,0.768,0,0,0,0, ,0,0,0,0,0, ,791.3,-6.3,601.3,-0.9,-1.6,-1.9,25,789.34,-5.06053,602.219,-0.47938,-0.515775,-1.77843,
2026_06_26_17_10_41.461,3.873,41.6,0,0.768,0,0,0,0, ,0,0,0,0,0, ,790.5,-5.4,597,-0.7,-1.1,-2.1,25,789.435,-5.10863,602.032,-0.498918,-0.566611,-1.79194,
2026_06_26_17_10_41.478,3.873,41.6,0,0.768,0,0,0,0, ,0,0,0,0,0, ,790.7,-4.3,598.7,-0.3,-0.3,-2,25,789.506,-5.09287,601.777,-0.498984,-0.574739,-1.80766,
2026_06_26_17_10_41.500,3.873,41.6,0,0.768,0,0,0,0, ,0,0,0,0,0, ,789,-1.9,600.3,-0.3,0.3,-2,25,789.527,-4.97143,601.638,-0.486858,-0.539716,-1.81938,
2026_06_26_17_10_41.517,3.873,41.5,0,0.769,0,0,0,0, ,0,0,0,0,0, ,791.1,-6.5,602.1,0,0.3,-1.7,25,789.559,-4.92442,601.612,-0.466331,-0.488546,-1.82125,
2026_06_26_17_10_41.540,3.873,41.6,0,0.768,0,0,0,0, ,0,0,0,0,0, ,788.2,-5.2,602.1,0.1,0.6,-1.8,25,789.565,-4.98083,601.641,-0.434867,-0.431353,-1.81691,
2026_06_26_17_10_41.556,3.873,41.6,0,0.769,0,0,0,0, ,0,0,0,0,0, ,789.1,-3.6,607,0,0.2,-1.7,25,789.509,-4.94543,601.819,-0.40532,-0.380693,-1.81283,
2026_06_26_17_10_41.579,3.873,41.6,0,0.769,0,0,0,0, ,0,0,0,0,0, ,786.9,-4,612,-0.7,-0.6,-1.7,25,789.417,-4.87563,602.287,-0.401949,-0.369682,-1.80595,
2026_06_26_17_10_41.596,3.873,41.6,0,0.769,0,0,0,0, ,0,0,0,0,0, ,787.3,-4.2,605.8,-0.8,-1.5,-1.6,25,789.276,-4.82837,602.69,-0.423159,-0.411139,-1.79645,
2026_06_26_17_10_41.619,3.873,41.6,0,0.769,0,0,0,0, ,0,0,0,0,0, ,790,-4.7,599.8,-1.1,-1.4,-1.6,25,789.238,-4.80531,602.696,-0.455263,-0.474444,-1.78448,
2026_06_26_17_10_41.636,3.873,41.6,0,0.768,0,0,0,0, ,0,0,0,0,0, ,790.5,-6.1,601.6,-0.7,-1.2,-1.5,25,789.299,-4.84155,602.575,-0.482364,-0.524752,-1.77019,
2026_06_26_17_10_41.659,3.873,41.6,0,0.769,0,0,0,0, ,0,0,0,0,0, ,790.4,-6.4,599.9,-0.7,-1.1,-1.5,25,789.369,-4.92738,602.464,-0.495626,-0.562853,-1.75373,
2026_06_26_17_10_41.675,3.873,41.5,0,0.77,0,0,0,0, ,0,0,0,0,0, ,790.2,-6.2,599.1,0,-0.6,-1.7,25,789.426,-5.01102,602.283,-0.486752,-0.580351,-1.74436,
2026_06_26_17_10_41.698,3.873,41.5,0,0.768,0,0,0,0, ,0,0,0,0,0, ,791.2,-5.6,596.6,0,-0.1,-1.6,25,789.504,-5.06519,602.013,-0.457091,-0.566314,-1.73861,
2026_06_26_17_10_41.715,3.873,41.6,0,0.768,0,0,0,0, ,0,0,0,0,0, ,790,-5.2,601.1,0,0.6,-1.6,25,789.571,-5.0856,601.82,-0.429237,-0.51657,-1.73016,
2026_06_26_17_10_41.738,3.873,41.6,0,0.769,0,0,0,0, ,0,0,0,0,0, ,788,-4.7,606.3,-0.5,0,-1.7,25,789.536,-5.07733,601.935,-0.418315,-0.46681,-1.72528,
2026_06_26_17_10_41.754,3.873,41.5,0,0.768,0,0,0,0, ,0,0,0,0,0, ,789.5,-4.8,604.4,-0.2,0,-1.8,25,789.488,-5.05739,602.143,-0.414152,-0.438364,-1.72678,
2026_06_26_17_10_41.777,3.873,41.5,0,0.77,0,0,0,0, ,0,0,0,0,0, ,787.1,-5.2,605.7,-0.7,-0.4,-1.9,25,789.415,-5.05389,602.32,-0.416336,-0.423838,-1.73429,
2026_06_26_17_10_41.800,3.873,41.5,0,0.769,0,0,0,0, ,0,0,0,0,0, ,788.4,-4.6,604.4,-0.6,-1.1,-2,25,789.314,-5.04451,602.486,-0.430575,-0.443714,-1.74744,
2026_06_26_17_10_41.823,3.873,41.5,0,0.769,0,0,0,0, ,0,0,0,0,0, ,789,-5.1,599.6,-0.4,-1.2,-1.8,25,789.277,-5.03266,602.457,-0.434806,-0.486753,-1.75673,
2026_06_26_17_10_41.834,3.873,41.5,0,0.768,0,0,0,0, ,0,0,0,0,0, ,789.4,-3.4,598.2,-0.3,-0.4,-1.7,25,789.272,-4.98496,602.24,-0.429638,-0.505842,-1.75632,
2026_06_26_17_10_41.857,3.873,41.5,0,0.768,0,0,0,0, ,0,0,0,0,0, ,791.1,-6.9,601.6,-0.5,-0.2,-1.7,25,789.332,-4.99502,602.097,-0.427832,-0.493298,-1.75289,
2026_06_26_17_10_41.874,3.873,41.5,0,0.768,0,0,0,0, ,0,0,0,0,0, ,788.2,-5.1,601.5,0,0.1,-1.7,25,789.351,-5.05626,602.064,-0.416995,-0.466285,-1.74967,
2026_06_26_17_10_41.897,3.873,41.5,0,0.768,0,0,0,0, ,0,0,0,0,0, ,789.3,-2.3,602.5,-0.4,0,-1.6,25,789.314,-4.97362,602.06,-0.403772,-0.434824,-1.74359,
2026_06_26_17_10_41.913,3.873,41.5,0,0.769,0,0,0,0, ,0,0,0,0,0, ,790,-5.3,604.9,-0.4,-0.5,-1.8,25,789.335,-4.9021,602.16,-0.403542,-0.423561,-1.74094,
2026_06_26_17_10_41.936,3.873,41.5,0,0.769,0,0,0,0, ,0,0,0,0,0, ,788,-5.3,599.3,0,-0.4,-1.9,25,789.314,-4.92635,602.156,-0.391139,-0.425172,-1.74758,
2026_06_26_17_10_41.953,3.873,41.4,0,0.769,0,0,0,0, ,0,0,0,0,0, ,791.3,-3.9,601.8,0,0.1,-1.9,25,789.335,-4.90646,602.058,-0.367304,-0.408404,-1.75687,
2026_06_26_17_10_41.975,3.873,41.5,0,0.768,0,0,0,0, ,0,0,0,0,0, ,786.1,-3.2,607,-0.2,0,-1.8,25,789.296,-4.8238,602.201,-0.351015,-0.38047,-1.76255,
2026_06_26_17_10_41.992,3.873,41.5,0,0.768,0,0,0,0, ,0,0,0,0,0, ,789.4,-4.3,607.6,-0.9,-0.9,-1.7,25,789.202,-4.75836,602.512,-0.363141,-0.384707,-1.76178,
2026_06_26_17_10_42.016,3.873,41.5,0,0.768,0,0,0,0, ,0,0,0,0,0, ,788.6,-4.7,601.9,-1,-1.2,-1.7,25,789.19,-4.74262,602.648,-0.398902,-0.425248,-1.75802,
2026_06_26_17_10_42.031,3.873,41.5,0,0.768,0,0,0,0, ,0,0,0,0,0, ,790.5,-3.4,600,-0.7,-0.9,-1.5,25,789.212,-4.70041,602.545,-0.426391,-0.463319,-1.74839,
2026_06_26_17_10_42.054,3.873,41.5,0,0.77,0,0,0,0, ,0,0,0,0,0, ,789,-4.6,602.1,0,-0.6,-1.4,25,789.244,-4.65773,602.454,-0.421736,-0.480789,-1.73021,
2026_06_26_17_10_42.071,3.873,41.5,0,0.769,0,0,0,0, ,0,0,0,0,0, ,789.1,-4.2,599.8,-0.1,-0.3,-1.5,25,789.233,-4.64203,602.362,-0.399083,-0.478912,-1.71313,
2026_06_26_17_10_42.094,3.873,41.5,0,0.77,0,0,0,0, ,0,0,0,0,0, ,789.1,-4.5,603.6,-0.5,-0.3,-1.5,25,789.224,-4.62423,602.322,-0.393045,-0.46801,-1.70014,
2026_06_26_17_10_42.111,3.873,41.5,0,0.769,0,0,0,0, ,0,0,0,0,0, ,789.3,-6.9,604.8,-0.4,-0.4,-1.6,25,789.223,-4.68979,602.436,-0.396516,-0.460819,-1.69099,
2026_06_26_17_10_42.135,3.873,41.4,0,0.768,0,0,0,0, ,0,0,0,0,0, ,789.3,-2.3,599.9,-0.7,-0.7,-1.9,25,789.228,-4.68431,602.431,-0.405869,-0.466253,-1.69459,
2026_06_26_17_10_42.150,3.873,41.5,0,0.769,0,0,0,0, ,0,0,0,0,0, ,789.3,-4.6,601.8,-0.6,-0.1,-2,25,789.232,-4.6091,602.335,-0.420746,-0.462216,-1.71015,
2026_06_26_17_10_42.174,3.873,41.3,0,0.768,0,0,0,0, ,0,0,0,0,0, ,789.7,-4.3,603.1,-0.9,-0.4,-2,25,789.248,-4.5994,602.342,-0.44081,-0.449284,-1.72782,
2026_06_26_17_10_42.189,3.873,41.5,0,0.769,0,0,0,0, ,0,0,0,0,0, ,789.4,-5.9,599.3,-0.4,0,-2.1,25,789.267,-4.62991,602.272,-0.453557,-0.434093,-1.74745,
2026_06_26_17_10_42.214,3.873,41.5,0,0.77,0,0,0,0, ,0,0,0,0,0, ,788,-4.7,602.7,0,0.3,-2.1,25,789.232,-4.67074,602.195,-0.438106,-0.3985,-1.76893,
2026_06_26_17_10_42.230,3.873,41.5,0,0.768,0,0,0,0, ,0,0,0,0,0, ,788.2,-3.4,602.6,0.4,0.6,-2,25,789.163,-4.63292,602.222,-0.399222,-0.346795,-1.78606,
2026_06_26_17_10_42.254,3.873,41.4,0,0.768,0,0,0,0, ,0,0,0,0,0, ,787.7,-2.8,605.7,0,0.2,-1.9,25,789.089,-4.5395,602.34,-0.362706,-0.301287,-1.79605,
2026_06_26_17_10_42.269,3.873,41.5,0,0.768,0,0,0,0, ,0,0,0,0,0, ,787.3,-3.6,607.6,-0.3,0,-1.7,25,788.992,-4.45788,602.602,-0.349745,-0.276833,-1.79629,
2026_06_26_17_10_42.293,3.873,41.5,0,0.769,0,0,0,0, ,0,0,0,0,0, ,787.1,-3.2,608.7,-0.8,-0.4,-1.8,25,788.883,-4.39341,602.94,-0.361948,-0.272151,-1.79347,
2026_06_26_17_10_42.308,3.873,41.4,0,0.768,0,0,0,0, ,0,0,0,0,0, ,786.8,-5.8,606.3,-0.8,-1.1,-1.8,25,788.765,-4.39991,603.218,-0.388642,-0.30127,-1.79387,
2026_06_26_17_10_42.333,3.873,41.3,0,0.768,0,0,0,0, ,0,0,0,0,0, ,788.9,-5.8,600,-0.4,-0.9,-2.2,25,788.71,-4.48523,603.214,-0.401521,-0.343849,-1.80643,
2026_06_26_17_10_42.347,3.873,41.5,0,0.769,0,0,0,0, ,0,0,0,0,0, ,790.8,-3.1,601.8,-0.5,-0.5,-2,25,788.779,-4.48308,603.073,-0.404475,-0.365552,-1.82432,
2026_06_26_17_10_42.373,3.873,41.3,0,0.768,0,0,0,0, ,0,0,0,0,0, ,785.7,-4.1,601,-0.2,0,-1.9,25,788.747,-4.42927,602.971,-0.401156,-0.358511,-1.83198,
2026_06_26_17_10_42.388,3.873,41.5,0,0.769,0,0,0,0, ,0,0,0,0,0, ,789.6,-4.3,604.2,-0.1,0,-1.9,25,788.68,-4.4153,602.949,-0.385851,-0.336664,-1.83612,
2026_06_26_17_10_42.413,3.873,41.5,0,0.768,0,0,0,0, ,0,0,0,0,0, ,788.8,-1.3,603.2,-0.4,0,-1.8,25,788.712,-4.31686,602.994,-0.377573,-0.316148,-1.83697,
2026_06_26_17_10_42.432,3.873,41.5,0,0.768,0,0,0,0, ,0,0,0,0,0, ,784.7,-0.2,610.7,-0.7,-0.6,-1.3,25,788.592,-4.09951,603.235,-0.38808,-0.315164,-1.81948,
2026_06_26_17_10_42.456,3.873,41.4,0,0.769,0,0,0,0, ,0,0,0,0,0, ,788.3,-3.6,608.2,-1.2,-1.4,-1.3,25,788.465,-3.96548,603.614,-0.422322,-0.356897,-1.78782,
2026_06_26_17_10_42.467,3.873,41.4,0,0.768,0,0,0,0, ,0,0,0,0,0, ,785.5,-4.1,609,-1.5,-2.1,-1.3,25,788.369,-3.95844,603.918,-0.478852,-0.441789,-1.7581,
2026_06_26_17_10_42.490,3.873,41.5,0,0.769,0,0,0,0, ,0,0,0,0,0, ,789.4,-6.7,602.6,-1.4,-2.5,-1.4,25,788.313,-4.04628,604.033,-0.538032,-0.555023,-1.73323,
2026_06_26_17_10_42.506,3.873,41.4,0,0.768,0,0,0,0, ,0,0,0,0,0, ,790.2,-5.6,598.7,-0.9,-2.3,-1.6,25,788.404,-4.17448,603.826,-0.575323,-0.667452,-1.71902,
2026_06_26_17_10_42.532,3.873,41.5,0,0.768,0,0,0,0, ,0,0,0,0,0, ,789.9,-4.7,596,-0.6,-1.3,-1.7,25,788.504,-4.23393,603.432,-0.585968,-0.736466,-1.71481,
2026_06_26_17_10_42.545,3.873,41.5,0,0.768,0,0,0,0, ,0,0,0,0,0, ,790.4,-3.1,595.3,-0.5,-0.3,-1.6,25,788.605,-4.21358,602.958,-0.583776,-0.740338,-1.71086,
2026_06_26_17_10_42.569,3.873,41.4,0,0.768,0,0,0,0, ,0,0,0,0,0, ,791.1,-6.2,598.2,0,0.6,-1.5,25,788.735,-4.24017,602.579,-0.563436,-0.686083,-1.70106,
2026_06_26_17_10_42.585,3.873,41.5,0,0.768,0,0,0,0, ,0,0,0,0,0, ,787.8,-6.1,603.8,0.5,1,-1.5,25,788.779,-4.35655,602.483,-0.513868,-0.595525,-1.68881,
2026_06_26_17_10_42.609,3.873,41.4,0,0.768,0,0,0,0, ,0,0,0,0,0, ,787.7,-6.4,609.2,0.2,0.3,-1.8,25,788.716,-4.47193,602.728,-0.461226,-0.519626,-1.68644,
2026_06_26_17_10_42.624,3.873,41.5,0,0.769,0,0,0,0, ,0,0,0,0,0, ,787.5,-4.1,609.6,-0.5,-0.3,-2.1,25,788.648,-4.51935,603.134,-0.44226,-0.487961,-1.7025,
2026_06_26_17_10_42.650,3.873,41.4,0,0.769,0,0,0,0, ,0,0,0,0,0, ,786.9,-4,609,-1,-1.5,-2.1,25,788.56,-4.49075,603.51,-0.461013,-0.51307,-1.72673,
2026_06_26_17_10_42.665,3.873,41.3,0,0.769,0,0,0,0, ,0,0,0,0,0, ,789.3,-5,600.9,-1,-1.5,-2.1,25,788.532,-4.49131,603.598,-0.493858,-0.573211,-1.74947,
2026_06_26_17_10_42.689,3.873,41.3,0,0.766,0,0,0,0, ,0,0,0,0,0, ,788.6,-4.2,601.3,-1,-0.8,-2.1,25,788.557,-4.49793,603.446,-0.524701,-0.608359,-1.77083,
2026_06_26_17_10_42.704,3.873,41.4,0,0.768,0,0,0,0, ,0,0,0,0,0, ,788.5,-3.5,599.2,-0.4,-0.5,-2,25,788.557,-4.45845,603.251,-0.535383,-0.610896,-1.78784,
2026_06_26_17_10_42.728,3.873,41.3,0,0.769,0,0,0,0, ,0,0,0,0,0, ,789.3,-4.1,602.6,0,0.1,-1.6,25,788.578,-4.41833,603.108,-0.514946,-0.585857,-1.78858,
2026_06_26_17_10_42.750,3.873,41.4,0,0.768,0,0,0,0, ,0,0,0,0,0, ,788.9,-5.6,604.9,0,-0.1,-1.6,25,788.61,-4.44463,603.147,-0.483566,-0.550157,-1.77709,
2026_06_26_17_10_42.774,3.873,41.4,0,0.769,0,0,0,0, ,0,0,0,0,0, ,789.1,-5.2,600.4,-0.2,0.3,-1.8,25,788.633,-4.50285,603.117,-0.460193,-0.510538,-1.7724,
2026_06_26_17_10_42.783,3.873,41.4,0,0.768,0,0,0,0, ,0,0,0,0,0, ,788.8,-5.4,609.3,-0.2,-0.1,-1.9,25,788.653,-4.55142,603.222,-0.444337,-0.473333,-1.77712,
2026_06_26_17_10_42.808,3.873,41.4,0,0.768,0,0,0,0, ,0,0,0,0,0, ,786.2,-2.9,604,-0.2,-0.7,-1.8,25,788.582,-4.52696,603.431,-0.429448,-0.468864,-1.78156,
2026_06_26_17_10_42.822,3.873,41.4,0,0.768,0,0,0,0, ,0,0,0,0,0, ,789.3,-2.9,604.4,-1.2,-0.7,-1.9,25,788.532,-4.42782,603.478,-0.445935,-0.482949,-1.78574,
2026_06_26_17_10_42.847,3.873,41.4,0,0.768,0,0,0,0, ,0,0,0,0,0, ,788.3,-6.1,598.8,-0.4,-0.5,-1.8,25,788.548,-4.43222,603.363,-0.467511,-0.490082,-1.78965,
2026_06_26_17_10_42.862,3.873,41.4,0,0.768,0,0,0,0, ,0,0,0,0,0, ,789.4,-6.5,604.2,0.1,-0.1,-1.8,25,788.566,-4.54604,603.25,-0.448162,-0.478499,-1.79028,
2026_06_26_17_10_42.886,3.873,41.4,0,0.768,0,0,0,0, ,0,0,0,0,0, ,787.8,-1.7,604.1,0.2,-0.1,-1.8,25,788.569,-4.51886,603.305,-0.411712,-0.455434,-1.79087,
2026_06_26_17_10_42.902,3.873,41.4,0,0.768,0,0,0,0, ,0,0,0,0,0, ,789.4,-2,604.1,-0.9,-0.5,-1.6,25,788.57,-4.35622,603.353,-0.407951,-0.445962,-1.78534,
2026_06_26_17_10_42.928,3.873,41.3,0,0.769,0,0,0,0, ,0,0,0,0,0, ,788.2,-4.7,608.3,-1.3,-1,-1.4,25,788.584,-4.29491,603.527,-0.450123,-0.46449,-1.76795,
2026_06_26_17_10_42.941,3.873,41.4,0,0.769,0,0,0,0, ,0,0,0,0,0, ,787.9,-5.8,607.9,-1,-1.2,-1.5,25,788.552,-4.35311,603.805,-0.492772,-0.503216,-1.74857,
2026_06_26_17_10_42.968,3.873,41.3,0,0.769,0,0,0,0, ,0,0,0,0,0, ,788.4,-4,603.3,-1.2,-1.4,-1.5,25,788.527,-4.38643,603.915,-0.529775,-0.55177,-1.73343,
2026_06_26_17_10_42.981,3.873,41.4,0,0.768,0,0,0,0, ,0,0,0,0,0, ,787.5,-4.5,603.2,-1,-1.5,-1.3,25,788.492,-4.37812,603.874,-0.564523,-0.606506,-1.71311,
2026_06_26_17_10_43.007,3.873,41.4,0,0.769,0,0,0,0, ,0,0,0,0,0, ,791.7,-5.4,599.8,-0.9,-1.3,-1.5,25,788.56,-4.41297,603.73,-0.588013,-0.654859,-1.69403,
2026_06_26_17_10_43.020,3.873,41.4,0,0.77,0,0,0,0, ,0,0,0,0,0, ,791.5,-7.4,597.7,-0.7,-0.6,-1.7,25,788.745,-4.53405,603.426,-0.600931,-0.672845,-1.6883,
2026_06_26_17_10_43.045,3.873,41.3,0,0.766,0,0,0,0, ,0,0,0,0,0, ,790,-5.4,601.3,-0.2,-0.1,-1.8,25,788.867,-4.64776,603.187,-0.591733,-0.653171,-1.69206,
2026_06_26_17_10_43.060,3.873,41.4,0,0.767,0,0,0,0, ,0,0,0,0,0, ,788.8,-5.2,604.2,0,-0.1,-1.8,25,788.9,-4.68751,603.16,-0.561768,-0.619462,-1.69864,
2026_06_26_17_10_43.085,3.873,41.3,0,0.766,0,0,0,0, ,0,0,0,0,0, ,790,-4.7,603.5,-0.3,-0.1,-1.8,25,788.93,-4.7035,603.202,-0.536676,-0.587808,-1.70481,
2026_06_26_17_10_43.099,3.873,41.3,0,0.768,0,0,0,0, ,0,0,0,0,0, ,788.8,-4.7,600.4,-0.4,0.2,-1.9,25,788.959,-4.70329,603.126,-0.525301,-0.548941,-1.71366,
2026_06_26_17_10_43.125,3.873,41.3,0,0.768,0,0,0,0, ,0,0,0,0,0, ,788.4,-5.9,601.8,0,0.2,-2,25,788.937,-4.73965,603.003,-0.505478,-0.503303,-1.72806,
2026_06_26_17_10_43.139,3.873,41.3,0,0.767,0,0,0,0, ,0,0,0,0,0, ,788.6,-2.8,605.9,0,0.3,-1.8,25,788.91,-4.71591,603.054,-0.474675,-0.457398,-1.73854,
2026_06_26_17_10_43.164,3.873,41.4,0,0.768,0,0,0,0, ,0,0,0,0,0, ,789,-3.4,608.2,-0.2,-0.3,-1.8,25,788.904,-4.61744,603.298,-0.451843,-0.429526,-1.74228,
2026_06_26_17_10_43.179,3.873,41.3,0,0.769,0,0,0,0, ,0,0,0,0,0, ,786.8,-4.3,608,-0.8,-1,-1.8,25,788.842,-4.57067,603.59,-0.454778,-0.442961,-1.7458,
2026_06_26_17_10_43.204,3.873,41.3,0,0.768,0,0,0,0, ,0,0,0,0,0, ,788.9,-5.7,602.4,-0.9,-1.2,-1.8,25,788.782,-4.59683,603.688,-0.478862,-0.482999,-1.7491,
2026_06_26_17_10_43.218,3.873,41.4,0,0.768,0,0,0,0, ,0,0,0,0,0, ,790.5,-6.7,598.6,-0.2,-0.7,-2,25,788.838,-4.69453,603.494,-0.483197,-0.511457,-1.7583,
2026_06_26_17_10_43.243,3.873,41.3,0,0.769,0,0,0,0, ,0,0,0,0,0, ,790.7,-4.5,597.9,0.1,0.2,-2.1,25,788.945,-4.7497,603.175,-0.456799,-0.495524,-1.77608,
2026_06_26_17_10_43.258,3.873,41.3,0,0.769,0,0,0,0, ,0,0,0,0,0, ,787.7,-3,602.5,0,0.6,-2.1,25,788.961,-4.68878,602.993,-0.425916,-0.440953,-1.79581,
2026_06_26_17_10_43.284,3.873,41.3,0,0.768,0,0,0,0, ,0,0,0,0,0, ,787.9,-3.5,604.9,-0.3,0.5,-2,25,788.89,-4.60111,603.036,-0.409102,-0.380567,-1.8113,
2026_06_26_17_10_43.298,3.873,41.3,0,0.767,0,0,0,0, ,0,0,0,0,0, ,786.8,-4,606.2,-0.5,-0.2,-1.9,25,788.796,-4.54924,603.19,-0.408547,-0.348236,-1.81976,
2026_06_26_17_10_43.323,3.873,41.3,0,0.767,0,0,0,0, ,0,0,0,0,0, ,788.2,-4.2,607.5,-0.6,-0.6,-1.8,25,788.717,-4.52187,603.413,-0.417167,-0.35139,-1.8216,
2026_06_26_17_10_43.338,3.873,41.3,0,0.768,0,0,0,0, ,0,0,0,0,0, ,786.9,-3.7,603,-0.5,-0.8,-1.8,25,788.646,-4.48702,603.525,-0.425262,-0.372634,-1.82028,
2026_06_26_17_10_43.363,3.873,41.3,0,0.768,0,0,0,0, ,0,0,0,0,0, ,788.4,-3.1,607.9,-0.7,-1.2,-1.6,25,788.585,-4.42078,603.642,-0.43591,-0.410864,-1.81295,
2026_06_26_17_10_43.376,3.873,41.3,0,0.768,0,0,0,0, ,0,0,0,0,0, ,787.3,-2.5,603.1,-1,-1.4,-1.5,25,788.541,-4.32201,603.755,-0.461143,-0.465045,-1.79693,
2026_06_26_17_10_43.402,3.873,41.3,0,0.769,0,0,0,0, ,0,0,0,0,0, ,790.2,-4,604.4,-1,-1.1,-1.4,25,788.553,-4.25669,603.755,-0.49398,-0.512879,-1.77579,
2026_06_26_17_10_43.416,3.873,41.2,0,0.767,0,0,0,0, ,0,0,0,0,0, ,787.9,-6.1,601.5,-0.8,-1.2,-1.5,25,788.584,-4.30503,603.706,-0.518722,-0.551703,-1.75594,
2026_06_26_17_10_43.441,3.873,41.2,0,0.766,0,0,0,0, ,0,0,0,0,0, ,790.5,-4.5,600.4,-0.6,-0.7,-1.5,25,788.621,-4.36566,603.538,-0.529769,-0.575974,-1.74034,
2026_06_26_17_10_43.457,3.873,41.3,0,0.769,0,0,0,0, ,0,0,0,0,0, ,788.4,-4.2,604.6,-0.5,-0.6,-1.6,25,788.672,-4.36471,603.475,-0.531001,-0.580485,-1.72874,
2026_06_26_17_10_43.483,3.873,41.3,0,0.768,0,0,0,0, ,0,0,0,0,0, ,787.4,-4.5,601.9,-0.6,-0.5,-1.7,25,788.625,-4.36381,603.461,-0.532159,-0.578628,-1.72394,
2026_06_26_17_10_43.495,3.873,41.3,0,0.768,0,0,0,0, ,0,0,0,0,0, ,789.6,-5.4,604.1,-0.4,-0.8,-1.8,25,788.617,-4.39953,603.433,-0.530199,-0.582977,-1.72553,
2026_06_26_17_10_43.522,3.873,41.3,0,0.769,0,0,0,0, ,0,0,0,0,0, ,788.2,-3,599.8,-0.4,-0.4,-1.8,25,788.634,-4.38737,603.342,-0.522265,-0.584014,-1.73007,
2026_06_26_17_10_43.535,3.873,41.2,0,0.768,0,0,0,0, ,0,0,0,0,0, ,789.6,-5,603,-0.6,-0.2,-1.7,25,788.65,-4.36377,603.224,-0.520909,-0.566707,-1.73128,
2026_06_26_17_10_43.561,3.873,41.3,0,0.769,0,0,0,0, ,0,0,0,0,0, ,789.4,-5.2,603.2,-0.3,-0.2,-1.8,25,788.702,-4.40863,603.217,-0.516588,-0.544361,-1.73242,
2026_06_26_17_10_43.574,3.873,41.3,0,0.768,0,0,0,0, ,0,0,0,0,0, ,787.8,-4.2,605.9,-0.5,-0.3,-1.9,25,788.696,-4.42639,603.298,-0.509483,-0.526423,-1.73959,
2026_06_26_17_10_43.600,3.873,41.3,0,0.767,0,0,0,0, ,0,0,0,0,0, ,787.4,-5.2,606.6,-0.6,-0.4,-1.9,25,788.629,-4.44306,603.478,-0.511952,-0.515672,-1.74936,
2026_06_26_17_10_43.614,3.873,41.3,0,0.768,0,0,0,0, ,0,0,0,0,0, ,788.9,-7,602.6,-0.4,-0.6,-1.9,25,788.6,-4.54403,603.546,-0.511224,-0.514717,-1.75854,
2026_06_26_17_10_43.639,3.873,41.2,0,0.769,0,0,0,0, ,0,0,0,0,0, ,788.4,-4,602,0,-0.3,-1.9,25,788.603,-4.60228,603.47,-0.492259,-0.510774,-1.76716,
2026_06_26_17_10_43.653,3.873,41.3,0,0.769,0,0,0,0, ,0,0,0,0,0, ,789.7,-2.6,597.9,-0.1,0,-1.8,25,788.63,-4.52293,603.256,-0.465308,-0.488789,-1.77221,
2026_06_26_17_10_43.680,3.873,41.3,0,0.768,0,0,0,0, ,0,0,0,0,0, ,787.9,-4.2,609,-0.5,-0.2,-1.6,25,788.641,-4.4545,603.267,-0.455235,-0.465097,-1.76781,
2026_06_26_17_10_43.693,3.873,41.2,0,0.769,0,0,0,0, ,0,0,0,0,0, ,789.5,-6.2,602,-0.2,-0.5,-1.7,25,788.644,-4.49993,603.404,-0.448822,-0.458084,-1.76063,
2026_06_26_17_10_43.720,3.873,41.3,0,0.768,0,0,0,0, ,0,0,0,0,0, ,787.3,-3.2,605.2,-0.1,-0.4,-1.9,25,788.629,-4.51212,603.415,-0.430613,-0.457591,-1.76303,
2026_06_26_17_10_43.733,3.873,41.3,0,0.77,0,0,0,0, ,0,0,0,0,0, ,788.4,-3,604.6,-0.6,-0.7,-1.8,25,788.582,-4.42607,603.506,-0.4257,-0.463222,-1.76833,
2026_06_26_17_10_43.759,3.873,41.3,0,0.768,0,0,0,0, ,0,0,0,0,0, ,788.8,-6.1,601.8,-0.7,-0.7,-1.8,25,788.583,-4.43362,603.487,-0.439369,-0.477651,-1.77026,
2026_06_26_17_10_43.772,3.873,41.2,0,0.768,0,0,0,0, ,0,0,0,0,0, ,789.4,-5.7,601,-0.4,-0.4,-1.7,25,788.615,-4.52298,603.36,-0.44611,-0.48206,-1.76903,
2026_06_26_17_10_43.798,3.873,41.2,0,0.768,0,0,0,0, ,0,0,0,0,0, ,786.8,-4.5,601.6,0,0.2,-1.7,25,788.583,-4.55814,603.235,-0.431113,-0.458778,-1.76482,
2026_06_26_17_10_43.811,3.873,41.3,0,0.769,0,0,0,0, ,0,0,0,0,0, ,787.7,-2.9,609.8,-0.1,-0.2,-1.6,25,788.502,-4.50585,603.385,-0.407889,-0.430821,-1.75782,
2026_06_26_17_10_43.838,3.873,41.2,0,0.768,0,0,0,0, ,0,0,0,0,0, ,785.6,-3.4,609.3,-1,-1,-1.6,25,788.389,-4.42322,603.761,-0.416549,-0.44113,-1.7482,
2026_06_26_17_10_43.851,3.873,41.2,0,0.768,0,0,0,0, ,0,0,0,0,0, ,788.2,-4.7,607.4,-1.5,-1.7,-1.5,25,788.298,-4.40048,604.04,-0.467337,-0.496515,-1.73613,
2026_06_26_17_10_43.878,3.873,41.2,0,0.767,0,0,0,0, ,0,0,0,0,0, ,788.4,-6.4,604.1,-1,-1.8,-1.6,25,788.298,-4.47053,604.144,-0.515031,-0.572899,-1.72478,
2026_06_26_17_10_43.891,3.873,41.2,0,0.767,0,0,0,0, ,0,0,0,0,0, ,790.4,-7.3,597.1,-0.5,-1.4,-1.7,25,788.366,-4.61553,603.928,-0.529349,-0.635488,-1.72023,
2026_06_26_17_10_43.916,3.873,41.3,0,0.768,0,0,0,0, ,0,0,0,0,0, ,790.2,-4.7,599.9,-0.3,-0.5,-1.7,25,788.483,-4.6999,603.598,-0.521467,-0.654653,-1.71899,
2026_06_26_17_10_43.931,3.873,41.2,0,0.768,0,0,0,0, ,0,0,0,0,0, ,788.5,-3.5,601.9,-0.5,-0.1,-1.5,25,788.536,-4.66334,603.433,-0.514065,-0.633042,-1.71174,
2026_06_26_17_10_43.957,3.873,41.3,0,0.769,0,0,0,0, ,0,0,0,0,0, ,789,-6.7,603.5,-0.5,0,-1.6,25,788.549,-4.68995,603.389,-0.513208,-0.597513,-1.70189,
2026_06_26_17_10_43.970,3.873,41.2,0,0.769,0,0,0,0, ,0,0,0,0,0, ,787.7,-6.4,606,-0.4,0,-1.7,25,788.537,-4.8033,603.471,-0.509356,-0.561102,-1.69873,
2026_06_26_17_10_43.996,3.873,41.2,0,0.769,0,0,0,0, ,0,0,0,0,0, ,788.6,-6.5,602.7,-0.4,-0.4,-2,25,788.514,-4.90364,603.525,-0.502692,-0.539097,-1.70794,
2026_06_26_17_10_44.010,3.873,41.2,0,0.768,0,0,0,0, ,0,0,0,0,0, ,789.7,-5.4,604.2,-0.3,-0.4,-2.1,25,788.552,-4.9674,603.52,-0.493388,-0.530621,-1.72879,
2026_06_26_17_10_44.038,3.873,41.2,0,0.77,0,0,0,0, ,0,0,0,0,0, ,788.5,-4.1,600.2,-0.3,-0.3,-2,25,788.586,-4.95416,603.44,-0.481603,-0.519614,-1.74836,
2026_06_26_17_10_44.049,3.873,41.2,0,0.769,0,0,0,0, ,0,0,0,0,0, ,788,-1.9,600.3,-0.1,0,-1.9,25,788.565,-4.83507,603.246,-0.464443,-0.497091,-1.76065,
2026_06_26_17_10_44.076,3.873,41.3,0,0.769,0,0,0,0, ,0,0,0,0,0, ,788.2,-3.9,604.1,0,0.2,-1.8,25,788.537,-4.71716,603.182,-0.439188,-0.460706,-1.76609,
2026_06_26_17_10_44.088,3.873,41.2,0,0.768,0,0,0,0, ,0,0,0,0,0, ,787.4,-5.4,606.6,-0.2,-0.2,-1.6,25,788.492,-4.71306,603.314,-0.418519,-0.432631,-1.76207,
2026_06_26_17_10_44.115,3.873,41.1,0,0.766,0,0,0,0, ,0,0,0,0,0, ,787.1,-4.1,604,-0.2,-0.6,-1.7,25,788.416,-4.71531,603.435,-0.405203,-0.430643,-1.75524,
2026_06_26_17_10_44.128,3.873,41.1,0,0.768,0,0,0,0, ,0,0,0,0,0, ,789.7,-5.4,603.6,-0.6,-0.6,-1.7,25,788.415,-4.71743,603.457,-0.404886,-0.440963,-1.75187,
2026_06_26_17_10_44.155,3.873,41.2,0,0.768,0,0,0,0, ,0,0,0,0,0, ,788.4,-5.8,606.5,-0.8,-1,-1.9,25,788.454,-4.77121,603.554,-0.422869,-0.462842,-1.7548,
2026_06_26_17_10_44.168,3.873,41.3,0,0.768,0,0,0,0, ,0,0,0,0,0, ,790.2,-5,599.4,-0.5,-0.8,-2.1,25,788.506,-4.80953,603.517,-0.43671,-0.489481,-1.76975,
2026_06_26_17_10_44.194,3.873,41.3,0,0.77,0,0,0,0, ,0,0,0,0,0, ,789.4,-3.7,600.8,-0.2,-0.2,-2.1,25,788.584,-4.78152,603.309,-0.431426,-0.490122,-1.78987,
2026_06_26_17_10_44.207,3.873,41.2,0,0.769,0,0,0,0, ,0,0,0,0,0, ,788.4,-2.6,599.8,0,0.3,-2,25,788.604,-4.6821,603.126,-0.41123,-0.457209,-1.80572,
2026_06_26_17_10_44.234,3.873,41.2,0,0.769,0,0,0,0, ,0,0,0,0,0, ,787.1,-1.5,609.4,-0.3,0.2,-1.8,25,788.552,-4.52171,603.216,-0.395311,-0.414113,-1.81147,
2026_06_26_17_10_44.247,3.873,41.2,0,0.769,0,0,0,0, ,0,0,0,0,0, ,787.7,-3.2,607.2,-0.4,0,-1.8,25,788.481,-4.38937,603.526,-0.39255,-0.382784,-1.81077,
2026_06_26_17_10_44.274,3.873,41.2,0,0.767,0,0,0,0, ,0,0,0,0,0, ,787.4,-3.1,605.3,-0.7,-0.3,-1.5,25,788.425,-4.31385,603.692,-0.402144,-0.368599,-1.80097,
2026_06_26_17_10_44.286,3.873,41.1,0,0.769,0,0,0,0, ,0,0,0,0,0, ,787.2,-3.4,610.3,-1.2,-1.1,-1.4,25,788.356,-4.24902,603.942,-0.435529,-0.388794,-1.77958,
2026_06_26_17_10_44.313,3.873,41.1,0,0.768,0,0,0,0, ,0,0,0,0,0, ,787.4,-5.2,605.9,-1.3,-2.1,-1.5,25,788.292,-4.25213,604.195,-0.485161,-0.462602,-1.7595,
2026_06_26_17_10_44.326,3.873,41.2,0,0.77,0,0,0,0, ,0,0,0,0,0, ,789.3,-5.1,600.7,-0.9,-1.8,-1.6,25,788.295,-4.30684,604.141,-0.522628,-0.55324,-1.74673,
2026_06_26_17_10_44.352,3.873,41.2,0,0.769,0,0,0,0, ,0,0,0,0,0, ,790.6,-5.9,599.6,-0.5,-1.5,-1.6,25,788.396,-4.37955,603.898,-0.533437,-0.620074,-1.73779,
2026_06_26_17_10_44.366,3.873,41.1,0,0.769,0,0,0,0, ,0,0,0,0,0, ,791.6,-5.8,597.9,-0.2,-0.6,-1.6,25,788.561,-4.46915,603.584,-0.522258,-0.646272,-1.7294,
2026_06_26_17_10_44.393,3.873,41.1,0,0.768,0,0,0,0, ,0,0,0,0,0, ,789.3,-6.1,599.2,0,0.2,-1.7,25,788.676,-4.55939,603.277,-0.496527,-0.619078,-1.72456,
2026_06_26_17_10_44.405,3.873,41.2,0,0.768,0,0,0,0, ,0,0,0,0,0, ,789.5,-5.8,602.4,-0.2,0.6,-1.8,25,788.72,-4.64413,603.126,-0.472364,-0.556978,-1.72611,
2026_06_26_17_10_44.432,3.873,41.2,0,0.768,0,0,0,0, ,0,0,0,0,0, ,787.8,-5.1,606.8,-0.2,0.3,-1.7,25,788.716,-4.69324,603.216,-0.455767,-0.495615,-1.72756,
2026_06_26_17_10_44.444,3.873,41.1,0,0.767,0,0,0,0, ,0,0,0,0,0, ,786.6,-4.6,610.7,-0.3,-0.4,-1.9,25,788.624,-4.70279,603.553,-0.443228,-0.46846,-1.73198,
2026_06_26_17_10_44.473,3.873,41.1,0,0.769,0,0,0,0, ,0,0,0,0,0, ,789,-5.9,602.2,-0.6,-0.9,-2.1,25,788.573,-4.73614,603.73,-0.44364,-0.479523,-1.74831,
2026_06_26_17_10_44.485,3.873,41.1,0,0.769,0,0,0,0, ,0,0,0,0,0, ,788.6,-4.7,604,-0.6,-0.9,-2,25,788.587,-4.7705,603.691,-0.453168,-0.505146,-1.76669,
2026_06_26_17_10_44.514,3.873,41.1,0,0.769,0,0,0,0, ,0,0,0,0,0, ,791,-4,597.7,-0.4,-0.4,-2,25,788.661,-4.74487,603.518,-0.456022,-0.513973,-1.78091,
2026_06_26_17_10_44.524,3.873,41.1,0,0.768,0,0,0,0, ,0,0,0,0,0, ,788.5,-5.3,603.6,-0.1,0.1,-2,25,788.727,-4.73909,603.343,-0.443468,-0.491793,-1.79426,
2026_06_26_17_10_44.551,3.873,41.1,0,0.768,0,0,0,0, ,0,0,0,0,0, ,788.3,-4.2,602,0,0.3,-1.8,25,788.707,-4.73976,603.31,-0.419491,-0.449637,-1.80071,
2026_06_26_17_10_44.564,3.873,41.1,0,0.769,0,0,0,0, ,0,0,0,0,0, ,787.3,-3.5,604.2,0,0.3,-1.7,25,788.652,-4.68554,603.298,-0.393928,-0.403956,-1.79762,
2026_06_26_17_10_44.591,3.873,41.2,0,0.767,0,0,0,0, ,0,0,0,0,0, ,786.6,-4.3,607,-0.2,0,-1.6,25,788.548,-4.63767,603.438,-0.376017,-0.370199,-1.78862,
2026_06_26_17_10_44.603,3.873,41.1,0,0.768,0,0,0,0, ,0,0,0,0,0, ,788.4,-5.2,607.2,-0.6,-0.5,-1.7,25,788.485,-4.64451,603.661,-0.377478,-0.362875,-1.78017,
2026_06_26_17_10_44.631,3.873,41.1,0,0.768,0,0,0,0, ,0,0,0,0,0, ,788,-4.5,604.2,-0.5,-0.6,-1.8,25,788.467,-4.65704,603.785,-0.387991,-0.374278,-1.77833,
2026_06_26_17_10_44.643,3.873,41.2,0,0.768,0,0,0,0, ,0,0,0,0,0, ,789.1,-2,608,-0.8,-0.9,-1.8,25,788.472,-4.57129,603.926,-0.403958,-0.397173,-1.77965,
2026_06_26_17_10_44.670,3.873,41.1,0,0.769,0,0,0,0, ,0,0,0,0,0, ,787.2,-4.3,605.1,-0.8,-1.1,-1.7,25,788.453,-4.48468,604.086,-0.428091,-0.433908,-1.77785,
2026_06_26_17_10_44.683,3.873,41.1,0,0.768,0,0,0,0, ,0,0,0,0,0, ,789.4,-4.6,600.3,-0.4,-0.9,-1.6,25,788.443,-4.48257,604.002,-0.438567,-0.468404,-1.77006,
2026_06_26_17_10_44.710,3.873,41.2,0,0.767,0,0,0,0, ,0,0,0,0,0, ,789.7,-3.2,598.6,0,0,-1.5,25,788.511,-4.44707,603.724,-0.424029,-0.467283,-1.75665,
2026_06_26_17_10_44.722,3.873,41.1,0,0.767,0,0,0,0, ,0,0,0,0,0, ,788.3,-2.5,606.9,-0.1,0.1,-1.5,25,788.541,-4.34975,603.665,-0.401237,-0.435761,-1.74101,
2026_06_26_17_10_44.750,3.873,41.1,0,0.767,0,0,0,0, ,0,0,0,0,0, ,785.5,-5.6,610.7,-0.8,-0.6,-1.5,25,788.441,-4.33148,603.978,-0.404208,-0.424441,-1.72632,
2026_06_26_17_10_44.761,3.873,41.1,0,0.766,0,0,0,0, ,0,0,0,0,0, ,787.8,-5.1,608.5,-1.1,-1.6,-1.7,25,788.331,-4.39355,604.32,-0.437468,-0.465608,-1.71862,
2026_06_26_17_10_44.789,3.873,41.1,0,0.768,0,0,0,0, ,0,0,0,0,0, ,787.4,-5.4,602.5,-1,-1.8,-1.6,25,788.287,-4.44574,604.392,-0.474794,-0.540829,-1.71444,
2026_06_26_17_10_44.801,3.873,41.1,0,0.768,0,0,0,0, ,0,0,0,0,0, ,790.1,-5.4,598.3,-0.6,-1.3,-1.7,25,788.315,-4.50389,604.149,-0.494611,-0.602325,-1.71052,
2026_06_26_17_10_44.830,3.873,41.1,0,0.769,0,0,0,0, ,0,0,0,0,0, ,787.8,-4,600.8,-0.2,-0.6,-1.6,25,788.354,-4.51584,603.869,-0.488846,-0.623511,-1.70683,
2026_06_26_17_10_44.841,3.873,41.2,0,0.768,0,0,0,0, ,0,0,0,0,0, ,789.5,-4.7,602.1,-0.6,-0.5,-1.5,25,788.372,-4.50573,603.721,-0.483432,-0.619032,-1.69727,
2026_06_26_17_10_44.868,3.873,41.1,0,0.767,0,0,0,0, ,0,0,0,0,0, ,788.2,-5.1,603.1,-0.5,-0.2,-1.6,25,788.401,-4.52976,603.653,-0.487488,-0.602638,-1.6883,
2026_06_26_17_10_44.880,3.873,41.1,0,0.767,0,0,0,0, ,0,0,0,0,0, ,788.8,-6.5,603.3,0,-0.1,-1.8,25,788.407,-4.60716,603.625,-0.473016,-0.575055,-1.68901,
2026_06_26_17_10_44.908,3.873,41.1,0,0.768,0,0,0,0, ,0,0,0,0,0, ,785.4,-6.2,604.7,0,-0.1,-1.8,25,788.327,-4.71337,603.648,-0.444192,-0.546106,-1.69577,
2026_06_26_17_10_44.919,3.873,41.2,0,0.767,0,0,0,0, ,0,0,0,0,0, ,790,-3.9,602.9,-0.5,-0.6,-1.9,25,788.289,-4.73388,603.658,-0.432358,-0.534156,-1.70517,
2026_06_26_17_10_44.947,3.873,41.1,0,0.768,0,0,0,0, ,0,0,0,0,0, ,787.5,-5.6,601.9,-0.8,-0.1,-2,25,788.317,-4.73486,603.581,-0.445621,-0.522934,-1.72009,
2026_06_26_17_10_44.959,3.873,41.1,0,0.768,0,0,0,0, ,0,0,0,0,0, ,789,-5.6,601.5,-0.4,-0.1,-2,25,788.313,-4.78758,603.466,-0.455028,-0.497162,-1.73715,
2026_06_26_17_10_44.987,3.873,41.1,0,0.768,0,0,0,0, ,0,0,0,0,0, ,788.9,-5.3,600.7,0.4,0.4,-1.9,25,788.352,-4.82795,603.322,-0.4273,-0.457725,-1.75012,
2026_06_26_17_10_44.999,3.873,41.1,0,0.769,0,0,0,0, ,0,0,0,0,0, ,788.8,-4,604.9,0.1,0.6,-1.8,25,788.382,-4.81711,603.29,-0.386027,-0.399364,-1.7562,
2026_06_26_17_10_45.026,3.873,41,0,0.767,0,0,0,0, ,0,0,0,0,0, ,787.4,-3,608.3,-0.4,0.1,-1.7,25,788.365,-4.73684,603.492,-0.371644,-0.353699,-1.75583,
2026_06_26_17_10_45.039,3.873,41,0,0.766,0,0,0,0, ,0,0,0,0,0, ,787.8,-5.3,607.4,-0.8,-0.5,-1.8,25,788.318,-4.70108,603.758,-0.38556,-0.344333,-1.75547,
2026_06_26_17_10_45.067,3.873,41.1,0,0.768,0,0,0,0, ,0,0,0,0,0, ,787.1,-5.9,605.7,-0.4,-0.6,-1.9,25,788.266,-4.75586,603.928,-0.398627,-0.356866,-1.76123,
2026_06_26_17_10_45.078,3.873,41.1,0,0.768,0,0,0,0, ,0,0,0,0,0, ,787.7,-4.5,604.1,-0.4,-0.5,-2.2,25,788.213,-4.78293,603.987,-0.398711,-0.368635,-1.77883,
2026_06_26_17_10_45.112,3.873,41.1,0,0.767,0,0,0,0, ,0,0,0,0,0, ,787.7,-4.1,603,-0.4,-0.2,-2,25,788.182,-4.7535,603.96,-0.398789,-0.3675,-1.7984,
2026_06_26_17_10_45.117,3.873,41,0,0.768,0,0,0,0, ,0,0,0,0,0, ,788.5,-3.7,601.1,-0.1,0,-1.9,25,788.177,-4.70149,603.844,-0.389722,-0.351199,-1.80764,
2026_06_26_17_10_45.146,3.873,41.1,0,0.768,0,0,0,0, ,0,0,0,0,0, ,788,-4.1,603.5,-0.1,0.2,-2,25,788.181,-4.65265,603.75,-0.372067,-0.323704,-1.81631,
2026_06_26_17_10_45.156,3.873,41.1,0,0.767,0,0,0,0, ,0,0,0,0,0, ,786.6,-2.3,606.5,-0.2,0.2,-1.8,25,788.127,-4.56413,603.826,-0.358535,-0.291791,-1.82141,
2026_06_26_17_10_45.185,3.873,41,0,0.767,0,0,0,0, ,0,0,0,0,0, ,786.8,-3.4,609,-0.4,-0.4,-1.6,25,788.04,-4.45967,604.065,-0.354968,-0.280104,-1.81401,
2026_06_26_17_10_45.197,3.873,41.1,0,0.768,0,0,0,0, ,0,0,0,0,0, ,786.1,-3.9,606.4,-0.3,-0.6,-1.7,25,787.943,-4.41033,604.287,-0.354665,-0.293504,-1.80402,
2026_06_26_17_10_45.225,3.873,41,0,0.769,0,0,0,0, ,0,0,0,0,0, ,787.4,-3,606.4,-0.5,-0.9,-1.6,25,787.871,-4.35181,604.415,-0.357428,-0.321321,-1.79463,
2026_06_26_17_10_45.236,3.873,41,0,0.769,0,0,0,0, ,0,0,0,0,0, ,787.4,-3.9,604.9,-0.7,-1,-1.5,25,787.842,-4.29686,604.491,-0.37221,-0.359631,-1.77973,
2026_06_26_17_10_45.265,3.873,41.1,0,0.769,0,0,0,0, ,0,0,0,0,0, ,789.4,-4.3,604.4,-1.1,-1.3,-1.5,25,787.876,-4.28486,604.5,-0.404372,-0.407794,-1.76268,
2026_06_26_17_10_45.275,3.873,41.1,0,0.768,0,0,0,0, ,0,0,0,0,0, ,787.5,-5.2,604.4,-1.1,-1.6,-1.4,25,787.911,-4.31321,604.494,-0.446762,-0.471304,-1.74363,
2026_06_26_17_10_45.304,3.873,41,0,0.767,0,0,0,0, ,0,0,0,0,0, ,790.7,-6.3,598.5,-0.6,-0.9,-1.6,25,787.983,-4.40076,604.309,-0.471334,-0.518756,-1.72878,
2026_06_26_17_10_45.315,3.873,41,0,0.768,0,0,0,0, ,0,0,0,0,0, ,787.8,-5.8,602.6,-0.1,-0.1,-1.7,25,788.061,-4.50126,604.08,-0.46394,-0.517613,-1.72398,
2026_06_26_17_10_45.344,3.873,41,0,0.767,0,0,0,0, ,0,0,0,0,0, ,787.8,-5.3,603.5,0.1,0.1,-1.9,25,788.045,-4.56517,604.017,-0.435669,-0.486071,-1.72861,
2026_06_26_17_10_45.355,3.873,41,0,0.767,0,0,0,0, ,0,0,0,0,0, ,787.9,-2.6,604.4,0.1,0.3,-1.9,25,788.033,-4.52768,604.013,-0.403027,-0.444263,-1.73906,
2026_06_26_17_10_45.383,3.873,41,0,0.768,0,0,0,0, ,0,0,0,0,0, ,788.2,-4.1,603,-0.4,0.2,-1.8,25,788.034,-4.45592,603.994,-0.387608,-0.401957,-1.74582,
2026_06_26_17_10_45.394,3.873,41,0,0.768,0,0,0,0, ,0,0,0,0,0, ,787.7,-5.6,609.1,-0.3,0,-1.9,25,788.029,-4.47993,604.119,-0.385316,-0.371369,-1.75217,
2026_06_26_17_10_45.424,3.873,41.1,0,0.769,0,0,0,0, ,0,0,0,0,0, ,787.9,-6.3,606.5,-0.2,-0.2,-2,25,788.015,-4.56951,604.343,-0.37707,-0.354832,-1.76422,
2026_06_26_17_10_45.434,3.873,41,0,0.768,0,0,0,0, ,0,0,0,0,0, ,786.2,-2.1,607.4,-0.1,-0.3,-1.9,25,787.956,-4.547,604.502,-0.363233,-0.348444,-1.77554,
2026_06_26_17_10_45.463,3.873,41,0,0.768,0,0,0,0, ,0,0,0,0,0, ,787.4,-3.9,607.5,-0.7,-0.5,-1.9,25,787.886,-4.45273,604.682,-0.365474,-0.351586,-1.78313,
2026_06_26_17_10_45.474,3.873,41,0,0.769,0,0,0,0, ,0,0,0,0,0, ,787.3,-5.3,604.9,-0.6,-0.7,-1.8,25,787.853,-4.4617,604.774,-0.382812,-0.366723,-1.7872,
2026_06_26_17_10_45.502,3.873,41,0,0.768,0,0,0,0, ,0,0,0,0,0, ,787.5,-3.6,605.5,-0.5,-0.3,-1.8,25,787.825,-4.46099,604.8,-0.393,-0.374845,-1.78798,
2026_06_26_17_10_45.513,3.873,41,0,0.767,0,0,0,0, ,0,0,0,0,0, ,787.7,-6.5,603.5,-0.3,-0.1,-1.8,25,787.812,-4.49688,604.782,-0.393427,-0.36419,-1.78871,
2026_06_26_17_10_45.542,3.873,41,0,0.766,0,0,0,0, ,0,0,0,0,0, ,786.7,-5.6,604.3,-0.1,0,-1.8,25,787.774,-4.59152,604.728,-0.38164,-0.345044,-1.7894,
2026_06_26_17_10_45.553,3.873,41,0,0.767,0,0,0,0, ,0,0,0,0,0, ,787.7,-4.3,603.1,0.1,0.1,-2.1,25,787.739,-4.61337,604.666,-0.358383,-0.320971,-1.79919,
2026_06_26_17_10_45.582,3.873,41,0,0.768,0,0,0,0, ,0,0,0,0,0, ,788,-2.9,605.1,0,0.3,-2,25,787.746,-4.55162,604.631,-0.333498,-0.289225,-1.81447,
2026_06_26_17_10_45.593,3.873,40.9,0,0.767,0,0,0,0, ,0,0,0,0,0, ,786,-1,605.1,-0.2,0.7,-1.7,25,787.701,-4.39308,604.66,-0.319269,-0.241131,-1.81664,
2026_06_26_17_10_45.622,3.873,40.9,0,0.768,0,0,0,0, ,0,0,0,0,0, ,784.9,-3.2,613,-0.5,-0.2,-1.3,25,787.564,-4.25335,604.927,-0.321142,-0.211203,-1.79734,
2026_06_26_17_10_45.632,3.873,40.9,0,0.768,0,0,0,0, ,0,0,0,0,0, ,786.1,-4.8,606.8,-0.1,-0.8,-1.4,25,787.438,-4.23791,605.23,-0.319853,-0.228802,-1.77008,
2026_06_26_17_10_45.662,3.873,40.9,0,0.767,0,0,0,0, ,0,0,0,0,0, ,785.4,-2,609.6,-0.6,-1.2,-1.4,25,787.335,-4.18685,605.411,-0.32169,-0.275796,-1.74753,
2026_06_26_17_10_45.671,3.873,41,0,0.767,0,0,0,0, ,0,0,0,0,0, ,787.5,-3.5,609.4,-1.2,-1.8,-1.4,25,787.281,-4.09929,605.66,-0.356931,-0.350396,-1.72635,
2026_06_26_17_10_45.700,3.873,41,0,0.768,0,0,0,0, ,0,0,0,0,0, ,786.9,-6.7,604,-1.4,-1.9,-1.6,25,787.276,-4.16027,605.724,-0.414399,-0.441778,-1.71256,
2026_06_26_17_10_45.711,3.873,40.9,0,0.768,0,0,0,0, ,0,0,0,0,0, ,787.9,-6.2,600.7,-0.9,-1.2,-1.7,25,787.284,-4.2998,605.518,-0.459225,-0.509311,-1.70875,
2026_06_26_17_10_45.740,3.873,41,0,0.767,0,0,0,0, ,0,0,0,0,0, ,788.3,-3.2,600.7,-0.4,-0.5,-1.8,25,787.333,-4.32419,605.225,-0.47085,-0.530071,-1.71126,
2026_06_26_17_10_45.751,3.873,41,0,0.767,0,0,0,0, ,0,0,0,0,0, ,789.5,-4.2,603,-0.1,0,-1.7,25,787.429,-4.28615,605.019,-0.457392,-0.513005,-1.71362,
2026_06_26_17_10_45.780,3.873,40.9,0,0.767,0,0,0,0, ,0,0,0,0,0, ,786.9,-5.8,607.2,-0.2,0,-1.7,25,787.476,-4.32965,605.024,-0.438661,-0.481743,-1.71279,
2026_06_26_17_10_45.790,3.873,41,0,0.768,0,0,0,0, ,0,0,0,0,0, ,787.2,-4.2,604.6,0,0,-1.8,25,787.45,-4.3705,605.077,-0.418023,-0.452387,-1.71506,
2026_06_26_17_10_45.820,3.873,40.9,0,0.769,0,0,0,0, ,0,0,0,0,0, ,786.2,-5.2,607.6,-0.3,0,-1.8,25,787.404,-4.39058,605.14,-0.401691,-0.42482,-1.72023,
2026_06_26_17_10_45.830,3.873,41,0,0.768,0,0,0,0, ,0,0,0,0,0, ,787.4,-5.2,602.2,-0.3,0,-2.1,25,787.367,-4.4399,605.125,-0.395494,-0.398932,-1.73424,
2026_06_26_17_10_45.859,3.873,40.9,0,0.767,0,0,0,0, ,0,0,0,0,0, ,786.7,-3.9,608.1,-0.4,0,-2,25,787.348,-4.44661,605.126,-0.392722,-0.374622,-1.75348,
2026_06_26_17_10_45.869,3.873,40.9,0,0.768,0,0,0,0, ,0,0,0,0,0, ,785.1,-2.4,605.3,-0.1,0,-1.9,25,787.26,-4.3676,605.222,-0.384025,-0.351794,-1.76545,
2026_06_26_17_10_45.898,3.873,41,0,0.768,0,0,0,0, ,0,0,0,0,0, ,786.2,-3.4,607.2,0.1,0.2,-1.7,25,787.162,-4.27817,605.285,-0.360623,-0.324263,-1.76756,
2026_06_26_17_10_45.908,3.873,40.9,0,0.767,0,0,0,0, ,0,0,0,0,0, ,784.9,-2.6,610.9,-0.1,-0.2,-1.7,25,787.063,-4.20028,605.514,-0.338648,-0.304503,-1.76344,
2026_06_26_17_10_45.938,3.873,40.9,0,0.767,0,0,0,0, ,0,0,0,0,0, ,785.8,-2.3,612,-0.5,-0.8,-1.6,25,786.959,-4.09362,605.876,-0.336293,-0.316416,-1.75653,
2026_06_26_17_10_45.948,3.873,40.9,0,0.768,0,0,0,0, ,0,0,0,0,0, ,786.2,-3.6,606.2,-1.2,-1.2,-1.6,25,786.901,-4.02393,606.073,-0.367597,-0.358072,-1.74699,
2026_06_26_17_10_45.978,3.873,40.9,0,0.767,0,0,0,0, ,0,0,0,0,0, ,786,-5.9,603.2,-0.6,-0.7,-1.7,25,786.852,-4.06818,605.989,-0.40004,-0.394143,-1.74108,
2026_06_26_17_10_45.988,3.873,40.9,0,0.77,0,0,0,0, ,0,0,0,0,0, ,787.4,-5.1,608,-0.3,-0.6,-1.9,25,786.843,-4.15543,605.965,-0.403084,-0.409734,-1.74467,
2026_06_26_17_10_46.018,3.873,40.9,0,0.767,0,0,0,0, ,0,0,0,0,0, ,785.7,-2.6,604.6,-0.1,-0.4,-2,25,786.825,-4.13682,605.986,-0.390709,-0.415234,-1.75718,
2026_06_26_17_10_46.027,3.873,41,0,0.767,0,0,0,0, ,0,0,0,0,0, ,787.5,-1.7,606.9,-0.6,-0.3,-1.9,25,786.811,-4.01575,605.971,-0.388228,-0.411259,-1.76893,
2026_06_26_17_10_46.057,3.873,40.9,0,0.768,0,0,0,0, ,0,0,0,0,0, ,786.7,-4.7,604.3,-0.3,0,-1.6,25,786.829,-3.96604,605.949,-0.391992,-0.395339,-1.76778,
2026_06_26_17_10_46.067,3.873,40.9,0,0.768,0,0,0,0, ,0,0,0,0,0, ,787.2,-5.4,607.7,-0.1,0,-1.8,25,786.836,-4.03209,605.952,-0.380293,-0.371248,-1.76365,
2026_06_26_17_10_46.099,3.873,40.9,0,0.768,0,0,0,0, ,0,0,0,0,0, ,785.5,-3.2,607.9,-0.1,-0.3,-1.8,25,786.806,-4.04842,606.064,-0.363213,-0.357765,-1.76586,
2026_06_26_17_10_46.107,3.873,41,0,0.768,0,0,0,0, ,0,0,0,0,0, ,787.3,-2.9,608.8,-0.2,-0.4,-1.8,25,786.782,-3.98757,606.204,-0.35022,-0.357292,-1.76794,
2026_06_26_17_10_46.136,3.873,40.9,0,0.769,0,0,0,0, ,0,0,0,0,0, ,786.6,-2.1,606,-0.6,-0.7,-1.7,25,786.792,-3.89693,606.277,-0.353253,-0.369035,-1.76685,
2026_06_26_17_10_46.149,3.873,40.9,0,0.769,0,0,0,0, ,0,0,0,0,0, ,784.4,-1.9,607.1,-0.8,-1,-1.6,25,786.713,-3.78133,606.293,-0.374383,-0.398344,-1.75973,
2026_06_26_17_10_46.180,3.873,40.9,0,0.767,0,0,0,0, ,0,0,0,0,0, ,786.6,-4.6,606.2,-0.9,-1.2,-1.4,25,786.639,-3.74895,606.315,-0.403366,-0.441101,-1.7439,
2026_06_26_17_10_46.186,3.873,40.9,0,0.767,0,0,0,0, ,0,0,0,0,0, ,786.9,-5,605.8,-0.7,-1.2,-1.4,25,786.646,-3.813,606.296,-0.427536,-0.487347,-1.72295,
2026_06_26_17_10_46.216,3.873,40.9,0,0.768,0,0,0,0, ,0,0,0,0,0, ,786.2,-6.1,602.9,-0.5,-1.2,-1.5,25,786.64,-3.91885,606.177,-0.438046,-0.530774,-1.70631,
2026_06_26_17_10_46.226,3.873,40.9,0,0.769,0,0,0,0, ,0,0,0,0,0, ,786.9,-3.6,602.7,-0.3,-0.9,-1.5,25,786.635,-3.97559,605.971,-0.435727,-0.562414,-1.69374,
2026_06_26_17_10_46.255,3.873,40.9,0,0.769,0,0,0,0, ,0,0,0,0,0, ,786.4,-4.3,605.4,-0.5,-0.6,-1.6,25,786.636,-3.97403,605.854,-0.43355,-0.573845,-1.68498,
2026_06_26_17_10_46.265,3.873,40.9,0,0.768,0,0,0,0, ,0,0,0,0,0, ,787.2,-4.5,603,-0.8,-0.5,-1.6,25,786.646,-3.99999,605.754,-0.44674,-0.572392,-1.6798,
2026_06_26_17_10_46.296,3.873,40.8,0,0.767,0,0,0,0, ,0,0,0,0,0, ,786.8,-5.6,604.3,-1.4,-0.6,-1.7,25,786.667,-4.06398,605.625,-0.486548,-0.571028,-1.67799,
2026_06_26_17_10_46.305,3.873,40.9,0,0.768,0,0,0,0, ,0,0,0,0,0, ,788.9,-5.6,603.1,-0.1,0,-1.8,25,786.739,-4.15758,605.508,-0.502602,-0.554512,-1.68238,
2026_06_26_17_10_46.335,3.873,40.9,0,0.768,0,0,0,0, ,0,0,0,0,0, ,787.1,-4.7,605.8,0,0,-2.1,25,786.816,-4.21805,605.444,-0.475022,-0.520721,-1.69868,
2026_06_26_17_10_46.345,3.873,40.9,0,0.768,0,0,0,0, ,0,0,0,0,0, ,787.3,-2.6,607.9,-0.1,0.2,-2,25,786.84,-4.18344,605.529,-0.449122,-0.482896,-1.72009,
2026_06_26_17_10_46.375,3.873,40.8,0,0.768,0,0,0,0, ,0,0,0,0,0, ,785.2,-2.8,606.9,-0.5,0,-1.9,25,786.804,-4.09304,605.643,-0.440035,-0.447376,-1.7341,
2026_06_26_17_10_46.385,3.873,40.8,0,0.767,0,0,0,0, ,0,0,0,0,0, ,785.8,-5.6,605.9,-0.4,-0.1,-1.9,25,786.724,-4.09956,605.689,-0.440642,-0.423161,-1.74421,
2026_06_26_17_10_46.415,3.873,40.8,0,0.767,0,0,0,0, ,0,0,0,0,0, ,785.6,-5,607.6,-0.4,0.1,-2.1,25,786.662,-4.17271,605.754,-0.438165,-0.397375,-1.7598,
2026_06_26_17_10_46.424,3.873,40.8,0,0.767,0,0,0,0, ,0,0,0,0,0, ,788.3,-5.3,607.7,-0.2,-0.1,-2.1,25,786.679,-4.23226,605.87,-0.429746,-0.37316,-1.78053,
2026_06_26_17_10_46.456,3.873,40.9,0,0.767,0,0,0,0, ,0,0,0,0,0, ,786.3,-2.1,603.1,-0.1,0.1,-2.2,25,786.717,-4.19983,605.841,-0.412699,-0.35042,-1.80304,
2026_06_26_17_10_46.463,3.873,40.9,0,0.768,0,0,0,0, ,0,0,0,0,0, ,785.5,-1,609.2,-0.3,0.1,-1.7,25,786.667,-4.03835,605.86,-0.399738,-0.322973,-1.812,
2026_06_26_17_10_46.493,3.873,40.8,0,0.768,0,0,0,0, ,0,0,0,0,0, ,784,-3.5,607.6,-0.3,-0.3,-1.5,25,786.55,-3.92938,606.015,-0.39366,-0.309385,-1.79908,
2026_06_26_17_10_46.503,3.873,40.9,0,0.768,0,0,0,0, ,0,0,0,0,0, ,786.2,-2.8,605.9,0,-0.3,-1.5,25,786.462,-3.88188,606.059,-0.378812,-0.308813,-1.78086,
2026_06_26_17_10_46.533,3.873,40.9,0,0.768,0,0,0,0, ,0,0,0,0,0, ,784.5,-4.5,614.9,-0.4,-0.6,-1.6,25,786.394,-3.86775,606.324,-0.367915,-0.317417,-1.76679,
2026_06_26_17_10_46.542,3.873,40.9,0,0.768,0,0,0,0, ,0,0,0,0,0, ,784.4,-3.4,609.7,-1.6,-1.8,-1.6,25,786.276,-3.87276,606.688,-0.406433,-0.371199,-1.75662,
2026_06_26_17_10_46.573,3.873,40.8,0,0.768,0,0,0,0, ,0,0,0,0,0, ,786.7,-5.7,604.3,-1.2,-1.9,-1.6,25,786.232,-3.91403,606.707,-0.466979,-0.461314,-1.74708,
2026_06_26_17_10_46.582,3.873,40.9,0,0.767,0,0,0,0, ,0,0,0,0,0, ,788.9,-6.9,598.8,-0.3,-1,-1.7,25,786.327,-4.05943,606.393,-0.484225,-0.521562,-1.74116,
2026_06_26_17_10_46.614,3.873,40.9,0,0.767,0,0,0,0, ,0,0,0,0,0, ,786.8,-2.5,605.7,0,-0.4,-1.7,25,786.42,-4.09846,606.14,-0.463858,-0.532435,-1.73866,
2026_06_26_17_10_46.622,3.873,40.8,0,0.767,0,0,0,0, ,0,0,0,0,0, ,785.2,-1.8,605.8,-0.5,-0.3,-1.4,25,786.394,-3.97973,606.117,-0.450826,-0.521318,-1.72716,
2026_06_26_17_10_46.654,3.873,40.8,0,0.768,0,0,0,0, ,0,0,0,0,0, ,784.5,-5,608.2,-0.7,-0.6,-1.4,25,786.3,-3.9444,606.17,-0.459917,-0.516972,-1.70722,
