UTC_Time,Vin,TC1,TC2,Rh1,Vh1,Ah1,Acp1,Dty1,Err1,Rh2,Vh2,Ah2,Acp2,Dty2,Err2,Accel_x,Accel_y,Accel_z,gyro_x,gyro_y,gyro_z,Temp_c,Accel_x_h,Accel_y_h,Accel_z_h,gyro_x_h,gyro_y_h,gyro_z_h,
2026_07_06_15_26_41.487,3.847,28.9,0,0.757,0,0,0,0.008, ,0,0,0,0,0, ,-39.7,155.8,988.7,-0.7,-0.5,-1.9,25,-39.7,155.8,988.7,-0.7,-0.5,-1.9,
2026_07_06_15_26_41.503,3.847,28.8,0,0.758,0,0,0,0.009, ,0,0,0,0,0, ,-38.8,156.1,987,-0.7,-0.5,-1.9,25,-39.6726,155.809,988.648,-0.7,-0.5,-1.9,
2026_07_06_15_26_41.537,3.847,28.9,0,0.757,0,0,0,0.009, ,0,0,0,0,0, ,-39.3,156.4,987.5,-0.7,-0.5,-1.9,25,-39.6346,155.836,988.563,-0.7,-0.5,-1.9,
2026_07_06_15_26_41.553,3.847,28.9,0,0.759,0,0,0,0.009, ,0,0,0,0,0, ,-38.5,155.8,987.7,-0.6,-0.5,-1.8,25,-39.5899,155.852,988.504,-0.696953,-0.5,-1.89695,
2026_07_06_15_26_41.570,3.847,28.8,0,0.757,0,0,0,0.009, ,0,0,0,0,0, ,-38.5,156.3,986.6,-0.7,-0.4,-1.9,25,-39.5235,155.864,988.422,-0.694092,-0.496953,-1.89409,
2026_07_06_15_26_41.586,3.847,28.8,0,0.759,0,0,0,0.01, ,0,0,0,0,0, ,-38.6,155.6,987.7,-0.6,-0.5,-1.9,25,-39.4641,155.869,988.344,-0.691405,-0.494092,-1.89445,
2026_07_06_15_26_41.603,3.847,28.8,0,0.757,0,0,0,0.01, ,0,0,0,0,0, ,-39,155.8,986.9,-0.6,-0.4,-1.8,25,-39.4237,155.859,988.281,-0.685835,-0.491405,-1.89174,
2026_07_06_15_26_41.637,3.847,28.8,0,0.757,0,0,0,0.01, ,0,0,0,0,0, ,-39,156.9,989.1,-0.7,-0.5,-1.9,25,-39.3979,155.889,988.264,-0.683651,-0.488882,-1.8892,
2026_07_06_15_26_41.653,3.847,28.9,0,0.757,0,0,0,0.01, ,0,0,0,0,0, ,-38.6,155.6,988.5,-0.6,-0.5,-1.9,25,-39.3614,155.911,988.296,-0.681601,-0.489559,-1.88986,
2026_07_06_15_26_41.674,3.847,28.8,0,0.757,0,0,0,0.009, ,0,0,0,0,0, ,-39.1,156,987.9,-0.6,-0.5,-1.9,25,-39.3303,155.904,988.29,-0.676628,-0.490196,-1.89048,
2026_07_06_15_26_41.687,3.847,28.9,0,0.758,0,0,0,0.01, ,0,0,0,0,0, ,-37.8,156,987.5,-0.6,-0.4,-2,25,-39.2766,155.91,988.254,-0.671959,-0.487746,-1.8941,
2026_07_06_15_26_41.703,3.847,28.8,0,0.758,0,0,0,0.01, ,0,0,0,0,0, ,-39.6,154.9,987.3,-0.7,-0.5,-1.9,25,-39.2415,155.882,988.202,-0.670621,-0.485446,-1.89751,
2026_07_06_15_26_41.735,3.847,28.8,0,0.759,0,0,0,0.011, ,0,0,0,0,0, ,-38.3,156.1,987,-0.6,-0.4,-1.8,25,-39.2237,155.859,988.138,-0.669364,-0.483286,-1.89461,
2026_07_06_15_26_41.753,3.847,28.8,0,0.759,0,0,0,0.011, ,0,0,0,0,0, ,-37.9,156.1,988.8,-0.6,-0.5,-1.9,25,-39.1552,155.873,988.124,-0.665137,-0.481258,-1.8919,
2026_07_06_15_26_41.770,3.847,28.9,0,0.758,0,0,0,0.011, ,0,0,0,0,0, ,-38.3,155,987.6,-0.7,-0.5,-1.9,25,-39.0909,155.854,988.128,-0.664215,-0.4824,-1.89239,
2026_07_06_15_26_41.786,3.847,28.8,0,0.758,0,0,0,0.01, ,0,0,0,0,0, ,-38.4,156,985.8,-0.7,-0.4,-1.9,25,-39.0458,155.832,988.041,-0.666395,-0.480425,-1.89285,
2026_07_06_15_26_41.803,3.847,28.8,0,0.758,0,0,0,0.011, ,0,0,0,0,0, ,-38.4,157.9,987.5,-0.6,-0.5,-1.9,25,-39.0064,155.9,987.957,-0.665396,-0.478571,-1.89329,
2026_07_06_15_26_41.820,3.847,28.9,0,0.758,0,0,0,0.011, ,0,0,0,0,0, ,-38.9,156.7,988.2,-0.7,-0.5,-1.8,25,-38.9847,155.986,987.95,-0.664458,-0.479877,-1.89065,
2026_07_06_15_26_41.853,3.847,28.9,0,0.758,0,0,0,0.011, ,0,0,0,0,0, ,-39.3,155.5,988.4,-0.6,-0.5,-1.8,25,-38.9917,155.993,987.971,-0.663577,-0.481103,-1.88513,
2026_07_06_15_26_41.870,3.847,28.9,0,0.757,0,0,0,0.011, ,0,0,0,0,0, ,-38.2,156.2,987,-0.6,-0.5,-1.8,25,-38.977,155.984,987.955,-0.659703,-0.482255,-1.87994,
2026_07_06_15_26_41.887,3.847,28.9,0,0.758,0,0,0,0.011, ,0,0,0,0,0, ,-38.8,156.9,987.1,-0.6,-0.5,-1.9,25,-38.9479,156.018,987.9,-0.656065,-0.483336,-1.87811,
2026_07_06_15_26_41.903,3.847,28.9,0,0.758,0,0,0,0.011, ,0,0,0,0,0, ,-39.5,156,988.5,-0.7,-0.5,-1.8,25,-38.9603,156.045,987.894,-0.655695,-0.484352,-1.8764,
2026_07_06_15_26_41.920,3.847,28.9,0,0.758,0,0,0,0.011, ,0,0,0,0,0, ,-40.1,155.8,987.5,-0.6,-0.4,-1.8,25,-39.0114,156.036,987.9,-0.655348,-0.482258,-1.87175,
2026_07_06_15_26_41.953,3.847,29.1,0,0.758,0,0,0,0.011, ,0,0,0,0,0, ,-38,155.5,986.6,-0.7,-0.5,-1.8,25,-39.0138,156.012,987.848,-0.655022,-0.480293,-1.86737,
2026_07_06_15_26_41.970,3.847,28.9,0,0.758,0,0,0,0.01, ,0,0,0,0,0, ,-38.5,156.8,988.7,-0.7,-0.5,-1.8,25,-38.9672,156.021,987.836,-0.657763,-0.481494,-1.86327,
2026_07_06_15_26_41.987,3.847,29.1,0,0.759,0,0,0,0.011, ,0,0,0,0,0, ,-38.3,157.1,986.9,-0.7,-0.5,-1.9,25,-38.9327,156.077,987.834,-0.660337,-0.482621,-1.86246,
2026_07_06_15_26_42.003,3.847,28.9,0,0.758,0,0,0,0.01, ,0,0,0,0,0, ,-39.1,156.3,989.1,-0.7,-0.5,-1.9,25,-38.9185,156.115,987.844,-0.662754,-0.48368,-1.86475,
2026_07_06_15_26_42.020,3.847,28.9,0,0.757,0,0,0,0.011, ,0,0,0,0,0, ,-39.3,155.6,988.1,-0.6,-0.5,-1.9,25,-38.9356,156.105,987.89,-0.661977,-0.484675,-1.8669,
2026_07_06_15_26_42.052,3.847,29.1,0,0.76,0,0,0,0.012, ,0,0,0,0,0, ,-39.1,155.8,987,-0.7,-0.5,-1.9,25,-38.9518,156.081,987.869,-0.661247,-0.485609,-1.86891,
2026_07_06_15_26_42.070,3.847,28.9,0,0.758,0,0,0,0.01, ,0,0,0,0,0, ,-38.9,156,987.7,-0.7,-0.5,-1.8,25,-38.9547,156.07,987.838,-0.663608,-0.486486,-1.86776,
2026_07_06_15_26_42.087,3.847,29.1,0,0.757,0,0,0,0.012, ,0,0,0,0,0, ,-38,156,987.7,-0.6,-0.5,-1.8,25,-38.9239,156.065,987.829,-0.662779,-0.487309,-1.86363,
2026_07_06_15_26_42.103,3.847,29.1,0,0.758,0,0,0,0.01, ,0,0,0,0,0, ,-38.2,156.7,988.5,-0.6,-0.5,-1.9,25,-38.8737,156.083,987.846,-0.658953,-0.488083,-1.8628,
2026_07_06_15_26_42.120,3.847,29.1,0,0.757,0,0,0,0.01, ,0,0,0,0,0, ,-38,156.8,987.6,-0.7,-0.4,-1.8,25,-38.8266,156.123,987.858,-0.658408,-0.485762,-1.86202,
2026_07_06_15_26_42.136,3.847,29.1,0,0.758,0,0,0,0.01, ,0,0,0,0,0, ,-38.6,155,987.3,-0.6,-0.5,-1.8,25,-38.7945,156.11,987.833,-0.657895,-0.483583,-1.85824,
2026_07_06_15_26_42.170,3.847,29.1,0,0.758,0,0,0,0.011, ,0,0,0,0,0, ,-38.5,156.1,988.5,-0.7,-0.5,-1.8,25,-38.7796,156.076,987.837,-0.657414,-0.484583,-1.85469,
2026_07_06_15_26_42.187,3.847,29.1,0,0.758,0,0,0,0.011, ,0,0,0,0,0, ,-38.8,156.3,987.9,-0.6,-0.5,-1.8,25,-38.7717,156.083,987.86,-0.656963,-0.485523,-1.85136,
2026_07_06_15_26_42.204,3.847,29.1,0,0.758,0,0,0,0.011, ,0,0,0,0,0, ,-38.4,156.6,988.1,-0.7,-0.4,-1.8,25,-38.7612,156.106,987.868,-0.656538,-0.483358,-1.84823,
2026_07_06_15_26_42.220,3.847,29.1,0,0.757,0,0,0,0.011, ,0,0,0,0,0, ,-38.6,157.1,987,-0.7,-0.5,-1.8,25,-38.7453,156.151,987.849,-0.659187,-0.481325,-1.84529,
2026_07_06_15_26_42.236,3.847,29.1,0,0.757,0,0,0,0.011, ,0,0,0,0,0, ,-39.1,156.7,987.5,-0.6,-0.5,-1.9,25,-38.7517,156.197,987.812,-0.658627,-0.482463,-1.84558,
2026_07_06_15_26_42.270,3.847,29.2,0,0.758,0,0,0,0.011, ,0,0,0,0,0, ,-37.8,156.4,986.6,-0.6,-0.5,-1.9,25,-38.7333,156.218,987.766,-0.655054,-0.483532,-1.84889,
2026_07_06_15_26_42.289,3.847,29.1,0,0.758,0,0,0,0.01, ,0,0,0,0,0, ,-38.5,156.6,987.5,-0.6,-0.4,-1.8,25,-38.6978,156.235,987.722,-0.651699,-0.481488,-1.84896,
2026_07_06_15_26_42.303,3.847,29.1,0,0.757,0,0,0,0.011, ,0,0,0,0,0, ,-38.3,156.1,986.9,-0.6,-0.5,-1.9,25,-38.6796,156.242,987.69,-0.648549,-0.47957,-1.84902,
2026_07_06_15_26_42.320,3.847,29.2,0,0.758,0,0,0,0.011, ,0,0,0,0,0, ,-38.4,155.1,988.1,-0.6,-0.5,-1.9,25,-38.6595,156.203,987.679,-0.645591,-0.480815,-1.85213,
2026_07_06_15_26_42.336,3.847,29.1,0,0.759,0,0,0,0.011, ,0,0,0,0,0, ,-38.5,155.3,989.1,-0.6,-0.5,-1.9,25,-38.6468,156.142,987.735,-0.642812,-0.481984,-1.85505,
2026_07_06_15_26_42.370,3.847,29.2,0,0.76,0,0,0,0.011, ,0,0,0,0,0, ,-38.8,156.3,988.1,-0.7,-0.4,-1.9,25,-38.647,156.121,987.788,-0.64325,-0.480035,-1.85779,
2026_07_06_15_26_42.387,3.847,29.2,0,0.758,0,0,0,0.011, ,0,0,0,0,0, ,-39.5,156.7,987.6,-0.6,-0.5,-1.9,25,-38.6776,156.144,987.791,-0.643662,-0.478204,-1.86036,
2026_07_06_15_26_42.403,3.847,29.1,0,0.758,0,0,0,0.011, ,0,0,0,0,0, ,-39.4,156.4,986.2,-0.6,-0.5,-1.9,25,-38.7247,156.169,987.737,-0.641001,-0.479533,-1.86278,
2026_07_06_15_26_42.420,3.847,29.2,0,0.758,0,0,0,0.012, ,0,0,0,0,0, ,-38.9,157.8,987.3,-0.7,-0.5,-1.8,25,-38.7506,156.226,987.677,-0.641549,-0.48078,-1.862,
2026_07_06_15_26_42.436,3.847,29.1,0,0.76,0,0,0,0.011, ,0,0,0,0,0, ,-39.5,156.7,987.3,-0.7,-0.4,-1.8,25,-38.778,156.288,987.654,-0.645111,-0.478904,-1.85822,
2026_07_06_15_26_42.470,3.847,29.1,0,0.759,0,0,0,0.012, ,0,0,0,0,0, ,-37.9,155.5,988.5,-0.7,-0.5,-1.9,25,-38.7732,156.277,987.669,-0.648456,-0.477143,-1.85772,
2026_07_06_15_26_42.488,3.847,29.1,0,0.759,0,0,0,0.012, ,0,0,0,0,0, ,-39.3,155.2,986.4,-0.6,-0.4,-1.9,25,-38.7627,156.22,987.656,-0.64855,-0.475489,-1.86029,
2026_07_06_15_26_42.504,3.847,29.2,0,0.759,0,0,0,0.012, ,0,0,0,0,0, ,-39,156.1,988.7,-0.7,-0.5,-1.9,25,-38.7863,156.185,987.649,-0.648638,-0.473936,-1.86271,
2026_07_06_15_26_42.520,3.847,29.2,0,0.758,0,0,0,0.011, ,0,0,0,0,0, ,-38.9,156.2,988.2,-0.7,-0.5,-1.9,25,-38.7963,156.183,987.698,-0.651768,-0.475524,-1.86499,
2026_07_06_15_26_42.537,3.847,29.3,0,0.757,0,0,0,0.011, ,0,0,0,0,0, ,-39.3,156.7,987.7,-0.6,-0.5,-1.8,25,-38.8148,156.2,987.713,-0.651661,-0.477015,-1.86407,
2026_07_06_15_26_42.560,3.847,29.2,0,0.758,0,0,0,0.011, ,0,0,0,0,0, ,-37.7,156.7,988.5,-0.7,-0.5,-1.9,25,-38.7956,156.23,987.737,-0.651559,-0.478416,-1.86322,
2026_07_06_15_26_42.587,3.847,29.2,0,0.757,0,0,0,0.012, ,0,0,0,0,0, ,-39.5,156.9,989,-0.7,-0.5,-1.8,25,-38.7837,156.265,987.799,-0.654511,-0.479731,-1.86241,
2026_07_06_15_26_42.603,3.847,29.2,0,0.757,0,0,0,0.012, ,0,0,0,0,0, ,-39.5,155.1,985.9,-0.7,-0.6,-1.9,25,-38.8273,156.249,987.777,-0.657283,-0.484013,-1.86165,
2026_07_06_15_26_42.620,3.847,29.3,0,0.757,0,0,0,0.012, ,0,0,0,0,0, ,-38.4,156.1,987,-0.7,-0.5,-1.8,25,-38.8348,156.209,987.697,-0.659886,-0.488034,-1.86094,
2026_07_06_15_26_42.637,3.847,29.3,0,0.758,0,0,0,0.011, ,0,0,0,0,0, ,-39.5,156.2,987.6,-0.7,-0.5,-1.8,25,-38.8418,156.206,987.672,-0.662331,-0.488764,-1.85723,
2026_07_06_15_26_42.661,3.847,29.2,0,0.76,0,0,0,0.011, ,0,0,0,0,0, ,-38.4,155.6,987.3,-0.7,-0.5,-1.8,25,-38.8484,156.187,987.659,-0.664626,-0.489448,-1.85374,
2026_07_06_15_26_42.686,3.847,29.3,0,0.758,0,0,0,0.012, ,0,0,0,0,0, ,-39.4,155.6,988.1,-0.6,-0.4,-1.9,25,-38.8516,156.151,987.661,-0.663735,-0.487044,-1.85351,
2026_07_06_15_26_42.702,3.847,29.3,0,0.758,0,0,0,0.011, ,0,0,0,0,0, ,-38,156,985.1,-0.6,-0.4,-1.8,25,-38.8423,156.13,987.597,-0.659851,-0.48174,-1.8533,
2026_07_06_15_26_42.720,3.847,29.2,0,0.758,0,0,0,0.011, ,0,0,0,0,0, ,-38.4,157.8,986.5,-0.6,-0.5,-1.8,25,-38.8032,156.177,987.487,-0.656204,-0.479806,-1.85005,
2026_07_06_15_26_42.737,3.847,29.3,0,0.758,0,0,0,0.012, ,0,0,0,0,0, ,-39.3,156.7,987.5,-0.7,-0.6,-1.8,25,-38.806,156.242,987.457,-0.655826,-0.484083,-1.847,
2026_07_06_15_26_42.761,3.847,29.3,0,0.757,0,0,0,0.011, ,0,0,0,0,0, ,-39,156.3,989.1,-0.6,-0.5,-1.8,25,-38.827,156.258,987.509,-0.655471,-0.4881,-1.84414,
2026_07_06_15_26_42.785,3.847,29.3,0,0.76,0,0,0,0.011, ,0,0,0,0,0, ,-38.2,155.8,987.7,-0.7,-0.5,-1.8,25,-38.8132,156.245,987.563,-0.655137,-0.488825,-1.84145,
2026_07_06_15_26_42.803,3.847,29.3,0,0.758,0,0,0,0.012, ,0,0,0,0,0, ,-39,155.3,987.3,-0.6,-0.4,-1.8,25,-38.8002,156.203,987.559,-0.654824,-0.486459,-1.83892,
2026_07_06_15_26_42.820,3.847,29.4,0,0.758,0,0,0,0.012, ,0,0,0,0,0, ,-38.9,156.8,987.3,-0.6,-0.5,-1.9,25,-38.8093,156.193,987.543,-0.651484,-0.484238,-1.8396,
2026_07_06_15_26_42.837,3.847,29.4,0,0.757,0,0,0,0.011, ,0,0,0,0,0, ,-37.1,157.2,986.8,-0.7,-0.4,-1.8,25,-38.76,156.243,987.513,-0.651393,-0.482151,-1.84023,
2026_07_06_15_26_42.861,3.847,29.3,0,0.758,0,0,0,0.011, ,0,0,0,0,0, ,-37.3,156.9,987.1,-0.6,-0.5,-1.9,25,-38.6649,156.292,987.479,-0.651308,-0.480192,-1.84083,
2026_07_06_15_26_42.886,3.847,29.3,0,0.757,0,0,0,0.012, ,0,0,0,0,0, ,-37.7,154.9,988.1,-0.6,-0.5,-1.9,25,-38.5939,156.268,987.486,-0.648182,-0.481399,-1.84443,
2026_07_06_15_26_42.903,3.847,29.3,0,0.757,0,0,0,0.012, ,0,0,0,0,0, ,-39.5,156.8,987.5,-0.6,-0.5,-1.8,25,-38.5943,156.242,987.506,-0.645246,-0.482533,-1.84477,
2026_07_06_15_26_42.920,3.847,29.3,0,0.759,0,0,0,0.012, ,0,0,0,0,0, ,-38.3,156.2,986.3,-0.7,-0.5,-1.9,25,-38.6129,156.258,987.469,-0.645535,-0.483597,-1.84509,
2026_07_06_15_26_42.937,3.847,29.4,0,0.758,0,0,0,0.012, ,0,0,0,0,0, ,-38.4,156,986.5,-0.7,-0.5,-1.8,25,-38.5969,156.249,987.404,-0.648854,-0.484597,-1.84539,
2026_07_06_15_26_42.961,3.847,29.3,0,0.759,0,0,0,0.011, ,0,0,0,0,0, ,-38.2,156.2,988,-0.7,-0.5,-1.8,25,-38.5788,156.239,987.394,-0.651971,-0.485535,-1.84262,
2026_07_06_15_26_42.970,3.847,29.4,0,0.756,0,0,0,0.012, ,0,0,0,0,0, ,-38.9,156.7,987.7,-0.6,-0.5,-1.8,25,-38.5771,156.252,987.422,-0.651851,-0.486417,-1.84003,
2026_07_06_15_26_43.003,3.847,29.4,0,0.757,0,0,0,0.011, ,0,0,0,0,0, ,-38.3,156.2,986.8,-0.7,-0.4,-1.8,25,-38.5785,156.264,987.411,-0.651738,-0.484198,-1.83759,
2026_07_06_15_26_43.020,3.847,29.4,0,0.758,0,0,0,0.011, ,0,0,0,0,0, ,-37.2,156.8,987,-0.7,-0.5,-1.9,25,-38.528,156.279,987.38,-0.654679,-0.482114,-1.83834,
2026_07_06_15_26_43.038,3.847,29.4,0,0.759,0,0,0,0.012, ,0,0,0,0,0, ,-39,156,987.1,-0.7,-0.4,-1.9,25,-38.5019,156.286,987.36,-0.657441,-0.480157,-1.8421,
2026_07_06_15_26_43.062,3.847,29.4,0,0.759,0,0,0,0.012, ,0,0,0,0,0, ,-39.1,156.1,988,-0.6,-0.5,-1.8,25,-38.5353,156.272,987.372,-0.656987,-0.478319,-1.84258,
2026_07_06_15_26_43.072,3.847,29.4,0,0.758,0,0,0,0.012, ,0,0,0,0,0, ,-39.1,157.1,987.9,-0.6,-0.5,-1.8,25,-38.5697,156.292,987.407,-0.653515,-0.47964,-1.83999,
2026_07_06_15_26_43.103,3.847,29.4,0,0.757,0,0,0,0.012, ,0,0,0,0,0, ,-37.8,156.7,988.5,-0.7,-0.4,-1.9,25,-38.5624,156.329,987.455,-0.6533,-0.477834,-1.8406,
2026_07_06_15_26_43.120,3.847,29.4,0,0.758,0,0,0,0.012, ,0,0,0,0,0, ,-38.6,155.6,987,-0.6,-0.5,-1.9,25,-38.5403,156.318,987.473,-0.653099,-0.476138,-1.84422,
2026_07_06_15_26_43.139,3.847,29.4,0,0.757,0,0,0,0.012, ,0,0,0,0,0, ,-38.4,156.1,988.4,-0.7,-0.5,-1.9,25,-38.5379,156.289,987.487,-0.65291,-0.477592,-1.84762,
2026_07_06_15_26_43.162,3.847,29.4,0,0.758,0,0,0,0.012, ,0,0,0,0,0, ,-37.7,156.6,988.2,-0.7,-0.4,-1.9,25,-38.5081,156.293,987.537,-0.65578,-0.475911,-1.85081,
2026_07_06_15_26_43.170,3.847,29.4,0,0.759,0,0,0,0.012, ,0,0,0,0,0, ,-39.3,155.8,985.9,-0.6,-0.5,-1.8,25,-38.5076,156.287,987.507,-0.655428,-0.474332,-1.85076,
2026_07_06_15_26_43.194,3.847,29.5,0,0.758,0,0,0,0.012, ,0,0,0,0,0, ,-39.3,156.4,988.8,-0.6,-0.5,-1.9,25,-38.5559,156.276,987.497,-0.65205,-0.475896,-1.85071,
2026_07_06_15_26_43.220,3.847,29.5,0,0.757,0,0,0,0.011, ,0,0,0,0,0, ,-39.3,156.8,986.3,-0.6,-0.4,-1.8,25,-38.6013,156.296,987.501,-0.648878,-0.474318,-1.85067,
2026_07_06_15_26_43.237,3.847,29.4,0,0.756,0,0,0,0.011, ,0,0,0,0,0, ,-37.5,155.7,988,-0.7,-0.4,-1.8,25,-38.589,156.293,987.479,-0.648947,-0.469789,-1.84758,
2026_07_06_15_26_43.255,3.847,29.5,0,0.759,0,0,0,0.012, ,0,0,0,0,0, ,-37.8,157.5,987,-0.6,-0.5,-1.8,25,-38.5318,156.312,987.481,-0.649011,-0.468583,-1.84468,
2026_07_06_15_26_43.271,3.847,29.5,0,0.759,0,0,0,0.011, ,0,0,0,0,0, ,-38.9,156.4,987.7,-0.6,-0.5,-1.9,25,-38.5207,156.351,987.473,-0.646024,-0.470498,-1.84501,
2026_07_06_15_26_43.286,3.847,29.5,0,0.758,0,0,0,0.011, ,0,0,0,0,0, ,-39.1,157.5,987.9,-0.6,-0.5,-1.8,25,-38.5499,156.387,987.493,-0.64322,-0.472295,-1.84531,
2026_07_06_15_26_43.319,3.847,29.5,0,0.757,0,0,0,0.011, ,0,0,0,0,0, ,-39.1,156.8,986.8,-0.6,-0.5,-1.8,25,-38.5834,156.434,987.484,-0.640586,-0.473984,-1.84255,
2026_07_06_15_26_43.336,3.847,29.6,0,0.758,0,0,0,0.012, ,0,0,0,0,0, ,-38.4,156.4,987.9,-0.6,-0.5,-1.9,25,-38.5936,156.444,987.476,-0.638113,-0.475569,-1.843,
2026_07_06_15_26_43.353,3.847,29.6,0,0.757,0,0,0,0.011, ,0,0,0,0,0, ,-39.7,155.7,986.6,-0.7,-0.5,-1.9,25,-38.6214,156.42,987.462,-0.638837,-0.477058,-1.84648,
2026_07_06_15_26_43.371,3.847,29.5,0,0.76,0,0,0,0.011, ,0,0,0,0,0, ,-38.8,156.1,986.9,-0.7,-0.5,-1.9,25,-38.6597,156.388,987.419,-0.642564,-0.478456,-1.84974,
2026_07_06_15_26_43.388,3.847,29.5,0,0.758,0,0,0,0.012, ,0,0,0,0,0, ,-38.9,155.1,986.9,-0.7,-0.5,-1.8,25,-38.6713,156.34,987.387,-0.646064,-0.479769,-1.84975,
2026_07_06_15_26_43.420,3.847,29.6,0,0.758,0,0,0,0.012, ,0,0,0,0,0, ,-38.3,156.6,987,-0.7,-0.5,-1.8,25,-38.667,156.31,987.36,-0.649351,-0.481002,-1.84672,
2026_07_06_15_26_43.438,3.847,29.5,0,0.76,0,0,0,0.011, ,0,0,0,0,0, ,-38.6,157.1,986.9,-0.7,-0.4,-1.9,25,-38.6537,156.343,987.335,-0.652437,-0.479112,-1.84692,
2026_07_06_15_26_43.453,3.847,29.5,0,0.758,0,0,0,0.012, ,0,0,0,0,0, ,-38.6,156.2,987.4,-0.6,-0.5,-1.8,25,-38.6505,156.362,987.324,-0.652289,-0.477338,-1.84711,
2026_07_06_15_26_43.480,3.847,29.6,0,0.758,0,0,0,0.012, ,0,0,0,0,0, ,-38,157.7,986.5,-0.7,-0.5,-1.8,25,-38.6291,156.398,987.301,-0.652149,-0.478719,-1.84424,
2026_07_06_15_26_43.496,3.847,29.6,0,0.758,0,0,0,0.011, ,0,0,0,0,0, ,-39.6,156.9,985.8,-0.7,-0.6,-1.9,25,-38.6395,156.453,987.231,-0.655065,-0.483063,-1.84459,
2026_07_06_15_26_43.517,3.847,29.5,0,0.758,0,0,0,0.011, ,0,0,0,0,0, ,-38.9,156.7,986.4,-0.7,-0.5,-1.9,25,-38.6767,156.474,987.162,-0.657803,-0.487142,-1.84797,
2026_07_06_15_26_43.539,3.847,29.6,0,0.758,0,0,0,0.012, ,0,0,0,0,0, ,-38.9,156.9,988.6,-0.6,-0.6,-1.8,25,-38.6903,156.494,987.183,-0.657328,-0.490972,-1.84809,
2026_07_06_15_26_43.554,3.847,29.6,0,0.758,0,0,0,0.011, ,0,0,0,0,0, ,-39.1,156.3,987.3,-0.6,-0.5,-1.9,25,-38.7092,156.5,987.229,-0.653835,-0.494569,-1.84821,
2026_07_06_15_26_43.572,3.847,29.6,0,0.757,0,0,0,0.011, ,0,0,0,0,0, ,-39.7,156.4,989.1,-0.6,-0.5,-1.9,25,-38.7513,156.491,987.289,-0.650554,-0.4949,-1.85136,
2026_07_06_15_26_43.589,3.847,29.6,0,0.757,0,0,0,0.011, ,0,0,0,0,0, ,-39,156.4,987.5,-0.7,-0.5,-1.9,25,-38.7878,156.485,987.35,-0.65052,-0.495211,-1.85433,
2026_07_06_15_26_43.606,3.847,29.7,0,0.759,0,0,0,0.011, ,0,0,0,0,0, ,-38.2,156.7,987.1,-0.6,-0.4,-1.9,25,-38.7763,156.489,987.347,-0.650489,-0.492456,-1.85711,
2026_07_06_15_26_43.636,3.847,29.6,0,0.757,0,0,0,0.011, ,0,0,0,0,0, ,-39.9,156.9,987.6,-0.7,-0.5,-1.9,25,-38.793,156.508,987.347,-0.650459,-0.489869,-1.85972,
2026_07_06_15_26_43.656,3.847,29.6,0,0.759,0,0,0,0.011, ,0,0,0,0,0, ,-38.9,156,986.5,-0.6,-0.5,-1.9,25,-38.83,156.505,987.329,-0.650431,-0.490486,-1.86218,
2026_07_06_15_26_43.672,3.847,29.7,0,0.758,0,0,0,0.011, ,0,0,0,0,0, ,-39,155.5,987.5,-0.7,-0.4,-1.9,25,-38.8373,156.459,987.309,-0.650405,-0.488019,-1.86448,
2026_07_06_15_26_43.690,3.847,29.7,0,0.76,0,0,0,0.011, ,0,0,0,0,0, ,-38.5,155.7,987.3,-0.7,-0.5,-1.8,25,-38.832,156.406,987.315,-0.653427,-0.485702,-1.8636,
2026_07_06_15_26_43.705,3.847,29.7,0,0.759,0,0,0,0.011, ,0,0,0,0,0, ,-37.9,156.2,987.5,-0.7,-0.5,-1.9,25,-38.7935,156.379,987.32,-0.656265,-0.486574,-1.86277,
2026_07_06_15_26_43.736,3.847,29.7,0,0.759,0,0,0,0.011, ,0,0,0,0,0, ,-39.4,157.2,986.9,-0.7,-0.6,-1.8,25,-38.7847,156.398,987.313,-0.65893,-0.490439,-1.86199,
2026_07_06_15_26_43.756,3.847,29.6,0,0.757,0,0,0,0.011, ,0,0,0,0,0, ,-40.1,156.8,987,-0.7,-0.5,-1.8,25,-38.8436,156.435,987.291,-0.661433,-0.494068,-1.85822,
2026_07_06_15_26_43.771,3.847,29.7,0,0.756,0,0,0,0.012, ,0,0,0,0,0, ,-39.4,157.1,988,-0.6,-0.5,-1.9,25,-38.8988,156.466,987.303,-0.660736,-0.49443,-1.85771,
2026_07_06_15_26_43.795,3.847,29.7,0,0.759,0,0,0,0.011, ,0,0,0,0,0, ,-39.3,155,987.6,-0.6,-0.4,-1.8,25,-38.9263,156.441,987.334,-0.657035,-0.491722,-1.85724,
2026_07_06_15_26_43.805,3.847,29.7,0,0.758,0,0,0,0.011, ,0,0,0,0,0, ,-38.5,157.1,987.4,-0.6,-0.4,-1.9,25,-38.9247,156.417,987.344,-0.653559,-0.486133,-1.8568,
2026_07_06_15_26_43.822,3.847,29.7,0,0.757,0,0,0,0.011, ,0,0,0,0,0, ,-38.4,156.2,987,-0.7,-0.5,-1.8,25,-38.8958,156.431,987.335,-0.653342,-0.483931,-1.85639,
2026_07_06_15_26_43.855,3.847,29.7,0,0.757,0,0,0,0.011, ,0,0,0,0,0, ,-38,156.8,986.8,-0.6,-0.4,-1.9,25,-38.8534,156.435,987.308,-0.653139,-0.481863,-1.856,
2026_07_06_15_26_43.872,3.847,29.7,0,0.759,0,0,0,0.011, ,0,0,0,0,0, ,-38.6,157.1,987.4,-0.6,-0.5,-1.8,25,-38.8196,156.467,987.296,-0.649901,-0.479922,-1.85563,
2026_07_06_15_26_43.889,3.847,29.8,0,0.76,0,0,0,0.011, ,0,0,0,0,0, ,-39.3,155.5,988,-0.7,-0.5,-1.8,25,-38.8276,156.457,987.32,-0.649907,-0.481145,-1.85224,
2026_07_06_15_26_43.910,3.847,29.7,0,0.759,0,0,0,0.01, ,0,0,0,0,0, ,-38.6,155.6,987.4,-0.7,-0.5,-1.8,25,-38.835,156.401,987.343,-0.652959,-0.482294,-1.84906,
2026_07_06_15_26_43.922,3.847,29.8,0,0.759,0,0,0,0.011, ,0,0,0,0,0, ,-38.5,156.6,986.6,-0.7,-0.5,-1.8,25,-38.8177,156.383,987.323,-0.655826,-0.483373,-1.84607,
2026_07_06_15_26_43.953,3.847,29.8,0,0.759,0,0,0,0.01, ,0,0,0,0,0, ,-38.6,155.2,987.9,-0.7,-0.5,-1.9,25,-38.8014,156.354,987.318,-0.658518,-0.484386,-1.84631,
2026_07_06_15_26_43.972,3.847,29.7,0,0.758,0,0,0,0.01, ,0,0,0,0,0, ,-38,156.3,988.5,-0.6,-0.5,-1.8,25,-38.7708,156.317,987.372,-0.657999,-0.485338,-1.84653,
2026_07_06_15_26_43.989,3.847,29.7,0,0.758,0,0,0,0.011, ,0,0,0,0,0, ,-38.6,158.2,987,-0.7,-0.5,-1.9,25,-38.7421,156.374,987.395,-0.657511,-0.486231,-1.84675,
2026_07_06_15_26_44.005,3.847,29.7,0,0.759,0,0,0,0.011, ,0,0,0,0,0, ,-38.3,156,987.7,-0.7,-0.4,-1.9,25,-38.7243,156.418,987.392,-0.6601,-0.484023,-1.84999,
2026_07_06_15_26_44.022,3.847,29.8,0,0.76,0,0,0,0.011, ,0,0,0,0,0, ,-38.5,156,987.9,-0.6,-0.5,-1.8,25,-38.7046,156.392,987.417,-0.659485,-0.48195,-1.84999,
2026_07_06_15_26_44.038,3.847,29.7,0,0.758,0,0,0,0.01, ,0,0,0,0,0, ,-39.1,156.2,987.1,-0.6,-0.5,-1.9,25,-38.7104,156.375,987.422,-0.65586,-0.48305,-1.84999,
2026_07_06_15_26_44.071,3.847,29.7,0,0.757,0,0,0,0.011, ,0,0,0,0,0, ,-38.3,156.8,987.6,-0.7,-0.5,-1.9,25,-38.7097,156.382,987.418,-0.655503,-0.484083,-1.85304,
2026_07_06_15_26_44.088,3.847,29.8,0,0.758,0,0,0,0.011, ,0,0,0,0,0, ,-38,155.6,988,-0.7,-0.4,-1.9,25,-38.6756,156.371,987.441,-0.658214,-0.482006,-1.8559,
2026_07_06_15_26_44.106,3.847,29.9,0,0.761,0,0,0,0.01, ,0,0,0,0,0, ,-38.4,155.5,986.9,-0.6,-0.4,-1.8,25,-38.6466,156.321,987.442,-0.657714,-0.477009,-1.85554,
2026_07_06_15_26_44.122,3.847,29.8,0,0.759,0,0,0,0.01, ,0,0,0,0,0, ,-39.4,155.7,987.6,-0.6,-0.4,-1.9,25,-38.6621,156.277,987.43,-0.654197,-0.472316,-1.8552,
2026_07_06_15_26_44.144,3.847,29.9,0,0.757,0,0,0,0.011, ,0,0,0,0,0, ,-37.7,157.2,987,-0.6,-0.5,-1.9,25,-38.6553,156.288,987.422,-0.650894,-0.470956,-1.85793,
2026_07_06_15_26_44.171,3.847,29.9,0,0.758,0,0,0,0.01, ,0,0,0,0,0, ,-38.4,156.8,989,-0.6,-0.5,-1.8,25,-38.6184,156.331,987.457,-0.647793,-0.472726,-1.85745,
2026_07_06_15_26_44.188,3.847,29.8,0,0.758,0,0,0,0.01, ,0,0,0,0,0, ,-38.6,156.9,985.9,-0.6,-0.5,-1.9,25,-38.6112,156.363,987.457,-0.644881,-0.474388,-1.857,
2026_07_06_15_26_44.205,3.847,29.9,0,0.758,0,0,0,0.011, ,0,0,0,0,0, ,-38.6,156.6,989,-0.6,-0.5,-1.9,25,-38.6105,156.386,987.456,-0.642146,-0.475949,-1.85962,
2026_07_06_15_26_44.221,3.847,29.8,0,0.759,0,0,0,0.01, ,0,0,0,0,0, ,-39.5,157.4,987.5,-0.6,-0.5,-1.8,25,-38.6373,156.424,987.505,-0.639577,-0.477414,-1.85903,
2026_07_06_15_26_44.238,3.847,29.9,0,0.759,0,0,0,0.011, ,0,0,0,0,0, ,-38.3,157.1,987.1,-0.7,-0.5,-1.9,25,-38.6533,156.474,987.492,-0.640213,-0.478791,-1.85848,
2026_07_06_15_26_44.270,3.847,29.8,0,0.759,0,0,0,0.01, ,0,0,0,0,0, ,-39.7,156,987.7,-0.5,-0.4,-1.8,25,-38.6744,156.479,987.487,-0.637762,-0.477036,-1.85796,
2026_07_06_15_26_44.287,3.847,29.9,0,0.757,0,0,0,0.011, ,0,0,0,0,0, ,-39.9,157.1,987.6,-0.7,-0.5,-1.9,25,-38.743,156.483,987.497,-0.635461,-0.475389,-1.85748,
2026_07_06_15_26_44.303,3.847,29.9,0,0.758,0,0,0,0.01, ,0,0,0,0,0, ,-38.9,155.7,987.7,-0.6,-0.5,-1.9,25,-38.783,156.478,987.506,-0.636347,-0.476888,-1.86007,
2026_07_06_15_26_44.320,3.847,29.9,0,0.758,0,0,0,0.01, ,0,0,0,0,0, ,-38.5,156.2,986.4,-0.5,-0.4,-1.8,25,-38.778,156.446,987.478,-0.631085,-0.47525,-1.85946,
2026_07_06_15_26_44.343,3.847,29.9,0,0.758,0,0,0,0.01, ,0,0,0,0,0, ,-39.4,156.1,987.7,-0.6,-0.5,-1.9,25,-38.7885,156.428,987.452,-0.626144,-0.473711,-1.85888,
2026_07_06_15_26_44.370,3.847,29.9,0,0.76,0,0,0,0.01, ,0,0,0,0,0, ,-38.6,156.6,988.4,-0.7,-0.4,-1.8,25,-38.8013,156.423,987.488,-0.627598,-0.472266,-1.85834,
2026_07_06_15_26_44.386,3.847,29.9,0,0.759,0,0,0,0.01, ,0,0,0,0,0, ,-40,157.4,987.1,-0.6,-0.5,-1.8,25,-38.8317,156.458,987.504,-0.628963,-0.47091,-1.85478,
2026_07_06_15_26_44.403,3.847,29.9,0,0.76,0,0,0,0.01, ,0,0,0,0,0, ,-38.9,156.7,987.7,-0.6,-0.5,-1.8,25,-38.8694,156.494,987.498,-0.627198,-0.472682,-1.85145,
2026_07_06_15_26_44.430,3.847,30,0,0.758,0,0,0,0.01, ,0,0,0,0,0, ,-38,156.8,985.9,-0.7,-0.5,-1.9,25,-38.8438,156.51,987.456,-0.628587,-0.474347,-1.85136,
2026_07_06_15_26_44.438,3.847,29.9,0,0.759,0,0,0,0.009, ,0,0,0,0,0, ,-38.9,157.5,987.7,-0.7,-0.5,-1.9,25,-38.8198,156.549,987.416,-0.632939,-0.47591,-1.85432,
2026_07_06_15_26_44.469,3.847,30,0,0.758,0,0,0,0, ,0,0,0,0,0, ,-38.6,157.8,988.1,-0.7,-0.5,-1.9,25,-38.8156,156.616,987.445,-0.637026,-0.477378,-1.8571,
2026_07_06_15_26_44.487,3.847,30,0,0.758,0,0,0,0, ,0,0,0,0,0, ,-39.3,156.2,986.8,-0.6,-0.4,-1.9,25,-38.8238,156.639,987.445,-0.637816,-0.47571,-1.85972,
2026_07_06_15_26_44.503,3.847,30,0,0.758,0,0,0,0, ,0,0,0,0,0, ,-38.3,156.3,987.4,-0.7,-0.5,-1.8,25,-38.8223,156.616,987.424,-0.638559,-0.474143,-1.85913,
2026_07_06_15_26_44.520,3.847,30,0,0.758,0,0,0,0, ,0,0,0,0,0, ,-39.5,156.2,987.7,-0.8,-0.5,-1.9,25,-38.8271,156.593,987.432,-0.64535,-0.475719,-1.85857,
2026_07_06_15_26_44.537,3.847,29.9,0,0.76,0,0,0,0, ,0,0,0,0,0, ,-39.3,156.3,988.8,-0.6,-0.5,-1.9,25,-38.862,156.572,987.482,-0.64868,-0.477198,-1.86109,
2026_07_06_15_26_44.564,3.847,29.9,0,0.758,0,0,0,0, ,0,0,0,0,0, ,-38.5,156.4,988,-0.6,-0.4,-1.9,25,-38.8643,156.559,987.538,-0.645714,-0.475541,-1.86347,
2026_07_06_15_26_44.587,3.847,30,0,0.759,0,0,0,0, ,0,0,0,0,0, ,-39.5,156.3,987.3,-0.7,-0.5,-1.9,25,-38.8726,156.546,987.545,-0.645975,-0.473985,-1.86569,
2026_07_06_15_26_44.604,3.847,30,0,0.759,0,0,0,0, ,0,0,0,0,0, ,-39.6,156.8,986.8,-0.7,-0.5,-1.9,25,-38.9138,156.546,987.514,-0.649267,-0.47557,-1.86778,
2026_07_06_15_26_44.621,3.847,30,0,0.759,0,0,0,0, ,0,0,0,0,0, ,-39,154.9,988,-0.7,-0.5,-1.8,25,-38.9374,156.504,987.508,-0.652358,-0.477059,-1.8667,
2026_07_06_15_26_44.638,3.847,30,0,0.758,0,0,0,0, ,0,0,0,0,0, ,-38,155.3,986.4,-0.6,-0.4,-1.8,25,-38.9107,156.418,987.489,-0.652215,-0.47541,-1.86263,
2026_07_06_15_26_44.664,3.847,30,0,0.758,0,0,0,0, ,0,0,0,0,0, ,-38.9,156.6,986.6,-0.7,-0.4,-1.9,25,-38.8827,156.39,987.429,-0.65208,-0.470814,-1.86186,
2026_07_06_15_26_44.686,3.847,30,0,0.758,0,0,0,0, ,0,0,0,0,0, ,-38.6,155.7,989.1,-0.7,-0.5,-1.9,25,-38.8746,156.375,987.454,-0.655,-0.469546,-1.86419,
2026_07_06_15_26_44.704,3.847,30.1,0,0.759,0,0,0,0, ,0,0,0,0,0, ,-38.8,156.1,988.4,-0.6,-0.5,-1.8,25,-38.8639,156.346,987.533,-0.654695,-0.471402,-1.86332,
2026_07_06_15_26_44.721,3.847,30,0,0.759,0,0,0,0, ,0,0,0,0,0, ,-39.9,156.4,986.3,-0.5,-0.5,-1.8,25,-38.8935,156.34,987.522,-0.648315,-0.473145,-1.85947,
2026_07_06_15_26_44.737,3.847,30,0,0.759,0,0,0,0, ,0,0,0,0,0, ,-39,156.6,987.6,-0.6,-0.5,-1.9,25,-38.9275,156.35,987.487,-0.642324,-0.474781,-1.85889,
2026_07_06_15_26_44.765,3.847,29.9,0,0.76,0,0,0,0, ,0,0,0,0,0, ,-38.2,156.6,987.9,-0.7,-0.5,-1.9,25,-38.9075,156.365,987.503,-0.642792,-0.476318,-1.86139,
2026_07_06_15_26_44.786,3.847,30.1,0,0.758,0,0,0,0, ,0,0,0,0,0, ,-38.9,155.7,987.9,-0.7,-0.5,-1.8,25,-38.8857,156.352,987.527,-0.646278,-0.477761,-1.8607,
2026_07_06_15_26_44.803,3.847,30,0,0.758,0,0,0,0, ,0,0,0,0,0, ,-38.5,157.1,987.3,-0.5,-0.4,-1.9,25,-38.8744,156.355,987.532,-0.643458,-0.476069,-1.86005,
2026_07_06_15_26_44.821,3.847,30,0,0.758,0,0,0,0, ,0,0,0,0,0, ,-37.9,157.2,987.4,-0.7,-0.5,-1.8,25,-38.8333,156.404,987.521,-0.64081,-0.474481,-1.85944,
2026_07_06_15_26_44.836,3.847,30,0,0.759,0,0,0,0, ,0,0,0,0,0, ,-38.6,155.7,989.1,-0.7,-0.5,-1.9,25,-38.7978,156.406,987.565,-0.644417,-0.476036,-1.85886,
2026_07_06_15_26_44.861,3.847,30.1,0,0.76,0,0,0,0, ,0,0,0,0,0, ,-40.2,155.6,988.4,-0.6,-0.4,-1.9,25,-38.8345,156.36,987.637,-0.644757,-0.474449,-1.86137,
2026_07_06_15_26_44.885,3.847,30,0,0.758,0,0,0,0, ,0,0,0,0,0, ,-38.3,156.1,988.2,-0.7,-0.5,-1.8,25,-38.8598,156.329,987.678,-0.645076,-0.472959,-1.86067,
2026_07_06_15_26_44.903,3.847,30,0,0.759,0,0,0,0, ,0,0,0,0,0, ,-38,156.4,987.6,-0.6,-0.4,-1.8,25,-38.8165,156.324,987.691,-0.645376,-0.47156,-1.85698,
2026_07_06_15_26_44.920,3.847,30,0,0.759,0,0,0,0, ,0,0,0,0,0, ,-39.4,156.8,986.2,-0.7,-0.5,-1.8,25,-38.8094,156.341,987.643,-0.645658,-0.470246,-1.8535,
2026_07_06_15_26_44.936,3.847,30,0,0.76,0,0,0,0, ,0,0,0,0,0, ,-38.6,155.7,987.5,-0.6,-0.5,-1.8,25,-38.821,156.336,987.595,-0.645923,-0.47206,-1.85024,
2026_07_06_15_26_44.954,3.847,30.1,0,0.759,0,0,0,0, ,0,0,0,0,0, ,-37.3,156,987.9,-0.7,-0.5,-1.9,25,-38.768,156.306,987.601,-0.646171,-0.473762,-1.85023,
2026_07_06_15_26_44.969,3.847,30.1,0,0.758,0,0,0,0, ,0,0,0,0,0, ,-38.9,156.2,987.6,-0.6,-0.5,-1.9,25,-38.7273,156.293,987.61,-0.646405,-0.475361,-1.85326,
2026_07_06_15_26_45.003,3.847,30,0,0.758,0,0,0,0, ,0,0,0,0,0, ,-38.2,154.9,987.7,-0.7,-0.5,-1.8,25,-38.7165,156.248,987.613,-0.646624,-0.476862,-1.85306,
2026_07_06_15_26_45.021,3.847,30,0,0.758,0,0,0,0, ,0,0,0,0,0, ,-38.9,155.7,985.8,-0.7,-0.5,-1.9,25,-38.7063,156.19,987.56,-0.649876,-0.478272,-1.85288,
2026_07_06_15_26_45.037,3.847,30,0,0.757,0,0,0,0, ,0,0,0,0,0, ,-40,157.3,986.3,-0.6,-0.5,-1.8,25,-38.7516,156.209,987.468,-0.649884,-0.479596,-1.8527,
2026_07_06_15_26_45.053,3.847,30,0,0.758,0,0,0,0, ,0,0,0,0,0, ,-40.2,156.6,988,-0.7,-0.5,-1.9,25,-38.8338,156.254,987.449,-0.649891,-0.48084,-1.85254,
2026_07_06_15_26_45.070,3.847,30.1,0,0.758,0,0,0,0, ,0,0,0,0,0, ,-38.8,156.2,985.8,-0.7,-0.5,-1.9,25,-38.8744,156.263,987.415,-0.652944,-0.482007,-1.85543,
2026_07_06_15_26_45.103,3.847,30.1,0,0.759,0,0,0,0, ,0,0,0,0,0, ,-39.4,155.2,988.1,-0.7,-0.5,-1.8,25,-38.8881,156.229,987.387,-0.655812,-0.483104,-1.8551,
2026_07_06_15_26_45.125,3.847,30,0,0.76,0,0,0,0, ,0,0,0,0,0, ,-39.5,157.5,985.7,-0.6,-0.5,-1.9,25,-38.9224,156.236,987.357,-0.655458,-0.484133,-1.85479,
2026_07_06_15_26_45.137,3.847,30.1,0,0.759,0,0,0,0, ,0,0,0,0,0, ,-39.5,156.4,986.5,-0.7,-0.5,-1.9,25,-38.9576,156.28,987.281,-0.655125,-0.4851,-1.85754,
2026_07_06_15_26_45.154,3.847,30.1,0,0.759,0,0,0,0, ,0,0,0,0,0, ,-39,155.7,986.8,-0.7,-0.5,-1.8,25,-38.9754,156.266,987.242,-0.65786,-0.486008,-1.85708,
2026_07_06_15_26_45.174,3.847,30,0,0.759,0,0,0,0, ,0,0,0,0,0, ,-37.3,155.8,988,-0.6,-0.5,-1.9,25,-38.9251,156.234,987.252,-0.657381,-0.486861,-1.85665,
2026_07_06_15_26_45.187,3.847,30.1,0,0.758,0,0,0,0, ,0,0,0,0,0, ,-38,155.6,987.5,-0.7,-0.5,-1.9,25,-38.8474,156.202,987.282,-0.656931,-0.487662,-1.85929,
2026_07_06_15_26_45.220,3.847,30.1,0,0.76,0,0,0,0, ,0,0,0,0,0, ,-38.6,156.7,987.7,-0.6,-0.5,-1.8,25,-38.814,156.199,987.302,-0.656509,-0.488413,-1.85873,
2026_07_06_15_26_45.238,3.847,30,0,0.758,0,0,0,0, ,0,0,0,0,0, ,-38.3,155.8,986.6,-0.6,-0.5,-1.8,25,-38.7919,156.202,987.292,-0.653065,-0.489119,-1.85515,
2026_07_06_15_26_45.266,3.847,30,0,0.757,0,0,0,0, ,0,0,0,0,0, ,-38.2,156.4,988.6,-0.7,-0.5,-1.8,25,-38.7588,156.196,987.311,-0.652878,-0.489782,-1.85179,
2026_07_06_15_26_45.270,3.847,30.1,0,0.757,0,0,0,0, ,0,0,0,0,0, ,-39.9,156.3,988.1,-0.6,-0.5,-1.8,25,-38.7766,156.205,987.374,-0.652703,-0.490405,-1.84863,
2026_07_06_15_26_45.296,3.847,30,0,0.76,0,0,0,0, ,0,0,0,0,0, ,-38.9,156,987.7,-0.6,-0.5,-1.9,25,-38.8146,156.202,987.406,-0.649491,-0.49099,-1.84872,
2026_07_06_15_26_45.320,3.847,30,0,0.76,0,0,0,0, ,0,0,0,0,0, ,-38.8,155.8,985.8,-0.6,-0.5,-1.9,25,-38.8167,156.183,987.366,-0.646475,-0.491539,-1.85184,
2026_07_06_15_26_45.337,3.847,30.1,0,0.759,0,0,0,0, ,0,0,0,0,0, ,-39.1,157.4,987.1,-0.6,-0.5,-1.8,25,-38.8249,156.209,987.311,-0.643643,-0.492054,-1.85173,
2026_07_06_15_26_45.354,3.847,30,0,0.76,0,0,0,0, ,0,0,0,0,0, ,-37.7,156.2,988.4,-0.7,-0.5,-1.9,25,-38.799,156.245,987.337,-0.644031,-0.492539,-1.85162,
2026_07_06_15_26_45.370,3.847,30,0,0.759,0,0,0,0, ,0,0,0,0,0, ,-39.1,156.1,986.4,-0.6,-0.5,-1.8,25,-38.7746,156.239,987.341,-0.644395,-0.492993,-1.85152,
2026_07_06_15_26_45.387,3.847,30.1,0,0.759,0,0,0,0, ,0,0,0,0,0, ,-39.7,155.6,988.7,-0.7,-0.5,-1.8,25,-38.8128,156.215,987.354,-0.644736,-0.49342,-1.84838,
2026_07_06_15_26_45.420,3.847,30,0,0.758,0,0,0,0, ,0,0,0,0,0, ,-38.6,156.2,987,-0.6,-0.4,-1.8,25,-38.8333,156.196,987.384,-0.645057,-0.490774,-1.84544,
2026_07_06_15_26_45.437,3.847,30.1,0,0.757,0,0,0,0, ,0,0,0,0,0, ,-39.3,157.3,988.1,-0.7,-0.5,-1.9,25,-38.8404,156.23,987.394,-0.645358,-0.48829,-1.84571,
2026_07_06_15_26_45.453,3.847,30,0,0.759,0,0,0,0, ,0,0,0,0,0, ,-39,156.1,987.7,-0.7,-0.5,-1.9,25,-38.8593,156.258,987.425,-0.648688,-0.489003,-1.84902,
2026_07_06_15_26_45.473,3.847,30.1,0,0.759,0,0,0,0, ,0,0,0,0,0, ,-38.5,155.7,988.7,-0.7,-0.5,-1.8,25,-38.8526,156.237,987.472,-0.651815,-0.489673,-1.84908,
2026_07_06_15_26_45.486,3.847,30,0,0.76,0,0,0,0, ,0,0,0,0,0, ,-38.4,156.3,986.4,-0.6,-0.5,-1.9,25,-38.8281,156.222,987.477,-0.651704,-0.490303,-1.84914,
2026_07_06_15_26_45.503,3.847,30.1,0,0.759,0,0,0,0, ,0,0,0,0,0, ,-39.3,156.2,986.2,-0.7,-0.5,-1.9,25,-38.8294,156.224,987.405,-0.6516,-0.490894,-1.85224,
2026_07_06_15_26_45.538,3.847,30.1,0,0.758,0,0,0,0, ,0,0,0,0,0, ,-38.6,156.6,988.1,-0.7,-0.5,-1.8,25,-38.8368,156.235,987.39,-0.65455,-0.491449,-1.8521,
2026_07_06_15_26_45.553,3.847,30.1,0,0.758,0,0,0,0, ,0,0,0,0,0, ,-39.7,156.7,986.9,-0.6,-0.4,-1.9,25,-38.8559,156.26,987.396,-0.654272,-0.488923,-1.85197,
2026_07_06_15_26_45.570,3.847,30.1,0,0.76,0,0,0,0, ,0,0,0,0,0, ,-37.7,155.8,987.7,-0.7,-0.5,-1.8,25,-38.8464,156.259,987.391,-0.654012,-0.486551,-1.85185,
2026_07_06_15_26_45.587,3.847,30.1,0,0.758,0,0,0,0, ,0,0,0,0,0, ,-38.6,156.2,986.8,-0.7,-0.5,-1.8,25,-38.8039,156.244,987.382,-0.656814,-0.48737,-1.84869,
2026_07_06_15_26_45.616,3.847,30.1,0,0.757,0,0,0,0, ,0,0,0,0,0, ,-38.6,155.5,987.7,-0.7,-0.5,-1.8,25,-38.7915,156.22,987.374,-0.659446,-0.48814,-1.84573,
2026_07_06_15_26_45.637,3.847,30,0,0.757,0,0,0,0, ,0,0,0,0,0, ,-38.9,155,986.9,-0.6,-0.5,-1.9,25,-38.789,156.16,987.369,-0.65887,-0.488863,-1.84599,
2026_07_06_15_26_45.653,3.847,30.1,0,0.758,0,0,0,0, ,0,0,0,0,0, ,-37.8,157.2,988.1,-0.6,-0.5,-1.9,25,-38.7622,156.157,987.377,-0.655283,-0.489541,-1.84928,
2026_07_06_15_26_45.670,3.847,30,0,0.759,0,0,0,0, ,0,0,0,0,0, ,-39.3,156.4,986.3,-0.7,-0.4,-1.8,25,-38.7493,156.196,987.367,-0.654961,-0.487132,-1.84932,
2026_07_06_15_26_45.686,3.847,30,0,0.759,0,0,0,0, ,0,0,0,0,0, ,-38.9,156.7,987.4,-0.7,-0.5,-1.8,25,-38.7707,156.218,987.335,-0.657706,-0.484869,-1.84632,
2026_07_06_15_26_45.704,3.847,30,0,0.76,0,0,0,0, ,0,0,0,0,0, ,-38,156,987.4,-0.7,-0.5,-1.8,25,-38.7511,156.226,987.339,-0.660283,-0.485791,-1.84349,
2026_07_06_15_26_45.721,3.847,30,0,0.758,0,0,0,0, ,0,0,0,0,0, ,-38.3,155.5,987,-0.7,-0.5,-1.9,25,-38.7145,156.197,987.331,-0.662703,-0.486657,-1.84389,
2026_07_06_15_26_45.754,3.847,30.1,0,0.76,0,0,0,0, ,0,0,0,0,0, ,-39.1,155,986.9,-0.6,-0.5,-1.8,25,-38.7136,156.139,987.307,-0.661929,-0.48747,-1.84426,
2026_07_06_15_26_45.770,3.847,30,0,0.757,0,0,0,0, ,0,0,0,0,0, ,-39.4,156.7,988.6,-0.6,-0.5,-1.8,25,-38.7463,156.121,987.334,-0.658155,-0.488234,-1.84157,
2026_07_06_15_26_45.787,3.847,30,0,0.758,0,0,0,0, ,0,0,0,0,0, ,-38.8,157.1,987.9,-0.7,-0.5,-1.8,25,-38.7678,156.169,987.39,-0.657658,-0.488951,-1.83903,
2026_07_06_15_26_45.803,3.847,30.1,0,0.758,0,0,0,0, ,0,0,0,0,0, ,-38.9,156.7,986.8,-0.6,-0.4,-1.8,25,-38.7729,156.213,987.388,-0.657192,-0.486577,-1.83665,
2026_07_06_15_26_45.836,3.847,30,0,0.759,0,0,0,0, ,0,0,0,0,0, ,-38.6,157.1,987.6,-0.6,-0.5,-1.9,25,-38.7715,156.255,987.376,-0.653707,-0.484348,-1.83747,
2026_07_06_15_26_45.853,3.847,30.1,0,0.759,0,0,0,0, ,0,0,0,0,0, ,-39,157.3,987.5,-0.6,-0.5,-1.9,25,-38.7732,156.313,987.387,-0.650434,-0.485302,-1.84128,
2026_07_06_15_26_45.871,3.847,30,0,0.76,0,0,0,0, ,0,0,0,0,0, ,-37.9,156.1,986.8,-0.6,-0.4,-1.8,25,-38.7535,156.336,987.372,-0.64736,-0.483151,-1.84181,
2026_07_06_15_26_45.887,3.847,30.1,0,0.76,0,0,0,0, ,0,0,0,0,0, ,-38.6,156.4,986.9,-0.7,-0.4,-1.9,25,-38.7228,156.331,987.341,-0.647521,-0.478084,-1.84231,
2026_07_06_15_26_45.903,3.847,30.1,0,0.76,0,0,0,0, ,0,0,0,0,0, ,-39.4,156.1,987.7,-0.6,-0.5,-1.9,25,-38.7397,156.326,987.338,-0.647672,-0.476372,-1.84582,
2026_07_06_15_26_45.920,3.847,30.1,0,0.758,0,0,0,0, ,0,0,0,0,0, ,-37.7,157.2,987,-0.7,-0.5,-1.9,25,-38.7282,156.346,987.339,-0.647814,-0.477812,-1.84913,
2026_07_06_15_26_45.953,3.847,30,0,0.757,0,0,0,0, ,0,0,0,0,0, ,-39,156.6,987.7,-0.6,-0.5,-1.8,25,-38.7051,156.38,987.34,-0.647947,-0.479164,-1.84918,
2026_07_06_15_26_45.972,3.847,30,0,0.759,0,0,0,0, ,0,0,0,0,0, ,-39,155.8,986.9,-0.6,-0.5,-1.9,25,-38.7231,156.369,987.337,-0.645026,-0.480434,-1.84923,
2026_07_06_15_26_45.987,3.847,30.1,0,0.758,0,0,0,0, ,0,0,0,0,0, ,-38.8,156.4,987.5,-0.7,-0.4,-1.9,25,-38.7339,156.352,987.329,-0.645329,-0.478579,-1.85232,
2026_07_06_15_26_46.003,3.847,30,0,0.759,0,0,0,0, ,0,0,0,0,0, ,-37.8,155.7,986.3,-0.7,-0.4,-1.9,25,-38.7074,156.334,987.303,-0.64866,-0.473791,-1.85523,
2026_07_06_15_26_46.028,3.847,30,0,0.759,0,0,0,0, ,0,0,0,0,0, ,-39.1,156.7,986.5,-0.7,-0.4,-1.8,25,-38.6917,156.326,987.248,-0.651789,-0.469294,-1.85491,
2026_07_06_15_26_46.053,3.847,30,0,0.76,0,0,0,0, ,0,0,0,0,0, ,-39.3,155.7,987.5,-0.6,-0.5,-1.9,25,-38.7227,156.318,987.233,-0.65168,-0.468119,-1.85461,
2026_07_06_15_26_46.070,3.847,30,0,0.757,0,0,0,0, ,0,0,0,0,0, ,-38.2,155.6,987.3,-0.6,-0.4,-1.8,25,-38.7244,156.277,987.243,-0.648531,-0.467014,-1.85433,
2026_07_06_15_26_46.087,3.847,30,0,0.758,0,0,0,0, ,0,0,0,0,0, ,-38.4,156.3,987.7,-0.7,-0.4,-1.9,25,-38.6985,156.257,987.258,-0.64862,-0.462931,-1.85407,
2026_07_06_15_26_46.103,3.847,30,0,0.759,0,0,0,0, ,0,0,0,0,0, ,-38.3,156.6,987.3,-0.6,-0.4,-1.9,25,-38.6773,156.269,987.273,-0.648704,-0.459096,-1.85686,
2026_07_06_15_26_46.120,3.847,30,0,0.759,0,0,0,0, ,0,0,0,0,0, ,-38.9,156.3,988.8,-0.6,-0.5,-1.9,25,-38.6726,156.28,987.32,-0.645736,-0.458542,-1.85949,
2026_07_06_15_26_46.153,3.847,30.1,0,0.758,0,0,0,0, ,0,0,0,0,0, ,-39.1,156.7,987.7,-0.6,-0.5,-1.8,25,-38.6925,156.294,987.377,-0.642949,-0.461068,-1.85891,
2026_07_06_15_26_46.186,3.847,29.9,0,0.757,0,0,0,0, ,0,0,0,0,0, ,-39.5,155.3,988.2,-0.6,-0.4,-1.8,25,-38.7295,156.276,987.412,-0.640332,-0.460394,-1.85532,
2026_07_06_15_26_46.186,3.847,30,0,0.759,0,0,0,0, ,0,0,0,0,0, ,-38.4,156.8,989,-0.7,-0.4,-1.8,25,-38.743,156.262,987.484,-0.640921,-0.456713,-1.85195,
2026_07_06_15_26_46.203,3.847,30,0,0.758,0,0,0,0, ,0,0,0,0,0, ,-37.3,156.6,987.4,-0.6,-0.4,-1.8,25,-38.6886,156.289,987.528,-0.641474,-0.453257,-1.84879,
2026_07_06_15_26_46.219,3.847,30.1,0,0.758,0,0,0,0, ,0,0,0,0,0, ,-38,158.6,987.1,-0.6,-0.5,-1.9,25,-38.6253,156.369,987.511,-0.638947,-0.453059,-1.84886,
2026_07_06_15_26_46.236,3.847,30,0,0.758,0,0,0,0, ,0,0,0,0,0, ,-39.3,156.6,987.6,-0.7,-0.5,-1.8,25,-38.6268,156.444,987.501,-0.639621,-0.455919,-1.84893,
2026_07_06_15_26_46.270,3.847,30,0,0.757,0,0,0,0, ,0,0,0,0,0, ,-38.2,156.9,987.6,-0.6,-0.5,-1.8,25,-38.6343,156.462,987.507,-0.640253,-0.458606,-1.84595,
2026_07_06_15_26_46.286,3.847,30.1,0,0.758,0,0,0,0, ,0,0,0,0,0, ,-37.7,156.4,988,-0.6,-0.5,-1.9,25,-38.5926,156.474,987.525,-0.6378,-0.461128,-1.8462,
2026_07_06_15_26_46.303,3.847,30.1,0,0.759,0,0,0,0, ,0,0,0,0,0, ,-38.6,157.8,987.3,-0.7,-0.5,-1.9,25,-38.5656,156.512,987.533,-0.638544,-0.463497,-1.84947,
2026_07_06_15_26_46.320,3.847,30.1,0,0.76,0,0,0,0, ,0,0,0,0,0, ,-37.3,156.6,988.6,-0.7,-0.5,-1.9,25,-38.5281,156.554,987.558,-0.642289,-0.465721,-1.85255,
2026_07_06_15_26_46.338,3.847,30.1,0,0.758,0,0,0,0, ,0,0,0,0,0, ,-39.1,157.5,985.4,-0.6,-0.5,-1.8,25,-38.5081,156.584,987.524,-0.642759,-0.46781,-1.8524,
2026_07_06_15_26_46.370,3.847,30.1,0,0.76,0,0,0,0, ,0,0,0,0,0, ,-38.3,156.4,988.5,-0.7,-0.5,-1.9,25,-38.5198,156.606,987.489,-0.6432,-0.469772,-1.85225,
2026_07_06_15_26_46.390,3.847,30,0,0.757,0,0,0,0, ,0,0,0,0,0, ,-38.6,156.8,987.5,-0.7,-0.4,-1.9,25,-38.5155,156.606,987.52,-0.646661,-0.468567,-1.85516,
2026_07_06_15_26_46.408,3.847,30.1,0,0.758,0,0,0,0, ,0,0,0,0,0, ,-38.8,155.5,989.2,-0.6,-0.5,-1.9,25,-38.5268,156.578,987.571,-0.646865,-0.467435,-1.85789,
2026_07_06_15_26_46.420,3.847,30.1,0,0.757,0,0,0,0, ,0,0,0,0,0, ,-38.6,156.9,985.3,-0.6,-0.5,-1.9,25,-38.5373,156.555,987.551,-0.644009,-0.46942,-1.86046,
2026_07_06_15_26_46.437,3.847,30,0,0.759,0,0,0,0, ,0,0,0,0,0, ,-38.3,157.8,989,-0.6,-0.5,-1.9,25,-38.532,156.604,987.527,-0.641327,-0.471283,-1.86287,
2026_07_06_15_26_46.469,3.847,30,0,0.76,0,0,0,0, ,0,0,0,0,0, ,-38.8,155.3,984.7,-0.7,-0.5,-1.8,25,-38.5331,156.6,987.486,-0.641855,-0.473033,-1.86208,
2026_07_06_15_26_46.489,3.847,30.1,0,0.758,0,0,0,0, ,0,0,0,0,0, ,-38.2,155.8,988,-0.7,-0.5,-1.8,25,-38.5311,156.536,987.416,-0.645399,-0.474676,-1.8583,
2026_07_06_15_26_46.504,3.847,30,0,0.758,0,0,0,0, ,0,0,0,0,0, ,-39.3,156.2,987.3,-0.6,-0.4,-1.9,25,-38.5444,156.504,987.431,-0.645679,-0.473173,-1.8578,
2026_07_06_15_26_46.528,3.847,30.1,0,0.759,0,0,0,0, ,0,0,0,0,0, ,-38.8,156.8,987,-0.6,-0.4,-1.8,25,-38.5752,156.503,987.414,-0.642895,-0.468714,-1.85732,
2026_07_06_15_26_46.536,3.847,30.1,0,0.758,0,0,0,0, ,0,0,0,0,0, ,-38.5,157.2,986.5,-0.6,-0.5,-1.8,25,-38.5798,156.534,987.373,-0.640282,-0.467573,-1.85383,
2026_07_06_15_26_46.570,3.847,30,0,0.758,0,0,0,0, ,0,0,0,0,0, ,-38.2,156.3,987.4,-0.7,-0.4,-1.9,25,-38.5658,156.547,987.347,-0.640874,-0.466503,-1.85359,
2026_07_06_15_26_46.586,3.847,30,0,0.758,0,0,0,0, ,0,0,0,0,0, ,-38.9,156.4,987.5,-0.7,-0.5,-1.9,25,-38.5648,156.535,987.354,-0.644477,-0.465497,-1.85642,
2026_07_06_15_26_46.603,3.847,29.9,0,0.759,0,0,0,0, ,0,0,0,0,0, ,-38.5,156,987.7,-0.6,-0.5,-1.9,25,-38.5731,156.514,987.369,-0.644813,-0.467599,-1.85908,
2026_07_06_15_26_46.619,3.847,30.1,0,0.758,0,0,0,0, ,0,0,0,0,0, ,-39,156.2,987.3,-0.6,-0.5,-1.9,25,-38.5839,156.489,987.377,-0.642083,-0.469574,-1.86157,
2026_07_06_15_26_46.636,3.847,30.1,0,0.759,0,0,0,0, ,0,0,0,0,0, ,-38.9,155.7,987.5,-0.6,-0.4,-1.9,25,-38.6062,156.456,987.378,-0.639518,-0.468381,-1.86391,
2026_07_06_15_26_46.653,3.847,30.1,0,0.758,0,0,0,0, ,0,0,0,0,0, ,-37.5,157.8,986.4,-0.7,-0.5,-1.9,25,-38.5814,156.474,987.352,-0.640157,-0.467261,-1.86611,
2026_07_06_15_26_46.686,3.847,29.9,0,0.758,0,0,0,0, ,0,0,0,0,0, ,-38.2,157.4,988,-0.6,-0.4,-1.8,25,-38.5368,156.543,987.343,-0.640757,-0.466209,-1.86513,
2026_07_06_15_26_46.706,3.847,30.1,0,0.76,0,0,0,0, ,0,0,0,0,0, ,-38,155.7,986.2,-0.6,-0.5,-1.8,25,-38.5102,156.543,987.328,-0.638273,-0.465221,-1.86116,
2026_07_06_15_26_46.725,3.847,30,0,0.759,0,0,0,0, ,0,0,0,0,0, ,-39,156.6,988,-0.6,-0.5,-1.9,25,-38.5096,156.519,987.314,-0.635941,-0.467341,-1.86048,
2026_07_06_15_26_46.741,3.847,30,0,0.758,0,0,0,0, ,0,0,0,0,0, ,-38.8,155.1,985.7,-0.6,-0.5,-1.9,25,-38.5334,156.479,987.286,-0.633751,-0.469331,-1.86289,
2026_07_06_15_26_46.758,3.847,30.1,0,0.759,0,0,0,0, ,0,0,0,0,0, ,-39.6,157.2,987.4,-0.6,-0.5,-1.8,25,-38.574,156.458,987.241,-0.631694,-0.4712,-1.8621,
2026_07_06_15_26_46.774,3.847,30.1,0,0.76,0,0,0,0, ,0,0,0,0,0, ,-38.9,156.3,988.1,-0.7,-0.5,-1.8,25,-38.6152,156.476,987.272,-0.632809,-0.472955,-1.85832,
2026_07_06_15_26_46.803,3.847,30.1,0,0.759,0,0,0,0, ,0,0,0,0,0, ,-38.5,155.3,987.9,-0.7,-0.5,-2,25,-38.6204,156.435,987.316,-0.636904,-0.474603,-1.86086,
2026_07_06_15_26_46.820,3.847,30.1,0,0.758,0,0,0,0, ,0,0,0,0,0, ,-37.9,155,988.6,-0.6,-0.5,-1.9,25,-38.5948,156.357,987.373,-0.637702,-0.476151,-1.86629,
2026_07_06_15_26_46.836,3.847,30,0,0.758,0,0,0,0, ,0,0,0,0,0, ,-38.8,157.5,988.2,-0.6,-0.5,-1.9,25,-38.5798,156.35,987.436,-0.635405,-0.477604,-1.86835,
2026_07_06_15_26_46.854,3.847,30,0,0.758,0,0,0,0, ,0,0,0,0,0, ,-39.4,156.6,987.3,-0.7,-0.4,-1.8,25,-38.6115,156.393,987.455,-0.636294,-0.475922,-1.86723,
2026_07_06_15_26_46.887,3.847,30.1,0,0.759,0,0,0,0, ,0,0,0,0,0, ,-39.1,156.6,987.3,-0.7,-0.5,-1.9,25,-38.6504,156.405,987.445,-0.640176,-0.474342,-1.86618,
2026_07_06_15_26_46.904,3.847,30,0,0.758,0,0,0,0, ,0,0,0,0,0, ,-38.4,156.6,988.1,-0.7,-0.5,-1.8,25,-38.6565,156.417,987.461,-0.643822,-0.475906,-1.86519,
2026_07_06_15_26_46.920,3.847,30,0,0.758,0,0,0,0, ,0,0,0,0,0, ,-39.3,156.6,986.3,-0.6,-0.4,-1.8,25,-38.6683,156.428,987.445,-0.644198,-0.474327,-1.86122,
2026_07_06_15_26_46.937,3.847,30,0,0.758,0,0,0,0, ,0,0,0,0,0, ,-38.5,156.9,987,-0.6,-0.5,-1.8,25,-38.6824,156.448,987.397,-0.641505,-0.472845,-1.85749,
2026_07_06_15_26_46.954,3.847,30,0,0.757,0,0,0,0, ,0,0,0,0,0, ,-39.1,156.2,988.2,-0.6,-0.5,-1.9,25,-38.6896,156.454,987.409,-0.638976,-0.474499,-1.85703,
2026_07_06_15_26_46.970,3.847,30.1,0,0.758,0,0,0,0, ,0,0,0,0,0, ,-39.9,156.2,986.6,-0.6,-0.5,-1.8,25,-38.739,156.439,987.408,-0.6366,-0.476053,-1.8566,
2026_07_06_15_26_47.004,3.847,30,0,0.758,0,0,0,0, ,0,0,0,0,0, ,-37.8,156,987,-0.7,-0.5,-1.8,25,-38.7457,156.418,987.371,-0.637417,-0.477513,-1.85315,
2026_07_06_15_26_47.020,3.847,30.1,0,0.758,0,0,0,0, ,0,0,0,0,0, ,-38,155.3,987.6,-0.6,-0.5,-1.9,25,-38.6942,156.371,987.367,-0.638184,-0.478883,-1.85296,
2026_07_06_15_26_47.037,3.847,29.9,0,0.758,0,0,0,0, ,0,0,0,0,0, ,-38.6,155.3,987.6,-0.6,-0.5,-1.8,25,-38.6702,156.306,987.381,-0.635857,-0.48017,-1.85278,
2026_07_06_15_26_47.053,3.847,30.1,0,0.758,0,0,0,0, ,0,0,0,0,0, ,-38.9,157.1,988.6,-0.6,-0.5,-1.8,25,-38.675,156.3,987.425,-0.633672,-0.481378,-1.84957,
2026_07_06_15_26_47.087,3.847,30.1,0,0.76,0,0,0,0, ,0,0,0,0,0, ,-39.1,158.2,987.4,-0.7,-0.5,-1.8,25,-38.6948,156.382,987.46,-0.634667,-0.482513,-1.84655,
2026_07_06_15_26_47.103,3.847,30.1,0,0.76,0,0,0,0, ,0,0,0,0,0, ,-38,156.1,987.7,-0.6,-0.5,-1.8,25,-38.686,156.429,987.466,-0.635601,-0.483579,-1.84371,
2026_07_06_15_26_47.121,3.847,30,0,0.758,0,0,0,0, ,0,0,0,0,0, ,-38.5,156.4,988.7,-0.7,-0.4,-1.8,25,-38.6594,156.418,987.51,-0.636479,-0.481532,-1.84105,
2026_07_06_15_26_47.138,3.847,30,0,0.76,0,0,0,0, ,0,0,0,0,0, ,-39.3,156.6,986.8,-0.6,-0.5,-1.8,25,-38.6741,156.423,987.525,-0.637303,-0.479611,-1.83854,
2026_07_06_15_26_47.153,3.847,30.1,0,0.758,0,0,0,0, ,0,0,0,0,0, ,-39.6,156.4,987.5,-0.6,-0.5,-1.8,25,-38.7214,156.428,987.502,-0.63503,-0.480853,-1.8362,
2026_07_06_15_26_47.170,3.847,30,0,0.759,0,0,0,0, ,0,0,0,0,0, ,-40.5,156.7,986.4,-0.7,-0.4,-1.8,25,-38.8023,156.435,987.468,-0.635942,-0.478973,-1.83399,
2026_07_06_15_26_47.187,3.847,30.1,0,0.761,0,0,0,0, ,0,0,0,0,0, ,-38.8,156.2,986.8,-0.6,-0.5,-1.9,25,-38.854,156.436,987.416,-0.636798,-0.477208,-1.83497,
2026_07_06_15_26_47.220,3.847,30,0,0.76,0,0,0,0, ,0,0,0,0,0, ,-37.2,156.6,988.8,-0.7,-0.5,-1.9,25,-38.802,156.434,987.439,-0.637603,-0.478597,-1.83893,
2026_07_06_15_26_47.237,3.847,30,0,0.76,0,0,0,0, ,0,0,0,0,0, ,-37.8,156.9,986.8,-0.6,-0.5,-1.8,25,-38.7226,156.453,987.461,-0.638358,-0.479901,-1.8396,
2026_07_06_15_26_47.254,3.847,30,0,0.76,0,0,0,0, ,0,0,0,0,0, ,-39.6,155.7,986,-0.5,-0.5,-1.8,25,-38.7212,156.444,987.396,-0.632974,-0.481126,-1.83719,
2026_07_06_15_26_47.270,3.847,30,0,0.757,0,0,0,0, ,0,0,0,0,0, ,-38.4,157.7,986.5,-0.6,-0.5,-1.8,25,-38.7382,156.459,987.326,-0.627918,-0.482276,-1.83492,
2026_07_06_15_26_47.286,3.847,30.1,0,0.758,0,0,0,0, ,0,0,0,0,0, ,-38.9,157.7,987.9,-0.7,-0.5,-1.9,25,-38.7329,156.535,987.319,-0.629263,-0.483356,-1.83584,
2026_07_06_15_26_47.322,3.847,30.1,0,0.76,0,0,0,0, ,0,0,0,0,0, ,-39.1,156.9,986.6,-0.7,-0.5,-1.9,25,-38.7491,156.582,987.315,-0.633574,-0.48437,-1.83975,
2026_07_06_15_26_47.337,3.847,30,0,0.759,0,0,0,0, ,0,0,0,0,0, ,-39.3,156.7,987.1,-0.7,-0.4,-1.9,25,-38.7766,156.595,987.286,-0.637622,-0.482276,-1.84342,
2026_07_06_15_26_47.354,3.847,30,0,0.76,0,0,0,0, ,0,0,0,0,0, ,-38.2,155.8,988.1,-0.6,-0.4,-1.9,25,-38.775,156.574,987.305,-0.638376,-0.477262,-1.84687,
2026_07_06_15_26_47.371,3.847,30,0,0.758,0,0,0,0, ,0,0,0,0,0, ,-38.6,155.7,988.7,-0.6,-0.5,-1.9,25,-38.7521,156.524,987.372,-0.636038,-0.475601,-1.85011,
2026_07_06_15_26_47.395,3.847,30,0,0.758,0,0,0,0, ,0,0,0,0,0, ,-38.2,155.2,986.2,-0.7,-0.5,-1.9,25,-38.7307,156.458,987.377,-0.636888,-0.477088,-1.85315,
2026_07_06_15_26_47.420,3.847,30,0,0.758,0,0,0,0, ,0,0,0,0,0, ,-39.5,156.4,986.8,-0.6,-0.5,-1.8,25,-38.7379,156.418,987.323,-0.637687,-0.478484,-1.85296,
2026_07_06_15_26_47.437,3.847,30,0,0.76,0,0,0,0, ,0,0,0,0,0, ,-38.6,156.3,988.5,-0.7,-0.5,-1.8,25,-38.757,156.414,987.343,-0.638438,-0.479795,-1.84973,
2026_07_06_15_26_47.454,3.847,30,0,0.758,0,0,0,0, ,0,0,0,0,0, ,-38.4,155.8,986.8,-0.6,-0.4,-1.8,25,-38.7413,156.392,987.362,-0.639142,-0.477979,-1.8467,
2026_07_06_15_26_47.473,3.847,30,0,0.758,0,0,0,0, ,0,0,0,0,0, ,-39.6,156.3,987.3,-0.6,-0.4,-1.8,25,-38.7571,156.371,987.343,-0.636757,-0.473227,-1.84385,
2026_07_06_15_26_47.488,3.847,30.1,0,0.759,0,0,0,0, ,0,0,0,0,0, ,-39.5,156.2,987.5,-0.7,-0.4,-1.8,25,-38.8054,156.364,987.346,-0.637564,-0.468765,-1.84118,
2026_07_06_15_26_47.521,3.847,30,0,0.76,0,0,0,0, ,0,0,0,0,0, ,-39.1,156.3,988.7,-0.6,-0.5,-1.9,25,-38.8355,156.357,987.392,-0.638322,-0.467622,-1.84172,
2026_07_06_15_26_47.537,3.847,30.1,0,0.758,0,0,0,0, ,0,0,0,0,0, ,-39.9,156.7,988.2,-0.7,-0.5,-1.9,25,-38.876,156.365,987.457,-0.639033,-0.469595,-1.84527,
2026_07_06_15_26_47.554,3.847,30,0,0.76,0,0,0,0, ,0,0,0,0,0, ,-39.6,155.1,987,-0.6,-0.5,-1.8,25,-38.9293,156.337,987.466,-0.639702,-0.471448,-1.84556,
2026_07_06_15_26_47.571,3.847,30.1,0,0.76,0,0,0,0, ,0,0,0,0,0, ,-38.9,156.4,987.4,-0.6,-0.5,-1.9,25,-38.9488,156.301,987.449,-0.637282,-0.473187,-1.84583,
2026_07_06_15_26_47.601,3.847,30.1,0,0.758,0,0,0,0, ,0,0,0,0,0, ,-38.4,155.7,987.6,-0.6,-0.5,-1.9,25,-38.9306,156.286,987.452,-0.635011,-0.474821,-1.84913,
2026_07_06_15_26_47.603,3.847,30.1,0,0.758,0,0,0,0, ,0,0,0,0,0, ,-39.6,156.2,987.9,-0.6,-0.5,-1.8,25,-38.9348,156.265,987.471,-0.632877,-0.476356,-1.84918,
2026_07_06_15_26_47.636,3.847,30,0,0.759,0,0,0,0, ,0,0,0,0,0, ,-38.5,157.5,985.9,-0.7,-0.5,-1.9,25,-38.9419,156.301,987.436,-0.633921,-0.477796,-1.84923,
2026_07_06_15_26_47.654,3.847,30,0,0.758,0,0,0,0, ,0,0,0,0,0, ,-37.8,156.2,986.6,-0.6,-0.5,-1.9,25,-38.8936,156.335,987.364,-0.6349,-0.479149,-1.85233,
2026_07_06_15_26_47.671,3.847,30,0,0.76,0,0,0,0, ,0,0,0,0,0, ,-39.6,156,986.9,-0.6,-0.5,-1.9,25,-38.8818,156.32,987.326,-0.632774,-0.48042,-1.85523,
2026_07_06_15_26_47.687,3.847,30,0,0.761,0,0,0,0, ,0,0,0,0,0, ,-38.6,155.1,987.1,-0.7,-0.5,-1.9,25,-38.8951,156.273,987.306,-0.633823,-0.481613,-1.85796,
2026_07_06_15_26_47.704,3.847,30,0,0.758,0,0,0,0, ,0,0,0,0,0, ,-37.8,156.3,987.9,-0.7,-0.5,-1.9,25,-38.8527,156.238,987.318,-0.637856,-0.482734,-1.86052,
2026_07_06_15_26_47.736,3.847,30,0,0.76,0,0,0,0, ,0,0,0,0,0, ,-39.5,155.1,987.5,-0.7,-0.4,-1.9,25,-38.8404,156.206,987.341,-0.641643,-0.480739,-1.86293,
2026_07_06_15_26_47.754,3.847,30.1,0,0.758,0,0,0,0, ,0,0,0,0,0, ,-38,153.9,987,-0.7,-0.5,-1.8,25,-38.8349,156.102,987.336,-0.645199,-0.478866,-1.86214,
2026_07_06_15_26_47.771,3.847,30,0,0.76,0,0,0,0, ,0,0,0,0,0, ,-39.1,155.2,988.4,-0.6,-0.5,-1.9,25,-38.8175,156.007,987.358,-0.645492,-0.480154,-1.8614,
2026_07_06_15_26_47.787,3.847,30,0,0.76,0,0,0,0, ,0,0,0,0,0, ,-39.5,155.6,987,-0.7,-0.5,-1.8,25,-38.8469,155.97,987.379,-0.645766,-0.481363,-1.86071,
2026_07_06_15_26_47.803,3.847,30,0,0.76,0,0,0,0, ,0,0,0,0,0, ,-39.3,156.6,988.5,-0.6,-0.5,-1.8,25,-38.8806,155.978,987.401,-0.646024,-0.482499,-1.85701,
2026_07_06_15_26_47.837,3.847,30,0,0.76,0,0,0,0, ,0,0,0,0,0, ,-38.8,155.8,988.8,-0.7,-0.5,-1.9,25,-38.8909,155.992,987.478,-0.646267,-0.483565,-1.85658,
2026_07_06_15_26_47.854,3.847,30,0,0.76,0,0,0,0, ,0,0,0,0,0, ,-38.9,157.7,988,-0.7,-0.5,-1.8,25,-38.8885,156.038,987.534,-0.649541,-0.484567,-1.85618,
2026_07_06_15_26_47.872,3.847,30.1,0,0.758,0,0,0,0, ,0,0,0,0,0, ,-38.6,156.7,987.7,-0.6,-0.4,-1.9,25,-38.88,156.109,987.553,-0.649569,-0.48246,-1.8558,
2026_07_06_15_26_47.887,3.847,30.1,0,0.76,0,0,0,0, ,0,0,0,0,0, ,-39,156.1,987.1,-0.7,-0.6,-1.8,25,-38.8751,156.126,987.544,-0.649595,-0.483529,-1.85545,
2026_07_06_15_26_47.908,3.847,30,0,0.758,0,0,0,0, ,0,0,0,0,0, ,-38.9,156.6,986.3,-0.6,-0.5,-1.9,25,-38.8797,156.14,987.492,-0.64962,-0.48758,-1.85512,
2026_07_06_15_26_47.937,3.847,30,0,0.76,0,0,0,0, ,0,0,0,0,0, ,-38.4,156.1,989,-0.6,-0.5,-1.9,25,-38.8657,156.153,987.502,-0.646596,-0.488337,-1.85785,
2026_07_06_15_26_47.954,3.847,30,0,0.76,0,0,0,0, ,0,0,0,0,0, ,-39.6,157.5,987.1,-0.7,-0.5,-1.9,25,-38.8739,156.192,987.535,-0.646804,-0.489047,-1.86042,
2026_07_06_15_26_47.972,3.847,30,0,0.761,0,0,0,0, ,0,0,0,0,0, ,-38,156.1,989.9,-0.7,-0.4,-1.9,25,-38.8694,156.229,987.594,-0.650045,-0.486668,-1.86283,
2026_07_06_15_26_47.987,3.847,30,0,0.76,0,0,0,0, ,0,0,0,0,0, ,-38,155,986.9,-0.6,-0.5,-1.9,25,-38.8164,156.188,987.643,-0.650042,-0.484433,-1.8651,
2026_07_06_15_26_48.011,3.847,30,0,0.76,0,0,0,0, ,0,0,0,0,0, ,-39.1,156.1,988.2,-0.6,-0.5,-1.8,25,-38.8002,156.149,987.638,-0.646993,-0.485382,-1.86418,
2026_07_06_15_26_48.037,3.847,30,0,0.758,0,0,0,0, ,0,0,0,0,0, ,-38.3,155.3,987.1,-0.7,-0.5,-1.8,25,-38.7941,156.122,987.638,-0.647176,-0.486273,-1.86027,
2026_07_06_15_26_48.053,3.847,30,0,0.761,0,0,0,0, ,0,0,0,0,0, ,-38.8,155.7,987.6,-0.6,-0.5,-1.9,25,-38.7792,156.084,987.621,-0.647348,-0.487109,-1.85964,
2026_07_06_15_26_48.073,3.847,30.1,0,0.76,0,0,0,0, ,0,0,0,0,0, ,-37.9,156.3,986.9,-0.6,-0.4,-1.8,25,-38.753,156.079,987.598,-0.644463,-0.484848,-1.85905,
2026_07_06_15_26_48.087,3.847,30,0,0.758,0,0,0,0, ,0,0,0,0,0, ,-38.2,156.9,987.4,-0.7,-0.5,-1.9,25,-38.7102,156.11,987.571,-0.6448,-0.482724,-1.8585,
2026_07_06_15_26_48.103,3.847,30,0,0.757,0,0,0,0, ,0,0,0,0,0, ,-38.3,156,987.7,-0.6,-0.4,-2,25,-38.6822,156.131,987.57,-0.645117,-0.48073,-1.86408,
2026_07_06_15_26_48.122,3.847,30,0,0.76,0,0,0,0, ,0,0,0,0,0, ,-39.5,156.6,987.1,-0.6,-0.5,-1.8,25,-38.6954,156.141,987.559,-0.642368,-0.478858,-1.86627,
2026_07_06_15_26_48.155,3.847,29.9,0,0.758,0,0,0,0, ,0,0,0,0,0, ,-39,156.7,987,-0.7,-0.4,-1.8,25,-38.7292,156.172,987.528,-0.642833,-0.477099,-1.86223,
2026_07_06_15_26_48.171,3.847,30,0,0.76,0,0,0,0, ,0,0,0,0,0, ,-38.9,157.9,987.6,-0.7,-0.5,-1.9,25,-38.7427,156.241,987.514,-0.646317,-0.475448,-1.86148,
2026_07_06_15_26_48.191,3.847,30,0,0.757,0,0,0,0, ,0,0,0,0,0, ,-39.1,155.7,988,-0.7,-0.5,-1.8,25,-38.7584,156.275,987.532,-0.649588,-0.476944,-1.86078,
2026_07_06_15_26_48.203,3.847,29.9,0,0.758,0,0,0,0, ,0,0,0,0,0, ,-37.9,156.7,986.5,-0.6,-0.4,-1.8,25,-38.7426,156.271,987.515,-0.649613,-0.475302,-1.85708,
2026_07_06_15_26_48.233,3.847,30,0,0.761,0,0,0,0, ,0,0,0,0,0, ,-38.9,156.1,987.4,-0.7,-0.5,-1.9,25,-38.7217,156.278,987.48,-0.649637,-0.47376,-1.85665,
2026_07_06_15_26_48.251,3.847,30,0,0.76,0,0,0,0, ,0,0,0,0,0, ,-39,154.6,987.3,-0.7,-0.4,-1.9,25,-38.7356,156.222,987.472,-0.652706,-0.472312,-1.85929,
2026_07_06_15_26_48.276,3.847,30,0,0.758,0,0,0,0, ,0,0,0,0,0, ,-39,154.2,988.2,-0.7,-0.5,-2,25,-38.7518,156.111,987.489,-0.655588,-0.470953,-1.86482,
2026_07_06_15_26_48.287,3.847,30,0,0.76,0,0,0,0, ,0,0,0,0,0, ,-39.7,155.5,987.1,-0.6,-0.5,-1.9,25,-38.7882,156.034,987.499,-0.655247,-0.472723,-1.87001,
2026_07_06_15_26_48.306,3.847,30,0,0.76,0,0,0,0, ,0,0,0,0,0, ,-37.9,157.1,988.1,-0.7,-0.4,-1.9,25,-38.7889,156.05,987.505,-0.654927,-0.471338,-1.87184,
2026_07_06_15_26_48.320,3.847,30,0,0.758,0,0,0,0, ,0,0,0,0,0, ,-37.4,156.8,986.5,-0.6,-0.5,-1.9,25,-38.7195,156.105,987.493,-0.654627,-0.470038,-1.87355,
2026_07_06_15_26_48.337,3.847,30,0,0.758,0,0,0,0, ,0,0,0,0,0, ,-38.9,156.4,987.6,-0.7,-0.5,-1.9,25,-38.6848,156.135,987.466,-0.654345,-0.471864,-1.87516,
2026_07_06_15_26_48.371,3.847,30,0,0.76,0,0,0,0, ,0,0,0,0,0, ,-39.3,156.2,985.7,-0.6,-0.5,-1.8,25,-38.7101,156.145,987.416,-0.65408,-0.473578,-1.87363,
2026_07_06_15_26_48.387,3.847,30,0,0.76,0,0,0,0, ,0,0,0,0,0, ,-39.3,156.6,987.5,-0.6,-0.5,-1.8,25,-38.7461,156.161,987.366,-0.650785,-0.475188,-1.86914,
2026_07_06_15_26_48.406,3.847,30,0,0.758,0,0,0,0, ,0,0,0,0,0, ,-38.9,157.1,987,-0.7,-0.5,-1.8,25,-38.7676,156.203,987.359,-0.650737,-0.4767,-1.86493,
2026_07_06_15_26_48.420,3.847,30.1,0,0.762,0,0,0,0, ,0,0,0,0,0, ,-38.9,156.6,988.6,-0.7,-0.5,-1.9,25,-38.7757,156.242,987.386,-0.653739,-0.47812,-1.86402,
2026_07_06_15_26_48.437,3.847,30,0,0.757,0,0,0,0, ,0,0,0,0,0, ,-38.4,156.8,987.5,-0.6,-0.4,-1.9,25,-38.768,156.27,987.426,-0.653511,-0.476406,-1.86621,
2026_07_06_15_26_48.472,3.847,30,0,0.76,0,0,0,0, ,0,0,0,0,0, ,-39.5,157.1,987.3,-0.6,-0.5,-1.9,25,-38.7791,156.312,987.425,-0.65025,-0.474797,-1.86827,
2026_07_06_15_26_48.487,3.847,30,0,0.76,0,0,0,0, ,0,0,0,0,0, ,-38.6,156.6,987.5,-0.7,-0.4,-1.8,25,-38.7956,156.344,987.423,-0.650235,-0.473286,-1.86716,
2026_07_06_15_26_48.508,3.847,30,0,0.76,0,0,0,0, ,0,0,0,0,0, ,-38.9,155.7,987.6,-0.7,-0.5,-1.9,25,-38.7929,156.333,987.431,-0.653268,-0.471867,-1.86611,
2026_07_06_15_26_48.527,3.847,30.1,0,0.76,0,0,0,0, ,0,0,0,0,0, ,-39.1,156.1,986.8,-0.6,-0.5,-1.9,25,-38.8055,156.306,987.417,-0.653069,-0.473582,-1.86818,
2026_07_06_15_26_48.537,3.847,30,0,0.761,0,0,0,0, ,0,0,0,0,0, ,-38.3,156.3,988,-0.7,-0.5,-1.8,25,-38.799,156.3,987.416,-0.652882,-0.475191,-1.86707,
2026_07_06_15_26_48.568,3.847,30,0,0.76,0,0,0,0, ,0,0,0,0,0, ,-38.2,156.3,986.8,-0.6,-0.5,-2,25,-38.7656,156.3,987.415,-0.652706,-0.476703,-1.86908,
2026_07_06_15_26_48.589,3.847,29.9,0,0.758,0,0,0,0, ,0,0,0,0,0, ,-37.9,156,987.3,-0.6,-0.5,-1.9,25,-38.722,156.291,987.393,-0.649494,-0.478123,-1.87401,
2026_07_06_15_26_48.604,3.847,30,0,0.757,0,0,0,0, ,0,0,0,0,0, ,-38.6,157.8,988.5,-0.7,-0.5,-1.8,25,-38.6932,156.328,987.424,-0.649525,-0.479456,-1.87254,
2026_07_06_15_26_48.620,3.847,30,0,0.76,0,0,0,0, ,0,0,0,0,0, ,-38.6,156.8,988.2,-0.7,-0.5,-1.9,25,-38.6875,156.387,987.48,-0.652601,-0.480708,-1.87117,
2026_07_06_15_26_48.637,3.847,30,0,0.758,0,0,0,0, ,0,0,0,0,0, ,-37.8,155.2,987.7,-0.6,-0.5,-1.9,25,-38.6578,156.363,987.509,-0.652442,-0.481884,-1.87293,
2026_07_06_15_26_48.668,3.847,30.1,0,0.761,0,0,0,0, ,0,0,0,0,0, ,-38.8,156.2,987.6,-0.7,-0.5,-1.8,25,-38.636,156.323,987.517,-0.652293,-0.482987,-1.87153,
2026_07_06_15_26_48.687,3.847,29.9,0,0.759,0,0,0,0, ,0,0,0,0,0, ,-39.6,156.2,987.9,-0.7,-0.5,-1.9,25,-38.6704,156.315,987.531,-0.655201,-0.484024,-1.87022,
2026_07_06_15_26_48.705,3.847,30,0,0.76,0,0,0,0, ,0,0,0,0,0, ,-39.4,156.7,988,-0.7,-0.4,-1.9,25,-38.7209,156.324,987.557,-0.657931,-0.481951,-1.87203,
2026_07_06_15_26_48.720,3.847,30.1,0,0.758,0,0,0,0, ,0,0,0,0,0, ,-38.6,155.7,987.4,-0.7,-0.5,-1.8,25,-38.738,156.316,987.566,-0.660494,-0.480004,-1.87069,
2026_07_06_15_26_48.737,3.847,30,0,0.76,0,0,0,0, ,0,0,0,0,0, ,-38.4,155.1,988.2,-0.7,-0.4,-1.8,25,-38.7235,156.26,987.58,-0.662902,-0.478175,-1.86638,
2026_07_06_15_26_48.766,3.847,30,0,0.758,0,0,0,0, ,0,0,0,0,0, ,-37.8,155.8,988.1,-0.6,-0.5,-1.8,25,-38.6855,156.211,987.615,-0.662115,-0.476459,-1.86234,
2026_07_06_15_26_48.786,3.847,30,0,0.758,0,0,0,0, ,0,0,0,0,0, ,-38.9,156.4,987.9,-0.7,-0.4,-1.9,25,-38.665,156.204,987.638,-0.661377,-0.474846,-1.86159,
2026_07_06_15_26_48.805,3.847,30,0,0.757,0,0,0,0, ,0,0,0,0,0, ,-38.4,155.8,987.6,-0.7,-0.4,-1.9,25,-38.6641,156.198,987.645,-0.663731,-0.470285,-1.86393,
2026_07_06_15_26_48.822,3.847,30,0,0.76,0,0,0,0, ,0,0,0,0,0, ,-38.6,156.1,987,-0.7,-0.5,-1.9,25,-38.6541,156.183,987.624,-0.665941,-0.469049,-1.86612,
2026_07_06_15_26_48.845,3.847,30,0,0.757,0,0,0,0, ,0,0,0,0,0, ,-39,155,987.3,-0.6,-0.5,-1.9,25,-38.663,156.144,987.595,-0.664969,-0.470935,-1.86819,
2026_07_06_15_26_48.856,3.847,30,0,0.762,0,0,0,0, ,0,0,0,0,0, ,-38.6,155.8,988.1,-0.7,-0.5,-1.9,25,-38.6713,156.099,987.602,-0.664057,-0.472706,-1.87013,
2026_07_06_15_26_48.871,3.847,30,0,0.759,0,0,0,0, ,0,0,0,0,0, ,-37.4,155.2,987.1,-0.7,-0.5,-1.9,25,-38.6304,156.062,987.601,-0.666248,-0.47437,-1.87195,
2026_07_06_15_26_48.906,3.847,30,0,0.759,0,0,0,0, ,0,0,0,0,0, ,-38.8,156.8,987.5,-0.7,-0.5,-1.9,25,-38.5981,156.059,987.583,-0.668304,-0.475931,-1.87366,
2026_07_06_15_26_48.920,3.847,29.9,0,0.759,0,0,0,0, ,0,0,0,0,0, ,-39.7,158.3,987.9,-0.6,-0.5,-1.8,25,-38.6378,156.149,987.59,-0.667189,-0.477398,-1.87222,
2026_07_06_15_26_48.937,3.847,30,0,0.76,0,0,0,0, ,0,0,0,0,0, ,-38.8,156.4,988.5,-0.6,-0.5,-1.9,25,-38.6751,156.223,987.627,-0.663095,-0.478775,-1.87086,
2026_07_06_15_26_48.954,3.847,30,0,0.76,0,0,0,0, ,0,0,0,0,0, ,-37.9,156.1,987.4,-0.6,-0.4,-1.9,25,-38.6553,156.224,987.647,-0.65925,-0.477022,-1.87264,
2026_07_06_15_26_48.986,3.847,30,0,0.757,0,0,0,0, ,0,0,0,0,0, ,-38,154.4,986.4,-0.6,-0.5,-1.9,25,-38.6123,156.165,987.601,-0.655639,-0.475375,-1.87431,
2026_07_06_15_26_49.003,3.847,30,0,0.758,0,0,0,0, ,0,0,0,0,0, ,-39.5,156.4,987.6,-0.7,-0.5,-1.9,25,-38.6207,156.118,987.565,-0.655296,-0.476876,-1.87587,
2026_07_06_15_26_49.024,3.847,30,0,0.758,0,0,0,0, ,0,0,0,0,0, ,-39.5,157.1,986.3,-0.7,-0.4,-1.8,25,-38.6743,156.157,987.527,-0.65802,-0.475238,-1.87429,
2026_07_06_15_26_49.043,3.847,30,0,0.759,0,0,0,0, ,0,0,0,0,0, ,-38.2,156.2,988.5,-0.6,-0.5,-1.9,25,-38.685,156.187,987.52,-0.657531,-0.4737,-1.87281,
2026_07_06_15_26_49.054,3.847,30,0,0.758,0,0,0,0, ,0,0,0,0,0, ,-38.5,155.7,987.9,-0.7,-0.5,-1.8,25,-38.6646,156.172,987.561,-0.657072,-0.475303,-1.87142,
2026_07_06_15_26_49.072,3.847,30,0,0.759,0,0,0,0, ,0,0,0,0,0, ,-38.3,157.8,987.4,-0.6,-0.5,-1.9,25,-38.6485,156.208,987.566,-0.656641,-0.476808,-1.87012,
2026_07_06_15_26_49.103,3.847,30,0,0.758,0,0,0,0, ,0,0,0,0,0, ,-37.7,156.1,986.8,-0.7,-0.5,-1.9,25,-38.609,156.253,987.538,-0.656236,-0.478221,-1.87194,
2026_07_06_15_26_49.121,3.847,29.9,0,0.76,0,0,0,0, ,0,0,0,0,0, ,-37.9,155.8,988.7,-0.6,-0.5,-1.9,25,-38.5597,156.234,987.551,-0.655856,-0.479548,-1.87365,
2026_07_06_15_26_49.137,3.847,30.1,0,0.76,0,0,0,0, ,0,0,0,0,0, ,-37.9,157.5,985.8,-0.6,-0.4,-1.9,25,-38.5195,156.26,987.533,-0.652453,-0.477748,-1.87525,
2026_07_06_15_26_49.161,3.847,30,0,0.757,0,0,0,0, ,0,0,0,0,0, ,-38.9,155.8,986,-0.6,-0.5,-1.9,25,-38.5122,156.283,987.433,-0.649256,-0.476057,-1.87676,
2026_07_06_15_26_49.172,3.847,30,0,0.758,0,0,0,0, ,0,0,0,0,0, ,-38.9,157.2,985.5,-0.7,-0.5,-1.9,25,-38.5358,156.297,987.331,-0.649302,-0.477516,-1.87818,
2026_07_06_15_26_49.203,3.847,29.9,0,0.761,0,0,0,0, ,0,0,0,0,0, ,-39.1,155.3,988.8,-0.7,-0.5,-1.8,25,-38.5641,156.294,987.32,-0.652391,-0.478886,-1.87646,
2026_07_06_15_26_49.219,3.847,30,0,0.758,0,0,0,0, ,0,0,0,0,0, ,-38.4,156,987.9,-0.6,-0.5,-1.9,25,-38.5754,156.255,987.382,-0.652245,-0.480173,-1.87485,
2026_07_06_15_26_49.236,3.847,30,0,0.758,0,0,0,0, ,0,0,0,0,0, ,-38.3,156.6,988.2,-0.6,-0.5,-1.9,25,-38.5617,156.257,987.423,-0.649062,-0.481381,-1.87638,
2026_07_06_15_26_49.258,3.847,30,0,0.758,0,0,0,0, ,0,0,0,0,0, ,-38.6,156.6,987.9,-0.7,-0.5,-1.8,25,-38.5549,156.278,987.461,-0.649119,-0.482515,-1.87477,
2026_07_06_15_26_49.272,3.847,29.9,0,0.758,0,0,0,0, ,0,0,0,0,0, ,-38.8,156,987.9,-0.6,-0.4,-1.9,25,-38.5637,156.28,987.488,-0.649173,-0.480534,-1.87326,
2026_07_06_15_26_49.302,3.847,30,0,0.757,0,0,0,0, ,0,0,0,0,0, ,-40,157.3,987.6,-0.6,-0.5,-1.9,25,-38.6147,156.302,987.504,-0.646176,-0.478673,-1.87489,
2026_07_06_15_26_49.321,3.847,29.9,0,0.76,0,0,0,0, ,0,0,0,0,0, ,-37.8,156.1,987.6,-0.6,-0.5,-1.8,25,-38.6321,156.326,987.51,-0.643362,-0.479973,-1.87338,
2026_07_06_15_26_49.356,3.847,30,0,0.758,0,0,0,0, ,0,0,0,0,0, ,-39.3,155.8,986.8,-0.8,-0.5,-1.9,25,-38.6271,156.303,987.491,-0.646814,-0.481193,-1.87195,
2026_07_06_15_26_49.356,3.847,29.9,0,0.758,0,0,0,0, ,0,0,0,0,0, ,-38,156.1,987,-0.7,-0.5,-1.9,25,-38.6285,156.282,987.455,-0.653102,-0.482339,-1.87366,
2026_07_06_15_26_49.387,3.847,30,0,0.757,0,0,0,0, ,0,0,0,0,0, ,-38.5,156.2,987.4,-0.6,-0.5,-1.9,25,-38.6054,156.274,987.439,-0.652913,-0.483416,-1.87527,
2026_07_06_15_26_49.392,3.847,30,0,0.76,0,0,0,0, ,0,0,0,0,0, ,-38.6,156,987.7,-0.7,-0.5,-1.9,25,-38.602,156.263,987.446,-0.652735,-0.484426,-1.87677,
2026_07_06_15_26_49.424,3.847,30.1,0,0.757,0,0,0,0, ,0,0,0,0,0, ,-37.9,155.6,988.1,-0.6,-0.4,-1.9,25,-38.5806,156.235,987.474,-0.652568,-0.482328,-1.87819,
2026_07_06_15_26_49.437,3.847,30,0,0.758,0,0,0,0, ,0,0,0,0,0, ,-37.4,156.6,989.3,-0.6,-0.5,-1.8,25,-38.5239,156.227,987.549,-0.649365,-0.480358,-1.87647,
2026_07_06_15_26_49.455,3.847,29.9,0,0.759,0,0,0,0, ,0,0,0,0,0, ,-39.3,156.8,987,-0.6,-0.4,-1.8,25,-38.5133,156.256,987.585,-0.646357,-0.478508,-1.87181,
2026_07_06_15_26_49.473,3.847,29.9,0,0.759,0,0,0,0, ,0,0,0,0,0, ,-37.7,157.3,985.9,-0.7,-0.5,-1.8,25,-38.5125,156.304,987.516,-0.646579,-0.476771,-1.86744,
2026_07_06_15_26_49.502,3.847,30,0,0.76,0,0,0,0, ,0,0,0,0,0, ,-38.5,156.2,986.9,-0.6,-0.4,-1.9,25,-38.4873,156.331,987.448,-0.646787,-0.47514,-1.86637,
2026_07_06_15_26_49.519,3.847,30,0,0.76,0,0,0,0, ,0,0,0,0,0, ,-39.3,156,987.5,-0.6,-0.5,-1.9,25,-38.5125,156.317,987.433,-0.643936,-0.473608,-1.86842,
2026_07_06_15_26_49.538,3.847,30,0,0.76,0,0,0,0, ,0,0,0,0,0, ,-39.3,156.6,986.8,-0.7,-0.4,-1.8,25,-38.5605,156.316,987.416,-0.644306,-0.472169,-1.8673,
2026_07_06_15_26_49.555,3.847,29.9,0,0.757,0,0,0,0, ,0,0,0,0,0, ,-38.8,156.4,987.1,-0.6,-0.4,-1.9,25,-38.5903,156.327,987.387,-0.644653,-0.467771,-1.86625,
2026_07_06_15_26_49.573,3.847,30,0,0.757,0,0,0,0, ,0,0,0,0,0, ,-37.9,155.8,987.5,-0.6,-0.5,-1.8,25,-38.5757,156.313,987.382,-0.641932,-0.466688,-1.86526,
2026_07_06_15_26_49.588,3.847,30,0,0.759,0,0,0,0, ,0,0,0,0,0, ,-38.3,156.9,986,-0.6,-0.4,-1.8,25,-38.5467,156.316,987.343,-0.639376,-0.465671,-1.86128,
2026_07_06_15_26_49.620,3.847,30,0,0.76,0,0,0,0, ,0,0,0,0,0, ,-39,155.6,987.9,-0.7,-0.5,-1.9,25,-38.553,156.312,987.319,-0.640024,-0.464717,-1.86059,
2026_07_06_15_26_49.637,3.847,29.9,0,0.757,0,0,0,0, ,0,0,0,0,0, ,-38.4,156.6,987.1,-0.6,-0.5,-1.8,25,-38.5619,156.299,987.33,-0.640632,-0.466867,-1.85995,
2026_07_06_15_26_49.654,3.847,30,0,0.758,0,0,0,0, ,0,0,0,0,0, ,-38.8,156.3,988.1,-0.7,-0.5,-1.9,25,-38.5642,156.308,987.347,-0.641203,-0.468886,-1.85934,
2026_07_06_15_26_49.673,3.847,30,0,0.76,0,0,0,0, ,0,0,0,0,0, ,-39,156.1,987,-0.6,-0.4,-1.8,25,-38.5847,156.301,987.359,-0.641739,-0.467735,-1.85877,
2026_07_06_15_26_49.700,3.847,30,0,0.76,0,0,0,0, ,0,0,0,0,0, ,-37.3,157.3,988.7,-0.7,-0.4,-1.8,25,-38.5582,156.326,987.389,-0.642242,-0.463607,-1.85519,
2026_07_06_15_26_49.704,3.847,30,0,0.758,0,0,0,0, ,0,0,0,0,0, ,-38.2,156.2,988.2,-0.7,-0.5,-1.8,25,-38.509,156.352,987.454,-0.645762,-0.462778,-1.85183,
2026_07_06_15_26_49.748,3.847,29.9,0,0.76,0,0,0,0, ,0,0,0,0,0, ,-38.3,156.6,987.6,-0.6,-0.5,-1.8,25,-38.4932,156.355,987.481,-0.64602,-0.465046,-1.84867,
2026_07_06_15_26_49.754,3.847,30,0,0.76,0,0,0,0, ,0,0,0,0,0, ,-38.6,156.3,987.3,-0.7,-0.5,-1.9,25,-38.4906,156.36,987.479,-0.646263,-0.467176,-1.84875,
2026_07_06_15_26_49.787,3.847,30,0,0.758,0,0,0,0, ,0,0,0,0,0, ,-39.6,156.1,987,-0.7,-0.5,-1.8,25,-38.5277,156.351,987.459,-0.649537,-0.469176,-1.84883,
2026_07_06_15_26_49.794,3.847,29.9,0,0.759,0,0,0,0, ,0,0,0,0,0, ,-37.1,156.9,986.5,-0.6,-0.4,-1.9,25,-38.5169,156.36,987.416,-0.649565,-0.468008,-1.8489,
2026_07_06_15_26_49.821,3.847,30,0,0.759,0,0,0,0, ,0,0,0,0,0, ,-38.9,157.7,986.3,-0.6,-0.5,-1.9,25,-38.4854,156.417,987.354,-0.646545,-0.466911,-1.85201,
2026_07_06_15_26_49.836,3.847,29.9,0,0.758,0,0,0,0, ,0,0,0,0,0, ,-37.8,155.5,988.8,-0.6,-0.4,-1.9,25,-38.4771,156.428,987.366,-0.643709,-0.46588,-1.85494,
2026_07_06_15_26_49.854,3.847,30.1,0,0.76,0,0,0,0, ,0,0,0,0,0, ,-38.4,156,986.2,-0.6,-0.5,-1.8,25,-38.4541,156.387,987.374,-0.641045,-0.464912,-1.85463,
2026_07_06_15_26_49.873,3.847,30,0,0.76,0,0,0,0, ,0,0,0,0,0, ,-39.5,156,988.4,-0.6,-0.5,-1.9,25,-38.4844,156.363,987.37,-0.638544,-0.467051,-1.85435,
2026_07_06_15_26_49.887,3.847,30,0,0.76,0,0,0,0, ,0,0,0,0,0, ,-38.9,156.7,987.4,-0.6,-0.5,-1.8,25,-38.528,156.362,987.402,-0.636195,-0.469058,-1.85409,
2026_07_06_15_26_49.906,3.847,29.9,0,0.76,0,0,0,0, ,0,0,0,0,0, ,-39,156.7,987.3,-0.6,-0.5,-1.8,25,-38.5537,156.383,987.399,-0.63399,-0.470944,-1.85079,
2026_07_06_15_26_49.939,3.847,29.9,0,0.762,0,0,0,0, ,0,0,0,0,0, ,-38.5,155.8,988.7,-0.7,-0.5,-1.9,25,-38.5656,156.375,987.435,-0.634965,-0.472714,-1.85074,
2026_07_06_15_26_49.954,3.847,30,0,0.758,0,0,0,0, ,0,0,0,0,0, ,-38.8,155.2,987.3,-0.6,-0.5,-1.8,25,-38.5708,156.322,987.47,-0.635881,-0.474377,-1.8507,
2026_07_06_15_26_49.973,3.847,30,0,0.759,0,0,0,0, ,0,0,0,0,0, ,-38.3,156.2,988.7,-0.6,-0.5,-1.9,25,-38.5695,156.284,987.502,-0.633695,-0.475939,-1.85066,
2026_07_06_15_26_49.989,3.847,29.9,0,0.76,0,0,0,0, ,0,0,0,0,0, ,-38.3,156.3,986.9,-0.6,-0.5,-1.9,25,-38.5531,156.282,987.52,-0.631642,-0.477405,-1.85366,
2026_07_06_15_26_50.020,3.847,30,0,0.76,0,0,0,0, ,0,0,0,0,0, ,-40,155.5,987.5,-0.7,-0.4,-1.9,25,-38.5895,156.258,987.501,-0.63276,-0.475735,-1.85649,
2026_07_06_15_26_50.022,3.847,30,0,0.76,0,0,0,0, ,0,0,0,0,0, ,-38.6,155.3,987.4,-0.6,-0.5,-1.8,25,-38.6328,156.206,987.498,-0.633811,-0.474167,-1.85609,
2026_07_06_15_26_50.056,3.847,30,0,0.758,0,0,0,0, ,0,0,0,0,0, ,-39,155.5,987.1,-0.6,-0.5,-1.9,25,-38.643,156.157,987.483,-0.631751,-0.475741,-1.85572,
2026_07_06_15_26_50.073,3.847,29.9,0,0.76,0,0,0,0, ,0,0,0,0,0, ,-39,155.8,987.6,-0.6,-0.5,-1.9,25,-38.6647,156.126,987.474,-0.629816,-0.477219,-1.85842,
2026_07_06_15_26_50.086,3.847,29.9,0,0.758,0,0,0,0, ,0,0,0,0,0, ,-39.9,156.1,988.4,-0.7,-0.5,-1.9,25,-38.7126,156.115,987.506,-0.631046,-0.478607,-1.86095,
2026_07_06_15_26_50.103,3.847,30,0,0.758,0,0,0,0, ,0,0,0,0,0, ,-38,156,988.5,-0.7,-0.5,-1.8,25,-38.727,156.111,987.564,-0.635248,-0.479911,-1.86028,
2026_07_06_15_26_50.137,3.847,30,0,0.76,0,0,0,0, ,0,0,0,0,0, ,-38.3,155.8,987.4,-0.6,-0.5,-1.9,25,-38.6919,156.098,987.588,-0.636147,-0.481135,-1.85966,
2026_07_06_15_26_50.152,3.847,30,0,0.758,0,0,0,0, ,0,0,0,0,0, ,-39.4,157.2,987.5,-0.7,-0.5,-1.8,25,-38.7015,156.123,987.579,-0.636991,-0.482285,-1.85907,
2026_07_06_15_26_50.173,3.847,30,0,0.758,0,0,0,0, ,0,0,0,0,0, ,-39.4,156.1,988.4,-0.7,-0.5,-1.8,25,-38.7441,156.155,987.602,-0.64083,-0.483364,-1.85547,
2026_07_06_15_26_50.186,3.847,29.9,0,0.758,0,0,0,0, ,0,0,0,0,0, ,-38.5,155.7,989,-0.7,-0.5,-1.8,25,-38.7566,156.14,987.669,-0.644436,-0.484378,-1.85209,
2026_07_06_15_26_50.204,3.847,30,0,0.76,0,0,0,0, ,0,0,0,0,0, ,-37.3,156,989.5,-0.7,-0.4,-2,25,-38.7044,156.122,987.765,-0.647822,-0.482283,-1.85501,
2026_07_06_15_26_50.220,3.847,30,0,0.758,0,0,0,0, ,0,0,0,0,0, ,-39.4,156.1,988,-0.6,-0.5,-1.8,25,-38.6828,156.117,987.825,-0.647955,-0.480316,-1.85775,
2026_07_06_15_26_50.253,3.847,30,0,0.759,0,0,0,0, ,0,0,0,0,0, ,-39.5,155.2,987.1,-0.7,-0.4,-2,25,-38.7296,156.089,987.808,-0.648079,-0.478468,-1.86033,
2026_07_06_15_26_50.270,3.847,30,0,0.758,0,0,0,0, ,0,0,0,0,0, ,-38.5,155.7,987.4,-0.6,-0.5,-1.8,25,-38.7461,156.05,987.774,-0.648196,-0.476734,-1.86274,
2026_07_06_15_26_50.290,3.847,29.9,0,0.758,0,0,0,0, ,0,0,0,0,0, ,-38.2,156.8,987.4,-0.6,-0.5,-1.8,25,-38.7219,156.062,987.751,-0.645259,-0.478151,-1.85892,
2026_07_06_15_26_50.303,3.847,29.9,0,0.76,0,0,0,0, ,0,0,0,0,0, ,-39.7,156.1,986.2,-0.7,-0.4,-1.9,25,-38.7358,156.086,987.693,-0.645548,-0.476436,-1.85838,
2026_07_06_15_26_50.339,3.847,30,0,0.761,0,0,0,0, ,0,0,0,0,0, ,-39.9,154.1,987.6,-0.6,-0.5,-1.9,25,-38.8007,156.026,987.645,-0.64582,-0.474825,-1.86091,
2026_07_06_15_26_50.339,3.847,30,0,0.76,0,0,0,0, ,0,0,0,0,0, ,-38.3,155.8,987.1,-0.7,-0.5,-1.8,25,-38.8189,155.96,987.627,-0.646074,-0.476359,-1.86025,
2026_07_06_15_26_50.373,3.847,29.9,0,0.759,0,0,0,0, ,0,0,0,0,0, ,-37.8,156.8,987.6,-0.6,-0.5,-1.9,25,-38.7721,155.981,987.61,-0.646314,-0.4778,-1.85962,
2026_07_06_15_26_50.387,3.847,30,0,0.758,0,0,0,0, ,0,0,0,0,0, ,-38.6,155.3,986.9,-0.6,-0.5,-1.9,25,-38.7372,155.985,987.588,-0.643491,-0.479153,-1.86208,
2026_07_06_15_26_50.403,3.847,29.9,0,0.759,0,0,0,0, ,0,0,0,0,0, ,-40,157.3,987.9,-0.7,-0.5,-1.9,25,-38.7715,156.004,987.577,-0.643888,-0.480423,-1.86439,
2026_07_06_15_26_50.420,3.847,30,0,0.759,0,0,0,0, ,0,0,0,0,0, ,-37.8,156.9,986.8,-0.7,-0.5,-1.9,25,-38.7793,156.071,987.563,-0.647307,-0.481616,-1.86656,
2026_07_06_15_26_50.453,3.847,30,0,0.758,0,0,0,0, ,0,0,0,0,0, ,-38.9,155.8,987.6,-0.7,-0.5,-1.9,25,-38.7532,156.088,987.541,-0.650518,-0.482736,-1.8686,
2026_07_06_15_26_50.469,3.847,30,0,0.758,0,0,0,0, ,0,0,0,0,0, ,-38,156.9,987.5,-0.6,-0.5,-1.8,25,-38.7347,156.104,987.541,-0.650487,-0.483788,-1.86747,
2026_07_06_15_26_50.487,3.847,29.9,0,0.757,0,0,0,0, ,0,0,0,0,0, ,-39.6,156.3,987,-0.6,-0.5,-1.9,25,-38.7387,156.134,987.524,-0.64741,-0.484776,-1.8664,
2026_07_06_15_26_50.503,3.847,30,0,0.76,0,0,0,0, ,0,0,0,0,0, ,-39.3,156.9,987.5,-0.7,-0.4,-1.8,25,-38.782,156.163,987.507,-0.647568,-0.482657,-1.8654,
2026_07_06_15_26_50.535,3.847,30,0,0.76,0,0,0,0, ,0,0,0,0,0, ,-36.9,155.5,987.4,-0.7,-0.5,-1.9,25,-38.7405,156.165,987.504,-0.650763,-0.480667,-1.86447,
2026_07_06_15_26_50.536,3.847,30,0,0.759,0,0,0,0, ,0,0,0,0,0, ,-38.6,157.3,987.4,-0.6,-0.4,-1.9,25,-38.6801,156.179,987.497,-0.650717,-0.478798,-1.86663,
2026_07_06_15_26_50.573,3.847,30,0,0.759,0,0,0,0, ,0,0,0,0,0, ,-38.4,156.8,986.5,-0.6,-0.5,-1.9,25,-38.6691,156.232,987.464,-0.647626,-0.477043,-1.86866,
2026_07_06_15_26_50.586,3.847,30,0,0.759,0,0,0,0, ,0,0,0,0,0, ,-37.9,156.6,987,-0.6,-0.5,-1.9,25,-38.6375,156.261,987.42,-0.644724,-0.478442,-1.87057,
2026_07_06_15_26_50.604,3.847,30,0,0.759,0,0,0,0, ,0,0,0,0,0, ,-39.1,155.7,987.7,-0.7,-0.5,-1.8,25,-38.6291,156.254,987.416,-0.645045,-0.479756,-1.86932,
2026_07_06_15_26_50.620,3.847,30,0,0.759,0,0,0,0, ,0,0,0,0,0, ,-38.8,156.4,987,-0.6,-0.5,-1.9,25,-38.6487,156.242,987.412,-0.645347,-0.48099,-1.86814,
2026_07_06_15_26_50.653,3.847,30,0,0.76,0,0,0,0, ,0,0,0,0,0, ,-40.1,158.3,987.7,-0.7,-0.5,-1.8,25,-38.6975,156.309,987.408,-0.645631,-0.482148,-1.86704,
2026_07_06_15_26_50.668,3.847,29.9,0,0.758,0,0,0,0, ,0,0,0,0,0, ,-39.3,157.3,987.5,-0.7,-0.5,-1.9,25,-38.7586,156.4,987.42,-0.648944,-0.483236,-1.866,
2026_07_06_15_26_50.689,3.847,30,0,0.761,0,0,0,0, ,0,0,0,0,0, ,-39.5,157.1,986.9,-0.7,-0.5,-1.8,25,-38.7977,156.449,987.407,-0.652055,-0.484257,-1.86502,
2026_07_06_15_26_50.703,3.847,30,0,0.761,0,0,0,0, ,0,0,0,0,0, ,-38.2,155.5,988.5,-0.6,-0.5,-1.8,25,-38.8009,156.44,987.424,-0.65193,-0.485217,-1.86106,
2026_07_06_15_26_50.736,3.847,29.9,0,0.759,0,0,0,0, ,0,0,0,0,0, ,-38.2,157.1,987.5,-0.6,-0.5,-1.9,25,-38.7642,156.431,987.46,-0.648765,-0.486118,-1.86039,
2026_07_06_15_26_50.739,3.847,29.9,0,0.76,0,0,0,0, ,0,0,0,0,0, ,-39.3,156.6,989.1,-0.6,-0.4,-1.9,25,-38.7634,156.457,987.511,-0.645794,-0.483917,-1.8628,
2026_07_06_15_26_50.770,3.847,30,0,0.76,0,0,0,0, ,0,0,0,0,0, ,-38.4,156,987.6,-0.7,-0.5,-1.9,25,-38.7687,156.447,987.562,-0.64605,-0.48185,-1.86507,
2026_07_06_15_26_50.786,3.847,29.9,0,0.758,0,0,0,0, ,0,0,0,0,0, ,-39.3,155.8,988.6,-0.7,-0.5,-1.8,25,-38.7736,156.414,987.595,-0.649338,-0.482956,-1.86415,
2026_07_06_15_26_50.803,3.847,29.9,0,0.759,0,0,0,0, ,0,0,0,0,0, ,-38.3,156.7,987.1,-0.7,-0.5,-1.8,25,-38.7752,156.404,987.61,-0.652425,-0.483994,-1.86024,
2026_07_06_15_26_50.820,3.847,29.9,0,0.76,0,0,0,0, ,0,0,0,0,0, ,-39.3,156.2,987.7,-0.7,-0.5,-1.9,25,-38.7767,156.407,987.597,-0.655324,-0.48497,-1.85962,
2026_07_06_15_26_50.853,3.847,29.9,0,0.761,0,0,0,0, ,0,0,0,0,0, ,-38.3,156.2,988,-0.6,-0.5,-1.8,25,-38.7781,156.394,987.613,-0.655,-0.485886,-1.85903,
2026_07_06_15_26_50.868,3.847,29.9,0,0.761,0,0,0,0, ,0,0,0,0,0, ,-38,156.8,987,-0.7,-0.5,-1.8,25,-38.7399,156.401,987.606,-0.654695,-0.486746,-1.85543,
2026_07_06_15_26_50.902,3.847,30,0,0.759,0,0,0,0, ,0,0,0,0,0, ,-39,156,988.5,-0.7,-0.5,-1.8,25,-38.7253,156.4,987.615,-0.657456,-0.487553,-1.85206,
2026_07_06_15_26_50.903,3.847,29.9,0,0.759,0,0,0,0, ,0,0,0,0,0, ,-40.2,155.7,987.3,-0.6,-0.5,-1.8,25,-38.7786,156.367,987.632,-0.657001,-0.488312,-1.84888,
2026_07_06_15_26_50.929,3.847,29.9,0,0.758,0,0,0,0, ,0,0,0,0,0, ,-39,156.2,986.9,-0.6,-0.4,-1.9,25,-38.8286,156.342,987.6,-0.653528,-0.485977,-1.84895,
2026_07_06_15_26_50.939,3.847,30,0,0.759,0,0,0,0, ,0,0,0,0,0, ,-38.9,155.8,988,-0.6,-0.4,-1.9,25,-38.836,156.321,987.591,-0.650266,-0.480738,-1.85206,
2026_07_06_15_26_50.970,3.847,29.9,0,0.758,0,0,0,0, ,0,0,0,0,0, ,-40,156,987.1,-0.6,-0.4,-1.9,25,-38.8734,156.295,987.588,-0.647203,-0.475818,-1.85498,
2026_07_06_15_26_50.984,3.847,30,0,0.761,0,0,0,0, ,0,0,0,0,0, ,-38.4,155.5,987.3,-0.6,-0.4,-1.8,25,-38.8933,156.262,987.564,-0.644326,-0.471198,-1.85468,
2026_07_06_15_26_51.022,3.847,29.8,0,0.76,0,0,0,0, ,0,0,0,0,0, ,-38.9,156.9,987.9,-0.6,-0.5,-1.8,25,-38.8785,156.258,987.567,-0.641625,-0.469906,-1.85135,
2026_07_06_15_26_51.022,3.847,30,0,0.76,0,0,0,0.001, ,0,0,0,0,0, ,-38.3,156.9,987.3,-0.6,-0.5,-1.9,25,-38.8615,156.297,987.569,-0.639089,-0.47174,-1.85127,
2026_07_06_15_26_51.073,3.847,29.9,0,0.76,0,0,0,0, ,0,0,0,0,0, ,-38.4,155.6,986.6,-0.6,-0.4,-1.8,25,-38.8304,156.294,987.531,-0.636707,-0.470415,-1.85119,
2026_07_06_15_26_51.073,3.847,29.9,0,0.76,0,0,0,0, ,0,0,0,0,0, ,-38.6,157.8,987.3,-0.6,-0.5,-1.9,25,-38.8102,156.319,987.496,-0.63447,-0.469171,-1.85112,
2026_07_06_15_26_51.103,3.847,30,0,0.758,0,0,0,0, ,0,0,0,0,0, ,-38.9,155.8,988,-0.7,-0.5,-1.9,25,-38.8066,156.348,987.505,-0.635416,-0.47105,-1.85409,
2026_07_06_15_26_51.103,3.847,29.9,0,0.759,0,0,0,0, ,0,0,0,0,0, ,-39.7,156.6,986.9,-0.7,-0.5,-1.9,25,-38.8366,156.339,987.502,-0.639352,-0.472814,-1.85689,
2026_07_06_15_26_51.120,3.847,29.9,0,0.759,0,0,0,0, ,0,0,0,0,0, ,-38.5,156.6,986.8,-0.6,-0.5,-1.8,25,-38.8527,156.355,987.462,-0.640001,-0.474471,-1.85647,
2026_07_06_15_26_51.136,3.847,30,0,0.758,0,0,0,0, ,0,0,0,0,0, ,-38.6,156.6,987.6,-0.7,-0.5,-1.9,25,-38.8342,156.37,987.446,-0.64061,-0.476026,-1.85608,
2026_07_06_15_26_51.169,3.847,29.9,0,0.76,0,0,0,0, ,0,0,0,0,0, ,-38.9,156,988.2,-0.7,-0.5,-1.9,25,-38.8291,156.366,987.474,-0.644229,-0.477487,-1.85875,
2026_07_06_15_26_51.173,3.847,29.9,0,0.76,0,0,0,0, ,0,0,0,0,0, ,-38.3,156.3,989,-0.7,-0.4,-1.8,25,-38.8151,156.353,987.542,-0.647628,-0.475812,-1.85822,
2026_07_06_15_26_51.203,3.847,30,0,0.76,0,0,0,0, ,0,0,0,0,0, ,-39.6,155.8,988,-0.7,-0.5,-1.9,25,-38.8234,156.334,987.601,-0.650819,-0.474239,-1.85772,
2026_07_06_15_26_51.219,3.847,30,0,0.76,0,0,0,0, ,0,0,0,0,0, ,-38.9,156.2,988.4,-0.7,-0.5,-1.9,25,-38.8494,156.314,987.637,-0.653816,-0.475809,-1.8603,
2026_07_06_15_26_51.236,3.847,29.9,0,0.76,0,0,0,0, ,0,0,0,0,0, ,-39.6,154.5,987.5,-0.7,-0.5,-1.9,25,-38.8738,156.255,987.656,-0.65663,-0.477283,-1.86272,
2026_07_06_15_26_51.253,3.847,30,0,0.757,0,0,0,0, ,0,0,0,0,0, ,-40,156.2,986.9,-0.7,-0.5,-1.8,25,-38.9302,156.2,987.628,-0.659273,-0.478668,-1.86194,
2026_07_06_15_26_51.286,3.847,30,0,0.758,0,0,0,0, ,0,0,0,0,0, ,-38.5,156.9,987.3,-0.6,-0.5,-1.8,25,-38.9497,156.221,987.596,-0.658708,-0.479967,-1.85817,
2026_07_06_15_26_51.301,3.847,30,0,0.758,0,0,0,0, ,0,0,0,0,0, ,-38.8,156.4,987.5,-0.7,-0.5,-1.8,25,-38.9314,156.247,987.584,-0.658178,-0.481188,-1.85462,
2026_07_06_15_26_51.337,3.847,29.9,0,0.758,0,0,0,0, ,0,0,0,0,0, ,-38,156.4,987.6,-0.7,-0.5,-2,25,-38.8991,156.257,987.582,-0.660726,-0.482335,-1.85739,
2026_07_06_15_26_51.337,3.847,30,0,0.758,0,0,0,0, ,0,0,0,0,0, ,-38.4,157.5,986.6,-0.6,-0.5,-1.9,25,-38.8565,156.299,987.553,-0.660072,-0.483411,-1.86303,
2026_07_06_15_26_51.353,3.847,29.9,0,0.758,0,0,0,0, ,0,0,0,0,0, ,-39.7,156,987.6,-0.7,-0.5,-1.8,25,-38.8682,156.326,987.525,-0.659459,-0.484422,-1.86224,
2026_07_06_15_26_51.373,3.847,29.9,0,0.759,0,0,0,0, ,0,0,0,0,0, ,-38.2,156.1,988.5,-0.6,-0.5,-1.9,25,-38.8732,156.31,987.557,-0.658882,-0.485371,-1.86149,
2026_07_06_15_26_51.403,3.847,29.9,0,0.76,0,0,0,0, ,0,0,0,0,0, ,-38.6,156.2,988.1,-0.7,-0.5,-1.9,25,-38.8444,156.3,987.602,-0.658341,-0.486263,-1.86384,
2026_07_06_15_26_51.420,3.847,30,0,0.76,0,0,0,0, ,0,0,0,0,0, ,-39.9,155.5,987.1,-0.6,-0.5,-1.7,25,-38.8691,156.272,987.602,-0.657833,-0.4871,-1.85995,
2026_07_06_15_26_51.453,3.847,30,0,0.758,0,0,0,0, ,0,0,0,0,0, ,-38.3,155.3,988.5,-0.7,-0.5,-1.9,25,-38.8832,156.219,987.614,-0.657355,-0.487886,-1.85629,
2026_07_06_15_26_51.453,3.847,30,0,0.758,0,0,0,0, ,0,0,0,0,0, ,-38.2,156.7,986.4,-0.5,-0.5,-1.9,25,-38.8446,156.206,987.604,-0.65386,-0.488624,-1.85896,
2026_07_06_15_26_51.503,3.847,29.9,0,0.76,0,0,0,0, ,0,0,0,0,0, ,-39,156.4,988,-0.6,-0.5,-1.8,25,-38.8297,156.227,987.58,-0.647531,-0.489317,-1.85841,
2026_07_06_15_26_51.504,3.847,29.9,0,0.757,0,0,0,0, ,0,0,0,0,0, ,-38.8,156.2,987.5,-0.6,-0.5,-1.8,25,-38.834,156.231,987.59,-0.644635,-0.489968,-1.85485,
2026_07_06_15_26_51.522,3.847,29.9,0,0.758,0,0,0,0, ,0,0,0,0,0, ,-37.9,156.7,988.1,-0.6,-0.5,-1.8,25,-38.8045,156.245,987.603,-0.641915,-0.49058,-1.85151,
2026_07_06_15_26_51.537,3.847,30,0,0.76,0,0,0,0, ,0,0,0,0,0, ,-39.7,155.6,987.6,-0.7,-0.5,-1.9,25,-38.8042,156.239,987.618,-0.642408,-0.491154,-1.85142,
2026_07_06_15_26_51.570,3.847,30,0,0.758,0,0,0,0, ,0,0,0,0,0, ,-39,156.8,989,-0.7,-0.5,-1.8,25,-38.8375,156.237,987.659,-0.645917,-0.491693,-1.85133,
2026_07_06_15_26_51.574,3.847,30,0,0.76,0,0,0,0, ,0,0,0,0,0, ,-38.4,156.8,987.4,-0.6,-0.5,-1.8,25,-38.8291,156.271,987.692,-0.646166,-0.492199,-1.8482,
2026_07_06_15_26_51.604,3.847,30,0,0.76,0,0,0,0, ,0,0,0,0,0, ,-38.8,158.5,988.2,-0.7,-0.4,-1.8,25,-38.8151,156.355,987.699,-0.6464,-0.489627,-1.84527,
2026_07_06_15_26_51.616,3.847,29.9,0,0.761,0,0,0,0, ,0,0,0,0,0, ,-39,157.8,987.4,-0.7,-0.5,-1.9,25,-38.8203,156.464,987.705,-0.649666,-0.487213,-1.84555,
2026_07_06_15_26_51.636,3.847,29.9,0,0.76,0,0,0,0, ,0,0,0,0,0, ,-38.6,155.7,987.3,-0.7,-0.5,-1.8,25,-38.8191,156.482,987.683,-0.652733,-0.487992,-1.84583,
2026_07_06_15_26_51.657,3.847,29.9,0,0.757,0,0,0,0, ,0,0,0,0,0, ,-38.8,156.1,987.6,-0.7,-0.4,-1.8,25,-38.8118,156.446,987.669,-0.655613,-0.485677,-1.84303,
2026_07_06_15_26_51.686,3.847,29.9,0,0.76,0,0,0,0, ,0,0,0,0,0, ,-38.6,156.2,985.9,-0.7,-0.4,-1.8,25,-38.805,156.428,987.613,-0.658318,-0.480456,-1.84041,
2026_07_06_15_26_51.687,3.847,29.9,0,0.758,0,0,0,0, ,0,0,0,0,0, ,-37.9,155.2,987.6,-0.7,-0.4,-1.9,25,-38.7712,156.384,987.561,-0.660858,-0.475553,-1.84099,
2026_07_06_15_26_51.727,3.847,29.8,0,0.76,0,0,0,0, ,0,0,0,0,0, ,-38.5,155.5,987.1,-0.7,-0.4,-1.8,25,-38.7364,156.321,987.548,-0.663243,-0.470949,-1.84154,
2026_07_06_15_26_51.737,3.847,29.9,0,0.757,0,0,0,0.001, ,0,0,0,0,0, ,-38.2,155.6,987.9,-0.6,-0.4,-1.9,25,-38.7128,156.274,987.545,-0.662436,-0.466626,-1.84206,
2026_07_06_15_26_51.754,3.847,29.9,0,0.76,0,0,0,0, ,0,0,0,0,0, ,-38.8,156.1,987.3,-0.6,-0.5,-1.8,25,-38.6999,156.248,987.548,-0.658632,-0.465612,-1.84254,
2026_07_06_15_26_51.774,3.847,29.9,0,0.758,0,0,0,0, ,0,0,0,0,0, ,-37.9,156.2,987.7,-0.6,-0.4,-1.9,25,-38.6785,156.242,987.545,-0.655059,-0.464661,-1.843,
2026_07_06_15_26_51.803,3.847,30,0,0.758,0,0,0,0, ,0,0,0,0,0, ,-38.9,156.9,989,-0.7,-0.4,-1.9,25,-38.6616,156.261,987.594,-0.654751,-0.460721,-1.84647,
2026_07_06_15_26_51.819,3.847,29.9,0,0.76,0,0,0,0, ,0,0,0,0,0, ,-38.8,157.1,986.2,-0.7,-0.4,-1.9,25,-38.673,156.306,987.595,-0.657508,-0.457021,-1.84973,
2026_07_06_15_26_51.853,3.847,30,0,0.76,0,0,0,0, ,0,0,0,0,0, ,-38.6,154.9,987,-0.6,-0.5,-1.9,25,-38.6747,156.287,987.534,-0.65705,-0.456593,-1.8528,
2026_07_06_15_26_51.853,3.847,29.9,0,0.758,0,0,0,0, ,0,0,0,0,0, ,-38.9,156.3,986.5,-0.5,-0.5,-1.9,25,-38.6793,156.245,987.486,-0.650527,-0.459238,-1.85567,
2026_07_06_15_26_51.886,3.847,29.9,0,0.758,0,0,0,0, ,0,0,0,0,0, ,-39.1,157.1,987.7,-0.6,-0.5,-1.9,25,-38.6988,156.273,987.463,-0.644401,-0.461722,-1.85837,
2026_07_06_15_26_51.886,3.847,29.9,0,0.758,0,0,0,0, ,0,0,0,0,0, ,-38.5,156.1,988.1,-0.7,-0.4,-1.9,25,-38.705,156.293,987.489,-0.644742,-0.461008,-1.86091,
2026_07_06_15_26_51.924,3.847,29.9,0,0.758,0,0,0,0, ,0,0,0,0,0, ,-38.2,156.2,987.9,-0.6,-0.4,-1.8,25,-38.6834,156.284,987.521,-0.645063,-0.45729,-1.86025,
2026_07_06_15_26_51.935,3.847,29.9,0,0.76,0,0,0,0, ,0,0,0,0,0, ,-38.8,156.9,987.1,-0.7,-0.4,-1.9,25,-38.6722,156.3,987.519,-0.645364,-0.453799,-1.85962,
2026_07_06_15_26_51.953,3.847,29.9,0,0.758,0,0,0,0, ,0,0,0,0,0, ,-37.9,157.2,987.3,-0.7,-0.5,-1.9,25,-38.6525,156.346,987.5,-0.648693,-0.453567,-1.86208,
2026_07_06_15_26_51.974,3.847,30,0,0.76,0,0,0,0, ,0,0,0,0,0, ,-38.6,156.3,989.1,-0.7,-0.4,-1.9,25,-38.628,156.371,987.542,-0.65182,-0.45335,-1.86439,
2026_07_06_15_26_52.003,3.847,29.9,0,0.758,0,0,0,0, ,0,0,0,0,0, ,-38.6,156.7,986,-0.6,-0.5,-1.8,25,-38.6263,156.379,987.543,-0.651709,-0.453146,-1.86352,
2026_07_06_15_26_52.003,3.847,29.9,0,0.758,0,0,0,0, ,0,0,0,0,0, ,-38.9,156.4,987.3,-0.6,-0.4,-1.8,25,-38.6338,156.389,987.489,-0.648558,-0.452954,-1.85964,
2026_07_06_15_26_52.037,3.847,29.9,0,0.76,0,0,0,0, ,0,0,0,0,0, ,-39.1,156.7,987,-0.7,-0.5,-1.9,25,-38.6562,156.399,987.468,-0.648646,-0.452774,-1.85906,
2026_07_06_15_26_52.054,3.847,29.9,0,0.76,0,0,0,0, ,0,0,0,0,0, ,-39,155.6,987.4,-0.6,-0.5,-1.8,25,-38.6802,156.384,987.452,-0.648728,-0.455652,-1.85851,
2026_07_06_15_26_52.082,3.847,29.9,0,0.758,0,0,0,0, ,0,0,0,0,0, ,-38.5,156.3,986.9,-0.7,-0.5,-1.9,25,-38.6844,156.357,987.433,-0.648806,-0.458354,-1.85799,
2026_07_06_15_26_52.089,3.847,30,0,0.76,0,0,0,0, ,0,0,0,0,0, ,-38.3,156.6,986.6,-0.6,-0.5,-1.8,25,-38.6671,156.363,987.392,-0.648878,-0.460892,-1.8575,
2026_07_06_15_26_52.120,3.847,29.9,0,0.761,0,0,0,0, ,0,0,0,0,0, ,-37.8,156,988.1,-0.7,-0.5,-1.9,25,-38.6295,156.359,987.389,-0.648947,-0.463275,-1.85704,
2026_07_06_15_26_52.120,3.847,29.9,0,0.76,0,0,0,0, ,0,0,0,0,0, ,-39.3,155.8,986.9,-0.6,-0.5,-1.9,25,-38.6246,156.331,987.396,-0.649011,-0.465513,-1.85966,
2026_07_06_15_26_52.153,3.847,30,0,0.76,0,0,0,0, ,0,0,0,0,0, ,-38.6,156.7,988.5,-0.7,-0.5,-1.8,25,-38.6445,156.326,987.414,-0.649071,-0.467615,-1.85907,
2026_07_06_15_26_52.170,3.847,29.9,0,0.759,0,0,0,0, ,0,0,0,0,0, ,-39.7,157.4,987.5,-0.7,-0.5,-1.9,25,-38.6753,156.37,987.45,-0.652175,-0.469588,-1.85852,
2026_07_06_15_26_52.186,3.847,29.9,0,0.761,0,0,0,0, ,0,0,0,0,0, ,-38.6,155.7,987,-0.7,-0.4,-1.8,25,-38.7042,156.381,987.438,-0.655089,-0.468395,-1.858,
2026_07_06_15_26_52.206,3.847,29.9,0,0.759,0,0,0,0, ,0,0,0,0,0, ,-38.5,157.1,986,-0.6,-0.4,-1.9,25,-38.6948,156.382,987.381,-0.654779,-0.464227,-1.85751,
2026_07_06_15_26_52.237,3.847,29.9,0,0.759,0,0,0,0, ,0,0,0,0,0, ,-38,155.7,987.5,-0.7,-0.5,-1.8,25,-38.6677,156.383,987.342,-0.654488,-0.46336,-1.85705,
2026_07_06_15_26_52.252,3.847,29.9,0,0.759,0,0,0,0, ,0,0,0,0,0, ,-38.9,156,988.2,-0.6,-0.5,-1.8,25,-38.6544,156.351,987.373,-0.654214,-0.465593,-1.85358,
2026_07_06_15_26_52.283,3.847,30,0,0.758,0,0,0,0, ,0,0,0,0,0, ,-38.8,156.3,987.9,-0.6,-0.5,-1.8,25,-38.6663,156.339,987.414,-0.650911,-0.467689,-1.85031,
2026_07_06_15_26_52.287,3.847,29.9,0,0.759,0,0,0,0, ,0,0,0,0,0, ,-37.7,156.1,987.3,-0.6,-0.5,-1.8,25,-38.641,156.33,987.426,-0.647808,-0.469658,-1.84725,
2026_07_06_15_26_52.320,3.847,30,0,0.759,0,0,0,0, ,0,0,0,0,0, ,-38.9,156.2,988.2,-0.6,-0.5,-1.9,25,-38.6202,156.319,987.446,-0.644895,-0.471507,-1.84741,
2026_07_06_15_26_52.324,3.847,30,0,0.762,0,0,0,0, ,0,0,0,0,0, ,-38.3,156.4,987.1,-0.7,-0.4,-1.9,25,-38.619,156.318,987.458,-0.645206,-0.470197,-1.85062,
2026_07_06_15_26_52.359,3.847,30,0,0.759,0,0,0,0, ,0,0,0,0,0, ,-38.9,158,987.1,-0.6,-0.5,-1.9,25,-38.6178,156.372,987.436,-0.645498,-0.468966,-1.85363,
2026_07_06_15_26_52.370,3.847,29.9,0,0.76,0,0,0,0, ,0,0,0,0,0, ,-39.1,156.6,988.6,-0.7,-0.5,-1.8,25,-38.6411,156.428,987.461,-0.645772,-0.470857,-1.85341,
2026_07_06_15_26_52.403,3.847,29.9,0,0.76,0,0,0,0, ,0,0,0,0,0, ,-38.4,155.6,987,-0.7,-0.5,-1.8,25,-38.6477,156.408,987.482,-0.649077,-0.472633,-1.85015,
2026_07_06_15_26_52.403,3.847,29.9,0,0.76,0,0,0,0.001, ,0,0,0,0,0, ,-38.3,156.4,988.4,-0.6,-0.5,-1.9,25,-38.6296,156.383,987.495,-0.649133,-0.474301,-1.85014,
2026_07_06_15_26_52.436,3.847,29.9,0,0.759,0,0,0,0.001, ,0,0,0,0,0, ,-40.2,156.2,985.9,-0.7,-0.5,-1.9,25,-38.6674,156.378,987.474,-0.649186,-0.475867,-1.85318,
2026_07_06_15_26_52.436,3.847,30,0,0.759,0,0,0,0.001, ,0,0,0,0,0, ,-37.9,157.5,986.2,-0.6,-0.4,-1.8,25,-38.6907,156.407,987.387,-0.649236,-0.47429,-1.85299,
2026_07_06_15_26_52.486,3.847,30,0,0.761,0,0,0,0, ,0,0,0,0,0, ,-39.3,156.4,988.5,-0.7,-0.5,-1.8,25,-38.6852,156.44,987.385,-0.649282,-0.47281,-1.84976,
2026_07_06_15_26_52.486,3.847,30,0,0.759,0,0,0,0, ,0,0,0,0,0, ,-39.1,156.2,987.7,-0.7,-0.5,-2,25,-38.7166,156.432,987.429,-0.652373,-0.474467,-1.85282,
2026_07_06_15_26_52.519,3.847,29.9,0,0.76,0,0,0,0, ,0,0,0,0,0, ,-38.8,156.1,988.1,-0.7,-0.4,-1.9,25,-38.7308,156.415,987.457,-0.655275,-0.472976,-1.85874,
2026_07_06_15_26_52.536,3.847,29.9,0,0.759,0,0,0,0.001, ,0,0,0,0,0, ,-39.1,155.7,986.4,-0.6,-0.5,-1.9,25,-38.7441,156.383,987.445,-0.654954,-0.471576,-1.86126,
2026_07_06_15_26_52.553,3.847,30,0,0.76,0,0,0,0.001, ,0,0,0,0,0, ,-38.5,156,985.9,-0.7,-0.5,-1.8,25,-38.7475,156.351,987.366,-0.654652,-0.473308,-1.86057,
2026_07_06_15_26_52.570,3.847,29.9,0,0.759,0,0,0,0, ,0,0,0,0,0, ,-37.8,155.8,987.9,-0.6,-0.4,-1.9,25,-38.7111,156.323,987.338,-0.654368,-0.471888,-1.85993,
2026_07_06_15_26_52.588,3.847,29.9,0,0.758,0,0,0,0.001, ,0,0,0,0,0, ,-39.1,156.1,986.9,-0.7,-0.5,-1.8,25,-38.6952,156.3,987.341,-0.654102,-0.470554,-1.85932,
2026_07_06_15_26_52.606,3.847,29.9,0,0.76,0,0,0,0.001, ,0,0,0,0,0, ,-39.4,158.5,987.7,-0.7,-0.5,-1.8,25,-38.729,156.361,987.339,-0.656899,-0.472348,-1.85571,
2026_07_06_15_26_52.637,3.847,29.9,0,0.76,0,0,0,0.001, ,0,0,0,0,0, ,-39.3,156.4,989.3,-0.7,-0.4,-1.8,25,-38.7669,156.428,987.41,-0.659525,-0.470986,-1.85231,
2026_07_06_15_26_52.637,3.847,29.9,0,0.759,0,0,0,0.001, ,0,0,0,0,0, ,-38.9,156.2,987.6,-0.7,-0.5,-1.9,25,-38.7872,156.42,987.473,-0.661992,-0.469708,-1.85217,
2026_07_06_15_26_52.679,3.847,29.9,0,0.759,0,0,0,0.001, ,0,0,0,0,0, ,-38.5,156,987.7,-0.7,-0.5,-1.9,25,-38.7819,156.4,987.484,-0.664308,-0.471554,-1.85509,
2026_07_06_15_26_52.687,3.847,29.9,0,0.76,0,0,0,0.001, ,0,0,0,0,0, ,-39.1,157.9,986.5,-0.7,-0.4,-1.8,25,-38.783,156.434,987.46,-0.666483,-0.47024,-1.85478,
2026_07_06_15_26_52.720,3.847,29.9,0,0.76,0,0,0,0.001, ,0,0,0,0,0, ,-39,155.8,989,-0.7,-0.4,-1.8,25,-38.7992,156.459,987.478,-0.668525,-0.46596,-1.85144,
2026_07_06_15_26_52.720,3.847,30,0,0.759,0,0,0,0.001, ,0,0,0,0,0, ,-38.3,156.3,987.6,-0.6,-0.4,-1.8,25,-38.7901,156.434,987.528,-0.667397,-0.46194,-1.8483,
2026_07_06_15_26_52.753,3.847,29.9,0,0.759,0,0,0,0, ,0,0,0,0,0, ,-38.6,157.7,987,-0.7,-0.5,-1.9,25,-38.7694,156.469,987.514,-0.666336,-0.461213,-1.84841,
2026_07_06_15_26_52.767,3.847,29.9,0,0.759,0,0,0,0.001, ,0,0,0,0,0, ,-39.1,156.2,987.4,-0.6,-0.4,-1.9,25,-38.7743,156.498,987.495,-0.665341,-0.46053,-1.85155,
2026_07_06_15_26_52.786,3.847,29.9,0,0.759,0,0,0,0.001, ,0,0,0,0,0, ,-39.3,156.6,988.2,-0.7,-0.5,-1.9,25,-38.8003,156.492,987.514,-0.664406,-0.459888,-1.8545,
2026_07_06_15_26_52.803,3.847,29.9,0,0.759,0,0,0,0.001, ,0,0,0,0,0, ,-38.9,156.8,988.6,-0.7,-0.4,-1.9,25,-38.8185,156.505,987.568,-0.666575,-0.459285,-1.85728,
2026_07_06_15_26_52.835,3.847,29.9,0,0.76,0,0,0,0.001, ,0,0,0,0,0, ,-38.8,155.3,987.4,-0.6,-0.5,-1.8,25,-38.8204,156.477,987.594,-0.665565,-0.45872,-1.85683,
2026_07_06_15_26_52.840,3.847,29.9,0,0.758,0,0,0,0.001, ,0,0,0,0,0, ,-37.5,155.7,987.3,-0.7,-0.5,-1.9,25,-38.7796,156.418,987.579,-0.664617,-0.461235,-1.85642,
2026_07_06_15_26_52.880,3.847,30,0,0.76,0,0,0,0.001, ,0,0,0,0,0, ,-39.6,156.1,988.5,-0.7,-0.4,-1.9,25,-38.7656,156.386,987.599,-0.666773,-0.46055,-1.85907,
2026_07_06_15_26_52.887,3.847,29.9,0,0.759,0,0,0,0, ,0,0,0,0,0, ,-39.1,156.6,988.5,-0.7,-0.5,-1.8,25,-38.8012,156.384,987.654,-0.668798,-0.459908,-1.85852,
2026_07_06_15_26_52.915,3.847,30,0,0.759,0,0,0,0.001, ,0,0,0,0,0, ,-37.7,157.2,987.7,-0.7,-0.5,-1.8,25,-38.7768,156.415,987.681,-0.670699,-0.462351,-1.85495,
2026_07_06_15_26_52.925,3.847,29.9,0,0.759,0,0,0,0, ,0,0,0,0,0, ,-37.8,157.1,987.4,-0.7,-0.5,-1.9,25,-38.7142,156.46,987.673,-0.672484,-0.464645,-1.85465,
2026_07_06_15_26_52.957,3.847,29.9,0,0.759,0,0,0,0.001, ,0,0,0,0,0, ,-39,156.6,987.1,-0.6,-0.5,-1.9,25,-38.695,156.484,987.647,-0.671114,-0.466799,-1.85741,
2026_07_06_15_26_52.961,3.847,30,0,0.759,0,0,0,0.001, ,0,0,0,0,0, ,-38.6,156.3,987.9,-0.6,-0.5,-1.8,25,-38.7014,156.482,987.638,-0.666781,-0.468823,-1.85696,
2026_07_06_15_26_53.001,3.847,29.9,0,0.758,0,0,0,0, ,0,0,0,0,0, ,-39.1,156.1,988,-0.7,-0.5,-1.9,25,-38.7105,156.465,987.657,-0.665758,-0.470722,-1.85654,
2026_07_06_15_26_53.003,3.847,30,0,0.759,0,0,0,0.001, ,0,0,0,0,0, ,-38.9,156.9,986.9,-0.7,-0.4,-1.9,25,-38.7281,156.467,987.644,-0.667845,-0.46946,-1.85919,
2026_07_06_15_26_53.047,3.847,29.9,0,0.759,0,0,0,0, ,0,0,0,0,0, ,-38.5,156.4,986.8,-0.6,-0.4,-1.8,25,-38.7264,156.478,987.596,-0.666757,-0.465227,-1.85863,
2026_07_06_15_26_53.047,3.847,30,0,0.76,0,0,0,0.001, ,0,0,0,0,0, ,-38.8,154.6,986.3,-0.7,-0.5,-1.8,25,-38.7218,156.418,987.532,-0.665736,-0.464299,-1.85505,
2026_07_06_15_26_53.086,3.847,30,0,0.76,0,0,0,0, ,0,0,0,0,0, ,-39.4,156.8,987.4,-0.7,-0.5,-1.9,25,-38.7448,156.375,987.491,-0.667824,-0.466475,-1.85475,
2026_07_06_15_26_53.086,3.847,29.8,0,0.759,0,0,0,0, ,0,0,0,0,0, ,-37.9,155.7,987.6,-0.6,-0.4,-1.9,25,-38.739,156.367,987.491,-0.666738,-0.465471,-1.8575,
2026_07_06_15_26_53.135,3.847,29.9,0,0.759,0,0,0,0.002, ,0,0,0,0,0, ,-38.4,155.6,987.9,-0.6,-0.5,-1.9,25,-38.7031,156.323,987.507,-0.662671,-0.464528,-1.86009,
2026_07_06_15_26_53.135,3.847,30,0,0.759,0,0,0,0.001, ,0,0,0,0,0, ,-38.3,155.7,988,-0.6,-0.5,-1.9,25,-38.6816,156.282,987.534,-0.658852,-0.466689,-1.86253,
2026_07_06_15_26_53.153,3.847,30,0,0.76,0,0,0,0, ,0,0,0,0,0, ,-38,155.3,987.1,-0.6,-0.4,-1.8,25,-38.6492,156.235,987.535,-0.655266,-0.465672,-1.86176,
2026_07_06_15_26_53.153,3.847,30,0,0.759,0,0,0,0, ,0,0,0,0,0, ,-38.9,156.4,987.7,-0.6,-0.4,-1.8,25,-38.6371,156.211,987.527,-0.651898,-0.461671,-1.858,
2026_07_06_15_26_53.192,3.847,30,0,0.759,0,0,0,0, ,0,0,0,0,0, ,-38.6,155.8,988,-0.7,-0.5,-1.9,25,-38.644,156.204,987.547,-0.651782,-0.460959,-1.85751,
2026_07_06_15_26_53.203,3.847,29.9,0,0.76,0,0,0,0, ,0,0,0,0,0, ,-39.1,156.2,987.1,-0.6,-0.4,-1.9,25,-38.6565,156.192,987.547,-0.651674,-0.460292,-1.8601,
2026_07_06_15_26_53.232,3.847,29.9,0,0.761,0,0,0,0.001, ,0,0,0,0,0, ,-38.4,155.8,990.2,-0.7,-0.5,-1.8,25,-38.6622,156.18,987.614,-0.651572,-0.459664,-1.85948,
2026_07_06_15_26_53.238,3.847,29.9,0,0.76,0,0,0,0.001, ,0,0,0,0,0, ,-38.2,156.9,987.1,-0.6,-0.5,-1.8,25,-38.6401,156.191,987.677,-0.651476,-0.462122,-1.85586,
2026_07_06_15_26_53.269,3.847,30,0,0.758,0,0,0,0.001, ,0,0,0,0,0, ,-37.9,156.4,987.7,-0.6,-0.5,-1.9,25,-38.6042,156.219,987.66,-0.648339,-0.464431,-1.8555,
2026_07_06_15_26_53.275,3.847,29.9,0,0.759,0,0,0,0, ,0,0,0,0,0, ,-39.6,155.8,986.5,-0.6,-0.5,-1.8,25,-38.6131,156.211,987.626,-0.645394,-0.466598,-1.85517,
2026_07_06_15_26_53.303,3.847,29.9,0,0.76,0,0,0,0.001, ,0,0,0,0,0, ,-38.8,157.2,987.4,-0.7,-0.5,-1.9,25,-38.6488,156.229,987.585,-0.645674,-0.468633,-1.85485,
2026_07_06_15_26_53.319,3.847,29.8,0,0.759,0,0,0,0.001, ,0,0,0,0,0, ,-38.6,155.5,987.3,-0.6,-0.5,-1.8,25,-38.652,156.236,987.571,-0.645938,-0.470545,-1.85456,
2026_07_06_15_26_53.339,3.847,29.9,0,0.758,0,0,0,0.002, ,0,0,0,0,0, ,-38.3,157.3,988.4,-0.6,-0.5,-1.8,25,-38.6396,156.246,987.588,-0.643139,-0.47234,-1.85123,
2026_07_06_15_26_53.353,3.847,29.9,0,0.759,0,0,0,0.001, ,0,0,0,0,0, ,-39,155.7,987.6,-0.7,-0.5,-1.8,25,-38.6403,156.262,987.613,-0.643557,-0.474025,-1.84811,
2026_07_06_15_26_53.386,3.847,29.9,0,0.76,0,0,0,0.001, ,0,0,0,0,0, ,-39.6,155.8,988.2,-0.7,-0.5,-1.8,25,-38.6805,156.231,987.63,-0.646996,-0.475608,-1.84518,
2026_07_06_15_26_53.386,3.847,29.8,0,0.759,0,0,0,0.001, ,0,0,0,0,0, ,-38.9,157.3,987.5,-0.6,-0.5,-1.9,25,-38.7152,156.25,987.644,-0.647179,-0.477095,-1.84547,
2026_07_06_15_26_53.430,3.847,30,0,0.759,0,0,0,0.002, ,0,0,0,0,0, ,-38.9,156.3,987.6,-0.7,-0.5,-1.9,25,-38.7264,156.284,987.638,-0.647351,-0.47849,-1.8488,
2026_07_06_15_26_53.436,3.847,29.9,0,0.759,0,0,0,0, ,0,0,0,0,0, ,-37.9,157.1,986.4,-0.6,-0.5,-1.9,25,-38.7066,156.309,987.599,-0.647513,-0.479801,-1.85192,
2026_07_06_15_26_53.469,3.847,29.9,0,0.758,0,0,0,0.001, ,0,0,0,0,0, ,-38,156.4,987.7,-0.6,-0.5,-1.9,25,-38.6605,156.336,987.566,-0.644617,-0.481032,-1.85485,
2026_07_06_15_26_53.475,3.847,29.9,0,0.76,0,0,0,0.001, ,0,0,0,0,0, ,-39.3,155.7,987.7,-0.6,-0.5,-1.8,25,-38.6598,156.318,987.574,-0.641898,-0.482188,-1.85455,
2026_07_06_15_26_53.503,3.847,29.9,0,0.76,0,0,0,0.001, ,0,0,0,0,0, ,-39.1,155.5,988.1,-0.7,-0.5,-1.8,25,-38.6927,156.275,987.594,-0.642392,-0.483273,-1.85123,
2026_07_06_15_26_53.521,3.847,29.9,0,0.759,0,0,0,0.001, ,0,0,0,0,0, ,-38.8,156.9,987.4,-0.6,-0.4,-1.8,25,-38.7084,156.27,987.603,-0.642856,-0.481246,-1.8481,
2026_07_06_15_26_53.537,3.847,29.9,0,0.76,0,0,0,0.001, ,0,0,0,0,0, ,-38.6,157.3,987.7,-0.6,-0.5,-1.8,25,-38.7079,156.321,987.6,-0.640244,-0.479342,-1.84517,
2026_07_06_15_26_53.553,3.847,29.9,0,0.759,0,0,0,0.001, ,0,0,0,0,0, ,-38.5,154.9,987.3,-0.7,-0.5,-1.8,25,-38.6983,156.307,987.594,-0.640839,-0.480601,-1.84242,
2026_07_06_15_26_53.586,3.847,29.9,0,0.759,0,0,0,0.001, ,0,0,0,0,0, ,-39.3,156.1,987,-0.7,-0.5,-1.8,25,-38.7106,156.258,987.567,-0.644444,-0.481783,-1.83984,
2026_07_06_15_26_53.586,3.847,29.9,0,0.759,0,0,0,0.001, ,0,0,0,0,0, ,-39.4,155.8,987.1,-0.6,-0.5,-1.9,25,-38.7495,156.239,987.535,-0.644782,-0.482893,-1.84045,
2026_07_06_15_26_53.620,3.847,29.9,0,0.759,0,0,0,0.001, ,0,0,0,0,0, ,-38,156.2,988.2,-0.7,-0.4,-1.9,25,-38.7465,156.225,987.542,-0.6451,-0.480888,-1.84408,
2026_07_06_15_26_53.636,3.847,29.9,0,0.758,0,0,0,0.001, ,0,0,0,0,0, ,-38.8,155.3,988.2,-0.6,-0.5,-1.9,25,-38.7254,156.196,987.582,-0.645399,-0.479006,-1.84749,
2026_07_06_15_26_53.670,3.847,29.9,0,0.759,0,0,0,0.001, ,0,0,0,0,0, ,-38,156.2,987.9,-0.7,-0.5,-1.9,25,-38.7056,156.169,987.611,-0.645679,-0.480285,-1.85069,
2026_07_06_15_26_53.675,3.847,29.9,0,0.759,0,0,0,0.001, ,0,0,0,0,0, ,-40.1,156.2,988,-0.7,-0.5,-1.8,25,-38.7266,156.17,987.632,-0.648989,-0.481487,-1.85065,
2026_07_06_15_26_53.703,3.847,29.9,0,0.759,0,0,0,0.001, ,0,0,0,0,0, ,-39.1,154.9,987.5,-0.6,-0.5,-1.8,25,-38.7798,156.133,987.639,-0.649051,-0.482615,-1.84756,
2026_07_06_15_26_53.718,3.847,29.9,0,0.759,0,0,0,0.001, ,0,0,0,0,0, ,-38.5,156.9,988.2,-0.7,-0.5,-1.8,25,-38.781,156.118,987.652,-0.649109,-0.483674,-1.84466,
2026_07_06_15_26_53.752,3.847,29.9,0,0.76,0,0,0,0.001, ,0,0,0,0,0, ,-38.5,155.2,988.6,-0.7,-0.5,-1.8,25,-38.7639,156.114,987.697,-0.65221,-0.484669,-1.84194,
2026_07_06_15_26_53.752,3.847,29.9,0,0.76,0,0,0,0.001, ,0,0,0,0,0, ,-38.8,156.1,987.5,-0.7,-0.4,-1.9,25,-38.757,156.086,987.719,-0.655122,-0.482557,-1.84243,
2026_07_06_15_26_53.788,3.847,29.9,0,0.759,0,0,0,0.001, ,0,0,0,0,0, ,-40.1,157.3,987.1,-0.6,-0.5,-1.8,25,-38.7992,156.123,987.693,-0.65481,-0.480573,-1.84289,
2026_07_06_15_26_53.793,3.847,30,0,0.76,0,0,0,0.001, ,0,0,0,0,0, ,-39,157.9,987.3,-0.7,-0.4,-1.8,25,-38.8449,156.213,987.663,-0.654517,-0.47871,-1.84028,
2026_07_06_15_26_53.819,3.847,30,0,0.759,0,0,0,0, ,0,0,0,0,0, ,-38.9,155.5,987.5,-0.6,-0.4,-1.9,25,-38.8513,156.243,987.647,-0.654242,-0.473913,-1.84087,
2026_07_06_15_26_53.836,3.847,29.9,0,0.76,0,0,0,0, ,0,0,0,0,0, ,-37.9,156.2,988,-0.6,-0.5,-1.8,25,-38.8238,156.219,987.653,-0.650936,-0.472456,-1.84143,
2026_07_06_15_26_53.852,3.847,29.9,0,0.76,0,0,0,0.001, ,0,0,0,0,0, ,-39.6,156.3,987.7,-0.7,-0.5,-1.8,25,-38.8193,156.221,987.665,-0.650879,-0.474134,-1.8389,
2026_07_06_15_26_53.876,3.847,29.9,0,0.758,0,0,0,0.001, ,0,0,0,0,0, ,-38.8,155.2,987.4,-0.7,-0.5,-1.9,25,-38.8425,156.192,987.658,-0.653873,-0.475711,-1.83958,
2026_07_06_15_26_53.905,3.847,29.9,0,0.761,0,0,0,0.001, ,0,0,0,0,0, ,-37.8,155.5,989.1,-0.7,-0.5,-1.8,25,-38.8095,156.141,987.694,-0.656683,-0.477191,-1.84022,
2026_07_06_15_26_53.905,3.847,29.9,0,0.759,0,0,0,0.001, ,0,0,0,0,0, ,-38.6,156.9,986.5,-0.6,-0.4,-1.9,25,-38.7723,156.145,987.701,-0.656276,-0.475534,-1.84081,
2026_07_06_15_26_53.937,3.847,29.9,0,0.759,0,0,0,0.001, ,0,0,0,0,0, ,-39,156.4,987.4,-0.6,-0.5,-1.8,25,-38.774,156.175,987.655,-0.652847,-0.473978,-1.84137,
2026_07_06_15_26_53.953,3.847,29.9,0,0.76,0,0,0,0.001, ,0,0,0,0,0, ,-39.1,156,988.1,-0.7,-0.5,-1.9,25,-38.7908,156.177,987.661,-0.652673,-0.475564,-1.8419,
2026_07_06_15_26_53.986,3.847,29.9,0,0.759,0,0,0,0.001, ,0,0,0,0,0, ,-38.2,156.1,986.6,-0.6,-0.5,-1.8,25,-38.7823,156.169,987.642,-0.65251,-0.477053,-1.84239,
2026_07_06_15_26_53.994,3.847,30,0,0.759,0,0,0,0.001, ,0,0,0,0,0, ,-38.5,155.3,988.6,-0.7,-0.4,-1.8,25,-38.7559,156.141,987.639,-0.652358,-0.475404,-1.83981,
2026_07_06_15_26_54.020,3.847,29.9,0,0.758,0,0,0,0, ,0,0,0,0,0, ,-39.3,156.6,986.5,-0.6,-0.4,-1.8,25,-38.7647,156.129,987.634,-0.652214,-0.470809,-1.83738,
2026_07_06_15_26_54.032,3.847,30,0,0.76,0,0,0,0.001, ,0,0,0,0,0, ,-39.1,156.8,986.5,-0.6,-0.5,-1.8,25,-38.7912,156.164,987.565,-0.649032,-0.469541,-1.8351,
2026_07_06_15_26_54.054,3.847,29.9,0,0.76,0,0,0,0, ,0,0,0,0,0, ,-40,156,987.5,-0.6,-0.5,-1.8,25,-38.8375,156.178,987.53,-0.646044,-0.471397,-1.83296,
2026_07_06_15_26_54.070,3.847,29.9,0,0.761,0,0,0,0.001, ,0,0,0,0,0, ,-38.9,156,988.4,-0.7,-0.4,-1.9,25,-38.8748,156.167,987.556,-0.646285,-0.470093,-1.834,
2026_07_06_15_26_54.103,3.847,29.9,0,0.759,0,0,0,0.001, ,0,0,0,0,0, ,-39.5,156.4,988.1,-0.7,-0.5,-1.8,25,-38.8946,156.169,987.598,-0.649558,-0.468869,-1.83498,
2026_07_06_15_26_54.103,3.847,29.9,0,0.759,0,0,0,0.001, ,0,0,0,0,0, ,-38.9,156.4,986.5,-0.6,-0.4,-1.9,25,-38.9132,156.183,987.58,-0.649585,-0.467719,-1.83589,
2026_07_06_15_26_54.143,3.847,29.9,0,0.759,0,0,0,0.001, ,0,0,0,0,0, ,-38.2,156.9,987.1,-0.6,-0.5,-1.8,25,-38.8911,156.212,987.533,-0.646564,-0.466639,-1.83675,
2026_07_06_15_26_54.153,3.847,29.9,0,0.76,0,0,0,0.001, ,0,0,0,0,0, ,-38.9,155.7,986.9,-0.7,-0.5,-1.9,25,-38.8703,156.217,987.5,-0.646773,-0.468672,-1.83756,
2026_07_06_15_26_54.186,3.847,29.9,0,0.761,0,0,0,0.001, ,0,0,0,0,0, ,-39,155.6,987.6,-0.6,-0.4,-1.8,25,-38.8752,156.183,987.485,-0.64697,-0.467534,-1.83832,
2026_07_06_15_26_54.186,3.847,29.9,0,0.76,0,0,0,0.001, ,0,0,0,0,0, ,-38.3,156.4,986.2,-0.7,-0.4,-1.8,25,-38.8614,156.171,987.449,-0.647154,-0.463419,-1.83598,
2026_07_06_15_26_54.222,3.847,29.9,0,0.76,0,0,0,0.001, ,0,0,0,0,0, ,-38.9,156.4,987,-0.7,-0.5,-1.8,25,-38.8455,156.185,987.397,-0.650375,-0.462601,-1.83379,
2026_07_06_15_26_54.237,3.847,29.9,0,0.76,0,0,0,0.001, ,0,0,0,0,0, ,-38.8,157.2,986.5,-0.6,-0.5,-1.9,25,-38.8458,156.223,987.358,-0.650352,-0.46488,-1.83478,
2026_07_06_15_26_54.270,3.847,29.9,0,0.758,0,0,0,0.001, ,0,0,0,0,0, ,-39,155.3,987.4,-0.7,-0.4,-1.8,25,-38.8491,156.224,987.333,-0.65033,-0.463974,-1.83571,
2026_07_06_15_26_54.276,3.847,29.9,0,0.759,0,0,0,0.001, ,0,0,0,0,0, ,-39.4,155.8,987.9,-0.7,-0.5,-1.8,25,-38.8705,156.183,987.352,-0.653357,-0.463122,-1.83353,
2026_07_06_15_26_54.320,3.847,29.9,0,0.759,0,0,0,0.001, ,0,0,0,0,0, ,-38.5,155.3,987.5,-0.6,-0.5,-1.8,25,-38.8753,156.145,987.374,-0.653153,-0.465369,-1.83149,
2026_07_06_15_26_54.320,3.847,30,0,0.76,0,0,0,0.001, ,0,0,0,0,0, ,-38.9,157.4,987.1,-0.7,-0.5,-1.8,25,-38.8646,156.157,987.369,-0.652961,-0.46748,-1.82957,
2026_07_06_15_26_54.350,3.847,29.8,0,0.758,0,0,0,0, ,0,0,0,0,0, ,-38.8,156.3,987.3,-0.7,-0.5,-1.9,25,-38.8637,156.2,987.359,-0.655827,-0.469461,-1.83081,
2026_07_06_15_26_54.356,3.847,29.9,0,0.76,0,0,0,0.002, ,0,0,0,0,0, ,-38.8,156.6,988.1,-0.6,-0.4,-1.9,25,-38.8599,156.215,987.38,-0.655472,-0.468275,-1.83503,
2026_07_06_15_26_54.386,3.847,30,0,0.761,0,0,0,0.001, ,0,0,0,0,0, ,-38.3,156.7,988.8,-0.7,-0.5,-1.9,25,-38.841,156.241,987.445,-0.655138,-0.467162,-1.83899,
2026_07_06_15_26_54.386,3.847,30,0,0.76,0,0,0,0, ,0,0,0,0,0, ,-38.8,156.9,987.5,-0.6,-0.6,-1.8,25,-38.8232,156.275,987.488,-0.654825,-0.47221,-1.83966,
2026_07_06_15_26_54.422,3.847,29.9,0,0.759,0,0,0,0, ,0,0,0,0,0, ,-38.3,156.1,987.4,-0.7,-0.5,-1.8,25,-38.8066,156.289,987.486,-0.654531,-0.47695,-1.83724,
2026_07_06_15_26_54.427,3.847,29.9,0,0.76,0,0,0,0.001, ,0,0,0,0,0, ,-38.8,156.3,988.6,-0.7,-0.5,-1.8,25,-38.791,156.284,987.517,-0.657302,-0.478355,-1.83497,
2026_07_06_15_26_54.455,3.847,30,0,0.759,0,0,0,0.001, ,0,0,0,0,0, ,-39.4,156,987.1,-0.6,-0.5,-1.8,25,-38.8098,156.275,987.537,-0.656857,-0.479674,-1.83284,
2026_07_06_15_26_54.470,3.847,29.9,0,0.759,0,0,0,0.001, ,0,0,0,0,0, ,-39.4,156.9,987.5,-0.7,-0.4,-2,25,-38.8458,156.286,987.523,-0.656439,-0.477865,-1.83693,
2026_07_06_15_26_54.500,3.847,29.9,0,0.758,0,0,0,0.001, ,0,0,0,0,0, ,-38.8,155.7,987,-0.6,-0.4,-1.8,25,-38.8612,156.287,987.506,-0.656047,-0.47312,-1.84078,
2026_07_06_15_26_54.502,3.847,29.9,0,0.758,0,0,0,0.001, ,0,0,0,0,0, ,-39,156,986.6,-0.6,-0.5,-1.8,25,-38.8636,156.26,987.463,-0.652631,-0.471712,-1.83829,
2026_07_06_15_26_54.536,3.847,29.9,0,0.76,0,0,0,0.001, ,0,0,0,0,0, ,-39.9,156.3,986.4,-0.7,-0.4,-1.8,25,-38.8993,156.254,987.404,-0.652471,-0.470389,-1.83596,
2026_07_06_15_26_54.536,3.847,29.9,0,0.76,0,0,0,0.001, ,0,0,0,0,0, ,-38.8,156.2,987.7,-0.7,-0.5,-1.8,25,-38.9268,156.253,987.383,-0.655367,-0.469146,-1.83377,
2026_07_06_15_26_54.577,3.847,30,0,0.759,0,0,0,0.001, ,0,0,0,0,0, ,-38.6,156.9,987,-0.6,-0.5,-1.8,25,-38.913,156.271,987.381,-0.65504,-0.471026,-1.83171,
2026_07_06_15_26_54.588,3.847,29.9,0,0.761,0,0,0,0.001, ,0,0,0,0,0, ,-38.8,157.2,987,-0.6,-0.4,-2,25,-38.9,156.319,987.358,-0.651686,-0.469745,-1.83587,
2026_07_06_15_26_54.619,3.847,30,0,0.76,0,0,0,0.001, ,0,0,0,0,0, ,-38.8,155.5,986.8,-0.6,-0.4,-1.9,25,-38.8939,156.321,987.33,-0.648537,-0.465495,-1.84283,
2026_07_06_15_26_54.619,3.847,29.9,0,0.759,0,0,0,0.001, ,0,0,0,0,0, ,-39.9,156.3,987.3,-0.6,-0.5,-1.8,25,-38.9217,156.295,987.313,-0.645579,-0.464551,-1.84326,
2026_07_06_15_26_54.669,3.847,30,0,0.759,0,0,0,0.001, ,0,0,0,0,0, ,-38.3,155,986.9,-0.7,-0.5,-1.8,25,-38.9326,156.256,987.3,-0.645848,-0.466711,-1.84063,
2026_07_06_15_26_54.669,3.847,30,0,0.76,0,0,0,0.001, ,0,0,0,0,0, ,-38.6,156.1,987.5,-0.7,-0.5,-1.8,25,-38.9032,156.213,987.294,-0.649148,-0.468739,-1.83815,
2026_07_06_15_26_54.702,3.847,29.9,0,0.76,0,0,0,0.001, ,0,0,0,0,0, ,-39,156.2,987.1,-0.7,-0.5,-1.9,25,-38.8969,156.209,987.294,-0.652247,-0.470644,-1.83887,
2026_07_06_15_26_54.702,3.847,29.9,0,0.761,0,0,0,0.001, ,0,0,0,0,0, ,-40.2,155.6,987.5,-0.7,-0.5,-1.9,25,-38.9397,156.19,987.294,-0.655157,-0.472433,-1.8426,
2026_07_06_15_26_54.736,3.847,29.9,0,0.76,0,0,0,0.001, ,0,0,0,0,0, ,-37.5,156.7,986.6,-0.6,-0.5,-1.8,25,-38.9343,156.188,987.279,-0.654843,-0.474113,-1.84305,
2026_07_06_15_26_54.746,3.847,29.9,0,0.76,0,0,0,0.001, ,0,0,0,0,0, ,-38.8,156.7,989,-0.7,-0.5,-1.8,25,-38.8865,156.219,987.311,-0.654548,-0.475691,-1.84043,
2026_07_06_15_26_54.777,3.847,29.9,0,0.759,0,0,0,0.001, ,0,0,0,0,0, ,-38.5,154.7,988.6,-0.7,-0.5,-1.8,25,-38.8721,156.187,987.402,-0.657317,-0.477172,-1.83796,
2026_07_06_15_26_54.786,3.847,29.9,0,0.759,0,0,0,0.001, ,0,0,0,0,0, ,-39,156,987.1,-0.6,-0.5,-1.9,25,-38.8646,156.136,987.429,-0.656871,-0.478563,-1.8387,
2026_07_06_15_26_54.804,3.847,30,0,0.759,0,0,0,0.001, ,0,0,0,0,0, ,-39.4,155.3,987.3,-0.6,-0.6,-1.9,25,-38.8851,156.107,987.415,-0.653406,-0.482916,-1.84243,
2026_07_06_15_26_54.819,3.847,29.9,0,0.759,0,0,0,0.001, ,0,0,0,0,0, ,-39,156,987.4,-0.7,-0.5,-1.8,25,-38.9042,156.079,987.411,-0.653198,-0.487004,-1.84289,
2026_07_06_15_26_54.852,3.847,29.9,0,0.759,0,0,0,0.001, ,0,0,0,0,0, ,-39.1,156.3,987.7,-0.7,-0.4,-1.8,25,-38.9131,156.083,987.42,-0.65605,-0.484749,-1.84028,
2026_07_06_15_26_54.862,3.847,29.9,0,0.76,0,0,0,0.001, ,0,0,0,0,0, ,-39,155.5,987.6,-0.6,-0.5,-2,25,-38.9215,156.072,987.434,-0.655682,-0.482632,-1.84392,
2026_07_06_15_26_54.896,3.847,29.9,0,0.761,0,0,0,0.001, ,0,0,0,0,0, ,-38.4,156.3,986.4,-0.7,-0.4,-1.9,25,-38.908,156.062,987.407,-0.655335,-0.480643,-1.85038,
2026_07_06_15_26_54.902,3.847,29.9,0,0.761,0,0,0,0.001, ,0,0,0,0,0, ,-38.4,155.6,986.9,-0.6,-0.5,-1.8,25,-38.877,156.055,987.361,-0.65501,-0.478776,-1.85036,
2026_07_06_15_26_54.936,3.847,29.9,0,0.759,0,0,0,0.002, ,0,0,0,0,0, ,-37.9,157.1,988.1,-0.6,-0.5,-1.8,25,-38.8327,156.073,987.37,-0.651658,-0.480069,-1.84729,
2026_07_06_15_26_54.940,3.847,29.9,0,0.759,0,0,0,0.002, ,0,0,0,0,0, ,-39,155.8,986.9,-0.7,-0.4,-1.9,25,-38.8094,156.096,987.378,-0.651557,-0.478237,-1.84746,
2026_07_06_15_26_54.969,3.847,29.9,0,0.759,0,0,0,0.002, ,0,0,0,0,0, ,-39.1,156.3,987.9,-0.7,-0.4,-1.9,25,-38.8241,156.093,987.379,-0.654509,-0.473469,-1.85066,
2026_07_06_15_26_54.984,3.847,29.9,0,0.759,0,0,0,0.002, ,0,0,0,0,0, ,-38.6,156.4,986.8,-0.7,-0.5,-1.9,25,-38.8256,156.109,987.377,-0.657281,-0.472039,-1.85366,
2026_07_06_15_26_55.011,3.847,30,0,0.759,0,0,0,0.002, ,0,0,0,0,0, ,-38.3,155.6,986.5,-0.6,-0.5,-1.8,25,-38.8027,156.102,987.333,-0.656837,-0.473743,-1.85344,
2026_07_06_15_26_55.024,3.847,30,0,0.76,0,0,0,0.001, ,0,0,0,0,0, ,-38.4,157.5,986.9,-0.7,-0.5,-1.8,25,-38.7752,156.129,987.294,-0.656421,-0.475343,-1.85018,
2026_07_06_15_26_55.052,3.847,29.9,0,0.76,0,0,0,0.001, ,0,0,0,0,0, ,-39.3,156,986.9,-0.6,-0.4,-1.8,25,-38.7797,156.167,987.27,-0.65603,-0.473799,-1.84713,
2026_07_06_15_26_55.058,3.847,29.9,0,0.758,0,0,0,0.002, ,0,0,0,0,0, ,-37.5,155.8,987.1,-0.7,-0.5,-1.9,25,-38.7566,156.151,987.254,-0.655662,-0.472348,-1.8473,
2026_07_06_15_26_55.086,3.847,29.9,0,0.76,0,0,0,0.002, ,0,0,0,0,0, ,-38.3,156.4,986.5,-0.7,-0.5,-1.9,25,-38.7044,156.148,987.226,-0.658364,-0.474033,-1.85051,
2026_07_06_15_26_55.102,3.847,29.9,0,0.76,0,0,0,0.002, ,0,0,0,0,0, ,-38.6,156.3,987.3,-0.6,-0.4,-1.8,25,-38.6889,156.16,987.206,-0.657854,-0.472569,-1.85048,
2026_07_06_15_26_55.133,3.847,29.9,0,0.758,0,0,0,0.002, ,0,0,0,0,0, ,-38.4,156.9,987,-0.6,-0.5,-1.8,25,-38.6774,156.187,987.203,-0.654329,-0.471194,-1.84741,
2026_07_06_15_26_55.136,3.847,30,0,0.76,0,0,0,0.002, ,0,0,0,0,0, ,-38.6,156.2,987,-0.6,-0.5,-2,25,-38.6666,156.209,987.19,-0.651018,-0.472949,-1.85061,
2026_07_06_15_26_55.169,3.847,30,0,0.759,0,0,0,0.001, ,0,0,0,0,0, ,-38.2,155.8,988,-0.6,-0.5,-1.9,25,-38.6503,156.196,987.209,-0.647909,-0.474597,-1.85667,
2026_07_06_15_26_55.177,3.847,30,0,0.76,0,0,0,0.001, ,0,0,0,0,0, ,-39.9,156.2,985.9,-0.7,-0.5,-1.8,25,-38.6747,156.184,987.194,-0.648037,-0.476145,-1.85626,
2026_07_06_15_26_55.203,3.847,30,0,0.759,0,0,0,0.001, ,0,0,0,0,0, ,-38.6,156.8,987.7,-0.7,-0.4,-1.9,25,-38.7097,156.204,987.17,-0.651203,-0.474552,-1.85588,
2026_07_06_15_26_55.219,3.847,30,0,0.76,0,0,0,0.001, ,0,0,0,0,0, ,-39.7,156.6,988.2,-0.7,-0.5,-1.9,25,-38.7366,156.234,987.217,-0.654177,-0.473056,-1.85857,
2026_07_06_15_26_55.253,3.847,29.9,0,0.761,0,0,0,0.001, ,0,0,0,0,0, ,-38.8,156.1,986.6,-0.6,-0.5,-1.8,25,-38.7678,156.241,987.228,-0.653922,-0.474698,-1.85805,
2026_07_06_15_26_55.261,3.847,30,0,0.759,0,0,0,0.002, ,0,0,0,0,0, ,-39.5,156.4,987.7,-0.6,-0.5,-1.8,25,-38.7911,156.241,987.224,-0.650636,-0.47624,-1.85451,
2026_07_06_15_26_55.292,3.847,29.9,0,0.758,0,0,0,0.001, ,0,0,0,0,0, ,-39.1,156.7,988.1,-0.6,-0.5,-1.8,25,-38.8221,156.26,987.265,-0.647551,-0.477688,-1.85119,
2026_07_06_15_26_55.302,3.847,29.9,0,0.76,0,0,0,0.002, ,0,0,0,0,0, ,-38.3,156.2,987.3,-0.7,-0.5,-1.8,25,-38.8147,156.272,987.291,-0.6477,-0.479047,-1.84807,
2026_07_06_15_26_55.319,3.847,30,0,0.76,0,0,0,0.002, ,0,0,0,0,0, ,-38.8,156.6,988.2,-0.7,-0.5,-1.9,25,-38.7986,156.28,987.319,-0.650887,-0.480324,-1.84819,
2026_07_06_15_26_55.336,3.847,29.9,0,0.76,0,0,0,0.001, ,0,0,0,0,0, ,-39.1,157.3,986.6,-0.7,-0.5,-1.9,25,-38.8078,156.32,987.324,-0.65388,-0.481523,-1.85134,
2026_07_06_15_26_55.374,3.847,30,0,0.76,0,0,0,0.002, ,0,0,0,0,0, ,-39.3,157.3,987,-0.6,-0.5,-1.8,25,-38.8317,156.38,987.292,-0.653643,-0.482649,-1.85126,
2026_07_06_15_26_55.378,3.847,30,0,0.76,0,0,0,0.001, ,0,0,0,0,0, ,-38.5,157.1,988.7,-0.6,-0.5,-1.9,25,-38.8359,156.43,987.326,-0.650374,-0.483706,-1.85118,
2026_07_06_15_26_55.402,3.847,30,0,0.759,0,0,0,0.001, ,0,0,0,0,0, ,-39,156.8,986.5,-0.6,-0.5,-1.9,25,-38.8306,156.462,987.343,-0.647305,-0.484699,-1.85416,
2026_07_06_15_26_55.419,3.847,30,0,0.758,0,0,0,0.001, ,0,0,0,0,0, ,-38.5,156.8,987.9,-0.7,-0.5,-1.9,25,-38.8257,156.482,987.334,-0.647469,-0.485632,-1.85695,
2026_07_06_15_26_55.453,3.847,30,0,0.759,0,0,0,0.001, ,0,0,0,0,0, ,-39,156.3,986,-0.7,-0.5,-1.8,25,-38.8211,156.487,987.311,-0.65067,-0.486507,-1.85653,
