time_sec_index,time_sec_from_utc,UTC_Time,segment_id,Accel_x_ms2,Accel_y_ms2,Accel_z_ms2,gyro_x_raw,gyro_y_raw,gyro_z_raw
0.0,0.0,2026-05-21 16:59:17.460,0,-0.8377740000000001,-1.1153970000000002,9.725634,0.2,0.0,-2.7
0.02,0.02,2026-05-21 16:59:17.480,0,-0.870147,-1.110492,9.822752999999999,-0.9,-0.7,-2.8
0.04,0.04,2026-05-21 16:59:17.500,0,-0.810306,-1.1546370000000001,9.781551,-1.8,-0.9,-2.8
0.06,0.06,2026-05-21 16:59:17.520,0,-0.854451,-1.142865,9.762912000000002,-1.5,-0.1,-0.9
0.08,0.08,2026-05-21 16:59:17.540,0,-0.95157,-1.1153970000000002,9.691299,-0.3,0.3,-1.0
0.1,0.1,2026-05-21 16:59:17.560,0,-0.947646,-1.114416,9.753102000000002,0.7,0.1,-2.0
0.12,0.12,2026-05-21 16:59:17.580,0,-0.9191970000000002,-1.120302,9.841392,0.5,1.9,0.0
0.14,0.14,2026-05-21 16:59:17.600,0,-1.034955,-1.043784,9.81,-1.9,0.4,-0.7
0.16,0.16,2026-05-21 16:59:17.620,0,-1.0604609999999999,-1.06929,9.683451,-3.0,-1.3,-2.5
0.18,0.18,2026-05-21 16:59:17.640,0,-0.9957150000000001,-1.091853,9.665793,-1.3,-0.2,-2.6
0.2,0.2,2026-05-21 16:59:17.660,0,-0.9319500000000001,-1.132074,9.703071,1.3,0.0,-4.1
0.22,0.22,2026-05-21 16:59:17.680,0,-0.9093870000000001,-1.204668,9.707976,-0.4,0.4,-2.5
0.24,0.24,2026-05-21 16:59:17.700,0,-0.964323,-1.05948,9.705033,-2.4,0.4,0.5
0.26,0.26,2026-05-21 16:59:17.720,0,-1.005525,-1.121283,9.660888,-1.7,-1.5,-2.5
0.28,0.28,2026-05-21 16:59:17.740,0,-0.9191970000000002,-1.2841290000000003,9.46665,1.0,0.5,-5.3
0.3,0.3,2026-05-21 16:59:17.760,0,-0.8966340000000002,-1.2213450000000001,9.573579,2.2,1.8,-2.5
0.32,0.32,2026-05-21 16:59:17.780,0,-0.9525509999999999,-1.123245,9.583389,3.0,1.2,-0.7
0.34,0.34,2026-05-21 16:59:17.800,0,-0.998658,-1.013373,9.738387000000001,3.0,-1.0,0.7
0.36,0.36,2026-05-21 16:59:17.820,0,-0.9368550000000001,-0.9702090000000001,9.906138,0.5,-1.8,0.2
0.38,0.38,2026-05-21 16:59:17.840,0,-0.9290070000000001,-0.998658,9.887499,-1.4,-0.4,-0.3
0.4,0.4,2026-05-21 16:59:17.860,0,-0.9564750000000001,-0.983943,9.838448999999999,-2.2,-0.4,-1.3
0.42,0.42,2026-05-21 16:59:17.880,0,-0.8985960000000001,-1.075176,9.759969,-2.9,-1.0,-2.6
0.44,0.44,2026-05-21 16:59:17.900,0,-0.949608,-1.1183400000000001,9.658926000000001,-2.1,0.1,-1.7
0.46,0.46,2026-05-21 16:59:17.920,0,-0.967266,-1.21644,9.534339000000001,-1.4,0.0,-1.2
0.48,0.48,2026-05-21 16:59:17.940,0,-1.016316,-1.132074,9.508833,1.4,0.0,-0.3
0.5,0.5,2026-05-21 16:59:17.960,0,-1.062423,-1.0535940000000001,9.616743,2.7,-0.3,-0.4
0.52,0.52,2026-05-21 16:59:17.980,0,-1.009449,-1.0781190000000003,9.65304,3.4,0.0,-2.1
0.54,0.54,2026-05-21 16:59:18.000,0,-0.968247,-1.047708,9.689337,3.1,0.4,-2.0
0.56,0.56,2026-05-21 16:59:18.020,0,-0.9702090000000001,-1.045746,9.747216000000002,3.1,0.3,-0.6
0.58,0.58,2026-05-21 16:59:18.040,0,-1.009449,-1.02024,9.815885999999999,2.6,-0.3,-0.7
0.6,0.6,2026-05-21 16:59:18.060,0,-0.9790380000000001,-0.996696,9.861012,2.0,-0.2,-1.9
0.62,0.62,2026-05-21 16:59:18.080,0,-0.915273,-1.034955,9.892404,1.0,0.0,-2.7
0.64,0.64,2026-05-21 16:59:18.100,0,-0.897615,-1.031031,9.852183,-0.2,-0.5,-2.4
0.66,0.66,2026-05-21 16:59:18.120,0,-0.893691,-1.042803,9.777627,-0.8,-1.0,-1.2
0.68,0.68,2026-05-21 16:59:18.140,0,-0.940779,-1.0643850000000001,9.751140000000001,-1.8,-0.9,-1.1
0.7000000000000001,0.7,2026-05-21 16:59:18.160,0,-0.925083,-1.097739,9.68247,-1.5,-0.4,-1.3
0.72,0.72,2026-05-21 16:59:18.180,0,-0.9525509999999999,-1.0663470000000002,9.660888,-0.2,0.3,-0.3
0.74,0.74,2026-05-21 16:59:18.200,0,-1.029069,-1.062423,9.638325,0.3,0.5,-0.2
0.76,0.76,2026-05-21 16:59:18.220,0,-1.047708,-1.034955,9.64323,1.2,-0.4,-1.3
0.78,0.78,2026-05-21 16:59:18.240,0,-1.018278,-0.9633420000000001,9.697185000000001,1.3,-0.6,-0.4
0.8,0.8,2026-05-21 16:59:18.260,0,-1.0555560000000002,-0.9294975000000001,9.717786,1.4,0.0,-0.95
0.8200000000000001,0.82,2026-05-21 16:59:18.280,0,-1.018278,-0.9633420000000001,9.74133,1.1,0.5,-2.2
0.84,0.84,2026-05-21 16:59:18.300,0,-1.004544,-1.005525,9.654021,0.8,0.0,-2.7
0.86,0.86,2026-05-21 16:59:18.320,0,-0.973152,-0.968247,9.696204,2.3,0.1,-2.1
0.88,0.88,2026-05-21 16:59:18.340,0,-0.987867,-0.999639,9.768798,2.2,0.0,-2.2
0.9,0.9,2026-05-21 16:59:18.360,0,-0.949608,-0.9898290000000001,9.714843,2.1,0.1,-2.5
0.92,0.92,2026-05-21 16:59:18.380,0,-0.972171,-0.9525509999999999,9.758988,1.9,0.4,-1.8
0.9400000000000001,0.94,2026-05-21 16:59:18.400,0,-0.974133,-1.012392,9.696204,1.8,-0.1,-2.8
0.96,0.96,2026-05-21 16:59:18.420,0,-0.982962,-0.9908100000000001,9.703071,1.9,0.3,-1.4
0.98,0.98,2026-05-21 16:59:18.440,0,-1.0172970000000001,-0.95157,9.719748,2.0,0.5,0.0
1.0,1.0,2026-05-21 16:59:18.460,0,-1.072233,-0.9584370000000001,9.659907,2.2,-0.1,-0.9
1.02,1.02,2026-05-21 16:59:18.480,0,-1.028088,-0.8829,9.828639,2.5,0.0,-1.8
1.04,1.04,2026-05-21 16:59:18.500,0,-1.101663,-0.8475840000000001,9.873765,1.1,0.0,-1.9
1.06,1.06,2026-05-21 16:59:18.520,0,-1.0967580000000001,-0.8230590000000001,9.81,-0.3,-1.0,-2.6
1.08,1.08,2026-05-21 16:59:18.540,0,-0.9888480000000001,-0.957456,9.774684,-1.2,-1.6,-3.2
1.1,1.1,2026-05-21 16:59:18.560,0,-0.9633420000000001,-0.991791,9.748197000000001,-1.3,-1.4,-3.2
1.12,1.12,2026-05-21 16:59:18.580,0,-1.022202,-0.849546,9.889461,-2.2,-2.3,-1.0
1.1400000000000001,1.14,2026-05-21 16:59:18.600,0,-1.02024,-0.89271,9.770760000000001,-2.2,-4.9,-1.5
1.16,1.16,2026-05-21 16:59:18.620,0,-0.7720470000000001,-1.037898,9.582408000000001,-2.0,-2.9,-4.4
1.18,1.18,2026-05-21 16:59:18.640,0,-0.779895,-1.054575,9.747216000000002,-2.3,1.3,-1.5
1.2,1.2,2026-05-21 16:59:18.660,0,-0.9633420000000001,-1.012392,9.683451,-1.6,1.6,1.9
1.22,1.22,2026-05-21 16:59:18.680,0,-1.031031,-0.8995770000000001,9.783513000000001,-1.4,-0.1,2.4
1.24,1.24,2026-05-21 16:59:18.700,0,-1.0535940000000001,-0.8868240000000002,9.734463,-1.3,-0.9,-0.9
1.26,1.26,2026-05-21 16:59:18.720,0,-1.01043,-0.975114,9.726615,-0.3,-0.3,-2.9
1.28,1.28,2026-05-21 16:59:18.740,0,-1.00062,-1.01043,9.620667000000001,-0.8,-0.2,-1.3
1.3,1.3,2026-05-21 16:59:18.760,0,-1.0320120000000002,-1.02024,9.571617,0.9,0.3,0.0
1.32,1.32,2026-05-21 16:59:18.780,0,-1.0859670000000001,-0.8985960000000001,9.715824,1.9,0.7,0.1
1.34,1.34,2026-05-21 16:59:18.800,0,-1.099701,-0.8799570000000001,9.667755000000001,1.6,0.1,-1.6
1.36,1.36,2026-05-21 16:59:18.820,0,-1.116378,-0.8966340000000002,9.655983,2.3,-0.1,-1.4
1.3800000000000001,1.38,2026-05-21 16:59:18.840,0,-1.03986,-0.877995,9.758007000000001,2.1,-1.2,-1.2
1.4000000000000001,1.4,2026-05-21 16:59:18.860,0,-1.038879,-0.884862,9.778608,2.2,-0.3,-2.8
1.42,1.42,2026-05-21 16:59:18.880,0,-0.960399,-0.893691,9.772722000000002,1.0,0.6,-2.8
1.44,1.44,2026-05-21 16:59:18.900,0,-0.973152,-0.9093870000000001,9.743292000000002,1.2,0.1,-1.7
1.46,1.46,2026-05-21 16:59:18.920,0,-0.9584370000000001,-0.852489,9.832563,1.2,-0.9,-2.0
1.48,1.48,2026-05-21 16:59:18.940,0,-0.917235,-0.893691,9.828639,-0.3,-1.2,-2.5
1.5,1.5,2026-05-21 16:59:18.960,0,-0.86328,-0.934893,9.732501000000001,-0.3,0.5,-1.4
1.52,1.52,2026-05-21 16:59:18.980,0,-0.983943,-0.893691,9.688356,0.7,2.0,-0.3
1.54,1.54,2026-05-21 16:59:19.000,0,-1.012392,-0.897615,9.666774,0.8,0.7,-0.9
1.56,1.56,2026-05-21 16:59:19.020,0,-1.0231830000000002,-0.8819190000000001,9.688356,0.7,-0.4,-0.4
1.58,1.58,2026-05-21 16:59:19.040,0,-1.02024,-0.870147,9.693261,1.2,-0.1,-1.0
1.6,1.6,2026-05-21 16:59:19.060,0,-1.041822,-0.852489,9.754083,2.5,1.6,-1.0
1.62,1.62,2026-05-21 16:59:19.080,0,-1.119321,-0.8014770000000001,9.768798,1.5,1.7,-0.5
1.6400000000000001,1.64,2026-05-21 16:59:19.100,0,-1.162485,-0.7897050000000001,9.738387000000001,1.2,0.7,-0.8
1.6600000000000001,1.66,2026-05-21 16:59:19.120,0,-1.114416,-0.844641,9.73152,0.9,-1.2,-1.8
1.68,1.68,2026-05-21 16:59:19.140,0,-1.0486890000000002,-0.8112870000000001,9.817848,1.5,-0.6,-1.7
1.7,1.7,2026-05-21 16:59:19.160,0,-1.0800809999999998,-0.7789140000000001,9.808038,0.9,0.3,-2.4
1.72,1.72,2026-05-21 16:59:19.180,0,-1.045746,-0.8475840000000001,9.803133,-0.2,-0.3,-3.4
1.74,1.74,2026-05-21 16:59:19.200,0,-0.983943,-0.85347,9.758988,0.1,-0.8,-2.5
1.76,1.76,2026-05-21 16:59:19.220,0,-0.991791,-0.8387550000000001,9.752121,-0.3,-0.9,-1.8
1.78,1.78,2026-05-21 16:59:19.240,0,-0.9947340000000001,-0.8554320000000001,9.743292000000002,-0.1,-0.1,-2.1
1.8,1.8,2026-05-21 16:59:19.260,0,-0.977076,-0.860337,9.65304,0.3,1.0,-1.3
1.82,1.82,2026-05-21 16:59:19.280,0,-1.0535940000000001,-0.812268,9.691299,0.7,0.7,-1.0
1.84,1.84,2026-05-21 16:59:19.300,0,-1.082043,-0.7985340000000001,9.70209,0.7,-0.7,-1.6
1.86,1.86,2026-05-21 16:59:19.320,0,-1.070271,-0.8416980000000001,9.73152,0.4,-0.6,-1.0
1.8800000000000001,1.88,2026-05-21 16:59:19.340,0,-1.0947959999999999,-0.815211,9.64323,1.2,0.4,-0.5
1.9000000000000001,1.9,2026-05-21 16:59:19.360,0,-1.116378,-0.7328070000000001,9.769779,1.4,0.6,-1.1
1.92,1.92,2026-05-21 16:59:19.380,0,-1.084005,-0.800496,9.709938,0.4,-0.5,-2.0
1.94,1.94,2026-05-21 16:59:19.400,0,-1.084005,-0.869166,9.713862,1.3,0.0,-2.5
1.96,1.96,2026-05-21 16:59:19.420,0,-1.0643850000000001,-0.763218,9.788418,1.4,0.0,-1.9
1.98,1.98,2026-05-21 16:59:19.440,0,-1.143846,-0.733788,9.786456000000001,0.9,-0.4,-1.8
2.0,2.0,2026-05-21 16:59:19.460,0,-1.1075490000000001,-0.7730279999999999,9.811962,-0.8,-1.2,-2.5
2.02,2.02,2026-05-21 16:59:19.480,0,-1.028088,-0.8112870000000001,9.767817,-1.8,-1.4,-1.9
2.04,2.04,2026-05-21 16:59:19.500,0,-1.001601,-0.816192,9.749177999999999,-2.3,-1.0,0.0
2.06,2.06,2026-05-21 16:59:19.520,0,-1.097739,-0.750465,9.772722000000002,-0.5,-1.1,-1.0
2.08,2.08,2026-05-21 16:59:19.540,0,-1.0781190000000003,-0.7239779999999999,9.840411000000001,-0.7,-0.8,-3.4
2.1,2.1,2026-05-21 16:59:19.560,0,-1.031031,-0.782838,9.74133,-1.1,-0.5,-3.5
2.12,2.12,2026-05-21 16:59:19.580,0,-1.0172970000000001,-0.868185,9.602028,-1.2,-1.1,-2.7
2.14,2.14,2026-05-21 16:59:19.600,0,-0.9810000000000001,-0.8112870000000001,9.602028,0.7,-0.8,-1.1
2.16,2.16,2026-05-21 16:59:19.620,0,-0.9810000000000001,-0.7789140000000001,9.738387000000001,1.3,-0.5,-1.6
2.18,2.18,2026-05-21 16:59:19.640,0,-0.977076,-0.7769520000000001,9.735444,1.2,0.4,-2.0
2.2,2.2,2026-05-21 16:59:19.660,0,-1.005525,-0.782838,9.746235,1.0,1.0,-1.3
2.22,2.22,2026-05-21 16:59:19.680,0,-1.065366,-0.746541,9.73152,1.0,-0.1,-0.4
2.24,2.24,2026-05-21 16:59:19.700,0,-1.050651,-0.763218,9.777627,1.4,-1.0,-1.4
2.2600000000000002,2.26,2026-05-21 16:59:19.720,0,-1.009449,-0.7848,9.880632000000002,0.1,-0.2,-2.4
2.2800000000000002,2.28,2026-05-21 16:59:19.740,0,-1.013373,-0.854451,9.764874,-0.3,0.6,-2.3
2.3000000000000003,2.3,2026-05-21 16:59:19.760,0,-1.04967,-0.8466030000000001,9.753102000000002,-0.2,0.9,-1.2
2.32,2.32,2026-05-21 16:59:19.780,0,-1.1418840000000001,-0.7494840000000002,9.848259,-1.9,-0.3,0.0
2.34,2.34,2026-05-21 16:59:19.800,0,-1.179162,-0.7406550000000001,9.803133,-3.2,-2.8,-2.1
2.36,2.36,2026-05-21 16:59:19.820,0,-1.031031,-0.7180920000000001,9.854145,-2.7,-3.0,-3.8
2.38,2.38,2026-05-21 16:59:19.840,0,-1.0231830000000002,-0.792648,9.688356,-3.1,0.0,-2.3
2.4,2.4,2026-05-21 16:59:19.860,0,-1.0987200000000001,-0.810306,9.655983,-1.4,1.2,-2.7
2.42,2.42,2026-05-21 16:59:19.880,0,-1.099701,-0.828945,9.571617,-1.1,0.4,-2.5
2.44,2.44,2026-05-21 16:59:19.900,0,-1.0859670000000001,-0.766161,9.595161000000001,0.9,0.0,-1.9
2.46,2.46,2026-05-21 16:59:19.920,0,-1.116378,-0.7524270000000001,9.697185000000001,0.5,-1.0,-2.1
2.48,2.48,2026-05-21 16:59:19.940,0,-1.0604609999999999,-0.7848,9.70209,0.7,-0.4,-2.4
2.5,2.5,2026-05-21 16:59:19.960,0,-1.0065060000000001,-0.803439,9.703071,0.1,0.2,-2.7
2.52,2.52,2026-05-21 16:59:19.980,0,-1.02024,-0.8014770000000001,9.73152,1.1,0.1,-1.4
2.54,2.54,2026-05-21 16:59:20.000,0,-0.999639,-0.7897050000000001,9.796266000000001,1.2,-0.3,-0.4
2.56,2.56,2026-05-21 16:59:20.020,0,-1.042803,-0.762237,9.822752999999999,1.0,0.0,-0.3
2.58,2.58,2026-05-21 16:59:20.040,0,-1.0535940000000001,-0.762237,9.802152000000001,-0.7,-0.3,-0.8
2.6,2.6,2026-05-21 16:59:20.060,0,-1.062423,-0.7651800000000001,9.84924,-0.5,0.1,-0.8
2.62,2.62,2026-05-21 16:59:20.080,0,-1.0947959999999999,-0.7686135,9.787437,-1.2999999999999998,-0.2,-2.15
2.64,2.64,2026-05-21 16:59:20.100,0,-1.004544,-0.817173,9.762912000000002,-1.4,-0.5,-2.5
2.66,2.66,2026-05-21 16:59:20.120,0,-1.075176,-0.8093250000000001,9.689337,-1.4,0.0,-0.9
2.68,2.68,2026-05-21 16:59:20.140,0,-1.143846,-0.849546,9.588294,-1.3,-0.8,-1.8
2.7,2.7,2026-05-21 16:59:20.160,0,-1.1134350000000002,-0.85347,9.656964,1.2,-0.1,-2.9
2.72,2.72,2026-05-21 16:59:20.180,0,-1.124226,-0.7671420000000001,9.827658000000001,0.9,0.7,-2.1
2.74,2.74,2026-05-21 16:59:20.200,0,-1.10534175,-0.7882334999999999,9.7761555,0.375,0.17500000000000004,-1.8
2.7600000000000002,2.76,2026-05-21 16:59:20.220,0,-1.0864575,-0.8093250000000001,9.724653,-0.14999999999999997,-0.35,-1.5
2.7800000000000002,2.78,2026-05-21 16:59:20.240,0,-1.161504,-0.7563509999999999,9.752121,1.7,-0.2,-2.3
2.8000000000000003,2.8,2026-05-21 16:59:20.260,0,-1.105587,-0.6867000000000001,9.925758,-0.6,-1.5,-3.2
2.82,2.82,2026-05-21 16:59:20.280,0,-1.031031,-0.7249590000000001,9.850221000000001,-2.6,-1.6,-2.8
2.84,2.84,2026-05-21 16:59:20.300,0,-1.028088,-0.8711280000000001,9.705033,-3.0,-1.1,-1.9
2.86,2.86,2026-05-21 16:59:20.320,0,-1.031031,-0.828945,9.710919,-2.4,-1.1,-1.3
2.88,2.88,2026-05-21 16:59:20.340,0,-1.024164,-0.736731,9.832563,-2.7,-2.0,-1.3
2.9,2.9,2026-05-21 16:59:20.360,0,-1.043784,-0.7249590000000001,9.822752999999999,-3.8,-2.3,-2.0
2.92,2.92,2026-05-21 16:59:20.380,0,-1.067328,-0.7612559999999999,9.729557999999999,-4.1,-1.7,-2.6
2.94,2.94,2026-05-21 16:59:20.400,0,-1.077138,-0.777933,9.566712,-3.3,-1.7,-1.1
2.96,2.96,2026-05-21 16:59:20.420,0,-1.135998,-0.86328,9.595161000000001,-2.2,-1.5,-0.8
2.98,2.98,2026-05-21 16:59:20.440,0,-1.119321,-0.8868240000000002,9.58437,-0.7,-1.1,-2.1
3.0,3.0,2026-05-21 16:59:20.460,0,-1.001601,-0.9035009999999999,9.599085,0.5,-0.4,-4.1
3.02,3.02,2026-05-21 16:59:20.480,0,-0.972171,-0.9368550000000001,9.687375000000001,1.4,0.4,-2.8
3.04,3.04,2026-05-21 16:59:20.500,0,-1.065366,-0.8652420000000001,9.706995000000001,1.2,-0.3,-0.2
3.06,3.06,2026-05-21 16:59:20.520,0,-1.0810620000000002,-0.7897050000000001,9.816867000000002,1.4,-1.8,-1.4
3.08,3.08,2026-05-21 16:59:20.540,0,-0.9908100000000001,-0.852489,9.850221000000001,0.5,-1.1,-3.3
3.1,3.1,2026-05-21 16:59:20.560,0,-0.95157,-0.8475840000000001,9.906138,-0.1,0.4,-3.0
3.12,3.12,2026-05-21 16:59:20.580,0,-0.968247,-0.893691,9.745254,-0.7,0.4,-2.2
3.14,3.14,2026-05-21 16:59:20.600,0,-1.01043,-0.9084059999999999,9.735444,-0.6,-0.7,-1.0
3.16,3.16,2026-05-21 16:59:20.620,0,-1.007487,-0.828945,9.799209000000001,-0.4,-1.3,-0.8
3.18,3.18,2026-05-21 16:59:20.640,0,-1.086948,-0.7651800000000001,9.843354000000001,-1.6,-0.7,-1.6
3.2,3.2,2026-05-21 16:59:20.660,0,-1.070271,-0.8112870000000001,9.713862,-2.2,-0.1,-2.4
3.22,3.22,2026-05-21 16:59:20.680,0,-1.0535940000000001,-0.859356,9.583389,-1.1,0.1,-1.8
3.24,3.24,2026-05-21 16:59:20.700,0,-1.092834,-0.821097,9.617723999999999,0.0,0.0,-1.0
3.2600000000000002,3.26,2026-05-21 16:59:20.720,0,-1.032993,-0.8220780000000001,9.646173,1.0,-0.6,-2.6
3.2800000000000002,3.28,2026-05-21 16:59:20.740,0,-1.041822,-0.763218,9.719748,1.5,0.5,-0.9
3.3000000000000003,3.3,2026-05-21 16:59:20.760,0,-1.091853,-0.74556,9.801171,0.0,-0.3,-0.7
3.3200000000000003,3.32,2026-05-21 16:59:20.780,0,-1.084005,-0.7848,9.709938,0.2,-1.2,-2.3
3.34,3.34,2026-05-21 16:59:20.800,0,-1.005525,-0.80442,9.79038,0.0,-0.1,-2.0
3.36,3.36,2026-05-21 16:59:20.820,0,-1.034955,-0.782838,9.769779,-0.1,0.1,-1.7
3.38,3.38,2026-05-21 16:59:20.840,0,-1.034955,-0.861318,9.697185000000001,-0.1,-0.3,-2.2
3.4,3.4,2026-05-21 16:59:20.860,0,-1.02024,-0.8475840000000001,9.715824,0.5,-0.1,-1.7
3.42,3.42,2026-05-21 16:59:20.880,0,-1.04967,-0.8416980000000001,9.770760000000001,0.1,-0.8,-1.7
3.44,3.44,2026-05-21 16:59:20.900,0,-1.0800809999999998,-0.849546,9.74133,0.5,-0.3,-1.4
3.46,3.46,2026-05-21 16:59:20.920,0,-1.0663470000000002,-0.812268,9.789399000000001,-0.1,0.0,-1.4
3.48,3.48,2026-05-21 16:59:20.940,0,-1.071252,-0.807363,9.712881,0.2,0.0,-0.9
3.5,3.5,2026-05-21 16:59:20.960,0,-1.10853,-0.775971,9.818829,0.0,0.0,0.0
3.52,3.52,2026-05-21 16:59:20.980,0,-1.06929,-0.8142300000000001,9.693261,-0.4,-1.0,-3.0
3.54,3.54,2026-05-21 16:59:21.000,0,-1.0879290000000001,-0.7543890000000001,9.737406,0.8,0.6,-2.7
3.56,3.56,2026-05-21 16:59:21.020,0,-1.067328,-0.7955909999999999,9.738387000000001,-0.8,0.0,-2.5
3.58,3.58,2026-05-21 16:59:21.040,0,-1.06929,-0.818154,9.685413,-0.5,-0.9,-2.5
3.6,3.6,2026-05-21 16:59:21.060,0,-1.001601,-0.821097,9.688356,-0.6,-0.9,-0.7
3.62,3.62,2026-05-21 16:59:21.080,0,-1.012392,-0.868185,9.700128,0.6,0.3,-1.4
3.64,3.64,2026-05-21 16:59:21.100,0,-1.03986,-0.820116,9.676584,0.8,0.8,-1.8
3.66,3.66,2026-05-21 16:59:21.120,0,-1.134036,-0.70632,9.82962,1.2,1.0,-0.4
3.68,3.68,2026-05-21 16:59:21.140,0,-1.173276,-0.6337259999999999,9.81,0.0,-0.7,-1.6
3.7,3.7,2026-05-21 16:59:21.160,0,-1.0172970000000001,-0.717111,9.786456000000001,-0.8,-2.0,-4.4
3.72,3.72,2026-05-21 16:59:21.180,0,-0.9662850000000001,-0.722997,9.919872000000002,-2.1,-0.9,-3.3
3.74,3.74,2026-05-21 16:59:21.200,0,-1.181124,-0.7200540000000001,9.873765,-4.0,-0.5,0.4
3.7600000000000002,3.76,2026-05-21 16:59:21.220,0,-1.168371,-0.722997,9.827658000000001,-4.1,-1.3,-1.8
3.7800000000000002,3.78,2026-05-21 16:59:21.240,0,-1.146789,-0.8063820000000002,9.762912000000002,-4.5,-0.9,-3.8
3.8000000000000003,3.8,2026-05-21 16:59:21.260,0,-1.0486890000000002,-0.9427409999999999,9.567693,-4.4,-1.3,-5.4
3.8200000000000003,3.82,2026-05-21 16:59:21.280,0,-0.996696,-1.038879,9.552978000000001,-1.9,-1.1,-4.3
3.84,3.84,2026-05-21 16:59:21.300,0,-0.987867,-0.962361,9.59418,0.0,0.1,-1.5
3.86,3.86,2026-05-21 16:59:21.320,0,-1.037898,-0.880938,9.629496000000001,0.9,-0.7,-1.9
3.88,3.88,2026-05-21 16:59:21.340,0,-0.9957150000000001,-0.893691,9.687375000000001,1.0,-1.1,-3.0
3.9,3.9,2026-05-21 16:59:21.360,0,-1.024164,-0.868185,9.697185000000001,0.8,-0.3,-1.7
3.92,3.92,2026-05-21 16:59:21.380,0,-1.077138,-0.793629,9.745254,1.6,-0.2,0.0
3.94,3.94,2026-05-21 16:59:21.400,0,-1.05948,-0.790686,9.843354000000001,0.3,-0.7,-0.9
3.96,3.96,2026-05-21 16:59:21.420,0,-1.037898,-0.858375,9.797247,1.0,0.4,-2.9
3.98,3.98,2026-05-21 16:59:21.440,0,-1.038879,-0.826983,9.85905,0.2,0.4,-3.0
4.0,4.0,2026-05-21 16:59:21.460,0,-1.0172970000000001,-0.9044820000000001,9.752121,-1.3,-0.8,-2.8
4.0200000000000005,4.02,2026-05-21 16:59:21.480,0,-0.9662850000000001,-0.915273,9.719748,-1.6,-1.4,-1.3
4.04,4.04,2026-05-21 16:59:21.500,0,-0.977076,-0.826002,9.730539,-0.7,-1.0,0.1
4.0600000000000005,4.06,2026-05-21 16:59:21.520,0,-1.041822,-0.7867620000000001,9.807057,-1.4,-0.9,-0.8
4.08,4.08,2026-05-21 16:59:21.540,0,-1.086948,-0.844641,9.676584,-0.5,0.1,-1.6
4.1,4.1,2026-05-21 16:59:21.560,0,-1.092834,-0.8573940000000001,9.586332,0.3,0.2,-1.6
4.12,4.12,2026-05-21 16:59:21.580,0,-1.072233,-0.8338500000000001,9.665793,1.5,-0.4,-1.5
4.14,4.14,2026-05-21 16:59:21.600,0,-1.101663,-0.701415,9.723672,1.2,-1.1,-0.6
4.16,4.16,2026-05-21 16:59:21.620,0,-1.1075490000000001,-0.7867620000000001,9.707976,0.8,-1.7,-1.3
4.18,4.18,2026-05-21 16:59:21.640,0,-1.10853,-0.8387550000000001,9.661869000000001,1.8,-0.9,-2.4
4.2,4.2,2026-05-21 16:59:21.660,0,-1.04967,-0.7710659999999999,9.83943,2.7,0.1,-2.1
4.22,4.22,2026-05-21 16:59:21.680,0,-1.022202,-0.7995150000000001,9.862974000000001,0.7,-1.1,-3.5
4.24,4.24,2026-05-21 16:59:21.700,0,-0.982962,-0.816192,9.801171,0.4,-0.1,-1.3
4.26,4.26,2026-05-21 16:59:21.720,0,-1.027107,-0.8642610000000001,9.763893,-0.7,0.1,-1.3
4.28,4.28,2026-05-21 16:59:21.740,0,-1.026126,-0.860337,9.688356,1.3,0.4,-0.9
4.3,4.3,2026-05-21 16:59:21.760,0,-1.067328,-0.760275,9.775665000000002,0.3,-0.1,-0.8
4.32,4.32,2026-05-21 16:59:21.780,0,-1.116378,-0.758313,9.742311,0.5,-0.5,-1.4
4.34,4.34,2026-05-21 16:59:21.800,0,-1.101663,-0.733788,9.802152000000001,0.0,-0.7,-2.3
4.36,4.36,2026-05-21 16:59:21.820,0,-1.076157,-0.7867620000000001,9.704052,-0.8,0.3,-1.2
4.38,4.38,2026-05-21 16:59:21.840,0,-1.126188,-0.8338500000000001,9.674622000000001,-0.3,0.4,-2.5
4.4,4.4,2026-05-21 16:59:21.860,0,-1.173276,-1.018278,9.646173,0.9,-0.2,-3.9
4.42,4.42,2026-05-21 16:59:21.880,0,-1.243908,-1.24587,9.663831,2.6,-0.7,-4.9
4.44,4.44,2026-05-21 16:59:21.900,0,-1.5931440000000003,-1.077138,10.185723000000001,4.6,0.6,-9.0
4.46,4.46,2026-05-21 16:59:21.920,0,-2.025765,-1.287072,10.562427,2.2,1.5,-16.4
4.48,4.48,2026-05-21 16:59:21.940,0,-2.059119,-1.9070640000000003,11.152008,-6.9,-7.0,-25.4
4.5,4.5,2026-05-21 16:59:21.960,0,-0.877995,-2.7026550000000005,11.808297000000001,-12.4,-25.7,-31.5
4.5200000000000005,4.52,2026-05-21 16:59:21.980,0,0.08338500000000001,-3.8308050000000002,11.315835,-19.1,-25.1,-25.8
4.54,4.54,2026-05-21 16:59:22.000,0,0.5969385,-4.435101,10.607062500000001,-16.6,2.45,-9.4
4.5600000000000005,4.56,2026-05-21 16:59:22.020,0,-0.826002,-3.8484630000000006,10.901853000000001,-21.2,0.7,11.6
4.58,4.58,2026-05-21 16:59:22.040,0,-0.947646,-3.7228950000000003,10.235754000000002,-15.0,0.7,12.4
4.6000000000000005,4.6,2026-05-21 16:59:22.060,0,-0.29626199999999997,-4.103523,9.687375000000001,7.1,19.5,-11.4
4.62,4.62,2026-05-21 16:59:22.080,0,0.483633,-4.328172,9.301842,29.0,51.5,-33.3
4.64,4.64,2026-05-21 16:59:22.100,0,-0.15990300000000002,-3.7287810000000006,10.045440000000001,26.1,63.3,-12.5
4.66,4.66,2026-05-21 16:59:22.120,0,-1.5588090000000001,-3.0940739999999995,9.817848,-1.5,38.3,30.6
4.68,4.68,2026-05-21 16:59:22.140,0,-1.7407845,-2.9062125,8.9638875,-18.549999999999997,22.0,40.349999999999994
4.7,4.7,2026-05-21 16:59:22.160,0,-1.9227600000000002,-2.718351,8.109927,-35.599999999999994,5.7,50.099999999999994
4.72,4.72,2026-05-21 16:59:22.180,0,-1.2939390000000002,-2.426013,6.866019,-33.9,11.5,12.3
4.74,4.74,2026-05-21 16:59:22.200,0,-0.349236,-1.606878,6.224445,-21.6,30.2,4.9
4.76,4.76,2026-05-21 16:59:22.220,0,-2.8027170000000003,-3.410937,3.562992,-52.5,28.4,2.9
4.78,4.78,2026-05-21 16:59:22.240,0,-1.9129500000000002,1.7883630000000004,10.111167,143.5,24.0,32.4
4.8,4.8,2026-05-21 16:59:22.260,0,-1.5823530000000001,0.8230590000000001,9.355797,-2.0,-30.1,28.4
4.82,4.82,2026-05-21 16:59:22.280,0,-0.583695,1.703997,8.635743,5.3,-51.6,26.1
4.84,4.84,2026-05-21 16:59:22.300,0,-0.051012,2.07972,8.185464000000001,29.1,-21.7,30.5
4.86,4.86,2026-05-21 16:59:22.320,0,-0.8995770000000001,2.7389520000000003,10.473156,59.1,23.8,29.8
4.88,4.88,2026-05-21 16:59:22.340,0,-2.139561,3.579669,11.014668,4.6,22.9,46.1
4.9,4.9,2026-05-21 16:59:22.360,0,-3.5276760000000005,3.578688,10.017972000000002,-5.6,-22.6,44.9
4.92,4.92,2026-05-21 16:59:22.380,0,-3.8582730000000005,3.2235660000000004,9.618705,6.5,-59.9,15.2
4.94,4.94,2026-05-21 16:59:22.400,0,-2.596707,2.33478,10.648755,20.6,-41.0,-25.7
4.96,4.96,2026-05-21 16:59:22.420,0,-0.826002,1.620612,10.26126,8.6,14.9,-37.1
4.98,4.98,2026-05-21 16:59:22.440,0,-0.9692280000000001,1.012392,9.895347000000003,6.1,38.4,-26.9
5.0,5.0,2026-05-21 16:59:22.460,0,-1.686339,1.164447,9.157635,23.4,44.4,-6.7
5.0200000000000005,5.02,2026-05-21 16:59:22.480,0,-2.044404,0.79461,9.580446,27.0,4.0,-14.5
5.04,5.04,2026-05-21 16:59:22.500,0,-1.352799,0.7082820000000001,9.58437,34.7,-30.0,-21.4
5.0600000000000005,5.06,2026-05-21 16:59:22.520,0,-0.874071,0.702396,9.857088,38.5,-25.4,-11.5
5.08,5.08,2026-05-21 16:59:22.540,0,-1.219383,0.7671420000000001,10.007181000000001,31.4,-4.1,-4.8
5.1000000000000005,5.1,2026-05-21 16:59:22.560,0,-1.3008060000000001,1.2556800000000001,10.023858,23.7,8.4,-1.0
5.12,5.12,2026-05-21 16:59:22.580,0,-1.46169,1.634346,9.777627,20.7,10.7,9.4
5.14,5.14,2026-05-21 16:59:22.600,0,-2.0463660000000004,2.032632,10.008162,29.9,12.3,9.7
5.16,5.16,2026-05-21 16:59:22.620,0,-1.733427,2.48193,10.482966000000001,23.6,11.4,-0.2
5.18,5.18,2026-05-21 16:59:22.640,0,-1.8432990000000002,2.4721200000000003,9.869841000000001,5.0,3.2,-1.2
5.2,5.2,2026-05-21 16:59:22.660,0,-1.407735,2.6643960000000004,9.700128,0.7,-9.7,0.2
5.22,5.22,2026-05-21 16:59:22.680,0,-1.2350790000000003,3.1107510000000005,9.909081,1.7,-13.4,6.7
5.24,5.24,2026-05-21 16:59:22.700,0,-1.2517559999999999,4.107447,10.289709000000002,-1.2,-12.4,10.8
5.26,5.26,2026-05-21 16:59:22.720,0,-1.694187,4.78728,10.317177000000001,-0.6,-13.2,8.3
5.28,5.28,2026-05-21 16:59:22.740,0,-1.9865250000000003,4.965822,10.484928,-8.9,-18.3,-1.7
5.3,5.3,2026-05-21 16:59:22.760,0,-1.978677,5.204205,10.591857000000001,-28.8,-20.0,-11.8
5.32,5.32,2026-05-21 16:59:22.780,0,-1.22625,5.459265,9.80019,-52.3,-12.8,-26.1
5.34,5.34,2026-05-21 16:59:22.800,0,-0.520911,5.4013860000000005,9.803133,-40.1,-0.4,-41.1
5.36,5.36,2026-05-21 16:59:22.820,0,-1.407735,4.5979470000000005,9.658926000000001,-47.5,10.2,-48.4
5.38,5.38,2026-05-21 16:59:22.840,0,-2.7634770000000004,4.044663,8.226666,-69.3,0.1,-44.3
5.4,5.4,2026-05-21 16:59:22.860,0,-2.1719340000000003,3.218661,7.012188,-74.8,-28.5,-47.5
5.42,5.42,2026-05-21 16:59:22.880,0,-1.0172970000000001,1.9816200000000002,7.5370230000000005,-44.3,-39.3,-60.2
5.44,5.44,2026-05-21 16:59:22.900,0,-0.692586,0.704358,8.323785,-46.3,-36.3,-59.0
5.46,5.46,2026-05-21 16:59:22.920,0,-0.38259000000000004,-0.7730279999999999,8.455239,-43.4,-37.4,-54.1
5.48,5.48,2026-05-21 16:59:22.940,0,1.082043,-2.447595,8.113851,-34.6,-37.0,-53.6
5.5,5.5,2026-05-21 16:59:22.960,0,1.189953,-3.936753,7.596864,-19.4,-29.8,-34.0
5.5200000000000005,5.52,2026-05-21 16:59:22.980,0,0.23347800000000002,-4.6107,8.476821000000001,-5.0,-24.5,-4.4
5.54,5.54,2026-05-21 16:59:23.000,0,0.5169870000000001,-4.994271,9.294975,-4.3,-25.4,-9.2
5.5600000000000005,5.56,2026-05-21 16:59:23.020,0,1.195839,-5.7447360000000005,9.222381,1.8,-13.4,-16.8
5.58,5.58,2026-05-21 16:59:23.040,0,1.093815,-5.860493999999999,8.937891,34.8,7.3,-10.3
5.6000000000000005,5.6,2026-05-21 16:59:23.060,0,0.9260640000000001,-5.020758000000001,9.550035000000001,64.3,30.3,2.0
5.62,5.62,2026-05-21 16:59:23.080,0,0.48559500000000005,-4.9383539999999995,10.130787,52.0,36.5,5.1
5.64,5.64,2026-05-21 16:59:23.100,0,-0.24623100000000003,-4.480227,8.958492000000001,51.1,32.7,5.2
5.66,5.66,2026-05-21 16:59:23.120,0,0.7328070000000001,-4.3105139999999995,10.517300999999998,43.8,17.3,13.5
5.68,5.68,2026-05-21 16:59:23.140,0,1.109511,-3.8180520000000002,10.946979000000002,45.6,10.0,29.5
5.7,5.7,2026-05-21 16:59:23.160,0,-0.0981,-2.9145510000000003,10.727235,20.7,12.4,44.9
5.72,5.72,2026-05-21 16:59:23.180,0,-1.3684950000000002,-2.3308560000000003,10.277937000000001,10.3,15.2,44.7
5.74,5.74,2026-05-21 16:59:23.200,0,-1.5980490000000003,-2.254338,9.720729,33.8,15.2,32.5
5.76,5.76,2026-05-21 16:59:23.220,0,-2.327913,-1.315521,10.394675999999999,33.8,18.8,26.6
5.78,5.78,2026-05-21 16:59:23.240,0,-2.9930310000000007,-0.858375,10.806696,27.2,12.7,19.6
5.8,5.8,2026-05-21 16:59:23.260,0,-2.292597,-0.9123300000000001,10.839069,5.7,-7.8,4.5
5.82,5.82,2026-05-21 16:59:23.280,0,-1.0947959999999999,-1.2517559999999999,10.594800000000001,-6.7,-21.7,-4.8
5.84,5.84,2026-05-21 16:59:23.300,0,-0.5277780000000001,-1.16739,10.041516000000001,5.8,-14.5,5.0
5.86,5.86,2026-05-21 16:59:23.320,0,-0.967266,-0.35316,10.605591,14.2,6.8,6.5
5.88,5.88,2026-05-21 16:59:23.340,0,-1.6186500000000001,0.3924,11.082357000000002,3.6,9.8,0.0
5.9,5.9,2026-05-21 16:59:23.360,0,-1.2497940000000003,0.257022,10.454517000000001,-13.3,-13.0,-1.0
5.92,5.92,2026-05-21 16:59:23.380,0,-0.321768,-0.12753,9.981675000000001,-14.0,-20.6,-0.2
5.94,5.94,2026-05-21 16:59:23.400,0,-0.056898,-0.18246600000000002,9.803133,-7.4,0.0,5.3
5.96,5.96,2026-05-21 16:59:23.420,0,-0.6101820000000001,0.16480800000000004,9.812943,-0.4,21.7,15.5
5.98,5.98,2026-05-21 16:59:23.440,0,-1.4852340000000002,0.587619,9.817848,-2.6,20.5,18.3
6.0,6.0,2026-05-21 16:59:23.460,0,-1.457766,0.473823,9.511776000000001,-10.0,-0.9,11.8
6.0200000000000005,6.02,2026-05-21 16:59:23.480,0,-1.273338,0.022563,9.362664,-8.6,-10.7,5.2
6.04,6.04,2026-05-21 16:59:23.500,0,-1.7834580000000002,-0.289395,9.041877000000001,2.3,8.6,-1.1
6.0600000000000005,6.06,2026-05-21 16:59:23.520,0,-2.264148,-0.5944860000000001,9.046782,10.3,22.3,-9.6
6.08,6.08,2026-05-21 16:59:23.540,0,-1.760895,-0.913311,9.220419,4.3,12.9,-19.0
6.1000000000000005,6.1,2026-05-21 16:59:23.560,0,-1.084005,-1.460709,9.243962999999999,-0.1,-2.8,-16.2
6.12,6.12,2026-05-21 16:59:23.580,0,-1.1781810000000001,-1.4999490000000002,9.498042000000002,2.9,-8.3,-5.7
6.140000000000001,6.14,2026-05-21 16:59:23.600,0,-2.002221,-1.392039,10.136673,16.4,3.8,-15.1
6.16,6.16,2026-05-21 16:59:23.620,0,-1.983582,-1.5578280000000002,10.951884000000002,10.4,17.5,-38.9
6.18,6.18,2026-05-21 16:59:23.640,0,-1.541151,-2.466234,10.548693,-17.3,0.2,-35.7
6.2,6.2,2026-05-21 16:59:23.660,0,-1.532322,-3.253977,9.303804000000001,-36.1,-33.5,-17.1
6.22,6.22,2026-05-21 16:59:23.680,0,-0.486576,-2.774268,9.187065,-15.4,-46.4,-22.6
6.24,6.24,2026-05-21 16:59:23.700,0,-0.317844,-2.220003,10.838088,19.7,-17.8,-41.8
6.26,6.26,2026-05-21 16:59:23.720,0,-0.614106,-1.9453230000000001,11.641527000000002,21.8,24.9,-50.7
6.28,6.28,2026-05-21 16:59:23.740,0,-0.7082820000000001,-1.9266840000000003,11.685672,14.3,37.5,-48.6
6.3,6.3,2026-05-21 16:59:23.760,0,-0.38553299999999996,-2.2224555,10.785114000000002,-25.2,6.65,-31.95
6.32,6.32,2026-05-21 16:59:23.780,0,0.0465975,-2.30902875,10.840540500000001,-22.799999999999997,-10.424999999999999,-31.125
6.34,6.34,2026-05-21 16:59:23.800,0,0.478728,-2.3956020000000002,10.895967,-20.4,-27.5,-30.3
6.36,6.36,2026-05-21 16:59:23.820,0,0.214839,-2.917494,10.364265,-16.7,2.2,-34.2
6.38,6.38,2026-05-21 16:59:23.840,0,-1.20663,-1.8521280000000002,10.282842,27.0,48.8,-36.7
6.4,6.4,2026-05-21 16:59:23.860,0,-2.1380895,-1.5249644999999998,10.0586835,-39.85,2.6000000000000014,-16.15
6.42,6.42,2026-05-21 16:59:23.880,0,-1.3812480000000003,-1.2233070000000001,7.178958000000001,-59.7,-91.5,-14.6
6.44,6.44,2026-05-21 16:59:23.900,0,0.668061,-1.5431130000000004,7.6361040000000004,12.5,-78.0,-45.8
6.46,6.46,2026-05-21 16:59:23.920,0,0.40221,0.059841,9.622629,30.0,-13.7,-55.2
6.48,6.48,2026-05-21 16:59:23.940,0,0.408096,0.074556,8.669097,-18.8,5.8,6.4
6.5,6.5,2026-05-21 16:59:23.960,0,1.574505,0.646479,7.657686000000001,-68.6,-61.9,71.5
6.5200000000000005,6.52,2026-05-21 16:59:23.980,0,1.75819725,2.40075225,7.795026,-7.399999999999999,-86.55,88.65
6.54,6.54,2026-05-21 16:59:24.000,0,1.9418895,4.1550255,7.932366,53.8,-111.2,105.8
6.5600000000000005,6.56,2026-05-21 16:59:24.020,0,1.08891,2.879235,10.463346,52.9,29.3,50.2
6.58,6.58,2026-05-21 16:59:24.040,0,-0.10692900000000001,4.3154189999999994,10.610496,42.3,95.9,40.3
6.6000000000000005,6.6,2026-05-21 16:59:24.060,0,-1.5637140000000003,4.670541,10.457460000000001,9.6,48.5,81.4
6.62,6.62,2026-05-21 16:59:24.080,0,-2.0041830000000003,4.4557020000000005,10.143540000000002,15.0,-26.8,72.1
6.640000000000001,6.64,2026-05-21 16:59:24.100,0,-0.762237,3.165687,10.544769000000002,4.4,-30.0,17.2
6.66,6.66,2026-05-21 16:59:24.120,0,0.646479,1.703997,10.387809000000003,5.6,19.8,-21.8
6.68,6.68,2026-05-21 16:59:24.140,0,0.5827140000000001,1.50093,9.519624,3.6,53.7,9.5
6.7,6.7,2026-05-21 16:59:24.160,0,-1.104606,1.825641,9.886518,15.3,37.1,30.8
6.72,6.72,2026-05-21 16:59:24.180,0,-1.132074,1.9943730000000002,10.396638,19.6,3.2,4.6
6.74,6.74,2026-05-21 16:59:24.200,0,-0.750465,1.606878,10.3569075,14.5,7.2250000000000005,2.0
6.76,6.76,2026-05-21 16:59:24.220,0,-0.368856,1.219383,10.317177,9.4,11.25,-0.6000000000000001
6.78,6.78,2026-05-21 16:59:24.240,0,-0.7651800000000001,0.9535320000000002,9.81,-0.4,15.4,10.0
6.8,6.8,2026-05-21 16:59:24.260,0,-0.762237,0.7612559999999999,10.161198,0.0,-9.2,5.4
6.82,6.82,2026-05-21 16:59:24.280,0,-0.446355,0.376704,10.196514000000002,-1.6,-14.0,5.3
6.84,6.84,2026-05-21 16:59:24.300,0,-0.653346,0.17756100000000002,9.699147,1.8,7.9,7.3
6.86,6.86,2026-05-21 16:59:24.320,0,-0.7710659999999999,0.18246600000000002,9.666774,6.3,23.1,3.5
6.88,6.88,2026-05-21 16:59:24.340,0,-1.032993,0.142245,9.801171,2.1,14.1,0.9
6.9,6.9,2026-05-21 16:59:24.360,0,-0.409077,0.034335000000000004,10.017972000000002,3.7,0.7,-5.7
6.92,6.92,2026-05-21 16:59:24.380,0,-0.25800300000000004,-0.016677,9.746235,0.9,1.8,-3.1
6.94,6.94,2026-05-21 16:59:24.400,0,-0.815211,0.183447,9.511776000000001,-0.6,11.0,12.1
6.96,6.96,2026-05-21 16:59:24.420,0,-1.204668,0.59841,9.363645,0.6,1.1,11.5
6.98,6.98,2026-05-21 16:59:24.440,0,-1.093815,1.0231830000000002,9.58437,3.5,-11.8,5.6
7.0,7.0,2026-05-21 16:59:24.460,0,-0.852489,1.753047,10.347588,5.3,-6.0,3.1
7.0200000000000005,7.02,2026-05-21 16:59:24.480,0,-0.844641,2.270034,10.66347,-5.7,-0.5,2.0
7.04,7.04,2026-05-21 16:59:24.500,0,-0.968247,2.7222750000000002,10.132749000000002,-13.7,-8.5,9.9
7.0600000000000005,7.06,2026-05-21 16:59:24.520,0,-1.119321,3.539448,10.143540000000002,-11.0,-17.6,14.3
7.08,7.08,2026-05-21 16:59:24.540,0,-0.9084059999999999,4.377222,10.462365,-14.5,-23.8,12.5
7.1000000000000005,7.1,2026-05-21 16:59:24.560,0,-1.018278,4.238901,10.540845000000001,-25.3,-31.5,6.5
7.12,7.12,2026-05-21 16:59:24.580,0,-1.1889720000000001,4.075074,10.787075999999999,-43.6,-34.3,3.0
7.140000000000001,7.14,2026-05-21 16:59:24.600,0,-1.058499,4.0387770000000005,9.964017,-65.7,-26.9,-4.1
7.16,7.16,2026-05-21 16:59:24.620,0,-0.19423800000000002,3.986784,9.213552,-58.9,-12.6,-17.0
7.18,7.18,2026-05-21 16:59:24.640,0,0.5738850000000001,3.3550200000000006,9.805095000000001,-28.0,0.1,-33.0
7.2,7.2,2026-05-21 16:59:24.660,0,0.121644,2.606517,10.571256,-47.1,-3.0,-24.0
7.22,7.22,2026-05-21 16:59:24.680,0,0.344331,1.587258,8.696565,-71.9,-12.7,-16.3
7.24,7.24,2026-05-21 16:59:24.700,0,1.126188,0.583695,7.717527000000001,-50.3,-0.1,-36.3
7.26,7.26,2026-05-21 16:59:24.720,0,0.9957150000000001,-0.366894,7.593921000000001,-13.2,28.9,-50.2
7.28,7.28,2026-05-21 16:59:24.740,0,0.426735,-1.570581,8.396379,4.2,29.7,-43.6
7.3,7.3,2026-05-21 16:59:24.760,0,0.447336,-1.776591,8.079516,6.3,22.1,-32.5
7.32,7.32,2026-05-21 16:59:24.780,0,-0.051993000000000004,-1.6853580000000001,8.487612,25.2,40.5,-25.6
7.34,7.34,2026-05-21 16:59:24.800,0,-2.0041830000000003,-1.7432370000000001,10.420182,27.0,43.8,-6.8
7.36,7.36,2026-05-21 16:59:24.820,0,-1.273338,-2.7046170000000003,10.803753,-25.1,-13.0,-8.9
7.38,7.38,2026-05-21 16:59:24.840,0,1.1850479999999999,-4.388013000000001,8.912385,-33.5,-33.9,-33.8
7.4,7.4,2026-05-21 16:59:24.860,0,1.654947,-4.868703,8.698527,2.9,8.1,-19.1
7.42,7.42,2026-05-21 16:59:24.880,0,0.17952300000000002,-5.4779040000000006,10.448631,2.8,28.3,14.4
7.44,7.44,2026-05-21 16:59:24.900,0,1.446975,-5.746698,9.577503,-4.6,-5.8,2.9
7.46,7.46,2026-05-21 16:59:24.920,0,2.3181030000000002,-5.7015720000000005,9.995409,21.0,-10.0,15.4
7.48,7.48,2026-05-21 16:59:24.940,0,1.41264,-5.131611,10.078794000000002,23.5,29.6,34.0
7.5,7.5,2026-05-21 16:59:24.960,0,-0.24230700000000002,-4.935411,9.95715,30.9,57.8,52.5
7.5200000000000005,7.52,2026-05-21 16:59:24.980,0,-0.782838,-4.3870320000000005,9.400923,14.4,28.4,52.1
7.54,7.54,2026-05-21 16:59:25.000,0,-1.140903,-3.9730500000000006,9.704052,24.4,4.9,44.9
7.5600000000000005,7.56,2026-05-21 16:59:25.020,0,-1.8707669999999998,-3.2863500000000005,10.159236,12.2,21.4,28.2
7.58,7.58,2026-05-21 16:59:25.040,0,-2.1758580000000003,-3.0577769999999997,9.98658,13.5,30.5,20.7
7.6000000000000005,7.6,2026-05-21 16:59:25.060,0,-2.790945,-2.691864,9.448992,6.2,16.9,22.2
7.62,7.62,2026-05-21 16:59:25.080,0,-3.1823639999999997,-2.2965210000000003,8.738748,1.8,-16.6,29.5
7.640000000000001,7.64,2026-05-21 16:59:25.100,0,-3.1421430000000004,-1.5342840000000002,9.179217000000001,17.9,-18.1,13.0
7.66,7.66,2026-05-21 16:59:25.120,0,-2.252376,-1.043784,9.663831,23.7,3.9,-17.5
7.68,7.68,2026-05-21 16:59:25.140,0,-1.6127640000000003,-0.641574,10.015029,18.0,1.1,-21.8
7.7,7.7,2026-05-21 16:59:25.160,0,-1.408716,-0.517968,10.269108,8.2,-15.3,-3.1
7.72,7.72,2026-05-21 16:59:25.180,0,-1.455804,-0.318825,10.356417000000002,0.2,-10.2,0.0
7.74,7.74,2026-05-21 16:59:25.200,0,-1.311597,-0.31686299999999995,10.1043,1.4,2.0,-9.3
7.76,7.76,2026-05-21 16:59:25.220,0,-0.929988,-0.468918,10.082718000000002,3.9,3.4,-13.6
7.78,7.78,2026-05-21 16:59:25.240,0,-0.597429,-0.357084,10.067022,1.5,4.8,-9.0
7.8,7.8,2026-05-21 16:59:25.260,0,-0.6337259999999999,-0.30509100000000006,10.11411,-2.8,0.3,1.0
7.82,7.82,2026-05-21 16:59:25.280,0,-0.7730279999999999,-0.429678,9.807057,-4.2,1.4,0.4
7.84,7.84,2026-05-21 16:59:25.300,0,-0.893691,-0.38749500000000003,9.498042000000002,0.2,10.2,-3.6
7.86,7.86,2026-05-21 16:59:25.320,0,-1.047708,-0.394362,9.541206,0.3,7.3,-5.4
7.88,7.88,2026-05-21 16:59:25.340,0,-1.0947959999999999,-0.413982,9.64323,-2.5,-1.6,-1.0
7.9,7.9,2026-05-21 16:59:25.360,0,-1.041822,-0.532683,9.547092000000001,-3.0,-4.0,1.3
7.92,7.92,2026-05-21 16:59:25.380,0,-0.7180920000000001,-0.6278400000000001,9.536301000000002,-1.5,0.1,-3.7
7.94,7.94,2026-05-21 16:59:25.400,0,-0.6425550000000001,-0.6847380000000001,9.689337,3.8,0.3,-3.5
7.96,7.96,2026-05-21 16:59:25.420,0,-0.75537,-0.513063,10.039554,1.9,-0.5,1.7
7.98,7.98,2026-05-21 16:59:25.440,0,-1.2350790000000003,-0.6494220000000002,9.699147,-2.3,0.0,2.7
8.0,8.0,2026-05-21 16:59:25.460,0,-1.183086,-0.9702090000000001,9.254754,0.1,-2.0,-3.2
8.02,8.02,2026-05-21 16:59:25.480,0,-1.199763,-0.8917290000000001,9.518642999999999,4.8,-2.0,-2.2
8.040000000000001,8.04,2026-05-21 16:59:25.500,0,-1.452861,-0.730845,9.585351000000001,7.6,5.7,-4.6
8.06,8.06,2026-05-21 16:59:25.520,0,-1.4508990000000002,-0.604296,9.585351000000001,7.1,3.9,-5.9
8.08,8.08,2026-05-21 16:59:25.540,0,-1.427355,-0.468918,9.756045,5.1,-7.2,-0.5
8.1,8.1,2026-05-21 16:59:25.560,0,-1.4744430000000002,-0.7524270000000001,10.070946,4.1,-6.3,-7.7
8.120000000000001,8.12,2026-05-21 16:59:25.580,0,-1.409697,-1.0732140000000001,9.899271000000002,4.9,8.4,-15.3
8.14,8.14,2026-05-21 16:59:25.600,0,-1.40283,-1.587258,9.568674,3.5,9.2,-16.0
8.16,8.16,2026-05-21 16:59:25.620,0,-1.0060155000000002,-2.1331845,9.848259,4.85,-4.3,-18.3
8.18,8.18,2026-05-21 16:59:25.640,0,-1.01043,-2.1366180000000004,10.517300999999998,22.9,21.3,-37.7
8.2,8.2,2026-05-21 16:59:25.660,0,-0.9564750000000001,-1.789344,11.235393,23.2,51.2,-42.3
8.22,8.22,2026-05-21 16:59:25.680,0,-1.130112,-1.829565,11.498301,8.0,47.5,-28.5
8.24,8.24,2026-05-21 16:59:25.700,0,-1.045746,-2.498607,10.706634000000003,-32.2,-4.4,4.0
8.26,8.26,2026-05-21 16:59:25.720,0,-0.49050000000000005,-2.660472,10.499643,-38.6,-46.2,16.3
8.28,8.28,2026-05-21 16:59:25.740,0,-0.991791,-2.692845,10.728216,-25.8,-26.9,6.7
8.3,8.3,2026-05-21 16:59:25.760,0,-1.264509,-3.307932,10.274994000000001,-2.5,32.5,-20.3
8.32,8.32,2026-05-21 16:59:25.780,0,-1.082043,-3.6679589999999997,10.499643,2.4,67.5,-36.4
8.34,8.34,2026-05-21 16:59:25.800,0,-1.310616,-3.6816930000000005,9.664812000000001,-30.0,29.5,0.3
8.36,8.36,2026-05-21 16:59:25.820,0,-1.8737100000000002,-3.621852,8.440524,-40.1,-38.7,39.5
8.38,8.38,2026-05-21 16:59:25.840,0,-2.320065,-3.8759310000000005,8.060877000000001,-7.5,-45.0,17.9
8.4,8.4,2026-05-21 16:59:25.860,0,-2.4417090000000004,-4.284027,7.905879,35.2,21.8,-37.0
8.42,8.42,2026-05-21 16:59:25.880,0,-2.6271180000000003,-3.253977,9.32931,45.7,66.0,-51.8
8.44,8.44,2026-05-21 16:59:25.900,0,-1.6255169999999999,-2.9930310000000007,9.827658000000001,-18.3,-10.7,-2.9
8.46,8.46,2026-05-21 16:59:25.920,0,-0.293319,-3.44331,8.72109,-61.0,-121.0,38.8
8.48,8.48,2026-05-21 16:59:25.940,0,0.5160060000000001,-3.14901,8.793684,-47.6,-123.6,29.3
8.5,8.5,2026-05-21 16:59:25.960,0,0.7190730000000001,-2.059119,8.522928,8.9,-20.2,-3.0
8.52,8.52,2026-05-21 16:59:25.980,0,-1.347894,-0.469899,9.248868,56.0,95.6,-9.7
8.540000000000001,8.54,2026-05-21 16:59:26.000,0,-1.24587,1.097739,7.528194,67.4,115.4,-0.5
8.56,8.56,2026-05-21 16:59:26.020,0,-1.9884870000000001,4.9795560000000005,9.215514,71.6,81.7,-16.4
8.58,8.58,2026-05-21 16:59:26.040,0,0.38259000000000004,6.237197999999999,11.333493,171.0,79.2,-13.8
8.6,8.6,2026-05-21 16:59:26.060,0,-0.950589,4.62051,9.547092000000001,4.0,36.5,20.8
8.620000000000001,8.62,2026-05-21 16:59:26.080,0,-2.304369,4.477284,8.250210000000001,-22.7,-57.8,81.2
8.64,8.64,2026-05-21 16:59:26.100,0,-3.145086,4.784337,7.765596,-18.1,-122.6,73.0
8.66,8.66,2026-05-21 16:59:26.120,0,-1.455804,4.517505000000001,9.633420000000001,19.9,-74.3,14.8
8.68,8.68,2026-05-21 16:59:26.140,0,-0.9859050000000001,4.229091,10.1754225,20.349999999999998,-15.899999999999999,-7.324999999999999
8.700000000000001,8.7,2026-05-21 16:59:26.160,0,-0.5160060000000001,3.940677000000001,10.717425,20.799999999999997,42.5,-29.450000000000003
8.72,8.72,2026-05-21 16:59:26.180,0,-0.7671420000000001,3.121542,8.817228,-19.1,-35.8,48.2
8.74,8.74,2026-05-21 16:59:26.200,0,-2.220003,3.7572300000000003,9.81,8.6,-82.1,52.3
8.76,8.76,2026-05-21 16:59:26.220,0,-2.814489,3.1617630000000005,10.550654999999999,21.1,-37.7,9.0
8.78,8.78,2026-05-21 16:59:26.240,0,-2.018898,2.581011,10.542807,15.5,31.6,-25.9
8.8,8.8,2026-05-21 16:59:26.260,0,-0.9908100000000001,1.6775100000000003,9.841392,14.3,22.7,-13.7
8.82,8.82,2026-05-21 16:59:26.280,0,-0.52974,1.330236,10.143540000000002,4.6,-28.1,1.1
8.84,8.84,2026-05-21 16:59:26.300,0,-0.9064440000000001,1.3223880000000001,10.047402,1.8,-37.6,11.9
8.86,8.86,2026-05-21 16:59:26.320,0,-0.859356,1.15758,10.274013,2.8,-11.1,-7.8
8.88,8.88,2026-05-21 16:59:26.340,0,-0.29135700000000003,1.004544,10.627172999999999,-1.6,-1.4,-12.2
8.9,8.9,2026-05-21 16:59:26.360,0,0.104967,0.622935,10.645812,-11.2,-5.8,3.7
8.92,8.92,2026-05-21 16:59:26.380,0,-0.84366,0.38357100000000005,9.47646,-16.5,-18.0,19.4
8.94,8.94,2026-05-21 16:59:26.400,0,-1.224288,0.47088,9.225324,-2.2,-2.9,7.6
8.96,8.96,2026-05-21 16:59:26.420,0,-1.4165640000000002,0.5886,9.725634,7.5,23.1,-10.7
8.98,8.98,2026-05-21 16:59:26.440,0,-0.630783,0.38651399999999997,9.905157,3.4,15.2,-13.4
9.0,9.0,2026-05-21 16:59:26.460,0,-0.28547100000000003,0.436545,9.900252000000002,-6.1,-12.3,4.2
9.02,9.02,2026-05-21 16:59:26.480,0,-0.702396,0.6817950000000002,9.864936,-2.6,-16.5,18.9
9.040000000000001,9.04,2026-05-21 16:59:26.500,0,-1.172295,0.9849240000000001,9.963036,-0.2,8.1,3.2
9.06,9.06,2026-05-21 16:59:26.520,0,-1.104606,1.3027680000000001,9.876707999999999,1.2,23.5,-6.1
9.08,9.08,2026-05-21 16:59:26.540,0,-0.793629,1.6255169999999999,10.197495000000002,-5.8,4.0,-1.3
9.1,9.1,2026-05-21 16:59:26.560,0,-0.876033,1.9698480000000003,10.213191,-13.3,-19.3,6.2
9.120000000000001,9.12,2026-05-21 16:59:26.580,0,-1.0879290000000001,2.4348419999999997,10.234772999999999,-11.2,-13.1,3.8
9.14,9.14,2026-05-21 16:59:26.600,0,-1.151694,3.2883120000000003,10.046421,-8.8,7.8,-6.6
9.16,9.16,2026-05-21 16:59:26.620,0,-1.2684330000000001,4.207509,10.252431,-9.9,12.3,-7.3
9.18,9.18,2026-05-21 16:59:26.640,0,-1.7432370000000001,4.467474,10.217115000000002,-26.0,-7.7,-4.9
9.200000000000001,9.2,2026-05-21 16:59:26.660,0,-2.362248,4.380165,9.893385,-39.3,-35.2,-5.6
9.22,9.22,2026-05-21 16:59:26.680,0,-1.1870100000000001,4.1888700000000005,9.30969,-50.1,-46.9,-21.5
9.24,9.24,2026-05-21 16:59:26.700,0,0.26487,4.249692,9.225324,-37.0,-30.0,-34.4
9.26,9.26,2026-05-21 16:59:26.720,0,0.8819190000000001,3.785679,9.979712999999999,-26.9,-3.0,-37.9
9.28,9.28,2026-05-21 16:59:26.740,0,0.21189600000000003,3.2628060000000003,9.823734000000002,-30.0,18.8,-25.4
9.3,9.3,2026-05-21 16:59:26.760,0,-0.6445170000000001,3.1892310000000004,8.666154,-38.8,20.8,-12.8
9.32,9.32,2026-05-21 16:59:26.780,0,0.5925239999999999,2.323989,8.037333,-28.5,9.5,-28.8
9.34,9.34,2026-05-21 16:59:26.800,0,0.583695,1.690263,7.516422,-11.9,4.9,-46.2
9.36,9.36,2026-05-21 16:59:26.820,0,-1.038879,1.4381460000000001,8.717166,3.8,18.0,-29.2
9.38,9.38,2026-05-21 16:59:26.840,0,-1.310616,0.758313,8.401284,-23.2,13.8,-32.3
9.4,9.4,2026-05-21 16:59:26.860,0,-0.272718,-0.19325699999999998,8.294355000000001,-30.7,-10.9,-41.3
9.42,9.42,2026-05-21 16:59:26.880,0,-0.222687,-0.7004340000000001,9.314595,-24.5,-26.8,-19.3
9.44,9.44,2026-05-21 16:59:26.900,0,-0.9142920000000001,-1.770705,10.298537999999999,-38.0,-18.0,-10.1
9.46,9.46,2026-05-21 16:59:26.920,0,0.154017,-3.169611,9.318519,-39.0,-9.8,-22.9
9.48,9.48,2026-05-21 16:59:26.940,0,0.361008,-4.694085,9.009504,-40.8,-25.6,-8.3
9.5,9.5,2026-05-21 16:59:26.960,0,-0.154017,-5.282685,9.399942000000001,-41.0,-40.8,26.8
9.52,9.52,2026-05-21 16:59:26.980,0,-0.250155,-5.784957,9.441144,-31.2,-30.7,26.4
9.540000000000001,9.54,2026-05-21 16:59:27.000,0,0.047088,-5.959575000000001,8.857448999999999,-22.3,-13.7,16.4
9.56,9.56,2026-05-21 16:59:27.020,0,0.289395,-6.194034,8.942796000000001,-1.1,19.7,8.8
9.58,9.58,2026-05-21 16:59:27.040,0,0.051993000000000004,-6.254856000000001,8.591598,15.1,29.9,18.4
9.6,9.6,2026-05-21 16:59:27.060,0,-0.145188,-5.931126000000001,8.661249,35.0,21.2,26.7
9.620000000000001,9.62,2026-05-21 16:59:27.080,0,-0.551322,-5.304267000000001,9.761931,57.5,28.5,35.0
9.64,9.64,2026-05-21 16:59:27.100,0,-1.407735,-4.259502,10.968561,38.2,44.8,19.4
9.66,9.66,2026-05-21 16:59:27.120,0,-2.6025930000000006,-3.7572300000000003,10.358379000000001,19.4,46.1,-0.7
9.68,9.68,2026-05-21 16:59:27.140,0,-2.642814,-3.3324570000000002,9.98658,16.1,21.4,-6.9
9.700000000000001,9.7,2026-05-21 16:59:27.160,0,-1.9776960000000001,-2.9547719999999997,10.165122,15.0,-3.3,-9.4
9.72,9.72,2026-05-21 16:59:27.180,0,-0.983943,-2.496645,10.995048,2.7,-13.5,-7.9
9.74,9.74,2026-05-21 16:59:27.200,0,-0.016677,-2.3956020000000002,10.997010000000001,-12.8,-24.8,-8.5
9.76,9.76,2026-05-21 16:59:27.220,0,0.250155,-2.286711,10.579104000000001,-11.2,-18.0,2.2
9.78,9.78,2026-05-21 16:59:27.240,0,-0.139302,-1.9433610000000001,9.873765,-3.0,9.5,6.7
9.8,9.8,2026-05-21 16:59:27.260,0,-0.868185,-1.234098,9.48627,8.4,25.7,3.3
9.82,9.82,2026-05-21 16:59:27.280,0,-1.212516,-0.446355,10.111167,5.8,9.3,9.4
9.84,9.84,2026-05-21 16:59:27.300,0,-1.4489370000000001,-0.165789,10.217115000000002,-5.4,-4.5,14.7
9.86,9.86,2026-05-21 16:59:27.320,0,-1.364571,-0.33354000000000006,9.568674,-8.0,3.2,5.8
9.88,9.88,2026-05-21 16:59:27.340,0,-1.179162,-0.615087,9.367569,-5.7,5.6,-2.5
9.9,12.78,2026-05-21 16:59:30.240,1,-1.1247865714285714,-0.666399306122449,9.733722244897958,1.7979591836734692,0.5326530612244897,-1.6346938775510202
9.92,12.8,2026-05-21 16:59:30.260,1,-1.1808960909090909,-0.5734291818181818,9.73478009090909,-0.4484848484848485,-0.48686868686868684,-2.291919191919192
9.94,12.82,2026-05-21 16:59:30.280,1,-1.3037490000000003,-0.491481,9.876707999999999,-1.6,-4.0,-2.0
9.96,12.84,2026-05-21 16:59:30.300,1,-1.2753,-0.563094,9.763893,-2.2,-2.8,-2.5
9.98,12.86,2026-05-21 16:59:30.320,1,-1.234098,-0.669042,9.677565000000001,-1.5,-1.3,-3.5
10.0,12.88,2026-05-21 16:59:30.340,1,-1.1183400000000001,-0.599391,9.646173,0.9,1.0,-2.5
10.02,12.9,2026-05-21 16:59:30.360,1,-1.222326,-0.57879,9.688356,1.7,-1.2,-1.1
10.040000000000001,12.92,2026-05-21 16:59:30.380,1,-1.1850479999999999,-0.565056,9.79038,1.5,-2.0,-1.6
10.06,12.94,2026-05-21 16:59:30.400,1,-1.105587,-0.565056,9.852183,0.5,-0.6,-3.2
10.08,12.96,2026-05-21 16:59:30.420,1,-1.114416,-0.664137,9.688356,-1.4,-1.3,-2.9
10.1,12.98,2026-05-21 16:59:30.440,1,-0.8995770000000001,-0.7445790000000001,9.616743,-0.1,-0.7,-1.1
10.120000000000001,13.0,2026-05-21 16:59:30.460,1,-1.05948,-0.669042,9.676584,1.0,0.7,3.2
10.14,13.02,2026-05-21 16:59:30.480,1,-1.170333,-0.5709420000000001,9.524529000000001,2.8,2.1,0.8
10.16,13.04,2026-05-21 16:59:30.500,1,-1.411659,-0.344331,9.985599,3.8,0.9,0.7
10.18,13.06,2026-05-21 16:59:30.520,1,-1.4852340000000002,-0.3747420000000001,9.875727000000001,0.4,0.2,-2.1
10.200000000000001,13.08,2026-05-21 16:59:30.540,1,-1.2684330000000001,-0.483633,9.751140000000001,0.0,-0.4,-5.0
10.22,13.1,2026-05-21 16:59:30.560,1,-1.170333,-0.537588,9.783513000000001,-1.0,-1.5,-0.2
10.24,13.12,2026-05-21 16:59:30.580,1,-1.1418840000000001,-0.560151,9.586332,0.3,0.9,-1.9
10.26,13.14,2026-05-21 16:59:30.600,1,-1.13796,-0.537588,9.654021,1.2,-0.1,-3.5
10.28,13.16,2026-05-21 16:59:30.620,1,-1.146789,-0.5954670000000001,9.700128,0.3,-1.5,-2.6
10.3,13.18,2026-05-21 16:59:30.640,1,-1.0947959999999999,-0.576828,9.781551,1.6,0.9,-1.2
10.32,13.2,2026-05-21 16:59:30.660,1,-1.1850479999999999,-0.468918,9.969903,1.6,2.0,1.0
10.34,13.22,2026-05-21 16:59:30.680,1,-1.26549,-0.506196,9.734463,-1.8,0.8,-0.5
10.36,13.24,2026-05-21 16:59:30.700,1,-1.1870100000000001,-0.535626,9.669717,0.2,-1.0,-0.6
10.38,13.26,2026-05-21 16:59:30.720,1,-1.286091,-0.502272,9.789399000000001,0.5,0.0,0.3
10.4,13.28,2026-05-21 16:59:30.740,1,-1.229193,-0.502272,9.828639,0.8,1.5,-2.9
10.42,13.3,2026-05-21 16:59:30.760,1,-1.234098,-0.535626,9.840411000000001,-0.8,-1.3,-2.8
10.44,13.32,2026-05-21 16:59:30.780,1,-1.143846,-0.621954,9.475479,-1.6,-0.4,-1.3
10.46,13.34,2026-05-21 16:59:30.800,1,-1.19682,-0.436545,9.772722000000002,2.1,1.1,1.9
10.48,13.36,2026-05-21 16:59:30.820,1,-1.390077,-0.394362,9.866898,1.1,1.0,0.7
10.5,13.38,2026-05-21 16:59:30.840,1,-1.357704,-0.502272,9.736425,-0.1,1.0,-3.5
10.52,13.4,2026-05-21 16:59:30.860,1,-1.3498560000000002,-0.4679370000000001,9.752121,-1.3,-2.2,-2.1
10.540000000000001,13.42,2026-05-21 16:59:30.880,1,-1.227231,-0.49050000000000005,9.729557999999999,-2.0,-2.3,-3.8
10.56,13.44,2026-05-21 16:59:30.900,1,-0.9937530000000001,-0.643536,9.599085,0.3,0.2,-4.5
10.58,13.46,2026-05-21 16:59:30.920,1,-1.0643850000000001,-0.501291,9.910062,1.0,1.4,2.8
10.6,13.48,2026-05-21 16:59:30.940,1,-1.3841910000000002,-0.3747420000000001,9.915948,-1.7,1.6,1.2
10.620000000000001,13.5,2026-05-21 16:59:30.960,1,-1.341027,-0.473823,9.680508,-3.5,-0.4,-3.2
10.64,13.52,2026-05-21 16:59:30.980,1,-1.239003,-0.534645,9.58437,-2.6,-2.1,-4.5
10.66,13.54,2026-05-21 16:59:31.000,1,-1.139922,-0.567999,9.689337,-1.3,-2.8,-2.0
10.68,13.56,2026-05-21 16:59:31.020,1,-1.1870100000000001,-0.5954670000000001,9.589275,0.0,0.5,-1.5
10.700000000000001,13.58,2026-05-21 16:59:31.040,1,-1.2968819999999999,-0.45420299999999997,9.699147,1.8,1.6,-0.9
10.72,13.6,2026-05-21 16:59:31.060,1,-1.4136210000000002,-0.35021700000000006,9.82962,0.7,-0.6,0.1
10.74,13.62,2026-05-21 16:59:31.080,1,-1.40283,-0.496386,9.712881,-0.4,-2.3,-3.2
10.76,13.64,2026-05-21 16:59:31.100,1,-1.222326,-0.611163,9.698166,0.4,-1.9,-5.2
10.78,13.66,2026-05-21 16:59:31.120,1,-1.1134350000000002,-0.5817330000000001,9.834525,1.3,0.1,-3.3
10.8,13.68,2026-05-21 16:59:31.140,1,-1.143846,-0.49736700000000006,9.823734000000002,0.0,0.9,0.0
10.82,13.7,2026-05-21 16:59:31.160,1,-1.2399840000000002,-0.5160060000000001,9.705033,-0.3,0.3,-1.0
10.84,13.72,2026-05-21 16:59:31.180,1,-1.194858,-0.5263065,9.7741935,-0.05,-1.15,-2.5
10.86,13.74,2026-05-21 16:59:31.200,1,-1.1786715,-0.5020267500000001,9.76070475,0.12499999999999999,-0.42499999999999993,-1.85
10.88,13.76,2026-05-21 16:59:31.220,1,-1.162485,-0.47774700000000003,9.747216000000002,0.3,0.3,-1.2
10.9,13.78,2026-05-21 16:59:31.240,1,-1.3194450000000002,-0.46107000000000004,9.647154,-0.85,0.0,-1.3
10.92,13.8,2026-05-21 16:59:31.260,1,-1.194858,-0.506196,9.751140000000001,1.0,-1.1,-0.9
10.94,13.82,2026-05-21 16:59:31.280,1,-1.3027680000000001,-0.43164,9.854145,0.4,-1.1,-1.5
10.96,13.84,2026-05-21 16:59:31.300,1,-1.19682,-0.478728,9.723672,-0.8,-0.7,-4.4
10.98,13.86,2026-05-21 16:59:31.320,1,-1.184067,-0.478728,9.764874,0.6,0.4,0.3
11.0,13.88,2026-05-21 16:59:31.340,1,-1.277262,-0.499329,9.706995000000001,0.0,0.9,-0.6
11.02,13.9,2026-05-21 16:59:31.360,1,-1.3223880000000001,-0.5277780000000001,9.656964,0.1,1.7,-1.7
11.040000000000001,13.92,2026-05-21 16:59:31.380,1,-1.271376,-0.45910799999999996,9.740349,1.9,0.4,-2.1
11.06,13.94,2026-05-21 16:59:31.400,1,-1.266471,-0.45812700000000006,9.774684,0.3,-1.9,-3.0
11.08,13.96,2026-05-21 16:59:31.420,1,-1.215459,-0.5032530000000001,9.753102000000002,0.4,-1.7,-2.8
11.1,13.98,2026-05-21 16:59:31.440,1,-1.233117,-0.49000950000000004,9.77443875,-0.15000000000000002,-0.675,-2.125
11.120000000000001,14.0,2026-05-21 16:59:31.460,1,-1.2507750000000002,-0.4767660000000001,9.7957755,-0.7,0.35,-1.4500000000000002
11.14,14.02,2026-05-21 16:59:31.480,1,-1.1546370000000001,-0.514044,9.736425,-0.6,-0.4,-1.4
11.16,14.04,2026-05-21 16:59:31.500,1,-1.2056490000000002,-0.546417,9.683451,-1.4,-0.6,-0.5
11.18,14.06,2026-05-21 16:59:31.520,1,-1.219383,-0.4434120000000001,9.762912000000002,2.1,1.2,-1.1
11.200000000000001,14.08,2026-05-21 16:59:31.540,1,-1.3783050000000001,-0.46303200000000005,9.718767000000001,-0.1,0.4,-1.5
11.22,14.1,2026-05-21 16:59:31.560,1,-1.240965,-0.513063,9.638325,0.9,0.0,-1.7
11.24,14.12,2026-05-21 16:59:31.580,1,-1.175238,-0.505215,9.783513000000001,0.1,-1.7,-0.1
11.26,14.14,2026-05-21 16:59:31.600,1,-1.3194450000000002,-0.419868,9.717786,1.2,1.5,0.7
11.28,14.16,2026-05-21 16:59:31.620,1,-1.336122,-0.33746400000000004,9.827658000000001,1.0,0.7,-0.3
11.3,14.18,2026-05-21 16:59:31.640,1,-1.4165640000000002,-0.42084900000000003,9.740349,0.2,-0.8,-2.9
11.32,14.2,2026-05-21 16:59:31.660,1,-1.261566,-0.48461400000000004,9.772722000000002,0.0,-0.8,-2.1
11.34,14.22,2026-05-21 16:59:31.680,1,-1.3027680000000001,-0.419868,9.796266000000001,-0.3,-1.5,-0.8
11.36,14.24,2026-05-21 16:59:31.700,1,-1.3841910000000002,-0.37278,9.777627,-0.5,1.0,-1.3
11.38,14.26,2026-05-21 16:59:31.720,1,-1.2792240000000001,-0.580752,9.572598000000001,-1.2,-0.1,-4.7
11.4,14.28,2026-05-21 16:59:31.740,1,-1.114416,-0.5503410000000001,9.713862,-1.1,-1.6,-0.7
11.42,14.3,2026-05-21 16:59:31.760,1,-1.292958,-0.409077,9.727596,-1.3,-0.7,1.7
11.44,14.32,2026-05-21 16:59:31.780,1,-1.327293,-0.288414,9.818829,0.6,0.4,-2.3
11.46,14.34,2026-05-21 16:59:31.800,1,-1.292958,-0.35904600000000003,9.876707999999999,-0.9,-0.8,-3.2
11.48,14.36,2026-05-21 16:59:31.820,1,-1.272357,-0.48951900000000004,9.713862,-1.8,-0.2,-1.8
11.5,14.38,2026-05-21 16:59:31.840,1,-1.230174,-0.5267970000000001,9.568674,-1.5,-1.1,-2.9
11.52,14.4,2026-05-21 16:59:31.860,1,-1.170333,-0.544455,9.567693,1.4,-0.6,-3.0
11.540000000000001,14.42,2026-05-21 16:59:31.880,1,-1.1727855,-0.51477975,9.67192425,1.15,-0.625,-1.55
11.56,14.44,2026-05-21 16:59:31.900,1,-1.175238,-0.48510450000000005,9.7761555,0.8999999999999999,-0.65,-0.10000000000000003
11.58,14.46,2026-05-21 16:59:31.920,1,-1.2166035,-0.45698250000000007,9.795612,0.95,-0.5666666666666667,-0.5333333333333333
11.6,14.48,2026-05-21 16:59:31.940,1,-1.257969,-0.42886050000000003,9.8150685,1.0,-0.4833333333333333,-0.9666666666666666
11.620000000000001,14.5,2026-05-21 16:59:31.960,1,-1.2993344999999998,-0.40073850000000005,9.834525,1.05,-0.39999999999999997,-1.4
11.64,14.52,2026-05-21 16:59:31.980,1,-1.29075075,-0.41308275,9.806076,0.2416666666666667,-0.55,-1.75
11.66,14.54,2026-05-21 16:59:32.000,1,-1.2821670000000003,-0.425427,9.777626999999999,-0.5666666666666668,-0.7000000000000001,-2.1
11.68,14.56,2026-05-21 16:59:32.020,1,-1.162485,-0.569961,9.645192000000002,-1.0,0.0,-2.0
11.700000000000001,14.58,2026-05-21 16:59:32.040,1,-1.1850479999999999,-0.47284200000000004,9.710919,0.2,2.0,1.4
11.72,14.6,2026-05-21 16:59:32.060,1,-1.2708855000000001,-0.42894225,9.720238499999999,0.25,0.825,0.25
11.74,14.62,2026-05-21 16:59:32.080,1,-1.3567230000000001,-0.3850425,9.729557999999999,0.30000000000000004,-0.35,-0.9000000000000001
11.76,14.64,2026-05-21 16:59:32.100,1,-1.291977,-0.38847600000000004,9.808038,0.2,0.6,-0.9
11.78,14.66,2026-05-21 16:59:32.120,1,-1.3655519999999999,-0.36493200000000003,9.775665000000002,0.1,0.9,-1.0
11.8,14.68,2026-05-21 16:59:32.140,1,-1.297863,-0.45616500000000004,9.705033,-0.4,-0.9,-3.2
11.82,14.7,2026-05-21 16:59:32.160,1,-1.211535,-0.429678,9.764874,0.7,0.5,-1.0
11.84,14.72,2026-05-21 16:59:32.180,1,-1.326312,-0.41103900000000004,9.740349,-0.7,0.7,-0.9
11.86,14.74,2026-05-21 16:59:32.200,1,-1.26549,-0.513063,9.523548,0.4,0.2,-2.3
11.88,14.76,2026-05-21 16:59:32.220,1,-1.253718,-0.41888700000000006,9.767817,1.6,-0.3,-0.5
11.9,14.78,2026-05-21 16:59:32.240,1,-1.385172,-0.38847600000000004,9.766836000000001,0.5,0.5,-0.5
11.92,14.8,2026-05-21 16:59:32.260,1,-1.330236,-0.339426,9.841392,0.0,-1.7,-2.9
11.94,14.82,2026-05-21 16:59:32.280,1,-1.29492,-0.391419,9.766836000000001,-0.2,-2.1,-3.2
11.96,14.84,2026-05-21 16:59:32.300,1,-1.2213450000000001,-0.334521,9.873765,0.3,0.4,-0.8
11.98,14.86,2026-05-21 16:59:32.320,1,-1.333179,-0.397305,9.769779,-0.5,1.8,-0.9
12.0,14.88,2026-05-21 16:59:32.340,1,-1.357704,-0.37278,9.73152,-0.5,1.3,-1.7
12.02,14.9,2026-05-21 16:59:32.360,1,-1.326312,-0.37866600000000006,9.817848,-1.5,-1.2,-2.3
12.040000000000001,14.92,2026-05-21 16:59:32.380,1,-1.2546990000000002,-0.512082,9.568674,-1.1,-0.3,-3.1
12.06,14.94,2026-05-21 16:59:32.400,1,-1.281186,-0.45322200000000007,9.654021,0.2,-0.4,-1.4
12.08,14.96,2026-05-21 16:59:32.420,1,-1.364571,-0.3698370000000001,9.794304,0.4,0.3,-1.6
12.1,14.98,2026-05-21 16:59:32.440,1,-1.315521,-0.413001,9.736425,-1.2,0.4,-2.5
12.120000000000001,15.0,2026-05-21 16:59:32.460,1,-1.2684330000000001,-0.434583,9.685413,-0.6,0.0,-2.0
12.14,15.02,2026-05-21 16:59:32.480,1,-1.291977,-0.45910799999999996,9.640287,-0.4,-1.6,-1.3
12.16,15.04,2026-05-21 16:59:32.500,1,-1.2429270000000001,-0.524835,9.683451,0.6,-0.2,-1.7
12.18,15.06,2026-05-21 16:59:32.520,1,-1.3537800000000002,-0.339426,9.813924,0.9,2.1,1.2
12.200000000000001,15.08,2026-05-21 16:59:32.540,1,-1.46169,-0.268794,9.816867000000002,0.4,0.8,-1.2
12.22,15.1,2026-05-21 16:59:32.560,1,-1.3351410000000001,-0.38259000000000004,9.822752999999999,-1.4,-0.1,-4.4
12.24,15.12,2026-05-21 16:59:32.580,1,-1.194858,-0.49540500000000004,9.707976,-3.1,-1.7,-1.7
12.26,15.14,2026-05-21 16:59:32.600,1,-1.3351410000000001,-0.42869700000000005,9.686394,-2.2,-1.1,1.5
12.280000000000001,15.16,2026-05-21 16:59:32.620,1,-1.478367,-0.27468000000000004,9.811962,-1.1,1.7,-0.9
12.3,15.18,2026-05-21 16:59:32.640,1,-1.408716,-0.295281,9.796266000000001,-1.9,0.4,-4.3
12.32,15.2,2026-05-21 16:59:32.660,1,-1.2753,-0.51012,9.626553,-2.3,-2.2,-2.7
12.34,15.22,2026-05-21 16:59:32.680,1,-1.256661,-0.551322,9.550035000000001,-1.1,-1.7,-0.6
12.36,15.24,2026-05-21 16:59:32.700,1,-1.354761,-0.488538,9.600066,1.7,1.9,-0.9
12.38,15.26,2026-05-21 16:59:32.720,1,-1.482291,-0.37866600000000006,9.685413,1.5,2.0,-1.4
12.4,15.28,2026-05-21 16:59:32.740,1,-1.3979249999999999,-0.430659,9.747216000000002,0.5,-2.3,-3.0
12.42,15.3,2026-05-21 16:59:32.760,1,-1.273338,-0.408096,9.795285000000002,0.5,-1.7,-1.9
12.44,15.32,2026-05-21 16:59:32.780,1,-1.3008060000000004,-0.3575745000000001,9.858069,0.4,-0.75,-1.9
12.46,15.34,2026-05-21 16:59:32.800,1,-1.328274,-0.307053,9.920853,0.3,0.2,-1.9
12.48,15.36,2026-05-21 16:59:32.820,1,-1.3174830000000002,-0.340407,9.880632000000002,-0.6,-0.4,-3.3
12.5,15.38,2026-05-21 16:59:32.840,1,-1.3135590000000001,-0.39043799999999995,9.829129500000002,-0.7,0.29999999999999993,-2.75
12.52,15.4,2026-05-21 16:59:32.860,1,-1.309635,-0.440469,9.777627,-0.8,1.0,-2.2
12.540000000000001,15.42,2026-05-21 16:59:32.880,1,-1.3258215,-0.508158,9.649606500000003,-1.25,-1.25,-2.55
12.56,15.44,2026-05-21 16:59:32.900,1,-1.2483225,-0.39877650000000003,9.827658000000001,-0.9500000000000001,0.35000000000000003,-1.4
12.58,15.46,2026-05-21 16:59:32.920,1,-1.345932,-0.391419,9.696204,-1.4,-0.1,-0.9
12.6,15.48,2026-05-21 16:59:32.940,1,-1.3635900000000003,-0.36591300000000004,9.769779,-1.7,-2.0,-0.9
12.620000000000001,15.5,2026-05-21 16:59:32.960,1,-1.376343,-0.38847600000000004,9.705033,-1.6,-1.5,-2.7
12.64,15.52,2026-05-21 16:59:32.980,1,-1.3890960000000003,-0.39583350000000006,9.7222005,-1.15,0.75,-1.2
12.66,15.54,2026-05-21 16:59:33.000,1,-1.4072445000000002,-0.40122900000000006,9.74549925,-1.4,-0.19999999999999996,-1.8250000000000002
12.68,15.56,2026-05-21 16:59:33.020,1,-1.4253930000000001,-0.40662450000000006,9.768798,-1.65,-1.15,-2.45
12.700000000000001,15.58,2026-05-21 16:59:33.040,1,-1.202706,-0.499329,9.74133,-1.9,0.0,-4.0
12.72,15.6,2026-05-21 16:59:33.060,1,-1.229193,-0.535626,9.615762000000002,-0.9,0.3,-1.7
12.74,15.62,2026-05-21 16:59:33.080,1,-1.287072,-0.523854,9.658926000000001,0.0,0.1,-0.5
12.76,15.64,2026-05-21 16:59:33.100,1,-1.309635,-0.46401299999999995,9.737406,0.2,0.4,-1.5
12.780000000000001,15.66,2026-05-21 16:59:33.120,1,-1.346913,-0.45322200000000007,9.764874,-1.3,-0.5,-1.1
12.8,15.68,2026-05-21 16:59:33.140,1,-1.336122,-0.434583,9.707976,0.3,-1.6,-2.0
12.82,15.7,2026-05-21 16:59:33.160,1,-1.3783050000000001,-0.400248,9.913986,-0.4,0.4,-1.2
12.84,15.72,2026-05-21 16:59:33.180,1,-1.411659,-0.3982860000000001,9.706995000000001,-0.8,2.1,-0.8
12.86,15.74,2026-05-21 16:59:33.200,1,-1.526436,-0.38651399999999997,9.737406,-1.1,-1.3,-0.6
12.88,15.76,2026-05-21 16:59:33.220,1,-1.407735,-0.47774700000000003,9.585351000000001,-1.9,-1.5,-4.2
12.9,15.78,2026-05-21 16:59:33.240,1,-1.215459,-0.5277780000000001,9.730539,-0.2,0.8,-2.0
12.92,15.8,2026-05-21 16:59:33.260,1,-1.29492,-0.474804,9.680508,-0.2,1.4,0.6
12.94,15.82,2026-05-21 16:59:33.280,1,-1.456785,-0.43262100000000003,9.737406,0.0,0.2,-2.8
12.96,15.84,2026-05-21 16:59:33.300,1,-1.38051225,-0.4380165000000001,9.739367999999999,-0.4,-0.175,-2.45
12.98,15.86,2026-05-21 16:59:33.320,1,-1.3042395,-0.4434120000000001,9.74133,-0.8,-0.55,-2.1
13.0,15.88,2026-05-21 16:59:33.340,1,-1.357704,-0.513063,9.659907,-1.4,-0.8,-0.5
13.02,15.9,2026-05-21 16:59:33.360,1,-1.325331,-0.538569,9.651078,0.6,-0.3,-3.1
13.040000000000001,15.92,2026-05-21 16:59:33.380,1,-1.3567230000000001,-0.38651399999999997,9.848259,-0.7,0.6,-0.9
13.06,15.94,2026-05-21 16:59:33.400,1,-1.429317,-0.32569200000000004,9.705033,-2.1,-0.3,-1.4
13.08,15.96,2026-05-21 16:59:33.420,1,-1.3979249999999999,-0.496386,9.562788000000001,-1.6,-2.4,-3.6
13.1,15.98,2026-05-21 16:59:33.440,1,-1.253718,-0.48069000000000006,9.734463,-0.2,-1.4,-0.4
13.120000000000001,16.0,2026-05-21 16:59:33.460,1,-1.4361840000000001,-0.347274,9.870822,-1.4,1.0,1.4
13.14,16.02,2026-05-21 16:59:33.480,1,-1.4352030000000002,-0.391419,9.803133,-2.7,-0.1,-3.5
13.16,16.04,2026-05-21 16:59:33.500,1,-1.2880530000000001,-0.569961,9.669717,-2.6,-2.0,-2.3
13.18,16.06,2026-05-21 16:59:33.520,1,-1.3008060000000001,-0.6660990000000001,9.432315000000001,-0.9,-1.4,-1.0
13.200000000000001,16.08,2026-05-21 16:59:33.540,1,-1.375362,-0.5729040000000001,9.614781,1.5,0.4,-0.7
13.22,16.1,2026-05-21 16:59:33.560,1,-1.399887,-0.447336,9.644211,1.2,0.6,-0.7
13.24,16.12,2026-05-21 16:59:33.580,1,-1.4332410000000002,-0.38651399999999997,9.775665000000002,1.2,-0.2,-0.4
13.26,16.14,2026-05-21 16:59:33.600,1,-1.434222,-0.38357100000000005,9.770760000000001,0.5,-1.7,-1.2
13.280000000000001,16.16,2026-05-21 16:59:33.620,1,-1.444032,-0.3747420000000001,9.851202,0.9,0.0,-3.2
13.3,16.18,2026-05-21 16:59:33.640,1,-1.472481,-0.351198,9.895347000000003,0.2,0.0,-2.9
13.32,16.2,2026-05-21 16:59:33.660,1,-1.3498560000000002,-0.43556400000000006,9.766836000000001,-1.5,-1.3,-4.8
13.34,16.22,2026-05-21 16:59:33.680,1,-1.1369790000000002,-0.6543270000000001,9.609876,-1.6,-2.5,-5.4
13.36,16.24,2026-05-21 16:59:33.700,1,-1.047708,-0.6621750000000001,9.688356,0.6,-0.4,-0.4
13.38,16.26,2026-05-21 16:59:33.720,1,-1.2684330000000001,-0.551322,9.700128,0.9,1.2,0.8
13.4,16.28,2026-05-21 16:59:33.740,1,-1.3684950000000002,-0.3924,9.803133,0.0,0.7,0.2
13.42,16.3,2026-05-21 16:59:33.760,1,-1.4656140000000002,-0.375723,9.740349,-0.9,-0.5,-0.7
13.44,16.32,2026-05-21 16:59:33.780,1,-1.390077,-0.39926700000000004,9.784494,-1.4,-1.6,-1.8
13.46,16.34,2026-05-21 16:59:33.800,1,-1.326312,-0.478728,9.629496000000001,-1.2,-0.1,-2.0
13.48,16.36,2026-05-21 16:59:33.820,1,-1.374381,-0.45616500000000004,9.698166,-0.1,0.5,-0.1
13.5,16.38,2026-05-21 16:59:33.840,1,-1.52055,-0.437526,9.57456,-0.1,-0.2,-1.4
13.52,16.4,2026-05-21 16:59:33.860,1,-1.455804,-0.413982,9.713862,1.0,-1.4,-3.2
13.540000000000001,16.42,2026-05-21 16:59:33.880,1,-1.291977,-0.49736700000000006,9.625572000000002,0.4,-0.7,-3.1
13.56,16.44,2026-05-21 16:59:33.900,1,-1.345932,-0.45616500000000004,9.769779,0.9,0.8,-0.2
13.58,16.46,2026-05-21 16:59:33.920,1,-1.409697,-0.43164,9.737406,0.8,0.5,-1.4
13.6,16.48,2026-05-21 16:59:33.940,1,-1.406754,-0.371799,9.826677,-0.2,-1.4,-2.4
13.620000000000001,16.5,2026-05-21 16:59:33.960,1,-1.292958,-0.501291,9.709938,-0.1,-0.9,-3.2
13.64,16.52,2026-05-21 16:59:33.980,1,-1.266471,-0.538569,9.689337,0.0,0.2,-1.5
13.66,16.54,2026-05-21 16:59:34.000,1,-1.2625469999999999,-0.5405310000000001,9.612819,0.1,0.0,-0.9
13.68,16.56,2026-05-21 16:59:34.020,1,-1.2841290000000003,-0.45616500000000004,9.735444,1.0,-0.3,0.3
13.700000000000001,16.58,2026-05-21 16:59:34.040,1,-1.4381460000000001,-0.334521,9.774684,1.2,0.9,0.7
13.72,16.6,2026-05-21 16:59:34.060,1,-1.505835,-0.326673,9.827658000000001,0.0,-0.6,-2.0
13.74,16.62,2026-05-21 16:59:34.080,1,-1.478367,-0.430659,9.708957000000002,-0.4,-1.0,-2.2
13.76,16.64,2026-05-21 16:59:34.100,1,-1.3684950000000002,-0.513063,9.551016,0.0,-1.0,-2.1
13.780000000000001,16.66,2026-05-21 16:59:34.120,1,-1.3351410000000001,-0.47088,9.719748,0.9,-0.6,-1.2
13.8,16.68,2026-05-21 16:59:34.140,1,-1.3165019999999998,-0.41888700000000006,9.778608,0.4,-0.6,-2.0
13.82,16.7,2026-05-21 16:59:34.160,1,-1.3527989999999996,-0.40073850000000005,9.7575165,0.2,-0.25,-1.3
13.84,16.72,2026-05-21 16:59:34.180,1,-1.389096,-0.38259000000000004,9.736425,0.0,0.1,-0.6
13.86,16.74,2026-05-21 16:59:34.200,1,-1.4425605000000001,-0.424773,9.719748,-0.7,-1.5,-2.8499999999999996
13.88,16.76,2026-05-21 16:59:34.220,1,-1.4065087500000002,-0.40834125000000004,9.698166,-0.050000000000000044,-0.75,-1.3249999999999997
13.9,16.78,2026-05-21 16:59:34.240,1,-1.370457,-0.3919095,9.676584,0.6,0.0,0.19999999999999998
13.92,16.8,2026-05-21 16:59:34.260,1,-1.380267,-0.36223425000000004,9.734463,0.44999999999999996,-0.6,-1.35
13.94,16.82,2026-05-21 16:59:34.280,1,-1.390077,-0.332559,9.792342000000001,0.3,-1.2,-2.9
13.96,16.84,2026-05-21 16:59:34.300,1,-1.2213450000000001,-0.501291,9.700128,0.3,-1.4,-2.7
13.98,16.86,2026-05-21 16:59:34.320,1,-1.2507750000000002,-0.5493600000000001,9.768798,-1.1,-1.6,-0.2
14.0,16.88,2026-05-21 16:59:34.340,1,-1.326312,-0.4679370000000001,9.828639,0.6,0.0,0.3
14.02,16.9,2026-05-21 16:59:34.360,1,-1.34397,-0.306072,9.912024,-0.1,0.7,0.0
14.040000000000001,16.92,2026-05-21 16:59:34.380,1,-1.4302980000000003,-0.317844,9.880632000000002,-1.4,-0.5,-0.2
14.06,16.94,2026-05-21 16:59:34.400,1,-1.4891580000000002,-0.3747420000000001,9.743292000000002,-1.3,-1.4,-0.7
14.08,16.96,2026-05-21 16:59:34.420,1,-1.4813100000000001,-0.37032750000000003,9.7015995,0.1,0.35,-2.55
14.1,16.98,2026-05-21 16:59:34.440,1,-1.4038110000000001,-0.361008,9.676584,0.0,-0.2,-2.0
14.120000000000001,17.0,2026-05-21 16:59:34.460,1,-1.41264,-0.400248,9.680508,0.0,-1.7,-2.8
14.14,17.02,2026-05-21 16:59:34.480,1,-1.345932,-0.468918,9.634401,1.5,-0.1,-3.7
14.16,17.04,2026-05-21 16:59:34.500,1,-1.271376,-0.38749500000000003,9.770760000000001,1.5,0.6,-1.6
14.18,17.06,2026-05-21 16:59:34.520,1,-1.445994,-0.32373,9.830601,-0.1,-0.5,-0.8
14.200000000000001,17.08,2026-05-21 16:59:34.540,1,-1.357704,-0.436545,9.708957000000002,-0.3,-2.0,-3.9
14.22,17.1,2026-05-21 16:59:34.560,1,-1.2184020000000002,-0.49540500000000004,9.774684,0.2,-0.5,-2.9
14.24,17.12,2026-05-21 16:59:34.580,1,-1.3321980000000002,-0.410058,9.778608,0.0,0.9,-0.6
14.26,17.14,2026-05-21 16:59:34.600,1,-1.4253930000000001,-0.357084,9.725634,-0.5,-1.2,-2.6
14.280000000000001,17.16,2026-05-21 16:59:34.620,1,-1.2890340000000002,-0.38553299999999996,9.759969,-0.7,-1.3,-2.5
14.3,17.18,2026-05-21 16:59:34.640,1,-1.379286,-0.400248,9.74133,-0.7,1.1,-0.1
14.32,17.2,2026-05-21 16:59:34.660,1,-1.4832720000000001,-0.417906,9.670698,-0.5,0.9,-1.9
14.34,17.22,2026-05-21 16:59:34.680,1,-1.3979249999999999,-0.445374,9.604971,-0.5,-0.6,-2.4
14.36,17.24,2026-05-21 16:59:34.700,1,-1.376343,-0.400248,9.599085,0.4,-0.1,-1.0
14.38,17.26,2026-05-21 16:59:34.720,1,-1.4499180000000003,-0.260946,9.774684,1.1,-0.5,-1.5
14.4,17.28,2026-05-21 16:59:34.740,1,-1.439127,-0.29135700000000003,9.758007000000001,0.7,-0.7,-3.1
14.42,17.3,2026-05-21 16:59:34.760,1,-1.4381460000000001,-0.318825,9.85905,-0.8,-0.3,-2.6
14.44,17.32,2026-05-21 16:59:34.780,1,-1.376343,-0.42869700000000005,9.685413,-0.9,-0.7,-3.4
14.46,17.34,2026-05-21 16:59:34.800,1,-1.26549,-0.49050000000000005,9.614781,-0.9,-0.9,-3.0
14.48,17.36,2026-05-21 16:59:34.820,1,-1.2703950000000002,-0.42183,9.7496685,1.15,0.0,-1.55
14.5,17.38,2026-05-21 16:59:34.840,1,-1.3444605,-0.37057275,9.78817275,0.35,0.02500000000000001,-1.0
14.52,17.4,2026-05-21 16:59:34.860,1,-1.4185260000000002,-0.3193155,9.826677,-0.45,0.05000000000000002,-0.45
14.540000000000001,17.42,2026-05-21 16:59:34.880,1,-1.42514775,-0.33795450000000005,9.7781175,-0.625,-0.375,-1.525
14.56,17.44,2026-05-21 16:59:34.900,1,-1.4317695000000001,-0.3565935,9.729557999999999,-0.8,-0.8,-2.6
14.58,17.46,2026-05-21 16:59:34.920,1,-1.41239475,-0.38455200000000006,9.685413,-0.30000000000000004,-0.375,-1.975
14.6,17.48,2026-05-21 16:59:34.940,1,-1.39302,-0.4125105,9.641268,0.2,0.05,-1.35
14.620000000000001,17.5,2026-05-21 16:59:34.960,1,-1.4685570000000001,-0.40711500000000006,9.713862,-0.9,-0.5,-3.4
14.64,17.52,2026-05-21 16:59:34.980,1,-1.2448890000000001,-0.419868,9.796266000000001,0.3,-1.0,-2.2
14.66,17.54,2026-05-21 16:59:35.000,1,-1.3287645,-0.38430675,9.764383500000001,-0.07500000000000001,-0.07499999999999996,-1.5250000000000001
14.68,17.56,2026-05-21 16:59:35.020,1,-1.41264,-0.3487455,9.732501000000001,-0.44999999999999996,0.85,-0.85
14.700000000000001,17.58,2026-05-21 16:59:35.040,1,-1.380267,-0.48069000000000006,9.65304,-0.3,-1.8,-2.1
14.72,17.6,2026-05-21 16:59:35.060,1,-1.3822290000000002,-0.327654,9.797247,1.0,0.2,0.0
14.74,17.62,2026-05-21 16:59:35.080,1,-1.4636520000000002,-0.24230700000000002,9.905157,-1.2,-0.9,-1.9
14.76,17.64,2026-05-21 16:59:35.100,1,-1.326312,-0.347274,9.666774,-2.1,0.2,-3.0
14.780000000000001,17.66,2026-05-21 16:59:35.120,1,-1.297863,-0.44145,9.74133,-1.6,-0.9,-2.4
14.8,17.68,2026-05-21 16:59:35.140,1,-1.2703950000000002,-0.543474,9.585351000000001,-2.1,-1.5,-1.9
14.82,17.7,2026-05-21 16:59:35.160,1,-1.4136210000000002,-0.38553299999999996,9.732501000000001,-1.0,0.5,0.7
14.84,17.72,2026-05-21 16:59:35.180,1,-1.5274169999999998,-0.290376,9.778608,-1.6,-0.1,-2.0
14.86,17.74,2026-05-21 16:59:35.200,1,-1.3783050000000001,-0.42379200000000006,9.706995000000001,-2.3,-1.9,-2.9
14.88,17.76,2026-05-21 16:59:35.220,1,-1.385172,-0.506196,9.572598000000001,-0.6,-0.6,0.0
14.9,17.78,2026-05-21 16:59:35.240,1,-1.560771,-0.37866600000000006,9.676584,0.8,1.2,-0.9
14.92,17.8,2026-05-21 16:59:35.260,1,-1.49112,-0.334521,9.723672,0.5,-0.5,-4.1
14.94,17.82,2026-05-21 16:59:35.280,1,-1.3812480000000003,-0.45910799999999996,9.621648,-0.3,-2.1,-3.2
14.96,17.84,2026-05-21 16:59:35.300,1,-1.347894,-0.49540500000000004,9.655983,0.6,-1.2,-1.9
14.98,17.86,2026-05-21 16:59:35.320,1,-1.3586850000000001,-0.37278,9.805095000000001,1.6,0.1,-1.9
15.0,17.88,2026-05-21 16:59:35.340,1,-1.4361840000000001,-0.248193,9.960092999999999,0.0,0.4,-1.6
15.02,17.9,2026-05-21 16:59:35.360,1,-1.460709,-0.27369899999999997,9.899271000000002,-1.2,-1.1,-2.5
15.040000000000001,17.92,2026-05-21 16:59:35.380,1,-1.3734000000000002,-0.409077,9.779589000000001,-1.5,-1.6,-3.1
15.06,17.94,2026-05-21 16:59:35.400,1,-1.3268025,-0.45248625000000003,9.772722000000002,-1.25,-0.7250000000000001,-2.925
15.08,17.96,2026-05-21 16:59:35.420,1,-1.280205,-0.4958955,9.765855,-1.0,0.15,-2.75
15.1,17.98,2026-05-21 16:59:35.440,1,-1.3979249999999999,-0.409077,9.64323,-1.4,0.0,0.5
15.120000000000001,18.0,2026-05-21 16:59:35.460,1,-1.4597280000000001,-0.42379200000000006,9.631458,-0.9,-0.9,-2.6
15.14,18.02,2026-05-21 16:59:35.480,1,-1.291977,-0.46695600000000004,9.625572000000002,-0.7,-0.2,-2.7
15.16,18.04,2026-05-21 16:59:35.500,1,-1.376343,-0.36198899999999995,9.708957000000002,-0.3,0.0,-0.6
15.18,18.06,2026-05-21 16:59:35.520,1,-1.517607,-0.356103,9.67266,-0.5,0.3,-1.3
15.200000000000001,18.08,2026-05-21 16:59:35.540,1,-1.565676,-0.35316,9.618705,-0.2,0.0,-1.2
15.22,18.1,2026-05-21 16:59:35.560,1,-1.4999490000000002,-0.310977,9.78057,0.2,-1.0,-2.6
15.24,18.12,2026-05-21 16:59:35.580,1,-1.3694760000000001,-0.317844,9.866898,-0.1,0.5,-3.4
15.26,18.14,2026-05-21 16:59:35.600,1,-1.278243,-0.3982860000000001,9.79038,-1.1,0.1,-2.9
15.280000000000001,18.16,2026-05-21 16:59:35.620,1,-1.277262,-0.488538,9.676584,0.0,-0.7,-2.1
15.3,18.18,2026-05-21 16:59:35.640,1,-1.3783050000000001,-0.38749500000000003,9.791361,0.0,1.3,0.0
15.32,18.2,2026-05-21 16:59:35.660,1,-1.445994,-0.33746400000000004,9.795285000000002,-0.9,0.0,-1.7
15.34,18.22,2026-05-21 16:59:35.680,1,-1.364571,-0.42379200000000006,9.717786,-1.4,-1.7,-3.4
15.36,18.24,2026-05-21 16:59:35.700,1,-1.3194450000000002,-0.41594400000000004,9.770760000000001,-1.1,-0.1,-1.8
15.38,18.26,2026-05-21 16:59:35.720,1,-1.446975,-0.445374,9.660888,-1.0,0.5,-1.6
15.4,18.28,2026-05-21 16:59:35.740,1,-1.407735,-0.478728,9.64323,-1.5,-1.2,-1.9
15.42,18.3,2026-05-21 16:59:35.760,1,-1.3371030000000002,-0.512082,9.629496000000001,-0.5,0.0,-0.7
15.44,18.32,2026-05-21 16:59:35.780,1,-1.4489370000000001,-0.38749500000000003,9.719748,0.3,1.0,0.1
15.46,18.34,2026-05-21 16:59:35.800,1,-1.5274169999999998,-0.27468000000000004,9.856107000000002,-0.8,-1.1,-1.9
15.48,18.36,2026-05-21 16:59:35.820,1,-1.4773859999999999,-0.36493200000000003,9.789399000000001,-1.8,-0.8,-2.5
15.5,18.38,2026-05-21 16:59:35.840,1,-1.414602,-0.499329,9.602028,-1.0,1.8,-2.3
15.52,18.4,2026-05-21 16:59:35.860,1,-1.5195690000000002,-0.43164,9.693261,-0.1,-0.1,-1.9
15.540000000000001,18.42,2026-05-21 16:59:35.880,1,-1.407735,-0.37081800000000004,9.764874,-1.0,-2.0,-2.9
15.56,18.44,2026-05-21 16:59:35.900,1,-1.31454,-0.47088,9.73152,-2.2,-0.7,-2.3
15.58,18.46,2026-05-21 16:59:35.920,1,-1.325331,-0.543474,9.60399,0.7,1.0,-2.5
15.6,18.48,2026-05-21 16:59:35.940,1,-1.445994,-0.328635,9.843354000000001,0.0,-0.3,0.1
15.620000000000001,18.5,2026-05-21 16:59:35.960,1,-1.5087780000000002,-0.29626199999999997,9.774684,-1.2,0.2,-1.6
15.64,18.52,2026-05-21 16:59:35.980,1,-1.488177,-0.38651399999999997,9.766836000000001,-1.7,-0.3,-2.6
15.66,18.54,2026-05-21 16:59:36.000,1,-1.3223880000000001,-0.42084900000000003,9.789399000000001,-2.1,-1.4,-3.6
15.68,18.56,2026-05-21 16:59:36.020,1,-1.3008060000000001,-0.4679370000000001,9.833544,-2.8,0.6,-0.1
15.700000000000001,18.58,2026-05-21 16:59:36.040,1,-1.417545,-0.40221,9.795285000000002,-3.6,1.9,0.1
15.72,18.6,2026-05-21 16:59:36.060,1,-1.4626709999999998,-0.479709,9.663831,-3.3,-0.8,-3.4
15.74,18.62,2026-05-21 16:59:36.080,1,-1.336122,-0.6248970000000001,9.47646,-3.0,-2.2,-2.0
15.76,18.64,2026-05-21 16:59:36.100,1,-1.3910580000000001,-0.5846760000000001,9.523548,0.0,1.2,-0.6
15.780000000000001,18.66,2026-05-21 16:59:36.120,1,-1.505835,-0.474804,9.571617,0.8,1.7,-1.0
15.8,18.68,2026-05-21 16:59:36.140,1,-1.5048540000000001,-0.434583,9.64323,0.0,-1.6,-0.2
15.82,18.7,2026-05-21 16:59:36.160,1,-1.554885,-0.4031910000000001,9.680508,0.9,-1.0,-1.2
15.84,18.72,2026-05-21 16:59:36.180,1,-1.5637140000000003,-0.376704,9.766836000000001,1.4,-0.1,-2.7
15.860000000000001,18.74,2026-05-21 16:59:36.200,1,-1.525455,-0.334521,9.861993,0.1,0.1,-3.3
15.88,18.76,2026-05-21 16:59:36.220,1,-1.490139,-0.38259000000000004,9.751140000000001,-1.4,-1.3,-3.3
15.9,18.78,2026-05-21 16:59:36.240,1,-1.441089,-0.45812700000000006,9.703071,-1.0,-1.8,-4.0
15.92,18.8,2026-05-21 16:59:36.260,1,-1.380267,-0.567018,9.633420000000001,-1.0,-0.7,-3.2
15.94,18.82,2026-05-21 16:59:36.280,1,-1.357704,-0.473823,9.724653,0.3,-0.7,-2.7
15.96,18.84,2026-05-21 16:59:36.300,1,-1.3684950000000002,-0.44929800000000003,9.785475000000002,-0.5,-1.2,-3.6
15.98,18.86,2026-05-21 16:59:36.320,1,-1.29492,-0.5483790000000001,9.734463,-1.1,-0.9,-3.7
16.0,18.88,2026-05-21 16:59:36.340,1,-1.2517559999999999,-0.611163,9.590256,-0.5,-0.5,-2.5
16.02,18.9,2026-05-21 16:59:36.360,1,-1.330236,-0.543474,9.666774,0.3,-0.1,-0.3
16.04,18.92,2026-05-21 16:59:36.380,1,-1.4499180000000003,-0.424773,9.774684,0.8,0.6,0.0
16.06,18.94,2026-05-21 16:59:36.400,1,-1.52055,-0.405153,9.650097,0.2,0.7,-1.0
16.080000000000002,18.96,2026-05-21 16:59:36.420,1,-1.496025,-0.43164,9.664812000000001,0.6,-0.4,-2.1
16.1,18.98,2026-05-21 16:59:36.440,1,-1.49112,-0.367875,9.794304,1.0,-0.5,-1.3
16.12,19.0,2026-05-21 16:59:36.460,1,-1.501911,-0.371799,9.783513000000001,-0.1,-0.1,-2.6
16.14,19.02,2026-05-21 16:59:36.480,1,-1.445994,-0.44929800000000003,9.676584,-0.6,-0.5,-3.4
16.16,19.04,2026-05-21 16:59:36.500,1,-1.3537800000000002,-0.522873,9.639306000000001,0.5,-1.2,-2.7
16.18,19.06,2026-05-21 16:59:36.520,1,-1.3086540000000002,-0.517968,9.737406,0.4,-1.0,-2.3
16.2,19.08,2026-05-21 16:59:36.540,1,-1.3861530000000002,-0.469899,9.79038,0.3,0.9,-0.7
16.22,19.1,2026-05-21 16:59:36.560,1,-1.4636520000000002,-0.445374,9.727596,-0.5,-0.3,-1.6
16.240000000000002,19.12,2026-05-21 16:59:36.580,1,-1.385172,-0.446355,9.736425,-0.2,-1.8,-1.3
16.26,19.14,2026-05-21 16:59:36.600,1,-1.396944,-0.367875,9.854145,-0.1,0.1,-0.3
16.28,19.16,2026-05-21 16:59:36.620,1,-1.5117209999999999,-0.375723,9.745254,-0.8,0.9,-1.6
16.3,19.18,2026-05-21 16:59:36.640,1,-1.493082,-0.502272,9.625572000000002,-1.2,-2.4,-4.2
16.32,19.2,2026-05-21 16:59:36.660,1,-1.3734000000000002,-0.5071770000000001,9.634401,-0.3,-1.8,-1.3
16.34,19.22,2026-05-21 16:59:36.680,1,-1.4204880000000002,-0.4125105,9.771741,-0.2,-0.7,-2.0
16.36,19.24,2026-05-21 16:59:36.700,1,-1.39302,-0.5591700000000001,9.709938,0.0,-0.6,-1.7
16.38,19.26,2026-05-21 16:59:36.720,1,-1.4636520000000002,-0.47455875000000003,9.7467255,-0.35,-0.625,-1.725
16.4,19.28,2026-05-21 16:59:36.740,1,-1.5342840000000002,-0.3899475,9.783513000000001,-0.7,-0.6499999999999999,-1.75
16.42,19.3,2026-05-21 16:59:36.760,1,-1.379286,-0.424773,9.737406,-1.6,-2.3,-2.7
16.44,19.32,2026-05-21 16:59:36.780,1,-1.341027,-0.446355,9.762912000000002,-1.8,-1.3,-1.7
16.46,19.34,2026-05-21 16:59:36.800,1,-1.3996417500000002,-0.4223205,9.7555545,-2.1999999999999997,-0.125,-1.1
16.48,19.36,2026-05-21 16:59:36.820,1,-1.4582565,-0.3982860000000001,9.748197000000001,-2.5999999999999996,1.05,-0.5
16.5,19.38,2026-05-21 16:59:36.840,1,-1.496025,-0.4434120000000001,9.569655000000001,-3.3,-1.5,-3.3
16.52,19.4,2026-05-21 16:59:36.860,1,-1.278243,-0.606258,9.499023,-1.2,-4.2,-3.1
16.54,19.42,2026-05-21 16:59:36.880,1,-1.271376,-0.5738850000000001,9.623610000000001,1.3,-1.1,0.1
16.56,19.44,2026-05-21 16:59:36.900,1,-1.4401080000000002,-0.45812700000000006,9.678546,1.8,1.5,-0.4
16.580000000000002,19.46,2026-05-21 16:59:36.920,1,-1.5735240000000001,-0.356103,9.764874,0.7,-0.9,-1.2
16.6,19.48,2026-05-21 16:59:36.940,1,-1.4136210000000002,-0.4679370000000001,9.740349,0.5,-2.3,-2.8
16.62,19.5,2026-05-21 16:59:36.960,1,-1.389096,-0.45910799999999996,9.823734000000002,0.2,-0.3,-1.3
16.64,19.52,2026-05-21 16:59:36.980,1,-1.5637140000000003,-0.381609,9.85905,-0.3,-0.1,-1.7
16.66,19.54,2026-05-21 16:59:37.000,1,-1.4352030000000002,-0.41888700000000006,9.758007000000001,-1.1,-2.1,-5.1
16.68,19.56,2026-05-21 16:59:37.020,1,-1.2988440000000003,-0.523854,9.753102000000002,-1.0,-1.0,-3.4
16.7,19.58,2026-05-21 16:59:37.040,1,-1.2821669999999998,-0.587619,9.654021,-0.6,-0.4,-2.8
16.72,19.6,2026-05-21 16:59:37.060,1,-1.2517559999999999,-0.5709420000000001,9.650097,-0.2,-0.7,-1.9
16.740000000000002,19.62,2026-05-21 16:59:37.080,1,-1.320426,-0.45616500000000004,9.749177999999999,-0.5,0.1,0.5
16.76,19.64,2026-05-21 16:59:37.100,1,-1.460709,-0.363951,9.806076000000001,-0.8,-0.3,-1.2
16.78,19.66,2026-05-21 16:59:37.120,1,-1.406754,-0.46303200000000005,9.670698,-0.9,-0.6,-2.3
16.8,19.68,2026-05-21 16:59:37.140,1,-1.409697,-0.45910799999999996,9.665793,0.0,-0.1,-0.6
16.82,19.7,2026-05-21 16:59:37.160,1,-1.574505,-0.375723,9.725634,-0.3,0.0,-0.9
16.84,19.72,2026-05-21 16:59:37.180,1,-1.521531,-0.408096,9.705033,-0.9,-1.5,-3.5
16.86,19.74,2026-05-21 16:59:37.200,1,-1.315521,-0.479709,9.749177999999999,-0.6,-2.1,-3.4
16.88,19.76,2026-05-21 16:59:37.220,1,-1.3135590000000001,-0.488538,9.666774,-0.4,-0.4,-1.5
16.9,22.68,2026-05-21 16:59:40.140,2,-1.4084346838235295,-0.40712221323529413,9.717021397058824,-0.17794117647058824,-0.7448529411764706,-1.511764705882353
16.92,22.7,2026-05-21 16:59:40.160,2,-1.1465437500000002,-0.3863505,9.739041000000002,-1.1083333333333332,-2.8083333333333336,-1.575
16.94,22.72,2026-05-21 16:59:40.180,2,-1.114416,-0.33844500000000005,9.903195000000002,-0.4,0.8,-0.7
16.96,22.74,2026-05-21 16:59:40.200,2,-1.29492,-0.35512200000000005,9.742311,0.3,1.5,0.5
16.98,22.76,2026-05-21 16:59:40.220,2,-1.3223880000000001,-0.29724300000000003,9.696204,1.1,-1.8,-2.9
17.0,22.78,2026-05-21 16:59:40.240,2,-1.1075490000000001,-0.356103,9.802152000000001,0.3,-3.1,-3.4
17.02,22.8,2026-05-21 16:59:40.260,2,-0.8819190000000001,-0.483633,9.84924,-0.3,-2.7,-3.0
17.04,22.82,2026-05-21 16:59:40.280,2,-0.821097,-0.5827140000000001,9.727596,-0.3,-2.5,-1.1
17.06,22.84,2026-05-21 16:59:40.300,2,-1.002582,-0.502272,9.785475000000002,0.9,0.1,2.7
17.080000000000002,22.86,2026-05-21 16:59:40.320,2,-1.2703950000000002,-0.310977,9.792342000000001,2.3,1.8,2.3
17.1,22.88,2026-05-21 16:59:40.340,2,-1.478367,-0.165789,9.784494,0.6,1.0,1.2
17.12,22.9,2026-05-21 16:59:40.360,2,-1.5637140000000003,-0.17167500000000002,9.817848,-0.2,-0.6,-0.8
17.14,22.92,2026-05-21 16:59:40.380,2,-1.3910580000000001,-0.21434850000000003,9.7634025,-1.0,0.5499999999999999,-3.2
17.16,22.94,2026-05-21 16:59:40.400,2,-1.297863,-0.289395,9.681489000000001,-1.4,1.0,-4.1
17.18,22.96,2026-05-21 16:59:40.420,2,-1.1943675,-0.33795450000000005,9.65181375,-0.95,0.75,-3.875
17.2,22.98,2026-05-21 16:59:40.440,2,-1.090872,-0.38651399999999997,9.6221385,-0.5,0.5,-3.6500000000000004
17.22,23.0,2026-05-21 16:59:40.460,2,-0.9368550000000001,-0.474804,9.70209,-1.2,-0.6,-2.5
17.240000000000002,23.02,2026-05-21 16:59:40.480,2,-0.9388170000000001,-0.483633,9.651078,0.3,-0.6,-0.8
17.26,23.04,2026-05-21 16:59:40.500,2,-1.142865,-0.347274,9.746235,1.6,-1.0,-0.3
17.28,23.06,2026-05-21 16:59:40.520,2,-1.256661,-0.328635,9.951264,-0.1,-2.9,-2.1
17.3,23.08,2026-05-21 16:59:40.540,2,-1.050651,-0.35512200000000005,9.895347000000003,-1.2,-4.8,-5.0
17.32,23.1,2026-05-21 16:59:40.560,2,-1.011411,-0.377685,9.862974000000001,-1.3,-1.5,-0.2
17.34,23.12,2026-05-21 16:59:40.580,2,-1.13796,-0.40417200000000003,9.767817,-1.6,0.8,-0.7
17.36,23.14,2026-05-21 16:59:40.600,2,-1.1850479999999999,-0.538569,9.563769,-1.6,-0.6,-3.2
17.38,23.16,2026-05-21 16:59:40.620,2,-1.2184020000000002,-0.571923,9.518642999999999,-0.8,0.0,-0.3
17.400000000000002,23.18,2026-05-21 16:59:40.640,2,-1.45188,-0.40417200000000003,9.646173,1.2,1.5,2.3
17.42,23.2,2026-05-21 16:59:40.660,2,-1.6627950000000002,-0.30509100000000006,9.713862,0.9,1.5,-0.6
17.44,23.22,2026-05-21 16:59:40.680,2,-1.570581,-0.24525000000000002,9.897309,-0.9,0.0,-3.8
17.46,23.24,2026-05-21 16:59:40.700,2,-1.445013,-0.23544,9.887499,-0.2,0.9,-2.7
17.48,23.26,2026-05-21 16:59:40.720,2,-1.531341,-0.198162,9.797247,-1.1,2.7,-1.6
17.5,23.28,2026-05-21 16:59:40.740,2,-1.445013,-0.328635,9.718767000000001,-1.6,1.6,-5.9
17.52,23.3,2026-05-21 16:59:40.760,2,-1.234098,-0.46008899999999997,9.599085,-0.3,0.9,-6.8
17.54,23.32,2026-05-21 16:59:40.780,2,-1.2360600000000002,-0.277623,9.767817,-0.4,2.6,-1.5
17.56,23.34,2026-05-21 16:59:40.800,2,-1.2659805,-0.25947450000000005,9.773703000000001,-0.875,2.2,-2.4000000000000004
17.580000000000002,23.36,2026-05-21 16:59:40.820,2,-1.295901,-0.241326,9.779589000000001,-1.35,1.8,-3.3000000000000003
17.6,23.38,2026-05-21 16:59:40.840,2,-1.056537,-0.3747420000000001,9.774684,-3.1,-1.7,-5.9
17.62,23.4,2026-05-21 16:59:40.860,2,-0.9584370000000001,-0.41888700000000006,9.729557999999999,-3.1,-1.5,-3.0
17.64,23.42,2026-05-21 16:59:40.880,2,-0.9182159999999999,-0.42379200000000006,9.742311,-2.0,-0.8,-2.8
17.66,23.44,2026-05-21 16:59:40.900,2,-1.009449,-0.48069000000000006,9.70209,-0.3,-0.9,-0.2
17.68,23.46,2026-05-21 16:59:40.920,2,-1.2213450000000001,-0.5032530000000001,9.694242000000001,-0.4,-2.1,0.0
17.7,23.48,2026-05-21 16:59:40.940,2,-1.357704,-0.551322,9.599085,0.8,-2.8,-1.4
17.72,23.5,2026-05-21 16:59:40.960,2,-1.330236,-0.544455,9.767817,0.5,-4.0,-2.2
17.740000000000002,23.52,2026-05-21 16:59:40.980,2,-1.124226,-0.45714600000000005,10.017972000000002,0.3,-2.4,-1.0
17.76,23.54,2026-05-21 16:59:41.000,2,-1.2821669999999998,-0.299205,10.036611000000002,-1.4,-1.3,-0.1
17.78,23.56,2026-05-21 16:59:41.020,2,-1.2448890000000001,-0.223668,10.038573,-3.2,-5.1,-4.7
17.8,23.58,2026-05-21 16:59:41.040,2,-0.9937530000000001,-0.33746400000000004,9.87867,-4.0,-4.9,-7.1
17.82,23.6,2026-05-21 16:59:41.060,2,-0.810306,-0.40711500000000006,9.745254,-4.3,-1.5,-4.2
17.84,23.62,2026-05-21 16:59:41.080,2,-0.8995770000000001,-0.478728,9.539244,-2.3,-1.0,-0.7
17.86,23.64,2026-05-21 16:59:41.100,2,-0.983943,-0.496386,9.455859,-0.9,-1.0,-0.9
17.88,23.66,2026-05-21 16:59:41.120,2,-1.061442,-0.50031,9.519624,0.4,-1.9,-2.6
17.900000000000002,23.68,2026-05-21 16:59:41.140,2,-0.973152,-0.43262100000000003,9.714843,1.2,-2.4,-1.0
17.92,23.7,2026-05-21 16:59:41.160,2,-1.0781190000000003,-0.38259000000000004,9.832563,0.7,-1.3,0.7
17.94,23.72,2026-05-21 16:59:41.180,2,-1.232136,-0.408096,9.801171,0.3,-0.1,-0.5
17.96,23.74,2026-05-21 16:59:41.200,2,-1.2703950000000002,-0.48069000000000006,9.696204,0.0,0.0,-1.7
17.98,23.76,2026-05-21 16:59:41.220,2,-1.2546990000000002,-0.511101,9.687375000000001,0.5,-0.2,-0.3
18.0,23.78,2026-05-21 16:59:41.240,2,-1.278243,-0.478728,9.727596,1.0,-0.3,0.4
18.02,23.8,2026-05-21 16:59:41.260,2,-1.3675140000000001,-0.410058,9.757026000000002,0.4,1.2,1.2
18.04,23.82,2026-05-21 16:59:41.280,2,-1.51074,-0.36002700000000004,9.674622000000001,0.6,3.4,1.1
18.06,23.84,2026-05-21 16:59:41.300,2,-1.5990300000000002,-0.33746400000000004,9.552978000000001,0.5,1.9,-1.5
18.080000000000002,23.86,2026-05-21 16:59:41.320,2,-1.5421319999999998,-0.27369899999999997,9.665793,1.1,0.2,-1.6
18.1,23.88,2026-05-21 16:59:41.340,2,-1.3371030000000002,-0.24034500000000003,9.837468,0.6,-0.6,-4.4
18.12,23.9,2026-05-21 16:59:41.360,2,-1.204668,-0.244269,9.813924,0.7,0.5,-5.4
18.14,23.92,2026-05-21 16:59:41.380,2,-1.109511,-0.327654,9.723672,0.1,0.9,-4.3
18.16,23.94,2026-05-21 16:59:41.400,2,-1.06929,-0.44929800000000003,9.583389,-0.1,0.3,-4.6
18.18,23.96,2026-05-21 16:59:41.420,2,-1.028088,-0.5405310000000001,9.504909,1.5,0.6,-2.9
18.2,23.98,2026-05-21 16:59:41.440,2,-0.998658,-0.45812700000000006,9.724653,2.1,-0.5,-2.1
18.22,24.0,2026-05-21 16:59:41.460,2,-1.062423,-0.348255,9.774684,1.9,-1.6,-2.0
18.240000000000002,24.02,2026-05-21 16:59:41.480,2,-1.142865,-0.339426,9.869841000000001,0.8,-2.8,-2.1
18.26,24.04,2026-05-21 16:59:41.500,2,-1.075176,-0.27958500000000003,9.910062,-1.4,-3.9,-4.4
18.28,24.06,2026-05-21 16:59:41.520,2,-0.8770140000000001,-0.39338100000000004,9.886518,-0.8,-4.7,-4.9
18.3,24.08,2026-05-21 16:59:41.540,2,-0.751446,-0.50031,9.873765,-1.1,-2.2,-0.4
18.32,24.1,2026-05-21 16:59:41.560,2,-0.9260640000000001,-0.371799,9.816867000000002,1.2,-0.1,1.2
18.34,24.12,2026-05-21 16:59:41.580,2,-1.011411,-0.361008,9.772722000000002,0.9,1.7,2.4
18.36,24.14,2026-05-21 16:59:41.600,2,-1.158561,-0.391419,9.654021,-0.8,0.3,2.0
18.38,24.16,2026-05-21 16:59:41.620,2,-1.260585,-0.48069000000000006,9.612819,-1.0,-2.6,1.2
18.400000000000002,24.18,2026-05-21 16:59:41.640,2,-1.150713,-0.426735,9.792342000000001,-0.6,-2.3,1.7
18.42,24.2,2026-05-21 16:59:41.660,2,-1.3351410000000001,-0.28645200000000004,9.770760000000001,-1.0,0.0,2.0
18.44,24.22,2026-05-21 16:59:41.680,2,-1.375362,-0.27958500000000003,9.710919,-0.6,-1.2,0.1
18.46,24.24,2026-05-21 16:59:41.700,2,-1.4999490000000002,-0.234459,9.718767000000001,0.2,-2.2,0.0
18.48,24.26,2026-05-21 16:59:41.720,2,-1.490139,-0.234459,9.810981,0.1,-1.2,-1.0
18.5,24.28,2026-05-21 16:59:41.740,2,-1.379286,-0.24230700000000002,9.795285000000002,-1.1,-0.9,-4.3
18.52,24.3,2026-05-21 16:59:41.760,2,-1.26549,-0.32569200000000004,9.801171,-1.1,-0.9,-4.2
18.54,24.32,2026-05-21 16:59:41.780,2,-1.224288,-0.363951,9.743292000000002,-0.6,-2.4,-6.2
18.56,24.34,2026-05-21 16:59:41.800,2,-1.0535940000000001,-0.38749500000000003,9.963036,0.0,-0.6,-5.0
18.580000000000002,24.36,2026-05-21 16:59:41.820,2,-1.114416,-0.278604,9.985599,-1.2,3.2,-2.7
18.6,24.38,2026-05-21 16:59:41.840,2,-1.161504,-0.30411,9.869841000000001,-3.7,0.2,-4.7
18.62,24.4,2026-05-21 16:59:41.860,2,-0.9888480000000001,-0.38847600000000004,9.837468,-3.8,-2.6,-6.0
18.64,24.42,2026-05-21 16:59:41.880,2,-0.89271,-0.486576,9.79038,-3.1,0.1,-3.5
18.66,24.44,2026-05-21 16:59:41.900,2,-0.974133,-0.5277780000000001,9.688356,-3.5,2.5,-2.1
18.68,24.46,2026-05-21 16:59:41.920,2,-1.184067,-0.499329,9.558864,-1.7,2.0,-1.0
18.7,24.48,2026-05-21 16:59:41.940,2,-1.354761,-0.45322200000000007,9.560826,-1.8,0.0,-1.5
18.72,24.5,2026-05-21 16:59:41.960,2,-1.3586850000000001,-0.38259000000000004,9.667755000000001,-1.1,-0.1,-2.3
18.740000000000002,24.52,2026-05-21 16:59:41.980,2,-1.3783050000000001,-0.3296160000000001,9.681489000000001,-1.0,-1.2,-2.4
18.76,24.54,2026-05-21 16:59:42.000,2,-1.338084,-0.299205,9.799209000000001,-1.5,-2.9,-6.4
18.78,24.56,2026-05-21 16:59:42.020,2,-1.0947959999999999,-0.35904600000000003,9.832563,-1.3,-2.0,-8.0
18.8,24.58,2026-05-21 16:59:42.040,2,-0.9456840000000001,-0.469899,9.786456000000001,-1.8,-1.2,-5.7
18.82,24.6,2026-05-21 16:59:42.060,2,-0.874071,-0.5827140000000001,9.656964,-1.4,-1.1,-4.4
18.84,24.62,2026-05-21 16:59:42.080,2,-0.858375,-0.679833,9.563769,0.3,0.3,-1.5
18.86,24.64,2026-05-21 16:59:42.100,2,-0.9790380000000001,-0.5827140000000001,9.620667000000001,1.4,0.4,0.1
18.88,24.66,2026-05-21 16:59:42.120,2,-1.082043,-0.560151,9.639306000000001,2.1,-0.4,-0.2
18.900000000000002,24.68,2026-05-21 16:59:42.140,2,-1.0859670000000001,-0.521892,9.788418,2.1,-0.5,0.3
18.92,24.7,2026-05-21 16:59:42.160,2,-1.175238,-0.47088,9.753102000000002,1.4,0.0,1.8
18.94,24.72,2026-05-21 16:59:42.180,2,-1.325331,-0.377685,9.860031000000001,0.9,-0.1,0.6
18.96,24.74,2026-05-21 16:59:42.200,2,-1.3174830000000002,-0.410058,9.758988,0.1,-0.1,-1.6
18.98,24.76,2026-05-21 16:59:42.220,2,-1.2939390000000002,-0.38651399999999997,9.815885999999999,0.6,0.5,-0.6
19.0,24.78,2026-05-21 16:59:42.240,2,-1.3022775000000002,-0.37081800000000004,9.706504500000001,-0.1,0.8,-0.65
19.02,24.8,2026-05-21 16:59:42.260,2,-1.305711,-0.351198,9.567693,1.3,1.8,-0.9
19.04,24.82,2026-05-21 16:59:42.280,2,-1.2623017500000002,-0.34531200000000006,9.661869000000001,0.9,0.19999999999999996,-2.45
19.06,24.84,2026-05-21 16:59:42.300,2,-1.2188925000000002,-0.339426,9.756045,0.5,-1.4,-4.0
19.080000000000002,24.86,2026-05-21 16:59:42.320,2,-1.062423,-0.394362,9.807057,0.9,1.0,-1.6
19.1,24.88,2026-05-21 16:59:42.340,2,-1.193877,-0.39926700000000004,9.671679000000001,0.0,-0.1,-1.5
19.12,24.9,2026-05-21 16:59:42.360,2,-1.10853,-0.349236,9.89829,0.3,-2.0,-4.1
19.14,24.92,2026-05-21 16:59:42.380,2,-0.9898290000000001,-0.430659,9.815885999999999,-1.3,-1.6,-3.1
19.16,24.94,2026-05-21 16:59:42.400,2,-0.983943,-0.332559,9.997371000000001,-1.6,-0.7,-1.0
19.18,24.96,2026-05-21 16:59:42.420,2,-1.126188,-0.308034,9.781551,-3.2,-0.5,-1.3
19.2,24.98,2026-05-21 16:59:42.440,2,-1.08891,-0.37866600000000006,9.824715000000001,-3.4,-1.6,-2.9
19.22,25.0,2026-05-21 16:59:42.460,2,-1.1310930000000001,-0.501291,9.588294,-2.6,-1.4,-1.5
19.240000000000002,25.02,2026-05-21 16:59:42.480,2,-1.194858,-0.589581,9.409752000000001,-0.7,-0.5,-1.3
19.26,25.04,2026-05-21 16:59:42.500,2,-1.1909340000000002,-0.51012,9.528453,2.3,-0.8,-0.4
19.28,25.06,2026-05-21 16:59:42.520,2,-1.3194450000000002,-0.332559,9.781551,2.6,-0.4,0.8
19.3,25.08,2026-05-21 16:59:42.540,2,-1.2517559999999999,-0.344331,9.757026000000002,1.1,-1.5,-3.2
19.32,25.1,2026-05-21 16:59:42.560,2,-1.116378,-0.436545,9.774684,1.4,-1.4,-2.7
19.34,25.12,2026-05-21 16:59:42.580,2,-1.2174209999999999,-0.27958500000000003,9.953226,1.3,1.2,0.8
19.36,25.14,2026-05-21 16:59:42.600,2,-1.311597,-0.25506,9.882594000000001,-0.6,0.1,-3.2
19.38,25.16,2026-05-21 16:59:42.620,2,-1.150713,-0.434583,9.772722000000002,-1.2,-1.7,-5.6
19.400000000000002,25.18,2026-05-21 16:59:42.640,2,-0.999639,-0.551322,9.712881,0.0,0.1,-2.1
19.42,25.2,2026-05-21 16:59:42.660,2,-1.150713,-0.534645,9.681489000000001,0.1,0.7,-0.2
19.44,25.22,2026-05-21 16:59:42.680,2,-1.1978010000000001,-0.41888700000000006,9.746235,0.1,-1.4,-1.4
19.46,25.24,2026-05-21 16:59:42.700,2,-1.129131,-0.30411,9.887499,-0.3,-2.4,-1.5
19.48,25.26,2026-05-21 16:59:42.720,2,-1.153656,-0.322749,9.808038,-0.5,-0.8,-1.8
19.5,25.28,2026-05-21 16:59:42.740,2,-1.174257,-0.38553299999999996,9.708957000000002,-1.2,0.8,-2.0
19.52,25.3,2026-05-21 16:59:42.760,2,-1.2233070000000001,-0.41594400000000004,9.617723999999999,-0.6,0.0,-1.0
19.54,25.32,2026-05-21 16:59:42.780,2,-1.228212,-0.409077,9.585351000000001,-0.3,-0.9,-1.0
19.56,25.34,2026-05-21 16:59:42.800,2,-1.232136,-0.3296160000000001,9.670698,0.9,-1.0,-2.3
19.580000000000002,25.36,2026-05-21 16:59:42.820,2,-1.15758,-0.357084,9.703071,1.0,0.2,-2.7
19.6,25.38,2026-05-21 16:59:42.840,2,-1.135998,-0.328635,9.837468,0.8,0.3,-1.0
19.62,25.4,2026-05-21 16:59:42.860,2,-1.208592,-0.35904600000000003,9.73152,-0.1,-0.8,-1.4
19.64,25.42,2026-05-21 16:59:42.880,2,-1.159542,-0.41888700000000006,9.696204,-0.8,-1.5,-3.6
19.66,25.44,2026-05-21 16:59:42.900,2,-1.0231830000000002,-0.483633,9.761931,0.6,-2.1,-4.1
19.68,25.46,2026-05-21 16:59:42.920,2,-1.042803,-0.46401299999999995,9.781551,0.1,0.1,-0.6
19.7,25.48,2026-05-21 16:59:42.940,2,-1.1369790000000002,-0.37278,9.877689,1.7,0.8,0.2
19.72,25.5,2026-05-21 16:59:42.960,2,-1.219383,-0.326673,9.854145,-0.9,0.1,-0.8
19.740000000000002,25.52,2026-05-21 16:59:42.980,2,-1.1909340000000002,-0.37081800000000004,9.693261,-0.1,-0.9,-2.5
19.76,25.54,2026-05-21 16:59:43.000,2,-1.126188,-0.391419,9.693261,0.9,-0.1,-2.0
19.78,25.56,2026-05-21 16:59:43.020,2,-1.164447,-0.31686299999999995,9.770760000000001,1.8,0.7,-1.3
19.8,25.58,2026-05-21 16:59:43.040,2,-1.212516,-0.31686299999999995,9.867879,-0.5,0.0,-0.1
19.82,25.6,2026-05-21 16:59:43.060,2,-1.327293,-0.33844500000000005,9.699147,-1.4,-0.8,-1.5
19.84,25.62,2026-05-21 16:59:43.080,2,-1.22625,-0.267813,9.801171,0.1,-2.1,-1.9
19.86,25.64,2026-05-21 16:59:43.100,2,-1.0967580000000001,-0.334521,9.845316,0.5,-0.9,-3.3
19.88,25.66,2026-05-21 16:59:43.120,2,-1.075176,-0.293319,9.933606,-0.4,0.2,-1.3
19.900000000000002,25.68,2026-05-21 16:59:43.140,2,-1.229193,-0.24230700000000002,9.852183,-1.3,0.0,-0.7
19.92,25.7,2026-05-21 16:59:43.160,2,-1.1458080000000002,-0.339426,9.735444,-2.0,-1.0,-2.9
19.94,25.72,2026-05-21 16:59:43.180,2,-1.0643850000000001,-0.45224100000000006,9.688356,-1.9,-0.4,-1.2
19.96,25.74,2026-05-21 16:59:43.200,2,-1.1183400000000001,-0.41888700000000006,9.706995000000001,-1.1,-0.7,-0.8
19.98,25.76,2026-05-21 16:59:43.220,2,-1.13796,-0.33746400000000004,9.794304,-0.7,-0.5,-1.1
20.0,25.78,2026-05-21 16:59:43.240,2,-1.1693520000000002,-0.35316,9.779589000000001,-1.4,0.2,-0.3
20.02,25.8,2026-05-21 16:59:43.260,2,-1.204668,-0.39338100000000004,9.656964,-1.1,-0.3,0.0
20.04,25.82,2026-05-21 16:59:43.280,2,-1.3223880000000001,-0.436545,9.59418,-0.2,-1.9,0.0
20.06,25.84,2026-05-21 16:59:43.300,2,-1.2507750000000002,-0.394362,9.67266,1.4,-0.6,-2.2
20.080000000000002,25.86,2026-05-21 16:59:43.320,2,-1.184067,-0.381609,9.725634,1.1,1.2,-1.5
20.1,25.88,2026-05-21 16:59:43.340,2,-1.2233070000000001,-0.331578,9.730539,0.9,-0.2,0.3
20.12,25.9,2026-05-21 16:59:43.360,2,-1.3008060000000001,-0.37081800000000004,9.723672,1.0,-1.8,-1.7
20.14,25.92,2026-05-21 16:59:43.380,2,-1.194858,-0.31686299999999995,9.856107000000002,0.1,-0.5,-3.6
20.16,25.94,2026-05-21 16:59:43.400,2,-1.0810620000000002,-0.340407,9.766836000000001,1.0,0.0,-3.6
20.18,25.96,2026-05-21 16:59:43.420,2,-1.10853,-0.328635,9.860031000000001,-0.1,-1.2,-1.5
20.2,25.98,2026-05-21 16:59:43.440,2,-1.135998,-0.363951,9.748197000000001,-0.8,-1.4,-1.8
20.22,26.0,2026-05-21 16:59:43.460,2,-1.067328,-0.356103,9.745254,0.5,0.0,-2.1
20.240000000000002,26.02,2026-05-21 16:59:43.480,2,-1.0781190000000003,-0.31293899999999997,9.808038,0.0,0.0,-1.6
20.26,26.04,2026-05-21 16:59:43.500,2,-1.132074,-0.27958500000000003,9.89829,-0.4,-0.3,-0.5
20.28,26.06,2026-05-21 16:59:43.520,2,-1.199763,-0.30509100000000006,9.723672,-0.9,-0.5,-1.1
20.3,26.08,2026-05-21 16:59:43.540,2,-1.2350790000000003,-0.27468000000000004,9.795285000000002,-1.1,-0.4,-1.9
20.32,26.1,2026-05-21 16:59:43.560,2,-1.172295,-0.35316,9.681489000000001,-1.4,-1.1,-3.7
20.34,26.12,2026-05-21 16:59:43.580,2,-1.092834,-0.367875,9.671679000000001,-0.7,-0.1,-1.2
20.36,26.14,2026-05-21 16:59:43.600,2,-1.2399840000000002,-0.322749,9.714843,0.2,0.5,0.4
20.38,26.16,2026-05-21 16:59:43.620,2,-1.2556800000000001,-0.34335000000000004,9.706995000000001,-0.3,-1.2,-2.8
20.400000000000002,26.18,2026-05-21 16:59:43.640,2,-1.1762190000000001,-0.351198,9.727596,0.0,-0.5,-2.3
20.42,26.2,2026-05-21 16:59:43.660,2,-1.129131,-0.35904600000000003,9.737406,0.6,-0.4,-2.3
20.44,26.22,2026-05-21 16:59:43.680,2,-1.150713,-0.311958,9.82962,0.0,0.2,-1.0
20.46,26.24,2026-05-21 16:59:43.700,2,-1.2880530000000001,-0.289395,9.738387000000001,0.0,-0.7,-1.1
20.48,26.26,2026-05-21 16:59:43.720,2,-1.227231,-0.31490100000000004,9.730539,0.3,-0.9,-3.0
20.5,26.28,2026-05-21 16:59:43.740,2,-1.0879290000000001,-0.34531200000000006,9.80019,-0.3,-0.9,-2.9
20.52,26.3,2026-05-21 16:59:43.760,2,-1.142865,-0.361008,9.754083,-1.4,-1.2,-2.0
20.54,26.32,2026-05-21 16:59:43.780,2,-1.062423,-0.367875,9.783513000000001,1.1,-0.8,-2.7
20.56,26.34,2026-05-21 16:59:43.800,2,-1.1634660000000001,-0.288414,9.823734000000002,0.0,1.5,0.4
20.580000000000002,26.36,2026-05-21 16:59:43.820,2,-1.246851,-0.308034,9.703071,-0.9,-0.2,-0.9
20.6,26.38,2026-05-21 16:59:43.840,2,-1.1978010000000001,-0.371799,9.649116000000001,-0.2,-1.7,-2.0
20.62,26.4,2026-05-21 16:59:43.860,2,-1.16739,-0.30999600000000005,9.738387000000001,0.8,0.6,-1.3
20.64,26.42,2026-05-21 16:59:43.880,2,-1.1978010000000001,-0.26290800000000003,9.777627,0.6,0.4,-1.6
20.66,26.44,2026-05-21 16:59:43.900,2,-1.2184020000000002,-0.261927,9.79038,-0.5,-0.8,-1.4
20.68,26.46,2026-05-21 16:59:43.920,2,-1.19682,-0.293319,9.737406,-0.4,-1.6,-2.5
20.7,26.48,2026-05-21 16:59:43.940,2,-1.1310930000000001,-0.408096,9.681489000000001,0.5,0.3,-1.9
20.72,26.5,2026-05-21 16:59:43.960,2,-1.1850479999999999,-0.311958,9.789399000000001,1.2,0.8,-0.8
20.740000000000002,26.52,2026-05-21 16:59:43.980,2,-1.2184020000000002,-0.23544,9.824715000000001,0.0,-1.3,-2.5
20.76,26.54,2026-05-21 16:59:44.000,2,-1.120302,-0.339426,9.704052,-1.4,-2.8,-4.0
20.78,26.56,2026-05-21 16:59:44.020,2,-1.0231830000000002,-0.40711500000000006,9.796266000000001,-1.4,-1.1,-1.5
20.8,26.58,2026-05-21 16:59:44.040,2,-1.1781810000000001,-0.30411,9.813924,-2.4,-0.1,-0.5
20.82,26.6,2026-05-21 16:59:44.060,2,-1.126188,-0.26585100000000006,9.8310915,-1.6,-0.5499999999999999,-1.3
20.84,26.62,2026-05-21 16:59:44.080,2,-1.1654280000000001,-0.29626199999999997,9.756045,-1.6,0.3,-0.1
20.86,26.64,2026-05-21 16:59:44.100,2,-1.2880530000000001,-0.344331,9.663831,-0.3,-0.3,-0.8
20.88,26.66,2026-05-21 16:59:44.120,2,-1.215459,-0.396324,9.566712,0.5,-1.1,-3.2
20.900000000000002,26.68,2026-05-21 16:59:44.140,2,-1.2081015000000002,-0.3381997499999999,9.641022750000001,0.725,-0.55,-2.225
20.92,26.7,2026-05-21 16:59:44.160,2,-1.2007440000000003,-0.2800755,9.715333500000002,0.95,0.0,-1.25
20.94,26.72,2026-05-21 16:59:44.180,2,-1.20663,-0.278604,9.784494,0.9,-1.5,-2.2
20.96,26.74,2026-05-21 16:59:44.200,2,-1.148751,-0.302148,9.789399000000001,0.9,0.0,-2.1
20.98,26.76,2026-05-21 16:59:44.220,2,-1.151694,-0.283509,9.876707999999999,0.8,0.7,-1.8
21.0,26.78,2026-05-21 16:59:44.240,2,-1.162485,-0.332559,9.80019,-0.2,-0.3,-2.4
21.02,26.8,2026-05-21 16:59:44.260,2,-1.140903,-0.376704,9.801171,-1.3,-0.6,-2.3
21.04,26.82,2026-05-21 16:59:44.280,2,-1.1310930000000001,-0.41594400000000004,9.69228,-0.2,0.4,-1.2
21.06,26.84,2026-05-21 16:59:44.300,2,-1.143846,-0.318825,9.72171,0.3,0.3,-0.4
21.080000000000002,26.86,2026-05-21 16:59:44.320,2,-1.183086,-0.24525000000000002,9.846297000000002,-0.6,-0.5,-0.8
21.1,26.88,2026-05-21 16:59:44.340,2,-1.26549,-0.21385800000000002,9.786456000000001,-1.0,-0.2,-1.1
21.12,26.9,2026-05-21 16:59:44.360,2,-1.2517559999999999,-0.27468000000000004,9.746235,-1.2,-0.7,-2.8
21.14,26.92,2026-05-21 16:59:44.380,2,-1.2174209999999999,-0.29626199999999997,9.756045,-0.8,0.3,-1.3
21.16,26.94,2026-05-21 16:59:44.400,2,-1.3223880000000001,-0.28547100000000003,9.664812000000001,-0.2,0.0,-1.5
21.18,26.96,2026-05-21 16:59:44.420,2,-1.135017,-0.39338100000000004,9.622629,0.1,-0.7,-4.1
21.2,26.98,2026-05-21 16:59:44.440,2,-1.103625,-0.344331,9.655002000000001,1.3,1.6,0.3
21.22,27.0,2026-05-21 16:59:44.460,2,-1.3135590000000001,-0.201105,9.80019,1.0,0.2,-0.8
21.240000000000002,27.02,2026-05-21 16:59:44.480,2,-1.2792240000000001,-0.251136,9.735444,0.1,-2.1,-4.5
21.26,27.04,2026-05-21 16:59:44.500,2,-1.050651,-0.37081800000000004,9.769779,0.5,-0.7,-2.9
21.28,27.06,2026-05-21 16:59:44.520,2,-1.130112,-0.306072,9.82962,1.1,1.3,-0.2
21.3,27.08,2026-05-21 16:59:44.540,2,-1.158561,-0.315882,9.84924,-0.2,-1.2,-3.2
21.32,27.1,2026-05-21 16:59:44.560,2,-1.045746,-0.36002700000000004,9.772722000000002,-0.9,-1.0,-2.0
21.34,27.12,2026-05-21 16:59:44.580,2,-1.127169,-0.2943,9.763893,-0.6,1.7,0.9
21.36,27.14,2026-05-21 16:59:44.600,2,-1.342008,-0.23347800000000002,9.706995000000001,1.4,1.8,-0.9
21.38,27.16,2026-05-21 16:59:44.620,2,-1.26549,-0.256041,9.774684,-0.1,0.0,-4.2
21.400000000000002,27.18,2026-05-21 16:59:44.640,2,-1.130112,-0.33354000000000006,9.72171,-0.3,0.1,-1.1
21.42,27.2,2026-05-21 16:59:44.660,2,-1.3135590000000001,-0.266832,9.710919,-0.5,0.1,1.5
21.44,27.22,2026-05-21 16:59:44.680,2,-1.3390650000000002,-0.23642100000000002,9.683451,-0.1,-0.7,-3.1
21.46,27.24,2026-05-21 16:59:44.700,2,-1.229193,-0.23151600000000003,9.816867000000002,0.1,-0.2,-3.3
21.48,27.26,2026-05-21 16:59:44.720,2,-1.158561,-0.293319,9.703071,-0.7,0.4,-2.5
21.5,27.28,2026-05-21 16:59:44.740,2,-1.211535,-0.327654,9.734463,-0.3,0.4,-0.7
21.52,27.3,2026-05-21 16:59:44.760,2,-1.202706,-0.282528,9.713862,-0.3,-0.3,-0.4
21.54,27.32,2026-05-21 16:59:44.780,2,-1.2174209999999999,-0.321768,9.683451,0.5,0.2,-2.7
21.56,27.34,2026-05-21 16:59:44.800,2,-1.248813,-0.19914300000000004,9.841392,1.0,0.8,-0.7
21.580000000000002,27.36,2026-05-21 16:59:44.820,2,-1.261566,-0.17167500000000002,9.889461,-0.7,-0.4,-1.3
21.6,27.38,2026-05-21 16:59:44.840,2,-1.233117,-0.34236900000000003,9.698166,-2.0,-0.8,-3.7
21.62,27.4,2026-05-21 16:59:44.860,2,-1.065366,-0.447336,9.738387000000001,-1.1,-1.4,-2.7
21.64,27.42,2026-05-21 16:59:44.880,2,-1.132074,-0.288414,9.94734,-1.3,-0.9,1.6
21.66,27.44,2026-05-21 16:59:44.900,2,-1.2998250000000002,-0.142245,9.953226,-2.7,0.5,0.1
21.68,27.46,2026-05-21 16:59:44.920,2,-1.2968819999999999,-0.21778200000000003,9.833544,-3.1,0.2,-2.7
21.7,27.48,2026-05-21 16:59:44.940,2,-1.2890340000000002,-0.326673,9.69228,-2.7,-1.2,-2.5
21.72,27.5,2026-05-21 16:59:44.960,2,-1.2174209999999999,-0.38945700000000005,9.571617,-1.9,-0.5,-1.9
21.740000000000002,27.52,2026-05-21 16:59:44.980,2,-1.3174830000000002,-0.317844,9.588294,-0.9,0.0,-1.3
21.76,27.54,2026-05-21 16:59:45.000,2,-1.320426,-0.28547100000000003,9.625572000000002,-0.4,-0.9,-2.6
21.78,27.56,2026-05-21 16:59:45.020,2,-1.2233070000000001,-0.28547100000000003,9.686394,0.1,-0.9,-2.6
21.8,27.58,2026-05-21 16:59:45.040,2,-1.2821669999999998,-0.261927,9.726615,0.5,0.0,-0.5
21.82,27.6,2026-05-21 16:59:45.060,2,-1.3194450000000002,-0.18246600000000002,9.805095000000001,0.3,-0.4,-2.4
21.84,27.62,2026-05-21 16:59:45.080,2,-1.230174,-0.26290800000000003,9.821772000000001,-0.3,-0.6,-3.5
21.86,27.64,2026-05-21 16:59:45.100,2,-1.1634660000000001,-0.361008,9.772722000000002,-0.9,-0.3,-2.7
21.88,27.66,2026-05-21 16:59:45.120,2,-1.142865,-0.39926700000000004,9.815885999999999,-0.7,-1.0,-3.2
21.900000000000002,27.68,2026-05-21 16:59:45.140,2,-1.0830240000000002,-0.42183,9.80019,-1.4,-0.1,-1.6
21.92,27.7,2026-05-21 16:59:45.160,2,-1.168371,-0.3296160000000001,9.777627,-1.0,0.6,-0.2
21.94,27.72,2026-05-21 16:59:45.180,2,-1.2184020000000002,-0.28449,9.801171,-1.1,-1.1,-2.5
21.96,27.74,2026-05-21 16:59:45.200,2,-1.207611,-0.3296160000000001,9.772722000000002,-1.8,-1.1,-1.6
21.98,27.76,2026-05-21 16:59:45.220,2,-1.2880530000000001,-0.311958,9.699147,-1.2,1.0,-0.5
22.0,27.78,2026-05-21 16:59:45.240,2,-1.3635900000000003,-0.306072,9.666774,-0.9,0.4,-3.0
22.02,27.8,2026-05-21 16:59:45.260,2,-1.2507750000000002,-0.331578,9.677565000000001,-0.8,-1.0,-2.2
22.04,27.82,2026-05-21 16:59:45.280,2,-1.232136,-0.310977,9.745254,-0.7,-1.5,-0.9
22.06,27.84,2026-05-21 16:59:45.300,2,-1.2841290000000003,-0.31293899999999997,9.753102000000002,-0.7,0.0,-1.8
22.080000000000002,27.86,2026-05-21 16:59:45.320,2,-1.2880530000000001,-0.31686299999999995,9.697185000000001,-0.1,0.7,-3.1
22.1,27.88,2026-05-21 16:59:45.340,2,-1.272357,-0.268794,9.818829,0.0,0.0,-2.3
22.12,27.9,2026-05-21 16:59:45.360,2,-1.227231,-0.30509100000000006,9.777627,-1.8,-2.1,-3.2
22.14,27.92,2026-05-21 16:59:45.380,2,-1.112454,-0.394362,9.700128,-1.0,-0.5,-2.9
22.16,27.94,2026-05-21 16:59:45.400,2,-1.1153970000000002,-0.36591300000000004,9.735444,-0.5,0.4,-2.4
22.18,27.96,2026-05-21 16:59:45.420,2,-1.233117,-0.35414100000000004,9.644211,0.0,1.0,-1.6
22.2,27.98,2026-05-21 16:59:45.440,2,-1.2596040000000002,-0.301167,9.72171,-0.1,-0.4,-1.7
22.22,28.0,2026-05-21 16:59:45.460,2,-1.2399840000000002,-0.261927,9.838448999999999,-0.3,-1.4,-2.3
22.240000000000002,28.02,2026-05-21 16:59:45.480,2,-1.2233070000000001,-0.320787,9.803133,-1.5,-0.7,-2.4
22.26,28.04,2026-05-21 16:59:45.500,2,-1.20663,-0.33746400000000004,9.718767000000001,-0.7,0.3,-2.0
22.28,28.06,2026-05-21 16:59:45.520,2,-1.2939390000000002,-0.37081800000000004,9.729557999999999,-0.3,0.7,-0.6
22.3,28.08,2026-05-21 16:59:45.540,2,-1.34397,-0.320787,9.764874,-0.6,-0.9,-2.0
22.32,28.1,2026-05-21 16:59:45.560,2,-1.2360600000000002,-0.381609,9.752121,-0.9,-2.5,-4.1
22.34,28.12,2026-05-21 16:59:45.580,2,-1.159542,-0.367875,9.778608,-1.0,-0.3,-2.5
22.36,28.14,2026-05-21 16:59:45.600,2,-1.277262,-0.256041,9.802152000000001,-1.3,0.5,-1.1
22.38,28.16,2026-05-21 16:59:45.620,2,-1.352799,-0.38847600000000004,9.599085,-1.3,-1.6,-3.9
22.400000000000002,28.18,2026-05-21 16:59:45.640,2,-1.2448890000000001,-0.508158,9.572598000000001,0.3,-1.6,-5.0
22.42,28.2,2026-05-21 16:59:45.660,2,-1.202706,-0.42084900000000003,9.602028,1.0,-0.1,-2.0
22.44,28.22,2026-05-21 16:59:45.680,2,-1.234098,-0.328635,9.595161000000001,2.1,-0.2,-0.2
22.46,28.24,2026-05-21 16:59:45.700,2,-1.229193,-0.19325699999999998,9.987561000000001,1.2,-1.2,-0.8
22.48,28.26,2026-05-21 16:59:45.720,2,-1.211535,-0.204048,9.962055000000001,-1.6,-1.1,-0.4
22.5,28.28,2026-05-21 16:59:45.740,2,-1.228212,-0.241326,9.881613,-1.6,-0.2,-1.1
22.52,28.3,2026-05-21 16:59:45.760,2,-1.2213450000000001,-0.26487,9.833544,-1.6,0.5,-3.2
22.54,28.32,2026-05-21 16:59:45.780,2,-1.1909340000000002,-0.38553299999999996,9.628515,-2.4,-0.8,-2.8
22.56,28.34,2026-05-21 16:59:45.800,2,-1.1546370000000001,-0.512082,9.511776000000001,-1.5,-2.4,-2.1
22.580000000000002,28.36,2026-05-21 16:59:45.820,2,-1.227231,-0.45224100000000006,9.544149,1.5,0.2,-0.1
22.6,28.38,2026-05-21 16:59:45.840,2,-1.2429270000000001,-0.320787,9.70209,2.3,0.6,-0.9
22.62,28.4,2026-05-21 16:59:45.860,2,-1.2703950000000002,-0.251136,9.869841000000001,1.2,-0.8,0.0
22.64,28.42,2026-05-21 16:59:45.880,2,-1.34397,-0.22857300000000003,9.834525,0.6,-1.0,-0.6
22.66,28.44,2026-05-21 16:59:45.900,2,-1.2753,-0.27468000000000004,9.82962,0.5,-0.7,-4.5
22.68,28.46,2026-05-21 16:59:45.920,2,-1.143846,-0.34531200000000006,9.805095000000001,-0.5,0.1,-3.1
22.7,28.48,2026-05-21 16:59:45.940,2,-1.2399840000000002,-0.391419,9.7045425,-0.8,-1.6,-2.35
22.72,28.5,2026-05-21 16:59:45.960,2,-1.1813692500000001,-0.37400625,9.737406,-0.35000000000000003,-1.0750000000000002,-1.9500000000000002
22.740000000000002,28.52,2026-05-21 16:59:45.980,2,-1.1227545,-0.3565935,9.770269500000001,0.09999999999999998,-0.55,-1.55
22.76,28.54,2026-05-21 16:59:46.000,2,-1.228212,-0.28645200000000004,9.832563,-2.0,-1.7,-2.9
22.78,28.56,2026-05-21 16:59:46.020,2,-1.1634660000000001,-0.408096,9.623610000000001,-2.0,-0.7,-2.1
22.8,28.58,2026-05-21 16:59:46.040,2,-1.132074,-0.43164,9.582408000000001,-1.3,0.9,0.2
22.82,28.6,2026-05-21 16:59:46.060,2,-1.2998250000000002,-0.290376,9.640287,0.1,0.8,1.8
22.84,28.62,2026-05-21 16:59:46.080,2,-1.389096,-0.23053500000000002,9.680508,0.6,-1.2,-2.2
22.86,28.64,2026-05-21 16:59:46.100,2,-1.212516,-0.28056600000000004,9.769779,0.0,-1.0,-3.6
22.88,28.66,2026-05-21 16:59:46.120,2,-1.1978010000000001,-0.334521,9.693261,-0.2,0.1,-1.0
22.900000000000002,28.68,2026-05-21 16:59:46.140,2,-1.20663,-0.322749,9.720729,0.0,-1.0,-1.1
22.92,28.7,2026-05-21 16:59:46.160,2,-1.1546370000000001,-0.38357100000000005,9.738387000000001,0.7,-0.3,-1.1
22.94,28.72,2026-05-21 16:59:46.180,2,-1.227231,-0.349236,9.818829,0.8,0.3,-0.5
22.96,28.74,2026-05-21 16:59:46.200,2,-1.276281,-0.340407,9.852183,0.3,-0.4,-2.1
22.98,28.76,2026-05-21 16:59:46.220,2,-1.2497940000000003,-0.40417200000000003,9.764874,-0.4,-1.2,-1.0
23.0,28.78,2026-05-21 16:59:46.240,2,-1.2674519999999998,-0.320787,10.002276000000002,-0.1,-1.5,-0.3
23.02,28.8,2026-05-21 16:59:46.260,2,-1.224288,-0.38062799999999997,9.951264,-2.8,-2.3,-2.1
23.04,28.82,2026-05-21 16:59:46.280,2,-1.038879,-0.47284200000000004,9.807057,-3.4,-3.0,-2.5
23.06,28.84,2026-05-21 16:59:46.300,2,-1.151694,-0.5493600000000001,9.46665,-1.6,-0.9,-0.1
23.080000000000002,28.86,2026-05-21 16:59:46.320,2,-1.408716,-0.424773,9.416619,-0.3,-1.3,0.8
23.1,28.88,2026-05-21 16:59:46.340,2,-1.3979249999999999,-0.437526,9.376398,1.2,-4.4,-0.7
23.12,28.9,2026-05-21 16:59:46.360,2,-1.390077,-0.349236,9.548073,3.1,-4.0,2.0
23.14,28.92,2026-05-21 16:59:46.380,2,-1.5303600000000002,-0.06768900000000001,9.799209000000001,4.3,-1.7,0.6
23.16,28.94,2026-05-21 16:59:46.400,2,-1.5382080000000002,0.020601000000000005,9.930663000000001,2.9,-2.9,-3.2
23.18,28.96,2026-05-21 16:59:46.420,2,-1.2968819999999999,0.001962,10.058193,0.9,-4.6,-5.4
23.2,28.98,2026-05-21 16:59:46.440,2,-1.1860290000000002,0.031392,10.171989000000002,-1.0,-2.3,-3.8
23.22,29.0,2026-05-21 16:59:46.460,2,-1.041822,-0.111834,9.967941,-3.2,-1.5,-7.6
23.240000000000002,29.02,2026-05-21 16:59:46.480,2,-0.6906240000000001,-0.39338100000000004,9.734463,-3.6,-2.6,-8.4
23.26,29.04,2026-05-21 16:59:46.500,2,-0.702396,-0.535626,9.609876,-2.6,0.4,-0.6
23.28,29.06,2026-05-21 16:59:46.520,2,-0.962361,-0.47088,9.474498,-1.3,1.5,2.4
23.3,29.08,2026-05-21 16:59:46.540,2,-1.15758,-0.295281,9.617723999999999,0.9,-2.1,-2.3
23.32,29.1,2026-05-21 16:59:46.560,2,-0.950589,-0.308034,9.806076000000001,1.1,-3.7,-3.0
23.34,29.12,2026-05-21 16:59:46.580,2,-0.9084059999999999,-0.357084,9.862974000000001,0.1,-2.8,0.4
23.36,29.14,2026-05-21 16:59:46.600,2,-0.910368,-0.440469,9.775665000000002,0.2,-2.3,-0.6
23.38,29.16,2026-05-21 16:59:46.620,2,-0.9084059999999999,-0.45910799999999996,9.746235,0.9,-1.3,0.1
23.400000000000002,29.18,2026-05-21 16:59:46.640,2,-1.0781190000000003,-0.367875,9.710919,1.2,0.0,3.4
23.42,29.2,2026-05-21 16:59:46.660,2,-1.309635,-0.26388900000000004,9.757026000000002,0.9,-1.8,1.3
23.44,29.22,2026-05-21 16:59:46.680,2,-1.240965,-0.234459,9.844335000000001,1.1,-2.5,-0.4
23.46,29.24,2026-05-21 16:59:46.700,2,-1.1762190000000001,-0.16284600000000002,9.908100000000001,1.0,-1.6,-0.4
23.48,29.26,2026-05-21 16:59:46.720,2,-1.164447,-0.15009300000000003,9.95715,0.2,-0.7,0.0
23.5,29.28,2026-05-21 16:59:46.740,2,-1.1458080000000002,-0.22857300000000003,9.768798,-1.2,0.1,-0.6
23.52,29.3,2026-05-21 16:59:46.760,2,-1.1654280000000001,-0.348255,9.618705,-0.8,0.0,-0.3
23.54,29.32,2026-05-21 16:59:46.780,2,-1.19682,-0.405153,9.611838,0.2,-0.2,0.3
23.56,29.34,2026-05-21 16:59:46.800,2,-1.2684330000000001,-0.32569200000000004,9.628515,1.0,0.1,1.1
23.580000000000002,29.36,2026-05-21 16:59:46.820,2,-1.328274,-0.173637,9.803133,0.9,-0.9,0.3
23.6,29.38,2026-05-21 16:59:46.840,2,-1.3174830000000002,-0.155979,9.850221000000001,0.0,-0.4,-1.6
23.62,29.4,2026-05-21 16:59:46.860,2,-1.243908,-0.26977500000000004,9.724653,-0.6,-0.1,-3.6
23.64,29.42,2026-05-21 16:59:46.880,2,-1.1889720000000001,-0.308034,9.736425,0.0,-0.3,-1.8
23.66,29.44,2026-05-21 16:59:46.900,2,-1.215459,-0.23347800000000002,9.717786,1.0,0.1,-1.5
23.68,29.46,2026-05-21 16:59:46.920,2,-1.273338,-0.17167500000000002,9.723672,0.3,0.0,-3.3
23.7,29.48,2026-05-21 16:59:46.940,2,-1.193877,-0.1962,9.777627,0.6,-1.8,-4.9
23.72,29.5,2026-05-21 16:59:46.960,2,-1.029069,-0.198162,9.895347000000003,1.3,-2.9,-5.5
23.740000000000002,29.52,2026-05-21 16:59:46.980,2,-0.9456840000000001,-0.239364,9.924777,0.2,-1.4,-4.8
23.76,29.54,2026-05-21 16:59:47.000,2,-0.9260640000000001,-0.253098,9.813924,-0.1,-0.7,-4.4
23.78,29.56,2026-05-21 16:59:47.020,2,-0.915273,-0.24230700000000002,9.861012,-0.1,-2.2,-3.6
23.8,29.58,2026-05-21 16:59:47.040,2,-0.8711280000000001,-0.22563,9.893385,-1.1,-2.0,-2.6
23.82,29.6,2026-05-21 16:59:47.060,2,-0.874071,-0.250155,9.835506,-1.3,-0.7,-2.7
23.84,29.62,2026-05-21 16:59:47.080,2,-0.860337,-0.289395,9.749177999999999,-1.3,-0.9,-2.8
23.86,29.64,2026-05-21 16:59:47.100,2,-0.9358740000000002,-0.30411,9.660888,-1.6,-1.0,-0.2
23.88,29.66,2026-05-21 16:59:47.120,2,-0.9535320000000002,-0.38945700000000005,9.512757,-0.3,-0.7,-0.8
23.900000000000002,32.68,2026-05-21 16:59:50.140,3,-1.1248332857142858,-0.22011771428571428,9.75090642857143,0.5666666666666667,-0.4904761904761904,-1.9142857142857144
23.92,32.7,2026-05-21 16:59:50.160,3,-1.1520135681818182,-0.24379336363636367,9.760429772727273,-0.47121212121212125,-0.28257575757575754,-1.756060606060606
23.94,32.72,2026-05-21 16:59:50.180,3,-1.24587,-0.10104300000000001,9.798228,0.4,-0.05000000000000002,-0.25
23.96,32.74,2026-05-21 16:59:50.200,3,-1.328274,-0.11477699999999999,9.79038,0.7,0.1,-1.5
23.98,32.76,2026-05-21 16:59:50.220,3,-1.273338,-0.175599,9.78057,0.0,-0.6,-2.7
24.0,32.78,2026-05-21 16:59:50.240,3,-1.272357,-0.180504,9.786456000000001,0.0,-0.3,-2.4
24.02,32.8,2026-05-21 16:59:50.260,3,-1.183086,-0.206991,9.811962,0.0,-0.9,-3.1
24.04,32.82,2026-05-21 16:59:50.280,3,-1.099701,-0.248193,9.821772000000001,-0.6,-0.5,-2.3
24.060000000000002,32.84,2026-05-21 16:59:50.300,3,-1.1183400000000001,-0.267813,9.807057,-0.3,0.3,-1.6
24.080000000000002,32.86,2026-05-21 16:59:50.320,3,-1.1546370000000001,-0.24721200000000002,9.779589000000001,-0.7,-0.5,-1.7
24.1,32.88,2026-05-21 16:59:50.340,3,-1.20663,-0.234459,9.713862,-1.4,-1.2,-0.7
24.12,32.9,2026-05-21 16:59:50.360,3,-1.213497,-0.28547100000000003,9.620667000000001,-0.6,-0.8,-1.9
24.14,32.92,2026-05-21 16:59:50.380,3,-1.179162,-0.222687,9.691299,0.7,0.3,-1.0
24.16,32.94,2026-05-21 16:59:50.400,3,-1.2939390000000002,-0.10889100000000002,9.795285000000002,0.3,0.2,0.0
24.18,32.96,2026-05-21 16:59:50.420,3,-1.31454,-0.08829,9.792342000000001,-0.9,-1.6,-2.0
24.2,32.98,2026-05-21 16:59:50.440,3,-1.352799,-0.152055,9.724653,-0.8,-1.2,-3.0
24.22,33.0,2026-05-21 16:59:50.460,3,-1.204668,-0.180504,9.778608,-1.9,-1.9,-3.4
24.240000000000002,33.02,2026-05-21 16:59:50.480,3,-1.090872,-0.21582,9.758007000000001,-2.4,-1.4,-2.0
24.26,33.04,2026-05-21 16:59:50.500,3,-1.072233,-0.257022,9.720729,-2.1,-1.0,-1.4
24.28,33.06,2026-05-21 16:59:50.520,3,-1.143846,-0.26977500000000004,9.746235,-1.7,-1.3,-0.8
24.3,33.08,2026-05-21 16:59:50.540,3,-1.112454,-0.17952300000000002,9.889461,-0.9,-0.7,-1.0
24.32,33.1,2026-05-21 16:59:50.560,3,-1.193877,-0.11085300000000002,9.830601,-1.2,0.6,-1.4
24.34,33.12,2026-05-21 16:59:50.580,3,-1.164447,-0.24034500000000003,9.748197000000001,-2.5,-2.0,-2.6
24.36,33.14,2026-05-21 16:59:50.600,3,-1.140903,-0.34236900000000003,9.551997,-1.4,-2.4,-1.3
24.38,33.16,2026-05-21 16:59:50.620,3,-1.2174209999999999,-0.340407,9.534339000000001,1.0,0.0,-1.2
24.400000000000002,33.18,2026-05-21 16:59:50.640,3,-1.1870100000000001,-0.17756100000000002,9.742311,2.0,0.0,-1.8
24.42,33.2,2026-05-21 16:59:50.660,3,-1.212516,-0.149112,9.799209000000001,0.4,-1.6,-0.3
24.44,33.22,2026-05-21 16:59:50.680,3,-1.2507750000000002,-0.15009300000000003,9.850221000000001,0.0,-0.6,-1.1
24.46,33.24,2026-05-21 16:59:50.700,3,-1.26549,-0.239364,9.710919,-0.1,0.3,-2.7
24.48,33.26,2026-05-21 16:59:50.720,3,-1.173276,-0.181485,9.789399000000001,0.3,-1.0,-3.0
24.5,33.28,2026-05-21 16:59:50.740,3,-1.124226,-0.21582,9.764874,-0.2,-0.8,-2.0
24.52,33.3,2026-05-21 16:59:50.760,3,-1.153656,-0.244269,9.79038,-0.3,0.7,-1.4
24.54,33.32,2026-05-21 16:59:50.780,3,-1.130112,-0.29724300000000003,9.681489000000001,0.0,-0.3,-2.0
24.560000000000002,33.34,2026-05-21 16:59:50.800,3,-1.092834,-0.282528,9.772722000000002,0.2,-1.0,-1.8
24.580000000000002,33.36,2026-05-21 16:59:50.820,3,-1.121283,-0.17658,9.803133,0.1,0.0,0.4
24.6,33.38,2026-05-21 16:59:50.840,3,-1.248813,-0.09123300000000001,9.904176000000001,-0.3,0.6,-1.9
24.62,33.4,2026-05-21 16:59:50.860,3,-1.1781810000000001,-0.20797200000000002,9.724653,-1.7,-0.8,-3.4
24.64,33.42,2026-05-21 16:59:50.880,3,-1.116378,-0.268794,9.622629,-0.8,-1.3,-0.9
24.66,33.44,2026-05-21 16:59:50.900,3,-1.215459,-0.18737100000000004,9.710919,0.1,0.3,-1.2
24.68,33.46,2026-05-21 16:59:50.920,3,-1.243908,-0.136359,9.756045,0.6,0.7,-1.9
24.7,33.48,2026-05-21 16:59:50.940,3,-1.2988440000000003,-0.10594800000000001,9.826677,-0.5,-0.7,-1.8
24.72,33.5,2026-05-21 16:59:50.960,3,-1.2684330000000001,-0.11673900000000001,9.843354000000001,-0.8,-2.2,-3.6
24.740000000000002,33.52,2026-05-21 16:59:50.980,3,-1.127169,-0.22661100000000003,9.805095000000001,-0.7,-0.3,-3.9
24.76,33.54,2026-05-21 16:59:51.000,3,-1.175238,-0.20208600000000002,9.808038,-1.2,1.3,-2.9
24.78,33.56,2026-05-21 16:59:51.020,3,-1.184067,-0.24034500000000003,9.727596,-1.5,-0.2,-3.9
24.8,33.58,2026-05-21 16:59:51.040,3,-1.0604609999999999,-0.31490100000000004,9.667755000000001,-1.3,-1.2,-2.7
24.82,33.6,2026-05-21 16:59:51.060,3,-1.091853,-0.34335000000000004,9.602028,-0.9,0.0,-0.3
24.84,33.62,2026-05-21 16:59:51.080,3,-1.208592,-0.26487,9.683451,0.9,0.1,-1.0
24.86,33.64,2026-05-21 16:59:51.100,3,-1.234098,-0.19227600000000003,9.778608,0.8,0.0,-1.9
24.88,33.66,2026-05-21 16:59:51.120,3,-1.174257,-0.22857300000000003,9.72171,0.0,-0.5,-2.4
24.900000000000002,33.68,2026-05-21 16:59:51.140,3,-1.116378,-0.25506,9.754083,0.0,-0.8,-0.9
24.92,33.7,2026-05-21 16:59:51.160,3,-1.213497,-0.212877,9.759969,0.2,-0.2,-0.2
24.94,33.72,2026-05-21 16:59:51.180,3,-1.208592,-0.20208600000000002,9.769779,0.6,0.0,-2.1
24.96,33.74,2026-05-21 16:59:51.200,3,-1.201725,-0.205029,9.823734000000002,0.0,0.4,-1.6
24.98,33.76,2026-05-21 16:59:51.220,3,-1.224288,-0.201105,9.799209000000001,-0.1,-0.1,-1.6
25.0,33.78,2026-05-21 16:59:51.240,3,-1.2890340000000002,-0.155979,9.850221000000001,-0.7,-0.1,-2.2
25.02,33.8,2026-05-21 16:59:51.260,3,-1.2703950000000002,-0.142245,9.777627,-1.3,0.0,-3.7
25.04,33.82,2026-05-21 16:59:51.280,3,-1.22625,-0.19914300000000004,9.844335000000001,-0.6,-0.1,-4.2
25.060000000000002,33.84,2026-05-21 16:59:51.300,3,-1.3027680000000001,-0.18540900000000002,9.887499,-0.3,1.8,-2.4
25.080000000000002,33.86,2026-05-21 16:59:51.320,3,-1.257642,-0.17952300000000002,9.683451,2.7,3.3,-5.6
25.1,33.88,2026-05-21 16:59:51.340,3,-1.034955,-0.17167500000000002,9.817848,0.3,3.5,-7.0
25.12,33.9,2026-05-21 16:59:51.360,3,-1.016316,-0.310977,9.681489000000001,-3.9,-0.2,-1.9
25.14,33.92,2026-05-21 16:59:51.380,3,-1.0947959999999999,-0.36591300000000004,9.534339000000001,-3.7,-3.2,0.2
25.16,33.94,2026-05-21 16:59:51.400,3,-1.114416,-0.2943,9.569655000000001,-0.9,0.0,-1.9
25.18,33.96,2026-05-21 16:59:51.420,3,-1.148751,-0.18246600000000002,9.696204,0.0,2.4,0.0
25.2,33.98,2026-05-21 16:59:51.440,3,-1.333179,-0.132435,9.693261,-0.4,-1.7,1.2
25.22,34.0,2026-05-21 16:59:51.460,3,-1.29492,-0.214839,9.625572000000002,-0.7,-3.7,-1.4
25.240000000000002,34.02,2026-05-21 16:59:51.480,3,-1.173276,-0.28056600000000004,9.596142,1.2,0.1,-1.0
25.26,34.04,2026-05-21 16:59:51.500,3,-1.180143,-0.251136,9.629496000000001,2.0,1.0,0.4
25.28,34.06,2026-05-21 16:59:51.520,3,-1.3841910000000002,-0.112815,9.788418,1.8,-0.5,0.2
25.3,34.08,2026-05-21 16:59:51.540,3,-1.3135590000000001,-0.132435,9.85905,0.4,-2.4,-3.2
25.32,34.1,2026-05-21 16:59:51.560,3,-1.2546990000000002,-0.209934,9.818829,0.0,-0.7,-1.8
25.34,34.12,2026-05-21 16:59:51.580,3,-1.2684330000000001,-0.19031399999999998,9.824715000000001,0.0,-0.1,-1.2
25.36,34.14,2026-05-21 16:59:51.600,3,-1.2792240000000001,-0.20797200000000002,9.857088,-0.1,-0.8,-2.7
25.38,34.16,2026-05-21 16:59:51.620,3,-1.152675,-0.29626199999999997,9.805095000000001,-1.1,-0.6,-3.3
25.400000000000002,34.18,2026-05-21 16:59:51.640,3,-1.1369790000000002,-0.307053,9.761931,-1.3,-0.1,-1.4
25.42,34.2,2026-05-21 16:59:51.660,3,-1.1860290000000002,-0.30999600000000005,9.642249,-1.2,-1.3,-1.5
25.44,34.22,2026-05-21 16:59:51.680,3,-1.1418840000000001,-0.22857300000000003,9.799209000000001,-0.6,-1.2,-1.8
