UTC_Time,Vin,TC1,TC2,Rh1,Vh1,Ah1,Acp1,Dty1,Err1,Rh2,Vh2,Ah2,Acp2,Dty2,Err2,Accel_x,Accel_y,Accel_z,gyro_x,gyro_y,gyro_z,Temp_c,Accel_x_h,Accel_y_h,Accel_z_h,gyro_x_h,gyro_y_h,gyro_z_h,
2026_06_10_18_16_02.360,3.863,28.6,0,0.755,0,0,0,0.01, ,0,0,0,0,0, ,812.6,463.2,343,-0.2,-0.6,-4.8,25,812.597,463.198,342.999,-0.199999,-0.599998,-4.79998,
2026_06_10_18_16_02.379,3.863,28.5,0,0.756,0,0,0,0.011, ,0,0,0,0,0, ,810.7,467.6,344.2,-1.3,-2.3,-4.6,25,812.54,463.333,343.035,-0.233515,-0.651795,-4.79389,
2026_06_10_18_16_02.399,3.863,28.5,0,0.758,0,0,0,0.012, ,0,0,0,0,0, ,812.7,466.3,333.2,0,-2,-3.8,25,812.488,463.553,342.771,-0.258895,-0.743092,-4.7577,
2026_06_10_18_16_02.419,3.863,28.4,0,0.757,0,0,0,0.012, ,0,0,0,0,0, ,810.5,465.4,339.2,-0.3,-2.3,-4.3,25,812.434,463.693,342.371,-0.252259,-0.828825,-4.71458,
2026_06_10_18_16_02.439,3.863,28.6,0,0.757,0,0,0,0.013, ,0,0,0,0,0, ,813.9,467.5,332,-0.9,-2.3,-4.1,25,812.42,463.861,341.958,-0.273449,-0.918475,-4.68322,
2026_06_10_18_16_02.459,3.863,28.5,0,0.755,0,0,0,0.012, ,0,0,0,0,0, ,811.1,470.7,336.4,0,-1.9,-3.8,25,812.425,464.18,341.485,-0.284208,-0.990474,-4.63854,
2026_06_10_18_16_02.479,3.863,28.5,0,0.757,0,0,0,0.013, ,0,0,0,0,0, ,812.3,469.6,333.1,0.5,-1.9,-3.5,25,812.381,464.544,341.075,-0.251655,-1.0459,-4.5783,
2026_06_10_18_16_02.499,3.863,28.4,0,0.758,0,0,0,0.013, ,0,0,0,0,0, ,812.2,468.8,332.5,0.1,-1.8,-3.6,25,812.373,464.828,340.571,-0.218038,-1.0949,-4.51564,
2026_06_10_18_16_02.519,3.863,28.5,0,0.757,0,0,0,0.014, ,0,0,0,0,0, ,810.3,468.6,336,0.4,-1.9,-3.5,25,812.304,465.064,340.186,-0.189517,-1.14091,-4.45679,
2026_06_10_18_16_02.539,3.863,28.6,0,0.758,0,0,0,0.013, ,0,0,0,0,0, ,811.4,471.9,331.9,-0.4,-2.3,-3.9,25,812.216,465.38,339.806,-0.177968,-1.19936,-4.41068,
2026_06_10_18_16_02.559,3.863,28.5,0,0.758,0,0,0,0.012, ,0,0,0,0,0, ,811,471.3,332.6,-0.2,-2.1,-3.4,25,812.154,465.759,339.345,-0.185405,-1.26033,-4.36432,
2026_06_10_18_16_02.578,3.863,28.6,0,0.758,0,0,0,0.013, ,0,0,0,0,0, ,810.3,471.8,330.6,0,-2.4,-3.2,25,812.062,466.112,338.873,-0.1802,-1.32064,-4.29947,
2026_06_10_18_16_02.598,3.863,28.5,0,0.758,0,0,0,0.013, ,0,0,0,0,0, ,812.7,468.1,327.2,0.3,-2.1,-3.6,25,812.028,466.346,338.265,-0.160079,-1.37727,-4.24465,
2026_06_10_18_16_02.617,3.863,28.4,0,0.757,0,0,0,0.014, ,0,0,0,0,0, ,810.7,474.8,324.8,1.1,-1,-3.9,25,812.008,466.657,337.518,-0.107668,-1.3878,-4.21451,
2026_06_10_18_16_02.637,3.863,28.4,0,0.759,0,0,0,0.015, ,0,0,0,0,0, ,809.2,481.5,330.2,0.2,-0.6,-3.3,25,811.883,467.357,336.908,-0.0614973,-1.35198,-4.17706,
2026_06_10_18_16_02.657,3.863,28.5,0,0.757,0,0,0,0.015, ,0,0,0,0,0, ,810.3,479.1,330.8,-0.6,-0.9,-2.1,25,811.753,468.146,336.517,-0.0699373,-1.3153,-4.08706,
2026_06_10_18_16_02.677,3.863,28.6,0,0.758,0,0,0,0.014, ,0,0,0,0,0, ,810.6,474.8,331.4,-1.1,-1,-2,25,811.673,468.682,336.187,-0.117472,-1.29304,-3.96292,
2026_06_10_18_16_02.697,3.863,28.5,0,0.759,0,0,0,0.013, ,0,0,0,0,0, ,810.7,468.6,326.2,-1.2,-0.8,-2.2,25,811.611,468.866,335.737,-0.180392,-1.26909,-3.8494,
2026_06_10_18_16_02.717,3.863,28.5,0,0.757,0,0,0,0.014, ,0,0,0,0,0, ,810.7,478.5,329.5,-0.2,-0.2,-2.3,25,811.555,469.152,335.256,-0.212056,-1.22222,-3.75194,
2026_06_10_18_16_02.736,3.863,28.6,0,0.759,0,0,0,0.014, ,0,0,0,0,0, ,809.4,476.4,338.1,-0.5,-1,-2.3,25,811.464,469.657,335.168,-0.220462,-1.1843,-3.66346,
2026_06_10_18_16_02.756,3.863,28.5,0,0.757,0,0,0,0.014, ,0,0,0,0,0, ,809,477.4,326.9,-0.3,-1.6,-1.8,25,811.326,470.099,335.005,-0.231402,-1.19135,-3.56514,
2026_06_10_18_16_02.776,3.863,28.5,0,0.757,0,0,0,0.015, ,0,0,0,0,0, ,809.2,480.9,331.2,-0.6,-1.7,-1.3,25,811.19,470.65,334.642,-0.244723,-1.2193,-3.44234,
2026_06_10_18_16_02.796,3.863,28.5,0,0.757,0,0,0,0.015, ,0,0,0,0,0, ,810.9,477.6,321.6,-1.3,-1.4,-0.7,25,811.121,471.174,334.14,-0.287701,-1.23945,-3.29351,
2026_06_10_18_16_02.816,3.863,28.6,0,0.758,0,0,0,0.015, ,0,0,0,0,0, ,812.8,468.3,321.6,-1.5,0,-1.2,25,811.165,471.282,333.376,-0.355482,-1.20658,-3.1507,
2026_06_10_18_16_02.836,3.863,28.5,0,0.758,0,0,0,0.014, ,0,0,0,0,0, ,810.3,474.4,325.4,-1,0.7,-1.7,25,811.188,471.287,332.774,-0.409991,-1.11173,-3.04707,
2026_06_10_18_16_02.856,3.863,28.6,0,0.758,0,0,0,0.015, ,0,0,0,0,0, ,809.9,473.1,332.5,-0.3,0.9,-1.8,25,811.122,471.437,332.541,-0.424617,-0.995231,-2.96803,
2026_06_10_18_16_02.876,3.863,28.6,0,0.757,0,0,0,0.015, ,0,0,0,0,0, ,808.2,476.1,332.8,-0.6,0,-1.5,25,810.996,471.629,332.548,-0.426164,-0.907163,-2.88771,
2026_06_10_18_16_02.895,3.863,28.6,0,0.758,0,0,0,0.015, ,0,0,0,0,0, ,808.4,472.7,336.4,-1.1,-0.8,-1.7,25,810.832,471.798,332.673,-0.451991,-0.876257,-2.80924,
2026_06_10_18_16_02.915,3.863,28.6,0,0.758,0,0,0,0.015, ,0,0,0,0,0, ,810.3,472.7,333.8,-1.8,-2.1,-2.5,25,810.741,471.853,332.821,-0.512807,-0.91122,-2.76602,
2026_06_10_18_16_02.934,3.863,28.6,0,0.757,0,0,0,0.015, ,0,0,0,0,0, ,810.3,482.4,329.3,-2,-2.4,-2.1,25,810.714,472.2,332.743,-0.597339,-0.992802,-2.73762,
2026_06_10_18_16_02.954,3.863,28.6,0,0.759,0,0,0,0.015, ,0,0,0,0,0, ,809.8,477.4,322.8,-4.2,-2.8,-0.8,25,810.674,472.67,332.335,-0.749845,-1.09074,-2.65916,
2026_06_10_18_16_02.974,3.863,28.6,0,0.756,0,0,0,0.015, ,0,0,0,0,0, ,809.8,480.7,327.6,-2.7,-2.1,0.1,25,810.621,473.058,331.9,-0.914386,-1.17357,-2.51844,
2026_06_10_18_16_02.995,3.863,28.6,0,0.757,0,0,0,0.016, ,0,0,0,0,0, ,811.1,475.2,327.3,-2.8,-1.3,0.4,25,810.61,473.356,331.629,-1.02624,-1.20565,-2.34974,
2026_06_10_18_16_03.014,3.863,28.6,0,0.758,0,0,0,0.016, ,0,0,0,0,0, ,813.3,472.9,321.4,-1.8,-0.8,0.9,25,810.707,473.399,331.186,-1.10386,-1.19616,-2.16695,
2026_06_10_18_16_03.034,3.863,28.6,0,0.758,0,0,0,0.016, ,0,0,0,0,0, ,815.9,463.8,318.2,-1.7,0.6,0.5,25,810.944,473.091,330.492,-1.14324,-1.12937,-1.99224,
2026_06_10_18_16_03.054,3.863,28.6,0,0.757,0,0,0,0.016, ,0,0,0,0,0, ,813.2,469.9,321.2,-0.6,2.4,0,25,811.164,472.711,329.834,-1.14365,-0.96914,-1.8556,
2026_06_10_18_16_03.074,3.863,28.6,0,0.757,0,0,0,0.016, ,0,0,0,0,0, ,811.1,470,338.9,-0.7,2,0,25,811.224,472.543,329.847,-1.11357,-0.776021,-1.74253,
2026_06_10_18_16_03.093,3.863,28.6,0,0.757,0,0,0,0.016, ,0,0,0,0,0, ,813.8,463.2,332,-0.9,1.1,-0.5,25,811.299,472.18,330.189,-1.09446,-0.634279,-1.65158,
2026_06_10_18_16_03.113,3.863,28.6,0,0.759,0,0,0,0.016, ,0,0,0,0,0, ,813.8,460.3,337.8,-0.1,0.7,-2,25,811.451,471.545,330.476,-1.05823,-0.540784,-1.62711,
2026_06_10_18_16_03.135,3.863,28.7,0,0.756,0,0,0,0.017, ,0,0,0,0,0, ,810.5,468.9,340,-0.3,-0.6,-2.8,25,811.494,471.122,330.989,-1.00594,-0.504783,-1.6742,
2026_06_10_18_16_03.152,3.863,28.6,0,0.757,0,0,0,0.016, ,0,0,0,0,0, ,810.5,472.2,341.1,-2,-2.7,-2.6,25,811.433,471.087,331.572,-1.01471,-0.574569,-1.73671,
2026_06_10_18_16_03.172,3.863,28.7,0,0.757,0,0,0,0.017, ,0,0,0,0,0, ,812.1,472,326.9,-2.1,-3.3,-1.8,25,811.425,471.149,331.72,-1.0778,-0.722369,-1.76495,
2026_06_10_18_16_03.192,3.863,28.7,0,0.758,0,0,0,0.016, ,0,0,0,0,0, ,814.3,463.9,325.9,-1.7,-2.7,-2.3,25,811.533,470.954,331.396,-1.12791,-0.861162,-1.78232,
2026_06_10_18_16_03.212,3.863,28.7,0,0.757,0,0,0,0.016, ,0,0,0,0,0, ,815.7,463.6,323.2,-0.6,-1.7,-3.4,25,811.745,470.515,330.978,-1.12925,-0.942748,-1.84738,
2026_06_10_18_16_03.232,3.863,28.7,0,0.758,0,0,0,0.016, ,0,0,0,0,0, ,812.7,472.9,326.4,0,-0.7,-3.7,25,811.894,470.377,330.602,-1.07872,-0.958424,-1.95113,
2026_06_10_18_16_03.251,3.863,28.7,0,0.758,0,0,0,0.017, ,0,0,0,0,0, ,810.3,472.1,330.5,-0.3,-0.8,-3.5,25,811.87,470.506,330.471,-1.02213,-0.945723,-2.05161,
2026_06_10_18_16_03.271,3.863,28.7,0,0.757,0,0,0,0.017, ,0,0,0,0,0, ,811.5,471.3,328.7,-0.4,-0.9,-3.7,25,811.811,470.579,330.418,-0.981168,-0.93989,-2.14596,
2026_06_10_18_16_03.292,3.863,28.7,0,0.757,0,0,0,0.017, ,0,0,0,0,0, ,811.2,469.8,331.4,0.1,-1.4,-3.7,25,811.783,470.577,330.395,-0.930518,-0.952694,-2.24066,
2026_06_10_18_16_03.311,3.863,28.7,0,0.757,0,0,0,0.017, ,0,0,0,0,0, ,809.9,477.1,327.8,-0.3,-1.4,-3.9,25,811.708,470.752,330.347,-0.879909,-0.979951,-2.33569,
2026_06_10_18_16_03.331,3.863,28.8,0,0.758,0,0,0,0.017, ,0,0,0,0,0, ,813.1,475.9,325,-0.3,-1.1,-3.3,25,811.695,471.102,330.106,-0.84457,-0.996407,-2.41273,
2026_06_10_18_16_03.351,3.863,28.8,0,0.756,0,0,0,0.016, ,0,0,0,0,0, ,810.7,473,322.9,-0.7,-0.7,-3.3,25,811.708,471.306,329.731,-0.823573,-0.990533,-2.4668,
2026_06_10_18_16_03.371,3.863,28.8,0,0.758,0,0,0,0.016, ,0,0,0,0,0, ,811.6,471,327.5,0.3,-0.1,-3.3,25,811.674,471.349,329.455,-0.785574,-0.954547,-2.51757,
2026_06_10_18_16_03.390,3.863,28.8,0,0.758,0,0,0,0.017, ,0,0,0,0,0, ,808.5,476.8,331,0.1,-0.8,-3.8,25,811.575,471.504,329.443,-0.725516,-0.923801,-2.58048,
2026_06_10_18_16_03.410,3.863,28.8,0,0.758,0,0,0,0.017, ,0,0,0,0,0, ,810.7,481.8,328.1,-0.1,-1,-3.5,25,811.454,471.979,329.449,-0.681305,-0.922351,-2.64566,
2026_06_10_18_16_03.430,3.863,28.8,0,0.758,0,0,0,0.017, ,0,0,0,0,0, ,810.5,479.7,329.2,-0.9,-1.4,-2.9,25,811.402,472.514,329.4,-0.670256,-0.93927,-2.67944,
2026_06_10_18_16_03.450,3.863,28.8,0,0.759,0,0,0,0.017, ,0,0,0,0,0, ,809.8,476.4,327.3,-1.7,-2.1,-2.9,25,811.326,472.851,329.33,-0.708631,-0.988674,-2.69288,
2026_06_10_18_16_03.469,3.863,28.8,0,0.758,0,0,0,0.017, ,0,0,0,0,0, ,811.1,474.7,326,-0.6,-1.9,-2.8,25,811.273,473.015,329.167,-0.735527,-1.0503,-2.70245,
2026_06_10_18_16_03.489,3.863,28.8,0,0.76,0,0,0,0.017, ,0,0,0,0,0, ,811.1,481.3,322.7,-0.8,-1.7,-2.7,25,811.262,473.319,328.873,-0.733362,-1.09599,-2.70535,
2026_06_10_18_16_03.509,3.863,28.8,0,0.756,0,0,0,0.017, ,0,0,0,0,0, ,811.4,475,325.1,-1.4,-1.6,-2.3,25,811.261,473.614,328.57,-0.755704,-1.12975,-2.69284,
2026_06_10_18_16_03.529,3.863,28.8,0,0.757,0,0,0,0.017, ,0,0,0,0,0, ,810.4,478.8,321.2,-1.2,-1.2,-2.1,25,811.239,473.814,328.24,-0.788872,-1.14622,-2.6628,
2026_06_10_18_16_03.549,3.863,28.8,0,0.757,0,0,0,0.018, ,0,0,0,0,0, ,810.5,480.9,326.6,-1.1,-1.2,-1.7,25,811.191,474.182,327.976,-0.810879,-1.14949,-2.61632,
2026_06_10_18_16_03.572,3.863,28.8,0,0.759,0,0,0,0.018, ,0,0,0,0,0, ,812.1,476.4,312,-0.3,-0.5,-0.8,25,811.198,474.454,327.447,-0.804122,-1.13124,-2.53306,
2026_06_10_18_16_03.588,3.863,28.8,0,0.757,0,0,0,0.018, ,0,0,0,0,0, ,812,467.5,317.1,1.6,1.4,-1.7,25,811.25,474.301,326.661,-0.715511,-1.03489,-2.45487,
2026_06_10_18_16_03.608,3.863,28.8,0,0.758,0,0,0,0.018, ,0,0,0,0,0, ,811.5,479.6,320.9,2.3,2.6,-2.3,25,811.28,474.256,326.194,-0.553082,-0.849947,-2.42716,
2026_06_10_18_16_03.628,3.863,28.9,0,0.759,0,0,0,0.018, ,0,0,0,0,0, ,807.9,485.7,324.4,1,3,-1.6,25,811.184,474.767,325.978,-0.418831,-0.627528,-2.39808,
2026_06_10_18_16_03.648,3.863,28.8,0,0.758,0,0,0,0.017, ,0,0,0,0,0, ,806.2,489.3,334.1,-0.9,1.4,0,25,810.932,475.543,326.178,-0.390262,-0.455226,-2.3007,
2026_06_10_18_16_03.668,3.863,28.9,0,0.759,0,0,0,0.018, ,0,0,0,0,0, ,810,477.6,327,-1.7,0.4,1.1,25,810.759,476.025,326.444,-0.445699,-0.372642,-2.12698,
2026_06_10_18_16_03.687,3.863,28.8,0,0.758,0,0,0,0.018, ,0,0,0,0,0, ,810.9,470.7,328.6,-0.9,0.5,0.5,25,810.741,475.911,326.527,-0.497758,-0.322512,-1.94862,
2026_06_10_18_16_03.707,3.863,28.8,0,0.758,0,0,0,0.018, ,0,0,0,0,0, ,810.4,474.9,329.5,-0.3,0.6,0,25,810.735,475.721,326.68,-0.503989,-0.269343,-1.81464,
2026_06_10_18_16_03.727,3.863,28.9,0,0.757,0,0,0,0.019, ,0,0,0,0,0, ,808.9,475.4,336.9,-1.3,-1,-0.1,25,810.669,475.686,327.078,-0.522027,-0.265118,-1.70711,
2026_06_10_18_16_03.747,3.863,28.9,0,0.759,0,0,0,0.018, ,0,0,0,0,0, ,811.7,469.9,323.2,-1.2,-1.6,-0.7,25,810.647,475.501,327.259,-0.566388,-0.328181,-1.62746,
2026_06_10_18_16_03.766,3.863,28.9,0,0.758,0,0,0,0.018, ,0,0,0,0,0, ,812.9,467.6,325.3,-0.6,-0.5,-1.8,25,810.747,475.09,327.075,-0.586717,-0.372167,-1.60445,
2026_06_10_18_16_03.786,3.863,28.9,0,0.757,0,0,0,0.018, ,0,0,0,0,0, ,811.4,480.5,327.1,0.1,-0.1,-1.8,25,810.833,475.026,327.022,-0.566198,-0.367769,-1.61637,
2026_06_10_18_16_03.806,3.863,28.9,0,0.758,0,0,0,0.018, ,0,0,0,0,0, ,810.1,477.7,335.3,-1.3,-1.4,-1.2,25,810.828,475.275,327.277,-0.568258,-0.391061,-1.60928,
2026_06_10_18_16_03.826,3.863,28.9,0,0.758,0,0,0,0.018, ,0,0,0,0,0, ,813.3,472.6,317.9,-1.6,-1.3,-1.8,25,810.881,475.267,327.235,-0.621989,-0.449497,-1.60262,
2026_06_10_18_16_03.846,3.863,28.9,0,0.758,0,0,0,0.018, ,0,0,0,0,0, ,811.4,474.4,322.2,-1,0.1,-1.9,25,810.97,475.159,326.798,-0.663306,-0.458668,-1.61769,
2026_06_10_18_16_03.871,3.863,29.1,0,0.758,0,0,0,0.019, ,0,0,0,0,0, ,811.4,468.3,327.3,-0.9,0.1,-2.5,25,810.997,474.927,326.673,-0.680776,-0.424624,-1.65318,
2026_06_10_18_16_03.885,3.863,29.1,0,0.757,0,0,0,0.017, ,0,0,0,0,0, ,809.8,476.9,333.7,-1.4,-0.3,-3.1,25,810.972,474.785,326.906,-0.709369,-0.404842,-1.72306,
2026_06_10_18_16_03.904,3.863,28.9,0,0.758,0,0,0,0.017, ,0,0,0,0,0, ,810.3,471.1,328,-0.9,-1,-3.1,25,810.916,474.738,327.146,-0.73622,-0.419782,-1.80697,
2026_06_10_18_16_03.924,3.863,29.1,0,0.758,0,0,0,0.019, ,0,0,0,0,0, ,808.3,480.9,333.3,0.5,-1.2,-3.1,25,810.818,474.815,327.36,-0.703544,-0.461232,-1.88576,
2026_06_10_18_16_03.945,3.863,29.1,0,0.758,0,0,0,0.017, ,0,0,0,0,0, ,810.4,477.1,331.5,-0.2,-2.4,-2.7,25,810.728,475.07,327.667,-0.651532,-0.542814,-1.94757,
2026_06_10_18_16_03.965,3.863,29.1,0,0.757,0,0,0,0.017, ,0,0,0,0,0, ,809,480.2,328.6,-1.6,-3.3,-2.1,25,810.666,475.288,327.812,-0.666673,-0.683408,-1.97514,
2026_06_10_18_16_03.985,3.863,29.1,0,0.757,0,0,0,0.018, ,0,0,0,0,0, ,811.2,475.2,316.4,-1.3,-2.7,-1.9,25,810.631,475.435,327.489,-0.714407,-0.824575,-1.97665,
2026_06_10_18_16_04.004,3.863,29.1,0,0.758,0,0,0,0.018, ,0,0,0,0,0, ,812.5,472.7,314.4,0.2,-0.4,-2.5,25,810.705,475.344,326.752,-0.704388,-0.868781,-1.99026,
2026_06_10_18_16_04.025,3.863,29.1,0,0.758,0,0,0,0.018, ,0,0,0,0,0, ,810.3,475.4,328.6,0.6,0,-2.8,25,810.748,475.265,326.432,-0.637089,-0.828027,-2.03047,
2026_06_10_18_16_04.044,3.863,29.1,0,0.757,0,0,0,0.018, ,0,0,0,0,0, ,808.9,481.3,329.5,-0.1,-0.9,-2.6,25,810.678,475.453,326.591,-0.583032,-0.804991,-2.07127,
2026_06_10_18_16_04.063,3.863,29.1,0,0.758,0,0,0,0.018, ,0,0,0,0,0, ,809.6,475.8,322.9,-0.7,-1.5,-2.6,25,810.591,475.642,326.568,-0.571879,-0.829062,-2.10349,
2026_06_10_18_16_04.083,3.863,29.2,0,0.758,0,0,0,0.018, ,0,0,0,0,0, ,811.2,473.3,318.7,-0.1,-0.4,-3.1,25,810.579,475.576,326.216,-0.561405,-0.836431,-2.14898,
2026_06_10_18_16_04.103,3.863,29.2,0,0.758,0,0,0,0.017, ,0,0,0,0,0, ,808.4,479.1,322.9,0,0.1,-3.2,25,810.532,475.614,325.886,-0.530241,-0.794602,-2.20998,
2026_06_10_18_16_04.123,3.863,29.2,0,0.759,0,0,0,0.017, ,0,0,0,0,0, ,809.6,480.4,323.2,-0.1,0.2,-3.2,25,810.438,475.866,325.713,-0.500977,-0.73704,-2.27031,
2026_06_10_18_16_04.143,3.863,29.3,0,0.758,0,0,0,0.017, ,0,0,0,0,0, ,807.9,484.6,323.3,0.2,0.1,-2.4,25,810.335,476.27,325.563,-0.467401,-0.682986,-2.30258,
2026_06_10_18_16_04.163,3.863,29.2,0,0.758,0,0,0,0.017, ,0,0,0,0,0, ,808.1,481.6,329.4,0,-0.1,-2.1,25,810.193,476.686,325.611,-0.432825,-0.641367,-2.29938,
2026_06_10_18_16_04.183,3.863,29.2,0,0.757,0,0,0,0.018, ,0,0,0,0,0, ,809.3,480.3,326.6,-0.3,-0.8,-2,25,810.102,476.946,325.757,-0.415591,-0.629705,-2.28418,
2026_06_10_18_16_04.203,3.863,29.2,0,0.758,0,0,0,0.018, ,0,0,0,0,0, ,808.1,484.1,328.6,-1.3,-1.6,-1.3,25,810.017,477.266,325.869,-0.439016,-0.664458,-2.24554,
2026_06_10_18_16_04.222,3.863,29.2,0,0.759,0,0,0,0.018, ,0,0,0,0,0, ,811.2,476.3,319.9,-1.4,-1.9,-0.9,25,809.994,477.445,325.77,-0.494529,-0.730608,-2.17573,
2026_06_10_18_16_04.242,3.863,29.3,0,0.759,0,0,0,0.018, ,0,0,0,0,0, ,811.2,472.9,315.7,-0.4,-0.4,-2.1,25,810.068,477.272,325.285,-0.519237,-0.756165,-2.13455,
2026_06_10_18_16_04.262,3.863,29.3,0,0.758,0,0,0,0.017, ,0,0,0,0,0, ,808.5,478.6,325.4,0.3,0.2,-2.4,25,810.055,477.179,324.996,-0.490643,-0.71618,-2.14159,
2026_06_10_18_16_04.282,3.863,29.3,0,0.757,0,0,0,0.017, ,0,0,0,0,0, ,807,484.4,328.7,0,-0.6,-2.2,25,809.914,477.442,325.121,-0.451604,-0.684725,-2.15124,
2026_06_10_18_16_04.301,3.863,29.3,0,0.758,0,0,0,0.017, ,0,0,0,0,0, ,809.8,482.7,322,-1.4,-1.3,-1.6,25,809.822,477.814,325.135,-0.46674,-0.70089,-2.13593,
2026_06_10_18_16_04.327,3.863,29.3,0,0.759,0,0,0,0.017, ,0,0,0,0,0, ,811.8,476.4,315.5,-0.8,-0.4,-2.1,25,809.881,477.92,324.746,-0.50533,-0.709976,-2.11851,
2026_06_10_18_16_04.341,3.863,29.3,0,0.76,0,0,0,0.017, ,0,0,0,0,0, ,808.7,481.2,324.5,0,0.1,-2.1,25,809.904,477.974,324.457,-0.498911,-0.675853,-2.11738,
2026_06_10_18_16_04.360,3.863,29.3,0,0.757,0,0,0,0.017, ,0,0,0,0,0, ,807.6,483.8,329.1,-1.2,-1.1,-1.8,25,809.797,478.25,324.6,-0.505071,-0.665137,-2.10718,
2026_06_10_18_16_04.380,3.863,29.3,0,0.759,0,0,0,0.018, ,0,0,0,0,0, ,807.7,481.5,324.5,-1.7,-2,-1.5,25,809.666,478.518,324.734,-0.562653,-0.719058,-2.07932,
2026_06_10_18_16_04.400,3.863,29.3,0,0.759,0,0,0,0.018, ,0,0,0,0,0, ,811.2,472.2,311.2,-0.2,-0.6,-1.8,25,809.653,478.416,324.314,-0.586257,-0.754459,-2.05316,
2026_06_10_18_16_04.420,3.863,29.3,0,0.758,0,0,0,0.018, ,0,0,0,0,0, ,809.9,476.9,318.3,1.3,0.9,-2.9,25,809.708,478.18,323.731,-0.517016,-0.699344,-2.07125,
2026_06_10_18_16_04.440,3.863,29.3,0,0.758,0,0,0,0.018, ,0,0,0,0,0, ,808.2,485.2,323.3,0.9,0.9,-2.9,25,809.668,478.355,323.553,-0.418479,-0.601884,-2.12175,
2026_06_10_18_16_04.460,3.863,29.4,0,0.757,0,0,0,0.018, ,0,0,0,0,0, ,806.3,493,326.6,-0.8,-0.3,-1.3,25,809.52,479.01,323.638,-0.389931,-0.546925,-2.12042,
2026_06_10_18_16_04.485,3.863,29.4,0,0.757,0,0,0,0.017, ,0,0,0,0,0, ,807.8,485.3,326.5,-1.7,-1.1,0.1,25,809.37,479.628,323.815,-0.442342,-0.556253,-2.02777,
2026_06_10_18_16_04.499,3.863,29.3,0,0.755,0,0,0,0.017, ,0,0,0,0,0, ,810.9,471.1,321.2,-1.1,-0.9,-0.6,25,809.369,479.541,323.818,-0.500699,-0.583294,-1.91944,
2026_06_10_18_16_04.519,3.863,29.4,0,0.757,0,0,0,0.018, ,0,0,0,0,0, ,810.6,474.3,322.6,0.1,-0.3,-2.4,25,809.453,479.124,323.701,-0.500656,-0.584312,-1.89388,
2026_06_10_18_16_04.539,3.863,29.4,0,0.757,0,0,0,0.017, ,0,0,0,0,0, ,809,481.2,326.2,-0.4,-0.9,-2.9,25,809.474,479.04,323.743,-0.479288,-0.585268,-1.93996,
2026_06_10_18_16_04.559,3.863,29.4,0,0.758,0,0,0,0.017, ,0,0,0,0,0, ,809.5,484.1,322.8,-1,-1.2,-2.9,25,809.46,479.26,323.789,-0.492738,-0.613588,-1.99846,
2026_06_10_18_16_04.579,3.863,29.4,0,0.759,0,0,0,0.017, ,0,0,0,0,0, ,810.4,480.5,316.4,-1.2,-0.8,-2.7,25,809.49,479.446,323.534,-0.529743,-0.637135,-2.0473,
2026_06_10_18_16_04.599,3.863,29.4,0,0.759,0,0,0,0.017, ,0,0,0,0,0, ,809,483.8,316.1,0,0.4,-2.5,25,809.503,479.61,323.09,-0.534024,-0.610497,-2.08098,
2026_06_10_18_16_04.619,3.863,29.4,0,0.757,0,0,0,0.017, ,0,0,0,0,0, ,808.8,479.3,326.1,0.3,0.6,-2.5,25,809.466,479.729,322.969,-0.492342,-0.542826,-2.10652,
2026_06_10_18_16_04.643,3.863,29.5,0,0.758,0,0,0,0.018, ,0,0,0,0,0, ,806.1,483.1,330.9,-0.5,-0.2,-2.8,25,809.343,479.818,323.306,-0.468433,-0.49756,-2.13964,
2026_06_10_18_16_04.658,3.863,29.4,0,0.758,0,0,0,0.017, ,0,0,0,0,0, ,806.7,480.8,328.7,-1.1,-2,-3.2,25,809.164,479.948,323.702,-0.488638,-0.534271,-2.19206,
2026_06_10_18_16_04.678,3.863,29.5,0,0.758,0,0,0,0.018, ,0,0,0,0,0, ,807.8,484.2,320.1,-1,-2.5,-3.3,25,809.047,480.104,323.744,-0.522846,-0.638823,-2.25653,
2026_06_10_18_16_04.698,3.863,29.5,0,0.758,0,0,0,0.017, ,0,0,0,0,0, ,807.4,484.4,320,-0.7,-2.1,-3.1,25,808.959,480.359,323.519,-0.542782,-0.740051,-2.31402,
2026_06_10_18_16_04.717,3.863,29.5,0,0.757,0,0,0,0.017, ,0,0,0,0,0, ,808.2,490.9,317.3,-0.7,-1.6,-2.5,25,808.888,480.804,323.222,-0.552362,-0.807689,-2.34364,
2026_06_10_18_16_04.738,3.863,29.5,0,0.758,0,0,0,0.017, ,0,0,0,0,0, ,806.8,487.5,324.4,-0.4,-1.6,-1.1,25,808.804,481.315,323.078,-0.552219,-0.85597,-2.31051,
2026_06_10_18_16_04.758,3.863,29.5,0,0.759,0,0,0,0.017, ,0,0,0,0,0, ,810.3,479.4,312.3,-0.5,-1.2,-1.2,25,808.788,481.445,322.79,-0.54599,-0.889122,-2.23979,
2026_06_10_18_16_04.777,3.863,29.5,0,0.758,0,0,0,0.017, ,0,0,0,0,0, ,807.1,477.2,322.9,0.7,-0.3,-1.7,25,808.783,481.254,322.474,-0.506625,-0.880644,-2.19166,
2026_06_10_18_16_04.799,3.863,29.5,0,0.758,0,0,0,0.017, ,0,0,0,0,0, ,808.1,490.4,328.6,-0.3,-1.3,-2.1,25,808.711,481.409,322.673,-0.463565,-0.87573,-2.17389,
2026_06_10_18_16_04.816,3.863,29.5,0,0.761,0,0,0,0.017, ,0,0,0,0,0, ,807.6,488.7,323.6,-1.3,-2.7,-1.1,25,808.658,481.905,322.882,-0.484066,-0.94424,-2.13892,
2026_06_10_18_16_04.836,3.863,29.5,0,0.759,0,0,0,0.017, ,0,0,0,0,0, ,809.4,486,314.3,-1.4,-2.9,-0.2,25,808.649,482.237,322.642,-0.536834,-1.05733,-2.04819,
2026_06_10_18_16_04.856,3.863,29.6,0,0.758,0,0,0,0.017, ,0,0,0,0,0, ,810.4,479,308.9,-1.2,-2.1,-0.3,25,808.725,482.253,321.969,-0.583339,-1.14524,-1.93861,
2026_06_10_18_16_04.876,3.863,29.6,0,0.758,0,0,0,0.017, ,0,0,0,0,0, ,812.2,472.9,306.5,0.4,0.5,-1.7,25,808.882,481.869,321.1,-0.572167,-1.1242,-1.88141,
2026_06_10_18_16_04.895,3.863,29.6,0,0.76,0,0,0,0.017, ,0,0,0,0,0, ,806.8,487.4,327.5,-0.2,0.1,-2.1,25,808.92,481.764,320.85,-0.531207,-1.03741,-1.88255,
2026_06_10_18_16_04.915,3.863,29.6,0,0.758,0,0,0,0.017, ,0,0,0,0,0, ,806.5,486.3,328.8,-1.7,-2.2,-1.6,25,808.781,482.074,321.295,-0.556727,-1.03818,-1.88056,
2026_06_10_18_16_04.936,3.863,29.6,0,0.76,0,0,0,0.017, ,0,0,0,0,0, ,810.4,472.9,314.6,-1.5,-2.8,-2.3,25,808.761,481.923,321.32,-0.620302,-1.12726,-1.8848,
2026_06_10_18_16_04.959,3.863,29.6,0,0.759,0,0,0,0.017, ,0,0,0,0,0, ,811.5,474.1,308.1,1.6,-0.6,-4.1,25,808.895,481.41,320.712,-0.579455,-1.16216,-1.96494,
2026_06_10_18_16_04.975,3.863,29.7,0,0.76,0,0,0,0.017, ,0,0,0,0,0, ,807.6,494.6,323.1,1.5,-0.6,-4,25,808.934,481.589,320.401,-0.449691,-1.1279,-2.092,
2026_06_10_18_16_04.995,3.863,29.6,0,0.757,0,0,0,0.016, ,0,0,0,0,0, ,806.3,492.7,326.1,-0.4,-2.6,-2.9,25,808.814,482.324,320.656,-0.388773,-1.15667,-2.17475,
2026_06_10_18_16_05.015,3.863,29.7,0,0.758,0,0,0,0.017, ,0,0,0,0,0, ,810.5,482.7,305.4,-0.5,-2.5,-2.5,25,808.788,482.652,320.357,-0.392504,-1.24158,-2.20676,
2026_06_10_18_16_05.035,3.863,29.6,0,0.759,0,0,0,0.016, ,0,0,0,0,0, ,810.5,483.7,305.4,1,-0.1,-3.3,25,808.893,482.685,319.446,-0.353351,-1.24514,-2.249,
2026_06_10_18_16_05.055,3.863,29.7,0,0.758,0,0,0,0.017, ,0,0,0,0,0, ,806.8,497.4,317.3,0.8,0.4,-2.7,25,808.878,483.164,318.953,-0.276975,-1.16012,-2.29477,
2026_06_10_18_16_05.075,3.863,29.7,0,0.758,0,0,0,0.016, ,0,0,0,0,0, ,806.8,499.7,322.5,-0.6,-0.7,-0.7,25,808.751,484.102,319.01,-0.254003,-1.09857,-2.25852,
2026_06_10_18_16_05.094,3.863,29.6,0,0.76,0,0,0,0.016, ,0,0,0,0,0, ,809.5,485.7,313.8,-2.2,-1.6,0,25,808.715,484.626,318.958,-0.323837,-1.1017,-2.14222,
2026_06_10_18_16_05.114,3.863,29.7,0,0.757,0,0,0,0.017, ,0,0,0,0,0, ,810.7,481,307.3,-1.1,-0.7,-0.7,25,808.799,484.548,318.446,-0.40465,-1.10465,-2.03301,
2026_06_10_18_16_05.133,3.863,29.7,0,0.758,0,0,0,0.016, ,0,0,0,0,0, ,809.5,484.8,319,-0.8,-0.1,-1.4,25,808.878,484.448,318.123,-0.437883,-1.06171,-1.97311,
2026_06_10_18_16_05.153,3.863,29.7,0,0.758,0,0,0,0.016, ,0,0,0,0,0, ,808.5,489.3,318.4,-1.9,-1.1,-1.1,25,808.886,484.606,318.158,-0.493465,-1.03357,-1.92904,
2026_06_10_18_16_05.173,3.863,29.7,0,0.758,0,0,0,0.016, ,0,0,0,0,0, ,810.9,480.2,309.5,-1.4,-0.6,-0.9,25,808.935,484.615,317.902,-0.563941,-1.02238,-1.87243,
2026_06_10_18_16_05.193,3.863,29.7,0,0.758,0,0,0,0.016, ,0,0,0,0,0, ,808.8,481.5,312.9,-0.7,0.1,-1.8,25,808.991,484.386,317.493,-0.59356,-0.975317,-1.84059,
2026_06_10_18_16_05.213,3.863,29.7,0,0.757,0,0,0,0.016, ,0,0,0,0,0, ,808.8,488.2,321.6,-0.3,0,-2.2,25,808.979,484.414,317.478,-0.587859,-0.912837,-1.85031,
2026_06_10_18_16_05.233,3.863,29.7,0,0.758,0,0,0,0.016, ,0,0,0,0,0, ,807.2,488.5,322.6,-1.9,-1.6,-1.6,25,808.92,484.654,317.76,-0.619068,-0.905961,-1.85334,
2026_06_10_18_16_05.253,3.863,29.8,0,0.76,0,0,0,0.016, ,0,0,0,0,0, ,808.9,486.4,314.3,-1.5,-2,-1.5,25,808.867,484.824,317.802,-0.684937,-0.960442,-1.83485,
2026_06_10_18_16_05.272,3.863,29.7,0,0.758,0,0,0,0.016, ,0,0,0,0,0, ,809.4,480.1,311.8,-0.4,-1.8,-1.9,25,808.884,484.728,317.513,-0.701089,-1.0177,-1.82663,
2026_06_10_18_16_05.294,3.863,29.7,0,0.76,0,0,0,0.016, ,0,0,0,0,0, ,810.9,479,305,0.7,-0.7,-3,25,808.961,484.413,316.957,-0.649226,-1.03185,-1.86462,
2026_06_10_18_16_05.312,3.863,29.7,0,0.758,0,0,0,0.016, ,0,0,0,0,0, ,809,486.2,319,0.6,-0.3,-3.6,25,809.021,484.302,316.655,-0.570054,-0.999442,-1.95209,
2026_06_10_18_16_05.332,3.863,29.8,0,0.758,0,0,0,0.016, ,0,0,0,0,0, ,808.7,491,314.6,-0.9,-1.2,-3.2,25,809.011,484.564,316.664,-0.544457,-0.984242,-2.04032,
2026_06_10_18_16_05.352,3.863,29.8,0,0.757,0,0,0,0.016, ,0,0,0,0,0, ,808.9,487.4,311.2,-0.9,-1.2,-2.8,25,808.998,484.847,316.435,-0.566123,-0.99739,-2.0988,
2026_06_10_18_16_05.372,3.863,29.8,0,0.76,0,0,0,0.016, ,0,0,0,0,0, ,810.4,484.4,304.5,0.3,0,-2.9,25,809.038,484.911,315.911,-0.549906,-0.973174,-2.14458,
2026_06_10_18_16_05.391,3.863,29.8,0,0.758,0,0,0,0.016, ,0,0,0,0,0, ,809.3,488.1,315.3,1,0.6,-3.1,25,809.087,484.992,315.545,-0.476787,-0.89559,-2.1967,
2026_06_10_18_16_05.412,3.863,29.9,0,0.757,0,0,0,0.016, ,0,0,0,0,0, ,806.5,493.7,317.5,0,0,-2.8,25,809.015,485.352,315.597,-0.417264,-0.822733,-2.24261,
2026_06_10_18_16_05.430,3.863,29.7,0,0.76,0,0,0,0.015, ,0,0,0,0,0, ,807.1,491.3,309.2,-0.3,-0.2,-2.4,25,808.88,485.788,315.46,-0.400978,-0.778692,-2.26439,
2026_06_10_18_16_05.451,3.863,29.9,0,0.76,0,0,0,0.017, ,0,0,0,0,0, ,806.5,493,312.6,-0.2,0,-2,25,808.753,486.176,315.182,-0.391777,-0.737334,-2.26046,
2026_06_10_18_16_05.470,3.863,29.9,0,0.758,0,0,0,0.015, ,0,0,0,0,0, ,806.8,491.5,314,-0.3,0.1,-1.6,25,808.625,486.546,315.068,-0.383138,-0.689356,-2.2324,
2026_06_10_18_16_05.490,3.863,29.9,0,0.757,0,0,0,0.015, ,0,0,0,0,0, ,807.9,485.2,315.4,0,0.1,-1.3,25,808.547,486.656,315.045,-0.368931,-0.641255,-2.18473,
2026_06_10_18_16_05.510,3.863,29.9,0,0.76,0,0,0,0.015, ,0,0,0,0,0, ,808.4,486,316.1,-0.3,-0.1,-2,25,808.523,486.591,315.088,-0.35559,-0.602178,-2.15214,
2026_06_10_18_16_05.530,3.863,29.9,0,0.758,0,0,0,0.015, ,0,0,0,0,0, ,806.2,489.3,318.9,-0.3,-0.7,-2.3,25,808.449,486.656,315.235,-0.352202,-0.589858,-2.15201,
2026_06_10_18_16_05.550,3.863,29.9,0,0.758,0,0,0,0.015, ,0,0,0,0,0, ,805.6,492.1,322.9,-1,-2.3,-2.4,25,808.293,486.902,315.58,-0.370349,-0.64532,-2.16408,
2026_06_10_18_16_05.570,3.863,29.9,0,0.76,0,0,0,0.015, ,0,0,0,0,0, ,808.9,487.1,308.9,-0.7,-3,-2.3,25,808.23,487.067,315.6,-0.399578,-0.76748,-2.17541,
2026_06_10_18_16_05.589,3.863,29.9,0,0.76,0,0,0,0.015, ,0,0,0,0,0, ,809,483.1,305.6,0,-2.3,-2.8,25,808.274,486.947,315.091,-0.396557,-0.882196,-2.19823,
2026_06_10_18_16_05.609,3.863,29.9,0,0.758,0,0,0,0.015, ,0,0,0,0,0, ,808.7,487.7,305.5,1.6,-0.8,-3.8,25,808.309,486.853,314.51,-0.323642,-0.92289,-2.26537,
2026_06_10_18_16_05.629,3.863,29.9,0,0.758,0,0,0,0.015, ,0,0,0,0,0, ,806.6,495.8,315.1,1.8,-0.4,-3.7,25,808.269,487.151,314.253,-0.200326,-0.903214,-2.35584,
2026_06_10_18_16_05.649,3.863,29.9,0,0.761,0,0,0,0.015, ,0,0,0,0,0, ,806.2,502,312.6,-0.7,-1.6,-2.8,25,808.155,487.867,314.229,-0.154603,-0.909112,-2.41033,
2026_06_10_18_16_05.669,3.863,29.9,0,0.76,0,0,0,0.015, ,0,0,0,0,0, ,808.1,490.4,303.1,-1.7,-1.3,-2.3,25,808.094,488.375,313.84,-0.218307,-0.942072,-2.41884,
2026_06_10_18_16_05.688,3.863,29.9,0,0.76,0,0,0,0.015, ,0,0,0,0,0, ,807.6,492.7,303.7,-1,0.3,-2.5,25,808.079,488.568,313.204,-0.28727,-0.915134,-2.41769,
2026_06_10_18_16_05.708,3.863,29.9,0,0.759,0,0,0,0.015, ,0,0,0,0,0, ,805,495.7,317.2,0,0.7,-1.9,25,807.97,488.911,313.036,-0.300233,-0.828899,-2.40443,
2026_06_10_18_16_05.728,3.863,30,0,0.759,0,0,0,0.015, ,0,0,0,0,0, ,807.1,488.2,312.8,-0.9,-0.2,-2.4,25,807.853,489.097,313.156,-0.309359,-0.763153,-2.38892,
2026_06_10_18_16_05.748,3.863,29.9,0,0.758,0,0,0,0.014, ,0,0,0,0,0, ,806.2,489.8,310.6,0.1,0,-2.9,25,807.78,489.091,313.067,-0.314883,-0.722743,-2.40483,
2026_06_10_18_16_05.768,3.863,30,0,0.761,0,0,0,0, ,0,0,0,0,0, ,802.7,499,316.7,0,-0.7,-2.9,25,807.577,489.414,313.102,-0.292648,-0.700029,-2.43501,
2026_06_10_18_16_05.788,3.863,30,0,0.759,0,0,0,0, ,0,0,0,0,0, ,804.9,500,311.8,-0.7,-1.6,-1.6,25,807.347,490.029,313.172,-0.296143,-0.727449,-2.42373,
2026_06_10_18_16_05.807,3.863,30,0,0.76,0,0,0,0, ,0,0,0,0,0, ,808.9,487.9,301,-2.3,-1.8,-1.7,25,807.32,490.268,312.76,-0.369503,-0.786714,-2.37658,
2026_06_10_18_16_05.827,3.863,30,0,0.758,0,0,0,0, ,0,0,0,0,0, ,804.1,496,307.6,-0.1,0.5,-1.3,25,807.27,490.37,312.244,-0.420111,-0.778383,-2.32317,
2026_06_10_18_16_05.847,3.863,29.9,0,0.759,0,0,0,0, ,0,0,0,0,0, ,805.1,498.9,311,-0.7,0.6,-1.1,25,807.107,490.802,312.065,-0.418886,-0.697434,-2.25472,
2026_06_10_18_16_05.866,3.863,29.9,0,0.759,0,0,0,0, ,0,0,0,0,0, ,806.5,496.5,311.6,-0.5,0.9,-0.2,25,807.027,491.222,312.018,-0.429922,-0.609231,-2.15694,
2026_06_10_18_16_05.886,3.863,30,0,0.759,0,0,0,0, ,0,0,0,0,0, ,804.5,491.9,318.4,-1.3,0.4,0,25,806.934,491.404,312.2,-0.458568,-0.532497,-2.03159,
2026_06_10_18_16_05.906,3.863,30,0,0.759,0,0,0,0, ,0,0,0,0,0, ,806.8,485.7,317.1,-1.6,-0.9,-0.8,25,806.856,491.245,312.538,-0.518983,-0.515282,-1.93217,
2026_06_10_18_16_05.927,3.863,30,0,0.758,0,0,0,0, ,0,0,0,0,0, ,807.3,486.3,309.2,-0.8,-0.9,-1.7,25,806.868,490.925,312.575,-0.560482,-0.538726,-1.8906,
2026_06_10_18_16_05.946,3.863,30.1,0,0.759,0,0,0,0, ,0,0,0,0,0, ,805.7,490.1,310.5,-0.2,-0.4,-2.6,25,806.845,490.759,312.409,-0.556797,-0.545507,-1.9064,
2026_06_10_18_16_05.966,3.863,30.1,0,0.76,0,0,0,0, ,0,0,0,0,0, ,805.6,496.2,314.3,-0.6,-0.9,-2.5,25,806.773,490.905,312.409,-0.547242,-0.551874,-1.94562,
2026_06_10_18_16_05.986,3.863,30,0,0.759,0,0,0,0, ,0,0,0,0,0, ,806,492,311.5,0,-1.1,-1.7,25,806.713,491.1,312.439,-0.532176,-0.579182,-1.95503,
2026_06_10_18_16_06.006,3.863,30.1,0,0.758,0,0,0,0, ,0,0,0,0,0, ,807.8,491,307.8,-0.9,-1,-2.3,25,806.725,491.124,312.269,-0.527168,-0.607872,-1.95777,
2026_06_10_18_16_06.025,3.863,30.1,0,0.758,0,0,0,0, ,0,0,0,0,0, ,808.9,489.8,304.1,0,0.3,-2.7,25,806.824,491.08,311.884,-0.522466,-0.592158,-1.99081,
2026_06_10_18_16_06.045,3.863,30,0,0.759,0,0,0,0, ,0,0,0,0,0, ,805.1,493,321.7,-0.1,0,-3,25,806.834,491.099,311.946,-0.493675,-0.546933,-2.04317,
2026_06_10_18_16_06.065,3.863,30.1,0,0.758,0,0,0,0, ,0,0,0,0,0, ,805.2,496.2,311.6,-0.4,-1,-2.9,25,806.732,491.313,312.232,-0.478826,-0.544073,-2.09843,
2026_06_10_18_16_06.085,3.863,30,0,0.759,0,0,0,0, ,0,0,0,0,0, ,806.2,492.9,307.6,1.1,-0.1,-2.3,25,806.669,491.51,312.072,-0.428319,-0.544434,-2.12899,
2026_06_10_18_16_06.107,3.863,30,0,0.76,0,0,0,0, ,0,0,0,0,0, ,804.6,496.9,313.2,0.5,-0.2,-2.2,25,806.592,491.717,311.97,-0.353469,-0.520398,-2.13637,
2026_06_10_18_16_06.124,3.863,30,0,0.76,0,0,0,0, ,0,0,0,0,0, ,804.4,501.8,312,0.3,-0.5,-1.4,25,806.464,492.182,312.008,-0.307554,-0.510015,-2.11587,
2026_06_10_18_16_06.144,3.863,30.1,0,0.76,0,0,0,0, ,0,0,0,0,0, ,804.8,493.6,312.2,-1,-1.4,-1,25,806.351,492.518,312.014,-0.310141,-0.536826,-2.06006,
2026_06_10_18_16_06.164,3.863,30,0,0.76,0,0,0,0, ,0,0,0,0,0, ,806.1,492.7,305.4,-1.4,-1.2,-1.6,25,806.296,492.557,311.818,-0.364366,-0.583332,-2.01374,
2026_06_10_18_16_06.183,3.863,30.1,0,0.759,0,0,0,0, ,0,0,0,0,0, ,807.1,491.3,305.1,-0.9,-0.2,-2.2,25,806.314,492.523,311.418,-0.412241,-0.590442,-2.00681,
2026_06_10_18_16_06.203,3.863,30,0,0.759,0,0,0,0, ,0,0,0,0,0, ,805.1,494.5,314.6,-0.6,-0.3,-2.4,25,806.301,492.546,311.322,-0.432823,-0.569696,-2.02468,
2026_06_10_18_16_06.223,3.863,30,0,0.756,0,0,0,0, ,0,0,0,0,0, ,804.6,495.9,312.6,-0.6,-0.8,-2.7,25,806.213,492.707,311.461,-0.443011,-0.568496,-2.05669,
2026_06_10_18_16_06.243,3.863,30.1,0,0.756,0,0,0,0, ,0,0,0,0,0, ,805.1,495.1,308.2,-0.1,-0.9,-2.2,25,806.13,492.878,311.396,-0.437343,-0.58565,-2.08066,
2026_06_10_18_16_06.269,3.863,30,0,0.758,0,0,0,0, ,0,0,0,0,0, ,807.3,488.8,304.8,0,0,-3.2,25,806.134,492.821,311.098,-0.413739,-0.577384,-2.1184,
2026_06_10_18_16_06.283,3.863,30,0,0.76,0,0,0,0, ,0,0,0,0,0, ,806,494.6,306.8,0.5,0.9,-3.4,25,806.165,492.753,310.775,-0.373292,-0.514778,-2.1904,
2026_06_10_18_16_06.303,3.863,30.1,0,0.758,0,0,0,0, ,0,0,0,0,0, ,801.8,502.6,320.8,0,0,-3,25,806.027,493.109,310.96,-0.335311,-0.455986,-2.25192,
2026_06_10_18_16_06.322,3.863,30.1,0,0.76,0,0,0,0, ,0,0,0,0,0, ,802.3,505.3,317.2,-0.9,-0.8,-2.5,25,805.785,493.77,311.45,-0.342299,-0.452575,-2.28228,
2026_06_10_18_16_06.341,3.863,30.1,0,0.761,0,0,0,0, ,0,0,0,0,0, ,804.9,496.7,304.4,0,-0.3,-2.2,25,805.652,494.21,311.41,-0.348862,-0.458512,-2.2864,
2026_06_10_18_16_06.361,3.863,30.1,0,0.76,0,0,0,0, ,0,0,0,0,0, ,805.5,495.1,305.6,0.1,0.3,-2.4,25,805.624,494.313,311.019,-0.324557,-0.430571,-2.28723,
2026_06_10_18_16_06.381,3.863,30.1,0,0.759,0,0,0,0, ,0,0,0,0,0, ,801.6,503.5,318.2,-0.7,0,-1.9,25,805.498,494.617,311.073,-0.32306,-0.395193,-2.27887,
2026_06_10_18_16_06.401,3.863,30,0,0.761,0,0,0,0, ,0,0,0,0,0, ,802,502.1,314.5,-1.3,-1.1,-1,25,805.273,495.116,311.395,-0.364311,-0.404626,-2.22836,
2026_06_10_18_16_06.421,3.863,30.1,0,0.759,0,0,0,0, ,0,0,0,0,0, ,804.4,495.2,304.8,-0.9,-1,-0.4,25,805.146,495.331,311.288,-0.409142,-0.443954,-2.13523,
2026_06_10_18_16_06.445,3.863,30,0,0.758,0,0,0,0, ,0,0,0,0,0, ,804.6,496,306.7,-0.1,-0.2,-0.9,25,805.107,495.347,310.951,-0.414679,-0.453463,-2.04472,
2026_06_10_18_16_06.461,3.863,30.1,0,0.761,0,0,0,0, ,0,0,0,0,0, ,803.7,499.2,309.3,-0.3,0.4,-0.8,25,805.049,495.485,310.771,-0.401597,-0.419736,-1.97192,
2026_06_10_18_16_06.480,3.863,30,0,0.759,0,0,0,0, ,0,0,0,0,0, ,803.9,496,312.5,-2,-0.3,-0.8,25,804.972,495.614,310.779,-0.447203,-0.391111,-1.9005,
2026_06_10_18_16_06.500,3.863,30,0,0.758,0,0,0,0, ,0,0,0,0,0, ,804.9,489.7,310.4,-1.3,-0.2,-1.4,25,804.938,495.445,310.82,-0.520498,-0.382513,-1.85172,
2026_06_10_18_16_06.520,3.863,30,0,0.759,0,0,0,0, ,0,0,0,0,0, ,804.4,493.7,311.1,-0.2,0.1,-2.3,25,804.92,495.217,310.815,-0.534483,-0.36225,-1.85162,
2026_06_10_18_16_06.540,3.863,30.1,0,0.76,0,0,0,0, ,0,0,0,0,0, ,803.1,502.1,314.8,-0.9,-0.4,-2.3,25,804.849,495.381,310.946,-0.535429,-0.349316,-1.87894,
2026_06_10_18_16_06.559,3.863,30,0,0.759,0,0,0,0, ,0,0,0,0,0, ,801.5,503.6,314.8,-1.6,-1,-0.8,25,804.693,495.836,311.18,-0.578973,-0.370686,-1.8589,
2026_06_10_18_16_06.580,3.863,30.1,0,0.759,0,0,0,0, ,0,0,0,0,0, ,805.4,493.6,303.9,-2.3,-1.1,-0.6,25,804.618,496.004,311.069,-0.66252,-0.412082,-1.78828,
2026_06_10_18_16_06.600,3.863,30.1,0,0.76,0,0,0,0, ,0,0,0,0,0, ,806.6,484.7,299.1,0.4,1,-1.5,25,804.702,495.586,310.486,-0.680038,-0.390017,-1.74329,
2026_06_10_18_16_06.620,3.863,30,0,0.758,0,0,0,0, ,0,0,0,0,0, ,803.2,498.1,319.3,1.2,1.5,-2.4,25,804.714,495.331,310.407,-0.589849,-0.290079,-1.75588,
2026_06_10_18_16_06.640,3.863,30,0,0.76,0,0,0,0, ,0,0,0,0,0, ,801.3,510.6,323.6,-0.7,-1.1,-0.8,25,804.564,495.881,311.08,-0.53867,-0.260215,-1.74638,
2026_06_10_18_16_06.660,3.863,30.1,0,0.757,0,0,0,0, ,0,0,0,0,0, ,805.7,493.7,303.4,-1.5,-2,0.6,25,804.499,496.263,311.228,-0.572876,-0.338811,-1.64606,
2026_06_10_18_16_06.679,3.863,30,0,0.76,0,0,0,0, ,0,0,0,0,0, ,808.4,485.2,296.2,-0.6,0.4,-0.7,25,804.654,495.848,310.531,-0.601951,-0.366915,-1.5488,
2026_06_10_18_16_06.699,3.863,30,0,0.758,0,0,0,0, ,0,0,0,0,0, ,805.1,497.6,309.9,0.7,2.6,-1.4,25,804.782,495.577,310.076,-0.562223,-0.253149,-1.5184,
2026_06_10_18_16_06.719,3.863,30,0,0.758,0,0,0,0, ,0,0,0,0,0, ,802.1,502.6,322.2,-1,0.7,-0.4,25,804.71,495.852,310.44,-0.537103,-0.137176,-1.48072,
2026_06_10_18_16_06.738,3.863,30,0,0.758,0,0,0,0, ,0,0,0,0,0, ,807.1,489.5,311.2,-2,-0.3,-0.1,25,804.703,495.864,310.821,-0.59578,-0.11663,-1.40572,
2026_06_10_18_16_06.758,3.863,30,0,0.758,0,0,0,0, ,0,0,0,0,0, ,806.1,487.3,304,-0.6,0.8,-1,25,804.819,495.41,310.625,-0.638693,-0.0942881,-1.35358,
2026_06_10_18_16_06.778,3.863,30.1,0,0.761,0,0,0,0, ,0,0,0,0,0, ,803.8,493.5,318.8,0.1,1,-1.7,25,804.827,495.104,310.672,-0.615007,-0.0336987,-1.35336,
2026_06_10_18_16_06.800,3.863,30,0,0.758,0,0,0,0, ,0,0,0,0,0, ,804.1,500.2,321.4,-1.7,-0.8,-1.2,25,804.774,495.211,311.247,-0.62628,-0.0255514,-1.35925,
2026_06_10_18_16_06.818,3.863,30.1,0,0.758,0,0,0,0, ,0,0,0,0,0, ,807.7,486,303.9,-1.7,-1,-1.5,25,804.842,495.082,311.332,-0.69171,-0.0788381,-1.35868,
2026_06_10_18_16_06.837,3.863,30,0,0.758,0,0,0,0, ,0,0,0,0,0, ,805.4,487,310.7,0.1,0.6,-2.6,25,804.946,494.559,311.086,-0.698309,-0.0862214,-1.40081,
2026_06_10_18_16_06.857,3.863,30.1,0,0.758,0,0,0,0, ,0,0,0,0,0, ,803.2,495.3,323.2,0.3,-0.2,-3.1,25,804.907,494.351,311.444,-0.643568,-0.0687798,-1.48912,
2026_06_10_18_16_06.877,3.863,30,0,0.76,0,0,0,0, ,0,0,0,0,0, ,801.3,503.6,317.9,-0.9,-1.9,-2.6,25,804.745,494.662,311.999,-0.622632,-0.128573,-1.57205,
2026_06_10_18_16_06.897,3.863,30,0,0.757,0,0,0,0, ,0,0,0,0,0, ,804.5,493.7,311.7,-1.2,-2.6,-1.6,25,804.633,494.905,312.169,-0.648675,-0.257847,-1.60422,
2026_06_10_18_16_06.917,3.863,29.9,0,0.76,0,0,0,0, ,0,0,0,0,0, ,806.5,489.5,302.6,-0.8,-1.7,-2.2,25,804.685,494.704,311.863,-0.670084,-0.37315,-1.62225,
2026_06_10_18_16_06.936,3.863,30,0,0.76,0,0,0,0, ,0,0,0,0,0, ,805.5,492.9,307.7,0.1,-0.3,-2.5,25,804.766,494.49,311.454,-0.650578,-0.411349,-1.66659,
2026_06_10_18_16_06.956,3.863,29.9,0,0.76,0,0,0,0, ,0,0,0,0,0, ,803.8,499.5,312.3,-1,-0.1,-2.8,25,804.758,494.594,311.366,-0.638356,-0.39847,-1.72652,
2026_06_10_18_16_06.977,3.863,30,0,0.76,0,0,0,0, ,0,0,0,0,0, ,802.2,502.3,314.6,-1,-0.6,-1.5,25,804.651,494.979,311.493,-0.660393,-0.395516,-1.75233,
2026_06_10_18_16_06.996,3.863,30,0,0.761,0,0,0,0, ,0,0,0,0,0, ,804,490.9,307,-0.2,0,-1,25,804.557,495.077,311.451,-0.656713,-0.389696,-1.72171,
2026_06_10_18_16_07.016,3.863,30,0,0.757,0,0,0,0, ,0,0,0,0,0, ,805.1,490.7,309.3,0,0.4,-1.8,25,804.556,494.817,311.249,-0.622788,-0.353761,-1.70211,
2026_06_10_18_16_07.036,3.863,30,0,0.76,0,0,0,0, ,0,0,0,0,0, ,805.4,493.2,313.3,0,0.5,-2.5,25,804.599,494.642,311.252,-0.584837,-0.304782,-1.7294,
2026_06_10_18_16_07.056,3.863,30,0,0.757,0,0,0,0, ,0,0,0,0,0, ,803.7,495.6,316.4,-0.3,0.3,-2.8,25,804.596,494.627,311.472,-0.558339,-0.261834,-1.7855,
2026_06_10_18_16_07.075,3.863,30,0,0.758,0,0,0,0, ,0,0,0,0,0, ,803.4,498.6,315.5,-0.8,-0.5,-2.5,25,804.532,494.778,311.745,-0.557831,-0.251973,-1.83818,
2026_06_10_18_16_07.095,3.863,30,0,0.758,0,0,0,0, ,0,0,0,0,0, ,802.4,500,313.1,-1.5,-1.1,-2.3,25,804.433,495.054,311.9,-0.593916,-0.285368,-1.87242,
2026_06_10_18_16_07.115,3.863,30,0,0.758,0,0,0,0, ,0,0,0,0,0, ,805.2,493.6,310.9,-1.3,-1,-2.5,25,804.394,495.16,311.906,-0.643037,-0.331963,-1.90457,
2026_06_10_18_16_07.135,3.863,29.9,0,0.76,0,0,0,0, ,0,0,0,0,0, ,803.8,496.9,312.7,-0.9,-0.6,-2.9,25,804.4,495.165,311.9,-0.670883,-0.360484,-1.95304,
2026_06_10_18_16_07.155,3.863,30,0,0.758,0,0,0,0, ,0,0,0,0,0, ,803.3,501.4,310.9,0,-0.4,-2,25,804.349,495.408,311.894,-0.657423,-0.368986,-1.98332,
2026_06_10_18_16_07.174,3.863,30,0,0.76,0,0,0,0, ,0,0,0,0,0, ,804.9,495.8,313.4,-0.5,-0.3,-1.8,25,804.333,495.603,311.909,-0.632596,-0.367829,-1.97825,
2026_06_10_18_16_07.194,3.863,30,0,0.758,0,0,0,0, ,0,0,0,0,0, ,803.9,495.9,309.4,-0.5,-0.1,-2.1,25,804.338,495.618,311.878,-0.624516,-0.357602,-1.97652,
2026_06_10_18_16_07.214,3.863,29.9,0,0.758,0,0,0,0, ,0,0,0,0,0, ,801.3,498,312.3,-0.3,0,-2,25,804.232,495.699,311.816,-0.610834,-0.338857,-1.981,
2026_06_10_18_16_07.234,3.863,29.9,0,0.758,0,0,0,0, ,0,0,0,0,0, ,802.9,498,310.6,0,0,-1.7,25,804.102,495.839,311.793,-0.582752,-0.318208,-1.97302,
2026_06_10_18_16_07.254,3.863,29.9,0,0.758,0,0,0,0, ,0,0,0,0,0, ,803.4,498.4,311.4,-0.1,0.4,-1.4,25,804.044,495.983,311.745,-0.550288,-0.28663,-1.94724,
2026_06_10_18_16_07.273,3.863,30.1,0,0.758,0,0,0,0, ,0,0,0,0,0, ,802.9,498.2,313.2,-0.3,0.3,-1.6,25,803.989,496.124,311.779,-0.528942,-0.247835,-1.91999,
2026_06_10_18_16_07.293,3.863,29.9,0,0.757,0,0,0,0, ,0,0,0,0,0, ,804.4,501.2,316,-1,-0.4,-1,25,803.969,496.342,311.951,-0.536319,-0.23578,-1.88221,
2026_06_10_18_16_07.313,3.863,30,0,0.758,0,0,0,0, ,0,0,0,0,0, ,799.4,499,319.7,-1.6,-1.5,-0.6,25,803.843,496.571,312.31,-0.582856,-0.279302,-1.81626,
2026_06_10_18_16_07.332,3.863,30,0,0.761,0,0,0,0, ,0,0,0,0,0, ,805.6,490.7,311.6,-2.2,-2.3,-1,25,803.761,496.466,312.514,-0.663119,-0.378064,-1.75433,
2026_06_10_18_16_07.356,3.863,30,0,0.76,0,0,0,0, ,0,0,0,0,0, ,802.6,492.9,309.6,-1.5,-1.8,-1.4,25,803.781,496.182,312.397,-0.735445,-0.479947,-1.72055,
2026_06_10_18_16_07.372,3.863,29.9,0,0.758,0,0,0,0, ,0,0,0,0,0, ,805.7,490.8,305.4,0,-0.3,-2,25,803.804,495.918,312.099,-0.736332,-0.514685,-1.7193,
2026_06_10_18_16_07.392,3.863,30,0,0.76,0,0,0,0, ,0,0,0,0,0, ,803.8,493.4,314.8,-0.3,-0.3,-2.4,25,803.862,495.685,311.977,-0.700602,-0.501602,-1.74859,
2026_06_10_18_16_07.412,3.863,30,0,0.76,0,0,0,0, ,0,0,0,0,0, ,801.5,495.7,316.1,-0.2,-0.5,-3,25,803.788,495.616,312.189,-0.673144,-0.495411,-1.80657,
2026_06_10_18_16_07.432,3.863,30,0,0.76,0,0,0,0, ,0,0,0,0,0, ,804.4,496.2,317,-0.8,-1.9,-2.9,25,803.737,495.636,312.454,-0.662593,-0.538347,-1.87625,
2026_06_10_18_16_07.452,3.863,30,0,0.761,0,0,0,0, ,0,0,0,0,0, ,803.1,495.4,308.4,-0.8,-1.8,-3.7,25,803.737,495.646,312.469,-0.670966,-0.618276,-1.96301,
2026_06_10_18_16_07.472,3.863,29.9,0,0.758,0,0,0,0, ,0,0,0,0,0, ,805.6,496,304.8,0,-1.3,-3.6,25,803.775,495.65,312.112,-0.654454,-0.675053,-2.06581,
2026_06_10_18_16_07.492,3.863,29.9,0,0.758,0,0,0,0, ,0,0,0,0,0, ,802.3,505,306.5,-0.3,-0.6,-3.7,25,803.785,495.945,311.718,-0.623714,-0.691807,-2.16234,
2026_06_10_18_16_07.511,3.863,29.9,0,0.76,0,0,0,0, ,0,0,0,0,0, ,802,505.4,310.6,0.2,-0.2,-2.7,25,803.686,496.509,311.525,-0.588753,-0.674025,-2.22558,
2026_06_10_18_16_07.531,3.863,29.9,0,0.76,0,0,0,0, ,0,0,0,0,0, ,802.9,500.3,307.8,-0.8,-0.3,-2.1,25,803.61,496.896,311.383,-0.571157,-0.648186,-2.23621,
2026_06_10_18_16_07.553,3.863,30,0,0.758,0,0,0,0, ,0,0,0,0,0, ,801.7,504.7,315.4,-0.2,0.1,-1.3,25,803.531,497.237,311.396,-0.566821,-0.614781,-2.20353,
2026_06_10_18_16_07.571,3.863,29.9,0,0.757,0,0,0,0, ,0,0,0,0,0, ,801.1,496.8,308.7,-0.9,-0.5,-0.9,25,803.401,497.451,311.436,-0.565796,-0.589505,-2.13628,
2026_06_10_18_16_07.590,3.863,29.9,0,0.757,0,0,0,0, ,0,0,0,0,0, ,804.1,497.6,307.4,-0.1,0.1,-1.1,25,803.352,497.436,311.23,-0.561787,-0.56577,-2.06704,
2026_06_10_18_16_07.610,3.863,29.9,0,0.758,0,0,0,0, ,0,0,0,0,0, ,801.1,499.3,311.8,-0.4,-0.1,-1.5,25,803.306,497.498,311.131,-0.542787,-0.531293,-2.0203,
2026_06_10_18_16_07.630,3.863,29.9,0,0.76,0,0,0,0, ,0,0,0,0,0, ,801.5,506.7,309.6,-0.2,0,-0.6,25,803.184,497.833,311.104,-0.527992,-0.501965,-1.96117,
2026_06_10_18_16_07.650,3.863,29.9,0,0.758,0,0,0,0, ,0,0,0,0,0, ,802.8,496.3,311,-1.4,-0.7,-0.3,25,803.121,498.056,311.055,-0.544568,-0.492704,-1.86909,
2026_06_10_18_16_07.670,3.863,29.9,0,0.758,0,0,0,0, ,0,0,0,0,0, ,805.5,491.8,301.7,-0.9,0.1,-1,25,803.184,497.812,310.769,-0.581461,-0.480961,-1.7948,
2026_06_10_18_16_07.690,3.863,29.9,0,0.761,0,0,0,0, ,0,0,0,0,0, ,802.3,495.7,314.4,-0.8,0.4,-1.8,25,803.227,497.565,310.603,-0.597825,-0.436418,-1.77074,
2026_06_10_18_16_07.710,3.863,30,0,0.758,0,0,0,0, ,0,0,0,0,0, ,801.3,504.7,314.6,-1.1,-0.3,-1.4,25,803.14,497.725,310.84,-0.619286,-0.406777,-1.76034,
2026_06_10_18_16_07.734,3.863,29.9,0,0.758,0,0,0,0, ,0,0,0,0,0, ,802.3,494.9,317.2,-1.6,-1.5,-1,25,803.059,497.852,311.149,-0.663814,-0.436833,-1.72619,
2026_06_10_18_16_07.750,3.863,29.9,0,0.757,0,0,0,0, ,0,0,0,0,0, ,803.1,492.9,312.2,-1.3,-2.1,-2,25,803.037,497.611,311.365,-0.711722,-0.519901,-1.71241,
2026_06_10_18_16_07.768,3.863,29.9,0,0.758,0,0,0,0, ,0,0,0,0,0, ,804,495.9,312.7,-0.1,-2,-2,25,803.068,497.415,311.431,-0.711008,-0.613141,-1.72993,
2026_06_10_18_16_07.788,3.863,29.9,0,0.758,0,0,0,0, ,0,0,0,0,0, ,802.9,499,311.7,0,-2.2,-2.3,25,803.091,497.417,311.478,-0.670728,-0.703747,-1.75553,
2026_06_10_18_16_07.808,3.863,29.9,0,0.76,0,0,0,0, ,0,0,0,0,0, ,803.9,501.8,302.3,-0.9,-2,-2,25,803.11,497.599,311.205,-0.657277,-0.788831,-1.77957,
2026_06_10_18_16_07.828,3.863,30,0,0.76,0,0,0,0, ,0,0,0,0,0, ,803.2,499.7,305.2,-0.5,-0.6,-1.7,25,803.137,497.791,310.751,-0.65988,-0.81998,-1.78386,
2026_06_10_18_16_07.848,3.863,30,0,0.758,0,0,0,0, ,0,0,0,0,0, ,802.6,498.6,305.4,-0.8,-0.3,-1.4,25,803.123,497.874,310.419,-0.659278,-0.797435,-1.76961,
2026_06_10_18_16_07.868,3.863,29.9,0,0.76,0,0,0,0, ,0,0,0,0,0, ,804.8,497.4,305.7,-0.8,0.1,-1.5,25,803.158,497.882,310.122,-0.667854,-0.754935,-1.75013,
2026_06_10_18_16_07.887,3.863,29.8,0,0.76,0,0,0,0, ,0,0,0,0,0, ,802.8,498,309.3,-0.6,0.1,-1.6,25,803.197,497.871,309.962,-0.669813,-0.702837,-1.73794,
2026_06_10_18_16_07.907,3.863,29.8,0,0.758,0,0,0,0.001, ,0,0,0,0,0, ,803.8,496.4,303.9,0.8,1.3,-1.6,25,803.203,497.83,309.757,-0.622902,-0.617352,-1.72953,
2026_06_10_18_16_07.934,3.863,29.9,0,0.76,0,0,0,0.001, ,0,0,0,0,0, ,802.1,499.3,309.3,1,1.8,-1.6,25,803.188,497.831,309.565,-0.5301,-0.485279,-1.72164,
2026_06_10_18_16_07.949,3.863,29.9,0,0.758,0,0,0,0, ,0,0,0,0,0, ,801,507.2,317.3,-0.1,0.8,-1.8,25,803.088,498.161,309.793,-0.470375,-0.376488,-1.72032,
2026_06_10_18_16_07.967,3.863,29.8,0,0.758,0,0,0,0, ,0,0,0,0,0, ,802,501.7,314.6,-0.8,-0.2,-1.1,25,802.991,498.544,310.168,-0.469134,-0.335265,-1.70385,
2026_06_10_18_16_07.987,3.863,29.9,0,0.76,0,0,0,0.001, ,0,0,0,0,0, ,803.5,498.2,314.2,-1.3,-0.9,-0.6,25,802.976,498.63,310.426,-0.50453,-0.34835,-1.65182,
2026_06_10_18_16_08.006,3.863,29.9,0,0.76,0,0,0,0, ,0,0,0,0,0, ,802.2,497,309,-1.8,-0.9,-1.1,25,802.969,498.567,310.497,-0.568239,-0.381966,-1.60295,
2026_06_10_18_16_08.026,3.863,29.9,0,0.757,0,0,0,0, ,0,0,0,0,0, ,803.7,495.4,312.8,-1.5,-0.6,-1.3,25,802.968,498.423,310.522,-0.634158,-0.404393,-1.5784,
2026_06_10_18_16_08.046,3.863,29.9,0,0.758,0,0,0,0, ,0,0,0,0,0, ,803.2,493.1,313.8,-1.6,-1.1,-2.1,25,802.997,498.169,310.691,-0.689968,-0.431548,-1.58581,
2026_06_10_18_16_08.066,3.863,29.9,0,0.76,0,0,0,0, ,0,0,0,0,0, ,803.7,495.1,312.3,-1,-1.5,-2.3,25,803.025,497.921,310.835,-0.727141,-0.484469,-1.62324,
2026_06_10_18_16_08.086,3.863,29.9,0,0.758,0,0,0,0, ,0,0,0,0,0, ,803.5,491,310.4,-1.2,-1.9,-3.3,25,803.06,497.624,310.866,-0.749862,-0.55854,-1.69495,
2026_06_10_18_16_08.105,3.863,29.9,0,0.76,0,0,0,0, ,0,0,0,0,0, ,804,492.6,308.5,-0.7,-1.9,-4.3,25,803.102,497.269,310.78,-0.762058,-0.640286,-1.82322,
2026_06_10_18_16_08.129,3.863,29.9,0,0.76,0,0,0,0.001, ,0,0,0,0,0, ,802.3,497.1,311.8,0,-2,-5.1,25,803.105,497.122,310.742,-0.736949,-0.720096,-1.99853,
2026_06_10_18_16_08.146,3.863,29.9,0,0.758,0,0,0,0.001, ,0,0,0,0,0, ,802.6,502.4,302.4,0.1,-1.7,-5,25,803.065,497.282,310.52,-0.688994,-0.78895,-2.18448,
2026_06_10_18_16_08.165,3.863,29.9,0,0.758,0,0,0,0.001, ,0,0,0,0,0, ,802.6,503.2,303.1,0.6,-0.6,-4.6,25,803.036,497.618,310.046,-0.62568,-0.810951,-2.34386,
2026_06_10_18_16_08.185,3.863,29.9,0,0.758,0,0,0,0.001, ,0,0,0,0,0, ,801,509.7,303.9,0.5,0,-3.8,25,802.961,498.156,309.647,-0.554037,-0.779815,-2.45697,
2026_06_10_18_16_08.204,3.863,29.9,0,0.758,0,0,0,0.001, ,0,0,0,0,0, ,802.7,506.4,302.4,0.6,1.1,-3.2,25,802.893,498.759,309.251,-0.48676,-0.69878,-2.52053,
2026_06_10_18_16_08.225,3.863,29.8,0,0.757,0,0,0,0.001, ,0,0,0,0,0, ,799.1,500.7,320.6,0.5,-0.3,-2.9,25,802.772,499.051,309.388,-0.423582,-0.631823,-2.55279,
2026_06_10_18_16_08.244,3.863,29.8,0,0.759,0,0,0,0.001, ,0,0,0,0,0, ,800.7,507.5,307.8,0.2,-1.4,-2.9,25,802.597,499.359,309.682,-0.376442,-0.645118,-2.57395,
2026_06_10_18_16_08.264,3.863,29.8,0,0.76,0,0,0,0.001, ,0,0,0,0,0, ,800.2,510.2,305.9,0,-1,-2.3,25,802.466,499.937,309.509,-0.347409,-0.678931,-2.57554,
2026_06_10_18_16_08.284,3.863,29.9,0,0.758,0,0,0,0.001, ,0,0,0,0,0, ,800.5,505.8,306.6,-0.1,-0.9,-1.5,25,802.337,500.428,309.31,-0.329286,-0.695449,-2.53437,
2026_06_10_18_16_08.305,3.863,29.9,0,0.756,0,0,0,0.001, ,0,0,0,0,0, ,800.2,506.9,303.2,-1.1,-1,-1.3,25,802.216,500.789,309.042,-0.345782,-0.710961,-2.46525,
2026_06_10_18_16_08.327,3.863,29.9,0,0.759,0,0,0,0.001, ,0,0,0,0,0, ,799.1,508.9,305.2,-1,-0.7,-0.5,25,802.06,501.223,308.747,-0.388696,-0.719434,-2.36986,
2026_06_10_18_16_08.344,3.863,29.9,0,0.76,0,0,0,0.001, ,0,0,0,0,0, ,802.2,504.1,305,-1.6,-0.7,-0.3,25,801.974,501.544,308.524,-0.444228,-0.718249,-2.24983,
2026_06_10_18_16_08.363,3.863,29.9,0,0.76,0,0,0,0.001, ,0,0,0,0,0, ,801.7,503.2,302.1,-0.5,0.2,-0.1,25,801.972,501.673,308.221,-0.481142,-0.689715,-2.12491,
2026_06_10_18_16_08.383,3.863,29.9,0,0.758,0,0,0,0.001, ,0,0,0,0,0, ,800.9,503.4,313.2,-0.7,0.1,-0.5,25,801.931,501.772,308.186,-0.488385,-0.638545,-2.01371,
2026_06_10_18_16_08.403,3.863,29.8,0,0.759,0,0,0,0.001, ,0,0,0,0,0, ,800.5,502.4,312.6,-1.6,-1.2,-0.5,25,801.856,501.84,308.474,-0.528702,-0.63315,-1.92147,
2026_06_10_18_16_08.422,3.863,29.9,0,0.758,0,0,0,0.001, ,0,0,0,0,0, ,804.5,495.6,305.4,-2.2,-1.6,-1.4,25,801.896,501.667,308.506,-0.612266,-0.67988,-1.86227,
2026_06_10_18_16_08.443,3.863,29.8,0,0.758,0,0,0,0.001, ,0,0,0,0,0, ,802.6,501.4,300.5,-0.8,-0.7,-1.9,25,801.996,501.474,308.167,-0.666362,-0.708527,-1.84933,
2026_06_10_18_16_08.462,3.863,29.9,0,0.758,0,0,0,0.002, ,0,0,0,0,0, ,801.2,512.3,310.7,-0.8,-0.5,-1.3,25,801.99,501.802,308.011,-0.674506,-0.701914,-1.83414,
2026_06_10_18_16_08.482,3.863,29.9,0,0.758,0,0,0,0.001, ,0,0,0,0,0, ,801.7,502.5,304.5,-2.1,-1.2,-0.9,25,801.958,502.143,307.986,-0.721762,-0.710938,-1.7894,
2026_06_10_18_16_08.502,3.863,29.8,0,0.759,0,0,0,0.001, ,0,0,0,0,0, ,804.9,493.2,289.6,-1.2,1,-1.8,25,802.039,501.881,307.319,-0.778327,-0.673709,-1.76263,
2026_06_10_18_16_08.526,3.863,29.9,0,0.759,0,0,0,0.002, ,0,0,0,0,0, ,805.1,496,297.3,-0.2,2.3,-2.4,25,802.22,501.438,306.474,-0.773554,-0.532108,-1.78319,
2026_06_10_18_16_08.542,3.863,29.9,0,0.76,0,0,0,0.001, ,0,0,0,0,0, ,800.6,503.9,315.1,0.1,2.5,-2.7,25,802.258,501.347,306.457,-0.729462,-0.353433,-1.82991,
2026_06_10_18_16_08.561,3.863,29.9,0,0.76,0,0,0,0.001, ,0,0,0,0,0, ,796.9,507.9,322.6,-0.8,0.2,-2,25,802.044,501.625,307.213,-0.706339,-0.24963,-1.86161,
2026_06_10_18_16_08.581,3.863,29.8,0,0.76,0,0,0,0.001, ,0,0,0,0,0, ,801.5,500.4,311.6,-1,-1,-1.7,25,801.871,501.778,307.815,-0.71814,-0.258793,-1.8609,
2026_06_10_18_16_08.601,3.863,29.9,0,0.759,0,0,0,0.002, ,0,0,0,0,0, ,800.9,499.2,307.9,-0.4,-1.1,-2.1,25,801.83,501.658,307.933,-0.717035,-0.307007,-1.86328,
2026_06_10_18_16_08.621,3.863,29.8,0,0.758,0,0,0,0.001, ,0,0,0,0,0, ,800.5,506.2,310.4,0,-0.9,-2.4,25,801.761,501.721,308.007,-0.685528,-0.349236,-1.88685,
2026_06_10_18_16_08.641,3.863,29.8,0,0.758,0,0,0,0.002, ,0,0,0,0,0, ,800.7,510.3,311,-1.2,-1.7,-1.3,25,801.691,502.119,308.171,-0.680316,-0.407174,-1.8846,
2026_06_10_18_16_08.661,3.863,29.8,0,0.758,0,0,0,0.002, ,0,0,0,0,0, ,800,505.6,311,-1.4,-1.8,-0.3,25,801.609,502.475,308.344,-0.718078,-0.489002,-1.81851,
2026_06_10_18_16_08.680,3.863,29.8,0,0.758,0,0,0,0.002, ,0,0,0,0,0, ,802.6,507.2,295.6,-1.5,-0.7,0.2,25,801.59,502.714,308.036,-0.762679,-0.535375,-1.71074,
2026_06_10_18_16_08.700,3.863,29.8,0,0.76,0,0,0,0.002, ,0,0,0,0,0, ,804.4,501.9,297.2,0,1,0.4,25,801.706,502.826,307.327,-0.761907,-0.49361,-1.58821,
2026_06_10_18_16_08.721,3.863,29.8,0,0.759,0,0,0,0.002, ,0,0,0,0,0, ,803.1,502.8,304.8,0.3,2.3,0.4,25,801.831,502.797,306.942,-0.706337,-0.362984,-1.46705,
2026_06_10_18_16_08.739,3.863,29.8,0,0.758,0,0,0,0.002, ,0,0,0,0,0, ,801,506.3,308.5,0.1,2.3,1.3,25,801.844,502.903,306.924,-0.651108,-0.200708,-1.32586,
2026_06_10_18_16_08.759,3.863,29.9,0,0.759,0,0,0,0.002, ,0,0,0,0,0, ,802.8,501.9,307.8,-0.9,2.2,1.8,25,801.848,502.976,306.999,-0.635806,-0.0513684,-1.15061,
2026_06_10_18_16_08.779,3.863,29.9,0,0.76,0,0,0,0.001, ,0,0,0,0,0, ,805.1,491.3,309.3,-0.7,2.3,1.5,25,801.976,502.588,307.093,-0.645811,0.0888712,-0.979949,
2026_06_10_18_16_08.799,3.863,29.8,0,0.76,0,0,0,0.001, ,0,0,0,0,0, ,801.6,499.3,314.6,-0.4,2.6,0.9,25,802.06,502.144,307.389,-0.639973,0.232752,-0.847108,
2026_06_10_18_16_08.819,3.863,29.9,0,0.759,0,0,0,0.002, ,0,0,0,0,0, ,803.1,497.3,318.4,-0.9,1.5,1.1,25,802.077,501.91,307.944,-0.640584,0.343491,-0.73455,
2026_06_10_18_16_08.839,3.863,29.8,0,0.76,0,0,0,0.001, ,0,0,0,0,0, ,802.9,493.7,322.5,-1.2,0.2,0.9,25,802.133,501.519,308.706,-0.665533,0.374356,-0.628851,
2026_06_10_18_16_08.859,3.863,29.9,0,0.759,0,0,0,0.002, ,0,0,0,0,0, ,803.2,487.6,318.9,-1.6,-1.5,-0.1,25,802.189,500.857,309.437,-0.710289,0.311935,-0.566155,
2026_06_10_18_16_08.878,3.863,29.8,0,0.76,0,0,0,0.001, ,0,0,0,0,0, ,806.3,486.3,307.4,-0.9,-1.6,-1.6,25,802.345,500.009,309.663,-0.743178,0.198473,-0.583452,
2026_06_10_18_16_08.898,3.863,29.8,0,0.76,0,0,0,0.002, ,0,0,0,0,0, ,805.2,489,308.1,-0.5,-0.6,-3,25,802.553,499.256,309.547,-0.740547,0.119347,-0.688054,
2026_06_10_18_16_08.918,3.863,29.8,0,0.759,0,0,0,0.002, ,0,0,0,0,0, ,804.5,497.5,316.2,-0.8,-0.7,-3.3,25,802.693,498.89,309.706,-0.735029,0.0724652,-0.838079,
2026_06_10_18_16_08.942,3.863,29.7,0,0.759,0,0,0,0.002, ,0,0,0,0,0, ,802.4,496.2,316.6,-1,-1.3,-3.1,25,802.739,498.766,310.113,-0.745082,0.00711188,-0.982009,
2026_06_10_18_16_08.957,3.863,29.8,0,0.759,0,0,0,0.003, ,0,0,0,0,0, ,805.4,488.8,305.1,-1.2,-1.2,-4,25,802.81,498.384,310.158,-0.76671,-0.0694934,-1.1385,
2026_06_10_18_16_08.977,3.863,29.7,0,0.76,0,0,0,0.002, ,0,0,0,0,0, ,804.5,493.6,311,0.4,-0.3,-4.9,25,802.94,497.946,310.03,-0.744363,-0.110962,-1.34029,
2026_06_10_18_16_08.997,3.863,29.8,0,0.759,0,0,0,0.003, ,0,0,0,0,0, ,802.6,499.6,313.3,0.2,-0.8,-4.9,25,802.977,497.864,310.159,-0.680722,-0.137716,-1.55721,
2026_06_10_18_16_09.017,3.863,29.8,0,0.759,0,0,0,0.002, ,0,0,0,0,0, ,803.8,502.8,306,0.3,-0.2,-4.4,25,802.991,498.067,310.128,-0.624007,-0.159792,-1.74568,
2026_06_10_18_16_09.037,3.863,29.8,0,0.756,0,0,0,0.002, ,0,0,0,0,0, ,801.8,503.5,311,0.1,0,-4,25,802.979,498.377,310.029,-0.573794,-0.156149,-1.89524,
2026_06_10_18_16_09.057,3.863,29.8,0,0.758,0,0,0,0.002, ,0,0,0,0,0, ,801,504.6,310.9,0.5,0.3,-3.3,25,802.883,498.723,310.085,-0.520547,-0.137493,-2.00217,
2026_06_10_18_16_09.076,3.863,29.8,0,0.76,0,0,0,0.002, ,0,0,0,0,0, ,799.8,506.3,310.3,0.4,0.4,-2.7,25,802.732,499.133,310.116,-0.461404,-0.107786,-2.06297,
2026_06_10_18_16_09.097,3.863,29.8,0,0.76,0,0,0,0.002, ,0,0,0,0,0, ,799.1,507.6,314.4,-0.5,0.2,-1.8,25,802.532,499.609,310.252,-0.436334,-0.0829367,-2.07437,
2026_06_10_18_16_09.116,3.863,29.9,0,0.759,0,0,0,0.002, ,0,0,0,0,0, ,800.2,506.4,311.5,-0.8,0,-1.2,25,802.356,500.059,310.417,-0.449355,-0.071789,-2.03937,
2026_06_10_18_16_09.136,3.863,29.8,0,0.761,0,0,0,0.001, ,0,0,0,0,0, ,800.9,506.1,311.6,-0.7,0.1,-0.4,25,802.246,500.437,310.486,-0.467675,-0.0643675,-1.96385,
2026_06_10_18_16_09.155,3.863,29.8,0,0.758,0,0,0,0.002, ,0,0,0,0,0, ,801.2,500.4,313.2,-0.9,0.1,-0.5,25,802.173,500.608,310.603,-0.487926,-0.0543514,-1.8716,
2026_06_10_18_16_09.175,3.863,29.8,0,0.758,0,0,0,0.002, ,0,0,0,0,0, ,801,497.9,311.7,-1,-0.3,-0.5,25,802.108,500.519,310.715,-0.516084,-0.0571331,-1.78801,
2026_06_10_18_16_09.195,3.863,29.8,0,0.758,0,0,0,0.002, ,0,0,0,0,0, ,802.4,501.2,308.9,-1.2,0,-0.7,25,802.083,500.46,310.69,-0.551666,-0.0627922,-1.71562,
2026_06_10_18_16_09.215,3.863,29.8,0,0.76,0,0,0,0.002, ,0,0,0,0,0, ,802.4,498.2,311.5,-1.3,0,-0.7,25,802.102,500.414,310.66,-0.594221,-0.0589658,-1.65373,
2026_06_10_18_16_09.235,3.863,29.7,0,0.758,0,0,0,0.002, ,0,0,0,0,0, ,802.2,501.2,310,-1.4,0.2,-1,25,802.114,500.37,310.665,-0.640276,-0.0492788,-1.60475,
2026_06_10_18_16_09.255,3.863,29.8,0,0.759,0,0,0,0.003, ,0,0,0,0,0, ,800.4,500.9,315.4,-1.4,0.2,-0.8,25,802.065,500.412,310.789,-0.686572,-0.0340884,-1.56181,
2026_06_10_18_16_09.274,3.863,29.7,0,0.758,0,0,0,0.002, ,0,0,0,0,0, ,800.7,497.8,321.5,-3,-1.2,-1.1,25,801.972,500.347,311.256,-0.778796,-0.0624799,-1.52453,
2026_06_10_18_16_09.294,3.863,29.7,0,0.758,0,0,0,0.003, ,0,0,0,0,0, ,802.3,495.6,305.2,-2,-1.2,-1.5,25,801.944,500.125,311.384,-0.883682,-0.131797,-1.51084,
2026_06_10_18_16_09.314,3.863,29.8,0,0.76,0,0,0,0.003, ,0,0,0,0,0, ,802.4,492.6,307.6,-0.8,0,-2.3,25,801.968,499.758,311.08,-0.915145,-0.160329,-1.53456,
2026_06_10_18_16_09.335,3.863,29.8,0,0.76,0,0,0,0.002, ,0,0,0,0,0, ,798.5,507.2,322.5,-0.7,0.3,-2.1,25,801.876,499.766,311.322,-0.905082,-0.141418,-1.57511,
2026_06_10_18_16_09.359,3.863,29.8,0,0.759,0,0,0,0.002, ,0,0,0,0,0, ,801.8,496.4,315.1,-1.7,-1,-1.7,25,801.771,499.89,311.778,-0.923053,-0.154128,-1.59491,
2026_06_10_18_16_09.379,3.863,29.8,0,0.758,0,0,0,0.002, ,0,0,0,0,0, ,802.6,492.7,308.5,-0.5,-0.5,-2.2,25,801.797,499.565,311.779,-0.933836,-0.190439,-1.61654,
2026_06_10_18_16_09.394,3.863,29.8,0,0.76,0,0,0,0.002, ,0,0,0,0,0, ,802.7,496.7,308.9,0.3,0.4,-2.8,25,801.849,499.268,311.591,-0.883024,-0.181881,-1.67038,
2026_06_10_18_16_09.414,3.863,29.7,0,0.759,0,0,0,0.002, ,0,0,0,0,0, ,799.1,509.8,317.3,0,0.2,-2.2,25,801.791,499.511,311.683,-0.820074,-0.152517,-1.72093,
2026_06_10_18_16_09.433,3.863,29.7,0,0.758,0,0,0,0.003, ,0,0,0,0,0, ,801.6,502.1,312.8,-0.6,-0.3,-0.9,25,801.703,499.903,311.889,-0.788382,-0.14627,-1.71052,
2026_06_10_18_16_09.453,3.863,29.7,0,0.758,0,0,0,0.003, ,0,0,0,0,0, ,801.3,499.3,309.9,-0.2,0.3,-0.8,25,801.688,499.952,311.856,-0.764715,-0.137356,-1.65808,
2026_06_10_18_16_09.472,3.863,29.7,0,0.758,0,0,0,0.003, ,0,0,0,0,0, ,801.8,499.6,307.1,0.5,1.2,-0.7,25,801.679,499.921,311.651,-0.708975,-0.083283,-1.60274,
2026_06_10_18_16_09.492,3.863,29.7,0,0.758,0,0,0,0.003, ,0,0,0,0,0, ,800.6,499.7,315.1,-0.1,1.4,-0.6,25,801.65,499.905,311.618,-0.653584,0.00101082,-1.54469,
2026_06_10_18_16_09.512,3.863,29.7,0,0.758,0,0,0,0.003, ,0,0,0,0,0, ,802.1,498.4,316.1,-0.3,0.9,-0.2,25,801.632,499.853,311.86,-0.625944,0.0710273,-1.47493,
2026_06_10_18_16_09.538,3.863,29.7,0,0.759,0,0,0,0.003, ,0,0,0,0,0, ,801,492.4,316.4,-1,0.2,-0.9,25,801.627,499.581,312.128,-0.62741,0.100215,-1.41857,
2026_06_10_18_16_09.552,3.863,29.7,0,0.758,0,0,0,0.003, ,0,0,0,0,0, ,801.6,495.6,320.1,-0.4,-0.4,-1.4,25,801.607,499.241,312.501,-0.631833,0.0880141,-1.4022,
2026_06_10_18_16_09.571,3.863,29.7,0,0.758,0,0,0,0.003, ,0,0,0,0,0, ,801.5,490.3,318.4,-0.1,-1.4,-2.3,25,801.603,498.858,312.912,-0.608565,0.027807,-1.42949,
2026_06_10_18_16_09.592,3.863,29.7,0,0.758,0,0,0,0.003, ,0,0,0,0,0, ,801.1,497.3,319.3,0.2,-2.2,-3,25,801.585,498.55,313.274,-0.568434,-0.0835749,-1.50387,
2026_06_10_18_16_09.612,3.863,29.7,0,0.76,0,0,0,0.004, ,0,0,0,0,0, ,801.3,497.8,314,-0.1,-3.1,-3.2,25,801.562,498.489,313.48,-0.530748,-0.239966,-1.60113,
2026_06_10_18_16_09.632,3.863,29.8,0,0.758,0,0,0,0.004, ,0,0,0,0,0, ,800.7,505.6,310.6,-1.3,-3.1,-3.2,25,801.527,498.684,313.408,-0.541062,-0.41425,-1.69856,
2026_06_10_18_16_09.652,3.863,29.7,0,0.759,0,0,0,0.003, ,0,0,0,0,0, ,802.7,497.9,302.8,-0.7,-1.8,-2.9,25,801.538,498.871,312.999,-0.569028,-0.538303,-1.78091,
2026_06_10_18_16_09.671,3.863,29.7,0,0.759,0,0,0,0.004, ,0,0,0,0,0, ,803.1,498.4,302.8,-0.3,-0.4,-3.3,25,801.621,498.827,312.378,-0.564822,-0.572532,-1.8613,
2026_06_10_18_16_09.691,3.863,29.7,0,0.76,0,0,0,0.004, ,0,0,0,0,0, ,801.7,502,309.9,0.6,0.9,-3,25,801.668,498.911,312.01,-0.521263,-0.522409,-1.93983,
2026_06_10_18_16_09.711,3.863,29.7,0,0.758,0,0,0,0.004, ,0,0,0,0,0, ,799.8,502.1,311.5,-0.2,0.6,-2.7,25,801.612,499.102,311.93,-0.477311,-0.444871,-1.99529,
2026_06_10_18_16_09.730,3.863,29.7,0,0.758,0,0,0,0.004, ,0,0,0,0,0, ,799.9,501.8,313.8,-0.7,0.3,-2.8,25,801.505,499.276,311.974,-0.475646,-0.39034,-2.04128,
2026_06_10_18_16_09.750,3.863,29.8,0,0.759,0,0,0,0.004, ,0,0,0,0,0, ,799.3,501,317.6,-0.4,0,-2.8,25,801.389,499.405,312.201,-0.480177,-0.357413,-2.08751,
2026_06_10_18_16_09.770,3.863,29.7,0,0.759,0,0,0,0.003, ,0,0,0,0,0, ,798.5,502.8,316.4,0,-0.4,-2.9,25,801.237,499.557,312.494,-0.463104,-0.347821,-2.13398,
2026_06_10_18_16_09.789,3.863,29.8,0,0.757,0,0,0,0.004, ,0,0,0,0,0, ,799.4,505,317.7,0.2,-1.2,-2.6,25,801.098,499.822,312.771,-0.42879,-0.375375,-2.17152,
2026_06_10_18_16_09.810,3.863,29.7,0,0.758,0,0,0,0.003, ,0,0,0,0,0, ,800.7,508.9,314,-0.8,-2,-2.2,25,801.034,500.256,312.959,-0.420942,-0.450001,-2.18544,
2026_06_10_18_16_09.829,3.863,29.7,0,0.758,0,0,0,0.004, ,0,0,0,0,0, ,799.8,508,309.2,-0.6,-2,-1.4,25,800.986,500.756,312.876,-0.437947,-0.544454,-2.16195,
2026_06_10_18_16_09.849,3.863,29.7,0,0.761,0,0,0,0.004, ,0,0,0,0,0, ,801,499.1,304,-0.7,-1.4,-1.4,25,800.95,500.926,312.494,-0.450869,-0.61487,-2.11552,
2026_06_10_18_16_09.869,3.863,29.7,0,0.76,0,0,0,0.004, ,0,0,0,0,0, ,800.9,503.5,305.6,0.2,-0.1,-1.7,25,800.95,500.949,312.025,-0.438628,-0.623105,-2.08106,
2026_06_10_18_16_09.889,3.863,29.7,0,0.759,0,0,0,0.004, ,0,0,0,0,0, ,801.5,504.6,309,-0.5,0,-1.7,25,800.966,501.138,311.737,-0.42104,-0.588181,-2.05784,
2026_06_10_18_16_09.909,3.863,29.7,0,0.76,0,0,0,0.004, ,0,0,0,0,0, ,800.2,505.2,309.4,-0.7,0.3,-1.5,25,800.959,501.367,311.582,-0.431945,-0.543198,-2.02994,
2026_06_10_18_16_09.928,3.863,29.7,0,0.758,0,0,0,0.004, ,0,0,0,0,0, ,799.4,503.7,314.3,-0.6,0,-1,25,800.888,501.555,311.599,-0.445233,-0.500956,-1.98241,
2026_06_10_18_16_09.948,3.863,29.7,0,0.76,0,0,0,0.004, ,0,0,0,0,0, ,798.8,502.8,315.6,-0.9,-0.3,-1,25,800.779,501.658,311.803,-0.463805,-0.47957,-1.92255,
2026_06_10_18_16_09.969,3.863,29.7,0,0.759,0,0,0,0.004, ,0,0,0,0,0, ,800.1,500.9,315.5,-0.9,-0.6,-1.2,25,800.698,501.67,312.031,-0.490386,-0.477768,-1.87242,
2026_06_10_18_16_09.988,3.863,29.8,0,0.759,0,0,0,0.004, ,0,0,0,0,0, ,801.6,500.6,307.7,-0.2,-0.4,-1.9,25,800.707,501.614,312.005,-0.494018,-0.479123,-1.85277,
2026_06_10_18_16_10.007,3.863,29.7,0,0.758,0,0,0,0.003, ,0,0,0,0,0, ,799.1,502.9,310.7,0.3,0.1,-1.9,25,800.686,501.622,311.834,-0.460867,-0.459067,-1.85565,
2026_06_10_18_16_10.027,3.863,29.7,0,0.758,0,0,0,0.004, ,0,0,0,0,0, ,798.3,503.6,312.2,0.2,0,-1.9,25,800.565,501.721,311.811,-0.417549,-0.428046,-1.85836,
2026_06_10_18_16_10.047,3.863,29.8,0,0.76,0,0,0,0.004, ,0,0,0,0,0, ,797.4,504.3,315.7,-0.4,-0.7,-1.5,25,800.399,501.857,311.941,-0.398198,-0.42329,-1.84871,
2026_06_10_18_16_10.066,3.863,29.8,0,0.76,0,0,0,0.003, ,0,0,0,0,0, ,801.1,503,307.9,-1.1,-1.3,-1.6,25,800.329,501.966,311.932,-0.419636,-0.458433,-1.8305,
2026_06_10_18_16_10.086,3.863,29.7,0,0.758,0,0,0,0.003, ,0,0,0,0,0, ,800.9,499.5,304.5,0.1,0,-2,25,800.37,501.923,311.583,-0.424533,-0.470107,-1.82864,
2026_06_10_18_16_10.106,3.863,29.8,0,0.758,0,0,0,0.004, ,0,0,0,0,0, ,800.9,504.2,308.4,0,0.6,-2.3,25,800.402,501.918,311.27,-0.395616,-0.423178,-1.84823,
2026_06_10_18_16_10.126,3.863,29.8,0,0.76,0,0,0,0.003, ,0,0,0,0,0, ,798.9,509.5,317.5,0.1,0.5,-1.8,25,800.372,502.219,311.373,-0.368462,-0.363875,-1.86052,
2026_06_10_18_16_10.146,3.863,29.7,0,0.76,0,0,0,0.003, ,0,0,0,0,0, ,798.3,504,315.6,-0.8,-0.6,-1.4,25,800.264,502.495,311.688,-0.367337,-0.344748,-1.84465,
2026_06_10_18_16_10.166,3.863,29.7,0,0.758,0,0,0,0.004, ,0,0,0,0,0, ,799.4,503.5,314.4,-0.9,-1.2,-1.1,25,800.178,502.571,311.89,-0.396749,-0.378584,-1.80841,
2026_06_10_18_16_10.186,3.863,29.7,0,0.758,0,0,0,0.004, ,0,0,0,0,0, ,800.7,497.3,306.8,-0.4,-0.9,-2,25,800.17,502.439,311.811,-0.412181,-0.419498,-1.79266,
2026_06_10_18_16_10.208,3.863,29.7,0,0.761,0,0,0,0.004, ,0,0,0,0,0, ,800.2,504.2,307.8,-0.1,-0.3,-2.3,25,800.187,502.336,311.536,-0.402298,-0.430498,-1.81444,
2026_06_10_18_16_10.226,3.863,29.8,0,0.76,0,0,0,0.004, ,0,0,0,0,0, ,797.4,508.3,316.7,0,-0.9,-1.6,25,800.102,502.575,311.58,-0.38083,-0.440827,-1.8227,
2026_06_10_18_16_10.245,3.863,29.7,0,0.76,0,0,0,0.004, ,0,0,0,0,0, ,800.9,503.1,304.8,-0.7,-1.2,-1.2,25,800.044,502.765,311.529,-0.378952,-0.477948,-1.79694,
2026_06_10_18_16_10.265,3.863,29.8,0,0.759,0,0,0,0.004, ,0,0,0,0,0, ,800.7,502.5,306.3,0,0,-1.6,25,800.09,502.767,311.165,-0.377187,-0.485386,-1.77275,
2026_06_10_18_16_10.285,3.863,29.8,0,0.759,0,0,0,0.004, ,0,0,0,0,0, ,800,508.3,310.7,-0.6,0.6,-1.4,25,800.106,502.928,311.003,-0.372484,-0.437526,-1.75613,
2026_06_10_18_16_10.305,3.863,29.7,0,0.758,0,0,0,0.004, ,0,0,0,0,0, ,797.9,505.3,313.9,-1.6,-0.1,-0.5,25,800.036,503.164,311.082,-0.416817,-0.39563,-1.70701,
2026_06_10_18_16_10.325,3.863,29.7,0,0.758,0,0,0,0.004, ,0,0,0,0,0, ,801.8,501.9,305.5,-0.9,0.2,-0.6,25,800.024,503.19,310.997,-0.467589,-0.368475,-1.6365,
2026_06_10_18_16_10.344,3.863,29.7,0,0.759,0,0,0,0.005, ,0,0,0,0,0, ,800.5,502,314.5,0.3,0.3,-0.4,25,800.093,503.115,310.937,-0.457376,-0.330786,-1.56725,
2026_06_10_18_16_10.365,3.863,29.7,0,0.759,0,0,0,0.005, ,0,0,0,0,0, ,799.4,505.7,315.9,-0.1,-0.3,-0.3,25,800.084,503.159,311.196,-0.423411,-0.310629,-1.49307,
2026_06_10_18_16_10.384,3.863,29.7,0,0.758,0,0,0,0.005, ,0,0,0,0,0, ,800.7,504.6,313.2,-1.3,-0.9,0,25,800.082,503.281,311.401,-0.440266,-0.328263,-1.41123,
2026_06_10_18_16_10.405,3.863,29.6,0,0.758,0,0,0,0.005, ,0,0,0,0,0, ,800,501.4,311.7,-1.9,-1.2,0,25,800.099,503.264,311.465,-0.510937,-0.372243,-1.32523,
2026_06_10_18_16_10.424,3.863,29.7,0,0.758,0,0,0,0.005, ,0,0,0,0,0, ,802.4,496.7,309.8,-0.8,-0.9,-0.1,25,800.166,503.007,311.421,-0.562068,-0.413544,-1.24752,
2026_06_10_18_16_10.444,3.863,29.7,0,0.76,0,0,0,0.005, ,0,0,0,0,0, ,801.7,498.9,311.6,-0.7,-0.8,-0.9,25,800.28,502.69,311.377,-0.57352,-0.440141,-1.20197,
2026_06_10_18_16_10.463,3.863,29.9,0,0.759,0,0,0,0.005, ,0,0,0,0,0, ,801.7,500.1,314.4,-0.4,-1.1,-1,25,800.367,502.495,311.476,-0.572086,-0.47121,-1.18662,
2026_06_10_18_16_10.483,3.863,29.7,0,0.759,0,0,0,0.003, ,0,0,0,0,0, ,801.3,501.4,310.9,-0.5,-1.5,-1,25,800.436,502.389,311.548,-0.564647,-0.521715,-1.17524,
2026_06_10_18_16_10.503,3.863,29.7,0,0.759,0,0,0,0.005, ,0,0,0,0,0, ,803.3,500.1,308.7,-0.8,-1.7,-0.9,25,800.55,502.289,311.441,-0.569848,-0.587423,-1.16152,
2026_06_10_18_16_10.523,3.863,29.8,0,0.759,0,0,0,0.005, ,0,0,0,0,0, ,802.9,497.8,305.1,-1,-1,-1.5,25,800.705,502.086,311.164,-0.589967,-0.633892,-1.16386,
2026_06_10_18_16_10.543,3.863,29.6,0,0.76,0,0,0,0.004, ,0,0,0,0,0, ,804,497.4,307.2,-0.8,-0.4,-2.1,25,800.872,501.812,310.859,-0.608859,-0.637921,-1.20263,
2026_06_10_18_16_10.563,3.863,29.8,0,0.76,0,0,0,0.006, ,0,0,0,0,0, ,802,500.7,312.1,-0.5,-0.2,-2.2,25,801.002,501.644,310.785,-0.611366,-0.617329,-1.26036,
2026_06_10_18_16_10.582,3.863,29.7,0,0.76,0,0,0,0.004, ,0,0,0,0,0, ,803.1,498,309.8,-0.3,-0.4,-2.5,25,801.096,501.504,310.795,-0.598486,-0.597991,-1.32676,
2026_06_10_18_16_10.603,3.863,29.7,0,0.758,0,0,0,0.005, ,0,0,0,0,0, ,803.2,496.8,306.5,-0.2,-0.1,-2.8,25,801.221,501.254,310.634,-0.57725,-0.576786,-1.40739,
2026_06_10_18_16_10.622,3.863,29.8,0,0.758,0,0,0,0.005, ,0,0,0,0,0, ,801.7,500.9,307.7,0,0.1,-3.4,25,801.296,501.107,310.419,-0.548168,-0.541638,-1.51054,
2026_06_10_18_16_10.642,3.863,29.7,0,0.758,0,0,0,0.004, ,0,0,0,0,0, ,801.3,505.9,308.3,0,0.5,-3.1,25,801.309,501.247,310.271,-0.514764,-0.490351,-1.61653,
2026_06_10_18_16_10.661,3.863,29.8,0,0.76,0,0,0,0.005, ,0,0,0,0,0, ,799.8,505,315.6,-0.7,0.1,-2.6,25,801.262,501.503,310.374,-0.504724,-0.442189,-1.6917,
2026_06_10_18_16_10.681,3.863,29.8,0,0.759,0,0,0,0.004, ,0,0,0,0,0, ,801.5,498.2,306.6,-0.1,0.1,-2.5,25,801.225,501.509,310.418,-0.498342,-0.409149,-1.744,
2026_06_10_18_16_10.701,3.863,29.7,0,0.758,0,0,0,0.004, ,0,0,0,0,0, ,801.2,496.8,308.3,0.2,0.4,-2.9,25,801.233,501.265,310.237,-0.464927,-0.368982,-1.80226,
2026_06_10_18_16_10.720,3.863,29.7,0,0.759,0,0,0,0.005, ,0,0,0,0,0, ,800.1,504.6,309,0.1,0.4,-3.5,25,801.197,501.23,310.14,-0.427455,-0.322122,-1.88743,
2026_06_10_18_16_10.741,3.863,29.8,0,0.759,0,0,0,0.005, ,0,0,0,0,0, ,799,509.7,311.4,0,0.6,-2.6,25,801.097,501.591,310.144,-0.39836,-0.272024,-1.95828,
2026_06_10_18_16_10.762,3.863,29.8,0,0.758,0,0,0,0.004, ,0,0,0,0,0, ,798.9,511.9,309.5,-1.1,0.1,-1.3,25,800.966,502.152,310.163,-0.407601,-0.23412,-1.95777,
2026_06_10_18_16_10.780,3.863,29.8,0,0.759,0,0,0,0.004, ,0,0,0,0,0, ,801.3,501.7,299.9,-0.8,1.4,-0.9,25,800.913,502.436,309.83,-0.440653,-0.17415,-1.9055,
2026_06_10_18_16_10.801,3.863,29.7,0,0.759,0,0,0,0.004, ,0,0,0,0,0, ,799.8,504.6,304.8,-0.1,3.6,-1.3,25,800.891,502.479,309.374,-0.441223,-0.0111938,-1.85642,
2026_06_10_18_16_10.822,3.863,29.7,0,0.76,0,0,0,0.005, ,0,0,0,0,0, ,797.4,508.4,318.1,-0.1,3.6,-0.4,25,800.752,502.724,309.5,-0.42043,0.208863,-1.79509,
2026_06_10_18_16_10.843,3.863,29.7,0,0.758,0,0,0,0.005, ,0,0,0,0,0, ,797.9,504.5,324.2,-1.2,1.7,0.2,25,800.563,502.951,310.21,-0.434419,0.35762,-1.69179,
2026_06_10_18_16_10.859,3.863,29.7,0,0.758,0,0,0,0.005, ,0,0,0,0,0, ,799.6,495.9,313.1,-0.7,1.3,-0.3,25,800.452,502.784,310.725,-0.465837,0.427234,-1.59175,
2026_06_10_18_16_10.879,3.863,29.7,0,0.759,0,0,0,0.005, ,0,0,0,0,0, ,798,499.7,322.5,0.3,0.8,-0.8,25,800.351,502.48,311.156,-0.449638,0.465184,-1.52827,
2026_06_10_18_16_10.899,3.863,29.7,0,0.76,0,0,0,0.005, ,0,0,0,0,0, ,798.2,504.6,319,-0.4,-0.1,-1,25,800.214,502.46,311.74,-0.425285,0.458165,-1.48998,
2026_06_10_18_16_10.920,3.863,29.8,0,0.758,0,0,0,0.005, ,0,0,0,0,0, ,798.8,503.4,318.3,-1.6,-1,-0.9,25,800.11,502.554,312.161,-0.460307,0.39673,-1.45708,
2026_06_10_18_16_10.939,3.863,29.7,0,0.758,0,0,0,0.005, ,0,0,0,0,0, ,801.7,498.1,306.2,-1.7,-0.5,-1.1,25,800.118,502.444,312.167,-0.532804,0.326851,-1.42922,
2026_06_10_18_16_10.960,3.863,29.7,0,0.759,0,0,0,0.005, ,0,0,0,0,0, ,799.1,501.2,315.5,-0.5,0.5,-1.4,25,800.135,502.273,312.087,-0.567367,0.306933,-1.4183,
2026_06_10_18_16_10.979,3.863,29.7,0,0.759,0,0,0,0.005, ,0,0,0,0,0, ,798.3,504.3,321.1,-1,-0.2,-1.3,25,800.048,502.302,312.465,-0.578496,0.29737,-1.41414,
2026_06_10_18_16_10.999,3.863,29.8,0,0.759,0,0,0,0.005, ,0,0,0,0,0, ,799.3,499.2,322.7,-1.4,-1.7,-1.4,25,799.972,502.269,313.04,-0.616369,0.221359,-1.41023,
2026_06_10_18_16_11.017,3.863,29.7,0,0.76,0,0,0,0.005, ,0,0,0,0,0, ,801.2,492.3,312.8,-0.3,-1.9,-2.5,25,799.989,501.872,313.327,-0.630606,0.098182,-1.44312,
2026_06_10_18_16_11.040,3.863,29.8,0,0.759,0,0,0,0.005, ,0,0,0,0,0, ,801,497.6,315.4,1,-1.2,-3.5,25,800.057,501.45,313.374,-0.57085,-0.00225404,-1.53799,
2026_06_10_18_16_11.058,3.863,29.8,0,0.759,0,0,0,0.005, ,0,0,0,0,0, ,797.3,510,320.3,0,-2,-3,25,800.001,501.593,313.647,-0.505595,-0.0996167,-1.64232,
2026_06_10_18_16_11.078,3.863,29.7,0,0.759,0,0,0,0.005, ,0,0,0,0,0, ,800.4,504.7,307.9,-1.4,-2.7,-2.4,25,799.931,501.944,313.675,-0.517442,-0.236749,-1.70677,
2026_06_10_18_16_11.097,3.863,29.8,0,0.757,0,0,0,0.006, ,0,0,0,0,0, ,802.1,494.2,299.5,-0.2,-0.5,-2.6,25,800.012,501.792,313.067,-0.53466,-0.319822,-1.75511,
2026_06_10_18_16_11.119,3.863,29.7,0,0.759,0,0,0,0.005, ,0,0,0,0,0, ,799.5,505,308.9,0.2,0.9,-3.1,25,800.06,501.658,312.526,-0.502079,-0.288146,-1.82183,
2026_06_10_18_16_11.137,3.863,29.8,0,0.758,0,0,0,0.006, ,0,0,0,0,0, ,797.7,513.1,315.3,-0.4,1,-2.2,25,799.971,502.109,312.5,-0.477578,-0.212696,-1.8723,
2026_06_10_18_16_11.157,3.863,29.8,0,0.758,0,0,0,0.005, ,0,0,0,0,0, ,798.3,507.4,315.6,-1.5,0.3,-1,25,799.851,502.605,312.68,-0.506366,-0.160126,-1.8557,
2026_06_10_18_16_11.176,3.863,29.8,0,0.759,0,0,0,0.005, ,0,0,0,0,0, ,800,500.3,309.3,-0.4,0.6,-0.7,25,799.808,502.681,312.666,-0.5334,-0.122946,-1.79442,
2026_06_10_18_16_11.198,3.863,29.8,0,0.759,0,0,0,0.005, ,0,0,0,0,0, ,798.2,502.3,316.6,0,0.9,-1,25,799.765,502.597,312.683,-0.513083,-0.0697511,-1.73687,
2026_06_10_18_16_11.216,3.863,29.8,0,0.759,0,0,0,0.005, ,0,0,0,0,0, ,796.5,507,324.8,-0.9,-0.6,-0.7,25,799.618,502.722,313.172,-0.509239,-0.05636,-1.68282,
2026_06_10_18_16_11.237,3.863,29.7,0,0.76,0,0,0,0.005, ,0,0,0,0,0, ,798.8,500.6,317.3,-2.1,-2,-0.7,25,799.498,502.787,313.652,-0.569614,-0.132144,-1.62293,
2026_06_10_18_16_11.256,3.863,29.8,0,0.759,0,0,0,0.006, ,0,0,0,0,0, ,801.6,495.2,310.9,-1,-2,-1.5,25,799.54,502.49,313.679,-0.629356,-0.245967,-1.59107,
2026_06_10_18_16_11.277,3.863,29.7,0,0.759,0,0,0,0.005, ,0,0,0,0,0, ,800.5,498.1,309,0.5,-0.7,-2.5,25,799.632,502.134,313.452,-0.606239,-0.313244,-1.61599,
2026_06_10_18_16_11.295,3.863,29.8,0,0.758,0,0,0,0.006, ,0,0,0,0,0, ,797.7,507.9,318.6,0.1,-0.6,-2.1,25,799.6,502.187,313.473,-0.551015,-0.333765,-1.65767,
2026_06_10_18_16_11.316,3.863,29.7,0,0.758,0,0,0,0.005, ,0,0,0,0,0, ,797.9,505.6,319.4,-1.9,-1.9,-1.6,25,799.49,502.465,313.81,-0.572281,-0.389598,-1.66939,
2026_06_10_18_16_11.337,3.863,29.7,0,0.759,0,0,0,0.006, ,0,0,0,0,0, ,800.7,497.4,313.2,-1.4,-2.4,-1.5,25,799.479,502.406,313.962,-0.637955,-0.496872,-1.66211,
2026_06_10_18_16_11.359,3.863,29.7,0,0.759,0,0,0,0.006, ,0,0,0,0,0, ,800.7,496,307.3,-0.1,-1.8,-2.7,25,799.553,502.058,313.736,-0.644783,-0.594563,-1.6888,
2026_06_10_18_16_11.375,3.863,29.8,0,0.759,0,0,0,0.006, ,0,0,0,0,0, ,799.8,502.4,310.7,1,-0.7,-3.4,25,799.596,501.884,313.447,-0.578069,-0.634504,-1.77175,
2026_06_10_18_16_11.396,3.863,29.8,0,0.759,0,0,0,0.005, ,0,0,0,0,0, ,798.5,511.8,312.1,-0.3,-1.1,-3,25,799.568,502.202,313.322,-0.521515,-0.650682,-1.85878,
2026_06_10_18_16_11.414,3.863,29.8,0,0.759,0,0,0,0.005, ,0,0,0,0,0, ,799.8,509.3,304,-0.6,-1,-2.5,25,799.543,502.711,313.001,-0.517157,-0.675016,-1.91309,
2026_06_10_18_16_11.436,3.863,29.8,0,0.759,0,0,0,0.005, ,0,0,0,0,0, ,800.1,506.9,305.7,-0.2,0.8,-1.8,25,799.568,503.039,312.504,-0.510018,-0.639976,-1.92753,
2026_06_10_18_16_11.454,3.863,29.8,0,0.758,0,0,0,0.005, ,0,0,0,0,0, ,798,504.3,318.2,-1.1,0.1,-1.6,25,799.536,503.195,312.471,-0.518548,-0.573555,-1.91366,
2026_06_10_18_16_11.477,3.863,29.8,0,0.759,0,0,0,0.005, ,0,0,0,0,0, ,797.1,504,317.6,-1.1,-0.5,-1.7,25,799.415,503.253,312.801,-0.55398,-0.550792,-1.89759,
2026_06_10_18_16_11.494,3.863,29.7,0,0.759,0,0,0,0.005, ,0,0,0,0,0, ,798.8,499.3,315.6,-1.3,-1.7,-2.1,25,799.326,503.156,313.033,-0.593347,-0.584259,-1.89774,
2026_06_10_18_16_11.515,3.863,29.8,0,0.758,0,0,0,0.006, ,0,0,0,0,0, ,799.1,497.3,314.5,-0.7,-2.3,-3.2,25,799.303,502.86,313.156,-0.618127,-0.670531,-1.94358,
2026_06_10_18_16_11.533,3.863,29.8,0,0.759,0,0,0,0.005, ,0,0,0,0,0, ,799.5,501.8,314.5,-1,-2.8,-4,25,799.303,502.658,313.238,-0.632257,-0.785061,-2.04452,
2026_06_10_18_16_11.554,3.863,29.8,0,0.759,0,0,0,0.005, ,0,0,0,0,0, ,798.4,502.4,307.1,-0.7,-2.3,-4.6,25,799.281,502.624,313.089,-0.645526,-0.892612,-2.18196,
2026_06_10_18_16_11.572,3.863,29.7,0,0.759,0,0,0,0.005, ,0,0,0,0,0, ,799.5,499.5,309.4,0.7,-1.5,-5.2,25,799.261,502.522,312.794,-0.606189,-0.954,-2.34759,
2026_06_10_18_16_11.594,3.863,29.7,0,0.758,0,0,0,0.006, ,0,0,0,0,0, ,797.3,502,312.2,1.2,-1.3,-6.3,25,799.209,502.414,312.673,-0.511359,-0.981178,-2.55493,
2026_06_10_18_16_11.613,3.863,29.8,0,0.76,0,0,0,0.006, ,0,0,0,0,0, ,797.6,514.2,308.3,1,-1.6,-6.8,25,799.101,502.76,312.525,-0.413167,-1.00975,-2.79838,
2026_06_10_18_16_11.634,3.863,29.7,0,0.759,0,0,0,0.005, ,0,0,0,0,0, ,795,519.8,308.5,0.5,-2,-5.8,25,798.931,503.628,312.274,-0.342286,-1.0579,-3.01176,
2026_06_10_18_16_11.652,3.863,29.9,0,0.761,0,0,0,0.006, ,0,0,0,0,0, ,795.6,518,302,0.3,-1.7,-4.5,25,798.71,504.559,311.846,-0.297053,-1.10617,-3.14206,
2026_06_10_18_16_11.673,3.863,29.8,0,0.759,0,0,0,0.005, ,0,0,0,0,0, ,797.2,512.9,299.1,0.2,-0.3,-3.8,25,798.569,505.222,311.157,-0.263717,-1.0997,-3.20348,
2026_06_10_18_16_11.691,3.863,29.7,0,0.759,0,0,0,0.005, ,0,0,0,0,0, ,793.4,516.6,307.7,0.1,0.2,-3.7,25,798.37,505.803,310.685,-0.238506,-1.03574,-3.23678,
2026_06_10_18_16_11.713,3.863,29.8,0,0.759,0,0,0,0.006, ,0,0,0,0,0, ,794.4,526.9,308.7,-1,-1.5,-2.1,25,798.097,506.775,310.533,-0.251394,-1.01223,-3.21626,
2026_06_10_18_16_11.731,3.863,29.8,0,0.758,0,0,0,0.005, ,0,0,0,0,0, ,792.6,531.7,308.4,-1.7,-1.4,-0.3,25,797.817,508.147,310.412,-0.31834,-1.03891,-3.09339,
2026_06_10_18_16_11.754,3.863,29.8,0,0.76,0,0,0,0.005, ,0,0,0,0,0, ,797.1,512,297.9,-1.8,-1,0.8,25,797.636,508.982,309.97,-0.405582,-1.04872,-2.88966,
2026_06_10_18_16_11.771,3.863,29.8,0,0.758,0,0,0,0.006, ,0,0,0,0,0, ,796.3,508.7,299.5,-0.6,0.6,0.5,25,797.579,509.066,309.283,-0.453992,-0.997004,-2.67396,
2026_06_10_18_16_11.793,3.863,29.7,0,0.759,0,0,0,0.006, ,0,0,0,0,0, ,796.5,513,307.2,-0.6,1.3,0,25,797.507,509.175,308.922,-0.462889,-0.878358,-2.49578,
2026_06_10_18_16_11.810,3.863,29.8,0,0.759,0,0,0,0.006, ,0,0,0,0,0, ,795.1,515.8,317.3,-1.8,0.3,0.5,25,797.403,509.493,309.124,-0.507807,-0.776083,-2.32846,
2026_06_10_18_16_11.832,3.863,29.8,0,0.759,0,0,0,0.006, ,0,0,0,0,0, ,796,507.5,309.3,-2.3,-0.9,0.9,25,797.29,509.624,309.379,-0.601784,-0.747072,-2.14391,
2026_06_10_18_16_11.850,3.863,29.8,0,0.76,0,0,0,0.006, ,0,0,0,0,0, ,799.3,494,303.7,-0.5,-0.3,-0.6,25,797.312,509.084,309.203,-0.650426,-0.73811,-2.00413,
2026_06_10_18_16_11.873,3.863,29.8,0,0.758,0,0,0,0.006, ,0,0,0,0,0, ,796.8,505.1,309.2,0.9,0.2,-2.3,25,797.357,508.503,309.036,-0.598603,-0.696178,-1.97036,
2026_06_10_18_16_11.889,3.863,29.9,0,0.759,0,0,0,0.006, ,0,0,0,0,0, ,794.7,515.9,313.9,0,-0.5,-2,25,797.259,508.624,309.189,-0.534704,-0.662895,-1.98131,
2026_06_10_18_16_11.911,3.863,29.8,0,0.759,0,0,0,0.005, ,0,0,0,0,0, ,796.2,507.6,305,-1.2,-1.3,-1.9,25,797.149,508.815,309.205,-0.538683,-0.677344,-1.9794,
2026_06_10_18_16_11.929,3.863,29.8,0,0.758,0,0,0,0.006, ,0,0,0,0,0, ,798.4,502,299.5,-0.2,0,-2.7,25,797.158,508.57,308.781,-0.548513,-0.675678,-1.99893,
2026_06_10_18_16_11.951,3.863,29.8,0,0.759,0,0,0,0.006, ,0,0,0,0,0, ,798.2,510.9,301.2,1.4,1.7,-3.6,25,797.228,508.441,308.267,-0.478525,-0.582707,-2.06908,
2026_06_10_18_16_11.968,3.863,29.9,0,0.76,0,0,0,0.006, ,0,0,0,0,0, ,792.2,524.5,317.7,0.4,1.2,-2.5,25,797.104,509.005,308.339,-0.394522,-0.458839,-2.12885,
2026_06_10_18_16_11.991,3.863,29.8,0,0.759,0,0,0,0.005, ,0,0,0,0,0, ,794.1,519.5,312.8,-1.9,-0.3,-0.9,25,796.863,509.797,308.76,-0.416183,-0.403456,-2.10272,
2026_06_10_18_16_12.009,3.863,29.8,0,0.759,0,0,0,0.006, ,0,0,0,0,0, ,797.1,508,305,-1.7,-0.2,-0.3,25,796.786,510.038,308.769,-0.50051,-0.394105,-2.01115,
2026_06_10_18_16_12.031,3.863,29.9,0,0.759,0,0,0,0.006, ,0,0,0,0,0, ,797.4,505.8,304.5,-0.1,1,-1.2,25,796.815,509.847,308.524,-0.524854,-0.345714,-1.9343,
2026_06_10_18_16_12.048,3.863,29.8,0,0.76,0,0,0,0.005, ,0,0,0,0,0, ,794.3,514.4,315.7,-0.3,0.8,-1.4,25,796.756,509.862,308.62,-0.505058,-0.269804,-1.89564,
2026_06_10_18_16_12.071,3.863,29.8,0,0.758,0,0,0,0.006, ,0,0,0,0,0, ,794,513,320.3,-1.3,-1.2,-1.1,25,796.597,510.096,309.192,-0.523031,-0.26555,-1.8563,
2026_06_10_18_16_12.087,3.863,29.8,0,0.76,0,0,0,0.006, ,0,0,0,0,0, ,796.2,507.9,309.6,-1.4,-2.2,-1.1,25,796.506,510.118,309.543,-0.573424,-0.352962,-1.81021,
2026_06_10_18_16_12.111,3.863,29.7,0,0.759,0,0,0,0.006, ,0,0,0,0,0, ,798.5,504.8,302.3,-0.1,-1.3,-1.8,25,796.557,509.888,309.324,-0.584184,-0.438094,-1.78826,
2026_06_10_18_16_12.128,3.863,29.8,0,0.759,0,0,0,0.007, ,0,0,0,0,0, ,797.7,507.6,302.6,0.3,-0.3,-2.5,25,796.651,509.663,308.905,-0.542492,-0.460147,-1.81031,
2026_06_10_18_16_12.149,3.863,29.8,0,0.76,0,0,0,0.006, ,0,0,0,0,0, ,796.7,513.4,305.5,0.2,0,-2.4,25,796.685,509.714,308.609,-0.4942,-0.441248,-1.84929,
2026_06_10_18_16_12.167,3.863,29.9,0,0.759,0,0,0,0.006, ,0,0,0,0,0, ,795.6,515.8,311.8,-0.5,-0.1,-1.8,25,796.652,510.012,308.611,-0.473225,-0.417406,-1.86457,
2026_06_10_18_16_12.189,3.863,29.8,0,0.758,0,0,0,0.005, ,0,0,0,0,0, ,796.6,510.9,306.7,-0.5,0,-1.1,25,796.618,510.215,308.65,-0.474856,-0.395017,-1.8393,
2026_06_10_18_16_12.207,3.863,29.9,0,0.76,0,0,0,0.006, ,0,0,0,0,0, ,797.2,503.2,303.2,0.2,0.7,-2,25,796.636,510.023,308.425,-0.455061,-0.349618,-1.82167,
2026_06_10_18_16_12.229,3.863,29.8,0,0.76,0,0,0,0.005, ,0,0,0,0,0, ,795.8,505.8,307.9,1.5,1.8,-3.1,25,796.627,509.686,308.25,-0.375533,-0.252141,-1.86606,
2026_06_10_18_16_12.247,3.863,29.8,0,0.759,0,0,0,0.006, ,0,0,0,0,0, ,792.1,515.3,324.2,0,-0.1,-3.4,25,796.464,509.739,308.725,-0.306946,-0.184979,-1.95039,
2026_06_10_18_16_12.269,3.863,29.9,0,0.759,0,0,0,0.006, ,0,0,0,0,0, ,793.4,516.1,313.9,-0.8,-2,-2.7,25,796.238,510.102,309.354,-0.312617,-0.237692,-2.0174,
2026_06_10_18_16_12.286,3.863,29.7,0,0.76,0,0,0,0.005, ,0,0,0,0,0, ,796.5,510.8,302.7,-0.3,-2,-2.7,25,796.159,510.306,309.29,-0.327082,-0.345082,-2.05899,
2026_06_10_18_16_12.309,3.863,29.8,0,0.758,0,0,0,0.007, ,0,0,0,0,0, ,796.7,508,298.2,0.6,-0.4,-3.2,25,796.186,510.251,308.751,-0.29801,-0.397179,-2.11329,
2026_06_10_18_16_12.326,3.863,29.8,0,0.759,0,0,0,0.006, ,0,0,0,0,0, ,793.9,518.1,306.1,0.4,0.5,-3.2,25,796.132,510.421,308.349,-0.249381,-0.369929,-2.17951,
2026_06_10_18_16_12.348,3.863,29.8,0,0.759,0,0,0,0.006, ,0,0,0,0,0, ,793.5,520.9,308.9,-0.5,0.4,-2.2,25,795.984,510.975,308.297,-0.237232,-0.319964,-2.21123,
2026_06_10_18_16_12.366,3.863,29.8,0,0.758,0,0,0,0.006, ,0,0,0,0,0, ,793.7,517.2,310.9,-1.6,0.1,-1.3,25,795.839,511.467,308.395,-0.28676,-0.285232,-2.18312,
2026_06_10_18_16_12.388,3.863,29.8,0,0.759,0,0,0,0.006, ,0,0,0,0,0, ,794.1,512.5,310.1,-1.8,-0.1,-1.2,25,795.721,511.673,308.523,-0.372879,-0.267851,-2.12626,
2026_06_10_18_16_12.405,3.863,29.9,0,0.759,0,0,0,0.006, ,0,0,0,0,0, ,793,508.7,314.8,-0.8,-0.4,-1.5,25,795.588,511.607,308.762,-0.429375,-0.266763,-2.07896,
2026_06_10_18_16_12.428,3.863,29.8,0,0.759,0,0,0,0.005, ,0,0,0,0,0, ,793.2,509.2,314.9,-0.7,-1.7,-2.2,25,795.437,511.445,309.133,-0.448913,-0.314492,-2.065,
2026_06_10_18_16_12.446,3.863,29.8,0,0.76,0,0,0,0.006, ,0,0,0,0,0, ,794,510.7,312.9,-0.9,-2.9,-2.8,25,795.325,511.354,309.424,-0.470308,-0.435484,-2.09151,
2026_06_10_18_16_12.469,3.863,29.8,0,0.758,0,0,0,0.006, ,0,0,0,0,0, ,794.7,512,299.6,-0.1,-2.4,-3.1,25,795.265,511.354,309.23,-0.472117,-0.570431,-2.14383,
2026_06_10_18_16_12.484,3.863,29.7,0,0.76,0,0,0,0.006, ,0,0,0,0,0, ,795,515.5,297.1,0.1,-0.8,-3.1,25,795.24,511.5,308.567,-0.443347,-0.63317,-2.20209,
2026_06_10_18_16_12.506,3.863,29.9,0,0.758,0,0,0,0.007, ,0,0,0,0,0, ,795.1,520.7,300.4,0.4,0.8,-2.9,25,795.228,511.902,307.969,-0.401097,-0.594586,-2.25072,
2026_06_10_18_16_12.524,3.863,29.8,0,0.759,0,0,0,0.005, ,0,0,0,0,0, ,792.6,520.7,311.6,-0.3,0.8,-1.9,25,795.144,512.438,307.849,-0.373608,-0.509604,-2.25981,
2026_06_10_18_16_12.546,3.863,29.9,0,0.759,0,0,0,0.006, ,0,0,0,0,0, ,793.8,515.9,313.5,-1.2,-0.1,-1.6,25,795.026,512.796,308.136,-0.396544,-0.457222,-2.22875,
2026_06_10_18_16_12.563,3.863,29.8,0,0.758,0,0,0,0.005, ,0,0,0,0,0, ,794.4,511.1,307.4,-0.7,-0.5,-1.9,25,794.97,512.839,308.277,-0.430271,-0.447641,-2.19957,
2026_06_10_18_16_12.587,3.863,29.8,0,0.758,0,0,0,0.006, ,0,0,0,0,0, ,792.7,516.1,313.1,0,-0.6,-2.5,25,794.883,512.885,308.397,-0.425379,-0.453878,-2.1996,
2026_06_10_18_16_12.603,3.863,29.8,0,0.76,0,0,0,0.006, ,0,0,0,0,0, ,791.3,520,310.5,-0.5,-1.6,-2.1,25,794.707,513.2,308.604,-0.414692,-0.493251,-2.20572,
2026_06_10_18_16_12.626,3.863,29.9,0,0.758,0,0,0,0.006, ,0,0,0,0,0, ,792.9,516.2,309.8,-1.1,-2.6,-1.5,25,794.548,513.498,308.699,-0.438172,-0.591163,-2.18099,
2026_06_10_18_16_12.642,3.863,29.8,0,0.758,0,0,0,0.006, ,0,0,0,0,0, ,794.5,511.3,295.7,-0.9,-2,-1.9,25,794.497,513.514,308.336,-0.472408,-0.695295,-2.15168,
2026_06_10_18_16_12.665,3.863,29.9,0,0.759,0,0,0,0.006, ,0,0,0,0,0, ,793.7,519.1,304,-0.1,-0.7,-1.8,25,794.473,513.616,307.819,-0.474089,-0.735191,-2.1333,
2026_06_10_18_16_12.682,3.863,29.9,0,0.759,0,0,0,0.006, ,0,0,0,0,0, ,793.2,520.8,305.1,-0.7,-0.5,-1.2,25,794.41,514.002,307.62,-0.469575,-0.726953,-2.09471,
2026_06_10_18_16_12.706,3.863,29.8,0,0.761,0,0,0,0.006, ,0,0,0,0,0, ,794.1,516.7,305.5,-0.9,-0.5,-0.6,25,794.364,514.292,307.478,-0.48971,-0.713123,-2.0219,
2026_06_10_18_16_12.722,3.863,29.9,0,0.758,0,0,0,0.006, ,0,0,0,0,0, ,795,515.1,300.5,-1,-0.1,-1,25,794.375,514.39,307.205,-0.517759,-0.687948,-1.94744,
2026_06_10_18_16_12.746,3.863,29.8,0,0.759,0,0,0,0.006, ,0,0,0,0,0, ,795,511.5,307.4,-0.1,0.4,-1.1,25,794.413,514.323,307.007,-0.519723,-0.636886,-1.89276,
2026_06_10_18_16_12.764,3.863,29.8,0,0.758,0,0,0,0.006, ,0,0,0,0,0, ,793.2,516.8,311.7,-0.3,-0.2,-1.5,25,794.394,514.313,307.162,-0.50024,-0.591982,-1.85664,
2026_06_10_18_16_12.788,3.863,29.9,0,0.759,0,0,0,0.006, ,0,0,0,0,0, ,792.8,517.3,312.3,-1,-1.2,-1.4,25,794.309,514.479,307.457,-0.509366,-0.598564,-1.83186,
2026_06_10_18_16_12.801,3.863,29.9,0,0.758,0,0,0,0.006, ,0,0,0,0,0, ,795.8,516.2,297.9,-0.6,-1.1,-1.1,25,794.309,514.618,307.313,-0.527077,-0.632167,-1.7964,
2026_06_10_18_16_12.823,3.863,29.9,0,0.76,0,0,0,0.006, ,0,0,0,0,0, ,794,513.9,306.2,0.1,-0.3,-0.9,25,794.345,514.644,306.992,-0.510192,-0.636301,-1.74787,
2026_06_10_18_16_12.840,3.863,29.8,0,0.761,0,0,0,0.006, ,0,0,0,0,0, ,797.3,510.6,297.9,0.4,0.1,-1.4,25,794.424,514.498,306.691,-0.463868,-0.60362,-1.71144,
2026_06_10_18_16_12.864,3.863,29.9,0,0.761,0,0,0,0.007, ,0,0,0,0,0, ,795.1,517.9,308.3,0.1,0.7,-1.4,25,794.533,514.483,306.472,-0.420367,-0.542462,-1.69246,
2026_06_10_18_16_12.881,3.863,29.9,0,0.76,0,0,0,0.006, ,0,0,0,0,0, ,793.4,520.3,311.5,-0.7,0.1,-1.2,25,794.515,514.765,306.681,-0.413032,-0.485031,-1.66854,
2026_06_10_18_16_12.905,3.863,29.9,0,0.759,0,0,0,0.006, ,0,0,0,0,0, ,794,519.1,308.8,-2.2,-0.8,-0.5,25,794.466,515.065,306.893,-0.476222,-0.476802,-1.61866,
2026_06_10_18_16_12.919,3.863,29.9,0,0.759,0,0,0,0.006, ,0,0,0,0,0, ,794.4,511.3,301.6,-1.9,-0.8,-0.3,25,794.449,515.073,306.79,-0.572124,-0.496497,-1.5444,
2026_06_10_18_16_12.944,3.863,29.9,0,0.758,0,0,0,0.006, ,0,0,0,0,0, ,796.5,506.9,302,-0.9,0.2,-1.1,25,794.51,514.709,306.486,-0.622573,-0.484523,-1.49294,
2026_06_10_18_16_12.960,3.863,29.8,0,0.759,0,0,0,0.006, ,0,0,0,0,0, ,795.6,508.6,311.5,-0.5,0,-2,25,794.604,514.285,306.502,-0.627291,-0.448904,-1.49642,
2026_06_10_18_16_12.985,3.863,29.9,0,0.76,0,0,0,0.007, ,0,0,0,0,0, ,793.9,516.4,314.6,-0.5,-0.9,-2.3,25,794.613,514.177,306.901,-0.619534,-0.44897,-1.53625,
2026_06_10_18_16_12.999,3.863,29.9,0,0.759,0,0,0,0.006, ,0,0,0,0,0, ,794.4,510.1,309.3,-0.5,-2,-2.3,25,794.585,514.12,307.208,-0.61225,-0.509971,-1.58279,
2026_06_10_18_16_13.022,3.863,29.8,0,0.759,0,0,0,0.006, ,0,0,0,0,0, ,795.1,512,303.4,-0.5,-2.1,-3,25,794.595,513.933,307.156,-0.60541,-0.603816,-1.64782,
2026_06_10_18_16_13.038,3.863,29.9,0,0.759,0,0,0,0.007, ,0,0,0,0,0, ,794,512.5,303.4,-0.2,-2.1,-3.3,25,794.592,513.83,306.927,-0.589846,-0.69499,-1.73936,
2026_06_10_18_16_13.063,3.863,29.9,0,0.759,0,0,0,0.006, ,0,0,0,0,0, ,794.6,516.3,299.9,0,-1.6,-3.9,25,794.574,513.865,306.606,-0.559996,-0.765373,-1.85274,
2026_06_10_18_16_13.080,3.863,29.8,0,0.758,0,0,0,0.006, ,0,0,0,0,0, ,794.9,519.7,302.4,0.6,-0.6,-3.1,25,794.585,514.117,306.273,-0.50759,-0.785765,-1.95312,
2026_06_10_18_16_13.104,3.863,29.9,0,0.759,0,0,0,0.007, ,0,0,0,0,0, ,793.3,519.6,305.6,-0.6,-0.7,-2.7,25,794.556,514.454,306.135,-0.476659,-0.777491,-2.01082,
2026_06_10_18_16_13.118,3.863,29.8,0,0.759,0,0,0,0.006, ,0,0,0,0,0, ,794.9,512.4,297.7,0.2,0,-2.6,25,794.528,514.548,305.861,-0.4598,-0.751441,-2.04977,
2026_06_10_18_16_13.143,3.863,29.9,0,0.761,0,0,0,0.007, ,0,0,0,0,0, ,793.8,518.6,304.9,0.1,0.2,-3.1,25,794.517,514.606,305.583,-0.42264,-0.699557,-2.09854,
2026_06_10_18_16_13.157,3.863,29.9,0,0.761,0,0,0,0.006, ,0,0,0,0,0, ,792.1,527.7,304.5,-0.4,0.1,-1.8,25,794.421,515.127,305.53,-0.406026,-0.647787,-2.11996,
2026_06_10_18_16_13.183,3.863,29.8,0,0.758,0,0,0,0.006, ,0,0,0,0,0, ,791.5,522.4,308.9,-1.5,-0.8,-0.5,25,794.262,515.732,305.601,-0.439175,-0.62964,-2.06085,
2026_06_10_18_16_13.197,3.863,30,0,0.758,0,0,0,0.007, ,0,0,0,0,0, ,794.7,513.1,295.4,-1,-0.1,-0.2,25,794.191,515.855,305.391,-0.488584,-0.618693,-1.95659,
2026_06_10_18_16_13.223,3.863,29.9,0,0.759,0,0,0,0.005, ,0,0,0,0,0, ,795,514.2,302.9,-0.4,0.9,-0.6,25,794.231,515.72,305.01,-0.501467,-0.556617,-1.86174,
2026_06_10_18_16_13.237,3.863,29.9,0,0.759,0,0,0,0.006, ,0,0,0,0,0, ,793.4,520.7,308.8,-1,0.8,-0.3,25,794.229,515.826,305.061,-0.513565,-0.470901,-1.77571,
2026_06_10_18_16_13.261,3.863,29.9,0,0.759,0,0,0,0.006, ,0,0,0,0,0, ,795.6,514.6,307.4,-1.4,0,0.1,25,794.246,515.937,305.247,-0.555395,-0.417831,-1.6736,
2026_06_10_18_16_13.277,3.863,29.9,0,0.76,0,0,0,0.006, ,0,0,0,0,0, ,793.5,506.7,303.2,-0.7,0.4,-1,25,794.264,515.615,305.25,-0.585535,-0.380182,-1.59903,
2026_06_10_18_16_13.301,3.863,29.9,0,0.76,0,0,0,0.006, ,0,0,0,0,0, ,793.2,513.5,309.2,0.5,0.4,-2,25,794.209,515.279,305.308,-0.555948,-0.332639,-1.593,
2026_06_10_18_16_13.317,3.863,29.9,0,0.758,0,0,0,0.006, ,0,0,0,0,0, ,791.8,519.2,314.8,-0.8,-0.8,-1.7,25,794.104,515.344,305.716,-0.53121,-0.324557,-1.60866,
2026_06_10_18_16_13.341,3.863,29.9,0,0.759,0,0,0,0.006, ,0,0,0,0,0, ,796.1,512.8,302,-1.3,-1.3,-1.4,25,794.095,515.384,305.879,-0.562824,-0.368763,-1.60509,
2026_06_10_18_16_13.356,3.863,29.9,0,0.76,0,0,0,0.006, ,0,0,0,0,0, ,795.7,509.5,296.9,-0.5,-0.1,-2,25,794.205,515.126,305.487,-0.583371,-0.388948,-1.61087,
2026_06_10_18_16_13.381,3.863,29.9,0,0.759,0,0,0,0.006, ,0,0,0,0,0, ,796.1,511.7,300.6,0.7,1.4,-2.8,25,794.308,514.85,305.077,-0.541728,-0.325637,-1.65896,
2026_06_10_18_16_13.396,3.863,29.9,0,0.759,0,0,0,0.006, ,0,0,0,0,0, ,793.7,515.9,306.5,0.8,1.8,-3.1,25,794.344,514.786,304.984,-0.463013,-0.208294,-1.73763,
2026_06_10_18_16_13.420,3.863,29.9,0,0.759,0,0,0,0.006, ,0,0,0,0,0, ,792.1,523.4,315.5,0,0.5,-2.5,25,794.256,515.083,305.35,-0.410423,-0.125523,-1.80237,
2026_06_10_18_16_13.435,3.863,29.9,0,0.758,0,0,0,0.006, ,0,0,0,0,0, ,791.2,518.7,312.9,-0.9,-0.8,-1.7,25,794.098,515.446,305.89,-0.412835,-0.127014,-1.82051,
2026_06_10_18_16_13.460,3.863,29.9,0,0.759,0,0,0,0.006, ,0,0,0,0,0, ,794.5,514.1,304.3,-0.5,-1.1,-1.5,25,794.021,515.504,306.055,-0.430334,-0.177165,-1.80707,
2026_06_10_18_16_13.474,3.863,29.9,0,0.759,0,0,0,0.006, ,0,0,0,0,0, ,793.4,515.8,305.5,0.1,-0.5,-2.1,25,794.017,515.471,305.984,-0.416298,-0.215119,-1.80664,
2026_06_10_18_16_13.499,3.863,29.9,0,0.757,0,0,0,0.006, ,0,0,0,0,0, ,792.9,524.1,304,-0.3,-0.5,-1.6,25,793.964,515.744,305.909,-0.397024,-0.232479,-1.80928,
2026_06_10_18_16_13.514,3.863,29.9,0,0.758,0,0,0,0.006, ,0,0,0,0,0, ,792.9,525.5,304.5,-1.3,-0.4,-0.2,25,793.899,516.295,305.808,-0.42158,-0.245734,-1.75387,
2026_06_10_18_16_13.539,3.863,29.9,0,0.758,0,0,0,0.006, ,0,0,0,0,0, ,794.4,514.2,302.1,-1.8,-0.3,0.4,25,793.884,516.512,305.655,-0.490343,-0.252088,-1.6409,
2026_06_10_18_16_13.554,3.863,29.9,0,0.758,0,0,0,0.006, ,0,0,0,0,0, ,795.2,507.3,303.3,-0.4,0.7,-0.7,25,793.94,516.161,305.475,-0.527494,-0.224539,-1.55005,
2026_06_10_18_16_13.580,3.863,29.9,0,0.76,0,0,0,0.006, ,0,0,0,0,0, ,792.9,516.7,315.4,0,0.4,-1.5,25,793.947,515.907,305.711,-0.507537,-0.17734,-1.52262,
2026_06_10_18_16_13.594,3.863,30,0,0.76,0,0,0,0.006, ,0,0,0,0,0, ,792.2,519.5,317.6,-1.1,-1.5,-0.9,25,793.862,516.041,306.369,-0.510125,-0.200049,-1.50296,
2026_06_10_18_16_13.619,3.863,29.9,0,0.759,0,0,0,0.005, ,0,0,0,0,0, ,792.2,516.3,313.2,-1.6,-2.3,-0.7,25,793.76,516.154,306.919,-0.561305,-0.30364,-1.46013,
2026_06_10_18_16_13.633,3.863,30,0,0.759,0,0,0,0.006, ,0,0,0,0,0, ,796.6,508.6,299.3,-1.6,-2.4,-1.2,25,793.799,515.929,306.878,-0.6246,-0.42834,-1.42904,
2026_06_10_18_16_13.658,3.863,29.9,0,0.757,0,0,0,0.005, ,0,0,0,0,0, ,796.1,511.4,299.8,-0.3,-0.7,-1.9,25,793.955,515.567,306.432,-0.644429,-0.496691,-1.43641,
2026_06_10_18_16_13.673,3.863,30,0,0.759,0,0,0,0.006, ,0,0,0,0,0, ,796.1,511.2,303.3,0,0,-2.6,25,794.086,515.307,306.134,-0.6143,-0.487752,-1.48599,
2026_06_10_18_16_13.698,3.863,29.9,0,0.76,0,0,0,0.005, ,0,0,0,0,0, ,793.3,515.3,306.3,0.1,0.1,-2.4,25,794.123,515.182,306.053,-0.573819,-0.454983,-1.54778,
2026_06_10_18_16_13.713,3.863,30,0,0.759,0,0,0,0.006, ,0,0,0,0,0, ,794,516.9,307.7,-0.1,-0.5,-2.6,25,794.094,515.238,306.111,-0.538852,-0.439445,-1.60581,
2026_06_10_18_16_13.738,3.863,30,0,0.76,0,0,0,0.005, ,0,0,0,0,0, ,794.3,513.6,299.6,0,-0.3,-2.5,25,794.098,515.239,305.961,-0.509063,-0.437041,-1.66334,
2026_06_10_18_16_13.752,3.863,29.9,0,0.759,0,0,0,0.005, ,0,0,0,0,0, ,795.5,512.8,298.7,0.6,1.1,-3.2,25,794.146,515.114,305.546,-0.459761,-0.386034,-1.73566,
2026_06_10_18_16_13.777,3.863,29.9,0,0.758,0,0,0,0.006, ,0,0,0,0,0, ,793,521.3,311.2,0.1,1.1,-2.9,25,794.153,515.232,305.509,-0.410416,-0.295479,-1.81575,
2026_06_10_18_16_13.792,3.863,29.9,0,0.758,0,0,0,0.006, ,0,0,0,0,0, ,792.4,519.5,314.5,-1.2,-0.8,-2.3,25,794.064,515.547,305.957,-0.418922,-0.268332,-1.86354,
2026_06_10_18_16_13.817,3.863,29.9,0,0.759,0,0,0,0.006, ,0,0,0,0,0, ,792.7,511.8,303.4,-1.1,-1.1,-2.7,25,793.972,515.553,306.139,-0.463472,-0.309872,-1.90232,
2026_06_10_18_16_13.831,3.863,29.9,0,0.759,0,0,0,0.006, ,0,0,0,0,0, ,794.4,515,299.9,0.4,0,-3.7,25,793.946,515.422,305.866,-0.456557,-0.324504,-1.9814,
2026_06_10_18_16_13.857,3.863,30,0,0.758,0,0,0,0.006, ,0,0,0,0,0, ,790.6,527.2,312.1,0.3,-0.2,-2.8,25,793.858,515.768,305.874,-0.407408,-0.310824,-2.05871,
2026_06_10_18_16_13.871,3.863,30,0,0.759,0,0,0,0.005, ,0,0,0,0,0, ,791.6,520.7,304.9,-0.9,-1,-2.1,25,793.69,516.267,306.034,-0.400862,-0.328445,-2.08255,
2026_06_10_18_16_13.896,3.863,30,0,0.759,0,0,0,0.005, ,0,0,0,0,0, ,792.3,517.5,297.8,-0.9,-0.3,-2,25,793.584,516.439,305.748,-0.431279,-0.34804,-2.08057,
2026_06_10_18_16_13.911,3.863,30,0,0.758,0,0,0,0.005, ,0,0,0,0,0, ,791.9,519.1,304.4,0,0.7,-1.6,25,793.494,516.553,305.465,-0.432419,-0.314644,-2.06347,
2026_06_10_18_16_13.935,3.863,29.9,0,0.759,0,0,0,0.005, ,0,0,0,0,0, ,791.1,525.7,308.9,-0.2,0.3,-1.1,25,793.372,516.909,305.537,-0.412163,-0.265002,-2.01999,
2026_06_10_18_16_13.950,3.863,29.9,0,0.759,0,0,0,0.006, ,0,0,0,0,0, ,791.6,524.1,309.3,-1,-0.3,-0.4,25,793.249,517.396,305.754,-0.423609,-0.248853,-1.9426,
2026_06_10_18_16_13.975,3.863,29.9,0,0.759,0,0,0,0.006, ,0,0,0,0,0, ,791.6,522.2,310.4,-2,-1.4,0.4,25,793.148,517.747,306.004,-0.489202,-0.285485,-1.82423,
2026_06_10_18_16_13.990,3.863,30,0,0.759,0,0,0,0.006, ,0,0,0,0,0, ,795.4,511.4,298.9,-1.8,-1,0.1,25,793.17,517.689,305.921,-0.575172,-0.341214,-1.69783,
2026_06_10_18_16_14.014,3.863,29.9,0,0.76,0,0,0,0.005, ,0,0,0,0,0, ,794.4,510.2,302.2,-0.6,0.3,-1.2,25,793.275,517.269,305.594,-0.613247,-0.341749,-1.62788,
2026_06_10_18_16_14.030,3.863,30,0,0.759,0,0,0,0.006, ,0,0,0,0,0, ,792.4,518,308.1,-0.4,0.7,-1.5,25,793.283,517.076,305.567,-0.606346,-0.290455,-1.61095,
2026_06_10_18_16_14.055,3.863,30,0,0.759,0,0,0,0.005, ,0,0,0,0,0, ,791.9,521.2,312.7,-1.9,-0.6,-1,25,793.214,517.23,305.862,-0.639475,-0.269708,-1.58895,
2026_06_10_18_16_14.069,3.863,30,0,0.759,0,0,0,0.005, ,0,0,0,0,0, ,793.2,514.6,303.3,-2.2,-1.1,-0.6,25,793.173,517.271,305.992,-0.725429,-0.30507,-1.54088,
2026_06_10_18_16_14.094,3.863,30,0,0.759,0,0,0,0.005, ,0,0,0,0,0, ,795.8,509,297.4,-0.7,0.3,-1.4,25,793.254,516.937,305.648,-0.769583,-0.310855,-1.50792,
2026_06_10_18_16_14.112,3.863,29.9,0,0.758,0,0,0,0.005, ,0,0,0,0,0, ,794,514.2,308.5,-0.4,0.8,-2.3,25,793.354,516.612,305.484,-0.756202,-0.258396,-1.52876,
2026_06_10_18_16_14.137,3.863,30.1,0,0.759,0,0,0,0.006, ,0,0,0,0,0, ,792.3,514.1,314.6,-1,-0.2,-2.7,25,793.342,516.462,305.853,-0.752777,-0.224369,-1.58795,
2026_06_10_18_16_14.148,3.863,30,0,0.758,0,0,0,0.005, ,0,0,0,0,0, ,793.3,512,313.4,-1,-1.2,-3.4,25,793.309,516.254,306.35,-0.767842,-0.253353,-1.67704,
2026_06_10_18_16_14.173,3.863,30.1,0,0.759,0,0,0,0.005, ,0,0,0,0,0, ,793.3,512.8,310.7,-0.6,-2.1,-4.1,25,793.308,516.019,306.697,-0.769802,-0.338461,-1.80336,
2026_06_10_18_16_14.188,3.863,30,0,0.758,0,0,0,0.005, ,0,0,0,0,0, ,792.4,514.5,306.1,0,-2.6,-4.7,25,793.281,515.875,306.801,-0.741173,-0.461039,-1.96159,
2026_06_10_18_16_14.214,3.863,29.9,0,0.759,0,0,0,0.005, ,0,0,0,0,0, ,793.5,522,299.3,0.6,-1.6,-5,25,793.26,516.02,306.551,-0.677727,-0.560913,-2.13761,
2026_06_10_18_16_14.228,3.863,30.1,0,0.759,0,0,0,0.006, ,0,0,0,0,0, ,791.2,527.4,303.3,0.1,-1,-3.8,25,793.205,516.549,306.231,-0.6151,-0.605951,-2.27547,
2026_06_10_18_16_14.253,3.863,30,0,0.759,0,0,0,0.005, ,0,0,0,0,0, ,791.6,524.2,298.8,-0.9,-0.6,-3.1,25,793.095,517.112,305.915,-0.601992,-0.617776,-2.34704,
2026_06_10_18_16_14.267,3.863,30,0,0.759,0,0,0,0.005, ,0,0,0,0,0, ,791,521.2,302.8,-0.4,0.1,-2.6,25,792.986,517.453,305.604,-0.604918,-0.595365,-2.37769,
2026_06_10_18_16_14.292,3.863,30,0,0.76,0,0,0,0.005, ,0,0,0,0,0, ,790.2,521.1,304.3,-0.3,0.5,-2.6,25,792.84,517.678,305.478,-0.589384,-0.540804,-2.39124,
2026_06_10_18_16_14.306,3.863,30,0,0.759,0,0,0,0.005, ,0,0,0,0,0, ,789.1,524.7,308.4,-0.4,0.3,-2,25,792.646,517.996,305.532,-0.574796,-0.483473,-2.38568,
2026_06_10_18_16_14.333,3.863,30,0,0.759,0,0,0,0.005, ,0,0,0,0,0, ,789.4,527.4,310.4,-1,0,-1.7,25,792.439,518.487,305.767,-0.582426,-0.444871,-2.35304,
2026_06_10_18_16_14.346,3.863,29.9,0,0.76,0,0,0,0.005, ,0,0,0,0,0, ,790.5,520,304.4,-1,-0.3,-1,25,792.287,518.805,305.867,-0.607872,-0.426902,-2.29191,
2026_06_10_18_16_14.373,3.863,30,0,0.76,0,0,0,0.006, ,0,0,0,0,0, ,791.3,519,306.7,-0.4,-0.3,-1.6,25,792.203,518.847,305.847,-0.613486,-0.419169,-2.23147,
2026_06_10_18_16_14.386,3.863,30,0,0.76,0,0,0,0.005, ,0,0,0,0,0, ,787.9,524.2,309.3,0,-0.8,-1.3,25,792.044,519.015,305.979,-0.588289,-0.427142,-2.18385,
2026_06_10_18_16_14.412,3.863,30,0,0.759,0,0,0,0.005, ,0,0,0,0,0, ,789.7,524.2,309.5,-0.9,-1.9,-1.4,25,791.846,519.331,306.187,-0.579862,-0.483378,-2.13304,
2026_06_10_18_16_14.425,3.863,30,0,0.76,0,0,0,0.005, ,0,0,0,0,0, ,793.9,519.1,298.3,-0.7,-1.5,-1.2,25,791.844,519.472,306.048,-0.593277,-0.557516,-2.08227,
2026_06_10_18_16_14.451,3.863,30,0,0.759,0,0,0,0.005, ,0,0,0,0,0, ,792.4,517.4,302.9,-0.8,-0.6,-1.8,25,791.923,519.398,305.716,-0.602827,-0.587527,-2.04679,
2026_06_10_18_16_14.465,3.863,30,0,0.758,0,0,0,0.005, ,0,0,0,0,0, ,790.7,518.6,300.5,0.1,0.1,-1.4,25,791.9,519.313,305.471,-0.58742,-0.566959,-2.01956,
2026_06_10_18_16_14.491,3.863,29.9,0,0.759,0,0,0,0.005, ,0,0,0,0,0, ,789,523.8,308.8,-0.4,0,-1.6,25,791.775,519.428,305.421,-0.560765,-0.529363,-1.9879,
2026_06_10_18_16_14.505,3.863,30,0,0.759,0,0,0,0.006, ,0,0,0,0,0, ,789.7,521.9,308.8,-0.5,-0.8,-1,25,791.628,519.636,305.627,-0.554015,-0.52148,-1.94598,
2026_06_10_18_16_14.532,3.863,30.1,0,0.759,0,0,0,0.005, ,0,0,0,0,0, ,790.4,517.4,306.8,-0.9,-1.6,-1.2,25,791.532,519.637,305.759,-0.562911,-0.562827,-1.89443,
2026_06_10_18_16_14.544,3.863,30,0,0.758,0,0,0,0.005, ,0,0,0,0,0, ,792.2,521.2,304.8,-1.2,-1.8,-1.5,25,791.517,519.616,305.762,-0.592593,-0.632124,-1.86126,
2026_06_10_18_16_14.570,3.863,30,0,0.758,0,0,0,0.005, ,0,0,0,0,0, ,790.7,523,304.5,-2,-2.2,-1.2,25,791.513,519.768,305.694,-0.653982,-0.715479,-1.8301,
2026_06_10_18_16_14.584,3.863,29.9,0,0.759,0,0,0,0.005, ,0,0,0,0,0, ,792.7,516.2,301.8,-1.6,-1.9,-1.4,25,791.525,519.758,305.539,-0.723817,-0.796801,-1.7978,
2026_06_10_18_16_14.609,3.863,30,0,0.76,0,0,0,0.006, ,0,0,0,0,0, ,791.9,516.3,296.6,-0.5,-0.9,-1.8,25,791.572,519.544,305.153,-0.743694,-0.833559,-1.78574,
2026_06_10_18_16_14.624,3.863,30.1,0,0.76,0,0,0,0.005, ,0,0,0,0,0, ,791.9,522.8,303.8,0.3,-0.3,-1.7,25,791.592,519.544,304.851,-0.704469,-0.819326,-1.78357,
2026_06_10_18_16_14.651,3.863,30,0,0.759,0,0,0,0.005, ,0,0,0,0,0, ,792.3,521.2,300,-0.5,-0.5,-1.8,25,791.623,519.694,304.671,-0.667634,-0.793773,-1.78152,
2026_06_10_18_16_14.664,3.863,30,0,0.76,0,0,0,0.005, ,0,0,0,0,0, ,792.6,520.3,297.8,-0.6,0.1,-1.7,25,791.673,519.758,304.319,-0.660466,-0.75759,-1.7796,
2026_06_10_18_16_14.691,3.863,30,0,0.76,0,0,0,0.005, ,0,0,0,0,0, ,790.7,524.4,307.1,-0.9,0,-1.3,25,791.672,519.916,304.206,-0.665922,-0.708378,-1.76256,
2026_06_10_18_16_14.703,3.863,29.9,0,0.759,0,0,0,0.005, ,0,0,0,0,0, ,792.8,517.8,295.8,-0.5,0.3,-1.6,25,791.677,519.988,304.038,-0.667999,-0.65607,-1.74352,
2026_06_10_18_16_14.729,3.863,30,0,0.759,0,0,0,0.006, ,0,0,0,0,0, ,793.4,523.6,293.4,1.1,1.7,-1.3,25,791.763,520.032,303.463,-0.609011,-0.555154,-1.72563,
2026_06_10_18_16_14.743,3.863,30,0,0.759,0,0,0,0.005, ,0,0,0,0,0, ,791.9,525.2,299.1,1.8,2.5,-0.7,25,791.817,520.298,303.023,-0.48354,-0.393355,-1.68141,
2026_06_10_18_16_14.771,3.863,29.9,0,0.759,0,0,0,0.005, ,0,0,0,0,0, ,789.5,527.2,311,-0.3,1,-0.7,25,791.749,520.658,303.147,-0.408371,-0.262745,-1.62161,
2026_06_10_18_16_14.783,3.863,30,0,0.76,0,0,0,0.006, ,0,0,0,0,0, ,791.9,518.9,302.2,0,1,-0.8,25,791.685,520.803,303.357,-0.392627,-0.185796,-1.56849,
2026_06_10_18_16_14.811,3.863,30,0,0.759,0,0,0,0.005, ,0,0,0,0,0, ,789.5,523.3,313.7,-0.8,0,-1,25,791.625,520.821,303.637,-0.393076,-0.144005,-1.52776,
2026_06_10_18_16_14.822,3.863,30,0,0.758,0,0,0,0.005, ,0,0,0,0,0, ,789.7,523.8,313.3,-1.9,-1.6,-0.8,25,791.502,520.988,304.238,-0.451389,-0.18398,-1.4895,
2026_06_10_18_16_14.849,3.863,30,0,0.759,0,0,0,0.005, ,0,0,0,0,0, ,791.1,523.6,311.5,-3.8,-3.6,-0.4,25,791.435,521.153,304.735,-0.597554,-0.331206,-1.4353,
2026_06_10_18_16_14.861,3.863,30,0,0.759,0,0,0,0.005, ,0,0,0,0,0, ,792.9,517.2,302.4,-3.8,-4,-0.1,25,791.469,521.107,304.87,-0.792703,-0.542586,-1.36307,
2026_06_10_18_16_14.888,3.863,30,0,0.759,0,0,0,0.005, ,0,0,0,0,0, ,794.7,513.4,292.7,-2,-2.5,-0.3,25,791.611,520.753,304.424,-0.921116,-0.707569,-1.2922,
2026_06_10_18_16_14.902,3.863,30,0,0.76,0,0,0,0.005, ,0,0,0,0,0, ,795.2,511.5,299.3,-1,-1,-1.1,25,791.815,520.247,303.911,-0.956392,-0.771092,-1.25611,
2026_06_10_18_16_14.930,3.863,30.1,0,0.758,0,0,0,0.005, ,0,0,0,0,0, ,794.3,516.7,300.6,-0.9,-0.5,-1.5,25,791.994,519.873,303.669,-0.956003,-0.769807,-1.25878,
2026_06_10_18_16_14.941,3.863,30,0,0.76,0,0,0,0.005, ,0,0,0,0,0, ,793.4,515.5,307.9,-0.5,-0.5,-2.1,25,792.107,519.643,303.705,-0.940402,-0.753365,-1.29176,
2026_06_10_18_16_14.968,3.863,30,0,0.759,0,0,0,0.005, ,0,0,0,0,0, ,792.4,519.1,305.6,-1.1,-1.2,-2.2,25,792.155,519.5,303.89,-0.931847,-0.759254,-1.34406,
2026_06_10_18_16_14.980,3.863,30,0,0.76,0,0,0,0.005, ,0,0,0,0,0, ,794.4,518.5,302.6,-1.1,-1.4,-2.1,25,792.231,519.457,303.903,-0.942094,-0.792206,-1.39317,
2026_06_10_18_16_15.008,3.863,30,0,0.758,0,0,0,0.005, ,0,0,0,0,0, ,794.6,515.7,296.9,-0.6,-0.6,-2.3,25,792.369,519.314,303.65,-0.936482,-0.804868,-1.44234,
2026_06_10_18_16_15.020,3.863,30,0,0.759,0,0,0,0.005, ,0,0,0,0,0, ,795,513.3,296.5,0.3,0.6,-2.7,25,792.517,519.02,303.227,-0.888555,-0.755822,-1.50679,
2026_06_10_18_16_15.047,3.863,30,0,0.758,0,0,0,0.005, ,0,0,0,0,0, ,793.2,520.8,303.9,0.2,1.3,-3,25,792.614,518.9,303.042,-0.819175,-0.651873,-1.58864,
2026_06_10_18_16_15.060,3.863,30,0,0.759,0,0,0,0.005, ,0,0,0,0,0, ,791.3,525.7,309.3,-0.6,0.2,-1.8,25,792.592,519.165,303.259,-0.781444,-0.566446,-1.63808,
2026_06_10_18_16_15.086,3.863,30,0,0.759,0,0,0,0.005, ,0,0,0,0,0, ,792.2,519.7,307.4,-0.8,-0.1,-1.7,25,792.54,519.381,303.569,-0.776481,-0.528882,-1.6449,
2026_06_10_18_16_15.100,3.863,30.1,0,0.76,0,0,0,0.005, ,0,0,0,0,0, ,792.8,518.4,304.3,-0.4,-0.5,-1.6,25,792.538,519.361,303.708,-0.765726,-0.514934,-1.64522,
2026_06_10_18_16_15.128,3.863,30,0,0.76,0,0,0,0.005, ,0,0,0,0,0, ,793.7,519.1,307,-0.3,-0.7,-1.6,25,792.581,519.323,303.826,-0.740393,-0.520118,-1.64246,
2026_06_10_18_16_15.139,3.863,30.1,0,0.761,0,0,0,0.005, ,0,0,0,0,0, ,792.7,517.5,300,-0.8,-0.6,-1.7,25,792.619,519.261,303.807,-0.728791,-0.528033,-1.64292,
2026_06_10_18_16_15.166,3.863,30,0,0.76,0,0,0,0.005, ,0,0,0,0,0, ,793.5,518.9,298.2,-0.5,0,-1.4,25,792.648,519.196,303.52,-0.72399,-0.514137,-1.63726,
2026_06_10_18_16_15.178,3.863,30.1,0,0.758,0,0,0,0.005, ,0,0,0,0,0, ,794.1,518.6,299.5,-0.5,1,-1.8,25,792.718,519.169,303.235,-0.71034,-0.452338,-1.63499,
2026_06_10_18_16_15.206,3.863,30.1,0,0.759,0,0,0,0.005, ,0,0,0,0,0, ,790.8,520.1,304.3,-0.7,1,-1.8,25,792.702,519.18,303.154,-0.703616,-0.363836,-1.64504,
2026_06_10_18_16_15.218,3.863,30,0,0.76,0,0,0,0.005, ,0,0,0,0,0, ,792.8,519.4,312.5,-1.2,0.3,-1.9,25,792.647,519.215,303.474,-0.71863,-0.302055,-1.65753,
2026_06_10_18_16_15.247,3.863,30,0,0.759,0,0,0,0.005, ,0,0,0,0,0, ,792.1,521.7,312.3,-1.4,-0.9,-1.4,25,792.635,519.296,304.017,-0.754058,-0.30193,-1.65707,
2026_06_10_18_16_15.258,3.863,30,0,0.76,0,0,0,0.005, ,0,0,0,0,0, ,792.2,516.4,301.3,-0.4,-1.1,-1.2,25,792.606,519.281,304.187,-0.762951,-0.344469,-1.63531,
2026_06_10_18_16_15.285,3.863,30.1,0,0.758,0,0,0,0.005, ,0,0,0,0,0, ,793.9,518.6,301.6,0.8,-0.3,-1.4,25,792.633,519.173,304.02,-0.704271,-0.366134,-1.61488,
2026_06_10_18_16_15.298,3.863,30,0,0.759,0,0,0,0.005, ,0,0,0,0,0, ,792.9,522.2,302.7,0.5,0.2,-1.5,25,792.679,519.247,303.906,-0.621745,-0.34687,-1.60483,
2026_06_10_18_16_15.326,3.863,30,0,0.759,0,0,0,0.005, ,0,0,0,0,0, ,792.2,525.3,300.5,-0.7,0.3,-0.5,25,792.672,519.522,303.766,-0.589951,-0.310498,-1.56798,
