UTC_Time,Vin,TC1,TC2,Rh1,Vh1,Ah1,Acp1,Dty1,Err1,Rh2,Vh2,Ah2,Acp2,Dty2,Err2,Accel_x,Accel_y,Accel_z,gyro_x,gyro_y,gyro_z,Temp_c,Accel_x_h,Accel_y_h,Accel_z_h,gyro_x_h,gyro_y_h,gyro_z_h,
2026_06_10_18_15_44.964,3.861,24.9,0,0.755,0,0,0,0.04, ,0,0,0,0,0, ,991.5,16.1,38,-0.5,-0.5,-1.5,25,991.497,16.0999,37.9999,-0.499998,-0.499998,-1.49999,
2026_06_10_18_15_44.984,3.861,24.9,0,0.755,0,0,0,0.042, ,0,0,0,0,0, ,992.4,13.5,34.6,-0.5,-0.6,-1.4,25,991.524,16.0207,37.8963,-0.499998,-0.503045,-1.49695,
2026_06_10_18_15_45.004,3.861,24.9,0,0.755,0,0,0,0.042, ,0,0,0,0,0, ,992.3,11.7,33.2,-0.5,-0.6,-1.4,25,991.575,15.8123,37.6528,-0.499999,-0.508953,-1.49104,
2026_06_10_18_15_45.024,3.861,25,0,0.753,0,0,0,0.042, ,0,0,0,0,0, ,991.3,11.1,32.1,-0.6,-0.2,-1.6,25,991.588,15.5434,37.3479,-0.503045,-0.502314,-1.49159,
2026_06_10_18_15_45.044,3.861,25,0,0.755,0,0,0,0.042, ,0,0,0,0,0, ,992.3,12.9,34.9,-0.6,-0.1,-1.8,25,991.601,15.3275,37.1134,-0.508954,-0.480845,-1.50429,
2026_06_10_18_15_45.063,3.861,25,0,0.756,0,0,0,0.043, ,0,0,0,0,0, ,991.9,15.1,36,-0.5,-0.3,-1.8,25,991.632,15.2466,37.0121,-0.511455,-0.463731,-1.52231,
2026_06_10_18_15_45.084,3.861,25,0,0.755,0,0,0,0.043, ,0,0,0,0,0, ,992.9,14.1,35.1,-0.5,-0.3,-1.7,25,991.678,15.2072,36.923,-0.510757,-0.453754,-1.53618,
2026_06_10_18_15_45.104,3.861,25,0,0.754,0,0,0,0.044, ,0,0,0,0,0, ,992.9,13.5,34.7,-0.5,-0.3,-1.6,25,991.753,15.1214,36.7997,-0.510101,-0.444384,-1.54312,
2026_06_10_18_15_45.123,3.861,25.1,0,0.755,0,0,0,0.044, ,0,0,0,0,0, ,991.2,13,35.2,-0.6,-0.2,-1.7,25,991.771,15.0074,36.687,-0.512533,-0.432539,-1.54963,
2026_06_10_18_15_45.143,3.861,25.1,0,0.755,0,0,0,0.044, ,0,0,0,0,0, ,991.5,14,36.4,-0.5,-0.2,-1.8,25,991.745,14.9155,36.6329,-0.514816,-0.418369,-1.56184,
2026_06_10_18_15_45.163,3.861,25.1,0,0.756,0,0,0,0.044, ,0,0,0,0,0, ,990.8,16.4,36.4,-0.5,-0.5,-1.5,25,991.709,14.9329,36.6187,-0.513913,-0.414202,-1.56721,
2026_06_10_18_15_45.183,3.861,25,0,0.755,0,0,0,0.045, ,0,0,0,0,0, ,991.5,16.3,36.9,-0.6,-0.7,-1.3,25,991.675,15.0192,36.6206,-0.516112,-0.425524,-1.55702,
2026_06_10_18_15_45.203,3.861,25.1,0,0.754,0,0,0,0.046, ,0,0,0,0,0, ,992.3,12.2,34.7,-0.5,-0.6,-1.2,25,991.689,14.9724,36.5706,-0.518177,-0.439203,-1.53831,
2026_06_10_18_15_45.222,3.861,25.1,0,0.756,0,0,0,0.046, ,0,0,0,0,0, ,991.2,12.5,34.7,-0.6,-0.3,-1.7,25,991.692,14.8126,36.4566,-0.520116,-0.439861,-1.53293,
2026_06_10_18_15_45.242,3.861,25.2,0,0.756,0,0,0,0.046, ,0,0,0,0,0, ,990.7,14,35.7,-0.6,-0.4,-1.7,25,991.647,14.7173,36.3801,-0.524984,-0.434385,-1.54311,
2026_06_10_18_15_45.261,3.861,25.2,0,0.755,0,0,0,0.046, ,0,0,0,0,0, ,991.3,14.8,36.7,-0.5,-0.4,-1.5,25,991.608,14.698,36.3691,-0.526509,-0.43229,-1.54658,
2026_06_10_18_15_45.282,3.861,25.2,0,0.754,0,0,0,0.046, ,0,0,0,0,0, ,992.3,12.4,34.3,-0.5,-0.4,-1.6,25,991.619,14.6311,36.3161,-0.524893,-0.430322,-1.54679,
2026_06_10_18_15_45.301,3.861,25.3,0,0.755,0,0,0,0.047, ,0,0,0,0,0, ,992.7,12.6,34.4,-0.5,-0.6,-1.5,25,991.673,14.5012,36.1963,-0.523376,-0.434568,-1.54698,
2026_06_10_18_15_45.322,3.861,25.2,0,0.756,0,0,0,0.046, ,0,0,0,0,0, ,992.4,12.6,33.9,-0.5,-0.4,-1.6,25,991.727,14.3854,36.0716,-0.521952,-0.438556,-1.54717,
2026_06_10_18_15_45.342,3.861,25.2,0,0.755,0,0,0,0.048, ,0,0,0,0,0, ,992.6,13.5,34.3,-0.5,-0.3,-1.5,25,991.774,14.304,35.9515,-0.520614,-0.433159,-1.54734,
2026_06_10_18_15_45.361,3.861,25.3,0,0.755,0,0,0,0.048, ,0,0,0,0,0, ,992.1,13,35.6,-0.6,-0.3,-1.7,25,991.809,14.2398,35.8904,-0.522405,-0.425045,-1.55055,
2026_06_10_18_15_45.380,3.861,25.3,0,0.756,0,0,0,0.048, ,0,0,0,0,0, ,992.1,15.5,36.3,-0.5,-0.3,-1.7,25,991.827,14.2404,35.8941,-0.524086,-0.417425,-1.55966,
2026_06_10_18_15_45.401,3.861,25.4,0,0.754,0,0,0,0.048, ,0,0,0,0,0, ,992.9,15.7,35.7,-0.5,-0.4,-1.6,25,991.868,14.3232,35.9005,-0.522619,-0.413316,-1.56516,
2026_06_10_18_15_45.420,3.861,25.4,0,0.755,0,0,0,0.048, ,0,0,0,0,0, ,992.5,14.2,37.2,-0.5,-0.3,-1.6,25,991.918,14.3614,35.934,-0.52124,-0.409458,-1.56728,
2026_06_10_18_15_45.440,3.861,25.3,0,0.756,0,0,0,0.049, ,0,0,0,0,0, ,990.9,15.2,36.4,-0.6,-0.3,-1.5,25,991.905,14.3821,35.9868,-0.522993,-0.402788,-1.56623,
2026_06_10_18_15_45.460,3.865,25.4,0,0.754,3.912,5.188,1.01,0.05, ,0,0,0,0,0, ,992.6,14.8,36.4,-0.5,-0.5,-1.4,25,991.896,14.4197,36.012,-0.524639,-0.402618,-1.55915,
2026_06_10_18_15_45.479,3.865,25.3,0,0.754,0,0,0,0.049, ,0,0,0,0,0, ,991.9,12.8,34.7,-0.5,-0.6,-1.6,25,991.917,14.382,35.9838,-0.523137,-0.411599,-1.55554,
2026_06_10_18_15_45.499,3.865,25.5,0,0.755,3.916,5.186,1.03,0.051, ,0,0,0,0,0, ,992.3,12.4,34.5,-0.6,-0.5,-1.6,25,991.928,14.2734,35.8995,-0.524774,-0.420033,-1.55825,
2026_06_10_18_15_45.519,3.863,25.5,0,0.756,3.919,5.183,1.01,0.05, ,0,0,0,0,0, ,990.1,13.5,34.9,-0.6,-0.3,-1.5,25,991.884,14.1927,35.8264,-0.529358,-0.418812,-1.55775,
2026_06_10_18_15_45.539,3.865,25.3,0,0.756,3.915,5.178,1.01,0.05, ,0,0,0,0,0, ,991.8,13.6,37.5,-0.5,-0.3,-1.5,25,991.827,14.1536,35.8492,-0.530616,-0.411572,-1.55423,
2026_06_10_18_15_45.560,3.863,25.5,0,0.757,3.917,5.174,1.05,0.052, ,0,0,0,0,0, ,992,13.3,35.7,-0.5,-0.6,-1.4,25,991.831,14.1107,35.8949,-0.52875,-0.413914,-1.54788,
2026_06_10_18_15_45.578,3.866,25.6,0,0.756,3.911,5.173,1.03,0.051, ,0,0,0,0,0, ,992.7,13.1,35.5,-0.5,-0.6,-1.4,25,991.863,14.0552,35.8769,-0.526998,-0.425253,-1.53887,
2026_06_10_18_15_45.599,3.864,25.5,0,0.755,3.914,5.184,1.03,0.051, ,0,0,0,0,0, ,991.5,12.9,31.8,-0.5,-0.7,-1.4,25,991.878,13.9909,35.7412,-0.525353,-0.438949,-1.53041,
2026_06_10_18_15_45.619,3.866,25.6,0,0.755,3.914,5.184,1.05,0.052, ,0,0,0,0,0, ,991.9,12.3,31.3,-0.6,-0.3,-1.6,25,991.867,13.9061,35.4858,-0.526855,-0.442669,-1.52855,
2026_06_10_18_15_45.638,3.863,25.6,0,0.756,3.919,5.183,1.03,0.051, ,0,0,0,0,0, ,991.3,15.3,34.9,-0.6,-0.2,-1.7,25,991.85,13.8997,35.3404,-0.531312,-0.430928,-1.53595,
2026_06_10_18_15_45.658,3.864,25.7,0,0.755,3.91,5.178,1.05,0.052, ,0,0,0,0,0, ,991.9,15.2,37.3,-0.6,-0.3,-1.5,25,991.835,13.982,35.3867,-0.535498,-0.419903,-1.53986,
2026_06_10_18_15_45.679,3.863,25.6,0,0.756,3.916,5.179,1.05,0.052, ,0,0,0,0,0, ,990.9,13.3,35.8,-0.5,-0.5,-1.5,25,991.809,13.9983,35.4576,-0.536382,-0.41869,-1.53743,
2026_06_10_18_15_45.698,3.866,25.7,0,0.756,3.912,5.174,1.07,0.053, ,0,0,0,0,0, ,991.9,12.5,34.4,-0.6,-0.4,-1.4,25,991.784,13.9314,35.4358,-0.537212,-0.420598,-1.5321,
2026_06_10_18_15_45.718,3.864,25.7,0,0.756,3.916,5.179,1.05,0.052, ,0,0,0,0,0, ,992.9,10.6,32.3,-0.5,-0.2,-1.7,25,991.821,13.7862,35.3087,-0.537991,-0.413249,-1.53319,
2026_06_10_18_15_45.738,3.866,25.9,0,0.756,3.913,5.175,1.07,0.053, ,0,0,0,0,0, ,992.1,14,35.5,-0.5,-0.1,-2,25,991.863,13.6957,35.2229,-0.535676,-0.397207,-1.5525,
2026_06_10_18_15_45.758,3.864,25.9,0,0.756,3.916,5.179,1.05,0.052, ,0,0,0,0,0, ,991.5,15.5,35.2,-0.6,-0.1,-1.8,25,991.859,13.7599,35.2306,-0.536549,-0.379096,-1.57367,
2026_06_10_18_15_45.777,3.864,25.9,0,0.756,3.914,5.177,1.05,0.052, ,0,0,0,0,0, ,992.1,14.2,34.3,-0.5,-0.3,-1.6,25,991.855,13.8264,35.2013,-0.537368,-0.368183,-1.58137,
2026_06_10_18_15_45.797,3.864,25.9,0,0.758,3.919,5.17,1.05,0.052, ,0,0,0,0,0, ,992.7,13.4,35.6,-0.5,-0.3,-1.8,25,991.888,13.8247,35.186,-0.535091,-0.364028,-1.5886,
2026_06_10_18_15_45.816,3.865,26,0,0.757,3.91,5.165,1.07,0.053, ,0,0,0,0,0, ,991.3,14.4,36.6,-0.5,-0.2,-1.9,25,991.895,13.8293,35.2417,-0.532953,-0.357079,-1.60453,
2026_06_10_18_15_45.837,3.863,25.7,0,0.758,3.917,5.167,1.05,0.052, ,0,0,0,0,0, ,990.8,15.2,34.1,-0.5,-0.3,-1.8,25,991.844,13.8885,35.2483,-0.530945,-0.350554,-1.61949,
2026_06_10_18_15_45.856,3.865,26,0,0.757,3.908,5.162,1.1,0.055, ,0,0,0,0,0, ,992.6,13.7,34.4,-0.5,-0.4,-1.6,25,991.835,13.9227,35.1875,-0.529059,-0.35052,-1.62439,
2026_06_10_18_15_45.877,3.863,26,0,0.757,3.914,5.17,1.07,0.053, ,0,0,0,0,0, ,992.3,13,35,-0.5,-0.4,-1.7,25,991.872,13.8878,35.1578,-0.527288,-0.353535,-1.62595,
2026_06_10_18_15_45.896,3.865,26.1,0,0.757,3.911,5.166,1.09,0.054, ,0,0,0,0,0, ,993,14.5,36,-0.4,-0.4,-1.6,25,991.92,13.8794,35.1786,-0.522579,-0.356367,-1.62742,
2026_06_10_18_15_45.916,3.863,26,0,0.757,3.914,5.17,1.07,0.053, ,0,0,0,0,0, ,991.2,16.2,37.4,-0.5,-0.4,-1.5,25,991.931,13.969,35.2713,-0.518156,-0.359026,-1.6227,
2026_06_10_18_15_45.936,3.863,26.1,0,0.757,3.911,5.166,1.09,0.054, ,0,0,0,0,0, ,991.4,15.7,36.7,-0.5,-0.5,-1.3,25,991.892,14.0897,35.3797,-0.517049,-0.36457,-1.60913,
2026_06_10_18_15_45.956,3.866,26.1,0,0.758,3.914,5.163,1.09,0.054, ,0,0,0,0,0, ,991.5,12.6,35.1,-0.5,-0.6,-1.2,25,991.865,14.0934,35.4114,-0.516011,-0.375869,-1.58725,
2026_06_10_18_15_45.975,3.863,26.2,0,0.757,3.911,5.166,1.09,0.054, ,0,0,0,0,0, ,990.8,12.6,35.1,-0.6,-0.4,-1.6,25,991.822,14.0024,35.3925,-0.518082,-0.383433,-1.57584,
2026_06_10_18_15_45.996,3.862,26.3,0,0.757,3.911,5.166,1.09,0.054, ,0,0,0,0,0, ,991.6,13.9,36.8,-0.6,-0.4,-1.6,25,991.784,13.9566,35.4264,-0.523074,-0.384443,-1.57731,
2026_06_10_18_15_46.015,3.863,26.3,0,0.758,3.913,5.162,1.09,0.054, ,0,0,0,0,0, ,990.6,14.8,35.2,-0.5,-0.5,-1.4,25,991.742,13.9805,35.4614,-0.524714,-0.388438,-1.5726,
2026_06_10_18_15_46.035,3.863,26.3,0,0.758,3.911,5.159,1.08,0.054, ,0,0,0,0,0, ,991.2,12.4,34.3,-0.6,-0.5,-1.3,25,991.691,13.9573,35.418,-0.526255,-0.395236,-1.55903,
2026_06_10_18_15_46.055,3.865,26.3,0,0.758,3.911,5.159,1.08,0.054, ,0,0,0,0,0, ,991.4,11.7,33.4,-0.5,-0.4,-1.7,25,991.667,13.8411,35.3225,-0.527702,-0.398573,-1.55544,
2026_06_10_18_15_46.074,3.865,26.3,0,0.758,3.912,5.16,1.11,0.055, ,0,0,0,0,0, ,991.4,13.7,32.5,-0.5,-0.3,-1.8,25,991.651,13.7716,35.1779,-0.526014,-0.395613,-1.56729,
2026_06_10_18_15_46.094,3.864,26.4,0,0.757,3.909,5.163,1.11,0.055, ,0,0,0,0,0, ,992.1,16.1,36.9,-0.4,-0.3,-1.7,25,991.657,13.8403,35.1488,-0.521382,-0.389787,-1.57843,
2026_06_10_18_15_46.114,3.862,26.4,0,0.759,3.916,5.159,1.11,0.055, ,0,0,0,0,0, ,991.9,14.1,34.9,-0.6,-0.6,-1.3,25,991.678,13.9171,35.1946,-0.520079,-0.393456,-1.57365,
2026_06_10_18_15_46.134,3.864,26.4,0,0.758,3.907,5.154,1.1,0.055, ,0,0,0,0,0, ,991.4,13.4,36.8,-0.5,-0.5,-1.5,25,991.676,13.9069,35.2345,-0.521902,-0.402996,-1.56306,
2026_06_10_18_15_46.153,3.862,26.5,0,0.758,3.911,5.159,1.1,0.055, ,0,0,0,0,0, ,992.7,14.2,35.5,-0.4,-0.7,-1.6,25,991.699,13.9004,35.2903,-0.517521,-0.415001,-1.56227,
2026_06_10_18_15_46.173,3.864,26.6,0,0.755,3.901,5.166,1.1,0.055, ,0,0,0,0,0, ,991.8,12.4,32.2,-0.5,-0.4,-1.6,25,991.732,13.8638,35.2025,-0.513406,-0.423227,-1.56457,
2026_06_10_18_15_46.193,3.862,26.5,0,0.759,3.922,5.167,1.09,0.054, ,0,0,0,0,0, ,991.6,14,35.4,-0.5,-0.1,-1.7,25,991.73,13.8234,35.1171,-0.512589,-0.412671,-1.56977,
2026_06_10_18_15_46.213,3.865,26.6,0,0.758,3.906,5.153,1.12,0.056, ,0,0,0,0,0, ,992.6,14.1,35.7,-0.5,-0.2,-1.6,25,991.753,13.8372,35.1434,-0.511822,-0.396665,-1.57466,
2026_06_10_18_15_46.233,3.862,26.6,0,0.758,3.912,5.16,1.11,0.055, ,0,0,0,0,0, ,991.5,13.9,36.3,-0.5,-0.4,-1.7,25,991.771,13.8471,35.1956,-0.511102,-0.390774,-1.57925,
2026_06_10_18_15_46.252,3.863,26.7,0,0.756,3.904,5.164,1.1,0.055, ,0,0,0,0,0, ,993,13.1,35.2,-0.5,-0.4,-1.5,25,991.8,13.8259,35.2294,-0.510425,-0.391336,-1.58052,
2026_06_10_18_15_46.272,3.862,26.7,0,0.759,3.918,5.162,1.11,0.055, ,0,0,0,0,0, ,991.3,13.4,33.5,-0.6,-0.4,-1.5,25,991.822,13.7908,35.1758,-0.512837,-0.391864,-1.57561,
2026_06_10_18_15_46.292,3.863,26.7,0,0.757,3.904,5.157,1.1,0.055, ,0,0,0,0,0, ,991,14.5,34.6,-0.6,-0.3,-1.6,25,991.781,13.8005,35.1072,-0.518148,-0.389313,-1.57405,
2026_06_10_18_15_46.312,3.862,26.8,0,0.758,3.912,5.16,1.13,0.056, ,0,0,0,0,0, ,991.4,15.7,33.5,-0.5,-0.3,-1.4,25,991.745,13.8797,35.0428,-0.520089,-0.383871,-1.56954,
2026_06_10_18_15_46.332,3.864,26.9,0,0.757,3.906,5.159,1.1,0.055, ,0,0,0,0,0, ,992.9,14.2,34.7,-0.5,-0.4,-1.3,25,991.77,13.945,34.9853,-0.518865,-0.381807,-1.55616,
2026_06_10_18_15_46.355,3.862,26.9,0,0.758,3.914,5.163,1.11,0.055, ,0,0,0,0,0, ,992.9,13.3,34.1,-0.5,-0.1,-1.7,25,991.839,13.9331,34.9497,-0.517716,-0.373775,-1.55274,
2026_06_10_18_15_46.372,3.863,26.9,0,0.759,3.911,5.152,1.1,0.055, ,0,0,0,0,0, ,992.5,13.1,37.4,-0.5,-0.1,-2,25,991.891,13.8884,34.9984,-0.516636,-0.357091,-1.57085,
2026_06_10_18_15_46.391,3.864,26.9,0,0.758,3.907,5.154,1.1,0.055, ,0,0,0,0,0, ,991.6,13.6,38.6,-0.2,-0.5,-1.8,25,991.901,13.8556,35.1814,-0.506482,-0.353612,-1.59091,
2026_06_10_18_15_46.411,3.863,27,0,0.758,3.91,5.158,1.12,0.056, ,0,0,0,0,0, ,992.6,12.6,36.4,2,-0.7,-1.4,25,991.913,13.8095,35.3226,-0.420774,-0.368627,-1.59146,
2026_06_10_18_15_46.431,3.864,27,0,0.757,3.908,5.162,1.1,0.055, ,0,0,0,0,0, ,991.8,14.5,33.8,2.8,-0.6,-1.2,25,991.931,13.7937,35.3091,-0.248883,-0.385773,-1.5737,
2026_06_10_18_15_46.451,3.863,27,0,0.758,3.914,5.163,1.11,0.055, ,0,0,0,0,0, ,992.7,12.2,33.6,1.4,-0.2,-1.4,25,991.95,13.7667,35.211,-0.105748,-0.38664,-1.55702,
2026_06_10_18_15_46.471,3.865,27.1,0,0.758,3.909,5.156,1.12,0.056, ,0,0,0,0,0, ,992,13.3,34.7,0.1,-0.1,-1.6,25,991.974,13.7047,35.1464,-0.053601,-0.37222,-1.55355,
2026_06_10_18_15_46.496,3.863,27.2,0,0.757,3.909,5.163,1.11,0.055, ,0,0,0,0,0, ,992.3,14.7,36,-0.4,-0.3,-1.6,25,991.985,13.7227,35.1588,-0.0594753,-0.361725,-1.55638,
2026_06_10_18_15_46.510,3.864,27.2,0,0.758,3.913,5.162,1.11,0.055, ,0,0,0,0,0, ,990.1,13.3,33.6,-0.5,-0.4,-1.5,25,991.937,13.7396,35.1369,-0.0832729,-0.36101,-1.55599,
2026_06_10_18_15_46.530,3.862,27.1,0,0.759,3.914,5.156,1.11,0.055, ,0,0,0,0,0, ,992.5,13.3,35.5,-0.5,-0.5,-1.6,25,991.898,13.7128,35.1011,-0.108667,-0.366433,-1.55563,
2026_06_10_18_15_46.550,3.864,27.1,0,0.757,3.903,5.155,1.12,0.056, ,0,0,0,0,0, ,991,12,34.3,-0.5,-0.5,-1.7,25,991.889,13.6481,35.0889,-0.132514,-0.374573,-1.56138,
2026_06_10_18_15_46.570,3.862,27.3,0,0.758,3.913,5.162,1.13,0.056, ,0,0,0,0,0, ,991.5,13.9,33.9,-0.5,-0.3,-1.7,25,991.85,13.6055,35.0286,-0.154908,-0.376122,-1.56982,
2026_06_10_18_15_46.590,3.865,27.3,0,0.759,3.911,5.152,1.1,0.055, ,0,0,0,0,0, ,992.6,13.6,35,-0.5,-0.2,-1.8,25,991.863,13.6143,34.9934,-0.175937,-0.368436,-1.5808,
2026_06_10_18_15_46.610,3.863,27.5,0,0.759,3.912,5.154,1.1,0.055, ,0,0,0,0,0, ,991.5,13.7,37.2,-0.5,-0.4,-1.6,25,991.874,13.6165,35.0608,-0.195684,-0.364266,-1.58807,
2026_06_10_18_15_46.630,3.865,27.5,0,0.759,3.911,5.152,1.08,0.054, ,0,0,0,0,0, ,992,13.3,35.4,-0.5,-0.4,-1.7,25,991.866,13.6094,35.1363,-0.214229,-0.366444,-1.59184,
2026_06_10_18_15_46.652,3.864,27.5,0,0.758,3.911,5.159,1.08,0.054, ,0,0,0,0,0, ,992.7,11.5,34.5,-0.5,-0.3,-1.8,25,991.896,13.5357,35.125,-0.231643,-0.365442,-1.60148,
2026_06_10_18_15_46.669,3.864,27.6,0,0.758,3.912,5.16,1.09,0.054, ,0,0,0,0,0, ,991,13.1,35.6,-0.5,-0.3,-1.9,25,991.893,13.4604,35.1204,-0.247996,-0.361454,-1.61662,
2026_06_10_18_15_46.689,3.863,27.6,0,0.759,3.915,5.158,1.09,0.054, ,0,0,0,0,0, ,992.7,15.3,36.9,-0.5,-0.3,-1.7,25,991.89,13.5055,35.1892,-0.263352,-0.357709,-1.6278,
2026_06_10_18_15_46.709,3.865,27.5,0,0.76,3.914,5.15,1.08,0.054, ,0,0,0,0,0, ,991,13,35.1,-0.6,-0.2,-1.6,25,991.888,13.5448,35.2386,-0.28082,-0.351145,-1.62915,
2026_06_10_18_15_46.728,3.863,27.7,0,0.758,3.907,5.154,1.1,0.055, ,0,0,0,0,0, ,993.1,12.9,34.6,-0.6,-0.2,-1.7,25,991.898,13.5085,35.215,-0.30027,-0.341935,-1.63042,
2026_06_10_18_15_46.748,3.865,27.7,0,0.759,3.914,5.156,1.08,0.054, ,0,0,0,0,0, ,991.9,12.6,35.4,-0.5,-0.2,-1.7,25,991.935,13.4623,35.2019,-0.315488,-0.333286,-1.63466,
2026_06_10_18_15_46.768,3.864,27.7,0,0.759,3.913,5.155,1.08,0.054, ,0,0,0,0,0, ,991.2,13,34.6,-0.5,-0.2,-1.7,25,991.911,13.4219,35.1896,-0.326732,-0.325164,-1.63864,
2026_06_10_18_15_46.788,3.863,27.7,0,0.759,3.912,5.154,1.08,0.054, ,0,0,0,0,0, ,990.4,15.8,36.3,-0.5,-0.3,-1.6,25,991.843,13.4815,35.2054,-0.33729,-0.320583,-1.63933,
2026_06_10_18_15_46.812,3.865,27.8,0,0.758,3.907,5.154,1.1,0.055, ,0,0,0,0,0, ,991.4,15.8,35.6,-0.6,-0.4,-1.4,25,991.786,13.6228,35.2508,-0.350252,-0.322376,-1.63084,
2026_06_10_18_15_46.827,3.866,27.9,0,0.759,3.915,5.158,1.09,0.054, ,0,0,0,0,0, ,991.9,14.6,35,-0.6,-0.3,-1.5,25,991.778,13.7189,35.2538,-0.365471,-0.324059,-1.61982,
2026_06_10_18_15_46.847,3.864,27.8,0,0.758,3.912,5.16,1.07,0.053, ,0,0,0,0,0, ,991.3,14.6,35.8,-0.6,-0.3,-1.5,25,991.767,13.7726,35.2627,-0.379763,-0.322593,-1.61252,
2026_06_10_18_15_46.867,3.862,27.9,0,0.759,3.915,5.158,1.09,0.054, ,0,0,0,0,0, ,992.5,11.4,33.2,-0.6,-0.6,-1.4,25,991.775,13.7255,35.2162,-0.393183,-0.330357,-1.60262,
2026_06_10_18_15_46.887,3.864,27.8,0,0.758,3.908,5.155,1.08,0.054, ,0,0,0,0,0, ,992.4,11.1,32.7,-0.6,-0.4,-1.5,25,991.816,13.5747,35.0781,-0.405786,-0.340695,-1.59332,
2026_06_10_18_15_46.907,3.862,27.9,0,0.759,3.914,5.156,1.11,0.055, ,0,0,0,0,0, ,991.6,14.2,35.2,-0.6,-0.4,-1.7,25,991.827,13.5183,35.0094,-0.417621,-0.344309,-1.59373,
2026_06_10_18_15_46.927,3.864,28,0,0.759,3.91,5.151,1.08,0.054, ,0,0,0,0,0, ,991.4,13.4,34.4,-0.6,-0.4,-1.6,25,991.807,13.5355,34.9966,-0.428735,-0.347702,-1.59715,
2026_06_10_18_15_46.947,3.863,28.1,0,0.758,3.909,5.156,1.08,0.054, ,0,0,0,0,0, ,991.2,15.1,35,-0.6,-0.4,-1.6,25,991.776,13.579,34.9786,-0.439171,-0.350889,-1.59733,
2026_06_10_18_15_46.969,3.866,28,0,0.759,3.915,5.158,1.07,0.053, ,0,0,0,0,0, ,991.4,14,35.2,-0.5,-0.3,-1.7,25,991.747,13.6382,34.986,-0.445925,-0.350835,-1.60054,
2026_06_10_18_15_46.985,3.862,28.2,0,0.759,3.914,5.156,1.08,0.054, ,0,0,0,0,0, ,991.8,12.8,33.5,-0.6,-0.2,-1.6,25,991.738,13.6237,34.9472,-0.452267,-0.34469,-1.60355,
2026_06_10_18_15_47.005,3.863,28.1,0,0.757,3.906,5.159,1.06,0.053, ,0,0,0,0,0, ,991.4,14.6,36.3,-0.6,-0.3,-1.6,25,991.73,13.6283,34.9443,-0.46127,-0.33892,-1.60334,
2026_06_10_18_15_47.025,3.866,28.2,0,0.758,3.914,5.163,1.09,0.054, ,0,0,0,0,0, ,991,12.6,35.5,-0.5,-0.4,-1.6,25,991.698,13.6266,35.0026,-0.466677,-0.339595,-1.60313,
2026_06_10_18_15_47.045,3.864,28.2,0,0.759,3.918,5.162,1.07,0.053, ,0,0,0,0,0, ,992,14.5,34.6,-0.5,-0.4,-1.7,25,991.686,13.6219,35.0054,-0.468707,-0.343276,-1.60599,
2026_06_10_18_15_47.064,3.863,28.2,0,0.759,3.913,5.155,1.06,0.053, ,0,0,0,0,0, ,991.2,14.2,35.4,-0.5,-0.4,-1.6,25,991.68,13.6663,35.0051,-0.470614,-0.346733,-1.60867,
2026_06_10_18_15_47.084,3.865,28.3,0,0.758,3.909,5.156,1.06,0.053, ,0,0,0,0,0, ,993,13.1,34.7,-0.6,-0.3,-1.5,25,991.706,13.6653,35.0079,-0.475452,-0.346932,-1.60509,
2026_06_10_18_15_47.104,3.863,28.3,0,0.758,3.914,5.163,1.07,0.053, ,0,0,0,0,0, ,992.3,11.9,37.3,-0.5,-0.2,-1.8,25,991.764,13.5943,35.0683,-0.479994,-0.341025,-1.60783,
2026_06_10_18_15_47.125,3.865,28.4,0,0.758,3.912,5.16,1.07,0.053, ,0,0,0,0,0, ,990.8,15.7,37.1,-0.5,-0.4,-1.7,25,991.751,13.6068,35.1982,-0.481214,-0.338525,-1.61649,
2026_06_10_18_15_47.145,3.863,28.4,0,0.759,3.917,5.16,1.05,0.052, ,0,0,0,0,0, ,990.9,15.6,37.1,-0.6,-0.6,-1.4,25,991.696,13.7313,35.3141,-0.485405,-0.348365,-1.61244,
2026_06_10_18_15_47.164,3.864,28.4,0,0.759,3.913,5.155,1.04,0.052, ,0,0,0,0,0, ,992.5,12.9,34.3,-0.5,-0.7,-1.3,25,991.696,13.7629,35.3376,-0.489341,-0.366746,-1.59645,
2026_06_10_18_15_47.183,3.863,28.4,0,0.759,3.913,5.155,1.06,0.053, ,0,0,0,0,0, ,991.5,10,33.4,-0.6,-0.4,-1.5,25,991.714,13.622,35.247,-0.493038,-0.377913,-1.58448,
2026_06_10_18_15_47.204,3.865,28.5,0,0.758,3.909,5.156,1.06,0.053, ,0,0,0,0,0, ,992.7,12.9,36.4,-0.5,-0.1,-2,25,991.738,13.4896,35.2258,-0.496509,-0.370118,-1.59457,
2026_06_10_18_15_47.223,3.863,28.5,0,0.758,3.915,5.164,1.05,0.052, ,0,0,0,0,0, ,991.6,16.4,36.1,-0.5,-0.5,-1.8,25,991.763,13.5604,35.2882,-0.496722,-0.365845,-1.61318,
2026_06_10_18_15_47.242,3.865,28.6,0,0.759,3.915,5.158,1.05,0.052, ,0,0,0,0,0, ,991.4,16.9,35.7,-0.6,-0.5,-1.3,25,991.747,13.7486,35.3255,-0.499968,-0.374021,-1.60933,
2026_06_10_18_15_47.263,3.864,28.6,0,0.758,3.912,5.16,1.04,0.052, ,0,0,0,0,0, ,991.9,11.2,33.2,-0.6,-0.4,-1.2,25,991.741,13.767,35.2722,-0.506064,-0.378651,-1.58743,
2026_06_10_18_15_47.283,3.863,28.6,0,0.759,3.916,5.159,1.05,0.052, ,0,0,0,0,0, ,991.8,10.6,34.9,-0.6,-0.3,-1.6,25,991.748,13.5923,35.1977,-0.511788,-0.376905,-1.57601,
2026_06_10_18_15_47.303,3.863,28.7,0,0.759,3.913,5.155,1.04,0.052, ,0,0,0,0,0, ,991.5,13.1,34.1,-0.6,-0.3,-1.7,25,991.742,13.4861,35.1552,-0.517164,-0.372218,-1.58052,
2026_06_10_18_15_47.322,3.865,28.7,0,0.76,3.916,5.152,1.02,0.051, ,0,0,0,0,0, ,991.6,13.6,35.5,-0.5,-0.3,-1.6,25,991.73,13.4778,35.1335,-0.519165,-0.367817,-1.58475,
2026_06_10_18_15_47.342,3.863,28.7,0,0.759,3.913,5.155,1.02,0.051, ,0,0,0,0,0, ,990.9,13,35.5,-0.6,-0.2,-1.7,25,991.701,13.467,35.1559,-0.521044,-0.360638,-1.58873,
2026_06_10_18_15_47.362,3.863,28.8,0,0.759,3.914,5.156,1.02,0.051, ,0,0,0,0,0, ,991.5,13.6,35.1,-0.6,-0.2,-1.7,25,991.67,13.4568,35.1646,-0.525855,-0.350849,-1.59551,
2026_06_10_18_15_47.382,3.865,28.9,0,0.758,3.911,5.159,1.02,0.051, ,0,0,0,0,0, ,990.7,12.8,34.1,-0.7,-0.2,-1.7,25,991.636,13.4412,35.1302,-0.53342,-0.341657,-1.60188,
2026_06_10_18_15_47.402,3.863,28.9,0,0.759,3.919,5.163,1.01,0.05, ,0,0,0,0,0, ,992,14.5,35.5,-0.6,-0.2,-1.9,25,991.618,13.4539,35.1101,-0.540524,-0.333025,-1.61395,
2026_06_10_18_15_47.421,3.864,28.9,0,0.759,3.915,5.158,1,0.05, ,0,0,0,0,0, ,990.8,14.7,37.1,-0.6,-0.2,-1.7,25,991.605,13.5237,35.1826,-0.544149,-0.324918,-1.62529,
2026_06_10_18_15_47.441,3.863,28.8,0,0.76,3.918,5.155,1,0.05, ,0,0,0,0,0, ,991,16.1,37.1,-0.6,-0.3,-1.6,25,991.562,13.6381,35.2995,-0.547552,-0.320353,-1.62679,
2026_06_10_18_15_47.462,3.863,28.9,0,0.759,3.911,5.152,1.02,0.051, ,0,0,0,0,0, ,991.9,14.1,36.7,-0.6,-0.5,-1.6,25,991.555,13.7272,35.397,-0.550748,-0.325206,-1.62516,
2026_06_10_18_15_47.481,3.865,29.1,0,0.758,3.912,5.16,1,0.05, ,0,0,0,0,0, ,992,14.7,35.6,-0.6,-0.4,-1.7,25,991.579,13.7682,35.4429,-0.553749,-0.332811,-1.62667,
2026_06_10_18_15_47.501,3.865,28.9,0,0.758,0,0,0,0.049, ,0,0,0,0,0, ,992.3,12,33.2,-0.6,-0.3,-1.7,25,991.614,13.7427,35.3793,-0.556568,-0.333859,-1.63114,
2026_06_10_18_15_47.520,3.863,29.2,0,0.76,3.919,5.156,1.03,0.051, ,0,0,0,0,0, ,991.5,14.1,33.2,-0.6,-0.1,-1.7,25,991.631,13.7005,35.2465,-0.559214,-0.325702,-1.63534,
2026_06_10_18_15_47.540,3.863,29.2,0,0.76,0,0,0,0.048, ,0,0,0,0,0, ,992.1,13.9,38,-0.6,-0.3,-1.5,25,991.642,13.7187,35.2681,-0.5617,-0.318042,-1.63318,
2026_06_10_18_15_47.560,3.863,29.2,0,0.76,0,0,0,0.048, ,0,0,0,0,0, ,991.5,12.9,35.2,-0.6,-0.3,-1.6,25,991.651,13.6993,35.3492,-0.564034,-0.316942,-1.62812,
2026_06_10_18_15_47.580,3.863,29.1,0,0.758,0,0,0,0.049, ,0,0,0,0,0, ,991.3,14.5,35.5,-0.6,-0.2,-1.8,25,991.636,13.6993,35.3493,-0.566225,-0.312863,-1.6325,
2026_06_10_18_15_47.599,3.863,29.4,0,0.759,0,0,0,0.049, ,0,0,0,0,0, ,990.9,16.2,36.3,-0.6,-0.2,-1.8,25,991.603,13.7999,35.3828,-0.568284,-0.305985,-1.6427,
2026_06_10_18_15_47.619,3.863,29.3,0,0.759,0,0,0,0.047, ,0,0,0,0,0, ,990.9,12.8,35,-0.5,-0.5,-1.3,25,991.56,13.8426,35.3991,-0.567169,-0.308667,-1.63705,
2026_06_10_18_15_47.640,3.863,29.4,0,0.759,0,0,0,0.048, ,0,0,0,0,0, ,991,13.4,35,-0.6,-0.3,-1.6,25,991.523,13.7973,35.3748,-0.566123,-0.314233,-1.62566,
2026_06_10_18_15_47.659,3.863,29.3,0,0.76,0,0,0,0.047, ,0,0,0,0,0, ,992.4,13,34.7,-0.5,-0.4,-1.5,25,991.534,13.7609,35.3428,-0.565141,-0.316413,-1.62105,
2026_06_10_18_15_47.679,3.863,29.5,0,0.759,0,0,0,0.048, ,0,0,0,0,0, ,991.3,14.5,36.3,-0.6,-0.4,-1.5,25,991.553,13.7603,35.3524,-0.564218,-0.321506,-1.61367,
2026_06_10_18_15_47.699,3.863,29.4,0,0.759,0,0,0,0.047, ,0,0,0,0,0, ,991.8,15.8,36.6,-0.6,-0.7,-1.4,25,991.553,13.845,35.4193,-0.566398,-0.33543,-1.6037,
2026_06_10_18_15_47.718,3.863,29.5,0,0.76,0,0,0,0.047, ,0,0,0,0,0, ,991.4,12.3,32.8,-0.6,-0.6,-1.3,25,991.556,13.8574,35.3754,-0.568446,-0.354599,-1.58824,
2026_06_10_18_15_47.738,3.863,29.4,0,0.76,0,0,0,0.047, ,0,0,0,0,0, ,992.3,12.8,32.8,-0.6,-0.3,-1.6,25,991.574,13.7778,35.2185,-0.570369,-0.360413,-1.57981,
2026_06_10_18_15_47.761,3.863,29.5,0,0.759,0,0,0,0.047, ,0,0,0,0,0, ,991.5,14.7,36.6,-0.5,-0.3,-1.7,25,991.594,13.7761,35.1869,-0.569128,-0.356731,-1.58409,
2026_06_10_18_15_47.778,3.863,29.5,0,0.76,0,0,0,0.047, ,0,0,0,0,0, ,991.6,15.1,36.8,-0.6,-0.5,-1.5,25,991.591,13.8446,35.2791,-0.567962,-0.359368,-1.58506,
2026_06_10_18_15_47.797,3.863,29.5,0,0.76,0,0,0,0.047, ,0,0,0,0,0, ,991.4,15,35,-0.5,-0.6,-1.4,25,991.586,13.918,35.3169,-0.566867,-0.370985,-1.57683,
2026_06_10_18_15_47.817,3.863,29.7,0,0.758,0,0,0,0.047, ,0,0,0,0,0, ,991.9,11.9,32.3,-0.5,-0.3,-1.5,25,991.589,13.8895,35.2154,-0.562793,-0.3758,-1.5691,
2026_06_10_18_15_47.837,3.863,29.6,0,0.759,0,0,0,0.045, ,0,0,0,0,0, ,991.6,13.6,34.7,-0.6,-0.1,-1.8,25,991.599,13.8201,35.1108,-0.562013,-0.365087,-1.57403,
2026_06_10_18_15_47.857,3.863,29.6,0,0.76,0,0,0,0.046, ,0,0,0,0,0, ,990.4,14.1,35.6,-0.5,-0.2,-1.9,25,991.563,13.8219,35.1132,-0.561281,-0.35198,-1.59085,
2026_06_10_18_15_47.877,3.863,29.7,0,0.76,0,0,0,0.046, ,0,0,0,0,0, ,991.6,16.7,36.2,-0.6,-0.4,-1.7,25,991.528,13.9181,35.1612,-0.560594,-0.348812,-1.60359,
2026_06_10_18_15_47.896,3.863,29.7,0,0.759,0,0,0,0.045, ,0,0,0,0,0, ,992.3,15.1,35.6,-0.6,-0.4,-1.4,25,991.554,14.0388,35.2062,-0.562995,-0.351932,-1.60033,
2026_06_10_18_15_47.917,3.863,29.7,0,0.76,0,0,0,0.045, ,0,0,0,0,0, ,991.6,13.5,33.6,-0.6,-0.2,-1.5,25,991.578,14.0547,35.1693,-0.56525,-0.348767,-1.59117,
2026_06_10_18_15_47.936,3.863,29.8,0,0.759,0,0,0,0.045, ,0,0,0,0,0, ,991.8,12.6,34.1,-0.6,0,-1.9,25,991.586,13.9935,35.0889,-0.567368,-0.333608,-1.5978,
2026_06_10_18_15_47.956,3.863,29.8,0,0.76,0,0,0,0.045, ,0,0,0,0,0, ,990.4,16.7,37.8,-0.5,0,-2,25,991.556,14.0335,35.1413,-0.566309,-0.313279,-1.61926,
2026_06_10_18_15_47.975,3.863,29.8,0,0.759,0,0,0,0.045, ,0,0,0,0,0, ,992.3,15.7,36.3,-0.6,-0.4,-1.6,25,991.544,14.1655,35.2576,-0.565315,-0.306376,-1.63027,
2026_06_10_18_15_47.996,3.863,29.8,0,0.759,0,0,0,0.045, ,0,0,0,0,0, ,991.8,13.9,35.2,-0.6,-0.6,-1.4,25,991.574,14.2042,35.2876,-0.567429,-0.318175,-1.62234,
2026_06_10_18_15_48.016,3.863,29.9,0,0.759,0,0,0,0.045, ,0,0,0,0,0, ,992,12.6,34.9,-0.6,-0.6,-1.4,25,991.594,14.1461,35.2732,-0.569414,-0.335348,-1.60879,
2026_06_10_18_15_48.035,3.863,30,0,0.76,0,0,0,0.044, ,0,0,0,0,0, ,992.4,10.4,32.1,-0.5,-0.4,-1.6,25,991.631,13.9848,35.1651,-0.568231,-0.345382,-1.60216,
2026_06_10_18_15_48.055,3.863,29.9,0,0.76,0,0,0,0.043, ,0,0,0,0,0, ,990.9,15.8,36,-0.6,-0.1,-1.7,25,991.632,13.9309,35.0972,-0.56712,-0.33957,-1.60507,
2026_06_10_18_15_48.074,3.863,30,0,0.759,0,0,0,0, ,0,0,0,0,0, ,991.2,15,36.7,-0.6,-0.3,-1.4,25,991.597,14.0204,35.1735,-0.569123,-0.331065,-1.60172,
2026_06_10_18_15_48.099,3.863,30,0,0.76,0,0,0,0, ,0,0,0,0,0, ,992.1,13.4,35.2,-0.7,-0.4,-1.4,25,991.6,14.0314,35.2208,-0.574052,-0.332218,-1.58942,
2026_06_10_18_15_48.115,3.863,30.1,0,0.759,0,0,0,0, ,0,0,0,0,0, ,991.6,12.3,34.7,-0.5,-0.3,-1.7,25,991.615,13.9594,35.2043,-0.575633,-0.333302,-1.58702,
2026_06_10_18_15_48.134,3.863,30,0,0.76,0,0,0,0, ,0,0,0,0,0, ,990.9,14.2,36.6,-0.5,-0.2,-1.9,25,991.593,13.9161,35.2315,-0.571024,-0.328226,-1.6,
2026_06_10_18_15_48.153,3.863,30.1,0,0.759,0,0,0,0, ,0,0,0,0,0, ,991,14.7,36.2,-0.6,-0.4,-1.8,25,991.554,13.9487,35.3027,-0.569743,-0.326506,-1.61524,
2026_06_10_18_15_48.173,3.863,30.1,0,0.76,0,0,0,0, ,0,0,0,0,0, ,991.8,13,35.2,-0.5,-0.2,-1.6,25,991.544,13.9427,35.3269,-0.56854,-0.324891,-1.6204,
2026_06_10_18_15_48.194,3.863,30.2,0,0.759,0,0,0,0, ,0,0,0,0,0, ,991.2,12.5,36.1,-0.6,-0.3,-1.6,25,991.542,13.87,35.3466,-0.56741,-0.320327,-1.61916,
2026_06_10_18_15_48.213,3.863,30.2,0,0.76,0,0,0,0, ,0,0,0,0,0, ,991.5,13.5,33,-0.5,-0.2,-1.9,25,991.53,13.817,35.298,-0.566349,-0.316041,-1.62713,
2026_06_10_18_15_48.233,3.863,30.1,0,0.761,0,0,0,0, ,0,0,0,0,0, ,992.4,15.1,38.3,-0.5,-0.6,-1.8,25,991.556,13.8464,35.3195,-0.562306,-0.321158,-1.64071,
2026_06_10_18_15_48.253,3.863,30.2,0,0.76,0,0,0,0, ,0,0,0,0,0, ,991.4,15.3,35.5,-0.5,-0.5,-1.6,25,991.577,13.9289,35.4158,-0.558509,-0.335103,-1.64432,
2026_06_10_18_15_48.273,3.863,30.2,0,0.758,0,0,0,0, ,0,0,0,0,0, ,991.3,12.5,35,-0.6,-0.3,-1.7,25,991.563,13.9271,35.4057,-0.557991,-0.339057,-1.64467,
2026_06_10_18_15_48.293,3.863,30.2,0,0.759,0,0,0,0, ,0,0,0,0,0, ,990.6,14.5,37.4,-0.6,-0.3,-1.7,25,991.525,13.9011,35.4541,-0.560551,-0.336677,-1.64804,
2026_06_10_18_15_48.313,3.863,30.1,0,0.761,0,0,0,0, ,0,0,0,0,0, ,991.8,14.2,35.8,-0.5,-0.3,-1.6,25,991.506,13.9285,35.5239,-0.559908,-0.334442,-1.64816,
2026_06_10_18_15_48.333,3.863,30.2,0,0.759,0,0,0,0, ,0,0,0,0,0, ,991.5,13.1,35.5,-0.6,-0.2,-1.6,25,991.514,13.9115,35.5316,-0.559304,-0.329297,-1.64523,
2026_06_10_18_15_48.352,3.863,30.2,0,0.759,0,0,0,0, ,0,0,0,0,0, ,991.6,14.7,36.2,-0.6,-0.5,-1.6,25,991.517,13.9108,35.551,-0.561784,-0.330558,-1.64247,
2026_06_10_18_15_48.372,3.863,30.2,0,0.759,0,0,0,0, ,0,0,0,0,0, ,991.6,13.4,35.4,-0.5,-0.5,-1.5,25,991.522,13.9193,35.5662,-0.561066,-0.340884,-1.63684,
2026_06_10_18_15_48.391,3.863,30.3,0,0.759,0,0,0,0, ,0,0,0,0,0, ,992.9,14.2,33.8,-0.6,-0.5,-1.6,25,991.566,13.912,35.5073,-0.560392,-0.35058,-1.63154,
2026_06_10_18_15_48.411,3.863,30.2,0,0.759,0,0,0,0, ,0,0,0,0,0, ,991.5,14.5,35,-0.5,-0.3,-1.6,25,991.605,13.9387,35.4398,-0.559758,-0.353591,-1.62962,
2026_06_10_18_15_48.433,3.863,30.3,0,0.759,0,0,0,0, ,0,0,0,0,0, ,990.8,15.2,36.3,-0.6,-0.4,-1.5,25,991.577,13.9942,35.4526,-0.559164,-0.353372,-1.62477,
2026_06_10_18_15_48.451,3.863,30.4,0,0.759,0,0,0,0, ,0,0,0,0,0, ,991.4,13.5,36,-0.6,-0.1,-1.7,25,991.548,14.0159,35.4951,-0.561652,-0.347073,-1.62326,
2026_06_10_18_15_48.471,3.863,30.2,0,0.759,0,0,0,0, ,0,0,0,0,0, ,992.6,14.6,34.5,-0.5,-0.3,-1.8,25,991.575,14.018,35.4802,-0.560942,-0.338111,-1.63098,
2026_06_10_18_15_48.491,3.863,30.3,0,0.76,0,0,0,0, ,0,0,0,0,0, ,991.5,14.8,35.2,-0.5,-0.3,-1.8,25,991.604,14.0595,35.4418,-0.557228,-0.335789,-1.64128,
2026_06_10_18_15_48.511,3.863,30.3,0,0.758,0,0,0,0, ,0,0,0,0,0, ,992.3,14.4,34.3,-0.5,-0.1,-1.8,25,991.622,14.0925,35.3996,-0.553741,-0.327514,-1.65095,
2026_06_10_18_15_48.530,3.863,30.3,0,0.758,0,0,0,0, ,0,0,0,0,0, ,990.3,15.9,40.1,-0.5,-0.1,-1.7,25,991.603,14.1569,35.5093,-0.550466,-0.31365,-1.65699,
2026_06_10_18_15_48.550,3.863,30.3,0,0.759,0,0,0,0, ,0,0,0,0,0, ,993,15.2,36.3,-0.5,-0.4,-1.6,25,991.606,14.2418,35.6733,-0.547391,-0.309771,-1.65656,
2026_06_10_18_15_48.569,3.863,30.3,0,0.758,0,0,0,0, ,0,0,0,0,0, ,990.3,15.5,36.3,-0.5,-0.5,-1.5,25,991.608,14.3093,35.7115,-0.544503,-0.318316,-1.65007,
2026_06_10_18_15_48.589,3.863,30.3,0,0.758,0,0,0,0, ,0,0,0,0,0, ,991,16.7,34.3,-0.5,-0.4,-1.4,25,991.55,14.4185,35.6864,-0.541791,-0.326341,-1.63788,
2026_06_10_18_15_48.610,3.863,30.3,0,0.76,0,0,0,0, ,0,0,0,0,0, ,993.1,15.3,35.5,-0.6,-0.3,-1.3,25,991.58,14.5148,35.6385,-0.542291,-0.327783,-1.62034,
2026_06_10_18_15_48.629,3.863,30.4,0,0.759,0,0,0,0, ,0,0,0,0,0, ,991.3,10.7,35.7,-0.6,-0.5,-1.6,25,991.618,14.4225,35.6362,-0.545808,-0.332183,-1.60996,
2026_06_10_18_15_48.649,3.863,30.3,0,0.759,0,0,0,0, ,0,0,0,0,0, ,991.5,15.2,36.1,-0.5,-0.3,-1.8,25,991.605,14.3328,35.6522,-0.546063,-0.336316,-1.61544,
2026_06_10_18_15_48.669,3.863,30.4,0,0.759,0,0,0,0, ,0,0,0,0,0, ,991.5,15.1,36.2,-0.5,-0.5,-1.6,25,991.598,14.3826,35.6826,-0.543256,-0.340197,-1.6206,
2026_06_10_18_15_48.689,3.863,30.3,0,0.758,0,0,0,0, ,0,0,0,0,0, ,990.9,15.9,34.6,-0.6,-0.3,-1.4,25,991.574,14.4507,35.6653,-0.543667,-0.343841,-1.61325,
2026_06_10_18_15_48.708,3.863,30.4,0,0.758,0,0,0,0, ,0,0,0,0,0, ,991.9,12.4,35.6,-0.5,-0.4,-1.4,25,991.564,14.4324,35.6309,-0.544053,-0.344216,-1.60025,
2026_06_10_18_15_48.728,3.863,30.3,0,0.759,0,0,0,0, ,0,0,0,0,0, ,992,10.7,34.4,-0.6,-0.4,-1.8,25,991.587,14.2567,35.5925,-0.544416,-0.347616,-1.60024,
2026_06_10_18_15_48.749,3.863,30.3,0,0.76,0,0,0,0, ,0,0,0,0,0, ,991.8,16.1,36.8,-0.5,-0.4,-1.8,25,991.606,14.2045,35.5929,-0.544756,-0.350808,-1.61241,
2026_06_10_18_15_48.768,3.863,30.4,0,0.759,0,0,0,0, ,0,0,0,0,0, ,990.6,15.9,34.9,-0.6,-0.5,-1.5,25,991.581,14.3139,35.6086,-0.545076,-0.356852,-1.6147,
2026_06_10_18_15_48.793,3.863,30.4,0,0.758,0,0,0,0, ,0,0,0,0,0, ,990.9,15.3,34.7,-0.6,-0.4,-1.4,25,991.531,14.3923,35.5593,-0.548422,-0.362528,-1.60466,
2026_06_10_18_15_48.808,3.863,30.4,0,0.757,0,0,0,0, ,0,0,0,0,0, ,992.3,12,35.8,-0.6,-0.2,-1.4,25,991.535,14.3471,35.5405,-0.551565,-0.358718,-1.59219,
2026_06_10_18_15_48.827,3.863,30.4,0,0.759,0,0,0,0, ,0,0,0,0,0, ,991.2,14.4,38.6,-0.5,-0.3,-1.8,25,991.548,14.2772,35.6416,-0.55147,-0.352093,-1.59267,
2026_06_10_18_15_48.847,3.863,30.3,0,0.759,0,0,0,0, ,0,0,0,0,0, ,990.7,16.2,37.5,-0.6,-0.7,-1.5,25,991.512,14.3395,35.7883,-0.551381,-0.361106,-1.59616,
2026_06_10_18_15_48.868,3.863,30.3,0,0.759,0,0,0,0, ,0,0,0,0,0, ,992.6,13.6,34.4,-0.6,-0.5,-1.5,25,991.52,14.3736,35.7982,-0.554343,-0.375664,-1.5903,
2026_06_10_18_15_48.887,3.863,30.4,0,0.76,0,0,0,0, ,0,0,0,0,0, ,991.8,11.5,33.6,-0.6,-0.3,-1.6,25,991.562,14.2625,35.6886,-0.557125,-0.377147,-1.58785,
2026_06_10_18_15_48.906,3.863,30.3,0,0.759,0,0,0,0, ,0,0,0,0,0, ,990.3,13.1,35.5,-0.5,-0.3,-2,25,991.53,14.1429,35.6192,-0.556691,-0.372446,-1.60077,
2026_06_10_18_15_48.926,3.863,30.4,0,0.758,0,0,0,0, ,0,0,0,0,0, ,992.1,15.7,37.2,-0.5,-0.5,-1.8,25,991.51,14.1586,35.6638,-0.553237,-0.374125,-1.61901,
2026_06_10_18_15_48.946,3.863,30.3,0,0.759,0,0,0,0, ,0,0,0,0,0, ,991.2,15.2,35.6,-0.6,-0.6,-1.4,25,991.519,14.2373,35.7086,-0.553039,-0.384842,-1.61785,
2026_06_10_18_15_48.967,3.863,30.4,0,0.759,0,0,0,0, ,0,0,0,0,0, ,991.4,14.7,37.7,-0.6,-0.2,-1.2,25,991.505,14.2807,35.766,-0.555901,-0.385766,-1.59848,
2026_06_10_18_15_48.986,3.863,30.4,0,0.76,0,0,0,0, ,0,0,0,0,0, ,990.8,13.1,36.3,-0.6,-0.5,-1.3,25,991.481,14.2575,35.8412,-0.558588,-0.383586,-1.57725,
2026_06_10_18_15_49.005,3.863,30.3,0,0.76,0,0,0,0, ,0,0,0,0,0, ,992.1,13.4,33.6,-0.5,-0.6,-1.6,25,991.479,14.1961,35.7869,-0.558065,-0.393727,-1.56949,
2026_06_10_18_15_49.025,3.863,30.3,0,0.759,0,0,0,0, ,0,0,0,0,0, ,991.5,15.3,35.5,-0.5,-0.3,-1.7,25,991.498,14.2055,35.7115,-0.554527,-0.397156,-1.5744,
2026_06_10_18_15_49.045,3.863,30.3,0,0.759,0,0,0,0, ,0,0,0,0,0, ,992.5,14.2,33.9,-0.6,-0.2,-1.6,25,991.529,14.2387,35.6499,-0.554251,-0.388189,-1.579,
2026_06_10_18_15_49.065,3.863,30.4,0,0.761,0,0,0,0, ,0,0,0,0,0, ,991.6,14.5,34.6,-0.6,-0.3,-1.6,25,991.561,14.2455,35.5646,-0.557039,-0.379768,-1.58028,
2026_06_10_18_15_49.085,3.863,30.4,0,0.759,0,0,0,0, ,0,0,0,0,0, ,992.5,13.6,33.8,-0.5,-0.5,-1.5,25,991.591,14.2336,35.4814,-0.55661,-0.381001,-1.57844,
2026_06_10_18_15_49.105,3.863,30.4,0,0.758,0,0,0,0, ,0,0,0,0,0, ,991,13.6,36.1,-0.6,-0.4,-1.6,25,991.6,14.1949,35.449,-0.556207,-0.385206,-1.57671,
2026_06_10_18_15_49.124,3.863,30.3,0,0.759,0,0,0,0, ,0,0,0,0,0, ,991.8,13.7,34.1,-0.5,-0.3,-1.6,25,991.588,14.1617,35.4278,-0.555829,-0.38306,-1.57813,
2026_06_10_18_15_49.145,3.863,30.3,0,0.758,0,0,0,0, ,0,0,0,0,0, ,991.5,14.2,36.6,-0.5,-0.4,-1.5,25,991.592,14.1488,35.423,-0.552427,-0.381046,-1.57641,
2026_06_10_18_15_49.171,3.863,30.3,0,0.76,0,0,0,0, ,0,0,0,0,0, ,991.9,12.5,32.7,-0.6,-0.4,-1.6,25,991.598,14.1002,35.3759,-0.552279,-0.382201,-1.5748,
2026_06_10_18_15_49.184,3.863,30.3,0,0.758,0,0,0,0, ,0,0,0,0,0, ,991,13.7,32.4,-0.6,0,-1.8,25,991.589,14.0392,35.2037,-0.555187,-0.371098,-1.58243,
2026_06_10_18_15_49.203,3.863,30.4,0,0.76,0,0,0,0, ,0,0,0,0,0, ,991.2,14.1,36.9,-0.5,-0.1,-1.9,25,991.56,14.0307,35.17,-0.554871,-0.351531,-1.59874,
2026_06_10_18_15_49.223,3.863,30.3,0,0.758,0,0,0,0, ,0,0,0,0,0, ,992.4,15.7,38.2,-0.5,-0.5,-1.8,25,991.574,14.0837,35.315,-0.551527,-0.348391,-1.61405,
2026_06_10_18_15_49.243,3.863,30.4,0,0.758,0,0,0,0, ,0,0,0,0,0, ,991.3,15.7,34,-0.6,-0.6,-1.4,25,991.591,14.1822,35.3628,-0.551434,-0.360676,-1.61319,
2026_06_10_18_15_49.263,3.863,30.4,0,0.76,0,0,0,0, ,0,0,0,0,0, ,993.2,13.1,34.5,-0.6,-0.3,-1.4,25,991.631,14.1955,35.295,-0.554393,-0.366119,-1.6002,
2026_06_10_18_15_49.283,3.863,30.3,0,0.759,0,0,0,0, ,0,0,0,0,0, ,992.9,11.4,34.9,-0.5,-0.1,-1.7,25,991.718,14.0769,35.2588,-0.554126,-0.355997,-1.59714,
2026_06_10_18_15_49.303,3.863,30.3,0,0.759,0,0,0,0, ,0,0,0,0,0, ,992.3,13.6,35.6,-0.5,-0.1,-1.8,25,991.771,13.9808,35.2582,-0.550827,-0.340397,-1.60646,
2026_06_10_18_15_49.323,3.863,30.3,0,0.76,0,0,0,0, ,0,0,0,0,0, ,991.2,15.5,35,-0.6,-0.5,-1.7,25,991.77,14.0155,35.2608,-0.550777,-0.337935,-1.6152,
2026_06_10_18_15_49.346,3.863,30.4,0,0.758,0,0,0,0, ,0,0,0,0,0, ,991.8,16.3,34.6,-0.6,-0.4,-1.5,25,991.754,14.1303,35.2327,-0.553777,-0.344764,-1.61428,
2026_06_10_18_15_49.362,3.863,30.4,0,0.759,0,0,0,0, ,0,0,0,0,0, ,990.9,16.4,36.1,-0.5,-0.4,-1.2,25,991.729,14.2656,35.2398,-0.553546,-0.34813,-1.59817,
2026_06_10_18_15_49.382,3.863,30.3,0,0.76,0,0,0,0, ,0,0,0,0,0, ,991,14,35.2,-0.6,-0.5,-1.2,25,991.682,14.3225,35.2648,-0.55333,-0.354338,-1.57391,
2026_06_10_18_15_49.402,3.863,30.4,0,0.758,0,0,0,0, ,0,0,0,0,0, ,992.7,13.4,35.5,-0.5,-0.5,-1.4,25,991.692,14.2846,35.27,-0.553127,-0.363214,-1.55722,
2026_06_10_18_15_49.421,3.863,30.4,0,0.759,0,0,0,0, ,0,0,0,0,0, ,991.5,12.4,36.2,-0.6,-0.5,-1.5,25,991.717,14.2002,35.3054,-0.552937,-0.371549,-1.55068,
2026_06_10_18_15_49.441,3.863,30.2,0,0.761,0,0,0,0, ,0,0,0,0,0, ,992.1,12.8,34.1,-0.6,-0.5,-1.4,25,991.722,14.1027,35.2959,-0.555805,-0.379377,-1.54455,
2026_06_10_18_15_49.461,3.863,30.3,0,0.76,0,0,0,0, ,0,0,0,0,0, ,993.2,12.8,35.1,-0.6,-0.3,-1.7,25,991.778,14.0233,35.2535,-0.558498,-0.380634,-1.54488,
2026_06_10_18_15_49.481,3.863,30.4,0,0.759,0,0,0,0, ,0,0,0,0,0, ,991.8,13.5,33.9,-0.5,-0.2,-1.8,25,991.822,13.9701,35.2076,-0.55798,-0.372673,-1.55738,
2026_06_10_18_15_49.500,3.863,30.3,0,0.76,0,0,0,0, ,0,0,0,0,0, ,992,13,34.5,-0.5,-0.2,-1.8,25,991.827,13.9262,35.1462,-0.554447,-0.362151,-1.57216,
2026_06_10_18_15_49.520,3.863,30.2,0,0.759,0,0,0,0, ,0,0,0,0,0, ,992.3,13.6,34.7,-0.5,-0.2,-1.8,25,991.847,13.8881,35.1129,-0.551129,-0.35227,-1.58605,
2026_06_10_18_15_49.541,3.863,30.3,0,0.759,0,0,0,0, ,0,0,0,0,0, ,992.3,14.2,35.1,-0.5,-0.2,-1.8,25,991.874,13.8888,35.0999,-0.548013,-0.342991,-1.59909,
2026_06_10_18_15_49.560,3.863,30.2,0,0.759,0,0,0,0, ,0,0,0,0,0, ,991,14.7,35.1,-0.5,-0.2,-1.9,25,991.861,13.923,35.0999,-0.545088,-0.334277,-1.61438,
2026_06_10_18_15_49.581,3.863,30.3,0,0.76,0,0,0,0, ,0,0,0,0,0, ,992.5,13.9,35.5,-0.5,-0.1,-1.8,25,991.854,13.946,35.1121,-0.54234,-0.323048,-1.62873,
2026_06_10_18_15_49.600,3.863,30.3,0,0.759,0,0,0,0, ,0,0,0,0,0, ,992.3,15,35.4,-0.6,0,-1.7,25,991.887,13.9767,35.1327,-0.542807,-0.306409,-1.63612,
2026_06_10_18_15_49.620,3.863,30.4,0,0.759,0,0,0,0, ,0,0,0,0,0, ,991,14.4,36.7,-0.5,-0.1,-1.7,25,991.873,14.0208,35.1886,-0.543245,-0.290784,-1.64002,
2026_06_10_18_15_49.639,3.863,30.3,0,0.759,0,0,0,0, ,0,0,0,0,0, ,991.5,14.6,36.8,-0.6,-0.4,-1.6,25,991.835,14.05,35.2838,-0.543657,-0.288299,-1.64062,
2026_06_10_18_15_49.659,3.863,30.3,0,0.759,0,0,0,0, ,0,0,0,0,0, ,990.6,14.6,34.5,-0.5,-0.6,-1.4,25,991.787,14.0835,35.3061,-0.544043,-0.301199,-1.63206,
2026_06_10_18_15_49.679,3.863,30.3,0,0.759,0,0,0,0, ,0,0,0,0,0, ,991.5,15.1,34.6,-0.6,-0.5,-1.5,25,991.742,14.1302,35.26,-0.544406,-0.316361,-1.62096,
2026_06_10_18_15_49.699,3.863,30.3,0,0.76,0,0,0,0, ,0,0,0,0,0, ,991,14.4,34.1,-0.5,-0.4,-1.6,25,991.712,14.168,35.2045,-0.544747,-0.324504,-1.61664,
2026_06_10_18_15_49.720,3.863,30.3,0,0.759,0,0,0,0, ,0,0,0,0,0, ,990.6,13.3,33.5,-0.6,-0.1,-1.7,25,991.657,14.1486,35.119,-0.545067,-0.319964,-1.61867,
2026_06_10_18_15_49.739,3.863,30.2,0,0.759,0,0,0,0, ,0,0,0,0,0, ,991.5,16.7,37.4,-0.6,-0.3,-1.6,25,991.62,14.2005,35.1391,-0.548415,-0.312654,-1.62058,
2026_06_10_18_15_49.758,3.863,30.4,0,0.759,0,0,0,0, ,0,0,0,0,0, ,991.6,15.8,36.4,-0.5,-0.5,-1.4,25,991.615,14.3254,35.2464,-0.548511,-0.317977,-1.61323,
2026_06_10_18_15_49.778,3.863,30.3,0,0.759,0,0,0,0, ,0,0,0,0,0, ,991.4,14.1,36,-0.6,-0.6,-1.3,25,991.608,14.3634,35.3045,-0.548602,-0.332115,-1.59719,
2026_06_10_18_15_49.798,3.863,30.2,0,0.758,0,0,0,0, ,0,0,0,0,0, ,990.1,13.3,35.5,-0.5,-0.5,-1.4,25,991.556,14.323,35.3317,-0.548687,-0.345393,-1.58213,
2026_06_10_18_15_49.818,3.863,30.2,0,0.759,0,0,0,0, ,0,0,0,0,0, ,991.2,13.5,34.5,-0.6,-0.4,-1.5,25,991.501,14.2668,35.3115,-0.548767,-0.351767,-1.57408,
2026_06_10_18_15_49.837,3.863,30.2,0,0.76,0,0,0,0, ,0,0,0,0,0, ,991.8,11.8,34.7,-0.6,-0.3,-1.6,25,991.501,14.1682,35.2681,-0.551889,-0.35166,-1.57261,
2026_06_10_18_15_49.858,3.863,30.2,0,0.76,0,0,0,0, ,0,0,0,0,0, ,991.5,13,35,-0.5,0,-1.8,25,991.51,14.0605,35.2426,-0.551774,-0.339371,-1.58037,
2026_06_10_18_15_49.877,3.863,30.3,0,0.759,0,0,0,0, ,0,0,0,0,0, ,990.4,13.6,35.5,-0.5,-0.1,-1.8,25,991.476,14.0141,35.2431,-0.548619,-0.321737,-1.59376,
2026_06_10_18_15_49.897,3.863,30.3,0,0.76,0,0,0,0, ,0,0,0,0,0, ,991.3,14.2,38.3,-0.5,-0.4,-1.7,25,991.438,14.0072,35.3441,-0.545656,-0.317366,-1.60328,
2026_06_10_18_15_49.917,3.863,30.4,0,0.759,0,0,0,0, ,0,0,0,0,0, ,992,14.2,33.9,-0.5,-0.4,-1.5,25,991.451,14.0189,35.3901,-0.542874,-0.322401,-1.60308,
2026_06_10_18_15_49.937,3.863,30.3,0,0.759,0,0,0,0, ,0,0,0,0,0, ,991.9,13,34.3,-0.5,-0.1,-1.8,25,991.481,13.9934,35.3115,-0.540262,-0.317989,-1.60594,
2026_06_10_18_15_49.956,3.863,30.3,0,0.759,0,0,0,0, ,0,0,0,0,0, ,991.3,14.4,35,-0.5,0,-2,25,991.488,13.9755,35.2712,-0.537808,-0.301659,-1.62386,
2026_06_10_18_15_49.976,3.863,30.2,0,0.759,0,0,0,0, ,0,0,0,0,0, ,991,15.3,36.6,-0.6,-0.1,-1.8,25,991.468,14.0288,35.3034,-0.538551,-0.286323,-1.64068,
2026_06_10_18_15_49.996,3.863,30.2,0,0.759,0,0,0,0, ,0,0,0,0,0, ,990.6,14.4,36.3,-0.5,-0.3,-1.7,25,991.427,14.0789,35.3733,-0.539249,-0.281063,-1.64734,
2026_06_10_18_15_50.016,3.863,30.2,0,0.759,0,0,0,0, ,0,0,0,0,0, ,992,15.9,36,-0.6,-0.4,-1.6,25,991.419,14.1441,35.4206,-0.539904,-0.285264,-1.64751,
2026_06_10_18_15_50.036,3.863,30.2,0,0.76,0,0,0,0, ,0,0,0,0,0, ,991.9,13.7,37.4,-0.6,-0.4,-1.4,25,991.452,14.1841,35.4986,-0.543566,-0.292256,-1.63852,
2026_06_10_18_15_50.056,3.863,30.2,0,0.759,0,0,0,0, ,0,0,0,0,0, ,991.5,14.1,35.5,-0.5,-0.5,-1.4,25,991.467,14.1668,35.5566,-0.543958,-0.301868,-1.62398,
2026_06_10_18_15_50.075,3.863,30.4,0,0.759,0,0,0,0, ,0,0,0,0,0, ,991,14.8,36.7,-0.5,-0.5,-1.5,25,991.453,14.184,35.5897,-0.541279,-0.313942,-1.61338,
2026_06_10_18_15_50.095,3.863,30.3,0,0.759,0,0,0,0, ,0,0,0,0,0, ,992.1,13.5,36.1,-0.6,-0.9,-1.3,25,991.459,14.182,35.6391,-0.541811,-0.337467,-1.60038,
2026_06_10_18_15_50.115,3.863,30.2,0,0.758,0,0,0,0, ,0,0,0,0,0, ,991.5,13.3,31.7,-0.6,-0.7,-1.4,25,991.48,14.1343,35.5331,-0.545357,-0.365653,-1.58512,
2026_06_10_18_15_50.135,3.863,30.2,0,0.758,0,0,0,0, ,0,0,0,0,0, ,992.1,13.5,31.7,-0.6,-0.4,-1.5,25,991.5,14.0896,35.2995,-0.548687,-0.376887,-1.57689,
2026_06_10_18_15_50.155,3.863,30.2,0,0.761,0,0,0,0, ,0,0,0,0,0, ,991.6,12.4,36.2,-0.6,-0.2,-1.4,25,991.521,14.0201,35.2173,-0.551813,-0.372201,-1.56915,
2026_06_10_18_15_50.174,3.863,30.2,0,0.76,0,0,0,0, ,0,0,0,0,0, ,991.9,12.4,35.1,-0.6,-0.2,-1.7,25,991.535,13.9214,35.2436,-0.55475,-0.361708,-1.56799,
2026_06_10_18_15_50.194,3.863,30.2,0,0.759,0,0,0,0, ,0,0,0,0,0, ,992.7,15.3,35.5,-0.5,-0.3,-1.7,25,991.582,13.917,35.2471,-0.55446,-0.354901,-1.57603,
2026_06_10_18_15_50.214,3.863,30.2,0,0.759,0,0,0,0, ,0,0,0,0,0, ,991,14.5,35.2,-0.5,-0.4,-1.7,25,991.598,13.9769,35.2533,-0.551142,-0.354602,-1.58359,
2026_06_10_18_15_50.234,3.863,30.2,0,0.759,0,0,0,0, ,0,0,0,0,0, ,990.8,15.1,36,-0.5,-0.3,-1.7,25,991.555,14.0271,35.2745,-0.548025,-0.354321,-1.59068,
2026_06_10_18_15_50.253,3.863,30.3,0,0.76,0,0,0,0, ,0,0,0,0,0, ,990.9,13.5,33.8,-0.6,-0.2,-1.8,25,991.512,14.0437,35.2516,-0.548146,-0.347964,-1.60039,
2026_06_10_18_15_50.280,3.863,30.2,0,0.758,0,0,0,0, ,0,0,0,0,0, ,990.4,14.5,34.7,-0.5,-0.2,-1.8,25,991.46,14.0411,35.1906,-0.548259,-0.338948,-1.61255,
2026_06_10_18_15_50.293,3.863,30.3,0,0.759,0,0,0,0, ,0,0,0,0,0, ,991.4,15.1,34.9,-0.5,-0.1,-1.7,25,991.426,14.0873,35.1668,-0.545318,-0.327434,-1.62093,
2026_06_10_18_15_50.314,3.863,30.2,0,0.758,0,0,0,0, ,0,0,0,0,0, ,990.9,15.6,38.3,-0.6,-0.2,-1.7,25,991.409,14.1643,35.2541,-0.545603,-0.316621,-1.62575,
2026_06_10_18_15_50.333,3.863,30.2,0,0.758,0,0,0,0, ,0,0,0,0,0, ,991.9,15.6,36.8,-0.6,-0.4,-1.6,25,991.408,14.2517,35.394,-0.548918,-0.315609,-1.62722,
2026_06_10_18_15_50.353,3.863,30.2,0,0.759,0,0,0,0, ,0,0,0,0,0, ,992.3,11.4,32.7,-0.5,-0.6,-1.6,25,991.451,14.2059,35.3548,-0.548984,-0.326845,-1.62557,
2026_06_10_18_15_50.373,3.863,30.3,0,0.759,0,0,0,0, ,0,0,0,0,0, ,990.6,14.6,35.6,-0.5,-0.3,-1.8,25,991.45,14.1325,35.2814,-0.545999,-0.33435,-1.6301,
2026_06_10_18_15_50.393,3.863,30.2,0,0.758,0,0,0,0, ,0,0,0,0,0, ,991.2,15.2,37.4,-0.5,-0.3,-1.5,25,991.417,14.1792,35.3556,-0.543196,-0.332257,-1.63131,
2026_06_10_18_15_50.412,3.863,30.3,0,0.757,0,0,0,0, ,0,0,0,0,0, ,991.5,13.1,34.5,-0.6,-0.3,-1.5,25,991.413,14.1774,35.3919,-0.543611,-0.330291,-1.62331,
2026_06_10_18_15_50.432,3.863,30.2,0,0.759,0,0,0,0, ,0,0,0,0,0, ,991.9,14.5,37.7,-0.5,-0.2,-1.6,25,991.43,14.1544,35.435,-0.544,-0.325398,-1.61884,
2026_06_10_18_15_50.452,3.863,30.2,0,0.759,0,0,0,0, ,0,0,0,0,0, ,991.5,13.6,37.8,-0.6,-0.4,-1.6,25,991.447,14.1481,35.5761,-0.544365,-0.32385,-1.6177,
2026_06_10_18_15_50.474,3.863,30.2,0,0.759,0,0,0,0, ,0,0,0,0,0, ,991,13.9,34.5,-0.5,-0.4,-1.5,25,991.435,14.1238,35.6111,-0.544709,-0.328491,-1.61357,
2026_06_10_18_15_50.491,3.863,30.2,0,0.759,0,0,0,0, ,0,0,0,0,0, ,991.5,13,35,-0.6,-0.3,-1.6,25,991.424,14.0828,35.5586,-0.545031,-0.329802,-1.6097,
2026_06_10_18_15_50.511,3.863,30.2,0,0.759,0,0,0,0, ,0,0,0,0,0, ,990.8,14.5,36.8,-0.5,-0.4,-1.7,25,991.407,14.0625,35.5794,-0.545334,-0.331032,-1.61215,
2026_06_10_18_15_50.531,3.863,30.2,0,0.759,0,0,0,0, ,0,0,0,0,0, ,991.9,13.5,34.5,-0.6,-0.3,-1.6,25,991.403,14.0587,35.5837,-0.545618,-0.332188,-1.61446,
2026_06_10_18_15_50.551,3.863,30.3,0,0.759,0,0,0,0, ,0,0,0,0,0, ,991.9,14.8,36.1,-0.6,-0.3,-1.7,25,991.434,14.0642,35.5664,-0.548932,-0.330227,-1.61663,
2026_06_10_18_15_50.571,3.863,30.2,0,0.758,0,0,0,0, ,0,0,0,0,0, ,991.2,14.1,36.7,-0.5,-0.5,-1.6,25,991.441,14.0877,35.6172,-0.548997,-0.334479,-1.61866,
2026_06_10_18_15_50.590,3.863,30.2,0,0.759,0,0,0,0, ,0,0,0,0,0, ,992,14.2,35.5,-0.6,-0.5,-1.6,25,991.45,14.0915,35.6466,-0.549058,-0.344565,-1.61752,
2026_06_10_18_15_50.611,3.863,30.2,0,0.761,0,0,0,0, ,0,0,0,0,0, ,990.7,13.5,33.8,-0.6,-0.3,-1.5,25,991.444,14.0768,35.5859,-0.552163,-0.347943,-1.61341,
2026_06_10_18_15_50.630,3.863,30.2,0,0.759,0,0,0,0, ,0,0,0,0,0, ,990.7,13.3,36.1,-0.5,0,-1.8,25,991.399,14.0356,35.5471,-0.552031,-0.335881,-1.61564,
2026_06_10_18_15_50.651,3.863,30.1,0,0.759,0,0,0,0, ,0,0,0,0,0, ,991.8,13,37.4,-0.5,-0.3,-1.9,25,991.39,13.9816,35.6204,-0.54886,-0.324554,-1.62992,
2026_06_10_18_15_50.670,3.863,30.2,0,0.758,0,0,0,0, ,0,0,0,0,0, ,991.3,15.9,37.7,-0.5,-0.5,-1.6,25,991.4,14.0102,35.738,-0.545883,-0.329151,-1.63724,
2026_06_10_18_15_50.689,3.863,30.2,0,0.759,0,0,0,0, ,0,0,0,0,0, ,989.9,16.1,34.3,-0.5,-0.3,-1.5,25,991.351,14.1314,35.754,-0.543087,-0.333469,-1.63192,
2026_06_10_18_15_50.710,3.863,30.1,0,0.759,0,0,0,0, ,0,0,0,0,0, ,992.7,10.7,33.3,-0.6,0,-1.7,25,991.348,14.0868,35.6349,-0.543508,-0.322289,-1.62998,
2026_06_10_18_15_50.730,3.863,30.2,0,0.758,0,0,0,0, ,0,0,0,0,0, ,992.1,14.6,37.5,-0.5,0,-2.1,25,991.412,13.9993,35.6206,-0.543904,-0.302649,-1.64643,
2026_06_10_18_15_50.749,3.863,30.2,0,0.757,0,0,0,0, ,0,0,0,0,0, ,991.3,15.8,39.1,-0.5,-0.3,-1.7,25,991.429,14.0725,35.7839,-0.541228,-0.293347,-1.66188,
2026_06_10_18_15_50.769,3.863,30.2,0,0.758,0,0,0,0, ,0,0,0,0,0, ,992,13.6,33.4,-0.5,-0.5,-1.6,25,991.443,14.1107,35.8123,-0.538716,-0.299846,-1.66116,
2026_06_10_18_15_50.788,3.863,30.2,0,0.759,0,0,0,0, ,0,0,0,0,0, ,993,11.2,35.6,-0.5,-0.5,-1.7,25,991.507,14.0064,35.7323,-0.536357,-0.312043,-1.66048,
2026_06_10_18_15_50.809,3.863,30.2,0,0.759,0,0,0,0, ,0,0,0,0,0, ,992.3,14.6,34.7,-0.2,-0.2,-1.8,25,991.577,13.939,35.6968,-0.525001,-0.314356,-1.66593,
2026_06_10_18_15_50.828,3.863,30.2,0,0.759,0,0,0,0, ,0,0,0,0,0, ,992.4,13,34.6,-0.2,-0.1,-1.8,25,991.624,13.9306,35.633,-0.505196,-0.304341,-1.6741,
2026_06_10_18_15_50.853,3.863,30.1,0,0.758,0,0,0,0, ,0,0,0,0,0, ,991.8,14.4,36.3,0,0.2,-1.9,25,991.653,13.9165,35.6219,-0.480504,-0.282748,-1.68482,
2026_06_10_18_15_50.870,3.863,30.1,0,0.76,0,0,0,0, ,0,0,0,0,0, ,992.1,12.9,40.5,1.1,0.1,-1.8,25,991.671,13.9003,35.7912,-0.417708,-0.256377,-1.69489,
2026_06_10_18_15_50.888,3.863,30.2,0,0.758,0,0,0,0, ,0,0,0,0,0, ,991.3,14.8,41,2.1,-0.6,-1.5,25,991.673,13.8972,36.0934,-0.294754,-0.255989,-1.69215,
2026_06_10_18_15_50.908,3.863,30.2,0,0.759,0,0,0,0, ,0,0,0,0,0, ,991.5,16.7,36.2,1.7,-0.9,-1.2,25,991.656,14.0101,36.2461,-0.161011,-0.286093,-1.6713,
2026_06_10_18_15_50.928,3.863,30.2,0,0.758,0,0,0,0, ,0,0,0,0,0, ,990.8,17.4,35.4,0.1,-0.4,-1.4,25,991.625,14.1953,36.2189,-0.0963557,-0.308268,-1.64868,
2026_06_10_18_15_50.948,3.863,30.2,0,0.758,0,0,0,0, ,0,0,0,0,0, ,991.2,14.7,36.7,-0.6,-0.1,-1.6,25,991.587,14.3084,36.2086,-0.105718,-0.304717,-1.63962,
2026_06_10_18_15_50.967,3.863,30.1,0,0.758,0,0,0,0, ,0,0,0,0,0, ,990.7,14.8,37.2,-0.6,-0.2,-1.7,25,991.548,14.3353,36.2538,-0.135839,-0.295289,-1.64025,
2026_06_10_18_15_50.987,3.863,30,0,0.759,0,0,0,0, ,0,0,0,0,0, ,990.8,14.7,37.2,-0.7,-0.6,-1.6,25,991.5,14.3606,36.3115,-0.16717,-0.30167,-1.64084,
2026_06_10_18_15_51.007,3.863,30.2,0,0.757,0,0,0,0, ,0,0,0,0,0, ,991.9,13.6,35.6,-0.6,-0.5,-1.5,25,991.491,14.3477,36.3169,-0.196593,-0.316803,-1.63531,
2026_06_10_18_15_51.027,3.863,30.1,0,0.758,0,0,0,0, ,0,0,0,0,0, ,990.4,13.4,35.2,-0.6,-0.4,-1.4,25,991.47,14.2961,36.261,-0.221175,-0.324919,-1.62401,
2026_06_10_18_15_51.050,3.863,30.1,0,0.758,0,0,0,0, ,0,0,0,0,0, ,990.4,14.8,38.4,-0.6,-0.5,-1.5,25,991.405,14.2841,36.2938,-0.24426,-0.332542,-1.61341,
2026_06_10_18_15_51.066,3.863,30.1,0,0.759,0,0,0,0, ,0,0,0,0,0, ,991.8,13.9,36,-0.6,-0.5,-1.6,25,991.386,14.2881,36.3491,-0.265938,-0.342746,-1.60955,
2026_06_10_18_15_51.086,3.863,30.1,0,0.758,0,0,0,0, ,0,0,0,0,0, ,991.5,14.1,34.9,-0.6,-0.4,-1.5,25,991.402,14.2706,36.2943,-0.286295,-0.349282,-1.60592,
2026_06_10_18_15_51.106,3.863,30.1,0,0.758,0,0,0,0, ,0,0,0,0,0, ,992.3,14.4,34.6,-0.5,-0.3,-1.6,25,991.433,14.2693,36.2002,-0.302364,-0.349326,-1.60251,
2026_06_10_18_15_51.125,3.863,30.1,0,0.759,0,0,0,0, ,0,0,0,0,0, ,991.6,13.9,35.7,-0.5,-0.1,-1.8,25,991.464,14.262,36.1362,-0.314408,-0.340226,-1.60845,
2026_06_10_18_15_51.145,3.863,30,0,0.758,0,0,0,0, ,0,0,0,0,0, ,992.5,16.2,38.8,-0.6,-0.2,-1.7,25,991.5,14.3101,36.204,-0.328764,-0.328634,-1.61708,
2026_06_10_18_15_51.165,3.863,30.1,0,0.757,0,0,0,0, ,0,0,0,0,0, ,990.7,15.3,36.9,-0.5,-0.3,-1.7,25,991.506,14.3978,36.3043,-0.342246,-0.323842,-1.62213,
2026_06_10_18_15_51.185,3.863,30.1,0,0.759,0,0,0,0, ,0,0,0,0,0, ,990.9,14.6,36.8,-0.6,-0.4,-1.6,25,991.463,14.4315,36.3376,-0.354906,-0.325436,-1.62383,
2026_06_10_18_15_51.205,3.863,30.2,0,0.759,0,0,0,0, ,0,0,0,0,0, ,991.6,14.4,37.1,-0.6,-0.5,-1.5,25,991.45,14.4356,36.3749,-0.369841,-0.333027,-1.61933,
2026_06_10_18_15_51.224,3.863,30,0,0.759,0,0,0,0, ,0,0,0,0,0, ,992.1,12.9,33.8,-0.6,-0.7,-1.4,25,991.474,14.3878,36.3186,-0.383867,-0.349296,-1.60901,
2026_06_10_18_15_51.250,3.863,30.1,0,0.759,0,0,0,0, ,0,0,0,0,0, ,991.9,13.4,33.6,-0.6,-0.4,-1.6,25,991.506,14.3123,36.159,-0.397037,-0.361526,-1.60237,
2026_06_10_18_15_51.268,3.863,30.2,0,0.758,0,0,0,0, ,0,0,0,0,0, ,991,14.7,36.2,-0.6,-0.2,-1.7,25,991.503,14.2963,36.0823,-0.409405,-0.357777,-1.60527,
2026_06_10_18_15_51.284,3.863,29.9,0,0.758,0,0,0,0, ,0,0,0,0,0, ,992.4,15.2,38.3,-0.6,-0.3,-1.8,25,991.515,14.3362,36.1534,-0.42102,-0.351209,-1.61409,
2026_06_10_18_15_51.304,3.863,30,0,0.76,0,0,0,0, ,0,0,0,0,0, ,991.5,13.9,34.4,-0.6,-0.3,-1.6,25,991.541,14.3492,36.1654,-0.431926,-0.348089,-1.61933,
2026_06_10_18_15_51.324,3.863,30,0,0.759,0,0,0,0, ,0,0,0,0,0, ,991.3,14.5,34.3,-0.6,-0.3,-1.7,25,991.533,14.3401,36.0548,-0.442168,-0.345158,-1.62119,
2026_06_10_18_15_51.343,3.863,30,0,0.758,0,0,0,0, ,0,0,0,0,0, ,990.4,13.6,36,-0.6,0.1,-1.8,25,991.491,14.3224,35.9996,-0.451786,-0.330219,-1.62904,
2026_06_10_18_15_51.363,3.863,30,0,0.757,0,0,0,0, ,0,0,0,0,0, ,991.9,14.8,37.1,-0.6,0,-1.8,25,991.47,14.315,36.0332,-0.460818,-0.307049,-1.63946,
2026_06_10_18_15_51.382,3.863,30,0,0.76,0,0,0,0, ,0,0,0,0,0, ,990.4,14.2,37.2,-0.6,-0.3,-1.7,25,991.451,14.3263,36.1012,-0.469299,-0.297479,-1.6462,
2026_06_10_18_15_51.403,3.863,30,0,0.758,0,0,0,0, ,0,0,0,0,0, ,991.3,12.9,37.7,-0.5,-0.4,-1.8,25,991.414,14.2789,36.1834,-0.474217,-0.30068,-1.65252,
2026_06_10_18_15_51.423,3.863,30,0,0.758,0,0,0,0, ,0,0,0,0,0, ,991,19.4,38.6,-0.4,-0.5,-1.8,25,991.398,14.393,36.3033,-0.472741,-0.309779,-1.66151,
2026_06_10_18_15_51.442,3.863,30,0,0.759,0,0,0,0, ,0,0,0,0,0, ,990.1,17.9,35.6,-0.5,-0.2,-1.1,25,991.346,14.6524,36.3518,-0.471355,-0.31223,-1.64862,
2026_06_10_18_15_51.466,3.863,30,0,0.759,0,0,0,0, ,0,0,0,0,0, ,990.1,14.4,35.8,-0.6,-0.6,-1.2,25,991.271,14.7436,36.3121,-0.476148,-0.317578,-1.61824,
2026_06_10_18_15_51.482,3.863,30.1,0,0.76,0,0,0,0, ,0,0,0,0,0, ,990.1,13.9,38.6,-0.6,-0.8,-1.4,25,991.199,14.7075,36.3662,-0.483695,-0.340882,-1.59884,
2026_06_10_18_15_51.501,3.863,30,0,0.759,0,0,0,0, ,0,0,0,0,0, ,991.5,13.5,36.1,-0.5,-0.8,-1.3,25,991.175,14.6461,36.4262,-0.487736,-0.36886,-1.58368,
2026_06_10_18_15_51.522,3.863,30,0,0.759,0,0,0,0, ,0,0,0,0,0, ,992.4,13,30.7,-0.5,-0.5,-1.4,25,991.222,14.561,36.2417,-0.488483,-0.385992,-1.56944,
2026_06_10_18_15_51.542,3.863,30,0,0.757,0,0,0,0, ,0,0,0,0,0, ,990.7,14.7,36,-0.6,-0.2,-1.5,25,991.242,14.5177,36.0655,-0.492232,-0.383798,-1.56216,
2026_06_10_18_15_51.561,3.863,30,0,0.757,0,0,0,0, ,0,0,0,0,0, ,991,12.5,35.7,-0.5,-0.2,-1.8,25,991.218,14.4618,36.0524,-0.495752,-0.372598,-1.56751,
2026_06_10_18_15_51.581,3.863,30,0,0.758,0,0,0,0, ,0,0,0,0,0, ,991.8,13.4,36.2,-0.6,-0.2,-2,25,991.229,14.3696,36.0462,-0.499058,-0.36208,-1.58777,
2026_06_10_18_15_51.601,3.863,29.9,0,0.76,0,0,0,0, ,0,0,0,0,0, ,990.7,14,36,-0.5,-0.5,-1.7,25,991.231,14.3288,36.0494,-0.502162,-0.361344,-1.60375,
2026_06_10_18_15_51.621,3.863,29.9,0,0.758,0,0,0,0, ,0,0,0,0,0, ,991.6,12.4,37.3,-0.5,-0.4,-2.2,25,991.226,14.26,36.086,-0.50203,-0.366747,-1.62485,
2026_06_10_18_15_51.640,3.863,30,0,0.759,0,0,0,0, ,0,0,0,0,0, ,990.8,20.6,35.5,-0.3,-0.5,-1.8,25,991.224,14.3965,36.1052,-0.495813,-0.37182,-1.64771,
2026_06_10_18_15_51.665,3.863,30,0,0.758,0,0,0,0, ,0,0,0,0,0, ,990.8,17,35.5,-0.5,-0.5,-1.2,25,991.198,14.6649,36.0683,-0.489974,-0.379631,-1.63871,
2026_06_10_18_15_51.680,3.863,29.9,0,0.759,0,0,0,0, ,0,0,0,0,0, ,992.6,11.9,32.7,-0.6,0,-1.6,25,991.229,14.6518,35.9483,-0.493632,-0.371732,-1.62417,
2026_06_10_18_15_51.701,3.863,30,0,0.757,0,0,0,0, ,0,0,0,0,0, ,992,14.1,36,-0.7,0.1,-1.7,25,991.294,14.5511,35.8509,-0.503161,-0.346032,-1.62574,
2026_06_10_18_15_51.720,3.863,30,0,0.758,0,0,0,0, ,0,0,0,0,0, ,992.6,10.4,36.4,-0.6,0,-1.6,25,991.355,14.4109,35.8722,-0.512109,-0.321899,-1.62722,
2026_06_10_18_15_51.740,3.863,29.9,0,0.758,0,0,0,0, ,0,0,0,0,0, ,991.4,11.7,41.3,-0.4,-0.3,-2,25,991.395,14.2061,36.0537,-0.511371,-0.311424,-1.63775,
2026_06_10_18_15_51.760,3.863,29.9,0,0.759,0,0,0,0, ,0,0,0,0,0, ,989.9,16.7,37.4,-0.2,-1.2,-2.5,25,991.349,14.2057,36.2545,-0.49849,-0.33815,-1.67506,
2026_06_10_18_15_51.780,3.863,30,0,0.757,0,0,0,0, ,0,0,0,0,0, ,991.6,21.6,27.8,0.4,-0.7,-1.8,25,991.313,14.507,36.0318,-0.46202,-0.375434,-1.704,
2026_06_10_18_15_51.800,3.863,30,0,0.759,0,0,0,0, ,0,0,0,0,0, ,991.8,26,29.6,0.1,0.6,-0.3,25,991.336,15.0733,35.5851,-0.418631,-0.355603,-1.66415,
2026_06_10_18_15_51.819,3.863,30,0,0.757,0,0,0,0, ,0,0,0,0,0, ,991.2,5.9,42.2,-1,0.5,-1.3,25,991.346,15.1267,35.6043,-0.420543,-0.300418,-1.61149,
2026_06_10_18_15_51.839,3.863,29.9,0,0.758,0,0,0,0, ,0,0,0,0,0, ,991,15,42.6,-0.7,-0.3,-1.6,25,991.331,14.8417,36.0184,-0.446713,-0.276018,-1.60165,
2026_06_10_18_15_51.859,3.863,29.9,0,0.759,0,0,0,0, ,0,0,0,0,0, ,991.2,13.6,38.5,-0.5,-1.5,-1.3,25,991.317,14.8087,36.2945,-0.456054,-0.314041,-1.59241,
2026_06_10_18_15_51.879,3.863,30,0,0.758,0,0,0,0, ,0,0,0,0,0, ,992.5,13.3,30.6,-0.6,-1,-1.4,25,991.35,14.7259,36.1882,-0.461779,-0.371076,-1.57763,
2026_06_10_18_15_51.899,3.863,29.9,0,0.758,0,0,0,0, ,0,0,0,0,0, ,991.9,14.1,34.5,-0.6,-0.5,-1.4,25,991.402,14.6634,35.9665,-0.470201,-0.394167,-1.56681,
2026_06_10_18_15_51.918,3.863,30,0,0.758,0,0,0,0, ,0,0,0,0,0, ,991.4,13.7,35.2,-0.6,0,-1.7,25,991.417,14.6169,35.8985,-0.478111,-0.385382,-1.56578,
2026_06_10_18_15_51.938,3.863,29.9,0,0.76,0,0,0,0, ,0,0,0,0,0, ,990.8,15.6,40,-0.5,-0.3,-1.7,25,991.397,14.6189,36.0022,-0.482492,-0.371038,-1.57396,
2026_06_10_18_15_51.958,3.863,29.9,0,0.758,0,0,0,0, ,0,0,0,0,0, ,991.9,15.3,37.7,-0.7,-0.7,-1.4,25,991.394,14.6696,36.1757,-0.489652,-0.378897,-1.5725,
2026_06_10_18_15_51.978,3.863,30,0,0.759,0,0,0,0, ,0,0,0,0,0, ,991.4,12.8,36.2,-0.6,-0.6,-1.5,25,991.41,14.6318,36.2229,-0.499424,-0.395417,-1.56504,
2026_06_10_18_15_51.997,3.863,29.9,0,0.759,0,0,0,0, ,0,0,0,0,0, ,990.9,13.9,34.4,-0.6,-0.2,-1.7,25,991.394,14.5537,36.1666,-0.505552,-0.395697,-1.56717,
2026_06_10_18_15_52.017,3.863,29.9,0,0.759,0,0,0,0, ,0,0,0,0,0, ,991.5,12.2,35.6,-0.6,0,-2,25,991.382,14.4621,36.0956,-0.511308,-0.377678,-1.5844,
2026_06_10_18_15_52.037,3.863,29.9,0,0.758,0,0,0,0, ,0,0,0,0,0, ,991.5,18,36.4,-0.6,0.3,-2,25,991.39,14.5009,36.0897,-0.516713,-0.345522,-1.60973,
2026_06_10_18_15_52.058,3.863,30,0,0.759,0,0,0,0, ,0,0,0,0,0, ,989.9,18.1,42.2,-0.6,-0.3,-1.2,25,991.348,14.7172,36.2854,-0.521788,-0.324467,-1.60914,
2026_06_10_18_15_52.076,3.863,30,0,0.758,0,0,0,0, ,0,0,0,0,0, ,990.8,13.4,38,-0.7,-1.2,-1.1,25,991.287,14.7801,36.5178,-0.529601,-0.350398,-1.58116,
2026_06_10_18_15_52.096,3.863,29.9,0,0.759,0,0,0,0, ,0,0,0,0,0, ,992,9.7,32.8,-0.6,-0.7,-1.6,25,991.294,14.5833,36.4497,-0.536938,-0.386936,-1.56707,
2026_06_10_18_15_52.117,3.863,29.9,0,0.759,0,0,0,0, ,0,0,0,0,0, ,991.8,14.6,35,-0.5,-0.3,-1.7,25,991.331,14.435,36.2943,-0.537734,-0.393826,-1.57212,
2026_06_10_18_15_52.136,3.863,30,0,0.757,0,0,0,0, ,0,0,0,0,0, ,991.5,12.5,35.4,-0.6,0,-1.9,25,991.35,14.3811,36.2276,-0.538481,-0.378968,-1.58601,
2026_06_10_18_15_52.155,3.863,29.9,0,0.759,0,0,0,0, ,0,0,0,0,0, ,990.6,14.6,37.2,-0.6,0,-1.8,25,991.332,14.3304,36.232,-0.54223,-0.355874,-1.6021,
2026_06_10_18_15_52.176,3.863,29.9,0,0.759,0,0,0,0, ,0,0,0,0,0, ,990.9,13.6,39.7,-0.5,-0.5,-1.7,25,991.296,14.3164,36.3672,-0.542703,-0.349423,-1.61111,
2026_06_10_18_15_52.195,3.863,29.8,0,0.759,0,0,0,0, ,0,0,0,0,0, ,991.3,13.9,35.5,-0.5,-0.7,-2,25,991.284,14.2819,36.4423,-0.540101,-0.364692,-1.62567,
2026_06_10_18_15_52.216,3.863,29.9,0,0.758,0,0,0,0, ,0,0,0,0,0, ,992.4,17.2,33.5,-0.5,-0.3,-1.7,25,991.319,14.3592,36.324,-0.537657,-0.372938,-1.63934,
2026_06_10_18_15_52.235,3.863,29.8,0,0.759,0,0,0,0, ,0,0,0,0,0, ,990.3,17.7,35,-0.6,-0.2,-1.3,25,991.321,14.5475,36.1976,-0.53841,-0.365446,-1.63085,
2026_06_10_18_15_52.255,3.863,29.9,0,0.759,0,0,0,0, ,0,0,0,0,0, ,991.3,10.7,39.7,-0.7,-0.3,-1.1,25,991.289,14.5263,36.2678,-0.54521,-0.358411,-1.60459,
2026_06_10_18_15_52.274,3.863,29.9,0,0.758,0,0,0,0, ,0,0,0,0,0, ,991.9,15.8,40.5,-0.6,-0.7,-1.5,25,991.308,14.4486,36.5013,-0.551595,-0.367039,-1.58603,
2026_06_10_18_15_52.295,3.863,29.8,0,0.759,0,0,0,0, ,0,0,0,0,0, ,991.8,13,34.4,-0.5,-0.8,-1.5,25,991.341,14.4456,36.5591,-0.551498,-0.390376,-1.58079,
2026_06_10_18_15_52.314,3.863,29.9,0,0.759,0,0,0,0, ,0,0,0,0,0, ,992.5,16.8,36.4,-0.5,-0.2,-1.6,25,991.39,14.4733,36.4885,-0.54836,-0.397056,-1.57891,
2026_06_10_18_15_52.341,3.863,29.8,0,0.758,0,0,0,0, ,0,0,0,0,0, ,991.3,14.1,37.3,-0.5,-0.4,-1.5,25,991.421,14.5328,36.5105,-0.545413,-0.391142,-1.57715,
2026_06_10_18_15_52.354,3.863,29.8,0,0.759,0,0,0,0, ,0,0,0,0,0, ,990.7,15.8,36.8,-0.5,-0.5,-1.5,25,991.396,14.5582,36.5434,-0.542646,-0.394728,-1.57245,
2026_06_10_18_15_52.374,3.863,29.8,0,0.758,0,0,0,0, ,0,0,0,0,0, ,991.9,14.2,36,-0.5,-0.5,-1.5,25,991.39,14.5852,36.5347,-0.540047,-0.401143,-1.56803,
2026_06_10_18_15_52.393,3.863,29.9,0,0.76,0,0,0,0, ,0,0,0,0,0, ,991.3,15.2,34.7,-0.6,-0.3,-1.6,25,991.403,14.5922,36.4625,-0.540653,-0.401074,-1.56694,
2026_06_10_18_15_52.413,3.863,29.9,0,0.759,0,0,0,0, ,0,0,0,0,0, ,991.6,14,37.7,-0.6,-0.4,-1.5,25,991.406,14.5926,36.4465,-0.54427,-0.397961,-1.5659,
2026_06_10_18_15_52.433,3.863,29.8,0,0.759,0,0,0,0, ,0,0,0,0,0, ,991.8,13.6,36.1,-0.6,-0.4,-1.6,25,991.423,14.5443,36.4741,-0.547666,-0.398086,-1.56493,
2026_06_10_18_15_52.453,3.863,29.9,0,0.759,0,0,0,0, ,0,0,0,0,0, ,991.3,13.7,36.6,-0.5,-0.3,-1.8,25,991.431,14.4898,36.4666,-0.547808,-0.395155,-1.57317,
2026_06_10_18_15_52.473,3.863,29.9,0,0.758,0,0,0,0, ,0,0,0,0,0, ,992.5,13.5,34.5,-0.5,-0.4,-1.7,25,991.46,14.4356,36.4107,-0.544895,-0.392404,-1.58394,
2026_06_10_18_15_52.492,3.863,29.8,0,0.759,0,0,0,0, ,0,0,0,0,0, ,990.4,13.5,35.6,-0.6,-0.2,-2.1,25,991.459,14.3786,36.3278,-0.545206,-0.386773,-1.6032,
2026_06_10_18_15_52.513,3.863,29.8,0,0.759,0,0,0,0, ,0,0,0,0,0, ,991.3,19.2,33.5,-0.4,0.1,-1.5,25,991.422,14.4987,36.2195,-0.542451,-0.366251,-1.61519,
2026_06_10_18_15_52.532,3.863,29.8,0,0.759,0,0,0,0, ,0,0,0,0,0, ,990.7,13.7,37.9,-0.6,-0.5,-1.2,25,991.396,14.6176,36.1878,-0.539864,-0.35612,-1.59903,
2026_06_10_18_15_52.552,3.863,29.8,0,0.759,0,0,0,0, ,0,0,0,0,0, ,991.8,12.6,36.2,-0.6,-0.6,-1.6,25,991.387,14.5282,36.2403,-0.543529,-0.367934,-1.5869,
2026_06_10_18_15_52.572,3.863,29.8,0,0.759,0,0,0,0, ,0,0,0,0,0, ,992.1,11.2,36.1,-0.5,-0.9,-2,25,991.422,14.368,36.2348,-0.543923,-0.391217,-1.59989,
2026_06_10_18_15_52.591,3.863,29.8,0,0.76,0,0,0,0, ,0,0,0,0,0, ,992.5,13.6,36.1,-0.5,-0.7,-2.3,25,991.475,14.2481,36.2266,-0.541247,-0.416127,-1.63341,
2026_06_10_18_15_52.611,3.863,29.9,0,0.759,0,0,0,0, ,0,0,0,0,0, ,992,18.9,34.7,-0.5,-0.4,-2,25,991.522,14.3701,36.1762,-0.538733,-0.424285,-1.66489,
2026_06_10_18_15_52.631,3.863,29.9,0,0.758,0,0,0,0, ,0,0,0,0,0, ,993,14.5,38.6,-0.5,-0.5,-1.7,25,991.582,14.5121,36.2051,-0.536373,-0.425852,-1.67617,
2026_06_10_18_15_52.651,3.863,29.8,0,0.759,0,0,0,0, ,0,0,0,0,0, ,990.6,13.6,36.2,-0.4,-0.8,-1.8,25,991.595,14.4839,36.2779,-0.53111,-0.439511,-1.68067,
2026_06_10_18_15_52.671,3.863,29.8,0,0.76,0,0,0,0, ,0,0,0,0,0, ,990.1,18.7,31.3,-0.5,-0.4,-1.4,25,991.519,14.5855,36.1239,-0.526167,-0.449291,-1.67575,
2026_06_10_18_15_52.690,3.863,29.8,0,0.759,0,0,0,0, ,0,0,0,0,0, ,990.9,18.3,32.3,-0.7,0,-0.9,25,991.457,14.824,35.8604,-0.530666,-0.434099,-1.64372,
2026_06_10_18_15_52.710,3.863,29.8,0,0.759,0,0,0,0, ,0,0,0,0,0, ,991.2,15.6,36.3,-0.7,0.2,-0.8,25,991.432,14.9535,35.7653,-0.540985,-0.401553,-1.59535,
2026_06_10_18_15_52.731,3.863,29.9,0,0.76,0,0,0,0, ,0,0,0,0,0, ,990.2,13,38.6,-0.6,-0.6,-1.5,25,991.388,14.9137,35.868,-0.547628,-0.389271,-1.56821,
2026_06_10_18_15_52.751,3.863,29.8,0,0.759,0,0,0,0, ,0,0,0,0,0, ,991.2,11.2,39.4,-0.5,-0.9,-1.7,25,991.346,14.7423,36.0588,-0.547773,-0.411253,-1.57015,
2026_06_10_18_15_52.770,3.863,29.8,0,0.759,0,0,0,0, ,0,0,0,0,0, ,991.2,16.8,33,-0.5,-0.9,-1.8,25,991.337,14.697,36.0674,-0.544861,-0.441036,-1.58111,
2026_06_10_18_15_52.789,3.863,29.8,0,0.758,0,0,0,0, ,0,0,0,0,0, ,992,14.1,32.7,-0.6,-0.6,-1.6,25,991.353,14.7429,35.8714,-0.545175,-0.459863,-1.58835,
2026_06_10_18_15_52.810,3.863,29.8,0,0.759,0,0,0,0, ,0,0,0,0,0, ,992,12.3,32.7,-0.6,-0.1,-1.7,25,991.392,14.6489,35.6781,-0.548515,-0.453168,-1.59211,
2026_06_10_18_15_52.830,3.863,29.9,0,0.759,0,0,0,0, ,0,0,0,0,0, ,992,11.9,38.4,-0.6,0,-1.9,25,991.429,14.4936,35.6703,-0.551653,-0.4286,-1.60478,
2026_06_10_18_15_52.850,3.863,29.8,0,0.759,0,0,0,0, ,0,0,0,0,0, ,991.3,11.1,39,-0.6,-0.5,-2.4,25,991.443,14.3111,35.8549,-0.554599,-0.417717,-1.638,
2026_06_10_18_15_52.870,3.863,29.7,0,0.759,0,0,0,0, ,0,0,0,0,0, ,991.8,12.3,39,-0.5,-0.9,-2.6,25,991.449,14.152,36.0466,-0.554319,-0.434918,-1.69053,
2026_06_10_18_15_52.889,3.863,29.8,0,0.758,0,0,0,0, ,0,0,0,0,0, ,990.7,15.8,34.7,-0.4,-0.9,-2.7,25,991.437,14.1458,36.0955,-0.547962,-0.463259,-1.749,
2026_06_10_18_15_52.909,3.863,29.7,0,0.759,0,0,0,0, ,0,0,0,0,0, ,992,19,30,-0.5,-0.5,-2.6,25,991.432,14.3441,35.8673,-0.541992,-0.477686,-1.8039,
2026_06_10_18_15_52.929,3.863,29.7,0,0.76,0,0,0,0, ,0,0,0,0,0, ,991.5,17.2,33.3,-0.6,0,-1.8,25,991.451,14.573,35.6103,-0.54248,-0.463811,-1.82804,
2026_06_10_18_15_52.948,3.863,29.8,0,0.759,0,0,0,0, ,0,0,0,0,0, ,991.9,16.3,37.2,-0.7,0,-1.8,25,991.467,14.7057,35.5883,-0.549032,-0.435548,-1.82633,
2026_06_10_18_15_52.968,3.863,29.8,0,0.758,0,0,0,0, ,0,0,0,0,0, ,992.5,16.2,38.5,-0.6,-0.5,-1.3,25,991.511,14.7998,35.7262,-0.555185,-0.424241,-1.80949,
2026_06_10_18_15_52.994,3.863,29.8,0,0.759,0,0,0,0, ,0,0,0,0,0, ,992.1,10.3,35.8,-0.6,-0.7,-1.7,25,991.559,14.7053,35.8129,-0.557916,-0.434951,-1.79063,
2026_06_10_18_15_53.015,3.863,29.8,0,0.759,0,0,0,0, ,0,0,0,0,0, ,990.4,18.3,35.1,-0.6,-0.7,-2,25,991.54,14.6806,35.7908,-0.56048,-0.451103,-1.79425,
2026_06_10_18_15_53.028,3.863,29.8,0,0.759,0,0,0,0, ,0,0,0,0,0, ,993.4,20.2,32.7,-0.6,-0.5,-1.1,25,991.562,14.9591,35.6756,-0.562889,-0.460176,-1.77937,
2026_06_10_18_15_53.049,3.863,29.8,0,0.759,0,0,0,0, ,0,0,0,0,0, ,991.9,12.4,33.8,-0.7,0,-0.8,25,991.629,15.0408,35.5278,-0.568197,-0.447368,-1.72883,
2026_06_10_18_15_53.068,3.863,29.7,0,0.758,0,0,0,0, ,0,0,0,0,0, ,992.1,10,38.8,-0.7,0,-1.6,25,991.651,14.8067,35.5748,-0.576229,-0.420107,-1.6966,
2026_06_10_18_15_53.087,3.863,29.8,0,0.758,0,0,0,0, ,0,0,0,0,0, ,990.6,17.5,40.5,-0.5,-0.7,-1.8,25,991.633,14.7423,35.8232,-0.577677,-0.415835,-1.69681,
2026_06_10_18_15_53.106,3.863,29.8,0,0.758,0,0,0,0, ,0,0,0,0,0, ,991.4,18.6,33.8,-0.5,-0.8,-1.3,25,991.594,14.9439,35.904,-0.572944,-0.436198,-1.68786,
2026_06_10_18_15_53.126,3.863,29.8,0,0.759,0,0,0,0, ,0,0,0,0,0, ,991.4,17.3,29.5,-0.6,0,-0.8,25,991.582,15.1271,35.6448,-0.571546,-0.433992,-1.64899,
2026_06_10_18_15_53.147,3.863,29.8,0,0.759,0,0,0,0, ,0,0,0,0,0, ,991.6,13.5,38.3,-0.6,0.2,-0.6,25,991.577,15.1437,35.5385,-0.57328,-0.401452,-1.59116,
2026_06_10_18_15_53.167,3.863,29.8,0,0.758,0,0,0,0, ,0,0,0,0,0, ,992,9.5,40.2,-0.7,0,-0.9,25,991.591,14.9217,35.7646,-0.577955,-0.370895,-1.53991,
2026_06_10_18_15_53.186,3.863,29.8,0,0.759,0,0,0,0, ,0,0,0,0,0, ,991.2,13.7,37.2,-0.6,-0.9,-1.5,25,991.592,14.7193,35.9435,-0.582345,-0.375715,-1.51919,
2026_06_10_18_15_53.206,3.863,29.8,0,0.759,0,0,0,0, ,0,0,0,0,0, ,991.3,13,32.8,-0.6,-0.8,-1.7,25,991.571,14.6358,35.886,-0.583421,-0.404617,-1.52412,
2026_06_10_18_15_53.230,3.863,29.8,0,0.758,0,0,0,0, ,0,0,0,0,0, ,991.5,17,30.8,-0.6,-0.1,-1.5,25,991.56,14.658,35.637,-0.584431,-0.407382,-1.52874,
2026_06_10_18_15_53.250,3.863,29.7,0,0.759,0,0,0,0, ,0,0,0,0,0, ,991.2,13.3,36.3,-0.7,0.1,-1.2,25,991.548,14.688,35.5099,-0.588427,-0.382558,-1.51785,
2026_06_10_18_15_53.266,3.863,29.8,0,0.759,0,0,0,0, ,0,0,0,0,0, ,992,13.9,41.3,-0.7,-0.5,-1.7,25,991.551,14.6217,35.7103,-0.595226,-0.371433,-1.51371,
2026_06_10_18_15_53.285,3.863,29.8,0,0.758,0,0,0,0, ,0,0,0,0,0, ,991.3,14.5,35.8,-0.6,-1,-1.9,25,991.557,14.596,35.8834,-0.598564,-0.394502,-1.53116,
2026_06_10_18_15_53.304,3.863,29.7,0,0.758,0,0,0,0, ,0,0,0,0,0, ,992,16.6,31.9,-0.6,-0.5,-1.5,25,991.562,14.6541,35.7595,-0.598651,-0.416165,-1.54145,
2026_06_10_18_15_53.325,3.863,29.7,0,0.76,0,0,0,0, ,0,0,0,0,0, ,990.9,14.2,34.9,-0.6,0,-1.5,25,991.556,14.6996,35.6157,-0.598733,-0.406039,-1.53892,
2026_06_10_18_15_53.345,3.863,29.7,0,0.758,0,0,0,0, ,0,0,0,0,0, ,991.2,12.9,36.7,-0.7,-0.2,-1.8,25,991.525,14.6295,35.6269,-0.601857,-0.38739,-1.54569,
2026_06_10_18_15_53.364,3.863,29.8,0,0.758,0,0,0,0, ,0,0,0,0,0, ,991,14.5,37.8,-0.6,-0.4,-1.9,25,991.499,14.5729,35.7258,-0.604791,-0.382065,-1.56424,
2026_06_10_18_15_53.385,3.863,29.7,0,0.759,0,0,0,0, ,0,0,0,0,0, ,991.4,16.1,34.5,-0.6,-0.4,-1.6,25,991.481,14.6172,35.7517,-0.604499,-0.383158,-1.57556,
2026_06_10_18_15_53.404,3.863,29.7,0,0.757,0,0,0,0, ,0,0,0,0,0, ,991.9,11.1,33.6,-0.6,-0.2,-1.6,25,991.491,14.5552,35.648,-0.604225,-0.37809,-1.57704,
2026_06_10_18_15_53.424,3.863,29.8,0,0.757,0,0,0,0, ,0,0,0,0,0, ,990.8,14.6,37.3,-0.7,-0.2,-2.1,25,991.482,14.4513,35.6359,-0.607014,-0.367238,-1.59368,
2026_06_10_18_15_53.444,3.863,29.7,0,0.758,0,0,0,0, ,0,0,0,0,0, ,991,15,36.6,-0.6,-0.5,-2.1,25,991.447,14.4725,35.716,-0.609634,-0.366187,-1.62453,
2026_06_10_18_15_53.468,3.863,29.7,0,0.759,0,0,0,0, ,0,0,0,0,0, ,991.4,19,35,-0.5,-0.2,-1.8,25,991.432,14.6266,35.7211,-0.606,-0.365201,-1.64437,
2026_06_10_18_15_53.489,3.863,29.7,0,0.757,0,0,0,0, ,0,0,0,0,0, ,990.3,12.8,36.6,-0.6,-0.3,-1.3,25,991.396,14.7042,35.7259,-0.602587,-0.358181,-1.63861,
2026_06_10_18_15_53.504,3.863,29.7,0,0.758,0,0,0,0, ,0,0,0,0,0, ,991,13.9,35,-0.6,-0.4,-2.2,25,991.351,14.6216,35.7304,-0.60243,-0.357682,-1.6454,
2026_06_10_18_15_53.524,3.863,29.7,0,0.759,0,0,0,0, ,0,0,0,0,0, ,992.5,19.2,35,-0.6,-0.5,-1.7,25,991.375,14.7392,35.6859,-0.602282,-0.363308,-1.66396,
2026_06_10_18_15_53.543,3.863,29.7,0,0.759,0,0,0,0, ,0,0,0,0,0, ,992.9,12.5,32.4,-0.7,-0.2,-1.8,25,991.456,14.8068,35.5649,-0.605189,-0.362497,-1.66921,
2026_06_10_18_15_53.565,3.863,29.7,0,0.759,0,0,0,0, ,0,0,0,0,0, ,990.9,16.4,36.4,-0.7,0,-2.1,25,991.483,14.7851,35.4939,-0.610967,-0.346501,-1.68632,
2026_06_10_18_15_53.583,3.863,29.7,0,0.758,0,0,0,0, ,0,0,0,0,0, ,991.3,14.6,40.2,-0.6,-0.4,-1.9,25,991.46,14.8287,35.6649,-0.613346,-0.337574,-1.70543,
2026_06_10_18_15_53.603,3.863,29.7,0,0.757,0,0,0,0, ,0,0,0,0,0, ,992.1,16.7,35,-0.5,-0.6,-2.1,25,991.474,14.8787,35.7828,-0.609485,-0.347472,-1.72338,
2026_06_10_18_15_53.622,3.863,29.6,0,0.757,0,0,0,0, ,0,0,0,0,0, ,992.5,16.8,34.3,-0.6,-0.4,-1.8,25,991.525,14.9927,35.7138,-0.605861,-0.356766,-1.73719,
2026_06_10_18_15_53.644,3.863,29.7,0,0.759,0,0,0,0, ,0,0,0,0,0, ,991.4,17.2,36,-0.7,-0.1,-1.5,25,991.551,15.1151,35.6794,-0.60855,-0.35026,-1.73188,
2026_06_10_18_15_53.662,3.863,29.7,0,0.759,0,0,0,0, ,0,0,0,0,0, ,991.5,15.6,37.5,-0.7,-0.4,-1.1,25,991.544,15.1934,35.7447,-0.614123,-0.344151,-1.70556,
2026_06_10_18_15_53.682,3.863,29.6,0,0.759,0,0,0,0, ,0,0,0,0,0, ,991.2,19.6,34.6,-1.1,-0.4,-0.6,25,991.533,15.34,35.7633,-0.631544,-0.347554,-1.65343,
2026_06_10_18_15_53.702,3.863,29.7,0,0.757,0,0,0,0.001, ,0,0,0,0,0, ,992,17.3,35.5,-0.9,-0.5,-0.5,25,991.537,15.5295,35.7198,-0.653996,-0.353797,-1.58619,
2026_06_10_18_15_53.723,3.863,29.7,0,0.757,0,0,0,0, ,0,0,0,0,0, ,993.4,13.4,33.2,-0.9,-0.1,-0.9,25,991.608,15.5186,35.6363,-0.668987,-0.350519,-1.53218,
2026_06_10_18_15_53.742,3.863,29.7,0,0.758,0,0,0,0, ,0,0,0,0,0, ,991.9,12.3,36.4,-0.9,0,-1,25,991.671,15.356,35.5854,-0.683065,-0.332206,-1.49671,
2026_06_10_18_15_53.762,3.863,29.7,0,0.758,0,0,0,0, ,0,0,0,0,0, ,991.3,10.6,38,-0.9,-0.2,-1.5,25,991.667,15.118,35.6838,-0.696284,-0.318056,-1.48167,
2026_06_10_18_15_53.781,3.863,29.7,0,0.758,0,0,0,0, ,0,0,0,0,0, ,991.4,11.1,36.9,-0.6,-0.7,-2.1,25,991.647,14.8579,35.7914,-0.699557,-0.326096,-1.50107,
2026_06_10_18_15_53.802,3.863,29.6,0,0.759,0,0,0,0, ,0,0,0,0,0, ,991.9,15.8,33.5,-0.5,-0.6,-2.2,25,991.648,14.7721,35.7554,-0.690444,-0.345834,-1.54062,
2026_06_10_18_15_53.821,3.863,29.7,0,0.759,0,0,0,0.001, ,0,0,0,0,0, ,992.3,15,33.9,-0.5,-0.3,-2,25,991.675,14.8103,35.6301,-0.678839,-0.352182,-1.5747,
2026_06_10_18_15_53.842,3.863,29.7,0,0.759,0,0,0,0, ,0,0,0,0,0, ,991.4,14.8,37.3,-0.7,-0.2,-2,25,991.686,14.8158,35.6283,-0.674034,-0.345955,-1.60062,
2026_06_10_18_15_53.860,3.863,29.6,0,0.759,0,0,0,0, ,0,0,0,0,0, ,991.2,16.8,34.6,-0.6,-0.5,-1.7,25,991.662,14.8758,35.6479,-0.67257,-0.346201,-1.61582,
2026_06_10_18_15_53.881,3.863,29.7,0,0.758,0,0,0,0.001, ,0,0,0,0,0, ,993.1,15.2,36.8,-0.6,-0.5,-1.6,25,991.692,14.9443,35.6511,-0.668148,-0.355573,-1.6179,
2026_06_10_18_15_53.899,3.863,29.7,0,0.758,0,0,0,0, ,0,0,0,0,0, ,990.8,17,34.4,-0.6,-0.5,-1.4,25,991.708,15.0147,35.648,-0.663995,-0.364374,-1.61071,
2026_06_10_18_15_53.922,3.863,29.7,0,0.757,0,0,0,0, ,0,0,0,0,0, ,993.7,17.3,35.8,-0.6,-0.4,-1.2,25,991.741,15.1448,35.6146,-0.660095,-0.369592,-1.59178,
2026_06_10_18_15_53.940,3.863,29.7,0,0.758,0,0,0,0, ,0,0,0,0,0, ,991,14.2,34.3,-0.7,-0.3,-1,25,991.778,15.1817,35.5802,-0.65948,-0.368398,-1.56181,
2026_06_10_18_15_53.961,3.863,29.7,0,0.759,0,0,0,0, ,0,0,0,0,0, ,991.8,12.8,36,-0.6,-0.2,-1.6,25,991.755,15.0792,35.5539,-0.658902,-0.361183,-1.54586,
2026_06_10_18_15_53.979,3.863,29.6,0,0.758,0,0,0,0, ,0,0,0,0,0, ,992,15.9,37.1,-0.5,-0.3,-1.5,25,991.764,15.0348,35.6146,-0.652266,-0.354408,-1.54611,
2026_06_10_18_15_53.999,3.863,29.5,0,0.758,0,0,0,0.001, ,0,0,0,0,0, ,991.9,14.6,36.4,-0.5,-0.4,-1.6,25,991.775,15.0479,35.6838,-0.642987,-0.35414,-1.54635,
2026_06_10_18_15_54.019,3.863,29.6,0,0.757,0,0,0,0.002, ,0,0,0,0,0, ,991.3,14.8,36.2,-0.6,-0.6,-1.7,25,991.764,15.0267,35.7214,-0.637321,-0.363028,-1.55266,
2026_06_10_18_15_54.040,3.863,29.7,0,0.759,0,0,0,0.001, ,0,0,0,0,0, ,992.3,16.8,34.4,-0.6,-0.4,-1.5,25,991.767,15.0738,35.6957,-0.635047,-0.371375,-1.55555,
2026_06_10_18_15_54.058,3.863,29.5,0,0.76,0,0,0,0, ,0,0,0,0,0, ,992,15.6,34.6,-0.6,-0.1,-1.4,25,991.79,15.1425,35.6228,-0.632911,-0.363978,-1.54912,
2026_06_10_18_15_54.080,3.863,29.6,0,0.758,0,0,0,0.002, ,0,0,0,0,0, ,990.9,15,38.9,-0.6,-0.3,-1.3,25,991.769,15.1521,35.6915,-0.630906,-0.353986,-1.53698,
2026_06_10_18_15_54.098,3.863,29.6,0,0.758,0,0,0,0.001, ,0,0,0,0,0, ,991,11.9,34.6,-0.7,-0.5,-1.4,25,991.719,15.0483,35.756,-0.632069,-0.35679,-1.52559,
2026_06_10_18_15_54.119,3.863,29.7,0,0.758,0,0,0,0.001, ,0,0,0,0,0, ,991.3,14.2,36.3,-0.6,-0.3,-1.7,25,991.685,14.9266,35.7374,-0.633162,-0.359423,-1.52708,
2026_06_10_18_15_54.137,3.863,29.7,0,0.757,0,0,0,0.001, ,0,0,0,0,0, ,992,13.5,35.4,-0.6,-0.2,-1.7,25,991.683,14.861,35.7442,-0.631141,-0.352755,-1.53761,
2026_06_10_18_15_54.159,3.863,29.6,0,0.759,0,0,0,0.001, ,0,0,0,0,0, ,991.3,13.9,38.4,-0.5,-0.6,-1.8,25,991.681,14.7902,35.8147,-0.626196,-0.355634,-1.55056,
2026_06_10_18_15_54.177,3.863,29.7,0,0.758,0,0,0,0.001, ,0,0,0,0,0, ,991.8,12.3,35.7,-0.5,-0.8,-2,25,991.673,14.6872,35.8899,-0.618506,-0.376619,-1.57185,
2026_06_10_18_15_54.199,3.863,29.6,0,0.759,0,0,0,0.001, ,0,0,0,0,0, ,990.7,18.9,33,-0.4,-0.3,-1.9,25,991.647,14.7428,35.7961,-0.608238,-0.387184,-1.59489,
2026_06_10_18_15_54.217,3.863,29.5,0,0.758,0,0,0,0.001, ,0,0,0,0,0, ,990.9,14.7,35.2,-0.6,-0.1,-1.4,25,991.595,14.8682,35.6927,-0.601642,-0.375778,-1.59825,
2026_06_10_18_15_54.239,3.863,29.6,0,0.758,0,0,0,0.002, ,0,0,0,0,0, ,992.3,12.9,36.8,-0.5,-0.4,-2.1,25,991.596,14.8031,35.7115,-0.598495,-0.368113,-1.6075,
2026_06_10_18_15_54.256,3.863,29.6,0,0.757,0,0,0,0.002, ,0,0,0,0,0, ,992,15.2,35.7,-0.5,-0.4,-2.1,25,991.629,14.7572,35.7443,-0.592493,-0.370056,-1.63751,
2026_06_10_18_15_54.278,3.863,29.7,0,0.758,0,0,0,0.002, ,0,0,0,0,0, ,991.5,18.6,33.5,-0.6,-0.3,-1.9,25,991.637,14.8878,35.6746,-0.589904,-0.368834,-1.6596,
2026_06_10_18_15_54.296,3.863,29.7,0,0.757,0,0,0,0.001, ,0,0,0,0,0, ,991.5,18.4,34,-0.6,-0.2,-1.3,25,991.628,15.1079,35.5573,-0.590519,-0.361593,-1.65597,
2026_06_10_18_15_54.318,3.863,29.6,0,0.758,0,0,0,0.001, ,0,0,0,0,0, ,991.6,17.3,37.2,-0.6,-0.2,-1.2,25,991.624,15.275,35.5599,-0.591097,-0.351746,-1.63123,
2026_06_10_18_15_54.336,3.863,29.6,0,0.76,0,0,0,0.002, ,0,0,0,0,0, ,993,14.6,38,-0.6,-0.5,-1.4,25,991.665,15.3161,35.6842,-0.591639,-0.351639,-1.61105,
2026_06_10_18_15_54.358,3.863,29.6,0,0.758,0,0,0,0.002, ,0,0,0,0,0, ,991.9,16.2,35.1,-0.6,-0.4,-1,25,991.713,15.3212,35.737,-0.592149,-0.357633,-1.586,
2026_06_10_18_15_54.376,3.863,29.7,0,0.76,0,0,0,0.002, ,0,0,0,0,0, ,990.6,11.8,35.6,-0.6,-0.3,-1.3,25,991.684,15.2407,35.7134,-0.592627,-0.357168,-1.55943,
2026_06_10_18_15_54.397,3.863,29.6,0,0.758,0,0,0,0.001, ,0,0,0,0,0, ,992,15.1,34.3,-0.5,-0.4,-1.6,25,991.661,15.1316,35.6669,-0.59003,-0.356731,-1.55276,
2026_06_10_18_15_54.415,3.863,29.7,0,0.757,0,0,0,0.002, ,0,0,0,0,0, ,993,15,35.2,-0.6,-0.2,-1.5,25,991.712,15.1266,35.611,-0.58759,-0.353274,-1.55259,
2026_06_10_18_15_54.436,3.863,29.5,0,0.758,0,0,0,0.001, ,0,0,0,0,0, ,991.8,15.3,37.5,-0.6,-0.3,-1.2,25,991.754,15.1281,35.656,-0.588347,-0.346981,-1.54025,
2026_06_10_18_15_54.454,3.863,29.6,0,0.759,0,0,0,0.003, ,0,0,0,0,0, ,991.3,12,37.9,-0.7,-0.5,-1.3,25,991.742,15.038,35.7806,-0.592104,-0.350212,-1.52256,
2026_06_10_18_15_54.476,3.863,29.6,0,0.758,0,0,0,0.002, ,0,0,0,0,0, ,991.4,14.1,34.5,-0.6,-0.6,-1.5,25,991.718,14.9168,35.8061,-0.595632,-0.362386,-1.51509,
2026_06_10_18_15_54.494,3.863,29.5,0,0.758,0,0,0,0.002, ,0,0,0,0,0, ,992.6,14.1,37.2,-0.6,-0.4,-1.8,25,991.735,14.8671,35.8088,-0.595898,-0.370772,-1.52331,
2026_06_10_18_15_54.516,3.863,29.6,0,0.759,0,0,0,0.003, ,0,0,0,0,0, ,992.1,13.5,35.4,-0.7,-0.3,-1.8,25,991.772,14.802,35.8387,-0.599195,-0.369506,-1.54017,
2026_06_10_18_15_54.534,3.863,29.7,0,0.759,0,0,0,0.002, ,0,0,0,0,0, ,992.4,15.3,36.9,-0.7,-0.3,-1.8,25,991.802,14.7775,35.8577,-0.605337,-0.365271,-1.55601,
2026_06_10_18_15_54.556,3.863,29.6,0,0.759,0,0,0,0.001, ,0,0,0,0,0, ,991.3,15.1,35.4,-0.5,-0.5,-1.9,25,991.804,14.8033,35.8755,-0.605012,-0.367387,-1.57392,
2026_06_10_18_15_54.573,3.863,29.6,0,0.759,0,0,0,0.002, ,0,0,0,0,0, ,991,16.1,34.1,-0.6,-0.4,-1.7,25,991.765,14.8518,35.8069,-0.60166,-0.372421,-1.5877,
2026_06_10_18_15_54.595,3.863,29.6,0,0.758,0,0,0,0.002, ,0,0,0,0,0, ,990.4,14.1,36.4,-0.6,-0.3,-1.6,25,991.7,14.867,35.773,-0.601559,-0.371055,-1.59149,
2026_06_10_18_15_54.613,3.863,29.6,0,0.759,0,0,0,0.002, ,0,0,0,0,0, ,991,14.2,36.3,-0.6,-0.4,-1.4,25,991.639,14.8233,35.8082,-0.601464,-0.369772,-1.58592,
2026_06_10_18_15_54.634,3.863,29.4,0,0.76,0,0,0,0.002, ,0,0,0,0,0, ,991.9,14.6,34.1,-0.5,-0.3,-1.5,25,991.627,14.7975,35.7711,-0.598328,-0.368567,-1.57764,
2026_06_10_18_15_54.652,3.863,29.5,0,0.759,0,0,0,0.004, ,0,0,0,0,0, ,991.9,14.6,36.1,-0.6,-0.1,-1.5,25,991.644,14.7854,35.7302,-0.595383,-0.358295,-1.57291,
2026_06_10_18_15_54.674,3.863,29.5,0,0.758,0,0,0,0.003, ,0,0,0,0,0, ,992.1,12.9,36.6,-0.6,-0.4,-1.4,25,991.666,14.7223,35.768,-0.595664,-0.351696,-1.56542,
2026_06_10_18_15_54.692,3.863,29.6,0,0.759,0,0,0,0.003, ,0,0,0,0,0, ,991,17.9,35.5,-0.5,-0.3,-1.6,25,991.659,14.7636,35.7852,-0.592881,-0.351592,-1.56143,
2026_06_10_18_15_54.714,3.863,29.6,0,0.758,0,0,0,0.002, ,0,0,0,0,0, ,992,12.5,34.3,-0.5,-0.3,-1.5,25,991.649,14.7902,35.7312,-0.587221,-0.348449,-1.56073,
2026_06_10_18_15_54.731,3.863,29.6,0,0.758,0,0,0,0.003, ,0,0,0,0,0, ,992.5,13,36.7,-0.7,-0.2,-1.9,25,991.686,14.6659,35.7171,-0.588,-0.342449,-1.56922,
2026_06_10_18_15_54.753,3.863,29.6,0,0.758,0,0,0,0.003, ,0,0,0,0,0, ,991.4,13.9,38.3,-0.7,-0.3,-1.8,25,991.702,14.5918,35.8258,-0.594825,-0.336816,-1.58633,
2026_06_10_18_15_54.772,3.863,29.4,0,0.758,0,0,0,0.003, ,0,0,0,0,0, ,990.7,15.5,37.3,-0.6,-0.8,-1.8,25,991.662,14.5984,35.9461,-0.598187,-0.349807,-1.59935,
2026_06_10_18_15_54.793,3.863,29.5,0,0.758,0,0,0,0.004, ,0,0,0,0,0, ,992.4,14.7,33.3,-0.7,-0.8,-1.8,25,991.655,14.629,35.9067,-0.601345,-0.37724,-1.61158,
2026_06_10_18_15_54.811,3.863,29.5,0,0.758,0,0,0,0.004, ,0,0,0,0,0, ,990.9,15.8,31.6,-0.7,-0.2,-1.7,25,991.655,14.6668,35.6961,-0.607357,-0.384721,-1.62001,
2026_06_10_18_15_54.833,3.863,29.5,0,0.758,0,0,0,0.004, ,0,0,0,0,0, ,991.2,17.9,38.2,-0.8,-0.1,-1.4,25,991.618,14.7999,35.6476,-0.616049,-0.370418,-1.61575,
2026_06_10_18_15_54.850,3.863,29.5,0,0.759,0,0,0,0.004, ,0,0,0,0,0, ,993.1,11.7,36.7,-0.7,-0.3,-1.4,25,991.65,14.7999,35.7574,-0.624212,-0.360033,-1.6026,
2026_06_10_18_15_54.873,3.863,29.5,0,0.759,0,0,0,0.004, ,0,0,0,0,0, ,992.3,12.6,35.6,-0.5,-0.6,-1.9,25,991.714,14.6384,35.7813,-0.622736,-0.365515,-1.60549,
2026_06_10_18_15_54.890,3.863,29.6,0,0.757,0,0,0,0.004, ,0,0,0,0,0, ,992.3,13.9,36.1,-0.5,-0.6,-2.4,25,991.75,14.5538,35.7855,-0.615257,-0.379804,-1.63867,
2026_06_10_18_15_54.913,3.863,29.6,0,0.758,0,0,0,0.003, ,0,0,0,0,0, ,992.6,20.3,34.9,-0.6,-0.3,-1.7,25,991.793,14.7089,35.7681,-0.61128,-0.384082,-1.66373,
2026_06_10_18_15_54.930,3.863,29.6,0,0.758,0,0,0,0.003, ,0,0,0,0,0, ,992.3,13.3,35.4,-0.7,0,-1.3,25,991.833,14.8364,35.7304,-0.61364,-0.369817,-1.65376,
2026_06_10_18_15_54.953,3.863,29.4,0,0.758,0,0,0,0.003, ,0,0,0,0,0, ,990.3,14.7,38,-0.7,0,-1.5,25,991.8,14.7854,35.7895,-0.618902,-0.347282,-1.63829,
2026_06_10_18_15_54.969,3.863,29.5,0,0.758,0,0,0,0.005, ,0,0,0,0,0, ,990.4,17.5,37.3,-0.7,-0.5,-1.3,25,991.712,14.8655,35.9029,-0.623844,-0.341354,-1.62377,
2026_06_10_18_15_54.992,3.863,29.5,0,0.758,0,0,0,0.004, ,0,0,0,0,0, ,992.1,15.3,35.1,-0.7,-0.5,-1.2,25,991.684,14.959,35.921,-0.628485,-0.351021,-1.601,
2026_06_10_18_15_55.009,3.863,29.4,0,0.758,0,0,0,0.004, ,0,0,0,0,0, ,992.1,12.4,33.5,-1,-0.3,-0.9,25,991.709,14.8914,35.8222,-0.641984,-0.354006,-1.56742,
2026_06_10_18_15_55.032,3.863,29.5,0,0.757,0,0,0,0.005, ,0,0,0,0,0, ,993.4,11.5,35.7,-0.8,-0.2,-1.7,25,991.773,14.7122,35.7477,-0.657706,-0.347668,-1.55112,
2026_06_10_18_15_55.048,3.863,29.5,0,0.759,0,0,0,0.004, ,0,0,0,0,0, ,992.4,12.6,38.4,-0.6,-0.4,-2,25,991.841,14.55,35.8271,-0.660284,-0.344763,-1.56934,
2026_06_10_18_15_55.072,3.863,29.4,0,0.757,0,0,0,0.004, ,0,0,0,0,0, ,991.2,16.6,34.9,-0.7,-0.6,-1.9,25,991.839,14.553,35.8772,-0.659657,-0.354223,-1.59253,
2026_06_10_18_15_55.089,3.863,29.5,0,0.758,0,0,0,0.005, ,0,0,0,0,0, ,990.7,15.9,34.4,-0.6,-0.5,-1.6,25,991.785,14.6564,35.8025,-0.659069,-0.366153,-1.60213,
2026_06_10_18_15_55.111,3.863,29.5,0,0.757,0,0,0,0.004, ,0,0,0,0,0, ,993,15.2,33.6,-0.6,-0.3,-1.3,25,991.789,14.7109,35.6926,-0.655469,-0.368216,-1.59286,
2026_06_10_18_15_55.128,3.863,29.4,0,0.759,0,0,0,0.004, ,0,0,0,0,0, ,991.6,13.9,36.2,-0.5,-0.3,-1.5,25,991.82,14.7011,35.6443,-0.649042,-0.364059,-1.58111,
2026_06_10_18_15_55.150,3.863,29.5,0,0.759,0,0,0,0.005, ,0,0,0,0,0, ,991.3,15.3,36.6,-0.5,-0.3,-1.7,25,991.797,14.6949,35.6904,-0.63996,-0.360155,-1.58226,
2026_06_10_18_15_55.168,3.863,29.4,0,0.759,0,0,0,0.004, ,0,0,0,0,0, ,991.3,13.3,36.1,-0.5,-0.3,-1.7,25,991.767,14.6708,35.7306,-0.631431,-0.356489,-1.58943,
2026_06_10_18_15_55.189,3.863,29.4,0,0.758,0,0,0,0.005, ,0,0,0,0,0, ,991.5,15,34.6,-0.5,-0.6,-2,25,991.745,14.6391,35.7074,-0.623422,-0.362188,-1.60531,
2026_06_10_18_15_55.207,3.863,29.6,0,0.759,0,0,0,0.005, ,0,0,0,0,0, ,992.4,15.7,34.4,-0.6,-0.6,-2.1,25,991.757,14.6824,35.6338,-0.618948,-0.376679,-1.63241,
2026_06_10_18_15_55.230,3.863,29.4,0,0.759,0,0,0,0.004, ,0,0,0,0,0, ,990.8,16.9,34.9,-0.6,-0.3,-1.7,25,991.747,14.781,35.5738,-0.617793,-0.381147,-1.64872,
2026_06_10_18_15_55.246,3.863,29.5,0,0.759,0,0,0,0.005, ,0,0,0,0,0, ,991.5,18.1,37.3,-0.6,-0.1,-1.6,25,991.711,14.9467,35.6059,-0.616709,-0.370109,-1.64879,
2026_06_10_18_15_55.269,3.863,29.4,0,0.759,0,0,0,0.005, ,0,0,0,0,0, ,992.5,12,36.8,-0.6,-0.4,-1.4,25,991.729,14.953,35.6939,-0.615691,-0.36279,-1.63973,
2026_06_10_18_15_55.286,3.863,29.5,0,0.758,0,0,0,0.006, ,0,0,0,0,0, ,991.8,13.9,35.1,-0.6,-0.7,-1.9,25,991.754,14.8309,35.7095,-0.614735,-0.374198,-1.64035,
2026_06_10_18_15_55.310,3.863,29.5,0,0.758,0,0,0,0.005, ,0,0,0,0,0, ,992.6,16.2,32.9,-0.6,-0.5,-1.8,25,991.782,14.8443,35.6053,-0.613837,-0.387958,-1.65313,
2026_06_10_18_15_55.326,3.863,29.4,0,0.758,0,0,0,0.005, ,0,0,0,0,0, ,991.6,17.4,33.2,-0.5,-0.1,-1.4,25,991.801,14.9635,35.4496,-0.609947,-0.382598,-1.64989,
2026_06_10_18_15_55.349,3.863,29.5,0,0.759,0,0,0,0.006, ,0,0,0,0,0, ,991.9,15.6,34,-0.6,0,-1.2,25,991.798,15.0571,35.3369,-0.606294,-0.36233,-1.62857,
2026_06_10_18_15_55.365,3.863,29.5,0,0.757,0,0,0,0.005, ,0,0,0,0,0, ,993,9.6,38.4,-0.6,-0.2,-1.6,25,991.838,14.9074,35.3895,-0.60591,-0.346344,-1.61464,
2026_06_10_18_15_55.389,3.863,29.5,0,0.758,0,0,0,0.005, ,0,0,0,0,0, ,990.9,13.9,37.7,-0.5,-0.5,-2.1,25,991.844,14.715,35.5516,-0.602503,-0.346567,-1.62898,
2026_06_10_18_15_55.405,3.863,29.5,0,0.758,0,0,0,0.005, ,0,0,0,0,0, ,991.8,19.4,37.2,-0.5,-0.7,-1.8,25,991.814,14.8329,35.6673,-0.596257,-0.362011,-1.64854,
2026_06_10_18_15_55.428,3.863,29.5,0,0.758,0,0,0,0.005, ,0,0,0,0,0, ,991.4,15.2,34.9,-0.5,-0.4,-1.3,25,991.801,14.9832,35.6906,-0.590391,-0.373466,-1.64254,
2026_06_10_18_15_55.445,3.863,29.4,0,0.758,0,0,0,0.005, ,0,0,0,0,0, ,991.3,16.6,34.3,-0.6,-0.3,-1.3,25,991.774,15.0391,35.6242,-0.58793,-0.372036,-1.62167,
2026_06_10_18_15_55.468,3.863,29.5,0,0.758,0,0,0,0.006, ,0,0,0,0,0, ,993.5,13.7,34.7,-0.6,-0.2,-1.6,25,991.812,15.0458,35.5557,-0.588665,-0.3646,-1.61121,
2026_06_10_18_15_55.484,3.863,29.6,0,0.759,0,0,0,0.005, ,0,0,0,0,0, ,991.2,16.9,36.9,-0.6,-0.1,-1.6,25,991.845,15.0613,35.5706,-0.589356,-0.351522,-1.61052,
2026_06_10_18_15_55.507,3.863,29.5,0,0.758,0,0,0,0.005, ,0,0,0,0,0, ,992,14.8,37.5,-0.6,-0.4,-1.4,25,991.83,15.1094,35.6699,-0.590005,-0.345336,-1.60379,
2026_06_10_18_15_55.524,3.863,29.5,0,0.758,0,0,0,0.005, ,0,0,0,0,0, ,991.4,11.2,38.3,-0.5,-0.7,-1.8,25,991.822,14.9808,35.8058,-0.587567,-0.357808,-1.60356,
2026_06_10_18_15_55.547,3.863,29.4,0,0.759,0,0,0,0.005, ,0,0,0,0,0, ,991.4,17.7,32.1,-0.5,-0.6,-1.9,25,991.796,14.9485,35.7688,-0.582231,-0.375613,-1.61857,
2026_06_10_18_15_55.564,3.863,29.5,0,0.758,0,0,0,0.006, ,0,0,0,0,0, ,991.5,19.7,33.3,-0.6,0.1,-1.2,25,991.775,15.1771,35.5818,-0.580267,-0.367959,-1.6144,
2026_06_10_18_15_55.588,3.863,29.5,0,0.758,0,0,0,0.006, ,0,0,0,0,0, ,991.3,13.3,37.4,-0.7,0.1,-1,25,991.752,15.2577,35.5677,-0.584516,-0.339442,-1.58305,
2026_06_10_18_15_55.603,3.863,29.5,0,0.759,0,0,0,0.006, ,0,0,0,0,0, ,990.2,12.3,39.7,-0.6,-0.5,-1.6,25,991.691,15.108,35.7494,-0.588507,-0.330945,-1.5658,
2026_06_10_18_15_55.628,3.863,29.4,0,0.758,0,0,0,0.006, ,0,0,0,0,0, ,991.4,13.4,36,-0.5,-0.8,-2,25,991.637,14.9704,35.8774,-0.58616,-0.350387,-1.58007,
