time_sec_index,time_sec_from_utc,UTC_Time,Accel_x_ms2,Accel_y_ms2,Accel_z_ms2,gyro_x_raw,gyro_y_raw,gyro_z_raw,dt_utc
0.0,0.0,2026-05-21 16:59:17.468,-0.8377740000000001,-1.1153970000000002,9.725634,0.2,0.0,-2.7,
0.02,0.02,2026-05-21 16:59:17.488,-0.870147,-1.110492,9.822752999999999,-0.9,-0.7,-2.8,0.02
0.04,0.039,2026-05-21 16:59:17.507,-0.810306,-1.1546370000000001,9.781551,-1.8,-0.9,-2.8,0.019
0.06,0.059,2026-05-21 16:59:17.527,-0.854451,-1.142865,9.762912000000002,-1.5,-0.1,-0.9,0.02
0.08,0.079,2026-05-21 16:59:17.547,-0.95157,-1.1153970000000002,9.691299,-0.3,0.3,-1.0,0.02
0.1,0.098,2026-05-21 16:59:17.566,-0.947646,-1.114416,9.753102000000002,0.7,0.1,-2.0,0.019
0.12,0.118,2026-05-21 16:59:17.586,-0.9191970000000002,-1.120302,9.841392,0.5,1.9,0.0,0.02
0.14,0.138,2026-05-21 16:59:17.606,-1.034955,-1.043784,9.81,-1.9,0.4,-0.7,0.02
0.16,0.159,2026-05-21 16:59:17.627,-1.0604609999999999,-1.06929,9.683451,-3.0,-1.3,-2.5,0.021
0.18,0.178,2026-05-21 16:59:17.646,-0.9957150000000001,-1.091853,9.665793,-1.3,-0.2,-2.6,0.019
0.2,0.198,2026-05-21 16:59:17.666,-0.9319500000000001,-1.132074,9.703071,1.3,0.0,-4.1,0.02
0.22,0.218,2026-05-21 16:59:17.686,-0.9093870000000001,-1.204668,9.707976,-0.4,0.4,-2.5,0.02
0.24,0.238,2026-05-21 16:59:17.706,-0.964323,-1.05948,9.705033,-2.4,0.4,0.5,0.02
0.26,0.257,2026-05-21 16:59:17.725,-1.005525,-1.121283,9.660888,-1.7,-1.5,-2.5,0.019
0.28,0.277,2026-05-21 16:59:17.745,-0.9191970000000002,-1.2841290000000003,9.46665,1.0,0.5,-5.3,0.02
0.3,0.297,2026-05-21 16:59:17.765,-0.8966340000000002,-1.2213450000000001,9.573579,2.2,1.8,-2.5,0.02
0.32,0.317,2026-05-21 16:59:17.785,-0.9525509999999999,-1.123245,9.583389,3.0,1.2,-0.7,0.02
0.34,0.336,2026-05-21 16:59:17.804,-0.998658,-1.013373,9.738387000000001,3.0,-1.0,0.7,0.019
0.36,0.356,2026-05-21 16:59:17.824,-0.9368550000000001,-0.9702090000000001,9.906138,0.5,-1.8,0.2,0.02
0.38,0.376,2026-05-21 16:59:17.844,-0.9290070000000001,-0.998658,9.887499,-1.4,-0.4,-0.3,0.02
0.4,0.395,2026-05-21 16:59:17.863,-0.9564750000000001,-0.983943,9.838448999999999,-2.2,-0.4,-1.3,0.019
0.42,0.415,2026-05-21 16:59:17.883,-0.8985960000000001,-1.075176,9.759969,-2.9,-1.0,-2.6,0.02
0.44,0.434,2026-05-21 16:59:17.902,-0.949608,-1.1183400000000001,9.658926000000001,-2.1,0.1,-1.7,0.019
0.46,0.455,2026-05-21 16:59:17.923,-0.967266,-1.21644,9.534339000000001,-1.4,0.0,-1.2,0.021
0.48,0.475,2026-05-21 16:59:17.943,-1.016316,-1.132074,9.508833,1.4,0.0,-0.3,0.02
0.5,0.494,2026-05-21 16:59:17.962,-1.062423,-1.0535940000000001,9.616743,2.7,-0.3,-0.4,0.019
0.52,0.514,2026-05-21 16:59:17.982,-1.009449,-1.0781190000000003,9.65304,3.4,0.0,-2.1,0.02
0.54,0.534,2026-05-21 16:59:18.002,-0.968247,-1.047708,9.689337,3.1,0.4,-2.0,0.02
0.56,0.554,2026-05-21 16:59:18.022,-0.9702090000000001,-1.045746,9.747216000000002,3.1,0.3,-0.6,0.02
0.58,0.574,2026-05-21 16:59:18.042,-1.009449,-1.02024,9.815885999999999,2.6,-0.3,-0.7,0.02
0.6,0.593,2026-05-21 16:59:18.061,-0.9790380000000001,-0.996696,9.861012,2.0,-0.2,-1.9,0.019
0.62,0.613,2026-05-21 16:59:18.081,-0.915273,-1.034955,9.892404,1.0,0.0,-2.7,0.02
0.64,0.633,2026-05-21 16:59:18.101,-0.897615,-1.031031,9.852183,-0.2,-0.5,-2.4,0.02
0.66,0.653,2026-05-21 16:59:18.121,-0.893691,-1.042803,9.777627,-0.8,-1.0,-1.2,0.02
0.68,0.673,2026-05-21 16:59:18.141,-0.940779,-1.0643850000000001,9.751140000000001,-1.8,-0.9,-1.1,0.02
0.7000000000000001,0.692,2026-05-21 16:59:18.160,-0.925083,-1.097739,9.68247,-1.5,-0.4,-1.3,0.019
0.72,0.712,2026-05-21 16:59:18.180,-0.9525509999999999,-1.0663470000000002,9.660888,-0.2,0.3,-0.3,0.02
0.74,0.732,2026-05-21 16:59:18.200,-1.029069,-1.062423,9.638325,0.3,0.5,-0.2,0.02
0.76,0.752,2026-05-21 16:59:18.220,-1.047708,-1.034955,9.64323,1.2,-0.4,-1.3,0.02
0.78,0.772,2026-05-21 16:59:18.240,-1.018278,-0.9633420000000001,9.697185000000001,1.3,-0.6,-0.4,0.02
0.8,0.792,2026-05-21 16:59:18.260,-1.056537,-0.923121,9.726615,1.5,0.0,0.0,0.02
0.8200000000000001,0.811,2026-05-21 16:59:18.279,-1.054575,-0.9358740000000002,9.708957000000002,1.3,0.0,-1.9,0.019
0.84,0.831,2026-05-21 16:59:18.299,-1.018278,-0.9633420000000001,9.74133,1.1,0.5,-2.2,0.02
0.86,0.851,2026-05-21 16:59:18.319,-1.004544,-1.005525,9.654021,0.8,0.0,-2.7,0.02
0.88,0.871,2026-05-21 16:59:18.339,-0.973152,-0.968247,9.696204,2.3,0.1,-2.1,0.02
0.9,0.891,2026-05-21 16:59:18.359,-0.987867,-0.999639,9.768798,2.2,0.0,-2.2,0.02
0.92,0.91,2026-05-21 16:59:18.378,-0.949608,-0.9898290000000001,9.714843,2.1,0.1,-2.5,0.019
0.9400000000000001,0.929,2026-05-21 16:59:18.397,-0.972171,-0.9525509999999999,9.758988,1.9,0.4,-1.8,0.019
0.96,0.95,2026-05-21 16:59:18.418,-0.974133,-1.012392,9.696204,1.8,-0.1,-2.8,0.021
0.98,0.969,2026-05-21 16:59:18.437,-0.982962,-0.9908100000000001,9.703071,1.9,0.3,-1.4,0.019
1.0,0.99,2026-05-21 16:59:18.458,-1.0172970000000001,-0.95157,9.719748,2.0,0.5,0.0,0.021
1.02,1.009,2026-05-21 16:59:18.477,-1.072233,-0.9584370000000001,9.659907,2.2,-0.1,-0.9,0.019
1.04,1.029,2026-05-21 16:59:18.497,-1.028088,-0.8829,9.828639,2.5,0.0,-1.8,0.02
1.06,1.049,2026-05-21 16:59:18.517,-1.101663,-0.8475840000000001,9.873765,1.1,0.0,-1.9,0.02
1.08,1.068,2026-05-21 16:59:18.536,-1.0967580000000001,-0.8230590000000001,9.81,-0.3,-1.0,-2.6,0.019
1.1,1.088,2026-05-21 16:59:18.556,-0.9888480000000001,-0.957456,9.774684,-1.2,-1.6,-3.2,0.02
1.12,1.108,2026-05-21 16:59:18.576,-0.9633420000000001,-0.991791,9.748197000000001,-1.3,-1.4,-3.2,0.02
1.1400000000000001,1.128,2026-05-21 16:59:18.596,-1.022202,-0.849546,9.889461,-2.2,-2.3,-1.0,0.02
1.16,1.148,2026-05-21 16:59:18.616,-1.02024,-0.89271,9.770760000000001,-2.2,-4.9,-1.5,0.02
1.18,1.168,2026-05-21 16:59:18.636,-0.7720470000000001,-1.037898,9.582408000000001,-2.0,-2.9,-4.4,0.02
1.2,1.187,2026-05-21 16:59:18.655,-0.779895,-1.054575,9.747216000000002,-2.3,1.3,-1.5,0.019
1.22,1.207,2026-05-21 16:59:18.675,-0.9633420000000001,-1.012392,9.683451,-1.6,1.6,1.9,0.02
1.24,1.227,2026-05-21 16:59:18.695,-1.031031,-0.8995770000000001,9.783513000000001,-1.4,-0.1,2.4,0.02
1.26,1.246,2026-05-21 16:59:18.714,-1.0535940000000001,-0.8868240000000002,9.734463,-1.3,-0.9,-0.9,0.019
1.28,1.266,2026-05-21 16:59:18.734,-1.01043,-0.975114,9.726615,-0.3,-0.3,-2.9,0.02
1.3,1.286,2026-05-21 16:59:18.754,-1.00062,-1.01043,9.620667000000001,-0.8,-0.2,-1.3,0.02
1.32,1.306,2026-05-21 16:59:18.774,-1.0320120000000002,-1.02024,9.571617,0.9,0.3,0.0,0.02
1.34,1.326,2026-05-21 16:59:18.794,-1.0859670000000001,-0.8985960000000001,9.715824,1.9,0.7,0.1,0.02
1.36,1.346,2026-05-21 16:59:18.814,-1.099701,-0.8799570000000001,9.667755000000001,1.6,0.1,-1.6,0.02
1.3800000000000001,1.366,2026-05-21 16:59:18.834,-1.116378,-0.8966340000000002,9.655983,2.3,-0.1,-1.4,0.02
1.4000000000000001,1.385,2026-05-21 16:59:18.853,-1.03986,-0.877995,9.758007000000001,2.1,-1.2,-1.2,0.019
1.42,1.405,2026-05-21 16:59:18.873,-1.038879,-0.884862,9.778608,2.2,-0.3,-2.8,0.02
1.44,1.424,2026-05-21 16:59:18.892,-0.960399,-0.893691,9.772722000000002,1.0,0.6,-2.8,0.019
1.46,1.444,2026-05-21 16:59:18.912,-0.973152,-0.9093870000000001,9.743292000000002,1.2,0.1,-1.7,0.02
1.48,1.464,2026-05-21 16:59:18.932,-0.9584370000000001,-0.852489,9.832563,1.2,-0.9,-2.0,0.02
1.5,1.484,2026-05-21 16:59:18.952,-0.917235,-0.893691,9.828639,-0.3,-1.2,-2.5,0.02
1.52,1.504,2026-05-21 16:59:18.972,-0.86328,-0.934893,9.732501000000001,-0.3,0.5,-1.4,0.02
1.54,1.523,2026-05-21 16:59:18.991,-0.983943,-0.893691,9.688356,0.7,2.0,-0.3,0.019
1.56,1.549,2026-05-21 16:59:19.017,-1.012392,-0.897615,9.666774,0.8,0.7,-0.9,0.026
1.58,1.563,2026-05-21 16:59:19.031,-1.0231830000000002,-0.8819190000000001,9.688356,0.7,-0.4,-0.4,0.014
1.6,1.583,2026-05-21 16:59:19.051,-1.02024,-0.870147,9.693261,1.2,-0.1,-1.0,0.02
1.62,1.603,2026-05-21 16:59:19.071,-1.041822,-0.852489,9.754083,2.5,1.6,-1.0,0.02
1.6400000000000001,1.622,2026-05-21 16:59:19.090,-1.119321,-0.8014770000000001,9.768798,1.5,1.7,-0.5,0.019
1.6600000000000001,1.643,2026-05-21 16:59:19.111,-1.162485,-0.7897050000000001,9.738387000000001,1.2,0.7,-0.8,0.021
1.68,1.661,2026-05-21 16:59:19.129,-1.114416,-0.844641,9.73152,0.9,-1.2,-1.8,0.018
1.7,1.682,2026-05-21 16:59:19.150,-1.0486890000000002,-0.8112870000000001,9.817848,1.5,-0.6,-1.7,0.021
1.72,1.701,2026-05-21 16:59:19.169,-1.0800809999999998,-0.7789140000000001,9.808038,0.9,0.3,-2.4,0.019
1.74,1.721,2026-05-21 16:59:19.189,-1.045746,-0.8475840000000001,9.803133,-0.2,-0.3,-3.4,0.02
1.76,1.741,2026-05-21 16:59:19.209,-0.983943,-0.85347,9.758988,0.1,-0.8,-2.5,0.02
1.78,1.761,2026-05-21 16:59:19.229,-0.991791,-0.8387550000000001,9.752121,-0.3,-0.9,-1.8,0.02
1.8,1.78,2026-05-21 16:59:19.248,-0.9947340000000001,-0.8554320000000001,9.743292000000002,-0.1,-0.1,-2.1,0.019
1.82,1.8,2026-05-21 16:59:19.268,-0.977076,-0.860337,9.65304,0.3,1.0,-1.3,0.02
1.84,1.82,2026-05-21 16:59:19.288,-1.0535940000000001,-0.812268,9.691299,0.7,0.7,-1.0,0.02
1.86,1.84,2026-05-21 16:59:19.308,-1.082043,-0.7985340000000001,9.70209,0.7,-0.7,-1.6,0.02
1.8800000000000001,1.859,2026-05-21 16:59:19.327,-1.070271,-0.8416980000000001,9.73152,0.4,-0.6,-1.0,0.019
1.9000000000000001,1.879,2026-05-21 16:59:19.347,-1.0947959999999999,-0.815211,9.64323,1.2,0.4,-0.5,0.02
1.92,1.9,2026-05-21 16:59:19.368,-1.116378,-0.7328070000000001,9.769779,1.4,0.6,-1.1,0.021
1.94,1.92,2026-05-21 16:59:19.388,-1.084005,-0.800496,9.709938,0.4,-0.5,-2.0,0.02
1.96,1.939,2026-05-21 16:59:19.407,-1.084005,-0.869166,9.713862,1.3,0.0,-2.5,0.019
1.98,1.959,2026-05-21 16:59:19.427,-1.0643850000000001,-0.763218,9.788418,1.4,0.0,-1.9,0.02
2.0,1.983,2026-05-21 16:59:19.451,-1.143846,-0.733788,9.786456000000001,0.9,-0.4,-1.8,0.024
2.02,1.999,2026-05-21 16:59:19.467,-1.1075490000000001,-0.7730279999999999,9.811962,-0.8,-1.2,-2.5,0.016
2.04,2.018,2026-05-21 16:59:19.486,-1.028088,-0.8112870000000001,9.767817,-1.8,-1.4,-1.9,0.019
2.06,2.037,2026-05-21 16:59:19.505,-1.001601,-0.816192,9.749177999999999,-2.3,-1.0,0.0,0.019
2.08,2.058,2026-05-21 16:59:19.526,-1.097739,-0.750465,9.772722000000002,-0.5,-1.1,-1.0,0.021
2.1,2.078,2026-05-21 16:59:19.546,-1.0781190000000003,-0.7239779999999999,9.840411000000001,-0.7,-0.8,-3.4,0.02
2.12,2.097,2026-05-21 16:59:19.565,-1.031031,-0.782838,9.74133,-1.1,-0.5,-3.5,0.019
2.14,2.117,2026-05-21 16:59:19.585,-1.0172970000000001,-0.868185,9.602028,-1.2,-1.1,-2.7,0.02
2.16,2.137,2026-05-21 16:59:19.605,-0.9810000000000001,-0.8112870000000001,9.602028,0.7,-0.8,-1.1,0.02
2.18,2.157,2026-05-21 16:59:19.625,-0.9810000000000001,-0.7789140000000001,9.738387000000001,1.3,-0.5,-1.6,0.02
2.2,2.177,2026-05-21 16:59:19.645,-0.977076,-0.7769520000000001,9.735444,1.2,0.4,-2.0,0.02
2.22,2.198,2026-05-21 16:59:19.666,-1.005525,-0.782838,9.746235,1.0,1.0,-1.3,0.021
2.24,2.216,2026-05-21 16:59:19.684,-1.065366,-0.746541,9.73152,1.0,-0.1,-0.4,0.018
2.2600000000000002,2.236,2026-05-21 16:59:19.704,-1.050651,-0.763218,9.777627,1.4,-1.0,-1.4,0.02
2.2800000000000002,2.256,2026-05-21 16:59:19.724,-1.009449,-0.7848,9.880632000000002,0.1,-0.2,-2.4,0.02
2.3000000000000003,2.276,2026-05-21 16:59:19.744,-1.013373,-0.854451,9.764874,-0.3,0.6,-2.3,0.02
2.32,2.295,2026-05-21 16:59:19.763,-1.04967,-0.8466030000000001,9.753102000000002,-0.2,0.9,-1.2,0.019
2.34,2.315,2026-05-21 16:59:19.783,-1.1418840000000001,-0.7494840000000002,9.848259,-1.9,-0.3,0.0,0.02
2.36,2.335,2026-05-21 16:59:19.803,-1.179162,-0.7406550000000001,9.803133,-3.2,-2.8,-2.1,0.02
2.38,2.355,2026-05-21 16:59:19.823,-1.031031,-0.7180920000000001,9.854145,-2.7,-3.0,-3.8,0.02
2.4,2.374,2026-05-21 16:59:19.842,-1.0231830000000002,-0.792648,9.688356,-3.1,0.0,-2.3,0.019
2.42,2.394,2026-05-21 16:59:19.862,-1.0987200000000001,-0.810306,9.655983,-1.4,1.2,-2.7,0.02
2.44,2.417,2026-05-21 16:59:19.885,-1.099701,-0.828945,9.571617,-1.1,0.4,-2.5,0.023
2.46,2.434,2026-05-21 16:59:19.902,-1.0859670000000001,-0.766161,9.595161000000001,0.9,0.0,-1.9,0.017
2.48,2.454,2026-05-21 16:59:19.922,-1.116378,-0.7524270000000001,9.697185000000001,0.5,-1.0,-2.1,0.02
2.5,2.473,2026-05-21 16:59:19.941,-1.0604609999999999,-0.7848,9.70209,0.7,-0.4,-2.4,0.019
2.52,2.494,2026-05-21 16:59:19.962,-1.0065060000000001,-0.803439,9.703071,0.1,0.2,-2.7,0.021
2.54,2.513,2026-05-21 16:59:19.981,-1.02024,-0.8014770000000001,9.73152,1.1,0.1,-1.4,0.019
2.56,2.532,2026-05-21 16:59:20.000,-0.999639,-0.7897050000000001,9.796266000000001,1.2,-0.3,-0.4,0.019
2.58,2.553,2026-05-21 16:59:20.021,-1.042803,-0.762237,9.822752999999999,1.0,0.0,-0.3,0.021
2.6,2.572,2026-05-21 16:59:20.040,-1.0535940000000001,-0.762237,9.802152000000001,-0.7,-0.3,-0.8,0.019
2.62,2.592,2026-05-21 16:59:20.060,-1.062423,-0.7651800000000001,9.84924,-0.5,0.1,-0.8,0.02
2.64,2.612,2026-05-21 16:59:20.080,-1.114416,-0.73575,9.827658000000001,-1.2,0.0,-1.5,0.02
2.66,2.631,2026-05-21 16:59:20.099,-1.075176,-0.8014770000000001,9.747216000000002,-1.4,-0.4,-2.8,0.019
2.68,2.651,2026-05-21 16:59:20.119,-1.004544,-0.817173,9.762912000000002,-1.4,-0.5,-2.5,0.02
2.7,2.671,2026-05-21 16:59:20.139,-1.075176,-0.8093250000000001,9.689337,-1.4,0.0,-0.9,0.02
2.72,2.691,2026-05-21 16:59:20.159,-1.143846,-0.849546,9.588294,-1.3,-0.8,-1.8,0.02
2.74,2.71,2026-05-21 16:59:20.178,-1.1134350000000002,-0.85347,9.656964,1.2,-0.1,-2.9,0.019
2.7600000000000002,2.731,2026-05-21 16:59:20.199,-1.124226,-0.7671420000000001,9.827658000000001,0.9,0.7,-2.1,0.021
2.7800000000000002,2.754,2026-05-21 16:59:20.222,-1.067328,-0.768123,9.759969,-0.7,-0.2,-1.5,0.023
2.8000000000000003,2.77,2026-05-21 16:59:20.238,-1.105587,-0.850527,9.689337,0.4,-0.5,-1.5,0.016
2.82,2.79,2026-05-21 16:59:20.258,-1.161504,-0.7563509999999999,9.752121,1.7,-0.2,-2.3,0.02
2.84,2.81,2026-05-21 16:59:20.278,-1.105587,-0.6867000000000001,9.925758,-0.6,-1.5,-3.2,0.02
2.86,2.829,2026-05-21 16:59:20.297,-1.031031,-0.7249590000000001,9.850221000000001,-2.6,-1.6,-2.8,0.019
2.88,2.849,2026-05-21 16:59:20.317,-1.028088,-0.8711280000000001,9.705033,-3.0,-1.1,-1.9,0.02
2.9,2.869,2026-05-21 16:59:20.337,-1.031031,-0.828945,9.710919,-2.4,-1.1,-1.3,0.02
2.92,2.889,2026-05-21 16:59:20.357,-1.024164,-0.736731,9.832563,-2.7,-2.0,-1.3,0.02
2.94,2.908,2026-05-21 16:59:20.376,-1.043784,-0.7249590000000001,9.822752999999999,-3.8,-2.3,-2.0,0.019
2.96,2.929,2026-05-21 16:59:20.397,-1.067328,-0.7612559999999999,9.729557999999999,-4.1,-1.7,-2.6,0.021
2.98,2.948,2026-05-21 16:59:20.416,-1.077138,-0.777933,9.566712,-3.3,-1.7,-1.1,0.019
3.0,2.971,2026-05-21 16:59:20.439,-1.135998,-0.86328,9.595161000000001,-2.2,-1.5,-0.8,0.023
3.02,2.988,2026-05-21 16:59:20.456,-1.119321,-0.8868240000000002,9.58437,-0.7,-1.1,-2.1,0.017
3.04,3.008,2026-05-21 16:59:20.476,-1.001601,-0.9035009999999999,9.599085,0.5,-0.4,-4.1,0.02
3.06,3.027,2026-05-21 16:59:20.495,-0.972171,-0.9368550000000001,9.687375000000001,1.4,0.4,-2.8,0.019
3.08,3.048,2026-05-21 16:59:20.516,-1.065366,-0.8652420000000001,9.706995000000001,1.2,-0.3,-0.2,0.021
3.1,3.067,2026-05-21 16:59:20.535,-1.0810620000000002,-0.7897050000000001,9.816867000000002,1.4,-1.8,-1.4,0.019
3.12,3.086,2026-05-21 16:59:20.554,-0.9908100000000001,-0.852489,9.850221000000001,0.5,-1.1,-3.3,0.019
3.14,3.107,2026-05-21 16:59:20.575,-0.95157,-0.8475840000000001,9.906138,-0.1,0.4,-3.0,0.021
3.16,3.127,2026-05-21 16:59:20.595,-0.968247,-0.893691,9.745254,-0.7,0.4,-2.2,0.02
3.18,3.146,2026-05-21 16:59:20.614,-1.01043,-0.9084059999999999,9.735444,-0.6,-0.7,-1.0,0.019
3.2,3.166,2026-05-21 16:59:20.634,-1.007487,-0.828945,9.799209000000001,-0.4,-1.3,-0.8,0.02
3.22,3.186,2026-05-21 16:59:20.654,-1.086948,-0.7651800000000001,9.843354000000001,-1.6,-0.7,-1.6,0.02
3.24,3.205,2026-05-21 16:59:20.673,-1.070271,-0.8112870000000001,9.713862,-2.2,-0.1,-2.4,0.019
3.2600000000000002,3.225,2026-05-21 16:59:20.693,-1.0535940000000001,-0.859356,9.583389,-1.1,0.1,-1.8,0.02
3.2800000000000002,3.245,2026-05-21 16:59:20.713,-1.092834,-0.821097,9.617723999999999,0.0,0.0,-1.0,0.02
3.3000000000000003,3.265,2026-05-21 16:59:20.733,-1.032993,-0.8220780000000001,9.646173,1.0,-0.6,-2.6,0.02
3.3200000000000003,3.29,2026-05-21 16:59:20.758,-1.041822,-0.763218,9.719748,1.5,0.5,-0.9,0.025
3.34,3.304,2026-05-21 16:59:20.772,-1.091853,-0.74556,9.801171,0.0,-0.3,-0.7,0.014
3.36,3.324,2026-05-21 16:59:20.792,-1.084005,-0.7848,9.709938,0.2,-1.2,-2.3,0.02
3.38,3.344,2026-05-21 16:59:20.812,-1.005525,-0.80442,9.79038,0.0,-0.1,-2.0,0.02
3.4,3.364,2026-05-21 16:59:20.832,-1.034955,-0.782838,9.769779,-0.1,0.1,-1.7,0.02
3.42,3.383,2026-05-21 16:59:20.851,-1.034955,-0.861318,9.697185000000001,-0.1,-0.3,-2.2,0.019
3.44,3.403,2026-05-21 16:59:20.871,-1.02024,-0.8475840000000001,9.715824,0.5,-0.1,-1.7,0.02
3.46,3.423,2026-05-21 16:59:20.891,-1.04967,-0.8416980000000001,9.770760000000001,0.1,-0.8,-1.7,0.02
3.48,3.443,2026-05-21 16:59:20.911,-1.0800809999999998,-0.849546,9.74133,0.5,-0.3,-1.4,0.02
3.5,3.462,2026-05-21 16:59:20.930,-1.0663470000000002,-0.812268,9.789399000000001,-0.1,0.0,-1.4,0.019
3.52,3.483,2026-05-21 16:59:20.951,-1.071252,-0.807363,9.712881,0.2,0.0,-0.9,0.021
3.54,3.506,2026-05-21 16:59:20.974,-1.10853,-0.775971,9.818829,0.0,0.0,0.0,0.023
3.56,3.522,2026-05-21 16:59:20.990,-1.06929,-0.8142300000000001,9.693261,-0.4,-1.0,-3.0,0.016
3.58,3.542,2026-05-21 16:59:21.010,-1.0879290000000001,-0.7543890000000001,9.737406,0.8,0.6,-2.7,0.02
3.6,3.562,2026-05-21 16:59:21.030,-1.067328,-0.7955909999999999,9.738387000000001,-0.8,0.0,-2.5,0.02
3.62,3.581,2026-05-21 16:59:21.049,-1.06929,-0.818154,9.685413,-0.5,-0.9,-2.5,0.019
3.64,3.601,2026-05-21 16:59:21.069,-1.001601,-0.821097,9.688356,-0.6,-0.9,-0.7,0.02
3.66,3.621,2026-05-21 16:59:21.089,-1.012392,-0.868185,9.700128,0.6,0.3,-1.4,0.02
3.68,3.641,2026-05-21 16:59:21.109,-1.03986,-0.820116,9.676584,0.8,0.8,-1.8,0.02
3.7,3.661,2026-05-21 16:59:21.129,-1.134036,-0.70632,9.82962,1.2,1.0,-0.4,0.02
3.72,3.68,2026-05-21 16:59:21.148,-1.173276,-0.6337259999999999,9.81,0.0,-0.7,-1.6,0.019
3.74,3.7,2026-05-21 16:59:21.168,-1.0172970000000001,-0.717111,9.786456000000001,-0.8,-2.0,-4.4,0.02
3.7600000000000002,3.724,2026-05-21 16:59:21.192,-0.9662850000000001,-0.722997,9.919872000000002,-2.1,-0.9,-3.3,0.024
3.7800000000000002,3.74,2026-05-21 16:59:21.208,-1.181124,-0.7200540000000001,9.873765,-4.0,-0.5,0.4,0.016
3.8000000000000003,3.76,2026-05-21 16:59:21.228,-1.168371,-0.722997,9.827658000000001,-4.1,-1.3,-1.8,0.02
3.8200000000000003,3.78,2026-05-21 16:59:21.248,-1.146789,-0.8063820000000002,9.762912000000002,-4.5,-0.9,-3.8,0.02
3.84,3.799,2026-05-21 16:59:21.267,-1.0486890000000002,-0.9427409999999999,9.567693,-4.4,-1.3,-5.4,0.019
3.86,3.819,2026-05-21 16:59:21.287,-0.996696,-1.038879,9.552978000000001,-1.9,-1.1,-4.3,0.02
3.88,3.839,2026-05-21 16:59:21.307,-0.987867,-0.962361,9.59418,0.0,0.1,-1.5,0.02
3.9,3.858,2026-05-21 16:59:21.326,-1.037898,-0.880938,9.629496000000001,0.9,-0.7,-1.9,0.019
3.92,3.878,2026-05-21 16:59:21.346,-0.9957150000000001,-0.893691,9.687375000000001,1.0,-1.1,-3.0,0.02
3.94,3.898,2026-05-21 16:59:21.366,-1.024164,-0.868185,9.697185000000001,0.8,-0.3,-1.7,0.02
3.96,3.918,2026-05-21 16:59:21.386,-1.077138,-0.793629,9.745254,1.6,-0.2,0.0,0.02
3.98,3.938,2026-05-21 16:59:21.406,-1.05948,-0.790686,9.843354000000001,0.3,-0.7,-0.9,0.02
4.0,3.958,2026-05-21 16:59:21.426,-1.037898,-0.858375,9.797247,1.0,0.4,-2.9,0.02
4.0200000000000005,3.978,2026-05-21 16:59:21.446,-1.038879,-0.826983,9.85905,0.2,0.4,-3.0,0.02
4.04,3.998,2026-05-21 16:59:21.466,-1.0172970000000001,-0.9044820000000001,9.752121,-1.3,-0.8,-2.8,0.02
4.0600000000000005,4.017,2026-05-21 16:59:21.485,-0.9662850000000001,-0.915273,9.719748,-1.6,-1.4,-1.3,0.019
4.08,4.043,2026-05-21 16:59:21.511,-0.977076,-0.826002,9.730539,-0.7,-1.0,0.1,0.026
4.1,4.057,2026-05-21 16:59:21.525,-1.041822,-0.7867620000000001,9.807057,-1.4,-0.9,-0.8,0.014
4.12,4.077,2026-05-21 16:59:21.545,-1.086948,-0.844641,9.676584,-0.5,0.1,-1.6,0.02
4.14,4.096,2026-05-21 16:59:21.564,-1.092834,-0.8573940000000001,9.586332,0.3,0.2,-1.6,0.019
4.16,4.116,2026-05-21 16:59:21.584,-1.072233,-0.8338500000000001,9.665793,1.5,-0.4,-1.5,0.02
4.18,4.136,2026-05-21 16:59:21.604,-1.101663,-0.701415,9.723672,1.2,-1.1,-0.6,0.02
4.2,4.156,2026-05-21 16:59:21.624,-1.1075490000000001,-0.7867620000000001,9.707976,0.8,-1.7,-1.3,0.02
4.22,4.175,2026-05-21 16:59:21.643,-1.10853,-0.8387550000000001,9.661869000000001,1.8,-0.9,-2.4,0.019
4.24,4.195,2026-05-21 16:59:21.663,-1.04967,-0.7710659999999999,9.83943,2.7,0.1,-2.1,0.02
4.26,4.215,2026-05-21 16:59:21.683,-1.022202,-0.7995150000000001,9.862974000000001,0.7,-1.1,-3.5,0.02
4.28,4.235,2026-05-21 16:59:21.703,-0.982962,-0.816192,9.801171,0.4,-0.1,-1.3,0.02
4.3,4.257,2026-05-21 16:59:21.725,-1.027107,-0.8642610000000001,9.763893,-0.7,0.1,-1.3,0.022
4.32,4.273,2026-05-21 16:59:21.741,-1.026126,-0.860337,9.688356,1.3,0.4,-0.9,0.016
4.34,4.294,2026-05-21 16:59:21.762,-1.067328,-0.760275,9.775665000000002,0.3,-0.1,-0.8,0.021
4.36,4.315,2026-05-21 16:59:21.783,-1.116378,-0.758313,9.742311,0.5,-0.5,-1.4,0.021
4.38,4.334,2026-05-21 16:59:21.802,-1.101663,-0.733788,9.802152000000001,0.0,-0.7,-2.3,0.019
4.4,4.354,2026-05-21 16:59:21.822,-1.076157,-0.7867620000000001,9.704052,-0.8,0.3,-1.2,0.02
4.42,4.374,2026-05-21 16:59:21.842,-1.126188,-0.8338500000000001,9.674622000000001,-0.3,0.4,-2.5,0.02
4.44,4.393,2026-05-21 16:59:21.861,-1.173276,-1.018278,9.646173,0.9,-0.2,-3.9,0.019
4.46,4.413,2026-05-21 16:59:21.881,-1.243908,-1.24587,9.663831,2.6,-0.7,-4.9,0.02
4.48,4.433,2026-05-21 16:59:21.901,-1.5931440000000003,-1.077138,10.185723000000001,4.6,0.6,-9.0,0.02
4.5,4.452,2026-05-21 16:59:21.920,-2.025765,-1.287072,10.562427,2.2,1.5,-16.4,0.019
4.5200000000000005,4.475,2026-05-21 16:59:21.943,-2.059119,-1.9070640000000003,11.152008,-6.9,-7.0,-25.4,0.023
4.54,4.492,2026-05-21 16:59:21.960,-0.877995,-2.7026550000000005,11.808297000000001,-12.4,-25.7,-31.5,0.017
4.5600000000000005,4.512,2026-05-21 16:59:21.980,0.08338500000000001,-3.8308050000000002,11.315835,-19.1,-25.1,-25.8,0.02
4.58,4.532,2026-05-21 16:59:22.000,0.850527,-4.543992,10.360340999999998,-19.6,-3.5,-15.4,0.02
4.6000000000000005,4.551,2026-05-21 16:59:22.019,0.34335000000000004,-4.3262100000000006,10.853784000000001,-13.6,8.4,-3.4,0.019
4.62,4.571,2026-05-21 16:59:22.039,-0.826002,-3.8484630000000006,10.901853000000001,-21.2,0.7,11.6,0.02
4.64,4.59,2026-05-21 16:59:22.058,-0.947646,-3.7228950000000003,10.235754000000002,-15.0,0.7,12.4,0.019
4.66,4.611,2026-05-21 16:59:22.079,-0.29626199999999997,-4.103523,9.687375000000001,7.1,19.5,-11.4,0.021
4.68,4.63,2026-05-21 16:59:22.098,0.483633,-4.328172,9.301842,29.0,51.5,-33.3,0.019
4.7,4.65,2026-05-21 16:59:22.118,-0.15990300000000002,-3.7287810000000006,10.045440000000001,26.1,63.3,-12.5,0.02
4.72,4.67,2026-05-21 16:59:22.138,-1.5588090000000001,-3.0940739999999995,9.817848,-1.5,38.3,30.6,0.02
4.74,4.692,2026-05-21 16:59:22.160,-2.0130120000000002,-2.812527,8.511156000000001,-36.9,10.3,58.4,0.022
4.76,4.709,2026-05-21 16:59:22.177,-1.8325080000000002,-2.624175,7.708698,-34.3,1.1,41.8,0.017
4.78,4.73,2026-05-21 16:59:22.198,-1.2939390000000002,-2.426013,6.866019,-33.9,11.5,12.3,0.021
4.8,4.75,2026-05-21 16:59:22.218,-0.349236,-1.606878,6.224445,-21.6,30.2,4.9,0.02
4.82,4.769,2026-05-21 16:59:22.237,-2.8027170000000003,-3.410937,3.562992,-52.5,28.4,2.9,0.019
4.84,4.789,2026-05-21 16:59:22.257,-1.9129500000000002,1.7883630000000004,10.111167,143.5,24.0,32.4,0.02
4.86,4.808,2026-05-21 16:59:22.276,-1.5823530000000001,0.8230590000000001,9.355797,-2.0,-30.1,28.4,0.019
4.88,4.829,2026-05-21 16:59:22.297,-0.583695,1.703997,8.635743,5.3,-51.6,26.1,0.021
4.9,4.848,2026-05-21 16:59:22.316,-0.051012,2.07972,8.185464000000001,29.1,-21.7,30.5,0.019
4.92,4.868,2026-05-21 16:59:22.336,-0.8995770000000001,2.7389520000000003,10.473156,59.1,23.8,29.8,0.02
4.94,4.888,2026-05-21 16:59:22.356,-2.139561,3.579669,11.014668,4.6,22.9,46.1,0.02
4.96,4.908,2026-05-21 16:59:22.376,-3.5276760000000005,3.578688,10.017972000000002,-5.6,-22.6,44.9,0.02
4.98,4.928,2026-05-21 16:59:22.396,-3.8582730000000005,3.2235660000000004,9.618705,6.5,-59.9,15.2,0.02
5.0,4.947,2026-05-21 16:59:22.415,-2.596707,2.33478,10.648755,20.6,-41.0,-25.7,0.019
5.0200000000000005,4.967,2026-05-21 16:59:22.435,-0.826002,1.620612,10.26126,8.6,14.9,-37.1,0.02
5.04,4.986,2026-05-21 16:59:22.454,-0.9692280000000001,1.012392,9.895347000000003,6.1,38.4,-26.9,0.019
5.0600000000000005,5.006,2026-05-21 16:59:22.474,-1.686339,1.164447,9.157635,23.4,44.4,-6.7,0.02
5.08,5.026,2026-05-21 16:59:22.494,-2.044404,0.79461,9.580446,27.0,4.0,-14.5,0.02
5.1000000000000005,5.046,2026-05-21 16:59:22.514,-1.352799,0.7082820000000001,9.58437,34.7,-30.0,-21.4,0.02
5.12,5.065,2026-05-21 16:59:22.533,-0.874071,0.702396,9.857088,38.5,-25.4,-11.5,0.019
5.14,5.085,2026-05-21 16:59:22.553,-1.219383,0.7671420000000001,10.007181000000001,31.4,-4.1,-4.8,0.02
5.16,5.105,2026-05-21 16:59:22.573,-1.3008060000000001,1.2556800000000001,10.023858,23.7,8.4,-1.0,0.02
5.18,5.126,2026-05-21 16:59:22.594,-1.46169,1.634346,9.777627,20.7,10.7,9.4,0.021
5.2,5.145,2026-05-21 16:59:22.613,-2.0463660000000004,2.032632,10.008162,29.9,12.3,9.7,0.019
5.22,5.165,2026-05-21 16:59:22.633,-1.733427,2.48193,10.482966000000001,23.6,11.4,-0.2,0.02
5.24,5.185,2026-05-21 16:59:22.653,-1.8432990000000002,2.4721200000000003,9.869841000000001,5.0,3.2,-1.2,0.02
5.26,5.204,2026-05-21 16:59:22.672,-1.407735,2.6643960000000004,9.700128,0.7,-9.7,0.2,0.019
5.28,5.224,2026-05-21 16:59:22.692,-1.2350790000000003,3.1107510000000005,9.909081,1.7,-13.4,6.7,0.02
5.3,5.244,2026-05-21 16:59:22.712,-1.2517559999999999,4.107447,10.289709000000002,-1.2,-12.4,10.8,0.02
5.32,5.264,2026-05-21 16:59:22.732,-1.694187,4.78728,10.317177000000001,-0.6,-13.2,8.3,0.02
5.34,5.284,2026-05-21 16:59:22.752,-1.9865250000000003,4.965822,10.484928,-8.9,-18.3,-1.7,0.02
5.36,5.303,2026-05-21 16:59:22.771,-1.978677,5.204205,10.591857000000001,-28.8,-20.0,-11.8,0.019
5.38,5.323,2026-05-21 16:59:22.791,-1.22625,5.459265,9.80019,-52.3,-12.8,-26.1,0.02
5.4,5.345,2026-05-21 16:59:22.813,-0.520911,5.4013860000000005,9.803133,-40.1,-0.4,-41.1,0.022
5.42,5.362,2026-05-21 16:59:22.830,-1.407735,4.5979470000000005,9.658926000000001,-47.5,10.2,-48.4,0.017
5.44,5.383,2026-05-21 16:59:22.851,-2.7634770000000004,4.044663,8.226666,-69.3,0.1,-44.3,0.021
5.46,5.402,2026-05-21 16:59:22.870,-2.1719340000000003,3.218661,7.012188,-74.8,-28.5,-47.5,0.019
5.48,5.422,2026-05-21 16:59:22.890,-1.0172970000000001,1.9816200000000002,7.5370230000000005,-44.3,-39.3,-60.2,0.02
5.5,5.442,2026-05-21 16:59:22.910,-0.692586,0.704358,8.323785,-46.3,-36.3,-59.0,0.02
5.5200000000000005,5.461,2026-05-21 16:59:22.929,-0.38259000000000004,-0.7730279999999999,8.455239,-43.4,-37.4,-54.1,0.019
5.54,5.482,2026-05-21 16:59:22.950,1.082043,-2.447595,8.113851,-34.6,-37.0,-53.6,0.021
5.5600000000000005,5.501,2026-05-21 16:59:22.969,1.189953,-3.936753,7.596864,-19.4,-29.8,-34.0,0.019
5.58,5.521,2026-05-21 16:59:22.989,0.23347800000000002,-4.6107,8.476821000000001,-5.0,-24.5,-4.4,0.02
5.6000000000000005,5.541,2026-05-21 16:59:23.009,0.5169870000000001,-4.994271,9.294975,-4.3,-25.4,-9.2,0.02
5.62,5.56,2026-05-21 16:59:23.028,1.195839,-5.7447360000000005,9.222381,1.8,-13.4,-16.8,0.019
5.64,5.581,2026-05-21 16:59:23.049,1.093815,-5.860493999999999,8.937891,34.8,7.3,-10.3,0.021
5.66,5.6,2026-05-21 16:59:23.068,0.9260640000000001,-5.020758000000001,9.550035000000001,64.3,30.3,2.0,0.019
5.68,5.619,2026-05-21 16:59:23.087,0.48559500000000005,-4.9383539999999995,10.130787,52.0,36.5,5.1,0.019
5.7,5.639,2026-05-21 16:59:23.107,-0.24623100000000003,-4.480227,8.958492000000001,51.1,32.7,5.2,0.02
5.72,5.659,2026-05-21 16:59:23.127,0.7328070000000001,-4.3105139999999995,10.517300999999998,43.8,17.3,13.5,0.02
5.74,5.679,2026-05-21 16:59:23.147,1.109511,-3.8180520000000002,10.946979000000002,45.6,10.0,29.5,0.02
5.76,5.699,2026-05-21 16:59:23.167,-0.0981,-2.9145510000000003,10.727235,20.7,12.4,44.9,0.02
5.78,5.719,2026-05-21 16:59:23.187,-1.3684950000000002,-2.3308560000000003,10.277937000000001,10.3,15.2,44.7,0.02
5.8,5.738,2026-05-21 16:59:23.206,-1.5980490000000003,-2.254338,9.720729,33.8,15.2,32.5,0.019
5.82,5.759,2026-05-21 16:59:23.227,-2.327913,-1.315521,10.394675999999999,33.8,18.8,26.6,0.021
5.84,5.78,2026-05-21 16:59:23.248,-2.9930310000000007,-0.858375,10.806696,27.2,12.7,19.6,0.021
5.86,5.798,2026-05-21 16:59:23.266,-2.292597,-0.9123300000000001,10.839069,5.7,-7.8,4.5,0.018
5.88,5.818,2026-05-21 16:59:23.286,-1.0947959999999999,-1.2517559999999999,10.594800000000001,-6.7,-21.7,-4.8,0.02
5.9,5.837,2026-05-21 16:59:23.305,-0.5277780000000001,-1.16739,10.041516000000001,5.8,-14.5,5.0,0.019
5.92,5.857,2026-05-21 16:59:23.325,-0.967266,-0.35316,10.605591,14.2,6.8,6.5,0.02
5.94,5.877,2026-05-21 16:59:23.345,-1.6186500000000001,0.3924,11.082357000000002,3.6,9.8,0.0,0.02
5.96,5.897,2026-05-21 16:59:23.365,-1.2497940000000003,0.257022,10.454517000000001,-13.3,-13.0,-1.0,0.02
5.98,5.916,2026-05-21 16:59:23.384,-0.321768,-0.12753,9.981675000000001,-14.0,-20.6,-0.2,0.019
6.0,5.936,2026-05-21 16:59:23.404,-0.056898,-0.18246600000000002,9.803133,-7.4,0.0,5.3,0.02
6.0200000000000005,5.956,2026-05-21 16:59:23.424,-0.6101820000000001,0.16480800000000004,9.812943,-0.4,21.7,15.5,0.02
6.04,5.976,2026-05-21 16:59:23.444,-1.4852340000000002,0.587619,9.817848,-2.6,20.5,18.3,0.02
6.0600000000000005,5.995,2026-05-21 16:59:23.463,-1.457766,0.473823,9.511776000000001,-10.0,-0.9,11.8,0.019
6.08,6.015,2026-05-21 16:59:23.483,-1.273338,0.022563,9.362664,-8.6,-10.7,5.2,0.02
6.1000000000000005,6.035,2026-05-21 16:59:23.503,-1.7834580000000002,-0.289395,9.041877000000001,2.3,8.6,-1.1,0.02
6.12,6.055,2026-05-21 16:59:23.523,-2.264148,-0.5944860000000001,9.046782,10.3,22.3,-9.6,0.02
6.140000000000001,6.075,2026-05-21 16:59:23.543,-1.760895,-0.913311,9.220419,4.3,12.9,-19.0,0.02
6.16,6.094,2026-05-21 16:59:23.562,-1.084005,-1.460709,9.243962999999999,-0.1,-2.8,-16.2,0.019
6.18,6.114,2026-05-21 16:59:23.582,-1.1781810000000001,-1.4999490000000002,9.498042000000002,2.9,-8.3,-5.7,0.02
6.2,6.134,2026-05-21 16:59:23.602,-2.002221,-1.392039,10.136673,16.4,3.8,-15.1,0.02
6.22,6.153,2026-05-21 16:59:23.621,-1.983582,-1.5578280000000002,10.951884000000002,10.4,17.5,-38.9,0.019
6.24,6.173,2026-05-21 16:59:23.641,-1.541151,-2.466234,10.548693,-17.3,0.2,-35.7,0.02
6.26,6.192,2026-05-21 16:59:23.660,-1.532322,-3.253977,9.303804000000001,-36.1,-33.5,-17.1,0.019
6.28,6.213,2026-05-21 16:59:23.681,-0.486576,-2.774268,9.187065,-15.4,-46.4,-22.6,0.021
6.3,6.232,2026-05-21 16:59:23.700,-0.317844,-2.220003,10.838088,19.7,-17.8,-41.8,0.019
6.32,6.253,2026-05-21 16:59:23.721,-0.614106,-1.9453230000000001,11.641527000000002,21.8,24.9,-50.7,0.021
6.34,6.273,2026-05-21 16:59:23.741,-0.7082820000000001,-1.9266840000000003,11.685672,14.3,37.5,-48.6,0.02
6.36,6.292,2026-05-21 16:59:23.760,-0.626859,-2.108169,11.349189,-19.4,25.0,-35.9,0.019
6.38,6.311,2026-05-21 16:59:23.779,-0.144207,-2.336742,10.221039000000001,-31.0,-11.7,-28.0,0.019
6.4,6.332,2026-05-21 16:59:23.800,0.478728,-2.3956020000000002,10.895967,-20.4,-27.5,-30.3,0.021
6.42,6.352,2026-05-21 16:59:23.820,0.214839,-2.917494,10.364265,-16.7,2.2,-34.2,0.02
6.44,6.372,2026-05-21 16:59:23.840,-1.20663,-1.8521280000000002,10.282842,27.0,48.8,-36.7,0.02
6.46,6.392,2026-05-21 16:59:23.860,-1.8923490000000003,-1.6117830000000002,10.390752000000003,-13.4,37.2,-23.1,0.02
6.48,6.411,2026-05-21 16:59:23.879,-2.38383,-1.4381460000000001,9.726615,-66.3,-32.0,-9.2,0.019
6.5,6.43,2026-05-21 16:59:23.898,-1.3812480000000003,-1.2233070000000001,7.178958000000001,-59.7,-91.5,-14.6,0.019
6.5200000000000005,6.451,2026-05-21 16:59:23.919,0.668061,-1.5431130000000004,7.6361040000000004,12.5,-78.0,-45.8,0.021
6.54,6.47,2026-05-21 16:59:23.938,0.40221,0.059841,9.622629,30.0,-13.7,-55.2,0.019
6.5600000000000005,6.49,2026-05-21 16:59:23.958,0.408096,0.074556,8.669097,-18.8,5.8,6.4,0.02
6.58,6.509,2026-05-21 16:59:23.977,1.574505,0.646479,7.657686000000001,-68.6,-61.9,71.5,0.019
6.6000000000000005,6.535,2026-05-21 16:59:24.003,1.3135590000000001,3.7071989999999997,8.372835,-54.6,-135.3,106.8,0.026
6.62,6.549,2026-05-21 16:59:24.017,2.5702200000000004,4.602852,7.491897000000001,162.2,-87.1,104.8,0.014
6.640000000000001,6.569,2026-05-21 16:59:24.037,1.08891,2.879235,10.463346,52.9,29.3,50.2,0.02
6.66,6.589,2026-05-21 16:59:24.057,-0.10692900000000001,4.3154189999999994,10.610496,42.3,95.9,40.3,0.02
6.68,6.608,2026-05-21 16:59:24.076,-1.5637140000000003,4.670541,10.457460000000001,9.6,48.5,81.4,0.019
6.7,6.629,2026-05-21 16:59:24.097,-2.0041830000000003,4.4557020000000005,10.143540000000002,15.0,-26.8,72.1,0.021
6.72,6.648,2026-05-21 16:59:24.116,-0.762237,3.165687,10.544769000000002,4.4,-30.0,17.2,0.019
6.74,6.668,2026-05-21 16:59:24.136,0.646479,1.703997,10.387809000000003,5.6,19.8,-21.8,0.02
6.76,6.688,2026-05-21 16:59:24.156,0.5827140000000001,1.50093,9.519624,3.6,53.7,9.5,0.02
6.78,6.708,2026-05-21 16:59:24.176,-1.104606,1.825641,9.886518,15.3,37.1,30.8,0.02
6.8,6.727,2026-05-21 16:59:24.195,-1.132074,1.9943730000000002,10.396638,19.6,3.2,4.6,0.019
6.82,6.754,2026-05-21 16:59:24.222,-0.237402,1.4381460000000001,10.538883,14.5,1.5,-7.4,0.027
6.84,6.767,2026-05-21 16:59:24.235,-0.50031,1.00062,10.095471,4.3,21.0,6.2,0.013
6.86,6.786,2026-05-21 16:59:24.254,-0.7651800000000001,0.9535320000000002,9.81,-0.4,15.4,10.0,0.019
6.88,6.807,2026-05-21 16:59:24.275,-0.762237,0.7612559999999999,10.161198,0.0,-9.2,5.4,0.021
6.9,6.827,2026-05-21 16:59:24.295,-0.446355,0.376704,10.196514000000002,-1.6,-14.0,5.3,0.02
6.92,6.846,2026-05-21 16:59:24.314,-0.653346,0.17756100000000002,9.699147,1.8,7.9,7.3,0.019
6.94,6.866,2026-05-21 16:59:24.334,-0.7710659999999999,0.18246600000000002,9.666774,6.3,23.1,3.5,0.02
6.96,6.886,2026-05-21 16:59:24.354,-1.032993,0.142245,9.801171,2.1,14.1,0.9,0.02
6.98,6.906,2026-05-21 16:59:24.374,-0.409077,0.034335000000000004,10.017972000000002,3.7,0.7,-5.7,0.02
7.0,6.925,2026-05-21 16:59:24.393,-0.25800300000000004,-0.016677,9.746235,0.9,1.8,-3.1,0.019
7.0200000000000005,6.945,2026-05-21 16:59:24.413,-0.815211,0.183447,9.511776000000001,-0.6,11.0,12.1,0.02
7.04,6.966,2026-05-21 16:59:24.434,-1.204668,0.59841,9.363645,0.6,1.1,11.5,0.021
7.0600000000000005,6.985,2026-05-21 16:59:24.453,-1.093815,1.0231830000000002,9.58437,3.5,-11.8,5.6,0.019
7.08,7.004,2026-05-21 16:59:24.472,-0.852489,1.753047,10.347588,5.3,-6.0,3.1,0.019
7.1000000000000005,7.025,2026-05-21 16:59:24.493,-0.844641,2.270034,10.66347,-5.7,-0.5,2.0,0.021
7.12,7.044,2026-05-21 16:59:24.512,-0.968247,2.7222750000000002,10.132749000000002,-13.7,-8.5,9.9,0.019
7.140000000000001,7.063,2026-05-21 16:59:24.531,-1.119321,3.539448,10.143540000000002,-11.0,-17.6,14.3,0.019
7.16,7.084,2026-05-21 16:59:24.552,-0.9084059999999999,4.377222,10.462365,-14.5,-23.8,12.5,0.021
7.18,7.103,2026-05-21 16:59:24.571,-1.018278,4.238901,10.540845000000001,-25.3,-31.5,6.5,0.019
7.2,7.123,2026-05-21 16:59:24.591,-1.1889720000000001,4.075074,10.787075999999999,-43.6,-34.3,3.0,0.02
7.22,7.143,2026-05-21 16:59:24.611,-1.058499,4.0387770000000005,9.964017,-65.7,-26.9,-4.1,0.02
7.24,7.163,2026-05-21 16:59:24.631,-0.19423800000000002,3.986784,9.213552,-58.9,-12.6,-17.0,0.02
7.26,7.182,2026-05-21 16:59:24.650,0.5738850000000001,3.3550200000000006,9.805095000000001,-28.0,0.1,-33.0,0.019
7.28,7.202,2026-05-21 16:59:24.670,0.121644,2.606517,10.571256,-47.1,-3.0,-24.0,0.02
7.3,7.222,2026-05-21 16:59:24.690,0.344331,1.587258,8.696565,-71.9,-12.7,-16.3,0.02
7.32,7.242,2026-05-21 16:59:24.710,1.126188,0.583695,7.717527000000001,-50.3,-0.1,-36.3,0.02
7.34,7.261,2026-05-21 16:59:24.729,0.9957150000000001,-0.366894,7.593921000000001,-13.2,28.9,-50.2,0.019
7.36,7.284,2026-05-21 16:59:24.752,0.426735,-1.570581,8.396379,4.2,29.7,-43.6,0.023
7.38,7.301,2026-05-21 16:59:24.769,0.447336,-1.776591,8.079516,6.3,22.1,-32.5,0.017
7.4,7.321,2026-05-21 16:59:24.789,-0.051993000000000004,-1.6853580000000001,8.487612,25.2,40.5,-25.6,0.02
7.42,7.341,2026-05-21 16:59:24.809,-2.0041830000000003,-1.7432370000000001,10.420182,27.0,43.8,-6.8,0.02
7.44,7.36,2026-05-21 16:59:24.828,-1.273338,-2.7046170000000003,10.803753,-25.1,-13.0,-8.9,0.019
7.46,7.38,2026-05-21 16:59:24.848,1.1850479999999999,-4.388013000000001,8.912385,-33.5,-33.9,-33.8,0.02
7.48,7.401,2026-05-21 16:59:24.869,1.654947,-4.868703,8.698527,2.9,8.1,-19.1,0.021
7.5,7.42,2026-05-21 16:59:24.888,0.17952300000000002,-5.4779040000000006,10.448631,2.8,28.3,14.4,0.019
7.5200000000000005,7.44,2026-05-21 16:59:24.908,1.446975,-5.746698,9.577503,-4.6,-5.8,2.9,0.02
7.54,7.46,2026-05-21 16:59:24.928,2.3181030000000002,-5.7015720000000005,9.995409,21.0,-10.0,15.4,0.02
7.5600000000000005,7.479,2026-05-21 16:59:24.947,1.41264,-5.131611,10.078794000000002,23.5,29.6,34.0,0.019
7.58,7.501,2026-05-21 16:59:24.969,-0.24230700000000002,-4.935411,9.95715,30.9,57.8,52.5,0.022
7.6000000000000005,7.518,2026-05-21 16:59:24.986,-0.782838,-4.3870320000000005,9.400923,14.4,28.4,52.1,0.017
7.62,7.539,2026-05-21 16:59:25.007,-1.140903,-3.9730500000000006,9.704052,24.4,4.9,44.9,0.021
7.640000000000001,7.558,2026-05-21 16:59:25.026,-1.8707669999999998,-3.2863500000000005,10.159236,12.2,21.4,28.2,0.019
7.66,7.578,2026-05-21 16:59:25.046,-2.1758580000000003,-3.0577769999999997,9.98658,13.5,30.5,20.7,0.02
7.68,7.598,2026-05-21 16:59:25.066,-2.790945,-2.691864,9.448992,6.2,16.9,22.2,0.02
7.7,7.618,2026-05-21 16:59:25.086,-3.1823639999999997,-2.2965210000000003,8.738748,1.8,-16.6,29.5,0.02
7.72,7.637,2026-05-21 16:59:25.105,-3.1421430000000004,-1.5342840000000002,9.179217000000001,17.9,-18.1,13.0,0.019
7.74,7.657,2026-05-21 16:59:25.125,-2.252376,-1.043784,9.663831,23.7,3.9,-17.5,0.02
7.76,7.676,2026-05-21 16:59:25.144,-1.6127640000000003,-0.641574,10.015029,18.0,1.1,-21.8,0.019
7.78,7.697,2026-05-21 16:59:25.165,-1.408716,-0.517968,10.269108,8.2,-15.3,-3.1,0.021
7.8,7.716,2026-05-21 16:59:25.184,-1.455804,-0.318825,10.356417000000002,0.2,-10.2,0.0,0.019
7.82,7.736,2026-05-21 16:59:25.204,-1.311597,-0.31686299999999995,10.1043,1.4,2.0,-9.3,0.02
7.84,7.756,2026-05-21 16:59:25.224,-0.929988,-0.468918,10.082718000000002,3.9,3.4,-13.6,0.02
7.86,7.776,2026-05-21 16:59:25.244,-0.597429,-0.357084,10.067022,1.5,4.8,-9.0,0.02
7.88,7.796,2026-05-21 16:59:25.264,-0.6337259999999999,-0.30509100000000006,10.11411,-2.8,0.3,1.0,0.02
7.9,7.816,2026-05-21 16:59:25.284,-0.7730279999999999,-0.429678,9.807057,-4.2,1.4,0.4,0.02
7.92,7.836,2026-05-21 16:59:25.304,-0.893691,-0.38749500000000003,9.498042000000002,0.2,10.2,-3.6,0.02
7.94,7.855,2026-05-21 16:59:25.323,-1.047708,-0.394362,9.541206,0.3,7.3,-5.4,0.019
7.96,7.875,2026-05-21 16:59:25.343,-1.0947959999999999,-0.413982,9.64323,-2.5,-1.6,-1.0,0.02
7.98,7.895,2026-05-21 16:59:25.363,-1.041822,-0.532683,9.547092000000001,-3.0,-4.0,1.3,0.02
8.0,7.914,2026-05-21 16:59:25.382,-0.7180920000000001,-0.6278400000000001,9.536301000000002,-1.5,0.1,-3.7,0.019
8.02,7.934,2026-05-21 16:59:25.402,-0.6425550000000001,-0.6847380000000001,9.689337,3.8,0.3,-3.5,0.02
8.040000000000001,7.954,2026-05-21 16:59:25.422,-0.75537,-0.513063,10.039554,1.9,-0.5,1.7,0.02
8.06,7.974,2026-05-21 16:59:25.442,-1.2350790000000003,-0.6494220000000002,9.699147,-2.3,0.0,2.7,0.02
8.08,7.994,2026-05-21 16:59:25.462,-1.183086,-0.9702090000000001,9.254754,0.1,-2.0,-3.2,0.02
8.1,8.013,2026-05-21 16:59:25.481,-1.199763,-0.8917290000000001,9.518642999999999,4.8,-2.0,-2.2,0.019
8.120000000000001,8.04,2026-05-21 16:59:25.508,-1.452861,-0.730845,9.585351000000001,7.6,5.7,-4.6,0.027
8.14,8.053,2026-05-21 16:59:25.521,-1.4508990000000002,-0.604296,9.585351000000001,7.1,3.9,-5.9,0.013
8.16,8.073,2026-05-21 16:59:25.541,-1.427355,-0.468918,9.756045,5.1,-7.2,-0.5,0.02
8.18,8.092,2026-05-21 16:59:25.560,-1.4744430000000002,-0.7524270000000001,10.070946,4.1,-6.3,-7.7,0.019
8.2,8.113,2026-05-21 16:59:25.581,-1.409697,-1.0732140000000001,9.899271000000002,4.9,8.4,-15.3,0.021
8.22,8.132,2026-05-21 16:59:25.600,-1.40283,-1.587258,9.568674,3.5,9.2,-16.0,0.019
8.24,8.153,2026-05-21 16:59:25.621,-1.075176,-2.095416,9.502947,2.8,-3.0,-15.4,0.021
8.26,8.171,2026-05-21 16:59:25.639,-0.9368550000000001,-2.1709530000000004,10.193571,6.9,-5.6,-21.2,0.018
8.28,8.191,2026-05-21 16:59:25.659,-1.01043,-2.1366180000000004,10.517300999999998,22.9,21.3,-37.7,0.02
8.3,8.211,2026-05-21 16:59:25.679,-0.9564750000000001,-1.789344,11.235393,23.2,51.2,-42.3,0.02
8.32,8.23,2026-05-21 16:59:25.698,-1.130112,-1.829565,11.498301,8.0,47.5,-28.5,0.019
8.34,8.251,2026-05-21 16:59:25.719,-1.045746,-2.498607,10.706634000000003,-32.2,-4.4,4.0,0.021
8.36,8.271,2026-05-21 16:59:25.739,-0.49050000000000005,-2.660472,10.499643,-38.6,-46.2,16.3,0.02
8.38,8.291,2026-05-21 16:59:25.759,-0.991791,-2.692845,10.728216,-25.8,-26.9,6.7,0.02
8.4,8.31,2026-05-21 16:59:25.778,-1.264509,-3.307932,10.274994000000001,-2.5,32.5,-20.3,0.019
8.42,8.33,2026-05-21 16:59:25.798,-1.082043,-3.6679589999999997,10.499643,2.4,67.5,-36.4,0.02
8.44,8.35,2026-05-21 16:59:25.818,-1.310616,-3.6816930000000005,9.664812000000001,-30.0,29.5,0.3,0.02
8.46,8.371,2026-05-21 16:59:25.839,-1.8737100000000002,-3.621852,8.440524,-40.1,-38.7,39.5,0.021
8.48,8.39,2026-05-21 16:59:25.858,-2.320065,-3.8759310000000005,8.060877000000001,-7.5,-45.0,17.9,0.019
8.5,8.409,2026-05-21 16:59:25.877,-2.4417090000000004,-4.284027,7.905879,35.2,21.8,-37.0,0.019
8.52,8.428,2026-05-21 16:59:25.896,-2.6271180000000003,-3.253977,9.32931,45.7,66.0,-51.8,0.019
8.540000000000001,8.449,2026-05-21 16:59:25.917,-1.6255169999999999,-2.9930310000000007,9.827658000000001,-18.3,-10.7,-2.9,0.021
8.56,8.469,2026-05-21 16:59:25.937,-0.293319,-3.44331,8.72109,-61.0,-121.0,38.8,0.02
8.58,8.488,2026-05-21 16:59:25.956,0.5160060000000001,-3.14901,8.793684,-47.6,-123.6,29.3,0.019
8.6,8.508,2026-05-21 16:59:25.976,0.7190730000000001,-2.059119,8.522928,8.9,-20.2,-3.0,0.02
8.620000000000001,8.528,2026-05-21 16:59:25.996,-1.347894,-0.469899,9.248868,56.0,95.6,-9.7,0.02
8.64,8.547,2026-05-21 16:59:26.015,-1.24587,1.097739,7.528194,67.4,115.4,-0.5,0.019
8.66,8.567,2026-05-21 16:59:26.035,-1.9884870000000001,4.9795560000000005,9.215514,71.6,81.7,-16.4,0.02
8.68,8.587,2026-05-21 16:59:26.055,0.38259000000000004,6.237197999999999,11.333493,171.0,79.2,-13.8,0.02
8.700000000000001,8.606,2026-05-21 16:59:26.074,-0.950589,4.62051,9.547092000000001,4.0,36.5,20.8,0.019
8.72,8.627,2026-05-21 16:59:26.095,-2.304369,4.477284,8.250210000000001,-22.7,-57.8,81.2,0.021
8.74,8.647,2026-05-21 16:59:26.115,-3.145086,4.784337,7.765596,-18.1,-122.6,73.0,0.02
8.76,8.666,2026-05-21 16:59:26.134,-1.455804,4.517505000000001,9.633420000000001,19.9,-74.3,14.8,0.019
8.78,8.693,2026-05-21 16:59:26.161,-0.6955290000000001,4.319343000000001,11.460042000000001,33.8,37.4,-45.6,0.027
8.8,8.706,2026-05-21 16:59:26.174,-0.336483,3.5620110000000005,9.974808,7.8,47.6,-13.3,0.013
8.82,8.726,2026-05-21 16:59:26.194,-0.7671420000000001,3.121542,8.817228,-19.1,-35.8,48.2,0.02
8.84,8.745,2026-05-21 16:59:26.213,-2.220003,3.7572300000000003,9.81,8.6,-82.1,52.3,0.019
8.86,8.766,2026-05-21 16:59:26.234,-2.814489,3.1617630000000005,10.550654999999999,21.1,-37.7,9.0,0.021
8.88,8.786,2026-05-21 16:59:26.254,-2.018898,2.581011,10.542807,15.5,31.6,-25.9,0.02
8.9,8.805,2026-05-21 16:59:26.273,-0.9908100000000001,1.6775100000000003,9.841392,14.3,22.7,-13.7,0.019
8.92,8.825,2026-05-21 16:59:26.293,-0.52974,1.330236,10.143540000000002,4.6,-28.1,1.1,0.02
8.94,8.844,2026-05-21 16:59:26.312,-0.9064440000000001,1.3223880000000001,10.047402,1.8,-37.6,11.9,0.019
8.96,8.864,2026-05-21 16:59:26.332,-0.859356,1.15758,10.274013,2.8,-11.1,-7.8,0.02
8.98,8.885,2026-05-21 16:59:26.353,-0.29135700000000003,1.004544,10.627172999999999,-1.6,-1.4,-12.2,0.021
9.0,8.904,2026-05-21 16:59:26.372,0.104967,0.622935,10.645812,-11.2,-5.8,3.7,0.019
9.02,8.924,2026-05-21 16:59:26.392,-0.84366,0.38357100000000005,9.47646,-16.5,-18.0,19.4,0.02
9.040000000000001,8.944,2026-05-21 16:59:26.412,-1.224288,0.47088,9.225324,-2.2,-2.9,7.6,0.02
9.06,8.963,2026-05-21 16:59:26.431,-1.4165640000000002,0.5886,9.725634,7.5,23.1,-10.7,0.019
9.08,8.983,2026-05-21 16:59:26.451,-0.630783,0.38651399999999997,9.905157,3.4,15.2,-13.4,0.02
9.1,9.003,2026-05-21 16:59:26.471,-0.28547100000000003,0.436545,9.900252000000002,-6.1,-12.3,4.2,0.02
9.120000000000001,9.022,2026-05-21 16:59:26.490,-0.702396,0.6817950000000002,9.864936,-2.6,-16.5,18.9,0.019
9.14,9.042,2026-05-21 16:59:26.510,-1.172295,0.9849240000000001,9.963036,-0.2,8.1,3.2,0.02
9.16,9.062,2026-05-21 16:59:26.530,-1.104606,1.3027680000000001,9.876707999999999,1.2,23.5,-6.1,0.02
9.18,9.082,2026-05-21 16:59:26.550,-0.793629,1.6255169999999999,10.197495000000002,-5.8,4.0,-1.3,0.02
9.200000000000001,9.102,2026-05-21 16:59:26.570,-0.876033,1.9698480000000003,10.213191,-13.3,-19.3,6.2,0.02
9.22,9.129,2026-05-21 16:59:26.597,-1.0879290000000001,2.4348419999999997,10.234772999999999,-11.2,-13.1,3.8,0.027
9.24,9.141,2026-05-21 16:59:26.609,-1.151694,3.2883120000000003,10.046421,-8.8,7.8,-6.6,0.012
9.26,9.161,2026-05-21 16:59:26.629,-1.2684330000000001,4.207509,10.252431,-9.9,12.3,-7.3,0.02
9.28,9.181,2026-05-21 16:59:26.649,-1.7432370000000001,4.467474,10.217115000000002,-26.0,-7.7,-4.9,0.02
9.3,9.2,2026-05-21 16:59:26.668,-2.362248,4.380165,9.893385,-39.3,-35.2,-5.6,0.019
9.32,9.22,2026-05-21 16:59:26.688,-1.1870100000000001,4.1888700000000005,9.30969,-50.1,-46.9,-21.5,0.02
9.34,9.24,2026-05-21 16:59:26.708,0.26487,4.249692,9.225324,-37.0,-30.0,-34.4,0.02
9.36,9.259,2026-05-21 16:59:26.727,0.8819190000000001,3.785679,9.979712999999999,-26.9,-3.0,-37.9,0.019
9.38,9.279,2026-05-21 16:59:26.747,0.21189600000000003,3.2628060000000003,9.823734000000002,-30.0,18.8,-25.4,0.02
9.4,9.299,2026-05-21 16:59:26.767,-0.6445170000000001,3.1892310000000004,8.666154,-38.8,20.8,-12.8,0.02
9.42,9.319,2026-05-21 16:59:26.787,0.5925239999999999,2.323989,8.037333,-28.5,9.5,-28.8,0.02
9.44,9.341,2026-05-21 16:59:26.809,0.583695,1.690263,7.516422,-11.9,4.9,-46.2,0.022
9.46,9.359,2026-05-21 16:59:26.827,-1.038879,1.4381460000000001,8.717166,3.8,18.0,-29.2,0.018
9.48,9.378,2026-05-21 16:59:26.846,-1.310616,0.758313,8.401284,-23.2,13.8,-32.3,0.019
9.5,9.399,2026-05-21 16:59:26.867,-0.272718,-0.19325699999999998,8.294355000000001,-30.7,-10.9,-41.3,0.021
9.52,9.418,2026-05-21 16:59:26.886,-0.222687,-0.7004340000000001,9.314595,-24.5,-26.8,-19.3,0.019
9.540000000000001,9.438,2026-05-21 16:59:26.906,-0.9142920000000001,-1.770705,10.298537999999999,-38.0,-18.0,-10.1,0.02
9.56,9.458,2026-05-21 16:59:26.926,0.154017,-3.169611,9.318519,-39.0,-9.8,-22.9,0.02
9.58,9.477,2026-05-21 16:59:26.945,0.361008,-4.694085,9.009504,-40.8,-25.6,-8.3,0.019
9.6,9.497,2026-05-21 16:59:26.965,-0.154017,-5.282685,9.399942000000001,-41.0,-40.8,26.8,0.02
9.620000000000001,9.517,2026-05-21 16:59:26.985,-0.250155,-5.784957,9.441144,-31.2,-30.7,26.4,0.02
9.64,9.537,2026-05-21 16:59:27.005,0.047088,-5.959575000000001,8.857448999999999,-22.3,-13.7,16.4,0.02
9.66,9.558,2026-05-21 16:59:27.026,0.289395,-6.194034,8.942796000000001,-1.1,19.7,8.8,0.021
9.68,9.576,2026-05-21 16:59:27.044,0.051993000000000004,-6.254856000000001,8.591598,15.1,29.9,18.4,0.018
9.700000000000001,9.596,2026-05-21 16:59:27.064,-0.145188,-5.931126000000001,8.661249,35.0,21.2,26.7,0.02
9.72,9.616,2026-05-21 16:59:27.084,-0.551322,-5.304267000000001,9.761931,57.5,28.5,35.0,0.02
9.74,9.636,2026-05-21 16:59:27.104,-1.407735,-4.259502,10.968561,38.2,44.8,19.4,0.02
9.76,9.656,2026-05-21 16:59:27.124,-2.6025930000000006,-3.7572300000000003,10.358379000000001,19.4,46.1,-0.7,0.02
9.78,9.675,2026-05-21 16:59:27.143,-2.642814,-3.3324570000000002,9.98658,16.1,21.4,-6.9,0.019
9.8,9.695,2026-05-21 16:59:27.163,-1.9776960000000001,-2.9547719999999997,10.165122,15.0,-3.3,-9.4,0.02
9.82,9.715,2026-05-21 16:59:27.183,-0.983943,-2.496645,10.995048,2.7,-13.5,-7.9,0.02
9.84,9.734,2026-05-21 16:59:27.202,-0.016677,-2.3956020000000002,10.997010000000001,-12.8,-24.8,-8.5,0.019
9.86,9.755,2026-05-21 16:59:27.223,0.250155,-2.286711,10.579104000000001,-11.2,-18.0,2.2,0.021
9.88,9.774,2026-05-21 16:59:27.242,-0.139302,-1.9433610000000001,9.873765,-3.0,9.5,6.7,0.019
9.9,9.794,2026-05-21 16:59:27.262,-0.868185,-1.234098,9.48627,8.4,25.7,3.3,0.02
9.92,9.813,2026-05-21 16:59:27.281,-1.212516,-0.446355,10.111167,5.8,9.3,9.4,0.019
9.94,9.834,2026-05-21 16:59:27.302,-1.4489370000000001,-0.165789,10.217115000000002,-5.4,-4.5,14.7,0.021
9.96,9.854,2026-05-21 16:59:27.322,-1.364571,-0.33354000000000006,9.568674,-8.0,3.2,5.8,0.02
9.98,9.881,2026-05-21 16:59:27.349,-1.179162,-0.615087,9.367569,-5.7,5.6,-2.5,0.027
10.0,12.784,2026-05-21 16:59:30.252,-0.8318880000000001,-0.844641,9.176274000000001,-2.5,0.9,2.4,2.903
10.02,12.785,2026-05-21 16:59:30.253,-0.968247,-0.861318,9.393075000000001,3.2,3.5,6.4,0.001
10.040000000000001,12.785,2026-05-21 16:59:30.253,-1.3567230000000001,-0.5925239999999999,9.623610000000001,6.6,7.2,4.6,0.0
10.06,12.785,2026-05-21 16:59:30.253,-1.2007440000000003,-0.5935050000000001,9.687375000000001,4.1,2.6,-3.6,0.0
10.08,12.785,2026-05-21 16:59:30.253,-0.8868240000000002,-0.7200540000000001,9.901233,3.6,-1.0,-4.5,0.0
10.1,12.785,2026-05-21 16:59:30.253,-1.097739,-0.812268,9.818829,1.0,-1.7,3.6,0.0
10.120000000000001,12.785,2026-05-21 16:59:30.253,-1.327293,-0.8799570000000001,9.64323,0.3,-0.6,1.3,0.0
10.14,12.786,2026-05-21 16:59:30.254,-0.7848,-0.7612559999999999,9.774684,5.0,-5.1,-11.3,0.001
10.16,12.786,2026-05-21 16:59:30.254,-1.603935,-0.6298020000000001,9.715824,2.6,0.1,2.2,0.0
10.18,12.786,2026-05-21 16:59:30.254,-1.227231,-0.7730279999999999,9.689337,3.8,5.4,3.3,0.0
10.200000000000001,12.786,2026-05-21 16:59:30.254,-1.472481,-0.69651,9.497061,3.4,-5.2,-6.8,0.0
10.22,12.786,2026-05-21 16:59:30.254,-0.849546,-0.790686,9.74133,6.3,-5.6,-7.5,0.0
10.24,12.786,2026-05-21 16:59:30.254,-1.283148,-0.9810000000000001,9.2214,0.8,-1.5,-5.1,0.0
10.26,12.786,2026-05-21 16:59:30.254,-1.016316,-0.890748,9.901233,4.8,-2.7,-2.6,0.0
10.28,12.787,2026-05-21 16:59:30.255,-0.51012,-0.7985340000000001,9.98658,7.0,1.8,-5.1,0.001
10.3,12.787,2026-05-21 16:59:30.255,-0.777933,-0.552303,10.137654000000001,4.5,8.5,1.3,0.0
10.32,12.787,2026-05-21 16:59:30.255,-1.012392,-0.521892,10.012086,2.4,7.7,1.9,0.0
10.34,12.787,2026-05-21 16:59:30.255,-1.2517559999999999,-0.6592320000000002,9.621648,0.7,2.5,-0.7,0.0
10.36,12.787,2026-05-21 16:59:30.255,-1.19682,-0.6523650000000001,9.736425,0.5,-2.2,-2.7,0.0
10.38,12.787,2026-05-21 16:59:30.255,-0.9692280000000001,-0.631764,9.817848,1.4,-1.7,-4.9,0.0
10.4,12.787,2026-05-21 16:59:30.255,-0.6660990000000001,-0.712206,9.944397,0.4,1.3,-3.6,0.0
10.42,12.788,2026-05-21 16:59:30.256,-1.229193,-0.717111,9.470574,4.2,-0.5,-0.3,0.001
10.44,12.788,2026-05-21 16:59:30.256,-1.202706,-0.817173,9.474498,1.1,-1.9,-0.3,0.0
10.46,12.788,2026-05-21 16:59:30.256,-1.123245,-0.788724,9.539244,-0.5,-2.0,-2.7,0.0
10.48,12.788,2026-05-21 16:59:30.256,-1.3371030000000002,-0.679833,9.632439,-0.5,3.1,1.5,0.0
10.5,12.788,2026-05-21 16:59:30.256,-0.9191970000000002,-0.712206,9.801171,0.7,5.4,2.4,0.0
10.52,12.788,2026-05-21 16:59:30.256,-1.24587,-0.722016,9.634401,-0.6,-1.0,-2.5,0.0
10.540000000000001,12.789,2026-05-21 16:59:30.257,-1.253718,-0.6092010000000001,9.92772,4.7,0.6,-2.1,0.001
10.56,12.789,2026-05-21 16:59:30.257,-1.213497,-0.534645,9.991485,4.8,0.5,-3.2,0.0
10.58,12.789,2026-05-21 16:59:30.257,-1.002582,-0.69651,9.884556000000002,3.1,0.4,-5.1,0.0
10.6,12.789,2026-05-21 16:59:30.257,-1.1369790000000002,-0.6660990000000001,9.919872000000002,1.1,0.5,2.3,0.0
10.620000000000001,12.789,2026-05-21 16:59:30.257,-1.2753,-0.6494220000000002,9.783513000000001,0.5,1.0,0.9,0.0
10.64,12.789,2026-05-21 16:59:30.257,-1.321407,-0.569961,9.773703,0.8,1.7,-4.0,0.0
10.66,12.789,2026-05-21 16:59:30.257,-1.16739,-0.59841,9.812943,0.3,-1.0,-4.6,0.0
10.68,12.79,2026-05-21 16:59:30.258,-1.2380220000000002,-0.41594400000000004,9.732501000000001,-0.7,0.8,-4.0,0.001
10.700000000000001,12.79,2026-05-21 16:59:30.258,-1.099701,-0.554265,9.792342000000001,0.9,2.0,2.2,0.0
10.72,12.79,2026-05-21 16:59:30.258,-0.947646,-0.505215,9.875727000000001,2.2,-1.0,-5.4,0.0
10.74,12.79,2026-05-21 16:59:30.258,-1.130112,-0.40221,9.924777,3.1,0.8,-1.4,0.0
10.76,12.79,2026-05-21 16:59:30.258,-1.1634660000000001,-0.635688,9.606933,1.4,-1.0,-0.1,0.0
10.78,12.79,2026-05-21 16:59:30.258,-0.9849240000000001,-0.7396740000000002,9.600066,0.5,1.3,-0.1,0.0
10.8,12.79,2026-05-21 16:59:30.258,-1.0732140000000001,-0.7328070000000001,9.740349,-1.2,-0.5,-4.5,0.0
10.82,12.79,2026-05-21 16:59:30.258,-1.1654280000000001,-0.5267970000000001,9.591237000000001,3.5,-1.0,-3.4,0.0
10.84,12.791,2026-05-21 16:59:30.259,-1.3518180000000002,-0.513063,9.877689,0.0,4.6,2.1,0.001
10.86,12.791,2026-05-21 16:59:30.259,-1.276281,-0.5954670000000001,9.795285000000002,-0.8,1.5,0.0,0.0
10.88,12.791,2026-05-21 16:59:30.259,-1.291977,-0.6660990000000001,9.562788000000001,-0.1,-0.2,-2.3,0.0
10.9,12.791,2026-05-21 16:59:30.259,-1.120302,-0.567018,9.723672,1.3,-1.6,-3.2,0.0
10.92,12.791,2026-05-21 16:59:30.259,-1.0879290000000001,-0.5827140000000001,9.732501000000001,-0.5,-2.5,-5.3,0.0
10.94,12.791,2026-05-21 16:59:30.259,-1.054575,-0.562113,9.968922000000001,0.5,1.2,-0.4,0.0
10.96,12.791,2026-05-21 16:59:30.259,-1.409697,-0.537588,9.740349,-1.6,0.7,-5.2,0.0
10.98,12.792,2026-05-21 16:59:30.260,-1.261566,-0.5729040000000001,9.644211,0.9,1.1,-0.3,0.001
11.0,12.792,2026-05-21 16:59:30.260,-1.215459,-0.583695,9.661869000000001,-1.5,-2.3,-0.6,0.0
11.02,12.792,2026-05-21 16:59:30.260,-1.1860290000000002,-0.50031,9.844335000000001,1.1,1.6,-3.6,0.0
11.040000000000001,12.792,2026-05-21 16:59:30.260,-1.2105540000000001,-0.5729040000000001,9.614781,-0.2,2.5,-1.6,0.0
11.06,12.792,2026-05-21 16:59:30.260,-1.204668,-0.697491,9.660888,-2.9,-3.4,-6.5,0.0
11.08,12.792,2026-05-21 16:59:30.260,-1.135998,-0.6592320000000002,9.640287,-1.8,-2.1,-3.8,0.0
11.1,12.793,2026-05-21 16:59:30.261,-1.419507,-0.328635,9.888480000000001,-1.1,0.1,-1.1,0.001
11.120000000000001,12.793,2026-05-21 16:59:30.261,-1.1781810000000001,-0.49540500000000004,9.745254,-0.7,0.5,1.6,0.0
11.14,12.793,2026-05-21 16:59:30.261,-1.3537800000000002,-0.36591300000000004,9.768798,-1.8,-0.9,-3.7,0.0
11.16,12.793,2026-05-21 16:59:30.261,-1.195839,-0.506196,9.72171,0.0,-0.9,-3.8,0.0
11.18,12.793,2026-05-21 16:59:30.261,-1.4038110000000001,-0.508158,9.723672,1.0,2.5,-3.7,0.0
11.200000000000001,12.793,2026-05-21 16:59:30.261,-0.9790380000000001,-0.5611320000000001,9.806076000000001,-1.4,-2.8,-0.8,0.0
11.22,12.794,2026-05-21 16:59:30.262,-1.00062,-0.733788,9.827658000000001,-0.6,-3.1,-2.8,0.001
11.24,12.794,2026-05-21 16:59:30.262,-1.1762190000000001,-0.6916049999999999,9.654021,0.0,-2.1,-1.3,0.0
11.26,12.794,2026-05-21 16:59:30.262,-1.2007440000000003,-0.689643,9.661869000000001,0.6,1.8,-0.8,0.0
11.28,12.794,2026-05-21 16:59:30.262,-1.1565990000000002,-0.49442400000000003,9.817848,-2.0,-2.1,-3.2,0.0
11.3,12.794,2026-05-21 16:59:30.262,-0.9692280000000001,-0.631764,9.834525,-0.2,-1.7,-1.7,0.0
11.32,12.794,2026-05-21 16:59:30.262,-1.0486890000000002,-0.6523650000000001,9.551997,-1.3,-2.9,-3.9,0.0
11.34,12.794,2026-05-21 16:59:30.262,-1.1369790000000002,-0.7004340000000001,9.667755000000001,-0.2,3.1,-0.3,0.0
11.36,12.795,2026-05-21 16:59:30.263,-1.387134,-0.532683,9.597123,-1.4,-2.1,-5.2,0.001
11.38,12.795,2026-05-21 16:59:30.263,-1.3635900000000003,-0.567018,9.784494,-2.1,-0.7,-3.8,0.0
11.4,12.795,2026-05-21 16:59:30.263,-1.3037490000000003,-0.545436,9.816867000000002,-0.7,-2.3,-1.6,0.0
11.42,12.795,2026-05-21 16:59:30.263,-1.4038110000000001,-0.555246,9.648135000000002,-1.6,-0.3,-4.2,0.0
11.44,12.795,2026-05-21 16:59:30.263,-1.46169,-0.505215,9.851202,-0.7,1.0,0.5,0.0
11.46,12.795,2026-05-21 16:59:30.263,-1.2233070000000001,-0.57879,9.909081,0.2,1.3,4.4,0.0
11.48,12.795,2026-05-21 16:59:30.263,-1.394982,-0.5738850000000001,9.708957000000002,-0.7,-0.7,-3.6,0.0
11.5,12.796,2026-05-21 16:59:30.264,-1.103625,-0.7347690000000001,9.70209,0.0,-2.0,-2.8,0.001
11.52,12.796,2026-05-21 16:59:30.264,-1.1978010000000001,-0.580752,9.490193999999999,-0.9,-3.0,-5.6,0.0
11.540000000000001,12.796,2026-05-21 16:59:30.264,-0.9554940000000001,-0.512082,9.775665000000002,0.2,-4.9,-4.2,0.0
11.56,12.796,2026-05-21 16:59:30.264,-0.9888480000000001,-0.562113,9.807057,-1.0,-2.9,-1.3,0.0
11.58,12.796,2026-05-21 16:59:30.264,-1.099701,-0.668061,9.691299,-1.1,0.8,-2.3,0.0
11.6,12.796,2026-05-21 16:59:30.264,-1.140903,-0.7180920000000001,9.676584,0.2,0.2,-3.1,0.0
11.620000000000001,12.796,2026-05-21 16:59:30.264,-1.024164,-0.680814,9.826677,1.4,-1.8,-2.3,0.0
11.64,12.797,2026-05-21 16:59:30.265,-1.5627330000000004,-0.478728,9.606933,-0.1,1.0,-2.7,0.001
11.66,12.797,2026-05-21 16:59:30.265,-1.3518180000000002,-0.5169870000000001,9.626553,-1.0,-1.2,-4.8,0.0
11.68,12.797,2026-05-21 16:59:30.265,-1.427355,-0.41103900000000004,9.888480000000001,-0.2,0.5,-1.5,0.0
11.700000000000001,12.797,2026-05-21 16:59:30.265,-1.2448890000000001,-0.513063,9.844335000000001,1.8,2.7,5.0,0.0
11.72,12.797,2026-05-21 16:59:30.265,-0.947646,-0.7004340000000001,9.761931,2.0,2.2,-0.9,0.0
11.74,12.797,2026-05-21 16:59:30.265,-0.8652420000000001,-0.733788,9.715824,0.9,0.5,-2.9,0.0
11.76,12.798,2026-05-21 16:59:30.266,-0.9447030000000001,-0.8142300000000001,9.595161000000001,-1.4,-2.7,-1.9,0.001
11.78,12.798,2026-05-21 16:59:30.266,-1.105587,-0.60822,9.803133,-1.7,-0.8,-4.5,0.0
11.8,12.798,2026-05-21 16:59:30.266,-1.224288,-0.417906,9.990504,1.1,2.3,-4.6,0.0
11.82,12.798,2026-05-21 16:59:30.266,-0.915273,-0.7180920000000001,9.838448999999999,0.3,-0.3,2.7,0.0
11.84,12.798,2026-05-21 16:59:30.266,-1.129131,-0.40221,9.626553,1.5,-2.8,-0.7,0.0
11.86,12.798,2026-05-21 16:59:30.266,-0.884862,-0.5729040000000001,9.404847,-1.4,-2.3,-1.5,0.0
11.88,12.798,2026-05-21 16:59:30.266,-0.999639,-0.664137,9.610857000000001,-1.5,-4.2,-7.5,0.0
11.9,12.798,2026-05-21 16:59:30.266,-1.229193,-0.320787,9.978732,3.5,-0.2,-3.0,0.0
11.92,12.799,2026-05-21 16:59:30.267,-1.233117,-0.3982860000000001,9.972846,1.9,0.4,2.6,0.001
11.94,12.799,2026-05-21 16:59:30.267,-1.3488750000000003,-0.405153,9.978732,-1.3,0.3,-2.9,0.0
11.96,12.799,2026-05-21 16:59:30.267,-1.159542,-0.670023,9.665793,-1.3,0.7,-4.0,0.0
11.98,12.799,2026-05-21 16:59:30.267,-1.3194450000000002,-0.694548,9.656964,-1.6,-0.3,3.5,0.0
12.0,12.799,2026-05-21 16:59:30.267,-1.414602,-0.49442400000000003,9.705033,-1.4,0.1,-0.9,0.0
12.02,12.799,2026-05-21 16:59:30.267,-1.3979249999999999,-0.47284200000000004,9.778608,-0.5,0.0,-5.5,0.0
12.040000000000001,12.799,2026-05-21 16:59:30.267,-1.3979249999999999,-0.46695600000000004,9.827658000000001,-2.3,-0.9,-3.0,0.0
12.06,12.8,2026-05-21 16:59:30.268,-1.130112,-0.569961,9.709938,0.5,3.3,1.5,0.001
12.08,12.8,2026-05-21 16:59:30.268,-1.3174830000000002,-0.47774700000000003,9.738387000000001,1.2,-1.1,-3.7,0.0
12.1,12.8,2026-05-21 16:59:30.268,-0.839736,-0.560151,9.929682,0.5,1.6,-2.2,0.0
12.120000000000001,12.8,2026-05-21 16:59:30.268,-0.9859050000000001,-0.5277780000000001,9.828639,-0.5,-2.5,-7.2,0.0
12.14,12.8,2026-05-21 16:59:30.268,-1.364571,-0.671004,9.465669,-0.7,-4.7,-5.0,0.0
12.16,12.8,2026-05-21 16:59:30.268,-1.3822290000000002,-0.6298020000000001,9.514719,-4.7,-3.7,-5.8,0.0
12.18,12.8,2026-05-21 16:59:30.268,-0.8711280000000001,-0.6543270000000001,9.770760000000001,1.8,-3.4,-8.7,0.0
12.200000000000001,12.801,2026-05-21 16:59:30.269,-0.8054009999999999,-0.567999,9.840411000000001,-1.1,0.2,-0.9,0.001
12.22,12.801,2026-05-21 16:59:30.269,-1.170333,-0.5032530000000001,9.811962,-0.2,0.0,2.3,0.0
12.24,12.801,2026-05-21 16:59:30.269,-1.2399840000000002,-0.556227,9.730539,0.1,0.4,-4.1,0.0
12.26,12.801,2026-05-21 16:59:30.269,-1.099701,-0.6003720000000001,9.69228,0.0,0.1,-4.1,0.0
12.280000000000001,12.801,2026-05-21 16:59:30.269,-1.086948,-0.5817330000000001,9.862974000000001,0.6,-1.1,-2.4,0.0
12.3,12.801,2026-05-21 16:59:30.269,-1.1153970000000002,-0.575847,9.856107000000002,-0.5,-0.1,-2.6,0.0
12.32,12.801,2026-05-21 16:59:30.269,-1.02024,-0.60822,9.807057,-1.3,1.1,-3.4,0.0
12.34,12.802,2026-05-21 16:59:30.270,-1.1418840000000001,-0.546417,9.769779,0.4,-1.6,-1.4,0.001
12.36,12.802,2026-05-21 16:59:30.270,-1.191915,-0.5591700000000001,9.634401,0.1,0.0,-3.2,0.0
12.38,12.802,2026-05-21 16:59:30.270,-1.201725,-0.597429,9.615762000000002,-0.4,0.1,-1.5,0.0
12.4,12.802,2026-05-21 16:59:30.270,-1.272357,-0.631764,9.578484,-0.7,0.4,-2.1,0.0
12.42,12.802,2026-05-21 16:59:30.270,-1.112454,-0.646479,9.746235,-1.7,1.2,-1.7,0.0
12.44,12.802,2026-05-21 16:59:30.270,-1.2625469999999999,-0.6101820000000001,9.659907,-2.2,0.9,0.1,0.0
12.46,12.803,2026-05-21 16:59:30.271,-1.2105540000000001,-0.502272,9.773703,0.1,-0.1,-1.0,0.001
12.48,12.803,2026-05-21 16:59:30.271,-1.211535,-0.49246200000000007,9.724653,-0.1,1.6,-3.3,0.0
12.5,12.803,2026-05-21 16:59:30.271,-1.260585,-0.528759,9.727596,0.4,1.0,-0.5,0.0
12.52,12.803,2026-05-21 16:59:30.271,-1.134036,-0.518949,9.893385,0.2,-1.7,-3.7,0.0
12.540000000000001,12.803,2026-05-21 16:59:30.271,-1.151694,-0.554265,9.826677,-1.4,-0.3,-2.6,0.0
12.56,12.803,2026-05-21 16:59:30.271,-1.126188,-0.501291,9.837468,-1.2,0.2,-1.2,0.0
12.58,12.803,2026-05-21 16:59:30.271,-1.16739,-0.565056,9.82962,-2.0,0.1,-2.0,0.0
12.6,12.804,2026-05-21 16:59:30.272,-1.0663470000000002,-0.554265,9.734463,0.8,1.6,-0.7,0.001
12.620000000000001,12.804,2026-05-21 16:59:30.272,-1.297863,-0.6278400000000001,9.612819,1.4,2.2,-1.0,0.0
12.64,12.804,2026-05-21 16:59:30.272,-1.062423,-0.678852,9.551016,-0.7,-1.2,-4.1,0.0
12.66,12.804,2026-05-21 16:59:30.272,-1.15758,-0.8230590000000001,9.491175,-3.1,-3.2,-6.5,0.0
12.68,12.804,2026-05-21 16:59:30.272,-1.271376,-0.6759090000000001,9.64323,-3.2,-2.4,-6.4,0.0
12.700000000000001,12.804,2026-05-21 16:59:30.272,-1.370457,-0.551322,9.762912000000002,-2.1,-1.0,-3.9,0.0
12.72,12.804,2026-05-21 16:59:30.272,-1.321407,-0.535626,9.786456000000001,-1.0,2.2,0.5,0.0
12.74,12.805,2026-05-21 16:59:30.273,-1.310616,-0.583695,9.693261,2.0,0.5,-1.7,0.001
12.76,12.805,2026-05-21 16:59:30.273,-1.4038110000000001,-0.49736700000000006,9.743292000000002,1.1,-0.1,-1.1,0.0
12.780000000000001,12.805,2026-05-21 16:59:30.273,-1.310616,-0.45224100000000006,9.883575,0.0,-0.9,-4.0,0.0
12.8,12.805,2026-05-21 16:59:30.273,-1.0339740000000002,-0.555246,9.851202,-0.5,-1.1,-4.3,0.0
12.82,12.805,2026-05-21 16:59:30.273,-1.072233,-0.514044,9.880632000000002,-1.8,-1.0,0.3,0.0
12.84,12.805,2026-05-21 16:59:30.273,-1.071252,-0.5493600000000001,9.64323,-2.3,0.0,-2.6,0.0
12.86,12.805,2026-05-21 16:59:30.273,-1.077138,-0.5925239999999999,9.697185000000001,-0.6,0.6,-2.9,0.0
12.88,12.806,2026-05-21 16:59:30.274,-1.2350790000000003,-0.5944860000000001,9.769779,0.5,0.0,2.8,0.001
12.9,12.806,2026-05-21 16:59:30.274,-1.0643850000000001,-0.665118,9.686394,1.6,-1.4,0.5,0.0
12.92,12.806,2026-05-21 16:59:30.274,-1.024164,-0.763218,9.420543,-1.1,-0.7,-3.3,0.0
12.94,12.807,2026-05-21 16:59:30.275,-1.297863,-0.48069000000000006,9.815885999999999,0.4,-0.7,-2.1,0.001
12.96,12.822,2026-05-21 16:59:30.290,-1.3037490000000003,-0.491481,9.876707999999999,-1.6,-4.0,-2.0,0.015
12.98,12.841,2026-05-21 16:59:30.309,-1.2753,-0.563094,9.763893,-2.2,-2.8,-2.5,0.019
13.0,12.862,2026-05-21 16:59:30.330,-1.234098,-0.669042,9.677565000000001,-1.5,-1.3,-3.5,0.021
13.02,12.881,2026-05-21 16:59:30.349,-1.1183400000000001,-0.599391,9.646173,0.9,1.0,-2.5,0.019
13.040000000000001,12.901,2026-05-21 16:59:30.369,-1.222326,-0.57879,9.688356,1.7,-1.2,-1.1,0.02
13.06,12.92,2026-05-21 16:59:30.388,-1.1850479999999999,-0.565056,9.79038,1.5,-2.0,-1.6,0.019
13.08,12.94,2026-05-21 16:59:30.408,-1.105587,-0.565056,9.852183,0.5,-0.6,-3.2,0.02
13.1,12.961,2026-05-21 16:59:30.429,-1.114416,-0.664137,9.688356,-1.4,-1.3,-2.9,0.021
13.120000000000001,12.98,2026-05-21 16:59:30.448,-0.8995770000000001,-0.7445790000000001,9.616743,-0.1,-0.7,-1.1,0.019
13.14,13.0,2026-05-21 16:59:30.468,-1.05948,-0.669042,9.676584,1.0,0.7,3.2,0.02
13.16,13.02,2026-05-21 16:59:30.488,-1.170333,-0.5709420000000001,9.524529000000001,2.8,2.1,0.8,0.02
13.18,13.039,2026-05-21 16:59:30.507,-1.411659,-0.344331,9.985599,3.8,0.9,0.7,0.019
13.200000000000001,13.059,2026-05-21 16:59:30.527,-1.4852340000000002,-0.3747420000000001,9.875727000000001,0.4,0.2,-2.1,0.02
13.22,13.079,2026-05-21 16:59:30.547,-1.2684330000000001,-0.483633,9.751140000000001,0.0,-0.4,-5.0,0.02
13.24,13.099,2026-05-21 16:59:30.567,-1.170333,-0.537588,9.783513000000001,-1.0,-1.5,-0.2,0.02
13.26,13.118,2026-05-21 16:59:30.586,-1.1418840000000001,-0.560151,9.586332,0.3,0.9,-1.9,0.019
13.280000000000001,13.138,2026-05-21 16:59:30.606,-1.13796,-0.537588,9.654021,1.2,-0.1,-3.5,0.02
13.3,13.158,2026-05-21 16:59:30.626,-1.146789,-0.5954670000000001,9.700128,0.3,-1.5,-2.6,0.02
13.32,13.177,2026-05-21 16:59:30.645,-1.0947959999999999,-0.576828,9.781551,1.6,0.9,-1.2,0.019
13.34,13.198,2026-05-21 16:59:30.666,-1.1850479999999999,-0.468918,9.969903,1.6,2.0,1.0,0.021
13.36,13.217,2026-05-21 16:59:30.685,-1.26549,-0.506196,9.734463,-1.8,0.8,-0.5,0.019
13.38,13.237,2026-05-21 16:59:30.705,-1.1870100000000001,-0.535626,9.669717,0.2,-1.0,-0.6,0.02
13.4,13.257,2026-05-21 16:59:30.725,-1.286091,-0.502272,9.789399000000001,0.5,0.0,0.3,0.02
13.42,13.276,2026-05-21 16:59:30.744,-1.229193,-0.502272,9.828639,0.8,1.5,-2.9,0.019
13.44,13.296,2026-05-21 16:59:30.764,-1.234098,-0.535626,9.840411000000001,-0.8,-1.3,-2.8,0.02
13.46,13.316,2026-05-21 16:59:30.784,-1.143846,-0.621954,9.475479,-1.6,-0.4,-1.3,0.02
13.48,13.34,2026-05-21 16:59:30.808,-1.19682,-0.436545,9.772722000000002,2.1,1.1,1.9,0.024
13.5,13.355,2026-05-21 16:59:30.823,-1.390077,-0.394362,9.866898,1.1,1.0,0.7,0.015
13.52,13.376,2026-05-21 16:59:30.844,-1.357704,-0.502272,9.736425,-0.1,1.0,-3.5,0.021
13.540000000000001,13.396,2026-05-21 16:59:30.864,-1.3498560000000002,-0.4679370000000001,9.752121,-1.3,-2.2,-2.1,0.02
13.56,13.416,2026-05-21 16:59:30.884,-1.227231,-0.49050000000000005,9.729557999999999,-2.0,-2.3,-3.8,0.02
13.58,13.435,2026-05-21 16:59:30.903,-0.9937530000000001,-0.643536,9.599085,0.3,0.2,-4.5,0.019
13.6,13.455,2026-05-21 16:59:30.923,-1.0643850000000001,-0.501291,9.910062,1.0,1.4,2.8,0.02
13.620000000000001,13.474,2026-05-21 16:59:30.942,-1.3841910000000002,-0.3747420000000001,9.915948,-1.7,1.6,1.2,0.019
13.64,13.495,2026-05-21 16:59:30.963,-1.341027,-0.473823,9.680508,-3.5,-0.4,-3.2,0.021
13.66,13.514,2026-05-21 16:59:30.982,-1.239003,-0.534645,9.58437,-2.6,-2.1,-4.5,0.019
13.68,13.534,2026-05-21 16:59:31.002,-1.139922,-0.567999,9.689337,-1.3,-2.8,-2.0,0.02
13.700000000000001,13.555,2026-05-21 16:59:31.023,-1.1870100000000001,-0.5954670000000001,9.589275,0.0,0.5,-1.5,0.021
13.72,13.574,2026-05-21 16:59:31.042,-1.2968819999999999,-0.45420299999999997,9.699147,1.8,1.6,-0.9,0.019
13.74,13.593,2026-05-21 16:59:31.061,-1.4136210000000002,-0.35021700000000006,9.82962,0.7,-0.6,0.1,0.019
13.76,13.613,2026-05-21 16:59:31.081,-1.40283,-0.496386,9.712881,-0.4,-2.3,-3.2,0.02
13.780000000000001,13.633,2026-05-21 16:59:31.101,-1.222326,-0.611163,9.698166,0.4,-1.9,-5.2,0.02
13.8,13.653,2026-05-21 16:59:31.121,-1.1134350000000002,-0.5817330000000001,9.834525,1.3,0.1,-3.3,0.02
13.82,13.672,2026-05-21 16:59:31.140,-1.143846,-0.49736700000000006,9.823734000000002,0.0,0.9,0.0,0.019
13.84,13.692,2026-05-21 16:59:31.160,-1.2399840000000002,-0.5160060000000001,9.705033,-0.3,0.3,-1.0,0.02
13.86,13.712,2026-05-21 16:59:31.180,-1.248813,-0.5169870000000001,9.802152000000001,0.0,-1.3,-1.7,0.02
13.88,13.731,2026-05-21 16:59:31.199,-1.140903,-0.535626,9.746235,-0.1,-1.0,-3.3,0.019
13.9,13.752,2026-05-21 16:59:31.220,-1.162485,-0.47774700000000003,9.747216000000002,0.3,0.3,-1.2,0.021
13.92,13.775,2026-05-21 16:59:31.243,-1.338084,-0.400248,9.806076000000001,-1.2,0.1,0.6,0.023
13.94,13.791,2026-05-21 16:59:31.259,-1.3008060000000001,-0.521892,9.488232000000002,-0.5,-0.1,-3.2,0.016
13.96,13.81,2026-05-21 16:59:31.278,-1.194858,-0.506196,9.751140000000001,1.0,-1.1,-0.9,0.019
13.98,13.831,2026-05-21 16:59:31.299,-1.3027680000000001,-0.43164,9.854145,0.4,-1.1,-1.5,0.021
14.0,13.851,2026-05-21 16:59:31.319,-1.19682,-0.478728,9.723672,-0.8,-0.7,-4.4,0.02
14.02,13.871,2026-05-21 16:59:31.339,-1.184067,-0.478728,9.764874,0.6,0.4,0.3,0.02
14.040000000000001,13.89,2026-05-21 16:59:31.358,-1.277262,-0.499329,9.706995000000001,0.0,0.9,-0.6,0.019
14.06,13.91,2026-05-21 16:59:31.378,-1.3223880000000001,-0.5277780000000001,9.656964,0.1,1.7,-1.7,0.02
14.08,13.93,2026-05-21 16:59:31.398,-1.271376,-0.45910799999999996,9.740349,1.9,0.4,-2.1,0.02
14.1,13.949,2026-05-21 16:59:31.417,-1.266471,-0.45812700000000006,9.774684,0.3,-1.9,-3.0,0.019
14.120000000000001,13.969,2026-05-21 16:59:31.437,-1.215459,-0.5032530000000001,9.753102000000002,0.4,-1.7,-2.8,0.02
14.14,13.993,2026-05-21 16:59:31.461,-1.266471,-0.4483170000000001,9.914967000000003,0.0,-0.3,-0.7,0.024
14.16,14.009,2026-05-21 16:59:31.477,-1.2350790000000003,-0.505215,9.676584,-1.4,1.0,-2.2,0.016
14.18,14.028,2026-05-21 16:59:31.496,-1.1546370000000001,-0.514044,9.736425,-0.6,-0.4,-1.4,0.019
14.200000000000001,14.049,2026-05-21 16:59:31.517,-1.2056490000000002,-0.546417,9.683451,-1.4,-0.6,-0.5,0.021
14.22,14.069,2026-05-21 16:59:31.537,-1.219383,-0.4434120000000001,9.762912000000002,2.1,1.2,-1.1,0.02
14.24,14.088,2026-05-21 16:59:31.556,-1.3783050000000001,-0.46303200000000005,9.718767000000001,-0.1,0.4,-1.5,0.019
14.26,14.107,2026-05-21 16:59:31.575,-1.240965,-0.513063,9.638325,0.9,0.0,-1.7,0.019
14.280000000000001,14.127,2026-05-21 16:59:31.595,-1.175238,-0.505215,9.783513000000001,0.1,-1.7,-0.1,0.02
14.3,14.147,2026-05-21 16:59:31.615,-1.3194450000000002,-0.419868,9.717786,1.2,1.5,0.7,0.02
14.32,14.167,2026-05-21 16:59:31.635,-1.336122,-0.33746400000000004,9.827658000000001,1.0,0.7,-0.3,0.02
14.34,14.187,2026-05-21 16:59:31.655,-1.4165640000000002,-0.42084900000000003,9.740349,0.2,-0.8,-2.9,0.02
14.36,14.206,2026-05-21 16:59:31.674,-1.261566,-0.48461400000000004,9.772722000000002,0.0,-0.8,-2.1,0.019
14.38,14.227,2026-05-21 16:59:31.695,-1.3027680000000001,-0.419868,9.796266000000001,-0.3,-1.5,-0.8,0.021
14.4,14.246,2026-05-21 16:59:31.714,-1.3841910000000002,-0.37278,9.777627,-0.5,1.0,-1.3,0.019
14.42,14.266,2026-05-21 16:59:31.734,-1.2792240000000001,-0.580752,9.572598000000001,-1.2,-0.1,-4.7,0.02
14.44,14.285,2026-05-21 16:59:31.753,-1.114416,-0.5503410000000001,9.713862,-1.1,-1.6,-0.7,0.019
14.46,14.305,2026-05-21 16:59:31.773,-1.292958,-0.409077,9.727596,-1.3,-0.7,1.7,0.02
14.48,14.325,2026-05-21 16:59:31.793,-1.327293,-0.288414,9.818829,0.6,0.4,-2.3,0.02
14.5,14.345,2026-05-21 16:59:31.813,-1.292958,-0.35904600000000003,9.876707999999999,-0.9,-0.8,-3.2,0.02
14.52,14.365,2026-05-21 16:59:31.833,-1.272357,-0.48951900000000004,9.713862,-1.8,-0.2,-1.8,0.02
14.540000000000001,14.385,2026-05-21 16:59:31.853,-1.230174,-0.5267970000000001,9.568674,-1.5,-1.1,-2.9,0.02
14.56,14.404,2026-05-21 16:59:31.872,-1.170333,-0.544455,9.567693,1.4,-0.6,-3.0,0.019
14.58,14.433,2026-05-21 16:59:31.901,-1.109511,-0.486576,9.777627,1.2,-1.2,-1.1,0.029
14.6,14.444,2026-05-21 16:59:31.912,-1.240965,-0.483633,9.774684,0.6,-0.1,0.9,0.011
14.620000000000001,14.51,2026-05-21 16:59:31.978,-1.29492,-0.436545,9.773703,1.3,0.4,-1.1,0.066
14.64,14.511,2026-05-21 16:59:31.979,-1.3037490000000003,-0.36493200000000003,9.895347000000003,0.8,-1.2,-1.7,0.001
14.66,14.538,2026-05-21 16:59:32.006,-1.307673,-0.371799,9.834525,-0.3,0.1,-0.9,0.027
14.68,14.54,2026-05-21 16:59:32.008,-1.3008060000000001,-0.4031910000000001,9.752121,-1.0,-1.1,-2.9,0.002
14.700000000000001,14.543,2026-05-21 16:59:32.011,-1.2380220000000002,-0.501291,9.746235,-0.4,-1.1,-2.5,0.003
14.72,14.569,2026-05-21 16:59:32.037,-1.162485,-0.569961,9.645192000000002,-1.0,0.0,-2.0,0.026
14.74,14.582,2026-05-21 16:59:32.050,-1.1850479999999999,-0.47284200000000004,9.710919,0.2,2.0,1.4,0.013
14.76,14.613,2026-05-21 16:59:32.081,-1.3714380000000002,-0.375723,9.72171,0.2,0.0,0.4,0.031
14.780000000000001,14.622,2026-05-21 16:59:32.090,-1.342008,-0.394362,9.737406,0.4,-0.7,-2.2,0.009
14.8,14.641,2026-05-21 16:59:32.109,-1.291977,-0.38847600000000004,9.808038,0.2,0.6,-0.9,0.019
14.82,14.662,2026-05-21 16:59:32.130,-1.3655519999999999,-0.36493200000000003,9.775665000000002,0.1,0.9,-1.0,0.021
14.84,14.682,2026-05-21 16:59:32.150,-1.297863,-0.45616500000000004,9.705033,-0.4,-0.9,-3.2,0.02
14.86,14.701,2026-05-21 16:59:32.169,-1.211535,-0.429678,9.764874,0.7,0.5,-1.0,0.019
14.88,14.721,2026-05-21 16:59:32.189,-1.326312,-0.41103900000000004,9.740349,-0.7,0.7,-0.9,0.02
14.9,14.741,2026-05-21 16:59:32.209,-1.26549,-0.513063,9.523548,0.4,0.2,-2.3,0.02
14.92,14.76,2026-05-21 16:59:32.228,-1.253718,-0.41888700000000006,9.767817,1.6,-0.3,-0.5,0.019
14.94,14.78,2026-05-21 16:59:32.248,-1.385172,-0.38847600000000004,9.766836000000001,0.5,0.5,-0.5,0.02
14.96,14.8,2026-05-21 16:59:32.268,-1.330236,-0.339426,9.841392,0.0,-1.7,-2.9,0.02
14.98,14.82,2026-05-21 16:59:32.288,-1.29492,-0.391419,9.766836000000001,-0.2,-2.1,-3.2,0.02
15.0,14.839,2026-05-21 16:59:32.307,-1.2213450000000001,-0.334521,9.873765,0.3,0.4,-0.8,0.019
15.02,14.859,2026-05-21 16:59:32.327,-1.333179,-0.397305,9.769779,-0.5,1.8,-0.9,0.02
15.040000000000001,14.882,2026-05-21 16:59:32.350,-1.357704,-0.37278,9.73152,-0.5,1.3,-1.7,0.023
15.06,14.899,2026-05-21 16:59:32.367,-1.326312,-0.37866600000000006,9.817848,-1.5,-1.2,-2.3,0.017
15.08,14.919,2026-05-21 16:59:32.387,-1.2546990000000002,-0.512082,9.568674,-1.1,-0.3,-3.1,0.02
15.1,14.938,2026-05-21 16:59:32.406,-1.281186,-0.45322200000000007,9.654021,0.2,-0.4,-1.4,0.019
15.120000000000001,14.958,2026-05-21 16:59:32.426,-1.364571,-0.3698370000000001,9.794304,0.4,0.3,-1.6,0.02
15.14,14.978,2026-05-21 16:59:32.446,-1.315521,-0.413001,9.736425,-1.2,0.4,-2.5,0.02
15.16,14.998,2026-05-21 16:59:32.466,-1.2684330000000001,-0.434583,9.685413,-0.6,0.0,-2.0,0.02
15.18,15.018,2026-05-21 16:59:32.486,-1.291977,-0.45910799999999996,9.640287,-0.4,-1.6,-1.3,0.02
15.200000000000001,15.038,2026-05-21 16:59:32.506,-1.2429270000000001,-0.524835,9.683451,0.6,-0.2,-1.7,0.02
15.22,15.057,2026-05-21 16:59:32.525,-1.3537800000000002,-0.339426,9.813924,0.9,2.1,1.2,0.019
15.24,15.077,2026-05-21 16:59:32.545,-1.46169,-0.268794,9.816867000000002,0.4,0.8,-1.2,0.02
15.26,15.1,2026-05-21 16:59:32.568,-1.3351410000000001,-0.38259000000000004,9.822752999999999,-1.4,-0.1,-4.4,0.023
15.280000000000001,15.116,2026-05-21 16:59:32.584,-1.194858,-0.49540500000000004,9.707976,-3.1,-1.7,-1.7,0.016
15.3,15.136,2026-05-21 16:59:32.604,-1.3351410000000001,-0.42869700000000005,9.686394,-2.2,-1.1,1.5,0.02
15.32,15.156,2026-05-21 16:59:32.624,-1.478367,-0.27468000000000004,9.811962,-1.1,1.7,-0.9,0.02
15.34,15.176,2026-05-21 16:59:32.644,-1.408716,-0.295281,9.796266000000001,-1.9,0.4,-4.3,0.02
15.36,15.195,2026-05-21 16:59:32.663,-1.2753,-0.51012,9.626553,-2.3,-2.2,-2.7,0.019
15.38,15.215,2026-05-21 16:59:32.683,-1.256661,-0.551322,9.550035000000001,-1.1,-1.7,-0.6,0.02
15.4,15.235,2026-05-21 16:59:32.703,-1.354761,-0.488538,9.600066,1.7,1.9,-0.9,0.02
15.42,15.256,2026-05-21 16:59:32.724,-1.482291,-0.37866600000000006,9.685413,1.5,2.0,-1.4,0.021
15.44,15.274,2026-05-21 16:59:32.742,-1.3979249999999999,-0.430659,9.747216000000002,0.5,-2.3,-3.0,0.018
15.46,15.294,2026-05-21 16:59:32.762,-1.273338,-0.408096,9.795285000000002,0.5,-1.7,-1.9,0.02
15.48,15.341,2026-05-21 16:59:32.809,-1.328274,-0.307053,9.920853,0.3,0.2,-1.9,0.047
15.5,15.368,2026-05-21 16:59:32.836,-1.3174830000000002,-0.340407,9.880632000000002,-0.6,-0.4,-3.3,0.027
15.52,15.394,2026-05-21 16:59:32.862,-1.309635,-0.440469,9.777627,-0.8,1.0,-2.2,0.026
15.540000000000001,15.422,2026-05-21 16:59:32.890,-1.347894,-0.505215,9.649116000000001,-1.9,0.1,-1.9,0.028
15.56,15.422,2026-05-21 16:59:32.890,-1.3037490000000003,-0.511101,9.650097,-0.6,-2.6,-3.2,0.0
15.58,15.448,2026-05-21 16:59:32.916,-1.286091,-0.410058,9.752121,-1.8,1.3,-2.1,0.026
15.6,15.448,2026-05-21 16:59:32.916,-1.2105540000000001,-0.38749500000000003,9.903195000000002,-0.1,-0.6,-0.7,0.0
15.620000000000001,15.453,2026-05-21 16:59:32.921,-1.345932,-0.391419,9.696204,-1.4,-0.1,-0.9,0.005
15.64,15.473,2026-05-21 16:59:32.941,-1.3635900000000003,-0.36591300000000004,9.769779,-1.7,-2.0,-0.9,0.02
15.66,15.493,2026-05-21 16:59:32.961,-1.376343,-0.38847600000000004,9.705033,-1.6,-1.5,-2.7,0.02
15.68,15.512,2026-05-21 16:59:32.980,-1.3861530000000002,-0.41888700000000006,9.713862,-1.0,1.1,-1.7,0.019
15.700000000000001,15.531,2026-05-21 16:59:32.999,-1.392039,-0.37278,9.730539,-1.3,0.4,-0.7,0.019
15.72,15.552,2026-05-21 16:59:33.020,-1.490139,-0.375723,9.742311,-1.7,-1.1,-1.1,0.021
15.74,15.571,2026-05-21 16:59:33.039,-1.360647,-0.437526,9.795285000000002,-1.6,-1.2,-3.8,0.019
15.76,15.591,2026-05-21 16:59:33.059,-1.202706,-0.499329,9.74133,-1.9,0.0,-4.0,0.02
15.780000000000001,15.611,2026-05-21 16:59:33.079,-1.229193,-0.535626,9.615762000000002,-0.9,0.3,-1.7,0.02
15.8,15.631,2026-05-21 16:59:33.099,-1.287072,-0.523854,9.658926000000001,0.0,0.1,-0.5,0.02
15.82,15.651,2026-05-21 16:59:33.119,-1.309635,-0.46401299999999995,9.737406,0.2,0.4,-1.5,0.02
15.84,15.67,2026-05-21 16:59:33.138,-1.346913,-0.45322200000000007,9.764874,-1.3,-0.5,-1.1,0.019
15.860000000000001,15.691,2026-05-21 16:59:33.159,-1.336122,-0.434583,9.707976,0.3,-1.6,-2.0,0.021
15.88,15.71,2026-05-21 16:59:33.178,-1.3783050000000001,-0.400248,9.913986,-0.4,0.4,-1.2,0.019
15.9,15.73,2026-05-21 16:59:33.198,-1.411659,-0.3982860000000001,9.706995000000001,-0.8,2.1,-0.8,0.02
15.92,15.749,2026-05-21 16:59:33.217,-1.526436,-0.38651399999999997,9.737406,-1.1,-1.3,-0.6,0.019
15.94,15.77,2026-05-21 16:59:33.238,-1.407735,-0.47774700000000003,9.585351000000001,-1.9,-1.5,-4.2,0.021
15.96,15.789,2026-05-21 16:59:33.257,-1.215459,-0.5277780000000001,9.730539,-0.2,0.8,-2.0,0.019
15.98,15.81,2026-05-21 16:59:33.278,-1.29492,-0.474804,9.680508,-0.2,1.4,0.6,0.021
16.0,15.829,2026-05-21 16:59:33.297,-1.456785,-0.43262100000000003,9.737406,0.0,0.2,-2.8,0.019
16.02,15.856,2026-05-21 16:59:33.324,-1.346913,-0.464994,9.686394,-0.7,-0.6,-2.4,0.027
16.04,15.868,2026-05-21 16:59:33.336,-1.261566,-0.42183,9.796266000000001,-0.9,-0.5,-1.8,0.012
16.06,15.89,2026-05-21 16:59:33.358,-1.357704,-0.513063,9.659907,-1.4,-0.8,-0.5,0.022
16.080000000000002,15.908,2026-05-21 16:59:33.376,-1.325331,-0.538569,9.651078,0.6,-0.3,-3.1,0.018
16.1,15.928,2026-05-21 16:59:33.396,-1.3567230000000001,-0.38651399999999997,9.848259,-0.7,0.6,-0.9,0.02
16.12,15.948,2026-05-21 16:59:33.416,-1.429317,-0.32569200000000004,9.705033,-2.1,-0.3,-1.4,0.02
16.14,15.967,2026-05-21 16:59:33.435,-1.3979249999999999,-0.496386,9.562788000000001,-1.6,-2.4,-3.6,0.019
16.16,15.987,2026-05-21 16:59:33.455,-1.253718,-0.48069000000000006,9.734463,-0.2,-1.4,-0.4,0.02
16.18,16.007,2026-05-21 16:59:33.475,-1.4361840000000001,-0.347274,9.870822,-1.4,1.0,1.4,0.02
16.2,16.027,2026-05-21 16:59:33.495,-1.4352030000000002,-0.391419,9.803133,-2.7,-0.1,-3.5,0.02
16.22,16.047,2026-05-21 16:59:33.515,-1.2880530000000001,-0.569961,9.669717,-2.6,-2.0,-2.3,0.02
16.240000000000002,16.066,2026-05-21 16:59:33.534,-1.3008060000000001,-0.6660990000000001,9.432315000000001,-0.9,-1.4,-1.0,0.019
16.26,16.086,2026-05-21 16:59:33.554,-1.375362,-0.5729040000000001,9.614781,1.5,0.4,-0.7,0.02
16.28,16.107,2026-05-21 16:59:33.575,-1.399887,-0.447336,9.644211,1.2,0.6,-0.7,0.021
16.3,16.126,2026-05-21 16:59:33.594,-1.4332410000000002,-0.38651399999999997,9.775665000000002,1.2,-0.2,-0.4,0.019
16.32,16.145,2026-05-21 16:59:33.613,-1.434222,-0.38357100000000005,9.770760000000001,0.5,-1.7,-1.2,0.019
16.34,16.165,2026-05-21 16:59:33.633,-1.444032,-0.3747420000000001,9.851202,0.9,0.0,-3.2,0.02
16.36,16.185,2026-05-21 16:59:33.653,-1.472481,-0.351198,9.895347000000003,0.2,0.0,-2.9,0.02
16.38,16.204,2026-05-21 16:59:33.672,-1.3498560000000002,-0.43556400000000006,9.766836000000001,-1.5,-1.3,-4.8,0.019
16.4,16.224,2026-05-21 16:59:33.692,-1.1369790000000002,-0.6543270000000001,9.609876,-1.6,-2.5,-5.4,0.02
16.42,16.245,2026-05-21 16:59:33.713,-1.047708,-0.6621750000000001,9.688356,0.6,-0.4,-0.4,0.021
16.44,16.264,2026-05-21 16:59:33.732,-1.2684330000000001,-0.551322,9.700128,0.9,1.2,0.8,0.019
16.46,16.291,2026-05-21 16:59:33.759,-1.3684950000000002,-0.3924,9.803133,0.0,0.7,0.2,0.027
16.48,16.303,2026-05-21 16:59:33.771,-1.4656140000000002,-0.375723,9.740349,-0.9,-0.5,-0.7,0.012
16.5,16.33,2026-05-21 16:59:33.798,-1.390077,-0.39926700000000004,9.784494,-1.4,-1.6,-1.8,0.027
16.52,16.343,2026-05-21 16:59:33.811,-1.326312,-0.478728,9.629496000000001,-1.2,-0.1,-2.0,0.013
16.54,16.363,2026-05-21 16:59:33.831,-1.374381,-0.45616500000000004,9.698166,-0.1,0.5,-0.1,0.02
16.56,16.383,2026-05-21 16:59:33.851,-1.52055,-0.437526,9.57456,-0.1,-0.2,-1.4,0.02
16.580000000000002,16.403,2026-05-21 16:59:33.871,-1.455804,-0.413982,9.713862,1.0,-1.4,-3.2,0.02
16.6,16.423,2026-05-21 16:59:33.891,-1.291977,-0.49736700000000006,9.625572000000002,0.4,-0.7,-3.1,0.02
16.62,16.442,2026-05-21 16:59:33.910,-1.345932,-0.45616500000000004,9.769779,0.9,0.8,-0.2,0.019
16.64,16.462,2026-05-21 16:59:33.930,-1.409697,-0.43164,9.737406,0.8,0.5,-1.4,0.02
16.66,16.482,2026-05-21 16:59:33.950,-1.406754,-0.371799,9.826677,-0.2,-1.4,-2.4,0.02
16.68,16.501,2026-05-21 16:59:33.969,-1.292958,-0.501291,9.709938,-0.1,-0.9,-3.2,0.019
16.7,16.521,2026-05-21 16:59:33.989,-1.266471,-0.538569,9.689337,0.0,0.2,-1.5,0.02
16.72,16.541,2026-05-21 16:59:34.009,-1.2625469999999999,-0.5405310000000001,9.612819,0.1,0.0,-0.9,0.02
16.740000000000002,16.561,2026-05-21 16:59:34.029,-1.2841290000000003,-0.45616500000000004,9.735444,1.0,-0.3,0.3,0.02
16.76,16.581,2026-05-21 16:59:34.049,-1.4381460000000001,-0.334521,9.774684,1.2,0.9,0.7,0.02
16.78,16.6,2026-05-21 16:59:34.068,-1.505835,-0.326673,9.827658000000001,0.0,-0.6,-2.0,0.019
16.8,16.62,2026-05-21 16:59:34.088,-1.478367,-0.430659,9.708957000000002,-0.4,-1.0,-2.2,0.02
16.82,16.641,2026-05-21 16:59:34.109,-1.3684950000000002,-0.513063,9.551016,0.0,-1.0,-2.1,0.021
16.84,16.66,2026-05-21 16:59:34.128,-1.3351410000000001,-0.47088,9.719748,0.9,-0.6,-1.2,0.019
16.86,16.687,2026-05-21 16:59:34.155,-1.3165019999999998,-0.41888700000000006,9.778608,0.4,-0.6,-2.0,0.027
16.88,16.717,2026-05-21 16:59:34.185,-1.389096,-0.38259000000000004,9.736425,0.0,0.1,-0.6,0.03
16.9,16.748,2026-05-21 16:59:34.216,-1.496025,-0.35414100000000004,9.786456000000001,-0.6,-1.5,-2.3,0.031
16.92,16.749,2026-05-21 16:59:34.217,-1.389096,-0.49540500000000004,9.65304,-0.8,-1.5,-3.4,0.001
16.94,16.786,2026-05-21 16:59:34.254,-1.3047300000000002,-0.430659,9.667755000000001,0.0,0.0,-0.2,0.037
16.96,16.787,2026-05-21 16:59:34.255,-1.4361840000000001,-0.35316,9.685413,1.2,0.0,0.6,0.001
16.98,16.817,2026-05-21 16:59:34.285,-1.390077,-0.332559,9.792342000000001,0.3,-1.2,-2.9,0.03
17.0,16.848,2026-05-21 16:59:34.316,-1.2213450000000001,-0.501291,9.700128,0.3,-1.4,-2.7,0.031
17.02,16.864,2026-05-21 16:59:34.332,-1.2507750000000002,-0.5493600000000001,9.768798,-1.1,-1.6,-0.2,0.016
17.04,16.88,2026-05-21 16:59:34.348,-1.326312,-0.4679370000000001,9.828639,0.6,0.0,0.3,0.016
17.06,16.895,2026-05-21 16:59:34.363,-1.34397,-0.306072,9.912024,-0.1,0.7,0.0,0.015
17.080000000000002,16.927,2026-05-21 16:59:34.395,-1.4302980000000003,-0.317844,9.880632000000002,-1.4,-0.5,-0.2,0.032
17.1,16.943,2026-05-21 16:59:34.411,-1.4891580000000002,-0.3747420000000001,9.743292000000002,-1.3,-1.4,-0.7,0.016
17.12,16.958,2026-05-21 16:59:34.426,-1.5450750000000002,-0.37866600000000006,9.671679000000001,0.0,-0.3,-2.2,0.015
17.14,16.964,2026-05-21 16:59:34.432,-1.417545,-0.36198899999999995,9.73152,0.2,1.0,-2.9,0.006
17.16,16.977,2026-05-21 16:59:34.445,-1.4038110000000001,-0.361008,9.676584,0.0,-0.2,-2.0,0.013
17.18,17.0,2026-05-21 16:59:34.468,-1.41264,-0.400248,9.680508,0.0,-1.7,-2.8,0.023
17.2,17.016,2026-05-21 16:59:34.484,-1.345932,-0.468918,9.634401,1.5,-0.1,-3.7,0.016
17.22,17.036,2026-05-21 16:59:34.504,-1.271376,-0.38749500000000003,9.770760000000001,1.5,0.6,-1.6,0.02
17.240000000000002,17.057,2026-05-21 16:59:34.525,-1.445994,-0.32373,9.830601,-0.1,-0.5,-0.8,0.021
17.26,17.075,2026-05-21 16:59:34.543,-1.357704,-0.436545,9.708957000000002,-0.3,-2.0,-3.9,0.018
17.28,17.097,2026-05-21 16:59:34.565,-1.2184020000000002,-0.49540500000000004,9.774684,0.2,-0.5,-2.9,0.022
17.3,17.115,2026-05-21 16:59:34.583,-1.3321980000000002,-0.410058,9.778608,0.0,0.9,-0.6,0.018
17.32,17.134,2026-05-21 16:59:34.602,-1.4253930000000001,-0.357084,9.725634,-0.5,-1.2,-2.6,0.019
17.34,17.154,2026-05-21 16:59:34.622,-1.2890340000000002,-0.38553299999999996,9.759969,-0.7,-1.3,-2.5,0.02
17.36,17.174,2026-05-21 16:59:34.642,-1.379286,-0.400248,9.74133,-0.7,1.1,-0.1,0.02
17.38,17.194,2026-05-21 16:59:34.662,-1.4832720000000001,-0.417906,9.670698,-0.5,0.9,-1.9,0.02
17.400000000000002,17.214,2026-05-21 16:59:34.682,-1.3979249999999999,-0.445374,9.604971,-0.5,-0.6,-2.4,0.02
17.42,17.233,2026-05-21 16:59:34.701,-1.376343,-0.400248,9.599085,0.4,-0.1,-1.0,0.019
17.44,17.254,2026-05-21 16:59:34.722,-1.4499180000000003,-0.260946,9.774684,1.1,-0.5,-1.5,0.021
17.46,17.273,2026-05-21 16:59:34.741,-1.439127,-0.29135700000000003,9.758007000000001,0.7,-0.7,-3.1,0.019
17.48,17.293,2026-05-21 16:59:34.761,-1.4381460000000001,-0.318825,9.85905,-0.8,-0.3,-2.6,0.02
17.5,17.315,2026-05-21 16:59:34.783,-1.376343,-0.42869700000000005,9.685413,-0.9,-0.7,-3.4,0.022
17.52,17.332,2026-05-21 16:59:34.800,-1.26549,-0.49050000000000005,9.614781,-0.9,-0.9,-3.0,0.017
17.54,17.353,2026-05-21 16:59:34.821,-1.2105540000000001,-0.4434120000000001,9.724653,1.7,0.0,-2.2,0.021
17.56,17.371,2026-05-21 16:59:34.839,-1.330236,-0.400248,9.774684,0.6,0.0,-0.9,0.018
17.580000000000002,17.392,2026-05-21 16:59:34.860,-1.3841910000000002,-0.327654,9.87867,0.1,0.4,0.0,0.021
17.6,17.411,2026-05-21 16:59:34.879,-1.452861,-0.310977,9.774684,-1.0,-0.3,-0.9,0.019
17.62,17.438,2026-05-21 16:59:34.906,-1.490139,-0.320787,9.727596,-0.7,-0.6,-2.2,0.027
17.64,17.451,2026-05-21 16:59:34.919,-1.3734000000000002,-0.3924,9.73152,-0.9,-1.0,-3.0,0.013
17.66,17.472,2026-05-21 16:59:34.940,-1.31454,-0.474804,9.5157,-0.6,0.2,-1.9,0.021
17.68,17.491,2026-05-21 16:59:34.959,-1.4715,-0.35021700000000006,9.766836000000001,1.0,-0.1,-0.8,0.019
17.7,17.51,2026-05-21 16:59:34.978,-1.4685570000000001,-0.40711500000000006,9.713862,-0.9,-0.5,-3.4,0.019
17.72,17.53,2026-05-21 16:59:34.998,-1.2448890000000001,-0.419868,9.796266000000001,0.3,-1.0,-2.2,0.02
17.740000000000002,17.552,2026-05-21 16:59:35.020,-1.370457,-0.348255,9.816867000000002,-0.7,0.5,0.3,0.022
17.76,17.569,2026-05-21 16:59:35.037,-1.4548230000000002,-0.349236,9.648135000000002,-0.2,1.2,-2.0,0.017
17.78,17.589,2026-05-21 16:59:35.057,-1.380267,-0.48069000000000006,9.65304,-0.3,-1.8,-2.1,0.02
17.8,17.609,2026-05-21 16:59:35.077,-1.3822290000000002,-0.327654,9.797247,1.0,0.2,0.0,0.02
17.82,17.629,2026-05-21 16:59:35.097,-1.4636520000000002,-0.24230700000000002,9.905157,-1.2,-0.9,-1.9,0.02
17.84,17.649,2026-05-21 16:59:35.117,-1.326312,-0.347274,9.666774,-2.1,0.2,-3.0,0.02
17.86,17.669,2026-05-21 16:59:35.137,-1.297863,-0.44145,9.74133,-1.6,-0.9,-2.4,0.02
17.88,17.689,2026-05-21 16:59:35.157,-1.2703950000000002,-0.543474,9.585351000000001,-2.1,-1.5,-1.9,0.02
17.900000000000002,17.708,2026-05-21 16:59:35.176,-1.4136210000000002,-0.38553299999999996,9.732501000000001,-1.0,0.5,0.7,0.019
17.92,17.728,2026-05-21 16:59:35.196,-1.5274169999999998,-0.290376,9.778608,-1.6,-0.1,-2.0,0.02
17.94,17.748,2026-05-21 16:59:35.216,-1.3783050000000001,-0.42379200000000006,9.706995000000001,-2.3,-1.9,-2.9,0.02
17.96,17.767,2026-05-21 16:59:35.235,-1.385172,-0.506196,9.572598000000001,-0.6,-0.6,0.0,0.019
17.98,17.787,2026-05-21 16:59:35.255,-1.560771,-0.37866600000000006,9.676584,0.8,1.2,-0.9,0.02
18.0,17.809,2026-05-21 16:59:35.277,-1.49112,-0.334521,9.723672,0.5,-0.5,-4.1,0.022
18.02,17.827,2026-05-21 16:59:35.295,-1.3812480000000003,-0.45910799999999996,9.621648,-0.3,-2.1,-3.2,0.018
18.04,17.847,2026-05-21 16:59:35.315,-1.347894,-0.49540500000000004,9.655983,0.6,-1.2,-1.9,0.02
18.06,17.87,2026-05-21 16:59:35.338,-1.3586850000000001,-0.37278,9.805095000000001,1.6,0.1,-1.9,0.023
18.080000000000002,17.886,2026-05-21 16:59:35.354,-1.4361840000000001,-0.248193,9.960092999999999,0.0,0.4,-1.6,0.016
18.1,17.906,2026-05-21 16:59:35.374,-1.460709,-0.27369899999999997,9.899271000000002,-1.2,-1.1,-2.5,0.02
18.12,17.93,2026-05-21 16:59:35.398,-1.3734000000000002,-0.409077,9.779589000000001,-1.5,-1.6,-3.1,0.024
18.14,17.953,2026-05-21 16:59:35.421,-1.2939390000000002,-0.47284200000000004,9.81,-1.0,-0.2,-3.9,0.023
18.16,17.966,2026-05-21 16:59:35.434,-1.266471,-0.518949,9.72171,-1.0,0.5,-1.6,0.013
18.18,17.989,2026-05-21 16:59:35.457,-1.3979249999999999,-0.409077,9.64323,-1.4,0.0,0.5,0.023
18.2,18.004,2026-05-21 16:59:35.472,-1.4597280000000001,-0.42379200000000006,9.631458,-0.9,-0.9,-2.6,0.015
18.22,18.025,2026-05-21 16:59:35.493,-1.291977,-0.46695600000000004,9.625572000000002,-0.7,-0.2,-2.7,0.021
18.240000000000002,18.045,2026-05-21 16:59:35.513,-1.376343,-0.36198899999999995,9.708957000000002,-0.3,0.0,-0.6,0.02
18.26,18.064,2026-05-21 16:59:35.532,-1.517607,-0.356103,9.67266,-0.5,0.3,-1.3,0.019
18.28,18.085,2026-05-21 16:59:35.553,-1.565676,-0.35316,9.618705,-0.2,0.0,-1.2,0.021
18.3,18.103,2026-05-21 16:59:35.571,-1.4999490000000002,-0.310977,9.78057,0.2,-1.0,-2.6,0.018
18.32,18.124,2026-05-21 16:59:35.592,-1.3694760000000001,-0.317844,9.866898,-0.1,0.5,-3.4,0.021
18.34,18.143,2026-05-21 16:59:35.611,-1.278243,-0.3982860000000001,9.79038,-1.1,0.1,-2.9,0.019
18.36,18.163,2026-05-21 16:59:35.631,-1.277262,-0.488538,9.676584,0.0,-0.7,-2.1,0.02
18.38,18.183,2026-05-21 16:59:35.651,-1.3783050000000001,-0.38749500000000003,9.791361,0.0,1.3,0.0,0.02
18.400000000000002,18.203,2026-05-21 16:59:35.671,-1.445994,-0.33746400000000004,9.795285000000002,-0.9,0.0,-1.7,0.02
18.42,18.222,2026-05-21 16:59:35.690,-1.364571,-0.42379200000000006,9.717786,-1.4,-1.7,-3.4,0.019
18.44,18.242,2026-05-21 16:59:35.710,-1.3194450000000002,-0.41594400000000004,9.770760000000001,-1.1,-0.1,-1.8,0.02
18.46,18.262,2026-05-21 16:59:35.730,-1.446975,-0.445374,9.660888,-1.0,0.5,-1.6,0.02
18.48,18.282,2026-05-21 16:59:35.750,-1.407735,-0.478728,9.64323,-1.5,-1.2,-1.9,0.02
18.5,18.301,2026-05-21 16:59:35.769,-1.3371030000000002,-0.512082,9.629496000000001,-0.5,0.0,-0.7,0.019
18.52,18.321,2026-05-21 16:59:35.789,-1.4489370000000001,-0.38749500000000003,9.719748,0.3,1.0,0.1,0.02
18.54,18.341,2026-05-21 16:59:35.809,-1.5274169999999998,-0.27468000000000004,9.856107000000002,-0.8,-1.1,-1.9,0.02
18.56,18.362,2026-05-21 16:59:35.830,-1.4773859999999999,-0.36493200000000003,9.789399000000001,-1.8,-0.8,-2.5,0.021
18.580000000000002,18.381,2026-05-21 16:59:35.849,-1.414602,-0.499329,9.602028,-1.0,1.8,-2.3,0.019
18.6,18.401,2026-05-21 16:59:35.869,-1.5195690000000002,-0.43164,9.693261,-0.1,-0.1,-1.9,0.02
18.62,18.42,2026-05-21 16:59:35.888,-1.407735,-0.37081800000000004,9.764874,-1.0,-2.0,-2.9,0.019
18.64,18.439,2026-05-21 16:59:35.907,-1.31454,-0.47088,9.73152,-2.2,-0.7,-2.3,0.019
18.66,18.459,2026-05-21 16:59:35.927,-1.325331,-0.543474,9.60399,0.7,1.0,-2.5,0.02
18.68,18.479,2026-05-21 16:59:35.947,-1.445994,-0.328635,9.843354000000001,0.0,-0.3,0.1,0.02
18.7,18.499,2026-05-21 16:59:35.967,-1.5087780000000002,-0.29626199999999997,9.774684,-1.2,0.2,-1.6,0.02
18.72,18.52,2026-05-21 16:59:35.988,-1.488177,-0.38651399999999997,9.766836000000001,-1.7,-0.3,-2.6,0.021
18.740000000000002,18.539,2026-05-21 16:59:36.007,-1.3223880000000001,-0.42084900000000003,9.789399000000001,-2.1,-1.4,-3.6,0.019
18.76,18.559,2026-05-21 16:59:36.027,-1.3008060000000001,-0.4679370000000001,9.833544,-2.8,0.6,-0.1,0.02
18.78,18.578,2026-05-21 16:59:36.046,-1.417545,-0.40221,9.795285000000002,-3.6,1.9,0.1,0.019
18.8,18.598,2026-05-21 16:59:36.066,-1.4626709999999998,-0.479709,9.663831,-3.3,-0.8,-3.4,0.02
18.82,18.618,2026-05-21 16:59:36.086,-1.336122,-0.6248970000000001,9.47646,-3.0,-2.2,-2.0,0.02
18.84,18.637,2026-05-21 16:59:36.105,-1.3910580000000001,-0.5846760000000001,9.523548,0.0,1.2,-0.6,0.019
18.86,18.657,2026-05-21 16:59:36.125,-1.505835,-0.474804,9.571617,0.8,1.7,-1.0,0.02
18.88,18.678,2026-05-21 16:59:36.146,-1.5048540000000001,-0.434583,9.64323,0.0,-1.6,-0.2,0.021
18.900000000000002,18.698,2026-05-21 16:59:36.166,-1.554885,-0.4031910000000001,9.680508,0.9,-1.0,-1.2,0.02
18.92,18.717,2026-05-21 16:59:36.185,-1.5637140000000003,-0.376704,9.766836000000001,1.4,-0.1,-2.7,0.019
18.94,18.736,2026-05-21 16:59:36.204,-1.525455,-0.334521,9.861993,0.1,0.1,-3.3,0.019
18.96,18.757,2026-05-21 16:59:36.225,-1.490139,-0.38259000000000004,9.751140000000001,-1.4,-1.3,-3.3,0.021
18.98,18.776,2026-05-21 16:59:36.244,-1.441089,-0.45812700000000006,9.703071,-1.0,-1.8,-4.0,0.019
19.0,18.796,2026-05-21 16:59:36.264,-1.380267,-0.567018,9.633420000000001,-1.0,-0.7,-3.2,0.02
19.02,18.817,2026-05-21 16:59:36.285,-1.357704,-0.473823,9.724653,0.3,-0.7,-2.7,0.021
19.04,18.835,2026-05-21 16:59:36.303,-1.3684950000000002,-0.44929800000000003,9.785475000000002,-0.5,-1.2,-3.6,0.018
19.06,18.858,2026-05-21 16:59:36.326,-1.29492,-0.5483790000000001,9.734463,-1.1,-0.9,-3.7,0.023
19.080000000000002,18.875,2026-05-21 16:59:36.343,-1.2517559999999999,-0.611163,9.590256,-0.5,-0.5,-2.5,0.017
19.1,18.897,2026-05-21 16:59:36.365,-1.330236,-0.543474,9.666774,0.3,-0.1,-0.3,0.022
19.12,18.915,2026-05-21 16:59:36.383,-1.4499180000000003,-0.424773,9.774684,0.8,0.6,0.0,0.018
19.14,18.935,2026-05-21 16:59:36.403,-1.52055,-0.405153,9.650097,0.2,0.7,-1.0,0.02
19.16,18.957,2026-05-21 16:59:36.425,-1.496025,-0.43164,9.664812000000001,0.6,-0.4,-2.1,0.022
19.18,18.974,2026-05-21 16:59:36.442,-1.49112,-0.367875,9.794304,1.0,-0.5,-1.3,0.017
19.2,18.995,2026-05-21 16:59:36.463,-1.501911,-0.371799,9.783513000000001,-0.1,-0.1,-2.6,0.021
19.22,19.016,2026-05-21 16:59:36.484,-1.445994,-0.44929800000000003,9.676584,-0.6,-0.5,-3.4,0.021
19.240000000000002,19.033,2026-05-21 16:59:36.501,-1.3537800000000002,-0.522873,9.639306000000001,0.5,-1.2,-2.7,0.017
19.26,19.053,2026-05-21 16:59:36.521,-1.3086540000000002,-0.517968,9.737406,0.4,-1.0,-2.3,0.02
19.28,19.074,2026-05-21 16:59:36.542,-1.3861530000000002,-0.469899,9.79038,0.3,0.9,-0.7,0.021
19.3,19.093,2026-05-21 16:59:36.561,-1.4636520000000002,-0.445374,9.727596,-0.5,-0.3,-1.6,0.019
19.32,19.113,2026-05-21 16:59:36.581,-1.385172,-0.446355,9.736425,-0.2,-1.8,-1.3,0.02
19.34,19.139,2026-05-21 16:59:36.607,-1.396944,-0.367875,9.854145,-0.1,0.1,-0.3,0.026
19.36,19.152,2026-05-21 16:59:36.620,-1.5117209999999999,-0.375723,9.745254,-0.8,0.9,-1.6,0.013
19.38,19.172,2026-05-21 16:59:36.640,-1.493082,-0.502272,9.625572000000002,-1.2,-2.4,-4.2,0.02
19.400000000000002,19.192,2026-05-21 16:59:36.660,-1.3734000000000002,-0.5071770000000001,9.634401,-0.3,-1.8,-1.3,0.02
19.42,19.212,2026-05-21 16:59:36.680,-1.4185260000000002,-0.3982860000000001,9.732501000000001,0.0,0.0,-1.1,0.02
19.44,19.231,2026-05-21 16:59:36.699,-1.42245,-0.426735,9.810981,-0.4,-1.4,-2.9,0.019
19.46,19.251,2026-05-21 16:59:36.719,-1.39302,-0.5591700000000001,9.709938,0.0,-0.6,-1.7,0.02
19.48,19.272,2026-05-21 16:59:36.740,-1.5578280000000002,-0.3924,9.802152000000001,-0.4,0.4,-0.1,0.021
19.5,19.291,2026-05-21 16:59:36.759,-1.51074,-0.38749500000000003,9.764874,-1.0,-1.7,-3.4,0.019
19.52,19.31,2026-05-21 16:59:36.778,-1.379286,-0.424773,9.737406,-1.6,-2.3,-2.7,0.019
19.54,19.33,2026-05-21 16:59:36.798,-1.341027,-0.446355,9.762912000000002,-1.8,-1.3,-1.7,0.02
19.56,19.356,2026-05-21 16:59:36.824,-1.42245,-0.39926700000000004,9.774684,-2.4,0.9,-0.3,0.026
19.580000000000002,19.37,2026-05-21 16:59:36.838,-1.4940630000000004,-0.397305,9.72171,-2.8,1.2,-0.7,0.014
19.6,19.389,2026-05-21 16:59:36.857,-1.496025,-0.4434120000000001,9.569655000000001,-3.3,-1.5,-3.3,0.019
19.62,19.409,2026-05-21 16:59:36.877,-1.278243,-0.606258,9.499023,-1.2,-4.2,-3.1,0.02
19.64,19.429,2026-05-21 16:59:36.897,-1.271376,-0.5738850000000001,9.623610000000001,1.3,-1.1,0.1,0.02
19.66,19.449,2026-05-21 16:59:36.917,-1.4401080000000002,-0.45812700000000006,9.678546,1.8,1.5,-0.4,0.02
19.68,19.468,2026-05-21 16:59:36.936,-1.5735240000000001,-0.356103,9.764874,0.7,-0.9,-1.2,0.019
19.7,19.488,2026-05-21 16:59:36.956,-1.4136210000000002,-0.4679370000000001,9.740349,0.5,-2.3,-2.8,0.02
19.72,19.508,2026-05-21 16:59:36.976,-1.389096,-0.45910799999999996,9.823734000000002,0.2,-0.3,-1.3,0.02
19.740000000000002,19.528,2026-05-21 16:59:36.996,-1.5637140000000003,-0.381609,9.85905,-0.3,-0.1,-1.7,0.02
19.76,19.548,2026-05-21 16:59:37.016,-1.4352030000000002,-0.41888700000000006,9.758007000000001,-1.1,-2.1,-5.1,0.02
19.78,19.571,2026-05-21 16:59:37.039,-1.2988440000000003,-0.523854,9.753102000000002,-1.0,-1.0,-3.4,0.023
19.8,19.587,2026-05-21 16:59:37.055,-1.2821669999999998,-0.587619,9.654021,-0.6,-0.4,-2.8,0.016
19.82,19.607,2026-05-21 16:59:37.075,-1.2517559999999999,-0.5709420000000001,9.650097,-0.2,-0.7,-1.9,0.02
19.84,19.627,2026-05-21 16:59:37.095,-1.320426,-0.45616500000000004,9.749177999999999,-0.5,0.1,0.5,0.02
19.86,19.647,2026-05-21 16:59:37.115,-1.460709,-0.363951,9.806076000000001,-0.8,-0.3,-1.2,0.02
19.88,19.667,2026-05-21 16:59:37.135,-1.406754,-0.46303200000000005,9.670698,-0.9,-0.6,-2.3,0.02
19.900000000000002,19.686,2026-05-21 16:59:37.154,-1.409697,-0.45910799999999996,9.665793,0.0,-0.1,-0.6,0.019
19.92,19.706,2026-05-21 16:59:37.174,-1.574505,-0.375723,9.725634,-0.3,0.0,-0.9,0.02
19.94,19.726,2026-05-21 16:59:37.194,-1.521531,-0.408096,9.705033,-0.9,-1.5,-3.5,0.02
19.96,19.746,2026-05-21 16:59:37.214,-1.315521,-0.479709,9.749177999999999,-0.6,-2.1,-3.4,0.02
19.98,19.765,2026-05-21 16:59:37.233,-1.3135590000000001,-0.488538,9.666774,-0.4,-0.4,-1.5,0.019
20.0,22.672,2026-05-21 16:59:40.140,-1.3518180000000002,-0.45322200000000007,9.689337,0.1,0.1,-1.8,2.907
20.02,22.672,2026-05-21 16:59:40.140,-1.4038110000000001,-0.413982,9.709938,0.6,0.0,-1.6,0.0
20.04,22.673,2026-05-21 16:59:40.141,-1.4008680000000002,-0.46008899999999997,9.837468,0.0,-0.7,-1.3,0.001
20.06,22.673,2026-05-21 16:59:40.141,-1.376343,-0.419868,9.876707999999999,1.2,-0.9,-2.1,0.0
20.080000000000002,22.673,2026-05-21 16:59:40.141,-1.4361840000000001,-0.5277780000000001,9.678546,-0.8,-0.4,-2.0,0.0
20.1,22.673,2026-05-21 16:59:40.141,-1.3390650000000002,-0.546417,9.605952000000002,1.0,-0.3,-0.3,0.0
20.12,22.673,2026-05-21 16:59:40.141,-1.380267,-0.5169870000000001,9.582408000000001,-0.4,-1.0,-2.6,0.0
20.14,22.673,2026-05-21 16:59:40.141,-1.379286,-0.46205100000000005,9.727596,1.6,0.1,-1.0,0.0
20.16,22.674,2026-05-21 16:59:40.142,-1.4302980000000003,-0.47088,9.686394,0.6,0.8,-0.6,0.001
20.18,22.674,2026-05-21 16:59:40.142,-1.4008680000000002,-0.4434120000000001,9.723672,0.5,-0.3,-2.3,0.0
20.2,22.674,2026-05-21 16:59:40.142,-1.3783050000000001,-0.396324,9.808038,-0.3,-0.8,-2.1,0.0
20.22,22.674,2026-05-21 16:59:40.142,-1.5195690000000002,-0.3296160000000001,9.803133,-0.6,0.0,-0.8,0.0
20.240000000000002,22.674,2026-05-21 16:59:40.142,-1.5156450000000001,-0.38749500000000003,9.753102000000002,-1.2,-0.5,-2.3,0.0
20.26,22.674,2026-05-21 16:59:40.142,-1.424412,-0.522873,9.607914,0.5,0.0,-4.1,0.0
20.28,22.674,2026-05-21 16:59:40.142,-1.2684330000000001,-0.408096,9.808038,0.5,0.2,-1.3,0.0
20.3,22.675,2026-05-21 16:59:40.143,-1.4999490000000002,-0.344331,9.788418,-1.4,-0.8,-0.8,0.001
20.32,22.675,2026-05-21 16:59:40.143,-1.5048540000000001,-0.43262100000000003,9.616743,1.1,0.1,-2.0,0.0
20.34,22.675,2026-05-21 16:59:40.143,-1.445013,-0.505215,9.568674,0.7,-0.4,-1.8,0.0
20.36,22.675,2026-05-21 16:59:40.143,-1.45188,-0.3698370000000001,9.747216000000002,-1.0,0.1,-0.2,0.0
20.38,22.675,2026-05-21 16:59:40.143,-1.434222,-0.486576,9.589275,-1.4,-1.4,-2.9,0.0
20.400000000000002,22.675,2026-05-21 16:59:40.143,-1.307673,-0.474804,9.707976,-1.3,0.0,-0.7,0.0
20.42,22.675,2026-05-21 16:59:40.143,-1.4018490000000001,-0.45126,9.738387000000001,-1.4,-0.3,-0.3,0.0
20.44,22.675,2026-05-21 16:59:40.143,-1.2998250000000002,-0.45420299999999997,9.72171,-1.1,-0.8,-1.6,0.0
20.46,22.675,2026-05-21 16:59:40.143,-1.3321980000000002,-0.38945700000000005,9.768798,-1.1,-1.6,-0.5,0.0
20.48,22.676,2026-05-21 16:59:40.144,-1.4253930000000001,-0.42183,9.658926000000001,0.7,-1.4,-2.6,0.001
20.5,22.676,2026-05-21 16:59:40.144,-1.3675140000000001,-0.45420299999999997,9.717786,0.8,-2.8,-2.4,0.0
20.52,22.676,2026-05-21 16:59:40.144,-1.4008680000000002,-0.45420299999999997,9.758988,1.0,-0.2,-1.9,0.0
20.54,22.676,2026-05-21 16:59:40.144,-1.441089,-0.367875,9.81,1.3,0.8,-1.7,0.0
20.56,22.676,2026-05-21 16:59:40.144,-1.396944,-0.35512200000000005,9.87867,0.1,-1.0,-3.5,0.0
20.580000000000002,22.676,2026-05-21 16:59:40.144,-1.233117,-0.47774700000000003,9.827658000000001,-1.4,-1.3,-3.2,0.0
20.6,22.676,2026-05-21 16:59:40.144,-1.260585,-0.537588,9.700128,-1.5,0.5,-0.9,0.0
20.62,22.677,2026-05-21 16:59:40.145,-1.490139,-0.381609,9.674622000000001,1.3,-0.1,-2.1,0.001
20.64,22.677,2026-05-21 16:59:40.145,-1.406754,-0.38553299999999996,9.649116000000001,-0.1,-1.1,0.2,0.0
20.66,22.677,2026-05-21 16:59:40.145,-1.406754,-0.405153,9.683451,0.4,0.0,-2.3,0.0
20.68,22.677,2026-05-21 16:59:40.145,-1.4979870000000002,-0.397305,9.680508,-1.1,1.3,0.6,0.0
20.7,22.677,2026-05-21 16:59:40.145,-1.3841910000000002,-0.3982860000000001,9.764874,-1.4,0.2,0.1,0.0
20.72,22.677,2026-05-21 16:59:40.145,-1.3498560000000002,-0.48069000000000006,9.696204,-1.4,0.4,-0.3,0.0
20.740000000000002,22.677,2026-05-21 16:59:40.145,-1.525455,-0.475785,9.550035000000001,-0.2,0.3,-2.8,0.0
20.76,22.678,2026-05-21 16:59:40.146,-1.3684950000000002,-0.413001,9.746235,1.3,1.5,-4.2,0.001
20.78,22.678,2026-05-21 16:59:40.146,-1.3567230000000001,-0.409077,9.823734000000002,0.1,0.0,-0.9,0.0
20.8,22.678,2026-05-21 16:59:40.146,-1.4715,-0.40711500000000006,9.696204,-0.6,-1.6,-1.8,0.0
20.82,22.678,2026-05-21 16:59:40.146,-1.352799,-0.43164,9.774684,-1.0,-2.0,-4.0,0.0
20.84,22.678,2026-05-21 16:59:40.146,-1.2988440000000003,-0.49246200000000007,9.723672,-0.4,0.2,-1.0,0.0
20.86,22.678,2026-05-21 16:59:40.146,-1.387134,-0.4679370000000001,9.709938,-0.4,1.4,0.2,0.0
20.88,22.679,2026-05-21 16:59:40.147,-1.4352030000000002,-0.30018600000000006,9.833544,1.8,-0.1,-0.4,0.001
20.900000000000002,22.679,2026-05-21 16:59:40.147,-1.6137450000000002,-0.30999600000000005,9.754083,0.0,-0.7,-1.7,0.0
20.92,22.679,2026-05-21 16:59:40.147,-1.5274169999999998,-0.295281,9.876707999999999,-0.4,-0.8,0.0,0.0
20.94,22.679,2026-05-21 16:59:40.147,-1.396944,-0.4483170000000001,9.599085,1.6,0.0,-0.5,0.0
20.96,22.679,2026-05-21 16:59:40.147,-1.4499180000000003,-0.488538,9.605952000000002,1.0,0.3,-1.6,0.0
20.98,22.679,2026-05-21 16:59:40.147,-1.4626709999999998,-0.409077,9.665793,0.6,0.5,0.0,0.0
21.0,22.679,2026-05-21 16:59:40.147,-1.407735,-0.45812700000000006,9.655983,0.6,0.4,-0.2,0.0
21.02,22.679,2026-05-21 16:59:40.147,-1.428336,-0.46008899999999997,9.628515,0.0,-0.7,-0.9,0.0
21.04,22.68,2026-05-21 16:59:40.148,-1.346913,-0.45616500000000004,9.763893,-1.3,-1.7,-1.0,0.001
21.06,22.68,2026-05-21 16:59:40.148,-1.341027,-0.434583,9.686394,-0.3,-1.7,-3.3,0.0
21.080000000000002,22.68,2026-05-21 16:59:40.148,-1.4773859999999999,-0.327654,9.74133,-0.1,-1.0,-2.5,0.0
21.1,22.68,2026-05-21 16:59:40.148,-1.4940630000000004,-0.36591300000000004,9.827658000000001,-1.4,-0.2,-0.3,0.0
21.12,22.68,2026-05-21 16:59:40.148,-1.3537800000000002,-0.46205100000000005,9.689337,-0.2,0.1,-2.1,0.0
21.14,22.68,2026-05-21 16:59:40.148,-1.441089,-0.35512200000000005,9.767817,0.0,-1.1,-3.9,0.0
21.16,22.68,2026-05-21 16:59:40.148,-1.4361840000000001,-0.396324,9.715824,0.4,0.5,-0.5,0.0
21.18,22.681,2026-05-21 16:59:40.149,-1.4842530000000003,-0.38651399999999997,9.667755000000001,-2.8,0.5,-2.4,0.001
21.2,22.681,2026-05-21 16:59:40.149,-1.3586850000000001,-0.48951900000000004,9.568674,-1.2,-1.5,-2.9,0.0
21.22,22.681,2026-05-21 16:59:40.149,-1.3684950000000002,-0.537588,9.520605000000002,-0.6,-1.8,-0.6,0.0
21.240000000000002,22.681,2026-05-21 16:59:40.149,-1.439127,-0.464994,9.455859,0.7,-0.5,-0.4,0.0
21.26,22.681,2026-05-21 16:59:40.149,-1.4038110000000001,-0.34236900000000003,9.546111000000002,2.7,-0.3,-0.6,0.0
21.28,22.681,2026-05-21 16:59:40.149,-1.4813100000000001,-0.10398600000000001,9.975788999999999,2.4,-0.7,0.7,0.0
21.3,22.681,2026-05-21 16:59:40.149,-1.585296,-0.154017,9.951264,-0.3,-0.3,-0.3,0.0
21.32,22.682,2026-05-21 16:59:40.150,-1.240965,-0.48069000000000006,9.718767000000001,0.0,0.1,-1.6,0.001
21.34,22.682,2026-05-21 16:59:40.150,-1.357704,-0.46695600000000004,9.746235,0.5,-0.4,-0.2,0.0
21.36,22.682,2026-05-21 16:59:40.150,-1.2596040000000002,-0.47284200000000004,9.732501000000001,-0.3,-0.8,-3.2,0.0
21.38,22.682,2026-05-21 16:59:40.150,-1.41264,-0.332559,9.826677,-0.3,0.6,0.0,0.0
21.400000000000002,22.682,2026-05-21 16:59:40.150,-1.379286,-0.413982,9.687375000000001,0.0,-1.3,-4.3,0.0
21.42,22.682,2026-05-21 16:59:40.150,-1.325331,-0.42379200000000006,9.781551,-1.2,-2.7,-3.4,0.0
21.44,22.682,2026-05-21 16:59:40.150,-1.55979,-0.35904600000000003,9.751140000000001,0.0,-0.8,-4.0,0.0
21.46,22.683,2026-05-21 16:59:40.151,-1.5539040000000002,-0.25506,9.812943,-0.6,0.9,-1.2,0.001
21.48,22.683,2026-05-21 16:59:40.151,-1.496025,-0.275661,9.754083,-1.6,-1.2,-3.2,0.0
21.5,22.683,2026-05-21 16:59:40.151,-1.406754,-0.3982860000000001,9.651078,-2.5,-2.1,-2.5,0.0
21.52,22.683,2026-05-21 16:59:40.151,-1.4361840000000001,-0.46401299999999995,9.500985,-0.4,0.6,-1.1,0.0
21.54,22.683,2026-05-21 16:59:40.151,-1.5087780000000002,-0.34531200000000006,9.607914,0.6,0.8,-1.1,0.0
21.56,22.683,2026-05-21 16:59:40.151,-1.4626709999999998,-0.340407,9.674622000000001,0.5,-2.0,-3.5,0.0
21.580000000000002,22.683,2026-05-21 16:59:40.151,-1.4165640000000002,-0.34236900000000003,9.709938,0.9,-1.8,-3.3,0.0
21.6,22.684,2026-05-21 16:59:40.152,-1.39302,-0.400248,9.727596,-0.7,0.1,-1.9,0.001
21.62,22.684,2026-05-21 16:59:40.152,-1.399887,-0.397305,9.762912000000002,-1.7,-1.1,-0.9,0.0
21.64,22.684,2026-05-21 16:59:40.152,-1.434222,-0.405153,9.713862,-1.2,-0.8,-1.6,0.0
21.66,22.684,2026-05-21 16:59:40.152,-1.341027,-0.38749500000000003,9.759969,-0.6,-1.4,-2.0,0.0
21.68,22.684,2026-05-21 16:59:40.152,-1.4381460000000001,-0.3296160000000001,9.834525,-0.3,-1.1,-2.2,0.0
21.7,22.684,2026-05-21 16:59:40.152,-1.41264,-0.32373,9.816867000000002,0.7,0.0,-1.6,0.0
21.72,22.684,2026-05-21 16:59:40.152,-1.352799,-0.38553299999999996,9.761931,0.0,0.2,-1.6,0.0
21.740000000000002,22.685,2026-05-21 16:59:40.153,-1.5470369999999998,-0.16480800000000004,9.935568,-0.2,-0.2,-2.7,0.001
21.76,22.685,2026-05-21 16:59:40.153,-1.4715,-0.45126,9.677565000000001,-2.8,-0.6,-1.3,0.0
21.78,22.685,2026-05-21 16:59:40.153,-1.3734000000000002,-0.560151,9.5157,-3.7,-1.3,-1.9,0.0
21.8,22.685,2026-05-21 16:59:40.153,-1.3174830000000002,-0.528759,9.534339000000001,-2.7,-2.6,0.4,0.0
21.82,22.685,2026-05-21 16:59:40.153,-1.4038110000000001,-0.299205,9.718767000000001,-1.2,-2.8,2.0,0.0
21.84,22.685,2026-05-21 16:59:40.153,-1.5637140000000003,-0.16677000000000003,9.805095000000001,-0.1,-2.6,-1.2,0.0
21.86,22.685,2026-05-21 16:59:40.153,-1.4989680000000003,-0.266832,9.823734000000002,-0.6,-0.9,-5.6,0.0
21.88,22.686,2026-05-21 16:59:40.154,-1.172295,-0.554265,9.600066,-0.6,0.1,-0.8,0.001
21.900000000000002,22.686,2026-05-21 16:59:40.154,-1.55979,-0.20797200000000002,9.925758,-1.7,-0.2,-1.1,0.0
21.92,22.686,2026-05-21 16:59:40.154,-1.525455,-0.31686299999999995,9.786456000000001,-3.1,-0.4,-3.6,0.0
21.94,22.686,2026-05-21 16:59:40.154,-1.51074,-0.301167,9.857088,-0.6,-0.3,1.2,0.0
21.96,22.686,2026-05-21 16:59:40.154,-1.22625,-0.555246,9.649116000000001,-1.5,-1.9,-4.5,0.0
21.98,22.686,2026-05-21 16:59:40.154,-1.2988440000000003,-0.49050000000000005,9.664812000000001,0.4,-0.7,-0.4,0.0
22.0,22.686,2026-05-21 16:59:40.154,-1.260585,-0.446355,9.616743,0.4,0.7,-0.1,0.0
22.02,22.686,2026-05-21 16:59:40.154,-1.315521,-0.405153,9.854145,-1.0,-1.2,0.0,0.0
22.04,22.687,2026-05-21 16:59:40.155,-1.517607,-0.33844500000000005,9.817848,0.8,-1.1,-0.7,0.001
22.06,22.687,2026-05-21 16:59:40.155,-1.3861530000000002,-0.35414100000000004,9.753102000000002,1.0,-1.0,0.0,0.0
22.080000000000002,22.687,2026-05-21 16:59:40.155,-1.3684950000000002,-0.40711500000000006,9.638325,0.7,0.0,-2.7,0.0
22.1,22.687,2026-05-21 16:59:40.155,-1.4597280000000001,-0.31293899999999997,9.841392,0.3,0.2,-3.0,0.0
22.12,22.687,2026-05-21 16:59:40.155,-1.3037490000000003,-0.576828,9.577503,0.2,-0.5,-0.7,0.0
22.14,22.687,2026-05-21 16:59:40.155,-1.321407,-0.617049,9.530415000000001,-2.3,-1.9,-3.8,0.0
22.16,22.687,2026-05-21 16:59:40.155,-1.4499180000000003,-0.43164,9.680508,1.1,1.1,-0.9,0.0
22.18,22.688,2026-05-21 16:59:40.156,-1.370457,-0.38651399999999997,9.80019,-0.1,-0.2,-3.6,0.001
22.2,22.688,2026-05-21 16:59:40.156,-1.3135590000000001,-0.430659,9.775665000000002,-0.7,-1.2,-3.0,0.0
22.22,22.688,2026-05-21 16:59:40.156,-1.2674519999999998,-0.544455,9.696204,-0.3,-1.4,-2.5,0.0
22.240000000000002,22.688,2026-05-21 16:59:40.156,-1.2792240000000001,-0.49050000000000005,9.769779,-0.1,-0.1,-1.1,0.0
22.26,22.688,2026-05-21 16:59:40.156,-1.3086540000000002,-0.483633,9.764874,-0.2,0.5,-0.9,0.0
22.28,22.688,2026-05-21 16:59:40.156,-1.342989,-0.41888700000000006,9.743292000000002,-1.1,0.4,0.0,0.0
22.3,22.688,2026-05-21 16:59:40.156,-1.4332410000000002,-0.413982,9.632439,-1.3,-0.1,0.6,0.0
22.32,22.689,2026-05-21 16:59:40.157,-1.501911,-0.331578,9.631458,-0.2,-2.4,-4.5,0.001
22.34,22.689,2026-05-21 16:59:40.157,-1.347894,-0.45420299999999997,9.707976,0.4,-1.9,-3.1,0.0
22.36,22.689,2026-05-21 16:59:40.157,-1.3047300000000002,-0.49050000000000005,9.81,-0.6,-1.7,-3.2,0.0
22.38,22.689,2026-05-21 16:59:40.157,-1.5588090000000001,-0.29626199999999997,9.700128,0.7,-0.2,-1.0,0.0
22.400000000000002,22.689,2026-05-21 16:59:40.157,-1.370457,-0.366894,9.691299,0.4,-0.9,-1.7,0.0
22.42,22.689,2026-05-21 16:59:40.157,-1.4489370000000001,-0.35512200000000005,9.707976,0.1,1.2,0.4,0.0
22.44,22.689,2026-05-21 16:59:40.157,-1.4715,-0.36591300000000004,9.64323,0.0,-1.4,-1.5,0.0
22.46,22.69,2026-05-21 16:59:40.158,-1.2684330000000001,-0.518949,9.803133,0.7,-1.6,-1.0,0.001
22.48,22.69,2026-05-21 16:59:40.158,-1.40283,-0.47284200000000004,9.871803,-0.3,-1.1,-1.0,0.0
22.5,22.69,2026-05-21 16:59:40.158,-1.345932,-0.615087,9.769779,-1.7,-1.6,-2.8,0.0
22.52,22.69,2026-05-21 16:59:40.158,-1.325331,-0.7180920000000001,9.577503,-2.0,-1.7,0.4,0.0
22.54,22.69,2026-05-21 16:59:40.158,-1.50093,-0.5591700000000001,9.522567,-0.1,-0.9,2.8,0.0
22.56,22.69,2026-05-21 16:59:40.158,-1.577448,-0.3982860000000001,9.563769,1.2,-1.8,-0.6,0.0
22.580000000000002,22.69,2026-05-21 16:59:40.158,-1.3390650000000002,-0.361008,9.671679000000001,0.0,-2.3,-1.1,0.0
22.6,22.691,2026-05-21 16:59:40.159,-1.705959,-0.174618,9.681489000000001,2.6,-5.5,-2.5,0.001
22.62,22.691,2026-05-21 16:59:40.159,-1.1477700000000002,-0.237402,9.983637000000002,0.7,-5.6,-4.9,0.0
22.64,22.691,2026-05-21 16:59:40.159,-1.4744430000000002,-0.120663,9.884556000000002,1.0,-8.2,-3.8,0.0
22.66,22.691,2026-05-21 16:59:40.159,-1.751085,-0.25800300000000004,9.52551,2.5,-1.2,1.0,0.0
22.68,22.691,2026-05-21 16:59:40.159,-1.4656140000000002,-0.311958,9.52551,1.8,-1.0,3.2,0.0
22.7,22.691,2026-05-21 16:59:40.159,-1.243908,-0.311958,9.753102000000002,0.7,-2.6,2.5,0.0
22.72,22.692,2026-05-21 16:59:40.160,-0.8721090000000001,-0.266832,9.984618000000001,-0.3,-4.5,-4.0,0.001
22.740000000000002,22.692,2026-05-21 16:59:40.160,-0.9427409999999999,-0.12753,10.007181000000001,-1.6,-3.3,-0.6,0.0
22.76,22.692,2026-05-21 16:59:40.160,-1.1134350000000002,-0.16284600000000002,9.819809999999999,-3.0,-1.9,-2.0,0.0
22.78,22.692,2026-05-21 16:59:40.160,-1.125207,-0.302148,9.629496000000001,-3.4,-2.8,-3.5,0.0
22.8,22.692,2026-05-21 16:59:40.160,-1.0339740000000002,-0.436545,9.551997,-4.2,-4.7,-2.6,0.0
22.82,22.692,2026-05-21 16:59:40.160,-0.9525509999999999,-0.567018,9.552978000000001,-2.3,-3.9,-1.6,0.0
22.84,22.692,2026-05-21 16:59:40.160,-1.038879,-0.551322,9.669717,-0.3,-1.1,0.2,0.0
22.86,22.692,2026-05-21 16:59:40.160,-1.2998250000000002,-0.523854,9.604971,0.1,0.1,1.3,0.0
22.88,22.693,2026-05-21 16:59:40.161,-1.424412,-0.45322200000000007,9.683451,1.0,-3.5,-1.5,0.001
22.900000000000002,22.693,2026-05-21 16:59:40.161,-1.505835,-0.537588,9.500985,-0.2,-1.8,-0.6,0.0
22.92,22.694,2026-05-21 16:59:40.162,-1.3243500000000001,-0.3747420000000001,9.817848,0.8,-3.6,-1.1,0.001
22.94,22.694,2026-05-21 16:59:40.162,-1.125207,-0.332559,10.045440000000001,0.1,-2.7,-2.9,0.0
22.96,22.714,2026-05-21 16:59:40.182,-1.114416,-0.33844500000000005,9.903195000000002,-0.4,0.8,-0.7,0.02
22.98,22.734,2026-05-21 16:59:40.202,-1.29492,-0.35512200000000005,9.742311,0.3,1.5,0.5,0.02
23.0,22.754,2026-05-21 16:59:40.222,-1.3223880000000001,-0.29724300000000003,9.696204,1.1,-1.8,-2.9,0.02
23.02,22.774,2026-05-21 16:59:40.242,-1.1075490000000001,-0.356103,9.802152000000001,0.3,-3.1,-3.4,0.02
23.04,22.793,2026-05-21 16:59:40.261,-0.8819190000000001,-0.483633,9.84924,-0.3,-2.7,-3.0,0.019
23.06,22.814,2026-05-21 16:59:40.282,-0.821097,-0.5827140000000001,9.727596,-0.3,-2.5,-1.1,0.021
23.080000000000002,22.832,2026-05-21 16:59:40.300,-1.002582,-0.502272,9.785475000000002,0.9,0.1,2.7,0.018
23.1,22.852,2026-05-21 16:59:40.320,-1.2703950000000002,-0.310977,9.792342000000001,2.3,1.8,2.3,0.02
23.12,22.872,2026-05-21 16:59:40.340,-1.478367,-0.165789,9.784494,0.6,1.0,1.2,0.02
23.14,22.892,2026-05-21 16:59:40.360,-1.5637140000000003,-0.17167500000000002,9.817848,-0.2,-0.6,-0.8,0.02
23.16,22.912,2026-05-21 16:59:40.380,-1.4018490000000001,-0.205029,9.774684,-0.6,-0.1,-3.0,0.02
23.18,22.931,2026-05-21 16:59:40.399,-1.380267,-0.223668,9.752121,-1.4,1.2,-3.4,0.019
23.2,22.951,2026-05-21 16:59:40.419,-1.297863,-0.289395,9.681489000000001,-1.4,1.0,-4.1,0.02
23.22,22.972,2026-05-21 16:59:40.440,-1.15758,-0.36198899999999995,9.567693,-0.8,0.6,-3.7,0.021
23.240000000000002,22.991,2026-05-21 16:59:40.459,-1.024164,-0.41103900000000004,9.676584,-0.2,0.4,-3.6,0.019
23.26,23.011,2026-05-21 16:59:40.479,-0.9368550000000001,-0.474804,9.70209,-1.2,-0.6,-2.5,0.02
23.28,23.03,2026-05-21 16:59:40.498,-0.9388170000000001,-0.483633,9.651078,0.3,-0.6,-0.8,0.019
23.3,23.05,2026-05-21 16:59:40.518,-1.142865,-0.347274,9.746235,1.6,-1.0,-0.3,0.02
23.32,23.07,2026-05-21 16:59:40.538,-1.256661,-0.328635,9.951264,-0.1,-2.9,-2.1,0.02
23.34,23.09,2026-05-21 16:59:40.558,-1.050651,-0.35512200000000005,9.895347000000003,-1.2,-4.8,-5.0,0.02
23.36,23.109,2026-05-21 16:59:40.577,-1.011411,-0.377685,9.862974000000001,-1.3,-1.5,-0.2,0.019
23.38,23.129,2026-05-21 16:59:40.597,-1.13796,-0.40417200000000003,9.767817,-1.6,0.8,-0.7,0.02
23.400000000000002,23.15,2026-05-21 16:59:40.618,-1.1850479999999999,-0.538569,9.563769,-1.6,-0.6,-3.2,0.021
23.42,23.17,2026-05-21 16:59:40.638,-1.2184020000000002,-0.571923,9.518642999999999,-0.8,0.0,-0.3,0.02
23.44,23.189,2026-05-21 16:59:40.657,-1.45188,-0.40417200000000003,9.646173,1.2,1.5,2.3,0.019
23.46,23.208,2026-05-21 16:59:40.676,-1.6627950000000002,-0.30509100000000006,9.713862,0.9,1.5,-0.6,0.019
23.48,23.229,2026-05-21 16:59:40.697,-1.570581,-0.24525000000000002,9.897309,-0.9,0.0,-3.8,0.021
23.5,23.248,2026-05-21 16:59:40.716,-1.445013,-0.23544,9.887499,-0.2,0.9,-2.7,0.019
23.52,23.268,2026-05-21 16:59:40.736,-1.531341,-0.198162,9.797247,-1.1,2.7,-1.6,0.02
23.54,23.288,2026-05-21 16:59:40.756,-1.445013,-0.328635,9.718767000000001,-1.6,1.6,-5.9,0.02
23.56,23.308,2026-05-21 16:59:40.776,-1.234098,-0.46008899999999997,9.599085,-0.3,0.9,-6.8,0.02
23.580000000000002,23.327,2026-05-21 16:59:40.795,-1.2360600000000002,-0.277623,9.767817,-0.4,2.6,-1.5,0.019
23.6,23.352,2026-05-21 16:59:40.820,-1.291977,-0.24034500000000003,9.786456000000001,-0.6,2.7,-1.7,0.025
23.62,23.367,2026-05-21 16:59:40.835,-1.2998250000000002,-0.24230700000000002,9.772722000000002,-2.1,0.9,-4.9,0.015
23.64,23.387,2026-05-21 16:59:40.855,-1.056537,-0.3747420000000001,9.774684,-3.1,-1.7,-5.9,0.02
23.66,23.406,2026-05-21 16:59:40.874,-0.9584370000000001,-0.41888700000000006,9.729557999999999,-3.1,-1.5,-3.0,0.019
23.68,23.426,2026-05-21 16:59:40.894,-0.9182159999999999,-0.42379200000000006,9.742311,-2.0,-0.8,-2.8,0.02
23.7,23.446,2026-05-21 16:59:40.914,-1.009449,-0.48069000000000006,9.70209,-0.3,-0.9,-0.2,0.02
23.72,23.466,2026-05-21 16:59:40.934,-1.2213450000000001,-0.5032530000000001,9.694242000000001,-0.4,-2.1,0.0,0.02
23.740000000000002,23.485,2026-05-21 16:59:40.953,-1.357704,-0.551322,9.599085,0.8,-2.8,-1.4,0.019
23.76,23.505,2026-05-21 16:59:40.973,-1.330236,-0.544455,9.767817,0.5,-4.0,-2.2,0.02
23.78,23.525,2026-05-21 16:59:40.993,-1.124226,-0.45714600000000005,10.017972000000002,0.3,-2.4,-1.0,0.02
23.8,23.545,2026-05-21 16:59:41.013,-1.2821669999999998,-0.299205,10.036611000000002,-1.4,-1.3,-0.1,0.02
23.82,23.567,2026-05-21 16:59:41.035,-1.2448890000000001,-0.223668,10.038573,-3.2,-5.1,-4.7,0.022
23.84,23.585,2026-05-21 16:59:41.053,-0.9937530000000001,-0.33746400000000004,9.87867,-4.0,-4.9,-7.1,0.018
23.86,23.605,2026-05-21 16:59:41.073,-0.810306,-0.40711500000000006,9.745254,-4.3,-1.5,-4.2,0.02
23.88,23.625,2026-05-21 16:59:41.093,-0.8995770000000001,-0.478728,9.539244,-2.3,-1.0,-0.7,0.02
23.900000000000002,23.644,2026-05-21 16:59:41.112,-0.983943,-0.496386,9.455859,-0.9,-1.0,-0.9,0.019
23.92,23.664,2026-05-21 16:59:41.132,-1.061442,-0.50031,9.519624,0.4,-1.9,-2.6,0.02
23.94,23.684,2026-05-21 16:59:41.152,-0.973152,-0.43262100000000003,9.714843,1.2,-2.4,-1.0,0.02
23.96,23.703,2026-05-21 16:59:41.171,-1.0781190000000003,-0.38259000000000004,9.832563,0.7,-1.3,0.7,0.019
23.98,23.723,2026-05-21 16:59:41.191,-1.232136,-0.408096,9.801171,0.3,-0.1,-0.5,0.02
24.0,23.743,2026-05-21 16:59:41.211,-1.2703950000000002,-0.48069000000000006,9.696204,0.0,0.0,-1.7,0.02
24.02,23.763,2026-05-21 16:59:41.231,-1.2546990000000002,-0.511101,9.687375000000001,0.5,-0.2,-0.3,0.02
24.04,23.786,2026-05-21 16:59:41.254,-1.278243,-0.478728,9.727596,1.0,-0.3,0.4,0.023
24.060000000000002,23.803,2026-05-21 16:59:41.271,-1.3675140000000001,-0.410058,9.757026000000002,0.4,1.2,1.2,0.017
24.080000000000002,23.822,2026-05-21 16:59:41.290,-1.51074,-0.36002700000000004,9.674622000000001,0.6,3.4,1.1,0.019
24.1,23.842,2026-05-21 16:59:41.310,-1.5990300000000002,-0.33746400000000004,9.552978000000001,0.5,1.9,-1.5,0.02
24.12,23.862,2026-05-21 16:59:41.330,-1.5421319999999998,-0.27369899999999997,9.665793,1.1,0.2,-1.6,0.02
24.14,23.881,2026-05-21 16:59:41.349,-1.3371030000000002,-0.24034500000000003,9.837468,0.6,-0.6,-4.4,0.019
24.16,23.901,2026-05-21 16:59:41.369,-1.204668,-0.244269,9.813924,0.7,0.5,-5.4,0.02
24.18,23.921,2026-05-21 16:59:41.389,-1.109511,-0.327654,9.723672,0.1,0.9,-4.3,0.02
24.2,23.941,2026-05-21 16:59:41.409,-1.06929,-0.44929800000000003,9.583389,-0.1,0.3,-4.6,0.02
24.22,23.961,2026-05-21 16:59:41.429,-1.028088,-0.5405310000000001,9.504909,1.5,0.6,-2.9,0.02
24.240000000000002,23.981,2026-05-21 16:59:41.449,-0.998658,-0.45812700000000006,9.724653,2.1,-0.5,-2.1,0.02
24.26,24.001,2026-05-21 16:59:41.469,-1.062423,-0.348255,9.774684,1.9,-1.6,-2.0,0.02
24.28,24.02,2026-05-21 16:59:41.488,-1.142865,-0.339426,9.869841000000001,0.8,-2.8,-2.1,0.019
24.3,24.039,2026-05-21 16:59:41.507,-1.075176,-0.27958500000000003,9.910062,-1.4,-3.9,-4.4,0.019
24.32,24.06,2026-05-21 16:59:41.528,-0.8770140000000001,-0.39338100000000004,9.886518,-0.8,-4.7,-4.9,0.021
24.34,24.079,2026-05-21 16:59:41.547,-0.751446,-0.50031,9.873765,-1.1,-2.2,-0.4,0.019
24.36,24.1,2026-05-21 16:59:41.568,-0.9260640000000001,-0.371799,9.816867000000002,1.2,-0.1,1.2,0.021
24.38,24.119,2026-05-21 16:59:41.587,-1.011411,-0.361008,9.772722000000002,0.9,1.7,2.4,0.019
24.400000000000002,24.139,2026-05-21 16:59:41.607,-1.158561,-0.391419,9.654021,-0.8,0.3,2.0,0.02
24.42,24.159,2026-05-21 16:59:41.627,-1.260585,-0.48069000000000006,9.612819,-1.0,-2.6,1.2,0.02
24.44,24.178,2026-05-21 16:59:41.646,-1.150713,-0.426735,9.792342000000001,-0.6,-2.3,1.7,0.019
24.46,24.198,2026-05-21 16:59:41.666,-1.3351410000000001,-0.28645200000000004,9.770760000000001,-1.0,0.0,2.0,0.02
24.48,24.218,2026-05-21 16:59:41.686,-1.375362,-0.27958500000000003,9.710919,-0.6,-1.2,0.1,0.02
24.5,24.237,2026-05-21 16:59:41.705,-1.4999490000000002,-0.234459,9.718767000000001,0.2,-2.2,0.0,0.019
24.52,24.257,2026-05-21 16:59:41.725,-1.490139,-0.234459,9.810981,0.1,-1.2,-1.0,0.02
24.54,24.277,2026-05-21 16:59:41.745,-1.379286,-0.24230700000000002,9.795285000000002,-1.1,-0.9,-4.3,0.02
24.560000000000002,24.297,2026-05-21 16:59:41.765,-1.26549,-0.32569200000000004,9.801171,-1.1,-0.9,-4.2,0.02
24.580000000000002,24.317,2026-05-21 16:59:41.785,-1.224288,-0.363951,9.743292000000002,-0.6,-2.4,-6.2,0.02
24.6,24.337,2026-05-21 16:59:41.805,-1.0535940000000001,-0.38749500000000003,9.963036,0.0,-0.6,-5.0,0.02
24.62,24.356,2026-05-21 16:59:41.824,-1.114416,-0.278604,9.985599,-1.2,3.2,-2.7,0.019
24.64,24.376,2026-05-21 16:59:41.844,-1.161504,-0.30411,9.869841000000001,-3.7,0.2,-4.7,0.02
24.66,24.396,2026-05-21 16:59:41.864,-0.9888480000000001,-0.38847600000000004,9.837468,-3.8,-2.6,-6.0,0.02
