UTC_Time,Vin,TC1,TC2,Rh1,Vh1,Ah1,Acp1,Dty1,Err1,Rh2,Vh2,Ah2,Acp2,Dty2,Err2,Accel_x,Accel_y,Accel_z,gyro_x,gyro_y,gyro_z,Temp_c,Accel_x_h,Accel_y_h,Accel_z_h,gyro_x_h,gyro_y_h,gyro_z_h,
2026_04_21_14_16_45.126,0,27,0,1.179,0,0,0,0, ,0,0,0,0,0, ,966.6,172.1,-209.2,-1.8,-0.9,0.8,25,-3.50075,-0.623297,0.757662,0.00651908,0.00325954,-0.00289737,
2026_04_21_14_16_45.145,0,27,0,1.179,0,0,0,0, ,0,0,0,0,0, ,963.3,172.4,-216.1,2.8,0,0.8,25,-3.53018,-0.628538,0.764033,0.00657397,0.00328696,-0.00292173,
2026_04_21_14_16_45.165,0,26.9,0,1.181,0,0,0,0, ,0,0,0,0,0, ,961.4,163,-207,-4,-2.9,0.3,25,-3.55955,-0.633767,0.770388,0.00662913,0.00331438,-0.00294605,
2026_04_21_14_16_45.185,0,27,0,1.179,0,0,0,0, ,0,0,0,0,0, ,967.5,175.1,-216,-1,0.6,-0.2,25,-3.58885,-0.638984,0.776726,0.00668518,0.00334179,-0.00297036,
2026_04_21_14_16_45.205,0,27,0,1.181,0,0,0,0, ,0,0,0,0,0, ,959.3,165.7,-201.7,-1.3,0,0.5,25,-3.61808,-0.64419,0.783046,0.00674283,0.00336921,-0.00299485,
2026_04_21_14_16_45.225,0,27,0,1.182,0,0,0,0, ,0,0,0,0,0, ,950.9,162.2,-206.9,-0.6,0.3,0.6,25,-3.64724,-0.649387,0.789344,0.00680282,0.00339673,-0.00301982,
2026_04_21_14_16_45.247,0,27,0,1.18,0,0,0,0, ,0,0,0,0,0, ,952.1,160.2,-210.2,0.8,-2.2,1.6,25,-3.67634,-0.65458,0.795622,0.00686603,0.00342464,-0.00304566,
2026_04_21_14_16_45.264,0,27,0,1.181,0,0,0,0, ,0,0,0,0,0, ,973.2,169.3,-216.7,-1.8,-0.5,1.4,25,-3.70539,-0.659772,0.801877,0.00693359,0.00345336,-0.00307272,
2026_04_21_14_16_45.284,0,27,0,1.181,0,0,0,0, ,0,0,0,0,0, ,970.2,166,-208.7,-2.4,0.8,0.3,25,-3.73439,-0.664972,0.80811,0.00700689,0.00348327,-0.00310125,
2026_04_21_14_16_45.304,0,27,0,1.179,0,0,0,0, ,0,0,0,0,0, ,957.1,159.4,-200,0.6,-1.4,0.7,25,-3.76335,-0.670187,0.814318,0.0070874,0.00351482,-0.00313141,
2026_04_21_14_16_45.324,0,27,0,1.183,0,0,0,0, ,0,0,0,0,0, ,953,156.9,-210,-0.3,-0.2,0.3,25,-3.79228,-0.675427,0.820501,0.00717668,0.00354857,-0.00316335,
2026_04_21_14_16_45.344,0,27,0,1.181,0,0,0,0, ,0,0,0,0,0, ,971,166.6,-196.7,-3.8,-0.7,0,25,-3.82119,-0.680705,0.826659,0.00727639,0.00358516,-0.00319729,
2026_04_21_14_16_45.364,0,27,0,1.18,0,0,0,0, ,0,0,0,0,0, ,967.2,166.5,-196.7,-0.6,-2.2,0,25,-3.85009,-0.686033,0.832793,0.0073883,0.00362524,-0.00323357,
2026_04_21_14_16_45.384,0,27,0,1.18,0,0,0,0, ,0,0,0,0,0, ,955.5,167.7,-213.3,-1.2,-0.4,-0.4,25,-3.87899,-0.691428,0.838907,0.00751404,0.0036694,-0.00327266,
2026_04_21_14_16_45.403,0,27,0,1.18,0,0,0,0, ,0,0,0,0,0, ,947.2,163.6,-205.9,-5.3,0,0,25,-3.90789,-0.696905,0.845004,0.00765514,0.00371812,-0.00331523,
2026_04_21_14_16_45.423,0,27,0,1.18,0,0,0,0, ,0,0,0,0,0, ,963.9,168.4,-205.6,-0.2,0,0.1,25,-3.93682,-0.702479,0.851092,0.0078129,0.0037719,-0.00336217,
2026_04_21_14_16_45.443,0,26.9,0,1.183,0,0,0,0, ,0,0,0,0,0, ,961.4,168.9,-216.3,-0.2,-1.5,0.3,25,-3.96577,-0.708167,0.857176,0.00798834,0.00383134,-0.00341447,
2026_04_21_14_16_45.468,0,27,0,1.181,0,0,0,0, ,0,0,0,0,0, ,955.4,165.1,-213,-3,-1.2,0.1,25,-3.99478,-0.713986,0.86326,0.00818245,0.00389709,-0.0034733,
2026_04_21_14_16_45.483,0,26.9,0,1.181,0,0,0,0, ,0,0,0,0,0, ,965.2,165,-207.7,0,-1.4,0.4,25,-4.02385,-0.719951,0.86935,0.00839623,0.00396975,-0.00353985,
2026_04_21_14_16_45.503,0,27,0,1.181,0,0,0,0, ,0,0,0,0,0, ,957.8,168.4,-213.5,0,-1.2,0,25,-4.053,-0.72608,0.875448,0.00863076,0.00404977,-0.00361539,
2026_04_21_14_16_45.522,0,27,0,1.18,0,0,0,0, ,0,0,0,0,0, ,958.9,170.6,-208.1,-1.6,-1,0,25,-4.08224,-0.732388,0.881557,0.00888723,0.00413748,-0.00370127,
2026_04_21_14_16_45.542,0,27,0,1.181,0,0,0,0, ,0,0,0,0,0, ,953.3,168.3,-201.4,-1.6,0,0,25,-4.11159,-0.738892,0.887679,0.00916701,0.00423309,-0.00379889,
2026_04_21_14_16_45.561,0,27,0,1.18,0,0,0,0, ,0,0,0,0,0, ,955.4,160.4,-203.3,-1.9,-0.8,0.9,25,-4.14107,-0.745608,0.893817,0.00947149,0.00433681,-0.00390973,
2026_04_21_14_16_45.581,0,27.1,0,1.178,0,0,0,0, ,0,0,0,0,0, ,960.9,167.9,-208.6,1.5,-1.1,1.1,25,-4.1707,-0.752552,0.899974,0.00980205,0.00444892,-0.00403531,
2026_04_21_14_16_45.601,0,27,0,1.181,0,0,0,0, ,0,0,0,0,0, ,964.2,168.4,-208.2,-1.4,0.8,0.7,25,-4.2005,-0.759739,0.906154,0.0101601,0.00456971,-0.00417703,
2026_04_21_14_16_45.621,0,27,0,1.18,0,0,0,0, ,0,0,0,0,0, ,963.9,160,-197.7,-5.3,-0.7,0,25,-4.23048,-0.767186,0.912362,0.0105473,0.00469956,-0.0043362,
2026_04_21_14_16_45.641,0,26.9,0,1.181,0,0,0,0, ,0,0,0,0,0, ,959.9,158.9,-203.6,-1,-1.1,-0.1,25,-4.26067,-0.774909,0.918604,0.0109651,0.00483897,-0.00451406,
2026_04_21_14_16_45.661,0,26.9,0,1.18,0,0,0,0, ,0,0,0,0,0, ,956.5,164.9,-211.3,0.5,-0.1,-0.1,25,-4.29109,-0.782925,0.924885,0.0114145,0.00498852,-0.00471187,
2026_04_21_14_16_45.681,0,27,0,1.18,0,0,0,0, ,0,0,0,0,0, ,956.2,158.2,-209.3,-3.6,-0.8,-0.2,25,-4.32174,-0.791252,0.931214,0.0118966,0.00514877,-0.00493101,
2026_04_21_14_16_45.701,0,27,0,1.18,0,0,0,0, ,0,0,0,0,0, ,952.2,160.5,-206.1,-1.8,-2.9,0.1,25,-4.35266,-0.799909,0.937597,0.0124123,0.0053203,-0.00517293,
2026_04_21_14_16_45.732,0,27,0,1.18,0,0,0,0, ,0,0,0,0,0, ,954.7,161.4,-213.5,0.8,0.5,0.2,25,-4.38386,-0.808917,0.94404,0.0129624,0.00550357,-0.0054392,
2026_04_21_14_16_45.741,0,27,0,1.18,0,0,0,0, ,0,0,0,0,0, ,972.5,164.9,-197.6,-3.5,-1,-0.9,25,-4.41536,-0.818296,0.950549,0.0135476,0.00569888,-0.00573142,
2026_04_21_14_16_45.760,0,27,0,1.18,0,0,0,0, ,0,0,0,0,0, ,966.1,172.4,-203.4,-3.7,-3.1,-1.1,25,-4.44718,-0.828068,0.957132,0.0141687,0.00590649,-0.00605131,
2026_04_21_14_16_45.780,0,27,0,1.18,0,0,0,0, ,0,0,0,0,0, ,956.2,174.3,-217.6,-0.3,-0.3,-0.7,25,-4.47934,-0.838253,0.963793,0.014826,0.00612648,-0.00640079,
2026_04_21_14_16_45.800,0,27,0,1.18,0,0,0,0, ,0,0,0,0,0, ,946.7,164.5,-205.6,-2.6,-1.5,-0.1,25,-4.51186,-0.848871,0.970542,0.0155198,0.00635876,-0.00678197,
2026_04_21_14_16_45.820,0,27,0,1.18,0,0,0,0, ,0,0,0,0,0, ,952.6,166.6,-213.9,-0.6,-2.6,0.2,25,-4.54476,-0.859938,0.977383,0.0162501,0.00660306,-0.00719717,
2026_04_21_14_16_45.840,0,27.1,0,1.181,0,0,0,0, ,0,0,0,0,0, ,959.3,171.5,-226.6,1.2,-1.1,0.5,25,-4.57805,-0.87147,0.984321,0.0170169,0.00685892,-0.00764869,
2026_04_21_14_16_45.860,0,27,0,1.18,0,0,0,0, ,0,0,0,0,0, ,962.5,171.9,-214.7,-1.8,-0.2,0.4,25,-4.61176,-0.883482,0.99136,0.0178204,0.00712569,-0.00813883,
2026_04_21_14_16_45.880,0,27,0,1.18,0,0,0,0, ,0,0,0,0,0, ,957.2,166.9,-198.4,-2.5,-1.6,0.7,25,-4.6459,-0.895987,0.998499,0.0186611,0.00740261,-0.00866974,
2026_04_21_14_16_45.898,0,27,0,1.181,0,0,0,0, ,0,0,0,0,0, ,964.8,172.8,-200.1,-0.9,0.3,0.3,25,-4.6805,-0.908998,1.00574,0.0195394,0.00768893,-0.00924342,
2026_04_21_14_16_45.918,0,27,0,1.181,0,0,0,0, ,0,0,0,0,0, ,962.2,170.7,-201.7,-1.1,0,0.7,25,-4.71557,-0.922523,1.01308,0.0204557,0.007984,-0.00986174,
2026_04_21_14_16_45.939,0,27,0,1.181,0,0,0,0, ,0,0,0,0,0, ,960.3,167.7,-192.3,-2.2,-1.7,1,25,-4.75114,-0.936573,1.02052,0.0214103,0.00828729,-0.0105264,
2026_04_21_14_16_45.959,0,27,0,1.181,0,0,0,0, ,0,0,0,0,0, ,971.9,160.5,-196.2,-1.1,-0.7,0,25,-4.7872,-0.951153,1.02806,0.0224036,0.00859838,-0.0112389,
2026_04_21_14_16_45.983,0,27.1,0,1.178,0,0,0,0, ,0,0,0,0,0, ,964.8,173.2,-211.3,-0.7,-2.6,-0.2,25,-4.82379,-0.966271,1.03572,0.0234358,0.00891681,-0.0120008,
2026_04_21_14_16_45.999,0,27.1,0,1.18,0,0,0,0, ,0,0,0,0,0, ,941.8,162.8,-210.9,-0.6,-0.4,0,25,-4.86091,-0.981933,1.0435,0.0245071,0.00924203,-0.0128131,
2026_04_21_14_16_46.018,0,27.1,0,1.181,0,0,0,0, ,0,0,0,0,0, ,951,166.6,-212.1,-2.7,-0.1,-0.1,25,-4.89858,-0.998143,1.05141,0.0256178,0.00957336,-0.0136774,
2026_04_21_14_16_46.038,0,27,0,1.18,0,0,0,0, ,0,0,0,0,0, ,959.7,169.3,-203.6,-4.6,-4,0.3,25,-4.9368,-1.01491,1.05945,0.0267682,0.00991008,-0.0145949,
2026_04_21_14_16_46.058,0,26.9,0,1.178,0,0,0,0, ,0,0,0,0,0, ,961,171.5,-203.4,-1.1,-1.6,0.2,25,-4.97559,-1.03223,1.06764,0.0279582,0.0102514,-0.0155669,
2026_04_21_14_16_46.078,0,27.1,0,1.184,0,0,0,0, ,0,0,0,0,0, ,957.7,175.7,-212.6,3.4,-1,0.6,25,-5.01496,-1.05012,1.07597,0.0291876,0.0105961,-0.0165947,
2026_04_21_14_16_46.097,0,27,0,1.18,0,0,0,0, ,0,0,0,0,0, ,948.3,164.9,-212,1.3,-2.1,1.7,25,-5.05493,-1.06857,1.08446,0.030456,0.010943,-0.0176793,
2026_04_21_14_16_46.117,0,27.1,0,1.181,0,0,0,0, ,0,0,0,0,0, ,956.4,163,-218.6,1.2,-0.5,1.2,25,-5.0955,-1.08758,1.09311,0.031764,0.0112906,-0.0188216,
2026_04_21_14_16_46.137,0,27,0,1.184,0,0,0,0, ,0,0,0,0,0, ,963.6,166,-208.3,-0.6,0,0.9,25,-5.1367,-1.10715,1.10192,0.0331125,0.0116374,-0.0200223,
2026_04_21_14_16_46.157,0,27.1,0,1.182,0,0,0,0, ,0,0,0,0,0, ,966.7,164.6,-206.9,-2.2,0.6,0.1,25,-5.17853,-1.12729,1.1109,0.0345032,0.011982,-0.0212816,
2026_04_21_14_16_46.177,0,27,0,1.18,0,0,0,0, ,0,0,0,0,0, ,957.1,165,-207.8,-1.2,-2.2,0.8,25,-5.22101,-1.14799,1.12004,0.0359376,0.0123234,-0.0225995,
2026_04_21_14_16_46.197,0,27,0,1.18,0,0,0,0, ,0,0,0,0,0, ,950.5,163.8,-207.5,0,-0.5,0.5,25,-5.26414,-1.16925,1.12935,0.0374172,0.0126606,-0.0239762,
2026_04_21_14_16_46.216,0,27,0,1.181,0,0,0,0, ,0,0,0,0,0, ,961,169.9,-210.6,0.3,0.6,0.7,25,-5.30794,-1.19107,1.13882,0.0389437,0.0129927,-0.0254115,
2026_04_21_14_16_46.240,0,27,0,1.181,0,0,0,0, ,0,0,0,0,0, ,954.8,162.4,-205.2,-4.4,0.6,0.6,25,-5.3524,-1.21344,1.14845,0.0405184,0.013319,-0.0269051,
2026_04_21_14_16_46.256,0,27,0,1.181,0,0,0,0, ,0,0,0,0,0, ,957.7,165.8,-208.4,1.3,0.3,0.8,25,-5.39756,-1.23638,1.15826,0.0421429,0.0136391,-0.0284566,
2026_04_21_14_16_46.276,0,27,0,1.18,0,0,0,0, ,0,0,0,0,0, ,958,165.7,-216.6,1.4,-0.7,1.4,25,-5.4434,-1.25987,1.16822,0.0438185,0.0139529,-0.0300655,
2026_04_21_14_16_46.295,0,26.9,0,1.18,0,0,0,0, ,0,0,0,0,0, ,953.3,162.7,-210.4,-2.1,0.7,0.7,25,-5.48993,-1.28391,1.17835,0.0455468,0.0142606,-0.0317311,
2026_04_21_14_16_46.316,0,27,0,1.181,0,0,0,0, ,0,0,0,0,0, ,968.5,168,-194.8,-0.5,-0.3,0.9,25,-5.53718,-1.30851,1.18864,0.0473294,0.0145625,-0.0334525,
2026_04_21_14_16_46.335,0,27,0,1.18,0,0,0,0, ,0,0,0,0,0, ,963.6,169.3,-205.4,-0.9,0.3,0.5,25,-5.58513,-1.33366,1.19909,0.049168,0.0148594,-0.0352286,
2026_04_21_14_16_46.355,0,26.9,0,1.18,0,0,0,0, ,0,0,0,0,0, ,962.7,166.8,-202.2,-0.8,-1.8,0.3,25,-5.63379,-1.35935,1.20969,0.0510643,0.015152,-0.0370583,
2026_04_21_14_16_46.379,0,26.9,0,1.181,0,0,0,0, ,0,0,0,0,0, ,958.4,170.6,-210.3,0,0,0.3,25,-5.68317,-1.38559,1.22045,0.0530198,0.0154411,-0.0389404,
2026_04_21_14_16_46.395,0,27,0,1.181,0,0,0,0, ,0,0,0,0,0, ,954.1,164.5,-213.3,-2.7,0.7,0.5,25,-5.73327,-1.41237,1.23136,0.0550361,0.0157278,-0.0408734,
2026_04_21_14_16_46.415,0,27,0,1.18,0,0,0,0, ,0,0,0,0,0, ,952.5,159.1,-212.7,0.1,2,0.9,25,-5.78409,-1.43968,1.24244,0.0571146,0.016013,-0.0428562,
2026_04_21_14_16_46.434,0,27,0,1.18,0,0,0,0, ,0,0,0,0,0, ,954.2,158.3,-209.5,-2.2,0.1,1.3,25,-5.83561,-1.46752,1.25367,0.0592568,0.016298,-0.0448874,
2026_04_21_14_16_46.454,0,27,0,1.18,0,0,0,0, ,0,0,0,0,0, ,972.7,160.4,-189.4,1,-2.9,1.2,25,-5.88786,-1.49589,1.26505,0.0614637,0.0165847,-0.0469656,
2026_04_21_14_16_46.474,0,27.1,0,1.181,0,0,0,0, ,0,0,0,0,0, ,970.5,167.4,-215.5,1.6,-0.6,0.1,25,-5.94081,-1.52477,1.27658,0.0637366,0.0168747,-0.049089,
2026_04_21_14_16_46.493,0,27,0,1.18,0,0,0,0, ,0,0,0,0,0, ,955.8,153.1,-197.3,-4.5,-0.9,-0.4,25,-5.99448,-1.55418,1.28826,0.0660767,0.0171695,-0.0512559,
2026_04_21_14_16_46.514,0,27,0,1.181,0,0,0,0, ,0,0,0,0,0, ,950.3,150.8,-207,-3.5,-2.4,-0.5,25,-6.04885,-1.58409,1.30009,0.0684854,0.0174706,-0.0534645,
2026_04_21_14_16_46.534,0,27,0,1.181,0,0,0,0, ,0,0,0,0,0, ,958.9,171.5,-216.1,3.5,-1.4,0.1,25,-6.10391,-1.61453,1.31208,0.0709636,0.0177791,-0.0557133,
2026_04_21_14_16_46.554,0,27,0,1.181,0,0,0,0, ,0,0,0,0,0, ,962.6,169.3,-215.5,-5.7,-2.1,0,25,-6.15967,-1.64547,1.32421,0.0735119,0.0180957,-0.058001,
2026_04_21_14_16_46.573,0,27,0,1.18,0,0,0,0, ,0,0,0,0,0, ,966.9,175.5,-204.1,-2.8,-1.2,-0.5,25,-6.2161,-1.67694,1.33649,0.0761306,0.0184211,-0.0603261,
2026_04_21_14_16_46.592,0,27,0,1.18,0,0,0,0, ,0,0,0,0,0, ,949.2,172.8,-216.1,5,1.6,0.3,25,-6.27321,-1.70891,1.34893,0.0788199,0.0187555,-0.0626875,
2026_04_21_14_16_46.613,0,27,0,1.18,0,0,0,0, ,0,0,0,0,0, ,954.9,168.3,-216.7,-5.6,0.6,0.8,25,-6.33098,-1.7414,1.3615,0.0815797,0.0190993,-0.0650841,
2026_04_21_14_16_46.632,0,27,0,1.181,0,0,0,0, ,0,0,0,0,0, ,955,156.6,-199.9,-0.9,-0.5,0.8,25,-6.3894,-1.77438,1.37421,0.08441,0.0194529,-0.067515,
2026_04_21_14_16_46.652,0,27,0,1.18,0,0,0,0, ,0,0,0,0,0, ,958.6,156.6,-222.9,1.5,-0.2,0.4,25,-6.44847,-1.80786,1.38705,0.0873104,0.0198174,-0.0699788,
2026_04_21_14_16_46.672,0,27,0,1.179,0,0,0,0, ,0,0,0,0,0, ,964.2,159.4,-209.1,-3.4,0,0,25,-6.50817,-1.84183,1.40002,0.0902807,0.0201936,-0.0724745,
2026_04_21_14_16_46.692,0,27,0,1.181,0,0,0,0, ,0,0,0,0,0, ,955.5,158.6,-201.5,-0.2,-2.8,0,25,-6.56849,-1.87628,1.41311,0.0933206,0.0205825,-0.0750007,
2026_04_21_14_16_46.712,0,26.9,0,1.179,0,0,0,0, ,0,0,0,0,0, ,956.4,161.4,-214.4,-2.1,-1.4,-0.5,25,-6.62942,-1.9112,1.4263,0.0964295,0.0209851,-0.0775562,
2026_04_21_14_16_46.732,0,27,0,1.18,0,0,0,0, ,0,0,0,0,0, ,957.5,166.8,-214.4,1.7,-4,0.4,25,-6.69095,-1.9466,1.43959,0.0996069,0.021402,-0.08014,
2026_04_21_14_16_46.752,0,27,0,1.18,0,0,0,0, ,0,0,0,0,0, ,958.7,172.7,-232.4,1.7,0.7,0.6,25,-6.75307,-1.98247,1.45298,0.102852,0.0218333,-0.082751,
2026_04_21_14_16_46.775,0,26.9,0,1.18,0,0,0,0, ,0,0,0,0,0, ,965.8,168.4,-197.1,-5,-1.6,0.5,25,-6.81577,-2.01881,1.46644,0.106165,0.0222791,-0.0853881,
2026_04_21_14_16_46.791,0,27,0,1.18,0,0,0,0, ,0,0,0,0,0, ,952.6,171.1,-214.9,2.5,0.1,0.8,25,-6.87903,-2.05561,1.47997,0.109545,0.0227389,-0.0880504,
2026_04_21_14_16_46.810,0,26.9,0,1.181,0,0,0,0, ,0,0,0,0,0, ,962.8,164.4,-209.8,-2.3,1.1,0.7,25,-6.94283,-2.09286,1.49355,0.112992,0.0232126,-0.0907366,
2026_04_21_14_16_46.830,0,27,0,1.179,0,0,0,0, ,0,0,0,0,0, ,960.2,156.3,-194.2,-0.4,-0.7,0.3,25,-7.00717,-2.13055,1.50716,0.116506,0.0237002,-0.0934456,
2026_04_21_14_16_46.850,0,27,0,1.18,0,0,0,0, ,0,0,0,0,0, ,958,163.8,-208.1,-0.3,-1.8,0.4,25,-7.07202,-2.16867,1.5208,0.120086,0.0242018,-0.0961759,
2026_04_21_14_16_46.870,0,27.1,0,1.18,0,0,0,0, ,0,0,0,0,0, ,964.2,167.8,-204.4,0.4,-0.8,0,25,-7.13737,-2.20721,1.53446,0.123733,0.0247176,-0.0989262,
2026_04_21_14_16_46.890,0,27.1,0,1.179,0,0,0,0, ,0,0,0,0,0, ,964.1,167.4,-212.8,0.5,0.1,-0.1,25,-7.20321,-2.24617,1.54811,0.127445,0.0252476,-0.101695,
2026_04_21_14_16_46.910,0,27,0,1.18,0,0,0,0, ,0,0,0,0,0, ,945.9,162.4,-216,-2.8,-1.3,0,25,-7.2695,-2.28553,1.56176,0.131223,0.0257919,-0.104482,
2026_04_21_14_16_46.930,0,26.9,0,1.18,0,0,0,0, ,0,0,0,0,0, ,948.3,163.4,-216.1,1.2,0.5,0.7,25,-7.33624,-2.32528,1.5754,0.135067,0.0263506,-0.107284,
2026_04_21_14_16_46.949,0,26.9,0,1.179,0,0,0,0, ,0,0,0,0,0, ,959.3,161.2,-213.2,0.1,-0.2,1.2,25,-7.40339,-2.36541,1.589,0.138976,0.0269238,-0.110102,
2026_04_21_14_16_46.969,0,27,0,1.18,0,0,0,0, ,0,0,0,0,0, ,962.5,156.4,-209.5,-3.5,0.6,0.6,25,-7.47096,-2.40591,1.60257,0.14295,0.0275117,-0.112933,
2026_04_21_14_16_46.989,0,27,0,1.18,0,0,0,0, ,0,0,0,0,0, ,966.9,159.4,-201.7,0.1,-0.4,0,25,-7.53892,-2.44677,1.61608,0.14699,0.0281149,-0.115777,
2026_04_21_14_16_47.009,0,27,0,1.179,0,0,0,0, ,0,0,0,0,0, ,962.5,164.5,-208,0.8,-0.7,0,25,-7.60724,-2.48798,1.62953,0.151095,0.0287337,-0.118631,
2026_04_21_14_16_47.036,0,27,0,1.18,0,0,0,0, ,0,0,0,0,0, ,958.3,159.9,-204.7,-2.2,-1.1,-0.1,25,-7.67591,-2.52953,1.6429,0.155263,0.029369,-0.121495,
2026_04_21_14_16_47.049,0,27,0,1.18,0,0,0,0, ,0,0,0,0,0, ,950,163.3,-210.3,-2.4,0.3,-0.7,25,-7.74492,-2.57142,1.65619,0.159496,0.0300212,-0.124367,
2026_04_21_14_16_47.069,0,27,0,1.18,0,0,0,0, ,0,0,0,0,0, ,956.7,167.6,-207.3,-1.4,1.5,-0.8,25,-7.81423,-2.61362,1.66937,0.163792,0.0306911,-0.127246,
2026_04_21_14_16_47.089,0,27,0,1.18,0,0,0,0, ,0,0,0,0,0, ,956.7,167.8,-208.4,0.3,-3.4,0.8,25,-7.88382,-2.65615,1.68245,0.16815,0.0313794,-0.130131,
2026_04_21_14_16_47.109,0,27,0,1.181,0,0,0,0, ,0,0,0,0,0, ,950.4,166.9,-226.8,-0.2,0,0.6,25,-7.95367,-2.69897,1.69541,0.172569,0.0320868,-0.133021,
2026_04_21_14_16_47.128,0,26.9,0,1.181,0,0,0,0, ,0,0,0,0,0, ,963.2,164.6,-197.7,-2.5,-1,0.9,25,-8.02378,-2.74209,1.70825,0.177048,0.032814,-0.135916,
2026_04_21_14_16_47.147,0,26.9,0,1.18,0,0,0,0, ,0,0,0,0,0, ,966,167.9,-211.4,0.5,-2.1,1.2,25,-8.0941,-2.78549,1.72095,0.181585,0.0335614,-0.138814,
2026_04_21_14_16_47.167,0,27,0,1.18,0,0,0,0, ,0,0,0,0,0, ,956.2,162.5,-218.7,0.2,0.9,0.2,25,-8.16463,-2.82916,1.73351,0.18618,0.0343293,-0.141713,
2026_04_21_14_16_47.187,0,27,0,1.181,0,0,0,0, ,0,0,0,0,0, ,957.8,157.7,-196.8,-2.1,-2.3,0.5,25,-8.23534,-2.87309,1.74591,0.19083,0.035118,-0.144614,
2026_04_21_14_16_47.207,0,26.9,0,1.18,0,0,0,0, ,0,0,0,0,0, ,954.9,162.9,-214.8,0.3,-1.3,0.4,25,-8.30621,-2.91725,1.75814,0.195536,0.0359275,-0.147514,
2026_04_21_14_16_47.227,0,26.9,0,1.182,0,0,0,0, ,0,0,0,0,0, ,961.4,163.6,-210.4,-0.5,-0.3,0.3,25,-8.37721,-2.96164,1.7702,0.200294,0.0367577,-0.150413,
2026_04_21_14_16_47.247,0,27,0,1.181,0,0,0,0, ,0,0,0,0,0, ,958.6,161.9,-202.6,-2.7,-3.7,0.5,25,-8.44833,-3.00625,1.78207,0.205105,0.0376085,-0.153308,
2026_04_21_14_16_47.267,0,26.9,0,1.181,0,0,0,0, ,0,0,0,0,0, ,964.8,168.5,-218.6,0.8,1.2,0,25,-8.51954,-3.05106,1.79375,0.209966,0.0384793,-0.156199,
2026_04_21_14_16_47.286,0,27,0,1.181,0,0,0,0, ,0,0,0,0,0, ,957.8,162.9,-213.8,-2.7,0.3,0.1,25,-8.59082,-3.09605,1.80523,0.214877,0.0393696,-0.159084,
2026_04_21_14_16_47.307,0,26.9,0,1.18,0,0,0,0, ,0,0,0,0,0, ,954.8,159.6,-207.8,-3.8,0.4,0,25,-8.66215,-3.14122,1.8165,0.219835,0.0402787,-0.161961,
2026_04_21_14_16_47.327,0,26.9,0,1.18,0,0,0,0, ,0,0,0,0,0, ,958.1,163,-208.1,3.4,-0.6,0.6,25,-8.73349,-3.18655,1.82754,0.224837,0.0412065,-0.164831,
2026_04_21_14_16_47.347,0,27,0,1.18,0,0,0,0, ,0,0,0,0,0, ,958,160.6,-212.6,-1.2,-2.2,0.7,25,-8.80484,-3.23202,1.83835,0.229884,0.0421527,-0.16769,
2026_04_21_14_16_47.365,0,27,0,1.18,0,0,0,0, ,0,0,0,0,0, ,965.8,169.5,-207.5,-2.7,0,-0.1,25,-8.87615,-3.27763,1.84893,0.234971,0.0431172,-0.170539,
2026_04_21_14_16_47.385,0,27,0,1.179,0,0,0,0, ,0,0,0,0,0, ,962.2,167.4,-202,-2.5,-1.2,0.1,25,-8.94741,-3.32336,1.85926,0.240096,0.0440996,-0.173375,
2026_04_21_14_16_47.405,0,27,0,1.181,0,0,0,0, ,0,0,0,0,0, ,954.9,163.2,-211.4,0,1.4,0,25,-9.01859,-3.36919,1.86933,0.245259,0.0450997,-0.176199,
2026_04_21_14_16_47.435,0,27,0,1.18,0,0,0,0, ,0,0,0,0,0, ,954.4,156.3,-208.8,-2.6,-0.9,0,25,-9.08967,-3.41511,1.87914,0.250455,0.0461172,-0.179007,
2026_04_21_14_16_47.445,0,27,0,1.181,0,0,0,0, ,0,0,0,0,0, ,961.1,164.5,-210.9,-0.2,-1.7,0.2,25,-9.16061,-3.4611,1.88867,0.255682,0.0471519,-0.1818,
2026_04_21_14_16_47.465,0,26.9,0,1.18,0,0,0,0, ,0,0,0,0,0, ,978.6,173.8,-211.3,2,-3.7,0.8,25,-9.23141,-3.50716,1.89794,0.260938,0.0482037,-0.184577,
2026_04_21_14_16_47.484,0,27,0,1.18,0,0,0,0, ,0,0,0,0,0, ,956.6,161.8,-222.9,-2.5,0.3,-0.6,25,-9.30202,-3.55325,1.90692,0.266219,0.0492721,-0.187336,
2026_04_21_14_16_47.505,0,26.9,0,1.18,0,0,0,0, ,0,0,0,0,0, ,947.5,154.9,-205.6,-5.4,0.8,-0.8,25,-9.37242,-3.59937,1.91562,0.271523,0.0503562,-0.190077,
2026_04_21_14_16_47.524,0,26.9,0,1.18,0,0,0,0, ,0,0,0,0,0, ,945.9,159.5,-215.4,1.5,-2.1,0.9,25,-9.44259,-3.6455,1.92402,0.276846,0.0514554,-0.192798,
2026_04_21_14_16_47.544,0,26.9,0,1.183,0,0,0,0, ,0,0,0,0,0, ,965.4,168.5,-222.6,-0.5,1,1,25,-9.51249,-3.69163,1.93211,0.282186,0.0525689,-0.1955,
2026_04_21_14_16_47.573,0,26.9,0,1.181,0,0,0,0, ,0,0,0,0,0, ,970.2,163.5,-192.1,-6.1,-3.7,0.7,25,-9.5821,-3.73773,1.9399,0.28754,0.053696,-0.19818,
2026_04_21_14_16_47.584,0,27.1,0,1.18,0,0,0,0, ,0,0,0,0,0, ,960.6,167.1,-219.7,4.7,-1.1,0.7,25,-9.6514,-3.7838,1.94736,0.292904,0.0548359,-0.200839,
2026_04_21_14_16_47.604,0,26.9,0,1.179,0,0,0,0, ,0,0,0,0,0, ,955.6,163.6,-225,-1.7,-0.5,0.5,25,-9.72036,-3.82982,1.95449,0.298274,0.0559877,-0.203475,
2026_04_21_14_16_47.624,0,27,0,1.18,0,0,0,0, ,0,0,0,0,0, ,960.6,165.1,-197.1,-3.7,-0.1,0,25,-9.78895,-3.87577,1.96128,0.303647,0.0571501,-0.206088,
2026_04_21_14_16_47.644,0,27,0,1.181,0,0,0,0, ,0,0,0,0,0, ,961.3,167.4,-205.3,-2.2,-1.2,0.3,25,-9.85715,-3.92164,1.96773,0.309019,0.0583221,-0.208675,
2026_04_21_14_16_47.663,0,27,0,1.183,0,0,0,0, ,0,0,0,0,0, ,956,164,-207,0.9,-1.2,0.2,25,-9.92493,-3.96741,1.97381,0.314388,0.0595024,-0.211237,
2026_04_21_14_16_47.683,0,27,0,1.183,0,0,0,0, ,0,0,0,0,0, ,962.1,166.7,-209.8,0.8,-0.7,0.3,25,-9.99227,-4.01305,1.97954,0.31975,0.0606898,-0.213771,
2026_04_21_14_16_47.705,0,27,0,1.179,0,0,0,0, ,0,0,0,0,0, ,952.1,166.9,-217.7,-2.9,0.3,0.1,25,-10.0591,-4.05856,1.98489,0.325101,0.0618833,-0.216278,
2026_04_21_14_16_47.723,0,27,0,1.18,0,0,0,0, ,0,0,0,0,0, ,955.6,162.9,-198.8,-1.6,-1.2,1,25,-10.1255,-4.10392,1.98988,0.330437,0.0630817,-0.218755,
2026_04_21_14_16_47.742,0,27,0,1.181,0,0,0,0, ,0,0,0,0,0, ,966.3,166.2,-211.3,3.1,0,1.2,25,-10.1913,-4.1491,1.99448,0.335756,0.064284,-0.221203,
2026_04_21_14_16_47.762,0,27.1,0,1.18,0,0,0,0, ,0,0,0,0,0, ,957.3,159.6,-214.5,-4.7,1.8,0.4,25,-10.2566,-4.19408,1.99871,0.341053,0.0654892,-0.223619,
2026_04_21_14_16_47.782,0,27.2,0,1.179,0,0,0,0, ,0,0,0,0,0, ,955.3,149.5,-189.9,-1.5,-1,0.2,25,-10.3214,-4.23885,2.00255,0.346327,0.0666966,-0.226003,
2026_04_21_14_16_47.802,0,27.1,0,1.18,0,0,0,0, ,0,0,0,0,0, ,956.6,156.6,-211.5,2.1,-1.8,0.3,25,-10.3855,-4.28339,2.006,0.351574,0.0679058,-0.228353,
2026_04_21_14_16_47.821,0,27.2,0,1.181,0,0,0,0, ,0,0,0,0,0, ,965.6,169.4,-211.7,-2,-1.8,-0.3,25,-10.449,-4.32768,2.00907,0.35679,0.0691163,-0.230669,
2026_04_21_14_16_47.842,0,27.1,0,1.181,0,0,0,0, ,0,0,0,0,0, ,968,172.2,-202.8,-2.7,-1.7,-0.2,25,-10.5119,-4.37171,2.01175,0.361973,0.0703276,-0.232948,
2026_04_21_14_16_47.861,0,27.2,0,1.183,0,0,0,0, ,0,0,0,0,0, ,956.6,173.2,-218.3,-0.3,0.2,-0.2,25,-10.5742,-4.41546,2.01406,0.36712,0.0715389,-0.235191,
2026_04_21_14_16_47.881,0,27.3,0,1.18,0,0,0,0, ,0,0,0,0,0, ,953.2,169.5,-219.8,-1.9,1.2,0.6,25,-10.6357,-4.45892,2.01598,0.372227,0.0727492,-0.237396,
2026_04_21_14_16_47.901,0,27.3,0,1.18,0,0,0,0, ,0,0,0,0,0, ,960,163.5,-187.5,-4.3,-2.4,1,25,-10.6965,-4.50207,2.01753,0.377291,0.0739577,-0.239562,
2026_04_21_14_16_47.921,0,27.2,0,1.18,0,0,0,0, ,0,0,0,0,0, ,959.3,165.6,-216.9,4.8,0.6,1,25,-10.7567,-4.54489,2.01869,0.382309,0.0751638,-0.241688,
2026_04_21_14_16_47.941,0,27.2,0,1.181,0,0,0,0, ,0,0,0,0,0, ,962.7,159.9,-217,-3.7,-0.5,1,25,-10.816,-4.58735,2.01949,0.387278,0.0763669,-0.243774,
2026_04_21_14_16_47.964,0,27.3,0,1.181,0,0,0,0, ,0,0,0,0,0, ,963.2,155.1,-199.2,-3.3,-0.3,0.1,25,-10.8746,-4.62945,2.01991,0.392193,0.0775665,-0.245819,
2026_04_21_14_16_47.981,0,27.3,0,1.181,0,0,0,0, ,0,0,0,0,0, ,963.7,164.4,-207.3,3.2,-1.2,0,25,-10.9324,-4.67115,2.01997,0.397053,0.0787621,-0.247821,
2026_04_21_14_16_48.001,0,27.3,0,1.18,0,0,0,0, ,0,0,0,0,0, ,956.6,159.5,-214.5,-3.4,-2.8,0.1,25,-10.9894,-4.71245,2.01966,0.401854,0.0799534,-0.249779,
2026_04_21_14_16_48.019,0,27.3,0,1.18,0,0,0,0, ,0,0,0,0,0, ,951.4,155.3,-214.3,-1,-0.9,0,25,-11.0455,-4.75333,2.019,0.406593,0.0811397,-0.251693,
2026_04_21_14_16_48.039,0,27.5,0,1.181,0,0,0,0, ,0,0,0,0,0, ,949.9,166.3,-212.1,0.2,-1.1,0.7,25,-11.1008,-4.79377,2.01798,0.411267,0.0823202,-0.253561,
2026_04_21_14_16_48.060,0,27.5,0,1.181,0,0,0,0, ,0,0,0,0,0, ,969.4,171.7,-212.7,-1.2,1.8,0.5,25,-11.1553,-4.83375,2.01661,0.415873,0.0834939,-0.255382,
2026_04_21_14_16_48.079,0,27.3,0,1.181,0,0,0,0, ,0,0,0,0,0, ,961.1,164.5,-211.7,-2.4,-1.1,0.7,25,-11.2088,-4.87328,2.01489,0.420408,0.08466,-0.257156,
2026_04_21_14_16_48.099,0,27.5,0,1.181,0,0,0,0, ,0,0,0,0,0, ,957,160.1,-213.3,0.7,0.6,0.2,25,-11.2614,-4.91232,2.01282,0.424871,0.0858178,-0.258882,
2026_04_21_14_16_48.119,0,27.5,0,1.18,0,0,0,0, ,0,0,0,0,0, ,957.6,156.7,-212,-1.9,-2,0.1,25,-11.3131,-4.95086,2.01041,0.429257,0.0869669,-0.260559,
2026_04_21_14_16_48.139,0,27.6,0,1.18,0,0,0,0, ,0,0,0,0,0, ,959.4,164.5,-213.3,-1,-1.3,0.4,25,-11.3638,-4.9889,2.00766,0.433565,0.0881068,-0.262186,
2026_04_21_14_16_48.159,0,27.6,0,1.181,0,0,0,0, ,0,0,0,0,0, ,953.9,159.1,-209.1,-0.5,0.8,0.1,25,-11.4136,-5.02642,2.00456,0.437792,0.0892372,-0.263763,
2026_04_21_14_16_48.179,0,27.6,0,1.181,0,0,0,0, ,0,0,0,0,0, ,957.7,161.7,-206.2,-3.5,-0.9,0,25,-11.4624,-5.0634,2.00113,0.441936,0.0903574,-0.265287,
2026_04_21_14_16_48.199,0,27.6,0,1.181,0,0,0,0, ,0,0,0,0,0, ,958.6,161.6,-215.4,-0.3,-0.4,0.3,25,-11.5103,-5.09984,1.99735,0.445994,0.0914671,-0.26676,
2026_04_21_14_16_48.222,0,27.6,0,1.181,0,0,0,0, ,0,0,0,0,0, ,949.5,156.3,-214.5,-0.5,-1.6,0.6,25,-11.5571,-5.13572,1.99324,0.449963,0.0925658,-0.26818,
2026_04_21_14_16_48.238,0,27.6,0,1.181,0,0,0,0, ,0,0,0,0,0, ,942.3,156.4,-216.5,0.2,-4.5,1.8,25,-11.6029,-5.17104,1.98879,0.453841,0.0936533,-0.269547,
2026_04_21_14_16_48.258,0,27.6,0,1.183,0,0,0,0, ,0,0,0,0,0, ,963.6,166.6,-219.9,1.9,-2,1.9,25,-11.6477,-5.20578,1.98401,0.457627,0.0947287,-0.270859,
2026_04_21_14_16_48.278,0,27.7,0,1.18,0,0,0,0, ,0,0,0,0,0, ,978.1,172.8,-209.7,-1.7,-1.8,1.4,25,-11.6914,-5.23995,1.97888,0.461317,0.0957908,-0.272117,
2026_04_21_14_16_48.298,0,27.8,0,1.184,0,0,0,0, ,0,0,0,0,0, ,986.4,168.3,-209.1,0.7,-3.2,0.7,25,-11.7342,-5.27352,1.97343,0.46491,0.0968378,-0.273319,
2026_04_21_14_16_48.317,0,27.7,0,1.181,0,0,0,0, ,0,0,0,0,0, ,957.3,159.6,-236.5,2.3,1.3,-0.6,25,-11.7759,-5.3065,1.96763,0.468407,0.0978678,-0.274464,
2026_04_21_14_16_48.337,0,27.8,0,1.183,0,0,0,0, ,0,0,0,0,0, ,939.9,148.9,-211.4,-6.9,-2.6,0,25,-11.8165,-5.33887,1.96148,0.471804,0.0988787,-0.27555,
2026_04_21_14_16_48.363,0,27.8,0,1.18,0,0,0,0, ,0,0,0,0,0, ,961.4,159.4,-192.5,-1.1,-1.7,0.1,25,-11.856,-5.37063,1.95499,0.475103,0.0998683,-0.276576,
2026_04_21_14_16_48.377,0,27.8,0,1.181,0,0,0,0, ,0,0,0,0,0, ,969.4,171.5,-213.2,1.8,-2,0.2,25,-11.8945,-5.40176,1.94815,0.478302,0.100834,-0.277541,
2026_04_21_14_16_48.397,0,27.8,0,1.18,0,0,0,0, ,0,0,0,0,0, ,952.8,170,-213.1,-4,-0.4,0,25,-11.9319,-5.43226,1.94094,0.4814,0.101775,-0.278445,
2026_04_21_14_16_48.416,0,27.8,0,1.181,0,0,0,0, ,0,0,0,0,0, ,950.6,159.6,-215.5,-1.4,1.8,0.4,25,-11.9682,-5.46213,1.93338,0.484395,0.102687,-0.279286,
2026_04_21_14_16_48.436,0,27.8,0,1.181,0,0,0,0, ,0,0,0,0,0, ,961.1,167.3,-213.7,-1,-0.4,0.8,25,-12.0033,-5.49136,1.92547,0.487287,0.103569,-0.280065,
2026_04_21_14_16_48.456,0,27.8,0,1.184,0,0,0,0, ,0,0,0,0,0, ,970.8,168.2,-214.1,-0.9,-0.2,0.6,25,-12.0374,-5.51993,1.91718,0.490073,0.104419,-0.28078,
2026_04_21_14_16_48.475,0,27.9,0,1.18,0,0,0,0, ,0,0,0,0,0, ,968.2,165.7,-214.1,-2.5,0.6,-0.3,25,-12.0703,-5.54785,1.90854,0.492753,0.105236,-0.281431,
2026_04_21_14_16_48.495,0,27.9,0,1.184,0,0,0,0, ,0,0,0,0,0, ,958.2,161.9,-205.9,-1.3,-1,0,25,-12.1021,-5.5751,1.89953,0.495326,0.106018,-0.282017,
2026_04_21_14_16_48.515,0,27.9,0,1.181,0,0,0,0, ,0,0,0,0,0, ,956,165,-218.2,2.1,-1.2,0.6,25,-12.1327,-5.60166,1.89015,0.497789,0.106765,-0.282538,
2026_04_21_14_16_48.535,0,27.9,0,1.181,0,0,0,0, ,0,0,0,0,0, ,959.4,161.8,-214.9,-3.2,0,0.1,25,-12.1622,-5.62754,1.8804,0.500141,0.107476,-0.282994,
2026_04_21_14_16_48.555,0,28,0,1.181,0,0,0,0, ,0,0,0,0,0, ,953.7,160.4,-210.5,-0.7,0.1,0.4,25,-12.1905,-5.65273,1.87027,0.502381,0.108151,-0.283385,
2026_04_21_14_16_48.575,0,27.9,0,1.181,0,0,0,0, ,0,0,0,0,0, ,954.1,156.6,-212.8,1.5,-0.4,1,25,-12.2177,-5.67721,1.85977,0.504509,0.108788,-0.283709,
2026_04_21_14_16_48.595,0,27.9,0,1.18,0,0,0,0, ,0,0,0,0,0, ,953.2,152.7,-214.3,-1.8,0.4,0.6,25,-12.2437,-5.70098,1.8489,0.506523,0.109388,-0.283968,
2026_04_21_14_16_48.625,0,27.9,0,1.179,0,0,0,0, ,0,0,0,0,0, ,976.6,171.2,-204.7,-1.3,-0.8,0.5,25,-12.2685,-5.72403,1.83765,0.508423,0.10995,-0.284161,
2026_04_21_14_16_48.634,0,27.9,0,1.18,0,0,0,0, ,0,0,0,0,0, ,973.2,163,-207.3,-2.3,-2.1,0.1,25,-12.2921,-5.74635,1.82602,0.510208,0.110475,-0.284288,
2026_04_21_14_16_48.654,0,27.9,0,1.181,0,0,0,0, ,0,0,0,0,0, ,957.2,160,-224.6,-0.2,0.3,-0.9,25,-12.3145,-5.76795,1.81401,0.511877,0.110963,-0.284349,
2026_04_21_14_16_48.674,0,27.9,0,1.18,0,0,0,0, ,0,0,0,0,0, ,943.4,160.4,-213.3,-0.8,-1.9,0,25,-12.3358,-5.78883,1.80163,0.513431,0.111413,-0.284343,
2026_04_21_14_16_48.694,0,27.9,0,1.181,0,0,0,0, ,0,0,0,0,0, ,950.6,165.6,-213.2,-2.1,-1.7,0.6,25,-12.3559,-5.80896,1.78887,0.514867,0.111825,-0.28427,
2026_04_21_14_16_48.714,0,27.9,0,1.18,0,0,0,0, ,0,0,0,0,0, ,964.8,167.8,-221.6,-0.1,-0.1,0.8,25,-12.3747,-5.82836,1.77573,0.516187,0.112201,-0.284132,
2026_04_21_14_16_48.734,0,27.9,0,1.181,0,0,0,0, ,0,0,0,0,0, ,959.9,164.1,-211.4,-1.3,-0.8,0.7,25,-12.3924,-5.84703,1.76221,0.517389,0.112539,-0.283928,
2026_04_21_14_16_48.756,0,27.8,0,1.181,0,0,0,0, ,0,0,0,0,0, ,956.4,162.9,-214.5,-1.5,0.6,1,25,-12.4089,-5.86494,1.74831,0.518473,0.112838,-0.283659,
2026_04_21_14_16_48.773,0,27.8,0,1.181,0,0,0,0, ,0,0,0,0,0, ,966.1,158.2,-209.9,0,-0.1,0.9,25,-12.4242,-5.88211,1.73403,0.519438,0.113101,-0.283325,
2026_04_21_14_16_48.792,0,27.8,0,1.179,0,0,0,0, ,0,0,0,0,0, ,967.5,159.5,-212,-1.4,-2,0.3,25,-12.4383,-5.89852,1.71937,0.520285,0.113325,-0.282926,
2026_04_21_14_16_48.812,0,27.9,0,1.183,0,0,0,0, ,0,0,0,0,0, ,963.7,164.6,-212.5,-0.8,-0.2,0.1,25,-12.4512,-5.91418,1.70432,0.521013,0.113513,-0.282462,
2026_04_21_14_16_48.832,0,27.8,0,1.184,0,0,0,0, ,0,0,0,0,0, ,962.1,160.1,-197.6,-0.9,-2.3,0,25,-12.4629,-5.92909,1.68889,0.521622,0.113663,-0.281933,
2026_04_21_14_16_48.852,0,27.9,0,1.183,0,0,0,0, ,0,0,0,0,0, ,947.1,164.3,-222.7,-1.6,-1.8,0,25,-12.4734,-5.94323,1.67308,0.522112,0.113777,-0.28134,
2026_04_21_14_16_48.872,0,27.8,0,1.182,0,0,0,0, ,0,0,0,0,0, ,958.3,165.8,-213.8,0,1.1,0.1,25,-12.4828,-5.95662,1.6569,0.522483,0.113853,-0.280682,
2026_04_21_14_16_48.892,0,27.8,0,1.182,0,0,0,0, ,0,0,0,0,0, ,956.9,162.3,-204.7,-4.3,0,0.3,25,-12.491,-5.96925,1.64033,0.522735,0.113893,-0.27996,
2026_04_21_14_16_48.912,0,27.8,0,1.18,0,0,0,0, ,0,0,0,0,0, ,962.8,166.3,-204.7,1.5,-1.3,0.7,25,-12.4979,-5.98111,1.6234,0.522868,0.113896,-0.279175,
2026_04_21_14_16_48.931,0,27.8,0,1.179,0,0,0,0, ,0,0,0,0,0, ,954.7,164,-219.7,1.8,-0.2,1.2,25,-12.5038,-5.99222,1.6061,0.522882,0.113863,-0.278327,
2026_04_21_14_16_48.951,0,27.9,0,1.182,0,0,0,0, ,0,0,0,0,0, ,962.7,158.3,-205.4,-3.8,0,0.3,25,-12.5084,-6.00255,1.58843,0.522778,0.113794,-0.277416,
2026_04_21_14_16_48.971,0,27.9,0,1.18,0,0,0,0, ,0,0,0,0,0, ,965.5,159.5,-208.2,-0.3,-2.9,0.7,25,-12.5119,-6.01213,1.57041,0.522555,0.113689,-0.276444,
2026_04_21_14_16_48.991,0,27.8,0,1.18,0,0,0,0, ,0,0,0,0,0, ,963.5,163,-220,2.1,-3.1,0.8,25,-12.5142,-6.02093,1.55205,0.522215,0.113549,-0.27541,
2026_04_21_14_16_49.013,0,27.9,0,1.18,0,0,0,0, ,0,0,0,0,0, ,956.2,159.7,-221.8,0.1,-0.2,0.4,25,-12.5154,-6.02897,1.53335,0.521759,0.113374,-0.274316,
2026_04_21_14_16_49.030,0,27.9,0,1.178,0,0,0,0, ,0,0,0,0,0, ,960.2,168.9,-214.8,-3.2,1.4,0,25,-12.5154,-6.03625,1.51431,0.521187,0.113163,-0.27316,
2026_04_21_14_16_49.050,0,27.9,0,1.179,0,0,0,0, ,0,0,0,0,0, ,960.6,159.3,-193.8,-3.4,-0.9,0.4,25,-12.5143,-6.04276,1.49495,0.5205,0.112918,-0.271944,
2026_04_21_14_16_49.070,0,27.9,0,1.181,0,0,0,0, ,0,0,0,0,0, ,959.8,162.9,-213,0.1,-1.7,0.4,25,-12.5121,-6.04851,1.47526,0.519701,0.112637,-0.270668,
2026_04_21_14_16_49.090,0,27.9,0,1.181,0,0,0,0, ,0,0,0,0,0, ,961.6,163.5,-209.5,0.7,1.7,0.1,25,-12.5087,-6.0535,1.45527,0.51879,0.112322,-0.269332,
2026_04_21_14_16_49.110,0,27.9,0,1.181,0,0,0,0, ,0,0,0,0,0, ,962.7,162.7,-198.8,-4.2,-0.7,0.1,25,-12.5042,-6.05774,1.43497,0.517767,0.111972,-0.267938,
2026_04_21_14_16_49.130,0,27.9,0,1.179,0,0,0,0, ,0,0,0,0,0, ,964.5,166.1,-209.7,0,0.1,0,25,-12.4987,-6.06121,1.41438,0.516634,0.111588,-0.266485,
2026_04_21_14_16_49.151,0,27.9,0,1.18,0,0,0,0, ,0,0,0,0,0, ,957.6,162.1,-209.8,-3.4,-0.1,0,25,-12.492,-6.06393,1.39351,0.515391,0.111171,-0.264975,
2026_04_21_14_16_49.169,0,27.9,0,1.181,0,0,0,0, ,0,0,0,0,0, ,950.4,156.9,-206.7,-0.6,0.7,-0.2,25,-12.4842,-6.06589,1.37238,0.514039,0.110722,-0.263409,
2026_04_21_14_16_49.189,0,27.8,0,1.181,0,0,0,0, ,0,0,0,0,0, ,946.1,155.6,-215.2,-1.7,-1,0.6,25,-12.4753,-6.06711,1.35101,0.512579,0.110243,-0.261786,
2026_04_21_14_16_49.209,0,27.9,0,1.181,0,0,0,0, ,0,0,0,0,0, ,960.9,161.6,-205.5,-2.1,-0.4,0.1,25,-12.4654,-6.06757,1.3294,0.51101,0.109734,-0.260109,
2026_04_21_14_16_49.229,0,27.8,0,1.183,0,0,0,0, ,0,0,0,0,0, ,963.2,165.6,-210.9,-0.9,-3,0.5,25,-12.4544,-6.06729,1.30757,0.509334,0.109196,-0.258379,
2026_04_21_14_16_49.249,0,27.9,0,1.181,0,0,0,0, ,0,0,0,0,0, ,953.7,164.6,-230.1,-2.6,-1.8,0.6,25,-12.4424,-6.06628,1.28554,0.50755,0.108632,-0.256597,
2026_04_21_14_16_49.278,0,27.9,0,1.18,0,0,0,0, ,0,0,0,0,0, ,956.6,164.4,-222.7,2.5,1.2,0.7,25,-12.4294,-6.06453,1.26333,0.505659,0.108042,-0.254763,
2026_04_21_14_16_49.288,0,27.9,0,1.18,0,0,0,0, ,0,0,0,0,0, ,961.3,159.1,-197.7,-4.7,-3.6,1.2,25,-12.4153,-6.06206,1.24095,0.503661,0.107427,-0.25288,
2026_04_21_14_16_49.308,0,27.9,0,1.18,0,0,0,0, ,0,0,0,0,0, ,964.1,167.2,-207.5,0.2,0.4,0.6,25,-12.4002,-6.05886,1.2184,0.501555,0.106788,-0.250947,
2026_04_21_14_16_49.327,0,27.8,0,1.18,0,0,0,0, ,0,0,0,0,0, ,971.4,163.2,-191.4,-1.5,-3.3,0.6,25,-12.3842,-6.05494,1.19571,0.499344,0.106124,-0.248967,
2026_04_21_14_16_49.348,0,27.8,0,1.182,0,0,0,0, ,0,0,0,0,0, ,956.6,161.6,-221.8,1.2,-1.1,0,25,-12.3672,-6.05031,1.17288,0.497027,0.105437,-0.246939,
2026_04_21_14_16_49.368,0,27.8,0,1.18,0,0,0,0, ,0,0,0,0,0, ,958.4,160.5,-216.9,-0.8,-0.2,-0.1,25,-12.3492,-6.04498,1.14994,0.494604,0.104727,-0.244864,
2026_04_21_14_16_49.387,0,27.7,0,1.181,0,0,0,0, ,0,0,0,0,0, ,949.5,160,-213,-2.8,-0.4,0,25,-12.3303,-6.03894,1.1269,0.492077,0.103993,-0.242744,
2026_04_21_14_16_49.407,0,27.8,0,1.181,0,0,0,0, ,0,0,0,0,0, ,958.4,161.8,-203.4,-2.1,0.3,0.1,25,-12.3105,-6.0322,1.10377,0.489446,0.103236,-0.240579,
2026_04_21_14_16_49.427,0,27.9,0,1.183,0,0,0,0, ,0,0,0,0,0, ,955.5,163.8,-205.6,0.5,-2.5,0.7,25,-12.2898,-6.02477,1.08058,0.486714,0.102455,-0.238371,
2026_04_21_14_16_49.447,0,27.8,0,1.181,0,0,0,0, ,0,0,0,0,0, ,953,162.4,-222.2,-0.6,1.7,0.6,25,-12.2682,-6.01665,1.05733,0.483879,0.101652,-0.23612,
2026_04_21_14_16_49.467,0,27.9,0,1.183,0,0,0,0, ,0,0,0,0,0, ,967.7,158,-203.2,-3,-0.7,0.8,25,-12.2457,-6.00786,1.03405,0.480944,0.100826,-0.233828,
2026_04_21_14_16_49.487,0,27.7,0,1.18,0,0,0,0, ,0,0,0,0,0, ,967,163.2,-211,-0.9,-0.4,0.3,25,-12.2224,-5.99839,1.01075,0.477909,0.0999789,-0.231496,
2026_04_21_14_16_49.507,0,27.8,0,1.179,0,0,0,0, ,0,0,0,0,0, ,959.7,168.2,-209.4,-1.6,0.5,-0.4,25,-12.1983,-5.98826,0.987439,0.474775,0.0991102,-0.229125,
2026_04_21_14_16_49.530,0,27.7,0,1.183,0,0,0,0, ,0,0,0,0,0, ,956.5,164.6,-201.7,-2.7,-1.8,0,25,-12.1733,-5.97747,0.964144,0.471544,0.0982212,-0.226716,
2026_04_21_14_16_49.546,0,27.7,0,1.18,0,0,0,0, ,0,0,0,0,0, ,953.6,169.3,-223.2,1.5,0,0.4,25,-12.1476,-5.96604,0.940879,0.468215,0.0973128,-0.22427,
2026_04_21_14_16_49.566,0,27.8,0,1.183,0,0,0,0, ,0,0,0,0,0, ,958,170.6,-214.2,-0.6,1.5,1,25,-12.121,-5.95395,0.91766,0.464791,0.0963861,-0.221788,
2026_04_21_14_16_49.586,0,27.7,0,1.179,0,0,0,0, ,0,0,0,0,0, ,951.5,156.2,-204.1,-5.1,0.9,0.8,25,-12.0938,-5.94123,0.894506,0.461271,0.0954421,-0.219272,
2026_04_21_14_16_49.606,0,27.7,0,1.184,0,0,0,0, ,0,0,0,0,0, ,958.6,156.3,-208.1,2.8,1,1.2,25,-12.0658,-5.92787,0.87143,0.457657,0.0944824,-0.216723,
2026_04_21_14_16_49.626,0,27.7,0,1.181,0,0,0,0, ,0,0,0,0,0, ,964.9,158.2,-205.4,-0.5,0.7,0.9,25,-12.037,-5.91387,0.848449,0.45395,0.0935088,-0.214142,
2026_04_21_14_16_49.645,0,27.7,0,1.181,0,0,0,0, ,0,0,0,0,0, ,969.1,156.2,-189.3,-3.7,-1.2,0.2,25,-12.0076,-5.89926,0.825581,0.450151,0.0925237,-0.211529,
2026_04_21_14_16_49.678,0,27.7,0,1.18,0,0,0,0, ,0,0,0,0,0, ,958.9,159.5,-212.8,0.3,-1.7,0,25,-11.9776,-5.88402,0.802843,0.446262,0.0915292,-0.208886,
2026_04_21_14_16_49.685,0,27.6,0,1.183,0,0,0,0, ,0,0,0,0,0, ,951.4,158.3,-216.9,0,-0.2,0.2,25,-11.9468,-5.86817,0.780258,0.442284,0.0905278,-0.206213,
2026_04_21_14_16_49.704,0,27.6,0,1.181,0,0,0,0, ,0,0,0,0,0, ,961.1,164,-206.4,-1.6,-1.4,0.2,25,-11.9155,-5.85173,0.757846,0.438219,0.0895213,-0.203511,
2026_04_21_14_16_49.724,0,27.8,0,1.18,0,0,0,0, ,0,0,0,0,0, ,958.8,163.5,-210,-3.2,-1.9,0.5,25,-11.8835,-5.83469,0.735628,0.434068,0.0885118,-0.200782,
2026_04_21_14_16_49.744,0,27.7,0,1.179,0,0,0,0, ,0,0,0,0,0, ,961,167.8,-207.7,-0.1,0.4,0.2,25,-11.8509,-5.81708,0.713624,0.429833,0.087501,-0.198025,
2026_04_21_14_16_49.763,0,27.7,0,1.18,0,0,0,0, ,0,0,0,0,0, ,957.8,167.3,-206.1,-0.9,0.7,0.4,25,-11.8178,-5.7989,0.691855,0.425515,0.0864903,-0.195243,
2026_04_21_14_16_49.783,0,27.6,0,1.182,0,0,0,0, ,0,0,0,0,0, ,962.4,160.5,-207.1,-1.7,-0.3,0.6,25,-11.7841,-5.78016,0.67034,0.421115,0.0854813,-0.192436,
2026_04_21_14_16_49.807,0,27.6,0,1.183,0,0,0,0, ,0,0,0,0,0, ,955.5,160.1,-214.8,0.5,0,0.6,25,-11.7499,-5.76087,0.6491,0.416636,0.0844759,-0.189606,
2026_04_21_14_16_49.823,0,27.7,0,1.181,0,0,0,0, ,0,0,0,0,0, ,955.8,159.4,-216.1,-1.2,0.8,0.8,25,-11.7152,-5.74103,0.628155,0.412079,0.0834758,-0.186752,
2026_04_21_14_16_49.843,0,27.6,0,1.181,0,0,0,0, ,0,0,0,0,0, ,966.3,162.7,-207.8,0.9,0.1,1,25,-11.6799,-5.72067,0.607523,0.407446,0.0824831,-0.183877,
2026_04_21_14_16_49.863,0,27.5,0,1.181,0,0,0,0, ,0,0,0,0,0, ,970.5,161.8,-203.1,-4.3,1.3,0,25,-11.6442,-5.69977,0.587224,0.402739,0.0815,-0.180981,
2026_04_21_14_16_49.883,0,27.6,0,1.18,0,0,0,0, ,0,0,0,0,0, ,953.3,159,-205.3,1.8,-1,0.5,25,-11.6081,-5.67837,0.567274,0.39796,0.0805286,-0.178065,
2026_04_21_14_16_49.903,0,27.7,0,1.18,0,0,0,0, ,0,0,0,0,0, ,957.2,162.1,-201.5,0.1,-2.7,1.2,25,-11.5715,-5.65646,0.547692,0.39311,0.0795715,-0.17513,
2026_04_21_14_16_49.923,0,27.7,0,1.179,0,0,0,0, ,0,0,0,0,0, ,967.2,166.1,-208.2,-0.9,0.5,0.3,25,-11.5345,-5.63406,0.528498,0.388193,0.0786309,-0.172176,
2026_04_21_14_16_49.944,0,27.7,0,1.181,0,0,0,0, ,0,0,0,0,0, ,966.5,159.6,-204.4,-4.2,-0.5,0.1,25,-11.4971,-5.61117,0.50971,0.383212,0.0777089,-0.169204,
2026_04_21_14_16_49.962,0,27.7,0,1.18,0,0,0,0, ,0,0,0,0,0, ,960.2,157.4,-199.3,-2.8,-1.7,-0.4,25,-11.4593,-5.58781,0.49135,0.378167,0.0768073,-0.166216,
2026_04_21_14_16_49.982,0,27.5,0,1.183,0,0,0,0, ,0,0,0,0,0, ,958.3,164.6,-212.2,2.1,-1.4,0.2,25,-11.4211,-5.56398,0.47344,0.373062,0.0759277,-0.163211,
2026_04_21_14_16_50.002,0,27.6,0,1.181,0,0,0,0, ,0,0,0,0,0, ,955.8,161.2,-219.3,0.5,-1.1,0.3,25,-11.3826,-5.53971,0.456,0.367898,0.0750718,-0.16019,
2026_04_21_14_16_50.022,0,27.7,0,1.179,0,0,0,0, ,0,0,0,0,0, ,953.6,158,-216.1,-4,-1,0,25,-11.3438,-5.51499,0.43905,0.362678,0.0742406,-0.157156,
2026_04_21_14_16_50.042,0,27.6,0,1.181,0,0,0,0, ,0,0,0,0,0, ,959.7,164.5,-202.5,-0.9,-0.7,0.1,25,-11.3046,-5.48984,0.42261,0.357404,0.0734353,-0.154108,
2026_04_21_14_16_50.062,0,27.7,0,1.18,0,0,0,0, ,0,0,0,0,0, ,965.3,167.4,-216.9,0.2,-1.8,1.1,25,-11.2651,-5.46428,0.406696,0.352078,0.0726565,-0.151048,
2026_04_21_14_16_50.088,0,27.6,0,1.179,0,0,0,0, ,0,0,0,0,0, ,963.2,162.7,-212.5,-2.6,0.9,0.2,25,-11.2253,-5.4383,0.391322,0.346703,0.0719049,-0.147978,
2026_04_21_14_16_50.101,0,27.7,0,1.18,0,0,0,0, ,0,0,0,0,0, ,958.2,159,-201.1,-0.7,-0.3,0.2,25,-11.1853,-5.41193,0.376505,0.34128,0.0711812,-0.144897,
2026_04_21_14_16_50.121,0,27.6,0,1.18,0,0,0,0, ,0,0,0,0,0, ,959.8,155.8,-208.3,-4.2,-0.4,-0.1,25,-11.145,-5.38517,0.362256,0.335811,0.0704858,-0.141808,
2026_04_21_14_16_50.141,0,27.6,0,1.18,0,0,0,0, ,0,0,0,0,0, ,959.5,158.4,-202.8,-0.2,-2.3,0,25,-11.1045,-5.35804,0.348591,0.330299,0.0698195,-0.138712,
2026_04_21_14_16_50.161,0,27.6,0,1.181,0,0,0,0, ,0,0,0,0,0, ,959.7,162.3,-209.3,-1.1,-1.8,0,25,-11.0637,-5.33054,0.335522,0.324745,0.0691827,-0.135609,
2026_04_21_14_16_50.179,0,27.6,0,1.181,0,0,0,0, ,0,0,0,0,0, ,959.9,166.3,-206.1,-4.5,-1.4,-0.5,25,-11.0227,-5.30268,0.323065,0.319151,0.0685757,-0.132502,
2026_04_21_14_16_50.199,0,27.6,0,1.183,0,0,0,0, ,0,0,0,0,0, ,956.1,161.2,-205,-0.6,-0.8,-0.3,25,-10.9815,-5.27449,0.311233,0.313517,0.0679984,-0.129391,
2026_04_21_14_16_50.223,0,27.6,0,1.179,0,0,0,0, ,0,0,0,0,0, ,956,170.1,-223,0,-0.5,0.1,25,-10.9402,-5.24597,0.300041,0.307845,0.0674505,-0.126278,
2026_04_21_14_16_50.239,0,27.6,0,1.183,0,0,0,0, ,0,0,0,0,0, ,952.7,163.8,-221.1,-1.5,2.5,0.1,25,-10.8987,-5.21713,0.2895,0.302137,0.0669316,-0.123165,
2026_04_21_14_16_50.259,0,27.6,0,1.181,0,0,0,0, ,0,0,0,0,0, ,955.6,156.8,-203.6,-4.8,-1.8,1.1,25,-10.857,-5.18798,0.279622,0.296392,0.0664415,-0.120053,
2026_04_21_14_16_50.279,0,27.6,0,1.18,0,0,0,0, ,0,0,0,0,0, ,967.4,160,-201.5,3,0.2,0.9,25,-10.8152,-5.15853,0.270415,0.290613,0.0659803,-0.116945,
2026_04_21_14_16_50.299,0,27.6,0,1.18,0,0,0,0, ,0,0,0,0,0, ,965.6,152.7,-197.2,-1.8,-1.7,0.1,25,-10.7733,-5.12879,0.261886,0.2848,0.065548,-0.113841,
2026_04_21_14_16_50.319,0,27.5,0,1.18,0,0,0,0, ,0,0,0,0,0, ,959.9,165.6,-206.2,-4.4,-0.3,-0.6,25,-10.7313,-5.09878,0.254044,0.278954,0.0651448,-0.110744,
2026_04_21_14_16_50.339,0,27.6,0,1.18,0,0,0,0, ,0,0,0,0,0, ,958.9,160,-188.9,-0.2,-1.3,-0.2,25,-10.6892,-5.06849,0.2469,0.273076,0.0647705,-0.107654,
2026_04_21_14_16_50.361,0,27.5,0,1.18,0,0,0,0, ,0,0,0,0,0, ,959.1,170.4,-221.5,0,-0.6,-0.3,25,-10.647,-5.03796,0.240465,0.267168,0.064425,-0.104573,
2026_04_21_14_16_50.379,0,27.5,0,1.18,0,0,0,0, ,0,0,0,0,0, ,952,167.1,-215.4,-4.4,1.1,-0.4,25,-10.6048,-5.00718,0.234753,0.26123,0.064108,-0.101504,
2026_04_21_14_16_50.397,0,27.6,0,1.182,0,0,0,0, ,0,0,0,0,0, ,950.3,160.2,-195.3,-2.2,-2.8,0.9,25,-10.5626,-4.97616,0.229775,0.255264,0.0638194,-0.0984468,
2026_04_21_14_16_50.417,0,27.5,0,1.18,0,0,0,0, ,0,0,0,0,0, ,958,166.9,-213,3.1,0.6,0.9,25,-10.5203,-4.94492,0.225541,0.249269,0.063559,-0.0954044,
2026_04_21_14_16_50.437,0,27.5,0,1.181,0,0,0,0, ,0,0,0,0,0, ,970.7,164,-199.2,-2.4,0,0.7,25,-10.4781,-4.91346,0.222061,0.243247,0.0633264,-0.0923781,
2026_04_21_14_16_50.457,0,27.6,0,1.179,0,0,0,0, ,0,0,0,0,0, ,964.3,159.3,-199.2,-4.9,-1,0.4,25,-10.4358,-4.88179,0.219346,0.237198,0.0631215,-0.0893695,
2026_04_21_14_16_50.487,0,27.6,0,1.181,0,0,0,0, ,0,0,0,0,0, ,961.3,159.6,-201.2,1.1,0,0,25,-10.3936,-4.84992,0.217406,0.231124,0.0629441,-0.08638,
2026_04_21_14_16_50.497,0,27.5,0,1.179,0,0,0,0, ,0,0,0,0,0, ,958.4,164.1,-211.9,1.2,0.8,-0.5,25,-10.3514,-4.81785,0.216252,0.225026,0.0627939,-0.0834109,
2026_04_21_14_16_50.517,0,27.6,0,1.181,0,0,0,0, ,0,0,0,0,0, ,951.6,156.7,-205.2,-7.3,-1,-0.2,25,-10.3093,-4.78559,0.215898,0.218904,0.0626711,-0.0804635,
2026_04_21_14_16_50.537,0,27.5,0,1.182,0,0,0,0, ,0,0,0,0,0, ,955.4,165.8,-205.3,-0.2,-0.4,0,25,-10.2673,-4.75316,0.216354,0.212759,0.0625755,-0.0775393,
2026_04_21_14_16_50.557,0,27.5,0,1.182,0,0,0,0, ,0,0,0,0,0, ,955.5,169.4,-205,1.8,-0.9,0.6,25,-10.2254,-4.72055,0.217631,0.206592,0.0625074,-0.0746399,
2026_04_21_14_16_50.577,0,27.6,0,1.18,0,0,0,0, ,0,0,0,0,0, ,965.6,168.5,-206.1,-2.9,-0.6,0.5,25,-10.1836,-4.68778,0.21974,0.200404,0.0624666,-0.0717667,
2026_04_21_14_16_50.597,0,27.3,0,1.179,0,0,0,0, ,0,0,0,0,0, ,962.2,163.6,-206,-2,1.5,0.1,25,-10.1418,-4.65485,0.22269,0.194196,0.0624532,-0.0689212,
2026_04_21_14_16_50.625,0,27.3,0,1.181,0,0,0,0, ,0,0,0,0,0, ,959.1,162.8,-197.8,-0.5,0.1,0.3,25,-10.1003,-4.62176,0.22649,0.187968,0.0624673,-0.0661046,
2026_04_21_14_16_50.635,0,27.6,0,1.181,0,0,0,0, ,0,0,0,0,0, ,961.3,161.3,-201.5,-1.2,0.1,0.3,25,-10.0588,-4.58853,0.231152,0.181721,0.0625091,-0.0633184,
2026_04_21_14_16_50.655,0,27.3,0,1.181,0,0,0,0, ,0,0,0,0,0, ,963.8,161.2,-199.7,-2.4,-1.7,0,25,-10.0176,-4.55515,0.236684,0.175457,0.0625791,-0.0605637,
2026_04_21_14_16_50.675,0,27.3,0,1.18,0,0,0,0, ,0,0,0,0,0, ,958,163.2,-208.1,-0.3,-1,0,25,-9.97649,-4.52162,0.243098,0.169177,0.0626775,-0.0578418,
2026_04_21_14_16_50.695,0,27.5,0,1.18,0,0,0,0, ,0,0,0,0,0, ,958.6,163.4,-212.2,0.9,0.1,0.2,25,-9.93558,-4.48797,0.250403,0.162881,0.0628048,-0.0551539,
2026_04_21_14_16_50.715,0,27.5,0,1.182,0,0,0,0, ,0,0,0,0,0, ,959.1,162.7,-207.6,-4.7,-1.4,0,25,-9.89488,-4.45417,0.258611,0.15657,0.062961,-0.0525011,
2026_04_21_14_16_50.735,0,27.5,0,1.183,0,0,0,0, ,0,0,0,0,0, ,957.2,167.3,-207.3,-3,0.5,0,25,-9.85438,-4.42025,0.267729,0.150247,0.0631462,-0.0498847,
2026_04_21_14_16_50.755,0,27.3,0,1.183,0,0,0,0, ,0,0,0,0,0, ,960.3,164.4,-200.3,1.9,-1,0.6,25,-9.8141,-4.38621,0.277763,0.143911,0.0633603,-0.0473058,
2026_04_21_14_16_50.775,0,27.3,0,1.182,0,0,0,0, ,0,0,0,0,0, ,963.5,164.6,-207.6,-1.2,-2.2,0.3,25,-9.77405,-4.35204,0.28872,0.137565,0.0636034,-0.0447657,
2026_04_21_14_16_50.795,0,27.5,0,1.181,0,0,0,0, ,0,0,0,0,0, ,961,166.9,-215,-2.1,-0.1,-0.2,25,-9.73425,-4.31776,0.300605,0.131208,0.0638753,-0.0422652,
2026_04_21_14_16_50.815,0,27.5,0,1.18,0,0,0,0, ,0,0,0,0,0, ,960.5,162.5,-202.5,-2.8,-1.8,0.3,25,-9.69469,-4.28336,0.313423,0.124843,0.0641755,-0.0398056,
2026_04_21_14_16_50.833,0,27.3,0,1.182,0,0,0,0, ,0,0,0,0,0, ,957.8,161.2,-199.4,0.6,0,0.1,25,-9.6554,-4.24884,0.327175,0.11847,0.0645036,-0.0373877,
2026_04_21_14_16_50.853,0,27.5,0,1.18,0,0,0,0, ,0,0,0,0,0, ,949.3,160.7,-213.9,-3.7,-1,0.2,25,-9.61637,-4.21421,0.341865,0.11209,0.0648588,-0.0350126,
2026_04_21_14_16_50.874,0,27.5,0,1.18,0,0,0,0, ,0,0,0,0,0, ,960.6,165.1,-208.6,0.3,-0.8,0.3,25,-9.57762,-4.17947,0.357494,0.105705,0.0652404,-0.0326811,
2026_04_21_14_16_50.893,0,27.6,0,1.182,0,0,0,0, ,0,0,0,0,0, ,964.4,167.7,-208.9,-2.6,-3.1,0.6,25,-9.53916,-4.14462,0.374062,0.0993162,0.0656476,-0.0303942,
2026_04_21_14_16_50.913,0,27.5,0,1.179,0,0,0,0, ,0,0,0,0,0, ,961.6,170.1,-211.4,0,-3.8,0.9,25,-9.50099,-4.10966,0.391568,0.0929238,0.0660793,-0.0281527,
2026_04_21_14_16_50.933,0,27.6,0,1.182,0,0,0,0, ,0,0,0,0,0, ,959.8,165.5,-209.8,-0.1,-0.7,0.7,25,-9.46313,-4.07459,0.410009,0.0865293,0.066534,-0.0259571,
2026_04_21_14_16_50.953,0,27.6,0,1.18,0,0,0,0, ,0,0,0,0,0, ,964.9,162.1,-200.4,-4.1,-0.9,0,25,-9.42559,-4.03942,0.42938,0.080134,0.0670095,-0.023808,
2026_04_21_14_16_50.973,0,27.6,0,1.181,0,0,0,0, ,0,0,0,0,0, ,961.9,170,-202.3,-2.1,0,-0.2,25,-9.38837,-4.00413,0.449677,0.0737393,0.0675037,-0.0217058,
2026_04_21_14_16_51.004,0,27.5,0,1.183,0,0,0,0, ,0,0,0,0,0, ,963.6,167.4,-201.2,1.3,-0.1,-0.2,25,-9.35148,-3.96874,0.470893,0.0673461,0.0680143,-0.0196507,
2026_04_21_14_16_51.012,0,27.6,0,1.18,0,0,0,0, ,0,0,0,0,0, ,959.7,167.4,-214.2,-3.2,-1.4,0,25,-9.31492,-3.93324,0.493024,0.0609556,0.0685394,-0.0176433,
2026_04_21_14_16_51.032,0,27.6,0,1.182,0,0,0,0, ,0,0,0,0,0, ,957,167.9,-217.5,0.1,0,0.5,25,-9.27869,-3.89763,0.516063,0.054569,0.0690769,-0.0156839,
2026_04_21_14_16_51.052,0,27.7,0,1.185,0,0,0,0, ,0,0,0,0,0, ,955.2,161,-199.4,-1.9,-1.8,0.8,25,-9.24281,-3.86189,0.540004,0.0481875,0.0696249,-0.0137729,
2026_04_21_14_16_51.072,0,27.6,0,1.182,0,0,0,0, ,0,0,0,0,0, ,961.4,162.7,-205.6,-0.4,-1.6,0.7,25,-9.20727,-3.82604,0.564838,0.0418123,0.0701814,-0.0119107,
2026_04_21_14_16_51.092,0,27.7,0,1.179,0,0,0,0, ,0,0,0,0,0, ,962.5,167.7,-215.4,1.6,1,0.7,25,-9.17209,-3.79005,0.590553,0.035445,0.0707445,-0.0100975,
2026_04_21_14_16_51.112,0,27.7,0,1.183,0,0,0,0, ,0,0,0,0,0, ,964.9,158,-193.1,-5.9,0.2,0.2,25,-9.13725,-3.75394,0.617141,0.0290871,0.0713121,-0.00833333,
2026_04_21_14_16_51.133,0,27.7,0,1.18,0,0,0,0, ,0,0,0,0,0, ,962,161,-191.4,-1.5,-3.2,0.2,25,-9.10278,-3.7177,0.64459,0.0227403,0.0718825,-0.00661804,
2026_04_21_14_16_51.151,0,27.7,0,1.18,0,0,0,0, ,0,0,0,0,0, ,955.4,163.2,-215.2,0.8,-1.8,0.1,25,-9.06867,-3.68133,0.672891,0.016406,0.0724539,-0.00495155,
2026_04_21_14_16_51.171,0,27.7,0,1.182,0,0,0,0, ,0,0,0,0,0, ,958.7,164.3,-209.2,-2.7,0.5,-0.6,25,-9.03492,-3.64482,0.702035,0.0100854,0.0730242,-0.00333369,
2026_04_21_14_16_51.191,0,27.7,0,1.179,0,0,0,0, ,0,0,0,0,0, ,954.3,167.3,-205.5,-1.3,-1.2,0.3,25,-9.00153,-3.60818,0.732012,0.00378005,0.0735916,-0.00176439,
2026_04_21_14_16_51.210,0,27.7,0,1.182,0,0,0,0, ,0,0,0,0,0, ,954.8,168.7,-215.4,-0.4,-0.1,0.7,25,-8.96851,-3.5714,0.762812,-0.00250885,0.0741538,-0.000243593,
2026_04_21_14_16_51.230,0,27.7,0,1.183,0,0,0,0, ,0,0,0,0,0, ,961.3,165.5,-200.5,-2.2,-0.9,0.6,25,-8.93586,-3.53448,0.794423,-0.0087799,0.0747091,0.00122877,
2026_04_21_14_16_51.254,0,27.7,0,1.18,0,0,0,0, ,0,0,0,0,0, ,963.2,171.2,-199.3,1.2,-2.4,1,25,-8.90359,-3.49743,0.826831,-0.0150317,0.0752555,0.00265286,
2026_04_21_14_16_51.269,0,27.7,0,1.18,0,0,0,0, ,0,0,0,0,0, ,964.7,167.1,-209.7,-0.7,0.9,0.5,25,-8.8717,-3.46023,0.860023,-0.0212627,0.0757913,0.00402899,
2026_04_21_14_16_51.289,0,27.7,0,1.179,0,0,0,0, ,0,0,0,0,0, ,962.2,160.6,-194.9,-5.3,1.1,-0.5,25,-8.84019,-3.42289,0.893987,-0.0274711,0.0763146,0.00535762,
2026_04_21_14_16_51.309,0,27.7,0,1.182,0,0,0,0, ,0,0,0,0,0, ,955.3,165.7,-195.3,1,1.2,-0.2,25,-8.80906,-3.3854,0.928709,-0.0336553,0.0768238,0.00663923,
2026_04_21_14_16_51.329,0,27.7,0,1.18,0,0,0,0, ,0,0,0,0,0, ,960.3,159.7,-195.4,-2.3,-1.8,0.2,25,-8.77832,-3.34775,0.964179,-0.0398137,0.0773178,0.00787424,
2026_04_21_14_16_51.349,0,27.7,0,1.179,0,0,0,0, ,0,0,0,0,0, ,958.4,168.4,-206.9,-0.6,-2.7,0.4,25,-8.74796,-3.30996,1.00039,-0.0459448,0.0777957,0.00906302,
2026_04_21_14_16_51.378,0,27.7,0,1.18,0,0,0,0, ,0,0,0,0,0, ,963.8,173.2,-208.7,-0.7,0,0.3,25,-8.71799,-3.272,1.03732,-0.0520474,0.0782566,0.0102059,
2026_04_21_14_16_51.389,0,27.7,0,1.18,0,0,0,0, ,0,0,0,0,0, ,962,169.9,-204.3,-0.9,-1.2,0.7,25,-8.68841,-3.23389,1.07498,-0.0581197,0.0786992,0.0113033,
2026_04_21_14_16_51.409,0,27.8,0,1.181,0,0,0,0, ,0,0,0,0,0, ,951.4,164.5,-211.9,-1.6,1.7,0.7,25,-8.65922,-3.19561,1.11335,-0.0641601,0.0791225,0.0123557,
2026_04_21_14_16_51.428,0,27.7,0,1.181,0,0,0,0, ,0,0,0,0,0, ,960.6,158.8,-193.3,-2.5,-1.1,0.9,25,-8.63042,-3.15717,1.15242,-0.070167,0.0795255,0.0133637,
2026_04_21_14_16_51.448,0,27.8,0,1.184,0,0,0,0, ,0,0,0,0,0, ,970.5,163.3,-199.9,0.3,-0.9,0.2,25,-8.60201,-3.11855,1.19218,-0.0761387,0.0799074,0.0143279,
2026_04_21_14_16_51.468,0,27.7,0,1.182,0,0,0,0, ,0,0,0,0,0, ,965.2,165.7,-203.9,-1,-1.4,0.1,25,-8.57399,-3.07976,1.23261,-0.0820737,0.0802675,0.0152492,
2026_04_21_14_16_51.488,0,27.7,0,1.181,0,0,0,0, ,0,0,0,0,0, ,953.6,162.7,-208.7,-1.8,0.8,-0.3,25,-8.54636,-3.0408,1.27372,-0.0879704,0.0806052,0.0161285,
2026_04_21_14_16_51.514,0,27.8,0,1.181,0,0,0,0, ,0,0,0,0,0, ,953.2,161.7,-212.2,-3.7,0,0.1,25,-8.51911,-3.00165,1.31548,-0.093827,0.0809197,0.0169664,
2026_04_21_14_16_51.528,0,27.8,0,1.181,0,0,0,0, ,0,0,0,0,0, ,961.5,166.5,-202.7,-1.4,-0.7,0.1,25,-8.49225,-2.96233,1.35788,-0.0996422,0.0812107,0.0177637,
2026_04_21_14_16_51.548,0,27.8,0,1.182,0,0,0,0, ,0,0,0,0,0, ,963.1,168.7,-206.6,0.5,-2.5,0.9,25,-8.46578,-2.92282,1.40092,-0.105415,0.0814778,0.0185211,
2026_04_21_14_16_51.568,0,27.7,0,1.18,0,0,0,0, ,0,0,0,0,0, ,958.8,162.3,-212.4,-3,-1.2,0.3,25,-8.43968,-2.88313,1.44458,-0.111143,0.0817207,0.0192394,
2026_04_21_14_16_51.586,0,27.7,0,1.179,0,0,0,0, ,0,0,0,0,0, ,958.9,166.6,-206.6,2.5,-0.8,0.7,25,-8.41397,-2.84326,1.48883,-0.116827,0.0819387,0.0199192,
2026_04_21_14_16_51.607,0,27.7,0,1.182,0,0,0,0, ,0,0,0,0,0, ,972.2,170.6,-211.5,-1,-1.4,0.7,25,-8.38864,-2.80321,1.53368,-0.122465,0.0821312,0.0205614,
2026_04_21_14_16_51.626,0,27.7,0,1.18,0,0,0,0, ,0,0,0,0,0, ,966.9,166.6,-205.3,-4.2,-1.2,-0.1,25,-8.36369,-2.76298,1.57909,-0.128054,0.0822974,0.021167,
2026_04_21_14_16_51.656,0,27.8,0,1.182,0,0,0,0, ,0,0,0,0,0, ,961.5,163.4,-196.1,-2.8,-1.3,-0.3,25,-8.33912,-2.72257,1.62505,-0.133594,0.0824363,0.0217369,
2026_04_21_14_16_51.666,0,27.8,0,1.182,0,0,0,0, ,0,0,0,0,0, ,950.9,161,-209.2,0,-1.4,0,25,-8.31491,-2.68197,1.67153,-0.139083,0.0825471,0.0222721,
2026_04_21_14_16_51.686,0,27.8,0,1.18,0,0,0,0, ,0,0,0,0,0, ,946,158.6,-212.8,-0.7,-1,0.2,25,-8.29106,-2.64118,1.71853,-0.14452,0.0826286,0.0227734,
2026_04_21_14_16_51.706,0,27.8,0,1.18,0,0,0,0, ,0,0,0,0,0, ,956.4,159.5,-209.3,-3.3,0,0.3,25,-8.26757,-2.60021,1.76601,-0.149905,0.0826796,0.0232416,
2026_04_21_14_16_51.726,0,27.8,0,1.183,0,0,0,0, ,0,0,0,0,0, ,956.9,162.7,-203.2,-2,-2.3,0.4,25,-8.24444,-2.55906,1.81396,-0.155235,0.0826992,0.0236774,
2026_04_21_14_16_51.746,0,27.8,0,1.18,0,0,0,0, ,0,0,0,0,0, ,960,169.1,-206.4,1.3,-0.6,0.4,25,-8.22167,-2.51774,1.86235,-0.160511,0.0826862,0.0240817,
2026_04_21_14_16_51.765,0,27.8,0,1.182,0,0,0,0, ,0,0,0,0,0, ,963.7,168.8,-208.7,-0.9,-3.2,1.1,25,-8.19926,-2.47624,1.91117,-0.165731,0.0826394,0.0244551,
2026_04_21_14_16_51.787,0,27.8,0,1.182,0,0,0,0, ,0,0,0,0,0, ,964.4,167.3,-208.2,-3.6,-1.7,0.3,25,-8.1772,-2.43457,1.96038,-0.170895,0.0825574,0.0247987,
2026_04_21_14_16_51.804,0,27.7,0,1.182,0,0,0,0, ,0,0,0,0,0, ,963,167.2,-205.2,0,-0.5,0,25,-8.1555,-2.39273,2.00997,-0.176001,0.0824387,0.0251133,
2026_04_21_14_16_51.824,0,27.8,0,1.182,0,0,0,0, ,0,0,0,0,0, ,962,169,-212.2,-1.4,-0.4,0.1,25,-8.13415,-2.35073,2.05991,-0.181049,0.0822816,0.0254001,
2026_04_21_14_16_51.845,0,27.7,0,1.182,0,0,0,0, ,0,0,0,0,0, ,956.9,165.6,-209.2,0.3,-1.2,0.6,25,-8.11316,-2.30856,2.11017,-0.186037,0.0820845,0.02566,
2026_04_21_14_16_51.864,0,27.8,0,1.182,0,0,0,0, ,0,0,0,0,0, ,959.5,172.9,-214.8,-1.9,1.7,-0.1,25,-8.09251,-2.26624,2.16074,-0.190966,0.0818459,0.0258939,
2026_04_21_14_16_51.884,0,27.8,0,1.182,0,0,0,0, ,0,0,0,0,0, ,966.5,172.2,-195.9,-3.7,0,0.1,25,-8.07221,-2.22376,2.21157,-0.195832,0.0815645,0.0261029,
2026_04_21_14_16_51.911,0,27.8,0,1.182,0,0,0,0, ,0,0,0,0,0, ,959.4,164.7,-199.5,2.4,-1.6,0.7,25,-8.05224,-2.18112,2.26264,-0.200637,0.0812395,0.0262879,
2026_04_21_14_16_51.924,0,27.8,0,1.182,0,0,0,0, ,0,0,0,0,0, ,946.1,159.7,-218.1,-0.2,-1.5,0.8,25,-8.03262,-2.13832,2.31393,-0.205378,0.0808702,0.0264498,
2026_04_21_14_16_51.944,0,27.8,0,1.182,0,0,0,0, ,0,0,0,0,0, ,954.9,164.4,-212.1,-0.8,1.9,0.6,25,-8.01333,-2.09536,2.36541,-0.210054,0.0804562,0.0265896,
2026_04_21_14_16_51.964,0,27.8,0,1.182,0,0,0,0, ,0,0,0,0,0, ,967.6,155.7,-197.5,-4.4,0.4,0.5,25,-7.99437,-2.05224,2.41705,-0.214664,0.0799968,0.0267083,
2026_04_21_14_16_51.983,0,27.8,0,1.18,0,0,0,0, ,0,0,0,0,0, ,957.5,156.3,-196.2,-1.1,-2.7,0.1,25,-7.97574,-2.00897,2.46882,-0.219207,0.0794921,0.0268071,
2026_04_21_14_16_52.003,0,27.8,0,1.179,0,0,0,0, ,0,0,0,0,0, ,960.8,168.4,-216.3,2.3,-0.6,0,25,-7.95744,-1.96554,2.52069,-0.223681,0.0789421,0.0268872,
2026_04_21_14_16_52.023,0,27.8,0,1.183,0,0,0,0, ,0,0,0,0,0, ,961.3,171.1,-212.2,-2.6,-1.1,-0.1,25,-7.93947,-1.92197,2.57265,-0.228086,0.0783468,0.0269497,
2026_04_21_14_16_52.045,0,27.8,0,1.18,0,0,0,0, ,0,0,0,0,0, ,958.8,170.1,-202,-4.1,-0.2,-0.4,25,-7.92182,-1.87826,2.62465,-0.23242,0.0777062,0.0269956,
2026_04_21_14_16_52.062,0,27.8,0,1.183,0,0,0,0, ,0,0,0,0,0, ,950.3,173.2,-216.3,2.4,0.9,0.5,25,-7.9045,-1.83441,2.67668,-0.236681,0.0770203,0.0270259,
2026_04_21_14_16_52.082,0,27.8,0,1.182,0,0,0,0, ,0,0,0,0,0, ,952,162.2,-215.2,-3.6,0.9,0.9,25,-7.88749,-1.79042,2.72871,-0.24087,0.0762894,0.0270414,
2026_04_21_14_16_52.102,0,27.8,0,1.18,0,0,0,0, ,0,0,0,0,0, ,961.4,163.4,-208.7,-0.3,-1.1,1.2,25,-7.87081,-1.74631,2.7807,-0.244984,0.0755139,0.0270429,
2026_04_21_14_16_52.122,0,27.8,0,1.182,0,0,0,0, ,0,0,0,0,0, ,968.9,166.7,-216.4,1.5,0.5,1.1,25,-7.85444,-1.70208,2.83262,-0.249024,0.0746949,0.0270315,
2026_04_21_14_16_52.142,0,27.9,0,1.182,0,0,0,0, ,0,0,0,0,0, ,966.6,158.9,-190.4,-4.5,-3.7,0.6,25,-7.8384,-1.65772,2.88445,-0.252987,0.0738332,0.0270083,
2026_04_21_14_16_52.170,0,27.8,0,1.182,0,0,0,0, ,0,0,0,0,0, ,961,161.9,-200.4,2.1,-0.8,0,25,-7.82267,-1.61324,2.93615,-0.256874,0.0729297,0.0269746,
2026_04_21_14_16_52.181,0,27.7,0,1.18,0,0,0,0, ,0,0,0,0,0, ,956.4,165.2,-214.7,-2.1,0,-0.5,25,-7.80726,-1.56865,2.98769,-0.260681,0.0719852,0.0269317,
2026_04_21_14_16_52.201,0,27.8,0,1.182,0,0,0,0, ,0,0,0,0,0, ,964.2,169.4,-196.5,-5.5,-1.4,-0.5,25,-7.79216,-1.52395,3.03904,-0.26441,0.0710003,0.026881,
2026_04_21_14_16_52.221,0,27.8,0,1.182,0,0,0,0, ,0,0,0,0,0, ,954.9,170.5,-210,1.6,-0.4,0.3,25,-7.77736,-1.47916,3.09018,-0.268058,0.0699755,0.0268234,
2026_04_21_14_16_52.241,0,27.7,0,1.18,0,0,0,0, ,0,0,0,0,0, ,953.9,170,-223.6,-0.8,0,0.6,25,-7.76287,-1.43427,3.14108,-0.271625,0.0689114,0.0267598,
2026_04_21_14_16_52.261,0,27.8,0,1.182,0,0,0,0, ,0,0,0,0,0, ,959.4,168.4,-209.3,-1.7,1,0.5,25,-7.74868,-1.38929,3.1917,-0.27511,0.0678088,0.0266912,
2026_04_21_14_16_52.281,0,27.8,0,1.183,0,0,0,0, ,0,0,0,0,0, ,962.7,165.5,-201.5,-1.7,-0.4,1,25,-7.73479,-1.34423,3.24203,-0.278513,0.0666686,0.0266184,
2026_04_21_14_16_52.301,0,27.7,0,1.183,0,0,0,0, ,0,0,0,0,0, ,961.6,162.2,-204.3,-0.9,-1,0.7,25,-7.72119,-1.29909,3.29203,-0.281833,0.0654919,0.0265424,
2026_04_21_14_16_52.320,0,27.7,0,1.182,0,0,0,0, ,0,0,0,0,0, ,959.9,160.6,-204.8,1.1,-1.1,0.5,25,-7.70788,-1.25387,3.34167,-0.28507,0.0642801,0.0264641,
2026_04_21_14_16_52.340,0,27.8,0,1.182,0,0,0,0, ,0,0,0,0,0, ,965.8,160.8,-200.8,-2.1,-2.4,0.1,25,-7.69486,-1.20858,3.39092,-0.288222,0.0630344,0.0263848,
2026_04_21_14_16_52.359,0,27.7,0,1.182,0,0,0,0, ,0,0,0,0,0, ,963.5,166.2,-215.3,-1.9,-1.4,-0.1,25,-7.68212,-1.16323,3.43977,-0.29129,0.0617559,0.0263056,
2026_04_21_14_16_52.379,0,27.6,0,1.182,0,0,0,0, ,0,0,0,0,0, ,950.3,162.8,-213,-1.8,1,-0.5,25,-7.66966,-1.11781,3.48818,-0.294273,0.0604454,0.0262274,
2026_04_21_14_16_52.399,0,27.7,0,1.182,0,0,0,0, ,0,0,0,0,0, ,952.1,163.3,-199,-1.2,-2.2,0.1,25,-7.65748,-1.07235,3.53613,-0.297169,0.0591037,0.0261513,
2026_04_21_14_16_52.419,0,27.7,0,1.18,0,0,0,0, ,0,0,0,0,0, ,959.1,165.7,-205.6,-0.9,-3,0.8,25,-7.64556,-1.02685,3.58359,-0.299979,0.0577315,0.0260779,
2026_04_21_14_16_52.439,0,27.6,0,1.18,0,0,0,0, ,0,0,0,0,0, ,958.3,169,-217,-0.3,1.4,0.2,25,-7.63391,-0.981322,3.63053,-0.302702,0.0563294,0.0260081,
2026_04_21_14_16_52.458,0,27.7,0,1.18,0,0,0,0, ,0,0,0,0,0, ,958.4,161.8,-195.3,-4.9,-2.9,0.8,25,-7.62252,-0.935767,3.67694,-0.305339,0.054898,0.0259425,
2026_04_21_14_16_52.478,0,27.7,0,1.179,0,0,0,0, ,0,0,0,0,0, ,956.7,166,-214.2,4,-0.6,0.8,25,-7.61139,-0.890197,3.72279,-0.307888,0.0534375,0.0258818,
2026_04_21_14_16_52.498,0,27.7,0,1.185,0,0,0,0, ,0,0,0,0,0, ,963.7,168.4,-224.9,0.4,0.1,0.8,25,-7.60052,-0.844623,3.76806,-0.31035,0.0519483,0.0258269,
2026_04_21_14_16_52.518,0,27.7,0,1.182,0,0,0,0, ,0,0,0,0,0, ,965.6,164,-203.8,-7.9,-3.2,0.3,25,-7.58991,-0.799052,3.81271,-0.312725,0.0504307,0.0257788,
2026_04_21_14_16_52.544,0,27.7,0,1.182,0,0,0,0, ,0,0,0,0,0, ,961,170.7,-217.8,5.7,0.7,0.5,25,-7.57956,-0.753493,3.85674,-0.315011,0.048885,0.0257383,
2026_04_21_14_16_52.558,0,27.7,0,1.18,0,0,0,0, ,0,0,0,0,0, ,943.6,160.8,-214.5,-0.5,-0.9,0.7,25,-7.56945,-0.707955,3.9001,-0.317209,0.0473113,0.0257064,
2026_04_21_14_16_52.577,0,27.7,0,1.182,0,0,0,0, ,0,0,0,0,0, ,948.4,161,-195.3,-3.9,-0.3,1,25,-7.5596,-0.662446,3.94277,-0.319318,0.0457099,0.0256842,
2026_04_21_14_16_52.597,0,27.6,0,1.183,0,0,0,0, ,0,0,0,0,0, ,972.7,169.7,-195.9,0,0,0.7,25,-7.54999,-0.616976,3.98473,-0.321336,0.0440811,0.0256726,
2026_04_21_14_16_52.617,0,27.6,0,1.182,0,0,0,0, ,0,0,0,0,0, ,965.5,171.6,-212.8,-1.7,-0.1,0.4,25,-7.54063,-0.571552,4.02596,-0.323265,0.0424255,0.0256729,
2026_04_21_14_16_52.637,0,27.6,0,1.182,0,0,0,0, ,0,0,0,0,0, ,958.1,166.5,-201.7,0.1,0,0.9,25,-7.53151,-0.526184,4.06642,-0.325103,0.0407438,0.0256862,
2026_04_21_14_16_52.668,0,27.6,0,1.18,0,0,0,0, ,0,0,0,0,0, ,955,160.8,-198.4,0.7,-0.3,1,25,-7.52264,-0.48088,4.1061,-0.326849,0.0390369,0.0257138,
2026_04_21_14_16_52.677,0,27.6,0,1.182,0,0,0,0, ,0,0,0,0,0, ,967.5,161.6,-199.9,-4.7,-2.3,0.6,25,-7.51401,-0.435647,4.14499,-0.328503,0.0373057,0.0257568,
2026_04_21_14_16_52.697,0,27.6,0,1.182,0,0,0,0, ,0,0,0,0,0, ,966.6,166.6,-215.6,-0.3,-0.1,0,25,-7.50561,-0.390495,4.18306,-0.330065,0.0355513,0.0258166,
2026_04_21_14_16_52.716,0,27.7,0,1.182,0,0,0,0, ,0,0,0,0,0, ,955,164.7,-211.6,-2.2,-0.9,-0.1,25,-7.49744,-0.345431,4.2203,-0.331534,0.0337747,0.0258945,
2026_04_21_14_16_52.736,0,27.6,0,1.182,0,0,0,0, ,0,0,0,0,0, ,959.1,168.7,-203.2,0.5,-2,0.4,25,-7.4895,-0.300465,4.25669,-0.33291,0.0319768,0.0259916,
2026_04_21_14_16_52.756,0,27.7,0,1.18,0,0,0,0, ,0,0,0,0,0, ,963.8,171.1,-219.1,-0.2,-0.3,0.2,25,-7.48179,-0.255606,4.29223,-0.334194,0.0301584,0.0261091,
2026_04_21_14_16_52.776,0,27.6,0,1.182,0,0,0,0, ,0,0,0,0,0, ,959.7,166.6,-211.9,-4,-1,0,25,-7.47428,-0.210863,4.32689,-0.335385,0.0283203,0.0262479,
2026_04_21_14_16_52.796,0,27.6,0,1.179,0,0,0,0, ,0,0,0,0,0, ,942.5,165.4,-214.8,0.6,1.6,1,25,-7.46699,-0.166243,4.36066,-0.336483,0.0264633,0.0264089,
2026_04_21_14_16_52.816,0,27.6,0,1.182,0,0,0,0, ,0,0,0,0,0, ,962.5,161.7,-197.7,1.5,1.1,1.5,25,-7.4599,-0.121753,4.39352,-0.337488,0.0245883,0.0265929,
2026_04_21_14_16_52.836,0,27.7,0,1.182,0,0,0,0, ,0,0,0,0,0, ,963.7,155.3,-210.8,-3.8,1.4,0.6,25,-7.45301,-0.0774007,4.42546,-0.338401,0.0226965,0.0268008,
2026_04_21_14_16_52.855,0,27.6,0,1.182,0,0,0,0, ,0,0,0,0,0, ,963.8,153.3,-207.2,-4.7,0,0,25,-7.44633,-0.0331949,4.45646,-0.339221,0.0207898,0.0270336,
2026_04_21_14_16_52.874,0,27.6,0,1.18,0,0,0,0, ,0,0,0,0,0, ,963.8,162.2,-192.3,3.3,-3,0,25,-7.43983,0.0108537,4.4865,-0.339949,0.0188702,0.0272923,
2026_04_21_14_16_52.894,0,27.6,0,1.182,0,0,0,0, ,0,0,0,0,0, ,958,169.7,-215.5,0.1,-2.6,0.3,25,-7.43353,0.0547324,4.51558,-0.340585,0.0169398,0.0275779,
2026_04_21_14_16_52.920,0,27.6,0,1.18,0,0,0,0, ,0,0,0,0,0, ,959.9,168.2,-210.6,-2.7,0.4,-0.6,25,-7.4274,0.0984279,4.54368,-0.34113,0.0150003,0.027891,
2026_04_21_14_16_52.934,0,27.6,0,1.182,0,0,0,0, ,0,0,0,0,0, ,952,171.3,-197.7,-3.1,-1.4,0.7,25,-7.42146,0.141927,4.57079,-0.341583,0.0130533,0.0282324,
2026_04_21_14_16_52.954,0,27.5,0,1.182,0,0,0,0, ,0,0,0,0,0, ,954.5,167.1,-213.5,1.2,3.4,1,25,-7.41569,0.185219,4.59691,-0.341946,0.0111001,0.0286025,
2026_04_21_14_16_52.974,0,27.5,0,1.183,0,0,0,0, ,0,0,0,0,0, ,965.8,165.2,-202.6,-0.3,0,0.9,25,-7.41009,0.228293,4.62202,-0.342219,0.00914242,0.0290019,
2026_04_21_14_16_52.994,0,27.6,0,1.183,0,0,0,0, ,0,0,0,0,0, ,959.9,160.5,-213.7,-1.7,-0.4,1.5,25,-7.40465,0.27114,4.64612,-0.342402,0.00718219,0.029431,
2026_04_21_14_16_53.013,0,27.5,0,1.183,0,0,0,0, ,0,0,0,0,0, ,965.9,154.6,-199.7,-3,-1.3,0.8,25,-7.39937,0.313748,4.6692,-0.342496,0.00522169,0.0298905,
2026_04_21_14_16_53.043,0,27.5,0,1.182,0,0,0,0, ,0,0,0,0,0, ,970.5,160.2,-198.2,2.9,-2.2,0.5,25,-7.39424,0.356108,4.69125,-0.342502,0.00326317,0.0303812,
2026_04_21_14_16_53.053,0,27.5,0,1.18,0,0,0,0, ,0,0,0,0,0, ,958.1,161.4,-214.4,-1,-2.5,0,25,-7.38927,0.398207,4.71228,-0.342419,0.00130866,0.030904,
2026_04_21_14_16_53.073,0,27.5,0,1.182,0,0,0,0, ,0,0,0,0,0, ,956.6,160.2,-205.5,-4.7,-2,-0.4,25,-7.38443,0.440031,4.73227,-0.342248,-0.000640232,0.0314596,
2026_04_21_14_16_53.093,0,27.5,0,1.18,0,0,0,0, ,0,0,0,0,0, ,965.6,173.2,-210.8,1.7,-1.8,0.1,25,-7.37973,0.481565,4.75122,-0.341991,-0.0025823,0.0320487,
2026_04_21_14_16_53.113,0,27.5,0,1.182,0,0,0,0, ,0,0,0,0,0, ,960.8,176.7,-228.2,-1,-0.6,0.5,25,-7.37515,0.522796,4.76914,-0.341646,-0.00451672,0.0326717,
2026_04_21_14_16_53.133,0,27.3,0,1.18,0,0,0,0, ,0,0,0,0,0, ,954.7,166,-213.3,-3,0.9,0.5,25,-7.37068,0.563712,4.78601,-0.341216,-0.00644287,0.0333289,
2026_04_21_14_16_53.152,0,27.3,0,1.183,0,0,0,0, ,0,0,0,0,0, ,959.9,159.1,-201.2,-0.2,-2,1.2,25,-7.36632,0.604301,4.80184,-0.3407,-0.00836011,0.0340206,
2026_04_21_14_16_53.173,0,27.5,0,1.182,0,0,0,0, ,0,0,0,0,0, ,962.4,161.6,-212.4,2.4,-0.5,1.2,25,-7.36206,0.644553,4.81661,-0.340099,-0.0102678,0.0347472,
2026_04_21_14_16_53.192,0,27.3,0,1.18,0,0,0,0, ,0,0,0,0,0, ,966.1,156.7,-195.5,-2.5,-0.6,0.5,25,-7.3579,0.68446,4.83032,-0.339415,-0.0121652,0.0355089,
2026_04_21_14_16_53.212,0,27.3,0,1.182,0,0,0,0, ,0,0,0,0,0, ,965.2,158.3,-192.6,-0.5,-2.5,0.1,25,-7.35381,0.724008,4.84297,-0.338646,-0.0140517,0.0363063,
2026_04_21_14_16_53.231,0,27.3,0,1.183,0,0,0,0, ,0,0,0,0,0, ,953,159.9,-221.3,0,-0.9,0.1,25,-7.3498,0.763185,4.85456,-0.337795,-0.0159269,0.0371397,
2026_04_21_14_16_53.252,0,27.5,0,1.182,0,0,0,0, ,0,0,0,0,0, ,948.7,158.2,-216.9,-1.4,-1.1,0.5,25,-7.34585,0.801978,4.86508,-0.336861,-0.0177905,0.0380095,
2026_04_21_14_16_53.271,0,27.3,0,1.182,0,0,0,0, ,0,0,0,0,0, ,955.6,162.8,-211.4,-0.7,-0.3,0.8,25,-7.34196,0.840372,4.87453,-0.335844,-0.0196423,0.038916,
2026_04_21_14_16_53.294,0,27.3,0,1.183,0,0,0,0, ,0,0,0,0,0, ,966.7,165.5,-206.2,-2.5,0.5,0.6,25,-7.33812,0.878351,4.88292,-0.334746,-0.0214822,0.0398594,
2026_04_21_14_16_53.311,0,27.3,0,1.182,0,0,0,0, ,0,0,0,0,0, ,965.4,166.5,-198.8,-2.4,1.4,0.2,25,-7.33433,0.9159,4.89025,-0.333565,-0.0233098,0.0408397,
2026_04_21_14_16_53.331,0,27.3,0,1.179,0,0,0,0, ,0,0,0,0,0, ,958.9,160,-201,-0.1,-2.8,1.1,25,-7.33057,0.953004,4.8965,-0.332304,-0.0251247,0.0418574,
2026_04_21_14_16_53.350,0,27.3,0,1.181,0,0,0,0, ,0,0,0,0,0, ,963.8,166.3,-212,1.6,-0.3,0.5,25,-7.32684,0.989648,4.9017,-0.330964,-0.0269262,0.0429123,
2026_04_21_14_16_53.370,0,27.3,0,1.18,0,0,0,0, ,0,0,0,0,0, ,965.8,166.2,-203.3,-1.6,-1.5,0.7,25,-7.32315,1.02582,4.90583,-0.329544,-0.0287137,0.0440049,
2026_04_21_14_16_53.390,0,27.3,0,1.182,0,0,0,0, ,0,0,0,0,0, ,965.6,160,-199.2,-3.5,-3.2,0.5,25,-7.31946,1.0615,4.9089,-0.328047,-0.0304866,0.0451351,
2026_04_21_14_16_53.423,0,27.3,0,1.182,0,0,0,0, ,0,0,0,0,0, ,956.2,156.6,-211.4,0.9,-1,0.3,25,-7.31579,1.09669,4.91092,-0.326472,-0.0322448,0.0463032,
2026_04_21_14_16_53.430,0,27.3,0,1.182,0,0,0,0, ,0,0,0,0,0, ,962.8,157.5,-197.2,-0.3,-2,0,25,-7.31211,1.13136,4.9119,-0.324822,-0.0339884,0.0475093,
2026_04_21_14_16_53.450,0,27.3,0,1.182,0,0,0,0, ,0,0,0,0,0, ,964.7,160.7,-196.8,-3.5,-1.2,-0.7,25,-7.30842,1.1655,4.91185,-0.323096,-0.0357176,0.0487533,
2026_04_21_14_16_53.470,0,27.3,0,1.185,0,0,0,0, ,0,0,0,0,0, ,957.8,154,-200.4,-3.6,-3.9,-0.5,25,-7.30472,1.1991,4.91078,-0.321296,-0.0374332,0.0500351,
2026_04_21_14_16_53.489,0,27.3,0,1.181,0,0,0,0, ,0,0,0,0,0, ,953.3,167.2,-221.9,5.7,-2.9,0,25,-7.30098,1.23215,4.90869,-0.319424,-0.039136,0.0513542,
2026_04_21_14_16_53.508,0,27.2,0,1.182,0,0,0,0, ,0,0,0,0,0, ,954.7,161.8,-224.2,4.5,3.1,0.6,25,-7.29721,1.26461,4.90561,-0.31748,-0.0408272,0.05271,
2026_04_21_14_16_53.528,0,27.3,0,1.182,0,0,0,0, ,0,0,0,0,0, ,968,174.1,-211,2.9,-1.8,2.1,25,-7.29339,1.29649,4.90154,-0.315465,-0.0425081,0.0541016,
2026_04_21_14_16_53.560,0,27.2,0,1.182,0,0,0,0, ,0,0,0,0,0, ,953.6,166.7,-155,-2.9,-1.7,1.7,25,-7.28951,1.32776,4.8965,-0.31338,-0.04418,0.0555284,
2026_04_21_14_16_53.568,0,27.3,0,1.182,0,0,0,0, ,0,0,0,0,0, ,974.2,171.3,-187.1,-0.3,-1.6,0.8,25,-7.28558,1.35842,4.8905,-0.311221,-0.0458438,0.05699,
2026_04_21_14_16_53.588,0,27.3,0,1.181,0,0,0,0, ,0,0,0,0,0, ,972.2,173.9,-216,-0.7,-1.5,0.1,25,-7.28159,1.38845,4.88355,-0.30899,-0.0475006,0.058486,
2026_04_21_14_16_53.608,0,27.2,0,1.182,0,0,0,0, ,0,0,0,0,0, ,956.4,162.5,-207.5,-3.4,1,0.1,25,-7.27751,1.41784,4.87569,-0.306683,-0.0491517,0.0600164,
2026_04_21_14_16_53.628,0,27.2,0,1.183,0,0,0,0, ,0,0,0,0,0, ,953.9,157.3,-198.9,-2,0.4,0,25,-7.27336,1.44659,4.86693,-0.304302,-0.050798,0.0615808,
2026_04_21_14_16_53.647,0,27.3,0,1.182,0,0,0,0, ,0,0,0,0,0, ,952,162.7,-206.1,1,-3.3,1,25,-7.26911,1.47469,4.8573,-0.301846,-0.0524406,0.0631789,
2026_04_21_14_16_53.667,0,27.2,0,1.181,0,0,0,0, ,0,0,0,0,0, ,959.7,163.4,-225.9,0.4,-0.1,0.8,25,-7.26476,1.50214,4.84683,-0.299314,-0.05408,0.0648103,
2026_04_21_14_16_53.692,0,27.2,0,1.181,0,0,0,0, ,0,0,0,0,0, ,964.7,163.8,-217.7,-2.4,1.1,0.3,25,-7.2603,1.52893,4.83553,-0.296708,-0.055717,0.0664745,
2026_04_21_14_16_53.707,0,27.3,0,1.181,0,0,0,0, ,0,0,0,0,0, ,953.7,157.2,-207.3,-0.2,-0.4,0.7,25,-7.25573,1.55505,4.82343,-0.294026,-0.0573521,0.0681712,
2026_04_21_14_16_53.727,0,27.2,0,1.182,0,0,0,0, ,0,0,0,0,0, ,962.5,158.3,-214.7,0.3,-0.9,1,25,-7.25104,1.58051,4.81054,-0.29127,-0.0589858,0.0698999,
2026_04_21_14_16_53.747,0,27.3,0,1.182,0,0,0,0, ,0,0,0,0,0, ,965.4,160.2,-213.5,-1.6,-0.1,0.2,25,-7.24622,1.60528,4.79688,-0.288438,-0.0606181,0.0716602,
2026_04_21_14_16_53.767,0,27.2,0,1.182,0,0,0,0, ,0,0,0,0,0, ,955.9,156.1,-196.2,-4.9,-2.8,0,25,-7.24128,1.62938,4.78247,-0.285533,-0.0622489,0.0734517,
2026_04_21_14_16_53.786,0,27.2,0,1.18,0,0,0,0, ,0,0,0,0,0, ,960,166.2,-213,2.1,-1.2,0,25,-7.2362,1.65278,4.76733,-0.282554,-0.0638783,0.0752739,
2026_04_21_14_16_53.815,0,27.3,0,1.181,0,0,0,0, ,0,0,0,0,0, ,956.6,166.2,-220.8,-0.3,-0.7,0.3,25,-7.23099,1.67547,4.75145,-0.279501,-0.0655065,0.0771264,
2026_04_21_14_16_53.826,0,27.3,0,1.183,0,0,0,0, ,0,0,0,0,0, ,954.7,164.7,-213.9,-3.9,-0.8,0.3,25,-7.22564,1.69747,4.73487,-0.276377,-0.0671338,0.0790082,
2026_04_21_14_16_53.846,0,27.2,0,1.182,0,0,0,0, ,0,0,0,0,0, ,955.4,166.3,-220.8,-0.1,0.2,0.9,25,-7.22014,1.71874,4.71759,-0.273183,-0.0687603,0.0809187,
2026_04_21_14_16_53.865,0,27.3,0,1.182,0,0,0,0, ,0,0,0,0,0, ,964.5,163.5,-217.6,-1.3,0.8,0.8,25,-7.2145,1.7393,4.69962,-0.269919,-0.0703863,0.0828571,
2026_04_21_14_16_53.885,0,27.2,0,1.182,0,0,0,0, ,0,0,0,0,0, ,965.3,159,-205.9,-1.6,0,0.4,25,-7.20872,1.75913,4.68098,-0.266587,-0.0720115,0.0848225,
2026_04_21_14_16_53.905,0,27.2,0,1.182,0,0,0,0, ,0,0,0,0,0, ,966,156.9,-202.6,-2,-1.6,0,25,-7.20279,1.77824,4.66165,-0.26319,-0.0736356,0.0868141,
2026_04_21_14_16_53.933,0,27.2,0,1.181,0,0,0,0, ,0,0,0,0,0, ,965.5,158.3,-209.8,0.5,-2.9,0,25,-7.19671,1.79661,4.64166,-0.259728,-0.0752579,0.0888313,
2026_04_21_14_16_53.945,0,27.1,0,1.181,0,0,0,0, ,0,0,0,0,0, ,955,163.3,-224.3,1.7,-1.6,-0.1,25,-7.19048,1.81425,4.62101,-0.256204,-0.0768781,0.090873,
2026_04_21_14_16_53.965,0,27.2,0,1.18,0,0,0,0, ,0,0,0,0,0, ,953.9,163.3,-220.8,-4.6,-0.3,-0.3,25,-7.18409,1.83115,4.5997,-0.25262,-0.0784961,0.0929383,
2026_04_21_14_16_53.985,0,27.1,0,1.182,0,0,0,0, ,0,0,0,0,0, ,958.1,162.5,-217.5,-3.7,-0.7,0.1,25,-7.17755,1.8473,4.57774,-0.248978,-0.0801118,0.0950259,
2026_04_21_14_16_54.004,0,27.1,0,1.184,0,0,0,0, ,0,0,0,0,0, ,953.7,163.9,-218.1,2.2,-0.2,0.7,25,-7.17084,1.8627,4.55513,-0.24528,-0.0817252,0.0971345,
2026_04_21_14_16_54.024,0,27.1,0,1.181,0,0,0,0, ,0,0,0,0,0, ,952.5,159.3,-212.6,-0.7,-1.3,1,25,-7.16398,1.87735,4.53187,-0.241528,-0.0833363,0.0992628,
2026_04_21_14_16_54.044,0,27.1,0,1.184,0,0,0,0, ,0,0,0,0,0, ,965.2,156.1,-213.1,-2.9,0,0.4,25,-7.15697,1.89124,4.50796,-0.237726,-0.0849449,0.101409,
2026_04_21_14_16_54.063,0,27.2,0,1.182,0,0,0,0, ,0,0,0,0,0, ,967.2,156.3,-200.8,-0.6,-1.9,0,25,-7.14979,1.90436,4.4834,-0.233874,-0.0865507,0.103573,
2026_04_21_14_16_54.083,0,27.1,0,1.181,0,0,0,0, ,0,0,0,0,0, ,960.4,161.6,-221.5,1.7,-1.1,-0.2,25,-7.14247,1.91672,4.45819,-0.229977,-0.0881534,0.105752,
2026_04_21_14_16_54.103,0,27.1,0,1.182,0,0,0,0, ,0,0,0,0,0, ,949.7,163,-223.2,-3.6,0,-0.6,25,-7.13499,1.92832,4.43232,-0.226037,-0.089753,0.107946,
2026_04_21_14_16_54.123,0,27.1,0,1.182,0,0,0,0, ,0,0,0,0,0, ,951.5,160.4,-201,-4.5,1.3,-0.2,25,-7.12736,1.93913,4.40579,-0.222055,-0.091349,0.110152,
2026_04_21_14_16_54.143,0,27.2,0,1.182,0,0,0,0, ,0,0,0,0,0, ,958.7,163,-215.8,0.4,-1.4,0.8,25,-7.11958,1.94917,4.37861,-0.218035,-0.0929412,0.112369,
2026_04_21_14_16_54.162,0,27.1,0,1.18,0,0,0,0, ,0,0,0,0,0, ,958.6,168,-218.8,0,-1.2,0.6,25,-7.11166,1.95843,4.35076,-0.213981,-0.0945288,0.114596,
2026_04_21_14_16_54.186,0,27.2,0,1.181,0,0,0,0, ,0,0,0,0,0, ,966.9,163.8,-213,-1.9,-1.5,0.5,25,-7.1036,1.9669,4.32225,-0.209895,-0.0961112,0.116831,
2026_04_21_14_16_54.202,0,27.2,0,1.182,0,0,0,0, ,0,0,0,0,0, ,973.1,166.7,-214.8,-0.4,-0.8,0.1,25,-7.09541,1.97458,4.29307,-0.20578,-0.0976878,0.119071,
2026_04_21_14_16_54.222,0,27.1,0,1.182,0,0,0,0, ,0,0,0,0,0, ,956.7,157.7,-209.5,-0.8,-0.3,0,25,-7.08709,1.98148,4.26322,-0.20164,-0.099258,0.121316,
2026_04_21_14_16_54.242,0,27.2,0,1.18,0,0,0,0, ,0,0,0,0,0, ,952.2,156.4,-202.5,-3.3,-1.3,-0.3,25,-7.07864,1.98759,4.2327,-0.197478,-0.100821,0.123563,
2026_04_21_14_16_54.262,0,27.3,0,1.182,0,0,0,0, ,0,0,0,0,0, ,958,155.6,-197.3,-2.4,-2.6,0,25,-7.07007,1.99293,4.2015,-0.193296,-0.102377,0.125811,
2026_04_21_14_16_54.282,0,27.1,0,1.181,0,0,0,0, ,0,0,0,0,0, ,961.3,162.9,-218.9,1.9,-1.9,-0.1,25,-7.06137,1.99747,4.16963,-0.189099,-0.103926,0.128058,
2026_04_21_14_16_54.310,0,27.3,0,1.179,0,0,0,0, ,0,0,0,0,0, ,949.5,168.3,-230.1,-3.2,-1,-0.1,25,-7.05254,2.00123,4.13708,-0.184891,-0.105466,0.130303,
2026_04_21_14_16_54.321,0,27.2,0,1.182,0,0,0,0, ,0,0,0,0,0, ,957,165.1,-207.7,-4.3,0.3,0,25,-7.04361,2.00421,4.10387,-0.180673,-0.106999,0.132542,
2026_04_21_14_16_54.342,0,27.2,0,1.179,0,0,0,0, ,0,0,0,0,0, ,958.3,163.2,-208.8,-2.4,-2.3,0.5,25,-7.03456,2.00641,4.06998,-0.176451,-0.108524,0.134775,
2026_04_21_14_16_54.361,0,27.2,0,1.18,0,0,0,0, ,0,0,0,0,0, ,964.7,161.9,-211.4,0.5,-0.8,0.4,25,-7.02541,2.00783,4.03543,-0.172227,-0.110042,0.136999,
2026_04_21_14_16_54.381,0,27.2,0,1.183,0,0,0,0, ,0,0,0,0,0, ,966.9,163,-209.2,-2.3,-2.8,0.2,25,-7.01616,2.00847,4.0002,-0.168008,-0.111552,0.139212,
2026_04_21_14_16_54.401,0,27.1,0,1.183,0,0,0,0, ,0,0,0,0,0, ,962,166.9,-218,-1.9,-1.1,-0.3,25,-7.00682,2.00834,3.96431,-0.163796,-0.113055,0.141412,
2026_04_21_14_16_54.421,0,27.3,0,1.182,0,0,0,0, ,0,0,0,0,0, ,959.3,164.3,-217.8,-0.6,-2,-0.1,25,-6.99739,2.00745,3.92776,-0.159596,-0.114552,0.143597,
2026_04_21_14_16_54.440,0,27.2,0,1.183,0,0,0,0, ,0,0,0,0,0, ,958.3,171.3,-222.7,-1.8,-1.5,0,25,-6.98787,2.00581,3.89055,-0.155413,-0.116043,0.145766,
2026_04_21_14_16_54.459,0,27.5,0,1.182,0,0,0,0, ,0,0,0,0,0, ,956.9,167.2,-218.7,-0.9,-0.4,0.2,25,-6.97827,2.00341,3.85267,-0.151251,-0.117529,0.147915,
2026_04_21_14_16_54.479,0,27.2,0,1.181,0,0,0,0, ,0,0,0,0,0, ,947.7,166.8,-218.3,-1.7,-2.5,0.9,25,-6.96858,2.00027,3.81413,-0.147113,-0.119011,0.150044,
2026_04_21_14_16_54.499,0,27.3,0,1.179,0,0,0,0, ,0,0,0,0,0, ,959.4,165.8,-225.5,1.6,1.3,0.9,25,-6.95883,1.99641,3.77493,-0.143004,-0.120489,0.15215,
2026_04_21_14_16_54.519,0,27.2,0,1.182,0,0,0,0, ,0,0,0,0,0, ,960.5,155.7,-215.4,-1.3,-0.7,1,25,-6.949,1.99183,3.73506,-0.138928,-0.121965,0.154232,
2026_04_21_14_16_54.539,0,27.2,0,1.182,0,0,0,0, ,0,0,0,0,0, ,958.2,154.1,-207,-2.6,-1.5,0.7,25,-6.93911,1.98655,3.69452,-0.134888,-0.123438,0.156287,
2026_04_21_14_16_54.561,0,27.2,0,1.181,0,0,0,0, ,0,0,0,0,0, ,966.4,159.3,-207.3,-0.5,-1.1,0.4,25,-6.92916,1.98058,3.6533,-0.130887,-0.124911,0.158315,
2026_04_21_14_16_54.579,0,27.2,0,1.181,0,0,0,0, ,0,0,0,0,0, ,966.4,164.1,-206,-3.4,-1.5,-0.6,25,-6.91917,1.97394,3.61141,-0.12693,-0.126382,0.160314,
2026_04_21_14_16_54.599,0,27.3,0,1.182,0,0,0,0, ,0,0,0,0,0, ,951.9,162.1,-214.1,-1,-2,-0.6,25,-6.90912,1.96663,3.56884,-0.123019,-0.127852,0.162283,
2026_04_21_14_16_54.618,0,27.2,0,1.181,0,0,0,0, ,0,0,0,0,0, ,954.5,169,-230.8,0.3,-0.4,-0.3,25,-6.89904,1.95866,3.52559,-0.119157,-0.129322,0.164221,
2026_04_21_14_16_54.638,0,27.2,0,1.182,0,0,0,0, ,0,0,0,0,0, ,951.6,164.9,-219.7,-3.6,-1.9,0.3,25,-6.88892,1.95005,3.48167,-0.115349,-0.130792,0.166125,
2026_04_21_14_16_54.658,0,27.1,0,1.179,0,0,0,0, ,0,0,0,0,0, ,958.4,175.2,-223.7,0.6,1.2,0.3,25,-6.87876,1.94081,3.43707,-0.111598,-0.132264,0.167995,
2026_04_21_14_16_54.682,0,27.1,0,1.181,0,0,0,0, ,0,0,0,0,0, ,955.4,166.6,-209.9,-0.7,-0.2,1,25,-6.86858,1.93095,3.3918,-0.107907,-0.133736,0.169829,
2026_04_21_14_16_54.698,0,27.2,0,1.181,0,0,0,0, ,0,0,0,0,0, ,950.9,158.3,-216.7,-3.3,-0.5,1,25,-6.85839,1.92049,3.34584,-0.104279,-0.13521,0.171626,
2026_04_21_14_16_54.718,0,27.2,0,1.182,0,0,0,0, ,0,0,0,0,0, ,967.5,162.8,-212.5,0.4,-0.3,0.4,25,-6.84818,1.90945,3.2992,-0.100717,-0.136686,0.173384,
2026_04_21_14_16_54.738,0,27.2,0,1.183,0,0,0,0, ,0,0,0,0,0, ,970.3,166.2,-212.5,0.4,-1,0,25,-6.83798,1.89784,3.25188,-0.0972234,-0.138163,0.175102,
2026_04_21_14_16_54.758,0,27.2,0,1.18,0,0,0,0, ,0,0,0,0,0, ,956.5,159.7,-207.2,-3.8,-3.4,0,25,-6.82779,1.88569,3.20387,-0.0938021,-0.139641,0.17678,
2026_04_21_14_16_54.777,0,27.2,0,1.182,0,0,0,0, ,0,0,0,0,0, ,948.2,165.1,-223.8,0.8,0.3,0.1,25,-6.81761,1.873,3.15518,-0.090455,-0.141119,0.178415,
2026_04_21_14_16_54.810,0,27.3,0,1.185,0,0,0,0, ,0,0,0,0,0, ,955.4,165.7,-212.2,-3.3,-0.8,0,25,-6.80745,1.8598,3.10581,-0.0871846,-0.142597,0.180008,
2026_04_21_14_16_54.816,0,27.2,0,1.181,0,0,0,0, ,0,0,0,0,0, ,964.5,168,-215.5,-2.1,-1.5,0.3,25,-6.79731,1.84611,3.05576,-0.0839934,-0.144076,0.181558,
2026_04_21_14_16_54.836,0,27.3,0,1.182,0,0,0,0, ,0,0,0,0,0, ,964.8,171.2,-225.5,1.5,-0.2,0.5,25,-6.78721,1.83194,3.00504,-0.0808838,-0.145554,0.183063,
2026_04_21_14_16_54.856,0,27.2,0,1.181,0,0,0,0, ,0,0,0,0,0, ,957.2,162.7,-217.2,0.2,0.5,0.6,25,-6.77716,1.81731,2.95364,-0.0778583,-0.147033,0.184522,
2026_04_21_14_16_54.876,0,27.3,0,1.181,0,0,0,0, ,0,0,0,0,0, ,965.3,164.5,-208.4,-4.6,-0.6,0.1,25,-6.76714,1.80225,2.90156,-0.0749188,-0.14851,0.185935,
2026_04_21_14_16_54.896,0,27.3,0,1.183,0,0,0,0, ,0,0,0,0,0, ,958,167.2,-200.1,-2,-0.8,0.1,25,-6.75719,1.78677,2.84882,-0.0720672,-0.149986,0.1873,
2026_04_21_14_16_54.916,0,27.3,0,1.183,0,0,0,0, ,0,0,0,0,0, ,953.9,161.6,-212.7,1.5,-0.4,0.7,25,-6.74728,1.7709,2.79542,-0.0693057,-0.15146,0.188618,
2026_04_21_14_16_54.939,0,27.2,0,1.182,0,0,0,0, ,0,0,0,0,0, ,951.5,161.2,-212.5,-2.9,-0.1,0.1,25,-6.73744,1.75466,2.74136,-0.0666361,-0.152931,0.189888,
2026_04_21_14_16_54.956,0,27.5,0,1.181,0,0,0,0, ,0,0,0,0,0, ,949.7,159.4,-210.2,-3.8,-2.3,0.7,25,-6.72766,1.73807,2.68665,-0.0640603,-0.154398,0.191108,
2026_04_21_14_16_54.975,0,27.3,0,1.181,0,0,0,0, ,0,0,0,0,0, ,962.7,168.3,-205.4,1.6,0.1,0.5,25,-6.71795,1.72115,2.63131,-0.0615804,-0.155859,0.192279,
2026_04_21_14_16_54.995,0,27.3,0,1.181,0,0,0,0, ,0,0,0,0,0, ,963,167.1,-215.2,-3.6,-0.2,0.1,25,-6.70832,1.70392,2.57533,-0.0591983,-0.157315,0.1934,
2026_04_21_14_16_55.015,0,27.3,0,1.184,0,0,0,0, ,0,0,0,0,0, ,960.9,167.1,-212.1,-1.1,0,0,25,-6.69878,1.68641,2.51875,-0.0569158,-0.158763,0.19447,
2026_04_21_14_16_56.609,0,27.3,0,1.182,0,0,0,0, ,0,0,0,0,0, ,955,166.7,-218,-1,-1.2,0.6,25,-6.68933,1.66862,2.46158,-0.0547348,-0.160203,0.19549,
2026_04_21_14_16_56.611,0,27.3,0,1.181,0,0,0,0, ,0,0,0,0,0, ,959.9,162.2,-211.4,-2.8,0.8,0.1,25,-6.67998,1.65059,2.40382,-0.0526573,-0.161633,0.196459,
2026_04_21_14_16_56.612,0,27.3,0,1.179,0,0,0,0, ,0,0,0,0,0, ,960.4,159.1,-208.1,1,-0.9,0.5,25,-6.67073,1.63234,2.3455,-0.0506849,-0.163053,0.197377,
2026_04_21_14_16_56.615,0,27.3,0,1.179,0,0,0,0, ,0,0,0,0,0, ,963.1,160.6,-208.6,-3.4,-1.9,0,25,-6.66159,1.61389,2.28663,-0.0488194,-0.164459,0.198244,
2026_04_21_14_16_56.616,0,27.3,0,1.181,0,0,0,0, ,0,0,0,0,0, ,961,168,-214.8,0.1,-1.2,0.1,25,-6.65256,1.59525,2.22724,-0.0470622,-0.165852,0.199059,
2026_04_21_14_16_56.617,0,27.3,0,1.181,0,0,0,0, ,0,0,0,0,0, ,955.2,159.9,-212.6,-3.8,0,-0.3,25,-6.64365,1.57646,2.16733,-0.0454149,-0.167228,0.199823,
2026_04_21_14_16_56.618,0,27.3,0,1.185,0,0,0,0, ,0,0,0,0,0, ,958.2,165.7,-198.9,-2.5,-0.4,-0.4,25,-6.63486,1.55752,2.10694,-0.0438789,-0.168588,0.200534,
2026_04_21_14_16_56.619,0,27.3,0,1.18,0,0,0,0, ,0,0,0,0,0, ,962.4,169.7,-207.3,0.2,-2.1,0.4,25,-6.62619,1.53846,2.04608,-0.0424558,-0.16993,0.201194,
2026_04_21_14_16_56.620,0,27.3,0,1.183,0,0,0,0, ,0,0,0,0,0, ,958.6,168.7,-229.6,-0.7,-1.7,0.9,25,-6.61764,1.51929,1.98477,-0.0411472,-0.171253,0.201801,
2026_04_21_14_16_56.621,0,27.2,0,1.179,0,0,0,0, ,0,0,0,0,0, ,953.2,160.2,-214.1,-3.2,0,0.3,25,-6.60923,1.50005,1.92305,-0.0399545,-0.172554,0.202356,
2026_04_21_14_16_56.623,0,27.3,0,1.182,0,0,0,0, ,0,0,0,0,0, ,956.1,165.6,-209.1,0.1,-2,1.2,25,-6.60094,1.48074,1.86093,-0.038879,-0.173835,0.202857,
2026_04_21_14_16_56.624,0,27.3,0,1.181,0,0,0,0, ,0,0,0,0,0, ,965.8,164.3,-214.8,-0.6,-0.8,0.7,25,-6.59279,1.46139,1.79844,-0.0379218,-0.175092,0.203306,
2026_04_21_14_16_56.626,0,27.3,0,1.182,0,0,0,0, ,0,0,0,0,0, ,965,164.1,-201.9,-3.5,-2.4,0,25,-6.58477,1.44202,1.7356,-0.0370838,-0.176327,0.203703,
2026_04_21_14_16_56.627,0,27.3,0,1.183,0,0,0,0, ,0,0,0,0,0, ,960.6,170.7,-213.1,0,-0.8,-0.2,25,-6.57689,1.42265,1.67243,-0.0363659,-0.177538,0.204047,
2026_04_21_14_16_56.628,0,27.3,0,1.179,0,0,0,0, ,0,0,0,0,0, ,953.6,168,-225.4,0.1,-0.1,-0.1,25,-6.56914,1.40329,1.60897,-0.0357688,-0.178724,0.20434,
2026_04_21_14_16_56.630,0,27.3,0,1.182,0,0,0,0, ,0,0,0,0,0, ,945,165.5,-222.1,-2.3,-0.2,0.5,25,-6.56154,1.38398,1.54524,-0.035293,-0.179886,0.20458,
2026_04_21_14_16_56.631,0,27.3,0,1.182,0,0,0,0, ,0,0,0,0,0, ,953.8,167.3,-215.8,0.7,0.8,0.9,25,-6.55407,1.36472,1.48125,-0.0349389,-0.181023,0.20477,
2026_04_21_14_16_56.632,0,27.3,0,1.182,0,0,0,0, ,0,0,0,0,0, ,963.9,158.2,-211.3,-3.1,-0.8,1.2,25,-6.54675,1.34554,1.41704,-0.0347063,-0.182134,0.204908,
2026_04_21_14_16_56.633,0,27.5,0,1.182,0,0,0,0, ,0,0,0,0,0, ,962.1,159.9,-206.1,-1,1,0.2,25,-6.53958,1.32647,1.35262,-0.0345954,-0.183218,0.204995,
2026_04_21_14_16_56.634,0,27.3,0,1.181,0,0,0,0, ,0,0,0,0,0, ,958.9,158.4,-197.9,-0.7,-2.1,0.3,25,-6.53255,1.30751,1.28802,-0.0346057,-0.184274,0.205033,
2026_04_21_14_16_56.635,0,27.3,0,1.183,0,0,0,0, ,0,0,0,0,0, ,963,166.3,-217.5,-1.8,-0.3,-0.3,25,-6.52568,1.28869,1.22327,-0.0347372,-0.1853,0.205022,
2026_04_21_14_16_56.637,0,27.3,0,1.183,0,0,0,0, ,0,0,0,0,0, ,959.5,167.2,-209.9,-2.5,-2.2,-0.3,25,-6.51896,1.27003,1.15838,-0.0349894,-0.186296,0.204961,
2026_04_21_14_16_56.639,0,27.3,0,1.181,0,0,0,0, ,0,0,0,0,0, ,944.4,168.8,-226.8,0.7,-0.6,0.5,25,-6.51239,1.25154,1.09339,-0.0353619,-0.187261,0.204853,
2026_04_21_14_16_56.640,0,27.2,0,1.182,0,0,0,0, ,0,0,0,0,0, ,946.7,162.9,-223.5,-3.2,0.1,0.5,25,-6.50598,1.23324,1.02832,-0.0358544,-0.188193,0.204698,
2026_04_21_14_16_56.642,0,27.3,0,1.184,0,0,0,0, ,0,0,0,0,0, ,951.9,165.6,-215.8,0.7,-0.6,1.1,25,-6.49973,1.21513,0.963198,-0.0364662,-0.189092,0.204496,
2026_04_21_14_16_56.644,0,27.5,0,1.181,0,0,0,0, ,0,0,0,0,0, ,967.4,175.6,-219.8,1.2,0.7,1.4,25,-6.49365,1.19725,0.898045,-0.0371965,-0.189957,0.204247,
2026_04_21_14_16_56.645,0,27.3,0,1.182,0,0,0,0, ,0,0,0,0,0, ,969.2,163.2,-198.2,-4.1,-0.5,0.9,25,-6.48773,1.17961,0.832884,-0.0380443,-0.190787,0.203954,
2026_04_21_14_16_56.646,0,27.3,0,1.182,0,0,0,0, ,0,0,0,0,0, ,964.1,158.9,-198.1,-0.4,-1.5,0.3,25,-6.48199,1.16222,0.767734,-0.0390084,-0.19158,0.203616,
2026_04_21_14_16_56.647,0,27.2,0,1.182,0,0,0,0, ,0,0,0,0,0, ,954.1,157.4,-206,-0.4,-2.2,0,25,-6.47643,1.14511,0.702622,-0.0400872,-0.192335,0.203235,
2026_04_21_14_16_56.648,0,27.3,0,1.182,0,0,0,0, ,0,0,0,0,0, ,960.3,163.9,-216.3,-0.9,-0.1,-0.2,25,-6.47105,1.12828,0.637573,-0.0412794,-0.193051,0.202813,
2026_04_21_14_16_56.650,0,27.2,0,1.182,0,0,0,0, ,0,0,0,0,0, ,959.2,164.7,-213,-2,-2.1,-0.2,25,-6.46584,1.11175,0.572616,-0.0425833,-0.193727,0.20235,
2026_04_21_14_16_56.651,0,27.5,0,1.182,0,0,0,0, ,0,0,0,0,0, ,945.4,166.5,-225.3,-0.7,-1,0.5,25,-6.46082,1.09553,0.507779,-0.0439973,-0.194363,0.201847,
2026_04_21_14_16_56.652,0,27.3,0,1.182,0,0,0,0, ,0,0,0,0,0, ,957.2,165.4,-215.2,-2.5,0.6,0.3,25,-6.45597,1.07964,0.443089,-0.0455195,-0.194959,0.201307,
2026_04_21_14_16_56.653,0,27.3,0,1.181,0,0,0,0, ,0,0,0,0,0, ,970.9,173.3,-208.1,0.1,-0.6,0.7,25,-6.4513,1.06409,0.378572,-0.0471482,-0.195512,0.200728,
2026_04_21_14_16_56.654,0,27.5,0,1.181,0,0,0,0, ,0,0,0,0,0, ,954.4,161.9,-216.6,-2,-1.4,0.4,25,-6.44681,1.04889,0.314253,-0.0488816,-0.196024,0.200114,
2026_04_21_14_16_56.655,0,27.3,0,1.182,0,0,0,0, ,0,0,0,0,0, ,953.7,161.6,-211.6,-1,-1.4,0.5,25,-6.44251,1.03406,0.250157,-0.0507177,-0.196493,0.199464,
2026_04_21_14_16_56.657,0,27.5,0,1.181,0,0,0,0, ,0,0,0,0,0, ,968.3,166.8,-212.7,1.4,-0.6,0.4,25,-6.43839,1.0196,0.186308,-0.0526546,-0.196919,0.19878,
2026_04_21_14_16_56.658,0,27.5,0,1.181,0,0,0,0, ,0,0,0,0,0, ,962.4,162.5,-209.4,-5.3,-1.2,-0.1,25,-6.43445,1.00553,0.122731,-0.0546901,-0.197301,0.198063,
2026_04_21_14_16_56.660,0,27.3,0,1.182,0,0,0,0, ,0,0,0,0,0, ,954.5,164.6,-200,1,-2,0.1,25,-6.43069,0.991865,0.0594497,-0.0568221,-0.197639,0.197314,
2026_04_21_14_16_56.661,0,27.5,0,1.182,0,0,0,0, ,0,0,0,0,0, ,949.4,164.9,-224.8,1.8,-0.1,0.5,25,-6.42711,0.978608,-0.00350886,-0.0590482,-0.197934,0.196533,
2026_04_21_14_16_56.663,0,27.3,0,1.182,0,0,0,0, ,0,0,0,0,0, ,958.3,165.5,-219.2,-6.4,1.1,0.1,25,-6.42371,0.965772,-0.066119,-0.0613662,-0.198185,0.195724,
2026_04_21_14_16_56.664,0,27.5,0,1.181,0,0,0,0, ,0,0,0,0,0, ,968,162.4,-201,-1.4,-0.1,0.6,25,-6.42048,0.953366,-0.128356,-0.0637735,-0.198391,0.194885,
2026_04_21_14_16_56.665,0,27.3,0,1.182,0,0,0,0, ,0,0,0,0,0, ,958.6,164.7,-217.2,0,0,0.2,25,-6.41743,0.9414,-0.190194,-0.066268,-0.198553,0.194018,
2026_04_21_14_16_56.666,0,27.3,0,1.182,0,0,0,0, ,0,0,0,0,0, ,955.4,162.1,-208.4,-2.4,-0.4,0.1,25,-6.41455,0.929881,-0.251609,-0.0688477,-0.19867,0.193125,
2026_04_21_14_16_56.667,0,27.3,0,1.182,0,0,0,0, ,0,0,0,0,0, ,956.9,163,-213.2,-0.1,-1.3,0.3,25,-6.41184,0.918819,-0.312577,-0.0715105,-0.198741,0.192206,
2026_04_21_14_16_56.668,0,27.3,0,1.179,0,0,0,0, ,0,0,0,0,0, ,962.8,169.5,-224.3,-0.3,-0.6,0,25,-6.40929,0.908219,-0.373073,-0.0742542,-0.198765,0.191262,
2026_04_21_14_16_56.669,0,27.5,0,1.182,0,0,0,0, ,0,0,0,0,0, ,955.5,164.9,-214.5,-4,-1.5,0.2,25,-6.40691,0.898088,-0.433072,-0.0770767,-0.198743,0.190295,
2026_04_21_14_16_56.670,0,27.5,0,1.179,0,0,0,0, ,0,0,0,0,0, ,963.1,167.8,-216.4,0.8,0.2,0.2,25,-6.40469,0.888432,-0.492554,-0.0799756,-0.198672,0.189304,
2026_04_21_14_16_56.672,0,27.5,0,1.181,0,0,0,0, ,0,0,0,0,0, ,953.7,161.6,-210.2,-2.2,0.7,-0.2,25,-6.40263,0.879258,-0.551497,-0.0829487,-0.198554,0.188292,
2026_04_21_14_16_56.673,0,27.5,0,1.182,0,0,0,0, ,0,0,0,0,0, ,949.9,156.8,-200.6,-3.7,-3,0,25,-6.40072,0.870572,-0.60988,-0.0859938,-0.198387,0.187258,
2026_04_21_14_16_56.675,0,27.5,0,1.181,0,0,0,0, ,0,0,0,0,0, ,957.3,171.9,-217.2,2.6,-0.8,0.8,25,-6.39896,0.862378,-0.667684,-0.0891087,-0.198171,0.186204,
2026_04_21_14_16_56.676,0,27.5,0,1.184,0,0,0,0, ,0,0,0,0,0, ,960,166.5,-220.9,-1.8,0.4,0.6,25,-6.39735,0.854682,-0.724886,-0.0922913,-0.197905,0.18513,
2026_04_21_14_16_56.677,0,27.5,0,1.181,0,0,0,0, ,0,0,0,0,0, ,958.7,163.6,-203.8,-5.1,-1.3,0.5,25,-6.39589,0.847486,-0.781466,-0.0955391,-0.197589,0.184036,
2026_04_21_14_16_56.678,0,27.5,0,1.182,0,0,0,0, ,0,0,0,0,0, ,957.3,163.5,-208.8,2.5,-2,1,25,-6.39457,0.840796,-0.837403,-0.09885,-0.197224,0.182925,
2026_04_21_14_16_56.679,0,27.5,0,1.182,0,0,0,0, ,0,0,0,0,0, ,964.3,167.8,-221.9,1.1,-0.6,0.3,25,-6.3934,0.834614,-0.892677,-0.102222,-0.196808,0.181797,
2026_04_21_14_16_56.680,0,27.5,0,1.181,0,0,0,0, ,0,0,0,0,0, ,965.4,164.9,-204.3,-4.4,-1.6,0,25,-6.39237,0.828945,-0.947268,-0.105652,-0.196342,0.180652,
2026_04_21_14_16_56.681,0,27.5,0,1.181,0,0,0,0, ,0,0,0,0,0, ,957.3,164.1,-210.4,-1.9,-0.6,-0.2,25,-6.39147,0.82379,-1.00115,-0.109137,-0.195827,0.179492,
2026_04_21_14_16_56.682,0,27.5,0,1.182,0,0,0,0, ,0,0,0,0,0, ,955.8,167.3,-209.8,-0.5,0,-0.2,25,-6.39071,0.819153,-1.05432,-0.112675,-0.195262,0.178318,
2026_04_21_14_16_56.683,0,27.6,0,1.182,0,0,0,0, ,0,0,0,0,0, ,950.8,164.9,-215.4,1.6,-1.2,0.4,25,-6.39007,0.815037,-1.10674,-0.116264,-0.194648,0.177131,
2026_04_21_14_16_56.684,0,27.6,0,1.182,0,0,0,0, ,0,0,0,0,0, ,952.7,167.2,-225.9,-2.7,-1.4,0.8,25,-6.38956,0.811443,-1.15839,-0.119901,-0.193985,0.175931,
2026_04_21_14_16_56.685,0,27.6,0,1.181,0,0,0,0, ,0,0,0,0,0, ,957.8,165.6,-216.5,-0.8,0,1,25,-6.38916,0.808374,-1.20926,-0.123583,-0.193273,0.174719,
2026_04_21_14_16_56.686,0,27.6,0,1.179,0,0,0,0, ,0,0,0,0,0, ,959.5,158.4,-207,-1,-0.9,0.7,25,-6.38888,0.805832,-1.25933,-0.127307,-0.192514,0.173496,
2026_04_21_14_16_56.687,0,27.7,0,1.182,0,0,0,0, ,0,0,0,0,0, ,960.3,157.9,-208.4,-0.3,-1.7,0.2,25,-6.38871,0.803817,-1.30859,-0.13107,-0.191708,0.172263,
2026_04_21_14_16_56.687,0,27.7,0,1.182,0,0,0,0, ,0,0,0,0,0, ,960,158.9,-218,-1,-1.8,0,25,-6.38866,0.80233,-1.35701,-0.134869,-0.190854,0.171022,
2026_04_21_14_16_56.688,0,27.8,0,1.184,0,0,0,0, ,0,0,0,0,0, ,965.6,175.5,-218.5,-1.6,-0.6,-0.5,25,-6.38872,0.801369,-1.40459,-0.138701,-0.189954,0.169773,
2026_04_21_14_16_56.690,0,27.7,0,1.182,0,0,0,0, ,0,0,0,0,0, ,958.1,167.8,-214.4,-4.4,-0.9,-0.2,25,-6.38887,0.80093,-1.45131,-0.142563,-0.189009,0.168516,
2026_04_21_14_16_56.691,0,27.8,0,1.181,0,0,0,0, ,0,0,0,0,0, ,953.9,171.2,-219.3,-0.3,0.2,-0.1,25,-6.38913,0.801012,-1.49716,-0.146453,-0.18802,0.167254,
2026_04_21_14_16_56.692,0,27.8,0,1.181,0,0,0,0, ,0,0,0,0,0, ,951,165.4,-221.8,0.7,0,1,25,-6.38949,0.801614,-1.54212,-0.150366,-0.186988,0.165986,
2026_04_21_14_16_56.693,0,27.9,0,1.184,0,0,0,0, ,0,0,0,0,0, ,957.5,162.9,-221,-1.3,-0.9,1.4,25,-6.38993,0.802735,-1.58619,-0.154302,-0.185912,0.164714,
2026_04_21_14_16_56.694,0,27.9,0,1.181,0,0,0,0, ,0,0,0,0,0, ,965.5,163.6,-204.5,-0.8,-0.1,0.7,25,-6.39046,0.804374,-1.62936,-0.158257,-0.184795,0.163437,
2026_04_21_14_16_56.696,0,27.9,0,1.182,0,0,0,0, ,0,0,0,0,0, ,963.1,160.6,-212.6,-1,-0.1,0.4,25,-6.39107,0.80653,-1.67162,-0.162228,-0.183636,0.162157,
2026_04_21_14_16_56.697,0,27.9,0,1.181,0,0,0,0, ,0,0,0,0,0, ,967,160.2,-202.6,-1.6,-2.3,0.3,25,-6.39176,0.809201,-1.71296,-0.166213,-0.182437,0.160875,
2026_04_21_14_16_56.698,0,28,0,1.182,0,0,0,0, ,0,0,0,0,0, ,956.2,162.9,-216,0.1,-2.5,0,25,-6.39252,0.812383,-1.75339,-0.170208,-0.181196,0.159592,
2026_04_21_14_16_56.699,0,28,0,1.181,0,0,0,0, ,0,0,0,0,0, ,954.4,166.6,-215.4,-3.6,0,-0.6,25,-6.39334,0.816072,-1.79288,-0.17421,-0.179917,0.158308,
2026_04_21_14_16_56.700,0,28,0,1.184,0,0,0,0, ,0,0,0,0,0, ,951.1,167.4,-209.7,0.7,-2.6,0.3,25,-6.39422,0.820261,-1.83144,-0.178217,-0.178598,0.157026,
2026_04_21_14_16_56.701,0,28.1,0,1.182,0,0,0,0, ,0,0,0,0,0, ,955,175.9,-231.9,0.5,0.4,0.7,25,-6.39515,0.824947,-1.86905,-0.182225,-0.177242,0.155745,
2026_04_21_14_16_56.703,0,28,0,1.184,0,0,0,0, ,0,0,0,0,0, ,962.1,173.2,-220.5,-3.2,0.3,0.7,25,-6.39612,0.830124,-1.90571,-0.186232,-0.17585,0.154466,
2026_04_21_14_16_56.704,0,28.1,0,1.181,0,0,0,0, ,0,0,0,0,0, ,963.6,167.3,-193.6,-4.8,-1.2,0.7,25,-6.39714,0.83579,-1.94141,-0.190235,-0.174423,0.15319,
2026_04_21_14_16_56.705,0,28.1,0,1.183,0,0,0,0, ,0,0,0,0,0, ,957,161.2,-206.1,5.6,-0.4,1.1,25,-6.39819,0.841942,-1.97616,-0.194232,-0.172962,0.151918,
2026_04_21_14_16_56.706,0,28.1,0,1.183,0,0,0,0, ,0,0,0,0,0, ,960.3,161.1,-211,-1.9,-1,0.4,25,-6.39926,0.84858,-2.00995,-0.198218,-0.171467,0.15065,
2026_04_21_14_16_56.708,0,28.1,0,1.181,0,0,0,0, ,0,0,0,0,0, ,960.4,164.3,-208.1,-3.3,0.4,0.1,25,-6.40036,0.855701,-2.04276,-0.202193,-0.16994,0.149389,
2026_04_21_14_16_56.709,0,28.1,0,1.182,0,0,0,0, ,0,0,0,0,0, ,961.7,161.6,-208.8,-1.6,1.6,-0.1,25,-6.40148,0.8633,-2.0746,-0.206152,-0.168382,0.148134,
2026_04_21_14_16_56.711,0,28.1,0,1.182,0,0,0,0, ,0,0,0,0,0, ,943.8,160,-209.9,-1.2,0,0,25,-6.40261,0.871374,-2.10545,-0.210093,-0.166793,0.146887,
2026_04_21_14_16_56.712,0,28.1,0,1.181,0,0,0,0, ,0,0,0,0,0, ,948.3,162.4,-205.9,1.5,-1.3,0.7,25,-6.40373,0.879917,-2.13532,-0.214013,-0.165173,0.145649,
2026_04_21_14_16_56.713,0,28.1,0,1.182,0,0,0,0, ,0,0,0,0,0, ,956,167.4,-219.1,-2.6,0,0.5,25,-6.40486,0.888922,-2.16418,-0.217909,-0.163523,0.14442,
2026_04_21_14_16_56.753,0,28,0,1.182,0,0,0,0, ,0,0,0,0,0, ,964.8,165.1,-204.1,-3,-1,0.8,25,-6.40598,0.898381,-2.19203,-0.22178,-0.161842,0.143201,
2026_04_21_14_16_56.753,0,28,0,1.181,0,0,0,0, ,0,0,0,0,0, ,959.4,162.2,-206.4,1.2,-0.3,0.8,25,-6.4071,0.908286,-2.21887,-0.225622,-0.160131,0.141993,
2026_04_21_14_16_56.758,0,28,0,1.182,0,0,0,0, ,0,0,0,0,0, ,955.8,158.5,-209.1,-2.3,-1.6,0.3,25,-6.4082,0.918629,-2.24468,-0.229434,-0.158389,0.140798,
2026_04_21_14_16_56.777,0,27.9,0,1.182,0,0,0,0, ,0,0,0,0,0, ,964.2,165.7,-203.1,-2.8,-2.3,0,25,-6.4093,0.9294,-2.26945,-0.233212,-0.156618,0.139615,
2026_04_21_14_16_56.809,0,28,0,1.185,0,0,0,0, ,0,0,0,0,0, ,961.4,177.1,-216.4,3.4,-0.9,0.3,25,-6.41038,0.940591,-2.29317,-0.236954,-0.154816,0.138446,
2026_04_21_14_16_56.817,0,27.9,0,1.182,0,0,0,0, ,0,0,0,0,0, ,953.2,167.1,-220.3,-4.2,0.3,0.2,25,-6.41143,0.95219,-2.31584,-0.240659,-0.152985,0.137292,
2026_04_21_14_16_56.837,0,27.9,0,1.182,0,0,0,0, ,0,0,0,0,0, ,948.6,160,-199.9,-2.3,0,0.5,25,-6.41247,0.964191,-2.33744,-0.244323,-0.151126,0.136154,
2026_04_21_14_16_56.857,0,27.9,0,1.184,0,0,0,0, ,0,0,0,0,0, ,966.3,167.1,-201.2,2.9,0,0.8,25,-6.41347,0.976584,-2.35797,-0.247945,-0.149238,0.135032,
2026_04_21_14_16_56.877,0,27.9,0,1.184,0,0,0,0, ,0,0,0,0,0, ,966.3,167.1,-205.8,-3.2,-2.4,0.6,25,-6.41445,0.989362,-2.37741,-0.251523,-0.147323,0.133927,
2026_04_21_14_16_56.897,0,27.9,0,1.182,0,0,0,0, ,0,0,0,0,0, ,957.2,159,-204.9,-2,0.9,-0.1,25,-6.41538,1.00252,-2.39576,-0.255054,-0.145382,0.13284,
2026_04_21_14_16_56.916,0,27.9,0,1.182,0,0,0,0, ,0,0,0,0,0, ,956,156.3,-201.7,-2.8,-1.8,-0.5,25,-6.41628,1.01604,-2.41299,-0.258536,-0.143413,0.131771,
2026_04_21_14_16_56.940,0,27.9,0,1.182,0,0,0,0, ,0,0,0,0,0, ,950.5,167.8,-217.4,0.2,-2,0,25,-6.41713,1.02991,-2.42911,-0.261968,-0.141419,0.130722,
2026_04_21_14_16_56.956,0,27.9,0,1.182,0,0,0,0, ,0,0,0,0,0, ,949.8,171.5,-232.5,-0.8,0.3,0.6,25,-6.41793,1.04414,-2.4441,-0.265348,-0.139399,0.129693,
2026_04_21_14_16_56.976,0,27.9,0,1.182,0,0,0,0, ,0,0,0,0,0, ,954.1,161.3,-214.8,-3.9,0,0.7,25,-6.41868,1.0587,-2.45794,-0.268673,-0.137355,0.128684,
2026_04_21_14_16_56.996,0,27.9,0,1.181,0,0,0,0, ,0,0,0,0,0, ,957.3,163.5,-213.2,1.5,-0.3,1.4,25,-6.41937,1.07358,-2.47063,-0.271944,-0.135287,0.127696,
2026_04_21_14_16_57.015,0,27.9,0,1.182,0,0,0,0, ,0,0,0,0,0, ,959.9,160.1,-207.1,-2.1,-1.4,1,25,-6.42,1.08877,-2.48217,-0.275158,-0.133195,0.126729,
2026_04_21_14_16_57.035,0,27.8,0,1.181,0,0,0,0, ,0,0,0,0,0, ,967.8,167.3,-207,-0.7,-2.4,0.5,25,-6.42058,1.10427,-2.49256,-0.278314,-0.131081,0.125784,
2026_04_21_14_16_57.065,0,27.8,0,1.182,0,0,0,0, ,0,0,0,0,0, ,969.9,172.2,-219.2,0.7,0.9,-0.2,25,-6.42109,1.12005,-2.50178,-0.281411,-0.128946,0.124861,
2026_04_21_14_16_57.075,0,27.8,0,1.181,0,0,0,0, ,0,0,0,0,0, ,959.5,164.4,-204.9,-5.5,-1.2,-0.3,25,-6.42155,1.13612,-2.50984,-0.284447,-0.126789,0.123962,
2026_04_21_14_16_57.095,0,27.9,0,1.182,0,0,0,0, ,0,0,0,0,0, ,949.9,162.5,-210,0,-1.3,0.2,25,-6.42194,1.15245,-2.51674,-0.287421,-0.124613,0.123087,
2026_04_21_14_16_57.114,0,27.9,0,1.181,0,0,0,0, ,0,0,0,0,0, ,954.1,166.2,-222.1,2.3,-1.5,0.7,25,-6.42225,1.16903,-2.52247,-0.290332,-0.122417,0.122236,
2026_04_21_14_16_57.134,0,27.9,0,1.185,0,0,0,0, ,0,0,0,0,0, ,952,168.4,-228.5,-1.1,0,1.2,25,-6.42249,1.18586,-2.52703,-0.293179,-0.120203,0.121411,
2026_04_21_14_16_57.154,0,27.9,0,1.182,0,0,0,0, ,0,0,0,0,0, ,962.2,158.2,-212.5,-2.7,1.9,0.9,25,-6.42265,1.20293,-2.53044,-0.29596,-0.117972,0.12061,
2026_04_21_14_16_57.174,0,27.9,0,1.182,0,0,0,0, ,0,0,0,0,0, ,965.3,158.4,-210.8,2.2,1.8,0.7,25,-6.42272,1.22021,-2.53268,-0.298674,-0.115725,0.119836,
2026_04_21_14_16_57.199,0,27.9,0,1.182,0,0,0,0, ,0,0,0,0,0, ,968.5,159,-208.3,-3.7,2.5,-0.7,25,-6.4227,1.23771,-2.53378,-0.30132,-0.113462,0.119089,
2026_04_21_14_16_57.213,0,28,0,1.184,0,0,0,0, ,0,0,0,0,0, ,967,168.4,-198.6,-4.5,2.3,-1.7,25,-6.42259,1.25541,-2.53373,-0.303895,-0.111183,0.118369,
2026_04_21_14_16_57.233,0,27.9,0,1.182,0,0,0,0, ,0,0,0,0,0, ,957.1,167.1,-195.9,-2.4,-2.9,-0.5,25,-6.42237,1.27329,-2.53254,-0.306399,-0.108887,0.117676,
2026_04_21_14_16_57.253,0,28,0,1.181,0,0,0,0, ,0,0,0,0,0, ,943.3,167.9,-231.8,6.4,-0.4,0.9,25,-6.42205,1.29134,-2.53023,-0.308831,-0.106572,0.117011,
2026_04_21_14_16_57.273,0,28,0,1.182,0,0,0,0, ,0,0,0,0,0, ,941.5,159.6,-217.8,-4.5,-1.7,1,25,-6.42162,1.30955,-2.52678,-0.311191,-0.104239,0.116373,
2026_04_21_14_16_57.293,0,28,0,1.182,0,0,0,0, ,0,0,0,0,0, ,948.4,165.6,-227.1,1,0.2,1.7,25,-6.42106,1.3279,-2.52221,-0.313477,-0.101885,0.115763,
2026_04_21_14_16_57.321,0,28,0,1.182,0,0,0,0, ,0,0,0,0,0, ,963.8,166.9,-215.3,-2.2,1.3,1.3,25,-6.42038,1.34638,-2.51653,-0.315689,-0.0995112,0.11518,
2026_04_21_14_16_57.333,0,27.9,0,1.182,0,0,0,0, ,0,0,0,0,0, ,978.3,167.9,-192.6,-2.2,-0.7,1,25,-6.41958,1.36498,-2.50976,-0.317824,-0.0971156,0.114624,
2026_04_21_14_16_57.352,0,27.9,0,1.184,0,0,0,0, ,0,0,0,0,0, ,966.3,161.3,-205.2,0.9,-0.7,0.8,25,-6.41865,1.38368,-2.50189,-0.319882,-0.0946977,0.114096,
2026_04_21_14_16_57.371,0,27.9,0,1.182,0,0,0,0, ,0,0,0,0,0, ,961.5,154.4,-201.6,-3.6,-3.2,0,25,-6.41759,1.40248,-2.49294,-0.321863,-0.0922567,0.113597,
2026_04_21_14_16_57.391,0,28,0,1.182,0,0,0,0, ,0,0,0,0,0, ,959.4,164.9,-211.9,2.3,-1.4,-0.4,25,-6.41641,1.42136,-2.48293,-0.323765,-0.0897922,0.113126,
2026_04_21_14_16_57.411,0,28,0,1.184,0,0,0,0, ,0,0,0,0,0, ,956.7,175.9,-225.8,-1.6,-0.8,0,25,-6.41508,1.4403,-2.47185,-0.325587,-0.087304,0.112685,
2026_04_21_14_16_57.431,0,28,0,1.181,0,0,0,0, ,0,0,0,0,0, ,955.3,161.1,-202.3,-6.6,-1.3,0,25,-6.4136,1.45929,-2.45972,-0.327329,-0.0847922,0.112274,
2026_04_21_14_16_57.451,0,28.1,0,1.184,0,0,0,0, ,0,0,0,0,0, ,951.1,167.1,-211,3,-0.6,0.5,25,-6.41197,1.47832,-2.44655,-0.328989,-0.0822574,0.111893,
2026_04_21_14_16_57.471,0,28,0,1.185,0,0,0,0, ,0,0,0,0,0, ,957.1,166.3,-216.1,1.9,0,1.1,25,-6.41017,1.49738,-2.43235,-0.330568,-0.0797,0.111541,
2026_04_21_14_16_57.491,0,28,0,1.184,0,0,0,0, ,0,0,0,0,0, ,966.1,165.4,-210.5,-3.7,-0.4,1.1,25,-6.40822,1.51646,-2.41712,-0.332066,-0.0771206,0.11122,
2026_04_21_14_16_57.510,0,28,0,1.181,0,0,0,0, ,0,0,0,0,0, ,970.7,162.5,-203.9,-1.4,0.6,0.7,25,-6.40609,1.53553,-2.40088,-0.33348,-0.0745198,0.110929,
2026_04_21_14_16_57.530,0,28,0,1.182,0,0,0,0, ,0,0,0,0,0, ,958.6,151.3,-194.7,-1.8,-5.3,0.8,25,-6.40378,1.5546,-2.38364,-0.334811,-0.0718981,0.110668,
2026_04_21_14_16_57.550,0,28,0,1.182,0,0,0,0, ,0,0,0,0,0, ,956.6,164.5,-215.3,5.6,-3.7,0.9,25,-6.40129,1.57365,-2.3654,-0.336058,-0.0692563,0.110438,
2026_04_21_14_16_57.570,0,28.1,0,1.182,0,0,0,0, ,0,0,0,0,0, ,961.6,169.7,-212.7,-1.9,-1.4,0.3,25,-6.39862,1.59267,-2.34619,-0.33722,-0.0665956,0.11024,
2026_04_21_14_16_57.590,0,28.1,0,1.181,0,0,0,0, ,0,0,0,0,0, ,967.4,174.9,-210.3,-4.9,1.4,0,25,-6.39574,1.61164,-2.32599,-0.338296,-0.0639182,0.110073,
2026_04_21_14_16_57.610,0,28,0,1.182,0,0,0,0, ,0,0,0,0,0, ,957.7,159.6,-202.7,-3.4,0,0.3,25,-6.39266,1.63055,-2.30484,-0.339286,-0.0612261,0.109938,
2026_04_21_14_16_57.630,0,28,0,1.182,0,0,0,0, ,0,0,0,0,0, ,952.2,154.6,-209.8,2.9,-1.5,0.7,25,-6.38936,1.64939,-2.28272,-0.340188,-0.0585213,0.109835,
2026_04_21_14_16_57.650,0,28.1,0,1.182,0,0,0,0, ,0,0,0,0,0, ,959.8,166.5,-226.4,2.1,-0.9,0.5,25,-6.38583,1.66814,-2.25966,-0.341003,-0.0558055,0.109765,
2026_04_21_14_16_57.669,0,28.1,0,1.184,0,0,0,0, ,0,0,0,0,0, ,964.5,167.2,-212.8,-5.6,-0.7,0.2,25,-6.38208,1.6868,-2.23565,-0.341729,-0.0530807,0.109728,
2026_04_21_14_16_57.689,0,28.1,0,1.182,0,0,0,0, ,0,0,0,0,0, ,959.5,162.9,-213.1,-2.6,1.5,0,25,-6.37809,1.70536,-2.21072,-0.342367,-0.0503484,0.109723,
2026_04_21_14_16_57.709,0,28.1,0,1.182,0,0,0,0, ,0,0,0,0,0, ,957.5,161.1,-205.9,1.8,-2.3,1,25,-6.37385,1.72379,-2.18488,-0.342915,-0.0476106,0.109752,
2026_04_21_14_16_57.728,0,28.1,0,1.184,0,0,0,0, ,0,0,0,0,0, ,963.6,165.6,-213.2,0,-0.7,0.3,25,-6.36936,1.7421,-2.15814,-0.343375,-0.0448686,0.109813,
2026_04_21_14_16_57.748,0,28.1,0,1.182,0,0,0,0, ,0,0,0,0,0, ,968.5,165.5,-207.7,-5.3,0.6,-0.7,25,-6.3646,1.76025,-2.13051,-0.343744,-0.0421242,0.109908,
2026_04_21_14_16_57.768,0,28.2,0,1.184,0,0,0,0, ,0,0,0,0,0, ,950,156.4,-196.5,-2,-1.8,0,25,-6.35958,1.77826,-2.10201,-0.344025,-0.0393787,0.110036,
2026_04_21_14_16_57.788,0,28.1,0,1.184,0,0,0,0, ,0,0,0,0,0, ,950.3,160.2,-215.4,3.8,-2,0.5,25,-6.35428,1.79609,-2.07265,-0.344217,-0.0366338,0.110196,
2026_04_21_14_16_57.815,0,28.1,0,1.182,0,0,0,0, ,0,0,0,0,0, ,961.9,168.4,-219.4,-2.9,-0.8,0.5,25,-6.3487,1.81375,-2.04245,-0.34432,-0.033891,0.110389,
2026_04_21_14_16_57.827,0,28.2,0,1.182,0,0,0,0, ,0,0,0,0,0, ,964.8,169.7,-203.3,-3.7,-0.9,0.4,25,-6.34282,1.83121,-2.01142,-0.344335,-0.0311522,0.110613,
2026_04_21_14_16_57.847,0,28.2,0,1.181,0,0,0,0, ,0,0,0,0,0, ,956.1,163,-215,-1.6,-0.3,0.5,25,-6.33665,1.84847,-1.97956,-0.344262,-0.0284191,0.110869,
2026_04_21_14_16_57.867,0,28.2,0,1.182,0,0,0,0, ,0,0,0,0,0, ,965.6,166,-211.5,3.7,-0.9,0.9,25,-6.33018,1.86551,-1.94691,-0.344102,-0.0256937,0.111156,
2026_04_21_14_16_57.887,0,28.3,0,1.184,0,0,0,0, ,0,0,0,0,0, ,963.2,156,-212.4,-5.2,-3.2,0.2,25,-6.3234,1.88232,-1.91346,-0.343856,-0.0229777,0.111473,
2026_04_21_14_16_57.907,0,28.2,0,1.182,0,0,0,0, ,0,0,0,0,0, ,967.6,164.3,-204.4,-2.4,-3.3,-0.1,25,-6.31631,1.8989,-1.87924,-0.343525,-0.0202732,0.111821,
2026_04_21_14_16_57.927,0,28.3,0,1.182,0,0,0,0, ,0,0,0,0,0, ,966.6,167.6,-206.1,3.4,-1,0,25,-6.30889,1.91522,-1.84426,-0.343109,-0.0175825,0.112198,
2026_04_21_14_16_57.947,0,28.2,0,1.184,0,0,0,0, ,0,0,0,0,0, ,956.9,164.9,-217.6,-4.4,0,-0.8,25,-6.30115,1.93129,-1.80855,-0.34261,-0.0149083,0.112605,
2026_04_21_14_16_57.966,0,28.3,0,1.182,0,0,0,0, ,0,0,0,0,0, ,953.9,164.9,-197.5,-3.8,-2.3,-0.3,25,-6.29307,1.94709,-1.7721,-0.342028,-0.0122534,0.11304,
2026_04_21_14_16_57.986,0,28.3,0,1.182,0,0,0,0, ,0,0,0,0,0, ,956.4,166.7,-213.9,2.2,-0.6,0.2,25,-6.28465,1.9626,-1.73494,-0.341365,-0.00962061,0.113502,
2026_04_21_14_16_58.006,0,28.3,0,1.181,0,0,0,0, ,0,0,0,0,0, ,954.2,172.3,-232.7,1,1,0.4,25,-6.27587,1.97783,-1.69708,-0.340622,-0.0070126,0.113991,
2026_04_21_14_16_58.026,0,28.2,0,1.184,0,0,0,0, ,0,0,0,0,0, ,949.9,154.7,-207,-6.9,1,0.6,25,-6.26673,1.99276,-1.65855,-0.3398,-0.00443197,0.114505,
2026_04_21_14_16_58.046,0,28.3,0,1.182,0,0,0,0, ,0,0,0,0,0, ,958.8,158.2,-200.8,0.8,-0.2,1.2,25,-6.25723,2.00739,-1.61935,-0.338902,-0.0018809,0.115043,
2026_04_21_14_16_58.066,0,28.2,0,1.181,0,0,0,0, ,0,0,0,0,0, ,972.4,163.4,-206,1.3,0.5,0.3,25,-6.24737,2.0217,-1.5795,-0.337927,0.000638819,0.115604,
2026_04_21_14_16_58.086,0,28.2,0,1.184,0,0,0,0, ,0,0,0,0,0, ,966.3,166.9,-204.9,-5.5,0.4,-1.1,25,-6.23715,2.0357,-1.53903,-0.336879,0.00312578,0.116187,
2026_04_21_14_16_58.105,0,28.2,0,1.182,0,0,0,0, ,0,0,0,0,0, ,960,161.2,-199.2,-4.4,-1,-1.2,25,-6.22655,2.04937,-1.49795,-0.335758,0.00557887,0.116791,
2026_04_21_14_16_58.124,0,28.3,0,1.182,0,0,0,0, ,0,0,0,0,0, ,948.7,167.2,-226.9,2.9,-2.2,-0.2,25,-6.21558,2.06269,-1.45628,-0.334566,0.00799716,0.117415,
2026_04_21_14_16_58.144,0,28.3,0,1.182,0,0,0,0, ,0,0,0,0,0, ,945,167.1,-228.7,-1.3,-0.3,0.4,25,-6.20424,2.07568,-1.41402,-0.333307,0.0103797,0.118057,
2026_04_21_14_16_58.164,0,28.2,0,1.182,0,0,0,0, ,0,0,0,0,0, ,953.7,167.6,-221.4,-4.1,-2.1,0.8,25,-6.19251,2.08831,-1.37121,-0.331982,0.0127256,0.118716,
2026_04_21_14_16_58.184,0,28.2,0,1.182,0,0,0,0, ,0,0,0,0,0, ,961.3,167.2,-212.8,-1.8,1.1,0.7,25,-6.18041,2.10058,-1.32785,-0.330594,0.0150335,0.11939,
2026_04_21_14_16_58.204,0,28.3,0,1.182,0,0,0,0, ,0,0,0,0,0, ,962.6,163.6,-198.9,-1.7,-0.8,0.7,25,-6.16794,2.11249,-1.28398,-0.329144,0.0173026,0.120078,
2026_04_21_14_16_58.224,0,28.3,0,1.184,0,0,0,0, ,0,0,0,0,0, ,963.9,166.1,-204.1,2.4,-2.1,0.6,25,-6.1551,2.12403,-1.23961,-0.327637,0.0195318,0.120777,
2026_04_21_14_16_58.243,0,28.2,0,1.182,0,0,0,0, ,0,0,0,0,0, ,968.9,166.5,-222.4,-2,-0.5,0.1,25,-6.14189,2.13521,-1.19478,-0.326073,0.0217203,0.121487,
2026_04_21_14_16_58.263,0,28.2,0,1.181,0,0,0,0, ,0,0,0,0,0, ,963.2,159.7,-202.6,-4.8,-0.2,-0.6,25,-6.12832,2.146,-1.1495,-0.324457,0.023867,0.122207,
2026_04_21_14_16_58.283,0,28.3,0,1.184,0,0,0,0, ,0,0,0,0,0, ,948.2,159.7,-207.8,1.3,-2.2,0.1,25,-6.11438,2.15642,-1.10379,-0.322789,0.0259711,0.122936,
2026_04_21_14_16_58.308,0,28.2,0,1.184,0,0,0,0, ,0,0,0,0,0, ,957,166.2,-211.6,0.9,-1.8,0,25,-6.10008,2.16646,-1.05768,-0.321074,0.0280315,0.123671,
2026_04_21_14_16_58.323,0,28.3,0,1.182,0,0,0,0, ,0,0,0,0,0, ,961.9,175.7,-219.1,-4.9,-0.5,0,25,-6.08542,2.17611,-1.01118,-0.319312,0.0300472,0.124412,
2026_04_21_14_16_58.343,0,28.3,0,1.182,0,0,0,0, ,0,0,0,0,0, ,961.6,170.7,-212,0.4,-0.2,0.4,25,-6.07039,2.18537,-0.964326,-0.317506,0.0320169,0.125158,
2026_04_21_14_16_58.363,0,28.3,0,1.181,0,0,0,0, ,0,0,0,0,0, ,951.2,162.1,-220.8,0.3,0.4,0.9,25,-6.05501,2.19425,-0.91713,-0.315658,0.0339396,0.125906,
2026_04_21_14_16_58.383,0,28.3,0,1.184,0,0,0,0, ,0,0,0,0,0, ,953.3,161.9,-208.6,-2.9,0.4,0.4,25,-6.03927,2.20274,-0.869617,-0.313772,0.0358142,0.126655,
2026_04_21_14_16_58.403,0,28.2,0,1.182,0,0,0,0, ,0,0,0,0,0, ,965.4,164.6,-199.9,-0.8,0.7,0.2,25,-6.02319,2.21085,-0.821813,-0.311848,0.0376403,0.127405,
2026_04_21_14_16_58.431,0,28.2,0,1.182,0,0,0,0, ,0,0,0,0,0, ,966.6,163,-206,-0.7,-1.6,0.3,25,-6.00675,2.21857,-0.773741,-0.309889,0.0394173,0.128153,
2026_04_21_14_16_58.442,0,28.2,0,1.184,0,0,0,0, ,0,0,0,0,0, ,954.7,162.8,-223.6,-0.5,-1,0.3,25,-5.98998,2.2259,-0.725423,-0.307897,0.0411453,0.128899,
2026_04_21_14_16_58.462,0,28.3,0,1.184,0,0,0,0, ,0,0,0,0,0, ,963.3,170.4,-227.9,0.4,1.1,0.1,25,-5.97287,2.23285,-0.676882,-0.305873,0.0428242,0.129642,
2026_04_21_14_16_58.482,0,28.3,0,1.182,0,0,0,0, ,0,0,0,0,0, ,950.9,159.7,-213,-6,-1.1,0,25,-5.95542,2.23942,-0.628141,-0.30382,0.0444539,0.13038,
2026_04_21_14_16_58.501,0,28.3,0,1.184,0,0,0,0, ,0,0,0,0,0, ,957,167.1,-203,-0.4,-0.2,0.4,25,-5.93765,2.2456,-0.579225,-0.30174,0.0460346,0.131113,
2026_04_21_14_16_58.521,0,28.2,0,1.182,0,0,0,0, ,0,0,0,0,0, ,960.2,168,-207.7,3.3,-3.2,1.3,25,-5.91955,2.2514,-0.530163,-0.299634,0.0475666,0.131839,
2026_04_21_14_16_58.541,0,28.3,0,1.182,0,0,0,0, ,0,0,0,0,0, ,964.2,166.3,-224.8,-3.1,1.5,0.1,25,-5.90114,2.25682,-0.480978,-0.297504,0.0490499,0.132557,
2026_04_21_14_16_58.561,0,28.1,0,1.182,0,0,0,0, ,0,0,0,0,0, ,961,160.2,-200.5,-5.2,-0.9,0,25,-5.88241,2.26187,-0.431697,-0.295353,0.0504848,0.133266,
2026_04_21_14_16_58.580,0,28.3,0,1.182,0,0,0,0, ,0,0,0,0,0, ,957.6,160.6,-202.7,1.7,-1.1,0.4,25,-5.86338,2.26654,-0.382344,-0.293181,0.0518713,0.133966,
2026_04_21_14_16_58.600,0,28.3,0,1.181,0,0,0,0, ,0,0,0,0,0, ,967.8,170.1,-215.6,-0.5,-1.4,0,25,-5.84405,2.27083,-0.332943,-0.290991,0.0532097,0.134655,
2026_04_21_14_16_58.620,0,28.1,0,1.182,0,0,0,0, ,0,0,0,0,0, ,962.8,169.3,-208.1,-1.9,-1.3,0,25,-5.82442,2.27476,-0.283516,-0.288785,0.0545002,0.135334,
2026_04_21_14_16_58.640,0,28.3,0,1.181,0,0,0,0, ,0,0,0,0,0, ,954.9,165,-209.9,-2.3,-1.3,0.2,25,-5.8045,2.27832,-0.234086,-0.286564,0.0557428,0.136,
2026_04_21_14_16_58.668,0,28.3,0,1.184,0,0,0,0, ,0,0,0,0,0, ,950.8,159,-210.6,-0.6,-1,0.5,25,-5.78429,2.28151,-0.184672,-0.28433,0.0569375,0.136653,
2026_04_21_14_16_58.680,0,28.2,0,1.182,0,0,0,0, ,0,0,0,0,0, ,954.5,162.9,-212.6,-1,-0.2,0.3,25,-5.76379,2.28434,-0.135297,-0.282085,0.058084,0.137292,
2026_04_21_14_16_58.699,0,28.2,0,1.182,0,0,0,0, ,0,0,0,0,0, ,964.2,168.4,-207.7,-3.8,-0.8,0.1,25,-5.74302,2.28682,-0.0859807,-0.279831,0.0591822,0.137917,
2026_04_21_14_16_58.719,0,28.2,0,1.182,0,0,0,0, ,0,0,0,0,0, ,965,173.9,-216.5,1.4,-0.3,0.8,25,-5.72198,2.28894,-0.0367422,-0.27757,0.060232,0.138526,
2026_04_21_14_16_58.739,0,28.2,0,1.184,0,0,0,0, ,0,0,0,0,0, ,958.9,162.8,-215.4,-1,-1.2,0.7,25,-5.70067,2.29071,0.0123982,-0.275303,0.0612334,0.139119,
2026_04_21_14_16_58.759,0,28.1,0,1.182,0,0,0,0, ,0,0,0,0,0, ,949.7,159,-215.4,-3.7,-1.2,0.2,25,-5.6791,2.29214,0.0614202,-0.273033,0.0621863,0.139695,
2026_04_21_14_16_58.779,0,28.2,0,1.182,0,0,0,0, ,0,0,0,0,0, ,963,164.3,-213.3,-0.1,-1.3,0.4,25,-5.65728,2.29322,0.110303,-0.27076,0.0630908,0.140254,
2026_04_21_14_16_58.799,0,28.3,0,1.182,0,0,0,0, ,0,0,0,0,0, ,960.8,167.8,-215,-1.2,-1.7,0,25,-5.63522,2.29397,0.159025,-0.268488,0.0639468,0.140795,
2026_04_21_14_16_58.818,0,28.2,0,1.182,0,0,0,0, ,0,0,0,0,0, ,968.7,177.9,-218.3,0.5,0.5,-0.2,25,-5.61291,2.29439,0.207564,-0.266216,0.064754,0.141317,
2026_04_21_14_16_58.838,0,28.1,0,1.182,0,0,0,0, ,0,0,0,0,0, ,956.6,171.5,-221.9,-3.5,0.9,-0.1,25,-5.59038,2.29449,0.255899,-0.263948,0.0655124,0.141821,
2026_04_21_14_16_58.858,0,28.2,0,1.182,0,0,0,0, ,0,0,0,0,0, ,949.5,161.7,-199.2,-2.7,-1.5,0.4,25,-5.56761,2.29426,0.304004,-0.261685,0.0662217,0.142305,
2026_04_21_14_16_58.878,0,28.1,0,1.184,0,0,0,0, ,0,0,0,0,0, ,949.5,163.5,-212.7,4.7,-1.9,1.4,25,-5.54463,2.29373,0.351857,-0.259428,0.0668824,0.14277,
2026_04_21_14_16_58.907,0,28.2,0,1.184,0,0,0,0, ,0,0,0,0,0, ,956.1,163.9,-222.4,-0.3,-1.9,1.7,25,-5.52144,2.2929,0.399435,-0.257178,0.0674945,0.143214,
2026_04_21_14_16_58.918,0,28.2,0,1.182,0,0,0,0, ,0,0,0,0,0, ,969.2,160.5,-211.5,-4.2,2.4,0,25,-5.49804,2.29178,0.446715,-0.254937,0.068058,0.143636,
2026_04_21_14_16_58.938,0,28.1,0,1.181,0,0,0,0, ,0,0,0,0,0, ,965.2,158.9,-199.5,-3.4,-1.3,0,25,-5.47445,2.29038,0.493676,-0.252705,0.0685731,0.144039,
2026_04_21_14_16_58.958,0,28.2,0,1.182,0,0,0,0, ,0,0,0,0,0, ,956.4,160.1,-218.8,1.8,-1.4,0,25,-5.45068,2.2887,0.540294,-0.250484,0.06904,0.14442,
2026_04_21_14_16_58.977,0,28,0,1.181,0,0,0,0, ,0,0,0,0,0, ,960.6,164.5,-215.5,-1,-1.3,-0.4,25,-5.42673,2.28675,0.586549,-0.248273,0.0694592,0.14478,
2026_04_21_14_16_58.997,0,28.1,0,1.182,0,0,0,0, ,0,0,0,0,0, ,951.2,165,-211.6,-4.2,-1.8,-0.4,25,-5.40261,2.28453,0.63242,-0.246075,0.0698308,0.145119,
2026_04_21_14_16_59.017,0,28.1,0,1.184,0,0,0,0, ,0,0,0,0,0, ,949.3,167.2,-218.2,-0.2,-2,0.5,25,-5.37833,2.28204,0.677888,-0.24389,0.070155,0.145437,
2026_04_21_14_16_59.036,0,28.1,0,1.183,0,0,0,0, ,0,0,0,0,0, ,959.3,179.1,-228.2,2.2,0.8,0.7,25,-5.3539,2.2793,0.722931,-0.24172,0.0704318,0.145734,
2026_04_21_14_16_59.056,0,28,0,1.184,0,0,0,0, ,0,0,0,0,0, ,963.3,166.7,-209.7,-4.2,0.3,0.6,25,-5.32933,2.27631,0.767528,-0.239564,0.0706612,0.146008,
2026_04_21_14_16_59.076,0,28,0,1.183,0,0,0,0, ,0,0,0,0,0, ,960.5,167.1,-218.2,0.1,2.1,0.4,25,-5.30464,2.27307,0.811655,-0.237425,0.0708431,0.14626,
2026_04_21_14_16_59.095,0,28.2,0,1.183,0,0,0,0, ,0,0,0,0,0, ,959.3,156.9,-202.5,-1.6,-2,0.9,25,-5.27982,2.26959,0.855289,-0.235302,0.0709783,0.14649,
2026_04_21_14_16_59.115,0,28,0,1.187,0,0,0,0, ,0,0,0,0,0, ,961,166.5,-215.6,0.9,-0.1,0.2,25,-5.2549,2.26588,0.898408,-0.233197,0.0710674,0.146697,
2026_04_21_14_16_59.135,0,28.1,0,1.181,0,0,0,0, ,0,0,0,0,0, ,956.5,165.1,-218.5,-3.1,2.4,-0.5,25,-5.22988,2.26195,0.940989,-0.231109,0.0711116,0.146882,
2026_04_21_14_16_59.155,0,28,0,1.183,0,0,0,0, ,0,0,0,0,0, ,947.1,160.8,-202.2,-3.7,-2.1,0.4,25,-5.20478,2.25781,0.983013,-0.22904,0.0711119,0.147045,
2026_04_21_14_16_59.175,0,28.1,0,1.182,0,0,0,0, ,0,0,0,0,0, ,957.2,169.5,-218.8,4.1,-1,1,25,-5.17959,2.25346,1.02446,-0.226989,0.0710699,0.147185,
2026_04_21_14_16_59.195,0,28.2,0,1.184,0,0,0,0, ,0,0,0,0,0, ,959.7,163.6,-221.5,-2.3,-1.2,1,25,-5.15434,2.24891,1.06531,-0.224959,0.0709869,0.147303,
2026_04_21_14_16_59.215,0,28.2,0,1.182,0,0,0,0, ,0,0,0,0,0, ,954.9,165.1,-203.6,-2,0.4,0.4,25,-5.12904,2.24416,1.10554,-0.222948,0.0708642,0.147398,
2026_04_21_14_16_59.235,0,28.1,0,1.184,0,0,0,0, ,0,0,0,0,0, ,962.4,165.5,-205.2,1.3,-1,1.4,25,-5.10369,2.23922,1.14514,-0.220957,0.0707032,0.147472,
2026_04_21_14_16_59.255,0,28.1,0,1.182,0,0,0,0, ,0,0,0,0,0, ,963.1,165.6,-212.6,-1.4,-0.4,0.4,25,-5.07831,2.2341,1.18409,-0.218987,0.0705051,0.147524,
2026_04_21_14_16_59.275,0,28,0,1.182,0,0,0,0, ,0,0,0,0,0, ,966.1,164.9,-194.8,-2.1,-2.4,0.3,25,-5.05292,2.22881,1.22237,-0.217036,0.0702713,0.147555,
2026_04_21_14_16_59.294,0,28,0,1.184,0,0,0,0, ,0,0,0,0,0, ,962.2,166.8,-209.1,1.5,-0.4,0.1,25,-5.02752,2.22335,1.25997,-0.215106,0.0700029,0.147566,
2026_04_21_14_16_59.314,0,28.2,0,1.184,0,0,0,0, ,0,0,0,0,0, ,953.3,163,-209.7,-2.8,-1.2,0.1,25,-5.00212,2.21772,1.29688,-0.213195,0.0697011,0.147557,
2026_04_21_14_16_59.333,0,28.2,0,1.182,0,0,0,0, ,0,0,0,0,0, ,956.2,166,-207,-2.1,-0.2,0.2,25,-4.97673,2.21194,1.33309,-0.211303,0.0693667,0.147529,
2026_04_21_14_16_59.353,0,28.2,0,1.182,0,0,0,0, ,0,0,0,0,0, ,959.3,165.8,-202.7,-2.9,0.3,0,25,-4.95136,2.20601,1.3686,-0.209431,0.0690008,0.147482,
2026_04_21_14_16_59.373,0,28.1,0,1.182,0,0,0,0, ,0,0,0,0,0, ,958.4,162.4,-202.2,0.9,-1.8,0.3,25,-4.92602,2.19993,1.40341,-0.207579,0.0686042,0.147416,
2026_04_21_14_16_59.393,0,28.1,0,1.182,0,0,0,0, ,0,0,0,0,0, ,950.8,160.7,-223.9,0.6,-1.5,0.7,25,-4.90071,2.19371,1.4375,-0.205745,0.0681781,0.147333,
2026_04_21_14_16_59.414,0,28.1,0,1.182,0,0,0,0, ,0,0,0,0,0, ,956.7,162.5,-216.9,-4.2,0.1,0,25,-4.87545,2.18737,1.47089,-0.203932,0.0677233,0.147231,
2026_04_21_14_16_59.439,0,28.1,0,1.184,0,0,0,0, ,0,0,0,0,0, ,958.4,169.6,-203.1,-1.2,-3.9,0.9,25,-4.85025,2.18089,1.50356,-0.202138,0.0672408,0.147113,
2026_04_21_14_16_59.453,0,28,0,1.184,0,0,0,0, ,0,0,0,0,0, ,962.6,171.1,-220.3,2.7,0.7,0.5,25,-4.82511,2.17429,1.53552,-0.200363,0.066731,0.146978,
2026_04_21_14_16_59.533,0,28,0,1.184,0,0,0,0, ,0,0,0,0,0, ,954.8,165.6,-209.2,-3,-1.8,0.4,25,-4.80004,2.16757,1.56676,-0.198608,0.0661945,0.146826,
2026_04_21_14_16_59.535,0,28.1,0,1.184,0,0,0,0, ,0,0,0,0,0, ,957.1,163,-201.7,-1.5,-0.2,0.6,25,-4.77507,2.16074,1.59728,-0.196872,0.0656316,0.146659,
2026_04_21_14_16_59.537,0,28,0,1.182,0,0,0,0, ,0,0,0,0,0, ,965,159.5,-200.5,0.4,-2.5,0.3,25,-4.75019,2.1538,1.62708,-0.195155,0.0650426,0.146476,
2026_04_21_14_16_59.539,0,28,0,1.185,0,0,0,0, ,0,0,0,0,0, ,966.3,167.1,-217.5,0.6,0,-0.3,25,-4.72542,2.14676,1.65617,-0.193457,0.0644278,0.146279,
2026_04_21_14_16_59.553,0,28.1,0,1.182,0,0,0,0, ,0,0,0,0,0, ,955.8,153.9,-201.4,-5,-1.4,-1.2,25,-4.70076,2.13962,1.68454,-0.191777,0.0637873,0.146067,
2026_04_21_14_16_59.572,0,28.1,0,1.182,0,0,0,0, ,0,0,0,0,0, ,961.3,152.8,-194.5,-2.8,-3.6,-1.1,25,-4.67622,2.13239,1.7122,-0.190115,0.0631211,0.145842,
2026_04_21_14_16_59.605,0,28,0,1.182,0,0,0,0, ,0,0,0,0,0, ,978.2,157.3,-191.6,-1,-5.2,-2.8,25,-4.65181,2.12506,1.73916,-0.188471,0.0624291,0.145602,
2026_04_21_14_16_59.612,0,28,0,1.182,0,0,0,0, ,0,0,0,0,0, ,979.3,166.3,-178.4,-2.6,-9.4,-4.2,25,-4.62754,2.11765,1.76543,-0.186845,0.0617104,0.145348,
2026_04_21_14_16_59.631,0,28,0,1.184,0,0,0,0, ,0,0,0,0,0, ,987.6,150.7,-188.7,-4.1,-6.2,-5.9,25,-4.60339,2.11013,1.79102,-0.185239,0.060963,0.145079,
2026_04_21_14_16_59.651,0,28,0,1.181,0,0,0,0, ,0,0,0,0,0, ,993.2,131.2,-160.8,-11.1,-12.9,-9.2,25,-4.57938,2.10252,1.81595,-0.183652,0.0601832,0.144791,
2026_04_21_14_16_59.670,0,27.9,0,1.182,0,0,0,0, ,0,0,0,0,0, ,985.8,112.3,-144.8,-5.5,-17.6,-14.4,25,-4.55548,2.09479,1.84026,-0.182087,0.0593657,0.144481,
2026_04_21_14_16_59.690,0,28,0,1.182,0,0,0,0, ,0,0,0,0,0, ,976.5,163.6,-204.3,10.8,-31.3,-16.1,25,-4.53167,2.08695,1.86399,-0.180548,0.0585021,0.144143,
2026_04_21_14_16_59.710,0,28.1,0,1.182,0,0,0,0, ,0,0,0,0,0, ,1026.7,221.6,-245.4,0.7,-29.6,-20.3,25,-4.50794,2.07896,1.88718,-0.179038,0.0575798,0.143768,
2026_04_21_14_16_59.732,0,27.8,0,1.182,0,0,0,0, ,0,0,0,0,0, ,1005.6,224.8,-257.2,-11.7,-37,-19.7,25,-4.48425,2.07081,1.90988,-0.177558,0.0565805,0.143341,
2026_04_21_14_16_59.750,0,28,0,1.182,0,0,0,0, ,0,0,0,0,0, ,949.4,158.3,-353.1,-15.6,-38,-18.9,25,-4.46057,2.06249,1.93213,-0.176112,0.0554792,0.142847,
2026_04_21_14_16_59.770,0,27.9,0,1.182,0,0,0,0, ,0,0,0,0,0, ,939.3,133,-145.9,-0.5,-40.7,-18.2,25,-4.43684,2.05401,1.95396,-0.174703,0.0542437,0.142265,
2026_04_21_14_16_59.790,0,28.1,0,1.182,0,0,0,0, ,0,0,0,0,0, ,921.5,202.2,-243.1,35,-29.7,-27.2,25,-4.41302,2.04535,1.97536,-0.173337,0.0528347,0.141569,
2026_04_21_14_16_59.810,0,27.9,0,1.184,0,0,0,0, ,0,0,0,0,0, ,1028.4,257.5,-297.3,-7.1,-21.3,-21,25,-4.38908,2.03654,1.99634,-0.172016,0.0512066,0.140732,
2026_04_21_14_16_59.829,0,27.9,0,1.184,0,0,0,0, ,0,0,0,0,0, ,1073.2,248,-300.7,-28.4,-16.5,-17.7,25,-4.36498,2.02758,2.01689,-0.170741,0.0493093,0.139721,
2026_04_21_14_16_59.855,0,27.9,0,1.181,0,0,0,0, ,0,0,0,0,0, ,1067,223.6,-222.6,-19.5,-14.8,-24.3,25,-4.34066,2.0185,2.03699,-0.169513,0.0470907,0.138501,
2026_04_21_14_16_59.869,0,28,0,1.181,0,0,0,0, ,0,0,0,0,0, ,968.1,223.8,-362.5,18.6,-17.3,-23.7,25,-4.31608,2.00935,2.05659,-0.168336,0.0444977,0.137034,
2026_04_21_14_16_59.889,0,28,0,1.182,0,0,0,0, ,0,0,0,0,0, ,990.3,278.1,-285.1,17.2,-11.7,-27,25,-4.29115,2.00019,2.07565,-0.167216,0.0414773,0.135277,
2026_04_21_14_16_59.909,0,28,0,1.182,0,0,0,0, ,0,0,0,0,0, ,985.1,325.8,-421,-21.5,-29.8,-23.4,25,-4.26578,1.99111,2.09409,-0.166157,0.0379765,0.133185,
2026_04_21_14_16_59.928,0,27.8,0,1.181,0,0,0,0, ,0,0,0,0,0, ,955.4,328.1,-312.8,-28.5,-30.3,-21,25,-4.23989,1.9822,2.1118,-0.165162,0.0339417,0.130712,
2026_04_21_14_16_59.948,0,27.8,0,1.183,0,0,0,0, ,0,0,0,0,0, ,886.8,307.9,-380.4,-4.1,-25.7,-8.5,25,-4.21339,1.97361,2.12865,-0.164236,0.0293177,0.127806,
2026_04_21_14_16_59.968,0,27.8,0,1.183,0,0,0,0, ,0,0,0,0,0, ,866,266.3,-441.5,34.3,-27,2.7,25,-4.18622,1.96548,2.14447,-0.163386,0.0240468,0.124417,
2026_04_21_14_16_59.989,0,27.9,0,1.184,0,0,0,0, ,0,0,0,0,0, ,938.7,241.8,-427.1,-6.5,-16.2,-9.4,25,-4.15831,1.95802,2.15907,-0.16262,0.0180693,0.120495,
2026_04_21_14_17_00.008,0,27.7,0,1.183,0,0,0,0, ,0,0,0,0,0, ,982.2,291.3,-347.1,-36.9,-23.1,-25.1,25,-4.12964,1.95142,2.17222,-0.161942,0.0113249,0.115993,
2026_04_21_14_17_00.028,0,27.8,0,1.181,0,0,0,0, ,0,0,0,0,0, ,956,303.4,-291.2,-26.8,-36.2,-27.3,25,-4.10019,1.94591,2.18365,-0.161358,0.0037528,0.110864,
2026_04_21_14_17_00.047,0,27.9,0,1.181,0,0,0,0, ,0,0,0,0,0, ,876.8,254.8,-230.4,21,-55.5,-18.4,25,-4.06993,1.9417,2.19308,-0.160878,-0.00470917,0.105063,
2026_04_21_14_17_00.067,0,28,0,1.184,0,0,0,0, ,0,0,0,0,0, ,865.6,246.7,-397.4,58.9,-57.9,-21.1,25,-4.03886,1.93905,2.20022,-0.160512,-0.0141269,0.0985383,
2026_04_21_14_17_00.087,0,27.9,0,1.187,0,0,0,0, ,0,0,0,0,0, ,901.4,369.7,-561.6,17.7,-46.1,-34.1,25,-4.00699,1.93822,2.20476,-0.160266,-0.0245724,0.0912413,
2026_04_21_14_17_00.114,0,28,0,1.183,0,0,0,0, ,0,0,0,0,0, ,924.4,462.5,-439.2,-38.1,-39.2,-23,25,-3.97435,1.93946,2.20641,-0.160139,-0.0361244,0.0831198,
2026_04_21_14_17_00.127,0,28,0,1.184,0,0,0,0, ,0,0,0,0,0, ,806.6,306.2,-420.2,-19.3,-37.7,25.2,25,-3.94099,1.94308,2.20479,-0.160126,-0.048866,0.0741209,
2026_04_21_14_17_00.147,0,28,0,1.181,0,0,0,0, ,0,0,0,0,0, ,932.4,203.2,-355.8,-11.9,-15.3,33.4,25,-3.90698,1.9494,2.19952,-0.160224,-0.0628831,0.0641938,
2026_04_21_14_17_00.166,0,28,0,1.183,0,0,0,0, ,0,0,0,0,0, ,909.1,241.2,-360.9,11.4,-27.4,17.1,25,-3.87239,1.95878,2.19018,-0.160434,-0.0782615,0.053296,
2026_04_21_14_17_00.186,0,28,0,1.183,0,0,0,0, ,0,0,0,0,0, ,887.9,275.6,-366,-27.5,-20.7,-2,25,-3.83734,1.97154,2.17634,-0.160761,-0.0950852,0.0413947,
2026_04_21_14_17_00.206,0,28,0,1.183,0,0,0,0, ,0,0,0,0,0, ,852.9,300.6,-451.4,-30.4,-13.4,-6.2,25,-3.80192,1.98802,2.15758,-0.16121,-0.113435,0.0284658,
2026_04_21_14_17_00.233,0,28,0,1.183,0,0,0,0, ,0,0,0,0,0, ,814.2,296.7,-434,-37.4,-19.4,-2.6,25,-3.76627,2.00855,2.13344,-0.161789,-0.13339,0.0144894,
2026_04_21_14_17_00.246,0,28,0,1.182,0,0,0,0, ,0,0,0,0,0, ,828.2,321,-452,-24.8,-8.2,1.7,25,-3.73053,2.03348,2.10346,-0.162514,-0.155022,-0.000550856,
2026_04_21_14_17_00.266,0,28.1,0,1.185,0,0,0,0, ,0,0,0,0,0, ,812.7,305.9,-419.3,-49.4,-1.3,0.9,25,-3.69487,2.06315,2.06718,-0.163406,-0.178401,-0.0166685,
2026_04_21_14_17_00.286,0,28.1,0,1.184,0,0,0,0, ,0,0,0,0,0, ,814.6,255,-338.3,-49.3,-9.7,-0.5,25,-3.65949,2.0979,2.02408,-0.164495,-0.203589,-0.0338737,
2026_04_21_14_17_00.305,0,28.1,0,1.181,0,0,0,0, ,0,0,0,0,0, ,802.7,295.5,-379.3,0.4,-18.8,-6.5,25,-3.62462,2.13809,1.97369,-0.165817,-0.230642,-0.0521731,
2026_04_21_14_17_00.324,0,28.2,0,1.184,0,0,0,0, ,0,0,0,0,0, ,774.7,314.4,-488.8,5.1,-17.7,-9.5,25,-3.5905,2.18405,1.91549,-0.167414,-0.259611,-0.0715709,
2026_04_21_14_17_00.344,0,28.3,0,1.185,0,0,0,0, ,0,0,0,0,0, ,788,341.9,-528.5,-40.1,-2.3,-16,25,-3.5574,2.23616,1.84898,-0.169328,-0.290542,-0.0920694,
2026_04_21_14_17_00.364,0,28.4,0,1.183,0,0,0,0, ,0,0,0,0,0, ,755.2,344.3,-417.1,-76.3,-12.5,-14.4,25,-3.52564,2.29474,1.77364,-0.171604,-0.323476,-0.113671,
2026_04_21_14_17_00.384,0,28.5,0,1.181,0,0,0,0, ,0,0,0,0,0, ,758.6,368.1,-432.3,-0.7,-0.8,-11.1,25,-3.49553,2.36017,1.68894,-0.174289,-0.358449,-0.136377,
2026_04_21_14_17_00.404,0,28.6,0,1.181,0,0,0,0, ,0,0,0,0,0, ,755.6,372,-495.2,-14.7,-0.1,-8.3,25,-3.46744,2.4328,1.59433,-0.177437,-0.395491,-0.16019,
2026_04_21_14_17_00.424,0,28.7,0,1.184,0,0,0,0, ,0,0,0,0,0, ,763.9,321.1,-345.3,-36.5,-0.8,-5.7,25,-3.44175,2.51303,1.48926,-0.181106,-0.434626,-0.185112,
2026_04_21_14_17_00.444,0,28.8,0,1.184,0,0,0,0, ,0,0,0,0,0, ,805.2,298.4,-299.6,-24.8,-5.8,-10.8,25,-3.41887,2.60124,1.37318,-0.185351,-0.47587,-0.211145,
2026_04_21_14_17_00.463,0,28.8,0,1.184,0,0,0,0, ,0,0,0,0,0, ,800.6,313.8,-311.1,-16.4,-13.8,-17.4,25,-3.39923,2.69781,1.24555,-0.190233,-0.519234,-0.238287,
2026_04_21_14_17_00.483,0,28.8,0,1.183,0,0,0,0, ,0,0,0,0,0, ,801,389.4,-406.4,-14.7,-19.4,-20.7,25,-3.38327,2.80314,1.10587,-0.19581,-0.564721,-0.266538,
2026_04_21_14_17_00.503,0,28.9,0,1.182,0,0,0,0, ,0,0,0,0,0, ,751.3,397.4,-435.3,-23.5,-31.7,-12.5,25,-3.37144,2.91759,0.953668,-0.202143,-0.612335,-0.295899,
2026_04_21_14_17_00.523,0,29.1,0,1.187,0,0,0,0, ,0,0,0,0,0, ,712.7,359,-456.5,-27.9,-28.9,-6,25,-3.3642,3.04157,0.788463,-0.20929,-0.662075,-0.32637,
2026_04_21_14_17_00.543,0,29.1,0,1.183,0,0,0,0, ,0,0,0,0,0, ,702.1,353,-408.6,-22.6,-30.3,-5,25,-3.36204,3.17546,0.609797,-0.21731,-0.713942,-0.357951,
2026_04_21_14_17_00.563,0,29.1,0,1.183,0,0,0,0, ,0,0,0,0,0, ,733.8,434.8,-472.4,-23.9,-29.3,-6.9,25,-3.36544,3.31967,0.417211,-0.226263,-0.767938,-0.390643,
2026_04_21_14_17_00.583,0,29.2,0,1.184,0,0,0,0, ,0,0,0,0,0, ,761.3,475,-503.2,-28,-28.8,-2.5,25,-3.37493,3.4746,0.210246,-0.236207,-0.824065,-0.424441,
2026_04_21_14_17_00.604,0,29.2,0,1.183,0,0,0,0, ,0,0,0,0,0, ,738.5,449.4,-426,-43.3,-12.1,-0.6,25,-3.39106,3.64068,-0.0115537,-0.247203,-0.882325,-0.459341,
2026_04_21_14_17_00.622,0,29.1,0,1.181,0,0,0,0, ,0,0,0,0,0, ,712,462.4,-428.7,-64.7,-6.2,-2.8,25,-3.41436,3.81835,-0.248647,-0.259314,-0.94272,-0.495335,
2026_04_21_14_17_00.642,0,29.2,0,1.184,0,0,0,0, ,0,0,0,0,0, ,770.1,503.7,-416.2,-15.9,-3,0.4,25,-3.44539,4.00807,-0.501485,-0.272605,-1.00525,-0.532413,
2026_04_21_14_17_00.663,0,29.3,0,1.185,0,0,0,0, ,0,0,0,0,0, ,758,513.7,-489.8,-18.1,-15.1,3.7,25,-3.48472,4.21031,-0.770508,-0.287147,-1.0699,-0.57056,
2026_04_21_14_17_00.681,0,29.3,0,1.182,0,0,0,0, ,0,0,0,0,0, ,723.5,448.8,-426.8,-35.7,-18.7,4.8,25,-3.53291,4.42558,-1.05615,-0.30301,-1.13666,-0.609761,
2026_04_21_14_17_00.701,0,29.3,0,1.184,0,0,0,0, ,0,0,0,0,0, ,693.2,426.1,-398.3,-43.4,-20.9,2.8,25,-3.59054,4.65439,-1.35882,-0.320264,-1.20552,-0.649994,
2026_04_21_14_17_00.723,0,29.3,0,1.182,0,0,0,0, ,0,0,0,0,0, ,761.9,454.7,-435.9,-11.7,-27.8,4,25,-3.65819,4.89727,-1.67894,-0.338979,-1.27646,-0.691236,
2026_04_21_14_17_00.741,0,29.3,0,1.181,0,0,0,0, ,0,0,0,0,0, ,701.9,477.2,-490.9,-29.1,-48.5,4.6,25,-3.73643,5.15476,-2.01689,-0.359224,-1.34946,-0.73346,
2026_04_21_14_17_00.760,0,29.3,0,1.181,0,0,0,0, ,0,0,0,0,0, ,707.6,505.7,-501.9,-34.3,-51.5,13.4,25,-3.82584,5.42738,-2.37305,-0.381068,-1.42451,-0.776634,
2026_04_21_14_17_00.780,0,29.3,0,1.184,0,0,0,0, ,0,0,0,0,0, ,680.6,519.4,-504.2,-19.6,-46.9,15.9,25,-3.92701,5.71569,-2.74779,-0.404578,-1.50158,-0.820724,
2026_04_21_14_17_00.800,0,29.3,0,1.182,0,0,0,0, ,0,0,0,0,0, ,709.9,524.7,-531.1,-9.5,-30,16.9,25,-4.04054,6.02021,-3.14147,-0.429818,-1.58068,-0.86569,
