Accel_x	Accel_y	Accel_z	gyro_x	gyro_y	gyro_z
976.5	181.7	9.5	-0.9	-0.3	-2.3
976.3	182	9.6	-1	-0.2	-1.9
977.9	180.2	10.8	-0.4	-0.2	-2.4
974.2	183.3	17.9	-1.1	-0.7	-2.5
977.2	180.5	3.1	-0.8	-1.2	-2.4
973	184	6.1	-0.2	-0.2	-2.8
969.6	185.7	10.4	-1.2	-0.3	-2.7
981.4	184.8	12.8	-1.1	-0.1	-2.4
972.1	187.2	12.8	-0.4	-0.7	-2.3
976.4	190.9	14	0.2	-0.7	-1.7
974.2	190.9	8.1	0.5	-1.3	-0.5
973.7	183.9	4.8	0.9	-0.5	-0.6
977	180.5	3.2	1	-0.1	-0.7
974.4	175.7	7.2	0.4	0.5	-1.3
980.7	174.3	11.2	-0.4	0.2	-2.2
977.6	177.1	14.1	-0.7	0	-2.7
973.6	181.6	5.9	-0.1	-0.2	-2.8
973.2	181.8	5.6	0.1	0.9	-3.5
975.8	183.3	11.2	-0.9	1	-3.6
976.3	184.4	15.6	-1.2	1.1	-3.5
974.6	184.9	16.9	-0.7	0.3	-3.6
975.5	187.7	14.4	-0.5	0	-3.6
973.6	190.3	11.3	-0.6	0	-3.6
976.6	191.7	14.1	-0.9	0.4	-3.3
975.7	194.7	19.7	-0.8	0	-2.8
973.1	194.7	14.8	0	-0.8	-1.9
974.2	190.1	15.7	0.3	-0.4	-1.6
974.4	186.6	9.1	0	-0.5	-1.7
975.7	186.7	9.8	-0.1	0.4	-2.1
977.1	184.4	14	-0.4	0.3	-2.7
973.6	184.6	9.6	-0.3	0.3	-2.8
976.1	186.8	13.9	-0.3	0.8	-3.9
974.2	193.6	22.4	-1.5	0.2	-3.8
975.8	196.1	19.7	-1.3	0	-3.4
969.1	196.8	20.7	-0.5	-0.2	-3
977.9	197.2	17.3	-0.5	-0.3	-2.7
969.4	195.4	16.2	-0.8	-0.5	-2.1
976.9	193.1	19	-0.5	0	-2.3
974.4	194.5	21.4	-0.9	-0.7	-2.1
972.7	197.9	20.7	-0.8	-1	-1.8
973.1	198.6	14.5	0	-1	-1
970.3	197	17.8	0.3	-0.3	-1.1
977.2	189.6	15.2	0	-0.1	-0.8
974.3	190	22.3	-0.5	-0.2	-1.3
978.3	191.2	23.3	-0.6	-0.8	-1
971.5	190.4	24	-0.2	-1	-0.6
972	190.4	16.3	-0.2	-1.3	-1.2
974.4	192.6	15.5	-0.4	-1	-2
975.3	197.1	14	-0.9	-0.1	-1.1
975.4	190	26	-1.1	-0.9	-0.7
970.4	189	15.3	0	-1.8	-1.2
978.3	193.7	16.4	0.3	-0.4	-1.3
977.2	191.4	26.3	-2.6	0	-0.7
976.5	190.3	8.7	-3.4	2.1	-1.6
975.4	185.3	32.3	-3.3	1	-1.1
984.9	177.4	44.4	-3.4	0.8	-1.6
980.9	162.3	27.4	-4.5	0.6	-5.4
955	182.3	-16.8	-4.3	0.3	-8.2
980.1	210.6	0.3	-6	4	-9
980.7	236.5	34.5	-5.7	3.1	-8
958.8	233.5	31.3	0.7	-0.6	-3
959.1	216.3	15	5.1	-0.8	0.9
958.3	207.7	17.7	5.9	0	3
975	192.8	18.6	1	0.6	5.7
974.6	172.4	20	-1.2	0.7	3.1
973.8	161.3	18	-0.1	0.5	-0.7
978.1	159.5	16.1	-0.6	0.7	-3.7
974.6	163	15.2	-3.6	1.9	-7.4
974.2	170.7	20.7	-6.1	2.9	-10.4
969.7	185.3	27.5	-6.5	2.9	-12.7
976.4	206	36.8	-5.9	2.4	-14.1
969.1	227.2	41.7	-5.4	1.2	-12.7
966	231.3	35.5	-4.9	0.5	-9.6
967.7	234.7	35.1	-3.7	0.3	-7.8
966.4	236.8	33.2	-2.5	0	-6
969.2	233.8	33	-1.6	0	-3.6
968.5	226.8	33.4	-0.9	-0.1	-2.3
971.4	226.5	32.7	-0.7	-0.3	-1.3
965.3	222	30.1	-0.4	-0.5	-0.2
975.4	213.5	27.2	0	0.2	0
958.7	212	32.7	-0.5	0.3	-0.3
975.7	204.9	38.5	-1.1	1.1	-1.8
967.8	209.2	32.8	-1.5	-0.1	-1.8
968.6	214.3	42.3	-1.6	0.7	-3.2
968.1	216.9	38.4	-1.5	-0.2	-2.3
965.3	215	40.7	-1	0.7	-2.8
970.9	217.2	44	-1.4	-0.1	-3.3
965	221.1	36.8	-1.3	-0.8	-2.5
970	220.8	39.7	-0.1	-0.4	-2.5
966.7	223.7	39.9	0	-1.2	-2.3
971.6	225.8	36.4	0	-0.4	-1.2
972.5	231.5	42.9	-0.3	-0.4	0
964.3	229.3	42.9	-0.1	-1.4	2.1
966.5	220.8	39.4	1.2	-1.5	2.9
969.7	216.6	40.8	1.2	-1.8	2.5
968.8	213.6	38.5	0.8	-2	2.7
965.6	206.1	28.3	1	-1.6	2.9
973.8	202.1	32.9	1.4	-0.4	1.8
969.4	199.2	31.9	0.9	-0.7	1.2
969.4	197.7	34.6	0.5	-0.2	0
971.3	200.8	37.5	0.1	-0.6	-1.3
971.1	205.2	36.1	0	-0.7	-1.8
968.9	208.8	37.1	0.1	-0.6	-1.6
972.1	210.9	38.9	0.5	-0.1	-1.4
969.6	209.9	44.7	0	-0.6	-0.6
970.2	203.9	35.8	0.4	-1.1	-0.4
970.3	202.3	33.8	1	-1	-1.5
970.5	205.5	31.3	0.2	-0.9	-1.7
970.8	206.4	25.5	-0.2	-0.6	-1.3
973.5	208.1	34.7	-0.1	0.1	-1.9
970.3	208.1	34.5	-0.3	-0.5	-1.1
968.3	207.6	33.6	0.4	-0.1	-1.1
973.6	210	39.6	0.2	-0.3	-1.4
968.2	209.4	35.2	-0.1	-0.7	-0.5
970.7	203.9	35.7	0.2	-0.1	-0.4
974.3	202.7	40	-0.1	-0.9	-1.2
969.1	207.3	30.8	-0.3	-1.2	-1
970.2	208.2	32.5	0	-0.3	-0.8
976.9	218.8	37.7	0.1	-0.1	0.3
971.9	228.6	42.6	0	-0.5	4.4
971.1	225.7	37.5	1.4	-1	7.8
970.2	217.8	35.5	2.4	-1.6	9.9
970.5	206.9	29.9	2.5	-1.5	11.7
976.6	192.3	29	2.3	-0.9	12.8
972.2	176.6	31.1	2.1	-1.1	12.9
976.8	169.6	32.2	2	-1.1	11.6
976.4	165.1	29.5	1.7	-1.2	10.8
976.9	158.8	31.4	2	-0.7	9.8
973.2	152	30.8	1.4	-0.6	8.2
980.3	150.5	37.2	0.7	-0.4	5.9
976.9	146.2	33.5	0.4	-1.2	4.1
980.4	144.8	28.6	0.9	-0.4	2.5
976.8	145.9	30.5	0.8	-0.1	0.9
984.8	151.4	33.6	-0.1	0.1	-0.7
978.8	159.3	34.9	-0.3	0	-0.5
989.6	173.5	36.4	-0.4	-0.2	1.8
981.4	184.6	37.8	0.5	-0.9	5.9
980.2	178.9	31.9	1.6	-1.2	10.2
970.9	167.8	31.2	2.7	-1	11.5
980.9	153.9	30.5	2.3	-1	13.4
981.5	135.1	31.9	2	-0.8	14.3
980.8	113.5	33.4	2	-1	12.8
983.5	97.4	31.3	2	-1.1	9.5
983.1	90.9	27.2	1.7	-0.7	5.6
983.5	87.6	27.7	1	-0.4	1.6
988.8	94.2	29.7	0	0.1	-2.1
983.3	105.5	29.5	-0.5	0	-4.1
984.3	111.9	29.7	-0.6	0.1	-5.5
982.2	120.1	29.6	-1	0	-7.1
984.3	126	25.8	-1.2	0.2	-7.2
986.4	133.1	37.4	-1.5	0.4	-7.2
987.5	141.8	38.6	-1.4	-0.2	-5.3
977	144.5	35.7	-0.6	-0.6	-2.8
987.1	137.6	41.2	0	-0.5	-2.4
981.9	133.3	32.1	0.1	-1.6	-1.8
984	127.3	30.3	0.1	-0.7	-1.6
988.1	124.5	31.4	0	-1.1	-2.1
981.6	123.7	21.2	0	-0.7	-2.4
984.9	121.7	30.5	0	0.2	-3.8
975.4	128.9	27	-0.6	-0.5	-4.5
989.8	129.5	30.2	-0.5	0.7	-5.3
980.7	143.7	31.9	-0.3	0	-3.9
982.1	140.2	35.6	-0.6	0.9	-3.4
988.5	136.3	34.3	0.3	0	-2.3
978.2	137.5	30.8	0.2	0.3	-2.7
986.4	133.3	30.5	0	0.6	-2.8
982.1	133.1	34.6	-0.3	0.7	-3.1
983.7	134.2	38.2	-0.8	0.7	-2.9
983.2	139	41.8	-0.7	-0.1	-3
979.6	140.3	34.7	0	-0.3	-2.6
980.8	141.3	36.1	0.3	0.5	-2.2
983.3	139.7	40.6	-0.4	0.1	-2.3
983.6	138.5	39.3	-0.2	0	-2
981	137.5	36.9	0.4	-0.2	-2
984	139.7	34.7	0.5	0	-1.9
983.2	138.3	35.6	0.1	0.3	-1.7
981.5	137.5	36.9	0	0.3	-1.7
981.2	136.3	36.9	0.1	0.5	-2
984.9	137.2	39.9	0	0.3	-2.5
981.9	140.3	40.7	-0.3	0	-2.2
980.8	140.1	41.3	-0.1	-0.1	-2
982.5	139.2	40.4	0.1	-0.4	-1.9
980.1	142.4	37.9	0	-0.7	-1.8
984.8	141.7	41.5	-0.1	-0.5	-1.9
989.3	141.2	34.4	0.1	-0.6	-1.2
973.3	144.2	38.8	0	-0.6	-1.3
988.1	138.7	31.8	0.3	-0.5	-0.8
973	142.4	41.5	-0.1	-0.4	-1
987.7	143.4	40.2	-0.4	-0.6	-0.3
978	142.4	41.3	0.1	-1	0.3
981.6	142.3	45.4	0	-1.3	0.3
982.2	138.7	39.6	0.1	-1.8	0.9
981.5	132.2	40	0.1	-1.8	0.9
983.2	132.4	38.5	0.1	-2	0.7
984.6	125	34.5	-0.3	-1.8	0
980.5	128.4	32.5	-0.4	-1.7	-0.9
988	132.8	35	-0.7	-1.5	-1
981.3	133.9	35.1	-0.7	-1.6	-0.5
982.4	131.2	36.2	-0.2	-1.4	-0.6
981.8	133.3	34.7	-0.1	-1.5	-0.9
983.5	131.5	32.4	-0.5	-0.9	-0.7
984.3	129.1	37.5	-0.6	-0.7	-0.5
982.9	126.2	35.1	-0.4	-1	-1
982.9	126.9	36.3	-0.6	-1	-2
986.8	134.2	35.5	-1.2	-1.4	-2
980.7	136.3	32.3	-0.7	-1.3	-1.3
984.3	133.7	32.9	0	-0.9	-1
981.6	131.9	33	-0.1	-1	-0.7
984.2	131.3	36.8	-0.4	-0.8	-0.8
984.3	132.8	34.3	-0.3	-1.3	-0.3
981.8	133	34.4	0	-1.1	0
982.5	126.2	29.2	0.2	-0.9	0
985.5	124.7	34.3	0	-0.6	-0.5
985.3	125.1	33.8	-0.6	-0.1	-0.4
978	122.6	31.2	-0.9	-0.5	-0.5
981.5	120.3	31.9	-0.3	-1	-1.1
984.6	126.5	32.4	0	-0.1	-2.5
986.4	131.4	33.4	-1	-0.3	-1.8
982	130.8	34.5	-1.2	-0.3	-1.9
984.4	130.3	35.6	-0.2	-0.5	-1.7
985.8	130.6	37.4	-0.3	-0.8	-1
982.1	128	33.4	-0.5	-0.9	-0.9
984.7	123.6	36.8	-0.4	-0.6	-1.4
982.2	123.5	33.3	-0.1	-0.6	-1.9
984.9	122.4	32.4	-0.5	-0.2	-2.5
985.2	125.8	29.6	-0.3	0	-2.8
982.7	128	32.5	-0.2	0.1	-2.9
986.5	131.7	30.6	0	0	-3
983.1	134.2	34.1	-0.2	0	-2.4
984.3	130.8	35.2	-0.1	0.1	-1.5
983.6	129	41.3	-0.5	0	-1.7
981.5	128.9	36.9	-0.4	-0.5	-1.7
981.5	117.4	36.1	0	-0.1	-2.6
987.5	121	37.7	-0.4	-0.2	-4.1
985.2	127	36.8	-1.4	-0.3	-4.7
980.5	132.5	34	-1	0	-4.5
983.6	136.4	37.1	-0.5	0.2	-4.3
989.2	139.1	44.7	-0.9	-0.3	-3.6
977.2	141.1	37.4	-0.6	-0.8	-2.5
983.6	136.9	40.2	-0.2	-0.1	-2.7
977.5	135.7	43.8	-0.8	-1	-2.7
982.2	127.6	35.8	-0.7	-0.8	-2.9
983	128.1	34.4	-0.4	-0.3	-4
984.7	129.5	30.8	-0.9	-0.3	-4.9
983.3	132.6	34.6	-1	0	-6.2
984	142.5	38.3	-1.5	-0.4	-6.4
982	151.2	36.3	-1.4	-0.5	-5.3
980.9	152.2	37.5	-0.6	-0.3	-3.4
979.6	152.4	39.9	0	-0.6	-2.7
980.8	146.6	33.4	0.2	-0.5	-2
983.3	141.3	36.1	0.4	-0.1	-2.1
984.9	139.1	38.6	-0.1	-0.2	-2.2
981.5	139	38.2	-0.4	-0.5	-2.2
981.3	140.6	35.2	-0.1	-0.4	-2.8
980.3	144.5	35.6	-0.3	-0.3	-2.9
982.1	145.9	36.7	-0.5	0	-3
980.3	149.2	37.1	-0.6	0	-3.1
981.5	148.5	36.4	-0.4	-0.3	-2.6
981.3	144.1	38.2	-0.2	-0.2	-2.8
982.1	144.8	37.7	-0.5	-0.3	-3.1
980.7	144.8	34.7	-0.5	-0.2	-3.2
977.6	142.9	37.9	-0.5	0	-3.9
988.2	140.6	37.3	-0.7	0.1	-4.4
973.8	143.3	36.1	-0.9	0	-5.4
983	138.3	37.2	-1	0.9	-6.9
981.9	141.2	42.9	-2.1	0.1	-8.5
979	143.7	38.3	-2.5	0.4	-9.9
979.7	143.1	48.2	-2.9	0.3	-11.5
975.4	151.1	43.8	-3.3	0.1	-13
983.2	142.5	54.5	-4	1.1	-15.1
983.3	127.5	75.9	-5.6	1.5	-19.9
998.5	80.6	90.9	-9.5	4.6	-28
1004.3	116.9	56.7	-18.2	10.1	-39.9
969.8	196.6	105.2	-23.6	6	-44.3
1185.1	148	248.6	-40.5	21.2	-57.1
1535.8	81.9	410.1	-46.1	31.8	-79
1363.4	14	456.1	-53.8	-6.5	-74
1363.8	116.9	273.4	-71.5	-69.3	-67.1
1293.4	284.9	81.5	-76.5	-75.8	-50.6
1163.2	240.4	3.4	-63.5	-67.3	-43.6
1053.7	274	-76	-55.8	-71.1	-53.7
994.9	340.8	-138.3	-40.3	-71.5	-58.8
987.3	406.4	-147	-21.9	-61.3	-37.1
971.3	370.9	-141.2	-41.1	-52.9	-7.3
954.5	308.3	-69.7	-67	-43.6	1.2
962.8	274.6	-8.9	-72.9	-37.1	-9.5
929	276	70.6	-70.4	-39.1	-27
889.1	303.2	102.9	-66.7	-50.3	-39.6
864.2	323.8	36.1	-61.3	-64.3	-42.5
825	356.3	-12.8	-66.5	-72.7	-39.4
838.6	396.2	-35.7	-71.1	-67.5	-34.7
835.5	436.2	20.1	-69.5	-66.2	-29.6
813.4	470.8	22.9	-66.2	-76	-21
825.5	474.8	-31.4	-65.3	-81.1	-4.3
820.9	456.9	-38.5	-70.9	-79.9	9.8
798.9	427.4	-47.3	-72.3	-83.2	19.5
788.5	405.3	-64.4	-73.3	-85.2	20.9
794.3	378.5	-129.5	-75.1	-80.5	13.6
788	405.6	-148.4	-73.3	-68.9	-0.6
797.4	428.4	-129.8	-68	-58.1	-11.8
802.9	444.7	-97.5	-70.2	-52.3	-14.4
802.1	453.9	-67.5	-74.7	-57.3	-11.8
786.9	451.7	-63.5	-75	-68.8	-11.5
781.7	496.8	-136.3	-78.8	-74.7	-10.2
784.3	521.7	-163	-76.8	-67	-7.8
802	529.9	-142.4	-72.8	-61.5	-5.8
799.4	553.9	-87.4	-69.2	-63.3	-1
793.8	559.6	-116.9	-70.5	-76.5	6.5
793.9	571.2	-167.7	-73.6	-78.4	10.4
758.9	601.4	-184.8	-70.9	-78.3	12.4
716.4	621.4	-208.7	-55.6	-73.2	15.5
730.2	633.3	-218	-42.5	-65.5	20.3
747.4	634.7	-190.4	-39	-60.3	23.1
742.9	623	-196	-34	-64.1	29.2
722.1	596.8	-228.5	-26.7	-66.6	31
716.6	586	-294.3	-9.3	-60.1	31.4
693.7	561.4	-295.5	0.7	-55.2	25
708.2	546.9	-333.1	5.1	-51.3	23.4
710.4	519.6	-361.8	6.9	-44	25.2
746.5	496	-365.7	0.6	-32.5	25
765.1	495.4	-330.5	-2	-27.2	20.9
759.6	493.8	-328.6	-2	-35.3	19.1
768.5	472	-376.3	-6.1	-36.3	19
756.4	450.9	-372.9	-13	-31.8	17.4
743.5	455.9	-388.7	-14.5	-32.7	14
748.9	468	-415.6	-11	-28.9	12.8
760.3	469.4	-391.2	1.2	-24	11
765.1	460.9	-376.5	3.8	-25.6	8.3
764.5	460.2	-396.7	6.1	-23.1	9.8
755.1	469.8	-450.4	-7	-14.4	16
730.2	441.5	-439.2	-24	-5.3	24.6
747.9	401.2	-420.8	-24.5	-5.2	19.3
762.5	402.9	-405.3	-16.6	-11.5	8.9
758.1	439.5	-434	-8.3	-15.2	3.5
753.9	446.2	-432	-7.6	-9.5	4.8
764.7	435.4	-421.8	-4.4	-5.4	3.3
774.4	429.8	-413.3	3.1	-3.4	-1.7
778.8	428.2	-401.4	5.7	-5.7	-2.4
786.6	439.9	-401.1	7.9	-10.7	-1.5
778.9	376.4	-459.8	-0.2	-9.9	-7.8
726.8	310.9	-460.4	-12.4	2.1	-35.9
771.2	257.6	-483.8	-5.5	-2.8	-72
711.7	373.4	-478	-28.9	9.7	-113.3
699.3	560.5	-376.8	26.7	-1.3	-102.1
726.8	685.5	-447.1	-5	-10.2	-65.9
658.3	701.5	-428.1	-37.2	-11.9	-18.2
646.4	626.4	-494.5	-38.2	-10.5	20.9
655.6	549.5	-480.1	-31.4	-5	28.7
666.7	548.3	-455.4	-17.5	-5.5	21.3
693.8	548.2	-450.5	-2.8	-7.5	18.7
711.7	489.3	-485.7	-8.3	-3.2	10
718.9	496.9	-403.9	29.1	-2.5	-0.9
752.1	548	-456.4	22.1	-6.7	-8.2
745.4	542.1	-446.6	2.5	-0.1	-9
732.9	535.2	-418.5	-4.6	-3.2	-9
725.7	534.3	-444.2	-1	-6.3	-5.6
727.9	530.5	-470.4	-1.4	-3.2	0.1
740.1	523.8	-450.9	-9.6	-0.5	5
731.3	522.4	-431.6	-11.2	-2.5	3.6
710.5	526.8	-431.2	0	-7.3	-0.1
716.1	525.1	-473.1	7.8	-6.7	0.3
717	520.1	-471	4.7	-3	0.9
703.6	515.1	-458.8	0.4	-1.6	0.1
692	515.5	-453.2	2.8	-3.1	-1.3
699.2	519.1	-476	6.4	-3.6	-1.9
705.5	519.6	-473.5	3.7	0.2	-0.4
692.3	510.2	-465.9	-3.7	2.6	1.3
670.5	507.2	-466.9	-5.8	4.4	1.4
666.3	517.7	-469.3	0.6	6.2	-1.5
671.6	548.5	-451.4	7.1	7.5	-6.7
681.5	569.5	-457.2	8.2	9.8	-6
668	581.6	-455.5	6.3	13.2	-1
647.9	606.9	-445.9	5.6	15.8	1
616.3	654.9	-454.1	9.1	20.3	0.8
572.9	687.9	-438.5	16.8	26.9	-0.2
579.7	687.5	-467.1	29.6	33.2	-1.3
603.1	672.8	-477.7	42.9	41.6	-0.6
614.1	656.3	-470.3	46.1	46.6	1
613.4	621.2	-427	46.4	55.4	2.5
598.2	595.3	-394	50.9	62.7	0.3
603.8	579.2	-390.9	57.7	70.5	-5.2
624	580.6	-374.6	65.8	76.8	-10.8
661.7	578	-374.3	74.2	82.9	-10
683.7	531	-317.7	79.4	89.8	-7.9
697.8	482.4	-253.9	81.1	91.3	-11.2
715.6	478.1	-265.1	81.5	91.5	-14.9
749.5	496.4	-241.5	79.5	95.6	-17.4
777.4	486.5	-197.1	81.5	96.1	-17.5
808.8	435.4	-173.9	82.2	95.4	-11.6
851.4	380.9	-173.4	63.7	97.5	-5.2
874.6	323.3	-108.7	56.3	99.7	-1
915.4	286.6	-47.7	67.5	93.2	-11.2
931.5	328.1	-65.6	75.9	83.1	-26
938.2	371.4	-93.6	78.8	76.3	-27.5
941.1	372.4	-104.6	72.1	74.9	-19.1
953.2	348.3	-65.4	59.9	75.5	-13.6
954.5	352.1	-38.3	55	69.4	-15.3
942.5	390.2	-74.8	57.3	58.3	-16.8
919.4	417.7	-89.7	59.3	52.9	-14.2
895.8	400.6	-104.1	61.6	52.9	-10.7
890.2	384.1	-89.9	58.3	57.4	-11
880.1	393.5	-54.8	51.9	57.5	-14.7
873.4	426.5	-64.4	49.1	51	-15
861.9	450.4	-90.5	48.4	49.4	-10.4
862.4	427.3	-66.8	51.1	56	-7.5
860.4	415.4	-27.3	52.3	58.5	-11
858.2	420.1	-14.8	51	54.7	-10
894	426.2	-22.3	46.6	55.2	-4.9
904.6	423.7	11.4	43.6	56.9	-0.5
908.8	414.1	20.5	44.7	55.3	2.3
924.3	390	44.6	41.9	58	3.2
958.9	381.4	73.1	45	57.6	2.3
968.3	395	100.8	44.6	53.2	-0.4
945.8	400	86.3	43.4	45	3.1
949	394.4	89.8	37.7	43.1	6.5
949	385	93.9	36.8	39.4	5.8
939	374.5	75.8	40	35.7	4.2
933.1	368.5	71.6	41	33.7	3.8
919	366.2	84.4	40	27.1	4.7
928.7	358.7	60.3	33.2	27.2	7.1
934.2	349.9	82.5	25.3	31	4.5
906.3	345.5	98.7	32	22.3	-5.8
915.6	354.1	96.6	35.9	16.8	-14.1
942.3	390.9	130.1	27.2	14.5	-14.6
959.8	390.8	113.5	21	10.6	-9.3
953.3	401.8	93.7	18.6	10.5	-7.5
939.5	409.1	99.3	18.9	6.5	-4.9
925	405.7	77.5	16.1	4.6	1
947.3	387.8	60.9	9	15.1	0.9
946.1	393.5	121.7	5.6	18.7	-9.8
941.6	421	136.8	5.8	13.1	-17.5
912.2	447.1	115.8	9.1	6	-12.1
899.4	443.1	77.8	11	7.1	-2.4
892.4	429.8	59.9	8.7	13.8	0.8
905.2	421.7	90.9	6.1	22	-5
902.7	446.5	109.6	4.1	20.5	-7.6
892.5	450.8	103.7	1.6	15.5	4.3
912.5	421.1	86.4	-4.2	20.4	8.1
923.3	417.9	125.3	-2.3	24.5	3.1
927.7	425.1	131.3	4.4	23.4	-1.7
913.5	431.7	140.6	8.5	17.9	0.5
926.2	403.5	121.5	5.6	18.6	2.8
925.5	395.5	137.4	3.7	20.5	-0.2
916.8	401.9	132.9	1.8	18.6	-0.1
908.8	412.2	146.2	-3.2	14	5.2
896.7	398.5	149.2	-6.3	8.9	11.6
906	345.5	109.8	-6.1	11.8	9.4
906.1	335.6	149.9	-8.4	16.3	1.1
891.1	334.3	161.3	-9.7	12.6	0.2
853.3	326.6	147.3	-9.5	8.6	2.1
788.2	299.3	115.9	-1.8	4.8	5
861.9	242.7	-9	-0.2	12.9	0.2
1906.7	552.7	267.2	-35.3	98	-101.1
781.6	691.4	631.2	-32.2	-17.9	-49.5
982.6	553.1	57.6	-9.8	-26.7	27.6
890.1	404.5	177.6	-15.2	3.3	21.6
776.7	368.2	331.7	8.2	-1.5	2.9
795.7	375.4	246.5	2.1	-6.1	-4.4
815.7	538.2	233	-12.5	-3.8	-4
848.2	673.3	230.3	-25.1	-4.8	18
877.6	671.8	201.2	-25.9	-7.2	45.7
875.4	577.1	160.2	-18.9	-9.5	79.3
894.4	424.5	118.6	-15	-5.5	96.6
916.7	278.6	105.2	-13.6	0.8	95.2
928.7	158.2	130.8	-13.6	8.1	80.3
953.3	85.8	231	-16.8	9.5	56.3
956.1	68.7	303.7	-18.6	-2.5	30.3
926.1	89.1	265	-10.7	-13.8	4.6
919.4	138.1	217	-4.1	-9.2	-13.3
921.9	187.3	231.5	-1.5	-2.1	-25
929.1	226.3	239.5	0.6	-1	-35.5
928.7	272	243.4	2.1	-3	-42.2
919.3	316.7	219.3	4.5	-6.8	-40.9
916.3	350.2	182.1	5.5	-5.4	-36.4
917.3	365.4	172.3	3.9	0.2	-32.2
913.4	376	174.5	0.9	4.3	-26.5
912.8	375.8	183.9	-1.1	7.2	-21.2
909.6	374.6	198.4	-1.8	8.1	-14.8
912.8	358.6	223.7	-2.6	8.3	-9.3
903.6	344.9	250.6	-5.9	1.9	-7.9
904	343.2	224.6	-5.5	-0.5	-9.3
903.3	344.9	249.5	-6.6	-0.6	-10.1
900	344.9	249.8	-8.9	-5.8	-10.3
895.6	352.2	211.3	-5.7	-5.8	-11.8
897	363.2	209.1	-1.9	-1.4	-13.8
898.4	380.2	207.5	0.4	0.7	-13.6
897.3	391.8	216.4	0.7	2.5	-9.8
893.4	392.2	228.8	0	1.2	-6.3
893.3	389.6	229.4	-0.9	0.1	-3.7
893.3	387.2	220	-1.2	-0.9	-1.8
898.1	377.4	226.3	-1.4	0.1	0.1
895.6	369.2	242.9	-3.6	-2.6	1.4
894.4	364.6	214.5	-2.3	-3.4	0.4
897	362.5	220.9	-0.5	-0.6	-0.5
898.6	361.6	223.2	-0.9	-1.1	-1.3
897.9	361.6	219.6	-0.7	-1	-2.1
898.4	361.6	214.3	0	0.1	-3.1
897.7	365.7	219.1	-0.5	0.6	-3.8
897	372.1	220.8	-1.1	0.1	-3.2
895.9	376	220.5	-0.4	0.4	-2.7
894.4	375.7	225.2	-0.5	0.7	-2.1
895	370.2	229	-0.9	0.6	-2
895.7	370.4	225.3	-0.3	-0.4	-1.5
896.1	374.2	217.1	0.9	0.1	-0.7
893.6	370.3	226.3	0.6	0.9	-0.4
895.6	368.5	221.9	0.3	0.9	-0.5
895.3	367	234.3	-0.1	0.6	-1.1
894.5	366.5	224.8	0	-0.4	-1.8
895.3	374.2	224.3	0.4	0.1	-1.2
895.7	370.6	228.3	0	0	0
896.3	370.7	216.4	0.6	0.3	0.6
897.3	366.3	227.4	0.5	0.9	0.8
897.8	363	246.4	-0.7	-2.3	0.4
895.9	366.5	219.6	-0.2	-1.9	-0.5
897.2	361.4	227.1	-0.5	-0.9	-1.2
898	360.7	220.2	-1.3	-1	-2.2
898.8	358.7	219.6	-0.3	0.2	-3.3
897.4	358.8	227.4	-0.7	0.3	-4.3
895.8	364.9	232	-2	-1	-4.9
895.1	370.6	225.7	-1.7	-1.8	-4.8
894.4	375.9	222.5	-1.5	-1.3	-3
895	376.8	221.3	-1.1	-0.6	-2.4
896.1	373.2	222.2	-0.7	0.3	-1.4
895	367.5	234.3	-1.1	0.2	-1.6
896.1	368	227.4	-1.2	-0.7	-1.9
894.7	367.4	226.1	-0.4	0	-2.3
893.7	366.2	230.7	-0.7	0	-2.8
895.5	368.4	231.8	-1	-0.4	-3
894.4	374	231.6	-0.8	-1	-2.3
894.1	371.4	228.7	-0.4	-0.7	-2
894.4	375	226.8	-0.1	-0.4	-1.4
895.3	369.9	230.8	0	-0.5	-1.3
895.1	368	233.1	-0.4	-1.2	-1.4
896.2	371.5	225.2	-0.6	-2	-1.2
895.7	372.8	220.8	-0.4	-0.9	-0.6
894.2	372	225.2	-0.3	-0.6	-0.5
895.3	368.5	225.9	-0.4	-0.6	-0.9
895.6	366.5	230.9	-0.5	-0.6	-0.7
896.4	369.3	227.5	-0.5	-1.3	-0.9
894.4	372.9	227	-0.4	-1	-0.3
895.3	372.1	230.2	-0.7	-1.2	0.3
894.1	370.7	223.3	-0.3	-1.1	1
897.8	369.1	221.6	0	-0.5	1.4
898.1	364.9	226.8	-0.9	-0.7	1.4
897.5	364.8	222.5	-0.9	-0.5	1.6
896.1	362.6	223.1	-0.7	0.1	1.6
898.8	361.3	228	-0.5	0.4	1.4
897.5	359.8	232.2	-0.1	0.1	0.8
895.9	359.6	238.7	0.9	-0.6	0
897	354.9	220.7	3.5	-0.5	-0.7
899.6	355.5	222.2	3.8	1.5	-0.8
900.8	351.5	232.1	1.1	0.2	-1.2
899.6	357	222.7	0.3	0	-2.1
899	362.1	227.1	0.5	0.2	-2
899	367	226.5	-0.8	-0.6	-1.1
897.4	366.2	222.6	-0.8	-0.1	-0.5
896.7	365.3	233.2	-1.1	-0.1	0.6
899.4	360.5	227.5	-0.8	-0.6	1
898.3	358.2	237.3	-0.9	-0.7	1
898.5	357.4	225.7	-0.7	-1.7	1.2
900.3	353.8	225.3	-0.1	-0.6	0.9
901.6	352	228.2	-0.7	-0.8	0.3
901.7	347.9	220.7	-0.2	-0.3	-0.3
903.4	349.4	234.1	-0.5	0	-1.1
901	354.6	227.6	-0.9	-0.9	-1.2
901.1	355.8	225.5	-0.2	-0.3	-1.1
901.9	359.9	227.7	-0.5	-0.2	-0.7
900.6	354.4	224.3	-0.7	-0.1	0.3
901.3	349.9	228	-0.4	0.5	-0.1
903.1	347.6	230.3	-0.7	0.3	-0.7
901.6	347.1	236.9	-0.9	0	-1.5
900.2	349.9	232.1	-0.9	-1.6	-1.6
901.7	353.5	227.7	-0.3	-0.5	-1.8
899.7	353.3	232.7	-1.1	-1.3	-1.5
901.1	352.9	225.5	-0.9	-1.3	-1.5
902	352.5	225.3	-0.1	0	-1.2
902.5	350.3	229.3	-0.4	-0.5	-1.3
902.2	351.1	235.1	-0.7	-0.3	-1.6
899.9	353.8	232.4	-1.3	-1.6	-0.6
900.5	350.4	226.9	-0.6	-0.9	-0.9
900.5	351.6	233.2	-0.7	-0.9	-1.1
902.3	351.9	226.4	-0.3	-0.6	-1
903.5	346.8	228.8	0.2	-0.1	-0.8
902	344.7	229.1	-0.1	-0.3	-1.8
902.2	345.8	232.2	-0.7	-0.7	-2.6
902.3	351.3	230.3	-0.5	-1	-2.9
901.6	355.4	229.3	-0.3	-0.9	-2.7
902.5	358.6	227.4	0	-0.2	-1.7
901.8	353.6	232.7	-0.1	-0.3	-0.8
901	349.2	227.1	0.3	-0.3	-0.9
902.7	349.1	227.9	0.1	-0.3	-1.3
904.9	348.7	226.3	0	0	-1.1
901.6	347.7	226.3	0.1	0.3	-1.8
903	350.4	229.4	-0.2	0.4	-2
901	351.9	232	-0.4	0.1	-1.8
901	348.6	234.9	-0.2	-0.1	-2.1
901.2	353.6	228.7	-0.1	-0.5	-1.5
901.1	353.2	230.2	0	0	-1
901.9	350.3	228.3	0	0	-1.2
903.3	347.2	232.4	-0.5	0.2	-1.4
900.5	347.1	233.5	-1	-0.7	-1.9
902.2	350	226.3	-0.1	0.1	-2.2
900.7	349.4	232	-0.1	0.5	-2.4
901.6	349.6	228	-0.3	0.5	-2.7
901.9	350.3	226.5	0.1	0.9	-2.9
901	352	230.3	-0.1	1.4	-3.2
899.6	353.3	235.1	-0.7	1.3	-3.4
899.9	356	230.7	-0.3	1.4	-3
901.1	355.9	241.9	0	1.1	-2.9
898.5	355.4	242.1	-0.4	0.1	-2.6
899	356	235.2	-0.1	-0.1	-2.3
900	358.5	238	-0.4	0.1	-1.7
899	353.5	232.6	0	0.2	-1.3
899.1	352.7	235.7	0.2	0.5	-1.4
898.6	352.2	244	-0.4	0	-2
898.1	352.5	236.5	-0.4	-0.7	-2.1
897.2	355.1	237.4	0	-0.5	-2.1
899.9	356.5	234.1	-0.4	-0.1	-2.3
899.1	358.3	236.2	-0.6	0	-1.4
898.1	354.9	237.3	0.1	0	-1
898.9	352.9	238.4	0	0	-1.5
898	352.7	242.3	-0.4	0	-1.8
899	352.2	239	0	-0.6	-2.1
899.9	355.2	237	0.1	-0.1	-1.8
897.7	354.1	237.6	-0.5	-0.4	-1.7
898.1	354.6	234.9	0	0	-1.8
898.5	357.4	241.4	0	0.1	-1.6
897.4	356.6	239.2	-0.4	-0.2	-1.1
897	356	241.8	0	-0.6	-1
898.6	356.9	239.8	-0.1	-0.6	-0.7
897.7	352.4	241	-0.3	-0.8	-0.9
898.6	348.9	237.4	-0.1	-0.7	-1.5
899.6	351.9	238.8	-0.3	-0.7	-2
898.4	357.1	239.7	-0.4	-0.9	-1.8
897.9	356.5	237.4	0	-0.7	-1.1
898	356.9	242.4	-0.3	-0.9	-0.9
897.7	352.2	240.7	-0.6	-1.5	-0.6
899.2	353.5	234.4	-0.3	-1.3	-0.6
900.6	350.5	234.2	-0.3	-0.9	-0.7
899.2	348.9	237.1	-0.2	-0.6	-1.2
901.1	350.5	237.1	-0.1	-0.7	-1.6
899.7	352.4	238.4	-0.6	-0.7	-1.7
897.4	352.1	234.9	-0.6	-1	-1.6
899.9	352.6	236.3	-0.1	-0.6	-1.6
901.1	352.9	237.6	-0.5	-0.5	-1.4
898.4	349.1	235.1	-0.4	-0.5	-1.6
899	352.2	236	-0.1	-0.4	-1.9
900	353.6	238.8	-0.3	-0.3	-1.4
898.6	354.3	237.1	-0.1	-0.5	-1.2
899.2	353.6	239.1	-0.1	-0.4	-1.2
899	351.1	240.2	-0.2	-0.5	-1.1
899.5	352.2	239.6	0	-0.7	-1
899.5	351.4	238.7	-0.1	-1	-1.1
900.2	351.8	235.8	-0.2	-1	-1.2
900.5	347.6	234.3	0	-0.6	-1.3
899.6	349.6	237	-0.3	-0.6	-1.5
900.8	347.7	234.9	-0.3	-0.3	-1.6
901	347.6	239.8	-0.4	-0.4	-2
900	349.7	235.2	-0.3	-0.7	-2.6
900.5	352.2	237.5	-0.1	-0.3	-2.7
898.1	354.2	238.1	-0.3	-0.4	-2.3
898.5	352.7	238.2	-0.2	-0.1	-1.6
900.5	351.1	236.2	-0.1	-0.3	-1.8
899.5	351.4	237.4	-0.7	-0.3	-1.9
900.3	352.1	237.1	-0.6	-0.5	-2.1
899.2	353.1	236.4	-0.5	-0.4	-2.1
898.9	354.9	239.8	-0.7	-0.6	-1.7
899.1	354	238.4	-0.5	-0.5	-1.4
897.2	351.8	241.5	-0.2	-0.6	-1.4
898.3	350	238.1	-0.2	-0.6	-1.5
901.3	351.1	238.8	-0.3	-0.6	-1.8
900.3	352.2	240.3	-0.6	-1.3	-2
897.9	352.7	234.1	-0.4	-1.3	-2
899	354.2	235.1	-0.2	-0.6	-1.7
899.5	351.6	235.9	-0.2	-0.4	-1.5
900.3	347.5	238.4	-0.1	-0.4	-2
899.4	348.3	235.9	-0.2	-0.3	-2.4
900.6	351	237.4	-0.3	-0.2	-2.8
899	356.4	235.7	-0.3	-0.3	-2.6
900.3	355.5	238.5	-0.3	-0.1	-2.2
898.5	353.2	239	-0.6	-0.3	-2.1
896.8	352.7	238.1	-0.5	-0.5	-2.2
898.4	353.2	238.6	-0.3	-0.5	-2.2
898.5	354.2	237	-0.4	-0.2	-2
897.9	352.9	237.5	-0.4	-0.3	-2.3
897.4	354.9	240.6	-0.5	-0.4	-2.6
898.5	357.6	238.1	-0.5	-0.7	-2.1
898	356.8	240.1	-0.3	-0.9	-1.8
897.4	356.6	234.6	-0.2	-0.6	-1.4
898	353.3	235.8	-0.2	-0.3	-1.6
899.2	351.3	236.8	-0.5	-0.1	-2.2
898.8	353.6	241.9	-0.8	-0.3	-2.3
896.1	356.5	238.6	-0.5	-0.6	-2
899	357.9	238.8	-0.2	-0.5	-1.9
897.4	357.2	239.5	-0.3	-0.5	-1.5
897.4	353.8	238.2	0	-0.2	-1.4
898.8	353.3	240.9	-0.2	-0.1	-1.4
897.5	352.9	241.5	-0.6	-0.8	-1.6
897.3	353.7	238.2	-0.6	-0.7	-1.8
898.3	355.8	240.2	-0.7	-0.7	-2
896.2	357.1	237.4	-0.7	-0.7	-1.6
897	355.2	240.9	-0.3	-0.3	-1.2
898	353.7	236.9	-0.3	-0.5	-1
898	352.9	236.9	-0.4	-0.4	-1.3
900.3	352.2	238.7	-0.6	-0.2	-1.7
898.4	353.1	237.7	-0.5	-0.6	-1.3
897.7	354	240.4	-0.4	-0.2	-1.6
897.7	354.3	241.4	-0.6	-0.1	-1.5
896.4	353	242.3	-0.4	-0.2	-1.7
898.6	352.7	242.5	-0.2	-0.3	-2.1
897	352.7	243.2	-0.4	-1.1	-2.3
898.8	356.6	243.1	-0.7	-1.2	-2.3
896.1	357.5	237	-0.6	-1.5	-1.6
897.3	357.5	240.1	0	-1	-1.2
898.4	354.6	239.6	-0.1	-0.9	-1
898.3	351.1	237.7	0.1	-0.8	-1
899.7	352.2	239.6	-0.1	-0.6	-1.4
898.4	351.6	238.4	-0.4	-0.7	-2
899.5	358.3	230.5	-0.8	0.2	-1.9
898.3	365.9	230.3	-1.2	1.1	-0.9
899.4	366.4	235.3	-1.3	1.9	1.2
899.4	364.1	233.1	-1.1	1.4	3
896.8	362.6	238.8	-1.5	2.8	5.2
893.9	358.5	252.9	-2.2	2.3	6.5
899	350.2	248.6	-2.8	2.1	8.1
898.9	330.9	255.3	-2.4	2.4	7.6
904.4	312.8	265.1	0	1.4	5.8
905.3	290	265.9	-0.5	-0.2	0.9
905.2	288.4	254.2	-1.8	-2.9	-6.6
906.3	320.1	236.9	-3.2	-3.5	-12.6
901.4	353.7	233.5	-5.4	-3	-13.2
898.9	370.1	236.2	-6	-1.4	-10.5
899.1	371.3	239.6	-6.1	-1	-8.2
896.3	362	253	-6.4	-0.6	-4.8
893.9	352.9	264.4	-6.7	-2	-2.7
893.7	351	270.7	-4.7	-2.9	-2.8
895.2	344.3	264.4	-2.7	-4.6	-1.8
901.6	336.4	243.2	-1.4	-4.4	-2
902	333.4	238	-2	-3.3	-3.9
900.6	340.6	225.2	-4.4	-1.2	-6.9
897.9	356	232.4	-6.1	0.8	-8.1
900.7	369.6	233.1	-5.6	4.2	-6.6
895	364.5	262.9	-3.6	1.5	-2.8
895.2	352.1	256.4	-0.9	-0.9	-1.6
894.8	347	257.6	-0.4	-1.4	-1.4
897.9	345.9	255	-1	-2.6	-2
897.2	347.5	252.3	0	-3.2	-2.7
895	350.4	254.2	0.5	-3.8	-2.7
896.2	350.7	253	0.2	-4.5	-3.1
895.7	353.5	250.3	-0.1	-4.4	-3.5
896.1	358.2	249.3	-0.9	-4.8	-3.5
897	356	239.2	-0.7	-4.8	-2.7
897.9	354.7	240.8	-0.8	-4.1	-2.2
897.2	351.5	235.5	-1.5	-4	-2.5
899.1	355.7	224.7	-1.4	-3.4	-3.1
900.6	361.6	213.5	-1.9	-2.4	-3.8
901.9	367.1	207.3	-4.5	0.2	-3.4
895	369.9	227	-6.3	1.4	-1.7
900.5	360.3	234.8	-5.4	2.4	0.5
896.3	351.4	250.7	-4.8	1.3	0.9
896.3	341.4	257.8	-5	0.9	0.1
897.8	333.1	257.3	-4.8	0.9	-1.2
895.5	328.1	262.3	-4	0.5	-4
896.7	337	265.6	-5.2	-1	-6.7
891.8	347.4	269.8	-2.7	-1.9	-7.9
891.7	363.4	272.5	-0.5	-4.7	-7.9
893.1	363.7	258.3	-2.3	-6.1	-6.5
894.8	359.2	249.2	-2.1	-7.1	-6.2
897.9	357.9	239.7	-1.6	-7.5	-6
897	357.9	231.6	-1.7	-6.7	-6
896.7	368.5	223	-1.7	-6.1	-6.3
897.4	376.5	209.3	-1	-4.4	-4.8
895.7	375.1	215.6	-1.8	-1.7	-3.5
893.4	374.6	226	-2.4	-0.7	-3
891.1	373.7	243	-2.8	-1.6	-2.5
900.8	386.2	226.1	-2	-3	-0.9
895.7	384.8	237.5	-3.6	-0.5	1.9
891.4	368.2	236.3	-4.5	-0.8	3.9
896.9	374.1	211.4	-2.6	-0.1	4.1
894.6	375.4	235.1	-3.4	3.2	7.2
898.4	364.7	250.6	-3.5	1.6	9.4
900.2	337.2	258	-1.4	0.7	11.4
899.4	301	281	-2.9	0.4	8.5
901	284.1	294	0	-4.7	1.9
900.5	306.2	269.4	0.6	-10.9	-6.3
905.8	350	223.1	-0.8	-12.9	-9
903.5	368.2	210	-1.2	-9	-5.8
905.1	364.5	208	-0.2	-6.7	-2.4
905.1	350.2	211.7	0.3	-6.1	-1.2
901.2	353.3	230.7	-0.9	-5.2	-1.8
902.9	368	234.9	-2.3	-6.5	-0.8
899.2	368	229.8	-2.8	-8.4	1.8
904.5	364.9	195.6	-3.2	-8.7	3.8
908.8	346.8	186.1	-5.6	-6.5	2.6
917.7	322	186.4	-4.8	-1.8	3.1
917.1	293.3	188.4	-0.8	2	0.8
916.7	315.7	189.2	0.4	4	-5.4
912.5	364.9	180	-0.8	5.7	-5.9
903.3	386.8	206.7	0.3	12	0.5
893.7	391.1	264.4	1.3	12.7	7.6
892	369	307.3	-1.5	7.2	13.7
899.4	304.9	309.8	0.4	-1.2	15.3
912.4	259.1	257.9	4.6	-8.6	8.3
917.2	263	221.3	3.2	-7.2	-0.7
914.7	295.5	230.8	-2.4	-5.8	-7.8
911.7	346.3	217.5	-3.5	-8.1	-9.8
911.1	358.3	197.7	1	-7	-5.3
914.4	333.2	194.9	0.8	-2.7	-2.7
910	328	226.4	-3.7	-0.7	-4.1
908.6	347.9	234.8	-4	-3.4	-4
906.4	369.2	224.8	-1.5	-4.5	0
907.8	344.8	223.3	-0.1	-3.2	4.8
911.8	318.2	230.1	0	-2.7	4.3
911.3	311.1	240.8	-0.8	-2.4	3.6
910.8	308.8	261.3	-2.8	-6.8	0.1
910	331.4	233	-2.8	-11.2	-1.3
921.2	338.9	177.1	-1.5	-12.9	0
922.3	318.9	142.3	-1.8	-8.3	1.3
922.1	293.3	169.4	-4.1	-1.1	-1
918.3	304.5	199.7	-5.9	-0.2	-6.1
917.3	332.7	210.9	-4.5	0.3	-6.1
915.4	341.7	203.2	-2.8	0.2	-3.7
915.1	342.1	196.7	-1.3	1.7	-2
913.8	342.5	225	-1.3	4.4	0.6
910.7	330.3	252	-0.3	1.8	2.9
913.5	323.2	238.2	1.1	-0.9	3.9
916.6	313.3	237.3	1.3	-3.4	3.1
914.5	304.4	241	0.4	-6.1	0.9
923.3	293.2	201.4	2.1	-10	-1.5
930.9	293.7	135.1	4.3	-8	-4.1
931	309.4	92.7	2.5	0.4	-5.9
924.3	325.5	122.8	-0.3	10.9	-8.2
919	341.4	182.8	-1.8	16.1	-8
907.9	349.7	238.6	-2.2	17.1	-6
906.8	357.2	265.9	-0.4	12.8	-2.4
903.5	342	269.5	1.3	9.6	1.4
900.1	339.5	279.7	-0.3	7.2	2.6
906.2	330.2	272	-2	3.1	4.7
910	306.5	263.3	-0.9	-1.7	4.3
918.3	286.4	239.3	0.8	-5.6	0.3
920.2	295.8	203.8	1	-6.6	-3.8
919	314.5	177.8	-0.1	-2.9	-6.2
912.3	345.4	184	-3.3	1.1	-6.3
912.4	361	202.8	-5.3	4.7	-3.9
909.1	362.9	223.7	-5.1	6.9	2.3
909.6	328.6	241.9	-3.8	6.6	6.1
916.6	303.1	229.1	-4.2	4.3	4.8
916.3	308.5	219.3	-4.3	5.2	2.2
913.3	329.3	222.7	-5.2	8.3	3.4
914.6	324.9	217.6	-3.1	11.4	6.9
917.1	304.9	208.8	0.7	16.2	9.2
919	280	214.2	4.5	21.3	9
923.4	272.4	217.1	6.2	23.2	7.8
916.6	266.3	229	7.5	27.1	4.4
915.6	281	253.9	7.8	28.2	0.3
906.3	308.4	282.2	5.4	28.1	2.7
894.4	317.1	326	2.2	25.2	5.5
869.2	316.7	348.6	3.4	21.6	4.6
904.7	323.3	392.7	3.6	9.7	3.9
895	276.2	339.2	-0.7	-5.3	11.3
828.7	272.7	302.1	0.3	-6.8	5.9
891.1	306.7	323.3	1.1	14	-5
913.5	278.9	349.1	-0.2	6.4	-1
892.5	299.1	331.1	2	1.7	-2
898.9	301.3	327.7	0.5	1.6	-0.3
896.9	292.9	340.4	-1.3	-2.7	0.4
896.4	282.2	329.7	0.2	-5.3	-0.1
895.6	277	329.8	-1.6	-8.1	-1.9
897.8	284.5	325.5	-4.3	-10.3	-3.8
899.1	292.4	342	-4.7	-12.8	-3.7
904.4	289.9	356.4	-3.2	-17.6	-2.6
918.3	268.7	303.5	0	-21.4	1.1
905.7	236.3	263.9	-2	-18.2	0.2
895.9	207.8	302.8	-5.9	-13.7	-11.1
919.9	210.5	348.6	-8.5	-23	-25.6
910.5	251.9	289	-12.7	-31.3	-29.8
897.5	280.3	262.8	-17.8	-29	-32.2
902.7	362	309.2	-21.4	-29.4	-40.4
889.8	430.4	301.2	-24	-37.7	-28.8
884.2	447	258.5	-25.7	-41.2	-11.8
861.8	451.6	255.4	-24.6	-38.3	-7.1
882.3	410.6	221	-19.6	-39.6	4.5
882.8	359.1	254	-11.8	-35.1	2.7
957.5	316	317.6	-6.5	-38.4	3.6
992.1	330.2	358.1	-6	-60.1	9.6
912.8	316.2	207.2	-4.1	-77.6	20.6
904	264.7	36.9	5.8	-74.2	19
911.9	236.5	-44.7	10.9	-59.1	10
916.8	206	-36.1	9.4	-40.4	0.2
940.3	197.6	-3.1	6.3	-27.3	-10.9
954.4	203.3	7.8	3.8	-20.6	-18.9
946.5	210.3	9.6	3.6	-17.4	-22.4
935	226.6	10.8	6.1	-12.6	-32.2
931.8	270.3	-13.6	10.1	-6.1	-42.3
923.8	315.7	-37.5	13.4	-0.7	-49.8
919.4	346.4	-67.6	13.8	5	-59.6
885.3	394.8	-63.7	9.6	19.7	-52.6
863.5	427.7	9.7	0.1	24.9	-62.6
895.6	480.7	87.5	-4.1	26.5	-59.7
903.6	526.4	162.4	-10.2	19.3	-48.7
887.8	551.7	176.3	-6	5.5	-32.9
868.8	547.2	119	1.8	-2	-20.5
867.1	534.6	77.1	5.5	-1	-10.6
871.9	513.3	70.8	3.4	0.2	-2.3
876.5	484.7	69.5	-1.8	1.8	3.2
880.1	449.7	67.9	-2.6	3.8	4.7
881.8	429	77.7	-0.3	6	2.5
885.7	402.8	93.3	2.1	7.2	-2.2
882	390.8	94.1	3.7	7.3	-9.8
880.8	373.2	121.5	3.8	7.5	-19.7
882.2	369.6	156.2	0.7	1.3	-32.1
871.3	402.8	141.4	-1.3	-5.2	-43.3
853.6	461	127	-0.8	-8.1	-50.7
844.8	524.1	174.3	-1.7	-9.1	-50.7
858.5	556.3	189.3	-2.4	-13.8	-40.3
837.6	600	166	-5.6	-17.9	-24.6
826.6	593.5	130.3	-4.6	-21.8	-9.2
814.6	575.6	91.9	-3.8	-21	-1.3
823.1	546.3	67.1	-1.3	-18.2	1
842.6	514.6	87.1	-2.3	-12.6	1
844.6	484.9	112.5	-5.5	-12.7	-2
842.1	478.5	96.3	-5.2	-17.8	-11.2
827.7	490.3	39.7	1.2	-23.2	-22.2
823.4	516.7	20.7	8.2	-24.5	-32.1
822.3	550.7	12.6	6.3	-23.3	-33.2
815.6	576.2	-2	-1.9	-20.3	-31
798.7	614	7.5	-7.6	-16.8	-28
783.8	635.1	19.7	-6.9	-17.7	-22.8
781.7	651.6	21.9	-4.2	-17.6	-17.8
793	656.4	9.1	-0.8	-14.8	-9.1
792.4	645.1	26	0.7	-14.2	0.3
795.6	638.9	27.9	2.3	-14.1	4.2
801.5	621.4	20.1	4.1	-12.9	12.1
806.7	593.2	18.1	8.2	-12.4	16.5
812.9	571	4.7	12.6	-12.1	18.1
818.7	553.3	5	17.4	-13.7	16
831.6	550.6	0.1	14.6	-10	14.7
828.9	534	-8.7	7.5	-8.6	14.8
828.8	537.5	-38.3	8.5	-10.5	13.9
830.6	538.2	-56.1	10.5	-8.6	13.2
836.5	541.3	-70.9	11.3	-5.3	13.6
841.1	547.8	-91.1	11	-1.8	15.8
841.6	541	-90.2	7.2	5.5	19.4
845.5	529.1	-80.2	5	9.5	22.3
842.5	509.3	-88.5	6.7	12.6	23.3
870.9	513	-118.4	9.6	21	21.6
889.6	494.9	-95.8	3.1	35.9	29.8
888.6	461.9	-59.3	-0.5	41.5	34.3
881.8	429.1	-47.4	1.3	39.7	31.6
893.5	443.4	-55.2	-0.6	44.4	27.2
891.4	462.2	-10	-7.2	51.1	28.9
888.1	461.1	30.8	-11.8	55.1	31.7
881.3	438.8	81	-15.1	56.2	33.9
878.5	419.6	130.1	-16.9	51.5	34
868.6	402.9	184.3	-15.9	41.9	30.3
865.1	395.6	213.8	-11.7	29.8	23.5
865.3	389.7	222.9	-7.3	15.4	14.3
863	385.3	204.1	-0.5	0.3	5
864.3	387.5	170.8	8.2	-10.2	-8.5
865.8	403.5	158.2	13.6	-17.7	-20.7
868.7	437.3	124	15.3	-24.7	-28.2
835.5	451.6	84.8	18.7	-32.2	-33.4
880.9	522.5	26.4	19.5	-33.9	-35.4
883.9	525.8	38.9	12.4	-32.4	-21.8
882.9	527.8	3	12.1	-27.3	-8.3
890.6	503.4	-10.2	9.8	-20.4	1.2
890.8	464.5	-19.6	4.5	-12	6.8
892.3	435	0.9	1.5	-5.5	7.1
893.6	419.4	28.3	1.5	-2.7	5.1
891.6	420	44.7	2	-1.2	1.9
891.2	418.9	54.8	2	-1.7	0.3
887.9	418.7	65.1	2	-4	-2.4
889	422.7	67	2.5	-6.3	-5.1
886.5	433.5	59.5	3.7	-9.4	-7.2
885.7	443.1	57.7	4.2	-11.7	-8.1
882.2	447.5	53.7	4.6	-14.4	-8.8
882.6	452.7	43.8	4.9	-16.9	-9.2
885.8	456.9	23.4	4.2	-18	-9
887	458.2	-6.3	2.2	-15.5	-8.5
882	467.5	-22.4	1	-11.6	-7.1
876.8	473	-3.6	3.1	-10.6	-3.8
885.7	482.7	-1.3	4.2	-10.2	1.8
876.7	464.2	-18.6	7.9	-10.6	3.8
892.7	446.7	-47.7	4.5	-2.1	5.7
885.9	432.6	-37.7	6.6	-1.5	1.5
885.2	425.9	-20.3	5.7	1.6	-2.1
886.3	441.6	-0.4	7	1.4	-4.3
884.7	453	-4	8.5	-0.6	-4.4
887.3	453.1	-25.5	9.8	-0.1	-3.6
884.2	456.5	-51.3	7.8	2.7	-3.2
881.4	469.3	-32.9	6.1	6.8	-2.3
880.1	485.3	4.1	7	6.6	1.7
880.6	473.6	18.7	10.6	3.5	6.3
889.4	440.5	-7	13.8	0.4	8.7
883.1	422.3	0.8	15.5	0	5.4
876.2	457.3	79.8	22.1	-7.4	2
894.4	478.5	89.7	27	-23.5	5
892.3	456.5	-42.2	18.9	-30.7	10.2
883.6	439.5	-112.3	10.1	-22.2	11
872.4	484.8	-25	11.4	-17	11.4
898.1	495.8	28.4	5.9	-30	20.6
896.1	398.3	-96.5	-7.9	-38.1	29.6
900.5	315.1	-217.4	-11.3	-25.8	21.2
901.7	329.5	-178.2	-5.9	-8.1	7.5
909	389.7	-81.1	-1.3	-3.7	1
904	395.7	-77.6	-5.3	-7.2	2.7
907.1	402	-136.1	-5.4	-6.7	2
895.8	392.9	-150.7	-5.6	1.2	2.4
904.7	406.1	-70.4	-5.9	3.9	1
911.7	399	-61	-6	1.4	1.4
911.4	359.1	-100.2	-6.2	0.5	-0.2
917.2	380.7	-134.1	-2.6	4.4	-5.5
905.3	380.8	-115.3	-1.9	12.1	-6.2
907.8	383.6	-65.4	-1.5	13.3	-8.5
903.4	388.5	-39	-1.6	10.4	-11
896.8	416.9	-2.1	-0.4	2.9	-12.9
898.3	451.1	-6.4	-0.1	-8.4	-9.4
902.4	437.5	-121.4	-1.3	-9.9	-2.1
907.8	413	-166.3	-0.5	2.1	0.5
903	404.6	-102.9	2	11.8	0.4
915.8	404.6	-33.4	2.7	11.3	-2
876.2	380.3	-43.4	3.5	5.2	-1.3
919.4	417.3	-36.1	3.7	3.3	-5.6
899.9	414.7	-89.9	3.2	2.2	-1.5
898.8	412.1	-64.3	0	2.2	-1.5
908.9	383.5	-84.5	-0.9	3.5	-3.9
903.6	388	-53.7	-2	2.9	-7.1
901.2	421.3	-45.6	-4.2	0.9	-8.4
900	433.1	-44.7	-2.7	-1.5	-5.8
903.1	420.4	-61	-1.4	-2.7	-3.4
899.7	404.4	-47.1	-1.8	-4.1	-4.4
899.4	416.2	-46.7	-3.2	-6.9	-5.8
899.7	410	-70.3	-3.4	-7.7	-5.1
891.8	401.8	-49	-3.7	-7.8	-7.8
887.3	465.5	-16.7	-3.6	-14.1	-8.9
896.8	465.4	-109.8	-0.3	-16.5	0.6
904	400.6	-173.3	1.7	-4.5	3
900.6	375.2	-118.2	0.4	5.7	-2.5
896.2	405.7	-50	-1.1	7	-8.6
893.1	443.9	-31.7	-1.2	0.5	-8.6
891.7	441.2	-70.8	0.5	-1.9	-4.7
890.1	433.4	-68.7	0	-1.8	-3.5
888.9	456.4	-65.1	-1.6	-3.8	-2.5
891.4	459.3	-77.5	-0.9	-4.3	3.3
894.2	419.7	-86.3	0.4	-3.4	5.9
900	395	-75.3	-0.1	-2.6	3.1
898.5	391.1	-75.3	-2.6	-3.6	-1.5
896.4	409.5	-65	-3.6	-4.7	-5.9
894.8	428.1	-56.8	-3.2	-5.8	-6.2
890.3	456.5	-66.6	-1.6	-8.5	-2.9
886.1	446.4	-78	-1.9	-10.4	1.3
898.9	423.3	-135.8	-2.6	-7.8	2.8
902.7	410.8	-172.1	-0.3	3.8	3.6
912.5	383	-152	4.2	16.3	3.6
962.6	279.6	-148.5	1.8	25.2	-1.7
927.3	162.7	-103.1	-42	24.9	-29.9
936.5	423.9	37.8	-61.7	27.6	-59.6
956.7	737.3	221.3	-57.5	20.9	-37
1033.8	807	399.9	-74.7	8.9	23.3
1035.2	675.7	244.7	-34.2	-38.1	55.2
1129.5	535	-17.3	-2.6	-38.1	70.6
1120.8	434.4	-16.4	-2.5	-21.5	75.1
1107.7	328.3	-26.4	-10.1	-22.1	75.7
1170.2	261.5	24.9	-21.5	-20.5	63.9
1231.6	316	148.4	-10.7	-35.1	40.2
1206.4	364.5	122.8	-5	-61.1	32.8
1092.5	348.9	-82.8	-5.6	-75.1	36.5
1068.8	335.9	-233.3	-8.2	-62.9	49.6
1117.7	217.4	-130	-16.4	-43.5	54.8
1168.2	102.1	27.2	-21.8	-50.7	35.4
1083.2	124.2	1.3	-18.2	-76.3	15.2
1004.8	170.1	-150.1	-17.7	-83.2	8.5
953.8	206.9	-140.1	-14.6	-71.2	9.9
911.8	184	-156.4	-28.7	-68.3	8.5
889.5	218.5	-107	-22.8	-74.3	9.1
850	199.5	-170.1	-36.3	-80.8	15.2
774.5	225	-268.4	-53.2	-81.4	23.6
738.7	198.8	-361.3	-62.4	-69.9	33
770.6	205	-325.5	-63.2	-48.4	33.4
787.9	202	-195.1	-64.5	-50.7	38.5
802.1	159.4	-245.3	-65.3	-62.7	41.5
789.6	124.7	-319.2	-66.8	-61.8	40.8
768.1	144.7	-331.9	-75.5	-53.7	42.4
748.2	155.6	-369.1	-73.4	-53.7	40.5
756.4	125.3	-372.8	-77.1	-43	35.1
741.4	117.5	-321.8	-79.8	-41.3	28.7
722.1	127.5	-328.1	-79.8	-48	26.7
710	159.3	-442.5	-78.1	-49.1	22.1
763.6	173.4	-412.8	-86.6	-29.1	17.9
797.6	155.3	-299.4	-91.6	-23.8	10.4
838.9	138.9	-214.1	-85.9	-30.4	2.7
788.6	222.5	-312	-92.2	-48.4	2.3
687.1	333.6	-474.6	-91	-47.8	4.7
679.9	340.8	-500.2	-95.7	-25	13.8
730.5	265.8	-376.4	-92.7	-10.8	18.3
809.4	186.6	-320.6	-87.2	-7.9	15.4
805	252.1	-252.6	-99.3	-15.8	3.5
697.7	489.5	-405.1	-97.7	-29.4	-1.5
603.5	595.4	-524.1	-95.3	-21.9	20.5
620.8	512.8	-545.1	-100.8	1.6	48.1
728.6	314.6	-417.1	-98.3	26.4	59
817.7	307.2	-217.1	-82.4	26.8	29.2
802	549.8	-247.1	-60.1	2.4	-2
744.2	645.2	-401	-38.4	-4.1	-10
666.5	580.5	-520.2	-25.9	2.4	-1.5
699.5	473.7	-528	-16.1	22.6	2.3
778.6	364.7	-324.9	-2.9	28.9	-7.9
836	333.3	-203	21.7	13.6	-39.6
848.3	439.9	-255.3	29.3	-2.1	-63.9
848.5	512.5	-328.3	27.2	1	-65.9
867.6	564.2	-294.4	30.2	6.1	-57.8
893	567.1	-273.1	42.7	-1.6	-52.5
916.6	567.9	-325.6	43.4	-5.3	-47
918	539	-321.1	40.3	-8.7	-44.6
893.9	481.5	-392.3	40.1	-13.3	-46.2
848.8	518.9	-433.4	41.5	-10.9	-42.3
839.8	470.9	-442.6	24.7	-5	-37.3
815.6	458.2	-411.6	18.9	-3.5	-36.8
802.1	459.3	-411.8	22.5	-3.6	-32.1
822.8	435.1	-411.6	17.9	-2.3	-24.9
829.7	411.1	-395	5.6	-2.6	-18.7
823.7	375.9	-407.2	-1	-7.9	-18.9
837.2	370.1	-431.5	-4.8	-9.1	-26.5
847.1	442.9	-406.7	-15.8	-6.1	-30.5
829.8	535.8	-343.7	-26.5	-7.6	-25.1
814.3	559.9	-332.5	-24.1	-11.6	-20.5
792.9	559.9	-367.3	-15.5	-20.8	-8.1
791.8	546	-395.2	-13.6	-22.6	2.2
792.2	492.4	-386.7	-14.6	-21.5	6.1
776.8	484.2	-369	-13.1	-22.4	3.5
732.2	510.8	-396.3	-10.2	-27.6	4.4
713.7	529.2	-446.5	-1.4	-25.9	1
714.1	535.4	-468.8	2.3	-20.6	2.9
713.7	503.2	-475.5	-0.2	-13.3	8.2
745.7	460.6	-423.9	1.3	-9.1	8.6
748	443.3	-398.1	3.7	-14.4	9
742.1	398.6	-432.1	1	-15.7	6.6
739	430.5	-462	0.5	-11.5	-3.2
716	478.1	-458.1	-5.7	-7.3	-3.4
705	487.3	-450.4	-7.1	-5.2	0.5
695.9	518	-476.8	-4.4	0.4	-0.6
702	586.3	-474.2	-4	7.5	-2.5
712.6	607	-458.8	0.5	11.2	-2.9
732.5	604.7	-453.3	13.1	11.6	-5
750	608.8	-451.5	18.4	10	-4.9
744	602.9	-470.8	24.5	6.6	-5.4
719.1	606.2	-500.6	31.3	5	-7
722.7	610.9	-534.6	39.5	10.1	-13.8
724.7	637.6	-479.4	40.2	15.6	-18.4
722.9	617.7	-432.3	42.6	15.7	-16.1
686.6	588	-430.5	48	10.9	-15.6
641.1	589.2	-476.1	53.1	9.9	-21.7
653.3	611.8	-544.7	65.2	21.5	-28.9
677.1	570	-499.7	64.4	31.9	-25.4
690.5	547.7	-452.2	65.5	33.1	-26.3
661.7	546.8	-448.6	74.6	29.8	-28.9
600.5	541.2	-506.7	83.1	30.5	-34.3
573.3	519	-522.8	86.8	40.9	-41
589.7	491.9	-471.4	86.9	49.1	-43.8
595	483.8	-450.3	87.3	49.9	-42.3
550	496.4	-489.1	88.7	48.3	-47.3
493.5	534.7	-575	94.5	52.8	-52.9
523.4	514.8	-561.7	99.1	72.6	-52.5
550.7	485.7	-506.9	97.1	78.7	-48.4
611.4	402.2	-438.7	88	82.7	-37.1
646.2	369.1	-442.1	75.9	81.7	-27.2
657.4	382.3	-437.1	62.9	83	-17.1
706	337.1	-394.1	59	88.5	-11.9
741.2	313.7	-352.6	50	89.1	-4.4
807.8	279.5	-276.3	40.8	86.7	-4.4
830.5	339.5	-283.2	32.9	78.4	2.2
846.3	323.8	-267.2	36.3	80.8	1.5
868.7	270.8	-272	46.4	77	-7.6
897.9	238.2	-256.4	57.4	75	-28.6
906.9	366.9	-314	53.8	78.2	-39.9
922.2	470.2	-303.1	30.4	92.3	-16
992	420.4	-96.1	16.6	90.1	1.2
1022.5	364.2	-65.9	24.4	68	-1.7
974.7	409.4	-172.6	35.9	56.8	-7.8
966.1	442.7	-239.8	32	59.4	3.1
1006.4	312.5	-186.7	22.9	65.9	-0.4
975.8	266.7	-202.6	32.8	64.3	-26.8
961.5	423.9	-104.1	36.2	61.3	-43.6
952.2	556.5	-72	30	43.9	-16.3
962	399.6	-112.9	19.4	42.1	15.3
974.2	164.6	-100.2	20.6	41.1	-2.8
920.2	147.9	-141.2	29	38.7	-41.4
875.2	299.5	-168	19.6	43.5	-52.4
873.1	382.3	-119.3	3.7	53.6	-37.4
898.3	303.8	-29.2	6.9	50.9	-44.6
855.5	335.3	-91.3	10.9	49.7	-62.6
834.8	446.2	-56.8	6	55.6	-59.9
849.4	455.4	-2.5	-9.3	60.4	-37.6
856.3	385.2	11.7	-12.2	62.3	-32
861.4	449.9	131.7	-6.3	58.1	-41.2
895	542.7	147.3	-4.6	44.4	-35.3
909.4	554.5	97	2	43.4	-22.3
891.4	509.5	65.6	-4.4	55.1	-7.2
884.3	414.1	139.8	-15	63.2	0.7
881.8	359.8	158	-20.1	65.5	-13.7
861.8	400.5	219.8	-22.9	62	-29.9
869	416.5	251.3	-22.9	57.8	-35.9
819.9	483.7	275.7	-17.8	47.4	-50.5
758.6	558.3	200.8	-22.1	46	-40.3
700.3	591	220.4	-37.7	56	-14.2
659.3	527.9	238.4	-56.1	63.6	18.7
614.7	346.1	280.1	-44.6	68.4	3.4
1999.9	720.2	486.8	4.2	84.1	-88.2
783.4	861.3	1372.1	25	20.4	-128.4
800.1	792.7	57.1	8	-65.7	3.1
503.4	452	100.8	47.2	-8.9	-28.1
742	504.8	175.2	54.8	16.3	-87.6
774.6	490.2	323.4	46.7	10.9	-104.1
716.9	471.8	145.3	29.9	7.5	-120.6
583.3	501	163.3	14.5	22	-145.9
519.6	529.1	180.1	7	24.1	-183.5
466.6	980.2	166.6	22.8	19.7	-236.2
383	1452.6	103.7	0.9	31.2	-161.3
301	1286.2	145.1	-25.5	43.9	-62.7
391.2	1032.1	263.7	-29	45.7	-7.5
462.2	842.2	388.4	-15.7	41.4	-0.8
449.5	839.7	440.6	2.7	22.3	-5.6
447.7	921.2	295.8	16.8	4.4	2.7
437.3	840.3	179.8	2.8	11.5	9.5
471	735.3	277.8	4	6	-11.1
500.8	789	347.2	-2.5	-9.6	-30.2
453.7	870.3	511.4	-10.2	-42.9	-29.9
453.8	851.6	465	-20.4	-82.1	-16
439.8	925.9	362	-18	-116.1	-5
372.6	936.6	254.8	-30.3	-128.2	20.3
272.9	846.6	106.2	-58.1	-92.9	11.6
367.5	997.1	281.9	-70.8	-44	-1.8
467	1056.2	476.3	-44.7	-77.2	38
501.9	753.1	327.1	-62.4	-95.5	57.1
536.4	559.6	65.5	-71.2	-93	15.7
595.2	649	91	-70.2	-52.5	-24.6
521.4	808.3	310.4	-63.1	-50.1	-36.9
427	978.7	277.2	-39.4	-47.3	-27.2
427.1	932.4	173.8	-17.8	-15.9	3.8
496.2	903.5	176	-6.4	-1.8	11.2
520.5	956.7	228.6	17.7	15.2	27.9
514.8	980.3	402.3	19.8	15.3	58
509.3	905.6	394.5	38.1	-12.4	84.6
594.1	617.9	199	56.6	-18	88.8
630.7	410.5	307.8	50.6	-3.7	51.4
607.6	513.4	407.7	38.4	-17.8	-6
575.6	800.6	289.6	34.6	-41.6	-29.2
607.6	883.6	228.1	54	-48	-7.4
563.1	811	225.2	45.3	-55.8	5.5
645.6	949.9	148.4	16.7	-53.4	3.8
602.5	896.4	188.9	-6.6	-53.2	50.6
578	602.6	102	-17.2	-62.9	46.4
646.1	661.4	-128.9	-12.1	-45.6	11.6
654.4	750	-135.1	-1.2	2.3	14.5
779.6	599.6	99.7	-13.4	25.3	12.9
695.1	537.4	190.6	-35.7	4.8	-11.5
653.8	695.6	165.8	-56.1	-6.1	-38.1
642.8	879.5	80.3	-20.9	-7.1	-28.9
593.8	947.1	-38.4	-0.1	3.4	14.6
620.3	876	-114.5	12.7	45.4	35.8
637.6	858.2	-15.2	19.8	86.9	59.1
647	782.9	136.3	21.4	105.8	76
679.5	663.3	239.6	24.4	96.7	79
737.6	639.7	271.7	27.2	82.1	71.7
734.9	525.6	279.6	33.9	67.7	62.3
742	510.9	343.7	29	51.6	31.8
738.6	519.4	285.8	25.4	31.7	8.8
743	610.2	226.5	27.1	28.7	-4.3
729.9	682.7	249.7	28.1	31.3	0.4
711.6	654.9	246.3	31.6	31.4	4.9
666.3	637.6	275.5	29.5	34.2	2.7
729.9	567.6	251.9	23.6	36	-5.1
722.4	563.5	373.5	18.1	29.5	-18
673.5	622.1	310.3	12.5	16.7	-26.3
642.5	682.7	260.6	12	21.2	-29.4
634.3	756.8	296.6	16.8	23.5	-27.8
615.4	815.4	302.7	10.3	16	-14.7
613.8	761.1	251.5	14.4	17.3	-2.9
604.8	643	303.5	20.5	24	-7.5
590.6	630.3	380.8	21.1	19.3	-16.8
551.7	664.5	306.3	22.6	0.9	-36.7
554	763.4	258.3	5.6	-8.6	-46.9
566.5	880.7	128.9	-2.1	11.6	-41
538.5	973.6	287.3	2.1	26.7	-14.2
595	868.2	311.4	2.2	16.9	18.4
589.4	736.2	247.8	-1.6	19.7	24.9
652.4	695.3	358.2	17.2	22	32.9
633.6	551.8	362.4	12.1	4.2	10
633.4	569.2	406.1	-15.6	-3.6	-27.4
630.6	694.9	394.8	-37.7	-12.9	-51.5
604.3	773.5	342.2	-13.3	-26.7	-51.6
544.7	813.5	243	5.9	-17.4	-47
575.4	881.7	109.2	-17.9	-3.2	-21.8
595.7	868.4	187.9	-13.8	26.7	4.1
606.4	846.3	293.3	-5.2	8.4	28.3
652.9	736.6	148	45.2	-11.8	49
700.5	622.6	108.2	62.3	4.6	52.1
701.2	659.5	359.3	95.4	3.1	22.5
696.2	704.4	480.2	90.1	-32.7	11
720.7	481.9	236.6	81.6	-45.9	-3.3
641.7	488.7	120.2	96.9	-53.1	-38.1
684.4	704.9	112	98.9	-38.1	-73.2
612.3	731.3	134.8	97.4	-32.4	-68.5
517.7	798.3	-64.8	93.8	-46	-63.4
489.3	828.8	-229.1	78.9	-19.9	-55
585.4	1138.6	-164.6	44.7	11.1	-44.2
556.7	1012.9	-106.5	28	33	12.7
605.1	740.8	-90	42.6	62.9	44.9
469.4	419.7	-1.4	60	82.7	24.2
359.1	485.8	-413.6	40.2	77.4	-9.6
755.4	1569.9	221.3	88	67.4	-76.5
524.2	1000.9	228.7	-69.8	35.5	53.1
571.1	516.1	-203.8	-102.6	38.7	27
470.3	606.9	101.3	-106.8	51	-23.5
617.5	929.1	182	-48.4	9.2	-8.8
544.7	888.4	82.7	-67.3	7	20.7
492.4	790.1	160.7	-82.4	9.9	26
545.2	716	182.8	-94.9	4.8	14.4
572.7	760.1	177.1	-109.1	9.1	7.2
676	880.4	358.3	-116.3	12.2	-18.5
601	874.2	510.4	-111.1	-30.2	-5.1
560.1	799.8	343.6	-108.4	-63.2	8.6
578.6	716.6	232.7	-84.3	-62.4	10.9
603.6	733.5	224.2	-52.5	-46.8	9.1
601.6	738.4	248.9	-17.8	-33.6	11.3
631.9	744.7	201.7	1.8	-23.9	9.5
617.3	785.5	191.8	7	-7.2	11.7
621.3	778.8	259.6	1.3	3.6	17.9
638.3	714.9	295.5	-4.7	0.5	21.3
651	684	259.1	-4.5	-3.5	18.6
635.4	688.2	262	1.7	-1.8	15.2
641.6	686	276.9	4.4	0.3	11.5
656	671.9	272.3	2.7	1.3	7.8
653.6	668	255.3	0.8	1.5	2.4
651.4	684.3	256.2	0.4	3.4	-2.7
650.7	689.3	273.8	0.6	6.1	-5.6
652	683.5	284.6	0.5	4	-7.9
644.5	703.3	301.3	-4.7	1.6	-10.1
632.6	747.5	372.6	-19.3	-7.7	-10.1
618.7	822.5	295.7	-17.5	-24.3	-2.3
635.1	821.8	239.2	-14.3	-18.9	13
664.1	811.6	285.6	-27.8	-6	31.5
648.4	771.4	341.6	-51.7	-7.7	46.9
674	705.8	327.7	-71	-11.2	55.2
679.3	661.8	315.7	-73.6	-16.9	57.7
673.4	607.9	320.8	-59.4	-26.3	58.8
718.2	629.2	348.1	-58.1	-13.8	57.6
736.2	586.1	376.3	-65.8	-25.2	64
740.1	543.2	344.7	-66.5	-31.6	61.9
758.7	519.7	301.6	-60.9	-31.9	56.2
777.8	500.6	328.2	-58	-27.9	54.3
793.2	476.8	379.2	-63.4	-33.8	51.4
796.1	479.3	346.4	-62.7	-36.1	52.3
780	484.8	408.2	-65.4	-39.9	49
814.8	450	331.1	-54.7	-43.2	53.9
853.7	353.8	279	-42	-33	54.8
853.8	314.8	285.7	-33.8	-27.6	52.2
864.2	290.5	291.5	-21.3	-21	42
876.8	267.2	269.4	-18.3	-13.7	34.7
880.4	227	281.9	-17.3	-6.7	23.4
878.1	274.5	330.8	-15.6	-6.9	10
876.3	322.3	299.5	-9.2	-5	5
878.6	328.7	313.8	0.4	0.3	5.4
885.7	302	352.2	-1.1	-1.2	4.8
882.2	340.9	342.4	-9.6	-4.7	4.8
882.5	364.3	305.4	-8.4	-3.2	9.6
882.2	332.7	306.1	-1.7	1.1	14.1
893	302.8	344.7	2.1	2.5	15
883.3	292.6	357	3.6	-1.4	14.5
879.7	273.9	335.4	3.5	-3.4	13.9
886.2	262	341.3	5	-1.1	9.5
895.5	252.6	354.7	8.2	-1.7	4.8
889.1	280.7	368	11	-5.4	2.1
895.2	298.5	340.9	11.5	-7.6	2.7
897.3	287.2	301.1	12.2	-5.2	5.1
902.4	260.9	305.6	13.3	-1.5	3.9
895.3	262.4	313.5	12.9	-3	0.5
896.7	269.5	292.3	10.5	-1.6	-2.5
899.5	273.5	281	8.2	2.7	-4
893.1	285	321.1	7.4	6.1	-5.4
895.1	291	331.2	8.2	5.5	-5.3
890.2	291.7	343.1	6.9	5.4	-5.5
888	321.7	372.9	2.7	2.6	-5
884.5	338.3	370.6	-2.9	-3.8	-1.6
889.8	318.9	339.5	-4.1	-7.5	1.9
888.6	293.7	339.1	-5	-9.3	2.9
897.2	277.9	331.7	-8.4	-11	1
888.7	289	344.1	-13.5	-14.5	-1
896.3	312.2	300.4	-18.3	-19.4	0.5
897.2	328.7	304.8	-21.4	-13.4	3.2
893.6	330.6	332.7	-26.5	-14.7	7.8
906.2	321.2	298.3	-32.6	-18.2	12.5
913.8	305.9	283	-36.7	-17.1	16.9
921.2	297.9	278	-39	-14.4	19.5
914.9	295.2	286.1	-34.1	-14.2	23.6
929	246	259.7	-34.7	-12.3	26
924.1	188.4	263.9	-24.8	-8.8	27.5
928.1	161.4	266.9	-27.5	-4.3	19.9
918	154.2	291.6	-31.4	-4	13.6
926	163.4	298.5	-29.4	-3.4	6.7
935.3	167.6	300.4	-25.8	-5.2	3.3
925.9	143.5	311.1	-23.1	-9.3	0.5
929.6	151.9	293.8	-21.5	-10.8	-4.5
927.4	166.3	300	-27.1	-11	-8.4
913.8	192.3	321.4	-39.8	-14.6	-11.6
921.6	210.8	297.4	-51.5	-18.5	-11.3
934.2	196.4	307.3	-52.3	-19.4	-10.3
907.1	196.4	345	-60.6	-21.1	-11.5
962.1	152.4	254.6	-66.3	-19.8	-15.4
938.8	143.4	273.8	-60.2	-13.7	-17.9
939.8	165.1	279.5	-49.6	-13.3	-21.5
948.4	173.7	260.9	-37.2	-9.9	-19.1
928.1	164.6	258.1	-21.1	-4.4	-17.4
954.2	177.4	272.5	-4.9	-2	-17.5
941.1	186.8	274	4.8	0.2	-12.5
937.8	182.8	253.9	10.4	3	-12.1
943.6	180.9	254.8	13.2	8.5	-13
941.8	174.9	264.7	15.2	13.8	-13.7
932.3	197.3	273.5	20.8	17	-15.7
924	227.1	284.4	29.4	19.6	-15.9
914.5	227	319.9	24.8	20	-14.2
913.8	225.9	328.6	11.1	13.5	-15.3
913.9	257.9	305.1	8.4	9.1	-15.6
912.1	278.5	293.8	6.4	9.9	-12.1
911.9	272.8	308.5	8.5	11.1	-7.8
905.8	259.2	320.3	10.6	8.4	-5.8
907.9	243.5	306.2	14.5	7.3	-7.1
909.1	239.9	304.5	17.5	8.9	-9.2
908.3	236.8	312.6	19.2	9.3	-11.9
904.1	244.2	312.8	20.5	7.9	-15.6
901.3	267.9	309.4	22.5	8.5	-18.9
893.6	286.3	302.4	26.1	10	-20.1
892.3	304.9	304.4	32.2	14.5	-20.3
889.7	305.2	317.5	32.9	16.5	-19.1
888.5	312.9	328.3	33.1	18.1	-16
875.1	327.1	351.3	28.3	18.4	-11.6
890.5	339.8	355.8	18.2	14	-6.2
878.7	345.9	340.4	11.2	9.2	-2.3
884.2	349.1	321.6	7.3	9.6	1.5
889.4	348.6	316.5	10	13.4	7.8
882.8	341.5	360.9	5	12.7	11.4
878.7	347.9	378.5	1.3	7.8	14.6
868.4	333.8	359.9	1.3	3.8	17.3
930.4	299.6	331.9	11.1	8.7	22.5
922.1	260	362.7	9.6	22	31.1
929.1	222.4	357.4	10.1	24.5	35.1
866.6	211.9	345.2	1	18.9	28.9
858.3	202.1	292.4	-0.9	15.3	5
884.8	234.8	338.5	-4.9	26	-12.5
858.7	237.9	390.8	-6.5	18.5	-23.4
870.4	256.1	384.1	-3.8	14.2	-33.9
853	263.1	416.2	-2.4	9.2	-41
852.6	282.9	428.5	-1.4	2.1	-44.4
849.2	316.4	403.8	2	-2.6	-43.1
844.8	354.3	366.2	9.5	-0.8	-37.9
841.7	368.6	359.7	19.8	4	-29.2
834.1	362.4	377.1	32.1	5.5	-25.2
848.8	375.3	385	40.4	7.5	-24.6
838	402.5	409.1	37	9.3	-23.1
842.7	424.9	404.2	28.9	6.3	-16.1
835.6	421	388.6	20.2	4.6	-9.4
835.3	410.2	375.7	15	5.2	-6.1
830.8	396.8	384.8	9.7	6	-4
825.9	390.7	386.5	7.4	4.4	-6.1
829.8	392.7	379.5	5.9	4	-8.4
827.2	402.5	390.2	5.8	3.8	-7.7
822.6	405.5	389.1	5.4	2.3	-7.7
822.2	413.8	384.6	4.7	1.6	-7.6
821.5	418.7	375.9	4.7	2.1	-7.3
822.6	425.4	382.4	3.2	3.5	-5.4
817.2	445.4	384.1	1.5	2.3	-2.7
814.3	464.4	381.8	0.5	2.5	2.7
815.6	460.2	382.4	0.4	2.7	6.3
816.8	439.2	392.4	0.5	2.6	12
821.1	420	401.8	-0.4	0.8	16
823.4	383.1	389.1	0.7	-0.9	16.1
829.8	380.3	374.2	1.4	-0.5	12
830.5	400.1	394	0.3	1.2	11.6
830	396.3	399.7	-0.1	-0.7	14.5
833.2	361.3	385.8	1.2	-1.2	14.3
834.4	360.5	394.7	1.9	-0.8	10.6
837.5	355.4	395.9	-0.1	-2.8	9.2
837.5	336.3	386.4	-1.8	-3.5	4.3
843	338.9	381.8	-1.5	-3	-1.3
839.7	346.1	387	-1	-3.1	-4.6
838	359.4	381.5	-0.4	-3.1	-8.5
838.8	375.4	374	0	-2.6	-9.8
835.8	379.7	380.2	0	-1.2	-9.4
836	383	385.8	0	-1.5	-9
835.9	387.8	377.8	0.4	-2.4	-8.6
834.4	389.4	374.2	0.4	-1	-7.9
840	397	377.3	-1.4	-1.3	-7.2
832	410.8	372.5	-2.2	-1.3	-5
836.3	408.4	368.2	-2.3	-0.1	-1.7
832	396.2	380.1	-1.8	0.7	0.4
835	387.9	389.1	-2.8	0.1	0.9
835.2	385.7	395.3	-4.5	-0.9	1.2
838.3	388.9	400.5	-6.9	-3	1.9
836.5	391.3	406.3	-8.6	-6.5	2.1
836.6	393.6	390.8	-7.9	-9.5	3.6
843.7	388	393.4	-9.2	-10.1	7.1
844.4	378.9	375.4	-6.9	-11.2	8.3
843.1	370.2	364.2	-7	-10	8.7
847.2	361.3	377.3	-8.8	-9.3	8.7
852.7	355.4	380.4	-12.3	-10.9	8.8
856.9	350	391.2	-17.7	-14.2	8.7
848.5	346.9	367.5	-21.5	-18.7	7.1
854	346.5	324.5	-17.4	-14.8	4.8
860.7	347	342	-13.8	-7.9	5
863.8	327.1	369.3	-13.1	-7.4	5
862.3	321.2	359.6	-13.4	-8.5	3
868.1	319.7	367	-14.3	-7.6	1.8
865.2	327.7	359.3	-13.9	-9.4	0.3
861.6	328	341.1	-11	-7.8	0.5
869.5	316.2	331.2	-4.6	-3.3	-0.7
863.7	313.8	369.3	-1.6	0	-0.4
866.5	309.3	351.8	-1.8	-2.1	-2.6
870.3	318.1	345.2	0.4	0.9	-4.3
865.3	316.6	366.5	1.9	1	-4.8
864.7	325.8	356.6	3.6	0.3	-6
871.9	336	348.6	6	1.6	-5.5
868.1	330.2	366.5	7.3	2.5	-5.1
860.8	324.9	353.3	9.2	1.7	-5.8
870.8	329.7	351.4	11.3	3.9	-6.9
862.4	344.8	377.9	8.2	3.1	-7.2
861.8	363.7	354.9	6.4	1.2	-5.4
862.1	359.1	353.5	7.1	3.4	-2.5
861.2	343.9	379.1	5.6	2.7	-1.7
858.8	342.5	364.9	3.8	-0.4	-2.4
863	339.2	351.3	3.4	0.6	-3.2
860.5	333.2	357.9	3.4	1	-4.1
862.6	343.2	362.3	2.2	1	-5.6
855.3	352.2	358.3	1.8	0.4	-6.2
860.3	368.2	361.5	2.2	0.9	-5.5
858.5	377.3	378.6	-0.8	-0.4	-1.2
857.1	364.9	352	-0.3	-1.1	1
858.6	346.3	353.7	1.1	0.3	1.3
860.2	330.4	363.5	1.1	0.1	-0.4
860.2	331.9	351.3	1.6	-0.4	-3.7
859.4	348.7	357.2	2	0.6	-5.4
856.4	355.2	370.2	1.8	0.5	-5.1
856.6	363.6	365.8	-0.2	-1	-4.1
856.2	364.8	356	-0.1	-0.5	-3.1
857.2	365.2	364.9	0	-0.8	-1.8
859.7	359.3	360.5	-0.3	-1.3	-0.9
856	350.2	351.1	0.2	-0.8	-0.8
858.6	341.6	363.1	0.3	0.2	-2.6
858.2	352.9	357	-0.9	-0.9	-3.3
851.4	355.4	356.2	-0.5	0.2	-4.2
863.8	363.8	362	0	0.5	-3.4
853.3	366.3	374.1	0	0	-2.8
859.1	371	359	0	-1.8	-0.8
850.8	357.4	355.7	0.8	-0.7	0
861.5	340.5	362.3	0.8	-0.2	-0.8
856.4	343.1	360.2	-0.8	-1.2	-2.7
857	353.8	348.9	-0.4	0.2	-4.5
855.5	362.7	365.8	0	0.3	-4.1
854.8	361.6	367.5	0.1	-0.6	-3.6
854.8	369.1	357.6	-0.1	-1.1	-2.6
854.4	369.6	359.1	-0.2	-0.5	-1.5
854	361.8	365.4	-0.7	-1.2	-0.2
858.8	350.7	355.9	0	-1.2	-1
856.4	347.1	353.6	0.7	-0.6	-2.3
856.2	357.4	361.2	0.4	0	-3.8
852.7	370.9	360.8	-0.5	-0.9	-3.2
854.6	368.8	357.6	0.1	-0.4	-2.1
855.1	360.5	365.9	0.3	-0.8	-1.1
856.6	354.3	362.1	-0.5	-1.4	-1.7
854.9	360.4	355.3	-0.7	-1.3	-2.9
855.5	360.3	355.9	-0.1	-0.7	-2.3
855.2	354.8	359.2	0.2	-0.6	-2.7
855.2	362.5	357.2	-0.2	-0.8	-3.3
847.1	363.2	358	-0.4	-0.2	-3
853.6	364.6	364.5	-0.5	-0.1	-2.8
850.3	364.8	354.3	0.1	-1	-2
846.4	353.3	370.1	-0.4	-0.6	-2.8
861	357.6	351.1	-0.3	-1.4	-3.6
846.9	366.3	355.2	0	-0.7	-3.8
859.4	368.2	354.1	-0.2	0	-3.2
851.1	372.8	361.9	-0.3	-0.6	-2.3
853.2	369.8	360.5	-0.4	-0.3	-1.4
852.6	363.7	360.1	-0.1	-1	-1.3
853.1	356.2	359.3	-0.1	-0.9	-1.6
853.6	351.5	358.3	-0.4	-1	-3.1
850.5	365.3	355.8	-0.4	-1	-4.9
855.7	386.5	351.1	0	-0.4	-3.8
854	378	361.9	-0.4	-0.1	-0.4
855.9	364.7	359.7	-0.4	-0.9	-0.1
854.4	350.4	355.1	0.1	-0.3	-1.1
853.3	347.9	356.5	0.4	-0.1	-2.5
852.6	357.4	358.5	0.7	-0.1	-4.8
854.1	373.4	357	0.6	-0.1	-4.7
851.5	373.2	357.5	0.8	0.1	-4.1
851	383.4	362.7	0	-0.3	-3.1
849.9	383.4	356.6	0	-0.4	-0.9
847.4	365.7	362	0.2	-0.3	0
853.3	360.7	361.9	-0.4	-1.2	-1.5
853.1	363.8	345.4	0	-0.6	-2.3
852.5	363.1	361.4	0.4	0.3	-3.7
850.3	368.6	364.2	0.3	-0.4	-4
854.9	381.2	355.5	0.1	-0.9	-3.3
840.3	379.2	362.6	0	-0.4	-1.8
862.1	371.9	359.1	0	-0.6	-0.8
850.9	367.4	352.1	0.2	-1.5	-1.2
855.3	363.1	352.2	0.3	0.3	-2.5
848	370.2	365.3	-0.2	-0.5	-3.3
850.7	377.3	360.4	-0.4	-1	-3.3
852.9	376.5	354.2	0.2	-0.6	-2
850.7	369.8	361.6	0.1	-0.5	-2.1
847.9	371.2	356.3	-0.4	-1	-2.5
851.5	376.4	356.5	-0.4	-0.5	-2.8
852.5	374.2	356.4	0	-0.6	-1.9
850	368.6	357.2	0	-0.4	-2.3
849.7	369.9	359.6	0.1	-0.2	-3.1
851	380	359.3	0	-0.9	-3.2
849.9	382.8	357.6	0	-0.5	-2.1
849.9	375.4	358	0.2	-0.5	-0.9
852	367.6	356.6	0.1	-0.6	-1.4
850.3	370.6	352	0	-0.3	-2.6
849.7	377.6	355.1	-0.1	0.1	-3.1
847.6	381.4	362.9	-0.3	0	-1.7
849.1	377.5	359.2	0	-0.3	-1.2
849.2	373.1	360.5	0	-0.6	-1.3
850.2	369.2	353.6	0.1	-0.4	-1.9
848.8	371.3	357.9	0	-0.3	-2.5
847	378.2	356.9	0.2	-0.3	-2.7
854	381.5	357	0.1	-0.2	-1.9
844.8	377.6	362.7	0	-0.6	-1.7
838.3	376.9	356.6	-0.2	-0.5	-1.7
835.6	374.7	364	-0.3	0	-1.6
840.9	374.7	357.5	-0.6	-0.5	-1
843.7	371	362.1	-0.7	-0.6	-1.1
855.5	369.6	354	-0.2	-0.5	-1.8
851.5	376.2	356.6	0.1	-0.5	-2.5
849.4	380.2	354.9	0	-0.1	-2.5
842.2	383.9	361	0	-0.3	-1.7
844.6	378.7	360.1	-0.1	-0.4	-0.9
847.5	375.2	355.7	-0.2	-0.8	-0.7
846.6	368.8	354.7	-0.1	-0.3	-1.1
849.4	368.6	357.9	-0.5	-0.2	-1.9
851.4	377.1	358.6	-0.2	-0.7	-2.7
847.9	380.3	360.1	-0.1	-0.6	-2.3
851.9	374.3	361.8	-0.1	-0.7	-1.8
848.6	371.2	354.7	0	-0.9	-2.4
850.3	375.6	353.2	0.3	-0.4	-3.1
848.7	381.1	357.1	0	-0.1	-2.6
848	382	364.3	0.1	-0.5	-2.2
848.7	380.2	360.5	0.3	-1.1	-1.8
847.9	375.8	362.1	0.7	-1.6	-2
851.1	381.5	352.4	0.2	-2	-2.6
847.6	382.9	352.2	0.2	-1.1	-1.5
849.3	384.1	361.6	-0.5	-1.4	-1.3
845.5	382.4	352.5	-0.5	-1.4	-0.4
858	378	355.8	0	-1	-0.5
838.3	370.7	361.6	-0.3	-1.8	-0.9
851	372.1	354	-0.5	-0.9	-1.3
841.7	374.2	359.1	-0.6	-1.8	-2.1
855.7	386.1	353.3	-0.9	-0.9	-1.5
846.5	382.5	351.3	-0.4	-1.7	-0.4
850.4	375.3	353.6	-0.3	-0.4	-0.5
856.8	373	351	-0.6	-0.9	-0.8
847.1	370.4	359.4	-0.4	-0.9	-2.2
852.2	375.4	354.7	-0.3	-0.8	-2.7
847.5	383.1	352.5	0	-1.1	-2.3
850.7	386.8	350.8	-0.1	-0.5	-1.4
852.9	377.6	352.5	-0.3	-0.8	-0.2
846.9	366	354.2	-0.1	-0.7	-1
854.2	368.2	351.5	-0.1	-0.6	-1.7
847.9	371.2	354.7	-0.2	-0.4	-2.7
849.1	376.7	354.4	-0.6	-0.3	-3
849.3	382.5	354	-0.4	-0.5	-2.8
849.8	378.7	357	0	-0.4	-2.2
849.2	380.3	358.7	-0.3	-0.8	-2.4
848.9	383.7	352.5	-0.1	-0.7	-1.9
850.4	382.5	359	-0.2	-0.8	-0.7
849.2	375.8	351.9	-0.2	-1.2	-0.7
851.3	373	350.5	-0.1	-0.5	-1.3
849.1	373.2	354.2	-0.1	-0.4	-2.1
845.8	377.8	354.8	-0.5	-0.4	-2.3
857.5	378.6	354.9	-1.5	-0.4	-2.2
839.4	375.7	353.1	-1.7	-1.6	-2.6
848.5	372.4	361	-3.8	-3.1	-2.8
853.8	365.7	346.1	-3.2	-3.1	-4.6
846.4	376.2	356	-2.5	-1.9	-5.5
852.9	385.3	354.9	-2.8	-2.4	-4.7
846.4	392.2	349.6	-2.4	-2.5	-4
852.6	394.6	349.3	-1.9	-1.2	-1.7
847.5	385.3	358.6	-1.5	-1.6	-0.2
848.8	374	355.5	-1.4	-2	-0.5
856.2	369.1	350	-1.2	-2	-1.5
848.9	375.1	349.1	-0.8	-1.4	-3.1
852	384.5	351	-0.8	-0.8	-2.9
850	387.5	351.3	-0.5	-0.8	-1.6
847.9	381.4	356.2	-0.6	-0.7	-0.8
854	374.7	350.8	-0.7	-0.7	-1.2
850.9	374.8	351	-0.5	-0.6	-1.9
848.2	375.2	355.5	-0.4	-0.4	-2.4
849.4	378.6	353.8	0	-0.9	-2.7
848.9	378.6	351.8	0.2	-0.7	-2.7
850.8	382.6	349.8	-0.2	-0.7	-2.5
847.9	384.1	348.8	-0.3	-0.3	-2.4
852.9	383.1	350.8	-0.4	0	-1.9
847.1	380.9	356.3	-0.3	-0.1	-1.3
848.8	379.8	355.1	-0.1	-0.2	-1.3
849.6	379	354.7	0.1	-0.4	-1.4
849.2	381.7	350.8	0	-0.3	-1.3
853.3	380.9	348.1	-0.2	-0.1	-1
849.2	377.8	354.8	-0.6	-0.1	-1.4
845.5	379	350.9	-0.5	-0.3	-1.5
845.3	380.7	358.6	-0.2	0	-1.4
856.6	386.7	351.3	0	0	-0.4
851.9	386.7	351.4	-0.2	0.2	0.6
858.7	393.9	355.1	-0.6	0.8	1.8
852.1	398.4	343.7	-1.2	2.2	5.3
848.3	381.2	347.7	-1.1	3.8	7.6
851.5	369.6	359.6	-1.3	4.2	7.6
848.1	360.7	362.4	-0.4	3.1	6.8
852.6	353.6	364.2	0	2.7	4.9
850.5	356.4	359.9	0.2	2.1	3
849.7	352.7	359.4	1	2.3	2
851.8	343.2	372.9	1.7	1.8	-0.2
854.8	344.9	368.8	1.8	0.1	-3.1
848.8	355.2	368.1	1.3	-1.3	-5.8
854.7	372.6	363.2	1.1	-1.2	-6
850.5	381.2	368.6	1.4	-1.7	-3.7
851.8	377.8	359.7	1.4	-1.9	-1.6
853.1	373.1	355.1	0.6	-1.2	-0.6
851.8	364.9	363.1	-0.5	-1.2	-0.7
852.1	362.4	364.7	-0.6	-1.8	-1.1
853.2	360.7	362.4	0.3	-2.4	-2.1
852.7	360.7	362.3	0.4	-2.6	-2.9
850.9	362.1	356.8	0.5	-2.5	-3.3
857.9	360.2	359	0.5	-2	-4.1
846.5	360.4	357.1	0.5	-2.7	-5.8
855.8	364.6	352	0.2	-2	-6.6
850.7	370.2	351.1	0.3	-1.9	-7.5
852.9	377.6	357.9	-0.2	-1.5	-7.1
851.6	384.7	351.1	0.1	-1.5	-5.8
846.4	383	356.8	0.3	-0.9	-4.8
848	377.1	356.4	0.1	-0.7	-4.1
852.1	373.2	354.2	0.4	-0.9	-4.7
853.2	383.6	351.6	-0.6	-1.3	-4.8
851.1	393.7	346.4	-0.9	-0.3	-3.3
849.8	391.6	353.7	-1.4	0.4	-1.3
849.6	384.1	356	-1.3	0.2	-0.2
847.2	380.3	357.5	-1.6	0.4	0
850	377.9	354.7	-2	0.2	0
851.5	377.5	356.3	-1.9	-0.1	-0.3
849.4	373.1	355.9	-1	-0.4	-0.9
849.2	370.6	357.5	0	-0.4	-1.4
849.9	376.5	356.3	0.1	-0.9	-1.7
867.7	377.6	335.4	0.9	0.3	-2.5
851.3	379.2	356	0.4	-0.5	-2.5
847	381.1	356.4	-0.6	-0.8	-2.9
847.5	377.6	355.4	0	0	-1.7
847.6	380.6	359.4	0.3	-0.6	-1.3
848.1	378	358.8	0.3	-0.7	-1.1
851.1	376.5	354.4	0.7	-1	-1.6
848.5	373.5	354.4	0.9	-0.5	-1.7
855.1	370.7	356.2	1.1	-0.2	-2.7
842.7	379.8	353.8	0.5	-0.9	-3.5
854.8	388.6	352.6	0.5	0.2	-2.6
846.1	387.5	356.3	0.5	-1.2	-1.6
842.2	378.7	358.2	0.4	-0.4	-1.1
856.3	370.9	355.9	0.7	-0.7	-1.9
845.8	378.5	355.5	0.6	-1.3	-3.1
852.4	382.8	351.5	0.5	-0.2	-2.7
848.1	380.2	356.2	1	-0.9	-2.5
846.8	378.5	351.3	1.3	-0.8	-2.9
846.8	382.8	353	0.6	-0.5	-3.4
848	386.1	356.6	0.4	-0.5	-3.1
846.5	382.8	359.2	0.7	-1.4	-2.6
848.1	381.5	355.5	1.2	-1.9	-2.6
847	384.2	352.5	0.9	-2.2	-3.1
847.7	389.2	341.5	0.4	-2.2	-3
849.7	401.8	346.8	1.1	-1.1	-1.7
854.9	386.8	366	2.3	-1.2	2
856.6	354.1	361.6	7.8	-2.6	3.2
858.7	334.2	325.6	15.6	-2.4	-1.2
848.3	349.7	344.6	20.9	1.4	-8
840.9	407.7	434.5	23.4	-3.4	-10.4
864.9	507.8	423.9	32.7	-18.8	0
902.7	637.2	376.3	66.9	-28.3	31.2
918.3	639.5	374	75.3	-30.3	47.4
892.2	397.9	299	82.4	-34.9	56.4
816.5	112.5	129.1	129.5	-63.9	28.6
1195.8	118.6	-243	214.5	-53.4	-15.7
1452.3	484.3	96.6	216.2	92.2	-39.6
1313.9	637.9	568.9	183.6	130.2	-22.6
1282.4	713.8	782.1	152.7	64.7	24.9
1141.2	545.6	710.6	116.8	13.2	67.3
1183.2	356.5	650.3	89.8	-18.5	61.4
1109.1	296.3	759.8	53	-87.3	11.8
1068.4	597.1	242.3	100.8	-150.5	17.6
1106	413	-66	173.8	-114.9	68.5
984	369.8	-7.9	178.5	-72.2	61.9
804.4	416.2	461	166.2	-116.9	46.2
819.7	386.5	59.8	182	-209.5	63.2
880.3	282.7	-216.7	250.1	-224.2	81.8
772.3	205.6	-152.2	231.2	-154.3	61.4
722.6	38.6	-189.9	163.7	-149.8	6.5
675.6	94.3	-322.9	203.5	-169	-37.1
837.4	288.2	-345.8	234.2	-172.4	-18.9
635	317.7	-431.8	243	-180	-5.6
567	284.9	-666.8	240.2	-149.9	13.4
586.4	148.6	-815.9	214.6	-115.5	50.6
590.8	22.2	-831.9	204.6	-57	71
620.2	106.2	-757.3	189.7	-18.3	88.7
598.9	-38.5	-756.4	53.8	-11.1	122.9
571.2	-228.7	-768.1	62.3	5.6	129.7
560.1	-231	-635.6	100.1	13	116.2
623.9	-332.6	-523.5	93.9	-6.5	102.3
563.4	-386.4	-489.1	104.5	-24.9	72.8
545.2	-299.5	-582.6	75.6	-25.5	65
615.9	-275	-610.1	40.4	5.1	69.5
595.2	-325	-579.8	33.7	27.1	76.6
434.8	-441	-524	24	30.1	77.8
478.6	-384.5	-537.8	20.1	28.4	87.1
454.2	-499.2	-530	-16.7	44.1	95.3
458.9	-518.1	-548.5	-3.4	46.5	84.2
241.9	-637.4	-529.2	13	40.8	74.8
441.8	-529.6	-452.6	20.9	26.5	65.5
396.7	-557.2	-500.7	25.4	19.4	70.6
193.2	-711.9	-518.5	15.2	4.5	58.2
491.9	-514.2	-610.9	4.6	7.7	44
396.7	-618.8	-614.3	-17.2	46.6	63.1
306.7	-661.3	-543.2	-16.1	68.1	51.2
377.4	-667.4	-516.3	4.7	62.9	37.7
340.6	-702.6	-579.3	-11.6	52.2	43.9
416.8	-671.6	-624.8	-16.5	32.1	31.3
548.4	-534	-592.1	-24.8	36.5	19.1
531.7	-538.2	-494.7	-56.5	63.5	22.4
479.9	-580.9	-467.6	-70	75.7	30.2
443.2	-619.9	-504.5	-75.2	59.1	33.7
455.3	-635	-570	-77.3	34.3	28
505.4	-606.5	-585.2	-93	30.8	17.7
556.8	-587.5	-496.8	-100.1	46	15.8
518.1	-581.2	-392.7	-99.6	42.5	35.6
443.8	-630.6	-530.7	-131.6	-6.3	49.5
360.1	-714.3	-766.3	-117.5	-56.6	55
379	-672.2	-890.8	-91	-69.9	39.9
453.6	-590.9	-937	-72.3	-40.7	15.7
470.5	-517.7	-866.5	-62.1	3.5	13.8
431.7	-526.9	-826.9	-76	21.5	16.6
419.9	-555.9	-863.5	-70.4	29.1	17.2
444.5	-508.4	-814	-59.3	36.4	10.2
456.1	-445.6	-746.5	-49.7	28.1	11.3
432.9	-477.5	-757.8	-44.7	3.5	13.8
427.6	-510.2	-838.3	-37.4	-6.7	13
432.2	-485.2	-894.7	-32.6	0.9	8.8
455.9	-448.4	-879.5	-37.4	12.2	1.4
489.3	-403.8	-858.7	-42.5	25.4	-5.3
523.6	-357.9	-791.8	-33.5	33.2	0.1
518.9	-356.3	-761.9	-37.4	30.9	5.1
514.8	-380.2	-778	-43.8	27.2	4.2
512.2	-371.8	-793.4	-40.8	27.1	2.8
532.3	-335.5	-783.2	-27.2	26.5	3.7
530.3	-342	-764	-29.7	27.2	3.2
535.8	-354.4	-794	-35.5	29.3	2.3
540.1	-349.3	-811.7	-29	31	3.8
536.8	-344.8	-777.8	-28.8	32.9	2.9
529.4	-343.5	-755.8	-30.8	32.6	1.1
551.6	-344.2	-744.5	-28.3	27.4	-0.4
566	-341.6	-765.1	-16.3	22.7	2.2
570.8	-331.5	-794.7	-5.3	22.1	2.7
588.5	-304	-787.4	-9	30.4	0.2
598.1	-280.3	-760.7	-17	37.6	1.4
630.1	-267.5	-801.8	-16.1	47.5	4.2
654.6	-269.6	-849.8	-20.7	69.4	8.7
626.4	-301	-874.8	-20.9	86.4	13.9
653.8	-281.2	-857.4	-8.6	92.5	12.2
669.9	-264.1	-839.7	-0.1	93.4	5.2
703.2	-238.6	-827.5	-2.7	103.1	6.3
722.4	-258.4	-776.6	-15.7	123.2	9.8
741	-257.9	-740.1	-16.8	132.6	14
750	-260.7	-720.4	6.2	118.9	17.5
740.6	-271.4	-659.7	23.2	107.3	14.9
749.1	-258.7	-569.5	28	103.6	10.5
740.1	-271.2	-561.8	31.2	92	13
741.4	-282.8	-567.5	41.7	88.2	8.3
774.5	-306.2	-544.7	-2.3	70.7	-7.4
736.8	-322.1	-475.4	0	63.1	-10.8
772.3	-292.2	-467.2	-6.8	62.3	-21.2
800.4	-203.2	-479.9	-2.3	58.4	-25
813.2	-171.2	-507.2	-1.9	70.2	-18.9
803.8	-192.6	-379.1	1.3	92	-6.1
780.6	-273.6	-233	10.8	91.2	1.6
787.3	-380.7	-141.7	29.8	65.7	-5.3
816.8	-405.2	-167.2	41.6	53.6	-22.7
820.1	-363.2	-154.6	68.7	48.5	-33
845.8	-304	-60.4	83.1	48.9	-36.7
893.6	-214.4	41.7	85.5	39.7	-26.5
856.3	-226.8	84.3	109.5	9.2	-14.5
782.9	-305.2	35.1	140.9	-35.5	-7.7
819.9	-500	-114.1	164.6	-40.9	-13.6
791	-446.2	-110.8	184.5	-22.7	-34.5
832.3	-302.4	-93.3	195.1	-29.3	-42.2
851.5	-235.7	-80.6	192.3	-20.5	-36.8
888.7	-166.6	-33.9	179	-10.2	-22.3
857.9	-214.5	102.6	164.9	-12.3	-0.1
798.5	-337.6	205.4	137.4	-36.2	2
766.7	-437.7	17.4	143.8	-68.4	-18.7
796.6	-402.5	-28.3	131.5	-75.9	-32.5
828.1	-340.8	-132	122.1	-66.7	-59.9
870.4	-164.3	-136.3	121	-44.6	-58.4
918.5	-86.9	-80.8	114.5	-18.1	-39.8
965.9	-113.1	-81.9	94.8	4.3	-23.8
940.6	-181.6	-90.5	91.7	37.1	-9.6
916.8	-127.6	65.6	69.3	56.6	-7.7
935.3	-18	235.1	48.1	53.9	11.6
958.8	27.7	212	28.1	33.8	54.1
862.1	-16.3	197.9	6.4	18	112.8
969.7	-342.4	213.1	-21.2	-0.7	150.1
893.9	-601.4	183.8	-22.9	-12.5	124.8
890.5	-668	61	-34.6	-0.5	48.5
951.7	-613.6	100.4	-34.3	25.9	-20.5
920.2	-489	314.2	-16	19.5	-63.3
915.2	-356.6	368.1	36	-30.1	-66.4
941.7	-334.3	144.7	8.3	-48	-68.7
904.6	-230.2	-23.9	-28.2	-12.6	-70.7
927.2	-197.8	-41.8	-40.9	22.9	-49
889.7	-337.4	-39.3	-7.3	36.2	-27.7
937.2	-266.3	166.9	7.7	41.6	-40
1006.7	-177.3	257.5	4.6	14.7	-61.5
991.8	-162.8	235.9	-7.4	-15.5	-63.3
980.9	-148.3	153.5	-34.5	-22.2	-69.4
1026.7	-63.5	114.6	-55.1	-15.5	-69.4
1062.8	24.2	128.9	-71.3	-22.1	-55.8
1043.4	-29.1	144.7	-43.5	-57.9	-47.8
1031.4	-71.7	10.7	-7.8	-80.1	-48.4
1011.5	-87.2	-81.2	8.1	-59.1	-51.6
1062.5	-62.8	-28	-8.9	-25.6	-59.1
1077.7	8.7	-26	-21.1	-4.8	-55.5
1034.1	11.3	-31.3	-21.4	5.6	-45.4
1021.2	36.7	52.1	-20.7	6.5	-45.3
1021.9	24.2	12.5	-23.4	-2.9	-47.3
1855.7	108.1	-23	-12	-6.8	-60.5
1747.9	267.8	193.4	1.5	-32.7	-18.7
794.7	-200.5	-221.1	-7.6	-12.4	12.1
681.7	-177.7	5.8	-32.1	37.4	-10.6
784.9	-38.6	96.9	-54.7	12.4	-36.9
1006.2	15.1	31.2	-53.9	0.4	-56.3
1200.9	245.6	-37.1	-34.4	-5	-68.9
895.1	170.4	-169.5	-23.4	3.8	-48.3
951.6	252.8	-86.7	-38.2	13.1	-22.9
1105.8	229.6	-29.4	-49.6	10.6	0.3
966.3	97	-63.4	-49.5	10.2	19.6
977.2	-13	-37.3	-60.1	14.3	19.6
1003.1	-18	25.3	-72.2	17.3	4.1
1000.6	12.2	75.9	-86.5	13.9	-7.6
992.9	28.3	159.3	-116.8	12.9	-21.8
958.9	-2.9	88.5	-142.6	-6.9	-32.8
976.8	32.1	21.4	-136.2	-27	-47.5
1024	202.3	42.8	-147.8	-23.7	-52.4
956.2	232.5	-130.1	-142.6	-24.9	-23.8
1007.3	137.4	-87.8	-118.7	-22.9	-6.7
981.3	4	-112.1	-99.4	-25.1	-5.8
1002.8	89.5	-123.6	-73.3	-15.9	-17.6
970	115.1	-27.2	-63.5	-12	-22
974.3	102.6	-27	-62.7	-21.6	-22.1
979.9	126.8	-3	-82	-24.3	-26.9
956.6	127.6	42.1	-101.2	-32.2	-34.8
952.5	157.9	57.8	-97.9	-46.1	-48.8
991.2	162.8	-21.7	-114.5	-53.6	-53.9
931.3	232.1	-203.7	-107.3	-28.6	-50.8
1005.8	393.1	-274.9	-94.5	-9.4	-34.6
928.7	280.1	-114.1	-58.4	24.5	-1.6
980.9	285.7	-29.2	-33.6	18.7	3
953.8	217.7	9.7	-20	16.7	7.6
948.9	195	37.5	-18.8	1.4	0
959.9	203.8	27.4	-20.5	-3.6	0.1
979.2	230.2	3.7	-16.8	-7.1	0.8
979.7	285.1	12.3	-15.6	-11.7	2.8
972.2	296.8	-23.5	-4.8	-12	9.8
972	315.4	-11.8	-7.3	-7.2	29.2
977.5	312.7	-23.1	1.1	-9	49.4
909.9	208	-91.7	-46.4	0.3	78.4
973.8	134.6	-58.3	-47	7.3	77
986	64.9	29.5	-60.4	9.6	69.5
947.3	75.8	-52.8	-55.2	4.3	65.1
986.3	98.8	-87.6	-41.4	9.2	58.2
1014.7	108.1	-45.5	-24.6	10.5	34.3
988.6	66.4	-52.6	-7.2	8.1	23.6
981.9	36.1	4.6	7.4	9	17.3
990.4	44.6	46.5	5.1	-0.6	5.2
988.7	42.7	0	3	-8	-3.7
995.4	26.1	-8.6	3.9	-6.5	-10.7
981.9	19.6	1.7	2.9	-5.8	-17.5
989.2	41.2	-10.7	0.2	-5.3	-22.2
988	76.1	-14.2	-3.6	-3	-22.9
982	94.9	-20.2	-1	-1.6	-20.1
984.7	87	-14.1	-3.6	0.3	-17.4
987	81.5	-26.7	3.5	3.1	-19.2
993.1	84.8	-28.1	5.4	8	-22.9
983.1	83.8	-12.4	6.5	10.3	-28.7
981.3	112.5	5.2	5.9	10.7	-31.4
979.9	142.2	20.6	7	9.7	-30.5
980.7	174.6	27.9	6	6.2	-25.2
979.7	192.3	8.7	10.1	5.3	-17.6
976.6	192	23.6	9.2	3.7	-9.2
979.3	167.4	26.8	7.4	1.5	-3.9
980.4	150.1	18.5	4.6	-0.5	-3.5
982	154.5	11.8	2.6	-1.4	-4.5
978.7	157.8	6.9	2.3	-0.9	-4.1
980.1	154.1	-5.4	4.4	0.2	-4
977.1	157.3	12.5	2.2	1.5	-4.4
979.3	157.2	19.5	0	0.3	-4.5
978.2	158.5	10.6	-0.2	0	-4.8
981.6	172.4	18.6	-1.4	0	-4.5
976.1	170.5	14.7	-1	-1	-2.9
979.1	159.6	10.3	-0.5	-0.8	-2.1
979.6	154.5	16.3	-0.6	-0.7	-3.3
978	165.1	16.1	-1.6	-1.8	-4.6
979.6	177.9	7.3	-3	-1.9	-4
979.1	169.6	-1.2	-2.3	-0.3	-2.3
981.2	156.4	2.3	0	1.2	-2
979.2	155.2	18.7	1.1	4.2	-3.8
976.4	169.5	36.3	-0.6	0.4	-5.2
979.1	186	15.6	-0.9	-1.6	-3.6
977.4	170.1	5.4	-1.2	-0.5	-1.5
979.2	160.7	7.8	-1	0	-1.6
975.5	156.3	17.8	-1.6	0.5	-3.9
976.9	169.4	21.3	-2	-0.5	-5.2
979.3	172.8	18.9	-1.9	-0.8	-4.8
976.6	175.6	21.4	-2.7	-1.5	-4.6
976.3	181.2	16.3	-3.7	-2.2	-4
980.3	191.4	22.2	-4.7	-2.8	-2.5
979.1	206.2	30.5	-5.3	-5.6	0.8
978.6	191.1	51.7	-10.8	-8.8	5
980.9	184.6	48.3	-19.8	-16.7	6.8
963.7	171.6	23.4	-43.5	-16.9	4.6
970.3	185.1	-27	-31.4	-23.6	10.1
985.3	149.5	-64.3	-27.6	-13.9	12.9
978.5	123.6	-34.6	-24	-6.5	11.1
978.5	113.5	-21.4	-18.2	-4.2	5.9
976.1	114.2	-20.6	-14.6	-2.7	0.9
979	124.5	-7.5	-10.6	-1.5	-3.4
977.6	142.5	-1.3	-9.2	-2.9	-5.3
979.9	137.6	-32.8	-3	-1.2	-6.3
979.3	120.3	-25.8	0.3	3.4	-9.1
982.6	136.7	-0.2	0.9	4.3	-14.4
981.6	171.7	-9.3	1.9	3.6	-15.9
980.2	170.4	-23.3	4.3	5.6	-13.2
979.8	144.4	-23.3	9.7	10.1	-14.5
982.2	159.6	39.7	7.5	10.9	-19
974.6	203.1	41.1	4.3	1.9	-19.7
975.9	231.2	10.1	3.3	-0.2	-13.3
975.5	210.8	3.1	5.6	0.2	-7.4
976.3	179.5	2.9	7.4	0.7	-6.9
975	206	15.2	4.6	-0.2	-9.2
973.2	239.6	5.7	2.9	-1.9	-4.1
974.6	214.5	-18.7	3.8	0	2.7
973.2	173.4	4.6	3	2.6	2.4
972.5	166.3	20.7	0.9	0.3	-2.1
973.1	192.6	3.9	1.6	-0.2	-4.8
974.1	198.3	7.5	0.4	-0.2	-3.2
974.1	191.5	-0.1	0.7	0.1	-3
973.5	200.1	7.8	0.3	0.7	-3.1
972.6	191.8	6.5	0.7	0.3	-2.1
974.6	188.2	1.8	1.1	0.5	-2.7
973.1	201.9	17.3	0.3	0.5	-3.9
972.9	209.1	5.1	0.3	-1	-1.8
974.3	201.1	4.1	0.5	0	-0.4
971.5	192.8	17.2	-0.3	-0.4	-0.1
975.3	183.1	1.9	0.2	-0.9	-1.1
974.7	181.5	4.3	0.9	0.3	-3.3
973.2	191.1	17.3	-0.2	0	-5
974.4	205.6	6.1	0	-1.1	-4.7
973.1	208.7	7.4	0.3	-0.1	-2.9
971.4	204.2	11.1	-0.5	-1.5	-2
973.3	197.1	-6.4	0	-0.5	-1.7
973.7	187.6	8	0.5	1	-2.6
971.1	191.1	16.7	0.7	0	-4.3
972	208.2	13	0	-1.5	-4.5
973.5	212.5	0.6	0.2	-0.9	-2.6
971.5	208.3	13.9	-0.4	-0.9	-1.2
974.6	202.6	6.9	-1.5	-2.1	-0.6
974.6	196.8	-1	-1.3	-1.5	-1.8
970.9	194.4	8.3	-1	-0.7	-2.5
974.8	194.9	7.6	-0.6	-1	-2.6
972.1	200	8.5	-1.2	-1.4	-3.6
969.8	206	5.7	-1.3	-1.6	-3.4
973.8	208.2	5.1	-0.8	-1.2	-2.9
971.1	206.4	9.1	-0.6	-1.6	-1.7
970	198.6	-3.4	-0.2	-1.1	-1.8
975.4	194.3	3.4	-0.4	0.2	-3.3
972	203.7	13.1	-1.9	-0.5	-4.4
974.1	209.7	1.5	-2.1	-1.3	-4.7
971.3	207.8	4.3	-1.4	0	-4.2
969.3	205.2	8.6	-1	-0.2	-3.6
969.3	212.5	12.2	-0.9	-0.7	-3.6
971.6	214.2	5	-0.1	-0.6	-2.1
968.5	210.9	17.7	-0.5	-1.1	-1.5
972.1	205.5	4.1	-1.8	-2.3	-1.9
971	203	-2.6	-1.2	-1	-2.5
970.5	202	6.5	-1	-0.4	-2.9
971.6	213.7	11.3	-1.2	-0.7	-3.3
970.4	217.6	7	-1.5	-1.3	-2.4
970.8	215.2	4.7	-0.7	-0.8	-1.5
970.2	210.8	6.1	-0.4	-0.6	-1.1
969.8	205.2	13	-0.4	-1.2	-1.2
970.2	205.9	1.3	-1.1	-1.5	-2
967.6	210.9	0	-1.1	-0.7	-2.4
971.1	215	8	-0.8	-0.3	-1.8
970.4	212.2	10.3	-0.3	-1.4	-0.9
968.9	202.8	2.8	0.2	-1.1	-0.9
971	206.2	9.6	-0.6	-1.1	-1.9
971.1	215.5	2.5	-0.9	-1.6	-2
971	218.3	-2.4	-0.1	-0.5	-0.4
971.3	215.4	5	0.1	-0.2	0.5
971.1	216.6	-0.8	0	-0.5	1.2
969.9	215.8	8.5	-0.4	-0.2	2.2
972.4	204.2	15.8	-1.1	-1.3	3.2
971.5	182.4	8.4	-1.6	-1.9	2.2
972.7	170.2	3.1	-2.6	-1.5	-1.6
972.7	178.3	0	-2.9	-0.5	-5.9
973.2	202.1	-0.6	-2.6	0.4	-8.1
971.9	223	15	-1.7	0.1	-6.9
971	232.5	8.7	0.6	-1.1	-3.8
968.3	225.2	6.1	2.3	-1.2	-0.7
971.9	206.6	8.6	2.5	-1.6	0.3
971.3	192.2	2.1	2.1	-1.6	-0.7
968.9	195.5	5.7	0.8	-1.5	-3.2
968.6	213.7	4.1	-0.7	-1.8	-4.3
971.4	223.2	-1.4	-1	-1.6	-2.6
971.4	209.9	1.4	-0.9	-0.9	-1.1
968.2	196.5	1	-1	-0.7	-2
969.8	202.6	5.1	-1.2	-0.5	-3.9
970	215.3	0.8	-0.6	-0.5	-4.1
970.7	216.3	-0.1	0	0.2	-2.8
969.8	211.7	-0.8	0.1	0.6	-2.5
968.6	212.1	5.2	0.3	1	-2.9
968.8	216.7	11.4	0.4	0.2	-2.8
970	215.4	6.2	0.5	-0.2	-1.9
968.8	209.1	10	0	-0.3	-1.8
969.3	209.4	12.5	-0.6	-1.4	-2.3
968.6	214.9	5.1	-0.7	-2	-2.2
969.3	214.8	2	-0.7	-2.1	-2
969.7	211.3	-4.5	-0.8	-1.3	-2.1
970.3	209.3	-3	-1	-0.8	-2.1
968.6	214.5	10.6	-1.4	-0.7	-2.7
971.3	219.7	2.8	-1.4	-1.6	-2
968.7	213.6	0.2	-0.4	-0.6	-1.5
969.2	211.5	5.2	0	-0.9	-1.5
969.4	214.7	0.4	-0.2	-1	-1.9
969.7	218.5	0.3	0	-0.5	-1.5
969.6	211.6	0.7	-0.3	-0.3	-1.1
969.9	208.1	0.8	-0.4	0	-1.9
969.7	210.2	3.9	-0.3	0.3	-2.8
968.3	216.4	8.4	-0.1	-0.1	-2.8
968.1	218.2	7.9	0.1	-0.3	-1.9
969.6	217	5.2	0.2	-0.7	-1.7
970	213.9	2.4	0.2	-1	-1.7
968.9	214.2	3.2	0	-0.5	-1.5
969.7	216.9	8	-0.2	-0.9	-1.5
969.7	216.1	8.4	-0.3	-1.4	-1
969.3	209.4	3.1	-0.3	-1.6	-0.8
969.6	208.7	4.7	-1.1	-1.4	-1.8
968.5	214.8	3	-1.2	-1.5	-2.2
969.7	222.1	2.3	-1.5	-1.8	-1.7
969.8	218.2	-0.9	-0.9	-1.4	-0.9
970.4	211.3	-0.1	-0.6	-1.2	-0.5
970.8	203.9	2	-1	-0.9	-1.4
970.3	211.7	1.2	-1.4	-1	-2.7
969.9	224.7	0	-1.1	-0.9	-2.3
967.6	220.3	1.8	-0.3	-0.8	-0.5
970.9	208.7	1.2	-0.2	-0.7	-0.5
969.7	207.7	1.3	-0.6	-0.6	-1.6
969.8	210.5	2	-0.1	-0.4	-2.1
968.5	209.9	2.5	-0.3	-0.5	-2.3
969.4	213.7	3	-0.3	-0.4	-2.9
970.8	216.6	2.4	-0.8	-0.6	-2.5
969.6	216.4	-0.6	-0.7	-0.6	-2.3
968.8	207.1	-0.4	-0.6	0.1	-2.9
969.1	207.7	5.2	-0.8	0	-3.8
969.9	212.8	3.6	-0.6	0	-4.3
967.5	216.6	7	-0.9	-0.4	-4.4
967.6	218.6	4.5	-0.8	-0.5	-4.4
966.7	220	5.1	-0.3	-0.5	-4.3
968.6	223.2	5.1	0	-0.6	-4.2
968.5	218.9	4.6	0	-0.7	-3.7
969.3	217.6	3.1	-0.3	-0.9	-4.2
969.1	230.9	0.1	-0.4	-0.7	-4.3
968.7	237.7	2.1	0	-0.2	-2.4
968.2	226.6	7.6	0.4	-0.4	-0.8
968.2	213.9	2.5	-0.2	-0.7	-1.3
968.3	215.3	-0.4	-0.6	-0.1	-2.7
968.3	221.4	3.9	-0.4	-0.2	-3.5
967.2	228.7	3.7	-0.3	-0.3	-3.4
968	230.5	4.7	0.1	-0.5	-2.2
968.2	224.8	0.6	0.3	-0.6	-1.8
967.8	217	1.4	0.2	-0.1	-2.4
966.6	217.6	2.8	0.5	0.2	-3.3
966.6	220.4	4.6	0.6	0.3	-4.3
966.9	223.6	2.8	1.1	0.5	-5.2
968.2	228.3	-5.1	2.7	1.9	-4.9
967.5	215.8	0.1	2.9	2.7	-5.8
962.7	224.6	23.8	0.3	1.3	-7.8
964.3	245.3	14.2	-0.5	-0.2	-7.6
965.9	250.8	9.8	-0.1	-0.5	-5
964.1	243	8.5	0.4	-0.9	-3.1
963.3	231.3	6.3	0.4	-0.5	-2.9
964.5	229.6	7.5	-0.3	-0.7	-4.3
964.7	242.1	7.2	-0.5	-1	-4.4
963.1	241.9	3.9	0	-0.4	-3.3
964.3	236.3	10.6	0.3	-0.3	-3.2
962.2	237.9	11.4	0.1	-1	-3.9
963.7	242.7	4.6	-0.1	-0.9	-3.6
964.4	245.3	5.8	-0.1	-0.5	-2.8
963.1	241.6	6.1	-0.2	-0.7	-2.3
962.2	238.6	5.7	-0.1	-0.7	-2.6
965	238.7	6.5	0.2	-0.4	-3
963.1	242.5	14.1	-0.3	-1	-3.3
962.7	246.3	-1.3	0.1	-1	-2.6
961.9	241.2	5.3	0	0	-2.3
964.2	243.1	9.5	-0.3	-0.6	-2.9
960.6	243.4	2.8	0	-0.5	-2.8
965.5	249	11.3	0	-0.6	-2.6
962.7	246.5	2.8	0.2	-0.6	-1.8
961.3	244.6	4.1	0.1	-0.2	-1.7
963.6	240.7	9.2	-0.2	-0.5	-2.2
963.1	244.6	9.5	-0.7	-1.2	-2.5
963.2	246.7	2.3	-0.3	-1	-2.3
962.1	240.7	6.8	-0.5	-0.8	-2.1
963	244	3.6	-0.7	-0.6	-3
962.7	250.6	5.7	-0.6	-0.3	-2.3
961.7	250.2	11.1	-0.2	-0.2	-1.5
961.4	247.4	9.6	-0.2	-1	-0.9
962.6	244.2	3.2	-0.3	-0.5	-1
962.5	243	1.5	-0.6	0	-1.2
961.4	241.2	11.5	-0.7	0.2	-1.9
961.5	244.9	12	-0.6	-0.7	-2.5
961.7	254.3	10.6	-0.1	-0.9	-1.9
962.8	246.5	10.3	0.1	-1.2	-0.5
961.1	236.8	3.7	-0.1	-1.2	-1.3
963.8	236.6	6.7	-0.4	-1	-2.6
962.5	242.4	7.4	-0.4	-0.9	-3.4
963.5	249.7	7.5	-0.1	-1	-3.2
961.4	252.5	6.2	-0.1	-1.3	-2.5
963.2	251.7	0	0	-1	-1.5
961.9	244.2	6.5	-0.1	-0.3	-1.1
962.5	243.2	11.8	-0.1	-1	-1.7
962.5	245.2	5.4	-0.1	-1.4	-2.1
961	249.7	2.8	-0.1	-1	-2.2
962.4	247	5	-0.2	-0.7	-1.6
960.8	247.5	7.6	-0.4	-0.7	-1.6
961.6	246.7	5.6	-0.4	-0.8	-1.7
962	247.6	7.8	-0.4	-1.1	-1.6
960.2	249.5	6.9	-0.4	-1.4	-1.3
961.3	250.1	2.8	0	-1.2	-0.8
962.4	242.1	4.1	0.1	-0.6	-0.7
962.7	241.9	9.1	-0.2	-0.8	-1.7
961.4	246.3	5.6	-0.6	-1.4	-2.1
963.8	252	4.7	-0.4	-1.3	-1.5
961.4	247.3	3.4	0.1	-1	-0.7
962.5	240.8	4.6	0	-1.1	-1.1
960.2	242.5	5.2	-0.5	-1.3	-2
962	249.5	1.2	-0.9	-0.9	-2.2
962.7	250.9	0.8	-0.7	-0.7	-1.7
963.6	249.3	3.1	-0.2	-0.4	-0.8
962.4	241.8	8	0	-0.5	-1
961.9	240.7	4.6	-0.3	-1	-1.9
963.2	245.6	1.9	-0.4	-0.9	-2.1
961	245.7	7.5	-0.4	-1.1	-1.9
961	246	5	-0.2	-1.4	-1.6
963.1	246.9	-0.4	0	-1.2	-1.8
963.3	244.7	-1.8	-0.1	-0.5	-1.5
964.1	244	2.5	-0.3	0.1	-1.8
959.4	247.6	12.9	-0.9	-0.5	-1.7
961.4	251.7	1.4	-0.4	-1.2	-1.4
962.6	248.9	0.2	-0.3	-0.5	-0.2
963.2	238.4	1.2	-0.2	-0.2	-0.4
962.7	238.1	6.2	-0.6	-0.5	-1.7
960.4	244.7	3.7	-0.4	-0.8	-2.5
961	252.6	4.1	0	-0.9	-1.8
963.8	246.5	3.2	0	-0.9	-0.8
962.2	239.1	4.1	-0.4	-0.7	-1.3
960	242.1	2.8	-0.4	-0.9	-2
964.7	246.9	5.2	-0.2	-0.8	-2.1
957	242.5	1.4	-0.2	-1	-2.3
962.4	244.7	1	-0.6	-0.5	-1.8
963.2	248.1	5.1	-0.5	-0.5	-2.2
964.5	249.3	1.5	-0.3	-0.6	-2
962.8	245.9	3.4	0	-0.6	-1.3
963.7	241.3	5.9	0	-0.8	-1.4
961.1	242.5	3	-0.4	-0.9	-1.9
962.4	249	2.5	-0.5	-0.7	-2.2
961	253	2.5	-0.4	-0.7	-1.3
961.5	243.4	4.1	-0.1	-0.6	-0.7
963.3	238.6	5.2	-0.1	-0.8	-1.3
963.1	242.9	1.2	-0.4	-0.9	-2.1
963.6	247.1	3.7	-0.7	-0.6	-2.2
965.4	250.1	3.5	-0.3	-0.8	-1.7
962.1	246.5	3.9	-0.1	-0.9	-1.3
961.4	245.9	4.1	-0.1	-1	-1.5
962.8	245.1	4	-0.3	-1	-1.2
961.3	243.2	0.9	-0.1	-1.1	-1.5
960.6	241.8	0.7	-0.1	-0.9	-1.6
962.6	243.1	0.4	-0.2	-0.6	-2.3
962.1	247.6	3	-0.3	-0.7	-2.3
960.8	245.4	2.4	-0.3	-0.7	-1.9
962.5	247.6	0.3	-0.4	-0.4	-1.9
964.3	244	5.6	-0.6	-0.4	-1.8
960	244.2	7.5	-1	-0.9	-2.2
967.4	246.2	1.7	-0.6	-0.7	-2.2
954.3	245.6	3.7	-0.7	-1.3	-2.2
970.7	249.8	5.3	0	-0.7	-1.6
954.1	241.9	-1.3	-0.1	-1.4	-2.1
961.6	248.7	1.9	-0.8	-1	-2
964.2	251.4	-3.9	-0.4	0.1	-2
958.6	247.5	7.5	-0.7	-0.1	-1.5
959.8	247.9	9.5	-0.6	-0.9	-1
963.8	247.8	-5	-0.1	-0.6	-0.7
963.3	243.8	1	-0.5	-0.1	-0.8
961.3	239.2	8.3	-0.5	-0.5	-1.4
962.2	242.6	2.6	-0.5	-0.8	-2.1
964.5	250.4	4.1	-0.3	-0.8	-2.4
961.5	251	1.4	-0.2	-0.9	-1.9
960.3	246	3.2	-0.2	-0.8	-1
963.7	242.3	3.7	-0.1	-0.5	-1.4
960.8	238	0.3	-0.3	-0.6	-2.5
961.3	241.3	4	-0.8	-0.3	-3.2
961.4	250.4	3	-0.6	-0.5	-3.2
961.9	251.5	1.3	-0.9	-0.5	-2.3
962.2	242	3.7	-1.1	-0.2	-2.4
961.4	241.8	10.6	-1.5	-0.9	-3.5
963.2	252.8	2.9	-1.2	-1.1	-3.8
959.2	252.6	3	-0.8	-0.9	-2.7
964.2	251.4	3.2	-0.5	-1	-2.2
961	248	1.5	-0.8	-0.7	-2.4
961.3	258.5	5.4	-0.6	-0.7	-1.8
958.3	252.8	2.3	-0.2	-0.9	-0.4
963.1	244	4.5	0	-0.7	-0.5
961.3	243.4	1.2	-0.2	-0.9	-1.8
961	246.8	3.4	-0.6	-0.6	-2.3
962.1	252.5	4.2	-0.2	-0.5	-2
962.6	250	6.4	-0.1	-0.7	-1.8
960.8	248.2	4.6	0	-1.1	-1.6
959.4	246	2.3	-0.4	-1.3	-1.8
962.6	248.5	0.2	-0.6	-0.9	-2.2
960.3	248.9	0.9	-0.6	-0.6	-2.4
961.4	252.1	3.9	-0.4	-0.5	-2
960.6	252.9	2.8	-0.2	-0.7	-1.6
958.7	249.7	3.4	-0.4	-0.7	-1.4
962.5	247.8	0.3	-0.4	-0.3	-1.7
960.2	245.2	4.1	-0.4	-0.4	-2.1
960.4	249.3	5.6	-0.4	-0.7	-2.6
961	254.8	1.9	-0.2	-0.8	-2.3
961.3	253.1	2.6	-0.3	-0.6	-1.7
961.1	246.3	3.5	0	-0.6	-1.8
961.3	245.8	3.1	-0.2	-0.6	-2.4
960.5	252.5	1.5	-0.4	-0.7	-2.9
960.4	260.9	0.1	-0.1	-0.3	-1.8
961.3	258.1	7.2	0	-0.2	-0.5
961	247.5	4.6	-0.1	-0.8	-0.4
961	241.2	-1.7	-0.6	-0.4	-1.2
962	250.7	5.1	-0.7	0	-2.2
961.1	252.4	4.3	-0.3	-0.3	-1.5
961.3	250.2	4.6	0.1	-0.4	-1.2
959.3	246.5	5.4	0	-0.8	-1.7
961.1	249	2	-0.1	-0.7	-2.1
960.8	250.6	5.1	-0.3	-0.5	-1.9
963.2	249.8	5.2	-0.1	-0.5	-2
960.3	250.7	6.1	-0.2	-0.5	-2.1
959.3	251.5	3	-0.3	-0.8	-2.3
960.9	251.2	3.2	-0.2	-0.6	-2
961.6	248.1	0.8	-0.2	-0.2	-2.2
959.8	251.4	4	-0.6	-0.1	-2.7
961.4	256.1	10.2	-0.5	-0.5	-2.5
960.8	256.9	6.7	0	-0.8	-1.6
960.6	249.7	2.3	0.3	-0.6	-1.3
960.4	250.1	1.5	0	-0.7	-2
961	251.3	0.9	-0.6	-0.3	-2.1
959.4	250.7	4.6	-0.5	-0.1	-2.2
960.6	251.3	7.3	-0.1	-0.3	-2.3
959.9	255.3	7	-0.1	-1	-2.3
959.7	257.4	3.9	-0.2	-1	-2.2
960.8	255.6	3.1	-0.3	-0.6	-1.4
960.9	249.3	4.5	-0.3	-0.7	-1.3
959.2	249.2	3.7	-0.3	-0.8	-1.9
960.9	252	3.6	-0.3	-0.6	-2.2
961.1	251.9	5	-0.5	-0.6	-2.2
960.8	251.7	3.6	-0.3	-0.8	-2.1
961	250.2	2.4	-0.2	-0.5	-2
961.4	253	4.5	-0.2	-0.3	-2.4
958.6	256.5	5.9	-0.2	-0.7	-2.2
960.9	258.1	4.6	-0.3	-0.8	-1.7
958.7	253.5	1.5	-0.2	-0.6	-1.4
962.7	253.7	5.3	-0.3	-0.2	-1.7
958.6	254.2	6.7	-0.3	-0.9	-2
961.6	255.2	5.1	-0.2	-0.8	-1.8
956.7	255.3	6.4	-0.1	-1.1	-1.3
962.4	251.5	5.3	-0.1	-1.2	-1.5
959.1	247.5	-1	-0.2	-0.8	-2.1
960.6	251.3	1	-0.6	-0.2	-2.8
958	266.6	9.1	-0.7	-0.6	-2.4
960.3	266.4	7.8	0	-1.3	-0.1
960.4	248.9	-1.5	0	-1	0.2
960.4	245.8	-0.2	-0.5	-0.2	-1
959.9	252.3	8.1	-0.9	-0.4	-1.9
960	257.3	5.9	-0.7	-1.1	-1.5
959.9	254.3	3.9	-0.3	-1	-1.2
959.5	254.1	3.9	-0.1	-1	-0.9
960.6	248	4	-0.3	-0.9	-1.4
961.5	248.6	3.2	-0.4	-0.8	-2
959.7	252.9	4	-0.4	-0.8	-2.5
960.5	256.5	5.4	-0.5	-0.8	-2.5
958.1	257.4	4.6	-0.3	-1.1	-1.7
960	252	1.9	-0.2	-1.1	-1.2
962.4	250.9	0.9	-0.3	-0.4	-1.9
956.6	254.3	7.5	-0.7	-0.9	-2
962.7	255.4	5.6	-0.6	-1.1	-1.7
957.8	253	1.4	-0.3	-1.1	-1.6
962	253.9	5.2	-0.3	-1	-1.5
958.1	254.5	0.8	-0.5	-0.9	-1.5
960.6	253.1	1.7	-0.7	-0.7	-1.2
958.3	248.9	4.3	-0.6	-0.5	-1.4
962	249	6.9	-0.5	-0.8	-2
959.4	252.5	3.7	-0.3	-1	-2.3
960.9	254.5	2.8	-0.5	-1	-2.3
961.5	260.1	0.8	-0.4	-0.9	-2.1
958.4	256.3	4.1	-0.4	-0.7	-1.1
960.2	252.9	4.3	-0.2	-1.1	-1.2
959.8	251	2.1	-0.3	-1	-1.6
959.8	254.7	0.2	-0.2	-0.9	-1.8
960.4	254.6	1.4	-0.2	-0.7	-1.7
958.6	253.7	1.5	-0.3	-0.8	-1.8
960.2	251.8	2	-0.6	-0.7	-1.9
959.4	254.6	1.4	-0.4	-0.4	-2
959.4	258.9	4.7	-0.2	-0.6	-1.5
958.8	255	4.2	0	-0.8	-0.9
958.3	249.1	3.1	-0.3	-1	-1.4
959.3	249.7	1.2	-0.6	-0.9	-2
958.6	256.2	4.5	-0.5	-0.9	-2.3
962.6	259.8	2.9	-0.3	-1.2	-1.6
960	254.5	0.6	0	-0.8	-0.9
959.1	249.7	-1.3	-0.2	-0.5	-0.9
962.8	252.8	5.1	-0.7	-0.3	-1.5
958.7	260	4.5	-0.6	-0.8	-1.5
964.2	257.5	1.7	-0.3	-0.7	-0.3
956.1	251.4	2	-0.8	-1.2	-0.1
962.6	251.8	-1.8	-0.3	0	-0.4
960.2	243.7	4.6	-0.6	-0.5	-1.3
958.3	250.3	8.3	-0.5	-1.2	-2.5
958	259.1	1.2	-0.4	-1	-1.7
960.3	253.6	3.4	-0.3	-1.2	-1.1
958.9	245.9	0.7	-0.6	-1	-1.7
960.3	250.9	5.9	-0.3	-0.9	-2.1
962.8	263.1	4.1	-0.6	-1.8	-1.8
957	268.7	-4.5	-0.3	-1.8	0.3
963	252.5	-3.7	0	-0.6	2.1
962.2	237.9	-1.3	-0.2	-0.2	0.8
961	239.1	-1.7	-0.8	0	-0.8
959.2	252.5	10.3	-1.2	0	-1.3
959.2	263	12.9	-0.9	-1.7	0
961.3	256.5	4.6	0	-2.5	1.9
961.6	246.9	2.8	0.1	-2.3	2.4
962.4	234.8	-0.9	-0.1	-2.5	1.2
965.2	236.5	-5.4	-0.4	-2	-0.6
965	238.7	-3	-0.7	-1.2	-1.7
963.8	243	-4.2	0	-0.7	-2.1
957	241	-0.1	0.1	-0.7	-1.9
965.2	247.5	-1.8	0.3	-0.1	-2.9
960.9	249.8	1.8	0.1	-0.4	-2.6
968	254.6	-0.9	0.7	-0.6	-1.4
956.4	245.1	-3.4	0.8	-0.6	-0.4
962.6	244.1	7.3	0.1	-1	-0.7
964.7	244.8	-3.7	0.1	-0.9	-1.3
958.7	245.1	-1.4	-0.3	-0.9	-1.3
964.9	252.5	-3.4	0	-0.6	-0.6
965.5	244.2	-4.1	0.3	0	0
962.7	237.9	0.9	-0.3	-0.5	-1
962	255.2	-0.2	-0.5	-0.6	-0.6
964.2	253.7	8.5	0.1	-1.1	1.5
962.2	242.7	-0.9	0.3	-2.1	1.7
962.5	230.9	-3.2	0.2	-1.9	1.7
962.8	229.4	-0.7	0	-1.6	0.1
963.9	238	-5	0	-1.7	-1
963.5	238.2	-6.1	0	-1.1	-0.3
964.2	235.1	-10.7	0.1	-0.2	-1.1
964.1	236	-1.4	0	0.2	-1.4
965.3	237.4	4	-0.1	-0.1	-1.7
962.1	235.7	-4.2	-0.2	-0.8	-1.8
964.8	231	-0.8	-0.6	-0.3	-2.4
960.2	239.1	3.4	-1.4	-1.2	-3.6
953.7	251.5	-2.6	-1.2	-1.2	-2.2
975.4	250.8	-0.9	0	-0.4	-0.4
956.5	234.2	-8.4	0.4	-0.9	-0.2
969.7	228.1	8.3	-0.1	-1.1	-0.5
955.4	220.3	5.8	-0.4	-2.2	-3.2
954.4	229.2	-4	-1	-3.1	-5
972.5	241.6	-7.2	-0.6	-1.6	-6
956.1	244.2	-8.7	-1.5	-1.5	-6.3
965.6	255.1	-4.5	-1.8	-1.3	-4.6
956.9	256.8	-2	-2.1	-1.8	-3.8
960.9	263.3	-9.3	-1.8	-2	-3.5
955.8	250.4	-5.2	-0.5	-0.3	0.1
971.4	227.9	-2.9	0	-0.3	-1
962.8	223.9	-8.6	-0.1	-0.4	-4.2
959.1	243.6	0.2	-0.3	-0.6	-5.4
964.8	269.2	-3.4	0	-1.2	-4.4
961.3	265.3	-10.9	0.8	-0.7	-0.6
960.9	243	-5.4	0.6	0	0.7
963.5	233.2	-3.2	0.3	-0.2	-0.8
962.8	234.7	-2.3	-0.4	-0.7	-3.1
958.8	236.9	0	-1	-1.3	-4.5
962	251.7	-9.1	-0.9	-1	-4.7
962.2	255.4	-4.8	-0.7	-0.4	-3.4
960.5	249.1	-1.8	-0.6	-0.7	-3.2
958.7	245.4	-4.2	-0.8	-1.1	-3.4
964.1	250.2	0.7	-1.4	-1.6	-4.3
958.8	254.3	-12.3	-1.3	-1.9	-3.9
957.3	257.6	-9.7	-1.4	-1.2	-2.9
961.5	253.9	-13.4	-1	0.4	-2.6
951.6	250.4	2.1	-1.6	-0.3	-3.1
964.9	263.3	-1.4	-0.8	-0.4	-2.5
954.8	258.9	-3.7	-0.2	-1.1	-1.2
958.9	254.3	0.8	-0.3	-1.2	-0.3
959.3	246.2	-2.5	-0.4	-1.1	-1
959.3	240.6	1.4	-1.3	-2.6	-2.4
963	252.9	-9.7	-1.6	-2.5	-3.4
960.8	268.6	-4.1	-1.4	-1.8	-2.3
961.3	262.4	1	-1.4	-2.6	-0.2
961.9	248.4	-10.9	-1.6	-2.7	0.4
960.2	241.8	-6.9	-2.6	-2.5	-0.4
963.2	233.8	4.7	-2.7	-2.2	-1.9
964.7	223.1	15.8	-3.9	-5.4	-4
962.2	226.5	3.6	-2.2	-7.2	-6.8
963.8	234.1	-37.3	-3.5	-7.2	-11.1
951.5	253.5	-32.5	-5.4	-2.3	-13.5
938.4	273.5	26.4	-12	-4.4	-15.6
952.6	316	18.6	-13.1	-11.5	-14.6
953.6	304.1	0.8	-9.6	-13	-5.7
958.2	268.3	-15.9	-3.6	-13.6	-2
965.3	262.8	-32.5	-1.4	-12.6	-2.1
963.3	258.6	-66.5	1.9	-8.8	-1.9
984.6	242	-58.7	10.4	3.1	2
987.7	161.9	-69	2.5	26	7
985.8	108.2	-31.7	-0.2	14.8	-14.9
998.6	186.6	-127.5	-33.6	27.1	-29.9
970.5	249.6	-38.9	-54.1	46.6	-28.6
998.9	294.7	167.7	-43.6	58.9	-16.9
973.2	287.2	362.9	-24.7	50.5	-11.1
976.4	285.2	356	-32.4	2.9	4.4
1005.9	207	149.7	1.1	-39.4	24.9
1019.7	106.6	-48.2	20.4	-35.3	27.9
943.3	167.7	-175	32.6	15.3	16.4
1104.3	146.7	-36.6	-50.5	65.6	-3.9
1065	20.3	-112.4	-21	89.1	-5.2
1093	146.9	40.7	-22.1	165.4	-22.1
1048.3	178.4	305.1	-0.9	205.1	-58.3
836.6	314.5	605.2	49	176.2	-86.3
990.4	496.9	747	75.5	97	-76.2
1088	566.8	746.4	106.2	19.1	-37.4
908.6	622.5	807	105.4	-51.7	11.9
952.3	545.1	671.2	72.8	-117.7	43.3
1014.2	376.2	455.6	51	-162.8	62.6
1104.1	387.8	166.5	74.4	-163.2	69.6
1144.2	383.5	28.9	67.9	-132.3	68.7
1066.8	401.7	-31.8	9.2	-77.6	69.3
1033.3	322.2	270.1	-28.8	-52.3	62
996	230.2	443.6	-39.7	-102.5	40.8
1015.2	185.6	177.8	-5.9	-142.4	6.5
948.3	251.5	69	-21.8	-132	-20.9
860.3	374.3	-4.2	-42.2	-131.9	-9.9
749.7	311.2	-184.2	7.8	-126.9	20.8
729.7	268.5	-288.5	-28.4	-106.3	33.8
697.5	239.2	-304	-36.3	-94.3	27.1
670.5	234.9	-282.3	-41.6	-85.1	24
641.4	211.7	-335.5	-52.3	-90.3	37.8
623.2	142.8	-424.8	-66.6	-86.2	52.3
618.4	157.4	-387.8	-59.3	-83.1	36.8
608.1	173.4	-411.3	-47.2	-85.2	11.2
572.9	83.3	-447.1	-54.5	-83.8	-4.8
730.4	256.1	-412.8	-53.6	-90.4	-6.9
738	135.4	-387	-65.2	-87.6	-1.1
764	265.9	-400.3	-71.6	-75	-4.7
791	330.6	-429.9	-74.6	-72.2	3
766.4	379	-471.4	-62.9	-86.1	13.6
793.2	194.7	-531.4	-97.9	-14.2	9
740.8	433.8	-552.7	-117.5	23	9
789.4	421.2	-499.1	-90.2	-55.4	1.5
787.1	391.7	-574.9	-84.3	-38.9	4.9
714.7	370.8	-605.8	-66.6	-16.6	3.1
815.6	476.4	-472.6	-47.9	-24.3	-9.7
778	583.7	-550	-39.3	-26.3	-10.3
682.9	572.6	-645.5	-22.9	-27.7	-6.9
713.3	552.4	-633.5	-12.6	-7.9	-1
748.2	489.9	-545	-31.7	16.5	19
806.3	423.7	-412.5	-49.7	25.8	36
821.2	364.3	-380.8	-52.3	5.1	34.6
828.9	387.5	-410.4	-43.4	-9.6	32.1
791.8	359.4	-459.2	-26.7	-14.7	28.8
801.1	376.2	-482.1	-7	-14.1	16.9
797.4	402.4	-507.4	13.5	-17	1.2
821.7	397.4	-489	16.1	-15.7	-7.8
803.1	377.5	-488.7	6.8	-13.1	-5.4
773.9	337	-472	-4.3	-9.2	0.3
743.8	312.1	-491.4	-22.7	2.2	4
755.8	317.6	-492.6	-24.1	-3.1	2.7
762.4	298	-469.7	-19.7	-1.6	-0.4
807.3	332.1	-436.7	-16.9	0.8	-1.2
857.4	388.3	-430.7	-9.4	-7.4	2.5
881.2	367.5	-416.2	-1.8	-12.1	10.8
869.5	357.2	-448.2	-5.3	-8	20.9
832.3	322.5	-469.1	-1.7	-14.7	25.1
805.6	312.5	-470.2	4.8	-14.2	21.8
810.3	296.8	-443.6	4.7	-11.3	16.4
823.9	303.5	-439.2	-4.9	-12.3	11.6
805.4	307.4	-492.6	-15.5	-17.7	9.2
790.7	346.4	-522.5	-15.8	-11.1	7.6
790	361	-502.9	-16	-4.6	6.8
780.7	340.8	-489.7	-10.6	-13.9	5.5
779.7	333.7	-492.9	-7.6	-16.7	4.6
773.4	332.1	-525	-6.2	-11.2	3.9
777.7	330.3	-514.1	-8.2	-5.1	5.3
779.4	334.1	-513.1	-11.3	-2.3	7.1
777	328	-504.2	-11.2	0	9.3
765.7	300.2	-498.2	-10.7	-0.9	8
774.7	298.4	-487.1	-8.7	-5.5	3.2
800.2	319.5	-484.9	-6.9	-6.6	0
802	345.8	-507.3	-2.1	-7.1	2
810.7	338	-504.5	0.5	-3.2	6.4
806.8	332.8	-512.6	0.9	1.2	10.5
809	307.6	-485.1	2.2	-1.1	12.4
805.7	296.2	-487.1	3.6	-6.6	11.2
799.1	290.2	-500.6	5.9	-8.6	11.1
796.8	289.3	-510.1	8.8	-5.1	12
800.7	281.2	-502.3	10.3	-5.4	12.7
785	257.9	-501.2	10.3	-2.8	14.6
797.4	261.8	-505.4	5.6	-2	15.2
829.3	293.9	-500.6	5.5	-8.6	13.8
827	283.9	-510.8	8.3	-13.4	11.2
804.1	241.8	-528.5	6.8	-5.1	10
807.9	249.7	-531.6	2.7	8.9	7.8
805.7	246.5	-519.8	2.8	8.2	5.9
832	248.5	-491.9	6.7	0.6	2
841.7	275.2	-511.3	10.5	-1.2	5.8
828.1	247.4	-513.4	12.9	0.3	10.6
822.7	219.3	-500.9	14.8	3.3	10.9
825.1	219.8	-500.7	13.1	0.9	10
818.7	204.7	-511.2	11.7	-1.4	10.1
818.2	182.9	-496.7	11.6	0.3	8
834.7	206.2	-490.2	10.8	1.2	6.1
841.6	198.8	-492.1	11.2	-3	8.5
810.3	159.9	-513.1	10.1	-1	9.6
808.5	152	-505.2	7.6	2.9	7
807.3	155.6	-512.2	7.7	-0.2	4.7
809	139.4	-503.9	7.9	1.7	1.7
804	119.5	-500.1	4.7	2.2	-0.5
816.2	140.2	-499.5	2.2	-0.8	-4.6
826.9	158.3	-500.9	1.8	-0.7	-6.4
836.3	173.4	-500.3	2.6	-2.3	-6.1
834.5	171.6	-500.7	3.9	-3.5	-4.9
844.3	182.7	-494.5	1.4	-0.9	-4.5
835.5	183.4	-506.7	-2	-2.2	-3
830.6	178.7	-504.7	-3.8	-1	-4.4
835.5	201.1	-519.4	-2.5	-5.2	-4.9
844.2	207.2	-510.9	1.5	-8.1	-4.4
836.9	187.8	-514.2	0.6	-7.2	-3.1
826.5	186.8	-530.8	-1.9	-7.6	-3.8
838.5	207.6	-520	-2.3	-6.9	-5.8
845.5	224.8	-522.2	1.4	-11.6	-5.4
829.2	209.8	-534.3	6.2	-15.2	-4.2
812.2	189	-537.2	8.4	-12.1	-3.5
820.9	190.1	-521.9	4.5	-8.7	-3
820.5	206.4	-540.5	5.2	-11.2	-2.7
812.2	206.1	-557.8	7.8	-13.9	-2.5
771.1	207	-598.5	10.6	-17.8	-1.3
758.5	214.1	-630	22.9	-25.8	-7
760.8	252.6	-659.1	39.4	-27.6	-14.7
776	248.7	-624.5	41.8	-12.8	-11.1
765.3	166.2	-591.3	9.4	57.5	1.3
776.7	191.7	-557	16.2	7.7	1.7
730.4	210.6	-654.7	34.8	-14.5	-17.4
757.2	298.8	-699.3	59.4	-20.1	-34.8
791.8	278.8	-647.4	67.4	-14.4	-33.6
781.2	212.7	-627.8	68.4	-3	-32.5
802.6	175.7	-579.4	64.9	6.3	-42
817.5	146.2	-537.1	55	2	-43.8
833.9	108.7	-507.3	50.4	-12	-35.2
834.2	65.3	-495.7	49.9	-18	-40
816.2	56.5	-490.2	43.4	-18.4	-36.9
823.4	49.5	-486	31.8	-18.1	-27.6
790.2	36.1	-508.3	26.3	-21.2	-27
741.4	62.7	-555.7	29.6	-30.8	-27.6
696.6	109	-644.2	45.9	-56.2	-30.4
629.6	167.8	-750.8	73.7	-77.5	-29.6
631.8	250.6	-866.8	92	-34	-43
567.2	233.7	-925.9	92.7	-18.5	-22.9
533.6	213	-972.4	97	-5.4	-22.7
554	234.8	-960.8	84.6	34.4	-26
548.3	236.9	-937.8	76	48.7	-12.4
530.6	181.1	-904	74.3	55.8	-9.7
524.6	127.6	-850.9	81	58.8	-11.8
536.9	73.7	-796.9	91.2	54.9	-19.5
534.4	33.4	-762.9	104.3	45.4	-34.5
510	12.3	-783.8	116.9	35.7	-48.9
496.7	21.2	-799	120.9	40.1	-57
525.7	41.2	-742.1	100.6	69.6	-51
573.4	22.9	-646.3	73.3	91.2	-37.3
658.2	8.3	-533	64.2	93	-37.4
743	1	-460	65.6	86.8	-45.8
782.2	-12.5	-403	60.3	86.8	-37.8
780.8	-7.8	-367.7	59.1	77.5	-32.2
832.7	-27.4	-285.5	67.5	55.9	-46.8
887.9	-22.3	-287.7	66.9	44.3	-58.5
913.2	16.4	-327.1	36.2	56.8	-54.4
963.3	62.3	-277.2	17.1	67.1	-50.3
980.9	128.2	-266.1	30.9	54.6	-50.6
966.1	126.3	-303.3	33.7	46.6	-48.8
967	61.6	-322.5	12.1	62.5	-32.4
948.9	-16.8	-285.1	-7.6	82.2	-21
1024.2	83.1	-96.1	-11.9	78.1	-32.2
1003.4	131.8	-68.8	-8.7	54.8	-35.1
914.6	116.9	-151.8	-2.2	39.9	-29.4
871.8	62.7	-210.2	-18.9	46.3	-16.5
857.7	-5.3	-171	-13	51	-18.4
835.2	-30	-140.5	-1	47.7	-35
843.8	37.7	-109.7	18	39.3	-48.9
836.6	134.3	-154.5	21.9	50.7	-48.9
928.9	240.1	16.1	24.2	58.3	-47.4
855.5	155.1	-8.5	20.8	51.5	-53.5
898.9	216.9	-26.9	9.4	55.6	-62.1
982	467.5	139.1	-42.7	53.9	-44.5
1099.1	370.8	99.6	-18.9	58.5	-10.8
1123.7	322	154.6	-40	71.1	4.5
1095	286.4	154.6	-40.4	76.5	7.7
1044.6	329.2	209.9	-27.2	73.2	18.8
1098.5	292.8	125.2	-11.7	59.7	28.1
1067.9	218.8	164.1	-6.9	56.4	25.3
1065.7	95.9	288.5	-17	46	6.2
964.1	91.6	369.5	-35.9	27.2	-5.3
940.5	161.7	354.7	-53.6	4.9	-8
1033.2	123.1	250.7	-52.1	-15	-15.4
994.2	51.7	198.9	-67	-19.8	-40.4
887.9	99.2	196.4	-90.8	-10.1	-61.5
885.6	174.8	60.9	-109.2	7.2	-64.8
1609.7	324.2	-98.5	-110.2	42.1	-59
1675.1	709.9	457.7	-116.1	99.4	-4.5
729.1	322.8	739	-178.8	17.4	49.6
892.9	185.4	205.9	-126.6	-63.6	52.3
1000.8	138.7	65.1	-95.6	-58.4	41
969.3	48.8	-38.8	-74.5	-33.2	16.1
994.2	14	38	-64.1	1.8	0
984.1	16.2	159.9	-72.9	10	-13.5
966.5	39.9	228.1	-74	0.9	-31.2
961.5	95.7	255.9	-74.8	-13.4	-42.5
958	138.5	328.1	-80	-31.1	-53.9
949.7	210	288.9	-79.7	-56.9	-53.9
955.9	251	140.6	-83.3	-60.1	-46.5
965.4	309.5	103.7	-88.7	-40.7	-38.4
947.1	315.4	128	-89.2	-26	-17.5
954.2	176.6	128.6	-101.3	-12.4	-4.4
956.1	162.2	54.8	-106.9	-9.8	-5.6
966.9	147.2	-8.5	-92.1	2.1	-11.2
976.3	161	28	-56.3	12.9	-20.7
971.8	187.9	112.5	-38	18.9	-31.3
951.4	244.8	138.9	-31.4	17	-36.9
950.9	319.5	176	-19	13.9	-32.3
942.9	338.1	180.4	-8.6	12	-17.6
943.7	288.6	189.2	1.8	11.9	-8.4
948.4	252.9	196.1	6.8	10.4	-5.1
949.9	212.7	184.9	9.7	10	-6.2
948.2	186.8	171.7	13.8	12.7	-11.3
942.2	186.1	178.3	15.7	17.5	-21.1
942.1	192.3	182.1	17.5	23.1	-33.3
941.5	203	202.3	14.7	27.7	-43.4
892.9	254.2	206.9	11.9	28.2	-48.9
911.9	321.6	255.9	8.1	27.4	-53.2
900.5	343.6	251.7	8.2	23.9	-51.6
922.1	351.5	249.5	8.8	21.3	-48
899.2	377.6	252.4	4	20	-46.4
881.2	410.1	260.1	0.2	15.9	-39.6
855.4	400.6	275.6	-2.7	14.2	-34.1
939.2	335.6	242	-9.5	13.2	-27.8
933.8	418.4	297.3	-3.6	12.3	-29.2
863.2	555.2	299.1	-7.2	-1.4	1.6
895.2	466.7	300.4	-3.1	1.3	30.5
770	478.6	323.9	-37.3	-6.7	62.2
871.5	390.1	327.3	-39.9	-9.7	76.5
888.7	313.5	290.2	-25.5	-24.7	79.1
899.6	286	245.7	-19.5	-23.7	76.4
925.7	278.5	259.7	-17	-21.2	84.9
899.6	236.3	272	-6.8	-23.8	99.8
938.3	195.1	243.8	12.6	-23.5	109.3
924.1	138.4	241	14.2	-26.4	106.7
945.1	75.4	200.6	11.6	-18.8	104
961.3	57.7	192.1	12.6	-6.8	87.7
967.2	25.2	227.9	5.7	-17.5	61
984.3	13.7	224.3	3.7	-22	40.3
967.6	-1.7	176.7	-1	-17.6	27.4
1001.3	-14.8	181.1	-2.2	-13	4.8
983.2	33	219.2	-0.8	-19.2	-10.8
979.1	28.1	171.2	-1.6	-16.9	-19.1
967.8	41.9	141.2	5.3	-14.6	-16
981.5	36.4	78.6	2.7	5	-10.6
950	0.7	128.9	-6.4	21.5	-3.4
949.9	-36.4	162.9	-4.1	23	3.2
898.5	-79.9	179.4	5.7	23.2	-7.8
956	-39.7	167.6	-2.8	32.2	-15.9
954.7	-52.8	174.6	2.1	34.3	-31.9
979.8	-20.5	248.6	-1.2	37.8	-46.9
952.3	33.5	301.7	-4.3	29.4	-51.4
961.6	108.2	315.7	-5.5	24.2	-52
953.9	173.5	317.8	-7.1	17.3	-47.8
946.5	220	306.3	-3	12.5	-36.4
941	233	306.2	-0.6	9	-21.5
938.4	214.7	319.7	1.2	4.7	-8.2
937.1	201.2	319.8	1.5	1.1	-3.6
939.9	142	302.2	3.3	-3.2	-1
948.4	133.3	290.1	1.2	-5.9	-0.8
944.9	134.7	268.9	1.4	-5.9	-2.9
947.6	131.5	260.6	1.2	-3.2	-2.5
946.4	137.8	270.7	1.1	-2.4	-2.2
947.1	140.1	269.2	1.6	-2.5	-2.6
950.4	159	264.7	4.6	-1.6	-1.9
946	142.3	267.4	2.4	-1.2	-1
950.6	146.1	268.6	7.2	-1.5	-1.5
938.7	163.2	274.4	7.3	-1.6	-0.1
944.9	181.3	277.2	11.3	-1.9	4.1
956.9	159.7	286.1	9.2	-3.2	8.3
948.2	154	280.2	11.2	-7.4	10.7
959.9	147	238.1	15.6	-9.1	11.9
949.8	133.3	171.5	25.2	-6.1	14.2
976.4	102.2	203	44.1	0	11
983.3	111.2	287.7	60.9	-8.3	6.2
962.6	144.6	234.3	66.4	-29.4	7.8
919.3	155.1	118.4	77.2	-27.7	19.1
944.3	114.5	122	73.1	-2.5	24.6
960	113.7	200	67.7	13.8	18.9
935.3	74.7	280.5	68.4	17	17.1
953.7	117.6	354.9	26.3	10.7	-13.8
964.4	137.2	228.7	18.9	6.7	-20.9
963	145.1	282.5	7.5	16.4	-14.9
945.8	162.5	326.6	-7.9	3.8	-10.1
950.3	183.8	239.1	-15.6	0	-3.9
954.7	212.2	232.4	-30.3	8.5	6.7
943.4	223.5	264.7	-27.7	13	19.3
948.6	198.2	270.7	-35.9	16.7	34.1
943.3	113.8	291.5	-44.6	19.5	38.9
947.1	34.5	314.9	-44.7	10.8	28.3
951.9	0.2	301.8	-35.9	-0.8	14.3
951	-11.7	277.9	-35.1	-5.1	2
947.2	17.7	240.6	-27.2	-6	-8.2
957.1	38.8	235.5	-22.5	-2.1	-13.8
954.1	68.4	247.9	-17.4	0.3	-17.5
954.7	95	250.6	-11.3	0.6	-16.4
954.7	110.9	240.1	-4.9	2.5	-12.9
954.4	110.7	245.2	-2.2	4.3	-11
953.1	115.8	269.5	1.4	5.7	-6.6
953.2	105.7	299.9	1.6	4	-2.9
947.7	89.4	281.3	0.3	0.2	-1.9
952.2	83	261.9	0.6	2	-2.3
955.5	69.7	288.2	0.1	3.7	-3
952.6	78.7	273.9	2.1	3.4	-6.2
948.4	76.5	275	2.5	4.7	-7.9
946.5	83.2	304.3	1.9	4.5	-9.9
945.4	94.8	290.7	-0.1	1.8	-10.9
948.7	117.4	277.4	0.6	2.6	-10.5
945	122.4	284.9	1.6	3.6	-7.5
946.1	120.6	295	1.2	3.1	-5.2
944.9	120.4	298.4	0.1	0.8	-3.3
946.5	112.6	291.3	0.7	0.6	-1.5
942.9	98.6	294.9	0.2	0.1	-1.9
946.7	106.3	299.9	-0.8	0	-2.3
944.9	105.4	289.5	-1	-1.8	-3.5
946.2	107.2	279.5	-0.4	-0.2	-3.9
943.8	108.3	293	-0.8	0	-3.8
943.4	111.5	287.3	-0.1	-0.5	-4.6
943.8	107.4	288	-0.1	0.5	-4.6
946.4	105.9	291.3	0	0.8	-5.3
942.9	106	288.3	0.7	0.6	-6.1
944.4	122.6	303.4	-1.6	0.2	-6.8
942.2	143.1	290.2	-0.5	-1.3	-4.2
943.8	129.1	287.1	0	-0.1	-0.8
942.9	107.1	297.7	-1.2	-0.3	-1.2
943.4	114.6	285.7	-0.4	-0.6	-1.9
942.9	117	290.8	-0.1	0.3	-1.6
944.8	113.7	296	0.3	0	-1.7
943.3	115.6	301.1	-1	-1	-1.9
941.7	121.8	288	-0.2	-1.3	-1.7
943.9	114.9	291.8	-0.3	-0.4	-1.8
942.3	114.3	297.7	-0.9	-1.3	-1.9
941.7	120.6	288.5	-0.5	-1.3	-2
943.7	116	288.3	0	-0.5	-1.7
943.3	119	292.8	-0.4	-0.4	-1.6
941	115.2	293	-0.4	-0.4	-1.7
942	121.9	294.3	-1.1	-0.6	-1.8
943.2	121.7	292.4	-0.6	-0.7	-1.5
942.5	114.5	289.7	-0.4	-0.4	-1.6
941.2	112	292.1	0.1	-0.3	-1.9
941.7	117.7	295.1	0	-0.5	-2
942.7	123.1	292.1	0.1	-0.7	-2.1
942	114.3	291.2	-0.4	-0.8	-1.4
943.7	115.4	287.3	-0.2	-0.6	-1.7
940.5	115.4	296.6	-0.7	-0.2	-1.8
944	105.1	291.6	-0.2	-0.9	-2.7
942.7	117.7	293.7	-0.5	-1.2	-2.9
941.5	119.8	290.7	-0.4	-1.1	-2.4
943.3	120.3	288.6	-0.1	-0.7	-2.2
942.6	117.4	292.9	-0.5	-0.7	-2.1
943.3	122.5	288.4	-0.5	-0.9	-2.3
943.4	117.9	289.3	0	0	-1.6
942.3	116.2	301.8	0	-0.3	-1.6
941.7	118.1	292.9	-0.5	-1.4	-1.9
942.8	115.2	289.5	-0.4	-0.6	-2.2
942.5	114.8	294	-0.5	-0.9	-3
942.6	120.2	286.7	-0.2	-0.8	-2.7
941.8	125.7	290.1	0	-0.1	-2.6
943.2	126.5	296.7	-0.4	-0.1	-1.6
942	114.1	291.2	-0.2	-0.7	-1.6
943.3	115.6	294.1	-0.2	0	-1.8
940.1	120.9	295.2	-0.1	-0.9	-1.9
941	118.4	293.3	-0.3	-0.8	-3.1
941.2	123.7	293.2	-0.4	-0.5	-1.6
942.6	121.9	292.1	-0.4	-0.6	-1.6
941.6	119.2	292.7	-0.3	-0.4	-1.9
943.2	120.4	295.6	-0.6	-0.7	-2
943.9	122	288	-0.3	-0.8	-2.1
940.7	119.2	294.4	-0.4	-0.5	-1.9
941	120.1	292.4	-0.3	-0.9	-2.4
942.3	123	293	-0.4	-0.6	-2.3
942	124.1	292.9	-0.4	-0.8	-2
942.9	122.3	292.6	-0.3	-0.6	-1.7
942.2	122.9	292.6	-0.4	-0.8	-1.7
942.2	120.4	292.8	-0.5	-0.9	-1.5
943.7	122.4	289.3	-0.4	-0.7	-1.8
943.1	120.6	290.2	-0.1	-0.5	-2
942.5	121.3	292.6	0	-0.4	-1.7
942.6	122.1	291	-0.1	-0.3	-1.7
942.9	122.4	293.4	-0.1	-0.2	-1.6
940.4	120.4	294.4	-0.2	-0.6	-1.8
941.7	119.1	293.2	-0.4	-0.7	-2.2
942.8	120.9	296.3	-0.2	-0.9	-1.6
941.8	122.8	292.2	-0.8	-1.3	-1.8
943.8	121.3	285.6	-0.2	-0.4	-1.8
942.1	123.2	296.8	-0.4	-0.2	-1.7
941.8	123	295.7	-0.5	-1.2	-1.8
942.3	120.1	289.9	0	-0.8	-1.8
941.8	119.9	292.4	-0.1	-0.7	-1.8
940.5	118.7	294.6	-0.8	-0.9	-2.9
941.6	129.8	286.4	-0.3	-0.9	-2
942.6	122.9	291.6	-0.3	-0.3	-1.4
941.1	118	296.6	-0.5	-0.7	-1.7
942.8	123.5	293	-0.5	-1	-1.9
942	122.5	292.4	-0.2	-0.7	-1.5
942.3	119.6	295.5	-0.4	-0.9	-1.7
942.2	123.4	291	-0.6	-1.1	-1.8
941.2	124.8	290.1	-0.4	-0.8	-1.6
941.8	121.2	291.3	-0.5	-0.7	-1.6
942.3	122.5	287.3	-0.3	-0.7	-1.6
941.6	121.9	293.8	-0.2	-0.3	-1.6
939.8	123.1	297.2	-0.4	-1	-2
942.2	122.6	293.3	-0.6	-1.4	-1.4
941.2	120.2	288.4	-0.5	-1.4	-1.8
942.5	118.8	288.8	-0.3	-0.9	-1.9
942.8	122.9	291.3	-0.1	-0.6	-2.1
943.9	119	290.2	-0.3	-0.6	-2
944.9	123.1	290	-0.4	-0.7	-2.8
942.7	128.6	292.8	-0.5	-0.6	-2.2
942.6	130.1	293.8	-0.4	-1.4	-1.4
942.2	119.9	287.1	-0.5	-1.1	-1.6
942.3	119.3	290.6	-0.2	-0.5	-1.8
941.5	125.2	292.3	-0.3	-0.8	-1.9
942.7	124	290.6	-0.4	-0.9	-1.6
942.6	122.6	290.7	-0.4	-0.9	-1.6
942.3	123.2	288.4	-0.1	-0.6	-1.6
943.4	124.6	293.2	-0.2	-0.6	-1.6
941.6	122.9	292.1	-0.3	-0.9	-1.6
942.3	124.8	289.6	-0.4	-0.7	-1.6
942.6	121.7	291.7	-0.4	-0.5	-1.6
943.3	119.7	289.7	-0.3	-0.7	-1.7
942.7	121.5	294.3	-0.5	-0.7	-1.7
940.7	125.9	292.4	-0.2	-1.2	-1.8
943.7	122.9	291	-0.7	-1.2	-1.8
942.9	120.6	286.3	-0.3	-1.2	-1.8
942.8	123.2	287.3	-0.4	-0.6	-1.8
943.8	130.6	290.2	-0.3	-0.4	-1.6
942.6	122.8	293.3	-0.4	-0.7	-1.5
943.1	116.8	289.5	0	-0.7	-1.7
943.1	122.9	290.5	-0.2	-0.5	-2.1
943.2	129	294.4	-0.5	-0.9	-1.6
943.3	123.1	287.9	-0.3	-1.1	-1.5
942.7	119.9	288.4	-0.5	-0.8	-1.4
943.4	122.4	288.8	-0.3	-0.5	-1.8
943.7	125.1	289.5	-0.4	-0.6	-1.7
942.8	120.8	290.8	-0.3	-0.6	-1.6
942.6	119.3	289.9	-0.2	-0.6	-1.5
945.9	121.7	291.1	0	-0.6	-2
942.7	128	292.4	-0.2	-1.3	-1.7
941.7	125.7	283.5	-0.4	-1.3	-1.5
948.9	117.5	282.7	-0.2	-0.1	-1.7
940.5	122.3	291.5	-0.4	-0.5	-1.7
944.2	128	293.4	-0.2	-0.4	-1.6
943.8	119.8	294.9	-0.4	-1	-1.6
944.4	124.6	287.7	-0.5	-1.2	-1.6
943.9	119.8	285.2	-0.1	-0.6	-1.8
942.7	124.8	288.6	-0.1	-0.5	-1.6
943.2	126.4	287.4	-0.2	-0.5	-1.6
942.7	123.2	289.1	0	-0.2	-1.6
944.3	118.6	291.6	-0.3	-0.4	-1.6
942.3	121.2	289.5	-0.1	-0.6	-1.7
940.5	126.3	293.5	-0.4	-1	-1.7
942.9	124.2	287.9	-0.3	-0.8	-1.6
942.2	118.8	287.3	-0.1	-0.5	-1.7
944.2	120.9	291.5	-0.3	-0.5	-1.9
941.8	125.2	290.4	-0.1	-0.7	-1.7
941.6	125.7	290	-0.3	-0.7	-1.8
943.6	123.1	289	-0.2	-0.6	-1.7
944.5	124.8	290.5	-0.5	-0.7	-1.6
941	121.9	288.2	-0.3	-0.9	-1.5
943.6	122.9	288.5	-0.2	-0.3	-1.8
941.7	123.5	292.8	-0.3	-0.4	-1.8
942.7	125.8	292.8	-0.6	-0.8	-1.5
942	121.8	288.9	-0.3	-0.9	-1.4
942.8	119.8	292.7	-0.5	-0.8	-1.8
941	123.4	290.7	-0.4	-1.2	-1.8
943.9	125.3	286.2	-0.3	-0.9	-1.7
945.5	121.7	286.1	-0.4	-0.5	-1.6
943.4	123.1	287.8	-0.4	-0.5	-1.7
941.7	129.3	292.7	-0.4	-0.6	-1.9
942.6	119	289.9	-0.3	-1.1	-1.2
942.2	118.2	287.4	-0.3	-0.8	-1.8
943.2	126.8	289.1	-0.3	-0.8	-1.8
942.3	129.1	286.4	-0.4	-0.9	-1.7
942.6	120.8	288.9	-0.4	-0.5	-1.4
944.3	117.3	289.7	-0.1	-0.4	-1.7
942.2	123.7	293.7	-0.4	-0.7	-1.7
944	127	290.1	-0.3	-1	-1.8
941.7	118.4	288.9	-0.4	-0.9	-1.8
943.7	121.7	289.7	-0.3	-0.9	-1.7
942.6	123.9	287.4	-0.3	-0.9	-1.7
943.2	127	285.6	-0.4	-0.7	-1.7
944.7	124.2	285.8	-0.4	-0.3	-1.5
943.4	120.7	286.3	-0.2	-0.2	-1.5
942	120.9	293.3	-0.2	-0.3	-1.7
943.2	124	291.8	-0.2	-0.5	-1.8
942.7	124.1	288.9	-0.4	-0.9	-1.8
944.5	124.1	286	-0.1	-0.6	-1.7
942.2	120.9	291.9	-0.5	-0.7	-1.6
942.5	125.4	286.7	-0.4	-0.9	-1.7
945.1	125.7	288.6	-0.5	-0.4	-1.4
942.3	123.2	289.4	-0.3	-0.7	-1.6
943.6	120.6	288.8	-0.4	-0.6	-1.6
943.2	122.5	291.8	-0.3	-0.7	-1.7
942.9	124.1	288.3	-0.2	-0.9	-1.6
943.9	122	287.4	-0.3	-0.8	-1.8
942.2	124.8	288.4	-0.2	-0.5	-1.9
942.5	121	291.5	-0.3	-0.6	-1.6
943.1	124.1	287.4	-0.2	-0.7	-1.7
943.4	123.1	288.2	-0.3	-0.5	-1.8
944.2	126.8	290.1	-0.3	-0.7	-1.6
942.8	121.3	286	-0.2	-0.7	-1.6
944.3	117.6	291.1	-0.4	-0.4	-1.8
939.5	125.7	291.2	-0.4	-1	-1.9
943.6	126.3	286.6	-0.2	-0.6	-1.8
941.4	120.1	290.2	-0.2	-0.6	-1.7
942.3	119.7	288.8	-0.2	-0.3	-1.8
942.8	124	292.9	-0.2	-0.7	-1.8
943.9	130.8	285	-0.2	-0.6	-1.8
944.3	118	287.8	-0.1	-0.4	-1.7
943.7	124.3	287.7	-0.2	-0.4	-1.7
943.4	122.3	290.6	-0.1	-0.3	-1.4
940.5	117.9	292.7	-0.1	-0.6	-1.7
942.6	126.4	290.8	-0.1	-0.6	-2.2
946.7	120.1	290.1	-0.4	-0.8	-2
947.3	121.5	280.7	-0.3	-0.6	-2.3
942.1	120.4	288.5	-0.1	0	-3.1
943.1	130.7	287.5	0	-0.3	-2.2
941.4	128.2	290.7	-0.4	-0.2	-2.1
944.7	125.1	292.9	-0.2	-0.4	-1.5
942.1	121.3	291.8	-0.3	-0.7	-1.7
942.2	124.7	291.6	-0.3	-0.9	-1.8
942.1	128.1	290.4	-0.1	-1	-1.9
944.4	120.7	287.5	-0.2	-0.7	-1.7
943.9	125.7	283.9	-0.2	-0.3	-1.9
939.8	124.2	290.8	-0.4	0	-2.9
941.2	127.4	293.5	-0.2	-0.1	-2.3
941.2	128.1	293.9	-0.3	-0.4	-2
940.3	125.1	294.1	-0.2	-0.9	-1.5
942.9	126.3	288.9	-0.3	-0.8	-1.9
941.6	126.5	288.4	-0.3	-0.5	-1.6
942.8	129.5	290	-0.5	-0.5	-1.6
939.6	124.3	285.5	-0.2	-0.4	-1.3
945.8	120.7	292.7	-0.2	0	-1.7
940.9	124.5	291.7	0	-0.7	-1.9
940.9	129.6	293.2	-0.4	-0.5	-1.5
942	124.5	293.8	-0.4	-0.7	-1.8
943.2	126.2	288.2	-0.3	-1	-1.5
941.4	119.5	288.4	0	-0.4	-1.7
941	125.1	293	-0.2	-0.4	-1.9
941.2	114.9	292.4	-0.2	-0.8	-2.8
939.6	127.8	287.1	-0.1	-0.7	-2.3
941.5	128.9	292.8	-0.2	-0.3	-1.4
944.4	123.9	288.6	-0.1	-0.6	-1.6
942	125.7	287.7	-0.1	-0.4	-1.8
942.9	129.1	293.7	-0.1	-0.4	-1.9
944.4	124	287.3	-0.1	-0.5	-1.6
941.8	124.5	292.1	-0.4	-0.2	-1.6
941.7	126.7	294.3	-0.2	-0.7	-1.7
943.6	123.6	287.5	-0.3	-0.6	-2.1
944.5	127.3	288.9	-0.1	-0.3	-1.6
942.6	125.9	291.3	-0.1	-0.7	-1.8
943.9	124.6	286.7	0	-0.2	-2
943.7	127	292.1	-0.5	0	-3
940.3	135.6	296.9	-0.6	-0.7	-2.5
941.1	130.7	292.6	-0.3	-1.1	-1.4
943.4	122.5	287.3	-0.3	-0.8	-1.6
940.6	128	289.7	-0.4	-0.6	-1.9
941.1	132.4	291.3	-0.4	-0.5	-1.5
943.2	126.8	292.2	-0.4	-0.7	-1.3
940.5	121.7	293.5	-0.4	-0.9	-1.6
941.6	126.9	293.8	-0.2	-0.8	-1.8
941.7	129.2	293.2	-0.5	-1	-1.8
941.4	131.5	288.4	-0.4	-1.2	-1.6
944.7	123.1	285.5	-0.2	-0.8	-1.8
938.5	125.8	294.6	-0.6	-1	-1.5
946.8	128.1	283.6	0	-0.9	-2
935.7	129.7	288.5	-0.7	-0.6	-1.5
948.6	123.1	290.2	0	0	-2
936.1	125.4	294.3	-0.3	-1	-1.8
942.1	125.9	295.2	-0.6	-0.9	-2.2
947	129.8	285.7	-0.5	-1.2	-3.3
944.3	136.5	285	-0.5	-0.6	-2.2
941.2	130.6	290.8	-0.3	-0.9	-1.4
941.2	126	287.9	-0.3	-0.6	-1.7
939.4	130	289.4	-0.4	-0.7	-1.9
942.1	129.1	294.3	-0.3	-0.5	-1.5
942.3	127	290.8	-0.5	-1.1	-1.5
941.4	126.2	288.9	-0.3	-1	-1.7
940.6	127.9	292.1	-0.1	-0.8	-1.9
944	133.3	289.6	-0.3	-0.9	-1.8
940.3	128.7	288.2	-0.5	-1	-1.6
942.8	126.2	288.5	-0.4	-0.9	-1.7
942.2	126.9	288.4	-0.1	-0.6	-1.7
941.6	131.8	289.9	-0.3	-0.8	-1.7
943.6	130.2	287.9	-0.2	-0.8	-1.7
942.3	128.1	288.4	-0.6	-0.6	-1.8
941.2	126.4	287.8	-0.3	-0.6	-1.7
941.7	128.7	290.7	-0.4	-0.4	-1.9
940	124.5	290.2	-0.5	-0.8	-3.6
940.1	130.8	289.6	-0.5	-0.3	-3.2
941.1	137.9	293.8	-0.3	-0.6	-2.6
944.5	132.3	288.3	-0.3	-1	-1.6
941.2	126.4	285.4	-0.3	-0.7	-1.6
946.2	132.2	287.1	-0.3	-0.4	-1.9
943.2	130.9	288.8	-0.1	-0.6	-1.4
945.8	126.2	292.9	-0.3	-0.7	-1.3
938.7	129.3	294.4	-0.7	-1.4	-1.6
946.2	135	283.6	-0.3	-0.7	-2
939.9	128.4	290.2	-0.7	-1	-1.5
945.4	130.8	285.8	-0.2	-0.8	-1.8
941.2	127.3	286.9	0	-0.7	-1.6
943.3	133.1	291.8	-0.5	-0.6	-1.8
942.8	130.1	289.7	-0.1	-0.9	-1.4
941.4	124.1	289.5	-0.5	-0.7	-1.7
944.7	131.2	290.7	0	-0.8	-2
939.2	134.7	291.9	-0.6	-1	-1.8
942.8	128.7	288.6	-0.4	-0.9	-1.6
943.7	128.1	282.8	-0.1	-0.5	-1.6
941.7	132.3	287.7	-0.4	-0.1	-1.8
941.7	135.8	292.8	-0.2	-0.5	-1.5
941.8	125.6	289.1	-0.3	-0.7	-1.3
943.7	124.2	289.9	-0.4	-0.8	-1.8
942.1	131.8	288.2	-0.2	-1	-1.8
943.1	133.5	287.3	-0.4	-0.7	-1.7
943.2	131.7	287.3	-0.3	-0.6	-1.5
941.2	126.9	287.5	-0.3	-0.6	-1.6
944.9	129.3	289.1	-0.1	-0.2	-1.6
939.5	129.2	292.4	-0.2	-0.7	-1.7
942.1	133.6	288.8	-0.4	-0.9	-1.6
943.6	125.4	288	-0.3	-0.7	-1.5
941.1	129	288.8	-0.3	-0.8	-1.8
943.6	131.3	288.2	-0.2	-0.7	-1.7
941.5	129.3	288.8	-0.2	-0.8	-1.6
944.2	125.4	288.4	-0.3	-0.7	-2.1
941.7	130	287.2	-0.1	-0.7	-1.7
941.8	131.4	289.1	-0.5	-0.8	-1.8
941.8	132.8	286.7	-0.1	-0.7	-1.6
942.9	129.2	290	-0.4	-0.7	-1.6
942.8	128.9	288.8	-0.3	-0.9	-1.5
944.5	127.6	286.9	-0.3	-0.5	-1.8
941.1	119.5	287.1	-0.2	-0.7	-2.6
940.1	131.2	293	-0.2	-0.6	-2.3
943.6	132.8	290.2	0	-0.7	-1.8
941.2	130.6	289	-0.5	-1.1	-1.4
942.5	128	285	-0.1	-0.5	-1.9
943.3	134.8	289.5	-0.4	-0.6	-1.6
941.7	131.4	286.7	-0.4	-0.7	-1.5
942.3	126.2	292.2	-0.3	-0.7	-1.6
942.7	129	290.2	-0.3	-1.2	-2
942.8	128.9	286.2	-0.4	-1.1	-1.8
939.9	117.4	288.5	-0.5	-0.7	-3.1
938.8	133.3	291.7	-0.6	-1	-3.4
942.7	130.4	285.6	-0.5	-1.1	-3.3
941.2	128.4	285.7	-0.8	-0.7	-3.5
941.1	132.4	286	-0.3	-0.4	-3.3
942.8	136.8	287.1	-0.2	-0.1	-3.5
940.1	145.6	289.9	-0.1	-0.3	-2.6
940	134.3	289.5	-0.1	-0.7	-1.3
941.4	129.7	286.7	-0.2	-0.6	-1.7
943.4	136.2	284.1	0	-0.1	-2
941.7	138.1	285.5	0	0.2	-1.8
944.7	134.1	287.8	0	0.2	-1.8
941.8	125.1	292.1	0	0	-2.5
941.6	123.7	291	-0.4	-0.6	-4
939.8	124.1	288.5	-0.5	-0.7	-4.8
941.7	133.4	285.6	-0.5	-0.1	-6.1
941.2	141.7	287.3	-0.3	0.1	-5.9
941.1	146.9	288.2	-0.3	0.3	-5.2
938.8	153.8	293.9	-0.5	0	-3.5
939.3	154.2	292.6	-0.1	-0.5	-1.8
940.7	134.8	289.7	-0.3	-0.3	-1.3
940.7	133.6	289.9	-0.2	-0.4	-1.9
941.2	143.9	290.2	-0.2	-0.4	-1.9
937.9	140.8	291.6	-0.2	-0.7	-1.7
940.7	137.5	290.7	-0.1	-0.6	-2
939.4	139.5	288.9	-0.1	-0.6	-2
939.6	136.7	291.9	-0.3	-0.5	-2.6
938.5	140.8	287.9	-0.1	-0.4	-2.9
938.4	146.8	291.9	-0.3	-0.3	-2.6
940.3	146.1	291.2	-0.2	-0.4	-1.7
939.5	139.4	290.1	-0.3	-0.4	-1.7
940.5	143.1	291.1	-0.3	-0.5	-1.8
939.3	144.4	293.5	-0.4	-0.5	-1.8
941.7	141.6	289.1	-0.1	-0.5	-1.7
938.8	140.1	291.8	-0.3	-0.3	-1.8
939.6	142.2	293	-0.1	-0.6	-1.8
939.5	137.5	291.5	-0.4	-0.6	-2.9
939.6	147	284.7	-0.2	-0.5	-2.8
940.7	153	291.7	-0.4	0	-1.5
938.7	139.4	295.5	-0.5	-0.7	-1.2
938.5	138.3	292.3	-0.5	-1.1	-1.6
940.9	144.6	291.7	-0.5	-1	-1.8
939.3	141.7	293	-0.8	-1.2	-1.5
940.3	134.7	289.5	-0.9	-1.3	-2.2
941.7	137.3	291.3	-0.9	-0.9	-2.2
941.4	136.1	293	-0.6	-1.4	-3.4
941	140.6	283.4	-0.6	-1.3	-4.1
940.7	140.3	281.8	-0.5	-0.1	-4.6
934.9	135.9	305.1	-0.8	0.2	-5.4
940.3	129.6	290.6	-0.1	-0.8	-7.8
939.5	123.2	299	-0.6	-0.2	-10.3
939.5	132.4	303.7	0.5	-1.2	-14.5
933.3	145	296	1.8	-1.7	-15.9
938.1	171	286.9	3.9	-1.9	-15.1
942.9	170.5	265	3.4	-0.5	-12.7
941.2	171.1	253.5	3.4	0.8	-13
938.9	177.1	268	3.3	5.6	-13.6
930	207.1	325.8	3.5	5	-11
919.6	239.1	349.4	4.4	-1.8	-1.8
926.3	229.3	299.8	6.2	-5.2	5.2
933.7	167.9	274.7	9.3	0	11.4
934.3	67.3	287.8	5.2	4.3	1.3
928.9	44.1	310.1	-1.6	3.5	-16.7
933.3	60.9	293	-5.5	1.6	-37.6
924.8	138.5	297.9	-2.5	-1.4	-51
926.2	201	277.7	0.7	-1.7	-53.4
918	253.7	267.9	8.6	-3.2	-52.5
917.7	303.2	255.1	12.7	-0.1	-47.5
916.6	330.8	259.7	12.6	4.6	-37.7
908.2	345.8	264.4	11.6	8	-28.1
901.7	352	286	11.5	11.2	-19.5
899.1	354.3	303.3	10.1	10.4	-10.9
897.7	333.8	311.1	10	9.1	-4
898.6	314.4	313.5	10.1	7.2	-0.2
903.6	302.2	308.2	9.8	5.4	1.7
900.5	295.1	304.6	9.5	4.1	3.6
907.4	318.9	306.7	7.5	4.7	5.6
921.3	343.1	299.1	6.3	5.2	14.8
954.1	289.5	341.9	6.1	8.6	26.9
1161.8	166.8	399.6	-38.4	31.7	61.5
1334.7	48.3	662.3	-50.6	9.2	79.8
1335.4	31.1	826.9	-49.3	-54	70
1250.6	-7.4	532.8	-44.4	-98.3	25.9
1187.1	-20.9	362.6	-31.8	-95	-2.6
1231.3	-82.5	335.5	-30.1	-86	-16.1
1255.8	-110.2	370.1	-46.3	-84.4	-25.3
1242.3	-85.8	402	-68.9	-89.1	-30.1
1164.3	-74.4	460.6	-78.7	-102.5	-42.8
1060.3	-26.4	397.2	-74.7	-120.3	-69.6
986.3	83.4	291.6	-63	-129.3	-86.7
963.5	175.5	248.2	-66.5	-129.8	-82
925.9	183.4	208	-65	-127.5	-73.2
890.3	165.1	143.3	-56.5	-126.4	-82.8
819.5	232.6	64.8	-50.1	-127.5	-101.6
811	298.2	18	-45.8	-126.3	-105.6
800.4	418.5	-14	-54.7	-115.3	-95.1
778.6	441.5	1.4	-53.7	-112.3	-77
779.5	478.7	-25.2	-41.8	-113.4	-71.2
780.8	474.3	-26.2	-28.7	-108.4	-65.2
757.6	470.8	-49.5	-2.5	-113.6	-62.6
722.5	485.7	-108.5	-12.3	-116.6	-55.5
667.3	477.2	-170.7	-20.3	-115.1	-51.6
639	458.6	-240.1	-16.5	-109.5	-57.9
618.1	485.9	-218.3	-17.2	-98.6	-61.3
602.1	557.9	-207.5	-26.4	-103.1	-51.9
595.4	576	-250	-34.7	-103.2	-37.8
528.3	562.7	-300.9	-30.7	-100.3	-39.2
494	577.7	-368	-11.5	-97.6	-52.6
516.3	634.1	-382.5	-10.1	-88.3	-48.9
493.2	668.3	-344.7	-22.8	-85.6	-34.1
456.9	679.4	-388	-26.3	-90.3	-20.9
455.4	690.1	-438.5	-24	-86.8	-9.6
471.9	692.8	-421.6	-26.4	-76.9	2.3
477.5	651.1	-422.8	-29.6	-77.9	7.5
433.5	632.3	-436.4	-27.7	-81.8	2.6
394.5	640.6	-535.4	-16.9	-81.2	-13
359.6	682.8	-558.2	-7.9	-68.2	-22.3
360.9	710.5	-559.2	-4.4	-57.4	-18.7
371.2	710.6	-526.6	-8	-53.2	-12.4
361.5	764.4	-560.6	-10.4	-53.3	-6.3
362.3	782.1	-544.7	-10.2	-50.4	9.6
383.6	778	-551.1	-6.8	-47.9	19.5
404.6	759	-550.2	-2.1	-45.9	29.2
373.7	731.5	-543.4	-0.8	-47.8	38.6
342.6	732.9	-564.3	0	-46.8	38.2
288.9	781.1	-614.3	6.5	-40.1	27.3
286	814.5	-636.2	19.9	-24.7	22.1
293.7	757.6	-558.9	23.5	-18.5	30.7
278.8	685.4	-580	9.8	-24.9	41.9
271.9	659	-664.5	-3.8	-19.3	43.3
277.8	651.4	-653.4	-7.1	-7	30.3
335.5	670.4	-641.6	-2.2	5.4	12.7
377	690.4	-577.6	-1.2	14.1	7.9
406.4	713.7	-547.9	-6.9	13.6	15.1
431	677.1	-550.2	-13.8	14.3	28.9
457.1	588.6	-545.6	-14.9	13.2	33.8
485.8	554	-551	-12.6	11.9	29.1
518.5	552	-576.7	-6.5	7.4	17.6
530.6	583	-604.8	-6	4.1	13.4
536.7	599.4	-626.2	-13.8	0.8	14.3
554.1	610.8	-615.8	-19.3	0.4	8.5
566.8	663.5	-612.3	-22	-0.3	1.6
569	716.7	-598.8	-21.8	0.3	-0.4
569.4	719.9	-587.4	-15.6	0.7	3.8
544.7	677.3	-562.8	-7.7	-3.7	8.7
542.2	635.1	-571.2	0.3	-5.4	6.4
536.4	633.3	-578.7	5.5	-5	3
538.2	634.1	-565.1	5.3	-4.6	3
537.1	625	-537.1	2.9	-8.6	4.4
529.6	604.2	-551	0.8	-15	3.8
513	593.7	-579.5	-1.3	-17	2
515	593.1	-635.3	-0.5	-12	1.4
530.2	598.8	-617.1	-2.3	-0.2	2.8
543.9	615.4	-558.4	-4	0.1	3.2
554.6	611.2	-580.5	-1.7	-4.6	6.7
559	579.3	-583.3	0.4	-5	6.4
550.7	577.1	-578.8	3.5	-6.7	7
542.7	588.2	-589.2	0.3	-7.4	7.2
531.8	596.6	-589.2	0	-7.1	5.8
518.7	586.4	-589.7	-1.9	-7.3	5.3
505.1	583.1	-593.7	-5	-7.6	5.1
489.3	590.3	-591.4	-5.2	-8	3.8
493.4	599.7	-625.7	-4.8	-4.9	4.1
522.2	598.3	-605.3	-4.6	2.7	4.9
555.5	599.2	-559	-4.8	3.4	4
577.3	613.2	-541.6	-3.6	-2.6	2.9
593.5	610.2	-550.2	-1.3	-8.3	2.9
595.2	602.9	-565.1	0	-12	4
579.4	599.2	-574.8	1.4	-15.9	3.1
562	607.9	-584.3	5.6	-19.5	0.2
540.8	606.6	-620.1	9.2	-20.5	-0.5
511.2	591.6	-644.1	7.7	-16.3	2.2
491.2	564.9	-642.4	6	-12.4	1.2
487.6	564.4	-638.6	6.1	-8.8	-3.8
458.6	597.1	-658.6	10.1	-5.9	-9.8
445.4	602.9	-669.5	13.4	0.4	-9.6
444.2	602.1	-664.4	12.8	3.3	-7.8
464.2	606	-648.4	7.5	7.8	-2.8
504	623	-628	3.3	10.4	-0.8
555.1	614.7	-584.3	6.5	12.1	-4.6
595.9	613.4	-550	11.3	6.7	-8
592.8	596.6	-558.1	13.6	-0.8	-8.6
567.2	602.9	-583.7	16.3	-7.8	-17.3
533.6	665.7	-621.8	23.7	-13	-37.9
495.3	756.8	-645.3	32	-11.6	-47.9
473.6	785.1	-640.3	32.8	-4.5	-37.5
474.7	729.6	-603.8	28.1	0.7	-20.1
462.1	652	-567	25.4	-1.1	-15.4
453.6	640.1	-601.9	29.3	-6.3	-25.7
440.5	643.3	-642.3	38.4	-3.1	-32.8
415.4	623	-642.5	40.6	0.6	-36.4
380.2	623.1	-660.6	40.5	1.5	-48.8
346.1	681.5	-690	45.7	7.5	-66.7
331	757.2	-701.9	54.7	17.1	-70.5
324	741.4	-673.7	57.2	25.6	-54.3
321.6	665.7	-678.2	52.1	28.2	-39.5
334.3	625.3	-717.7	49.2	34	-32.4
337	585.4	-727.9	47	40.5	-29.3
352.6	542.7	-739.2	45.8	45.7	-28.9
351.6	488.7	-723.5	47.1	47.8	-32.8
343.9	485.4	-745.7	51.4	48.2	-44.8
348.2	533.2	-765.6	52.3	54.8	-47.4
366.4	528.4	-743.4	48.4	62.2	-37.7
361.8	485.3	-694.9	47.7	57.6	-32.3
353.6	433.4	-729.9	52.6	50.2	-41.6
336.9	454.1	-755.1	57.5	52.3	-48.4
335.6	467.2	-777.8	54	58.5	-42.3
339.5	469.9	-776.9	45.6	68.1	-32.1
346.1	451.4	-718.8	38.6	75.3	-19.8
352.7	377.5	-633.7	39.9	75.5	-25.9
379.6	383.1	-632	53.2	68.3	-44.5
408.3	454.4	-650	56.9	73.3	-37
427.4	418	-624.7	44.5	83.8	-11.3
464.2	349.2	-567	38.5	87.4	-7.9
499.2	331.2	-522.4	47.8	81.9	-19.4
532.1	333.3	-518.3	57.2	79.5	-28.4
534.1	339.5	-517.4	58.7	79.7	-26.6
546.8	336.4	-534.3	49.4	83.6	-13.7
599.6	348	-539.5	41.8	95.6	-3.9
677.9	410.7	-503.2	35.1	113.7	9.2
770.7	412.7	-363	32.4	125.3	31
767.5	324.3	-239.8	37.2	108.9	37.7
754.3	264.1	-298.5	46.9	80.1	28.5
798.9	260.4	-432.3	52.1	78	33.1
815	182.7	-425.7	37.7	101.1	30.5
895.5	142.7	-305.7	32.1	110.6	15.3
962	252.3	-209.1	26.1	97.9	7.9
1031.1	258.7	-197.7	33.4	82.8	25.6
1049.8	90.4	-210.4	55.7	73.9	7.6
1038.6	125.7	-277.9	64.6	70.9	-23.6
1054	273.8	-344.2	53.2	83.3	-11.5
1001.7	319	-277.8	46.2	86	34.7
969.8	73.7	-272.4	54.3	83	59.9
951.4	-104	-218.7	80.6	86	25.1
901.6	-21.9	-177.9	98.6	78.7	-22.6
865.9	119.3	-191.5	98.6	77.8	-21.5
884.3	53.1	-155.5	74	98.4	3.8
905.6	-18.5	-11.5	41.9	111	-17.9
985.9	166.6	200.3	45.5	82.3	-48.8
1071	260.3	129.3	23.1	40.9	-57.6
1155.2	223.5	41.1	44.8	29.4	-42.6
1152.5	164.7	-17.7	39.4	29.4	-43.4
1204.2	219.4	-106.9	47.9	26.9	-40.5
1185.7	301.1	-36.4	53.8	32.9	-20.1
1211.4	289.6	37.4	48.7	27.3	-4.5
1144	232.9	27.3	37.1	11.2	-4.6
1097.2	252	-47.2	23.7	3.2	-8
1043.5	285.5	-92.7	19.3	4.1	-4.4
993	276.1	-66.2	14.8	4.7	4.8
913.6	241.5	-55.2	1.9	6.6	9.2
837.8	238	-88.5	-12.1	14.7	6.4
731.8	257.3	-119.8	-22.9	31	10.5
693.8	189.6	-96.5	-37.3	53.9	12.9
1999.9	301.3	90.8	-18	89.2	-40.2
677.1	395	488.5	-28.2	-86.9	-96.8
1097.7	365.4	-513.1	0.2	-95	-48
865.7	538.3	-251.5	-27.8	-8.1	-24.7
949	541.3	-190.3	-60.7	-5.3	-6.8
905.6	527.9	-183.7	-42.6	2.9	6.2
957	442.3	-212	-34.9	25.8	40
962.6	288.2	-156.1	-28.2	51.1	57.2
968.3	176.2	-39.6	-30.3	60.2	54.4
984.2	84.2	90.3	-40.6	54	39.6
1004	90.6	92.4	-63.6	52.7	16.7
951.1	120.6	52	-77.7	53.5	3.8
940.7	138	84.1	-64.9	37.7	-2.8
962.1	169.3	88.6	-45.5	13.5	-14.6
965.6	244.7	43.5	-43.9	12.7	-20.5
954.9	275.8	58.9	-37.2	13.5	-13
948.7	245.7	96.6	-13.9	4.8	-6.9
959.5	203.1	132.2	-7.6	3.8	-7.8
953.9	191.5	175	-6.2	-1.9	-14.4
968.5	200.9	98.8	-18.9	3.6	-24.6
958.6	209.3	116.9	-4.2	-14.1	-27.3
958.1	235.1	47.7	-4.1	-11.6	-32
952.2	259.6	53.2	0.2	-2.4	-36.7
949.9	277.9	95.7	1.4	-0.7	-35.9
938.3	291.6	101.1	4.2	0.5	-38.2
939.9	321	123.1	5.8	-2.6	-37.2
937	337.5	92.8	8.4	-3.5	-34.5
926.7	364.2	89.9	11.9	-4	-30.2
927.9	380.4	73.3	12.8	-3.5	-23.9
920.5	373.2	72.1	10.6	-3.1	-18.3
930.4	362.1	81.7	6.4	-2.9	-14.6
923	367.1	82.7	2.9	-4.3	-14.4
926.8	363	62.6	3.1	-3.1	-12
921.9	353.6	70.6	4.8	0.3	-12.6
922.3	344.3	97.4	2.8	-1.3	-14.9
920.6	355.9	79.1	-1.9	-4.5	-18.9
915.8	380.6	60.5	-2.7	-2.5	-19.1
911.3	401.9	75.9	-1.4	-0.1	-16.9
906	425.1	91.3	0.2	-1.8	-13.4
905.5	431	75.9	0.9	-2.9	-6.3
908.9	422.1	68.6	0.3	-2	-0.1
908.3	400.2	79.7	0.1	-1.4	3.3
913.8	380.9	70.9	0.8	-1.6	4.2
913.6	370.4	69.8	0.7	-1.2	2.4
916.1	368.8	62.3	-0.9	-0.1	0
916	371	67.6	-1.2	0.5	-0.8
914.3	376.4	79.4	-0.7	0.8	-2.3
910.8	382.8	85.5	0.8	0	-2.9
910	390.3	84.4	1	-1.6	-2.8
912.8	394.1	78.9	0	-2.8	-1.5
912.8	385.4	63.8	-0.3	-2.3	0
914.5	377.1	69.9	0	-1	-0.5
911.7	376.5	79.4	-0.3	-1.5	-1.9
913	384.3	75.3	-0.9	-2.4	-2.6
914.3	387.9	68.6	-1	-2.4	-2.2
913	385.1	66.6	-0.2	-1.6	-1.8
912.5	380.2	73.8	0.3	-1.5	-2.2
912.7	380.7	66.2	0.3	-1.5	-2.8
919.3	388.4	59.8	-0.1	-0.5	-2.3
913	383.9	63.3	0.3	1	-2.2
914.6	385.6	75.1	0.4	1.4	-2.6
911	386.7	81	0.3	0.2	-2.6
913	392.8	71.5	0.1	-0.4	-1.9
914.1	385.3	69.8	0.2	-0.2	-0.9
912.3	382.2	75.3	0.2	-0.3	-1.5
913	386.3	74.4	-0.1	-0.8	-1.9
913.3	385.6	67.7	-1.1	-0.7	-1.5
915.7	381.7	66.1	-0.9	0	-1.6
912.7	378.7	74	-0.7	0.4	-2.5
911.8	385.6	79.1	-0.2	-0.2	-3.2
911.8	392	71.1	-0.4	-0.8	-2.7
912.4	387.9	71.4	0.3	-0.1	-1.9
912.3	382.3	72.1	1.4	0	-2
912.5	382.9	65.7	1.3	0.1	-2.9
911.1	388.7	64.6	0.2	1	-3.2
911.4	392.8	72.5	-0.2	1.6	-2.7
910.1	393.3	82.7	-0.1	1.1	-1.9
910.5	391.2	76	-0.1	0	-1.4
912.4	388.6	68.7	-0.8	0.3	-1.1
912.7	383.1	75	-1	0.9	-1.4
910.6	385.3	80.8	-1	0.3	-2.1
911.1	394.4	77.5	-1.2	-0.4	-2.1
909.7	392.5	76.2	-1.1	0	-0.6
911.7	386.8	78.7	-0.7	0	-0.3
911.6	383.3	80.4	-0.5	-0.5	-0.7
910.7	382.5	77.5	-0.3	-0.6	-0.9
912.3	384.3	80.5	-0.4	-0.5	-1.5
912.9	385.7	75.3	-0.1	-0.9	-1.6
911.2	387.5	74	0	-0.3	-1.7
911	391.1	77.2	-0.1	-0.4	-1.9
912.5	388.7	74.8	-0.2	-0.3	-1.1
913.2	384.5	72.3	0	0	-1.3
912.8	383.1	77.5	0	0.3	-1.8
910.6	390	83.6	-0.4	-0.3	-2.2
910.1	392.4	76.5	-0.4	-0.7	-1.2
911.3	387.3	76.9	-0.1	-0.7	-0.8
913.3	381.9	77.1	0	-0.7	-1.2
913	380.2	77.3	-0.2	-0.9	-2.1
911.4	384.8	72.7	-0.2	-0.6	-2.6
911.9	390.6	74.7	-0.4	-0.4	-2.7
911.1	389.8	72	-0.4	0	-1.9
911.2	383.6	78.2	-0.2	0.6	-1.7
912.1	383.5	82.7	0.1	0.2	-2.4
909.5	385.2	80.2	0.2	-0.6	-3
911.3	391.4	75.5	0.1	-0.7	-3
911.8	388.6	74.8	0.2	-0.3	-2.5
909.9	384.6	78.2	0.9	-0.2	-2.6
910.4	386.4	78.1	0.7	-0.5	-3.3
910.1	392.2	77	0	-1.3	-3.3
908.8	394.2	78.8	0.2	-0.4	-2.9
910.5	392.3	77.5	0.5	-0.4	-2.5
909.6	390.3	78.9	0.7	-0.6	-2.7
909	390.5	77.5	-0.1	-0.8	-3.1
911	393	77	0	-0.7	-3.1
904.6	390.3	68.3	0.1	-0.4	-2.7
908	390.3	72.2	-0.1	1.1	-3.4
908.9	394.4	81.5	-0.9	0.8	-3.8
907.7	399.6	78.6	-0.5	0.5	-2.8
908.4	396.7	76.9	0	0.6	-2
908.5	391.6	80.3	0.2	0.6	-2
908	393.7	82.1	-0.3	0	-2.5
908.5	397	77.1	-0.1	0	-2.3
908.5	398.3	80.3	0	0.2	-1.7
908.6	393.7	82.7	0.3	0	-1.4
906.7	391.3	81.9	-0.1	-0.5	-1.9
908.5	394.1	76.2	-0.4	-0.7	-2.2
909.1	394.6	77.5	-0.5	-0.3	-2.2
907.5	395.2	77.7	-0.5	-0.1	-2.2
908.4	397	81.1	-0.5	-0.1	-2
908	398.6	85.2	-0.8	-1	-1.6
907.5	396.1	77.6	-0.3	-0.9	-1
907.4	390	74.4	0	-0.3	-1.1
908.5	389.6	75.3	0	0.3	-1.8
907.7	394.5	81.5	-0.6	0.3	-2.3
906.9	399.1	81.1	-0.9	-0.2	-2.2
908.4	400.8	78.9	-0.3	-0.1	-1.2
907.8	392.9	79.5	0	0.2	-0.7
908.8	390.3	81.5	-0.1	0.2	-1.4
906	394.6	84.3	-0.7	-0.3	-1.9
907.4	396.3	84.1	-0.5	-0.6	-1.7
908.3	392.9	76.6	-0.1	-0.6	-1.4
908.3	392.9	74.9	0	0.1	-1.6
907.7	395.1	83	-0.8	0.2	-2
906.2	400.3	86.7	-0.8	-0.3	-1.5
907.8	397.8	86.1	-0.1	-1	-0.9
907.7	393.4	78.6	0.2	-1	-0.7
908.4	391.1	77.2	-0.3	-0.8	-1.1
909.4	393.7	77.7	-0.8	-0.3	-1.6
907.2	395.8	81.1	-0.6	-0.2	-1.2
907.2	395.3	84.4	0	-0.2	-1
908.4	394.5	84.4	-0.3	-0.9	-1.2
909.1	394	79.3	-0.4	-0.9	-1.1
908.3	391.9	80.3	-0.1	-0.3	-0.7
910.1	388	84.5	0.1	-0.5	-1.4
908.5	392.7	81.1	0	-0.9	-1.8
909.4	395.7	72.1	-0.4	-0.3	-1.6
909.3	394.6	80.2	-0.7	0.6	-1.1
909	390.9	86.4	-0.5	0	-1
908.3	391.7	84.2	-0.2	-0.7	-1.3
907.8	392.7	81.7	-0.1	-0.8	-1.4
909.4	394.8	80.5	-0.1	-0.7	-0.9
909.1	393.4	79.5	-0.4	-0.4	-0.7
909.5	390.5	78.3	-0.8	-0.1	-0.9
909.9	388.6	81.5	-1.1	0.2	-1
910.4	391.6	84.7	-0.8	-0.2	-1.2
910.6	391.8	82.6	-0.3	-0.3	-1.2
908.3	391.7	82.8	-0.3	-0.3	-1.3
909.1	393	83.3	-0.6	-0.4	-1
908.4	392.2	83.6	-0.8	-0.6	-0.9
912.4	391.6	83.3	-0.4	-0.5	-0.7
911.2	387.6	81.5	-0.1	-0.4	-0.9
911.1	388.7	81.4	-0.1	-0.3	-1.1
908.6	389.2	85.6	-0.6	-0.3	-1.2
910.5	389.8	80.6	-0.6	-0.5	-1.2
910	389.4	79.7	-0.4	-0.1	-0.9
909.5	387.4	84.4	-0.4	-0.1	-1.3
910.7	390.8	84.9	-0.5	-0.5	-1.3
911.3	389	83.1	-0.4	-0.4	-1.2
910.6	385	82.8	-0.2	-0.5	-1.5
910	385.9	84.3	-0.2	-0.4	-2.1
910.6	389.6	81.6	-0.3	-0.5	-2.2
910.5	391.3	83.1	-0.2	-0.2	-1.9
908.8	393	83.7	-0.4	-0.3	-1.7
909.7	391.2	86.6	-0.3	-0.6	-1
910.7	387.4	83.2	-0.4	-0.7	-1
912.3	383.3	84.2	-0.3	-0.4	-1.7
909.4	386.9	84.7	-0.6	-0.5	-2.4
908.8	393	84.1	-0.3	-0.7	-2.1
909.5	392.4	84.9	-0.2	-0.9	-1.3
909.9	390.6	82	0.1	-0.9	-0.9
909.9	386.2	80.3	-0.2	-0.4	-1.2
910.7	387.8	82.6	-0.7	-0.3	-1.8
910.6	387.8	84.9	-0.3	-0.1	-1.7
911	385.6	84.4	0.1	-0.1	-2.2
910.5	389.8	85.8	0.1	-0.3	-2.5
909	394.8	82.5	-0.5	-0.7	-2.1
910.2	394	79.5	-0.5	0	-1
910.1	385	83.1	-0.4	0.2	-0.8
910	385.2	84.8	-0.4	0.2	-1.6
909.3	388.3	88.8	-1.1	-0.1	-2.2
910.6	393.3	86.7	-0.8	-0.7	-1.6
910.6	391.3	80.4	-0.7	-0.5	-0.9
910	387.3	78.6	-1.2	0.4	-1
910.8	385.3	87.1	-1.5	0.9	-1.3
910.4	385.7	90	-1.5	0.1	-1.6
910.6	386.5	88.8	-0.8	0.1	-2.2
908.6	390.1	92	-0.8	-0.2	-2.3
909.6	390.1	89.4	-0.3	-0.7	-2
911	391.4	89.4	-0.1	-0.6	-1.8
909.3	388.1	87.6	0	-0.9	-1.7
909.1	388.9	87.4	0	-0.7	-1.9
910.1	390.9	89.3	0	-0.9	-1.6
909.6	389.1	85.3	-0.1	-1.1	-1.4
910.7	387.6	85.8	0	-0.8	-1.7
910.7	387.3	86.4	0	-0.7	-1.9
909.3	389.6	87.6	-0.1	-0.8	-2.1
910.1	393.1	88.5	-0.1	-1	-1.7
909.4	390.1	86.9	0	-1.2	-1
910.5	387.3	83.2	0.1	-1.1	-1
911	385	82	-0.2	-0.8	-1.6
909.7	389.8	86.4	-0.7	-0.6	-1.8
909.9	389.6	84.5	-0.9	-0.9	-1.7
909.5	389.8	83.8	-0.7	-0.2	-1.4
908.9	388.6	84.3	-0.9	-0.1	-1.4
909.3	387.2	86.4	-1	-0.1	-1.6
909.3	388.4	91.3	-0.8	-0.5	-1.5
909.7	387	88.3	-0.2	-0.9	-1.4
911.7	385.8	84.1	-0.2	-0.9	-1.8
911.2	386.3	87.7	-0.7	-0.9	-2.2
910.4	390.8	81.6	-0.8	-0.9	-2.2
910.4	394	82.1	-0.8	-0.2	-1.9
909.6	388.6	90.2	-0.2	-0.1	-1.2
909.4	386.4	88.9	0	-0.8	-1.3
910.2	389	85.5	0	-0.8	-1.8
911.1	389.6	84.9	-0.1	-0.8	-1.8
910.2	388	84.7	0	-0.5	-1.5
910.4	384.6	87.2	0	-0.7	-2.2
909	389.5	78.4	-0.4	-0.7	-2.6
908.3	391.8	83.9	-0.7	0	-2.2
910.1	391.2	88.5	-0.4	0	-1.5
910.2	388.1	91.1	0	-0.2	-1.4
908.3	386.5	91.3	0	-0.7	-1.8
909.5	390.7	85.6	-0.3	-1.1	-2.1
909.7	389.5	82.3	-0.1	-0.6	-1.5
909.9	388.9	82.2	0	-0.3	-1.8
910.1	390	87.2	-0.4	-0.1	-1.8
909.9	391.1	88.9	-0.7	-0.5	-1.8
912.1	390.5	87.7	-0.2	-0.5	-1.5
910.4	387.8	85.4	0	-0.5	-1.4
910	385.3	86.9	0.3	-0.6	-1.9
911.1	389.2	83	-0.3	-0.5	-2.4
909.6	392.8	88.2	-0.7	-0.3	-2.3
909.6	393.4	89.2	-0.3	-0.7	-1.8
910.1	387.8	84.5	0.3	-0.5	-1.6
909.9	384.2	82.8	0.1	-0.1	-2.1
909.9	390.9	90.3	-0.5	-0.2	-2.6
908.9	396.9	89.4	-0.4	-1	-2.2
910	393.4	82.8	0.1	-0.7	-1.2
910.6	386.7	83	0.1	-0.2	-1.2
910.5	385.4	87.5	-0.3	0	-2.2
908.5	391.6	92.1	-0.7	-0.6	-2.7
907.9	397.2	86	-0.1	-1	-2.1
909.7	393.1	85.4	0	-0.8	-1.2
908.9	386.5	87.4	0.1	-0.7	-1.2
910.6	385.9	83.8	-0.4	-0.8	-2.2
909.4	390.5	84.7	-0.4	-0.3	-2.3
908.2	394.2	90.5	-0.1	-0.5	-2.2
910.1	392.3	85.4	0	-1	-1.7
909	392.3	80.9	-0.1	-0.4	-2
909.3	393.1	87.4	-0.8	-0.2	-2
909.9	393.5	88.2	-0.6	-0.3	-1.8
909.5	392.5	86.3	-0.1	-0.3	-1.5
908.6	390.5	85.3	-0.1	-0.1	-1.6
908.8	392.4	87	-0.5	-0.1	-1.7
907.1	391.3	92	-0.6	-0.4	-1.4
908.4	390.9	91.1	-0.1	-0.9	-1.4
908.6	389.5	85	0.3	-0.7	-1.2
909.9	390.1	87.5	0	-0.7	-1.6
908.4	389.7	86.6	-0.3	-0.9	-2
910	394.6	82.5	-0.5	-0.8	-2
907.5	393.5	84.2	-0.3	-0.1	-1.3
908.8	390.6	92.7	-0.3	-0.5	-1.3
909.4	388.7	86.5	-0.1	-1	-1.5
908.6	389.5	85.4	0	-0.9	-1.8
908.9	393.3	83.2	-0.2	-0.9	-1.8
909.6	392.8	83	-0.3	-0.5	-1.5
907.1	390.9	85.6	-0.5	-0.3	-1.3
910.1	390.8	89.7	-0.2	-0.5	-1.3
909.3	390.5	88.8	-0.2	-0.7	-1.4
909.1	391.4	85.8	-0.1	-0.9	-1.7
908.6	394.1	84.4	-0.2	-0.7	-1.3
909.6	391.7	86.6	-0.4	-0.4	-1.2
909.1	388.1	88.8	-0.5	-0.7	-1.3
908.2	388.7	86.1	-0.4	-0.8	-1.6
910.2	392.9	89.1	-0.1	-1	-1.4
909.5	391.6	83	-0.1	-1	-1.1
909.9	390.9	84.5	-0.3	-0.6	-1.1
908.9	389.1	84.9	-0.4	-0.5	-1.1
908.3	391.1	86.9	-0.5	-0.6	-1.1
908.9	388.7	86.3	-0.5	-0.9	-1
910.1	390.1	83.8	-0.5	-0.7	-1.1
909.9	387.6	83.9	-0.6	-0.5	-1.3
909.9	389	86.5	-0.5	-0.4	-1.4
909.7	391.8	92.2	-0.5	-0.9	-1.2
910.7	391.1	85.8	-0.2	-1.6	-0.9
910.6	388.4	78.8	-0.2	-0.8	-0.8
911.9	387.3	82.8	-0.5	-0.1	-1.1
909.5	388.1	87.4	-0.7	0	-1.2
910.7	389.7	92.4	-0.7	-0.8	-1.2
911.3	390.1	85.2	-0.3	-1.2	-0.9
910.5	386.3	82.1	-0.4	-0.9	-1.1
910.8	385.2	84.7	-0.5	-0.5	-1.2
911.9	388.4	83.8	-0.8	-0.5	-1.7
910.5	391.2	87.4	-0.7	-0.6	-1.4
911.1	388.3	87.7	-0.3	-0.9	-0.9
911.4	384	84.2	-0.1	-0.8	-0.8
913.3	383.3	82.8	0	-0.5	-1.4
911.8	384.6	87.2	-0.4	-0.4	-2.1
910.5	388.3	91.1	-0.4	-0.9	-2.2
910.1	390.8	84.2	-0.1	-1.6	-1.8
912.7	388	74.7	-0.1	-0.5	-1.2
911.3	384.3	83.8	-0.5	0.3	-1.5
909.1	384.6	90	-0.8	-0.2	-1.7
910.8	389.7	90.9	-0.5	-0.9	-1.9
911	389.7	83.1	0	-1.1	-1.6
912.1	386.3	82.1	-0.2	-0.7	-1.4
912.7	385.2	80.5	-0.1	-0.2	-1.7
910.5	386.5	85.9	-0.7	0	-1.9
910.6	390.2	87.6	-0.6	-0.3	-1.8
910.1	389.1	88.6	-0.7	-0.5	-1.8
911.1	387.8	85	-0.2	-0.7	-1.2
911.1	383.9	86	0	-0.5	-1.5
911.2	385	84.5	-0.3	-0.6	-2
909	387.3	88.5	-0.4	-0.5	-2.1
910.7	391.4	87.7	-0.4	-1	-1.8
909.9	389.5	84.2	0	-1	-1.1
912.1	386.3	82.3	-0.2	-0.6	-1.1
910.5	381.5	84.5	-0.4	-0.3	-1.6
912.5	384.2	86.4	-0.4	-0.2	-2.3
910.2	389.8	84.9	-0.6	-0.3	-2.3
910.4	392.5	88.5	-0.5	-0.2	-1.6
910.1	390.2	86.5	-0.6	-0.7	-1
911.3	383.9	85.2	-0.1	-0.5	-1.1
911.8	382.3	87.1	0	-0.4	-1.8
909.9	389.4	87.7	-0.5	-0.7	-2.2
910.4	391.1	89.1	-0.5	-0.8	-1.8
910.2	388	85.6	-0.1	-1.2	-1.1
910.7	384	80.3	0	-0.6	-1.2
912.4	386.3	82.3	-0.6	0	-1.9
912.4	388.6	87.1	-0.8	0	-2
909	388.1	94.2	-0.4	-0.6	-1.4
909	386.9	84.8	0	-0.9	-1.3
911.6	386.4	85.4	-0.4	-0.6	-1.8
913.8	385.3	83.4	-0.4	-0.6	-2.1
909.5	384.7	86.9	-0.5	-0.9	-1.8
913.3	389	83.9	0	-0.5	-1.6
910.2	387.8	88.1	-0.8	-0.7	-1.6
911.8	388	86.1	-0.5	-0.6	-1.6
910.5	387.2	88.9	-0.4	-0.7	-1.2
912.8	385.6	85.6	0	-0.8	-1.5
910.6	383.1	84.2	-0.2	-0.6	-2
910.1	387	86.4	-0.2	-0.4	-2.7
910.1	393.3	81.5	-0.3	-0.4	-2
910	390.7	84.5	-0.5	-0.1	-1.3
910.5	387.3	89.8	-0.3	-0.2	-0.9
911.2	383.1	87.8	-0.1	-0.4	-1.4
911.8	385.1	88.1	-0.3	-0.8	-2
909.7	388.1	84.1	-0.5	-1	-1.9
909.9	389.8	83.3	-0.2	-0.4	-1.4
910.5	385.9	87.6	-0.3	-0.2	-1.4
